# time	left pressure 1[N/cm²]	left pressure 2[N/cm²]	left pressure 3[N/cm²]	left pressure 4[N/cm²]	left pressure 5[N/cm²]	left pressure 6[N/cm²]	left pressure 7[N/cm²]	left pressure 8[N/cm²]	left pressure 9[N/cm²]	left pressure 10[N/cm²]	left pressure 11[N/cm²]	left pressure 12[N/cm²]	left pressure 13[N/cm²]	left pressure 14[N/cm²]	left pressure 15[N/cm²]	left pressure 16[N/cm²]	left acceleration X[g]	left acceleration Y[g]	left acceleration Z[g]	left angular X[dps]	left angular Y[dps]	left angular Z[dps]	left total force[N]	left center of pressure X[%]	left center of pressure Y[%]	right pressure 1[N/cm²]	right pressure 2[N/cm²]	right pressure 3[N/cm²]	right pressure 4[N/cm²]	right pressure 5[N/cm²]	right pressure 6[N/cm²]	right pressure 7[N/cm²]	right pressure 8[N/cm²]	right pressure 9[N/cm²]	right pressure 10[N/cm²]	right pressure 11[N/cm²]	right pressure 12[N/cm²]	right pressure 13[N/cm²]	right pressure 14[N/cm²]	right pressure 15[N/cm²]	right pressure 16[N/cm²]	right acceleration X[g]	right acceleration Y[g]	right acceleration Z[g]	right angular X[dps]	right angular Y[dps]	right angular Z[dps]	right total force[N]	right center of pressure X[%]	right center of pressure Y[%]
0.00	2.25	3.00	2.50	2.75	3.25	1.50	0.75	1.00	2.75	0.75	0.25	0.00	0.75	1.75	0.00	0.50	-0.187500	0.024414	0.960449	-1.470000	6.580000	-1.330000	258.00	-0.09	-0.01	1.75	2.00	1.75	4.00	2.75	3.00	1.25	2.50	2.25	1.00	0.75	0.50	2.75	1.75	0.75	1.50	-0.133789	0.047852	0.977051	-2.380000	-3.010000	2.100000	327.00	-0.03	-0.10
0.01	2.25	3.00	2.50	2.75	3.50	1.50	0.75	1.00	2.50	0.50	0.25	0.00	0.75	1.75	0.00	0.50	-0.191895	0.020508	0.959961	-1.540000	6.510000	-1.400000	255.00	-0.10	-0.02	1.75	2.25	2.00	3.75	3.00	3.00	1.25	2.75	2.50	1.00	0.75	0.50	2.75	1.75	0.50	1.75	-0.138672	0.046875	0.986816	-2.520000	-3.080000	2.030000	338.00	-0.04	-0.09
0.02	2.00	3.00	2.50	2.50	3.25	1.75	0.75	1.00	3.00	0.50	0.00	0.00	0.75	1.75	0.00	0.75	-0.192383	0.020020	0.961914	-1.470000	6.580000	-1.400000	255.00	-0.09	-0.01	1.50	2.00	2.00	3.50	3.00	3.00	1.25	2.50	2.25	1.00	0.75	0.50	2.75	1.75	0.50	1.50	-0.136230	0.050781	0.983887	-2.520000	-3.080000	2.100000	322.00	-0.03	-0.09
0.03	2.25	3.00	2.75	2.75	3.50	1.50	0.75	1.00	2.75	0.50	0.25	0.00	0.75	2.00	0.00	0.75	-0.191406	0.019043	0.956055	-1.400000	6.580000	-1.330000	264.00	-0.09	-0.01																									
0.04	2.00	3.00	2.50	2.50	3.50	1.50	0.75	1.00	2.75	0.50	0.25	0.00	0.50	2.00	0.00	0.50	-0.190430	0.016602	0.962891	-1.470000	6.650000	-1.400000	253.00	-0.09	-0.00	1.75	2.00	2.00	3.75	3.00	3.00	1.25	2.75	2.50	1.25	0.75	0.50	3.00	2.00	0.25	1.50	-0.135254	0.050293	0.977539	-2.520000	-3.220000	2.170000	339.00	-0.03	-0.09
0.05																										1.75	2.25	1.75	3.25	3.00	3.00	1.25	2.50	2.25	1.00	1.00	0.50	2.75	2.00	0.50	1.50	-0.135254	0.050293	0.977539	-2.520000	-3.220000	2.170000	326.00	-0.03	-0.09
0.06	2.25	3.25	2.50	3.00	3.50	1.50	1.00	1.00	3.00	0.50	0.50	0.00	0.75	1.75	0.00	0.75	-0.189453	0.020020	0.963379	-1.470000	6.510000	-1.400000	274.00	-0.09	-0.01	1.75	2.00	2.00	3.75	3.00	3.00	1.25	2.50	2.50	1.00	0.75	0.50	2.75	2.00	0.50	1.50	-0.138184	0.050781	0.976562	-2.590000	-3.150000	1.960000	333.00	-0.03	-0.09
0.07																										1.75	2.25	2.00	3.75	3.00	3.00	1.25	2.75	2.25	1.00	0.50	0.50	2.75	1.75	0.50	1.50	-0.139160	0.047852	0.976074	-2.450000	-3.150000	2.030000	331.00	-0.04	-0.10
0.08	2.25	3.00	2.50	3.00	3.50	1.25	0.75	1.00	2.50	0.25	0.25	0.00	0.50	2.00	0.00	0.75	-0.185059	0.023438	0.956543	-1.400000	6.370000	-1.260000	254.00	-0.10	-0.01	2.00	2.00	2.00	3.50	3.00	2.75	1.25	2.75	2.25	1.00	0.75	0.50	2.75	2.00	0.50	1.50	-0.135742	0.050293	0.980957	-2.450000	-3.220000	2.100000	331.00	-0.04	-0.09
0.09	2.25	3.25	2.50	2.75	3.50	1.50	0.75	1.00	2.75	0.50	0.25	0.25	0.75	1.75	0.00	0.75	-0.190430	0.022461	0.961914	-1.330000	6.090000	-1.260000	265.00	-0.09	-0.02	1.75	2.25	2.00	3.50	3.00	3.00	1.25	2.75	2.25	1.00	0.75	0.50	2.75	1.75	0.50	1.50	-0.132324	0.044922	0.976074	-2.450000	-3.150000	2.030000	331.00	-0.04	-0.10
0.10	2.25	3.00	2.75	2.75	3.75	1.50	0.75	1.00	2.25	0.50	0.00	0.00	0.75	2.00	0.00	0.75	-0.185547	0.019043	0.958008	-1.610000	6.440000	-1.470000	258.00	-0.10	-0.02	2.00	2.25	1.75	3.75	3.25	3.00	1.25	2.50	2.50	1.00	1.00	0.50	3.00	2.00	0.25	1.75	-0.142578	0.047363	0.981445	-2.450000	-3.080000	2.030000	341.00	-0.04	-0.09
0.11	2.25	3.25	2.75	2.75	3.50	1.50	0.75	1.00	2.75	0.00	0.00	0.00	0.50	1.75	0.00	0.50	-0.192383	0.019043	0.955566	-1.470000	6.580000	-1.470000	253.00	-0.11	-0.01	2.00	2.00	1.75	3.75	3.25	3.25	1.25	2.50	2.25	1.00	0.75	0.50	2.75	1.75	0.50	1.50	-0.140137	0.052734	0.978027	-2.380000	-3.080000	2.030000	333.00	-0.04	-0.09
0.12	2.25	3.25	2.50	2.75	3.50	1.50	0.75	1.00	2.50	0.25	0.00	0.00	0.50	2.00	0.00	0.50	-0.193359	0.017090	0.962402	-1.400000	6.510000	-1.330000	252.00	-0.11	-0.01	1.75	2.50	2.00	3.75	3.25	3.00	1.25	2.50	2.00	1.00	0.75	0.75	3.00	2.00	0.50	1.50	-0.142578	0.050293	0.976562	-2.450000	-3.150000	1.960000	339.00	-0.04	-0.10
0.13	2.25	3.25	2.50	3.00	3.75	1.50	0.75	0.75	2.75	0.25	0.25	0.00	0.25	1.75	0.00	0.50	-0.194824	0.014160	0.958008	-1.400000	6.300000	-1.330000	255.00	-0.11	-0.00	2.00	2.25	2.00	3.75	3.25	3.00	1.50	2.50	2.25	1.00	0.75	0.50	2.75	2.00	0.25	1.50	-0.130859	0.046875	0.978027	-2.450000	-3.150000	1.960000	339.00	-0.04	-0.09
0.14	2.25	3.25	2.50	2.75	3.75	1.25	0.75	1.00	2.75	0.25	0.25	0.00	0.50	1.75	0.00	0.75	-0.189453	0.020508	0.961914	-1.540000	6.720000	-1.470000	257.00	-0.10	-0.01	1.75	2.50	2.00	3.75	3.25	3.00	1.50	2.50	2.25	1.00	0.50	0.50	3.25	1.75	0.50	1.50	-0.133789	0.049805	0.977539	-2.380000	-3.080000	2.030000	340.00	-0.04	-0.09
0.15	2.25	3.50	2.75	2.75	3.75	1.50	0.75	1.00	2.50	0.50	0.25	0.00	0.75	1.75	0.00	0.50	-0.188477	0.019043	0.956543	-1.680000	6.650000	-1.540000	265.00	-0.11	-0.02	2.00	2.50	2.00	3.75	3.25	3.00	1.25	2.50	2.25	1.25	0.75	0.50	2.75	2.00	0.50	1.50	-0.136230	0.049316	0.977051	-2.520000	-3.150000	2.030000	342.00	-0.04	-0.09
0.16	2.50	3.25	2.75	3.00	3.75	1.50	0.75	0.75	2.50	0.25	0.00	0.00	0.50	1.75	0.00	0.50	-0.191406	0.021973	0.953125	-1.540000	6.580000	-1.470000	257.00	-0.12	-0.01	1.75	2.25	2.00	3.75	3.25	3.00	1.50	2.50	2.00	1.00	0.75	0.50	2.75	1.75	0.50	1.50	-0.137207	0.049805	0.978027	-2.450000	-3.150000	2.030000	333.00	-0.04	-0.09
0.17	2.25	3.25	2.50	2.75	3.75	1.25	0.75	0.75	2.25	0.25	0.00	0.00	0.50	2.00	0.00	0.50	-0.188477	0.026855	0.959961	-1.400000	6.580000	-1.470000	245.00	-0.11	-0.00	2.00	2.00	2.00	4.00	3.50	3.25	1.50	2.50	2.50	1.25	0.75	0.25	3.00	2.00	0.50	1.75	-0.143555	0.044922	0.983398	-2.380000	-3.220000	2.030000	354.00	-0.04	-0.08
0.18	2.25	3.25	2.50	3.00	3.75	1.50	0.75	0.75	2.25	0.50	0.25	0.00	0.50	2.00	0.00	0.50	-0.183105	0.018555	0.958984	-1.470000	6.370000	-1.400000	256.00	-0.11	-0.01	1.75	2.25	2.00	3.75	3.25	3.25	1.50	2.50	2.25	1.25	0.75	0.50	3.00	1.75	0.50	1.50	-0.132324	0.044922	0.975586	-2.450000	-3.220000	2.030000	344.00	-0.04	-0.09
0.19	2.50	3.00	2.50	3.00	3.75	1.50	0.75	0.75	2.75	0.25	0.25	0.00	0.50	1.75	0.00	0.50	-0.189941	0.021484	0.959961	-1.470000	6.300000	-1.400000	258.00	-0.11	-0.00	1.75	2.25	2.00	4.00	3.25	3.00	1.50	2.75	2.50	0.75	0.75	0.50	2.75	1.75	0.50	1.50	-0.139648	0.050781	0.980957	-2.450000	-3.150000	2.100000	344.00	-0.04	-0.09
0.20	2.25	3.25	2.75	2.75	3.50	1.50	0.75	1.00	2.50	0.25	0.00	0.00	0.50	2.00	0.00	0.50	-0.185547	0.024414	0.957520	-1.470000	6.370000	-1.330000	255.00	-0.11	-0.01	1.75	2.25	2.25	3.75	3.25	3.00	1.50	2.75	2.25	1.00	0.75	0.50	3.00	1.75	0.50	1.50	-0.133789	0.047852	0.980469	-2.450000	-3.150000	1.960000	345.00	-0.04	-0.09
0.21	2.50	3.50	2.50	2.75	4.00	1.50	0.75	1.00	2.25	0.25	0.25	0.00	0.50	2.00	0.00	0.50	-0.190430	0.019043	0.959961	-1.400000	6.370000	-1.330000	262.00	-0.11	-0.01	2.00	2.25	2.00	4.00	3.50	3.25	1.50	2.75	2.25	1.00	0.75	0.50	3.00	1.75	0.50	1.50	-0.141113	0.047852	0.983887	-2.450000	-3.220000	2.030000	353.00	-0.04	-0.09
0.22	2.50	3.25	2.75	2.75	3.75	1.50	0.75	1.00	2.25	0.00	0.25	0.00	0.50	2.00	0.00	0.50	-0.185547	0.020020	0.956055	-1.400000	6.300000	-1.260000	257.00	-0.12	-0.01	2.00	2.25	2.00	4.00	3.50	3.25	1.50	2.75	2.50	1.25	0.50	0.50	2.75	2.00	0.50	1.75	-0.140137	0.049316	0.980957	-2.520000	-3.220000	2.100000	358.00	-0.04	-0.09
0.23	2.25	3.50	2.50	3.00	4.00	1.25	0.75	1.00	2.50	0.25	0.00	0.00	0.50	1.75	0.00	0.50	-0.185547	0.020020	0.956055	-1.330000	6.230000	-1.400000	258.00	-0.12	-0.01	2.00	2.25	2.25	4.25	3.50	3.25	1.50	2.75	2.25	1.00	0.75	0.50	3.00	1.75	0.50	1.50	-0.136230	0.049316	0.984375	-2.520000	-3.150000	2.030000	359.00	-0.05	-0.09
0.24	2.25	3.25	2.50	2.75	3.75	1.25	0.75	0.75	2.50	0.25	0.00	0.00	0.50	2.00	0.00	0.50	-0.187500	0.016602	0.960938	-1.400000	6.440000	-1.330000	248.00	-0.11	-0.00	2.00	2.25	2.00	3.75	3.50	3.00	1.50	2.75	2.25	1.00	0.75	0.75	3.00	2.00	0.50	1.50	-0.135742	0.048828	0.981934	-2.380000	-3.080000	1.960000	353.00	-0.04	-0.09
0.25	2.25	3.25	2.50	2.75	3.75	1.50	0.75	0.75	2.50	0.25	0.25	0.00	0.50	1.75	0.00	0.50	-0.191895	0.017090	0.961914	-1.330000	6.090000	-1.260000	251.00	-0.11	-0.01	2.00	2.25	2.00	4.00	3.50	3.25	1.50	2.50	2.25	1.00	0.75	0.75	3.00	1.75	0.25	1.75	-0.138184	0.047852	0.984863	-2.450000	-3.150000	2.030000	351.00	-0.05	-0.09
0.26	2.50	3.50	2.75	2.75	3.75	1.25	0.75	1.00	2.50	0.25	0.25	0.00	0.50	1.50	0.00	0.50	-0.186035	0.021973	0.958496	-1.400000	6.160000	-1.260000	258.00	-0.12	-0.01	1.75	2.25	2.25	4.25	3.50	3.00	1.50	2.50	2.25	1.00	0.75	0.50	3.00	2.00	0.50	1.75	-0.135742	0.049805	0.979492	-2.520000	-3.080000	2.030000	353.00	-0.04	-0.09
0.27	2.50	3.50	2.75	3.00	3.75	1.50	0.75	0.75	2.50	0.25	0.00	0.00	0.50	1.50	0.00	0.50	-0.187500	0.021484	0.958984	-1.400000	6.370000	-1.330000	257.00	-0.13	-0.01	2.00	2.00	2.00	4.00	3.50	3.00	1.50	2.75	2.25	1.00	0.50	0.50	3.00	2.00	0.50	1.50	-0.135254	0.049805	0.980469	-2.520000	-3.080000	2.030000	348.00	-0.04	-0.09
0.28	2.50	3.25	2.75	3.00	4.00	1.50	0.75	0.75	2.25	0.50	0.00	0.00	0.50	2.00	0.00	0.50	-0.189941	0.019043	0.962891	-1.540000	6.300000	-1.470000	261.00	-0.12	-0.01	2.00	2.00	2.00	3.75	3.50	3.00	1.50	2.75	2.25	1.00	0.75	0.50	2.75	1.75	0.50	1.50	-0.139160	0.048340	0.985840	-2.450000	-3.150000	2.030000	343.00	-0.04	-0.09
0.29	2.50	3.50	2.75	3.00	4.00	1.50	0.75	0.75	2.25	0.25	0.25	0.00	0.50	1.75	0.00	0.50	-0.184082	0.020020	0.962891	-1.470000	6.580000	-1.470000	261.00	-0.12	-0.01	2.00	2.75	2.00	4.25	3.50	3.00	1.50	2.50	2.25	1.00	0.75	0.50	3.00	2.00	0.25	1.50	-0.138672	0.045898	0.980469	-2.520000	-3.080000	1.960000	354.00	-0.05	-0.09
0.30	2.50	3.75	2.50	3.00	4.00	1.25	0.75	0.75	2.25	0.25	0.00	0.00	0.50	1.50	0.00	0.50	-0.190430	0.019531	0.955566	-1.470000	6.580000	-1.400000	253.00	-0.13	-0.01	2.00	2.25	2.00	4.00	3.50	3.00	1.50	2.75	2.25	1.25	0.75	0.50	3.00	1.50	0.25	1.50	-0.140137	0.045410	0.974609	-2.520000	-3.150000	1.960000	348.00	-0.05	-0.09
0.31	2.75	3.50	2.75	3.00	3.75	1.50	0.75	0.75	2.25	0.25	0.00	0.00	0.50	2.00	0.00	0.50	-0.190918	0.017578	0.955566	-1.400000	6.160000	-1.330000	261.00	-0.12	-0.01	2.00	2.50	2.00	3.75	3.50	3.25	1.50	2.75	2.50	1.00	0.75	0.50	2.75	1.75	0.50	1.50	-0.135742	0.044434	0.981934	-2.450000	-3.080000	1.960000	354.00	-0.04	-0.09
0.32	2.50	3.75	2.75	3.00	3.75	1.25	0.75	0.75	2.25	0.00	0.00	0.00	0.50	1.75	0.00	0.50	-0.196289	0.020020	0.958984	-1.330000	6.160000	-1.470000	253.00	-0.13	-0.01	2.00	2.50	2.25	3.75	3.75	3.00	1.50	2.75	2.25	1.00	0.75	0.25	2.75	1.75	0.25	1.50	-0.135254	0.048828	0.979492	-2.380000	-3.150000	1.960000	348.00	-0.05	-0.09
0.33	2.75	3.75	2.75	3.25	4.00	1.50	0.75	0.75	2.00	0.25	0.00	0.00	0.50	1.50	0.00	0.50	-0.189941	0.021484	0.956055	-1.470000	6.370000	-1.610000	261.00	-0.14	-0.02	2.00	2.25	2.00	3.75	3.75	3.25	1.50	2.75	2.50	1.00	0.50	0.50	2.75	2.00	0.50	1.50	-0.135742	0.048828	0.974609	-2.380000	-3.080000	1.890000	354.00	-0.04	-0.08
0.34	2.25	3.50	2.75	3.00	3.75	1.50	0.75	1.00	2.25	0.25	0.00	0.00	0.50	1.75	0.00	0.50	-0.189941	0.021973	0.960449	-1.470000	6.440000	-1.540000	257.00	-0.12	-0.02	2.00	2.50	2.25	3.75	3.50	3.50	1.50	2.75	2.25	1.00	0.75	0.50	2.75	1.75	0.25	1.50	-0.137695	0.050293	0.980957	-2.450000	-3.080000	1.960000	354.00	-0.05	-0.09
0.35	2.50	3.50	2.75	3.25	4.00	1.50	0.75	0.75	2.50	0.25	0.25	0.00	0.50	1.50	0.00	0.50	-0.190918	0.020996	0.959961	-1.400000	5.880000	-1.330000	265.00	-0.12	-0.01	1.75	2.50	2.00	4.00	3.50	3.25	1.50	2.75	2.25	1.00	0.75	0.50	3.00	1.75	0.50	1.50	-0.136719	0.053223	0.981445	-2.380000	-3.080000	1.960000	353.00	-0.04	-0.10
0.36	2.50	3.75	2.50	3.00	4.00	1.50	0.75	0.75	2.50	0.25	0.00	0.00	0.50	2.00	0.00	0.50	-0.188965	0.021484	0.959961	-1.470000	5.810000	-1.120000	264.00	-0.12	-0.01	2.00	2.00	2.25	3.75	3.75	3.25	1.50	2.75	2.25	1.00	0.75	0.50	2.75	1.75	0.25	1.75	-0.134277	0.043945	0.977539	-2.520000	-3.080000	2.030000	350.00	-0.05	-0.09
0.37	2.50	3.50	2.75	3.00	4.00	1.50	0.75	0.75	2.00	0.25	0.00	0.00	0.50	1.50	0.00	0.50	-0.187500	0.019531	0.958008	-1.330000	6.160000	-1.330000	253.00	-0.14	-0.02	2.00	2.25	2.00	4.00	3.50	3.25	1.50	2.50	2.25	1.00	0.75	0.50	3.00	1.75	0.50	1.75	-0.140625	0.051758	0.980957	-2.380000	-3.080000	2.030000	351.00	-0.04	-0.09
0.38	2.50	3.75	2.75	3.25	4.25	1.25	0.75	0.75	2.25	0.25	0.00	0.00	0.50	1.75	0.00	0.50	-0.190430	0.020996	0.956055	-1.470000	6.300000	-1.400000	264.00	-0.13	-0.01	2.00	2.25	2.00	4.00	3.75	3.00	1.50	2.75	2.50	1.00	0.50	0.25	2.75	1.75	0.50	1.50	-0.138672	0.047852	0.980469	-2.520000	-3.080000	2.030000	349.00	-0.05	-0.08
0.39	2.50	3.50	2.75	3.00	4.25	1.50	0.75	0.75	2.00	0.25	0.00	0.00	0.50	1.75	0.00	0.50	-0.190430	0.020996	0.957031	-1.540000	6.230000	-1.330000	258.00	-0.13	-0.01	2.00	2.50	2.25	4.00	3.75	3.25	1.50	2.75	2.25	0.75	0.50	0.75	2.50	1.75	0.50	1.50	-0.139160	0.046875	0.979004	-2.520000	-3.080000	2.030000	354.00	-0.05	-0.09
0.40	2.50	3.50	2.75	3.25	4.00	1.50	0.75	1.00	2.25	0.50	0.25	0.00	0.50	1.75	0.00	0.50	-0.188965	0.015625	0.961426	-1.540000	6.160000	-1.330000	270.00	-0.12	-0.02	2.00	2.25	2.00	4.00	3.75	3.25	1.50	2.75	2.00	0.75	0.75	0.50	3.00	1.75	0.50	1.75	-0.129883	0.048828	0.972656	-2.520000	-3.080000	1.960000	351.00	-0.05	-0.10
0.41	2.75	3.50	2.50	3.00	4.00	1.50	0.75	0.75	2.25	0.50	0.00	0.00	0.25	1.75	0.00	0.50	-0.191895	0.019043	0.955078	-1.540000	6.440000	-1.400000	259.00	-0.13	-0.01	2.00	2.25	2.00	3.75	3.75	3.25	1.50	2.75	2.25	1.00	0.50	0.50	2.75	1.75	0.50	1.50	-0.137695	0.049316	0.987305	-2.520000	-3.010000	1.960000	348.00	-0.05	-0.09
0.42	2.50	3.50	2.75	3.00	4.00	1.75	0.75	0.75	2.25	0.25	0.00	0.00	0.50	1.75	0.00	0.50	-0.190918	0.018066	0.962402	-1.470000	6.300000	-1.470000	261.00	-0.13	-0.01	2.00	2.25	2.00	4.00	4.00	3.25	1.50	2.75	2.25	1.00	0.75	0.50	3.00	1.75	0.50	1.25	-0.137207	0.050781	0.983398	-2.520000	-3.010000	2.030000	357.00	-0.05	-0.09
0.43	2.75	3.75	3.00	3.00	4.25	1.50	0.75	0.75	2.50	0.50	0.00	0.00	0.25	1.75	0.00	0.50	-0.187012	0.020508	0.958984	-1.540000	6.230000	-1.400000	273.00	-0.13	-0.00	2.25	2.75	2.25	4.25	3.75	3.25	1.50	2.75	2.25	0.75	0.50	0.25	2.75	1.75	0.50	1.50	-0.135742	0.051270	0.972168	-2.380000	-3.010000	2.030000	359.00	-0.06	-0.09
0.44	2.50	4.00	2.75	3.00	4.25	1.50	0.75	0.75	1.75	0.00	0.00	0.00	0.50	1.75	0.00	0.50	-0.187012	0.020508	0.958984	-1.540000	6.230000	-1.400000	257.00	-0.14	-0.02	2.25	2.25	2.00	4.25	3.75	3.25	1.50	2.50	2.25	1.00	0.75	0.25	3.00	1.75	0.50	1.25	-0.131348	0.048340	0.980957	-2.450000	-3.080000	2.100000	353.00	-0.05	-0.09
0.45	2.75	3.75	2.75	3.25	4.00	1.50	0.75	0.75	2.25	0.25	0.25	0.00	0.50	1.75	0.00	0.50	-0.192871	0.017090	0.957031	-1.610000	6.370000	-1.400000	269.00	-0.13	-0.01	2.00	2.00	2.50	3.75	3.75	3.00	1.50	2.75	2.25	1.00	0.50	0.50	2.75	2.25	0.50	1.50	-0.134766	0.050781	0.984375	-2.450000	-3.150000	2.100000	353.00	-0.04	-0.08
0.46	2.75	3.75	2.75	3.00	4.00	1.75	0.75	0.75	2.00	0.25	0.00	0.00	0.25	1.75	0.00	0.50	-0.188477	0.023438	0.957520	-1.470000	6.300000	-1.330000	261.00	-0.14	-0.01	2.00	2.25	2.25	4.25	3.75	3.25	1.50	2.50	2.25	1.00	0.75	0.50	2.50	1.75	0.25	1.50	-0.134766	0.047363	0.984863	-2.380000	-3.150000	2.030000	351.00	-0.06	-0.08
0.47	2.75	3.75	2.75	3.00	4.25	1.50	0.75	0.75	2.50	0.25	0.00	0.00	0.25	2.00	0.00	0.50	-0.187500	0.016113	0.960449	-1.540000	6.370000	-1.470000	270.00	-0.12	-0.00	2.25	2.50	2.25	4.25	3.75	3.25	1.50	2.75	2.50	1.00	0.50	0.50	2.75	1.75	0.50	1.50	-0.134277	0.048828	0.979980	-2.450000	-3.010000	1.960000	365.00	-0.05	-0.09
0.48	2.75	3.75	2.75	3.00	4.25	1.50	0.75	0.75	2.25	0.50	0.00	0.00	0.25	2.00	0.00	0.50	-0.189941	0.021973	0.958008	-1.540000	6.300000	-1.470000	269.00	-0.13	-0.00	2.00	2.50	2.25	4.00	3.75	3.00	1.50	2.75	2.25	1.00	0.75	0.50	2.50	1.75	0.50	1.50	-0.132324	0.042480	0.980469	-2.450000	-3.150000	2.030000	354.00	-0.05	-0.09
0.49	2.50	3.50	2.75	3.25	4.25	1.50	0.75	1.00	2.00	0.50	0.25	0.00	0.25	1.75	0.00	0.50	-0.188965	0.016113	0.960449	-1.470000	6.160000	-1.400000	268.00	-0.13	-0.02	2.00	2.75	2.25	4.00	3.75	3.25	1.50	2.75	2.25	1.00	0.50	0.50	2.75	1.75	0.25	1.25	-0.131348	0.046387	0.977051	-2.450000	-3.150000	2.030000	355.00	-0.06	-0.09
0.50	2.75	3.50	2.75	3.25	4.00	1.50	0.75	1.00	2.50	0.25	0.00	0.00	0.50	1.75	0.00	0.50	-0.189941	0.017090	0.961426	-1.680000	6.370000	-1.540000	271.00	-0.12	-0.01	2.00	2.25	2.25	4.25	3.75	3.00	1.50	2.50	2.25	1.00	0.75	0.25	2.75	1.75	0.25	1.50	-0.138672	0.047363	0.979492	-2.380000	-3.080000	2.100000	348.00	-0.06	-0.08
0.51	2.75	4.00	3.25	3.25	4.25	1.50	0.75	0.75	2.00	0.25	0.00	0.00	0.50	1.75	0.00	0.50	-0.193359	0.018555	0.958008	-1.610000	6.580000	-1.610000	274.00	-0.14	-0.01	2.00	2.75	2.00	4.00	3.75	3.00	1.50	2.75	2.25	0.75	0.75	0.50	2.75	2.00	0.50	1.50	-0.136719	0.048340	0.977539	-2.520000	-3.080000	2.100000	355.00	-0.05	-0.09
0.52	2.75	4.00	3.00	3.25	4.25	1.50	0.75	0.75	2.25	0.25	0.25	0.00	0.50	1.50	0.00	0.50	-0.188477	0.014648	0.958984	-1.610000	6.720000	-1.610000	275.00	-0.14	-0.01	2.25	2.50	2.50	4.25	3.75	3.00	1.50	2.75	2.00	0.75	1.00	0.25	2.75	1.75	0.25	1.50	-0.136230	0.047852	0.984863	-2.450000	-3.080000	2.030000	356.00	-0.06	-0.09
0.53	2.50	3.75	2.75	3.00	4.25	1.50	0.75	0.75	2.00	0.50	0.00	0.00	0.25	1.75	0.00	0.50	-0.187988	0.020020	0.956543	-1.540000	6.440000	-1.400000	261.00	-0.13	-0.01	2.00	2.50	2.50	4.00	4.00	3.00	1.50	2.75	2.25	0.75	0.75	0.50	2.50	2.00	0.25	1.50	-0.137695	0.048340	0.982422	-2.450000	-3.150000	1.960000	356.00	-0.06	-0.08
0.54	2.50	3.75	2.75	3.25	4.25	1.50	0.75	0.75	2.25	0.25	0.00	0.00	0.25	1.75	0.00	0.50	-0.184082	0.019531	0.958496	-1.400000	6.510000	-1.260000	264.00	-0.13	-0.01	2.00	2.75	2.25	3.75	3.75	3.00	1.50	2.50	2.25	0.75	0.50	0.25	2.75	2.00	0.25	1.50	-0.139648	0.047852	0.977051	-2.380000	-3.010000	1.890000	344.00	-0.06	-0.08
0.55	2.50	4.00	2.75	3.25	4.25	1.50	0.75	0.75	2.50	0.25	0.25	0.00	0.50	1.50	0.00	0.50	-0.191406	0.019531	0.957520	-1.470000	6.510000	-1.330000	273.00	-0.13	-0.01	2.25	2.50	2.00	4.25	3.75	3.25	1.50	2.50	2.00	0.75	0.75	0.50	2.50	1.75	0.25	1.50	-0.135254	0.047363	0.979980	-2.450000	-3.080000	2.030000	347.00	-0.06	-0.09
0.56	2.50	3.75	2.75	3.00	4.25	1.50	0.75	0.75	2.25	0.25	0.00	0.00	0.50	1.75	0.00	0.50	-0.187500	0.017090	0.956055	-1.610000	6.790000	-1.540000	264.00	-0.13	-0.01	2.25	2.25	2.25	4.25	3.75	3.00	1.50	2.50	2.00	1.00	0.75	0.50	2.75	2.00	0.25	1.50	-0.135254	0.039551	0.971680	-2.380000	-3.150000	1.960000	352.00	-0.06	-0.09
0.57	2.75	3.75	2.75	3.00	4.25	1.50	0.75	0.75	2.25	0.25	0.00	0.00	0.50	1.75	0.00	0.75	-0.188965	0.023926	0.956055	-1.470000	6.510000	-1.400000	268.00	-0.13	-0.01	1.75	2.50	2.25	4.00	3.75	3.25	1.50	2.50	2.25	1.00	0.50	0.50	2.50	1.75	0.50	1.50	-0.137695	0.045410	0.975586	-2.380000	-3.010000	1.960000	348.00	-0.05	-0.09
0.58	2.75	3.75	2.75	3.00	4.25	1.50	0.75	0.75	2.25	0.25	0.00	0.00	0.25	1.75	0.00	0.50	-0.192383	0.025391	0.962891	-1.470000	6.300000	-1.330000	264.00	-0.13	-0.01	2.25	2.50	2.25	4.00	3.75	3.00	1.50	2.75	2.25	1.00	0.50	0.25	2.75	2.00	0.50	1.50	-0.141602	0.047852	0.979980	-2.380000	-3.010000	1.890000	356.00	-0.05	-0.08
0.59	2.50	4.00	2.75	3.00	4.25	1.50	0.75	0.75	1.75	0.25	0.00	0.00	0.25	1.50	0.00	0.50	-0.187500	0.021973	0.958496	-1.540000	6.370000	-1.400000	255.00	-0.15	-0.02	2.25	2.25	2.00	4.00	4.00	3.25	1.50	2.50	2.25	1.00	0.75	0.25	2.50	1.50	0.25	1.25	-0.137695	0.043945	0.980957	-2.450000	-3.010000	1.890000	344.00	-0.06	-0.08
0.60	2.50	4.00	2.75	3.00	4.25	1.50	0.75	0.75	2.00	0.25	0.00	0.00	0.25	1.75	0.00	0.75	-0.186523	0.021973	0.964355	-1.540000	6.370000	-1.470000	262.00	-0.14	-0.01	2.00	2.75	2.25	4.00	3.75	3.25	1.50	2.50	2.00	1.00	0.75	0.50	3.00	1.75	0.50	1.50	-0.134277	0.047363	0.977051	-2.380000	-2.940000	1.960000	356.00	-0.06	-0.09
0.61	2.50	4.00	2.75	3.50	4.25	1.50	0.75	0.75	2.25	0.25	0.00	0.00	0.25	1.50	0.00	0.50	-0.191895	0.017578	0.959961	-1.470000	6.370000	-1.330000	267.00	-0.14	-0.01	2.25	2.50	2.25	4.00	3.75	3.25	1.50	2.50	2.25	1.00	0.75	0.25	2.50	1.50	0.50	1.50	-0.135742	0.047852	0.985352	-2.450000	-2.940000	1.960000	351.00	-0.06	-0.08
0.62	2.75	4.00	2.75	3.25	4.25	1.50	0.75	0.75	2.25	0.25	0.00	0.00	0.50	1.75	0.00	0.50	-0.188477	0.017578	0.958008	-1.470000	6.510000	-1.400000	271.00	-0.14	-0.01	2.25	2.50	2.25	4.25	4.00	3.00	1.75	2.75	2.00	0.75	0.50	0.50	2.50	1.75	0.25	1.50	-0.139648	0.048340	0.983887	-2.450000	-3.010000	1.960000	355.00	-0.07	-0.09
0.63	2.75	3.75	3.00	3.50	4.25	1.50	0.75	0.75	2.25	0.50	0.00	0.00	0.50	1.50	0.00	0.50	-0.187988	0.018066	0.961914	-1.470000	6.300000	-1.400000	275.00	-0.14	-0.01	2.00	2.50	2.25	4.25	3.75	3.25	1.50	2.50	2.25	1.00	0.50	0.00	2.75	2.00	0.00	1.50	-0.139160	0.048828	0.980957	-2.380000	-3.080000	1.960000	347.00	-0.06	-0.08
0.64	2.75	4.00	2.75	3.00	4.25	1.50	0.75	0.75	2.00	0.25	0.00	0.00	0.50	1.50	0.00	0.50	-0.190430	0.019043	0.962402	-1.400000	6.300000	-1.470000	263.00	-0.14	-0.02	2.25	2.75	2.25	4.25	4.00	3.00	1.50	2.50	2.00	1.00	0.75	0.25	2.75	1.75	0.25	1.25	-0.133301	0.047852	0.979004	-2.380000	-3.010000	2.030000	353.00	-0.07	-0.09
0.65	3.00	3.75	2.75	3.25	4.25	1.50	0.75	0.75	2.00	0.25	0.00	0.00	0.50	1.50	0.00	0.50	-0.187988	0.018066	0.958496	-1.470000	6.160000	-1.400000	266.00	-0.14	-0.02	1.75	2.25	2.25	4.25	4.00	3.00	1.50	2.50	2.25	1.00	0.50	0.50	2.75	1.75	0.25	1.50	-0.135254	0.046387	0.980957	-2.380000	-3.010000	1.960000	348.00	-0.05	-0.09
0.66	2.75	4.00	3.00	3.25	4.50	1.50	0.75	1.00	2.25	0.25	0.00	0.00	0.50	1.25	0.00	0.50	-0.187988	0.018066	0.957031	-1.540000	6.090000	-1.400000	276.00	-0.14	-0.02	2.00	2.50	2.25	4.00	4.00	3.00	1.50	2.50	2.00	1.00	0.50	0.50	2.75	1.75	0.25	1.50	-0.135742	0.049805	0.979492	-2.450000	-2.940000	2.030000	347.00	-0.06	-0.09
0.67	3.00	4.00	3.00	3.50	4.25	1.75	0.75	0.75	2.00	0.25	0.00	0.00	0.50	1.75	0.00	0.75	-0.188965	0.019531	0.958008	-1.540000	6.020000	-1.330000	280.00	-0.14	-0.02	2.00	2.50	2.25	4.00	4.00	3.00	1.50	2.50	2.00	0.75	0.50	0.50	2.75	2.00	0.50	1.50	-0.131348	0.049316	0.983887	-2.450000	-3.010000	2.100000	349.00	-0.06	-0.09
0.68	2.75	4.50	3.00	3.50	4.25	1.50	0.75	1.00	2.00	0.25	0.00	0.00	0.50	1.75	0.00	0.50	-0.187500	0.017578	0.962891	-1.400000	6.160000	-1.400000	282.00	-0.15	-0.03	1.25	2.25	2.25	4.00	4.00	3.25	1.50	2.75	2.00	1.00	0.75	0.25	3.00	1.75	0.25	1.50	-0.137207	0.045898	0.977539	-2.450000	-2.940000	1.890000	345.00	-0.05	-0.10
0.69	2.75	3.75	3.00	3.00	4.25	1.50	0.75	1.00	2.25	0.25	0.25	0.00	0.25	1.50	0.00	0.50	-0.187012	0.018066	0.961426	-1.330000	6.160000	-1.540000	271.00	-0.13	-0.01	2.25	2.50	2.50	4.00	3.75	3.00	1.50	2.50	2.00	0.75	0.50	0.50	2.50	2.00	0.50	1.50	-0.132812	0.049805	0.974121	-2.450000	-3.080000	1.960000	349.00	-0.06	-0.08
0.70	3.00	4.25	3.00	3.25	4.25	1.75	0.75	0.75	2.00	0.50	0.00	0.00	0.50	1.75	0.25	0.50	-0.186523	0.020508	0.959961	-1.470000	6.020000	-1.330000	284.00	-0.14	-0.02	2.25	2.50	2.25	4.00	3.75	3.00	1.50	2.50	2.00	0.75	0.75	0.50	2.75	1.50	0.25	1.25	-0.136230	0.046387	0.978516	-2.520000	-3.080000	2.030000	343.00	-0.07	-0.09
0.71	2.75	4.00	3.00	3.25	4.00	1.75	0.75	1.00	1.75	0.25	0.00	0.00	0.25	1.75	0.00	0.50	-0.189941	0.018555	0.959473	-1.470000	6.020000	-1.400000	269.00	-0.15	-0.02	2.25	2.25	2.00	3.75	3.75	3.00	1.50	2.75	2.25	1.00	0.50	0.25	2.75	1.75	0.25	1.50	-0.136230	0.047852	0.981934	-2.450000	-2.940000	2.030000	343.00	-0.05	-0.09
0.72	3.00	4.25	2.75	3.00	4.75	1.50	0.75	0.75	2.25	0.25	0.00	0.00	0.25	1.50	0.00	0.50	-0.187500	0.020020	0.960938	-1.330000	6.090000	-1.400000	275.00	-0.15	-0.01	2.25	2.50	2.00	3.75	3.75	3.00	1.50	2.50	2.00	1.00	0.75	0.25	2.75	1.75	0.25	1.50	-0.134277	0.048828	0.981445	-2.450000	-3.010000	2.030000	341.00	-0.06	-0.09
0.73	3.00	4.00	3.00	3.25	4.50	1.50	0.75	0.75	2.50	0.25	0.00	0.00	0.50	1.50	0.00	0.50	-0.189453	0.017578	0.960938	-1.470000	6.300000	-1.400000	281.00	-0.14	-0.01	2.00	2.75	2.25	4.00	3.75	3.00	1.50	2.50	2.00	0.75	0.75	0.50	2.75	1.75	0.25	1.50	-0.137695	0.047852	0.978027	-2.450000	-2.870000	2.030000	346.00	-0.06	-0.09
0.74	3.00	4.25	3.25	3.50	4.50	1.50	0.75	1.00	1.75	0.25	0.00	0.00	0.25	1.75	0.00	0.50	-0.194824	0.016602	0.958008	-1.540000	6.440000	-1.400000	282.00	-0.15	-0.02	2.25	2.50	2.25	4.25	4.00	3.25	1.50	2.50	2.25	0.75	0.50	0.50	2.75	1.75	0.50	1.50	-0.138184	0.048828	0.981445	-2.450000	-2.940000	2.100000	358.00	-0.06	-0.09
0.75	2.75	4.25	2.75	3.25	4.50	1.75	0.75	0.75	2.25	0.25	0.00	0.00	0.25	1.50	0.00	0.50	-0.188965	0.020020	0.959961	-1.540000	6.230000	-1.330000	275.00	-0.14	-0.01	2.00	2.50	2.25	4.00	4.00	3.00	1.50	2.50	2.25	0.75	0.50	0.25	2.75	1.75	0.50	1.50	-0.134277	0.046387	0.986816	-2.450000	-3.010000	2.030000	347.00	-0.06	-0.08
0.76	2.75	4.00	3.00	3.25	4.50	1.75	0.75	1.00	2.25	0.25	0.00	0.00	0.50	1.75	0.00	0.50	-0.192383	0.020996	0.962891	-1.260000	5.950000	-1.330000	283.00	-0.14	-0.02	2.00	2.75	2.25	4.25	4.00	3.00	1.50	2.25	2.00	1.00	0.50	0.25	2.75	2.00	0.50	1.50	-0.135254	0.048828	0.980957	-2.380000	-2.940000	1.960000	350.00	-0.06	-0.08
0.77	3.00	4.00	3.00	3.25	4.50	1.75	0.75	1.00	2.00	0.75	0.25	0.00	0.50	1.50	0.00	0.25	-0.189453	0.017578	0.960449	-1.540000	6.580000	-1.470000	287.00	-0.14	-0.02	2.25	2.50	2.25	3.75	3.75	3.00	1.50	2.50	2.00	1.00	0.50	0.50	2.50	1.50	0.25	1.50	-0.135254	0.044922	0.975586	-2.450000	-2.870000	2.030000	339.00	-0.06	-0.09
0.78	3.00	4.00	2.75	3.25	4.50	1.75	0.75	0.75	2.00	0.25	0.25	0.00	0.25	1.75	0.00	0.50	-0.187012	0.020508	0.951660	-1.610000	6.510000	-1.400000	277.00	-0.14	-0.01	2.00	2.75	2.25	4.25	3.75	3.00	1.50	2.50	2.00	1.00	0.50	0.50	3.00	1.75	0.25	1.50	-0.138184	0.043457	0.981445	-2.450000	-2.870000	2.030000	351.00	-0.06	-0.09
0.79	2.75	4.00	3.00	3.25	4.25	1.75	0.75	0.75	2.00	0.25	0.00	0.00	0.50	1.75	0.00	0.50	-0.190430	0.016113	0.964844	-1.610000	6.370000	-1.470000	274.00	-0.14	-0.02	2.00	2.50	2.25	4.00	3.75	3.00	1.50	2.50	2.25	0.75	0.50	0.50	2.50	1.75	0.25	1.50	-0.131836	0.046387	0.977539	-2.380000	-2.870000	2.030000	342.00	-0.06	-0.08
0.80	3.00	4.25	3.00	3.25	4.50	2.00	0.75	0.75	2.00	0.50	0.00	0.00	0.50	1.75	0.00	0.50	-0.187500	0.021973	0.959961	-1.470000	6.300000	-1.470000	287.00	-0.14	-0.02	1.75	2.50	2.25	4.00	3.75	2.75	1.50	2.50	2.00	0.75	0.75	0.50	2.75	1.75	0.50	1.25	-0.136230	0.048828	0.979004	-2.450000	-2.940000	2.170000	340.00	-0.05	-0.09
0.81	3.00	4.25	3.00	3.50	4.50	1.75	0.75	1.00	2.00	0.25	0.00	0.00	0.50	1.75	0.00	0.50	-0.186523	0.018066	0.963867	-1.400000	6.370000	-1.400000	288.00	-0.15	-0.02	2.25	2.50	2.50	4.00	4.00	3.00	1.50	2.50	2.25	0.75	0.50	0.25	2.50	2.00	0.25	1.50	-0.137695	0.051758	0.975586	-2.520000	-3.010000	2.170000	350.00	-0.06	-0.08
0.82	3.00	4.25	2.75	3.25	4.50	1.75	0.75	0.75	2.00	0.25	0.00	0.00	0.50	1.25	0.00	0.50	-0.186523	0.023926	0.958496	-1.400000	6.440000	-1.470000	274.00	-0.15	-0.02	2.25	2.75	2.25	4.00	3.75	3.25	1.50	2.50	2.00	0.75	0.75	0.25	2.50	1.75	0.25	1.50	-0.137695	0.051758	0.980469	-2.520000	-3.010000	2.170000	347.00	-0.07	-0.09
0.83	2.75	4.25	3.00	3.25	4.75	1.75	0.75	0.75	2.25	0.25	0.00	0.00	0.50	1.25	0.00	0.50	-0.187012	0.020508	0.958984	-1.470000	6.370000	-1.400000	280.00	-0.15	-0.02	2.25	2.25	2.25	3.75	3.75	3.00	1.50	2.50	1.75	0.50	0.50	0.25	2.50	1.75	0.25	1.50	-0.140625	0.047852	0.983398	-2.380000	-2.940000	2.100000	328.00	-0.07	-0.09
0.84	3.00	4.00	3.00	3.25	4.75	1.75	0.75	1.00	2.25	0.25	0.25	0.00	0.25	1.75	0.00	0.50	-0.192383	0.019531	0.959961	-1.400000	6.230000	-1.400000	289.00	-0.14	-0.01	2.00	2.50	2.25	4.25	3.75	3.00	1.50	2.50	2.00	1.00	0.75	0.25	2.75	2.00	0.25	1.50	-0.142578	0.049316	0.975098	-2.380000	-3.010000	2.170000	349.00	-0.06	-0.09
0.85	2.75	4.25	3.00	3.50	4.75	1.75	0.75	0.75	2.00	0.25	0.00	0.00	0.50	1.50	0.00	0.50	-0.185059	0.021973	0.956055	-1.470000	6.300000	-1.400000	282.00	-0.15	-0.02	2.00	2.50	2.50	4.25	3.75	2.75	1.50	2.50	2.25	0.75	0.50	0.25	2.50	1.75	0.25	1.75	-0.136230	0.052734	0.980469	-2.380000	-2.940000	2.030000	344.00	-0.06	-0.08
0.86	2.75	4.25	3.00	3.50	4.50	1.75	0.75	1.00	2.00	0.25	0.00	0.00	0.50	1.75	0.00	0.50	-0.191406	0.022461	0.953613	-1.470000	6.230000	-1.400000	285.00	-0.14	-0.03	2.25	2.50	2.50	4.00	3.75	2.75	1.50	2.25	2.25	1.00	0.50	0.50	2.50	1.75	0.25	1.50	-0.137207	0.045410	0.981934	-2.450000	-3.080000	2.030000	344.00	-0.06	-0.07
0.87	3.00	4.50	3.00	3.50	4.50	1.75	0.75	1.00	2.25	0.25	0.25	0.00	0.50	1.50	0.00	0.50	-0.190430	0.019531	0.955078	-1.470000	6.440000	-1.540000	294.00	-0.14	-0.02	2.00	2.75	2.25	4.00	4.00	2.75	1.50	2.50	2.00	0.50	0.50	0.00	2.50	1.75	0.25	1.25	-0.134277	0.047852	0.980957	-2.380000	-3.080000	1.960000	332.00	-0.07	-0.08
0.88	3.00	4.00	3.00	3.25	4.50	2.00	0.75	0.75	2.25	0.25	0.00	0.00	0.50	1.75	0.00	0.50	-0.188477	0.022949	0.961426	-1.470000	6.440000	-1.470000	285.00	-0.14	-0.02	2.00	2.50	2.50	4.00	3.75	2.75	1.50	2.50	1.75	0.75	0.25	0.25	2.50	1.75	0.25	1.50	-0.135742	0.046387	0.978516	-2.450000	-3.150000	2.030000	331.00	-0.07	-0.09
0.89	3.00	4.25	3.00	3.50	4.50	1.75	0.75	1.00	1.25	0.50	0.00	0.00	0.25	1.25	0.00	0.50	-0.189453	0.016602	0.959961	-1.400000	6.440000	-1.470000	274.00	-0.17	-0.03	1.75	2.00	2.25	4.25	3.75	2.75	1.50	2.50	1.75	0.75	0.50	0.50	2.50	1.75	0.25	1.50	-0.135254	0.048828	0.980469	-2.590000	-3.080000	2.030000	329.00	-0.06	-0.09
0.90	3.00	4.25	3.25	3.50	4.50	1.75	0.75	0.75	2.00	0.25	0.00	0.00	0.25	1.75	0.00	0.50	-0.185059	0.020508	0.960449	-1.400000	6.580000	-1.470000	285.00	-0.15	-0.01	2.00	2.50	2.50	4.25	3.75	3.00	1.25	2.25	2.00	0.75	0.50	0.25	2.00	1.75	0.25	1.50	-0.137695	0.045898	0.982422	-2.450000	-3.150000	2.030000	330.00	-0.07	-0.08
0.91	3.00	4.25	3.00	3.50	4.75	1.50	0.75	0.75	2.00	0.25	0.00	0.00	0.25	1.50	0.00	0.50	-0.186035	0.021484	0.959473	-1.400000	6.510000	-1.400000	280.00	-0.15	-0.01	2.00	2.50	2.25	4.25	3.75	3.00	1.25	2.50	2.00	0.50	0.75	0.25	2.50	1.50	0.25	1.25	-0.139160	0.046875	0.978027	-2.380000	-3.080000	2.100000	332.00	-0.07	-0.09
0.92	3.00	4.25	3.25	3.50	4.75	1.75	0.75	0.75	2.00	0.25	0.00	0.00	0.50	1.75	0.00	0.50	-0.191406	0.020020	0.961426	-1.400000	6.650000	-1.470000	290.00	-0.15	-0.02	2.00	2.75	2.25	4.00	3.50	3.00	1.25	2.50	2.00	1.00	0.50	0.50	2.50	1.75	0.25	1.25	-0.135742	0.042969	0.981445	-2.520000	-3.080000	2.100000	336.00	-0.07	-0.09
0.93	3.00	4.50	3.25	3.75	4.50	1.75	0.75	1.00	2.00	0.25	0.00	0.00	0.25	1.50	0.00	0.50	-0.186035	0.018555	0.958984	-1.330000	6.440000	-1.330000	291.00	-0.16	-0.02	2.00	2.50	2.25	4.00	3.75	2.75	1.25	2.50	2.00	0.75	0.75	0.00	2.50	1.50	0.25	1.50	-0.139160	0.047363	0.979980	-2.520000	-3.290000	2.100000	328.00	-0.07	-0.09
0.94	3.00	4.25	3.00	3.50	4.50	2.00	0.75	0.75	1.75	0.25	0.00	0.00	0.25	1.50	0.00	0.50	-0.188965	0.019043	0.958496	-1.400000	6.580000	-1.400000	279.00	-0.16	-0.02	2.25	2.75	2.25	4.25	3.75	2.75	1.25	2.25	1.75	0.75	0.75	0.25	2.50	1.75	0.25	1.50	-0.137695	0.044922	0.978027	-2.520000	-3.500000	2.170000	333.00	-0.07	-0.09
0.95	3.00	4.25	3.25	3.50	4.50	1.75	0.75	0.75	2.00	0.00	0.00	0.00	0.25	1.50	0.00	0.50	-0.189941	0.018555	0.957520	-1.330000	6.370000	-1.330000	280.00	-0.16	-0.02	2.25	2.50	2.25	4.00	3.75	3.25	1.25	2.50	2.00	0.50	0.25	0.25	2.50	1.75	0.25	1.50	-0.136230	0.045898	0.983887	-2.520000	-3.710000	2.310000	333.00	-0.07	-0.09
0.96	3.00	4.25	3.00	3.50	4.50	1.75	0.75	0.75	2.00	0.25	0.00	0.00	0.25	1.75	0.00	0.50	-0.192871	0.020508	0.962891	-1.260000	6.720000	-1.260000	282.00	-0.15	-0.02	2.25	2.50	2.25	4.50	3.75	3.00	1.25	2.50	2.00	1.00	0.75	0.50	2.25	1.75	0.50	1.50	-0.136719	0.045410	0.984375	-2.310000	-3.920000	2.380000	349.00	-0.06	-0.09
0.97	3.00	4.25	3.00	3.50	4.50	1.75	0.75	0.75	2.00	0.25	0.00	0.00	0.25	1.75	0.00	0.50	-0.192383	0.020508	0.961914	-1.050000	6.860000	-1.190000	282.00	-0.15	-0.02	2.25	2.75	2.25	4.25	3.75	3.00	1.25	2.50	2.00	0.75	0.50	0.25	2.25	1.25	0.00	1.50	-0.136719	0.049316	0.983887	-2.100000	-3.710000	2.520000	331.00	-0.08	-0.09
0.98	3.00	4.50	3.00	4.00	4.50	1.75	0.50	0.75	2.00	0.25	0.00	0.00	0.25	1.50	0.00	0.50	-0.188965	0.014648	0.961914	-0.980000	7.280000	-1.260000	284.00	-0.16	-0.03	2.00	2.75	2.25	4.50	4.00	3.00	1.25	2.50	2.00	0.75	0.50	0.50	2.25	1.50	0.25	1.50	-0.142090	0.046875	0.977051	-1.890000	-3.710000	2.590000	342.00	-0.08	-0.09
0.99	3.00	4.25	3.00	3.50	4.25	1.50	0.75	0.75	1.75	0.25	0.00	0.00	0.25	1.50	0.00	0.50	-0.189941	0.016602	0.962402	-0.700000	7.070000	-1.050000	271.00	-0.16	-0.02	2.25	2.75	2.50	4.50	4.00	3.00	1.25	2.25	2.00	0.75	0.50	0.25	2.50	1.50	0.25	1.25	-0.141602	0.046387	0.972656	-1.680000	-3.920000	2.660000	341.00	-0.08	-0.09
1.00	3.25	4.50	3.25	4.00	4.25	1.00	0.75	0.75	2.00	0.00	0.00	0.00	0.25	1.75	0.00	0.50	-0.187012	0.020020	0.958984	-0.700000	7.630000	-1.120000	281.00	-0.16	-0.01	2.25	2.75	2.50	4.50	3.75	3.50	1.25	2.50	1.75	0.50	0.25	0.25	2.25	1.50	0.25	1.25	-0.160156	0.033203	0.982422	-1.610000	-4.130000	2.590000	337.00	-0.09	-0.09
1.01	3.25	4.50	3.00	3.50	4.25	1.50	0.50	0.75	1.75	0.00	0.00	0.00	0.25	1.50	0.00	0.50	-0.187012	0.020020	0.958984	-0.700000	7.630000	-1.120000	269.00	-0.17	-0.02	2.50	3.00	2.50	4.50	4.00	3.00	1.25	2.50	1.75	0.75	0.25	0.00	2.50	1.50	0.25	1.25	-0.134277	0.049316	0.975098	-1.610000	-4.270000	3.010000	341.00	-0.09	-0.09
1.02	3.00	4.50	3.00	3.50	4.25	1.25	0.50	0.75	1.75	0.00	0.00	0.00	0.25	1.50	0.00	0.50	-0.182129	0.022949	0.953613	-0.630000	7.560000	-1.050000	264.00	-0.17	-0.02	2.75	3.00	2.50	4.50	4.00	3.00	1.25	2.50	1.50	0.75	0.50	0.25	2.00	1.50	0.25	1.25	-0.133789	0.042480	0.984863	-1.540000	-4.340000	3.150000	342.00	-0.10	-0.09
1.03	3.00	4.50	3.00	3.25	4.00	1.50	0.75	0.75	2.00	0.25	0.00	0.00	0.25	1.25	0.00	0.25	-0.189453	0.025879	0.966309	-0.910000	7.420000	-1.190000	268.00	-0.16	-0.02	2.50	3.25	2.50	4.75	4.00	3.50	1.25	2.25	1.75	0.50	0.25	0.25	2.25	1.50	0.25	1.25	-0.087891	0.066895	0.992676	-1.820000	-4.690000	3.150000	346.00	-0.10	-0.09
1.04	2.75	4.00	3.00	3.50	4.00	1.50	0.75	0.50	2.25	0.00	0.00	0.00	0.25	1.75	0.00	0.50	-0.191406	0.020020	0.958008	-1.050000	7.490000	-1.260000	266.00	-0.15	-0.01	2.75	3.75	2.50	4.50	4.00	3.50	1.25	2.25	1.50	0.50	0.00	0.00	2.50	1.25	0.50	1.25	-0.120117	0.047363	0.975586	-2.450000	-5.390000	2.940000	345.00	-0.11	-0.09
1.05	3.25	4.50	3.00	3.50	4.00	1.50	0.50	0.75	1.75	0.25	0.00	0.00	0.25	1.50	0.00	0.25	-0.191406	0.020020	0.958008	-1.050000	7.490000	-1.260000	268.00	-0.17	-0.02	2.75	3.50	3.00	5.00	4.50	3.25	1.25	2.50	1.75	0.75	0.50	0.00	1.75	1.50	0.00	1.00	-0.120117	0.047363	0.975586	-2.450000	-5.390000	2.940000	360.00	-0.11	-0.08
1.06	3.00	4.25	2.75	3.25	3.75	1.25	0.75	0.50	2.00	0.00	0.00	0.00	0.25	1.50	0.00	0.50	-0.187988	0.024414	0.959961	-1.190000	7.560000	-1.330000	254.00	-0.16	-0.01	2.75	3.50	2.75	5.00	4.50	3.50	1.25	2.50	1.75	0.50	0.25	0.25	2.00	1.25	0.00	1.25	-0.129883	0.051270	0.979004	-2.870000	-5.460000	2.660000	359.00	-0.12	-0.09
1.07	3.00	4.50	3.00	3.75	3.75	1.50	0.50	0.75	1.75	0.25	0.00	0.00	0.00	1.75	0.00	0.50	-0.192383	0.020508	0.957520	-1.330000	7.770000	-1.330000	267.00	-0.17	-0.02	3.00	4.00	2.75	5.00	4.50	4.00	1.25	2.50	1.50	0.50	0.25	0.00	2.00	1.25	0.25	1.00	-0.141113	0.054199	0.989258	-3.080000	-4.830000	2.170000	367.00	-0.13	-0.09
1.08	3.00	4.00	3.00	3.25	3.75	1.50	0.75	0.75	2.00	0.00	0.00	0.00	0.00	1.25	0.00	0.50	-0.191406	0.021484	0.962891	-1.330000	7.770000	-1.260000	257.00	-0.16	-0.01	3.00	4.00	3.00	5.25	4.75	4.00	1.25	2.50	1.75	0.50	0.50	0.25	2.25	1.50	0.25	1.25	-0.134277	0.045410	0.977051	-2.940000	-4.270000	2.030000	389.00	-0.11	-0.09
1.09	3.00	4.00	2.75	3.50	3.50	1.50	0.50	0.50	1.50	0.25	0.00	0.00	0.00	1.25	0.00	0.50	-0.190430	0.022461	0.963379	-1.260000	7.910000	-1.400000	242.00	-0.18	-0.02	3.00	3.75	3.25	5.00	4.75	4.00	1.25	2.50	1.50	0.75	0.00	0.25	2.00	1.25	0.25	1.25	-0.138184	0.047363	0.986816	-2.730000	-4.060000	1.960000	377.00	-0.12	-0.09
1.10	3.00	4.25	2.75	3.25	3.50	1.25	0.75	0.50	2.00	0.00	0.00	0.00	0.25	1.25	0.00	0.25	-0.189453	0.017578	0.950195	-1.050000	7.630000	-1.190000	248.00	-0.17	-0.01	3.00	4.00	3.25	5.00	4.75	3.75	1.25	2.50	1.50	0.50	0.25	0.00	2.25	1.50	0.25	1.25	-0.130371	0.049316	0.978516	-2.520000	-3.920000	2.030000	378.00	-0.12	-0.09
1.11	3.00	4.00	3.00	3.50	3.75	1.25	0.50	0.50	1.75	0.25	0.00	0.00	0.00	1.50	0.25	0.25	-0.193359	0.026367	0.962402	-0.840000	7.840000	-1.190000	252.00	-0.16	-0.01	3.25	4.25	3.00	5.00	4.75	4.00	1.25	2.50	1.50	0.50	0.25	0.25	2.25	1.25	0.00	1.25	-0.134277	0.044434	0.977539	-2.310000	-3.990000	2.240000	381.00	-0.13	-0.09
1.12	3.00	4.25	2.75	3.25	3.50	1.25	0.50	0.75	1.75	0.00	0.00	0.00	0.00	1.25	0.00	0.50	-0.187988	0.023438	0.964355	-0.700000	7.910000	-1.190000	244.00	-0.17	-0.02	3.00	4.00	3.00	5.25	4.75	3.75	1.25	2.50	1.50	0.50	0.25	0.00	2.25	1.50	0.00	1.00	-0.134766	0.048828	0.982422	-2.100000	-4.060000	2.380000	374.00	-0.13	-0.09
1.13	2.75	4.00	2.75	3.00	3.50	1.00	0.75	0.50	1.25	0.25	0.00	0.00	0.25	1.25	0.00	0.50	-0.195801	0.022461	0.969238	-0.420000	8.050000	-1.050000	232.00	-0.17	-0.02	3.25	4.25	3.25	5.25	4.75	4.00	1.25	2.50	1.25	0.50	0.25	0.00	1.75	1.50	0.25	1.25	-0.129395	0.052734	0.976562	-1.890000	-4.130000	2.520000	381.00	-0.13	-0.09
1.14	3.00	4.25	2.50	3.00	3.50	1.00	0.50	0.50	1.50	0.00	0.00	0.00	0.25	1.25	0.00	0.25	-0.193848	0.026367	0.953125	-0.350000	8.190000	-0.980000	229.00	-0.18	-0.02	3.50	4.25	3.25	5.25	4.75	4.00	1.25	2.75	1.25	0.75	0.50	0.00	2.00	1.00	0.25	1.25	-0.117676	0.047852	0.979004	-1.750000	-4.200000	2.450000	390.00	-0.13	-0.10
1.15	3.00	4.25	2.50	3.25	3.50	1.25	0.50	0.50	1.75	0.00	0.00	0.00	0.00	1.25	0.00	0.50	-0.190918	0.023438	0.967285	-0.280000	8.330000	-1.050000	237.00	-0.18	-0.02	3.25	4.25	3.25	5.25	5.00	4.25	1.25	2.25	1.25	0.25	0.50	0.00	2.25	1.25	0.25	1.25	-0.131836	0.048828	0.973633	-1.680000	-4.410000	2.520000	385.00	-0.13	-0.09
1.16	2.75	4.00	2.75	3.25	3.25	1.25	0.50	0.50	1.50	0.25	0.00	0.00	0.00	1.25	0.00	0.25	-0.194824	0.022949	0.956543	-0.350000	8.260000	-0.980000	230.00	-0.18	-0.02	3.50	4.50	3.25	5.25	5.00	4.25	1.25	2.50	1.25	0.25	0.00	0.00	2.00	1.50	0.25	1.00	-0.123535	0.047363	0.984375	-1.750000	-4.690000	2.450000	387.00	-0.14	-0.09
1.17	2.75	4.25	2.75	3.00	3.25	1.25	0.50	0.50	1.50	0.00	0.00	0.00	0.00	1.25	0.00	0.50	-0.195801	0.024902	0.957520	-0.490000	8.330000	-0.980000	229.00	-0.18	-0.02	3.50	4.50	3.25	5.25	5.00	4.25	1.25	2.50	1.25	0.50	0.25	0.00	1.75	1.25	0.00	1.00	-0.123535	0.047363	0.983887	-1.610000	-4.620000	2.450000	385.00	-0.15	-0.09
1.18	3.00	4.00	2.75	3.25	3.25	1.00	0.50	0.50	1.75	0.00	0.00	0.00	0.00	1.00	0.00	0.25	-0.191895	0.018555	0.960449	-0.560000	8.330000	-1.120000	229.00	-0.18	-0.01	3.75	4.50	3.50	5.50	5.00	4.25	1.25	2.75	1.25	0.75	0.25	0.00	2.25	1.00	0.25	1.25	-0.128906	0.049805	0.983887	-1.680000	-4.550000	2.380000	406.00	-0.14	-0.10
1.19	2.75	4.50	2.75	3.25	3.00	1.25	0.50	0.50	1.25	0.00	0.00	0.00	0.25	1.25	0.00	0.25	-0.191895	0.024902	0.953613	-0.630000	8.330000	-1.190000	228.00	-0.19	-0.03	3.25	4.75	3.75	5.50	5.00	4.50	1.25	2.50	1.25	0.50	0.25	0.00	2.00	1.00	0.00	1.00	-0.128906	0.050293	0.981934	-1.890000	-4.480000	2.240000	396.00	-0.15	-0.09
1.20	3.00	4.50	2.75	3.25	3.00	1.00	0.50	0.50	1.50	0.00	0.00	0.00	0.00	0.75	0.00	0.25	-0.202148	0.022949	0.963867	-1.050000	8.680000	-1.190000	225.00	-0.20	-0.02	3.75	4.75	3.50	5.50	5.00	4.50	1.25	2.75	1.25	0.50	0.25	0.25	2.00	1.25	0.25	1.25	-0.131348	0.054199	0.988281	-2.030000	-4.340000	2.240000	411.00	-0.14	-0.10
1.21	3.00	4.25	2.50	3.50	3.00	1.00	0.50	0.50	1.50	0.00	0.00	0.00	0.00	0.75	0.00	0.25	-0.188965	0.021973	0.961914	-0.840000	8.120000	-1.190000	223.00	-0.20	-0.02	3.75	5.00	3.50	5.50	5.00	4.50	1.25	2.75	1.25	0.50	0.00	0.00	2.00	1.25	0.25	1.25	-0.130859	0.045410	0.985840	-2.310000	-4.340000	2.100000	408.00	-0.15	-0.10
1.22	2.75	4.25	2.75	3.00	3.00	1.00	0.50	0.25	1.50	0.00	0.00	0.00	0.00	1.25	0.00	0.25	-0.191895	0.021973	0.958496	-0.630000	7.910000	-1.120000	218.00	-0.19	-0.01	3.75	5.00	3.50	5.50	5.25	4.75	1.25	2.75	1.25	0.50	0.00	0.00	1.75	1.25	0.25	1.00	-0.127930	0.052734	0.984375	-2.450000	-4.200000	2.030000	410.00	-0.15	-0.09
1.23	3.00	4.25	2.50	3.25	2.75	1.00	0.50	0.50	1.50	0.00	0.00	0.00	0.00	1.25	0.00	0.25	-0.200195	0.019531	0.951172	-0.280000	8.190000	-1.260000	222.00	-0.19	-0.02	4.00	5.00	3.75	5.75	5.25	4.75	1.25	2.50	1.00	0.50	0.25	0.00	2.00	1.25	0.00	1.00	-0.130371	0.049316	0.976562	-2.520000	-4.060000	1.890000	413.00	-0.16	-0.09
1.24	3.00	4.25	2.50	3.25	3.00	0.75	0.50	0.25	1.50	0.25	0.00	0.00	0.00	1.00	0.00	0.25	-0.186523	0.012207	0.955566	-0.070000	8.330000	-1.330000	218.00	-0.19	-0.01	3.75	5.00	3.75	5.50	5.25	4.75	1.25	2.50	1.25	0.25	0.50	0.00	1.75	1.00	0.25	1.00	-0.109375	0.049805	0.996094	-2.450000	-3.850000	1.820000	409.00	-0.15	-0.09
1.25	3.00	4.50	2.75	3.25	2.75	1.00	0.50	0.25	1.50	0.00	0.00	0.00	0.00	0.75	0.00	0.25	-0.188477	0.022461	0.958496	-0.070000	8.120000	-1.190000	219.00	-0.21	-0.02	4.00	5.00	3.75	5.75	5.25	4.75	1.25	2.50	1.25	0.50	0.00	0.00	1.75	1.25	0.25	1.00	-0.125977	0.062988	0.976562	-2.310000	-4.130000	2.310000	414.00	-0.15	-0.09
1.26	3.00	4.50	2.50	3.25	2.75	1.00	0.25	0.50	1.50	0.00	0.00	0.00	0.00	1.00	0.00	0.25	-0.193359	0.030273	0.961914	-0.140000	8.190000	-1.260000	218.00	-0.20	-0.03	4.00	5.00	3.50	5.75	5.25	5.00	1.25	2.50	1.00	0.50	0.00	0.00	1.75	1.00	0.00	1.00	-0.127441	0.050781	0.979492	-2.380000	-4.200000	2.170000	406.00	-0.16	-0.10
1.27	3.00	4.50	2.50	3.00	2.75	1.00	0.25	0.25	1.50	0.00	0.00	0.00	0.00	1.25	0.00	0.25	-0.195312	0.020996	0.965820	-0.420000	7.910000	-1.190000	214.00	-0.20	-0.02	4.00	5.25	3.75	5.75	5.25	4.75	1.25	2.75	1.00	0.50	0.00	0.00	2.00	1.25	0.25	1.00	-0.124512	0.049316	0.977539	-2.590000	-4.340000	1.890000	419.00	-0.16	-0.10
1.28	3.00	4.50	2.50	3.25	2.75	1.00	0.25	0.25	1.25	0.00	0.00	0.00	0.00	1.00	0.00	0.25	-0.192383	0.021484	0.953125	-0.630000	7.560000	-1.190000	211.00	-0.21	-0.02	4.00	5.25	4.00	6.00	5.50	4.75	1.25	2.50	1.25	0.50	0.25	0.00	1.50	1.25	0.25	1.00	-0.125488	0.051270	0.981445	-2.730000	-4.130000	1.890000	425.00	-0.16	-0.09
1.29	3.00	4.50	2.75	3.25	2.75	0.75	0.25	0.25	1.50	0.00	0.00	0.00	0.00	1.25	0.00	0.00	-0.193359	0.011230	0.954102	-1.050000	7.210000	-1.330000	215.00	-0.20	-0.01	4.50	5.25	4.25	6.00	5.50	4.75	1.25	2.50	1.25	0.50	0.25	0.00	1.75	1.00	0.00	0.75	-0.127441	0.045410	0.978027	-2.940000	-3.850000	1.820000	429.00	-0.17	-0.09
1.30	3.00	4.00	2.50	3.25	2.75	0.75	0.25	0.25	1.25	0.00	0.00	0.00	0.00	1.00	0.00	0.00	-0.194824	0.026367	0.956055	-1.260000	7.000000	-1.330000	202.00	-0.21	-0.02	4.00	5.25	4.00	5.75	5.25	4.75	1.25	2.75	1.25	0.50	0.00	0.00	1.75	1.00	0.00	1.00	-0.129395	0.053223	0.983887	-3.080000	-3.710000	1.820000	418.00	-0.16	-0.09
1.31	3.25	4.50	2.50	3.00	2.75	0.75	0.50	0.25	1.00	0.00	0.00	0.00	0.00	1.00	0.00	0.25	-0.191406	0.018066	0.954590	-1.470000	6.790000	-1.400000	209.00	-0.21	-0.02	4.00	5.25	4.00	5.75	5.25	5.00	1.25	2.50	1.25	0.50	0.25	0.00	1.75	1.00	0.25	1.00	-0.125000	0.048340	0.982910	-2.870000	-3.290000	1.680000	422.00	-0.16	-0.09
1.32	3.00	4.25	2.50	3.00	2.50	0.75	0.25	0.25	1.25	0.00	0.00	0.00	0.00	1.00	0.00	0.25	-0.196777	0.026367	0.962402	-1.610000	6.510000	-1.400000	200.00	-0.21	-0.02	4.25	5.00	4.00	5.75	5.25	5.00	1.25	2.50	1.25	0.50	0.00	0.00	1.25	1.25	0.25	1.00	-0.128418	0.048340	0.989258	-2.800000	-3.220000	1.750000	418.00	-0.16	-0.08
1.33	3.25	4.50	2.75	3.25	2.75	0.75	0.50	0.25	1.00	0.00	0.00	0.00	0.00	1.00	0.00	0.25	-0.194824	0.026855	0.961914	-1.820000	6.300000	-1.330000	214.00	-0.22	-0.02	4.50	5.50	4.00	5.75	5.50	5.00	1.25	2.50	1.00	0.50	0.00	0.00	2.00	1.00	0.00	1.00	-0.126953	0.047852	0.984375	-2.800000	-3.080000	1.820000	426.00	-0.17	-0.09
1.34	3.25	4.75	2.50	3.25	2.75	0.75	0.50	0.25	1.25	0.00	0.00	0.00	0.00	1.00	0.00	0.25	-0.199219	0.025391	0.954102	-2.030000	5.950000	-1.470000	217.00	-0.21	-0.02	4.25	5.25	4.25	6.00	5.50	5.00	1.25	2.75	1.25	0.50	0.25	0.00	1.75	1.25	0.25	1.00	-0.135742	0.045898	0.975098	-2.800000	-3.150000	1.820000	439.00	-0.16	-0.09
1.35	3.00	4.75	2.75	3.50	2.75	0.75	0.25	0.25	1.25	0.00	0.00	0.00	0.00	0.75	0.00	0.25	-0.193848	0.027344	0.955078	-2.030000	5.530000	-1.330000	214.00	-0.22	-0.03	4.50	5.25	3.75	5.75	5.25	4.75	1.25	2.50	1.00	0.75	0.25	0.00	1.75	1.25	0.00	1.00	-0.129395	0.048340	0.978027	-2.730000	-3.010000	1.750000	421.00	-0.16	-0.09
1.36	3.25	4.75	2.75	3.25	2.75	1.00	0.50	0.50	1.25	0.00	0.00	0.00	0.00	1.00	0.00	0.25	-0.193848	0.028320	0.952637	-2.310000	5.460000	-1.470000	226.00	-0.21	-0.02	4.25	5.50	4.00	6.00	5.50	4.75	1.25	2.50	1.25	0.25	0.00	0.00	1.75	1.00	0.25	1.00	-0.126953	0.045898	0.979004	-2.730000	-3.010000	1.820000	425.00	-0.16	-0.09
1.37	3.00	4.75	2.50	3.50	2.75	0.75	0.50	0.25	1.25	0.00	0.00	0.00	0.00	1.00	0.00	0.25	-0.193359	0.030273	0.957031	-2.590000	5.460000	-1.680000	217.00	-0.21	-0.02	4.25	5.25	4.00	6.00	5.25	4.50	1.25	2.75	1.00	0.50	0.00	0.00	1.75	1.25	0.25	0.75	-0.131348	0.047852	0.983887	-2.800000	-2.940000	1.890000	421.00	-0.16	-0.09
1.38	3.25	4.25	2.50	3.25	2.75	0.75	0.25	0.25	1.25	0.00	0.00	0.00	0.00	1.00	0.00	0.25	-0.195312	0.024902	0.956543	-2.800000	5.320000	-1.750000	208.00	-0.21	-0.02	4.25	5.25	4.00	5.75	5.25	4.75	1.25	2.50	1.25	0.50	0.00	0.00	1.75	1.00	0.00	1.00	-0.130859	0.050293	0.982422	-2.800000	-2.870000	1.820000	417.00	-0.16	-0.09
1.39	3.25	4.50	2.50	3.50	2.75	0.75	0.50	0.25	1.25	0.00	0.00	0.00	0.00	0.75	0.00	0.25	-0.197754	0.020020	0.962402	-2.590000	4.970000	-1.610000	215.00	-0.22	-0.02	4.25	5.25	3.75	5.75	5.25	4.50	1.25	2.50	1.25	0.50	0.00	0.00	1.75	1.00	0.25	0.75	-0.132324	0.050293	0.977539	-2.870000	-2.730000	1.750000	413.00	-0.16	-0.09
1.40	3.00	4.50	2.50	3.50	2.75	1.00	0.50	0.25	1.00	0.00	0.00	0.00	0.00	0.75	0.00	0.25	-0.194336	0.022461	0.953125	-2.590000	5.040000	-1.470000	212.00	-0.22	-0.03	4.00	5.00	3.75	5.75	5.25	4.75	1.25	2.50	1.25	0.75	0.00	0.00	2.00	1.00	0.25	1.00	-0.126953	0.044922	0.978516	-3.010000	-2.730000	1.820000	417.00	-0.15	-0.09
1.41	3.00	4.50	2.75	3.50	2.75	1.00	0.50	0.50	1.25	0.00	0.00	0.00	0.00	1.00	0.00	0.25	-0.191406	0.024414	0.954590	-2.660000	5.460000	-1.610000	224.00	-0.20	-0.03	4.00	5.25	3.75	5.75	5.25	4.75	1.25	2.50	1.50	0.25	0.00	0.00	1.75	1.25	0.25	0.75	-0.132324	0.051758	0.984863	-2.940000	-2.660000	1.820000	416.00	-0.16	-0.09
1.42	3.00	4.25	2.75	3.25	2.75	1.00	0.50	0.50	1.50	0.00	0.00	0.00	0.00	1.00	0.00	0.25	-0.195312	0.017090	0.953125	-2.590000	5.810000	-1.680000	222.00	-0.19	-0.02	4.00	5.25	4.00	5.75	5.25	4.50	1.25	2.25	1.25	0.50	0.00	0.00	1.50	1.25	0.00	1.00	-0.125488	0.047363	0.981445	-2.940000	-2.590000	1.750000	408.00	-0.16	-0.08
1.43	3.00	4.75	2.75	3.25	3.00	0.75	0.50	0.50	1.25	0.25	0.00	0.00	0.00	1.25	0.00	0.25	-0.192383	0.022949	0.957520	-2.520000	5.600000	-1.470000	228.00	-0.19	-0.02	4.25	5.25	4.00	5.75	5.25	4.50	1.25	2.50	1.25	0.25	0.00	0.00	1.75	1.25	0.00	1.00	-0.129395	0.049805	0.984375	-3.080000	-2.590000	1.820000	414.00	-0.16	-0.09
1.44	3.00	5.00	2.75	3.50	3.00	1.00	0.50	0.50	1.25	0.00	0.00	0.00	0.00	0.75	0.00	0.25	-0.193848	0.025879	0.953613	-2.520000	5.460000	-1.330000	229.00	-0.21	-0.03	4.00	5.00	4.00	5.75	5.25	4.50	1.25	2.25	1.25	0.50	0.00	0.00	1.75	1.00	0.25	0.75	-0.132324	0.046387	0.983398	-2.940000	-2.590000	1.820000	407.00	-0.16	-0.08
1.45	3.25	4.50	2.75	3.50	3.00	1.00	0.50	0.50	1.50	0.00	0.00	0.00	0.00	1.00	0.00	0.25	-0.193848	0.020020	0.959961	-2.450000	5.530000	-1.540000	233.00	-0.20	-0.02	4.00	5.00	4.00	5.50	5.25	4.50	1.25	2.50	1.25	0.50	0.00	0.00	1.50	1.25	0.25	0.75	-0.125977	0.045898	0.978516	-2.660000	-2.590000	1.750000	408.00	-0.16	-0.08
1.46	3.00	4.75	2.75	3.50	3.00	1.00	0.50	0.50	1.50	0.00	0.00	0.00	0.25	1.25	0.00	0.25	-0.205566	0.025391	0.965332	-2.310000	5.530000	-1.470000	237.00	-0.19	-0.03	3.75	5.00	3.50	5.50	5.25	4.25	1.25	2.25	1.25	0.50	0.00	0.00	2.00	1.25	0.25	0.75	-0.131348	0.049316	0.980469	-2.590000	-2.660000	1.750000	397.00	-0.15	-0.09
1.47	3.25	4.50	2.75	3.50	3.00	1.25	0.50	0.50	1.50	0.00	0.00	0.00	0.00	1.50	0.00	0.25	-0.198730	0.022461	0.956055	-2.170000	5.460000	-1.400000	240.00	-0.19	-0.02	3.75	5.00	3.75	5.50	5.25	4.50	1.25	2.50	1.25	0.50	0.50	0.00	1.75	1.00	0.00	1.00	-0.126953	0.049316	0.986328	-2.660000	-2.590000	1.820000	406.00	-0.15	-0.09
1.48	3.00	4.50	3.00	3.50	3.25	1.00	0.50	0.75	1.50	0.00	0.00	0.00	0.00	1.25	0.00	0.25	-0.190430	0.023926	0.950195	-2.100000	5.320000	-1.190000	242.00	-0.19	-0.02	3.75	5.00	3.50	5.50	5.25	4.25	1.25	2.25	1.25	0.50	0.25	0.00	1.50	1.00	0.00	1.00	-0.133301	0.049316	0.980469	-2.730000	-2.450000	1.890000	392.00	-0.16	-0.08
1.49	3.25	4.50	2.75	3.50	3.00	1.00	0.50	0.50	1.50	0.25	0.00	0.00	0.00	1.00	0.00	0.25	-0.197266	0.024414	0.952148	-2.170000	5.250000	-1.260000	235.00	-0.19	-0.02	3.75	5.00	3.50	5.50	5.25	4.25	1.25	2.50	1.25	0.50	0.00	0.00	1.75	1.00	0.25	1.00	-0.132812	0.049805	0.980469	-2.730000	-2.170000	1.960000	398.00	-0.15	-0.09
1.50	3.25	4.50	2.75	3.50	3.25	1.25	0.50	0.50	1.75	0.25	0.00	0.00	0.25	1.50	0.00	0.25	-0.195801	0.025879	0.960938	-1.960000	4.900000	-1.050000	250.00	-0.17	-0.02	3.75	4.50	3.50	5.25	5.25	4.00	1.25	2.25	1.25	0.50	0.25	0.00	1.75	1.00	0.00	1.00	-0.131348	0.050781	0.979492	-2.730000	-2.030000	1.960000	384.00	-0.15	-0.08
1.51	3.00	4.50	2.75	3.25	3.25	1.50	0.50	0.75	1.75	0.25	0.00	0.00	0.25	1.25	0.00	0.25	-0.196777	0.019043	0.959473	-2.030000	4.760000	-1.050000	249.00	-0.17	-0.03	3.75	4.75	3.75	5.50	5.25	4.00	1.25	2.25	1.50	0.50	0.25	0.00	1.75	1.00	0.00	1.00	-0.132324	0.047852	0.982422	-2.800000	-1.960000	1.890000	396.00	-0.15	-0.08
1.52	3.25	4.50	2.75	3.50	3.25	1.25	0.50	0.75	1.75	0.00	0.00	0.00	0.00	1.25	0.00	0.50	-0.189941	0.018066	0.949707	-1.890000	4.760000	-0.980000	249.00	-0.18	-0.02	3.50	4.50	3.25	5.25	5.00	3.75	1.25	2.25	1.50	0.50	0.00	0.00	1.75	1.00	0.25	0.75	-0.126953	0.050293	0.985840	-2.870000	-1.680000	1.820000	376.00	-0.15	-0.08
1.53	3.25	4.50	3.00	3.75	3.50	1.50	0.75	0.75	1.75	0.25	0.25	0.00	0.00	1.50	0.00	0.50	-0.198730	0.023438	0.948242	-2.170000	4.480000	-1.190000	271.00	-0.17	-0.02	3.25	4.50	3.25	5.25	5.00	4.00	1.25	2.25	1.50	0.75	0.00	0.00	2.00	1.25	0.00	1.00	-0.133301	0.051758	0.979492	-2.940000	-1.470000	1.890000	381.00	-0.14	-0.08
1.54	3.25	4.50	3.00	3.75	3.50	1.50	0.75	0.75	1.75	0.25	0.00	0.00	0.25	1.25	0.00	0.50	-0.189941	0.028320	0.955566	-2.170000	4.130000	-1.120000	268.00	-0.17	-0.03	3.25	4.50	3.25	5.25	5.00	3.75	1.25	2.25	1.25	0.50	0.00	0.00	2.00	1.25	0.00	1.00	-0.128418	0.046875	0.982422	-2.800000	-1.260000	1.960000	373.00	-0.15	-0.09
1.55	3.00	4.50	3.00	3.75	3.50	1.75	0.75	0.75	1.50	0.25	0.00	0.00	0.25	1.25	0.00	0.50	-0.196289	0.016113	0.957031	-2.590000	3.990000	-1.190000	265.00	-0.17	-0.03	3.25	4.00	2.75	5.00	5.00	3.75	1.25	2.25	1.50	0.75	0.00	0.00	1.50	1.25	0.25	1.00	-0.127930	0.047852	0.979004	-2.800000	-0.910000	1.820000	364.00	-0.13	-0.08
1.56	3.00	5.00	3.00	3.75	4.00	1.75	0.75	1.00	2.00	0.25	0.25	0.00	0.50	1.25	0.00	0.50	-0.195312	0.018555	0.956543	-2.380000	3.850000	-1.190000	290.00	-0.16	-0.03	3.00	4.00	2.75	5.00	4.75	3.25	1.25	2.25	1.75	0.75	0.00	0.25	1.75	1.00	0.25	1.00	-0.131836	0.048340	0.973145	-2.730000	-0.700000	1.750000	359.00	-0.13	-0.08
1.57	3.25	5.00	3.25	4.00	4.00	2.00	0.75	1.00	2.00	0.50	0.25	0.00	0.50	1.25	0.00	0.50	-0.194824	0.020996	0.957520	-2.310000	3.360000	-1.120000	304.00	-0.16	-0.04	2.75	3.75	2.75	4.50	4.50	3.00	1.25	2.00	1.25	0.25	0.00	0.00	1.50	1.25	0.25	1.00	-0.130859	0.047852	0.983887	-2.730000	-0.420000	1.680000	325.00	-0.13	-0.08
1.58	3.25	4.75	3.00	4.00	4.25	2.25	0.75	1.00	2.00	0.50	0.25	0.00	0.50	1.50	0.00	0.50	-0.191895	0.023438	0.958008	-2.170000	2.730000	-1.050000	306.00	-0.15	-0.04	2.50	3.25	2.50	4.25	4.25	3.00	1.25	2.00	1.50	0.50	0.25	0.00	1.75	1.25	0.00	1.00	-0.127930	0.049805	0.981445	-2.800000	0.210000	1.400000	318.00	-0.12	-0.08
1.59	3.25	5.00	3.25	4.00	4.75	2.50	0.75	1.25	2.25	0.50	0.25	0.00	0.50	1.25	0.00	0.50	-0.192871	0.022461	0.963379	-1.960000	2.170000	-1.190000	324.00	-0.15	-0.04	2.50	3.00	2.25	3.75	4.25	2.75	1.25	2.00	1.50	0.50	0.00	0.00	1.75	1.25	0.25	1.00	-0.123047	0.045898	0.985352	-2.520000	1.190000	1.050000	304.00	-0.11	-0.07
1.60	3.25	5.00	3.25	4.00	5.00	2.75	0.75	1.25	2.50	0.50	0.25	0.00	0.75	1.50	0.00	0.50	-0.186523	0.011230	0.949219	-1.820000	1.260000	-1.260000	338.00	-0.14	-0.04	2.00	2.50	2.00	3.50	3.75	2.50	1.25	1.75	1.75	0.50	0.25	0.00	1.50	1.50	0.00	1.25	-0.129883	0.045898	0.979980	-2.240000	2.380000	0.630000	282.00	-0.09	-0.07
1.61	3.75	5.25	3.25	4.50	5.50	2.75	1.00	1.50	2.25	0.25	0.25	0.00	0.75	1.50	0.00	0.50	-0.192871	0.018555	0.943848	-1.820000	0.560000	-1.470000	358.00	-0.15	-0.04	2.00	1.75	2.00	3.25	3.25	2.25	1.25	1.75	1.50	0.75	0.00	0.00	1.50	1.50	0.25	1.00	-0.127930	0.051270	0.988281	-1.750000	3.780000	0.070000	262.00	-0.08	-0.06
1.62	3.50	5.25	3.50	4.75	6.00	3.50	1.00	1.75	2.50	0.75	0.25	0.25	0.75	1.75	0.00	0.75	-0.191406	0.020508	0.953125	-1.680000	-1.050000	-1.400000	393.00	-0.14	-0.05	1.50	1.75	1.50	3.00	2.75	1.75	1.25	1.50	1.50	0.25	0.25	0.00	1.75	1.25	0.25	1.25	-0.132324	0.048340	0.975586	-1.190000	5.670000	-0.420000	232.00	-0.07	-0.07
1.63	4.00	5.50	4.00	5.00	6.00	4.00	1.00	2.00	2.75	0.75	0.50	0.25	1.00	1.75	0.00	0.50	-0.181641	0.026367	0.973633	-1.400000	-2.310000	-1.260000	424.00	-0.14	-0.05	1.25	1.50	1.25	2.75	2.25	1.25	1.00	1.50	1.75	0.75	0.50	0.25	2.25	1.25	0.25	1.25	-0.159668	0.048340	0.989258	-0.700000	7.770000	-0.840000	225.00	-0.03	-0.08
1.64	4.00	6.00	4.00	5.25	6.50	5.50	1.25	2.25	2.75	1.00	0.50	0.50	1.00	1.75	0.00	0.75	-0.184082	0.023438	0.956055	-1.400000	-2.520000	-1.260000	468.00	-0.13	-0.06	1.00	1.50	0.75	2.00	1.50	1.25	1.00	1.50	1.75	0.50	0.25	0.00	1.75	1.75	0.25	1.25	-0.114258	0.061035	1.007324	-0.210000	14.490000	-4.130000	193.00	-0.01	-0.07
1.65	4.50	6.25	4.25	5.50	7.00	5.75	1.25	2.75	2.75	1.00	0.50	0.25	1.25	1.75	0.00	0.75	-0.174805	0.025391	0.965820	-1.400000	-2.310000	-1.330000	496.00	-0.14	-0.07	1.00	0.75	0.75	1.50	0.75	0.75	1.00	1.00	1.75	1.00	0.00	0.00	1.75	1.50	0.25	1.25	-0.114258	0.061035	1.007324	-0.210000	14.490000	-4.130000	159.00	0.03	-0.04
1.66	4.25	6.50	4.50	5.75	7.50	6.25	1.25	3.25	2.75	1.00	0.50	0.50	1.50	1.75	0.00	0.75	-0.175781	0.009277	0.948242	-1.400000	-1.680000	-1.470000	525.00	-0.13	-0.08	0.50	0.50	0.50	1.50	0.25	0.25	0.75	1.00	2.00	0.25	0.25	0.00	2.00	2.00	0.25	1.25	-0.114258	0.076172	1.033203	0.350000	21.000000	-6.090000	139.00	0.08	-0.05
1.67	4.50	6.50	4.75	6.00	7.75	6.75	1.50	3.75	2.75	1.25	0.75	0.75	1.25	2.00	0.00	1.00	-0.182617	0.035645	0.978516	-1.190000	-0.630000	-1.330000	562.00	-0.13	-0.08	0.50	0.50	0.50	1.75	0.00	0.25	0.75	1.00	1.75	0.50	0.25	0.25	1.50	2.00	0.50	1.25	-0.099609	0.133301	1.191406	17.430000	83.580002	-14.280000	139.00	0.08	-0.06
1.68	5.25	6.75	4.75	6.25	8.00	7.25	1.50	4.25	3.25	1.00	0.75	0.50	1.75	1.75	0.00	1.00	-0.166504	0.022461	0.969727	-0.560000	1.750000	-1.120000	594.00	-0.13	-0.08	0.75	0.00	0.50	1.50	0.00	0.00	0.50	0.75	1.50	0.25	0.00	0.00	1.25	1.75	0.25	1.25	-0.189941	0.070801	1.259766	22.820000	128.660004	-16.660000	106.00	0.08	-0.04
1.69	5.00	6.75	4.75	6.25	8.25	7.50	1.75	4.75	3.00	1.25	1.00	0.75	1.75	2.00	0.00	1.00	-0.166504	0.022461	0.969727	-0.560000	1.750000	-1.120000	615.00	-0.12	-0.08	0.75	0.00	0.25	1.50	0.00	0.00	0.50	0.50	1.50	0.25	0.00	0.00	1.25	1.75	0.25	1.00	-0.221191	0.147949	1.199707	11.760000	160.300003	-18.690001	98.00	0.09	-0.03
1.70	5.00	6.50	4.75	6.50	8.50	7.75	1.75	5.00	3.50	1.25	1.00	1.00	2.00	2.25	0.00	1.00	-0.174316	0.023438	0.947266	-0.210000	2.730000	-1.260000	638.00	-0.11	-0.08	0.50	0.25	0.00	0.75	0.00	0.00	0.50	0.75	1.25	0.25	0.00	0.00	1.00	1.75	0.50	1.00	-0.259766	0.197754	1.254395	-6.580000	183.050003	-24.010000	88.00	0.13	-0.04
1.71	5.00	6.50	4.75	6.50	8.50	8.00	1.75	5.25	3.25	1.25	1.00	1.00	2.00	2.25	0.00	1.00	-0.166992	0.022949	0.966309	-0.210000	4.830000	-1.260000	641.00	-0.11	-0.09	0.25	0.00	0.25	1.25	0.00	0.00	0.25	0.50	1.00	0.25	0.00	0.00	0.25	1.50	0.25	0.75	-0.281738	0.226074	1.432617	-25.900000	189.419998	-32.270000	68.00	0.10	-0.02
1.72	4.75	6.50	4.75	6.50	8.75	8.00	2.00	5.50	3.75	1.25	1.00	1.25	2.00	2.25	0.25	1.00	-0.184570	-0.002441	0.995605	-0.910000	6.370000	-1.120000	661.00	-0.10	-0.09	0.75	0.25	0.25	0.75	0.00	0.00	0.25	0.25	0.50	0.25	0.00	0.00	0.50	1.25	0.25	0.50	-0.277344	0.341797	1.196777	-39.060001	185.710007	-44.310001	58.00	0.04	-0.02
1.73	4.50	6.50	4.50	6.25	8.75	8.25	2.00	5.75	3.75	1.25	1.00	1.00	2.25	2.25	0.00	1.25	-0.169434	0.020996	0.969238	-0.420000	7.700000	-1.400000	657.00	-0.10	-0.09	0.50	0.00	0.25	1.00	0.00	0.00	0.25	0.50	0.75	0.25	0.00	0.00	0.25	1.00	0.25	0.25	-0.281738	0.354004	1.541504	-38.360001	169.259995	-59.150002	57.00	0.05	-0.02
1.74	4.50	6.50	4.50	6.25	8.75	8.25	2.00	5.75	3.75	1.25	1.50	1.25	2.25	2.25	0.00	1.00	-0.166504	0.012695	0.959473	-0.210000	8.960000	-1.470000	664.00	-0.10	-0.09	0.25	0.00	0.25	1.25	0.00	0.00	0.25	0.50	0.50	0.50	0.00	0.00	0.00	0.50	0.00	0.00	0.185547	0.558594	1.384277	-35.139999	152.180008	-73.779999	46.00	0.00	0.00
1.75	4.25	6.25	4.00	6.25	8.50	8.25	2.00	5.75	3.50	1.50	1.25	1.50	2.25	2.50	0.25	1.25	-0.175781	0.017090	0.970215	-0.070000	10.220000	-1.260000	656.00	-0.09	-0.09	0.50	0.00	0.00	1.00	0.00	0.00	0.25	0.25	0.25	0.00	0.00	0.00	0.00	0.00	0.00	0.00	0.662109	1.108398	1.493164	-55.790001	118.720001	-71.540001	27.00	0.00	0.00
1.76	4.25	6.00	4.25	6.00	8.50	8.50	2.00	5.75	4.25	1.50	1.50	1.25	2.50	2.50	0.25	1.25	-0.176270	0.029297	0.965820	0.280000	11.340000	-1.120000	669.00	-0.08	-0.09	0.25	0.00	0.25	0.75	0.00	0.00	0.25	0.25	0.25	0.25	0.00	0.00	0.00	0.00	0.00	0.00	0.688965	1.328613	1.265137	-64.260002	86.800003	-38.639999	27.00	0.00	0.00
1.77	4.00	5.75	3.75	5.50	8.25	8.25	2.25	6.00	4.00	1.50	1.50	1.50	2.50	2.75	0.25	1.25	-0.180176	0.021973	0.968750	0.560000	12.250000	-1.050000	656.00	-0.08	-0.09	0.50	0.00	0.25	1.00	0.00	0.00	0.25	0.25	0.00	0.50	0.00	0.00	0.25	0.25	0.00	0.00	0.723145	1.304199	1.187988	-40.110001	47.320000	-2.100000	36.00	0.00	0.00
1.78	3.50	5.50	3.50	5.75	8.25	8.00	2.00	6.00	4.00	1.75	1.50	1.75	2.75	3.00	0.25	1.25	-0.177246	0.024902	0.966309	0.840000	13.090000	-0.910000	652.00	-0.07	-0.10	0.25	0.00	0.25	1.00	0.00	0.00	0.25	0.25	0.50	0.00	0.00	0.00	0.00	0.25	0.00	0.00	0.701172	1.026367	0.731445	-6.650000	28.420000	21.000000	33.00	0.00	0.00
1.79	3.25	5.25	3.25	5.25	8.00	8.00	2.25	6.00	4.25	2.00	1.75	1.50	2.75	3.00	0.25	1.25	-0.183594	0.013672	0.963379	1.120000	13.230000	-0.770000	645.00	-0.06	-0.09	0.50	0.25	0.00	0.75	0.00	0.00	0.25	0.25	0.25	0.00	0.00	0.00	0.00	0.25	0.00	0.00	0.694824	0.851562	0.797363	12.250000	25.270000	35.910000	29.00	0.00	0.00
1.80	3.25	5.25	3.00	5.25	7.75	8.00	2.25	6.00	4.50	1.75	1.75	1.75	3.00	3.00	0.00	1.50	-0.183594	0.022949	0.961914	1.470000	13.580000	-0.700000	644.00	-0.06	-0.09	0.25	0.25	0.00	1.00	0.00	0.00	0.25	0.25	0.00	0.50	0.00	0.00	0.00	0.00	0.00	0.00	0.751465	0.704102	0.917969	22.400000	15.120000	45.639999	29.00	0.00	0.00
1.81	2.75	5.00	2.75	5.00	7.50	7.75	2.25	6.00	4.50	1.75	2.00	2.00	3.00	3.25	0.50	1.50	-0.190430	0.023926	0.953613	1.680000	14.070000	-0.770000	638.00	-0.04	-0.10	0.25	0.25	0.25	1.00	0.00	0.00	0.25	0.50	0.00	0.00	0.00	0.00	0.00	0.00	0.00	0.00	0.750488	0.529785	0.922363	30.940001	-1.260000	48.020000	30.00	0.00	0.00
1.82	2.75	4.75	2.75	4.75	7.50	7.75	2.25	6.00	4.75	2.00	2.25	2.00	3.00	3.50	0.25	1.50	-0.183105	0.025879	0.961914	1.680000	14.140000	-0.980000	641.00	-0.04	-0.09	0.25	0.25	0.00	0.75	0.00	0.00	0.25	0.25	0.50	0.00	0.00	0.00	0.00	0.00	0.00	0.00	0.711426	0.378418	0.910645	38.779999	-16.870001	43.259998	27.00	0.00	0.00
1.83	2.50	4.50	2.50	4.75	7.00	7.75	2.00	6.00	5.00	2.25	2.25	2.25	3.25	3.50	0.50	1.75	-0.190918	0.006836	0.979492	1.820000	14.070000	-1.050000	639.00	-0.02	-0.10	0.50	0.25	0.00	0.75	0.00	0.00	0.25	0.25	0.50	0.00	0.00	0.00	0.00	0.00	0.00	0.00	0.676270	0.272461	0.976074	44.939999	-32.549999	34.650002	30.00	0.00	0.00
1.84	2.25	4.25	2.50	4.25	7.00	7.50	2.25	6.00	5.00	2.25	2.25	2.50	3.50	3.75	0.25	1.75	-0.194336	0.028320	0.946289	1.820000	13.930000	-1.260000	634.00	-0.02	-0.09	0.00	0.00	0.25	0.75	0.00	0.00	0.25	0.25	0.25	0.00	0.00	0.00	0.00	0.00	0.00	0.00	0.622070	0.204102	1.041016	47.529999	-50.119999	24.920000	22.00	0.00	0.00
1.85	2.00	4.00	2.50	4.50	6.50	7.50	2.25	6.00	5.25	2.50	2.50	2.50	3.50	4.00	0.50	2.00	-0.188965	0.025391	0.957520	1.750000	13.370000	-1.120000	641.00	-0.01	-0.09	0.50	0.00	0.00	0.75	0.00	0.00	0.25	0.25	0.25	0.00	0.00	0.00	0.00	0.00	0.00	0.00	0.552246	0.163086	1.063965	47.389999	-67.900002	15.680000	24.00	0.00	0.00
1.86	2.00	4.00	2.00	4.00	6.50	7.50	2.25	6.00	5.25	2.50	2.50	2.75	3.75	4.25	0.50	2.00	-0.194336	0.040527	0.978516	1.680000	12.810000	-1.540000	637.00	0.00	-0.10	0.25	0.00	0.00	0.50	0.00	0.00	0.25	0.25	0.25	0.25	0.00	0.00	0.00	0.00	0.00	0.00	0.405762	0.167969	1.074219	49.209999	-96.599998	1.750000	22.00	0.00	0.00
1.87	2.00	4.00	2.00	4.00	6.25	7.25	2.25	6.25	5.25	2.50	2.75	3.00	4.00	4.50	0.50	2.00	-0.181152	0.024902	0.953125	2.030000	12.460000	-1.750000	645.00	0.01	-0.10	0.25	0.00	0.00	0.75	0.00	0.00	0.25	0.25	0.25	0.00	0.00	0.00	0.00	0.00	0.00	0.00	0.329590	0.195801	1.107910	51.029999	-107.099998	-2.030000	22.00	0.00	0.00
1.88	2.00	3.25	2.00	4.00	6.00	7.50	2.25	6.25	5.50	2.75	3.00	3.00	4.00	4.75	0.75	2.00	-0.194824	0.017578	0.955078	2.170000	11.970000	-2.100000	651.00	0.02	-0.10	0.50	0.00	0.25	0.75	0.00	0.00	0.25	0.25	0.25	0.00	0.00	0.00	0.00	0.00	0.00	0.00	0.242676	0.213379	1.129883	52.009998	-116.129997	-2.730000	27.00	0.00	0.00
1.89	1.75	3.25	1.75	4.00	5.75	7.25	2.25	6.25	5.50	2.75	3.25	3.25	4.50	5.00	0.50	2.00	-0.183105	0.015137	0.960938	2.310000	11.550000	-1.960000	649.00	0.02	-0.10	0.25	0.50	0.25	1.00	0.00	0.00	0.25	0.25	0.25	0.25	0.00	0.00	0.00	0.00	0.00	0.00	0.161621	0.242676	1.124512	51.660000	-122.290001	-0.770000	34.00	0.00	0.00
1.90	1.75	3.25	1.75	4.00	5.75	7.25	2.25	6.25	5.50	2.75	3.25	3.50	5.00	5.25	0.75	2.25	-0.183105	0.026855	0.946777	2.170000	11.340000	-2.170000	662.00	0.03	-0.10	0.25	0.00	0.00	0.50	0.00	0.00	0.25	0.25	0.25	0.00	0.00	0.00	0.00	0.00	0.00	0.00	0.076172	0.250488	1.108887	49.490002	-125.230003	2.660000	19.00	0.00	0.00
1.91	1.25	3.00	1.50	3.75	5.50	7.00	2.25	6.50	5.50	3.25	3.50	3.75	5.00	5.00	0.75	2.25	-0.200684	0.031738	0.958496	2.100000	11.130000	-2.240000	656.00	0.04	-0.11	0.25	0.00	0.00	0.50	0.00	0.00	0.25	0.25	0.25	0.00	0.00	0.00	0.00	0.00	0.00	0.00	0.000488	0.254883	1.091797	45.500000	-125.230003	7.210000	19.00	0.00	0.00
1.92	1.50	3.00	1.50	3.50	5.25	7.00	2.25	6.50	5.75	3.00	3.75	4.00	5.00	5.25	0.75	2.25	-0.154785	0.023438	0.957031	1.820000	10.780000	-2.520000	661.00	0.04	-0.10	0.25	0.50	0.00	0.50	0.00	0.00	0.25	0.25	0.25	0.00	0.00	0.00	0.00	0.00	0.00	0.00	-0.070801	0.257324	1.061523	41.020000	-121.520004	12.670000	24.00	0.00	0.00
1.93	1.50	2.75	1.50	3.50	5.25	7.00	2.25	6.50	5.75	3.50	4.00	5.00	5.50	5.50	0.75	2.25	-0.095703	0.102051	0.996582	1.540000	10.990000	-3.010000	684.00	0.05	-0.11	0.25	0.00	0.00	0.50	0.00	0.00	0.25	0.25	0.25	0.00	0.00	0.00	0.00	0.00	0.00	0.00	-0.116211	0.282715	1.102051	38.290001	-115.500000	19.250000	19.00	0.00	0.00
1.94	1.50	2.50	1.50	3.50	5.00	7.00	2.25	6.50	5.75	3.50	4.00	5.00	5.50	5.75	0.75	2.50	-0.200195	0.034668	0.960449	1.680000	11.060000	-3.080000	682.00	0.05	-0.11	0.25	0.00	0.00	0.75	0.00	0.00	0.25	0.50	0.25	0.00	0.00	0.00	0.00	0.00	0.00	0.00	-0.154785	0.299316	1.145508	38.920002	-109.550003	27.650000	25.00	0.00	0.00
1.95	1.50	3.00	1.50	3.50	5.00	7.00	2.25	6.50	6.50	4.00	4.75	5.50	5.75	6.00	0.75	2.50	-0.177246	0.023438	0.960449	1.820000	11.200000	-2.870000	719.00	0.06	-0.10	0.25	0.00	0.00	0.25	0.00	0.00	0.25	0.25	0.25	0.25	0.00	0.00	0.00	0.25	0.00	0.00	-0.190430	0.280273	1.154785	39.200001	-104.790001	37.520000	21.00	0.00	0.00
1.96	1.00	2.25	1.50	3.00	4.75	6.75	2.25	6.75	6.50	4.00	5.25	5.75	6.00	6.25	1.00	2.50	-0.192871	0.035645	0.959473	1.820000	11.690000	-2.660000	715.00	0.08	-0.10	0.25	0.00	0.00	0.50	0.00	0.00	0.25	0.25	0.25	0.25	0.00	0.00	0.00	0.00	0.00	0.00	-0.237305	0.256348	1.148926	36.820000	-98.629997	47.740002	22.00	0.00	0.00
1.97	1.25	2.25	1.25	3.75	4.50	6.75	2.25	6.75	6.50	4.00	5.75	6.00	6.00	7.00	0.75	2.75	-0.296387	0.006348	0.942871	1.890000	12.040000	-2.730000	733.00	0.08	-0.11	0.25	0.00	0.00	0.25	0.00	0.00	0.25	0.25	0.25	0.00	0.00	0.00	0.00	0.25	0.00	0.00	-0.272461	0.279785	1.207520	36.959999	-91.279999	58.099998	18.00	0.00	0.00
1.98	1.25	2.25	1.25	3.25	4.25	6.50	2.25	6.75	7.25	4.00	6.25	6.50	6.25	7.00	1.00	3.00	-0.200684	0.029785	0.964844	2.450000	12.740000	-2.660000	749.00	0.09	-0.10	0.00	0.00	0.00	0.25	0.00	0.00	0.25	0.25	0.25	0.00	0.00	0.00	0.00	0.25	0.00	0.00	-0.333008	0.236816	1.231445	41.720001	-87.430000	67.970001	16.00	0.00	0.00
1.99	1.25	2.25	1.25	3.00	4.00	6.50	2.25	6.75	7.25	4.50	6.25	6.50	6.50	7.50	0.75	3.00	-0.207031	0.032715	0.965332	2.940000	13.370000	-2.660000	752.00	0.09	-0.10	0.00	0.00	0.25	0.25	0.00	0.00	0.25	0.25	0.25	0.00	0.00	0.00	0.00	0.00	0.00	0.00	-0.321777	0.228516	1.237305	46.200001	-83.370003	77.489998	16.00	0.00	0.00
2.00	1.25	2.00	1.50	3.00	3.25	6.00	2.00	6.75	7.50	5.00	7.00	7.00	6.50	8.00	1.00	3.00	-0.203613	0.039062	0.962402	3.570000	14.070000	-2.590000	764.00	0.10	-0.10	0.25	0.00	0.00	0.25	0.00	0.00	0.25	0.00	0.50	0.00	0.00	0.00	0.00	0.00	0.00	0.00	-0.363770	0.181152	1.237305	45.639999	-77.070000	86.029999	16.00	0.00	0.00
2.01	1.00	1.75	1.25	3.00	3.25	6.25	2.00	6.75	7.50	5.00	7.00	7.50	6.75	8.00	1.00	3.00	-0.207031	0.032227	0.947266	3.990000	14.980000	-2.590000	766.00	0.11	-0.10	0.00	0.00	0.25	0.25	0.00	0.00	0.25	0.00	0.25	0.25	0.00	0.00	0.00	0.25	0.00	0.00	-0.397461	0.123535	1.190430	36.889999	-70.489998	94.500000	17.00	0.00	0.00
2.02	0.75	2.00	1.00	2.75	3.00	6.00	2.00	6.75	7.50	5.50	7.75	7.75	7.00	8.50	1.00	3.25	-0.208008	0.038086	0.956543	4.550000	15.680000	-2.450000	778.00	0.12	-0.10	0.25	0.00	0.00	0.25	0.00	0.00	0.25	0.25	0.25	0.25	0.00	0.00	0.00	0.00	0.00	0.00	-0.437012	0.112793	1.132324	24.850000	-62.230000	102.970001	19.00	0.00	0.00
2.03	1.00	1.50	1.00	2.50	2.75	5.75	2.00	6.50	7.50	6.00	8.00	8.00	7.00	8.75	1.00	3.25	-0.199219	0.004395	0.958984	5.250000	16.590000	-1.610000	777.00	0.12	-0.10	0.00	0.00	0.25	0.75	0.00	0.00	0.25	0.00	0.25	0.25	0.00	0.00	0.00	0.00	0.00	0.00	-0.481934	0.113281	1.060059	15.330000	-51.799999	110.809998	21.00	0.00	0.00
2.04	0.75	1.25	0.75	2.50	2.25	5.75	1.75	6.50	7.75	6.00	8.00	8.25	7.50	8.75	1.25	3.75	-0.208008	0.043945	0.954102	6.090000	17.990000	-2.310000	776.00	0.13	-0.11	0.25	0.00	0.25	0.50	0.00	0.00	0.25	0.25	0.25	0.25	0.00	0.00	0.00	0.00	0.00	0.00	-0.575195	0.106445	1.004395	7.560000	-26.320000	124.320000	24.00	0.00	0.00
2.05	0.75	1.50	1.00	2.25	2.00	5.25	1.75	6.50	7.75	6.00	8.25	8.50	7.50	9.00	1.00	3.50	-0.222168	0.044434	0.976074	6.860000	19.740000	-2.800000	773.00	0.13	-0.10	0.00	0.00	0.00	0.00	0.00	0.00	0.25	0.25	0.00	0.25	0.00	0.00	0.00	0.00	0.00	0.00	-0.575195	0.106445	1.004395	7.560000	-26.320000	124.320000	10.00	0.00	0.00
2.06	0.50	1.25	0.75	2.25	1.75	5.25	1.50	6.50	8.00	6.50	8.50	8.75	7.75	9.50	1.00	3.75	-0.202148	0.048340	0.950195	7.630000	21.000000	-2.940000	781.00	0.14	-0.11	0.25	0.00	0.25	0.00	0.00	0.00	0.25	0.25	0.25	0.00	0.00	0.00	0.00	0.00	0.00	0.00	-0.622070	0.080566	1.028320	6.300000	-15.610000	129.919998	16.00	0.00	0.00
2.07	0.75	1.25	0.75	1.75	1.50	5.00	1.50	6.25	7.75	6.50	8.75	9.00	8.00	9.75	1.25	4.00	-0.211426	0.046387	0.956055	8.610000	22.330000	-2.940000	779.00	0.15	-0.11	0.00	0.00	0.00	0.25	0.00	0.00	0.25	0.25	0.50	0.00	0.00	0.00	0.00	0.00	0.00	0.00	-0.739258	-0.021484	1.134766	-1.470000	-9.730000	138.880005	17.00	0.00	0.00
2.08	0.50	1.00	0.75	1.75	1.25	4.75	1.50	6.25	8.00	6.75	9.25	9.50	8.00	10.00	1.25	4.00	-0.173828	0.120605	0.933105	9.590000	24.010000	-2.520000	787.00	0.16	-0.10	0.25	0.00	0.00	0.00	0.00	0.00	0.25	0.25	0.25	0.25	0.00	0.00	0.00	0.00	0.00	0.00	-0.797852	-0.050293	1.187012	-7.420000	-15.190001	141.680008	16.00	0.00	0.00
2.09	0.50	0.75	0.75	2.25	0.75	4.25	1.25	6.25	8.00	7.25	9.25	9.50	8.25	10.50	1.25	4.25	-0.154297	-0.135742	0.983398	9.940000	25.480000	-1.820000	788.00	0.16	-0.11	0.25	0.00	0.00	0.50	0.00	0.00	0.25	0.25	0.25	0.25	0.00	0.00	0.00	0.00	0.00	0.00	-0.863770	-0.054199	1.184082	-8.540000	-29.049999	142.589996	22.00	0.00	0.00
2.10	0.25	0.75	1.00	2.00	0.75	4.00	1.25	6.00	8.00	7.25	9.75	9.75	8.50	11.00	1.50	4.50	-0.208496	0.040039	0.976074	11.130000	27.510000	-1.610000	797.00	0.17	-0.10	0.00	0.00	0.25	0.25	0.00	0.00	0.25	0.50	0.50	0.00	0.00	0.00	0.00	0.00	0.00	0.00	-0.924805	-0.076660	1.096191	-8.540000	-45.990002	139.930008	23.00	0.00	0.00
2.11	0.25	0.75	0.75	1.75	0.75	3.75	1.00	6.00	8.00	7.50	9.75	10.00	8.75	11.50	1.50	4.75	-0.226074	0.045410	0.959961	13.930000	31.430000	-1.470000	798.00	0.18	-0.10	0.25	0.00	0.25	0.00	0.00	0.00	0.25	0.25	0.25	0.00	0.00	0.00	0.00	0.00	0.00	0.00	-0.996582	-0.080078	0.955078	-10.500000	-61.599998	133.419998	16.00	0.00	0.00
2.12	0.50	0.50	0.75	1.25	1.00	3.25	1.00	5.75	8.00	7.25	10.00	10.50	9.00	11.75	1.75	5.25	-0.218262	0.051758	0.960938	18.200001	38.009998	-0.980000	802.00	0.18	-0.10	0.00	0.00	0.00	0.25	0.00	0.00	0.25	0.25	0.25	0.25	0.00	0.00	0.00	0.00	0.00	0.00	-1.058594	-0.097168	0.729004	-14.350000	-73.220001	121.520004	16.00	0.00	0.00
2.13	0.50	0.25	0.75	1.75	0.25	3.00	0.75	5.75	8.00	7.50	10.25	10.75	9.25	12.00	1.75	5.25	-0.239258	0.062012	0.958984	28.490000	50.259998	0.070000	802.00	0.19	-0.11	0.00	0.00	0.25	0.25	0.00	0.00	0.25	0.25	0.50	0.25	0.00	0.00	0.00	0.00	0.00	0.00	-1.196289	-0.070312	0.504395	-14.490000	-76.720001	102.410004	22.00	0.00	0.00
2.14	0.00	0.00	0.75	1.50	0.25	2.75	0.75	5.50	8.00	7.25	10.25	11.25	9.25	12.75	2.00	5.50	-0.259277	0.070312	0.969238	29.750000	51.380001	-0.140000	799.00	0.20	-0.10	0.00	0.00	0.25	0.25	0.00	0.00	0.25	0.25	0.25	0.25	0.00	0.00	0.00	0.00	0.00	0.00	-1.313965	-0.071777	0.310059	-3.080000	-71.959999	75.320000	19.00	0.00	0.00
2.15	0.00	0.25	0.75	1.00	0.50	2.75	0.50	5.50	8.00	7.50	10.50	11.50	9.75	13.25	2.00	5.75	-0.253906	0.073730	0.990234	33.740002	55.580002	0.140000	812.00	0.20	-0.11	0.00	0.00	0.00	0.25	0.00	0.00	0.25	0.25	0.25	0.00	0.00	0.00	0.00	0.00	0.00	0.00	-1.378418	-0.096191	0.182617	22.330000	-61.529999	43.959999	14.00	0.00	0.00
2.16	0.00	0.25	0.25	1.25	0.00	2.25	0.25	5.25	8.00	7.25	10.75	11.75	10.00	13.75	2.50	5.75	-0.269531	0.062988	1.009277	40.880001	64.470001	-0.070000	805.00	0.21	-0.11	0.00	0.00	0.00	0.50	0.00	0.00	0.25	0.25	0.00	0.00	0.00	0.00	0.00	0.00	0.00	0.00	-1.414551	-0.149902	0.155273	53.549999	-48.580002	13.160000	13.00	0.00	0.00
2.17	0.00	0.25	0.50	1.25	0.00	2.00	0.25	5.00	7.75	6.75	10.75	12.25	10.25	14.00	2.50	6.00	-0.309570	0.051758	0.936523	47.040001	74.269997	-0.280000	804.00	0.21	-0.11	0.00	0.00	0.00	0.75	0.00	0.00	0.25	0.25	0.00	0.25	0.00	0.00	0.00	0.00	0.00	0.00	-1.418457	-0.206055	0.139160	74.900002	-34.160000	-13.370000	18.00	0.00	0.00
2.18	0.00	0.00	0.25	0.75	0.25	1.75	0.00	4.50	7.75	6.75	10.75	12.25	10.50	14.50	2.50	6.25	-0.292969	0.066895	0.931152	54.740002	85.400002	-0.210000	790.00	0.22	-0.11	0.25	0.00	0.00	0.50	0.00	0.00	0.25	0.25	0.25	0.00	0.00	0.00	0.25	0.00	0.00	0.00	-1.381348	-0.204590	0.169434	82.040001	-17.570000	-32.340000	21.00	0.00	0.00
2.19	0.00	0.00	0.25	1.00	0.00	1.25	0.00	4.25	7.75	6.75	10.75	12.25	10.75	14.75	2.50	6.50	-0.321777	0.094727	0.979980	58.939999	97.790001	0.910000	786.00	0.23	-0.11	0.50	0.50	0.25	0.50	0.00	0.00	0.25	0.50	0.00	0.00	0.00	0.00	0.00	0.00	0.00	0.00	-2.025391	-1.492676	0.755859	-77.980003	36.680000	-34.369999	29.00	0.00	0.00
2.20	0.00	0.00	0.25	0.75	0.00	1.50	0.00	3.75	7.75	6.50	10.75	12.50	10.50	15.00	3.00	6.25	-0.353027	0.099121	0.978027	61.250000	108.639999	1.820000	782.00	0.23	-0.10	0.75	1.50	0.50	1.75	0.00	0.00	0.25	0.25	0.25	0.00	0.00	0.00	0.00	0.00	0.00	0.00	-0.076172	0.409180	-0.021973	-173.669998	116.620003	-44.099998	57.00	-0.26	-0.09
2.21	0.00	0.00	0.25	1.25	0.00	1.00	0.00	3.25	7.50	6.00	10.75	12.75	11.00	15.50	3.00	6.50	-0.361328	0.120605	0.971680	62.510002	122.150002	2.310000	779.00	0.23	-0.10	1.25	2.50	0.50	2.75	0.00	0.00	0.25	0.50	0.00	0.00	0.00	0.00	0.00	0.00	0.00	0.00	0.311035	0.521973	1.948242	-132.160004	105.699997	-38.849998	83.00	-0.30	-0.13
2.22	0.00	0.00	0.25	1.00	0.00	1.25	0.00	2.75	7.50	5.50	10.75	12.50	10.75	15.75	3.50	6.50	-0.388672	0.188965	0.983398	64.610001	138.809998	0.630000	769.00	0.24	-0.10	2.25	4.00	0.75	3.50	0.00	0.00	0.25	0.25	0.00	0.00	0.00	0.00	0.00	0.00	0.00	0.00	0.258301	0.562988	2.129883	-114.379997	60.549999	-17.639999	114.00	-0.33	-0.11
2.23	0.00	0.00	0.00	0.25	0.00	0.50	0.00	2.75	7.00	5.25	10.25	12.50	10.50	15.75	3.50	6.75	-0.407227	0.154785	1.024414	64.260002	154.910004	-0.700000	734.00	0.25	-0.10	3.25	5.00	1.00	3.75	0.00	0.00	0.25	0.25	0.00	0.00	0.00	0.00	0.25	0.00	0.00	0.00	-0.005371	0.267090	0.486328	-88.269997	39.549999	-0.420000	142.00	-0.33	-0.10
2.24	0.00	0.00	0.00	0.75	0.00	0.50	0.00	2.25	6.75	4.75	10.00	12.25	10.50	15.75	4.00	6.75	-0.510742	0.097656	1.080078	66.849998	172.970001	-1.470000	724.00	0.25	-0.10	4.00	5.75	1.50	4.50	0.00	0.00	0.25	0.50	0.00	0.00	0.00	0.00	0.50	0.00	0.00	0.00	-0.213867	-0.098633	0.517578	-67.760002	86.379997	5.880000	176.00	-0.32	-0.10
2.25	0.00	0.00	0.00	0.25	0.00	0.25	0.00	2.00	6.00	3.75	9.75	12.00	10.00	16.00	4.25	6.75	-0.466309	0.166504	1.076660	68.949997	191.869995	0.980000	687.00	0.26	-0.10	5.50	6.50	1.75	4.75	0.00	0.75	0.25	0.25	0.00	0.00	0.00	0.00	0.50	0.00	0.00	0.00	-0.240234	-0.112793	1.449707	-59.709999	144.130005	5.880000	208.00	-0.33	-0.09
2.26	0.00	0.00	0.25	0.50	0.00	0.25	0.00	1.50	5.75	3.25	9.50	11.75	9.75	16.00	5.25	7.00	-0.468262	0.152832	1.024902	75.809998	201.949997	2.520000	681.00	0.26	-0.10	7.00	8.00	2.25	5.50	0.25	0.75	0.25	0.50	0.00	0.00	0.00	0.00	0.50	0.00	0.00	0.00	-0.370605	-0.224609	2.270020	-46.060001	136.850006	-3.080000	258.00	-0.33	-0.08
2.27	0.00	0.00	0.00	0.75	0.00	0.00	0.00	1.50	5.25	3.00	9.00	11.25	9.25	16.50	5.25	7.25	-0.527344	0.180176	1.062012	84.070000	210.910004	3.850000	660.00	0.27	-0.10	7.75	8.75	2.75	6.00	0.50	1.25	0.25	0.75	0.00	0.00	0.00	0.00	0.50	0.00	0.00	0.00	-0.231445	0.258789	1.467773	-24.920000	92.190002	-23.730000	296.00	-0.32	-0.09
2.28	0.00	0.00	0.25	0.00	0.00	0.00	0.00	1.50	4.75	2.25	8.50	10.75	8.50	16.00	5.75	7.50	-0.543945	0.240234	1.143066	91.419998	221.339996	4.830000	625.00	0.28	-0.10	8.00	9.00	2.75	6.00	0.75	1.75	0.50	0.75	0.00	0.00	0.00	0.00	0.50	0.00	0.00	0.00	-0.259277	0.355957	1.295410	-22.540001	85.050003	-11.340000	313.00	-0.31	-0.08
2.29	0.00	0.00	0.00	0.00	0.00	0.00	0.00	1.25	4.25	2.25	7.75	10.00	7.75	15.75	6.00	7.50	-0.565430	0.279785	1.116211	95.269997	228.199997	4.830000	590.00	0.28	-0.10	8.00	8.75	3.00	6.50	1.00	2.50	0.50	0.75	0.25	0.00	0.00	0.00	0.50	0.25	0.00	0.00	-0.233887	0.166992	1.213867	-39.130001	63.139999	0.140000	335.00	-0.30	-0.08
2.30	0.00	0.00	0.25	0.25	0.00	0.00	0.00	1.25	3.00	2.25	7.00	9.25	7.00	15.25	6.00	7.75	-0.736816	0.194824	1.135254	95.830002	238.419998	2.450000	554.00	0.28	-0.10	7.75	9.00	3.00	6.50	1.00	2.50	0.50	1.00	0.00	0.00	0.00	0.00	0.50	0.00	0.00	0.00	-0.189453	0.038574	1.135254	-48.580002	49.000000	0.910000	333.00	-0.30	-0.09
2.31	0.00	0.00	0.00	0.00	0.00	0.00	0.00	1.00	2.75	2.00	5.75	8.00	6.25	14.75	6.25	8.00	-0.639160	-0.345215	0.558594	96.879997	250.600006	3.710000	506.00	0.29	-0.10	7.75	8.75	3.00	6.50	1.00	2.50	0.50	1.00	0.00	0.00	0.00	0.00	0.50	0.25	0.00	0.00	-0.131836	0.078125	0.995117	-46.759998	44.380001	-1.190000	333.00	-0.30	-0.09
2.32	0.00	0.00	0.25	0.00	0.00	0.00	0.00	1.00	2.50	1.75	4.75	7.50	5.50	13.75	6.25	8.00	-0.739746	0.209961	1.183105	97.370003	264.670013	7.980000	472.00	0.29	-0.10	7.50	8.75	3.00	6.25	1.00	2.25	0.50	1.00	0.50	0.25	0.00	0.00	0.50	0.25	0.00	0.00	-0.186035	0.114746	1.096680	-57.260002	49.070000	0.490000	334.00	-0.28	-0.08
2.33	0.00	0.00	0.25	0.00	0.00	0.25	0.00	1.00	2.25	1.75	3.75	6.75	5.25	12.75	6.00	8.00	-0.805176	0.349121	1.211914	91.840004	280.279999	10.360000	440.00	0.29	-0.10	7.75	8.75	3.00	6.25	1.25	2.25	0.50	1.25	0.25	0.50	0.00	0.00	0.25	0.00	0.00	0.00	-0.123047	0.051758	1.015625	-70.629997	48.790001	-0.140000	338.00	-0.29	-0.08
2.34	0.00	0.00	0.00	0.00	0.00	0.00	0.00	0.75	2.00	1.25	3.00	5.50	4.50	11.25	6.00	7.50	-0.905273	0.583008	1.446777	109.620003	307.579987	14.700000	379.00	0.30	-0.10	7.75	9.00	3.00	6.25	1.50	2.00	0.75	1.25	0.25	0.50	0.00	0.00	0.50	0.25	0.00	0.00	-0.166016	0.095215	1.100098	-74.410004	43.959999	-0.910000	349.00	-0.28	-0.08
2.35	0.00	0.00	0.25	0.00	0.00	0.00	0.00	0.50	2.00	1.50	2.50	5.00	3.75	10.25	5.50	7.25	-0.897461	0.534668	1.428711	125.580002	320.250000	9.520000	348.00	0.30	-0.09	8.25	9.00	3.25	6.25	1.50	2.25	0.75	1.00	0.75	0.75	0.00	0.00	0.25	0.25	0.00	0.00	-0.240234	-0.041504	0.936035	-47.180000	10.850000	-0.770000	362.00	-0.27	-0.06
2.36	0.00	0.00	0.25	0.00	0.00	0.00	0.00	0.50	1.75	1.25	1.75	4.25	3.00	9.00	5.25	6.50	-0.774414	0.356445	1.508789	131.389999	326.059998	-5.390000	303.00	0.31	-0.08	8.25	9.25	3.00	6.25	1.75	2.00	0.75	1.00	1.00	0.50	0.00	0.00	0.50	0.25	0.00	0.00	-0.135742	0.055664	1.003418	-31.920000	-3.290000	-1.330000	365.00	-0.27	-0.06
2.37	0.00	0.00	0.25	0.00	0.00	0.00	0.00	0.25	1.25	1.00	1.50	3.00	2.25	7.75	4.50	6.00	-0.921875	0.273438	1.749512	92.470001	316.119995	-27.650000	246.00	0.32	-0.08	8.50	9.50	3.75	6.50	1.75	2.00	1.00	1.00	1.00	0.50	0.00	0.00	0.50	0.50	0.00	0.00	-0.124023	0.048340	0.961426	-27.930000	-5.180000	-0.700000	387.00	-0.26	-0.06
2.38	0.00	0.00	0.25	0.00	0.00	0.00	0.00	0.00	1.00	1.25	1.50	2.75	2.00	7.00	4.00	5.25	-0.713867	0.717285	1.218750	70.279999	316.470001	-39.130001	221.00	0.32	-0.07	8.75	9.50	3.75	6.75	2.00	2.00	1.00	0.75	1.25	1.00	0.00	0.00	0.25	0.50	0.00	0.00	-0.176758	0.075195	0.982910	-22.120001	-5.810000	-2.100000	397.00	-0.26	-0.05
2.39	0.00	0.00	0.25	0.00	0.00	0.00	0.00	0.00	1.25	1.00	1.25	2.00	1.25	6.00	3.25	4.25	-0.604980	0.960449	1.163086	85.889999	320.390015	-53.549999	183.00	0.32	-0.05	9.25	10.00	4.00	7.00	2.25	2.00	1.00	1.00	1.75	1.00	0.00	0.00	0.50	0.50	0.00	0.00	-0.121094	0.069336	0.948730	-17.639999	-5.880000	-1.960000	428.00	-0.25	-0.04
2.40	0.00	0.00	0.25	0.00	0.00	0.00	0.00	0.00	1.00	1.00	1.25	1.25	0.75	5.00	2.50	3.25	-0.609375	0.840332	1.096191	132.789993	315.070007	-69.300003	146.00	0.32	-0.03	9.50	10.25	4.50	7.00	2.50	2.25	1.00	0.75	1.75	1.25	0.00	0.00	0.25	0.50	0.00	0.00	-0.186035	-0.001953	0.970215	-15.190001	-5.600000	-1.120000	440.00	-0.25	-0.04
2.41	0.00	0.00	0.00	0.00	0.00	0.00	0.00	0.00	0.25	0.75	1.00	1.25	1.00	3.50	1.25	2.00	-0.510254	0.671875	1.060059	165.830002	302.329987	-87.919998	97.00	0.32	-0.07	10.00	10.50	4.75	7.50	2.50	2.00	1.25	1.00	1.75	1.25	0.00	0.00	0.50	0.50	0.00	0.00	-0.219727	-0.026367	0.999512	-13.440001	-6.160000	-0.490000	463.00	-0.25	-0.04
2.42	0.00	0.00	0.50	0.00	0.25	0.00	0.00	0.00	1.00	0.75	0.75	1.25	0.25	2.50	0.50	1.00	-0.460449	0.474121	1.043945	169.750000	271.529999	-109.340004	84.00	0.25	0.01	10.50	11.00	4.75	7.75	2.75	2.50	1.25	1.00	2.00	1.50	0.00	0.00	0.50	0.50	0.00	0.00	-0.164062	0.013672	0.958984	-11.410000	-6.230000	0.280000	490.00	-0.24	-0.04
2.43	0.00	0.00	0.50	0.00	0.00	0.00	0.00	0.00	0.50	0.50	0.50	0.50	0.25	1.25	0.25	0.75	-0.196289	0.204590	1.018555	158.410004	230.020004	-133.490005	47.00	0.00	0.00	11.00	11.50	5.50	7.75	3.00	2.50	1.50	1.00	2.25	1.50	0.25	0.00	0.50	0.75	0.00	0.00	-0.161133	0.026855	0.973145	-8.890000	-5.600000	1.260000	523.00	-0.23	-0.03
2.44	0.00	0.00	0.75	0.00	0.25	0.00	0.00	0.00	0.50	0.50	0.50	0.25	0.25	1.50	0.25	0.50	0.123535	0.157715	1.106934	99.959999	181.930008	-169.330002	51.00	0.19	0.04	11.50	11.75	5.50	8.25	3.25	2.75	1.50	1.00	2.50	1.50	0.25	0.00	0.50	1.00	0.00	0.00	-0.158203	0.033691	0.978516	-7.210000	-5.810000	1.470000	546.00	-0.23	-0.03
2.45	0.00	0.00	0.75	0.25	0.25	0.00	0.00	0.00	0.50	0.50	0.50	0.50	0.25	1.00	0.00	0.50	0.045898	0.683105	3.005859	49.840000	39.549999	-162.399994	50.00	0.00	0.00	11.75	12.25	5.75	8.25	3.50	3.00	1.50	1.00	2.75	1.75	0.00	0.00	0.50	0.75	0.00	0.00	-0.160156	0.041992	0.977539	-6.020000	-5.670000	1.750000	563.00	-0.23	-0.03
2.46	0.25	0.25	0.50	0.00	0.00	0.00	0.00	0.00	0.75	0.50	0.25	0.25	0.25	1.00	0.00	0.50	0.238281	0.081055	1.810547	22.820000	-61.599998	-158.759995	44.00	0.00	0.00	12.25	12.50	6.00	8.50	4.00	3.50	1.75	1.25	2.50	1.75	0.00	0.00	0.75	1.25	0.00	0.00	-0.160645	0.039551	0.977051	-5.320000	-5.390000	1.820000	598.00	-0.23	-0.03
2.47	0.00	0.00	0.75	0.00	0.00	0.00	0.00	0.00	0.50	0.50	0.50	0.25	0.25	0.75	0.00	0.25	0.154785	-0.076172	1.189941	-19.530001	-119.489998	-169.259995	38.00	0.00	0.00	12.50	12.50	6.50	8.50	4.25	3.75	1.75	1.00	3.00	2.00	0.25	0.00	0.50	0.75	0.00	0.00	-0.160645	0.041504	0.972168	-5.250000	-5.740000	1.540000	613.00	-0.22	-0.03
2.48	0.00	0.00	0.25	0.00	0.00	0.00	0.00	0.00	0.75	0.50	0.50	0.00	0.00	1.00	0.00	0.25	-0.055176	0.002441	0.918945	-63.770000	-147.210007	-179.690002	33.00	0.00	0.00	12.75	13.00	6.75	8.75	4.75	3.50	1.75	1.25	3.00	2.00	0.25	0.00	0.50	1.00	0.00	0.00	-0.157715	0.044434	0.954102	-5.670000	-5.950000	1.120000	634.00	-0.22	-0.03
2.49	0.00	0.00	0.75	0.00	0.25	0.00	0.00	0.00	1.00	0.50	0.50	0.00	0.00	1.00	0.00	0.00	-0.084961	0.160156	0.852051	-95.480003	-157.779999	-187.250000	43.00	0.00	0.00	12.75	13.00	7.00	9.00	5.00	3.75	2.00	1.00	3.75	1.75	0.25	0.00	0.50	1.00	0.00	0.00	-0.143555	0.003906	1.010254	-5.950000	-5.670000	1.610000	652.00	-0.22	-0.02
2.50	0.00	0.00	0.50	0.00	0.25	0.00	0.00	0.00	0.75	0.50	0.00	0.00	0.00	1.00	0.00	0.25	-0.049316	0.274902	0.840820	-113.330002	-171.220001	-187.250000	33.00	0.00	0.00	12.75	13.25	7.00	9.00	5.25	3.75	2.25	1.25	3.50	2.25	0.25	0.00	0.75	1.00	0.00	0.00	-0.129883	0.093262	0.972656	-5.880000	-5.390000	0.980000	669.00	-0.21	-0.02
2.51	0.00	0.00	0.50	0.00	0.25	0.00	0.00	0.00	0.75	0.50	0.00	0.00	0.00	0.75	0.00	0.00	-0.012695	0.395996	0.851074	-121.590004	-188.300003	-178.639999	30.00	0.00	0.00	12.75	13.25	7.25	9.00	5.50	4.00	2.25	1.25	3.75	2.25	0.25	0.00	0.75	1.25	0.00	0.00	-0.155273	0.031250	0.970703	-5.810000	-5.040000	1.050000	683.00	-0.21	-0.02
2.52	0.00	0.25	0.75	0.00	0.25	0.00	0.00	0.00	0.50	0.50	0.25	0.00	0.00	1.25	0.00	0.00	0.039062	0.490723	0.826660	-129.639999	-204.960007	-161.279999	38.00	0.00	0.00	12.50	13.00	7.25	9.00	5.50	4.00	2.25	1.25	3.50	2.25	0.25	0.00	0.75	1.00	0.00	0.00	-0.160156	0.025391	0.979004	-5.600000	-4.620000	1.470000	672.00	-0.21	-0.02
2.53	0.00	0.00	0.75	0.00	0.25	0.00	0.00	0.00	0.75	0.50	0.25	0.00	0.00	1.00	0.00	0.00	0.069824	0.545410	0.738770	-136.009995	-219.169998	-138.110001	37.00	0.00	0.00	12.75	13.00	7.25	9.00	5.75	4.25	2.50	1.50	4.00	2.50	0.25	0.00	1.00	1.25	0.00	0.00	-0.194336	0.012695	0.947266	-4.900000	-4.340000	2.030000	702.00	-0.20	-0.02
2.54	0.00	0.00	1.00	0.00	0.25	0.00	0.00	0.00	0.75	0.50	0.25	0.00	0.00	0.75	0.00	0.00	0.084961	0.591797	0.692871	-134.259995	-230.930008	-114.590004	38.00	0.00	0.00	12.25	12.75	7.50	8.75	5.75	4.25	2.50	1.25	4.25	2.25	0.25	0.00	0.75	1.25	0.00	0.00	-0.158691	0.027832	0.978027	-4.830000	-4.060000	1.750000	689.00	-0.20	-0.02
2.55	0.00	0.25	0.75	0.25	0.25	0.00	0.00	0.00	0.75	0.25	0.25	0.00	0.00	0.75	0.00	0.25	0.079590	0.665527	0.653320	-100.870003	-248.850006	-72.379997	39.00	0.00	0.00	12.00	12.25	7.25	8.75	5.75	4.25	2.50	1.25	4.25	2.50	0.50	0.00	0.75	1.25	0.00	0.25	-0.155273	0.026367	0.973145	-4.970000	-3.710000	1.400000	685.00	-0.19	-0.02
2.56	0.00	0.25	0.75	0.00	0.25	0.00	0.00	0.00	1.00	0.25	0.00	0.00	0.00	0.75	0.00	0.00	0.069336	0.666504	0.682129	-75.040001	-256.829987	-53.619999	35.00	0.00	0.00	11.75	12.00	7.25	8.75	6.00	4.25	2.75	1.25	4.75	2.50	0.25	0.00	0.75	1.50	0.00	0.00	-0.167969	0.042480	0.987305	-5.040000	-3.920000	1.260000	692.00	-0.18	-0.01
2.57	0.00	0.25	1.00	0.00	0.25	0.00	0.00	0.00	0.75	0.25	0.00	0.00	0.00	0.75	0.00	0.00	0.040039	0.644043	0.749023	-47.040001	-263.899994	-35.910000	35.00	0.00	0.00	11.25	11.75	7.00	8.50	6.00	4.25	2.75	1.50	4.75	2.75	0.50	0.00	0.50	1.25	0.00	0.00	-0.150391	0.025391	0.975098	-5.110000	-3.570000	1.260000	683.00	-0.18	-0.01
2.58	0.00	0.00	0.50	0.25	0.25	0.00	0.00	0.00	0.50	0.25	0.00	0.00	0.00	0.50	0.00	0.00	-0.046875	0.619141	0.841309	-21.070000	-274.049988	-20.020000	24.00	0.00	0.00	10.50	11.25	7.00	8.50	6.00	4.00	3.00	1.00	5.00	2.75	0.50	0.00	1.00	1.50	0.00	0.00	-0.158203	0.023926	0.972656	-5.180000	-3.290000	1.400000	674.00	-0.17	-0.01
2.59	0.00	0.25	0.75	0.00	0.25	0.00	0.00	0.00	0.50	0.25	0.00	0.00	0.00	0.25	0.00	0.00	-0.154297	0.553223	0.901855	-0.280000	-285.110016	-7.420000	25.00	0.00	0.00	10.00	10.50	7.00	8.25	6.00	4.00	3.00	1.50	5.25	3.00	0.50	0.00	0.75	1.75	0.00	0.25	-0.213867	0.013184	0.997070	-5.250000	-3.220000	1.050000	674.00	-0.16	-0.01
2.60	0.00	0.00	0.75	0.25	0.00	0.00	0.00	0.00	0.50	0.25	0.00	0.00	0.00	0.75	0.00	0.00	-0.296875	0.502441	0.941895	15.960000	-293.089996	-0.140000	27.00	0.00	0.00	9.50	10.00	6.50	8.00	6.00	4.00	3.25	1.50	5.75	3.00	0.50	0.00	0.75	1.75	0.00	0.00	-0.146484	0.035156	0.970703	-5.320000	-3.080000	1.120000	665.00	-0.15	-0.00
2.61	0.00	0.00	0.50	0.00	0.25	0.00	0.00	0.00	0.50	0.25	0.00	0.00	0.00	0.75	0.00	0.00	-0.436035	0.448242	0.998047	31.639999	-296.519989	3.430000	24.00	0.00	0.00	8.75	9.25	6.50	7.75	6.00	4.00	3.25	1.75	5.75	3.25	0.50	0.00	1.00	1.75	0.00	0.00	-0.153809	0.021484	0.977051	-5.670000	-2.660000	1.190000	656.00	-0.14	-0.00
2.62	0.00	0.25	0.50	0.25	0.25	0.00	0.00	0.00	0.50	0.25	0.00	0.00	0.00	0.50	0.00	0.00	-0.567383	0.515625	1.095703	39.689999	-296.589996	7.770000	27.00	0.00	0.00	8.25	9.00	6.25	7.75	6.00	4.00	3.50	1.50	6.75	3.50	0.50	0.00	1.00	2.00	0.00	0.00	-0.177246	0.050781	0.992188	-6.020000	-2.590000	0.840000	664.00	-0.12	0.01
2.63	0.00	0.25	0.50	0.00	0.25	0.00	0.00	0.00	0.50	0.25	0.00	0.00	0.00	0.75	0.00	0.00	-0.668945	0.553711	1.207031	35.560001	-294.910004	15.750000	26.00	0.00	0.00	7.75	8.50	6.00	7.50	6.00	3.75	3.75	1.50	6.75	3.75	0.75	0.00	1.00	2.25	0.00	0.00	-0.149414	0.032715	0.970703	-6.370000	-2.100000	0.560000	657.00	-0.11	0.01
2.64	0.00	1.00	0.75	0.00	0.25	0.00	0.00	0.00	0.25	0.25	0.00	0.00	0.00	0.75	0.00	0.00	-0.767578	0.625977	1.280273	28.350000	-292.110016	27.299999	33.00	0.00	0.00	7.25	8.00	6.00	7.50	6.00	3.50	3.75	1.50	7.50	4.00	0.50	0.00	1.25	2.25	0.25	0.25	-0.214844	0.001953	0.949707	-6.300000	-1.470000	0.700000	660.00	-0.10	0.01
2.65	0.25	0.00	0.50	0.00	0.25	0.00	0.00	0.00	0.25	0.00	0.00	0.00	0.00	0.50	0.00	0.00	-0.959473	0.722656	1.347168	29.820000	-290.500000	40.459999	18.00	0.00	0.00	6.75	7.75	5.75	7.00	6.00	3.50	4.00	1.50	7.50	4.00	0.75	0.00	1.25	2.50	0.25	0.25	-0.214844	0.001953	0.949707	-6.300000	-1.470000	0.700000	653.00	-0.09	0.02
2.66	0.00	0.50	0.50	0.25	0.25	0.00	0.00	0.00	0.25	0.25	0.00	0.00	0.00	0.50	0.00	0.00	-1.109375	0.782715	1.299805	39.130001	-288.470001	54.389999	26.00	0.00	0.00	6.50	7.25	5.75	6.75	6.00	3.25	4.25	1.75	8.00	4.25	0.50	0.25	1.50	2.50	0.00	0.25	-0.162109	0.019531	0.978516	-6.230000	-1.610000	0.350000	657.00	-0.08	0.02
2.67	0.00	0.00	0.50	0.00	0.25	0.00	0.00	0.00	0.50	0.25	0.00	0.00	0.00	0.75	0.00	0.00	-1.130859	0.789062	1.183105	46.970001	-279.440002	72.309998	24.00	0.00	0.00	5.75	6.50	5.50	6.50	5.75	3.25	4.50	1.50	8.25	4.50	1.00	0.00	1.25	3.00	0.25	0.25	-0.173340	0.022461	1.004883	-6.580000	-2.240000	0.070000	647.00	-0.06	0.03
2.68	0.00	0.25	0.75	0.25	0.25	0.00	0.00	0.00	0.25	0.25	0.00	0.00	0.00	0.25	0.00	0.00	-1.130371	0.838379	1.127441	47.459999	-262.429993	94.779999	24.00	0.00	0.00	5.00	6.25	5.50	6.25	6.00	3.00	4.50	1.75	8.50	4.50	1.00	0.25	1.25	3.00	0.00	0.25	-0.165527	0.030762	1.066895	-6.650000	-2.310000	-0.000000	641.00	-0.05	0.03
2.69	0.00	0.25	0.50	0.00	0.25	0.00	0.00	0.00	0.50	0.00	0.00	0.00	0.00	0.75	0.00	0.00	-1.114258	0.886230	1.135742	46.270000	-241.290009	120.330002	24.00	0.00	0.00	5.25	5.75	5.00	5.75	6.00	3.25	4.75	1.75	8.75	5.00	1.00	0.50	1.75	3.25	0.25	0.25	-0.160156	0.015137	0.969727	-6.510000	-2.240000	-0.070000	655.00	-0.04	0.03
2.70	0.00	0.00	0.75	0.25	0.25	0.00	0.00	0.00	0.25	0.00	0.00	0.00	0.00	0.50	0.00	0.00	-1.103516	0.909180	1.175293	54.180000	-220.009995	146.649994	21.00	0.00	0.00	4.75	5.50	5.00	5.75	6.00	3.25	5.00	1.75	9.00	5.25	1.00	0.50	1.75	3.75	0.25	0.50	-0.166992	0.013184	0.974609	-6.230000	-2.100000	-0.280000	663.00	-0.03	0.03
2.71	0.00	0.00	0.50	0.00	0.25	0.00	0.00	0.00	0.50	0.25	0.00	0.00	0.00	0.50	0.00	0.00	-1.099609	0.860840	1.288086	70.699997	-201.110001	171.570007	22.00	0.00	0.00	4.50	5.50	4.75	5.75	6.00	3.00	5.00	1.75	9.25	5.75	1.00	0.25	1.75	3.75	0.25	0.50	-0.172363	0.021973	0.973633	-6.090000	-1.960000	-0.490000	661.00	-0.02	0.03
2.72	0.00	0.00	1.00	0.00	0.25	0.00	0.00	0.00	0.50	0.00	0.00	0.00	0.00	0.50	0.00	0.00	-1.077637	0.760254	1.404297	85.330002	-186.970001	192.289993	25.00	0.00	0.00	4.25	5.25	4.25	5.50	6.00	3.00	5.00	2.00	9.50	6.25	1.25	0.25	2.00	4.25	0.25	0.75	-0.160156	0.006836	1.001953	-6.020000	-1.610000	-0.700000	670.00	-0.01	0.03
2.73	0.00	0.00	0.75	0.00	0.25	0.00	0.00	0.00	0.50	0.00	0.00	0.00	0.00	0.25	0.00	0.00	-1.072266	0.655273	1.500000	90.580002	-178.289993	208.669998	20.00	0.00	0.00	3.75	4.50	4.00	5.25	6.00	3.00	5.25	1.75	9.75	6.25	1.50	0.50	2.00	4.25	0.50	0.75	-0.166992	-0.002441	0.975098	-5.880000	-1.330000	-1.120000	664.00	0.01	0.04
2.74	0.00	0.00	0.50	0.00	0.25	0.00	0.00	0.00	0.25	0.25	0.00	0.00	0.00	0.50	0.00	0.00	-1.086426	0.543945	1.471191	87.360001	-169.539993	220.080002	18.00	0.00	0.00	3.50	4.50	4.00	5.25	6.00	3.00	5.25	2.00	9.75	7.00	1.50	1.00	2.25	4.75	0.25	1.00	-0.178223	0.005859	0.996094	-5.460000	-0.840000	-1.540000	683.00	0.02	0.03
2.75	0.00	0.00	0.50	0.00	0.25	0.00	0.00	0.00	0.50	0.00	0.00	0.00	0.00	0.50	0.00	0.00	-1.191895	0.305664	1.431641	72.029999	-141.259995	227.009995	19.00	0.00	0.00	3.50	3.75	3.75	5.00	6.00	3.00	5.25	2.00	10.25	7.50	1.50	0.50	2.75	5.00	0.50	1.00	-0.149414	0.023438	0.986328	-4.620000	-0.560000	-1.330000	686.00	0.03	0.04
2.76	0.00	0.00	0.75	0.00	0.25	0.00	0.00	0.00	0.50	0.00	0.00	0.00	0.00	0.50	0.00	0.00	-1.268066	0.241699	1.554199	64.400002	-128.869995	224.419998	22.00	0.00	0.00	3.00	3.50	3.25	5.00	6.00	2.75	5.50	2.00	10.50	7.75	1.50	0.75	2.50	5.50	0.75	1.25	-0.173340	0.012207	0.968262	-3.850000	-0.210000	-1.260000	689.00	0.04	0.04
2.77	0.00	0.00	0.75	0.00	0.25	0.00	0.00	0.00	0.50	0.00	0.00	0.00	0.00	0.25	0.00	0.00	-1.321777	0.239746	1.769531	57.470001	-129.009995	219.660004	20.00	0.00	0.00	2.50	3.25	3.25	5.00	5.75	2.50	5.50	2.25	10.75	8.00	2.00	1.00	2.50	5.75	0.50	1.25	-0.138184	0.011230	0.958984	-3.290000	0.210000	-0.980000	693.00	0.05	0.04
2.78	0.00	0.00	0.50	0.00	0.25	0.00	0.00	0.00	0.50	0.25	0.00	0.00	0.00	0.50	0.00	0.00	-1.400879	0.245117	1.807617	52.570000	-144.199997	213.430008	22.00	0.00	0.00	2.50	2.75	2.75	4.25	5.75	2.50	5.50	2.25	11.00	8.00	2.00	1.00	2.75	6.00	0.75	1.50	-0.167480	0.000977	1.020508	-3.010000	0.980000	-0.840000	686.00	0.07	0.04
2.79	0.00	0.00	0.25	0.00	0.25	0.00	0.00	0.00	0.50	0.25	0.00	0.00	0.00	0.75	0.00	0.00	-1.468262	0.171387	1.541016	44.730000	-159.600006	203.770004	21.00	0.00	0.00	2.00	2.75	2.75	4.75	5.50	2.25	5.50	2.25	11.25	8.50	2.25	1.00	3.00	6.50	0.75	1.50	-0.242676	0.014160	0.975098	-2.730000	1.610000	-0.280000	698.00	0.08	0.04
2.80	0.00	0.25	0.25	0.00	0.25	0.00	0.00	0.00	0.75	0.00	0.00	0.00	0.00	0.50	0.00	0.00	-1.554199	0.122070	1.204590	29.889999	-164.220001	188.860001	22.00	0.00	0.00	2.00	2.50	2.25	4.00	5.25	2.25	5.50	2.25	11.50	8.50	2.50	1.25	3.25	7.00	1.00	1.75	-0.165039	0.016602	0.979980	-1.540000	2.450000	-0.700000	698.00	0.09	0.04
2.81	0.00	0.00	0.50	0.00	0.25	0.00	0.00	0.00	0.00	0.00	0.00	0.00	0.00	0.50	0.00	0.00	-1.626953	0.145508	0.860352	11.900000	-154.699997	167.720001	13.00	0.00	0.00	2.00	2.25	2.00	4.00	5.25	2.25	5.50	2.00	11.75	9.00	2.50	1.25	3.25	7.25	1.00	2.00	-0.109863	0.016113	0.989746	-1.260000	3.430000	-0.630000	701.00	0.10	0.04
2.82	0.00	0.00	0.50	0.00	0.00	0.00	0.00	0.00	0.25	0.00	0.00	0.00	0.00	0.50	0.00	0.00	-1.667480	0.232422	0.623535	3.990000	-135.869995	142.100006	13.00	0.00	0.00	1.50	1.75	1.75	3.75	5.00	2.25	5.75	2.25	12.00	9.00	2.75	1.50	3.25	7.25	1.00	2.00	-0.122559	-0.008789	1.002930	-1.120000	4.480000	-0.000000	700.00	0.11	0.04
2.83	0.00	0.00	0.50	0.00	0.25	0.00	0.00	0.00	0.25	0.00	0.00	0.00	0.00	0.25	0.00	0.00	-1.664551	0.286133	0.492676	11.970000	-114.449997	115.360001	14.00	0.00	0.00	1.50	1.25	1.75	3.50	4.50	1.75	5.75	2.25	12.00	9.25	3.00	1.50	3.50	8.00	1.25	2.50	-0.175293	0.021973	0.987305	-0.420000	5.390000	0.140000	700.00	0.12	0.05
2.84	0.00	0.00	0.25	0.25	0.00	0.00	0.00	0.00	0.25	0.25	0.00	0.00	0.00	0.50	0.00	0.00	-1.646484	0.291992	0.390625	29.960001	-93.800003	90.650002	16.00	0.00	0.00	1.50	1.50	1.25	3.25	4.25	1.75	5.75	2.25	12.50	9.50	3.25	1.75	3.50	8.50	1.00	2.50	-0.202637	-0.011719	1.024902	0.280000	6.090000	1.120000	708.00	0.13	0.05
2.85	0.00	0.00	0.75	0.00	0.25	0.00	0.00	0.00	0.75	0.00	0.00	0.00	0.00	1.00	0.00	0.00	-1.592773	0.169922	0.262207	53.480000	-72.800003	73.430000	29.00	0.00	0.00	1.25	1.00	1.00	3.50	3.50	1.75	5.50	2.25	12.75	9.75	3.75	2.00	3.75	8.75	1.25	2.50	-0.163086	0.057129	0.953613	1.820000	6.370000	1.260000	709.00	0.14	0.04
2.86	0.00	0.00	0.75	0.00	0.50	0.00	0.00	0.00	0.25	0.00	0.00	0.00	0.00	0.50	0.00	0.00	-1.703613	-0.050293	0.278809	77.070000	-49.139999	66.919998	21.00	0.00	0.00	1.00	1.25	1.00	3.00	3.00	1.75	5.50	2.50	12.50	9.75	3.75	2.00	4.00	9.25	1.25	2.75	-0.196777	0.042969	0.937500	11.480000	3.570000	2.240000	706.00	0.15	0.04
2.87	0.00	0.00	0.75	0.00	0.25	0.00	0.00	0.00	0.25	0.00	0.00	0.00	0.00	0.50	0.00	0.00	-1.799316	-0.197266	0.314453	68.040001	-25.549999	61.389999	19.00	0.00	0.00	0.75	1.00	0.50	3.25	2.50	1.50	5.50	2.50	12.75	10.00	4.25	2.25	4.25	9.50	1.50	3.25	-0.187500	0.018066	1.016113	9.590000	5.740000	2.660000	714.00	0.16	0.04
2.88	0.00	0.00	0.50	0.00	0.25	0.00	0.00	0.00	0.50	0.00	0.00	0.00	0.00	0.50	0.00	0.00	-1.847656	-0.243652	0.270020	35.840000	-4.410000	57.330002	19.00	0.00	0.00	0.75	0.50	0.50	3.00	1.75	1.50	5.50	2.50	12.75	10.25	5.25	2.50	4.25	10.00	1.25	3.50	-0.234863	0.025879	0.956543	7.840000	8.540000	2.520000	717.00	0.17	0.03
2.89	0.00	0.00	0.50	0.00	0.00	0.00	0.00	0.00	0.25	0.00	0.00	0.00	0.00	0.50	0.00	0.00	-1.873535	-0.242676	0.205078	7.700000	16.799999	57.049999	13.00	0.00	0.00	0.50	0.00	0.25	2.25	1.25	1.50	5.25	2.50	13.00	10.25	5.75	2.75	4.50	10.75	1.50	3.75	-0.186523	0.012695	0.993652	6.790000	12.390000	2.170000	713.00	0.19	0.03
2.90	0.00	0.00	0.75	0.00	0.25	0.00	0.00	0.00	0.50	0.00	0.00	0.00	0.00	0.50	0.00	0.00	-1.844238	-0.194824	0.188477	-6.160000	37.660000	57.119999	22.00	0.00	0.00	0.50	0.00	0.50	2.00	0.75	1.00	5.25	2.25	13.00	10.50	6.50	3.00	4.75	11.50	1.75	4.50	-0.171875	0.055664	0.987793	7.070000	17.639999	0.980000	727.00	0.21	0.03
2.91	0.00	0.00	0.50	0.00	0.25	0.00	0.00	0.00	0.50	0.00	0.00	0.00	0.00	0.50	0.00	0.00	-1.751465	-0.128906	0.215332	-8.050000	55.860001	52.849998	19.00	0.00	0.00	0.25	0.00	0.25	2.25	0.25	0.75	5.00	2.00	13.25	10.75	7.50	3.25	5.00	12.25	1.75	4.75	-0.201172	0.026367	0.977539	8.750000	24.080000	-1.540000	737.00	0.22	0.03
2.92	0.00	0.00	0.50	0.00	0.25	0.00	0.00	0.00	0.50	0.00	0.00	0.00	0.00	0.25	0.00	0.00	-1.598145	-0.085938	0.286621	-0.490000	70.279999	43.470001	17.00	0.00	0.00	0.25	0.00	0.25	2.50	0.00	0.50	4.75	2.00	13.50	11.00	7.75	3.50	5.00	12.75	1.75	5.00	-0.234375	0.057129	0.943848	12.250000	30.520000	-3.570000	747.00	0.22	0.03
2.93	0.00	0.00	0.50	0.00	0.25	0.00	0.00	0.00	0.50	0.00	0.00	0.00	0.00	0.25	0.00	0.00	-1.435547	-0.090820	0.370605	10.920000	81.620003	30.870001	17.00	0.00	0.00	0.50	0.00	0.00	2.00	0.00	0.75	4.25	2.00	13.25	10.75	8.25	4.00	5.25	13.50	1.75	5.50	-0.238770	0.019531	0.984375	19.600000	40.950001	-5.040000	753.00	0.22	0.02
2.94	0.25	0.75	0.75	0.50	0.25	0.00	0.00	0.00	0.25	0.25	0.00	0.00	0.00	0.25	0.00	0.00	-0.296387	-1.250488	-0.587891	20.580000	90.090004	23.940001	34.00	0.00	0.00	0.25	0.00	0.00	2.00	0.00	0.75	3.75	2.25	12.75	10.75	8.25	4.50	5.50	14.25	2.00	5.75	-0.254395	-0.004883	0.972656	32.270000	46.480000	-4.690000	758.00	0.23	0.01
2.95	1.00	1.75	0.75	0.50	0.25	0.00	0.00	0.00	0.25	0.00	0.00	0.00	0.00	0.25	0.00	0.00	0.636719	0.340820	2.008789	-112.209999	147.350006	13.860000	48.00	0.00	0.00	0.25	0.00	0.00	1.75	0.00	0.75	3.00	2.00	12.75	10.50	8.50	5.50	6.25	15.25	2.25	6.25	-0.194336	0.041016	1.013672	47.459999	53.760002	-3.360000	771.00	0.24	0.00
2.96	1.50	2.50	0.75	2.00	0.25	0.00	0.00	0.00	0.25	0.00	0.00	0.00	0.00	0.25	0.00	0.00	-0.338379	-0.525879	0.733887	-81.900002	79.940002	12.810000	77.00	-0.30	-0.06	0.00	0.25	0.00	1.75	0.00	0.75	2.50	2.00	12.00	10.25	8.75	6.00	6.50	15.75	2.25	6.50	-0.211914	0.005371	1.011230	56.840000	66.080002	-0.560000	766.00	0.24	-0.01
2.97	2.00	4.25	1.25	2.00	0.50	0.00	0.00	0.00	0.75	0.00	0.00	0.00	0.00	0.50	0.00	0.00	-0.140137	-0.357422	0.379883	-81.900002	79.940002	12.810000	115.00	-0.27	-0.04	0.00	0.00	0.00	2.00	0.00	0.75	2.00	2.25	12.00	10.00	8.50	6.00	7.00	16.50	2.50	6.75	-0.324219	0.011230	1.010254	65.449997	78.959999	-0.910000	772.00	0.24	-0.01
2.98	3.25	5.50	1.50	2.75	0.50	0.00	0.00	0.00	0.25	0.00	0.00	0.00	0.00	0.50	0.00	0.00	0.085938	0.053711	0.798828	-85.330002	171.710007	-18.270000	144.00	-0.32	-0.06	0.25	0.00	0.00	1.50	0.00	0.50	1.75	2.00	11.50	9.75	8.75	7.00	7.25	17.00	2.75	7.25	-0.337402	0.040527	1.038086	62.160000	104.860001	-0.910000	775.00	0.25	-0.02
2.99	6.00	7.50	2.00	3.75	0.50	0.00	0.00	0.00	0.25	0.00	0.00	0.00	0.00	0.25	0.00	0.00	-0.016113	0.131836	1.514648	-32.130001	191.729996	-12.460000	205.00	-0.34	-0.05	0.00	0.00	0.00	1.75	0.00	0.50	1.25	2.00	11.25	9.50	8.75	7.25	7.50	17.50	2.75	7.50	-0.296387	0.075195	0.963379	57.260002	118.930000	1.820000	772.00	0.25	-0.02
3.00	7.50	9.75	2.25	4.50	0.75	0.25	0.00	0.00	0.00	0.00	0.00	0.00	0.00	0.50	0.00	0.00	-0.754883	-0.328613	2.444336	-13.930000	192.639999	-11.830000	257.00	-0.35	-0.06	0.00	0.00	0.00	1.25	0.00	0.50	1.00	1.75	10.75	9.50	8.75	7.50	7.50	18.25	3.00	7.75	-0.310059	0.150391	1.059570	55.160000	126.699997	0.420000	765.00	0.26	-0.02
3.01	9.25	12.75	2.75	5.50	0.75	0.75	0.00	0.00	0.00	0.00	0.00	0.00	0.00	0.50	0.00	0.00	-0.638672	-0.008301	1.674805	-30.799999	175.559998	-29.540001	325.00	-0.35	-0.06	0.00	0.00	0.00	1.25	0.00	0.25	0.75	1.50	10.50	9.25	8.75	7.50	7.50	18.75	3.00	8.00	-0.327637	0.145508	0.960938	48.369999	133.490005	-3.990000	755.00	0.26	-0.02
3.02	11.00	15.00	3.00	7.00	1.25	1.75	0.00	0.50	0.25	0.00	0.00	0.00	0.00	0.25	0.00	0.00	-0.345215	0.199219	2.074707	-18.410000	152.460007	-33.670002	408.00	-0.34	-0.08	0.00	0.00	0.00	1.25	0.00	0.25	0.50	1.75	10.25	9.00	8.50	7.50	7.25	19.25	3.50	8.25	-0.330078	0.169434	0.914062	41.860001	137.339996	-7.630000	755.00	0.26	-0.03
3.03	12.50	15.00	3.00	7.75	1.50	2.50	0.00	0.50	0.50	0.00	0.00	0.00	0.25	0.25	0.00	0.00	-0.473633	0.694336	1.125000	-60.760002	75.529999	-24.780001	448.00	-0.33	-0.07	0.00	0.00	0.00	1.50	0.00	0.25	0.25	1.50	9.75	8.75	8.50	7.25	7.00	19.75	3.75	8.50	-0.406738	0.135254	1.132812	32.200001	135.869995	-11.550000	745.00	0.27	-0.03
3.04	13.00	15.75	3.75	8.00	1.50	2.75	0.00	0.75	0.00	0.00	0.00	0.00	0.25	0.75	0.00	0.00	-0.300293	0.269531	1.060059	-66.570000	54.320000	-3.360000	475.00	-0.33	-0.08	0.00	0.00	0.00	1.25	0.00	0.00	0.25	1.50	9.50	8.75	8.25	7.00	6.75	20.25	3.75	8.75	-0.383789	0.179688	1.060059	43.610001	167.089996	-20.230000	734.00	0.27	-0.02
3.05	12.25	15.00	3.50	7.75	1.50	2.75	0.00	1.00	0.50	0.00	0.00	0.00	0.25	0.25	0.00	0.00	-0.181152	-0.082520	1.303711	-56.349998	63.700001	3.290000	461.00	-0.32	-0.08	0.00	0.00	0.00	1.00	0.00	0.00	0.00	1.25	9.00	8.25	7.75	6.50	6.50	20.50	4.00	8.75	-0.417480	0.237793	1.037598	41.509998	178.850006	-20.370001	704.00	0.28	-0.02
3.06	12.25	15.00	3.25	8.25	1.50	3.25	0.00	1.00	0.25	0.00	0.00	0.00	0.50	0.50	0.00	0.00	-0.238770	0.017578	1.146973	-33.950001	45.849998	0.980000	471.00	-0.32	-0.09	0.00	0.00	0.00	1.00	0.00	0.00	0.00	1.50	8.50	7.75	7.50	6.00	6.25	21.00	4.00	9.00	-0.472168	0.180176	1.126465	35.700001	187.949997	-22.400000	692.00	0.28	-0.02
3.07	12.00	14.75	3.25	8.25	1.50	3.50	0.00	1.00	0.25	0.00	0.00	0.00	0.25	0.50	0.00	0.00	-0.204590	0.173828	0.975098	-15.330000	30.380001	3.010000	466.00	-0.32	-0.09	0.00	0.00	0.00	0.75	0.00	0.00	0.00	1.25	8.00	7.25	7.00	5.50	6.00	21.25	4.25	9.00	-0.545410	0.272949	1.036133	48.790001	214.550003	-25.900000	665.00	0.29	-0.02
3.08	10.75	14.25	3.00	8.50	1.50	3.75	0.00	1.25	0.25	0.00	0.00	0.00	0.25	0.25	0.00	0.00	-0.175293	0.155273	0.954102	-10.780000	28.980000	6.510000	453.00	-0.31	-0.10	0.00	0.00	0.00	1.00	0.00	0.00	0.00	1.00	7.50	6.25	6.00	5.00	5.75	20.75	4.25	9.00	-0.549316	0.274902	1.041504	62.020000	226.869995	-30.170000	625.00	0.29	-0.02
3.09	10.25	14.25	3.00	8.50	1.25	4.00	0.00	1.25	0.25	0.00	0.00	0.00	0.25	0.00	0.00	0.50	-0.176758	0.135254	0.943848	-12.320000	29.820000	7.210000	448.00	-0.31	-0.11	0.00	0.00	0.00	0.50	0.00	0.00	0.00	1.00	6.50	5.75	5.75	4.50	5.50	20.25	4.25	9.00	-0.618164	0.082031	1.193848	72.239998	255.639999	-37.450001	587.00	0.29	-0.02
3.10	10.25	14.25	2.50	8.75	1.50	4.00	0.00	1.50	0.25	0.25	0.25	0.00	0.25	0.25	0.00	0.25	-0.186523	0.126953	0.955078	-14.560000	28.559999	6.440000	458.00	-0.30	-0.11	0.00	0.00	0.00	0.50	0.00	0.00	0.00	1.00	5.75	5.50	5.00	4.25	5.25	19.25	4.00	8.75	-0.668945	0.269043	1.042969	67.340004	277.130005	-40.529999	549.00	0.29	-0.02
3.11	10.25	13.75	2.75	8.75	1.50	4.50	0.25	1.50	0.50	0.25	0.00	0.00	0.25	0.00	0.00	0.00	-0.162109	0.119629	0.902344	-18.410000	26.180000	5.180000	463.00	-0.30	-0.10	0.00	0.00	0.00	0.50	0.00	0.00	0.00	1.00	5.00	5.25	4.25	4.00	5.25	17.75	3.75	8.25	-0.800781	0.413086	1.156738	70.349998	302.610016	-42.770000	508.00	0.29	-0.03
3.12	10.00	15.00	2.50	8.75	1.50	5.00	0.00	1.75	0.75	0.25	0.25	0.00	0.50	0.00	0.00	0.25	-0.141113	0.092773	0.914551	-25.410000	26.320000	2.940000	484.00	-0.29	-0.11	0.00	0.00	0.00	0.25	0.00	0.00	0.00	1.00	4.00	4.25	4.00	3.25	4.75	15.75	3.25	7.75	-0.782227	0.394043	1.465332	88.690002	323.190002	-42.980000	442.00	0.30	-0.04
3.13	10.25	15.00	3.25	8.75	1.50	5.75	0.25	2.00	0.75	0.25	0.25	0.25	0.50	0.50	0.00	0.00	-0.206055	0.080078	0.991211	-36.540001	24.920000	0.700000	516.00	-0.28	-0.11	0.00	0.00	0.00	0.25	0.00	0.00	0.00	0.75	3.25	4.00	3.25	2.75	3.75	13.75	2.75	7.00	-0.907715	0.364746	1.931152	112.419998	324.170013	-41.509998	378.00	0.30	-0.03
3.14	10.25	16.00	3.00	9.25	1.75	6.25	0.25	2.25	0.75	0.25	0.25	0.25	0.75	0.25	0.00	0.25	-0.160156	0.096680	0.924316	-47.459999	22.049999	-1.470000	541.00	-0.27	-0.12	0.00	0.00	0.00	0.00	0.00	0.00	0.00	0.75	2.75	3.50	2.50	2.25	3.25	11.50	2.50	6.25	-0.864258	0.340332	1.773438	143.220001	322.910004	-39.970001	320.00	0.30	-0.03
3.15	10.50	15.50	3.00	9.50	1.75	7.00	0.25	2.50	0.50	0.25	0.50	0.25	0.50	0.25	0.00	0.25	-0.190430	0.067871	1.028809	-54.670002	20.090000	-2.800000	551.00	-0.27	-0.12	0.00	0.00	0.00	0.00	0.00	0.25	0.00	0.75	2.50	2.75	2.25	2.25	2.75	9.25	2.00	5.25	-0.937012	0.454590	1.794922	177.240005	323.329987	-40.880001	275.00	0.29	-0.04
3.16	10.75	16.25	3.25	10.00	2.25	7.50	0.25	3.25	1.00	0.50	0.50	0.25	0.75	0.25	0.00	0.25	-0.199219	0.042480	1.008301	-56.560001	12.180000	-4.060000	603.00	-0.26	-0.12	0.00	0.00	0.00	0.00	0.00	0.00	0.00	0.75	2.25	2.75	2.25	1.25	2.50	7.50	1.75	4.50	-0.864746	0.362793	1.922852	195.720001	326.619995	-48.230000	235.00	0.29	-0.04
3.17	11.25	16.25	3.50	10.50	2.25	8.00	0.50	3.75	1.25	0.50	0.50	0.50	1.00	0.25	0.00	0.25	-0.213379	0.040039	1.019531	-50.470001	4.270000	-4.620000	641.00	-0.25	-0.12	0.00	0.00	0.00	0.00	0.00	0.00	0.00	0.50	1.75	2.25	1.75	1.50	1.75	6.00	1.50	3.00	-0.958984	0.203613	2.165039	198.589996	316.890015	-60.900002	186.00	0.29	-0.03
3.18	11.50	16.25	3.75	10.75	2.50	8.50	0.50	4.75	1.50	0.50	0.75	0.75	1.50	0.50	0.00	0.50	-0.203125	0.040039	0.971680	-27.299999	-4.900000	-4.130000	689.00	-0.23	-0.13	0.00	0.00	0.00	0.00	0.00	0.00	0.00	0.50	1.50	2.00	1.00	1.00	1.50	5.00	1.25	2.00	-0.732422	0.197266	1.450684	185.009995	306.390015	-73.639999	149.00	0.29	-0.02
3.19	11.75	16.50	4.00	11.25	2.75	8.75	0.50	5.25	1.25	0.50	0.50	0.75	1.50	0.50	0.00	0.50	-0.196777	0.050781	0.970215	-20.230000	-4.830000	-4.270000	709.00	-0.23	-0.13	0.00	0.00	0.00	0.00	0.00	0.00	0.00	0.50	1.00	1.75	1.00	0.75	1.25	2.75	1.00	1.25	-0.443359	0.364746	1.106934	178.009995	305.339996	-89.809998	109.00	0.27	-0.05
3.20	11.75	16.50	4.25	11.50	2.75	9.00	0.50	5.50	1.50	0.75	0.75	0.75	1.50	0.50	0.00	0.50	-0.194336	0.083008	0.959961	-17.780001	-3.150000	-4.760000	730.00	-0.23	-0.13	0.00	0.00	0.00	0.00	0.00	0.00	0.25	0.50	1.00	1.50	0.75	0.75	1.25	1.75	0.50	1.00	-0.249512	0.492188	1.153809	176.820007	279.089996	-105.559998	92.00	0.25	-0.06
3.21	12.00	16.25	4.25	11.25	3.00	9.25	0.50	5.75	1.50	0.50	0.75	1.00	1.75	0.50	0.00	0.75	-0.198730	0.065918	0.956543	-15.330000	-2.240000	-5.040000	740.00	-0.22	-0.13	0.00	0.00	0.50	0.25	0.00	0.00	0.25	0.50	1.00	1.50	0.75	0.50	1.00	1.25	0.25	0.75	0.096680	0.324707	1.119141	182.630005	235.619995	-123.690002	88.00	0.19	-0.04
3.22	11.25	16.00	4.50	11.50	3.50	9.75	0.50	5.75	1.25	1.00	0.75	1.00	2.00	0.50	0.00	0.50	-0.192871	0.016113	0.965332	-12.320000	-1.330000	-4.900000	749.00	-0.22	-0.14	0.00	0.00	0.00	0.00	0.00	0.00	0.25	0.25	1.00	1.25	0.75	0.25	0.50	1.00	0.25	0.50	0.313965	0.161621	1.768066	148.119995	157.289993	-168.559998	62.00	0.25	0.01
3.23	11.00	15.75	4.50	11.50	4.00	9.75	0.75	6.25	1.75	0.75	0.75	1.00	2.25	1.25	0.00	0.75	-0.181641	0.040039	0.963379	-10.290000	-0.280000	-4.900000	775.00	-0.20	-0.13	0.00	0.00	0.25	0.00	0.00	0.00	0.25	0.50	1.00	1.00	0.75	0.25	0.50	1.00	0.25	0.50	0.485840	0.330078	2.997559	121.800003	4.550000	-176.889999	66.00	0.21	-0.01
3.24	10.50	15.25	4.50	11.50	4.25	10.00	0.75	6.25	1.50	0.75	1.25	1.00	2.25	1.25	0.00	0.75	-0.190430	0.065918	0.978516	-9.030000	0.630000	-4.410000	773.00	-0.20	-0.13	0.00	0.00	0.00	0.25	0.00	0.00	0.25	0.25	0.25	1.00	0.75	0.00	0.50	0.50	0.00	0.25	0.522949	-0.174805	1.668945	110.879997	-88.129997	-190.259995	42.00	0.00	0.00
3.25	10.00	14.75	4.50	11.25	4.50	10.25	0.75	6.50	1.50	0.75	1.00	1.25	2.50	1.00	0.00	0.75	-0.190918	-0.009766	0.959961	-7.070000	1.610000	-3.710000	769.00	-0.19	-0.14	0.00	0.00	0.00	0.00	0.00	0.00	0.25	0.25	0.75	1.25	0.25	0.00	0.50	0.25	0.25	0.25	0.291504	-0.258301	0.790039	71.889999	-131.180008	-214.759995	43.00	0.00	0.00
3.26	9.75	14.00	4.50	11.00	5.00	10.25	0.75	6.75	1.75	0.75	1.25	1.25	2.50	1.25	0.00	1.00	-0.189941	0.044434	0.964355	-5.670000	2.730000	-3.290000	776.00	-0.18	-0.14	0.00	0.00	0.25	0.00	0.00	0.00	0.25	0.25	0.75	1.00	0.25	0.00	0.25	0.50	0.00	0.25	0.291504	-0.080566	0.790039	33.250000	-147.559998	-231.699997	41.00	0.00	0.00
3.27	9.00	13.25	4.50	10.75	5.00	10.50	0.75	7.00	2.50	0.75	1.00	1.25	2.75	1.00	0.00	1.00	-0.172852	0.031738	0.962402	-4.200000	4.130000	-3.150000	772.00	-0.18	-0.14	0.00	0.00	0.00	0.00	0.00	0.00	0.25	0.25	0.50	0.75	0.50	0.00	0.25	0.50	0.00	0.25	0.280762	0.329102	0.995117	-3.430000	-174.369995	-231.910004	35.00	0.00	0.00
3.28	8.25	12.75	4.25	10.00	5.00	10.25	0.75	7.00	2.25	1.00	1.25	1.75	2.75	1.50	0.00	1.00	-0.187500	0.031738	0.964844	-2.800000	5.670000	-2.590000	758.00	-0.16	-0.14	0.00	0.00	0.00	0.00	0.00	0.00	0.25	0.25	0.50	1.00	0.25	0.00	0.25	0.00	0.00	0.25	0.304688	0.457031	1.076660	-14.070000	-203.279999	-212.240005	31.00	0.00	0.00
3.29	7.75	12.00	4.00	9.50	5.00	10.25	0.75	7.00	2.50	1.00	1.25	1.50	3.00	1.50	0.00	1.00	-0.159668	0.035156	0.970215	-1.540000	7.070000	-1.890000	740.00	-0.16	-0.14	0.00	0.00	0.25	0.25	0.00	0.00	0.25	0.25	0.50	1.00	0.00	0.00	0.50	0.25	0.00	0.25	0.293945	0.520508	1.024902	-25.340000	-232.610001	-185.080002	38.00	0.00	0.00
3.30	7.00	10.75	3.75	9.25	5.00	10.50	0.75	7.25	2.25	1.00	1.25	1.50	3.25	1.50	0.00	1.25	-0.184082	0.038574	0.966309	-0.560000	7.840000	-1.750000	722.00	-0.15	-0.15	0.00	0.00	0.25	0.00	0.00	0.00	0.25	0.25	0.50	1.00	0.00	0.00	0.25	0.50	0.25	0.25	0.266602	0.566406	0.901855	-31.990000	-253.680008	-155.820007	38.00	0.00	0.00
3.31	6.50	9.75	3.75	8.75	5.00	10.25	0.75	7.50	2.50	1.25	1.25	2.00	3.25	1.75	0.00	1.25	-0.208008	0.033691	0.957031	0.140000	8.540000	-1.750000	717.00	-0.13	-0.15	0.00	0.00	0.00	0.00	0.00	0.00	0.25	0.25	0.50	0.50	0.25	0.00	0.25	0.25	0.00	0.25	0.238770	0.639648	0.826172	-26.880001	-266.000000	-126.070000	28.00	0.00	0.00
3.32	6.00	9.00	3.25	8.50	5.00	10.25	1.00	7.50	2.50	1.00	1.50	2.00	3.50	1.75	0.00	1.25	-0.173340	0.046875	0.979492	0.280000	9.310000	-2.450000	702.00	-0.12	-0.15	0.00	0.00	0.25	0.00	0.00	0.00	0.25	0.25	0.50	0.75	0.25	0.00	0.00	0.00	0.00	0.25	0.231445	0.678711	0.804199	-8.750000	-273.350006	-95.970001	29.00	0.00	0.00
3.33	5.50	8.50	3.25	8.25	4.75	10.25	0.75	7.50	2.50	1.25	1.75	1.75	3.75	1.50	0.00	1.25	-0.189941	0.048340	0.953125	0.140000	9.870000	-3.010000	686.00	-0.12	-0.15	0.00	0.00	0.00	0.00	0.00	0.00	0.25	0.00	0.50	0.75	0.00	0.00	0.00	0.00	0.00	0.25	0.214844	0.665039	0.831055	19.740000	-277.760010	-66.220001	19.00	0.00	0.00
3.34	5.00	7.75	3.00	7.75	5.00	10.00	0.75	7.75	3.00	1.25	1.50	2.00	3.75	1.50	0.00	1.50	-0.193359	0.045410	0.969238	-0.140000	9.800000	-3.710000	677.00	-0.11	-0.15	0.00	0.00	0.00	0.00	0.00	0.00	0.25	0.25	0.50	0.75	0.00	0.00	0.25	0.25	0.00	0.25	0.181641	0.610840	0.947754	52.639999	-281.610016	-37.730000	28.00	0.00	0.00
3.35	4.75	7.50	2.50	7.25	4.75	10.00	0.75	7.75	3.00	1.50	1.75	2.25	4.00	2.00	0.00	1.50	-0.194824	0.039551	0.951660	-0.280000	9.730000	-3.780000	673.00	-0.09	-0.16	0.00	0.00	0.00	0.00	0.00	0.00	0.25	0.25	0.50	0.50	0.00	0.00	0.00	0.00	0.00	0.25	0.106934	0.486328	1.102539	84.279999	-289.100006	-12.110000	21.00	0.00	0.00
3.36	4.50	6.75	2.75	7.25	4.75	9.75	1.00	7.75	3.00	1.25	1.75	2.50	4.00	2.00	0.25	1.25	-0.191895	0.031250	0.969727	-0.490000	9.520000	-4.270000	668.00	-0.09	-0.15	0.00	0.00	0.00	0.00	0.00	0.00	0.25	0.25	0.50	0.75	0.00	0.00	0.00	0.00	0.00	0.00	-0.033691	0.300781	1.235840	106.750000	-300.649994	8.750000	22.00	0.00	0.00
3.37	4.00	6.50	2.75	6.75	4.75	9.75	1.00	8.00	2.75	1.50	2.00	2.50	4.25	2.00	0.25	1.50	-0.183105	0.049805	0.955078	-0.700000	9.100000	-4.130000	665.00	-0.08	-0.16	0.00	0.00	0.25	0.25	0.00	0.00	0.25	0.25	0.25	0.50	0.00	0.00	0.00	0.00	0.00	0.00	-0.236816	0.150391	1.250488	111.160004	-310.589996	23.799999	22.00	0.00	0.00
3.38	3.75	6.50	2.50	6.50	4.50	9.75	1.00	7.75	3.00	1.25	2.00	3.00	5.00	2.25	0.25	1.50	-0.188965	0.061523	0.961426	-0.770000	8.750000	-4.410000	665.00	-0.07	-0.16	0.00	0.00	0.00	0.00	0.00	0.00	0.25	0.25	0.50	0.75	0.00	0.00	0.00	0.00	0.00	0.25	-0.412109	0.082031	1.234863	100.239998	-312.829987	35.279999	23.00	0.00	0.00
3.39	3.50	5.75	2.50	6.50	4.75	9.50	1.00	7.75	3.00	1.25	2.00	2.75	5.00	2.25	0.00	1.50	-0.201660	0.031738	0.950684	-0.490000	8.470000	-4.130000	650.00	-0.07	-0.16	0.00	0.00	0.00	0.00	0.00	0.00	0.25	0.25	0.25	0.75	0.00	0.00	0.00	0.00	0.00	0.00	-0.514648	0.078613	1.241699	85.680000	-307.369995	44.939999	19.00	0.00	0.00
3.40	3.50	5.75	2.25	6.25	4.75	9.50	1.00	7.75	3.25	1.50	2.25	3.25	5.25	2.25	0.25	1.75	-0.181641	0.039062	0.946777	-0.350000	8.260000	-4.340000	664.00	-0.06	-0.16	0.00	0.00	0.25	0.00	0.00	0.00	0.25	0.00	0.50	0.25	0.00	0.00	0.00	0.00	0.00	0.00	-0.664062	0.125000	1.373535	80.849998	-299.950012	52.849998	16.00	0.00	0.00
3.41	3.00	5.75	2.50	6.00	4.50	9.75	1.00	8.00	3.50	1.50	2.25	3.25	5.25	2.50	0.25	1.75	-0.184570	0.045410	0.963379	-0.210000	8.470000	-4.270000	668.00	-0.05	-0.16	0.00	0.00	0.00	0.25	0.00	0.00	0.25	0.25	0.50	0.50	0.00	0.00	0.00	0.00	0.00	0.00	-0.829102	0.099609	1.462402	88.480003	-294.769989	59.010002	22.00	0.00	0.00
3.42	3.00	5.25	2.25	5.75	4.50	9.75	1.00	8.00	3.75	1.75	2.50	4.00	5.25	2.75	0.00	1.75	-0.186523	0.040039	0.941895	-0.490000	9.100000	-4.340000	674.00	-0.04	-0.16	0.00	0.00	0.25	0.00	0.00	0.00	0.25	0.25	0.00	0.50	0.00	0.00	0.00	0.00	0.00	0.00	-0.895996	0.053711	1.459961	95.900002	-290.220001	63.560001	16.00	0.00	0.00
3.43	3.00	5.25	2.25	5.75	4.50	9.75	1.00	8.00	3.50	1.75	2.75	3.50	5.75	2.75	0.50	2.00	-0.211914	0.036621	0.955566	0.070000	8.820000	-4.620000	679.00	-0.04	-0.16	0.00	0.00	0.00	0.00	0.00	0.00	0.25	0.25	0.25	0.50	0.00	0.00	0.00	0.00	0.00	0.00	-0.909668	0.066895	1.436035	90.580002	-282.869995	67.830002	16.00	0.00	0.00
3.44	2.75	5.00	2.00	5.50	4.50	9.75	1.00	8.25	3.75	1.75	2.75	4.00	6.00	3.00	0.50	2.00	-0.206055	0.042480	0.938965	1.190000	9.520000	-3.780000	685.00	-0.03	-0.16	0.00	0.00	0.25	0.00	0.00	0.00	0.25	0.25	0.25	0.50	0.00	0.00	0.00	0.00	0.00	0.00	-0.910156	0.147461	1.393066	77.629997	-273.279999	73.639999	19.00	0.00	0.00
3.45	2.50	4.75	2.00	5.50	4.50	9.50	1.00	8.25	3.75	2.00	3.00	5.25	6.00	3.00	0.25	2.00	-0.202637	0.044434	0.959961	1.470000	10.570000	-3.430000	694.00	-0.02	-0.17	0.00	0.00	0.00	0.00	0.00	0.00	0.25	0.25	0.25	0.50	0.00	0.00	0.25	0.00	0.00	0.00	-0.899902	0.219238	1.379883	70.279999	-261.799988	80.919998	18.00	0.00	0.00
3.46	2.50	4.25	1.75	5.25	4.25	9.50	1.00	8.25	4.25	2.00	3.25	5.50	6.50	3.50	0.25	2.25	-0.201172	0.045898	0.958496	1.820000	11.270000	-3.150000	702.00	-0.01	-0.16	0.00	0.00	0.00	0.25	0.00	0.00	0.25	0.25	0.25	0.50	0.00	0.00	0.25	0.00	0.00	0.00	-0.863770	0.286133	1.478516	85.260002	-238.419998	97.790001	21.00	0.00	0.00
3.47	2.00	4.25	1.75	5.00	4.25	9.50	1.00	8.25	4.00	2.25	3.75	5.75	6.75	3.75	0.75	2.25	-0.247070	0.031738	0.959961	2.380000	11.900000	-2.730000	711.00	0.01	-0.17	0.00	0.00	0.00	0.00	0.00	0.00	0.25	0.25	0.00	0.25	0.00	0.00	0.00	0.00	0.00	0.00	-0.878418	0.241699	1.523438	96.459999	-228.270004	106.120003	10.00	0.00	0.00
3.48	2.00	4.00	2.00	5.00	4.25	9.25	1.00	8.25	4.50	2.25	4.00	6.25	6.75	4.00	0.50	2.75	-0.200195	0.047852	0.966309	3.080000	12.670000	-2.520000	726.00	0.01	-0.16	0.00	0.00	0.00	0.25	0.00	0.00	0.25	0.50	0.00	0.25	0.00	0.00	0.00	0.25	0.00	0.25	-0.880371	0.141113	1.524414	96.250000	-216.440002	113.330002	20.00	0.00	0.00
3.49	2.00	3.75	1.50	4.75	4.00	9.25	1.00	8.25	4.00	2.25	4.75	6.75	7.00	4.25	0.50	2.75	-0.224121	0.092285	0.933105	3.990000	13.930000	-2.310000	723.00	0.02	-0.17	0.00	0.00	0.00	0.00	0.00	0.00	0.25	0.25	0.50	0.50	0.00	0.00	0.25	0.25	0.00	0.00	-0.894043	0.087402	1.550781	82.459999	-203.139999	118.860001	24.00	0.00	0.00
3.50	1.75	3.25	1.50	4.75	3.50	8.75	0.75	8.25	4.50	2.25	5.25	7.00	7.25	4.50	0.75	2.75	-0.199707	0.032227	0.957031	4.620000	14.770000	-2.240000	723.00	0.03	-0.17	0.00	0.00	0.00	0.00	0.00	0.00	0.25	0.25	0.25	0.25	0.00	0.00	0.00	0.00	0.00	0.00	-0.944336	0.057129	1.513184	64.400002	-188.369995	122.779999	13.00	0.00	0.00
3.51	1.50	3.00	1.50	4.50	3.50	8.75	0.75	8.50	4.75	2.75	6.25	7.50	7.25	4.75	0.50	3.00	-0.213867	0.018555	0.964844	5.390000	15.890000	-1.890000	744.00	0.04	-0.17	0.00	0.00	0.00	0.00	0.00	0.00	0.25	0.25	0.50	0.50	0.00	0.00	0.00	0.00	0.00	0.00	-1.000488	0.066406	1.519043	54.320000	-172.339996	126.000000	19.00	0.00	0.00
3.52	1.75	2.75	1.25	4.25	3.00	8.50	0.75	8.25	4.50	3.00	6.75	7.75	7.75	5.00	0.75	3.25	-0.184082	0.058105	0.961914	5.320000	16.870001	-2.030000	744.00	0.05	-0.17	0.00	0.00	0.00	0.00	0.00	0.00	0.25	0.00	0.25	0.50	0.00	0.00	0.00	0.00	0.00	0.00	-1.095215	0.117676	1.607910	63.279999	-158.199997	129.779999	12.00	0.00	0.00
3.53	1.25	1.75	1.25	3.75	2.75	8.25	0.75	8.25	5.00	2.75	7.25	8.00	8.00	5.25	0.75	3.50	-0.170410	0.073730	0.950684	6.020000	17.570000	-1.890000	737.00	0.07	-0.17	0.00	0.00	0.00	0.00	0.00	0.00	0.25	0.25	0.50	0.50	0.00	0.00	0.00	0.00	0.00	0.00	-1.186523	0.139648	1.788574	91.000000	-153.160004	133.559998	19.00	0.00	0.00
3.54	1.25	2.25	1.25	3.75	2.50	8.00	0.75	8.25	5.25	3.00	7.75	8.25	8.00	5.50	1.00	3.75	-0.140625	0.077148	0.952148	7.420000	19.250000	-2.590000	756.00	0.08	-0.16	0.00	0.00	0.00	0.00	0.00	0.00	0.25	0.25	0.00	0.50	0.00	0.00	0.00	0.00	0.00	0.00	-1.267578	0.114746	1.866699	120.470001	-161.000000	136.080002	13.00	0.00	0.00
3.55	1.25	2.25	1.00	3.00	2.25	7.75	0.75	8.00	5.25	3.50	8.00	8.75	8.50	6.00	1.00	3.75	-0.198730	0.058105	0.966309	8.330000	20.930000	-1.960000	757.00	0.09	-0.16	0.00	0.00	0.00	0.00	0.00	0.00	0.25	0.25	0.25	0.50	0.00	0.00	0.00	0.00	0.00	0.00	-1.396484	0.046875	1.746094	137.550003	-172.619995	137.199997	16.00	0.00	0.00
3.56	1.25	2.00	1.00	3.00	1.75	7.25	0.50	8.25	5.50	3.50	8.50	9.00	8.75	6.75	1.00	4.25	-0.203613	0.071289	0.956055	9.940000	23.170000	-1.680000	766.00	0.10	-0.16	0.00	0.00	0.25	0.25	0.00	0.00	0.25	0.25	0.25	0.25	0.00	0.00	0.00	0.00	0.00	0.00	-1.534180	-0.056641	1.605957	133.910004	-179.199997	137.339996	19.00	0.00	0.00
3.57	1.00	1.75	0.75	3.00	1.50	6.75	0.50	8.00	5.50	4.00	8.75	9.50	9.00	7.00	1.00	4.75	-0.237793	0.052246	0.960938	11.970000	26.180000	-2.030000	767.00	0.11	-0.16	0.00	0.00	0.00	0.00	0.00	0.00	0.25	0.00	0.25	0.50	0.00	0.00	0.00	0.00	0.00	0.00	-1.626953	-0.099609	1.395020	104.580002	-181.720001	138.110001	12.00	0.00	0.00
3.58	0.50	1.50	1.00	3.00	1.25	6.50	0.50	8.00	5.50	4.25	9.25	9.75	9.25	7.75	1.25	4.75	-0.205078	0.062988	0.958496	14.350000	29.330000	-2.310000	778.00	0.12	-0.16	0.00	0.00	0.00	0.00	0.00	0.00	0.25	0.00	0.00	0.50	0.00	0.00	0.25	0.00	0.00	0.00	-1.708984	-0.075684	1.042969	63.279999	-178.289993	141.889999	11.00	0.00	0.00
3.59	0.50	1.50	0.50	2.75	1.00	5.75	0.50	7.75	6.00	4.25	9.75	10.50	9.50	8.25	1.00	4.75	-0.196289	0.084473	0.958984	17.360001	32.619999	-2.870000	779.00	0.13	-0.16	0.00	0.00	0.00	0.00	0.00	0.00	0.25	0.25	0.25	0.00	0.00	0.00	0.00	0.00	0.00	0.00	-1.775879	-0.097168	0.643066	33.459999	-163.309998	152.389999	11.00	0.00	0.00
3.60	0.75	0.25	0.75	2.25	0.50	5.25	0.25	7.50	6.25	5.00	10.00	11.00	9.75	8.50	1.00	5.25	-0.062500	0.107910	0.966309	27.440001	49.420002	-2.870000	774.00	0.15	-0.16	0.00	0.00	0.00	0.25	0.00	0.00	0.25	0.00	0.25	0.25	0.00	0.00	0.25	0.00	0.00	0.00	-2.089844	-0.126953	0.341309	11.340000	-138.320007	158.759995	15.00	0.00	0.00
3.61	0.50	0.75	0.50	1.75	0.50	5.00	0.25	7.25	6.25	5.25	10.50	11.50	10.00	8.75	1.25	5.25	-0.206543	0.139648	1.024414	33.599998	56.910000	-1.890000	782.00	0.16	-0.15	0.00	0.00	0.00	0.00	0.00	0.00	0.25	0.25	0.25	0.00	0.00	0.00	0.00	0.00	0.00	0.00	-2.425293	-0.093750	0.033203	-7.490000	-112.279999	144.199997	11.00	0.00	0.00
3.62	0.00	0.25	0.75	2.00	0.50	4.75	0.00	7.00	6.75	5.50	10.75	11.75	10.25	9.50	1.25	5.25	-0.259766	0.086426	0.988281	37.450001	60.619999	-1.610000	790.00	0.17	-0.15	0.00	0.00	0.00	0.00	0.00	0.00	0.25	0.00	0.00	0.25	0.00	0.00	0.00	0.00	0.00	0.00	-2.644043	-0.185547	-0.360352	5.040000	-84.000000	117.110001	6.00	0.00	0.00
3.63	0.25	0.50	0.50	1.50	0.25	4.25	0.00	6.75	6.75	5.50	11.25	12.25	10.75	9.75	1.50	5.25	-0.271973	0.097656	0.988281	43.959999	72.309998	-1.400000	794.00	0.17	-0.15	0.00	0.00	0.00	0.00	0.00	0.00	0.25	0.25	0.00	0.25	0.00	0.00	0.00	0.00	0.00	0.00	-2.693359	-0.483887	-0.605469	44.799999	-46.270000	89.389999	10.00	0.00	0.00
3.64	0.25	0.00	0.50	1.75	0.00	3.75	0.00	6.25	7.25	5.50	11.25	12.50	10.75	10.00	1.50	5.50	-0.261719	0.122559	0.973145	54.040001	84.070000	-1.820000	789.00	0.18	-0.14	0.00	0.00	0.00	0.00	0.00	0.25	0.25	0.25	0.25	0.50	0.00	0.00	0.00	0.00	0.00	0.00	-2.251465	-0.734863	-0.171387	40.670002	54.110001	34.650002	19.00	0.00	0.00
3.65	0.00	0.25	0.50	1.25	0.00	3.00	0.00	6.00	7.00	5.75	11.50	13.00	11.00	11.00	1.25	5.75	-0.287598	0.123047	0.982422	60.760002	97.930000	-2.870000	788.00	0.19	-0.14	0.00	0.00	0.00	0.25	0.00	0.00	0.25	0.25	0.25	0.25	0.00	0.00	0.00	0.00	0.00	0.00	-2.251465	-0.734863	-0.171387	40.670002	54.110001	34.650002	16.00	0.00	0.00
3.66	0.00	0.25	0.50	1.25	0.00	2.25	0.00	5.25	6.75	5.75	12.00	13.00	11.00	11.25	1.75	5.75	-0.313965	0.135254	0.966309	62.160000	114.449997	-3.220000	778.00	0.20	-0.14	0.00	0.00	0.25	0.25	0.00	0.00	0.25	0.25	0.25	0.25	0.00	0.00	0.00	0.00	0.00	0.00	-0.352051	-0.520508	0.256836	3.640000	89.809998	18.480000	19.00	0.00	0.00
3.67	0.00	0.50	0.50	0.75	0.00	2.00	0.00	5.00	7.00	5.50	11.75	13.25	11.00	11.50	1.75	5.75	-0.321777	0.138184	0.978027	63.139999	128.100006	-3.430000	771.00	0.21	-0.13	0.25	0.50	0.25	1.00	0.00	0.00	0.25	0.25	0.00	0.25	0.00	0.00	0.00	0.00	0.00	0.00	0.723145	0.450684	1.976562	-128.869995	160.300003	-2.590000	31.00	0.00	0.00
3.68	0.00	0.25	0.50	1.00	0.00	1.50	0.00	4.50	6.75	5.75	11.75	13.25	11.00	12.00	1.75	6.00	-0.355469	0.165039	1.117188	64.610001	144.619995	-4.340000	764.00	0.21	-0.13	0.75	1.00	0.50	1.75	0.00	0.00	0.25	0.50	0.00	0.25	0.00	0.00	0.25	0.00	0.00	0.00	0.752441	0.351562	1.476074	-116.690002	98.769997	-2.310000	58.00	-0.22	-0.13
3.69	0.00	0.25	0.25	0.75	0.00	1.00	0.00	3.50	6.75	5.25	11.50	13.25	10.75	12.00	1.75	6.00	-0.397949	0.156250	1.023438	61.599998	167.369995	-5.810000	727.00	0.22	-0.12	1.75	3.50	0.75	2.50	0.00	0.00	0.25	0.50	0.00	0.00	0.00	0.00	0.25	0.00	0.00	0.00	-0.311523	-0.227539	0.773926	-109.550003	84.699997	-5.530000	100.00	-0.30	-0.12
3.70	0.00	0.00	0.50	0.50	0.00	0.50	0.00	2.75	6.25	5.00	11.25	13.00	10.50	12.50	2.00	6.00	-0.429199	0.184570	1.031250	61.459999	192.220001	-7.000000	699.00	0.23	-0.12	2.75	5.00	0.75	3.50	0.00	0.00	0.25	0.25	0.00	0.00	0.00	0.00	0.75	0.00	0.00	0.00	-0.139160	0.091309	0.187500	-91.559998	128.869995	-6.300000	135.00	-0.31	-0.12
3.71	0.00	0.00	0.25	0.25	0.00	0.75	0.00	2.50	6.00	4.75	11.25	12.75	9.75	12.75	2.25	6.00	-0.464844	0.224609	1.047363	61.459999	218.889999	-8.470000	682.00	0.24	-0.11	4.25	5.75	1.25	4.50	0.00	0.00	0.25	0.25	0.00	0.00	0.00	0.00	0.50	0.00	0.00	0.00	-0.123535	0.149902	1.389648	-59.849998	188.509995	-4.200000	172.00	-0.33	-0.10
3.72	0.00	0.00	0.00	0.00	0.00	0.25	0.00	2.00	5.50	4.25	10.75	12.50	9.00	13.00	2.00	6.00	-0.455078	0.168945	1.080078	64.540001	240.100006	-10.220000	637.00	0.25	-0.11	6.00	7.50	1.50	5.00	0.00	0.50	0.25	0.25	0.00	0.00	0.00	0.00	0.25	0.00	0.00	0.00	-0.175781	-0.099609	1.922852	-17.639999	191.869995	6.440000	218.00	-0.34	-0.09
