# time	left pressure 1[N/cm²]	left pressure 2[N/cm²]	left pressure 3[N/cm²]	left pressure 4[N/cm²]	left pressure 5[N/cm²]	left pressure 6[N/cm²]	left pressure 7[N/cm²]	left pressure 8[N/cm²]	left pressure 9[N/cm²]	left pressure 10[N/cm²]	left pressure 11[N/cm²]	left pressure 12[N/cm²]	left pressure 13[N/cm²]	left pressure 14[N/cm²]	left pressure 15[N/cm²]	left pressure 16[N/cm²]	left acceleration X[g]	left acceleration Y[g]	left acceleration Z[g]	left angular X[dps]	left angular Y[dps]	left angular Z[dps]	left total force[N]	left center of pressure X[%]	left center of pressure Y[%]	right pressure 1[N/cm²]	right pressure 2[N/cm²]	right pressure 3[N/cm²]	right pressure 4[N/cm²]	right pressure 5[N/cm²]	right pressure 6[N/cm²]	right pressure 7[N/cm²]	right pressure 8[N/cm²]	right pressure 9[N/cm²]	right pressure 10[N/cm²]	right pressure 11[N/cm²]	right pressure 12[N/cm²]	right pressure 13[N/cm²]	right pressure 14[N/cm²]	right pressure 15[N/cm²]	right pressure 16[N/cm²]	right acceleration X[g]	right acceleration Y[g]	right acceleration Z[g]	right angular X[dps]	right angular Y[dps]	right angular Z[dps]	right total force[N]	right center of pressure X[%]	right center of pressure Y[%]
0.00																										2.00	1.50	1.50	1.50	0.75	1.00	0.75	0.75	1.25	1.25	1.50	1.25	1.25	1.25	1.50	1.00	-0.271484	0.110352	0.844238	57.119999	-155.050003	-48.160000	230.00	0.01	-0.06
0.01	12.75	12.00	8.25	9.75	2.00	8.25	1.25	8.00	1.25	2.75	3.25	4.50	9.00	2.00	0.75	1.50	-0.229492	0.154297	0.949707	-6.440000	4.200000	-0.210000	1018.00	-0.12	-0.14	2.25	1.25	1.75	1.75	0.75	1.25	0.50	0.75	1.25	1.25	1.50	1.50	1.50	1.50	1.50	1.25	-0.326172	0.135254	0.825195	53.900002	-157.080002	-36.119999	244.00	0.01	-0.07
0.02	12.25	11.75	8.50	9.75	2.25	8.25	1.25	8.00	1.50	2.75	3.25	5.25	9.25	1.75	0.75	1.50	-0.220215	0.153320	0.940430	-5.320000	4.060000	0.140000	1028.00	-0.12	-0.15	2.00	1.50	1.50	1.25	0.75	1.00	0.75	0.75	1.25	1.50	1.50	1.25	1.25	1.50	1.50	1.25	-0.365234	0.171875	0.796387	48.650002	-155.680008	-21.840000	234.00	0.03	-0.06
0.03	12.50	11.75	8.50	10.00	2.25	8.50	1.25	8.25	1.75	2.75	3.50	5.00	9.75	1.75	1.00	1.75	-0.225098	0.153809	0.938477	-4.620000	4.130000	0.420000	1054.00	-0.12	-0.15	2.00	1.50	1.50	1.75	0.75	1.25	0.75	0.75	1.50	1.25	1.25	1.25	1.75	1.50	1.25	1.25	-0.386719	0.218750	0.826660	46.549999	-152.529999	-6.230000	242.00	0.01	-0.07
0.04	12.50	11.75	8.50	9.75	2.25	8.50	1.25	8.00	1.50	3.00	3.50	5.50	9.75	2.00	1.00	1.50	-0.224121	0.152832	0.941895	-4.200000	4.270000	0.560000	1052.00	-0.11	-0.15	2.25	1.75	1.50	1.50	0.50	1.25	0.75	1.00	1.50	1.25	1.25	1.25	1.25	1.50	1.25	1.25	-0.421875	0.236816	0.873535	51.099998	-149.100006	9.450000	241.00	0.01	-0.06
0.06	12.25	11.50	8.50	10.00	2.25	8.75	1.25	8.25	1.50	3.00	3.50	5.50	9.75	1.75	0.75	1.50	-0.230469	0.153809	0.940918	-3.990000	4.270000	0.630000	1052.00	-0.11	-0.15	2.25	1.50	1.75	1.50	0.75	1.25	0.75	1.00	1.25	1.00	1.25	1.00	1.50	1.75	1.50	1.25	-0.504883	0.139160	0.930664	65.239998	-142.449997	39.130001	243.00	0.01	-0.06
0.07																										2.50	1.50	1.75	1.25	0.75	1.00	0.75	0.75	1.25	1.00	1.25	0.75	1.50	1.25	1.25	1.00	-0.548340	0.083984	0.946289	67.269997	-137.199997	52.150002	224.00	-0.01	-0.05
0.08	12.25	11.50	8.50	10.00	2.25	8.75	1.25	8.50	2.00	3.00	3.75	5.75	10.50	2.00	1.00	1.75	-0.225586	0.147949	0.935059	-3.010000	4.410000	0.700000	1083.00	-0.10	-0.15	1.75	1.25	1.75	1.50	0.75	1.00	0.75	1.00	1.25	1.25	1.25	1.25	1.75	1.25	1.25	1.25	-0.579590	0.044434	1.020020	64.470001	-124.809998	76.300003	232.00	0.02	-0.08
0.09	12.00	11.50	8.50	10.00	2.25	8.75	1.25	8.50	2.00	2.75	3.75	6.50	10.50	2.00	1.00	2.00	-0.223145	0.148438	0.941895	-2.380000	4.620000	0.630000	1087.00	-0.10	-0.15	2.25	1.50	1.50	1.50	0.75	1.00	0.75	1.00	1.25	1.00	1.25	1.00	1.25	1.25	1.25	0.75	-0.579590	0.044434	1.020020	64.470001	-124.809998	76.300003	224.00	-0.01	-0.06
0.10	12.00	11.25	8.50	9.75	2.50	8.75	1.50	8.50	1.75	3.25	3.75	6.50	11.00	2.25	1.00	1.75	-0.217285	0.152832	0.940430	-1.750000	5.040000	0.770000	1096.00	-0.10	-0.15	1.50	1.50	1.75	1.50	0.50	1.25	0.75	1.00	1.50	1.00	1.25	0.75	1.25	1.50	1.25	1.00	-0.580566	-0.003418	1.154785	61.320000	-117.459999	96.809998	223.00	0.01	-0.06
0.11	11.75	11.25	8.50	10.00	2.50	8.75	1.25	8.75	2.25	3.25	3.75	7.00	11.25	2.25	1.00	2.00	-0.222656	0.146973	0.939453	-1.330000	5.600000	0.770000	1113.00	-0.09	-0.15	2.00	1.50	1.50	1.50	0.75	1.25	0.75	1.00	1.00	1.00	1.00	1.00	0.75	1.25	1.25	1.25	-0.583496	-0.032715	1.226562	59.639999	-118.580002	104.510002	216.00	-0.01	-0.07
0.12	11.50	11.25	8.25	9.75	2.50	8.75	1.25	8.75	2.00	3.50	4.00	7.25	11.50	2.25	1.00	2.00	-0.223633	0.152344	0.942871	-1.050000	6.090000	0.700000	1112.00	-0.09	-0.15	2.25	1.50	1.75	1.25	0.75	1.25	0.75	0.75	1.25	1.00	1.25	1.00	1.75	1.25	1.25	1.25	-0.583984	-0.068848	1.233398	56.279999	-121.590004	109.690002	231.00	-0.00	-0.07
0.13	11.25	10.75	8.25	9.75	2.50	8.75	1.50	9.00	2.00	3.25	4.00	7.50	11.75	2.50	1.00	2.25	-0.224121	0.147949	0.947754	-0.630000	6.300000	0.700000	1119.00	-0.08	-0.16	2.25	1.25	1.50	1.75	0.75	1.00	0.75	0.75	1.25	1.00	1.25	1.25	1.25	1.75	1.00	1.00	-0.594238	-0.100098	1.220703	50.959999	-124.669998	112.699997	226.00	0.00	-0.06
0.14	11.00	10.50	8.25	9.75	2.50	8.75	1.25	9.00	1.75	3.50	4.50	7.50	11.75	2.25	1.00	2.25	-0.223145	0.153320	0.939941	-0.350000	6.790000	0.770000	1112.00	-0.08	-0.16	2.25	1.50	1.50	1.50	0.75	1.25	0.50	0.75	1.00	1.00	1.25	1.00	1.50	1.25	1.25	1.00	-0.604492	-0.118652	1.172363	43.889999	-125.720001	113.750000	219.00	-0.01	-0.08
0.15	10.75	10.50	8.25	9.50	2.50	8.75	1.50	9.00	2.25	3.50	4.25	7.75	12.00	2.25	1.00	2.25	-0.224609	0.155762	0.941895	-0.280000	7.700000	0.630000	1120.00	-0.08	-0.16	2.00	1.50	1.50	1.50	0.75	1.25	0.75	0.75	1.00	1.00	1.00	1.00	1.25	1.25	1.25	1.00	-0.624512	-0.110840	1.148438	38.009998	-123.900002	112.980003	215.00	-0.01	-0.07
0.16	10.50	10.25	8.00	9.50	2.50	8.75	1.50	9.00	2.25	3.50	4.50	7.75	12.25	2.50	1.25	2.50	-0.221191	0.145996	0.940430	-0.280000	7.910000	0.490000	1123.00	-0.07	-0.16	2.25	1.25	1.50	1.25	0.50	1.25	0.50	0.75	1.25	0.75	1.25	1.00	1.50	1.50	1.50	1.00	-0.649902	-0.114258	1.128418	34.720001	-120.260002	110.809998	216.00	0.01	-0.07
0.17	10.25	10.00	8.00	9.50	2.50	8.75	1.25	9.25	2.50	3.50	4.50	7.75	12.50	2.25	1.00	2.50	-0.227539	0.156250	0.937988	-0.140000	8.050000	0.420000	1118.00	-0.07	-0.16	2.00	1.50	1.50	1.50	0.75	1.25	0.75	0.75	1.25	1.00	1.00	0.75	1.50	1.50	1.25	1.00	-0.669922	-0.107422	1.107422	31.219999	-115.779999	108.010002	220.00	-0.00	-0.06
0.18	9.75	9.75	8.00	9.50	2.50	8.75	1.25	9.25	2.50	3.75	4.75	8.00	12.75	2.50	1.00	2.75	-0.222656	0.154785	0.938477	-0.070000	8.190000	0.350000	1125.00	-0.06	-0.16	2.00	1.50	1.25	1.50	0.75	1.25	0.75	0.75	1.00	1.00	1.25	1.00	1.25	1.50	1.00	1.25	-0.667969	-0.077637	1.070312	24.920000	-109.480003	105.279999	216.00	-0.00	-0.07
0.19	9.75	9.75	8.00	9.25	2.50	8.75	1.50	9.25	2.50	3.50	5.25	8.25	13.00	2.75	1.25	2.75	-0.223633	0.153809	0.937988	-0.070000	8.190000	0.350000	1139.00	-0.06	-0.16	1.50	1.25	1.50	1.75	0.75	1.00	0.50	0.75	1.00	1.00	1.00	0.75	1.25	1.50	1.00	1.25	-0.679199	-0.034668	1.045410	17.430000	-101.709999	103.529999	201.00	0.00	-0.07
0.20	9.25	9.50	7.75	9.25	2.50	8.75	1.50	9.25	2.75	3.50	5.25	8.25	13.00	2.50	1.25	3.00	-0.230469	0.156738	0.938965	-0.210000	8.260000	0.210000	1131.00	-0.06	-0.16	1.75	1.25	1.75	1.25	0.75	1.50	0.50	1.00	1.00	0.75	1.00	0.75	1.25	1.25	1.50	1.25	-0.688477	-0.014160	0.984375	10.010000	-91.699997	102.199997	211.00	-0.00	-0.08
0.21	8.75	9.25	7.75	9.00	2.50	8.50	1.25	9.25	2.50	3.75	5.00	8.50	13.25	2.75	1.25	3.25	-0.229004	0.155273	0.936523	-0.350000	8.190000	0.210000	1118.00	-0.05	-0.17	2.00	1.50	1.50	1.25	0.50	1.25	0.75	0.75	1.00	1.00	0.75	1.00	1.25	1.25	1.00	1.00	-0.708008	0.007812	0.924805	3.780000	-79.099998	100.730003	203.00	-0.01	-0.07
0.22	8.75	9.25	7.50	9.00	2.50	8.50	1.25	9.50	2.50	3.75	5.50	8.75	13.25	2.75	1.25	3.25	-0.229004	0.158691	0.939453	-0.490000	8.050000	0.140000	1128.00	-0.05	-0.17	1.50	1.00	1.50	1.50	0.50	1.25	0.75	0.75	1.00	0.75	1.00	1.00	1.00	1.50	1.25	1.00	-0.758789	0.053223	0.927734	-4.620000	-49.490002	98.349998	198.00	0.01	-0.07
0.23	8.50	9.00	7.50	9.00	2.50	8.50	1.50	9.50	2.50	3.50	5.75	8.75	13.50	2.75	1.50	3.25	-0.228027	0.160156	0.936035	-0.700000	7.770000	0.210000	1132.00	-0.04	-0.17	2.00	1.25	1.75	1.50	0.75	1.25	0.75	0.75	1.25	1.00	0.75	1.00	1.00	1.50	1.25	1.25	-0.759277	0.092285	0.926270	-6.510000	-36.049999	97.440002	218.00	-0.00	-0.05
0.24	8.75	8.75	7.50	8.75	2.50	8.50	1.50	9.50	3.00	3.50	6.25	8.75	13.50	2.50	1.50	3.50	-0.233887	0.161621	0.937988	-1.050000	7.560000	0.280000	1141.00	-0.04	-0.16	1.75	1.25	1.25	1.50	0.50	1.25	0.75	1.00	1.00	1.00	1.00	1.00	1.00	1.50	1.25	1.25	-0.768555	0.099121	0.958984	-7.420000	-24.570000	97.510002	209.00	0.01	-0.07
0.25	8.50	8.50	7.25	8.75	2.50	8.50	1.50	9.50	2.75	4.00	6.00	8.75	13.50	2.75	1.25	3.50	-0.230469	0.153809	0.934570	-1.540000	7.350000	0.210000	1132.00	-0.04	-0.17	1.25	1.25	1.50	1.50	0.75	1.25	0.75	0.75	1.25	1.00	0.75	1.00	1.50	1.25	1.50	1.00	-0.774902	0.103027	1.009277	-9.170000	-16.379999	98.000000	210.00	0.02	-0.07
0.26	8.25	8.50	7.50	8.75	2.50	8.50	1.25	9.50	2.75	4.00	6.50	9.00	13.75	2.75	1.25	3.50	-0.231445	0.155273	0.934570	-1.750000	6.860000	0.350000	1139.00	-0.04	-0.17	1.75	1.25	1.50	1.50	0.75	1.25	0.75	1.00	1.00	1.25	1.00	1.00	1.50	1.50	1.25	1.25	-0.768066	0.081055	1.011230	-12.530000	-11.620000	99.050003	223.00	0.01	-0.08
0.27	8.25	8.50	7.25	8.75	2.50	8.50	1.50	9.50	3.00	3.25	6.75	9.25	13.75	2.75	1.25	3.75	-0.233887	0.156250	0.937012	-1.820000	6.440000	0.490000	1142.00	-0.04	-0.17	1.75	1.25	1.50	1.50	0.50	1.25	0.75	1.00	1.25	1.00	1.00	1.00	1.00	1.50	1.00	0.75	-0.773926	0.072754	0.995605	-16.379999	-9.730000	100.379997	210.00	0.00	-0.06
0.28	8.00	8.50	7.25	8.75	2.50	8.50	1.50	9.75	3.00	4.00	6.75	9.25	13.75	2.50	1.50	3.75	-0.231934	0.151367	0.938965	-1.960000	6.020000	0.700000	1152.00	-0.03	-0.17	1.00	0.50	0.50	0.25	0.00	0.00	0.50	0.00	0.00	0.00	0.00	0.00	0.00	0.00	0.00	0.00	-0.780273	0.056152	0.977539	-19.320000	-9.590000	101.849998	34.00	0.00	0.00
0.29	8.00	8.25	7.25	8.75	2.50	8.50	1.25	9.50	3.00	3.75	6.75	9.25	14.00	2.75	1.50	3.75	-0.232422	0.148926	0.935059	-2.100000	5.460000	0.700000	1143.00	-0.03	-0.17	0.00	0.25	0.00	0.00	0.00	0.00	0.25	0.00	0.00	0.00	0.00	0.00	0.00	0.00	0.00	0.00	-0.785645	0.015137	0.939941	-21.210001	-10.150000	102.129997	7.00	0.00	0.00
0.30	7.75	8.25	7.25	8.75	2.50	8.25	1.50	9.75	3.00	3.50	7.50	9.25	14.00	3.00	1.75	3.75	-0.225098	0.151855	0.935547	-1.820000	4.620000	0.840000	1157.00	-0.03	-0.17	0.00	0.25	0.00	0.00	0.00	0.00	0.50	0.00	0.00	0.00	0.00	0.00	0.00	0.00	0.00	0.00	-0.782715	-0.031738	0.884766	-22.750000	-10.640000	100.309998	11.00	0.00	0.00
0.31	7.75	8.50	7.25	8.50	2.75	8.50	1.50	9.75	3.00	3.75	7.25	9.50	14.25	3.00	1.50	3.75	-0.225586	0.152344	0.939453	-1.610000	4.410000	0.910000	1165.00	-0.03	-0.17	0.00	0.00	0.00	0.00	0.00	0.00	0.50	0.00	0.00	0.00	0.00	0.00	0.00	0.00	0.00	0.00	-0.772461	-0.074707	0.846680	-23.100000	-10.430000	95.760002	8.00	0.00	0.00
0.32	7.75	8.25	7.25	8.50	2.50	8.50	1.50	9.75	3.00	3.75	7.50	9.50	14.25	3.00	1.50	4.00	-0.227539	0.156250	0.935059	-1.680000	4.480000	0.910000	1164.00	-0.02	-0.17	0.00	0.00	0.00	0.00	0.00	0.00	0.50	0.00	0.00	0.00	0.00	0.00	0.00	0.00	0.00	0.00	-0.785645	-0.145020	0.820801	-23.309999	-8.750000	77.629997	8.00	0.00	0.00
0.33	7.75	8.25	7.25	8.50	2.75	8.50	1.50	9.75	3.00	4.25	7.25	9.50	14.25	3.00	1.50	4.00	-0.229492	0.157715	0.937988	-1.610000	4.550000	0.980000	1169.00	-0.02	-0.17	0.00	0.00	0.00	0.00	0.00	0.00	0.50	0.00	0.00	0.00	0.00	0.00	0.00	0.00	0.00	0.00	-0.785645	-0.145020	0.820801	-23.309999	-8.750000	77.629997	8.00	0.00	0.00
0.34	7.75	8.25	7.25	8.50	2.50	8.50	1.50	9.75	3.00	4.00	7.50	9.75	14.25	3.00	1.50	4.00	-0.226074	0.157227	0.936523	-1.890000	4.760000	0.910000	1169.00	-0.02	-0.17	1.75	1.25	1.75	1.25	0.75	1.25	0.75	0.75	1.25	0.75	1.00	1.00	1.00	1.75	1.25	1.25	-0.781738	-0.152832	0.808594	-22.260000	-7.280000	50.049999	214.00	0.01	-0.05
0.35	7.50	8.25	7.25	8.50	2.50	8.50	1.50	9.75	3.00	4.00	7.50	9.75	14.50	2.75	1.50	4.00	-0.233887	0.153320	0.935059	-2.170000	4.830000	0.700000	1166.00	-0.02	-0.17	1.75	1.25	1.25	1.50	0.75	1.50	0.50	1.00	1.25	0.75	0.75	1.00	1.00	1.25	1.25	1.00	-0.771973	-0.141113	0.790527	-19.110001	-7.280000	34.580002	205.00	-0.00	-0.08
0.36	8.00	8.00	7.00	8.50	2.50	8.50	1.50	9.75	2.75	4.00	7.50	10.00	14.50	3.00	1.50	4.00	-0.227051	0.156738	0.939941	-2.380000	4.690000	0.700000	1168.00	-0.02	-0.17	1.25	1.50	1.25	1.50	0.75	1.25	0.75	1.00	1.25	0.75	1.00	0.75	1.75	1.25	1.25	1.00	-0.747559	-0.134277	0.785156	-13.300000	-7.280000	19.389999	210.00	0.01	-0.08
0.37	7.75	8.00	7.00	8.50	2.50	8.50	1.50	10.00	3.00	4.00	7.50	10.00	14.50	3.25	1.50	4.25	-0.230469	0.154297	0.940918	-2.240000	4.410000	0.700000	1177.00	-0.02	-0.17	1.75	1.00	1.50	1.50	0.50	1.25	0.75	1.00	1.00	1.00	1.00	0.75	1.25	1.50	1.25	1.00	-0.687012	-0.127441	0.767578	-6.860000	-6.790000	5.250000	208.00	0.01	-0.07
0.38	7.75	8.00	7.25	8.50	2.50	8.25	1.50	9.75	2.75	4.00	7.50	10.00	14.50	3.00	1.75	4.00	-0.229980	0.153809	0.940430	-2.590000	4.830000	0.770000	1168.00	-0.02	-0.17	1.75	1.25	1.75	1.50	0.50	1.50	0.75	1.00	1.00	1.00	0.75	1.00	1.25	1.75	1.25	1.00	-0.635742	-0.125977	0.768555	-2.240000	-4.760000	-6.720000	219.00	0.00	-0.07
0.39	7.50	8.00	7.00	8.50	2.50	8.25	1.50	10.00	3.50	4.50	7.75	10.00	14.50	3.00	1.75	4.00	-0.227051	0.155273	0.941895	-3.010000	5.250000	0.700000	1186.00	-0.02	-0.17	1.50	1.50	1.25	1.25	0.75	1.25	0.75	1.00	1.25	1.00	1.00	1.00	1.50	1.25	1.00	1.25	-0.570801	-0.125000	0.771973	-2.590000	-1.540000	-15.260000	212.00	0.01	-0.08
0.40	7.50	8.00	7.00	8.50	2.50	8.50	1.50	9.75	3.00	4.25	7.75	10.00	14.50	3.25	1.50	4.25	-0.224609	0.157227	0.934082	-3.290000	5.670000	0.560000	1176.00	-0.02	-0.17	2.25	1.50	1.50	1.50	0.50	1.25	0.75	0.75	1.25	1.00	1.00	0.75	1.25	1.50	1.25	1.00	-0.504395	-0.106934	0.782227	-8.750000	2.450000	-20.090000	218.00	-0.01	-0.06
0.41	7.50	8.00	7.00	8.25	2.50	8.25	1.50	9.75	3.00	4.00	7.75	10.00	14.50	3.25	1.50	4.25	-0.229492	0.155273	0.944336	-3.430000	5.810000	0.490000	1167.00	-0.02	-0.17	1.50	1.25	1.50	1.50	0.50	1.25	0.75	0.75	1.50	1.00	1.00	0.75	1.25	1.75	1.25	1.00	-0.433105	-0.038574	0.785645	-17.710001	6.440000	-21.700001	213.00	0.02	-0.05
0.42	7.50	7.75	6.75	8.50	2.50	8.25	1.50	9.75	3.00	4.00	7.75	10.00	14.25	3.25	1.50	4.25	-0.233398	0.158203	0.939453	-3.500000	5.950000	0.420000	1162.00	-0.02	-0.17	1.75	1.25	1.50	1.50	0.75	1.25	0.75	0.75	1.25	1.00	1.00	0.75	1.25	1.50	1.25	1.25	-0.389160	0.025879	0.799805	-25.410000	9.870000	-20.719999	214.00	0.01	-0.06
0.43	7.25	7.75	6.75	8.25	2.50	8.25	1.50	9.75	3.00	4.25	7.75	10.00	14.50	3.00	1.75	4.25	-0.235352	0.156250	0.942383	-3.710000	6.020000	0.350000	1162.00	-0.01	-0.17	1.75	1.25	1.50	1.25	0.50	1.25	0.75	0.75	1.00	0.75	1.00	0.75	1.25	1.50	1.25	1.00	-0.361816	0.097168	0.825195	-29.540001	11.830000	-17.780001	200.00	0.01	-0.06
0.44	7.25	7.75	7.00	8.25	2.50	8.25	1.50	9.75	3.25	4.25	7.75	10.25	14.50	3.25	1.50	4.00	-0.234863	0.158691	0.934082	-3.920000	5.950000	0.350000	1169.00	-0.01	-0.17	2.00	1.25	1.50	1.50	0.50	1.25	0.75	0.75	1.25	0.75	1.00	1.00	1.00	1.50	1.00	0.75	-0.335449	0.139648	0.851074	-29.750000	11.690000	-13.440001	206.00	-0.01	-0.05
0.45	7.25	7.75	6.75	8.25	2.75	8.25	1.50	9.75	3.50	4.25	7.75	10.00	14.25	3.00	1.75	4.25	-0.237793	0.154297	0.937012	-4.060000	4.970000	0.630000	1170.00	-0.01	-0.17	1.75	1.25	1.50	1.25	0.75	1.00	0.75	0.75	1.25	1.00	1.00	0.75	1.25	1.50	1.25	1.25	-0.326660	0.161621	0.856445	-27.090000	9.450000	-7.700000	208.00	0.02	-0.05
0.46	7.25	7.50	6.75	8.25	2.50	8.25	1.50	9.75	2.75	3.75	7.75	10.00	14.25	3.25	1.50	4.00	-0.233887	0.154785	0.943359	-3.990000	4.550000	0.770000	1146.00	-0.02	-0.17	2.25	1.00	1.50	1.25	0.50	1.25	0.75	0.75	1.50	1.00	0.75	0.50	0.75	1.50	1.50	1.00	-0.294922	0.156250	0.838867	-22.049999	3.570000	7.140000	206.00	0.01	-0.03
0.47	7.25	7.50	6.75	8.25	2.50	8.00	1.50	9.75	3.00	4.25	7.75	10.00	14.25	3.00	1.50	4.00	-0.234863	0.157715	0.936035	-4.130000	4.200000	0.910000	1150.00	-0.01	-0.17	1.75	1.00	1.50	1.25	0.50	1.25	0.75	0.75	1.25	1.00	1.00	0.75	0.75	1.75	1.25	1.00	-0.312012	0.141113	0.839355	-22.680000	2.380000	15.960000	202.00	0.02	-0.04
0.48	7.25	8.00	7.25	8.25	2.25	8.25	1.50	9.50	3.00	4.25	7.75	10.00	14.00	3.25	1.50	3.75	-0.228516	0.156738	0.927734	-4.340000	3.640000	0.980000	1155.00	-0.02	-0.17	1.75	1.25	1.50	1.50	0.75	1.00	0.75	0.75	1.00	1.00	0.75	0.75	1.00	1.50	1.25	1.25	-0.305664	0.125977	0.823730	-25.059999	1.540000	25.200001	202.00	0.00	-0.06
0.49	7.25	8.00	7.00	8.50	2.50	8.25	1.50	9.50	3.00	4.00	8.00	10.00	14.00	3.25	1.75	3.75	-0.226074	0.158691	0.930176	-4.480000	3.150000	0.910000	1161.00	-0.02	-0.17	1.75	1.00	1.50	1.50	0.75	1.25	0.75	0.75	1.25	1.00	0.75	0.75	1.00	1.50	1.25	1.25	-0.317383	0.108887	0.811523	-28.210001	0.910000	34.090000	206.00	0.01	-0.05
0.50	7.50	7.75	7.25	8.25	2.50	8.25	1.50	9.50	2.75	4.00	7.75	10.00	14.00	3.00	1.75	3.50	-0.233398	0.151367	0.932617	-4.690000	3.010000	0.770000	1151.00	-0.02	-0.17	1.75	1.50	1.50	1.25	0.50	1.00	0.75	0.75	1.25	0.75	1.00	1.25	1.00	1.50	1.00	1.00	-0.332520	0.104492	0.789551	-30.660000	1.050000	41.930000	204.00	0.01	-0.06
0.51	7.50	8.25	7.25	8.25	2.50	8.25	1.50	9.50	3.00	4.25	7.75	10.00	14.00	3.00	1.50	3.75	-0.226562	0.149902	0.933594	-4.550000	2.940000	0.770000	1161.00	-0.02	-0.17	1.75	1.25	1.50	1.25	0.50	1.00	0.75	1.00	1.00	1.00	0.75	0.75	1.25	1.50	1.25	1.00	-0.338867	0.106934	0.763184	-31.780001	2.520000	47.599998	201.00	0.01	-0.06
0.52	7.50	8.00	7.00	8.50	2.50	8.25	1.50	9.50	3.25	4.00	7.75	10.00	14.00	3.25	1.50	4.00	-0.229980	0.150879	0.938477	-3.990000	2.940000	0.700000	1163.00	-0.02	-0.17	1.75	1.25	1.50	1.50	0.50	1.25	0.75	0.75	1.00	0.75	1.00	1.00	1.25	1.25	1.25	1.00	-0.357422	0.104492	0.757812	-31.570000	5.110000	51.310001	204.00	0.00	-0.07
0.53	8.00	8.25	7.25	8.25	2.50	8.25	1.50	9.50	2.75	4.25	7.75	10.00	14.25	3.00	1.75	3.75	-0.231934	0.153320	0.937500	-3.920000	3.710000	0.630000	1168.00	-0.02	-0.17	1.50	1.25	1.50	1.50	0.75	1.00	0.75	0.75	1.00	1.00	0.75	0.75	1.00	1.25	1.00	1.25	-0.370117	0.113770	0.754395	-29.680000	8.400000	52.709999	194.00	-0.00	-0.06
0.54	7.75	8.25	7.25	8.25	2.50	8.25	1.75	9.75	2.75	4.50	8.00	10.25	14.00	3.25	1.75	3.75	-0.227051	0.150391	0.937988	-3.500000	4.060000	0.840000	1182.00	-0.02	-0.17	1.75	1.50	1.75	1.50	0.75	1.00	0.75	0.75	1.25	1.00	1.00	0.75	1.25	1.50	1.25	1.00	-0.388184	0.121094	0.752441	-26.389999	12.320000	51.799999	215.00	0.00	-0.05
0.55	7.50	8.00	7.25	8.25	2.50	8.25	1.75	9.50	3.00	4.25	8.00	10.25	14.25	3.25	1.75	3.75	-0.231445	0.155273	0.934082	-3.360000	4.550000	0.980000	1176.00	-0.02	-0.17	1.75	1.25	1.50	1.50	0.75	1.25	0.75	0.75	1.25	0.75	0.75	0.75	1.25	1.50	1.25	1.25	-0.400879	0.119629	0.760742	-21.280001	15.680000	49.279999	208.00	0.00	-0.06
0.56	7.75	8.00	7.00	8.25	2.75	8.25	1.75	9.50	3.25	4.25	8.00	10.25	14.25	3.25	1.25	4.00	-0.229492	0.150879	0.939453	-3.150000	4.900000	0.980000	1178.00	-0.02	-0.16	1.75	1.50	1.50	1.50	0.75	1.25	0.75	0.75	1.00	1.00	0.75	1.00	1.00	1.50	1.50	1.00	-0.426270	0.123047	0.771484	-15.050000	19.040001	45.009998	212.00	0.00	-0.06
0.57	7.50	8.00	7.00	8.25	2.75	8.25	1.75	9.75	3.75	4.25	8.00	10.25	14.25	3.50	1.75	4.00	-0.232422	0.152344	0.936035	-3.220000	5.320000	0.840000	1195.00	-0.01	-0.16	2.25	1.25	1.50	1.50	0.50	1.25	0.75	0.75	1.25	1.00	0.75	1.00	1.25	1.25	1.25	1.00	-0.491699	0.145508	0.847656	-0.560000	20.230000	32.830002	213.00	-0.01	-0.06
0.58	7.50	8.00	7.00	8.25	2.75	8.25	1.75	9.75	3.50	4.75	8.25	10.25	14.25	3.25	1.75	4.25	-0.225098	0.147949	0.937988	-3.500000	5.460000	0.770000	1199.00	-0.01	-0.16	2.00	1.25	1.50	1.50	0.50	1.25	0.75	0.50	1.25	0.75	0.75	0.75	1.00	1.50	1.25	1.00	-0.520996	0.150879	0.859375	6.790000	16.940001	25.340000	200.00	-0.00	-0.04
0.59	7.75	7.75	7.00	8.25	2.50	8.25	1.75	9.75	3.25	4.75	8.25	10.50	14.25	3.75	1.75	4.00	-0.231445	0.154297	0.936035	-4.130000	5.880000	0.280000	1199.00	-0.01	-0.16	2.00	1.25	1.50	1.50	0.50	1.00	0.75	0.75	1.25	0.75	0.75	0.75	1.00	1.25	1.25	1.00	-0.555664	0.164551	0.830078	14.630000	12.810000	16.730000	199.00	-0.01	-0.05
0.60	7.50	7.75	6.75	8.00	2.50	8.00	1.75	9.75	3.75	4.25	8.50	10.50	14.25	3.75	2.00	3.75	-0.229004	0.152344	0.939453	-4.550000	6.510000	0.070000	1192.00	-0.01	-0.16	0.75	0.00	0.50	0.25	0.00	0.00	0.50	0.00	0.00	0.00	0.00	0.00	0.00	0.00	0.00	0.00	0.147949	-0.113770	2.857422	61.810001	71.680000	4.900000	26.00	0.00	0.00
0.61	7.25	7.75	6.75	8.00	2.50	8.00	1.75	9.75	3.75	5.25	8.50	10.75	14.50	3.75	2.00	4.00	-0.220215	0.152832	0.941406	-4.900000	7.350000	-0.210000	1208.00	-0.00	-0.16	0.75	0.75	0.75	0.75	0.00	0.00	0.50	0.00	0.00	0.00	0.00	0.00	0.00	0.00	0.00	0.00	-0.258301	0.189941	1.095703	-4.550000	24.780001	-0.140000	42.00	0.00	0.00
0.62	7.00	7.50	6.50	8.00	3.00	7.75	2.00	9.50	4.00	5.25	8.75	10.75	14.50	4.25	2.00	4.25	-0.234863	0.151367	0.949219	-5.530000	8.960000	0.000000	1215.00	0.00	-0.16	2.25	1.50	1.00	1.00	0.25	0.00	0.50	0.00	0.00	0.00	0.00	0.00	0.00	0.00	0.00	0.00	-0.233398	-0.132812	1.033203	3.430000	-32.619999	2.520000	76.00	-0.30	0.01
0.63	6.75	7.25	6.50	7.75	2.50	7.75	2.00	9.50	4.00	5.75	8.75	10.75	14.25	4.25	2.00	4.25	-0.231445	0.159180	0.951172	-5.880000	10.850000	-0.140000	1204.00	0.01	-0.16	3.75	2.00	1.50	1.25	0.50	0.00	0.75	0.00	0.00	0.00	0.00	0.00	0.00	0.00	0.00	0.00	-0.161133	0.007812	0.540039	10.010000	-22.750000	-5.530000	114.00	-0.30	0.03
0.64	6.50	6.75	6.25	7.50	2.75	7.75	2.00	9.50	4.25	5.50	8.75	10.75	14.25	4.25	2.00	4.25	-0.220215	0.164062	0.954590	-6.090000	13.230000	-1.050000	1194.00	0.01	-0.16	4.50	2.25	2.25	1.50	0.50	0.00	0.75	0.00	0.00	0.00	0.25	0.00	0.00	0.25	0.00	0.00	-0.195801	0.216797	1.010742	11.410000	12.880000	-8.330000	143.00	-0.28	0.03
0.65	6.25	6.75	6.25	7.25	2.25	7.25	2.00	9.25	4.50	6.00	9.00	10.75	14.25	4.50	2.25	4.25	-0.231934	0.150879	0.955078	-5.950000	15.890000	-1.820000	1189.00	0.02	-0.15	5.00	3.25	2.75	2.00	0.75	0.00	0.75	0.00	0.00	0.00	0.00	0.25	0.00	0.50	0.00	0.00	-0.245605	0.208496	1.412598	7.560000	13.860000	-4.130000	176.00	-0.28	0.01
0.66	5.75	6.50	5.75	7.00	2.00	7.50	2.00	9.25	4.50	6.00	9.00	10.75	14.00	4.50	2.25	4.25	-0.235840	0.150879	0.953125	-6.090000	18.620001	-2.100000	1169.00	0.02	-0.16	5.25	3.50	3.25	2.00	0.75	0.00	0.75	0.00	0.00	0.00	0.25	0.00	0.00	0.50	0.00	0.00	-0.229492	0.120605	0.995605	-0.420000	0.980000	-1.750000	187.00	-0.29	0.01
0.67	5.75	6.00	5.75	6.50	2.25	7.00	2.00	9.00	4.75	6.75	9.25	10.75	14.00	5.00	2.00	4.50	-0.237793	0.146973	0.947754	-6.300000	21.070000	-2.240000	1169.00	0.03	-0.15	5.75	3.75	3.50	2.25	0.75	0.00	0.75	0.00	0.00	0.00	0.25	0.00	0.00	0.25	0.00	0.00	-0.239258	0.121094	1.025391	-2.520000	-2.170000	-2.100000	199.00	-0.30	0.01
0.68	5.25	5.50	5.00	6.00	1.75	6.25	2.00	9.00	5.00	7.00	9.25	10.75	14.00	5.00	2.25	4.50	-0.241699	0.151367	0.943848	-6.720000	24.150000	-2.730000	1138.00	0.05	-0.15	6.00	4.25	3.75	2.50	0.75	0.00	0.75	0.00	0.00	0.00	0.25	0.00	0.00	0.50	0.00	0.00	-0.230469	0.137695	1.035645	1.540000	-6.230000	-0.770000	215.00	-0.30	0.01
0.69	5.00	5.25	4.50	5.25	1.50	6.00	1.75	8.75	4.50	7.00	9.25	10.75	13.75	5.00	2.50	4.25	-0.246582	0.155273	0.941895	-7.070000	26.530001	-3.080000	1095.00	0.05	-0.15	6.25	5.00	4.00	3.00	0.75	0.00	0.50	0.00	0.00	0.00	0.00	0.00	0.00	0.25	0.00	0.00	-0.220703	0.112793	1.042480	10.920000	-14.840000	1.820000	225.00	-0.32	-0.01
0.70	4.25	5.00	4.00	5.25	1.50	5.25	1.75	8.50	5.00	7.25	9.50	10.75	13.50	5.00	2.25	4.00	-0.265625	0.122070	0.935059	-7.350000	27.370001	-3.360000	1071.00	0.06	-0.15	7.00	5.75	4.25	3.25	0.75	0.00	0.50	0.25	0.00	0.00	0.00	0.00	0.00	0.00	0.00	0.00	-0.167480	0.111328	1.156738	39.200001	-41.580002	5.110000	249.00	-0.33	-0.02
0.71	4.00	4.00	3.50	4.75	1.25	4.75	1.75	8.25	5.00	7.50	9.50	10.50	13.50	5.25	2.25	4.50	-0.253906	0.150879	0.935059	-6.720000	28.210001	-3.220000	1038.00	0.07	-0.15	7.25	6.00	4.50	3.25	0.50	0.00	0.50	0.00	0.00	0.00	0.00	0.00	0.00	0.25	0.00	0.00	-0.183594	0.095215	1.065918	48.650002	-55.090000	5.390000	253.00	-0.33	-0.01
0.72	3.75	4.00	3.50	3.50	1.00	3.75	1.50	8.00	5.25	7.50	9.50	10.75	13.25	5.50	2.00	4.50	-0.230957	0.198730	0.949219	-5.670000	28.910000	-3.290000	1001.00	0.09	-0.15	8.25	6.75	4.50	3.25	0.50	0.00	0.50	0.00	0.00	0.00	0.00	0.00	0.00	0.50	0.00	0.00	-0.199707	0.138184	1.077637	48.439999	-55.650002	4.060000	274.00	-0.33	-0.01
0.73	3.25	3.50	3.00	4.25	1.00	3.25	1.50	7.75	5.25	7.50	9.50	10.50	13.25	5.50	2.00	4.25	-0.255859	0.122070	0.951172	0.210000	37.099998	-4.900000	978.00	0.09	-0.15	8.50	7.25	4.25	3.75	0.50	0.00	0.50	0.00	0.00	0.00	0.00	0.00	0.00	0.00	0.00	0.00	-0.159180	0.175781	1.005371	49.070000	-57.680000	4.130000	280.00	-0.34	-0.02
0.74	3.25	3.00	2.50	4.00	0.75	3.00	1.50	7.75	5.75	7.75	9.75	10.50	13.00	5.50	2.25	4.00	-0.272949	0.144531	0.929199	2.800000	40.110001	-5.320000	970.00	0.10	-0.14	9.25	8.50	4.50	3.75	0.25	0.00	0.50	0.00	0.00	0.00	0.00	0.00	0.00	0.00	0.00	0.00	-0.146973	0.195801	0.969727	46.759998	-58.799999	4.620000	301.00	-0.35	-0.02
0.75	2.75	3.25	2.25	4.00	0.75	2.75	1.25	7.50	5.50	7.75	9.75	10.50	12.75	5.50	2.25	4.25	-0.286621	0.144531	0.920898	4.620000	40.670002	-5.040000	948.00	0.10	-0.15	9.50	9.00	4.50	4.00	0.25	0.00	0.25	0.00	0.00	0.00	0.00	0.00	0.00	0.25	0.00	0.00	-0.126465	0.260742	0.950195	40.950001	-58.869999	6.090000	310.00	-0.35	-0.02
0.76	3.00	1.50	2.50	2.50	0.75	1.75	1.25	7.25	6.25	7.75	9.75	10.25	12.25	5.50	2.00	4.25	-0.293945	0.149414	0.929199	6.860000	40.389999	-4.830000	903.00	0.12	-0.14	10.75	9.50	4.50	4.25	0.25	0.00	0.25	0.00	0.00	0.00	0.00	0.00	0.00	0.00	0.00	0.00	-0.139160	0.171387	1.102051	23.799999	-56.490002	7.000000	330.00	-0.36	-0.02
0.77	1.50	1.50	1.25	2.25	0.75	2.00	1.00	6.75	6.00	8.00	9.50	10.25	12.25	5.50	2.00	4.25	-0.291016	0.145508	0.921875	11.550000	38.920002	-4.480000	855.00	0.14	-0.14	12.25	10.25	5.00	4.50	0.50	0.00	0.25	0.00	0.00	0.00	0.00	0.25	0.00	0.00	0.00	0.00	-0.133789	0.241211	0.919434	9.590000	-56.070000	5.110000	370.00	-0.35	-0.02
0.78	2.50	1.50	1.75	2.25	0.25	1.25	1.00	6.75	6.00	7.75	9.75	10.25	12.25	5.75	2.00	4.25	-0.302246	0.152344	0.922363	12.040000	40.670002	-4.410000	859.00	0.14	-0.14	13.25	11.25	5.00	4.50	0.25	0.00	0.25	0.00	0.00	0.00	0.00	0.00	0.00	0.00	0.00	0.00	-0.071289	0.242188	0.798340	2.170000	-51.660000	4.830000	385.00	-0.36	-0.02
0.79	1.75	2.25	1.50	2.75	0.25	0.75	0.75	6.00	6.25	8.00	9.75	10.25	12.25	5.75	2.25	4.00	-0.296875	0.148438	0.917969	11.830000	42.700001	-4.620000	847.00	0.14	-0.14	14.50	12.25	5.25	4.75	0.25	0.00	0.25	0.00	0.00	0.00	0.00	0.00	0.00	0.25	0.00	0.00	-0.046387	0.267090	0.751953	-2.520000	-42.560001	5.950000	418.00	-0.36	-0.02
0.80	2.00	2.00	0.75	3.00	0.50	1.00	0.75	5.50	6.25	8.00	9.75	10.25	12.00	5.50	2.50	4.00	-0.310059	0.152344	0.922852	12.810000	44.660000	-4.690000	837.00	0.15	-0.14	15.50	13.50	5.25	5.00	0.25	0.00	0.25	0.00	0.00	0.00	0.00	0.00	0.00	0.00	0.00	0.00	-0.059570	0.241211	0.852539	-5.040000	-32.759998	7.700000	442.00	-0.37	-0.02
0.81	1.00	1.50	1.25	2.75	0.00	0.25	0.75	5.75	5.75	8.25	9.75	10.25	11.75	5.75	2.00	3.50	-0.317871	0.151855	0.925293	13.510000	46.060001	-4.550000	800.00	0.16	-0.14	16.75	14.25	5.50	5.25	0.25	0.00	0.25	0.00	0.00	0.00	0.00	0.25	0.00	0.00	0.00	0.00	-0.072266	0.114258	0.925293	-9.310000	-22.469999	6.510000	473.00	-0.36	-0.02
0.82	1.00	0.50	0.00	1.00	0.00	0.25	0.75	4.75	6.00	8.25	10.00	10.25	11.50	5.75	2.25	3.75	-0.321777	0.174316	0.927246	14.140000	47.250000	-4.550000	745.00	0.19	-0.13	18.25	16.00	5.75	5.25	0.25	0.00	0.25	0.00	0.00	0.00	0.00	0.00	0.00	0.00	0.00	0.00	-0.064453	0.130371	0.945312	-9.590000	-20.440001	3.500000	508.00	-0.37	-0.02
0.83	1.00	0.75	0.00	0.50	0.00	0.50	0.50	4.00	6.25	8.25	9.75	10.25	11.50	5.75	2.00	4.00	-0.328125	0.167969	0.926758	14.700000	48.790001	-4.760000	727.00	0.20	-0.13	18.75	16.25	6.25	5.50	0.25	0.00	0.25	0.00	0.00	0.00	0.00	0.25	0.00	0.25	0.00	0.00	-0.038574	0.172852	0.848145	-7.770000	-17.780001	1.960000	530.00	-0.36	-0.02
0.84	1.50	0.50	0.00	0.75	0.00	0.00	0.25	4.00	6.25	8.00	9.75	10.25	11.50	5.75	1.75	3.75	-0.340820	0.169922	0.916992	15.330000	50.889999	-4.760000	716.00	0.19	-0.13	19.75	17.25	6.25	5.75	0.25	0.00	0.25	0.00	0.00	0.00	0.00	0.00	0.00	0.00	0.00	0.00	-0.036621	0.268555	0.822754	-2.450000	-9.660000	4.060000	550.00	-0.37	-0.02
0.85	1.25	1.00	0.25	0.75	0.00	0.00	0.25	3.75	6.25	8.25	10.00	10.00	11.25	6.00	2.00	4.00	-0.350098	0.160645	0.925781	16.100000	54.040001	-4.550000	724.00	0.19	-0.12	20.50	18.00	6.50	6.00	0.25	0.00	0.25	0.00	0.00	0.00	0.00	0.00	0.25	0.25	0.00	0.00	-0.030762	0.212402	0.868164	2.450000	-0.770000	8.260000	576.00	-0.36	-0.02
0.86	0.25	1.00	0.00	0.75	0.00	0.00	0.00	3.25	6.25	8.25	10.00	10.25	11.25	5.75	2.00	4.00	-0.354492	0.165527	0.926270	16.379999	58.170002	-4.410000	698.00	0.21	-0.13	21.75	19.00	6.75	6.50	0.25	0.00	0.25	0.00	0.00	0.00	0.00	0.00	0.00	0.25	0.00	0.00	-0.061523	0.156250	0.951172	5.950000	3.080000	9.730000	607.00	-0.37	-0.02
0.87	0.50	0.50	0.00	1.25	0.00	0.00	0.25	2.25	6.50	8.25	9.75	10.00	11.00	6.00	2.00	3.50	-0.365234	0.162109	0.904297	16.030001	63.420002	-4.340000	684.00	0.21	-0.12	22.00	19.50	7.00	7.00	0.25	0.00	0.25	0.00	0.00	0.00	0.00	0.00	0.00	0.25	0.00	0.00	-0.055664	0.113770	0.905273	7.980000	4.340000	8.120000	624.00	-0.37	-0.02
0.88	0.75	0.00	0.00	0.75	0.00	0.25	0.00	2.00	6.00	8.25	10.00	10.00	10.75	6.00	2.00	3.75	-0.375977	0.180664	0.930664	16.030001	69.860001	-4.340000	666.00	0.22	-0.12	22.25	19.00	7.25	7.50	0.25	0.00	0.25	0.00	0.00	0.00	0.00	0.00	0.25	0.25	0.00	0.00	-0.033203	0.149414	0.856934	10.080000	8.260000	4.900000	633.00	-0.36	-0.03
0.89	1.25	0.25	0.00	0.50	0.00	0.00	0.00	1.50	5.75	8.25	9.75	10.00	11.00	6.00	1.75	3.50	-0.396973	0.180664	0.965332	16.240000	89.040001	-6.230000	651.00	0.22	-0.11	23.00	20.50	7.50	7.50	0.50	0.00	0.25	0.00	0.00	0.00	0.00	0.25	0.00	0.00	0.00	0.00	-0.035645	0.196289	0.837402	12.040000	13.860000	3.430000	661.00	-0.36	-0.03
0.90	0.00	1.00	0.00	0.00	0.00	0.25	0.00	1.75	5.75	8.00	9.75	9.75	10.25	6.00	2.00	3.75	-0.421875	0.200684	0.981934	15.400000	100.169998	-7.280000	637.00	0.22	-0.12	23.50	20.75	7.50	8.00	0.50	0.25	0.25	0.00	0.00	0.00	0.00	0.00	0.25	0.00	0.00	0.00	-0.056152	0.228516	0.873047	11.690000	19.389999	3.080000	678.00	-0.36	-0.03
0.91	0.25	0.75	0.00	0.50	0.00	0.00	0.00	1.00	5.75	8.25	9.75	9.75	10.00	6.25	2.00	3.25	-0.421387	0.192383	1.031738	12.670000	111.300003	-9.030000	628.00	0.23	-0.11	23.50	21.75	8.00	8.50	0.50	0.25	0.25	0.25	0.00	0.00	0.00	0.25	0.25	0.50	0.00	0.00	-0.068359	0.222656	0.863281	9.030000	24.780001	3.220000	712.00	-0.35	-0.03
0.92	1.00	0.50	0.75	1.50	0.00	0.25	0.00	1.25	5.75	8.25	9.75	9.50	10.00	6.50	2.00	3.50	-0.463867	0.222656	1.000000	8.890000	123.199997	-11.060000	663.00	0.20	-0.11	24.25	22.25	8.50	9.00	0.50	0.50	0.25	0.25	0.00	0.00	0.25	0.00	0.00	0.25	0.00	0.00	-0.056152	0.169922	0.852051	1.890000	38.639999	1.050000	736.00	-0.36	-0.03
0.93	1.25	1.00	0.50	1.50	0.25	0.25	0.00	1.00	5.75	8.00	9.50	9.50	9.50	6.25	2.25	3.50	-0.471191	0.211426	1.039551	6.440000	136.850006	-13.300000	657.00	0.20	-0.10	25.25	22.50	8.75	9.25	0.50	0.50	0.25	0.25	0.00	0.00	0.00	0.25	0.50	0.00	0.00	0.25	-0.056152	0.169922	0.852051	1.890000	38.639999	1.050000	759.00	-0.35	-0.04
0.94	1.00	1.75	0.25	1.25	0.00	0.50	0.00	1.00	5.75	8.00	9.50	9.00	8.75	6.25	2.25	3.25	-0.495117	0.207520	1.083984	5.040000	147.839996	-14.490000	641.00	0.20	-0.10	25.50	23.25	9.00	9.50	0.75	1.00	0.25	0.50	0.00	0.00	0.25	0.00	0.25	0.25	0.00	0.00	-0.111328	0.333496	0.967773	-20.440001	35.630001	-2.100000	787.00	-0.35	-0.04
0.95	1.25	0.50	0.25	1.00	0.25	0.00	0.00	1.00	5.25	8.00	9.25	8.75	8.25	6.50	1.75	3.25	-0.523438	0.217773	1.002930	2.590000	162.960007	-16.030001	604.00	0.21	-0.09	26.00	23.75	9.25	10.00	0.50	1.00	0.50	0.25	0.00	0.00	0.00	0.25	0.50	0.25	0.00	0.00	-0.197754	0.235840	1.044434	-24.219999	28.420000	1.750000	806.00	-0.35	-0.04
0.96	1.50	0.50	0.00	1.50	0.00	1.00	0.00	1.50	5.25	8.00	9.25	8.50	7.75	6.75	1.75	3.00	-0.531250	0.250488	1.013672	-0.490000	178.990005	-19.460001	621.00	0.20	-0.10	26.75	24.50	9.75	10.75	0.75	1.25	0.50	0.50	0.00	0.00	0.25	0.25	0.25	0.25	0.00	0.00	-0.121094	0.188965	0.969238	-26.320000	29.680000	3.220000	848.00	-0.35	-0.04
0.97	0.75	1.00	0.00	0.25	0.00	0.00	0.00	0.25	5.00	7.75	8.75	8.25	6.50	6.50	2.00	2.50	-0.572266	0.237793	1.054199	-4.620000	193.690002	-23.660000	540.00	0.23	-0.08	27.75	25.00	10.00	11.25	1.00	1.25	0.50	0.50	0.00	0.00	0.50	0.50	0.50	0.25	0.00	0.00	-0.125488	0.156250	1.114746	-32.340000	28.000000	2.730000	885.00	-0.34	-0.04
0.98	1.25	1.50	0.25	0.50	0.00	1.00	0.00	0.50	4.75	7.75	8.50	7.75	5.25	6.75	1.50	2.25	-0.638184	0.234375	1.117188	-13.860000	205.940002	-28.070000	544.00	0.20	-0.07	28.25	26.00	10.25	11.75	1.00	1.50	0.50	0.50	0.00	0.00	0.50	0.50	0.75	0.50	0.00	0.25	-0.146973	0.163086	1.036133	-36.049999	20.510000	1.330000	919.00	-0.34	-0.04
0.99	1.00	0.50	0.50	1.25	0.25	0.75	0.00	0.00	4.50	7.50	8.25	7.50	4.00	6.75	1.50	1.75	-0.651367	0.265137	1.077148	-20.510000	218.399994	-32.410000	508.00	0.21	-0.06	29.25	26.50	10.75	12.25	1.25	1.25	0.50	0.75	0.00	0.00	0.50	0.50	0.75	0.25	0.25	0.25	-0.148926	0.165039	0.994629	-37.939999	15.540000	-0.000000	952.00	-0.34	-0.04
1.00	1.25	2.00	1.00	1.25	0.25	1.00	0.00	0.25	5.00	7.50	8.00	6.75	2.50	6.25	1.50	1.50	-0.790039	0.402832	1.301758	-17.780001	229.040009	-34.650002	515.00	0.17	-0.04	30.00	27.00	11.25	12.75	1.25	2.00	0.50	0.75	0.00	0.00	0.50	0.50	0.50	0.50	0.25	0.25	-0.126465	0.161621	0.981445	-39.549999	12.460000	-0.350000	986.00	-0.33	-0.04
1.01	1.25	1.25	0.50	1.00	0.25	0.00	0.00	0.00	3.00	6.75	7.50	5.50	2.25	5.75	1.00	1.00	-0.845703	0.177734	1.130859	-18.969999	229.809998	-40.599998	409.00	0.19	-0.04	30.25	27.75	11.75	13.25	1.50	2.25	0.50	0.75	0.00	0.00	0.25	0.75	1.00	0.50	0.25	0.00	-0.129883	0.152832	1.005859	-41.720001	10.010000	-1.050000	1018.00	-0.33	-0.05
1.02	0.50	0.75	0.50	0.50	0.25	1.25	0.00	0.75	2.00	6.50	6.25	5.00	1.25	5.25	0.75	0.50	-0.845703	0.177734	1.130859	-18.969999	229.809998	-40.599998	360.00	0.19	-0.06	31.25	28.00	12.25	13.75	1.50	2.25	0.50	1.00	0.00	0.00	0.50	0.50	0.50	0.50	0.25	0.25	-0.140625	0.148926	1.002441	-40.110001	6.090000	-1.610000	1045.00	-0.33	-0.05
1.03	0.25	0.00	0.25	0.75	0.00	0.00	0.00	0.00	2.00	5.50	5.75	4.25	1.00	4.50	1.00	0.75	-0.930664	0.437500	1.267578	-19.040001	231.210007	-39.060001	288.00	0.24	-0.04	31.75	29.00	12.50	14.00	1.75	2.25	0.75	1.00	0.00	0.00	0.50	0.50	1.25	0.50	0.25	0.25	-0.135254	0.163086	0.976074	-39.340000	3.920000	-2.240000	1081.00	-0.33	-0.05
1.04	0.75	0.00	1.00	0.75	0.50	2.00	0.00	0.00	1.75	5.25	4.75	4.75	0.00	4.25	1.50	1.25	-0.841797	0.235352	1.550293	2.240000	197.750000	-43.049999	318.00	0.18	-0.05	32.50	29.00	13.00	14.50	2.00	2.75	0.75	1.00	0.00	0.25	0.50	0.25	0.50	1.00	0.25	0.25	-0.129883	0.172363	0.952637	-40.740002	4.130000	-2.030000	1108.00	-0.33	-0.04
1.05	0.50	0.00	0.00	0.75	0.00	0.75	0.00	1.00	1.50	4.75	4.00	3.50	0.00	1.50	0.50	0.25	-0.804688	0.150391	1.282227	-18.900000	167.020004	-48.860001	223.00	0.18	-0.07	32.75	29.25	13.25	14.75	2.25	2.75	0.75	1.25	0.00	0.25	0.75	0.75	0.50	1.00	0.00	0.25	-0.134277	0.157227	0.962402	-42.910000	5.530000	-1.540000	1132.00	-0.32	-0.04
1.06	1.00	0.00	0.25	0.25	0.00	0.25	0.00	0.00	0.75	4.50	3.50	2.50	0.00	0.75	0.25	0.50	-0.530762	0.206055	0.949707	-50.400002	136.500000	-48.790001	164.00	0.17	-0.04	33.00	29.50	13.75	15.00	2.25	3.00	0.75	1.00	0.00	0.25	0.75	0.75	1.00	1.00	0.00	0.00	-0.130371	0.117676	0.963867	-34.720001	5.810000	-1.330000	1149.00	-0.32	-0.05
1.07	1.00	0.50	0.25	0.25	0.00	0.50	0.00	0.25	1.00	3.25	2.75	2.00	0.25	0.50	0.25	0.50	0.203125	0.388184	1.285156	-76.860001	115.989998	-50.470001	151.00	0.13	-0.06	33.25	30.00	13.75	14.75	2.50	3.00	0.75	1.25	0.25	0.50	1.25	1.00	1.25	1.00	0.25	0.25	-0.130371	0.134277	0.971680	-31.710001	7.630000	-0.980000	1182.00	-0.31	-0.05
1.08	0.00	0.00	0.00	0.00	0.00	0.00	0.25	0.00	0.50	2.75	2.25	1.75	0.00	0.25	0.00	0.25	0.388184	0.465332	1.517090	-77.910004	82.250000	-45.849998	92.00	0.23	-0.04	33.75	29.75	14.25	15.50	2.50	3.50	1.00	1.50	0.25	0.25	0.75	1.00	1.25	0.75	0.25	0.25	-0.126953	0.116699	0.992188	-28.630001	9.520000	-0.770000	1204.00	-0.31	-0.05
1.09	0.00	0.00	0.00	0.00	0.00	0.00	0.25	0.00	0.50	2.25	1.50	1.00	0.00	0.25	0.00	0.25	0.901367	0.517090	1.529785	-61.740002	40.250000	-38.990002	69.00	0.23	-0.01	33.25	29.50	14.00	15.25	2.75	3.50	1.00	1.50	0.25	0.50	1.00	1.00	1.25	1.00	0.25	0.25	-0.132324	0.112305	0.976074	-24.360001	10.290000	-1.120000	1201.00	-0.31	-0.05
1.10	0.00	0.00	0.00	0.00	0.00	0.00	0.25	0.00	0.00	2.00	1.50	1.00	0.00	0.00	0.00	0.25	0.503906	0.369629	0.829590	-46.759998	8.750000	-31.920000	57.00	0.22	-0.06	33.50	29.00	14.00	15.25	3.00	3.75	1.00	1.50	0.25	0.50	1.00	1.00	1.25	1.25	0.50	0.25	-0.135742	0.120605	0.974121	-21.070000	10.360000	-1.330000	1210.00	-0.30	-0.05
1.11	0.00	0.00	0.00	0.00	0.00	0.00	0.25	0.00	0.00	1.75	1.50	0.75	0.00	0.00	0.00	0.25	0.782227	0.313477	1.042480	-38.500000	-12.670000	-29.960001	51.00	0.22	-0.05	32.50	29.00	13.75	15.25	3.00	3.75	1.00	1.50	0.25	1.00	1.25	1.00	1.25	1.25	0.50	0.25	-0.135742	0.111816	0.969727	-18.830000	11.270000	-1.470000	1204.00	-0.30	-0.05
1.12	0.25	0.00	0.00	0.00	0.00	0.25	0.25	0.00	0.00	2.00	1.25	0.75	0.00	0.25	0.25	0.25	0.544922	0.319336	0.860840	-32.200001	-30.240000	-26.180000	62.00	0.19	-0.04	32.25	28.25	14.00	15.00	3.00	3.75	1.25	1.75	0.00	0.75	1.25	1.00	1.75	1.50	0.50	0.25	-0.138184	0.102539	0.974121	-15.610000	11.410000	-1.680000	1202.00	-0.29	-0.05
1.13	0.00	0.00	0.00	0.00	0.00	0.00	0.25	0.00	0.00	1.50	1.25	1.00	0.00	0.00	0.25	0.00	0.655273	0.269531	0.891602	-34.090000	-44.730000	-25.129999	50.00	0.00	0.00	31.75	28.00	13.50	14.75	3.25	4.00	1.25	2.00	0.25	0.75	1.25	1.00	1.75	1.25	0.50	0.25	-0.145508	0.118164	0.978516	-13.930000	10.430000	-2.030000	1197.00	-0.29	-0.05
1.14	0.00	0.00	0.00	0.00	0.00	0.00	0.25	0.25	0.00	1.75	1.00	0.50	0.00	0.00	0.00	0.25	0.579102	0.351562	0.984863	-33.110001	-64.540001	-23.730000	47.00	0.00	0.00	30.75	27.25	13.50	14.50	3.00	4.00	1.25	2.00	0.25	1.00	1.25	1.25	2.00	1.75	0.25	0.25	-0.135254	0.113281	0.960938	-12.950000	9.170000	-2.240000	1182.00	-0.29	-0.05
1.15	0.25	0.00	0.00	0.00	0.00	0.00	0.25	0.00	0.25	1.25	1.25	0.25	0.00	0.00	0.00	0.00	0.566895	0.333008	0.947754	-29.750000	-87.010002	-20.020000	42.00	0.00	0.00	30.00	26.25	13.25	14.50	3.25	4.00	1.50	2.00	0.50	1.25	1.50	1.50	2.25	1.75	0.50	0.25	-0.136230	0.099609	0.969238	-11.060000	8.680000	-2.520000	1184.00	-0.27	-0.05
1.16	0.00	0.00	0.00	0.00	0.00	0.50	0.25	0.00	0.00	1.00	1.25	0.50	0.00	0.00	0.00	0.25	0.487793	0.326172	0.913574	-25.620001	-107.239998	-14.770000	43.00	0.00	0.00	29.25	25.50	13.00	14.00	3.50	4.00	1.50	2.25	0.25	1.00	1.75	1.75	2.75	2.00	0.50	0.25	-0.156250	0.098633	0.975098	-6.090000	7.700000	-2.380000	1173.00	-0.27	-0.06
1.17	0.00	0.00	0.00	0.00	0.00	0.00	0.25	0.00	0.25	1.25	0.75	0.50	0.00	0.00	0.25	0.25	0.407715	0.318359	0.905273	-21.139999	-124.599998	-8.400000	41.00	0.00	0.00	28.25	25.00	12.75	13.75	3.50	4.00	1.75	2.50	0.75	1.50	1.75	1.50	3.25	1.75	0.50	0.00	-0.156250	0.098633	0.975098	-6.090000	7.700000	-2.380000	1170.00	-0.26	-0.06
1.18	0.00	0.00	0.00	0.25	0.00	0.00	0.25	0.00	0.00	1.00	1.00	0.50	0.00	0.00	0.00	0.25	0.243652	0.294922	0.941406	-12.110000	-153.509995	2.590000	37.00	0.00	0.00	27.75	24.00	12.50	13.75	3.50	4.25	1.75	2.75	0.75	1.50	1.75	1.75	3.25	1.75	0.75	0.25	-0.161621	0.111816	0.971191	-2.660000	6.020000	-1.610000	1165.00	-0.25	-0.06
1.19	0.00	0.00	0.00	0.00	0.00	0.00	0.25	0.00	0.00	1.25	0.75	0.25	0.00	0.00	0.00	0.00	0.161621	0.284180	0.968262	-6.440000	-166.110001	6.720000	30.00	0.00	0.00	26.75	23.50	12.25	13.25	3.25	4.25	2.00	2.75	0.75	2.00	1.50	1.75	3.50	2.00	0.50	0.50	-0.159180	0.101074	0.980469	-1.260000	5.390000	-1.190000	1147.00	-0.25	-0.06
1.20	0.00	0.00	0.00	0.25	0.00	0.00	0.25	0.25	0.00	1.00	1.00	0.25	0.00	0.00	0.00	0.25	0.088867	0.274902	1.019531	-0.770000	-178.080002	10.220000	38.00	0.00	0.00	26.25	22.50	12.25	13.25	3.50	4.50	2.00	3.00	0.75	1.75	2.00	2.00	3.75	2.00	0.50	0.50	-0.155762	0.107422	0.968262	0.210000	4.620000	-0.910000	1150.00	-0.24	-0.06
1.21	0.25	0.00	0.00	0.00	0.00	0.00	0.25	0.00	0.00	1.25	0.50	0.25	0.00	0.00	0.25	0.25	0.015625	0.264160	1.071289	4.480000	-189.210007	12.880000	34.00	0.00	0.00	25.25	22.00	11.75	13.00	3.50	4.75	2.00	3.25	0.75	1.75	2.00	2.00	4.50	2.25	0.75	0.25	-0.151855	0.115234	0.966797	1.120000	3.990000	-0.560000	1142.00	-0.23	-0.07
1.22	0.25	1.00	0.00	0.00	0.00	0.75	0.25	0.00	0.00	1.00	0.50	0.50	0.00	0.00	0.00	0.25	-0.078125	0.254395	1.104492	9.100000	-199.009995	14.140000	50.00	-0.01	-0.10	24.25	21.25	11.75	12.75	3.50	4.75	2.00	3.75	1.00	2.00	2.25	2.00	5.00	2.25	0.75	0.25	-0.153809	0.110352	0.954102	1.610000	3.570000	-0.420000	1142.00	-0.22	-0.07
1.23	0.25	0.00	0.00	0.25	0.00	0.50	0.25	0.25	0.00	1.00	0.25	0.25	0.25	0.00	0.00	0.25	-0.175293	0.247070	1.135254	14.000000	-206.500000	13.930000	41.00	0.00	0.00	23.50	20.50	11.50	12.50	3.50	5.00	2.25	3.75	1.25	1.75	2.25	2.00	5.25	2.25	0.50	0.25	-0.152344	0.106445	0.965820	1.960000	2.940000	-0.280000	1128.00	-0.22	-0.07
1.24	0.25	0.00	0.00	0.00	0.00	0.00	0.25	0.00	0.00	1.00	0.50	0.00	0.00	0.00	0.00	0.25	-0.263184	0.240234	1.166504	18.620001	-211.330002	12.670000	26.00	0.00	0.00	23.00	20.00	11.25	12.25	3.50	5.00	2.25	4.25	1.25	2.00	2.75	2.25	6.00	2.50	0.75	0.50	-0.153809	0.111328	0.967773	2.240000	2.660000	-0.280000	1144.00	-0.20	-0.08
1.25	0.00	0.00	0.00	0.00	0.00	0.00	0.25	0.00	0.00	0.50	0.25	0.00	0.00	0.00	0.00	0.25	-0.351562	0.239746	1.202637	22.750000	-214.059998	11.760000	14.00	0.00	0.00	22.25	19.25	11.00	12.00	3.75	5.25	2.25	4.75	1.25	2.25	2.50	2.50	6.00	2.50	0.75	0.50	-0.151367	0.113281	0.958008	2.170000	2.380000	-0.560000	1140.00	-0.20	-0.08
1.26	0.50	0.25	0.00	0.50	0.00	0.50	0.25	0.50	0.00	0.75	0.00	0.25	0.00	0.00	0.00	0.00	-0.425781	0.254883	1.231934	26.110001	-214.619995	12.040000	44.00	0.00	0.00	21.00	18.25	10.75	12.00	3.50	5.00	2.50	5.00	1.50	2.25	2.75	2.50	6.50	2.50	1.00	0.50	-0.151855	0.117676	0.958984	1.470000	2.310000	-1.120000	1129.00	-0.19	-0.08
1.27	1.00	0.50	0.50	0.75	0.25	0.75	0.25	0.25	0.25	0.75	0.25	0.00	0.00	0.00	0.00	0.25	-0.491699	0.273926	1.268066	27.790001	-213.289993	14.000000	68.00	-0.12	-0.05	20.25	17.75	10.50	11.50	3.75	5.50	2.50	5.25	1.50	2.25	2.75	2.75	7.25	2.50	0.75	0.50	-0.150879	0.116699	0.956543	0.280000	2.590000	-1.260000	1126.00	-0.18	-0.09
1.28	0.00	0.00	0.00	0.00	0.00	0.25	0.25	0.00	0.00	1.00	0.25	0.00	0.00	0.00	0.00	0.25	-0.526367	0.324707	1.319336	28.630001	-210.070007	18.480000	23.00	0.00	0.00	20.25	17.25	10.25	11.50	3.75	5.50	2.75	5.50	1.75	2.25	3.00	3.00	7.25	2.75	1.00	0.50	-0.150391	0.120117	0.961914	-0.770000	2.030000	-1.400000	1141.00	-0.17	-0.09
1.29	0.00	0.00	0.00	0.00	0.00	0.00	0.25	0.00	0.00	0.75	0.25	0.00	0.00	0.00	0.00	0.25	-0.561035	0.369629	1.371582	29.750000	-206.779999	26.040001	17.00	0.00	0.00	19.00	16.25	10.00	11.25	3.75	5.50	2.75	5.50	1.75	2.75	3.25	3.00	7.75	2.75	0.75	0.75	-0.151855	0.118652	0.958008	-1.610000	1.960000	-1.610000	1123.00	-0.16	-0.09
1.30	0.00	0.00	0.00	0.25	0.00	0.00	0.25	0.00	0.00	0.75	0.25	0.25	0.00	0.00	0.00	0.00	-0.572266	0.393066	1.412109	30.940001	-203.419998	35.770000	21.00	0.00	0.00	19.00	15.50	10.00	10.75	4.00	5.75	2.75	5.75	2.00	2.75	3.25	3.25	8.25	3.00	0.75	0.75	-0.151855	0.117676	0.962891	-2.450000	2.030000	-1.750000	1133.00	-0.15	-0.09
1.31	0.00	0.25	0.00	0.00	0.00	0.25	0.25	0.00	0.00	1.00	0.25	0.25	0.00	0.00	0.00	0.25	-0.594727	0.419922	1.429199	32.970001	-200.270004	46.549999	28.00	0.00	0.00	17.75	14.75	9.75	10.50	4.25	5.75	3.00	6.00	2.50	3.00	3.50	3.50	8.50	2.75	1.00	0.75	-0.150391	0.121582	0.956543	-2.800000	2.310000	-1.890000	1135.00	-0.14	-0.09
1.32	0.00	0.00	0.00	0.00	0.00	0.00	0.25	0.00	0.00	0.50	0.25	0.00	0.00	0.00	0.00	0.25	-0.600586	0.412109	1.448730	35.910000	-196.699997	57.540001	14.00	0.00	0.00	17.00	14.00	9.75	10.25	4.25	5.75	3.00	6.00	2.50	3.00	3.75	3.75	9.00	3.25	0.75	1.00	-0.147949	0.114746	0.959473	-3.150000	2.520000	-2.100000	1129.00	-0.13	-0.09
1.33	0.00	0.00	0.00	0.00	0.00	0.50	0.25	0.00	0.00	0.50	0.25	0.00	0.00	0.00	0.00	0.25	-0.631836	0.353516	1.503418	38.849998	-190.190002	76.160004	20.00	0.00	0.00	16.75	13.00	9.50	10.00	4.50	6.00	3.25	6.25	2.50	3.25	3.75	4.00	9.50	3.50	1.00	1.00	-0.151367	0.118164	0.958008	-3.150000	2.730000	-2.100000	1140.00	-0.12	-0.09
1.34	0.00	0.00	0.00	0.00	0.00	0.25	0.25	0.00	0.00	0.50	0.25	0.25	0.00	0.00	0.00	0.25	-0.649902	0.348633	1.509277	36.470001	-186.899994	83.510002	20.00	0.00	0.00	15.75	12.00	9.25	9.75	4.50	5.75	3.25	6.50	2.75	3.75	4.25	4.25	9.75	3.50	1.00	1.25	-0.152832	0.114258	0.960449	-2.800000	3.290000	-2.170000	1136.00	-0.11	-0.10
1.35	0.00	0.50	0.00	0.00	0.00	0.50	0.00	0.00	0.00	0.50	0.25	0.00	0.00	0.00	0.00	0.25	-0.654297	0.345703	1.504883	33.459999	-182.979996	90.300003	21.00	0.00	0.00	14.25	11.25	9.00	9.50	4.50	5.75	3.50	6.50	2.75	3.50	4.75	4.75	10.25	3.50	1.00	1.50	-0.148438	0.109863	0.962402	-1.960000	4.200000	-2.030000	1124.00	-0.10	-0.10
1.36	0.00	0.00	0.00	0.00	0.00	0.25	0.25	0.00	0.00	0.75	0.25	0.00	0.00	0.00	0.00	0.25	-0.654785	0.335449	1.490723	31.150000	-178.850006	96.669998	20.00	0.00	0.00	13.00	10.00	8.75	9.25	4.50	6.00	3.50	6.75	3.25	3.75	5.00	5.25	10.50	4.00	1.00	1.25	-0.150391	0.113770	0.963867	-1.190000	5.530000	-1.750000	1123.00	-0.08	-0.10
1.37	0.00	0.00	0.00	0.00	0.00	0.25	0.25	0.00	0.25	0.75	0.25	0.00	0.00	0.00	0.00	0.25	-0.671875	0.314453	1.473145	29.750000	-174.229996	102.970001	24.00	0.00	0.00	12.25	9.25	8.50	8.75	4.50	5.75	3.75	7.00	3.50	4.00	6.00	6.00	10.75	4.25	1.00	1.50	-0.143555	0.119141	0.966309	-0.350000	7.000000	-1.610000	1136.00	-0.06	-0.10
1.38	0.00	0.00	0.00	0.00	0.00	0.50	0.25	0.00	0.25	0.75	0.25	0.00	0.00	0.00	0.00	0.00	-0.689941	0.265137	1.430176	28.559999	-169.050003	109.410004	25.00	0.00	0.00	10.75	8.25	8.25	8.50	4.25	5.75	3.75	7.00	4.00	4.25	6.25	6.25	11.00	4.50	1.25	2.00	-0.149414	0.109375	0.954590	-0.000000	8.680000	-1.120000	1126.00	-0.04	-0.10
1.39	0.00	0.00	0.00	0.00	0.00	0.00	0.25	0.00	0.00	0.75	0.25	0.00	0.00	0.00	0.00	0.00	-0.716797	0.209961	1.347168	27.510000	-162.470001	115.500000	15.00	0.00	0.00	9.50	7.50	8.00	8.00	4.50	5.75	3.75	7.00	4.50	4.50	7.00	7.25	11.25	4.25	1.50	2.00	-0.148438	0.118652	0.958008	-0.490000	10.220000	-1.330000	1131.00	-0.03	-0.11
1.40	0.00	0.00	0.00	0.00	0.00	0.00	0.25	0.00	0.00	0.75	0.25	0.00	0.00	0.00	0.00	0.00	-0.758789	0.132324	1.288086	29.330000	-153.930008	120.470001	15.00	0.00	0.00	9.00	7.00	7.50	7.50	4.25	5.25	4.00	7.00	4.25	4.75	7.50	7.75	11.50	4.75	1.50	2.00	-0.155273	0.124023	0.956055	-1.260000	11.690000	-2.380000	1121.00	-0.02	-0.11
1.41	0.00	0.00	0.00	0.00	0.00	0.00	0.25	0.00	0.00	0.50	0.00	0.00	0.00	0.00	0.00	0.00	-0.814453	0.022461	1.272461	32.970001	-144.830002	123.620003	10.00	0.00	0.00	8.25	6.50	7.25	7.00	4.00	5.25	4.00	7.25	5.00	5.25	7.75	7.75	11.75	5.50	1.50	2.25	-0.160645	0.120117	0.971191	-3.150000	14.490000	-3.640000	1130.00	-0.00	-0.10
1.42	0.00	0.00	0.00	0.00	0.00	0.00	0.25	0.00	0.00	0.75	0.25	0.00	0.00	0.00	0.00	0.00	-0.849121	-0.082520	1.233887	30.799999	-135.380005	123.550003	15.00	0.00	0.00	7.25	6.00	6.75	6.50	4.00	5.25	4.00	7.25	5.00	5.75	8.00	8.00	12.00	5.50	1.75	2.75	-0.159668	0.120605	0.956543	-3.080000	16.030001	-3.780000	1121.00	0.01	-0.11
1.43	0.00	0.00	0.00	0.00	0.00	0.25	0.25	0.00	0.00	0.50	0.25	0.25	0.00	0.00	0.00	0.25	-0.867188	-0.123535	1.191406	21.000000	-126.000000	119.489998	20.00	0.00	0.00	6.75	5.25	6.25	6.00	3.75	4.75	4.00	7.25	5.50	6.25	8.25	8.25	12.00	5.75	1.75	3.00	-0.159180	0.113281	0.955078	-2.870000	17.219999	-4.060000	1109.00	0.03	-0.11
1.44	0.00	0.00	0.00	0.00	0.00	0.25	0.25	0.00	0.00	0.50	0.25	0.00	0.00	0.00	0.00	0.00	-0.856934	-0.138672	1.127441	10.010000	-117.949997	111.580002	16.00	0.00	0.00	6.25	4.50	6.00	5.50	3.50	4.75	4.00	7.00	5.75	6.75	8.50	8.50	12.25	6.50	1.75	3.25	-0.168945	0.115234	0.964355	-2.380000	18.900000	-4.060000	1106.00	0.04	-0.10
1.45	0.00	0.00	0.00	0.00	0.00	0.00	0.25	0.00	0.00	0.50	0.25	0.00	0.00	0.00	0.00	0.25	-0.873047	-0.138672	1.062500	4.550000	-112.419998	98.769997	14.00	0.00	0.00	6.00	4.25	5.25	5.00	3.25	4.25	4.00	7.00	6.25	7.50	9.00	8.75	12.25	6.75	2.25	3.50	-0.166016	0.113281	0.958984	-2.170000	20.299999	-3.710000	1110.00	0.06	-0.10
1.46	0.00	0.00	0.00	0.00	0.00	0.50	0.25	0.00	0.00	0.75	0.25	0.25	0.00	0.00	0.00	0.25	-0.896973	-0.160645	1.023926	6.300000	-109.760002	80.849998	26.00	0.00	0.00	5.25	3.50	5.00	4.25	3.00	3.50	4.00	6.75	6.50	7.75	9.00	9.00	12.50	7.25	2.50	3.75	-0.171387	0.120117	0.964844	-2.170000	21.840000	-3.500000	1087.00	0.07	-0.10
1.47	0.00	0.00	0.00	0.00	0.00	0.00	0.25	0.00	0.00	0.50	0.25	0.00	0.00	0.00	0.00	0.00	-0.917969	-0.217773	0.904785	9.520000	-108.290001	58.240002	13.00	0.00	0.00	4.75	3.00	4.75	4.00	2.75	2.75	4.00	6.75	7.00	8.00	9.25	9.25	12.50	7.50	2.50	4.25	-0.169922	0.125488	0.960449	-2.030000	23.309999	-3.710000	1079.00	0.09	-0.09
1.48	0.00	0.00	0.00	0.00	0.00	0.00	0.25	0.00	0.00	0.75	0.00	0.00	0.00	0.00	0.00	0.00	-0.933594	-0.271484	0.743652	9.520000	-104.090004	33.180000	13.00	0.00	0.00	4.75	2.25	3.50	3.00	2.50	2.50	4.00	6.75	7.25	8.25	9.75	9.50	12.75	7.75	2.75	4.50	-0.188477	0.126465	0.955078	-1.820000	24.850000	-4.620000	1062.00	0.11	-0.10
1.49	0.00	0.00	0.00	0.00	0.00	0.00	0.25	0.00	0.00	0.50	0.25	0.00	0.00	0.00	0.00	0.00	-0.919434	-0.230469	0.580078	1.050000	-81.199997	-10.780000	13.00	0.00	0.00	3.75	2.00	3.00	3.00	2.00	1.75	4.00	6.50	7.50	8.50	9.75	9.50	13.00	8.25	3.00	5.00	-0.179688	0.130859	0.962402	-0.980000	26.110001	-6.580000	1042.00	0.12	-0.09
1.50	0.00	0.50	0.00	0.00	0.00	0.00	0.25	0.00	0.00	0.50	0.00	0.00	0.00	0.00	0.00	0.00	-0.863281	-0.174316	0.571777	-4.340000	-68.180000	-24.290001	15.00	0.00	0.00	3.25	2.00	2.50	2.50	1.75	1.25	3.75	6.25	7.75	8.75	10.00	9.75	12.75	8.50	3.00	5.00	-0.163086	0.113770	0.990723	-1.960000	29.750000	-9.030000	1020.00	0.14	-0.09
1.51	0.00	0.00	0.00	0.00	0.00	0.25	0.25	0.00	0.00	0.75	0.25	0.00	0.00	0.00	0.00	0.25	-0.782715	-0.103027	0.577148	-10.640000	-56.070000	-32.619999	20.00	0.00	0.00	2.75	1.50	2.25	2.50	1.75	1.50	3.75	6.25	8.00	9.00	10.25	9.75	13.00	9.00	3.50	5.25	-0.180664	0.142090	0.994141	-2.310000	37.590000	-9.310000	1032.00	0.15	-0.09
1.52	0.00	0.00	0.00	0.00	0.00	0.00	0.25	0.00	0.00	0.50	0.50	0.00	0.00	0.00	0.00	0.25	-0.694824	-0.039062	0.583008	-17.570000	-45.220001	-37.240002	17.00	0.00	0.00	2.75	1.50	2.00	2.25	1.25	1.00	3.50	5.75	8.25	9.25	10.50	10.00	13.00	9.50	3.50	5.50	-0.198242	0.108398	0.965820	-1.540000	44.380001	-10.290000	1020.00	0.16	-0.09
1.53	0.00	0.00	0.00	0.00	0.00	0.00	0.25	0.00	0.00	0.50	0.00	0.00	0.00	0.00	0.00	0.00	-0.590820	0.027832	0.576660	-23.240000	-34.790001	-39.410000	10.00	0.00	0.00	2.25	1.25	2.00	2.00	1.25	1.00	3.25	5.50	8.25	9.50	10.75	10.00	12.75	9.75	4.00	5.75	-0.200195	0.116211	0.969238	-0.560000	49.770000	-10.990000	1014.00	0.17	-0.09
1.54	0.00	0.00	0.00	0.00	0.00	0.00	0.25	0.00	0.00	0.50	0.25	0.00	0.00	0.00	0.00	0.00	-0.501953	0.090332	0.594727	-26.389999	-24.570000	-40.320000	13.00	0.00	0.00	1.75	1.25	1.50	1.50	1.00	0.75	3.00	5.25	8.25	9.50	11.00	10.25	12.75	10.50	4.00	6.25	-0.230957	0.098145	0.961914	1.750000	58.939999	-10.150000	997.00	0.18	-0.09
1.55	0.00	0.00	0.00	0.00	0.00	0.00	0.25	0.00	0.00	0.75	0.00	0.00	0.00	0.00	0.00	0.00	-0.423340	0.157715	0.653320	-25.059999	-16.940001	-39.619999	13.00	0.00	0.00	1.75	1.25	1.50	1.50	0.75	0.50	2.75	5.00	8.50	9.75	11.00	10.25	12.75	11.00	4.50	6.50	-0.238770	0.109863	0.957031	3.710000	62.790001	-9.590000	1001.00	0.19	-0.09
1.56	0.50	0.00	0.00	0.00	0.00	0.00	0.00	0.00	0.50	0.75	0.25	0.00	0.00	0.00	0.00	0.25	-0.348633	0.197266	0.679688	-20.440001	-12.320000	-37.099998	26.00	0.00	0.00	1.50	1.25	1.00	1.25	0.50	0.25	2.25	4.25	8.75	10.00	11.25	10.50	12.75	11.75	5.00	7.00	-0.251953	0.111816	0.961426	6.440000	66.709999	-9.170000	990.00	0.20	-0.09
1.57	0.00	0.00	0.00	0.00	0.00	0.25	0.25	0.00	0.00	0.75	0.25	0.00	0.00	0.00	0.00	0.25	-0.306152	0.205078	0.718262	-15.190001	-9.800000	-32.200001	20.00	0.00	0.00	1.25	1.25	1.25	1.00	0.50	0.00	2.00	3.50	8.75	10.25	11.50	10.50	12.50	12.25	5.00	7.25	-0.267578	0.111816	0.974609	9.450000	74.199997	-8.680000	978.00	0.21	-0.08
1.58	0.25	0.00	0.00	0.25	0.00	0.25	0.25	0.00	0.00	0.50	0.25	0.00	0.00	0.00	0.25	0.25	-0.289551	0.182129	0.718262	-11.620000	-8.680000	-24.570000	26.00	0.00	0.00	1.00	1.00	1.00	1.00	0.50	0.00	1.75	3.00	9.00	10.50	11.50	10.50	12.50	13.25	5.00	7.50	-0.290039	0.121582	0.984375	12.880000	83.650002	-9.100000	974.00	0.22	-0.08
1.59	0.25	0.00	0.00	0.00	0.00	0.00	0.50	0.00	0.25	0.75	0.25	0.00	0.00	0.00	0.00	0.00	-0.314941	0.163574	0.688477	-9.660000	-7.280000	-15.120000	26.00	0.00	0.00	1.25	1.00	0.75	0.75	0.25	0.00	1.50	2.50	9.00	10.50	11.75	10.75	12.25	13.75	5.25	7.75	-0.290039	0.112793	0.993652	16.379999	93.449997	-10.640000	968.00	0.22	-0.07
1.60	0.50	0.00	0.00	0.25	0.00	0.00	0.25	0.00	0.00	0.75	0.00	0.00	0.00	0.00	0.00	0.25	-0.369629	0.138672	0.651855	-7.840000	-4.410000	-5.600000	23.00	0.00	0.00	1.25	0.75	0.25	0.75	0.00	0.00	1.25	2.00	9.00	10.75	12.00	10.50	12.25	14.50	5.50	8.00	-0.287109	0.120605	0.969238	18.480000	100.449997	-12.460000	958.00	0.24	-0.07
1.61	0.00	0.00	0.00	0.00	0.00	0.00	0.25	0.00	0.00	0.50	0.00	0.25	0.00	0.00	0.00	0.00	-0.439453	0.104004	0.615723	-6.790000	-0.630000	1.960000	13.00	0.00	0.00	1.00	0.75	0.25	1.00	0.00	0.00	1.00	1.75	9.25	11.00	12.00	10.75	12.00	15.25	5.75	8.25	-0.329590	0.122559	0.962891	17.010000	107.309998	-13.510000	968.00	0.24	-0.07
1.62	0.00	0.00	0.00	0.00	0.00	1.00	0.25	0.00	0.00	0.75	0.25	0.00	0.00	0.00	0.00	0.00	-0.529297	0.062500	0.568848	-5.110000	4.690000	7.000000	27.00	0.00	0.00	0.50	0.50	0.25	0.50	0.00	0.00	0.75	1.50	9.25	11.25	12.00	10.75	11.75	15.75	6.00	8.25	-0.339355	0.119629	0.950684	15.750000	113.610001	-14.630000	953.00	0.25	-0.07
1.63	0.00	0.00	0.00	0.00	0.00	0.00	0.25	0.00	0.00	0.50	0.00	0.00	0.00	0.00	0.00	0.25	-0.631836	0.011230	0.559570	-2.940000	10.780000	8.960000	11.00	0.00	0.00	0.75	0.50	0.50	0.50	0.00	0.00	0.50	1.50	9.25	11.00	12.25	10.75	11.75	16.25	6.25	8.50	-0.363281	0.125977	0.956543	14.490000	119.000000	-15.330000	964.00	0.25	-0.07
1.64	0.25	0.00	0.00	0.00	0.00	0.25	0.25	0.00	0.00	0.50	0.00	0.00	0.00	0.00	0.00	0.00	-0.833496	-0.028320	0.546387	1.820000	22.540001	5.600000	16.00	0.00	0.00	0.50	0.75	0.25	0.75	0.00	0.00	0.25	1.25	9.00	11.25	12.00	10.50	11.50	16.75	6.50	9.00	-0.378906	0.119629	0.965332	13.020000	123.480003	-15.890000	957.00	0.25	-0.07
1.65	0.25	0.00	0.00	0.00	0.00	0.50	0.25	0.00	0.00	0.50	0.25	0.00	0.00	0.00	0.00	0.00	-0.899902	-0.034668	0.527832	3.500000	29.120001	2.380000	21.00	0.00	0.00	0.75	0.50	0.00	0.50	0.00	0.00	0.25	1.25	9.00	11.50	12.00	10.50	11.25	17.50	6.75	9.00	-0.418457	0.123535	0.951172	10.850000	132.509995	-16.660000	962.00	0.26	-0.06
1.66	0.00	0.00	0.00	0.00	0.00	0.00	0.25	0.00	0.00	0.75	0.25	0.00	0.00	0.00	0.00	0.00	-0.928711	-0.020996	0.530273	4.410000	36.259998	0.420000	15.00	0.00	0.00	0.75	0.25	0.25	0.25	0.00	0.00	0.00	1.25	9.25	11.25	12.00	10.50	11.00	18.00	7.00	9.00	-0.425293	0.135254	0.955566	9.940000	133.419998	-17.570000	961.00	0.26	-0.06
1.67	2.50	2.25	1.25	1.50	0.00	0.50	0.25	0.00	0.00	0.50	0.00	0.00	0.00	0.00	0.00	0.25	0.678711	-0.574219	1.925293	92.610001	142.940002	-18.059999	101.00	-0.28	-0.04	0.75	0.50	0.00	0.50	0.00	0.00	0.00	1.25	8.75	11.50	12.00	10.50	11.00	18.00	7.25	9.25	-0.454590	0.137695	0.949707	9.100000	136.500000	-19.040001	964.00	0.26	-0.06
1.68	2.50	4.50	0.25	0.75	0.00	0.00	0.25	0.25	0.00	0.50	0.00	0.00	0.00	0.00	0.00	0.25	0.663086	0.021484	0.595215	63.070000	112.980003	-45.570000	101.00	-0.31	-0.07	0.00	0.25	0.00	0.25	0.00	0.00	0.00	1.00	8.75	11.25	12.00	10.25	10.75	18.75	7.25	9.25	-0.483398	0.137207	0.948730	8.050000	141.610001	-20.020000	944.00	0.27	-0.06
1.69	4.00	5.50	1.25	1.50	0.00	0.00	0.25	0.00	0.25	0.25	0.00	0.00	0.00	0.00	0.00	0.25	0.427734	-0.024902	0.905273	3.640000	81.900002	-77.559998	146.00	-0.33	-0.04	0.25	0.25	0.00	0.00	0.00	0.00	0.00	1.00	8.75	11.25	11.75	10.25	10.50	19.00	7.50	9.50	-0.494141	0.139648	0.928711	7.910000	149.729996	-21.350000	946.00	0.28	-0.06
1.70	5.50	7.50	1.50	2.00	0.00	0.00	0.25	0.00	0.00	0.00	0.00	0.25	0.00	0.00	0.00	0.25	-0.112793	0.336426	0.992188	-15.540000	83.930000	-90.440002	189.00	-0.35	-0.05	0.25	0.25	0.00	0.00	0.00	0.00	0.00	1.00	8.25	11.25	11.75	10.00	10.50	19.00	7.25	9.25	-0.527344	0.145508	0.941406	7.420000	159.320007	-23.240000	931.00	0.28	-0.06
1.71	8.25	9.25	2.00	3.00	0.00	0.00	0.00	0.00	0.00	0.00	0.00	0.25	0.00	0.00	0.00	0.25	-0.417969	0.508789	1.162598	-2.660000	113.400002	-86.519997	251.00	-0.37	-0.05	0.00	0.25	0.00	0.00	0.00	0.00	0.00	0.75	8.25	11.25	11.50	10.00	10.00	19.00	7.50	9.25	-0.546875	0.181152	1.038086	7.350000	167.440002	-25.200001	919.00	0.28	-0.05
1.72	10.50	11.25	3.00	4.75	0.00	0.00	0.25	0.00	0.00	0.25	0.25	0.25	0.00	0.00	0.00	0.25	-0.285156	0.809570	1.022461	0.770000	146.930008	-81.690002	340.00	-0.35	-0.05	0.25	0.00	0.00	0.00	0.00	0.25	0.00	1.00	8.00	11.00	11.50	9.75	9.75	18.75	7.50	9.25	-0.553223	0.156738	0.957031	7.910000	179.130005	-27.790001	913.00	0.28	-0.06
1.73	12.00	12.25	4.25	5.75	0.00	0.00	0.25	0.00	0.25	0.00	0.00	0.25	0.25	0.00	0.00	0.25	-0.311035	0.917969	1.854004	-2.380000	186.899994	-63.490002	394.00	-0.35	-0.04	0.00	0.00	0.00	0.00	0.00	0.00	0.00	0.75	7.50	10.75	11.25	9.50	9.25	18.25	7.25	9.00	-0.598145	0.145996	0.940430	7.210000	192.220001	-30.170000	874.00	0.28	-0.06
1.74	13.25	13.25	5.25	7.25	0.00	0.75	0.25	0.25	0.25	0.00	0.00	0.25	0.25	0.00	0.00	0.25	-0.418945	0.710449	1.822754	2.730000	194.320007	-32.549999	462.00	-0.34	-0.05	0.00	0.25	0.00	0.00	0.00	0.00	0.00	0.75	7.25	10.75	11.00	9.25	9.00	18.00	7.00	8.75	-0.654785	0.143066	1.018555	5.390000	204.610001	-32.340000	858.00	0.28	-0.06
1.75	13.75	13.75	5.75	8.25	0.25	0.75	0.25	0.25	0.00	0.25	0.00	0.50	1.00	0.00	0.00	0.25	-0.365723	0.409668	1.260254	6.860000	196.490005	-9.380000	503.00	-0.33	-0.06	0.00	0.00	0.00	0.00	0.00	0.00	0.00	0.75	6.50	10.25	10.75	9.25	8.50	17.50	7.00	8.50	-0.681152	0.187500	0.990234	4.830000	216.860001	-34.160000	825.00	0.28	-0.06
1.76	14.25	14.00	6.75	8.50	0.25	1.00	0.25	0.50	0.00	0.00	0.25	0.75	0.50	0.00	0.00	0.25	-0.324707	0.065918	1.409668	7.630000	192.570007	-1.750000	532.00	-0.33	-0.06	0.00	0.25	0.00	0.00	0.00	0.00	0.00	0.75	5.75	10.00	10.50	8.75	8.00	16.50	6.50	8.25	-0.889160	0.233398	1.119629	15.120000	239.540009	-37.240002	784.00	0.28	-0.06
1.77	14.50	14.00	7.50	8.75	0.00	1.25	0.50	0.75	0.00	0.00	0.25	0.75	0.50	0.00	0.25	0.25	-0.271973	-0.024902	1.327637	8.820000	176.539993	-6.860000	558.00	-0.32	-0.06	0.00	0.00	0.00	0.00	0.00	0.00	0.00	0.50	5.00	9.25	10.00	8.25	7.75	15.75	6.00	7.50	-0.889160	0.233398	1.119629	15.120000	239.540009	-37.240002	727.00	0.28	-0.06
1.78	14.25	14.25	7.75	9.00	0.50	2.00	0.50	0.75	0.00	0.25	0.25	0.75	1.00	0.00	0.50	0.75	-0.332031	0.337402	0.733887	-41.720001	127.190002	-15.050000	592.00	-0.30	-0.07	0.00	0.00	0.00	0.00	0.00	0.00	0.00	0.50	3.50	8.75	9.25	7.75	7.00	14.25	5.75	6.75	-1.051758	0.043945	1.507812	47.110001	251.089996	-32.549999	657.00	0.28	-0.07
1.79	15.75	15.00	8.25	9.25	0.50	3.25	0.50	1.75	0.50	0.50	0.75	1.00	1.75	0.25	0.25	0.50	-0.375977	0.360352	1.233398	-57.049999	102.690002	-1.400000	681.00	-0.27	-0.08	0.00	0.00	0.00	0.00	0.00	0.00	0.00	0.25	2.25	8.00	8.50	7.25	6.00	12.75	5.00	6.00	-1.104004	0.297363	1.313965	56.840000	259.559998	-32.130001	576.00	0.28	-0.08
1.80	15.25	14.00	8.25	9.75	1.25	2.50	0.75	2.00	0.00	0.75	0.75	1.25	1.75	0.25	0.25	0.50	-0.320312	0.178223	1.244141	-56.000000	88.410004	2.380000	678.00	-0.27	-0.08	0.00	0.00	0.00	0.00	0.00	0.00	0.00	0.25	1.25	7.00	7.75	6.25	5.50	10.75	4.00	4.50	-1.121094	0.449707	1.831055	69.440002	268.450012	-30.030001	487.00	0.28	-0.09
1.81	16.75	14.25	8.50	10.00	1.00	4.25	0.50	2.00	0.25	0.75	0.75	1.00	2.75	0.75	0.50	0.50	-0.222168	0.104004	1.026855	-57.959999	67.269997	-0.350000	735.00	-0.26	-0.08	0.00	0.00	0.00	0.00	0.00	0.00	0.00	0.25	1.00	6.00	6.75	5.50	4.50	9.50	3.00	3.00	-0.994629	0.249512	1.383301	83.860001	274.820007	-29.889999	410.00	0.28	-0.08
1.82	18.75	15.50	9.50	10.50	1.50	4.75	0.75	2.50	0.50	1.00	1.00	1.50	2.25	1.00	0.25	0.50	-0.214844	0.173340	0.991699	-56.770000	54.389999	-2.660000	822.00	-0.25	-0.07	0.00	0.00	0.00	0.00	0.00	0.00	0.00	0.00	1.00	5.25	5.75	4.75	4.00	7.75	2.00	2.00	-1.071777	0.136230	1.927734	79.940002	269.220001	-38.430000	339.00	0.28	-0.08
1.83	19.25	16.25	9.75	10.75	1.75	5.25	0.75	3.00	0.50	1.00	1.25	1.50	3.25	1.25	0.50	0.50	-0.212891	0.161621	1.000000	-62.230000	45.639999	-2.520000	876.00	-0.24	-0.08	0.00	0.00	0.00	0.00	0.00	0.00	0.00	0.00	0.50	4.50	4.75	4.25	3.00	6.75	1.50	0.75	-1.145996	0.127441	1.327148	67.550003	269.500000	-45.150002	274.00	0.28	-0.07
1.84	19.00	16.25	9.75	10.75	1.75	5.00	0.75	3.25	0.75	1.25	1.25	1.50	2.75	1.50	0.50	0.50	-0.230957	0.133789	1.013184	-61.529999	33.389999	-3.080000	879.00	-0.24	-0.08	0.00	0.00	0.00	0.00	0.00	0.00	0.00	0.00	0.25	3.75	4.25	3.75	2.50	5.50	1.25	0.75	-0.903320	0.529785	1.316406	62.439999	271.880005	-44.099998	232.00	0.27	-0.08
1.85	19.50	16.25	10.00	11.00	2.00	5.25	0.75	3.50	0.75	1.25	1.25	1.50	2.50	1.75	0.50	0.50	-0.217773	0.134766	1.009277	-55.299999	24.010000	-4.060000	900.00	-0.24	-0.08	0.00	0.00	0.00	0.00	0.00	0.00	0.00	0.00	0.25	3.25	4.00	4.25	4.00	5.00	1.50	0.50	-0.676270	0.366211	1.614258	84.489998	260.679993	-48.160000	240.00	0.27	-0.12
1.86	19.75	16.25	10.25	11.00	1.75	5.25	0.75	3.00	0.75	1.50	1.25	1.50	3.00	1.75	0.50	0.25	-0.224121	0.143066	1.005859	-49.000000	19.320000	-4.270000	901.00	-0.24	-0.07	0.00	0.00	0.00	0.00	0.00	6.75	0.00	0.50	0.00	2.75	2.75	2.00	1.00	1.75	0.50	0.75	-0.538574	0.541992	1.333984	104.510002	244.020004	-54.389999	210.00	0.09	-0.18
1.87	19.50	16.50	10.25	11.00	2.25	5.25	1.00	3.25	0.75	1.75	1.50	1.50	2.50	2.00	0.25	0.50	-0.220703	0.128418	0.979004	-41.650002	14.980000	-3.990000	917.00	-0.23	-0.07	1.25	0.50	0.00	0.00	0.00	0.00	0.25	0.00	0.00	2.00	2.50	2.00	2.00	2.25	0.75	1.75	-0.329102	0.491699	1.090332	122.360001	221.410004	-57.680000	156.00	0.18	-0.10
1.88	16.75	15.50	9.75	10.75	2.25	5.00	1.00	3.00	1.25	1.75	1.50	1.50	2.75	2.25	0.50	0.50	-0.221191	0.125488	0.980469	-33.389999	11.690000	-3.430000	874.00	-0.22	-0.07	2.00	1.25	0.50	0.00	0.00	0.00	0.25	0.25	0.50	1.50	1.25	1.25	1.25	2.25	1.75	1.75	-0.220215	0.337402	1.065918	130.970001	183.399994	-68.459999	166.00	0.11	-0.06
1.89	19.50	16.75	10.50	11.00	2.50	5.00	1.25	3.25	1.00	1.75	1.75	1.50	2.50	2.75	0.50	0.50	-0.215820	0.128906	0.964355	-27.299999	10.430000	-2.660000	943.00	-0.22	-0.07	0.00	0.00	0.00	0.00	0.00	0.25	0.75	1.00	1.25	2.00	2.25	2.00	2.25	2.25	1.75	2.00	0.032227	0.197266	1.139648	134.960007	147.559998	-79.449997	195.00	0.23	-0.10
1.90	19.25	16.50	10.50	11.25	2.50	5.25	1.25	3.25	1.25	2.25	2.00	1.50	2.50	2.50	0.50	0.50	-0.210938	0.116211	0.955566	-23.030001	9.870000	-1.890000	953.00	-0.22	-0.07	2.00	1.50	1.50	1.25	0.50	1.25	0.75	1.00	1.25	2.00	2.00	2.25	2.25	2.00	2.00	1.75	-0.090820	0.670410	3.072266	52.500000	42.910000	-83.930000	283.00	0.06	-0.09
1.91	19.25	16.25	10.50	11.25	2.50	5.00	1.25	3.00	1.75	2.25	1.75	1.50	2.75	2.75	0.50	0.25	-0.210449	0.111328	0.953613	-19.530001	9.240000	-1.400000	951.00	-0.21	-0.06	1.75	1.25	1.50	1.50	0.50	1.25	0.75	1.25	1.25	2.00	2.00	2.00	2.25	1.75	1.75	1.75	0.726562	0.254883	2.045898	-15.470000	-63.630001	-60.270000	277.00	0.06	-0.09
1.92	19.50	16.00	10.50	11.00	2.25	5.25	1.50	3.25	1.50	2.50	2.00	1.50	2.75	3.00	0.50	0.50	-0.206543	0.117188	0.942871	-17.570000	8.890000	-1.190000	963.00	-0.21	-0.06	1.50	1.25	1.50	1.50	0.75	1.25	0.75	1.00	1.50	2.00	2.00	2.00	2.50	2.00	1.50	2.00	0.513672	0.115723	1.087402	-57.330002	-125.860001	-47.529999	280.00	0.07	-0.09
1.93	19.00	16.00	10.50	11.00	2.50	5.25	1.75	3.00	2.00	2.50	2.25	1.50	3.00	3.00	0.50	0.50	-0.207520	0.120605	0.948730	-15.750000	8.330000	-2.170000	972.00	-0.20	-0.06	2.00	1.50	1.50	1.50	0.50	1.25	0.75	1.00	1.25	1.75	2.00	2.00	2.25	2.00	1.50	1.75	0.210938	0.245605	0.895508	-80.849998	-150.009995	-45.220001	275.00	0.05	-0.09
1.94	18.75	16.00	10.50	11.00	2.75	5.25	2.00	3.25	2.25	3.00	2.25	1.50	2.50	3.25	0.75	0.50	-0.211426	0.119141	0.962402	-14.910000	8.540000	-2.660000	990.00	-0.19	-0.05	1.75	1.25	1.50	1.50	0.75	1.00	0.75	1.00	1.25	2.00	1.75	1.75	1.75	1.75	1.50	1.50	0.179688	0.292969	0.588379	-78.190002	-153.440002	-46.900002	258.00	0.05	-0.08
1.95	18.50	15.50	10.50	11.00	3.00	5.00	2.25	3.25	2.75	3.25	2.25	1.50	3.00	3.50	0.50	0.50	-0.219727	0.107910	0.952637	-13.790000	8.400000	-2.870000	1001.00	-0.18	-0.05	1.75	1.25	1.75	1.50	0.50	1.25	0.75	1.00	1.50	1.75	1.75	2.00	1.75	1.75	1.25	1.50	0.186035	0.320312	0.445801	-55.369999	-150.500000	-50.259998	262.00	0.05	-0.08
1.96	18.75	15.50	10.50	11.00	2.75	5.25	2.75	3.25	3.00	3.50	2.50	1.75	3.50	3.50	0.50	0.50	-0.217773	0.114746	0.953125	-12.880000	8.190000	-2.940000	1029.00	-0.17	-0.05	2.00	1.25	1.50	1.50	0.75	1.50	0.75	1.00	1.25	1.50	1.75	1.75	2.00	1.75	1.50	1.75	0.132324	0.344238	0.572266	-24.570000	-148.680008	-53.130001	265.00	0.04	-0.09
1.97	18.25	15.25	10.25	10.75	3.00	5.00	3.00	3.25	3.25	3.50	2.75	1.75	3.25	3.75	0.50	0.75	-0.215332	0.101074	0.965332	-12.670000	8.540000	-3.010000	1027.00	-0.17	-0.05	2.50	1.50	1.25	1.75	0.75	1.25	0.75	1.00	1.25	1.50	1.75	1.75	2.25	1.75	1.50	1.75	0.114258	0.324707	0.721680	4.060000	-154.210007	-53.060001	273.00	0.03	-0.09
1.98	18.00	15.00	10.25	10.50	3.25	4.75	3.25	3.25	3.50	3.50	2.50	1.75	3.50	4.00	0.75	0.50	-0.202637	0.104004	0.950195	-12.460000	8.610000	-2.940000	1029.00	-0.16	-0.04	2.00	1.25	1.50	1.50	0.50	1.00	0.75	0.75	1.25	1.50	1.75	1.50	1.75	1.75	1.25	1.25	0.130859	0.230957	0.820312	18.760000	-167.160004	-50.119999	241.00	0.04	-0.07
1.99	17.50	14.50	10.00	10.50	3.00	5.00	3.50	3.50	4.25	4.25	3.00	2.00	3.75	4.25	0.75	0.50	-0.206543	0.102051	0.954590	-12.250000	8.750000	-2.870000	1056.00	-0.14	-0.04	2.25	1.25	1.50	1.50	0.75	1.00	0.75	1.00	1.25	1.75	1.50	1.50	2.00	1.75	1.50	1.25	0.105469	0.155273	0.931152	17.639999	-184.660004	-45.430000	256.00	0.03	-0.07
2.00	17.25	14.25	10.00	10.25	3.00	5.00	3.75	3.50	5.00	4.25	3.00	2.00	3.75	5.00	0.50	0.50	-0.217773	0.097168	0.952637	-11.970000	9.100000	-2.520000	1067.00	-0.14	-0.04	1.75	1.25	1.75	1.25	0.50	1.50	0.50	0.75	1.25	1.25	1.50	1.25	1.50	1.75	1.50	1.50	0.010742	0.125488	0.886719	-6.440000	-220.360001	-37.029999	233.00	0.03	-0.07
2.01	16.75	13.75	9.75	10.00	3.00	5.00	4.00	3.50	5.00	4.75	3.25	1.75	4.00	5.00	0.75	0.50	-0.219727	0.104004	0.959473	-11.620000	9.660000	-2.170000	1065.00	-0.13	-0.04	1.50	1.25	1.50	1.50	0.50	1.25	0.50	0.75	1.25	1.25	1.50	1.50	2.00	1.75	1.50	1.75	0.010742	0.125488	0.886719	-6.440000	-220.360001	-37.029999	237.00	0.05	-0.09
2.02	16.50	13.50	9.75	10.00	3.25	4.75	4.25	3.25	5.25	4.75	3.25	2.00	4.50	5.50	0.75	0.75	-0.220215	0.096191	0.955566	-11.410000	10.360000	-1.750000	1077.00	-0.12	-0.03	1.75	1.25	1.50	1.50	0.50	1.00	0.75	0.75	1.25	1.25	1.50	1.50	1.50	1.50	1.50	1.25	-0.118652	0.177734	0.836914	4.550000	-242.970001	-39.689999	231.00	0.04	-0.07
2.03	16.00	13.00	9.75	9.75	3.25	4.75	4.50	3.50	5.75	5.25	3.50	1.75	4.50	6.00	0.75	0.50	-0.221191	0.091309	0.953613	-10.990000	11.270000	-1.610000	1088.00	-0.11	-0.03	1.75	1.25	1.50	1.50	0.50	1.25	0.75	0.75	1.25	1.25	1.75	1.25	1.75	1.75	1.25	1.25	-0.189453	0.155273	0.894043	24.990000	-251.580002	-42.349998	235.00	0.03	-0.07
2.04	15.25	12.50	9.75	9.75	3.25	4.50	4.75	3.75	6.00	5.50	3.50	2.25	4.75	6.50	1.00	0.75	-0.231445	0.098145	0.955566	-10.710000	12.040000	-1.680000	1103.00	-0.09	-0.03	2.00	1.25	1.50	1.50	0.75	1.25	0.75	0.75	1.25	1.25	1.50	1.25	1.75	1.75	1.25	1.50	-0.249512	0.115723	0.946289	41.230000	-259.839996	-43.330002	240.00	0.03	-0.07
2.05	15.00	12.25	9.50	9.50	3.50	4.50	5.00	3.50	6.75	6.25	3.75	2.25	4.75	7.25	1.00	0.75	-0.229980	0.086426	0.955078	-10.430000	12.460000	-1.680000	1123.00	-0.08	-0.02	2.25	1.25	1.50	1.25	0.75	1.25	0.75	0.75	1.25	1.25	1.25	1.50	1.75	1.50	1.50	1.50	-0.321289	0.087891	1.003906	48.369999	-266.630005	-42.490002	240.00	0.03	-0.07
2.06	14.25	11.50	9.25	9.25	3.50	3.75	5.00	3.50	7.00	6.75	3.75	2.25	5.00	7.50	1.00	0.75	-0.225098	0.096680	0.959961	-10.010000	12.600000	-1.960000	1106.00	-0.07	-0.02	1.75	1.25	1.75	1.50	0.75	1.00	0.75	1.00	1.50	1.25	1.50	1.25	1.50	1.50	1.25	1.25	-0.406738	0.075195	1.071289	50.330002	-273.140015	-40.040001	239.00	0.03	-0.06
2.07	14.25	11.25	9.25	9.25	3.00	4.50	5.00	3.25	7.50	7.00	4.25	2.50	5.00	8.00	0.75	1.00	-0.229980	0.092285	0.947754	-8.820000	13.440001	-1.820000	1125.00	-0.06	-0.02	1.75	1.25	1.25	1.25	0.75	1.00	0.75	0.75	1.00	1.25	1.25	1.25	1.75	1.75	1.25	1.25	-0.471191	0.084961	1.065918	49.209999	-277.549988	-36.049999	220.00	0.03	-0.07
2.08	13.25	10.75	9.25	9.00	3.25	3.50	5.00	3.25	7.75	7.50	4.25	2.50	4.75	8.25	1.00	0.75	-0.235352	0.092773	0.959473	-8.540000	13.580000	-1.890000	1107.00	-0.05	-0.01	1.50	1.50	1.50	1.50	0.75	1.00	0.50	0.75	1.25	1.25	1.50	1.25	1.50	2.00	1.00	1.25	-0.525391	0.083984	1.093750	46.410000	-278.670013	-30.100000	225.00	0.03	-0.07
2.09	13.25	10.25	9.00	9.00	3.50	3.75	5.25	3.25	8.00	7.75	4.50	2.50	5.25	8.75	1.00	0.75	-0.230469	0.089844	0.953125	-8.190000	13.720000	-2.030000	1127.00	-0.05	-0.01	1.50	1.25	1.25	1.50	0.50	1.00	0.50	0.75	1.00	1.00	1.25	1.25	1.75	1.75	1.25	1.25	-0.573242	0.104492	1.149414	45.500000	-277.200012	-22.400000	210.00	0.03	-0.09
2.10	12.75	10.00	8.75	8.50	4.25	3.50	5.25	3.25	8.25	8.00	4.75	3.00	5.25	9.00	1.25	1.00	-0.233887	0.081055	0.944824	-7.630000	13.860000	-1.820000	1138.00	-0.04	-0.01	1.50	1.00	1.50	1.50	0.50	1.00	0.75	0.75	1.00	1.25	1.25	1.50	1.75	1.75	1.25	1.50	-0.621582	0.121094	1.258301	49.070000	-276.010010	-13.370000	222.00	0.04	-0.08
2.11	12.50	9.25	8.75	8.50	4.00	3.00	5.25	3.00	8.50	8.00	5.25	2.75	5.25	9.50	1.00	0.75	-0.223633	0.077148	0.943848	-7.070000	13.930000	-1.540000	1121.00	-0.03	-0.00	2.00	1.25	1.25	1.25	0.50	1.00	0.50	0.75	1.00	1.25	1.25	1.50	1.25	1.25	1.25	1.25	-0.673340	0.126953	1.342285	55.650002	-276.570007	-3.430000	209.00	0.02	-0.08
2.12	12.00	9.00	8.50	8.25	3.75	2.75	5.50	3.25	8.50	8.25	5.50	3.25	5.50	10.00	1.00	0.75	-0.235840	0.083984	0.952637	-6.440000	13.860000	-1.470000	1128.00	-0.02	-0.01	1.75	1.00	1.25	1.50	0.50	1.00	0.50	0.75	0.75	1.00	1.25	1.25	1.50	1.50	1.25	1.50	-0.750977	0.102051	1.415039	62.090000	-277.549988	6.580000	204.00	0.03	-0.09
2.13	11.25	8.75	8.50	8.00	3.75	2.75	5.50	3.25	8.75	8.50	5.50	3.25	5.50	10.50	1.25	1.00	-0.238770	0.084473	0.946289	-5.670000	14.210000	-1.540000	1129.00	-0.01	-0.01	1.50	1.25	1.50	1.50	0.50	1.00	0.75	0.75	1.00	0.75	1.25	1.25	1.50	1.50	1.00	1.00	-0.817871	0.082031	1.433594	65.870003	-277.410004	17.710001	206.00	0.01	-0.08
2.14	10.75	8.25	8.25	7.75	4.00	2.75	5.50	3.25	9.00	8.75	6.50	3.75	5.50	10.75	1.25	1.50	-0.243164	0.084961	0.952148	-5.110000	14.700000	-1.610000	1144.00	0.00	-0.01	1.50	1.25	1.75	1.25	0.50	0.75	0.75	0.75	1.00	1.00	1.25	1.25	1.75	1.50	1.25	1.25	-0.892090	0.082520	1.407715	62.930000	-269.079987	43.540001	212.00	0.03	-0.07
2.15	10.00	8.00	8.25	7.50	3.75	2.25	5.50	3.00	9.25	9.00	6.50	3.50	5.50	11.75	1.25	1.50	-0.235840	0.083984	0.955078	-4.480000	15.190001	-1.820000	1130.00	0.01	-0.00	1.75	1.25	1.75	1.50	0.75	0.75	0.75	0.75	1.25	1.00	1.25	1.25	1.50	1.50	1.25	1.25	-0.892578	0.108887	1.464844	59.639999	-262.500000	56.910000	222.00	0.02	-0.06
2.16	10.00	7.75	8.00	7.75	3.75	2.50	5.75	3.00	9.25	9.00	7.25	3.75	6.00	12.00	1.50	1.25	-0.245117	0.080566	0.945312	-3.780000	15.330000	-1.750000	1154.00	0.02	-0.00	1.75	1.25	1.50	1.25	0.75	1.00	0.75	0.75	1.00	1.00	1.25	1.25	1.75	1.50	1.00	1.25	-0.880859	0.126953	1.511719	57.680000	-257.950012	69.300003	215.00	0.02	-0.07
2.17	9.25	7.50	7.75	6.75	3.50	2.25	5.75	3.25	9.25	9.25	7.25	4.25	6.25	12.75	1.75	1.25	-0.242188	0.081543	0.945801	-3.080000	15.120000	-1.470000	1147.00	0.03	-0.00	2.00	1.00	1.25	1.25	0.75	1.00	0.75	0.75	1.00	1.00	1.25	1.50	1.75	1.50	1.25	1.25	-0.860840	0.117676	1.521484	55.860001	-254.940002	79.660004	218.00	0.03	-0.08
2.18	9.00	6.75	7.50	6.50	3.75	1.75	5.75	2.75	9.50	9.25	7.75	4.50	6.25	13.00	2.00	1.50	-0.245117	0.082520	0.949707	-2.240000	15.190001	-1.540000	1139.00	0.04	0.00	1.75	1.50	1.50	1.00	0.50	0.75	0.75	0.50	1.25	1.00	1.25	1.50	1.75	1.50	1.25	1.25	-0.888672	0.106445	1.512695	56.840000	-252.559998	86.870003	214.00	0.03	-0.06
2.19	8.50	6.75	7.50	6.25	3.50	1.75	5.75	3.00	9.50	9.50	7.75	4.50	6.50	13.75	1.75	1.50	-0.244629	0.084473	0.946777	-1.260000	15.400000	-1.610000	1140.00	0.05	-0.00	2.00	1.25	1.50	1.50	0.50	1.25	0.75	0.75	1.25	1.00	1.25	1.25	2.00	1.50	1.50	1.25	-0.905762	0.064453	1.438477	59.080002	-248.710007	91.349998	233.00	0.02	-0.08
2.20	7.75	6.50	7.50	5.75	3.25	1.75	5.75	3.00	9.50	9.50	8.00	4.75	6.75	14.25	2.00	1.75	-0.249023	0.078125	0.951172	-0.700000	15.960000	-1.470000	1137.00	0.06	-0.00	1.75	1.25	1.50	1.50	0.75	1.00	0.75	0.75	1.25	1.00	1.25	1.50	2.00	1.50	1.25	1.50	-0.904297	0.035645	1.383301	57.680000	-241.500000	94.080002	231.00	0.03	-0.08
2.21	7.50	5.75	6.75	5.25	3.00	2.00	5.75	2.75	10.00	10.00	8.00	5.50	6.75	14.75	2.25	2.25	-0.253418	0.085449	0.945801	-0.210000	16.940001	-1.610000	1140.00	0.07	-0.00	1.75	1.25	1.75	1.50	0.75	0.75	0.75	0.75	1.00	1.25	1.50	1.25	1.75	1.25	1.50	1.00	-0.883789	0.075684	1.404297	52.009998	-232.610001	96.599998	226.00	0.02	-0.07
2.22	7.25	5.75	6.75	5.00	3.00	1.50	5.75	3.00	9.75	10.00	8.25	5.75	7.25	15.25	2.75	2.00	-0.253418	0.083008	0.951660	0.070000	17.920000	-1.960000	1148.00	0.08	-0.00	2.00	1.50	1.50	1.50	0.75	1.25	0.50	1.00	1.25	1.00	1.25	1.50	1.75	1.50	1.75	1.50	-0.847168	0.135742	1.429688	47.320000	-225.820007	100.800003	243.00	0.02	-0.09
2.23	6.50	5.50	6.25	5.25	2.75	1.75	5.75	2.75	9.75	10.00	8.50	6.00	7.25	15.75	2.25	2.50	-0.260742	0.085449	0.942383	-0.140000	20.719999	-3.080000	1137.00	0.08	-0.00	1.75	1.25	1.75	1.75	0.75	1.00	0.75	0.75	1.25	1.00	1.50	1.50	2.00	1.50	1.50	1.50	-0.833008	0.166016	1.480469	46.130001	-221.550003	106.889999	243.00	0.03	-0.08
2.24	6.00	5.25	6.25	5.00	2.75	1.75	5.50	2.50	10.00	10.25	8.75	6.50	7.75	16.25	2.50	2.25	-0.266602	0.084961	0.946777	0.070000	22.049999	-3.430000	1144.00	0.09	-0.01	2.00	1.50	1.75	1.75	0.75	1.00	0.50	0.75	1.00	1.00	1.50	1.50	2.25	1.75	1.50	1.25	-0.827637	0.165039	1.513672	45.150002	-219.169998	115.220001	244.00	0.02	-0.09
2.25	5.50	5.00	6.00	4.00	2.50	1.50	5.50	2.75	9.75	10.25	8.75	6.50	7.50	16.75	3.00	2.50	-0.272949	0.081543	0.937988	0.770000	22.469999	-3.220000	1124.00	0.11	-0.00	2.00	1.00	1.75	1.25	0.75	1.00	0.50	0.75	1.00	1.00	1.25	1.25	1.75	1.50	1.50	1.50	-0.810059	0.164551	1.461914	30.590000	-211.960007	136.080002	222.00	0.03	-0.08
2.26	5.50	4.50	5.50	4.25	2.25	1.00	5.50	2.75	10.00	10.50	9.00	7.00	7.75	17.25	3.25	3.00	-0.265137	0.075684	0.932129	2.030000	22.469999	-3.430000	1135.00	0.12	-0.01	2.00	1.25	1.50	1.50	0.75	1.00	0.75	0.75	1.25	1.25	1.50	1.75	1.75	1.50	1.25	1.25	-0.792969	0.183594	1.442383	22.469999	-206.570007	147.070007	239.00	0.03	-0.07
2.27	5.00	4.25	5.00	4.00	2.00	1.25	5.50	2.50	10.25	10.50	9.00	7.25	8.00	17.75	3.50	3.00	-0.267090	0.087402	0.934082	1.890000	23.730000	-3.290000	1130.00	0.13	-0.01	2.00	1.50	1.50	1.50	0.75	0.75	0.75	1.00	1.25	1.00	1.00	1.50	1.75	1.25	1.25	1.25	-0.804688	0.199707	1.404785	17.150000	-200.550003	156.940002	229.00	0.01	-0.08
2.28	5.00	3.75	5.00	4.00	1.50	1.00	5.25	2.25	10.25	10.75	9.25	7.50	8.00	17.75	3.25	3.00	-0.276855	0.081543	0.940430	2.170000	25.059999	-3.220000	1114.00	0.13	-0.00	2.00	1.50	1.75	1.50	0.75	0.75	0.50	1.00	1.25	1.00	1.25	1.50	1.75	1.50	1.25	1.25	-0.807617	0.221680	1.384766	13.090000	-192.850006	164.149994	233.00	0.01	-0.08
2.29	4.00	3.25	4.50	3.75	1.75	1.25	5.25	2.25	10.25	11.00	9.50	7.75	8.00	18.50	3.50	3.25	-0.286621	0.084473	0.937500	2.520000	25.969999	-2.870000	1114.00	0.14	-0.01	2.25	1.50	1.50	1.50	0.75	1.00	0.50	0.75	1.25	1.00	1.50	1.50	2.00	1.50	1.25	1.25	-0.841309	0.245117	1.350098	8.820000	-185.220001	167.930008	237.00	0.01	-0.08
2.30	4.00	3.75	3.50	3.50	1.50	1.25	5.25	2.25	10.25	11.00	9.50	7.75	8.00	18.75	4.00	3.50	-0.287598	0.081055	0.938477	2.240000	27.090000	-2.380000	1110.00	0.15	-0.01	2.00	1.50	2.00	1.75	0.75	1.25	0.50	0.75	1.25	1.00	1.25	1.50	1.75	1.75	1.50	1.25	-0.895508	0.263184	1.231445	6.860000	-178.710007	168.210007	246.00	0.01	-0.08
2.31	3.75	3.25	3.25	5.00	1.00	0.50	5.00	2.00	10.50	11.25	9.75	8.00	8.25	19.00	4.25	3.25	-0.285645	0.084961	0.941406	0.490000	28.910000	0.000000	1112.00	0.15	-0.01	2.25	1.50	1.75	1.75	0.75	1.00	0.50	0.75	1.25	1.25	1.25	1.50	2.25	1.75	1.50	1.50	-0.960449	0.175781	1.005859	12.180000	-169.610001	164.570007	252.00	0.02	-0.08
2.32	3.75	3.50	3.25	3.75	1.00	1.00	5.00	2.00	10.50	11.25	9.75	8.00	8.25	19.25	4.25	3.50	-0.290039	0.080078	0.942871	4.200000	32.759998	-1.120000	1110.00	0.16	-0.01	2.25	1.75	1.75	1.50	0.75	1.00	0.50	1.00	1.25	1.25	1.25	1.75	2.00	1.50	1.25	1.25	-1.022949	-0.038086	0.869141	31.639999	-154.559998	157.570007	249.00	0.01	-0.08
2.33	3.25	3.25	3.00	3.75	1.00	1.00	5.00	2.00	10.50	11.50	10.00	8.25	8.25	19.25	5.00	4.00	-0.293945	0.092285	0.936035	5.950000	35.840000	-0.840000	1119.00	0.17	-0.01	2.00	1.50	1.50	1.75	0.75	1.25	0.75	1.00	1.25	1.25	1.50	1.50	2.00	1.50	1.25	1.00	-1.136719	-0.258301	0.830078	48.509998	-134.680008	143.289993	250.00	0.01	-0.08
2.34	3.75	2.75	2.25	2.00	1.25	0.50	4.75	1.75	10.50	11.50	10.25	8.50	8.25	19.75	5.00	4.00	-0.308105	0.087402	0.937012	7.070000	39.689999	-0.210000	1088.00	0.18	-0.00	2.00	1.25	1.75	1.50	0.50	1.00	0.50	1.00	1.00	1.25	1.50	1.75	2.00	1.50	1.00	1.25	-1.224121	-0.342285	0.849609	51.170002	-116.620003	117.949997	235.00	0.02	-0.09
2.35	3.25	3.25	3.00	3.00	0.75	1.00	4.50	1.50	10.75	11.50	10.25	8.50	8.25	19.75	5.50	4.50	-0.301758	0.095703	0.930664	8.750000	43.889999	-0.210000	1113.00	0.18	-0.01	2.50	1.25	1.75	1.50	0.50	1.00	0.50	0.75	1.00	1.00	1.50	1.75	2.00	1.50	1.50	1.50	-1.323242	-0.418457	0.805664	47.810001	-103.250000	81.340004	241.00	0.02	-0.09
2.36	3.00	3.00	2.25	2.75	0.75	0.50	4.25	1.50	10.75	11.75	10.50	8.50	8.25	20.00	5.50	5.00	-0.341309	0.097168	0.935059	10.920000	49.209999	-0.420000	1096.00	0.19	-0.01	2.00	1.50	1.50	1.75	0.50	0.75	0.50	0.75	1.00	1.00	1.50	1.75	2.00	1.50	1.25	1.50	-1.398926	-0.504883	0.696289	43.540001	-90.440002	35.209999	232.00	0.02	-0.09
2.37	2.50	2.50	2.25	3.00	0.50	0.50	3.75	1.25	10.75	12.00	10.50	8.75	8.25	20.25	5.50	5.00	-0.326172	0.090820	0.946289	12.740000	56.000000	-0.280000	1081.00	0.20	-0.01	2.25	1.50	2.00	1.50	0.75	1.00	0.50	0.75	0.75	1.00	1.50	1.50	2.25	1.50	1.00	1.25	-1.389160	-0.517090	0.661621	34.439999	-75.809998	-13.790000	235.00	-0.00	-0.09
2.38	1.50	2.75	0.75	1.25	0.00	0.00	3.50	1.00	10.50	11.75	10.50	8.75	8.00	20.00	5.75	5.00	-0.346191	0.105469	0.944336	13.790000	70.910004	-0.490000	1005.00	0.22	-0.01	2.50	1.25	1.75	1.75	0.75	1.00	0.50	0.75	1.25	1.25	1.50	2.00	2.25	1.50	1.50	1.50	-1.041016	-0.220215	0.708496	-0.210000	-48.790001	-85.610001	258.00	0.02	-0.08
2.39	2.50	1.75	0.50	1.50	0.00	0.00	3.00	0.50	10.75	12.00	10.75	8.75	8.25	20.50	5.75	5.25	-0.355957	0.098633	0.948730	14.560000	78.400002	-0.280000	1007.00	0.23	-0.00	2.25	1.75	2.00	1.75	0.75	1.25	0.50	1.00	0.75	1.00	1.25	1.50	2.25	1.50	1.25	1.50	-0.808105	-0.011719	0.682129	-18.059999	-38.080002	-101.080002	249.00	-0.01	-0.10
2.40	2.00	1.25	1.25	1.25	0.50	0.75	2.75	1.00	10.75	12.00	10.75	8.75	8.00	21.25	6.25	5.50	-0.373535	0.107422	0.944336	14.630000	85.820000	-0.280000	1033.00	0.23	-0.01	2.25	1.50	1.50	1.25	0.50	1.00	0.50	1.00	1.00	1.00	1.50	1.75	2.25	1.50	1.25	1.25	-0.591797	0.208496	0.665039	-29.400000	-28.490000	-106.750000	237.00	0.02	-0.10
2.41	1.00	1.00	0.50	0.50	0.25	0.50	2.25	0.25	10.50	12.25	10.75	9.00	7.75	20.75	6.25	5.50	-0.377930	0.126953	0.931152	14.700000	92.610001	-0.910000	970.00	0.25	-0.01	2.50	1.50	1.75	1.50	0.75	1.00	0.50	0.75	1.00	1.00	1.50	1.75	2.00	1.50	1.50	1.25	-0.414551	0.379883	0.629883	-31.360001	-20.580000	-104.440002	245.00	0.01	-0.08
2.42	0.75	2.00	0.50	0.50	0.00	1.00	2.00	0.50	11.00	12.00	11.00	9.00	8.00	21.50	6.50	6.00	-0.391113	0.125977	0.940430	12.460000	100.099998	-1.960000	1003.00	0.25	-0.01	2.00	1.50	1.75	1.50	0.75	1.25	0.50	0.75	1.00	0.75	1.50	2.00	2.00	1.50	1.50	1.50	-0.294434	0.498047	0.597168	-26.600000	-12.670000	-94.709999	244.00	0.02	-0.10
2.43	1.50	1.50	1.00	2.75	0.25	0.50	1.75	0.50	10.75	12.25	11.00	9.00	8.00	21.50	6.75	5.75	-0.413086	0.122070	0.934570	10.290000	107.239998	-3.080000	1033.00	0.23	-0.01	2.00	1.50	1.75	1.75	0.75	1.00	0.50	0.75	1.00	1.00	1.50	1.75	2.25	1.75	1.25	1.50	-0.250488	0.577637	0.528320	-19.110001	-3.150000	-78.610001	245.00	0.02	-0.09
2.44	1.75	1.50	1.25	1.75	0.25	0.50	1.25	0.50	10.75	12.25	11.00	9.00	7.75	21.50	6.75	5.75	-0.441406	0.118164	0.924316	8.540000	112.770004	-3.850000	1016.00	0.23	-0.01	2.00	1.50	1.75	1.50	0.50	1.00	0.50	0.75	1.00	0.75	1.50	1.75	2.00	1.50	1.50	1.75	-0.297852	0.641602	0.470215	-7.630000	8.820000	-57.049999	236.00	0.02	-0.09
2.45	2.00	2.25	1.00	1.25	0.25	0.75	1.00	1.00	10.75	12.50	11.00	9.00	7.75	21.75	7.00	6.00	-0.445801	0.124512	0.910645	7.210000	115.150002	-4.690000	1034.00	0.23	-0.02	2.50	1.25	2.00	1.50	0.75	1.00	0.75	0.50	1.00	0.50	0.00	0.00	0.00	0.00	0.00	0.00	-0.401367	0.595703	0.446777	6.160000	23.379999	-32.970001	145.00	-0.17	0.00
2.46	1.25	2.00	1.50	0.50	0.75	0.75	0.75	0.75	11.75	13.25	11.00	9.50	7.75	23.50	7.50	6.25	-0.460449	0.138184	0.932617	4.550000	117.110001	-5.670000	1070.00	0.24	-0.01	1.50	0.75	0.50	0.50	0.00	0.00	0.25	0.00	0.00	0.00	0.00	0.00	0.00	0.00	0.00	0.00	-1.713379	0.019043	0.783691	9.800000	34.930000	-3.640000	41.00	0.00	0.00
2.47	0.75	1.25	0.25	1.25	0.25	0.50	0.50	0.75	10.50	12.50	11.00	9.00	7.00	22.00	7.50	6.00	-0.465820	0.126465	0.942871	1.540000	116.620003	-6.510000	983.00	0.26	-0.02	2.75	1.75	1.00	0.50	0.00	0.00	0.25	0.00	0.00	0.00	0.00	0.00	0.00	0.00	0.00	0.00	0.149414	0.130371	-0.355469	10.010000	85.470001	10.010000	71.00	-0.35	0.02
2.48	1.50	1.50	1.00	1.50	0.00	1.00	0.25	0.25	10.50	12.50	10.75	8.75	6.50	22.00	7.25	6.25	-0.496582	0.125488	0.912109	-1.190000	119.980003	-7.280000	984.00	0.24	-0.01	4.75	3.00	1.25	1.00	0.00	0.00	0.25	0.00	0.00	0.00	0.00	0.00	0.00	0.00	0.00	0.00	0.544434	0.423828	1.166992	24.639999	104.370003	21.980000	115.00	-0.36	0.00
2.49	0.75	1.50	0.75	1.75	0.25	0.75	0.00	0.50	10.25	12.25	10.75	8.75	6.00	22.25	7.25	6.25	-0.524414	0.136719	0.910156	-3.570000	126.699997	-8.610000	967.00	0.25	-0.01	5.75	4.75	1.50	1.00	0.00	0.00	0.25	0.00	0.00	0.00	0.00	0.00	0.00	0.00	0.00	0.00	0.161621	-0.098145	0.822754	9.170000	81.269997	14.910000	147.00	-0.37	-0.01
2.50	1.75	1.50	1.00	1.50	0.25	0.75	0.00	0.50	10.00	12.25	10.75	8.50	5.75	22.25	7.50	6.50	-0.535156	0.138672	0.897461	-6.230000	133.979996	-10.640000	974.00	0.24	-0.01	8.25	7.00	1.75	1.50	0.00	0.00	0.25	0.00	0.00	0.00	0.00	0.00	0.00	0.00	0.00	0.00	0.124512	-0.128418	1.098145	4.060000	95.410004	1.260000	207.00	-0.37	-0.01
2.51	2.00	1.25	0.75	1.25	0.00	1.00	0.00	0.75	10.00	12.50	10.50	8.25	5.00	22.00	7.25	6.50	-0.558594	0.139648	0.899902	-10.150000	142.940002	-12.950000	957.00	0.25	-0.01	10.75	9.25	2.00	2.00	0.00	0.00	0.00	0.00	0.00	0.00	0.00	0.00	0.00	0.00	0.00	0.00	0.119141	-0.026367	1.318359	-3.080000	104.019997	-12.040000	263.00	-0.38	-0.02
2.52	1.50	2.00	1.00	1.25	0.25	0.75	0.00	0.50	10.00	12.25	10.25	8.00	4.50	21.75	7.25	6.25	-0.613281	0.108398	0.941406	-15.890000	158.899994	-17.990000	941.00	0.24	-0.00	13.50	12.75	2.50	2.50	0.00	0.00	0.25	0.00	0.00	0.00	0.00	0.00	0.00	0.00	0.00	0.00	0.116699	0.031250	1.401855	-3.710000	108.639999	-21.910000	346.00	-0.38	-0.02
2.53	1.75	2.00	0.75	1.25	0.00	1.00	0.00	0.25	9.75	12.00	10.25	7.75	2.75	21.50	7.00	6.25	-0.625000	0.138184	0.886230	-19.110001	168.699997	-21.210001	906.00	0.24	0.00	16.25	15.50	2.25	2.50	0.00	0.00	0.00	0.00	0.00	0.00	0.00	0.00	0.00	0.00	0.00	0.00	0.076660	0.076172	1.168457	0.350000	114.099998	-29.049999	397.00	-0.39	-0.03
2.54	1.50	1.25	0.75	0.75	0.00	0.75	0.00	0.00	9.50	12.00	10.00	7.75	1.75	21.25	6.75	6.00	-0.653809	0.143555	0.909668	-23.379999	180.180008	-24.710001	860.00	0.26	0.01	18.50	17.75	3.00	3.00	0.00	0.00	0.25	0.00	0.00	0.00	0.00	0.00	0.00	0.00	0.00	0.00	0.090820	0.155273	1.142578	2.030000	123.620003	-36.400002	465.00	-0.38	-0.02
2.55	1.25	1.00	0.00	2.25	0.00	1.00	0.00	0.25	9.25	11.75	9.75	7.50	1.25	21.00	6.75	5.75	-0.671875	0.145020	0.918457	-26.320000	192.639999	-28.490000	850.00	0.25	0.01	19.50	19.50	3.00	4.00	0.00	0.00	0.00	0.00	0.00	0.00	0.00	0.00	0.00	0.00	0.00	0.00	0.089355	0.360352	1.145508	-1.890000	132.229996	-41.369999	502.00	-0.39	-0.03
2.56	1.25	0.00	0.00	0.25	0.00	0.25	0.00	0.25	9.00	11.75	9.50	6.75	1.00	20.50	6.50	5.00	-0.708008	0.129395	0.928711	-28.000000	205.660004	-32.130001	777.00	0.28	0.03	21.25	20.50	3.25	4.00	0.00	0.00	0.00	0.00	0.00	0.00	0.00	0.00	0.00	0.00	0.00	0.00	0.020508	0.474121	1.057129	-4.340000	136.919998	-40.250000	535.00	-0.39	-0.03
2.57	1.50	1.25	0.50	0.75	0.25	1.00	0.00	0.50	8.75	11.25	9.50	6.25	1.00	20.00	6.50	5.25	-0.778320	0.140137	0.974121	-28.980000	218.259995	-35.139999	803.00	0.25	0.02	22.00	21.75	3.75	4.75	0.00	0.00	0.25	0.00	0.00	0.00	0.00	0.00	0.00	0.00	0.00	0.00	0.019043	0.516602	1.083496	-4.200000	140.419998	-33.110001	575.00	-0.38	-0.03
2.58	1.50	0.75	1.50	0.00	0.50	1.00	0.00	0.00	8.25	11.00	9.00	5.75	0.75	19.25	6.25	5.00	-0.827148	0.082520	0.970703	-33.670002	232.119995	-38.990002	760.00	0.26	0.03	23.00	22.75	4.25	5.25	0.00	0.00	0.00	0.00	0.00	0.00	0.00	0.00	0.00	0.00	0.00	0.00	-0.010254	0.438477	1.080566	-3.640000	142.240005	-24.290001	604.00	-0.38	-0.03
2.59	1.50	0.75	0.00	0.00	0.00	0.75	0.00	0.00	8.00	10.75	8.75	5.00	0.00	18.75	6.25	3.75	-0.950684	0.122559	1.079590	-39.759998	243.880005	-41.650002	696.00	0.27	0.04	23.75	23.75	4.75	5.50	0.00	0.00	0.25	0.00	0.00	0.00	0.00	0.25	0.00	0.00	0.00	0.00	0.011719	0.394531	1.027832	-7.700000	141.330002	-20.090000	639.00	-0.38	-0.03
2.60	0.00	0.50	0.00	0.50	0.00	1.00	0.25	0.25	7.50	10.50	8.75	5.50	2.50	20.75	6.00	4.75	-1.096191	0.331543	1.189941	-29.750000	248.710007	-38.150002	735.00	0.28	0.01	25.50	24.25	5.00	6.50	0.00	0.00	0.25	0.00	0.00	0.00	0.00	0.00	0.25	0.00	0.00	0.00	-0.066895	0.291016	1.245117	-30.799999	131.949997	-20.790001	678.00	-0.38	-0.03
2.61	2.50	3.00	2.50	1.00	0.50	3.00	0.50	1.00	7.75	10.75	8.50	5.25	2.25	20.00	6.00	4.00	-0.971680	0.221191	0.973633	-14.980000	253.399994	-39.060001	858.00	0.20	0.00	26.00	25.50	5.50	7.50	0.00	0.00	0.25	0.00	0.00	0.00	0.00	0.25	0.25	0.00	0.00	0.00	-0.066895	0.291016	1.245117	-30.799999	131.949997	-20.790001	717.00	-0.37	-0.04
2.62	2.50	2.75	1.50	2.25	0.50	2.50	0.50	1.00	7.00	10.25	8.25	5.00	2.25	18.50	5.50	3.50	-0.986816	-0.003906	1.071289	-9.240000	259.839996	-45.080002	807.00	0.19	-0.00	26.50	26.00	6.50	8.25	0.00	0.00	0.25	0.25	0.00	0.00	0.00	0.00	0.00	0.00	0.00	0.00	-0.083008	0.203613	1.143555	-31.570000	116.970001	-16.660000	748.00	-0.37	-0.04
2.63	2.25	3.00	2.00	1.75	0.75	2.75	0.50	1.25	6.25	10.00	7.75	5.00	2.00	17.25	5.50	3.00	-1.166016	0.040039	1.164551	-15.400000	265.440002	-49.700001	781.00	0.18	-0.01	28.00	26.25	7.25	9.00	0.00	0.25	0.25	0.25	0.00	0.00	0.00	0.00	0.25	0.00	0.00	0.00	-0.057129	0.182129	1.054688	-33.880001	111.650002	-17.430000	791.00	-0.37	-0.04
2.64	2.25	2.75	2.25	1.50	0.75	3.00	0.50	1.00	6.00	9.25	7.50	4.50	2.25	16.00	5.00	2.75	-1.254395	0.431152	1.486328	-10.640000	266.769989	-45.779999	740.00	0.18	-0.01	28.50	27.00	8.00	9.50	0.25	0.25	0.25	0.50	0.00	0.00	0.00	0.00	0.25	0.00	0.00	0.00	-0.043945	0.181152	1.022461	-33.250000	108.220001	-18.900000	827.00	-0.37	-0.04
2.65	2.50	3.25	1.75	2.25	0.75	2.75	0.50	1.50	5.50	9.00	6.50	4.25	2.00	14.75	4.50	2.00	-1.178711	0.208496	1.065430	7.000000	270.200012	-43.330002	708.00	0.16	-0.01	29.50	27.25	9.00	9.75	0.50	0.50	0.50	0.50	0.00	0.00	0.00	0.00	0.50	0.25	0.00	0.00	-0.081055	0.197754	1.037109	-29.260000	104.510002	-19.040001	870.00	-0.36	-0.03
2.66	2.25	3.50	1.50	2.25	0.75	2.75	0.25	0.00	3.50	8.50	5.75	2.50	0.00	11.00	1.75	0.50	-1.080566	0.162598	1.228027	24.990000	276.640015	-54.040001	518.00	0.13	0.01	30.25	27.75	9.50	10.50	0.50	0.75	0.50	0.50	0.00	0.00	0.00	0.00	0.00	0.00	0.00	0.00	-0.106934	0.191895	1.033203	-24.290001	101.220001	-18.129999	895.00	-0.36	-0.03
2.67	0.50	1.75	3.25	1.25	1.00	2.75	0.25	1.50	4.75	8.00	5.00	3.75	0.00	9.75	1.75	0.50	-1.125000	0.162598	1.228027	24.990000	276.640015	-54.040001	525.00	0.15	-0.00	30.50	28.00	10.00	11.25	0.75	1.00	0.50	0.50	0.00	0.00	0.00	0.00	0.25	0.50	0.00	0.25	-0.093262	0.188477	0.985840	-19.250000	99.400002	-17.290001	930.00	-0.35	-0.04
2.68	1.50	1.00	0.25	1.00	0.00	0.75	0.00	0.00	1.25	6.50	4.50	2.25	0.00	8.75	1.00	0.25	-0.966797	0.281250	1.209961	33.250000	278.390015	-63.770000	314.00	0.20	0.01	31.00	28.50	11.00	12.00	1.00	1.25	0.50	0.50	0.00	0.00	0.00	0.00	0.00	0.00	0.00	0.00	-0.083984	0.178711	0.931152	-14.070000	99.330002	-16.590000	959.00	-0.36	-0.04
2.69	1.50	1.25	0.50	0.50	0.00	1.25	0.00	0.00	1.50	5.75	3.50	2.00	0.00	7.75	1.00	0.00	-0.855957	0.236328	1.156738	36.750000	267.679993	-71.959999	290.00	0.18	0.02	31.75	28.75	11.25	12.75	1.25	1.50	0.50	0.75	0.00	0.00	0.00	0.00	0.25	0.50	0.00	0.00	-0.095703	0.533691	1.028809	-50.470001	78.330002	-12.530000	999.00	-0.35	-0.04
2.70	1.00	0.25	0.75	0.00	0.00	0.25	0.00	0.00	0.75	5.25	3.50	1.75	0.00	6.00	0.50	0.00	-0.781250	0.315430	1.289551	29.330000	239.470001	-80.080002	218.00	0.22	0.03	31.25	28.75	12.00	13.00	1.50	2.00	0.75	0.75	0.00	0.00	0.00	0.25	0.75	0.50	0.25	0.25	-0.231445	0.303711	1.228516	-44.590000	71.889999	-5.460000	1031.00	-0.34	-0.04
2.71	0.00	0.00	0.00	0.00	0.00	0.50	0.00	0.00	1.25	4.25	2.50	1.75	0.50	3.25	0.75	0.00	-0.424805	0.123047	1.017090	22.330000	207.830002	-81.550003	164.00	0.26	-0.00	31.00	28.25	12.50	13.50	1.75	2.25	0.75	1.00	0.25	0.00	0.00	0.50	0.75	1.00	0.00	0.25	-0.196777	0.158691	1.414551	-79.309998	74.690002	-2.940000	1054.00	-0.33	-0.04
2.72	1.50	1.50	0.75	1.00	0.00	1.00	0.00	0.25	1.00	3.50	2.25	1.00	0.00	1.00	0.50	0.25	-0.643555	0.160156	0.891113	4.410000	165.619995	-82.110001	177.00	0.04	-0.04	31.25	27.75	13.00	14.00	2.25	2.75	1.00	1.25	0.00	0.00	0.25	0.50	1.00	1.00	0.00	0.00	-0.127930	0.081543	1.078613	-105.279999	69.790001	-3.780000	1084.00	-0.32	-0.04
2.73	0.25	1.00	1.25	0.00	0.00	0.00	0.00	0.00	0.25	2.25	1.25	0.00	0.00	0.50	0.50	0.00	-0.693848	0.118652	1.298828	-17.430000	133.000000	-85.610001	82.00	0.06	0.02	31.25	28.25	13.50	14.00	2.75	2.75	1.00	1.50	0.00	0.25	0.25	0.75	1.25	1.50	0.00	0.00	-0.173340	0.135254	1.087891	-106.120003	54.880001	-5.460000	1118.00	-0.31	-0.04
2.74	0.00	0.00	0.00	0.00	0.00	0.00	0.25	0.00	0.00	1.75	0.75	0.00	0.00	0.25	0.00	0.25	0.778320	0.367676	1.130859	-29.610001	83.790001	-84.139999	36.00	0.00	0.00	31.25	28.00	13.75	14.25	2.75	3.00	1.25	1.50	0.25	0.50	0.50	1.00	1.50	1.75	0.25	0.25	-0.165039	0.091309	1.065430	-59.709999	31.920000	-5.810000	1150.00	-0.30	-0.04
2.75	0.00	0.00	0.00	0.00	0.00	0.00	0.00	0.00	0.00	1.25	0.50	0.00	0.00	0.00	0.00	0.00	-0.488770	1.052734	3.724121	28.910000	61.670002	-79.800003	20.00	0.00	0.00	31.50	27.50	14.25	14.75	3.00	3.25	1.50	2.00	0.25	1.00	1.00	0.75	1.50	2.25	0.25	0.25	-0.188965	0.079590	1.057129	-36.470001	20.090000	-7.000000	1191.00	-0.29	-0.04
2.76	0.00	0.00	0.00	0.00	0.00	0.00	0.25	0.00	0.00	1.25	1.00	0.25	0.00	0.00	0.00	0.25	0.194824	0.218750	1.945801	14.770000	-90.019997	-64.889999	34.00	0.00	0.00	31.00	27.50	14.50	14.75	3.50	3.00	1.50	1.75	0.50	1.25	0.75	0.50	2.00	2.75	0.50	0.00	-0.162109	0.126953	1.003418	-25.129999	10.990000	-6.930000	1199.00	-0.28	-0.04
2.77	0.25	0.00	0.00	0.25	0.00	0.25	0.25	0.00	0.75	1.75	0.50	0.25	0.00	0.25	0.00	0.50	0.410156	0.050781	0.751465	-15.260000	-157.919998	-46.830002	57.00	0.16	0.03	31.25	27.25	14.75	14.50	3.50	3.25	2.00	2.00	0.75	1.50	1.00	1.00	2.00	2.75	0.25	0.25	-0.153809	0.100586	1.001953	-18.969999	8.120000	-5.740000	1228.00	-0.27	-0.04
2.78	0.25	0.50	0.25	0.25	0.00	0.50	0.25	0.00	0.50	1.75	0.75	0.25	0.00	0.00	0.25	0.00	0.041992	0.303711	0.584961	-43.189999	-154.559998	-40.040001	65.00	0.07	-0.01	30.75	26.50	14.75	14.25	4.00	2.75	2.25	1.75	1.25	1.50	1.00	1.00	1.75	3.00	0.25	0.25	-0.150391	0.109375	0.974121	-15.540000	8.400000	-5.880000	1219.00	-0.27	-0.03
2.79	1.25	0.50	1.25	0.25	0.00	0.75	0.25	0.25	0.50	1.50	0.75	0.00	0.00	0.25	0.00	0.25	0.043945	0.534180	0.509277	-46.130001	-146.020004	-26.740000	91.00	-0.05	0.00	30.25	26.25	14.75	14.00	4.25	3.00	2.50	2.00	1.50	1.50	1.25	1.00	2.00	3.25	0.50	0.25	-0.149902	0.117676	0.983887	-13.860000	8.890000	-5.600000	1236.00	-0.26	-0.03
2.80	1.25	1.00	0.50	0.75	0.25	1.00	0.25	0.25	0.50	1.50	0.75	0.00	0.00	0.00	0.00	0.00	0.189941	0.438477	0.583984	-35.560001	-139.720001	-13.930000	95.00	-0.09	-0.03	29.75	25.25	14.50	14.00	4.50	2.75	2.75	2.00	1.75	1.75	1.25	1.00	2.00	3.25	0.50	0.25	-0.149414	0.105469	0.968750	-12.880000	9.100000	-5.250000	1228.00	-0.25	-0.03
2.81	1.25	0.75	0.50	0.75	0.00	1.00	0.25	0.25	0.25	1.50	0.50	0.00	0.25	0.00	0.25	0.00	0.142578	0.379395	0.902344	-23.379999	-145.669998	-6.580000	89.00	-0.08	-0.06	29.50	24.50	14.00	13.25	4.75	3.00	3.00	1.75	2.00	1.75	1.25	1.00	2.25	3.75	0.50	0.25	-0.140137	0.111328	0.963379	-11.760000	9.100000	-4.970000	1219.00	-0.25	-0.03
2.82	1.25	1.25	0.00	0.75	0.25	0.50	0.25	0.00	0.25	1.25	0.50	0.25	0.00	0.00	0.00	0.00	0.120117	0.243164	1.041504	-23.450001	-190.610001	5.390000	75.00	-0.11	-0.04	28.00	24.00	14.25	13.00	4.75	2.25	3.25	2.00	2.25	2.25	1.50	1.00	2.00	3.75	0.50	0.25	-0.143555	0.105469	0.967285	-11.270000	9.100000	-4.480000	1206.00	-0.24	-0.02
2.83	1.00	1.00	0.50	0.50	0.25	0.75	0.25	0.50	0.75	1.50	0.75	0.00	0.00	0.00	0.00	0.00	0.046875	0.257812	0.971680	-28.559999	-214.270004	8.330000	94.00	-0.05	-0.03	27.50	23.00	14.00	12.75	4.75	2.25	3.50	2.00	2.50	2.25	1.50	1.00	2.25	4.00	0.50	0.25	-0.166992	0.106934	0.970703	-10.570000	9.240000	-3.990000	1197.00	-0.23	-0.02
2.84	1.50	0.50	0.75	0.75	0.00	1.25	0.25	0.00	0.25	0.75	0.50	0.00	0.00	0.00	0.00	0.00	-0.027832	0.268555	0.864258	-28.000000	-232.470001	9.240000	77.00	-0.15	-0.03	26.75	22.25	13.75	12.25	4.75	2.25	3.75	1.75	3.00	2.50	1.50	1.00	2.25	4.25	0.50	0.50	-0.157227	0.095215	0.958984	-9.380000	9.240000	-3.710000	1185.00	-0.22	-0.02
2.85	1.50	1.75	0.25	0.75	0.00	1.00	0.25	0.25	0.50	1.00	0.75	0.00	0.00	0.00	0.00	0.25	-0.090332	0.270996	0.811523	-19.600000	-244.509995	8.260000	95.00	-0.13	-0.06	25.75	21.25	13.25	11.75	4.75	2.00	3.75	1.75	3.50	2.75	1.75	1.25	2.25	4.50	0.75	0.00	-0.157227	0.095215	0.958984	-9.380000	9.240000	-3.710000	1167.00	-0.21	-0.01
2.86	1.25	1.00	0.75	1.00	0.00	0.75	0.25	0.25	0.25	0.75	0.25	0.00	0.00	0.50	0.25	0.75	-0.171387	0.255371	0.843750	-5.040000	-253.960007	5.460000	89.00	-0.10	-0.05	25.00	20.50	13.25	11.50	4.75	1.75	4.00	1.75	3.75	3.00	1.75	1.00	2.25	4.75	0.25	0.50	-0.163086	0.096680	0.960938	-9.310000	7.840000	-3.150000	1152.00	-0.20	-0.01
2.87	1.50	1.00	0.25	0.50	0.25	0.75	0.25	0.25	0.50	0.75	0.25	0.00	0.00	0.25	0.00	0.25	-0.260254	0.216309	0.903809	11.060000	-262.920013	1.610000	79.00	-0.11	-0.02	24.75	19.25	13.00	11.00	4.75	2.00	4.25	1.75	4.00	3.00	2.00	1.00	2.25	4.75	0.50	0.50	-0.165527	0.106445	0.950684	-8.960000	7.350000	-3.010000	1144.00	-0.20	-0.01
2.88	1.25	0.50	0.00	1.00	0.00	1.00	0.25	0.25	0.25	1.00	0.50	0.00	0.50	0.25	0.00	0.00	-0.319824	0.167480	0.917969	23.170000	-271.600006	-2.800000	79.00	-0.08	-0.08	23.75	18.50	12.75	10.75	5.00	1.50	4.50	1.75	4.50	3.25	2.00	1.25	2.50	5.00	0.25	0.25	-0.164062	0.100098	0.951660	-8.470000	6.930000	-2.870000	1133.00	-0.19	-0.00
2.89	1.50	0.75	0.75	1.00	0.00	1.00	0.25	0.25	0.25	0.75	0.25	0.00	0.50	0.00	0.50	0.25	-0.397949	0.158203	0.914062	29.820000	-277.269989	-6.650000	93.00	-0.11	-0.08	23.00	17.75	12.50	10.25	5.00	1.75	4.50	1.75	5.00	3.25	2.00	1.25	2.50	5.25	0.75	0.00	-0.169434	0.100586	0.953613	-8.120000	6.300000	-2.800000	1125.00	-0.18	0.00
2.90	1.00	1.00	0.50	1.25	0.25	1.00	0.25	0.25	0.50	1.00	0.25	0.00	0.00	0.00	0.00	0.25	-0.462891	0.174316	0.897949	33.670002	-278.529999	-8.190000	89.00	-0.12	-0.06	22.25	17.00	12.50	9.75	5.00	1.50	4.75	1.75	5.25	3.50	2.00	1.25	2.75	5.50	0.50	0.25	-0.161621	0.111328	0.956543	-7.910000	5.670000	-2.800000	1114.00	-0.17	0.00
2.91	1.25	2.00	0.50	1.50	0.00	1.00	0.25	0.25	0.00	0.75	0.50	0.00	0.00	0.00	0.00	0.25	-0.521484	0.202637	0.901367	38.430000	-276.010010	-7.280000	94.00	-0.20	-0.10	21.75	16.25	12.25	9.50	5.00	1.50	5.00	1.75	5.75	4.00	2.25	1.50	3.00	5.75	0.50	0.00	-0.156738	0.087891	0.951660	-7.490000	5.180000	-2.450000	1121.00	-0.15	0.01
2.92	1.50	1.25	0.75	1.25	0.25	1.00	0.25	0.25	0.00	1.00	0.50	0.00	0.00	0.00	0.75	0.25	-0.582520	0.220703	0.981934	46.130001	-272.019989	-4.060000	104.00	-0.12	-0.07	20.75	15.25	11.75	9.25	5.25	1.25	5.00	1.75	6.00	4.00	2.50	1.25	3.00	6.00	0.75	0.00	-0.158203	0.083008	0.951172	-7.280000	4.760000	-2.310000	1099.00	-0.14	0.01
2.93	1.25	1.00	0.75	1.00	0.25	1.00	0.25	0.25	0.25	0.75	0.00	0.00	0.00	0.00	0.00	0.00	-0.645020	0.214844	1.086914	56.209999	-269.290009	1.260000	81.00	-0.18	-0.05	20.75	14.50	11.75	9.00	5.25	1.25	5.00	1.75	6.25	4.25	2.50	1.25	3.25	6.25	0.50	0.25	-0.161621	0.094727	0.959473	-6.930000	4.690000	-2.450000	1098.00	-0.14	0.01
2.94	2.00	1.25	0.50	1.00	0.00	0.75	0.25	0.25	0.25	0.75	0.25	0.00	0.00	0.00	0.00	0.00	-0.781250	0.164551	1.245117	72.169998	-267.610016	16.799999	85.00	-0.20	-0.04	19.75	13.75	11.50	8.75	5.25	1.50	5.25	1.75	6.75	4.50	2.75	1.50	3.75	6.50	0.75	0.25	-0.155273	0.093262	0.956055	-6.440000	4.340000	-2.380000	1106.00	-0.12	0.01
2.95	1.50	1.50	0.75	1.00	0.00	1.25	0.25	0.25	0.25	0.75	0.25	0.00	0.50	0.00	0.00	0.00	-0.781250	0.164551	1.245117	72.169998	-267.610016	16.799999	96.00	-0.17	-0.09	19.25	12.75	11.25	8.50	5.25	1.50	5.25	2.00	7.00	4.75	2.75	1.75	3.75	6.75	0.75	0.25	-0.160645	0.089355	0.955566	-5.950000	4.130000	-2.380000	1100.00	-0.11	0.01
2.96	1.00	1.25	0.75	1.00	0.25	0.75	0.25	0.00	0.25	0.75	0.25	0.00	0.00	0.00	0.00	0.00	-0.812012	0.150879	1.252930	70.980003	-265.860016	28.420000	76.00	-0.18	-0.04	18.50	12.00	11.00	8.50	5.25	1.50	5.25	1.75	7.25	5.25	3.00	1.50	3.50	7.25	0.75	0.50	-0.160156	0.089844	0.958008	-5.460000	3.640000	-2.240000	1090.00	-0.10	0.02
2.97	1.25	1.50	0.50	1.50	0.25	1.00	0.25	0.50	0.25	1.00	0.25	0.00	0.25	0.00	0.25	0.25	-0.829102	0.193848	1.330566	65.449997	-258.510010	54.740002	105.00	-0.14	-0.10	17.75	11.00	10.75	8.25	5.50	1.50	5.50	2.00	7.50	5.75	3.00	1.75	4.00	7.25	0.50	0.25	-0.164551	0.095703	0.964844	-5.110000	3.290000	-2.170000	1089.00	-0.09	0.02
2.98	1.25	0.25	0.75	1.00	0.00	1.25	0.25	0.00	0.00	0.75	0.00	0.00	0.25	0.00	0.25	0.00	-0.833008	0.164551	1.405273	69.580002	-255.500000	65.379997	71.00	-0.16	-0.07	17.50	10.25	10.50	8.00	5.50	1.50	5.50	2.00	7.75	6.25	3.25	2.00	4.50	7.50	1.00	0.50	-0.163086	0.090332	0.960938	-4.550000	3.360000	-1.680000	1102.00	-0.08	0.02
2.99	1.25	1.25	0.50	1.00	0.00	0.75	0.25	0.25	0.25	0.75	0.25	0.00	0.00	0.00	0.00	0.00	-0.840820	0.115234	1.482422	75.320000	-254.169998	73.150002	77.00	-0.18	-0.06	16.25	9.75	10.25	7.75	5.50	1.50	5.50	2.00	7.75	6.25	3.25	2.00	4.75	7.75	1.00	0.50	-0.163574	0.091309	0.959473	-4.130000	3.780000	-1.540000	1081.00	-0.07	0.01
3.00	1.75	1.75	0.75	1.25	0.25	1.00	0.25	0.00	0.25	0.75	0.00	0.00	0.00	0.00	0.00	0.00	-0.852539	0.053711	1.520996	77.699997	-253.610001	78.540001	93.00	-0.23	-0.04	16.00	9.00	10.00	7.50	5.50	1.50	5.75	2.25	8.00	7.00	3.50	2.25	5.00	7.75	1.00	0.25	-0.166504	0.094727	0.955078	-3.710000	4.200000	-1.610000	1092.00	-0.06	0.02
3.01	2.00	1.00	0.75	0.75	0.25	1.25	0.25	0.00	0.25	0.75	0.00	0.00	0.25	0.00	0.00	0.00	-0.857910	0.027344	1.522461	74.970001	-252.559998	82.389999	87.00	-0.20	-0.03	15.25	8.75	9.75	7.25	5.75	1.25	5.75	2.25	8.00	7.00	3.75	2.50	5.25	8.00	0.75	0.50	-0.166016	0.090332	0.955566	-3.430000	5.040000	-1.680000	1084.00	-0.05	0.01
3.02	2.00	1.50	1.00	0.00	0.25	1.50	0.25	0.25	0.00	1.00	0.25	0.00	0.00	0.00	0.00	0.00	-0.869141	0.022949	1.520508	69.510002	-250.110001	85.050003	93.00	-0.19	-0.04	14.50	8.25	9.75	7.00	5.75	1.50	5.75	2.25	8.25	7.50	4.25	2.50	5.25	8.25	1.00	0.50	-0.161621	0.094727	0.958496	-3.150000	5.600000	-1.820000	1090.00	-0.04	0.01
3.03	1.50	1.00	1.00	0.75	0.25	1.00	0.25	0.00	0.25	1.00	0.25	0.00	0.00	0.00	0.00	0.00	-0.848633	0.042480	1.509277	63.349998	-246.119995	87.430000	85.00	-0.17	-0.02	14.25	7.75	9.50	6.75	5.75	1.25	6.00	2.25	8.25	7.75	4.25	2.50	5.75	8.25	1.00	0.75	-0.159180	0.088379	0.953613	-2.590000	6.160000	-1.960000	1086.00	-0.04	0.02
3.04	1.25	0.75	0.75	1.25	0.00	1.25	0.25	0.00	0.00	0.50	0.25	0.25	0.00	0.25	0.00	0.00	-0.856934	0.074707	1.517578	59.920002	-241.500000	90.160004	79.00	-0.18	-0.07	13.00	7.25	9.25	6.50	5.75	1.00	6.00	2.50	8.50	7.75	4.75	2.75	6.00	8.50	1.00	0.50	-0.166016	0.086426	0.958984	-2.170000	6.930000	-2.100000	1078.00	-0.02	0.01
3.05	1.50	1.50	0.25	1.00	0.25	1.25	0.25	0.00	0.25	0.75	0.25	0.00	0.50	0.25	0.00	0.00	-0.875000	0.086426	1.490723	58.029999	-236.389999	93.099998	91.00	-0.16	-0.07	12.75	6.75	9.00	6.25	5.50	1.50	6.00	2.50	8.75	8.25	5.75	3.00	6.50	8.75	1.00	0.50	-0.161133	0.093262	0.958984	-1.750000	7.980000	-2.310000	1097.00	-0.01	0.01
3.06	1.25	0.50	0.75	1.00	0.25	0.75	0.25	0.25	0.25	1.00	0.25	0.00	0.50	0.00	0.00	0.00	-0.882324	0.117676	1.471191	54.529999	-230.369995	97.300003	83.00	-0.12	-0.06	11.25	6.25	8.75	5.75	5.75	1.00	6.00	2.50	8.75	8.50	6.00	3.00	6.50	9.00	1.25	0.75	-0.162598	0.092285	0.960449	-1.260000	9.030000	-2.380000	1076.00	0.00	0.01
3.07	1.75	1.00	0.75	1.50	0.25	1.25	0.25	0.25	0.25	0.75	0.25	0.00	0.00	0.00	0.25	0.25	-0.877930	0.165527	1.469727	49.840000	-223.649994	103.110001	102.00	-0.16	-0.07	10.50	6.00	8.50	5.50	5.50	1.00	6.00	2.75	9.00	8.50	7.00	3.50	7.00	9.00	1.25	0.75	-0.166992	0.090820	0.956543	-0.910000	10.010000	-2.380000	1085.00	0.01	0.01
3.08	1.00	1.50	1.00	0.75	0.00	0.75	0.25	0.00	0.00	0.75	0.25	0.00	0.00	0.00	0.00	0.00	-0.877930	0.213867	1.506348	46.689999	-217.210007	109.760002	72.00	-0.21	-0.05	9.25	5.50	8.00	5.25	5.50	1.00	6.25	2.50	9.25	8.75	7.50	4.00	7.50	9.25	1.25	0.75	-0.166992	0.088379	0.959473	-1.190000	11.130000	-2.380000	1082.00	0.03	0.00
3.09	1.50	1.50	0.75	1.00	0.00	0.75	0.25	0.25	0.00	0.75	0.25	0.00	0.25	0.00	0.00	0.00	-0.884277	0.218750	1.511230	45.150002	-211.050003	115.639999	84.00	-0.20	-0.08	8.75	5.00	7.75	4.75	5.25	0.75	6.25	2.75	9.50	9.00	7.75	4.50	7.50	9.50	1.25	1.25	-0.170898	0.086914	0.968750	-1.820000	13.580000	-2.800000	1081.00	0.04	0.00
3.10	1.25	1.25	0.75	0.75	0.00	0.75	0.25	0.25	0.00	0.75	0.25	0.00	0.25	0.00	0.00	0.00	-0.896484	0.226074	1.509766	44.170002	-205.380005	119.629997	76.00	-0.18	-0.08	7.75	4.75	7.50	4.25	5.25	0.75	6.25	2.75	9.50	9.25	8.00	4.75	7.75	9.75	1.25	1.25	-0.185547	0.098145	0.954590	-1.120000	14.980000	-3.150000	1071.00	0.05	0.00
3.11	1.50	1.00	0.50	0.75	0.00	1.00	0.25	0.00	0.25	1.00	0.25	0.00	0.00	0.00	0.00	0.00	-0.895020	0.233398	1.524414	44.099998	-200.339996	121.940002	76.00	-0.16	-0.03	7.25	4.25	7.00	3.50	5.25	0.75	6.25	2.75	9.75	9.50	8.25	5.00	8.00	10.25	1.75	1.75	-0.180176	0.091309	0.944336	-1.050000	16.870001	-3.570000	1073.00	0.07	0.00
3.12	1.25	0.75	0.50	1.25	0.25	1.00	0.25	0.25	0.00	0.50	0.25	0.00	0.25	0.00	0.00	0.00	-0.936523	0.248047	1.476562	46.340000	-192.430008	123.900002	77.00	-0.19	-0.09	6.50	3.25	6.25	3.00	4.75	0.50	6.25	2.50	10.00	10.00	8.75	5.50	8.25	10.75	1.50	1.75	-0.183594	0.094727	0.966797	-1.540000	19.809999	-4.970000	1051.00	0.09	0.00
3.13	1.25	1.00	1.25	1.00	0.25	0.75	0.25	0.25	0.50	0.25	0.25	0.25	0.25	0.00	0.25	0.00	-0.984375	0.220703	1.340332	45.430000	-187.039993	124.809998	93.00	-0.15	-0.05	6.25	3.00	6.00	2.75	4.50	0.25	6.25	2.75	10.25	10.00	9.00	6.25	8.75	11.00	2.00	1.75	-0.193848	0.087891	0.962402	-1.260000	22.610001	-5.810000	1066.00	0.10	0.00
3.14	1.25	1.00	0.75	1.00	0.00	0.75	0.25	0.25	0.50	0.50	0.25	0.25	0.25	0.00	0.25	0.25	-1.051758	0.176270	1.155762	44.730000	-178.009995	127.120003	88.00	-0.12	-0.07	5.75	2.50	5.50	2.75	4.00	0.00	6.25	2.75	10.25	10.50	9.50	7.25	8.75	11.50	2.00	2.00	-0.175781	0.091309	0.966797	-0.700000	24.780001	-6.370000	1069.00	0.11	-0.00
3.15	1.50	0.75	0.25	1.00	0.00	0.75	0.25	0.25	0.00	0.50	0.25	0.00	0.25	0.00	0.00	0.00	-1.105469	0.038086	0.762207	48.790001	-164.850006	131.809998	68.00	-0.19	-0.09	5.00	2.50	5.00	2.50	3.25	0.25	6.00	2.50	10.50	10.75	9.75	7.50	9.00	12.00	2.00	2.25	-0.157227	0.100098	0.983887	-0.490000	28.000000	-7.070000	1058.00	0.12	-0.00
3.16	1.25	1.25	0.75	1.00	0.25	0.75	0.25	0.25	0.25	0.75	0.25	0.00	0.25	0.00	0.00	0.00	-1.203125	-0.184082	0.780273	74.059998	-143.430008	139.229996	85.00	-0.17	-0.06	4.50	2.00	4.00	2.25	3.00	0.00	6.00	2.25	10.75	11.00	10.25	7.75	9.50	12.50	2.50	2.75	-0.196289	0.090332	0.972656	-0.490000	32.410000	-7.700000	1055.00	0.14	-0.01
3.17	1.25	0.75	0.75	1.25	0.00	1.00	0.25	0.00	0.25	0.50	0.25	0.00	0.25	0.00	0.25	0.25	-1.418945	-0.470703	0.714355	81.199997	-119.209999	136.990005	81.00	-0.15	-0.07	3.75	2.00	3.25	2.25	2.25	0.25	5.75	2.00	11.00	11.25	10.25	8.00	9.50	13.00	2.75	2.75	-0.211426	0.083496	0.963379	-0.630000	36.259998	-7.700000	1040.00	0.15	-0.01
3.18	1.25	0.00	0.50	0.75	0.25	0.75	0.25	0.25	0.00	0.50	0.00	0.00	0.25	0.00	0.00	0.00	-1.554199	-0.467285	0.598633	68.529999	-95.760002	121.800003	57.00	-0.17	-0.06	2.50	1.50	2.75	2.00	1.75	0.25	5.75	2.00	11.25	11.50	10.75	8.25	9.50	13.75	3.00	3.00	-0.219238	0.042969	0.977539	-2.660000	40.670002	-4.340000	1032.00	0.17	-0.01
3.19	1.25	0.25	1.00	1.25	0.25	1.00	0.25	0.25	0.25	0.50	0.00	0.00	0.50	0.25	0.00	0.00	-1.719727	-0.361816	0.438965	59.010002	-74.199997	97.650002	83.00	-0.15	-0.06	3.00	1.50	2.00	1.50	1.75	0.00	5.50	1.50	11.25	11.75	11.00	8.50	9.75	14.25	3.25	3.75	-0.225098	0.169922	0.947754	2.310000	47.320000	-3.850000	1030.00	0.18	-0.01
3.20	1.50	0.75	0.75	1.25	0.25	1.00	0.25	0.25	0.25	0.50	0.25	0.00	0.50	0.00	0.00	0.25	-1.824219	-0.318359	0.312988	66.080002	-52.570000	67.410004	90.00	-0.16	-0.08	2.50	1.50	2.00	1.75	1.50	0.00	5.25	1.50	11.50	12.00	11.25	8.75	9.75	15.00	3.50	3.75	-0.216309	0.083496	0.979980	6.160000	53.130001	-5.040000	1042.00	0.19	-0.01
3.21	1.50	1.00	1.00	1.00	0.00	0.50	0.25	0.25	0.25	0.50	0.00	0.00	0.00	0.00	0.00	0.00	-1.839355	-0.349121	0.309570	77.699997	-29.750000	35.840000	75.00	-0.22	-0.03	2.25	1.25	1.75	1.75	1.00	0.00	5.00	1.25	11.50	12.25	11.50	9.00	9.75	15.50	3.75	4.25	-0.232910	0.090820	0.976074	9.450000	59.290001	-6.090000	1039.00	0.20	-0.01
3.22	0.00	0.00	0.00	0.00	0.00	0.00	0.25	0.00	0.00	0.25	0.25	0.00	0.00	0.00	0.00	0.00	-1.713379	-0.432617	0.390137	73.010002	-7.350000	8.470000	10.00	0.00	0.00	1.50	1.25	1.50	1.50	0.75	0.00	4.50	1.00	11.75	12.50	11.75	9.25	9.75	16.00	4.00	4.75	-0.267578	0.099121	0.988281	15.120000	76.510002	-7.210000	1031.00	0.21	-0.01
3.23	0.00	0.00	0.00	0.00	0.00	0.00	0.25	0.00	0.00	0.25	0.00	0.00	0.00	0.00	0.00	0.00	-1.485352	-0.421875	0.454102	49.070000	13.020000	-11.830000	7.00	0.00	0.00	1.50	1.00	1.25	0.75	0.50	0.00	3.75	1.00	11.75	12.75	12.00	9.50	9.75	16.50	4.50	5.00	-0.293945	0.097656	1.005371	17.080000	91.070000	-7.770000	1022.00	0.22	-0.01
3.24	1.25	1.75	0.50	0.75	0.00	0.50	0.25	0.00	0.00	0.25	0.00	0.00	0.25	0.00	0.00	0.00	-1.221191	-0.314941	0.569824	18.760000	30.450001	-26.320000	62.00	-0.27	-0.07	1.50	1.25	1.00	1.00	0.50	0.00	3.25	0.75	11.75	13.00	12.00	9.50	9.50	17.00	4.75	5.00	-0.303223	0.123535	1.051270	18.059999	109.270004	-9.240000	1020.00	0.23	-0.01
3.25	1.25	0.75	0.25	1.00	0.00	0.75	0.25	0.25	0.00	0.00	0.00	0.00	0.00	0.50	0.00	0.25	-0.964844	-0.160156	0.727539	-5.390000	40.740002	-37.029999	60.00	-0.20	-0.08	1.50	1.00	0.75	1.00	0.50	0.00	2.50	0.50	11.75	13.00	12.25	9.75	9.50	17.25	5.00	5.25	-0.269531	0.130859	1.027832	19.180000	128.660004	-11.550000	1010.00	0.23	-0.02
3.26	1.00	0.25	0.25	0.50	0.00	0.75	0.25	0.00	0.00	0.00	0.00	0.00	0.00	0.00	0.00	0.25	-0.627930	0.040039	0.752441	-16.590000	41.090000	-50.750000	37.00	0.00	0.00	1.25	0.75	0.75	0.75	0.00	0.00	2.00	0.50	11.75	13.25	12.25	9.50	9.25	18.00	5.00	5.50	-0.325195	0.147461	1.012695	21.490000	142.589996	-16.030001	994.00	0.24	-0.01
3.27	1.75	0.00	0.25	0.75	0.00	0.75	0.25	0.00	0.00	0.50	0.00	0.00	0.00	0.00	0.00	0.00	-0.547852	0.086914	0.719238	-14.070000	39.480000	-52.360001	51.00	-0.22	-0.01	1.00	0.75	0.75	0.75	0.00	0.00	1.25	0.25	11.75	13.25	12.25	9.75	9.25	18.50	5.50	5.50	-0.354004	0.126465	1.004395	18.129999	154.910004	-19.950001	988.00	0.25	-0.02
3.28	1.25	0.00	0.00	1.25	0.00	1.00	0.25	0.00	0.00	0.00	0.00	0.00	0.25	0.25	0.00	0.25	-0.535156	0.148438	0.700195	-11.270000	38.779999	-48.439999	51.00	-0.19	-0.10	1.00	1.00	0.75	0.50	0.00	0.00	0.75	0.50	11.50	13.25	12.25	9.75	8.75	19.00	5.75	5.50	-0.394531	0.128418	1.038574	14.490000	165.479996	-24.290001	982.00	0.25	-0.02
3.29	2.00	2.00	0.75	1.00	0.00	0.25	0.25	0.00	0.00	0.25	0.00	0.00	0.25	0.00	0.00	0.00	-0.001953	-0.008789	2.184570	16.240000	120.959999	-38.849998	76.00	-0.29	-0.05	0.50	0.75	0.50	0.75	0.00	0.00	0.50	0.50	11.25	13.25	12.25	9.50	8.75	19.50	6.00	5.50	-0.394043	0.145508	1.037598	10.850000	173.529999	-27.580000	971.00	0.26	-0.02
3.30	2.75	3.00	0.00	0.75	0.00	0.00	0.25	0.00	0.00	0.00	0.00	0.00	0.00	0.00	0.00	0.00	-0.381836	-0.004395	-0.369629	-20.790001	119.840004	-52.150002	74.00	-0.37	-0.04	0.50	0.75	0.25	0.25	0.00	0.00	0.00	0.50	11.25	13.25	12.00	9.25	8.50	19.75	6.00	5.75	-0.418457	0.115234	1.121094	5.740000	174.580002	-30.030001	950.00	0.27	-0.02
3.31	4.00	5.00	0.75	1.75	0.00	0.00	0.25	0.00	0.00	0.00	0.00	0.00	0.00	0.00	0.00	0.00	0.369629	0.331543	1.301758	-45.009998	125.790001	-64.400002	130.00	-0.36	-0.05	0.50	0.50	0.00	0.50	0.00	0.00	0.00	0.25	11.00	13.25	12.00	9.25	8.25	20.00	6.25	5.75	-0.445801	0.123047	0.993164	1.120000	179.899994	-31.219999	942.00	0.27	-0.02
3.32	5.25	6.25	1.00	1.50	0.00	0.00	0.25	0.00	0.00	0.25	0.00	0.00	0.00	0.00	0.00	0.00	0.178223	0.428223	1.170898	-46.410000	121.169998	-60.900002	159.00	-0.36	-0.04	0.00	0.25	0.25	0.25	0.00	0.00	0.00	0.25	10.75	13.25	12.00	9.00	7.75	20.00	6.25	5.75	-0.474121	0.120117	0.978027	-2.170000	191.240005	-32.900002	923.00	0.28	-0.02
3.33	7.25	8.75	1.50	2.25	0.00	0.00	0.00	0.00	0.00	0.25	0.00	0.00	0.00	0.00	0.00	0.25	-0.155762	0.539062	1.038086	-28.070000	123.690002	-43.330002	220.00	-0.37	-0.05	0.50	0.25	0.25	0.00	0.00	0.00	0.00	0.50	10.50	13.00	11.75	9.00	7.50	20.25	6.50	5.50	-0.531738	0.099609	1.009277	-7.420000	217.839996	-36.400002	922.00	0.28	-0.02
3.34	9.00	10.75	2.00	4.00	0.00	0.00	0.00	0.00	0.00	0.00	0.00	0.00	0.00	0.25	0.00	0.00	-0.274414	0.373535	1.082031	-22.330000	160.440002	-32.270000	285.00	-0.37	-0.05	0.50	0.25	0.00	0.00	0.00	0.00	0.00	0.25	10.25	13.00	11.75	8.75	6.75	20.25	6.50	5.50	-0.593750	0.090332	1.076660	-6.160000	227.009995	-36.259998	901.00	0.28	-0.01
3.35	11.25	12.25	2.75	5.25	0.00	0.00	0.00	0.25	0.00	0.00	0.00	0.00	0.00	0.00	0.00	0.25	-0.262207	0.393555	1.563477	-21.280001	195.860001	-28.070000	353.00	-0.37	-0.06	0.00	0.25	0.25	0.00	0.00	0.00	0.00	0.25	10.00	12.75	11.50	8.50	6.25	20.00	6.50	5.25	-0.603516	0.094727	0.990723	-7.770000	241.850006	-37.310001	878.00	0.28	-0.01
3.36	13.00	13.50	4.00	5.75	0.00	0.00	0.25	0.50	0.00	0.00	0.00	0.00	0.25	0.00	0.00	0.25	-0.331543	0.318848	2.145020	-23.520000	209.720001	-21.070000	417.00	-0.35	-0.05	0.00	0.25	0.00	0.00	0.00	0.00	0.00	0.25	9.75	12.50	11.25	8.25	5.50	19.50	6.50	5.00	-0.649414	0.118652	0.994629	-10.920000	257.739990	-39.270000	849.00	0.29	-0.01
3.37	13.75	13.75	4.75	7.25	0.00	0.25	0.25	0.50	0.00	0.25	0.00	0.25	0.25	0.00	0.00	0.00	-0.342773	0.171875	1.759766	-23.379999	193.270004	-13.720000	462.00	-0.34	-0.05	0.00	0.25	0.00	0.00	0.00	0.00	0.00	0.25	9.25	12.25	11.25	8.00	5.00	19.00	6.25	4.50	-0.700195	0.149414	1.011230	-12.320000	273.350006	-41.720001	821.00	0.29	-0.00
3.38	14.25	14.25	6.00	8.00	0.00	0.50	0.25	0.50	0.00	0.25	0.00	0.25	0.50	0.00	0.00	0.25	-0.336426	0.107422	1.462402	-13.370000	177.869995	-10.640000	504.00	-0.34	-0.06	0.00	0.25	0.00	0.00	0.00	0.00	0.25	0.25	8.50	12.00	10.75	7.75	4.25	18.25	6.00	3.75	-0.768066	0.179199	1.065918	-11.550000	287.489990	-44.730000	782.00	0.28	-0.00
3.39	15.50	14.25	7.00	8.50	0.00	0.50	0.25	0.50	0.00	0.00	0.00	0.00	0.50	0.00	0.00	0.00	-0.304688	0.029785	1.417969	-8.890000	162.470001	-12.670000	529.00	-0.34	-0.05	0.00	0.00	0.00	0.00	0.00	0.00	0.25	0.00	7.75	11.50	10.25	7.00	3.75	17.50	5.50	2.75	-0.967773	0.124023	1.236328	-9.520000	298.970001	-48.720001	721.00	0.29	0.01
3.40	14.50	14.50	7.25	8.75	0.25	1.00	0.25	0.50	0.00	0.00	0.00	0.25	1.25	0.00	0.50	0.25	-0.217773	0.088867	1.083496	-5.320000	146.720001	-15.330000	553.00	-0.32	-0.06	0.00	0.00	0.00	0.00	0.00	0.00	0.25	0.00	6.75	10.75	10.00	6.50	3.50	16.25	5.25	2.25	-1.336426	0.385742	1.783691	-3.220000	304.709991	-46.900002	670.00	0.29	0.00
3.41	15.00	15.00	7.50	9.00	0.50	1.50	0.25	0.75	0.25	0.00	0.00	0.25	0.50	0.00	0.00	0.25	-0.223633	0.171387	1.028809	11.620000	139.089996	-19.250000	573.00	-0.33	-0.06	0.00	0.00	0.00	0.00	0.00	0.00	0.50	0.00	5.75	10.00	9.00	5.75	2.75	14.50	4.50	1.50	-1.133789	0.334473	1.400879	18.200001	308.279999	-45.290001	595.00	0.29	0.01
3.42	15.25	14.75	8.00	9.25	0.25	1.75	0.50	0.50	0.00	0.00	0.00	0.50	0.50	0.25	0.00	0.50	-0.500488	0.443848	2.653320	-46.900002	137.339996	-21.350000	586.00	-0.32	-0.06	0.00	0.00	0.00	0.00	0.00	0.00	0.50	0.00	5.00	8.75	8.25	5.00	2.00	13.00	3.25	0.75	-1.180176	0.130371	1.461914	31.850000	318.500000	-49.980000	513.00	0.28	0.02
3.43	15.25	14.75	8.25	9.50	0.75	2.75	0.50	1.25	0.50	0.00	0.00	0.75	0.75	1.00	0.00	0.50	-0.544922	0.586914	1.637695	-46.270000	110.180000	-9.310000	642.00	-0.29	-0.06	0.00	0.00	0.00	0.00	0.00	0.00	0.25	0.00	3.75	8.25	7.50	4.25	2.00	11.00	2.75	0.25	-1.308594	0.166016	1.997559	39.759998	319.899994	-47.459999	440.00	0.28	0.01
3.44	16.75	14.75	8.50	9.75	0.75	3.50	0.50	1.75	0.25	0.00	0.25	0.50	2.00	0.75	0.25	0.50	-0.396484	0.179688	1.462402	-59.849998	102.970001	-0.630000	691.00	-0.28	-0.07	0.00	0.00	0.00	0.00	0.00	0.00	0.25	0.00	2.50	7.50	6.75	3.50	2.00	9.25	1.75	0.00	-1.058105	0.281738	1.555664	62.020000	316.540009	-46.900002	368.00	0.28	0.00
3.45	18.00	14.75	9.25	11.00	1.25	4.00	0.50	2.25	0.50	0.50	0.25	1.00	2.25	1.00	0.25	0.25	-0.271484	0.046387	1.165039	-63.000000	82.040001	-2.590000	767.00	-0.27	-0.07	0.00	0.00	0.00	0.00	0.00	0.00	0.25	0.00	1.75	7.00	5.50	3.25	0.75	7.50	1.00	0.00	-1.058105	0.281738	1.555664	62.020000	316.540009	-46.900002	297.00	0.28	0.01
3.46	20.25	17.00	10.25	11.25	1.50	4.50	0.75	3.00	0.50	0.75	0.75	1.25	2.25	1.25	0.25	0.75	-0.233398	0.115234	1.040527	-68.389999	68.879997	-8.330000	873.00	-0.26	-0.07	0.00	0.00	0.00	0.00	0.00	0.00	0.25	0.00	1.25	5.75	4.25	2.50	0.75	5.50	0.75	0.00	-0.713379	0.113281	1.952148	76.860001	300.160004	-57.680000	232.00	0.27	0.00
3.47	20.50	17.25	10.75	11.50	1.75	5.00	0.75	3.25	0.75	0.75	0.75	1.00	2.75	1.75	0.25	0.50	-0.227051	0.178711	1.050781	-81.410004	57.820000	-9.240000	909.00	-0.25	-0.07	0.00	0.00	0.00	0.00	0.00	0.00	0.00	0.00	0.75	5.00	3.25	3.00	1.25	2.75	1.25	0.25	-0.736328	0.235352	1.661133	79.730003	281.190002	-56.070000	193.00	0.26	-0.05
3.48	20.75	17.25	10.75	11.50	2.00	5.00	0.75	3.00	1.00	1.25	1.00	1.00	2.75	2.25	0.50	0.50	-0.246582	0.121582	1.043945	-78.680000	41.650002	-7.560000	930.00	-0.24	-0.07	0.00	1.00	1.25	1.25	0.50	1.00	0.25	0.75	2.00	5.25	3.25	2.50	0.00	2.50	2.25	1.00	-0.260254	0.427734	1.333008	65.800003	241.779999	-59.849998	284.00	0.15	-0.04
3.49	20.75	17.25	11.00	11.75	2.25	5.25	1.00	3.50	0.75	1.25	1.25	1.25	2.75	2.50	0.50	0.50	-0.243652	0.103027	1.067383	-66.290001	28.139999	-6.930000	959.00	-0.24	-0.07	0.75	0.75	0.25	0.25	0.00	0.00	0.25	0.25	1.25	4.00	3.00	2.00	0.00	1.50	0.75	0.25	0.937500	0.127441	1.611816	35.209999	171.850006	-71.190002	175.00	0.17	-0.02
3.50	21.00	17.25	11.25	11.75	2.25	5.25	1.00	3.50	1.00	1.50	1.25	1.00	2.75	2.75	0.75	0.50	-0.246094	0.109375	1.018555	-48.090000	16.520000	-6.090000	974.00	-0.23	-0.07	1.50	1.00	1.25	1.00	0.00	0.50	0.50	0.00	1.00	3.25	2.50	2.25	1.00	1.75	1.75	1.00	0.331055	0.521973	2.537109	31.219999	110.949997	-91.209999	226.00	0.11	-0.05
3.51	21.50	17.00	11.25	11.75	2.50	5.25	1.00	3.50	1.25	2.00	1.25	1.25	2.75	3.25	0.50	0.25	-0.225586	0.111816	0.994141	-35.770000	12.950000	-4.690000	992.00	-0.22	-0.06	0.75	0.25	0.00	0.50	0.00	0.75	0.50	0.25	1.50	3.75	3.00	2.50	1.25	1.75	1.50	1.25	0.376953	0.445801	3.569336	-10.710000	-12.390000	-85.959999	218.00	0.19	-0.06
3.52	21.00	17.00	11.25	11.75	2.50	5.00	1.25	3.50	1.75	2.00	1.50	1.25	2.50	3.00	0.25	0.25	-0.228516	0.096680	0.977539	-27.440001	12.600000	-3.150000	990.00	-0.22	-0.06	0.00	0.00	0.00	0.00	0.00	0.00	0.25	0.00	0.00	2.00	1.75	1.00	0.00	0.00	0.00	0.00	0.812012	0.053711	1.395508	-45.920002	-98.769997	-65.309998	58.00	0.22	-0.06
3.53	20.50	16.50	11.25	11.75	2.50	5.25	1.25	3.75	1.75	2.50	1.50	1.25	3.00	3.50	0.50	0.25	-0.226562	0.101074	0.974121	-21.559999	12.390000	-2.240000	1005.00	-0.21	-0.06	0.00	0.00	0.00	0.00	0.00	0.00	0.25	0.00	0.00	1.75	1.50	0.75	0.25	1.50	1.25	1.25	0.378418	0.547363	0.704102	-79.800003	-121.169998	-41.020000	88.00	0.29	-0.05
3.54	20.25	16.75	11.25	11.50	2.50	5.25	1.50	3.50	1.75	2.50	1.75	1.25	3.00	4.00	0.75	0.25	-0.213379	0.104492	0.952637	-14.980000	11.690000	-1.540000	1012.00	-0.20	-0.06	1.50	1.00	1.25	1.25	0.50	1.25	0.50	1.00	1.75	3.25	2.75	2.25	1.50	1.50	1.50	1.25	0.354492	0.757812	0.691406	-83.090004	-113.260002	-11.200000	275.00	0.09	-0.07
3.55	20.00	16.25	11.00	11.50	2.75	5.25	1.75	3.50	2.00	2.50	1.50	1.25	3.25	4.00	0.50	0.25	-0.213379	0.104492	0.952637	-14.980000	11.690000	-1.540000	1008.00	-0.20	-0.06	1.75	1.25	1.50	1.25	0.50	1.00	0.50	0.75	1.50	3.00	2.75	2.00	1.75	1.50	1.25	1.25	0.498047	0.742188	0.627441	-61.110001	-110.949997	17.430000	267.00	0.07	-0.07
3.56	19.50	16.00	11.00	11.50	2.50	5.00	1.75	3.75	2.25	2.75	1.50	1.25	2.75	4.00	0.50	0.50	-0.222168	0.102539	0.957031	-13.370000	11.480000	-2.030000	1001.00	-0.20	-0.06	1.75	1.25	1.75	1.50	0.50	1.00	0.50	0.75	1.75	3.00	2.75	2.00	1.75	1.75	1.50	1.25	0.452637	0.604492	0.909668	-35.630001	-121.730003	39.759998	281.00	0.07	-0.06
3.57	19.75	15.75	10.50	11.25	2.75	5.00	1.75	3.50	2.50	2.75	2.00	1.25	3.25	4.50	0.50	0.50	-0.228027	0.102539	0.953613	-11.550000	9.940000	-2.800000	1010.00	-0.19	-0.05	2.00	1.25	1.25	1.25	0.50	1.25	0.50	0.75	1.50	2.75	2.25	2.00	1.50	1.50	1.50	1.25	0.432617	0.414551	1.083008	-17.219999	-144.759995	56.349998	261.00	0.06	-0.07
3.58	19.25	15.50	11.00	11.25	2.75	4.75	2.25	3.50	2.75	2.75	2.00	1.00	3.50	4.50	0.50	0.50	-0.229492	0.098145	0.953125	-10.920000	8.890000	-2.940000	1016.00	-0.18	-0.05	2.00	1.50	1.50	1.25	0.50	1.25	0.50	0.75	1.50	3.00	2.25	1.75	1.25	1.75	1.25	1.25	0.318848	0.114258	1.135254	-6.300000	-204.119995	64.190002	264.00	0.05	-0.06
3.59	18.75	15.25	10.75	11.00	2.75	5.00	2.25	3.50	3.00	2.75	2.00	1.25	2.75	4.75	0.50	0.50	-0.225586	0.101562	0.948730	-9.800000	8.190000	-2.590000	1007.00	-0.18	-0.05	1.75	1.50	1.50	1.50	0.50	1.00	0.50	0.75	1.50	2.75	2.25	2.00	1.75	1.75	1.50	1.00	0.205566	0.048340	1.042480	-0.280000	-230.369995	53.200001	267.00	0.06	-0.07
3.60	19.50	15.00	10.75	11.00	3.00	5.00	2.50	3.00	3.25	3.25	2.25	1.50	2.75	4.75	0.50	0.50	-0.225586	0.089355	0.954590	-8.610000	7.700000	-1.890000	1027.00	-0.17	-0.04	1.75	1.25	1.50	1.50	0.75	1.25	0.50	0.75	1.50	2.50	2.50	1.75	1.50	1.50	1.50	1.00	0.102539	-0.010742	0.988770	11.760000	-250.460007	35.980000	263.00	0.05	-0.07
3.61	18.75	14.75	10.50	10.75	3.00	5.00	2.50	3.50	3.25	3.00	2.50	2.00	2.00	4.25	0.25	0.50	-0.223633	0.089355	0.953125	-7.280000	7.280000	-1.400000	1009.00	-0.17	-0.04	2.00	1.25	1.50	1.50	0.75	1.25	0.50	0.75	1.25	2.25	2.00	1.50	1.25	1.50	1.25	1.25	0.017090	-0.083984	0.961426	24.570000	-265.510010	15.400000	247.00	0.03	-0.07
3.62	18.50	14.50	10.50	10.75	3.00	4.75	2.50	3.25	4.00	3.25	2.25	1.50	3.00	4.75	0.75	0.50	-0.229004	0.090820	0.947266	-5.320000	6.230000	-0.490000	1021.00	-0.16	-0.04	1.75	1.25	1.50	1.25	0.50	1.00	0.50	0.75	1.50	2.50	2.25	1.50	1.50	1.25	1.25	1.25	-0.100586	-0.133301	0.999512	33.880001	-278.809998	-6.300000	245.00	0.05	-0.06
3.63	18.00	14.50	10.50	10.75	3.00	4.75	2.75	3.50	3.75	3.50	2.50	1.75	3.00	4.50	0.50	0.25	-0.222656	0.083008	0.951660	-3.920000	5.950000	0.000000	1022.00	-0.16	-0.04	1.75	1.25	1.50	1.25	0.75	1.25	0.50	0.75	1.25	2.25	2.00	1.75	1.50	1.50	1.50	1.50	-0.204102	-0.138184	1.049805	36.330002	-292.320007	-25.200001	251.00	0.05	-0.07
3.64	17.75	14.00	10.25	10.50	3.00	5.00	2.75	3.75	3.50	3.50	2.50	2.00	2.25	4.75	0.50	0.50	-0.224121	0.091309	0.946777	-3.010000	5.740000	0.420000	1012.00	-0.16	-0.04	2.25	1.25	1.50	1.25	0.50	1.00	0.50	0.75	1.00	2.25	2.00	1.50	1.25	1.25	1.25	1.00	-0.305664	-0.101074	1.082520	29.610001	-304.429993	-38.220001	234.00	0.03	-0.07
3.65	17.50	13.75	10.25	10.50	3.50	5.00	2.75	3.75	4.00	3.50	2.75	1.75	3.75	4.50	0.50	0.50	-0.221191	0.084961	0.954102	-2.380000	5.600000	0.420000	1031.00	-0.15	-0.05	1.50	1.50	1.00	1.25	0.75	1.00	0.50	0.75	1.50	2.00	2.00	1.50	1.00	1.75	1.25	1.00	-0.386230	-0.026367	1.099121	15.610000	-313.809998	-44.310001	231.00	0.06	-0.06
3.66	17.25	13.50	10.25	10.25	3.25	5.00	3.00	3.75	4.00	4.00	2.75	2.00	3.75	4.25	0.50	0.50	-0.220703	0.097168	0.944336	-2.660000	5.670000	0.280000	1030.00	-0.15	-0.05	2.25	1.25	1.50	1.25	0.75	1.25	0.50	1.00	1.25	2.00	2.00	1.50	1.50	1.50	1.50	1.00	-0.458984	0.069824	1.130859	2.170000	-320.040009	-43.750000	252.00	0.03	-0.07
3.67	16.75	13.50	10.00	10.25	3.25	5.00	3.00	3.75	4.25	4.00	2.75	1.75	3.75	4.25	0.50	0.25	-0.229004	0.099121	0.949707	-2.800000	5.390000	0.070000	1021.00	-0.15	-0.04	1.75	1.25	1.50	1.25	0.50	1.00	0.50	0.50	1.50	2.00	2.00	1.50	1.50	1.50	1.25	1.00	-0.489746	0.185547	1.178711	-3.920000	-324.239990	-39.759998	233.00	0.05	-0.06
