# time	left pressure 1[N/cm²]	left pressure 2[N/cm²]	left pressure 3[N/cm²]	left pressure 4[N/cm²]	left pressure 5[N/cm²]	left pressure 6[N/cm²]	left pressure 7[N/cm²]	left pressure 8[N/cm²]	left pressure 9[N/cm²]	left pressure 10[N/cm²]	left pressure 11[N/cm²]	left pressure 12[N/cm²]	left pressure 13[N/cm²]	left pressure 14[N/cm²]	left pressure 15[N/cm²]	left pressure 16[N/cm²]	left acceleration X[g]	left acceleration Y[g]	left acceleration Z[g]	left angular X[dps]	left angular Y[dps]	left angular Z[dps]	left total force[N]	left center of pressure X[%]	left center of pressure Y[%]	right pressure 1[N/cm²]	right pressure 2[N/cm²]	right pressure 3[N/cm²]	right pressure 4[N/cm²]	right pressure 5[N/cm²]	right pressure 6[N/cm²]	right pressure 7[N/cm²]	right pressure 8[N/cm²]	right pressure 9[N/cm²]	right pressure 10[N/cm²]	right pressure 11[N/cm²]	right pressure 12[N/cm²]	right pressure 13[N/cm²]	right pressure 14[N/cm²]	right pressure 15[N/cm²]	right pressure 16[N/cm²]	right acceleration X[g]	right acceleration Y[g]	right acceleration Z[g]	right angular X[dps]	right angular Y[dps]	right angular Z[dps]	right total force[N]	right center of pressure X[%]	right center of pressure Y[%]
0.00																										7.00	4.00	6.00	5.50	3.00	5.25	2.00	2.75	3.75	3.00	4.00	3.50	3.50	3.00	1.50	1.25	-0.277344	0.095703	0.901367	-3.360000	-7.140000	1.890000	760.00	-0.05	-0.07
0.01																										7.25	3.75	5.75	5.50	3.00	5.25	2.00	2.75	3.75	3.00	4.00	3.75	3.25	3.00	1.75	1.50	-0.286133	0.100098	0.909180	-3.360000	-7.000000	1.820000	763.00	-0.04	-0.07
0.02	1.75	2.00	2.00	2.75	0.50	2.00	0.50	1.75	1.00	2.00	1.25	0.75	1.25	1.50	1.75	1.00	-0.313477	0.039551	0.916992	-2.590000	1.330000	0.280000	302.00	-0.02	-0.10	7.50	3.75	6.00	5.25	3.25	5.25	2.00	2.75	3.75	3.00	3.75	3.50	3.25	3.00	1.75	1.25	-0.283203	0.093262	0.910156	-3.430000	-7.000000	1.750000	761.00	-0.05	-0.06
0.03	1.25	1.75	2.00	2.75	0.50	2.00	0.50	1.50	1.00	1.75	1.25	0.75	1.50	1.25	1.50	1.25	-0.311523	0.038086	0.922852	-2.590000	1.330000	0.280000	284.00	-0.01	-0.11	7.25	4.00	6.00	5.50	3.25	5.25	2.25	3.00	3.75	2.75	4.00	3.50	3.25	2.75	2.00	1.25	-0.277832	0.091309	0.906250	-3.430000	-6.860000	1.750000	774.00	-0.05	-0.06
0.04	1.75	2.25	2.00	2.75	0.50	2.00	0.50	1.50	1.00	1.75	1.00	0.75	1.00	1.75	2.00	1.00	-0.312988	0.037109	0.929688	-2.590000	1.400000	0.350000	297.00	-0.02	-0.09	7.25	4.00	6.25	5.50	3.25	5.25	2.25	3.00	3.75	3.00	4.00	3.25	3.50	3.00	1.75	1.25	-0.281738	0.092285	0.908203	-3.360000	-6.860000	1.820000	779.00	-0.05	-0.06
0.05	1.75	2.25	1.50	2.25	0.50	1.75	0.50	1.50	0.75	1.75	1.25	0.75	1.50	1.50	1.75	1.00	-0.309082	0.037109	0.927734	-2.870000	1.610000	0.280000	279.00	-0.01	-0.10	7.50	4.00	6.50	5.75	3.25	5.50	2.25	3.00	3.75	3.00	4.25	3.50	3.50	2.75	1.75	1.50	-0.286621	0.094238	0.908203	-3.080000	-6.580000	1.820000	797.00	-0.05	-0.07
0.06	1.75	2.25	2.00	2.25	0.50	2.50	0.50	1.50	1.00	1.50	1.25	0.75	0.75	1.75	1.50	1.00	-0.310059	0.038574	0.921387	-2.800000	1.330000	0.280000	288.00	-0.03	-0.09	7.50	4.00	6.25	5.50	3.25	5.25	2.25	3.00	3.75	3.00	4.25	3.75	3.25	2.50	1.75	1.25	-0.285156	0.086426	0.903320	-3.080000	-6.650000	1.890000	784.00	-0.05	-0.06
0.07	1.75	1.75	2.00	2.50	0.50	2.25	0.50	1.75	1.00	1.75	1.25	0.75	1.75	1.50	1.75	1.00	-0.313965	0.042480	0.925781	-2.800000	1.260000	0.280000	301.00	-0.01	-0.11	7.50	4.00	6.50	5.50	3.25	5.25	2.25	3.00	3.50	3.00	4.00	3.50	3.25	2.50	1.75	1.25	-0.282715	0.092285	0.914551	-3.080000	-6.650000	2.030000	777.00	-0.05	-0.06
0.08	1.75	2.00	1.75	2.75	0.50	1.50	0.50	1.75	1.00	1.75	1.25	0.50	1.00	1.75	1.75	1.25	-0.305664	0.037598	0.924805	-3.150000	1.330000	0.280000	287.00	-0.01	-0.09																									
0.09	1.50	2.25	1.50	2.50	0.50	2.00	0.50	1.25	1.00	1.75	1.25	0.75	1.00	1.50	1.50	1.00	-0.316406	0.036621	0.929199	-3.220000	1.330000	0.210000	274.00	-0.02	-0.09	7.50	4.00	6.25	5.75	3.00	5.25	2.25	2.75	3.75	3.00	4.00	3.50	3.25	2.50	1.75	1.25	-0.280273	0.088867	0.917480	-3.080000	-6.860000	1.960000	773.00	-0.05	-0.06
0.10	1.75	2.25	2.00	2.25	0.50	2.00	0.75	1.75	1.00	1.75	1.50	0.75	0.75	1.25	1.25	1.00	-0.310547	0.038574	0.918945	-3.150000	1.190000	0.280000	289.00	-0.03	-0.09	7.75	4.00	6.75	5.50	3.25	5.50	2.25	3.00	3.50	3.25	4.00	3.50	3.25	2.75	2.00	1.50	-0.280273	0.091797	0.913574	-3.010000	-6.860000	1.960000	797.00	-0.05	-0.06
0.11	1.75	2.00	1.75	2.50	0.50	1.75	0.50	1.50	1.00	1.75	1.00	0.50	1.00	1.75	1.75	1.00	-0.309082	0.033203	0.928223	-3.080000	1.120000	0.140000	278.00	-0.01	-0.09	7.50	4.00	6.50	6.00	3.25	5.50	2.25	3.00	3.75	2.75	4.50	3.75	3.25	2.75	1.25	1.25	-0.282227	0.092773	0.910645	-3.080000	-6.720000	1.890000	793.00	-0.05	-0.07
0.12	1.50	2.00	2.00	2.50	0.50	1.75	0.50	2.00	1.00	1.75	1.25	0.75	1.00	1.25	2.00	1.25	-0.310547	0.040039	0.927246	-3.430000	1.120000	0.210000	293.00	-0.01	-0.10	8.00	4.00	6.75	5.75	3.25	5.50	2.25	3.00	3.50	3.00	4.50	3.25	3.25	3.00	1.50	1.50	-0.284668	0.090820	0.913086	-2.940000	-6.720000	1.890000	800.00	-0.06	-0.06
0.13	1.75	2.25	1.75	2.50	0.50	1.75	0.50	1.50	1.00	1.75	1.25	0.50	0.50	1.50	1.50	1.25	-0.310547	0.040039	0.927246	-3.430000	1.120000	0.210000	275.00	-0.02	-0.08	8.00	3.75	6.75	6.00	3.25	5.75	2.25	3.00	3.25	2.75	4.25	3.50	3.25	3.00	1.75	1.50	-0.272949	0.092285	0.914062	-2.800000	-6.650000	1.890000	800.00	-0.06	-0.07
0.14	1.75	2.00	2.00	2.50	0.50	2.00	0.50	1.50	0.75	1.75	1.00	0.50	0.75	1.75	1.50	1.00	-0.310059	0.036133	0.924316	-3.430000	1.050000	0.140000	275.00	-0.03	-0.09	8.00	4.50	6.75	6.00	3.25	5.50	2.25	3.00	4.00	3.00	4.50	3.50	3.25	2.75	1.75	1.25	-0.283691	0.095703	0.913574	-2.800000	-6.580000	1.890000	818.00	-0.05	-0.06
0.15	2.00	2.25	2.00	2.25	0.50	2.00	0.50	1.50	1.00	1.75	1.25	0.75	1.00	1.75	1.50	1.25	-0.313965	0.037109	0.929199	-3.500000	0.980000	0.210000	292.00	-0.02	-0.09	8.00	4.25	6.50	5.75	3.25	5.50	2.25	3.00	3.75	3.00	4.50	3.75	3.50	2.75	1.75	1.50	-0.289062	0.092773	0.909180	-2.660000	-6.580000	1.960000	812.00	-0.05	-0.07
0.16	1.50	2.00	1.50	2.25	0.50	1.75	0.50	1.75	0.75	1.50	1.25	1.00	0.75	1.50	1.50	1.25	-0.308105	0.037598	0.928711	-3.570000	1.050000	0.210000	269.00	-0.01	-0.11	7.75	4.50	7.00	5.75	3.25	5.50	2.25	3.25	3.50	3.00	4.75	3.50	3.00	3.00	1.75	1.25	-0.277344	0.094727	0.914551	-2.450000	-6.510000	2.030000	815.00	-0.05	-0.06
0.17	1.75	1.75	2.00	2.25	0.50	2.00	0.50	1.75	0.75	1.75	1.00	0.75	0.50	1.50	1.75	1.00	-0.310059	0.038086	0.928711	-3.570000	1.050000	0.140000	275.00	-0.02	-0.09	8.25	4.25	6.75	5.75	3.50	5.50	2.50	3.00	4.00	3.00	4.50	3.50	3.50	2.75	1.75	1.50	-0.284668	0.088867	0.917969	-2.450000	-6.510000	1.960000	827.00	-0.05	-0.06
0.18	1.50	2.25	1.75	2.25	0.50	1.50	0.50	1.50	1.00	1.75	1.25	0.75	1.50	1.25	1.50	1.25	-0.310547	0.037598	0.929199	-3.640000	1.050000	0.210000	276.00	-0.01	-0.10	8.25	4.50	7.00	6.00	3.25	5.50	2.25	3.00	4.25	3.00	4.50	3.50	3.50	3.25	1.75	1.50	-0.287598	0.092285	0.919434	-2.450000	-6.580000	1.960000	838.00	-0.05	-0.06
0.19	2.00	1.75	2.25	2.75	0.50	2.00	0.50	2.00	1.00	1.75	1.25	0.50	1.00	1.50	1.75	0.75	-0.306641	0.034180	0.926758	-3.710000	1.190000	0.210000	300.00	-0.03	-0.09	8.00	4.50	6.75	6.00	3.25	5.50	2.50	3.25	3.75	3.00	4.75	3.75	3.25	3.25	1.75	1.50	-0.288086	0.091797	0.916992	-2.660000	-6.650000	1.890000	837.00	-0.05	-0.06
0.20	2.00	2.25	1.50	2.50	0.50	2.00	0.50	1.50	1.00	1.75	1.25	0.50	0.75	1.50	1.50	0.75	-0.310547	0.030762	0.930176	-3.710000	1.260000	0.140000	277.00	-0.03	-0.09	8.25	4.25	7.00	6.25	3.25	5.75	2.50	3.25	4.00	3.25	4.75	3.50	3.25	3.00	2.00	1.00	-0.276367	0.094238	0.911621	-2.660000	-6.790000	1.890000	848.00	-0.05	-0.06
0.21	1.75	2.00	1.75	2.75	0.50	1.50	0.50	1.25	1.00	1.75	1.25	0.50	0.75	1.75	2.00	1.00	-0.308105	0.034668	0.924316	-3.640000	1.260000	0.070000	277.00	-0.01	-0.08	8.00	5.00	7.00	6.25	3.25	5.75	2.50	3.50	4.25	3.00	4.75	3.50	3.50	2.75	2.00	1.25	-0.283203	0.093262	0.915527	-2.590000	-6.860000	1.820000	860.00	-0.05	-0.07
0.22	2.00	2.25	2.00	2.75	0.50	1.75	0.75	1.50	1.00	2.00	1.25	0.75	0.50	1.50	2.00	1.25	-0.311035	0.036621	0.928711	-3.500000	1.190000	-0.140000	302.00	-0.02	-0.08	8.00	4.75	7.00	6.00	3.25	5.50	2.50	3.25	4.00	3.00	4.75	3.50	3.25	2.75	1.75	1.50	-0.282715	0.084473	0.915527	-2.660000	-6.860000	1.820000	838.00	-0.05	-0.06
0.23	1.50	2.25	1.25	2.25	0.50	2.00	0.50	1.75	1.00	1.75	1.25	0.50	1.25	1.50	1.50	0.75	-0.309570	0.033691	0.924316	-3.430000	1.260000	-0.210000	274.00	-0.01	-0.10	8.00	4.75	7.00	6.25	3.25	5.75	2.50	3.25	4.00	3.00	5.25	3.75	3.25	3.25	2.00	1.25	-0.287109	0.085938	0.916992	-2.730000	-6.720000	1.820000	861.00	-0.05	-0.06
0.24	1.50	1.75	1.75	2.50	0.50	2.25	0.50	1.50	1.00	1.50	1.00	0.75	1.25	1.25	1.50	1.25	-0.307617	0.035156	0.927246	-3.290000	1.400000	-0.490000	275.00	-0.02	-0.11	8.00	4.75	7.00	6.00	3.50	5.75	2.50	3.25	3.75	3.00	5.00	3.50	3.25	3.00	1.75	1.25	-0.285645	0.091309	0.912109	-2.660000	-6.650000	1.960000	845.00	-0.05	-0.06
0.25	1.50	2.00	1.75	2.25	0.50	1.50	0.50	1.25	1.00	1.75	1.00	0.50	1.00	1.75	2.00	1.00	-0.312988	0.033203	0.924316	-3.010000	1.470000	-0.700000	267.00	0.00	-0.08	8.25	4.50	7.00	6.25	3.50	6.00	2.50	3.25	4.00	3.25	5.00	3.50	3.25	3.00	1.75	1.50	-0.287109	0.096191	0.914551	-2.590000	-6.650000	1.960000	860.00	-0.05	-0.06
0.26	1.75	2.00	1.75	2.50	0.50	2.00	0.50	1.50	0.75	1.50	1.25	0.50	0.75	1.50	1.50	1.00	-0.308594	0.033203	0.928223	-2.940000	1.540000	-0.770000	269.00	-0.03	-0.09	8.25	4.75	7.25	6.25	3.25	6.00	2.50	3.25	4.25	3.00	5.00	3.75	3.50	3.00	2.00	1.50	-0.283203	0.096191	0.914062	-2.590000	-6.720000	1.890000	873.00	-0.05	-0.06
0.27	1.50	2.25	1.75	2.25	0.50	1.50	0.50	1.50	1.25	1.75	1.00	0.50	1.50	1.50	2.00	1.00	-0.306641	0.033691	0.918945	-2.520000	1.680000	-0.910000	281.00	-0.00	-0.09	8.25	4.75	7.00	6.25	3.50	5.75	2.50	3.25	4.00	3.00	5.00	3.50	3.50	2.75	2.00	1.50	-0.282227	0.092773	0.913086	-2.660000	-6.650000	1.890000	860.00	-0.05	-0.06
0.28	2.00	2.25	1.75	2.75	0.50	1.75	0.50	1.25	1.00	1.75	1.00	0.50	1.25	1.50	1.75	1.00	-0.305664	0.039551	0.927246	-2.520000	1.610000	-1.260000	283.00	-0.03	-0.09	8.25	5.00	6.75	6.25	3.50	5.75	2.50	3.25	3.75	3.00	4.75	3.75	3.50	3.00	1.75	1.50	-0.283203	0.090820	0.911621	-2.520000	-6.650000	1.890000	855.00	-0.06	-0.07
0.29	1.75	1.75	1.75	2.50	0.50	1.75	0.50	1.50	0.75	1.75	1.00	0.50	1.00	1.50	1.50	1.00	-0.312012	0.035645	0.931152	-2.660000	1.540000	-1.680000	266.00	-0.02	-0.09	8.25	4.75	7.25	6.25	3.25	5.75	2.50	3.50	4.00	3.25	5.25	3.50	3.50	3.50	1.50	1.50	-0.280762	0.091797	0.919434	-2.590000	-6.650000	1.890000	872.00	-0.05	-0.06
0.30	1.75	1.75	2.00	2.50	0.50	1.75	0.50	1.25	1.25	1.50	1.00	0.75	1.00	1.75	1.75	1.00	-0.314453	0.034668	0.931641	-2.380000	1.750000	-2.030000	278.00	-0.01	-0.08	8.25	4.75	7.00	6.25	3.50	5.75	2.50	3.50	3.75	3.25	5.00	3.75	3.50	3.00	1.75	1.50	-0.283203	0.094238	0.913574	-2.590000	-6.510000	1.890000	866.00	-0.05	-0.07
0.31	1.75	2.00	1.75	2.25	0.50	2.00	0.50	1.25	0.75	1.75	1.50	0.75	1.50	1.50	1.75	1.00	-0.312012	0.033203	0.931641	-2.240000	1.610000	-2.170000	282.00	-0.01	-0.10	8.00	4.50	7.00	6.25	3.50	6.00	2.50	3.75	3.75	3.25	5.00	3.75	3.50	3.00	1.75	1.50	-0.285156	0.093750	0.913086	-2.380000	-6.370000	1.820000	868.00	-0.05	-0.07
0.32	1.75	1.75	1.50	2.25	0.50	1.75	0.50	1.00	1.25	1.75	1.00	0.50	0.75	1.50	1.50	1.00	-0.309570	0.030762	0.928711	-2.310000	1.470000	-2.170000	255.00	-0.01	-0.07	8.00	4.50	7.00	6.25	3.25	5.75	2.50	3.50	4.00	3.25	5.00	3.75	3.25	2.75	2.00	1.50	-0.278809	0.091797	0.916016	-2.590000	-6.370000	1.960000	859.00	-0.05	-0.07
0.33	1.75	2.00	1.75	2.25	0.50	2.00	0.50	1.50	0.75	1.75	1.00	0.50	1.50	1.25	1.75	1.00	-0.314941	0.028320	0.931641	-2.170000	1.400000	-2.240000	274.00	-0.02	-0.10	8.00	4.50	7.25	6.25	3.25	6.00	2.50	3.50	4.25	3.25	5.00	3.50	3.50	3.00	2.00	1.50	-0.278809	0.091797	0.916016	-2.590000	-6.370000	1.960000	872.00	-0.05	-0.06
0.34	1.50	1.75	1.75	2.50	0.50	2.00	0.50	1.00	0.75	1.50	1.00	1.00	0.75	1.50	1.50	1.00	-0.312988	0.031738	0.926270	-2.030000	1.400000	-2.100000	258.00	-0.02	-0.09	8.00	5.00	6.75	6.00	3.50	5.75	2.75	3.75	4.00	3.00	5.00	3.75	3.50	2.75	1.75	1.50	-0.285156	0.095215	0.916016	-2.590000	-6.370000	1.890000	867.00	-0.05	-0.07
0.35	1.75	2.00	1.50	2.50	0.50	1.75	0.50	1.50	1.00	1.75	1.00	0.75	0.75	1.75	1.50	1.00	-0.312988	0.035156	0.929199	-2.030000	1.330000	-1.890000	272.00	-0.01	-0.09	8.25	4.75	7.00	6.00	3.25	6.00	2.50	3.50	4.00	3.25	5.00	4.00	3.50	3.00	2.00	1.25	-0.281738	0.095703	0.913086	-2.520000	-6.370000	1.820000	872.00	-0.05	-0.07
0.36	1.75	2.00	1.75	2.75	0.50	1.50	0.50	1.50	1.00	2.00	1.00	0.75	1.00	1.50	1.75	1.00	-0.312500	0.030273	0.930176	-2.100000	1.330000	-1.890000	282.00	-0.01	-0.09	8.50	4.50	7.00	6.25	3.25	6.00	2.50	3.75	3.75	3.25	5.25	3.50	3.25	3.25	1.75	1.50	-0.281250	0.089844	0.917480	-2.660000	-6.440000	1.820000	871.00	-0.05	-0.07
0.37	1.50	2.00	1.50	2.25	0.50	1.50	0.50	1.25	0.75	1.75	0.75	0.50	0.50	1.25	2.00	1.00	-0.312988	0.034180	0.929688	-2.030000	1.190000	-1.610000	246.00	-0.01	-0.08	8.25	5.25	7.00	6.00	3.50	6.00	2.75	3.50	3.75	3.25	5.00	3.75	3.25	2.75	1.75	1.50	-0.286621	0.092285	0.914551	-2.730000	-6.510000	1.820000	871.00	-0.06	-0.07
0.38	1.75	2.00	2.00	2.50	0.50	1.25	0.50	1.50	1.00	1.75	1.00	0.75	1.00	1.75	1.50	0.75	-0.311523	0.034668	0.922363	-2.100000	1.190000	-1.470000	273.00	-0.02	-0.08	8.25	5.00	7.00	6.25	3.25	6.00	2.75	3.75	4.00	3.00	5.00	3.75	3.75	2.75	2.00	1.50	-0.282227	0.093750	0.916992	-2.730000	-6.510000	1.890000	882.00	-0.05	-0.07
0.39	1.75	2.00	1.50	2.25	0.50	1.50	0.50	1.25	1.00	2.00	1.25	0.75	1.00	1.50	1.75	1.00	-0.309570	0.031738	0.932129	-2.100000	1.260000	-1.120000	271.00	-0.00	-0.08	8.00	5.00	7.00	6.25	3.50	6.00	2.50	4.00	4.25	3.25	5.25	4.00	3.50	3.00	1.50	1.50	-0.281738	0.093262	0.910645	-2.800000	-6.510000	1.960000	889.00	-0.05	-0.07
0.40	1.50	1.75	1.50	2.50	0.50	1.25	0.50	1.25	1.00	1.75	1.25	0.50	1.25	1.50	1.50	1.00	-0.308105	0.032227	0.927246	-2.170000	1.050000	-0.770000	258.00	-0.00	-0.09	8.00	5.00	7.00	6.25	3.25	6.00	2.75	4.00	4.00	3.25	5.25	3.75	3.75	3.00	2.25	1.50	-0.284180	0.092773	0.911621	-2.730000	-6.230000	1.890000	895.00	-0.05	-0.07
0.41	1.50	2.00	1.50	2.25	0.50	1.75	0.50	1.25	1.00	1.50	1.00	0.50	0.50	1.75	1.50	1.00	-0.307129	0.034180	0.923340	-2.170000	0.910000	-0.490000	253.00	-0.01	-0.08	8.00	5.00	7.00	6.25	3.25	6.25	2.75	3.75	4.25	3.25	5.25	3.75	3.50	3.50	2.25	1.50	-0.280762	0.091309	0.911133	-2.730000	-6.230000	1.750000	901.00	-0.04	-0.07
0.42	1.75	1.75	2.00	2.75	0.50	1.50	0.50	1.25	0.75	1.75	1.00	0.50	1.25	1.75	1.75	1.00	-0.312012	0.037598	0.923828	-2.240000	0.910000	-0.280000	273.00	-0.02	-0.09	8.50	5.00	7.00	6.25	3.50	6.25	3.00	4.00	4.50	3.25	5.00	3.75	3.50	3.00	1.75	1.50	-0.283203	0.091309	0.918457	-2.800000	-6.300000	1.890000	909.00	-0.05	-0.06
0.43	1.50	1.75	2.00	2.50	0.50	2.00	0.50	1.50	1.00	1.75	0.75	0.75	0.75	1.50	1.75	1.00	-0.307129	0.028809	0.932617	-2.240000	1.050000	0.000000	274.00	-0.02	-0.09	8.25	4.75	7.00	6.00	3.50	6.00	2.75	4.00	4.25	3.25	5.25	3.75	3.50	3.25	2.00	1.50	-0.279785	0.089355	0.918457	-2.800000	-6.230000	1.820000	897.00	-0.04	-0.07
0.44	1.50	2.00	1.75	2.25	0.50	1.75	0.50	1.75	1.00	1.75	1.00	0.75	1.25	1.50	2.00	1.00	-0.310059	0.031250	0.927734	-2.170000	0.980000	0.140000	283.00	-0.00	-0.10	8.25	4.75	7.00	6.25	3.50	6.00	2.75	3.75	4.25	3.00	5.25	3.75	3.75	3.50	1.75	1.50	-0.287598	0.090332	0.922852	-2.800000	-6.230000	1.750000	894.00	-0.05	-0.07
0.45	2.00	1.75	1.50	2.50	0.25	1.50	0.50	1.25	0.75	1.75	1.00	0.50	1.00	1.75	1.50	0.50	-0.311523	0.030762	0.924805	-2.240000	1.050000	0.140000	254.00	-0.02	-0.08	8.25	4.75	7.00	6.00	3.25	6.00	2.75	4.00	4.25	3.25	5.25	3.75	3.50	3.00	1.75	1.50	-0.283203	0.090820	0.917480	-2.660000	-6.160000	1.890000	888.00	-0.05	-0.07
0.46	1.25	2.00	1.75	2.50	0.50	1.50	0.50	1.50	1.25	1.75	1.00	0.25	1.00	2.00	1.50	1.00	-0.309570	0.033203	0.928223	-2.310000	1.050000	0.210000	269.00	-0.00	-0.08	8.25	5.00	6.75	6.25	3.25	6.00	2.75	4.00	3.75	3.25	5.25	3.50	3.50	3.00	1.75	1.50	-0.283203	0.092285	0.913574	-2.590000	-6.160000	1.890000	879.00	-0.05	-0.07
0.47	1.50	2.25	1.50	2.75	0.50	1.50	0.50	1.50	1.00	1.75	1.00	0.50	1.00	1.75	1.25	1.00	-0.309082	0.032715	0.929199	-2.380000	1.050000	0.280000	268.00	-0.02	-0.09	8.25	4.75	7.00	6.00	3.25	6.00	2.75	3.75	4.00	3.50	5.25	3.75	3.75	2.25	1.75	1.50	-0.281250	0.098633	0.919434	-2.660000	-6.370000	1.890000	877.00	-0.05	-0.07
0.48	1.50	2.00	1.75	2.25	0.50	1.25	0.50	1.50	0.75	1.75	0.75	0.50	0.75	1.50	1.50	1.00	-0.311523	0.028320	0.927734	-2.310000	0.980000	0.350000	250.00	-0.02	-0.09	8.00	5.00	7.00	6.25	3.25	6.00	3.00	3.75	4.25	3.50	5.25	3.75	3.75	3.00	2.00	1.75	-0.284668	0.087402	0.918457	-2.590000	-6.230000	1.890000	901.00	-0.04	-0.07
0.49	1.50	1.75	1.50	2.25	0.50	1.75	0.50	1.50	1.00	1.75	1.00	0.50	1.25	1.50	1.50	1.00	-0.308594	0.034668	0.928711	-2.240000	0.980000	0.350000	263.00	-0.01	-0.09	8.25	4.50	7.00	6.25	3.50	6.00	2.75	3.75	4.25	3.25	5.25	3.75	3.50	3.25	2.00	1.50	-0.282715	0.094727	0.918457	-2.730000	-6.440000	1.890000	892.00	-0.04	-0.06
0.50	2.00	1.75	1.75	2.25	0.50	1.75	0.50	1.25	1.00	1.75	1.00	0.50	1.00	1.75	1.50	1.00	-0.311035	0.030273	0.928223	-2.240000	0.980000	0.280000	267.00	-0.02	-0.08	8.25	4.50	7.00	6.25	3.25	6.00	2.75	3.75	4.00	3.25	5.25	3.75	3.25	3.00	2.00	1.75	-0.282227	0.091309	0.914551	-2.800000	-6.580000	1.820000	882.00	-0.05	-0.07
0.51	1.50	1.75	2.00	2.00	0.50	1.75	0.50	1.25	0.75	1.75	1.00	0.50	1.00	1.50	2.00	1.00	-0.306641	0.029297	0.924316	-2.310000	1.120000	0.280000	261.00	-0.00	-0.08	7.75	4.75	7.00	6.25	3.25	6.00	2.75	3.75	4.25	3.25	5.50	3.75	3.75	3.25	2.00	1.50	-0.286621	0.091309	0.912109	-2.940000	-6.720000	1.820000	891.00	-0.04	-0.07
0.52	1.50	1.75	2.00	2.50	0.50	1.25	0.50	1.25	1.00	1.75	1.00	0.50	0.75	1.25	1.50	1.00	-0.308105	0.029297	0.930664	-2.310000	0.980000	0.490000	254.00	-0.02	-0.08	8.00	4.50	7.00	6.00	3.25	6.00	2.75	3.75	4.25	3.25	5.25	3.75	3.25	3.25	1.75	1.50	-0.279297	0.094238	0.916016	-2.730000	-6.720000	1.750000	877.00	-0.04	-0.06
0.53	1.50	1.75	1.75	1.75	0.50	1.00	0.50	1.50	0.75	1.50	1.25	0.50	1.00	1.50	1.50	1.00	-0.309082	0.030273	0.928711	-2.310000	0.980000	0.420000	243.00	-0.00	-0.09	8.25	4.25	6.75	6.25	3.25	6.25	2.75	3.75	4.25	3.25	5.25	3.75	3.50	3.50	1.50	1.50	-0.286133	0.091309	0.912598	-2.730000	-6.650000	1.750000	883.00	-0.04	-0.06
0.54	1.75	2.25	1.50	2.00	0.50	1.75	0.50	1.50	0.50	1.75	1.00	0.25	0.75	1.00	1.50	0.75	-0.310059	0.034180	0.920898	-2.170000	0.910000	0.350000	245.00	-0.04	-0.10	8.50	4.50	7.00	6.25	3.25	6.25	2.75	3.75	4.25	3.25	5.25	3.50	3.50	3.25	1.50	1.50	-0.280762	0.089844	0.912598	-2.800000	-6.930000	1.820000	886.00	-0.05	-0.06
0.55	1.50	2.00	2.00	2.00	0.50	1.75	0.50	1.00	0.75	1.75	1.25	0.50	0.75	1.00	1.25	0.75	-0.310547	0.034668	0.928711	-2.240000	1.050000	0.420000	244.00	-0.03	-0.08	8.50	4.50	7.25	6.25	3.50	6.25	2.75	3.75	4.00	3.25	5.25	3.75	3.50	3.25	1.75	1.50	-0.279297	0.094727	0.915039	-2.800000	-7.000000	1.890000	895.00	-0.05	-0.06
0.56	1.50	1.75	1.50	2.00	0.25	1.75	0.50	1.00	1.00	1.75	1.00	0.25	1.00	1.00	1.50	0.75	-0.307129	0.034180	0.930664	-2.240000	1.050000	0.420000	234.00	-0.02	-0.08	8.25	4.50	7.00	6.25	3.50	6.00	2.75	4.00	4.50	3.25	5.25	3.75	3.75	2.75	1.75	1.50	-0.287598	0.092285	0.911133	-2.800000	-7.000000	1.820000	895.00	-0.05	-0.07
0.57	1.50	2.00	1.75	2.00	0.25	1.00	0.50	1.00	1.00	1.75	1.00	0.25	1.50	1.00	1.75	1.00	-0.311523	0.029297	0.926758	-2.240000	1.050000	0.420000	241.00	-0.01	-0.08	8.00	4.50	7.00	6.25	3.25	6.00	2.75	3.75	4.00	3.25	5.00	3.75	3.75	3.00	1.75	1.50	-0.286133	0.090332	0.914551	-2.800000	-7.000000	1.820000	876.00	-0.05	-0.07
0.58	1.25	2.00	1.75	2.00	0.25	1.50	0.50	0.75	1.00	1.50	1.00	0.25	1.00	1.50	1.75	0.50	-0.315918	0.032227	0.926758	-2.310000	0.980000	0.350000	233.00	-0.01	-0.07	8.00	4.25	7.00	6.25	3.25	6.00	2.75	3.75	4.25	3.25	5.25	3.75	3.75	3.00	2.00	1.50	-0.286133	0.091797	0.916992	-2.870000	-7.070000	1.890000	883.00	-0.04	-0.07
0.59	1.75	2.00	1.75	2.00	0.25	1.50	0.50	1.25	0.75	1.75	1.25	0.25	1.00	1.25	1.25	0.75	-0.315918	0.032227	0.926758	-2.310000	0.980000	0.350000	244.00	-0.03	-0.08	8.00	4.25	7.00	6.25	3.50	6.00	2.75	3.75	4.25	3.25	5.25	3.75	3.50	2.75	1.75	1.25	-0.285156	0.089844	0.918945	-2.870000	-7.140000	1.960000	877.00	-0.05	-0.07
0.60	1.25	1.75	1.75	2.00	0.25	1.00	0.50	0.75	1.00	1.75	1.00	0.50	1.00	1.25	1.00	0.75	-0.312988	0.032715	0.929199	-2.170000	0.980000	0.420000	220.00	-0.01	-0.07	8.00	4.00	7.00	6.25	3.25	6.25	2.75	3.75	4.00	3.25	5.25	4.00	3.25	3.50	1.75	1.50	-0.282715	0.092773	0.919434	-2.870000	-7.070000	1.960000	880.00	-0.04	-0.07
0.61	1.25	2.25	1.75	1.75	0.25	1.75	0.50	1.50	0.75	1.50	1.25	0.00	1.00	1.25	1.50	0.75	-0.315918	0.028320	0.925781	-2.240000	1.050000	0.350000	242.00	-0.02	-0.10	8.25	4.25	6.75	6.50	3.25	6.00	2.75	3.75	4.25	3.25	5.25	3.50	3.50	3.00	1.75	1.50	-0.282715	0.094238	0.915039	-2.800000	-6.930000	1.890000	878.00	-0.05	-0.07
0.62	1.75	2.00	1.75	1.75	0.25	1.50	0.50	1.25	0.75	1.75	1.00	0.25	1.25	1.00	1.50	0.75	-0.310547	0.036621	0.933105	-2.380000	1.050000	0.490000	240.00	-0.03	-0.09	8.50	4.50	7.00	6.25	3.25	6.25	2.75	3.75	4.00	3.25	5.00	3.75	3.75	3.25	1.50	1.50	-0.282715	0.091797	0.914551	-2.800000	-7.140000	1.890000	885.00	-0.05	-0.07
0.63	1.50	2.25	1.50	2.00	0.25	1.50	0.50	1.00	1.00	1.75	1.00	0.25	1.00	1.50	1.75	0.75	-0.307129	0.036621	0.934082	-2.310000	0.980000	0.420000	245.00	-0.01	-0.07	8.50	4.50	7.00	6.50	3.50	6.00	2.75	3.75	3.50	3.25	5.00	3.75	3.50	3.25	1.75	1.50	-0.281250	0.092285	0.918457	-2.870000	-7.280000	1.890000	881.00	-0.05	-0.07
0.64	1.50	2.25	2.00	2.25	0.50	1.75	0.50	0.75	1.00	2.00	1.00	0.50	1.00	1.50	1.50	0.75	-0.312500	0.033203	0.925293	-2.380000	0.910000	0.350000	260.00	-0.02	-0.07	8.25	4.50	7.00	6.50	3.50	6.00	2.75	3.75	4.00	3.25	5.25	3.50	3.50	3.25	1.75	1.50	-0.290527	0.090820	0.913086	-2.870000	-7.140000	1.890000	886.00	-0.05	-0.07
0.65	1.75	2.00	1.75	2.00	0.50	1.00	0.50	1.25	1.00	1.75	1.00	0.25	1.25	1.50	1.50	1.00	-0.312012	0.028320	0.932129	-2.240000	0.630000	0.350000	251.00	-0.01	-0.07	8.50	4.75	7.00	6.50	3.50	6.00	2.75	3.75	3.75	3.25	5.00	3.50	3.50	3.00	1.75	1.50	-0.281250	0.090820	0.913574	-2.870000	-7.140000	1.960000	882.00	-0.06	-0.07
0.66	1.25	2.00	1.75	2.00	0.50	1.75	0.50	1.25	0.75	1.75	1.00	0.50	1.50	1.25	1.25	0.75	-0.316895	0.031250	0.922852	-2.380000	0.490000	0.490000	249.00	-0.02	-0.10	8.75	4.75	7.00	6.25	3.25	6.25	2.75	3.50	4.00	3.25	5.00	3.75	3.25	2.50	2.00	1.50	-0.277832	0.098633	0.918457	-3.010000	-7.210000	1.960000	880.00	-0.06	-0.06
0.67	1.75	2.25	1.75	2.00	0.50	2.00	0.50	0.75	0.75	2.00	0.75	0.00	0.75	1.25	1.75	0.75	-0.308594	0.030273	0.925293	-2.380000	0.420000	0.490000	244.00	-0.04	-0.07	8.50	4.75	7.25	6.75	3.25	6.00	2.50	3.75	4.00	3.25	5.00	3.75	3.25	3.00	2.00	1.25	-0.281250	0.093262	0.911133	-3.080000	-7.280000	1.960000	887.00	-0.06	-0.07
0.68	1.75	1.75	1.50	2.25	0.25	1.25	0.50	1.00	0.75	1.50	1.00	0.50	1.00	1.25	1.50	1.00	-0.307129	0.036621	0.925781	-2.380000	0.280000	0.420000	235.00	-0.02	-0.08	8.50	4.75	7.25	6.50	3.50	6.00	2.75	3.75	3.75	3.00	5.00	3.25	3.00	3.25	1.75	1.25	-0.284180	0.091309	0.915527	-3.220000	-7.280000	1.890000	875.00	-0.06	-0.06
0.69	1.50	2.00	1.50	2.25	0.25	1.50	0.50	1.00	0.75	1.50	1.00	0.75	0.75	1.25	1.75	0.75	-0.312012	0.034180	0.926758	-2.380000	0.350000	0.350000	240.00	-0.02	-0.09	8.75	5.00	7.25	6.50	3.25	6.25	2.75	3.75	4.00	3.25	5.25	3.75	3.25	3.00	1.75	1.25	-0.281738	0.091309	0.915039	-3.360000	-7.210000	1.890000	897.00	-0.06	-0.07
0.70	1.25	2.00	2.00	2.00	0.25	1.25	0.50	1.25	0.75	1.75	1.00	0.25	1.25	1.50	1.50	0.75	-0.315430	0.030273	0.931641	-2.450000	0.350000	0.420000	243.00	-0.01	-0.08	8.50	5.00	7.25	6.50	3.50	6.00	2.75	3.75	3.75	3.25	5.00	3.50	3.00	3.00	1.75	1.25	-0.285645	0.094238	0.915527	-3.360000	-7.280000	1.960000	881.00	-0.06	-0.06
0.71	1.25	2.25	1.75	2.00	0.25	1.25	0.50	1.25	0.75	1.50	1.00	0.50	0.75	1.50	1.75	0.50	-0.305176	0.035645	0.934570	-2.450000	0.490000	0.280000	238.00	-0.01	-0.08	8.50	5.00	7.25	6.50	3.50	6.25	2.50	3.50	3.75	3.25	5.00	3.50	3.00	3.00	1.75	1.25	-0.279297	0.096191	0.915039	-3.430000	-7.210000	1.960000	875.00	-0.06	-0.06
0.72	1.25	1.75	1.50	2.25	0.25	1.50	0.50	1.00	1.00	1.75	1.00	0.50	0.50	1.25	1.50	0.75	-0.314453	0.034668	0.922852	-2.380000	0.560000	0.280000	232.00	-0.01	-0.07	8.75	5.00	7.25	6.50	3.25	6.00	2.75	3.50	3.75	3.00	5.00	3.50	3.00	2.75	2.00	1.25	-0.280273	0.086914	0.916504	-3.430000	-7.210000	1.890000	874.00	-0.06	-0.06
0.73	1.50	2.00	2.00	2.00	0.25	1.50	0.50	1.75	1.00	1.75	1.00	0.50	1.25	1.25	1.50	1.00	-0.308105	0.039062	0.929688	-2.450000	0.630000	0.280000	264.00	-0.01	-0.10	8.50	5.25	7.25	6.75	3.25	6.00	2.50	3.50	4.00	3.00	5.00	3.50	3.00	2.75	2.00	1.50	-0.283203	0.093262	0.916992	-3.360000	-7.210000	1.890000	878.00	-0.06	-0.07
0.74	1.50	2.00	1.50	2.25	0.25	1.50	0.50	1.25	0.75	1.50	1.00	0.25	1.00	1.50	1.50	0.75	-0.309082	0.038574	0.931641	-2.450000	0.630000	0.420000	240.00	-0.02	-0.09	8.75	5.25	7.25	6.75	3.25	6.00	2.50	3.50	3.75	3.00	5.00	3.25	3.00	3.00	1.75	1.25	-0.284668	0.088867	0.922363	-3.290000	-7.210000	1.750000	872.00	-0.07	-0.06
0.75	1.75	2.00	1.75	1.75	0.25	1.00	0.50	0.75	0.75	1.50	1.00	0.25	0.50	1.00	1.50	0.50	-0.309082	0.032715	0.926758	-2.380000	0.700000	0.350000	212.00	-0.04	-0.06	9.00	5.25	7.50	6.75	3.25	6.00	2.75	3.50	4.00	3.00	5.00	3.50	3.25	2.75	1.50	1.50	-0.281250	0.086914	0.914062	-3.290000	-7.350000	1.890000	888.00	-0.07	-0.06
0.76	2.25	2.00	1.75	2.25	0.25	1.00	0.50	1.25	1.00	1.50	0.75	0.50	0.75	1.25	1.00	0.75	-0.307617	0.033691	0.928711	-2.450000	0.630000	0.350000	239.00	-0.05	-0.07	8.75	5.25	7.50	6.50	3.50	6.00	2.75	3.50	3.75	2.75	5.00	3.25	2.75	2.75	1.75	1.50	-0.284180	0.086426	0.917969	-3.150000	-7.350000	1.960000	873.00	-0.07	-0.06
0.77	1.50	2.00	1.75	1.75	0.25	1.25	0.50	1.25	0.75	1.50	1.00	0.50	0.75	1.25	2.00	1.00	-0.306641	0.035156	0.922363	-2.520000	0.560000	0.490000	239.00	-0.01	-0.08	9.00	5.50	7.25	6.50	3.25	6.00	2.75	3.25	3.50	3.00	5.00	3.25	2.75	2.75	1.75	1.25	-0.281738	0.090820	0.914551	-3.010000	-7.490000	1.890000	865.00	-0.07	-0.06
0.78	1.75	2.25	2.00	2.25	0.50	1.25	0.50	0.75	1.00	1.50	0.75	0.25	1.00	1.25	1.50	0.75	-0.311035	0.033691	0.930176	-2.450000	0.700000	0.420000	242.00	-0.04	-0.06	9.00	5.50	7.25	7.00	3.50	6.25	2.75	3.50	3.50	3.00	4.75	3.25	3.00	2.75	1.75	1.25	-0.282227	0.088867	0.912598	-2.800000	-7.490000	2.100000	882.00	-0.07	-0.07
0.79	1.25	2.00	1.50	2.00	0.50	1.50	0.50	1.00	0.75	1.50	1.25	0.50	1.25	1.00	1.50	0.75	-0.312012	0.031250	0.931641	-2.520000	0.770000	0.350000	236.00	-0.01	-0.10	9.25	5.50	7.50	6.75	3.25	6.00	2.50	3.25	4.00	3.00	4.75	3.00	3.00	2.75	1.50	1.25	-0.278320	0.090332	0.916992	-2.730000	-7.490000	2.030000	871.00	-0.07	-0.06
0.80	1.75	2.25	1.75	1.50	0.50	0.75	0.50	1.00	0.75	1.75	0.75	0.25	0.75	1.25	1.50	0.50	-0.306152	0.029297	0.930176	-2.380000	0.560000	0.420000	221.00	-0.03	-0.06	9.25	5.75	7.50	7.00	3.50	6.00	2.75	3.50	3.25	2.75	4.50	3.25	2.75	2.25	2.00	1.00	-0.279297	0.086426	0.916504	-2.870000	-7.560000	2.100000	872.00	-0.08	-0.07
0.81	1.50	2.25	1.75	2.00	0.25	1.25	0.50	1.00	0.75	1.50	1.00	0.25	1.25	1.25	1.50	1.00	-0.308594	0.033691	0.929688	-2.310000	0.490000	0.490000	237.00	-0.02	-0.09	9.25	5.75	7.50	7.00	3.50	6.25	2.50	3.25	3.50	3.00	4.50	3.25	3.00	2.50	1.75	1.25	-0.281250	0.091309	0.914062	-2.870000	-7.420000	2.100000	877.00	-0.08	-0.06
0.82	1.50	2.75	2.00	1.75	0.25	1.00	0.50	1.25	0.75	1.50	0.75	0.50	1.25	1.00	1.50	0.75	-0.305176	0.027832	0.931641	-2.310000	0.630000	0.560000	239.00	-0.04	-0.09	9.50	5.50	7.50	6.75	3.25	6.25	2.50	3.00	3.25	2.75	4.75	3.25	3.00	2.75	1.75	1.25	-0.282715	0.092773	0.920410	-2.730000	-7.280000	2.030000	865.00	-0.08	-0.06
0.83	2.00	2.25	2.00	2.25	0.50	1.50	0.50	1.00	1.00	1.50	1.00	0.25	0.75	1.00	1.50	0.75	-0.312500	0.029785	0.931641	-2.380000	0.910000	0.350000	250.00	-0.05	-0.07	9.25	6.25	7.75	7.00	3.50	6.25	2.75	3.25	3.50	2.75	4.75	3.25	3.00	2.75	1.75	1.25	-0.278809	0.092773	0.919434	-2.660000	-7.140000	2.310000	893.00	-0.08	-0.06
0.84	1.75	2.00	1.75	2.25	0.25	1.25	0.50	0.75	0.50	1.50	0.75	0.25	1.25	1.00	1.50	0.50	-0.312988	0.028320	0.930664	-2.380000	0.910000	0.350000	223.00	-0.05	-0.08	9.50	6.25	7.75	7.25	3.25	6.25	2.50	3.25	3.50	2.75	4.50	3.00	3.00	2.50	1.25	1.50	-0.280762	0.088379	0.920410	-2.520000	-7.070000	2.450000	878.00	-0.09	-0.07
0.85	1.50	2.00	1.75	2.50	0.50	1.00	0.50	1.00	1.00	1.75	1.00	0.25	1.00	1.50	1.50	0.50	-0.309082	0.036133	0.932617	-2.240000	0.840000	0.420000	244.00	-0.02	-0.07	10.00	6.25	7.75	7.00	3.50	6.25	2.50	3.25	3.50	2.75	4.50	3.00	2.75	2.25	1.75	1.25	-0.282715	0.092773	0.918945	-2.310000	-7.070000	2.450000	884.00	-0.09	-0.06
0.86	1.00	2.00	1.50	2.00	0.25	1.25	0.50	1.25	1.00	1.25	1.00	0.50	1.00	1.25	1.25	0.50	-0.312012	0.027832	0.932129	-2.170000	0.420000	0.630000	224.00	-0.01	-0.09	9.50	6.25	7.75	7.25	3.50	6.25	2.75	3.25	3.00	2.75	4.25	3.25	2.25	2.25	1.25	1.25	-0.281250	0.089844	0.917969	-2.030000	-7.210000	2.590000	866.00	-0.10	-0.06
0.87	1.75	2.00	2.00	2.25	0.50	1.25	0.50	0.75	1.00	1.50	0.75	0.50	1.00	1.25	1.50	0.50	-0.317871	0.030273	0.930176	-1.960000	-0.140000	0.700000	240.00	-0.04	-0.06	9.75	6.50	7.50	7.25	3.25	6.25	2.50	3.00	3.25	2.75	4.25	3.25	2.75	2.25	1.75	1.25	-0.278320	0.091309	0.905762	-1.960000	-7.350000	2.660000	872.00	-0.09	-0.07
0.88	2.00	2.25	2.00	2.00	0.25	1.25	0.50	1.50	0.50	1.50	1.00	0.25	1.25	1.00	1.25	0.75	-0.316895	0.021973	0.930176	-1.680000	-0.770000	0.700000	244.00	-0.05	-0.10	9.75	6.50	7.50	7.25	3.50	6.25	2.50	3.00	3.00	2.75	4.25	3.00	2.75	2.25	1.50	1.25	-0.278320	0.088867	0.917969	-1.890000	-7.280000	2.730000	865.00	-0.10	-0.07
0.89	1.50	2.00	1.75	2.00	0.25	1.50	0.50	1.25	1.00	1.50	0.75	0.25	0.50	1.00	1.00	0.75	-0.309570	0.037109	0.934570	-1.330000	-1.120000	0.420000	224.00	-0.05	-0.08	9.75	6.75	7.75	7.50	3.50	6.25	2.50	3.00	3.25	2.75	4.00	3.25	2.75	1.25	1.50	1.00	-0.284668	0.090820	0.919434	-1.890000	-7.210000	2.660000	866.00	-0.10	-0.07
0.90	1.75	2.25	1.75	2.00	0.25	1.50	0.50	1.00	0.75	1.25	0.75	0.50	1.25	1.00	1.50	0.75	-0.309082	0.022461	0.929688	-1.330000	-1.610000	0.490000	236.00	-0.04	-0.09	10.00	6.75	7.75	7.25	3.25	6.50	2.50	3.00	3.00	2.50	4.25	3.25	2.75	2.00	1.75	1.25	-0.282227	0.096191	0.921875	-1.820000	-7.280000	2.730000	874.00	-0.10	-0.07
0.91	2.00	2.25	2.00	2.00	0.50	1.50	0.50	1.25	1.00	1.50	0.75	0.50	1.50	1.25	1.50	0.50	-0.303223	0.029297	0.927734	-1.330000	-1.890000	0.770000	260.00	-0.04	-0.08	9.75	7.00	7.75	7.50	3.25	6.25	2.50	3.00	2.75	2.75	4.00	3.00	2.75	2.25	1.50	1.25	-0.282715	0.089844	0.918945	-1.750000	-7.070000	2.870000	866.00	-0.10	-0.07
0.92	1.75	2.25	2.00	2.00	0.50	1.00	0.50	0.75	0.75	1.25	1.00	0.25	1.00	1.00	1.25	0.75	-0.305664	0.032227	0.933105	-1.470000	-2.240000	0.770000	225.00	-0.05	-0.07	9.75	6.75	7.75	7.50	3.25	6.50	2.50	3.25	3.00	2.50	4.00	2.75	2.75	1.75	1.50	1.50	-0.280762	0.091309	0.912109	-1.750000	-7.420000	2.870000	866.00	-0.10	-0.07
0.93	1.50	2.00	2.00	2.25	0.50	1.50	0.50	1.00	0.75	1.25	0.75	0.25	0.75	1.25	1.00	1.00	-0.308105	0.031250	0.932617	-2.170000	-3.010000	0.280000	229.00	-0.05	-0.08	10.25	7.00	7.75	7.75	3.25	6.50	2.50	3.00	2.75	2.50	4.00	3.00	2.75	1.75	1.50	1.25	-0.285645	0.090820	0.911621	-1.750000	-7.630000	2.940000	871.00	-0.11	-0.07
0.94	1.75	2.50	1.75	2.25	0.25	1.50	0.50	1.00	1.00	1.50	0.75	0.25	1.00	1.25	1.25	0.75	-0.303223	0.031250	0.942383	-2.870000	-3.710000	-0.350000	242.00	-0.05	-0.08	10.75	7.25	8.00	7.75	3.25	6.50	2.50	3.25	2.50	2.50	4.25	2.75	2.75	2.00	1.25	1.25	-0.281250	0.091797	0.917480	-1.820000	-7.910000	3.010000	883.00	-0.11	-0.07
0.95	1.75	2.25	1.75	2.00	0.50	0.75	0.50	0.75	0.50	1.25	1.00	0.25	0.75	1.50	1.50	0.75	-0.309570	0.021484	0.938965	-3.990000	-4.550000	-0.980000	221.00	-0.04	-0.06	10.50	7.50	7.75	7.75	3.50	6.75	2.50	3.25	2.75	2.50	4.00	2.75	2.50	1.75	1.25	1.25	-0.280762	0.091797	0.916504	-1.960000	-7.980000	3.080000	882.00	-0.12	-0.07
0.96	1.75	2.50	1.50	2.00	0.25	1.25	0.50	1.00	0.50	1.50	0.75	0.25	0.75	1.00	1.00	0.75	-0.306641	0.014648	0.937012	-5.530000	-5.390000	-1.890000	216.00	-0.06	-0.09	11.00	7.50	7.75	8.00	3.25	6.75	2.50	3.25	2.75	2.50	4.00	2.75	2.75	2.00	1.25	1.25	-0.288574	0.090332	0.922363	-2.030000	-8.050000	3.150000	893.00	-0.12	-0.07
0.97	1.50	2.00	1.50	2.00	0.50	1.25	0.50	1.00	0.50	1.25	0.25	0.25	1.00	1.00	1.00	0.75	-0.322266	0.026367	0.984375	-5.740000	-4.480000	-3.080000	204.00	-0.06	-0.09	11.50	7.75	8.00	8.25	3.25	6.75	2.50	3.25	2.25	2.50	3.75	2.75	2.50	1.75	1.50	1.25	-0.281250	0.097168	0.917480	-2.100000	-8.260000	3.290000	896.00	-0.12	-0.07
0.98	1.50	2.00	2.00	2.25	0.50	1.00	0.25	0.50	0.75	1.25	0.50	0.00	0.75	1.00	1.00	0.75	-0.321289	-0.036621	0.921387	-11.200000	-4.690000	-5.250000	199.00	-0.07	-0.06	11.50	8.25	8.25	8.25	3.50	6.75	2.50	3.25	2.75	2.50	3.75	2.75	2.25	1.50	1.25	1.00	-0.280762	0.087402	0.911133	-2.030000	-8.470000	3.220000	906.00	-0.13	-0.07
0.99	1.25	2.00	1.50	2.00	0.25	1.25	0.50	1.00	0.50	1.00	0.75	0.00	1.00	1.00	1.25	0.75	-0.330566	-0.058105	0.955078	-18.129999	-4.690000	-11.480000	201.00	-0.05	-0.10	11.75	8.50	8.00	8.25	3.25	7.00	2.50	3.50	2.25	2.25	3.75	2.75	2.75	1.50	1.00	1.25	-0.275391	0.096680	0.907715	-2.240000	-8.610000	3.150000	906.00	-0.13	-0.08
1.00	1.50	1.75	1.25	2.00	0.25	1.25	0.50	0.75	0.50	1.25	0.50	0.00	1.25	1.00	1.50	0.75	-0.368164	-0.095215	0.987305	-27.510000	-3.850000	-22.889999	199.00	-0.03	-0.09	11.75	8.50	8.25	8.50	3.25	7.00	2.25	3.25	2.50	2.50	3.75	2.50	2.50	1.75	1.00	1.00	-0.272461	0.095703	0.913086	-2.520000	-8.330000	3.010000	905.00	-0.13	-0.07
1.01	1.25	2.00	1.25	1.75	0.50	1.75	0.25	0.75	0.75	1.00	0.50	0.00	1.00	1.00	1.00	0.50	-0.390625	-0.050781	1.004395	-36.259998	-3.920000	-35.279999	191.00	-0.06	-0.09	12.00	8.50	8.25	8.25	3.25	7.00	2.25	3.25	2.25	2.50	3.75	2.50	2.75	1.25	1.25	1.00	-0.284180	0.093750	0.919922	-2.800000	-7.980000	2.800000	902.00	-0.14	-0.07
1.02	1.25	2.00	1.50	1.75	0.25	1.50	0.25	0.75	0.50	1.25	0.50	0.25	0.75	1.00	1.00	0.75	-0.385742	0.061523	1.068359	-40.740002	-4.970000	-44.450001	189.00	-0.05	-0.09	12.50	9.00	8.25	8.50	3.25	7.25	2.25	3.25	2.50	2.25	3.50	2.50	2.50	1.50	1.00	1.25	-0.279785	0.095703	0.920898	-3.010000	-7.770000	2.870000	916.00	-0.14	-0.07
1.03	1.25	1.50	1.25	2.00	0.25	1.00	0.50	0.75	0.75	1.25	0.75	0.00	0.50	1.00	1.00	0.50	-0.311523	0.136719	1.133301	-41.299999	-6.370000	-49.910000	182.00	-0.04	-0.06	12.50	9.25	8.25	8.50	3.25	7.00	2.25	3.25	2.25	2.50	3.25	2.50	2.25	1.50	1.00	1.00	-0.279785	0.086914	0.924316	-3.080000	-7.560000	2.940000	908.00	-0.15	-0.07
1.04	1.00	2.00	1.50	1.75	0.25	1.25	0.25	0.25	0.50	1.25	0.50	0.25	1.00	1.00	1.25	0.50	-0.230957	0.240723	1.091309	-41.720001	-11.340000	-54.459999	178.00	-0.04	-0.08	12.50	9.50	8.25	8.75	3.25	7.25	2.25	3.25	2.00	2.25	3.50	2.50	2.25	1.50	1.50	1.00	-0.277832	0.093262	0.923828	-3.080000	-7.350000	2.940000	919.00	-0.15	-0.07
1.05	1.25	1.75	1.25	1.75	0.25	1.00	0.50	0.50	0.75	1.50	0.50	0.00	0.75	1.00	1.00	0.75	-0.269531	0.290527	1.071777	-31.710001	-13.790000	-56.840000	181.00	-0.03	-0.06	12.50	9.50	8.25	8.75	3.25	7.50	2.25	3.25	2.00	2.25	3.50	2.25	2.25	1.25	1.25	1.00	-0.276367	0.098633	0.919434	-3.150000	-7.420000	2.940000	914.00	-0.15	-0.08
1.06	1.00	1.50	1.00	2.00	0.25	1.00	0.50	1.00	1.00	1.25	0.75	0.00	0.75	1.00	1.25	0.50	-0.222656	0.340332	0.937500	-33.250000	-4.830000	-48.580002	189.00	-0.01	-0.08	12.75	10.00	8.25	8.75	3.25	7.25	2.25	3.00	2.25	2.00	3.50	2.50	2.25	1.25	1.00	1.00	-0.266602	0.095215	0.911621	-3.220000	-7.000000	2.800000	915.00	-0.15	-0.07
1.07	1.25	1.75	1.50	1.75	0.25	1.00	0.50	0.50	0.75	0.75	0.50	0.00	0.50	1.00	1.25	0.50	-0.173828	0.405273	0.941895	-35.139999	1.050000	-39.270000	174.00	-0.05	-0.05	12.75	9.75	8.25	9.00	3.25	7.25	2.25	3.25	2.00	2.25	3.25	2.25	2.25	1.50	1.25	1.00	-0.274414	0.094238	0.918457	-3.430000	-7.070000	2.730000	919.00	-0.15	-0.07
1.08	1.00	1.75	1.25	1.25	0.25	1.00	0.50	0.25	0.50	1.00	0.75	0.00	0.50	1.00	1.50	0.75	-0.131836	0.438965	0.949707	-30.450001	5.390000	-26.950001	163.00	-0.01	-0.05	13.00	10.00	8.25	8.75	3.25	7.25	2.25	3.25	2.00	2.25	3.00	2.00	2.25	1.00	1.25	1.00	-0.275391	0.091797	0.916504	-3.500000	-7.000000	2.660000	910.00	-0.16	-0.07
1.09	1.25	2.00	1.75	2.00	0.25	1.00	0.50	1.00	1.00	1.25	0.50	0.25	1.00	1.00	1.50	0.75	-0.082031	0.441895	0.934082	-24.430000	9.730000	-12.460000	215.00	-0.03	-0.08	12.75	9.75	8.25	8.75	3.00	7.25	2.25	3.00	2.00	2.25	3.25	2.50	2.25	1.25	1.25	1.00	-0.275391	0.093750	0.912109	-3.570000	-7.070000	2.590000	909.00	-0.15	-0.07
1.10	1.00	1.50	1.50	1.75	0.25	1.00	0.50	1.00	0.50	1.00	0.50	0.00	1.00	1.00	1.00	0.50	-0.035645	0.422852	0.940918	-22.820000	14.420000	3.430000	178.00	-0.04	-0.09	13.25	10.00	8.25	8.75	3.00	7.25	2.25	3.00	1.50	2.00	3.25	2.25	2.25	1.25	0.75	1.00	-0.278320	0.091309	0.918945	-3.220000	-7.140000	2.520000	897.00	-0.17	-0.08
1.11	1.25	1.75	1.25	1.75	0.25	1.00	0.50	0.50	0.50	1.50	0.50	0.25	0.75	1.25	1.50	0.50	-0.007324	0.422363	0.962891	-23.030001	18.620001	19.670000	187.00	-0.02	-0.06	13.00	10.00	8.25	9.00	3.00	7.25	2.25	3.00	1.75	2.25	3.25	2.25	2.00	1.00	1.00	1.00	-0.274902	0.090820	0.923340	-3.010000	-7.070000	2.590000	902.00	-0.16	-0.07
1.12	1.00	1.75	1.50	2.00	0.25	1.50	0.50	0.50	0.75	1.00	0.50	0.00	0.75	1.00	1.25	0.50	0.032715	0.415039	0.978516	-20.299999	21.840000	35.420002	186.00	-0.04	-0.07	13.00	10.00	8.25	9.00	3.00	7.00	2.00	3.00	2.00	2.00	3.25	2.25	2.00	1.00	1.00	1.00	-0.278320	0.091797	0.919434	-3.010000	-7.280000	2.520000	896.00	-0.16	-0.07
1.13	1.00	2.25	1.25	1.50	0.25	1.50	0.25	0.75	0.75	1.25	0.75	0.00	0.50	1.00	1.00	0.75	0.061035	0.387695	1.011719	-14.350000	23.590000	50.400002	184.00	-0.04	-0.08	13.25	9.75	8.50	9.00	3.00	7.25	2.25	3.00	2.00	2.00	3.25	2.25	1.75	1.25	0.75	0.75	-0.273438	0.094238	0.921875	-3.080000	-7.210000	2.450000	902.00	-0.17	-0.07
1.14	1.00	2.00	1.25	2.00	0.25	1.50	0.50	1.00	0.75	1.00	0.50	0.00	1.25	1.00	1.25	0.50	0.105957	0.343750	1.038086	-7.490000	23.520000	63.980000	200.00	-0.04	-0.10	13.50	10.25	8.25	8.75	3.00	7.25	2.00	2.75	1.50	2.00	3.00	2.00	2.00	1.25	0.75	1.00	-0.276855	0.091797	0.923340	-3.220000	-7.280000	2.380000	885.00	-0.17	-0.07
1.15	1.25	2.00	1.25	1.50	0.25	1.50	0.50	0.25	0.50	1.25	0.50	0.00	1.00	0.75	1.00	0.50	0.132324	0.273926	1.075684	-1.120000	22.330000	75.809998	173.00	-0.06	-0.07	13.25	10.25	8.25	9.00	3.00	7.00	2.00	3.00	2.00	1.75	3.00	2.00	1.75	1.00	1.00	1.00	-0.273926	0.097656	0.917969	-3.360000	-7.490000	2.310000	889.00	-0.17	-0.07
1.16	1.50	1.75	1.25	1.50	0.25	1.50	0.50	0.75	0.50	1.00	0.50	0.00	0.50	1.25	1.00	0.50	0.159668	0.200195	1.061035	3.220000	19.809999	84.840004	180.00	-0.05	-0.07	13.00	10.25	8.25	8.75	2.75	7.00	2.00	2.75	1.50	2.00	2.75	2.00	1.25	1.00	0.75	0.75	-0.280762	0.091797	0.917969	-3.570000	-7.700000	2.380000	857.00	-0.18	-0.07
1.17	1.00	1.50	1.50	1.75	0.25	1.25	0.50	0.75	0.75	1.25	0.50	0.00	0.75	1.00	1.00	0.75	0.192871	0.127930	1.053223	7.840000	17.080000	90.720001	183.00	-0.03	-0.07	13.75	10.75	8.25	9.00	3.00	7.25	2.00	2.75	1.50	2.00	2.75	2.00	1.75	1.00	1.00	0.75	-0.272461	0.092285	0.924316	-3.780000	-8.120000	2.240000	890.00	-0.18	-0.07
1.18	1.00	1.75	1.00	2.00	0.25	1.25	0.50	1.25	0.00	1.00	0.50	0.00	0.75	0.50	1.25	0.25	0.213867	0.057617	1.079102	12.880000	12.950000	93.730003	171.00	-0.07	-0.13	13.75	10.50	8.25	9.00	2.75	7.00	2.00	2.75	1.50	2.00	2.75	2.25	1.75	1.00	0.75	0.75	-0.271484	0.093262	0.915039	-3.990000	-8.190000	2.240000	881.00	-0.18	-0.07
1.19	1.00	1.75	1.50	1.75	0.25	1.25	0.50	0.50	0.50	1.00	0.50	0.25	0.50	1.00	1.00	0.25	0.245117	-0.033691	1.080566	17.290001	8.190000	93.800003	171.00	-0.06	-0.07	13.50	11.00	8.25	9.00	3.00	7.25	2.00	2.50	1.25	2.00	2.75	2.50	1.50	1.25	1.00	0.75	-0.272461	0.096191	0.918945	-4.060000	-7.840000	2.100000	888.00	-0.18	-0.07
1.20	1.25	2.00	1.25	1.50	0.25	1.50	0.50	0.50	0.50	1.00	0.50	0.00	0.25	1.25	1.00	0.50	0.279297	-0.101562	1.105957	19.460001	3.150000	89.949997	172.00	-0.06	-0.06	13.75	10.50	8.25	9.25	3.00	7.25	2.00	2.50	1.50	1.75	2.75	1.75	1.75	0.75	1.00	0.75	-0.274902	0.092285	0.916016	-4.060000	-7.350000	1.750000	878.00	-0.18	-0.07
1.21	1.25	2.00	1.25	1.50	0.25	1.25	0.50	0.75	0.75	1.25	0.75	0.00	0.25	1.00	1.00	0.75	0.343262	-0.231445	1.104980	22.400000	-9.030000	72.239998	183.00	-0.04	-0.06	14.25	11.00	8.50	9.25	3.00	7.00	1.75	2.50	1.75	2.00	3.00	2.00	1.50	1.00	1.00	0.75	-0.274902	0.092285	0.916016	-4.060000	-7.350000	1.750000	898.00	-0.18	-0.07
1.22	1.00	1.75	1.25	2.00	0.25	1.25	0.50	0.50	0.50	1.25	0.75	0.00	0.75	1.00	1.00	0.50	0.366211	-0.299316	1.119629	23.170000	-16.309999	59.150002	179.00	-0.04	-0.08	14.00	11.00	8.50	9.00	2.75	7.00	1.75	2.75	1.50	1.75	2.75	1.75	1.75	1.00	0.75	0.75	-0.274414	0.088379	0.925781	-3.710000	-7.490000	2.100000	879.00	-0.19	-0.07
1.23	1.25	2.00	1.50	2.00	0.25	1.00	0.25	0.50	0.50	1.25	0.50	0.00	0.50	1.00	1.00	0.75	0.386230	-0.342285	1.117188	23.170000	-23.450001	44.380001	176.00	-0.06	-0.07	14.00	11.00	8.25	9.00	2.75	7.00	1.75	2.50	1.50	1.75	2.75	1.75	1.50	0.75	0.75	1.00	-0.274414	0.088867	0.919922	-3.500000	-7.420000	2.100000	868.00	-0.19	-0.07
1.24	1.25	2.25	1.00	1.25	0.25	1.00	0.50	0.50	0.75	1.00	0.75	0.00	0.50	1.00	1.00	0.50	0.398926	-0.357422	1.125488	22.469999	-30.450001	29.049999	169.00	-0.04	-0.06	14.25	11.00	8.50	9.00	3.00	7.00	1.75	2.75	1.50	1.75	2.75	1.75	1.50	1.25	1.00	0.75	-0.279297	0.086426	0.920410	-3.290000	-7.420000	2.170000	889.00	-0.19	-0.07
1.25	1.50	1.75	1.25	1.75	0.25	1.00	0.25	0.50	0.75	1.25	0.50	0.00	0.50	0.75	1.00	0.50	0.403320	-0.348145	1.148438	21.000000	-37.939999	14.210000	169.00	-0.06	-0.06	14.25	11.25	8.50	9.25	2.75	7.00	1.75	2.50	1.50	1.75	2.75	1.50	1.50	1.25	0.75	0.75	-0.276367	0.088379	0.919434	-3.150000	-7.560000	2.170000	881.00	-0.19	-0.07
1.26	1.00	2.25	1.00	1.50	0.25	1.00	0.25	0.50	0.50	1.25	0.50	0.00	1.00	1.00	1.00	0.75	0.421387	-0.329590	1.146484	19.600000	-45.500000	0.980000	167.00	-0.04	-0.09	14.25	11.25	8.50	9.25	3.00	7.00	1.75	2.50	1.50	1.75	2.50	2.00	1.50	0.50	0.75	0.75	-0.278809	0.088867	0.920410	-3.150000	-7.770000	2.380000	879.00	-0.19	-0.07
1.27	0.75	1.75	1.25	1.75	0.25	1.00	0.25	1.00	0.75	1.00	0.75	0.00	0.50	0.75	1.00	0.75	0.424805	-0.300781	1.138672	19.110001	-52.500000	-9.660000	171.00	-0.04	-0.09	14.25	11.75	8.50	9.25	3.00	7.00	1.75	2.25	1.25	1.75	2.50	1.75	1.50	0.75	0.50	0.75	-0.277344	0.087402	0.925293	-3.220000	-7.980000	2.310000	873.00	-0.20	-0.07
1.28	0.75	1.75	1.00	1.75	0.25	0.75	0.25	1.00	0.75	1.00	0.50	0.25	1.00	0.50	1.25	0.50	0.411133	-0.277344	1.138672	18.200001	-57.959999	-17.639999	168.00	-0.03	-0.11	14.25	11.50	8.50	9.25	3.00	6.75	1.75	2.50	1.25	1.75	2.50	1.50	1.25	0.50	0.75	0.50	-0.271484	0.092773	0.926270	-3.290000	-7.980000	2.310000	864.00	-0.20	-0.07
1.29	1.25	1.75	1.00	1.75	0.25	1.00	0.50	0.75	0.50	1.00	0.75	0.00	0.25	1.00	1.25	0.50	0.395020	-0.239258	1.106445	16.379999	-61.389999	-22.889999	171.00	-0.04	-0.07	15.00	11.50	8.50	9.25	3.00	7.25	1.75	2.25	1.25	1.50	2.50	1.50	1.50	1.25	1.00	0.75	-0.264648	0.091309	0.919434	-3.430000	-8.120000	2.310000	888.00	-0.20	-0.07
1.30	1.00	2.00	1.00	1.75	0.25	0.75	0.50	1.25	0.50	1.00	0.50	0.00	0.75	0.75	1.00	0.75	0.370117	-0.200684	1.075684	13.650000	-62.720001	-25.410000	175.00	-0.05	-0.10	15.25	11.75	8.50	9.50	2.75	7.00	1.50	2.50	1.50	1.75	2.50	1.75	1.50	1.00	0.50	0.75	-0.263184	0.086914	0.914551	-3.360000	-7.700000	2.100000	892.00	-0.20	-0.07
1.31	1.25	1.75	1.00	1.75	0.25	1.00	0.25	0.25	0.50	1.00	0.50	0.00	1.00	0.75	1.25	0.50	0.351562	-0.145020	1.050781	10.710000	-61.599998	-25.549999	160.00	-0.05	-0.08	15.00	11.75	8.75	9.25	3.00	7.00	1.50	2.25	1.00	1.50	2.50	1.50	1.00	1.00	0.75	0.50	-0.264648	0.093750	0.916016	-3.150000	-7.490000	1.820000	870.00	-0.21	-0.07
1.32	1.25	2.00	1.25	1.75	0.25	1.00	0.50	0.75	0.50	1.00	0.50	0.00	0.25	1.00	1.00	0.50	0.324219	-0.086426	1.082031	9.450000	-58.869999	-23.309999	171.00	-0.06	-0.07	14.75	11.50	8.75	9.25	3.00	6.75	1.50	2.25	1.50	1.75	2.50	1.75	1.25	0.75	0.75	0.75	-0.269043	0.090820	0.917969	-3.220000	-7.210000	1.680000	876.00	-0.20	-0.07
1.33	1.25	1.75	1.50	1.75	0.25	1.50	0.50	0.50	0.50	1.00	0.50	0.00	1.00	1.00	1.75	0.50	0.314941	-0.010254	1.117188	10.850000	-56.840000	-18.830000	191.00	-0.03	-0.08	14.75	11.25	8.50	9.25	3.00	7.00	1.50	2.25	1.25	1.75	2.50	1.75	1.25	1.00	0.75	0.75	-0.269043	0.088867	0.917480	-3.080000	-6.930000	1.680000	872.00	-0.20	-0.07
1.34	1.25	2.00	1.25	1.75	0.25	1.00	0.50	1.00	0.75	1.25	0.50	0.00	0.75	0.75	1.25	0.50	0.279297	0.018066	1.186523	14.000000	-56.209999	-12.250000	188.00	-0.04	-0.08	14.75	11.75	8.75	9.25	3.00	6.75	1.50	2.50	1.25	1.75	2.50	1.50	1.25	0.50	0.75	0.75	-0.275391	0.084473	0.919434	-3.010000	-6.930000	1.610000	874.00	-0.21	-0.07
1.35	0.75	2.00	1.25	2.00	0.25	1.00	0.50	0.50	0.75	1.25	0.50	0.25	0.50	1.00	1.00	0.75	0.175781	0.020996	1.363770	19.879999	-61.810001	5.530000	178.00	-0.03	-0.07	14.50	11.25	8.50	9.25	3.00	6.75	1.50	2.25	1.25	1.50	2.75	1.75	1.25	1.00	0.75	0.75	-0.276367	0.091309	0.915039	-3.010000	-6.860000	1.470000	866.00	-0.20	-0.07
1.36	0.75	1.50	1.25	2.25	0.25	1.25	0.50	0.50	0.50	1.25	0.75	0.00	0.50	1.00	1.50	0.50	0.123535	0.013184	1.440918	17.360001	-67.900002	14.280000	180.00	-0.02	-0.08	14.75	11.25	8.50	9.50	3.00	6.75	1.50	2.50	1.50	1.50	2.75	1.50	1.25	0.75	1.00	0.75	-0.275879	0.085449	0.921387	-2.800000	-6.790000	1.540000	878.00	-0.20	-0.07
1.37	0.75	1.75	1.25	1.75	0.25	1.00	0.50	1.00	0.75	1.25	0.75	0.25	0.50	1.00	1.50	0.25	0.055664	-0.006348	1.485352	10.990000	-76.930000	22.400000	187.00	-0.01	-0.08	14.50	11.50	8.50	9.25	3.00	6.75	1.75	2.25	1.25	1.75	2.50	1.75	1.25	0.75	0.50	1.00	-0.270996	0.089355	0.921387	-2.870000	-6.580000	1.610000	869.00	-0.20	-0.07
1.38	1.00	1.75	1.25	1.50	0.25	1.50	0.50	0.50	0.75	1.25	0.75	0.25	1.25	1.00	1.25	0.75	-0.017578	-0.016602	1.471680	2.170000	-86.660004	29.469999	192.00	-0.01	-0.08	14.50	11.25	8.50	9.25	3.25	7.00	1.50	2.25	1.25	1.50	2.50	1.50	1.50	0.75	0.75	0.75	-0.270508	0.090332	0.916504	-2.590000	-6.650000	1.680000	866.00	-0.20	-0.07
1.39	1.00	1.75	1.00	1.25	0.25	1.75	0.50	0.50	0.50	1.25	0.50	0.25	0.50	0.75	1.25	0.50	-0.120605	-0.027832	1.426758	-5.740000	-94.779999	35.000000	170.00	-0.03	-0.08	14.50	11.00	8.50	9.00	3.00	6.75	1.50	2.25	1.50	1.50	2.50	1.50	1.25	1.00	0.75	0.75	-0.271973	0.089355	0.914551	-2.240000	-6.580000	1.610000	857.00	-0.20	-0.07
1.40	1.00	1.75	1.50	1.75	0.25	1.25	0.25	0.75	0.75	1.25	0.50	0.00	0.50	0.50	1.00	0.50	-0.213867	-0.037109	1.373047	-10.710000	-101.010002	38.849998	172.00	-0.06	-0.08	14.50	11.00	8.50	9.00	3.00	6.75	1.50	2.50	1.25	1.75	2.50	1.75	1.00	1.00	1.00	0.75	-0.274414	0.088379	0.918457	-2.030000	-6.650000	1.610000	865.00	-0.20	-0.07
1.41	0.75	1.50	1.25	1.50	0.25	1.75	0.50	0.75	0.75	1.25	0.50	0.00	0.75	0.75	1.25	0.50	-0.278809	-0.031250	1.327637	-12.320000	-105.279999	41.230000	179.00	-0.02	-0.08	14.00	10.75	8.50	9.00	3.00	7.00	1.50	2.50	1.50	1.75	2.50	1.50	1.50	1.25	1.00	0.75	-0.269531	0.091309	0.918457	-1.820000	-6.510000	1.610000	867.00	-0.19	-0.07
1.42	0.25	1.50	1.00	2.00	0.25	1.50	0.50	0.00	1.00	1.25	0.50	0.00	0.50	0.75	1.25	0.50	-0.360840	-0.007324	1.365234	-10.500000	-111.160004	42.980000	160.00	-0.01	-0.06	14.50	10.75	8.25	9.00	3.25	7.00	1.75	2.50	1.50	1.75	2.50	1.75	1.25	0.75	0.75	0.50	-0.270020	0.086426	0.916016	-1.470000	-6.300000	1.610000	869.00	-0.19	-0.07
1.43	1.25	1.50	1.00	1.75	0.25	1.50	0.50	0.50	0.75	1.00	0.75	0.00	0.50	0.50	1.25	0.25	-0.424316	-0.015137	1.327148	-7.420000	-118.580002	43.330002	170.00	-0.05	-0.07	14.25	10.50	8.50	9.00	3.00	7.00	1.75	2.50	1.50	1.50	2.75	1.50	1.50	0.75	0.75	0.75	-0.265137	0.089355	0.914062	-1.330000	-6.090000	1.470000	864.00	-0.19	-0.07
1.44	0.75	1.50	1.25	1.50	0.25	1.25	0.25	0.75	0.75	1.00	0.50	0.00	0.25	0.75	1.25	0.50	-0.488770	-0.020996	1.216309	-8.120000	-126.000000	41.509998	159.00	-0.03	-0.08	14.00	10.00	8.25	8.75	3.00	7.00	1.50	2.50	1.75	1.75	2.75	2.00	1.50	0.75	0.75	0.75	-0.268555	0.087891	0.914551	-1.260000	-5.810000	1.400000	858.00	-0.19	-0.07
1.45	0.75	1.50	1.00	1.50	0.25	1.00	0.25	0.75	0.75	1.25	0.75	0.00	0.50	0.75	1.00	0.75	-0.563965	-0.034668	1.060059	-12.390000	-129.220001	37.869999	160.00	-0.01	-0.08	14.00	10.00	8.25	8.75	3.25	7.00	1.75	2.50	1.50	1.75	2.75	2.00	1.75	1.25	1.00	1.00	-0.273926	0.089355	0.920410	-0.980000	-5.670000	1.400000	874.00	-0.18	-0.07
1.46	1.00	1.50	1.25	1.50	0.25	1.50	0.50	1.00	0.50	1.25	0.75	0.00	0.75	1.25	1.00	0.75	-0.622559	-0.029785	0.911621	-16.170000	-127.050003	32.200001	186.00	-0.02	-0.09	13.50	9.75	8.25	8.50	3.25	6.75	1.75	2.50	1.50	2.00	2.50	1.75	1.50	1.25	1.50	0.75	-0.270508	0.090332	0.917969	-0.630000	-5.600000	1.400000	857.00	-0.17	-0.07
1.47	0.75	1.75	1.25	1.75	0.25	1.25	0.50	0.50	0.50	1.25	0.50	0.00	0.75	0.75	1.00	0.50	-0.684082	-0.024414	0.811035	-16.309999	-120.610001	25.270000	167.00	-0.04	-0.08	13.50	9.50	8.25	8.50	3.25	7.00	1.75	2.75	1.50	1.75	2.75	2.25	1.75	1.25	1.00	0.75	-0.277344	0.088379	0.915527	-0.420000	-5.530000	1.470000	865.00	-0.17	-0.07
1.48	0.25	1.75	1.50	1.50	0.25	1.75	0.25	0.50	0.75	1.25	0.50	0.00	0.75	0.50	1.00	0.75	-0.725586	-0.045898	0.757812	-13.650000	-111.860001	17.219999	165.00	-0.03	-0.10	13.25	9.25	8.25	8.50	3.25	7.25	1.75	2.75	1.50	2.00	3.00	2.25	1.75	1.50	1.00	1.00	-0.270996	0.087891	0.911133	-0.350000	-5.460000	1.330000	873.00	-0.17	-0.07
1.49	0.75	1.50	1.25	1.50	0.25	1.00	0.25	0.75	0.75	1.25	0.75	0.00	0.50	0.75	1.25	1.00	-0.757812	-0.059082	0.729980	-10.850000	-103.459999	8.680000	168.00	-0.01	-0.08	12.75	9.00	8.25	8.50	3.25	7.00	1.75	2.75	1.50	2.00	3.00	2.00	2.00	1.25	1.00	0.75	-0.270996	0.087891	0.911133	-0.350000	-5.460000	1.330000	856.00	-0.17	-0.07
1.50	1.25	1.50	1.00	1.50	0.25	1.00	0.50	0.75	0.50	1.25	0.50	0.00	0.25	1.00	1.00	0.75	-0.790039	-0.069824	0.700195	-8.050000	-95.970001	1.260000	164.00	-0.03	-0.06	13.00	9.00	8.25	8.25	3.50	7.00	1.75	3.00	1.75	2.00	3.00	2.25	2.25	1.25	1.25	0.75	-0.266602	0.090820	0.914551	-0.350000	-5.250000	1.260000	876.00	-0.16	-0.07
1.51	0.75	1.25	1.25	1.75	0.25	0.75	0.50	0.50	0.50	1.00	0.50	0.25	1.00	1.00	1.25	0.50	-0.859375	-0.150879	0.566406	-9.310000	-78.190002	-10.780000	163.00	-0.01	-0.08	12.25	8.50	8.00	8.25	3.50	7.00	1.75	3.00	1.75	2.00	3.25	2.50	2.25	1.50	1.25	1.00	-0.266602	0.094727	0.914062	-0.350000	-4.200000	1.050000	869.00	-0.15	-0.08
1.52	1.00	1.75	1.00	1.50	0.25	1.25	0.50	0.75	0.50	1.25	0.50	0.25	0.00	0.75	0.75	0.75	-0.891113	-0.146973	0.511719	-15.190001	-65.870003	-16.309999	162.00	-0.05	-0.07	12.00	8.25	8.00	8.00	3.50	7.25	2.00	3.25	2.00	2.00	3.50	2.75	2.50	2.00	1.75	1.00	-0.269043	0.088867	0.902344	-0.420000	-3.640000	0.700000	896.00	-0.13	-0.08
1.53	0.50	1.75	1.25	1.50	0.25	1.25	0.25	0.50	0.50	1.25	0.50	0.00	0.50	0.75	1.00	0.75	-0.909180	-0.138672	0.445312	-20.790001	-52.849998	-20.719999	155.00	-0.03	-0.09	11.50	7.75	8.00	7.75	4.00	7.25	2.00	3.75	2.25	2.25	3.50	2.50	2.75	1.50	1.75	1.00	-0.271973	0.096680	0.914062	-0.420000	-2.520000	0.420000	898.00	-0.13	-0.08
1.54	1.00	1.50	1.50	2.00	0.25	1.00	0.50	0.25	0.50	1.25	1.00	0.50	0.50	1.00	1.25	0.50	-0.917969	-0.110840	0.424316	-24.780001	-38.500000	-24.080000	181.00	-0.02	-0.06	11.00	7.25	7.75	7.75	3.75	7.25	2.25	3.75	2.75	2.50	3.75	3.00	3.00	2.00	1.75	1.00	-0.271484	0.090332	0.909180	0.070000	-1.330000	0.280000	912.00	-0.11	-0.08
1.55	0.75	1.50	1.50	2.00	0.25	1.25	0.50	0.75	0.75	1.25	0.75	0.00	0.75	1.00	1.25	0.50	-0.907227	-0.076172	0.443359	-28.280001	-24.360001	-25.969999	188.00	-0.02	-0.08	10.50	6.75	7.50	7.50	4.00	7.25	2.25	4.25	3.00	2.50	4.00	3.25	3.25	2.00	1.50	1.00	-0.276855	0.089355	0.920410	0.980000	-0.350000	0.630000	916.00	-0.10	-0.08
1.56	0.75	1.50	1.25	1.25	0.25	1.75	0.50	0.75	0.50	1.25	0.75	0.25	0.50	1.00	0.75	0.50	-0.893066	-0.076660	0.464355	-34.299999	-10.430000	-26.740000	171.00	-0.03	-0.08	9.75	6.25	7.50	7.00	4.00	7.25	2.50	4.75	3.25	3.00	4.75	3.50	3.50	2.00	1.75	1.25	-0.264648	0.094727	0.913574	1.820000	0.630000	0.700000	938.00	-0.08	-0.08
1.57	0.75	1.50	1.00	1.50	0.25	1.25	0.50	0.75	0.75	1.25	0.50	0.00	0.50	1.25	1.00	0.75	-0.861328	-0.080566	0.480469	-45.290001	2.730000	-27.090000	170.00	-0.01	-0.07	9.25	5.75	7.50	7.00	4.25	7.25	2.75	5.00	4.00	3.25	5.25	4.00	4.00	2.75	2.00	1.25	-0.276367	0.104004	0.919434	2.100000	1.960000	0.630000	982.00	-0.06	-0.08
1.58	0.75	1.25	1.25	1.75	0.25	1.25	0.50	0.50	0.75	1.25	0.75	0.00	0.50	1.25	1.25	0.50	-0.845703	-0.094238	0.521484	-59.920002	14.980000	-27.650000	174.00	-0.00	-0.06	8.75	5.25	7.00	6.50	4.00	7.25	3.00	5.00	4.25	3.25	5.50	4.75	4.25	2.75	2.25	1.50	-0.282227	0.104004	0.920898	2.450000	3.710000	0.490000	982.00	-0.05	-0.08
1.59	0.75	1.50	1.25	1.50	0.25	0.75	0.50	0.50	0.75	1.00	0.50	0.00	0.50	0.75	1.25	0.50	-0.816406	-0.068359	0.511719	-73.989998	26.809999	-28.559999	155.00	-0.02	-0.06	8.00	4.50	7.00	6.25	3.75	7.25	3.25	5.00	4.75	3.50	6.00	5.00	4.75	3.50	2.50	1.75	-0.283203	0.104980	0.922852	2.660000	5.600000	0.070000	1000.00	-0.03	-0.08
1.60	1.25	1.50	1.25	1.50	0.25	1.50	0.50	0.50	0.50	1.00	0.75	0.25	0.75	1.00	1.25	0.50	-0.792969	0.010254	0.509277	-82.320000	38.849998	-28.840000	179.00	-0.03	-0.08	7.25	3.50	6.25	5.50	3.75	7.00	3.50	5.25	5.00	4.00	6.25	5.50	5.00	3.50	2.50	1.50	-0.291992	0.096191	0.918945	2.660000	7.630000	-0.350000	986.00	-0.01	-0.08
1.61	1.25	1.50	1.50	1.50	0.25	1.25	0.50	0.50	0.75	1.25	0.50	0.00	0.25	0.75	0.75	0.50	-0.785156	0.087891	0.503418	-80.500000	51.029999	-27.230000	166.00	-0.06	-0.05	6.50	2.75	5.75	5.00	3.50	6.75	3.50	5.25	5.25	5.00	6.50	6.00	5.00	3.75	3.00	1.50	-0.294434	0.111328	0.918457	2.520000	9.730000	-1.050000	983.00	0.01	-0.08
1.62	0.75	1.75	1.00	1.75	0.25	1.50	0.50	0.75	0.50	1.50	0.75	0.25	0.50	1.00	1.00	0.50	-0.793457	0.156738	0.512695	-70.769997	63.700001	-23.170000	180.00	-0.02	-0.09	5.75	2.25	5.50	4.50	3.00	6.50	3.75	5.25	5.75	5.25	7.00	6.25	5.50	4.00	3.25	1.75	-0.294434	0.101074	0.914551	2.520000	11.900000	-1.750000	986.00	0.03	-0.08
1.63	0.75	1.50	1.00	1.25	0.25	1.00	0.50	1.25	0.25	1.25	0.75	0.00	0.50	1.00	1.00	0.75	-0.813965	0.183594	0.551758	-59.709999	76.650002	-17.920000	165.00	-0.01	-0.10	5.25	1.75	5.00	3.75	2.75	6.25	4.00	5.25	6.25	5.75	7.50	6.75	5.75	4.50	3.25	2.00	-0.293945	0.112793	0.915039	2.940000	13.860000	-2.800000	992.00	0.05	-0.07
1.64	0.75	1.50	1.00	1.25	0.25	1.25	0.50	0.75	0.75	1.25	0.75	0.00	0.25	1.00	1.25	0.25	-0.843750	0.139160	0.562012	-54.320000	88.900002	-13.090000	164.00	-0.00	-0.06	5.00	1.75	4.25	3.25	2.50	5.75	4.25	5.25	7.00	6.50	7.75	7.00	6.00	4.25	3.75	2.25	-0.297852	0.114258	0.921875	2.520000	16.450001	-3.430000	1002.00	0.07	-0.07
1.65	1.00	1.75	1.50	1.75	0.25	1.50	0.50	0.50	0.50	1.25	0.75	0.00	0.25	1.00	1.00	0.50	-0.867188	0.117188	0.595215	-55.020000	98.840004	-10.360000	177.00	-0.05	-0.06	3.25	1.50	3.25	2.75	1.75	5.25	4.50	5.25	7.50	6.75	8.00	7.50	6.25	5.00	3.25	2.00	-0.299316	0.113770	0.919922	-0.770000	24.219999	-5.530000	968.00	0.10	-0.07
1.66	1.00	2.50	1.50	2.25	0.25	1.50	0.50	1.00	0.50	1.25	0.50	0.00	0.00	1.00	0.75	0.25	2.129395	-0.519531	2.046875	48.160000	164.220001	-10.920000	190.00	-0.09	-0.08	2.25	1.25	2.75	2.25	1.50	4.25	4.50	5.00	8.00	7.25	8.25	7.50	6.25	5.25	3.75	2.25	-0.302734	0.113281	0.931641	-1.190000	29.400000	-7.490000	947.00	0.12	-0.06
1.67	2.50	2.75	1.75	2.25	0.25	1.00	0.50	0.75	0.75	1.25	0.50	0.00	0.50	1.00	1.00	0.25	0.739258	0.008301	1.362305	15.400000	76.930000	-33.389999	216.00	-0.11	-0.05	2.00	1.00	1.75	2.00	1.25	3.50	4.75	4.75	8.25	7.50	8.50	7.75	6.25	5.25	4.50	2.25	-0.322266	0.131348	0.923828	1.680000	38.570000	-9.310000	934.00	0.14	-0.06
1.68	3.75	3.75	2.00	2.50	0.25	1.00	0.50	0.00	1.00	1.25	0.75	0.00	1.25	1.00	0.75	0.25	0.012207	0.216309	-0.578125	35.349998	62.860001	-35.910000	247.00	-0.14	-0.04	2.00	1.00	1.75	1.50	0.75	2.50	4.75	4.25	8.25	7.75	8.75	7.75	6.50	5.50	4.00	2.25	-0.328613	0.092773	0.983398	6.230000	51.660000	-10.220000	904.00	0.15	-0.05
1.69	4.00	4.00	2.00	2.25	0.25	0.75	0.50	0.00	0.50	1.25	0.50	0.00	0.50	1.00	1.00	0.25	-0.149902	0.277344	-0.125977	43.540001	151.690002	-22.820000	231.00	-0.16	-0.03	1.25	0.50	0.75	1.25	0.50	2.00	4.50	3.50	8.75	7.75	9.00	8.00	6.25	5.25	3.75	2.25	-0.339355	0.096191	0.940918	8.540000	67.059998	-8.610000	850.00	0.17	-0.05
1.70	5.00	4.50	2.25	2.50	0.25	0.25	0.50	0.00	0.50	1.50	0.75	0.25	0.75	1.00	0.75	0.50	-0.221191	0.467773	1.681641	46.900002	200.339996	-5.040000	259.00	-0.17	-0.03	0.50	0.50	0.75	1.00	0.75	1.25	4.50	3.25	8.50	8.00	9.00	8.00	6.50	5.75	4.00	2.50	-0.362793	0.085449	0.971680	8.890000	81.199997	-6.650000	838.00	0.19	-0.05
1.71	5.50	5.00	2.50	2.50	0.25	1.00	0.50	0.25	0.75	1.25	0.50	0.00	0.00	0.75	1.25	0.50	-0.478027	0.128906	2.015625	49.840000	160.369995	8.120000	279.00	-0.18	-0.02	0.75	0.75	1.50	1.25	0.50	1.00	4.50	2.75	8.75	8.00	9.25	8.25	6.25	5.75	4.00	2.25	-0.370117	0.089355	0.983398	7.490000	96.180000	-4.340000	848.00	0.18	-0.04
1.72	6.00	5.50	2.50	2.75	0.25	0.50	0.50	0.50	0.75	1.25	0.75	0.25	0.75	1.25	1.25	0.50	-0.491211	-0.181152	1.274902	42.070000	125.370003	5.530000	311.00	-0.17	-0.04	1.50	0.50	0.75	1.25	0.50	0.75	4.25	2.25	8.75	8.25	9.50	8.00	6.25	5.75	4.50	2.50	-0.385742	0.100098	0.979492	5.320000	111.860001	-2.660000	838.00	0.19	-0.04
1.73	7.50	5.75	2.25	3.25	0.25	0.75	0.50	0.50	0.50	1.50	0.50	0.00	0.25	1.25	1.00	0.50	-0.342285	-0.163086	1.173340	33.529999	124.040001	-5.460000	324.00	-0.20	-0.03	0.25	0.25	0.50	1.00	0.50	0.75	4.00	2.00	9.00	8.25	9.50	8.00	6.00	6.00	4.00	2.75	-0.416504	0.099121	0.985840	3.780000	125.160004	-1.680000	804.00	0.21	-0.03
1.74	8.50	6.75	3.00	3.50	0.25	0.50	0.50	0.75	0.75	1.50	0.75	0.00	0.75	0.75	0.75	0.25	-0.280273	0.040039	1.349121	31.570000	118.020004	-11.760000	364.00	-0.22	-0.03	0.25	0.50	0.25	0.75	0.25	0.50	3.75	1.50	8.75	8.25	9.50	8.00	6.00	6.00	3.75	2.50	-0.432129	0.114258	0.982910	3.290000	136.289993	-1.750000	771.00	0.21	-0.03
1.75	8.75	7.25	3.00	3.75	0.50	0.50	0.50	0.25	0.75	1.00	0.50	0.00	0.00	1.00	1.00	0.50	-0.329590	0.172363	1.251465	33.180000	104.160004	-9.240000	361.00	-0.24	-0.02	0.25	0.25	0.25	0.75	0.25	0.25	3.50	1.75	8.75	8.25	9.25	8.00	5.75	6.00	3.75	2.50	-0.446777	0.122559	0.981445	3.150000	147.490005	-2.310000	759.00	0.22	-0.03
1.76	9.75	8.00	3.00	4.25	0.25	0.75	0.50	0.75	0.75	1.50	0.75	0.00	0.00	0.75	1.00	0.50	-0.363770	0.227051	1.165039	33.459999	96.389999	-2.030000	404.00	-0.23	-0.03	0.00	0.00	0.50	0.75	0.00	0.50	3.50	1.25	8.75	8.25	9.50	8.00	5.50	6.00	3.50	2.75	-0.479004	0.120605	0.973633	3.010000	158.339996	-3.500000	747.00	0.22	-0.03
1.77	10.50	8.25	3.75	4.00	0.25	0.50	0.50	0.50	0.50	1.75	0.75	0.00	0.25	1.25	1.00	0.50	-0.383789	0.125977	1.233887	28.139999	90.930000	2.730000	421.00	-0.23	-0.02	0.00	0.25	0.25	0.75	0.25	0.25	3.25	0.75	8.25	8.25	9.50	7.75	5.25	6.25	3.25	2.50	-0.513184	0.122070	0.975586	2.170000	167.860001	-5.040000	717.00	0.23	-0.02
1.78	11.25	9.00	4.25	4.75	0.25	0.75	0.50	0.00	1.00	1.25	0.75	0.00	0.25	0.50	1.25	0.50	-0.356445	0.048340	1.203125	20.299999	81.620003	3.850000	447.00	-0.25	-0.02	0.00	0.25	0.25	0.25	0.00	0.00	3.00	0.75	8.00	8.00	9.25	7.75	5.25	6.25	3.25	2.50	-0.538574	0.128418	0.958008	2.590000	176.889999	-6.790000	689.00	0.23	-0.02
1.79	11.75	9.25	3.75	5.00	0.25	0.75	0.50	0.25	0.75	1.50	0.75	0.00	0.00	0.75	0.75	0.50	-0.319824	0.007324	1.060547	15.750000	73.150002	3.780000	450.00	-0.26	-0.02	0.00	0.00	0.00	0.75	0.00	0.00	2.75	0.75	8.00	7.75	9.00	7.50	5.00	6.25	2.75	2.50	-0.571289	0.117676	0.974121	4.550000	185.779999	-7.910000	667.00	0.23	-0.02
1.80	12.25	9.75	4.25	5.25	0.50	1.50	0.50	0.75	0.75	1.25	0.75	0.25	0.75	1.00	1.00	0.75	-0.270020	0.042480	0.926270	13.370000	77.910004	4.900000	509.00	-0.24	-0.04	0.00	0.00	0.00	0.50	0.00	0.25	2.50	0.50	7.50	7.75	8.75	7.25	4.25	6.25	2.00	2.50	-0.607422	0.151367	1.041992	5.740000	195.229996	-8.890000	627.00	0.24	-0.02
1.81	13.00	10.25	4.25	5.25	0.25	1.00	0.50	0.00	0.50	1.50	0.75	0.00	0.00	0.75	1.50	0.50	-0.363770	-0.024902	1.080078	11.550000	81.480003	3.570000	490.00	-0.26	-0.02	0.00	0.00	0.00	0.25	0.00	0.00	2.25	0.25	7.00	7.25	8.25	6.75	4.00	6.25	2.00	2.75	-0.698242	0.191895	1.149414	7.840000	212.800003	-14.490000	583.00	0.24	-0.02
1.82	13.25	11.00	5.00	6.00	0.50	1.75	0.50	0.75	0.75	1.25	0.75	0.00	0.25	1.25	1.50	0.50	-0.332031	0.021973	1.006348	12.670000	78.260002	2.380000	557.00	-0.25	-0.04	0.00	0.00	0.00	0.25	0.00	0.00	1.75	0.00	6.25	6.75	8.25	6.50	3.75	6.00	2.25	2.75	-0.815918	0.216309	1.239258	10.570000	219.660004	-17.710001	547.00	0.25	-0.02
1.83	14.00	11.75	5.25	6.00	0.50	1.25	0.50	1.00	1.00	1.50	0.75	0.25	0.75	1.00	1.00	0.50	-0.553711	0.130859	1.374512	36.259998	28.070000	1.260000	582.00	-0.25	-0.04	0.00	0.00	0.00	0.00	0.00	0.00	1.50	0.00	5.75	6.00	7.50	6.00	3.25	5.75	1.25	2.50	-0.915039	0.249023	1.257324	14.070000	225.190002	-19.809999	485.00	0.25	-0.02
1.84	15.25	12.25	5.75	6.75	0.75	2.50	0.75	1.25	1.00	1.75	1.00	0.25	1.00	1.25	1.25	0.50	-0.302734	0.084473	0.882324	24.780001	7.210000	0.910000	663.00	-0.24	-0.05	0.00	0.00	0.00	0.00	0.00	0.00	1.25	0.25	5.50	5.50	7.00	5.50	3.00	6.00	1.25	2.25	-0.987793	0.270508	1.328613	21.629999	229.740005	-20.160000	460.00	0.25	-0.02
1.85	16.00	13.00	6.00	7.50	0.75	2.50	0.75	1.75	1.25	1.75	1.00	0.50	0.25	1.50	1.00	0.75	-0.336914	0.035645	0.997559	10.850000	3.290000	1.750000	703.00	-0.24	-0.05	0.00	0.00	0.00	0.25	0.00	0.00	1.00	0.25	3.75	5.25	6.00	5.00	2.50	5.50	1.25	2.00	-0.993164	0.202637	1.371582	29.400000	235.059998	-20.930000	398.00	0.25	-0.03
1.86	16.00	13.25	6.50	7.75	0.75	2.25	0.75	1.50	1.00	2.00	1.00	0.25	0.25	1.50	1.50	0.75	-0.297363	0.018555	0.918945	5.810000	2.170000	1.890000	710.00	-0.24	-0.04	0.00	0.00	0.00	0.25	0.00	0.00	1.00	0.00	3.00	4.50	5.75	4.75	2.25	5.25	1.00	1.75	-0.967285	0.213379	1.308105	32.060001	241.220001	-22.680000	356.00	0.25	-0.03
1.87	17.00	14.00	7.00	8.25	0.75	3.25	0.75	0.75	1.00	2.00	1.25	0.50	0.50	1.25	1.25	0.75	-0.301270	0.036621	0.947754	5.390000	2.380000	2.240000	747.00	-0.25	-0.04	0.00	0.00	0.00	0.25	0.00	0.00	0.50	0.00	2.00	4.00	5.00	4.50	2.50	4.50	0.75	1.25	-1.076172	0.228027	1.278809	37.380001	248.149994	-22.190001	301.00	0.25	-0.06
1.88	16.75	14.25	7.25	8.25	0.75	3.00	1.00	1.50	1.50	2.00	1.25	0.75	1.25	1.75	1.25	0.75	-0.303223	0.049316	0.934570	5.110000	2.240000	2.730000	788.00	-0.22	-0.05	0.00	0.00	0.00	0.00	0.00	0.00	0.25	0.00	2.50	3.75	5.25	3.75	2.00	4.00	0.75	1.50	-0.968750	0.178711	1.430664	46.689999	252.279999	-21.840000	283.00	0.26	-0.05
1.89	17.75	14.50	7.50	8.75	0.75	3.25	1.00	1.75	1.25	2.00	1.25	0.75	0.75	1.75	1.50	1.00	-0.299316	0.048340	0.924316	4.550000	1.820000	3.150000	817.00	-0.23	-0.05	0.00	0.25	0.00	0.25	0.00	0.00	0.25	0.00	1.75	3.25	4.25	3.50	1.75	3.00	0.75	0.75	-1.090332	0.231934	1.417480	52.150002	251.020004	-21.280001	238.00	0.24	-0.06
1.90	18.00	15.25	7.75	9.00	1.00	3.25	1.00	1.25	1.25	2.00	1.50	1.00	1.00	1.50	1.50	1.00	-0.297363	0.056152	0.935059	4.270000	1.330000	3.150000	835.00	-0.23	-0.05	0.00	0.00	0.00	0.25	0.00	0.25	0.00	0.00	1.25	3.00	3.50	2.50	1.50	2.50	0.00	0.75	-0.979004	0.201660	1.374023	57.959999	251.720001	-21.700001	184.00	0.24	-0.07
1.91	18.75	16.00	8.00	9.25	1.00	4.00	1.00	1.75	1.25	2.00	1.50	0.75	1.25	1.50	1.50	1.00	-0.300781	0.052246	0.931641	3.640000	0.910000	3.080000	878.00	-0.23	-0.05	0.00	0.00	0.00	0.25	0.00	0.00	0.00	0.00	1.50	2.00	3.50	2.50	1.50	2.25	0.25	0.50	-0.831543	0.233887	1.460449	63.279999	248.639999	-25.270000	172.00	0.24	-0.07
1.92	19.25	16.25	8.25	9.25	1.00	4.00	1.00	2.25	1.25	1.75	1.50	1.00	1.00	1.75	1.75	0.75	-0.299805	0.054199	0.933594	2.870000	0.630000	3.010000	901.00	-0.23	-0.06	0.00	0.00	0.00	0.25	0.00	0.00	0.00	0.00	0.75	2.25	2.75	2.00	0.75	0.75	0.25	0.50	-0.594238	0.263184	1.312988	68.809998	244.720001	-30.870001	124.00	0.23	-0.09
1.93	19.25	16.75	8.75	9.75	1.00	4.00	1.00	2.25	1.25	2.00	1.50	0.75	0.75	1.75	2.00	1.25	-0.299316	0.062988	0.937988	1.960000	0.420000	2.590000	923.00	-0.23	-0.06	0.25	0.00	0.00	0.50	0.00	0.00	0.00	0.25	0.50	2.00	2.25	1.50	1.00	0.50	0.25	0.25	-0.368652	0.249023	1.159668	82.529999	231.350006	-35.560001	114.00	0.18	-0.11
1.94	19.75	17.50	8.50	9.75	1.00	5.00	1.00	2.50	1.25	2.00	1.50	1.25	1.25	2.25	1.25	1.25	-0.296387	0.057617	0.936523	-0.210000	0.070000	1.750000	959.00	-0.23	-0.06	0.50	0.00	0.00	0.25	0.00	0.25	0.00	0.00	0.00	1.50	1.50	1.50	0.50	0.00	0.50	0.25	-0.258789	0.188477	0.972168	96.389999	206.850006	-39.830002	82.00	0.15	-0.13
1.95	20.50	17.75	8.75	10.00	1.00	5.00	1.00	2.25	1.50	2.00	1.50	1.00	1.00	2.00	1.75	1.00	-0.296387	0.057617	0.936523	-0.210000	0.070000	1.750000	974.00	-0.23	-0.06	0.50	0.00	0.50	0.50	0.00	0.25	0.00	0.00	0.00	1.25	1.50	1.00	0.75	0.00	0.25	0.25	0.718750	-0.358887	2.500977	63.700001	111.300003	-63.840000	82.00	0.09	-0.13
1.96	21.25	17.75	8.75	10.00	1.00	5.25	1.00	2.25	1.50	2.00	1.50	0.75	1.25	1.75	1.75	1.00	-0.291504	0.061523	0.936523	-1.960000	0.630000	1.260000	983.00	-0.23	-0.06	0.50	0.00	0.00	0.25	0.00	0.25	0.25	0.00	0.25	1.50	1.25	1.00	0.25	0.00	0.00	0.50	0.721191	0.050781	3.046875	12.950000	1.960000	-69.510002	74.00	0.13	-0.07
1.97	21.00	18.00	9.25	10.50	1.00	5.00	1.00	2.00	1.25	2.00	1.50	1.00	1.00	2.00	2.25	1.00	-0.288086	0.051270	0.937988	-2.450000	0.980000	0.980000	994.00	-0.23	-0.06	0.25	0.00	0.00	0.25	0.00	0.25	0.25	0.00	1.00	1.00	1.25	0.50	0.00	0.00	0.00	0.25	1.259277	-0.093262	1.859375	-22.610001	-81.269997	-66.989998	66.00	0.15	0.01
1.98	21.25	18.00	9.25	10.50	1.00	5.00	1.25	2.50	1.50	2.00	1.50	1.00	1.25	2.00	2.00	1.25	-0.291504	0.052246	0.931641	-2.730000	1.190000	0.770000	1015.00	-0.23	-0.06	0.00	0.00	0.00	0.25	0.00	0.00	0.25	0.00	0.25	1.00	1.25	0.75	0.25	0.00	0.25	0.50	0.842773	0.119629	1.379395	-50.049999	-132.720001	-65.099998	58.00	0.20	-0.08
1.99	21.00	18.25	9.25	10.50	1.00	5.50	1.25	3.00	1.50	2.00	1.75	1.00	0.75	1.75	2.25	1.25	-0.284668	0.052734	0.930664	-2.590000	1.330000	0.700000	1029.00	-0.22	-0.06	0.00	0.00	0.00	0.00	0.00	0.00	0.25	0.00	0.00	1.00	1.00	0.50	0.25	0.00	0.50	0.25	0.782227	0.130371	1.098145	-53.549999	-155.889999	-63.560001	46.00	0.00	0.00
2.00	21.25	18.25	9.25	10.50	1.00	5.25	1.25	2.50	1.50	2.00	1.75	1.00	1.25	1.50	2.25	1.50	-0.284180	0.052734	0.929688	-2.380000	1.750000	0.560000	1024.00	-0.22	-0.06	0.00	0.00	0.25	0.25	0.00	0.00	0.25	0.00	0.50	0.75	0.50	0.75	0.00	0.00	0.00	0.25	0.755859	0.182617	0.917480	-39.130001	-167.089996	-62.580002	46.00	0.00	0.00
2.01	21.00	18.50	9.25	10.50	1.00	5.00	1.25	2.50	1.25	2.25	1.50	1.00	1.50	2.00	2.25	1.25	-0.285645	0.052734	0.937988	-1.820000	1.890000	0.700000	1022.00	-0.22	-0.06	0.25	0.00	0.00	0.25	0.00	0.25	0.25	0.00	0.00	0.75	0.75	0.50	0.00	0.00	0.25	0.25	0.657227	0.158691	1.004395	-19.950001	-176.820007	-62.650002	44.00	0.00	0.00
2.02	20.75	18.00	9.25	10.75	1.25	5.50	1.50	1.25	1.25	2.00	1.50	1.00	1.25	1.50	2.00	1.00	-0.288574	0.056152	0.931641	-1.470000	1.960000	0.770000	993.00	-0.23	-0.05	0.25	0.25	0.50	0.25	0.00	0.00	0.25	0.00	0.25	0.75	0.75	0.50	0.25	0.00	0.00	0.00	0.580078	0.081543	1.206543	-5.390000	-193.270004	-62.650002	52.00	0.05	-0.03
2.03	20.25	18.00	9.00	10.50	1.25	5.25	1.25	2.50	1.25	2.00	1.50	1.00	1.00	1.50	2.00	1.50	-0.297852	0.052246	0.934570	-1.610000	2.100000	0.560000	996.00	-0.23	-0.06	0.50	0.00	0.50	0.25	0.00	0.00	0.25	0.00	0.00	0.75	0.75	0.75	0.00	0.25	0.25	0.50	0.509766	-0.000977	1.349121	-2.660000	-218.750000	-62.650002	58.00	0.09	-0.04
2.04	20.25	17.75	9.25	10.50	1.25	5.25	1.50	2.50	1.50	2.25	1.50	1.25	1.50	2.00	2.25	1.50	-0.288086	0.056641	0.938965	-2.030000	2.450000	0.140000	1025.00	-0.21	-0.06	0.00	0.00	0.00	0.50	0.00	0.00	0.25	0.00	0.00	1.00	0.50	0.50	0.00	0.00	0.00	0.50	0.410156	-0.032715	1.388672	-11.550000	-247.869995	-62.369999	39.00	0.00	0.00
2.05	19.75	17.75	9.25	10.25	1.25	5.50	1.50	2.75	1.50	2.25	1.75	1.00	1.75	2.00	2.00	1.25	-0.289062	0.060059	0.936523	-2.170000	2.380000	-0.140000	1021.00	-0.21	-0.06	0.50	0.00	0.25	0.25	0.00	0.00	0.25	0.00	0.00	1.00	0.75	0.50	0.00	0.00	0.00	0.00	0.303223	-0.030273	1.329102	-23.100000	-274.329987	-61.670002	45.00	0.00	0.00
2.06	20.00	17.25	9.25	10.25	1.25	5.50	1.50	2.75	1.25	2.25	1.50	1.00	1.50	1.75	2.25	1.00	-0.291504	0.060059	0.929199	-2.380000	2.520000	-0.350000	1008.00	-0.22	-0.06	0.00	0.00	0.50	0.00	0.00	0.25	0.25	0.25	0.00	1.00	0.75	0.25	0.25	0.00	0.00	0.25	0.169922	0.013672	1.229004	-28.630001	-293.860016	-60.830002	48.00	0.00	0.00
2.07	19.50	17.00	9.00	10.25	1.25	5.50	1.50	2.50	1.75	2.25	1.75	1.00	2.00	1.75	2.25	1.00	-0.289551	0.056641	0.931641	-2.660000	2.590000	-0.630000	1007.00	-0.21	-0.06	0.25	0.00	0.00	0.50	0.00	0.25	0.25	0.00	0.00	1.00	0.75	0.50	0.00	0.00	0.00	0.25	0.028809	0.044434	1.123535	-23.660000	-305.970001	-60.060001	47.00	0.00	0.00
2.08	19.00	16.75	9.00	10.25	1.25	5.25	1.50	2.75	1.50	2.50	1.75	1.25	1.25	1.75	2.25	1.25	-0.288574	0.055176	0.925293	-3.220000	2.870000	-0.910000	996.00	-0.21	-0.06	0.00	0.00	0.25	0.25	0.00	0.50	0.25	0.00	0.00	0.75	0.50	0.25	0.00	0.00	0.00	0.25	-0.130859	0.030762	1.018555	6.930000	-308.489990	-58.939999	38.00	0.00	0.00
2.09	18.75	16.25	9.00	10.00	1.25	5.25	1.75	2.75	1.50	2.25	1.75	1.25	1.25	2.25	2.25	1.25	-0.282227	0.056152	0.916992	-3.640000	3.290000	-1.120000	990.00	-0.20	-0.06	0.00	0.00	0.25	0.25	0.00	0.00	0.25	0.00	0.00	0.75	0.50	0.25	0.00	0.00	0.25	0.00	-0.130859	0.030762	1.018555	6.930000	-308.489990	-58.939999	33.00	0.00	0.00
2.10	18.75	16.25	9.00	10.00	1.25	5.25	1.75	3.00	1.75	2.25	1.75	1.25	2.00	2.25	2.00	1.00	-0.300781	0.050293	0.937988	-4.200000	3.710000	-1.470000	1002.00	-0.20	-0.06	0.00	0.00	0.25	0.50	0.00	0.25	0.25	0.00	0.25	0.75	0.50	0.25	0.00	0.00	0.00	0.25	-0.280273	-0.025879	1.159668	29.469999	-297.290009	-55.720001	42.00	0.00	0.00
2.11	17.75	16.00	9.00	9.75	1.25	5.50	2.00	3.00	1.75	2.25	1.75	1.00	1.25	2.00	2.25	1.25	-0.289062	0.048340	0.927734	-4.900000	4.480000	-1.540000	982.00	-0.20	-0.06	0.25	0.00	0.25	0.25	0.00	0.25	0.25	0.00	0.25	0.75	0.50	0.25	0.00	0.00	0.00	0.00	-0.370117	-0.051270	1.299316	37.099998	-291.690002	-53.619999	40.00	0.00	0.00
2.12	18.00	15.75	9.00	9.75	1.25	5.25	2.00	2.75	1.75	2.50	1.75	1.25	1.75	2.00	2.50	1.25	-0.287109	0.048340	0.923828	-5.810000	5.250000	-1.820000	989.00	-0.19	-0.06	0.00	0.00	0.25	0.50	0.00	0.00	0.25	0.00	0.00	0.25	0.25	0.00	0.00	0.00	0.00	0.25	-0.474121	-0.065918	1.422852	43.470001	-288.610016	-52.220001	22.00	0.00	0.00
2.13	17.75	15.25	9.00	9.75	1.25	5.25	2.25	2.75	1.75	2.50	1.75	1.25	2.25	2.00	1.75	1.50	-0.292480	0.049805	0.916992	-6.580000	5.880000	-1.960000	982.00	-0.19	-0.06	0.00	0.00	0.50	0.25	0.00	0.00	0.25	0.00	0.00	0.50	0.50	0.00	0.00	0.00	0.00	0.25	-0.609375	-0.056152	1.515137	48.090000	-286.860016	-50.959999	29.00	0.00	0.00
2.14	17.00	14.75	8.75	9.50	1.25	5.50	2.50	3.00	2.00	2.50	1.75	1.25	1.75	2.25	2.25	1.50	-0.294434	0.050293	0.929199	-7.350000	6.300000	-2.100000	981.00	-0.18	-0.06	0.00	0.00	0.25	0.00	0.00	0.00	0.25	0.25	0.00	0.50	0.75	0.00	0.00	0.00	0.25	0.00	-0.763184	-0.031250	1.559082	52.220001	-284.549988	-48.160000	31.00	0.00	0.00
2.15	17.50	14.75	9.00	9.50	1.50	5.25	2.50	2.50	2.00	2.75	1.75	1.25	1.75	2.75	2.50	1.25	-0.298828	0.053711	0.930176	-7.560000	6.440000	-2.100000	991.00	-0.18	-0.05	0.00	0.00	0.00	0.25	0.25	0.00	0.25	0.00	0.00	0.25	0.50	0.00	0.00	0.00	0.25	0.00	-0.873535	0.027832	1.583496	51.450001	-281.260010	-42.630001	24.00	0.00	0.00
2.16	17.25	14.50	9.00	9.25	1.50	5.25	2.75	2.75	2.50	2.75	2.00	1.50	2.25	2.50	2.25	1.25	-0.302246	0.046387	0.929199	-7.140000	6.160000	-1.960000	1005.00	-0.17	-0.05	0.00	0.00	0.00	0.00	0.00	0.25	0.25	0.00	0.25	0.50	0.00	0.00	0.00	0.00	0.25	0.00	-0.937500	0.072754	1.600586	45.220001	-276.220001	-33.599998	21.00	0.00	0.00
2.17	16.75	14.25	9.25	9.50	1.50	5.00	3.00	3.25	2.50	2.50	2.00	1.50	2.00	2.75	2.50	1.25	-0.298828	0.046875	0.928223	-6.720000	5.670000	-1.680000	1013.00	-0.17	-0.05	0.00	0.00	0.00	0.25	0.00	0.25	0.25	0.00	0.00	0.50	0.25	0.00	0.00	0.00	0.00	0.00	-0.969727	0.124023	1.589355	36.610001	-268.799988	-21.910000	20.00	0.00	0.00
2.18	16.50	14.00	9.00	9.25	1.50	5.25	3.25	2.75	3.00	2.75	1.75	1.50	2.25	2.75	2.50	1.50	-0.303711	0.038574	0.940918	-6.020000	5.110000	-1.540000	1011.00	-0.16	-0.05	0.00	0.00	0.00	0.25	0.00	0.00	0.25	0.00	0.00	0.50	0.25	0.00	0.00	0.00	0.50	0.25	-0.991211	0.161133	1.580078	29.540001	-259.140015	-9.170000	25.00	0.00	0.00
2.19	16.50	13.75	9.00	9.25	1.50	5.25	3.25	2.75	2.50	2.75	2.00	1.25	1.75	2.75	2.25	1.25	-0.301758	0.045898	0.928711	-5.600000	4.760000	-1.470000	990.00	-0.17	-0.05	0.50	0.00	0.00	0.25	0.00	0.00	0.25	0.00	0.00	0.25	0.25	0.00	0.00	0.25	0.00	0.25	-0.970703	0.194336	1.550293	25.549999	-248.009995	3.430000	24.00	0.00	0.00
2.20	16.25	13.75	9.00	9.25	1.75	5.50	3.50	2.75	2.75	2.75	2.25	1.25	2.00	2.75	2.75	1.50	-0.299805	0.043945	0.933594	-5.600000	4.690000	-1.470000	1016.00	-0.16	-0.05	0.00	0.00	0.00	0.50	0.25	0.25	0.25	0.00	0.25	0.50	0.25	0.00	0.00	0.00	0.00	0.25	-0.974121	0.208008	1.537598	23.940001	-235.619995	15.400000	32.00	0.00	0.00
2.21	15.75	13.25	9.00	9.25	1.75	5.25	3.75	3.00	3.25	2.75	2.25	1.75	1.75	3.00	3.00	1.75	-0.295410	0.050293	0.929199	-5.740000	4.830000	-1.540000	1029.00	-0.14	-0.04	0.00	0.25	0.00	0.50	0.00	0.25	0.25	0.00	0.50	0.25	0.25	0.00	0.00	0.00	0.25	0.25	-0.971191	0.198242	1.547363	23.379999	-222.949997	26.809999	36.00	0.00	0.00
2.22	15.50	12.75	8.75	9.00	1.75	5.00	4.00	3.00	3.50	3.25	2.25	1.50	2.25	3.00	3.00	1.50	-0.297852	0.042480	0.931641	-6.440000	5.600000	-1.750000	1025.00	-0.14	-0.04	0.00	0.00	0.50	0.25	0.00	0.00	0.25	0.00	0.00	0.50	0.00	0.00	0.00	0.00	0.25	0.25	-0.965332	0.187012	1.564941	22.190001	-210.910004	37.660000	25.00	0.00	0.00
2.23	16.00	12.50	8.75	9.00	1.75	5.25	4.50	3.00	3.75	3.50	2.25	1.50	1.75	3.00	3.00	1.25	-0.297852	0.042480	0.931641	-6.440000	5.600000	-1.750000	1041.00	-0.13	-0.03	0.00	0.00	0.00	0.25	0.00	0.00	0.25	0.00	0.00	0.25	0.00	0.00	0.00	0.00	0.00	0.00	-0.973633	0.166016	1.607910	20.650000	-200.970001	48.090000	11.00	0.00	0.00
2.24	15.25	12.50	9.00	8.75	2.00	5.25	4.75	3.00	4.00	3.50	2.50	1.50	2.25	3.25	3.00	1.50	-0.309570	0.044922	0.929688	-7.140000	6.160000	-1.890000	1056.00	-0.13	-0.03	0.00	0.00	0.00	0.25	0.00	0.25	0.25	0.00	0.00	0.50	0.25	0.00	0.00	0.00	0.00	0.00	-1.008789	0.140625	1.666992	19.530001	-193.199997	58.029999	20.00	0.00	0.00
2.25	15.25	12.00	8.75	8.75	2.00	5.25	5.00	3.25	4.25	3.50	2.25	1.75	2.50	3.25	3.00	1.75	-0.298828	0.047363	0.938477	-7.350000	6.580000	-1.890000	1064.00	-0.12	-0.03	0.00	0.00	0.00	0.25	0.00	0.00	0.25	0.00	0.25	0.50	0.25	0.00	0.00	0.00	0.00	0.00	-1.113281	0.146484	1.750000	19.389999	-189.419998	78.610001	21.00	0.00	0.00
2.26	14.50	11.75	8.75	8.50	2.00	5.25	5.25	2.50	5.25	4.00	2.75	1.75	2.25	4.00	3.50	1.75	-0.297363	0.044922	0.923828	-7.140000	7.280000	-1.750000	1079.00	-0.10	-0.02	0.00	0.00	0.00	0.50	0.00	0.25	0.25	0.00	0.25	0.25	0.25	0.25	0.00	0.00	0.00	0.25	-1.200684	0.182129	1.757324	27.230000	-193.339996	89.110001	29.00	0.00	0.00
2.27	14.25	11.25	8.75	8.50	2.50	5.00	5.50	3.25	5.50	4.00	2.75	2.00	2.25	3.75	3.50	1.50	-0.299316	0.033691	0.925293	-7.000000	8.120000	-1.750000	1095.00	-0.10	-0.02	0.00	0.00	0.00	0.25	0.00	0.00	0.25	0.00	0.00	0.50	0.25	0.00	0.00	0.00	0.00	0.25	-1.305176	0.181152	1.777832	40.599998	-200.550003	99.610001	19.00	0.00	0.00
2.28	13.50	10.75	8.50	8.25	2.50	5.25	5.75	3.50	6.00	4.25	3.00	2.00	2.50	4.00	3.50	1.75	-0.311523	0.034668	0.932617	-6.510000	9.030000	-1.470000	1106.00	-0.08	-0.02	0.00	0.00	0.25	0.25	0.00	0.25	0.25	0.00	0.00	0.25	0.25	0.00	0.00	0.00	0.00	0.00	-1.373535	0.101074	1.708984	55.160000	-212.869995	109.480003	21.00	0.00	0.00
2.29	12.75	10.25	8.50	8.25	2.50	5.25	5.75	3.50	6.75	4.75	3.25	2.00	3.00	4.25	3.50	1.75	-0.307617	0.033691	0.940918	-6.230000	9.800000	-1.050000	1120.00	-0.07	-0.02	0.00	0.00	0.00	0.25	0.00	0.25	0.25	0.00	0.00	0.25	0.25	0.00	0.00	0.00	0.00	0.25	-1.464844	0.037109	1.604004	77.840004	-230.229996	124.250000	19.00	0.00	0.00
2.30	12.25	9.75	8.25	8.00	2.50	5.00	6.00	3.50	6.75	5.25	3.25	2.25	2.50	4.50	4.00	1.75	-0.304688	0.031738	0.930664	-5.880000	10.780000	-0.910000	1116.00	-0.06	-0.02	0.00	0.00	0.00	0.25	0.00	0.50	0.25	0.00	0.00	0.25	0.00	0.00	0.00	0.00	0.00	0.25	-1.726074	-0.115723	1.358887	97.930000	-246.470001	139.160004	19.00	0.00	0.00
2.31	11.00	9.25	8.25	7.75	2.25	5.00	6.25	3.00	7.50	5.50	3.50	2.50	2.75	5.00	3.50	1.75	-0.312012	0.035156	0.921875	-6.230000	12.040000	-0.910000	1107.00	-0.05	-0.01	0.00	0.00	0.00	0.25	0.00	0.25	0.25	0.00	0.00	0.50	0.25	0.00	0.00	0.25	0.00	0.25	-2.072266	-0.234863	0.986328	91.349998	-255.850006	144.619995	25.00	0.00	0.00
2.32	10.25	8.50	8.00	7.50	2.75	5.00	6.25	3.25	7.75	6.00	3.75	2.50	2.75	5.00	4.00	1.75	-0.312500	0.033203	0.923828	-6.650000	13.370000	-1.050000	1113.00	-0.03	-0.01	0.00	0.00	0.25	0.25	0.00	0.00	0.25	0.00	0.00	0.25	0.25	0.00	0.00	0.00	0.00	0.25	-2.700195	-0.275391	0.558594	77.209999	-258.649994	140.419998	19.00	0.00	0.00
2.33	9.50	8.00	7.75	7.50	2.50	4.50	6.50	3.25	8.00	6.50	4.50	2.50	3.25	5.00	4.50	2.00	-0.318359	0.032715	0.928223	-6.930000	14.840000	-1.190000	1122.00	-0.02	-0.01	0.00	0.00	0.00	0.50	0.00	0.25	0.25	0.00	0.00	0.00	0.25	0.00	0.00	0.00	0.00	0.00	-3.366211	-0.311523	-0.058594	83.440002	-253.889999	123.340004	17.00	0.00	0.00
2.34	8.25	7.25	7.50	7.00	2.50	4.00	6.75	3.00	8.50	6.75	4.75	3.00	3.50	5.25	4.50	2.00	-0.326172	0.038574	0.937012	-7.770000	16.730000	-1.470000	1107.00	0.00	-0.01	0.00	0.00	0.00	0.50	0.00	0.00	0.25	0.00	0.00	0.50	0.00	0.00	0.00	0.00	0.00	0.25	-3.461426	-0.328125	-0.735352	109.340004	-224.210007	94.220001	19.00	0.00	0.00
2.35	7.25	6.50	7.00	6.50	2.25	4.00	7.00	3.25	9.00	7.25	5.25	3.00	3.25	5.25	4.75	2.00	-0.327637	0.032715	0.926758	-8.330000	18.480000	-1.820000	1100.00	0.02	-0.01	0.00	0.00	0.00	0.25	0.00	0.00	0.25	0.00	0.25	0.25	0.50	0.00	0.00	0.00	0.00	0.25	-3.098633	-0.507324	-1.128418	133.979996	-158.479996	62.790001	23.00	0.00	0.00
2.36	6.50	6.50	6.25	6.25	2.50	3.00	7.00	3.00	9.25	7.50	5.75	3.25	2.75	5.75	5.25	2.00	-0.329590	0.032227	0.916504	-8.820000	20.230000	-1.960000	1086.00	0.03	-0.00	0.00	0.00	0.25	0.50	0.25	0.00	0.25	0.00	0.00	0.50	0.25	0.00	0.00	0.00	0.00	0.00	-2.516113	-0.691406	-1.124512	118.720001	-67.550003	33.950001	27.00	0.00	0.00
2.37	6.00	5.50	6.00	6.00	2.25	2.75	7.25	2.75	10.00	7.75	6.00	3.25	3.25	6.25	5.00	2.25	-0.344238	0.021973	0.927734	-9.380000	21.980000	-1.960000	1082.00	0.05	0.01	0.00	0.00	0.50	0.25	0.00	0.00	0.25	0.00	0.00	0.25	0.00	0.00	0.00	0.00	0.00	0.25	-1.942871	-0.711914	-0.736328	53.549999	21.490000	10.430000	19.00	0.00	0.00
2.38	5.00	5.00	5.50	5.50	2.00	2.50	7.50	2.75	10.50	8.25	6.50	3.50	3.50	6.00	5.00	2.00	-0.335938	0.025391	0.936523	-10.010000	24.500000	-2.170000	1071.00	0.06	0.01	0.00	0.00	0.00	0.25	0.00	0.25	0.25	0.00	0.25	0.25	0.00	0.00	0.00	0.00	0.25	0.00	-1.609375	-0.479492	-0.060059	-32.060001	87.709999	-3.850000	21.00	0.00	0.00
2.39	4.25	4.75	5.00	5.00	1.75	2.25	7.50	2.50	10.75	8.25	7.00	3.75	3.75	6.75	5.25	2.25	-0.347656	0.015625	0.926270	-10.430000	26.600000	-1.680000	1062.00	0.08	0.01	0.00	0.00	0.25	0.50	0.00	0.25	0.25	0.00	0.00	0.25	0.25	0.00	0.00	0.00	0.00	0.00	-1.156738	0.138184	0.863281	-123.059998	135.520004	-2.590000	24.00	0.00	0.00
2.40	3.25	5.00	4.75	4.75	1.50	2.00	7.75	2.00	11.25	8.75	7.25	4.00	3.50	6.75	5.50	2.50	-0.337891	0.005371	0.928711	-11.900000	30.940001	0.560000	1058.00	0.10	0.01	0.00	0.25	0.25	0.50	0.00	0.25	0.25	0.00	0.00	0.00	0.00	0.00	0.00	0.00	0.00	0.00	-0.176270	0.172852	3.687500	-82.110001	190.539993	-12.670000	20.00	0.00	0.00
2.41	2.75	3.75	4.00	4.75	1.50	1.50	7.75	1.75	12.00	9.00	7.50	4.00	3.75	7.00	5.50	2.50	-0.315430	0.063965	0.952637	-11.060000	36.540001	0.140000	1040.00	0.11	0.02	1.50	0.50	0.75	1.00	0.25	0.00	0.25	0.00	0.25	0.00	0.00	0.00	0.00	0.00	0.00	0.25	0.784180	0.378906	0.442871	-32.060001	151.339996	7.910000	61.00	-0.24	0.01
2.42	2.00	3.25	3.50	4.50	1.25	1.50	8.00	2.00	12.25	9.25	7.75	4.25	4.25	7.50	5.50	2.75	-0.356934	0.036621	0.969727	-8.960000	46.200001	-0.840000	1046.00	0.13	0.02	4.25	1.50	1.25	0.75	0.25	0.00	0.25	0.25	0.00	0.00	0.25	0.00	0.00	0.00	0.25	0.25	0.185547	0.214355	0.498535	-43.119999	122.849998	11.760000	116.00	-0.28	0.01
2.43	1.75	3.00	3.50	3.75	1.25	1.50	8.00	1.50	12.75	9.50	7.75	4.25	3.00	7.75	5.25	2.25	-0.378906	0.022949	0.948242	-7.000000	58.099998	-1.890000	1015.00	0.14	0.03	5.50	2.75	1.25	1.25	0.00	0.00	0.00	0.00	0.00	0.00	0.00	0.00	0.00	0.00	0.00	0.00	-0.043457	0.198730	0.085938	-21.629999	172.479996	27.299999	132.00	-0.37	0.00
2.44	2.00	3.00	3.00	3.25	1.00	1.25	7.75	0.75	13.25	9.50	8.00	4.50	3.50	7.75	5.75	2.50	-0.394043	0.028320	0.960938	-5.950000	70.840004	-3.150000	1007.00	0.15	0.04	6.75	4.00	2.00	2.00	0.00	0.00	0.00	0.00	0.00	0.00	0.25	0.00	0.00	0.00	0.00	0.00	-0.148438	-0.107422	0.945801	4.970000	236.809998	40.740002	184.00	-0.36	-0.01
2.45	1.25	2.75	3.00	3.25	1.00	1.00	7.75	0.75	13.50	9.75	8.00	4.25	3.00	7.75	5.75	2.50	-0.392578	0.028320	0.965820	-6.580000	86.169998	-4.200000	991.00	0.16	0.04	9.00	6.50	2.75	1.75	0.00	0.00	0.00	0.00	0.25	0.00	0.25	0.00	0.00	0.00	0.50	0.25	-0.569824	-0.466309	2.189453	24.360001	244.089996	40.670002	258.00	-0.34	-0.01
2.46	1.50	2.75	2.75	3.25	0.75	1.50	7.75	0.25	14.00	10.00	8.00	4.25	2.00	8.25	5.75	2.50	-0.414551	0.013672	0.981445	-10.220000	104.860001	-5.250000	990.00	0.16	0.05	11.25	8.00	3.25	2.75	0.00	0.00	0.00	0.00	0.00	0.00	0.25	0.00	0.00	0.00	0.25	0.25	-0.708496	-0.713379	1.900879	40.389999	212.380005	20.370001	315.00	-0.36	-0.02
2.47	1.50	2.50	2.50	3.25	0.75	1.00	7.75	0.00	14.25	9.75	8.25	4.25	2.50	8.25	5.75	2.25	-0.433594	0.014160	0.996094	-18.549999	127.750000	-6.370000	981.00	0.17	0.06	12.75	9.25	4.00	3.25	0.25	0.00	0.00	0.00	0.00	0.25	0.50	0.25	0.00	0.25	0.25	0.25	-0.559082	-0.472656	1.730469	49.770000	192.360001	-9.870000	379.00	-0.34	-0.02
2.48	1.50	2.50	2.00	2.75	0.75	1.00	7.50	0.00	14.50	10.00	8.25	4.00	1.50	8.50	5.75	2.25	-0.453613	0.008301	0.997070	-24.780001	148.050003	-7.140000	959.00	0.17	0.07	13.50	10.75	5.00	4.50	0.50	0.00	0.00	0.00	0.00	0.00	0.50	0.25	0.25	0.50	0.00	0.50	-0.458496	0.150391	1.784180	64.050003	173.180008	-26.460001	438.00	-0.33	-0.03
2.49	1.00	2.25	2.50	2.25	0.75	1.25	7.50	0.00	14.50	10.00	8.00	4.00	1.25	8.75	5.50	2.25	-0.495117	0.029297	1.046387	-30.940001	163.869995	-8.680000	947.00	0.18	0.07	14.25	11.25	5.25	5.25	0.50	0.25	0.00	0.25	0.00	0.00	0.50	0.50	0.00	0.50	0.25	0.25	-0.515625	0.517578	1.673340	78.680000	146.930008	-19.600000	476.00	-0.33	-0.03
2.50	0.25	2.50	2.00	2.50	0.75	0.50	7.25	0.00	14.75	10.00	8.00	3.50	1.50	8.50	5.50	2.25	-0.530273	0.034668	1.034668	-35.770000	179.059998	-11.060000	921.00	0.19	0.07	14.00	11.75	5.50	5.75	0.50	0.50	0.00	0.25	0.00	0.00	0.50	0.50	0.00	0.50	0.00	0.00	-0.476074	0.341797	1.531250	78.540001	124.669998	-4.830000	487.00	-0.33	-0.04
2.51	0.75	2.25	2.00	2.50	0.75	0.75	7.00	0.00	14.50	9.75	8.00	3.25	1.50	9.00	5.50	2.50	-0.549805	0.019043	1.048340	-39.830002	195.509995	-13.650000	919.00	0.18	0.07	14.00	12.00	5.25	6.00	0.50	1.00	0.00	0.50	0.00	0.25	0.75	0.50	0.00	0.00	0.00	0.25	-0.449707	0.256348	1.684570	73.570000	106.750000	4.970000	504.00	-0.33	-0.05
2.52	0.50	2.00	1.50	2.00	0.50	0.75	7.00	0.00	14.25	9.75	7.75	3.00	1.00	8.75	5.50	2.25	-0.595215	0.005371	1.070801	-45.080002	211.820007	-16.170000	878.00	0.19	0.08	14.25	12.00	5.50	7.00	0.50	1.50	0.00	0.50	0.00	0.25	0.50	0.50	0.25	0.50	0.00	0.25	-0.333496	0.211426	1.436035	51.660000	77.139999	4.410000	534.00	-0.32	-0.05
2.53	0.50	2.00	1.25	2.25	0.50	0.50	6.75	0.00	14.00	9.50	7.50	2.75	0.75	9.00	5.25	2.25	-0.644531	0.028809	1.083008	-50.470001	228.479996	-19.110001	853.00	0.20	0.08	13.75	12.00	5.75	7.00	0.50	1.75	0.00	0.75	0.00	0.25	0.75	0.50	0.25	0.00	0.00	0.00	-0.310547	0.480957	1.100586	16.030001	38.500000	4.410000	536.00	-0.32	-0.06
2.54	0.25	1.50	1.00	1.75	0.50	0.75	6.75	0.00	13.50	9.25	7.25	2.50	1.00	8.75	5.00	2.50	-0.800781	0.082520	1.243652	-54.950001	264.809998	-30.940001	819.00	0.20	0.08	13.50	12.25	5.50	7.25	0.50	2.00	0.00	0.75	0.00	0.25	0.50	0.50	0.25	0.25	0.25	0.25	-0.172852	0.110352	0.989258	-10.500000	30.870001	10.010000	543.00	-0.31	-0.06
2.55	0.25	1.75	0.75	1.25	0.50	0.00	6.50	0.00	12.75	8.75	6.50	2.50	1.25	9.00	5.00	2.25	-0.879395	0.082520	1.243652	-54.950001	264.809998	-30.940001	774.00	0.21	0.09	13.50	12.25	5.75	7.50	0.75	2.25	0.00	0.75	0.00	0.25	0.75	0.50	0.25	0.25	0.00	0.25	-0.185059	0.136719	0.956543	-15.960000	25.690001	5.530000	556.00	-0.31	-0.07
2.56	0.00	1.50	0.75	1.75	0.50	0.50	6.25	0.00	11.75	8.25	5.75	2.00	1.25	9.25	4.50	2.75	-0.975098	0.014160	1.517090	-43.259998	295.820007	-38.220001	739.00	0.21	0.08	13.25	13.00	6.00	8.00	0.75	2.50	0.00	0.75	0.00	0.25	0.50	0.50	0.50	0.00	0.25	0.25	-0.214355	0.180664	0.914551	-17.850000	22.680000	2.940000	574.00	-0.31	-0.07
2.57	0.00	1.00	0.75	2.00	0.25	0.75	5.75	0.00	10.25	7.75	5.25	1.75	1.75	9.00	3.75	2.75	-1.194336	-0.040039	1.763184	-28.630001	305.549988	-33.250000	682.00	0.21	0.07	14.00	12.75	6.00	8.00	0.50	3.00	0.00	1.00	0.00	0.50	1.00	0.50	0.25	0.00	0.25	0.25	-0.211426	0.163574	0.946289	-20.440001	24.639999	2.310000	595.00	-0.30	-0.07
2.58	0.25	1.50	0.75	0.75	0.25	1.00	5.25	0.00	8.75	7.25	4.75	1.75	1.75	9.00	3.75	2.00	-1.267090	-0.041992	1.882324	-6.860000	311.640015	-21.420000	627.00	0.21	0.07	14.75	13.00	6.50	8.25	0.75	3.25	0.25	1.00	0.00	0.25	0.75	0.75	0.00	0.00	0.00	0.25	-0.207031	0.126465	0.959961	-22.260000	24.360001	1.470000	620.00	-0.31	-0.07
2.59	0.00	1.25	1.00	0.75	0.50	0.00	4.75	0.00	8.00	6.25	4.00	1.75	0.75	8.50	3.00	2.25	-1.300293	-0.051758	1.795410	21.350000	314.579987	-6.300000	550.00	0.21	0.09	15.50	13.50	6.75	8.50	0.75	3.25	0.25	1.00	0.00	0.50	0.75	0.75	0.25	0.00	0.00	0.25	-0.215820	0.139160	0.954102	-22.540001	22.260000	0.560000	647.00	-0.30	-0.07
2.60	0.00	1.25	0.75	1.25	0.25	0.75	4.00	0.00	6.50	5.75	3.50	1.50	1.00	8.00	2.75	2.00	-1.207520	-0.183105	1.810547	47.459999	314.929993	3.500000	499.00	0.20	0.07	15.75	14.25	7.00	8.75	1.00	4.00	0.25	1.00	0.00	0.25	0.75	0.75	0.50	0.00	0.00	0.25	-0.227051	0.139160	0.956543	-22.469999	21.070000	0.770000	677.00	-0.30	-0.07
2.61	0.00	1.25	1.00	1.25	0.25	1.00	3.00	0.00	5.50	5.00	3.25	1.25	1.00	7.25	2.00	1.50	-1.156738	-0.217285	1.559570	49.209999	318.149994	7.280000	437.00	0.19	0.06	16.00	14.25	7.50	9.00	0.75	4.25	0.25	1.00	0.00	0.25	0.75	0.75	0.50	0.00	0.00	0.00	-0.234863	0.103027	0.985840	-21.210001	19.040001	1.750000	689.00	-0.30	-0.07
2.62	0.00	1.00	0.75	1.25	0.25	0.50	2.00	0.00	5.00	4.75	3.00	1.00	1.50	6.00	2.25	1.25	-1.001953	-0.049805	1.829590	40.389999	322.350006	5.880000	383.00	0.20	0.05	16.50	14.50	7.50	9.25	0.75	4.25	0.25	1.00	0.00	0.50	0.75	0.75	0.25	0.25	0.50	0.25	-0.235840	0.104004	0.998047	-17.150000	13.510000	2.240000	712.00	-0.29	-0.07
2.63	0.00	1.00	1.00	1.50	0.25	0.50	1.50	0.00	3.75	4.25	2.75	1.25	1.50	5.25	2.00	1.25	-1.116211	-0.007324	1.999512	38.849998	317.519989	8.400000	344.00	0.18	0.02	16.75	15.00	7.75	9.50	1.00	4.25	0.25	1.25	0.00	0.75	0.75	1.00	0.75	0.00	0.00	0.25	-0.231934	0.111328	0.976562	-11.550000	7.280000	3.080000	738.00	-0.29	-0.07
2.64	0.25	1.25	1.00	1.25	0.25	1.00	1.25	0.25	3.00	3.75	2.50	1.00	1.75	3.75	1.75	1.00	-0.681641	-0.056641	1.853027	38.570000	313.320007	7.980000	312.00	0.15	-0.00	17.25	15.00	7.50	9.50	0.75	4.50	0.25	1.25	0.00	0.50	0.50	0.75	0.25	0.25	0.25	0.25	-0.226562	0.117188	0.961914	-7.070000	2.800000	4.130000	731.00	-0.30	-0.07
2.65	0.25	1.25	1.25	2.00	0.25	1.25	1.00	0.75	1.75	3.50	2.00	0.75	1.00	2.75	2.00	1.00	-0.234863	-0.172852	1.698242	26.809999	304.010010	2.800000	286.00	0.11	-0.04	16.50	15.00	7.75	9.50	1.00	4.75	0.25	1.00	0.25	0.50	0.75	0.75	0.50	0.00	0.00	0.50	-0.228027	0.125488	0.946289	-4.200000	-0.350000	4.760000	733.00	-0.30	-0.07
2.66	0.00	1.25	1.25	1.50	0.25	1.25	1.00	1.00	2.00	3.25	1.25	0.50	1.75	2.25	1.50	0.75	0.349121	-0.095215	1.398926	-0.490000	279.720001	-3.710000	264.00	0.10	-0.05	17.25	15.50	8.00	9.75	1.00	4.75	0.50	1.50	0.00	0.50	1.00	0.75	0.75	0.25	0.00	0.25	-0.222168	0.132812	0.936523	-2.870000	-2.380000	4.620000	771.00	-0.29	-0.07
2.67	0.25	1.75	1.00	1.50	0.25	0.75	0.75	0.25	1.75	3.00	1.50	0.50	1.25	2.00	1.50	1.00	0.832031	-0.155273	1.677734	-36.610001	242.270004	-10.220000	235.00	0.10	-0.03	16.75	15.25	7.75	9.75	1.25	5.00	0.25	1.50	0.00	0.75	1.00	0.50	0.50	0.00	0.25	0.25	-0.220703	0.142090	0.924805	-3.780000	-2.730000	3.920000	759.00	-0.29	-0.08
2.68	0.50	1.75	1.50	2.00	0.25	0.50	0.75	0.25	1.50	3.00	1.50	0.50	1.00	2.25	1.50	0.50	0.635742	0.285156	3.236816	-46.970001	153.369995	-5.320000	240.00	0.07	-0.02	17.00	15.25	7.75	9.75	0.75	5.00	0.25	1.25	0.00	0.50	1.00	0.75	0.50	0.50	0.00	0.25	-0.213379	0.133301	0.918457	-10.010000	-0.350000	1.260000	752.00	-0.29	-0.07
2.69	0.50	1.75	1.00	1.75	0.25	1.75	0.75	0.75	1.50	2.75	1.50	0.50	1.25	1.50	1.50	0.75	1.150879	0.296387	2.404297	-31.360001	46.200001	13.160000	249.00	0.06	-0.07	17.25	15.75	7.75	9.50	1.00	5.25	0.50	1.50	0.00	0.25	0.75	0.75	0.50	0.00	0.25	0.50	-0.218750	0.137207	0.917480	-13.370000	1.610000	-0.070000	767.00	-0.29	-0.08
2.70	0.25	1.50	1.00	1.50	0.25	1.00	0.75	0.50	1.50	2.75	1.50	0.25	1.25	1.50	1.50	1.00	0.732422	0.195312	1.232422	-35.700001	-81.830002	45.639999	224.00	0.08	-0.05	17.00	15.25	7.75	10.00	1.25	5.25	0.25	1.25	0.00	0.75	0.75	0.75	0.50	0.25	0.00	0.50	-0.207520	0.124512	0.908203	-16.450001	3.990000	-1.330000	765.00	-0.29	-0.07
2.71	0.75	1.50	1.00	2.25	0.25	1.00	0.75	0.75	1.50	2.50	1.75	0.25	0.75	1.25	1.50	0.50	0.667480	0.142090	0.913086	-35.420002	-101.989998	57.540001	234.00	0.04	-0.05	17.00	15.25	8.00	9.75	1.25	5.00	0.50	1.25	0.00	0.50	0.75	0.75	0.50	0.00	0.25	0.25	-0.206055	0.121094	0.893555	-19.600000	6.650000	-2.520000	762.00	-0.29	-0.07
2.72	0.75	1.25	1.00	1.50	0.25	1.00	0.75	0.75	1.50	2.75	1.50	0.50	0.50	1.50	1.25	0.50	0.615723	0.083984	0.866211	-26.180000	-113.190002	63.490002	221.00	0.06	-0.03	17.00	15.00	8.00	9.75	1.00	5.25	0.50	1.50	0.25	0.75	0.75	1.00	0.25	0.50	0.00	0.50	-0.208496	0.122070	0.906738	-23.100000	10.010000	-3.570000	775.00	-0.28	-0.07
2.73	0.75	1.50	1.00	1.50	0.25	1.00	0.75	0.75	1.25	2.50	1.25	0.50	1.25	1.50	1.50	0.75	0.560059	-0.004883	0.941895	-9.520000	-126.000000	63.910000	226.00	0.06	-0.06	17.00	15.50	8.25	9.75	1.25	5.25	0.50	1.25	0.75	0.50	1.00	1.00	0.75	0.25	0.25	0.25	-0.219238	0.120605	0.908203	-26.389999	12.740000	-4.480000	794.00	-0.28	-0.07
2.74	0.50	1.75	1.25	2.00	0.25	1.25	0.75	0.75	1.25	2.50	1.50	0.25	1.00	1.00	1.25	0.75	0.490723	-0.165039	1.054199	7.140000	-144.619995	58.590000	229.00	0.03	-0.06	16.75	15.00	8.25	9.50	1.25	5.00	0.50	1.25	0.25	0.75	1.25	1.00	0.50	0.25	0.50	0.25	-0.249023	0.102051	0.985352	-28.000000	13.230000	-4.690000	778.00	-0.28	-0.07
2.75	0.50	1.75	1.25	1.50	0.25	1.25	0.75	0.50	1.25	2.25	1.50	0.25	0.75	1.25	1.25	1.00	0.390625	-0.310059	1.177246	18.620001	-169.259995	46.970001	216.00	0.04	-0.05	16.75	14.75	8.25	9.50	1.50	5.00	0.50	1.25	0.00	0.75	1.00	1.00	0.75	0.75	0.50	0.50	-0.260254	0.101074	0.977051	-23.940001	9.870000	-4.200000	781.00	-0.27	-0.07
2.76	0.25	1.50	1.25	1.50	0.25	1.25	0.75	0.75	1.50	2.25	1.25	0.50	0.75	1.25	1.25	0.75	0.291504	-0.404785	1.235352	24.290001	-197.960007	30.030001	217.00	0.06	-0.05	16.50	14.50	8.25	9.50	1.50	5.00	0.75	1.25	0.00	0.75	1.00	1.00	0.50	0.50	0.75	0.50	-0.253418	0.096680	0.959961	-17.710001	4.970000	-3.430000	777.00	-0.27	-0.07
2.77	0.50	1.75	1.00	2.00	0.25	1.50	0.75	0.75	1.25	2.25	1.25	0.25	0.50	1.25	1.50	0.75	0.183594	-0.427246	1.239746	25.480000	-225.820007	10.850000	223.00	0.03	-0.06	16.00	14.25	8.50	9.25	1.75	5.00	0.75	1.25	0.25	0.75	1.25	1.00	0.75	0.50	0.75	0.50	-0.243164	0.103027	0.938965	-12.740000	0.980000	-2.520000	781.00	-0.26	-0.07
2.78	0.75	1.75	1.50	1.25	0.25	1.25	0.75	0.75	1.00	2.25	1.25	0.25	0.75	1.50	1.25	1.00	0.064941	-0.430176	1.232422	26.180000	-250.600006	-8.050000	219.00	0.03	-0.05	17.00	13.75	8.25	9.00	1.50	5.00	0.75	1.50	0.75	1.00	1.25	1.25	0.75	0.00	0.25	0.50	-0.245117	0.089355	0.938965	-8.820000	-1.470000	-1.750000	786.00	-0.26	-0.06
2.79	0.25	1.75	1.25	1.50	0.25	1.25	0.75	0.75	1.25	2.00	1.25	0.25	0.75	1.00	0.75	0.75	-0.044434	-0.407715	1.237793	31.080000	-272.510010	-25.480000	201.00	0.02	-0.06	16.50	13.50	8.25	9.00	1.75	5.00	0.75	1.25	0.25	1.00	1.25	1.00	0.50	1.00	1.00	0.50	-0.240234	0.099609	0.921875	-6.370000	-3.080000	-1.190000	781.00	-0.25	-0.06
2.80	0.50	1.75	1.25	1.50	0.50	0.50	0.75	0.75	1.25	2.00	1.00	0.25	0.75	1.00	1.25	0.75	-0.176758	-0.403320	1.231934	39.900002	-291.970001	-40.880001	200.00	0.03	-0.04	16.25	13.25	8.25	9.00	2.00	4.75	0.75	1.25	0.50	0.75	1.25	1.00	1.00	0.75	0.50	0.50	-0.234375	0.102539	0.922852	-4.690000	-3.780000	-0.770000	773.00	-0.26	-0.06
2.81	0.00	1.50	1.00	1.25	0.25	1.25	0.75	0.50	1.50	1.75	1.00	0.50	1.25	1.00	1.50	0.50	-0.296387	-0.399414	1.180176	49.139999	-306.809998	-54.320000	197.00	0.07	-0.06	15.75	12.50	8.50	8.75	1.75	4.75	0.75	1.25	0.00	1.25	1.25	1.50	1.00	0.75	0.50	0.75	-0.239746	0.105957	0.924316	-3.920000	-4.060000	-0.630000	761.00	-0.25	-0.07
2.82	0.00	1.25	0.75	1.50	0.25	2.00	0.75	0.50	1.00	2.00	1.25	0.25	0.50	1.25	1.00	0.75	-0.467285	-0.384766	1.098145	50.259998	-317.589996	-74.199997	190.00	0.05	-0.07	15.50	12.25	8.25	8.75	1.75	5.00	0.75	1.25	0.50	1.00	1.75	1.25	0.75	1.25	0.75	0.50	-0.237793	0.104004	0.919434	-4.130000	-3.220000	-0.840000	767.00	-0.24	-0.06
2.83	0.25	1.50	1.00	1.50	0.25	0.50	0.75	0.50	0.75	1.75	1.00	0.25	1.00	1.25	1.50	0.75	-0.467285	-0.384766	1.098145	50.259998	-317.589996	-74.199997	181.00	0.06	-0.06	14.75	11.75	8.25	8.50	2.00	4.75	1.00	1.50	0.75	1.25	1.50	1.25	1.00	0.50	0.75	0.75	-0.243652	0.101074	0.927246	-4.480000	-2.520000	-0.840000	759.00	-0.23	-0.06
2.84	0.50	1.50	1.00	1.50	0.25	1.50	0.75	0.75	1.00	2.00	1.25	0.25	0.75	1.00	0.75	0.75	-0.557617	-0.366211	1.106445	40.180000	-316.190002	-79.870003	197.00	0.02	-0.07	14.50	11.50	8.25	8.50	2.00	5.00	1.00	1.75	1.00	1.25	1.75	1.50	1.25	1.00	0.75	0.75	-0.254395	0.094727	0.923340	-4.760000	-2.030000	-0.770000	779.00	-0.22	-0.06
2.85	0.50	1.50	0.75	1.25	0.25	1.75	0.75	1.00	1.00	2.00	1.00	0.25	0.75	1.00	1.25	0.50	-0.716309	-0.230469	1.192871	8.750000	-305.619995	-81.970001	200.00	0.03	-0.08	14.50	10.75	8.25	8.50	2.25	5.00	1.00	1.25	1.25	1.25	1.75	1.50	1.25	1.25	0.75	0.50	-0.246094	0.095703	0.923340	-4.760000	-1.750000	-0.420000	769.00	-0.22	-0.06
2.86	0.25	1.50	1.25	1.25	0.50	1.00	0.50	0.75	1.25	2.00	0.75	0.25	0.75	1.25	1.00	0.75	-0.840332	-0.150879	1.291504	-1.960000	-298.760010	-78.260002	190.00	0.04	-0.05	14.00	10.75	8.25	8.25	2.25	4.75	1.00	1.50	1.50	1.50	1.75	1.50	1.50	1.50	1.00	0.75	-0.242676	0.092773	0.917480	-4.550000	-1.050000	-0.140000	778.00	-0.20	-0.06
2.87	0.25	1.25	1.00	1.50	0.25	1.25	0.50	1.00	1.00	1.75	1.00	0.25	0.75	1.25	1.50	0.75	-0.930664	-0.054199	1.322266	-5.810000	-293.790009	-73.360001	194.00	0.05	-0.08	14.00	10.25	8.00	8.00	2.50	5.00	1.25	1.25	1.25	1.50	2.00	1.50	1.25	1.50	1.00	0.75	-0.239746	0.093262	0.914062	-4.620000	-0.210000	0.070000	769.00	-0.20	-0.05
2.88	0.25	1.50	1.25	1.50	0.25	1.00	0.75	1.00	1.00	2.00	1.00	0.25	0.25	1.00	1.00	0.75	-0.999512	0.028809	1.347656	-5.390000	-289.029999	-67.129997	190.00	0.03	-0.06	13.25	10.00	8.00	8.00	2.50	5.00	1.25	1.75	1.50	1.50	1.75	1.50	1.25	1.50	1.00	0.75	-0.243652	0.083984	0.912109	-4.830000	0.490000	-0.070000	767.00	-0.19	-0.06
2.89	0.25	1.50	1.00	1.50	0.25	1.00	0.50	0.50	1.00	1.75	1.00	0.25	0.50	1.00	1.00	0.75	-1.043457	0.050293	1.353027	-2.870000	-281.470001	-58.450001	173.00	0.03	-0.06	13.00	9.50	8.25	7.75	2.75	5.00	1.25	1.75	1.75	1.75	2.00	2.00	1.75	1.75	1.25	1.00	-0.241699	0.095703	0.918945	-5.320000	1.610000	-0.210000	790.00	-0.17	-0.06
2.90	0.00	1.25	0.75	1.00	0.25	1.00	0.75	0.50	0.75	1.75	1.00	0.00	0.75	1.00	1.00	0.75	-1.040039	0.037598	1.342285	-5.740000	-271.320007	-47.670002	157.00	0.06	-0.06	12.75	8.75	8.00	7.75	2.75	5.00	1.25	1.75	2.00	2.00	2.50	2.00	1.50	1.75	1.50	1.00	-0.249512	0.100098	0.927246	-5.670000	2.310000	-0.490000	790.00	-0.16	-0.05
2.91	0.50	1.25	0.50	1.25	0.25	1.00	0.50	0.50	1.00	1.75	0.75	0.00	0.00	0.75	0.75	0.75	-1.039551	0.071289	1.367676	-15.050000	-260.540009	-36.259998	146.00	0.02	-0.04	12.00	8.50	8.00	7.50	2.75	5.00	1.50	2.00	2.50	2.00	2.25	2.00	2.00	2.25	1.25	1.00	-0.251465	0.093262	0.913086	-5.670000	2.660000	-0.630000	795.00	-0.15	-0.05
2.92	0.00	1.50	0.75	1.50	0.25	1.00	0.50	0.75	1.00	1.75	1.00	0.00	0.50	1.00	1.00	1.00	-1.041992	0.106445	1.401855	-21.139999	-249.970001	-24.430000	169.00	0.04	-0.07	11.25	7.75	7.75	7.50	3.25	5.00	1.75	2.00	2.75	2.50	2.75	2.50	2.25	2.75	1.25	0.75	-0.241699	0.094727	0.916016	-5.670000	2.940000	-0.700000	814.00	-0.13	-0.05
2.93	0.50	1.50	1.00	1.50	0.25	1.50	0.50	0.50	1.00	1.75	1.00	0.00	1.00	0.75	1.00	0.25	-1.016602	0.142578	1.415527	-19.530001	-239.259995	-12.740000	179.00	0.01	-0.07	10.75	7.25	7.50	7.00	3.50	5.00	2.00	2.25	3.25	2.50	3.00	2.75	2.50	2.75	1.75	1.00	-0.251953	0.093750	0.924316	-6.090000	3.850000	-0.840000	829.00	-0.11	-0.05
2.94	0.50	1.50	1.00	1.25	0.25	1.50	0.75	0.50	1.00	1.75	0.75	0.00	1.25	1.00	1.50	0.50	-1.028809	0.170898	1.442383	-11.760000	-228.899994	-1.400000	190.00	0.03	-0.06	9.75	6.50	7.50	6.75	3.25	5.00	2.50	2.25	4.00	2.75	3.25	3.00	2.75	3.25	2.25	1.25	-0.253418	0.092773	0.928711	-7.000000	5.180000	-1.260000	847.00	-0.08	-0.05
2.95	0.00	1.50	0.75	1.75	0.25	1.00	0.75	1.00	1.00	1.75	0.75	0.25	0.75	0.75	1.00	0.75	-1.040527	0.159668	1.432129	-0.910000	-218.050003	9.730000	180.00	0.03	-0.09	9.00	6.00	7.50	6.50	3.25	4.50	3.25	2.25	5.00	3.00	3.75	3.50	3.00	4.00	2.00	1.25	-0.263184	0.092773	0.928711	-8.260000	6.580000	-1.750000	875.00	-0.06	-0.04
2.96	0.50	1.50	1.25	1.50	0.25	1.25	0.50	0.50	0.75	2.00	1.00	0.25	1.00	1.25	1.00	0.75	-1.063477	0.159180	1.441895	8.120000	-206.710007	20.580000	189.00	0.02	-0.07	8.50	5.50	6.75	6.00	3.25	4.75	4.00	2.50	5.25	3.50	4.75	3.50	3.25	3.50	2.50	1.50	-0.257812	0.075195	0.928711	-10.850000	10.640000	-2.940000	896.00	-0.04	-0.04
2.97	0.25	1.50	0.75	1.00	0.25	1.00	0.75	0.75	1.00	1.75	1.00	0.50	1.00	1.25	1.25	0.50	-1.106934	0.169922	1.464844	14.980000	-194.460007	31.290001	184.00	0.06	-0.07	7.75	4.50	6.50	5.75	3.25	4.25	4.25	2.75	6.50	4.50	5.25	4.00	3.50	4.25	2.25	1.25	-0.257812	0.075195	0.928711	-10.850000	10.640000	-2.940000	921.00	-0.01	-0.03
2.98	0.75	1.25	1.00	1.75	0.25	1.25	0.75	0.50	0.50	1.50	1.00	0.25	1.00	1.00	1.25	0.25	-1.173340	0.182129	1.490723	20.440001	-182.000000	43.259998	181.00	0.01	-0.07	7.00	3.50	6.00	5.25	3.25	3.75	4.75	2.50	7.50	5.25	6.00	4.75	4.00	5.00	2.75	1.50	-0.270020	0.084473	0.933594	-9.310000	14.490000	-2.870000	950.00	0.02	-0.02
2.99	0.50	1.50	1.00	1.50	0.50	1.75	0.75	0.50	0.75	1.75	0.75	0.00	0.75	1.00	1.00	0.50	-1.381348	0.193848	1.734863	27.020000	-170.309998	57.680000	184.00	0.00	-0.06	6.25	2.75	5.75	4.75	3.00	3.50	5.00	2.50	8.00	6.00	6.50	5.25	4.00	5.00	3.00	1.75	-0.280762	0.089355	0.937012	-8.400000	17.010000	-2.730000	955.00	0.04	-0.02
3.00	0.25	1.25	1.00	1.50	0.25	1.25	0.50	1.00	1.00	1.50	0.75	0.00	0.75	1.25	1.00	0.75	-1.474609	0.180176	1.895020	32.480000	-164.289993	75.040001	178.00	0.03	-0.08	5.75	2.25	5.00	3.75	2.50	3.00	5.25	2.50	8.50	6.50	7.00	5.75	4.25	5.25	4.00	2.00	-0.306152	0.084961	0.922852	-8.890000	19.879999	-2.520000	957.00	0.07	-0.01
3.01	0.25	1.50	1.25	1.50	0.25	0.75	0.75	1.00	0.75	2.00	1.00	0.25	1.00	1.25	0.75	1.00	-1.582520	0.108887	1.972656	20.370001	-183.330002	106.820000	192.00	0.03	-0.08	5.00	1.75	5.00	3.25	2.00	2.50	5.75	2.50	8.75	7.00	7.50	6.00	4.50	5.75	3.75	2.00	-0.300781	0.090820	0.932129	-10.500000	21.910000	-2.170000	956.00	0.09	-0.01
3.02	0.25	1.50	1.25	1.00	0.25	1.25	0.50	0.50	1.00	1.50	0.75	0.00	1.00	0.75	0.75	0.75	-1.707031	0.042969	1.803223	7.770000	-207.619995	118.580002	163.00	0.01	-0.07	3.75	1.50	3.75	2.75	1.75	2.25	5.75	2.25	9.25	7.50	7.75	6.50	4.75	6.25	4.25	2.00	-0.288574	0.073730	0.929688	-11.410000	24.639999	-2.100000	941.00	0.12	-0.01
3.03	0.25	1.25	1.25	1.00	0.25	1.75	0.50	1.00	0.75	1.75	1.00	0.00	1.25	1.25	0.75	0.50	-1.953125	-0.101074	1.488770	5.040000	-234.080002	127.470001	184.00	0.03	-0.09	3.00	1.00	2.75	2.25	1.50	1.50	6.00	2.00	9.50	7.75	8.00	7.00	5.00	6.25	4.25	2.25	-0.333984	0.081055	0.920898	-11.830000	27.719999	-1.540000	913.00	0.14	-0.01
3.04	0.50	1.50	1.00	1.50	0.50	1.00	0.50	0.25	0.50	1.50	0.75	0.00	0.50	1.00	1.25	0.75	-2.479980	-0.216797	1.073730	-6.930000	-253.330002	124.040001	160.00	0.01	-0.06	2.50	1.00	1.75	2.00	1.50	1.00	6.25	1.75	10.00	8.00	8.25	7.25	5.00	7.50	4.50	2.00	-0.320312	0.068848	0.927246	-11.550000	31.219999	-0.910000	915.00	0.16	0.00
3.05	0.00	1.25	1.25	1.50	0.25	1.50	0.50	0.75	1.00	1.50	0.75	0.00	0.75	1.00	1.00	0.50	-3.308105	-0.320312	0.546387	-30.170000	-262.640015	103.459999	173.00	0.02	-0.07	1.50	0.75	2.00	1.75	1.00	0.75	6.50	1.50	11.00	8.25	8.75	7.25	5.00	7.50	4.50	2.25	-0.319824	0.061523	0.955566	-10.920000	36.119999	-0.070000	917.00	0.18	0.01
3.06	0.50	1.25	1.25	1.75	0.25	1.50	0.75	0.75	1.00	1.75	1.00	0.25	0.50	0.75	1.25	0.75	-4.097656	-0.380371	-0.323242	-47.110001	-261.869995	60.480000	196.00	0.02	-0.07	0.75	0.75	1.75	1.50	0.75	0.25	6.50	1.50	11.00	8.75	9.00	7.50	5.00	7.75	5.00	2.25	-0.293457	0.075684	1.033691	-7.280000	47.529999	0.350000	913.00	0.19	0.01
3.07	0.25	1.50	1.00	0.75	0.25	1.25	0.75	0.75	0.75	1.75	1.00	0.25	0.75	1.00	1.25	0.50	-4.171387	-0.359863	-1.281250	-35.910000	-224.910004	2.310000	175.00	0.05	-0.07	1.25	0.25	1.50	1.50	0.50	0.75	6.50	1.25	11.75	9.00	9.25	7.50	5.00	8.00	5.00	2.25	-0.311035	0.095703	0.967285	-2.660000	65.519997	-0.280000	929.00	0.19	0.01
3.08	0.25	1.50	1.00	1.75	0.25	1.00	0.75	0.75	1.00	2.00	1.00	0.25	0.50	1.00	1.25	0.50	-3.485840	-0.234375	-1.769043	-14.350000	-139.580002	-51.310001	190.00	0.03	-0.06	1.00	0.50	1.25	1.50	0.75	0.75	6.50	0.75	12.00	9.25	9.25	7.75	5.00	8.25	5.25	2.50	-0.342773	0.090332	0.989258	0.630000	83.300003	-2.660000	937.00	0.20	0.02
3.09	0.00	1.50	1.25	1.50	0.25	1.25	0.50	0.75	1.25	1.75	1.00	0.25	1.25	1.25	1.50	0.75	-2.667480	-0.037598	-1.759277	-4.900000	-26.530001	-87.919998	201.00	0.06	-0.08	1.00	0.50	0.75	0.75	0.50	0.25	6.50	0.75	12.25	9.25	9.50	7.75	5.00	8.50	5.00	2.50	-0.355957	0.091797	0.996094	1.820000	101.779999	-5.390000	917.00	0.21	0.02
3.10	0.00	1.00	1.50	1.25	0.25	0.75	0.50	1.00	1.00	1.75	0.75	0.00	1.00	1.00	1.00	0.50	-2.096680	0.274414	-1.072266	-4.900000	80.500000	-102.340004	171.00	0.04	-0.07	1.00	0.25	1.25	1.00	0.25	0.25	6.25	0.50	12.50	9.50	9.75	7.75	4.50	8.25	5.00	2.25	-0.382324	0.085938	1.002441	0.770000	119.629997	-7.770000	913.00	0.21	0.03
3.11	0.25	1.50	1.25	1.25	0.25	1.50	0.75	0.75	1.00	1.75	0.75	0.25	1.00	0.75	1.25	1.25	-1.701660	0.458496	-0.130371	6.230000	158.970001	-96.180000	194.00	0.03	-0.08	1.00	0.25	0.75	1.00	0.25	0.00	6.25	0.50	12.25	9.50	9.75	7.75	4.25	8.50	5.00	2.50	-0.390625	0.079102	1.006348	-0.490000	135.449997	-9.170000	901.00	0.22	0.03
3.12	0.75	1.50	1.25	1.50	0.25	1.50	0.50	0.50	0.75	1.75	0.50	0.25	1.00	0.50	0.75	0.75	-1.426270	0.493164	0.794434	25.760000	196.419998	-78.190002	176.00	-0.02	-0.08	1.00	0.25	0.75	0.75	0.25	0.00	6.00	0.25	12.25	9.75	9.75	7.75	3.75	8.50	5.00	2.75	-0.420410	0.080078	0.996094	-2.170000	151.410004	-9.380000	888.00	0.22	0.03
3.13	1.50	2.50	1.00	1.50	0.50	1.00	0.75	1.00	0.75	1.50	0.50	0.00	0.50	1.00	0.50	0.50	-0.422363	0.423340	4.156738	29.260000	309.260010	-7.280000	192.00	-0.07	-0.06	0.50	0.50	1.00	0.50	0.50	0.00	6.00	0.25	12.25	9.50	9.75	7.50	3.75	8.50	5.00	2.75	-0.484375	0.083496	1.011230	-9.450000	186.970001	-11.060000	882.00	0.22	0.03
3.14	2.75	3.50	2.25	2.50	0.25	1.00	0.75	0.75	0.75	1.50	0.75	0.00	0.25	0.50	0.75	0.75	0.502441	0.900879	1.793945	-24.219999	208.180008	10.850000	241.00	-0.13	-0.05	0.50	0.25	0.50	0.50	0.25	0.00	5.75	0.00	12.00	9.50	9.75	7.25	3.00	8.75	5.00	2.75	-0.506836	0.094238	1.005859	-15.120000	205.520004	-12.670000	848.00	0.23	0.04
3.15	4.50	4.75	2.25	2.75	0.25	1.00	0.50	0.50	0.75	1.50	0.50	0.00	0.50	1.00	0.75	0.25	-0.085938	-0.170898	-0.190430	41.509998	122.430000	49.630001	272.00	-0.17	-0.04	0.00	0.25	0.25	0.50	0.25	0.00	5.75	0.00	11.75	9.50	9.75	7.00	2.75	8.50	4.75	3.00	-0.565918	0.088867	1.012695	-18.900000	224.070007	-15.260000	825.00	0.24	0.04
3.16	8.25	7.00	3.00	2.75	0.25	0.75	0.50	0.75	1.00	1.50	0.75	0.00	0.50	0.50	0.75	0.75	-0.094727	-0.441406	0.438477	38.290001	210.979996	63.630001	359.00	-0.21	-0.03	0.00	0.00	0.25	0.25	0.00	0.00	5.50	0.00	11.50	9.25	9.50	6.75	2.50	8.50	4.50	3.00	-0.610352	0.090332	1.030762	-21.770000	241.500000	-17.780001	792.00	0.25	0.04
3.17	10.25	8.25	3.25	4.00	0.25	0.50	0.50	0.75	0.50	1.50	0.75	0.00	1.00	1.25	1.00	0.00	-0.458008	-0.560059	1.624512	30.030001	237.300003	38.849998	418.00	-0.23	-0.04	0.00	0.00	0.25	0.25	0.25	0.25	5.25	0.00	10.75	9.00	9.25	6.50	2.50	8.50	4.00	3.00	-0.657715	0.108398	1.088379	-24.990000	256.619995	-20.020000	766.00	0.24	0.04
3.18	12.00	9.25	4.00	4.50	0.50	0.75	0.50	0.75	0.75	1.50	0.75	0.00	0.50	1.00	1.00	0.50	-0.812988	-0.594238	1.864258	41.650002	215.460007	17.920000	473.00	-0.24	-0.03	0.00	0.00	0.00	0.50	0.00	0.00	5.25	0.00	10.25	8.75	8.75	6.00	2.25	8.50	3.50	3.00	-0.730957	0.138672	1.204102	-29.049999	270.130005	-23.799999	727.00	0.24	0.04
3.19	14.50	11.00	5.25	4.75	0.75	1.25	0.50	0.25	1.00	1.50	0.75	0.25	0.00	1.00	1.25	0.50	-0.730469	-0.220215	1.496582	45.360001	204.399994	-4.690000	549.00	-0.25	-0.02	0.00	0.00	0.00	0.00	0.00	0.00	5.00	0.00	9.50	8.25	8.25	5.50	2.25	8.50	2.75	2.75	-0.886230	0.196777	1.364258	-34.160000	281.610016	-30.870001	675.00	0.25	0.05
3.20	15.25	12.25	5.50	5.50	0.50	1.00	0.50	1.00	0.50	1.50	1.00	0.25	0.25	1.00	1.00	0.00	-0.634766	0.230469	1.576660	49.770000	205.940002	-11.830000	584.00	-0.27	-0.03	0.00	0.00	0.00	0.25	0.00	0.00	4.75	0.00	8.75	7.75	8.00	5.00	1.75	8.75	2.75	2.50	-1.008789	0.208496	1.490723	-34.860001	292.179993	-38.849998	642.00	0.25	0.05
3.21	16.50	13.25	6.00	6.25	0.75	1.25	0.50	1.00	0.75	1.50	1.00	0.25	0.75	1.25	0.50	0.50	-0.691406	0.428223	1.760742	54.180000	201.460007	-2.590000	642.00	-0.27	-0.04	0.00	0.00	0.00	0.00	0.00	0.00	4.00	0.00	8.00	7.00	7.00	4.50	2.25	8.50	2.00	2.25	-1.213867	0.193848	1.699707	-27.370001	301.700012	-42.000000	577.00	0.25	0.05
3.22	16.50	13.75	7.50	6.75	0.75	2.75	0.75	1.50	0.75	1.75	1.00	0.50	0.50	1.50	1.00	0.50	-0.890625	0.022461	2.003906	59.010002	183.889999	10.150000	720.00	-0.25	-0.04	0.00	0.00	0.00	0.00	0.00	0.00	3.50	0.00	7.50	6.25	6.25	4.00	1.50	8.25	1.25	2.00	-1.408691	0.133789	1.975586	-18.270000	308.980011	-40.529999	514.00	0.25	0.06
3.23	16.50	14.00	7.50	7.75	0.75	2.75	0.75	1.50	1.00	1.75	1.00	0.25	1.25	1.25	1.25	0.50	-0.911133	-0.029297	3.192383	53.270000	139.509995	10.080000	745.00	-0.24	-0.05	0.00	0.00	0.00	0.00	0.00	0.25	2.50	0.00	6.25	5.50	5.50	3.25	1.75	7.75	1.25	1.50	-1.355469	0.211914	1.875488	-8.750000	315.279999	-36.119999	446.00	0.26	0.05
3.24	16.50	14.00	7.50	8.25	1.00	3.00	0.75	1.75	1.00	2.00	1.00	0.50	1.00	1.75	1.00	0.75	-0.527832	0.147461	1.114258	32.200001	53.410000	3.850000	769.00	-0.24	-0.05	0.00	0.00	0.00	0.00	0.00	0.00	2.00	0.00	5.25	5.00	4.75	2.75	1.25	6.75	0.50	1.00	-1.212891	0.146484	1.802734	4.550000	319.339996	-35.490002	368.00	0.26	0.06
3.25	16.75	14.25	7.50	8.50	1.00	3.00	1.00	2.00	1.00	2.25	1.25	0.75	1.25	2.00	1.00	1.00	-0.348145	0.161133	0.969727	14.840000	21.210001	5.740000	804.00	-0.22	-0.05	0.00	0.00	0.00	0.25	0.00	0.00	1.25	0.00	3.25	3.75	4.00	2.50	1.25	5.50	0.75	0.75	-1.229492	0.065918	1.728516	3.640000	319.760010	-41.860001	288.00	0.26	0.03
3.26	16.50	14.50	8.00	8.75	1.00	4.00	1.00	2.00	1.00	2.25	1.50	0.75	1.00	2.00	1.50	1.00	-0.292480	0.003418	0.945312	7.140000	11.060000	5.670000	833.00	-0.22	-0.06	0.00	0.00	0.00	0.25	0.00	0.00	0.75	0.00	2.75	3.75	3.25	2.50	0.75	5.00	0.50	0.50	-1.114258	0.105957	1.786133	-5.880000	321.160004	-44.730000	246.00	0.26	0.03
3.27	16.50	14.50	8.00	9.00	1.25	4.25	1.00	2.00	1.25	2.50	1.75	1.00	1.25	1.75	1.50	0.75	-0.273438	0.059082	0.928223	5.950000	8.820000	3.640000	855.00	-0.21	-0.06	0.00	0.00	0.00	0.25	0.00	0.00	0.50	0.00	1.50	3.25	2.75	2.00	1.00	1.75	0.25	0.75	-0.586914	0.360840	1.779297	3.780000	314.369995	-42.560001	172.00	0.24	-0.03
3.28	16.50	15.00	8.50	9.25	1.00	4.75	1.25	2.25	1.25	2.25	1.75	1.00	1.25	2.00	1.75	1.25	-0.326660	0.096680	0.929688	4.200000	7.910000	2.730000	888.00	-0.21	-0.06	0.00	0.00	0.25	0.50	0.00	0.00	0.25	0.00	1.50	2.50	2.25	1.75	0.75	1.25	0.25	0.50	-0.198242	0.317871	1.563965	22.680000	295.260010	-42.139999	146.00	0.21	-0.03
3.29	16.75	15.00	8.75	9.50	1.25	5.00	1.25	2.25	1.75	2.50	2.00	1.00	2.00	2.25	2.00	1.25	-0.337891	0.076172	0.943359	-0.840000	6.720000	0.980000	932.00	-0.19	-0.06	0.00	0.25	0.00	0.25	0.00	0.50	0.25	0.00	1.25	1.75	1.75	1.00	0.75	0.25	0.50	0.50	0.459961	0.196777	1.389160	38.779999	259.700012	-44.939999	113.00	0.19	-0.05
3.30	17.00	15.50	8.75	9.50	1.25	5.00	1.25	2.50	1.75	2.75	1.75	1.25	1.50	2.00	2.25	1.25	-0.316895	0.055176	0.949707	-3.010000	5.460000	-0.350000	944.00	-0.20	-0.06	0.00	0.25	0.25	0.50	0.00	0.25	0.25	0.00	1.25	1.50	1.50	1.00	0.50	0.00	0.00	0.25	1.270020	-0.018555	2.305176	33.599998	200.339996	-56.279999	97.00	0.14	-0.04
3.31	18.00	15.25	8.75	9.75	1.25	5.25	1.50	2.50	1.75	2.50	1.75	1.00	1.50	2.50	1.75	1.25	-0.301270	0.046875	0.940918	-1.610000	5.250000	0.280000	957.00	-0.20	-0.06	0.00	0.25	0.25	0.50	0.00	0.25	0.25	0.25	0.25	1.25	1.25	1.00	0.25	0.25	0.25	0.25	0.119141	0.401855	3.259766	15.750000	115.989998	-56.770000	83.00	0.12	-0.10
3.32	17.50	15.75	8.75	9.75	1.25	5.50	1.75	3.00	1.75	2.75	2.00	1.25	1.75	2.25	2.50	1.75	-0.288574	0.041504	0.936523	0.770000	5.390000	1.330000	995.00	-0.19	-0.06	0.25	0.25	0.25	0.75	0.25	0.00	0.50	0.00	0.25	1.25	1.25	0.50	0.00	0.00	0.25	0.25	1.192383	0.223145	2.435059	-10.570000	15.890000	-45.080002	77.00	0.07	-0.03
3.33	18.00	15.75	9.25	10.00	1.50	5.75	1.75	3.00	2.00	2.75	2.00	1.25	2.00	2.00	2.00	1.25	-0.294922	0.050781	0.938477	3.500000	5.740000	2.310000	1012.00	-0.19	-0.06	0.00	0.00	0.00	0.50	0.00	0.25	0.25	0.25	0.50	1.50	1.25	0.00	0.25	0.00	0.00	0.25	0.867676	0.338867	1.646484	-41.790001	-60.410000	-29.960001	65.00	0.14	-0.05
3.34	17.50	15.50	9.25	10.00	1.50	5.75	1.75	3.25	1.75	2.75	2.00	1.50	1.50	2.50	2.00	1.50	-0.299316	0.048828	0.929688	6.230000	6.230000	3.220000	1009.00	-0.19	-0.06	0.00	0.00	0.25	0.25	0.00	0.25	0.25	0.00	0.75	1.25	1.25	0.50	0.25	0.00	0.00	0.25	0.692871	0.344727	1.197266	-59.360001	-100.169998	-17.430000	68.00	0.16	-0.02
3.35	17.25	15.25	9.00	10.00	1.50	6.00	2.00	3.50	2.00	2.75	2.00	1.50	2.25	2.50	2.00	1.50	-0.301758	0.052734	0.937012	8.750000	6.020000	4.130000	1023.00	-0.18	-0.07	0.25	0.00	0.25	0.25	0.25	0.00	0.25	0.25	0.25	1.25	1.00	0.75	0.25	0.00	0.00	0.25	0.714844	0.378418	0.830566	-52.009998	-114.169998	-6.860000	68.00	0.11	-0.07
3.36	17.00	15.50	9.25	10.25	1.50	6.25	2.00	4.25	1.50	2.75	2.00	1.50	2.50	2.00	2.00	1.75	-0.298828	0.059082	0.929688	10.150000	5.670000	4.480000	1038.00	-0.18	-0.08	0.25	0.00	0.25	0.25	0.00	0.25	0.25	0.00	0.75	1.25	1.00	0.50	0.25	0.00	0.25	0.25	0.625977	0.395508	0.716309	-31.290001	-117.459999	1.260000	71.00	0.14	-0.01
3.37	16.75	15.00	9.50	10.00	1.50	6.50	2.00	4.00	2.00	3.00	2.25	1.50	2.25	2.50	2.25	1.75	-0.311035	0.073242	0.943359	10.500000	5.390000	4.340000	1048.00	-0.17	-0.07	0.00	0.00	0.00	0.25	0.00	0.25	0.25	0.00	0.75	1.00	0.50	0.25	0.50	0.00	0.00	0.25	0.560547	0.416504	0.719238	-3.920000	-118.720001	8.960000	51.00	0.16	-0.02
3.38	16.50	14.75	9.25	10.25	1.50	6.50	1.75	4.25	2.00	3.00	2.25	1.75	2.75	2.50	2.25	1.50	-0.312012	0.072754	0.940430	10.010000	4.900000	3.640000	1048.00	-0.17	-0.08	0.00	0.00	0.50	0.75	0.00	0.75	0.25	0.00	0.00	1.25	0.75	0.50	0.25	0.00	0.25	0.25	0.496094	0.372070	0.810547	22.750000	-123.270004	18.480000	69.00	0.05	-0.10
3.39	16.25	14.50	8.75	10.00	1.50	6.75	2.00	5.00	2.00	3.00	2.25	1.75	2.75	2.50	2.25	1.75	-0.304688	0.069336	0.937012	8.960000	4.200000	3.010000	1056.00	-0.16	-0.08	0.00	0.00	0.25	0.25	0.00	0.25	0.25	0.00	0.25	0.75	0.75	0.25	0.00	0.00	0.25	0.00	0.433105	0.297852	0.934570	39.130001	-134.399994	29.049999	43.00	0.00	0.00
3.40	16.25	14.75	9.00	10.00	1.50	6.75	2.00	5.00	2.00	3.00	2.50	1.75	2.50	2.50	2.50	2.00	-0.300293	0.072754	0.928711	7.350000	4.130000	2.030000	1067.00	-0.16	-0.08	0.25	0.00	0.00	0.25	0.25	0.25	0.25	0.00	0.00	0.50	0.75	0.50	0.25	0.00	0.00	0.00	0.355957	0.220215	1.095703	42.070000	-152.669998	40.389999	42.00	0.00	0.00
3.41	15.50	14.25	8.75	10.25	1.50	7.00	2.00	5.00	2.00	3.25	2.25	2.00	3.25	2.75	2.50	1.50	-0.302734	0.077148	0.929688	5.950000	4.200000	1.260000	1066.00	-0.15	-0.09	0.00	0.25	0.25	0.50	0.00	0.00	0.25	0.00	0.00	0.75	0.75	0.25	0.00	0.00	0.25	0.25	0.169434	0.143066	1.454590	27.440001	-212.240005	62.160000	44.00	0.00	0.00
3.42	15.00	13.75	8.75	9.75	1.50	7.00	2.00	5.00	1.75	3.25	2.75	1.75	3.50	2.25	2.25	2.00	-0.295898	0.072754	0.931152	5.390000	4.620000	0.490000	1044.00	-0.15	-0.09	0.00	0.00	0.00	0.00	0.00	0.00	0.25	0.00	0.00	0.50	0.50	0.50	0.25	0.00	0.00	0.25	0.047852	0.135254	1.583008	21.139999	-253.190002	68.669998	27.00	0.00	0.00
3.43	14.75	13.50	9.00	10.00	1.75	7.00	2.00	5.00	2.25	3.25	2.25	2.25	3.50	2.25	2.50	2.00	-0.295410	0.069336	0.925293	5.390000	5.320000	0.000000	1059.00	-0.15	-0.09	0.00	0.00	0.00	0.50	0.00	0.25	0.25	0.00	0.00	0.75	0.50	0.25	0.00	0.25	0.00	0.00	-0.082520	0.106934	1.605957	19.110001	-296.799988	70.419998	36.00	0.00	0.00
3.44	14.00	12.75	8.50	9.50	1.50	7.25	2.00	5.25	2.00	3.00	2.50	2.25	4.00	2.50	3.00	1.25	-0.300781	0.066895	0.926270	6.020000	6.090000	-0.210000	1038.00	-0.14	-0.09	0.00	0.00	0.00	0.25	0.00	0.00	0.25	0.25	0.00	0.75	0.50	0.25	0.25	0.25	0.00	0.00	-0.228516	0.096680	1.502441	20.580000	-335.860016	67.129997	36.00	0.00	0.00
3.45	13.25	12.50	8.25	9.50	1.50	7.25	2.00	5.25	1.75	3.25	2.50	2.25	4.00	2.00	2.50	2.00	-0.302734	0.078125	0.927246	7.490000	7.000000	-0.210000	1015.00	-0.14	-0.10	0.00	0.00	0.00	0.25	0.00	0.25	0.25	0.25	0.50	0.25	0.75	0.00	0.25	0.00	0.00	0.25	-0.380859	0.061523	1.336426	24.010000	-364.000000	60.689999	40.00	0.00	0.00
3.46	12.50	11.75	8.25	9.25	1.50	7.50	2.00	5.50	2.25	3.00	3.00	2.75	4.50	2.50	2.50	1.75	-0.300781	0.083496	0.928711	7.420000	7.420000	-0.140000	1028.00	-0.12	-0.10	0.00	0.25	0.00	0.25	0.00	0.00	0.25	0.00	0.00	0.50	0.50	0.00	0.00	0.00	0.00	0.25	-0.508789	0.019531	1.195312	27.440001	-377.230011	52.709999	25.00	0.00	0.00
3.47	12.25	11.25	8.00	9.00	1.50	7.50	2.00	5.75	2.00	3.25	3.00	2.75	5.00	2.50	2.50	2.00	-0.298828	0.077148	0.928711	6.860000	7.770000	-0.140000	1023.00	-0.12	-0.11	0.00	0.00	0.25	0.25	0.25	0.25	0.25	0.25	0.00	0.50	0.25	0.00	0.00	0.00	0.00	0.25	-0.586426	-0.028320	1.116211	27.160000	-379.119995	43.889999	33.00	0.00	0.00
3.48	11.00	10.50	7.75	9.00	1.50	7.75	2.00	5.75	2.25	3.50	3.25	2.75	4.50	2.50	3.00	2.25	-0.303223	0.085938	0.923340	6.230000	8.120000	-0.560000	1013.00	-0.10	-0.11	0.00	0.00	0.25	0.00	0.25	0.50	0.25	0.00	0.00	0.50	0.25	0.00	0.00	0.00	0.00	0.00	-0.658203	-0.043945	1.091797	21.840000	-374.010010	34.650002	27.00	0.00	0.00
3.49	10.75	9.75	7.75	8.75	1.50	7.75	2.00	5.75	2.25	3.50	3.00	3.00	5.00	3.25	3.00	2.25	-0.311523	0.081055	0.927246	5.530000	8.400000	-0.840000	1011.00	-0.10	-0.11	0.00	0.00	0.00	0.25	0.00	0.25	0.25	0.00	0.00	0.25	0.25	0.00	0.00	0.00	0.00	0.25	-0.762695	-0.030273	1.137207	12.390000	-365.750000	25.410000	19.00	0.00	0.00
3.50	9.75	9.25	7.50	8.50	1.50	7.75	2.25	6.25	2.50	3.50	3.25	3.00	5.50	3.25	3.25	2.00	-0.310059	0.078613	0.927734	4.970000	8.610000	-1.050000	1013.00	-0.08	-0.11	0.00	0.25	0.25	0.25	0.25	0.25	0.25	0.00	0.25	0.50	0.25	0.00	0.00	0.00	0.00	0.25	-0.893066	0.009277	1.185547	1.890000	-356.369995	16.660000	35.00	0.00	0.00
3.51	9.50	9.00	7.50	8.25	1.50	8.00	2.25	6.50	2.75	4.00	3.50	3.25	5.50	3.25	2.75	2.25	-0.315918	0.087891	0.924316	4.900000	8.330000	-1.050000	1024.00	-0.08	-0.11	0.00	0.00	0.00	0.75	0.25	0.25	0.25	0.00	0.00	0.25	0.00	0.00	0.00	0.25	0.00	0.00	-0.961914	0.099121	1.216797	-8.330000	-344.820007	9.100000	26.00	0.00	0.00
3.52	9.00	8.25	7.50	8.00	1.50	8.25	2.25	6.50	2.75	4.00	3.50	3.50	5.75	3.25	3.25	2.25	-0.317871	0.083008	0.923340	4.620000	8.400000	-0.910000	1021.00	-0.07	-0.11	0.75	0.00	0.00	0.00	0.00	0.25	0.25	0.00	0.00	0.25	0.25	0.00	0.00	0.00	0.25	0.25	-1.002441	0.182617	1.215820	-15.050000	-332.640015	3.850000	28.00	0.00	0.00
3.53	8.00	8.00	7.25	8.00	1.50	8.00	2.25	7.00	2.50	3.75	3.75	3.50	6.00	3.25	2.00	2.75	-0.319336	0.081543	0.924316	4.270000	8.540000	-0.770000	995.00	-0.07	-0.12	0.00	0.00	0.25	0.25	0.00	0.00	0.00	0.00	0.00	0.50	0.25	0.00	0.00	0.00	0.00	0.25	-1.019531	0.313965	1.284668	-17.010000	-320.670013	1.050000	18.00	0.00	0.00
3.54	8.00	7.50	7.00	7.75	1.50	8.00	2.50	7.25	3.00	4.25	4.00	3.50	6.25	3.75	3.50	2.50	-0.313477	0.083984	0.920898	3.990000	8.540000	-0.490000	1034.00	-0.05	-0.12	0.00	0.00	0.25	0.50	0.00	0.00	0.25	0.00	0.00	0.50	0.00	0.00	0.00	0.00	0.00	0.25	-1.010254	0.393555	1.390625	-15.960000	-308.980011	1.330000	22.00	0.00	0.00
3.55	7.50	7.00	6.50	7.75	1.50	8.00	2.50	7.50	3.00	4.25	4.50	4.25	6.50	3.25	3.25	3.00	-0.324707	0.097168	0.930664	3.710000	8.750000	-0.210000	1033.00	-0.04	-0.12	0.00	0.00	0.00	0.25	0.00	0.25	0.25	0.00	0.00	0.25	0.00	0.00	0.00	0.00	0.00	0.00	-1.058105	0.509766	1.659180	-16.379999	-294.279999	8.470000	14.00	0.00	0.00
3.56	7.00	6.75	6.50	7.50	1.50	8.25	2.50	7.75	3.00	4.25	4.75	4.25	7.00	3.75	3.25	3.00	-0.322754	0.088867	0.926758	3.150000	8.750000	-0.140000	1042.00	-0.03	-0.13	0.00	0.00	0.25	0.25	0.00	0.25	0.00	0.00	0.00	0.25	0.25	0.00	0.00	0.00	0.00	0.00	-1.134766	0.509766	1.756836	-16.379999	-294.279999	8.470000	16.00	0.00	0.00
3.57	6.25	6.50	6.25	7.50	1.50	8.00	2.75	7.75	3.25	4.50	5.00	4.75	7.00	3.75	3.75	3.00	-0.326172	0.087402	0.920898	2.730000	8.680000	-0.350000	1051.00	-0.02	-0.13	0.00	0.00	0.00	0.50	0.00	0.25	0.00	0.00	0.00	0.25	0.00	0.00	0.00	0.00	0.00	0.00	-1.189453	0.618652	1.789551	-1.750000	-290.149994	22.750000	13.00	0.00	0.00
3.58	6.00	6.00	6.00	7.00	1.50	8.25	2.75	8.00	3.50	4.75	5.25	5.25	7.50	3.75	3.75	2.75	-0.329102	0.100098	0.921387	1.960000	8.680000	-0.420000	1060.00	-0.01	-0.13	0.00	0.00	0.00	0.25	0.00	0.25	0.25	0.00	0.00	0.25	0.25	0.00	0.00	0.00	0.00	0.00	-1.262695	0.636719	1.801270	13.860000	-289.029999	31.990000	17.00	0.00	0.00
3.59	5.50	5.50	5.75	7.00	1.50	8.25	3.00	8.25	3.75	5.00	5.75	5.50	7.50	3.75	4.50	3.25	-0.332031	0.092773	0.917480	1.050000	8.470000	-0.350000	1083.00	0.00	-0.13	0.25	0.00	0.25	0.25	0.00	0.00	0.00	0.00	0.00	0.50	0.00	0.00	0.00	0.00	0.00	0.00	-1.338867	0.641602	1.808594	28.840000	-286.649994	42.770000	16.00	0.00	0.00
3.60	5.00	5.50	5.75	6.75	1.50	8.25	3.00	8.25	4.00	5.25	6.00	5.75	7.50	4.00	4.50	3.00	-0.327637	0.096191	0.923828	0.980000	8.050000	-0.210000	1088.00	0.01	-0.13	0.00	0.00	0.00	0.50	0.00	0.25	0.25	0.25	0.00	0.00	0.00	0.00	0.00	0.00	0.00	0.25	-1.415039	0.629395	1.805176	37.240002	-283.290009	54.250000	20.00	0.00	0.00
3.61	5.00	5.00	5.75	6.25	1.50	8.25	3.25	8.25	4.00	5.25	6.50	5.75	7.75	4.25	4.50	3.00	-0.333008	0.087891	0.921875	1.050000	7.980000	0.000000	1092.00	0.02	-0.12	0.00	0.00	0.00	0.50	0.00	0.25	0.25	0.00	0.25	0.25	0.00	0.00	0.00	0.00	0.25	0.00	-1.535156	0.635254	1.812012	39.900002	-279.720001	65.239998	24.00	0.00	0.00
3.62	4.50	4.50	5.25	6.25	1.50	8.50	3.25	8.50	4.25	5.75	6.50	6.25	8.00	4.25	4.25	3.50	-0.341309	0.100586	0.925781	1.190000	8.190000	0.210000	1100.00	0.03	-0.13	0.00	0.00	0.25	0.75	0.50	0.50	0.25	0.00	0.00	0.00	0.50	0.00	0.00	0.00	0.00	0.00	-1.620117	0.659180	1.781250	48.230000	-276.149994	75.320000	37.00	0.00	0.00
3.63	4.00	4.75	5.50	6.25	1.50	8.25	3.50	8.50	4.75	5.75	6.50	6.75	8.25	4.50	4.50	3.25	-0.332520	0.092285	0.919434	1.330000	8.750000	0.560000	1122.00	0.03	-0.13	0.00	0.00	0.00	0.00	0.00	0.25	0.25	0.00	0.00	0.25	0.00	0.00	0.00	0.00	0.00	0.00	-1.708008	0.612793	1.744141	66.570000	-273.489990	83.440002	11.00	0.00	0.00
3.64	3.25	4.25	5.00	6.00	1.50	8.00	3.50	8.75	4.75	6.00	7.00	6.75	8.50	4.50	5.00	3.50	-0.338867	0.085449	0.919434	1.470000	9.730000	0.980000	1118.00	0.04	-0.13	0.00	0.00	0.50	0.50	0.00	0.00	0.00	0.25	0.00	0.25	0.25	0.00	0.00	0.00	0.00	0.00	-1.807129	0.497070	1.617676	89.739998	-269.010010	89.040001	24.00	0.00	0.00
3.65	3.25	3.75	4.50	5.50	1.25	8.00	3.50	8.75	4.75	6.50	7.25	7.00	8.50	5.00	5.00	3.50	-0.335938	0.096191	0.925293	1.610000	10.920000	1.190000	1114.00	0.06	-0.13	0.00	0.00	0.00	0.25	0.50	0.00	0.25	0.00	0.00	0.25	0.25	0.25	0.00	0.00	0.25	0.00	-1.881836	0.306641	1.275391	109.199997	-260.820007	91.559998	27.00	0.00	0.00
3.66	2.50	3.50	4.25	5.50	1.25	8.00	3.75	8.75	5.00	6.50	7.50	7.50	9.00	4.75	5.00	3.75	-0.331055	0.090332	0.922363	2.170000	12.180000	1.610000	1121.00	0.06	-0.13	0.00	0.00	0.75	0.25	0.00	0.25	0.25	0.00	0.00	0.25	0.00	0.00	0.25	0.00	0.00	0.25	-2.009766	0.062500	1.044434	144.199997	-246.820007	102.550003	28.00	0.00	0.00
3.67	2.50	4.00	3.00	5.25	1.25	7.75	3.75	9.00	5.25	7.00	7.75	7.50	9.25	4.75	5.00	4.00	-0.331543	0.094238	0.918945	2.940000	13.440001	2.170000	1125.00	0.07	-0.13	0.00	0.00	0.25	0.50	0.25	0.00	0.00	0.25	0.00	0.25	0.25	0.00	0.00	0.00	0.00	0.00	-2.323242	-0.361816	0.774414	167.229996	-228.550003	112.629997	24.00	0.00	0.00
3.68	2.25	3.50	3.75	5.25	1.25	7.75	3.75	9.00	5.50	6.75	7.75	7.75	9.75	4.75	5.25	4.00	-0.336426	0.091797	0.916992	3.780000	15.400000	2.450000	1138.00	0.07	-0.13	0.00	0.25	0.00	0.00	0.00	0.00	0.25	0.00	0.25	0.00	0.00	0.00	0.00	0.00	0.00	0.25	-2.667969	-0.595703	0.469727	151.759995	-204.330002	107.870003	13.00	0.00	0.00
3.69	1.50	3.75	3.25	5.00	1.00	7.50	4.00	9.25	5.75	7.00	8.00	8.00	10.50	5.00	5.50	4.25	-0.340332	0.094238	0.916992	5.040000	17.920000	2.870000	1153.00	0.08	-0.14	0.00	0.00	0.00	0.00	0.00	0.00	0.25	0.00	0.25	0.25	0.00	0.00	0.25	0.00	0.00	0.00	-3.224609	-0.659668	0.144043	123.410004	-178.710007	91.629997	14.00	0.00	0.00
3.70	1.00	3.00	3.00	4.25	1.00	7.50	4.00	9.25	5.75	7.50	8.00	8.00	10.75	5.25	5.50	4.50	-0.343750	0.095703	0.916016	6.090000	20.370001	3.710000	1138.00	0.10	-0.14	0.00	0.00	0.00	0.25	0.00	0.00	0.25	0.00	0.00	0.50	0.00	0.00	0.00	0.00	0.00	0.25	-3.521484	-0.662598	-0.706055	82.949997	-106.610001	32.689999	16.00	0.00	0.00
3.71	1.00	2.50	2.25	3.75	0.75	7.25	3.75	9.25	5.75	7.50	8.25	8.25	11.25	5.25	5.50	4.50	-0.346680	0.096680	0.918945	8.960000	24.080000	4.270000	1116.00	0.11	-0.14	0.00	0.00	0.00	0.50	0.00	0.25	0.00	0.00	0.00	0.50	0.00	0.00	0.00	0.00	0.25	0.00	-2.974121	-0.649902	-0.862793	64.540001	-41.230000	2.100000	19.00	0.00	0.00
