# time	left pressure 1[N/cm²]	left pressure 2[N/cm²]	left pressure 3[N/cm²]	left pressure 4[N/cm²]	left pressure 5[N/cm²]	left pressure 6[N/cm²]	left pressure 7[N/cm²]	left pressure 8[N/cm²]	left pressure 9[N/cm²]	left pressure 10[N/cm²]	left pressure 11[N/cm²]	left pressure 12[N/cm²]	left pressure 13[N/cm²]	left pressure 14[N/cm²]	left pressure 15[N/cm²]	left pressure 16[N/cm²]	left acceleration X[g]	left acceleration Y[g]	left acceleration Z[g]	left angular X[dps]	left angular Y[dps]	left angular Z[dps]	left total force[N]	left center of pressure X[%]	left center of pressure Y[%]	right pressure 1[N/cm²]	right pressure 2[N/cm²]	right pressure 3[N/cm²]	right pressure 4[N/cm²]	right pressure 5[N/cm²]	right pressure 6[N/cm²]	right pressure 7[N/cm²]	right pressure 8[N/cm²]	right pressure 9[N/cm²]	right pressure 10[N/cm²]	right pressure 11[N/cm²]	right pressure 12[N/cm²]	right pressure 13[N/cm²]	right pressure 14[N/cm²]	right pressure 15[N/cm²]	right pressure 16[N/cm²]	right acceleration X[g]	right acceleration Y[g]	right acceleration Z[g]	right angular X[dps]	right angular Y[dps]	right angular Z[dps]	right total force[N]	right center of pressure X[%]	right center of pressure Y[%]
0.00																										1.50	1.75	2.25	3.50	3.25	3.50	1.25	5.25	2.25	2.00	2.25	2.75	6.00	5.25	0.50	1.25	-0.142090	0.059570	0.989746	-2.520000	-3.080000	2.030000	479.00	0.03	-0.13
0.01																										1.50	2.00	2.50	3.50	3.75	3.50	1.25	5.25	2.50	2.25	2.25	2.75	6.00	5.25	0.25	1.00	-0.137207	0.063965	0.984375	-2.590000	-3.150000	1.890000	492.00	0.03	-0.12
0.02																										1.50	2.00	2.50	3.75	3.50	3.50	1.25	5.25	2.50	2.25	2.25	3.00	6.00	5.25	0.50	0.75	-0.141602	0.061523	0.988770	-2.590000	-3.150000	1.820000	496.00	0.03	-0.13
0.03	0.50	1.00	1.50	2.00	1.50	1.25	0.75	2.25	2.50	2.00	2.25	2.00	3.25	2.50	0.50	0.25	-0.192871	0.047852	0.963379	-1.330000	6.230000	-1.260000	283.00	0.07	-0.09																									
0.04	0.75	1.25	1.25	1.75	1.50	1.25	0.75	2.25	2.50	2.00	2.25	2.00	3.00	2.25	0.25	0.50	-0.195801	0.049316	0.955078	-1.400000	6.230000	-1.330000	277.00	0.06	-0.09	1.50	1.75	2.50	3.50	3.75	3.75	1.25	5.25	2.25	2.00	2.25	2.50	6.25	5.25	0.50	0.75	-0.143555	0.061523	0.982422	-2.870000	-3.640000	1.890000	487.00	0.03	-0.13
0.05																										1.50	2.00	2.50	3.50	3.75	3.75	1.25	5.25	2.25	2.00	2.25	2.75	6.00	5.25	0.50	1.00	-0.136230	0.060547	0.981934	-2.870000	-3.780000	1.890000	491.00	0.02	-0.13
0.06	0.75	1.00	1.25	1.25	1.50	1.25	0.75	2.00	2.00	2.00	2.25	2.00	3.00	2.25	0.50	0.25	-0.194336	0.045898	0.959961	-1.680000	6.510000	-1.540000	260.00	0.07	-0.09	1.25	1.75	2.50	3.75	4.00	3.75	1.25	5.25	2.25	2.25	2.50	2.75	6.25	5.25	0.50	0.75	-0.144043	0.057617	0.986328	-2.800000	-3.570000	1.680000	498.00	0.03	-0.13
0.07	0.75	1.50	1.25	2.00	1.50	1.25	0.75	2.25	2.25	2.00	2.25	2.00	3.00	2.50	0.25	0.25	-0.198730	0.045410	0.959961	-1.540000	6.160000	-1.260000	279.00	0.05	-0.10	1.50	2.00	2.50	3.75	4.00	3.75	1.25	5.25	2.50	2.00	2.50	2.75	6.00	5.25	0.50	0.75	-0.145996	0.059082	0.985840	-2.800000	-3.430000	1.750000	501.00	0.02	-0.12
0.08	0.50	1.25	1.25	2.00	1.50	1.25	0.75	2.25	2.50	2.00	2.25	2.00	3.25	2.25	0.50	0.25	-0.192383	0.045410	0.959473	-1.680000	6.580000	-1.400000	280.00	0.06	-0.10	1.50	1.25	2.50	3.75	4.00	3.50	1.25	5.25	2.25	2.00	2.00	2.50	6.25	5.25	0.50	0.75	-0.136230	0.058594	0.989746	-2.730000	-3.430000	1.820000	483.00	0.03	-0.13
0.09	0.75	1.25	1.50	1.75	1.50	1.25	0.75	2.25	2.25	2.00	2.00	2.00	3.00	2.25	0.50	0.25	-0.192871	0.046875	0.961914	-1.610000	6.860000	-1.470000	275.00	0.05	-0.09	1.50	1.75	2.50	3.75	4.00	3.50	1.25	5.25	2.25	2.25	2.50	2.50	6.25	5.25	0.50	1.00	-0.139160	0.055176	0.985840	-2.660000	-3.360000	1.960000	496.00	0.03	-0.13
0.10	0.75	1.25	1.50	2.00	1.75	1.25	0.75	2.25	2.50	1.75	2.25	2.00	3.25	2.50	0.50	0.25	-0.192871	0.045898	0.962402	-1.610000	6.860000	-1.400000	288.00	0.06	-0.09	1.50	2.00	2.50	3.75	4.00	3.75	1.25	5.25	2.50	2.00	2.25	2.50	6.25	5.25	0.50	1.00	-0.136230	0.062012	0.989258	-2.450000	-3.080000	1.820000	500.00	0.02	-0.13
0.11	0.75	1.25	1.50	2.00	1.50	1.25	0.75	2.25	2.50	2.00	2.25	2.00	3.25	2.50	0.25	0.50	-0.193359	0.041016	0.960938	-1.540000	6.930000	-1.400000	287.00	0.06	-0.09	1.50	2.00	2.50	3.50	4.00	3.75	1.50	5.25	2.25	2.25	2.50	2.50	6.25	5.50	0.50	0.75	-0.141602	0.061523	0.990234	-2.380000	-3.010000	1.960000	503.00	0.03	-0.12
0.12	0.50	1.00	1.25	1.50	1.50	1.50	0.75	2.25	2.50	2.00	2.50	1.75	3.25	2.25	0.50	0.25	-0.190430	0.048340	0.956055	-1.610000	7.210000	-1.610000	275.00	0.07	-0.10	1.50	2.00	2.50	3.50	4.00	3.75	1.50	5.50	2.25	2.00	2.50	2.75	6.25	5.25	0.50	1.00	-0.142090	0.058105	0.983398	-2.310000	-2.940000	1.960000	506.00	0.03	-0.13
0.13	0.75	1.00	1.25	1.50	1.50	1.25	0.75	2.25	2.50	2.25	2.25	2.00	3.00	2.25	0.25	0.25	-0.197266	0.051270	0.963379	-1.610000	7.210000	-1.610000	273.00	0.07	-0.09	1.50	1.75	2.50	3.50	3.75	3.50	1.25	5.50	2.50	2.00	2.25	2.75	6.25	5.25	0.50	1.00	-0.138184	0.060059	0.982422	-2.240000	-2.870000	1.960000	495.00	0.03	-0.13
0.14	0.75	1.25	1.25	1.75	1.25	1.25	0.75	2.25	2.25	2.00	2.25	2.25	3.25	2.50	0.50	0.25	-0.195801	0.046387	0.962402	-1.470000	7.280000	-1.750000	279.00	0.07	-0.10	1.50	2.00	2.50	3.25	4.00	3.75	1.50	5.50	2.50	2.00	2.00	2.50	6.25	5.25	0.50	0.75	-0.136230	0.062500	0.989258	-2.380000	-2.870000	1.890000	498.00	0.02	-0.12
0.15	0.75	1.00	1.00	1.50	1.50	1.25	0.75	2.25	2.50	2.00	2.50	2.50	3.25	2.25	0.50	0.25	-0.191406	0.050293	0.959961	-1.330000	7.070000	-1.610000	280.00	0.08	-0.10	1.50	1.75	2.50	3.75	4.00	3.75	1.50	5.50	2.25	2.25	2.25	2.50	6.25	5.50	0.25	0.75	-0.141113	0.062988	0.988770	-2.380000	-2.520000	1.820000	502.00	0.02	-0.12
0.16	0.50	1.25	1.50	1.75	1.25	1.25	0.75	2.25	2.25	2.00	2.00	2.00	3.25	2.50	0.50	0.50	-0.196289	0.044434	0.964355	-1.400000	7.000000	-1.610000	275.00	0.07	-0.10	1.50	1.75	2.50	3.50	4.00	3.50	1.50	5.50	2.25	2.25	2.50	2.75	6.25	5.50	0.25	1.00	-0.141113	0.059082	0.978516	-2.310000	-2.590000	1.750000	503.00	0.03	-0.12
0.17	0.75	0.75	1.25	2.00	1.25	1.25	0.75	2.00	2.50	2.00	2.25	2.00	3.00	2.50	0.25	0.25	-0.193848	0.042969	0.958008	-1.400000	7.000000	-1.540000	269.00	0.07	-0.09	1.50	1.50	2.50	3.50	4.00	3.50	1.50	5.50	2.25	2.00	2.50	2.75	6.50	5.25	0.50	1.00	-0.139160	0.062500	0.981934	-2.380000	-2.520000	1.610000	501.00	0.03	-0.13
0.18	0.50	1.25	1.25	1.75	1.50	1.00	0.75	2.25	2.25	2.00	2.25	2.25	3.25	2.00	0.25	0.25	-0.193848	0.047852	0.958496	-1.330000	7.140000	-1.610000	270.00	0.06	-0.10	1.50	1.75	2.50	3.75	4.00	3.50	1.50	5.50	2.50	2.25	2.75	2.75	6.50	5.25	0.50	0.75	-0.144531	0.059570	0.983398	-2.590000	-2.590000	1.540000	513.00	0.03	-0.12
0.19	0.50	1.00	1.25	1.75	1.25	1.25	0.75	2.25	2.25	2.00	2.25	2.25	3.50	2.50	0.50	0.25	-0.196777	0.051270	0.958496	-1.260000	7.140000	-1.540000	276.00	0.08	-0.10	1.75	1.75	2.25	3.25	4.00	3.50	1.50	5.50	2.50	2.00	2.50	2.50	6.25	5.50	0.50	0.75	-0.144531	0.056641	0.984863	-2.450000	-2.590000	1.680000	500.00	0.03	-0.12
0.20	0.75	1.50	1.25	1.75	1.25	1.00	0.75	2.25	2.50	2.25	2.25	2.00	3.25	2.25	0.50	0.25	-0.197266	0.041992	0.958496	-1.260000	7.070000	-1.470000	280.00	0.06	-0.09	1.75	2.00	2.50	3.00	4.00	3.25	1.50	5.50	2.50	2.00	2.50	3.00	6.50	5.50	0.50	0.75	-0.139648	0.057129	0.988281	-2.310000	-2.590000	1.820000	507.00	0.03	-0.12
0.21	0.75	1.00	1.25	1.75	1.25	1.00	0.75	2.25	2.25	2.00	2.25	1.50	3.25	2.25	0.50	0.25	-0.195312	0.048828	0.959473	-1.260000	6.930000	-1.260000	264.00	0.07	-0.09	1.50	1.75	2.50	3.75	3.75	3.75	1.50	5.50	2.50	2.25	2.50	2.75	6.50	5.75	0.50	1.00	-0.145508	0.056152	0.990234	-2.240000	-2.590000	1.820000	516.00	0.03	-0.12
0.22	0.75	1.25	1.25	1.75	1.25	1.25	0.75	2.25	2.25	2.00	2.00	2.25	3.25	2.50	0.50	0.50	-0.195312	0.048828	0.959473	-1.260000	6.930000	-1.260000	278.00	0.07	-0.10	1.25	1.50	2.25	3.50	4.00	3.75	1.50	5.50	2.50	2.00	2.50	2.75	6.75	5.50	0.50	1.00	-0.140625	0.060547	0.988770	-2.170000	-2.520000	1.680000	506.00	0.04	-0.13
0.23	0.50	1.00	1.25	1.75	1.25	1.25	0.75	2.25	2.50	2.25	2.25	2.00	3.25	2.25	0.25	0.25	-0.199219	0.044434	0.962891	-1.260000	7.280000	-1.400000	273.00	0.07	-0.10	1.50	2.25	2.50	3.50	4.25	3.75	1.50	5.75	2.50	2.25	2.50	2.50	6.50	5.50	0.50	1.00	-0.145996	0.063477	0.985840	-2.240000	-2.520000	1.820000	523.00	0.03	-0.12
0.24	0.75	1.25	1.50	2.00	1.50	1.25	0.75	2.25	2.25	2.25	2.50	2.00	3.25	2.50	0.50	0.25	-0.195312	0.046875	0.959961	-1.260000	7.140000	-1.330000	290.00	0.06	-0.10	1.50	2.00	2.25	3.50	4.00	3.50	1.50	5.75	2.75	2.25	2.50	2.75	6.50	5.50	1.00	1.00	-0.144531	0.063477	0.986816	-2.240000	-2.380000	1.680000	523.00	0.04	-0.12
0.25	0.50	1.25	1.25	1.75	1.25	1.00	0.75	2.25	2.25	2.25	2.25	2.25	3.25	2.25	0.50	0.25	-0.193848	0.044434	0.962891	-1.330000	7.210000	-1.260000	274.00	0.07	-0.10	1.50	2.00	2.25	3.50	4.25	3.75	1.50	5.75	2.50	2.00	2.75	2.75	6.50	5.50	0.50	1.00	-0.141113	0.059570	0.988770	-2.310000	-2.100000	1.470000	520.00	0.03	-0.13
0.26	0.50	1.00	1.25	1.75	1.25	1.25	0.75	2.00	2.25	2.00	2.25	2.25	3.25	2.50	0.25	0.25	-0.193359	0.045898	0.964355	-1.330000	7.140000	-1.470000	268.00	0.07	-0.10	1.50	2.00	2.50	3.75	4.25	3.75	1.50	5.75	2.50	2.25	2.75	3.00	6.75	5.75	0.50	1.00	-0.143066	0.060547	0.987305	-2.240000	-1.820000	1.540000	535.00	0.03	-0.13
0.27	0.75	0.75	1.25	1.75	1.25	1.00	0.75	2.25	2.50	2.00	2.50	2.00	3.25	2.50	0.75	0.50	-0.196777	0.046387	0.958984	-1.330000	7.210000	-1.540000	279.00	0.08	-0.09	1.25	1.75	2.25	3.00	4.00	3.75	1.50	5.75	2.50	2.25	2.75	2.75	6.75	5.75	0.50	1.00	-0.139648	0.057617	0.989258	-2.170000	-1.820000	1.680000	514.00	0.04	-0.13
0.28	0.75	1.25	1.25	1.75	1.25	1.25	0.75	2.00	2.00	2.00	2.50	2.00	3.25	2.75	0.50	0.25	-0.201172	0.052734	0.957520	-1.400000	7.560000	-1.680000	274.00	0.07	-0.10	1.25	2.00	2.25	3.25	4.00	3.75	1.50	6.00	2.75	2.25	2.75	3.00	6.75	6.00	0.50	1.00	-0.140625	0.061523	0.995117	-2.030000	-1.680000	1.680000	531.00	0.04	-0.13
0.29	0.50	1.25	1.25	1.25	1.25	1.00	0.75	2.25	2.50	2.25	2.25	2.25	3.25	2.75	0.25	0.25	-0.193359	0.049805	0.957520	-1.540000	7.700000	-1.750000	274.00	0.08	-0.09	1.50	2.00	2.25	3.25	4.25	3.50	1.50	5.75	2.75	2.25	2.50	2.75	6.75	6.00	0.50	1.00	-0.135254	0.060547	0.985352	-2.030000	-1.680000	1.680000	525.00	0.04	-0.12
0.30	0.50	1.00	1.25	2.00	1.25	1.25	0.75	2.25	2.25	2.00	2.50	2.00	3.50	2.50	0.50	0.25	-0.190918	0.050781	0.958984	-1.540000	7.980000	-1.680000	279.00	0.07	-0.10	1.50	2.00	2.25	3.25	4.00	3.75	1.50	6.00	2.75	2.50	2.50	2.75	7.00	5.75	0.50	1.00	-0.146973	0.061523	0.984863	-2.170000	-1.610000	1.750000	531.00	0.04	-0.13
0.31	0.50	1.00	1.00	1.50	1.25	1.00	0.75	2.00	2.50	2.00	2.25	2.00	3.00	2.50	0.25	0.25	-0.197754	0.040039	0.959473	-1.400000	7.910000	-1.680000	258.00	0.08	-0.09	1.25	1.50	2.00	3.25	4.00	3.50	1.50	6.00	2.75	2.50	2.75	3.00	6.75	6.25	0.50	1.00	-0.140625	0.061035	0.990234	-2.240000	-1.610000	1.540000	526.00	0.05	-0.13
0.32	0.50	1.00	1.00	1.50	1.25	1.00	0.75	2.00	2.50	2.00	2.25	2.00	3.25	2.75	0.50	0.25	-0.200195	0.042480	0.957520	-1.330000	7.840000	-1.540000	265.00	0.09	-0.09	1.25	1.75	2.50	3.25	4.00	3.25	1.50	6.00	2.50	2.50	2.75	3.00	7.00	6.00	0.75	1.00	-0.139648	0.064453	0.989258	-2.170000	-1.610000	1.610000	530.00	0.05	-0.13
0.33	0.50	1.25	1.25	2.00	1.25	1.00	0.75	2.00	2.25	2.00	2.25	1.75	3.25	2.75	0.50	0.25	-0.199707	0.042969	0.957031	-1.400000	8.190000	-1.610000	269.00	0.07	-0.09	1.25	2.00	2.25	3.25	4.00	3.50	1.50	6.00	2.75	2.50	2.75	3.00	7.00	6.00	1.00	1.00	-0.147461	0.062988	0.993652	-2.100000	-1.750000	1.610000	538.00	0.05	-0.13
0.34	0.75	0.75	1.25	1.50	1.25	1.25	0.75	2.00	2.75	2.25	2.25	2.00	3.25	2.50	0.50	0.25	-0.201660	0.049316	0.958008	-1.330000	7.980000	-1.400000	274.00	0.08	-0.08	1.50	1.50	2.25	3.25	3.75	3.75	1.75	6.00	2.75	2.25	2.75	2.75	7.00	6.00	0.50	1.00	-0.146484	0.062988	0.994141	-2.030000	-1.820000	1.470000	530.00	0.04	-0.12
0.35	0.50	0.75	1.25	1.50	1.00	0.75	0.75	2.25	2.25	2.00	2.25	2.00	3.25	2.75	0.25	0.25	-0.197266	0.049805	0.958496	-1.190000	7.770000	-1.400000	258.00	0.09	-0.09	1.50	1.75	2.00	3.50	3.75	3.50	1.75	6.00	3.00	2.25	2.75	3.00	7.00	6.00	0.50	1.00	-0.149414	0.059082	0.985840	-1.960000	-1.890000	1.540000	535.00	0.05	-0.12
0.36	0.75	1.00	1.00	1.75	1.25	1.00	0.75	2.00	2.25	2.25	1.75	2.25	3.25	2.50	0.50	0.25	-0.198242	0.047363	0.959961	-1.260000	7.840000	-1.330000	265.00	0.08	-0.09	1.25	1.25	2.00	3.00	3.75	3.75	1.75	6.00	2.75	2.75	2.75	3.00	7.00	6.25	1.00	1.00	-0.147461	0.060547	0.988770	-2.170000	-2.380000	1.680000	534.00	0.06	-0.12
0.37	0.25	1.00	1.00	1.50	1.00	1.00	0.75	2.25	2.00	2.25	2.25	2.00	3.25	2.50	0.50	0.25	-0.199707	0.043945	0.962402	-1.330000	7.700000	-1.330000	257.00	0.09	-0.11	1.00	1.75	2.00	3.25	3.75	3.75	1.50	6.00	2.75	2.50	2.75	3.00	7.25	6.00	0.50	1.00	-0.149902	0.060547	0.993164	-2.240000	-2.660000	1.820000	527.00	0.05	-0.13
0.38	0.25	0.50	1.00	1.50	1.00	0.75	0.50	2.00	2.25	2.00	2.25	2.25	3.25	2.75	0.50	0.25	-0.203125	0.040527	0.958008	-1.400000	7.490000	-1.330000	248.00	0.11	-0.10	1.25	2.00	2.00	3.00	3.75	3.50	1.50	6.00	2.75	2.25	2.75	3.00	7.25	6.25	0.50	1.00	-0.148438	0.064941	0.981445	-2.100000	-2.730000	1.680000	526.00	0.05	-0.13
0.39	0.25	1.00	1.00	1.50	1.00	1.00	0.75	2.00	2.75	2.50	2.75	2.50	3.25	2.75	0.50	0.25	-0.200195	0.049316	0.963379	-1.400000	7.280000	-1.330000	278.00	0.11	-0.09	1.25	1.75	2.25	3.50	3.75	3.25	1.50	6.25	3.00	2.25	2.75	3.25	7.00	6.00	0.50	1.00	-0.139648	0.062500	0.981934	-2.170000	-2.940000	1.820000	535.00	0.05	-0.13
0.40	0.50	1.00	1.00	1.50	1.00	1.00	0.75	2.00	2.25	2.00	2.25	2.25	3.25	2.75	0.25	0.25	-0.198242	0.049316	0.955566	-1.330000	7.070000	-1.400000	259.00	0.09	-0.10	1.50	1.75	2.00	3.00	3.50	3.50	1.50	6.00	3.00	2.25	2.75	3.00	7.25	6.25	0.50	1.00	-0.141602	0.063965	0.985840	-2.170000	-3.010000	1.680000	527.00	0.05	-0.13
0.41	0.50	1.00	1.00	1.25	1.00	1.00	0.75	2.00	2.25	2.00	2.25	2.25	3.25	2.75	0.50	0.25	-0.200195	0.046387	0.962402	-1.400000	7.000000	-1.330000	259.00	0.09	-0.09	1.25	2.00	1.75	3.00	4.00	3.50	1.50	6.25	3.00	2.50	3.00	3.00	7.25	6.25	0.75	1.00	-0.144043	0.062988	0.990234	-2.310000	-3.220000	1.820000	541.00	0.05	-0.13
0.42	0.50	1.00	1.00	1.75	1.00	0.75	0.75	2.00	2.75	2.25	2.50	2.25	3.25	2.50	0.50	0.25	-0.199707	0.050293	0.964844	-1.470000	6.580000	-1.120000	271.00	0.09	-0.09	1.25	1.50	2.25	3.25	4.00	3.75	1.50	6.25	3.00	2.50	2.75	3.25	7.25	6.25	0.50	1.00	-0.145508	0.058594	0.989258	-2.170000	-3.150000	1.750000	545.00	0.05	-0.13
0.43	0.75	1.00	1.00	1.50	1.25	1.00	0.75	2.00	2.50	2.00	2.25	2.25	3.25	2.75	0.50	0.50	-0.199707	0.050293	0.964844	-1.470000	6.580000	-1.120000	271.00	0.09	-0.09	1.00	1.75	2.25	3.25	4.00	3.50	1.75	6.25	3.00	2.50	2.75	3.25	7.25	6.25	0.75	1.00	-0.144043	0.056152	0.984375	-2.240000	-3.150000	1.750000	549.00	0.05	-0.13
0.44	0.50	1.00	1.00	1.25	1.00	0.75	0.75	2.00	2.25	2.00	2.25	2.25	3.25	2.75	0.50	0.25	-0.204590	0.048340	0.959473	-1.750000	6.370000	-1.330000	256.00	0.10	-0.09	1.50	1.50	2.25	3.25	4.00	3.75	1.50	6.25	2.75	2.50	2.75	3.25	7.25	6.00	0.50	1.00	-0.146484	0.060547	0.984375	-2.310000	-3.290000	1.750000	542.00	0.05	-0.13
0.45	0.50	1.00	1.00	1.25	1.00	1.00	0.50	2.25	2.50	2.25	2.25	1.75	3.25	2.75	0.50	0.25	-0.194824	0.050293	0.963867	-1.820000	6.300000	-1.330000	259.00	0.09	-0.09	1.25	1.75	2.25	3.00	4.00	3.75	1.50	6.25	3.00	2.75	2.75	3.00	7.25	6.25	0.75	1.00	-0.145020	0.062012	0.987305	-2.310000	-3.290000	1.610000	547.00	0.05	-0.13
0.46	0.50	1.00	1.25	1.75	1.00	0.75	0.75	2.00	2.50	2.00	2.25	2.00	3.25	2.75	0.50	0.25	-0.196777	0.044922	0.955078	-1.820000	6.370000	-1.330000	265.00	0.09	-0.09	1.25	2.00	2.25	3.25	4.00	3.50	1.75	6.25	3.00	2.50	3.00	3.25	7.50	6.25	0.50	1.00	-0.140625	0.061035	0.990234	-2.240000	-3.220000	1.680000	556.00	0.05	-0.13
0.47	0.50	1.00	1.00	1.25	1.00	0.75	0.75	2.25	2.00	2.00	2.25	2.00	3.25	3.00	0.50	0.25	-0.195801	0.044434	0.957520	-1.890000	6.370000	-1.540000	256.00	0.10	-0.10	1.25	2.00	2.25	3.00	4.00	3.75	1.75	6.25	3.00	2.50	2.75	3.00	7.25	6.25	0.50	1.00	-0.142090	0.062988	0.993164	-2.170000	-3.150000	1.750000	548.00	0.05	-0.12
0.48	0.50	1.00	0.75	1.50	1.00	1.00	0.75	2.00	2.25	2.00	2.25	2.00	3.50	2.75	0.50	0.25	-0.200684	0.045410	0.955566	-1.890000	6.370000	-1.610000	258.00	0.09	-0.10	1.25	1.75	2.25	3.50	4.25	3.75	1.75	6.25	3.00	2.50	2.75	3.00	7.50	6.25	0.75	1.00	-0.140625	0.055176	0.986328	-2.170000	-3.080000	1.680000	559.00	0.05	-0.13
0.49	0.50	0.75	1.00	1.25	1.00	0.75	0.75	2.00	2.25	2.00	2.25	2.00	3.25	2.50	0.50	0.25	-0.199707	0.047363	0.961426	-1.960000	6.720000	-1.540000	249.00	0.10	-0.09	1.00	2.00	2.25	3.25	4.00	3.50	1.75	6.25	3.00	2.50	2.75	3.25	7.50	6.00	0.75	1.00	-0.148926	0.059570	0.993652	-2.170000	-2.940000	1.750000	551.00	0.05	-0.13
0.50	0.75	1.00	1.00	1.25	1.00	0.75	0.75	2.00	2.25	1.75	2.25	2.25	3.25	2.50	0.50	0.25	-0.201660	0.042969	0.961426	-1.890000	6.860000	-1.540000	254.00	0.09	-0.09	1.00	1.75	2.00	3.25	4.00	3.75	1.75	6.25	3.00	2.50	3.00	3.00	7.25	6.00	0.50	1.00	-0.143555	0.056641	0.987793	-2.170000	-2.730000	1.680000	544.00	0.05	-0.13
0.51	0.50	1.00	1.00	1.50	1.00	1.00	0.75	2.00	2.50	2.00	2.25	2.00	3.25	3.00	0.25	0.25	-0.194824	0.049316	0.956543	-1.890000	7.000000	-1.540000	262.00	0.09	-0.09	1.00	1.75	2.25	3.25	4.00	3.75	1.75	6.25	2.75	2.75	2.75	3.25	7.50	6.00	0.25	1.00	-0.139160	0.061035	0.987793	-2.030000	-2.450000	1.680000	545.00	0.05	-0.13
0.52	0.50	1.00	1.00	1.25	1.00	0.75	0.75	2.00	2.25	2.00	2.25	2.25	3.25	3.25	0.50	0.25	-0.201172	0.048340	0.965820	-1.680000	6.930000	-1.470000	260.00	0.10	-0.09	1.25	1.75	2.00	3.25	4.25	3.75	1.75	6.25	2.75	2.50	3.00	3.00	7.50	6.00	0.50	1.00	-0.149414	0.062012	0.986816	-1.960000	-2.380000	1.750000	548.00	0.05	-0.13
0.53	0.50	1.00	1.00	1.25	1.00	0.75	0.75	2.00	2.50	2.25	2.25	2.00	3.25	2.75	0.50	0.25	-0.200195	0.048340	0.958984	-1.820000	7.210000	-1.540000	259.00	0.10	-0.08	1.25	2.00	1.75	3.50	4.00	3.75	1.75	6.25	3.00	2.50	3.00	3.25	7.50	6.25	0.50	1.00	-0.142090	0.059082	0.984375	-2.030000	-2.450000	1.750000	555.00	0.05	-0.13
0.54	0.50	1.00	1.00	1.50	1.00	0.75	0.75	2.00	2.25	2.00	2.25	2.00	3.25	3.00	0.50	0.25	-0.196289	0.043457	0.956543	-1.750000	7.420000	-1.470000	258.00	0.09	-0.09	1.25	1.50	2.00	3.25	4.00	3.50	1.75	6.25	3.00	2.75	3.00	3.50	7.50	6.00	0.75	1.00	-0.145996	0.059570	0.988770	-2.100000	-2.660000	1.680000	554.00	0.06	-0.13
0.55	0.50	1.00	1.00	1.50	1.00	0.75	0.75	2.00	2.50	2.00	2.25	2.00	3.25	2.75	0.50	0.25	-0.200195	0.048828	0.956543	-1.610000	7.210000	-1.540000	259.00	0.09	-0.09	1.25	1.75	2.25	3.25	4.00	3.75	1.75	6.25	3.00	2.50	2.75	3.00	7.50	6.00	0.75	1.00	-0.142090	0.056641	0.994141	-2.170000	-2.800000	1.750000	551.00	0.05	-0.13
0.56	0.50	1.00	0.75	1.25	1.00	0.75	0.75	2.00	2.25	2.00	2.25	2.00	3.25	2.75	0.50	0.25	-0.199219	0.045898	0.959961	-1.540000	7.000000	-1.400000	251.00	0.10	-0.09	1.25	1.50	2.00	3.00	4.00	3.75	1.75	6.50	2.75	2.75	3.00	3.25	7.50	6.00	0.50	1.00	-0.145996	0.058594	0.983887	-2.170000	-2.800000	1.680000	549.00	0.05	-0.13
0.57	0.50	1.00	1.00	1.50	1.00	0.75	0.75	2.25	2.25	2.00	2.25	2.00	3.25	2.75	0.50	0.25	-0.204590	0.051758	0.957520	-1.470000	7.140000	-1.400000	260.00	0.09	-0.10	1.25	1.75	2.00	3.25	4.00	3.50	1.75	6.25	2.75	2.50	3.00	3.25	7.50	6.00	0.50	1.00	-0.148926	0.056152	0.979492	-2.310000	-2.940000	1.750000	545.00	0.05	-0.13
0.58	0.50	1.00	0.75	1.25	1.00	0.75	0.75	2.00	2.50	2.25	2.25	2.00	3.25	2.75	0.50	0.25	-0.206055	0.047363	0.962891	-1.540000	7.070000	-1.400000	256.00	0.10	-0.09	1.25	1.50	2.00	3.25	4.00	3.50	1.75	6.25	2.75	2.75	3.00	3.25	7.50	6.00	0.50	1.00	-0.140625	0.060547	0.987305	-2.380000	-2.870000	1.680000	545.00	0.05	-0.13
0.59	0.25	1.00	1.00	1.25	1.00	0.75	0.75	2.00	2.50	2.25	2.25	2.25	3.25	2.75	0.50	0.25	-0.201172	0.050293	0.958984	-1.540000	6.930000	-1.260000	259.00	0.11	-0.09	1.25	1.00	2.00	3.50	3.75	3.50	1.75	6.25	3.00	2.50	3.00	3.00	7.50	6.00	0.50	1.00	-0.145508	0.061035	0.985840	-2.310000	-2.870000	1.680000	539.00	0.06	-0.13
0.60	0.75	0.75	1.00	1.50	1.00	0.75	0.75	2.00	2.00	2.25	2.00	2.00	3.25	3.25	0.50	0.25	-0.204590	0.045410	0.958984	-1.540000	6.860000	-1.330000	257.00	0.10	-0.09	1.25	1.50	2.00	3.00	4.00	3.75	1.75	6.25	2.75	2.50	3.00	3.00	7.50	5.75	0.50	1.25	-0.144043	0.059082	0.985352	-2.310000	-2.800000	1.610000	539.00	0.05	-0.13
0.61	0.50	0.75	1.00	1.25	1.00	0.75	0.75	2.00	2.25	2.25	2.50	2.25	3.25	3.25	0.50	0.25	-0.199219	0.047852	0.949219	-1.610000	6.860000	-1.330000	263.00	0.11	-0.09	1.25	2.00	2.00	3.25	4.00	3.50	1.75	6.25	2.75	2.50	2.75	3.25	7.50	6.00	0.50	1.00	-0.147949	0.059570	0.986328	-2.450000	-2.800000	1.750000	545.00	0.05	-0.13
0.62	0.50	0.75	1.00	1.25	1.00	0.75	0.75	2.00	2.50	2.25	2.25	2.25	3.00	3.00	0.50	0.50	-0.203613	0.047363	0.956543	-1.610000	6.860000	-1.260000	261.00	0.11	-0.08	1.25	2.25	2.00	3.00	3.75	3.50	1.75	6.25	2.75	2.50	3.00	3.25	7.50	6.00	0.50	1.00	-0.145020	0.057617	0.982910	-2.240000	-2.800000	1.750000	544.00	0.05	-0.13
0.63	0.50	1.00	1.00	1.25	1.00	0.75	0.75	2.00	2.50	2.25	2.25	2.00	3.25	3.00	0.25	0.25	-0.208008	0.041504	0.957520	-1.540000	6.790000	-1.330000	259.00	0.10	-0.08	1.25	1.75	2.00	2.75	4.00	3.50	1.75	6.25	3.25	2.75	2.75	3.00	7.50	6.00	0.50	1.00	-0.146973	0.061523	0.986816	-2.240000	-2.940000	1.750000	543.00	0.06	-0.12
0.64	0.50	0.75	0.75	1.50	1.00	0.75	0.75	2.00	2.50	2.00	2.00	2.25	3.00	3.00	0.50	0.25	-0.208008	0.041504	0.957520	-1.540000	6.790000	-1.330000	254.00	0.10	-0.09	1.25	1.75	2.25	3.25	4.00	3.75	1.75	6.25	2.75	2.75	3.00	3.25	7.50	6.00	0.50	1.00	-0.145020	0.062500	0.988281	-2.240000	-2.940000	1.680000	553.00	0.05	-0.13
0.65	0.50	0.75	1.00	1.25	1.00	0.75	0.75	2.00	2.50	2.25	2.50	2.00	3.00	2.75	0.50	0.50	-0.198242	0.041504	0.958008	-1.680000	6.370000	-1.330000	259.00	0.11	-0.08	1.00	1.25	2.00	3.00	3.75	3.50	1.75	6.25	2.75	2.50	3.00	3.25	7.50	6.00	0.50	1.00	-0.148438	0.063477	0.984375	-2.310000	-3.010000	1.820000	532.00	0.06	-0.13
0.66	0.50	0.75	1.00	1.25	1.00	0.50	0.75	2.00	2.25	2.00	2.25	2.00	3.25	3.00	0.50	0.25	-0.195312	0.046875	0.957031	-1.540000	6.300000	-1.330000	250.00	0.11	-0.09	1.00	1.75	2.00	3.00	3.75	3.75	1.50	6.25	2.75	2.50	3.00	3.00	7.50	5.75	0.50	1.00	-0.145996	0.061523	0.990234	-2.380000	-3.150000	1.750000	531.00	0.05	-0.14
0.67	0.50	1.25	0.75	1.25	1.00	0.75	0.75	2.00	2.75	2.00	2.25	2.25	3.25	3.00	0.50	0.25	-0.205078	0.041016	0.963867	-1.540000	6.300000	-1.330000	264.00	0.10	-0.08	1.25	1.75	2.00	3.25	4.25	3.75	1.75	6.25	3.00	2.50	3.00	3.25	7.50	6.00	0.75	1.00	-0.142578	0.062988	0.986328	-2.310000	-3.150000	1.820000	556.00	0.05	-0.13
0.68	0.50	0.75	0.75	1.25	1.00	0.75	0.75	2.00	2.25	2.00	2.25	2.25	3.00	3.00	0.50	0.50	-0.205078	0.047363	0.958496	-1.610000	6.230000	-1.330000	252.00	0.11	-0.09	1.25	1.50	2.00	3.25	4.25	3.75	1.75	6.50	3.00	2.75	2.75	3.25	7.50	6.00	0.75	1.25	-0.146484	0.061523	0.985352	-2.450000	-3.360000	1.820000	559.00	0.05	-0.13
0.69	0.50	0.75	1.00	1.25	1.00	0.75	0.75	2.00	2.75	2.00	2.50	2.25	3.25	3.25	0.50	0.25	-0.201172	0.046875	0.958984	-1.680000	6.090000	-1.330000	267.00	0.11	-0.08	1.00	1.75	2.25	3.00	4.00	3.50	1.50	6.50	3.00	2.50	2.75	3.25	7.50	6.00	0.50	1.00	-0.143555	0.062988	0.986816	-2.450000	-3.500000	1.820000	543.00	0.05	-0.13
0.70	0.75	1.00	1.00	1.25	1.00	0.75	0.75	2.00	2.50	2.00	2.50	2.25	3.00	3.00	0.50	0.25	-0.205078	0.045898	0.960938	-1.890000	6.020000	-1.330000	264.00	0.10	-0.08	1.25	1.50	2.00	3.00	4.00	3.75	1.75	6.25	3.00	2.75	2.75	3.25	7.50	6.00	0.75	1.25	-0.146484	0.066406	0.986816	-2.450000	-3.500000	1.820000	550.00	0.06	-0.13
0.71	0.50	1.00	1.00	1.50	1.00	0.75	0.75	2.00	2.50	2.00	2.25	2.25	3.25	3.00	0.50	0.50	-0.199219	0.052246	0.963867	-1.890000	6.230000	-1.400000	265.00	0.10	-0.09	1.25	1.50	2.00	3.00	4.00	3.50	1.75	6.25	2.75	2.75	3.00	3.00	7.50	6.00	0.50	1.00	-0.146484	0.057617	0.981445	-2.450000	-3.500000	1.820000	540.00	0.05	-0.13
0.72	0.50	1.00	1.00	1.50	1.00	0.50	0.75	2.00	2.50	2.00	2.25	2.00	3.25	3.00	0.50	0.25	-0.202148	0.045410	0.956055	-1.820000	5.950000	-1.400000	259.00	0.10	-0.08	1.00	1.75	2.25	3.00	4.25	4.00	1.75	6.25	2.75	2.50	3.00	3.25	7.50	6.00	0.50	1.00	-0.148926	0.064941	0.985840	-2.450000	-3.780000	1.680000	551.00	0.05	-0.13
0.73	0.50	1.00	1.00	1.25	1.00	0.75	0.75	2.00	2.50	2.25	2.25	2.00	3.25	3.25	0.25	0.25	-0.204590	0.041504	0.958008	-1.680000	5.460000	-1.120000	261.00	0.10	-0.08	1.00	1.75	2.25	3.25	4.00	3.50	1.50	6.25	2.75	2.50	3.00	3.25	7.50	6.00	0.50	1.00	-0.148926	0.064941	0.985840	-2.450000	-3.780000	1.680000	542.00	0.05	-0.13
0.74	0.25	0.50	0.75	1.25	1.00	0.75	0.75	2.00	2.50	2.00	2.25	2.25	3.25	3.00	0.50	0.25	-0.204102	0.042969	0.948730	-1.400000	5.040000	-0.980000	251.00	0.12	-0.09	1.75	2.00	2.00	3.25	4.00	3.75	1.75	6.25	2.75	2.75	2.75	3.00	7.50	6.00	0.50	1.25	-0.147949	0.056641	0.991699	-2.310000	-3.920000	1.890000	554.00	0.04	-0.13
0.75	0.50	1.00	0.75	1.25	1.00	0.75	0.75	2.00	2.25	2.00	2.00	2.25	3.25	2.75	0.50	0.25	-0.206055	0.041016	0.958984	-0.910000	4.550000	-1.050000	251.00	0.10	-0.09	1.00	1.75	2.25	3.50	4.25	4.00	1.75	6.25	2.50	2.50	3.00	3.25	7.50	5.75	0.75	1.00	-0.145020	0.062988	0.990723	-1.820000	-4.620000	2.170000	553.00	0.05	-0.13
0.76	0.50	1.00	1.00	1.25	1.00	1.00	0.75	2.00	2.25	2.00	2.25	2.00	3.25	2.75	0.50	0.25	-0.203125	0.042969	0.963867	0.140000	3.710000	-0.700000	256.00	0.09	-0.09	1.25	1.50	2.00	3.25	4.25	3.75	1.75	6.25	2.75	2.25	3.00	3.00	7.50	5.75	0.50	1.00	-0.157715	0.057617	0.987305	-1.400000	-5.250000	2.380000	541.00	0.05	-0.13
0.77	0.25	1.00	1.00	1.50	1.25	1.00	0.75	2.00	2.00	2.00	2.25	2.25	3.25	3.00	0.50	0.25	-0.207520	0.039551	0.961426	0.980000	2.660000	-0.140000	260.00	0.09	-0.10	1.50	1.75	2.00	3.25	4.00	3.75	1.50	6.25	2.75	2.25	2.75	3.00	7.50	5.75	0.25	1.00	-0.157227	0.059570	0.995605	-0.910000	-6.090000	2.660000	534.00	0.04	-0.13
0.78	0.50	1.00	1.00	1.50	1.25	1.00	0.75	2.25	1.75	1.75	2.25	2.25	3.25	2.50	0.25	0.25	-0.208984	0.038574	0.957520	2.170000	1.050000	0.350000	254.00	0.08	-0.11	1.25	1.75	2.00	3.25	4.25	4.00	1.50	6.25	2.50	2.25	2.75	3.00	7.50	5.50	0.25	0.75	-0.144531	0.064453	0.996582	-0.770000	-6.860000	2.940000	530.00	0.04	-0.14
0.79	0.50	1.00	1.00	1.50	1.25	1.25	0.75	2.50	2.00	1.75	2.25	2.00	3.25	2.50	0.50	0.25	-0.215332	0.039062	0.960938	3.080000	-0.840000	1.050000	264.00	0.08	-0.11	1.50	1.75	2.25	3.50	4.00	4.00	1.50	6.25	2.25	2.25	2.50	2.75	7.25	5.50	0.50	0.75	-0.149414	0.065430	0.990723	-0.840000	-7.560000	3.080000	527.00	0.03	-0.14
0.80	0.75	1.25	1.00	1.75	1.25	1.50	0.75	2.75	2.00	2.00	2.25	2.00	3.25	2.75	0.50	0.00	-0.209473	0.053223	0.961914	3.150000	-2.660000	1.890000	281.00	0.06	-0.11	1.25	1.75	2.25	3.75	4.25	3.75	1.50	6.00	2.00	2.00	2.50	2.75	7.00	5.25	0.25	0.50	-0.141113	0.076172	0.992188	-0.980000	-8.540000	3.500000	510.00	0.02	-0.14
0.81	0.75	1.25	1.50	2.00	1.50	1.75	0.50	2.75	2.00	1.75	2.25	2.00	3.50	2.25	0.50	0.25	-0.214355	0.050781	0.967285	2.800000	-4.410000	1.960000	288.00	0.04	-0.12	1.50	2.00	2.25	3.75	4.25	4.00	1.50	6.00	2.00	2.00	2.25	2.50	7.00	5.00	0.50	0.50	-0.139648	0.061523	0.992188	-1.330000	-9.730000	3.780000	512.00	0.02	-0.14
0.82	0.75	1.50	1.50	2.25	1.75	2.00	0.75	2.75	1.50	1.75	2.00	2.00	3.25	2.25	0.25	0.00	-0.217285	0.051758	0.968750	1.820000	-6.160000	1.890000	287.00	0.02	-0.12	1.50	2.00	2.25	4.00	4.25	3.75	1.50	6.00	1.75	1.50	2.00	2.25	6.50	4.50	0.25	0.25	-0.165527	0.063477	0.996094	-1.610000	-10.920000	4.270000	486.00	0.00	-0.14
0.83	1.00	1.50	1.75	2.75	2.00	2.50	0.75	3.00	1.50	1.50	2.00	1.75	3.25	2.00	0.25	0.00	-0.208496	0.046387	0.968750	1.470000	-7.560000	1.820000	302.00	-0.00	-0.13	2.00	2.25	2.75	4.50	4.25	4.00	1.25	5.75	1.25	1.75	1.75	2.00	6.00	4.00	0.25	0.50	-0.142578	0.062988	0.993652	-1.400000	-12.390000	5.040000	483.00	-0.02	-0.14
0.84	1.00	2.00	1.75	2.75	2.00	2.75	0.75	3.25	1.25	1.25	1.75	2.00	3.00	2.00	0.00	0.00	-0.174805	0.052246	0.970215	0.980000	-9.380000	0.700000	303.00	-0.02	-0.14	1.75	2.50	3.00	4.50	4.25	4.00	1.25	5.75	1.50	1.25	1.75	1.75	5.75	3.50	0.25	0.25	-0.147949	0.063477	0.994141	-1.190000	-13.650000	5.600000	474.00	-0.03	-0.14
0.85	1.25	2.25	2.25	3.25	2.25	3.25	0.50	3.50	1.00	1.25	1.50	1.50	3.00	1.75	0.25	0.00	-0.174805	0.052246	0.970215	0.980000	-9.380000	0.700000	316.00	-0.05	-0.15	2.00	2.50	3.00	5.00	4.25	4.00	1.00	5.50	1.25	1.00	1.50	1.75	5.50	2.75	0.25	0.25	-0.136719	0.069336	0.989258	-0.630000	-14.770000	5.810000	457.00	-0.05	-0.15
0.86	1.50	2.50	2.50	3.75	2.50	3.75	0.50	3.50	1.00	1.25	1.50	1.50	2.75	1.00	0.00	0.00	-0.175781	0.049316	0.971191	0.210000	-8.610000	0.210000	327.00	-0.07	-0.15	2.25	3.00	3.25	5.00	4.50	4.25	1.00	5.25	0.75	1.25	1.50	1.50	5.25	2.50	0.25	0.25	-0.136719	0.062988	0.989746	-0.350000	-15.610000	5.670000	458.00	-0.06	-0.15
0.87	1.50	2.75	2.75	4.25	2.75	4.00	0.50	3.25	1.00	1.25	1.50	1.00	2.50	1.00	0.00	0.00	-0.180176	0.046387	0.994141	1.050000	-8.260000	-0.140000	331.00	-0.09	-0.14	2.25	3.00	3.50	5.25	4.75	4.50	1.00	5.25	0.75	0.75	1.25	1.25	5.00	1.75	0.00	0.25	-0.123047	0.059082	1.002930	0.350000	-16.520000	5.110000	447.00	-0.08	-0.16
0.88	1.75	3.50	3.00	4.75	2.75	4.50	0.50	3.25	1.00	1.00	1.00	1.25	2.50	1.25	0.00	0.00	-0.175781	0.051270	0.977051	3.080000	-8.470000	-0.350000	352.00	-0.10	-0.14	2.75	3.75	3.75	5.50	4.75	4.50	1.00	5.00	0.75	1.00	1.00	1.25	4.50	1.75	0.25	0.00	-0.125000	0.063477	0.997559	1.120000	-16.660000	4.200000	458.00	-0.10	-0.14
0.89	2.00	3.50	3.25	5.00	3.00	4.50	0.50	3.25	0.50	1.00	1.00	1.25	2.25	1.00	0.00	0.00	-0.163574	0.058594	0.973145	4.830000	-7.630000	-0.140000	352.00	-0.12	-0.15	2.75	3.50	4.00	5.75	4.75	4.75	1.00	5.00	0.25	1.00	1.00	1.00	4.00	1.50	0.00	0.25	-0.119629	0.062988	0.992188	2.660000	-16.520000	3.640000	447.00	-0.11	-0.15
0.90	2.50	3.75	3.50	5.25	3.00	5.00	0.50	3.50	0.75	0.75	0.75	1.00	2.25	1.00	0.00	0.00	-0.162109	0.055176	0.982422	6.650000	-5.880000	0.210000	369.00	-0.13	-0.14	3.00	4.25	4.25	6.00	4.75	4.75	0.75	4.75	0.00	0.75	1.00	1.00	3.25	1.00	0.00	0.25	-0.108398	0.054688	0.997070	4.970000	-17.010000	3.640000	438.00	-0.14	-0.15
0.91	2.50	4.25	4.00	5.50	3.00	5.50	0.50	3.25	0.75	0.75	1.00	1.00	2.00	0.25	0.00	0.00	-0.154785	0.061523	0.963867	8.120000	-4.550000	-0.140000	378.00	-0.15	-0.14	3.50	5.00	4.00	6.25	4.75	5.00	0.75	4.25	0.50	0.50	1.00	1.00	2.75	0.75	0.00	0.25	-0.107422	0.061523	0.993652	7.280000	-16.520000	3.150000	442.00	-0.15	-0.14
0.92	2.50	5.00	3.75	5.50	3.00	5.25	0.25	3.25	0.25	1.00	0.75	1.00	2.00	0.75	0.00	0.00	-0.146973	0.067383	0.951172	8.890000	-3.430000	-0.210000	373.00	-0.16	-0.15	3.25	5.00	4.50	6.25	4.50	4.50	0.75	3.75	0.25	0.50	1.00	0.50	2.75	1.00	0.00	0.00	-0.109375	0.059082	0.987305	8.960000	-15.960000	2.660000	422.00	-0.16	-0.13
0.93	2.75	4.75	3.75	5.75	3.00	5.50	0.25	3.25	0.25	0.50	0.75	0.75	1.75	0.50	0.00	0.00	-0.146484	0.065918	0.958496	8.680000	-1.680000	-0.280000	367.00	-0.17	-0.15	3.50	5.00	4.50	6.25	4.50	4.75	0.75	3.50	0.25	0.50	0.75	0.75	2.00	0.75	0.00	0.00	-0.099121	0.056641	0.996582	9.940000	-14.700000	2.240000	415.00	-0.17	-0.13
0.94	2.75	5.00	4.00	5.75	3.00	5.50	0.25	3.00	0.25	0.75	1.00	0.75	1.75	0.50	0.00	0.00	-0.153809	0.073242	0.959473	8.330000	-0.070000	-0.630000	373.00	-0.17	-0.15	3.75	5.25	5.00	6.75	4.50	4.25	0.75	3.00	0.00	0.00	0.50	0.50	2.00	0.50	0.00	0.00	-0.099609	0.075684	0.973145	11.130000	-14.420000	1.820000	402.00	-0.19	-0.12
0.95	2.75	5.00	3.75	5.75	2.75	5.50	0.25	3.25	0.25	0.50	0.75	0.75	1.50	0.50	0.00	0.00	-0.150391	0.071289	0.945312	7.560000	1.470000	-0.980000	364.00	-0.17	-0.15	4.25	5.50	5.00	6.75	4.25	4.25	0.50	3.00	0.00	0.25	0.75	0.50	2.00	0.50	0.00	0.00	-0.104980	0.071289	0.979980	9.940000	-14.910000	2.380000	408.00	-0.20	-0.12
0.96	2.75	4.75	3.75	5.75	2.75	5.50	0.25	3.00	0.50	0.75	0.75	1.00	1.50	0.50	0.00	0.00	-0.148926	0.079102	0.944824	5.670000	3.640000	-1.400000	367.00	-0.17	-0.14	4.50	5.50	5.00	7.00	4.25	4.25	0.50	2.75	0.00	0.50	0.75	0.75	1.25	0.25	0.00	0.00	-0.083984	0.084961	0.969727	8.960000	-14.490000	2.730000	406.00	-0.20	-0.12
0.97	3.00	4.75	4.00	5.50	2.50	5.25	0.25	3.00	0.25	0.50	0.50	0.75	1.50	0.50	0.00	0.00	-0.148438	0.076660	0.947754	3.710000	5.110000	-1.400000	353.00	-0.18	-0.15	4.50	5.75	5.00	7.00	4.00	4.00	0.75	2.50	0.00	0.50	0.50	0.75	1.50	0.25	0.00	0.00	-0.094238	0.078125	0.970703	7.420000	-14.210000	2.730000	402.00	-0.20	-0.11
0.98	2.75	4.50	3.75	5.50	2.50	5.25	0.25	3.00	0.25	0.50	0.75	0.75	1.50	0.25	0.00	0.00	-0.147461	0.080566	0.940430	1.400000	6.860000	-1.610000	345.00	-0.18	-0.15	5.00	5.75	5.25	7.50	4.00	4.25	0.50	2.25	0.00	0.00	0.75	0.50	1.50	0.25	0.00	0.00	-0.092285	0.084473	0.969238	6.580000	-13.650000	2.660000	406.00	-0.22	-0.11
0.99	2.50	4.50	3.75	5.25	2.25	5.25	0.25	2.75	0.25	0.50	0.50	0.75	1.50	0.25	0.00	0.00	-0.147461	0.069824	0.950195	-0.980000	9.100000	-1.680000	331.00	-0.18	-0.15	4.75	5.75	5.25	7.50	3.75	4.00	0.50	2.50	0.00	0.25	0.75	0.50	1.75	0.25	0.00	0.00	-0.092285	0.086426	0.963379	5.040000	-12.390000	2.870000	406.00	-0.21	-0.12
1.00	2.50	4.00	3.50	5.25	2.50	5.00	0.25	2.75	0.00	0.25	0.75	0.75	1.50	0.50	0.00	0.00	-0.151367	0.071777	0.948242	-2.870000	10.990000	-1.820000	322.00	-0.18	-0.15	5.00	6.00	5.50	7.75	3.75	4.50	0.50	2.25	0.00	0.25	0.50	0.50	1.25	0.00	0.00	0.00	-0.098633	0.089355	0.981445	4.130000	-10.990000	3.360000	409.00	-0.23	-0.11
1.01	2.25	4.25	3.25	5.25	2.25	5.00	0.25	2.75	0.25	0.50	0.75	0.75	1.25	0.00	0.00	0.00	-0.153809	0.069336	0.945801	-4.410000	12.740000	-1.890000	316.00	-0.18	-0.16	5.50	7.00	5.75	8.00	4.00	4.50	0.50	2.00	0.00	0.25	0.50	0.75	1.25	0.00	0.00	0.00	-0.096680	0.092773	0.976562	3.780000	-11.200000	3.360000	431.00	-0.23	-0.11
1.02	2.00	4.00	3.25	5.25	2.25	5.00	0.25	2.75	0.00	0.25	0.50	0.50	1.50	0.50	0.00	0.00	-0.152344	0.073242	0.948730	-6.020000	14.350000	-2.030000	306.00	-0.18	-0.16	6.00	7.25	5.75	8.25	4.00	4.50	0.50	2.00	0.00	0.25	0.50	0.50	1.00	0.00	0.00	0.00	-0.095215	0.088379	0.986816	3.640000	-11.900000	3.710000	436.00	-0.24	-0.10
1.03	2.25	3.75	2.75	5.00	2.25	4.75	0.25	2.50	0.25	0.50	0.75	0.50	1.50	0.25	0.00	0.00	-0.150879	0.074707	0.948242	-7.700000	16.379999	-2.170000	298.00	-0.17	-0.16	6.00	7.50	6.00	8.25	4.25	4.75	0.50	2.00	0.00	0.00	0.50	0.50	1.25	0.00	0.00	0.00	-0.096680	0.090332	0.975098	3.220000	-12.600000	3.990000	446.00	-0.24	-0.11
1.04	2.00	3.50	2.75	4.75	2.00	4.75	0.25	2.75	0.25	0.75	0.50	0.75	1.50	0.50	0.00	0.00	-0.148926	0.067383	0.950195	-9.520000	18.549999	-2.450000	296.00	-0.16	-0.16	6.75	8.25	6.50	8.50	4.25	5.00	0.50	2.00	0.00	0.25	0.25	0.75	1.25	0.00	0.00	0.00	-0.090820	0.099121	0.959473	2.100000	-12.460000	4.340000	475.00	-0.24	-0.10
1.05	1.75	3.25	2.50	4.00	1.75	4.00	0.25	2.50	0.25	0.50	1.00	0.75	1.50	0.25	0.00	0.00	-0.143555	0.071289	0.949219	-11.340000	20.580000	-2.660000	266.00	-0.15	-0.16	7.00	8.75	6.50	9.00	4.50	5.00	0.50	2.25	0.00	0.25	0.50	0.75	1.00	0.00	0.00	0.00	-0.090332	0.103027	0.943848	-0.280000	-11.340000	4.830000	494.00	-0.24	-0.10
1.06	1.50	2.75	2.25	3.50	1.50	4.00	0.25	2.50	0.25	0.50	0.75	0.75	1.50	0.25	0.00	0.00	-0.151855	0.063965	0.961914	-14.560000	24.710001	-4.620000	246.00	-0.14	-0.17	7.50	9.25	7.00	9.25	4.50	5.25	0.50	2.25	0.00	0.25	0.50	0.25	1.50	0.00	0.00	0.00	-0.090332	0.101562	0.971680	-2.660000	-10.010000	5.250000	514.00	-0.25	-0.10
1.07	1.25	2.50	2.00	3.00	1.50	3.25	0.25	2.50	0.50	0.75	0.75	0.75	1.50	0.50	0.00	0.00	-0.128418	0.041504	0.971191	-14.980000	26.670000	-6.790000	232.00	-0.12	-0.16	8.50	9.75	7.25	9.50	4.75	5.75	0.50	2.50	0.00	0.00	0.25	0.50	1.25	0.00	0.00	0.00	-0.087891	0.093750	0.965820	-4.900000	-9.100000	5.110000	542.00	-0.25	-0.10
1.08	1.00	2.00	1.75	3.00	1.25	3.00	0.25	2.50	0.50	0.50	1.00	1.00	1.50	0.25	0.00	0.00	-0.189453	0.066406	0.983887	-13.160000	29.469999	-8.890000	217.00	-0.10	-0.17	9.00	10.25	8.00	10.00	5.00	6.25	0.50	2.50	0.00	0.00	0.25	0.50	1.50	0.00	0.00	0.00	-0.084961	0.098145	0.975098	-6.930000	-8.190000	4.900000	576.00	-0.25	-0.10
1.09	1.00	2.00	1.50	2.25	1.00	2.25	0.25	2.25	0.50	0.75	1.00	0.75	1.50	0.50	0.00	0.00	-0.121582	0.049316	1.009766	-8.680000	33.459999	-11.550000	194.00	-0.09	-0.16	9.00	11.00	8.25	10.25	5.00	6.50	0.50	2.50	0.00	0.25	0.75	0.50	1.25	0.00	0.00	0.00	-0.090332	0.085449	0.971191	-8.750000	-7.630000	4.760000	597.00	-0.25	-0.10
1.10	0.75	1.50	1.00	2.25	0.75	1.75	0.25	2.00	0.75	1.25	1.00	1.00	1.50	1.25	0.00	0.00	-0.178711	0.100098	1.059082	-2.100000	42.910000	-14.630000	186.00	-0.03	-0.14	9.50	11.75	8.25	10.50	5.25	7.00	0.50	2.75	0.00	0.00	0.50	0.50	1.00	0.00	0.00	0.00	-0.084473	0.084961	0.983398	-10.150000	-7.630000	4.550000	616.00	-0.26	-0.10
1.11	0.75	1.25	0.75	2.00	0.50	1.25	0.25	1.50	0.50	1.00	1.25	1.00	1.50	0.50	0.00	0.00	-0.088867	0.073730	1.124023	5.530000	65.169998	-18.480000	153.00	-0.04	-0.16	10.75	12.50	8.50	11.00	5.75	7.50	0.50	3.00	0.00	0.25	0.25	0.50	0.75	0.00	0.00	0.00	-0.085449	0.080078	0.984375	-10.990000	-7.840000	4.550000	657.00	-0.26	-0.10
1.12	0.50	1.25	1.00	1.75	0.25	1.00	0.00	1.50	0.25	1.00	1.25	1.25	1.25	0.75	0.00	0.00	-0.177734	0.191895	1.113281	14.910000	97.440002	-21.000000	141.00	-0.03	-0.17	11.50	13.25	8.75	11.25	6.00	7.75	0.75	3.00	0.00	0.25	0.25	0.25	1.25	0.00	0.00	0.00	-0.080566	0.082031	0.987793	-11.340000	-8.190000	4.410000	688.00	-0.26	-0.10
1.13	0.50	1.50	0.75	1.75	0.25	0.75	0.00	1.00	0.75	0.75	1.00	0.75	1.50	0.50	0.00	0.00	-0.217285	0.084473	1.284668	23.730000	128.309998	-31.290001	126.00	-0.04	-0.15	12.50	13.75	9.25	11.50	6.25	8.00	0.75	3.25	0.00	0.00	0.50	0.25	1.25	0.00	0.00	0.00	-0.085449	0.083984	1.002930	-11.270000	-7.980000	4.130000	720.00	-0.26	-0.10
1.14	0.50	0.75	0.75	1.25	0.00	0.50	0.00	0.75	0.50	0.50	1.00	1.00	1.00	0.50	0.00	0.00	-0.138672	0.113770	1.227051	30.520000	155.750000	-41.439999	97.00	-0.01	-0.15	13.25	14.75	9.50	12.00	6.25	8.50	0.75	3.50	0.00	0.00	0.50	0.25	1.25	0.00	0.00	0.00	-0.092773	0.077637	1.006836	-8.960000	-8.680000	3.710000	755.00	-0.26	-0.10
1.15	0.25	1.00	0.75	1.25	0.50	0.25	0.00	0.50	0.50	0.50	0.75	0.50	0.75	0.25	0.00	0.00	-0.136230	0.257812	1.320312	37.939999	179.059998	-54.459999	83.00	-0.05	-0.12	13.75	15.00	9.50	12.25	6.50	8.75	0.75	3.25	0.00	0.25	0.25	0.75	1.25	0.00	0.00	0.00	-0.084961	0.071289	1.000000	-7.560000	-9.240000	3.500000	772.00	-0.26	-0.10
1.16	0.50	1.00	0.75	0.75	0.00	0.50	0.00	0.50	0.00	0.50	0.75	0.25	0.50	0.00	0.00	0.00	-0.104980	0.126465	1.598145	46.340000	193.970001	-69.790001	64.00	-0.11	-0.15	14.75	15.50	10.00	12.50	6.75	9.00	0.75	3.50	0.00	0.25	0.50	0.50	1.50	0.00	0.00	0.00	-0.075195	0.074219	0.990234	-6.580000	-9.170000	3.290000	807.00	-0.26	-0.09
1.17	0.50	1.00	0.75	1.25	0.00	0.00	0.00	0.00	0.50	0.25	0.50	0.50	0.25	0.00	0.00	0.00	-0.052246	0.318848	1.458984	53.900002	207.199997	-82.599998	58.00	-0.12	-0.08	15.25	16.00	10.25	12.75	7.00	9.25	0.75	3.75	0.00	0.25	0.25	0.50	1.25	0.00	0.00	0.00	-0.070312	0.074707	0.983887	-5.950000	-8.260000	3.080000	827.00	-0.26	-0.09
1.18	0.50	0.75	0.75	1.00	0.00	0.00	0.00	0.00	0.00	0.00	0.00	0.25	0.00	0.00	0.00	0.00	0.164062	0.208496	1.528320	65.590004	209.369995	-96.110001	34.00	0.00	0.00	15.50	16.75	10.25	13.00	7.25	9.25	0.75	3.75	0.00	0.50	0.25	0.25	1.50	0.00	0.00	0.00	-0.070312	0.073730	0.987305	-5.740000	-6.510000	3.010000	844.00	-0.26	-0.09
1.19	0.50	1.00	0.50	1.25	0.00	0.00	0.00	0.00	0.00	0.00	0.00	0.00	0.00	0.00	0.00	0.00	0.133789	0.317871	1.548340	81.199997	199.080002	-112.559998	34.00	0.00	0.00	16.00	16.75	10.50	13.25	7.50	9.25	0.75	3.75	0.00	0.25	0.50	0.50	1.50	0.00	0.00	0.00	-0.062988	0.075195	0.988281	-5.320000	-4.480000	2.660000	860.00	-0.26	-0.09
1.20	0.50	1.00	0.25	0.75	0.00	0.00	0.00	0.00	0.00	0.00	0.00	0.00	0.00	0.00	0.00	0.00	0.640625	0.591309	2.222168	84.209999	162.820007	-117.949997	25.00	0.00	0.00	16.00	17.00	10.50	13.25	7.50	9.50	0.75	4.00	0.00	0.25	0.25	0.25	1.25	0.00	0.00	0.00	-0.060547	0.076660	0.972656	-5.530000	-2.240000	2.240000	861.00	-0.26	-0.09
1.21	0.50	1.00	0.50	0.75	0.00	0.00	0.00	0.00	0.00	0.25	0.25	0.25	0.00	0.00	0.00	0.00	1.035645	0.498535	2.188477	41.090000	95.269997	-103.529999	36.00	0.00	0.00	15.75	17.00	10.50	13.25	7.50	9.50	0.75	4.00	0.00	0.25	0.50	0.75	1.25	0.00	0.00	0.00	-0.071289	0.073730	0.979004	-5.950000	0.000000	2.170000	867.00	-0.26	-0.10
1.22	0.25	1.00	0.75	1.00	0.25	0.00	0.00	0.00	0.00	0.00	0.00	0.00	0.00	0.00	0.00	0.00	1.006836	0.634766	1.319824	0.490000	47.040001	-81.900002	34.00	0.00	0.00	16.25	16.75	10.50	13.00	7.50	9.75	0.75	4.00	0.00	0.25	0.50	0.50	1.25	0.00	0.00	0.00	-0.061035	0.077148	0.982910	-6.440000	2.170000	2.100000	867.00	-0.26	-0.09
1.23	0.25	1.00	0.75	0.50	0.00	0.00	0.00	0.00	0.00	0.00	0.00	0.00	0.00	0.00	0.00	0.00	1.008301	0.714355	0.908691	9.380000	35.840000	-68.879997	26.00	0.00	0.00	15.75	16.50	10.50	13.25	7.75	9.75	0.75	4.25	0.00	0.25	0.50	0.25	1.25	0.00	0.00	0.00	-0.058105	0.076172	0.966797	-6.790000	4.550000	1.820000	866.00	-0.26	-0.09
1.24	0.50	1.25	0.75	0.75	0.00	0.00	0.00	0.00	0.00	0.00	0.00	0.00	0.00	0.00	0.00	0.00	1.135254	0.648926	1.110352	35.420002	30.940001	-59.150002	33.00	0.00	0.00	15.25	16.25	10.50	13.00	7.50	9.50	1.00	4.25	0.00	0.25	0.50	0.25	1.75	0.00	0.00	0.00	-0.062500	0.076660	0.977051	-7.700000	7.420000	1.540000	858.00	-0.25	-0.10
1.25	0.75	0.75	0.25	1.25	0.00	0.00	0.00	0.00	0.00	0.25	0.00	0.00	0.00	0.00	0.00	0.00	1.274414	0.580566	1.285156	42.630001	12.460000	-44.380001	34.00	0.00	0.00	14.75	16.00	10.25	13.00	7.50	9.75	1.00	4.75	0.25	0.50	0.75	0.50	1.50	0.00	0.00	0.00	-0.073730	0.077637	0.979492	-9.030000	9.590000	1.260000	867.00	-0.25	-0.10
1.26	0.50	1.00	1.00	1.00	0.00	0.00	0.00	0.00	0.00	0.00	0.00	0.00	0.00	0.00	0.00	0.00	1.325684	0.550781	1.201172	40.180000	-13.580000	-25.410000	37.00	0.00	0.00	14.50	15.50	10.25	12.75	7.75	9.50	1.00	4.75	0.25	0.50	0.50	0.50	1.50	0.00	0.00	0.00	-0.071289	0.074219	0.976562	-10.500000	11.410000	0.630000	855.00	-0.25	-0.10
1.27	0.50	1.25	0.75	1.00	0.00	0.00	0.00	0.00	0.00	0.00	0.25	0.00	0.00	0.00	0.00	0.00	1.270020	0.363770	1.104492	58.520000	-55.090000	5.530000	39.00	0.00	0.00	13.75	15.25	10.00	12.50	7.50	9.75	1.00	5.00	0.25	0.75	1.00	0.75	2.00	0.00	0.00	0.00	-0.082520	0.077637	1.006348	-11.830000	12.320000	0.280000	858.00	-0.23	-0.10
1.28	0.00	1.25	0.25	0.50	0.00	0.00	0.00	0.00	0.00	0.00	0.25	0.00	0.00	0.00	0.00	0.00	1.221191	0.200684	1.162109	64.260002	-74.199997	17.080000	22.00	0.00	0.00	13.50	14.75	9.75	12.25	7.50	9.75	1.00	5.25	0.25	0.50	0.75	0.50	2.00	0.00	0.00	0.25	-0.082031	0.063965	0.969727	-12.320000	11.900000	0.070000	842.00	-0.24	-0.11
1.29	0.25	1.25	0.25	0.75	0.00	0.00	0.00	0.00	0.00	0.25	0.25	0.00	0.00	0.00	0.00	0.00	1.134277	0.064453	1.208496	63.000000	-93.660004	27.160000	30.00	0.00	0.00	13.00	14.25	9.75	12.25	8.00	9.50	1.00	5.00	0.25	0.75	0.75	0.75	2.25	0.00	0.00	0.00	-0.091309	0.071777	0.986328	-13.020000	12.180000	-0.070000	838.00	-0.23	-0.10
1.30	0.50	0.75	0.25	1.00	0.00	0.00	0.00	0.00	0.00	0.00	0.00	0.00	0.00	0.00	0.00	0.00	1.018555	-0.049316	1.254883	60.060001	-112.070000	34.720001	26.00	0.00	0.00	12.00	13.75	9.50	11.75	7.75	9.50	1.00	5.50	0.50	0.75	0.75	1.00	2.50	0.00	0.00	0.00	-0.100098	0.063477	0.993164	-12.600000	11.690000	-0.000000	827.00	-0.22	-0.11
1.31	0.50	0.50	0.50	0.75	0.00	0.00	0.00	0.00	0.00	0.00	0.00	0.00	0.00	0.00	0.00	0.00	0.891113	-0.141602	1.322754	56.700001	-129.639999	39.900002	24.00	0.00	0.00	11.50	13.25	9.50	11.75	7.75	9.50	1.25	5.75	0.75	0.75	1.00	0.50	2.75	0.25	0.00	0.00	-0.095215	0.056152	0.984375	-11.410000	11.130000	-0.000000	830.00	-0.21	-0.11
1.32	0.25	1.00	0.50	1.25	0.00	0.00	0.00	0.00	0.00	0.00	0.00	0.00	0.00	0.00	0.00	0.00	0.745117	-0.217773	1.396973	51.380001	-146.860001	43.330002	31.00	0.00	0.00	10.75	12.50	9.25	11.50	8.00	9.50	1.25	5.75	0.75	1.00	1.00	1.00	2.50	0.00	0.00	0.00	-0.108887	0.050781	1.005371	-7.700000	9.730000	-0.140000	816.00	-0.21	-0.11
1.33	0.50	0.75	0.50	0.75	0.00	0.00	0.00	0.00	0.00	0.25	0.00	0.00	0.00	0.00	0.00	0.00	0.584961	-0.291016	1.421387	42.700001	-162.330002	44.799999	28.00	0.00	0.00	10.25	12.00	9.00	11.25	8.00	9.25	1.25	6.00	1.00	1.00	1.00	1.00	3.25	0.50	0.25	0.25	-0.108887	0.050781	1.005371	-7.700000	9.730000	-0.140000	820.00	-0.19	-0.11
1.34	0.75	1.25	0.50	0.25	0.25	0.00	0.00	0.00	0.00	0.00	0.00	0.00	0.00	0.00	0.00	0.00	0.414062	-0.325195	1.416504	31.010000	-174.580002	44.029999	30.00	0.00	0.00	9.75	11.50	9.00	11.00	8.00	9.25	1.25	6.00	1.25	1.25	1.50	1.00	3.25	0.50	0.00	0.25	-0.103027	0.060059	0.984863	-6.090000	8.750000	-0.070000	816.00	-0.19	-0.11
1.35	0.25	1.00	0.50	1.25	0.00	0.00	0.00	0.25	0.00	0.00	0.00	0.00	0.00	0.00	0.00	0.00	0.256836	-0.318359	1.420410	19.740000	-183.050003	40.880001	35.00	0.00	0.00	9.00	10.75	8.75	11.00	8.00	9.00	1.25	6.25	1.00	1.25	1.25	0.75	3.75	0.50	0.00	0.25	-0.110352	0.054688	0.988281	-4.060000	7.630000	-0.210000	795.00	-0.18	-0.12
1.36	0.50	0.75	0.50	1.00	0.00	0.00	0.00	0.00	0.00	0.00	0.00	0.00	0.00	0.00	0.00	0.00	0.101562	-0.301758	1.416504	10.710000	-188.369995	35.279999	29.00	0.00	0.00	8.25	10.25	8.50	10.75	8.00	9.00	1.50	6.50	1.25	1.25	1.75	1.25	3.75	1.00	0.25	0.25	-0.100098	0.056641	0.981445	-3.500000	7.490000	-0.210000	806.00	-0.17	-0.12
1.37	0.25	0.75	0.50	0.75	0.00	0.00	0.00	0.00	0.00	0.00	0.00	0.00	0.00	0.00	0.00	0.00	-0.038086	-0.261719	1.396973	2.800000	-191.100006	27.860001	23.00	0.00	0.00	7.75	9.50	8.25	10.25	8.00	9.25	1.75	6.50	1.25	1.25	2.00	1.50	4.25	1.00	0.00	0.25	-0.110840	0.056152	0.984375	-2.940000	7.910000	-0.420000	799.00	-0.16	-0.12
1.38	0.25	0.75	0.25	0.75	0.25	0.00	0.00	0.00	0.00	0.00	0.00	0.00	0.00	0.00	0.00	0.00	-0.165527	-0.196777	1.375977	-5.320000	-191.029999	20.160000	23.00	0.00	0.00	7.50	9.00	8.25	10.00	8.25	9.25	2.00	6.75	1.75	2.00	2.25	1.75	4.50	1.25	0.50	0.25	-0.120605	0.057617	0.997559	-2.520000	8.190000	-0.630000	828.00	-0.14	-0.11
1.39	0.25	0.75	0.50	0.25	0.00	0.00	0.00	0.00	0.00	0.00	0.00	0.00	0.00	0.00	0.00	0.00	-0.280273	-0.120605	1.328125	-13.370000	-187.880005	13.230000	18.00	0.00	0.00	6.75	8.25	8.00	9.75	8.25	9.25	2.00	7.00	2.00	2.00	2.25	2.00	5.00	1.50	0.25	0.50	-0.114258	0.056641	0.990234	-1.960000	8.050000	-0.630000	823.00	-0.13	-0.12
1.40	0.25	0.50	0.25	0.50	0.00	0.00	0.00	0.00	0.00	0.00	0.00	0.00	0.00	0.00	0.00	0.00	-0.389648	-0.052734	1.240234	-20.790001	-180.740005	7.140000	15.00	0.00	0.00	6.00	7.75	7.50	9.50	8.25	9.25	2.25	7.50	2.25	2.25	2.50	2.25	5.25	1.50	0.25	0.50	-0.115723	0.059082	0.990234	-1.610000	8.540000	-0.980000	827.00	-0.11	-0.12
1.41	0.25	0.75	0.75	1.00	0.00	0.00	0.00	0.00	0.00	0.00	0.00	0.00	0.00	0.00	0.00	0.00	-0.487793	0.032227	1.188477	-28.700001	-169.750000	3.290000	29.00	0.00	0.00	5.50	7.00	7.25	9.00	8.25	9.00	2.50	7.50	2.75	2.50	2.75	2.25	5.50	2.00	0.50	0.75	-0.115723	0.061523	0.984375	-1.260000	9.450000	-1.190000	830.00	-0.09	-0.12
1.42	0.50	0.00	0.50	0.75	0.00	0.00	0.00	0.00	0.00	0.00	0.00	0.00	0.00	0.00	0.00	0.00	-0.560547	0.140625	1.170410	-35.070000	-157.360001	2.590000	19.00	0.00	0.00	5.00	6.50	6.75	8.50	8.00	9.25	2.50	7.75	2.75	2.75	3.25	2.75	6.00	2.25	0.50	0.75	-0.132324	0.058105	1.002441	-0.770000	10.640000	-1.610000	833.00	-0.08	-0.12
1.43	0.25	0.50	0.25	0.50	0.00	0.00	0.00	0.00	0.00	0.00	0.00	0.00	0.00	0.00	0.00	0.00	-0.625488	0.276367	1.282227	-36.049999	-148.750000	5.810000	15.00	0.00	0.00	4.25	5.75	6.25	8.00	8.00	9.00	2.75	7.75	3.50	3.00	3.50	3.25	6.75	2.50	0.50	1.00	-0.114746	0.055664	0.994629	-0.140000	11.760000	-1.750000	838.00	-0.06	-0.12
1.44	0.25	0.50	0.50	0.75	0.00	0.00	0.00	0.00	0.00	0.00	0.00	0.00	0.00	0.00	0.00	0.00	-0.704102	0.411133	1.383789	-27.299999	-148.889999	13.510000	21.00	0.00	0.00	3.50	5.00	5.75	7.50	8.00	9.00	3.00	8.00	4.00	3.75	4.00	3.50	7.00	3.00	0.50	1.00	-0.125488	0.063965	0.997559	0.770000	12.880000	-1.890000	849.00	-0.04	-0.12
1.45	0.50	0.50	0.75	0.00	0.00	0.00	0.00	0.00	0.00	0.00	0.00	0.00	0.00	0.00	0.00	0.00	-1.005371	0.422363	1.189453	-0.490000	-157.779999	35.980000	18.00	0.00	0.00	3.25	4.75	5.25	7.00	7.75	8.75	3.00	8.00	4.50	4.00	4.25	4.00	7.75	3.50	0.75	1.00	-0.123047	0.063965	0.988281	1.400000	14.350000	-2.170000	858.00	-0.02	-0.12
1.46	0.00	0.50	0.25	0.50	0.00	0.00	0.00	0.00	0.00	0.00	0.00	0.00	0.00	0.00	0.00	0.00	-1.005371	0.422363	1.189453	-0.490000	-157.779999	35.980000	13.00	0.00	0.00	2.75	4.25	4.50	6.50	7.50	8.50	3.00	8.25	5.00	4.50	5.75	4.25	8.00	4.50	0.75	1.25	-0.129395	0.063965	0.992188	1.820000	16.170000	-2.170000	875.00	0.00	-0.11
1.47	0.25	0.25	0.25	0.50	0.00	0.00	0.00	0.00	0.00	0.00	0.00	0.00	0.00	0.00	0.00	0.00	-1.219727	0.345215	1.003418	4.340000	-155.190002	46.830002	13.00	0.00	0.00	2.00	3.75	3.50	5.75	7.00	8.50	3.25	8.25	5.50	5.50	7.25	5.00	8.25	5.25	0.75	1.25	-0.153320	0.061523	0.992188	2.520000	18.830000	-2.520000	890.00	0.03	-0.11
1.48	0.25	0.50	0.25	0.25	0.00	0.00	0.00	0.00	0.00	0.00	0.00	0.00	0.00	0.00	0.00	0.00	-1.454590	0.289062	0.797363	3.920000	-143.850006	54.880001	13.00	0.00	0.00	2.25	3.25	2.75	5.50	6.50	8.00	3.25	8.50	6.25	6.50	7.75	6.25	8.75	6.25	1.00	1.50	-0.111328	0.111328	1.037598	3.080000	21.210001	-2.310000	925.00	0.05	-0.11
1.49	0.25	0.25	0.50	0.25	0.00	0.00	0.00	0.00	0.00	0.00	0.00	0.00	0.00	0.00	0.00	0.00	-1.889648	0.152832	0.552246	4.900000	-100.660004	59.849998	13.00	0.00	0.00	1.75	2.50	2.25	4.75	5.75	7.75	3.25	8.50	7.00	8.00	8.25	7.25	9.00	7.00	1.00	1.50	-0.154297	0.064453	1.007324	4.620000	24.710001	-2.310000	938.00	0.07	-0.11
1.50	0.25	0.25	0.25	0.50	0.00	0.00	0.00	0.00	0.00	0.00	0.00	0.00	0.00	0.00	0.00	0.00	-2.055176	0.092285	0.494629	2.030000	-75.320000	56.490002	13.00	0.00	0.00	1.75	2.25	2.25	4.00	5.00	7.25	3.25	8.25	7.50	8.00	9.00	7.75	9.50	7.75	1.00	2.00	-0.170898	0.069824	1.036621	6.020000	29.260000	-2.870000	944.00	0.09	-0.10
1.51	0.50	0.50	0.25	0.25	0.00	0.00	0.00	0.00	0.00	0.00	0.00	0.00	0.00	0.00	0.00	0.00	-2.194336	0.073730	0.462891	-2.940000	-50.820000	49.139999	15.00	0.00	0.00	1.25	2.25	1.75	3.25	4.00	6.75	3.25	8.25	8.00	8.50	9.50	8.50	9.75	8.25	1.00	2.00	-0.186035	0.038574	1.027832	7.560000	34.020000	-4.900000	940.00	0.10	-0.10
1.52	0.00	0.75	0.50	0.75	0.00	0.00	0.00	0.00	0.00	0.00	0.00	0.00	0.00	0.00	0.00	0.00	-2.291504	0.063965	0.322266	-9.240000	-26.740000	38.500000	21.00	0.00	0.00	1.25	2.00	1.00	2.75	3.25	6.25	3.25	8.25	8.50	9.25	10.00	9.00	10.00	9.00	1.00	2.25	-0.222168	0.093750	1.028809	8.540000	41.020000	-6.650000	944.00	0.12	-0.10
1.53	0.25	0.50	0.50	0.50	0.00	0.00	0.00	0.00	0.00	0.00	0.00	0.00	0.00	0.00	0.00	0.00	-2.356445	0.121094	0.204102	-13.300000	1.190000	25.480000	18.00	0.00	0.00	0.75	2.00	1.00	2.75	2.50	5.50	3.00	8.00	9.00	9.75	10.75	9.25	10.25	10.00	1.50	3.00	-0.136719	0.079102	1.014160	11.340000	49.420002	-9.520000	958.00	0.14	-0.10
1.54	0.25	0.75	0.25	0.50	0.00	0.00	0.00	0.00	0.00	0.25	0.00	0.00	0.00	0.00	0.00	0.00	-2.342773	0.149902	0.240723	-13.580000	31.850000	12.180000	20.00	0.00	0.00	0.75	1.00	0.50	2.00	1.75	5.00	2.75	7.75	9.50	10.25	11.25	9.75	10.50	11.25	1.75	3.25	-0.150879	0.065430	1.062012	12.320000	60.270000	-10.990000	952.00	0.16	-0.09
1.55	0.25	0.75	0.25	0.75	0.00	0.00	0.00	0.00	0.00	0.25	0.00	0.00	0.00	0.00	0.00	0.00	-2.214844	0.177246	0.333984	-14.490000	56.980000	1.120000	23.00	0.00	0.00	1.00	1.00	0.25	1.50	1.25	4.00	2.50	7.75	10.00	10.75	11.75	10.25	10.75	12.25	1.75	3.50	-0.187988	0.079102	1.135254	14.630000	87.150002	-10.710000	961.00	0.17	-0.09
1.56	0.25	0.50	0.25	0.50	0.00	0.00	0.00	0.00	0.25	0.00	0.00	0.00	0.00	0.00	0.00	0.00	-2.069824	0.211914	0.336914	-12.180000	75.110001	-6.090000	19.00	0.00	0.00	0.75	1.00	0.25	1.50	1.00	3.00	2.25	7.25	10.50	11.25	12.25	10.75	10.75	13.50	2.25	4.00	-0.259277	0.136230	1.081055	18.969999	103.180000	-12.950000	974.00	0.18	-0.08
1.57	0.50	1.00	0.75	0.75	0.00	0.00	0.00	0.00	0.00	0.00	0.00	0.00	0.00	0.00	0.00	0.00	-1.745605	-0.548340	0.155762	-4.480000	90.860001	-8.960000	31.00	0.00	0.00	0.50	1.25	0.00	1.00	0.75	2.50	1.75	6.75	10.75	11.50	13.00	11.00	10.75	14.75	2.25	4.75	-0.228516	0.129883	1.120605	24.360001	120.400002	-15.540000	973.00	0.20	-0.08
1.58	1.00	1.75	1.25	1.75	0.50	0.00	0.00	0.00	0.00	0.00	0.00	0.00	0.00	0.00	0.00	0.00	1.586426	0.774414	1.006836	-67.059998	140.490005	-4.620000	65.00	-0.32	-0.07	0.50	0.75	0.00	0.75	0.50	2.00	1.50	6.25	10.75	11.75	13.25	11.25	10.50	15.75	2.75	5.25	-0.264648	0.075195	1.227539	25.200001	140.630005	-18.410000	969.00	0.21	-0.08
1.59	1.75	3.25	2.00	2.75	0.50	0.00	0.00	0.00	0.00	0.00	0.00	0.00	0.00	0.00	0.00	0.00	0.851562	0.277344	0.594727	-65.379997	97.160004	18.340000	106.00	-0.33	-0.07	0.25	0.50	0.00	0.75	0.25	1.25	1.00	5.75	11.00	12.00	13.25	11.25	10.50	17.00	2.75	5.50	-0.241699	0.068359	1.319336	28.840000	159.110001	-17.990000	955.00	0.22	-0.07
1.60	4.00	7.00	2.75	4.25	0.25	0.00	0.00	0.00	0.00	0.00	0.00	0.00	0.00	0.00	0.00	0.00	0.048340	-0.275879	0.052246	-70.699997	140.070007	16.379999	186.00	-0.35	-0.07	0.25	0.50	0.00	0.75	0.25	0.75	1.00	5.00	11.00	12.00	13.75	11.50	10.25	18.00	3.50	5.75	-0.348145	0.148926	1.034668	30.240000	178.009995	-14.700000	962.00	0.23	-0.06
1.61	7.75	11.00	3.75	5.50	0.50	0.00	0.00	0.00	0.00	0.00	0.00	0.00	0.00	0.00	0.00	0.00	-0.199219	-0.718262	1.963867	-50.049999	208.110001	7.630000	289.00	-0.36	-0.06	0.25	0.50	0.00	0.00	0.00	0.75	0.75	3.75	10.75	12.00	13.75	11.50	9.75	19.00	3.75	6.00	-0.351074	0.132324	1.161621	28.280001	204.050003	-16.870001	933.00	0.25	-0.06
1.62	10.00	14.50	4.75	7.25	0.75	0.25	0.00	0.00	0.00	0.00	0.00	0.00	0.00	0.00	0.00	0.00	-0.713379	-0.579590	2.630371	-25.340000	197.119995	-18.270000	380.00	-0.36	-0.06	0.25	0.25	0.00	0.00	0.00	0.00	0.25	3.00	10.50	11.75	13.50	11.25	9.25	19.75	3.75	6.00	-0.400879	0.156250	1.286621	18.969999	230.930008	-19.879999	895.00	0.26	-0.05
1.63	12.25	16.50	5.75	8.25	1.00	0.50	0.00	0.00	0.00	0.00	0.00	0.00	0.00	0.00	0.00	0.00	-0.546875	0.407227	2.228516	-2.590000	149.380005	-34.020000	450.00	-0.36	-0.06	0.00	0.00	0.00	0.00	0.00	0.00	0.25	2.25	9.75	11.50	13.25	11.00	9.00	20.25	4.50	6.00	-0.391602	0.145508	1.416504	13.510000	258.790009	-22.400000	871.00	0.27	-0.05
1.64	13.75	17.75	6.50	9.25	1.25	1.00	0.00	0.00	0.00	0.00	0.00	0.00	0.00	0.00	0.00	0.00	-0.213867	0.603516	1.260742	6.230000	115.639999	-15.330000	504.00	-0.35	-0.06	0.25	0.50	0.00	0.00	0.00	0.00	0.00	1.50	9.25	11.25	13.00	10.75	8.25	20.50	4.50	5.75	-0.521973	0.141113	1.470703	9.940000	288.890015	-23.730000	842.00	0.27	-0.04
1.65	14.50	19.00	7.50	10.00	1.75	1.75	0.00	0.00	0.00	0.00	0.00	0.00	0.00	0.00	0.00	0.00	-0.039062	0.086426	0.924805	-0.140000	113.470001	2.170000	557.00	-0.35	-0.06	0.00	0.25	0.00	0.00	0.00	0.00	0.00	1.00	8.75	10.75	12.50	10.00	7.50	20.25	4.75	5.50	-0.344238	0.168457	1.786133	0.490000	323.820007	-26.040001	798.00	0.28	-0.03
1.66	15.50	20.50	8.25	11.00	2.00	2.75	0.00	0.25	0.00	0.00	0.00	0.00	0.25	0.00	0.00	0.00	-0.196777	-0.135742	1.384277	-6.230000	115.779999	-0.910000	620.00	-0.34	-0.07	0.00	0.00	0.00	0.00	0.00	0.00	0.00	0.50	7.75	10.00	11.75	9.75	6.75	19.50	4.50	5.00	-0.561035	0.257324	1.119629	-5.460000	353.290009	-27.370001	738.00	0.28	-0.03
1.67	16.50	21.25	9.00	12.50	2.50	3.50	0.25	0.50	0.00	0.00	0.00	0.00	0.25	0.00	0.00	0.00	-0.357422	0.130859	1.610840	-4.620000	97.160004	-6.230000	683.00	-0.33	-0.07	0.00	0.00	0.00	0.00	0.00	0.00	0.00	0.25	6.75	9.50	11.00	8.75	5.75	18.50	4.00	3.75	-0.695312	0.420898	1.712402	0.210000	380.239990	-38.360001	668.00	0.28	-0.02
1.68	17.00	22.00	9.25	13.25	3.00	4.50	0.25	0.50	0.00	0.00	0.00	0.00	0.00	0.00	0.00	0.00	-0.292969	0.297852	1.428711	-16.240000	70.419998	-3.290000	720.00	-0.33	-0.07	0.25	0.00	0.00	0.00	0.00	0.00	0.00	0.00	5.50	8.50	9.75	8.25	5.00	16.50	3.25	2.75	-0.773438	0.329590	1.915527	3.990000	403.410004	-51.730000	585.00	0.28	-0.02
1.69	17.75	22.50	9.50	14.00	3.25	5.25	0.25	0.75	0.00	0.00	0.00	0.00	0.25	0.00	0.00	0.00	-0.153320	0.100586	1.095703	-27.230000	53.830002	1.260000	761.00	-0.32	-0.08	0.00	0.00	0.00	0.00	0.00	0.00	0.00	0.00	4.00	7.50	8.50	7.00	3.00	13.75	2.50	1.75	-0.864258	0.355957	2.497070	10.850000	423.640015	-59.290001	472.00	0.28	-0.02
1.70	17.50	22.25	10.25	14.75	4.00	6.75	0.25	1.00	0.00	0.25	0.00	0.25	0.50	0.00	0.00	0.00	-0.190918	0.061523	1.125000	-24.570000	37.310001	-0.910000	808.00	-0.31	-0.08	0.00	0.00	0.00	0.00	0.00	0.00	0.00	0.00	3.00	5.75	6.75	5.25	2.00	10.50	2.00	1.00	-1.019531	0.449707	2.337891	21.139999	441.070007	-59.150002	358.00	0.29	-0.02
1.71	18.25	23.50	10.25	15.50	4.25	7.00	0.25	1.25	0.00	0.00	0.25	0.25	0.50	0.00	0.00	0.00	-0.160156	0.088867	1.062988	-19.320000	26.040001	-0.420000	845.00	-0.31	-0.08	0.00	0.25	0.00	0.00	0.00	0.00	0.00	0.00	1.50	4.50	5.25	3.50	1.00	7.50	0.75	0.50	-0.736816	0.506836	2.324219	58.240002	455.700012	-62.439999	244.00	0.28	-0.01
1.72	18.50	23.75	10.75	16.00	5.00	7.75	0.50	1.50	0.00	0.25	0.25	0.00	0.75	0.00	0.00	0.00	-0.133301	0.086426	1.001465	-17.780001	20.790001	-0.420000	887.00	-0.30	-0.08	0.00	0.00	0.00	0.00	0.00	0.00	0.00	0.00	0.75	2.75	3.50	2.50	1.00	5.00	0.75	0.50	-0.556152	0.315918	2.434570	97.440002	465.149994	-70.000000	163.00	0.28	-0.03
1.73	18.25	23.50	11.00	16.00	5.50	8.00	0.50	1.50	0.00	0.50	0.25	0.00	0.75	0.00	0.00	0.00	-0.128906	0.085449	0.988770	-17.010000	19.530001	-0.700000	896.00	-0.30	-0.08	0.00	0.00	0.00	0.00	0.00	0.00	0.00	0.00	1.25	2.25	2.50	1.50	0.75	1.75	0.50	0.00	-0.200684	-0.000977	2.490723	110.040001	479.429993	-79.099998	108.00	0.26	-0.02
1.74	18.25	23.00	10.75	16.00	5.75	8.25	0.50	1.75	0.25	0.25	0.25	0.50	0.75	0.25	0.00	0.00	-0.107910	0.071777	0.984863	-16.030001	18.900000	-0.980000	906.00	-0.29	-0.08	0.00	0.00	0.00	0.00	0.00	0.25	0.25	0.00	0.25	1.75	1.75	0.75	0.50	0.75	0.00	0.00	0.301758	0.295898	2.553223	111.230003	471.589996	-92.400002	65.00	0.22	-0.05
1.75	17.75	23.25	11.25	16.25	5.75	8.75	0.50	2.00	0.25	0.25	0.25	0.50	0.75	0.25	0.00	0.00	-0.112305	0.069336	0.977539	-13.650000	17.990000	-1.190000	920.00	-0.29	-0.09	0.00	0.00	0.00	0.00	0.00	0.00	0.25	0.00	0.00	1.00	1.25	0.75	0.50	0.50	0.25	0.25	0.479004	1.222656	5.431641	112.910004	309.959991	-128.029999	48.00	0.00	0.00
1.76	17.50	23.00	11.25	16.25	6.00	9.00	0.75	2.25	0.50	0.50	0.50	0.50	1.00	0.25	0.00	0.00	-0.102051	0.081543	0.953613	-10.920000	17.570000	-0.630000	939.00	-0.28	-0.09	0.25	0.00	0.00	0.00	0.00	0.00	0.25	0.00	0.00	0.75	1.50	0.75	0.50	0.50	0.00	0.00	1.176270	0.828125	4.316895	88.340004	77.699997	-98.209999	46.00	0.00	0.00
1.77	17.25	22.25	11.00	16.00	6.00	9.25	0.50	2.25	0.25	0.50	0.75	0.75	1.00	0.25	0.00	0.00	-0.113281	0.069336	0.987305	-8.330000	18.549999	-0.140000	925.00	-0.28	-0.09	0.00	0.00	0.00	0.00	0.00	0.00	0.25	0.00	0.25	1.25	1.25	0.25	0.50	0.25	0.25	0.00	1.196777	0.596191	2.956055	22.190001	-105.629997	-57.400002	45.00	0.00	0.00
1.78	16.50	21.75	11.00	15.75	6.50	9.50	0.75	2.75	0.50	1.00	0.50	0.50	1.25	0.50	0.00	0.00	-0.124023	0.076660	0.980957	-7.140000	18.830000	-0.140000	937.00	-0.27	-0.09	0.00	0.00	0.00	0.00	0.00	0.00	0.25	0.00	0.00	0.75	0.75	0.25	0.00	0.50	0.00	0.00	0.862305	0.506348	1.545898	-30.940001	-178.430008	-29.049999	26.00	0.00	0.00
1.79	15.50	21.25	10.75	15.25	6.50	9.50	0.75	3.25	0.50	0.75	0.75	0.75	1.25	0.25	0.00	0.00	-0.100586	0.074707	0.952637	-7.560000	20.440001	-0.280000	922.00	-0.26	-0.10	0.00	0.00	0.00	0.00	0.00	0.25	0.25	0.00	0.25	0.50	0.75	0.25	0.50	0.25	0.00	0.00	0.721680	0.574707	0.931641	-46.759998	-177.520004	-17.010000	32.00	0.00	0.00
1.80	14.25	20.00	10.25	15.00	6.50	9.75	1.00	3.75	0.75	1.00	0.75	0.75	1.25	0.50	0.00	0.00	-0.124023	0.077637	0.978516	-9.170000	21.980000	-0.910000	911.00	-0.25	-0.10	0.00	0.25	0.00	0.00	0.00	0.00	0.25	0.00	0.00	0.50	0.75	0.25	0.25	0.00	0.00	0.00	0.691895	0.559570	0.907715	-24.920000	-161.279999	-11.620000	24.00	0.00	0.00
1.81	13.25	19.00	9.75	14.25	6.50	9.75	0.75	4.25	0.75	1.00	1.25	0.75	1.50	0.50	0.00	0.00	-0.123535	0.064941	0.968750	-10.290000	22.960001	-1.400000	889.00	-0.24	-0.10	0.00	0.00	0.00	0.00	0.00	0.00	0.25	0.00	0.00	0.50	0.50	0.25	0.00	0.00	0.00	0.00	0.781738	0.473633	1.196289	6.440000	-163.100006	-6.090000	17.00	0.00	0.00
1.82	11.75	17.50	9.75	13.75	6.50	9.50	1.00	4.50	1.00	1.25	1.00	0.75	1.75	0.75	0.00	0.00	-0.137695	0.060547	0.979004	-10.360000	23.100000	-1.680000	867.00	-0.23	-0.10	0.00	0.00	0.00	0.00	0.00	0.00	0.25	0.00	0.00	0.25	0.50	0.25	0.00	0.00	0.00	0.00	0.790527	0.301270	1.409668	18.969999	-189.630005	2.940000	14.00	0.00	0.00
1.83	10.75	16.75	9.50	13.50	6.50	9.50	1.00	5.00	1.50	1.25	1.25	1.00	2.00	0.75	0.00	0.00	-0.145020	0.059082	0.979492	-9.870000	22.610001	-1.890000	866.00	-0.21	-0.11	0.00	0.00	0.00	0.00	0.00	0.00	0.25	0.00	0.00	0.25	0.00	0.00	0.00	0.00	0.00	0.00	0.726562	0.193848	1.450195	5.390000	-227.149994	15.540000	6.00	0.00	0.00
1.84	9.50	15.25	9.00	12.75	6.50	9.50	1.00	5.00	0.75	1.25	1.50	1.25	2.00	1.00	0.00	0.00	-0.145508	0.059570	0.973145	-8.680000	21.420000	-2.310000	823.00	-0.21	-0.11	0.00	0.25	0.00	0.00	0.00	0.00	0.25	0.00	0.00	0.50	0.00	0.25	0.00	0.00	0.00	0.00	0.626953	0.199707	1.412598	-18.620001	-262.570007	29.260000	14.00	0.00	0.00
1.85	9.00	14.25	8.75	12.00	6.50	9.50	1.25	5.25	1.50	1.50	1.25	1.00	2.25	0.75	0.25	0.00	-0.147461	0.050293	0.976562	-6.720000	19.950001	-2.450000	815.00	-0.20	-0.11	0.00	0.00	0.00	0.00	0.00	0.00	0.25	0.00	0.00	0.00	0.00	0.00	0.00	0.00	0.00	0.00	0.521973	0.225586	1.355957	-33.599998	-290.779999	41.230000	4.00	0.00	0.00
1.86	8.00	12.50	8.50	11.50	6.50	9.25	1.00	5.25	1.25	1.50	1.50	1.25	2.25	0.75	0.00	0.00	-0.152344	0.046387	0.988281	-4.410000	18.410000	-2.240000	773.00	-0.19	-0.11	0.00	0.00	0.00	0.00	0.00	0.00	0.25	0.00	0.00	0.00	0.00	0.00	0.00	0.00	0.00	0.00	0.400879	0.232422	1.280762	-32.689999	-312.899994	49.349998	4.00	0.00	0.00
1.87	7.25	11.50	8.25	11.00	6.50	9.25	1.25	5.50	1.50	1.75	1.75	1.25	2.50	1.25	0.00	0.00	-0.148438	0.052246	0.969238	-2.590000	17.500000	-2.100000	770.00	-0.17	-0.11	0.00	0.00	0.00	0.00	0.00	0.00	0.25	0.00	0.00	0.25	0.00	0.00	0.25	0.00	0.00	0.00	0.257324	0.192383	1.212402	-21.559999	-329.700012	53.270000	9.00	0.00	0.00
1.88	7.00	10.00	8.00	10.50	6.50	9.00	1.25	5.75	1.75	1.50	2.00	1.50	2.50	1.00	0.00	0.00	-0.138184	0.056641	0.962891	-1.890000	17.360001	-1.750000	750.00	-0.16	-0.11	0.00	0.25	0.00	0.00	0.00	0.00	0.25	0.00	0.00	0.00	0.00	0.00	0.00	0.00	0.00	0.00	0.111328	0.153809	1.137695	-8.260000	-340.549988	53.970001	6.00	0.00	0.00
1.89	6.25	9.25	7.50	9.75	6.50	9.00	1.50	5.75	1.75	2.00	1.75	1.25	3.00	1.00	0.00	0.25	-0.146973	0.059082	0.967773	-1.750000	17.430000	-1.750000	731.00	-0.15	-0.12	0.00	0.00	0.00	0.00	0.00	0.00	0.25	0.00	0.00	0.00	0.25	0.00	0.00	0.00	0.00	0.00	-0.020508	0.104492	1.126953	0.770000	-345.100006	53.270000	6.00	0.00	0.00
1.90	5.50	8.25	7.00	9.00	6.25	9.00	1.50	6.00	2.00	1.75	2.00	1.75	3.00	1.50	0.00	0.25	-0.146973	0.057129	0.963867	-2.030000	17.780001	-2.310000	714.00	-0.14	-0.12	0.00	0.00	0.00	0.00	0.00	0.00	0.25	0.00	0.00	0.00	0.00	0.00	0.00	0.00	0.00	0.00	-0.120117	0.082031	1.203125	2.730000	-346.779999	52.920002	4.00	0.00	0.00
1.91	5.25	7.50	6.50	8.75	6.25	8.75	1.75	6.00	2.25	2.25	2.25	1.75	3.00	1.75	0.25	0.25	-0.145508	0.057129	0.959961	-2.030000	18.059999	-3.570000	713.00	-0.12	-0.11	0.00	0.00	0.00	0.00	0.00	0.00	0.25	0.00	0.00	0.00	0.00	0.00	0.00	0.00	0.00	0.00	-0.189453	0.099609	1.291992	-1.890000	-348.880005	54.320000	4.00	0.00	0.00
1.92	4.75	6.75	6.25	8.25	6.25	9.00	1.75	6.25	2.75	2.50	2.50	2.00	3.50	1.50	0.25	0.50	-0.155273	0.054688	0.959473	-2.030000	18.480000	-4.130000	717.00	-0.10	-0.12	0.00	0.00	0.00	0.00	0.00	0.00	0.25	0.00	0.00	0.00	0.00	0.00	0.00	0.00	0.00	0.00	-0.251465	0.135254	1.378906	-8.540000	-352.450012	58.240002	4.00	0.00	0.00
1.93	4.00	6.50	6.00	7.75	6.25	8.75	1.75	6.25	3.00	2.50	2.50	2.25	3.75	1.50	0.25	0.25	-0.157715	0.051758	0.961426	-1.120000	18.900000	-4.550000	703.00	-0.09	-0.12	0.00	0.00	0.00	0.00	0.00	0.00	0.25	0.00	0.00	0.00	0.00	0.00	0.00	0.00	0.00	0.00	-0.326172	0.185547	1.440918	-12.530000	-356.440002	63.770000	4.00	0.00	0.00
1.94	3.50	5.75	5.50	7.00	6.00	8.75	2.00	6.50	3.25	2.75	3.00	2.50	4.00	2.00	0.50	0.50	-0.158691	0.040039	0.963379	-0.000000	19.320000	-4.410000	706.00	-0.07	-0.12	0.00	0.25	0.00	0.00	0.00	0.00	0.25	0.00	0.00	0.00	0.00	0.00	0.00	0.00	0.00	0.00	-0.431641	0.201660	1.456055	-12.880000	-358.399994	68.739998	6.00	0.00	0.00
1.95	3.00	5.25	5.00	6.75	6.00	8.75	2.25	6.75	3.75	3.00	3.00	2.75	5.00	2.00	0.50	0.50	-0.165527	0.052246	0.962402	0.980000	20.299999	-4.410000	716.00	-0.05	-0.12	0.00	0.25	0.00	0.00	0.00	0.00	0.25	0.00	0.00	0.00	0.00	0.00	0.00	0.00	0.00	0.00	-0.629395	0.224609	1.525879	-10.850000	-348.320007	73.849998	6.00	0.00	0.00
1.96	2.50	5.00	4.75	6.25	5.75	8.50	2.50	7.00	4.00	3.50	3.25	3.00	5.25	3.00	0.50	0.50	-0.166016	0.044434	0.971680	2.310000	21.070000	-3.990000	727.00	-0.04	-0.12	0.00	0.00	0.00	0.00	0.25	0.00	0.25	0.00	0.00	0.00	0.00	0.00	0.00	0.00	0.00	0.00	-0.696777	0.250488	1.675293	-9.800000	-338.380005	74.830002	7.00	0.00	0.00
1.97	2.25	4.50	4.25	6.00	5.75	8.50	2.50	7.00	4.50	3.50	3.75	3.25	5.75	3.75	0.50	0.75	-0.157715	0.053223	0.962402	4.340000	21.559999	-3.780000	738.00	-0.02	-0.11	0.00	0.00	0.00	0.00	0.00	0.00	0.25	0.00	0.00	0.00	0.00	0.00	0.00	0.00	0.00	0.00	-0.741699	0.262207	1.910645	-8.190000	-329.769989	75.320000	4.00	0.00	0.00
1.98	2.00	3.75	3.50	5.50	5.50	8.25	2.75	7.50	5.25	4.25	4.75	3.50	6.25	3.75	0.75	1.00	-0.153320	0.056152	0.958008	5.670000	23.450001	-3.710000	760.00	0.01	-0.11	0.00	0.00	0.00	0.00	0.00	0.00	0.25	0.00	0.00	0.00	0.00	0.00	0.00	0.00	0.00	0.00	-0.779297	0.234375	2.128418	-10.010000	-325.220001	74.550003	4.00	0.00	0.00
1.99	1.75	3.25	3.25	5.00	5.50	8.25	2.75	7.50	5.50	4.50	5.75	4.00	7.00	5.00	1.00	1.00	-0.141602	0.054688	0.968262	5.530000	27.650000	-4.410000	785.00	0.03	-0.11	0.00	0.00	0.00	0.00	0.00	0.00	0.25	0.00	0.00	0.00	0.00	0.00	0.00	0.00	0.00	0.00	-0.860352	0.223633	2.233398	-16.730000	-321.929993	72.099998	4.00	0.00	0.00
2.00	1.75	3.50	3.00	5.00	5.25	8.00	3.00	7.75	7.25	5.75	6.50	5.00	7.00	6.25	1.00	1.25	-0.197266	0.077637	0.968750	4.690000	32.270000	-5.320000	853.00	0.05	-0.10	0.00	0.00	0.00	0.00	0.00	0.00	0.25	0.00	0.00	0.00	0.00	0.00	0.00	0.00	0.00	0.00	-1.050781	0.245117	2.374023	-23.590000	-316.049988	69.019997	4.00	0.00	0.00
2.01	1.50	3.00	2.50	4.50	5.00	7.50	3.00	7.75	7.75	7.25	7.50	5.75	7.50	7.50	1.00	1.50	-0.190918	0.030273	0.981445	4.270000	36.330002	-6.160000	884.00	0.07	-0.09	0.00	0.00	0.00	0.00	0.00	0.00	0.25	0.00	0.00	0.00	0.00	0.00	0.00	0.00	0.00	0.00	-1.355469	0.293457	2.563477	-23.660000	-308.630005	65.519997	4.00	0.00	0.00
2.02	0.75	2.25	2.25	4.25	4.25	7.00	3.25	7.75	8.50	7.50	8.00	7.00	8.25	8.00	1.25	2.00	-0.221191	0.065918	1.006348	6.300000	41.160000	-8.120000	901.00	0.09	-0.09	0.00	0.00	0.00	0.00	0.00	0.00	0.25	0.00	0.00	0.00	0.00	0.00	0.00	0.00	0.00	0.00	-1.739258	0.346680	2.849609	-15.330000	-305.549988	62.580002	4.00	0.00	0.00
2.03	1.00	2.25	1.75	3.25	3.75	6.50	3.25	7.75	8.75	8.25	8.75	7.50	8.50	9.00	1.75	2.50	-0.161133	0.052246	0.994629	7.630000	48.439999	-9.450000	919.00	0.11	-0.09	0.00	0.25	0.00	0.00	0.00	0.25	0.25	0.00	0.00	0.00	0.00	0.00	0.00	0.00	0.00	0.00	-2.186523	0.390625	3.099121	-3.710000	-317.380005	60.900002	9.00	0.00	0.00
2.04	1.00	2.00	1.50	3.00	3.00	5.75	3.25	7.50	9.50	8.75	9.25	8.00	9.00	10.00	1.75	3.00	-0.236816	0.060547	1.009277	9.380000	56.279999	-11.760000	932.00	0.13	-0.09	0.00	0.50	0.00	0.00	0.00	0.00	0.25	0.00	0.00	0.25	0.00	0.00	0.00	0.00	0.00	0.00	-2.554688	0.453613	2.894531	-5.250000	-342.369995	60.970001	11.00	0.00	0.00
2.05	0.75	1.75	1.50	2.75	2.50	5.25	3.25	7.50	10.00	9.25	10.25	8.50	9.25	11.25	2.25	4.25	-0.219238	0.071289	1.002441	12.320000	65.239998	-14.420000	966.00	0.14	-0.08	0.00	0.00	0.00	0.00	0.00	0.00	0.25	0.00	0.00	0.00	0.00	0.00	0.00	0.00	0.00	0.00	-2.742676	0.513184	2.189453	-28.490000	-359.309998	63.420002	4.00	0.00	0.00
2.06	1.00	1.50	0.50	2.25	2.00	4.75	3.00	7.25	10.75	10.00	10.75	9.00	9.50	12.50	2.75	5.00	-0.194824	0.061035	1.022461	13.790000	77.699997	-15.680000	981.00	0.16	-0.08	0.00	0.00	0.00	0.00	0.00	0.00	0.25	0.00	0.00	0.00	0.00	0.00	0.00	0.00	0.00	0.00	-3.247559	0.701660	1.316895	-60.689999	-350.559998	57.119999	4.00	0.00	0.00
2.07	0.50	1.50	1.00	2.00	1.50	3.75	2.75	7.00	11.25	10.25	11.50	9.50	9.75	13.50	3.00	5.25	-0.241211	0.054688	1.082520	13.790000	91.769997	-15.190001	992.00	0.17	-0.07	0.00	0.00	0.00	0.00	0.00	0.00	0.25	0.00	0.00	0.00	0.00	0.00	0.00	0.00	0.00	0.00	-4.041016	0.989746	0.348145	-61.599998	-316.679993	27.719999	4.00	0.00	0.00
2.08	0.50	1.00	0.75	1.75	1.00	3.00	2.75	6.50	11.75	11.00	12.25	10.00	9.75	14.75	3.25	5.75	-0.272461	0.100098	0.996582	18.830000	104.580002	-14.630000	1004.00	0.19	-0.07	0.00	0.00	0.00	0.00	0.00	0.00	0.25	0.00	0.00	0.00	0.00	0.00	0.00	0.00	0.00	0.00	-4.822266	1.043945	-0.563477	22.610001	-266.140015	-12.600000	4.00	0.00	0.00
2.09	0.25	1.25	0.75	1.75	0.75	2.50	2.25	6.25	12.00	11.25	12.75	10.50	9.75	15.75	4.00	6.25	-0.286133	0.093750	1.035645	24.430000	118.230003	-15.400000	1020.00	0.20	-0.07	0.00	0.25	0.00	0.00	0.00	0.00	0.25	0.00	0.00	0.00	0.00	0.00	0.00	0.00	0.00	0.00	-5.344727	0.452148	-1.075684	161.559998	-197.610001	-39.480000	6.00	0.00	0.00
2.10	0.50	0.75	0.50	1.25	0.50	2.00	2.00	5.75	12.25	11.50	13.25	11.00	9.50	17.00	4.25	6.50	-0.362793	0.074707	1.054688	27.719999	135.169998	-14.280000	1018.00	0.21	-0.06	0.00	0.00	0.00	0.00	0.00	0.00	0.25	0.00	0.00	0.00	0.00	0.00	0.00	0.00	0.00	0.00	-5.292969	-0.299805	-1.147461	236.180008	-114.029999	-39.900002	4.00	0.00	0.00
2.11	0.25	0.75	0.50	1.00	0.25	1.50	1.50	5.25	12.50	11.75	13.75	11.00	9.50	17.75	5.00	6.75	-0.287598	0.041992	1.194336	33.880001	155.960007	-12.040000	1017.00	0.22	-0.06	0.00	0.00	0.00	0.00	0.00	0.00	0.25	0.00	0.00	0.00	0.00	0.00	0.00	0.00	0.00	0.00	-4.545410	-0.819824	-0.876465	193.759995	-23.660000	-17.430000	4.00	0.00	0.00
2.12	0.25	0.50	0.50	0.50	0.25	0.75	1.25	5.00	12.50	11.75	14.00	11.25	9.00	19.00	5.50	7.25	-0.448242	0.190430	1.041016	41.160000	208.039993	-10.990000	1013.00	0.24	-0.05	0.00	0.00	0.00	0.00	0.00	0.00	0.25	0.00	0.00	0.00	0.00	0.00	0.00	0.00	0.00	0.00	-3.611816	-0.710938	-0.282227	76.090004	57.540001	18.270000	4.00	0.00	0.00
2.13	0.25	0.50	0.00	0.75	0.00	0.50	0.75	4.25	12.25	11.75	13.75	11.00	8.75	19.50	6.00	7.25	-0.476074	0.202637	1.087891	40.880001	240.449997	-14.910000	984.00	0.25	-0.05	0.00	0.00	0.00	0.00	0.00	0.00	0.25	0.00	0.00	0.00	0.00	0.00	0.00	0.00	0.00	0.00	-2.799316	-0.201172	0.375488	-35.490002	109.550003	57.750000	4.00	0.00	0.00
2.14	0.00	0.00	0.00	0.00	0.00	0.25	0.50	3.50	12.00	11.50	13.50	10.75	8.25	20.25	6.25	7.25	-0.438965	0.126953	1.377441	37.380001	271.880005	-19.530001	944.00	0.26	-0.04	0.25	0.00	0.00	0.25	0.00	0.00	0.00	0.00	0.00	0.00	0.00	0.00	0.00	0.00	0.00	0.00	-0.800781	1.310059	2.921387	-69.720001	194.320007	119.070000	5.00	0.00	0.00
2.15	0.00	0.00	0.00	0.25	0.00	0.25	0.25	2.75	11.50	11.25	13.50	10.50	7.75	20.50	6.25	7.00	-0.516602	0.128906	1.436035	36.680000	302.890015	-22.960001	916.00	0.27	-0.04	1.25	1.25	0.75	1.25	0.00	0.00	0.25	0.00	0.00	0.00	0.00	0.00	0.00	0.00	0.00	0.00	0.976074	0.444336	-0.695801	-54.740002	151.339996	131.389999	50.00	-0.32	-0.04
2.16	0.00	0.25	0.00	0.00	0.00	0.25	0.25	2.75	10.75	11.00	13.25	10.25	7.25	20.50	6.25	7.00	-0.634277	0.197266	1.504395	35.700001	327.320007	-25.059999	894.00	0.27	-0.04	2.50	3.75	1.50	2.50	0.25	0.00	0.25	0.00	0.00	0.00	0.00	0.00	0.00	0.00	0.00	0.00	1.067871	-1.181641	0.345703	-74.269997	128.520004	128.869995	111.00	-0.33	-0.06
2.17	0.00	0.00	0.00	0.00	0.00	0.00	0.00	2.25	10.00	10.25	12.75	9.75	6.50	20.00	6.50	6.75	-0.487305	0.125488	1.540039	34.720001	371.000000	-26.600000	840.00	0.28	-0.04	7.75	9.00	3.00	5.25	0.25	0.00	0.25	0.00	0.00	0.00	0.00	0.00	0.00	0.00	0.00	0.00	-0.173828	-1.932617	0.649902	-41.790001	209.440002	97.650002	261.00	-0.35	-0.05
2.18	0.25	0.00	0.00	0.00	0.00	0.00	0.00	1.75	8.75	9.50	11.75	9.00	5.75	19.75	6.00	6.25	-0.660645	0.249023	1.426758	36.400002	407.750000	-26.809999	776.00	0.28	-0.03	13.25	14.00	4.50	7.75	0.25	0.00	0.25	0.00	0.00	0.00	0.00	0.00	0.25	0.00	0.00	0.00	-0.611816	-2.298828	2.564453	15.890000	301.489990	31.219999	410.00	-0.36	-0.05
2.19	0.00	0.00	0.00	0.00	0.00	0.00	0.00	1.25	7.50	8.50	10.50	8.00	5.25	18.50	5.75	5.75	-0.936523	0.522461	2.307129	52.150002	442.330017	-33.250000	695.00	0.28	-0.03	17.50	17.75	7.50	9.25	1.00	0.00	0.25	0.00	0.00	0.00	0.00	0.00	0.25	0.00	0.00	0.00	-1.070312	-0.058594	3.794434	33.110001	290.989990	-57.260002	547.00	-0.35	-0.04
2.20	0.00	0.00	0.00	0.00	0.00	0.00	0.00	1.00	5.50	7.00	8.75	7.00	4.00	16.50	5.00	4.75	-1.067383	0.290039	2.544922	73.919998	471.660004	-38.709999	579.00	0.29	-0.03	20.75	19.50	9.25	11.00	1.75	1.50	0.25	0.00	0.00	0.00	0.00	0.00	0.25	0.00	0.00	0.00	-0.812988	1.548828	2.857422	31.570000	227.290009	-60.760002	660.00	-0.35	-0.04
2.21	0.00	0.00	0.00	0.00	0.00	0.00	0.00	0.75	3.75	5.00	6.75	5.25	2.75	13.75	3.75	3.50	-0.987793	0.353027	3.025879	99.050003	505.399994	-36.119999	438.00	0.29	-0.03	21.75	20.50	10.25	12.00	3.00	3.25	0.50	0.25	0.00	0.00	0.00	0.25	0.50	0.00	0.00	0.00	-0.525391	0.975098	2.420898	-22.400000	179.619995	-6.300000	746.00	-0.33	-0.05
2.22	0.00	0.00	0.00	0.00	0.00	0.00	0.00	0.25	2.50	3.25	4.50	3.75	2.25	10.75	2.75	2.25	-1.064941	0.437988	3.107910	134.539993	534.659973	-34.509998	309.00	0.30	-0.02	22.25	20.75	10.75	12.50	4.25	4.25	0.50	0.75	0.00	0.00	0.00	0.25	0.75	0.00	0.00	0.00	-0.363281	-0.434570	1.926758	-68.809998	134.680008	12.670000	799.00	-0.32	-0.05
2.23	0.00	0.00	0.00	0.00	0.00	0.00	0.00	0.25	1.50	2.50	3.00	2.50	1.50	7.75	1.50	1.00	-0.816895	0.375488	3.052246	172.339996	557.830017	-39.480000	207.00	0.30	-0.02	21.75	20.50	11.00	12.75	5.50	5.00	0.50	1.00	0.00	0.00	0.00	0.25	1.00	0.00	0.00	0.00	-0.173340	-0.224609	1.468750	-47.459999	97.860001	-3.850000	825.00	-0.31	-0.06
2.24	0.00	0.00	0.00	0.00	0.00	0.00	0.00	0.25	1.00	2.00	2.00	2.00	0.75	4.75	0.75	0.50	-0.344727	0.407227	2.873535	215.809998	572.460022	-49.630001	137.00	0.29	-0.02	20.75	19.75	11.00	13.00	6.00	6.00	0.75	1.00	0.00	0.00	0.25	0.25	0.75	0.00	0.00	0.00	-0.181641	0.240723	1.163086	-24.010000	70.840004	-4.130000	831.00	-0.30	-0.06
2.25	0.00	0.00	0.00	0.00	0.00	1.00	0.00	0.25	1.25	1.25	1.00	1.00	0.50	2.50	0.25	0.25	0.174316	-0.072754	2.916992	246.470001	571.619995	-86.029999	95.00	0.22	-0.02	20.50	19.75	11.25	13.25	6.00	6.50	0.50	1.50	0.00	0.00	0.00	0.25	0.50	0.00	0.00	0.00	-0.252930	0.081543	1.230957	-26.389999	54.529999	4.760000	839.00	-0.30	-0.06
2.26	0.25	0.00	0.00	0.00	0.00	0.00	0.00	0.00	0.75	1.00	0.75	1.00	0.50	1.25	0.00	0.00	0.138672	-0.370605	1.713379	233.520004	569.940002	-151.759995	56.00	0.23	-0.01	20.00	19.50	11.00	13.25	6.25	7.00	0.75	1.75	0.00	0.25	0.25	0.50	1.50	0.00	0.00	0.00	-0.145996	0.020020	1.108887	-27.160000	33.529999	4.410000	861.00	-0.29	-0.07
2.27	0.00	0.50	0.25	0.00	0.00	0.00	0.00	0.00	0.50	1.25	1.00	0.75	0.25	1.25	0.00	0.00	0.331543	0.748047	6.042480	126.489998	433.649994	-189.070007	58.00	0.19	-0.01	20.00	19.25	11.00	13.50	6.50	7.50	0.75	2.25	0.00	0.50	0.25	0.25	1.25	0.00	0.00	0.00	-0.128418	0.140625	1.025391	-19.670000	14.980000	2.520000	875.00	-0.28	-0.07
2.28	0.00	0.00	0.00	0.00	0.00	0.00	0.00	0.00	0.50	1.25	0.75	0.25	0.00	0.75	0.00	0.00	1.164551	0.888672	5.395996	11.550000	184.589996	-161.070007	36.00	0.00	0.00	19.75	19.00	11.25	13.50	6.50	7.75	0.75	2.25	0.00	0.25	0.25	0.75	1.25	0.00	0.00	0.00	-0.084473	0.057617	1.007324	-16.170000	10.010000	3.220000	878.00	-0.28	-0.07
2.29	0.00	0.25	0.00	0.00	0.00	0.00	0.00	0.00	0.00	1.00	0.25	0.50	0.00	0.50	0.00	0.00	1.474121	1.168945	3.990234	-83.440002	-53.270000	-95.480003	25.00	0.00	0.00	19.25	19.00	11.25	13.50	6.75	8.00	0.75	2.25	0.00	0.25	0.50	0.25	1.25	0.25	0.00	0.00	-0.068359	0.048340	1.020020	-11.900000	9.170000	2.940000	878.00	-0.28	-0.07
2.30	0.00	0.25	0.25	0.00	0.00	0.00	0.00	0.00	0.25	0.50	0.50	0.50	0.00	0.00	0.00	0.00	1.078613	1.057617	2.350586	-122.430000	-175.139999	-51.939999	24.00	0.00	0.00	18.75	18.50	11.00	13.25	6.75	8.25	0.75	2.50	0.00	0.25	0.50	0.25	1.50	0.25	0.00	0.00	-0.069824	0.089355	0.998047	-9.520000	8.750000	2.240000	871.00	-0.28	-0.08
2.31	0.00	0.00	0.25	0.00	0.00	0.25	0.00	0.00	0.00	0.75	0.25	0.00	0.00	0.25	0.00	0.00	0.840332	0.861816	0.898438	-42.490002	-212.940002	-44.310001	18.00	0.00	0.00	18.25	17.75	11.00	13.00	6.50	8.00	1.00	2.50	0.50	1.00	0.50	0.50	1.50	0.25	0.00	0.00	-0.072754	0.072266	0.982910	-10.010000	10.080000	1.750000	872.00	-0.26	-0.07
2.32	0.00	0.25	0.00	0.00	0.00	0.00	0.00	0.00	0.00	0.50	0.25	0.25	0.25	0.00	0.00	0.00	0.840332	0.861816	0.898438	-42.490002	-212.940002	-44.310001	15.00	0.00	0.00	17.25	17.25	10.75	12.75	6.50	8.00	1.00	2.75	0.00	0.75	0.75	0.50	1.75	0.25	0.00	0.00	-0.086914	0.055176	0.999023	-10.290000	11.900000	0.700000	851.00	-0.26	-0.08
2.33	0.00	0.00	0.25	0.00	0.00	0.00	0.00	0.00	0.00	0.25	0.00	0.00	0.00	0.00	0.00	0.00	0.745117	0.526367	1.057617	30.240000	-230.300003	-32.549999	5.00	0.00	0.00	16.50	16.50	10.50	12.50	6.50	8.00	1.00	3.00	0.25	0.75	0.75	0.75	1.25	0.00	0.00	0.00	-0.086914	0.055176	0.999023	-10.290000	11.900000	0.700000	834.00	-0.26	-0.08
2.34	0.00	0.00	0.50	0.00	0.00	0.00	0.00	0.00	0.00	0.50	0.00	0.00	0.00	0.00	0.00	0.00	0.618164	0.401855	1.163574	18.549999	-257.110016	-17.360001	11.00	0.00	0.00	15.25	15.75	10.25	12.00	6.25	7.75	0.75	3.25	0.25	0.75	1.00	0.75	1.50	0.25	0.25	0.25	-0.088379	0.043945	1.008301	-7.770000	11.900000	1.120000	811.00	-0.25	-0.09
2.35	0.00	0.25	0.25	0.25	0.00	0.00	0.00	0.00	0.00	0.50	0.00	0.00	0.00	0.00	0.00	0.00	0.479980	0.395020	1.143555	-12.810000	-286.579987	-0.560000	13.00	0.00	0.00	14.25	15.00	9.75	11.75	6.25	7.75	1.00	3.00	0.25	0.50	0.50	0.75	1.75	0.25	0.00	0.00	-0.082520	0.048828	0.979492	-3.780000	12.460000	1.680000	776.00	-0.25	-0.09
2.36	0.00	0.00	0.50	0.00	0.00	0.00	0.00	0.00	0.00	0.00	0.00	0.25	0.00	0.00	0.00	0.00	0.318359	0.455566	1.151855	-41.580002	-311.079987	16.799999	8.00	0.00	0.00	13.00	13.50	9.25	11.50	6.00	7.50	1.00	3.00	0.25	1.00	1.00	1.00	1.75	0.25	0.00	0.00	-0.083008	0.053711	0.982422	-4.130000	14.000000	1.540000	748.00	-0.24	-0.09
2.37	0.00	0.25	0.25	0.00	0.00	0.00	0.00	0.00	0.00	0.25	0.00	0.00	0.00	0.00	0.00	0.00	0.195312	0.525879	1.165039	-55.160000	-331.380005	32.970001	8.00	0.00	0.00	11.75	12.50	9.00	11.00	5.75	7.50	1.00	3.25	0.75	0.75	1.25	0.75	2.00	0.50	0.00	0.00	-0.087402	0.055176	0.978027	-5.390000	14.840000	0.840000	727.00	-0.23	-0.09
2.38	0.00	0.50	0.25	0.00	0.00	0.00	0.00	0.00	0.00	0.00	0.00	0.00	0.00	0.00	0.00	0.00	0.053223	0.558594	1.159668	-50.259998	-350.910004	45.150002	7.00	0.00	0.00	10.75	11.75	8.50	10.50	5.75	7.25	1.00	3.00	0.25	1.00	1.25	1.00	2.25	0.50	0.00	0.25	-0.094238	0.049316	0.981445	-6.860000	15.050000	-0.350000	695.00	-0.22	-0.10
2.39	0.00	0.00	0.00	0.00	0.00	0.00	0.00	0.00	0.00	0.25	0.00	0.00	0.00	0.00	0.00	0.00	-0.104492	0.565918	1.120117	-31.219999	-367.779999	52.570000	3.00	0.00	0.00	9.75	10.50	8.25	10.00	5.75	7.00	1.00	3.25	0.25	1.00	1.25	1.25	2.25	0.50	0.00	0.25	-0.111816	0.056152	0.985352	-7.700000	14.280000	-1.400000	668.00	-0.21	-0.10
2.40	0.00	0.00	0.25	0.00	0.00	0.00	0.00	0.00	0.00	0.00	0.00	0.00	0.00	0.00	0.00	0.00	-0.253906	0.514648	1.085449	-7.630000	-378.420013	56.770000	3.00	0.00	0.00	8.75	9.50	7.75	9.75	5.50	7.00	1.00	3.25	0.25	1.00	1.25	1.25	2.25	0.50	0.25	0.25	-0.107422	0.054199	0.979980	-7.420000	12.460000	-2.030000	640.00	-0.20	-0.10
2.41	0.00	0.25	0.25	0.00	0.00	0.00	0.00	0.00	0.00	0.00	0.00	0.00	0.00	0.00	0.00	0.00	-0.366699	0.458496	1.144531	8.400000	-382.059998	60.270000	5.00	0.00	0.00	7.75	8.75	7.50	9.25	5.50	7.00	1.00	3.50	0.75	1.25	1.25	1.25	2.75	0.50	0.25	0.25	-0.098633	0.050781	0.966309	-7.000000	11.060000	-2.450000	632.00	-0.19	-0.11
2.42	0.00	0.00	0.25	0.00	0.00	0.00	0.00	0.00	0.00	0.00	0.00	0.00	0.00	0.00	0.00	0.00	-0.448730	0.424316	1.280762	13.650000	-383.670013	64.959999	3.00	0.00	0.00	7.25	8.00	7.25	9.00	5.50	7.00	1.00	3.75	0.50	1.25	1.25	1.50	3.00	1.00	0.25	0.25	-0.109375	0.048828	0.970703	-6.580000	10.360000	-2.730000	624.00	-0.17	-0.11
2.43	0.00	0.00	0.00	0.00	0.00	0.00	0.00	0.00	0.00	0.25	0.00	0.00	0.00	0.00	0.00	0.00	-0.523926	0.435547	1.460449	8.260000	-386.610016	70.769997	3.00	0.00	0.00	6.75	7.25	7.00	8.50	5.75	6.75	1.25	4.75	1.00	1.50	1.75	1.50	3.25	1.25	0.25	0.25	-0.090820	0.050781	0.965820	-5.600000	10.010000	-2.660000	641.00	-0.15	-0.11
2.44	0.00	0.25	0.25	0.00	0.00	0.00	0.00	0.00	0.00	0.00	0.00	0.00	0.00	0.00	0.00	0.00	-0.638184	0.474609	1.611328	0.560000	-392.630005	76.720001	5.00	0.00	0.00	6.00	6.75	6.75	8.25	5.75	6.75	1.50	5.00	1.00	1.75	2.00	1.75	3.75	1.50	0.25	0.50	-0.097168	0.047363	0.979492	-4.480000	10.990000	-2.730000	647.00	-0.13	-0.12
2.45	0.00	0.25	0.00	0.00	0.00	0.00	0.00	0.00	0.00	0.00	0.00	0.00	0.00	0.00	0.00	0.00	-0.766113	0.501465	1.702148	-2.100000	-398.929993	80.220001	2.00	0.00	0.00	5.50	6.25	6.50	8.00	6.00	6.75	1.50	5.50	1.25	2.00	2.00	2.00	4.25	1.75	0.25	0.50	-0.110840	0.044434	0.981445	-3.640000	11.480000	-3.010000	657.00	-0.12	-0.12
2.46	0.00	0.25	0.00	0.75	0.00	0.00	0.00	0.00	0.00	0.00	0.00	0.00	0.00	0.00	0.00	0.00	-0.885254	0.534180	1.779785	2.450000	-403.480011	81.129997	11.00	0.00	0.00	5.00	5.50	6.00	7.50	6.00	6.75	2.00	6.00	2.00	2.25	2.25	2.25	4.75	2.25	0.50	0.50	-0.107910	0.057129	0.991699	-3.500000	12.670000	-3.010000	678.00	-0.09	-0.11
2.47	0.00	0.00	0.25	0.25	0.00	0.00	0.00	0.00	0.00	0.00	0.00	0.00	0.00	0.00	0.00	0.00	-0.977539	0.582031	1.882812	6.510000	-403.970001	82.599998	6.00	0.00	0.00	4.25	5.00	5.75	7.00	6.00	6.75	2.25	6.25	2.50	2.50	2.75	2.75	5.00	3.00	0.50	0.75	-0.109375	0.058105	0.985352	-3.430000	14.700000	-3.780000	694.00	-0.07	-0.11
2.48	0.00	0.00	0.25	0.00	0.00	0.00	0.00	0.00	0.00	0.00	0.00	0.00	0.00	0.00	0.00	0.00	-1.121094	0.610840	2.000488	7.280000	-400.679993	86.660004	3.00	0.00	0.00	3.75	4.75	5.25	6.75	6.00	6.50	2.25	6.50	3.00	3.00	3.25	3.00	5.50	3.75	0.75	0.75	-0.159180	0.059082	0.969727	-2.590000	16.030001	-4.900000	712.00	-0.04	-0.11
2.49	0.00	0.00	0.00	0.00	0.00	0.00	0.00	0.00	0.00	0.00	0.00	0.00	0.00	0.00	0.00	0.00	-1.365723	0.649414	2.086914	12.250000	-394.799988	92.050003	0.00	0.00	0.00	3.25	4.00	4.75	6.00	5.75	6.50	2.50	6.75	3.75	3.25	3.50	3.50	6.25	4.25	0.50	1.00	-0.131348	0.041016	1.000977	-1.750000	17.920000	-5.810000	721.00	-0.02	-0.11
2.50	0.00	0.00	0.25	0.00	0.00	0.00	0.00	0.00	0.00	0.00	0.00	0.00	0.00	0.00	0.00	0.00	-1.646484	0.668457	2.246094	23.170000	-386.890015	97.930000	3.00	0.00	0.00	2.25	3.25	4.25	5.50	5.75	6.50	2.75	7.00	4.00	3.50	4.25	3.75	7.25	5.50	0.75	1.25	-0.121582	0.050781	1.000000	-0.070000	20.160000	-6.720000	740.00	0.01	-0.11
2.51	0.00	0.25	0.00	0.00	0.00	0.00	0.00	0.00	0.00	0.00	0.00	0.00	0.00	0.00	0.00	0.00	-1.991211	0.631348	2.482422	28.000000	-380.170013	106.050003	2.00	0.00	0.00	2.00	2.75	3.50	5.25	5.50	6.25	2.75	7.25	5.00	4.25	5.25	4.25	7.75	6.50	0.75	1.50	-0.151367	0.046387	0.997559	2.030000	22.260000	-7.420000	771.00	0.04	-0.11
2.52	0.00	0.25	0.25	0.00	0.00	0.25	0.00	0.00	0.00	0.00	0.00	0.00	0.00	0.00	0.00	0.00	-2.710938	0.513184	2.248535	20.580000	-373.380005	122.919998	8.00	0.00	0.00	1.75	2.25	3.00	4.50	5.00	6.00	2.75	7.50	5.75	4.75	6.50	5.75	8.25	7.50	1.00	2.00	-0.164551	0.057617	1.011719	3.990000	25.129999	-8.330000	808.00	0.06	-0.11
2.53	0.00	0.00	0.00	0.00	0.00	0.00	0.00	0.00	0.00	0.00	0.00	0.00	0.00	0.00	0.00	0.00	-2.710938	0.513184	2.248535	20.580000	-373.380005	122.919998	0.00	0.00	0.00	1.75	2.50	2.00	3.75	4.50	5.75	3.00	7.50	6.50	6.50	7.75	6.50	8.75	7.75	1.25	2.00	-0.167969	0.010742	1.012695	9.730000	32.340000	-10.780000	844.00	0.09	-0.10
2.54	0.00	0.00	0.00	0.00	0.00	0.00	0.00	0.00	0.00	0.00	0.00	0.00	0.00	0.00	0.00	0.00	-3.351074	0.061523	1.845703	60.270000	-330.540009	123.900002	0.00	0.00	0.00	1.50	2.25	1.75	3.50	4.00	5.50	3.00	7.50	7.50	7.50	8.50	7.75	9.00	8.75	1.25	2.50	-0.136719	0.041992	1.026855	13.930000	36.959999	-11.340000	884.00	0.10	-0.10
2.55	0.00	0.00	0.00	0.00	0.00	0.00	0.00	0.00	0.00	0.00	0.00	0.00	0.00	0.00	0.00	0.00	-3.439453	-0.196289	1.599609	52.709999	-302.750000	117.879997	0.00	0.00	0.00	1.00	2.00	1.50	2.75	3.25	5.00	2.75	7.75	8.00	8.50	9.25	8.25	9.50	9.50	1.50	2.75	-0.139160	0.050781	1.021973	17.360001	45.150002	-10.710000	896.00	0.12	-0.10
2.56	0.00	0.00	0.25	0.00	0.00	0.00	0.00	0.00	0.00	0.00	0.00	0.00	0.00	0.00	0.00	0.00	-3.594238	-0.291504	1.227539	9.310000	-271.390015	116.690002	3.00	0.00	0.00	1.00	1.25	1.00	2.00	2.75	4.50	2.75	7.75	8.25	9.00	10.00	8.75	10.00	10.50	2.00	4.25	-0.134766	0.057617	1.064453	21.070000	56.279999	-11.620000	913.00	0.15	-0.10
2.57	0.00	0.00	0.25	0.00	0.00	0.00	0.00	0.00	0.00	0.00	0.00	0.00	0.00	0.00	0.00	0.00	-3.666504	-0.267090	0.290527	-55.090000	-236.460007	115.570000	3.00	0.00	0.00	1.00	1.75	0.75	1.75	1.75	4.00	2.50	7.50	8.75	9.75	10.75	9.50	10.25	11.75	2.25	5.00	-0.203125	0.092773	1.147461	24.639999	71.400002	-12.180000	937.00	0.16	-0.10
2.58	0.00	0.00	0.00	0.00	0.00	0.00	0.00	0.00	0.00	0.00	0.00	0.00	0.00	0.00	0.00	0.00	-4.954102	0.322266	-0.246094	-125.720001	-199.149994	69.580002	0.00	0.00	0.00	1.00	1.25	0.50	2.00	1.50	3.25	2.25	7.50	9.50	10.25	11.50	10.00	10.75	13.00	2.50	5.75	-0.170898	0.080078	1.093262	27.370001	90.650002	-12.390000	968.00	0.17	-0.09
2.59	0.00	0.00	0.00	0.00	0.00	0.00	0.00	0.00	0.00	0.00	0.00	0.00	0.00	0.00	0.00	0.00	-5.660156	0.951660	-1.035156	-95.970001	-149.589996	3.290000	0.00	0.00	0.00	0.75	1.25	0.25	1.00	1.00	2.25	1.75	7.25	9.75	10.75	12.25	10.75	10.75	14.25	2.75	6.25	-0.201660	0.088379	1.105957	35.700001	110.389999	-15.960000	964.00	0.19	-0.09
2.60	0.00	0.25	0.00	0.00	0.00	0.00	0.00	0.00	0.00	0.00	0.00	0.00	0.00	0.00	0.00	0.00	-5.434570	0.849121	-1.743652	43.610001	-69.019997	-31.990000	2.00	0.00	0.00	0.50	0.25	0.25	1.25	0.75	1.75	1.50	6.75	10.00	11.25	12.75	11.00	11.00	15.50	3.25	6.75	-0.248535	0.116211	1.147949	41.369999	130.550003	-17.850000	973.00	0.21	-0.09
2.61	0.00	0.00	0.00	0.00	0.00	0.00	0.00	0.00	0.00	0.00	0.00	0.00	0.00	0.00	0.00	0.00	-4.716797	0.181641	-1.363770	158.199997	36.400002	-24.920000	0.00	0.00	0.00	0.25	0.75	0.00	0.75	0.25	1.25	1.00	6.25	10.25	11.50	13.25	11.50	11.00	16.50	3.75	7.00	-0.315918	0.032227	1.231445	48.369999	155.330002	-17.150000	972.00	0.22	-0.08
2.62	0.00	0.25	0.00	0.00	0.00	0.00	0.00	0.00	0.00	0.00	0.00	0.00	0.00	0.00	0.00	0.00	-3.828125	-0.362305	-0.223633	151.059998	127.820000	16.240000	2.00	0.00	0.00	0.50	0.75	0.00	0.75	0.00	1.00	0.75	5.75	10.25	11.75	13.50	11.75	10.75	17.75	4.75	7.25	-0.201660	0.052246	1.330566	46.549999	179.339996	-12.180000	986.00	0.23	-0.08
2.63	0.25	0.50	0.50	0.50	0.00	0.00	0.00	0.00	0.00	0.00	0.00	0.00	0.00	0.00	0.00	0.00	-1.529785	-0.374512	2.430176	-61.670002	295.750000	70.910004	18.00	0.00	0.00	0.25	0.75	0.00	0.00	0.00	0.25	0.50	5.00	9.75	11.50	13.75	12.00	10.75	18.75	5.25	7.75	-0.259277	0.098145	1.354980	49.560001	199.990005	-9.660000	964.00	0.24	-0.08
2.64	0.75	1.75	1.00	2.00	0.25	0.00	0.00	0.00	0.00	0.00	0.00	0.00	0.00	0.00	0.00	0.00	0.411133	1.228027	1.386719	-75.040001	298.269989	79.029999	60.00	-0.33	-0.09	0.25	0.50	0.00	0.00	0.00	0.25	0.25	4.50	9.50	11.50	14.00	12.00	10.50	19.50	5.50	8.00	-0.378906	0.228027	1.193848	52.220001	227.990005	-14.000000	958.00	0.25	-0.07
2.65	2.75	5.50	2.00	4.00	0.25	0.00	0.00	0.00	0.00	0.00	0.00	0.00	0.00	0.00	0.00	0.00	0.728516	-1.188477	1.463867	-79.940002	219.380005	77.699997	148.00	-0.35	-0.09	0.25	0.50	0.00	0.00	0.00	0.00	0.00	3.25	9.00	11.25	13.75	12.00	10.00	20.00	6.00	8.25	-0.407227	0.174316	1.422363	56.420002	258.510010	-21.770000	927.00	0.26	-0.07
2.66	9.25	14.50	3.50	7.75	0.50	0.25	0.00	0.00	0.00	0.00	0.00	0.00	0.25	0.00	0.00	0.00	-0.263184	-1.738770	0.718262	-138.529999	231.350006	16.379999	364.00	-0.36	-0.08	0.25	0.25	0.00	0.00	0.00	0.00	0.00	2.50	8.00	10.75	13.50	11.75	9.75	19.75	6.25	8.00	-0.484863	0.262207	1.577148	47.529999	301.559998	-28.280001	887.00	0.27	-0.07
2.67	16.00	21.50	7.00	9.75	1.00	1.50	0.00	0.00	0.00	0.00	0.00	0.25	0.25	0.00	0.00	0.00	-0.474121	-1.439453	2.086914	-80.430000	340.339996	-13.790000	581.00	-0.35	-0.06	0.25	0.25	0.00	0.00	0.00	0.00	0.00	2.00	7.00	10.25	13.25	11.50	9.00	19.50	6.00	7.75	-0.528809	0.282227	1.766113	46.900002	343.070007	-35.209999	843.00	0.27	-0.07
2.68	21.25	25.50	9.50	14.00	2.25	3.00	0.00	0.00	0.00	0.00	0.00	0.25	0.25	0.00	0.00	0.00	-1.546875	-0.058105	4.386230	-6.930000	331.869995	-49.209999	776.00	-0.34	-0.06	0.00	0.25	0.00	0.00	0.00	0.00	0.00	1.50	5.50	9.25	12.50	11.00	8.50	18.75	6.00	7.25	-0.591797	0.310059	2.066406	49.490002	381.709991	-41.299999	776.00	0.27	-0.07
2.69	23.75	27.25	11.75	16.50	4.50	4.75	0.25	0.75	0.00	0.00	0.00	0.50	0.50	0.00	0.00	0.00	-1.309570	1.295898	3.822266	-33.110001	227.779999	-43.610001	935.00	-0.32	-0.07	0.25	0.50	0.00	0.00	0.00	0.00	0.00	1.00	4.00	8.25	11.50	10.00	7.50	16.75	5.50	6.00	-0.780273	0.551270	2.107422	56.139999	426.929993	-48.650002	685.00	0.27	-0.08
2.70	24.50	26.75	12.50	17.00	5.75	5.25	0.25	1.00	0.25	0.00	0.00	0.25	0.50	0.00	0.00	0.00	-0.572754	0.333008	1.562500	-98.769997	129.639999	-2.870000	975.00	-0.32	-0.06	0.00	0.25	0.00	0.00	0.00	0.00	0.00	0.75	2.75	7.00	10.25	9.00	6.25	14.25	4.50	5.00	-0.746582	0.400879	2.881348	75.739998	467.110016	-62.860001	575.00	0.27	-0.08
2.71	23.75	26.25	13.00	17.00	6.50	6.50	0.50	1.25	0.00	0.00	0.25	0.00	0.75	0.50	0.00	0.00	0.062988	-0.595703	1.076172	-107.379997	106.610001	6.790000	1001.00	-0.31	-0.07	0.00	0.25	0.00	0.00	0.00	0.00	0.00	0.50	1.75	5.00	8.50	7.75	5.00	10.75	3.00	3.25	-0.879883	0.429199	3.264160	84.279999	505.399994	-63.070000	440.00	0.27	-0.09
2.72	22.50	24.75	13.00	16.75	7.25	7.50	0.50	1.50	0.25	0.50	0.50	0.50	1.00	0.50	0.00	0.00	-0.290039	-0.026855	1.407227	-78.889999	90.930000	-5.250000	1013.00	-0.29	-0.07	0.00	0.25	0.00	0.00	0.00	0.00	0.00	0.25	0.50	3.50	6.75	5.75	3.50	7.50	1.75	2.00	-0.786621	0.505371	3.195312	102.620003	532.770020	-60.900002	304.00	0.27	-0.10
2.73	20.75	24.00	12.75	16.50	7.50	8.25	0.50	2.00	0.50	0.75	0.50	0.50	1.00	0.75	0.00	0.00	-0.240234	0.201172	1.168457	-54.599998	60.130001	-1.260000	1009.00	-0.28	-0.07	0.25	0.25	0.00	0.00	0.00	0.00	0.00	0.00	0.25	2.00	4.25	3.75	2.25	4.75	0.75	0.75	-0.458984	0.650879	3.240723	171.289993	545.859985	-63.349998	185.00	0.25	-0.10
2.74	19.50	22.75	12.75	16.50	7.75	8.50	0.75	2.50	0.50	0.75	0.75	0.75	1.00	1.00	0.00	0.00	-0.224609	0.067871	1.061035	-10.710000	21.350000	0.980000	1009.00	-0.27	-0.08	0.00	0.25	0.00	0.00	0.00	0.00	0.00	0.00	0.50	2.00	2.25	2.50	1.75	2.25	0.50	0.50	0.302734	0.152832	3.228516	305.200012	567.770020	-96.739998	122.00	0.25	-0.10
2.75	18.00	22.00	12.50	16.50	8.00	9.25	0.75	2.75	0.50	1.00	1.00	0.75	1.50	1.25	0.00	0.00	-0.145508	0.081055	1.002930	-4.550000	15.750000	1.540000	1010.00	-0.26	-0.08	0.00	0.00	0.00	0.00	0.00	0.25	0.00	0.00	0.00	1.00	1.50	1.50	0.50	1.00	0.50	0.25	1.085449	-0.541992	2.293945	283.149994	556.780029	-151.899994	64.00	0.25	-0.12
2.76	17.00	21.25	12.25	16.25	8.00	9.50	0.75	3.50	1.00	1.00	1.00	1.00	1.75	1.50	0.00	0.00	-0.145996	0.006348	1.001953	-1.470000	14.630000	0.910000	1015.00	-0.24	-0.09	0.00	0.00	0.00	0.00	0.00	0.00	0.25	0.25	0.25	1.00	1.50	1.50	1.00	0.50	0.25	0.00	0.594238	0.290527	5.134766	146.300003	448.000000	-193.899994	68.00	0.22	-0.13
2.77	15.75	19.75	11.75	15.75	8.25	9.75	1.00	4.75	0.75	1.25	1.25	1.00	1.75	1.50	0.00	0.00	-0.125000	0.088867	0.961426	1.190000	14.490000	0.420000	1007.00	-0.23	-0.09	0.25	0.25	0.00	0.00	0.00	0.00	0.25	0.00	0.00	1.00	1.25	1.00	0.50	0.25	0.00	0.00	1.518066	0.589844	5.023438	7.630000	194.460007	-166.180008	49.00	0.00	0.00
2.78	14.50	19.00	11.50	15.25	8.25	10.00	1.00	5.25	1.25	1.25	1.25	1.25	2.25	1.25	0.00	0.00	-0.123535	0.061035	0.990723	0.910000	15.960000	0.350000	1001.00	-0.22	-0.10	0.00	0.00	0.00	0.00	0.00	0.00	0.25	0.00	0.00	0.75	1.25	0.50	0.75	0.00	0.00	0.00	1.694824	1.001465	3.704102	-80.849998	-53.340000	-99.330002	36.00	0.00	0.00
2.79	12.50	17.50	11.00	15.00	8.25	10.00	1.00	5.50	1.25	1.50	1.50	1.25	2.50	1.25	0.00	0.00	-0.134766	0.079590	0.978516	-0.210000	17.639999	-0.210000	969.00	-0.21	-0.10	0.00	0.00	0.00	0.00	0.00	0.00	0.00	0.00	0.25	0.75	1.00	0.75	0.00	0.00	0.00	0.00	1.239746	0.953125	2.172363	-101.290001	-184.800003	-52.220001	29.00	0.00	0.00
2.80	11.00	16.00	10.50	14.00	8.25	10.00	1.25	5.50	1.50	1.50	1.50	1.25	2.75	1.50	0.25	0.25	-0.125977	0.061035	0.971680	-1.750000	19.460001	-0.840000	939.00	-0.20	-0.10	0.00	0.00	0.00	0.00	0.00	0.00	0.00	0.00	0.00	0.50	0.75	0.50	0.25	0.00	0.00	0.00	1.082031	0.799316	1.062012	-57.820000	-214.830002	-33.389999	21.00	0.00	0.00
2.81	9.50	14.25	9.75	13.25	8.00	9.75	1.25	5.75	2.00	1.75	1.75	1.50	2.75	1.50	0.00	0.25	-0.141602	0.060547	0.984863	-2.730000	21.000000	-1.750000	901.00	-0.18	-0.11	0.00	0.00	0.00	0.00	0.00	0.25	0.25	0.00	0.00	0.50	0.50	0.50	0.00	0.00	0.00	0.00	0.916992	0.650879	0.729980	4.130000	-205.520004	-29.750000	22.00	0.00	0.00
2.82	8.50	12.50	9.25	12.50	7.75	9.50	1.25	5.75	2.00	2.00	2.00	1.50	3.25	1.75	0.25	0.25	-0.136719	0.062012	0.987305	-3.780000	21.980000	-2.240000	869.00	-0.17	-0.11	0.00	0.00	0.00	0.00	0.00	0.00	0.25	0.00	0.00	0.50	0.50	0.25	0.25	0.00	0.25	0.00	0.833496	0.447266	0.907227	48.299999	-203.350006	-27.580000	22.00	0.00	0.00
2.83	7.50	10.25	8.75	10.75	7.75	9.25	1.50	5.75	2.00	2.00	2.00	1.50	3.25	1.75	0.25	0.25	-0.138672	0.045898	0.976562	-4.690000	23.240000	-2.590000	814.00	-0.15	-0.11	0.00	0.00	0.00	0.00	0.00	0.00	0.25	0.00	0.00	0.00	0.50	0.00	0.00	0.00	0.00	0.00	0.767090	0.259766	1.091309	62.369999	-222.880005	-18.620001	9.00	0.00	0.00
2.84	6.50	9.25	8.25	10.00	7.50	9.00	1.50	5.75	2.25	2.00	2.25	1.75	3.25	1.75	0.50	0.25	-0.139648	0.039062	0.979492	-4.130000	23.799999	-2.170000	787.00	-0.14	-0.11	0.00	0.00	0.00	0.00	0.00	0.00	0.25	0.00	0.00	0.25	0.25	0.25	0.00	0.00	0.00	0.00	0.638184	0.128906	1.205566	43.400002	-256.549988	-3.500000	12.00	0.00	0.00
2.85	5.50	7.75	7.50	9.00	7.00	8.50	1.75	6.00	2.75	2.50	2.50	1.75	3.25	2.00	0.25	0.25	-0.145996	0.048340	0.975098	-2.940000	23.520000	-2.380000	754.00	-0.12	-0.10	0.00	0.25	0.00	0.00	0.00	0.00	0.25	0.00	0.00	0.00	0.00	0.00	0.00	0.00	0.00	0.00	0.498047	0.079590	1.250977	4.410000	-292.040009	14.630000	6.00	0.00	0.00
2.86	5.00	7.25	6.75	8.50	6.75	8.25	1.75	5.75	3.00	2.50	2.25	2.00	3.50	2.25	0.25	0.25	-0.152832	0.044434	0.963867	-2.380000	23.730000	-3.290000	728.00	-0.11	-0.10	0.00	0.25	0.00	0.00	0.00	0.00	0.25	0.00	0.00	0.25	0.25	0.00	0.00	0.00	0.00	0.00	0.365234	0.080078	1.243652	-33.320000	-321.510010	32.060001	11.00	0.00	0.00
2.87	4.25	6.25	6.25	7.75	6.50	7.75	1.75	6.00	3.50	2.75	2.75	2.00	3.75	2.00	0.25	0.25	-0.157227	0.048340	0.971680	-1.540000	23.730000	-3.780000	708.00	-0.09	-0.10	0.00	0.00	0.00	0.00	0.00	0.00	0.25	0.00	0.00	0.25	0.00	0.00	0.00	0.00	0.00	0.00	0.231445	0.118652	1.197754	-56.420002	-344.119995	45.570000	6.00	0.00	0.00
2.88	3.25	5.50	5.75	7.25	6.00	7.75	2.00	6.00	3.75	3.00	2.75	2.25	3.75	2.25	0.50	0.50	-0.163574	0.044434	0.969727	-0.560000	23.100000	-4.130000	692.00	-0.07	-0.10	0.00	0.00	0.00	0.00	0.00	0.00	0.25	0.00	0.00	0.00	0.00	0.00	0.00	0.00	0.00	0.00	0.099121	0.145020	1.188965	-59.779999	-361.059998	53.689999	4.00	0.00	0.00
2.89	3.00	5.25	5.25	6.50	6.00	7.50	2.00	6.00	3.75	3.00	3.00	2.50	4.00	2.25	0.50	0.50	-0.178711	0.048828	0.956055	0.140000	22.330000	-4.690000	678.00	-0.06	-0.11	0.00	0.25	0.00	0.00	0.00	0.00	0.25	0.00	0.00	0.25	0.00	0.00	0.00	0.00	0.00	0.00	-0.018066	0.147461	1.236816	-49.070000	-375.130005	56.840000	9.00	0.00	0.00
2.90	2.50	4.75	5.00	6.25	5.75	7.25	2.00	6.00	4.25	3.25	3.25	2.50	4.75	2.50	0.50	0.25	-0.175293	0.050781	0.960938	0.630000	21.070000	-5.040000	676.00	-0.04	-0.11	0.00	0.00	0.00	0.00	0.00	0.00	0.25	0.00	0.00	0.00	0.00	0.00	0.00	0.00	0.00	0.00	-0.124023	0.116699	1.273438	-35.840000	-386.890015	56.279999	4.00	0.00	0.00
2.91	2.25	4.00	4.00	5.75	5.50	7.00	2.00	6.25	4.75	3.25	3.50	2.75	5.00	2.75	0.50	0.50	-0.158691	0.045410	0.960449	0.980000	20.160000	-4.900000	666.00	-0.02	-0.11	0.00	0.00	0.00	0.00	0.00	0.00	0.00	0.25	0.00	0.00	0.00	0.00	0.00	0.00	0.00	0.00	-0.250977	0.049805	1.376465	-28.420000	-394.940002	53.410000	4.00	0.00	0.00
2.92	2.25	3.75	4.00	5.25	5.25	7.00	2.00	6.25	5.00	3.50	3.50	3.00	5.25	3.00	0.50	0.50	-0.174316	0.049316	0.958496	1.330000	19.950001	-4.830000	668.00	-0.01	-0.11	0.00	0.00	0.00	0.00	0.00	0.25	0.25	0.00	0.00	0.00	0.00	0.00	0.00	0.00	0.00	0.00	-0.376953	0.039551	1.446289	-32.130001	-399.839996	48.860001	7.00	0.00	0.00
2.93	1.75	3.50	3.25	5.25	5.00	6.75	2.25	6.25	5.25	4.00	3.75	3.50	5.50	3.00	0.75	0.50	-0.166504	0.057129	0.966797	1.470000	20.860001	-5.040000	672.00	0.01	-0.11	0.00	0.25	0.00	0.00	0.00	0.00	0.25	0.00	0.00	0.00	0.00	0.00	0.00	0.00	0.00	0.00	-0.646973	0.171387	1.640625	-38.779999	-402.500000	39.759998	6.00	0.00	0.00
2.94	1.50	2.75	3.25	4.50	4.75	6.50	2.25	6.50	5.50	4.50	4.50	3.75	5.75	3.50	0.50	0.75	-0.167480	0.052734	0.956055	1.470000	22.190001	-5.250000	677.00	0.02	-0.10	0.00	0.00	0.00	0.00	0.00	0.00	0.25	0.00	0.00	0.00	0.00	0.00	0.00	0.00	0.00	0.00	-0.826660	0.198242	1.721191	-23.240000	-403.410004	36.049999	4.00	0.00	0.00
2.95	1.50	3.00	2.50	4.50	4.50	6.25	2.50	6.50	6.50	5.00	5.50	4.25	6.25	3.50	0.75	0.75	-0.167480	0.058105	0.959961	1.890000	25.760000	-5.600000	710.00	0.04	-0.10	0.00	0.00	0.00	0.00	0.00	0.00	0.25	0.00	0.00	0.00	0.00	0.00	0.00	0.00	0.00	0.00	-0.973145	0.170898	1.882812	-2.100000	-402.779999	30.660000	4.00	0.00	0.00
2.96	1.50	3.00	2.50	4.00	4.25	6.25	2.50	6.50	7.50	6.00	6.25	5.00	6.50	4.25	1.00	0.75	-0.175781	0.057617	0.961914	2.030000	27.930000	-6.370000	752.00	0.06	-0.09	0.00	0.00	0.00	0.00	0.00	0.00	0.25	0.00	0.00	0.00	0.00	0.00	0.00	0.00	0.00	0.00	-1.099609	0.161621	2.000977	12.180000	-401.380005	26.389999	4.00	0.00	0.00
2.97	1.25	2.25	2.25	3.75	4.00	5.75	2.50	6.50	8.00	6.75	7.25	5.50	6.75	4.75	1.00	1.00	-0.182617	0.078613	0.974121	1.960000	30.660000	-7.630000	767.00	0.08	-0.09	0.00	0.00	0.00	0.00	0.00	0.00	0.25	0.00	0.00	0.00	0.00	0.00	0.00	0.00	0.00	0.00	-1.173828	0.195312	2.114746	16.170000	-399.910004	27.370001	4.00	0.00	0.00
2.98	1.00	2.25	2.00	3.25	3.50	5.50	2.75	6.50	8.75	7.75	8.00	6.25	7.25	5.25	1.00	1.00	-0.199219	0.070312	0.976562	2.240000	34.509998	-9.520000	796.00	0.10	-0.08	0.00	0.00	0.00	0.00	0.00	0.00	0.25	0.00	0.00	0.00	0.00	0.00	0.00	0.00	0.00	0.00	-1.218750	0.236328	2.212402	15.470000	-397.179993	33.180000	4.00	0.00	0.00
2.99	0.75	1.50	1.50	3.00	3.25	5.25	2.75	6.50	9.00	8.25	8.50	7.00	7.50	6.25	1.00	1.25	-0.189941	0.043945	0.980469	2.660000	38.709999	-10.710000	807.00	0.11	-0.08	0.00	0.00	0.00	0.00	0.00	0.00	0.25	0.00	0.00	0.00	0.00	0.00	0.00	0.00	0.00	0.00	-1.282227	0.264648	2.320312	16.030001	-393.119995	41.299999	4.00	0.00	0.00
3.00	1.00	1.75	1.50	2.50	2.75	4.75	3.00	6.50	9.50	8.50	9.00	7.50	7.75	7.25	1.25	1.25	-0.205566	0.075195	0.961914	4.690000	43.259998	-12.600000	832.00	0.12	-0.08	0.00	0.25	0.00	0.00	0.00	0.25	0.00	0.00	0.00	0.00	0.00	0.00	0.00	0.00	0.00	0.00	-1.438965	0.268066	2.473633	18.620001	-388.149994	47.389999	5.00	0.00	0.00
3.01	0.75	1.50	1.50	2.50	2.50	4.25	2.75	6.50	10.00	9.00	9.75	8.00	8.25	8.00	1.25	1.50	-0.226074	0.044434	0.975098	7.420000	47.740002	-14.070000	852.00	0.14	-0.08	0.00	0.00	0.00	0.00	0.00	0.00	0.25	0.00	0.00	0.00	0.00	0.00	0.00	0.00	0.00	0.00	-1.653809	0.251465	2.600098	18.410000	-384.019989	50.049999	4.00	0.00	0.00
3.02	0.75	1.25	1.25	2.00	2.25	3.25	2.75	6.50	10.25	9.50	10.25	8.50	8.50	8.75	1.50	1.75	-0.223145	0.053711	0.984863	10.150000	53.130001	-13.790000	859.00	0.15	-0.07	0.00	0.00	0.00	0.00	0.00	0.00	0.00	0.00	0.00	0.25	0.00	0.00	0.00	0.00	0.00	0.00	-1.971680	0.272461	2.619141	10.850000	-382.130005	50.750000	3.00	0.00	0.00
3.03	0.50	1.00	1.00	2.25	1.50	3.50	2.75	6.25	11.00	10.00	11.00	9.00	8.75	9.75	1.50	2.00	-0.219727	0.038574	0.991211	12.810000	60.340000	-12.460000	885.00	0.16	-0.07	0.00	0.25	0.00	0.00	0.00	0.00	0.25	0.00	0.00	0.00	0.00	0.00	0.00	0.00	0.00	0.00	-2.386719	0.429199	2.484375	-6.230000	-380.380005	47.110001	6.00	0.00	0.00
3.04	0.50	1.00	0.75	1.50	1.50	3.00	2.50	6.25	11.00	10.50	11.75	9.50	9.25	10.50	1.75	2.25	-0.231934	0.041504	1.007324	15.820000	69.720001	-10.710000	898.00	0.17	-0.07	0.00	0.25	0.00	0.00	0.00	0.00	0.25	0.00	0.00	0.00	0.00	0.00	0.00	0.00	0.00	0.00	-2.760742	0.709473	2.130371	-21.840000	-373.100006	36.889999	6.00	0.00	0.00
3.05	0.50	1.00	0.75	1.25	1.25	2.50	2.50	6.25	11.50	10.75	12.25	10.25	9.50	11.50	2.00	3.00	-0.251465	0.061035	1.014648	20.230000	79.309998	-10.220000	927.00	0.18	-0.07	0.00	0.00	0.00	0.00	0.00	0.00	0.25	0.00	0.00	0.00	0.00	0.00	0.00	0.00	0.00	0.00	-2.922363	0.960449	1.604492	-13.860000	-353.220001	28.000000	4.00	0.00	0.00
3.06	0.50	1.00	0.50	1.50	0.75	2.00	2.25	6.00	12.00	11.25	13.00	10.75	9.50	12.50	2.25	3.50	-0.266113	0.080078	1.017578	24.920000	90.510002	-10.850000	947.00	0.19	-0.07	0.00	0.00	0.00	0.00	0.00	0.00	0.25	0.00	0.00	0.25	0.00	0.00	0.00	0.00	0.00	0.00	-2.973145	0.858398	0.890137	34.720001	-316.959991	37.520000	6.00	0.00	0.00
3.07	0.50	1.00	0.25	1.00	0.75	1.50	2.00	5.75	12.00	11.50	13.50	11.25	9.75	13.25	2.75	4.00	-0.270508	0.083496	1.023438	27.299999	102.340004	-11.410000	955.00	0.20	-0.07	0.00	0.00	0.00	0.00	0.00	0.00	0.25	0.00	0.00	0.25	0.00	0.25	0.00	0.00	0.00	0.00	-4.109375	0.565430	0.379883	93.660004	-271.809998	49.349998	9.00	0.00	0.00
3.08	0.50	0.50	0.25	1.25	0.50	1.25	1.50	5.50	12.25	12.00	14.25	11.50	9.75	14.25	3.00	5.00	-0.292480	0.084473	1.101074	32.060001	118.580002	-12.180000	972.00	0.21	-0.07	0.00	0.25	0.00	0.00	0.00	0.00	0.25	0.00	0.00	0.00	0.00	0.00	0.00	0.00	0.00	0.00	-5.534180	0.413574	-0.233398	141.470001	-228.970001	46.830002	6.00	0.00	0.00
3.09	0.50	0.50	0.00	0.75	0.25	1.00	1.25	5.25	12.50	12.25	14.50	12.00	9.75	15.25	3.25	5.25	-0.335938	0.049805	1.109375	33.320000	139.509995	-12.180000	977.00	0.22	-0.06	0.00	0.25	0.00	0.00	0.00	0.00	0.00	0.00	0.00	0.00	0.00	0.00	0.00	0.00	0.00	0.00	-5.793457	-0.080566	-1.154785	174.860001	-164.500000	49.560001	2.00	0.00	0.00
3.10	0.00	0.25	0.00	0.50	0.00	0.50	1.00	5.00	12.50	12.50	14.75	12.25	9.25	16.25	4.00	5.50	-0.303223	0.063965	1.117676	33.529999	159.110001	-8.680000	973.00	0.24	-0.06	0.00	0.00	0.00	0.00	0.00	0.00	0.25	0.00	0.00	0.00	0.00	0.00	0.00	0.00	0.00	0.00	-5.390137	-0.476562	-1.348145	158.550003	-59.500000	62.790001	4.00	0.00	0.00
3.11	0.25	0.25	0.00	0.50	0.00	0.25	0.50	4.25	12.50	12.25	15.00	12.50	9.25	17.25	4.50	5.75	-0.359863	0.110840	1.096680	36.889999	178.990005	-6.650000	971.00	0.24	-0.06	0.00	0.00	0.00	0.00	0.00	0.00	0.00	0.00	0.00	0.00	0.00	0.25	0.00	0.00	0.00	0.00	-4.242676	-0.551270	-0.753418	94.080002	56.070000	80.500000	3.00	0.00	0.00
3.12	0.00	0.50	0.50	0.00	0.00	0.25	0.25	3.50	12.25	12.50	15.00	12.25	8.75	18.25	5.00	5.75	-0.389648	0.163574	1.150391	41.090000	206.639999	-9.170000	962.00	0.25	-0.05	0.00	0.25	0.00	0.50	0.00	0.00	0.00	0.00	0.00	0.00	0.00	0.00	0.00	0.00	0.00	0.00	-5.689453	-1.615723	-0.585938	8.750000	122.150002	102.970001	8.00	0.00	0.00
3.13	0.25	0.00	0.25	0.00	0.00	0.00	0.00	3.00	12.00	12.00	14.75	12.00	8.25	18.75	5.25	6.25	-0.485840	0.132812	1.260254	42.630001	240.309998	-14.280000	935.00	0.26	-0.04	0.75	1.00	0.50	1.00	0.00	0.00	0.25	0.00	0.00	0.00	0.00	0.00	0.00	0.00	0.00	0.00	-1.719727	-0.675781	-0.654785	-83.370003	276.290009	88.760002	37.00	0.00	0.00
3.14	0.00	0.25	0.00	0.00	0.00	0.00	0.00	2.50	11.50	12.00	14.75	11.75	7.75	19.25	5.75	6.00	-0.579102	0.139160	1.295898	41.020000	270.690002	-20.719999	918.00	0.26	-0.04	2.50	3.25	1.25	2.75	0.25	0.00	0.25	0.00	0.00	0.00	0.00	0.00	0.00	0.00	0.00	0.00	0.196289	-0.619141	1.932129	-130.899994	198.240005	45.290001	106.00	-0.33	-0.06
3.15	0.00	0.00	0.00	0.75	0.00	0.00	0.00	2.00	10.75	11.50	14.25	11.25	7.00	19.50	6.00	6.00	-0.599609	0.223145	1.250977	37.660000	294.279999	-26.880001	890.00	0.27	-0.04	7.00	8.50	2.75	5.00	0.25	0.00	0.25	0.00	0.00	0.00	0.00	0.00	0.25	0.00	0.00	0.00	-0.354492	-0.571777	0.739258	-115.779999	177.380005	29.469999	245.00	-0.35	-0.06
3.16	0.00	0.00	0.00	0.00	0.00	0.00	0.00	1.50	10.00	10.75	13.75	10.50	6.25	19.25	5.75	5.50	-0.666992	0.313965	1.654785	29.260000	370.369995	-35.770000	829.00	0.28	-0.03	13.00	13.50	6.00	8.00	0.50	0.00	0.25	0.00	0.00	0.00	0.00	0.00	0.25	0.00	0.00	0.00	-0.392578	-1.559570	1.803711	-49.840000	274.399994	12.670000	425.00	-0.35	-0.05
3.17	0.00	0.00	0.00	0.00	0.00	0.00	0.00	1.25	8.75	10.00	12.75	9.75	5.50	18.75	5.75	5.25	-0.857910	0.613281	1.757324	32.759998	407.610016	-42.560001	770.00	0.28	-0.03	17.50	17.25	7.75	10.00	1.25	0.75	0.25	0.00	0.00	0.00	0.00	0.25	0.50	0.00	0.00	0.00	-0.774414	-0.296875	3.582520	2.590000	293.440002	-29.889999	569.00	-0.34	-0.05
3.18	0.25	0.00	0.00	0.00	0.00	0.00	0.00	1.00	7.50	8.75	11.25	8.75	5.00	17.50	5.50	4.50	-0.974121	0.444336	2.505371	57.400002	448.350006	-57.680000	692.00	0.28	-0.03	20.25	19.00	9.25	11.25	2.25	2.75	0.25	0.50	0.00	0.00	0.00	0.25	0.75	0.00	0.00	0.00	-1.001953	0.910156	3.593750	18.129999	219.589996	-45.779999	686.00	-0.33	-0.05
3.19	0.00	0.00	0.00	0.00	0.00	0.00	0.00	0.75	5.75	7.50	9.75	7.50	3.50	15.50	4.50	3.00	-1.149414	0.584473	2.839844	73.570000	491.750000	-61.180000	572.00	0.28	-0.02	20.75	19.50	10.50	12.25	4.25	4.00	0.50	0.75	0.00	0.00	0.00	0.25	1.00	0.00	0.00	0.00	-0.570801	0.917480	1.945312	-37.520000	139.789993	-13.790000	766.00	-0.31	-0.06
3.20	0.00	0.00	0.00	0.00	0.00	0.00	0.00	0.50	3.50	5.50	8.00	6.00	2.75	12.75	3.50	2.25	-1.172852	0.583984	3.014648	109.059998	524.859985	-60.760002	439.00	0.29	-0.03	20.50	19.50	10.75	12.50	5.25	5.00	0.50	1.00	0.00	0.00	0.00	0.25	1.00	0.00	0.00	0.00	-0.137695	-0.218262	1.344727	-76.440002	99.470001	9.940000	795.00	-0.31	-0.06
3.21	0.25	0.00	0.00	0.00	0.00	0.00	0.00	0.25	2.50	3.50	5.75	4.50	2.00	9.50	2.25	1.50	-0.774902	0.694824	3.001465	177.449997	549.359985	-64.610001	313.00	0.28	-0.03	20.25	18.75	11.00	12.75	5.75	5.25	0.75	1.25	0.00	0.00	0.00	0.25	1.00	0.00	0.00	0.00	-0.087891	-0.333496	1.194336	-53.619999	81.480003	0.840000	807.00	-0.30	-0.06
3.22	0.00	0.00	0.00	0.00	0.00	0.00	0.00	0.25	0.75	2.75	3.50	2.75	1.50	6.25	1.25	0.75	-0.716797	0.624023	3.117188	257.390015	559.720032	-80.150002	191.00	0.29	-0.05	19.50	18.50	11.25	12.75	6.25	6.25	0.75	1.75	0.00	0.00	0.25	0.25	1.25	0.25	0.00	0.00	-0.304688	0.389648	1.311523	-34.369999	55.160000	-2.380000	830.00	-0.29	-0.07
3.23	0.00	0.00	0.00	0.00	0.00	0.00	0.00	0.00	1.25	2.00	2.50	2.25	1.00	3.50	0.50	0.25	-0.284668	0.371094	2.893066	310.029999	570.359985	-113.959999	132.00	0.28	-0.03	19.00	18.25	11.25	13.00	6.50	7.00	0.75	2.00	0.00	0.25	0.25	0.25	1.75	0.25	0.00	0.00	-0.129883	0.210449	1.068359	-36.330002	31.430000	4.200000	847.00	-0.28	-0.07
3.24	0.00	0.50	0.00	0.00	0.00	0.00	0.00	0.00	0.75	1.50	1.50	1.00	0.50	1.75	0.25	0.00	0.302246	-0.507812	2.194824	274.329987	572.739990	-177.449997	78.00	0.23	-0.02	18.50	18.00	11.25	13.25	6.75	7.50	0.75	2.25	0.00	0.50	0.25	0.25	1.50	0.25	0.00	0.00	-0.112305	-0.046387	1.120117	-30.730000	20.650000	4.130000	855.00	-0.28	-0.07
3.25	0.00	0.00	0.25	0.00	0.00	0.00	0.00	0.00	1.00	1.00	1.00	1.25	0.00	1.25	0.00	0.00	-0.653809	0.167969	2.893066	120.959999	546.909973	-238.490005	61.00	0.24	0.02	18.50	17.75	11.25	13.25	7.00	7.75	0.75	2.50	0.00	0.50	0.50	0.50	1.50	0.75	0.00	0.00	-0.119629	0.119141	1.043457	-19.040001	9.520000	2.730000	871.00	-0.27	-0.07
3.26	0.00	0.00	0.25	0.00	0.00	0.00	0.00	0.00	0.50	1.25	1.50	1.00	0.25	0.75	0.00	0.00	0.988770	0.666504	5.635254	-47.670002	356.230011	-229.529999	57.00	0.22	-0.03	18.00	17.50	11.25	13.25	7.25	8.00	0.75	2.75	0.00	0.25	0.50	0.75	1.75	0.50	0.00	0.00	-0.075195	0.054688	1.000000	-11.970000	5.180000	3.570000	873.00	-0.27	-0.08
3.27	0.00	0.00	0.00	0.00	0.00	0.00	0.00	0.00	0.25	1.00	1.25	0.50	0.00	0.25	0.00	0.00	1.591797	1.708496	5.003906	-135.029999	88.340004	-154.699997	34.00	0.00	0.00	17.50	17.00	11.00	13.00	7.25	8.25	1.00	3.00	0.25	0.50	0.50	0.75	2.00	0.75	0.00	0.00	-0.075195	0.042969	1.007324	-6.930000	4.200000	3.010000	878.00	-0.26	-0.08
3.28	0.00	0.00	0.00	0.00	0.00	0.00	0.00	0.00	0.25	1.00	0.75	0.75	0.00	0.75	0.00	0.00	1.389648	1.653809	3.291504	-136.570007	-112.349998	-81.690002	36.00	0.00	0.00	17.00	16.75	11.00	13.00	7.25	8.50	0.75	3.50	0.25	0.50	1.00	0.75	2.25	1.00	0.00	0.25	-0.083008	0.092773	1.005371	-5.250000	4.480000	2.660000	888.00	-0.25	-0.09
3.29	0.00	0.00	0.00	0.00	0.00	0.00	0.00	0.00	0.25	1.00	0.75	0.50	0.00	0.50	0.00	0.00	1.240234	1.328613	1.772461	-77.559998	-198.869995	-44.310001	31.00	0.00	0.00	16.25	16.00	10.75	12.75	7.50	8.50	1.00	3.50	0.25	0.75	0.75	0.75	2.50	1.00	0.00	0.00	-0.068359	0.073242	0.986816	-6.930000	5.530000	2.100000	876.00	-0.24	-0.09
3.30	0.00	0.00	0.25	0.00	0.00	0.00	0.00	0.00	0.00	0.75	0.50	0.75	0.00	0.25	0.25	0.00	1.065918	1.021973	1.054688	-1.680000	-215.600006	-32.130001	29.00	0.00	0.00	15.75	15.50	10.50	12.50	7.50	8.25	1.00	3.50	0.25	0.50	1.00	1.00	2.50	1.25	0.00	0.25	-0.065430	0.071777	0.995605	-9.100000	7.210000	0.770000	864.00	-0.24	-0.09
3.31	0.00	0.25	0.25	0.00	0.00	0.00	0.00	0.00	0.00	0.75	0.75	0.25	0.00	0.00	0.00	0.00	0.886719	0.776367	0.975586	49.279999	-214.059998	-25.059999	23.00	0.00	0.00	14.75	14.75	10.25	12.00	7.25	8.25	1.00	3.75	0.50	0.75	1.00	0.75	2.50	0.75	0.25	0.00	-0.081055	0.053223	1.000488	-9.310000	8.470000	-0.000000	839.00	-0.23	-0.09
3.32	0.00	0.00	0.00	0.00	0.00	0.00	0.00	0.00	0.00	0.75	0.50	0.25	0.00	0.00	0.00	0.00	0.826660	0.531738	1.127930	64.330002	-222.880005	-10.990000	16.00	0.00	0.00	13.50	13.25	10.00	11.75	7.25	8.00	1.00	3.75	0.50	0.75	1.00	1.00	2.75	1.25	0.25	0.00	-0.074707	0.059570	0.985352	-6.860000	10.640000	-0.490000	813.00	-0.22	-0.09
3.33	0.00	0.00	0.00	0.00	0.00	0.00	0.00	0.00	0.00	0.75	0.50	0.00	0.00	0.00	0.00	0.00	0.693359	0.375000	1.337891	46.130001	-248.500000	6.720000	13.00	0.00	0.00	12.75	12.75	9.75	11.50	7.25	8.00	1.00	3.50	0.25	1.00	1.00	1.00	2.50	1.00	0.25	0.50	-0.074707	0.059570	0.985352	-6.860000	10.640000	-0.490000	790.00	-0.22	-0.09
3.34	0.00	0.25	0.00	0.00	0.00	0.00	0.00	0.00	0.00	0.75	0.50	0.25	0.00	0.25	0.00	0.00	0.375000	0.395508	1.387207	-17.360001	-323.890015	41.369999	20.00	0.00	0.00	11.50	11.50	9.25	11.00	7.00	7.75	1.00	3.75	0.50	1.00	1.25	1.00	2.75	1.25	0.25	0.25	-0.077637	0.042969	0.998535	-5.390000	13.720000	-0.140000	761.00	-0.21	-0.09
3.35	0.00	0.00	0.00	0.00	0.00	0.00	0.00	0.00	0.00	0.25	0.50	0.00	0.00	0.00	0.00	0.00	0.375000	0.395508	1.387207	-17.360001	-323.890015	41.369999	8.00	0.00	0.00	10.25	10.50	8.75	10.25	6.75	7.50	1.25	3.75	0.50	1.00	1.00	1.25	3.00	1.25	0.25	0.25	-0.091797	0.048340	0.994141	-4.340000	14.210000	-0.630000	726.00	-0.20	-0.10
3.36	0.00	0.00	0.00	0.00	0.00	0.00	0.00	0.00	0.00	0.50	0.00	0.00	0.00	0.00	0.00	0.00	0.199219	0.455566	1.312988	-29.610001	-354.760010	55.090000	5.00	0.00	0.00	8.75	9.50	8.50	9.75	6.50	7.25	1.25	3.75	1.00	1.25	1.50	1.25	3.00	1.00	0.25	0.50	-0.093262	0.054688	0.986328	-3.850000	13.930000	-1.470000	701.00	-0.18	-0.10
3.37	0.00	0.00	0.00	0.00	0.00	0.00	0.00	0.00	0.00	0.00	0.00	0.00	0.00	0.00	0.50	0.00	0.039551	0.461914	1.231934	-22.260000	-376.739990	64.680000	5.00	0.00	0.00	8.00	8.50	8.25	9.25	6.25	7.00	1.25	3.75	0.75	1.50	1.25	1.50	3.00	1.50	0.25	0.25	-0.095703	0.056152	0.977051	-3.850000	13.090000	-2.100000	672.00	-0.17	-0.10
3.38	0.00	0.00	0.00	0.00	0.00	0.00	0.00	0.00	0.00	0.00	0.25	0.00	0.00	0.00	0.00	0.00	-0.299805	0.378906	1.148926	17.570000	-399.700012	71.889999	3.00	0.00	0.00	7.25	7.75	7.75	9.00	6.25	6.75	1.25	3.75	1.00	1.50	1.75	1.75	3.50	1.50	0.25	0.50	-0.098633	0.055664	0.977539	-3.920000	12.530000	-2.590000	664.00	-0.15	-0.10
3.39	0.00	0.00	0.75	0.00	0.00	0.00	0.00	0.00	0.00	0.00	0.00	0.00	0.00	0.00	0.00	0.00	-0.417969	0.314453	1.155273	31.570000	-402.010010	73.639999	8.00	0.00	0.00	6.50	7.25	7.50	8.50	6.00	6.75	1.50	3.75	1.25	1.50	1.75	1.75	3.50	1.50	0.25	0.50	-0.104492	0.063477	0.976562	-4.480000	11.690000	-3.290000	647.00	-0.15	-0.10
3.40	0.00	0.00	0.00	0.00	0.00	0.00	0.00	0.00	0.00	0.00	0.00	0.00	0.00	0.00	0.00	0.00	-0.483398	0.275879	1.236816	35.560001	-399.769989	76.860001	0.00	0.00	0.00	6.00	6.50	7.00	8.00	6.00	6.50	1.50	4.25	1.50	1.75	2.00	1.75	4.00	1.25	0.25	0.50	-0.099121	0.052246	0.986816	-5.180000	10.780000	-3.640000	640.00	-0.13	-0.11
3.41	0.00	0.00	0.25	0.00	0.00	0.00	0.00	0.00	0.00	0.25	0.00	0.00	0.00	0.00	0.00	0.00	-0.668945	0.309082	1.401855	33.250000	-396.059998	81.550003	5.00	0.00	0.00	5.50	5.75	6.50	7.75	6.00	6.25	1.50	4.50	1.50	1.75	2.00	2.00	4.00	2.00	0.25	0.50	-0.106445	0.050781	0.976074	-5.040000	10.220000	-3.920000	629.00	-0.12	-0.11
3.42	0.00	0.25	0.50	0.00	0.00	0.00	0.00	0.00	0.00	0.00	0.25	0.00	0.00	0.00	0.00	0.00	-0.689453	0.318359	1.678223	17.639999	-391.649994	90.790001	11.00	0.00	0.00	4.75	5.50	6.25	7.50	5.75	6.25	1.75	4.75	2.00	2.00	2.50	2.25	4.75	2.00	0.50	0.50	-0.108398	0.046387	0.985840	-4.690000	10.150000	-3.850000	645.00	-0.09	-0.11
3.43	0.00	0.00	0.00	0.25	0.00	0.00	0.00	0.00	0.00	0.00	0.00	0.00	0.00	0.00	0.00	0.00	-0.406738	0.382324	2.032227	-17.150000	-385.630005	108.849998	3.00	0.00	0.00	4.00	5.00	5.75	7.00	5.75	6.00	2.00	5.25	2.50	2.25	2.50	2.25	5.00	2.25	0.50	0.75	-0.107910	0.105957	0.991699	-4.270000	10.290000	-3.920000	645.00	-0.07	-0.11
3.44	0.00	0.25	0.50	0.00	0.00	0.25	0.00	0.00	0.00	0.00	0.00	0.00	0.00	0.00	0.00	0.00	-0.857422	0.447266	2.041504	2.520000	-399.000000	113.680000	11.00	0.00	0.00	3.75	4.50	5.25	6.25	5.75	5.75	2.00	5.25	3.00	2.75	3.00	2.75	5.00	3.00	0.50	0.50	-0.101562	0.197266	0.951172	-3.080000	10.780000	-3.920000	648.00	-0.05	-0.10
3.45	0.00	0.25	0.00	0.00	0.00	0.00	0.00	0.00	0.00	0.00	0.00	0.00	0.00	0.00	0.00	0.00	-0.890137	0.360352	1.969727	27.650000	-407.679993	112.559998	2.00	0.00	0.00	3.25	3.75	5.25	5.75	5.50	5.50	2.50	5.50	3.25	3.25	3.50	2.75	5.25	3.25	0.50	0.75	-0.100098	0.029297	0.998047	-3.920000	12.390000	-4.620000	656.00	-0.03	-0.10
3.46	0.00	0.00	0.00	0.00	0.00	0.00	0.00	0.00	0.00	0.00	0.00	0.00	0.00	0.25	0.00	0.00	-1.013184	0.315430	2.154785	28.350000	-410.760010	116.550003	2.00	0.00	0.00	3.00	3.50	4.25	5.50	5.50	5.50	2.50	5.75	4.00	3.50	3.75	3.00	6.00	3.75	0.50	0.75	-0.116211	0.050293	0.993164	-4.060000	14.560000	-4.900000	670.00	-0.01	-0.10
3.47	0.00	0.00	0.00	0.00	0.00	0.00	0.00	0.00	0.00	0.00	0.00	0.00	0.00	0.00	0.00	0.00	-1.251953	0.362305	2.316895	12.880000	-409.500000	123.830002	0.00	0.00	0.00	2.50	2.75	4.00	5.25	5.50	5.50	2.75	5.75	5.00	4.25	4.00	3.50	6.50	4.50	0.50	1.25	-0.120117	0.061035	0.992188	-4.200000	16.870001	-6.090000	698.00	0.02	-0.09
3.48	0.00	0.00	0.00	0.00	0.00	0.00	0.00	0.00	0.00	0.00	0.00	0.00	0.00	0.00	0.00	0.00	-1.521484	0.430664	2.412109	-3.640000	-404.880005	131.460007	0.00	0.00	0.00	2.25	2.50	4.00	4.75	5.50	5.00	2.75	6.25	5.50	4.75	5.25	4.00	7.00	5.75	0.75	1.25	-0.130859	0.051758	0.995117	-3.570000	18.760000	-7.350000	737.00	0.04	-0.09
3.49	0.00	0.00	0.00	0.00	0.00	0.00	0.00	0.00	0.00	0.00	0.00	0.00	0.00	0.00	0.00	0.00	-1.840332	0.484863	2.536621	-16.379999	-398.019989	139.020004	0.00	0.00	0.00	1.75	2.00	3.00	4.25	5.25	5.00	3.00	6.25	6.50	6.00	6.50	4.75	7.75	6.50	0.75	1.25	-0.117188	0.054199	0.998535	-2.590000	21.210001	-7.350000	772.00	0.07	-0.08
3.50	0.00	0.00	0.25	0.00	0.00	0.00	0.00	0.00	0.00	0.00	0.00	0.00	0.00	0.00	0.00	0.00	-2.256348	0.489746	2.627441	-27.230000	-391.019989	147.000000	3.00	0.00	0.00	1.50	2.00	2.75	3.25	5.00	5.00	3.00	6.50	7.50	7.00	7.75	5.75	8.00	7.50	1.00	1.50	-0.138184	0.061035	0.993652	-0.840000	24.150000	-8.260000	819.00	0.09	-0.08
3.51	0.00	0.00	0.75	0.00	0.00	0.00	0.00	0.00	0.00	0.00	0.00	0.00	0.00	0.00	0.00	0.00	-2.701660	0.438477	2.597168	-25.270000	-385.910004	149.869995	8.00	0.00	0.00	1.25	1.75	2.25	3.00	4.25	4.50	3.25	6.50	8.00	8.25	8.25	6.50	8.25	8.25	1.00	1.75	-0.144531	0.036621	1.007812	1.330000	28.139999	-9.870000	838.00	0.11	-0.08
3.52	0.00	0.00	0.00	0.00	0.00	0.00	0.00	0.00	0.00	0.00	0.00	0.00	0.00	0.00	0.00	0.00	-3.120605	0.332031	2.385742	-6.440000	-377.929993	147.910004	0.00	0.00	0.00	1.00	2.00	1.75	2.75	3.75	3.75	3.25	6.75	8.50	8.75	9.00	7.50	8.75	9.00	1.25	2.00	-0.192383	0.053711	1.027832	4.480000	32.619999	-10.780000	865.00	0.12	-0.08
3.53	0.00	0.00	0.00	0.00	0.00	0.00	0.00	0.00	0.00	0.00	0.00	0.00	0.00	0.00	0.00	0.00	-3.423828	0.229492	1.988281	-5.180000	-360.500000	141.050003	0.00	0.00	0.00	1.00	1.50	1.50	2.00	3.00	3.50	3.00	6.75	9.00	9.25	9.75	8.25	9.25	10.00	1.50	2.50	-0.138672	0.051758	1.034180	11.130000	45.290001	-10.220000	880.00	0.14	-0.08
3.54	0.00	0.00	0.00	0.00	0.00	0.00	0.00	0.00	0.00	0.00	0.00	0.00	0.00	0.00	0.00	0.00	-3.651367	0.313965	1.569336	-37.170002	-329.070007	133.070007	0.00	0.00	0.00	0.75	1.25	1.00	1.50	2.50	3.00	3.00	6.50	9.50	10.00	10.25	8.75	9.50	11.00	1.50	2.75	-0.122070	0.067383	1.047852	12.950000	56.420002	-10.570000	886.00	0.16	-0.07
3.55	0.00	0.00	0.00	0.00	0.00	0.00	0.00	0.00	0.00	0.00	0.00	0.00	0.00	0.25	0.00	0.00	-3.761719	0.458984	0.977051	-78.330002	-287.910004	135.169998	2.00	0.00	0.00	0.75	1.25	0.50	1.25	1.75	2.25	2.75	6.50	10.25	10.50	11.00	9.25	9.75	12.25	1.75	3.50	-0.163086	0.070801	1.110840	16.379999	70.629997	-11.620000	905.00	0.18	-0.07
3.56	0.00	0.00	0.00	0.00	0.00	0.00	0.00	0.00	0.00	0.00	0.00	0.00	0.00	0.00	0.00	0.00	-4.154785	0.645996	-0.056152	-106.330002	-244.790009	133.979996	0.00	0.00	0.00	0.75	0.75	0.50	1.50	1.50	1.75	2.50	6.25	11.00	11.25	11.75	9.75	10.00	13.75	2.25	4.25	-0.172363	0.083984	1.118652	18.270000	90.090004	-11.760000	943.00	0.19	-0.07
3.57	0.00	0.00	0.00	0.00	0.00	0.00	0.00	0.00	0.00	0.25	0.00	0.00	0.00	0.00	0.00	0.00	-6.017090	1.268066	-0.502441	-97.230003	-202.720001	80.639999	3.00	0.00	0.00	0.50	1.00	0.25	1.25	1.00	0.50	2.25	6.00	11.50	11.50	12.25	10.25	10.00	15.25	2.75	5.25	-0.226074	0.100586	1.142578	21.559999	108.989998	-14.280000	953.00	0.21	-0.06
3.58	0.00	0.00	0.25	0.00	0.00	0.00	0.00	0.00	0.00	0.00	0.00	0.00	0.00	0.00	0.00	0.00	-6.212891	1.235840	-1.632324	21.000000	-141.610001	24.290001	3.00	0.00	0.00	0.50	0.75	0.25	1.50	0.75	0.75	1.75	5.50	11.75	12.00	12.75	10.50	10.00	16.50	3.00	5.75	-0.268555	0.050293	1.123047	27.510000	126.840004	-16.030001	971.00	0.21	-0.06
3.59	0.00	0.00	0.50	0.00	0.00	0.00	0.00	0.00	0.00	0.00	0.00	0.00	0.00	0.00	0.00	0.00	-4.678711	-0.420898	-0.852539	210.490005	80.220001	36.959999	6.00	0.00	0.00	0.50	1.00	0.00	1.00	0.50	0.75	1.50	5.00	12.00	12.50	13.50	10.75	10.00	17.75	3.25	6.25	-0.232422	0.004883	1.180664	31.780001	149.100006	-13.720000	986.00	0.22	-0.06
3.60	0.00	0.50	0.00	0.00	0.00	0.00	0.00	0.00	0.00	0.00	0.00	0.00	0.00	0.00	0.00	0.00	-2.879395	-0.562012	0.263184	100.660004	161.139999	77.279999	5.00	0.00	0.00	0.25	0.25	0.00	0.25	0.25	0.00	1.00	4.50	12.25	12.75	13.50	11.00	9.75	19.00	4.00	6.50	-0.269531	0.082031	1.198242	34.439999	173.809998	-9.590000	968.00	0.25	-0.05
3.61	0.00	0.50	0.50	0.50	0.00	0.00	0.00	0.00	0.00	0.00	0.00	0.00	0.00	0.00	0.00	0.00	1.173340	0.219238	1.183594	-11.340000	304.500000	64.260002	16.00	0.00	0.00	0.50	0.75	0.00	0.25	0.00	0.00	0.75	3.50	12.00	12.75	13.75	11.25	9.50	20.00	4.50	6.75	-0.286133	0.159180	1.129395	37.660000	198.449997	-10.080000	969.00	0.25	-0.04
3.62	1.00	1.75	1.00	1.75	0.00	0.00	0.00	0.00	0.00	0.00	0.00	0.00	0.00	0.00	0.00	0.00	0.227051	-0.057617	3.410645	-15.820000	282.239990	59.430000	57.00	-0.34	-0.09	0.25	0.25	0.00	0.00	0.00	0.00	0.50	2.75	11.50	12.50	13.75	11.25	9.00	21.00	5.00	7.00	-0.377930	0.201660	1.250488	37.170002	228.899994	-15.120000	945.00	0.26	-0.04
3.63	2.75	5.00	2.00	3.75	0.00	0.00	0.00	0.00	0.00	0.00	0.00	0.00	0.00	0.00	0.00	0.00	0.258301	-1.291504	-0.975098	-71.680000	190.259995	34.369999	138.00	-0.35	-0.09	0.00	0.25	0.00	0.00	0.00	0.00	0.25	1.75	11.00	12.25	13.50	11.00	8.75	21.75	5.50	7.00	-0.397949	0.208496	1.418457	28.210001	263.690002	-24.639999	919.00	0.27	-0.03
3.64	7.25	12.25	3.00	5.75	0.50	0.00	0.00	0.00	0.00	0.00	0.00	0.00	0.00	0.00	0.00	0.00	-0.776367	-0.584473	0.777344	-94.010002	292.250000	-12.810000	290.00	-0.36	-0.07	0.00	0.75	0.00	0.00	0.00	0.00	0.00	1.25	10.00	11.75	13.25	10.75	8.25	21.75	5.50	6.75	-0.372070	0.242188	1.492676	24.010000	312.339996	-34.369999	883.00	0.27	-0.03
3.65	13.50	20.00	6.25	9.25	0.75	0.75	0.00	0.00	0.00	0.00	0.00	0.25	0.00	0.00	0.00	0.00	-0.854980	-0.538574	3.418457	-46.340000	380.660004	-35.139999	514.00	-0.36	-0.07	0.25	0.25	0.00	0.00	0.00	0.00	0.00	1.25	9.00	11.00	12.75	10.25	7.50	21.75	5.75	6.50	-0.506348	0.153809	1.708496	17.639999	343.980011	-41.790001	844.00	0.28	-0.03
3.66	19.50	24.00	8.50	13.00	1.75	2.50	0.00	0.25	0.00	0.00	0.00	0.25	0.25	0.00	0.00	0.00	-1.526855	0.143555	3.813965	0.070000	326.339996	-44.520000	715.00	-0.34	-0.07	0.00	0.50	0.00	0.00	0.00	0.00	0.00	0.75	8.00	10.50	12.00	9.75	6.50	21.00	5.50	5.75	-0.407715	0.371582	1.461426	6.790000	396.899994	-48.230000	783.00	0.28	-0.03
3.67	21.75	26.50	10.50	15.50	3.00	4.50	0.25	0.75	0.00	0.00	0.00	0.25	0.25	0.00	0.00	0.00	-1.068359	0.997559	3.389160	-38.430000	247.660004	-37.939999	858.00	-0.33	-0.07	0.00	0.00	0.00	0.00	0.00	0.00	0.00	0.00	6.50	9.25	11.00	9.00	5.75	19.75	5.00	4.75	-0.714844	0.689453	2.044434	22.400000	437.360016	-61.459999	688.00	0.29	-0.03
3.68	21.75	26.00	11.75	16.25	5.00	5.75	0.25	1.00	0.00	0.00	0.00	0.25	0.50	0.00	0.00	0.00	-0.674805	0.240234	1.981445	-101.570000	151.199997	-11.900000	917.00	-0.32	-0.07	0.00	0.00	0.00	0.00	0.00	0.00	0.00	0.00	5.25	8.25	10.00	8.25	4.50	17.25	4.25	3.25	-0.667969	0.352051	2.659668	32.689999	469.350006	-78.959999	595.00	0.29	-0.02
3.69	21.50	25.75	12.50	16.50	6.25	6.75	0.50	1.25	0.25	0.00	0.25	0.50	0.75	0.00	0.00	0.00	-0.177734	-0.273438	1.140625	-116.129997	113.610001	-2.870000	966.00	-0.30	-0.07	0.00	0.00	0.00	0.00	0.00	0.00	0.00	0.25	3.75	6.25	8.50	7.00	3.00	13.75	2.75	1.75	-1.034668	0.317871	2.686035	55.299999	510.929993	-75.389999	462.00	0.28	-0.03
3.70	20.50	23.75	12.50	16.75	6.75	7.50	0.50	1.75	0.25	0.25	0.25	0.25	0.75	0.75	0.00	0.00	-0.257324	-0.068359	1.240234	-94.220001	89.250000	-7.910000	968.00	-0.29	-0.07	0.00	0.25	0.00	0.00	0.00	0.00	0.00	0.00	2.25	4.25	6.75	5.00	2.25	10.00	2.00	1.25	-0.808105	0.616699	3.097656	83.930000	537.250000	-74.690002	332.00	0.28	-0.03
3.71	19.50	23.25	12.75	16.75	7.75	8.00	0.75	2.00	0.50	0.50	0.50	0.50	1.00	0.75	0.00	0.00	-0.317871	0.141602	1.231934	-56.840000	56.279999	-4.550000	993.00	-0.28	-0.07	0.25	0.00	0.00	0.00	0.00	0.00	0.00	0.00	1.50	3.00	4.25	3.50	1.25	6.50	0.75	0.50	-0.395020	0.648438	2.916016	144.759995	548.169983	-82.809998	212.00	0.27	-0.02
