# time	left pressure 1[N/cm²]	left pressure 2[N/cm²]	left pressure 3[N/cm²]	left pressure 4[N/cm²]	left pressure 5[N/cm²]	left pressure 6[N/cm²]	left pressure 7[N/cm²]	left pressure 8[N/cm²]	left pressure 9[N/cm²]	left pressure 10[N/cm²]	left pressure 11[N/cm²]	left pressure 12[N/cm²]	left pressure 13[N/cm²]	left pressure 14[N/cm²]	left pressure 15[N/cm²]	left pressure 16[N/cm²]	left acceleration X[g]	left acceleration Y[g]	left acceleration Z[g]	left angular X[dps]	left angular Y[dps]	left angular Z[dps]	left total force[N]	left center of pressure X[%]	left center of pressure Y[%]	right pressure 1[N/cm²]	right pressure 2[N/cm²]	right pressure 3[N/cm²]	right pressure 4[N/cm²]	right pressure 5[N/cm²]	right pressure 6[N/cm²]	right pressure 7[N/cm²]	right pressure 8[N/cm²]	right pressure 9[N/cm²]	right pressure 10[N/cm²]	right pressure 11[N/cm²]	right pressure 12[N/cm²]	right pressure 13[N/cm²]	right pressure 14[N/cm²]	right pressure 15[N/cm²]	right pressure 16[N/cm²]	right acceleration X[g]	right acceleration Y[g]	right acceleration Z[g]	right angular X[dps]	right angular Y[dps]	right angular Z[dps]	right total force[N]	right center of pressure X[%]	right center of pressure Y[%]
0.00	15.50	11.75	10.50	10.50	7.00	9.00	1.75	8.75	1.25	1.50	0.50	1.00	7.50	0.50	0.00	0.75	-0.141602	0.077148	0.967285	-3.220000	2.590000	1.540000	1045.00	-0.18	-0.12																									
0.01	15.25	12.00	10.75	10.50	7.25	8.75	2.00	8.75	1.25	1.50	0.50	0.75	7.50	0.50	0.00	0.50	-0.146973	0.086426	0.963379	-3.080000	2.660000	1.470000	1048.00	-0.18	-0.11																									
0.02	16.25	12.00	11.00	11.00	7.25	8.75	2.00	8.75	1.25	1.75	0.50	0.75	7.50	0.25	0.25	0.50	-0.145996	0.083984	0.970215	-2.800000	2.940000	1.540000	1071.00	-0.18	-0.11																									
0.03	16.75	12.50	11.00	11.00	7.25	9.00	2.00	8.75	1.50	1.75	0.25	0.75	7.50	0.50	0.25	0.50	-0.142578	0.077637	0.970703	-2.380000	3.360000	1.540000	1088.00	-0.18	-0.11																									
0.04	16.75	13.50	11.25	11.00	7.25	9.25	2.00	8.75	1.50	1.75	0.50	0.75	7.25	0.00	0.25	0.50	-0.139160	0.078125	0.972656	-1.260000	5.460000	1.610000	1100.00	-0.19	-0.11																									
0.05	17.00	13.00	11.00	11.00	7.25	9.25	2.00	8.75	1.00	1.75	0.50	0.50	7.25	0.25	0.00	0.25	-0.139160	0.078125	0.972656	-1.260000	5.460000	1.610000	1083.00	-0.19	-0.11	5.00	2.25	2.00	1.50	1.50	0.00	2.50	0.50	0.00	0.00	0.00	0.00	0.00	0.00	0.00	0.00	-0.740723	-2.612793	3.736328	-95.269997	233.940002	55.860001	189.00	-0.23	0.04
0.06	16.50	13.25	11.00	11.00	7.25	9.00	2.00	8.75	1.50	1.50	0.25	0.50	7.50	0.25	0.00	0.50	-0.143066	0.087402	0.974609	-0.210000	7.700000	1.680000	1082.00	-0.19	-0.11	4.50	1.75	3.25	2.75	2.00	0.50	2.50	0.25	0.00	0.00	0.00	0.00	0.25	0.00	0.00	0.00	0.183105	-0.258789	0.436035	8.820000	-54.529999	2.170000	219.00	-0.22	0.03
0.07	16.25	13.00	11.00	11.00	7.25	9.00	2.00	8.50	1.25	1.75	0.25	0.50	7.25	0.25	0.00	0.25	-0.145996	0.093262	0.972168	0.420000	10.500000	1.610000	1068.00	-0.19	-0.11	4.00	1.25	2.50	2.25	1.75	0.00	3.00	0.50	0.50	0.00	0.00	0.00	0.00	0.00	0.00	0.00	0.066406	0.278320	0.636230	-7.630000	-12.600000	-5.250000	201.00	-0.18	0.06
0.08	16.00	12.75	10.75	10.75	7.00	8.75	2.00	8.50	1.25	1.25	0.50	0.50	7.00	0.25	0.00	0.25	-0.145996	0.086426	0.965820	-0.070000	12.320000	1.330000	1045.00	-0.19	-0.11	4.50	1.25	2.75	2.25	2.00	0.00	3.00	0.75	0.00	0.00	0.00	0.00	0.75	0.00	0.00	0.00	-0.207520	0.118652	1.110840	-26.180000	1.960000	-2.940000	217.00	-0.19	0.03
0.09	15.75	12.50	10.75	10.50	6.75	8.75	2.00	8.50	1.25	1.50	0.50	0.50	6.50	0.50	0.00	0.50	-0.148438	0.081543	0.972168	-0.420000	13.230000	1.050000	1036.00	-0.19	-0.11	3.75	1.25	2.50	2.00	2.00	0.25	3.00	1.25	0.00	0.00	0.00	0.00	0.75	0.00	0.00	0.00	-0.093262	0.084961	1.005859	-24.360001	7.630000	-3.500000	214.00	-0.17	0.01
0.10	15.50	12.25	10.50	10.50	6.75	8.50	2.00	8.25	1.25	1.50	0.25	0.25	6.50	0.25	0.00	0.25	-0.146484	0.085449	0.964355	-0.630000	14.700000	0.490000	1011.00	-0.19	-0.11	3.75	1.25	2.75	2.25	2.00	0.25	2.75	1.25	0.00	0.00	0.00	0.00	1.25	0.00	0.00	0.00	-0.141113	0.149414	1.009277	-17.570000	3.430000	-4.410000	220.00	-0.17	-0.01
0.11	15.25	12.00	10.50	10.25	6.50	8.50	2.00	8.25	1.25	1.50	0.00	0.50	6.25	0.25	0.00	0.25	-0.151367	0.083984	0.955078	-0.910000	14.910000	0.350000	997.00	-0.19	-0.11	3.75	1.00	2.75	2.00	2.00	0.25	3.00	1.75	0.00	0.25	0.00	0.00	1.75	0.00	0.00	0.00	-0.154785	0.142578	1.005859	-13.370000	3.080000	-3.290000	235.00	-0.14	-0.02
0.12	14.75	11.75	10.25	10.00	6.25	8.25	2.00	8.00	1.00	1.25	0.25	0.50	6.00	0.50	0.00	0.25	-0.152344	0.085938	0.964844	-1.190000	15.050000	0.140000	969.00	-0.19	-0.11	3.75	1.25	2.75	2.00	2.00	0.50	3.00	1.75	0.00	0.00	0.00	0.00	1.75	0.00	0.00	0.00	-0.124023	0.094238	1.010742	-9.100000	3.290000	-2.100000	237.00	-0.15	-0.03
0.13	14.00	11.00	10.00	9.75	6.00	8.00	2.00	7.75	1.25	1.25	0.50	0.25	5.50	0.00	0.00	0.25	-0.160156	0.080566	0.964355	-1.330000	15.680000	0.070000	931.00	-0.19	-0.11	3.25	1.00	2.50	2.00	2.00	0.00	3.00	3.25	1.75	1.25	0.75	1.00	4.50	1.25	1.25	1.75	-0.118652	0.111816	0.979492	-5.040000	1.120000	-1.890000	367.00	0.01	-0.07
0.14	14.25	10.25	10.00	9.75	6.00	7.75	1.75	7.50	0.75	1.00	0.25	0.00	4.00	0.00	0.00	0.00	-0.160156	0.082031	0.960938	-1.540000	14.560000	-0.070000	884.00	-0.21	-0.10	4.50	2.00	3.75	3.50	3.00	2.00	3.50	3.50	1.50	1.50	0.50	1.00	4.75	1.25	1.75	1.75	-0.138184	0.137695	0.978027	-4.130000	-0.490000	-1.260000	477.00	-0.04	-0.08
0.15	10.50	9.25	8.75	8.50	5.25	6.75	1.75	7.25	0.50	1.00	0.00	0.00	3.50	0.00	0.00	0.00	-0.155762	0.080566	0.963867	-1.470000	13.580000	-0.140000	765.00	-0.20	-0.11	5.00	2.50	4.25	3.25	3.00	2.00	3.50	3.50	1.00	1.25	0.25	0.75	4.50	1.25	1.25	1.50	-0.139648	0.128906	0.972168	-4.690000	-1.120000	-0.420000	465.00	-0.07	-0.07
0.16	10.25	9.00	8.50	8.25	5.00	6.25	1.50	6.50	0.00	0.75	0.00	0.00	3.75	0.00	0.00	0.00	-0.161621	0.077148	0.960449	-1.330000	12.600000	-0.070000	720.00	-0.21	-0.12	3.00	0.50	1.00	1.00	1.75	1.25	3.50	3.75	1.00	0.25	0.00	0.00	3.25	0.25	0.00	0.50	-0.137207	0.127930	0.973145	-5.670000	-2.240000	0.140000	272.00	-0.04	-0.08
0.17	9.50	8.50	8.00	8.00	4.75	6.25	1.75	6.50	0.00	0.25	0.00	0.00	2.75	0.00	0.00	0.00	-0.156250	0.081543	0.958496	-1.190000	11.480000	0.070000	684.00	-0.21	-0.12	3.00	0.75	2.50	2.00	2.00	0.75	3.25	3.25	0.00	0.25	0.00	0.00	3.75	0.00	0.00	0.50	-0.128418	0.125000	0.966309	-10.430000	-4.970000	0.910000	278.00	-0.09	-0.10
0.18	8.75	8.25	8.00	7.75	4.50	5.75	1.50	6.25	0.00	0.50	0.00	0.00	2.75	0.00	0.00	0.00	-0.156738	0.082520	0.954102	-1.260000	10.430000	0.280000	655.00	-0.21	-0.12	3.50	1.25	2.50	2.25	2.25	1.00	3.50	3.50	0.00	0.00	0.00	0.00	4.00	0.25	0.00	0.50	-0.126465	0.119629	0.979492	-12.250000	-6.230000	1.050000	307.00	-0.10	-0.10
0.19	9.75	10.50	11.00	10.00	6.00	7.75	2.00	7.50	1.25	1.25	0.25	0.00	4.75	0.25	0.00	0.25	-0.159668	0.080566	0.958008	-1.190000	9.310000	0.350000	876.00	-0.19	-0.11	3.50	1.00	2.75	2.00	2.75	1.25	3.50	4.00	0.00	0.25	0.00	0.25	4.00	0.00	0.25	0.50	-0.122559	0.118164	0.980957	-13.370000	-7.070000	1.050000	328.00	-0.09	-0.10
0.20	15.75	11.00	11.00	9.75	6.00	7.75	2.00	7.50	1.00	1.25	0.50	0.25	5.00	0.25	0.00	0.25	-0.165527	0.083496	0.955566	-1.120000	8.470000	0.490000	950.00	-0.20	-0.10	3.75	1.50	3.25	2.50	2.50	1.50	3.50	4.75	0.00	0.25	0.00	0.00	4.25	0.25	0.00	0.50	-0.128418	0.117188	0.989258	-14.140000	-7.770000	1.050000	360.00	-0.10	-0.11
0.21	10.00	8.75	8.75	8.25	5.25	6.00	1.75	6.50	0.00	0.50	0.00	0.00	2.50	0.00	0.00	0.00	-0.163574	0.085938	0.962891	-1.120000	7.980000	0.490000	708.00	-0.21	-0.11	4.00	1.50	3.25	2.75	2.75	1.75	3.50	5.25	0.00	0.25	0.00	0.00	4.50	0.00	0.00	0.50	-0.125977	0.115723	0.996094	-13.230000	-8.330000	0.980000	380.00	-0.10	-0.12
0.22	15.50	10.75	11.00	9.75	6.25	7.25	1.75	6.50	0.00	0.50	0.00	0.00	1.75	0.00	0.00	0.00	-0.163574	0.088867	0.958984	-0.980000	7.910000	0.630000	855.00	-0.24	-0.09	4.50	1.75	3.75	3.25	3.00	2.00	3.50	5.50	0.25	0.25	0.00	0.25	5.00	0.25	0.00	0.75	-0.118164	0.110840	0.988770	-11.410000	-8.050000	0.770000	425.00	-0.10	-0.12
0.23	9.75	8.50	8.50	8.00	5.25	5.25	1.75	6.25	0.00	0.50	0.00	0.00	2.00	0.00	0.00	0.00	-0.162109	0.088379	0.959473	-1.190000	7.840000	0.490000	678.00	-0.22	-0.10	4.75	1.50	4.25	3.00	3.50	2.25	3.50	5.75	0.00	0.50	0.00	0.25	5.00	0.50	0.00	0.50	-0.113770	0.114746	0.994629	-9.170000	-7.280000	0.840000	442.00	-0.10	-0.11
0.24	9.50	8.00	8.25	7.75	5.00	5.25	1.75	6.00	0.00	0.50	0.00	0.00	1.75	0.00	0.00	0.00	-0.163086	0.086914	0.959473	-1.820000	7.840000	0.280000	655.00	-0.22	-0.10	5.00	2.00	4.25	3.75	3.00	3.00	3.50	6.00	0.00	0.50	0.00	0.25	5.00	0.25	0.00	0.25	-0.119141	0.109375	0.988281	-7.280000	-6.090000	0.490000	462.00	-0.11	-0.12
0.25	9.50	8.00	8.25	7.75	4.75	5.00	1.75	6.00	0.00	0.50	0.00	0.00	1.75	0.00	0.00	0.00	-0.166016	0.089844	0.965332	-2.100000	8.610000	0.000000	649.00	-0.22	-0.10	5.00	2.00	4.75	3.75	3.25	3.00	3.50	6.25	0.00	0.50	0.00	0.25	5.25	0.50	0.25	0.75	-0.109863	0.107422	0.995605	-5.880000	-4.900000	0.630000	486.00	-0.11	-0.12
0.26	9.25	7.75	8.25	7.75	4.75	4.75	1.75	6.00	0.00	0.50	0.00	0.00	4.25	0.25	0.00	0.25	-0.166992	0.086914	0.966797	-1.750000	9.170000	0.070000	668.00	-0.20	-0.11	5.25	2.25	5.00	4.00	3.25	3.25	3.75	6.50	0.25	0.25	0.00	0.25	5.50	0.25	0.00	0.75	-0.115234	0.109375	0.988281	-4.200000	-4.130000	0.630000	506.00	-0.11	-0.12
0.27	14.50	9.50	10.25	9.00	5.50	5.25	1.75	5.75	0.00	0.25	0.00	0.00	2.00	0.00	0.00	0.00	-0.160645	0.082520	0.960449	-1.330000	9.660000	0.070000	767.00	-0.24	-0.08	5.00	2.25	5.00	4.25	3.25	3.50	3.50	6.75	0.25	0.50	0.00	0.25	5.50	0.25	0.00	0.50	-0.115723	0.111328	0.986328	-2.310000	-3.500000	0.700000	511.00	-0.11	-0.13
0.28	9.00	7.50	8.00	7.25	4.50	3.50	1.75	5.50	0.00	0.50	0.00	0.00	1.75	0.00	0.00	0.00	-0.165039	0.085938	0.965820	-0.980000	9.800000	0.140000	600.00	-0.22	-0.09	5.25	2.25	5.00	4.25	3.25	4.00	3.50	6.75	0.25	0.50	0.00	0.25	5.75	0.25	0.25	0.75	-0.106445	0.105469	0.980469	-1.470000	-3.010000	0.560000	527.00	-0.11	-0.13
0.29	8.75	7.25	8.00	6.75	4.25	3.50	1.75	5.25	0.00	0.50	0.00	0.00	1.00	0.00	0.00	0.00	-0.168945	0.086914	0.958496	-0.840000	9.800000	0.210000	575.00	-0.22	-0.09	5.00	2.50	5.00	4.25	3.50	4.00	3.50	7.00	0.00	0.50	0.00	0.50	6.00	0.25	0.00	0.75	-0.104980	0.109863	0.979980	-1.890000	-2.800000	0.420000	532.00	-0.11	-0.14
0.30	8.25	6.75	7.75	6.75	4.00	3.00	1.75	5.25	0.00	0.50	0.00	0.00	1.25	0.00	0.00	0.00	-0.166504	0.079590	0.960938	-1.260000	9.170000	0.210000	554.00	-0.22	-0.09	5.25	2.50	5.00	4.50	3.25	4.00	3.50	7.25	0.25	0.25	0.00	0.50	6.00	0.50	0.25	0.75	-0.103027	0.109863	0.981934	-3.430000	-2.940000	0.210000	545.00	-0.11	-0.14
0.31	8.25	6.75	7.75	6.50	4.00	2.50	1.75	5.25	0.00	0.25	0.00	0.00	1.00	0.00	0.00	0.00	-0.167480	0.085449	0.958008	-1.470000	8.750000	0.210000	540.00	-0.22	-0.09	5.25	2.25	5.00	4.75	3.50	4.25	3.50	7.50	0.50	0.50	0.00	0.75	6.25	0.50	0.00	1.00	-0.101562	0.112793	0.984863	-4.760000	-3.080000	-0.140000	566.00	-0.10	-0.14
0.32	7.75	6.75	7.50	6.50	3.75	2.25	1.75	5.00	0.00	0.25	0.00	0.00	1.00	0.00	0.00	0.00	-0.174316	0.079102	0.958496	-1.260000	8.680000	0.280000	521.00	-0.22	-0.09	5.25	2.50	5.00	4.50	3.75	4.50	3.50	7.50	0.25	0.50	0.00	0.75	7.25	0.25	0.00	1.00	-0.106934	0.112793	0.974609	-6.020000	-3.080000	-0.350000	575.00	-0.10	-0.15
0.33	7.50	6.25	7.50	6.00	3.75	1.75	1.75	5.00	0.00	0.50	0.00	0.00	1.25	0.00	0.00	0.00	-0.170898	0.081543	0.959961	-0.980000	8.610000	0.350000	507.00	-0.22	-0.08	5.25	2.25	5.00	4.50	3.75	5.00	3.50	7.75	0.25	0.50	0.00	1.00	7.25	0.25	0.00	1.25	-0.101562	0.119629	0.982422	-7.000000	-3.360000	-0.490000	587.00	-0.10	-0.15
0.34	7.50	6.00	7.25	5.75	3.50	1.50	1.75	4.75	0.00	0.25	0.00	0.00	0.75	0.00	0.00	0.00	-0.172852	0.084961	0.961426	-0.350000	8.540000	0.560000	480.00	-0.22	-0.08	5.25	2.25	5.00	4.50	3.75	5.00	3.75	7.75	0.25	0.50	0.00	1.00	7.50	0.25	0.50	1.25	-0.104980	0.112305	0.981445	-7.700000	-3.290000	-0.980000	599.00	-0.09	-0.15
0.35	7.25	5.75	7.25	5.50	3.50	1.50	1.75	4.50	0.00	0.00	0.00	0.00	1.25	0.00	0.00	0.00	-0.168457	0.084473	0.956055	0.350000	8.750000	0.770000	470.00	-0.22	-0.08	5.00	2.50	5.00	4.50	3.50	5.00	3.75	8.00	0.50	0.75	0.00	1.25	8.00	0.50	0.25	1.75	-0.099609	0.109863	0.982910	-8.260000	-2.940000	-1.190000	616.00	-0.08	-0.15
0.36	7.25	5.75	7.25	5.50	3.50	1.00	1.50	4.50	0.00	0.25	0.00	0.00	1.00	0.00	0.00	0.00	-0.177734	0.087402	0.961426	0.560000	8.540000	0.910000	460.00	-0.22	-0.08	5.00	2.25	5.00	4.50	4.25	5.25	3.75	8.00	0.50	0.75	0.25	1.50	8.25	0.50	0.25	1.50	-0.109375	0.112305	0.982422	-8.120000	-2.660000	-1.190000	633.00	-0.08	-0.15
0.37	7.00	5.50	7.25	5.25	3.25	0.75	1.75	4.25	0.00	0.25	0.00	0.00	0.75	0.00	0.00	0.00	-0.175781	0.095703	0.962402	0.840000	8.540000	1.050000	443.00	-0.22	-0.07	5.00	2.00	5.00	4.25	4.25	5.00	3.50	8.25	0.50	0.50	0.25	1.50	8.50	0.75	0.50	1.75	-0.106445	0.102051	0.982422	-7.700000	-2.380000	-1.260000	630.00	-0.07	-0.16
0.38	7.00	5.50	7.00	5.50	3.00	0.75	1.75	4.00	0.00	0.50	0.00	0.00	1.00	0.00	0.00	0.00	-0.179688	0.089844	0.959473	1.190000	8.750000	1.050000	441.00	-0.22	-0.07	4.75	2.00	5.00	4.50	4.50	5.25	3.75	8.25	0.75	0.75	0.25	1.75	9.00	0.75	0.75	2.75	-0.103516	0.101074	0.986816	-7.420000	-1.960000	-1.330000	663.00	-0.06	-0.16
0.39	7.25	5.75	7.00	5.00	3.00	0.75	1.50	4.00	0.00	0.50	0.00	0.00	1.00	0.00	0.00	0.00	-0.178223	0.090820	0.957520	1.400000	8.680000	1.190000	437.00	-0.23	-0.07	4.00	2.00	5.00	4.00	4.50	5.25	3.75	8.50	0.75	1.00	0.50	1.75	9.50	0.50	0.75	2.50	-0.104004	0.105469	0.987793	-6.930000	-1.610000	-1.190000	660.00	-0.05	-0.16
0.40	6.75	5.25	7.00	5.00	3.00	0.50	1.75	4.00	0.00	0.50	0.00	0.00	1.25	0.00	0.00	0.00	-0.174805	0.091797	0.959473	1.680000	8.470000	1.050000	429.00	-0.22	-0.07	5.00	2.00	5.00	4.00	4.50	5.25	3.75	8.50	0.00	1.00	0.50	1.75	9.50	0.50	0.50	2.50	-0.106934	0.108398	0.982422	-6.370000	-1.330000	-1.190000	657.00	-0.06	-0.16
0.41	7.75	5.75	7.50	5.50	3.25	1.25	1.75	4.50	0.00	0.75	0.00	0.00	2.00	0.00	0.00	0.00	-0.179199	0.095703	0.964355	2.380000	8.190000	1.260000	488.00	-0.21	-0.08	4.25	1.75	5.00	4.00	4.75	5.50	3.75	8.75	0.75	0.75	0.75	2.25	10.00	0.75	0.50	2.75	-0.101562	0.096191	0.986816	-5.390000	-0.910000	-1.120000	682.00	-0.05	-0.17
0.42	8.25	5.75	7.75	5.75	3.25	1.50	1.75	4.50	0.50	1.00	0.00	0.00	2.75	0.25	0.00	0.25	-0.178223	0.087402	0.956055	2.590000	8.050000	1.190000	524.00	-0.20	-0.08	4.25	1.75	4.50	2.75	4.50	5.00	4.00	8.50	0.75	1.00	0.75	2.50	10.25	0.50	0.50	3.00	-0.109863	0.097656	0.989258	-4.620000	-0.210000	-0.980000	659.00	-0.03	-0.16
0.43	9.25	6.25	8.25	6.25	3.50	2.50	2.00	5.00	0.75	1.50	0.25	0.00	3.00	0.50	0.00	0.00	-0.181641	0.088379	0.959473	2.730000	7.630000	1.120000	595.00	-0.19	-0.08	4.25	1.75	4.50	3.75	4.75	5.75	4.25	9.25	2.25	1.50	1.75	4.00	11.25	2.00	2.00	4.50	-0.100098	0.102539	0.993652	-4.060000	0.420000	-0.490000	805.00	0.00	-0.15
0.44	8.75	6.00	8.25	6.25	3.50	2.50	1.75	5.00	0.75	1.25	0.00	0.00	3.50	0.50	0.00	0.25	-0.174316	0.096680	0.959961	2.590000	7.210000	1.190000	583.00	-0.18	-0.08	5.25	1.25	4.25	3.00	5.00	5.75	4.00	9.00	2.25	1.50	2.00	4.00	11.25	2.00	1.75	3.50	-0.109375	0.106934	0.988281	-3.570000	0.840000	-0.420000	788.00	0.00	-0.15
0.45	8.75	6.00	8.00	6.00	3.25	2.50	1.75	5.00	0.75	1.25	0.00	0.00	3.50	0.25	0.25	0.00	-0.176270	0.099121	0.958008	1.960000	6.720000	1.050000	573.00	-0.18	-0.09	3.25	2.25	5.25	4.25	5.25	6.50	4.00	9.25	0.75	1.25	0.50	2.75	10.25	0.75	0.75	3.25	-0.107422	0.104004	0.985352	-3.290000	1.190000	-0.280000	728.00	-0.04	-0.17
0.46	8.75	6.00	8.00	6.00	3.25	2.50	1.75	5.00	0.75	1.00	0.00	0.25	3.25	0.25	0.00	0.25	-0.182129	0.102539	0.956543	1.400000	6.300000	1.330000	569.00	-0.19	-0.09	3.75	1.50	4.25	3.50	5.25	6.25	4.00	9.00	0.75	1.25	1.00	2.75	10.50	1.00	1.00	3.75	-0.095703	0.101074	0.982910	-3.220000	1.400000	-0.420000	714.00	-0.02	-0.17
0.47	8.75	6.00	8.00	5.75	3.25	2.25	1.75	4.75	0.75	1.25	0.00	0.25	3.75	0.25	0.00	0.25	-0.175293	0.097168	0.953125	0.140000	6.300000	0.910000	567.00	-0.18	-0.09	4.00	1.50	3.75	3.50	5.00	6.00	4.00	9.00	0.75	1.50	1.00	3.00	10.75	0.75	0.75	3.75	-0.106934	0.100586	0.982910	-3.570000	1.190000	-0.350000	708.00	-0.02	-0.17
0.48	8.50	5.75	8.00	6.00	3.00	2.25	1.75	5.00	1.00	1.25	0.00	0.25	3.75	0.50	0.00	0.75	-0.182129	0.099121	0.954590	-1.400000	6.020000	0.630000	574.00	-0.17	-0.09	4.25	1.50	4.00	3.25	5.25	6.25	4.00	9.00	1.00	1.25	1.00	2.75	10.75	1.00	0.75	3.75	-0.101562	0.108887	0.983887	-3.990000	1.120000	-0.280000	717.00	-0.02	-0.17
0.49	8.25	5.75	7.75	5.75	3.25	2.00	1.75	5.00	1.25	1.00	0.00	0.25	3.25	0.25	0.00	0.00	-0.177734	0.102539	0.946289	-3.570000	5.460000	0.420000	555.00	-0.18	-0.08	4.00	1.25	3.75	3.25	5.25	6.25	4.00	9.00	1.00	1.25	1.25	3.25	10.75	0.75	0.75	4.00	-0.103027	0.107422	0.980957	-4.270000	1.190000	-0.420000	717.00	-0.02	-0.17
0.50	8.25	5.75	7.75	5.75	3.25	1.75	1.75	5.00	1.00	1.25	0.00	0.00	3.75	0.25	0.00	0.50	-0.179688	0.096680	0.955078	-5.180000	4.830000	0.070000	556.00	-0.18	-0.09	3.75	1.50	3.75	3.25	5.25	6.25	4.00	9.00	1.00	1.50	1.00	3.25	11.00	0.75	1.00	4.00	-0.102539	0.104004	0.981445	-4.620000	1.120000	-0.420000	721.00	-0.01	-0.17
0.51	8.50	5.75	7.75	5.50	3.00	2.00	1.75	5.00	0.75	1.25	0.25	0.25	3.50	0.25	0.00	0.00	-0.175781	0.095215	0.951660	-5.740000	4.340000	0.070000	552.00	-0.18	-0.09	3.50	1.25	3.50	3.25	5.25	6.25	3.75	9.00	0.75	1.25	1.50	3.25	11.00	1.00	1.00	4.00	-0.106934	0.105469	0.983398	-5.110000	1.120000	-0.630000	711.00	-0.01	-0.18
0.52	8.00	5.50	7.50	5.50	3.25	2.00	1.75	5.00	1.00	1.50	0.25	0.25	4.25	0.50	0.00	0.25	-0.185059	0.096191	0.962891	-6.020000	3.990000	0.140000	561.00	-0.16	-0.09	3.75	1.25	4.00	3.00	5.25	6.25	4.00	9.00	0.75	1.50	1.25	3.25	11.00	0.75	0.75	4.00	-0.101562	0.104004	0.983398	-5.810000	0.700000	-0.560000	715.00	-0.02	-0.17
0.53	8.00	5.50	7.75	5.25	3.00	2.00	1.75	5.00	1.00	1.25	0.25	0.25	3.50	0.00	0.00	0.25	-0.176758	0.095215	0.949707	-6.230000	3.640000	0.210000	544.00	-0.17	-0.09	3.75	1.25	3.75	2.75	5.25	6.25	4.00	8.75	0.75	1.50	1.00	3.25	10.75	0.75	1.00	4.00	-0.095215	0.104980	0.975098	-7.910000	0.070000	-0.700000	703.00	-0.01	-0.17
0.54	7.75	5.50	7.75	5.50	3.25	2.00	2.00	5.00	1.25	1.25	0.25	0.00	4.00	0.25	0.00	0.25	-0.176758	0.094727	0.960449	-6.440000	3.360000	0.210000	559.00	-0.17	-0.08	3.75	1.50	4.00	3.00	5.50	6.00	4.00	8.75	1.00	2.00	1.00	3.25	10.75	1.00	1.00	3.75	-0.096680	0.110352	0.967285	-9.030000	-0.140000	-0.840000	721.00	-0.01	-0.16
0.55	7.50	5.50	7.50	5.25	3.25	2.00	1.75	5.00	0.75	1.50	0.25	0.25	3.75	0.25	0.00	0.50	-0.181641	0.097656	0.955566	-6.370000	3.220000	0.350000	544.00	-0.17	-0.09	3.50	1.25	3.50	2.75	5.50	6.25	4.25	8.75	1.00	1.75	1.00	3.00	10.75	1.25	0.75	4.00	-0.097656	0.101074	0.974609	-9.870000	-0.490000	-0.840000	709.00	-0.01	-0.16
0.56	7.75	5.50	7.50	5.50	3.25	2.00	1.75	5.00	1.00	1.50	0.50	0.50	4.25	0.25	0.00	0.25	-0.178223	0.092773	0.952637	-5.740000	3.010000	0.560000	562.00	-0.16	-0.09	3.75	1.50	3.75	2.75	5.75	6.00	4.00	8.75	1.00	1.50	1.00	3.25	10.75	0.75	1.00	4.00	-0.099121	0.100098	0.982422	-9.940000	-0.840000	-0.770000	712.00	-0.01	-0.17
0.57	7.50	5.25	7.50	5.25	3.25	2.00	1.75	5.00	1.00	1.50	0.25	0.50	4.25	0.25	0.25	0.25	-0.181152	0.088379	0.959961	-5.740000	2.870000	0.490000	554.00	-0.16	-0.09	3.50	1.25	3.50	3.00	5.75	6.00	4.00	8.75	1.00	1.75	1.25	3.00	10.50	0.75	1.00	3.75	-0.101562	0.096191	0.984375	-9.940000	-0.770000	-0.770000	705.00	-0.01	-0.17
0.58	7.50	5.25	7.50	5.50	3.50	2.00	1.75	5.00	1.00	1.25	0.50	0.50	4.50	0.25	0.00	0.25	-0.183105	0.095215	0.958984	-5.740000	3.010000	0.490000	559.00	-0.16	-0.09	3.75	1.25	3.50	2.75	6.25	6.00	4.00	8.75	1.00	1.75	1.25	3.00	10.75	1.00	0.75	4.00	-0.103027	0.087891	0.985840	-9.520000	-0.350000	-0.770000	715.00	-0.01	-0.16
0.59	7.50	5.25	7.50	5.50	3.50	2.25	1.75	5.25	1.00	1.50	0.25	0.50	4.25	0.50	0.00	0.25	-0.175293	0.089844	0.962891	-5.460000	3.220000	0.350000	566.00	-0.16	-0.09	3.75	1.50	3.50	3.00	6.00	6.00	4.25	8.50	1.00	1.50	1.25	3.00	10.50	1.00	1.00	3.75	-0.100586	0.092773	0.987793	-9.100000	0.210000	-0.840000	713.00	-0.01	-0.16
0.60	7.25	5.25	7.50	5.25	3.25	2.00	1.75	5.25	1.00	1.50	0.25	0.50	4.25	0.50	0.00	0.75	-0.177734	0.091309	0.969727	-5.110000	3.150000	0.490000	557.00	-0.15	-0.10	4.00	1.50	3.75	2.50	6.25	6.00	4.25	8.50	1.25	1.50	1.25	3.00	10.50	1.50	2.50	5.00	-0.103516	0.092285	0.982422	-8.260000	0.350000	-0.700000	749.00	0.00	-0.15
0.61	7.50	5.50	7.25	5.25	3.50	1.75	1.75	5.25	1.50	1.50	0.50	0.25	4.25	0.25	0.00	0.50	-0.175293	0.089844	0.960938	-4.690000	3.220000	0.560000	563.00	-0.15	-0.09	5.00	2.25	5.00	4.00	7.25	7.00	4.75	9.25	2.00	2.00	1.50	3.50	10.00	1.50	1.50	4.25	-0.107910	0.095703	0.984863	-7.700000	0.770000	-0.630000	850.00	-0.02	-0.14
0.62	7.25	5.25	7.50	5.25	3.50	2.25	1.75	5.50	1.25	1.50	0.25	0.50	4.50	0.25	0.00	0.50	-0.180176	0.086914	0.959473	-4.410000	3.500000	0.630000	570.00	-0.15	-0.10	3.75	1.75	3.50	2.75	7.00	5.75	4.50	8.75	2.25	2.00	2.00	4.25	11.25	2.50	2.25	5.00	-0.098633	0.093262	0.975586	-7.070000	0.700000	-0.350000	819.00	0.02	-0.14
0.63	7.25	5.25	7.50	5.00	3.50	2.00	2.00	5.50	1.00	1.25	0.25	0.50	4.50	0.25	0.00	0.25	-0.179688	0.090332	0.960449	-3.990000	3.780000	0.630000	560.00	-0.15	-0.10	5.50	2.75	5.25	4.00	7.50	7.00	4.75	9.25	3.00	2.75	2.25	4.25	11.25	2.50	2.25	5.00	-0.101074	0.094238	0.983887	-6.370000	0.770000	-0.210000	941.00	-0.00	-0.13
0.64	7.50	5.25	7.50	5.25	3.50	2.00	2.00	5.50	1.25	1.50	0.25	0.50	4.75	0.50	0.00	0.50	-0.179688	0.090332	0.960449	-3.850000	4.130000	0.560000	578.00	-0.15	-0.09	5.00	2.50	5.25	4.00	7.50	6.75	4.75	9.25	3.00	2.75	2.25	4.25	11.00	2.50	2.50	5.00	-0.103516	0.085938	0.986328	-5.740000	0.840000	-0.140000	930.00	0.00	-0.13
0.65	7.50	5.00	7.25	5.00	3.50	1.75	2.00	5.50	1.00	1.50	0.25	0.50	4.25	0.25	0.00	0.50	-0.181152	0.088379	0.963379	-3.640000	4.340000	0.630000	556.00	-0.15	-0.09	5.00	2.75	5.25	4.25	7.75	6.75	4.75	9.25	3.00	3.00	2.25	4.00	11.25	2.25	2.50	5.00	-0.098145	0.084473	0.980957	-4.760000	0.910000	0.140000	939.00	-0.00	-0.13
0.66	7.25	5.00	7.50	5.25	3.50	1.75	2.00	5.50	0.75	1.50	0.50	0.50	4.75	0.50	0.25	0.00	-0.177246	0.089355	0.960938	-3.290000	4.270000	0.770000	566.00	-0.15	-0.10	5.25	2.50	5.25	4.50	7.75	7.00	4.75	9.25	3.00	3.25	2.25	4.25	11.00	2.50	2.50	5.00	-0.097656	0.083496	0.975586	-4.620000	0.770000	0.280000	951.00	-0.00	-0.13
0.67	7.00	5.25	7.25	5.25	3.50	2.00	2.00	5.75	1.00	1.50	0.50	0.50	4.75	0.50	0.00	0.50	-0.174805	0.087402	0.960938	-3.080000	4.130000	0.770000	573.00	-0.14	-0.10	5.25	3.00	5.25	4.25	7.75	7.00	4.75	9.25	2.75	3.00	2.00	4.25	11.00	2.75	2.25	4.75	-0.099609	0.093750	0.975098	-4.550000	0.630000	0.210000	942.00	-0.01	-0.13
0.68	7.00	5.25	7.25	5.00	3.50	2.00	2.00	5.75	1.25	1.50	0.25	0.50	5.00	0.75	0.00	0.50	-0.168945	0.088379	0.960449	-3.220000	3.990000	0.840000	576.00	-0.14	-0.10	5.50	2.75	5.50	4.00	7.50	6.75	4.75	9.00	3.00	2.75	2.25	4.25	11.00	2.50	2.25	4.75	-0.096680	0.087891	0.983887	-4.690000	0.700000	-0.000000	933.00	-0.01	-0.13
0.69	7.25	5.25	7.50	5.00	3.50	2.00	1.75	6.00	1.50	1.50	0.25	0.25	5.00	0.50	0.25	0.50	-0.177246	0.091309	0.955078	-3.430000	3.780000	0.700000	583.00	-0.14	-0.10	5.25	2.75	5.25	4.25	7.75	7.00	4.75	9.25	3.25	3.00	2.25	4.00	11.00	2.50	2.25	4.50	-0.098145	0.089355	0.974609	-4.690000	0.770000	-0.070000	942.00	-0.00	-0.13
0.70	7.00	5.00	7.25	4.50	3.50	2.25	1.75	5.75	1.25	1.75	0.50	0.75	5.00	0.25	0.25	0.25	-0.172852	0.087891	0.957520	-3.640000	3.570000	0.700000	571.00	-0.13	-0.10	5.50	2.75	5.50	4.25	7.75	7.00	4.75	9.25	3.00	3.00	2.25	4.00	10.75	2.75	2.50	4.75	-0.102539	0.091309	0.982910	-4.550000	0.700000	-0.070000	949.00	-0.01	-0.12
0.71	7.00	5.00	7.25	4.50	3.50	2.25	2.00	6.00	1.25	1.50	0.50	0.50	5.00	0.50	0.00	0.50	-0.174316	0.089355	0.963379	-3.920000	3.710000	0.630000	575.00	-0.14	-0.10	5.25	2.75	5.25	4.25	8.00	6.75	4.75	9.00	3.00	3.25	2.25	4.00	10.75	2.50	2.25	4.75	-0.103516	0.085938	0.980957	-4.410000	0.840000	-0.070000	937.00	-0.00	-0.12
0.72	7.00	5.00	7.25	4.50	3.75	2.00	2.00	5.75	1.25	1.75	0.50	0.75	5.00	0.50	0.00	0.25	-0.174316	0.090820	0.958008	-4.270000	3.640000	0.700000	575.00	-0.13	-0.10	5.25	2.75	5.50	4.25	8.00	6.75	4.75	9.00	3.00	3.25	2.25	4.25	10.75	2.50	2.25	4.50	-0.093750	0.089355	0.983398	-4.130000	1.050000	-0.000000	941.00	-0.01	-0.12
0.73	5.75	3.00	6.00	2.50	3.00	0.75	1.75	5.75	1.25	1.50	0.25	0.75	5.00	0.25	0.25	0.50	-0.171875	0.090820	0.960938	-4.550000	3.570000	0.490000	470.00	-0.10	-0.10	5.25	2.50	5.25	4.00	7.75	6.75	4.75	9.00	3.00	3.25	2.50	4.00	10.75	2.75	2.25	4.50	-0.096680	0.086426	0.986328	-4.130000	1.330000	-0.210000	932.00	-0.00	-0.12
0.74	6.50	4.50	7.00	4.00	3.50	2.25	2.00	6.00	1.50	1.50	0.50	0.75	5.00	0.75	0.00	0.25	-0.172363	0.087402	0.957520	-5.250000	3.290000	0.280000	562.00	-0.12	-0.10	5.00	2.50	5.00	3.50	7.50	6.25	4.75	8.75	2.50	2.75	2.00	3.75	10.50	2.50	2.25	5.00	-0.100098	0.086914	0.979492	-4.130000	1.680000	-0.560000	884.00	-0.00	-0.13
0.75	6.25	4.50	7.25	4.25	3.75	2.25	2.00	6.25	1.50	1.50	0.50	1.00	5.25	0.50	0.00	0.25	-0.174805	0.092773	0.962402	-5.390000	3.080000	0.140000	576.00	-0.12	-0.10	4.75	2.25	4.75	3.25	7.25	5.75	4.50	8.50	2.50	2.50	2.00	3.75	10.25	2.25	2.00	4.50	-0.099609	0.085938	0.983887	-4.130000	1.960000	-0.560000	842.00	-0.00	-0.13
0.76	6.50	4.50	7.00	4.00	4.00	2.25	2.00	6.25	1.00	1.75	0.50	0.75	5.50	0.75	0.25	0.50	-0.173828	0.084473	0.958496	-5.670000	3.080000	0.210000	577.00	-0.12	-0.11	4.50	1.75	4.50	3.00	7.25	6.00	4.50	8.50	2.75	3.00	2.00	3.50	10.50	2.25	2.25	4.25	-0.097656	0.086426	0.981934	-3.990000	2.240000	-0.630000	841.00	0.01	-0.13
0.77	6.25	4.00	6.75	3.50	3.75	2.50	2.00	6.25	1.50	1.75	0.75	0.75	5.50	0.50	0.00	0.75	-0.177246	0.084961	0.957031	-5.530000	2.940000	0.280000	567.00	-0.11	-0.11	4.75	2.25	5.00	3.75	7.50	6.50	4.75	9.00	3.00	3.25	2.50	4.00	10.75	2.50	2.25	4.75	-0.102051	0.085449	0.983398	-3.290000	2.660000	-0.350000	911.00	0.00	-0.13
0.78	6.00	4.25	6.75	3.75	4.00	2.00	2.00	6.50	1.50	1.75	0.75	0.75	5.75	0.75	0.50	0.75	-0.170410	0.085938	0.958496	-5.600000	2.660000	0.140000	581.00	-0.10	-0.11	5.00	2.25	5.00	3.75	7.75	6.50	4.75	9.00	3.25	3.25	2.50	4.00	10.75	2.50	2.50	5.00	-0.095215	0.094238	0.979980	-3.430000	2.870000	-0.420000	925.00	0.01	-0.12
0.79	6.00	4.25	7.00	4.00	4.00	2.00	2.00	6.50	1.50	2.00	0.50	1.00	6.00	0.75	0.00	0.75	-0.170410	0.084961	0.963867	-6.090000	3.010000	-0.140000	586.00	-0.10	-0.11	5.00	2.25	5.00	3.50	7.75	6.25	4.75	8.75	3.00	3.25	2.50	4.00	10.50	2.75	2.50	4.75	-0.102539	0.090820	0.983887	-3.290000	3.150000	-0.630000	909.00	0.01	-0.12
0.80	5.75	4.00	6.75	2.75	4.00	2.00	2.00	6.50	1.50	1.75	0.25	0.50	4.75	0.00	0.00	0.25	-0.175781	0.080566	0.958984	-5.740000	3.220000	-0.210000	530.00	-0.12	-0.10	5.25	2.50	5.00	3.75	7.75	6.50	4.75	9.00	3.25	3.25	2.75	4.25	11.00	2.75	2.50	5.00	-0.111328	0.090820	0.982910	-3.150000	3.290000	-0.560000	940.00	0.01	-0.12
0.81	3.50	0.75	5.25	1.00	3.25	0.00	1.75	5.75	0.75	1.00	0.00	0.50	4.75	0.00	0.00	0.00	-0.170410	0.084473	0.959961	-5.600000	3.150000	-0.280000	359.00	-0.08	-0.11	5.25	2.75	5.00	3.75	7.50	6.50	4.75	9.00	3.00	3.50	2.50	4.25	11.00	2.50	2.75	5.00	-0.103027	0.087402	0.983398	-3.080000	3.500000	-0.630000	937.00	0.00	-0.13
0.82	5.25	2.75	6.25	2.25	4.50	2.00	2.00	6.75	1.75	2.25	1.00	1.50	6.25	1.00	0.25	1.00	-0.175781	0.081055	0.962891	-5.180000	3.570000	-0.350000	570.00	-0.06	-0.11	5.00	2.50	5.00	4.00	7.50	6.50	4.75	9.00	3.25	3.50	2.50	4.25	11.00	2.75	2.50	5.00	-0.109863	0.090332	0.987305	-3.010000	3.570000	-0.560000	938.00	0.01	-0.12
0.83	4.75	2.50	6.25	2.50	4.50	1.75	2.00	7.00	1.75	2.25	1.25	1.25	6.50	1.00	0.25	1.00	-0.177246	0.087891	0.961914	-4.340000	4.060000	-0.210000	568.00	-0.06	-0.11	5.25	2.50	5.00	4.00	7.50	6.25	4.75	9.00	3.25	3.50	2.75	4.25	10.75	2.50	2.50	5.25	-0.099609	0.085449	0.985840	-2.800000	3.570000	-0.630000	937.00	0.01	-0.12
0.84	5.00	3.00	6.25	2.50	4.50	2.25	2.25	7.25	1.75	2.25	1.25	1.50	6.50	0.50	0.25	1.00	-0.183105	0.080078	0.962402	-3.570000	4.480000	0.000000	588.00	-0.07	-0.12	2.25	1.00	5.00	3.50	7.25	6.00	4.50	8.75	3.25	3.50	2.50	4.25	10.75	2.75	2.50	5.00	-0.104492	0.086914	0.982910	-2.660000	3.640000	-0.630000	866.00	0.03	-0.13
0.85	5.00	2.50	6.00	2.50	4.75	2.25	2.00	7.25	1.75	2.50	1.25	2.00	6.50	0.75	0.50	1.00	-0.177734	0.081055	0.955078	-2.660000	4.410000	0.210000	593.00	-0.05	-0.12	4.25	1.00	4.00	2.75	7.00	5.75	4.50	8.50	2.75	3.25	2.50	4.25	10.50	2.50	2.50	5.00	-0.108887	0.087891	0.985352	-2.800000	3.290000	-0.490000	842.00	0.03	-0.13
0.86	5.00	2.00	6.25	2.50	4.50	2.25	2.25	7.50	2.00	2.25	1.25	1.75	6.75	1.00	0.25	1.25	-0.176270	0.080078	0.964844	-2.170000	4.550000	0.490000	597.00	-0.05	-0.12	4.50	2.00	4.50	3.00	7.00	5.75	4.50	8.50	2.50	2.75	2.25	4.25	10.25	2.50	2.25	5.00	-0.102539	0.087402	0.977051	-2.870000	2.940000	-0.490000	847.00	0.01	-0.13
0.87	4.50	2.50	6.00	2.50	4.50	2.25	2.00	7.25	1.75	2.25	1.50	1.75	7.00	0.50	0.00	1.00	-0.176270	0.082520	0.957031	-1.890000	4.620000	0.700000	578.00	-0.06	-0.13	4.25	1.75	3.50	2.75	6.75	5.25	4.50	8.25	2.50	3.25	2.25	3.50	10.00	1.50	1.00	4.00	-0.105957	0.092285	0.982910	-2.800000	2.450000	-0.210000	778.00	0.01	-0.13
0.88	4.75	2.75	5.75	2.25	4.75	2.25	2.25	7.50	1.75	2.25	1.25	2.00	7.00	1.00	0.50	1.25	-0.179688	0.083496	0.961426	-1.610000	4.480000	0.980000	601.00	-0.05	-0.12	2.75	0.75	3.00	3.50	6.75	5.75	4.75	8.75	3.25	3.50	2.75	4.25	10.75	2.50	1.25	3.75	-0.113770	0.087402	0.983887	-2.870000	2.310000	-0.140000	818.00	0.03	-0.13
0.89	4.00	2.50	5.75	2.00	4.50	2.25	2.25	7.50	2.00	2.25	1.25	1.75	7.50	1.00	0.25	1.25	-0.178711	0.080078	0.963867	-1.470000	4.410000	1.050000	586.00	-0.04	-0.13	4.75	0.50	4.25	2.25	6.00	4.75	4.50	8.25	3.00	2.25	2.25	4.25	9.75	2.00	1.25	3.75	-0.106445	0.088379	0.978027	-2.940000	1.750000	-0.000000	768.00	0.02	-0.12
0.90	4.25	2.25	5.75	2.25	4.50	2.00	2.25	7.50	2.00	2.50	1.25	2.00	7.50	1.25	0.25	1.50	-0.179688	0.080566	0.961426	-1.470000	4.410000	1.050000	596.00	-0.03	-0.12	3.00	1.25	3.00	2.00	6.00	5.00	4.25	8.00	0.75	2.25	1.25	2.75	9.75	1.25	1.00	3.75	-0.103027	0.090820	0.985840	-2.870000	1.680000	-0.070000	661.00	0.00	-0.15
0.91	4.25	2.50	5.75	2.00	4.50	2.25	2.25	7.50	2.00	2.25	1.25	2.00	7.50	0.75	0.25	1.25	-0.176270	0.078125	0.958496	-1.680000	4.410000	1.120000	590.00	-0.04	-0.13	3.25	1.00	2.75	2.25	6.00	4.75	4.50	8.00	1.50	2.25	1.50	3.00	9.75	1.25	1.00	3.75	-0.105469	0.088379	0.983887	-2.800000	1.400000	-0.000000	679.00	0.01	-0.15
0.92	4.50	3.25	5.75	2.50	4.75	2.25	2.00	7.50	2.00	2.25	1.50	2.25	7.75	1.00	0.50	1.25	-0.175293	0.087402	0.962402	-1.680000	4.200000	1.190000	618.00	-0.04	-0.13	3.50	1.75	3.50	2.50	5.75	4.50	4.25	8.00	1.75	2.25	1.50	2.75	9.75	1.25	1.00	3.75	-0.106934	0.092285	0.979004	-3.010000	1.120000	-0.000000	692.00	0.00	-0.14
0.93	4.25	2.25	5.75	2.00	4.75	2.50	2.25	7.50	1.75	2.50	1.25	2.00	7.75	1.00	0.50	1.00	-0.175781	0.084473	0.955566	-1.610000	4.130000	1.260000	598.00	-0.04	-0.13	3.00	1.00	3.00	2.25	6.00	4.50	4.25	8.00	2.00	2.50	1.50	2.75	9.75	1.25	1.00	3.50	-0.106934	0.090332	0.979004	-2.870000	1.050000	0.140000	678.00	0.01	-0.14
0.94	4.25	2.25	5.75	2.25	4.50	2.50	2.25	7.75	1.75	2.50	1.25	2.50	7.75	1.00	0.50	1.25	-0.177246	0.081055	0.966309	-1.750000	4.130000	1.400000	610.00	-0.04	-0.13	3.50	1.00	3.00	2.50	6.00	4.50	4.50	8.00	1.75	2.25	1.25	2.75	9.75	1.50	1.00	3.75	-0.109375	0.090820	0.980957	-3.080000	0.840000	0.140000	685.00	0.01	-0.14
0.95	4.00	2.00	5.50	2.00	4.50	2.25	2.25	7.75	1.75	2.50	1.25	2.25	7.75	1.00	0.50	1.50	-0.173828	0.084473	0.960938	-2.030000	3.990000	1.400000	594.00	-0.03	-0.13	3.00	1.25	2.75	2.25	5.75	4.50	4.50	8.00	1.50	2.25	1.25	2.75	9.50	1.25	1.00	3.50	-0.104492	0.087402	0.980469	-3.150000	0.700000	0.280000	663.00	0.01	-0.15
0.96	4.00	2.75	5.50	2.25	4.75	2.50	2.25	7.75	2.25	2.50	1.25	2.00	7.50	0.75	0.50	1.25	-0.174316	0.085938	0.955078	-2.380000	3.850000	1.260000	609.00	-0.04	-0.13	3.00	1.00	3.00	1.75	5.75	4.25	4.25	7.75	1.50	2.00	1.50	2.75	9.50	1.25	1.00	3.75	-0.108398	0.086914	0.980957	-2.940000	0.700000	0.280000	648.00	0.01	-0.14
0.97	4.50	2.75	5.50	2.50	4.75	2.75	2.25	7.75	2.00	2.25	1.50	2.25	7.75	1.00	0.50	1.25	-0.173340	0.087891	0.960938	-2.870000	4.060000	1.190000	624.00	-0.04	-0.13	3.00	1.00	3.00	2.25	6.00	4.25	4.25	8.00	1.50	2.50	1.25	2.75	9.50	1.25	1.00	3.75	-0.105957	0.089355	0.982910	-2.800000	0.840000	0.350000	664.00	0.01	-0.14
0.98	4.25	2.50	5.50	2.25	4.75	2.50	2.25	7.75	2.00	2.50	1.25	2.25	7.75	1.00	0.50	1.25	-0.171387	0.080566	0.959473	-3.220000	3.990000	1.120000	613.00	-0.04	-0.13	3.25	1.00	3.00	2.00	5.75	4.50	4.25	7.75	1.50	2.25	1.25	2.50	9.50	1.25	1.00	3.50	-0.106934	0.094238	0.981934	-2.660000	0.700000	0.210000	652.00	0.01	-0.14
0.99	4.50	2.50	5.50	2.25	4.75	2.50	2.00	7.75	1.75	2.50	1.50	2.50	7.75	1.00	0.50	1.50	-0.175781	0.086426	0.962891	-3.780000	3.640000	1.050000	615.00	-0.04	-0.13	2.75	1.00	3.00	2.00	6.00	4.25	4.25	7.75	1.75	2.50	1.25	2.75	9.50	1.25	1.00	3.50	-0.107422	0.090820	0.982422	-2.590000	0.490000	0.210000	656.00	0.01	-0.14
1.00	4.25	2.50	5.50	2.50	4.75	2.50	2.25	7.75	2.25	2.50	1.50	2.25	7.75	1.00	0.50	1.25	-0.176758	0.085449	0.960449	-3.920000	3.850000	0.980000	622.00	-0.03	-0.13	3.00	1.00	2.75	2.25	5.75	4.25	4.25	7.75	1.75	2.00	1.25	2.50	9.50	1.25	1.00	3.25	-0.106445	0.086426	0.982422	-2.660000	0.420000	0.140000	646.00	0.01	-0.14
1.01	4.25	2.75	5.50	2.25	5.00	2.75	2.25	7.75	2.00	2.25	1.50	2.00	8.00	1.00	0.50	1.25	-0.177246	0.081055	0.964355	-3.850000	4.060000	1.050000	621.00	-0.04	-0.13	3.25	1.00	3.00	2.00	6.00	4.25	4.25	7.75	1.50	2.25	1.25	2.50	9.50	1.25	1.00	3.50	-0.101074	0.089844	0.978516	-2.660000	0.700000	0.140000	652.00	0.01	-0.14
1.02	4.25	2.50	5.50	2.25	5.00	2.75	2.25	7.75	2.25	2.50	1.25	2.25	8.00	1.25	0.75	1.50	-0.174316	0.084473	0.958984	-3.640000	4.200000	0.980000	631.00	-0.03	-0.13	3.00	1.00	3.00	2.25	6.00	4.25	4.25	7.75	1.25	2.00	1.25	2.75	9.50	1.00	1.00	3.25	-0.100586	0.084473	0.991211	-2.800000	0.770000	0.070000	645.00	0.00	-0.15
1.03	4.25	3.00	5.50	2.25	5.00	2.75	2.25	7.75	2.25	2.50	1.50	2.50	8.00	1.00	0.25	1.50	-0.170898	0.076172	0.958984	-3.500000	4.130000	1.050000	634.00	-0.04	-0.13	3.50	1.00	3.00	2.25	5.75	4.25	4.25	7.75	1.75	2.25	1.25	2.50	9.25	1.25	1.00	3.50	-0.104492	0.091309	0.981445	-2.730000	0.980000	-0.070000	657.00	0.01	-0.14
1.04	4.75	2.75	5.50	2.50	4.75	2.75	2.25	7.75	2.25	2.50	1.50	2.50	8.00	1.00	0.25	1.50	-0.169434	0.084473	0.961426	-3.500000	4.480000	1.120000	637.00	-0.04	-0.13	3.25	1.25	3.00	1.75	5.75	4.00	4.25	7.75	1.50	2.25	1.25	2.50	9.50	1.25	1.00	3.50	-0.108887	0.089844	0.983887	-2.660000	0.840000	0.070000	646.00	0.01	-0.14
1.05	4.50	2.50	5.50	2.50	5.00	2.75	2.25	7.75	2.25	2.50	1.75	2.25	8.00	0.75	0.50	1.00	-0.180176	0.083984	0.958008	-3.570000	4.550000	1.050000	633.00	-0.04	-0.13	3.25	1.00	3.00	2.25	5.75	4.25	4.25	7.75	1.50	2.00	1.25	2.50	9.25	1.25	0.75	3.25	-0.109375	0.088379	0.979492	-2.870000	1.050000	-0.000000	643.00	0.00	-0.14
1.06	4.25	2.25	5.50	2.00	5.00	2.75	2.25	7.75	2.00	2.75	1.50	2.50	8.00	1.00	0.50	1.50	-0.174805	0.081543	0.962891	-3.500000	4.410000	1.190000	626.00	-0.03	-0.13	3.00	1.25	3.25	2.50	5.75	4.25	4.25	7.75	1.50	2.00	1.25	2.50	9.50	1.00	0.75	3.50	-0.112305	0.088867	0.987305	-2.800000	0.980000	0.070000	650.00	-0.00	-0.15
1.07	4.75	2.75	5.50	2.50	5.00	2.75	2.25	7.75	2.50	2.50	1.25	2.25	8.00	1.00	0.75	1.25	-0.169922	0.083008	0.962402	-3.430000	4.130000	1.260000	642.00	-0.04	-0.12	3.00	1.25	2.75	2.25	6.00	4.25	4.25	7.75	1.50	2.00	1.25	2.25	9.50	1.25	1.00	3.25	-0.105469	0.090332	0.980469	-2.940000	1.050000	0.070000	645.00	0.00	-0.14
1.08	4.50	3.00	5.50	2.50	5.00	3.00	2.25	7.75	2.00	2.75	1.50	2.25	8.00	1.00	0.50	1.00	-0.172363	0.083496	0.958008	-3.640000	4.060000	1.330000	639.00	-0.04	-0.13	2.50	1.00	3.00	2.00	5.75	4.00	4.25	7.75	1.00	2.25	1.25	2.75	9.75	2.25	2.25	4.25	-0.114746	0.087402	0.984375	-2.380000	0.910000	0.210000	664.00	0.03	-0.15
1.09	4.25	2.25	5.50	2.50	5.00	2.75	2.25	7.75	2.50	2.50	1.75	2.00	7.75	0.75	0.50	1.25	-0.177734	0.079102	0.960938	-3.570000	3.710000	1.400000	627.00	-0.03	-0.13	3.00	1.00	2.75	2.00	5.50	4.00	4.00	7.75	1.25	2.00	1.50	2.25	9.50	1.25	1.00	3.25	-0.109863	0.092285	0.986816	-2.030000	0.770000	0.210000	626.00	0.01	-0.15
1.10	4.00	2.00	5.25	1.25	4.75	1.75	2.00	7.50	1.75	2.25	1.25	1.75	7.25	0.00	0.00	0.75	-0.172363	0.081055	0.954590	-3.360000	3.500000	1.470000	538.00	-0.04	-0.13	2.75	1.00	2.75	2.00	5.75	4.25	4.25	7.75	1.00	2.00	1.00	2.25	9.50	1.00	0.75	3.25	-0.114258	0.087891	0.983398	-1.750000	0.630000	0.420000	618.00	0.00	-0.15
1.11	4.50	2.50	5.50	2.50	5.00	2.75	2.25	7.75	2.00	2.50	1.50	2.25	8.25	1.00	0.50	1.50	-0.172363	0.078125	0.962402	-3.080000	3.430000	1.540000	634.00	-0.04	-0.13	2.00	0.25	1.50	1.25	5.25	3.50	4.00	7.50	1.00	1.50	1.25	2.25	9.00	1.00	0.75	3.00	-0.111328	0.095215	0.986816	-1.540000	0.070000	0.560000	546.00	0.03	-0.16
1.12	4.25	2.25	5.50	2.50	5.00	2.75	2.25	7.75	1.50	2.50	1.25	2.00	8.00	0.75	0.00	1.00	-0.173828	0.078613	0.966309	-2.240000	3.570000	1.680000	602.00	-0.05	-0.14	1.75	0.75	1.75	1.25	5.50	3.25	4.00	7.50	1.00	1.75	1.25	2.50	9.00	1.00	1.00	3.50	-0.116699	0.094727	0.987305	-0.840000	-0.420000	0.840000	563.00	0.03	-0.16
1.13	3.25	1.75	5.25	1.25	4.50	1.75	2.00	7.75	1.50	2.00	1.00	2.00	8.00	0.50	0.25	1.00	-0.180176	0.076172	0.970703	0.140000	3.570000	1.960000	538.00	-0.03	-0.15	3.50	1.25	2.75	2.25	5.75	4.50	4.00	7.75	1.00	1.75	1.00	2.50	9.25	1.00	1.00	2.75	-0.123047	0.095215	1.000488	3.570000	-0.140000	1.470000	629.00	-0.01	-0.15
1.14	4.00	2.25	5.25	2.00	4.75	2.50	2.00	7.75	1.50	1.75	0.75	1.25	7.75	0.00	0.00	0.50	-0.177734	0.083496	0.958984	2.940000	3.360000	2.590000	545.00	-0.06	-0.14	2.25	1.00	3.00	2.50	5.75	4.50	4.00	7.75	0.75	1.25	0.75	2.00	9.00	1.00	0.50	2.50	-0.125488	0.099609	0.999512	6.020000	0.420000	2.030000	591.00	-0.01	-0.16
1.15	4.25	2.25	5.25	2.50	4.75	2.75	2.00	7.75	1.00	1.50	0.50	1.25	7.50	0.25	0.00	0.75	-0.180176	0.090820	0.969727	4.410000	2.870000	3.920000	545.00	-0.07	-0.15	3.75	1.75	5.00	3.75	7.00	5.50	4.50	8.25	2.25	2.25	1.75	3.00	10.00	1.75	0.50	2.50	-0.121582	0.097168	0.992676	8.190000	0.420000	2.660000	770.00	-0.02	-0.13
1.16	4.75	2.75	5.50	2.50	4.75	3.00	2.00	7.75	0.75	1.25	0.50	1.00	7.50	0.50	0.00	0.50	-0.190918	0.083984	0.963379	4.900000	2.730000	4.760000	554.00	-0.08	-0.15	3.25	1.75	4.50	3.25	6.75	5.25	4.25	8.25	1.00	1.00	0.50	1.25	8.25	0.50	0.25	1.50	-0.116699	0.101562	1.000488	10.780000	-0.070000	3.080000	639.00	-0.05	-0.14
1.17	5.75	4.25	7.00	4.50	5.25	4.25	2.00	8.00	1.00	1.75	0.50	1.25	7.50	0.50	0.00	0.50	-0.187500	0.083984	0.968750	6.580000	1.680000	5.670000	659.00	-0.10	-0.14	5.25	2.50	5.00	3.50	6.50	5.50	4.25	7.75	0.25	0.75	0.00	1.25	8.00	0.25	0.25	1.25	-0.125977	0.099609	0.991211	14.420000	-0.350000	2.940000	644.00	-0.09	-0.14
1.18	6.25	5.00	7.50	5.25	5.25	4.75	2.00	8.00	1.00	1.25	0.50	1.00	7.00	0.25	0.00	0.25	-0.184570	0.092773	0.973633	10.780000	-0.560000	6.510000	677.00	-0.12	-0.14	4.50	1.50	4.00	3.00	6.00	4.50	3.75	7.50	0.50	1.00	0.25	1.75	7.75	0.25	0.50	1.00	-0.111328	0.106934	0.994141	17.780001	-1.120000	3.150000	591.00	-0.06	-0.14
1.19	8.25	5.75	8.00	6.00	5.25	5.25	2.00	8.00	0.75	1.25	0.25	0.75	6.75	0.00	0.00	0.25	-0.174316	0.086914	0.962891	15.120000	-2.380000	7.140000	714.00	-0.15	-0.13	4.75	1.50	4.25	3.50	5.50	4.50	3.75	7.25	0.25	0.50	0.00	0.75	7.50	0.00	0.25	1.00	-0.102539	0.109863	0.995605	20.020000	-1.960000	3.080000	562.00	-0.08	-0.14
1.20	9.75	6.50	8.50	7.25	5.50	5.50	2.00	8.00	0.50	1.25	0.25	0.50	5.75	0.00	0.00	0.25	-0.170410	0.114258	0.978027	19.110001	-4.620000	7.420000	750.00	-0.17	-0.12	4.75	1.75	4.75	3.25	5.50	4.75	3.75	7.25	0.25	0.75	0.00	0.50	7.00	0.25	0.00	0.75	-0.086914	0.114746	0.983887	21.139999	-5.180000	2.520000	564.00	-0.09	-0.13
1.21	11.00	7.75	8.75	8.00	5.50	5.75	2.00	7.75	0.25	1.25	0.25	0.50	5.25	0.00	0.00	0.25	-0.144531	0.094727	0.958496	22.049999	-5.950000	7.210000	779.00	-0.18	-0.12	6.25	2.50	4.50	4.00	6.00	5.00	3.75	6.75	0.00	0.25	0.00	0.50	6.00	0.00	0.00	0.75	-0.094727	0.120605	0.968262	18.830000	-7.350000	2.520000	574.00	-0.12	-0.13
1.22	12.75	9.00	9.25	8.50	5.25	5.75	1.75	7.75	0.50	0.75	0.00	0.25	5.00	0.00	0.00	0.00	-0.149414	0.111328	0.972656	23.520000	-6.300000	7.000000	805.00	-0.20	-0.11	5.50	2.25	5.00	4.00	5.00	4.50	3.50	6.50	0.00	0.25	0.00	0.25	5.25	0.00	0.25	0.50	-0.116211	0.128418	0.994141	16.170000	-8.190000	2.730000	534.00	-0.12	-0.12
1.23	14.25	9.75	9.50	8.75	5.25	6.25	1.75	7.75	0.25	0.75	0.00	0.00	4.50	0.00	0.00	0.00	-0.150879	0.094238	0.967773	24.850000	-5.950000	7.000000	830.00	-0.21	-0.11	5.50	2.50	5.25	4.25	5.25	4.75	3.50	6.50	0.00	0.00	0.00	0.25	4.25	0.00	0.00	0.50	-0.115234	0.114746	0.995117	17.219999	-9.660000	2.800000	534.00	-0.13	-0.12
1.24	15.25	10.75	9.75	9.00	5.25	6.25	1.75	7.50	0.00	0.50	0.00	0.25	3.25	0.00	0.00	0.25	-0.154297	0.119141	0.975098	26.740000	-6.370000	6.930000	839.00	-0.22	-0.10	5.75	3.00	5.50	4.50	5.00	4.25	3.50	6.25	0.00	0.00	0.00	0.25	4.00	0.00	0.00	0.00	-0.100586	0.125977	0.976562	17.990000	-10.360000	2.800000	529.00	-0.15	-0.11
1.25	16.50	11.75	10.00	9.50	5.00	6.25	1.75	7.50	0.00	0.50	0.00	0.00	2.50	0.00	0.00	0.00	-0.156250	0.122070	0.983887	26.180000	-5.460000	6.790000	858.00	-0.24	-0.10	6.00	3.00	5.50	4.50	5.00	4.25	3.25	6.00	0.00	0.00	0.00	0.00	2.25	0.00	0.00	0.50	-0.113770	0.135254	0.986328	16.030001	-9.870000	3.010000	507.00	-0.16	-0.10
1.26	17.25	12.25	10.25	9.75	5.00	6.50	1.75	7.25	0.00	0.25	0.00	0.00	2.25	0.00	0.00	0.00	-0.171387	0.101562	0.978516	24.500000	-3.640000	6.650000	871.00	-0.24	-0.09	6.25	3.25	5.75	5.00	4.75	4.00	3.50	5.75	0.00	0.00	0.00	0.00	2.50	0.00	0.00	0.50	-0.098145	0.137207	0.994141	15.680000	-9.450000	3.220000	518.00	-0.16	-0.10
1.27	18.25	13.00	10.50	10.25	4.75	6.50	1.75	7.00	0.00	0.25	0.00	0.25	1.75	0.00	0.00	0.00	-0.151855	0.131836	0.970703	22.400000	-3.010000	6.230000	890.00	-0.25	-0.09	6.50	3.50	6.25	5.00	4.75	4.00	3.25	5.50	0.00	0.00	0.00	0.00	1.75	0.00	0.00	0.00	-0.083984	0.127930	0.991211	14.840000	-8.820000	3.010000	511.00	-0.18	-0.09
1.28	18.50	13.25	10.50	10.25	4.75	6.75	1.75	6.75	0.00	0.25	0.00	0.00	0.75	0.00	0.00	0.00	-0.145020	0.135254	0.961426	16.240000	-4.480000	4.900000	882.00	-0.26	-0.08	7.00	3.75	6.50	5.25	4.50	4.00	3.25	5.25	0.00	0.00	0.00	0.00	1.25	0.00	0.00	0.25	-0.097168	0.130859	0.983887	13.580000	-9.310000	2.170000	515.00	-0.18	-0.08
1.29	14.75	13.25	10.00	10.00	4.00	6.25	1.50	5.75	0.00	0.00	0.00	0.00	0.25	0.00	0.00	0.00	-0.145020	0.135254	0.961426	16.240000	-4.480000	4.900000	787.00	-0.26	-0.09	7.00	4.00	6.25	5.25	4.25	3.75	3.25	5.00	0.00	0.00	0.00	0.00	0.75	0.00	0.00	0.25	-0.097168	0.147949	1.003418	14.840000	-10.640000	2.100000	500.00	-0.19	-0.08
1.30	13.00	11.50	8.50	8.75	3.00	5.00	1.25	5.25	0.00	0.00	0.00	0.00	0.00	0.00	0.00	0.00	-0.161621	0.139648	0.996582	12.810000	-6.440000	4.340000	675.00	-0.26	-0.09	8.25	4.25	7.25	5.50	4.00	3.75	3.25	4.75	0.00	0.00	0.00	0.00	1.00	0.00	0.00	0.00	-0.096680	0.153809	0.989746	15.260000	-12.110000	2.170000	525.00	-0.20	-0.07
1.31	13.25	11.50	8.50	9.00	3.00	5.25	1.25	5.00	0.00	0.00	0.00	0.00	0.00	0.00	0.00	0.00	-0.145020	0.149414	0.969238	11.690000	-8.050000	4.200000	680.00	-0.27	-0.09	9.00	5.00	7.25	5.50	3.75	3.50	3.25	4.25	0.00	0.00	0.00	0.00	0.75	0.00	0.00	0.00	-0.070312	0.145020	0.937012	14.280000	-12.460000	2.170000	525.00	-0.21	-0.06
1.32	13.25	11.75	8.75	9.00	2.75	5.00	1.25	5.00	0.00	0.00	0.00	0.00	0.00	0.00	0.00	0.00	-0.145508	0.151855	0.961914	10.570000	-9.030000	3.990000	679.00	-0.27	-0.09	9.00	5.00	7.25	5.50	3.75	3.50	3.25	4.00	0.00	0.00	0.00	0.00	0.50	0.00	0.00	0.00	-0.080566	0.159180	0.954102	11.410000	-11.130000	1.820000	518.00	-0.22	-0.05
1.33	13.75	12.00	8.50	9.00	2.75	5.00	1.25	4.25	0.00	0.00	0.00	0.00	0.00	0.00	0.00	0.00	-0.136719	0.158203	0.917969	9.170000	-8.750000	3.570000	672.00	-0.27	-0.08	7.75	4.25	6.50	5.00	3.25	3.50	3.25	3.50	0.00	0.00	0.00	0.00	0.50	0.00	0.00	0.00	-0.083984	0.150879	0.967285	9.450000	-10.080000	1.750000	467.00	-0.21	-0.05
1.34	21.25	15.75	11.25	11.25	3.50	7.00	1.50	5.25	0.00	0.00	0.00	0.00	0.25	0.00	0.00	0.00	-0.135254	0.146484	0.948730	7.420000	-7.560000	3.430000	911.00	-0.28	-0.07	9.50	5.00	7.50	5.25	3.00	2.50	3.25	3.00	0.00	0.00	0.00	0.00	0.00	0.00	0.00	0.00	-0.088867	0.156250	0.968750	7.980000	-9.520000	1.540000	481.00	-0.23	-0.03
1.35	19.00	15.00	10.25	10.50	3.00	6.25	1.50	5.00	0.00	0.00	0.00	0.00	0.00	0.00	0.00	0.00	-0.129883	0.143555	0.932617	5.880000	-7.560000	3.220000	835.00	-0.28	-0.08	9.25	5.00	7.00	5.50	3.25	2.75	3.25	3.00	0.00	0.00	0.00	0.00	0.00	0.00	0.00	0.00	-0.081055	0.161133	0.960938	6.790000	-9.170000	1.260000	482.00	-0.23	-0.04
1.36	19.00	15.25	10.50	10.50	3.00	6.25	1.50	4.75	0.00	0.00	0.00	0.00	0.25	0.00	0.00	0.00	-0.131836	0.145020	0.958496	4.970000	-5.390000	2.870000	839.00	-0.28	-0.08	11.00	5.75	8.25	6.25	3.25	3.00	3.25	3.00	0.00	0.00	0.00	0.00	0.00	0.00	0.00	0.00	-0.079102	0.158691	0.970215	6.510000	-8.960000	1.120000	536.00	-0.24	-0.03
1.37	19.50	15.25	10.25	11.00	3.00	6.25	1.25	4.75	0.00	0.00	0.00	0.00	0.00	0.00	0.00	0.00	-0.132812	0.147949	0.952637	4.620000	-4.340000	2.660000	841.00	-0.28	-0.08	11.25	6.00	8.00	6.25	3.25	2.75	3.25	2.75	0.00	0.00	0.00	0.00	0.00	0.00	0.00	0.00	-0.072754	0.164551	0.959473	5.740000	-9.240000	1.050000	531.00	-0.24	-0.03
1.38	20.25	15.75	10.75	11.25	2.75	6.25	1.25	4.75	0.00	0.25	0.00	0.00	0.25	0.00	0.00	0.00	-0.169922	0.176758	0.963867	3.780000	-3.990000	2.450000	866.00	-0.28	-0.08	11.25	6.25	8.25	6.50	3.00	2.75	3.25	2.75	0.00	0.00	0.00	0.00	0.50	0.00	0.00	0.00	-0.067871	0.165039	0.948730	4.760000	-8.050000	0.840000	542.00	-0.24	-0.04
1.39	19.50	15.50	10.50	10.75	2.75	6.00	1.50	4.25	0.00	0.00	0.00	0.00	0.00	0.00	0.00	0.00	-0.125000	0.155273	0.930176	2.590000	-1.610000	2.030000	834.00	-0.29	-0.07	11.75	6.00	8.25	6.50	3.00	2.50	3.00	2.75	0.00	0.00	0.00	0.00	0.00	0.00	0.00	0.00	-0.065918	0.172363	0.947266	3.220000	-6.510000	0.910000	533.00	-0.25	-0.03
1.40	19.75	15.50	10.50	10.75	2.75	6.00	1.25	3.75	0.00	0.00	0.00	0.00	0.00	0.00	0.00	0.00	-0.115234	0.159668	0.949707	1.400000	0.560000	1.680000	824.00	-0.29	-0.07	12.25	6.50	8.25	7.00	3.00	2.75	3.25	2.75	0.00	0.00	0.00	0.00	0.25	0.00	0.00	0.00	-0.066895	0.169434	0.954590	1.610000	-4.900000	0.910000	559.00	-0.25	-0.03
1.41	19.50	15.25	10.25	10.50	2.50	6.00	1.25	3.50	0.00	0.00	0.00	0.00	0.00	0.00	0.00	0.00	-0.123047	0.155762	0.927734	-0.140000	2.030000	1.400000	805.00	-0.29	-0.07	12.50	6.75	8.50	7.00	3.00	2.75	3.00	2.75	0.00	0.00	0.00	0.00	0.25	0.00	0.00	0.00	-0.066895	0.168945	0.945801	0.140000	-3.710000	0.910000	563.00	-0.25	-0.03
1.42	19.25	15.00	10.25	10.50	2.50	5.75	1.25	3.50	0.00	0.00	0.00	0.00	0.00	0.00	0.00	0.00	-0.115723	0.161133	0.919434	-2.170000	4.550000	0.840000	797.00	-0.29	-0.07	13.25	6.75	8.50	7.00	3.00	2.75	3.00	2.75	0.00	0.00	0.00	0.00	0.50	0.00	0.00	0.25	-0.062988	0.169434	0.940918	-1.190000	-2.380000	0.630000	576.00	-0.25	-0.03
1.43	19.00	15.00	10.25	10.50	2.50	5.75	1.25	3.50	0.00	0.00	0.00	0.00	0.00	0.00	0.00	0.00	-0.121094	0.159180	0.951172	-4.130000	7.140000	0.560000	794.00	-0.29	-0.07	13.50	7.00	8.50	7.00	3.00	3.00	3.00	2.50	0.00	0.00	0.00	0.00	0.50	0.00	0.00	0.00	-0.071289	0.167969	0.948730	-2.660000	-0.840000	0.350000	578.00	-0.26	-0.03
1.44	18.50	14.75	10.25	10.50	2.25	5.50	1.25	3.50	0.00	0.00	0.00	0.00	0.00	0.00	0.00	0.00	-0.122559	0.153320	0.952637	-5.250000	8.400000	0.420000	780.00	-0.29	-0.07	13.75	7.50	9.00	7.50	3.00	3.00	3.00	2.75	0.00	0.00	0.00	0.00	0.50	0.00	0.00	0.00	-0.064941	0.170410	0.954590	-4.340000	0.560000	0.070000	602.00	-0.26	-0.04
1.45	18.50	14.50	10.00	10.25	2.50	5.50	1.25	3.25	0.00	0.00	0.00	0.00	0.00	0.00	0.00	0.00	-0.122559	0.154785	0.932129	-7.630000	11.550000	-0.350000	770.00	-0.29	-0.07	14.00	7.75	9.00	7.75	3.00	3.00	3.00	2.75	0.00	0.00	0.00	0.00	0.50	0.00	0.00	0.00	-0.069824	0.160645	0.953125	-5.810000	1.820000	-0.210000	611.00	-0.26	-0.04
1.46	18.25	14.50	10.00	10.25	2.50	5.50	1.50	3.00	0.00	0.00	0.00	0.00	0.00	0.00	0.00	0.00	-0.127930	0.151855	0.945801	-8.750000	13.720000	-0.630000	768.00	-0.29	-0.06	14.50	8.00	9.25	8.00	3.00	3.00	3.00	3.00	0.00	0.00	0.00	0.00	0.75	0.00	0.00	0.00	-0.070801	0.167480	0.967773	-6.930000	2.730000	-0.420000	631.00	-0.26	-0.04
1.47	17.75	14.25	10.00	10.25	2.50	5.25	1.25	3.00	0.00	0.00	0.00	0.00	0.00	0.00	0.00	0.00	-0.124023	0.144531	0.931641	-10.010000	16.170000	-1.050000	752.00	-0.29	-0.06	15.00	8.00	9.25	8.25	3.00	3.25	3.25	2.75	0.00	0.00	0.00	0.00	0.75	0.00	0.00	0.00	-0.073730	0.159668	0.964844	-7.700000	3.010000	-0.490000	643.00	-0.26	-0.04
1.48	17.50	14.00	9.75	10.00	2.25	5.00	1.25	3.00	0.00	0.00	0.00	0.00	0.00	0.00	0.00	0.00	-0.126953	0.151855	0.934570	-11.480000	18.969999	-1.540000	735.00	-0.29	-0.06	15.75	8.75	9.50	8.50	3.50	3.75	3.25	3.00	0.00	0.00	0.00	0.00	0.50	0.00	0.00	0.00	-0.070801	0.162598	0.966309	-8.190000	3.150000	-0.490000	679.00	-0.26	-0.04
1.49	17.00	13.50	9.75	9.75	2.50	5.25	1.50	3.00	0.00	0.00	0.00	0.00	0.25	0.00	0.00	0.00	-0.137207	0.143555	0.957031	-12.740000	21.420000	-1.960000	734.00	-0.29	-0.06	16.00	9.00	9.50	9.25	4.00	4.25	3.25	3.25	0.00	0.00	0.00	0.00	0.50	0.00	0.00	0.00	-0.064941	0.163086	0.947266	-11.410000	3.920000	-0.700000	709.00	-0.26	-0.04
1.50	19.00	14.25	10.50	10.25	2.50	5.25	1.50	3.50	0.00	0.00	0.00	0.00	0.50	0.00	0.00	0.00	-0.133301	0.146973	0.934082	-13.650000	23.240000	-2.520000	790.00	-0.29	-0.06	16.50	9.25	10.00	9.25	3.50	4.00	3.25	3.75	0.00	0.00	0.00	0.00	0.50	0.00	0.00	0.00	-0.068848	0.166504	0.944336	-14.910000	5.320000	-0.700000	723.00	-0.26	-0.05
1.51	18.50	13.50	10.25	10.00	2.75	5.00	1.50	3.50	0.00	0.25	0.00	0.00	0.50	0.00	0.00	0.00	-0.125977	0.140625	0.889160	-15.050000	26.320000	-3.360000	773.00	-0.28	-0.06	17.00	9.50	10.00	9.25	3.75	4.50	3.25	3.75	0.00	0.00	0.00	0.00	0.25	0.00	0.00	0.25	-0.073242	0.165527	0.951660	-18.690001	6.790000	-0.980000	739.00	-0.26	-0.05
1.52	15.25	11.50	9.25	9.25	2.50	4.75	1.50	3.75	0.00	0.25	0.00	0.00	0.25	0.00	0.00	0.00	-0.085938	0.141113	0.782715	-18.059999	34.509998	-4.900000	691.00	-0.27	-0.07	17.75	9.75	10.25	9.75	3.75	5.00	3.25	4.00	0.00	0.00	0.00	0.00	0.75	0.00	0.00	0.00	-0.084473	0.156250	0.971680	-22.190001	7.490000	-1.050000	773.00	-0.26	-0.05
1.53	16.00	11.75	9.25	9.00	2.25	4.25	1.50	3.75	0.00	0.00	0.00	0.00	0.00	0.00	0.00	0.00	-0.146484	0.149414	1.007324	-26.460001	48.930000	-6.510000	685.00	-0.28	-0.07	18.50	10.50	10.75	9.75	4.00	5.00	3.25	4.25	0.00	0.00	0.00	0.00	1.00	0.00	0.00	0.00	-0.084961	0.145996	0.973633	-25.270000	7.210000	-0.840000	804.00	-0.26	-0.05
1.54	14.00	10.00	8.75	8.50	2.50	5.00	1.50	4.50	0.00	0.75	0.25	0.00	1.00	0.00	0.00	0.00	-0.304688	0.084961	1.327637	-32.410000	49.070000	-8.540000	678.00	-0.25	-0.08	18.75	11.00	11.00	10.50	5.50	5.25	3.25	4.75	0.00	0.00	0.00	0.00	1.25	0.00	0.00	0.00	-0.099609	0.144531	0.984375	-28.910000	7.560000	-0.840000	856.00	-0.25	-0.06
1.55	11.50	8.75	8.00	7.75	2.50	4.75	1.50	5.00	0.25	0.75	0.50	0.25	1.50	0.00	0.00	0.00	-0.164062	0.112305	1.049316	-34.369999	42.840000	-9.940000	638.00	-0.23	-0.09	19.25	11.75	11.50	11.00	5.25	5.50	3.50	5.25	0.00	0.00	0.00	0.00	1.50	0.00	0.00	0.00	-0.112305	0.122559	1.015137	-32.060001	6.860000	-0.630000	896.00	-0.25	-0.06
1.56	8.75	7.25	7.00	6.25	2.00	4.00	1.50	5.50	0.50	1.00	0.50	0.25	2.50	0.00	0.00	0.00	-0.154785	0.120605	1.002441	-39.900002	42.840000	-11.060000	571.00	-0.20	-0.11	20.25	12.00	11.75	11.25	5.50	5.75	3.50	5.75	0.00	0.00	0.00	0.00	1.50	0.00	0.00	0.00	-0.092285	0.115723	0.975098	-33.040001	6.160000	-0.490000	930.00	-0.25	-0.06
1.57	7.00	5.50	6.25	5.25	2.00	3.00	1.50	5.50	0.50	1.25	0.75	0.50	3.25	0.00	0.00	0.00	-0.143066	0.114258	1.104004	-41.930000	44.029999	-11.760000	516.00	-0.17	-0.12	20.75	13.25	12.25	11.75	5.75	6.50	3.75	6.00	0.00	0.00	0.00	0.00	2.25	0.00	0.00	0.00	-0.091797	0.126465	0.961426	-37.799999	7.070000	-0.350000	988.00	-0.25	-0.07
1.58	5.50	5.00	5.50	3.50	1.75	2.25	1.50	5.50	0.75	1.75	1.00	0.75	3.50	0.00	0.00	0.25	-0.067871	0.206543	1.262695	-18.340000	39.480000	-9.940000	471.00	-0.14	-0.12	20.50	13.50	12.75	12.50	6.25	7.00	3.75	6.50	0.00	0.25	0.00	0.00	2.50	0.00	0.00	0.25	-0.096680	0.121094	0.971191	-44.450001	7.700000	-0.000000	1029.00	-0.24	-0.07
1.59	5.25	4.00	5.00	3.25	1.50	2.00	1.50	5.00	1.25	1.50	0.75	1.00	2.50	0.00	0.00	0.00	-0.132324	0.145996	1.228027	35.070000	76.090004	-14.630000	428.00	-0.13	-0.10	22.50	17.25	15.00	12.75	7.75	9.00	4.25	7.50	1.50	1.25	0.50	0.50	4.75	1.25	1.25	1.25	-0.097656	0.122070	0.998535	-46.830002	5.250000	0.210000	1284.00	-0.20	-0.07
1.60	3.00	1.25	3.25	1.75	0.75	0.25	1.25	3.75	0.50	1.50	0.75	0.50	2.00	0.00	0.00	0.50	-0.135254	0.421875	1.873535	82.669998	177.309998	-33.250000	263.00	-0.09	-0.11	27.25	15.50	13.75	14.25	7.50	8.75	4.25	7.50	0.50	1.00	0.25	0.50	4.00	1.00	0.25	1.00	-0.081543	0.119629	1.018555	-44.869999	-1.610000	0.560000	1275.00	-0.22	-0.07
1.61	4.00	3.00	3.75	2.00	1.00	0.50	1.25	3.00	0.75	1.25	0.50	0.25	1.75	0.00	0.00	0.50	-0.417480	0.380371	1.666992	56.420002	232.259995	-50.189999	287.00	-0.14	-0.08	28.50	20.00	16.25	16.00	8.25	9.00	4.25	7.75	1.50	1.50	0.75	1.00	5.50	1.25	1.25	1.50	-0.097168	0.107910	1.016602	-31.360001	-7.210000	0.070000	1464.00	-0.21	-0.07
1.62	3.00	2.00	3.25	1.75	0.75	0.25	1.25	2.25	0.25	1.00	0.50	0.00	1.50	0.00	0.00	0.25	-0.000488	0.322266	2.135742	22.190001	270.549988	-64.680000	221.00	-0.14	-0.08	30.00	21.00	15.75	16.25	9.25	9.50	4.50	7.75	1.00	1.00	0.50	1.00	5.75	1.25	1.00	1.00	-0.081055	0.109863	1.009766	-24.430000	-7.630000	-0.210000	1491.00	-0.22	-0.07
1.63	2.50	2.00	2.75	1.75	1.00	0.00	1.25	1.50	0.00	0.75	0.50	0.00	0.25	0.00	0.00	0.00	-0.003906	0.550293	2.001953	-22.330000	287.980011	-79.590004	177.00	-0.18	-0.04	23.75	21.75	17.50	17.50	9.50	10.25	4.75	8.25	0.75	1.00	1.00	1.25	6.25	1.50	1.50	1.50	-0.081055	0.101074	1.009277	-19.740000	-6.580000	-0.420000	1509.00	-0.20	-0.08
1.64	2.75	1.50	2.75	1.00	0.75	0.00	1.25	1.00	0.50	0.75	0.25	0.00	0.25	0.00	0.00	0.00	-0.195312	0.707520	1.967773	-36.540001	288.820007	-94.080002	159.00	-0.16	0.01	28.00	20.75	17.25	18.25	10.75	10.75	4.75	8.50	1.75	1.75	0.75	1.00	6.50	1.50	1.50	1.25	-0.075195	0.091309	1.002930	-15.820000	-5.530000	-0.630000	1596.00	-0.20	-0.08
1.65	2.25	2.25	3.00	1.50	1.00	0.00	1.50	0.50	0.00	0.50	0.25	0.00	0.00	0.00	0.00	0.00	0.267578	0.844238	2.377441	-31.780001	274.890015	-104.230003	156.00	-0.21	0.01	32.25	22.75	18.25	18.50	11.25	11.25	4.75	8.50	1.75	1.75	0.75	1.25	6.50	1.25	1.25	1.25	-0.076660	0.097168	1.005859	-11.970000	-3.990000	-0.840000	1690.00	-0.21	-0.07
1.66	2.50	2.00	2.50	1.50	0.75	0.00	1.25	0.25	0.00	0.50	0.25	0.00	0.25	0.00	0.00	0.00	2.184570	1.710449	1.919922	-71.610001	234.639999	-94.220001	142.00	-0.21	0.01	32.25	22.75	18.25	18.75	11.50	11.00	5.00	8.50	1.75	1.75	1.00	1.50	6.50	1.50	1.25	1.25	-0.072754	0.088867	1.009277	-8.680000	-2.030000	-0.770000	1705.00	-0.21	-0.07
1.67	2.00	2.00	2.75	1.25	0.75	0.00	1.50	0.00	0.25	0.75	0.00	0.00	0.00	0.00	0.00	0.00	1.513672	1.384277	1.717285	-83.790001	168.910004	-43.400002	137.00	-0.20	0.05	32.00	22.75	18.25	18.50	11.75	11.50	5.00	8.75	1.75	1.75	1.00	1.50	6.75	1.50	1.50	1.50	-0.074219	0.085938	0.997559	-5.460000	-0.140000	-0.630000	1719.00	-0.21	-0.07
1.68	2.50	2.00	2.50	1.25	0.75	0.00	1.50	0.25	0.00	0.50	0.00	0.00	0.00	0.00	0.00	0.00	2.604492	1.499023	1.535156	-35.000000	109.410004	-8.050000	137.00	-0.22	0.03	31.75	22.50	18.00	18.25	12.00	11.50	5.00	8.50	2.25	2.00	0.75	1.50	6.75	1.50	1.25	1.50	-0.071289	0.088867	1.000488	-2.520000	1.890000	-0.490000	1710.00	-0.20	-0.07
1.69	2.25	1.75	2.25	1.00	0.75	0.00	1.50	0.00	0.25	0.50	0.25	0.00	0.25	0.00	0.00	0.00	2.470703	0.876953	0.969727	4.060000	63.700001	6.510000	131.00	-0.18	0.05	31.25	22.00	18.00	18.25	11.75	11.25	5.00	8.75	2.00	2.00	0.75	1.25	7.00	1.75	1.00	1.50	-0.076660	0.096680	1.000977	-0.420000	4.200000	-0.630000	1693.00	-0.20	-0.07
1.70	1.75	1.50	2.00	1.00	0.75	0.00	1.50	0.25	0.25	0.50	0.00	0.00	0.00	0.00	0.00	0.00	2.706543	0.422363	0.730957	18.270000	33.389999	-0.210000	118.00	-0.18	0.05	30.50	21.50	17.75	18.00	11.75	11.25	5.00	8.75	1.75	2.00	1.00	1.25	7.00	1.50	1.25	1.50	-0.065918	0.093262	0.994141	1.050000	6.440000	-0.910000	1674.00	-0.20	-0.07
1.71	2.00	1.50	2.00	1.00	0.50	0.00	1.25	0.25	0.00	0.75	0.00	0.00	0.25	0.00	0.00	0.00	2.704590	0.237793	0.875000	23.799999	6.230000	-17.010000	116.00	-0.19	0.02	29.50	20.75	17.25	17.50	11.50	10.75	5.00	8.75	2.00	1.75	0.75	1.50	7.00	1.75	1.50	1.25	-0.072754	0.096191	0.983398	1.330000	8.050000	-1.050000	1638.00	-0.20	-0.07
1.72	2.00	1.25	1.50	0.75	0.50	0.00	1.50	0.00	0.00	0.75	0.00	0.00	0.00	0.00	0.00	0.00	2.660156	0.101562	0.950195	30.100000	-28.350000	-35.000000	102.00	-0.18	0.07	28.75	19.75	16.75	17.00	11.25	11.00	5.00	8.75	1.75	1.75	0.50	1.50	7.00	1.50	1.25	1.50	-0.073242	0.098633	0.984375	0.280000	9.240000	-1.400000	1597.00	-0.20	-0.07
1.73	1.50	1.00	1.75	0.75	0.50	0.00	1.50	0.00	0.00	0.50	0.00	0.00	0.00	0.00	0.00	0.00	2.498047	0.020508	1.062988	40.180000	-64.959999	-49.139999	94.00	-0.18	0.07	27.25	18.25	16.50	16.25	11.00	10.75	5.00	8.75	1.75	1.75	0.75	1.50	7.50	1.75	1.50	1.50	-0.083984	0.095215	0.978516	-1.680000	9.520000	-1.750000	1560.00	-0.19	-0.08
1.74	1.75	1.75	1.75	0.50	0.25	0.00	1.50	0.00	0.00	0.25	0.00	0.00	0.00	0.00	0.00	0.00	1.964844	-0.015137	1.357910	68.739998	-125.160004	-53.689999	95.00	-0.21	0.06	26.00	17.50	15.75	15.75	10.75	10.50	4.75	8.75	1.75	2.00	0.75	1.25	7.50	1.50	1.50	1.50	-0.084961	0.097656	0.976074	-3.080000	8.680000	-1.750000	1511.00	-0.19	-0.08
1.75	1.75	1.25	1.75	0.75	0.50	0.00	1.50	0.00	0.00	0.50	0.00	0.00	0.00	0.00	0.00	0.00	1.635742	-0.020020	1.556152	80.779999	-149.309998	-39.759998	99.00	-0.19	0.07	25.00	15.75	15.25	15.00	10.50	10.25	4.75	8.75	1.75	1.75	0.75	1.50	7.50	1.50	1.50	1.50	-0.083984	0.097168	0.969238	-5.040000	7.350000	-1.890000	1461.00	-0.18	-0.08
1.76	2.25	1.25	1.50	0.50	0.50	0.00	1.25	0.00	0.00	0.50	0.00	0.00	0.00	0.00	0.00	0.00	1.289062	-0.005859	1.739258	85.820000	-172.059998	-15.400000	95.00	-0.21	0.07	24.00	14.50	14.75	14.50	10.50	10.00	4.75	8.75	2.00	2.00	1.25	1.75	7.50	1.75	1.25	1.75	-0.086914	0.084961	0.966309	-6.930000	5.670000	-1.890000	1438.00	-0.17	-0.08
1.77	1.50	1.25	1.75	0.50	0.50	0.00	1.50	0.00	0.25	0.75	0.00	0.00	0.00	0.00	0.00	0.00	0.912109	0.037598	1.915039	85.959999	-192.009995	15.820000	100.00	-0.15	0.08	23.00	13.50	14.50	14.00	10.25	10.25	5.00	8.50	2.25	2.00	1.00	1.50	7.50	1.50	1.50	1.50	-0.079590	0.087402	0.964844	-9.030000	3.500000	-1.960000	1404.00	-0.17	-0.08
1.78	1.75	1.25	1.50	0.75	0.25	0.00	1.25	0.00	0.00	0.50	0.00	0.00	0.00	0.00	0.00	0.00	0.531738	0.147461	2.164062	85.540001	-211.050003	50.540001	89.00	-0.20	0.06	22.00	12.75	14.00	13.75	10.25	10.00	5.00	8.75	2.25	2.00	1.25	1.50	8.00	1.75	1.50	1.75	-0.089844	0.088867	0.973145	-10.640000	1.330000	-1.890000	1389.00	-0.16	-0.08
1.79	2.00	1.25	1.25	0.50	0.25	0.00	1.50	0.00	0.00	0.25	0.00	0.00	0.00	0.00	0.00	0.00	0.145020	0.282715	2.386230	83.580002	-232.330002	86.519997	87.00	-0.21	0.08	21.00	11.75	13.75	13.25	10.50	10.00	5.00	8.75	2.00	2.00	1.25	1.75	8.00	1.75	1.50	1.75	-0.088379	0.082520	0.971191	-11.970000	-1.120000	-1.820000	1361.00	-0.16	-0.08
1.80	0.75	0.75	1.50	0.25	0.25	0.00	1.50	0.00	0.00	0.25	0.00	0.00	0.00	0.00	0.00	0.00	-0.229492	0.328613	2.481934	75.180000	-256.619995	121.940002	68.00	-0.15	0.10	20.25	11.00	13.75	13.00	11.00	9.75	5.00	8.75	2.25	2.25	1.25	2.00	8.25	2.00	1.50	1.75	-0.080078	0.086426	0.968750	-13.160000	-3.360000	-2.100000	1358.00	-0.15	-0.08
1.81	1.50	1.25	1.00	0.25	0.50	0.00	1.50	0.00	0.00	0.25	0.00	0.00	0.00	0.00	0.00	0.00	-0.578125	0.403320	2.396973	57.540001	-276.149994	151.690002	78.00	-0.18	0.09	19.50	10.50	13.50	12.75	11.25	10.00	5.25	9.00	2.00	2.50	1.25	2.00	8.25	2.25	1.50	2.00	-0.078613	0.087891	0.967285	-14.070000	-5.320000	-2.590000	1356.00	-0.14	-0.08
1.82	1.25	0.50	0.75	0.00	0.25	0.00	1.25	0.00	0.00	0.50	0.00	0.00	0.00	0.00	0.00	0.00	-0.868652	0.497559	2.212891	32.340000	-283.640015	171.080002	58.00	-0.13	0.12	19.25	9.75	13.75	12.00	11.75	10.00	5.25	9.00	2.50	2.25	1.50	2.25	8.75	2.25	1.75	2.00	-0.072754	0.079590	0.975586	-14.350000	-7.070000	-2.870000	1364.00	-0.14	-0.08
1.83	1.00	0.50	0.75	0.00	0.25	0.00	1.50	0.00	0.00	0.25	0.00	0.00	0.00	0.00	0.00	0.00	-1.062012	0.625977	2.075195	10.010000	-276.920013	178.220001	56.00	-0.12	0.14	18.50	9.25	13.50	12.00	12.25	10.00	5.25	9.00	2.75	2.75	1.75	2.25	9.25	2.00	1.75	2.25	-0.078613	0.081055	0.978027	-14.070000	-8.260000	-3.150000	1369.00	-0.13	-0.08
1.84	1.00	0.75	1.25	0.00	0.25	0.00	1.25	0.00	0.00	0.50	0.00	0.00	0.00	0.00	0.00	0.00	-1.215332	0.771973	1.993164	-4.200000	-264.250000	178.220001	63.00	-0.14	0.11	17.75	8.75	13.25	11.50	13.00	10.25	5.50	9.25	2.75	3.25	2.00	2.50	9.50	2.25	1.50	2.50	-0.071289	0.078125	0.987793	-12.880000	-8.540000	-3.360000	1381.00	-0.12	-0.08
1.85	0.25	0.00	1.00	0.25	0.50	0.00	1.50	0.00	0.00	0.50	0.00	0.00	0.00	0.00	0.00	0.00	-1.387695	0.833496	1.915039	-7.490000	-251.790009	178.500000	54.00	-0.05	0.14	17.00	8.25	13.00	11.50	13.25	10.25	5.50	9.25	3.00	3.50	2.00	2.75	10.00	2.75	1.75	2.50	-0.063965	0.071777	0.983398	-8.890000	-6.720000	-3.990000	1389.00	-0.11	-0.08
1.86	1.00	0.75	1.00	0.00	0.25	0.00	1.50	0.00	0.25	0.25	0.00	0.00	0.00	0.00	0.00	0.00	-1.623047	0.793945	1.770020	3.290000	-240.309998	183.399994	65.00	-0.12	0.13	16.00	7.75	12.75	10.50	13.50	10.50	5.75	9.50	3.00	3.75	2.50	3.25	10.50	3.00	2.00	3.00	-0.062988	0.064453	0.980957	-6.160000	-4.830000	-4.130000	1399.00	-0.10	-0.08
1.87	0.75	0.50	1.00	0.00	0.25	0.00	1.25	0.00	0.25	0.50	0.25	0.00	0.00	0.00	0.00	0.00	-1.860840	0.622559	1.655273	22.400000	-225.540009	192.289993	61.00	-0.07	0.12	15.50	7.00	12.25	10.00	13.75	10.50	5.75	9.75	3.75	4.50	3.00	3.75	10.75	3.00	2.25	3.25	-0.061523	0.072754	0.980957	-3.430000	-2.170000	-4.410000	1419.00	-0.08	-0.08
1.88	0.75	0.50	1.25	0.25	0.25	0.00	1.50	0.00	0.00	0.25	0.25	0.00	0.00	0.00	0.00	0.00	-2.454102	0.166016	1.165039	8.890000	-195.160004	208.740005	65.00	-0.11	0.10	13.75	6.50	11.75	9.50	14.00	10.50	6.00	9.75	4.00	5.75	3.50	4.50	11.25	3.25	2.25	4.00	-0.068848	0.077148	0.995117	-0.700000	1.470000	-4.690000	1433.00	-0.07	-0.09
1.89	0.75	0.50	1.25	0.25	0.50	0.00	1.50	0.00	0.25	0.75	0.00	0.00	0.00	0.00	0.00	0.00	-3.049316	0.094238	0.659668	-21.910000	-183.259995	198.520004	75.00	-0.08	0.12	12.50	6.25	11.25	8.75	14.00	10.25	6.25	10.00	4.25	7.00	4.25	5.00	11.75	3.25	2.50	4.75	-0.070312	0.075195	0.993164	2.240000	5.950000	-5.110000	1450.00	-0.05	-0.09
1.90	0.75	0.50	1.00	0.00	0.50	0.00	1.50	0.00	0.00	0.50	0.25	0.00	0.00	0.00	0.00	0.00	-4.156250	0.128418	0.082520	-29.049999	-176.470001	160.020004	65.00	-0.08	0.12	10.50	5.75	10.25	8.00	14.00	10.25	6.25	10.25	5.00	8.00	5.50	6.00	12.50	3.75	2.75	5.00	-0.056641	0.091309	1.005859	4.620000	11.270000	-5.390000	1470.00	-0.03	-0.09
1.91	1.00	0.25	1.00	0.50	0.50	0.00	1.50	0.00	0.25	0.50	0.00	0.00	0.00	0.00	0.00	0.00	-4.780273	-0.149414	-0.601562	6.860000	-159.320007	97.160004	72.00	-0.10	0.11	9.25	5.25	9.25	7.50	13.50	10.00	6.25	10.25	5.75	8.50	6.50	7.25	13.00	4.50	3.25	6.25	-0.056641	0.067871	0.994141	7.280000	16.660000	-5.740000	1490.00	-0.00	-0.09
1.92	1.00	0.75	1.25	0.25	0.25	0.00	1.25	0.00	0.00	0.50	0.25	0.00	0.00	0.00	0.00	0.00	-4.637207	-0.773438	-0.922852	61.389999	-112.489998	28.910000	69.00	-0.13	0.08	8.25	5.00	8.25	6.75	13.00	9.75	6.25	10.50	6.50	9.25	7.75	8.00	13.75	5.00	4.00	7.75	-0.013184	0.056152	1.010254	10.010000	22.680000	-6.090000	1522.00	0.02	-0.10
1.93	0.75	0.50	1.00	0.25	0.50	0.00	1.50	0.00	0.25	0.25	0.00	0.00	0.00	0.00	0.00	0.00	-4.043457	-1.251953	-0.633789	78.050003	-42.630001	-28.980000	66.00	-0.10	0.12	7.75	4.50	7.75	6.50	12.00	9.25	6.25	10.50	7.25	10.25	8.25	8.75	14.25	5.50	4.25	8.75	-0.037109	0.085938	1.047852	13.440001	30.520000	-6.650000	1539.00	0.03	-0.10
1.94	1.00	0.00	1.00	0.25	0.25	0.00	1.50	0.00	0.25	0.50	0.00	0.00	0.00	0.00	0.00	0.00	-3.348633	-1.174805	-0.048340	24.920000	23.660000	-69.370003	63.00	-0.08	0.14	7.00	4.00	7.00	6.00	11.00	9.00	6.25	10.50	7.75	10.75	9.00	9.25	15.00	6.50	5.00	9.75	-0.042969	0.110352	1.039551	15.330000	39.619999	-8.610000	1553.00	0.05	-0.10
1.95	1.00	0.75	1.00	0.25	0.50	0.00	1.25	0.00	0.00	0.75	0.00	0.00	0.00	0.00	0.00	0.00	-2.811035	-0.489258	0.541504	-63.910000	64.610001	-91.489998	69.00	-0.13	0.09	6.50	3.75	6.50	5.75	9.50	8.75	6.00	10.50	8.25	11.50	9.50	9.50	15.75	7.50	6.00	11.00	-0.085449	0.098633	1.066895	15.400000	49.349998	-10.360000	1571.00	0.07	-0.10
1.96	0.75	0.00	1.00	0.25	0.50	0.00	1.25	0.00	0.25	0.50	0.00	0.00	0.00	0.00	0.00	0.00	-2.469727	0.339844	0.774414	-121.660004	79.239998	-97.930000	60.00	-0.07	0.14	6.25	3.50	5.75	5.50	8.50	8.25	5.75	10.25	8.75	12.00	10.00	10.25	16.00	8.00	7.00	12.50	-0.057617	0.095215	1.156250	26.180000	68.529999	-13.860000	1581.00	0.08	-0.10
1.97	2.25	1.00	2.00	0.75	0.75	0.00	1.50	0.00	0.00	0.25	0.00	0.00	0.00	0.00	0.00	0.00	0.968750	0.359375	2.968262	-103.739998	155.330002	-140.490005	105.00	-0.21	0.08	5.50	2.25	3.00	4.50	7.75	6.75	5.25	10.00	9.00	12.50	10.00	10.25	15.00	7.75	6.75	13.25	-0.148438	0.119141	1.204590	44.310001	107.730003	-21.070000	1475.00	0.10	-0.10
1.98	3.75	2.50	2.50	1.50	0.75	0.00	1.50	0.00	0.00	0.25	0.00	0.00	0.00	0.00	0.00	0.00	1.594727	1.043457	0.971680	-86.590004	113.190002	-123.059998	153.00	-0.26	0.04	5.00	1.50	3.25	3.50	5.75	6.50	4.75	9.00	8.25	12.00	9.75	9.75	15.00	8.50	7.50	14.00	-0.156250	0.120117	1.312012	77.000000	134.680008	-25.760000	1396.00	0.12	-0.11
1.99	5.25	4.25	3.50	2.50	0.75	0.00	1.25	0.00	0.00	0.25	0.00	0.00	0.00	0.00	0.00	0.00	0.539062	1.376953	0.078613	-93.099998	91.910004	-82.529999	207.00	-0.29	0.01	2.50	1.25	3.25	3.50	5.25	6.25	4.00	8.75	8.25	11.75	10.00	10.50	15.50	9.25	8.25	15.00	-0.132324	0.178223	1.395508	128.309998	178.779999	-30.240000	1374.00	0.14	-0.12
2.00	7.50	5.25	4.00	3.00	0.75	0.00	1.25	0.00	0.00	0.00	0.00	0.00	0.00	0.00	0.00	0.00	-0.253906	1.330566	-0.651855	-72.379997	152.740005	-35.209999	252.00	-0.31	0.01	3.75	1.25	2.50	3.75	4.50	7.00	3.75	8.75	8.75	12.50	10.25	10.50	15.00	9.75	8.75	16.00	-0.139160	0.103027	1.517578	123.340004	195.020004	-32.340000	1408.00	0.14	-0.11
2.01	8.25	6.00	4.50	3.25	0.75	0.00	1.25	0.00	0.00	0.25	0.00	0.00	0.00	0.00	0.00	0.00	-0.679199	1.058594	1.349609	-28.070000	237.790009	16.100000	280.00	-0.31	0.01	3.25	0.00	2.50	3.00	4.00	5.75	3.25	8.00	8.00	11.50	9.50	10.75	14.75	10.50	9.00	16.75	-0.336914	0.233887	1.295410	115.500000	217.630005	-34.439999	1323.00	0.16	-0.12
2.02	10.75	8.00	5.25	4.50	0.50	0.00	1.25	0.00	0.00	0.00	0.00	0.00	0.00	0.00	0.00	0.00	-0.513184	0.213867	2.324707	-1.890000	232.610001	52.290001	347.00	-0.33	-0.00	3.50	0.75	2.25	2.75	3.25	5.75	3.00	7.75	7.75	11.25	9.25	9.75	14.00	11.00	9.50	17.25	-0.266602	0.324707	1.472168	106.820000	258.089996	-41.790001	1296.00	0.16	-0.11
2.03	13.25	9.75	6.25	5.50	0.50	0.00	1.25	0.25	0.00	0.00	0.00	0.00	0.25	0.00	0.00	0.00	-0.323730	-1.176758	1.179688	-37.380001	161.839996	1.050000	423.00	-0.33	-0.01	3.25	0.75	2.50	2.75	2.50	5.50	2.75	7.50	7.50	11.00	9.25	10.00	13.25	11.25	10.00	17.75	-0.230469	0.396973	1.585449	94.150002	287.140015	-49.070000	1276.00	0.16	-0.11
2.04	16.00	11.50	7.50	7.25	0.75	0.00	1.25	0.00	0.00	0.00	0.00	0.00	0.00	0.00	0.00	0.00	-0.400391	-0.601562	1.193848	-5.040000	171.220001	-35.840000	505.00	-0.34	-0.01	3.25	0.50	3.00	2.50	2.25	5.25	2.75	7.00	7.00	10.50	8.75	8.75	12.00	11.25	11.00	19.00	-0.308105	0.451660	1.561035	83.720001	299.320007	-57.189999	1237.00	0.17	-0.11
2.05	18.50	13.50	8.25	8.50	1.00	0.25	1.25	0.25	0.00	0.00	0.00	0.00	0.00	0.00	0.00	0.00	-0.413574	0.791504	1.949219	42.630001	182.139999	-47.459999	588.00	-0.34	-0.02	4.50	1.50	1.50	1.50	1.50	5.00	2.75	6.75	6.50	10.00	8.50	8.50	11.50	11.00	10.00	17.25	-0.316895	0.416016	1.245605	65.519997	315.420013	-71.120003	1167.00	0.16	-0.11
2.06	20.75	15.75	9.50	10.00	1.50	2.25	1.50	1.25	0.00	0.00	0.00	0.00	1.00	0.00	0.00	0.00	-0.651367	1.185059	2.378906	-1.470000	134.050003	-22.820000	729.00	-0.31	-0.04	2.50	0.75	1.75	2.00	1.75	4.75	2.50	6.50	6.00	9.75	8.00	8.00	11.00	10.75	10.00	16.50	-0.334473	0.534668	1.447266	48.790001	345.100006	-89.180000	1105.00	0.17	-0.11
2.07	22.25	16.50	10.75	10.75	2.00	3.75	1.50	2.75	0.00	0.00	0.00	0.00	1.00	0.00	0.00	0.00	-0.541992	0.487793	1.810059	-31.710001	66.290001	-4.130000	826.00	-0.30	-0.05	2.75	0.50	1.75	1.75	1.25	4.00	2.75	5.75	5.50	9.25	7.75	7.50	10.25	10.50	9.75	15.00	-0.432129	0.558105	1.718262	25.340000	372.470001	-112.349998	1036.00	0.18	-0.11
2.08	22.75	17.00	11.00	11.00	2.25	5.25	1.50	3.25	0.00	0.00	0.00	0.00	0.75	0.00	0.00	0.00	-0.094238	0.032227	0.996582	-45.639999	41.930000	-0.210000	870.00	-0.30	-0.06	2.75	0.50	1.75	1.50	0.75	3.00	2.50	5.00	5.25	9.00	8.00	7.75	9.75	10.25	9.25	12.75	-0.791504	1.045898	1.852539	0.070000	405.160004	-139.860001	972.00	0.18	-0.10
2.09	21.75	16.50	11.25	11.25	2.50	5.50	1.50	4.50	0.00	0.25	0.00	0.00	0.75	0.00	0.00	0.00	-0.045410	0.037598	0.906738	-43.540001	41.369999	-1.260000	889.00	-0.29	-0.07	2.50	0.25	1.25	1.75	0.75	2.00	2.50	4.00	4.00	8.50	6.50	5.75	8.00	8.00	8.00	10.25	-0.919922	0.821289	2.615723	-38.360001	457.589996	-189.210007	804.00	0.18	-0.10
2.10	21.00	15.75	11.50	11.50	2.75	6.75	1.50	6.00	0.00	0.00	0.25	0.00	2.50	0.00	0.00	0.00	-0.263184	0.140625	1.228516	-36.119999	23.309999	-3.430000	939.00	-0.27	-0.09	2.50	1.00	2.00	2.50	1.25	2.75	3.00	4.00	5.00	8.75	7.00	6.50	8.00	7.75	8.00	8.75	-1.176758	1.087402	2.530762	-68.110001	466.830017	-196.770004	874.00	0.16	-0.09
2.11	20.00	15.75	10.75	9.75	2.25	5.75	1.50	5.75	0.00	0.00	0.00	0.00	0.75	0.00	0.00	0.00	-0.192383	0.181641	1.075195	-29.469999	8.890000	-2.100000	856.00	-0.28	-0.08	3.75	1.50	2.25	2.75	1.25	2.50	2.75	2.75	4.50	7.75	5.75	5.25	7.25	6.00	6.75	7.00	-1.223145	1.035156	3.603516	-67.129997	442.679993	-205.029999	776.00	0.13	-0.08
2.12	15.00	13.50	9.50	10.00	2.50	6.50	1.50	6.75	0.00	0.00	0.00	0.00	1.25	0.00	0.00	0.00	-0.121094	0.158691	0.936035	-33.389999	9.100000	-0.840000	798.00	-0.25	-0.10	3.50	1.50	2.50	2.25	1.00	2.50	2.75	2.00	4.00	6.25	4.25	3.75	5.75	4.75	5.50	5.25	-0.685547	1.194336	2.799805	-78.959999	411.529999	-211.539993	645.00	0.12	-0.06
2.13	15.25	13.50	9.50	10.00	2.75	7.25	1.50	7.25	0.00	0.00	0.00	0.00	1.00	0.00	0.00	0.00	-0.176270	0.123535	1.042969	-39.759998	9.660000	-1.470000	818.00	-0.25	-0.11	3.50	1.25	2.50	2.50	1.00	2.25	3.00	1.75	3.00	5.00	3.25	3.00	4.00	3.50	4.75	3.75	-0.090820	1.429688	2.488770	-85.750000	407.190002	-222.389999	548.00	0.09	-0.05
2.14	15.75	13.75	9.75	10.25	3.25	8.50	1.50	7.50	0.00	0.25	0.00	0.00	2.25	0.00	0.00	0.00	-0.131348	0.108398	1.063965	-32.200001	7.840000	-1.120000	872.00	-0.24	-0.11	4.25	1.75	2.50	3.25	1.00	2.50	3.00	2.00	3.25	4.00	2.50	2.25	4.25	2.50	3.75	3.25	0.280273	1.588379	2.120605	-96.320000	406.070007	-248.009995	532.00	0.05	-0.06
2.15	21.50	14.00	11.75	11.50	4.75	9.25	1.75	8.50	0.00	1.00	0.50	0.50	5.00	0.00	0.00	0.00	-0.112793	0.083008	0.998047	-18.690001	7.700000	0.140000	1073.00	-0.23	-0.11	4.50	1.50	3.25	2.75	1.50	2.25	3.25	1.75	2.50	3.25	2.00	2.00	3.50	2.25	3.25	3.00	0.270020	1.829102	2.703613	-84.349998	362.459991	-252.210007	494.00	0.03	-0.05
2.16	23.00	18.00	10.00	10.50	3.50	8.25	1.50	8.00	0.00	0.00	0.00	0.00	3.75	0.00	0.00	0.00	-0.123047	0.129395	0.986816	-10.920000	7.910000	0.910000	1023.00	-0.26	-0.10	4.50	1.75	3.00	3.00	1.50	2.00	3.50	1.75	2.00	2.25	1.75	2.00	3.00	1.50	2.50	2.25	0.655273	2.812500	2.719727	-58.799999	284.200012	-231.630005	451.00	0.00	-0.05
2.17	18.00	13.50	9.50	10.25	3.75	8.50	1.50	9.00	0.00	0.50	0.00	0.00	4.50	0.00	0.00	0.00	-0.108887	0.119629	0.946777	-9.800000	8.820000	0.560000	947.00	-0.23	-0.12	4.25	1.50	3.25	2.75	1.25	2.00	3.50	1.50	2.00	2.50	1.75	1.75	2.50	2.00	2.75	2.25	1.856445	2.388672	4.562500	0.840000	142.800003	-163.029999	441.00	0.01	-0.04
2.18	14.75	13.50	9.75	11.00	3.75	8.50	1.50	8.75	0.00	0.00	0.00	0.00	5.50	0.00	0.00	0.00	-0.106934	0.134277	0.948242	-10.290000	8.750000	0.000000	922.00	-0.22	-0.13	4.50	1.75	2.75	3.00	1.50	2.00	3.25	1.25	2.00	2.50	1.50	1.75	2.75	1.50	0.50	1.50	1.800781	1.346680	2.139160	12.740000	-18.830000	-105.139999	403.00	-0.03	-0.03
2.19	14.25	12.75	9.25	10.00	3.50	9.00	1.75	9.50	0.50	0.75	0.00	0.25	8.25	0.00	0.00	0.25	-0.102051	0.109375	0.963379	-10.920000	8.890000	-0.630000	956.00	-0.19	-0.14	4.25	1.75	2.75	3.00	1.25	1.25	3.50	1.50	2.25	2.50	1.75	1.25	2.75	1.75	2.00	1.75	1.643555	1.272461	1.955078	-35.209999	-103.250000	-65.449997	418.00	0.00	-0.03
2.20	19.50	12.50	9.00	10.00	3.75	9.00	1.50	9.50	0.00	0.25	0.00	0.25	8.00	0.00	0.00	0.00	-0.128906	0.111816	1.012207	-11.550000	9.940000	-1.260000	992.00	-0.21	-0.13	4.00	1.75	2.50	2.75	1.25	1.75	3.50	1.00	1.75	2.25	1.50	1.25	2.50	1.75	1.75	1.75	1.497559	1.192871	1.023438	-59.220001	-137.130005	-33.389999	389.00	-0.00	-0.03
2.21	12.25	11.25	8.75	9.50	3.50	9.00	1.75	10.50	0.00	0.25	0.25	0.50	8.50	0.00	0.00	0.00	-0.136719	0.126953	0.989258	-6.300000	10.780000	-2.170000	917.00	-0.18	-0.16	4.25	1.50	2.75	2.75	1.25	1.50	3.25	1.25	1.75	2.00	1.25	1.50	2.00	1.50	1.50	1.75	1.373047	1.312012	0.792480	-23.590000	-150.080002	14.630000	377.00	-0.02	-0.03
2.22	11.50	10.50	8.50	9.25	3.25	8.75	1.50	10.25	0.00	1.25	0.50	0.75	8.75	0.00	0.00	0.00	-0.134277	0.123047	0.971680	-2.870000	12.180000	-2.520000	900.00	-0.17	-0.16	4.00	1.50	2.50	2.75	1.50	1.25	3.25	1.00	1.75	1.75	1.25	1.00	1.50	1.25	1.25	1.50	1.279297	1.242188	0.831055	12.250000	-161.630005	40.810001	347.00	-0.03	-0.01
2.23	11.00	9.75	8.25	9.25	3.25	9.00	1.50	10.00	0.00	1.00	0.75	1.25	9.25	0.00	0.00	0.00	-0.134766	0.138184	0.966309	-1.820000	13.230000	-3.150000	893.00	-0.17	-0.17	3.50	1.00	2.25	2.50	1.25	1.50	3.25	1.00	1.50	1.75	1.00	1.00	1.50	1.25	1.50	1.25	1.148438	1.081055	0.913086	33.670002	-177.520004	70.769997	325.00	-0.01	-0.02
2.24	9.75	8.50	8.00	8.50	3.50	8.75	1.50	10.00	0.00	0.75	0.50	1.75	9.50	0.00	0.00	0.00	-0.134277	0.130371	0.973145	-2.170000	14.700000	-3.570000	857.00	-0.16	-0.17	4.00	1.50	2.50	2.50	1.00	1.50	3.25	1.00	1.75	1.75	1.00	1.00	2.00	1.25	1.50	1.50	1.008789	0.950195	0.985840	36.889999	-196.210007	103.180000	345.00	-0.02	-0.02
2.25	8.25	7.75	7.25	7.75	2.75	8.50	1.50	10.00	0.00	0.75	0.75	2.00	9.50	0.00	0.00	0.25	-0.137695	0.115723	0.970215	-2.170000	16.030001	-3.570000	809.00	-0.14	-0.18	3.25	1.00	2.25	2.25	1.00	0.75	3.25	0.75	1.25	1.50	1.00	1.00	1.50	1.00	1.00	1.50	0.854980	0.837891	1.039062	30.170000	-216.930008	135.309998	290.00	-0.02	-0.01
2.26	7.50	7.00	6.75	7.50	2.75	8.25	1.50	10.25	0.00	1.00	1.25	2.50	10.00	0.00	0.00	0.25	-0.151855	0.097656	0.973145	-0.280000	16.590000	-3.150000	804.00	-0.13	-0.19	3.25	1.00	2.00	2.00	0.75	1.00	3.25	0.75	1.00	1.25	0.75	0.75	0.75	0.75	1.00	1.00	0.701660	0.743164	1.053711	23.940001	-237.649994	162.539993	259.00	-0.04	0.00
2.27	7.00	6.25	6.25	6.75	2.25	8.25	1.50	10.50	0.00	1.25	1.75	3.25	10.50	0.00	0.00	0.50	-0.138672	0.093750	0.961426	3.430000	16.870001	-2.450000	798.00	-0.11	-0.20	2.00	0.25	1.00	1.25	0.50	0.00	3.25	0.25	0.75	1.25	0.50	0.50	1.00	1.25	1.25	1.25	0.552734	0.685059	1.093262	24.639999	-256.269989	182.210007	195.00	0.05	0.04
2.28	8.25	6.75	7.25	7.75	2.75	8.50	1.50	10.25	0.00	1.75	2.25	4.25	10.75	0.00	0.00	1.00	-0.142578	0.110352	0.959961	7.350000	16.730000	-2.100000	874.00	-0.11	-0.19	3.25	1.25	2.00	2.50	1.00	1.00	3.25	0.75	1.25	1.50	0.50	1.00	1.75	1.25	1.50	1.50	0.408203	0.607910	1.181641	30.730000	-274.049988	194.809998	300.00	-0.01	-0.02
2.29	5.00	3.75	5.00	5.25	2.25	8.75	1.50	11.75	1.00	2.25	3.00	4.75	10.75	0.00	0.00	1.00	-0.146484	0.111328	0.959473	10.850000	16.660000	-2.030000	806.00	-0.05	-0.21	3.75	1.25	2.50	2.50	1.00	1.50	3.25	1.00	1.25	1.50	1.00	1.00	1.75	1.25	1.25	1.25	0.266602	0.496582	1.252930	39.130001	-292.529999	201.110001	323.00	-0.03	-0.02
2.30	6.25	5.25	5.75	6.00	2.50	9.25	1.75	12.00	1.00	2.25	3.50	6.00	12.75	0.25	0.50	2.25	-0.141602	0.119141	0.965820	12.600000	16.660000	-1.890000	925.00	-0.05	-0.21	3.50	1.25	2.00	2.25	0.75	0.50	3.25	0.50	0.75	0.50	0.00	0.00	0.00	0.50	0.25	0.00	0.111816	0.399414	1.308594	46.480000	-310.100006	201.809998	204.00	-0.13	0.05
2.31	5.75	4.50	5.50	5.25	2.25	9.00	1.50	12.00	1.25	2.00	3.50	7.25	13.25	0.25	0.75	2.75	-0.152344	0.128418	0.960938	13.370000	16.799999	-1.960000	916.00	-0.04	-0.21	1.50	0.00	0.50	1.00	0.00	0.00	3.00	0.00	0.00	0.00	0.00	0.00	0.00	0.00	0.00	0.00	-0.056152	0.315918	1.358887	50.470001	-324.940002	197.539993	84.00	-0.09	0.14
2.32	5.00	3.50	5.25	5.00	2.00	8.75	1.50	12.00	1.25	2.75	4.00	7.50	13.50	0.25	0.75	3.00	-0.148438	0.129883	0.957520	13.300000	16.870001	-2.660000	906.00	-0.02	-0.22	1.25	0.25	0.75	1.00	0.00	0.00	3.00	0.00	0.00	0.00	0.00	0.00	0.00	0.00	0.00	0.00	-0.327637	0.250977	1.404785	52.150002	-335.790009	189.350006	87.00	-0.10	0.13
2.33	4.75	2.75	4.75	4.00	2.00	8.75	1.50	12.00	1.25	2.75	5.00	7.75	14.00	0.00	0.75	3.50	-0.146484	0.134277	0.951660	12.390000	17.010000	-3.500000	897.00	-0.01	-0.22	1.25	0.00	0.00	0.75	0.00	0.00	3.00	0.00	0.00	0.00	0.00	0.00	0.00	0.00	0.00	0.00	-0.416016	0.193848	1.601562	53.970001	-343.420013	159.669998	73.00	-0.06	0.16
2.34	3.75	2.50	4.25	2.25	1.75	8.50	1.50	12.00	1.50	3.00	6.00	8.25	14.25	0.50	1.00	4.25	-0.157715	0.144043	0.954102	11.340000	17.639999	-5.180000	888.00	0.02	-0.22	1.75	0.00	0.75	1.00	0.00	0.00	3.00	0.00	0.00	0.00	0.00	0.00	0.00	0.00	0.00	0.00	-0.493164	0.188965	1.770020	54.040001	-345.519989	141.119995	90.00	-0.11	0.14
2.35	2.50	2.00	3.25	2.00	1.75	8.50	1.50	12.00	1.50	3.25	6.75	8.50	14.75	0.25	1.25	5.25	-0.154785	0.145020	0.962402	9.870000	18.200001	-7.490000	879.00	0.04	-0.23	3.50	1.50	2.00	2.25	1.00	0.75	3.25	0.75	1.25	1.00	0.50	0.50	0.50	0.75	0.75	0.75	-0.602539	0.227539	1.898926	53.970001	-347.970001	121.870003	258.00	-0.06	0.02
2.36	2.00	2.00	3.25	2.00	1.75	8.00	1.50	12.00	1.50	3.50	7.25	9.00	15.00	0.50	1.50	6.00	-0.141113	0.159180	0.954590	5.600000	19.180000	-9.730000	894.00	0.05	-0.23	2.50	0.75	0.75	1.25	0.00	0.00	3.00	0.00	0.00	0.00	0.00	0.00	0.00	0.25	0.75	0.50	-0.727051	0.277344	2.006836	55.160000	-347.130005	103.389999	123.00	-0.10	0.08
2.37	1.50	1.25	2.25	1.00	1.25	7.75	1.50	11.75	1.75	4.25	7.50	9.25	15.25	1.00	1.75	6.50	-0.147461	0.164551	0.938477	-0.700000	19.740000	-12.950000	874.00	0.08	-0.23	3.25	1.50	2.25	2.75	1.00	1.00	3.50	0.75	1.25	1.00	0.50	0.50	1.00	1.00	1.25	1.00	-0.902832	0.433105	2.153320	58.450001	-341.950012	88.480003	286.00	-0.05	0.00
2.38	1.00	1.25	2.50	1.25	1.50	7.50	1.50	11.50	2.75	4.75	7.75	9.25	15.50	1.25	2.00	7.00	-0.153809	0.165527	0.916016	-6.720000	19.110001	-15.890000	904.00	0.09	-0.22	0.00	0.00	0.00	0.00	0.00	0.00	3.00	0.00	0.00	0.00	0.00	0.00	0.00	0.00	0.00	0.00	-1.030762	0.550781	2.320801	59.779999	-336.209991	81.340004	49.00	0.00	0.00
2.39	0.75	1.25	1.75	1.25	1.50	7.25	1.50	11.50	3.50	6.00	8.00	9.50	15.50	1.75	2.75	7.50	-0.162109	0.172852	0.930176	-14.210000	18.059999	-17.710001	936.00	0.11	-0.21	0.00	0.00	0.00	0.00	0.00	0.00	3.00	0.00	0.00	0.00	0.00	0.00	0.00	0.00	0.00	0.00	-1.174805	0.668945	2.479492	54.740002	-331.029999	82.180000	49.00	0.00	0.00
2.40	0.75	1.00	1.75	0.75	1.50	7.00	1.50	11.25	5.00	7.50	8.50	9.75	15.50	2.75	3.00	8.25	-0.165527	0.154297	0.935059	-18.340000	17.150000	-20.020000	984.00	0.12	-0.19	0.25	0.00	0.00	0.25	0.00	0.00	3.00	0.00	0.00	0.00	0.00	0.00	0.00	0.00	0.00	0.00	-1.360840	0.792480	2.631836	45.150002	-326.549988	91.489998	55.00	0.04	0.21
2.41	0.00	0.75	1.25	0.75	1.50	6.50	1.50	11.00	6.25	8.00	9.00	10.00	15.75	3.75	3.75	8.75	-0.190918	0.111816	0.954102	-16.520000	17.010000	-21.000000	1012.00	0.14	-0.18	2.75	1.25	1.75	2.25	1.00	1.00	3.50	0.75	1.25	1.00	0.50	0.50	1.00	1.00	1.25	1.00	-1.600098	0.957031	2.724609	34.160000	-323.329987	108.290001	266.00	-0.03	0.00
2.42	0.75	1.00	1.25	0.75	1.50	6.25	1.50	11.00	7.50	8.75	9.25	10.50	16.00	5.00	5.25	9.25	-0.209961	0.106934	0.990723	-4.970000	21.280001	-20.860001	1089.00	0.15	-0.17	2.00	0.75	1.25	1.25	0.75	1.00	3.25	0.75	0.75	1.00	0.00	0.00	0.00	0.00	0.00	0.50	-1.888672	1.116211	2.696777	25.900000	-322.700012	129.779999	172.00	-0.07	0.04
2.43	0.50	1.00	1.25	0.75	1.50	6.25	1.25	11.00	8.00	9.25	9.75	11.00	16.50	6.25	5.75	10.00	-0.184570	0.088379	1.010742	9.730000	30.870001	-19.460001	1133.00	0.16	-0.16	3.00	1.25	1.75	2.25	1.00	1.00	3.25	0.50	1.25	1.25	0.50	0.50	1.25	1.00	1.25	0.75	-2.253418	1.260742	2.538574	26.110001	-324.450012	154.699997	264.00	-0.03	0.01
2.44	0.25	1.00	1.25	0.75	1.25	6.00	1.25	10.75	8.75	9.75	10.25	11.25	17.00	7.25	6.50	11.00	-0.178223	0.090820	1.028320	27.020000	42.910000	-17.920000	1174.00	0.17	-0.16	3.00	1.50	2.25	2.25	1.00	1.00	3.25	0.75	1.25	1.25	0.75	0.50	1.50	1.00	1.50	1.00	-3.056152	1.373047	2.045410	37.240002	-325.709991	180.250000	286.00	-0.03	-0.01
2.45	0.50	1.00	0.50	0.50	1.00	5.75	1.25	10.75	9.00	10.25	10.75	11.50	17.25	8.00	7.00	12.00	-0.184082	0.125977	1.053711	47.320000	57.119999	-16.940001	1197.00	0.18	-0.16	2.75	1.25	2.25	2.25	1.00	1.00	3.50	0.75	1.00	1.00	0.50	0.50	1.75	1.00	1.00	1.00	-3.458008	1.390137	1.732910	74.129997	-310.029999	222.669998	272.00	-0.03	-0.01
2.46	0.00	0.25	0.25	0.50	0.50	5.50	1.00	10.50	9.25	10.50	11.00	12.00	17.75	8.75	7.50	13.25	-0.207031	0.108398	1.066895	68.389999	73.919998	-15.260000	1204.00	0.19	-0.16	3.00	1.50	2.25	2.25	1.25	1.75	3.50	0.75	1.00	1.25	0.75	0.50	1.25	1.00	1.25	1.00	-3.718262	1.144531	1.182129	95.690002	-290.640015	240.449997	294.00	-0.04	-0.01
2.47	0.25	0.25	0.50	0.25	0.75	5.25	1.00	10.50	9.75	11.00	11.50	12.50	18.00	9.75	8.00	14.50	-0.216797	0.147949	1.063477	80.010002	93.379997	-12.740000	1256.00	0.19	-0.15	3.50	1.25	2.25	2.25	1.25	1.25	3.50	0.75	1.25	1.00	0.50	0.75	1.00	1.25	1.00	0.75	-4.292969	0.284668	0.701660	177.029999	-253.259995	261.589996	287.00	-0.04	0.01
2.48	0.25	0.00	0.00	0.25	0.25	5.25	1.00	10.25	9.50	11.00	11.75	13.00	18.50	10.25	8.75	15.50	-0.266602	0.163574	1.133789	88.480003	132.440002	-6.790000	1266.00	0.20	-0.15	3.50	1.25	2.00	2.25	1.00	1.00	3.25	0.75	1.25	1.25	0.50	0.75	1.50	1.00	1.00	0.75	-6.837891	-1.238281	0.592773	302.959991	-224.490005	300.649994	279.00	-0.04	-0.00
2.49	0.00	0.50	0.00	0.00	0.00	5.00	0.75	10.00	9.75	11.25	11.75	13.00	18.75	11.00	9.25	16.50	-0.278809	0.171387	1.236328	95.900002	154.070007	-4.340000	1278.00	0.21	-0.15	3.00	1.25	2.25	2.25	1.00	1.00	3.50	0.75	1.25	1.25	0.50	0.75	1.75	1.25	1.25	1.00	-8.040039	-3.148926	-0.202637	266.910004	-166.529999	320.739990	290.00	-0.02	-0.00
2.50	0.00	0.00	0.00	0.00	0.00	4.25	0.75	9.75	9.50	11.00	12.00	13.25	18.75	11.75	9.50	17.50	-0.289551	0.209961	1.237305	98.980003	176.470001	-3.920000	1275.00	0.22	-0.15	3.50	1.50	2.25	2.50	1.50	1.00	3.25	1.00	1.00	1.00	0.50	0.50	2.00	1.00	1.25	1.00	-7.937012	-3.859375	-2.014160	79.660004	-14.070000	252.699997	298.00	-0.05	-0.02
2.51	0.00	0.00	0.25	0.00	0.00	3.75	0.75	9.50	9.25	10.75	12.25	13.50	18.75	12.00	10.25	18.25	-0.360840	0.328125	1.353516	99.050003	203.139999	-3.780000	1283.00	0.22	-0.15	4.00	2.00	2.75	3.00	1.25	1.00	3.25	0.75	1.00	1.00	0.50	1.00	1.75	1.00	0.75	0.75	-7.045410	-2.738770	-3.070801	-79.099998	215.110001	71.260002	310.00	-0.08	-0.02
2.52	0.00	1.00	0.00	0.25	0.00	4.00	0.75	9.25	8.75	10.50	12.00	13.25	18.50	12.00	10.75	19.00	-0.405762	0.450684	1.278320	112.000000	235.130005	-10.150000	1284.00	0.22	-0.15	4.25	2.50	3.25	3.50	1.25	1.00	3.25	1.00	0.50	0.00	0.00	0.00	0.00	0.00	0.00	0.00	-1.605957	-1.516113	1.080566	-171.639999	448.489990	-127.260002	259.00	-0.19	0.00
2.53	0.00	0.00	0.00	0.00	0.00	2.25	0.75	8.75	8.50	10.25	12.00	13.50	18.00	12.00	11.00	19.50	-0.393555	0.495605	1.423828	121.940002	270.269989	-23.730000	1239.00	0.23	-0.15	5.50	2.75	3.75	3.50	1.50	1.00	3.25	0.75	0.50	0.75	0.75	0.75	1.25	0.75	1.00	1.00	0.189453	0.038086	4.774902	-249.619995	433.720001	-203.139999	343.00	-0.12	-0.02
2.54	0.00	0.00	0.00	0.00	0.00	2.25	0.75	9.00	7.75	9.50	11.75	13.25	17.50	11.50	11.25	19.25	-0.371094	0.569824	1.483887	130.550003	304.010010	-42.770000	1210.00	0.23	-0.16	6.25	4.25	4.25	3.75	1.00	0.50	3.00	0.50	0.00	0.25	0.25	0.75	1.00	0.50	1.00	0.50	-0.384766	1.274414	3.654785	-209.440002	204.680008	-163.309998	329.00	-0.18	-0.02
2.55	0.00	0.00	0.00	0.00	0.00	2.00	0.50	8.75	7.25	9.25	11.75	12.75	17.00	11.00	11.00	19.00	-0.416504	0.605957	1.670898	130.130005	342.160004	-64.680000	1170.00	0.23	-0.16	9.00	7.00	5.25	4.75	0.75	0.00	2.75	0.00	0.00	0.00	0.00	0.00	0.00	0.00	0.00	0.00	-1.089844	0.414551	0.680664	-182.630005	159.250000	-103.809998	348.00	-0.29	0.01
2.56	0.00	0.00	0.00	0.00	0.00	1.75	0.75	8.50	6.75	9.25	11.50	12.50	16.00	10.25	11.00	18.25	-0.416992	0.653320	1.729980	128.169998	384.230011	-88.970001	1133.00	0.23	-0.16	11.75	9.25	5.50	6.75	0.50	0.00	2.75	0.00	0.00	0.00	0.00	0.25	0.00	0.00	0.00	0.25	-0.799316	0.551270	2.370605	-95.830002	270.130005	-68.949997	430.00	-0.30	-0.01
2.57	0.00	0.00	0.00	0.00	0.00	1.75	0.75	8.00	6.00	8.75	11.25	12.00	15.00	9.00	10.75	16.25	-0.449219	0.797852	2.049316	119.139999	433.720001	-109.760002	1064.00	0.23	-0.16	15.50	12.00	7.00	7.75	0.75	0.25	2.75	0.50	0.00	0.00	0.00	0.00	0.00	0.00	0.00	0.00	-1.089844	0.370605	3.698730	-124.250000	247.940002	-27.860001	540.00	-0.31	-0.01
2.58	0.00	0.00	0.00	0.00	0.00	0.75	0.75	7.50	5.50	8.75	11.25	11.50	13.75	7.50	9.50	13.50	-0.748047	0.487793	3.020508	93.870003	496.790009	-132.860001	974.00	0.23	-0.16	21.75	17.75	9.75	12.00	1.50	3.50	3.00	2.75	0.00	0.00	0.00	0.25	1.50	0.00	0.00	0.25	-0.636719	0.296387	1.768066	-160.930008	119.279999	-13.090000	861.00	-0.29	-0.06
2.59	0.00	0.00	0.00	0.00	0.00	0.00	0.75	6.00	4.75	8.00	10.25	10.25	12.25	5.50	7.75	9.50	-1.143555	1.216797	2.975098	78.820000	558.109985	-143.289993	819.00	0.23	-0.16	25.00	18.50	12.75	13.25	2.75	6.50	3.50	5.75	0.00	0.00	0.00	0.25	2.50	0.00	0.25	0.50	-0.385254	0.076172	2.088867	-186.199997	82.110001	-4.830000	1080.00	-0.26	-0.07
2.60	0.00	0.00	0.00	0.00	0.00	0.00	0.75	3.75	3.50	7.25	9.00	9.00	10.50	3.75	6.00	7.25	-1.438965	1.026855	5.052734	97.650002	606.760010	-139.020004	660.00	0.23	-0.16	26.25	19.75	14.25	14.50	5.00	7.50	3.50	7.50	1.00	0.50	0.50	0.50	3.50	0.00	0.00	0.25	-0.233887	0.002930	1.324219	-150.009995	40.880001	-3.220000	1241.00	-0.24	-0.08
2.61	0.00	0.00	0.00	0.00	0.00	0.00	0.75	2.00	3.00	5.50	7.75	7.75	8.50	2.00	4.50	5.50	-2.217773	0.567383	5.365234	138.880005	604.099976	-118.510002	512.00	0.23	-0.15	26.75	19.75	15.00	15.25	6.00	8.50	3.75	7.50	0.25	0.50	0.50	0.50	4.25	0.00	0.25	0.50	-0.143066	0.038574	1.218750	-115.360001	8.330000	-2.380000	1294.00	-0.24	-0.08
2.62	0.00	0.00	0.00	0.00	0.00	0.00	1.00	1.50	2.25	4.25	6.00	6.00	7.00	0.75	2.75	3.75	-1.260254	0.815430	4.417480	146.229996	597.239990	-98.980003	387.00	0.22	-0.16	26.25	19.75	15.75	15.25	6.75	8.75	4.00	8.00	0.50	0.75	0.50	0.75	5.25	0.25	0.50	0.75	-0.119629	0.108398	1.145996	-72.590004	-7.910000	-0.070000	1347.00	-0.23	-0.08
2.63	0.00	0.00	0.00	0.00	0.00	0.00	1.00	1.00	1.75	3.25	4.25	4.75	5.25	1.00	2.00	2.25	0.576660	1.142090	3.002930	180.669998	514.640015	-133.350006	294.00	0.22	-0.14	24.50	18.75	16.25	14.75	7.25	9.00	4.50	8.75	0.75	1.25	0.50	1.00	5.75	0.00	0.50	0.75	-0.105469	0.092285	1.041992	-40.670002	-13.020000	0.210000	1362.00	-0.22	-0.08
2.64	0.00	0.00	0.00	0.00	0.00	0.00	1.00	0.50	0.75	3.25	3.50	3.75	3.50	0.00	0.75	1.25	1.368164	1.251953	3.757812	222.110001	497.980011	-153.089996	205.00	0.21	-0.14	27.50	22.50	18.50	18.50	9.25	11.00	4.75	9.00	2.25	2.00	1.50	2.25	8.50	1.25	1.50	2.50	-0.085449	0.109863	1.029785	-24.710001	-13.650000	-1.260000	1677.00	-0.19	-0.08
2.65	0.00	0.00	0.00	0.00	0.00	0.00	1.25	0.50	0.75	2.00	2.25	1.75	1.75	0.00	0.50	0.50	1.194824	0.589844	4.110840	256.690002	425.809998	-206.779999	134.00	0.19	-0.09	30.00	22.50	18.50	18.50	9.75	11.50	5.00	9.50	2.25	2.00	1.75	2.25	8.75	1.50	1.75	2.50	-0.100586	0.132812	1.043945	-14.070000	-10.080000	-2.170000	1740.00	-0.19	-0.08
2.66	0.00	0.00	0.25	0.25	0.00	0.00	1.25	0.00	0.75	2.00	2.00	1.50	1.50	0.25	0.25	0.50	0.789062	2.158691	4.195312	275.589996	316.820007	-269.779999	123.00	0.18	-0.05	28.75	21.25	18.00	17.75	10.25	11.75	5.00	9.75	2.25	2.25	1.75	2.75	9.25	1.50	1.75	2.75	-0.062500	0.098633	1.014648	-7.420000	-3.640000	-1.960000	1726.00	-0.18	-0.09
2.67	0.00	0.00	0.75	0.00	0.00	0.00	1.25	0.00	0.25	2.25	1.75	1.25	1.50	0.00	0.25	0.50	3.294922	0.532715	4.131836	194.180008	29.820000	-249.059998	113.00	0.16	-0.05	27.00	19.75	17.50	17.25	10.50	11.75	5.00	10.00	2.50	2.25	2.00	2.75	9.50	1.50	2.00	2.75	-0.074707	0.123535	1.012695	-3.430000	1.120000	-1.890000	1698.00	-0.17	-0.09
2.68	0.00	0.00	0.50	0.00	0.00	0.00	1.25	0.00	0.25	2.00	1.75	1.25	1.00	0.00	0.00	0.50	1.906738	0.711914	3.416504	81.410004	-181.229996	-177.449997	100.00	0.17	-0.04	25.25	18.25	16.75	16.75	10.50	11.75	5.00	10.00	2.50	2.25	1.75	3.25	10.00	1.50	2.00	3.00	-0.061035	0.112793	0.990723	-2.310000	5.180000	-2.170000	1657.00	-0.16	-0.09
2.69	0.25	0.00	0.50	0.00	0.00	0.00	1.25	0.00	0.00	2.00	1.75	0.25	0.50	0.00	0.00	0.00	1.448242	0.531738	2.541016	-44.730000	-302.890015	-121.870003	80.00	0.13	0.02	23.75	16.25	16.00	15.75	10.50	11.25	5.00	10.00	2.50	2.50	2.00	3.25	10.25	1.75	2.00	3.25	-0.070312	0.123047	0.992188	-3.080000	11.970000	-4.340000	1605.00	-0.15	-0.09
2.70	0.00	0.25	0.50	0.00	0.00	0.00	1.50	0.00	0.25	1.75	1.25	0.00	0.25	0.00	0.25	0.00	1.136230	0.773926	1.620117	-122.430000	-350.559998	-86.590004	76.00	0.13	0.07	21.25	13.75	15.00	14.50	10.25	10.75	5.00	10.00	2.50	2.50	2.00	3.50	10.50	1.75	2.25	3.50	-0.065918	0.111816	0.995605	-2.660000	14.840000	-4.410000	1525.00	-0.14	-0.10
2.71	0.00	0.00	0.50	0.00	0.00	0.00	1.25	0.00	0.50	1.75	1.00	0.00	0.25	0.00	0.00	0.00	0.889648	0.999512	1.105957	-155.610001	-359.660004	-62.510002	68.00	0.14	0.09	18.75	11.50	13.75	13.25	10.00	10.50	4.75	10.00	2.75	2.75	2.50	3.75	10.50	1.75	2.50	4.25	-0.062012	0.112793	1.002930	-1.890000	17.710001	-4.550000	1456.00	-0.12	-0.10
2.72	0.00	0.00	0.25	0.00	0.00	0.00	1.25	0.00	0.50	1.75	1.25	0.25	0.25	0.00	0.00	0.00	0.732910	1.012207	0.770508	-136.919998	-350.700012	-47.950001	70.00	0.17	0.07	16.75	9.25	12.25	11.75	9.50	10.00	5.00	10.00	2.50	2.75	2.50	3.75	10.75	1.75	2.00	3.75	-0.062012	0.100586	0.997070	-0.560000	20.230000	-4.620000	1356.00	-0.11	-0.10
2.73	0.00	0.00	0.00	0.00	0.00	0.00	1.25	0.00	0.75	1.00	1.00	0.00	0.00	0.00	0.00	0.00	0.671387	1.109863	0.679688	-81.410004	-336.000000	-38.150002	54.00	0.18	0.14	14.25	7.75	11.25	10.75	9.25	9.50	5.00	10.00	2.75	2.75	2.25	4.00	10.75	1.75	2.50	4.25	-0.073242	0.095703	0.996582	2.240000	21.700001	-4.620000	1292.00	-0.09	-0.11
2.74	0.00	0.25	0.25	0.00	0.00	0.00	1.25	0.00	0.25	1.50	0.75	0.00	0.25	0.00	0.00	0.00	0.548828	1.068848	0.738281	-11.340000	-328.440002	-26.809999	58.00	0.12	0.08	11.00	6.50	9.25	8.00	8.75	9.00	4.75	9.75	2.50	2.00	2.50	4.00	11.00	1.75	2.25	5.00	-0.074707	0.122559	0.998047	4.620000	22.400000	-4.830000	1160.00	-0.07	-0.12
2.75	0.00	0.00	0.00	0.00	0.00	0.00	1.25	0.00	0.25	1.25	0.75	0.00	0.00	0.00	0.00	0.00	0.423828	0.949219	0.920410	54.740002	-331.100006	-9.100000	47.00	0.00	0.00	8.25	5.25	8.00	7.50	8.00	8.25	4.50	9.50	2.50	2.75	2.50	4.00	10.00	0.50	1.00	3.75	-0.086426	0.127930	0.984863	5.740000	23.309999	-5.880000	1035.00	-0.07	-0.13
2.76	0.25	0.00	0.50	0.00	0.00	0.00	1.25	0.00	0.00	1.25	0.75	0.00	0.00	0.00	0.00	0.00	0.294434	0.802734	1.125977	101.570000	-343.910004	16.940001	52.00	0.08	0.11	6.25	3.50	6.75	5.75	6.25	6.50	4.25	8.75	1.00	2.75	2.00	3.00	10.75	1.75	2.75	5.00	-0.108887	0.130859	0.980469	6.720000	23.309999	-7.630000	907.00	-0.03	-0.14
2.77	0.00	0.00	0.25	0.00	0.00	0.00	1.25	0.00	0.50	1.00	0.50	0.00	0.00	0.00	0.00	0.00	-0.002930	0.450684	1.326172	107.800003	-374.500000	82.879997	48.00	0.00	0.00	5.50	2.75	5.25	4.50	5.75	7.00	4.00	9.00	1.25	2.00	2.25	3.50	10.75	1.00	1.00	4.50	-0.080566	0.134766	0.970215	5.950000	23.030001	-8.470000	831.00	-0.03	-0.15
2.78	0.00	0.00	0.25	0.00	0.00	0.00	1.50	0.00	0.50	1.00	0.50	0.00	0.00	0.00	0.00	0.00	-0.163574	0.338379	1.328125	80.849998	-382.549988	112.840004	52.00	0.14	0.16	5.50	2.50	5.50	4.50	5.25	6.25	4.00	8.75	1.25	2.25	2.00	3.50	10.50	0.75	1.50	4.75	-0.089844	0.125977	0.974121	4.900000	22.260000	-9.450000	815.00	-0.03	-0.15
2.79	0.00	0.00	0.25	0.00	0.00	0.00	1.25	0.00	0.50	1.00	0.50	0.00	0.00	0.00	0.00	0.00	-0.283691	0.337402	1.327148	52.849998	-383.390015	135.660004	48.00	0.00	0.00	5.00	2.00	4.75	4.25	5.00	5.75	3.75	8.50	1.50	2.00	2.25	3.75	10.75	1.00	1.50	5.25	-0.109375	0.121094	0.974121	4.690000	21.490000	-10.430000	789.00	-0.01	-0.16
2.80	0.00	0.00	0.00	0.00	0.00	0.00	1.25	0.00	0.25	1.00	0.50	0.00	0.00	0.00	0.00	0.00	-0.402344	0.396484	1.372559	36.259998	-382.269989	153.300003	41.00	0.00	0.00	4.50	1.75	4.50	3.50	4.50	5.50	3.75	8.50	1.75	2.50	2.50	4.00	11.00	1.00	1.75	5.50	-0.108398	0.126465	1.003906	8.120000	20.299999	-10.290000	782.00	0.00	-0.16
2.81	0.00	0.00	0.25	0.00	0.00	0.00	1.25	0.00	0.00	1.25	0.25	0.00	0.00	0.00	0.00	0.00	-0.505371	0.426758	1.467285	33.250000	-380.799988	167.930008	41.00	0.00	0.00	4.00	1.25	3.50	3.50	3.75	5.25	3.75	8.50	1.75	2.50	2.75	4.50	11.00	1.00	2.00	6.00	-0.114258	0.122559	0.994629	8.820000	20.719999	-10.920000	762.00	0.02	-0.17
2.82	0.00	0.00	0.50	0.00	0.00	0.00	1.25	0.00	0.25	1.00	0.25	0.00	0.00	0.00	0.00	0.00	-0.591309	0.438965	1.578125	35.630001	-378.070007	179.690002	44.00	0.00	0.00	3.75	1.25	3.00	2.75	3.00	5.25	3.50	8.50	2.00	2.75	3.25	5.00	11.25	1.50	2.25	6.75	-0.120117	0.099121	0.985352	11.480000	21.559999	-11.270000	763.00	0.04	-0.17
2.83	0.00	0.00	0.00	0.00	0.00	0.00	1.25	0.00	0.00	1.00	0.25	0.00	0.00	0.00	0.00	0.00	-0.643066	0.479980	1.755859	37.310001	-375.760010	188.930008	35.00	0.00	0.00	3.00	1.25	2.75	2.75	3.00	5.00	3.50	8.25	2.00	3.25	3.25	5.25	11.50	1.50	3.00	7.50	-0.128906	0.120605	0.977539	13.860000	22.610001	-11.130000	768.00	0.06	-0.17
2.84	0.00	0.00	0.25	0.00	0.00	0.00	1.25	0.00	0.00	1.00	0.25	0.00	0.00	0.00	0.00	0.00	-0.695801	0.563965	1.973145	37.450001	-375.970001	196.350006	38.00	0.00	0.00	3.00	1.25	2.50	2.25	3.75	5.50	3.75	9.00	4.00	5.00	6.25	7.75	12.75	3.00	4.50	8.75	-0.132324	0.138184	0.972168	15.260000	22.750000	-11.690000	953.00	0.09	-0.15
2.85	0.00	0.00	0.25	0.00	0.00	0.00	1.25	0.00	0.00	1.25	0.00	0.00	0.00	0.00	0.00	0.00	-0.822266	0.671875	2.224609	35.420002	-377.649994	203.350006	38.00	0.00	0.00	2.50	0.75	1.75	1.75	2.00	3.50	3.50	8.00	4.25	5.50	6.75	7.75	12.75	3.00	3.50	8.50	-0.120117	0.144043	0.973633	15.820000	23.520000	-13.160000	863.00	0.12	-0.15
2.86	0.00	0.00	0.25	0.00	0.00	0.00	1.25	0.00	0.25	0.75	0.25	0.00	0.00	0.00	0.00	0.00	-0.976562	0.822754	2.526367	28.070000	-377.790009	214.059998	39.00	0.00	0.00	2.50	0.75	2.00	2.00	2.25	3.75	3.25	8.25	3.00	4.75	5.75	7.50	12.00	2.25	3.75	9.00	-0.110352	0.157227	0.979980	16.520000	25.200001	-15.960000	826.00	0.10	-0.17
2.87	0.00	0.00	0.25	0.00	0.00	0.00	1.25	0.00	0.00	0.75	0.25	0.00	0.00	0.00	0.00	0.00	-1.196289	0.942871	2.769043	18.760000	-376.880005	231.490005	35.00	0.00	0.00	2.50	0.75	1.75	2.25	2.00	4.00	3.25	8.25	3.50	5.50	6.25	7.75	12.50	3.00	4.50	9.75	-0.125977	0.162598	0.993652	19.389999	27.650000	-19.040001	875.00	0.11	-0.16
2.88	0.00	0.75	0.25	0.00	0.25	0.00	1.25	0.00	0.25	1.00	0.25	0.00	0.00	0.00	0.00	0.00	-1.540527	1.002930	2.899902	13.300000	-378.140015	252.839996	52.00	0.03	0.11	2.00	0.50	1.75	2.00	2.00	3.75	3.25	8.25	4.25	7.00	7.25	8.25	13.00	3.75	5.00	10.50	-0.141602	0.167969	0.988770	23.030001	31.920000	-21.910000	928.00	0.13	-0.16
2.89	0.00	0.00	0.50	0.00	0.00	0.00	1.25	0.00	0.00	0.50	0.00	0.00	0.00	0.00	0.00	0.00	-1.866699	1.092285	3.081055	-6.930000	-381.500000	269.850006	32.00	0.00	0.00	2.25	1.00	1.50	1.75	2.00	3.75	3.00	8.00	5.00	7.75	7.75	8.75	13.50	4.75	5.75	11.50	-0.157715	0.179688	1.004395	30.520000	38.430000	-24.360001	981.00	0.14	-0.15
2.90	0.00	0.00	0.50	0.00	0.00	0.00	1.25	0.00	0.00	0.75	0.25	0.00	0.00	0.00	0.00	0.00	-2.313965	1.246582	3.190430	-32.549999	-384.440002	282.309998	38.00	0.00	0.00	2.00	0.50	1.00	2.00	1.50	3.25	3.00	8.00	5.50	8.25	8.00	9.00	13.25	5.75	6.75	12.75	-0.172852	0.175781	1.049316	39.480000	47.599998	-26.389999	1002.00	0.16	-0.14
2.91	0.00	0.00	0.50	0.00	0.00	0.00	1.25	0.00	0.00	0.75	0.00	0.00	0.00	0.00	0.00	0.00	-2.862793	1.377930	3.328125	-51.450001	-389.410004	293.790009	35.00	0.00	0.00	3.25	1.50	1.75	3.00	2.25	4.75	3.00	8.75	7.50	9.75	9.25	10.25	14.50	7.25	7.75	14.00	-0.156250	0.192383	1.007324	51.450001	59.010002	-29.260000	1206.00	0.14	-0.13
2.92	0.00	0.00	0.25	0.00	0.00	0.00	1.25	0.00	0.00	0.75	0.25	0.00	0.00	0.00	0.00	0.00	-4.247559	1.498047	2.743652	-118.930000	-415.730011	287.350006	35.00	0.00	0.00	2.00	0.00	0.75	1.50	1.25	3.00	2.75	8.00	7.00	9.00	9.00	9.75	14.25	7.50	8.50	15.75	-0.185059	0.153809	1.092285	73.010002	84.629997	-32.549999	1092.00	0.18	-0.14
2.93	0.00	0.00	0.25	0.00	0.00	0.00	1.25	0.00	0.00	0.75	0.25	0.00	0.25	0.00	0.00	0.00	-5.387207	1.739746	1.706543	-166.039993	-427.980011	255.009995	37.00	0.00	0.00	3.75	1.50	2.00	2.75	2.00	4.50	2.75	8.75	8.25	10.75	10.25	11.25	16.25	9.75	10.25	18.00	-0.212402	0.161133	1.172363	78.050003	98.559998	-31.850000	1339.00	0.16	-0.13
2.94	0.00	0.00	0.00	0.00	0.00	0.00	1.25	0.00	0.25	0.00	0.25	0.00	0.00	0.00	0.00	0.00	-7.127441	1.770020	0.113770	-158.899994	-426.089996	187.180008	27.00	0.00	0.00	2.00	0.50	0.50	1.25	1.00	3.25	2.50	8.00	7.50	10.25	10.00	10.75	15.25	9.25	10.00	18.50	-0.227051	0.113770	1.241699	78.610001	114.520004	-29.750000	1190.00	0.19	-0.14
2.95	0.00	0.00	0.75	0.00	0.00	0.00	1.25	0.25	0.00	0.75	0.25	0.00	0.25	0.00	0.00	0.00	-9.378418	1.379883	-1.744141	-23.309999	-383.390015	99.470001	48.00	0.00	0.00	3.00	1.25	1.75	2.50	1.25	4.00	2.25	8.00	7.50	10.50	10.25	11.25	16.00	11.50	11.50	20.00	-0.276367	0.201660	1.192871	83.019997	133.699997	-25.969999	1313.00	0.18	-0.13
2.96	0.00	0.00	0.75	0.00	0.00	0.00	1.25	0.00	0.25	0.75	0.25	0.00	0.25	0.00	0.00	0.00	-9.533203	-0.005859	-2.824219	194.110001	-252.770004	32.480000	47.00	0.00	0.00	3.00	1.25	1.25	2.50	1.25	4.25	2.50	8.50	8.75	11.25	11.25	12.25	17.00	12.75	12.75	21.50	-0.300293	0.211914	1.240723	91.769997	159.180008	-22.680000	1416.00	0.19	-0.13
2.97	0.00	0.00	0.25	0.00	0.00	0.00	1.25	0.00	0.25	0.25	0.25	0.00	0.00	0.00	0.00	0.00	-8.252930	-1.567871	-2.172363	313.179993	-60.619999	-5.740000	33.00	0.00	0.00	1.25	0.25	0.50	1.75	0.25	3.25	2.25	7.75	7.75	10.75	10.50	11.50	15.75	11.75	11.75	21.00	-0.321289	0.281250	1.306152	103.669998	189.419998	-21.070000	1254.00	0.21	-0.13
2.98	0.00	0.00	0.75	0.00	0.00	0.00	1.25	0.25	0.00	0.50	0.25	0.00	0.00	0.00	0.00	0.00	-6.027344	-2.391602	-0.411133	198.589996	121.029999	-54.040001	42.00	0.00	0.00	1.25	0.25	0.00	1.00	0.00	2.75	2.00	7.50	7.50	10.50	10.50	11.50	15.75	12.00	12.25	22.00	-0.334473	0.343262	1.478516	114.029999	217.419998	-22.469999	1230.00	0.22	-0.14
2.99	1.50	1.00	1.00	0.00	0.50	0.00	1.50	0.00	0.25	0.50	0.00	0.00	0.00	0.00	0.00	0.00	1.503418	-0.688477	1.274414	4.900000	340.339996	-122.919998	79.00	-0.14	0.11	1.25	0.00	0.00	1.00	0.00	2.25	2.25	7.75	8.00	10.50	10.75	12.00	15.50	12.25	12.75	22.50	-0.352051	0.547852	1.490234	124.879997	250.669998	-31.850000	1254.00	0.22	-0.13
3.00	3.00	2.25	1.75	1.50	0.75	0.00	1.25	0.25	0.00	0.25	0.25	0.00	0.00	0.00	0.00	0.00	1.173340	1.373047	2.120117	-69.370003	314.649994	-160.089996	135.00	-0.24	0.01	1.25	0.25	0.25	1.25	0.00	3.00	2.25	7.25	6.50	9.75	10.25	11.25	15.25	12.25	13.00	23.00	-0.302246	0.605469	1.481445	133.839996	285.739990	-52.639999	1222.00	0.22	-0.14
3.01	7.50	6.25	3.50	3.50	0.50	0.00	1.25	0.25	0.25	0.25	0.00	0.00	0.25	0.00	0.00	0.00	-0.045410	1.129395	0.748047	-146.860001	169.050003	-140.910004	272.00	-0.30	-0.01	1.25	0.25	0.25	1.50	0.00	3.00	2.25	7.25	6.25	9.25	10.00	11.00	15.00	12.00	13.25	23.25	-0.338867	0.615234	1.552246	123.620003	312.899994	-78.750000	1210.00	0.22	-0.14
3.02	12.75	10.75	5.25	5.75	0.50	0.00	1.00	0.75	0.00	0.25	0.00	0.00	0.00	0.00	0.00	0.00	-0.038574	1.585449	-0.003906	-189.279999	177.589996	-105.769997	423.00	-0.33	-0.03	1.25	0.25	0.50	1.25	0.00	2.75	2.25	6.75	5.75	9.00	10.00	10.75	14.25	11.50	13.25	22.75	-0.444824	0.846680	1.673828	114.660004	341.040009	-104.860001	1171.00	0.22	-0.14
3.03	16.75	14.00	6.50	7.75	0.25	0.00	1.00	0.75	0.00	0.50	0.00	0.00	0.25	0.00	0.00	0.00	-0.571289	1.673828	2.020508	-172.690002	345.100006	-43.330002	543.00	-0.33	-0.03	0.50	0.00	0.25	1.25	0.00	3.25	2.50	6.50	5.25	8.75	9.50	10.50	13.50	11.00	13.25	22.00	-0.409180	0.841797	1.672852	104.510002	382.339996	-134.470001	1128.00	0.23	-0.14
3.04	20.00	16.75	7.75	9.25	0.25	2.00	1.00	2.00	0.00	0.25	0.00	0.00	0.75	0.00	0.00	0.00	-1.012695	-0.106934	2.830078	-68.669998	370.299988	44.029999	687.00	-0.32	-0.06	1.00	0.25	0.25	1.25	0.00	2.25	2.25	6.25	5.00	8.50	9.50	10.00	13.00	9.75	12.75	20.50	-0.623047	1.152344	1.979492	47.180000	497.910004	-198.309998	1073.00	0.22	-0.14
3.05	21.50	18.25	8.75	11.00	0.50	5.25	1.00	4.00	0.00	0.00	0.25	0.25	1.25	0.00	0.00	0.00	-1.124023	-1.501465	3.123535	-33.740002	364.769989	26.880001	835.00	-0.30	-0.08	0.75	0.00	0.25	1.00	0.00	1.50	2.50	5.50	4.00	8.25	9.25	9.50	12.00	8.00	12.00	18.00	-0.960938	1.340820	2.874023	57.260002	548.659973	-229.110001	972.00	0.23	-0.14
3.06	23.50	19.50	10.25	12.25	1.00	8.75	1.50	7.75	0.00	0.00	0.25	0.25	3.00	0.00	0.00	0.00	-1.297852	-0.375977	6.120117	-71.260002	352.450012	-38.220001	1038.00	-0.27	-0.11	0.00	0.00	0.00	0.00	0.00	0.75	2.50	3.50	2.50	7.75	9.00	8.75	11.50	6.75	10.50	14.25	-1.578613	0.840820	3.218262	70.349998	566.020020	-231.210007	812.00	0.25	-0.14
3.07	24.00	19.50	11.75	13.00	1.75	10.25	1.50	8.75	0.00	0.00	0.25	1.00	4.75	0.00	0.00	0.00	-0.998047	0.688477	2.465820	-57.959999	195.440002	-20.790001	1140.00	-0.25	-0.12	0.00	0.00	0.00	1.00	0.00	0.50	2.50	2.50	2.00	6.75	8.00	7.75	10.00	5.00	8.25	10.50	-2.005371	1.528809	4.280273	88.690002	563.570007	-219.240005	685.00	0.23	-0.14
3.08	24.25	19.50	12.25	13.25	2.50	10.75	1.50	9.50	0.00	0.50	0.50	0.50	5.75	0.00	0.00	0.00	-0.383301	-0.036133	2.005859	-130.690002	84.980003	-3.220000	1191.00	-0.24	-0.12	0.00	0.00	0.00	0.00	0.00	0.00	2.50	1.00	1.50	5.50	6.50	6.25	8.00	2.75	6.25	7.75	-1.532227	1.404297	4.470703	108.430000	530.250000	-231.559998	507.00	0.25	-0.13
3.09	22.75	18.50	12.00	12.75	2.75	11.00	1.50	10.00	0.00	0.25	0.50	1.00	6.50	0.00	0.00	0.00	-0.313477	-0.117676	1.391602	-104.860001	34.930000	-11.130000	1179.00	-0.23	-0.13	0.00	0.00	0.00	0.25	0.00	0.00	2.50	1.00	0.75	3.75	4.00	4.25	6.25	1.50	5.00	5.75	-0.625000	1.105469	2.992188	92.820000	489.649994	-255.570007	373.00	0.23	-0.14
3.10	21.75	18.00	12.25	12.75	4.00	11.25	1.75	10.50	0.00	0.75	0.50	0.75	8.50	0.00	0.00	0.00	-0.210938	0.187988	1.112793	-75.250000	9.870000	-11.200000	1218.00	-0.22	-0.13	0.00	0.00	0.00	0.25	0.00	0.25	2.50	0.75	0.25	2.00	1.75	2.50	4.25	0.25	3.25	3.75	0.313477	1.754883	2.139648	90.300003	472.640015	-272.369995	237.00	0.21	-0.14
3.11	22.00	17.50	12.00	13.00	4.50	11.50	1.75	11.00	0.00	0.50	0.75	1.25	9.50	0.00	0.00	0.25	-0.156738	0.257812	0.988281	-71.610001	12.670000	-6.090000	1250.00	-0.21	-0.14	0.00	0.00	0.00	0.50	0.00	0.00	2.50	0.25	0.00	1.25	1.25	2.00	2.75	0.00	1.75	2.25	1.250488	2.405273	3.186035	160.300003	430.989990	-278.250000	162.00	0.19	-0.11
3.12	21.75	17.25	12.50	12.75	5.50	12.25	1.75	11.25	0.25	0.25	0.00	0.50	9.00	0.00	0.00	0.00	-0.131348	0.128418	1.041016	-78.680000	14.560000	-5.180000	1250.00	-0.22	-0.13	0.00	0.00	0.00	0.00	0.00	0.00	2.75	0.00	0.00	0.25	0.50	0.75	1.50	0.00	0.75	0.75	1.020996	1.181641	3.737305	258.649994	324.100006	-313.739990	90.00	0.17	-0.01
3.13	14.25	13.00	9.50	10.50	4.75	10.00	1.75	11.50	0.50	0.75	0.00	1.00	9.75	0.00	0.00	0.00	-0.162598	0.122559	1.050293	-65.309998	10.080000	-7.420000	1049.00	-0.18	-0.15	0.25	0.00	0.00	0.25	0.00	0.00	2.75	0.00	0.00	0.50	0.50	0.50	0.25	0.00	0.50	0.00	1.279297	2.916992	3.338379	345.170013	181.300003	-351.399994	76.00	0.11	0.09
3.14	13.50	12.25	9.50	10.00	5.25	10.25	1.75	11.75	0.50	1.50	1.00	2.50	11.25	0.00	0.25	1.00	-0.141602	0.115234	1.016602	-47.250000	5.460000	-7.420000	1101.00	-0.15	-0.16	0.00	0.00	0.00	0.25	0.00	0.00	2.75	0.00	0.00	0.25	0.25	0.00	0.25	0.00	0.50	0.25	2.624512	0.304199	3.245605	198.380005	-76.930000	-285.670013	64.00	0.12	0.13
3.15	19.00	14.75	11.50	11.25	6.50	11.50	2.00	11.25	1.00	1.50	1.25	2.75	11.25	0.25	0.25	1.25	-0.136230	0.126953	1.002441	-36.119999	4.620000	-6.510000	1270.00	-0.17	-0.14	0.00	0.00	0.00	0.25	0.00	0.00	3.00	0.00	0.00	0.25	0.25	0.00	0.00	0.00	0.00	0.00	1.896973	0.823730	2.974609	14.000000	-211.610001	-189.770004	58.00	0.08	0.19
3.16	17.50	13.25	11.25	11.25	6.75	11.50	2.25	11.75	1.00	1.75	1.25	3.25	11.75	0.25	0.25	1.50	-0.125488	0.120117	1.012207	-29.960001	6.300000	-6.720000	1265.00	-0.16	-0.14	0.00	0.00	0.00	0.00	0.00	0.00	3.00	0.00	0.00	0.00	0.00	0.00	0.00	0.00	0.00	0.00	1.100098	1.530762	1.318848	-194.389999	-311.779999	-59.010002	49.00	0.00	0.00
3.17	16.25	12.00	10.75	10.75	7.00	11.25	2.25	11.75	1.50	2.00	1.50	3.50	11.75	0.25	0.50	1.50	-0.124023	0.107422	0.999023	-26.950001	10.500000	-7.350000	1245.00	-0.14	-0.14	0.00	0.00	0.00	0.00	0.00	0.00	3.00	0.00	0.00	0.00	0.00	0.00	0.00	0.00	0.00	0.25	0.958984	1.493164	0.829590	-177.660004	-319.480011	-15.330000	51.00	0.09	0.23
3.18	14.25	10.50	10.25	10.25	7.25	10.75	2.25	11.50	0.75	2.00	1.75	3.75	11.75	0.50	0.25	1.50	-0.117188	0.095215	0.984863	-25.129999	14.210000	-7.980000	1182.00	-0.14	-0.15	0.00	0.00	0.00	0.00	0.00	0.00	3.00	0.00	0.00	0.00	0.00	0.00	0.00	0.00	0.00	0.00	0.853027	1.529785	0.650391	-109.410004	-319.899994	10.150000	49.00	0.00	0.00
3.19	12.50	9.25	9.50	9.25	7.25	10.25	2.25	11.50	1.75	2.25	1.75	3.75	11.75	0.50	0.50	2.00	-0.129883	0.080566	0.977051	-23.450001	17.010000	-7.700000	1146.00	-0.12	-0.15	0.00	0.00	0.00	0.50	0.00	0.00	3.00	0.00	0.00	0.00	0.00	0.00	0.00	0.00	0.00	0.00	0.704102	1.432129	0.608398	-30.100000	-317.309998	28.840000	55.00	0.04	0.19
3.20	10.50	7.75	9.00	8.75	7.25	9.50	2.25	11.25	2.25	2.50	2.00	4.25	11.75	0.75	0.25	2.25	-0.139648	0.094238	0.980957	-16.870001	22.049999	-6.510000	1102.00	-0.10	-0.15	0.25	0.00	0.00	0.00	0.00	0.00	3.00	0.00	0.00	0.00	0.00	0.00	0.00	0.00	0.00	0.00	0.592773	1.170410	0.675781	35.279999	-316.049988	46.830002	52.00	0.05	0.24
3.21	9.00	7.00	8.50	8.00	7.00	9.00	2.25	11.00	2.50	2.25	2.25	4.50	11.50	0.75	0.50	2.25	-0.139648	0.094238	0.980957	-16.870001	22.049999	-6.510000	1057.00	-0.09	-0.15	0.25	0.00	0.25	0.25	0.00	0.00	3.00	0.00	0.00	0.00	0.00	0.00	0.00	0.00	0.00	0.00	0.485840	0.999512	0.826660	76.370003	-317.799988	65.029999	58.00	0.02	0.20
3.22	7.75	6.00	7.75	6.75	6.75	8.50	2.25	10.75	2.75	3.00	3.00	4.50	11.50	0.75	0.50	2.75	-0.150879	0.072266	0.972168	-13.230000	24.570000	-5.740000	1019.00	-0.07	-0.15	0.00	0.00	0.00	0.25	0.00	0.00	3.00	0.00	0.00	0.00	0.00	0.00	0.00	0.00	0.00	0.00	0.333008	0.828125	1.004883	93.169998	-323.959991	86.379997	52.00	0.06	0.22
3.23	6.75	5.25	7.50	6.00	6.50	8.00	2.25	10.50	2.50	3.50	3.00	4.50	11.25	0.75	0.75	3.00	-0.155273	0.072266	0.967773	-6.160000	28.139999	-5.880000	979.00	-0.05	-0.15	0.00	0.00	0.00	0.50	0.00	0.00	3.00	0.00	0.00	0.00	0.00	0.00	0.00	0.00	0.00	0.00	0.194336	0.668945	1.154785	93.169998	-334.529999	109.410004	55.00	0.04	0.19
3.24	6.00	4.50	6.75	5.25	6.25	7.50	2.25	10.50	3.00	3.25	3.00	4.75	11.25	1.00	1.00	3.00	-0.175781	0.073242	0.969238	-1.820000	28.910000	-5.880000	948.00	-0.04	-0.15	0.00	0.00	0.00	0.25	0.00	0.00	3.00	0.00	0.00	0.00	0.00	0.00	0.00	0.00	0.00	0.00	0.080566	0.551270	1.254883	85.750000	-346.989990	130.059998	52.00	0.06	0.22
3.25	5.00	3.75	6.00	3.75	5.75	7.00	2.00	10.00	3.50	3.75	3.50	5.00	11.25	1.25	1.00	3.50	-0.160156	0.088379	0.955078	1.890000	29.469999	-6.020000	905.00	-0.01	-0.15	0.00	0.00	0.00	0.00	0.00	0.00	3.00	0.00	0.00	0.00	0.00	0.00	0.00	0.00	0.00	0.00	-0.002930	0.475586	1.320312	78.680000	-357.700012	145.460007	49.00	0.00	0.00
3.26	4.00	2.75	5.25	3.00	5.25	6.25	2.00	9.75	4.00	4.25	3.75	5.00	11.25	1.25	1.25	3.75	-0.153809	0.089844	0.961914	5.460000	29.680000	-6.580000	866.00	0.01	-0.15	0.00	0.00	0.00	0.00	0.00	0.00	3.00	0.00	0.00	0.00	0.00	0.00	0.00	0.00	0.00	0.00	-0.063965	0.428711	1.376465	78.680000	-365.679993	156.240005	49.00	0.00	0.00
3.27	3.00	2.75	5.00	2.25	4.75	5.75	2.00	9.50	5.00	4.50	4.25	5.75	11.25	1.75	1.50	4.00	-0.163086	0.077637	0.967285	9.450000	30.730000	-7.000000	867.00	0.03	-0.15	0.00	0.00	0.00	0.00	0.00	0.00	3.00	0.00	0.00	0.00	0.00	0.00	0.00	0.00	0.00	0.00	-0.169434	0.364258	1.471680	86.379997	-370.440002	162.610001	49.00	0.00	0.00
3.28	1.75	0.00	3.50	1.25	3.75	5.00	2.00	9.25	4.50	4.75	5.00	5.50	10.25	0.50	0.50	3.75	-0.171387	0.081543	0.970215	13.650000	32.200001	-7.210000	737.00	0.06	-0.16	0.00	0.00	0.00	0.00	0.00	0.00	3.00	0.00	0.00	0.00	0.00	0.00	0.00	0.00	0.00	0.00	-0.353516	0.271973	1.800781	104.720001	-377.790009	166.949997	49.00	0.00	0.00
3.29	0.00	0.00	0.50	0.00	2.00	1.25	1.50	8.00	3.50	3.75	4.25	5.25	10.25	0.75	0.75	4.25	-0.167480	0.088867	0.964355	17.780001	35.420002	-8.260000	542.00	0.13	-0.20	0.00	0.00	0.00	0.00	0.00	0.00	3.00	0.00	0.00	0.00	0.00	0.00	0.00	0.00	0.00	0.00	-0.446289	0.272461	2.012207	106.330002	-381.989990	166.809998	49.00	0.00	0.00
3.30	0.00	0.00	0.25	0.00	1.50	3.75	1.75	9.00	6.25	6.50	6.50	7.25	10.50	0.75	1.00	4.50	-0.171387	0.077637	0.958008	22.610001	39.130001	-7.560000	710.00	0.14	-0.17	0.00	0.00	0.00	0.00	0.00	0.00	3.00	0.00	0.00	0.00	0.00	0.00	0.00	0.00	0.00	0.00	-0.551270	0.286133	2.232910	105.629997	-387.450012	167.160004	49.00	0.00	0.00
3.31	0.00	0.00	0.00	0.00	1.50	0.50	1.50	7.75	5.25	5.75	5.50	6.25	10.25	1.25	1.25	5.25	-0.184082	0.085449	0.946289	27.160000	41.930000	-6.860000	607.00	0.16	-0.17	0.00	0.00	0.00	0.00	0.00	0.00	3.00	0.00	0.00	0.00	0.00	0.00	0.00	0.00	0.00	0.00	-0.681152	0.321777	2.460938	107.309998	-394.940002	168.139999	49.00	0.00	0.00
3.32	0.00	0.00	0.00	0.00	1.00	0.00	1.50	7.75	5.75	7.25	7.25	7.50	12.00	3.25	2.75	6.75	-0.189453	0.095215	0.924316	29.540001	44.799999	-5.740000	715.00	0.19	-0.16	0.00	0.00	0.00	0.00	0.00	0.00	3.00	0.00	0.00	0.00	0.00	0.00	0.00	0.00	0.00	0.00	-0.859863	0.358398	2.669922	111.790001	-403.480011	169.750000	49.00	0.00	0.00
3.33	0.50	0.25	1.50	0.25	1.75	2.25	1.50	8.50	7.25	7.75	7.50	7.75	12.25	4.00	3.25	7.25	-0.183105	0.104980	0.936523	30.170000	41.580002	-6.580000	843.00	0.16	-0.14	0.00	0.00	0.00	0.00	0.00	0.00	3.00	0.00	0.00	0.00	0.00	0.00	0.00	0.00	0.00	0.00	-1.082520	0.383301	2.875488	118.370003	-411.040009	173.460007	49.00	0.00	0.00
3.34	0.25	0.25	1.25	0.25	1.75	2.25	1.50	8.00	7.25	7.75	8.00	8.00	12.50	4.50	3.50	7.75	-0.198730	0.119141	0.945312	29.820000	39.549999	-7.910000	851.00	0.17	-0.14	0.00	0.00	0.00	0.00	0.00	0.00	3.00	0.00	0.00	0.00	0.00	0.00	0.00	0.00	0.00	0.00	-1.362793	0.394531	3.057129	121.800003	-415.239990	181.580002	49.00	0.00	0.00
3.35	0.25	0.50	0.50	0.00	1.25	2.00	1.50	8.25	7.75	8.25	8.00	8.50	13.00	5.00	4.00	8.25	-0.198242	0.144531	0.937012	29.049999	39.759998	-9.730000	873.00	0.18	-0.14	0.00	0.00	0.00	0.00	0.00	0.00	3.00	0.00	0.00	0.00	0.00	0.00	0.00	0.00	0.00	0.00	-1.640625	0.416504	3.210449	115.570000	-414.119995	195.720001	49.00	0.00	0.00
3.36	0.00	0.00	0.25	0.00	1.00	1.25	1.25	8.00	8.00	8.50	8.25	8.75	13.00	5.75	5.25	9.00	-0.217285	0.137695	0.939453	28.910000	41.160000	-11.830000	880.00	0.20	-0.14	0.00	0.00	0.00	0.00	0.00	0.00	3.00	0.00	0.00	0.00	0.00	0.00	0.00	0.00	0.00	0.00	-1.973145	0.432617	3.287598	100.590004	-407.679993	216.860001	49.00	0.00	0.00
3.37	0.00	0.00	0.50	0.00	0.75	1.75	1.25	8.00	8.50	9.00	8.75	9.25	13.50	7.00	5.75	9.50	-0.233398	0.146973	0.956055	28.910000	43.540001	-14.000000	935.00	0.20	-0.13	0.00	0.00	0.00	0.00	0.00	0.00	3.00	0.00	0.00	0.00	0.00	0.00	0.00	0.00	0.00	0.00	-2.310547	0.404785	3.224121	79.519997	-396.480011	243.180008	49.00	0.00	0.00
3.38	0.00	0.00	0.25	0.00	0.75	1.00	1.00	7.75	9.00	9.50	9.25	9.50	13.50	7.75	6.50	10.75	-0.257324	0.184570	0.975098	37.029999	55.439999	-19.530001	959.00	0.22	-0.13	0.00	0.00	0.00	0.00	0.00	0.00	3.00	0.00	0.00	0.00	0.00	0.00	0.00	0.00	0.00	0.00	-2.752930	0.428711	3.050293	45.290001	-380.869995	268.170013	49.00	0.00	0.00
3.39	0.00	0.00	0.50	0.25	0.75	1.25	1.00	8.00	9.50	10.00	9.75	10.25	14.50	8.75	7.25	11.75	-0.229980	0.137695	1.020020	43.330002	65.870003	-22.469999	1033.00	0.21	-0.13	0.00	0.00	0.00	0.00	0.00	0.00	3.00	0.00	0.00	0.00	0.00	0.00	0.00	0.00	0.00	0.00	-3.275879	0.610840	2.672852	-8.610000	-364.630005	284.480011	49.00	0.00	0.00
3.40	0.00	0.00	0.00	0.00	0.50	0.75	1.00	7.75	9.75	10.50	10.25	10.50	15.00	9.75	7.75	13.00	-0.245117	0.145996	1.071289	49.490002	78.889999	-24.780001	1056.00	0.23	-0.13	0.00	0.00	0.00	0.25	0.00	0.00	3.00	0.00	0.00	0.00	0.00	0.00	0.00	0.00	0.00	0.00	-4.565918	1.396973	1.153320	-105.000000	-323.119995	269.570007	52.00	0.06	0.22
3.41	0.00	0.00	0.50	0.00	0.25	1.00	1.00	8.00	10.25	10.75	10.50	10.75	15.25	10.75	8.50	13.75	-0.265625	0.150879	1.077148	55.650002	94.010002	-25.480000	1106.00	0.23	-0.12	0.00	0.00	0.00	0.00	0.00	0.00	3.00	0.00	0.00	0.00	0.00	0.00	0.00	0.00	0.00	0.00	-5.616699	1.179688	-0.460938	-64.889999	-293.299988	228.199997	49.00	0.00	0.00
3.42	0.00	0.00	0.25	0.00	0.25	1.00	0.75	7.75	10.50	11.00	10.75	11.00	15.50	11.75	9.00	14.75	-0.302734	0.131348	1.169922	58.029999	110.949997	-24.080000	1131.00	0.23	-0.12	0.00	0.00	0.00	0.50	0.00	0.00	3.00	0.00	0.00	0.00	0.00	0.00	0.00	0.00	0.00	0.00	-7.822754	0.331543	-0.852051	186.410004	-254.800003	184.800003	55.00	0.04	0.19
3.43	0.00	0.00	0.00	0.00	0.00	0.25	0.50	7.50	10.25	10.75	10.75	11.25	14.75	12.00	9.25	15.50	-0.310059	0.088867	1.227539	57.680000	133.210007	-18.480000	1106.00	0.24	-0.12	0.00	0.00	0.00	0.25	0.00	0.00	3.00	0.00	0.00	0.00	0.00	0.00	0.00	0.00	0.00	0.00	-8.026855	-2.054688	-0.782227	354.829987	-161.839996	147.979996	52.00	0.06	0.22
3.44	0.00	0.00	0.00	0.00	0.00	1.00	0.75	7.50	10.50	11.25	11.25	11.50	15.25	13.00	10.25	16.50	-0.339355	0.144043	1.185059	61.389999	159.740005	-12.880000	1169.00	0.24	-0.12	1.00	0.00	0.50	0.75	0.00	0.00	3.00	0.00	0.00	0.00	0.00	0.00	0.00	0.00	0.00	0.00	-6.883789	-3.443359	-0.565918	256.059998	-13.650000	110.320000	76.00	-0.06	0.15
3.45	0.00	0.00	0.00	0.25	0.00	0.25	0.50	7.50	10.25	11.50	11.00	11.75	15.25	13.50	10.50	17.25	-0.372070	0.211426	1.258789	65.239998	186.690002	-9.380000	1170.00	0.24	-0.12	0.75	0.00	0.25	1.00	0.00	0.00	3.00	0.00	0.00	0.00	0.00	0.00	0.00	0.00	0.00	0.00	-9.720215	-0.372559	-0.487793	-33.110001	102.059998	53.060001	73.00	-0.05	0.14
3.46	0.00	0.00	0.00	0.00	0.00	0.50	0.75	6.75	10.25	11.00	11.00	11.50	15.00	13.75	10.75	17.50	-0.459473	0.306152	1.353027	70.139999	218.820007	-10.150000	1157.00	0.25	-0.12	1.00	0.00	0.25	0.75	0.00	0.00	3.00	0.00	0.00	0.00	0.00	0.00	0.00	0.00	0.00	0.00	-1.236328	-0.985840	-1.312012	-52.500000	296.029999	-90.440002	73.00	-0.05	0.16
3.47	0.00	0.00	0.00	0.00	0.00	0.25	0.75	6.75	10.00	10.75	10.75	11.50	14.50	13.75	11.00	18.00	-0.415039	0.453613	1.420410	75.739998	255.639999	-19.389999	1146.00	0.25	-0.12	2.50	0.50	1.25	1.25	0.00	0.00	3.00	0.00	0.00	0.00	0.00	0.00	0.00	0.00	0.00	0.00	0.416504	-0.402344	3.087891	-119.209999	368.200012	-199.570007	113.00	-0.16	0.11
3.48	0.00	0.00	0.50	0.00	0.00	0.00	0.50	6.25	9.25	10.25	10.75	11.25	14.25	13.75	11.25	17.50	-0.423828	0.570801	1.468262	74.900002	291.970001	-36.750000	1115.00	0.25	-0.12	3.75	1.25	1.75	1.75	0.50	0.00	3.00	0.25	0.00	0.00	0.00	0.00	0.00	0.00	0.00	0.00	0.305176	0.699219	3.054688	-235.550003	215.809998	-213.639999	157.00	-0.20	0.07
3.49	0.00	0.00	0.00	0.00	0.00	0.00	0.75	5.75	9.25	10.25	10.75	11.00	13.50	13.50	11.50	17.00	-0.459961	0.583008	1.459961	67.760002	327.179993	-60.410000	1092.00	0.26	-0.11	8.25	5.25	4.00	3.75	0.50	0.00	2.75	0.00	0.00	0.00	0.00	0.00	0.00	0.00	0.00	0.00	-1.261230	1.633789	0.479492	-252.910004	148.399994	-169.610001	291.00	-0.28	0.02
3.50	0.00	0.00	0.00	0.25	0.00	0.75	0.75	5.50	9.00	10.00	10.50	10.75	12.50	13.00	11.50	15.50	-0.471680	0.591309	1.480469	52.639999	373.450012	-86.519997	1065.00	0.25	-0.11	13.75	10.25	5.75	5.75	0.50	0.00	2.75	0.00	0.00	0.00	0.00	0.00	0.00	0.00	0.00	0.00	-0.552734	1.461426	0.752930	-152.180008	251.160004	-98.070000	449.00	-0.31	0.00
3.51	0.00	0.00	0.00	0.00	0.00	0.00	0.75	5.25	8.75	10.00	10.50	10.25	11.75	12.00	11.00	13.25	-0.374512	0.922363	0.632812	33.599998	432.880005	-112.699997	1004.00	0.25	-0.10	20.75	16.25	7.25	8.50	0.50	0.00	2.50	0.50	0.00	0.00	0.00	0.00	0.25	0.00	0.00	0.00	-0.300293	1.207031	2.425781	-65.309998	363.720001	-43.189999	647.00	-0.33	-0.02
3.52	0.00	0.00	0.00	0.00	0.00	0.00	0.75	3.50	8.25	10.25	10.25	9.50	10.25	10.25	10.00	10.50	-0.395996	0.592285	2.861328	-40.180000	569.309998	-158.410004	901.00	0.26	-0.09	26.00	21.50	10.50	12.50	1.00	3.00	2.75	2.00	0.00	0.00	0.00	0.50	0.75	0.00	0.00	0.00	-1.117676	0.348633	3.176758	-160.930008	248.360001	-23.590000	928.00	-0.31	-0.05
3.53	0.00	0.00	0.00	0.00	0.00	0.00	0.75	2.00	7.75	9.50	9.75	9.00	9.25	8.00	8.25	8.00	-1.375000	0.451172	3.813965	-11.410000	626.010010	-188.020004	784.00	0.26	-0.08	28.75	24.75	13.75	15.25	2.25	7.25	3.25	5.75	0.00	0.00	0.00	0.50	2.25	0.00	0.00	0.25	-0.469727	0.518555	1.567383	-177.380005	104.090004	-15.400000	1216.00	-0.28	-0.07
3.54	0.00	0.00	0.00	0.00	0.00	0.00	1.00	1.50	6.75	8.50	8.75	8.00	7.75	6.00	6.50	6.00	-2.628418	1.051758	4.720703	20.860001	636.440002	-184.869995	666.00	0.25	-0.08	31.25	26.00	16.50	16.75	5.00	8.75	3.50	7.50	0.75	0.00	0.00	0.75	3.25	0.00	0.00	1.25	-0.169922	-0.137207	1.754883	-195.720001	75.599998	-5.460000	1422.00	-0.26	-0.08
3.55	0.00	0.00	0.00	0.00	0.00	0.00	1.00	0.50	5.75	7.50	7.50	6.25	6.00	3.50	4.75	4.50	-2.093750	1.136230	4.868164	55.580002	635.109985	-157.919998	521.00	0.25	-0.07	30.25	24.25	16.25	16.50	6.00	9.00	3.75	7.75	0.00	0.00	0.25	0.75	4.25	0.00	0.25	0.50	-0.208008	-0.088867	1.517578	-151.830002	52.360001	-5.390000	1410.00	-0.26	-0.08
3.56	0.00	0.25	0.00	0.00	0.00	0.00	1.00	0.25	4.25	5.75	6.00	5.00	4.50	2.00	3.25	2.75	-1.342773	1.301758	4.091309	73.010002	586.320007	-175.839996	390.00	0.24	-0.07	28.75	22.50	16.50	16.50	4.00	9.50	3.75	8.25	0.00	0.25	0.25	0.75	5.50	0.00	0.75	0.75	-0.120117	0.160156	1.052734	-93.660004	18.620001	-4.550000	1390.00	-0.24	-0.09
3.57	0.00	0.00	0.00	0.00	0.00	0.00	1.00	1.00	3.00	4.25	4.25	3.00	3.00	0.75	2.00	2.00	0.352051	1.685547	3.446777	61.110001	542.710022	-199.990005	278.00	0.23	-0.08	26.50	20.00	16.00	15.75	7.00	9.25	4.00	8.75	0.00	0.50	0.50	1.00	6.50	0.00	0.50	1.00	-0.109375	0.226562	1.011719	-63.349998	5.390000	-1.190000	1387.00	-0.23	-0.09
3.58	0.00	0.00	0.00	0.00	0.00	0.00	1.25	0.25	2.25	3.75	2.75	1.75	2.00	0.75	1.00	0.50	0.822754	2.121094	3.458984	101.989998	513.869995	-213.919998	191.00	0.23	-0.02	21.75	17.25	13.75	16.50	8.50	10.00	4.50	9.50	1.25	1.50	1.25	2.50	9.25	0.75	1.75	2.50	-0.125977	0.131348	1.099121	-42.980000	-4.270000	-0.980000	1446.00	-0.17	-0.10
3.59	0.00	0.00	0.75	0.00	0.00	0.00	1.25	0.00	1.75	2.50	2.00	0.75	0.00	0.00	0.50	0.50	1.630859	1.690430	3.804199	175.350006	457.029999	-240.309998	123.00	0.19	0.06	27.75	21.00	17.75	18.50	9.50	12.75	4.75	10.25	2.00	2.00	1.50	3.00	10.00	1.25	2.00	3.00	-0.079590	0.128418	1.055176	-26.180000	-7.840000	-3.640000	1728.00	-0.18	-0.10
3.60	0.00	0.00	0.00	0.00	0.00	0.00	1.25	0.00	1.25	2.75	1.75	0.50	0.00	0.25	0.50	0.50	0.358887	1.907715	1.510254	263.200012	320.459991	-298.970001	107.00	0.22	0.06	26.75	19.75	17.50	17.75	10.25	13.00	5.00	10.75	2.25	2.25	1.50	3.50	10.50	1.50	2.00	3.00	-0.070801	0.145020	1.005371	-17.080000	-5.530000	-4.760000	1736.00	-0.17	-0.10
3.61	0.00	0.00	0.50	0.00	0.00	0.00	1.25	0.00	1.00	2.00	1.50	0.25	0.00	0.00	0.25	0.25	2.640625	1.701660	4.574219	237.440002	36.610001	-262.220001	88.00	0.17	0.08	24.75	17.50	16.75	17.00	10.75	12.75	5.00	10.75	2.50	2.50	2.00	3.50	11.00	1.75	2.25	3.75	-0.065430	0.105469	1.023926	-13.370000	-1.050000	-4.060000	1702.00	-0.15	-0.10
3.62	0.00	0.00	0.00	0.00	0.00	0.00	1.25	0.00	1.00	2.25	1.75	0.25	0.00	0.00	0.00	0.00	2.209473	0.388184	3.093750	127.120003	-152.880005	-164.500000	83.00	0.20	0.09	22.50	15.75	15.75	16.00	11.00	12.50	5.25	11.00	2.50	2.50	2.25	4.00	11.25	1.50	2.25	4.00	-0.069824	0.122070	1.032715	-9.450000	3.010000	-3.430000	1653.00	-0.14	-0.10
3.63	0.00	0.00	0.75	0.00	0.00	0.00	1.50	0.00	0.25	2.25	1.25	0.25	0.00	0.25	0.00	0.00	1.130859	0.801270	2.479980	-63.000000	-273.209991	-82.809998	83.00	0.14	0.09	20.75	13.50	14.75	14.75	11.25	12.25	5.25	11.00	2.50	2.75	2.50	4.25	11.50	1.50	2.50	4.50	-0.032227	0.122559	1.018555	-7.140000	8.890000	-3.640000	1600.00	-0.13	-0.10
3.64	0.00	0.00	0.25	0.00	0.00	0.00	1.25	0.00	0.25	2.00	1.25	0.00	0.00	0.00	0.00	0.00	0.930664	0.828125	1.483398	-177.589996	-321.929993	-28.910000	64.00	0.16	0.09	18.00	10.75	13.75	13.75	11.00	11.50	5.25	11.00	3.00	2.75	3.00	4.75	11.75	1.75	2.50	5.00	-0.034180	0.104980	1.012207	-3.780000	21.210001	-6.090000	1532.00	-0.11	-0.11
3.65	0.00	0.00	0.25	0.00	0.00	0.00	1.50	0.00	0.25	2.00	1.00	0.00	0.00	0.00	0.50	0.00	0.827637	1.248535	0.953125	-200.970001	-331.309998	3.290000	71.00	0.18	0.10	15.00	8.50	12.25	12.00	10.50	11.00	5.25	11.00	2.75	3.00	3.25	5.00	12.00	2.00	2.75	5.25	-0.032715	0.107422	1.002441	-1.330000	25.969999	-6.720000	1438.00	-0.09	-0.11
3.66	0.00	0.25	0.00	0.00	0.00	0.00	1.25	0.00	0.50	2.00	1.00	0.00	0.00	0.00	0.00	0.00	0.549805	1.347656	0.428711	-156.940002	-325.570007	21.420000	64.00	0.16	0.10	12.75	7.00	10.50	10.00	10.00	10.25	5.00	10.75	3.00	3.25	3.50	6.00	12.25	2.00	2.75	5.50	-0.058594	0.110840	1.016602	1.260000	30.380001	-7.000000	1353.00	-0.07	-0.12
3.67	0.00	0.25	0.25	0.00	0.00	0.00	1.25	0.00	0.50	2.00	0.75	0.00	0.00	0.00	0.00	0.00	0.454102	1.180176	0.400391	32.549999	-298.200012	38.080002	65.00	0.14	0.11	9.75	6.00	9.25	8.75	9.00	9.50	5.00	10.75	3.00	3.50	3.75	6.25	12.50	1.75	3.00	6.25	-0.083496	0.096680	1.014160	4.690000	33.740002	-7.000000	1274.00	-0.04	-0.13
3.68	0.00	0.00	0.25	0.00	0.00	0.00	1.25	0.00	0.50	1.75	0.50	0.00	0.00	0.00	0.00	0.00	0.342773	0.988770	0.705566	110.250000	-289.519989	49.070000	56.00	0.16	0.14	8.00	5.00	8.25	7.50	8.25	8.75	5.00	10.50	3.50	3.50	4.00	6.75	12.75	2.00	3.25	7.00	-0.053223	0.116211	1.022949	8.260000	36.610001	-6.090000	1223.00	-0.02	-0.13
