# time	left pressure 1[N/cm²]	left pressure 2[N/cm²]	left pressure 3[N/cm²]	left pressure 4[N/cm²]	left pressure 5[N/cm²]	left pressure 6[N/cm²]	left pressure 7[N/cm²]	left pressure 8[N/cm²]	left pressure 9[N/cm²]	left pressure 10[N/cm²]	left pressure 11[N/cm²]	left pressure 12[N/cm²]	left pressure 13[N/cm²]	left pressure 14[N/cm²]	left pressure 15[N/cm²]	left pressure 16[N/cm²]	left acceleration X[g]	left acceleration Y[g]	left acceleration Z[g]	left angular X[dps]	left angular Y[dps]	left angular Z[dps]	left total force[N]	left center of pressure X[%]	left center of pressure Y[%]	right pressure 1[N/cm²]	right pressure 2[N/cm²]	right pressure 3[N/cm²]	right pressure 4[N/cm²]	right pressure 5[N/cm²]	right pressure 6[N/cm²]	right pressure 7[N/cm²]	right pressure 8[N/cm²]	right pressure 9[N/cm²]	right pressure 10[N/cm²]	right pressure 11[N/cm²]	right pressure 12[N/cm²]	right pressure 13[N/cm²]	right pressure 14[N/cm²]	right pressure 15[N/cm²]	right pressure 16[N/cm²]	right acceleration X[g]	right acceleration Y[g]	right acceleration Z[g]	right angular X[dps]	right angular Y[dps]	right angular Z[dps]	right total force[N]	right center of pressure X[%]	right center of pressure Y[%]
0.00	1.50	0.50	1.50	1.50	1.00	0.50	0.00	0.50	0.00	0.50	0.00	0.00	0.50	2.25	0.25	0.00	-0.243164	0.069336	0.939453	4.830000	6.720000	-0.910000	109.00	-0.08	-0.03																									
0.01	1.50	0.75	1.50	1.75	1.00	0.50	0.00	0.50	0.00	0.50	0.00	0.00	0.00	1.75	0.00	0.00	-0.239258	0.074707	0.945801	4.550000	7.070000	-0.840000	102.00	-0.14	-0.03																									
0.02	1.50	0.75	2.00	1.75	0.75	0.25	0.00	0.50	0.00	0.25	0.00	0.00	0.25	1.75	0.00	0.00	-0.254883	0.070801	0.948242	4.760000	7.070000	-0.840000	102.00	-0.15	-0.03																									
0.03	1.50	0.75	1.75	1.50	0.75	0.25	0.00	0.50	0.00	0.25	0.00	0.00	0.50	1.50	0.00	0.00	-0.250488	0.077637	0.947754	5.670000	7.560000	-0.840000	97.00	-0.14	-0.04																									
0.04	1.50	0.25	2.00	1.25	0.75	0.00	0.00	0.50	0.00	0.50	0.00	0.00	0.25	1.50	0.00	0.00	-0.251465	0.063965	0.946777	6.650000	7.560000	-0.910000	90.00	-0.13	-0.01																									
0.05	1.50	0.75	1.75	1.75	0.75	0.50	0.00	0.50	0.00	0.00	0.00	0.00	0.25	1.50	0.00	0.00	-0.243652	0.074219	0.952148	7.490000	7.420000	-0.980000	97.00	-0.17	-0.05																									
0.06	1.50	1.00	1.75	1.75	1.00	0.25	0.00	0.50	0.00	0.25	0.00	0.00	0.25	0.75	0.00	0.00	-0.244141	0.070801	0.944336	10.150000	6.300000	-0.840000	96.00	-0.20	-0.05																									
0.07	2.00	1.00	1.25	1.50	0.75	0.25	0.00	0.25	0.00	0.00	0.00	0.00	0.25	1.25	0.00	0.00	-0.243652	0.077148	0.950684	10.710000	5.460000	-0.770000	88.00	-0.20	-0.03																									
0.08	1.75	1.25	1.75	1.50	0.75	0.25	0.00	0.50	0.00	0.00	0.00	0.00	0.25	1.00	0.00	0.00	-0.243652	0.077148	0.950684	10.710000	5.460000	-0.770000	95.00	-0.21	-0.05																									
0.09	1.75	0.50	2.00	1.75	0.75	0.25	0.00	0.50	0.00	0.00	0.00	0.00	0.50	0.75	0.00	0.00	-0.248535	0.081055	0.956543	12.670000	4.410000	-0.770000	93.00	-0.20	-0.06																									
0.10	2.00	1.00	1.75	1.75	0.75	0.50	0.00	0.25	0.00	0.00	0.00	0.00	0.25	0.25	0.00	0.00	-0.234863	0.088867	0.956543	13.930000	3.360000	-0.910000	90.00	-0.26	-0.05	6.50	5.75	5.25	7.50	3.25	8.00	0.00	6.25	0.00	0.00	0.25	1.25	5.00	1.75	0.00	0.25	-0.173340	0.123047	0.970703	-0.420000	-4.130000	2.240000	554.00	-0.16	-0.17
0.11	2.00	0.75	1.75	2.00	1.00	0.25	0.00	0.25	0.00	0.00	0.00	0.00	0.25	0.75	0.00	0.00	-0.241211	0.092285	0.947266	14.490000	1.260000	-0.840000	95.00	-0.23	-0.04	6.75	6.25	5.25	7.50	3.25	8.00	0.00	6.00	0.00	0.00	0.25	1.00	5.00	1.75	0.00	0.25	-0.169922	0.111328	0.973633	-0.560000	-4.060000	2.100000	555.00	-0.17	-0.17
0.12	2.25	1.75	2.00	1.75	0.75	0.25	0.00	0.50	0.00	0.00	0.00	0.00	0.25	0.50	0.00	0.00	-0.243164	0.092285	0.947266	13.930000	-0.280000	-0.980000	106.00	-0.25	-0.06	6.75	6.50	5.75	7.75	3.25	8.25	0.00	6.00	0.00	0.25	0.00	1.00	5.25	1.75	0.00	0.25	-0.164551	0.116699	0.971680	-0.490000	-4.060000	2.030000	571.00	-0.17	-0.17
0.13	2.25	1.00	2.00	1.75	0.75	0.50	0.00	0.25	0.00	0.00	0.00	0.00	0.25	0.00	0.00	0.00	-0.237793	0.094727	0.947266	11.410000	-1.610000	-0.980000	94.00	-0.28	-0.05	7.75	6.50	6.00	8.00	3.50	8.25	0.00	6.00	0.00	0.25	0.25	0.75	5.00	2.00	0.00	0.25	-0.162109	0.120117	0.971191	-0.630000	-3.990000	2.100000	589.00	-0.17	-0.16
0.14	2.25	1.50	1.75	2.00	0.75	0.25	0.00	0.25	0.00	0.00	0.00	0.00	0.25	0.25	0.00	0.00	-0.235352	0.093262	0.932617	10.220000	-1.540000	-1.260000	98.00	-0.28	-0.05	7.75	7.25	5.75	7.75	3.25	8.25	0.00	6.00	0.00	0.25	0.25	0.75	5.00	1.50	0.00	0.25	-0.167480	0.123047	0.974121	-0.770000	-3.570000	2.170000	583.00	-0.18	-0.16
0.15	2.25	1.00	1.75	1.75	0.50	0.50	0.00	0.00	0.00	0.00	0.00	0.00	0.25	0.25	0.00	0.00	-0.229492	0.100586	0.937500	8.260000	-0.770000	-1.610000	86.00	-0.28	-0.04	8.25	7.25	6.25	8.25	3.25	8.50	0.00	6.25	0.00	0.00	0.00	0.50	5.00	1.25	0.00	0.00	-0.169434	0.121094	0.972656	-0.210000	-3.220000	2.170000	595.00	-0.19	-0.16
0.16	2.25	1.50	2.00	2.25	0.50	0.50	0.00	0.25	0.00	0.00	0.00	0.00	0.00	0.00	0.00	0.00	-0.235840	0.106445	0.941895	6.580000	0.070000	-1.680000	99.00	-0.30	-0.06	8.25	7.50	6.25	8.25	3.25	8.25	0.00	6.00	0.00	0.00	0.25	0.75	4.75	1.50	0.00	0.25	-0.163574	0.123047	0.979492	0.490000	-2.940000	2.380000	597.00	-0.19	-0.16
0.17	2.25	1.25	1.75	2.00	0.75	0.50	0.00	0.25	0.00	0.00	0.00	0.00	0.25	0.00	0.00	0.00	-0.238770	0.106445	0.940430	5.740000	0.700000	-1.890000	96.00	-0.28	-0.06	8.75	7.75	6.50	8.25	3.25	8.25	0.00	6.00	0.00	0.25	0.00	0.75	4.75	1.25	0.00	0.00	-0.167480	0.111816	0.981934	1.120000	-2.520000	2.660000	604.00	-0.19	-0.15
0.18	3.00	1.00	2.00	1.75	0.50	0.25	0.00	0.00	0.00	0.00	0.00	0.00	0.00	0.00	0.00	0.00	-0.231934	0.102051	0.939941	5.040000	1.050000	-2.100000	90.00	-0.32	-0.01	8.75	7.75	6.25	8.50	3.00	8.50	0.00	6.00	0.00	0.00	0.00	0.50	5.00	1.00	0.00	0.25	-0.162109	0.122070	0.973145	2.310000	-2.450000	2.730000	600.00	-0.20	-0.16
0.19	2.50	1.25	2.00	1.75	0.50	0.25	0.00	0.25	0.00	0.00	0.00	0.00	0.00	0.00	0.00	0.00	-0.234863	0.107910	0.957520	4.200000	1.190000	-2.170000	91.00	-0.31	-0.04	9.25	8.00	6.25	8.50	3.00	8.50	0.00	6.00	0.00	0.00	0.00	0.50	5.00	1.00	0.00	0.00	-0.163574	0.127930	0.963867	3.150000	-2.310000	3.010000	606.00	-0.20	-0.16
0.20	2.50	1.25	2.00	1.75	0.50	0.25	0.00	0.25	0.00	0.00	0.00	0.00	0.25	0.00	0.00	0.00	-0.233887	0.099121	0.939941	3.710000	1.330000	-2.170000	93.00	-0.30	-0.05	9.75	8.00	6.25	8.50	2.75	8.50	0.00	6.00	0.00	0.25	0.00	0.50	4.75	1.25	0.00	0.25	-0.161133	0.123535	0.969238	3.640000	-2.100000	3.290000	613.00	-0.20	-0.15
0.21	2.75	1.50	2.00	2.00	0.50	0.50	0.00	0.00	0.00	0.00	0.00	0.00	0.00	0.00	0.00	0.00	-0.233398	0.105957	0.934570	2.590000	2.030000	-2.310000	97.00	-0.32	-0.03	9.50	8.50	6.50	8.50	2.75	8.75	0.00	6.00	0.00	0.00	0.00	0.50	5.00	0.75	0.00	0.00	-0.166504	0.122070	0.967773	3.920000	-2.240000	3.220000	614.00	-0.21	-0.16
0.22	2.75	1.50	2.25	2.00	0.75	0.25	0.00	0.25	0.00	0.00	0.00	0.00	0.25	0.00	0.00	0.00	-0.223633	0.111328	0.916016	0.070000	3.780000	-2.380000	106.00	-0.29	-0.04	10.00	8.50	6.25	8.75	2.75	8.75	0.00	6.00	0.00	0.00	0.00	0.75	4.75	1.00	0.00	0.00	-0.166504	0.129883	0.978027	4.200000	-2.590000	3.360000	622.00	-0.21	-0.16
0.23	2.75	1.50	2.25	2.00	0.75	0.50	0.00	0.25	0.00	0.00	0.00	0.00	0.25	0.00	0.00	0.00	-0.221680	0.107910	0.929199	-3.150000	6.440000	-2.660000	109.00	-0.29	-0.05	9.75	8.75	6.50	8.75	2.50	8.75	0.00	6.00	0.00	0.25	0.25	0.75	4.50	1.00	0.00	0.00	-0.164062	0.131836	0.969238	3.150000	-2.590000	3.150000	625.00	-0.20	-0.15
0.24	2.75	1.50	2.25	2.25	0.75	0.50	0.00	0.00	0.00	0.00	0.00	0.00	0.25	0.00	0.00	0.00	-0.230469	0.108887	0.931641	-6.300000	8.890000	-3.010000	108.00	-0.30	-0.04	10.75	8.75	6.75	9.00	2.50	8.75	0.00	5.75	0.00	0.00	0.25	0.75	4.50	0.75	0.00	0.00	-0.163574	0.137695	0.959473	1.750000	-2.590000	2.940000	632.00	-0.21	-0.15
0.25	2.75	1.50	2.50	2.00	0.75	0.50	0.00	0.25	0.00	0.00	0.00	0.00	0.50	0.00	0.00	0.00	-0.228027	0.108887	0.949219	-7.910000	10.640000	-2.940000	114.00	-0.28	-0.05	10.50	8.75	6.50	9.00	2.50	8.75	0.00	6.00	0.00	0.00	0.00	0.50	4.50	0.75	0.00	0.00	-0.166016	0.134277	0.958008	0.420000	-2.660000	2.520000	625.00	-0.21	-0.15
0.26	2.75	1.50	2.00	2.00	0.75	0.50	0.00	0.00	0.00	0.00	0.00	0.00	0.25	0.00	0.00	0.00	-0.238770	0.098633	0.948242	-8.120000	11.270000	-3.010000	102.00	-0.30	-0.04	10.50	9.25	6.75	9.00	2.50	8.75	0.00	6.00	0.00	0.00	0.00	0.50	4.25	0.50	0.00	0.00	-0.161621	0.136719	0.965820	-0.770000	-2.590000	2.240000	628.00	-0.22	-0.15
0.27	2.75	1.50	2.25	2.00	0.75	0.25	0.00	0.25	0.00	0.00	0.00	0.00	0.00	0.00	0.00	0.00	-0.234375	0.101074	0.920898	-8.750000	12.110000	-3.360000	104.00	-0.30	-0.03	10.75	9.00	6.75	9.00	2.50	8.75	0.00	6.00	0.00	0.00	0.00	0.50	4.25	0.50	0.00	0.00	-0.159668	0.132812	0.965332	-1.960000	-2.660000	2.100000	628.00	-0.22	-0.15
0.28	3.00	1.25	2.50	2.00	0.75	0.25	0.00	0.25	0.00	0.00	0.00	0.00	0.25	0.00	0.00	0.00	-0.232910	0.099609	0.931641	-11.760000	13.930000	-3.920000	109.00	-0.29	-0.03	11.75	9.00	6.75	9.00	2.50	8.75	0.00	6.00	0.00	0.00	0.00	0.25	4.50	0.75	0.00	0.00	-0.166992	0.136230	0.974121	-2.940000	-2.730000	1.680000	640.00	-0.22	-0.15
0.29	2.75	1.75	2.00	2.00	1.00	0.00	0.00	0.00	0.00	0.00	0.00	0.00	0.00	0.00	0.00	0.00	-0.238770	0.101074	0.924316	-16.799999	17.010000	-5.040000	100.00	-0.32	-0.02	11.25	9.50	7.00	9.00	2.50	8.75	0.00	6.00	0.00	0.25	0.00	0.50	4.50	0.50	0.00	0.00	-0.164551	0.127441	0.964355	-3.710000	-2.730000	1.680000	646.00	-0.22	-0.15
0.30	2.75	1.50	2.25	2.25	0.75	0.00	0.00	0.00	0.00	0.00	0.00	0.00	0.00	0.00	0.00	0.00	-0.227051	0.085938	0.951172	-21.000000	19.740000	-5.950000	100.00	-0.32	-0.02	11.25	9.25	6.75	9.00	2.50	8.75	0.00	5.75	0.00	0.00	0.00	0.50	4.25	0.50	0.00	0.00	-0.166504	0.125488	0.967773	-4.200000	-2.730000	1.540000	632.00	-0.22	-0.15
0.31	2.75	1.50	2.25	2.00	1.00	0.00	0.00	0.00	0.00	0.00	0.00	0.00	0.00	0.00	0.00	0.00	-0.236328	0.095703	0.928711	-23.730000	21.000000	-6.160000	100.00	-0.31	-0.01	11.50	9.25	7.00	9.00	2.50	8.50	0.00	5.75	0.00	0.00	0.25	0.25	4.00	0.50	0.00	0.25	-0.165039	0.131836	0.963867	-4.550000	-2.800000	1.470000	634.00	-0.22	-0.14
0.32	3.00	1.25	2.50	1.75	1.00	0.00	0.00	0.00	0.00	0.25	0.25	0.00	0.00	0.00	0.00	0.00	-0.237793	0.083496	0.943359	-28.980000	15.120000	-5.950000	106.00	-0.29	0.00	11.50	9.25	7.00	9.25	2.50	8.50	0.00	5.75	0.00	0.25	0.25	0.25	4.00	0.75	0.00	0.00	-0.165527	0.126953	0.971191	-4.900000	-2.800000	1.470000	640.00	-0.22	-0.14
0.33	3.00	1.25	2.50	2.00	1.00	0.00	0.00	0.00	0.00	0.50	0.00	0.00	0.00	0.00	0.00	0.00	-0.237793	0.083496	0.943359	-28.980000	15.120000	-5.950000	109.00	-0.29	0.00	11.50	9.50	7.25	9.00	2.50	8.75	0.00	5.75	0.00	0.00	0.00	0.50	4.00	0.75	0.00	0.00	-0.160156	0.126953	0.972656	-5.320000	-2.940000	1.400000	643.00	-0.22	-0.14
0.34	2.75	1.25	2.50	2.00	1.25	0.00	0.00	0.00	0.00	1.00	0.25	0.00	0.00	0.25	0.00	0.00	-0.249512	0.074707	0.958984	-24.500000	8.540000	-5.600000	119.00	-0.23	0.00	11.25	9.25	7.00	9.00	2.50	8.75	0.00	5.75	0.00	0.00	0.00	0.75	4.00	0.75	0.00	0.00	-0.158691	0.129883	0.958984	-5.880000	-2.870000	1.260000	638.00	-0.22	-0.15
0.35	3.00	1.00	2.50	1.75	1.25	0.00	0.00	0.00	0.00	0.75	0.25	0.00	0.00	0.50	0.00	0.00	-0.246094	0.067871	0.949707	-21.350000	6.440000	-5.180000	116.00	-0.23	0.02	11.25	9.25	7.00	9.00	2.75	8.50	0.00	5.50	0.00	0.00	0.00	0.50	4.00	0.50	0.00	0.00	-0.170898	0.125977	0.967285	-6.160000	-2.870000	1.120000	629.00	-0.23	-0.14
0.36	3.00	1.00	2.50	1.50	1.25	0.00	0.00	0.00	0.00	0.75	0.25	0.00	0.00	0.50	0.00	0.00	-0.259766	0.062012	0.964355	-17.430000	5.110000	-4.620000	113.00	-0.23	0.02	11.00	9.25	7.00	9.00	2.50	8.50	0.00	5.50	0.00	0.00	0.00	0.25	4.00	0.50	0.00	0.00	-0.158203	0.126465	0.968262	-6.440000	-3.010000	0.840000	621.00	-0.23	-0.14
0.37	2.75	1.25	2.50	2.00	1.25	0.00	0.00	0.00	0.00	1.00	0.25	0.00	0.00	0.50	0.00	0.00	-0.267578	0.057617	0.958008	-11.900000	5.180000	-3.850000	121.00	-0.22	0.01	10.75	9.00	7.25	9.00	2.75	8.25	0.00	5.50	0.00	0.00	0.00	0.50	4.25	0.50	0.00	0.25	-0.165527	0.125977	0.965332	-6.930000	-3.290000	0.700000	625.00	-0.22	-0.14
0.38	3.00	1.50	2.75	2.00	1.50	0.00	0.00	0.00	0.00	1.25	0.00	0.00	0.00	0.50	0.00	0.00	-0.254395	0.053711	0.944336	-7.630000	5.040000	-2.940000	131.00	-0.23	0.01	11.00	8.75	7.25	9.00	2.75	8.25	0.00	5.50	0.00	0.25	0.00	0.75	4.00	0.75	0.00	0.00	-0.165527	0.126953	0.966797	-7.630000	-3.500000	0.490000	629.00	-0.22	-0.14
0.39	3.00	1.25	2.50	1.75	1.50	0.00	0.00	0.00	0.00	1.25	0.25	0.00	0.00	0.75	0.00	0.00	-0.244141	0.052734	0.941895	-6.020000	4.480000	-2.380000	128.00	-0.20	0.02	11.00	9.00	7.00	8.75	2.75	8.25	0.00	5.50	0.00	0.00	0.00	0.00	4.00	1.00	0.00	0.00	-0.164062	0.121094	0.970703	-7.840000	-3.640000	0.350000	618.00	-0.22	-0.14
0.40	3.00	1.50	2.75	1.75	1.25	0.00	0.00	0.00	0.00	1.25	0.25	0.00	0.25	0.75	0.00	0.00	-0.247070	0.057617	0.939941	-5.040000	3.570000	-2.030000	133.00	-0.20	0.01	10.75	8.75	7.00	8.75	3.00	8.25	0.00	5.50	0.00	0.25	0.00	0.25	4.00	0.75	0.00	0.00	-0.171387	0.119629	0.973145	-8.190000	-3.570000	0.070000	619.00	-0.22	-0.14
0.41	3.00	1.75	2.75	2.25	1.50	0.00	0.00	0.00	0.00	1.00	0.25	0.00	0.00	0.75	0.00	0.00	-0.244629	0.059570	0.946289	-4.200000	3.150000	-1.750000	138.00	-0.22	0.00	10.50	9.00	7.00	8.75	3.00	8.00	0.00	5.50	0.00	0.00	0.00	0.50	3.75	0.75	0.00	0.00	-0.165039	0.119141	0.976074	-8.540000	-3.290000	-0.000000	613.00	-0.22	-0.14
0.42	3.25	1.50	3.00	1.75	1.50	0.00	0.00	0.00	0.00	1.25	0.25	0.00	0.00	0.75	0.00	0.00	-0.248047	0.055176	0.939941	-3.290000	2.240000	-1.400000	139.00	-0.21	0.02	10.25	8.50	7.00	8.75	3.25	8.00	0.00	5.25	0.00	0.25	0.00	0.50	3.75	1.00	0.00	0.00	-0.169434	0.119141	0.969727	-9.030000	-3.290000	-0.210000	610.00	-0.22	-0.14
0.43	3.25	1.50	2.75	2.00	1.50	0.00	0.00	0.25	0.00	1.25	0.25	0.00	0.00	0.75	0.00	0.00	-0.244629	0.054688	0.949707	-2.590000	1.680000	-1.400000	142.00	-0.21	0.00	10.75	8.75	7.25	8.50	3.25	8.00	0.00	5.25	0.00	0.25	0.25	0.25	4.00	1.00	0.00	0.00	-0.167969	0.119141	0.968262	-9.170000	-3.080000	-0.280000	620.00	-0.22	-0.13
0.44	3.25	1.50	3.00	2.25	1.50	0.00	0.00	0.00	0.00	1.25	0.25	0.00	0.25	0.75	0.00	0.00	-0.239258	0.060547	0.946289	-2.030000	1.610000	-1.330000	146.00	-0.21	0.00	10.50	8.75	7.25	8.50	3.25	7.75	0.00	5.25	0.00	0.25	0.00	0.50	3.75	1.00	0.00	0.00	-0.167480	0.116699	0.974609	-9.030000	-2.800000	-0.350000	612.00	-0.22	-0.13
0.45	3.25	1.75	3.00	2.00	1.75	0.00	0.00	0.25	0.00	1.25	0.25	0.00	0.25	1.00	0.00	0.00	-0.242676	0.062012	0.945801	-1.890000	1.750000	-1.330000	154.00	-0.20	-0.00	10.50	8.50	7.25	8.50	3.50	7.75	0.00	5.25	0.00	0.00	0.00	0.50	3.50	0.75	0.00	0.25	-0.167480	0.109375	0.978027	-8.680000	-2.660000	-0.210000	607.00	-0.22	-0.13
0.46	3.25	1.75	2.75	2.00	1.75	0.00	0.00	0.25	0.00	1.00	0.50	0.00	0.50	1.25	0.00	0.00	-0.237305	0.059082	0.946289	-1.750000	1.260000	-1.260000	156.00	-0.18	-0.01	10.25	8.50	7.00	8.50	3.75	7.50	0.00	5.00	0.00	0.25	0.00	0.50	3.50	1.00	0.00	0.00	-0.158691	0.115234	0.968262	-8.260000	-2.380000	-0.000000	601.00	-0.22	-0.13
0.47	3.25	1.50	3.00	2.00	1.75	0.25	0.00	0.25	0.00	1.00	0.25	0.00	0.50	1.25	0.00	0.00	-0.248535	0.070312	0.964844	-1.680000	1.190000	-1.540000	157.00	-0.19	-0.01	10.50	8.25	7.00	8.25	3.75	7.50	0.00	5.00	0.00	0.00	0.00	0.50	3.50	1.00	0.00	0.25	-0.166992	0.112793	0.968262	-8.120000	-2.100000	-0.000000	598.00	-0.22	-0.13
0.48	3.50	1.75	3.00	2.25	2.00	0.25	0.00	0.25	0.00	1.00	0.25	0.00	0.50	1.25	0.00	0.00	-0.237305	0.059082	0.945312	-1.680000	0.840000	-1.540000	167.00	-0.19	-0.01	10.00	8.25	7.00	8.25	3.75	7.50	0.00	5.00	0.00	0.00	0.25	0.25	3.50	0.75	0.00	0.25	-0.170410	0.112305	0.974121	-7.980000	-1.820000	-0.000000	590.00	-0.22	-0.13
0.49	3.25	1.75	3.00	2.00	1.75	0.50	0.00	0.25	0.00	0.75	0.50	0.00	0.50	1.50	0.00	0.00	-0.239258	0.060547	0.948730	-1.400000	1.050000	-1.610000	164.00	-0.18	-0.02	9.75	8.00	7.00	8.25	3.75	7.25	0.00	5.00	0.00	0.25	0.00	0.25	3.25	1.00	0.00	0.25	-0.165527	0.110840	0.968750	-7.700000	-1.610000	-0.000000	583.00	-0.22	-0.13
0.50	3.25	1.75	3.00	2.50	1.75	0.25	0.00	0.25	0.00	1.25	0.50	0.00	0.50	1.75	0.00	0.00	-0.241211	0.062988	0.950195	-1.120000	0.910000	-1.470000	174.00	-0.17	-0.01	9.50	8.00	7.00	8.00	4.00	7.00	0.00	4.75	0.00	0.25	0.00	0.50	3.50	1.25	0.00	0.25	-0.158203	0.112305	0.975586	-7.350000	-1.540000	0.140000	580.00	-0.21	-0.13
0.51	3.00	1.75	3.00	2.25	1.75	0.50	0.00	0.50	0.00	1.00	0.25	0.00	0.75	2.00	0.25	0.00	-0.239746	0.056152	0.937988	-0.770000	1.120000	-1.470000	177.00	-0.15	-0.03	9.25	7.75	7.00	8.00	4.00	7.25	0.00	4.75	0.00	0.25	0.00	0.50	3.50	1.25	0.00	0.25	-0.167480	0.112305	0.976074	-7.070000	-1.400000	0.140000	578.00	-0.21	-0.13
0.52	3.25	1.75	2.75	2.25	2.00	0.50	0.00	0.25	0.00	1.50	0.50	0.00	0.50	2.00	0.25	0.00	-0.239746	0.055664	0.948730	-0.420000	1.120000	-1.260000	181.00	-0.14	-0.01	9.25	7.50	6.75	7.75	4.00	7.00	0.00	4.75	0.00	0.25	0.25	0.50	3.50	1.00	0.00	0.00	-0.163574	0.107910	0.967773	-6.650000	-1.330000	0.420000	567.00	-0.21	-0.13
0.53	3.25	1.50	3.00	2.50	2.00	0.50	0.00	0.50	0.00	1.00	0.50	0.00	0.75	2.00	0.25	0.00	-0.233398	0.062012	0.951660	0.070000	1.470000	-1.120000	185.00	-0.15	-0.03	8.75	7.00	6.75	7.75	4.00	6.75	0.00	4.75	0.00	0.00	0.25	0.50	3.50	1.00	0.00	0.25	-0.165527	0.109863	0.973633	-6.090000	-1.330000	0.560000	553.00	-0.21	-0.13
0.54	3.25	2.00	3.25	2.50	2.25	0.75	0.00	0.50	0.00	1.00	0.50	0.00	0.75	2.00	0.25	0.00	-0.236816	0.059082	0.954590	0.770000	2.100000	-0.770000	198.00	-0.15	-0.03	8.50	7.25	6.50	7.50	4.25	6.75	0.00	4.75	0.25	0.25	0.00	0.50	3.50	0.75	0.00	0.25	-0.171875	0.106445	0.974121	-5.880000	-1.260000	0.630000	551.00	-0.21	-0.13
0.55	3.25	1.75	3.25	2.50	2.00	1.00	0.00	0.50	0.00	1.00	0.25	0.00	0.75	2.25	0.25	0.00	-0.235352	0.062012	0.945312	0.980000	2.310000	-0.630000	195.00	-0.15	-0.03	8.25	6.75	6.50	7.50	4.25	6.75	0.00	4.50	0.00	0.25	0.25	0.25	3.00	1.00	0.00	0.00	-0.161621	0.107910	0.973633	-5.600000	-1.120000	0.560000	533.00	-0.21	-0.13
0.56	3.50	1.75	3.00	2.50	2.25	1.00	0.00	0.75	0.00	1.00	0.25	0.00	0.75	2.25	0.25	0.00	-0.238770	0.061035	0.947754	1.190000	2.520000	-0.630000	201.00	-0.15	-0.04	8.00	6.50	6.50	7.50	4.25	6.50	0.00	4.50	0.00	0.25	0.25	0.50	3.25	1.00	0.00	0.25	-0.166992	0.101074	0.971191	-5.390000	-0.910000	0.560000	532.00	-0.20	-0.13
0.57	3.25	1.50	3.25	2.50	2.00	0.75	0.00	0.75	0.00	1.00	0.50	0.00	1.00	2.25	0.25	0.00	-0.230469	0.065918	0.951172	1.400000	2.660000	-0.630000	199.00	-0.14	-0.04	7.75	6.50	6.25	7.25	4.00	6.50	0.00	4.25	0.00	0.50	0.00	0.50	3.00	1.00	0.00	0.25	-0.164551	0.108398	0.978027	-5.250000	-0.840000	0.630000	515.00	-0.20	-0.13
0.58	3.25	1.75	3.25	2.50	2.00	1.25	0.00	0.75	0.25	0.75	0.75	0.00	1.00	2.25	0.50	0.00	-0.239746	0.066895	0.950684	1.400000	3.150000	-0.560000	212.00	-0.13	-0.04	7.50	6.00	6.25	7.25	4.00	6.50	0.00	4.25	0.00	0.50	0.25	0.50	3.00	1.25	0.00	0.00	-0.171387	0.098633	0.966797	-5.250000	-0.840000	0.630000	511.00	-0.20	-0.13
0.59	3.50	2.00	3.25	2.75	2.25	1.25	0.00	0.75	0.00	0.75	0.25	0.00	1.25	2.25	0.25	0.00	-0.231445	0.066895	0.950195	1.330000	3.430000	-0.420000	214.00	-0.15	-0.05	7.25	6.00	6.00	7.00	4.00	6.25	0.00	4.00	0.00	0.50	0.25	0.75	3.25	1.00	0.00	0.25	-0.167969	0.105957	0.973633	-5.040000	-0.700000	0.630000	501.00	-0.19	-0.13
0.60	3.50	1.50	3.25	2.75	2.25	1.25	0.00	1.00	0.00	1.00	0.25	0.25	1.00	2.00	0.25	0.00	-0.228027	0.066406	0.947266	1.260000	3.780000	-0.630000	214.00	-0.14	-0.05	7.25	5.75	6.00	6.75	4.00	6.00	0.00	4.00	0.00	0.50	0.25	0.75	3.00	1.25	0.00	0.25	-0.166992	0.104980	0.970215	-4.970000	-0.770000	0.840000	493.00	-0.19	-0.13
0.61	3.50	2.00	3.25	2.75	2.25	1.50	0.00	1.00	0.00	0.75	0.25	0.00	1.00	2.25	0.25	0.00	-0.226562	0.065430	0.950195	1.120000	3.990000	-0.630000	218.00	-0.15	-0.06	7.00	5.25	5.75	6.50	4.25	6.25	0.00	4.00	0.25	0.50	0.00	0.50	3.25	1.25	0.00	0.25	-0.168457	0.105957	0.974609	-4.970000	-0.840000	0.840000	486.00	-0.19	-0.13
0.62	3.50	1.75	3.50	3.00	2.25	1.50	0.00	1.00	0.00	0.75	0.25	0.25	1.25	2.25	0.25	0.00	-0.229004	0.062500	0.945801	0.980000	4.130000	-0.770000	226.00	-0.15	-0.06	6.75	5.25	5.75	6.50	4.00	6.00	0.00	4.00	0.00	0.50	0.50	0.50	3.00	1.25	0.00	0.25	-0.171387	0.102539	0.972656	-4.830000	-0.980000	0.840000	477.00	-0.19	-0.13
0.63	3.25	1.75	3.25	3.00	2.25	1.50	0.00	1.00	0.00	1.00	0.50	0.00	1.00	2.25	0.25	0.00	-0.228027	0.062500	0.951660	0.910000	4.760000	-0.770000	221.00	-0.14	-0.06	6.50	5.00	5.50	6.00	3.75	6.00	0.00	3.75	0.00	0.50	0.25	0.50	3.00	1.25	0.00	0.25	-0.170898	0.100098	0.973145	-4.410000	-1.470000	0.980000	455.00	-0.19	-0.13
0.64	3.25	2.25	3.00	3.00	2.25	1.50	0.00	1.00	0.00	1.00	0.25	0.25	1.25	2.25	0.25	0.00	-0.228516	0.061523	0.943848	0.910000	5.040000	-0.770000	225.00	-0.14	-0.07	6.00	4.75	5.50	6.00	4.00	6.00	0.00	4.00	0.00	0.50	0.25	0.50	3.00	1.25	0.00	0.25	-0.167480	0.098145	0.972656	-4.200000	-1.540000	1.050000	454.00	-0.18	-0.13
0.65	3.25	1.75	3.25	3.00	2.25	1.75	0.00	1.25	0.00	0.75	0.25	0.25	1.25	2.25	0.25	0.00	-0.232910	0.069336	0.952637	0.700000	5.390000	-0.840000	227.00	-0.14	-0.07	6.00	4.25	5.50	6.00	4.25	6.00	0.00	4.00	0.25	0.25	0.50	0.75	3.00	1.25	0.00	0.25	-0.174805	0.104004	0.970215	-3.920000	-1.540000	1.120000	458.00	-0.17	-0.13
0.66	3.25	2.00	3.25	2.75	2.25	1.75	0.00	1.25	0.25	1.00	0.50	0.00	1.25	2.00	0.25	0.00	-0.229980	0.066895	0.945312	0.420000	5.810000	-0.910000	231.00	-0.14	-0.07	6.00	4.50	5.25	5.75	4.00	5.75	0.00	3.75	0.00	0.50	0.25	0.50	3.00	1.25	0.00	0.25	-0.166504	0.098145	0.968750	-3.570000	-1.750000	1.260000	440.00	-0.18	-0.13
0.67	3.25	1.75	3.25	3.00	2.25	1.75	0.00	1.00	0.00	0.75	0.50	0.00	1.25	2.25	0.25	0.00	-0.229004	0.064941	0.945801	0.280000	6.020000	-0.910000	223.00	-0.14	-0.07	5.75	3.75	5.25	5.75	4.00	5.50	0.00	4.00	0.00	0.50	0.50	0.50	3.00	1.50	0.00	0.25	-0.177734	0.105469	0.966797	-3.360000	-1.890000	1.330000	436.00	-0.17	-0.13
0.68	3.25	1.50	3.25	3.00	2.25	2.00	0.00	1.25	0.00	0.50	0.50	0.00	1.25	2.00	0.25	0.00	-0.230469	0.067871	0.948242	0.350000	5.950000	-0.910000	223.00	-0.15	-0.08	5.50	4.00	5.25	5.75	3.75	5.75	0.00	3.75	0.00	0.50	0.25	0.75	3.00	1.50	0.00	0.25	-0.172852	0.097656	0.968262	-3.010000	-2.100000	1.470000	432.00	-0.17	-0.13
0.69	3.25	2.25	3.00	3.00	2.25	2.00	0.00	1.25	0.00	1.00	0.75	0.25	1.25	2.25	0.25	0.00	-0.229492	0.072266	0.944336	0.350000	5.670000	-0.840000	240.00	-0.13	-0.08	5.25	4.00	5.00	5.50	4.00	5.50	0.00	3.75	0.00	0.50	0.25	0.50	2.75	1.25	0.00	0.25	-0.170898	0.105957	0.971191	-2.660000	-2.310000	1.540000	417.00	-0.17	-0.13
0.70	3.00	1.75	3.25	3.00	2.25	2.25	0.00	1.25	0.00	1.00	0.25	0.00	1.25	2.50	0.25	0.00	-0.230469	0.068359	0.950684	0.280000	5.600000	-0.910000	232.00	-0.13	-0.07	5.25	2.25	5.00	5.50	4.00	5.75	0.00	3.75	0.00	0.50	0.25	0.75	3.25	1.50	0.00	0.25	-0.173828	0.101074	0.970215	-2.520000	-2.450000	1.610000	413.00	-0.16	-0.14
0.71	3.00	2.00	3.25	2.75	2.25	2.50	0.00	1.25	0.00	1.00	0.50	0.25	1.50	2.25	0.25	0.00	-0.226074	0.071777	0.954590	-0.000000	5.740000	-0.840000	240.00	-0.13	-0.08	5.00	3.00	5.00	5.50	4.00	5.50	0.00	3.75	0.00	0.50	0.25	0.50	3.25	1.25	0.00	0.25	-0.172852	0.100098	0.971680	-2.380000	-2.520000	1.750000	410.00	-0.16	-0.14
0.72	3.25	2.00	3.00	3.00	2.25	2.25	0.00	1.25	0.00	0.75	0.50	0.25	1.50	2.25	0.25	0.00	-0.231445	0.069336	0.950684	-0.070000	6.020000	-0.980000	237.00	-0.13	-0.08	5.00	3.25	5.00	5.50	4.00	5.50	0.00	3.75	0.25	0.50	0.50	0.75	3.00	1.75	0.00	0.25	-0.171875	0.098633	0.970215	-2.240000	-2.590000	1.680000	422.00	-0.15	-0.13
0.73	3.25	1.50	3.25	3.25	2.25	2.25	0.00	1.25	0.00	0.75	0.50	0.25	1.50	2.00	0.50	0.00	-0.229492	0.067871	0.953613	-0.280000	6.090000	-0.980000	238.00	-0.13	-0.09	4.75	3.00	4.75	5.50	4.25	5.50	0.00	4.00	0.00	0.50	0.50	0.50	3.25	1.25	0.00	0.25	-0.173340	0.100586	0.966797	-2.170000	-2.590000	1.820000	413.00	-0.16	-0.14
0.74	3.25	2.00	3.00	2.75	2.25	2.50	0.00	1.25	0.00	0.75	0.75	0.25	1.50	2.00	0.50	0.00	-0.227051	0.067383	0.943848	-0.490000	6.020000	-1.120000	240.00	-0.13	-0.09	4.50	2.50	4.75	5.25	3.75	5.50	0.00	3.75	0.00	0.50	0.25	0.50	3.25	1.50	0.00	0.25	-0.176270	0.102539	0.969727	-2.030000	-2.520000	1.750000	394.00	-0.15	-0.14
0.75	3.25	1.75	3.00	2.75	2.25	2.50	0.00	1.25	0.00	1.00	0.50	0.25	1.50	2.25	0.25	0.00	-0.231934	0.070312	0.955566	-0.770000	5.880000	-1.190000	237.00	-0.13	-0.08	4.50	3.00	4.50	5.25	4.25	5.75	0.00	4.00	0.00	0.50	0.50	0.50	3.50	1.50	0.00	0.25	-0.176270	0.104004	0.973633	-2.100000	-2.520000	1.750000	412.00	-0.15	-0.15
0.76	3.00	1.75	3.00	3.00	2.25	2.25	0.00	1.50	0.00	0.75	0.50	0.50	1.50	2.00	0.25	0.00	-0.231445	0.069336	0.945312	-0.910000	6.090000	-1.190000	236.00	-0.13	-0.10	4.25	3.00	4.50	5.25	4.25	5.50	0.00	4.00	0.00	0.75	0.25	0.50	3.25	1.75	0.00	0.50	-0.173340	0.104004	0.970703	-2.100000	-2.520000	1.680000	408.00	-0.15	-0.14
0.77	2.75	1.75	3.00	2.75	2.25	2.50	0.00	1.50	0.00	0.75	0.50	0.25	1.50	2.25	0.25	0.00	-0.230469	0.069336	0.948730	-1.190000	6.160000	-1.260000	233.00	-0.12	-0.09	4.25	2.50	4.25	5.25	4.25	5.50	0.00	4.00	0.00	0.75	0.25	0.75	3.25	1.50	0.00	0.25	-0.171875	0.099609	0.976074	-1.960000	-2.520000	1.680000	400.00	-0.14	-0.15
0.78	3.00	1.75	3.00	3.00	2.25	2.50	0.00	1.50	0.00	1.00	0.50	0.25	1.75	2.25	0.25	0.00	-0.230469	0.069824	0.949707	-1.190000	6.090000	-1.260000	243.00	-0.12	-0.09	4.00	2.75	4.25	5.00	4.00	5.50	0.00	4.00	0.00	0.25	0.25	0.75	3.25	1.50	0.00	0.25	-0.172363	0.101562	0.973145	-1.960000	-2.520000	1.610000	389.00	-0.15	-0.15
0.79	2.75	1.75	3.00	2.75	2.25	2.50	0.00	1.25	0.00	1.00	0.75	0.25	1.50	2.25	0.25	0.00	-0.232910	0.064941	0.949707	-1.330000	6.300000	-1.330000	235.00	-0.12	-0.09	4.00	2.75	4.00	5.25	4.00	5.50	0.00	4.00	0.25	0.75	0.50	0.75	3.25	1.75	0.00	0.25	-0.172852	0.103516	0.969238	-2.100000	-2.660000	1.680000	402.00	-0.13	-0.15
0.80	3.00	1.75	3.00	2.75	2.00	2.75	0.00	1.50	0.00	1.00	0.75	0.25	1.75	2.00	0.50	0.00	-0.228516	0.069824	0.953613	-1.470000	6.230000	-1.400000	244.00	-0.11	-0.10	3.75	2.50	4.25	5.00	4.25	5.50	0.00	4.00	0.00	0.50	0.50	0.75	3.50	1.50	0.00	0.25	-0.168945	0.103027	0.966797	-2.100000	-2.590000	1.680000	394.00	-0.14	-0.15
0.81	2.75	1.75	3.25	2.75	2.25	2.50	0.00	1.50	0.00	1.00	0.75	0.50	1.50	2.25	0.25	0.00	-0.229492	0.068848	0.947266	-1.540000	6.160000	-1.330000	244.00	-0.11	-0.09	4.00	2.50	3.75	5.00	4.00	5.50	0.00	4.00	0.00	0.50	0.25	1.00	3.00	1.50	0.00	0.25	-0.178223	0.097656	0.967773	-2.380000	-2.660000	1.470000	384.00	-0.14	-0.15
0.82	2.75	1.50	2.75	2.75	2.25	2.75	0.00	1.50	0.25	1.25	0.50	0.50	1.75	2.50	0.25	0.00	-0.235352	0.068848	0.950195	-1.470000	5.880000	-1.260000	246.00	-0.09	-0.09	3.75	2.50	4.00	5.00	4.00	5.50	0.00	4.00	0.00	0.50	0.50	0.75	3.50	1.75	0.00	0.25	-0.174805	0.104492	0.969238	-2.310000	-2.730000	1.610000	391.00	-0.13	-0.15
0.83	2.75	1.75	3.00	2.75	2.25	2.75	0.00	1.50	0.00	1.00	0.75	0.50	1.75	2.50	0.25	0.00	-0.228516	0.071777	0.951660	-1.540000	6.020000	-1.400000	248.00	-0.10	-0.10	3.75	2.50	4.00	4.75	4.25	5.25	0.00	4.00	0.00	0.50	0.25	1.00	3.75	1.75	0.00	0.25	-0.176758	0.106445	0.974609	-2.310000	-2.590000	1.540000	390.00	-0.13	-0.15
0.84	2.75	1.75	3.00	3.00	2.25	2.75	0.00	1.50	0.00	1.00	0.75	0.25	1.75	2.25	0.50	0.00	-0.232422	0.066895	0.954102	-1.540000	6.160000	-1.470000	249.00	-0.11	-0.10	3.50	2.50	3.75	4.50	4.25	5.50	0.00	4.25	0.00	0.50	0.25	1.00	3.50	1.75	0.00	0.50	-0.172852	0.104004	0.973145	-2.380000	-2.730000	1.540000	388.00	-0.13	-0.16
0.85	2.75	1.50	3.00	2.75	2.25	3.00	0.00	1.50	0.50	1.25	0.75	0.50	1.75	2.25	0.50	0.00	-0.229492	0.069336	0.953613	-1.400000	5.950000	-1.330000	258.00	-0.09	-0.09	3.50	2.00	3.50	4.50	4.25	5.50	0.00	4.25	0.00	0.50	0.50	1.00	3.75	1.75	0.00	0.50	-0.175781	0.111328	0.974609	-2.380000	-2.730000	1.680000	385.00	-0.12	-0.16
0.86	2.75	1.50	3.00	3.00	2.25	2.50	0.00	1.25	0.00	1.00	0.75	0.25	1.50	2.25	0.25	0.00	-0.225098	0.073730	0.949707	-1.260000	5.740000	-1.400000	235.00	-0.11	-0.09	3.50	2.25	3.75	4.50	4.00	5.50	0.00	4.00	0.00	0.75	0.50	0.75	3.50	1.75	0.00	0.25	-0.176270	0.107910	0.970215	-2.380000	-2.730000	1.750000	380.00	-0.12	-0.15
0.87	2.75	1.50	2.75	3.00	2.25	2.75	0.00	1.50	0.00	1.00	0.75	0.25	1.75	2.25	0.25	0.00	-0.228027	0.068359	0.948730	-1.330000	5.600000	-1.400000	241.00	-0.11	-0.10	3.50	2.25	3.50	4.75	4.25	5.50	0.00	4.25	0.00	0.50	0.50	1.00	3.50	1.75	0.00	0.50	-0.171875	0.106445	0.968750	-2.380000	-2.730000	1.610000	388.00	-0.12	-0.16
0.88	2.75	1.75	3.00	3.00	2.25	3.00	0.00	1.50	0.00	0.75	0.75	0.25	1.50	2.25	0.50	0.00	-0.225098	0.070312	0.948730	-1.400000	5.460000	-1.260000	247.00	-0.12	-0.10	3.25	2.25	3.50	4.50	4.25	5.50	0.00	4.00	0.25	0.50	0.25	1.00	3.75	1.75	0.00	0.50	-0.180176	0.102539	0.976562	-2.380000	-2.730000	1.680000	382.00	-0.12	-0.16
0.89	3.00	1.75	3.25	3.00	2.25	3.00	0.00	1.50	0.00	1.00	0.75	0.25	1.75	2.25	0.50	0.00	-0.228516	0.063477	0.948242	-1.540000	5.600000	-1.400000	257.00	-0.11	-0.10	3.25	2.25	3.50	4.75	4.25	5.50	0.00	4.00	0.25	0.50	0.25	1.00	3.75	1.75	0.00	0.25	-0.174316	0.101074	0.976074	-2.310000	-2.590000	1.750000	383.00	-0.12	-0.16
0.90	3.00	1.50	3.00	3.25	2.25	3.00	0.00	1.50	0.00	1.00	0.75	0.25	1.50	2.25	0.50	0.00	-0.229492	0.064941	0.955078	-1.190000	5.320000	-1.260000	252.00	-0.11	-0.10	3.25	2.00	3.75	4.50	4.00	5.50	0.00	4.25	0.25	0.75	0.50	0.75	3.50	1.75	0.00	0.50	-0.178223	0.105469	0.968750	-2.310000	-2.730000	1.820000	384.00	-0.11	-0.16
0.91	3.00	1.50	3.00	3.25	2.50	3.00	0.00	1.50	0.00	1.00	0.50	0.25	1.50	2.25	0.25	0.00	-0.228516	0.069824	0.954102	-0.560000	5.320000	-1.050000	250.00	-0.12	-0.09	3.25	2.00	3.50	4.50	4.25	5.50	0.00	4.25	0.00	0.50	0.25	0.75	3.75	1.50	0.00	0.25	-0.180176	0.106934	0.972656	-2.380000	-2.730000	1.820000	374.00	-0.13	-0.16
0.92	3.00	1.75	3.25	3.00	2.25	3.25	0.00	1.50	0.25	0.75	0.50	0.50	1.50	2.50	0.25	0.00	-0.233887	0.068359	0.950195	0.280000	5.110000	-0.700000	258.00	-0.12	-0.09	3.25	2.00	3.50	4.50	4.00	5.50	0.00	4.25	0.00	0.50	0.50	1.00	3.75	2.00	0.00	0.25	-0.172363	0.100098	0.971191	-2.310000	-2.590000	1.820000	381.00	-0.11	-0.16
0.93	3.00	1.75	3.00	3.00	2.25	3.00	0.00	1.50	0.00	0.75	0.50	0.25	1.50	2.00	0.50	0.00	-0.229492	0.071777	0.945312	0.910000	5.040000	-0.560000	245.00	-0.13	-0.10	3.00	2.00	3.50	4.50	4.25	5.25	0.00	4.25	0.00	0.50	0.50	0.75	3.75	1.75	0.00	0.25	-0.178223	0.104004	0.972656	-2.240000	-2.590000	1.890000	373.00	-0.12	-0.16
0.94	3.00	1.75	3.00	3.25	2.25	3.00	0.00	1.75	0.00	1.00	0.50	0.50	1.50	2.00	0.25	0.00	-0.225586	0.075684	0.949707	0.840000	4.970000	-0.560000	254.00	-0.12	-0.11	3.25	2.00	3.25	4.25	4.00	5.50	0.00	4.25	0.25	0.50	0.25	0.75	3.50	1.75	0.00	0.50	-0.175781	0.105469	0.967285	-2.380000	-2.660000	1.890000	370.00	-0.12	-0.16
0.95	3.25	2.00	3.25	3.25	2.25	3.50	0.00	1.50	0.00	0.75	0.25	0.25	1.50	2.25	0.25	0.00	-0.230957	0.074219	0.946777	0.560000	4.620000	-0.630000	257.00	-0.14	-0.10	3.25	2.00	3.25	4.50	4.25	5.50	0.00	4.25	0.25	0.50	0.50	1.00	3.50	1.50	0.00	0.25	-0.178711	0.105957	0.971191	-2.380000	-2.520000	1.820000	378.00	-0.12	-0.16
0.96	3.50	2.25	3.25	3.25	2.25	3.75	0.00	1.75	0.00	0.75	0.50	0.25	1.50	2.00	0.25	0.00	-0.223633	0.063965	0.948730	0.910000	4.340000	-0.210000	269.00	-0.14	-0.11	3.00	2.00	3.50	4.50	3.75	5.50	0.00	4.00	0.25	0.50	0.50	0.75	3.50	1.75	0.00	0.25	-0.173828	0.104004	0.970703	-2.380000	-2.590000	1.960000	368.00	-0.12	-0.16
0.97	3.25	2.00	3.25	3.50	2.25	3.75	0.00	1.75	0.25	0.75	0.50	0.25	1.75	2.25	0.25	0.00	-0.230469	0.071777	0.950195	1.120000	4.130000	-0.140000	275.00	-0.13	-0.10	3.00	1.75	3.25	4.25	4.00	5.25	0.00	4.00	0.00	0.50	0.25	0.75	3.50	1.50	0.00	0.50	-0.175293	0.101562	0.967773	-2.380000	-2.380000	1.890000	353.00	-0.12	-0.16
0.98	3.50	2.50	3.50	3.50	2.25	3.75	0.00	1.75	0.00	0.75	0.50	0.25	1.50	1.75	0.25	0.00	-0.228027	0.075684	0.955566	1.330000	4.410000	-0.210000	275.00	-0.15	-0.11	3.00	2.00	3.50	4.25	3.75	5.25	0.00	4.25	0.00	0.75	0.25	0.75	3.50	1.75	0.00	0.25	-0.172852	0.107422	0.966797	-2.520000	-2.240000	1.890000	363.00	-0.12	-0.16
0.99	3.75	2.50	3.25	3.75	2.25	3.75	0.00	1.75	0.00	0.75	0.50	0.00	1.75	1.75	0.25	0.00	-0.228516	0.074219	0.948730	1.750000	4.200000	-0.140000	277.00	-0.16	-0.11	3.25	2.00	3.50	4.50	3.75	5.25	0.00	4.00	0.00	0.75	0.50	1.00	3.50	1.75	0.00	0.50	-0.170898	0.106445	0.977051	-2.660000	-2.030000	1.820000	371.00	-0.12	-0.16
1.00	3.75	2.50	3.50	4.00	2.25	4.00	0.00	1.75	0.00	0.50	0.50	0.00	1.75	1.75	0.25	0.00	-0.226562	0.074219	0.947754	1.610000	4.060000	-0.210000	283.00	-0.16	-0.11	3.00	1.75	3.50	4.25	3.75	5.25	0.00	4.00	0.00	0.50	0.50	0.75	3.50	1.75	0.00	0.25	-0.179199	0.105469	0.980469	-2.730000	-1.960000	1.820000	357.00	-0.12	-0.16
1.01	4.25	2.75	3.75	4.00	2.25	4.25	0.00	2.00	0.00	0.75	0.50	0.25	1.75	1.75	0.25	0.00	-0.229492	0.074219	0.947754	1.680000	3.640000	-0.070000	305.00	-0.16	-0.11	3.00	2.00	3.50	4.50	3.50	5.25	0.00	3.75	0.00	0.25	0.25	0.75	3.50	1.75	0.00	0.50	-0.178223	0.102539	0.975098	-2.590000	-1.890000	1.820000	352.00	-0.12	-0.16
1.02	4.50	3.00	3.75	4.00	2.00	4.25	0.00	2.00	0.00	0.50	0.50	0.25	1.50	1.50	0.00	0.00	-0.230469	0.073730	0.950195	1.820000	3.780000	0.000000	297.00	-0.18	-0.11	2.75	1.75	3.25	4.25	3.50	5.00	0.00	3.75	0.00	0.50	0.25	0.75	3.25	1.75	0.00	0.25	-0.176758	0.099609	0.975098	-2.800000	-1.890000	2.100000	337.00	-0.12	-0.16
1.03	4.50	3.25	3.75	4.75	2.25	4.75	0.00	2.00	0.00	0.50	0.25	0.00	1.50	1.75	0.25	0.00	-0.222168	0.077637	0.950195	1.540000	3.780000	0.000000	316.00	-0.18	-0.11	2.75	2.00	3.00	4.25	3.50	5.00	0.00	3.75	0.00	0.50	0.50	0.75	3.25	1.50	0.00	0.50	-0.182617	0.107910	0.969727	-2.800000	-1.960000	2.240000	339.00	-0.12	-0.17
1.04	4.75	3.50	4.00	4.50	2.25	4.50	0.00	2.00	0.00	0.75	0.50	0.00	1.75	1.25	0.00	0.00	-0.228516	0.075684	0.951660	1.610000	3.850000	0.000000	318.00	-0.19	-0.11	3.00	1.75	3.25	4.25	3.25	5.00	0.00	3.50	0.00	0.50	0.25	0.75	3.00	1.50	0.00	0.25	-0.178223	0.102539	0.972168	-3.080000	-1.890000	2.170000	329.00	-0.13	-0.16
1.05	5.50	3.75	4.00	4.75	2.25	5.00	0.00	2.25	0.00	0.50	0.25	0.00	1.75	1.25	0.25	0.00	-0.217773	0.077148	0.953613	1.680000	3.780000	0.140000	338.00	-0.20	-0.12	3.00	2.00	3.25	4.25	3.25	4.75	0.00	3.50	0.00	0.50	0.25	0.75	3.00	1.25	0.00	0.25	-0.180176	0.101074	0.968750	-3.220000	-1.820000	2.240000	327.00	-0.13	-0.16
1.06	5.50	3.75	4.00	5.00	2.25	5.25	0.00	2.25	0.00	0.50	0.25	0.25	1.75	1.50	0.25	0.00	-0.230469	0.083008	0.951660	1.330000	4.060000	0.000000	348.00	-0.19	-0.12	3.00	2.00	3.25	4.25	3.25	4.75	0.00	3.25	0.00	0.25	0.25	0.50	2.50	1.50	0.00	0.25	-0.169434	0.101074	0.974609	-3.290000	-1.750000	2.170000	315.00	-0.14	-0.15
1.07	5.75	3.75	4.25	5.00	2.25	5.25	0.00	2.00	0.00	0.50	0.25	0.00	1.50	1.25	0.00	0.00	-0.228027	0.075195	0.958008	1.820000	4.410000	0.000000	340.00	-0.21	-0.11	3.25	1.75	3.25	4.25	3.25	4.75	0.00	3.25	0.00	0.25	0.25	0.50	2.75	1.25	0.00	0.25	-0.177734	0.102051	0.976074	-3.570000	-1.680000	2.100000	316.00	-0.14	-0.15
1.08	6.50	4.00	4.25	5.25	2.25	5.50	0.00	2.25	0.00	0.50	0.25	0.00	1.50	1.00	0.25	0.00	-0.227051	0.078613	0.950684	2.240000	4.760000	0.140000	360.00	-0.21	-0.11	3.25	2.25	3.25	4.25	3.00	4.50	0.00	3.00	0.00	0.50	0.25	0.75	2.50	1.25	0.00	0.00	-0.172852	0.096680	0.962891	-3.710000	-1.750000	2.100000	313.00	-0.15	-0.15
1.09	6.25	4.50	4.25	5.25	2.25	5.75	0.00	2.25	0.00	0.50	0.50	0.00	1.50	1.25	0.00	0.00	-0.223145	0.083008	0.951172	2.310000	4.480000	0.070000	367.00	-0.21	-0.11	3.25	2.00	3.25	4.00	3.00	4.25	0.00	2.75	0.00	0.50	0.00	0.25	2.50	1.00	0.00	0.25	-0.176270	0.103027	0.965820	-3.710000	-1.820000	2.240000	293.00	-0.16	-0.14
1.10	7.00	4.75	4.50	5.50	2.25	6.00	0.00	2.25	0.00	0.50	0.00	0.00	1.50	1.00	0.00	0.00	-0.223145	0.081543	0.957520	2.520000	4.270000	0.210000	378.00	-0.22	-0.11	3.25	2.00	3.25	4.00	3.00	4.00	0.00	2.75	0.00	0.25	0.00	0.50	2.00	1.00	0.00	0.25	-0.175293	0.094727	0.975098	-3.150000	-1.610000	2.310000	286.00	-0.16	-0.14
1.11	7.00	5.00	4.25	5.50	2.25	6.25	0.00	2.25	0.00	0.25	0.25	0.00	1.50	1.25	0.25	0.00	-0.223633	0.083496	0.952637	2.240000	4.550000	0.280000	385.00	-0.22	-0.11	3.25	1.75	3.25	4.00	2.75	4.00	0.00	2.50	0.00	0.25	0.25	0.00	2.25	1.25	0.00	0.00	-0.182617	0.097656	0.968262	-2.660000	-1.610000	2.240000	277.00	-0.16	-0.14
1.12	7.50	5.25	4.50	5.50	2.25	6.25	0.00	2.25	0.00	0.25	0.00	0.00	1.50	1.00	0.00	0.00	-0.219727	0.079590	0.954102	2.240000	4.760000	0.210000	388.00	-0.23	-0.11	3.25	2.00	3.50	4.00	2.75	3.75	0.00	2.50	0.00	0.25	0.00	0.25	2.00	1.25	0.00	0.00	-0.168945	0.097656	0.968750	-2.170000	-1.680000	2.380000	277.00	-0.17	-0.13
1.13	7.75	5.25	4.50	5.50	2.25	6.25	0.00	2.25	0.00	0.50	0.25	0.00	1.50	0.75	0.00	0.00	-0.229492	0.076660	0.950195	2.450000	4.760000	0.210000	393.00	-0.23	-0.11	3.25	2.00	3.25	4.00	2.75	3.75	0.00	2.25	0.00	0.25	0.25	0.25	2.00	1.25	0.00	0.00	-0.176758	0.098145	0.967285	-1.750000	-1.610000	2.520000	273.00	-0.16	-0.13
1.14	8.00	5.50	5.00	5.75	2.25	6.50	0.00	2.25	0.00	0.00	0.00	0.00	1.50	0.75	0.00	0.00	-0.217285	0.086426	0.946289	2.660000	4.550000	0.210000	401.00	-0.24	-0.11	3.25	2.25	3.25	4.25	2.75	3.75	0.00	2.25	0.00	0.00	0.25	0.25	2.00	1.00	0.00	0.25	-0.175781	0.100098	0.970703	-1.260000	-1.680000	2.450000	275.00	-0.17	-0.14
1.15	8.50	5.50	4.75	5.75	2.25	6.50	0.00	2.00	0.00	0.25	0.00	0.00	1.50	1.00	0.00	0.00	-0.213379	0.086426	0.941895	2.380000	4.480000	0.140000	405.00	-0.24	-0.10	3.50	2.25	3.25	4.25	2.50	3.25	0.00	2.25	0.00	0.25	0.00	0.00	1.75	1.00	0.00	0.00	-0.184570	0.096191	0.974609	-0.140000	-1.890000	2.660000	263.00	-0.19	-0.13
1.16	8.75	6.00	5.00	6.25	2.25	6.75	0.00	2.25	0.00	0.25	0.25	0.00	1.25	0.75	0.00	0.00	-0.213867	0.083984	0.942383	1.400000	4.760000	-0.140000	425.00	-0.24	-0.11	3.50	2.00	3.50	4.50	2.50	3.50	0.00	2.00	0.00	0.25	0.00	0.25	1.25	0.75	0.00	0.00	-0.183594	0.106934	0.974609	0.910000	-1.960000	2.800000	261.00	-0.19	-0.12
1.17	9.00	6.25	5.00	6.25	2.25	6.75	0.00	2.25	0.00	0.25	0.00	0.00	1.50	1.00	0.00	0.00	-0.216309	0.084473	0.951660	0.420000	4.970000	-0.630000	431.00	-0.24	-0.11	3.50	2.25	3.25	4.25	2.25	3.00	0.00	2.00	0.00	0.00	0.00	0.25	1.75	0.75	0.00	0.00	-0.178223	0.105957	0.970215	1.470000	-1.960000	2.800000	252.00	-0.19	-0.13
1.18	9.25	6.25	5.00	6.75	2.25	6.75	0.00	2.00	0.00	0.25	0.25	0.00	1.25	0.75	0.00	0.00	-0.214844	0.089844	0.950684	-0.420000	5.530000	-0.910000	434.00	-0.25	-0.10	3.50	2.25	3.25	4.00	2.25	3.00	0.00	2.00	0.00	0.25	0.00	0.25	1.25	0.75	0.00	0.00	-0.173828	0.074219	0.963867	1.470000	-2.030000	2.520000	247.00	-0.20	-0.12
1.19	9.50	7.00	5.25	6.75	2.25	6.75	0.00	2.25	0.00	0.25	0.00	0.00	1.25	0.75	0.00	0.00	-0.214844	0.092773	0.944336	-1.610000	5.810000	-1.120000	448.00	-0.25	-0.11	3.50	2.00	3.50	4.00	2.25	2.75	0.00	1.75	0.00	0.00	0.00	0.25	1.50	0.75	0.00	0.00	-0.182617	0.102051	0.972656	1.400000	-2.310000	2.520000	241.00	-0.20	-0.12
1.20	9.50	7.00	5.25	6.75	2.50	6.75	0.00	2.25	0.00	0.25	0.25	0.00	1.50	0.50	0.00	0.00	-0.208008	0.088379	0.946777	-2.800000	5.880000	-1.330000	453.00	-0.25	-0.11	3.50	2.25	3.25	4.00	2.25	3.00	0.00	1.75	0.00	0.00	0.00	0.00	1.25	0.50	0.00	0.25	-0.177734	0.104004	0.971191	1.680000	-2.660000	2.520000	237.00	-0.21	-0.12
1.21	9.75	7.25	5.25	6.75	2.25	7.00	0.00	2.25	0.00	0.00	0.00	0.00	1.25	1.00	0.00	0.00	-0.215332	0.084961	0.949219	-4.060000	6.370000	-1.610000	455.00	-0.25	-0.10	4.00	2.25	3.25	4.00	2.25	2.50	0.00	1.75	0.00	0.00	0.00	0.00	1.00	0.75	0.00	0.00	-0.185059	0.107422	0.977539	2.310000	-3.150000	2.660000	236.00	-0.22	-0.11
1.22	9.75	7.50	5.50	6.75	2.25	6.75	0.00	2.25	0.00	0.25	0.00	0.00	1.25	0.75	0.00	0.00	-0.217773	0.083984	0.946777	-5.180000	6.790000	-1.960000	458.00	-0.25	-0.10	4.00	2.50	3.25	4.25	2.00	2.50	0.00	1.50	0.00	0.00	0.00	0.00	1.25	0.50	0.00	0.00	-0.185059	0.113281	0.978027	4.410000	-3.500000	2.870000	234.00	-0.23	-0.11
1.23	9.50	7.25	5.50	6.75	2.25	6.75	0.00	2.00	0.00	0.25	0.00	0.00	1.50	0.75	0.00	0.00	-0.210938	0.084961	0.948242	-6.300000	7.280000	-2.310000	451.00	-0.25	-0.10	4.00	2.75	3.50	4.25	2.00	2.50	0.00	1.50	0.00	0.00	0.00	0.25	1.00	0.50	0.00	0.00	-0.178223	0.112793	0.959961	6.720000	-3.990000	3.150000	240.00	-0.23	-0.11
1.24	9.25	7.00	5.50	6.50	2.50	6.50	0.00	2.25	0.00	0.50	0.25	0.00	1.25	0.50	0.00	0.00	-0.217773	0.087891	0.949707	-7.070000	7.770000	-2.520000	448.00	-0.25	-0.10	4.00	2.50	3.50	4.00	2.00	2.50	0.00	1.50	0.00	0.00	0.00	0.00	1.00	0.25	0.00	0.00	-0.171387	0.111328	0.965332	6.020000	-4.130000	3.080000	230.00	-0.24	-0.11
1.25	9.50	7.00	5.25	6.50	2.50	6.50	0.00	2.00	0.00	0.25	0.00	0.00	1.25	0.75	0.00	0.00	-0.217773	0.086914	0.947754	-7.700000	8.120000	-2.730000	441.00	-0.25	-0.10	4.00	2.75	3.50	4.50	2.00	2.75	0.00	1.50	0.00	0.00	0.00	0.00	1.00	0.50	0.00	0.00	-0.178223	0.111328	0.958496	3.920000	-3.850000	2.940000	243.00	-0.23	-0.11
1.26	9.50	7.00	5.50	6.50	2.50	6.25	0.00	1.75	0.00	0.50	0.00	0.00	1.00	0.75	0.25	0.00	-0.216797	0.083008	0.955566	-7.910000	8.260000	-2.940000	440.00	-0.25	-0.09	4.00	2.50	3.25	4.25	1.75	2.25	0.00	1.50	0.00	0.00	0.00	0.00	1.00	0.25	0.00	0.00	-0.181152	0.113770	0.963379	2.100000	-3.710000	3.080000	225.00	-0.24	-0.11
1.27	9.00	6.75	5.25	6.50	2.50	6.50	0.00	2.00	0.00	0.50	0.00	0.00	1.25	0.75	0.00	0.00	-0.218750	0.081543	0.946777	-8.260000	8.330000	-2.940000	436.00	-0.25	-0.10	4.25	2.25	3.25	4.50	1.75	2.50	0.00	1.50	0.00	0.00	0.00	0.00	1.00	0.00	0.00	0.00	-0.169922	0.108398	0.966309	1.190000	-3.710000	3.010000	228.00	-0.24	-0.11
1.28	8.75	6.75	5.50	6.25	2.50	6.25	0.00	2.00	0.00	0.25	0.25	0.00	1.00	1.00	0.00	0.00	-0.222656	0.083984	0.951172	-8.330000	8.820000	-3.220000	431.00	-0.25	-0.10	4.25	2.75	3.50	4.00	2.00	2.50	0.00	1.50	0.00	0.00	0.00	0.00	1.00	0.25	0.00	0.00	-0.168945	0.114746	0.958008	-0.210000	-3.710000	3.010000	235.00	-0.24	-0.10
1.29	9.00	6.25	5.50	6.25	2.75	6.00	0.00	1.75	0.00	0.50	0.25	0.00	1.00	1.25	0.00	0.00	-0.219727	0.074219	0.944824	-8.330000	9.170000	-3.290000	430.00	-0.24	-0.09	4.00	2.50	3.50	4.50	1.75	2.75	0.00	1.50	0.00	0.00	0.00	0.00	1.00	0.50	0.00	0.00	-0.168457	0.114258	0.958008	-2.730000	-3.290000	2.800000	238.00	-0.23	-0.11
1.30	8.75	6.25	5.25	6.00	2.75	5.75	0.00	1.75	0.00	0.25	0.25	0.00	1.00	1.25	0.00	0.00	-0.218262	0.078613	0.943359	-8.190000	8.890000	-3.220000	416.00	-0.24	-0.09	4.00	3.25	3.25	4.25	2.00	2.50	0.00	1.75	0.00	0.00	0.00	0.00	0.75	0.25	0.00	0.00	-0.177734	0.114258	0.966797	-4.060000	-3.220000	2.730000	239.00	-0.24	-0.11
1.31	8.50	6.00	5.25	6.00	2.75	5.75	0.00	1.50	0.00	0.50	0.25	0.00	1.00	1.25	0.25	0.00	-0.226074	0.073730	0.957031	-7.700000	8.750000	-3.150000	413.00	-0.24	-0.09	4.25	2.50	3.25	4.25	1.75	2.75	0.00	1.75	0.00	0.00	0.00	0.00	1.00	0.25	0.00	0.00	-0.179199	0.116211	0.969238	-5.320000	-3.010000	2.380000	236.00	-0.23	-0.12
1.32	8.00	5.50	5.25	5.75	2.75	5.75	0.00	1.50	0.00	0.50	0.25	0.00	1.00	1.50	0.00	0.00	-0.227051	0.069824	0.951660	-6.930000	8.680000	-3.010000	400.00	-0.23	-0.09	4.25	2.75	3.25	4.75	2.00	3.00	0.00	1.75	0.00	0.00	0.00	0.00	1.00	0.50	0.00	0.00	-0.187500	0.106445	0.986328	-4.970000	-3.220000	2.310000	252.00	-0.23	-0.12
1.33	8.00	5.75	5.00	5.50	2.75	5.50	0.00	1.75	0.00	0.25	0.00	0.00	1.25	1.25	0.00	0.00	-0.225586	0.069336	0.952148	-6.300000	8.680000	-2.800000	393.00	-0.24	-0.09	4.25	2.75	3.50	4.75	1.75	3.25	0.00	1.50	0.00	0.00	0.00	0.00	1.00	0.50	0.00	0.00	-0.187012	0.118164	0.972656	-3.360000	-3.640000	2.450000	251.00	-0.23	-0.11
1.34	7.50	5.50	5.00	5.50	2.75	5.25	0.00	1.50	0.00	0.50	0.00	0.00	1.00	1.25	0.25	0.00	-0.226562	0.071289	0.956543	-5.810000	8.680000	-2.730000	382.00	-0.23	-0.09	3.75	2.25	3.50	5.00	1.75	3.00	0.00	1.75	0.00	0.00	0.00	0.00	1.00	0.50	0.00	0.00	-0.182617	0.121582	0.967773	-2.730000	-4.130000	2.450000	245.00	-0.22	-0.12
1.35	7.25	5.25	4.75	5.25	2.75	5.25	0.00	1.50	0.00	0.50	0.25	0.00	1.00	1.50	0.25	0.00	-0.221680	0.073242	0.945312	-5.250000	9.240000	-2.590000	376.00	-0.22	-0.09	4.25	2.75	3.50	4.75	2.00	3.50	0.00	1.75	0.00	0.00	0.00	0.00	1.00	0.50	0.00	0.00	-0.184570	0.112793	0.967773	-3.150000	-4.200000	2.380000	260.00	-0.23	-0.12
1.36	6.75	5.00	4.75	5.25	2.75	5.00	0.00	1.25	0.00	0.50	0.25	0.00	0.75	1.50	0.00	0.00	-0.214844	0.068848	0.951172	-4.760000	9.800000	-2.520000	357.00	-0.23	-0.08	4.50	3.00	3.50	4.75	2.00	3.50	0.00	2.00	0.00	0.00	0.00	0.00	1.25	0.50	0.00	0.00	-0.173340	0.109375	0.966797	-3.990000	-4.480000	2.310000	271.00	-0.23	-0.12
1.37	6.50	4.75	4.50	5.00	2.75	4.75	0.00	1.50	0.00	0.50	0.25	0.00	1.00	1.75	0.00	0.00	-0.220703	0.072266	0.947754	-4.200000	10.570000	-2.310000	352.00	-0.22	-0.09	4.50	3.00	3.75	4.50	1.75	3.50	0.00	2.00	0.00	0.00	0.00	0.00	1.00	0.50	0.00	0.00	-0.181152	0.115234	0.971680	-4.480000	-4.270000	2.240000	266.00	-0.23	-0.12
1.38	5.75	4.00	4.00	5.00	2.50	4.25	0.00	1.25	0.00	0.50	0.25	0.00	1.00	1.75	0.25	0.00	-0.223633	0.071289	0.951660	-3.430000	11.970000	-2.380000	322.00	-0.21	-0.09	4.25	2.50	3.50	4.75	2.00	4.00	0.00	2.00	0.00	0.00	0.00	0.00	1.25	0.50	0.00	0.00	-0.175781	0.110352	0.963379	-5.180000	-4.060000	2.380000	269.00	-0.22	-0.13
1.39	5.00	3.00	3.50	4.25	2.25	4.00	0.00	1.25	0.00	0.75	0.25	0.00	1.00	1.75	0.25	0.00	-0.226562	0.069336	0.957520	-2.870000	15.680000	-2.800000	289.00	-0.19	-0.09	4.50	3.00	3.50	5.00	2.25	4.00	0.00	2.25	0.00	0.00	0.00	0.25	1.25	0.25	0.00	0.00	-0.181641	0.107422	0.976562	-5.040000	-3.990000	2.590000	286.00	-0.22	-0.13
1.40	4.00	2.50	3.25	3.50	2.00	3.50	0.00	1.25	0.00	0.75	0.25	0.00	1.25	2.00	0.25	0.00	-0.222168	0.067383	0.949707	-2.030000	18.270000	-2.940000	259.00	-0.17	-0.09	4.50	3.25	3.75	5.25	2.25	4.50	0.00	2.25	0.00	0.00	0.00	0.00	1.75	0.50	0.00	0.00	-0.176270	0.113281	0.965820	-4.200000	-4.410000	2.730000	303.00	-0.22	-0.13
1.41	2.75	1.75	2.50	2.75	1.75	3.00	0.00	1.00	0.00	0.75	0.50	0.00	1.00	2.25	0.25	0.00	-0.202637	0.078125	0.970703	-0.560000	21.210001	-3.920000	213.00	-0.13	-0.09	4.50	3.25	3.25	5.00	2.25	4.50	0.00	2.50	0.00	0.00	0.00	0.25	1.50	0.50	0.00	0.00	-0.170410	0.105957	0.961914	-3.220000	-4.410000	2.870000	299.00	-0.21	-0.14
1.42	2.00	1.25	2.00	2.25	1.50	2.50	0.00	0.75	0.00	0.75	0.25	0.25	1.25	2.50	0.25	0.00	-0.227539	0.111816	0.982910	1.400000	26.250000	-6.650000	182.00	-0.10	-0.09	4.75	3.50	4.00	5.25	2.25	4.75	0.00	2.50	0.00	0.00	0.00	0.25	1.50	0.50	0.00	0.00	-0.170898	0.105957	0.966309	-3.220000	-4.760000	3.080000	318.00	-0.22	-0.13
1.43	1.50	0.75	1.25	1.75	1.00	1.75	0.00	0.75	0.00	1.00	0.75	0.25	1.25	2.00	0.50	0.00	-0.151855	0.095215	1.010254	6.370000	35.700001	-10.290000	151.00	-0.05	-0.10	4.75	3.50	4.00	5.50	2.50	5.00	0.00	2.75	0.00	0.00	0.00	0.25	1.75	0.50	0.00	0.00	-0.184570	0.104492	0.966797	-2.520000	-6.230000	3.500000	332.00	-0.21	-0.14
1.44	1.00	0.50	0.75	1.00	0.50	1.00	0.00	0.75	0.00	1.00	0.75	0.25	1.25	2.25	0.25	0.00	-0.216797	0.127930	1.071777	19.950001	58.520000	-15.400000	116.00	0.01	-0.10	5.00	3.75	4.25	5.75	2.50	5.25	0.00	2.75	0.00	0.25	0.00	0.50	1.75	0.50	0.00	0.00	-0.183594	0.103027	0.977051	-0.840000	-7.490000	4.060000	350.00	-0.21	-0.14
1.45	0.75	0.25	0.00	1.00	0.00	0.25	0.00	0.50	0.00	0.75	1.00	0.25	1.25	2.25	0.25	0.00	-0.292969	0.152832	1.083008	47.389999	115.150002	-18.270000	85.00	0.09	-0.11	5.25	4.25	4.25	5.50	2.50	6.25	0.00	3.25	0.00	0.25	0.00	0.00	2.00	0.50	0.00	0.00	-0.177246	0.105469	0.953613	1.050000	-9.100000	4.620000	370.00	-0.21	-0.14
1.46	0.75	0.25	0.00	0.50	0.00	0.25	0.00	0.25	0.00	0.50	0.50	0.25	1.00	2.00	0.25	0.00	-0.104004	0.094727	1.768555	45.009998	195.440002	-20.510000	63.00	0.10	-0.08	5.50	4.50	4.25	5.75	2.75	6.50	0.00	3.50	0.00	0.25	0.00	0.50	2.25	0.50	0.00	0.00	-0.160156	0.112793	0.954590	1.750000	-10.990000	5.040000	395.00	-0.20	-0.15
1.47	0.50	0.00	0.00	0.25	0.00	0.00	0.00	0.00	0.00	0.50	0.50	0.25	0.75	1.75	0.25	0.00	-0.357422	0.202637	1.353516	36.119999	255.430008	-16.170000	45.00	0.00	0.00	6.25	5.00	4.50	6.25	3.00	7.50	0.00	4.00	0.00	0.25	0.00	0.50	2.75	0.75	0.00	0.00	-0.176270	0.108887	0.970215	2.310000	-12.600000	5.180000	443.00	-0.20	-0.15
1.48	0.25	0.00	0.00	0.00	0.00	0.00	0.00	0.00	0.00	0.50	0.25	0.00	0.50	1.00	0.25	0.00	-0.391113	0.410645	1.758301	36.330002	286.369995	-28.770000	26.00	0.00	0.00	7.00	5.50	5.00	6.75	3.25	7.75	0.00	5.00	0.00	0.25	0.25	0.50	3.00	0.50	0.00	0.00	-0.168457	0.108398	0.959961	3.500000	-13.720000	5.390000	490.00	-0.20	-0.15
1.49	0.25	0.00	0.00	0.25	0.00	0.00	0.00	0.00	0.00	0.50	0.25	0.25	0.00	1.00	0.00	0.00	-0.315430	0.275391	1.781250	54.180000	291.690002	-42.209999	24.00	0.00	0.00	7.50	5.75	5.25	7.50	4.00	8.50	0.00	5.50	0.00	0.25	0.25	0.50	3.25	0.50	0.00	0.00	-0.164551	0.114746	0.967773	4.830000	-14.980000	5.600000	534.00	-0.20	-0.16
1.50	0.25	0.00	0.00	0.00	0.00	0.00	0.00	0.00	0.00	0.25	0.25	0.00	0.00	0.50	0.00	0.00	-0.520996	0.214355	1.770996	42.139999	283.360016	-54.040001	12.00	0.00	0.00	8.25	6.25	5.25	8.00	4.50	9.00	0.00	6.25	0.00	0.25	0.25	0.50	3.75	0.50	0.00	0.25	-0.177246	0.119141	0.974121	5.670000	-15.540000	5.600000	580.00	-0.19	-0.16
1.51	0.00	0.00	0.00	0.00	0.00	0.00	0.00	0.00	0.00	0.25	0.00	0.00	0.00	0.25	0.00	0.00	-0.579102	0.501465	1.691406	32.759998	289.519989	-61.950001	5.00	0.00	0.00	8.75	7.50	5.50	8.25	5.00	9.50	0.00	6.50	0.00	0.25	0.25	0.75	4.00	0.50	0.00	0.00	-0.163574	0.124512	0.976074	5.950000	-15.260000	5.460000	621.00	-0.19	-0.16
1.52	0.00	0.00	0.00	0.00	0.00	0.00	0.00	0.00	0.00	0.00	0.00	0.00	0.00	0.00	0.00	0.00	-0.477539	0.536133	2.299805	52.990002	277.690002	-66.779999	0.00	0.00	0.00	9.50	8.50	6.25	8.75	5.25	10.00	0.00	6.75	0.00	0.25	0.50	1.00	4.50	0.50	0.00	0.25	-0.154785	0.119141	0.968750	5.880000	-14.630000	5.320000	674.00	-0.19	-0.16
1.53	0.00	0.00	0.00	0.00	0.00	0.00	0.00	0.00	0.00	0.00	0.00	0.00	0.00	0.00	0.00	0.00	-0.202637	0.318848	2.109375	72.730003	222.460007	-81.480003	0.00	0.00	0.00	9.75	8.75	6.25	9.00	5.75	10.25	0.00	7.50	0.00	0.25	0.50	1.00	5.00	0.50	0.00	0.25	-0.154785	0.123535	0.970215	5.600000	-13.370000	4.830000	706.00	-0.19	-0.16
1.54	0.25	0.00	0.00	0.00	0.00	0.25	0.00	0.00	0.00	0.00	0.00	0.00	0.00	0.00	0.00	0.00	1.499023	-0.170898	1.950195	53.549999	186.479996	-94.290001	5.00	0.00	0.00	10.00	8.75	6.75	9.25	5.75	10.75	0.00	7.50	0.00	0.50	0.75	1.00	5.25	0.75	0.00	0.25	-0.140625	0.117188	0.956543	6.090000	-11.830000	4.410000	732.00	-0.19	-0.16
1.55	0.00	0.00	0.25	0.00	0.00	0.00	0.00	0.00	0.00	0.00	0.00	0.00	0.00	0.00	0.00	0.00	0.526367	0.604492	2.520020	3.990000	135.800003	-100.590004	3.00	0.00	0.00	10.50	9.25	6.50	9.25	6.25	11.25	0.00	7.75	0.25	0.50	0.75	1.50	5.50	0.50	0.00	0.25	-0.142090	0.122070	0.979004	7.140000	-10.080000	4.130000	762.00	-0.18	-0.16
1.56	0.25	0.00	0.00	0.00	0.00	0.00	0.00	0.00	0.00	0.00	0.00	0.00	0.00	0.00	0.00	0.00	1.254883	0.204590	1.658203	1.260000	64.750000	-90.370003	3.00	0.00	0.00	10.50	9.00	6.50	9.25	6.25	11.75	0.00	8.25	0.00	0.50	0.75	1.75	6.25	1.00	0.00	0.50	-0.149414	0.130371	0.981445	8.190000	-7.840000	3.850000	784.00	-0.17	-0.16
1.57	0.00	0.00	0.00	0.00	0.00	0.00	0.00	0.00	0.00	0.00	0.00	0.00	0.00	0.00	0.00	0.00	1.034180	0.329590	1.041992	11.830000	27.719999	-82.389999	0.00	0.00	0.00	10.00	9.00	6.25	9.50	6.50	12.00	0.00	8.50	0.00	0.75	1.00	1.75	7.00	0.75	0.00	0.25	-0.145508	0.129395	0.968750	9.100000	-6.020000	3.640000	797.00	-0.17	-0.17
1.58	0.00	0.00	0.00	0.00	0.00	0.00	0.00	0.00	0.00	0.00	0.00	0.00	0.00	0.00	0.00	0.00	1.029297	0.268066	0.822266	27.650000	20.090000	-72.660004	0.00	0.00	0.00	9.50	8.75	6.25	9.50	6.75	12.25	0.00	8.75	0.00	0.50	1.00	1.75	7.50	1.00	0.00	0.50	-0.150879	0.136230	0.984863	9.590000	-4.130000	3.220000	804.00	-0.16	-0.17
1.59	0.00	0.00	0.00	0.00	0.00	0.00	0.00	0.00	0.00	0.00	0.00	0.00	0.00	0.00	0.00	0.00	1.042969	0.239258	1.055176	32.130001	9.030000	-60.480000	0.00	0.00	0.00	9.00	8.25	6.00	9.25	6.50	12.50	0.00	9.00	0.25	1.00	1.25	2.25	8.00	1.00	0.00	0.75	-0.148926	0.137695	0.980469	9.870000	-1.820000	2.940000	814.00	-0.15	-0.18
1.60	0.00	0.00	0.00	0.00	0.00	0.00	0.00	0.00	0.00	0.00	0.00	0.00	0.00	0.00	0.00	0.00	1.086426	0.173340	1.019043	31.360001	-42.840000	-30.520000	0.00	0.00	0.00	8.25	7.75	5.75	9.00	6.50	12.75	0.00	9.00	0.25	1.00	1.25	2.50	8.25	1.00	0.00	0.75	-0.145508	0.138672	0.979492	10.150000	0.490000	2.870000	804.00	-0.14	-0.18
1.61	0.25	0.00	0.00	0.00	0.00	0.00	0.00	0.00	0.00	0.00	0.00	0.00	0.00	0.00	0.00	0.00	1.033203	0.107422	0.929688	32.200001	-63.910000	-16.450001	3.00	0.00	0.00	7.25	7.00	5.25	8.50	6.25	13.00	0.00	9.25	0.00	1.00	1.50	3.00	8.50	1.25	0.00	0.75	-0.155762	0.138672	0.987793	10.220000	3.150000	2.660000	788.00	-0.13	-0.19
1.62	0.25	0.00	0.00	0.25	0.00	0.00	0.00	0.00	0.00	0.00	0.00	0.00	0.00	0.00	0.00	0.00	0.979492	0.039551	0.940918	33.740002	-80.360001	-3.990000	5.00	0.00	0.00	6.50	6.25	4.75	8.00	6.00	13.00	0.00	9.50	0.00	1.00	1.75	3.25	9.00	1.25	0.00	0.75	-0.165039	0.149414	0.979492	9.450000	7.910000	2.030000	773.00	-0.12	-0.20
1.63	0.00	0.00	0.00	0.00	0.00	0.00	0.00	0.00	0.00	0.00	0.00	0.00	0.00	0.00	0.00	0.00	0.909668	-0.018555	0.999023	33.810001	-96.739998	6.160000	0.00	0.00	0.00	5.25	5.25	4.00	7.50	6.00	13.00	0.00	9.50	0.00	1.25	1.75	3.75	9.25	1.25	0.00	1.00	-0.167480	0.146973	0.981445	8.960000	9.660000	2.100000	749.00	-0.10	-0.21
1.64	0.00	0.00	0.00	0.00	0.00	0.00	0.00	0.00	0.00	0.00	0.00	0.00	0.00	0.00	0.00	0.00	0.826660	-0.044922	1.101562	33.040001	-115.570000	14.560000	0.00	0.00	0.00	4.25	4.75	3.25	7.00	5.75	13.00	0.00	9.75	0.25	1.25	2.00	4.00	9.50	1.25	0.00	1.25	-0.163574	0.144531	0.975586	8.540000	11.410000	1.960000	733.00	-0.08	-0.22
1.65	0.25	0.00	0.00	0.00	0.00	0.00	0.00	0.00	0.00	0.00	0.00	0.00	0.00	0.00	0.00	0.00	0.725586	-0.082520	1.176270	31.150000	-136.850006	20.930000	3.00	0.00	0.00	3.50	3.75	2.25	6.25	5.25	12.75	0.00	9.75	0.25	1.25	2.50	4.25	9.75	1.50	0.00	1.00	-0.165527	0.139160	0.979980	9.030000	13.090000	1.750000	699.00	-0.06	-0.23
1.66	0.00	0.00	0.00	0.00	0.00	0.00	0.00	0.00	0.00	0.00	0.00	0.00	0.00	0.00	0.00	0.00	0.609863	-0.112305	1.198242	26.880001	-158.830002	25.900000	0.00	0.00	0.00	2.75	2.75	2.00	5.75	4.75	12.75	0.00	9.75	0.25	1.25	2.75	5.50	10.00	1.50	0.00	1.25	-0.166992	0.148438	0.981445	10.080000	14.560000	1.820000	688.00	-0.04	-0.24
1.67	0.25	0.00	0.00	0.00	0.00	0.00	0.00	0.00	0.00	0.00	0.00	0.00	0.00	0.00	0.00	0.00	0.470703	-0.116699	1.179688	21.700001	-177.660004	29.540001	3.00	0.00	0.00	1.75	2.25	2.25	5.00	4.25	12.50	0.00	9.75	0.00	1.25	2.75	6.50	10.25	1.50	0.00	1.25	-0.179688	0.148926	0.973633	10.920000	15.960000	2.100000	669.00	-0.03	-0.25
1.68	0.25	0.00	0.00	0.00	0.00	0.00	0.00	0.00	0.00	0.00	0.00	0.00	0.00	0.00	0.00	0.00	0.334961	-0.116699	1.172852	16.030001	-191.729996	32.410000	3.00	0.00	0.00	1.75	1.75	1.50	4.25	3.75	12.25	0.00	10.00	0.00	1.25	3.00	7.00	10.50	1.75	0.00	1.50	-0.175781	0.144531	0.971680	11.480000	17.290001	2.170000	657.00	-0.01	-0.26
1.69	0.00	0.00	0.00	0.00	0.00	0.00	0.00	0.00	0.00	0.00	0.00	0.00	0.00	0.00	0.00	0.00	0.206543	-0.099609	1.168945	10.220000	-201.809998	35.000000	0.00	0.00	0.00	1.50	1.50	1.00	3.75	3.25	11.75	0.00	9.75	0.25	1.25	3.25	7.50	10.75	1.50	0.00	1.50	-0.183594	0.157227	0.967285	11.060000	18.900000	2.030000	637.00	-0.00	-0.26
1.70	0.00	0.00	0.00	0.00	0.00	0.00	0.00	0.00	0.00	0.00	0.00	0.00	0.00	0.00	0.00	0.00	0.081055	-0.097168	1.186035	6.230000	-208.949997	38.290001	0.00	0.00	0.00	0.75	1.00	0.75	2.75	2.50	11.50	0.00	9.75	0.00	1.75	3.75	8.00	11.00	1.75	0.00	1.50	-0.176758	0.166992	0.960938	9.730000	19.670000	1.400000	617.00	0.02	-0.27
1.71	0.00	0.00	0.00	0.00	0.00	0.00	0.00	0.00	0.00	0.00	0.00	0.00	0.00	0.00	0.00	0.00	-0.035156	-0.103516	1.242676	2.520000	-214.199997	42.349998	0.00	0.00	0.00	0.75	1.00	0.50	2.75	2.25	11.00	0.00	9.75	0.00	1.75	4.00	8.00	11.25	1.75	0.25	1.75	-0.169922	0.168945	0.951172	8.190000	20.440001	0.140000	615.00	0.03	-0.28
1.72	0.00	0.00	0.00	0.00	0.00	0.00	0.00	0.00	0.00	0.00	0.00	0.00	0.00	0.00	0.00	0.00	-0.144531	-0.114746	1.247559	-4.200000	-218.050003	46.549999	0.00	0.00	0.00	1.00	1.00	0.00	3.00	1.75	10.50	0.00	9.75	0.25	1.75	4.50	8.50	11.50	2.00	0.00	1.75	-0.191895	0.157715	0.958984	6.650000	20.510000	-0.840000	619.00	0.04	-0.28
1.73	0.00	0.00	0.00	0.00	0.00	0.00	0.00	0.00	0.00	0.00	0.00	0.00	0.00	0.00	0.00	0.00	-0.243652	-0.106445	1.216797	-13.790000	-218.889999	50.400002	0.00	0.00	0.00	0.75	0.75	0.25	2.00	1.50	10.25	0.00	9.50	0.25	1.75	5.00	8.75	11.75	2.25	0.25	2.00	-0.202637	0.166992	0.961914	5.390000	20.440001	-2.030000	613.00	0.05	-0.28
1.74	0.00	0.00	0.00	0.00	0.00	0.00	0.00	0.00	0.00	0.00	0.00	0.00	0.00	0.00	0.00	0.00	-0.333008	-0.112305	1.155762	-24.150000	-215.110001	52.849998	0.00	0.00	0.00	0.75	0.75	0.00	2.00	1.00	9.50	0.00	9.50	0.25	2.25	5.50	9.00	11.75	2.00	0.00	2.00	-0.186035	0.170410	0.957031	1.540000	20.860001	-2.730000	605.00	0.06	-0.28
1.75	0.00	0.00	0.00	0.00	0.00	0.00	0.00	0.00	0.00	0.00	0.00	0.00	0.00	0.00	0.00	0.00	-0.418945	-0.103516	1.101562	-33.459999	-206.009995	53.270000	0.00	0.00	0.00	0.50	0.25	0.00	1.75	1.00	9.00	0.00	9.25	0.75	2.50	6.75	9.25	12.00	2.50	0.25	2.00	-0.195312	0.178223	0.949219	-4.270000	21.490000	-4.270000	619.00	0.08	-0.27
1.76	0.00	0.00	0.00	0.00	0.00	0.00	0.00	0.00	0.00	0.00	0.00	0.00	0.00	0.00	0.00	0.00	-0.505371	-0.070312	1.166016	-39.549999	-193.479996	52.570000	0.00	0.00	0.00	0.50	0.75	0.00	1.25	0.75	8.50	0.00	9.25	0.75	2.75	7.25	9.75	12.00	2.50	0.25	2.25	-0.188965	0.164551	0.964844	-8.050000	21.280001	-6.230000	625.00	0.09	-0.27
1.77	0.00	0.00	0.00	0.00	0.00	0.00	0.00	0.00	0.00	0.00	0.00	0.00	0.00	0.00	0.00	0.00	-0.562988	-0.027832	1.269043	-38.990002	-182.770004	51.799999	0.00	0.00	0.00	0.50	1.00	0.00	1.25	0.50	8.00	0.00	9.00	0.75	3.25	7.75	9.75	12.25	2.75	0.50	2.50	-0.223145	0.164062	0.946289	-9.730000	20.370001	-6.790000	634.00	0.09	-0.26
1.78	0.00	0.00	0.00	0.00	0.00	0.00	0.00	0.00	0.00	0.00	0.00	0.00	0.00	0.00	0.00	0.00	-0.647949	0.047363	1.384766	-30.590000	-176.539993	51.590000	0.00	0.00	0.00	0.50	0.50	0.00	1.00	0.50	7.50	0.00	8.75	1.00	3.75	8.00	10.00	12.25	3.00	0.50	2.75	-0.207031	0.152344	0.955566	-10.360000	19.600000	-6.930000	635.00	0.11	-0.25
1.79	0.00	0.00	0.00	0.00	0.00	0.00	0.00	0.00	0.00	0.00	0.00	0.00	0.00	0.00	0.00	0.00	-0.799316	0.138184	1.688477	-15.330000	-177.449997	52.500000	0.00	0.00	0.00	0.25	0.50	0.00	1.50	0.25	7.25	0.00	8.50	1.00	4.25	8.50	10.25	12.25	3.25	0.50	2.75	-0.218750	0.149902	0.961914	-10.920000	18.620001	-7.420000	643.00	0.11	-0.25
1.80	0.00	0.00	0.00	0.00	0.00	0.00	0.00	0.00	0.00	0.00	0.00	0.00	0.00	0.00	0.00	0.00	-0.905762	0.140625	1.746582	-6.440000	-189.839996	55.299999	0.00	0.00	0.00	0.50	0.25	0.00	0.75	0.25	6.50	0.00	8.50	1.25	4.75	9.00	10.50	12.25	3.75	1.00	2.75	-0.229980	0.152344	0.950684	-12.180000	16.730000	-7.910000	653.00	0.13	-0.24
1.81	0.00	0.00	0.00	0.00	0.00	0.00	0.00	0.00	0.00	0.00	0.00	0.00	0.00	0.00	0.00	0.00	-1.331055	0.243652	1.312988	-20.020000	-211.259995	67.620003	0.00	0.00	0.00	0.25	0.00	0.00	0.75	0.25	6.00	0.00	8.25	1.50	5.50	9.25	10.75	12.50	4.25	1.00	3.25	-0.214844	0.152832	0.957031	-12.460000	14.770000	-9.030000	664.00	0.14	-0.23
1.82	0.00	0.00	0.00	0.00	0.00	0.00	0.00	0.00	0.00	0.00	0.00	0.00	0.00	0.00	0.00	0.00	-1.554199	0.308105	0.988281	-33.389999	-201.529999	76.510002	0.00	0.00	0.00	0.50	0.75	0.00	1.00	0.25	5.75	0.00	8.00	1.75	6.50	9.50	11.00	12.25	4.50	1.00	3.25	-0.234375	0.151367	0.955078	-13.580000	13.160000	-9.940000	689.00	0.14	-0.22
1.83	0.00	0.00	0.00	0.00	0.00	0.00	0.00	0.00	0.00	0.00	0.00	0.00	0.00	0.00	0.00	0.00	-1.768555	0.371582	0.791016	-46.270000	-179.270004	85.120003	0.00	0.00	0.00	0.50	0.25	0.00	0.50	0.25	5.50	0.00	7.75	2.00	7.50	9.75	11.25	12.50	5.50	1.00	4.25	-0.237793	0.143066	0.942383	-12.950000	10.640000	-11.690000	708.00	0.15	-0.21
1.84	0.00	0.00	0.00	0.00	0.00	0.00	0.00	0.00	0.00	0.00	0.00	0.00	0.00	0.00	0.00	0.00	-1.912109	0.416504	0.613281	-56.770000	-151.759995	92.050003	0.00	0.00	0.00	0.50	0.25	0.00	0.75	0.25	5.25	0.00	7.75	2.50	8.00	10.00	11.50	12.50	6.25	1.25	4.25	-0.226074	0.148438	0.955566	-12.740000	8.890000	-12.180000	734.00	0.16	-0.20
1.85	0.00	0.00	0.00	0.00	0.00	0.00	0.00	0.00	0.00	0.00	0.00	0.00	0.00	0.00	0.00	0.00	-2.020508	0.449707	0.426758	-63.630001	-122.919998	95.129997	0.00	0.00	0.00	0.25	0.25	0.00	1.00	0.25	5.00	0.00	7.50	3.00	8.50	10.25	11.75	12.50	7.00	1.75	5.00	-0.235840	0.134766	0.944336	-11.200000	9.170000	-13.090000	760.00	0.17	-0.19
1.86	0.00	0.00	0.00	0.00	0.00	0.00	0.00	0.00	0.00	0.00	0.00	0.00	0.00	0.00	0.00	0.00	-2.111328	0.460938	0.253906	-63.420002	-91.209999	93.029999	0.00	0.00	0.00	0.25	0.00	0.00	1.00	0.25	4.50	0.00	7.50	3.25	9.25	10.75	12.00	12.75	7.75	1.75	5.25	-0.253418	0.133301	0.944824	-9.170000	10.220000	-13.090000	781.00	0.17	-0.18
1.87	0.00	0.00	0.00	0.00	0.00	0.00	0.00	0.00	0.00	0.00	0.00	0.00	0.00	0.00	0.00	0.00	-2.180664	0.419434	0.089844	-56.139999	-56.560001	86.449997	0.00	0.00	0.00	0.25	0.25	0.00	0.75	0.25	4.00	0.00	7.50	3.75	9.50	11.25	12.25	13.00	8.50	2.00	5.50	-0.238770	0.122070	0.968262	-6.300000	12.880000	-12.670000	805.00	0.18	-0.17
1.88	0.00	0.00	0.00	0.00	0.00	0.00	0.00	0.00	0.00	0.00	0.00	0.00	0.00	0.00	0.00	0.00	-2.190918	0.359863	0.032715	-43.610001	-19.460001	76.930000	0.00	0.00	0.00	0.50	0.50	0.00	0.25	0.25	3.75	0.00	7.25	4.50	10.25	11.50	12.75	13.25	9.25	2.25	6.00	-0.242188	0.132812	0.963867	-3.430000	17.080000	-12.180000	837.00	0.19	-0.16
1.89	0.00	0.00	0.00	0.00	0.00	0.00	0.00	0.00	0.00	0.00	0.00	0.00	0.00	0.00	0.00	0.00	-2.178711	0.278320	0.159668	-27.440001	15.190001	65.519997	0.00	0.00	0.00	0.25	0.25	0.00	0.75	0.00	3.25	0.00	7.25	5.25	11.00	12.00	13.00	13.25	10.25	2.75	6.25	-0.253418	0.142090	0.958008	-1.890000	23.030001	-12.040000	870.00	0.20	-0.15
1.90	0.00	0.00	0.00	0.00	0.00	0.00	0.00	0.00	0.00	0.00	0.00	0.00	0.00	0.00	0.00	0.00	-2.120605	0.180176	0.297363	-10.500000	41.299999	53.130001	0.00	0.00	0.00	0.25	0.00	0.00	0.50	0.25	3.00	0.00	7.00	5.75	11.50	12.50	13.50	13.50	11.50	3.00	6.75	-0.256836	0.136719	0.978027	0.700000	30.240000	-12.040000	902.00	0.20	-0.15
1.91	0.00	0.00	0.00	0.00	0.00	0.00	0.00	0.00	0.00	0.00	0.00	0.00	0.00	0.00	0.00	0.00	-2.028809	0.079590	0.377930	3.360000	60.130001	38.849998	0.00	0.00	0.00	0.50	0.50	0.00	0.75	0.00	2.75	0.00	6.75	6.50	12.25	13.00	13.75	13.75	13.00	3.50	7.00	-0.259766	0.152344	0.984863	4.200000	39.549999	-11.620000	949.00	0.21	-0.13
1.92	0.00	0.00	0.00	0.00	0.00	0.00	0.00	0.00	0.00	0.00	0.00	0.00	0.00	0.00	0.00	0.00	-1.930664	0.012207	0.391602	12.040000	76.860001	22.190001	0.00	0.00	0.00	0.25	0.25	0.00	0.50	0.00	2.25	0.00	6.50	7.00	12.50	13.25	14.00	13.75	14.00	4.00	7.50	-0.279297	0.161133	0.980469	8.750000	51.730000	-11.900000	963.00	0.22	-0.13
1.93	0.00	0.00	0.00	0.00	0.00	0.00	0.00	0.00	0.00	0.00	0.00	0.00	0.00	0.00	0.00	0.00	-1.287109	-0.647461	0.496094	15.330000	96.669998	3.150000	0.00	0.00	0.00	0.25	0.00	0.00	0.50	0.00	1.75	0.00	6.25	7.25	13.50	13.75	14.50	13.75	15.25	5.25	7.75	-0.284180	0.138672	1.002930	15.820000	64.400002	-12.460000	1001.00	0.23	-0.12
1.94	0.50	0.50	0.25	0.25	0.00	0.00	0.00	0.00	0.00	0.00	0.00	0.00	0.00	0.00	0.00	0.00	1.542480	-0.508789	1.372070	139.229996	168.630005	-24.219999	15.00	0.00	0.00	0.25	0.25	0.00	0.50	0.00	1.25	0.00	6.00	7.50	13.75	14.25	14.75	14.00	16.75	5.75	8.25	-0.293945	0.147949	1.010742	22.049999	79.519997	-12.530000	1031.00	0.23	-0.11
1.95	1.50	1.00	0.75	1.00	0.00	0.00	0.00	0.00	0.00	0.00	0.00	0.00	0.00	0.00	0.00	0.00	0.382324	-0.541992	1.680176	78.120003	148.680008	-81.199997	44.00	0.00	0.00	0.25	0.00	0.00	0.75	0.00	1.00	0.00	5.50	8.00	14.25	14.50	15.00	13.75	18.00	6.25	8.75	-0.301758	0.152344	1.017578	24.710001	97.230003	-11.410000	1054.00	0.24	-0.11
1.96	3.00	2.00	0.75	1.00	0.00	0.00	0.00	0.00	0.00	0.00	0.00	0.00	0.00	0.00	0.00	0.00	0.157715	0.329590	0.153320	29.400000	111.720001	-124.879997	69.00	-0.37	-0.02	0.25	0.00	0.00	0.00	0.00	0.50	0.00	5.25	8.00	15.00	15.00	15.00	13.75	19.00	7.00	9.00	-0.329102	0.152832	1.061035	27.510000	120.400002	-13.440001	1068.00	0.25	-0.10
1.97	4.25	4.25	1.25	2.00	0.00	0.00	0.00	0.00	0.00	0.00	0.00	0.00	0.00	0.00	0.00	0.00	-0.385742	0.206543	0.352051	-1.260000	161.910004	-142.309998	119.00	-0.37	-0.05	0.25	0.00	0.00	0.00	0.00	0.50	0.00	5.00	8.25	15.25	15.00	15.00	13.25	20.25	7.25	9.25	-0.323730	0.116211	1.055664	20.650000	144.339996	-14.770000	1080.00	0.25	-0.09
1.98	7.00	7.00	1.75	2.50	0.00	0.00	0.00	0.00	0.00	0.00	0.00	0.00	0.00	0.00	0.00	0.00	-0.442383	1.338867	1.456055	8.610000	204.470001	-123.970001	184.00	-0.38	-0.04	0.25	0.00	0.00	0.00	0.00	0.00	0.00	4.25	8.75	15.75	15.25	15.00	13.00	21.50	7.50	9.50	-0.361328	0.167480	1.074707	3.920000	160.300003	-14.980000	1090.00	0.26	-0.08
1.99	9.75	9.50	2.00	3.25	0.00	0.00	0.00	0.00	0.00	0.00	0.00	0.00	0.00	0.00	0.00	0.00	-0.521973	1.377441	1.874023	38.430000	186.339996	-67.620003	246.00	-0.38	-0.04	0.00	0.00	0.00	0.00	0.00	0.00	0.00	4.00	8.75	16.00	15.25	14.75	12.50	22.25	7.75	9.50	-0.401855	0.183594	1.041016	-2.660000	179.130005	-17.219999	1088.00	0.26	-0.08
2.00	14.00	13.75	2.75	4.50	0.00	0.00	0.00	0.00	0.00	0.00	0.00	0.00	0.00	0.00	0.00	0.00	-0.366211	0.166992	1.193848	32.830002	157.990005	-5.950000	352.00	-0.38	-0.04	0.00	0.00	0.00	0.00	0.00	0.00	0.00	3.50	9.00	16.00	15.25	14.50	11.75	23.00	8.00	9.50	-0.439941	0.190430	1.024902	-5.950000	201.460007	-20.090000	1084.00	0.27	-0.07
2.01	17.00	16.75	3.25	5.50	0.00	0.00	0.00	0.00	0.00	0.00	0.00	0.00	0.00	0.00	0.00	0.00	-0.366211	0.166992	1.193848	32.830002	157.990005	-5.950000	427.00	-0.38	-0.04	0.00	0.00	0.00	0.00	0.00	0.00	0.00	3.00	9.00	16.50	15.25	14.25	10.75	23.25	8.25	9.50	-0.474609	0.187988	1.029785	-11.550000	222.389999	-23.170000	1075.00	0.27	-0.06
2.02	19.75	19.75	4.50	7.25	0.25	0.00	0.00	0.00	0.00	0.00	0.00	0.00	0.00	0.00	0.00	0.00	-0.562500	0.212891	1.898926	50.189999	133.699997	-20.860001	519.00	-0.38	-0.04	0.25	0.00	0.00	0.00	0.00	0.00	0.00	2.50	9.25	16.50	15.00	13.75	10.00	23.75	8.00	9.50	-0.540039	0.185059	1.043457	-24.639999	263.410004	-32.270000	1060.00	0.27	-0.06
2.03	21.75	21.75	5.75	8.50	0.50	0.75	0.00	0.00	0.00	0.00	0.00	0.00	0.00	0.00	0.00	0.00	-0.404297	0.338379	1.326172	62.650002	102.199997	-14.630000	596.00	-0.37	-0.04	0.00	0.00	0.00	0.00	0.00	0.00	0.00	2.00	9.00	16.75	14.75	13.00	9.00	23.50	8.00	9.50	-0.589844	0.205566	1.080078	-36.540001	283.989990	-37.939999	1028.00	0.28	-0.05
2.04	22.50	22.75	7.00	9.50	0.75	2.00	0.00	0.00	0.00	0.00	0.00	0.00	0.00	0.00	0.00	0.00	-0.400879	0.432617	1.444824	26.670000	67.760002	-7.280000	655.00	-0.36	-0.05	0.00	0.00	0.00	0.00	0.00	0.00	0.00	1.75	9.00	16.50	14.50	12.25	8.00	23.25	7.75	9.25	-0.643555	0.176270	1.099609	-46.830002	306.459991	-42.070000	996.00	0.28	-0.04
2.05	22.75	23.25	7.00	10.50	1.00	2.75	0.00	0.50	0.00	0.00	0.00	0.00	0.00	0.00	0.00	0.00	-0.270020	0.150391	1.044434	-1.120000	47.180000	-2.170000	691.00	-0.35	-0.06	0.00	0.00	0.00	0.00	0.00	0.00	0.00	1.25	8.75	16.25	14.25	11.25	7.00	22.50	7.50	9.00	-0.731445	0.192871	1.116699	-54.529999	332.709991	-45.360001	951.00	0.28	-0.04
2.06	22.25	23.50	7.25	11.00	1.00	3.75	0.00	0.50	0.00	0.00	0.00	0.00	0.00	0.00	0.00	0.00	-0.170410	0.070801	0.934570	-10.150000	51.450001	-4.410000	708.00	-0.35	-0.06	0.00	0.00	0.00	0.00	0.00	0.00	0.00	1.00	8.00	15.75	13.50	10.50	6.00	22.00	7.25	8.75	-0.808594	0.162109	1.326660	-54.250000	356.649994	-47.459999	899.00	0.28	-0.03
2.07	22.50	23.75	7.50	11.75	1.25	5.75	0.00	1.00	0.00	0.00	0.00	0.00	0.25	0.00	0.00	0.00	-0.265137	0.209473	1.087891	-18.129999	45.220001	-4.970000	758.00	-0.34	-0.07	0.00	0.00	0.00	0.00	0.00	0.00	0.00	0.50	7.50	14.50	12.75	9.50	5.00	21.25	6.75	8.25	-1.039551	0.266602	1.352051	-44.170002	378.980011	-48.439999	831.00	0.29	-0.02
2.08	22.00	23.50	7.75	12.50	1.50	6.25	0.00	1.25	0.00	0.00	0.00	0.00	0.25	0.00	0.00	0.00	-0.205078	0.171875	0.978027	-29.889999	38.430000	-3.780000	773.00	-0.33	-0.08	0.00	0.00	0.00	0.00	0.00	0.00	0.00	0.50	6.00	13.25	11.50	8.50	3.75	19.50	6.00	7.50	-1.273926	0.336426	1.424316	-26.460001	398.440002	-49.980000	737.00	0.29	-0.02
2.09	21.50	23.00	8.00	12.75	1.75	7.25	0.00	1.75	0.00	0.00	0.00	0.00	0.75	0.00	0.00	0.00	-0.216797	0.126465	1.010254	-45.779999	37.869999	-3.850000	795.00	-0.32	-0.09	0.00	0.00	0.00	0.00	0.00	0.00	0.00	0.25	4.50	11.75	10.00	7.50	3.00	18.25	5.25	6.50	-1.716309	0.685059	1.835449	0.350000	421.959991	-51.380001	641.00	0.29	-0.02
2.10	21.25	22.50	8.00	13.00	1.75	8.00	0.00	2.25	0.00	0.00	0.00	0.25	1.00	0.00	0.00	0.00	-0.251953	0.131836	1.029785	-55.720001	25.270000	-3.710000	811.00	-0.31	-0.09	0.00	0.00	0.00	0.00	0.00	0.00	0.00	0.00	3.00	10.00	8.75	5.50	2.25	15.75	3.50	5.00	-2.294922	0.285156	1.955566	48.790001	443.799988	-57.610001	511.00	0.30	-0.01
2.11	20.25	21.75	8.00	13.50	2.00	8.50	0.00	2.75	0.00	0.25	0.25	0.00	1.25	0.25	0.00	0.00	-0.235352	0.128906	1.037598	-44.380001	8.540000	-3.010000	822.00	-0.30	-0.10	0.00	0.00	0.00	0.00	0.00	0.00	0.00	0.00	2.50	8.75	7.00	4.25	1.75	13.00	2.75	3.25	-1.390625	0.018066	3.374023	53.200001	446.250000	-67.480003	414.00	0.30	-0.01
2.12	19.25	21.00	8.00	13.25	2.50	9.25	0.00	3.50	0.00	0.25	0.50	0.25	2.00	0.50	0.00	0.00	-0.212402	0.114258	0.974609	-26.460001	-1.120000	-2.870000	841.00	-0.28	-0.11	0.00	0.25	0.00	0.00	0.00	0.00	0.00	0.00	1.50	7.75	5.00	3.25	1.00	9.50	1.50	1.75	-1.393066	0.158691	2.647461	62.090000	427.000000	-63.910000	304.00	0.29	0.00
2.13	18.25	19.50	8.00	13.25	2.50	9.75	0.00	4.75	0.00	0.50	0.50	0.50	2.50	0.50	0.00	0.00	-0.239746	0.124512	0.983398	-15.050000	-3.150000	-2.730000	850.00	-0.27	-0.12	0.00	0.00	0.00	0.00	0.00	0.00	0.00	0.00	1.00	6.25	4.00	2.50	1.00	6.50	0.75	1.00	-0.623535	0.299316	2.316406	68.879997	425.110016	-68.389999	224.00	0.28	-0.01
2.14	17.00	19.00	7.75	13.00	3.00	10.50	0.00	5.25	0.00	0.50	0.75	0.50	2.75	0.50	0.00	0.00	-0.245117	0.098145	0.980957	-6.650000	0.770000	-2.310000	853.00	-0.26	-0.13	0.00	0.00	0.00	0.00	0.00	0.00	0.00	0.00	0.75	5.25	3.50	2.25	0.75	3.75	0.00	0.00	-0.050293	0.374512	2.483887	88.059998	408.309998	-76.019997	163.00	0.26	-0.01
2.15	15.50	17.50	7.50	12.75	3.00	10.50	0.00	5.75	0.00	1.00	0.75	0.50	3.50	1.00	0.00	0.00	-0.225586	0.105957	0.969238	-0.490000	3.920000	-1.680000	842.00	-0.24	-0.13	0.00	0.00	0.00	0.00	0.00	0.00	0.00	0.00	0.25	3.75	2.50	1.25	0.25	1.50	0.00	0.00	0.490723	0.124512	1.379395	113.750000	396.970001	-82.040001	97.00	0.25	-0.02
2.16	14.50	15.75	7.50	12.25	3.00	11.00	0.00	6.25	0.00	0.75	0.50	0.75	3.75	1.00	0.25	0.00	-0.227539	0.095703	0.967285	3.710000	5.950000	-0.980000	825.00	-0.23	-0.14	0.00	0.00	0.00	0.00	0.00	0.00	0.00	0.00	0.25	2.50	1.50	0.25	0.00	0.50	0.00	0.25	-0.618652	0.269043	1.440430	90.790001	403.970001	-88.059998	53.00	0.25	0.01
2.17	12.50	14.00	7.25	11.75	3.00	11.50	0.00	6.50	0.00	0.75	1.00	1.00	4.75	1.00	0.25	0.00	-0.240723	0.100586	0.963379	7.070000	7.840000	-0.420000	806.00	-0.21	-0.15	0.00	0.00	0.00	0.00	0.00	0.00	0.00	0.00	0.25	2.25	1.75	0.50	0.00	0.25	0.00	0.00	-2.079102	-0.236328	1.033691	62.790001	391.299988	-87.570000	52.00	0.24	-0.02
2.18	10.50	13.00	7.00	11.25	3.00	11.75	0.00	7.00	0.00	1.00	1.00	1.00	5.50	1.25	0.25	0.00	-0.228027	0.103516	0.958984	9.240000	9.590000	-0.070000	789.00	-0.20	-0.16	0.00	0.00	0.00	0.00	0.00	0.00	0.00	0.00	0.25	2.25	1.75	0.50	0.00	0.00	0.00	0.00	-0.480957	0.827637	4.208496	6.650000	393.049988	-79.730003	50.00	0.23	-0.03
2.19	9.00	10.75	6.25	10.25	2.75	12.25	0.00	7.25	0.00	1.00	1.00	1.25	5.75	1.50	0.00	0.25	-0.229492	0.122070	0.965332	10.150000	10.990000	0.000000	746.00	-0.18	-0.17	0.00	0.00	0.00	0.00	0.00	0.00	0.00	0.00	0.00	1.75	1.00	0.25	0.00	0.00	0.00	0.00	0.763184	0.044434	4.279785	-14.770000	191.100006	-69.019997	31.00	0.00	0.00
2.20	7.50	9.00	5.75	9.50	2.50	12.50	0.00	7.50	0.00	1.00	1.50	1.25	6.25	1.50	0.25	0.25	-0.226074	0.113770	0.959961	10.850000	12.530000	0.210000	717.00	-0.16	-0.18	0.00	0.00	0.00	0.00	0.00	0.00	0.00	0.00	0.00	1.50	1.00	0.00	0.00	0.00	0.00	0.00	0.453613	0.296387	3.614746	-37.099998	-14.770000	-52.009998	26.00	0.00	0.00
2.21	6.50	8.00	5.25	9.00	2.50	12.25	0.00	8.00	0.25	1.00	1.50	1.50	6.50	1.50	0.25	0.25	-0.231934	0.110840	0.952637	12.040000	13.440001	0.350000	699.00	-0.14	-0.19	0.00	0.00	0.00	0.00	0.00	0.00	0.00	0.00	0.00	1.50	0.75	0.00	0.00	0.00	0.00	0.00	0.478516	0.337402	2.416016	-30.940001	-149.029999	-37.799999	23.00	0.00	0.00
2.22	5.75	6.75	5.00	8.25	2.25	12.50	0.00	8.25	0.00	1.00	1.75	1.50	6.75	1.75	0.25	0.25	-0.231445	0.119141	0.950684	12.250000	14.070000	0.350000	676.00	-0.13	-0.20	0.00	0.00	0.00	0.00	0.00	0.00	0.00	0.00	0.00	1.00	1.00	0.00	0.00	0.00	0.00	0.00	0.378418	0.137695	1.276855	-8.400000	-241.360001	-20.020000	21.00	0.00	0.00
2.23	4.50	5.75	4.25	7.75	2.00	12.75	0.00	8.25	0.00	1.25	1.50	1.75	7.25	1.50	0.25	0.25	-0.230469	0.116699	0.947754	11.970000	15.890000	0.070000	645.00	-0.12	-0.21	0.00	0.00	0.00	0.00	0.00	0.00	0.00	0.00	0.00	0.75	0.50	0.00	0.00	0.00	0.00	0.00	0.311523	0.087891	1.041992	-11.480000	-254.729996	-16.870001	13.00	0.00	0.00
2.24	3.75	5.00	3.25	7.00	2.00	12.50	0.00	8.50	0.00	1.25	1.75	2.00	7.25	1.75	0.25	0.50	-0.235840	0.124512	0.952637	11.830000	16.870001	-0.140000	621.00	-0.10	-0.22	0.00	0.00	0.00	0.00	0.00	0.00	0.00	0.00	0.00	1.00	0.50	0.00	0.00	0.00	0.00	0.00	0.254883	0.073242	1.045410	-20.580000	-264.880005	-15.680000	16.00	0.00	0.00
2.25	2.75	3.50	2.75	6.25	1.75	12.25	0.00	8.75	0.25	1.25	2.00	2.50	7.75	1.50	0.25	0.50	-0.231934	0.127930	0.947754	11.410000	17.639999	-0.350000	594.00	-0.07	-0.24	0.00	0.00	0.00	0.00	0.00	0.00	0.00	0.00	0.00	1.00	0.50	0.00	0.00	0.00	0.00	0.00	0.158203	0.097168	1.117676	-32.619999	-279.579987	-15.960000	16.00	0.00	0.00
2.26	2.50	3.00	2.25	5.50	1.25	12.25	0.00	8.75	0.00	1.25	2.00	2.50	8.00	2.00	0.25	0.50	-0.239746	0.129395	0.945801	10.640000	18.549999	-0.560000	571.00	-0.06	-0.25	0.00	0.00	0.00	0.00	0.00	0.00	0.00	0.00	0.00	0.75	0.50	0.00	0.00	0.00	0.00	0.00	0.072266	0.184570	1.168945	-41.369999	-299.110016	-15.960000	13.00	0.00	0.00
2.27	2.00	2.25	2.00	5.00	1.25	12.25	0.00	9.00	0.00	1.50	2.00	2.75	8.25	2.00	0.25	0.50	-0.236816	0.097168	0.924805	10.290000	19.389999	-0.700000	562.00	-0.05	-0.25	0.00	0.25	0.00	0.00	0.00	0.00	0.00	0.00	0.00	0.75	0.50	0.00	0.00	0.00	0.00	0.00	0.005859	0.254395	1.203613	-41.439999	-319.690002	-14.070000	15.00	0.00	0.00
2.28	1.50	0.75	1.50	4.00	1.00	12.00	0.00	9.00	0.00	1.25	2.25	3.50	8.50	1.75	0.50	0.75	-0.234863	0.130859	0.941406	9.940000	19.740000	-0.980000	533.00	-0.02	-0.27	0.00	0.00	0.00	0.00	0.00	0.00	0.00	0.00	0.00	0.25	0.25	0.00	0.00	0.00	0.00	0.00	-0.079590	0.320312	1.216309	-33.950001	-339.989990	-11.270000	5.00	0.00	0.00
2.29	1.50	1.00	1.00	3.75	1.00	11.50	0.00	9.00	0.00	1.50	2.50	3.25	8.75	2.00	0.25	0.50	-0.243652	0.143066	0.945312	10.430000	20.230000	-1.400000	524.00	-0.02	-0.27	0.00	0.00	0.00	0.00	0.00	0.00	0.00	0.00	0.00	0.25	0.25	0.00	0.00	0.00	0.00	0.00	-0.177246	0.366211	1.179199	-23.590000	-356.440002	-7.980000	5.00	0.00	0.00
2.30	1.00	1.00	1.00	3.50	0.50	11.25	0.00	9.00	0.25	1.50	2.50	3.75	9.00	2.00	0.50	0.75	-0.242676	0.123535	0.947266	10.920000	20.650000	-1.470000	523.00	-0.00	-0.27	0.00	0.00	0.00	0.00	0.00	0.00	0.00	0.00	0.00	0.25	0.00	0.00	0.00	0.00	0.00	0.00	-0.262695	0.387207	1.062500	-15.540000	-366.029999	-3.850000	3.00	0.00	0.00
2.31	0.75	0.50	0.75	3.00	0.50	11.00	0.00	9.00	0.00	1.50	3.00	4.00	9.25	2.00	0.50	0.75	-0.255859	0.137207	0.935059	12.110000	21.000000	-1.470000	512.00	0.01	-0.28	0.00	0.00	0.00	0.00	0.00	0.00	0.00	0.00	0.00	0.25	0.00	0.00	0.00	0.00	0.00	0.00	-0.338867	0.428711	0.971680	-9.590000	-367.079987	1.470000	3.00	0.00	0.00
2.32	0.75	0.75	0.50	2.50	0.50	10.50	0.00	9.00	0.00	1.50	3.00	4.50	9.75	1.75	0.50	0.75	-0.249512	0.127441	0.940918	13.860000	21.910000	-1.680000	508.00	0.02	-0.29	0.00	0.00	0.00	0.00	0.00	0.00	0.00	0.00	0.00	0.25	0.00	0.00	0.00	0.00	0.00	0.00	-0.395020	0.454590	0.950195	-5.600000	-361.970001	7.140000	3.00	0.00	0.00
2.33	0.75	0.50	0.25	2.00	0.25	10.00	0.00	9.00	0.00	1.75	3.50	5.00	10.00	2.50	0.50	1.00	-0.258789	0.133789	0.937012	15.610000	23.309999	-1.330000	512.00	0.04	-0.28	0.00	0.00	0.00	0.00	0.00	0.00	0.00	0.00	0.00	0.00	0.00	0.00	0.00	0.00	0.00	0.00	-0.452148	0.506348	1.033203	-0.840000	-357.000000	13.510000	0.00	0.00	0.00
2.34	0.50	0.50	0.25	2.00	0.00	9.75	0.00	9.00	0.25	1.50	4.00	5.75	10.50	2.25	0.25	0.75	-0.256836	0.143066	0.931641	17.010000	25.760000	-1.190000	516.00	0.05	-0.29	0.00	0.00	0.00	0.00	0.00	0.00	0.00	0.00	0.00	0.00	0.00	0.00	0.00	0.00	0.00	0.00	-0.500977	0.547363	1.141113	6.790000	-356.369995	20.090000	0.00	0.00	0.00
2.35	0.50	0.25	0.00	1.75	0.00	9.25	0.00	9.00	0.00	2.00	5.00	6.50	11.00	2.50	0.50	1.00	-0.254883	0.152832	0.935547	16.240000	28.700001	-0.840000	533.00	0.06	-0.29	0.00	0.00	0.00	0.00	0.00	0.00	0.00	0.00	0.00	0.00	0.00	0.00	0.00	0.00	0.00	0.00	-0.542969	0.564941	1.254395	16.870001	-359.799988	27.230000	0.00	0.00	0.00
2.36	0.75	0.00	0.00	1.00	0.00	9.00	0.00	8.75	0.00	1.75	5.00	7.25	11.50	2.50	0.50	1.00	-0.262207	0.149414	0.945801	16.870001	32.200001	-0.910000	529.00	0.07	-0.29	0.00	0.00	0.00	0.00	0.00	0.00	0.00	0.00	0.00	0.00	0.00	0.00	0.00	0.00	0.00	0.00	-0.614258	0.569824	1.358398	29.540001	-364.700012	35.560001	0.00	0.00	0.00
2.37	0.25	0.00	0.00	1.25	0.00	8.50	0.00	8.75	0.00	2.25	6.00	7.75	11.75	2.75	0.50	1.25	-0.262695	0.155762	0.933594	16.520000	35.349998	-1.540000	547.00	0.09	-0.28	0.00	0.50	0.00	0.00	0.00	0.00	0.00	0.00	0.00	0.00	0.00	0.00	0.00	0.00	0.00	0.00	-0.687988	0.541992	1.436523	41.369999	-370.790009	44.240002	5.00	0.00	0.00
2.38	0.25	0.25	0.00	1.00	0.00	8.25	0.00	8.50	0.00	2.25	6.75	8.50	12.25	3.00	0.75	1.25	-0.258789	0.160645	0.929688	14.350000	38.779999	-2.590000	565.00	0.10	-0.28	0.00	0.00	0.00	0.00	0.00	0.00	0.00	0.00	0.00	0.25	0.00	0.00	0.00	0.00	0.00	0.00	-0.750000	0.535645	1.497070	52.220001	-376.529999	52.709999	3.00	0.00	0.00
2.39	0.25	0.00	0.00	0.75	0.00	7.75	0.00	8.50	0.25	2.75	7.75	9.00	12.75	3.50	0.75	1.50	-0.267090	0.172852	0.921387	11.130000	40.950001	-3.920000	589.00	0.11	-0.27	0.00	0.00	0.00	0.00	0.00	0.00	0.00	0.00	0.00	0.00	0.00	0.00	0.00	0.00	0.00	0.00	-0.811035	0.513184	1.562012	63.349998	-380.380005	60.760002	0.00	0.00	0.00
2.40	0.25	0.00	0.00	1.00	0.00	7.00	0.00	8.25	0.25	3.25	8.50	9.50	13.00	4.00	1.00	1.50	-0.272461	0.178711	0.911621	6.300000	42.349998	-5.950000	607.00	0.12	-0.26	0.00	0.00	0.00	0.00	0.00	0.00	0.00	0.00	0.00	0.00	0.00	0.00	0.00	0.00	0.00	0.00	-0.848633	0.474121	1.636230	73.849998	-381.779999	68.250000	0.00	0.00	0.00
2.41	0.00	0.00	0.00	0.75	0.00	6.25	0.00	8.00	0.75	3.75	9.25	10.50	13.50	5.00	1.00	1.75	-0.259766	0.197754	0.920898	2.100000	43.470001	-8.120000	634.00	0.14	-0.25	0.00	0.00	0.00	0.00	0.00	0.00	0.00	0.00	0.00	0.00	0.00	0.00	0.00	0.00	0.00	0.00	-0.924316	0.406250	1.784180	91.209999	-378.839996	78.120003	0.00	0.00	0.00
2.42	0.00	0.00	0.00	0.50	0.00	6.25	0.00	7.75	1.25	5.25	10.00	11.00	13.75	5.50	1.25	2.25	-0.260254	0.188477	0.947754	1.890000	45.290001	-12.040000	675.00	0.15	-0.23	0.00	0.00	0.00	0.00	0.00	0.00	0.00	0.00	0.00	0.00	0.00	0.00	0.00	0.00	0.00	0.00	-0.948242	0.357422	1.860352	100.449997	-374.010010	80.150002	0.00	0.00	0.00
2.43	0.00	0.00	0.00	0.50	0.00	5.50	0.00	7.50	1.25	7.00	10.75	12.00	14.00	7.25	1.50	3.00	-0.281738	0.193359	0.934570	3.360000	47.880001	-15.470000	723.00	0.17	-0.21	0.00	0.00	0.00	0.00	0.00	0.00	0.00	0.00	0.00	0.00	0.00	0.00	0.00	0.00	0.00	0.00	-1.010254	0.319336	1.990723	110.809998	-367.079987	80.150002	0.00	0.00	0.00
2.44	0.00	0.00	0.00	0.50	0.00	5.25	0.00	7.00	2.00	7.75	11.75	12.75	14.25	8.50	1.75	3.25	-0.327148	0.176758	0.909180	7.770000	56.209999	-20.299999	766.00	0.18	-0.20	0.00	0.00	0.00	0.00	0.00	0.00	0.00	0.00	0.00	0.00	0.00	0.00	0.00	0.00	0.00	0.00	-1.155762	0.242676	2.230469	121.940002	-359.730011	78.820000	0.00	0.00	0.00
2.45	0.00	0.00	0.00	0.50	0.00	4.50	0.00	6.75	2.50	8.25	12.50	13.50	14.50	9.75	2.25	4.00	-0.363770	0.191406	0.922852	10.990000	62.930000	-24.990000	803.00	0.19	-0.19	0.00	0.00	0.00	0.00	0.00	0.00	0.00	0.00	0.00	0.00	0.00	0.00	0.00	0.00	0.00	0.00	-1.434082	0.175781	2.421387	129.220001	-357.070007	77.840004	0.00	0.00	0.00
2.46	0.00	0.00	0.00	0.25	0.00	3.75	0.00	6.25	2.75	9.00	13.25	14.00	14.50	11.25	2.75	4.75	-0.389160	0.186035	0.923340	14.700000	72.590004	-28.700001	831.00	0.20	-0.17	0.00	0.00	0.00	0.00	0.00	0.00	0.00	0.00	0.00	0.00	0.00	0.00	0.00	0.00	0.00	0.00	-1.762695	0.129883	2.481934	133.000000	-359.869995	80.919998	0.00	0.00	0.00
2.47	0.00	0.00	0.00	0.50	0.00	3.00	0.00	6.00	3.75	9.75	14.00	14.75	14.50	12.50	3.25	5.25	-0.368652	0.190918	0.998047	19.740000	88.269997	-32.270000	877.00	0.21	-0.16	0.00	0.00	0.00	0.00	0.00	0.00	0.00	0.00	0.00	0.00	0.00	0.00	0.00	0.00	0.00	0.00	-2.172363	0.090332	2.376953	137.059998	-363.510010	89.599998	0.00	0.00	0.00
2.48	0.00	0.00	0.00	0.25	0.00	2.25	0.00	5.50	4.75	10.50	14.75	15.25	14.25	13.75	4.75	5.50	-0.395508	0.206055	0.974609	23.100000	106.400002	-34.720001	918.00	0.22	-0.14	0.00	0.00	0.00	0.00	0.00	0.00	0.00	0.00	0.00	0.00	0.00	0.00	0.00	0.00	0.00	0.00	-2.597168	-0.014160	2.081055	135.729996	-360.709991	102.480003	0.00	0.00	0.00
2.49	0.00	0.00	0.00	0.25	0.00	2.25	0.00	5.00	5.25	11.25	15.50	15.50	14.00	15.00	5.75	5.75	-0.404297	0.175781	0.999512	23.730000	128.100006	-35.980000	956.00	0.23	-0.13	0.00	0.00	0.00	0.00	0.00	0.00	0.00	0.00	0.00	0.00	0.00	0.00	0.00	0.00	0.00	0.00	-2.948242	-0.163574	1.675293	115.080002	-347.059998	115.150002	0.00	0.00	0.00
2.50	0.00	0.00	0.00	0.00	0.00	1.50	0.00	4.75	6.50	11.75	16.25	16.00	13.75	16.50	6.25	6.00	-0.419922	0.139648	1.076660	22.190001	150.149994	-35.630001	993.00	0.24	-0.12	0.00	0.00	0.00	0.00	0.00	0.00	0.00	0.00	0.00	0.00	0.00	0.00	0.00	0.00	0.00	0.00	-3.110840	-0.203613	1.195312	71.820000	-319.690002	121.660004	0.00	0.00	0.00
2.51	0.00	0.00	0.00	0.00	0.00	1.25	0.00	4.25	7.50	12.50	16.50	16.00	13.50	17.75	6.75	6.50	-0.437500	0.130371	1.104492	9.870000	173.600006	-33.180000	1023.00	0.25	-0.11	0.00	0.00	0.00	0.00	0.00	0.00	0.00	0.00	0.00	0.00	0.00	0.00	0.00	0.00	0.00	0.00	-3.185547	-0.080566	0.703125	31.010000	-280.350006	116.480003	0.00	0.00	0.00
2.52	0.00	0.00	0.00	0.00	0.00	1.00	0.00	4.00	7.75	12.75	17.00	16.25	13.00	18.75	7.25	6.75	-0.477051	0.187012	1.007812	6.510000	199.009995	-31.360001	1041.00	0.25	-0.10	0.00	0.00	0.00	0.00	0.00	0.00	0.00	0.00	0.00	0.00	0.00	0.00	0.00	0.00	0.00	0.00	-3.351074	0.078125	0.386719	21.210001	-234.850006	101.220001	0.00	0.00	0.00
2.53	0.00	0.00	0.00	0.50	0.00	0.50	0.00	3.75	8.00	13.00	17.25	16.00	12.25	19.50	7.75	7.00	-0.531738	0.208008	1.017578	9.660000	224.350006	-30.660000	1049.00	0.25	-0.09	0.00	0.00	0.00	0.00	0.00	0.00	0.00	0.00	0.00	0.00	0.00	0.00	0.00	0.00	0.00	0.00	-3.549805	0.145508	0.236816	47.110001	-191.520004	80.080002	0.00	0.00	0.00
2.54	0.00	0.00	0.00	0.00	0.00	0.25	0.00	3.25	8.25	13.50	17.25	15.75	11.50	20.00	8.00	7.25	-0.582520	0.175293	1.018066	17.290001	247.869995	-30.100000	1041.00	0.26	-0.08	0.00	0.00	0.00	0.00	0.00	0.00	0.00	0.00	0.00	0.00	0.00	0.00	0.00	0.00	0.00	0.00	-3.722168	0.066895	0.018066	89.459999	-155.119995	59.920002	0.00	0.00	0.00
2.55	0.00	0.00	0.00	0.00	0.00	0.25	0.00	3.00	8.50	13.50	17.50	15.50	10.75	20.25	8.00	7.50	-0.595215	0.182617	1.046387	25.340000	268.940002	-28.910000	1038.00	0.26	-0.08	0.00	0.00	0.00	0.00	0.00	0.00	0.00	0.00	0.00	0.00	0.00	0.00	0.00	0.00	0.00	0.00	-3.746582	-0.110352	-0.062500	126.699997	-120.120003	48.369999	0.00	0.00	0.00
2.56	0.00	0.00	0.00	0.00	0.00	0.00	0.00	2.75	8.00	13.50	17.75	15.25	10.25	20.00	8.00	7.75	-0.629395	0.102539	0.938965	31.219999	293.440002	-27.090000	1019.00	0.27	-0.08	0.00	0.00	0.00	0.00	0.00	0.00	0.00	0.00	0.00	0.00	0.00	0.00	0.00	0.00	0.00	0.00	-3.651855	-0.294434	-0.033691	142.380005	-84.139999	49.349998	0.00	0.00	0.00
2.57	0.00	0.00	0.00	0.00	0.00	0.00	0.00	2.75	7.75	13.25	17.50	14.75	9.50	19.50	8.00	8.00	-0.689453	0.163086	1.074219	34.930000	323.610016	-22.889999	996.00	0.27	-0.08	0.00	0.00	0.00	0.00	0.00	0.00	0.00	0.00	0.00	0.00	0.00	0.00	0.00	0.00	0.00	0.00	-3.455566	-0.554688	-0.070312	119.980003	-43.889999	60.970001	0.00	0.00	0.00
2.58	0.00	0.00	0.00	0.00	0.00	0.00	0.00	2.50	6.50	12.50	17.00	14.50	9.00	18.75	7.50	8.25	-0.766602	0.157715	1.160645	43.610001	357.700012	-18.129999	946.00	0.27	-0.08	0.00	0.00	0.00	0.00	0.00	0.00	0.00	0.00	0.00	0.00	0.00	0.00	0.00	0.00	0.00	0.00	-3.137695	-0.611816	-0.116699	61.670002	4.200000	71.750000	0.00	0.00	0.00
2.59	0.00	0.00	0.00	0.00	0.00	0.00	0.00	2.25	4.50	11.25	16.00	13.50	8.50	17.75	7.25	8.00	-0.969727	0.266602	1.351074	63.490002	395.570007	-11.060000	865.00	0.27	-0.09	0.00	0.00	0.00	0.00	0.00	0.00	0.00	0.00	0.00	0.00	0.00	0.00	0.00	0.00	0.00	0.00	-4.031250	-0.099121	0.231934	7.840000	52.849998	70.070000	0.00	0.00	0.00
2.60	0.00	0.00	0.00	0.00	0.00	0.00	0.00	2.00	2.50	10.00	14.50	12.50	7.75	16.25	6.75	7.25	-1.036621	0.388672	1.535156	89.669998	431.059998	-3.710000	767.00	0.27	-0.10	2.00	1.25	0.75	1.50	0.00	0.00	0.00	0.00	0.00	0.00	0.00	0.00	0.00	0.00	0.00	0.00	1.576660	-0.111328	1.371094	34.090000	173.180008	28.770000	57.00	-0.35	-0.05
2.61	0.00	0.00	0.00	0.00	0.00	0.00	0.00	1.50	1.50	8.25	11.75	10.00	6.75	14.50	6.00	6.25	-1.550781	-0.004395	2.178223	110.879997	462.839996	0.910000	636.00	0.27	-0.10	6.50	7.00	1.50	3.50	0.00	0.00	0.00	0.00	0.00	0.00	0.00	0.00	0.00	0.00	0.00	0.00	0.873047	-0.985840	1.505371	-58.310001	190.750000	-51.660000	187.00	-0.37	-0.06
2.62	0.00	0.00	0.00	0.00	0.00	0.00	0.00	1.00	1.75	6.50	9.00	7.75	5.50	12.50	5.00	4.75	-2.000977	0.266113	2.211914	96.739998	487.549988	11.830000	514.00	0.28	-0.09	11.50	12.00	2.25	5.50	0.00	0.00	0.00	0.00	0.00	0.00	0.00	0.00	0.00	0.00	0.00	0.00	-0.652344	-0.076172	0.937012	-212.869995	255.149994	-144.270004	315.00	-0.37	-0.05
2.63	0.00	0.00	0.00	0.00	0.00	0.00	0.00	0.25	1.00	5.00	7.00	6.00	3.75	10.25	3.50	3.00	-2.349609	1.244629	2.510742	106.610001	532.840027	32.549999	379.00	0.29	-0.08	15.75	16.25	2.75	6.50	0.00	0.00	0.00	0.00	0.00	0.00	0.00	0.00	0.00	0.00	0.00	0.00	-0.799316	1.413574	2.570312	-155.259995	288.470001	-119.770004	415.00	-0.38	-0.05
2.64	0.00	0.00	0.00	0.00	0.00	0.00	0.00	0.00	0.75	4.00	5.25	4.50	2.75	8.50	2.75	1.50	-1.361328	0.016602	2.703613	220.430008	485.799988	-0.630000	287.00	0.29	-0.06	20.25	19.50	3.75	8.00	0.00	0.25	0.00	0.00	0.00	0.00	0.00	0.00	0.00	0.00	0.00	0.00	-0.878418	0.310547	2.248047	-65.660004	281.119995	-56.910000	521.00	-0.38	-0.05
2.65	0.00	0.00	0.00	0.00	0.00	0.00	0.00	0.00	0.25	3.50	3.75	4.00	2.25	6.25	1.50	0.50	-0.762695	-0.014160	2.684082	210.770004	474.179993	-7.210000	212.00	0.28	-0.07	22.75	21.25	5.75	9.50	0.00	1.50	0.00	0.00	0.00	0.00	0.00	0.00	0.00	0.00	0.00	0.00	-0.689453	0.239258	3.302734	-42.420002	290.500000	-39.759998	616.00	-0.37	-0.05
2.66	0.00	0.00	0.00	0.00	0.00	0.00	0.00	0.00	0.25	3.00	3.00	2.75	1.75	4.00	0.50	0.00	-0.402344	0.292480	2.382324	221.970001	467.250000	-17.080000	149.00	0.27	-0.07	24.75	22.00	7.00	10.75	0.25	3.75	0.00	0.25	0.00	0.00	0.00	0.00	0.00	0.00	0.00	0.00	-0.671387	0.384277	2.735840	-23.030001	248.080002	-34.650002	702.00	-0.35	-0.05
2.67	0.00	0.00	0.00	0.00	0.00	0.00	0.00	0.00	0.25	2.00	2.00	2.00	1.25	1.25	0.00	0.00	0.291504	-0.075195	3.304688	235.130005	434.000000	-33.529999	88.00	0.24	-0.11	25.00	22.00	8.00	11.25	0.50	5.00	0.00	0.75	0.00	0.00	0.00	0.00	0.25	0.00	0.00	0.00	-0.536133	0.309570	2.029297	-3.500000	202.440002	-22.400000	747.00	-0.34	-0.06
2.68	0.00	0.00	0.00	0.00	0.00	0.00	0.00	0.00	0.00	1.25	1.25	0.75	0.25	0.75	0.00	0.00	-0.574219	-0.445312	2.915039	281.049988	347.970001	-94.779999	43.00	0.00	0.00	24.75	21.50	8.50	12.00	1.00	7.00	0.00	1.25	0.00	0.00	0.00	0.00	0.25	0.00	0.00	0.00	-0.419922	0.369629	1.529297	-38.709999	137.619995	-9.240000	789.00	-0.33	-0.07
2.69	0.00	0.00	0.00	0.00	0.00	0.00	0.00	0.00	0.00	1.00	1.50	0.75	0.25	0.00	0.00	0.00	-0.868652	0.810547	6.941895	231.419998	280.700012	-138.949997	36.00	0.00	0.00	24.25	21.25	8.75	12.25	1.25	8.00	0.00	1.75	0.00	0.00	0.00	0.00	0.00	0.00	0.00	0.00	-0.206055	0.104492	1.111816	-51.590000	97.650002	-0.770000	806.00	-0.33	-0.07
2.70	0.00	0.00	0.00	0.00	0.00	0.00	0.00	0.00	0.00	1.00	1.25	0.75	0.25	0.00	0.00	0.00	0.720703	-0.786621	4.039551	166.039993	79.870003	-148.470001	34.00	0.00	0.00	24.00	21.00	9.00	12.75	1.50	8.75	0.00	2.25	0.00	0.00	0.00	0.50	1.00	0.00	0.00	0.00	-0.204102	0.118164	1.219238	-47.670002	78.610001	-3.080000	842.00	-0.31	-0.08
2.71	0.00	0.00	0.00	0.00	0.00	0.00	0.00	0.00	0.00	1.00	1.00	0.50	0.00	0.00	0.00	0.00	0.386719	-0.120117	2.975586	49.000000	-109.620003	-145.320007	26.00	0.00	0.00	23.50	20.50	9.25	12.75	2.00	9.00	0.00	2.75	0.00	0.00	0.00	0.25	0.75	0.00	0.00	0.00	-0.240723	0.227539	1.268555	-48.790001	64.680000	-2.590000	846.00	-0.31	-0.09
2.72	0.00	0.00	0.00	0.00	0.00	0.00	0.00	0.00	0.00	1.00	0.75	0.50	0.00	0.00	0.00	0.00	0.171387	-0.073730	2.099121	-65.309998	-213.220001	-133.910004	24.00	0.00	0.00	23.25	20.50	9.25	13.00	2.50	9.50	0.00	3.25	0.00	0.00	0.00	0.25	1.00	0.00	0.00	0.00	-0.167969	0.173340	1.083496	-54.950001	52.570000	0.280000	867.00	-0.30	-0.09
2.73	0.00	0.00	0.00	0.00	0.00	0.00	0.00	0.00	0.00	0.75	0.75	0.50	0.00	0.00	0.00	0.00	0.197754	0.144531	1.334961	-131.389999	-252.419998	-124.180000	21.00	0.00	0.00	22.75	19.75	9.50	13.00	2.75	9.75	0.00	3.75	0.00	0.00	0.00	0.25	1.25	0.00	0.00	0.00	-0.161133	0.107422	1.112305	-59.500000	44.380001	0.420000	873.00	-0.30	-0.09
2.74	0.00	0.00	0.00	0.00	0.00	0.00	0.00	0.00	0.00	0.50	0.75	0.25	0.00	0.00	0.00	0.00	0.234375	0.222168	0.857422	-155.470001	-257.950012	-116.900002	16.00	0.00	0.00	22.00	19.25	9.25	12.75	3.00	10.25	0.00	4.75	0.00	0.00	0.00	0.00	1.75	0.00	0.00	0.00	-0.196289	0.163574	1.084961	-49.700001	28.350000	0.070000	880.00	-0.29	-0.10
2.75	0.00	0.00	0.00	0.00	0.00	0.00	0.00	0.00	0.00	0.50	0.75	0.00	0.00	0.00	0.00	0.00	0.173828	0.311035	0.618164	-154.839996	-253.470001	-112.910004	13.00	0.00	0.00	21.25	18.50	9.25	12.50	3.75	10.50	0.00	5.25	0.00	0.00	0.00	0.50	2.00	0.00	0.00	0.00	-0.146973	0.145996	0.998047	-37.799999	15.890000	0.910000	888.00	-0.28	-0.11
2.76	0.00	0.00	0.00	0.00	0.00	0.00	0.00	0.00	0.00	0.50	0.50	0.00	0.00	0.00	0.00	0.00	0.139648	0.339844	0.587402	-139.089996	-247.660004	-110.529999	10.00	0.00	0.00	20.25	17.75	9.00	12.50	3.75	10.75	0.00	5.75	0.00	0.00	0.00	0.50	2.00	0.00	0.00	0.00	-0.171387	0.133789	1.003906	-30.450001	9.660000	0.630000	879.00	-0.27	-0.11
2.77	0.00	0.00	0.00	0.00	0.00	0.00	0.00	0.00	0.00	0.50	0.50	0.00	0.00	0.00	0.00	0.00	0.063965	0.340820	0.751953	-116.690002	-249.410004	-108.779999	10.00	0.00	0.00	19.50	17.00	9.00	12.25	4.25	10.75	0.00	6.25	0.00	0.00	0.25	0.50	2.75	0.00	0.00	0.00	-0.155273	0.123535	0.985840	-23.520000	7.420000	-0.140000	884.00	-0.26	-0.12
2.78	0.00	0.00	0.00	0.00	0.00	0.00	0.00	0.00	0.00	0.50	0.50	0.00	0.00	0.00	0.00	0.00	0.010742	0.328613	0.868164	-98.139999	-261.309998	-107.660004	10.00	0.00	0.00	17.50	16.00	8.50	11.75	4.50	11.00	0.00	6.75	0.00	0.25	0.50	0.75	2.75	0.00	0.00	0.00	-0.143066	0.122559	0.953613	-17.150000	7.140000	-0.910000	864.00	-0.25	-0.13
2.79	0.00	0.00	0.00	0.00	0.00	0.00	0.00	0.00	0.00	0.50	0.25	0.00	0.00	0.00	0.00	0.00	-0.046875	0.344727	0.966309	-86.590004	-278.459991	-106.889999	8.00	0.00	0.00	16.00	14.25	8.25	11.50	4.50	11.00	0.00	7.00	0.00	0.50	0.75	0.50	3.25	0.00	0.00	0.00	-0.148438	0.128906	0.983887	-10.780000	7.770000	-1.400000	837.00	-0.24	-0.13
2.80	0.00	0.00	0.00	0.00	0.00	0.00	0.00	0.00	0.00	0.25	0.00	0.00	0.00	0.00	0.00	0.00	-0.116699	0.411621	1.044434	-77.489998	-297.149994	-105.840004	3.00	0.00	0.00	14.00	13.00	7.75	11.00	4.50	11.00	0.00	7.50	0.00	0.25	0.75	1.00	4.25	0.00	0.00	0.00	-0.155762	0.132324	0.987793	-4.830000	9.100000	-1.820000	813.00	-0.22	-0.15
2.81	0.00	0.00	0.00	0.00	0.00	0.00	0.00	0.00	0.00	0.25	0.25	0.00	0.00	0.00	0.00	0.00	-0.178223	0.498535	1.051270	-66.080002	-314.299988	-103.250000	5.00	0.00	0.00	12.00	11.00	7.00	10.25	4.50	10.75	0.00	7.75	0.00	0.50	0.75	1.25	5.00	0.00	0.00	0.25	-0.166992	0.139160	0.990723	-0.700000	10.220000	-2.100000	771.00	-0.20	-0.16
2.82	0.00	0.00	0.00	0.00	0.00	0.00	0.00	0.00	0.00	0.00	0.25	0.00	0.00	0.00	0.00	0.00	-0.224609	0.565430	1.044922	-51.730000	-328.230011	-97.580002	3.00	0.00	0.00	10.00	9.25	6.75	9.75	4.25	10.75	0.00	7.75	0.00	0.50	1.25	1.25	5.25	0.25	0.00	0.25	-0.166992	0.142090	0.969727	1.750000	12.110000	-2.660000	733.00	-0.19	-0.17
2.83	0.00	0.00	0.00	0.00	0.00	0.00	0.00	0.00	0.00	0.00	0.00	0.00	0.00	0.00	0.00	0.00	-0.277344	0.622070	1.008301	-35.630001	-338.100006	-87.919998	0.00	0.00	0.00	8.25	8.00	6.00	9.00	4.00	10.50	0.00	8.00	0.00	0.75	1.25	1.75	5.50	0.00	0.00	0.25	-0.178711	0.124512	0.982422	1.680000	12.950000	-2.800000	693.00	-0.17	-0.18
2.84	0.00	0.00	0.00	0.00	0.00	0.00	0.00	0.00	0.00	0.00	0.00	0.00	0.00	0.00	0.00	0.00	-0.336426	0.644043	1.075195	-19.740000	-344.610016	-73.430000	0.00	0.00	0.00	6.50	6.75	5.00	8.00	3.75	10.50	0.00	8.00	0.00	1.00	1.25	1.75	6.25	0.25	0.00	0.25	-0.192871	0.139160	0.978027	2.380000	13.440001	-2.310000	650.00	-0.15	-0.19
2.85	0.00	0.00	0.00	0.00	0.00	0.00	0.00	0.00	0.00	0.00	0.00	0.00	0.00	0.00	0.00	0.00	-0.460938	0.640625	1.209961	-1.330000	-359.799988	-34.720001	0.00	0.00	0.00	5.25	5.50	4.25	7.50	3.50	10.25	0.00	8.25	0.25	1.00	1.25	1.75	6.50	0.25	0.00	0.25	-0.176270	0.142090	0.971191	2.450000	14.210000	-1.960000	615.00	-0.13	-0.20
2.86	0.00	0.00	0.00	0.00	0.00	0.00	0.00	0.00	0.00	0.00	0.00	0.00	0.00	0.00	0.00	0.00	-0.537598	0.663086	1.240723	2.100000	-366.660004	-13.020000	0.00	0.00	0.00	4.00	4.50	3.50	6.50	3.25	10.00	0.00	8.25	0.00	1.50	1.75	2.50	7.00	0.25	0.00	0.50	-0.188477	0.140137	0.975098	1.680000	14.910000	-1.960000	589.00	-0.11	-0.22
2.87	0.00	0.00	0.00	0.00	0.00	0.00	0.00	0.00	0.00	0.00	0.00	0.00	0.00	0.00	0.00	0.00	-0.617676	0.662109	1.278809	6.230000	-370.649994	9.240000	0.00	0.00	0.00	3.25	2.75	3.00	6.00	3.00	9.75	0.00	8.25	0.25	1.00	2.00	2.75	7.75	0.75	0.00	0.50	-0.185059	0.130859	0.955566	0.700000	15.540000	-2.450000	563.00	-0.08	-0.23
2.88	0.00	0.00	0.00	0.00	0.00	0.00	0.00	0.00	0.00	0.00	0.00	0.00	0.00	0.00	0.00	0.00	-0.701172	0.656250	1.375488	13.510000	-373.239990	31.360001	0.00	0.00	0.00	2.50	2.25	2.25	5.50	2.75	9.50	0.00	8.25	0.50	1.25	2.00	2.75	8.00	0.75	0.00	0.50	-0.192871	0.144531	0.963867	-0.770000	15.680000	-3.290000	539.00	-0.06	-0.24
2.89	0.00	0.00	0.00	0.00	0.00	0.00	0.00	0.00	0.00	0.00	0.00	0.00	0.00	0.00	0.00	0.00	-0.773438	0.612793	1.530273	22.469999	-375.690002	51.660000	0.00	0.00	0.00	2.00	1.50	2.00	5.00	2.75	9.25	0.00	8.25	0.25	1.50	2.00	3.00	8.25	1.00	0.00	0.75	-0.196289	0.143066	0.959473	-2.380000	15.190001	-3.920000	524.00	-0.04	-0.24
2.90	0.00	0.00	0.00	0.00	0.00	0.00	0.00	0.00	0.00	0.00	0.00	0.00	0.00	0.00	0.00	0.00	-0.854980	0.539062	1.706543	31.920000	-381.220001	68.459999	0.00	0.00	0.00	1.50	1.25	1.25	4.00	2.50	9.00	0.00	8.25	0.50	1.50	2.25	3.50	8.25	1.00	0.00	1.00	-0.184082	0.130371	0.961914	-3.500000	14.350000	-4.270000	504.00	-0.02	-0.25
2.91	0.00	0.00	0.00	0.00	0.00	0.00	0.00	0.00	0.00	0.00	0.00	0.00	0.00	0.00	0.00	0.00	-0.949707	0.456543	1.811523	39.689999	-389.760010	80.779999	0.00	0.00	0.00	1.75	1.00	1.25	3.50	2.50	8.50	0.00	8.00	0.50	1.75	3.00	4.00	8.50	1.25	0.00	1.00	-0.200195	0.144043	0.958984	-3.920000	13.510000	-4.760000	509.00	-0.01	-0.25
2.92	0.00	0.00	0.00	0.00	0.00	0.00	0.00	0.00	0.00	0.00	0.00	0.00	0.00	0.00	0.00	0.00	-1.022461	0.396484	1.869141	45.639999	-396.760010	88.690002	0.00	0.00	0.00	1.50	1.00	1.25	3.50	2.25	8.25	0.00	8.00	0.75	2.00	3.00	4.25	8.75	1.75	0.00	1.25	-0.208496	0.135254	0.960938	-5.950000	12.950000	-5.320000	518.00	0.00	-0.24
2.93	0.00	0.00	0.00	0.00	0.00	0.00	0.00	0.00	0.00	0.00	0.00	0.00	0.00	0.00	0.00	0.00	-1.123047	0.341797	1.946289	53.549999	-398.790009	92.540001	0.00	0.00	0.00	1.00	1.00	1.00	3.00	2.25	8.00	0.00	8.00	0.75	2.50	3.50	5.00	8.75	2.00	0.00	1.25	-0.202637	0.139648	0.958984	-7.980000	12.460000	-6.230000	522.00	0.02	-0.24
2.94	0.00	0.00	0.00	0.00	0.00	0.00	0.00	0.00	0.00	0.00	0.00	0.00	0.00	0.00	0.00	0.00	-1.342773	0.321777	2.137207	62.439999	-396.899994	92.470001	0.00	0.00	0.00	0.75	0.75	0.75	2.50	2.00	7.75	0.00	7.75	1.25	2.50	3.75	5.75	8.75	2.25	0.25	1.25	-0.206543	0.128418	0.956055	-9.100000	11.550000	-6.930000	522.00	0.04	-0.24
2.95	0.00	0.00	0.00	0.00	0.00	0.00	0.00	0.00	0.00	0.00	0.00	0.00	0.00	0.00	0.00	0.00	-1.572266	0.328125	2.277832	58.310001	-394.799988	89.879997	0.00	0.00	0.00	0.75	0.75	0.50	2.25	2.00	7.50	0.00	7.75	1.00	3.00	4.50	6.50	9.00	2.75	0.00	1.50	-0.202637	0.133301	0.951660	-9.310000	11.130000	-7.280000	536.00	0.06	-0.24
2.96	0.00	0.00	0.00	0.00	0.00	0.00	0.00	0.00	0.00	0.00	0.00	0.00	0.00	0.00	0.00	0.00	-1.786133	0.473145	2.376465	36.330002	-392.000000	89.320000	0.00	0.00	0.00	0.50	0.50	0.50	2.00	2.25	7.00	0.00	7.75	1.50	3.50	5.50	7.25	9.25	3.50	0.00	1.75	-0.216309	0.136230	0.951660	-8.680000	10.710000	-7.700000	566.00	0.08	-0.22
2.97	0.00	0.00	0.00	0.00	0.00	0.00	0.00	0.00	0.00	0.00	0.00	0.00	0.00	0.00	0.00	0.00	-1.964355	0.642090	2.266602	8.890000	-387.519989	99.680000	0.00	0.00	0.00	0.75	0.50	0.50	1.75	2.25	6.75	0.00	7.50	1.75	4.00	6.75	8.00	9.50	4.00	0.50	2.00	-0.202148	0.132324	0.958008	-7.910000	10.780000	-8.120000	602.00	0.09	-0.21
2.98	0.00	0.00	0.00	0.00	0.00	0.00	0.00	0.00	0.00	0.00	0.00	0.00	0.00	0.00	0.00	0.00	-2.315918	0.693848	2.417969	7.350000	-379.470001	124.739998	0.00	0.00	0.00	0.75	0.75	0.25	1.75	2.00	6.50	0.00	7.50	2.25	4.75	7.50	8.25	9.75	4.75	0.75	2.25	-0.226562	0.121582	0.956055	-6.930000	11.760000	-8.750000	633.00	0.11	-0.20
2.99	0.00	0.00	0.00	0.00	0.00	0.00	0.00	0.00	0.00	0.00	0.00	0.00	0.00	0.00	0.00	0.00	-2.754395	0.666504	2.293945	28.070000	-370.720001	145.600006	0.00	0.00	0.00	0.50	0.75	0.25	2.00	2.25	6.25	0.00	7.50	2.50	6.00	8.25	8.75	10.00	5.25	1.00	2.50	-0.226562	0.133301	0.947754	-5.740000	13.160000	-9.380000	673.00	0.12	-0.19
3.00	0.00	0.00	0.00	0.00	0.00	0.00	0.00	0.00	0.00	0.00	0.00	0.00	0.00	0.00	0.00	0.00	-3.089844	0.475098	1.929199	47.599998	-359.380005	158.830002	0.00	0.00	0.00	0.50	0.50	0.25	1.75	2.00	6.00	0.00	7.50	3.25	7.50	8.75	9.25	10.25	6.00	0.75	2.75	-0.213867	0.132324	0.963379	-4.340000	15.680000	-9.870000	706.00	0.13	-0.18
3.01	0.00	0.00	0.00	0.00	0.00	0.00	0.00	0.00	0.00	0.00	0.00	0.00	0.00	0.00	0.00	0.00	-3.371582	0.341797	1.399414	48.090000	-336.559998	165.199997	0.00	0.00	0.00	0.50	0.00	0.00	1.75	1.75	6.00	0.00	7.25	3.75	8.25	9.25	9.75	10.75	7.00	1.25	3.25	-0.207520	0.126953	0.974121	2.310000	23.030001	-11.830000	738.00	0.15	-0.17
3.02	0.00	0.00	0.00	0.00	0.00	0.00	0.00	0.00	0.00	0.00	0.00	0.00	0.00	0.00	0.00	0.00	-3.590332	0.329102	0.791016	34.790001	-296.869995	164.360001	0.00	0.00	0.00	0.50	0.50	0.00	1.50	1.25	5.50	0.00	7.25	4.00	8.50	9.75	10.25	11.00	7.75	1.75	4.25	-0.227539	0.141602	0.958984	6.440000	28.980000	-13.300000	764.00	0.16	-0.17
3.03	0.00	0.00	0.00	0.00	0.00	0.00	0.00	0.00	0.00	0.00	0.00	0.00	0.00	0.00	0.00	0.00	-3.738770	0.256836	0.194824	30.520000	-243.040009	161.139999	0.00	0.00	0.00	0.50	0.50	0.00	1.00	1.25	5.25	0.00	7.00	5.00	9.25	10.25	10.75	11.25	8.75	2.25	4.75	-0.210938	0.142578	0.999512	10.710000	36.470001	-14.420000	802.00	0.17	-0.15
3.04	0.00	0.00	0.00	0.00	0.00	0.00	0.00	0.00	0.00	0.00	0.00	0.00	0.00	0.00	0.00	0.00	-3.797852	0.096680	-0.139648	37.799999	-182.630005	151.759995	0.00	0.00	0.00	0.50	0.25	0.00	1.00	1.00	5.00	0.00	7.00	5.25	10.00	11.00	11.50	11.75	10.00	2.50	5.50	-0.266113	0.150879	0.988281	15.680000	46.200001	-15.330000	843.00	0.18	-0.15
3.05	0.00	0.00	0.00	0.00	0.00	0.00	0.00	0.00	0.00	0.00	0.00	0.00	0.00	0.00	0.00	0.00	-4.078613	-0.116699	-0.183594	47.040001	-130.479996	127.540001	0.00	0.00	0.00	0.25	0.50	0.00	1.00	0.25	4.00	0.00	6.50	5.75	10.50	11.75	12.00	12.00	11.25	2.75	6.25	-0.270996	0.156250	1.000977	22.469999	56.770000	-16.100000	860.00	0.19	-0.14
3.06	0.00	0.00	0.00	0.00	0.00	0.00	0.00	0.00	0.00	0.00	0.00	0.00	0.00	0.00	0.00	0.00	-4.147949	-0.221191	-0.455078	42.840000	-91.699997	83.580002	0.00	0.00	0.00	0.50	0.25	0.00	0.75	0.25	3.75	0.00	6.25	6.50	11.00	12.50	12.50	12.25	12.75	3.50	6.75	-0.267090	0.163086	1.017090	30.590000	72.449997	-16.379999	905.00	0.20	-0.13
3.07	0.00	0.00	0.00	0.00	0.00	0.00	0.00	0.00	0.00	0.00	0.00	0.00	0.00	0.00	0.00	0.00	-3.984863	-0.149414	-0.829590	52.920002	0.070000	-12.390000	0.00	0.00	0.00	0.25	0.00	0.00	0.75	0.00	2.75	0.00	5.75	7.00	11.75	13.00	13.00	12.50	14.75	4.00	7.00	-0.311035	0.178711	1.025391	40.110001	92.120003	-17.850000	930.00	0.22	-0.12
3.08	0.00	0.00	0.00	0.00	0.00	0.00	0.00	0.00	0.00	0.00	0.00	0.00	0.00	0.00	0.00	0.00	-3.657227	-0.129395	-0.465332	66.570000	55.020000	-46.619999	0.00	0.00	0.00	0.50	0.25	0.00	1.00	0.00	1.75	0.00	5.50	7.25	12.25	13.25	13.25	12.50	16.50	5.00	7.50	-0.313477	0.205078	0.990234	44.730000	117.040001	-19.740000	965.00	0.23	-0.11
3.09	0.00	0.00	0.00	0.00	0.00	0.00	0.00	0.00	0.00	0.00	0.00	0.00	0.00	0.00	0.00	0.00	-3.208496	-0.084961	0.141113	62.720001	94.989998	-71.540001	0.00	0.00	0.00	0.25	0.00	0.00	0.50	0.00	1.50	0.00	4.75	7.75	12.75	13.75	13.75	12.25	18.00	5.50	8.00	-0.758789	-0.080078	0.883301	86.029999	99.470001	-36.750000	981.00	0.24	-0.10
3.10	0.00	0.00	0.00	0.00	0.00	0.00	0.00	0.00	0.00	0.00	0.00	0.00	0.00	0.00	0.00	0.00	2.010742	-0.913086	2.046387	0.980000	247.240005	-37.240002	0.00	0.00	0.00	0.25	0.00	0.00	0.25	0.00	1.00	0.00	4.00	8.00	13.00	14.00	13.75	12.00	19.50	6.00	8.50	-0.342285	0.085449	1.114746	43.889999	150.500000	-24.010000	988.00	0.25	-0.09
3.11	1.50	0.50	0.75	0.50	0.00	0.00	0.00	0.00	0.00	0.00	0.00	0.00	0.00	0.00	0.00	0.00	0.641602	0.648438	0.780273	-36.049999	193.410004	-29.889999	34.00	0.00	0.00	0.25	0.00	0.00	0.25	0.00	0.00	0.00	3.25	8.25	13.50	14.25	13.75	11.50	21.00	6.50	8.50	-0.366699	0.156738	1.020508	1.610000	186.830002	-16.660000	991.00	0.26	-0.08
3.12	4.50	4.00	1.25	1.75	0.00	0.00	0.00	0.00	0.00	0.00	0.00	0.00	0.00	0.00	0.00	0.00	-0.340820	-0.355469	-0.585938	-57.889999	143.710007	-28.070000	117.00	-0.37	-0.04	0.00	0.00	0.00	0.00	0.00	0.00	0.00	2.75	8.25	14.00	14.25	13.75	11.00	22.25	7.00	8.75	-0.384766	0.165527	0.990723	-7.070000	208.039993	-16.170000	996.00	0.27	-0.07
3.13	10.25	9.50	1.25	3.00	0.00	0.00	0.00	0.00	0.00	0.00	0.00	0.00	0.00	0.00	0.00	0.00	-0.763672	-0.410645	0.476562	-60.830002	247.169998	-37.939999	240.00	-0.38	-0.04	0.00	0.00	0.00	0.00	0.00	0.00	0.00	2.00	8.50	14.25	14.50	13.50	10.25	23.00	7.50	9.00	-0.445312	0.166504	1.063477	-9.660000	230.089996	-15.680000	997.00	0.27	-0.06
3.14	16.25	15.50	2.50	4.25	0.00	0.00	0.00	0.00	0.00	0.00	0.00	0.00	0.00	0.00	0.00	0.00	-0.945801	-0.139648	2.001953	14.000000	328.790009	-33.320000	385.00	-0.38	-0.03	0.00	0.00	0.00	0.00	0.00	0.00	0.00	1.75	8.50	14.50	14.50	13.50	9.50	23.50	7.25	9.00	-0.512207	0.209473	1.025879	-7.980000	255.360001	-19.740000	991.00	0.28	-0.05
3.15	21.25	22.00	3.50	5.50	0.00	0.00	0.00	0.00	0.00	0.00	0.00	0.00	0.00	0.00	0.00	0.00	-0.964844	-0.395020	2.571289	59.220001	291.690002	-32.130001	522.00	-0.38	-0.04	0.00	0.00	0.00	0.00	0.00	0.00	0.00	1.25	9.00	15.00	14.50	13.00	8.75	23.50	7.50	9.00	-0.528809	0.220215	1.041016	-6.160000	278.600006	-25.410000	986.00	0.28	-0.05
3.16	24.50	25.00	4.50	8.25	0.00	0.00	0.00	0.00	0.00	0.00	0.00	0.00	0.00	0.00	0.00	0.00	-0.689453	0.129395	1.404785	94.989998	258.299988	-44.099998	624.00	-0.38	-0.04	0.00	0.00	0.00	0.00	0.00	0.00	0.00	1.00	8.75	15.25	14.50	12.75	8.00	23.25	7.25	9.00	-0.544922	0.187988	1.025391	-8.050000	303.029999	-32.200001	967.00	0.28	-0.04
3.17	26.25	27.75	6.50	9.75	0.00	1.25	0.00	0.00	0.00	0.00	0.00	0.00	0.00	0.00	0.00	0.00	-0.742676	0.897461	3.109375	110.040001	274.679993	-47.320000	720.00	-0.37	-0.05	0.00	0.00	0.00	0.00	0.00	0.00	0.00	0.75	8.50	15.00	14.50	12.25	7.25	22.50	7.00	9.25	-0.602539	0.213867	1.073730	-16.660000	329.700012	-37.520000	938.00	0.28	-0.04
3.18	26.00	29.00	7.75	12.00	0.50	3.75	0.00	0.50	0.00	0.00	0.00	0.00	0.50	0.00	0.00	0.00	-0.929199	0.749512	2.290039	116.970001	235.130005	-24.850000	812.00	-0.35	-0.06	0.00	0.00	0.00	0.00	0.00	0.00	0.00	0.75	8.25	15.00	14.50	11.75	6.25	21.50	6.75	9.00	-0.676270	0.230957	1.157715	-23.799999	360.220001	-43.889999	909.00	0.28	-0.04
3.19	25.50	28.25	8.50	13.75	0.75	6.50	0.00	1.25	0.00	0.00	0.00	0.00	0.75	0.00	0.00	0.00	-0.803711	0.391113	1.416504	31.080000	144.339996	-7.000000	874.00	-0.34	-0.08	0.00	0.00	0.00	0.00	0.00	0.00	0.00	0.50	7.25	14.00	14.00	11.00	5.25	20.25	6.25	8.75	-0.823730	0.222656	1.209473	-27.299999	392.630005	-47.250000	842.00	0.28	-0.04
3.20	25.00	27.50	8.50	14.00	1.00	7.50	0.00	1.75	0.00	0.00	0.00	0.25	0.75	0.00	0.00	0.00	-0.265625	0.062988	0.963867	-7.490000	83.580002	-0.140000	889.00	-0.33	-0.09	0.00	0.00	0.00	0.00	0.00	0.00	0.00	0.25	6.00	12.75	13.00	10.00	4.50	18.75	5.50	8.25	-0.847168	0.221191	1.104004	-15.400000	424.619995	-46.549999	758.00	0.29	-0.04
3.21	24.00	26.75	8.25	14.50	1.00	8.50	0.00	2.50	0.00	0.00	0.00	0.25	1.25	0.00	0.00	0.00	-0.171387	0.101074	1.000977	-18.549999	67.690002	-3.360000	901.00	-0.32	-0.10	0.00	0.00	0.00	0.00	0.00	0.00	0.00	0.00	4.75	11.00	11.25	8.75	3.50	17.75	4.75	7.25	-1.248047	0.380859	1.543945	7.700000	450.029999	-45.779999	658.00	0.29	-0.03
3.22	22.50	25.75	8.25	14.50	1.25	9.25	0.00	3.50	0.00	0.00	0.00	0.25	1.50	0.00	0.00	0.00	-0.293457	0.185547	1.089355	-26.530001	54.389999	-2.870000	904.00	-0.31	-0.11	0.00	0.00	0.00	0.00	0.00	0.00	0.00	0.00	3.00	9.25	9.50	7.50	2.50	15.75	3.25	6.00	-2.210449	0.837402	2.196777	86.169998	494.690002	-39.340000	537.00	0.29	-0.03
3.23	21.50	24.00	8.25	14.50	1.25	9.75	0.00	4.75	0.00	0.00	0.25	0.50	2.00	0.00	0.00	0.00	-0.198730	0.151855	1.025879	-36.400002	44.029999	-1.610000	912.00	-0.29	-0.12	0.00	0.00	0.00	0.00	0.00	0.00	0.00	0.00	2.25	8.00	8.00	5.75	2.00	13.50	2.25	4.50	-1.794434	0.555176	3.222168	123.199997	510.019989	-43.119999	438.00	0.29	-0.03
3.24	20.25	22.75	8.00	14.50	1.50	10.25	0.00	5.25	0.00	0.00	0.25	0.50	2.50	0.00	0.00	0.00	-0.237305	0.177734	1.001953	-46.200001	38.150002	-3.360000	905.00	-0.28	-0.12	0.00	0.00	0.00	0.00	0.00	0.00	0.00	0.00	1.25	6.00	6.00	4.25	1.75	10.50	1.25	2.75	-1.645020	-0.119629	2.480469	135.940002	489.649994	-49.349998	319.00	0.29	-0.03
3.25	19.25	21.75	8.00	13.75	1.75	11.25	0.00	5.50	0.00	0.00	0.50	0.75	3.00	0.00	0.00	0.00	-0.219238	0.167480	0.992676	-51.730000	28.490000	-4.270000	904.00	-0.27	-0.13	0.00	0.00	0.00	0.00	0.00	0.00	0.00	0.00	1.00	5.00	5.00	3.50	1.00	8.00	0.75	1.00	-0.744141	-0.016602	2.486816	114.940002	488.179993	-51.099998	245.00	0.29	-0.02
3.26	17.75	20.50	7.75	13.50	1.75	11.50	0.00	6.00	0.00	0.50	0.75	0.75	3.50	0.00	0.00	0.00	-0.219238	0.114258	0.978516	-45.360001	16.940001	-4.480000	894.00	-0.26	-0.14	0.00	0.00	0.00	0.00	0.00	0.00	0.00	0.00	1.00	4.50	4.00	2.75	0.75	5.75	0.25	0.50	-0.654785	0.326172	2.517090	95.550003	478.380005	-60.130001	192.00	0.28	-0.01
3.27	16.50	19.00	7.75	13.50	2.00	11.75	0.00	6.25	0.00	0.50	0.50	1.00	4.00	0.00	0.00	0.00	-0.222656	0.143066	0.971680	-33.320000	9.240000	-4.830000	881.00	-0.25	-0.14	0.00	0.00	0.00	0.00	0.00	0.00	0.00	0.00	0.50	4.00	3.25	2.25	0.50	3.25	0.00	0.00	0.022461	0.648438	2.066895	89.739998	441.630005	-77.070000	138.00	0.26	-0.03
3.28	15.50	16.75	7.50	13.00	2.25	12.00	0.00	6.50	0.00	0.50	0.75	1.00	4.75	0.00	0.00	0.00	-0.219727	0.119141	0.960938	-17.850000	4.200000	-5.390000	860.00	-0.24	-0.15	0.00	0.00	0.00	0.00	0.00	0.00	0.00	0.00	0.50	2.75	2.50	1.25	0.00	1.00	0.00	0.00	-0.325684	0.795898	1.042480	98.489998	432.320007	-94.360001	83.00	0.25	-0.02
3.29	14.25	16.25	7.50	12.75	2.50	12.50	0.00	7.00	0.00	0.50	1.00	1.25	5.25	0.00	0.00	0.00	-0.224121	0.097656	0.967773	-13.020000	5.250000	-5.460000	865.00	-0.23	-0.16	0.00	0.00	0.00	0.00	0.00	0.00	0.00	0.00	0.00	2.00	1.25	0.50	0.00	0.75	0.00	0.00	-0.272461	0.624512	3.084961	116.199997	401.519989	-112.910004	46.00	0.00	0.00
3.30	13.25	14.50	7.50	12.00	2.50	12.50	0.00	7.25	0.00	0.75	1.00	1.25	5.25	0.00	0.00	0.00	-0.220703	0.103516	0.969238	-8.190000	6.440000	-4.900000	837.00	-0.22	-0.16	0.00	0.00	0.00	0.00	0.00	0.00	0.00	0.00	0.00	2.00	1.75	0.25	0.00	0.00	0.00	0.00	-0.678223	0.386719	0.986328	106.959999	332.149994	-126.770004	42.00	0.00	0.00
3.31	11.25	13.50	7.00	11.50	2.50	13.00	0.00	7.50	0.00	0.75	0.75	1.25	5.75	0.50	0.00	0.00	-0.215332	0.104004	0.955078	-4.130000	7.840000	-4.130000	811.00	-0.20	-0.17	0.00	0.00	0.00	0.00	0.00	0.00	0.00	0.00	0.00	1.50	1.25	0.50	0.00	0.00	0.00	0.00	0.869629	0.543945	4.585938	79.169998	166.600006	-116.690002	34.00	0.00	0.00
3.32	9.75	11.25	6.75	10.75	2.50	12.75	0.00	7.75	0.00	1.00	1.00	1.50	6.25	1.00	0.00	0.00	-0.215332	0.099609	0.967285	-0.770000	9.590000	-3.360000	781.00	-0.18	-0.18	0.00	0.00	0.00	0.00	0.00	0.00	0.00	0.00	0.00	1.50	1.00	0.00	0.00	0.25	0.00	0.00	0.715820	0.278809	3.288086	16.450001	-23.940001	-90.790001	28.00	0.00	0.00
3.33	8.75	10.00	6.50	9.75	2.50	12.75	0.00	8.00	0.00	1.00	1.00	1.50	6.50	0.50	0.00	0.00	-0.215820	0.110352	0.964355	2.030000	11.620000	-3.360000	747.00	-0.18	-0.18	0.00	0.00	0.00	0.00	0.00	0.00	0.00	0.00	0.00	1.25	1.00	0.00	0.00	0.00	0.00	0.00	0.523438	0.396484	2.944336	-54.529999	-183.050003	-59.920002	23.00	0.00	0.00
3.34	7.25	8.75	5.50	9.00	2.25	12.50	0.00	8.00	0.00	0.75	1.25	1.50	6.75	0.50	0.00	0.00	-0.214355	0.108887	0.954590	3.570000	13.790000	-3.570000	698.00	-0.16	-0.20	0.00	0.00	0.00	0.00	0.00	0.00	0.00	0.00	0.00	1.25	0.75	0.00	0.00	0.00	0.00	0.00	0.270020	0.493652	2.175781	-91.139999	-283.570007	-38.570000	21.00	0.00	0.00
3.35	6.50	7.00	5.50	8.50	2.25	13.00	0.00	8.25	0.25	1.00	1.00	1.75	7.00	0.75	0.00	0.00	-0.224609	0.109375	0.950195	4.340000	15.610000	-3.780000	688.00	-0.15	-0.20	0.00	0.00	0.00	0.00	0.00	0.00	0.00	0.00	0.00	1.00	0.50	0.00	0.00	0.00	0.00	0.00	0.236328	0.426758	1.594238	-100.379997	-338.660004	-28.490000	16.00	0.00	0.00
3.36	5.25	6.00	4.75	7.50	2.00	13.00	0.00	8.50	0.00	0.75	1.25	1.75	7.25	0.75	0.25	0.25	-0.226562	0.113281	0.946289	4.900000	16.100000	-3.500000	650.00	-0.13	-0.22	0.00	0.00	0.00	0.00	0.00	0.00	0.00	0.00	0.00	0.50	0.50	0.00	0.00	0.00	0.00	0.00	0.142090	0.432129	1.189453	-87.360001	-365.610016	-26.320000	10.00	0.00	0.00
3.37	4.25	5.25	4.25	6.75	2.00	12.50	0.00	8.50	0.00	1.00	1.50	2.25	7.50	0.75	0.00	0.00	-0.216797	0.107422	0.938477	4.900000	16.450001	-3.360000	622.00	-0.12	-0.22	0.00	0.00	0.00	0.00	0.00	0.00	0.00	0.00	0.00	0.50	0.50	0.00	0.00	0.00	0.00	0.00	0.043457	0.412598	0.924805	-63.560001	-378.910004	-30.240000	10.00	0.00	0.00
3.38	3.25	4.00	3.75	6.25	1.75	12.25	0.00	8.50	0.00	1.00	1.75	2.25	7.75	1.00	0.00	0.25	-0.225098	0.117188	0.946289	4.900000	16.940001	-3.500000	592.00	-0.10	-0.23	0.00	0.00	0.00	0.00	0.00	0.00	0.00	0.00	0.00	0.50	0.50	0.00	0.00	0.00	0.00	0.00	-0.059082	0.447266	0.815430	-33.529999	-385.489990	-35.279999	10.00	0.00	0.00
3.39	2.50	3.25	2.75	5.75	1.75	11.75	0.00	8.75	0.00	1.25	1.75	2.75	8.25	1.00	0.00	0.25	-0.231934	0.107910	0.945801	4.690000	17.570000	-3.640000	571.00	-0.08	-0.25	0.00	0.00	0.00	0.00	0.00	0.00	0.00	0.00	0.00	0.25	0.25	0.00	0.00	0.00	0.00	0.00	-0.171875	0.453613	0.868652	-4.200000	-387.869995	-38.150002	5.00	0.00	0.00
3.40	2.50	2.00	2.25	5.00	1.50	11.75	0.00	8.75	0.00	1.00	2.00	2.75	8.25	1.25	0.25	0.25	-0.227051	0.116699	0.948242	4.830000	17.500000	-3.780000	548.00	-0.06	-0.25	0.00	0.00	0.00	0.00	0.00	0.00	0.00	0.00	0.00	0.25	0.25	0.00	0.00	0.00	0.00	0.00	-0.232422	0.430664	0.974121	16.799999	-392.700012	-36.330002	5.00	0.00	0.00
3.41	1.75	1.75	2.50	4.75	1.25	11.50	0.00	8.75	0.00	1.25	2.00	3.25	8.50	1.25	0.25	0.25	-0.234375	0.127930	0.964844	4.690000	17.570000	-3.920000	543.00	-0.05	-0.26	0.00	0.00	0.00	0.00	0.00	0.00	0.00	0.00	0.00	0.25	0.25	0.00	0.00	0.00	0.00	0.00	-0.353027	0.406250	1.096191	17.850000	-407.959991	-18.059999	5.00	0.00	0.00
3.42	1.25	1.25	1.50	3.75	1.25	11.00	0.00	8.75	0.00	1.50	2.25	3.75	9.00	2.00	0.50	0.50	-0.229492	0.123047	0.943359	4.480000	17.639999	-4.200000	531.00	-0.01	-0.26	0.00	0.00	0.00	0.00	0.00	0.00	0.00	0.00	0.00	0.25	0.00	0.00	0.00	0.00	0.00	0.00	-0.414062	0.435059	1.076660	1.540000	-411.529999	-3.640000	3.00	0.00	0.00
3.43	1.50	1.00	1.00	3.75	1.00	10.75	0.00	8.75	0.00	1.50	2.75	4.00	9.00	2.00	0.50	0.50	-0.230957	0.116699	0.948730	4.480000	17.780001	-4.620000	528.00	-0.01	-0.27	0.00	0.00	0.00	0.00	0.00	0.00	0.00	0.00	0.00	0.25	0.00	0.00	0.00	0.00	0.00	0.00	-0.453125	0.502930	1.038574	-11.970000	-409.429993	12.040000	3.00	0.00	0.00
3.44	1.25	0.50	1.00	3.00	1.00	10.25	0.00	8.75	0.00	1.25	3.00	5.00	9.25	2.00	0.25	0.50	-0.236816	0.113770	0.941895	4.620000	18.200001	-5.040000	517.00	0.01	-0.27	0.00	0.00	0.00	0.00	0.00	0.00	0.00	0.00	0.00	0.00	0.00	0.00	0.00	0.00	0.00	0.00	-0.509766	0.559082	1.066895	-13.440001	-403.760010	27.160000	0.00	0.00	0.00
3.45	1.00	0.75	1.00	2.75	0.75	10.00	0.00	8.75	0.25	1.50	3.25	5.25	9.75	2.50	0.50	0.75	-0.233887	0.115234	0.932129	4.760000	18.480000	-5.390000	532.00	0.02	-0.27	0.00	0.00	0.00	0.00	0.00	0.00	0.00	0.00	0.00	0.25	0.00	0.00	0.00	0.00	0.00	0.00	-0.551758	0.580566	1.125977	-1.120000	-397.950012	40.040001	3.00	0.00	0.00
3.46	1.00	0.50	0.50	2.50	0.75	9.75	0.00	8.75	0.00	1.75	3.75	6.25	10.00	2.75	0.50	0.75	-0.245117	0.115723	0.941406	4.690000	18.830000	-5.390000	538.00	0.04	-0.27	0.00	0.00	0.00	0.00	0.00	0.00	0.00	0.00	0.00	0.00	0.00	0.00	0.00	0.00	0.00	0.00	-0.591797	0.559570	1.193848	21.000000	-392.839996	50.400002	0.00	0.00	0.00
3.47	0.75	0.75	0.50	2.25	0.75	9.50	0.00	8.75	0.00	2.00	4.50	7.00	10.50	3.00	0.75	0.75	-0.237305	0.110352	0.935547	4.060000	19.250000	-5.670000	560.00	0.05	-0.27	0.00	0.00	0.00	0.00	0.00	0.00	0.00	0.00	0.00	0.00	0.00	0.00	0.00	0.00	0.00	0.00	-0.626465	0.492676	1.299316	45.290001	-388.850006	58.730000	0.00	0.00	0.00
3.48	0.50	0.25	0.25	2.00	0.75	9.00	0.00	8.50	0.25	2.50	5.50	7.50	10.75	4.00	0.75	1.00	-0.234375	0.134277	0.919922	1.400000	19.950001	-6.300000	574.00	0.08	-0.26	0.00	0.00	0.00	0.00	0.00	0.00	0.00	0.00	0.00	0.00	0.00	0.00	0.00	0.00	0.00	0.00	-0.694336	0.399902	1.450195	64.820000	-387.029999	65.730003	0.00	0.00	0.00
3.49	0.75	0.00	0.25	2.00	0.50	8.75	0.00	8.50	0.50	3.00	6.75	8.25	11.25	4.50	0.75	1.25	-0.241211	0.135254	0.937988	-5.320000	22.330000	-9.660000	609.00	0.09	-0.25	0.00	0.00	0.00	0.00	0.00	0.00	0.00	0.00	0.00	0.00	0.00	0.00	0.00	0.00	0.00	0.00	-0.776855	0.320312	1.575195	76.860001	-387.450012	71.610001	0.00	0.00	0.00
3.50	0.50	0.00	0.00	1.75	0.50	8.50	0.00	8.25	0.75	3.50	7.75	8.75	11.25	5.50	1.00	1.25	-0.247070	0.139160	0.931641	-7.910000	24.010000	-11.130000	629.00	0.11	-0.24	0.00	0.00	0.00	0.00	0.00	0.00	0.00	0.00	0.00	0.00	0.00	0.00	0.00	0.00	0.00	0.00	-0.843750	0.264160	1.666992	81.199997	-388.429993	76.300003	0.00	0.00	0.00
3.51	0.50	0.25	0.00	1.50	0.50	8.00	0.00	8.25	0.75	4.25	8.50	9.25	11.50	6.25	1.00	1.50	-0.251953	0.137207	0.956055	-9.450000	26.600000	-13.020000	654.00	0.12	-0.23	0.00	0.00	0.00	0.00	0.00	0.00	0.00	0.00	0.00	0.00	0.00	0.00	0.00	0.00	0.00	0.00	-0.895020	0.241211	1.777344	80.150002	-388.570007	79.940002	0.00	0.00	0.00
3.52	0.50	0.25	0.00	1.25	0.50	7.50	0.00	8.00	1.50	6.00	9.25	10.00	12.00	7.75	1.50	1.75	-0.256348	0.125488	0.953125	-9.520000	30.730000	-15.470000	710.00	0.14	-0.21	0.00	0.00	0.00	0.00	0.00	0.00	0.00	0.00	0.00	0.00	0.00	0.00	0.00	0.00	0.00	0.00	-0.930664	0.256836	1.902832	76.860001	-387.730011	82.809998	0.00	0.00	0.00
3.53	0.50	0.00	0.00	1.25	0.25	6.75	0.00	7.75	2.00	7.50	10.00	10.50	12.50	8.50	1.50	2.00	-0.259277	0.103516	0.958008	-7.630000	36.189999	-18.760000	740.00	0.15	-0.19	0.00	0.00	0.00	0.00	0.00	0.00	0.00	0.00	0.00	0.00	0.00	0.00	0.00	0.00	0.00	0.00	-0.962402	0.276855	2.040039	74.900002	-386.399994	85.190002	0.00	0.00	0.00
3.54	0.25	0.00	0.00	1.00	0.25	6.25	0.00	7.50	3.00	8.25	10.50	11.25	12.25	9.25	1.75	2.25	-0.250488	0.102539	0.955566	-5.320000	43.470001	-21.000000	768.00	0.16	-0.18	0.00	0.00	0.00	0.00	0.00	0.00	0.00	0.00	0.00	0.00	0.00	0.00	0.00	0.00	0.00	0.00	-1.004883	0.286621	2.194336	77.000000	-385.000000	86.239998	0.00	0.00	0.00
3.55	0.25	0.25	0.00	1.00	0.25	5.75	0.00	7.00	4.00	9.00	11.25	11.75	12.25	10.25	2.00	2.75	-0.286621	0.116699	0.956543	-3.360000	53.270000	-20.650000	805.00	0.17	-0.16	0.00	0.00	0.00	0.00	0.00	0.00	0.00	0.00	0.00	0.00	0.00	0.00	0.00	0.00	0.00	0.00	-1.142578	0.280273	2.304199	85.959999	-382.899994	84.209999	0.00	0.00	0.00
3.56	0.25	0.00	0.00	1.25	0.00	5.00	0.00	6.50	4.75	9.75	12.25	12.50	12.50	11.75	2.50	3.50	-0.316406	0.128906	0.968750	5.250000	59.010002	-21.350000	847.00	0.19	-0.15	0.00	0.00	0.00	0.00	0.00	0.00	0.00	0.00	0.00	0.00	0.00	0.00	0.00	0.00	0.00	0.00	-1.364746	0.270508	2.408691	101.360001	-378.279999	79.870003	0.00	0.00	0.00
3.57	0.25	0.00	0.00	0.50	0.00	4.25	0.00	6.00	5.75	10.50	13.00	13.00	12.25	13.00	3.00	3.75	-0.314941	0.123535	0.986328	20.299999	66.570000	-21.559999	872.00	0.20	-0.13	0.00	0.00	0.00	0.00	0.00	0.00	0.00	0.00	0.00	0.00	0.00	0.00	0.00	0.00	0.00	0.00	-1.613281	0.202637	2.492188	116.480003	-373.730011	77.070000	0.00	0.00	0.00
3.58	0.25	0.00	0.00	1.00	0.00	3.50	0.00	5.25	6.75	11.25	13.75	13.50	12.25	14.00	4.00	4.25	-0.347656	0.143555	0.981934	32.759998	86.800003	-22.400000	914.00	0.21	-0.12	0.00	0.00	0.00	0.00	0.00	0.00	0.00	0.00	0.00	0.00	0.00	0.00	0.00	0.00	0.00	0.00	-2.006836	0.115234	2.568848	121.590004	-370.790009	78.540001	0.00	0.00	0.00
3.59	0.25	0.00	0.00	0.75	0.00	2.75	0.00	5.00	7.75	12.00	14.25	13.75	12.00	15.25	5.00	4.75	-0.362305	0.154785	0.992676	33.810001	113.260002	-21.770000	950.00	0.22	-0.11	0.00	0.00	0.00	0.00	0.00	0.00	0.00	0.00	0.00	0.00	0.00	0.00	0.00	0.00	0.00	0.00	-2.390137	0.065918	2.453125	114.520004	-368.899994	85.330002	0.00	0.00	0.00
3.60	0.00	0.00	0.00	0.00	0.00	2.00	0.00	3.75	8.25	12.50	14.75	14.00	11.75	16.50	5.50	5.00	-0.389160	0.111816	0.966309	28.070000	139.229996	-21.280001	947.00	0.24	-0.09	0.00	0.00	0.00	0.00	0.00	0.00	0.00	0.00	0.00	0.00	0.00	0.00	0.00	0.00	0.00	0.00	-2.776367	0.051270	2.072266	96.389999	-361.200012	93.660004	0.00	0.00	0.00
3.61	0.00	0.00	0.00	0.25	0.00	1.50	0.00	3.00	8.50	13.00	15.25	14.25	11.25	17.75	6.00	5.25	-0.393555	0.071777	1.016113	20.860001	159.880005	-18.620001	962.00	0.25	-0.08	0.00	0.00	0.00	0.00	0.00	0.00	0.00	0.00	0.00	0.00	0.00	0.00	0.00	0.00	0.00	0.00	-3.112793	0.123047	1.500977	70.910004	-340.410004	98.209999	0.00	0.00	0.00
3.62	0.00	0.00	0.00	0.25	0.00	1.00	0.00	2.50	8.75	13.25	15.25	14.25	10.75	19.00	6.50	5.50	-0.375977	0.059082	0.997070	-1.470000	175.490005	-12.390000	968.00	0.26	-0.07	0.00	0.00	0.00	0.00	0.00	0.00	0.00	0.00	0.00	0.25	0.00	0.00	0.00	0.00	0.00	0.00	-3.576660	0.136719	0.285645	62.650002	-246.610001	97.300003	3.00	0.00	0.00
3.63	0.00	0.00	0.00	0.00	0.00	0.25	0.00	1.75	9.00	13.50	15.50	14.00	10.00	19.75	6.75	5.75	-0.424805	0.113281	1.015137	-10.290000	196.910004	-8.330000	955.00	0.27	-0.06	0.00	0.00	0.00	0.00	0.00	0.00	0.00	0.00	0.00	0.00	0.00	0.00	0.00	0.00	0.00	0.00	-3.775391	-0.064453	-0.018066	86.660004	-187.740005	91.139999	0.00	0.00	0.00
3.64	0.00	0.00	0.00	0.00	0.00	0.25	0.00	1.25	9.00	13.75	15.75	13.75	9.25	20.75	7.25	5.75	-0.475586	0.119629	1.050781	-10.150000	219.940002	-6.160000	957.00	0.27	-0.05	0.00	0.00	0.00	0.00	0.00	0.00	0.00	0.00	0.00	0.00	0.00	0.00	0.00	0.00	0.00	0.00	-4.021973	-0.336426	-0.191406	107.870003	-133.910004	83.440002	0.00	0.00	0.00
3.65	0.00	0.00	0.00	0.00	0.00	0.25	0.00	0.75	9.00	14.00	15.75	13.50	8.50	21.25	7.25	6.00	-0.525879	0.141602	1.049805	-4.620000	242.619995	-6.090000	949.00	0.28	-0.05	0.00	0.00	0.00	0.00	0.00	0.00	0.00	0.00	0.00	0.00	0.00	0.00	0.00	0.00	0.00	0.00	-4.167480	-0.640137	-0.369629	108.709999	-84.349998	78.260002	0.00	0.00	0.00
3.66	0.00	0.00	0.00	0.00	0.00	0.00	0.00	0.50	9.00	14.00	15.75	13.25	7.75	21.75	7.50	5.75	-0.552246	0.155762	1.055664	1.820000	266.070007	-8.260000	938.00	0.28	-0.04	0.00	0.00	0.00	0.00	0.00	0.00	0.00	0.00	0.00	0.00	0.00	0.00	0.00	0.00	0.00	0.00	-4.097168	-0.879395	-0.437012	77.980003	-34.439999	74.830002	0.00	0.00	0.00
3.67	0.00	0.00	0.00	0.00	0.00	0.00	0.00	0.25	9.25	14.25	15.50	12.75	6.75	21.50	7.50	6.00	-0.586914	0.137695	1.105957	6.160000	290.570007	-11.830000	923.00	0.28	-0.03	0.00	0.00	0.00	0.00	0.00	0.00	0.00	0.00	0.00	0.00	0.00	0.00	0.00	0.00	0.00	0.00	-3.857910	-0.917480	-0.344727	27.020000	14.560000	69.510002	0.00	0.00	0.00
3.68	0.00	0.00	0.00	0.00	0.00	0.00	0.00	0.00	9.00	14.00	15.25	12.25	6.25	21.00	7.75	6.00	-0.633789	0.163574	1.064453	7.280000	319.899994	-14.910000	900.00	0.28	-0.03	0.00	0.00	0.00	0.00	0.00	0.00	0.00	0.00	0.00	0.00	0.00	0.00	0.00	0.00	0.00	0.00	-3.516602	-0.740723	-0.101562	-16.940001	59.779999	58.099998	0.00	0.00	0.00
3.69	0.00	0.00	0.00	0.00	0.00	0.00	0.00	0.00	8.25	13.75	15.00	11.75	5.50	20.50	7.25	5.75	-0.662598	0.170410	1.043945	9.800000	354.410004	-20.860001	862.00	0.29	-0.03	0.00	0.00	0.00	0.00	0.00	0.00	0.00	0.00	0.00	0.00	0.00	0.00	0.00	0.00	0.00	0.00	-3.080566	-0.506348	0.239258	-35.070000	95.410004	36.959999	0.00	0.00	0.00
3.70	0.00	0.00	0.00	0.00	0.00	0.00	0.00	0.00	7.50	13.00	14.50	11.00	5.00	19.75	7.00	5.75	-0.946777	0.295898	1.373535	30.170000	428.260010	-24.150000	818.00	0.29	-0.03	0.00	0.00	0.00	0.00	0.00	0.00	0.00	0.00	0.00	0.00	0.00	0.00	0.00	0.00	0.00	0.00	2.552734	0.493164	0.995605	53.410000	215.880005	8.680000	0.00	0.00	0.00
3.71	0.00	0.00	0.00	0.00	0.00	0.00	0.00	0.00	5.50	11.75	13.75	10.00	4.25	18.50	6.25	5.25	-1.207031	0.122070	1.734375	47.180000	459.059998	-23.379999	732.00	0.29	-0.03	1.75	1.50	0.75	1.75	0.00	0.00	0.00	0.00	0.00	0.00	0.00	0.00	0.00	0.00	0.00	0.00	0.969238	-0.496094	0.909180	-18.620001	156.729996	-52.920002	59.00	-0.35	-0.07
3.72	0.00	0.00	0.00	0.00	0.00	0.00	0.00	0.00	3.75	10.25	12.00	8.25	3.50	16.75	5.75	4.50	-1.659668	0.246094	1.967285	52.570000	481.950012	-18.760000	626.00	0.29	-0.03	6.25	5.25	1.50	2.75	0.00	0.00	0.00	0.00	0.00	0.00	0.00	0.00	0.00	0.00	0.00	0.00	-0.438965	-0.362793	-0.131836	-120.959999	111.790001	-108.220001	160.00	-0.37	-0.04
3.73	0.00	0.00	0.00	0.00	0.00	0.00	0.00	0.00	2.75	8.25	9.75	6.75	2.75	14.75	4.75	2.50	-2.713867	0.455566	1.782715	78.400002	512.820007	-5.950000	508.00	0.29	-0.03	10.25	10.25	2.00	4.25	0.00	0.00	0.00	0.00	0.00	0.00	0.00	0.00	0.00	0.00	0.00	0.00	-0.456055	0.436523	0.480957	-177.380005	221.410004	-134.119995	269.00	-0.38	-0.05
