# time	left pressure 1[N/cm²]	left pressure 2[N/cm²]	left pressure 3[N/cm²]	left pressure 4[N/cm²]	left pressure 5[N/cm²]	left pressure 6[N/cm²]	left pressure 7[N/cm²]	left pressure 8[N/cm²]	left pressure 9[N/cm²]	left pressure 10[N/cm²]	left pressure 11[N/cm²]	left pressure 12[N/cm²]	left pressure 13[N/cm²]	left pressure 14[N/cm²]	left pressure 15[N/cm²]	left pressure 16[N/cm²]	left acceleration X[g]	left acceleration Y[g]	left acceleration Z[g]	left angular X[dps]	left angular Y[dps]	left angular Z[dps]	left total force[N]	left center of pressure X[%]	left center of pressure Y[%]	right pressure 1[N/cm²]	right pressure 2[N/cm²]	right pressure 3[N/cm²]	right pressure 4[N/cm²]	right pressure 5[N/cm²]	right pressure 6[N/cm²]	right pressure 7[N/cm²]	right pressure 8[N/cm²]	right pressure 9[N/cm²]	right pressure 10[N/cm²]	right pressure 11[N/cm²]	right pressure 12[N/cm²]	right pressure 13[N/cm²]	right pressure 14[N/cm²]	right pressure 15[N/cm²]	right pressure 16[N/cm²]	right acceleration X[g]	right acceleration Y[g]	right acceleration Z[g]	right angular X[dps]	right angular Y[dps]	right angular Z[dps]	right total force[N]	right center of pressure X[%]	right center of pressure Y[%]
0.00	2.25	3.00	2.50	3.50	1.00	1.50	2.25	0.50	0.00	2.25	3.50	1.75	0.00	0.00	0.00	2.25	-0.239746	0.062988	0.997070	19.320000	-9.170000	5.040000	277.00	-0.07	-0.07																									
0.01	2.75	4.50	2.75	4.50	0.75	2.00	2.25	0.75	0.00	2.25	3.50	1.50	0.00	0.00	0.00	2.25	-0.231934	0.061035	0.992188	20.440001	-13.720000	5.390000	314.00	-0.10	-0.08																									
0.02	3.75	5.25	3.25	5.25	1.25	2.25	2.00	0.50	0.00	2.25	3.50	1.75	0.00	0.00	0.00	2.00	-0.222168	0.089844	0.972656	23.520000	-17.219999	5.950000	347.00	-0.13	-0.08																									
0.03	4.25	6.50	4.00	5.75	1.25	3.00	2.00	0.75	0.00	2.25	3.50	1.75	0.25	0.00	0.00	2.25	-0.220215	0.080078	0.967285	26.460001	-18.129999	7.210000	393.00	-0.14	-0.09	13.75	13.25	9.50	10.25	7.75	5.75	2.00	0.50	0.00	0.00	0.00	0.00	0.00	0.25	0.00	0.00	-0.088379	0.035156	0.981934	-12.040000	-3.640000	2.660000	670.00	-0.28	-0.04
0.04	5.25	7.25	4.25	6.75	1.00	3.50	2.00	0.75	0.00	2.25	3.50	1.75	0.00	0.00	0.00	2.25	-0.197754	0.087402	0.953613	28.630001	-17.990000	8.120000	424.00	-0.16	-0.09	13.50	13.00	9.25	10.00	7.75	5.75	2.00	0.50	0.00	0.00	0.00	0.00	0.00	0.25	0.00	0.00	-0.091309	0.071289	0.982910	-11.620000	-2.380000	2.240000	660.00	-0.28	-0.04
0.05	6.25	9.00	4.50	7.75	1.25	4.25	2.00	0.75	0.00	2.25	3.50	2.00	0.00	0.00	0.00	2.25	-0.203125	0.079590	0.950195	30.240000	-16.660000	8.330000	478.00	-0.17	-0.09	13.25	12.75	9.25	10.00	7.50	5.50	2.00	0.50	0.00	0.25	0.00	0.25	0.25	0.50	0.00	0.00	-0.100586	0.055664	1.006348	-11.410000	-2.240000	2.310000	659.00	-0.27	-0.04
0.06	7.00	9.75	4.75	8.50	1.25	4.75	2.00	1.25	0.00	2.00	3.50	2.00	0.25	0.00	0.00	2.25	-0.201172	0.114746	0.930176	30.030001	-14.490000	8.120000	516.00	-0.18	-0.10	13.00	12.50	9.00	9.75	7.25	5.25	2.00	0.50	0.00	0.25	0.00	0.00	0.00	0.50	0.00	0.00	-0.091309	0.035645	0.981445	-11.690000	-2.450000	2.030000	638.00	-0.27	-0.04
0.07	8.50	10.50	5.50	9.50	1.00	6.00	2.00	1.25	0.00	2.25	3.50	1.50	0.25	0.00	0.00	2.25	-0.196289	0.122070	0.954102	29.049999	-11.690000	8.330000	566.00	-0.19	-0.10	12.50	12.25	9.00	9.50	7.25	5.00	2.00	0.25	0.00	0.00	0.00	0.00	0.00	0.25	0.00	0.00	-0.086914	0.058594	0.994629	-12.250000	-1.820000	1.540000	617.00	-0.28	-0.04
0.08	8.25	12.25	5.50	10.00	1.25	6.75	2.00	1.75	0.00	2.25	3.50	1.75	0.00	0.00	0.00	2.25	-0.180176	0.125000	0.937500	28.070000	-11.410000	7.980000	604.00	-0.20	-0.10	12.00	11.75	8.75	9.25	7.00	4.50	2.00	0.25	0.00	0.00	0.00	0.00	0.00	0.50	0.00	0.00	-0.112793	0.082520	1.030273	-12.810000	-1.820000	0.840000	596.00	-0.27	-0.03
0.09	9.00	13.75	6.25	11.00	1.00	7.75	2.25	2.00	0.00	2.00	3.50	1.75	0.25	0.00	0.00	2.25	-0.173828	0.133301	0.933105	25.620001	-9.660000	7.070000	660.00	-0.20	-0.11	11.50	11.25	8.50	9.00	6.50	4.00	2.00	0.25	0.00	0.00	0.00	0.00	0.00	0.50	0.00	0.00	-0.094727	0.048828	1.021973	-13.650000	-5.390000	0.210000	569.00	-0.27	-0.03
0.10	9.50	15.00	6.00	12.00	0.75	8.25	2.25	2.00	0.00	2.25	3.50	1.75	0.25	0.00	0.00	2.25	-0.176758	0.147949	0.920898	21.770000	-7.420000	6.090000	691.00	-0.21	-0.11	11.00	11.25	8.25	8.75	6.25	3.75	2.00	0.25	0.00	0.25	0.00	0.00	0.00	0.25	0.00	0.00	-0.060059	0.054199	1.000000	-14.210000	-6.300000	-0.210000	554.00	-0.27	-0.03
0.11	10.50	16.00	6.75	12.50	1.00	8.75	2.00	2.25	0.00	2.25	3.50	1.75	0.50	0.00	0.00	2.25	-0.167969	0.142090	0.935059	17.080000	-4.550000	4.900000	734.00	-0.21	-0.11	10.75	10.50	8.00	8.50	6.00	3.25	2.00	0.25	0.00	0.25	0.00	0.00	0.00	0.00	0.00	0.00	-0.076660	0.053223	0.997070	-15.610000	-5.390000	-0.840000	528.00	-0.28	-0.03
0.12	10.75	17.00	7.00	13.25	1.00	9.50	2.25	2.50	0.00	2.25	3.50	2.00	0.25	0.00	0.00	2.25	-0.171875	0.146973	0.933105	12.810000	-2.170000	3.570000	773.00	-0.21	-0.11	10.00	10.00	7.75	8.25	5.75	2.75	2.00	0.25	0.00	0.00	0.00	0.00	0.00	0.25	0.00	0.00	-0.086914	0.062500	0.997559	-17.500000	-4.200000	-0.910000	502.00	-0.28	-0.03
0.13	12.25	17.25	7.50	13.25	1.25	9.75	2.25	2.75	0.00	2.00	3.50	2.00	0.25	0.00	0.00	2.25	-0.177734	0.140625	0.940918	9.520000	-0.770000	2.310000	803.00	-0.22	-0.11	9.50	9.50	7.50	7.75	5.25	2.25	2.00	0.25	0.00	0.00	0.00	0.00	0.00	0.25	0.00	0.00	-0.079102	0.066895	0.978027	-19.180000	-2.380000	-0.560000	473.00	-0.28	-0.03
0.14	13.00	18.75	8.00	14.75	1.25	10.75	2.25	3.25	0.00	2.25	3.50	1.75	0.50	0.00	0.00	2.25	-0.172852	0.138672	0.951660	7.770000	-0.490000	1.400000	868.00	-0.22	-0.11	9.00	9.00	7.25	7.50	5.00	2.00	2.25	0.00	0.00	0.00	0.00	0.00	0.00	0.25	0.00	0.00	-0.072266	0.077637	0.983887	-21.139999	-0.420000	0.770000	452.00	-0.27	-0.02
0.15	14.00	19.75	8.25	15.25	1.25	11.25	2.25	3.75	0.00	2.00	3.50	2.00	0.75	0.00	0.00	2.25	-0.180664	0.144043	0.952148	6.860000	-0.560000	0.910000	911.00	-0.22	-0.12	8.25	8.50	6.75	7.00	4.50	1.50	2.00	0.00	0.00	0.00	0.00	0.00	0.00	0.00	0.00	0.00	-0.065918	0.076172	0.990234	-23.870001	1.960000	2.590000	412.00	-0.28	-0.02
0.16	13.75	20.50	8.25	15.75	1.25	11.75	2.00	4.25	0.00	2.00	3.50	1.75	0.50	0.00	0.00	2.25	-0.168945	0.153809	0.942383	5.250000	0.350000	0.350000	925.00	-0.22	-0.12	7.50	7.75	6.25	6.25	3.75	1.25	2.00	0.00	0.00	0.00	0.00	0.00	0.00	0.25	0.00	0.00	-0.061523	0.106934	0.972656	-27.299999	4.760000	5.880000	374.00	-0.28	-0.02
0.17	14.75	21.50	8.50	16.25	1.25	12.25	2.50	4.25	0.00	2.00	3.25	2.00	0.50	0.00	0.00	2.00	-0.164551	0.152832	0.930176	2.240000	2.660000	-0.280000	964.00	-0.23	-0.12	6.75	7.25	5.75	5.75	3.50	1.00	2.00	0.00	0.00	0.00	0.00	0.00	0.00	0.00	0.00	0.00	-0.072754	0.126465	0.976074	-30.380001	8.540000	9.870000	343.00	-0.28	-0.02
0.18	15.50	21.50	8.75	16.25	1.50	12.75	2.50	4.75	0.00	2.25	3.50	1.75	0.50	0.00	0.00	2.25	-0.168945	0.153809	0.933594	-0.980000	5.040000	-0.700000	995.00	-0.22	-0.12	6.00	6.50	5.25	5.25	3.00	1.00	2.00	0.00	0.00	0.00	0.00	0.00	0.00	0.00	0.00	0.00	-0.048828	0.180176	0.977051	-33.250000	11.830000	15.120000	312.00	-0.27	-0.01
0.19	15.75	22.50	8.75	16.50	1.25	13.00	2.50	5.00	0.00	2.25	3.50	2.00	0.50	0.00	0.00	2.25	-0.166016	0.150879	0.924316	-4.340000	7.280000	-1.260000	1016.00	-0.22	-0.12	5.50	6.00	4.50	4.50	2.50	0.75	2.00	0.00	0.00	0.00	0.00	0.00	0.00	0.25	0.00	0.00	-0.007324	0.240234	0.958008	-38.849998	16.100000	22.400000	280.00	-0.27	-0.01
0.20	16.50	22.00	9.00	17.25	1.50	13.50	2.50	5.00	0.00	2.00	3.75	2.00	0.75	0.00	0.00	2.25	-0.162598	0.154297	0.925293	-8.400000	10.430000	-1.750000	1040.00	-0.22	-0.12	4.75	5.50	4.00	3.75	2.25	0.75	2.00	0.00	0.00	0.00	0.00	0.00	0.00	0.00	0.00	0.00	-0.029297	0.319824	0.970703	-44.869999	20.790001	34.090000	249.00	-0.27	-0.01
0.21	16.75	22.75	9.25	17.50	1.75	13.75	2.50	5.00	0.00	2.25	3.50	2.00	0.75	0.00	0.00	2.25	-0.181641	0.145508	0.958496	-10.920000	12.600000	-2.310000	1061.00	-0.23	-0.12	4.00	5.25	3.50	3.50	2.00	0.50	2.00	0.00	0.00	0.00	0.00	0.00	0.00	0.00	0.00	0.00	0.022949	0.329102	1.024414	-52.500000	24.920000	48.369999	225.00	-0.26	-0.01
0.22	17.00	23.00	9.25	17.25	1.50	14.00	2.50	5.25	0.00	2.25	3.75	2.00	0.75	0.00	0.00	2.25	-0.187012	0.140137	0.975098	-10.570000	11.830000	-2.590000	1069.00	-0.22	-0.12	2.75	5.00	3.00	2.75	1.75	0.25	2.00	0.00	0.00	0.00	0.00	0.00	0.00	0.00	0.00	0.00	0.022461	0.395020	0.991699	-59.150002	26.950001	66.639999	190.00	-0.26	-0.00
0.23	17.50	23.25	9.50	17.75	1.75	14.25	2.50	5.25	0.00	2.25	3.75	2.00	0.50	0.00	0.00	2.25	-0.182617	0.142578	0.964844	-9.310000	10.290000	-2.870000	1088.00	-0.23	-0.12	2.50	3.75	2.50	2.50	1.50	0.50	2.00	0.00	0.00	0.00	0.00	0.00	0.00	0.00	0.00	0.00	0.013672	0.324707	1.018555	-62.510002	28.980000	87.989998	168.00	-0.24	0.00
0.24	17.75	23.25	9.75	18.00	1.75	14.25	2.50	5.25	0.00	2.25	3.50	2.00	0.75	0.00	0.00	2.25	-0.183105	0.134766	0.967285	-8.400000	9.100000	-3.010000	1096.00	-0.23	-0.12	2.25	3.25	2.00	2.25	1.50	0.25	2.00	0.00	0.00	0.00	0.00	0.00	0.00	0.00	0.00	0.00	-0.003418	0.221680	1.059570	-63.139999	25.690001	107.660004	150.00	-0.23	0.01
0.25	18.50	23.75	9.50	18.00	1.75	14.50	2.50	5.25	0.00	2.25	3.50	2.00	0.75	0.00	0.00	2.25	-0.185059	0.136719	0.965820	-7.980000	8.190000	-3.360000	1108.00	-0.23	-0.12	2.00	3.00	1.50	1.75	1.50	0.25	2.00	0.00	0.00	0.25	0.00	0.00	0.00	0.00	0.00	0.00	-0.101074	0.050293	0.945312	-61.180000	21.420000	121.099998	136.00	-0.21	0.02
0.26	18.00	23.50	9.75	18.00	1.75	14.25	2.50	5.25	0.00	2.50	3.50	2.00	0.50	0.00	0.00	2.25	-0.179199	0.139648	0.953125	-8.120000	7.560000	-3.850000	1101.00	-0.23	-0.12	1.75	2.50	1.50	1.50	1.25	0.00	2.00	0.00	0.00	0.25	0.00	0.00	0.00	0.00	0.00	0.00	-0.142578	-0.135254	0.957031	-59.430000	21.420000	126.629997	121.00	-0.20	0.04
0.27	18.75	23.50	10.00	18.25	1.75	14.75	2.50	5.25	0.00	2.00	3.50	2.25	0.75	0.00	0.00	2.25	-0.172363	0.140137	0.946289	-9.520000	7.770000	-4.410000	1120.00	-0.23	-0.12	1.25	2.25	1.25	1.25	1.00	0.25	2.00	0.00	0.00	0.00	0.00	0.00	0.00	0.00	0.00	0.00	-0.145020	-0.185547	0.957031	-56.560001	22.049999	124.739998	105.00	-0.20	0.03
0.28	18.25	23.00	10.00	18.25	2.00	14.50	2.50	5.25	0.00	2.25	3.75	2.00	0.75	0.00	0.00	2.25	-0.174805	0.140625	0.946289	-11.620000	8.960000	-4.830000	1112.00	-0.23	-0.12	1.50	1.50	1.25	1.00	1.00	0.00	1.75	0.00	0.00	0.00	0.00	0.00	0.00	0.00	0.00	0.00	0.137695	-0.261719	1.097168	-43.820000	19.600000	109.550003	92.00	-0.20	0.06
0.29	18.75	23.75	10.00	18.25	2.25	14.50	2.75	5.25	0.00	2.25	3.50	2.00	0.75	0.00	0.00	2.25	-0.177246	0.137207	0.937988	-14.490000	10.220000	-5.670000	1128.00	-0.23	-0.11	1.00	1.50	1.00	1.00	1.00	0.00	2.00	0.00	0.00	0.25	0.00	0.00	0.00	0.00	0.00	0.00	0.198242	-0.141113	1.053711	-42.910000	15.120000	105.419998	90.00	-0.16	0.06
0.30	18.75	23.25	10.25	18.00	2.25	14.50	2.75	5.25	0.00	2.25	3.50	2.00	0.75	0.00	0.00	2.25	-0.175781	0.140137	0.924805	-17.219999	13.090000	-5.600000	1124.00	-0.23	-0.11	1.00	1.50	0.75	0.50	1.00	0.00	1.75	0.00	0.00	0.25	0.00	0.00	0.00	0.00	0.00	0.00	0.141602	0.105957	0.920898	-33.389999	12.670000	107.029999	78.00	-0.16	0.07
0.31	18.75	23.50	10.25	18.00	2.50	14.25	2.75	5.25	0.00	2.25	3.50	2.00	1.00	0.25	0.00	2.25	-0.179199	0.117188	0.940430	-19.530001	16.030001	-5.250000	1131.00	-0.23	-0.11	1.00	1.75	1.00	1.00	0.75	0.00	1.75	0.00	0.00	0.25	0.00	0.00	0.00	0.00	0.00	0.00	0.071289	0.121582	1.009277	-18.410000	13.090000	113.190002	86.00	-0.18	0.05
0.32	18.50	23.25	10.50	17.75	2.50	14.50	2.75	5.25	0.00	2.50	3.75	2.00	1.00	0.00	0.00	2.25	-0.173828	0.122559	0.947754	-21.210001	17.780001	-5.460000	1131.00	-0.22	-0.11	1.00	1.75	1.00	0.50	0.75	0.00	1.75	0.00	0.00	0.00	0.00	0.00	0.00	0.00	0.00	0.00	0.056152	0.108398	1.069824	-14.770000	11.900000	121.660004	78.00	-0.18	0.07
0.33	18.75	22.75	10.75	18.00	2.50	14.25	2.75	5.25	0.00	2.50	3.75	2.00	1.00	0.25	0.00	2.25	-0.200684	0.111328	0.993652	-21.490000	17.710001	-5.600000	1134.00	-0.22	-0.11	0.75	1.25	0.75	0.75	0.75	0.00	1.75	0.00	0.00	0.00	0.00	0.00	0.00	0.00	0.00	0.00	0.029297	0.119629	1.028320	-17.010000	10.150000	130.410004	71.00	-0.16	0.07
0.34	19.75	23.25	10.75	17.75	2.75	14.25	2.75	5.25	0.00	2.25	3.75	2.00	1.00	0.25	0.00	2.25	-0.209473	0.101074	1.000977	-17.010000	13.580000	-5.390000	1147.00	-0.23	-0.11	1.00	1.50	0.75	0.25	0.75	0.00	1.75	0.00	0.00	0.00	0.00	0.00	0.00	0.00	0.00	0.00	0.062012	0.161133	0.971680	-16.450001	9.380000	138.669998	70.00	-0.17	0.08
0.35	18.75	22.75	11.25	18.00	2.50	14.00	2.75	5.00	0.00	2.25	3.50	2.00	0.75	0.00	0.00	2.25	-0.197754	0.110840	0.976074	-12.110000	9.870000	-5.110000	1124.00	-0.23	-0.11	1.00	1.00	0.75	0.75	0.75	0.00	1.75	0.00	0.00	0.00	0.00	0.00	0.00	0.00	0.00	0.00	0.141113	0.213379	0.974121	-12.670000	8.050000	146.649994	71.00	-0.16	0.08
0.36	18.75	23.00	11.25	17.75	2.75	14.00	2.75	5.00	0.00	2.25	3.50	2.25	1.00	0.00	0.00	2.25	-0.205078	0.105957	0.971680	-7.420000	6.790000	-4.550000	1131.00	-0.23	-0.11	0.75	1.25	0.75	0.50	0.75	0.00	1.75	0.00	0.00	0.00	0.00	0.00	0.00	0.00	0.00	0.00	0.203125	0.241699	0.988770	-6.930000	4.340000	154.699997	68.00	-0.16	0.08
0.37	18.50	22.75	11.50	17.75	3.00	13.75	2.75	5.00	0.00	2.00	3.75	2.00	1.00	0.25	0.00	2.25	-0.195801	0.110840	0.963379	-4.550000	5.670000	-4.060000	1129.00	-0.23	-0.11	1.00	1.25	0.75	0.00	0.75	0.00	1.75	0.00	0.00	0.00	0.00	0.00	0.00	0.00	0.00	0.00	0.225098	0.262207	0.960449	-0.140000	-0.910000	162.610001	65.00	-0.16	0.11
0.38	19.50	22.75	11.25	17.50	2.75	13.50	2.75	5.00	0.00	2.25	3.50	2.00	0.50	0.75	0.00	2.25	-0.197266	0.105957	0.968750	-2.660000	5.110000	-3.500000	1128.00	-0.23	-0.10	0.75	1.50	0.50	0.50	0.75	0.25	1.75	0.00	0.00	0.00	0.00	0.00	0.00	0.00	0.00	0.00	0.203125	0.273438	0.973145	6.860000	-6.090000	169.470001	70.00	-0.16	0.06
0.39	19.50	22.50	11.50	17.75	3.00	13.50	2.75	5.00	0.00	2.25	3.50	2.25	0.75	0.00	0.00	2.25	-0.201172	0.103027	0.999512	0.980000	3.430000	-2.870000	1132.00	-0.23	-0.11	0.75	1.00	0.75	0.75	0.75	0.00	1.75	0.00	0.00	0.00	0.00	0.00	0.00	0.00	0.00	0.00	0.177246	0.225098	1.006348	13.650000	-11.340000	174.089996	68.00	-0.15	0.08
0.40	19.00	22.25	11.25	17.50	2.75	13.25	2.75	4.75	0.00	2.25	3.50	2.00	0.75	0.00	0.00	2.25	-0.213867	0.094238	1.012695	7.560000	-1.050000	-2.240000	1107.00	-0.23	-0.10	0.75	1.25	0.50	0.00	0.50	0.00	1.75	0.00	0.00	0.00	0.00	0.00	0.00	0.00	0.00	0.00	0.159668	0.173828	1.022461	16.240000	-16.799999	176.050003	57.00	-0.14	0.11
0.41	20.00	22.50	11.25	17.75	2.75	13.75	2.50	4.75	0.00	2.25	3.25	1.75	0.50	0.25	0.00	2.25	-0.214355	0.101074	1.005859	14.420000	-7.280000	-1.750000	1119.00	-0.23	-0.10	0.50	1.00	0.50	0.25	0.75	0.00	1.75	0.00	0.00	0.00	0.00	0.00	0.00	0.00	0.00	0.00	0.109863	0.129395	1.018066	17.570000	-22.260000	174.930008	57.00	-0.12	0.10
0.42	19.75	22.50	11.25	17.50	2.50	13.25	2.50	4.50	0.00	2.25	3.50	1.75	0.75	0.00	0.00	2.25	-0.196777	0.095215	0.976562	19.460001	-12.320000	-1.610000	1104.00	-0.23	-0.10	0.25	1.25	0.50	0.75	0.50	0.00	1.75	0.00	0.00	0.00	0.00	0.00	0.00	0.00	0.00	0.00	-0.133301	0.021973	1.026855	22.330000	-25.200001	170.869995	60.00	-0.14	0.06
0.43	20.25	22.25	11.25	17.50	2.50	13.25	2.50	4.50	0.00	2.00	3.50	1.75	0.75	0.00	0.00	2.25	-0.171387	0.128906	0.939453	20.719999	-12.950000	-1.680000	1105.00	-0.23	-0.10	1.00	1.25	1.00	0.75	0.75	0.00	2.00	0.00	0.00	0.00	0.00	0.00	0.00	0.00	0.00	0.00	-0.712891	-0.044434	0.925293	27.790001	-16.870001	169.259995	80.00	-0.16	0.08
0.44	20.00	22.50	11.00	17.25	2.50	13.00	2.50	4.25	0.00	2.00	3.00	2.00	0.75	0.00	0.00	2.25	-0.164062	0.134277	0.937012	18.549999	-10.640000	-1.820000	1090.00	-0.24	-0.10	0.50	1.25	0.75	0.75	0.75	0.00	2.00	0.00	0.00	0.25	0.00	0.00	0.25	0.00	0.00	0.00	-1.182129	-0.133301	0.861328	20.580000	-1.680000	169.820007	77.00	-0.12	0.06
0.45	20.00	22.50	11.00	17.25	2.25	13.00	2.50	4.25	0.00	1.75	3.50	2.00	0.50	0.00	0.00	2.25	-0.179199	0.128906	0.954102	15.820000	-8.750000	-2.100000	1087.00	-0.24	-0.10	0.75	1.25	1.00	0.50	0.75	0.00	2.00	0.00	0.00	0.00	0.00	0.00	0.00	0.00	0.00	0.00	-1.015137	-0.200195	0.954590	7.700000	11.760000	165.339996	74.00	-0.15	0.09
0.46	20.00	22.75	11.00	17.50	2.25	12.50	2.50	4.00	0.00	1.75	3.50	1.75	0.50	0.00	0.00	2.25	-0.176758	0.127930	0.968262	14.210000	-8.540000	-2.310000	1081.00	-0.24	-0.10	0.50	1.25	1.00	0.75	0.75	0.00	2.00	0.00	0.00	0.00	0.00	0.00	0.00	0.00	0.00	0.00	-0.568359	-0.207520	1.002930	-3.010000	12.740000	150.430008	75.00	-0.14	0.08
0.47	19.75	22.50	11.00	17.00	2.25	12.25	2.50	3.75	0.00	1.75	3.50	1.75	0.50	0.00	0.00	2.25	-0.173828	0.134766	0.958984	12.390000	-9.800000	-2.520000	1064.00	-0.24	-0.10	1.00	1.50	0.50	0.50	0.75	0.25	2.00	0.00	0.00	0.00	0.00	0.00	0.00	0.00	0.00	0.00	-0.361816	-0.167969	0.903320	-3.360000	7.630000	130.550003	76.00	-0.16	0.07
0.48	19.50	22.50	10.75	16.75	2.25	12.25	2.50	3.75	0.00	2.00	3.25	1.75	0.25	0.00	0.00	2.25	-0.160645	0.142578	0.934570	9.940000	-9.100000	-2.520000	1053.00	-0.24	-0.10	0.75	1.25	0.75	0.75	1.00	0.00	2.00	0.00	0.00	0.00	0.00	0.00	0.00	0.00	0.00	0.00	-0.572266	-0.069824	0.945801	5.530000	0.560000	93.239998	77.00	-0.15	0.08
0.49	19.50	22.25	10.50	17.00	2.00	12.00	2.50	3.50	0.00	2.00	3.25	1.75	0.50	0.00	0.00	2.25	-0.159180	0.146484	0.943848	7.070000	-7.070000	-2.380000	1044.00	-0.24	-0.10	1.25	1.75	1.25	1.00	1.00	0.00	2.00	0.00	0.00	0.00	0.00	0.00	0.00	0.00	0.00	0.00	-0.744141	-0.075684	0.901367	4.060000	-0.280000	81.760002	95.00	-0.19	0.06
0.50	19.25	22.00	10.75	16.50	2.25	11.75	2.50	3.25	0.00	2.00	3.50	1.75	0.25	0.00	0.00	2.00	-0.160645	0.141113	0.964355	6.300000	-6.790000	-2.240000	1032.00	-0.24	-0.10	1.00	1.50	1.00	1.00	1.00	0.00	2.00	0.00	0.00	0.00	0.00	0.00	0.00	0.00	0.00	0.00	-0.827148	-0.103516	0.891113	2.800000	0.210000	65.870003	88.00	-0.17	0.06
0.51	19.00	21.75	10.50	16.50	2.00	11.25	2.50	3.00	0.00	1.75	3.25	2.00	0.25	0.00	0.00	2.25	-0.147949	0.155762	0.935547	4.690000	-7.140000	-2.030000	1011.00	-0.24	-0.10	0.75	1.50	1.00	1.00	1.00	0.00	2.00	0.00	0.00	0.00	0.00	0.00	0.00	0.00	0.00	0.00	-0.830078	-0.125488	0.865723	2.800000	0.350000	46.689999	85.00	-0.16	0.06
0.52	19.00	21.50	10.50	16.50	2.00	11.00	2.25	2.75	0.00	1.75	3.25	2.00	0.25	0.00	0.00	2.25	-0.151367	0.156250	0.954590	1.960000	-4.620000	-1.540000	998.00	-0.24	-0.10	0.75	1.50	1.00	0.50	1.00	0.00	2.00	0.00	0.00	0.00	0.00	0.00	0.00	0.00	0.00	0.00	-0.842773	-0.094727	0.854492	4.760000	0.770000	26.809999	79.00	-0.16	0.08
0.53	18.75	21.25	10.25	16.25	2.00	10.75	2.25	2.25	0.00	2.00	3.25	1.25	0.00	0.00	0.00	2.00	-0.157227	0.155273	0.983887	0.140000	-4.410000	-0.630000	969.00	-0.25	-0.09	1.00	1.75	1.25	1.25	1.00	0.00	2.00	0.00	0.00	0.25	0.00	0.00	0.00	0.00	0.00	0.00	-0.805176	-0.047363	0.873535	6.860000	0.770000	9.100000	98.00	-0.17	0.05
0.54	18.75	21.00	10.25	15.75	1.75	10.00	2.25	2.00	0.00	2.00	3.25	2.00	0.00	0.00	0.00	2.00	-0.148438	0.134766	0.960449	-1.050000	-4.410000	-0.280000	954.00	-0.25	-0.09	1.00	1.50	1.00	1.00	1.25	0.00	2.00	0.00	0.00	0.25	0.00	0.00	0.00	0.00	0.00	0.00	-0.249512	0.113770	1.059570	3.430000	-1.960000	-1.680000	93.00	-0.16	0.06
0.55	18.25	21.25	10.00	15.50	1.75	9.75	2.25	2.00	0.00	1.75	3.25	1.75	0.00	0.00	0.00	2.00	-0.136719	0.134277	0.937012	-2.310000	-3.570000	-0.770000	938.00	-0.25	-0.09	1.00	2.00	1.25	1.25	1.25	0.25	2.00	0.00	0.00	0.25	0.00	0.00	0.00	0.00	0.00	0.00	-0.143066	0.077637	0.918457	0.420000	-7.700000	-0.700000	106.00	-0.18	0.04
0.56	17.75	20.75	9.75	15.25	1.75	9.25	2.25	1.50	0.00	1.50	3.25	1.50	0.00	0.00	0.00	2.00	-0.142578	0.169922	0.950684	-4.270000	-2.730000	-0.700000	904.00	-0.25	-0.09	1.00	1.75	1.25	1.25	1.50	1.00	2.00	0.00	0.00	0.00	0.00	0.00	0.00	0.00	0.00	0.00	-0.193848	0.032715	1.009277	1.540000	-10.150000	-0.140000	112.00	-0.18	0.02
0.57	16.75	20.50	9.50	14.50	1.75	9.00	2.25	1.25	0.00	1.75	3.25	1.75	0.00	0.00	0.00	2.00	-0.153809	0.148438	0.960938	-7.560000	-2.310000	-0.980000	879.00	-0.25	-0.09	1.00	1.50	1.50	1.50	1.50	0.50	2.00	0.00	0.00	0.00	0.00	0.00	0.00	0.00	0.00	0.00	-0.178711	0.014648	0.979980	2.800000	-11.760000	-1.960000	110.00	-0.18	0.03
0.58	17.50	20.25	9.50	14.25	1.75	8.50	2.25	1.00	0.00	1.75	3.00	1.50	0.00	0.00	0.00	2.00	-0.146973	0.151367	0.970703	-10.080000	-3.150000	-0.980000	867.00	-0.25	-0.08	1.50	2.00	1.50	1.75	1.50	0.75	2.25	0.25	0.00	0.25	0.00	0.00	0.00	0.00	0.00	0.00	-0.144043	0.059082	0.977539	3.430000	-12.460000	-2.030000	135.00	-0.18	0.01
0.59	17.00	19.50	9.50	14.25	1.50	8.00	2.25	0.75	0.00	2.00	3.00	1.75	0.00	0.00	0.00	2.00	-0.147461	0.148438	0.965332	-12.040000	-4.060000	-0.350000	848.00	-0.25	-0.08	1.75	2.50	1.75	2.25	2.00	0.50	2.25	0.25	0.25	0.25	0.00	0.00	0.00	0.00	0.00	0.00	-0.147461	0.087402	0.974609	3.850000	-12.040000	0.420000	156.00	-0.18	0.01
0.60	17.00	19.50	9.50	13.75	1.50	7.50	2.25	0.50	0.00	1.75	3.25	1.75	0.00	0.00	0.00	2.00	-0.144531	0.148926	0.951172	-14.350000	-4.340000	0.280000	834.00	-0.25	-0.08	1.75	3.00	2.00	2.50	2.00	1.25	2.25	0.50	0.00	0.00	0.00	0.00	0.25	0.00	0.00	0.00	-0.143066	0.072754	0.974609	4.060000	-11.200000	2.730000	175.00	-0.20	-0.03
0.61	17.50	19.25	9.25	13.25	1.50	7.25	2.25	0.50	0.00	2.00	3.00	1.75	0.00	0.00	0.00	2.00	-0.149414	0.127930	0.971680	-15.750000	-3.710000	0.070000	826.00	-0.25	-0.07	2.00	2.75	2.00	2.50	2.25	1.00	2.25	0.25	0.00	0.25	0.00	0.00	0.25	0.00	0.00	0.00	-0.140625	0.066895	0.978516	4.340000	-9.870000	4.340000	174.00	-0.19	-0.01
0.62	16.50	19.00	9.00	12.75	1.50	6.50	2.25	0.50	0.00	2.00	3.25	1.75	0.00	0.00	0.00	2.00	-0.148926	0.137207	0.977051	-16.170000	-4.830000	0.000000	799.00	-0.25	-0.07	2.00	3.00	2.25	3.25	2.50	1.75	2.25	0.50	0.00	0.00	0.00	0.00	0.00	0.00	0.00	0.00	-0.157227	0.078125	0.984375	4.690000	-8.540000	5.460000	197.00	-0.21	-0.03
0.63	16.25	18.50	9.25	12.50	1.50	6.25	2.25	0.25	0.00	1.75	3.00	1.50	0.00	0.00	0.00	2.00	-0.142578	0.120117	0.973145	-15.050000	-6.720000	0.630000	778.00	-0.25	-0.07	2.25	3.50	2.25	3.00	2.50	1.75	2.25	0.50	0.00	0.25	0.00	0.00	0.50	0.00	0.00	0.00	-0.141113	0.079590	0.982422	3.500000	-7.420000	6.020000	209.00	-0.20	-0.04
0.64	16.25	18.50	9.25	12.25	1.50	5.75	2.25	0.25	0.00	2.00	3.25	1.75	0.00	0.00	0.00	2.00	-0.139160	0.122070	0.972656	-13.790000	-7.980000	0.910000	777.00	-0.25	-0.07	2.25	3.75	2.00	3.50	2.50	2.00	2.25	0.50	0.00	0.50	0.00	0.00	0.25	0.00	0.00	0.00	-0.153320	0.082031	0.997559	2.170000	-6.790000	5.740000	217.00	-0.20	-0.04
0.65	16.50	18.25	9.00	12.00	1.25	5.25	2.25	0.25	0.00	1.50	3.00	1.75	0.00	0.00	0.00	2.00	-0.134766	0.119629	0.970215	-12.250000	-8.400000	0.770000	756.00	-0.25	-0.07	2.50	3.75	2.25	3.25	2.50	2.25	2.25	0.75	0.00	0.50	0.00	0.00	0.25	0.00	0.00	0.00	-0.158203	0.077148	0.986328	2.030000	-6.580000	5.110000	226.00	-0.20	-0.05
0.66	17.00	18.00	9.00	11.75	1.50	5.00	2.25	0.25	0.00	1.75	3.00	1.75	0.00	0.00	0.00	2.00	-0.138672	0.113770	0.965332	-10.990000	-8.820000	1.050000	759.00	-0.25	-0.06	2.50	3.50	2.50	3.75	2.75	2.25	2.25	0.75	0.00	0.25	0.00	0.00	0.25	0.00	0.00	0.00	-0.153809	0.068848	0.981445	1.890000	-6.440000	4.410000	232.00	-0.20	-0.05
0.67	16.50	18.00	9.00	11.50	1.25	4.75	2.25	0.00	0.00	2.00	3.00	1.75	0.00	0.00	0.00	2.00	-0.134277	0.104980	0.956055	-8.820000	-8.960000	1.190000	744.00	-0.25	-0.06	2.50	3.75	2.50	4.00	2.75	2.25	2.25	1.00	0.00	0.00	0.00	0.00	0.25	0.25	0.00	0.00	-0.152344	0.067871	0.983887	1.680000	-6.370000	3.850000	240.00	-0.20	-0.06
0.68	16.50	18.00	9.00	11.50	1.50	4.50	2.25	0.00	0.00	2.25	3.25	1.50	0.00	0.00	0.00	2.00	-0.121582	0.105469	0.955566	-5.880000	-8.890000	1.120000	747.00	-0.25	-0.06	2.75	4.00	2.75	4.25	2.75	2.50	2.50	1.00	0.00	0.00	0.00	0.00	0.50	0.00	0.00	0.00	-0.145508	0.065918	0.979492	1.890000	-6.300000	2.870000	257.00	-0.20	-0.06
0.69	16.50	18.00	9.00	11.25	1.25	4.25	2.25	0.00	0.00	2.25	3.25	1.50	0.00	0.00	0.00	2.00	-0.121094	0.116211	0.956543	-3.500000	-8.890000	0.980000	739.00	-0.25	-0.06	3.00	4.25	2.50	4.00	2.75	2.75	2.25	1.00	0.00	0.50	0.00	0.00	0.50	0.00	0.00	0.25	-0.156738	0.070312	0.979980	1.540000	-6.090000	2.310000	262.00	-0.20	-0.06
0.70	16.75	18.00	9.00	11.25	1.25	4.25	2.25	0.00	0.00	1.75	3.00	1.50	0.00	0.00	0.00	2.00	-0.109863	0.116211	0.936035	-1.540000	-7.770000	1.330000	733.00	-0.26	-0.06	3.00	4.25	3.00	4.25	2.75	2.75	2.25	1.25	0.00	0.50	0.00	0.00	0.50	0.00	0.00	0.00	-0.156738	0.075195	0.983887	1.400000	-5.810000	2.100000	273.00	-0.20	-0.07
0.71	16.50	18.75	9.00	11.50	1.50	4.00	2.25	0.00	0.00	2.00	3.00	1.75	0.00	0.00	0.00	2.00	-0.091309	0.107910	0.889648	-0.700000	-5.810000	1.050000	746.00	-0.25	-0.06	2.50	4.25	2.75	4.50	2.75	3.00	2.25	1.25	0.00	0.25	0.25	0.00	0.75	0.00	0.00	0.25	-0.154297	0.059570	0.981445	1.330000	-5.600000	2.100000	274.00	-0.19	-0.08
0.72	17.00	18.75	9.00	11.50	1.50	3.75	2.25	0.00	0.00	2.00	3.25	1.75	0.00	0.00	0.00	2.00	-0.091797	0.113281	0.899414	-0.140000	2.520000	0.980000	751.00	-0.25	-0.06	2.75	4.50	2.75	4.75	2.75	3.00	2.25	1.25	0.00	0.25	0.00	0.00	0.75	0.00	0.00	0.00	-0.149414	0.082031	0.990234	1.540000	-5.460000	2.240000	278.00	-0.20	-0.08
0.73	16.75	18.75	9.00	11.50	1.25	4.00	2.25	0.00	0.00	1.75	3.00	1.25	0.00	0.00	0.00	2.00	-0.079590	0.125977	0.863770	-0.350000	7.700000	0.770000	738.00	-0.26	-0.06	2.75	4.25	2.75	4.75	2.75	3.00	2.25	1.50	0.00	0.25	0.00	0.00	0.75	0.00	0.00	0.25	-0.151367	0.076660	0.982422	1.820000	-5.180000	2.310000	281.00	-0.20	-0.08
0.74	17.25	19.00	9.00	11.75	1.25	4.00	2.25	0.00	0.00	1.75	3.25	1.50	0.00	0.00	0.00	2.00	-0.066406	0.137695	0.815430	-1.330000	16.799999	1.260000	753.00	-0.26	-0.06	3.25	4.50	3.00	4.75	3.00	3.25	2.25	1.75	0.00	0.25	0.25	0.00	1.00	0.00	0.00	0.25	-0.155762	0.072266	0.985840	2.870000	-5.390000	2.450000	305.00	-0.19	-0.09
0.75	17.25	19.25	9.25	12.00	1.50	4.25	2.25	0.00	0.00	1.75	3.00	1.75	0.00	0.00	0.00	2.00	-0.071777	0.109863	0.849609	-3.990000	27.650000	0.910000	766.00	-0.26	-0.06	3.00	4.25	2.75	4.75	2.75	3.00	2.25	1.50	0.00	0.25	0.00	0.00	0.75	0.00	0.00	0.00	-0.145996	0.088867	0.986816	3.360000	-5.460000	2.450000	282.00	-0.20	-0.08
0.76	17.00	19.00	9.25	12.25	1.50	4.25	2.50	0.00	0.00	2.00	3.25	1.50	0.00	0.00	0.00	2.00	-0.116699	0.133301	0.932617	-5.740000	35.420002	-0.070000	771.00	-0.25	-0.06	2.75	4.25	2.75	5.00	2.75	3.25	2.25	1.50	0.00	0.50	0.25	0.25	0.75	0.00	0.00	0.00	-0.149414	0.082031	0.986328	3.150000	-4.970000	2.380000	293.00	-0.19	-0.09
0.77	17.00	19.50	9.50	13.00	1.75	4.50	2.25	0.00	0.00	2.00	3.25	1.75	0.00	0.00	0.00	2.00	-0.155762	0.119141	1.032715	-6.230000	35.980000	0.210000	791.00	-0.26	-0.06	2.75	4.50	2.50	4.75	2.75	3.50	2.25	1.50	0.00	0.50	0.00	0.00	1.00	0.00	0.00	0.00	-0.141113	0.093262	0.978027	2.380000	-4.270000	2.100000	289.00	-0.19	-0.09
0.78	17.00	19.50	9.50	13.00	1.50	4.75	2.25	0.00	0.00	2.00	3.25	1.75	0.00	0.00	0.00	2.00	-0.161621	0.126465	1.028320	-5.460000	32.270000	0.630000	791.00	-0.26	-0.06	2.75	4.50	2.50	4.75	2.75	3.50	2.25	1.75	0.00	0.25	0.25	0.00	1.00	0.00	0.00	0.25	-0.179688	0.041504	0.945801	0.420000	-3.430000	1.890000	294.00	-0.19	-0.10
0.79	17.75	20.25	9.50	13.00	1.75	5.00	2.25	0.25	0.00	2.00	3.00	1.50	0.00	0.00	0.00	2.25	-0.165039	0.123535	1.026367	-3.920000	27.370001	1.260000	811.00	-0.26	-0.06	2.75	4.25	2.75	4.50	2.50	3.50	2.25	1.75	0.00	0.25	0.00	0.25	1.00	0.00	0.00	0.25	-0.138184	0.091797	0.970703	-1.750000	-1.680000	1.680000	289.00	-0.19	-0.10
0.80	17.50	20.00	9.50	13.50	1.75	5.25	2.50	0.25	0.00	2.25	3.25	1.50	0.00	0.00	0.00	2.00	-0.144043	0.104492	0.969238	-2.660000	23.940001	1.680000	822.00	-0.25	-0.06	2.25	4.25	2.50	4.50	2.50	3.25	2.25	2.00	0.00	0.25	0.00	0.25	1.00	0.00	0.00	0.25	-0.142090	0.091797	0.973145	-4.200000	0.000000	1.470000	282.00	-0.18	-0.10
0.81	18.00	20.50	10.00	13.75	2.00	5.50	2.50	0.25	0.00	2.00	3.25	1.50	0.00	0.00	0.00	2.25	-0.139160	0.100586	0.946289	-1.680000	23.450001	1.750000	844.00	-0.26	-0.06	2.50	3.75	2.25	4.00	2.50	3.25	2.25	1.75	0.00	0.25	0.25	0.25	1.25	0.00	0.00	0.25	-0.143066	0.087891	0.972656	-6.860000	1.400000	0.980000	273.00	-0.17	-0.10
0.82	18.25	20.25	9.75	14.25	2.00	6.00	2.50	0.50	0.00	2.00	3.25	1.75	0.00	0.00	0.00	2.00	-0.140137	0.111328	0.953613	-1.820000	24.150000	0.980000	857.00	-0.25	-0.07	2.25	3.25	2.25	4.25	2.50	3.00	2.25	1.75	0.00	0.50	0.25	0.50	1.00	0.00	0.00	0.25	-0.134766	0.076660	0.964355	-9.590000	2.590000	0.490000	269.00	-0.16	-0.10
0.83	18.00	21.00	10.25	14.50	2.00	6.25	2.50	0.50	0.00	2.00	3.25	1.75	0.00	0.00	0.00	2.00	-0.147461	0.121582	0.958984	-3.010000	25.340000	0.210000	873.00	-0.25	-0.07	2.00	3.25	2.25	3.75	2.50	3.00	2.25	2.25	0.00	0.50	0.50	0.50	1.00	0.00	0.00	0.25	-0.134277	0.081055	0.988770	-13.300000	4.060000	-0.070000	271.00	-0.15	-0.10
0.84	18.25	20.75	10.50	15.00	2.25	6.75	2.50	0.50	0.00	2.25	3.25	1.75	0.00	0.00	0.00	2.00	-0.146484	0.124023	0.944336	-5.530000	26.110001	-0.210000	892.00	-0.25	-0.07	1.75	3.00	1.75	2.75	2.25	3.00	2.50	2.00	0.00	0.50	0.50	0.50	1.00	0.00	0.00	0.25	-0.158203	0.056152	1.012207	-12.250000	1.680000	-0.700000	247.00	-0.13	-0.10
0.85	17.75	21.00	10.25	15.25	2.25	7.00	2.50	0.50	0.00	2.25	3.25	1.75	0.00	0.00	0.00	2.00	-0.142090	0.121094	0.926270	-8.470000	28.139999	-0.630000	892.00	-0.25	-0.07	1.50	3.00	1.75	3.00	2.25	2.75	2.50	2.00	0.00	0.50	0.50	0.50	1.50	0.00	0.00	0.25	-0.139160	0.055176	0.974121	-8.820000	0.140000	-1.260000	249.00	-0.13	-0.11
0.86	18.00	20.75	10.50	15.50	2.50	7.25	2.50	0.50	0.00	2.25	3.25	1.75	0.00	0.00	0.00	2.00	-0.135742	0.124023	0.904297	-12.040000	31.850000	-0.980000	903.00	-0.25	-0.07	1.50	2.25	1.50	2.50	2.00	2.50	2.50	2.00	0.50	0.75	0.50	0.50	1.50	0.00	0.00	0.25	-0.137695	0.071777	0.983398	-7.070000	0.630000	-1.820000	237.00	-0.10	-0.09
0.87	18.50	20.50	10.75	15.75	2.50	7.75	2.50	0.75	0.00	2.25	3.25	1.50	0.00	0.00	0.00	2.25	-0.159668	0.111328	0.926270	-16.870001	36.889999	-1.400000	920.00	-0.25	-0.07	1.00	1.75	1.25	2.00	2.00	2.25	2.25	2.00	0.00	0.75	0.50	0.50	1.50	0.25	0.00	0.25	-0.163574	0.080078	0.982422	-6.230000	1.680000	-2.660000	208.00	-0.08	-0.11
0.88	18.25	20.75	10.75	15.50	2.75	8.00	2.75	1.00	0.00	2.25	3.25	2.00	0.25	0.00	0.00	2.00	-0.150879	0.117676	0.886230	-23.520000	43.470001	-2.240000	936.00	-0.24	-0.07	1.00	1.25	1.25	1.75	1.75	2.25	2.50	2.00	0.00	0.75	0.75	0.75	2.00	0.50	0.00	0.50	-0.146973	0.065430	0.985352	-2.520000	4.760000	-5.250000	215.00	-0.05	-0.11
0.89	17.25	20.50	10.75	15.75	3.00	8.25	2.75	1.00	0.00	2.25	3.50	2.00	0.00	0.00	0.00	2.00	-0.158203	0.142090	0.918945	-34.369999	54.459999	-3.150000	932.00	-0.24	-0.08	0.50	1.25	0.50	1.00	1.50	1.75	2.50	2.00	0.25	1.00	1.00	1.00	2.00	0.50	0.00	0.50	-0.159668	0.069824	0.990234	-1.540000	7.280000	-6.370000	196.00	-0.00	-0.11
0.90	17.50	20.00	10.75	15.50	3.75	8.25	2.75	1.25	0.00	2.50	3.50	1.75	0.00	0.25	0.00	2.25	-0.190430	0.109863	0.954102	-46.619999	62.160000	-3.290000	942.00	-0.24	-0.07	0.75	0.75	0.75	1.00	1.00	1.25	2.25	1.50	0.50	1.00	1.25	1.00	2.25	0.50	0.00	0.50	-0.134277	0.059082	0.963379	0.630000	12.040000	-7.070000	183.00	0.02	-0.09
0.91	17.25	20.00	11.00	15.25	4.25	8.25	2.75	1.50	0.25	2.50	3.50	1.75	0.00	0.50	0.00	2.25	-0.259277	0.018066	1.083008	-56.279999	63.910000	-3.640000	955.00	-0.23	-0.07	0.25	0.25	0.75	0.50	1.00	1.00	2.25	1.50	0.50	1.00	1.50	1.00	2.50	0.75	0.25	0.75	-0.193359	0.072266	1.034668	4.760000	18.969999	-8.050000	175.00	0.07	-0.09
0.92	16.50	19.50	11.00	15.25	5.00	8.50	3.00	1.25	0.50	2.75	3.75	1.50	0.25	0.75	0.00	2.25	-0.257812	-0.018066	1.010742	-59.010002	52.709999	-3.850000	963.00	-0.22	-0.07	0.00	0.50	0.25	0.50	0.75	0.75	2.25	1.50	1.00	1.00	1.50	0.75	2.75	0.75	0.25	0.75	-0.148438	0.072266	1.073242	13.300000	45.009998	-10.640000	170.00	0.10	-0.09
0.93	16.50	19.25	11.00	15.00	5.25	8.50	3.00	1.50	0.25	2.75	3.75	1.75	0.25	1.00	0.00	2.25	-0.254395	0.044922	0.997559	-24.990000	10.710000	-2.940000	966.00	-0.22	-0.07	0.25	0.00	0.25	0.25	0.75	0.75	2.25	1.25	0.75	1.25	1.50	1.25	2.75	1.75	0.50	1.00	-0.177246	0.042480	1.090332	14.420000	72.309998	-10.780000	179.00	0.13	-0.08
0.94	17.00	18.75	11.00	15.25	5.75	8.50	3.00	1.50	0.50	2.75	3.75	2.00	0.25	0.75	0.00	2.25	-0.172852	0.068359	0.955078	-18.410000	7.280000	-2.520000	979.00	-0.22	-0.07	0.00	0.00	0.25	0.25	0.50	0.50	2.00	1.00	0.75	1.25	1.50	1.25	2.75	2.25	0.75	0.75	-0.195312	0.117676	1.091309	15.680000	96.459999	-11.690000	169.00	0.16	-0.07
0.95	16.25	19.00	11.00	15.25	5.75	8.75	3.00	1.50	0.75	3.00	3.75	2.00	0.25	1.25	0.00	2.25	-0.221191	0.052246	0.966309	-13.720000	5.040000	-2.380000	986.00	-0.21	-0.07	0.00	0.00	0.25	0.50	0.50	0.50	2.00	0.75	0.75	1.25	1.50	1.25	2.50	2.75	0.50	1.25	-0.217773	0.053223	1.101074	11.900000	122.709999	-11.830000	170.00	0.17	-0.06
0.96	16.00	18.75	11.50	15.00	6.25	8.75	3.25	1.50	0.75	3.00	3.75	1.75	0.50	1.50	0.00	2.25	-0.208496	0.060547	0.960449	-11.060000	3.920000	-2.240000	995.00	-0.21	-0.06	0.00	0.00	0.25	0.00	0.50	0.25	2.00	0.75	1.25	1.25	1.25	1.25	2.25	3.25	0.25	1.25	-0.217285	0.134766	1.163086	7.630000	149.380005	-12.250000	165.00	0.19	-0.02
0.97	16.25	18.25	11.25	15.00	6.50	8.75	3.25	1.75	0.75	3.00	4.00	2.00	0.50	1.75	0.00	2.25	-0.218262	0.052246	0.955566	-10.150000	3.220000	-2.170000	1004.00	-0.20	-0.06	0.25	0.00	0.25	0.00	0.50	0.00	2.00	0.50	1.00	1.00	1.25	1.00	2.00	4.25	0.75	1.25	-0.275879	0.116211	1.253906	-1.120000	173.320007	-14.420000	164.00	0.21	0.00
0.98	16.00	18.75	11.25	15.00	6.50	8.75	3.25	1.75	1.25	3.00	4.00	2.00	0.50	1.50	0.00	2.25	-0.213867	0.061035	0.964355	-9.240000	3.080000	-2.240000	1011.00	-0.20	-0.06	0.00	0.00	0.25	0.00	0.50	0.25	1.75	0.25	1.50	0.75	1.00	0.75	1.50	5.75	0.75	1.25	-0.312988	0.142090	1.344238	-11.900000	189.699997	-16.590000	164.00	0.24	0.04
0.99	16.00	18.75	11.50	15.00	7.00	9.00	3.25	1.75	1.25	3.25	4.00	2.00	0.75	1.50	0.00	2.25	-0.213867	0.051270	0.959473	-8.120000	2.940000	-2.240000	1026.00	-0.20	-0.06	0.00	0.00	0.00	0.25	0.25	0.00	1.75	0.25	1.00	0.75	1.00	1.00	1.00	6.25	0.75	1.25	-0.353027	0.120117	1.258789	-19.670000	200.339996	-17.639999	154.00	0.26	0.04
1.00	16.25	18.50	11.50	15.00	7.25	9.00	3.25	1.75	1.25	3.00	4.00	2.00	0.50	2.00	0.00	2.25	-0.211914	0.051270	0.962891	-6.930000	2.870000	-2.380000	1029.00	-0.20	-0.06	0.25	0.00	0.00	0.00	0.25	0.00	1.75	0.00	1.00	0.50	1.00	0.75	0.75	7.00	1.00	1.00	-0.373047	0.129395	1.283691	-28.210001	214.339996	-18.900000	151.00	0.27	0.08
1.01	16.00	18.75	12.00	15.50	7.50	9.00	3.25	2.00	1.25	3.25	4.00	2.25	0.75	1.75	0.00	2.25	-0.205566	0.056641	0.955566	-5.810000	2.800000	-2.310000	1052.00	-0.20	-0.06	0.00	0.00	0.25	0.25	0.25	0.00	1.75	0.50	0.75	0.50	0.25	0.50	0.75	7.75	0.75	1.00	-0.414551	0.122559	1.292480	-34.580002	229.600006	-21.000000	151.00	0.26	0.07
1.02	16.25	18.50	12.00	15.25	7.75	9.50	3.25	2.00	1.50	3.00	4.00	2.00	0.75	1.75	0.00	2.25	-0.208008	0.053223	0.958496	-5.250000	2.870000	-2.380000	1055.00	-0.20	-0.06	0.00	0.00	0.25	0.00	0.25	0.00	1.75	0.00	0.25	0.50	0.25	0.25	0.50	8.00	0.75	0.75	-0.489746	0.121582	1.362305	-42.700001	243.740005	-22.540001	130.00	0.29	0.12
1.03	16.00	18.75	12.25	15.75	8.00	9.50	3.25	2.00	1.50	3.00	4.00	2.00	0.75	1.75	0.00	2.25	-0.200195	0.051758	0.950195	-4.760000	2.660000	-2.310000	1066.00	-0.20	-0.06	0.00	0.00	0.00	0.00	0.25	0.00	1.75	0.00	0.50	0.25	0.25	0.00	0.25	8.00	0.25	0.50	-0.519531	0.114746	1.524414	-48.509998	253.119995	-22.889999	117.00	0.30	0.16
1.04	16.00	18.75	12.50	15.75	8.25	9.50	3.25	2.00	1.50	3.00	4.00	2.25	0.50	1.25	0.00	2.25	-0.198730	0.054688	0.958496	-4.410000	2.380000	-2.310000	1068.00	-0.20	-0.06	0.00	0.00	0.25	0.00	0.25	0.00	1.75	0.00	0.25	0.25	0.25	0.00	0.00	7.75	0.25	0.25	-0.488281	0.121582	1.292480	-53.410000	262.709991	-26.670000	110.00	0.29	0.17
1.05	16.50	18.25	12.25	15.75	8.50	9.75	3.50	2.25	1.50	3.25	4.00	2.25	0.75	1.75	0.00	2.50	-0.195801	0.048340	0.950684	-4.060000	2.520000	-2.590000	1089.00	-0.19	-0.06	0.00	0.00	0.00	0.00	0.00	0.00	1.75	0.00	0.00	0.00	0.25	0.00	0.00	7.00	0.25	0.25	-0.493164	0.093262	1.269043	-63.070000	272.510010	-30.100000	93.00	0.31	0.17
1.06	16.25	18.50	12.25	15.50	8.75	9.75	3.50	2.25	2.00	3.25	4.00	2.25	1.00	2.00	0.00	2.25	-0.200684	0.046875	0.954590	-3.640000	2.940000	-2.730000	1098.00	-0.19	-0.06	0.00	0.00	0.00	0.50	0.25	0.00	2.00	0.00	0.00	0.00	0.00	0.00	0.00	6.25	0.00	0.00	-0.526855	0.070312	1.275879	-78.610001	277.410004	-32.759998	92.00	0.25	0.17
1.07	15.75	18.50	12.50	15.25	8.75	10.25	3.50	2.50	2.00	3.50	4.00	2.25	1.00	2.25	0.00	2.50	-0.198730	0.055176	0.955566	-2.730000	3.430000	-2.660000	1108.00	-0.18	-0.06	0.00	0.00	0.00	0.00	0.00	0.00	1.75	0.00	0.00	0.00	0.25	0.00	0.00	5.50	0.00	0.00	-0.539062	0.073242	1.237305	-97.019997	281.820007	-35.560001	76.00	0.29	0.19
1.08	15.75	17.75	12.25	15.00	9.00	10.25	3.50	2.75	1.75	3.25	4.25	2.25	1.00	2.25	0.00	2.75	-0.198242	0.053711	0.959961	-2.240000	3.920000	-2.520000	1101.00	-0.18	-0.06	0.00	0.00	0.00	0.00	0.00	0.00	1.75	0.00	0.00	0.00	0.00	0.00	0.00	3.50	0.00	0.00	-0.505371	-0.082520	1.475586	-150.289993	267.399994	-34.509998	56.00	0.26	0.21
1.09	15.25	17.25	12.00	15.00	9.00	10.50	3.50	3.00	2.00	3.50	4.50	2.25	1.25	2.25	0.25	2.50	-0.205078	0.049805	0.954102	-1.960000	4.970000	-2.520000	1107.00	-0.17	-0.07	0.00	0.00	0.00	0.00	0.00	0.00	2.00	0.00	0.00	0.00	0.00	0.00	0.00	1.75	0.00	0.00	-0.403809	-0.094238	1.508301	-201.880005	250.180008	-30.030001	45.00	0.00	0.00
1.10	15.00	16.75	12.00	14.50	9.25	10.50	3.50	3.25	1.75	3.50	4.50	2.50	1.25	2.25	0.00	2.75	-0.194824	0.050781	0.953613	-1.680000	5.880000	-2.730000	1099.00	-0.17	-0.07	0.25	0.00	0.00	0.00	0.25	0.00	2.00	0.00	0.00	0.00	0.00	0.00	0.00	1.00	0.00	0.00	-0.041504	0.160645	1.637207	-259.700012	221.130005	-20.930000	44.00	0.00	0.00
1.11	14.25	16.00	11.75	14.25	9.25	10.50	3.50	3.50	2.25	3.50	5.00	2.50	1.25	2.50	0.25	2.75	-0.200684	0.049805	0.958984	-1.610000	6.790000	-2.800000	1099.00	-0.16	-0.07	0.00	0.00	0.25	0.25	0.25	0.00	2.25	0.00	0.00	0.00	0.00	0.00	0.00	0.25	0.00	0.00	1.230957	1.144531	2.312500	-263.619995	160.649994	0.210000	44.00	0.00	0.00
1.12	14.00	15.50	11.25	14.25	9.25	10.50	3.75	3.75	2.25	3.50	5.00	2.50	1.50	2.50	0.00	2.50	-0.203613	0.053711	0.962891	-1.190000	7.770000	-2.940000	1092.00	-0.16	-0.07	0.25	0.00	0.25	0.50	0.25	0.00	2.25	0.00	0.00	0.25	0.00	0.00	0.00	0.50	0.00	0.00	0.666504	1.360840	1.971191	-177.240005	65.870003	31.710001	55.00	0.03	0.16
1.13	12.75	14.75	11.00	13.50	9.25	10.25	3.50	4.50	2.50	3.50	5.00	2.75	1.50	2.50	0.00	2.50	-0.199707	0.053711	0.958008	-0.910000	8.260000	-3.150000	1072.00	-0.15	-0.07	0.00	0.25	0.25	0.00	0.00	0.00	2.25	0.00	0.00	0.00	0.00	0.00	0.00	0.00	0.00	0.00	0.987305	0.876953	1.220703	-80.709999	-1.470000	52.779999	39.00	0.00	0.00
1.14	12.75	14.00	10.75	13.00	9.25	10.25	3.75	4.50	2.50	3.75	5.25	2.75	1.50	2.50	0.25	3.00	-0.198242	0.050781	0.955566	-0.350000	8.610000	-3.220000	1071.00	-0.14	-0.07	0.00	0.00	0.00	0.25	0.25	0.25	2.25	0.00	0.00	0.00	0.00	0.00	0.00	0.00	0.00	0.00	0.722656	0.529785	0.992676	-39.619999	-28.559999	62.230000	42.00	0.00	0.00
1.15	12.25	13.25	10.75	12.75	9.25	10.50	3.75	4.75	2.25	4.00	5.50	2.75	1.75	2.50	0.25	2.75	-0.195312	0.052734	0.941895	-0.000000	8.540000	-3.080000	1065.00	-0.14	-0.07	0.25	0.25	0.25	0.25	0.00	0.25	2.25	0.00	0.00	0.00	0.00	0.00	0.00	0.00	0.00	0.00	0.670898	0.360840	0.968262	-41.930000	-36.540001	67.199997	47.00	0.00	0.00
1.16	11.25	12.50	10.25	12.25	9.25	10.25	3.75	5.00	2.00	4.00	5.50	3.25	1.75	2.00	0.50	3.00	-0.198242	0.055664	0.950684	-0.070000	8.890000	-3.220000	1040.00	-0.13	-0.08	0.00	0.25	0.25	0.25	0.25	0.00	2.25	0.00	0.25	0.00	0.00	0.00	0.00	0.00	0.00	0.00	0.654785	0.359863	1.078613	-48.650002	-50.119999	67.830002	48.00	0.00	0.00
1.17	10.00	11.25	10.00	11.50	9.50	10.50	3.75	5.25	2.75	4.25	6.00	3.00	1.75	2.50	0.50	2.75	-0.204590	0.050781	0.953125	-0.210000	9.800000	-3.360000	1031.00	-0.11	-0.08	0.00	0.00	0.25	0.00	0.00	0.00	2.25	0.00	0.00	0.00	0.00	0.00	0.00	0.00	0.00	0.00	0.638184	0.337402	1.104492	-40.670002	-72.239998	62.720001	37.00	0.00	0.00
1.18	9.50	9.75	9.50	11.25	9.25	10.25	3.75	5.50	2.50	4.25	6.25	3.50	2.00	2.75	0.50	3.25	-0.201172	0.053711	0.946777	-0.210000	10.220000	-3.220000	1014.00	-0.10	-0.08	0.00	0.00	0.00	0.00	0.00	0.00	2.25	0.00	0.00	0.00	0.00	0.00	0.00	0.25	0.00	0.00	0.616211	0.275879	1.086426	-24.920000	-95.480003	52.500000	36.00	0.00	0.00
1.19	8.75	9.25	9.25	10.75	9.25	10.25	4.00	5.75	2.75	4.25	6.50	3.50	2.25	3.00	0.50	3.25	-0.196289	0.059082	0.948242	-0.490000	10.990000	-3.290000	1011.00	-0.09	-0.08	0.00	0.25	0.25	0.00	0.25	0.00	2.25	0.00	0.00	0.00	0.00	0.00	0.00	0.00	0.00	0.00	0.598633	0.216797	1.136719	-13.790000	-116.410004	40.529999	42.00	0.00	0.00
1.20	8.00	8.50	9.00	10.00	9.25	10.25	4.00	5.75	3.00	4.50	7.00	3.75	2.50	2.50	0.50	3.50	-0.194824	0.028809	0.946777	-0.490000	11.970000	-3.290000	999.00	-0.08	-0.08	0.25	0.00	0.00	0.00	0.00	0.00	2.25	0.00	0.00	0.00	0.00	0.00	0.00	0.00	0.00	0.00	0.569336	0.208496	1.239258	-10.570000	-137.619995	29.400000	37.00	0.00	0.00
1.21	7.50	7.75	8.50	9.50	9.25	10.00	4.00	6.00	3.25	5.00	7.00	4.00	2.75	2.50	0.50	3.50	-0.209473	0.051758	0.956543	-0.420000	12.740000	-3.360000	990.00	-0.07	-0.08	0.25	0.00	0.25	0.00	0.25	0.00	2.25	0.00	0.00	0.00	0.00	0.00	0.00	0.00	0.00	0.00	0.521973	0.246094	1.317383	-10.710000	-161.770004	21.350000	42.00	0.00	0.00
1.22	7.00	6.75	8.25	8.75	9.00	10.00	4.00	6.25	3.25	5.25	7.50	4.25	3.00	3.00	0.75	3.75	-0.210938	0.050293	0.959473	-0.140000	13.510000	-3.500000	986.00	-0.06	-0.08	0.00	0.25	0.00	0.25	0.25	0.00	2.25	0.00	0.00	0.00	0.00	0.00	0.00	0.00	0.00	0.00	0.449219	0.298828	1.348145	-7.910000	-187.529999	16.799999	42.00	0.00	0.00
1.23	6.25	6.00	7.75	8.25	8.75	9.75	4.00	6.50	4.00	5.75	7.75	4.25	3.50	3.25	0.75	3.75	-0.222656	0.060547	0.968262	-0.280000	14.210000	-3.500000	983.00	-0.04	-0.08	0.00	0.00	0.00	0.00	0.25	0.00	2.25	0.00	0.00	0.00	0.00	0.00	0.00	0.00	0.00	0.00	0.350098	0.335449	1.341797	0.140000	-211.750000	15.610000	37.00	0.00	0.00
1.24	5.25	5.25	7.25	7.75	8.75	9.75	4.25	6.50	4.25	6.00	8.00	4.50	3.75	3.50	0.75	3.75	-0.211426	0.057129	0.959961	-0.560000	14.910000	-3.570000	974.00	-0.03	-0.08	0.50	0.00	0.00	0.00	0.25	0.00	2.25	0.00	0.00	0.00	0.00	0.00	0.00	0.00	0.00	0.00	0.222168	0.347656	1.352539	11.200000	-232.820007	18.059999	42.00	0.00	0.00
1.25	4.50	4.75	6.75	7.00	8.50	9.50	4.25	6.50	4.25	6.75	8.25	5.25	4.00	3.75	0.75	4.00	-0.219727	0.062988	0.965332	-0.770000	15.610000	-3.570000	966.00	-0.01	-0.09	0.25	0.00	0.00	0.25	0.25	0.00	2.25	0.00	0.00	0.00	0.00	0.00	0.25	0.00	0.00	0.00	0.110840	0.343750	1.349609	20.510000	-250.389999	22.889999	44.00	0.00	0.00
1.26	3.75	4.25	6.00	6.50	8.25	9.25	4.25	6.75	5.00	7.00	8.50	5.25	4.50	4.00	1.00	4.00	-0.221191	0.057129	0.969238	-0.280000	15.820000	-3.710000	963.00	0.01	-0.09	0.00	0.00	0.00	0.00	0.25	0.00	2.25	0.00	0.00	0.00	0.00	0.00	0.00	0.00	0.00	0.00	0.002441	0.333984	1.319336	26.389999	-263.690002	29.190001	37.00	0.00	0.00
1.27	3.25	3.25	5.50	5.75	8.00	9.25	4.25	7.00	5.00	7.50	8.75	5.75	5.00	4.25	1.25	4.50	-0.217773	0.046875	0.968750	0.280000	16.520000	-3.850000	960.00	0.02	-0.09	0.25	0.00	0.25	0.00	0.25	0.00	2.25	0.00	0.00	0.00	0.00	0.00	0.00	0.00	0.00	0.00	-0.103516	0.331543	1.270508	32.340000	-270.970001	36.189999	42.00	0.00	0.00
1.28	2.25	2.50	5.00	5.50	7.75	9.00	4.25	7.00	5.50	7.50	9.25	6.25	5.25	5.00	1.25	4.50	-0.216797	0.056641	0.957031	1.050000	17.219999	-4.130000	955.00	0.04	-0.09	0.25	0.00	0.00	0.00	0.00	0.00	2.25	0.00	0.00	0.00	0.00	0.00	0.00	0.00	0.00	0.00	-0.282227	0.271484	1.285645	46.549999	-268.589996	45.500000	37.00	0.00	0.00
1.29	2.00	2.25	4.25	5.00	7.50	8.75	4.25	7.25	5.75	8.00	9.50	6.75	5.50	5.25	1.25	4.75	-0.230469	0.047363	0.966797	1.680000	17.920000	-4.480000	957.00	0.05	-0.09	0.00	0.00	0.00	0.00	0.00	0.00	2.25	0.00	0.00	0.25	0.00	0.00	0.00	0.00	0.00	0.00	-0.370605	0.250977	1.310059	52.220001	-262.989990	46.549999	37.00	0.00	0.00
1.30	1.50	1.75	3.75	4.25	7.00	8.50	4.25	7.25	6.00	8.25	10.00	7.50	6.00	5.50	1.50	4.75	-0.223145	0.050293	0.953125	2.520000	18.900000	-4.830000	953.00	0.07	-0.09	0.25	0.00	0.00	0.00	0.25	0.00	2.25	0.00	0.00	0.00	0.00	0.00	0.00	0.00	0.00	0.00	-0.461914	0.240723	1.296875	57.189999	-253.680008	46.480000	39.00	0.00	0.00
1.31	1.25	1.75	3.00	3.50	6.50	8.50	4.25	7.25	6.75	8.50	10.50	7.75	6.25	6.00	1.50	5.00	-0.211426	0.060059	0.956543	3.920000	19.530001	-5.320000	956.00	0.08	-0.09	0.00	0.00	0.00	0.00	0.25	0.00	2.25	0.00	0.00	0.00	0.00	0.00	0.00	0.00	0.00	0.00	-0.529785	0.251465	1.370605	61.250000	-241.430008	46.549999	37.00	0.00	0.00
1.32	1.00	1.50	2.50	3.25	6.00	8.25	4.25	7.50	7.50	8.75	10.75	8.00	6.75	6.75	1.75	5.25	-0.235352	0.058594	0.955078	5.250000	20.299999	-5.810000	971.00	0.10	-0.09	0.25	0.00	0.00	0.00	0.00	0.00	2.25	0.00	0.00	0.00	0.00	0.00	0.00	0.00	0.00	0.00	-0.556641	0.264648	1.554199	67.340004	-232.820007	48.160000	37.00	0.00	0.00
1.33	1.25	1.50	2.25	2.75	5.50	8.00	4.00	7.50	7.75	9.00	11.25	8.50	7.00	7.50	1.75	5.25	-0.248535	0.062500	0.968750	6.370000	21.629999	-6.020000	978.00	0.11	-0.09	0.00	0.00	0.00	0.00	0.00	0.00	2.25	0.00	0.00	0.00	0.00	0.00	0.00	0.00	0.00	0.00	-0.562500	0.253418	1.743652	73.430000	-232.540009	51.799999	34.00	0.00	0.00
1.34	0.75	1.00	1.75	2.25	5.00	7.75	4.00	7.50	8.00	9.25	11.75	9.00	7.25	7.75	1.75	5.50	-0.239746	0.062988	0.948730	7.700000	22.469999	-6.300000	971.00	0.12	-0.09	0.50	0.00	0.00	0.00	0.25	0.00	2.25	0.00	0.00	0.00	0.00	0.00	0.00	0.00	0.00	0.00	-0.576172	0.215332	1.753906	75.040001	-237.860001	57.400002	42.00	0.00	0.00
1.35	0.50	0.75	1.50	2.50	4.50	7.50	4.00	7.50	8.50	9.50	12.50	9.25	7.50	8.50	2.00	5.25	-0.236816	0.079102	0.950684	10.640000	24.570000	-7.560000	988.00	0.13	-0.09	0.00	0.00	0.25	0.00	0.25	0.00	2.25	0.00	0.00	0.00	0.00	0.00	0.00	0.00	0.00	0.00	-0.613770	0.173340	1.638184	72.940002	-239.889999	64.190002	40.00	0.00	0.00
1.36	0.00	0.75	1.00	2.25	3.75	7.50	3.75	7.50	8.75	10.00	13.00	9.75	8.00	9.00	2.25	5.75	-0.228027	0.064941	0.960938	13.440001	26.110001	-8.260000	995.00	0.14	-0.10	0.00	0.00	0.00	0.00	0.00	0.00	2.25	0.00	0.00	0.00	0.00	0.00	0.00	0.00	0.00	0.00	-0.637695	0.107910	1.537109	71.190002	-235.130005	70.910004	34.00	0.00	0.00
1.37	0.25	0.75	1.25	2.00	3.25	7.25	3.75	7.75	9.00	10.25	13.50	10.50	8.25	9.50	2.25	6.00	-0.252930	0.062988	0.958008	16.940001	28.280001	-9.170000	1020.00	0.15	-0.10	0.25	0.00	0.00	0.00	0.00	0.00	2.25	0.00	0.00	0.00	0.00	0.00	0.00	0.00	0.00	0.00	-0.648438	0.033691	1.452637	68.669998	-225.750000	76.580002	37.00	0.00	0.00
1.38	0.25	0.25	1.25	1.75	2.75	7.00	3.50	7.75	9.25	10.50	14.25	11.50	8.75	10.25	2.50	6.25	-0.248535	0.066406	0.966797	21.280001	31.710001	-9.380000	1040.00	0.16	-0.10	0.25	0.00	0.00	0.25	0.00	0.00	2.25	0.00	0.00	0.00	0.00	0.00	0.00	0.00	0.00	0.00	-0.647949	-0.035156	1.414551	64.540001	-213.919998	80.639999	39.00	0.00	0.00
1.39	0.25	0.25	0.50	1.50	2.25	7.00	3.25	7.50	9.50	10.75	15.00	12.00	9.00	11.00	2.75	6.50	-0.262207	0.080078	0.964844	26.110001	36.470001	-9.170000	1047.00	0.17	-0.10	0.25	0.00	0.00	0.00	0.25	0.00	2.25	0.00	0.00	0.00	0.00	0.00	0.00	0.00	0.00	0.00	-0.643066	-0.103516	1.417969	59.010002	-201.600006	83.019997	39.00	0.00	0.00
1.40	0.00	0.00	0.75	1.75	2.00	7.00	3.25	7.50	9.50	11.00	15.50	12.75	9.50	11.75	3.00	6.50	-0.264648	0.087402	0.974121	33.459999	42.209999	-9.730000	1074.00	0.17	-0.10	0.00	0.00	0.25	0.00	0.00	0.00	2.25	0.00	0.00	0.00	0.00	0.00	0.00	0.00	0.00	0.00	-0.629883	-0.132324	1.582520	55.160000	-193.899994	83.650002	37.00	0.00	0.00
1.41	0.00	0.25	0.50	1.50	1.75	6.75	3.00	7.50	9.75	11.25	16.25	13.75	10.25	12.75	3.25	7.00	-0.268555	0.084473	0.979004	43.119999	47.810001	-10.360000	1106.00	0.18	-0.10	0.25	0.00	0.00	0.00	0.25	0.00	2.25	0.00	0.00	0.00	0.00	0.00	0.00	0.00	0.00	0.00	-0.622070	-0.134766	1.798340	53.970001	-197.960007	82.529999	39.00	0.00	0.00
1.42	0.50	0.00	0.25	1.25	1.25	6.75	2.75	7.50	9.75	11.50	17.00	14.50	10.75	13.75	3.75	7.25	-0.264160	0.103027	0.975586	53.900002	54.599998	-10.850000	1132.00	0.19	-0.10	0.25	0.00	0.00	0.00	0.25	0.00	2.25	0.00	0.00	0.00	0.00	0.00	0.00	0.00	0.00	0.00	-0.643066	-0.167480	1.829590	50.959999	-212.240005	79.660004	39.00	0.00	0.00
1.43	0.00	0.25	0.00	1.50	1.25	6.50	2.50	7.25	9.75	11.75	17.75	15.25	11.00	14.75	4.25	7.50	-0.289551	0.105469	1.001953	64.959999	62.299999	-11.060000	1155.00	0.19	-0.10	0.00	0.00	0.00	0.00	0.25	0.00	2.25	0.00	0.00	0.00	0.00	0.00	0.00	0.00	0.00	0.00	-0.695312	-0.171387	1.620117	45.360001	-225.330002	74.830002	37.00	0.00	0.00
1.44	0.00	0.00	0.25	1.50	1.00	6.25	2.25	7.00	10.25	12.00	18.50	16.00	11.50	16.00	5.00	8.00	-0.298340	0.062012	1.122070	61.529999	84.489998	-10.150000	1193.00	0.20	-0.10	0.00	0.00	0.00	0.00	0.25	0.00	2.25	0.00	0.00	0.00	0.00	0.00	0.00	0.00	0.00	0.00	-0.771484	-0.146973	1.414551	38.920002	-229.040009	67.550003	37.00	0.00	0.00
1.45	0.00	0.00	0.00	1.50	0.75	6.25	2.25	6.75	10.25	12.25	19.00	16.75	11.50	17.25	5.25	8.25	-0.303223	0.123047	0.981445	56.279999	107.379997	-9.240000	1214.00	0.20	-0.10	0.00	0.00	0.00	0.25	0.00	0.00	2.25	0.00	0.00	0.25	0.00	0.00	0.00	0.00	0.00	0.00	-0.852051	-0.084473	1.266113	32.970001	-223.300003	57.470001	39.00	0.00	0.00
1.46	0.00	0.00	0.50	1.25	0.75	6.00	2.00	6.25	10.25	12.50	19.50	17.00	11.50	18.50	5.75	8.75	-0.346191	0.137695	1.006836	57.540001	126.349998	-9.310000	1232.00	0.21	-0.10	0.00	0.00	0.00	0.00	0.00	0.00	2.25	0.00	0.00	0.00	0.00	0.00	0.00	0.00	0.00	0.00	-0.917480	0.016602	1.183594	29.400000	-212.309998	45.639999	34.00	0.00	0.00
1.47	0.00	0.00	0.00	1.00	0.25	5.75	2.00	6.00	10.50	12.75	20.00	17.50	11.50	19.75	6.25	9.00	-0.358398	0.134277	1.018066	54.740002	147.490005	-9.520000	1245.00	0.22	-0.09	0.25	0.00	0.00	0.00	0.00	0.00	2.25	0.00	0.00	0.00	0.00	0.00	0.00	0.00	0.00	0.00	-0.967773	0.103516	1.127441	32.619999	-199.919998	34.020000	37.00	0.00	0.00
1.48	0.00	0.00	0.00	0.75	0.25	5.50	1.75	5.75	10.50	13.00	20.25	17.75	11.25	21.00	6.50	9.50	-0.376465	0.132812	1.051758	45.009998	167.789993	-9.450000	1254.00	0.22	-0.09	0.00	0.00	0.00	0.00	0.25	0.00	2.25	0.00	0.00	0.00	0.00	0.00	0.00	0.25	0.00	0.00	-1.053711	0.120117	0.953125	50.119999	-177.940002	17.710001	39.00	0.00	0.00
1.49	0.00	0.00	0.00	1.00	0.00	5.25	2.00	5.25	10.50	13.00	20.50	17.75	10.50	21.75	6.75	9.75	-0.411133	0.161621	1.027344	34.650002	184.309998	-8.820000	1254.00	0.23	-0.09	0.00	0.00	0.25	0.00	0.00	0.00	2.25	0.00	0.00	0.00	0.00	0.00	0.00	0.00	0.00	0.00	-1.125977	0.050781	0.789551	55.930000	-165.759995	14.420000	37.00	0.00	0.00
1.50	0.00	0.00	0.00	0.75	0.25	4.75	1.75	4.75	10.50	13.00	20.50	18.00	10.25	23.00	7.00	10.25	-0.445801	0.178223	0.989258	34.439999	203.279999	-9.240000	1253.00	0.23	-0.08	0.25	0.00	0.00	0.00	0.00	0.25	2.25	0.00	0.00	0.00	0.00	0.00	0.00	0.00	0.00	0.00	-1.242676	-0.027832	0.573730	55.230000	-148.050003	14.420000	39.00	0.00	0.00
1.51	0.00	0.00	0.00	0.50	0.00	4.25	1.75	4.00	10.50	13.25	20.50	17.75	9.75	24.00	7.50	10.50	-0.484863	0.165039	1.052734	35.349998	222.809998	-9.730000	1242.00	0.24	-0.07	0.00	0.00	0.25	0.00	0.00	0.00	2.25	0.00	0.00	0.00	0.00	0.00	0.00	0.00	0.00	0.00	-1.402344	-0.106934	0.415527	50.330002	-123.760002	17.010000	37.00	0.00	0.00
1.52	0.00	0.00	0.00	0.50	0.00	3.25	1.50	3.50	10.25	13.25	20.50	17.75	9.00	24.75	7.75	10.75	-0.517578	0.182129	1.021484	34.860001	240.869995	-10.920000	1220.00	0.25	-0.07	0.25	0.00	0.00	0.00	0.25	0.00	2.25	0.00	0.00	0.00	0.00	0.00	0.00	0.00	0.00	0.00	-1.626465	-0.177734	0.301270	42.070000	-96.599998	20.440001	39.00	0.00	0.00
1.53	0.00	0.00	0.00	0.50	0.00	3.00	1.50	2.75	10.25	13.25	20.25	17.50	8.50	25.00	7.50	11.00	-0.566406	0.200684	1.036621	33.529999	257.110016	-12.250000	1197.00	0.25	-0.06	0.00	0.00	0.00	0.00	0.00	0.00	2.25	0.00	0.00	0.00	0.00	0.00	0.00	0.00	0.00	0.00	-1.875977	-0.218262	0.155273	31.080000	-68.879997	21.700001	34.00	0.00	0.00
1.54	0.00	0.00	0.00	0.25	0.00	2.25	1.50	2.25	10.00	13.50	20.25	17.00	8.00	25.50	7.75	10.75	-0.589844	0.192383	0.995605	30.660000	273.700012	-14.700000	1174.00	0.26	-0.06	0.00	0.00	0.00	0.00	0.00	0.00	2.25	0.00	0.00	0.00	0.00	0.00	0.00	0.00	0.00	0.00	-2.049805	-0.231934	0.028809	23.100000	-38.920002	19.320000	34.00	0.00	0.00
1.55	0.00	0.00	0.00	0.00	0.00	1.75	1.75	2.00	9.75	13.25	20.00	16.75	7.50	25.25	7.75	10.50	-0.620117	0.155273	0.956055	27.580000	293.649994	-17.710001	1147.00	0.26	-0.05	0.00	0.00	0.00	0.00	0.25	0.00	2.25	0.00	0.00	0.00	0.00	0.00	0.00	0.00	0.00	0.00	-2.099609	-0.249512	-0.019043	16.100000	-4.340000	14.210000	37.00	0.00	0.00
1.56	0.00	0.00	0.00	0.00	0.00	1.25	1.50	1.50	9.75	13.25	19.75	16.50	6.75	25.00	7.50	10.25	-0.689941	0.143066	1.036621	19.460001	344.119995	-13.650000	1112.00	0.27	-0.05	0.25	0.00	0.00	0.00	0.25	0.00	2.25	0.00	0.00	0.00	0.00	0.00	0.00	0.00	0.00	0.00	-2.071777	-0.228516	0.072266	3.080000	33.670002	7.770000	39.00	0.00	0.00
1.57	0.00	0.00	0.00	0.00	0.00	0.50	1.75	0.75	9.50	13.25	19.25	16.00	6.25	24.25	7.00	9.75	-0.818848	0.209473	1.135742	18.900000	371.209991	-12.320000	1064.00	0.27	-0.04	0.00	0.00	0.00	0.00	0.25	0.00	2.25	0.00	0.00	0.00	0.00	0.00	0.00	0.00	0.00	0.00	-1.977051	-0.141113	0.280762	-13.300000	68.389999	1.960000	37.00	0.00	0.00
1.58	0.00	0.00	0.00	0.00	0.00	0.25	2.00	0.75	8.75	12.75	18.50	15.25	5.50	23.50	6.50	9.25	-1.021484	0.241211	1.383789	22.680000	395.920013	-8.470000	1013.00	0.27	-0.04	0.25	0.00	0.00	0.00	0.25	0.00	2.25	0.00	0.00	0.00	0.00	0.00	0.00	0.00	0.00	0.00	-1.867676	-0.065430	0.505859	-23.379999	94.709999	-3.920000	39.00	0.00	0.00
1.59	0.00	0.00	0.00	0.00	0.00	0.00	2.00	0.50	8.00	12.00	17.25	14.25	5.25	22.50	6.00	8.25	-1.161621	0.209961	1.405762	43.400002	416.709991	1.260000	944.00	0.28	-0.03	0.00	0.00	0.25	0.00	0.00	0.00	2.25	0.00	0.00	0.00	0.00	0.00	0.00	0.00	0.00	0.00	-1.743164	-0.054199	0.714355	-25.690001	112.770004	-11.340000	37.00	0.00	0.00
1.60	0.00	0.00	0.00	0.00	0.00	0.00	2.00	0.00	7.50	10.75	15.25	12.25	4.25	21.00	5.00	7.25	-1.237793	0.182129	1.535156	58.029999	442.190002	6.440000	837.00	0.28	-0.02	1.00	1.00	0.25	0.50	0.25	0.00	2.25	0.00	0.00	0.00	0.00	0.00	0.00	0.00	0.00	0.00	3.929199	0.291992	1.145996	-23.100000	121.660004	-21.139999	65.00	-0.12	0.11
1.61	0.00	0.00	0.00	0.00	0.00	0.00	2.00	0.00	6.00	9.50	13.00	10.50	3.25	19.50	3.50	6.25	-1.575195	0.198242	2.273926	71.680000	460.880005	10.080000	720.00	0.28	-0.01	2.25	3.25	1.00	1.00	0.25	0.00	2.25	0.00	0.00	0.00	0.00	0.00	0.00	0.00	0.00	0.00	5.769043	0.066406	2.703125	-35.700001	134.680008	-21.559999	112.00	-0.23	0.04
1.62	0.00	0.00	0.00	0.00	0.00	0.00	2.00	0.00	5.00	8.50	11.25	9.00	2.00	17.00	2.00	5.25	-1.664062	0.472168	2.008301	79.309998	468.230011	11.200000	609.00	0.28	-0.01	3.75	5.25	1.50	1.50	0.50	0.00	2.00	0.00	0.00	0.00	0.00	0.00	0.00	0.00	0.00	0.00	0.166016	-0.156250	-0.176270	-68.739998	73.360001	-30.730000	156.00	-0.28	0.01
1.63	0.00	0.00	0.00	0.00	0.00	0.00	1.75	0.00	3.50	7.75	9.75	7.75	1.25	14.00	1.50	4.75	-1.663086	0.388184	2.093262	86.169998	464.309998	7.910000	509.00	0.28	-0.01	6.50	7.75	2.00	3.25	0.50	0.00	2.25	0.00	0.00	0.00	0.00	0.00	0.00	0.00	0.00	0.00	-0.329590	0.038574	0.167969	-147.979996	203.630005	-59.220001	236.00	-0.30	-0.01
1.64	0.00	0.00	0.00	0.00	0.00	0.00	1.75	0.00	2.75	7.00	8.50	6.25	1.25	10.50	1.00	4.00	-1.489258	0.324219	2.359863	84.489998	458.360016	3.010000	423.00	0.27	-0.01	9.25	9.75	3.00	4.50	0.75	0.00	2.00	0.00	0.00	0.00	0.00	0.00	0.00	0.00	0.00	0.00	-0.233398	0.992676	2.919922	-93.239998	225.330002	-23.100000	307.00	-0.32	-0.02
1.65	0.00	0.00	0.00	0.00	0.00	0.00	1.75	0.00	1.75	6.25	7.75	5.50	0.75	7.50	1.00	3.50	-1.282227	0.498047	2.238281	80.919998	450.309998	-10.290000	354.00	0.26	-0.02	12.25	12.25	3.75	5.50	0.75	0.00	2.00	0.00	0.00	0.00	0.00	0.00	0.00	0.00	0.00	0.00	-0.459961	-0.425293	1.853516	-63.070000	161.070007	6.230000	380.00	-0.33	-0.02
1.66	0.00	0.00	0.00	0.00	0.00	0.00	1.75	0.00	1.25	5.75	7.25	5.00	0.75	5.00	0.50	3.25	-0.406250	0.854980	1.868164	91.489998	446.880005	-22.610001	304.00	0.25	-0.04	14.75	14.25	4.75	6.25	1.00	0.00	2.00	0.00	0.00	0.00	0.00	0.00	0.00	0.25	0.00	0.00	0.043457	-0.267090	1.348145	-42.070000	153.930008	-0.560000	449.00	-0.33	-0.02
1.67	0.00	0.00	0.00	0.00	0.00	0.00	2.00	0.00	0.75	5.50	6.75	4.25	0.75	2.25	0.25	3.00	-0.286133	1.078613	1.701172	145.880005	430.989990	-24.150000	258.00	0.23	-0.05	17.00	15.75	6.00	7.50	1.25	0.50	2.00	0.00	0.00	0.00	0.00	0.00	0.00	0.25	0.00	0.00	-0.136230	-0.218750	1.754395	-11.480000	150.360001	-13.020000	522.00	-0.33	-0.02
1.68	0.00	0.00	0.00	0.00	0.00	0.00	2.25	0.00	1.25	5.00	6.25	3.50	0.25	1.25	0.25	3.00	-0.105469	0.572754	2.086426	225.119995	404.739990	-42.630001	237.00	0.23	-0.03	18.25	17.25	7.00	8.75	1.25	0.75	2.25	0.00	0.00	0.00	0.00	0.00	0.00	0.25	0.00	0.00	-0.050781	0.286621	1.265625	19.110001	128.100006	-9.870000	580.00	-0.33	-0.02
1.69	0.00	0.00	0.00	0.00	0.00	0.00	2.00	0.00	0.75	4.75	5.75	3.25	0.25	0.50	0.00	3.00	-0.979980	0.276855	2.196777	275.869995	348.739990	-84.489998	207.00	0.22	-0.04	19.50	18.25	8.25	9.75	1.50	1.25	2.25	0.00	0.00	0.00	0.00	0.00	0.25	0.25	0.00	0.00	-0.054688	0.212402	1.245117	16.100000	121.379997	-3.290000	637.00	-0.32	-0.03
1.70	0.00	0.00	0.00	0.00	0.00	0.00	2.00	0.00	0.00	4.75	5.75	3.25	0.25	0.25	0.00	2.75	0.176758	0.263672	4.617188	204.820007	197.680008	-99.470001	194.00	0.22	-0.06	20.75	19.25	8.50	10.50	2.00	1.75	2.25	0.00	0.00	0.00	0.00	0.00	0.25	0.50	0.00	0.00	-0.123535	0.098145	1.375977	11.340000	114.940002	-1.960000	683.00	-0.32	-0.03
1.71	0.00	0.00	0.00	0.00	0.00	0.00	2.25	0.00	0.50	4.75	5.50	3.00	0.00	0.25	0.00	2.75	0.701660	-0.009766	3.216309	90.300003	3.500000	-84.980003	196.00	0.21	-0.04	21.50	19.75	9.25	11.25	2.25	2.75	2.25	0.25	0.00	0.00	0.00	0.00	0.00	0.25	0.00	0.00	-0.155762	0.125000	1.429688	9.450000	100.590004	-3.710000	726.00	-0.32	-0.03
1.72	0.00	0.00	0.00	0.00	0.00	0.00	2.25	0.00	0.50	4.50	5.50	3.00	0.00	0.00	0.00	2.75	-0.049805	0.204102	2.774902	-25.900000	-148.539993	-59.920002	192.00	0.21	-0.04	22.00	20.25	9.50	11.75	2.50	3.50	2.25	0.25	0.00	0.00	0.00	0.00	0.00	0.25	0.00	0.00	-0.142578	0.240234	1.399414	6.230000	83.930000	-3.430000	755.00	-0.32	-0.04
1.73	0.00	0.00	0.00	0.00	0.00	0.00	2.25	0.00	0.25	4.25	5.00	2.50	0.00	0.00	0.00	2.75	-0.034668	0.411621	2.012207	-89.250000	-233.169998	-39.060001	175.00	0.21	-0.04	21.75	20.75	10.00	12.50	2.75	4.25	2.25	0.50	0.00	0.00	0.00	0.00	0.00	0.25	0.00	0.00	-0.135742	0.189453	1.328125	0.910000	66.639999	-0.210000	785.00	-0.31	-0.04
1.74	0.00	0.00	0.00	0.00	0.00	0.00	2.25	0.00	0.50	4.50	5.25	2.75	0.00	0.00	0.00	2.75	-0.096191	0.455566	1.624023	-99.120003	-279.649994	-27.580000	186.00	0.21	-0.04	22.00	20.75	10.25	12.75	3.00	5.00	2.25	0.50	0.00	0.00	0.00	0.00	0.00	0.25	0.00	0.00	-0.107422	0.089844	1.246094	-1.960000	50.889999	1.050000	804.00	-0.31	-0.04
1.75	0.00	0.00	0.00	0.00	0.00	0.00	2.25	0.00	0.25	4.00	5.00	2.50	0.00	0.00	0.00	2.75	-0.110840	0.412109	1.226562	-76.790001	-305.269989	-25.410000	173.00	0.21	-0.04	21.75	20.50	10.50	13.25	3.75	5.25	2.25	0.75	0.00	0.00	0.00	0.00	0.25	0.25	0.00	0.00	-0.098633	0.114746	1.193848	-2.100000	38.500000	-0.490000	824.00	-0.31	-0.05
1.76	0.00	0.00	0.00	0.00	0.00	0.00	2.25	0.00	0.00	4.00	5.50	2.25	0.00	0.00	0.00	2.75	-0.105957	0.276855	0.940430	-42.490002	-316.049988	-30.660000	172.00	0.21	-0.04	21.75	21.00	10.50	13.00	4.00	6.00	2.25	1.00	0.00	0.00	0.00	0.00	0.25	0.00	0.00	0.00	-0.088867	0.151367	1.119141	-1.890000	28.139999	-0.210000	839.00	-0.31	-0.05
1.77	0.00	0.00	0.00	0.00	0.00	0.00	2.25	0.00	0.00	3.75	5.00	2.50	0.00	0.00	0.00	2.75	-0.128906	0.005859	0.842285	-8.960000	-318.290009	-53.830002	167.00	0.21	-0.05	22.00	20.75	10.75	13.50	4.25	6.00	2.25	0.75	0.00	0.00	0.00	0.00	0.50	0.25	0.00	0.00	-0.066895	0.111816	1.108398	-1.960000	20.160000	0.350000	851.00	-0.30	-0.05
1.78	0.00	0.00	0.00	0.00	0.00	0.00	2.25	0.00	0.00	3.75	5.00	2.50	0.00	0.00	0.00	2.75	-0.136230	-0.018555	0.940918	-15.890000	-321.860016	-63.420002	167.00	0.21	-0.05	22.50	21.00	11.00	13.50	4.25	6.25	2.25	1.00	0.00	0.00	0.00	0.00	0.25	0.25	0.00	0.00	-0.059082	0.103516	1.045410	-1.050000	13.580000	-0.350000	865.00	-0.30	-0.05
1.79	0.00	0.00	0.00	0.00	0.00	0.00	2.25	0.00	0.00	3.25	4.75	2.50	0.00	0.00	0.00	2.50	-0.116211	0.040039	1.085938	-30.870001	-330.260010	-67.760002	158.00	0.21	-0.05	22.25	20.50	10.75	13.50	4.25	7.00	2.50	1.00	0.00	0.00	0.00	0.00	0.25	0.25	0.00	0.00	-0.044434	0.107910	1.011230	0.560000	10.640000	-0.980000	867.00	-0.30	-0.05
1.80	0.00	0.00	0.00	0.00	0.00	0.00	2.25	0.00	0.00	3.50	5.00	2.50	0.00	0.00	0.00	2.50	-0.112793	0.124023	1.248535	-45.920002	-345.869995	-66.290001	163.00	0.21	-0.05	22.00	20.50	10.75	13.75	4.50	6.75	2.25	1.00	0.00	0.00	0.00	0.00	0.25	0.25	0.00	0.00	-0.035645	0.112305	1.069824	1.890000	9.660000	-2.030000	864.00	-0.30	-0.05
1.81	0.00	0.00	0.00	0.25	0.00	0.00	2.25	0.00	0.00	3.50	4.75	2.25	0.00	0.00	0.00	2.50	-0.154297	0.213379	1.377441	-56.279999	-368.059998	-60.549999	160.00	0.20	-0.04	21.75	20.25	10.75	13.50	4.50	6.75	2.25	1.00	0.00	0.00	0.00	0.00	0.50	0.25	0.00	0.00	-0.056152	0.106445	1.009277	3.570000	7.700000	-2.590000	858.00	-0.30	-0.05
1.82	0.00	0.00	0.00	0.00	0.00	0.00	2.25	0.00	0.00	3.50	4.50	2.50	0.00	0.00	0.00	2.50	-0.216797	0.261719	1.372559	-59.500000	-391.860016	-52.639999	158.00	0.21	-0.04	21.25	20.25	10.50	13.50	4.25	7.00	2.25	1.25	0.00	0.00	0.00	0.00	0.75	0.25	0.00	0.00	-0.057129	0.127441	0.985840	4.900000	8.260000	-3.010000	856.00	-0.30	-0.06
1.83	0.00	0.00	0.00	0.00	0.00	0.00	2.25	0.00	0.00	3.25	4.50	2.25	0.00	0.00	0.00	2.50	-0.290039	0.305664	1.243164	-55.090000	-409.709991	-44.240002	152.00	0.21	-0.04	21.00	20.00	10.50	13.50	4.25	7.00	2.50	1.00	0.00	0.00	0.00	0.00	0.00	0.25	0.00	0.00	-0.032715	0.148438	0.977539	4.970000	9.800000	-2.940000	845.00	-0.30	-0.05
1.84	0.00	0.00	0.00	0.00	0.00	0.00	2.25	0.00	0.00	3.25	4.25	2.25	0.00	0.00	0.00	2.50	-0.377441	0.320801	1.149902	-44.799999	-418.110016	-36.330002	150.00	0.21	-0.04	20.25	19.50	10.25	13.25	4.25	7.00	2.25	1.00	0.00	0.00	0.00	0.00	0.50	0.25	0.00	0.00	-0.059082	0.131836	1.008301	5.600000	9.800000	-2.590000	827.00	-0.30	-0.06
1.85	0.00	0.00	0.00	0.00	0.00	0.00	2.25	0.00	0.00	3.00	4.50	2.25	0.00	0.00	0.00	2.50	-0.479980	0.322754	1.033691	-29.190001	-417.549988	-30.030001	150.00	0.21	-0.04	20.00	19.00	10.25	13.25	4.00	7.00	2.50	1.25	0.00	0.00	0.00	0.00	0.25	0.00	0.00	0.00	-0.098633	0.106445	0.974121	5.670000	8.610000	-2.100000	821.00	-0.30	-0.06
1.86	0.00	0.00	0.00	0.00	0.00	0.00	2.25	0.00	0.00	3.00	4.50	2.25	0.00	0.00	0.00	2.50	-0.588867	0.323730	0.981934	-7.770000	-409.570007	-25.969999	150.00	0.21	-0.04	19.50	18.75	10.00	13.00	4.00	7.25	2.25	1.25	0.00	0.00	0.00	0.00	0.25	0.25	0.00	0.00	-0.032227	0.161133	0.967285	3.920000	8.400000	-1.680000	809.00	-0.29	-0.06
1.87	0.00	0.00	0.00	0.00	0.00	0.00	2.25	0.00	0.00	3.25	4.25	2.25	0.00	0.00	0.00	2.50	-0.679199	0.258789	0.931152	16.170000	-396.339996	-23.309999	150.00	0.21	-0.04	19.25	18.50	10.00	12.75	3.75	7.25	2.50	1.25	0.00	0.00	0.00	0.00	0.50	0.00	0.00	0.00	-0.024414	0.157227	0.944824	0.910000	10.850000	-1.750000	802.00	-0.29	-0.06
1.88	0.00	0.25	0.00	0.00	0.00	0.00	2.00	0.00	0.00	3.25	4.50	2.50	0.00	0.00	0.00	2.25	-0.769531	0.206055	0.950684	37.869999	-376.040009	-21.910000	152.00	0.20	-0.05	19.00	18.50	9.75	12.50	4.00	7.25	2.25	1.00	0.00	0.00	0.00	0.00	0.25	0.00	0.00	0.00	-0.043457	0.148926	0.916016	-6.580000	16.520000	-2.030000	787.00	-0.30	-0.06
1.89	0.00	0.00	0.00	0.00	0.00	0.00	2.25	0.00	0.00	3.25	4.25	2.25	0.00	0.00	0.00	2.50	-0.823242	0.171875	1.143555	53.480000	-355.950012	-22.190001	150.00	0.21	-0.04	18.50	17.75	9.75	12.50	4.25	7.25	2.25	1.25	0.00	0.00	0.00	0.00	0.50	0.25	0.00	0.00	-0.043457	0.141113	0.898926	-10.710000	21.840000	-2.590000	786.00	-0.29	-0.06
1.90	0.00	0.00	0.25	0.00	0.00	0.00	2.25	0.00	0.00	3.00	4.25	2.25	0.00	0.00	0.00	2.50	-0.841309	0.169922	1.337402	63.070000	-344.119995	-21.700001	150.00	0.20	-0.04	17.50	17.25	9.50	12.50	4.50	7.25	2.25	1.50	0.00	0.00	0.00	0.00	0.25	0.00	0.00	0.00	-0.045898	0.147461	0.920410	-14.980000	27.580000	-3.500000	770.00	-0.29	-0.06
1.91	0.00	0.00	0.00	0.00	0.00	0.00	2.00	0.00	0.00	2.75	4.25	2.00	0.00	0.00	0.00	2.25	-0.868652	0.158691	1.325195	68.529999	-336.279999	-19.320000	137.00	0.21	-0.04	17.25	17.00	9.75	12.25	4.75	7.50	2.50	1.50	0.00	0.00	0.00	0.00	0.50	0.25	0.00	0.00	-0.049316	0.149902	0.903320	-19.670000	33.250000	-3.850000	779.00	-0.28	-0.06
1.92	0.00	0.00	0.00	0.00	0.00	0.00	2.00	0.00	0.00	3.00	4.25	2.25	0.00	0.00	0.00	2.50	-0.873535	0.186523	1.351562	72.800003	-322.700012	-15.680000	143.00	0.21	-0.05	17.00	16.25	9.50	12.00	5.00	7.50	2.25	1.50	0.00	0.00	0.00	0.00	0.50	0.25	0.00	0.00	-0.062500	0.124023	0.939453	-24.219999	39.549999	-4.200000	763.00	-0.28	-0.06
1.93	0.00	0.00	0.00	0.00	0.00	0.00	2.25	0.00	0.00	2.75	4.25	2.25	0.00	0.00	0.00	2.50	-0.878906	0.233887	1.560547	81.059998	-306.320007	-11.550000	145.00	0.20	-0.04	16.25	15.75	9.50	11.75	5.25	7.50	2.50	1.75	0.00	0.00	0.00	0.00	0.75	0.25	0.00	0.00	-0.116211	0.125488	1.078125	-29.190001	40.810001	-4.480000	760.00	-0.27	-0.06
1.94	0.00	0.00	0.00	0.00	0.00	0.00	2.25	0.00	0.00	3.00	3.75	2.25	0.00	0.00	0.00	2.50	-0.856445	0.299316	2.016602	95.410004	-301.279999	-5.250000	142.00	0.20	-0.04	15.75	15.25	9.25	11.75	6.00	8.00	2.50	1.75	0.00	0.00	0.00	0.00	0.75	0.25	0.00	0.00	-0.110352	0.112793	1.004395	-28.980000	37.799999	-3.570000	762.00	-0.27	-0.06
1.95	0.00	0.00	0.00	0.00	0.00	0.00	2.25	0.00	0.00	3.00	4.00	2.00	0.00	0.00	0.00	2.50	-0.875977	0.288086	2.264160	105.209999	-313.320007	4.060000	142.00	0.20	-0.04	14.75	14.75	9.25	11.50	6.00	8.00	2.50	2.00	0.00	0.00	0.00	0.00	0.75	0.00	0.00	0.00	-0.100098	0.095215	0.968262	-27.860001	37.240002	-3.220000	746.00	-0.27	-0.07
1.96	0.00	0.00	0.00	0.00	0.00	0.00	2.00	0.00	0.00	2.75	4.00	2.25	0.00	0.00	0.00	2.50	-0.945312	0.353027	2.333008	103.389999	-325.779999	15.260000	138.00	0.21	-0.05	14.50	14.00	9.00	11.25	6.50	8.00	2.50	2.75	0.00	0.00	0.00	0.25	1.25	0.25	0.00	0.00	-0.104980	0.110840	0.958496	-28.490000	38.220001	-2.940000	756.00	-0.25	-0.07
1.97	0.00	0.00	0.00	0.00	0.00	0.00	2.25	0.00	0.00	2.50	4.25	2.00	0.00	0.00	0.00	2.50	-1.017578	0.523438	2.486816	97.300003	-331.380005	30.590000	139.00	0.20	-0.04	13.75	13.75	9.00	11.25	6.75	8.25	2.50	2.75	0.00	0.00	0.00	0.25	1.00	0.25	0.00	0.00	-0.119629	0.110840	1.000488	-32.689999	38.709999	-2.100000	750.00	-0.25	-0.07
1.98	0.00	0.00	0.00	0.00	0.00	0.00	2.00	0.00	0.00	2.75	4.00	2.00	0.00	0.00	0.00	2.50	-1.344727	0.655273	2.548828	85.959999	-344.260010	94.639999	136.00	0.21	-0.05	13.00	13.00	9.00	11.00	7.50	8.25	2.75	3.25	0.00	0.25	0.00	0.50	1.25	0.50	0.00	0.25	-0.122070	0.085449	0.951660	-36.049999	39.410000	-1.540000	763.00	-0.24	-0.08
1.99	0.00	0.00	0.00	0.00	0.00	0.00	2.00	0.00	0.00	2.75	3.75	2.00	0.00	0.00	0.00	2.50	-1.639648	0.558594	2.534668	77.769997	-345.519989	133.419998	133.00	0.21	-0.04	12.25	12.25	8.75	10.75	7.75	8.50	2.75	3.75	0.00	0.25	0.25	0.75	1.75	0.25	0.00	0.25	-0.133301	0.086914	1.114258	-42.840000	38.500000	-1.400000	763.00	-0.23	-0.08
2.00	0.00	0.00	0.00	0.00	0.00	0.00	2.00	0.00	0.00	3.00	3.75	2.25	0.00	0.00	0.00	2.50	-1.991211	0.429688	2.538086	64.330002	-344.820007	163.729996	138.00	0.21	-0.05	11.50	11.25	8.50	10.50	8.00	8.75	2.75	5.00	0.00	0.25	0.50	0.75	2.00	1.00	0.25	0.50	-0.148438	0.070312	1.094727	-46.340000	27.230000	-1.540000	780.00	-0.21	-0.09
2.01	0.00	0.00	0.00	0.00	0.00	0.00	2.00	0.00	0.00	2.75	4.00	2.00	0.00	0.00	0.00	2.25	-2.369629	0.337402	2.296875	39.270000	-344.679993	180.250000	134.00	0.21	-0.04	10.25	10.25	8.50	10.25	8.50	8.75	3.00	5.50	0.25	0.50	0.75	1.00	2.75	0.75	0.25	0.75	-0.161133	0.059570	0.997070	-28.350000	10.150000	-2.310000	789.00	-0.19	-0.10
2.02	0.00	0.00	0.00	0.00	0.00	0.00	2.00	0.00	0.00	2.75	3.75	2.00	0.00	0.00	0.00	2.25	-2.770508	0.334473	1.655273	9.800000	-336.000000	179.899994	132.00	0.21	-0.04	9.50	9.25	8.25	9.75	8.75	9.00	3.00	6.25	0.25	1.00	1.25	1.50	3.50	1.25	0.25	1.00	-0.134277	0.086914	0.975586	-14.700000	5.040000	-2.660000	809.00	-0.16	-0.11
2.03	0.00	0.00	0.00	0.00	0.00	0.00	2.25	0.00	0.00	2.75	3.75	2.00	0.00	0.00	0.00	2.50	-3.146973	0.351074	0.852539	-0.700000	-308.839996	164.639999	137.00	0.20	-0.04	8.00	8.25	8.00	9.25	9.25	8.75	3.25	6.50	0.50	1.25	1.75	1.75	4.50	1.75	0.25	1.25	-0.201660	0.035645	0.996582	-5.740000	3.570000	-2.940000	814.00	-0.14	-0.11
2.04	0.00	0.00	0.00	0.00	0.00	0.00	2.00	0.00	0.00	2.75	3.75	2.00	0.00	0.00	0.00	2.50	-3.475098	0.206055	0.148438	21.910000	-262.709991	137.619995	133.00	0.21	-0.04	6.75	7.25	7.25	8.50	9.25	9.00	3.25	7.00	0.75	1.50	2.50	2.25	5.25	1.75	0.50	1.50	-0.136230	0.064453	0.970215	-0.280000	5.110000	-3.290000	815.00	-0.11	-0.12
2.05	0.00	0.00	0.00	0.00	0.00	0.00	2.00	0.00	0.00	2.75	3.75	2.00	0.00	0.00	0.00	2.25	-3.841797	-0.107422	-0.291504	77.769997	-207.339996	100.449997	132.00	0.21	-0.04	5.50	6.00	6.50	8.00	9.00	9.00	3.25	7.50	1.25	2.00	3.00	3.25	6.75	2.75	0.75	1.75	-0.179688	0.084961	0.975098	3.570000	7.490000	-3.710000	835.00	-0.08	-0.12
2.06	0.00	0.00	0.00	0.00	0.00	0.00	2.00	0.00	0.00	2.50	3.75	2.00	0.00	0.00	0.00	2.25	-4.498047	-0.685547	-0.413086	151.759995	-152.250000	57.959999	129.00	0.20	-0.04	4.50	5.00	5.75	7.25	9.00	9.25	3.50	7.75	1.25	3.00	3.75	4.50	7.50	3.25	0.75	2.00	-0.156738	0.103516	0.960449	7.210000	10.920000	-4.340000	853.00	-0.05	-0.13
2.07	0.00	0.00	0.00	0.00	0.00	0.00	2.00	0.00	0.00	3.00	3.75	2.25	0.00	0.00	0.00	2.25	-4.747559	-1.446777	-0.667480	168.139999	-92.680000	20.440001	137.00	0.21	-0.04	3.25	4.25	5.00	6.00	8.75	8.75	3.50	8.00	2.00	3.25	5.50	5.75	8.25	4.00	1.00	2.50	-0.114258	0.057129	0.943359	9.730000	15.540000	-5.460000	868.00	-0.01	-0.13
2.08	0.00	0.00	0.00	0.00	0.00	0.00	2.00	0.00	0.00	3.00	3.75	2.00	0.00	0.00	0.00	2.50	-4.374023	-1.629395	-0.768066	80.080002	-17.010000	-10.850000	136.00	0.21	-0.04	2.75	2.75	3.50	5.25	8.25	8.75	3.50	8.25	2.50	4.25	7.50	7.75	8.75	4.75	1.50	3.00	-0.175293	0.071289	0.992188	12.740000	25.969999	-9.310000	901.00	0.03	-0.14
2.09	0.00	0.00	0.00	0.00	0.00	0.00	2.00	0.00	0.00	3.00	4.00	2.25	0.00	0.00	0.00	2.50	-3.782227	-1.015137	-0.349609	-37.380001	61.740002	-37.660000	141.00	0.21	-0.05	2.00	2.50	2.75	5.00	7.75	8.50	3.25	8.50	3.75	5.75	8.25	8.25	9.75	6.25	1.50	3.50	-0.188477	0.104492	0.911621	12.320000	31.219999	-10.150000	940.00	0.05	-0.13
2.10	0.00	0.00	0.00	0.00	0.00	0.00	2.00	0.00	0.00	2.75	3.75	2.00	0.00	0.00	0.00	2.50	-3.219727	-0.283203	0.259766	-100.800003	116.900002	-59.570000	133.00	0.21	-0.04	1.75	2.00	2.25	4.00	7.00	8.00	3.25	8.50	3.75	7.50	9.50	9.25	10.00	7.50	2.00	4.75	-0.164062	0.137695	1.016113	12.110000	36.680000	-11.130000	970.00	0.08	-0.13
2.11	0.00	0.00	0.00	0.00	0.00	0.00	2.00	0.00	0.00	2.75	3.75	1.75	0.00	0.00	0.00	2.50	-2.680176	0.194336	0.637695	-108.989998	142.589996	-78.120003	130.00	0.21	-0.04	1.75	1.00	1.75	3.25	6.00	7.50	3.25	8.25	5.00	8.50	10.50	10.25	10.75	8.75	2.25	5.50	-0.192383	0.076172	1.018555	13.020000	43.330002	-11.340000	998.00	0.11	-0.12
2.12	0.00	0.00	0.00	0.00	0.00	0.00	2.00	0.00	0.00	2.75	3.75	1.75	0.00	0.00	0.00	2.25	-2.234375	0.488770	0.930176	-89.879997	148.190002	-89.949997	129.00	0.20	-0.04	0.75	1.00	1.00	2.75	5.00	7.00	3.00	8.25	6.00	9.25	11.25	11.00	11.25	10.25	2.50	6.25	-0.208496	0.086914	1.039062	17.010000	51.240002	-10.500000	1014.00	0.13	-0.12
2.13	0.00	0.00	0.00	0.00	0.00	0.00	2.00	0.00	0.00	2.75	3.75	2.00	0.00	0.00	0.00	2.25	-1.801270	0.732910	1.153320	-60.830002	143.009995	-90.230003	132.00	0.21	-0.04	0.75	0.75	1.00	1.50	3.75	6.25	2.75	8.00	6.75	10.00	12.50	11.75	11.75	11.75	3.25	6.75	-0.161621	0.126953	1.086426	25.129999	63.560001	-9.590000	1035.00	0.16	-0.12
2.14	1.00	0.25	0.25	0.00	0.00	0.00	2.00	0.00	0.00	2.50	3.50	2.00	0.00	0.00	0.00	2.25	3.986328	-0.638672	0.393555	-36.959999	130.270004	-65.870003	142.00	0.14	-0.03	0.75	0.50	1.00	1.25	3.00	6.00	2.50	7.75	7.50	10.50	13.25	12.75	12.25	14.25	3.75	7.25	-0.245605	0.065918	1.216797	36.259998	88.059998	-6.300000	1079.00	0.17	-0.11
2.15	2.75	4.00	1.00	1.50	0.00	0.00	2.00	0.00	0.00	2.50	3.25	2.00	0.00	0.00	0.00	2.25	5.720215	1.318848	1.923828	-145.600006	131.110001	3.780000	217.00	-0.04	-0.05	0.25	0.25	0.50	1.25	2.50	5.00	2.25	7.50	7.75	11.25	14.25	13.00	12.25	16.25	5.00	7.75	-0.237793	0.087402	1.175293	49.840000	117.250000	-2.520000	1099.00	0.19	-0.11
2.16	7.25	9.25	2.25	3.00	0.00	0.00	2.00	0.00	0.00	2.25	3.50	2.00	0.00	0.00	0.00	2.50	0.458496	0.690430	-1.818359	-129.779999	149.800003	67.480003	343.00	-0.16	-0.05	0.00	0.00	0.25	0.75	2.00	5.00	2.25	6.75	8.00	11.25	14.50	13.75	12.25	18.25	5.50	8.50	-0.246094	0.105957	1.157715	45.360001	154.630005	0.630000	1109.00	0.21	-0.10
2.17	11.25	14.25	3.50	5.00	0.00	0.00	1.75	0.00	0.00	2.50	3.75	2.25	0.00	0.00	0.00	2.25	-0.727539	-1.247070	0.947266	-71.540001	319.059998	94.080002	469.00	-0.22	-0.05	0.25	0.00	0.25	0.50	1.75	4.00	2.00	6.25	8.00	11.50	15.00	13.75	12.00	20.25	6.25	8.75	-0.273926	0.114746	1.191895	52.990002	189.699997	-0.140000	1115.00	0.22	-0.09
2.18	15.25	18.75	6.00	7.50	0.25	0.75	1.75	0.00	0.00	2.50	3.75	2.25	0.25	0.00	0.00	2.50	-0.832520	-1.721191	4.325195	-8.750000	348.809998	66.010002	622.00	-0.24	-0.06	0.25	0.00	0.25	0.50	1.25	3.75	1.75	5.50	7.75	11.25	15.00	14.00	11.50	22.25	7.00	9.25	-0.291504	0.161133	1.282227	54.599998	221.199997	-2.520000	1112.00	0.23	-0.09
2.19	17.75	21.75	7.25	9.25	0.50	1.00	2.00	0.00	0.00	2.50	3.75	2.50	0.00	0.00	0.00	2.25	-0.397949	0.621582	1.863770	50.400002	247.660004	-55.650002	717.00	-0.26	-0.05	0.25	0.00	0.50	0.50	1.00	2.75	1.75	5.00	7.50	11.25	15.25	14.00	10.75	24.00	7.25	9.50	-0.380859	0.173828	1.163086	47.250000	249.830002	-4.620000	1105.00	0.24	-0.08
2.20	20.25	21.50	8.50	10.50	0.50	2.25	2.00	0.25	0.00	2.50	3.75	2.50	0.25	0.00	0.00	2.50	-0.602539	1.254883	2.127441	54.459999	226.589996	-33.389999	789.00	-0.26	-0.06	0.25	0.00	0.00	0.00	0.50	2.00	1.50	4.00	7.00	11.00	15.00	13.75	10.00	25.50	7.75	9.75	-0.413574	0.155762	1.283203	46.970001	282.660004	-8.820000	1060.00	0.25	-0.07
2.21	19.25	23.75	9.00	13.00	0.75	4.50	2.25	0.50	0.00	2.25	3.25	2.75	0.50	0.00	0.00	2.50	-0.576172	0.265625	2.031250	4.900000	201.529999	-2.450000	864.00	-0.25	-0.07	0.00	0.00	0.00	0.00	0.75	2.00	1.50	3.50	6.25	10.75	14.50	13.25	9.50	27.00	8.00	10.00	-0.476562	0.239746	1.331055	45.920002	307.299988	-12.180000	1042.00	0.26	-0.07
2.22	19.75	23.75	9.50	14.50	1.25	6.50	2.25	0.75	0.00	2.25	3.75	2.50	0.75	0.00	0.00	2.50	-0.435547	-0.023438	1.773438	-29.610001	154.770004	-3.360000	927.00	-0.25	-0.08	0.00	0.00	0.00	0.00	0.50	0.75	1.50	2.50	5.75	10.00	14.00	12.75	8.50	27.50	8.25	10.00	-0.589844	0.148438	1.304688	44.730000	327.950012	-16.379999	984.00	0.27	-0.06
2.23	19.50	23.50	10.25	14.75	1.75	8.00	2.25	1.25	0.00	2.50	4.25	2.75	0.75	0.25	0.00	2.50	-0.420898	0.251465	1.635254	-36.540001	115.430000	-5.950000	976.00	-0.24	-0.08	0.25	0.00	0.00	0.00	0.25	0.50	1.50	2.00	5.00	9.75	13.25	12.00	7.75	27.75	8.00	9.50	-0.585449	0.131348	1.402832	38.990002	355.320007	-14.840000	936.00	0.28	-0.05
2.24	19.25	23.00	10.75	15.50	2.25	9.00	2.50	1.75	0.00	2.50	4.00	2.50	0.75	0.00	0.00	2.50	-0.302734	0.152344	1.149902	-44.170002	86.800003	-0.070000	1003.00	-0.24	-0.09	0.00	0.00	0.00	0.00	0.00	0.00	1.50	1.25	4.00	9.00	12.00	11.00	6.75	27.00	7.75	9.00	-0.561523	0.278320	1.476074	30.799999	383.529999	-17.500000	848.00	0.29	-0.05
2.25	19.00	24.25	11.00	16.25	2.25	9.50	2.50	2.00	0.00	2.50	4.00	2.75	1.00	0.25	0.00	2.50	-0.252930	0.024414	1.186523	-46.689999	72.870003	1.120000	1039.00	-0.23	-0.09	0.00	0.00	0.00	0.00	0.00	0.00	1.25	1.25	3.00	8.50	11.25	10.00	5.75	25.75	7.25	8.00	-0.753418	0.387207	1.701172	25.480000	413.209991	-26.320000	778.00	0.29	-0.05
2.26	19.50	24.00	11.00	16.50	2.25	10.00	2.50	2.25	0.00	2.50	4.25	3.00	0.75	0.25	0.00	2.50	-0.255371	0.093750	1.121094	-42.070000	55.160000	-0.630000	1057.00	-0.23	-0.09	0.00	0.00	0.00	0.00	0.00	0.00	1.50	0.75	2.50	7.75	9.75	8.75	4.75	24.00	6.00	6.50	-0.805176	0.477539	1.703613	10.920000	451.149994	-40.740002	686.00	0.29	-0.03
2.27	19.25	24.00	11.25	16.50	2.50	10.75	2.50	2.75	0.00	2.75	4.00	3.25	0.75	0.00	0.00	2.50	-0.218262	0.115723	1.023926	-35.139999	43.049999	-0.070000	1076.00	-0.23	-0.10	0.00	0.00	0.00	0.00	0.00	0.00	1.25	0.25	1.25	6.00	8.25	7.50	3.25	21.00	5.00	5.25	-1.060059	0.433594	2.270996	-6.790000	486.989990	-55.020000	555.00	0.30	-0.03
2.28	19.25	23.50	11.00	16.75	2.50	11.00	2.75	2.75	0.00	2.75	4.25	2.75	0.75	0.00	0.00	2.50	-0.197754	0.115234	0.988281	-30.240000	36.470001	0.140000	1075.00	-0.23	-0.09	0.00	0.00	0.00	0.00	0.00	0.00	1.25	0.00	0.75	4.75	5.75	5.25	2.25	17.50	2.75	3.25	-1.252930	0.638672	2.872070	0.770000	523.530029	-68.529999	409.00	0.30	-0.01
2.29	19.25	23.50	11.25	16.75	2.75	11.75	2.75	3.75	0.00	3.00	4.50	2.75	1.25	0.00	0.00	2.50	-0.191895	0.086914	0.989746	-27.370001	32.270000	-0.490000	1113.00	-0.22	-0.10	0.00	0.00	0.00	0.00	0.00	0.00	1.50	0.00	0.50	3.50	3.75	3.50	1.25	13.00	1.75	1.75	-1.122559	0.284180	2.845215	6.090000	526.400024	-77.419998	291.00	0.30	0.01
2.30	18.75	23.00	11.25	16.75	2.75	12.00	2.75	4.25	0.00	3.00	4.25	3.00	1.00	0.00	0.00	2.50	-0.200684	0.092285	1.009766	-24.780001	26.110001	-1.750000	1112.00	-0.22	-0.10	0.00	0.00	0.00	0.00	0.00	0.00	1.50	0.00	0.00	2.25	2.50	2.25	1.00	8.75	0.75	1.25	-0.669434	0.390625	2.756836	1.820000	528.640015	-78.750000	194.00	0.29	0.02
2.31	18.25	22.75	11.00	16.75	2.75	12.25	2.75	5.00	0.00	3.00	5.00	3.00	1.25	0.00	0.00	2.50	-0.190918	0.101074	0.974609	-20.860001	21.490000	-2.660000	1126.00	-0.21	-0.11	0.25	0.00	0.00	0.00	0.00	0.00	1.50	0.00	0.00	2.00	1.75	1.50	0.25	5.25	0.75	0.50	-0.395020	0.404785	2.042480	16.379999	549.010010	-84.840004	138.00	0.26	0.04
2.32	17.50	21.75	10.75	16.25	2.75	12.75	2.75	5.50	0.00	3.25	5.00	3.00	1.50	0.00	0.00	2.75	-0.172852	0.098633	0.965820	-19.320000	20.299999	-3.430000	1120.00	-0.20	-0.11	0.25	0.00	0.00	0.00	0.00	0.25	1.75	0.00	0.00	1.75	1.50	1.00	0.50	2.00	0.50	0.25	0.334473	0.486328	1.674805	64.400002	573.929993	-108.360001	104.00	0.20	0.02
2.33	16.50	20.75	10.75	15.75	2.75	12.75	3.00	5.50	0.00	3.25	4.75	2.75	1.50	0.00	0.00	2.50	-0.188965	0.094727	0.982422	-19.879999	18.410000	-3.920000	1092.00	-0.20	-0.11	0.25	0.00	0.00	0.00	0.25	0.25	2.00	0.00	0.00	1.25	0.25	0.50	0.00	0.75	0.00	0.00	0.048340	-0.231934	2.632324	158.550003	548.309998	-158.690002	66.00	0.12	0.11
2.34	15.50	20.00	10.00	15.25	2.75	13.00	2.75	6.00	0.00	3.25	5.50	3.00	1.75	0.00	0.00	2.50	-0.211914	0.090820	0.975098	-16.870001	16.309999	-3.360000	1080.00	-0.19	-0.12	0.25	0.00	0.00	0.00	0.00	0.00	2.00	0.00	0.00	1.25	0.50	0.25	0.25	0.50	0.00	0.25	-1.121582	1.223145	4.646484	197.820007	418.250000	-217.139999	62.00	0.14	0.10
2.35	14.25	19.00	9.75	14.75	2.75	13.25	2.75	6.50	0.00	3.25	5.50	3.25	2.00	0.00	0.00	2.75	-0.195801	0.089844	0.970215	-12.390000	13.510000	-2.240000	1066.00	-0.18	-0.12	0.25	0.00	0.00	0.00	0.00	0.00	2.00	0.00	0.00	1.25	0.50	0.25	0.00	0.50	0.00	0.00	1.388672	0.204590	4.803223	147.350006	189.699997	-226.520004	58.00	0.14	0.14
2.36	13.25	17.00	9.25	14.25	2.50	13.25	2.75	6.75	0.00	3.50	5.50	3.50	2.25	0.00	0.00	2.75	-0.185547	0.085449	0.952148	-9.800000	12.040000	-1.960000	1035.00	-0.17	-0.13	0.00	0.00	0.00	0.00	0.25	0.25	2.00	0.00	0.00	0.75	0.00	0.00	0.00	0.25	0.00	0.00	0.967773	0.355469	3.579102	52.430000	-36.680000	-194.180008	46.00	0.00	0.00
2.37	11.50	15.50	8.75	13.25	2.50	13.00	2.75	7.25	0.00	3.50	6.00	3.50	2.75	0.25	0.00	2.75	-0.195801	0.088379	0.968262	-8.680000	11.760000	-2.170000	1003.00	-0.16	-0.14	0.00	0.00	0.00	0.00	0.00	0.25	2.25	0.00	0.00	0.75	0.25	0.00	0.00	0.25	0.00	0.00	0.387695	0.454590	2.400879	-62.930000	-171.639999	-145.389999	49.00	0.00	0.00
2.38	9.50	13.50	8.25	12.25	2.25	13.00	2.75	7.50	0.00	3.75	6.25	4.00	2.75	0.00	0.00	3.00	-0.203613	0.088867	0.957520	-7.000000	11.480000	-2.170000	958.00	-0.14	-0.14	0.00	0.00	0.00	0.00	0.00	0.00	2.00	0.00	0.25	0.75	0.25	0.00	0.00	0.25	0.00	0.00	0.510254	0.698730	1.534180	-124.320000	-218.470001	-98.980003	46.00	0.00	0.00
2.39	8.50	11.75	7.50	11.50	2.25	12.75	2.75	8.00	0.00	4.00	6.75	3.75	2.75	0.00	0.25	3.00	-0.194336	0.100098	0.949707	-7.000000	11.130000	-2.520000	928.00	-0.13	-0.15	0.25	0.00	0.00	0.25	0.00	0.00	2.25	0.00	0.00	1.00	0.00	0.00	0.00	0.25	0.00	0.00	0.500488	0.757324	1.143066	-131.039993	-231.419998	-63.630001	52.00	0.08	0.17
2.40	7.25	9.75	7.25	10.25	2.25	12.75	3.00	8.25	0.50	3.75	6.75	3.75	3.50	0.00	0.00	3.00	-0.202637	0.087891	0.948730	-9.940000	10.640000	-4.480000	895.00	-0.11	-0.15	0.00	0.00	0.00	0.00	0.00	0.00	2.25	0.00	0.00	0.75	0.00	0.00	0.00	0.00	0.00	0.00	0.372070	0.747070	0.971680	-107.520004	-241.360001	-40.529999	42.00	0.00	0.00
2.41	6.50	8.50	6.50	9.50	2.25	12.50	3.00	8.25	0.50	4.25	7.00	4.25	3.75	0.00	0.25	3.25	-0.204102	0.087402	0.958496	-10.080000	10.360000	-5.390000	876.00	-0.09	-0.15	0.00	0.00	0.00	0.00	0.00	0.25	2.00	0.00	0.00	0.50	0.00	0.00	0.00	0.00	0.00	0.00	0.302734	0.646484	0.977539	-71.820000	-253.820007	-25.900000	38.00	0.00	0.00
2.42	5.75	7.00	6.25	9.00	2.50	12.25	3.00	8.50	0.75	4.00	7.25	4.50	4.00	0.00	0.25	3.25	-0.199707	0.083984	0.955078	-9.170000	10.150000	-5.810000	858.00	-0.08	-0.16	0.00	0.00	0.00	0.00	0.00	0.00	2.00	0.00	0.00	0.25	0.25	0.00	0.00	0.00	0.00	0.00	0.282227	0.497070	1.154785	-40.950001	-276.989990	-17.430000	36.00	0.00	0.00
2.43	5.00	6.25	5.50	8.00	2.00	12.00	3.00	8.50	0.75	4.50	7.50	4.75	5.25	0.75	0.25	3.50	-0.219238	0.084961	0.961914	-8.680000	10.640000	-6.300000	845.00	-0.06	-0.16	0.00	0.00	0.00	0.00	0.00	0.00	2.00	0.00	0.00	0.50	0.00	0.00	0.00	0.00	0.00	0.00	0.263184	0.390625	1.393066	-21.980000	-315.070007	-14.210000	35.00	0.00	0.00
2.44	3.75	5.50	5.25	7.50	2.00	11.50	3.00	8.75	1.00	4.50	7.75	5.00	5.25	0.75	0.25	3.50	-0.215332	0.070801	0.966309	-8.120000	11.480000	-6.510000	823.00	-0.04	-0.17	0.00	0.00	0.00	0.00	0.00	0.00	2.25	0.00	0.00	0.50	0.00	0.00	0.00	0.00	0.00	0.00	0.182129	0.341797	1.519531	-16.100000	-361.619995	-14.420000	39.00	0.00	0.00
2.45	3.00	4.50	4.50	6.50	2.25	11.25	3.00	8.75	1.25	4.75	8.00	5.25	5.50	0.75	0.25	3.50	-0.211426	0.083984	0.945801	-7.490000	12.320000	-6.720000	800.00	-0.02	-0.17	0.00	0.00	0.00	0.25	0.00	0.25	2.00	0.00	0.00	0.25	0.00	0.00	0.00	0.25	0.00	0.00	0.068359	0.336426	1.578613	-13.860000	-406.420013	-15.540000	40.00	0.00	0.00
2.46	2.50	3.25	4.00	6.00	2.00	11.00	3.00	9.00	1.25	5.00	8.00	5.50	6.00	1.25	0.50	3.75	-0.210938	0.074219	0.955566	-7.070000	12.950000	-7.140000	789.00	-0.00	-0.17	0.00	0.00	0.00	0.00	0.00	0.00	2.00	0.00	0.00	0.50	0.00	0.00	0.00	0.25	0.00	0.00	-0.057617	0.364746	1.563965	-9.590000	-445.200012	-15.120000	38.00	0.00	0.00
2.47	1.75	2.50	3.50	5.50	2.00	10.50	3.00	8.75	2.00	5.25	8.50	5.75	6.25	1.50	0.50	4.00	-0.227539	0.083008	0.963867	-7.560000	13.720000	-7.700000	780.00	0.02	-0.17	0.00	0.00	0.00	0.00	0.00	0.00	2.25	0.00	0.00	0.00	0.00	0.00	0.00	0.00	0.00	0.00	-0.171387	0.402832	1.529297	-0.700000	-474.250000	-13.930000	34.00	0.00	0.00
2.48	1.50	2.00	3.00	5.00	1.75	10.00	3.00	8.75	1.25	6.25	8.50	6.25	6.00	1.75	0.50	4.25	-0.221191	0.089844	0.954102	-9.380000	14.210000	-8.540000	761.00	0.03	-0.17	0.00	0.00	0.00	0.00	0.00	0.00	2.25	0.00	0.00	0.00	0.00	0.00	0.00	0.25	0.00	0.00	-0.449707	0.428711	1.384277	41.650002	-509.390015	-8.470000	36.00	0.00	0.00
2.49	1.25	1.25	2.75	4.25	2.00	9.50	3.00	8.50	2.50	6.25	8.75	6.75	6.50	2.50	0.50	4.25	-0.229004	0.083496	0.962891	-12.320000	14.700000	-9.940000	769.00	0.05	-0.16	0.00	0.00	0.00	0.00	0.00	0.00	2.25	0.00	0.00	0.00	0.00	0.00	0.00	0.00	0.00	0.00	-0.596191	0.379883	1.221680	66.010002	-514.500000	-4.760000	34.00	0.00	0.00
2.50	0.75	1.25	2.50	4.00	2.00	9.00	3.00	8.25	2.75	6.75	9.25	7.25	6.50	3.00	0.75	4.50	-0.213379	0.066895	0.925293	-13.580000	14.560000	-10.850000	776.00	0.07	-0.16	0.00	0.00	0.00	0.00	0.00	0.00	2.00	0.00	0.00	0.25	0.00	0.00	0.00	0.00	0.00	0.00	-0.783691	0.319336	1.030762	85.540001	-502.950012	0.560000	33.00	0.00	0.00
2.51	0.75	1.00	2.00	3.25	2.00	8.75	3.00	8.25	3.50	7.50	9.75	7.50	6.75	3.50	1.00	4.75	-0.218750	0.061523	0.959961	-11.620000	14.910000	-12.180000	793.00	0.09	-0.15	0.00	0.00	0.00	0.00	0.00	0.00	2.25	0.00	0.00	0.00	0.00	0.00	0.00	0.00	0.00	0.00	-0.981445	0.262695	0.873535	95.970001	-473.410004	5.950000	34.00	0.00	0.00
2.52	1.00	0.75	1.75	2.50	2.00	8.25	3.00	8.25	3.75	7.75	10.25	8.25	7.25	4.50	1.00	5.00	-0.192383	0.078125	0.936523	-7.280000	16.520000	-13.370000	810.00	0.10	-0.14	0.00	0.00	0.00	0.00	0.00	0.00	2.00	0.00	0.00	0.00	0.00	0.00	0.00	0.00	0.00	0.00	-1.136719	0.210449	0.869629	101.849998	-428.610016	9.730000	30.00	0.00	0.00
2.53	0.50	0.75	1.50	2.50	2.00	8.25	3.00	8.25	4.50	8.25	11.00	8.75	7.75	5.25	1.25	5.00	-0.212891	0.053711	0.970703	-2.590000	20.020000	-14.490000	844.00	0.11	-0.14	0.00	0.00	0.00	0.00	0.00	0.00	2.00	0.00	0.00	0.00	0.00	0.00	0.25	0.00	0.00	0.00	-1.165039	0.188477	1.145996	107.099998	-383.110016	12.530000	32.00	0.00	0.00
2.54	0.25	0.50	1.50	2.50	1.75	8.00	3.00	8.50	5.00	8.75	12.00	9.50	8.00	6.25	1.50	5.25	-0.196289	0.078613	0.974609	3.080000	24.219999	-14.980000	882.00	0.12	-0.14	0.00	0.00	0.00	0.75	0.00	0.00	2.00	0.00	0.00	0.00	0.00	0.00	0.00	0.00	0.00	0.00	-1.123047	0.116699	1.510742	114.870003	-357.000000	16.660000	39.00	0.00	0.00
2.55	0.25	0.00	1.00	1.75	1.50	7.75	3.00	8.50	5.50	9.25	12.75	10.25	8.50	7.50	1.75	5.50	-0.196289	0.073730	0.919922	9.240000	28.770000	-15.610000	904.00	0.14	-0.13	0.00	0.00	0.00	0.00	0.00	0.00	2.00	0.00	0.00	0.25	0.00	0.00	0.00	0.00	0.00	0.00	-1.023926	0.039062	1.632324	114.029999	-343.980011	23.030001	33.00	0.00	0.00
2.56	0.00	0.00	0.50	1.75	1.25	7.25	2.75	8.50	6.75	9.75	13.75	11.25	9.25	8.75	2.00	5.75	-0.208008	0.095703	0.980957	15.470000	33.810001	-18.270000	948.00	0.16	-0.13	0.00	0.00	0.00	0.00	0.25	0.00	2.00	0.00	0.00	0.00	0.00	0.00	0.00	0.00	0.00	0.00	-0.878418	0.087402	1.722656	101.010002	-327.950012	30.520000	33.00	0.00	0.00
2.57	0.25	0.00	0.50	1.75	1.00	7.00	2.50	8.50	7.50	10.25	14.75	12.25	9.75	9.75	2.25	6.25	-0.243164	0.094238	0.967285	21.490000	40.250000	-19.809999	996.00	0.16	-0.12	0.00	0.25	0.00	0.25	0.00	0.25	2.00	0.00	0.00	0.00	0.00	0.00	0.00	0.00	0.00	0.00	-0.876953	0.345215	2.097168	90.510002	-311.920013	37.310001	38.00	0.00	0.00
2.58	0.00	0.00	0.25	1.00	0.75	6.75	2.50	8.25	8.25	10.75	15.75	13.50	10.50	11.00	2.75	6.75	-0.272949	0.056152	1.030762	28.280001	49.279999	-19.670000	1037.00	0.18	-0.12	0.00	0.00	0.00	0.00	0.25	0.00	2.00	0.00	0.00	0.00	0.00	0.00	0.00	0.00	0.00	0.00	-0.951660	0.487305	2.610352	110.809998	-316.750000	48.930000	33.00	0.00	0.00
2.59	0.00	0.00	0.00	1.25	0.50	6.25	2.25	8.00	8.75	11.25	16.75	14.50	10.75	12.50	3.00	7.00	-0.270508	0.097168	1.021973	37.380001	61.180000	-20.160000	1073.00	0.19	-0.12	0.00	0.00	0.00	0.00	0.25	0.00	2.00	0.00	0.00	0.00	0.00	0.00	0.00	0.00	0.00	0.00	-1.085938	0.350098	2.782227	135.100006	-339.709991	58.450001	33.00	0.00	0.00
2.60	0.00	0.00	0.00	1.75	0.25	6.00	2.00	7.50	8.75	11.75	17.75	15.25	11.25	14.25	3.25	7.25	-0.290527	0.126465	1.005859	53.130001	70.629997	-20.440001	1108.00	0.19	-0.12	0.00	0.00	0.00	0.00	0.25	0.00	2.25	0.00	0.00	0.25	0.00	0.00	0.00	0.00	0.00	0.00	-1.178711	0.294922	2.748047	134.399994	-358.470001	67.760002	39.00	0.00	0.00
2.61	0.00	0.00	0.00	1.25	0.25	5.50	2.00	7.00	9.25	12.00	18.50	16.00	11.25	16.00	4.50	7.75	-0.290039	0.137207	1.023926	61.950001	115.779999	-13.930000	1145.00	0.21	-0.11	0.25	0.00	0.00	0.00	0.00	0.00	2.00	0.00	0.00	0.00	0.00	0.00	0.00	0.00	0.00	0.00	-1.309570	0.334961	2.643555	130.130005	-368.480011	80.919998	33.00	0.00	0.00
2.62	0.00	0.00	0.00	0.50	0.25	5.25	1.75	6.50	9.75	12.50	19.25	16.50	11.00	17.75	5.00	8.00	-0.349121	0.111328	1.056152	59.360001	146.440002	-11.480000	1167.00	0.22	-0.10	0.00	0.00	0.25	0.00	0.00	0.00	2.00	0.00	0.00	0.00	0.00	0.00	0.00	0.00	0.00	0.00	-1.479492	0.291504	2.476074	133.910004	-370.299988	92.750000	33.00	0.00	0.00
2.63	0.00	0.00	0.00	1.25	0.50	4.75	1.75	6.00	9.75	12.50	19.50	16.75	11.00	19.25	5.75	8.25	-0.363281	0.068359	1.106934	54.250000	175.699997	-8.120000	1192.00	0.22	-0.09	0.00	0.00	0.00	0.00	0.00	0.00	2.25	0.00	0.00	0.00	0.00	0.00	0.00	0.00	0.00	0.00	-1.652832	0.248535	2.409668	138.039993	-362.529999	101.849998	34.00	0.00	0.00
2.64	0.00	0.00	0.00	0.50	0.00	4.00	1.50	5.50	9.75	12.75	20.00	17.00	10.50	21.00	6.00	8.75	-0.386719	0.098145	1.167969	40.599998	200.410004	-2.590000	1185.00	0.23	-0.09	0.00	0.00	0.00	0.00	0.00	0.00	2.00	0.00	0.00	0.00	0.00	0.00	0.00	0.00	0.00	0.00	-1.864746	0.270996	2.373047	130.759995	-349.929993	111.650002	30.00	0.00	0.00
2.65	0.00	0.00	0.00	0.25	0.00	3.25	1.50	5.00	9.75	12.75	20.00	17.25	10.00	22.25	6.50	9.00	-0.439941	0.165039	1.086914	37.939999	223.300003	-0.350000	1182.00	0.24	-0.08	0.25	0.00	0.00	0.00	0.00	0.00	2.00	0.00	0.00	0.00	0.00	0.00	0.00	0.00	0.00	0.00	-2.131836	0.368652	2.192383	112.419998	-335.440002	121.730003	33.00	0.00	0.00
2.66	0.00	0.00	0.00	0.25	0.00	2.50	1.50	3.75	9.50	12.75	20.25	17.00	9.50	23.25	6.75	9.25	-0.460938	0.153320	1.128906	41.020000	249.550003	-0.630000	1160.00	0.25	-0.07	0.00	0.00	0.00	0.00	0.00	0.25	2.25	0.00	0.00	0.00	0.00	0.00	0.00	0.00	0.00	0.00	-2.497559	0.412109	1.708008	107.309998	-317.380005	127.820000	37.00	0.00	0.00
2.67	0.00	0.00	0.00	0.00	0.00	2.25	1.50	3.00	9.25	12.50	20.00	16.75	8.75	24.50	7.25	9.50	-0.515137	0.189453	1.219238	42.420002	274.119995	-2.450000	1143.00	0.26	-0.07	0.00	0.00	0.00	0.00	0.00	0.00	2.00	0.00	0.00	0.00	0.00	0.25	0.00	0.00	0.00	0.00	-3.007812	-0.023926	1.064453	143.779999	-290.500000	133.490005	33.00	0.00	0.00
2.68	0.00	0.00	0.00	0.00	0.00	1.50	1.50	2.25	9.00	12.25	19.75	16.50	8.00	25.00	7.25	9.50	-0.545410	0.236816	1.160156	44.869999	298.970001	-8.470000	1110.00	0.26	-0.06	0.00	0.00	0.00	0.00	0.00	0.00	2.00	0.00	0.00	0.00	0.00	0.00	0.00	0.00	0.00	0.00	-4.417480	-1.002441	0.072754	133.490005	-194.529999	117.320000	30.00	0.00	0.00
2.69	0.00	0.00	0.00	0.00	0.00	1.00	1.25	1.50	8.75	12.25	19.25	16.00	7.00	25.50	7.50	9.25	-0.650391	0.202637	1.190430	41.930000	329.000000	-15.400000	1072.00	0.27	-0.05	0.00	0.00	0.25	0.00	0.00	0.00	2.25	0.00	0.00	0.00	0.00	0.00	0.00	0.00	0.00	0.00	-5.095703	-1.333984	-0.598633	126.559998	-140.419998	90.370003	37.00	0.00	0.00
2.70	0.00	0.00	0.00	0.00	0.00	0.75	1.50	1.00	8.25	12.00	19.00	15.50	6.00	25.25	7.25	9.00	-0.670898	0.192871	1.244629	32.410000	368.339996	-20.930000	1034.00	0.27	-0.04	0.00	0.00	0.00	0.00	0.00	0.00	2.00	0.00	0.00	0.00	0.00	0.00	0.00	0.00	0.00	0.00	-5.058594	-1.767578	-0.862305	114.590004	-66.080002	48.090000	30.00	0.00	0.00
2.71	0.00	0.00	0.00	0.00	0.00	0.25	1.25	0.50	8.00	11.75	18.50	14.25	5.25	24.75	6.75	8.50	-0.672363	0.295410	1.272461	18.059999	410.899994	-29.960001	974.00	0.28	-0.03	0.00	0.00	0.00	0.00	0.00	0.00	2.00	0.00	0.00	0.00	0.00	0.00	0.00	0.00	0.00	0.00	-4.280762	-1.611816	-0.442383	33.529999	23.309999	3.570000	30.00	0.00	0.00
2.72	0.00	0.00	0.00	0.00	0.00	0.00	1.50	0.25	7.25	11.50	17.25	13.25	4.25	23.75	6.25	7.75	-0.862793	0.391113	1.441406	2.520000	456.540009	-44.240002	909.00	0.28	-0.03	0.25	0.00	0.00	0.00	0.00	0.00	2.00	0.00	0.00	0.00	0.00	0.00	0.00	0.00	0.00	0.00	-3.342285	-0.901367	0.413086	-61.389999	91.349998	-21.980000	33.00	0.00	0.00
2.73	0.00	0.00	0.00	0.00	0.00	0.00	1.25	0.00	6.25	10.75	15.50	11.25	3.00	21.75	5.25	6.75	-1.267090	0.618164	1.967285	7.910000	502.809998	-58.520000	797.00	0.29	-0.02	0.00	0.00	0.00	0.00	0.00	0.00	2.00	0.00	0.00	0.00	0.00	0.00	0.00	0.00	0.00	0.00	-2.636230	-0.232422	0.990723	-110.110001	115.989998	-31.570000	30.00	0.00	0.00
2.74	0.00	0.00	0.00	0.00	0.00	0.00	1.50	0.00	5.00	9.50	13.00	9.25	2.00	19.25	3.75	5.75	-1.402344	0.579590	2.392578	18.270000	548.729980	-70.279999	673.00	0.28	-0.01	0.50	1.00	0.25	0.25	0.25	0.00	2.00	0.00	0.00	0.00	0.00	0.00	0.00	0.00	0.00	0.00	-2.069824	-0.514160	2.580078	-175.559998	172.059998	-32.480000	53.00	-0.10	0.12
2.75	0.00	0.00	0.00	0.00	0.00	0.00	1.50	0.00	3.50	8.25	10.50	7.50	1.00	16.00	1.75	4.50	-1.875488	0.606934	3.008789	28.559999	574.210022	-79.169998	531.00	0.28	-0.00	2.50	3.50	0.75	1.25	0.50	0.00	1.75	0.00	0.00	0.00	0.00	0.00	0.00	0.00	0.00	0.00	0.703125	0.262207	0.024414	-213.710007	195.089996	-38.639999	112.00	-0.25	0.02
2.76	0.00	0.00	0.00	0.00	0.00	0.00	1.75	0.00	1.75	7.00	8.75	6.00	0.50	12.25	0.75	3.75	-2.083496	0.721191	3.444336	50.610001	569.869995	-77.489998	414.00	0.27	-0.01	7.00	8.25	2.00	3.00	0.25	0.00	2.00	0.00	0.00	0.00	0.00	0.00	0.00	0.00	0.00	0.00	-0.193359	0.106934	1.176758	-214.339996	241.639999	-30.799999	237.00	-0.31	-0.01
2.77	0.00	0.00	0.00	0.00	0.00	0.00	1.75	0.00	1.50	5.75	7.75	5.25	0.25	8.50	0.25	3.25	-1.431152	0.315918	3.202637	66.500000	543.900024	-79.449997	337.00	0.26	-0.01	11.75	12.25	3.50	5.25	0.75	0.00	2.00	0.00	0.00	0.00	0.00	0.00	0.00	0.00	0.00	0.00	-0.432617	0.179688	1.660156	-194.740005	291.690002	-16.170000	370.00	-0.33	-0.02
2.78	0.00	0.00	0.00	0.00	0.00	0.00	1.75	0.00	0.50	5.75	7.00	4.75	0.00	5.25	0.00	3.00	-0.535156	0.258301	2.873535	76.090004	526.470032	-77.559998	277.00	0.25	-0.03	16.00	15.75	6.00	6.50	0.75	0.25	2.00	0.00	0.00	0.00	0.00	0.00	0.00	0.00	0.00	0.00	-0.565430	-0.126465	2.900391	-106.750000	289.450012	22.469999	490.00	-0.34	-0.02
2.79	0.00	0.00	0.00	0.00	0.00	0.00	2.00	0.00	0.75	4.75	6.25	4.00	0.25	1.75	0.25	3.25	-0.390625	0.306641	2.139160	87.430000	527.030029	-92.120003	235.00	0.23	-0.05	18.75	17.75	7.50	9.00	1.25	0.75	2.00	0.00	0.00	0.00	0.00	0.00	0.25	0.00	0.00	0.00	-0.631836	-1.279297	2.208496	-46.200001	268.309998	18.690001	594.00	-0.33	-0.03
2.80	0.00	0.00	0.00	0.00	0.00	0.00	2.25	0.00	0.75	4.50	5.75	3.00	0.00	1.00	0.00	2.75	0.306152	0.096191	1.719727	110.389999	536.830017	-136.289993	206.00	0.22	-0.03	20.00	18.50	8.50	10.00	1.75	1.50	2.00	0.00	0.00	0.00	0.00	0.00	0.25	0.00	0.00	0.00	-0.391602	-0.484375	2.309082	-5.180000	257.739990	-23.309999	650.00	-0.33	-0.03
2.81	0.00	0.00	0.00	0.00	0.00	0.00	2.00	0.00	0.25	4.25	5.50	3.25	0.00	0.75	0.00	2.75	-1.148438	0.791504	1.086426	176.820007	544.039978	-196.559998	191.00	0.22	-0.05	20.50	18.75	9.25	11.00	2.25	3.00	2.00	0.25	0.00	0.00	0.00	0.00	0.25	0.00	0.00	0.00	-0.424805	0.771973	2.119141	11.830000	232.050003	-39.970001	702.00	-0.32	-0.04
2.82	0.00	0.00	0.00	0.00	0.00	0.00	2.25	0.00	0.25	4.50	5.50	2.75	0.00	0.50	0.00	2.75	1.307617	0.695801	4.418457	233.660004	223.649994	-203.910004	190.00	0.22	-0.04	20.25	19.25	9.75	11.75	3.00	4.50	2.25	0.50	0.00	0.00	0.00	0.00	0.50	0.25	0.00	0.00	-0.384277	0.772461	1.928711	-1.960000	200.970001	-14.490000	755.00	-0.31	-0.04
2.83	0.00	0.00	0.00	0.00	0.00	0.00	2.25	0.00	0.25	4.25	5.50	2.75	0.00	0.00	0.00	2.75	0.975586	0.423828	3.741211	134.889999	-13.720000	-167.580002	183.00	0.21	-0.04	20.25	19.00	10.50	12.50	4.50	6.50	2.25	1.00	0.00	0.00	0.00	0.00	0.75	0.25	0.00	0.00	-0.327637	-0.078613	1.548340	-18.129999	163.940002	4.410000	817.00	-0.29	-0.05
2.84	0.00	0.00	0.25	0.25	0.00	0.00	2.25	0.00	0.00	4.00	5.25	2.75	0.00	0.00	0.25	2.75	0.566895	0.416992	2.952637	15.750000	-167.089996	-122.290001	183.00	0.20	-0.05	20.00	19.00	11.00	13.00	5.50	7.50	2.25	1.50	0.00	0.00	0.00	0.00	0.75	0.25	0.00	0.00	-0.393555	0.088379	1.729980	-20.790001	126.489998	-2.660000	855.00	-0.29	-0.06
2.85	0.00	0.00	0.00	0.00	0.00	0.00	2.25	0.00	0.25	4.00	5.25	3.00	0.00	0.00	0.00	2.75	0.485840	0.485840	2.086914	-75.250000	-241.360001	-71.680000	181.00	0.21	-0.05	19.75	18.75	11.25	13.25	6.50	8.25	2.50	1.75	0.00	0.00	0.00	0.25	0.75	0.50	0.00	0.00	-0.304688	0.309082	1.455078	-23.240000	92.400002	-3.150000	887.00	-0.28	-0.06
2.86	0.00	0.00	0.00	0.00	0.00	0.00	2.25	0.00	0.25	3.50	5.00	2.50	0.00	0.00	0.00	2.75	0.450195	0.553711	1.666992	-137.130005	-283.079987	-30.380001	168.00	0.21	-0.04	19.50	18.75	11.25	13.50	7.00	8.75	2.50	1.75	0.00	0.00	0.00	0.00	0.75	0.50	0.00	0.00	-0.216309	0.080566	1.267090	-24.360001	66.500000	4.200000	895.00	-0.28	-0.06
2.87	0.00	0.00	0.25	0.25	0.00	0.00	2.25	0.00	0.50	3.75	5.00	2.50	0.00	0.00	0.00	2.75	0.266113	0.612793	1.387207	-165.899994	-317.029999	-2.660000	179.00	0.20	-0.04	19.50	18.50	11.25	13.50	7.25	9.00	2.50	2.00	0.00	0.00	0.00	0.00	0.75	0.50	0.00	0.00	-0.196777	0.024414	1.311523	-19.740000	50.540001	3.080000	902.00	-0.27	-0.06
2.88	0.00	0.00	0.00	0.00	0.00	0.00	2.25	0.00	0.00	3.50	5.00	2.25	0.00	0.00	0.00	3.00	0.129883	0.606445	1.110352	-163.520004	-344.679993	14.490000	163.00	0.21	-0.05	19.00	18.25	11.25	13.50	7.75	9.25	2.50	2.25	0.00	0.00	0.00	0.25	0.75	0.50	0.25	0.00	-0.131348	0.073730	1.034668	-13.160000	25.900000	4.060000	912.00	-0.27	-0.06
2.89	0.00	0.00	0.00	0.00	0.00	0.00	2.25	0.00	0.00	3.50	4.75	2.25	0.00	0.00	0.00	2.50	0.061523	0.589355	0.864746	-140.139999	-361.480011	21.840000	158.00	0.21	-0.04	18.50	18.00	11.25	13.50	7.75	9.50	2.50	2.50	0.00	0.00	0.00	0.00	1.00	0.50	0.00	0.00	-0.145996	0.094727	1.049316	-12.460000	19.809999	2.940000	908.00	-0.27	-0.07
2.90	0.00	0.00	0.00	0.00	0.00	0.00	2.00	0.00	0.00	3.25	4.50	2.25	0.00	0.00	0.00	2.50	0.024414	0.582031	0.799805	-109.059998	-367.149994	20.860001	149.00	0.21	-0.05	18.50	17.50	11.25	13.50	8.00	9.75	2.50	2.75	0.00	0.00	0.00	0.00	1.25	0.25	0.00	0.00	-0.137695	0.104980	1.022461	-10.920000	13.720000	2.240000	913.00	-0.27	-0.07
2.91	0.00	0.00	0.00	0.00	0.00	0.00	2.25	0.00	0.00	3.25	4.75	2.00	0.00	0.00	0.00	2.50	-0.025879	0.549316	0.837891	-76.160004	-371.420013	16.240000	152.00	0.21	-0.04	17.75	17.50	11.00	13.25	8.00	9.75	2.50	3.00	0.00	0.00	0.00	0.25	1.00	0.50	0.00	0.00	-0.124512	0.084473	0.993652	-10.080000	11.130000	1.330000	906.00	-0.26	-0.07
2.92	0.00	0.00	0.00	0.00	0.00	0.00	2.25	0.00	0.00	3.50	4.75	2.25	0.00	0.00	0.00	2.50	-0.107422	0.497070	0.971680	-42.980000	-378.769989	11.690000	158.00	0.21	-0.04	17.25	17.00	11.00	13.25	8.25	9.75	2.50	3.00	0.00	0.00	0.00	0.25	1.25	0.50	0.00	0.00	-0.126953	0.091309	0.999023	-9.450000	10.780000	0.420000	901.00	-0.26	-0.07
2.93	0.00	0.00	0.00	0.00	0.00	0.00	2.25	0.00	0.00	3.25	4.50	2.00	0.00	0.00	0.00	2.50	-0.169922	0.421387	1.083008	-15.610000	-389.410004	9.380000	150.00	0.21	-0.04	16.75	16.50	10.75	13.00	8.00	10.00	2.75	3.00	0.00	0.00	0.25	0.00	1.50	0.50	0.00	0.00	-0.117676	0.097168	0.990234	-9.030000	11.340000	-0.210000	892.00	-0.25	-0.07
2.94	0.00	0.00	0.00	0.00	0.00	0.00	2.25	0.00	0.00	3.25	4.50	2.50	0.00	0.00	0.00	2.50	-0.220703	0.345215	1.197754	-0.630000	-402.079987	9.800000	155.00	0.21	-0.05	16.00	16.00	10.25	12.75	8.25	9.75	2.50	3.50	0.00	0.25	0.25	0.25	1.50	0.50	0.00	0.25	-0.101562	0.088867	0.960938	-10.430000	13.440001	-0.770000	881.00	-0.25	-0.08
2.95	0.00	0.00	0.00	0.00	0.00	0.00	2.25	0.00	0.00	3.00	4.50	2.00	0.00	0.00	0.00	2.50	-0.278320	0.319824	1.291504	4.550000	-415.380005	12.950000	147.00	0.20	-0.04	15.50	15.00	10.00	12.25	8.25	9.50	2.75	3.50	0.00	0.25	0.25	0.50	1.75	0.75	0.00	0.25	-0.113281	0.093262	0.975098	-13.300000	16.940001	-0.840000	867.00	-0.24	-0.08
2.96	0.00	0.00	0.00	0.00	0.00	0.00	2.25	0.00	0.00	3.25	4.25	2.00	0.00	0.00	0.00	2.25	-0.348145	0.335449	1.308594	4.760000	-427.140015	18.129999	146.00	0.20	-0.03	14.25	14.25	9.75	12.00	8.00	9.50	2.75	3.75	0.00	0.25	0.25	0.25	2.00	0.75	0.00	0.50	-0.143066	0.086914	0.999512	-15.190001	16.170000	-0.280000	843.00	-0.23	-0.08
2.97	0.00	0.00	0.00	0.00	0.00	0.00	2.25	0.00	0.00	3.25	4.25	1.75	0.00	0.00	0.00	2.50	-0.444336	0.375000	1.324707	4.970000	-434.700012	24.430000	145.00	0.21	-0.03	13.00	13.25	9.50	11.50	8.00	9.25	2.75	3.75	0.00	0.25	0.25	0.75	2.00	0.50	0.50	0.25	-0.135254	0.080566	1.013184	-14.140000	12.810000	0.560000	817.00	-0.22	-0.08
2.98	0.00	0.00	0.00	0.00	0.00	0.00	2.25	0.00	0.00	3.00	4.25	1.75	0.00	0.00	0.00	2.50	-0.529297	0.418945	1.359375	10.080000	-437.429993	31.290001	142.00	0.20	-0.03	11.50	11.75	9.00	11.00	7.75	9.25	2.75	4.00	0.00	0.50	0.50	0.75	2.00	0.75	0.00	0.50	-0.161621	0.088379	0.990723	-10.080000	8.330000	0.630000	781.00	-0.21	-0.09
2.99	0.00	0.00	0.00	0.50	0.00	0.00	2.00	0.00	0.00	2.75	4.25	2.00	0.00	0.00	0.00	2.50	-0.609375	0.453125	1.457031	21.559999	-437.010010	37.380001	144.00	0.19	-0.05	10.25	10.75	8.50	10.25	7.75	8.75	2.75	4.00	0.00	0.50	0.50	0.75	2.25	0.75	0.00	0.50	-0.136719	0.085449	0.980957	-10.080000	7.280000	0.560000	742.00	-0.21	-0.09
3.00	0.00	0.00	0.00	0.00	0.00	0.00	2.25	0.00	0.00	2.75	4.00	2.25	0.00	0.00	0.00	2.50	-0.755859	0.479980	1.549805	41.580002	-436.239990	41.720001	142.00	0.20	-0.04	9.25	9.75	8.25	9.75	7.75	8.50	2.75	4.50	0.00	0.50	0.75	0.75	2.50	1.00	0.25	0.75	-0.139648	0.081055	0.990234	-10.220000	6.930000	-0.140000	730.00	-0.19	-0.10
3.01	0.00	0.00	0.00	0.00	0.00	0.00	2.25	0.00	0.00	3.00	4.00	2.00	0.00	0.00	0.00	2.25	-0.897949	0.439941	1.569824	65.940002	-433.860016	43.889999	141.00	0.20	-0.03	8.25	8.75	7.75	9.25	7.50	8.50	2.75	5.00	0.00	1.00	1.00	1.00	3.00	1.00	0.25	0.75	-0.151367	0.081543	0.986328	-9.240000	5.810000	-1.190000	719.00	-0.17	-0.10
3.02	0.00	0.00	0.00	0.00	0.00	0.00	2.25	0.00	0.00	2.75	4.00	2.00	0.00	0.00	0.00	2.50	-1.029785	0.407227	1.517090	89.739998	-423.709991	44.310001	139.00	0.20	-0.04	7.00	8.00	7.25	9.00	7.50	8.25	2.75	5.00	0.25	1.00	1.25	1.25	3.00	1.00	0.00	1.00	-0.123047	0.072266	0.994141	-7.840000	4.830000	-2.030000	695.00	-0.16	-0.11
3.03	0.00	0.00	0.00	0.00	0.00	0.00	2.25	0.00	0.00	3.00	4.25	2.00	0.00	0.00	0.00	2.50	-1.201172	0.407227	1.790527	127.610001	-378.000000	44.170002	145.00	0.20	-0.04	6.00	7.00	6.75	8.25	7.50	8.00	3.00	5.00	0.50	1.25	1.50	1.25	3.25	1.50	0.50	1.00	-0.142578	0.052734	0.990234	-5.040000	4.550000	-1.960000	683.00	-0.14	-0.10
3.04	0.00	0.00	0.00	0.00	0.00	0.00	2.25	0.00	0.00	3.00	4.00	2.00	0.00	0.00	0.00	2.25	-1.283691	0.319336	2.190430	133.699997	-360.360016	42.770000	141.00	0.20	-0.03	5.25	6.25	6.75	8.00	7.25	8.00	2.75	5.00	0.25	1.25	1.75	1.50	3.75	1.50	0.50	1.25	-0.127441	0.029785	1.023926	-3.220000	4.480000	-1.680000	667.00	-0.13	-0.11
3.05	0.00	0.00	0.00	0.00	0.00	0.00	2.25	0.00	0.00	3.00	3.75	1.75	0.00	0.00	0.00	2.25	-1.358887	0.463379	2.773926	127.889999	-358.470001	42.700001	135.00	0.20	-0.03	4.50	5.50	5.50	7.50	7.25	7.75	3.00	5.25	0.50	1.50	2.00	1.75	4.00	1.50	0.25	1.25	-0.160645	0.074707	0.984375	-2.380000	4.760000	-1.470000	649.00	-0.11	-0.12
3.06	0.00	0.00	0.00	0.00	0.00	0.00	2.00	0.00	0.00	2.75	4.00	2.00	0.00	0.00	0.00	2.50	-1.519531	0.791504	3.305664	116.480003	-373.309998	51.520000	136.00	0.21	-0.05	3.75	5.25	5.50	7.25	7.25	7.75	3.00	5.50	0.75	2.00	2.25	2.50	4.50	1.75	0.50	1.25	-0.168945	0.062012	0.968262	-1.400000	4.830000	-1.400000	668.00	-0.09	-0.12
3.07	0.00	0.00	0.00	0.00	0.00	0.00	2.00	0.00	0.00	2.75	3.75	2.00	0.00	0.00	0.00	2.50	-1.906250	0.972168	3.503418	90.440002	-401.239990	77.279999	133.00	0.21	-0.04	3.00	4.50	5.25	6.50	7.00	7.75	3.00	5.75	1.00	2.25	2.50	2.25	4.75	1.75	0.25	1.50	-0.210938	0.108887	1.031250	-0.280000	5.250000	-1.050000	650.00	-0.08	-0.12
3.08	0.00	0.00	0.00	0.00	0.00	0.00	2.25	0.00	0.00	2.75	4.00	2.00	0.00	0.00	0.00	2.50	-2.381348	1.130859	3.220215	52.290001	-427.350006	110.110001	139.00	0.20	-0.04	2.50	3.50	4.75	5.75	7.00	7.50	3.00	5.75	1.00	2.50	3.25	2.75	5.25	1.75	0.75	1.75	-0.152344	0.057129	1.029785	2.590000	7.350000	-1.260000	646.00	-0.05	-0.13
3.09	0.00	0.00	0.00	0.00	0.00	0.00	2.25	0.00	0.00	3.00	3.50	2.00	0.00	0.00	0.00	2.50	-2.991211	1.326660	2.738281	25.549999	-433.089996	140.000000	137.00	0.20	-0.03	2.25	3.00	4.00	5.50	6.75	7.50	3.00	6.25	1.50	2.50	3.75	3.25	5.50	2.25	0.75	1.75	-0.162109	0.076172	0.974609	3.500000	8.820000	-1.540000	656.00	-0.03	-0.13
3.10	0.00	0.00	0.00	0.00	0.00	0.00	2.25	0.00	0.00	2.75	3.75	2.00	0.00	0.00	0.00	2.50	-3.509277	1.473145	2.190918	14.140000	-415.029999	155.190002	137.00	0.20	-0.04	1.75	2.50	3.00	4.75	6.50	7.25	3.00	6.50	2.00	3.00	4.25	4.00	6.25	2.50	1.00	2.25	-0.182617	0.069336	0.981934	4.550000	10.920000	-1.960000	664.00	0.00	-0.14
3.11	0.00	0.00	0.00	0.00	0.00	0.00	2.25	0.00	0.00	3.00	3.75	2.00	0.00	0.00	0.00	2.25	-3.988770	1.594727	1.632812	25.200001	-376.459991	150.080002	138.00	0.20	-0.03	1.50	1.75	3.00	3.75	6.25	7.25	3.00	6.75	2.25	3.75	6.00	4.50	7.25	3.00	1.00	2.50	-0.138184	0.094238	0.884277	5.740000	13.090000	-2.030000	693.00	0.03	-0.14
3.12	0.00	0.00	0.00	0.00	0.00	0.00	2.00	0.00	0.00	2.75	4.25	2.00	0.00	0.00	0.00	2.25	-3.727051	1.207031	0.455566	90.160004	-323.610016	140.210007	137.00	0.21	-0.04	1.25	1.50	2.25	3.50	6.00	7.00	3.00	7.00	2.75	4.50	7.75	6.00	7.75	3.25	1.00	2.50	-0.164551	0.077148	0.981445	7.350000	16.450001	-2.590000	731.00	0.05	-0.14
3.13	0.00	0.00	0.00	0.00	0.00	0.00	2.00	0.00	0.00	2.75	3.75	1.75	0.00	0.00	0.00	2.50	-3.807129	0.198730	-0.157227	226.169998	-259.209991	151.130005	130.00	0.21	-0.04	0.75	1.25	1.75	3.00	5.75	6.75	3.00	7.00	3.25	6.00	8.50	7.50	8.25	4.00	1.25	2.75	-0.201660	0.082520	0.972168	9.590000	19.879999	-3.430000	767.00	0.08	-0.14
3.14	0.00	0.00	0.00	0.00	0.00	0.00	2.00	0.00	0.00	2.75	4.25	2.00	0.00	0.00	0.00	2.50	-4.425781	-0.958984	0.310547	314.510010	-192.009995	149.449997	138.00	0.21	-0.05	0.75	1.50	1.50	2.25	5.00	6.75	3.00	7.25	4.25	7.25	9.25	8.25	8.75	4.75	1.50	3.50	-0.176758	0.082520	0.987793	11.410000	23.940001	-3.920000	813.00	0.10	-0.13
3.15	0.00	0.00	0.00	0.00	0.00	0.00	2.00	0.00	0.00	3.00	4.00	2.00	0.00	0.00	0.00	2.25	-5.426270	-2.227051	0.616211	285.179993	-156.520004	132.160004	137.00	0.21	-0.04	0.50	0.75	0.75	2.00	4.75	6.25	2.75	7.50	4.75	8.25	10.25	9.00	9.25	5.75	1.50	4.00	-0.140625	0.121094	0.989746	13.160000	27.860001	-4.690000	835.00	0.12	-0.13
3.16	0.00	0.00	0.00	0.00	0.00	0.00	2.00	0.00	0.00	3.00	4.00	2.00	0.00	0.00	0.00	2.25	-5.561523	-2.827637	-0.715332	139.160004	-133.350006	102.480003	137.00	0.21	-0.04	0.50	0.50	0.75	1.50	4.00	6.00	2.75	7.50	5.25	9.00	11.00	10.00	9.75	6.50	1.75	5.00	-0.164062	0.000977	1.001953	15.680000	32.549999	-6.090000	868.00	0.14	-0.13
3.17	0.00	0.00	0.00	0.00	0.00	0.00	2.00	0.00	0.00	3.00	4.00	2.00	0.00	0.00	0.00	2.25	-5.242676	-2.326172	-1.475586	-6.650000	-56.630001	42.000000	137.00	0.21	-0.04	0.25	0.00	0.75	1.00	3.25	5.50	2.75	7.50	6.25	9.50	11.75	10.50	10.25	7.75	2.25	5.50	-0.148926	0.097168	0.977051	19.389999	38.779999	-7.770000	896.00	0.16	-0.12
3.18	0.00	0.00	0.00	0.00	0.00	0.00	2.00	0.00	0.00	3.00	4.25	2.00	0.00	0.00	0.00	2.50	-4.396484	-1.543457	-0.733887	-68.180000	50.959999	-44.029999	141.00	0.21	-0.04	0.25	0.25	0.25	1.00	2.75	5.50	2.50	7.50	7.00	10.25	12.75	11.25	10.75	9.00	2.75	6.00	-0.253418	0.129395	0.990234	24.920000	48.160000	-9.310000	943.00	0.17	-0.12
3.19	0.00	0.00	0.00	0.00	0.00	0.00	2.00	0.00	0.00	2.75	3.75	2.25	0.00	0.00	0.00	2.50	-3.361328	-0.900879	0.554688	-85.330002	120.400002	-120.260002	136.00	0.21	-0.05	0.25	0.25	0.25	0.50	2.25	5.00	2.25	7.25	7.50	10.75	13.50	12.00	11.25	10.25	2.75	6.50	-0.236816	0.058105	1.102051	33.950001	63.349998	-11.340000	964.00	0.18	-0.12
3.20	0.25	0.00	0.75	0.00	0.00	0.00	2.00	0.00	0.00	2.75	4.00	2.00	0.00	0.00	0.00	2.50	-1.183594	-1.498047	0.451660	-97.510002	124.110001	-155.539993	147.00	0.17	-0.04	0.00	0.00	0.00	0.50	1.25	4.75	2.25	7.00	7.75	11.25	14.25	12.75	11.50	12.25	3.25	7.00	-0.211426	0.169922	1.064941	44.310001	84.070000	-10.220000	990.00	0.20	-0.11
3.21	2.25	3.25	1.00	1.25	0.00	0.00	2.00	0.00	0.00	2.50	3.75	2.00	0.00	0.00	0.00	2.50	3.259766	0.936035	1.325195	-259.839996	170.589996	-102.269997	208.00	-0.01	-0.05	0.00	0.00	0.00	0.50	1.50	4.00	2.00	6.50	8.00	11.75	15.25	13.25	11.50	14.25	3.50	7.50	-0.214844	0.120117	1.178223	43.959999	111.160004	-8.400000	1020.00	0.20	-0.10
3.22	7.50	9.75	2.50	3.25	0.00	0.00	2.00	0.00	0.00	2.50	3.75	2.25	0.00	0.00	0.00	2.25	0.062012	0.804199	-0.065430	-197.190002	197.259995	-24.780001	363.00	-0.16	-0.05	0.00	0.00	0.00	0.25	1.25	3.75	1.75	6.00	8.00	11.75	15.50	13.75	11.50	16.25	4.75	7.75	-0.257324	0.060547	1.084473	43.540001	138.180008	-5.740000	1040.00	0.22	-0.10
3.23	13.25	17.25	4.50	5.25	0.00	0.00	1.75	0.00	0.00	1.75	4.00	2.25	0.25	0.00	0.00	2.50	-0.693848	0.019531	1.172852	-130.199997	317.239990	28.070000	530.00	-0.24	-0.06	0.00	0.00	0.50	0.25	1.00	3.25	1.75	6.00	8.00	12.00	16.00	14.00	11.50	18.50	5.50	8.00	-0.290039	0.072266	1.124023	49.840000	161.419998	-3.010000	1076.00	0.22	-0.09
3.24	18.25	22.00	6.50	8.50	0.00	0.50	1.75	0.00	0.00	2.25	4.25	2.50	0.00	0.00	0.00	2.25	-0.930664	-1.999023	2.625000	10.780000	317.589996	-1.190000	696.00	-0.26	-0.05	0.00	0.00	0.00	0.00	1.00	2.50	1.75	5.25	7.75	11.75	16.00	14.50	11.25	20.25	5.75	8.50	-0.308594	0.089844	1.231445	45.430000	182.910004	0.980000	1066.00	0.23	-0.09
3.25	20.75	24.00	8.75	10.25	0.50	1.25	2.00	0.00	0.00	2.25	3.75	2.50	0.25	0.00	0.00	2.50	-0.620605	0.314453	2.316895	45.500000	299.040009	-69.860001	800.00	-0.27	-0.05	0.00	0.00	0.00	0.00	0.50	2.00	1.75	4.75	7.25	11.50	16.25	14.50	10.75	22.25	6.75	9.00	-0.362793	0.146484	1.127441	45.920002	208.039993	4.830000	1067.00	0.24	-0.08
3.26	22.00	23.75	9.25	12.50	1.25	2.75	2.00	0.00	0.00	2.25	3.75	2.75	0.50	0.00	0.00	2.50	-0.712402	1.497070	2.514160	44.520000	268.660004	-58.590000	870.00	-0.26	-0.06	0.00	0.00	0.00	0.00	0.00	1.00	1.50	3.50	6.75	11.25	16.00	14.50	10.50	24.00	7.25	9.00	-0.409180	0.157227	1.233887	54.459999	238.279999	5.600000	1034.00	0.26	-0.08
3.27	21.75	25.00	10.25	14.00	1.25	4.75	2.00	0.50	0.00	2.25	4.25	2.50	0.50	0.00	0.00	2.25	-0.572754	0.659668	1.885742	-5.250000	237.649994	-6.580000	937.00	-0.26	-0.07	0.00	0.00	0.00	0.00	0.25	1.00	1.50	3.25	5.75	10.75	15.75	14.25	9.75	25.50	7.50	9.25	-0.524902	0.163086	1.281250	64.190002	264.600006	4.550000	1019.00	0.26	-0.07
3.28	21.00	24.50	10.75	14.75	1.75	7.00	2.25	0.75	0.00	2.50	4.00	3.00	0.75	0.00	0.00	2.50	-0.417969	-0.198730	1.845703	-47.459999	196.279999	3.570000	985.00	-0.25	-0.08	0.00	0.00	0.00	0.00	0.25	1.00	1.50	3.00	5.25	10.25	15.25	13.75	9.25	26.50	7.75	9.50	-0.646973	0.246094	1.366699	72.870003	314.230011	-0.630000	1001.00	0.27	-0.07
3.29	20.50	24.75	11.00	16.00	2.00	8.50	2.25	1.25	0.00	2.25	4.25	2.50	0.75	0.00	0.00	2.50	-0.382812	0.308594	1.276367	-50.119999	150.220001	-5.320000	1020.00	-0.25	-0.08	0.00	0.00	0.00	0.25	0.25	0.75	1.50	2.25	4.25	9.50	14.50	13.25	8.25	27.00	8.00	9.50	-0.518066	0.251953	1.533203	74.340004	342.440002	-4.620000	954.00	0.27	-0.07
3.30	20.50	24.25	12.50	16.25	2.75	9.25	2.50	1.75	0.00	2.50	4.50	2.75	0.75	0.25	0.00	2.50	-0.384277	0.209961	1.312988	-64.540001	114.800003	-0.700000	1073.00	-0.24	-0.08	0.00	0.00	0.00	0.00	0.00	0.25	1.50	2.25	3.50	8.75	13.75	12.50	7.75	27.25	8.50	9.25	-0.692383	0.441406	1.814941	76.019997	367.709991	-13.860000	911.00	0.28	-0.06
3.31	20.25	24.50	13.00	16.75	3.25	9.75	2.75	2.00	0.00	2.50	4.25	2.50	1.00	0.00	0.00	2.50	-0.304688	-0.072266	1.313477	-74.129997	88.129997	-0.420000	1097.00	-0.24	-0.08	0.00	0.00	0.00	0.00	0.00	0.00	1.50	1.75	2.50	8.00	12.75	11.50	7.00	26.25	7.75	8.50	-0.709473	0.449219	1.600586	62.860001	410.130005	-32.619999	832.00	0.29	-0.06
3.32	20.00	23.75	13.00	17.00	4.25	10.25	2.75	2.25	0.00	2.75	4.50	3.00	1.00	0.25	0.00	2.50	-0.300781	0.063477	1.162598	-63.070000	63.209999	-3.360000	1123.00	-0.23	-0.08	0.00	0.00	0.00	0.00	0.00	0.00	1.25	1.25	1.50	7.25	11.25	10.25	5.75	24.25	7.00	7.50	-0.870605	0.644531	1.925781	39.759998	460.600006	-53.900002	730.00	0.29	-0.06
3.33	19.50	24.00	13.00	17.25	4.25	10.75	2.75	2.25	0.00	2.75	4.25	2.75	1.00	0.25	0.00	2.50	-0.245605	0.080566	1.094727	-50.680000	45.360001	-1.540000	1123.00	-0.23	-0.09	0.00	0.00	0.00	0.00	0.00	0.00	1.25	0.75	1.00	5.50	10.00	9.00	5.00	21.50	6.00	6.00	-1.053223	0.635254	2.425781	11.760000	507.850006	-71.680000	623.00	0.29	-0.06
3.34	20.00	23.75	12.75	17.00	4.75	11.00	2.75	2.50	0.00	2.75	4.50	3.00	1.00	0.25	0.00	2.50	-0.214355	0.066406	1.014648	-39.410000	33.670002	-1.680000	1138.00	-0.23	-0.09	0.00	0.00	0.00	0.00	0.00	0.00	1.25	0.50	0.50	4.25	8.00	7.75	3.50	17.75	4.00	4.50	-1.275879	0.803223	2.892578	-1.890000	536.549988	-82.110001	491.00	0.29	-0.05
3.35	19.75	23.50	13.25	17.00	4.75	11.25	2.75	2.50	0.00	2.75	4.50	2.75	1.00	0.25	0.00	2.50	-0.226562	0.080566	1.017090	-30.870001	25.620001	-2.310000	1139.00	-0.23	-0.09	0.00	0.00	0.00	0.00	0.00	0.00	1.50	0.00	0.00	2.75	5.75	5.75	2.50	13.00	2.25	2.75	-1.332031	0.395996	3.112305	7.770000	544.739990	-86.800003	343.00	0.29	-0.04
3.36	19.50	23.25	13.00	17.00	5.00	11.50	2.75	2.75	0.00	3.00	4.25	2.75	1.00	0.50	0.00	2.75	-0.213379	0.066895	1.004883	-21.700001	18.129999	-2.450000	1144.00	-0.22	-0.09	0.00	0.00	0.00	0.00	0.00	0.00	1.50	0.00	0.00	2.25	3.50	3.75	2.00	8.50	1.25	1.50	-1.050781	0.460449	3.146973	-2.590000	532.000000	-91.070000	233.00	0.28	-0.03
3.37	19.75	23.00	12.75	16.75	4.75	11.25	2.75	2.75	0.00	2.75	4.50	2.75	1.00	0.25	0.00	2.50	-0.223633	0.061035	0.978027	-12.670000	13.440001	-2.800000	1129.00	-0.22	-0.09	0.00	0.00	0.00	0.00	0.00	0.00	1.75	0.00	0.00	1.50	2.25	2.50	1.75	5.50	0.75	0.75	-0.319824	0.431152	2.576172	-4.340000	532.840027	-95.480003	166.00	0.26	-0.02
3.38	19.25	22.75	12.50	16.75	4.50	11.25	2.75	2.75	0.00	3.00	4.75	2.75	1.00	0.25	0.00	2.50	-0.209961	0.079590	0.980957	-5.810000	10.920000	-2.730000	1122.00	-0.22	-0.09	0.00	0.00	0.00	0.00	0.00	0.50	2.00	0.00	0.00	1.50	2.00	1.50	0.75	2.00	0.25	0.25	-0.167969	0.226074	1.385254	29.540001	575.750000	-118.580002	116.00	0.20	-0.01
3.39	18.50	22.00	12.25	16.25	4.50	11.25	2.75	2.75	0.00	3.25	4.50	2.75	1.00	0.50	0.00	2.50	-0.190430	0.082031	0.959473	-0.770000	10.150000	-2.590000	1101.00	-0.22	-0.09	0.00	0.00	0.00	0.00	0.00	0.00	2.00	0.00	0.00	1.25	1.25	0.75	0.25	1.00	0.25	0.00	0.596680	-0.332031	1.901855	106.959999	599.970032	-185.149994	78.00	0.19	0.06
3.40	17.75	21.50	12.00	16.00	4.50	11.25	2.75	3.00	0.00	3.00	4.75	2.75	1.00	0.00	0.00	2.50	-0.195312	0.075195	0.937500	2.660000	10.080000	-2.380000	1083.00	-0.22	-0.09	0.00	0.00	0.00	0.00	0.00	0.00	2.00	0.00	0.00	1.00	1.25	0.75	0.00	0.50	0.00	0.00	-1.049805	1.091797	3.023926	171.009995	531.440002	-266.630005	66.00	0.17	0.07
3.41	16.75	20.25	11.50	15.50	4.25	11.00	2.75	3.50	0.25	2.75	4.75	2.75	1.25	0.25	0.00	2.50	-0.181641	0.081543	0.934082	2.310000	11.620000	-2.310000	1057.00	-0.21	-0.09	0.00	0.00	0.00	0.00	0.00	0.25	2.00	0.00	0.00	1.00	0.75	0.25	0.00	0.25	0.00	0.00	0.326660	0.965332	5.881836	169.330002	320.600006	-281.119995	56.00	0.14	0.11
3.42	15.75	19.25	10.75	14.75	3.75	10.75	2.75	3.50	0.00	3.25	4.75	2.75	1.25	0.50	0.25	2.50	-0.193848	0.098145	0.943359	-0.070000	13.930000	-1.890000	1019.00	-0.20	-0.10	0.00	0.00	0.00	0.00	0.00	0.00	2.00	0.00	0.00	1.00	0.75	0.00	0.00	0.50	0.00	0.00	1.426270	0.547363	4.418945	114.800003	65.730003	-248.919998	53.00	0.16	0.15
3.43	14.25	18.00	10.25	14.25	3.75	10.75	2.75	4.25	0.00	3.00	5.00	3.00	1.25	0.25	0.00	2.50	-0.201660	0.093750	0.945312	-2.030000	15.400000	-1.260000	990.00	-0.19	-0.10	0.00	0.00	0.00	0.00	0.00	0.00	2.00	0.00	0.00	0.75	0.50	0.00	0.00	0.50	0.00	0.00	0.695801	0.513184	3.092285	-24.360001	-128.380005	-186.059998	48.00	0.00	0.00
3.44	12.75	16.50	9.50	13.25	3.75	10.50	2.75	4.75	0.00	3.25	4.75	3.00	1.25	0.25	0.00	2.75	-0.182129	0.090332	0.925781	-4.340000	16.450001	-0.980000	948.00	-0.18	-0.11	0.00	0.00	0.00	0.00	0.25	0.00	2.25	0.00	0.00	0.75	0.25	0.00	0.00	0.25	0.00	0.00	0.428223	0.677734	1.917480	-139.020004	-215.389999	-124.459999	49.00	0.00	0.00
3.45	11.50	15.00	9.00	12.75	3.50	10.25	2.75	5.00	0.00	3.00	5.00	3.00	1.50	0.00	0.00	2.50	-0.198730	0.082520	0.937500	-14.140000	15.540000	-2.800000	907.00	-0.18	-0.11	0.00	0.00	0.00	0.00	0.00	0.00	2.25	0.00	0.00	0.75	0.00	0.00	0.00	0.50	0.00	0.00	0.486816	0.741211	1.278320	-183.259995	-238.839996	-79.309998	46.00	0.00	0.00
3.46	9.75	13.00	8.50	11.75	3.25	10.00	2.75	5.25	0.25	3.50	5.50	3.00	1.50	0.50	0.00	2.75	-0.202637	0.078613	0.946777	-15.890000	13.790000	-4.200000	872.00	-0.15	-0.12	0.00	0.00	0.00	0.00	0.00	0.00	2.00	0.00	0.00	0.75	0.00	0.00	0.00	0.25	0.00	0.00	0.374512	0.799316	1.021973	-179.830002	-247.940002	-50.820000	40.00	0.00	0.00
3.47	8.50	11.50	8.00	10.75	3.50	9.75	2.75	5.50	0.00	3.50	5.50	3.25	1.75	0.75	0.00	2.75	-0.207031	0.079590	0.944336	-16.240000	11.760000	-4.830000	836.00	-0.14	-0.12	0.00	0.25	0.00	0.00	0.00	0.00	2.25	0.00	0.00	0.25	0.25	0.00	0.00	0.25	0.00	0.00	0.268066	0.816895	0.878906	-146.649994	-258.860016	-33.740002	44.00	0.00	0.00
3.48	7.75	9.75	7.75	10.25	3.25	9.75	2.75	5.50	0.00	3.75	6.00	3.50	2.00	0.75	0.00	2.75	-0.203613	0.082031	0.950684	-15.960000	9.450000	-5.600000	814.00	-0.12	-0.12	0.00	0.00	0.00	0.00	0.00	0.00	2.00	0.00	0.00	0.00	0.00	0.00	0.00	0.25	0.00	0.00	0.232422	0.651367	1.033203	-57.470001	-294.700012	-18.969999	32.00	0.00	0.00
3.49	7.00	8.50	7.25	9.25	3.50	9.75	2.75	5.75	0.25	3.75	6.00	3.50	2.25	0.75	0.00	2.75	-0.217285	0.083984	0.950195	-15.120000	7.910000	-6.300000	790.00	-0.11	-0.13	0.00	0.00	0.00	0.00	0.00	0.00	2.00	0.00	0.00	0.25	0.00	0.00	0.00	0.50	0.00	0.00	0.219238	0.528809	1.196777	-28.770000	-324.170013	-16.590000	37.00	0.00	0.00
3.50	6.00	7.50	7.00	8.75	3.25	9.50	2.75	6.00	0.50	4.00	6.50	3.75	2.25	0.75	0.25	3.00	-0.216309	0.064453	0.964844	-13.580000	7.630000	-6.720000	778.00	-0.09	-0.13	0.00	0.00	0.00	0.00	0.00	0.00	2.00	0.00	0.00	0.25	0.00	0.00	0.00	0.25	0.00	0.00	0.150391	0.446777	1.356445	-16.799999	-359.100006	-14.350000	35.00	0.00	0.00
3.51	5.50	6.75	6.50	8.25	3.50	9.50	3.00	6.25	0.75	4.25	6.75	4.00	2.75	1.00	0.25	3.00	-0.210938	0.065918	0.954102	-11.690000	7.910000	-6.860000	783.00	-0.08	-0.13	0.00	0.00	0.00	0.00	0.00	0.00	2.00	0.00	0.00	0.50	0.00	0.00	0.00	0.00	0.00	0.00	0.058594	0.403320	1.402832	-14.210000	-395.220001	-11.340000	35.00	0.00	0.00
3.52	5.00	5.50	6.25	7.75	3.50	9.25	3.00	6.50	1.00	4.50	7.25	4.25	3.00	1.25	0.25	3.00	-0.217285	0.059570	0.959961	-9.940000	8.820000	-6.860000	777.00	-0.06	-0.13	0.25	0.00	0.00	0.00	0.00	0.00	2.00	0.00	0.00	0.50	0.00	0.00	0.00	0.00	0.00	0.00	-0.051270	0.421875	1.397461	-10.990000	-425.110016	-7.910000	38.00	0.00	0.00
3.53	4.50	5.00	5.75	7.25	4.00	9.00	3.00	6.75	1.00	4.50	7.50	4.50	3.50	1.25	0.25	3.25	-0.212402	0.062500	0.951660	-7.910000	9.940000	-6.720000	774.00	-0.05	-0.13	0.00	0.00	0.00	0.00	0.00	0.00	2.00	0.00	0.00	0.25	0.00	0.00	0.00	0.00	0.00	0.00	-0.146484	0.452637	1.416992	0.770000	-448.420013	-3.500000	33.00	0.00	0.00
3.54	3.50	4.25	5.50	6.50	4.00	9.25	3.00	7.00	1.50	4.75	7.75	4.75	3.75	1.25	0.25	3.50	-0.218750	0.068848	0.958496	-5.670000	11.200000	-6.440000	770.00	-0.03	-0.13	0.00	0.00	0.00	0.00	0.00	0.00	2.00	0.00	0.00	0.50	0.00	0.00	0.00	0.00	0.00	0.00	-0.233398	0.431152	1.454102	20.020000	-469.489990	1.820000	35.00	0.00	0.00
3.55	3.00	3.75	5.25	6.25	4.00	9.25	3.25	7.25	1.50	5.25	8.00	5.25	4.75	2.25	0.50	3.50	-0.241699	0.066406	0.962891	-3.920000	12.390000	-6.300000	795.00	-0.01	-0.14	0.00	0.00	0.00	0.00	0.00	0.00	2.25	0.00	0.00	0.25	0.00	0.00	0.00	0.00	0.00	0.00	-0.351074	0.414551	1.446777	42.349998	-487.410004	7.770000	37.00	0.00	0.00
3.56	2.25	3.25	4.75	5.50	4.00	9.00	3.25	7.50	2.00	5.75	8.25	5.75	5.50	2.50	0.50	4.00	-0.198730	0.040527	0.938477	-1.750000	13.440001	-6.230000	801.00	0.01	-0.14	0.00	0.00	0.00	0.00	0.25	0.00	2.00	0.00	0.00	0.25	0.00	0.00	0.00	0.00	0.00	0.00	-0.477051	0.357910	1.402832	62.369999	-498.119995	15.120000	36.00	0.00	0.00
3.57	2.25	2.25	4.25	5.25	4.00	9.25	3.25	7.75	2.25	6.50	8.50	6.25	6.00	2.75	0.50	4.50	-0.217285	0.055176	0.955566	0.420000	14.420000	-6.650000	818.00	0.03	-0.14	0.00	0.00	0.00	0.00	0.00	0.00	2.25	0.00	0.00	0.00	0.00	0.00	0.00	0.25	0.00	0.00	-0.633301	0.331055	1.354004	75.040001	-498.119995	21.420000	36.00	0.00	0.00
3.58	1.50	1.75	4.00	5.00	4.00	9.00	3.25	8.00	2.75	7.00	9.25	7.25	6.50	3.00	0.75	4.25	-0.232910	0.081055	0.960449	2.310000	15.400000	-7.000000	839.00	0.04	-0.14	0.00	0.00	0.00	0.00	0.00	0.00	2.00	0.00	0.00	0.00	0.00	0.00	0.00	0.00	0.00	0.00	-0.782715	0.313477	1.313965	82.809998	-486.429993	25.410000	30.00	0.00	0.00
3.59	1.25	1.75	3.25	4.50	4.00	9.00	3.25	8.25	3.50	7.50	9.75	7.75	7.00	3.75	1.00	4.50	-0.200195	0.063965	0.913086	3.290000	17.219999	-7.490000	867.00	0.06	-0.14	0.25	0.25	0.00	0.00	0.00	0.00	2.00	0.00	0.00	0.00	0.00	0.00	0.00	0.00	0.00	0.00	-1.003906	0.286133	1.190918	92.190002	-463.750000	27.510000	35.00	0.00	0.00
3.60	1.00	1.00	2.50	3.50	4.00	8.75	3.25	8.50	4.25	8.00	10.50	8.50	7.50	4.75	1.00	4.75	-0.208984	0.068848	0.951660	3.710000	20.370001	-9.030000	884.00	0.08	-0.13	0.00	0.00	0.00	0.00	0.00	0.00	2.00	0.00	0.00	0.00	0.00	0.00	0.00	0.00	0.00	0.00	-1.187012	0.267090	1.223145	102.970001	-429.170013	28.350000	30.00	0.00	0.00
3.61	0.75	0.75	2.25	3.00	3.50	8.50	3.25	8.50	4.50	8.25	11.25	9.00	8.25	5.50	1.25	5.25	-0.227539	0.093262	0.947754	5.110000	24.290001	-10.500000	900.00	0.10	-0.14	0.00	0.00	0.00	0.00	0.00	0.00	2.00	0.00	0.00	0.00	0.00	0.00	0.00	0.00	0.00	0.00	-1.206543	0.239258	1.525391	111.860001	-396.970001	32.619999	30.00	0.00	0.00
3.62	0.50	0.50	1.50	3.00	3.25	8.25	3.25	8.75	5.25	8.75	12.25	10.00	8.75	6.50	1.50	5.50	-0.252930	0.086914	0.961914	7.700000	28.559999	-11.970000	938.00	0.12	-0.13	0.00	0.00	0.00	0.00	0.25	0.00	2.00	0.00	0.00	0.00	0.00	0.00	0.00	0.00	0.00	0.00	-1.075195	0.239746	1.878906	114.309998	-376.600006	39.130001	33.00	0.00	0.00
3.63	0.50	0.25	1.25	2.25	2.75	8.00	3.00	8.75	6.25	9.50	13.25	11.00	9.00	7.75	1.75	5.75	-0.205566	0.079590	0.966797	11.270000	33.529999	-13.440001	971.00	0.13	-0.13	0.00	0.00	0.00	0.00	0.00	0.00	2.00	0.00	0.00	0.00	0.00	0.00	0.00	0.00	0.00	0.00	-1.037109	0.324707	1.995117	107.239998	-359.869995	46.270000	30.00	0.00	0.00
3.64	0.25	0.25	0.75	1.75	2.00	7.75	3.00	8.75	7.50	10.00	14.25	12.25	9.75	9.00	2.00	6.00	-0.226562	0.095215	0.983398	15.820000	39.759998	-16.590000	1013.00	0.15	-0.12	0.00	0.00	0.00	0.00	0.00	0.00	2.00	0.00	0.00	0.00	0.00	0.00	0.00	0.00	0.00	0.00	-1.077148	0.342285	2.423340	107.239998	-343.910004	52.430000	30.00	0.00	0.00
3.65	0.00	0.25	0.75	1.25	1.50	7.00	2.75	8.50	8.00	10.50	15.25	13.00	10.50	10.25	2.25	6.25	-0.246094	0.100098	1.000977	22.120001	46.130001	-19.460001	1035.00	0.17	-0.12	0.00	0.00	0.00	0.00	0.00	0.00	2.00	0.00	0.00	0.00	0.00	0.00	0.00	0.00	0.00	0.00	-1.148438	0.355957	3.077148	123.760002	-349.440002	53.619999	30.00	0.00	0.00
3.66	0.00	0.00	0.50	1.25	1.25	6.75	2.50	8.25	8.50	11.00	16.50	14.25	11.25	11.75	2.75	6.50	-0.235840	0.182129	0.980957	48.720001	70.769997	-16.730000	1081.00	0.18	-0.12	0.00	0.00	0.00	0.00	0.00	0.00	2.00	0.00	0.00	0.00	0.00	0.00	0.00	0.00	0.00	0.00	-1.317871	0.280762	3.179688	135.309998	-375.549988	49.770000	30.00	0.00	0.00
