# time	left pressure 1[N/cm²]	left pressure 2[N/cm²]	left pressure 3[N/cm²]	left pressure 4[N/cm²]	left pressure 5[N/cm²]	left pressure 6[N/cm²]	left pressure 7[N/cm²]	left pressure 8[N/cm²]	left pressure 9[N/cm²]	left pressure 10[N/cm²]	left pressure 11[N/cm²]	left pressure 12[N/cm²]	left pressure 13[N/cm²]	left pressure 14[N/cm²]	left pressure 15[N/cm²]	left pressure 16[N/cm²]	left acceleration X[g]	left acceleration Y[g]	left acceleration Z[g]	left angular X[dps]	left angular Y[dps]	left angular Z[dps]	left total force[N]	left center of pressure X[%]	left center of pressure Y[%]	right pressure 1[N/cm²]	right pressure 2[N/cm²]	right pressure 3[N/cm²]	right pressure 4[N/cm²]	right pressure 5[N/cm²]	right pressure 6[N/cm²]	right pressure 7[N/cm²]	right pressure 8[N/cm²]	right pressure 9[N/cm²]	right pressure 10[N/cm²]	right pressure 11[N/cm²]	right pressure 12[N/cm²]	right pressure 13[N/cm²]	right pressure 14[N/cm²]	right pressure 15[N/cm²]	right pressure 16[N/cm²]	right acceleration X[g]	right acceleration Y[g]	right acceleration Z[g]	right angular X[dps]	right angular Y[dps]	right angular Z[dps]	right total force[N]	right center of pressure X[%]	right center of pressure Y[%]
0.00																										12.00	8.50	6.00	6.25	3.50	1.75	1.00	0.50	2.00	1.25	1.50	1.00	1.00	2.50	1.50	0.50	-0.264648	0.054199	0.934570	-3.360000	0.630000	-0.210000	581.00	-0.18	-0.02
0.01																										12.25	8.50	6.50	6.25	3.50	1.50	1.00	0.50	2.25	1.25	1.50	1.25	1.00	2.75	1.50	0.25	-0.260742	0.053711	0.939941	-3.360000	0.560000	-0.210000	595.00	-0.17	-0.01
0.02																										12.50	8.50	6.25	6.25	3.50	1.75	0.75	0.50	2.00	1.50	1.50	1.25	0.75	2.50	1.50	0.50	-0.266113	0.048828	0.942871	-3.360000	0.700000	-0.280000	589.00	-0.18	-0.02
0.03	6.00	6.50	4.00	4.25	2.25	1.25	0.75	0.00	0.25	1.00	1.75	0.75	0.00	0.50	0.00	0.00	-0.289062	0.004883	0.937012	-2.800000	4.690000	1.050000	336.00	-0.22	-0.04	12.50	8.50	6.25	6.25	3.50	2.00	1.00	0.50	2.25	1.25	1.25	1.00	1.00	2.50	1.50	0.50	-0.266602	0.051758	0.941406	-3.150000	0.770000	-0.210000	594.00	-0.18	-0.02
0.04	6.00	6.75	3.25	4.50	2.25	1.00	1.00	0.00	0.50	1.00	1.75	0.75	0.00	0.50	0.00	0.00	-0.289062	0.004883	0.937012	-2.800000	4.690000	1.050000	337.00	-0.22	-0.03	12.25	8.50	6.25	6.50	3.50	1.75	1.00	0.75	2.00	1.50	1.50	1.25	0.75	2.25	1.50	0.75	-0.265137	0.055664	0.935547	-3.150000	0.840000	-0.210000	597.00	-0.18	-0.02
0.05	6.00	6.50	3.25	4.75	2.25	1.25	1.00	0.25	0.75	1.25	1.50	1.00	0.00	0.75	0.00	0.25	-0.287598	0.008301	0.936523	-2.800000	4.620000	1.190000	355.00	-0.20	-0.04	13.25	8.50	6.25	6.25	3.50	2.00	1.00	0.50	1.75	1.25	1.50	1.00	0.75	2.50	1.50	0.50	-0.266602	0.057129	0.937500	-3.080000	0.700000	-0.000000	596.00	-0.19	-0.02
0.06	6.00	6.50	3.25	4.50	2.25	1.00	0.75	0.00	0.50	0.75	1.25	1.00	0.00	0.75	0.00	0.25	-0.288086	0.003906	0.930176	-2.800000	4.690000	1.190000	328.00	-0.22	-0.04	13.25	8.50	6.50	6.50	3.50	2.00	1.00	0.50	2.00	1.75	1.50	1.25	0.50	2.50	1.50	0.50	-0.269043	0.052246	0.939941	-3.080000	0.770000	-0.000000	612.00	-0.18	-0.01
0.07	6.00	6.75	3.25	4.50	2.25	1.50	0.75	0.25	0.50	1.00	1.25	1.25	0.00	0.75	0.00	0.00	-0.286621	0.001465	0.940430	-2.940000	4.830000	0.980000	345.00	-0.21	-0.05	12.75	8.75	6.50	6.50	3.50	2.00	0.75	0.50	2.25	1.25	1.25	1.25	1.00	2.50	1.50	0.50	-0.269043	0.052734	0.940918	-3.080000	1.050000	-0.140000	604.00	-0.18	-0.02
0.08	6.00	7.00	3.25	5.00	2.25	1.50	1.00	0.00	0.75	0.50	1.25	0.75	0.00	0.50	0.00	0.25	-0.289062	0.010254	0.933594	-2.800000	4.620000	1.050000	345.00	-0.23	-0.04	13.50	8.75	6.50	6.75	3.50	2.00	0.75	0.50	2.25	1.50	1.50	1.00	0.50	2.50	1.50	0.50	-0.264160	0.053223	0.945312	-3.220000	0.980000	-0.210000	614.00	-0.19	-0.01
0.09	6.00	6.75	3.25	4.25	2.25	1.50	1.00	0.25	0.50	1.00	1.50	1.00	0.00	0.75	0.00	0.00	-0.286621	0.006836	0.926270	-2.800000	4.550000	1.050000	346.00	-0.21	-0.04	13.25	8.50	6.50	6.75	3.50	1.75	1.00	0.50	2.00	1.25	1.50	1.25	0.75	2.75	1.50	0.50	-0.265625	0.054199	0.941895	-3.080000	0.910000	-0.210000	611.00	-0.18	-0.02
0.10	6.50	6.75	3.25	4.50	2.25	1.25	0.75	0.00	0.25	1.00	1.50	0.75	0.00	0.50	0.00	0.25	-0.291504	0.010742	0.938477	-2.940000	4.620000	0.980000	336.00	-0.23	-0.04	13.50	8.75	6.50	6.50	3.25	1.75	1.00	0.50	2.00	1.25	1.25	1.25	0.75	2.50	1.75	0.25	-0.263672	0.053711	0.936523	-3.010000	0.840000	-0.070000	606.00	-0.19	-0.02
0.11	6.25	7.00	3.50	4.75	2.25	1.50	1.00	0.00	0.50	1.00	1.25	1.00	0.00	0.50	0.00	0.25	-0.290527	0.006836	0.932129	-2.940000	4.620000	1.050000	353.00	-0.22	-0.04	13.00	8.75	6.75	6.75	3.50	2.00	1.00	0.50	2.25	1.25	1.25	1.25	0.75	2.75	1.50	0.75	-0.258789	0.051758	0.941406	-3.010000	0.770000	-0.140000	618.00	-0.18	-0.02
0.12	6.50	7.00	3.25	4.75	2.25	1.25	1.00	0.00	0.50	0.75	1.00	0.75	0.00	0.50	0.00	0.00	-0.286133	0.009766	0.930176	-2.870000	4.620000	1.050000	339.00	-0.24	-0.04	14.00	8.75	6.75	6.50	3.50	1.75	1.00	0.50	2.25	1.25	1.50	1.25	0.75	2.50	1.50	0.25	-0.268066	0.057617	0.936035	-3.080000	0.770000	-0.140000	621.00	-0.19	-0.01
0.13	6.50	7.00	3.50	4.75	2.25	1.25	1.00	0.00	0.75	1.00	1.50	1.00	0.00	0.25	0.00	0.00	-0.283691	0.008789	0.931152	-2.870000	4.690000	1.050000	355.00	-0.22	-0.04	14.50	8.75	6.50	6.75	3.50	2.00	1.00	0.50	2.25	1.50	1.50	1.00	1.00	2.50	1.50	0.50	-0.264160	0.056152	0.930664	-3.080000	0.770000	-0.140000	634.00	-0.18	-0.01
0.14	6.25	7.00	3.50	4.50	2.25	1.25	1.00	0.25	0.75	0.75	1.25	0.75	0.00	0.75	0.00	0.00	-0.289062	0.000000	0.929688	-2.870000	4.690000	1.120000	350.00	-0.22	-0.03	14.25	8.75	6.75	7.00	3.50	2.00	1.00	0.50	2.25	1.50	1.50	1.00	0.75	2.50	1.50	0.75	-0.263672	0.050781	0.940918	-3.010000	0.840000	-0.140000	636.00	-0.18	-0.01
0.15	6.50	7.00	3.50	4.50	2.25	1.25	0.75	0.00	0.50	1.00	1.50	0.75	0.00	0.50	0.00	0.25	-0.284668	0.010742	0.931641	-2.870000	4.690000	0.980000	345.00	-0.23	-0.04	14.00	8.75	6.75	6.75	3.50	1.75	1.00	0.50	2.00	1.25	1.50	1.50	1.00	2.75	1.50	0.50	-0.263672	0.048340	0.941406	-3.080000	0.910000	-0.280000	630.00	-0.18	-0.02
0.16	6.25	7.00	3.50	4.75	2.25	1.50	0.75	0.25	0.50	1.00	1.25	0.75	0.00	0.50	0.00	0.25	-0.285645	0.003418	0.939941	-2.800000	4.690000	1.050000	350.00	-0.23	-0.05	13.75	8.75	6.75	7.00	3.50	2.00	1.00	0.50	2.25	1.50	1.50	1.00	1.00	2.50	1.50	0.50	-0.264648	0.054199	0.937500	-3.080000	0.840000	-0.210000	631.00	-0.18	-0.02
0.17	6.25	7.00	3.25	4.75	2.50	1.25	0.75	0.00	0.50	1.00	1.25	1.00	0.00	0.50	0.00	0.00	-0.290039	0.007812	0.937988	-2.800000	4.760000	1.050000	344.00	-0.23	-0.04	14.75	9.00	6.75	7.00	3.50	2.00	1.00	0.50	2.25	1.50	1.25	1.00	1.25	2.50	1.50	0.50	-0.270020	0.052734	0.939941	-3.080000	0.840000	-0.210000	645.00	-0.19	-0.02
0.18	6.25	6.75	3.50	4.00	2.25	1.00	1.00	0.25	0.50	0.75	1.50	1.00	0.00	0.75	0.00	0.25	-0.290039	0.005859	0.937500	-2.730000	4.620000	1.120000	342.00	-0.21	-0.03	14.50	9.00	6.50	6.75	3.50	2.00	1.00	0.50	2.25	1.50	1.25	1.00	1.00	2.25	1.50	0.25	-0.265137	0.053223	0.941406	-2.940000	0.630000	-0.000000	630.00	-0.19	-0.01
0.19	6.50	7.25	3.50	4.25	2.25	1.25	0.75	0.25	0.50	0.75	1.25	1.00	0.00	0.50	0.00	0.25	-0.291016	0.006836	0.931152	-2.800000	4.830000	0.980000	346.00	-0.23	-0.04	14.25	9.00	7.00	7.00	4.00	2.00	1.00	0.75	2.50	1.25	1.50	1.00	0.75	2.75	1.50	0.50	-0.265137	0.052734	0.940430	-2.800000	0.700000	-0.000000	653.00	-0.18	-0.01
0.20	6.50	7.00	3.25	4.25	2.25	1.25	1.00	0.00	0.75	0.75	1.50	0.75	0.00	0.75	0.00	0.00	-0.285645	0.003906	0.937012	-2.730000	4.900000	1.120000	345.00	-0.22	-0.03	14.00	9.00	6.50	7.00	3.75	1.75	1.00	0.25	2.25	1.50	1.50	1.00	0.75	2.50	1.50	0.50	-0.265625	0.052734	0.936523	-2.940000	0.700000	-0.070000	627.00	-0.19	-0.01
0.21	6.50	7.25	3.50	4.50	2.25	1.00	1.00	0.00	0.50	1.00	1.25	1.00	0.00	0.75	0.00	0.00	-0.291992	0.004883	0.942383	-2.870000	4.830000	1.120000	350.00	-0.22	-0.03	14.75	9.00	7.00	7.00	3.75	2.00	0.75	0.50	2.25	1.50	1.50	1.00	0.50	2.75	1.50	0.50	-0.264160	0.056641	0.946289	-2.870000	0.700000	-0.000000	645.00	-0.19	-0.01
0.22	6.50	7.00	3.25	4.25	2.25	1.25	0.75	0.00	0.50	0.75	1.25	1.00	0.00	0.75	0.00	0.00	-0.288574	0.010254	0.937988	-2.800000	4.900000	1.050000	337.00	-0.23	-0.04	15.25	9.25	7.25	7.25	3.75	2.00	1.00	0.75	2.25	1.25	1.50	1.00	1.00	2.50	1.50	0.50	-0.261719	0.055176	0.942383	-2.730000	0.630000	-0.000000	667.00	-0.19	-0.02
0.23	6.25	6.75	3.25	4.25	2.25	1.00	0.75	0.00	0.75	1.00	1.25	1.00	0.00	0.75	0.00	0.25	-0.282227	0.001465	0.941895	-2.800000	4.830000	1.050000	337.00	-0.21	-0.03	14.75	9.25	7.00	7.00	3.75	2.00	1.00	0.75	2.25	1.50	1.25	1.00	1.00	2.50	1.50	0.25	-0.266113	0.047852	0.945312	-2.730000	0.770000	0.070000	654.00	-0.19	-0.02
0.24	6.25	6.75	3.25	4.25	2.25	1.00	0.75	0.00	0.75	0.75	1.25	0.50	0.00	0.50	0.00	0.00	-0.286133	0.005371	0.938965	-2.730000	4.760000	1.120000	325.00	-0.23	-0.03	15.50	9.25	7.00	7.00	3.75	2.00	1.00	0.50	2.00	1.50	1.25	1.25	0.75	2.75	1.50	0.50	-0.265137	0.053711	0.934570	-2.730000	0.700000	-0.000000	659.00	-0.19	-0.01
0.25	6.25	6.75	3.25	4.25	2.25	0.75	1.00	0.00	0.75	0.75	1.25	1.00	0.00	0.50	0.00	0.00	-0.289551	0.009766	0.939453	-2.730000	4.760000	1.120000	331.00	-0.22	-0.03	15.00	9.25	7.00	7.00	3.75	2.00	1.00	0.50	2.00	1.25	1.50	1.25	0.75	2.50	1.50	0.50	-0.266113	0.048340	0.946777	-2.730000	0.770000	-0.070000	651.00	-0.19	-0.02
0.26	6.25	6.75	3.25	4.00	2.25	1.25	0.75	0.00	0.25	0.75	1.50	0.50	0.00	0.50	0.00	0.25	-0.288574	0.005371	0.929199	-2.800000	4.760000	1.050000	322.00	-0.23	-0.04	15.50	9.25	7.25	7.25	3.50	2.00	0.75	0.50	2.25	1.50	1.50	1.25	1.00	2.50	1.50	0.50	-0.263184	0.048828	0.938477	-2.800000	0.840000	-0.070000	664.00	-0.19	-0.02
0.27	6.00	6.75	3.25	3.25	2.25	0.75	0.75	0.00	0.50	1.00	1.25	0.50	0.00	0.50	0.00	0.00	-0.289551	0.007324	0.930664	-2.800000	4.760000	1.120000	306.00	-0.23	-0.02	15.50	9.25	7.25	7.25	3.75	2.00	1.00	0.50	1.75	1.25	1.25	1.00	1.00	2.50	1.50	0.50	-0.258789	0.062012	0.939941	-2.800000	0.770000	0.070000	655.00	-0.20	-0.02
0.28	6.00	7.00	3.25	4.25	2.25	1.25	0.75	0.00	0.25	0.75	1.50	0.50	0.00	0.50	0.00	0.00	-0.283203	0.004883	0.935059	-2.870000	4.760000	1.120000	323.00	-0.24	-0.04	15.25	9.25	7.00	7.25	3.75	2.00	1.00	0.75	2.00	1.50	1.50	1.00	0.75	2.75	1.50	0.50	-0.264648	0.057129	0.938965	-2.870000	0.770000	-0.070000	663.00	-0.19	-0.02
0.29	6.25	6.75	3.50	4.25	2.25	1.00	0.75	0.00	0.50	0.75	1.25	0.75	0.00	0.50	0.00	0.00	-0.290039	0.009766	0.937988	-2.800000	4.760000	1.120000	327.00	-0.23	-0.03	15.25	9.50	7.25	7.25	3.75	2.00	1.00	0.50	2.25	1.50	1.25	1.00	1.00	2.50	1.50	0.50	-0.263672	0.050293	0.940430	-2.800000	0.910000	-0.140000	665.00	-0.19	-0.01
0.30	6.25	6.75	3.00	4.50	2.00	1.00	1.00	0.00	0.50	0.75	1.00	0.50	0.00	0.50	0.00	0.25	-0.289062	0.004395	0.930176	-2.800000	4.830000	1.120000	321.00	-0.24	-0.03	15.50	9.25	7.25	7.25	3.75	2.00	1.00	0.50	2.25	1.25	1.50	0.75	1.00	2.50	1.50	0.50	-0.263184	0.053711	0.938965	-2.870000	0.910000	-0.070000	662.00	-0.20	-0.01
0.31	6.25	6.75	3.00	4.25	2.25	1.00	0.75	0.00	0.25	0.50	1.00	0.50	0.00	0.25	0.00	0.00	-0.288574	0.009277	0.936523	-2.590000	4.760000	1.190000	306.00	-0.26	-0.04	15.25	9.75	7.00	7.25	3.75	2.00	1.00	0.75	1.75	1.25	1.50	1.00	0.75	2.50	1.50	0.75	-0.264648	0.054688	0.944824	-2.800000	0.840000	-0.070000	661.00	-0.20	-0.02
0.32	6.25	6.75	3.00	4.00	2.00	1.00	0.75	0.00	0.25	0.75	1.25	0.75	0.00	0.25	0.00	0.25	-0.289551	0.005371	0.930664	-2.590000	4.900000	1.260000	310.00	-0.24	-0.04	15.25	9.50	7.25	7.25	3.75	2.00	1.00	0.50	2.25	1.50	1.50	1.00	0.75	2.50	1.50	0.75	-0.262207	0.055176	0.937988	-2.870000	0.980000	-0.070000	667.00	-0.19	-0.01
0.33	6.25	6.75	3.50	4.25	2.00	0.75	0.75	0.00	0.25	0.75	1.00	0.50	0.00	0.25	0.00	0.00	-0.284668	0.004395	0.931641	-2.450000	4.970000	1.260000	309.00	-0.25	-0.03	15.25	9.50	7.25	7.25	3.75	2.00	1.00	0.50	2.25	1.50	1.25	1.25	0.75	2.75	1.50	0.50	-0.261230	0.055176	0.936523	-2.940000	0.910000	-0.280000	668.00	-0.19	-0.01
0.34	6.25	6.75	3.25	4.00	2.25	0.75	0.75	0.00	0.25	0.75	1.25	0.75	0.00	0.25	0.00	0.25	-0.288086	0.005371	0.933105	-2.590000	5.110000	1.260000	313.00	-0.24	-0.04	15.25	9.75	7.25	7.25	3.75	2.00	1.00	0.50	2.25	1.25	1.50	1.25	1.00	2.75	1.50	0.50	-0.264648	0.054688	0.937500	-2.940000	0.840000	-0.070000	673.00	-0.19	-0.02
0.35	6.25	6.75	3.25	4.00	2.00	0.75	0.75	0.00	0.25	0.75	1.25	0.75	0.00	0.50	0.00	0.00	-0.287109	0.005371	0.932129	-2.660000	5.180000	1.120000	311.00	-0.24	-0.03	14.75	9.75	7.25	7.00	3.75	2.25	1.00	0.50	2.25	1.25	1.50	1.25	1.00	2.50	1.50	0.50	-0.266602	0.053223	0.937012	-2.940000	0.980000	-0.210000	665.00	-0.19	-0.02
0.36	6.25	7.00	3.25	3.00	2.00	0.50	0.75	0.00	0.50	0.50	1.25	0.75	0.00	0.25	0.00	0.00	-0.290527	0.009766	0.932617	-2.660000	5.110000	1.050000	297.00	-0.24	-0.02	14.50	9.75	7.25	7.50	4.25	2.00	1.00	0.50	2.25	1.50	1.50	1.25	1.00	2.50	1.25	0.75	-0.266602	0.049316	0.940430	-3.080000	1.050000	-0.210000	672.00	-0.19	-0.02
0.37	6.25	6.75	3.00	4.25	2.00	0.25	0.75	0.00	0.25	0.50	1.00	0.50	0.00	0.50	0.00	0.00	-0.291992	0.005859	0.931152	-2.590000	4.760000	1.260000	297.00	-0.26	-0.03	15.25	9.50	7.25	7.25	4.00	2.00	1.00	0.75	2.50	1.25	1.25	1.25	1.00	2.75	1.50	0.50	-0.265625	0.051270	0.936035	-3.010000	1.050000	-0.280000	678.00	-0.19	-0.02
0.38	6.25	6.75	3.00	3.75	2.00	0.75	0.75	0.00	0.25	1.00	1.25	0.50	0.00	0.50	0.00	0.00	-0.293945	0.010742	0.937500	-2.520000	4.620000	1.190000	305.00	-0.24	-0.03	14.75	9.50	7.25	7.25	4.00	2.00	1.00	0.75	2.00	1.25	1.50	1.25	1.00	2.50	1.50	0.50	-0.265625	0.051758	0.937988	-3.010000	0.910000	-0.210000	666.00	-0.19	-0.02
0.39	6.25	6.75	3.25	4.25	2.00	0.75	0.75	0.00	0.50	0.75	1.25	0.75	0.00	0.50	0.00	0.00	-0.288574	0.009277	0.932617	-2.590000	4.760000	1.120000	318.00	-0.23	-0.03	14.75	9.50	7.25	7.50	4.00	2.00	1.00	0.50	2.50	1.50	1.50	1.00	1.00	2.50	1.25	0.50	-0.264160	0.056152	0.941406	-3.220000	0.980000	-0.280000	669.00	-0.19	-0.01
0.40	6.00	6.75	3.00	4.00	2.00	1.00	0.75	0.00	0.50	0.75	1.25	0.50	0.00	0.50	0.00	0.00	-0.293457	0.006348	0.932617	-2.660000	4.970000	1.120000	309.00	-0.24	-0.03	14.75	9.50	7.00	7.50	4.25	2.25	1.00	0.50	2.25	1.50	1.50	1.25	1.00	2.75	1.75	0.75	-0.268066	0.052246	0.942871	-3.290000	0.980000	-0.210000	681.00	-0.18	-0.02
0.41	6.50	6.75	3.00	4.00	2.00	0.75	0.75	0.00	0.25	0.75	1.25	0.50	0.00	0.50	0.00	0.00	-0.289551	0.006348	0.934082	-2.590000	4.900000	1.120000	308.00	-0.25	-0.03	14.75	9.50	7.25	7.50	4.00	2.25	1.00	0.75	2.25	1.50	1.50	1.25	0.75	2.50	1.75	0.50	-0.261230	0.053711	0.938477	-3.150000	0.980000	-0.140000	679.00	-0.19	-0.02
0.42	6.25	6.75	3.00	4.25	2.25	0.25	0.75	0.00	0.25	0.75	1.00	0.50	0.00	0.50	0.00	0.00	-0.292969	0.009766	0.935547	-2.660000	4.830000	1.050000	303.00	-0.25	-0.03	15.00	9.50	7.25	7.25	4.00	2.00	1.00	0.50	2.25	1.50	1.50	1.50	0.75	2.75	1.75	0.25	-0.264160	0.053711	0.937988	-3.290000	1.050000	-0.210000	675.00	-0.19	-0.01
0.43	6.25	6.75	3.00	3.75	2.00	0.50	0.75	0.00	0.50	1.00	0.75	0.50	0.00	0.25	0.00	0.00	-0.288574	0.008301	0.926758	-2.730000	4.690000	0.980000	298.00	-0.25	-0.02	14.75	9.50	7.00	7.50	4.25	2.25	1.00	0.75	2.25	1.50	1.50	1.25	1.25	2.75	1.50	0.50	-0.269531	0.052246	0.939453	-3.360000	0.980000	-0.070000	683.00	-0.18	-0.02
0.44	6.25	7.00	3.25	4.00	2.00	0.75	1.00	0.00	0.25	0.50	1.00	0.75	0.00	0.50	0.00	0.25	-0.286621	0.008301	0.929688	-2.800000	4.760000	1.050000	314.00	-0.24	-0.03	14.50	9.25	7.25	7.25	4.25	2.00	1.00	0.50	2.00	1.50	1.50	1.25	1.25	2.75	1.50	0.50	-0.262695	0.053223	0.934082	-3.290000	0.980000	-0.280000	667.00	-0.18	-0.02
0.45	6.25	7.00	3.00	3.75	2.00	0.25	0.75	0.00	0.00	0.75	1.25	0.50	0.00	0.50	0.00	0.00	-0.291992	0.003418	0.930664	-2.800000	4.830000	1.120000	295.00	-0.25	-0.03	14.25	9.25	7.00	7.50	4.75	2.25	1.00	0.50	2.50	1.50	1.50	1.00	0.50	2.75	1.75	0.50	-0.264160	0.049805	0.938477	-3.360000	1.050000	-0.350000	673.00	-0.18	-0.01
0.46	6.25	6.75	3.25	4.00	2.00	0.25	0.75	0.00	0.25	1.00	1.50	0.75	0.00	0.25	0.00	0.00	-0.289551	0.006348	0.930664	-2.800000	4.760000	1.120000	309.00	-0.24	-0.03	15.25	9.25	7.25	7.50	4.50	2.00	1.00	0.75	2.25	1.75	1.50	1.25	1.00	2.75	1.75	0.75	-0.271973	0.054199	0.940430	-3.360000	0.840000	-0.210000	694.00	-0.18	-0.02
0.47	6.00	6.75	3.00	3.75	2.00	0.75	0.75	0.00	0.50	0.75	1.00	0.50	0.00	0.75	0.00	0.00	-0.288086	0.003418	0.934570	-2.800000	4.830000	1.190000	303.00	-0.24	-0.03	14.75	9.25	7.25	7.25	4.50	2.00	1.00	0.75	2.25	1.50	1.50	1.25	1.25	3.00	1.50	0.50	-0.269531	0.055664	0.935059	-3.360000	0.910000	-0.210000	683.00	-0.18	-0.02
0.48	6.25	6.75	3.00	3.75	2.00	0.50	0.75	0.00	0.50	0.75	1.25	0.25	0.00	0.50	0.00	0.00	-0.286133	0.008301	0.931641	-2.870000	4.970000	1.050000	300.00	-0.24	-0.02	14.50	9.00	7.50	7.50	4.50	2.25	1.00	0.75	2.50	1.50	1.50	1.25	1.50	2.75	1.75	0.75	-0.263184	0.049316	0.935547	-3.220000	0.840000	-0.140000	694.00	-0.17	-0.02
0.49	6.00	6.75	2.75	3.75	2.00	0.75	0.75	0.00	0.25	0.50	1.00	0.50	0.00	0.50	0.00	0.25	-0.290527	0.008789	0.931152	-2.940000	4.970000	0.980000	292.00	-0.25	-0.04	14.50	9.25	7.25	7.25	4.50	2.00	1.00	0.50	2.50	1.50	1.50	1.25	1.25	2.75	1.50	0.50	-0.265625	0.053223	0.945312	-3.360000	1.050000	-0.210000	677.00	-0.18	-0.02
0.50	6.00	6.50	3.00	3.75	2.00	0.50	0.75	0.00	0.50	0.75	1.25	0.75	0.00	0.50	0.00	0.00	-0.289551	0.003418	0.933594	-2.870000	4.760000	0.980000	301.00	-0.23	-0.03	15.25	9.25	7.25	7.50	4.50	2.25	1.00	0.50	2.50	1.50	1.50	1.00	1.25	2.75	1.50	0.75	-0.270996	0.056152	0.940918	-3.220000	0.840000	-0.140000	690.00	-0.18	-0.02
0.51	6.00	6.50	3.00	3.75	2.00	0.50	0.75	0.00	0.25	0.75	1.25	0.75	0.00	0.50	0.00	0.25	-0.288086	0.006348	0.930176	-2.870000	4.550000	1.050000	298.00	-0.23	-0.03	14.50	9.00	7.50	7.25	4.25	2.25	1.00	0.50	2.50	1.50	1.75	1.50	1.00	2.75	1.75	0.75	-0.260742	0.047363	0.937500	-3.220000	0.840000	-0.070000	685.00	-0.17	-0.02
0.52	6.00	6.25	2.50	3.00	1.75	0.00	0.75	0.00	0.50	0.75	1.00	0.75	0.00	0.25	0.00	0.25	-0.289062	0.003418	0.933594	-2.870000	4.480000	1.120000	270.00	-0.24	-0.02	15.25	9.25	7.25	7.25	4.75	2.25	1.00	0.75	2.25	1.50	1.50	1.25	1.25	2.75	1.50	0.50	-0.262695	0.049316	0.936523	-3.290000	0.980000	-0.140000	692.00	-0.18	-0.02
0.53	6.00	6.50	2.75	3.25	1.75	0.50	0.75	0.00	0.50	0.75	1.00	0.50	0.00	0.50	0.00	0.00	-0.291016	0.005371	0.931641	-3.010000	4.760000	0.980000	283.00	-0.24	-0.02	14.50	9.25	7.50	7.25	4.75	2.25	1.00	0.75	2.50	1.50	1.75	1.25	1.00	2.75	1.75	0.75	-0.260742	0.055664	0.938477	-3.290000	0.840000	-0.210000	695.00	-0.17	-0.02
0.54	6.00	6.50	2.75	3.50	2.00	0.25	0.75	0.00	0.50	0.75	1.25	0.75	0.00	0.25	0.00	0.00	-0.289062	0.008301	0.933105	-2.940000	4.760000	1.050000	289.00	-0.24	-0.03	15.25	9.00	7.50	7.25	4.75	2.25	1.00	0.75	2.75	1.50	1.50	1.50	0.75	2.75	1.25	0.50	-0.266113	0.055664	0.934570	-3.430000	0.910000	-0.210000	695.00	-0.18	-0.01
0.55	6.00	6.50	3.00	3.75	1.75	0.75	0.75	0.00	0.25	1.00	1.25	0.25	0.00	0.00	0.00	0.25	-0.294922	0.003906	0.936035	-2.940000	4.690000	0.980000	291.00	-0.25	-0.03	15.00	9.50	7.50	7.50	4.75	2.25	1.00	0.75	2.25	1.50	1.50	1.25	1.25	2.75	1.75	0.75	-0.264648	0.052246	0.943848	-3.290000	0.910000	-0.280000	702.00	-0.18	-0.02
0.56	6.00	6.50	2.75	3.25	2.00	0.75	0.75	0.00	0.50	0.75	1.00	0.75	0.00	0.75	0.00	0.25	-0.288086	0.009277	0.933594	-2.870000	4.620000	0.980000	295.00	-0.23	-0.03	15.50	9.50	7.25	7.25	4.75	2.00	1.00	0.50	2.25	1.50	1.50	1.25	1.00	2.75	1.75	0.50	-0.265625	0.053711	0.932617	-3.360000	0.910000	-0.210000	691.00	-0.19	-0.01
0.57	6.00	6.50	2.75	3.25	1.75	0.25	0.75	0.00	0.50	0.75	1.00	0.50	0.00	0.50	0.00	0.00	-0.292969	0.006348	0.935059	-2.870000	4.760000	1.190000	280.00	-0.24	-0.02	15.00	9.50	7.50	7.25	4.75	2.25	1.00	0.75	2.50	1.50	1.50	1.25	1.00	2.50	1.50	0.50	-0.265625	0.046875	0.939941	-3.080000	0.840000	-0.210000	694.00	-0.18	-0.02
0.58	6.00	6.50	2.50	3.25	1.75	0.75	0.75	0.00	0.50	1.00	1.00	0.50	0.00	0.50	0.00	0.00	-0.290039	0.008789	0.933594	-2.870000	4.760000	1.120000	285.00	-0.23	-0.03	15.50	9.25	7.50	7.50	4.75	2.00	1.00	0.50	2.50	1.50	1.25	1.25	1.50	2.75	1.75	0.50	-0.266602	0.050293	0.942383	-3.290000	0.770000	-0.070000	700.00	-0.18	-0.01
0.59	6.00	6.25	2.75	3.50	2.00	0.50	0.75	0.00	0.25	0.50	1.00	0.75	0.00	0.75	0.00	0.00	-0.291016	0.006836	0.930664	-2.870000	4.690000	1.120000	285.00	-0.24	-0.03	15.50	9.25	7.50	7.50	5.00	2.00	1.00	0.75	2.25	1.75	1.50	1.25	1.25	3.00	1.50	0.50	-0.261719	0.051758	0.938477	-3.290000	0.840000	-0.000000	706.00	-0.18	-0.02
0.60	6.00	6.50	2.50	3.25	1.75	0.75	0.75	0.00	0.50	0.75	1.00	0.50	0.00	0.50	0.00	0.00	-0.289551	0.004395	0.931152	-2.940000	4.620000	0.980000	283.00	-0.24	-0.03	15.50	9.50	7.50	7.25	5.00	2.25	1.00	0.75	2.25	1.50	1.50	1.00	1.25	2.75	1.75	0.50	-0.266113	0.051270	0.941895	-3.150000	0.770000	-0.070000	703.00	-0.18	-0.02
0.61	6.00	6.50	2.75	3.25	2.00	0.25	0.75	0.00	0.50	1.00	1.00	0.50	0.00	0.50	0.00	0.00	-0.293945	0.010742	0.933594	-2.940000	4.760000	0.980000	286.00	-0.23	-0.02	15.25	10.00	7.50	7.50	5.00	2.25	1.00	0.75	2.50	1.50	1.50	1.25	1.00	2.75	1.75	0.50	-0.266113	0.055664	0.940918	-3.150000	0.630000	0.070000	713.00	-0.18	-0.02
0.62	5.75	6.25	2.50	3.25	2.00	0.50	0.75	0.00	0.75	0.75	1.00	0.75	0.00	0.50	0.00	0.25	-0.290527	0.005371	0.935547	-2.940000	4.900000	1.050000	285.00	-0.22	-0.02	15.75	9.75	7.50	7.25	4.75	2.00	1.00	0.50	2.25	1.50	1.75	1.25	1.00	2.50	1.50	0.75	-0.264648	0.053223	0.935547	-3.150000	0.630000	-0.000000	698.00	-0.19	-0.01
0.63	5.75	6.25	2.75	3.50	1.75	0.75	0.75	0.00	0.50	0.75	1.25	0.50	0.00	0.25	0.00	0.00	-0.285645	0.006836	0.934082	-2.940000	4.830000	1.120000	284.00	-0.24	-0.03	15.50	9.75	7.50	7.50	5.00	2.25	1.00	0.75	2.50	1.50	1.75	0.75	0.75	3.00	1.25	0.50	-0.263672	0.052246	0.944824	-3.220000	0.770000	-0.140000	704.00	-0.19	-0.01
0.64	6.00	6.25	2.75	3.25	2.00	0.25	0.75	0.00	0.75	0.75	1.25	0.75	0.00	0.50	0.00	0.00	-0.288086	0.009766	0.932129	-2.800000	4.620000	0.980000	290.00	-0.22	-0.02	16.25	10.25	7.50	7.50	5.00	2.25	1.00	0.50	2.50	1.50	1.50	1.50	1.00	2.75	1.50	0.75	-0.259277	0.054199	0.938965	-3.360000	0.560000	-0.000000	724.00	-0.19	-0.02
0.65	6.00	6.50	2.50	3.00	2.00	0.50	0.75	0.00	0.50	0.75	1.00	0.75	0.00	0.50	0.00	0.25	-0.291992	0.002930	0.932617	-2.730000	4.480000	1.120000	284.00	-0.23	-0.02	16.00	10.00	7.75	7.25	5.00	2.25	1.00	0.50	2.25	1.50	1.75	1.25	1.00	2.75	1.75	0.25	-0.256348	0.053223	0.936523	-3.290000	0.700000	-0.000000	715.00	-0.19	-0.01
0.66	6.00	6.25	2.50	3.75	1.75	0.50	0.75	0.00	0.50	0.75	1.25	0.50	0.00	0.50	0.00	0.00	-0.288574	0.006836	0.933594	-2.730000	4.620000	1.190000	286.00	-0.23	-0.03	16.00	9.75	7.75	7.50	5.00	2.00	1.00	0.50	2.50	1.25	1.25	1.50	1.00	3.00	1.75	0.50	-0.264160	0.052734	0.946289	-3.220000	0.700000	-0.070000	714.00	-0.19	-0.01
0.67	5.75	6.25	2.75	3.25	2.00	0.50	0.75	0.00	0.50	0.50	1.25	0.50	0.00	0.50	0.00	0.00	-0.286621	0.005859	0.924805	-2.800000	4.830000	1.120000	280.00	-0.24	-0.02	15.75	10.25	7.50	7.50	5.00	2.00	1.00	0.50	2.25	1.50	1.50	1.25	1.00	3.00	1.50	1.00	-0.265137	0.049805	0.936035	-3.290000	0.770000	-0.140000	713.00	-0.19	-0.02
0.68	5.75	6.50	2.75	3.25	2.00	0.50	0.75	0.00	0.50	1.00	1.25	0.50	0.00	0.50	0.00	0.00	-0.291016	-0.000977	0.932129	-2.800000	4.900000	0.980000	289.00	-0.23	-0.02	16.25	10.50	7.75	7.50	5.00	2.25	1.00	0.50	2.50	1.75	1.50	1.25	1.25	3.00	1.50	0.25	-0.261230	0.054199	0.937500	-3.430000	0.840000	-0.350000	731.00	-0.19	-0.01
0.69	5.75	6.25	2.75	3.00	2.00	0.50	0.75	0.00	0.00	1.00	1.00	0.75	0.00	0.50	0.00	0.00	-0.294434	0.005371	0.934082	-2.730000	4.760000	1.050000	276.00	-0.24	-0.03	16.75	10.25	7.75	7.50	5.00	2.25	1.00	0.75	2.50	1.50	1.25	1.75	1.00	3.00	1.50	0.50	-0.270508	0.057129	0.939453	-3.360000	0.980000	-0.350000	738.00	-0.19	-0.02
0.70	5.75	6.25	2.50	3.25	2.00	0.50	0.75	0.00	0.75	1.00	0.75	1.00	0.00	0.00	0.00	0.00	-0.289062	0.007812	0.928223	-2.660000	4.690000	1.120000	282.00	-0.23	-0.03	16.25	10.25	7.75	7.50	5.00	2.00	1.00	0.50	2.50	1.50	1.75	1.25	0.75	3.00	1.75	0.50	-0.264160	0.052246	0.943359	-3.290000	0.770000	-0.280000	725.00	-0.19	-0.01
0.71	6.00	6.25	2.75	3.00	1.75	0.50	0.75	0.00	0.25	0.75	1.00	0.75	0.00	0.50	0.00	0.00	-0.290527	0.005371	0.930176	-2.590000	4.690000	1.190000	277.00	-0.24	-0.03	15.00	9.50	7.50	7.25	5.00	2.25	1.00	0.50	2.50	1.50	1.50	1.00	0.50	3.25	2.75	1.75	-0.260742	0.055664	0.935059	-3.290000	0.770000	-0.140000	714.00	-0.17	-0.01
0.72	5.75	6.25	2.75	3.25	2.00	0.50	0.75	0.00	0.25	0.50	1.25	0.25	0.00	0.75	0.00	0.00	-0.284180	-0.000488	0.937988	-2.590000	4.550000	1.050000	276.00	-0.24	-0.02	16.75	11.00	9.00	8.25	5.00	2.00	1.00	0.75	2.25	1.50	1.50	1.00	0.75	2.75	1.50	0.75	-0.260254	0.056641	0.935547	-3.500000	0.980000	-0.280000	754.00	-0.20	-0.01
0.73	6.00	6.25	2.50	3.25	1.75	0.50	0.75	0.00	0.50	1.00	1.00	0.50	0.00	0.50	0.00	0.00	-0.293945	0.007324	0.931641	-2.730000	4.480000	1.050000	280.00	-0.23	-0.02	16.75	11.00	7.75	7.50	5.00	2.25	1.00	0.50	2.50	1.50	1.50	1.25	1.00	2.75	1.50	0.50	-0.263672	0.052246	0.942871	-3.500000	0.770000	-0.210000	736.00	-0.20	-0.01
0.74	6.00	6.00	2.50	2.75	1.75	0.00	0.75	0.00	0.50	0.75	1.00	0.50	0.00	0.50	0.00	0.00	-0.291992	0.008789	0.938477	-2.730000	4.620000	1.050000	263.00	-0.24	-0.01	17.25	11.00	7.75	7.50	5.25	2.50	1.25	0.75	2.50	1.75	1.50	1.25	1.00	2.75	1.50	0.50	-0.261719	0.054199	0.934570	-3.430000	0.840000	-0.280000	759.00	-0.19	-0.01
0.75	5.75	6.25	2.50	3.00	1.75	0.50	0.75	0.00	0.75	1.00	1.50	0.50	0.00	0.75	0.00	0.00	-0.285645	0.008789	0.933594	-2.660000	4.550000	1.120000	286.00	-0.21	-0.02	22.50	15.25	9.25	8.00	5.00	2.25	1.25	1.50	4.25	2.50	2.50	2.75	1.75	3.00	1.75	0.50	-0.258301	0.056152	0.941406	-3.360000	0.560000	-0.070000	966.00	-0.18	-0.02
0.76	5.75	6.25	2.75	2.75	2.00	0.25	0.75	0.00	0.50	0.75	1.25	0.25	0.00	0.75	0.00	0.25	-0.292969	0.008789	0.928711	-2.660000	4.410000	1.050000	275.00	-0.23	-0.01	22.50	15.75	9.50	9.25	6.25	2.25	1.00	0.50	2.75	1.50	1.50	1.50	1.00	3.00	1.75	0.50	-0.262695	0.046387	0.940430	-3.430000	0.560000	-0.210000	918.00	-0.22	-0.01
0.77	5.75	6.25	2.75	3.25	2.00	0.50	0.75	0.00	0.50	0.75	1.00	0.75	0.00	1.00	0.00	0.00	-0.293457	0.008301	0.936523	-2.730000	4.410000	1.190000	288.00	-0.22	-0.02	17.00	11.75	8.00	7.50	5.25	2.25	1.25	0.50	2.50	1.50	1.75	1.25	1.25	3.00	1.75	0.50	-0.268066	0.049316	0.937500	-3.290000	0.700000	-0.280000	767.00	-0.19	-0.01
0.78	5.75	6.25	2.75	3.00	1.75	0.50	0.75	0.00	0.50	0.75	1.25	0.50	0.00	0.50	0.00	0.00	-0.291016	0.007812	0.931152	-2.660000	4.340000	1.190000	277.00	-0.23	-0.02	17.50	11.75	7.75	7.75	5.25	2.00	1.00	0.50	2.50	1.75	1.50	1.00	1.25	3.00	1.75	0.50	-0.263184	0.053223	0.941895	-3.220000	0.700000	-0.210000	762.00	-0.19	-0.01
0.79	5.75	6.25	2.75	3.25	1.75	0.50	0.75	0.00	0.75	0.75	1.00	0.50	0.00	0.50	0.00	0.00	-0.287109	0.004883	0.929688	-2.590000	4.200000	1.190000	281.00	-0.23	-0.02	17.00	11.50	8.00	7.75	5.25	2.75	1.25	1.50	4.00	1.50	1.50	1.25	1.25	3.00	1.75	0.50	-0.260742	0.054688	0.941895	-3.290000	0.910000	-0.350000	808.00	-0.18	-0.02
0.80	5.75	6.25	2.50	3.25	2.00	0.25	0.75	0.00	0.50	0.75	1.00	0.75	0.00	0.50	0.00	0.00	-0.286133	0.008789	0.931641	-2.730000	4.340000	1.120000	277.00	-0.23	-0.02	16.25	11.00	8.00	7.50	5.25	2.50	1.00	0.75	2.75	1.50	1.75	1.25	1.00	3.00	1.50	0.50	-0.263672	0.051270	0.937012	-3.360000	0.980000	-0.350000	752.00	-0.19	-0.02
0.81	5.75	6.25	2.50	2.75	2.00	0.50	0.75	0.00	0.50	0.75	1.25	0.75	0.00	0.75	0.00	0.25	-0.291016	0.005859	0.932617	-2.940000	4.480000	1.050000	281.00	-0.22	-0.02	17.25	11.50	8.00	7.50	5.50	2.25	1.25	0.50	2.50	1.75	1.25	1.50	1.00	3.00	1.75	0.50	-0.264160	0.054199	0.937500	-3.220000	0.980000	-0.350000	768.00	-0.19	-0.01
0.82	6.00	6.50	2.75	3.50	2.00	0.50	0.75	0.00	0.50	0.75	1.25	0.50	0.00	0.25	0.00	0.00	-0.293457	0.008301	0.933594	-3.150000	4.480000	1.050000	289.00	-0.24	-0.03	17.00	11.50	8.00	7.50	5.50	2.50	1.25	0.50	3.00	1.75	1.50	1.25	1.00	3.00	2.00	1.00	-0.264160	0.055176	0.938965	-3.150000	0.910000	-0.210000	781.00	-0.18	-0.01
0.83	6.00	6.25	2.50	3.25	2.00	0.25	0.75	0.00	0.75	0.75	1.25	0.75	0.00	0.75	0.00	0.25	-0.285645	0.008301	0.930176	-3.150000	4.270000	1.050000	290.00	-0.21	-0.02	16.75	11.25	7.75	7.50	5.25	2.25	1.25	0.75	3.00	1.50	1.75	1.50	1.25	3.00	1.75	0.50	-0.271484	0.051758	0.938477	-3.290000	1.120000	-0.210000	770.00	-0.18	-0.01
0.84	6.00	6.25	2.75	3.00	2.00	0.75	1.00	0.00	0.50	0.75	1.25	0.50	0.00	0.75	0.00	0.25	-0.284180	0.006348	0.937012	-3.080000	4.130000	0.980000	294.00	-0.22	-0.02	16.50	11.00	8.00	7.75	5.50	2.50	1.25	0.75	2.50	1.75	1.75	1.25	1.00	3.25	1.75	0.75	-0.257324	0.030273	0.950684	-2.800000	-0.140000	-0.140000	771.00	-0.18	-0.02
0.85	6.25	6.50	3.00	3.25	2.25	0.50	0.75	0.00	0.75	0.75	1.00	0.75	0.00	0.50	0.00	0.00	-0.291992	0.002441	0.933105	-3.080000	3.990000	1.050000	301.00	-0.23	-0.02	16.25	11.50	8.00	7.75	5.50	2.25	1.25	0.75	3.00	1.75	1.50	1.25	1.25	3.25	2.00	0.25	-0.288574	0.069336	0.947754	-1.610000	-0.350000	0.140000	777.00	-0.18	-0.01
0.86	6.00	6.25	2.75	3.25	2.00	0.50	0.75	0.00	0.50	0.75	1.00	0.75	0.00	0.75	0.00	0.25	-0.296387	0.008301	0.933594	-3.080000	4.060000	0.980000	290.00	-0.22	-0.02	15.00	10.50	8.00	7.50	6.00	3.50	1.50	1.75	4.50	2.75	2.75	2.50	3.25	4.50	3.50	1.75	-0.266113	0.075684	0.944824	-5.040000	1.470000	-0.700000	909.00	-0.11	-0.03
0.87	6.00	6.50	2.75	3.00	2.00	0.50	0.75	0.00	0.50	1.00	1.25	0.50	0.00	0.75	0.00	0.00	-0.286621	0.000000	0.929688	-3.150000	4.200000	0.980000	291.00	-0.22	-0.02	21.75	14.25	9.50	8.75	6.50	3.75	1.50	1.75	5.00	2.75	2.75	2.50	3.25	4.50	3.50	2.00	-0.258301	0.033691	0.924805	-6.580000	3.150000	-1.470000	1074.00	-0.14	-0.03
0.88	6.00	6.25	3.00	3.25	1.75	0.25	0.75	0.00	0.75	0.75	1.25	0.50	0.00	0.75	0.00	0.25	-0.289062	0.010742	0.938477	-3.150000	4.130000	0.980000	291.00	-0.22	-0.01	21.25	14.25	9.75	8.75	6.75	4.00	1.50	1.75	4.75	3.00	3.00	2.50	3.00	4.75	3.25	2.00	-0.260742	0.035645	0.927734	-5.600000	1.890000	-1.120000	1077.00	-0.14	-0.03
0.89	6.00	6.25	2.75	3.25	2.00	0.75	0.75	0.00	0.75	1.00	1.25	0.75	0.00	0.25	0.00	0.00	-0.287109	0.001465	0.937012	-2.870000	4.200000	1.190000	296.00	-0.22	-0.02	21.25	13.75	9.50	8.75	6.50	3.75	1.50	1.50	5.00	2.75	2.75	2.75	3.00	4.75	3.25	2.00	-0.260254	0.049805	0.942383	-4.410000	1.120000	-0.700000	1059.00	-0.14	-0.02
0.90	6.00	6.50	3.00	3.25	2.25	0.50	0.75	0.00	0.75	1.00	1.25	0.50	0.00	0.50	0.00	0.00	-0.290039	0.003418	0.931641	-2.730000	4.340000	1.120000	301.00	-0.22	-0.02	20.75	13.50	9.25	8.50	6.50	4.00	1.50	1.50	5.00	2.75	2.75	2.75	3.00	4.75	3.00	1.75	-0.266113	0.051270	0.944824	-3.570000	1.470000	-0.350000	1044.00	-0.14	-0.02
0.91	6.00	6.50	3.00	3.25	2.00	0.50	0.75	0.25	1.00	1.00	1.25	0.50	0.00	0.75	0.00	0.00	-0.290527	0.007324	0.937500	-2.800000	4.550000	1.050000	308.00	-0.21	-0.02	20.25	13.00	9.25	8.50	6.50	4.00	1.50	1.50	4.75	2.75	2.75	2.75	3.00	4.50	3.50	2.00	-0.262207	0.050293	0.932129	-1.680000	2.030000	0.280000	1035.00	-0.14	-0.03
0.92	6.00	6.25	2.75	3.50	2.25	0.75	1.00	0.00	0.50	0.75	1.00	0.75	0.00	0.50	0.00	0.25	-0.289062	0.008789	0.937988	-3.010000	4.620000	1.050000	301.00	-0.22	-0.02	20.00	12.50	9.00	8.50	6.25	3.75	1.50	1.50	4.75	2.75	2.75	2.75	3.00	4.75	3.50	2.00	-0.263184	0.048340	0.939941	-0.980000	2.170000	0.420000	1020.00	-0.13	-0.02
0.93	6.00	6.25	2.50	3.25	2.25	0.75	1.00	0.00	0.75	0.75	1.25	0.75	0.00	0.75	0.00	0.25	-0.292480	0.003418	0.941895	-3.010000	4.690000	1.050000	303.00	-0.21	-0.02	19.50	12.25	9.00	8.50	6.25	3.75	1.50	1.75	4.50	3.00	2.75	2.75	3.00	4.75	3.25	1.75	-0.263672	0.047852	0.930664	-0.840000	1.960000	0.560000	1011.00	-0.13	-0.03
0.94	6.00	6.50	3.00	3.75	2.25	0.75	1.00	0.25	0.25	1.00	1.25	0.75	0.00	0.50	0.00	0.25	-0.276855	-0.008789	0.922852	-3.010000	3.780000	0.910000	316.00	-0.22	-0.03	19.25	12.25	9.00	8.50	6.25	3.75	1.50	1.75	5.00	2.75	2.75	2.75	3.25	4.50	3.50	1.75	-0.264648	0.050293	0.938965	-1.400000	1.400000	0.700000	1015.00	-0.13	-0.03
0.95	6.25	6.50	3.25	3.75	2.50	0.50	1.00	0.00	0.50	0.75	1.25	0.50	0.00	0.75	0.00	0.00	-0.294434	0.002441	0.939453	-3.010000	0.840000	0.770000	316.00	-0.23	-0.02	18.50	11.75	9.25	8.50	6.25	3.75	1.50	1.75	4.75	2.75	3.00	2.75	3.25	4.75	3.50	2.00	-0.262207	0.056152	0.938965	-2.100000	1.120000	0.420000	1008.00	-0.12	-0.03
0.96	6.00	6.50	3.00	3.25	2.25	0.75	1.00	0.00	0.75	1.00	1.00	1.00	0.00	0.50	0.00	0.00	-0.305176	0.033203	0.962402	-3.500000	3.220000	0.560000	311.00	-0.21	-0.02	18.50	11.75	9.00	8.25	6.25	3.75	1.50	1.75	4.75	2.75	3.00	2.75	3.00	5.00	3.50	2.00	-0.264160	0.048828	0.936035	-2.520000	1.190000	0.140000	1002.00	-0.12	-0.03
0.97	6.00	6.25	3.00	3.25	2.00	0.75	1.00	0.00	0.75	0.75	1.25	0.75	0.00	0.75	0.00	0.00	-0.283691	0.000000	0.943359	-4.060000	6.790000	0.420000	305.00	-0.21	-0.02	18.00	11.50	9.00	8.50	6.25	4.00	1.50	2.00	4.75	3.00	2.75	2.75	3.25	4.75	3.50	2.50	-0.261230	0.052246	0.933105	-2.660000	1.190000	-0.070000	1007.00	-0.12	-0.03
0.98	6.00	6.25	2.75	2.75	2.25	0.75	0.75	0.00	0.75	0.75	1.25	0.75	0.00	0.75	0.00	0.00	-0.284180	-0.000977	0.925781	-3.080000	7.630000	0.700000	295.00	-0.21	-0.02	18.50	11.00	9.00	8.25	6.50	4.00	1.50	1.75	4.75	2.75	3.00	2.75	3.25	4.75	3.50	2.00	-0.257812	0.050293	0.940918	-3.220000	0.980000	-0.350000	1000.00	-0.12	-0.03
0.99	6.00	6.25	3.00	2.75	2.00	0.75	1.00	0.00	0.75	1.00	1.25	0.75	0.00	0.75	0.00	0.00	-0.282715	0.006348	0.927734	-2.660000	6.230000	1.050000	302.00	-0.21	-0.01	18.00	11.50	9.00	8.25	6.25	4.00	1.75	1.50	5.00	3.00	2.75	3.00	3.25	5.00	3.25	0.75	-0.264648	0.053711	0.937988	-4.270000	1.120000	-0.700000	995.00	-0.12	-0.02
1.00	5.75	6.25	2.75	2.75	2.25	0.50	1.00	0.00	1.00	0.75	1.25	0.25	0.00	0.75	0.25	0.00	-0.278320	0.008301	0.934082	-3.080000	5.040000	1.120000	294.00	-0.21	-0.00	13.75	11.25	9.00	8.50	6.50	4.00	1.75	1.75	5.00	3.00	2.75	2.50	2.50	4.75	3.50	2.00	-0.263672	0.054688	0.938965	-5.250000	0.980000	-1.050000	950.00	-0.11	-0.03
1.01	5.75	6.00	3.00	2.75	2.00	0.75	1.00	0.00	0.75	1.00	1.25	0.75	0.00	0.75	0.00	0.25	-0.289551	0.002441	0.932129	-3.290000	5.040000	1.120000	298.00	-0.20	-0.01	16.50	8.50	7.50	6.75	5.50	2.25	1.50	0.50	3.25	2.00	2.00	1.50	1.25	3.50	2.00	1.00	-0.261719	0.046387	0.936523	-5.530000	0.980000	-0.980000	753.00	-0.15	-0.00
1.02	5.75	6.00	2.75	2.75	2.00	0.25	1.00	0.00	0.75	1.00	1.25	0.75	0.00	0.50	0.00	0.00	-0.284668	0.005371	0.929688	-3.290000	5.250000	1.260000	285.00	-0.21	-0.01	13.75	8.75	7.75	6.75	5.50	2.25	1.50	0.75	3.50	1.50	1.75	2.00	1.50	3.75	2.00	1.00	-0.264648	0.047363	0.942383	-5.250000	0.980000	-0.840000	737.00	-0.14	-0.01
1.03	5.75	5.75	2.50	3.00	2.25	0.50	1.00	0.25	0.75	1.00	1.25	0.75	0.00	0.75	0.00	0.00	-0.285645	0.002441	0.927246	-3.150000	4.830000	1.400000	295.00	-0.20	-0.02	13.25	8.50	7.50	6.50	5.50	2.25	1.50	0.75	3.50	2.00	2.00	1.75	1.00	3.75	2.00	0.75	-0.263672	0.049316	0.944824	-3.570000	1.470000	-0.490000	722.00	-0.14	-0.01
1.04	5.50	6.00	2.75	2.50	2.00	0.25	1.00	0.00	0.75	1.00	1.50	1.00	0.00	1.00	0.00	0.25	-0.290527	0.008301	0.936035	-2.730000	3.850000	1.610000	291.00	-0.18	-0.01	13.25	8.50	7.50	6.75	5.50	2.25	1.50	0.75	3.75	2.00	2.00	1.75	1.50	3.50	2.25	1.00	-0.265625	0.047852	0.937012	-2.590000	1.680000	-0.140000	736.00	-0.13	-0.01
1.05	5.50	5.75	2.75	3.00	2.25	0.50	1.00	0.00	1.00	1.00	1.50	0.75	0.00	0.75	0.00	0.25	-0.289551	0.004395	0.935547	-2.520000	3.500000	1.400000	299.00	-0.19	-0.01	12.50	8.25	7.25	6.50	5.50	2.25	1.50	1.00	3.50	2.00	2.00	1.75	1.75	3.50	2.00	0.75	-0.261230	0.046387	0.937500	-1.960000	1.890000	-0.000000	717.00	-0.13	-0.01
1.06	5.50	6.00	2.50	2.50	2.25	0.50	1.00	0.00	1.00	1.00	1.50	0.75	0.00	0.50	0.00	0.25	-0.287598	0.007324	0.934570	-2.520000	3.360000	1.330000	290.00	-0.19	-0.01	12.75	8.00	7.50	6.50	5.50	2.25	1.50	0.75	3.50	2.00	2.00	1.50	1.00	3.50	2.00	1.00	-0.264160	0.050293	0.935547	-1.820000	1.890000	0.070000	708.00	-0.13	-0.01
1.07	5.50	6.00	3.00	3.00	2.25	1.00	1.00	0.00	0.75	1.00	1.50	0.75	0.00	0.75	0.00	0.00	-0.291504	0.007324	0.932617	-2.590000	3.430000	1.120000	305.00	-0.20	-0.02	13.00	8.00	7.50	6.50	5.50	2.25	1.50	0.75	3.25	2.00	2.00	1.75	1.50	3.75	2.00	1.00	-0.269531	0.050781	0.938965	-2.030000	1.750000	0.070000	717.00	-0.13	-0.01
1.08	5.50	6.00	2.75	3.25	2.25	0.75	1.00	0.00	0.75	0.75	1.50	0.75	0.00	0.75	0.00	0.25	-0.289062	0.006836	0.944824	-2.870000	3.570000	0.910000	301.00	-0.20	-0.02	12.00	7.75	7.25	6.25	5.50	2.00	1.50	0.50	3.25	1.75	2.00	1.50	1.50	3.75	2.25	0.75	-0.265137	0.049316	0.937012	-2.310000	1.540000	0.140000	686.00	-0.13	-0.01
1.09	5.75	6.00	2.50	3.00	2.25	1.00	1.00	0.25	0.75	1.25	1.25	0.75	0.00	0.75	0.00	0.25	-0.287598	0.004883	0.938965	-3.290000	3.780000	0.560000	308.00	-0.19	-0.02	11.75	7.50	7.25	6.25	5.50	2.25	1.50	0.75	3.50	2.00	2.00	1.75	1.25	3.75	2.25	1.00	-0.264160	0.047363	0.938477	-2.660000	1.540000	-0.000000	696.00	-0.12	-0.01
1.10	5.50	6.00	3.00	3.25	2.50	0.75	1.00	0.00	1.25	1.25	1.25	1.00	0.00	1.00	0.00	0.25	-0.291504	0.002441	0.938965	-3.500000	3.990000	0.420000	322.00	-0.18	-0.01	12.00	7.50	7.25	6.25	5.50	2.25	1.50	0.75	3.50	2.00	2.00	1.75	1.75	3.50	2.00	1.00	-0.261230	0.051758	0.943359	-2.870000	1.330000	-0.000000	698.00	-0.12	-0.01
1.11	5.75	6.00	3.25	2.75	2.25	0.50	1.00	0.00	1.00	0.75	1.50	1.00	0.00	0.75	0.00	0.25	-0.291016	0.002441	0.935547	-3.710000	4.340000	0.350000	308.00	-0.19	-0.01	11.75	7.50	7.50	6.25	5.50	2.25	1.50	0.75	3.50	2.00	2.00	1.75	1.25	3.75	2.25	0.50	-0.261719	0.053223	0.940430	-3.080000	1.330000	-0.140000	696.00	-0.12	-0.01
1.12	5.50	5.75	3.00	3.00	2.25	0.75	1.00	0.50	0.50	1.25	1.25	0.75	0.00	0.75	0.00	0.00	-0.288086	0.007812	0.931152	-3.710000	4.760000	0.350000	305.00	-0.20	-0.03	11.75	7.25	7.25	6.00	5.50	2.25	1.50	0.75	3.75	1.75	2.25	1.75	1.50	3.75	2.25	1.00	-0.262695	0.051270	0.937500	-3.290000	1.400000	-0.280000	696.00	-0.12	-0.01
1.13	5.75	5.75	3.00	3.00	2.25	0.75	1.00	0.00	1.00	1.25	1.50	0.75	0.00	1.00	0.00	0.25	-0.293457	0.003906	0.930664	-3.850000	4.970000	0.420000	313.00	-0.18	-0.01	11.75	7.25	7.50	6.00	5.50	2.00	1.50	0.75	3.75	2.00	1.75	1.75	1.50	3.75	2.25	1.00	-0.265137	0.049316	0.932129	-3.290000	1.470000	-0.490000	694.00	-0.12	-0.00
1.14	5.75	6.00	3.00	2.75	2.25	0.50	1.00	0.00	1.25	1.00	1.75	1.00	0.00	1.00	0.00	0.00	-0.293457	0.000000	0.933594	-3.640000	4.970000	0.560000	315.00	-0.18	-0.00	11.50	7.25	7.00	6.25	5.50	2.25	1.50	0.75	3.75	1.75	2.25	1.75	1.75	3.75	2.25	1.00	-0.264648	0.049316	0.942871	-3.220000	1.400000	-0.420000	696.00	-0.11	-0.01
1.15	5.50	5.75	2.75	2.50	2.25	1.00	1.00	0.50	1.00	1.25	1.50	1.00	0.00	1.00	0.00	0.00	-0.287109	-0.003418	0.925781	-3.290000	5.040000	0.910000	314.00	-0.17	-0.02	11.25	7.25	7.25	6.00	5.50	2.50	1.50	0.75	3.75	2.00	2.00	1.75	1.50	3.75	2.50	1.50	-0.260254	0.050293	0.937988	-3.150000	1.260000	-0.280000	700.00	-0.11	-0.01
1.16	5.50	5.75	2.75	2.75	2.25	0.75	1.00	0.25	1.25	1.00	1.50	1.00	0.00	1.00	0.00	0.25	-0.289551	-0.002441	0.937012	-2.590000	5.040000	1.330000	312.00	-0.17	-0.01	15.00	9.00	8.25	6.75	5.50	2.25	1.50	0.75	3.75	2.00	2.25	2.00	1.50	3.75	2.25	1.00	-0.265137	0.049805	0.942871	-3.290000	1.400000	-0.560000	778.00	-0.14	-0.01
1.17	5.50	5.50	2.75	2.50	2.25	0.50	1.00	0.00	1.25	1.25	1.75	1.00	0.00	1.00	0.00	0.00	-0.291016	-0.001953	0.936035	-1.960000	5.110000	1.680000	304.00	-0.16	-0.00	11.00	7.25	7.00	6.25	5.50	2.25	1.50	0.75	3.50	2.25	2.50	2.00	1.50	3.75	2.25	0.75	-0.262207	0.044922	0.940918	-3.290000	1.190000	-0.490000	694.00	-0.11	-0.01
1.18	5.25	5.50	2.50	2.25	2.00	0.50	1.00	0.00	1.25	1.25	1.75	1.25	0.00	0.75	0.25	0.25	-0.290527	-0.001465	0.937500	-1.610000	5.180000	1.820000	297.00	-0.15	-0.01	11.50	7.25	7.25	6.25	5.50	2.50	1.50	0.75	3.75	2.00	2.25	2.00	1.50	3.75	2.25	0.75	-0.262207	0.046387	0.937012	-3.150000	1.050000	-0.350000	704.00	-0.11	-0.01
1.19	7.50	7.50	5.00	5.25	3.25	3.00	1.25	1.50	3.00	2.00	2.50	2.25	2.00	2.25	1.00	1.00	-0.287109	0.006348	0.932129	-1.470000	5.180000	1.820000	582.00	-0.11	-0.05	11.50	7.25	7.25	6.25	5.50	2.00	1.50	0.75	3.75	2.00	2.25	1.75	1.75	3.75	2.25	0.75	-0.264160	0.046875	0.943848	-3.150000	0.910000	-0.140000	697.00	-0.11	-0.01
1.20	7.75	7.50	5.00	5.25	3.25	2.75	1.25	1.75	2.75	2.00	2.50	2.00	2.00	2.00	1.00	1.00	-0.282227	0.005859	0.935547	-1.820000	4.830000	1.610000	577.00	-0.11	-0.05	11.25	7.25	7.25	6.25	5.50	2.25	1.50	0.75	3.75	2.00	2.25	1.75	1.75	4.00	2.25	0.75	-0.269043	0.047363	0.937012	-2.940000	1.050000	-0.070000	700.00	-0.11	-0.01
1.21	7.75	7.50	5.00	5.00	3.25	3.00	1.25	1.75	2.75	2.50	2.75	2.00	2.00	2.50	1.00	1.00	-0.287109	0.001953	0.936523	-2.310000	4.480000	1.470000	590.00	-0.10	-0.05	11.25	7.00	7.25	6.00	5.50	2.25	1.50	0.75	3.75	2.00	2.00	2.00	1.50	3.75	2.00	0.75	-0.267090	0.051270	0.941406	-2.730000	1.120000	-0.000000	687.00	-0.11	-0.01
1.22	7.75	7.50	5.00	5.25	3.25	3.00	1.25	1.50	2.75	2.00	2.75	2.00	2.00	2.25	1.00	1.50	-0.292969	0.006348	0.932617	-2.870000	4.410000	1.120000	584.00	-0.11	-0.05	11.50	7.25	7.25	6.25	5.50	2.25	1.50	0.75	3.75	2.00	2.00	1.75	1.50	3.75	2.25	1.00	-0.264648	0.050781	0.937988	-2.730000	1.050000	-0.140000	697.00	-0.12	-0.01
1.23	7.75	7.50	5.00	5.25	3.25	3.25	1.25	1.25	2.75	2.25	2.75	2.00	1.75	2.25	1.00	1.00	-0.289551	0.002441	0.934570	-3.430000	4.130000	0.840000	581.00	-0.11	-0.05	11.25	7.25	7.25	6.00	5.50	2.25	1.50	0.75	3.75	2.00	2.00	2.00	1.50	4.00	2.25	0.75	-0.264160	0.045898	0.935059	-2.590000	1.050000	-0.070000	695.00	-0.11	-0.01
1.24	7.50	7.25	4.75	5.25	3.00	2.75	1.25	1.75	2.50	2.25	2.50	2.25	1.75	2.00	1.00	1.00	-0.288086	0.000977	0.933594	-3.780000	4.060000	0.630000	566.00	-0.11	-0.06	11.00	7.25	7.25	6.00	5.75	2.25	1.50	0.75	4.00	1.75	2.25	2.00	1.50	4.00	2.50	0.75	-0.264160	0.049316	0.934570	-2.730000	1.400000	-0.070000	701.00	-0.11	-0.01
1.25	7.25	7.25	5.00	5.00	3.25	2.75	1.25	1.25	2.50	2.00	2.50	2.00	1.50	2.00	0.75	0.50	-0.290039	0.001465	0.937988	-3.780000	3.850000	0.560000	544.00	-0.12	-0.05	10.75	7.25	7.00	6.00	5.50	2.50	1.50	0.75	3.75	2.00	2.00	2.00	1.50	3.75	2.25	1.00	-0.265625	0.046387	0.938965	-2.800000	1.330000	-0.210000	688.00	-0.11	-0.01
1.26	5.75	5.75	2.50	2.25	2.25	1.00	1.00	0.00	1.25	1.00	1.75	1.00	0.00	1.00	0.25	0.25	-0.288574	0.001465	0.941895	-3.710000	3.920000	0.560000	310.00	-0.16	-0.01	11.00	7.25	7.25	6.00	5.50	2.25	1.50	0.75	3.75	2.00	2.00	1.75	1.75	4.00	2.25	1.00	-0.268066	0.054199	0.933105	-2.800000	1.470000	-0.280000	693.00	-0.11	-0.01
1.27	5.50	5.75	2.75	2.50	2.50	0.50	1.00	0.00	1.00	1.25	1.75	1.25	0.00	1.00	0.00	0.50	-0.291016	0.007324	0.932129	-3.640000	3.990000	0.630000	311.00	-0.16	-0.01	11.25	7.00	7.00	6.00	5.75	2.25	1.50	0.75	3.50	2.00	2.25	2.00	1.75	3.50	2.25	1.00	-0.266602	0.052734	0.934082	-2.940000	1.260000	-0.280000	690.00	-0.11	-0.01
1.28	5.50	5.75	2.75	2.75	2.50	1.00	1.00	0.25	1.25	1.25	1.75	1.00	0.25	1.25	0.25	0.25	-0.286133	0.002441	0.930176	-3.430000	4.270000	0.770000	331.00	-0.15	-0.02	11.00	7.25	7.00	6.00	5.50	2.25	1.50	0.50	3.75	2.00	2.00	2.00	1.75	4.00	2.50	1.00	-0.264648	0.051758	0.934082	-2.870000	1.330000	-0.280000	691.00	-0.11	-0.01
1.29	5.50	5.50	2.75	2.50	2.25	0.75	1.00	0.00	1.25	1.25	1.75	1.00	0.00	1.25	0.00	0.25	-0.285156	0.002441	0.931641	-3.150000	4.270000	0.910000	310.00	-0.16	-0.00	11.00	7.25	7.25	6.00	5.50	2.25	1.50	0.75	3.50	2.00	2.00	1.75	1.75	3.75	2.00	0.75	-0.266113	0.048828	0.937500	-2.940000	1.260000	-0.210000	682.00	-0.12	-0.01
1.30	5.50	5.75	3.00	2.50	2.25	0.75	1.00	0.00	1.25	1.50	1.75	1.00	0.00	1.00	0.00	0.25	-0.289551	-0.004395	0.939941	-3.010000	4.550000	0.980000	316.00	-0.16	-0.01	11.50	7.25	7.25	6.00	5.50	2.25	1.50	0.75	3.75	1.75	2.25	1.75	2.00	3.75	2.00	1.00	-0.266602	0.055664	0.935547	-2.870000	1.120000	-0.210000	695.00	-0.12	-0.01
1.31	5.50	5.50	3.00	2.50	2.50	1.00	1.00	0.00	1.50	1.25	1.75	1.25	0.00	1.00	0.25	0.00	-0.288086	0.002441	0.937988	-2.660000	4.550000	1.120000	325.00	-0.15	-0.01	11.00	7.50	7.25	5.75	5.50	2.25	1.50	0.75	3.75	2.00	2.25	1.75	1.75	3.75	2.25	0.75	-0.262207	0.048828	0.938965	-3.010000	1.050000	-0.140000	691.00	-0.11	-0.01
1.32	5.50	5.50	2.75	2.50	2.50	0.75	1.25	0.00	1.75	1.25	1.75	1.25	0.00	1.25	0.25	0.25	-0.286621	0.005371	0.927734	-2.450000	4.760000	1.330000	330.00	-0.14	0.00	11.25	7.25	7.00	5.75	5.50	2.00	1.50	0.75	3.75	2.00	2.00	1.75	1.00	4.00	2.00	0.75	-0.260254	0.048340	0.941406	-3.010000	1.120000	-0.070000	675.00	-0.12	-0.00
1.33	5.50	5.50	2.50	2.25	2.50	1.25	1.00	0.00	1.50	1.25	1.75	1.25	0.00	1.00	0.25	0.25	-0.291016	0.002930	0.936035	-2.240000	4.760000	1.470000	320.00	-0.15	-0.01	11.50	7.25	7.25	6.00	5.50	2.25	1.50	0.75	3.75	2.00	2.00	1.75	1.75	4.00	2.50	0.75	-0.264648	0.046387	0.945312	-2.940000	1.190000	-0.210000	700.00	-0.11	-0.01
1.34	5.25	5.75	2.75	2.75	2.50	1.00	1.25	0.00	1.50	1.25	1.75	1.25	0.00	1.00	0.00	0.25	-0.292969	0.005859	0.932617	-2.380000	4.830000	1.470000	327.00	-0.15	-0.01	11.50	7.25	7.25	5.75	5.50	2.50	1.50	0.75	3.75	2.00	2.25	1.75	1.50	3.75	2.25	1.00	-0.266113	0.045410	0.937500	-2.940000	1.120000	-0.140000	696.00	-0.11	-0.01
1.35	5.50	5.50	2.75	2.50	2.50	0.50	1.00	0.25	1.25	1.50	1.50	1.25	0.25	1.25	0.25	0.25	-0.292480	0.004395	0.932129	-2.450000	4.830000	1.470000	323.00	-0.14	-0.01	11.50	7.50	7.25	5.75	5.50	2.25	1.50	0.75	3.75	2.00	2.00	1.75	1.75	3.75	2.00	0.75	-0.263184	0.047363	0.940918	-2.870000	1.190000	-0.140000	691.00	-0.12	-0.01
1.36	5.25	5.50	3.00	2.75	2.25	0.75	1.00	0.00	1.25	1.25	1.50	1.25	0.00	1.00	0.25	0.50	-0.290527	0.004883	0.939453	-2.520000	4.830000	1.260000	316.00	-0.15	-0.01	11.50	7.50	7.25	5.75	5.50	2.25	1.50	0.75	3.25	2.00	2.00	1.75	1.50	3.75	2.00	0.75	-0.267090	0.050781	0.937012	-2.870000	1.190000	-0.210000	682.00	-0.12	-0.01
1.37	5.25	5.50	2.50	2.75	2.25	0.75	1.00	0.00	1.25	1.25	1.50	1.25	0.00	1.00	0.25	0.25	-0.291504	0.008789	0.937500	-2.660000	4.900000	1.190000	308.00	-0.15	-0.01	11.50	7.50	7.25	6.00	5.25	2.00	1.50	0.75	3.25	2.00	2.00	1.75	1.50	3.75	2.25	1.00	-0.269043	0.048828	0.938965	-2.870000	0.910000	-0.070000	683.00	-0.12	-0.01
1.38	5.00	5.25	2.75	2.50	2.25	0.75	1.00	0.00	1.25	1.00	1.75	1.00	0.00	1.00	0.00	0.25	-0.287598	0.006836	0.934082	-2.800000	4.760000	1.120000	297.00	-0.16	-0.01	11.75	7.75	7.00	5.75	5.50	2.25	1.50	0.50	3.75	1.75	2.00	1.75	1.50	3.75	2.25	0.50	-0.267578	0.049316	0.940918	-2.800000	0.980000	-0.070000	685.00	-0.12	-0.00
1.39	5.25	5.50	2.50	2.50	2.50	0.75	1.25	0.00	1.50	1.50	1.75	1.00	0.00	1.25	0.25	0.25	-0.291992	0.000488	0.933105	-2.870000	4.690000	0.980000	321.00	-0.14	0.00	11.50	7.50	7.25	5.75	5.50	2.00	1.50	0.75	3.25	2.00	2.25	1.75	1.25	3.75	2.25	0.50	-0.264648	0.051270	0.937988	-2.660000	1.050000	-0.070000	681.00	-0.12	-0.01
1.40	5.25	5.50	3.00	2.75	2.25	0.75	1.00	0.00	1.00	1.25	1.75	1.25	0.00	1.00	0.25	0.25	-0.284668	0.003906	0.930664	-2.940000	4.550000	0.980000	313.00	-0.16	-0.01	12.00	7.75	7.25	6.00	5.50	2.00	1.50	0.50	3.50	1.75	1.75	1.75	1.25	3.50	2.25	1.00	-0.267578	0.047852	0.937012	-2.660000	1.120000	-0.070000	683.00	-0.13	-0.00
1.41	5.25	5.50	2.75	2.50	2.50	0.50	1.00	0.00	1.25	1.50	1.50	1.00	0.00	1.25	0.00	0.25	-0.291992	0.002930	0.936035	-3.010000	4.760000	0.910000	307.00	-0.15	-0.00	12.00	7.50	7.50	5.75	5.50	2.25	1.50	0.75	3.50	1.75	2.00	1.50	1.50	3.75	2.25	0.75	-0.267090	0.050293	0.940430	-2.660000	1.330000	-0.140000	691.00	-0.12	-0.01
1.42	5.00	5.50	2.50	2.75	2.25	0.75	1.00	0.25	1.25	1.25	1.50	1.00	0.00	1.00	0.00	0.50	-0.286133	0.001953	0.935059	-3.010000	4.830000	0.910000	305.00	-0.16	-0.02	12.75	7.75	7.25	6.00	5.50	2.25	1.50	0.75	3.25	2.00	2.00	1.75	1.00	3.75	2.00	0.75	-0.264648	0.050781	0.932617	-2.730000	1.050000	-0.000000	697.00	-0.13	-0.01
1.43	5.25	5.50	2.50	2.50	2.50	0.50	1.00	0.00	1.50	1.25	1.75	1.00	0.00	1.00	0.00	0.25	-0.288086	0.000000	0.945312	-2.940000	4.620000	0.980000	306.00	-0.15	-0.00	16.50	9.25	8.00	5.75	5.50	2.00	1.50	0.75	3.25	2.00	1.75	1.50	1.50	3.50	2.00	0.75	-0.257812	0.052246	0.943359	-2.590000	1.050000	-0.070000	754.00	-0.16	-0.00
1.44	5.50	5.50	2.75	2.25	2.50	0.75	1.00	0.25	1.25	1.25	1.75	1.00	0.00	1.00	0.25	0.25	-0.289062	0.002441	0.930664	-2.940000	4.550000	1.050000	315.00	-0.15	-0.01	12.25	8.25	7.25	6.00	5.25	2.00	1.50	0.75	3.25	1.75	2.25	1.50	1.50	3.50	2.25	1.00	-0.269531	0.048828	0.937500	-2.800000	1.050000	-0.140000	694.00	-0.13	-0.01
1.45	5.25	5.50	3.00	2.50	2.50	1.00	1.00	0.50	1.00	1.25	1.75	1.00	0.00	1.25	0.25	0.25	-0.291504	0.003418	0.934570	-2.870000	4.550000	1.120000	324.00	-0.15	-0.02	12.75	8.25	7.25	6.00	5.50	2.00	1.50	0.75	3.25	2.00	2.00	1.75	1.25	3.50	2.00	0.75	-0.265137	0.054688	0.938477	-2.800000	0.980000	-0.000000	699.00	-0.13	-0.01
1.46	5.25	5.50	2.75	2.75	2.25	0.75	1.25	0.00	1.50	1.25	1.50	1.00	0.00	1.25	0.25	0.50	-0.291504	0.002441	0.936035	-2.870000	4.550000	1.050000	320.00	-0.14	-0.00	13.50	8.00	7.50	6.00	5.50	2.25	1.50	0.75	3.25	1.75	1.75	1.50	1.50	3.75	2.00	0.50	-0.263184	0.048828	0.937012	-2.800000	0.980000	-0.210000	705.00	-0.14	-0.00
1.47	5.25	5.50	2.75	2.75	2.50	0.75	1.00	0.25	1.25	1.25	1.75	1.00	0.00	1.00	0.25	0.25	-0.285156	0.001465	0.936523	-2.870000	4.480000	1.050000	318.00	-0.15	-0.01	13.25	8.25	7.25	6.00	5.25	2.25	1.50	0.75	3.50	2.00	2.00	1.50	1.50	3.25	2.00	0.75	-0.265625	0.052734	0.938477	-2.800000	0.840000	-0.070000	705.00	-0.14	-0.01
1.48	5.50	5.50	2.75	2.75	2.25	0.75	1.25	0.00	1.25	1.25	1.50	1.00	0.00	1.00	0.00	0.25	-0.287109	-0.001465	0.933105	-2.800000	4.550000	1.190000	312.00	-0.16	-0.00	13.00	8.25	7.50	6.00	5.50	2.25	1.50	0.50	3.25	1.75	2.00	1.50	1.75	3.50	2.00	0.75	-0.263184	0.052246	0.937500	-2.870000	0.840000	-0.070000	702.00	-0.14	-0.01
1.49	5.25	5.50	3.00	2.75	2.25	0.75	1.00	0.25	1.25	1.25	1.75	1.25	0.00	1.00	0.50	0.00	-0.293457	0.006348	0.932129	-2.730000	4.690000	1.260000	323.00	-0.15	-0.02	13.25	8.50	7.50	6.00	5.50	2.25	1.50	0.50	3.25	1.50	2.00	1.50	1.25	3.50	2.00	0.75	-0.265137	0.049316	0.939941	-2.730000	1.050000	-0.070000	700.00	-0.14	-0.00
1.50	5.50	5.50	3.00	2.75	2.50	0.75	1.00	0.00	1.25	1.25	1.75	1.00	0.00	1.00	0.00	0.25	-0.290527	0.002441	0.932129	-2.870000	4.690000	1.190000	317.00	-0.16	-0.01	13.75	8.75	7.75	6.25	5.25	2.25	1.50	0.75	3.00	1.75	1.75	1.50	0.75	3.50	2.00	1.00	-0.263184	0.047852	0.934082	-2.590000	0.980000	-0.140000	709.00	-0.15	-0.01
1.51	5.50	5.75	2.75	3.00	2.25	1.00	1.00	0.25	1.50	1.50	2.00	1.25	0.00	1.25	0.25	0.25	-0.287598	0.007324	0.927246	-2.800000	4.620000	1.190000	341.00	-0.14	-0.02	13.25	8.50	7.50	6.25	5.50	2.25	1.50	0.50	3.25	1.75	1.75	1.50	1.50	3.50	2.00	0.75	-0.262207	0.053711	0.942871	-2.520000	0.910000	-0.000000	705.00	-0.14	-0.01
1.52	6.00	6.00	3.75	3.75	2.75	1.75	1.25	0.50	2.00	1.50	2.00	1.25	0.75	1.75	0.75	0.50	-0.284180	0.000977	0.933105	-2.800000	4.620000	1.120000	420.00	-0.12	-0.03	13.50	8.50	7.50	6.00	5.50	2.00	1.50	0.75	3.25	1.50	1.75	1.75	1.25	3.50	2.25	0.75	-0.259277	0.052246	0.931641	-2.590000	0.980000	-0.070000	707.00	-0.14	-0.01
1.53	6.00	6.00	4.00	4.00	2.75	1.75	1.25	0.75	2.50	1.50	2.00	1.50	1.00	1.75	0.75	0.75	-0.289551	0.002441	0.943359	-2.730000	4.480000	1.190000	444.00	-0.11	-0.03	13.75	8.75	7.50	6.25	5.50	2.00	1.50	0.75	3.25	1.50	2.00	1.50	1.50	3.50	2.00	0.75	-0.264160	0.049316	0.932617	-2.660000	1.120000	-0.140000	715.00	-0.15	-0.01
1.54	7.75	6.75	4.75	5.00	3.25	2.75	1.25	1.00	2.25	2.00	2.25	1.75	1.25	2.25	1.00	1.00	-0.291504	0.005859	0.937988	-2.730000	4.620000	1.190000	533.00	-0.12	-0.04	14.50	8.75	7.50	6.50	5.50	2.25	1.50	0.75	3.25	1.75	1.75	1.75	1.50	3.50	2.00	0.75	-0.267090	0.048340	0.939453	-2.730000	0.980000	0.070000	732.00	-0.15	-0.01
1.55	8.25	7.50	5.25	5.50	3.25	2.75	1.25	1.50	2.50	2.00	2.50	1.75	1.50	2.25	1.00	1.00	-0.292969	-0.001465	0.934570	-2.730000	4.690000	1.120000	576.00	-0.12	-0.05	14.25	9.00	7.50	6.25	5.25	2.25	1.25	0.75	3.25	1.75	1.75	1.75	1.00	3.50	1.75	0.50	-0.267090	0.053223	0.937988	-2.730000	0.840000	-0.000000	713.00	-0.15	-0.01
1.56	8.50	7.50	5.25	5.50	3.50	3.25	1.25	1.50	2.50	2.00	2.25	2.00	2.25	2.00	0.75	1.00	-0.287109	0.004395	0.933105	-2.800000	4.900000	1.050000	590.00	-0.13	-0.05	14.00	8.75	7.50	6.25	5.25	2.25	1.25	0.50	3.25	1.75	1.75	1.50	1.25	3.50	2.00	0.75	-0.266113	0.044434	0.935547	-2.870000	0.840000	-0.070000	707.00	-0.15	-0.01
1.57	8.50	7.50	5.25	5.50	3.50	3.25	1.25	1.25	2.75	1.75	2.25	1.75	2.00	2.00	1.00	1.00	-0.284180	0.000000	0.934082	-2.730000	4.690000	1.050000	584.00	-0.13	-0.05	14.25	9.00	7.50	6.50	5.25	2.25	1.25	0.75	3.25	1.50	1.75	1.50	1.25	3.50	2.00	0.50	-0.267090	0.047852	0.943848	-2.870000	0.910000	-0.070000	715.00	-0.15	-0.01
1.58	8.25	7.50	5.25	5.50	3.50	3.00	1.25	1.25	2.25	2.00	2.50	1.75	1.75	2.00	1.00	1.00	-0.286133	0.001465	0.934082	-2.590000	4.690000	1.120000	574.00	-0.13	-0.05	14.50	9.25	7.75	6.50	5.50	2.50	1.25	0.50	3.25	1.75	1.75	1.75	1.25	3.50	1.75	0.75	-0.267090	0.049316	0.939941	-2.800000	0.910000	-0.140000	730.00	-0.16	-0.01
1.59	8.25	7.75	5.25	5.50	3.50	3.00	1.25	1.50	2.75	2.25	2.50	1.75	1.25	2.25	1.00	1.00	-0.288574	0.004883	0.936523	-2.450000	4.760000	1.120000	588.00	-0.12	-0.04	14.25	9.25	7.50	6.50	5.50	2.25	1.25	0.50	3.00	2.00	1.75	1.25	1.75	3.25	1.75	0.75	-0.264648	0.051270	0.933105	-3.010000	0.770000	-0.210000	717.00	-0.16	-0.01
1.60	8.25	7.75	5.75	5.50	3.50	3.00	1.25	1.25	2.50	2.25	2.50	2.00	2.00	2.00	1.00	1.00	-0.287598	0.000000	0.938477	-2.380000	4.830000	1.190000	594.00	-0.12	-0.05	14.75	9.00	7.50	6.25	5.25	2.25	1.25	0.50	3.25	1.75	1.75	1.50	1.50	2.75	1.75	0.50	-0.264648	0.053223	0.944336	-2.870000	0.840000	-0.070000	709.00	-0.16	-0.01
1.61	8.50	7.50	5.50	5.50	3.50	3.25	1.25	1.50	2.75	2.00	2.25	1.75	1.75	2.25	1.25	1.00	-0.290039	0.003906	0.939941	-2.310000	4.830000	1.190000	597.00	-0.12	-0.05	14.50	9.00	7.50	6.50	5.25	2.00	1.50	0.75	3.00	1.75	1.50	1.50	1.75	3.25	2.00	0.75	-0.264160	0.046875	0.942871	-2.940000	0.980000	-0.210000	719.00	-0.15	-0.01
1.62	8.50	7.75	5.50	5.50	3.50	2.75	1.25	1.50	2.50	2.00	2.50	1.75	1.75	2.00	1.00	1.00	-0.291016	0.005371	0.933105	-2.380000	4.830000	1.190000	587.00	-0.13	-0.05	14.50	8.75	7.50	6.75	5.25	2.25	1.25	0.50	3.00	1.50	1.75	1.75	1.25	3.25	2.00	0.75	-0.266113	0.048340	0.940430	-2.870000	1.120000	-0.210000	713.00	-0.16	-0.01
1.63	8.50	7.75	5.25	5.50	3.50	2.75	1.25	1.25	2.50	2.25	2.50	1.75	1.25	2.00	1.00	0.75	-0.291992	0.006836	0.934082	-2.450000	4.830000	1.190000	577.00	-0.13	-0.04	14.25	9.25	7.50	6.50	5.25	2.25	1.25	0.75	3.25	1.75	1.75	1.50	1.25	3.25	2.00	1.00	-0.266602	0.050293	0.938477	-2.800000	1.190000	-0.210000	721.00	-0.15	-0.01
1.64	8.75	7.75	5.50	5.50	3.50	2.75	1.25	1.25	2.25	2.00	2.50	2.00	1.75	2.25	1.25	0.75	-0.288086	0.000977	0.930664	-2.450000	4.690000	1.190000	589.00	-0.13	-0.05	14.75	9.25	7.50	6.75	5.50	2.25	1.50	0.50	3.25	1.75	1.75	1.50	1.50	3.25	2.00	0.50	-0.263672	0.052246	0.942383	-2.590000	0.910000	-0.000000	732.00	-0.16	-0.01
1.65	8.50	7.75	5.25	5.50	3.25	3.00	1.25	1.50	2.25	1.75	2.50	1.75	1.75	2.00	1.00	0.75	-0.291992	-0.001465	0.933105	-2.590000	4.690000	1.190000	576.00	-0.13	-0.05	14.25	9.00	7.75	6.50	5.25	2.00	1.50	0.75	3.00	1.75	1.75	1.50	1.25	3.50	1.75	0.75	-0.268066	0.048828	0.939453	-2.520000	0.980000	-0.000000	717.00	-0.15	-0.01
1.66	8.75	7.75	5.25	5.50	3.25	2.50	1.25	1.25	2.75	2.00	2.25	1.75	1.50	2.00	1.00	0.75	-0.286621	0.006836	0.936035	-2.520000	4.550000	1.190000	574.00	-0.13	-0.04	14.25	9.25	7.00	7.50	5.25	2.25	1.25	0.75	2.75	1.75	1.75	1.50	1.25	4.00	3.50	2.00	-0.267090	0.049316	0.935059	-2.590000	1.050000	-0.070000	750.00	-0.14	-0.02
1.67	8.75	7.75	5.25	5.50	3.25	2.75	1.25	1.50	2.75	2.00	2.50	2.00	1.75	2.25	0.75	1.00	-0.293457	0.003418	0.935059	-2.660000	4.620000	1.120000	590.00	-0.12	-0.05	20.00	12.50	9.00	8.50	6.25	3.75	1.75	1.50	4.75	2.75	2.75	2.75	3.25	4.50	3.50	2.00	-0.266113	0.058105	0.935547	-2.590000	1.050000	-0.210000	1024.00	-0.13	-0.03
1.68	9.00	8.00	5.50	5.50	3.25	2.75	1.25	1.25	2.50	2.00	2.25	1.75	1.50	2.00	1.00	1.00	-0.290039	0.000000	0.936035	-2.590000	4.760000	1.120000	583.00	-0.13	-0.04	19.50	12.50	9.00	8.00	6.25	4.00	1.50	2.00	4.50	2.75	2.50	2.75	2.75	4.50	3.50	0.25	-0.265625	0.049805	0.939453	-2.660000	1.050000	-0.210000	998.00	-0.14	-0.03
1.69	8.50	8.00	5.50	5.50	3.25	2.75	1.25	1.50	2.25	2.00	2.25	1.75	1.50	1.75	1.00	0.75	-0.285645	0.000488	0.938477	-2.590000	4.900000	1.050000	574.00	-0.14	-0.05	14.00	9.25	7.50	6.50	5.00	3.00	1.50	0.75	2.75	1.75	2.25	2.25	1.50	3.25	1.75	1.00	-0.266602	0.051270	0.932617	-2.800000	0.980000	-0.070000	735.00	-0.15	-0.02
1.70	8.50	8.00	5.50	5.50	3.25	2.75	1.25	1.50	2.50	2.00	2.50	1.75	1.75	2.25	1.00	0.75	-0.285645	0.002930	0.933594	-2.520000	4.830000	1.120000	588.00	-0.13	-0.05	13.25	9.00	6.75	6.50	5.25	2.00	1.25	0.50	3.00	2.25	2.75	2.50	1.25	3.50	3.00	1.75	-0.264648	0.049805	0.939941	-2.660000	1.120000	-0.140000	734.00	-0.12	-0.02
1.71	9.00	7.75	5.50	5.50	3.50	3.00	1.25	1.25	2.50	2.00	2.50	1.75	1.75	2.00	0.75	1.00	-0.293945	0.006348	0.934570	-2.520000	4.830000	1.190000	589.00	-0.13	-0.04	20.00	13.00	9.00	8.75	6.50	3.75	1.50	1.75	4.50	2.50	2.75	2.75	3.00	4.75	3.25	2.00	-0.261719	0.047363	0.944336	-2.660000	0.910000	-0.000000	1026.00	-0.14	-0.03
1.72	8.50	8.00	5.25	5.50	3.25	3.25	1.00	1.50	2.25	2.00	2.25	2.00	1.75	2.00	1.00	0.75	-0.292480	0.004883	0.933594	-2.240000	4.620000	1.190000	581.00	-0.13	-0.06	20.25	13.00	9.25	8.75	6.50	4.00	1.50	1.75	4.75	2.75	2.75	2.75	3.25	4.50	3.25	1.75	-0.265625	0.054199	0.937500	-2.800000	0.840000	-0.000000	1040.00	-0.14	-0.03
1.73	8.50	8.00	5.50	5.50	3.25	2.75	1.25	1.25	2.50	2.00	2.25	1.75	1.50	2.00	1.25	1.00	-0.295898	0.005371	0.934082	-2.170000	4.690000	1.190000	580.00	-0.13	-0.04	20.25	12.75	9.00	8.50	6.25	4.00	1.50	1.50	4.75	2.75	3.00	2.50	3.25	4.75	3.25	2.00	-0.272461	0.044434	0.941406	-2.800000	1.050000	-0.000000	1028.00	-0.13	-0.03
1.74	9.00	7.75	5.25	5.50	3.50	2.75	1.25	1.00	2.50	2.00	2.00	1.75	1.75	1.75	1.00	1.00	-0.292480	0.003906	0.927734	-2.170000	4.620000	1.260000	574.00	-0.14	-0.04	20.25	12.50	9.00	8.50	6.50	3.25	1.50	1.50	4.75	2.75	3.00	2.75	3.00	4.75	3.50	2.00	-0.266113	0.048828	0.938965	-2.660000	0.980000	-0.070000	1023.00	-0.13	-0.02
1.75	8.50	8.00	5.50	5.50	3.25	3.00	1.25	1.25	2.50	1.75	2.50	1.50	1.00	1.75	1.00	0.75	-0.289551	0.007324	0.933594	-2.170000	4.830000	1.190000	569.00	-0.14	-0.04	20.50	13.00	9.00	8.50	6.25	3.50	1.50	1.50	4.75	2.75	2.75	2.75	3.00	4.75	3.50	1.75	-0.268555	0.048340	0.945312	-2.800000	0.980000	-0.210000	1026.00	-0.14	-0.02
1.76	8.25	7.75	5.25	5.25	3.25	2.50	1.25	1.00	2.50	1.75	2.25	1.75	1.75	2.00	0.50	1.00	-0.294434	0.003906	0.932617	-2.100000	4.830000	1.120000	553.00	-0.13	-0.04	20.25	13.00	9.00	8.50	6.25	4.00	1.50	1.75	4.50	2.75	2.75	2.75	3.00	4.75	3.50	2.00	-0.264160	0.053223	0.939941	-2.660000	0.980000	-0.140000	1031.00	-0.13	-0.03
1.77	8.25	7.75	5.00	5.25	3.25	2.50	1.25	0.75	1.75	1.25	1.75	0.75	0.00	0.75	0.25	0.25	-0.288086	0.005371	0.932129	-2.100000	4.760000	1.190000	476.00	-0.19	-0.03	20.00	12.75	9.25	8.50	6.25	3.75	1.50	1.50	4.50	2.50	2.75	2.75	2.75	4.75	3.00	1.50	-0.265137	0.051270	0.936035	-2.660000	1.050000	-0.140000	1008.00	-0.14	-0.02
1.78	6.25	6.50	3.50	3.25	2.50	1.00	1.00	0.00	1.00	1.25	1.25	0.75	0.00	1.00	0.25	0.25	-0.291016	-0.000488	0.935547	-2.170000	4.690000	1.190000	341.00	-0.19	-0.01	20.25	12.50	9.00	8.50	6.25	3.75	1.50	1.50	4.50	2.75	2.50	2.75	3.00	5.00	3.25	2.00	-0.262207	0.053711	0.933594	-2.870000	0.840000	0.140000	1016.00	-0.14	-0.02
1.79	6.25	6.75	3.75	3.75	2.50	0.75	1.00	0.00	1.00	0.75	1.50	0.75	0.00	1.25	0.25	0.25	-0.288574	0.006348	0.934570	-2.170000	4.690000	1.260000	349.00	-0.19	-0.01	20.00	13.50	9.00	8.25	6.50	3.75	1.50	1.75	4.50	2.75	2.50	2.50	3.25	4.75	3.25	1.75	-0.262207	0.052246	0.934082	-2.800000	0.770000	0.070000	1023.00	-0.14	-0.03
1.80	6.25	6.50	3.75	3.25	2.50	0.75	1.00	0.25	1.25	1.25	1.50	1.00	0.00	1.00	0.00	0.00	-0.290527	0.004395	0.933105	-2.170000	4.690000	1.190000	351.00	-0.19	-0.01	20.25	13.25	9.00	8.50	6.50	4.00	1.50	1.75	4.50	2.75	2.75	2.50	1.75	3.75	1.75	0.50	-0.264160	0.050293	0.941406	-2.800000	0.980000	-0.140000	984.00	-0.16	-0.02
1.81	6.50	6.75	3.75	3.50	2.50	1.25	1.00	0.25	0.75	1.25	1.25	1.25	0.00	1.00	0.00	0.25	-0.291992	0.002930	0.934082	-2.310000	4.620000	1.120000	359.00	-0.20	-0.03	16.75	11.50	8.50	8.00	5.75	2.25	1.25	0.50	2.75	1.75	1.50	1.50	1.25	3.25	1.75	0.50	-0.263672	0.052246	0.940430	-2.730000	0.980000	-0.210000	788.00	-0.18	-0.01
1.82	6.25	6.50	3.50	3.50	2.50	0.75	1.00	0.00	1.00	1.00	1.50	0.75	0.00	0.75	0.00	0.00	-0.295410	0.001953	0.933105	-2.310000	4.760000	1.120000	335.00	-0.20	-0.01	15.75	10.00	7.75	7.25	5.25	2.25	1.25	0.75	2.75	1.50	1.75	1.50	1.25	3.25	1.75	1.25	-0.263184	0.053223	0.935547	-2.800000	0.910000	-0.210000	746.00	-0.17	-0.02
1.83	6.00	6.25	3.25	3.00	2.25	0.50	1.00	0.00	1.00	1.25	1.00	0.75	0.00	0.50	0.00	0.00	-0.290039	0.009766	0.933105	-2.310000	4.830000	1.120000	309.00	-0.21	-0.01	15.25	9.75	7.50	7.25	5.25	2.25	1.25	1.25	4.50	2.75	2.75	2.50	2.75	4.50	3.50	2.00	-0.268555	0.052734	0.940430	-2.800000	0.700000	-0.070000	856.00	-0.11	-0.02
1.84	6.25	6.50	3.25	3.00	2.25	0.75	1.00	0.00	0.75	1.00	1.25	0.75	0.00	0.50	0.00	0.00	-0.294922	0.009277	0.931641	-2.380000	4.760000	1.190000	314.00	-0.22	-0.01	15.00	10.25	7.75	7.25	5.50	2.00	1.25	0.75	2.75	1.50	1.50	1.25	1.00	3.00	1.50	0.50	-0.260742	0.052734	0.940918	-2.800000	0.910000	-0.070000	723.00	-0.18	-0.01
1.85	6.25	6.25	3.25	3.25	2.25	0.00	0.75	0.00	0.75	1.00	1.50	0.75	0.00	0.50	0.00	0.00	-0.284668	0.002930	0.929199	-2.240000	4.620000	1.260000	304.00	-0.22	-0.01	15.00	10.00	7.75	7.00	5.25	2.00	1.25	0.75	3.00	1.75	1.75	1.25	1.50	3.00	1.75	0.75	-0.267578	0.050781	0.934570	-2.870000	0.980000	-0.210000	733.00	-0.17	-0.01
1.86	6.00	6.25	3.00	3.00	2.50	0.75	0.75	0.00	1.00	0.75	1.25	0.50	0.00	0.75	0.00	0.25	-0.285645	0.004883	0.937500	-2.240000	4.550000	1.330000	306.00	-0.21	-0.01	16.00	9.75	7.75	7.25	5.25	2.25	1.25	0.50	2.75	1.50	1.50	1.25	1.25	3.25	1.75	0.75	-0.258789	0.049805	0.938965	-2.870000	0.840000	-0.000000	734.00	-0.18	-0.01
1.87	6.00	6.50	3.25	3.25	2.25	1.25	1.00	0.00	0.50	1.00	1.50	0.50	0.00	0.50	0.00	0.25	-0.290527	0.007324	0.936523	-2.240000	4.550000	1.260000	318.00	-0.22	-0.02	16.00	9.75	7.50	7.25	5.25	2.25	1.25	0.75	3.75	1.75	2.75	2.50	2.75	3.75	3.25	1.75	-0.266602	0.048828	0.941406	-2.800000	0.840000	-0.000000	823.00	-0.13	-0.02
1.88	6.00	6.25	3.50	3.25	2.25	0.75	1.00	0.00	0.75	0.75	1.25	0.75	0.00	0.50	0.00	0.00	-0.290039	0.000000	0.937988	-2.380000	4.620000	1.260000	312.00	-0.22	-0.02	15.75	9.75	7.50	7.00	6.25	4.00	1.50	1.50	4.25	2.75	2.75	2.50	3.25	4.75	3.50	1.75	-0.265137	0.054199	0.940918	-2.730000	0.840000	-0.140000	902.00	-0.11	-0.03
1.89	6.25	6.25	3.25	3.25	2.25	0.75	1.00	0.00	0.75	1.00	1.25	0.75	0.00	0.50	0.00	0.25	-0.289551	0.008301	0.936523	-2.310000	4.690000	1.260000	316.00	-0.21	-0.02	21.50	13.75	9.25	8.75	6.50	2.00	1.25	1.25	4.00	2.00	2.75	2.75	2.50	3.25	1.75	1.50	-0.265625	0.045898	0.936035	-2.800000	0.980000	-0.140000	969.00	-0.17	-0.02
1.90	6.00	6.25	3.25	3.00	2.25	0.50	0.75	0.00	0.75	0.75	1.25	1.00	0.00	0.50	0.00	0.00	-0.291992	0.002930	0.936035	-2.380000	4.690000	1.260000	302.00	-0.22	-0.02	13.75	9.75	7.75	7.00	5.25	2.25	1.25	0.75	2.75	1.50	1.75	1.50	1.00	3.00	1.75	0.50	-0.260254	0.051758	0.939941	-2.800000	0.910000	-0.070000	709.00	-0.17	-0.02
1.91	6.00	6.25	3.25	3.50	2.25	0.75	1.00	0.00	0.75	0.75	1.00	0.75	0.00	0.75	0.25	0.25	-0.285156	0.003906	0.934570	-2.450000	4.550000	1.190000	316.00	-0.21	-0.02	16.50	10.00	7.75	7.25	5.25	2.25	1.25	0.75	3.00	1.75	1.50	1.50	1.00	3.25	1.75	0.75	-0.266602	0.054688	0.946289	-2.870000	1.120000	-0.140000	753.00	-0.17	-0.01
1.92	6.00	6.25	3.50	3.50	2.25	0.75	1.00	0.00	0.50	1.00	1.25	0.75	0.00	0.75	0.00	0.00	-0.291504	0.003418	0.934570	-2.380000	4.620000	1.190000	316.00	-0.21	-0.02	16.25	10.00	7.50	7.25	5.00	2.25	1.25	0.50	2.75	1.50	1.75	1.50	1.50	3.00	1.50	0.75	-0.268555	0.051270	0.942871	-2.800000	0.910000	-0.140000	736.00	-0.18	-0.01
1.93	6.00	6.50	3.50	3.25	2.25	1.00	1.00	0.00	0.75	0.75	1.25	0.75	0.00	0.75	0.00	0.25	-0.290039	0.000977	0.938477	-2.450000	4.830000	1.190000	321.00	-0.21	-0.02	15.50	10.25	7.75	7.00	5.25	2.25	1.25	0.75	2.75	1.75	1.75	1.50	1.25	3.00	1.75	0.50	-0.260742	0.050293	0.937500	-2.800000	0.980000	-0.140000	739.00	-0.17	-0.01
1.94	5.75	6.50	3.25	3.50	2.25	0.75	1.00	0.00	0.75	0.75	1.00	0.75	0.00	0.50	0.00	0.00	-0.290039	0.001953	0.937500	-2.450000	4.760000	1.120000	309.00	-0.22	-0.02	15.75	10.00	7.75	7.25	5.25	2.00	1.25	0.50	2.75	1.50	1.75	1.25	1.25	3.00	2.00	0.50	-0.262207	0.048828	0.935059	-3.010000	1.120000	-0.140000	732.00	-0.18	-0.01
1.95	6.00	6.25	3.00	3.25	2.25	0.50	0.75	0.00	0.50	0.75	1.00	0.75	0.00	0.50	0.00	0.25	-0.292480	0.006836	0.928711	-2.450000	4.690000	1.190000	294.00	-0.23	-0.02	16.00	10.25	7.75	7.25	5.00	2.25	1.25	0.75	2.50	1.50	1.75	1.25	0.25	3.25	1.75	0.75	-0.266602	0.054688	0.940430	-3.010000	1.050000	-0.070000	730.00	-0.18	-0.01
1.96	6.00	6.25	3.25	3.25	2.25	0.25	0.75	0.00	0.50	0.75	1.25	0.75	0.00	0.75	0.00	0.00	-0.291016	0.008301	0.931641	-2.310000	4.620000	1.260000	297.00	-0.22	-0.02	16.00	10.25	7.75	7.25	5.25	2.25	1.25	0.50	3.00	1.75	1.50	1.25	0.50	3.25	1.75	0.50	-0.266602	0.049805	0.942383	-3.150000	1.050000	-0.210000	737.00	-0.18	-0.00
1.97	6.00	6.25	3.25	3.25	2.25	1.00	1.00	0.00	0.75	0.75	1.25	0.75	0.00	0.50	0.00	0.00	-0.296387	0.006348	0.931641	-2.380000	4.830000	1.190000	312.00	-0.22	-0.02	16.25	10.25	7.75	7.00	5.25	2.00	1.25	0.50	3.00	1.50	1.50	1.25	1.00	3.00	1.75	0.50	-0.265625	0.052246	0.938477	-2.940000	1.050000	-0.070000	733.00	-0.18	-0.01
1.98	6.00	6.50	3.25	3.25	2.25	0.50	0.75	0.00	0.75	1.00	1.25	0.75	0.00	0.75	0.00	0.00	-0.289551	0.003418	0.933594	-2.310000	4.620000	1.190000	309.00	-0.21	-0.02	16.00	10.25	7.50	7.25	5.25	2.00	1.25	0.50	2.75	1.50	1.50	1.50	0.75	3.00	1.50	0.50	-0.264648	0.051270	0.937012	-3.010000	0.980000	-0.140000	724.00	-0.18	-0.01
1.99	6.00	6.25	3.00	3.25	2.25	1.00	0.75	0.00	0.25	1.00	1.00	0.25	0.00	0.75	0.00	0.00	-0.292969	0.000000	0.925293	-2.310000	4.620000	1.120000	294.00	-0.23	-0.02	16.25	10.25	7.75	7.25	5.25	2.25	1.25	0.50	2.75	1.50	1.50	1.25	1.50	3.25	1.75	0.75	-0.264160	0.047852	0.939453	-3.080000	1.050000	-0.140000	744.00	-0.18	-0.01
2.00	5.75	6.25	3.25	3.25	2.25	0.75	1.00	0.00	0.75	0.75	1.00	0.75	0.00	0.75	0.00	0.25	-0.289062	0.004883	0.930664	-2.380000	4.480000	1.260000	307.00	-0.21	-0.02	16.25	10.25	7.50	7.25	5.25	2.00	1.25	0.50	2.75	1.50	1.50	1.25	1.50	3.00	1.75	0.50	-0.266113	0.051758	0.940918	-2.870000	0.980000	-0.140000	734.00	-0.18	-0.01
2.01	5.75	6.25	3.25	3.25	2.00	0.50	0.75	0.00	0.50	0.75	1.25	0.50	0.00	0.75	0.00	0.00	-0.288086	0.003906	0.927246	-2.450000	4.690000	1.190000	292.00	-0.23	-0.02	16.00	10.25	7.75	7.25	5.25	2.00	1.25	0.50	2.75	1.50	1.50	1.25	1.25	3.00	2.00	0.50	-0.264160	0.056152	0.940918	-3.080000	1.050000	-0.210000	735.00	-0.18	-0.01
2.02	6.00	6.75	3.75	3.75	2.25	0.50	1.00	0.00	0.75	0.75	1.25	0.75	0.00	0.75	0.00	0.25	-0.290039	0.009277	0.934570	-2.520000	4.550000	1.120000	327.00	-0.22	-0.02	16.00	10.50	7.75	7.25	5.00	2.25	1.25	0.50	2.75	1.50	1.50	1.25	0.75	3.00	1.75	0.50	-0.263184	0.054688	0.937012	-3.010000	1.120000	-0.070000	730.00	-0.18	-0.01
2.03	6.00	6.50	3.25	3.50	2.50	0.75	1.00	0.00	0.75	1.00	1.25	1.00	0.00	0.75	0.00	0.25	-0.293457	0.007812	0.932617	-2.590000	4.550000	1.050000	327.00	-0.20	-0.02	15.75	10.00	7.50	7.00	5.25	2.00	1.25	0.50	2.75	1.50	1.75	1.25	1.25	3.25	1.75	0.75	-0.266113	0.052246	0.936035	-2.940000	1.190000	-0.140000	727.00	-0.17	-0.01
2.04	6.00	6.50	3.75	3.75	2.25	0.75	1.00	0.00	0.75	1.00	1.25	0.75	0.00	0.50	0.00	0.00	-0.288086	0.003418	0.933594	-2.450000	4.410000	1.190000	326.00	-0.22	-0.02	16.25	10.00	7.50	7.50	5.00	2.00	1.25	0.50	2.75	1.50	1.50	1.25	1.00	3.25	1.75	0.50	-0.263184	0.051758	0.938477	-2.940000	1.190000	-0.070000	729.00	-0.18	-0.01
2.05	6.25	6.50	3.50	3.50	2.25	1.00	1.00	0.00	0.50	1.00	1.25	0.75	0.00	0.75	0.00	0.25	-0.295410	0.008301	0.931152	-2.590000	4.340000	1.190000	326.00	-0.21	-0.02	16.00	10.50	7.50	7.25	5.00	2.00	1.25	0.50	2.75	1.50	1.50	1.25	1.50	3.00	1.75	0.50	-0.267090	0.050293	0.938965	-3.010000	1.120000	-0.140000	731.00	-0.18	-0.01
2.06	6.00	6.50	3.25	3.50	2.50	0.50	1.00	0.00	1.00	0.75	1.00	0.75	0.00	0.75	0.25	0.25	-0.286133	0.004883	0.934082	-2.590000	4.340000	1.120000	322.00	-0.20	-0.01	15.50	10.25	7.50	7.00	5.00	1.75	1.25	0.50	2.75	1.50	1.50	1.25	0.50	3.00	1.75	0.50	-0.264160	0.047852	0.939941	-2.940000	1.050000	-0.140000	707.00	-0.18	-0.00
2.07	6.00	6.50	3.50	3.75	2.25	0.75	0.75	0.00	0.75	0.75	1.25	0.75	0.00	0.50	0.00	0.00	-0.291992	0.006836	0.937500	-2.520000	4.410000	1.190000	316.00	-0.22	-0.02	16.00	10.00	7.50	7.25	5.25	2.00	1.25	0.50	2.50	1.25	1.50	1.25	1.00	2.75	1.50	0.75	-0.264160	0.046387	0.940918	-2.870000	0.980000	-0.070000	714.00	-0.19	-0.01
2.08	6.25	6.25	3.50	3.50	2.25	1.00	1.00	0.00	0.75	0.75	1.50	0.75	0.00	0.50	0.00	0.00	-0.290039	0.007812	0.933105	-2.520000	4.480000	1.260000	323.00	-0.22	-0.02	15.50	10.00	7.50	7.00	5.00	2.00	1.25	0.50	2.50	1.50	1.50	1.00	1.00	3.00	1.75	0.50	-0.267090	0.047363	0.943359	-3.010000	0.910000	-0.000000	706.00	-0.18	-0.01
2.09	6.25	6.50	3.50	3.50	2.00	1.00	0.75	0.00	1.00	0.75	1.25	0.50	0.00	0.75	0.00	0.00	-0.288574	0.007324	0.931641	-2.520000	4.410000	1.120000	319.00	-0.22	-0.02	15.25	10.50	7.50	7.25	5.00	1.75	1.25	0.50	2.50	1.50	1.50	1.25	1.00	3.00	1.75	0.25	-0.266602	0.050781	0.941895	-3.010000	0.980000	-0.140000	710.00	-0.18	-0.01
2.10	6.00	6.50	3.50	3.75	2.25	0.75	1.00	0.00	0.25	0.75	1.25	0.75	0.00	0.50	0.00	0.25	-0.288574	0.008301	0.927246	-2.590000	4.410000	1.050000	315.00	-0.23	-0.03	16.25	10.25	7.50	7.00	5.25	2.00	1.25	0.50	2.75	1.50	1.50	1.00	1.00	3.00	1.75	0.50	-0.262207	0.050293	0.938477	-3.010000	0.910000	-0.070000	724.00	-0.18	-0.01
2.11	6.25	6.50	3.50	3.75	2.25	0.25	0.75	0.00	0.50	1.00	1.50	0.75	0.00	0.75	0.00	0.00	-0.287598	0.007324	0.936035	-2.450000	4.410000	1.120000	317.00	-0.22	-0.02	16.00	10.00	7.75	7.00	5.00	2.00	1.25	0.50	2.75	1.50	1.50	1.25	0.75	3.00	1.75	0.75	-0.268066	0.052246	0.940918	-3.010000	0.980000	-0.000000	720.00	-0.18	-0.01
2.12	6.00	6.50	3.50	3.75	2.25	0.75	0.75	0.00	0.50	0.75	1.25	0.50	0.00	0.25	0.00	0.25	-0.289062	0.002930	0.931152	-2.450000	4.340000	1.190000	309.00	-0.24	-0.03	15.75	10.00	7.50	7.00	5.00	1.75	1.25	0.50	2.75	1.75	1.50	1.25	1.00	3.00	1.50	0.50	-0.269043	0.044922	0.932617	-3.010000	0.980000	-0.140000	712.00	-0.18	-0.01
2.13	6.25	6.50	3.50	3.50	2.25	0.75	0.75	0.00	0.50	0.75	1.25	0.75	0.00	0.75	0.00	0.25	-0.288086	0.007812	0.935059	-2.450000	4.340000	1.190000	316.00	-0.22	-0.02	15.50	10.25	7.75	7.25	5.25	1.75	1.25	0.75	2.75	1.50	1.50	1.50	1.00	2.75	1.75	0.50	-0.258789	0.052734	0.935547	-2.940000	0.910000	-0.140000	726.00	-0.18	-0.01
2.14	6.25	6.50	3.50	3.75	2.25	0.75	0.75	0.00	0.50	1.00	1.50	0.75	0.00	0.50	0.00	0.25	-0.288574	0.006836	0.934082	-2.520000	4.340000	1.190000	323.00	-0.22	-0.03	15.25	10.00	7.50	7.00	5.00	1.75	1.25	0.50	2.75	1.50	1.50	1.25	1.25	3.00	1.75	0.50	-0.263184	0.055664	0.930664	-3.010000	0.840000	-0.070000	709.00	-0.18	-0.01
2.15	6.25	6.50	3.25	3.75	2.50	0.75	0.75	0.00	0.75	0.50	1.00	0.75	0.00	1.00	0.00	0.25	-0.283203	0.008789	0.939453	-2.660000	4.410000	1.190000	319.00	-0.22	-0.02	15.50	10.00	7.50	7.00	5.00	1.75	1.25	0.50	2.50	1.25	1.50	1.25	1.00	3.00	1.75	0.50	-0.262695	0.052246	0.946289	-3.150000	1.190000	-0.280000	703.00	-0.18	-0.01
2.16	6.25	6.75	3.25	3.75	2.25	0.75	0.75	0.00	0.75	1.00	1.00	0.75	0.00	0.75	0.00	0.00	-0.288086	0.011230	0.928711	-2.730000	4.550000	1.050000	321.00	-0.22	-0.02	15.50	10.00	7.50	7.25	5.00	2.00	1.25	0.50	2.75	1.50	1.50	1.25	1.00	3.00	2.00	0.50	-0.261719	0.049805	0.937988	-3.150000	1.190000	-0.350000	718.00	-0.18	-0.01
2.17	6.50	6.50	3.50	3.50	2.50	0.50	0.75	0.00	0.50	0.75	1.25	0.75	0.00	0.75	0.00	0.25	-0.285156	0.004883	0.931641	-2.590000	4.480000	1.120000	319.00	-0.22	-0.02	16.00	9.75	7.50	7.00	5.00	2.00	1.25	0.50	2.75	1.50	1.50	1.25	1.00	3.00	1.75	1.00	-0.267578	0.044434	0.939941	-3.080000	1.120000	-0.210000	719.00	-0.18	-0.01
2.18	6.25	6.50	3.50	3.50	2.25	0.75	0.75	0.00	1.00	1.00	1.25	0.75	0.00	0.75	0.00	0.00	-0.286133	0.003906	0.937012	-2.590000	4.340000	1.190000	325.00	-0.21	-0.02	15.75	10.00	7.50	7.00	5.00	2.00	1.25	0.50	2.50	1.50	1.50	1.00	0.75	3.00	1.75	0.50	-0.269043	0.051758	0.939453	-3.150000	0.910000	-0.140000	706.00	-0.18	-0.01
2.19	6.25	6.50	3.50	3.75	2.25	0.75	0.75	0.00	0.75	0.75	1.25	0.50	0.00	0.75	0.00	0.00	-0.292480	0.002441	0.934082	-2.590000	4.410000	1.120000	318.00	-0.23	-0.02	15.25	10.25	7.75	7.00	5.25	2.00	1.25	0.75	2.50	1.50	1.50	1.00	1.00	3.00	1.75	0.75	-0.268066	0.046387	0.941406	-3.150000	0.910000	-0.140000	717.00	-0.18	-0.01
2.20	6.25	6.75	3.50	3.75	2.50	1.50	0.75	0.00	0.75	0.75	0.75	0.50	0.00	0.50	0.00	0.25	-0.286133	0.005371	0.935059	-2.590000	4.410000	1.120000	326.00	-0.23	-0.03	15.25	10.00	7.50	7.00	5.00	2.00	1.25	0.50	2.50	1.50	1.50	1.00	0.50	2.75	1.75	0.50	-0.265625	0.048340	0.937500	-3.080000	0.910000	-0.140000	696.00	-0.19	-0.01
2.21	6.50	6.75	3.50	3.75	2.25	0.75	1.00	0.00	0.25	1.00	1.25	0.50	0.00	0.50	0.00	0.25	-0.288086	0.003906	0.934082	-2.450000	4.200000	1.190000	323.00	-0.23	-0.02	15.50	10.25	7.50	7.00	5.00	2.00	1.25	0.50	2.75	1.50	1.50	1.25	1.00	3.00	1.75	0.50	-0.265625	0.048340	0.943359	-3.080000	0.910000	-0.280000	715.00	-0.18	-0.01
2.22	6.25	7.00	3.75	3.75	2.50	1.00	1.00	0.00	0.50	1.00	1.25	0.75	0.00	0.75	0.00	0.25	-0.286133	0.003906	0.932129	-2.450000	4.200000	1.190000	340.00	-0.22	-0.02	15.25	10.00	7.50	7.00	5.00	2.00	1.25	0.75	2.50	1.50	1.50	1.25	1.00	3.00	1.50	0.50	-0.268066	0.051270	0.937988	-2.940000	0.910000	-0.210000	707.00	-0.18	-0.01
2.23	6.25	6.75	3.50	4.00	2.25	1.50	0.75	0.00	0.75	0.75	1.25	0.75	0.00	0.75	0.00	0.25	-0.290039	0.007324	0.928223	-2.520000	4.410000	1.050000	337.00	-0.22	-0.03	15.25	9.75	7.50	7.00	5.00	1.75	1.25	0.50	2.50	1.50	1.50	1.25	1.00	3.00	1.75	0.50	-0.265137	0.054688	0.941406	-3.010000	0.910000	-0.070000	701.00	-0.18	-0.01
2.24	6.25	6.75	3.50	4.00	2.25	1.00	0.75	0.00	0.75	1.00	1.25	0.50	0.00	0.75	0.00	0.00	-0.286133	0.001465	0.929199	-2.450000	4.270000	1.190000	330.00	-0.22	-0.02	15.75	10.00	7.50	7.00	5.00	1.75	1.25	0.75	2.50	1.50	1.50	1.00	1.00	3.25	1.75	0.25	-0.264648	0.050781	0.938965	-3.010000	1.120000	-0.140000	711.00	-0.18	-0.01
2.25	6.25	6.75	3.50	4.00	2.50	0.75	0.75	0.00	0.75	0.75	1.25	0.75	0.00	0.25	0.00	0.25	-0.289062	0.003418	0.938965	-2.520000	4.340000	1.120000	327.00	-0.23	-0.03	15.25	9.75	7.50	7.00	5.00	1.75	1.00	0.25	2.50	1.50	1.50	1.25	1.25	3.00	1.75	0.50	-0.268066	0.049316	0.943848	-3.010000	1.120000	-0.210000	695.00	-0.18	-0.01
2.26	6.75	7.00	3.75	4.00	2.50	0.75	0.75	0.00	0.50	1.00	1.25	0.75	0.00	0.75	0.00	0.00	-0.286621	0.007812	0.934570	-2.520000	4.340000	1.050000	340.00	-0.23	-0.02	15.25	10.00	7.25	7.00	5.00	2.00	1.25	0.50	2.75	1.25	1.50	1.00	0.75	3.00	1.50	0.50	-0.266602	0.051270	0.937988	-3.080000	1.050000	-0.140000	696.00	-0.18	-0.01
2.27	6.50	7.00	3.75	4.00	2.25	1.25	0.75	0.00	0.75	1.25	1.25	1.00	0.00	0.50	0.00	0.00	-0.289551	0.006348	0.935547	-2.520000	4.410000	1.120000	347.00	-0.22	-0.03	15.25	9.75	7.50	7.00	5.00	2.00	1.25	0.50	2.50	1.50	1.50	1.25	0.75	3.00	1.75	0.50	-0.262207	0.050781	0.942383	-3.150000	0.980000	-0.070000	701.00	-0.18	-0.01
2.28	6.25	6.75	3.50	4.00	2.25	1.00	0.75	0.00	0.75	1.00	1.25	0.75	0.00	0.75	0.00	0.00	-0.291016	0.006348	0.940918	-2.450000	4.410000	1.120000	333.00	-0.22	-0.03	15.00	10.00	7.50	7.25	5.00	1.75	1.25	0.50	2.75	1.50	1.50	1.00	0.50	3.00	1.75	0.50	-0.263672	0.048828	0.940430	-3.080000	0.980000	-0.210000	699.00	-0.18	-0.00
2.29	7.00	6.75	3.50	4.00	2.50	1.50	0.75	0.00	0.75	0.75	1.25	0.75	0.00	0.50	0.00	0.00	-0.289551	0.008789	0.933594	-2.520000	4.620000	1.120000	345.00	-0.23	-0.03	14.50	9.75	7.50	7.00	5.00	1.75	1.25	0.50	2.75	1.50	1.50	1.25	1.00	3.00	1.75	0.75	-0.263184	0.054688	0.937988	-3.150000	1.050000	-0.210000	697.00	-0.17	-0.01
2.30	6.75	6.75	3.50	4.00	2.50	0.75	0.75	0.00	0.50	0.75	1.50	0.75	0.00	0.75	0.00	0.00	-0.287598	0.014160	0.936035	-2.590000	4.760000	1.190000	335.00	-0.23	-0.02	15.00	10.00	7.50	7.00	5.00	1.75	1.25	0.50	3.00	1.50	1.25	1.00	1.00	3.00	1.50	0.50	-0.263672	0.056152	0.943359	-3.080000	1.120000	-0.210000	699.00	-0.18	-0.00
2.31	6.75	6.75	3.50	4.25	2.25	1.00	0.75	0.00	0.50	1.00	1.00	0.75	0.00	0.75	0.00	0.25	-0.288574	0.007324	0.934570	-2.660000	4.550000	1.120000	336.00	-0.23	-0.03	14.75	9.75	7.50	7.00	5.00	2.00	1.25	0.50	2.50	1.50	1.50	1.25	1.00	3.00	1.75	0.50	-0.269531	0.050781	0.940918	-3.080000	1.050000	-0.210000	698.00	-0.18	-0.01
2.32	6.75	7.00	3.75	4.00	2.00	1.00	0.75	0.00	0.25	1.00	1.25	0.50	0.00	0.75	0.00	0.00	-0.285645	0.004883	0.934082	-2.590000	4.480000	1.050000	331.00	-0.24	-0.03	14.50	9.50	7.50	7.00	5.00	1.75	1.25	0.50	2.50	1.50	1.25	1.25	0.75	3.00	1.75	1.00	-0.269531	0.047852	0.939941	-3.010000	1.050000	-0.210000	687.00	-0.18	-0.01
2.33	6.75	7.00	3.50	4.00	2.50	1.25	0.75	0.00	0.50	0.75	1.25	0.75	0.00	0.75	0.00	0.00	-0.290527	0.006348	0.931152	-2.660000	4.410000	1.190000	340.00	-0.23	-0.03	14.25	9.75	7.75	6.75	5.00	1.75	1.25	0.50	2.75	1.50	1.50	1.00	0.75	3.00	1.75	0.75	-0.260742	0.050781	0.940918	-3.150000	0.980000	-0.210000	689.00	-0.17	-0.01
2.34	6.75	7.00	4.00	4.25	2.50	1.25	0.75	0.00	0.75	1.00	1.25	0.75	0.00	0.50	0.00	0.00	-0.289551	0.003418	0.935059	-2.660000	4.480000	1.120000	354.00	-0.23	-0.03	14.50	9.50	7.50	6.75	5.00	1.75	1.25	0.50	2.50	1.50	1.50	1.00	0.75	3.00	1.50	0.50	-0.264160	0.049316	0.938477	-3.150000	0.910000	-0.210000	678.00	-0.18	-0.01
2.35	7.00	7.00	4.00	4.75	2.25	1.25	1.00	0.00	0.50	1.00	1.25	0.75	0.00	0.75	0.00	0.00	-0.290039	0.005859	0.932129	-2.660000	4.550000	1.120000	362.00	-0.23	-0.03	14.25	9.50	7.50	6.75	5.00	2.00	1.25	0.50	2.75	1.50	1.50	1.00	0.75	3.00	1.50	0.50	-0.263672	0.049805	0.939453	-3.010000	0.910000	-0.140000	682.00	-0.18	-0.01
2.36	7.00	7.00	3.75	4.25	2.25	0.75	1.00	0.00	0.75	0.75	1.25	0.75	0.00	0.75	0.00	0.00	-0.285156	0.010742	0.936523	-2.660000	4.620000	1.190000	348.00	-0.23	-0.02	14.25	9.50	7.50	6.75	5.00	1.75	1.25	0.50	2.75	1.50	1.50	1.25	0.50	3.00	1.50	0.50	-0.266113	0.049805	0.942383	-3.010000	1.050000	-0.280000	680.00	-0.18	-0.00
2.37	6.75	7.00	3.75	4.25	2.50	1.25	0.75	0.00	0.50	0.75	1.25	0.75	0.00	0.50	0.00	0.00	-0.283691	0.004395	0.930664	-2.730000	4.690000	1.050000	344.00	-0.24	-0.03	14.50	9.50	7.50	7.00	5.00	1.75	1.25	0.75	2.50	1.50	1.75	1.25	0.75	3.00	1.50	0.75	-0.260254	0.047852	0.940430	-3.010000	0.980000	-0.280000	693.00	-0.18	-0.01
2.38	7.00	7.00	3.75	3.75	2.25	1.25	1.00	0.00	0.25	1.00	1.00	0.75	0.00	1.00	0.00	0.25	-0.288086	0.010254	0.933594	-2.730000	4.550000	1.050000	345.00	-0.23	-0.02	14.25	9.50	7.75	6.75	5.00	2.00	1.25	0.50	2.75	1.50	1.50	1.25	1.00	3.00	1.50	0.75	-0.266602	0.050293	0.940430	-3.080000	0.910000	-0.280000	692.00	-0.17	-0.01
2.39	7.00	7.25	3.75	4.25	2.50	1.00	1.00	0.00	0.75	1.00	1.25	0.75	0.00	0.75	0.00	0.25	-0.288574	0.011719	0.935547	-2.800000	4.620000	1.120000	361.00	-0.22	-0.02	14.75	9.25	7.50	7.00	5.25	1.75	1.25	0.50	2.75	1.50	1.50	1.25	1.00	3.25	1.75	0.50	-0.263184	0.051758	0.943848	-3.080000	0.980000	-0.210000	699.00	-0.17	-0.01
2.40	7.00	7.00	4.00	4.25	2.50	1.00	0.75	0.00	0.75	1.00	1.25	0.75	0.00	0.50	0.00	0.25	-0.285156	0.000000	0.930176	-2.800000	4.410000	1.050000	355.00	-0.23	-0.02	14.50	9.75	7.50	6.75	5.00	1.75	1.25	0.50	2.75	1.50	1.50	1.25	0.75	3.00	1.75	0.50	-0.266602	0.050781	0.937012	-3.080000	0.840000	-0.210000	690.00	-0.17	-0.01
2.41	7.00	7.00	4.00	4.50	2.25	0.75	0.75	0.00	0.75	1.00	1.50	0.75	0.00	0.50	0.00	0.25	-0.289551	0.003418	0.938477	-2.730000	4.340000	0.980000	355.00	-0.23	-0.03	14.75	9.50	7.50	7.00	5.25	1.75	1.25	0.75	2.75	1.50	1.50	1.25	0.75	3.00	1.75	1.00	-0.263672	0.048828	0.942383	-3.080000	0.980000	-0.210000	704.00	-0.17	-0.01
2.42	6.75	7.25	4.00	4.50	2.50	1.00	0.75	0.00	1.00	1.00	1.50	0.75	0.00	0.50	0.00	0.25	-0.292969	0.006348	0.934570	-2.800000	4.550000	1.120000	364.00	-0.22	-0.03	14.75	9.50	7.75	6.75	5.00	2.00	1.25	0.50	2.75	1.50	1.50	1.25	0.75	3.00	1.75	0.50	-0.266602	0.050293	0.942871	-3.080000	1.050000	-0.350000	697.00	-0.18	-0.01
2.43	7.00	7.00	3.75	4.25	2.50	1.25	1.00	0.25	1.25	1.00	1.50	0.50	0.00	0.75	0.00	0.25	-0.286621	0.008301	0.933105	-2.800000	4.620000	1.120000	373.00	-0.21	-0.02	14.25	9.75	7.75	6.75	5.00	1.75	1.25	0.50	3.00	1.50	1.50	1.25	0.75	3.25	1.75	0.75	-0.265137	0.052246	0.950195	-2.940000	0.770000	-0.070000	698.00	-0.17	-0.00
2.44	7.00	7.00	4.00	4.75	2.50	1.25	0.75	0.25	1.00	1.00	1.50	0.75	0.00	0.75	0.00	0.00	-0.290527	0.011230	0.937988	-2.800000	4.690000	1.050000	375.00	-0.22	-0.03	14.50	9.50	7.50	7.00	5.00	1.75	1.25	0.75	2.75	1.50	1.50	1.00	1.00	3.25	2.00	0.75	-0.265137	0.052246	0.937988	-3.010000	0.770000	-0.070000	701.00	-0.17	-0.01
2.45	7.00	7.25	4.00	4.50	2.50	1.00	1.00	0.00	0.75	0.75	1.25	0.75	0.00	0.75	0.00	0.25	-0.291992	0.004395	0.936035	-2.660000	4.480000	1.120000	364.00	-0.22	-0.02	14.25	9.50	7.50	7.00	5.25	1.75	1.25	0.75	2.75	1.50	1.50	1.25	1.50	3.25	1.75	1.00	-0.265625	0.052734	0.943848	-3.080000	0.840000	-0.140000	708.00	-0.16	-0.01
2.46	7.25	7.25	4.00	4.25	2.50	1.50	0.75	0.00	0.50	1.00	1.25	0.75	0.00	0.75	0.00	0.00	-0.287109	0.003418	0.933594	-2.660000	4.410000	1.190000	363.00	-0.23	-0.03	14.50	9.50	7.75	6.75	5.25	2.00	1.25	0.50	2.75	1.50	1.50	1.50	1.00	3.25	1.75	0.75	-0.266113	0.055664	0.938965	-3.080000	0.910000	-0.140000	706.00	-0.17	-0.01
2.47	7.25	7.25	4.00	4.00	2.50	1.25	0.75	0.00	0.50	1.25	1.50	1.00	0.00	1.00	0.25	0.25	-0.287109	0.004395	0.930664	-2.730000	4.480000	1.120000	373.00	-0.21	-0.03	14.25	9.50	7.75	7.00	5.00	2.00	1.25	0.75	2.75	1.50	1.50	1.50	0.75	3.00	1.75	1.00	-0.263672	0.051758	0.936035	-3.010000	0.840000	-0.140000	704.00	-0.17	-0.01
2.48	7.25	7.25	3.75	4.50	2.50	1.25	0.75	0.25	0.75	0.75	1.25	0.75	0.25	0.50	0.00	0.25	-0.288574	0.011230	0.929199	-2.800000	4.480000	1.050000	367.00	-0.23	-0.04	14.50	9.50	7.50	6.75	5.00	2.00	1.25	0.50	2.75	1.75	1.50	1.25	1.00	3.00	1.75	0.75	-0.263184	0.049805	0.940430	-2.870000	0.910000	-0.140000	697.00	-0.17	-0.01
2.49	7.25	7.25	4.25	4.50	2.50	0.75	0.75	0.00	0.75	1.00	1.25	0.75	0.00	0.50	0.25	0.00	-0.290039	0.011719	0.934570	-2.870000	4.550000	0.980000	365.00	-0.23	-0.02	14.25	9.50	7.50	7.00	5.00	2.00	1.25	0.50	2.75	1.75	1.50	1.25	1.00	3.00	1.75	0.75	-0.268555	0.047852	0.939453	-2.940000	0.840000	-0.140000	698.00	-0.17	-0.01
2.50	7.25	7.25	4.00	4.50	2.50	1.25	1.00	0.00	0.50	1.25	1.25	0.75	0.00	0.75	0.00	0.25	-0.287598	0.011230	0.931641	-2.800000	4.620000	1.050000	372.00	-0.22	-0.03	14.25	9.25	7.50	6.75	5.00	2.00	1.25	0.50	2.75	1.50	1.50	1.00	1.00	3.00	1.75	0.75	-0.262695	0.044922	0.938965	-2.940000	0.840000	-0.210000	686.00	-0.17	-0.01
2.51	7.25	7.25	4.00	4.50	2.50	1.25	1.00	0.00	0.75	1.00	1.00	1.00	0.00	0.75	0.00	0.25	-0.287109	0.008301	0.927734	-2.800000	4.690000	1.120000	373.00	-0.22	-0.03	14.25	9.25	7.50	6.75	5.25	2.00	1.25	0.50	2.75	1.50	1.75	1.25	1.00	3.00	1.75	0.75	-0.268555	0.056152	0.934570	-2.870000	0.840000	-0.140000	695.00	-0.17	-0.01
2.52	7.00	7.00	4.00	4.75	2.50	1.00	1.00	0.25	1.00	1.00	1.50	0.75	0.00	0.75	0.00	0.00	-0.288574	0.006348	0.930176	-2.870000	4.690000	1.190000	376.00	-0.21	-0.02	14.25	9.25	7.75	6.75	5.00	2.00	1.25	0.75	2.75	1.50	1.50	1.25	0.75	3.25	1.75	0.25	-0.267578	0.049316	0.940918	-2.940000	0.840000	-0.070000	693.00	-0.17	-0.01
2.53	7.00	7.25	3.75	4.25	2.50	1.25	1.00	0.25	0.75	0.50	1.25	0.75	0.00	0.75	0.25	0.25	-0.288574	0.008301	0.932129	-2.800000	4.690000	1.050000	365.00	-0.22	-0.03	14.25	9.25	7.50	6.75	5.25	1.75	1.25	0.50	2.50	1.75	1.50	1.25	1.00	3.00	1.50	0.75	-0.268066	0.051270	0.944336	-3.080000	1.050000	-0.210000	686.00	-0.17	-0.01
2.54	7.25	7.25	4.25	4.50	2.25	1.00	1.00	0.25	0.75	1.00	1.50	0.75	0.00	0.75	0.00	0.25	-0.285645	0.006836	0.937012	-2.800000	4.620000	1.050000	377.00	-0.22	-0.03	14.75	9.25	7.50	7.00	5.25	1.75	1.25	0.50	3.00	1.50	1.50	1.25	1.00	3.00	1.75	0.75	-0.265137	0.049316	0.936035	-2.940000	0.840000	-0.070000	702.00	-0.17	-0.01
2.55	7.25	7.00	4.25	4.25	2.50	1.00	0.75	0.25	1.00	1.00	1.25	1.00	0.00	0.75	0.00	0.00	-0.283203	0.001465	0.936035	-2.870000	4.620000	1.050000	372.00	-0.22	-0.02	14.00	9.00	7.75	6.75	5.00	2.00	1.25	0.50	2.75	1.50	1.50	1.25	0.75	3.25	1.75	0.50	-0.268066	0.043457	0.942871	-3.010000	0.700000	-0.070000	685.00	-0.17	-0.01
2.56	7.00	7.25	4.25	4.25	2.50	1.25	0.75	0.50	0.75	0.75	1.25	1.00	0.00	0.75	0.00	0.25	-0.288086	0.004883	0.931152	-2.870000	4.690000	1.050000	374.00	-0.22	-0.04	15.00	9.25	7.50	6.75	5.00	1.75	1.25	0.50	2.75	1.50	1.75	1.50	1.25	3.00	2.00	0.50	-0.263184	0.049805	0.943359	-3.010000	0.840000	-0.070000	704.00	-0.17	-0.01
2.57	7.25	7.50	4.00	4.50	2.50	1.00	1.00	0.25	0.75	1.00	1.25	0.75	0.00	0.75	0.25	0.25	-0.289551	0.005371	0.933594	-3.010000	4.830000	0.980000	379.00	-0.22	-0.03	14.50	9.25	7.50	7.00	5.00	1.75	1.25	0.50	3.00	1.25	1.50	1.25	1.25	3.25	1.75	0.50	-0.266602	0.050293	0.938477	-3.080000	0.980000	-0.140000	696.00	-0.17	-0.01
2.58	7.00	7.50	4.00	4.00	2.75	1.25	1.00	0.25	0.75	1.00	1.25	0.75	0.00	0.75	0.00	0.00	-0.287109	0.006836	0.937988	-2.870000	4.830000	0.980000	372.00	-0.22	-0.03	15.00	9.00	7.50	7.00	5.25	1.75	1.25	0.50	2.50	1.50	1.50	1.25	1.00	3.25	1.75	0.75	-0.262695	0.048340	0.936035	-3.010000	0.840000	-0.000000	697.00	-0.17	-0.01
2.59	7.25	7.25	4.00	4.25	2.50	1.00	1.00	0.00	0.75	0.75	1.25	0.75	0.00	0.75	0.00	0.25	-0.291016	0.010742	0.936523	-2.800000	4.760000	1.120000	364.00	-0.23	-0.02	14.75	9.50	7.75	6.75	5.00	1.75	1.25	0.50	2.50	1.75	1.50	1.00	1.25	3.25	2.00	0.75	-0.264160	0.048340	0.941406	-2.870000	0.910000	-0.070000	701.00	-0.17	-0.01
2.60	7.25	7.50	4.00	4.50	2.50	1.00	1.00	0.25	1.00	1.00	1.50	1.25	0.00	0.75	0.25	0.25	-0.289062	0.002930	0.931152	-2.730000	4.480000	1.120000	391.00	-0.20	-0.03	14.50	9.25	7.75	7.00	5.00	1.75	1.25	0.50	2.75	1.25	1.50	1.25	1.00	3.25	1.75	0.75	-0.269043	0.048340	0.943359	-2.940000	0.980000	-0.210000	695.00	-0.17	-0.01
2.61	7.25	7.50	3.75	4.50	2.50	1.25	1.00	0.25	1.00	1.25	1.50	0.75	0.00	0.75	0.00	0.25	-0.288574	0.007324	0.938965	-2.870000	4.620000	1.120000	386.00	-0.21	-0.03	14.50	9.25	7.75	6.75	5.25	1.75	1.25	0.50	3.00	1.50	1.50	1.25	0.75	3.25	1.75	0.75	-0.266113	0.048340	0.932129	-3.080000	0.910000	-0.070000	699.00	-0.17	-0.00
2.62	7.25	7.50	4.00	4.50	2.50	0.75	1.00	0.00	0.50	1.25	1.25	1.00	0.00	0.75	0.00	0.25	-0.282715	0.005371	0.936523	-2.870000	4.830000	1.120000	371.00	-0.22	-0.03	14.25	9.25	7.75	7.00	5.25	2.00	1.25	0.50	2.75	1.75	1.50	1.25	0.75	3.25	1.50	1.00	-0.262695	0.047363	0.933594	-3.010000	0.910000	-0.140000	700.00	-0.17	-0.01
2.63	7.25	7.50	4.25	4.25	2.50	0.75	1.00	0.00	0.75	1.00	1.25	0.75	0.00	0.50	0.00	0.25	-0.288086	0.008301	0.936523	-2.870000	4.690000	1.120000	367.00	-0.23	-0.02	15.00	9.50	7.50	7.00	5.25	2.00	1.25	0.50	2.75	1.75	1.50	1.00	1.00	3.25	1.75	0.75	-0.264160	0.049805	0.943848	-2.870000	0.840000	-0.000000	709.00	-0.17	-0.01
2.64	7.25	7.25	4.00	4.25	2.50	1.25	1.00	0.00	0.75	1.00	1.25	1.00	0.00	0.75	0.25	0.25	-0.295410	0.002930	0.929199	-2.800000	4.690000	1.120000	375.00	-0.21	-0.03	14.25	9.25	7.75	6.50	5.50	1.75	1.25	0.50	2.75	1.50	1.25	1.25	1.25	3.00	1.50	0.75	-0.265137	0.050781	0.936035	-2.870000	0.980000	-0.140000	689.00	-0.17	-0.01
2.65	7.25	7.50	4.00	4.00	2.75	0.75	1.00	0.25	1.00	0.75	1.25	1.00	0.00	0.75	0.00	0.25	-0.288086	-0.000977	0.933594	-2.870000	4.760000	1.050000	374.00	-0.22	-0.02	14.00	9.25	7.75	7.00	5.25	2.00	1.25	0.50	2.50	1.75	1.75	1.25	1.00	3.00	1.75	0.50	-0.265625	0.049805	0.938477	-2.870000	0.910000	-0.070000	696.00	-0.17	-0.01
2.66	7.25	7.50	4.25	4.25	2.50	1.00	1.00	0.00	0.75	0.75	1.50	1.00	0.00	0.75	0.25	0.25	-0.287598	0.000977	0.935547	-2.870000	4.690000	1.050000	378.00	-0.22	-0.02	15.25	9.25	7.50	7.00	5.25	2.00	1.25	0.75	2.75	1.75	1.50	1.25	0.75	3.00	1.75	0.75	-0.266113	0.051270	0.945801	-2.870000	0.840000	-0.000000	711.00	-0.17	-0.01
2.67	7.25	7.50	4.00	4.50	2.50	1.00	1.00	0.00	0.75	1.00	1.25	0.75	0.00	0.75	0.00	0.25	-0.294434	0.004395	0.936035	-2.870000	4.760000	1.120000	372.00	-0.22	-0.02	13.00	8.75	7.25	6.75	5.25	1.75	1.25	0.50	2.75	1.50	1.25	1.25	0.50	3.00	1.75	0.50	-0.265625	0.054199	0.939453	-2.940000	0.840000	-0.000000	658.00	-0.17	-0.00
2.68	7.25	7.25	4.25	3.75	2.75	0.75	1.00	0.00	0.75	1.00	1.25	0.75	0.00	0.75	0.00	0.25	-0.289062	0.003418	0.930176	-2.730000	4.760000	1.050000	364.00	-0.22	-0.01	16.25	10.00	7.75	7.00	5.25	1.75	1.25	0.50	2.75	1.50	1.25	1.25	1.25	3.00	1.75	0.50	-0.264160	0.049316	0.941895	-2.940000	1.050000	-0.280000	724.00	-0.18	-0.01
2.69	7.00	7.50	4.25	4.25	2.50	0.75	0.75	0.00	0.75	0.75	1.50	0.75	0.00	0.50	0.25	0.00	-0.292480	0.005859	0.932617	-2.870000	4.690000	1.120000	361.00	-0.23	-0.02	15.75	9.75	7.75	6.75	5.25	1.75	1.25	0.50	2.75	1.75	1.50	1.25	0.50	3.00	1.75	0.25	-0.262695	0.052734	0.936523	-2.870000	0.980000	-0.140000	710.00	-0.18	-0.00
2.70	7.00	7.25	3.75	4.00	2.25	1.00	1.00	0.00	0.75	1.00	1.25	1.00	0.00	0.75	0.00	0.00	-0.287598	0.001953	0.934082	-2.800000	4.550000	1.050000	356.00	-0.22	-0.02	15.75	10.00	7.75	7.00	5.25	1.75	1.25	0.50	3.00	2.00	2.00	2.00	1.75	4.25	3.00	1.50	-0.263184	0.046387	0.942383	-2.800000	0.700000	-0.000000	781.00	-0.14	-0.01
2.71	7.00	7.25	3.75	3.50	2.50	1.00	0.75	0.00	0.75	1.50	1.25	0.75	0.00	1.00	0.00	0.25	-0.288574	0.004883	0.933594	-2.730000	4.690000	1.050000	356.00	-0.21	-0.02	21.50	14.00	9.25	8.50	6.25	3.50	1.50	1.50	4.50	2.50	2.75	2.25	2.75	4.50	3.25	2.00	-0.259277	0.052734	0.937012	-2.870000	1.120000	-0.210000	1032.00	-0.15	-0.02
2.72	7.00	7.25	4.00	4.00	2.25	1.00	0.75	0.00	0.50	1.00	1.25	0.75	0.00	0.75	0.00	0.50	-0.287598	0.004395	0.937012	-2.660000	4.690000	1.120000	352.00	-0.23	-0.03	15.50	10.00	7.75	7.00	5.25	2.00	1.25	0.75	2.75	1.50	1.50	1.25	1.00	3.25	1.75	0.75	-0.265137	0.045410	0.937012	-2.870000	0.910000	-0.140000	727.00	-0.17	-0.01
2.73	6.75	7.50	3.75	4.00	2.50	1.00	1.00	0.00	0.50	1.00	1.25	0.75	0.00	0.75	0.00	0.25	-0.289551	0.000977	0.932129	-2.590000	4.620000	1.260000	354.00	-0.22	-0.03	16.00	9.75	7.75	7.00	5.00	2.00	1.25	0.50	2.50	1.75	1.50	1.25	0.75	3.00	1.75	0.75	-0.264648	0.042969	0.941895	-2.800000	0.840000	-0.140000	717.00	-0.18	-0.01
2.74	7.00	7.25	3.75	4.00	2.25	1.00	1.00	0.00	0.50	1.00	1.00	0.75	0.00	0.75	0.00	0.00	-0.290039	0.002441	0.932617	-2.520000	4.620000	1.260000	347.00	-0.23	-0.02	16.25	10.25	7.75	7.25	5.25	1.75	1.25	0.50	2.75	1.50	1.50	1.25	1.00	3.25	1.75	0.75	-0.263672	0.053223	0.935547	-2.730000	0.840000	-0.070000	733.00	-0.18	-0.01
2.75	7.00	7.25	3.75	4.00	2.50	0.50	1.00	0.00	0.75	1.00	1.25	1.00	0.00	0.75	0.00	0.50	-0.290527	-0.002930	0.936035	-2.520000	4.690000	1.260000	356.00	-0.22	-0.02	15.75	10.25	7.75	7.00	5.25	1.75	1.25	0.50	2.75	1.50	1.50	1.50	1.25	3.25	2.00	0.75	-0.263184	0.052246	0.940918	-2.800000	0.910000	-0.070000	733.00	-0.17	-0.01
2.76	7.00	7.50	3.75	3.75	2.50	1.00	1.00	0.00	0.75	1.00	1.25	1.00	0.00	0.75	0.00	0.00	-0.288574	0.000488	0.932129	-2.730000	4.830000	1.120000	359.00	-0.22	-0.02	16.00	10.00	7.75	7.25	5.25	1.75	1.25	0.75	2.75	1.50	1.50	1.25	1.00	3.25	1.75	0.75	-0.264648	0.049316	0.942383	-2.870000	1.120000	-0.070000	732.00	-0.18	-0.01
2.77	6.75	7.25	4.00	4.00	2.50	0.75	1.00	0.00	0.50	1.00	1.25	0.50	0.00	0.75	0.00	0.25	-0.284668	0.002441	0.930176	-2.660000	4.760000	1.120000	349.00	-0.23	-0.02	15.50	10.00	7.50	7.00	5.25	2.00	1.25	0.50	2.75	1.50	1.50	1.00	0.75	3.00	1.75	0.50	-0.259766	0.049316	0.937500	-2.870000	1.120000	-0.140000	710.00	-0.18	-0.01
2.78	7.25	7.50	3.75	4.00	2.50	0.75	0.75	0.00	1.00	1.00	1.25	0.75	0.00	0.75	0.25	0.00	-0.288574	0.008301	0.934570	-2.520000	4.620000	1.190000	361.00	-0.22	-0.02	16.00	10.00	7.75	7.00	5.25	2.00	1.25	0.75	2.75	1.50	1.50	1.25	1.25	3.25	1.50	0.75	-0.266113	0.049805	0.939453	-2.870000	0.980000	-0.070000	732.00	-0.18	-0.01
2.79	7.00	7.25	3.75	4.00	2.25	1.00	0.75	0.00	0.75	0.75	1.25	0.75	0.00	0.75	0.00	0.00	-0.289062	0.003906	0.931152	-2.590000	4.690000	1.120000	346.00	-0.23	-0.02	15.50	10.25	7.50	7.00	5.00	2.00	1.25	0.50	3.50	2.50	2.50	2.50	2.50	3.50	1.75	0.75	-0.262695	0.054199	0.939941	-2.870000	0.840000	-0.140000	783.00	-0.14	-0.02
2.80	7.00	7.50	3.75	4.25	2.50	1.00	1.00	0.00	0.25	0.75	1.25	0.75	0.00	0.75	0.25	0.25	-0.288574	0.000977	0.933105	-2.660000	4.760000	1.120000	356.00	-0.23	-0.03	20.75	14.00	9.25	8.25	5.25	1.75	1.25	0.50	2.75	1.75	2.00	1.25	1.00	3.00	1.75	1.00	-0.264160	0.045410	0.936035	-2.940000	0.980000	-0.070000	860.00	-0.20	-0.01
2.81	7.25	7.50	4.00	4.00	2.50	0.50	0.75	0.00	1.00	0.75	1.25	0.50	0.00	0.50	0.00	0.25	-0.289062	0.005371	0.930176	-2.590000	4.620000	1.190000	352.00	-0.23	-0.02	20.75	10.50	8.25	8.50	6.25	3.50	1.25	0.50	2.50	2.00	2.25	2.25	2.50	4.50	3.00	1.50	-0.267578	0.050781	0.937012	-2.940000	1.050000	-0.280000	907.00	-0.16	-0.02
2.82	7.25	7.50	4.00	4.00	2.50	1.00	0.75	0.00	0.75	1.00	1.25	0.75	0.00	0.50	0.00	0.00	-0.285156	-0.002930	0.936035	-2.590000	4.690000	1.190000	358.00	-0.23	-0.02	20.00	14.25	9.25	8.50	6.25	3.75	1.50	1.50	4.50	2.50	2.50	2.25	1.50	4.25	2.75	1.25	-0.264648	0.052246	0.940918	-2.870000	0.980000	-0.140000	994.00	-0.16	-0.02
2.83	7.00	7.50	3.75	4.25	2.25	0.75	0.75	0.25	0.00	0.75	1.25	0.75	0.00	0.75	0.00	0.25	-0.288086	0.006836	0.932617	-2.590000	4.620000	1.050000	344.00	-0.24	-0.04	14.50	10.00	7.50	7.00	5.00	2.00	1.50	1.50	4.25	2.50	2.50	2.50	2.50	4.75	3.00	1.50	-0.266602	0.051270	0.937500	-2.800000	1.050000	-0.140000	831.00	-0.11	-0.02
2.84	7.00	7.50	3.75	4.25	2.50	0.75	0.75	0.25	0.75	1.00	1.25	1.25	0.00	0.75	0.00	0.25	-0.284668	0.005371	0.929688	-2.660000	4.830000	1.050000	366.00	-0.22	-0.03	14.25	9.50	7.25	6.50	5.00	2.00	1.25	0.50	2.50	1.75	1.50	1.00	0.75	3.00	2.25	1.25	-0.264160	0.051270	0.937988	-2.870000	1.050000	-0.210000	688.00	-0.17	-0.01
2.85	7.00	7.50	4.25	4.25	2.50	0.25	1.00	0.00	0.75	1.00	1.25	0.75	0.00	0.75	0.00	0.00	-0.292480	0.001465	0.929688	-2.660000	4.760000	1.050000	359.00	-0.23	-0.01	14.75	9.75	8.50	8.25	5.75	2.50	1.25	1.00	4.25	2.25	2.50	2.50	2.50	4.50	3.25	2.00	-0.263672	0.052734	0.936035	-2.940000	1.120000	-0.210000	862.00	-0.12	-0.02
2.86	7.00	7.50	4.00	3.50	2.50	0.50	0.75	0.00	0.75	1.00	1.25	0.75	0.00	0.75	0.00	0.25	-0.291992	0.006836	0.936035	-2.590000	4.620000	1.120000	347.00	-0.23	-0.02	15.50	10.00	7.75	6.75	5.25	3.00	1.50	1.75	4.50	2.50	2.50	2.50	1.25	3.25	2.00	1.75	-0.263672	0.051758	0.940430	-2.870000	1.120000	-0.140000	830.00	-0.13	-0.02
2.87	7.00	7.50	3.75	3.75	2.50	0.75	1.00	0.00	0.75	1.00	1.25	0.50	0.00	0.50	0.00	0.25	-0.288574	0.002930	0.929688	-2.590000	4.480000	1.260000	349.00	-0.23	-0.02	21.25	14.00	9.25	8.00	5.25	2.00	1.50	1.75	4.50	2.50	2.75	2.50	3.00	4.50	2.00	0.75	-0.266113	0.053711	0.941406	-2.870000	1.050000	-0.140000	981.00	-0.16	-0.02
2.88	7.00	7.50	3.75	4.00	2.50	1.00	0.75	0.00	0.75	1.00	1.25	0.75	0.00	0.75	0.00	0.00	-0.283203	0.000977	0.934570	-2.730000	4.550000	1.190000	355.00	-0.23	-0.02	21.50	13.75	9.25	8.50	6.25	3.50	1.50	1.75	4.50	2.75	2.50	2.50	3.25	4.50	3.25	2.00	-0.265137	0.053711	0.937988	-2.870000	1.050000	-0.140000	1042.00	-0.14	-0.03
2.89	6.75	7.50	4.00	4.25	2.50	0.75	1.00	0.00	0.25	1.00	1.25	0.75	0.00	0.75	0.00	0.00	-0.286133	0.002930	0.929199	-2.800000	4.620000	1.120000	352.00	-0.23	-0.03	15.50	10.00	7.75	7.00	5.25	2.00	1.25	0.75	2.75	1.50	1.50	1.50	0.75	3.75	3.25	1.75	-0.262695	0.053223	0.936035	-3.010000	1.120000	-0.000000	755.00	-0.15	-0.01
2.90	6.75	7.25	3.50	3.75	2.25	0.75	1.00	0.00	0.75	0.75	1.25	0.75	0.00	0.75	0.00	0.25	-0.282715	0.005859	0.933105	-3.010000	4.760000	1.050000	340.00	-0.22	-0.02	20.00	12.00	8.75	6.75	5.25	1.75	1.25	0.50	2.75	1.50	2.50	2.50	1.25	3.00	2.00	0.50	-0.264648	0.046875	0.939941	-3.010000	1.050000	-0.140000	827.00	-0.18	-0.01
2.91	6.75	7.25	3.50	3.75	2.25	0.75	1.00	0.00	0.75	1.00	1.25	0.50	0.00	0.50	0.00	0.25	-0.289062	0.005371	0.930664	-2.870000	4.620000	1.050000	338.00	-0.23	-0.02	15.50	10.00	7.75	7.00	5.25	2.00	1.25	0.75	3.00	1.75	1.75	2.50	3.00	4.50	3.25	1.50	-0.264648	0.052246	0.932617	-2.870000	1.050000	-0.210000	802.00	-0.13	-0.02
2.92	7.00	7.50	3.75	4.50	2.25	1.00	0.75	0.00	0.75	1.00	1.25	0.75	0.00	0.75	0.00	0.25	-0.296875	0.006836	0.934570	-2.730000	4.550000	1.050000	359.00	-0.23	-0.03	16.00	10.00	7.75	7.00	5.50	2.00	1.25	0.50	3.00	1.75	1.75	1.50	1.00	3.00	1.75	1.00	-0.265137	0.047363	0.940430	-2.870000	0.980000	-0.210000	742.00	-0.17	-0.01
2.93	7.00	7.25	3.50	3.75	2.50	0.75	0.75	0.00	1.00	1.00	1.25	1.00	0.00	0.75	0.00	0.00	-0.289551	0.004883	0.935547	-2.730000	4.480000	1.050000	350.00	-0.22	-0.02	15.00	9.75	7.75	7.00	5.25	2.00	1.25	0.50	3.00	1.50	1.50	1.50	1.50	3.25	2.00	0.50	-0.261230	0.050293	0.938965	-2.730000	0.980000	-0.000000	727.00	-0.17	-0.01
2.94	6.75	7.25	3.75	3.75	2.50	0.75	1.00	0.00	0.50	1.00	1.00	0.75	0.00	0.75	0.00	0.00	-0.291016	0.004395	0.931152	-2.660000	4.620000	1.050000	341.00	-0.23	-0.02	15.50	10.00	7.75	7.00	5.25	2.00	1.25	0.50	3.00	1.75	1.75	1.25	1.25	3.25	1.75	0.50	-0.263184	0.054199	0.941895	-2.870000	0.910000	-0.140000	732.00	-0.17	-0.01
2.95	6.75	7.50	3.75	3.75	2.50	1.00	1.00	0.00	1.00	1.00	1.25	0.50	0.00	0.50	0.00	0.25	-0.291992	0.004883	0.937012	-2.590000	4.620000	1.120000	353.00	-0.22	-0.02	15.75	9.75	7.75	7.00	5.25	2.25	1.25	0.50	3.00	1.50	1.75	1.25	1.25	3.25	1.50	0.75	-0.263184	0.051758	0.939453	-2.940000	1.120000	-0.280000	732.00	-0.17	-0.01
2.96	6.75	7.25	3.50	3.75	2.25	0.75	0.75	0.00	0.50	1.00	1.25	0.50	0.00	0.75	0.25	0.25	-0.293945	0.006348	0.937988	-2.730000	4.620000	1.120000	335.00	-0.23	-0.02	15.75	9.75	7.75	7.00	5.25	2.25	1.25	0.75	2.75	1.50	1.75	1.25	1.25	3.25	2.00	0.50	-0.264648	0.047363	0.939941	-2.870000	1.050000	-0.140000	736.00	-0.17	-0.01
2.97	6.75	7.25	3.50	3.75	2.50	0.75	0.75	0.00	0.75	1.00	1.25	0.75	0.00	0.75	0.00	0.00	-0.287109	0.003906	0.938477	-2.520000	4.550000	1.050000	340.00	-0.22	-0.02	15.50	9.50	7.75	7.00	5.25	2.00	1.25	0.75	3.00	1.75	1.75	1.25	1.25	3.25	1.75	0.75	-0.259277	0.050781	0.944824	-3.080000	1.120000	-0.210000	733.00	-0.17	-0.01
2.98	6.50	7.25	4.00	4.00	2.25	0.75	1.00	0.00	0.50	1.00	1.50	0.50	0.00	1.00	0.00	0.25	-0.291016	0.007324	0.931641	-2.520000	4.550000	1.120000	348.00	-0.22	-0.02	15.00	9.50	7.50	7.00	5.25	2.25	1.25	0.75	3.00	1.75	1.75	1.25	1.25	3.25	1.75	0.50	-0.263184	0.048828	0.935059	-3.080000	0.980000	-0.070000	726.00	-0.17	-0.01
2.99	6.75	7.00	3.75	4.00	2.25	1.00	1.00	0.00	0.75	1.00	1.00	0.75	0.00	0.75	0.00	0.50	-0.291016	0.008789	0.932617	-2.590000	4.550000	1.050000	348.00	-0.22	-0.02	15.00	9.50	7.75	7.00	5.50	2.25	1.25	0.50	3.00	1.75	1.50	1.50	1.25	3.50	2.00	0.75	-0.264648	0.047852	0.937500	-3.150000	1.050000	-0.140000	734.00	-0.16	-0.01
3.00	6.75	7.00	3.50	3.75	2.25	0.75	1.00	0.00	0.75	1.00	1.25	1.00	0.00	0.75	0.00	0.00	-0.289062	-0.000977	0.930176	-2.590000	4.550000	1.050000	342.00	-0.22	-0.02	15.25	9.50	7.50	7.00	5.25	2.25	1.25	0.75	3.00	1.75	1.75	1.50	1.25	3.25	1.75	0.75	-0.263184	0.046387	0.941895	-3.080000	1.120000	-0.140000	733.00	-0.16	-0.01
3.01	6.50	7.00	3.50	3.75	2.25	0.75	1.00	0.00	0.25	0.75	1.25	0.75	0.00	0.75	0.25	0.25	-0.287598	0.006836	0.938477	-2.520000	4.480000	1.120000	330.00	-0.22	-0.03	15.00	9.50	7.75	7.00	5.25	2.00	1.25	0.75	2.75	1.50	1.75	1.50	1.25	3.25	2.00	0.75	-0.265137	0.052734	0.933594	-3.080000	0.980000	-0.140000	727.00	-0.16	-0.01
3.02	6.50	7.00	3.75	3.50	2.25	0.75	0.75	0.00	0.75	1.00	1.00	1.00	0.00	0.75	0.25	0.50	-0.291504	0.002441	0.935547	-2.380000	4.620000	1.190000	338.00	-0.21	-0.02	15.25	9.25	7.50	7.00	5.25	2.00	1.25	0.75	3.00	1.75	1.75	1.25	1.25	3.25	1.75	0.75	-0.263672	0.049805	0.935059	-2.870000	1.120000	-0.210000	725.00	-0.16	-0.01
3.03	6.75	7.00	3.50	3.75	2.25	0.75	1.00	0.00	1.00	1.00	1.25	0.75	0.00	0.50	0.00	0.25	-0.291504	0.011719	0.930176	-2.380000	4.690000	1.190000	342.00	-0.22	-0.02	15.25	9.50	7.50	7.00	5.50	2.25	1.25	0.75	2.75	1.50	1.75	1.50	1.50	3.25	1.75	0.50	-0.263184	0.046387	0.937012	-3.010000	1.120000	-0.280000	731.00	-0.17	-0.01
3.04	6.75	7.00	3.75	3.75	2.25	0.75	1.00	0.25	0.25	0.75	1.25	0.75	0.00	0.75	0.00	0.00	-0.283203	0.005371	0.932129	-2.240000	4.690000	1.190000	336.00	-0.23	-0.03	14.75	9.25	7.50	7.00	5.25	2.00	1.25	0.75	3.25	1.75	1.75	1.50	1.25	3.25	2.00	0.50	-0.268066	0.046387	0.942383	-3.010000	1.190000	-0.210000	727.00	-0.16	-0.01
3.05	6.50	7.00	3.50	4.00	2.25	1.00	0.75	0.00	1.00	1.00	1.50	0.75	0.00	0.75	0.00	0.25	-0.290527	0.005859	0.937012	-2.170000	4.690000	1.260000	346.00	-0.21	-0.02	15.00	9.50	7.50	6.75	5.25	2.00	1.25	0.50	3.00	1.75	1.50	1.50	1.25	3.50	1.75	0.75	-0.268555	0.055176	0.936523	-3.010000	1.120000	-0.210000	720.00	-0.16	-0.01
3.06	6.50	7.00	3.75	4.00	2.25	1.00	1.00	0.00	0.75	1.00	1.25	0.75	0.00	0.75	0.25	0.00	-0.289551	0.009277	0.929199	-2.240000	4.690000	1.190000	348.00	-0.21	-0.02	15.25	9.25	7.75	7.00	5.25	2.25	1.25	0.75	3.00	1.75	1.75	1.50	1.50	3.25	2.25	1.75	-0.266113	0.051758	0.934570	-2.940000	0.980000	-0.210000	748.00	-0.15	-0.02
3.07	6.50	7.00	3.25	3.75	2.25	0.75	0.75	0.00	0.75	1.25	1.25	1.00	0.00	1.00	0.00	0.00	-0.292480	0.006836	0.932617	-2.240000	4.690000	1.190000	337.00	-0.21	-0.02	20.75	13.00	9.25	8.50	6.50	3.75	1.50	1.00	4.50	3.00	2.75	2.50	3.25	3.75	2.25	1.50	-0.268066	0.048828	0.933105	-3.150000	1.120000	-0.280000	1003.00	-0.15	-0.02
3.08	6.50	7.00	3.50	3.75	2.25	1.00	0.75	0.00	1.00	1.00	1.25	0.75	0.00	0.75	0.25	0.50	-0.289551	0.005371	0.931152	-2.100000	4.760000	1.190000	344.00	-0.21	-0.02	19.00	9.50	7.75	7.00	5.50	2.25	1.25	0.50	3.00	1.50	1.75	1.50	1.50	3.25	1.75	0.50	-0.264648	0.050781	0.932129	-3.080000	1.050000	-0.210000	775.00	-0.18	-0.00
3.09	6.50	7.00	3.75	4.25	2.50	1.00	0.75	0.00	0.75	1.00	1.25	0.75	0.00	0.50	0.00	0.25	-0.287598	0.004883	0.926758	-2.030000	4.620000	1.190000	346.00	-0.22	-0.03	15.50	9.75	7.75	7.00	5.25	2.25	1.50	0.75	3.00	1.75	1.75	1.50	1.50	3.50	1.75	0.50	-0.267090	0.052246	0.936523	-3.150000	1.120000	-0.280000	749.00	-0.16	-0.01
3.10	6.50	7.25	3.50	4.50	2.25	1.00	1.00	0.00	1.00	1.00	1.25	0.75	0.00	0.75	0.00	0.25	-0.289551	0.009277	0.934570	-2.030000	4.690000	1.190000	356.00	-0.21	-0.02	14.75	9.50	7.75	7.00	5.50	2.00	1.50	0.50	3.25	1.75	1.75	1.50	1.50	3.25	2.25	0.75	-0.263184	0.051270	0.938965	-3.150000	1.120000	-0.280000	742.00	-0.15	-0.01
3.11	6.50	7.00	3.75	4.00	2.25	0.75	0.75	0.00	0.50	1.00	1.00	0.50	0.00	0.75	0.00	0.25	-0.291992	0.008301	0.934082	-1.960000	4.760000	1.260000	330.00	-0.23	-0.02	15.00	9.50	7.75	7.00	5.50	2.25	1.25	0.75	3.00	1.50	1.50	1.50	1.25	3.50	2.00	0.75	-0.263672	0.046875	0.941406	-3.220000	1.120000	-0.140000	736.00	-0.16	-0.01
3.12	6.75	7.00	3.50	4.00	2.25	1.00	0.75	0.00	0.75	1.00	1.25	1.00	0.00	0.50	0.00	0.25	-0.298340	0.002930	0.934570	-2.030000	4.760000	1.190000	343.00	-0.22	-0.03	15.00	9.50	7.75	7.00	5.50	2.00	1.50	0.75	3.25	1.75	1.75	1.50	1.25	3.50	2.00	0.75	-0.262695	0.047363	0.936035	-3.150000	1.050000	-0.210000	746.00	-0.16	-0.01
3.13	6.50	6.75	3.75	3.50	2.25	0.75	0.75	0.00	0.25	1.00	1.25	0.75	0.00	0.50	0.00	0.25	-0.288574	0.000977	0.935547	-1.960000	4.760000	1.190000	322.00	-0.23	-0.03	14.50	9.25	7.25	6.50	6.25	2.50	1.50	1.75	5.00	2.75	3.00	2.50	3.00	4.75	3.25	2.00	-0.266113	0.051270	0.939453	-3.010000	0.980000	-0.140000	870.00	-0.09	-0.02
3.14	6.50	7.00	3.50	4.00	2.25	0.75	1.00	0.00	0.25	0.75	1.00	0.50	0.00	0.75	0.00	0.00	-0.290527	0.007324	0.937988	-1.890000	4.830000	1.260000	323.00	-0.24	-0.02	20.00	13.00	9.25	8.50	6.50	4.00	1.50	1.75	5.00	2.50	2.25	1.50	1.00	3.50	1.75	1.00	-0.267578	0.048828	0.939941	-3.010000	0.980000	-0.210000	962.00	-0.17	-0.01
3.15	6.50	6.50	3.25	3.50	2.25	0.75	1.00	0.00	0.50	1.00	1.25	0.50	0.00	0.75	0.00	0.00	-0.288086	0.007324	0.942383	-1.890000	4.830000	1.330000	319.00	-0.22	-0.02	13.25	8.75	7.25	6.50	5.50	2.00	1.50	0.75	3.25	1.50	1.75	1.50	1.25	3.25	2.00	0.75	-0.266113	0.055176	0.940430	-3.080000	0.980000	-0.140000	702.00	-0.15	-0.01
3.16	6.25	6.75	3.50	3.75	2.25	1.00	0.75	0.00	0.50	0.75	1.00	0.75	0.00	0.50	0.00	0.00	-0.291992	0.009277	0.930664	-1.820000	4.830000	1.330000	318.00	-0.24	-0.03	13.75	9.00	7.50	7.00	5.50	2.00	1.50	0.75	3.25	1.75	1.75	1.50	1.25	3.50	2.00	0.75	-0.264160	0.053223	0.935059	-3.010000	0.910000	-0.070000	724.00	-0.15	-0.01
3.17	6.25	6.75	3.25	3.50	2.25	0.75	0.75	0.00	0.25	0.75	1.50	0.75	0.00	0.50	0.00	0.00	-0.289062	0.007324	0.931641	-1.750000	4.970000	1.260000	311.00	-0.23	-0.03	14.75	9.25	7.75	7.00	5.50	2.00	1.50	0.75	3.25	1.75	1.50	1.50	1.00	3.75	2.00	0.75	-0.261230	0.054688	0.938477	-3.080000	1.120000	-0.210000	738.00	-0.15	-0.00
3.18	6.25	6.75	3.25	3.50	2.25	0.75	0.75	0.00	0.50	0.75	1.25	0.75	0.00	0.75	0.00	0.00	-0.290039	0.010742	0.932129	-1.820000	4.970000	1.260000	314.00	-0.23	-0.02	14.50	9.00	7.50	6.75	5.25	2.00	1.50	0.50	3.25	1.75	1.75	1.50	1.25	3.25	2.00	0.50	-0.264160	0.047852	0.940918	-3.150000	1.190000	-0.210000	719.00	-0.16	-0.00
3.19	6.25	6.75	3.00	3.50	2.25	0.75	0.75	0.00	0.50	0.75	1.25	0.50	0.00	0.50	0.00	0.25	-0.291016	0.011719	0.937500	-1.820000	4.830000	1.400000	307.00	-0.23	-0.03	15.25	9.25	7.75	7.00	5.50	2.00	1.50	0.75	3.50	1.75	1.75	1.75	1.75	3.75	2.00	0.75	-0.263184	0.049805	0.939941	-3.080000	1.190000	-0.350000	760.00	-0.15	-0.01
3.20	6.25	6.75	3.25	3.75	2.25	0.75	0.75	0.00	0.50	0.75	1.25	0.75	0.00	0.50	0.00	0.25	-0.283691	0.003906	0.933594	-1.750000	4.620000	1.400000	316.00	-0.23	-0.03	14.75	9.25	7.75	7.00	5.50	2.25	1.50	0.75	3.25	1.75	2.00	1.75	1.25	3.25	2.00	0.75	-0.266113	0.051758	0.944336	-3.010000	1.120000	-0.140000	747.00	-0.15	-0.01
3.21	6.25	6.50	3.00	3.75	2.00	0.75	0.75	0.00	0.50	0.75	1.25	0.75	0.00	0.50	0.00	0.00	-0.290527	0.008789	0.937500	-1.960000	4.690000	1.400000	306.00	-0.23	-0.03	15.25	9.75	7.75	7.00	5.50	2.00	1.50	0.50	3.25	1.75	2.00	1.75	1.50	3.50	2.00	0.75	-0.263672	0.047852	0.938965	-2.870000	1.050000	-0.140000	756.00	-0.15	-0.01
3.22	6.25	6.75	3.50	3.75	2.00	0.75	0.75	0.00	0.50	0.75	1.25	0.50	0.00	0.75	0.00	0.00	-0.288086	0.006348	0.935059	-2.030000	4.690000	1.330000	314.00	-0.23	-0.02	14.75	9.50	8.00	7.00	5.50	2.00	1.50	0.75	3.00	1.75	2.00	1.50	1.50	3.50	2.00	0.50	-0.263672	0.049805	0.937012	-2.870000	1.120000	-0.070000	747.00	-0.16	-0.01
3.23	6.25	6.75	3.25	3.75	2.25	0.75	0.75	0.25	0.75	1.00	1.00	0.75	0.00	0.75	0.50	0.25	-0.286621	0.008789	0.932129	-2.590000	4.830000	1.190000	332.00	-0.21	-0.03	14.75	9.25	7.75	7.00	5.75	2.25	1.50	0.75	3.25	2.00	2.00	1.50	1.25	3.75	2.00	0.75	-0.263672	0.042969	0.937988	-2.800000	0.980000	-0.140000	755.00	-0.15	-0.01
3.24	6.25	6.75	3.00	4.00	2.25	1.00	0.75	0.25	0.75	1.00	1.25	0.75	0.00	0.75	0.00	0.25	-0.286133	0.006836	0.931641	-2.520000	4.830000	1.190000	332.00	-0.21	-0.03	14.50	9.25	7.75	7.00	5.75	2.00	1.25	0.50	3.25	1.75	2.00	1.50	1.25	3.50	1.75	0.75	-0.268555	0.052246	0.940430	-2.870000	1.050000	-0.210000	733.00	-0.16	-0.01
3.25	6.25	7.25	3.50	4.25	2.25	1.00	0.75	0.00	0.75	1.25	1.50	1.00	0.00	0.75	0.00	0.25	-0.286133	0.009277	0.935059	-2.310000	4.760000	1.330000	351.00	-0.21	-0.03	14.50	9.25	7.75	7.00	5.50	2.25	1.50	0.50	3.50	1.50	2.00	1.50	1.50	3.50	2.00	0.75	-0.263184	0.050293	0.936035	-2.870000	1.120000	-0.140000	743.00	-0.15	-0.01
3.26	6.25	7.25	3.25	4.25	2.50	1.50	0.75	0.25	1.00	1.00	1.50	1.00	0.50	0.75	0.50	0.50	-0.287598	0.009766	0.933105	-2.170000	4.690000	1.260000	373.00	-0.19	-0.05	14.75	9.25	7.75	7.00	5.50	2.25	1.50	0.50	3.25	2.00	1.75	1.75	1.00	3.25	2.00	0.75	-0.261230	0.050293	0.932617	-2.800000	0.910000	-0.000000	741.00	-0.15	-0.01
3.27	7.75	8.25	4.75	5.25	2.75	2.50	0.75	1.00	1.25	1.25	1.75	1.25	0.50	1.25	0.50	0.75	-0.284668	0.008301	0.934570	-2.240000	4.760000	1.190000	477.00	-0.18	-0.05	14.50	9.25	7.75	7.00	5.50	2.25	1.50	0.75	3.25	1.75	1.75	1.50	1.00	3.50	2.00	0.75	-0.266113	0.047363	0.937012	-2.870000	1.050000	-0.140000	739.00	-0.15	-0.01
3.28	8.25	8.25	5.00	5.50	2.75	2.25	1.00	1.00	1.50	1.50	2.25	1.50	0.50	1.25	0.75	0.75	-0.291016	0.005859	0.933105	-2.240000	4.760000	1.260000	507.00	-0.17	-0.05	14.25	9.25	7.75	7.00	5.50	2.25	1.50	0.75	3.25	1.75	1.75	1.50	1.00	3.50	1.50	1.00	-0.265137	0.049805	0.938477	-2.800000	1.050000	-0.140000	732.00	-0.16	-0.01
3.29	8.75	8.50	5.00	5.50	3.00	2.75	1.00	1.25	1.75	1.50	1.75	1.50	1.00	1.25	0.75	0.75	-0.291504	0.012207	0.937500	-2.240000	4.760000	1.050000	531.00	-0.17	-0.05	14.50	9.00	7.75	7.00	5.50	2.25	1.50	0.75	3.25	1.75	1.75	1.50	1.50	3.50	2.25	1.00	-0.264160	0.051270	0.937988	-2.800000	1.050000	-0.070000	745.00	-0.15	-0.01
3.30	8.75	8.50	5.00	5.50	3.00	2.75	1.00	1.00	1.50	1.75	2.00	1.50	0.75	1.50	0.75	0.75	-0.286621	0.004395	0.936035	-2.380000	4.690000	1.050000	529.00	-0.17	-0.05	15.25	9.50	7.50	7.25	5.50	2.00	1.50	0.50	3.00	1.75	1.75	1.50	1.25	3.25	2.00	0.50	-0.262695	0.047852	0.934082	-2.800000	1.190000	-0.140000	737.00	-0.16	-0.01
3.31	8.25	8.50	5.00	5.50	2.75	2.25	0.75	1.00	2.00	1.50	1.75	1.25	0.50	1.50	0.50	0.50	-0.285156	0.000977	0.927734	-2.450000	4.760000	1.120000	502.00	-0.17	-0.04	15.00	9.25	7.75	7.00	5.50	2.25	1.50	0.75	3.50	1.50	1.75	1.75	1.50	3.50	2.00	0.75	-0.261230	0.051758	0.943359	-2.800000	1.120000	-0.140000	753.00	-0.15	-0.01
3.32	8.50	8.25	4.75	5.25	2.75	2.00	0.75	1.00	1.50	1.50	1.75	1.50	0.75	1.50	0.25	0.75	-0.290039	0.009766	0.933105	-2.380000	4.830000	1.260000	490.00	-0.18	-0.05	14.50	9.25	7.75	7.00	5.50	2.25	1.50	0.50	3.25	1.75	2.00	1.50	1.25	3.50	1.75	0.50	-0.266602	0.047852	0.937500	-2.940000	1.120000	-0.140000	735.00	-0.16	-0.01
3.33	8.50	8.25	4.75	5.25	2.75	2.00	1.00	0.75	1.50	1.25	1.75	1.25	0.75	1.25	0.50	0.50	-0.296387	0.004395	0.934082	-2.310000	4.690000	1.260000	483.00	-0.18	-0.04	14.50	9.25	7.75	7.00	5.50	2.00	1.50	0.75	3.25	1.75	1.75	1.50	1.50	3.25	2.00	0.75	-0.259766	0.047363	0.940430	-2.730000	1.050000	-0.070000	738.00	-0.15	-0.01
3.34	8.25	8.50	4.75	5.25	2.75	2.00	0.75	0.75	1.25	1.50	1.75	1.50	0.75	1.00	0.50	0.50	-0.292480	0.009766	0.934570	-2.310000	4.550000	1.330000	479.00	-0.18	-0.05	14.50	9.25	7.75	7.00	5.75	2.25	1.50	0.50	3.25	1.75	1.50	1.50	1.75	3.50	2.25	0.75	-0.265137	0.048340	0.943359	-2.730000	0.910000	-0.000000	745.00	-0.15	-0.01
3.35	8.50	8.25	5.00	5.50	2.75	2.50	1.00	1.00	1.50	2.00	2.00	1.75	0.75	1.75	0.75	0.75	-0.294922	0.003906	0.936523	-2.310000	4.690000	1.330000	526.00	-0.16	-0.05	15.00	9.00	8.00	7.00	5.50	2.25	1.50	0.50	3.25	1.75	1.75	1.50	1.25	3.50	2.00	0.50	-0.263672	0.048828	0.935059	-2.800000	0.910000	0.070000	742.00	-0.16	-0.00
3.36	8.75	8.50	5.25	5.50	2.75	2.75	1.00	1.00	1.50	1.50	2.00	1.50	1.25	1.75	0.75	0.50	-0.292969	0.008301	0.934570	-2.520000	4.760000	1.190000	532.00	-0.17	-0.05	14.50	9.50	7.75	7.25	5.50	2.25	1.25	0.75	3.00	1.75	1.75	1.50	0.75	3.50	1.75	0.75	-0.258789	0.049805	0.938477	-2.870000	1.120000	-0.140000	731.00	-0.16	-0.01
3.37	8.75	8.25	5.25	5.50	2.75	2.50	0.75	1.00	1.50	1.25	1.75	1.50	1.00	1.50	0.75	0.75	-0.289062	0.011230	0.934570	-2.520000	4.690000	1.190000	513.00	-0.17	-0.05	14.50	9.25	7.75	7.00	5.50	2.25	1.50	0.75	3.00	1.75	2.00	1.50	1.25	3.75	1.75	0.75	-0.261719	0.051270	0.938965	-2.800000	1.120000	-0.140000	740.00	-0.15	-0.01
3.38	8.75	8.25	5.00	5.50	2.75	2.50	1.00	1.00	1.50	1.50	2.00	1.50	1.00	1.75	0.50	0.75	-0.289062	0.004395	0.931641	-2.660000	4.760000	1.120000	519.00	-0.17	-0.05	15.00	9.75	8.00	7.00	5.50	2.25	1.25	0.75	3.00	1.75	1.75	1.50	1.50	3.50	2.00	1.00	-0.264648	0.052246	0.941895	-2.940000	1.050000	-0.210000	751.00	-0.16	-0.01
3.39	8.75	8.50	5.00	5.75	2.75	2.50	1.00	1.00	1.75	1.50	2.00	1.25	1.00	1.50	0.75	0.50	-0.296875	0.008789	0.937988	-2.660000	4.690000	1.120000	525.00	-0.17	-0.05	14.75	9.50	8.00	6.75	5.50	2.25	1.25	0.50	3.25	1.75	1.50	1.50	1.25	3.50	2.25	0.75	-0.269531	0.050293	0.943848	-2.870000	1.260000	-0.210000	738.00	-0.16	-0.01
3.40	8.50	8.50	5.00	5.50	2.75	2.50	1.00	1.00	2.00	1.75	1.75	1.75	1.00	1.50	0.75	0.75	-0.295410	0.008301	0.937012	-2.730000	4.690000	1.120000	530.00	-0.16	-0.05	14.50	9.50	7.75	6.75	5.50	2.00	1.25	0.75	3.00	1.75	1.75	1.75	1.25	3.50	2.00	0.75	-0.269531	0.046875	0.933105	-2.870000	1.190000	-0.140000	733.00	-0.16	-0.01
3.41	8.50	8.25	5.00	5.50	2.75	2.50	1.00	0.75	1.75	1.50	2.00	1.50	1.00	1.75	0.50	0.75	-0.290039	0.009766	0.931152	-2.730000	4.550000	1.120000	516.00	-0.16	-0.04	14.25	9.25	7.75	7.00	5.50	2.25	1.25	0.75	3.25	1.75	1.75	1.50	1.50	3.25	1.75	0.75	-0.265625	0.044434	0.946777	-2.870000	1.050000	-0.070000	731.00	-0.16	-0.01
3.42	8.50	8.25	4.75	5.50	2.75	2.25	1.00	1.00	1.25	1.75	1.75	1.25	0.75	1.50	0.50	0.75	-0.294922	0.007324	0.933105	-2.800000	4.550000	1.190000	499.00	-0.17	-0.05	15.00	9.25	7.75	7.25	5.50	2.25	1.50	0.75	3.25	1.75	1.75	1.50	1.25	3.50	2.00	0.75	-0.265137	0.049805	0.939453	-2.870000	0.910000	-0.070000	750.00	-0.16	-0.01
3.43	8.75	8.50	5.00	5.50	2.75	2.50	1.00	0.75	1.25	1.50	2.00	1.50	0.75	1.50	0.75	0.50	-0.294922	0.004395	0.936035	-2.800000	4.690000	1.120000	511.00	-0.17	-0.05	14.75	9.50	7.75	7.00	5.50	2.25	1.50	0.75	2.75	1.50	2.00	1.50	1.25	3.25	2.00	0.75	-0.264160	0.048828	0.940430	-2.800000	1.120000	-0.140000	737.00	-0.16	-0.01
3.44	8.50	8.25	5.00	5.25	2.75	2.50	1.00	0.75	1.75	1.50	1.75	1.50	0.75	1.50	1.00	1.00	-0.284668	0.007324	0.932129	-2.800000	4.620000	1.120000	513.00	-0.16	-0.04	15.00	9.50	7.75	7.00	5.50	2.25	1.50	0.75	3.00	1.75	1.75	1.75	1.50	3.50	1.75	0.75	-0.266113	0.047852	0.937500	-2.870000	1.120000	-0.070000	748.00	-0.16	-0.01
3.45	8.50	8.25	4.75	5.50	2.75	2.25	1.00	1.00	1.50	1.50	1.75	1.50	0.50	1.25	0.50	0.75	-0.286621	0.007812	0.933594	-2.870000	4.620000	1.050000	498.00	-0.18	-0.05	14.75	9.25	8.00	7.00	5.50	2.25	1.50	0.75	3.00	1.50	1.75	1.50	1.50	3.50	2.00	0.50	-0.265625	0.051270	0.936035	-2.940000	1.050000	-0.210000	741.00	-0.16	-0.01
3.46	8.50	8.25	4.75	5.25	2.75	2.25	1.00	0.50	1.50	1.50	1.75	1.25	0.75	1.25	0.50	0.75	-0.291992	0.006836	0.930664	-2.730000	4.620000	1.050000	487.00	-0.18	-0.04	14.50	9.25	8.00	7.25	5.50	2.25	1.25	0.75	3.50	1.75	2.00	1.50	1.75	3.25	2.00	0.50	-0.261719	0.050293	0.941406	-2.870000	1.050000	-0.210000	750.00	-0.15	-0.01
3.47	8.50	8.25	5.00	5.50	2.75	2.00	1.00	0.75	1.50	1.25	1.75	1.00	0.25	1.25	0.50	0.50	-0.292480	0.012695	0.930664	-2.730000	4.550000	1.120000	482.00	-0.19	-0.04	15.00	9.25	7.75	7.25	5.75	2.25	1.25	0.50	3.25	1.50	1.75	1.50	1.25	3.25	2.00	0.50	-0.268066	0.049316	0.944824	-2.800000	1.120000	-0.070000	738.00	-0.16	-0.01
3.48	8.25	8.25	4.75	5.25	2.50	2.50	1.00	0.75	1.50	1.50	1.50	1.25	1.00	1.50	0.75	0.75	-0.290039	0.009766	0.926270	-2.800000	4.410000	1.050000	493.00	-0.17	-0.05	16.00	9.75	7.75	7.25	5.50	2.25	1.25	0.75	3.25	1.50	1.75	1.75	1.25	3.25	1.75	0.75	-0.260742	0.050781	0.936523	-2.800000	1.120000	-0.000000	757.00	-0.17	-0.01
3.49	8.50	8.25	4.75	5.25	2.50	2.25	1.00	0.25	1.75	1.25	1.75	1.50	1.00	1.25	0.50	0.75	-0.291504	0.007324	0.932129	-2.870000	4.620000	0.980000	485.00	-0.18	-0.04	15.00	9.75	8.00	7.00	5.50	2.25	1.25	0.75	3.25	1.75	1.50	1.50	1.25	3.25	1.75	0.50	-0.267090	0.044922	0.941406	-2.800000	1.260000	-0.140000	741.00	-0.17	-0.01
3.50	8.25	8.25	4.75	5.25	2.50	2.00	1.00	0.75	1.25	1.00	1.75	1.25	0.50	1.00	0.50	0.50	-0.290039	0.007812	0.935059	-2.940000	4.830000	1.050000	467.00	-0.19	-0.05	15.00	9.50	7.50	7.25	5.50	2.25	1.25	0.50	3.00	1.75	1.75	1.50	1.00	3.50	2.00	1.00	-0.264648	0.048340	0.941406	-2.800000	1.190000	-0.000000	736.00	-0.16	-0.01
3.51	8.25	8.25	4.75	5.25	2.50	2.25	1.00	1.00	1.25	1.50	1.75	1.25	0.75	1.25	0.50	0.75	-0.291504	0.005371	0.928711	-2.940000	4.620000	1.050000	485.00	-0.18	-0.05	15.75	9.50	7.75	7.00	5.50	1.75	1.50	0.75	3.00	1.75	1.75	1.25	1.00	3.50	1.75	0.75	-0.265625	0.050293	0.945801	-2.800000	1.050000	-0.070000	740.00	-0.17	-0.00
3.52	8.50	8.25	5.00	5.50	2.75	2.25	0.75	0.75	1.25	1.50	2.00	1.25	0.75	1.50	0.50	0.75	-0.290039	0.002441	0.930176	-2.870000	4.550000	1.050000	494.00	-0.18	-0.05	15.25	9.50	7.75	7.00	5.50	2.25	1.25	0.50	2.75	1.75	1.75	1.50	1.00	3.50	1.75	0.75	-0.263184	0.049316	0.937012	-2.660000	0.910000	-0.140000	731.00	-0.17	-0.01
3.53	8.50	8.25	4.75	5.50	2.75	2.25	1.00	1.00	1.25	1.75	1.75	1.50	1.00	1.25	0.50	0.50	-0.291992	0.008789	0.923828	-2.870000	4.550000	1.050000	501.00	-0.17	-0.05	15.25	9.50	7.75	7.00	5.50	2.25	1.25	0.75	3.25	1.75	1.50	1.25	1.50	3.50	2.00	0.75	-0.261230	0.053711	0.936035	-2.730000	0.910000	-0.140000	745.00	-0.16	-0.01
3.54	8.25	8.25	4.75	5.50	2.75	2.25	0.75	1.00	1.50	1.50	1.75	1.50	1.00	1.25	0.75	0.75	-0.292480	0.014160	0.936035	-2.870000	4.550000	1.050000	499.00	-0.17	-0.05	15.25	9.50	7.75	7.25	5.50	2.25	1.25	0.50	3.25	1.50	1.75	1.50	1.25	3.25	1.75	0.50	-0.263184	0.049316	0.932129	-2.800000	1.260000	-0.280000	737.00	-0.17	-0.01
3.55	8.50	8.00	5.00	5.50	2.50	2.25	1.00	1.00	1.50	1.75	1.75	1.25	0.75	1.50	0.50	0.50	-0.286133	0.005371	0.933594	-2.800000	4.690000	1.050000	499.00	-0.17	-0.04	15.50	9.50	7.75	7.25	5.75	2.00	1.25	0.75	3.25	1.75	1.75	1.25	1.00	3.50	2.00	1.00	-0.259766	0.047852	0.940918	-2.730000	1.120000	-0.210000	750.00	-0.16	-0.01
3.56	8.25	8.25	5.00	5.25	2.75	2.25	1.00	0.75	1.25	1.25	1.75	1.25	0.75	1.50	0.50	0.75	-0.290527	0.005859	0.932617	-2.800000	4.620000	1.190000	487.00	-0.18	-0.05	15.25	9.50	7.75	7.25	5.50	2.25	1.25	0.75	3.00	1.75	1.50	1.50	1.25	3.50	1.75	1.00	-0.262207	0.048828	0.932617	-2.730000	0.980000	-0.140000	743.00	-0.16	-0.01
3.57	8.25	8.00	4.75	5.25	2.50	2.00	1.00	0.75	1.25	1.25	1.50	1.25	0.50	1.25	0.25	0.50	-0.289062	0.006348	0.935059	-2.730000	4.620000	1.120000	463.00	-0.19	-0.04	15.25	9.25	7.75	7.25	5.50	2.25	1.25	0.75	3.25	1.75	1.75	1.50	1.50	3.50	2.00	0.75	-0.260254	0.050293	0.940430	-2.660000	1.120000	-0.140000	751.00	-0.16	-0.01
3.58	8.50	8.25	4.25	5.00	2.50	2.50	1.00	0.75	1.50	1.25	1.75	1.00	0.00	1.00	0.50	0.75	-0.284180	0.011719	0.934082	-2.870000	4.690000	1.120000	466.00	-0.19	-0.04	15.50	9.25	8.00	7.50	5.50	2.25	1.25	0.75	2.75	1.50	1.75	1.25	1.50	3.25	2.00	0.50	-0.264160	0.048340	0.938477	-2.660000	0.910000	-0.000000	743.00	-0.17	-0.01
3.59	8.00	8.00	4.50	5.00	2.50	1.75	0.75	0.75	1.50	1.25	1.50	1.25	0.75	1.50	0.50	0.50	-0.290039	0.005371	0.930176	-2.870000	4.690000	1.120000	459.00	-0.18	-0.04	15.25	9.50	7.75	7.25	5.50	2.25	1.25	0.75	3.00	1.75	1.75	1.50	1.25	3.25	1.75	0.75	-0.264160	0.050293	0.938477	-2.590000	0.980000	-0.210000	742.00	-0.16	-0.01
3.60	8.25	8.00	4.50	5.25	2.50	1.75	1.00	0.50	1.25	1.25	1.50	1.25	0.25	1.00	0.50	0.50	-0.292969	0.008301	0.933594	-2.730000	4.620000	1.190000	451.00	-0.19	-0.04	15.75	9.50	8.00	7.25	5.50	2.25	1.25	0.50	3.00	1.75	1.75	1.50	1.25	3.25	1.75	0.75	-0.267090	0.048828	0.941895	-2.730000	0.840000	-0.000000	747.00	-0.17	-0.01
3.61	8.00	8.25	4.50	5.00	2.50	2.00	1.00	0.75	1.25	1.25	1.50	1.25	0.50	1.25	0.25	0.50	-0.288574	0.003418	0.935059	-2.660000	4.620000	1.190000	457.00	-0.19	-0.04	13.75	9.00	7.75	7.50	5.75	2.75	1.50	1.25	4.25	2.50	2.50	2.75	3.00	4.50	3.00	1.75	-0.266602	0.045410	0.940430	-2.590000	0.910000	-0.070000	842.00	-0.10	-0.03
3.62	8.00	8.00	4.50	5.00	2.50	1.50	0.75	0.75	1.25	1.25	1.75	1.00	0.00	1.25	0.25	0.50	-0.291992	0.008301	0.932617	-2.800000	4.760000	1.120000	440.00	-0.19	-0.04	20.75	13.75	9.25	8.75	6.50	3.50	1.50	1.50	4.50	2.75	2.50	2.50	2.75	4.50	3.25	1.75	-0.267090	0.051270	0.938477	-2.730000	0.910000	-0.070000	1029.00	-0.15	-0.02
3.63	7.75	8.00	4.75	5.25	2.50	2.25	1.00	0.50	1.50	1.25	1.50	1.25	0.50	1.25	0.50	0.50	-0.287109	0.006348	0.935547	-2.800000	4.690000	1.120000	463.00	-0.18	-0.04	16.25	10.25	7.75	7.25	5.50	2.00	1.25	0.75	3.00	1.50	1.75	1.50	1.00	3.25	1.75	0.50	-0.266602	0.054199	0.937988	-2.590000	1.120000	-0.210000	751.00	-0.17	-0.01
3.64	8.25	8.25	4.75	5.25	2.75	2.25	1.00	0.75	1.50	1.25	1.50	1.25	0.50	1.00	0.50	0.50	-0.291992	0.005859	0.933105	-2.940000	4.830000	1.050000	476.00	-0.19	-0.04	14.75	9.75	7.50	7.00	5.50	2.25	1.25	0.75	3.00	1.50	1.75	1.50	1.25	3.00	1.50	0.75	-0.261719	0.048828	0.934082	-2.730000	1.050000	-0.140000	725.00	-0.17	-0.01
3.65	8.00	8.00	4.50	5.00	2.50	1.75	1.00	0.75	1.50	1.50	1.75	1.25	0.75	1.25	0.50	0.50	-0.284180	0.011230	0.934082	-2.940000	4.760000	1.050000	466.00	-0.17	-0.04	16.75	10.50	8.00	7.25	5.50	2.25	1.25	0.50	3.00	1.50	1.50	1.50	1.00	3.25	2.00	0.75	-0.259277	0.050293	0.949707	-2.940000	1.050000	-0.210000	763.00	-0.18	-0.01
3.66	8.00	8.00	4.50	5.00	2.75	1.50	0.75	0.75	1.25	1.50	1.75	1.25	0.50	1.25	0.50	0.75	-0.292480	0.007324	0.931152	-2.800000	4.760000	1.190000	458.00	-0.18	-0.04																									
3.67	8.25	8.25	4.50	5.00	2.50	2.25	0.75	0.50	1.25	1.25	1.75	1.25	0.50	1.00	0.25	0.75	-0.291504	0.009766	0.932617	-2.800000	4.620000	1.120000	457.00	-0.19	-0.05	16.25	10.50	7.75	7.25	5.50	2.00	1.25	0.50	2.75	1.50	1.75	1.50	0.75	3.50	2.00	0.75	-0.264648	0.054688	0.935059	-2.870000	0.980000	-0.140000	750.00	-0.17	-0.01
3.68	8.00	7.75	4.50	5.00	2.50	1.75	0.75	0.50	1.25	1.25	1.50	1.25	0.50	1.50	0.50	0.75	-0.294434	0.008301	0.932617	-2.730000	4.550000	1.190000	447.00	-0.18	-0.04	16.50	10.50	8.00	7.25	5.50	2.25	1.25	0.50	2.75	1.50	1.50	1.50	1.00	3.50	1.75	0.75	-0.266113	0.052734	0.938965	-2.940000	0.980000	-0.210000	756.00	-0.18	-0.01
3.69	7.50	7.75	4.25	5.00	2.50	1.50	0.75	0.25	1.00	1.00	1.50	1.00	0.00	0.75	0.00	0.00	-0.291016	0.007324	0.935059	-2.590000	4.620000	1.190000	400.00	-0.22	-0.03	16.00	10.50	8.00	7.50	5.50	2.25	1.25	0.50	3.00	1.50	1.50	1.50	1.25	3.25	1.75	0.75	-0.265625	0.051270	0.941406	-2.870000	0.840000	-0.070000	757.00	-0.18	-0.01
3.70	7.00	7.00	3.00	4.00	2.25	0.75	0.50	0.00	0.50	0.75	1.25	0.75	0.00	0.75	0.00	0.00	-0.293457	0.007812	0.934570	-2.730000	4.760000	1.190000	324.00	-0.24	-0.03	16.75	10.50	8.00	7.25	5.25	2.25	1.25	0.75	3.00	1.50	1.50	1.50	0.75	3.25	2.00	0.50	-0.262207	0.049316	0.941406	-2.660000	0.840000	0.070000	760.00	-0.18	-0.01
3.71	7.25	7.50	4.00	4.75	2.25	1.50	0.75	0.50	1.00	1.25	1.75	1.00	0.00	1.25	0.25	0.50	-0.291504	0.006348	0.935547	-2.730000	4.760000	1.190000	406.00	-0.19	-0.04	16.50	10.25	7.75	7.50	5.50	2.25	1.25	0.75	2.75	1.50	1.75	1.50	1.25	3.25	2.00	0.50	-0.261719	0.047363	0.931152	-2.730000	0.840000	-0.000000	762.00	-0.17	-0.01
3.72	7.75	7.75	4.25	5.00	2.50	1.50	0.75	0.50	1.25	1.25	1.50	1.00	0.25	1.00	0.50	0.25	-0.286133	0.011719	0.931641	-2.730000	4.550000	1.050000	426.00	-0.20	-0.04	16.25	11.00	8.00	7.50	5.50	2.25	1.25	0.75	3.00	1.50	1.75	1.50	1.25	3.25	2.00	0.50	-0.265137	0.045898	0.938965	-2.800000	0.910000	-0.070000	773.00	-0.17	-0.01
3.73	8.00	8.00	4.25	5.00	2.50	1.75	1.00	0.50	1.25	1.50	1.50	1.00	0.25	1.00	0.50	0.50	-0.292480	0.008789	0.941895	-2.660000	4.690000	1.190000	443.00	-0.19	-0.04	16.50	10.50	8.00	7.25	5.50	2.25	1.25	0.75	2.75	1.75	1.75	1.75	1.25	3.25	2.25	0.50	-0.263184	0.051270	0.933594	-2.870000	0.910000	-0.140000	773.00	-0.17	-0.01
