# time	left pressure 1[N/cm²]	left pressure 2[N/cm²]	left pressure 3[N/cm²]	left pressure 4[N/cm²]	left pressure 5[N/cm²]	left pressure 6[N/cm²]	left pressure 7[N/cm²]	left pressure 8[N/cm²]	left pressure 9[N/cm²]	left pressure 10[N/cm²]	left pressure 11[N/cm²]	left pressure 12[N/cm²]	left pressure 13[N/cm²]	left pressure 14[N/cm²]	left pressure 15[N/cm²]	left pressure 16[N/cm²]	left acceleration X[g]	left acceleration Y[g]	left acceleration Z[g]	left angular X[dps]	left angular Y[dps]	left angular Z[dps]	left total force[N]	left center of pressure X[%]	left center of pressure Y[%]	right pressure 1[N/cm²]	right pressure 2[N/cm²]	right pressure 3[N/cm²]	right pressure 4[N/cm²]	right pressure 5[N/cm²]	right pressure 6[N/cm²]	right pressure 7[N/cm²]	right pressure 8[N/cm²]	right pressure 9[N/cm²]	right pressure 10[N/cm²]	right pressure 11[N/cm²]	right pressure 12[N/cm²]	right pressure 13[N/cm²]	right pressure 14[N/cm²]	right pressure 15[N/cm²]	right pressure 16[N/cm²]	right acceleration X[g]	right acceleration Y[g]	right acceleration Z[g]	right angular X[dps]	right angular Y[dps]	right angular Z[dps]	right total force[N]	right center of pressure X[%]	right center of pressure Y[%]
0.00	6.00	6.00	6.50	7.00	5.75	7.00	2.00	5.75	1.50	2.75	3.75	3.25	4.00	2.75	0.50	2.75	-0.225586	0.112305	0.955566	-1.470000	6.580000	-1.750000	724.00	-0.08	-0.11																									
0.01	5.75	6.25	6.75	7.00	5.75	6.75	1.75	5.50	1.50	2.75	4.00	3.00	3.75	2.75	0.75	2.75	-0.216797	0.107910	0.946777	-1.610000	6.230000	-1.610000	717.00	-0.08	-0.11																									
0.02	5.75	6.25	6.75	7.00	5.50	6.75	2.00	5.50	1.00	2.75	3.75	3.00	3.50	2.75	0.50	2.75	-0.217285	0.113281	0.956543	-1.610000	5.950000	-1.610000	704.00	-0.08	-0.11	4.50	5.00	4.00	6.00	2.00	3.00	2.00	2.25	1.25	1.00	0.25	0.50	2.00	2.25	1.25	1.00	-0.192871	0.108887	0.974609	-1.330000	-2.940000	2.030000	412.00	-0.12	-0.08
0.03	6.00	6.00	6.75	7.00	5.50	6.75	2.00	5.50	0.75	2.50	3.75	3.00	3.75	2.50	0.50	2.75	-0.221680	0.111816	0.958008	-1.610000	5.390000	-1.680000	698.00	-0.09	-0.12	4.25	5.50	4.00	6.25	2.00	3.25	2.00	2.00	1.50	1.25	0.25	0.50	2.00	2.00	1.00	1.25	-0.194336	0.104004	0.972656	-1.050000	-3.150000	2.170000	418.00	-0.12	-0.08
0.04	5.75	6.25	6.75	7.00	5.50	6.50	1.75	5.25	1.25	2.75	3.50	2.75	3.50	2.50	0.50	2.75	-0.220215	0.111816	0.957031	-1.750000	5.040000	-1.610000	689.00	-0.09	-0.11	4.75	5.25	4.25	6.50	2.00	3.00	2.00	2.00	1.25	1.00	0.50	0.50	1.75	2.50	1.00	1.00	-0.190430	0.106445	0.978516	-0.770000	-3.360000	2.310000	421.00	-0.12	-0.07
0.05	6.25	6.25	6.75	7.00	5.50	6.75	1.75	5.25	1.25	2.75	3.50	2.75	3.25	2.50	0.50	2.75	-0.219727	0.113770	0.950684	-1.680000	4.550000	-1.400000	695.00	-0.09	-0.11	4.50	5.00	4.00	6.25	2.00	3.25	2.25	2.00	1.25	1.00	0.75	0.50	1.75	2.25	1.25	1.00	-0.189453	0.104492	0.970215	-0.420000	-3.570000	2.520000	420.00	-0.11	-0.07
0.06	6.00	6.50	7.00	7.25	5.50	6.50	1.75	5.25	1.00	2.50	3.50	2.75	3.25	2.25	0.50	2.75	-0.217285	0.108887	0.956543	-1.750000	3.500000	-1.120000	689.00	-0.10	-0.11	4.25	5.25	4.25	6.50	2.00	3.25	2.00	2.25	1.25	1.25	0.50	0.50	2.00	2.00	1.25	1.00	-0.188965	0.108398	0.968750	-0.350000	-3.780000	2.660000	426.00	-0.12	-0.08
0.07	6.50	6.50	7.00	7.25	5.50	6.75	1.75	5.00	1.00	2.75	3.75	2.50	3.00	2.25	0.50	2.50	-0.219238	0.107910	0.938965	-1.820000	3.290000	-1.260000	693.00	-0.10	-0.11	4.75	5.50	4.25	6.75	2.00	3.25	2.25	2.25	1.25	1.00	0.50	0.75	1.75	2.75	1.25	1.00	-0.186035	0.114258	0.969727	-0.210000	-3.850000	2.730000	444.00	-0.12	-0.07
0.08	6.50	6.50	7.00	7.00	5.25	6.50	1.75	5.00	1.00	2.50	3.50	2.50	3.00	2.25	0.50	2.50	-0.215332	0.111328	0.944824	-1.890000	3.290000	-1.190000	679.00	-0.10	-0.11	5.00	5.50	4.25	6.50	2.00	3.50	2.25	2.25	1.50	1.00	0.25	0.50	2.25	2.25	1.00	1.00	-0.182129	0.114258	0.971680	-0.420000	-3.920000	2.730000	442.00	-0.12	-0.07
0.09	6.75	6.50	7.00	7.00	5.25	6.50	1.75	5.00	1.25	2.25	3.50	2.50	3.00	2.00	0.50	2.50	-0.220703	0.107422	0.946289	-2.100000	3.360000	-1.190000	680.00	-0.10	-0.11	5.00	5.50	4.50	6.75	2.25	3.50	2.25	2.50	1.25	0.75	0.50	0.50	2.00	2.25	0.75	1.00	-0.183105	0.108398	0.972168	-0.700000	-3.990000	2.660000	446.00	-0.13	-0.08
0.10	7.00	7.00	7.25	7.25	5.50	6.50	1.75	5.00	1.00	2.00	3.25	2.25	3.00	2.25	0.50	2.50	-0.211426	0.105469	0.941895	-2.030000	3.500000	-1.260000	687.00	-0.11	-0.10	5.00	5.50	4.50	6.75	2.00	3.75	2.25	2.25	1.25	1.00	0.50	0.50	2.00	2.25	1.00	1.00	-0.183594	0.105469	0.969727	-0.700000	-4.060000	2.660000	447.00	-0.13	-0.08
0.11	6.75	7.00	7.25	7.50	5.25	6.50	1.75	4.75	1.00	2.25	3.25	2.25	2.75	2.00	0.50	2.50	-0.213379	0.109863	0.942383	-2.100000	4.130000	-1.400000	679.00	-0.11	-0.10	5.25	5.50	4.50	6.75	2.00	3.75	2.25	2.25	1.25	1.00	0.50	0.50	2.00	2.50	1.00	1.25	-0.181641	0.115723	0.964355	-0.770000	-3.850000	2.660000	454.00	-0.13	-0.07
0.12	7.50	6.75	7.25	7.75	5.25	6.25	1.75	4.75	1.00	2.25	3.50	2.25	2.75	2.25	0.50	2.50	-0.214844	0.109863	0.953613	-2.170000	4.410000	-1.330000	689.00	-0.11	-0.10	5.50	5.50	4.50	7.00	2.25	4.00	2.25	2.50	1.25	0.75	0.50	0.50	2.25	2.25	1.25	1.00	-0.183594	0.113281	0.973145	-1.120000	-3.920000	2.450000	467.00	-0.13	-0.08
0.13	7.25	7.25	7.25	7.50	5.25	6.50	1.75	4.50	0.75	2.25	3.25	2.00	2.50	2.25	0.50	2.50	-0.209473	0.111816	0.951660	-2.100000	4.410000	-1.260000	676.00	-0.12	-0.10	5.50	5.50	4.75	7.25	2.00	4.00	2.25	2.50	1.00	1.00	0.50	0.25	2.25	2.25	1.25	1.00	-0.192383	0.104980	0.979004	-1.470000	-3.990000	2.590000	466.00	-0.13	-0.08
0.14	7.50	7.25	7.25	7.75	5.25	6.25	1.75	4.75	0.75	2.25	3.50	2.00	2.50	2.25	0.50	2.50	-0.210449	0.108887	0.946289	-1.960000	4.550000	-1.330000	685.00	-0.12	-0.10	5.50	5.50	4.50	7.00	2.25	4.00	2.25	2.75	1.25	1.00	0.50	0.75	2.00	2.50	1.00	1.00	-0.186523	0.115723	0.965820	-1.820000	-3.990000	2.590000	473.00	-0.13	-0.08
0.15	7.50	7.25	7.25	7.75	5.25	6.25	1.75	4.50	0.75	2.25	3.25	2.00	2.50	2.25	0.50	2.50	-0.209473	0.108887	0.950684	-1.960000	5.180000	-1.330000	679.00	-0.12	-0.10	5.00	5.50	4.50	7.50	2.25	4.25	2.25	2.75	1.25	1.00	0.50	0.50	2.00	2.00	1.25	1.25	-0.191895	0.109375	0.969727	-2.240000	-3.920000	2.520000	473.00	-0.13	-0.09
0.16	7.25	7.50	7.00	7.50	5.25	6.75	1.75	4.25	1.00	2.25	3.25	2.25	2.50	2.25	0.50	2.50	-0.211914	0.107422	0.952148	-1.890000	5.810000	-1.470000	681.00	-0.12	-0.10	5.75	5.75	4.75	7.50	2.25	4.25	2.25	2.50	1.25	1.00	0.50	1.00	1.75	2.25	1.25	1.00	-0.189941	0.104004	0.971191	-2.730000	-3.780000	2.380000	486.00	-0.13	-0.08
0.17	7.50	7.50	7.25	7.50	5.25	6.25	1.75	4.50	1.00	2.00	3.25	2.25	2.50	2.00	0.50	2.50	-0.210449	0.107910	0.953125	-1.820000	6.020000	-1.470000	680.00	-0.12	-0.10	6.00	5.75	5.00	7.50	2.50	4.25	2.25	2.75	1.25	1.00	0.50	0.50	2.25	2.50	1.25	1.25	-0.183105	0.104492	0.968262	-3.150000	-3.710000	2.240000	501.00	-0.13	-0.08
0.18	7.50	7.50	7.00	7.75	5.00	6.50	1.75	4.25	0.75	2.25	3.25	2.00	2.50	2.00	0.50	2.50	-0.209473	0.109863	0.949219	-1.680000	6.160000	-1.680000	673.00	-0.12	-0.10	5.75	5.75	5.25	7.75	2.25	4.50	2.25	2.75	1.50	1.00	0.50	0.50	2.25	2.25	1.00	1.00	-0.180176	0.110840	0.972168	-3.220000	-3.640000	2.170000	501.00	-0.13	-0.08
0.19	7.25	7.25	7.00	7.50	5.00	6.25	1.75	4.25	1.00	2.25	3.25	2.00	2.50	2.00	0.50	2.50	-0.210938	0.113281	0.948242	-1.750000	6.300000	-1.750000	665.00	-0.12	-0.10	6.25	6.00	5.00	7.50	2.25	4.00	2.25	2.75	1.50	1.50	0.75	0.75	2.00	2.50	1.50	1.00	-0.182617	0.114258	0.975098	-3.290000	-3.500000	2.170000	513.00	-0.12	-0.07
0.20	7.25	7.25	7.00	7.50	5.00	6.25	1.75	4.25	0.75	2.00	3.25	2.00	2.25	2.00	0.25	2.50	-0.210449	0.110840	0.948730	-2.170000	6.580000	-1.750000	655.00	-0.13	-0.10	6.00	6.00	5.25	8.00	2.50	4.50	2.50	2.50	1.25	1.00	0.50	0.75	2.00	2.50	1.00	1.25	-0.182129	0.107910	0.964844	-3.290000	-3.290000	2.170000	512.00	-0.14	-0.08
0.21	7.25	7.25	6.75	7.50	5.00	6.00	1.75	3.75	0.75	2.25	3.00	2.00	2.25	2.25	0.50	2.50	-0.211426	0.109863	0.949707	-2.310000	6.860000	-1.890000	646.00	-0.12	-0.09	6.75	6.00	5.25	7.75	2.50	4.50	2.25	2.75	1.75	1.25	0.50	0.25	2.25	2.50	1.00	1.25	-0.183594	0.106445	0.970215	-3.220000	-3.080000	1.890000	523.00	-0.13	-0.07
0.22	7.25	7.50	7.00	7.50	5.00	5.75	1.75	4.25	1.00	2.50	3.25	1.75	2.25	2.00	0.50	2.50	-0.213867	0.108887	0.952637	-2.450000	7.000000	-1.960000	660.00	-0.12	-0.09	6.25	6.25	5.25	7.75	2.50	4.50	2.25	2.75	1.50	1.00	0.75	0.50	2.50	2.25	1.25	1.25	-0.179199	0.107910	0.962891	-3.220000	-2.870000	1.680000	522.00	-0.13	-0.08
0.23	7.25	7.25	7.00	7.50	4.75	6.00	1.75	4.00	0.75	2.25	3.25	1.75	2.25	2.00	0.50	2.50	-0.214355	0.106445	0.949219	-2.380000	7.000000	-2.030000	648.00	-0.12	-0.10	6.75	6.00	5.25	8.00	2.50	4.75	2.25	3.00	1.50	1.00	0.50	0.50	2.25	2.50	1.25	1.25	-0.182129	0.106445	0.968262	-3.150000	-2.730000	1.540000	532.00	-0.13	-0.08
0.24	7.25	7.00	7.00	7.25	5.00	6.00	1.75	4.00	0.75	2.50	3.25	2.00	2.50	2.25	0.50	2.50	-0.214355	0.107422	0.956543	-2.520000	6.930000	-1.960000	655.00	-0.12	-0.10	6.25	6.25	5.50	8.00	2.50	4.50	2.25	2.75	1.25	1.00	0.50	0.75	2.75	2.50	1.25	1.00	-0.182617	0.106445	0.973145	-2.800000	-2.450000	1.540000	527.00	-0.13	-0.08
0.25	7.00	7.25	7.00	7.25	5.00	6.00	1.75	4.00	1.00	2.25	3.25	1.75	2.25	2.25	0.25	2.50	-0.220703	0.101074	0.950684	-2.450000	6.720000	-1.960000	648.00	-0.12	-0.09	6.25	6.25	5.50	7.75	2.50	4.50	2.50	3.00	1.25	1.00	0.50	0.50	2.50	2.50	1.25	1.25	-0.186035	0.108398	0.969238	-2.730000	-2.380000	1.610000	529.00	-0.13	-0.08
0.26	7.25	7.00	7.00	7.25	5.00	5.75	1.75	4.00	0.75	2.25	3.25	2.00	2.25	2.00	0.50	2.50	-0.213867	0.110840	0.949707	-2.170000	6.580000	-1.820000	646.00	-0.12	-0.09	6.50	6.25	5.50	7.75	2.50	4.50	2.50	3.00	1.25	1.00	0.75	0.75	2.25	2.50	1.25	1.25	-0.188477	0.107910	0.972168	-2.520000	-2.380000	1.610000	534.00	-0.13	-0.08
0.27	7.25	7.25	7.00	7.50	5.00	6.00	1.75	4.00	0.50	2.25	3.25	2.00	2.25	2.25	0.50	2.50	-0.214355	0.111328	0.954102	-1.750000	6.370000	-1.610000	652.00	-0.12	-0.10	6.50	6.00	5.50	7.75	2.75	4.75	2.50	3.25	1.75	1.50	0.75	0.75	2.75	2.50	1.00	1.25	-0.179688	0.104492	0.969238	-2.100000	-2.310000	1.680000	555.00	-0.12	-0.08
0.28	7.25	7.00	7.25	7.25	5.25	6.00	1.75	4.00	0.50	2.25	3.25	1.75	2.25	2.00	0.50	2.50	-0.216797	0.108398	0.949707	-1.610000	6.370000	-1.540000	648.00	-0.13	-0.10	6.25	6.00	5.50	7.75	2.50	4.75	2.50	3.25	1.50	1.75	0.75	1.00	2.75	2.50	1.25	1.25	-0.188477	0.107910	0.965820	-2.030000	-2.170000	1.750000	554.00	-0.12	-0.08
0.29	7.00	7.00	7.00	7.25	5.00	5.75	2.00	4.00	0.75	2.25	3.25	2.00	2.25	2.25	0.50	2.50	-0.220215	0.109375	0.957031	-1.470000	6.370000	-1.470000	649.00	-0.12	-0.09	6.50	6.25	5.50	8.00	2.75	4.75	2.50	3.25	1.75	1.25	1.00	0.75	2.50	2.50	1.25	1.25	-0.187500	0.109375	0.974121	-1.960000	-2.310000	1.960000	560.00	-0.12	-0.08
0.30	7.25	7.00	7.00	7.00	5.00	5.75	1.75	3.75	0.75	2.25	3.25	2.00	2.00	2.00	0.50	2.50	-0.216309	0.108398	0.955566	-1.400000	6.230000	-1.330000	637.00	-0.12	-0.09	6.50	6.25	5.25	8.00	2.50	4.75	2.50	3.25	1.75	1.25	1.00	1.00	2.75	2.75	1.25	1.50	-0.192383	0.109863	0.971680	-2.100000	-2.520000	1.820000	563.00	-0.12	-0.08
0.31	7.00	7.00	7.00	7.50	5.00	5.75	1.75	4.00	0.75	2.00	3.25	1.75	2.25	2.00	0.50	2.50	-0.211914	0.103516	0.948730	-1.330000	6.160000	-1.260000	641.00	-0.12	-0.10	6.50	6.00	5.50	8.00	2.75	5.00	2.50	3.25	1.50	1.25	1.00	1.00	2.75	2.75	1.25	1.25	-0.188477	0.111816	0.978027	-2.240000	-2.800000	1.820000	564.00	-0.12	-0.08
0.32	7.25	7.25	7.00	7.25	5.00	5.75	1.75	3.75	0.75	2.25	3.25	1.75	2.00	1.75	0.50	2.50	-0.215332	0.107422	0.948730	-1.470000	6.300000	-1.330000	637.00	-0.13	-0.09	6.25	6.00	5.75	8.00	2.75	5.00	2.50	3.25	1.75	1.25	0.75	0.75	3.00	2.75	1.00	1.25	-0.186523	0.110840	0.976074	-2.310000	-2.940000	1.960000	562.00	-0.12	-0.08
0.33	7.50	7.00	7.00	7.50	4.75	5.75	1.75	3.75	0.75	2.25	3.00	2.00	2.25	1.75	0.50	2.50	-0.212402	0.105469	0.954590	-1.400000	6.020000	-1.260000	640.00	-0.13	-0.09	6.25	6.00	5.50	8.00	2.75	5.00	2.50	3.50	1.75	1.25	1.00	1.00	2.75	2.75	1.25	1.50	-0.185547	0.110352	0.974609	-2.520000	-3.010000	2.030000	570.00	-0.11	-0.09
0.34	7.25	7.25	7.25	7.25	4.75	5.75	1.75	3.75	0.75	2.00	3.25	2.25	1.75	2.25	0.25	2.50	-0.211426	0.109863	0.955566	-1.470000	5.950000	-1.120000	640.00	-0.13	-0.09	6.25	6.25	6.00	8.00	2.75	5.00	2.50	3.50	1.75	1.25	0.75	0.75	2.75	2.75	1.25	1.25	-0.189453	0.107910	0.974121	-2.660000	-3.150000	2.030000	572.00	-0.12	-0.08
0.35	7.00	7.25	7.00	7.25	4.75	5.75	1.75	3.75	1.00	2.25	3.25	2.00	2.25	2.25	0.50	2.50	-0.208496	0.108887	0.947266	-1.610000	6.090000	-1.330000	644.00	-0.12	-0.09	6.50	6.25	6.00	8.00	2.75	5.00	2.50	3.50	1.75	1.25	0.75	1.00	2.75	2.75	1.25	1.25	-0.190918	0.110840	0.973145	-2.800000	-3.220000	2.030000	577.00	-0.12	-0.08
0.36	7.25	7.00	7.00	7.25	4.50	5.75	1.75	3.75	0.75	2.25	3.00	1.75	2.00	2.25	0.50	2.50	-0.217285	0.106934	0.951172	-1.680000	6.090000	-1.260000	631.00	-0.12	-0.09	6.25	6.25	6.00	8.25	2.75	5.00	2.50	3.50	2.00	1.25	1.00	0.75	2.75	2.75	1.25	1.50	-0.184082	0.113770	0.970703	-3.150000	-3.430000	2.030000	581.00	-0.12	-0.08
0.37	7.25	7.25	7.00	7.25	4.50	5.50	1.75	3.75	0.75	2.00	3.25	2.25	2.00	2.00	0.50	2.50	-0.214355	0.105957	0.950684	-1.750000	5.740000	-1.120000	634.00	-0.12	-0.09	6.25	6.25	5.75	8.25	2.75	4.75	2.50	3.50	1.75	1.50	0.75	1.00	2.75	2.75	1.25	1.50	-0.187988	0.104980	0.969238	-3.150000	-3.360000	1.960000	575.00	-0.12	-0.08
0.38	7.25	7.25	7.00	7.25	5.00	5.50	1.75	3.75	0.75	2.25	3.25	1.75	2.00	1.75	0.50	2.50	-0.216309	0.107422	0.945801	-1.820000	5.740000	-1.330000	635.00	-0.13	-0.09	6.50	6.25	6.00	8.25	3.00	5.00	2.50	3.50	1.75	1.25	0.75	1.00	3.00	2.75	1.50	1.25	-0.186523	0.108398	0.966309	-3.220000	-3.360000	2.030000	587.00	-0.12	-0.08
0.39	7.25	7.25	7.50	7.25	4.75	5.50	1.75	3.75	0.75	2.00	3.25	1.75	2.25	1.75	0.50	2.50	-0.210938	0.103516	0.951172	-1.960000	5.810000	-1.400000	637.00	-0.13	-0.09	6.50	6.25	6.25	8.50	3.00	5.00	2.50	3.50	1.75	1.25	0.75	0.75	2.75	2.75	1.25	1.25	-0.185059	0.108398	0.973633	-3.290000	-3.220000	2.030000	585.00	-0.12	-0.08
0.40	7.25	7.00	7.50	7.50	5.00	5.50	1.75	3.75	0.75	2.50	3.25	1.75	2.25	2.25	0.50	2.50	-0.216309	0.106445	0.950195	-2.030000	6.090000	-1.400000	650.00	-0.12	-0.09	6.25	6.25	6.00	8.25	3.00	5.00	2.50	3.50	1.75	1.75	0.75	1.00	2.75	2.75	1.25	1.50	-0.191406	0.111328	0.970215	-3.220000	-3.290000	2.030000	586.00	-0.12	-0.08
0.41	7.50	7.25	7.25	7.25	4.75	5.50	1.75	3.50	0.50	2.00	3.25	1.75	2.00	2.25	0.50	2.50	-0.214355	0.109375	0.954102	-1.960000	5.950000	-1.540000	632.00	-0.13	-0.09	6.50	6.25	6.25	8.25	2.75	5.00	2.50	3.50	1.75	1.25	0.75	1.00	3.00	2.50	1.25	1.50	-0.188477	0.114258	0.974121	-3.010000	-3.360000	2.100000	584.00	-0.12	-0.09
0.42	7.25	7.50	7.25	7.25	4.75	5.50	1.75	3.50	0.75	2.25	3.25	1.75	2.00	2.00	0.25	2.50	-0.208008	0.110352	0.951172	-1.890000	5.810000	-1.400000	633.00	-0.13	-0.09	6.50	6.50	6.00	8.25	3.00	5.00	2.50	3.25	1.75	1.25	0.75	1.00	2.75	2.75	1.25	1.25	-0.186035	0.111328	0.970215	-3.010000	-3.500000	2.100000	581.00	-0.12	-0.08
0.43	7.25	7.25	7.25	7.25	5.00	5.50	2.00	3.50	0.75	2.00	3.00	1.75	2.00	1.75	0.50	2.50	-0.211426	0.102051	0.957520	-1.960000	5.950000	-1.470000	632.00	-0.13	-0.09	6.50	6.50	6.25	8.25	3.00	5.00	2.50	3.50	1.75	1.50	0.75	1.25	2.50	2.75	1.25	1.00	-0.191406	0.108887	0.974121	-2.870000	-3.500000	2.100000	589.00	-0.12	-0.08
0.44	7.25	7.50	7.25	7.25	5.00	5.50	1.75	3.50	0.75	2.00	3.00	1.75	2.00	2.00	0.50	2.50	-0.216309	0.109863	0.949707	-1.820000	6.090000	-1.470000	633.00	-0.13	-0.09	6.50	6.50	6.25	8.50	3.00	5.25	2.50	3.50	1.75	1.50	0.75	1.25	3.00	2.75	1.25	1.50	-0.192383	0.110352	0.969238	-2.800000	-3.500000	2.170000	602.00	-0.12	-0.09
0.45	7.50	7.25	7.25	7.25	5.00	5.25	1.75	3.50	0.75	2.00	3.00	2.00	2.00	2.00	0.50	2.50	-0.218262	0.106445	0.956055	-1.610000	6.020000	-1.400000	633.00	-0.13	-0.09	6.50	6.50	6.25	8.25	3.00	5.00	2.50	3.50	2.00	1.50	1.00	0.75	2.75	2.75	1.25	1.25	-0.186035	0.109375	0.972656	-2.730000	-3.500000	2.170000	593.00	-0.12	-0.08
0.46	7.25	7.25	7.25	7.25	5.00	5.25	1.75	3.50	0.25	1.75	2.50	1.75	1.50	2.50	0.50	2.50	-0.215820	0.110352	0.948730	-1.470000	6.160000	-1.330000	613.00	-0.14	-0.09	6.50	6.75	6.25	8.25	3.00	5.00	2.50	3.50	1.75	1.25	1.00	1.25	2.75	2.50	1.25	1.25	-0.189941	0.111816	0.973145	-2.660000	-3.500000	2.170000	593.00	-0.12	-0.08
0.47	7.25	7.25	7.25	7.25	4.75	5.25	1.75	3.50	0.50	2.25	3.00	1.75	1.75	2.25	0.25	2.50	-0.211914	0.109863	0.955078	-1.400000	6.090000	-1.260000	622.00	-0.13	-0.09	6.25	6.50	6.25	8.25	3.00	5.00	2.50	3.50	1.75	1.25	1.00	0.75	2.75	3.00	1.25	1.25	-0.181641	0.101074	0.965332	-2.520000	-3.640000	2.240000	587.00	-0.12	-0.08
0.48	7.25	7.50	7.00	7.25	4.75	5.25	1.75	3.25	0.75	2.00	3.00	1.75	1.75	2.00	0.50	2.50	-0.209473	0.111328	0.948242	-1.190000	5.810000	-1.400000	619.00	-0.13	-0.09	6.75	6.75	6.25	8.25	3.00	5.00	2.50	3.50	1.50	1.25	0.75	0.75	2.50	2.75	1.25	1.25	-0.186035	0.111816	0.971680	-2.310000	-3.640000	2.170000	584.00	-0.13	-0.08
0.49	7.50	7.50	7.25	7.25	4.75	5.25	1.75	3.25	0.75	2.25	3.00	2.25	2.00	1.75	0.50	2.50	-0.210938	0.112793	0.949219	-1.190000	5.950000	-1.400000	632.00	-0.13	-0.09	7.00	6.75	6.50	8.25	3.00	5.25	2.50	3.50	1.75	1.25	0.50	0.75	2.75	3.00	1.25	1.25	-0.181641	0.106934	0.970215	-2.310000	-3.710000	2.240000	597.00	-0.13	-0.08
0.50	7.50	7.50	7.50	7.00	4.75	5.25	1.75	3.50	0.75	2.00	3.00	1.75	2.00	2.00	0.25	2.50	-0.215332	0.108887	0.948242	-1.330000	6.020000	-1.190000	627.00	-0.13	-0.09	6.75	7.00	6.50	8.25	3.00	5.00	2.50	3.50	1.50	1.25	0.75	1.00	2.75	2.75	1.00	1.25	-0.183105	0.109863	0.970703	-2.240000	-3.850000	2.310000	591.00	-0.13	-0.08
0.51	7.50	7.50	7.25	7.25	4.50	5.50	1.75	3.25	0.75	2.25	3.00	1.75	2.00	2.00	0.50	2.50	-0.215332	0.109863	0.950195	-1.400000	5.950000	-1.190000	629.00	-0.13	-0.09	7.25	6.75	6.50	8.25	3.00	5.00	2.50	3.50	1.75	1.25	0.75	0.75	2.75	2.75	1.25	1.50	-0.181641	0.109863	0.973145	-2.100000	-3.920000	2.170000	599.00	-0.13	-0.08
0.52	7.50	7.25	7.25	7.25	4.75	5.25	1.75	3.25	0.50	2.00	2.50	1.75	1.75	2.00	0.50	2.50	-0.211914	0.106445	0.955566	-1.400000	5.880000	-1.190000	613.00	-0.14	-0.09	7.00	7.00	6.50	8.50	3.00	5.00	2.50	3.25	1.75	1.50	0.75	0.75	2.50	2.75	1.25	1.25	-0.191895	0.109863	0.973145	-2.030000	-3.990000	2.170000	597.00	-0.13	-0.08
0.53	7.50	7.25	7.25	7.00	4.75	5.25	2.00	3.25	0.75	2.00	3.00	1.50	1.75	2.00	0.25	2.50	-0.208984	0.107422	0.949707	-1.680000	6.090000	-1.260000	617.00	-0.13	-0.08	7.00	7.00	6.50	8.50	3.00	5.00	2.50	3.50	1.50	1.00	0.50	0.75	2.75	2.75	1.25	1.50	-0.187988	0.110840	0.973633	-2.030000	-4.060000	2.310000	593.00	-0.13	-0.08
0.54	7.25	7.75	7.00	7.25	4.75	5.00	1.75	3.25	0.75	2.00	3.00	1.75	1.75	2.00	0.50	2.50	-0.214844	0.114258	0.954102	-1.680000	5.880000	-1.260000	618.00	-0.13	-0.09	7.00	7.25	6.75	8.50	3.00	5.00	2.50	3.25	1.50	1.50	0.75	0.75	2.50	2.75	1.25	1.25	-0.189941	0.109375	0.972168	-1.890000	-4.130000	2.380000	598.00	-0.13	-0.08
0.55	7.25	7.50	7.25	7.25	4.50	5.25	1.75	3.50	0.50	2.25	3.00	1.75	1.75	2.00	0.50	2.50	-0.208984	0.109863	0.956543	-1.610000	6.160000	-1.260000	622.00	-0.13	-0.09	7.25	7.25	6.75	8.50	3.00	5.00	2.50	3.25	1.75	1.25	1.00	0.75	2.25	2.50	1.25	1.00	-0.184082	0.106445	0.964355	-1.820000	-4.200000	2.450000	599.00	-0.14	-0.07
0.56	7.50	7.75	7.25	7.50	5.00	5.25	1.75	3.25	0.75	2.00	3.00	1.75	1.75	2.00	0.50	2.50	-0.210938	0.106934	0.955566	-1.680000	6.230000	-1.190000	632.00	-0.13	-0.08	7.25	7.50	6.75	8.50	3.00	5.00	2.50	3.25	1.75	1.00	0.75	0.75	2.50	2.50	1.25	1.25	-0.184570	0.107422	0.971191	-1.890000	-4.340000	2.380000	599.00	-0.14	-0.08
0.57	7.75	7.25	7.25	7.25	4.75	5.00	1.75	3.50	0.75	2.00	3.00	1.75	1.75	2.00	0.25	2.50	-0.209961	0.104980	0.953613	-1.680000	6.440000	-1.260000	623.00	-0.13	-0.08	7.25	7.25	6.75	8.50	3.00	5.00	2.50	3.25	1.75	1.00	0.75	0.75	2.50	2.50	1.00	1.25	-0.183105	0.112305	0.974121	-1.890000	-4.200000	2.240000	594.00	-0.14	-0.08
0.58	7.25	7.50	7.25	7.00	4.50	5.00	1.75	3.00	0.75	2.00	2.75	1.00	1.75	2.00	0.50	2.50	-0.213379	0.110352	0.955078	-1.610000	6.440000	-1.260000	599.00	-0.14	-0.08	7.75	7.50	7.00	8.75	3.00	5.25	2.50	3.25	1.75	1.50	0.50	0.50	2.50	2.75	1.25	1.25	-0.188965	0.108398	0.969727	-1.890000	-4.340000	2.380000	615.00	-0.14	-0.07
0.59	7.25	7.25	7.00	7.25	4.50	5.00	1.75	3.25	0.75	2.25	3.00	1.50	1.75	1.75	0.50	2.50	-0.208496	0.109375	0.949219	-1.680000	6.860000	-1.260000	609.00	-0.13	-0.09	7.75	8.00	7.00	8.75	3.00	5.25	2.50	3.25	1.50	1.25	0.75	0.50	2.25	2.50	1.25	1.00	-0.175293	0.113281	0.965820	-1.890000	-4.410000	2.380000	610.00	-0.15	-0.08
0.60	7.50	7.50	7.25	7.00	4.50	5.00	1.75	3.00	0.50	2.00	3.00	1.75	1.75	2.00	0.50	2.25	-0.214844	0.110352	0.960938	-1.330000	6.440000	-1.120000	607.00	-0.14	-0.08	7.75	8.00	7.00	8.75	3.00	5.00	2.50	3.25	1.75	1.00	0.75	0.50	2.25	2.50	1.00	1.25	-0.185059	0.111816	0.971191	-1.960000	-4.480000	2.310000	607.00	-0.15	-0.07
0.61	7.50	7.25	7.25	7.00	4.50	5.00	1.75	3.25	0.25	2.00	2.75	1.50	1.75	1.75	0.25	2.25	-0.213379	0.105469	0.956055	-0.910000	6.230000	-1.050000	595.00	-0.14	-0.09	7.75	7.75	7.25	8.75	3.00	5.00	2.50	3.00	1.50	1.00	0.50	0.75	2.25	2.50	1.25	1.50	-0.186523	0.109375	0.968750	-1.890000	-4.550000	2.310000	605.00	-0.15	-0.07
0.62	7.50	7.25	7.00	7.00	4.25	5.00	1.75	3.00	0.50	1.75	2.75	1.50	1.75	1.25	0.25	2.25	-0.213867	0.107422	0.960938	-0.980000	6.300000	-1.260000	583.00	-0.15	-0.09	8.00	8.00	7.25	9.00	2.75	5.00	2.50	3.25	1.50	1.00	0.50	0.50	2.25	2.50	1.25	1.25	-0.185547	0.113281	0.967285	-1.890000	-4.620000	2.380000	609.00	-0.15	-0.08
0.63	7.50	7.25	7.00	6.75	4.25	4.75	1.75	2.75	0.50	2.00	3.00	1.50	1.50	1.75	0.25	2.25	-0.213379	0.105957	0.958008	-0.490000	6.020000	-1.190000	581.00	-0.14	-0.08	8.75	8.25	7.00	9.00	3.00	5.25	2.50	3.25	1.50	1.00	0.50	0.50	2.25	2.50	1.25	1.00	-0.188477	0.105469	0.973145	-2.100000	-4.900000	2.450000	621.00	-0.16	-0.07
0.64	7.25	7.25	7.00	7.00	4.00	4.75	1.75	3.00	0.00	2.00	2.75	1.25	1.50	2.00	0.25	2.25	-0.215820	0.108398	0.953125	-0.490000	5.390000	-1.120000	572.00	-0.15	-0.09	8.50	8.50	7.25	9.00	2.75	5.00	2.50	3.00	1.25	1.25	0.25	0.75	2.25	2.25	1.00	1.00	-0.186035	0.113770	0.974609	-1.750000	-5.320000	2.870000	608.00	-0.17	-0.07
0.65	7.25	7.00	6.75	7.00	4.00	4.50	1.75	2.75	0.50	1.75	3.00	1.50	1.50	1.75	0.25	2.25	-0.220703	0.100586	0.965332	0.070000	4.690000	-0.840000	568.00	-0.14	-0.08	8.75	8.75	7.50	9.25	3.00	5.25	2.50	3.00	1.25	1.25	0.50	0.75	2.25	2.50	1.00	1.00	-0.185059	0.111816	0.975098	-1.120000	-5.670000	3.220000	629.00	-0.16	-0.07
0.66	7.00	7.25	7.00	6.75	3.75	4.25	1.75	2.50	0.25	1.75	3.00	1.50	1.25	1.50	0.25	2.25	-0.216309	0.114258	0.963379	1.050000	3.570000	-0.700000	551.00	-0.15	-0.08	9.25	8.75	7.50	9.25	3.00	5.25	2.50	3.00	1.25	1.00	0.50	0.50	2.00	2.25	1.00	1.00	-0.177734	0.109863	0.975586	-1.050000	-5.950000	3.360000	625.00	-0.17	-0.07
0.67	7.25	7.00	7.00	6.75	3.75	4.50	1.50	2.50	0.25	1.50	2.75	1.25	1.25	1.25	0.25	2.25	-0.219238	0.109863	0.968750	1.890000	2.590000	-0.560000	540.00	-0.16	-0.08	9.50	9.00	7.75	9.25	3.25	5.25	2.50	3.00	1.50	0.50	0.50	0.75	2.00	2.50	1.00	1.25	-0.187988	0.110352	0.972168	-0.910000	-6.090000	3.500000	639.00	-0.17	-0.07
0.68	7.00	7.00	7.00	6.50	3.75	4.25	1.50	2.25	0.25	1.75	2.75	1.50	1.00	1.75	0.25	2.00	-0.207031	0.107910	0.957031	1.960000	2.030000	-0.560000	534.00	-0.15	-0.08	9.75	9.25	8.00	9.50	3.25	5.25	2.50	3.25	1.25	0.50	0.50	0.25	2.00	2.25	1.00	1.00	-0.189453	0.108887	0.979980	-0.560000	-6.370000	3.710000	642.00	-0.18	-0.07
0.69	7.00	7.00	6.75	6.50	3.50	4.00	1.50	2.25	0.25	1.50	2.75	1.25	1.25	1.50	0.25	2.25	-0.204102	0.112305	0.955566	0.700000	2.660000	-0.700000	522.00	-0.15	-0.08	10.25	9.50	8.00	9.75	3.25	5.75	2.25	3.25	1.00	0.75	0.25	0.50	2.00	2.25	1.00	1.00	-0.195312	0.111816	0.991699	1.050000	-7.210000	4.130000	653.00	-0.19	-0.08
0.70	7.00	7.25	7.00	6.25	3.50	4.25	1.50	2.25	0.25	1.50	3.25	1.25	1.00	1.50	0.25	2.25	-0.212891	0.112305	0.962402	0.490000	2.870000	-0.910000	530.00	-0.15	-0.08	11.00	10.00	8.25	10.00	3.50	5.50	2.25	3.00	1.25	1.00	0.25	0.50	1.75	1.75	0.75	0.75	-0.189453	0.105957	0.986328	3.780000	-8.400000	4.550000	662.00	-0.20	-0.07
0.71	7.00	7.00	6.75	6.50	3.25	4.00	1.50	2.00	0.25	1.50	3.00	1.25	1.00	1.25	0.25	2.25	-0.202148	0.109375	0.940918	1.050000	2.170000	-1.050000	514.00	-0.16	-0.08	11.25	10.50	8.25	10.00	3.25	5.75	2.25	3.00	1.00	0.50	0.25	0.25	1.75	1.75	0.75	0.75	-0.187500	0.112793	0.974121	5.460000	-9.520000	5.180000	658.00	-0.21	-0.07
0.72	7.25	7.25	6.75	6.50	3.25	3.75	1.50	2.00	0.00	1.50	2.75	1.25	0.75	1.25	0.00	2.25	-0.203125	0.114258	0.955078	1.050000	1.890000	-1.190000	505.00	-0.17	-0.08	12.50	11.25	8.25	10.50	3.25	6.00	2.25	3.00	0.75	0.25	0.25	0.25	1.75	1.75	1.00	0.75	-0.179199	0.113281	0.976562	5.740000	-10.430000	5.320000	683.00	-0.21	-0.07
0.73	7.00	7.25	6.75	6.25	3.00	3.75	1.50	1.75	0.00	1.50	2.75	1.25	0.75	1.25	0.25	2.25	-0.202637	0.114746	0.950195	0.630000	1.890000	-1.190000	496.00	-0.16	-0.08	12.75	11.50	8.75	10.75	3.25	6.00	2.25	2.75	0.75	0.75	0.00	0.00	1.25	1.75	1.00	0.75	-0.172852	0.119141	0.966797	5.180000	-10.640000	5.390000	688.00	-0.22	-0.07
0.74	7.00	7.25	6.50	6.25	3.00	3.75	1.25	1.75	0.00	1.25	2.50	1.00	0.75	1.00	0.25	2.25	-0.204102	0.110352	0.946289	0.140000	2.030000	-1.120000	479.00	-0.17	-0.08	13.25	12.25	8.75	11.00	3.25	6.25	2.25	3.00	1.00	0.25	0.00	0.25	1.50	2.00	1.00	0.75	-0.174316	0.117676	0.980469	4.620000	-10.710000	5.180000	715.00	-0.22	-0.07
0.75	7.00	7.25	6.50	6.25	2.75	3.25	1.25	1.75	0.50	1.25	2.75	1.25	0.75	1.50	0.25	2.00	-0.202637	0.118164	0.951172	-0.280000	2.100000	-1.190000	486.00	-0.16	-0.07	14.25	12.75	9.00	11.25	3.75	6.50	2.00	3.00	0.75	0.50	0.00	0.25	1.50	1.75	0.75	0.75	-0.178223	0.118164	0.969727	4.690000	-10.990000	4.970000	734.00	-0.23	-0.07
0.76	7.00	7.25	6.50	6.25	2.50	3.25	1.25	1.50	0.00	1.25	2.50	1.25	0.50	1.50	0.25	2.00	-0.200195	0.115723	0.945801	-0.700000	2.660000	-1.120000	468.00	-0.17	-0.07	14.75	13.50	9.25	11.25	3.50	6.50	2.00	3.00	0.75	0.25	0.00	0.00	1.25	1.75	0.75	0.75	-0.167969	0.118652	0.964355	4.480000	-11.060000	4.900000	739.00	-0.24	-0.07
0.77	7.00	7.25	6.50	6.00	2.50	3.25	1.25	1.50	0.00	1.25	2.75	1.00	0.75	1.25	0.00	2.00	-0.196289	0.099609	0.940918	-1.330000	3.780000	-1.330000	463.00	-0.18	-0.07	15.50	14.00	9.50	11.50	3.50	6.50	2.00	2.75	0.75	0.50	0.00	0.00	1.25	1.75	1.00	0.75	-0.169434	0.123047	0.966797	3.570000	-10.500000	4.480000	758.00	-0.24	-0.07
0.78	7.00	7.00	6.25	6.00	2.50	3.25	1.25	1.50	0.00	1.25	2.75	1.00	0.75	1.00	0.00	2.00	-0.196289	0.102539	0.948730	-1.750000	4.690000	-1.330000	455.00	-0.18	-0.08	15.75	14.25	9.50	11.75	3.50	6.50	2.00	3.00	0.75	0.25	0.00	0.00	1.25	1.50	1.00	0.50	-0.166016	0.117188	0.966797	3.430000	-10.220000	4.130000	763.00	-0.24	-0.07
0.79	6.75	7.00	6.25	5.75	2.50	3.00	1.25	1.25	0.00	1.25	2.50	1.00	0.50	1.00	0.00	2.00	-0.201660	0.114258	0.943848	-2.030000	5.110000	-1.120000	439.00	-0.18	-0.07	16.25	14.75	9.75	11.75	3.50	6.75	2.00	2.75	0.50	0.00	0.00	0.00	1.25	1.50	0.75	0.50	-0.162109	0.129395	0.963867	3.080000	-9.590000	3.780000	766.00	-0.25	-0.07
0.80	6.75	7.00	6.25	6.00	2.50	3.00	1.25	1.25	0.00	1.25	2.50	1.25	0.50	1.00	0.00	2.00	-0.202637	0.113281	0.944336	-2.240000	5.390000	-1.120000	444.00	-0.18	-0.07	17.00	15.25	10.00	12.00	3.50	7.00	2.00	2.75	0.75	0.00	0.00	0.00	1.00	1.75	0.75	0.50	-0.159180	0.123047	0.966309	2.310000	-8.820000	3.500000	790.00	-0.25	-0.07
0.81	7.00	7.00	6.00	5.75	2.50	2.75	1.25	1.50	0.00	1.25	2.50	1.00	0.50	0.75	0.25	2.00	-0.200195	0.113281	0.953613	-2.730000	6.370000	-1.330000	440.00	-0.18	-0.07	17.50	15.50	10.00	12.25	3.75	7.00	2.00	2.75	0.75	0.00	0.00	0.00	1.00	1.50	0.75	0.50	-0.158203	0.125488	0.958984	1.190000	-7.910000	3.360000	801.00	-0.25	-0.07
0.82	6.75	7.00	6.25	5.50	2.50	2.75	1.25	1.25	0.00	1.50	2.50	1.00	0.50	1.25	0.00	2.25	-0.208984	0.123535	0.933105	-2.940000	6.720000	-1.330000	439.00	-0.17	-0.07	17.75	16.00	10.00	12.25	3.75	7.00	2.00	2.75	0.25	0.25	0.00	0.25	0.50	1.75	0.75	0.50	-0.155273	0.124512	0.962891	-0.140000	-6.720000	3.010000	805.00	-0.26	-0.07
0.83	7.00	7.00	6.25	5.75	2.25	3.00	1.25	1.25	0.00	1.25	2.75	1.25	0.50	1.00	0.00	2.00	-0.203613	0.111328	0.959961	-2.660000	7.000000	-1.120000	444.00	-0.18	-0.07	17.75	16.25	10.25	12.50	3.75	7.00	2.00	2.75	0.75	0.00	0.00	0.00	1.00	1.75	0.75	0.50	-0.169434	0.118652	0.983398	-0.070000	-6.580000	2.940000	818.00	-0.25	-0.06
0.84	6.50	7.00	6.00	5.50	2.25	2.75	1.25	1.00	0.25	1.25	2.75	1.00	0.75	1.00	0.00	2.00	-0.204102	0.111328	0.958984	-1.820000	6.580000	-1.050000	429.00	-0.17	-0.07	18.50	16.00	10.25	12.50	3.75	7.25	2.00	2.75	0.25	0.25	0.00	0.00	1.25	1.50	0.75	0.50	-0.161621	0.127441	0.972656	1.330000	-7.210000	2.800000	822.00	-0.26	-0.07
0.85	6.50	6.75	6.25	5.50	2.25	2.75	1.25	1.25	0.00	1.25	2.25	1.00	0.75	1.00	0.00	2.00	-0.205078	0.108887	0.957031	-0.980000	5.950000	-0.980000	425.00	-0.18	-0.07	19.00	16.75	10.25	12.75	3.50	7.50	2.00	3.00	0.50	0.00	0.00	0.00	0.75	1.75	1.00	0.50	-0.157715	0.131836	0.969727	1.890000	-7.350000	2.730000	842.00	-0.26	-0.07
0.86	6.50	6.75	6.00	5.50	2.25	2.75	1.25	1.25	0.25	1.25	2.50	1.25	0.50	1.00	0.25	2.00	-0.204590	0.106934	0.950195	-0.350000	5.670000	-0.840000	431.00	-0.17	-0.07	19.25	16.75	10.50	12.75	3.75	7.25	2.00	2.75	0.50	0.00	0.00	0.00	1.00	1.50	1.00	0.50	-0.161621	0.126953	0.977051	2.240000	-7.420000	2.730000	844.00	-0.26	-0.06
0.87	6.50	6.75	6.00	5.50	2.25	2.75	1.25	1.25	0.00	1.25	2.50	1.00	0.50	1.00	0.00	2.00	-0.200195	0.110352	0.955078	0.210000	5.390000	-0.700000	423.00	-0.18	-0.07	19.00	17.25	10.50	13.00	3.75	7.25	2.00	3.00	0.75	0.00	0.00	0.00	1.00	1.50	0.75	0.50	-0.158691	0.128418	0.963867	2.520000	-7.490000	2.660000	853.00	-0.26	-0.07
0.88	6.50	6.75	6.00	5.50	2.25	2.50	1.25	1.25	0.00	1.00	2.50	1.25	0.50	0.50	0.00	2.00	-0.205078	0.109863	0.945312	0.280000	5.530000	-0.630000	416.00	-0.18	-0.07	19.25	17.25	10.50	13.00	3.50	7.50	2.00	2.75	0.25	0.00	0.00	0.00	0.50	1.50	1.00	0.50	-0.160645	0.127441	0.970215	2.520000	-7.140000	2.660000	844.00	-0.26	-0.07
0.89	6.50	6.75	6.00	5.50	2.25	2.75	1.25	1.25	0.00	1.00	2.25	1.25	0.50	1.00	0.00	2.00	-0.203125	0.115723	0.955566	0.630000	5.460000	-0.490000	420.00	-0.18	-0.07	19.25	17.50	10.50	13.25	3.75	7.50	2.00	2.75	0.50	0.00	0.00	0.00	0.75	1.25	0.75	0.75	-0.168945	0.126465	0.982422	3.570000	-7.630000	2.800000	853.00	-0.26	-0.07
0.90	6.50	6.75	6.00	5.50	2.00	2.50	1.25	1.25	0.00	1.25	2.50	1.00	0.50	1.00	0.00	2.00	-0.202148	0.113281	0.949707	0.560000	5.460000	-0.350000	417.00	-0.18	-0.07	20.25	17.50	10.50	13.25	3.75	7.50	2.00	2.75	0.50	0.00	0.00	0.00	1.00	1.50	0.75	0.50	-0.159668	0.128906	0.974121	4.060000	-8.120000	2.660000	867.00	-0.26	-0.07
0.91	6.50	7.00	6.00	5.25	2.25	2.75	1.25	1.50	0.00	1.25	2.50	1.00	0.25	1.00	0.00	2.00	-0.191895	0.114746	0.944336	-0.840000	6.860000	-0.350000	424.00	-0.18	-0.07	20.25	17.75	10.50	13.25	4.00	7.50	1.75	2.75	1.00	0.00	0.00	0.00	1.00	1.25	0.75	0.25	-0.152832	0.128906	0.963867	3.850000	-8.050000	2.590000	871.00	-0.26	-0.06
0.92	6.50	7.00	6.00	5.50	2.25	2.75	1.25	1.25	0.00	1.25	2.50	1.25	0.25	0.75	0.25	2.00	-0.204102	0.108887	0.951660	0.280000	6.790000	0.070000	426.00	-0.18	-0.07	20.25	17.75	10.75	13.25	3.75	7.50	1.75	2.75	0.25	0.00	0.00	0.00	1.00	1.50	0.75	0.50	-0.161621	0.133789	0.966797	3.500000	-7.910000	2.520000	865.00	-0.27	-0.07
0.93	6.75	7.25	6.00	5.75	2.00	3.00	1.25	1.25	0.00	1.25	2.50	1.25	0.25	1.00	0.00	2.25	-0.200684	0.105957	0.956055	1.960000	5.530000	0.000000	435.00	-0.18	-0.07	20.25	18.00	10.50	13.25	3.50	7.50	2.00	2.75	0.25	0.00	0.00	0.00	0.75	1.50	0.50	0.50	-0.162109	0.142090	0.966309	3.290000	-7.630000	2.380000	860.00	-0.27	-0.07
0.94	6.75	7.50	6.00	5.75	2.25	3.00	1.00	1.50	0.00	1.25	2.50	1.00	0.25	0.75	0.00	2.00	-0.195801	0.117676	0.958008	3.150000	4.760000	-0.070000	433.00	-0.19	-0.08	20.00	17.75	10.75	13.25	3.50	7.50	1.75	2.75	0.25	0.00	0.00	0.00	0.50	1.25	0.50	0.25	-0.161621	0.132324	0.975098	3.010000	-7.490000	2.240000	849.00	-0.27	-0.07
0.95	7.00	7.25	6.00	6.00	2.00	3.00	1.00	1.50	0.00	1.25	2.50	1.25	0.50	1.00	0.00	2.00	-0.203125	0.113770	0.955078	3.990000	4.200000	-0.140000	441.00	-0.18	-0.08	20.00	18.25	10.75	13.50	3.50	7.25	1.75	2.25	0.50	0.00	0.00	0.00	0.50	1.25	0.75	0.25	-0.154785	0.133789	0.974121	3.080000	-7.700000	2.100000	852.00	-0.27	-0.06
0.96	7.25	7.50	6.25	6.00	2.25	3.25	1.25	1.50	0.00	1.00	2.50	1.00	0.50	0.75	0.00	1.75	-0.201172	0.121094	0.949707	4.270000	3.920000	-0.140000	449.00	-0.19	-0.08	20.25	17.75	10.50	13.25	3.50	7.25	1.75	2.50	0.50	0.00	0.00	0.00	0.75	1.50	0.75	0.50	-0.150391	0.134277	0.968750	3.010000	-7.840000	2.170000	854.00	-0.27	-0.06
0.97	7.25	8.00	6.50	6.00	2.25	3.50	1.00	1.50	0.00	1.25	2.25	1.00	0.50	0.50	0.00	2.00	-0.191406	0.127441	0.931152	3.850000	4.620000	0.000000	454.00	-0.20	-0.08	20.00	18.50	10.75	13.25	3.50	7.25	1.75	2.50	0.25	0.00	0.00	0.00	0.75	1.00	0.75	0.25	-0.151855	0.142090	0.970703	1.540000	-7.000000	1.960000	852.00	-0.27	-0.07
0.98	7.50	8.25	6.50	6.25	2.25	3.50	1.25	1.75	0.00	1.25	2.25	1.00	0.25	1.00	0.00	2.00	-0.200195	0.113770	0.948242	3.220000	6.020000	0.770000	472.00	-0.19	-0.08	20.25	18.25	10.50	13.25	3.25	7.25	1.75	2.50	0.25	0.00	0.00	0.00	0.75	1.50	0.75	0.25	-0.155273	0.141602	0.964355	1.680000	-6.650000	1.820000	851.00	-0.27	-0.07
0.99	7.75	8.25	6.50	6.75	2.25	3.75	1.25	1.75	0.00	1.00	2.75	1.00	0.50	0.50	0.00	2.00	-0.196777	0.117188	0.950195	3.500000	6.370000	0.700000	483.00	-0.20	-0.08	20.00	18.00	10.50	13.25	3.25	7.25	1.75	2.25	0.25	0.00	0.00	0.00	0.75	1.25	0.50	0.50	-0.155762	0.141113	0.978027	2.100000	-6.580000	1.820000	839.00	-0.28	-0.07
1.00	7.75	8.50	6.50	6.75	2.25	3.75	1.25	1.75	0.00	0.75	2.25	1.25	0.50	0.25	0.00	2.00	-0.191406	0.126465	0.942871	3.500000	6.930000	0.630000	478.00	-0.21	-0.09	19.75	18.00	10.50	13.00	3.00	7.00	1.75	2.25	0.25	0.00	0.00	0.00	0.50	1.50	0.75	0.50	-0.147461	0.137207	0.979004	2.520000	-7.000000	1.680000	831.00	-0.27	-0.06
1.01	8.50	9.00	6.75	7.00	2.25	4.25	1.00	2.00	0.00	1.00	2.50	1.00	0.50	1.00	0.25	2.00	-0.196289	0.122559	0.948730	3.080000	7.420000	0.770000	513.00	-0.20	-0.09	19.75	17.75	10.50	13.00	3.00	7.00	1.75	2.00	0.25	0.00	0.00	0.00	0.50	1.25	0.50	0.25	-0.148926	0.146973	0.958496	2.310000	-7.000000	1.400000	818.00	-0.28	-0.06
1.02	8.25	9.00	6.75	7.50	2.25	4.50	1.00	2.25	0.00	1.00	2.50	1.25	0.75	0.50	0.00	2.25	-0.191895	0.133789	0.937988	2.380000	8.120000	0.700000	522.00	-0.20	-0.10	20.00	17.50	10.25	13.00	3.00	6.75	1.75	1.75	0.25	0.00	0.00	0.00	0.50	1.00	0.75	0.25	-0.148926	0.143555	0.973145	1.680000	-6.580000	1.330000	810.00	-0.28	-0.06
1.03	8.50	9.50	7.50	7.75	2.25	5.00	1.00	2.25	0.00	1.25	2.50	1.00	0.50	0.25	0.00	2.00	-0.203125	0.122559	0.956543	2.520000	9.100000	1.400000	540.00	-0.21	-0.09	19.50	18.00	10.25	13.00	2.75	6.75	1.75	2.00	0.00	0.00	0.00	0.00	0.50	1.25	0.50	0.25	-0.141113	0.140625	0.969727	1.050000	-6.300000	1.190000	807.00	-0.28	-0.06
1.04	9.00	10.00	7.00	8.00	2.25	5.00	1.25	2.75	0.00	1.25	2.50	1.25	0.75	0.75	0.00	2.00	-0.205078	0.113281	0.959473	4.060000	8.330000	1.540000	567.00	-0.20	-0.10	19.25	17.75	10.25	12.75	2.75	6.50	1.75	1.75	0.25	0.00	0.00	0.00	0.50	1.25	0.75	0.25	-0.147461	0.145020	0.965820	0.070000	-5.670000	1.190000	798.00	-0.28	-0.06
1.05	9.50	10.75	7.00	8.50	2.50	5.75	1.25	2.75	0.25	1.25	2.50	1.25	1.00	0.50	0.00	2.00	-0.198730	0.122559	0.950195	5.180000	7.980000	1.540000	599.00	-0.20	-0.10	19.25	17.25	10.00	12.50	2.50	6.50	1.75	1.75	0.25	0.00	0.00	0.00	0.50	1.25	0.50	0.25	-0.145996	0.147949	0.967773	-0.490000	-4.970000	1.120000	783.00	-0.28	-0.06
1.06	9.50	11.25	7.50	8.75	2.50	6.00	1.25	3.75	0.00	1.25	2.50	1.25	1.00	1.00	0.00	2.25	-0.194824	0.125977	0.950195	5.110000	7.840000	1.470000	632.00	-0.20	-0.11	18.75	17.25	9.75	12.50	2.50	6.50	1.75	1.50	0.25	0.00	0.00	0.00	0.50	1.25	0.50	0.25	-0.149902	0.146484	0.969238	-0.980000	-4.340000	1.120000	771.00	-0.28	-0.06
1.07	10.00	11.75	7.50	9.00	2.50	6.50	1.25	3.75	0.00	1.25	2.75	1.25	1.25	0.75	0.00	2.25	-0.193848	0.126465	0.937012	4.340000	8.190000	1.400000	653.00	-0.20	-0.11	18.25	17.00	9.75	12.25	2.50	6.25	1.75	1.25	0.00	0.00	0.00	0.00	0.25	1.00	0.75	0.25	-0.146484	0.155762	0.969727	-1.330000	-3.990000	1.330000	749.00	-0.28	-0.06
1.08	10.50	13.00	7.75	9.25	2.50	7.00	1.25	4.50	0.00	1.25	2.75	1.50	1.25	0.50	0.00	2.25	-0.199219	0.123535	0.947266	3.990000	8.400000	1.610000	692.00	-0.20	-0.12	18.25	16.50	9.50	12.25	2.25	6.00	1.75	1.50	0.00	0.00	0.00	0.00	0.25	1.25	0.50	0.25	-0.144043	0.149902	0.960938	-1.960000	-3.150000	1.400000	740.00	-0.28	-0.06
1.09	11.00	13.50	7.75	9.75	2.75	7.50	1.25	5.00	0.00	1.75	2.75	1.50	1.25	1.00	0.00	2.00	-0.196777	0.125977	0.939941	4.270000	8.890000	1.470000	731.00	-0.20	-0.11	17.75	16.25	9.50	12.00	2.25	5.75	1.75	1.50	0.25	0.00	0.00	0.00	0.00	0.50	0.25	0.25	-0.142578	0.150879	0.956055	-3.290000	-1.960000	1.400000	719.00	-0.29	-0.06
1.10	11.25	14.25	8.00	10.25	2.75	8.00	1.25	5.25	0.00	1.50	2.75	1.50	1.50	0.75	0.00	2.25	-0.193848	0.124512	0.947754	4.970000	9.310000	1.680000	757.00	-0.20	-0.12	17.25	15.75	9.25	11.75	2.00	5.75	1.75	1.50	0.25	0.00	0.00	0.00	0.00	1.25	0.75	0.25	-0.134766	0.147949	0.956543	-5.040000	-0.280000	1.400000	713.00	-0.28	-0.06
1.11	13.00	14.50	8.25	10.75	2.75	8.25	1.25	5.75	0.25	1.50	2.75	1.75	2.00	1.00	0.00	2.25	-0.194824	0.137207	0.937012	5.670000	9.940000	1.400000	809.00	-0.20	-0.12	17.00	15.25	9.00	11.75	2.00	5.50	1.75	1.50	0.25	0.00	0.00	0.00	0.25	1.00	0.50	0.25	-0.134277	0.148926	0.946777	-7.630000	1.820000	1.260000	697.00	-0.28	-0.06
1.12	12.50	15.25	8.75	11.25	3.00	8.75	1.25	6.00	0.25	1.25	2.50	1.75	2.00	1.00	0.25	2.25	-0.204102	0.131348	0.949219	4.760000	10.080000	0.910000	831.00	-0.20	-0.12	16.00	15.00	8.75	11.25	2.00	5.25	1.75	1.00	0.25	0.00	0.00	0.00	0.00	1.00	0.50	0.25	-0.140625	0.146484	0.949219	-10.220000	3.920000	0.840000	664.00	-0.28	-0.05
1.13	12.25	15.50	8.75	11.50	3.25	9.25	1.25	6.25	0.25	1.50	2.75	1.75	2.25	1.00	0.00	2.25	-0.203613	0.128906	0.950195	4.270000	10.080000	0.490000	850.00	-0.20	-0.12	15.50	14.50	8.50	11.00	1.75	5.25	1.75	1.25	0.25	0.00	0.00	0.00	0.25	1.00	0.50	0.25	-0.140137	0.144531	0.949707	-12.670000	6.020000	0.280000	652.00	-0.28	-0.06
1.14	13.50	16.75	8.75	12.25	3.25	9.75	1.25	6.75	0.25	1.50	2.75	1.75	2.50	1.50	0.00	2.25	-0.208984	0.135254	0.951172	3.780000	9.800000	0.140000	902.00	-0.20	-0.13	14.50	13.75	8.25	10.50	1.75	5.00	1.75	1.00	0.00	0.00	0.00	0.00	0.25	1.00	0.50	0.25	-0.139648	0.135254	0.940430	-15.330000	8.400000	-0.350000	617.00	-0.28	-0.06
1.15	14.00	17.25	8.75	13.00	3.50	10.25	1.25	7.25	0.00	1.50	2.75	2.00	2.50	1.25	0.25	2.25	-0.208496	0.136230	0.955566	3.150000	9.170000	-0.070000	936.00	-0.20	-0.13	13.25	12.75	7.75	10.00	1.75	4.75	1.75	1.25	0.25	0.00	0.00	0.00	0.25	1.50	0.50	0.25	-0.130859	0.137207	0.937500	-17.710001	11.480000	-1.470000	592.00	-0.27	-0.06
1.16	14.75	17.75	9.25	13.25	4.00	11.00	1.50	7.50	0.25	1.75	3.00	2.00	3.00	1.75	0.25	2.25	-0.210938	0.135254	0.956543	2.660000	8.260000	-0.280000	995.00	-0.19	-0.13	12.25	11.25	7.50	9.50	1.75	4.50	1.75	1.00	0.25	0.00	0.00	0.00	0.25	1.25	0.75	0.25	-0.143555	0.142578	0.965332	-20.370001	14.140000	-2.730000	553.00	-0.26	-0.05
1.17	15.50	18.75	9.75	14.00	4.25	12.00	1.50	7.75	0.25	1.75	3.00	2.00	3.25	1.50	0.00	2.50	-0.208984	0.147949	0.961914	2.030000	7.070000	-0.420000	1042.00	-0.20	-0.13	10.25	10.00	6.75	9.00	1.75	4.00	1.75	1.25	0.50	0.00	0.00	0.00	0.50	1.00	0.50	0.25	-0.133301	0.121582	0.948242	-19.250000	16.590000	-5.600000	506.00	-0.25	-0.06
1.18	16.25	19.75	10.00	14.50	5.00	12.50	1.50	8.00	0.00	1.50	3.25	2.25	3.50	1.75	0.00	2.50	-0.207520	0.145996	0.962402	1.120000	6.720000	-0.700000	1088.00	-0.20	-0.13	8.75	8.50	6.00	8.25	1.50	3.75	1.75	1.25	0.75	0.00	0.00	0.00	0.75	1.50	0.50	0.25	-0.153320	0.111816	0.964844	-18.549999	19.110001	-7.490000	465.00	-0.23	-0.06
1.19	17.25	20.50	10.50	15.25	5.25	13.25	1.75	8.25	0.25	1.75	3.00	2.50	3.75	2.00	0.00	2.50	-0.209961	0.146484	0.956543	0.700000	5.880000	-0.770000	1148.00	-0.19	-0.12	6.75	7.25	5.25	7.50	1.25	2.75	1.75	1.25	0.50	0.00	0.00	0.00	0.75	1.25	0.50	0.25	-0.079102	0.121094	1.026855	-17.850000	21.420000	-9.520000	397.00	-0.23	-0.06
1.20	18.00	21.50	11.00	16.00	5.50	13.50	1.50	8.50	0.25	1.50	3.00	2.25	4.00	2.00	0.25	2.25	-0.202637	0.142090	0.956543	0.280000	5.320000	-0.630000	1182.00	-0.20	-0.13	5.25	6.00	4.00	6.50	1.25	2.00	1.75	1.00	0.75	0.25	0.00	0.00	1.25	1.50	0.75	0.50	-0.235352	0.162598	0.994141	-17.920000	24.290001	-12.040000	349.00	-0.19	-0.06
1.21	18.25	22.25	11.25	16.25	5.75	14.00	1.75	8.75	0.00	1.50	3.00	2.25	4.25	2.00	0.25	2.25	-0.199707	0.143555	0.959473	-0.140000	4.830000	-0.770000	1212.00	-0.20	-0.13	3.75	4.50	3.00	5.50	1.00	1.50	2.00	1.00	0.75	0.50	0.00	0.25	1.00	1.75	1.00	0.50	-0.044922	0.091797	1.043457	-16.940001	29.120001	-18.410000	301.00	-0.14	-0.05
1.22	19.50	22.75	11.50	16.75	6.00	14.50	1.75	8.75	0.50	2.00	3.00	2.50	4.00	2.00	0.25	2.50	-0.199707	0.148438	0.956543	-0.770000	4.550000	-1.190000	1260.00	-0.20	-0.12	2.50	3.25	2.00	4.50	0.50	1.00	1.75	0.75	0.75	0.50	0.25	0.50	1.25	1.50	1.00	0.50	-0.056152	0.260254	1.045898	-12.460000	36.820000	-29.120001	242.00	-0.11	-0.06
1.23	19.00	23.25	12.00	17.25	6.00	15.00	1.75	9.00	0.25	1.75	3.00	2.50	4.75	2.00	0.25	2.50	-0.199219	0.145508	0.958008	-1.750000	4.900000	-1.540000	1280.00	-0.20	-0.13	1.75	1.75	1.50	3.25	0.50	1.00	1.75	0.75	1.00	0.50	0.25	0.25	1.25	1.75	1.00	0.50	-0.191406	0.140625	1.357422	-1.330000	52.220001	-37.799999	203.00	-0.05	-0.04
1.24	20.00	23.50	12.00	17.25	6.25	15.50	1.75	9.00	0.00	1.75	3.00	2.25	5.00	2.00	0.00	2.25	-0.198730	0.146973	0.957520	-2.520000	5.460000	-1.890000	1293.00	-0.20	-0.13	1.50	1.25	1.25	3.00	0.25	0.75	1.75	0.50	1.00	0.50	0.50	0.00	1.25	1.75	0.75	0.50	-0.267578	0.201172	1.142578	2.100000	80.989998	-40.180000	179.00	-0.03	-0.03
1.25	19.50	23.75	12.25	17.50	6.50	15.50	1.75	9.25	0.00	2.00	3.00	2.75	5.00	2.25	0.00	2.50	-0.198242	0.142090	0.954102	-2.730000	6.020000	-2.170000	1314.00	-0.20	-0.13	0.75	1.50	0.75	2.50	0.50	1.00	1.50	0.25	0.75	0.25	0.25	0.00	1.00	1.75	1.00	0.50	-0.267578	0.245605	1.244629	-1.680000	113.400002	-46.619999	152.00	-0.02	-0.04
1.26	20.50	23.75	12.25	17.25	6.50	15.25	1.75	9.25	0.50	2.00	3.00	2.75	5.00	2.25	0.25	2.50	-0.204102	0.145996	0.961426	-2.940000	6.720000	-2.170000	1328.00	-0.20	-0.12	0.50	1.00	0.75	1.75	0.25	0.50	1.50	0.25	0.75	0.25	0.00	0.00	0.50	1.75	0.75	0.50	-0.206543	0.308594	1.267578	-10.430000	140.699997	-57.820000	119.00	0.01	0.00
1.27	20.00	23.50	12.25	17.50	6.75	15.50	2.00	9.25	0.25	1.75	3.25	2.75	5.00	2.25	0.25	2.50	-0.226074	0.145996	0.958008	-2.800000	7.560000	-2.170000	1329.00	-0.20	-0.12	0.50	1.00	0.50	1.00	0.25	0.25	1.50	0.25	0.25	0.00	0.00	0.00	0.25	1.50	0.75	0.50	-0.277344	0.365723	1.179199	-14.140000	159.180008	-70.559998	92.00	0.01	0.01
1.28	20.25	23.25	12.25	17.25	6.75	15.50	1.75	9.25	0.50	2.00	3.00	2.75	5.25	2.25	0.00	2.50	-0.201660	0.140625	0.955078	-2.590000	7.490000	-2.100000	1326.00	-0.20	-0.12	0.50	0.50	0.25	1.25	0.00	0.25	1.50	0.00	0.25	0.00	0.00	0.00	0.00	1.25	0.50	0.25	-0.170898	0.358887	1.203125	-8.120000	164.430008	-83.230003	72.00	0.01	0.05
1.29	20.00	23.75	12.25	17.00	6.75	15.50	2.00	9.25	0.50	2.00	3.25	2.75	5.25	2.25	0.00	2.50	-0.206055	0.135742	0.952637	-2.170000	7.280000	-2.030000	1331.00	-0.19	-0.12	0.75	1.00	0.50	1.25	0.25	0.00	1.50	0.00	0.25	0.00	0.00	0.00	0.00	1.00	0.75	0.00	-0.253906	0.177734	1.571289	-5.040000	155.680008	-91.070000	81.00	-0.04	0.05
1.30	19.75	23.00	12.25	16.75	7.00	15.50	1.75	9.25	0.50	2.00	3.00	2.75	5.25	2.25	0.25	2.50	-0.201172	0.144531	0.957031	-1.960000	7.280000	-2.030000	1318.00	-0.19	-0.12	0.00	1.00	0.25	0.75	0.00	0.00	1.50	0.00	0.25	0.00	0.00	0.00	0.00	0.50	0.25	0.00	-0.103027	0.339355	1.249023	-21.770000	146.930008	-96.320000	53.00	-0.03	0.07
1.31	19.50	22.75	12.00	16.75	7.00	15.25	1.75	9.25	0.75	2.00	3.00	2.75	5.25	2.25	0.50	2.50	-0.202637	0.142090	0.956055	-2.100000	7.140000	-2.240000	1314.00	-0.19	-0.12	0.25	0.75	0.50	1.00	0.00	0.25	1.50	0.00	0.00	0.00	0.00	0.00	0.00	0.25	0.25	0.00	1.147949	0.321289	1.733398	-61.180000	123.410004	-104.580002	56.00	-0.09	0.04
1.32	19.00	22.50	11.75	16.50	7.00	15.00	2.00	9.25	0.75	2.00	3.25	3.00	5.25	2.25	0.25	2.50	-0.201172	0.141602	0.947754	-4.200000	6.300000	-3.220000	1304.00	-0.19	-0.12	0.25	0.50	0.25	1.25	0.00	0.00	1.50	0.00	0.25	0.00	0.00	0.00	0.00	0.50	0.25	0.00	1.489258	0.517578	1.935059	-81.830002	71.610001	-109.760002	57.00	-0.04	0.06
1.33	18.25	21.75	11.50	16.50	7.00	14.75	1.75	9.25	0.00	2.25	3.00	2.75	5.25	2.50	0.25	2.50	-0.199707	0.142578	0.949707	-5.810000	6.020000	-4.060000	1270.00	-0.19	-0.13	0.00	0.75	0.50	0.50	0.00	0.00	1.50	0.00	0.25	0.00	0.00	0.00	0.00	0.75	0.50	0.00	1.725098	0.846680	1.673828	-41.580002	8.890000	-86.730003	56.00	0.03	0.09
1.34	18.50	21.50	11.75	16.25	7.00	14.50	2.00	9.00	0.50	1.75	3.00	2.75	5.50	2.75	0.25	2.50	-0.204102	0.139648	0.945801	-7.560000	5.600000	-4.620000	1273.00	-0.19	-0.12	0.25	0.75	0.00	0.75	0.00	0.00	1.50	0.00	0.25	0.00	0.00	0.00	0.00	0.25	0.25	0.00	1.313477	0.742188	0.975098	-22.750000	-29.540001	-63.700001	48.00	0.00	0.00
1.35	17.75	21.25	11.50	16.00	7.25	14.25	2.00	9.00	0.50	2.00	3.00	3.00	5.50	2.50	0.25	2.50	-0.199707	0.139160	0.928223	-8.680000	5.880000	-4.970000	1261.00	-0.18	-0.12	0.25	0.00	0.00	0.75	0.00	0.00	1.50	0.00	0.00	0.00	0.00	0.00	0.00	0.50	0.25	0.00	1.238770	0.901367	0.826172	-18.969999	-38.500000	-36.959999	40.00	0.00	0.00
1.36	18.25	21.75	11.50	15.50	7.50	14.25	2.00	9.00	0.50	2.00	3.00	3.00	5.50	2.75	0.25	2.50	-0.209961	0.126465	0.951660	-8.260000	6.860000	-4.550000	1270.00	-0.18	-0.12	0.00	0.25	0.00	0.75	0.00	0.00	1.50	0.00	0.00	0.00	0.00	0.00	0.00	0.25	0.25	0.00	1.203125	0.984863	1.039551	0.910000	-48.509998	-7.140000	38.00	0.00	0.00
1.37	17.75	21.00	11.50	15.50	7.50	14.25	2.00	9.00	0.50	1.75	3.00	2.75	5.25	3.00	0.25	2.50	-0.203125	0.132812	0.948730	-7.210000	7.280000	-4.410000	1253.00	-0.18	-0.12	0.25	0.25	0.25	1.00	0.00	0.00	1.50	0.00	0.00	0.00	0.00	0.00	0.00	0.25	0.25	0.00	1.001465	0.652344	1.048828	27.090000	-82.529999	46.130001	46.00	0.00	0.00
1.38	17.25	20.25	11.75	15.25	7.75	14.00	2.00	9.00	0.50	2.00	3.25	3.00	5.50	3.00	0.50	2.50	-0.208496	0.130371	0.958496	-6.580000	7.350000	-4.410000	1253.00	-0.17	-0.12	0.25	0.50	0.25	0.00	0.00	0.00	1.50	0.00	0.00	0.00	0.00	0.00	0.00	0.25	0.25	0.00	0.887207	0.524414	1.053223	36.820000	-96.669998	63.770000	37.00	0.00	0.00
1.39	17.25	20.50	11.50	15.25	8.00	13.75	2.25	9.00	0.75	2.00	3.25	2.75	5.50	3.00	0.25	2.50	-0.208496	0.128906	0.954102	-5.950000	7.140000	-4.270000	1254.00	-0.18	-0.12	0.00	0.25	0.00	0.50	0.00	0.00	1.50	0.00	0.00	0.00	0.00	0.00	0.00	0.25	0.25	0.00	0.773926	0.316895	1.156250	50.400002	-109.970001	75.529999	35.00	0.00	0.00
1.40	17.75	20.25	11.50	15.00	8.00	14.00	2.00	9.00	0.75	2.00	3.00	3.00	5.50	3.00	0.50	2.50	-0.202637	0.123047	0.949707	-5.600000	6.650000	-3.920000	1256.00	-0.17	-0.12	0.25	0.25	0.00	0.50	0.00	0.00	1.50	0.00	0.00	0.00	0.00	0.00	0.00	0.25	0.25	0.00	0.670898	0.142090	1.238281	55.860001	-123.760002	82.529999	38.00	0.00	0.00
1.41	17.75	20.00	11.50	15.00	8.00	14.00	2.00	9.00	0.75	2.00	3.25	3.00	5.50	2.75	0.25	2.50	-0.206055	0.117188	0.952637	-5.460000	6.370000	-4.060000	1252.00	-0.18	-0.12	0.00	0.00	0.00	0.50	0.00	0.00	1.25	0.00	0.00	0.00	0.00	0.00	0.00	0.25	0.25	0.00	0.541992	0.033203	1.332031	53.830002	-138.039993	85.400002	29.00	0.00	0.00
1.42	17.75	19.50	11.75	15.00	8.25	14.00	2.25	9.00	0.75	2.25	3.25	3.00	5.50	2.75	0.50	2.50	-0.198730	0.131836	0.948242	-5.180000	6.090000	-3.990000	1262.00	-0.17	-0.12	0.00	0.00	0.25	0.25	0.00	0.00	1.75	0.00	0.25	0.00	0.00	0.00	0.00	0.25	0.25	0.00	0.423340	-0.052734	1.377441	52.009998	-152.460007	84.840004	40.00	0.00	0.00
1.43	17.50	19.50	11.50	14.75	8.50	14.25	2.25	9.00	0.75	2.00	3.25	3.25	5.50	2.75	0.25	2.50	-0.199707	0.128418	0.951660	-5.180000	6.510000	-3.920000	1256.00	-0.17	-0.12	0.00	0.00	0.00	0.25	0.00	0.00	1.50	0.00	0.00	0.00	0.00	0.00	0.00	0.25	0.25	0.00	0.272949	-0.112305	1.411133	48.580002	-166.110001	81.129997	30.00	0.00	0.00
1.44	17.00	19.75	11.75	14.75	8.75	14.00	2.25	9.00	0.50	2.00	3.25	3.25	5.50	2.75	0.50	2.75	-0.204102	0.124512	0.949219	-5.040000	6.440000	-3.920000	1257.00	-0.17	-0.12	0.25	0.25	0.00	0.50	0.00	0.00	1.50	0.00	0.00	0.00	0.00	0.00	0.00	0.25	0.25	0.00	0.134277	-0.121582	1.422363	42.560001	-177.100006	75.040001	38.00	0.00	0.00
1.45	16.75	19.75	11.75	14.75	9.00	14.00	2.25	9.00	0.50	2.00	3.25	3.25	5.50	2.50	0.25	2.75	-0.199219	0.134766	0.947266	-5.460000	6.510000	-3.990000	1253.00	-0.17	-0.12	0.00	0.00	0.00	0.25	0.00	0.00	1.50	0.00	0.00	0.00	0.00	0.00	0.00	0.00	0.25	0.00	-0.016602	-0.082520	1.431152	36.049999	-184.589996	67.900002	28.00	0.00	0.00
1.46	17.50	19.25	11.75	14.75	9.25	14.25	2.25	9.00	0.75	2.25	3.50	3.25	5.50	2.50	0.25	2.50	-0.204590	0.130371	0.945801	-5.600000	6.860000	-3.780000	1268.00	-0.17	-0.12	0.00	0.00	0.00	0.25	0.00	0.00	1.50	0.00	0.00	0.00	0.00	0.00	0.00	0.00	0.25	0.00	-0.139648	-0.021484	1.420410	30.940001	-188.160004	61.670002	28.00	0.00	0.00
1.47	17.25	19.25	11.75	14.75	9.25	14.50	2.25	9.00	0.50	2.25	3.50	3.50	5.75	2.75	0.50	2.75	-0.205566	0.122070	0.943848	-5.740000	7.420000	-3.570000	1276.00	-0.17	-0.12	0.25	0.00	0.00	0.25	0.00	0.00	1.50	0.00	0.00	0.00	0.00	0.00	0.00	0.00	0.50	0.00	-0.262207	0.072754	1.424316	27.299999	-188.580002	58.799999	33.00	0.00	0.00
1.48	16.75	19.00	12.00	14.50	9.50	14.50	2.50	9.00	0.75	2.25	3.50	3.25	5.75	2.50	0.50	2.75	-0.201660	0.124023	0.953125	-5.250000	8.120000	-3.220000	1274.00	-0.17	-0.12	0.00	0.00	0.00	0.00	0.00	0.00	1.50	0.00	0.00	0.00	0.00	0.00	0.00	0.00	0.00	0.00	-0.374023	0.130859	1.387207	23.870001	-186.619995	59.849998	23.00	0.00	0.00
1.49	16.75	18.75	11.75	14.25	9.75	14.50	2.50	9.00	0.75	2.25	3.50	3.75	6.00	3.00	0.50	2.75	-0.208496	0.123047	0.955566	-4.270000	8.890000	-2.940000	1280.00	-0.16	-0.12	0.25	0.25	0.00	0.25	0.00	0.00	1.75	0.00	0.00	0.00	0.00	0.00	0.00	0.25	0.25	0.00	-0.457031	0.203613	1.364746	21.000000	-182.350006	64.330002	39.00	0.00	0.00
1.50	16.50	18.25	11.75	14.75	9.75	14.75	2.50	9.25	0.75	2.50	3.75	4.00	6.00	2.75	0.50	3.00	-0.208496	0.120117	0.946289	-3.430000	9.170000	-2.730000	1292.00	-0.16	-0.12	0.00	0.00	0.00	0.25	0.00	0.00	1.50	0.00	0.00	0.00	0.00	0.00	0.00	0.25	0.25	0.00	-0.512207	0.245117	1.354980	21.910000	-177.449997	70.980003	30.00	0.00	0.00
1.51	16.00	17.75	11.50	14.50	9.75	15.00	2.50	9.50	1.00	2.50	3.50	4.00	6.25	2.75	0.50	3.00	-0.202148	0.125488	0.948730	-3.150000	9.590000	-2.450000	1286.00	-0.15	-0.12	0.00	0.00	0.25	0.50	0.00	0.00	1.50	0.00	0.00	0.00	0.00	0.00	0.00	0.00	0.25	0.00	-0.562500	0.244629	1.342285	24.010000	-172.550003	78.260002	34.00	0.00	0.00
1.52	15.75	18.00	11.75	14.25	10.00	15.00	2.50	9.50	1.00	2.75	4.00	4.50	6.25	2.75	0.50	3.00	-0.209473	0.115723	0.948242	-2.590000	9.870000	-2.380000	1302.00	-0.15	-0.12	0.00	0.00	0.00	0.25	0.00	0.00	1.50	0.00	0.00	0.00	0.00	0.00	0.00	0.00	0.25	0.00	-0.608887	0.208984	1.273438	24.710001	-167.020004	84.910004	28.00	0.00	0.00
1.53	15.50	17.75	11.50	14.25	10.25	15.50	2.50	10.00	1.00	2.75	4.00	4.75	6.50	2.50	0.75	3.25	-0.204102	0.121094	0.940918	-0.350000	11.270000	-1.610000	1317.00	-0.15	-0.13	0.00	0.00	0.00	0.25	0.00	0.00	1.50	0.00	0.00	0.00	0.00	0.00	0.00	0.00	0.00	0.00	-0.650879	0.155762	1.206543	24.430000	-160.229996	89.389999	25.00	0.00	0.00
1.54	15.25	17.50	11.50	14.50	10.00	15.25	2.50	10.25	1.25	3.00	4.50	5.25	6.75	2.75	0.50	3.25	-0.212891	0.112305	0.939941	1.050000	12.110000	-1.190000	1331.00	-0.14	-0.13	0.00	0.25	0.00	0.25	0.00	0.00	1.75	0.00	0.00	0.00	0.00	0.00	0.00	0.00	0.00	0.00	-0.681641	0.085449	1.150391	23.379999	-152.389999	91.489998	32.00	0.00	0.00
1.55	14.25	16.75	11.25	14.00	10.50	16.00	2.75	10.50	1.25	3.00	5.25	6.00	7.25	2.25	0.75	3.50	-0.205078	0.119629	0.940918	2.380000	13.090000	-1.050000	1347.00	-0.13	-0.13	0.00	0.25	0.00	0.25	0.00	0.00	1.50	0.00	0.00	0.00	0.00	0.00	0.00	0.25	0.25	0.00	-0.722168	0.037598	1.141113	21.139999	-144.899994	91.419998	33.00	0.00	0.00
1.56	14.25	16.00	11.00	13.75	10.25	16.25	2.75	11.00	1.50	3.25	5.25	6.50	7.50	3.00	0.75	3.50	-0.208008	0.125000	0.947266	3.150000	13.930000	-0.980000	1361.00	-0.12	-0.13	0.25	0.25	0.00	0.25	0.00	0.00	1.50	0.00	0.00	0.00	0.00	0.00	0.00	0.25	0.00	0.00	-0.815918	-0.006348	0.992188	12.810000	-130.130005	85.540001	32.00	0.00	0.00
1.57	13.25	15.25	10.50	13.25	10.50	16.75	3.00	11.50	1.50	3.50	5.75	7.00	7.75	3.00	0.75	3.75	-0.211426	0.125977	0.944824	3.080000	14.770000	-1.260000	1369.00	-0.11	-0.14	0.00	0.00	0.25	0.50	0.00	0.00	1.50	0.00	0.00	0.00	0.00	0.00	0.00	0.25	0.25	0.00	-0.844727	0.015625	0.904785	10.850000	-119.910004	79.870003	36.00	0.00	0.00
1.58	12.50	14.25	10.25	13.00	10.25	16.50	3.00	12.00	1.50	3.75	6.50	7.75	8.25	3.50	1.00	4.00	-0.200195	0.150879	0.944336	3.430000	15.470000	-1.400000	1380.00	-0.10	-0.14	0.00	0.00	0.00	0.25	0.00	0.00	1.50	0.00	0.00	0.00	0.00	0.00	0.00	0.00	0.00	0.00	-0.884277	0.038574	0.862305	13.020000	-108.849998	72.800003	25.00	0.00	0.00
1.59	10.75	13.00	9.75	12.25	10.00	17.00	3.00	12.25	2.00	4.00	7.25	8.25	8.75	3.50	1.00	4.50	-0.209961	0.127441	0.946777	4.060000	16.030001	-1.750000	1372.00	-0.08	-0.14	0.00	0.00	0.00	0.25	0.00	0.00	1.50	0.00	0.00	0.00	0.00	0.00	0.00	0.00	0.00	0.00	-0.962402	-0.012695	0.812012	20.020000	-98.489998	64.610001	25.00	0.00	0.00
1.60	9.50	11.50	9.25	11.50	10.00	17.00	3.00	12.50	2.00	5.00	7.75	8.75	9.00	3.75	1.00	4.75	-0.216797	0.130859	0.952148	5.460000	16.730000	-2.240000	1362.00	-0.07	-0.15	0.00	0.00	0.00	0.25	0.00	0.00	1.50	0.00	0.00	0.00	0.00	0.00	0.00	0.25	0.25	0.00	-1.063477	-0.089355	0.741699	23.240000	-86.940002	55.230000	30.00	0.00	0.00
1.61	8.75	10.25	9.00	10.50	9.50	17.00	3.25	12.75	2.25	5.75	8.25	9.25	9.50	4.00	1.25	5.00	-0.220215	0.134277	0.958496	7.350000	18.129999	-2.520000	1363.00	-0.05	-0.15	0.00	0.00	0.00	0.25	0.00	0.00	1.50	0.00	0.00	0.00	0.00	0.00	0.00	0.00	0.50	0.00	-1.162598	-0.098145	0.673828	21.000000	-73.080002	45.080002	31.00	0.00	0.00
1.62	7.75	9.25	8.50	9.75	9.25	17.00	3.25	13.25	2.75	6.00	8.50	10.00	10.25	4.75	1.25	5.00	-0.228027	0.137207	0.945801	9.870000	19.389999	-3.080000	1367.00	-0.04	-0.15	0.25	0.00	0.00	0.50	0.00	0.00	1.50	0.00	0.00	0.00	0.00	0.00	0.00	0.00	0.00	0.00	-1.248535	-0.087891	0.601562	17.150000	-57.260002	34.790001	31.00	0.00	0.00
1.63	6.50	8.00	8.00	9.00	8.75	17.25	3.25	13.50	3.00	6.75	9.25	10.50	10.75	5.00	1.50	5.25	-0.312012	0.185547	0.893066	12.530000	20.860001	-3.640000	1365.00	-0.02	-0.15	0.25	0.00	0.00	0.50	0.00	0.00	1.50	0.00	0.00	0.00	0.00	0.00	0.00	0.00	0.25	0.00	-1.308594	-0.057129	0.542480	13.860000	-39.689999	24.570000	33.00	0.00	0.00
1.64	5.50	7.00	7.00	8.50	8.00	17.00	3.25	13.75	3.75	7.50	9.75	11.50	11.25	5.25	1.50	5.50	-0.215332	0.132324	0.958496	14.560000	24.010000	-4.480000	1363.00	-0.00	-0.15	0.00	0.00	0.00	0.50	0.00	0.00	1.50	0.00	0.00	0.00	0.00	0.00	0.00	0.00	0.00	0.00	-1.351562	-0.020508	0.499512	11.480000	-20.719999	15.470000	28.00	0.00	0.00
1.65	4.75	6.00	6.25	7.75	7.25	16.50	3.00	13.75	3.75	7.75	10.50	12.25	12.00	5.50	1.75	6.00	-0.231934	0.156738	0.953613	16.170000	27.860001	-5.320000	1344.00	0.01	-0.16	0.25	0.00	0.00	0.00	0.00	0.00	1.50	0.00	0.00	0.00	0.00	0.00	0.00	0.25	0.25	0.00	-1.357422	0.037598	0.481445	9.380000	-0.560000	8.540000	30.00	0.00	0.00
1.66	3.50	5.00	5.50	6.75	6.00	15.50	3.00	13.75	4.00	8.25	11.00	13.00	12.75	6.00	2.00	6.00	-0.223145	0.138672	0.969727	18.059999	32.130001	-6.090000	1313.00	0.03	-0.16	0.00	0.25	0.00	0.00	0.00	0.00	1.50	0.00	0.25	0.00	0.00	0.00	0.00	0.25	0.25	0.00	-1.323730	0.085938	0.472168	8.540000	19.320000	4.060000	33.00	0.00	0.00
1.67	2.75	4.25	4.50	6.00	5.00	14.75	2.75	13.75	4.75	8.50	11.75	14.00	13.25	7.25	2.00	6.50	-0.237793	0.155273	0.966797	20.580000	36.540001	-7.560000	1305.00	0.05	-0.17	0.25	0.25	0.00	0.00	0.00	0.00	1.50	0.00	0.00	0.00	0.00	0.00	0.00	0.00	0.00	0.00	-1.281250	0.128906	0.489746	8.750000	39.200001	1.190000	28.00	0.00	0.00
1.68	2.00	3.25	3.25	5.25	3.50	13.75	2.75	13.50	5.00	8.75	12.50	14.75	13.75	7.50	2.50	6.50	-0.242676	0.171387	0.970703	22.260000	41.720001	-8.750000	1268.00	0.08	-0.17	0.25	0.50	0.00	0.25	0.00	0.00	1.50	0.00	0.00	0.00	0.00	0.00	0.00	0.00	0.25	0.00	0.296875	0.355957	1.149414	3.570000	77.699997	-9.590000	35.00	0.00	0.00
1.69	1.50	2.75	2.50	4.75	2.50	12.25	2.50	13.25	5.25	9.00	13.00	15.50	14.25	8.00	2.75	6.75	-0.241699	0.152344	0.984375	23.940001	46.830002	-10.290000	1241.00	0.09	-0.17	0.75	1.00	0.00	1.00	0.00	0.25	1.50	0.00	0.00	0.00	0.00	0.00	0.00	0.25	0.25	0.00	0.805176	0.540039	1.475098	-1.120000	75.739998	-11.270000	58.00	-0.12	0.03
1.70	0.50	2.00	1.50	4.25	1.50	10.75	2.25	13.00	5.75	9.25	13.75	16.25	14.75	8.50	3.00	7.00	-0.250977	0.163086	0.971191	26.809999	52.639999	-11.480000	1209.00	0.12	-0.18	1.25	2.00	0.25	0.75	0.00	0.00	1.50	0.00	0.00	0.00	0.00	0.00	0.00	0.00	0.25	0.00	0.424316	0.080566	0.436523	-3.780000	68.739998	-8.330000	68.00	-0.19	0.03
1.71	0.50	1.50	1.25	3.50	1.00	9.50	2.00	12.50	5.75	9.50	14.50	17.00	15.00	9.00	3.25	7.25	-0.304199	0.179688	0.953125	30.380001	59.430000	-12.390000	1192.00	0.13	-0.18	1.25	2.00	0.50	1.50	0.00	0.00	1.50	0.00	0.00	0.00	0.00	0.00	0.00	0.00	0.00	0.00	-0.021973	0.162598	0.442383	-19.600000	98.559998	-14.280000	76.00	-0.23	0.01
1.72	0.50	1.25	1.00	3.25	1.00	8.75	1.75	12.00	6.00	9.75	15.00	17.50	15.25	9.50	3.75	7.25	-0.280273	0.175293	0.968750	36.189999	67.620003	-13.790000	1193.00	0.14	-0.17	1.50	2.75	0.25	1.00	0.00	0.00	1.50	0.00	0.00	0.00	0.00	0.00	0.00	0.00	0.00	0.00	0.123535	0.354980	1.032715	-26.670000	127.050003	-14.350000	77.00	-0.24	0.01
1.73	0.25	1.25	0.75	2.50	0.50	7.75	1.50	11.25	6.25	10.00	15.75	18.00	15.75	9.75	4.00	7.50	-0.296387	0.199707	0.976562	42.700001	79.309998	-14.840000	1177.00	0.15	-0.17	2.00	3.25	0.75	1.50	0.00	0.00	1.25	0.00	0.00	0.00	0.00	0.00	0.00	0.00	0.00	0.00	0.046875	0.333984	1.305664	-22.610001	126.770004	-7.140000	94.00	-0.28	-0.01
1.74	0.00	0.75	0.50	2.50	0.25	6.75	1.25	10.50	6.50	10.25	16.25	18.25	15.75	10.25	4.50	7.50	-0.308594	0.173828	0.992188	48.650002	104.019997	-17.290001	1162.00	0.17	-0.17	2.50	4.25	0.75	1.75	0.00	0.00	1.25	0.00	0.00	0.00	0.00	0.00	0.00	0.00	0.00	0.00	-0.081543	0.182129	1.246582	-18.480000	111.020004	-1.260000	112.00	-0.30	-0.02
1.75	0.00	0.25	0.00	2.00	0.25	6.50	1.00	9.75	6.25	10.25	16.50	18.50	15.75	10.75	4.75	7.50	-0.341797	0.209961	0.971191	48.090000	114.099998	-17.780001	1137.00	0.18	-0.17	3.00	5.00	0.75	2.25	0.00	0.00	1.50	0.00	0.00	0.00	0.00	0.00	0.00	0.00	0.00	0.00	-0.020020	0.014648	1.092285	-21.770000	104.370003	-3.850000	133.00	-0.30	-0.03
1.76	0.00	0.25	0.00	2.00	0.00	5.25	0.75	9.00	6.75	10.50	16.75	18.75	15.75	11.50	5.25	7.75	-0.450195	0.290039	0.962402	50.119999	125.510002	-20.930000	1133.00	0.19	-0.16	3.50	5.25	1.00	2.50	0.00	0.00	1.25	0.00	0.00	0.00	0.00	0.00	0.00	0.00	0.25	0.00	0.062988	0.006836	1.101562	-22.889999	102.340004	-9.870000	145.00	-0.30	-0.03
1.77	0.00	0.00	0.00	1.50	0.00	4.50	0.50	8.25	6.75	10.25	16.75	19.00	15.50	11.75	5.50	8.00	-0.385742	0.242188	0.961914	54.740002	134.119995	-20.790001	1106.00	0.20	-0.16	3.75	5.50	1.25	2.50	0.00	0.00	1.25	0.00	0.00	0.00	0.00	0.00	0.00	0.00	0.25	0.00	-0.000488	0.082031	1.090820	-11.410000	102.340004	-18.760000	152.00	-0.30	-0.03
1.78	0.00	0.00	0.00	1.25	0.00	4.00	0.25	7.75	6.50	10.50	17.00	18.75	15.00	12.50	5.50	8.00	-0.367188	0.200684	0.994141	50.889999	147.000000	-21.139999	1087.00	0.21	-0.16	4.50	5.75	1.25	3.00	0.00	0.00	1.25	0.00	0.00	0.00	0.00	0.00	0.00	0.00	0.25	0.00	-0.025879	0.114258	1.179199	1.820000	96.180000	-18.270000	168.00	-0.31	-0.03
1.79	0.00	0.00	0.00	0.75	0.00	2.75	0.25	7.00	6.50	10.50	16.75	18.50	14.75	12.75	6.00	8.00	-0.421875	0.232422	0.903809	39.549999	160.789993	-22.469999	1057.00	0.22	-0.15	5.25	7.25	1.50	3.50	0.00	0.00	1.25	0.00	0.00	0.00	0.00	0.00	0.00	0.00	0.00	0.00	-0.007324	-0.034180	1.081543	11.830000	90.090004	-19.180000	195.00	-0.33	-0.04
1.80	0.00	0.00	0.00	1.00	0.00	2.00	0.00	6.50	6.25	10.50	16.75	18.00	14.00	13.50	6.25	7.75	-0.453125	0.262207	0.945801	33.040001	173.949997	-26.320000	1033.00	0.22	-0.14	6.25	8.00	2.00	4.00	0.00	0.00	1.25	0.00	0.00	0.00	0.00	0.00	0.00	0.00	0.00	0.00	0.002930	0.082520	1.019531	16.309999	90.370003	-23.309999	223.00	-0.33	-0.04
1.81	0.00	0.00	0.00	0.25	0.00	1.00	0.00	6.00	6.25	10.50	16.50	17.75	13.50	14.25	6.25	7.75	-0.473145	0.238281	0.954102	26.180000	188.089996	-28.910000	1003.00	0.23	-0.14	7.50	9.25	2.00	4.50	0.00	0.00	1.25	0.00	0.00	0.00	0.00	0.00	0.00	0.00	0.00	0.00	-0.029785	0.185059	1.008301	20.370001	91.840004	-26.880001	253.00	-0.34	-0.04
1.82	0.00	0.00	0.00	0.50	0.00	1.25	0.00	5.50	5.75	10.25	16.00	17.00	12.50	14.75	6.50	7.50	-0.524902	0.240234	1.012695	19.879999	206.149994	-30.520000	975.00	0.23	-0.13	8.75	9.75	2.25	5.25	0.00	0.00	1.25	0.00	0.00	0.00	0.00	0.00	0.00	0.00	0.00	0.00	-0.067871	0.252441	1.067383	21.700001	95.129997	-28.559999	282.00	-0.34	-0.04
1.83	0.00	0.00	0.00	0.00	0.00	0.75	0.00	5.00	5.50	10.00	15.50	16.50	11.50	15.25	6.75	7.75	-0.556641	0.251953	0.987793	14.700000	222.669998	-33.880001	940.00	0.24	-0.13	9.50	11.00	3.00	5.75	0.00	0.00	1.25	0.00	0.00	0.00	0.00	0.00	0.00	0.00	0.00	0.00	-0.076660	0.358398	1.083496	24.080000	96.320000	-25.830000	315.00	-0.34	-0.04
1.84	0.00	0.00	0.00	0.00	0.00	0.75	0.00	4.50	5.50	10.00	14.75	15.00	10.25	15.75	6.75	7.50	-0.682617	0.323730	1.032715	15.680000	238.000000	-39.549999	900.00	0.25	-0.11	10.75	12.00	3.25	6.50	0.00	0.25	1.25	0.00	0.00	0.00	0.00	0.00	0.00	0.00	0.00	0.00	-0.115234	0.207031	1.113281	24.219999	99.680000	-21.420000	351.00	-0.34	-0.04
1.85	0.00	0.00	0.00	0.00	0.00	0.50	0.00	4.00	5.00	9.50	14.25	14.25	9.25	15.75	6.75	7.25	-0.705078	0.326660	1.073242	12.390000	254.869995	-46.480000	855.00	0.25	-0.11	12.50	13.25	3.75	7.50	0.00	0.50	1.25	0.00	0.00	0.00	0.00	0.00	0.00	0.00	0.00	0.00	-0.205566	0.200195	1.138184	22.610001	102.059998	-18.969999	400.00	-0.34	-0.04
1.86	0.00	0.00	0.00	0.00	0.00	0.50	0.00	3.50	4.50	9.25	13.25	13.00	8.25	15.75	7.00	7.00	-0.748047	0.380371	1.210938	6.860000	269.640015	-54.740002	807.00	0.26	-0.10	13.50	14.50	4.75	8.75	0.25	0.75	1.25	0.25	0.00	0.00	0.00	0.00	0.00	0.00	0.00	0.00	-0.169434	0.291504	1.202148	22.540001	103.320000	-16.520000	456.00	-0.34	-0.05
1.87	0.00	0.00	0.00	0.00	0.00	0.25	0.00	3.25	4.00	8.50	12.25	11.50	7.00	15.50	6.75	7.00	-0.851074	0.457031	1.331055	5.810000	279.510010	-61.110001	745.00	0.26	-0.10	15.00	15.50	6.00	9.50	0.75	1.50	1.25	0.50	0.00	0.00	0.00	0.00	0.00	0.00	0.25	0.00	-0.196289	0.417480	1.233398	12.880000	98.209999	-14.700000	523.00	-0.33	-0.05
1.88	0.00	0.00	0.00	0.00	0.00	0.00	0.00	2.50	2.50	8.00	11.00	10.25	5.75	15.00	6.50	6.50	-0.953613	0.477539	1.403809	13.230000	290.360016	-69.580002	659.00	0.27	-0.10	15.75	16.50	6.75	10.25	0.50	2.25	1.25	0.50	0.00	0.00	0.00	0.00	0.00	0.00	0.25	0.00	-0.196777	0.389648	1.088867	-5.320000	85.470001	-7.700000	562.00	-0.33	-0.06
1.89	0.00	0.00	0.00	0.00	0.00	0.00	0.00	2.00	2.00	6.75	9.75	9.00	5.25	14.00	6.25	5.75	-1.166016	0.509277	1.559082	24.010000	296.730011	-76.440002	586.00	0.27	-0.09	16.75	17.50	7.50	11.00	0.75	3.25	1.50	0.75	0.00	0.00	0.00	0.00	0.25	0.00	0.25	0.00	-0.196289	0.287598	1.067871	-22.610001	72.379997	0.350000	621.00	-0.32	-0.06
1.90	0.00	0.00	0.00	0.00	0.00	0.00	0.00	1.50	0.75	6.00	8.50	7.75	3.75	13.00	5.50	5.25	-0.958008	0.556641	1.663574	43.820000	302.610016	-83.440002	496.00	0.28	-0.09	18.00	18.25	8.00	11.75	0.75	4.00	1.50	1.50	0.00	0.00	0.00	0.00	0.50	0.00	0.25	0.25	-0.187500	0.200684	1.082520	-30.450001	60.830002	3.080000	678.00	-0.31	-0.07
1.91	0.00	0.00	0.00	0.00	0.00	0.00	0.00	0.75	0.50	5.00	7.75	6.50	2.75	11.25	5.00	4.75	-0.977051	0.638184	1.661621	60.970001	310.100006	-89.250000	418.00	0.29	-0.08	18.50	18.75	8.50	12.25	1.00	5.00	1.50	1.75	0.00	0.00	0.00	0.00	0.75	0.00	0.25	0.00	-0.194824	0.218750	1.100586	-31.150000	49.490002	3.220000	717.00	-0.31	-0.07
1.92	0.00	0.00	0.00	0.00	0.00	0.00	0.00	0.50	0.25	4.25	6.75	5.75	1.75	9.50	3.75	3.75	-1.037109	0.583496	1.870605	88.129997	315.559998	-93.870003	342.00	0.29	-0.08	19.50	19.25	9.00	12.75	1.25	6.00	1.75	2.25	0.00	0.00	0.00	0.25	1.00	0.50	0.25	0.25	-0.206543	0.197266	1.047852	-26.880001	38.920002	4.410000	779.00	-0.29	-0.08
1.93	0.00	0.00	0.00	0.00	0.00	0.00	0.00	0.25	0.00	3.25	5.25	4.75	1.00	8.00	2.50	3.25	-0.816406	0.677246	1.648438	105.699997	304.149994	-101.220001	264.00	0.29	-0.08	20.00	19.75	9.25	13.25	1.50	7.25	1.75	2.75	0.00	0.00	0.25	0.00	1.25	0.25	0.25	0.25	-0.202637	0.159180	1.062988	-22.820000	29.540001	4.970000	821.00	-0.29	-0.08
1.94	0.00	0.00	0.00	0.00	0.00	0.25	0.00	0.00	0.25	3.00	5.25	3.75	0.75	6.25	1.75	3.00	-0.726074	0.395020	1.445801	135.729996	297.429993	-111.440002	226.00	0.29	-0.07	20.50	20.25	9.75	13.50	1.50	7.50	1.75	3.25	0.25	0.00	0.00	0.25	1.50	0.50	0.25	0.50	-0.195801	0.172852	1.044434	-18.480000	21.840000	4.480000	858.00	-0.28	-0.08
1.95	0.00	0.00	0.00	0.00	0.00	0.00	0.00	0.00	0.00	2.50	4.50	3.00	0.50	4.50	0.75	2.75	-0.290039	0.437988	1.349609	211.539993	275.660004	-140.350006	170.00	0.29	-0.08	21.25	20.75	10.00	14.00	1.75	8.00	1.75	4.00	0.25	0.25	0.25	0.25	1.25	0.50	0.25	0.50	-0.187012	0.175293	1.002930	-15.470000	16.379999	4.340000	901.00	-0.28	-0.09
1.96	0.00	0.00	0.00	0.00	0.00	0.00	0.25	0.00	0.00	2.25	4.50	3.25	0.25	2.00	0.50	2.50	-0.291504	0.158203	1.202148	234.639999	273.070007	-158.550003	147.00	0.26	-0.11	21.75	21.25	10.50	14.50	2.00	8.50	2.00	4.75	0.00	0.00	0.25	0.00	2.00	0.25	0.25	0.50	-0.186523	0.167969	1.012695	-14.070000	13.370000	4.480000	941.00	-0.27	-0.09
1.97	0.00	0.00	0.00	0.00	0.00	0.00	0.25	0.00	0.00	2.00	4.25	2.25	0.00	0.50	0.00	2.50	0.011719	-0.134766	1.043457	216.089996	261.940002	-173.250000	111.00	0.24	-0.12	22.75	21.75	11.00	14.75	2.00	8.75	2.00	5.00	0.25	0.25	0.25	0.25	2.00	0.50	0.25	0.75	-0.183594	0.155273	0.986816	-7.350000	5.460000	4.200000	983.00	-0.27	-0.09
1.98	0.00	0.00	0.00	0.00	0.00	0.00	0.50	0.00	0.00	1.50	3.75	2.25	0.00	0.25	0.00	2.50	0.879395	-0.086914	3.341309	130.410004	202.580002	-184.800003	102.00	0.23	-0.12	23.50	22.50	11.25	15.00	2.25	9.25	2.00	5.75	0.50	0.00	0.25	0.50	2.25	0.75	0.50	0.50	-0.171387	0.163086	0.977539	-6.160000	3.430000	4.130000	1032.00	-0.26	-0.09
1.99	0.00	0.00	0.00	0.00	0.00	0.00	0.50	0.00	0.50	1.75	4.00	2.25	0.00	0.00	0.00	2.50	0.591309	1.000977	4.182129	53.970001	25.760000	-145.180008	112.00	0.23	-0.10	24.00	23.00	11.50	15.25	2.50	9.50	2.00	6.00	0.25	0.00	0.00	0.50	2.50	0.50	0.50	0.50	-0.174805	0.163086	0.980469	-5.460000	2.170000	3.780000	1051.00	-0.26	-0.10
2.00	0.00	0.00	0.00	0.00	0.00	0.00	0.50	0.00	0.00	1.75	3.75	1.50	0.00	0.25	0.25	2.50	1.306641	0.106445	2.429199	3.920000	-113.470001	-97.230003	99.00	0.24	-0.10	24.50	23.25	11.75	15.75	2.50	9.75	2.00	6.50	0.25	0.25	0.00	0.50	2.50	0.50	0.75	0.75	-0.172852	0.165527	0.971191	-4.900000	1.120000	3.430000	1083.00	-0.26	-0.10
2.01	0.00	0.00	0.00	0.00	0.00	0.00	0.50	0.00	0.00	2.00	3.50	1.50	0.00	0.00	0.00	2.25	0.639648	0.250488	1.360840	-59.570000	-176.610001	-69.370003	93.00	0.23	-0.10	24.25	23.50	12.00	16.00	2.75	10.00	2.00	6.50	0.50	0.25	0.25	0.50	2.75	0.75	0.50	0.75	-0.168945	0.166016	0.967285	-5.040000	0.770000	3.150000	1102.00	-0.26	-0.10
2.02	0.00	0.00	0.00	0.00	0.00	0.00	0.50	0.00	0.00	1.75	3.75	0.75	0.00	0.00	0.00	2.25	0.458496	0.327637	0.854492	-87.849998	-181.789993	-51.240002	85.00	0.23	-0.09	25.00	23.25	12.25	16.25	3.00	10.50	2.00	7.00	0.50	0.00	0.25	0.50	3.00	0.75	0.50	0.75	-0.168457	0.164062	0.967773	-5.250000	0.560000	2.590000	1128.00	-0.25	-0.10
2.03	0.00	0.00	0.00	0.00	0.00	0.00	0.50	0.00	0.00	1.75	3.25	1.00	0.00	0.00	0.00	2.25	0.443359	0.452637	0.667969	-72.870003	-173.529999	-40.880001	83.00	0.23	-0.10	25.25	23.75	12.25	16.25	3.00	10.25	2.25	7.00	0.50	0.25	0.25	0.25	3.00	1.00	0.50	0.75	-0.166504	0.166992	0.960449	-5.110000	0.630000	2.240000	1138.00	-0.25	-0.10
2.04	0.00	0.00	0.00	0.00	0.00	0.00	0.50	0.00	0.00	1.75	3.25	1.25	0.00	0.00	0.00	2.25	0.391602	0.464844	0.869141	-37.590000	-178.990005	-32.759998	85.00	0.23	-0.10	25.00	24.00	12.25	16.25	3.50	10.75	2.25	7.25	0.25	0.25	0.25	0.50	3.25	0.75	0.75	0.75	-0.155273	0.168945	0.947754	-5.460000	1.260000	1.960000	1155.00	-0.25	-0.10
2.05	0.00	0.00	0.00	0.00	0.00	0.00	0.50	0.00	0.00	1.50	3.25	1.25	0.00	0.00	0.00	2.25	0.390625	0.363770	1.016113	-6.020000	-196.770004	-23.799999	83.00	0.23	-0.11	24.75	23.75	12.25	16.25	3.75	11.00	2.25	7.25	0.50	0.25	0.50	0.50	3.50	0.75	0.50	1.00	-0.156738	0.165039	0.942871	-6.090000	2.660000	1.330000	1162.00	-0.25	-0.10
2.06	0.00	0.00	0.00	0.00	0.00	0.00	0.50	0.00	0.00	1.50	3.25	1.25	0.00	0.00	0.00	2.25	0.372559	0.227051	1.166992	3.780000	-220.430008	-14.770000	83.00	0.23	-0.11	24.75	23.50	12.50	16.25	3.75	11.25	2.25	7.75	0.50	0.50	0.50	0.75	3.50	0.75	0.50	1.00	-0.155273	0.168457	0.949219	-7.350000	4.270000	0.840000	1178.00	-0.24	-0.10
2.07	0.00	0.00	0.00	0.00	0.00	0.00	0.50	0.00	0.00	1.50	3.25	1.25	0.00	0.00	0.00	2.25	0.332520	0.175781	1.160645	-2.170000	-244.860001	-8.260000	83.00	0.23	-0.11	24.25	23.25	12.50	16.00	4.50	11.25	2.50	7.75	0.75	0.75	0.50	1.00	4.00	0.75	0.75	1.00	-0.168945	0.160645	0.950684	-8.820000	5.530000	0.070000	1195.00	-0.23	-0.10
2.08	0.00	0.00	0.00	0.00	0.00	0.00	0.25	0.00	0.00	1.00	3.25	1.00	0.00	0.00	0.00	2.00	0.212402	0.165527	1.096191	-4.060000	-264.600006	-6.440000	70.00	0.24	-0.13	23.75	22.50	12.25	16.00	5.00	11.25	2.50	8.00	0.75	0.50	0.50	0.75	4.50	1.00	0.75	1.00	-0.181152	0.158691	0.939453	-10.080000	6.510000	-0.490000	1191.00	-0.23	-0.10
2.09	0.00	0.00	0.00	0.00	0.00	0.00	0.50	0.00	0.00	1.25	3.00	1.00	0.00	0.00	0.00	2.00	0.091797	0.109863	1.005371	5.390000	-277.970001	-9.660000	73.00	0.23	-0.10	23.00	22.00	12.25	15.75	5.00	11.75	2.50	8.00	1.00	1.00	0.75	1.25	5.00	1.00	0.75	1.25	-0.177734	0.163574	0.967773	-10.570000	7.350000	-1.260000	1203.00	-0.22	-0.10
2.10	0.00	0.00	0.00	0.00	0.00	0.00	0.50	0.00	0.00	1.25	2.75	1.00	0.00	0.00	0.00	2.00	0.013672	0.071289	0.982910	17.219999	-283.500000	-16.450001	71.00	0.23	-0.10	22.50	21.50	12.00	15.50	5.25	11.75	2.50	8.25	1.00	0.75	1.00	1.25	5.25	1.50	1.00	1.25	-0.183105	0.155273	0.962402	-11.060000	7.560000	-1.750000	1204.00	-0.21	-0.11
2.11	0.00	0.00	0.00	0.50	0.00	0.00	0.50	0.00	0.00	1.25	3.00	1.00	0.00	0.00	0.00	2.00	-0.059570	0.074219	1.121094	25.480000	-287.279999	-22.889999	79.00	0.19	-0.11	21.50	21.00	11.75	15.25	5.75	12.00	2.75	8.50	1.25	1.00	1.00	1.50	5.25	1.50	0.75	1.25	-0.182617	0.151367	0.977051	-11.130000	7.210000	-2.170000	1205.00	-0.21	-0.11
2.12	0.00	0.00	0.00	0.00	0.00	0.00	0.50	0.00	0.00	1.00	3.00	1.25	0.00	0.00	0.00	2.00	-0.131348	0.112305	1.172363	29.540001	-294.140015	-26.040001	74.00	0.23	-0.11	21.00	20.25	11.75	15.00	5.75	11.75	2.75	8.75	1.00	1.00	1.00	1.75	5.75	1.00	1.00	1.50	-0.185059	0.150879	0.983398	-10.640000	6.650000	-2.310000	1195.00	-0.20	-0.11
2.13	0.00	0.00	0.00	0.00	0.00	0.00	0.50	0.00	0.00	1.25	3.00	1.00	0.00	0.00	0.00	2.00	-0.208984	0.183105	1.155273	33.250000	-299.320007	-25.620001	73.00	0.23	-0.10	20.25	19.75	11.50	14.75	6.00	12.00	2.75	8.75	1.00	1.25	1.00	2.00	6.00	1.75	1.00	1.50	-0.186523	0.148926	0.972168	-10.010000	5.950000	-2.100000	1196.00	-0.19	-0.11
2.14	0.00	0.00	0.00	0.00	0.00	0.00	0.25	0.00	0.00	1.25	3.00	1.00	0.00	0.00	0.00	2.00	-0.268066	0.278809	1.154297	43.750000	-299.670013	-22.400000	70.00	0.24	-0.12	19.25	19.00	11.25	14.50	6.00	12.00	2.75	9.00	1.25	1.25	1.25	2.25	6.75	2.00	1.25	1.75	-0.186523	0.150879	0.974609	-9.450000	5.810000	-2.240000	1198.00	-0.18	-0.12
2.15	0.00	0.00	0.00	0.00	0.00	0.00	0.50	0.00	0.00	1.25	3.00	1.00	0.00	0.00	0.00	2.25	-0.375488	0.292969	1.300781	60.830002	-297.989990	-16.030001	75.00	0.23	-0.11	18.25	18.00	11.00	14.25	6.25	11.75	3.00	9.00	1.50	1.50	1.50	2.25	7.25	1.75	1.25	1.75	-0.186035	0.151367	0.973633	-8.820000	5.460000	-2.590000	1188.00	-0.17	-0.12
2.16	0.00	0.00	0.00	0.00	0.00	0.00	0.50	0.00	0.00	1.25	3.00	1.00	0.00	0.00	0.00	2.00	-0.566406	0.266113	1.541992	78.470001	-297.429993	11.480000	73.00	0.23	-0.10	17.25	17.25	10.75	14.25	6.25	11.75	3.00	9.25	1.50	1.50	1.50	2.75	7.50	2.25	1.00	1.75	-0.195801	0.148926	0.978027	-7.910000	4.970000	-2.380000	1180.00	-0.17	-0.12
2.17	0.00	0.00	0.00	0.00	0.00	0.00	0.25	0.00	0.00	1.00	3.00	1.00	0.00	0.00	0.00	2.25	-0.703613	0.297852	1.540039	72.519997	-296.239990	35.209999	68.00	0.24	-0.13	16.50	16.25	10.50	13.75	6.25	11.75	3.00	9.25	1.50	1.50	1.75	3.00	7.75	2.00	1.25	2.00	-0.197754	0.146484	0.979004	-5.740000	3.920000	-2.240000	1164.00	-0.16	-0.12
2.18	0.00	0.00	0.00	0.00	0.00	0.00	0.50	0.00	0.00	1.25	2.75	1.25	0.00	0.00	0.00	1.75	-0.811523	0.292969	1.491699	63.770000	-288.610016	60.970001	72.00	0.23	-0.10	15.25	15.75	10.25	13.50	6.25	11.50	3.00	9.50	1.75	1.75	2.00	3.25	8.00	2.50	1.25	2.00	-0.193848	0.148926	0.969238	-4.900000	3.500000	-2.170000	1160.00	-0.15	-0.12
2.19	0.00	0.00	0.00	0.00	0.00	0.00	0.50	0.00	0.00	1.25	3.00	1.00	0.00	0.00	0.00	2.00	-0.898926	0.277344	1.568848	56.840000	-276.429993	84.139999	73.00	0.23	-0.10	14.25	14.75	10.00	13.25	6.25	11.50	3.00	9.50	1.75	2.00	2.00	4.00	8.25	2.50	1.25	2.25	-0.199219	0.145996	0.970215	-4.130000	3.010000	-2.240000	1149.00	-0.14	-0.13
2.20	0.00	0.00	0.00	0.00	0.00	0.00	0.25	0.00	0.00	1.25	3.00	1.25	0.00	0.00	0.00	2.00	-0.967773	0.251465	1.780273	55.930000	-268.799988	104.160004	72.00	0.24	-0.13	13.50	14.00	9.75	13.00	6.25	11.25	3.00	9.75	1.75	2.00	2.25	4.25	8.50	2.50	1.50	2.25	-0.199219	0.151855	0.976074	-3.710000	2.590000	-2.030000	1140.00	-0.13	-0.13
2.21	0.00	0.00	0.00	0.00	0.00	0.00	0.25	0.00	0.00	1.00	2.75	1.00	0.00	0.00	0.00	2.00	-1.053711	0.146973	2.013672	58.799999	-270.970001	119.279999	64.00	0.24	-0.13	12.25	13.25	9.50	12.75	6.25	11.50	3.00	9.75	2.00	2.00	2.50	4.50	8.75	2.75	1.50	2.50	-0.194824	0.144043	0.964844	-3.500000	2.030000	-2.240000	1132.00	-0.12	-0.13
2.22	0.00	0.25	0.00	0.00	0.00	0.00	0.50	0.00	0.00	1.25	2.75	1.00	0.00	0.00	0.00	2.00	-1.177246	-0.063477	1.996094	56.700001	-280.070007	127.680000	73.00	0.21	-0.10	11.75	12.50	9.50	12.50	6.00	11.25	3.00	9.75	2.50	2.25	2.75	5.00	8.75	3.00	1.50	2.25	-0.196777	0.147949	0.963867	-4.760000	1.890000	-2.520000	1129.00	-0.11	-0.13
2.23	0.00	0.00	0.00	0.00	0.00	0.00	0.50	0.00	0.00	1.00	3.00	1.00	0.00	0.00	0.00	2.00	-1.316406	-0.258789	1.923828	46.830002	-286.089996	128.169998	71.00	0.23	-0.11	10.75	11.75	9.00	12.25	6.00	11.25	3.00	9.75	2.50	2.25	2.75	5.50	9.00	3.25	1.75	2.75	-0.197754	0.150879	0.959961	-6.860000	2.030000	-2.940000	1118.00	-0.10	-0.13
2.24	0.00	0.00	0.00	0.00	0.00	0.00	0.50	0.00	0.00	1.25	2.75	0.75	0.00	0.00	0.00	2.00	-1.466797	-0.376465	1.872070	34.299999	-285.950012	121.099998	68.00	0.23	-0.09	9.75	11.25	9.00	12.00	6.25	11.00	3.00	9.75	2.50	2.75	3.00	6.25	9.00	3.50	1.75	2.75	-0.198730	0.145996	0.957031	-9.030000	1.680000	-3.500000	1119.00	-0.09	-0.14
2.25	0.00	0.00	0.00	0.00	0.00	0.00	0.25	0.00	0.00	1.25	2.75	1.00	0.00	0.00	0.00	2.00	-1.627441	-0.419922	1.810059	23.450001	-281.679993	109.620003	67.00	0.24	-0.12	9.25	10.50	8.75	11.75	6.25	11.00	3.25	10.00	2.75	3.00	3.50	6.50	9.25	4.00	1.75	2.75	-0.189941	0.155762	0.960938	-11.340000	1.330000	-4.130000	1129.00	-0.08	-0.13
2.26	0.00	0.00	0.00	0.00	0.00	0.00	0.25	0.00	0.00	1.00	2.75	1.00	0.00	0.00	0.00	2.00	-1.784668	-0.442871	1.696289	14.630000	-274.119995	96.110001	64.00	0.24	-0.13	9.25	10.00	8.75	11.50	6.25	10.75	3.25	9.75	2.75	3.25	3.50	7.50	9.50	4.00	2.00	3.00	-0.203125	0.144531	0.948730	-12.880000	0.910000	-4.900000	1134.00	-0.07	-0.13
2.27	0.00	0.00	0.00	0.00	0.00	0.00	0.50	0.00	0.00	1.00	2.75	1.25	0.00	0.00	0.00	2.00	-1.913574	-0.430664	1.543945	7.210000	-262.429993	80.709999	71.00	0.23	-0.11	8.75	9.50	8.50	11.25	6.75	10.75	3.25	9.75	3.25	3.50	3.75	7.75	9.75	4.50	2.00	3.00	-0.205078	0.136719	0.955078	-14.350000	0.560000	-5.460000	1145.00	-0.06	-0.13
2.28	0.00	0.00	0.00	0.00	0.00	0.00	0.50	0.00	0.00	1.00	2.75	1.00	0.00	0.00	0.00	2.00	-1.987793	-0.340332	1.351562	-1.470000	-247.309998	65.239998	68.00	0.23	-0.11	8.25	9.00	8.50	11.00	6.75	10.50	3.50	9.75	3.75	4.00	4.50	8.00	9.75	5.00	2.25	3.25	-0.202637	0.137207	0.966797	-16.100000	0.840000	-6.020000	1164.00	-0.05	-0.13
2.29	0.00	0.00	0.00	0.25	0.00	0.00	0.50	0.00	0.00	1.00	2.50	1.00	0.00	0.00	0.00	2.00	-2.033691	-0.167480	1.164062	-9.870000	-229.040009	53.760002	68.00	0.21	-0.11	8.00	8.75	8.25	10.75	7.00	10.50	3.75	9.75	3.75	4.50	5.25	8.25	10.00	5.50	2.50	3.25	-0.201660	0.132812	0.958008	-17.010000	0.770000	-6.160000	1185.00	-0.04	-0.13
2.30	0.00	0.00	0.00	0.00	0.00	0.00	0.25	0.00	0.00	1.00	2.75	1.00	0.00	0.00	0.00	2.00	-2.029297	0.018555	0.950684	-15.400000	-207.550003	48.720001	64.00	0.24	-0.13	7.75	8.50	8.25	10.50	7.25	10.50	3.75	9.75	4.25	5.25	6.00	8.50	10.00	6.00	2.50	4.00	-0.203613	0.129395	0.966797	-16.799999	0.700000	-5.950000	1213.00	-0.03	-0.12
2.31	0.00	0.00	0.00	0.00	0.00	0.00	0.25	0.00	0.00	1.00	3.00	1.00	0.00	0.00	0.00	2.00	-2.045410	0.231934	0.780273	-15.680000	-184.240005	50.259998	67.00	0.24	-0.13	7.50	8.00	8.00	10.50	7.50	10.25	4.00	9.75	4.75	6.25	7.00	8.75	10.25	6.50	3.00	4.00	-0.203125	0.129395	0.967285	-15.960000	0.700000	-5.670000	1249.00	-0.01	-0.12
2.32	0.00	0.00	0.00	0.25	0.00	0.00	0.50	0.00	0.00	1.00	2.75	1.00	0.00	0.00	0.00	2.00	-2.056641	0.327637	0.637695	-8.680000	-159.949997	57.889999	71.00	0.21	-0.11	7.25	7.75	8.00	10.00	7.75	10.25	4.25	9.75	5.50	7.25	7.75	9.00	10.50	7.00	3.00	4.50	-0.199707	0.126953	0.958496	-15.400000	1.120000	-5.320000	1285.00	-0.00	-0.11
2.33	0.00	0.00	0.00	0.00	0.00	0.00	0.25	0.00	0.00	1.00	2.75	1.00	0.00	0.00	0.00	2.00	-2.077637	0.296875	0.463867	-0.980000	-133.839996	68.529999	64.00	0.24	-0.13	7.00	7.25	7.75	9.75	7.50	10.25	4.25	9.75	6.00	7.75	8.25	9.50	10.50	7.75	3.25	4.75	-0.198730	0.128418	0.959473	-14.210000	2.310000	-5.180000	1302.00	0.01	-0.11
2.34	0.00	0.00	0.00	0.25	0.00	0.00	0.50	0.00	0.00	1.00	2.75	1.25	0.00	0.00	0.00	2.00	-2.099609	0.166504	0.339844	4.340000	-104.370003	78.400002	74.00	0.21	-0.12	6.25	6.75	7.75	9.50	7.50	10.00	4.75	10.00	6.50	8.25	8.75	9.75	11.00	8.25	3.75	5.25	-0.205078	0.124512	0.958984	-12.390000	3.920000	-5.250000	1332.00	0.02	-0.11
2.35	0.00	0.00	0.00	0.25	0.00	0.00	0.25	0.00	0.00	1.25	2.75	1.00	0.00	0.00	0.00	2.00	-2.093750	0.022949	0.301758	6.510000	-73.709999	84.070000	70.00	0.22	-0.13	6.00	6.25	7.50	9.00	7.50	10.00	4.75	10.00	7.00	9.00	9.25	10.25	11.00	8.75	3.75	5.50	-0.207031	0.115723	0.978027	-9.520000	6.020000	-5.110000	1347.00	0.03	-0.10
2.36	0.00	0.00	0.00	0.00	0.00	0.00	0.50	0.00	0.00	1.00	3.00	1.00	0.00	0.00	0.00	2.00	-2.120117	-0.126953	0.261719	6.440000	-44.590000	84.910004	71.00	0.23	-0.11	5.25	5.50	7.00	8.50	7.25	9.75	5.00	10.25	7.75	9.25	9.75	10.75	11.50	9.25	4.50	5.75	-0.210449	0.128906	0.978027	-6.650000	8.260000	-5.040000	1364.00	0.05	-0.10
2.37	0.00	0.00	0.00	0.00	0.00	0.00	0.25	0.00	0.00	1.00	2.75	1.00	0.00	0.00	0.00	2.00	-5.123047	0.034668	-0.113770	-0.000000	9.310000	66.779999	64.00	0.24	-0.13	4.75	5.00	6.25	8.00	7.00	9.50	5.00	10.25	8.00	9.75	10.25	11.25	11.75	10.00	5.25	6.00	-0.227051	0.117676	0.988281	-2.030000	13.790000	-5.180000	1372.00	0.06	-0.10
2.38	0.00	0.00	0.00	0.00	0.00	0.00	0.50	0.00	0.00	1.25	2.25	0.75	0.00	0.00	0.00	2.00	-3.038574	-0.530762	-1.145020	11.760000	92.750000	40.180000	63.00	0.23	-0.09	3.75	4.50	6.00	7.75	6.50	9.25	5.00	10.25	8.50	10.50	10.75	11.75	12.00	10.75	5.50	6.50	-0.225098	0.125488	0.981445	0.210000	17.219999	-5.040000	1382.00	0.07	-0.10
2.39	0.25	0.50	0.00	0.00	0.00	0.00	0.25	0.00	0.00	1.00	2.50	0.75	0.00	0.00	0.00	1.75	-0.525879	-0.538574	0.919922	5.460000	172.899994	-3.010000	65.00	0.17	-0.11	3.25	3.50	5.25	6.75	6.00	9.00	5.25	10.25	9.00	11.00	11.50	12.25	12.25	11.75	5.75	6.75	-0.222168	0.129883	0.986816	2.800000	21.420000	-5.250000	1383.00	0.09	-0.10
2.40	1.00	1.50	0.00	0.50	0.00	0.00	0.25	0.00	0.00	0.75	2.75	0.75	0.00	0.00	0.00	2.00	0.350586	0.366211	2.348145	-31.780001	165.830002	-24.430000	89.00	0.03	-0.11	2.25	2.75	4.50	6.25	5.00	8.50	5.25	10.00	9.50	11.50	12.00	12.75	12.75	12.75	6.25	7.00	-0.212891	0.128906	0.994141	5.530000	25.900000	-5.740000	1374.00	0.11	-0.10
2.41	1.50	2.75	0.25	0.75	0.00	0.00	0.25	0.00	0.00	0.75	2.75	0.75	0.00	0.00	0.00	2.00	0.427734	0.695312	0.847168	-22.469999	120.750000	-23.590000	111.00	-0.05	-0.11	2.00	2.25	3.50	5.50	4.25	8.25	5.00	10.00	9.75	12.00	12.50	13.25	13.00	13.75	6.75	7.25	-0.240234	0.131836	0.993652	8.820000	31.710001	-6.650000	1369.00	0.13	-0.10
2.42	2.25	3.75	0.50	0.75	0.00	0.00	0.25	0.00	0.00	0.75	2.50	0.75	0.00	0.00	0.00	2.00	-0.278320	0.138672	0.561523	-29.049999	141.680008	-27.090000	128.00	-0.11	-0.09	1.25	1.75	2.50	5.00	3.00	7.50	5.00	9.75	10.50	12.50	13.25	13.75	13.25	14.75	7.25	7.50	-0.244629	0.137207	0.987305	10.920000	38.639999	-7.840000	1359.00	0.15	-0.10
2.43	2.75	5.00	0.75	1.00	0.00	0.00	0.25	0.00	0.00	0.75	2.50	0.75	0.00	0.00	0.00	2.00	-0.041992	0.391602	1.277832	-24.290001	169.259995	-21.139999	150.00	-0.15	-0.09	0.75	1.00	2.00	4.25	2.00	6.75	5.00	9.75	10.75	12.75	13.75	14.25	13.25	15.75	7.50	7.75	-0.246582	0.161621	0.983887	14.420000	46.619999	-9.730000	1343.00	0.16	-0.10
2.44	4.50	7.00	0.75	1.75	0.00	0.00	0.25	0.00	0.00	0.75	2.50	1.00	0.00	0.00	0.00	2.00	0.054199	0.284668	1.920898	-9.520000	159.180008	-10.920000	198.00	-0.20	-0.09	0.50	0.75	1.50	3.50	1.25	5.75	5.00	9.25	11.25	13.50	14.25	14.75	13.50	17.00	7.75	8.00	-0.261230	0.139648	0.980957	20.510000	56.279999	-10.990000	1340.00	0.18	-0.09
2.45	5.75	8.75	1.50	2.00	0.00	0.00	0.25	0.00	0.00	0.50	2.50	0.75	0.00	0.00	0.00	2.00	-0.202148	-0.037598	1.236816	0.490000	149.029999	-10.360000	233.00	-0.24	-0.08	0.25	0.50	1.00	2.50	0.75	5.00	4.75	9.00	11.50	13.75	14.75	15.25	13.75	17.75	8.00	8.25	-0.291992	0.112793	1.051270	27.510000	68.809998	-11.200000	1326.00	0.19	-0.09
2.46	8.00	10.75	2.00	2.75	0.00	0.00	0.25	0.00	0.00	0.50	2.50	1.00	0.00	0.00	0.00	2.00	-0.262207	0.133789	1.221191	4.900000	151.759995	-18.410000	291.00	-0.26	-0.07	0.00	0.00	0.75	2.50	0.75	4.00	4.25	8.50	11.75	14.00	15.00	15.25	13.75	18.75	8.25	8.50	-0.297852	0.136230	1.011230	35.279999	84.629997	-11.830000	1311.00	0.20	-0.09
2.47	9.50	13.25	2.50	3.75	0.25	0.50	0.25	0.00	0.00	0.75	2.50	1.00	0.00	0.00	0.00	1.75	-0.208496	0.388184	1.167480	11.830000	154.559998	-19.389999	355.00	-0.27	-0.07	0.00	0.00	0.50	1.00	0.25	2.75	4.00	8.00	12.00	14.25	15.25	15.50	13.50	19.50	8.75	8.50	-0.295410	0.125977	1.045898	37.310001	104.860001	-10.570000	1282.00	0.22	-0.08
2.48	11.50	15.25	3.75	5.00	0.50	0.50	0.50	0.00	0.00	0.50	2.75	1.00	0.00	0.00	0.00	2.00	-0.257324	0.267090	1.287598	9.380000	160.649994	-15.750000	430.00	-0.28	-0.06	0.00	0.00	0.50	1.50	0.25	2.50	3.50	7.50	12.00	14.50	15.25	15.75	13.25	20.00	8.75	8.50	-0.239258	0.084473	0.736816	49.630001	118.440002	-11.620000	1277.00	0.22	-0.08
2.49	13.00	17.50	4.75	5.75	0.75	1.00	0.50	0.25	0.00	0.75	2.50	1.00	0.00	0.00	0.00	2.00	-0.289551	0.203125	1.457520	7.700000	158.759995	-9.660000	498.00	-0.29	-0.07	0.00	0.00	0.25	1.25	0.25	1.25	3.25	6.50	12.00	14.25	15.50	15.50	13.00	20.75	9.00	8.50	-0.308105	0.137207	1.001953	40.740002	133.000000	-13.930000	1243.00	0.23	-0.07
2.50	14.50	18.00	5.50	6.50	1.00	1.25	0.50	0.50	0.00	0.75	2.50	1.00	0.00	0.00	0.00	2.00	-0.353027	0.157227	1.694824	-0.070000	145.039993	-6.720000	544.00	-0.29	-0.06	0.00	0.00	0.25	0.75	0.25	1.00	2.75	5.75	12.00	14.25	15.50	15.50	12.75	21.25	9.00	8.50	-0.354004	0.168945	1.012695	31.010000	153.649994	-15.820000	1218.00	0.24	-0.07
2.51	15.25	19.25	6.75	8.00	1.25	2.00	0.50	0.75	0.00	0.75	2.75	1.00	0.00	0.25	0.00	2.25	-0.308105	0.207520	1.463867	-17.850000	121.029999	-5.460000	614.00	-0.28	-0.07	0.00	0.00	0.00	0.75	0.00	1.00	2.50	5.00	11.75	14.25	15.25	15.25	12.25	21.75	9.00	8.25	-0.385254	0.195312	1.031738	23.799999	172.759995	-18.900000	1187.00	0.25	-0.07
2.52	16.25	19.75	7.25	8.75	1.50	3.00	0.50	1.00	0.00	1.00	2.75	1.00	0.25	0.25	0.00	2.25	-0.253906	0.229004	1.286133	-32.970001	97.440002	-1.050000	665.00	-0.27	-0.07	0.00	0.00	0.00	0.25	0.00	0.50	2.25	4.25	11.50	14.25	15.00	15.00	11.75	21.75	9.00	8.25	-0.383789	0.163086	1.004883	17.570000	186.339996	-20.719999	1148.00	0.25	-0.06
2.53	16.75	20.75	7.50	9.75	1.75	3.75	0.75	1.50	0.00	0.75	2.50	1.50	0.00	0.75	0.00	2.25	-0.248535	0.118652	1.130371	-42.000000	76.580002	2.170000	718.00	-0.27	-0.08	0.00	0.00	0.00	0.00	0.00	0.00	2.00	3.50	11.25	14.00	14.75	14.75	11.25	21.75	9.00	8.00	-0.434082	0.187500	0.978027	7.840000	200.759995	-23.030001	1108.00	0.26	-0.06
2.54	17.25	20.75	8.25	10.00	2.00	4.25	0.75	1.75	0.00	1.00	2.75	1.25	0.50	0.50	0.00	2.50	-0.186035	0.112793	1.045410	-41.860001	61.950001	2.170000	752.00	-0.26	-0.08	0.00	0.00	0.00	0.00	0.00	0.25	1.75	3.00	11.25	14.00	14.50	14.25	10.50	21.75	8.75	8.00	-0.510254	0.208984	1.005859	-1.540000	215.600006	-25.760000	1082.00	0.26	-0.05
2.55	17.75	21.75	8.75	10.75	2.25	5.50	1.00	2.00	0.00	1.00	3.00	1.25	0.75	1.00	0.00	2.50	-0.257324	0.012207	1.077148	-32.200001	41.299999	1.820000	813.00	-0.25	-0.08	0.00	0.00	0.00	0.00	0.00	0.00	1.50	2.50	10.75	13.75	14.00	13.50	9.75	21.50	8.75	7.75	-0.558105	0.234863	1.042969	-2.730000	232.470001	-29.190001	1036.00	0.27	-0.05
2.56	18.50	22.75	9.00	11.75	2.25	6.50	1.00	2.50	0.50	1.25	3.00	1.25	0.75	1.00	0.00	2.25	-0.225098	0.131836	1.005859	-20.230000	23.309999	1.190000	870.00	-0.25	-0.08	0.00	0.00	0.00	0.00	0.00	0.00	1.50	2.25	10.25	13.25	13.50	13.00	9.00	21.00	8.75	7.75	-0.576660	0.209473	1.025879	-4.480000	247.660004	-31.430000	999.00	0.27	-0.04
2.57	20.00	23.50	9.50	12.50	2.75	7.00	1.00	3.25	0.00	1.50	3.00	1.25	1.00	1.25	0.00	2.25	-0.220703	0.082031	0.996582	-11.900000	16.100000	0.980000	929.00	-0.25	-0.09	0.00	0.00	0.00	0.00	0.00	0.00	1.25	1.75	9.50	12.75	12.75	12.00	8.25	20.50	8.50	7.50	-0.894043	0.273926	1.061035	-9.590000	269.779999	-42.070000	939.00	0.27	-0.04
2.58	20.50	24.25	10.00	13.25	3.00	7.50	1.00	4.00	0.00	1.50	3.25	1.25	1.00	1.00	0.00	2.50	-0.194824	0.114746	0.976074	-2.940000	12.320000	-0.840000	977.00	-0.25	-0.09	0.00	0.00	0.00	0.00	0.00	0.00	1.25	1.50	8.75	12.00	12.00	11.25	7.75	20.00	8.50	7.25	-0.683105	0.265137	1.420410	-8.330000	277.970001	-47.670002	892.00	0.28	-0.04
2.59	21.25	25.00	10.75	13.50	3.75	7.75	1.25	4.50	0.25	1.50	3.00	1.50	1.25	1.50	0.00	2.50	-0.183594	0.119141	0.979004	-1.470000	10.850000	-0.980000	1034.00	-0.24	-0.09	0.00	0.00	0.00	0.00	0.00	0.00	1.00	1.50	7.75	11.25	11.00	10.50	6.75	19.00	8.25	7.00	-0.913086	0.321289	1.491699	-0.350000	286.230011	-52.009998	828.00	0.28	-0.04
2.60	21.50	26.00	11.00	14.25	4.25	8.50	1.25	5.00	0.25	1.75	3.25	1.50	1.25	1.25	0.00	2.75	-0.191895	0.127930	0.959473	-0.420000	9.240000	-1.120000	1083.00	-0.24	-0.09	0.00	0.00	0.00	0.00	0.00	0.00	1.00	1.00	6.50	10.00	9.50	9.50	5.75	18.00	8.25	6.75	-1.055176	0.577148	1.379395	11.970000	287.769989	-58.939999	746.00	0.28	-0.04
2.61	22.50	26.25	11.50	15.25	4.75	8.75	1.25	5.50	0.25	1.75	3.25	1.50	1.50	1.75	0.00	2.50	-0.183105	0.132812	0.966797	-0.140000	8.470000	-1.260000	1133.00	-0.24	-0.09	0.00	0.00	0.00	0.00	0.00	0.00	1.00	0.75	5.25	8.75	8.50	8.25	4.75	16.50	7.75	5.75	-1.126953	0.294922	1.816406	21.000000	292.459991	-65.099998	657.00	0.29	-0.03
2.62	23.50	27.00	12.00	15.50	5.25	9.25	1.25	5.50	0.50	1.75	3.50	1.75	1.50	1.75	0.00	2.50	-0.177246	0.113770	0.980957	-0.070000	7.980000	-1.400000	1178.00	-0.23	-0.09	0.00	0.00	0.00	0.00	0.00	0.00	1.00	0.25	4.00	7.75	7.25	7.50	3.50	14.50	7.00	5.00	-1.177246	0.514648	1.552246	24.920000	293.019989	-69.510002	562.00	0.29	-0.03
2.63	23.00	27.25	12.25	16.00	6.00	9.75	1.50	5.75	0.75	1.75	3.50	1.75	1.75	2.00	0.50	2.25	-0.184570	0.111328	0.962891	0.350000	7.350000	-1.890000	1216.00	-0.23	-0.09	0.00	0.00	0.00	0.00	0.00	0.00	1.00	0.25	2.75	6.50	5.50	5.75	2.25	12.00	6.25	4.00	-1.000488	0.549316	1.720215	45.009998	295.049988	-79.309998	450.00	0.29	-0.03
2.64	23.75	27.50	12.50	16.25	6.50	9.75	1.50	6.25	0.50	2.00	3.25	1.50	2.00	2.25	0.25	2.50	-0.195312	0.117676	0.971680	0.840000	7.070000	-2.170000	1242.00	-0.23	-0.09	0.00	0.00	0.00	0.00	0.00	0.00	1.00	0.00	2.00	5.00	4.00	4.25	1.75	9.75	5.50	2.75	-0.918945	0.645020	1.552246	59.010002	294.559998	-84.699997	351.00	0.30	-0.02
2.65	24.00	28.00	12.75	16.75	6.50	10.75	1.50	6.25	0.25	1.75	3.25	1.75	2.25	2.00	0.25	2.75	-0.183594	0.115723	0.957520	1.120000	7.070000	-2.310000	1266.00	-0.23	-0.10	0.00	0.00	0.00	0.00	0.00	0.00	1.00	0.00	1.00	3.75	3.25	2.50	1.25	8.00	4.50	2.00	-0.671875	0.843262	1.087402	89.389999	297.989990	-91.489998	265.00	0.30	-0.01
2.66	24.25	28.25	13.25	17.00	7.00	11.25	1.50	6.75	0.50	1.75	3.25	1.75	2.25	2.25	0.25	2.50	-0.174316	0.120605	0.961426	1.610000	6.790000	-2.240000	1302.00	-0.23	-0.10	0.00	0.00	0.00	0.00	0.00	0.00	1.00	0.00	1.00	2.75	2.25	1.75	0.75	6.25	3.00	1.50	-0.850098	0.535156	1.687012	120.680000	292.600006	-101.919998	198.00	0.30	0.01
2.67	24.00	27.75	13.50	17.25	7.25	11.50	1.50	6.75	0.75	2.00	3.25	1.75	2.50	2.25	0.25	2.75	-0.178711	0.120117	0.954102	1.960000	7.140000	-2.590000	1315.00	-0.22	-0.10	0.00	0.00	0.00	0.00	0.00	0.00	1.00	0.00	0.50	2.00	1.75	1.00	0.50	4.25	2.25	0.75	-0.638184	0.633789	1.542480	167.300003	287.279999	-115.779999	140.00	0.29	0.02
2.68	24.00	27.50	13.25	17.25	7.50	12.00	1.75	7.00	0.75	2.00	3.50	2.00	3.00	2.75	0.25	2.75	-0.174316	0.121582	0.954102	1.750000	7.980000	-2.940000	1340.00	-0.21	-0.10	0.00	0.00	0.00	0.00	0.00	0.00	1.25	0.00	0.25	1.25	1.50	1.00	0.25	2.00	1.25	0.75	-0.233398	0.410645	1.436035	207.619995	286.089996	-132.720001	98.00	0.26	0.01
2.69	23.75	27.25	13.50	17.00	7.75	12.25	1.75	7.50	0.75	2.00	3.75	2.00	3.00	2.50	0.50	2.75	-0.166016	0.226562	0.879395	0.910000	10.150000	-3.570000	1351.00	-0.21	-0.10	0.00	0.00	0.00	0.00	0.00	0.00	1.25	0.00	0.25	1.00	1.25	1.00	0.25	1.25	1.00	0.75	0.054688	-0.008789	1.299316	222.110001	268.170013	-152.529999	84.00	0.25	0.00
2.70	23.25	26.75	13.25	17.00	8.00	12.00	2.00	7.50	1.00	2.25	3.75	2.00	3.25	2.75	0.25	2.75	-0.179199	0.127441	0.946289	-0.700000	11.410000	-3.990000	1350.00	-0.21	-0.10	0.00	0.00	0.00	0.00	0.00	0.00	1.25	0.00	0.25	1.00	1.00	0.25	0.00	1.25	1.00	0.50	3.609863	-0.229492	2.588379	152.039993	197.470001	-182.770004	70.00	0.25	0.06
2.71	22.50	26.25	12.75	16.75	8.25	12.25	2.00	7.75	0.75	2.25	3.50	2.25	3.50	3.00	0.25	2.75	-0.166992	0.132812	0.941406	-2.940000	12.600000	-4.550000	1340.00	-0.20	-0.10	0.00	0.00	0.00	0.00	0.00	0.00	1.25	0.00	0.25	1.25	1.25	0.25	0.00	0.75	0.75	0.50	0.146484	1.182617	4.581055	68.529999	14.910000	-173.389999	68.00	0.23	0.05
2.72	21.75	25.25	13.00	16.25	8.50	12.25	2.25	7.75	1.00	2.25	3.75	2.50	3.50	3.25	0.50	3.00	-0.182617	0.132812	0.957031	-5.600000	13.720000	-5.180000	1341.00	-0.19	-0.10	0.00	0.00	0.00	0.00	0.00	0.00	1.25	0.00	0.25	1.00	0.75	0.25	0.00	0.50	1.00	0.00	1.392090	-0.055176	2.718262	13.860000	-117.529999	-130.410004	58.00	0.23	0.08
2.73	21.00	24.75	12.75	16.00	8.75	12.00	2.25	8.00	1.25	2.25	3.75	2.50	4.00	3.50	0.50	3.25	-0.187012	0.124512	0.959961	-8.120000	14.350000	-5.670000	1338.00	-0.19	-0.10	0.00	0.00	0.00	0.00	0.00	0.00	1.25	0.00	0.25	0.50	0.50	0.00	0.00	0.25	0.75	0.25	0.791016	0.299316	1.330566	-41.580002	-181.300003	-102.550003	44.00	0.00	0.00
2.74	20.25	23.50	12.75	15.50	9.00	12.25	2.25	8.00	1.75	2.25	4.00	2.75	4.75	3.50	0.50	3.25	-0.206055	0.111328	0.974121	-9.730000	14.420000	-5.880000	1337.00	-0.18	-0.10	0.00	0.00	0.00	0.25	0.00	0.00	1.25	0.00	0.50	0.50	0.50	0.00	0.00	0.50	0.50	0.00	0.499512	0.374512	1.046875	-62.650002	-186.199997	-81.550003	48.00	0.00	0.00
2.75	20.00	22.25	12.25	15.00	9.25	12.00	2.75	8.25	1.25	2.50	4.00	3.00	4.75	4.00	0.50	3.25	-0.186523	0.118164	0.958984	-10.430000	14.490000	-5.880000	1326.00	-0.17	-0.10	0.00	0.00	0.00	0.00	0.00	0.00	1.25	0.00	0.00	0.50	0.50	0.00	0.00	0.25	0.50	0.25	0.558105	0.526855	0.978027	-64.190002	-178.360001	-62.930000	38.00	0.00	0.00
2.76	19.00	21.25	12.00	14.75	9.50	12.00	2.75	8.25	1.75	2.75	4.25	3.00	5.00	4.25	0.75	3.25	-0.188965	0.117676	0.960449	-10.290000	14.490000	-5.740000	1323.00	-0.16	-0.10	0.00	0.00	0.00	0.00	0.00	0.00	1.25	0.00	0.25	0.50	0.25	0.00	0.00	0.25	0.25	0.25	0.546387	0.644043	1.298340	-60.060001	-196.419998	-40.320000	36.00	0.00	0.00
2.77	18.00	20.00	12.00	14.00	9.50	11.50	2.75	8.25	2.00	2.75	4.25	3.25	5.25	4.50	0.50	3.25	-0.189453	0.111328	0.967773	-8.890000	14.770000	-4.970000	1295.00	-0.15	-0.10	0.00	0.00	0.00	0.00	0.00	0.00	1.25	0.00	0.00	0.00	0.50	0.00	0.00	0.25	0.50	0.25	0.458496	0.610840	1.227539	-52.500000	-263.760010	9.590000	33.00	0.00	0.00
2.78	17.00	19.00	11.50	13.50	9.75	11.50	2.75	8.25	1.75	3.00	4.50	3.50	5.50	4.50	0.75	3.25	-0.189453	0.111328	0.967773	-8.890000	14.770000	-4.970000	1276.00	-0.15	-0.10	0.00	0.00	0.00	0.00	0.00	0.00	1.25	0.00	0.00	0.25	0.00	0.00	0.00	0.25	0.25	0.25	0.391602	0.578613	1.049805	-45.990002	-287.630005	25.900000	28.00	0.00	0.00
2.79	16.00	17.50	11.00	12.75	9.75	11.25	3.00	8.50	2.25	3.00	4.75	3.75	5.75	4.75	0.50	3.75	-0.190430	0.100586	0.960938	-7.700000	14.910000	-4.620000	1259.00	-0.13	-0.10	0.00	0.00	0.00	0.00	0.00	0.00	1.25	0.00	0.00	0.25	0.00	0.00	0.00	0.00	0.25	0.25	0.279785	0.531738	0.938477	-27.230000	-300.369995	32.549999	26.00	0.00	0.00
2.80	15.25	16.00	11.00	12.25	9.75	11.00	3.00	8.50	2.25	3.00	4.50	4.00	5.75	5.00	0.75	4.00	-0.192383	0.104980	0.964355	-5.810000	15.330000	-3.920000	1236.00	-0.12	-0.10	0.00	0.00	0.00	0.00	0.00	0.00	1.25	0.00	0.00	0.25	0.25	0.00	0.00	0.00	0.25	0.00	0.154297	0.438477	0.950684	-1.820000	-308.000000	31.150000	27.00	0.00	0.00
2.81	14.25	15.00	10.50	11.75	9.75	11.00	3.00	8.50	2.50	3.50	5.00	4.25	6.25	5.25	1.00	4.00	-0.192871	0.106445	0.958984	-4.900000	15.470000	-3.780000	1231.00	-0.11	-0.10	0.00	0.00	0.00	0.00	0.00	0.00	1.25	0.00	0.00	0.00	0.00	0.00	0.00	0.00	0.25	0.00	0.077148	0.340820	1.072266	21.070000	-313.600006	26.110001	22.00	0.00	0.00
2.82	12.50	13.50	10.00	11.25	9.50	10.75	3.25	8.50	2.75	3.50	5.25	5.00	6.25	5.25	1.00	4.00	-0.198730	0.110352	0.966309	-4.130000	15.400000	-3.850000	1200.00	-0.10	-0.10	0.00	0.00	0.00	0.00	0.00	0.00	1.25	0.00	0.00	0.25	0.00	0.00	0.00	0.00	0.25	0.00	-0.005859	0.283691	1.248047	37.799999	-321.860016	20.160000	24.00	0.00	0.00
2.83	11.75	12.50	9.75	10.50	9.50	10.50	3.25	8.75	3.00	3.50	6.00	5.25	6.50	5.50	0.75	4.00	-0.197754	0.106934	0.956543	-3.570000	15.050000	-3.990000	1188.00	-0.09	-0.10	0.00	0.00	0.00	0.00	0.00	0.00	1.25	0.00	0.00	0.25	0.00	0.00	0.00	0.00	0.00	0.00	-0.130371	0.258789	1.359375	49.000000	-335.369995	13.930000	22.00	0.00	0.00
2.84	10.50	11.25	9.50	9.75	9.25	10.50	3.25	8.75	2.75	3.75	6.50	5.50	6.75	6.00	1.00	4.25	-0.199707	0.107910	0.958984	-3.570000	14.840000	-4.340000	1168.00	-0.07	-0.11	0.00	0.00	0.00	0.00	0.00	0.00	1.25	0.00	0.00	0.00	0.00	0.00	0.00	0.00	0.00	0.25	-0.316895	0.244629	1.253906	56.070000	-345.660004	8.890000	20.00	0.00	0.00
2.85	9.75	10.25	9.25	9.50	9.25	10.25	3.50	8.75	3.25	4.25	7.00	6.25	7.00	6.00	1.25	4.50	-0.203125	0.108398	0.950684	-3.780000	14.420000	-4.410000	1177.00	-0.06	-0.10	0.00	0.00	0.00	0.00	0.00	0.00	1.25	0.00	0.00	0.00	0.00	0.00	0.00	0.00	0.00	0.00	-0.487793	0.286621	1.149902	60.760002	-343.980011	8.540000	19.00	0.00	0.00
2.86	9.00	9.75	9.25	9.25	9.25	10.00	3.50	8.75	3.50	4.25	7.00	6.75	7.25	6.50	1.25	4.50	-0.204102	0.109863	0.953613	-3.780000	14.070000	-4.690000	1175.00	-0.05	-0.10	0.00	0.00	0.25	0.00	0.00	0.00	1.25	0.00	0.00	0.25	0.00	0.00	0.00	0.00	0.00	0.00	-0.626953	0.374023	1.153320	66.150002	-333.200012	14.770000	24.00	0.00	0.00
2.87	8.50	9.00	9.00	8.75	9.00	10.00	3.50	9.00	4.00	5.00	7.50	7.00	7.25	6.75	1.50	4.75	-0.210938	0.107422	0.949707	-3.920000	13.370000	-4.900000	1184.00	-0.04	-0.10	0.00	0.00	0.00	0.00	0.00	0.00	1.25	0.00	0.00	0.00	0.00	0.00	0.00	0.00	0.25	0.50	-0.722656	0.437012	1.335449	74.340004	-320.320007	28.280001	24.00	0.00	0.00
2.88	8.25	8.50	8.75	8.75	9.25	9.75	3.75	9.00	4.00	5.00	7.75	7.50	7.50	7.00	1.25	4.75	-0.209961	0.117676	0.963867	-4.340000	13.020000	-5.110000	1187.00	-0.03	-0.10	0.00	0.00	0.00	0.00	0.00	0.00	1.25	0.00	0.00	0.00	0.00	0.00	0.00	0.00	0.25	0.00	-0.857422	0.473145	1.435547	84.139999	-310.940002	46.340000	22.00	0.00	0.00
2.89	7.75	7.75	8.50	8.50	9.25	9.75	3.75	9.00	4.00	5.75	7.75	7.75	7.75	7.25	1.50	5.00	-0.206055	0.106934	0.946289	-4.060000	12.110000	-5.250000	1188.00	-0.02	-0.10	0.00	0.00	0.00	0.25	0.00	0.00	1.25	0.00	0.00	0.00	0.00	0.00	0.00	0.00	0.25	0.00	-0.934082	0.486328	1.413086	87.290001	-299.600006	68.110001	24.00	0.00	0.00
2.90	7.50	7.50	8.50	8.25	9.00	9.75	4.00	9.25	4.50	6.25	8.00	8.00	7.75	7.75	1.75	5.00	-0.199707	0.105469	0.944336	-3.920000	12.040000	-5.460000	1209.00	-0.01	-0.10	0.00	0.00	0.00	0.00	0.00	0.00	1.25	0.00	0.00	0.00	0.00	0.00	0.00	0.00	0.00	0.00	-0.973145	0.521484	1.455078	86.309998	-284.970001	94.080002	19.00	0.00	0.00
2.91	6.75	7.00	8.25	7.75	9.25	9.75	4.00	9.50	5.00	6.75	8.50	8.25	8.25	7.75	1.50	5.00	-0.211426	0.109375	0.962402	-3.500000	12.460000	-5.880000	1217.00	-0.00	-0.10	0.00	0.00	0.00	0.00	0.00	0.00	1.25	0.00	0.00	0.00	0.00	0.00	0.00	0.00	0.25	0.00	-0.992188	0.471191	1.612305	85.820000	-271.809998	118.160004	22.00	0.00	0.00
2.92	6.50	6.50	8.25	7.50	9.25	9.75	4.25	9.50	5.25	7.50	9.00	9.00	8.50	8.50	2.00	5.25	-0.208984	0.102051	0.947754	-2.590000	13.510000	-6.300000	1250.00	0.01	-0.10	0.00	0.00	0.00	0.00	0.00	0.00	1.25	0.00	0.00	0.00	0.00	0.00	0.00	0.00	0.00	0.00	-0.996582	0.352539	1.740234	85.120003	-264.880005	133.979996	19.00	0.00	0.00
2.93	6.25	6.25	8.00	7.25	9.25	9.75	4.50	9.75	5.50	8.00	9.25	9.25	9.00	8.75	2.00	5.50	-0.210449	0.102539	0.950684	-1.960000	14.210000	-6.510000	1269.00	0.02	-0.10	0.00	0.00	0.00	0.00	0.00	0.00	1.25	0.00	0.00	0.00	0.00	0.00	0.00	0.00	0.25	0.00	-1.103027	0.236328	1.816406	81.199997	-261.799988	140.000000	22.00	0.00	0.00
2.94	5.75	6.00	7.75	6.75	9.00	9.50	4.50	9.75	6.25	8.25	9.75	9.75	9.25	9.00	2.25	5.50	-0.211914	0.103027	0.961914	-1.540000	15.120000	-6.790000	1277.00	0.03	-0.10	0.00	0.00	0.00	0.00	0.00	0.00	1.25	0.00	0.00	0.00	0.00	0.00	0.00	0.00	0.00	0.00	-1.185059	0.164551	1.837402	72.029999	-258.790009	139.649994	19.00	0.00	0.00
2.95	5.25	5.75	7.25	6.50	8.75	9.50	4.75	10.00	6.50	8.50	10.25	10.25	9.50	9.50	2.25	5.75	-0.212402	0.111328	0.952148	-0.700000	15.750000	-7.000000	1290.00	0.04	-0.10	0.00	0.00	0.00	0.00	0.00	0.00	1.25	0.00	0.00	0.00	0.00	0.00	0.00	0.00	0.25	0.00	-1.270020	0.136719	1.895996	62.160000	-258.649994	137.550003	22.00	0.00	0.00
2.96	5.00	5.25	7.25	6.00	8.75	9.50	5.00	10.00	7.50	8.75	10.75	11.00	9.75	10.00	2.75	6.00	-0.211914	0.101074	0.941895	0.140000	17.080000	-7.350000	1323.00	0.05	-0.09	0.00	0.00	0.00	0.00	0.00	0.00	1.25	0.00	0.00	0.00	0.00	0.00	0.00	0.00	0.25	0.00	-1.356934	0.132324	1.881836	54.599998	-261.380005	135.309998	22.00	0.00	0.00
2.97	4.25	4.50	6.50	5.75	8.50	9.50	5.00	10.25	7.75	9.25	11.25	11.50	10.25	10.50	3.00	6.00	-0.216797	0.107422	0.957031	1.190000	18.690001	-7.700000	1329.00	0.06	-0.10	0.00	0.00	0.00	0.00	0.00	0.00	1.25	0.00	0.00	0.00	0.00	0.00	0.00	0.00	0.00	0.00	-1.535645	0.116699	1.611816	40.529999	-260.820007	134.539993	19.00	0.00	0.00
2.98	3.25	3.75	6.50	5.25	8.25	9.25	5.00	10.25	8.00	9.50	12.00	12.00	10.50	10.75	3.25	6.00	-0.227539	0.105957	0.961426	2.940000	20.510000	-8.050000	1327.00	0.07	-0.10	0.00	0.00	0.00	0.00	0.00	0.00	1.25	0.00	0.00	0.00	0.00	0.00	0.00	0.00	0.00	0.00	-1.614258	0.123047	1.481445	34.299999	-253.680008	135.520004	19.00	0.00	0.00
2.99	3.00	3.50	5.75	5.25	7.75	9.00	5.00	10.50	8.25	10.00	12.25	12.75	11.00	11.25	4.00	6.50	-0.220215	0.113281	0.956055	4.620000	22.190001	-8.260000	1347.00	0.08	-0.10	0.00	0.00	0.00	0.00	0.00	0.00	1.25	0.00	0.00	0.25	0.00	0.00	0.00	0.00	0.00	0.00	-1.671875	0.107910	1.338379	31.360001	-243.320007	136.009995	22.00	0.00	0.00
3.00	2.50	3.25	5.00	5.00	7.50	9.00	5.00	10.75	8.75	10.50	13.00	13.50	11.50	12.00	4.50	7.00	-0.243164	0.117188	0.957520	6.440000	24.360001	-8.540000	1376.00	0.10	-0.10	0.00	0.00	0.00	0.00	0.00	0.00	1.25	0.00	0.00	0.00	0.00	0.00	0.00	0.00	0.25	0.00	-1.741211	0.071777	1.183594	27.719999	-229.040009	136.149994	22.00	0.00	0.00
3.01	2.25	2.75	4.25	4.75	6.50	8.75	5.00	10.75	9.00	10.75	13.75	14.25	12.00	13.00	5.25	7.00	-0.227051	0.109863	0.968750	10.920000	29.540001	-9.100000	1386.00	0.11	-0.10	0.00	0.00	0.00	0.00	0.00	0.25	1.25	0.00	0.00	0.00	0.00	0.00	0.00	0.00	0.00	0.00	-1.799805	0.081543	1.023926	20.160000	-210.839996	136.289993	22.00	0.00	0.00
3.02	1.75	2.25	3.50	4.00	5.75	8.50	5.00	10.75	9.25	11.00	14.25	15.00	12.50	13.50	5.75	7.25	-0.239258	0.122559	0.976074	13.650000	33.740002	-9.590000	1383.00	0.13	-0.11	0.00	0.00	0.00	0.00	0.00	0.00	1.25	0.00	0.00	0.00	0.00	0.00	0.00	0.00	0.00	0.00	-1.851562	0.143066	0.862793	13.300000	-189.699997	137.830002	19.00	0.00	0.00
3.03	1.00	1.75	2.75	3.25	4.75	8.00	4.75	10.50	9.50	11.50	15.00	15.50	13.00	14.00	6.25	7.50	-0.236816	0.123047	0.970703	16.309999	38.360001	-10.290000	1367.00	0.14	-0.11	0.00	0.00	0.00	0.00	0.00	0.00	1.25	0.00	0.00	0.00	0.00	0.00	0.00	0.00	0.00	0.00	-1.893555	0.174316	0.738281	10.080000	-165.970001	140.350006	19.00	0.00	0.00
3.04	0.75	1.75	1.50	4.00	3.00	7.50	4.25	10.50	10.00	12.00	15.50	16.50	13.25	15.00	6.50	8.00	-0.241699	0.128906	0.982910	19.389999	43.889999	-11.270000	1370.00	0.15	-0.11	0.00	0.00	0.00	0.00	0.00	0.00	1.25	0.00	0.00	0.00	0.00	0.00	0.00	0.00	0.00	0.00	-1.921875	0.182617	0.684082	10.430000	-141.330002	142.589996	19.00	0.00	0.00
3.05	1.00	1.75	1.75	2.75	2.25	7.00	4.00	10.00	10.00	12.25	16.00	17.00	13.50	15.75	7.50	8.25	-0.263184	0.128906	0.979004	22.960001	50.119999	-13.510000	1370.00	0.17	-0.11	0.00	0.00	0.00	0.00	0.00	0.00	1.25	0.00	0.00	0.00	0.00	0.00	0.00	0.00	0.50	0.00	-1.939453	0.127441	0.656250	13.440001	-118.440002	143.220001	24.00	0.00	0.00
3.06	0.50	0.75	1.00	2.25	1.25	6.25	3.50	9.75	10.00	12.50	16.75	17.50	14.00	16.50	7.50	8.50	-0.256348	0.159180	0.975586	26.670000	58.869999	-14.840000	1339.00	0.18	-0.11	0.00	0.00	0.00	0.00	0.00	0.00	1.25	0.00	0.00	0.00	0.00	0.00	0.00	0.00	0.25	0.00	-1.987793	0.047363	0.548340	15.400000	-96.389999	142.309998	22.00	0.00	0.00
3.07	0.00	0.00	0.75	1.75	1.25	5.50	3.00	9.25	10.25	12.75	17.25	18.00	14.25	17.25	7.75	8.75	-0.286621	0.161621	0.981445	31.780001	70.139999	-16.170000	1325.00	0.20	-0.11	0.00	0.00	0.00	0.00	0.00	0.00	1.25	0.00	0.00	0.00	0.00	0.00	0.00	0.00	0.00	0.00	-2.070801	-0.075195	0.409668	16.379999	-71.190002	139.160004	19.00	0.00	0.00
3.08	0.25	0.25	0.50	1.75	0.75	5.25	2.50	8.75	10.25	13.00	17.50	18.50	14.25	18.25	8.00	9.00	-0.273926	0.153809	0.974121	37.310001	83.720001	-16.170000	1326.00	0.20	-0.11	0.00	0.00	0.00	0.00	0.00	0.00	1.25	0.00	0.00	0.00	0.00	0.00	0.00	0.00	0.00	0.00	-2.210449	-0.180176	0.329102	16.030001	-43.049999	131.600006	19.00	0.00	0.00
3.09	0.00	0.75	0.25	1.50	0.50	4.50	2.25	8.25	10.50	13.25	17.75	18.75	14.00	18.75	8.50	9.00	-0.321289	0.163574	0.970215	41.509998	97.370003	-17.150000	1319.00	0.21	-0.11	0.00	0.00	0.00	0.00	0.00	0.00	1.25	0.00	0.00	0.00	0.00	0.00	0.00	0.00	0.00	0.00	-2.328613	-0.294922	0.269043	16.240000	-14.630000	116.550003	19.00	0.00	0.00
3.10	0.00	0.50	0.00	1.25	0.50	2.25	2.00	7.75	10.50	13.50	18.00	18.75	14.00	19.50	8.75	9.00	-0.306641	0.131348	1.019043	44.520000	111.930000	-17.850000	1289.00	0.22	-0.10	0.00	0.00	0.00	0.00	0.00	0.00	1.25	0.00	0.00	0.00	0.00	0.00	0.00	0.00	0.00	0.00	-2.336914	-0.399902	0.283691	16.379999	12.810000	94.919998	19.00	0.00	0.00
3.11	0.00	0.00	0.25	1.00	0.00	2.75	1.25	7.00	10.50	13.25	18.00	18.50	13.50	19.75	9.25	9.00	-0.345215	0.158691	0.977051	43.540001	121.099998	-18.129999	1260.00	0.23	-0.10	0.00	0.00	0.00	0.00	0.00	0.00	1.25	0.00	0.00	0.00	0.00	0.00	0.00	0.00	0.00	0.00	-2.187500	-0.479004	0.359375	12.950000	37.730000	71.750000	19.00	0.00	0.00
3.12	0.00	0.00	0.00	1.00	0.00	2.00	1.00	6.50	10.25	13.50	18.00	18.50	13.25	21.00	9.50	9.25	-0.352539	0.169434	0.960938	41.580002	130.830002	-18.900000	1249.00	0.24	-0.10	0.00	0.00	0.00	0.00	0.00	0.00	1.25	0.00	0.00	0.00	0.00	0.00	0.00	0.00	0.00	0.00	-1.938965	-0.479004	0.441406	3.920000	60.200001	50.680000	19.00	0.00	0.00
3.13	0.00	0.25	0.00	0.50	0.00	1.50	0.75	6.00	10.25	13.25	18.00	18.25	13.00	21.50	10.00	9.25	-0.407715	0.210449	0.945801	48.650002	140.559998	-19.809999	1231.00	0.24	-0.09	0.00	0.00	0.00	0.00	0.00	0.00	1.25	0.00	0.00	0.00	0.00	0.00	0.00	0.00	0.00	0.00	-1.665039	-0.341797	0.550781	-5.460000	79.099998	33.250000	19.00	0.00	0.00
3.14	0.00	0.00	0.00	0.50	0.00	1.50	0.50	5.50	10.00	13.25	17.75	17.75	12.50	22.25	10.50	9.00	-0.399414	0.149414	1.004883	43.610001	156.869995	-19.879999	1212.00	0.25	-0.09	0.50	0.50	0.25	0.50	0.00	0.00	1.25	0.00	0.00	0.00	0.00	0.00	0.00	0.00	0.00	0.00	0.714355	-0.350586	2.927734	16.870001	152.250000	12.880000	37.00	0.00	0.00
3.15	0.00	0.00	0.00	0.25	0.00	1.00	0.25	5.00	9.75	13.00	17.50	17.50	11.50	22.75	10.50	9.00	-0.443848	0.161133	0.999023	32.970001	170.029999	-19.040001	1177.00	0.26	-0.09	1.00	1.50	0.25	0.50	0.00	0.00	1.25	0.00	0.00	0.00	0.00	0.00	0.00	0.00	0.00	0.00	0.806152	-0.104492	1.521973	7.630000	81.620003	1.680000	51.00	-0.21	0.05
3.16	0.00	0.00	0.00	0.75	0.00	0.75	0.00	4.25	9.50	12.75	17.00	16.75	10.75	23.50	11.00	9.00	-0.502441	0.210449	0.981934	23.660000	183.050003	-19.670000	1151.00	0.26	-0.08	2.00	2.50	1.50	1.00	0.00	0.00	1.25	0.00	0.00	0.00	0.00	0.00	0.00	0.00	0.00	0.00	-0.148438	0.079102	-0.427246	3.640000	85.190002	-15.400000	90.00	-0.27	0.02
3.17	0.00	0.00	0.00	0.00	0.00	0.50	0.00	3.75	9.50	12.50	16.50	16.25	10.00	23.75	11.25	8.75	-0.494629	0.166504	1.020020	14.560000	198.869995	-21.629999	1116.00	0.27	-0.07	3.00	4.50	1.00	2.00	0.00	0.00	1.25	0.00	0.00	0.00	0.00	0.00	0.00	0.00	0.00	0.00	0.019531	0.365234	1.575195	4.830000	124.949997	-12.530000	125.00	-0.30	-0.02
3.18	0.00	0.00	0.00	0.00	0.00	0.25	0.00	3.25	9.50	12.50	16.00	15.50	9.25	24.50	11.00	8.75	-0.560059	0.224609	0.988281	8.610000	214.830002	-23.520000	1090.00	0.27	-0.06	4.25	5.75	1.50	2.25	0.00	0.00	1.25	0.00	0.00	0.00	0.00	0.00	0.00	0.00	0.00	0.00	0.022461	0.125000	0.714844	8.470000	114.520004	-6.300000	157.00	-0.32	-0.02
3.19	0.00	0.00	0.00	0.00	0.00	0.50	0.00	2.75	9.00	12.25	15.25	14.50	8.25	24.50	11.00	8.50	-0.554199	0.238770	1.042480	2.940000	229.529999	-27.370001	1047.00	0.28	-0.06	7.00	8.50	2.00	3.50	0.00	0.00	1.00	0.00	0.00	0.00	0.00	0.00	0.00	0.00	0.00	0.00	0.073242	0.121094	0.825195	18.270000	133.000000	-6.930000	227.00	-0.34	-0.04
3.20	0.00	0.00	0.00	0.00	0.00	0.00	0.00	2.50	8.75	12.00	15.00	13.50	7.50	24.25	11.00	8.25	-0.622559	0.295898	0.973145	0.490000	244.160004	-33.950001	1009.00	0.28	-0.05	8.75	10.25	2.00	4.75	0.00	0.00	1.00	0.00	0.00	0.00	0.00	0.00	0.00	0.00	0.00	0.00	-0.064453	0.066895	1.252930	20.160000	147.839996	-12.320000	274.00	-0.35	-0.04
3.21	0.00	0.00	0.00	0.00	0.00	0.00	0.00	2.25	8.50	11.50	14.25	12.50	6.75	24.25	10.50	8.25	-0.699219	0.298340	1.058105	-4.410000	261.519989	-42.279999	967.00	0.28	-0.05	11.00	12.50	3.00	5.50	0.00	0.00	1.00	0.00	0.00	0.00	0.00	0.00	0.00	0.00	0.00	0.00	-0.149902	0.003906	1.110352	19.809999	154.350006	-21.700001	338.00	-0.35	-0.04
3.22	0.00	0.00	0.00	0.00	0.00	0.00	0.00	2.00	8.00	11.25	13.00	11.25	6.00	23.75	10.25	8.00	-0.914062	0.403809	1.272461	-11.480000	298.200012	-60.480000	913.00	0.29	-0.04	13.75	14.25	3.75	7.50	0.00	0.00	1.00	0.00	0.00	0.00	0.00	0.00	0.00	0.00	0.00	0.00	-0.184570	0.186523	1.197266	14.700000	170.449997	-33.389999	413.00	-0.35	-0.04
3.23	0.00	0.00	0.00	0.00	0.00	0.00	0.00	1.75	7.50	10.50	12.00	10.00	5.00	23.25	9.75	7.50	-0.913086	0.342285	1.311035	-11.620000	312.549988	-71.190002	850.00	0.29	-0.03	14.75	15.75	4.50	8.25	0.00	0.00	1.00	0.00	0.00	0.00	0.00	0.00	0.00	0.00	0.00	0.00	-0.251953	0.383301	1.263672	2.380000	180.320007	-37.380001	453.00	-0.35	-0.04
3.24	0.00	0.00	0.00	0.00	0.00	0.00	0.00	1.25	6.75	9.50	11.00	9.00	4.00	22.50	9.25	7.00	-1.192871	0.392578	1.553711	-10.150000	326.899994	-81.059998	778.00	0.30	-0.03	15.75	16.50	6.00	9.00	0.25	0.75	1.25	0.00	0.00	0.00	0.00	0.00	0.00	0.00	0.00	0.00	-0.258301	0.367676	1.299316	-11.410000	200.479996	-32.130001	510.00	-0.34	-0.04
3.25	0.00	0.00	0.00	0.00	0.00	0.00	0.00	1.00	5.00	8.75	9.75	7.75	3.00	21.00	8.50	6.25	-1.139648	0.653809	1.895508	-0.840000	336.279999	-87.919998	684.00	0.30	-0.02	16.75	16.75	7.25	10.00	0.50	1.75	1.25	0.50	0.00	0.00	0.00	0.00	0.25	0.00	0.00	0.00	-0.394531	0.449219	2.052734	-55.580002	214.410004	-24.430000	571.00	-0.33	-0.05
3.26	0.00	0.00	0.00	0.00	0.00	0.00	0.00	0.75	3.75	7.75	8.75	6.50	1.50	19.25	7.50	5.75	-1.062500	0.689453	1.788086	18.830000	342.299988	-95.129997	588.00	0.31	-0.02	17.25	17.25	8.00	10.50	0.75	3.00	1.50	1.00	0.00	0.00	0.00	0.00	0.50	0.00	0.25	0.00	-0.384766	0.351074	1.678223	-93.309998	175.910004	-8.540000	628.00	-0.31	-0.06
3.27	0.00	0.00	0.00	0.00	0.00	0.00	0.00	0.00	2.50	6.75	7.50	5.50	1.50	16.75	6.50	5.00	-0.942871	0.534180	1.936523	45.360001	339.709991	-101.779999	491.00	0.31	-0.02	17.50	17.25	8.50	11.25	1.25	4.00	1.75	1.50	0.00	0.25	0.00	0.00	0.75	0.25	0.00	0.00	-0.354980	0.132812	1.421387	-103.180000	130.270004	1.330000	676.00	-0.30	-0.06
3.28	0.00	0.00	0.00	0.00	0.00	0.00	0.00	0.00	1.50	5.50	6.50	4.50	1.00	14.00	5.25	4.25	-0.775391	0.735840	1.736328	69.230003	336.769989	-107.800003	399.00	0.31	-0.02	17.75	17.00	9.00	11.25	1.50	4.50	2.00	2.25	0.25	0.50	0.25	0.25	1.00	0.50	0.25	0.25	-0.355957	0.027832	1.726074	-79.590004	75.250000	3.360000	725.00	-0.28	-0.06
3.29	0.00	0.00	0.00	0.00	0.00	0.00	0.00	0.00	1.25	4.25	5.50	3.50	0.50	12.00	4.25	3.50	-0.409180	0.555664	1.464844	96.529999	326.410004	-115.430000	325.00	0.32	-0.01	17.75	17.50	9.50	12.00	2.00	5.25	2.00	3.00	0.25	0.75	0.00	0.50	1.50	0.75	0.50	0.25	-0.263672	0.017578	1.098633	-30.100000	31.780001	1.260000	780.00	-0.26	-0.07
3.30	0.00	0.00	0.00	0.00	0.00	0.00	0.25	0.00	0.50	3.50	5.00	3.00	0.25	9.25	2.75	3.00	-0.679199	0.583984	1.532715	122.290001	313.600006	-125.860001	257.00	0.31	-0.02	18.50	17.75	9.75	12.25	2.50	6.00	2.25	3.25	0.75	0.50	0.25	0.75	2.00	1.25	0.25	0.50	-0.212402	0.168457	1.072266	-8.820000	17.850000	0.770000	833.00	-0.25	-0.07
3.31	0.00	0.00	0.00	0.00	0.00	0.00	0.25	0.00	0.50	3.50	4.75	2.25	0.00	6.25	1.75	2.75	-0.104492	0.539062	1.285645	160.300003	302.959991	-144.830002	207.00	0.30	-0.02	18.75	17.75	10.25	12.75	3.00	6.75	2.50	4.75	1.00	0.50	0.25	0.25	2.25	1.50	0.50	0.50	-0.216309	0.117188	1.053223	-3.780000	10.990000	1.890000	892.00	-0.24	-0.08
3.32	0.00	0.00	0.00	0.00	0.00	0.00	0.25	0.00	0.50	2.50	4.50	2.50	0.50	3.75	1.00	2.25	0.002930	0.344238	1.380859	179.759995	296.799988	-171.220001	169.00	0.28	-0.06	18.75	18.00	10.75	13.00	3.50	7.50	2.75	5.50	1.25	0.50	0.25	0.50	3.00	2.00	0.75	1.00	-0.189453	0.152832	1.009766	-5.460000	7.490000	1.750000	953.00	-0.22	-0.08
3.33	0.00	0.00	0.00	0.00	0.00	0.00	0.25	0.00	0.75	2.50	4.25	2.25	0.00	1.50	0.75	2.50	0.530273	-0.036133	1.498047	180.529999	273.420013	-195.160004	142.00	0.26	-0.07	19.00	18.00	11.00	13.25	4.25	8.25	2.75	6.00	1.00	0.75	0.50	0.75	3.50	2.25	0.75	0.75	-0.175293	0.135254	0.990234	-6.300000	5.250000	1.400000	995.00	-0.22	-0.09
3.34	0.00	0.25	0.00	0.00	0.00	0.00	0.50	0.00	0.00	2.25	4.00	1.75	0.00	1.25	0.50	2.50	0.541016	1.344727	3.736328	136.990005	187.039993	-210.699997	123.00	0.24	-0.08	19.00	17.75	11.25	13.50	5.00	8.50	2.75	6.50	1.25	1.00	0.50	1.00	4.00	2.50	0.75	0.75	-0.185059	0.140625	0.991699	-7.280000	3.500000	0.910000	1032.00	-0.21	-0.09
3.35	0.00	0.00	0.00	0.00	0.00	0.00	0.50	0.00	0.00	2.50	4.00	1.75	0.00	1.25	0.50	2.50	1.072266	0.591797	4.081055	71.470001	-20.020000	-168.559998	123.00	0.26	-0.08	19.25	17.75	11.50	13.75	5.75	8.75	3.00	6.75	1.50	1.00	0.50	1.00	4.75	3.25	1.00	1.00	-0.179199	0.126953	0.984863	-7.840000	1.470000	0.560000	1079.00	-0.19	-0.09
3.36	0.00	0.00	0.00	0.00	0.00	0.00	0.50	0.00	0.25	2.25	3.75	1.75	0.00	0.75	0.25	2.50	1.077637	0.266113	2.380371	6.580000	-156.800003	-121.590004	115.00	0.25	-0.08	19.00	18.00	11.50	13.75	6.00	9.25	3.00	7.25	2.00	1.00	1.00	1.25	5.00	3.25	1.00	1.25	-0.184082	0.131836	0.992188	-6.160000	-0.490000	0.560000	1112.00	-0.19	-0.09
3.37	0.00	0.00	0.00	0.00	0.00	0.00	0.50	0.00	0.00	2.25	4.00	1.50	0.00	0.25	0.00	2.25	0.568848	0.297852	1.488770	-85.470001	-206.430008	-81.340004	103.00	0.24	-0.09	19.25	17.75	11.75	13.75	6.25	9.50	3.00	7.50	2.25	1.00	0.75	1.50	5.25	3.50	1.00	1.25	-0.186035	0.136719	0.982910	-6.370000	-1.260000	0.350000	1132.00	-0.18	-0.09
3.38	0.00	0.00	0.00	0.00	0.00	0.00	0.50	0.00	0.00	1.75	3.75	1.50	0.00	0.25	0.00	2.25	0.488281	0.614746	0.862793	-128.309998	-202.720001	-50.400002	95.00	0.24	-0.10	19.00	17.50	11.75	14.00	6.75	9.75	3.00	7.75	2.50	1.00	0.75	1.50	5.50	3.50	0.75	1.25	-0.181641	0.127930	0.983398	-6.230000	-1.820000	0.420000	1145.00	-0.18	-0.09
3.39	0.00	0.00	0.00	0.00	0.00	0.00	0.50	0.00	0.00	2.00	3.25	1.50	0.00	0.25	0.00	2.25	0.448242	0.887207	0.824707	-103.529999	-199.009995	-32.410000	93.00	0.24	-0.10	19.00	17.50	11.75	13.75	7.00	10.00	3.25	7.75	2.50	1.00	1.00	1.75	5.50	4.00	1.00	1.50	-0.183105	0.131348	0.982422	-5.600000	-2.170000	0.490000	1165.00	-0.17	-0.09
3.40	0.00	0.00	0.00	0.00	0.00	0.00	0.50	0.00	0.00	1.75	3.25	1.00	0.00	0.25	0.25	2.25	0.437012	0.807617	1.042480	-37.029999	-213.919998	-21.980000	87.00	0.24	-0.09	18.75	17.50	12.00	14.00	7.25	9.75	3.25	8.00	2.75	1.25	1.25	2.00	5.75	4.25	1.00	1.25	-0.180664	0.135742	0.976562	-5.110000	-2.590000	0.490000	1186.00	-0.17	-0.09
3.41	0.00	0.00	0.00	0.00	0.00	0.00	0.50	0.00	0.00	1.75	3.25	1.25	0.00	0.00	0.25	2.50	0.416992	0.484863	1.119629	12.110000	-240.169998	-15.120000	89.00	0.24	-0.10	18.25	17.25	12.00	14.00	7.50	10.25	3.25	8.00	2.75	1.00	1.25	2.25	6.25	4.25	1.00	1.50	-0.174316	0.140137	0.981934	-5.530000	-2.800000	0.140000	1192.00	-0.16	-0.09
3.42	0.00	0.00	0.00	0.00	0.00	0.00	0.50	0.00	0.00	1.50	3.25	1.25	0.00	0.00	0.00	2.00	0.315430	0.264160	1.062500	15.540000	-264.179993	-10.430000	81.00	0.23	-0.10	19.00	17.00	12.00	13.75	7.75	10.25	3.25	8.25	2.75	1.25	1.25	2.00	6.25	4.75	1.25	1.25	-0.166016	0.135742	0.973633	-6.370000	-2.450000	-0.350000	1207.00	-0.16	-0.09
3.43	0.00	0.00	0.00	0.25	0.00	0.00	0.50	0.00	0.00	1.50	3.25	1.00	0.00	0.25	0.00	2.25	0.125488	0.437012	0.851562	-5.740000	-283.779999	-7.490000	85.00	0.22	-0.10	18.50	16.75	12.00	13.75	7.75	10.25	3.25	8.25	3.25	1.25	1.25	2.00	6.75	5.00	1.25	1.50	-0.162109	0.137695	0.980957	-7.840000	-2.310000	-0.840000	1214.00	-0.16	-0.09
3.44	0.00	0.00	0.00	0.00	0.00	0.00	0.50	0.00	0.00	1.50	3.25	1.00	0.00	0.25	0.00	2.00	0.084473	0.474121	0.937988	17.430000	-290.079987	-8.050000	81.00	0.24	-0.09	18.00	16.25	11.75	13.50	7.75	10.25	3.25	8.25	3.25	1.50	1.25	2.25	6.75	5.25	1.50	1.50	-0.174805	0.139648	0.973145	-9.030000	-1.960000	-1.330000	1209.00	-0.15	-0.09
3.45	0.00	0.00	0.00	0.00	0.00	0.00	0.50	0.00	0.00	1.50	3.00	1.00	0.00	0.00	0.00	2.00	0.049805	0.402344	1.073242	43.820000	-298.200012	-7.000000	76.00	0.23	-0.10	17.50	15.75	11.75	13.50	8.00	10.25	3.25	8.25	3.50	1.75	1.50	2.50	6.75	5.25	1.25	1.50	-0.173340	0.128906	0.971680	-9.660000	-1.750000	-1.820000	1210.00	-0.14	-0.09
3.46	0.00	0.00	0.00	0.00	0.00	0.00	0.50	0.00	0.00	1.75	3.00	1.00	0.00	0.00	0.00	2.00	-0.024414	0.370605	1.153320	56.840000	-306.179993	-1.540000	79.00	0.23	-0.09	16.75	15.25	11.50	13.25	8.00	10.00	3.50	8.25	3.75	2.00	1.50	2.50	6.75	5.25	1.25	1.50	-0.168945	0.126953	0.976562	-9.940000	-1.680000	-1.960000	1199.00	-0.14	-0.09
3.47	0.00	0.00	0.00	0.00	0.00	0.00	0.50	0.00	0.00	1.50	3.00	1.00	0.00	0.25	0.00	2.00	-0.113770	0.399414	1.146973	60.200001	-310.730011	8.050000	78.00	0.24	-0.09	16.50	14.75	11.25	13.00	8.25	10.00	3.50	8.25	4.00	1.75	1.50	3.00	6.75	5.75	1.50	1.75	-0.169434	0.116699	0.978516	-9.660000	-1.610000	-1.820000	1203.00	-0.13	-0.09
3.48	0.00	0.00	0.00	0.00	0.00	0.00	0.50	0.00	0.00	1.50	2.75	1.00	0.00	0.00	0.00	2.00	-0.225098	0.432617	1.176758	69.650002	-310.450012	20.020000	73.00	0.23	-0.10	16.00	14.50	11.00	12.75	8.25	9.75	3.50	8.25	4.00	1.75	1.50	2.75	7.00	5.75	1.50	1.75	-0.173828	0.119629	0.974609	-8.680000	-1.330000	-1.470000	1187.00	-0.13	-0.09
3.49	0.00	0.25	0.00	0.00	0.00	0.00	0.50	0.00	0.00	1.25	3.00	1.00	0.00	0.25	0.00	2.00	-0.358887	0.377930	1.293945	88.760002	-307.929993	31.990000	78.00	0.22	-0.10	15.50	14.00	11.00	12.50	8.25	9.75	3.50	8.25	4.00	2.00	1.50	3.00	7.25	5.75	1.50	1.75	-0.168457	0.118652	0.972656	-7.700000	-0.910000	-1.190000	1182.00	-0.12	-0.09
3.50	0.00	0.00	0.00	0.00	0.00	0.00	0.50	0.00	0.00	1.50	3.00	1.25	0.00	0.00	0.00	2.00	-0.517090	0.297363	1.437988	105.279999	-305.410004	44.029999	79.00	0.23	-0.10	15.00	13.50	10.75	12.50	8.25	9.75	3.50	8.25	4.00	2.00	1.50	3.00	7.00	6.50	1.25	1.50	-0.169922	0.112793	0.974609	-6.720000	-0.700000	-0.980000	1170.00	-0.12	-0.09
3.51	0.00	0.00	0.00	0.00	0.00	0.00	0.50	0.00	0.00	1.25	3.00	1.00	0.00	0.00	0.00	2.00	-0.655762	0.280273	1.550293	108.849998	-302.890015	60.830002	73.00	0.23	-0.10	14.50	13.00	10.75	12.00	8.00	9.50	3.50	8.25	4.25	2.25	2.25	3.25	7.00	6.50	1.50	2.00	-0.175293	0.121582	0.972168	-5.810000	-0.420000	-0.770000	1171.00	-0.11	-0.09
3.52	0.00	0.25	0.00	0.00	0.00	0.00	0.50	0.00	0.00	1.25	2.75	1.00	0.00	0.00	0.00	2.00	-0.770020	0.322266	1.626465	105.629997	-300.720001	84.279999	73.00	0.21	-0.10	14.00	12.50	10.50	12.00	8.25	9.50	3.50	8.25	4.50	2.25	2.00	3.50	7.50	6.75	1.50	1.75	-0.170898	0.117188	0.970215	-5.460000	-0.070000	-0.910000	1169.00	-0.10	-0.09
3.53	0.00	0.00	0.00	0.00	0.00	0.00	0.50	0.00	0.00	1.25	3.00	1.25	0.00	0.00	0.00	2.00	-0.896484	0.279297	1.647461	105.070000	-297.640015	110.040001	76.00	0.23	-0.11	13.25	12.00	10.25	11.75	8.00	9.50	3.75	8.00	4.75	2.75	2.00	3.75	7.50	6.75	1.50	2.25	-0.172363	0.117188	0.969238	-5.390000	0.560000	-1.330000	1162.00	-0.10	-0.09
3.54	0.00	0.00	0.00	0.00	0.00	0.00	0.50	0.00	0.00	1.00	2.75	1.00	0.00	0.00	0.00	2.00	-1.004883	0.168457	1.664551	104.650002	-290.989990	131.039993	68.00	0.23	-0.11	12.75	11.50	10.00	11.50	8.00	9.50	3.75	8.25	5.00	2.75	2.50	3.75	7.75	6.75	1.75	2.00	-0.174805	0.119141	0.967773	-5.880000	0.980000	-1.820000	1163.00	-0.09	-0.09
3.55	0.00	0.00	0.00	0.00	0.00	0.00	0.50	0.00	0.00	1.25	3.00	1.00	0.00	0.00	0.00	2.00	-1.121582	0.006348	1.835449	96.040001	-282.100006	144.410004	73.00	0.23	-0.10	12.50	11.00	10.00	11.25	8.00	9.25	3.75	8.00	5.00	3.00	2.50	4.25	7.50	7.00	1.75	2.00	-0.172852	0.116699	0.966797	-6.370000	0.840000	-2.170000	1154.00	-0.08	-0.08
3.56	0.00	0.00	0.00	0.00	0.00	0.00	0.25	0.00	0.00	1.25	2.75	1.00	0.00	0.00	0.00	2.25	-1.172852	-0.073730	2.114746	81.480003	-279.929993	151.479996	68.00	0.24	-0.12	11.75	10.75	10.00	11.25	8.00	9.00	3.75	8.25	5.25	3.00	3.00	4.00	7.75	7.25	1.75	2.00	-0.169434	0.116211	0.968262	-6.650000	0.910000	-2.380000	1155.00	-0.08	-0.08
3.57	0.00	0.00	0.00	0.00	0.00	0.00	0.50	0.00	0.00	1.25	2.75	1.00	0.00	0.00	0.00	2.00	-1.326172	-0.152832	2.192383	67.620003	-288.260010	153.720001	71.00	0.23	-0.10	11.25	10.00	9.75	11.00	8.00	9.00	4.00	8.25	5.25	3.75	3.50	4.75	8.00	7.50	2.25	2.25	-0.177246	0.112305	0.971680	-7.210000	1.120000	-2.870000	1173.00	-0.06	-0.09
3.58	0.00	0.00	0.00	0.50	0.00	0.25	0.50	0.00	0.00	1.50	3.25	1.50	0.00	0.00	0.00	2.00	-1.465332	-0.198242	2.096680	54.950001	-298.480011	152.809998	92.00	0.19	-0.12	10.75	9.25	9.75	10.75	8.00	9.00	4.00	8.25	5.50	3.75	3.50	5.25	8.00	7.50	2.00	2.25	-0.175781	0.110840	0.970703	-7.350000	1.470000	-3.150000	1165.00	-0.06	-0.09
3.59	0.00	0.00	0.00	0.00	0.00	0.00	0.50	0.00	0.00	1.25	3.00	0.75	0.00	0.00	0.00	2.00	-1.638672	-0.211914	1.972168	45.009998	-302.049988	150.360001	71.00	0.23	-0.09	10.00	9.25	9.50	10.50	8.00	9.00	4.25	8.25	5.75	4.50	4.00	5.75	8.25	7.75	2.25	2.50	-0.177246	0.103027	0.964844	-7.350000	1.680000	-3.150000	1185.00	-0.05	-0.09
3.60	0.00	0.00	0.00	0.00	0.00	0.00	0.25	0.00	0.00	1.25	3.00	1.00	0.00	0.00	0.00	2.00	-1.833984	-0.228516	1.850586	37.520000	-298.130005	146.649994	70.00	0.24	-0.12	9.50	9.00	9.25	10.25	8.25	9.00	4.25	8.25	6.00	5.50	4.50	6.50	8.50	8.25	2.50	2.50	-0.176758	0.115234	0.978027	-7.210000	1.610000	-3.290000	1211.00	-0.03	-0.08
3.61	0.00	0.00	0.00	0.00	0.00	0.00	0.50	0.00	0.00	1.00	3.00	0.75	0.00	0.00	0.00	2.00	-2.023926	-0.254395	1.758301	28.559999	-288.329987	140.559998	68.00	0.23	-0.10	9.25	8.75	9.00	10.00	8.00	8.75	4.50	8.25	6.50	5.75	5.25	7.00	8.50	8.50	2.25	2.75	-0.178711	0.104492	0.966309	-6.720000	2.030000	-3.220000	1222.00	-0.03	-0.08
3.62	0.00	0.00	0.00	0.00	0.00	0.00	0.25	0.00	0.00	1.00	2.75	1.00	0.00	0.00	0.00	2.00	-2.199707	-0.251953	1.590332	19.389999	-276.010010	131.180008	64.00	0.24	-0.13	8.75	8.00	9.00	9.75	8.00	8.75	4.50	8.50	7.00	6.75	6.00	7.50	8.75	8.75	2.50	3.00	-0.179688	0.106934	0.964844	-5.950000	2.310000	-2.940000	1249.00	-0.01	-0.08
3.63	0.00	0.00	0.00	0.00	0.00	0.00	0.50	0.00	0.00	1.25	2.75	1.25	0.00	0.00	0.00	2.00	-2.335938	-0.236328	1.315918	12.880000	-259.700012	117.389999	73.00	0.23	-0.11	8.00	7.75	8.75	9.50	8.25	8.75	4.75	8.50	7.25	7.50	6.75	7.75	9.00	9.00	3.00	3.00	-0.181641	0.105957	0.971680	-5.670000	3.360000	-2.940000	1271.00	-0.00	-0.08
3.64	0.00	0.00	0.00	0.00	0.00	0.00	0.50	0.00	0.00	1.25	2.75	1.00	0.00	0.00	0.00	2.00	-2.477051	-0.051270	0.806152	8.820000	-210.910004	84.910004	71.00	0.23	-0.10	7.50	7.25	8.50	9.25	8.00	8.75	5.00	8.75	7.75	8.00	7.75	8.25	9.25	9.00	3.00	3.25	-0.173828	0.110352	0.978027	-5.670000	4.550000	-3.220000	1292.00	0.01	-0.08
3.65	0.00	0.00	0.00	0.00	0.00	0.00	0.50	0.00	0.00	1.00	2.75	1.25	0.00	0.25	0.00	2.00	-2.498047	0.019043	0.608887	13.790000	-180.949997	75.809998	73.00	0.23	-0.11	7.00	6.75	8.25	9.00	8.00	8.50	5.00	8.75	7.75	8.50	8.25	8.50	9.25	9.50	3.25	3.50	-0.182129	0.105469	0.959961	-5.530000	6.020000	-3.710000	1295.00	0.02	-0.08
3.66	0.00	0.00	0.00	0.00	0.00	0.00	0.50	0.00	0.00	1.25	2.75	1.00	0.00	0.00	0.00	2.00	-2.513672	0.006836	0.476562	18.900000	-147.839996	74.340004	71.00	0.23	-0.10	6.25	6.25	8.00	8.50	7.75	8.50	5.00	8.75	8.25	9.00	8.50	9.00	9.50	10.00	3.50	4.00	-0.188965	0.107422	0.971680	-5.110000	7.560000	-4.130000	1303.00	0.03	-0.08
3.67	0.00	0.00	0.00	0.25	0.00	0.00	0.50	0.00	0.00	1.25	2.75	0.75	0.00	0.00	0.00	2.00	-2.517090	-0.017578	0.384766	20.090000	-114.029999	79.519997	71.00	0.21	-0.10	6.00	5.50	7.75	8.25	7.50	8.25	5.25	8.75	8.50	9.50	9.25	9.50	10.00	10.75	3.50	4.25	-0.180664	0.104492	0.980957	-4.480000	9.520000	-4.480000	1320.00	0.04	-0.08
