# time	left pressure 1[N/cm²]	left pressure 2[N/cm²]	left pressure 3[N/cm²]	left pressure 4[N/cm²]	left pressure 5[N/cm²]	left pressure 6[N/cm²]	left pressure 7[N/cm²]	left pressure 8[N/cm²]	left pressure 9[N/cm²]	left pressure 10[N/cm²]	left pressure 11[N/cm²]	left pressure 12[N/cm²]	left pressure 13[N/cm²]	left pressure 14[N/cm²]	left pressure 15[N/cm²]	left pressure 16[N/cm²]	left acceleration X[g]	left acceleration Y[g]	left acceleration Z[g]	left angular X[dps]	left angular Y[dps]	left angular Z[dps]	left total force[N]	left center of pressure X[%]	left center of pressure Y[%]	right pressure 1[N/cm²]	right pressure 2[N/cm²]	right pressure 3[N/cm²]	right pressure 4[N/cm²]	right pressure 5[N/cm²]	right pressure 6[N/cm²]	right pressure 7[N/cm²]	right pressure 8[N/cm²]	right pressure 9[N/cm²]	right pressure 10[N/cm²]	right pressure 11[N/cm²]	right pressure 12[N/cm²]	right pressure 13[N/cm²]	right pressure 14[N/cm²]	right pressure 15[N/cm²]	right pressure 16[N/cm²]	right acceleration X[g]	right acceleration Y[g]	right acceleration Z[g]	right angular X[dps]	right angular Y[dps]	right angular Z[dps]	right total force[N]	right center of pressure X[%]	right center of pressure Y[%]
0.00	7.25	5.50	7.50	6.00	5.50	6.75	2.50	8.25	2.75	3.00	2.00	2.25	7.75	1.25	0.75	1.00	-0.159668	0.086426	0.960449	-2.800000	4.550000	1.190000	847.00	-0.08	-0.12																									
0.01	7.50	5.50	7.50	6.00	5.50	6.75	2.25	8.25	2.50	3.00	1.75	2.25	8.00	1.25	0.75	1.00	-0.159668	0.088867	0.953613	-2.800000	4.620000	1.120000	842.00	-0.08	-0.12																									
0.02	7.50	5.75	7.50	6.25	5.50	7.00	2.50	8.25	2.75	3.25	1.75	2.25	7.75	1.50	0.50	1.00	-0.161621	0.084961	0.962891	-2.730000	4.480000	1.120000	858.00	-0.08	-0.12																									
0.03	7.25	5.50	7.25	6.00	5.50	7.00	2.50	8.25	2.25	3.25	1.75	2.00	8.00	1.25	0.75	0.75	-0.154785	0.085449	0.958008	-2.800000	4.550000	1.190000	838.00	-0.08	-0.12																									
0.04	7.25	5.50	7.50	6.25	5.50	7.00	2.50	8.25	2.50	3.00	1.75	2.00	8.00	1.50	0.75	1.00	-0.152832	0.081055	0.959961	-2.870000	4.760000	1.050000	848.00	-0.08	-0.12																									
0.05	7.50	5.50	7.50	6.25	5.50	7.00	2.50	8.25	2.75	3.50	1.75	2.00	8.00	1.25	0.75	0.75	-0.155762	0.078613	0.967285	-2.940000	5.040000	1.120000	857.00	-0.08	-0.12																									
0.06	7.50	5.50	7.50	6.25	5.50	7.00	2.25	8.25	2.00	3.00	2.00	2.00	8.00	1.25	0.50	1.00	-0.158691	0.087891	0.968750	-2.870000	4.830000	1.120000	838.00	-0.09	-0.13																									
0.07	7.50	5.50	7.50	6.25	5.75	7.00	2.50	8.25	2.50	3.00	2.00	2.25	8.00	1.25	0.75	1.25	-0.159180	0.088379	0.958984	-2.660000	4.830000	1.120000	859.00	-0.08	-0.12																									
0.08	7.50	5.50	7.50	6.00	5.75	7.00	2.50	8.25	2.50	3.25	2.00	2.25	8.00	1.50	0.75	1.25	-0.156738	0.087402	0.963867	-2.590000	4.970000	1.120000	861.00	-0.08	-0.12	3.25	1.50	3.00	1.50	3.00	3.25	3.50	5.75	0.75	1.00	0.50	1.00	6.75	0.50	0.75	1.25	-0.119141	0.105469	0.974121	-3.640000	0.140000	0.070000	458.00	-0.03	-0.14
0.09	7.50	5.50	7.50	6.00	5.75	7.00	2.75	8.25	3.00	3.50	1.75	2.25	8.25	1.50	0.75	0.75	-0.158691	0.083984	0.957031	-2.590000	4.970000	1.120000	872.00	-0.08	-0.12	3.50	1.50	3.00	1.75	3.00	3.25	3.75	6.00	1.00	1.00	0.50	1.00	6.50	0.50	0.00	1.00	-0.117676	0.099609	0.985840	-3.570000	0.210000	-0.070000	463.00	-0.04	-0.13
0.10	7.50	5.50	7.50	6.25	5.75	7.00	2.50	8.25	2.50	3.25	2.00	2.25	8.25	1.50	0.75	1.25	-0.161621	0.083984	0.957520	-2.660000	4.970000	1.120000	867.00	-0.08	-0.12	3.00	1.50	3.00	1.75	3.00	3.00	3.75	6.00	1.00	0.75	0.50	0.75	6.75	0.75	0.50	1.25	-0.116211	0.101562	0.980469	-3.570000	0.280000	-0.140000	461.00	-0.03	-0.13
0.11	7.50	5.50	7.25	6.00	5.75	7.25	2.50	8.25	2.50	3.25	2.00	2.25	8.25	1.25	0.50	1.00	-0.163086	0.080566	0.960938	-2.730000	4.900000	1.120000	857.00	-0.08	-0.12	3.25	1.25	3.25	1.75	3.00	3.00	3.75	5.75	1.00	1.00	0.50	1.00	6.50	0.75	0.50	1.00	-0.117188	0.101074	0.979980	-3.360000	0.350000	-0.070000	462.00	-0.03	-0.13
0.12	7.25	5.50	7.50	6.00	5.75	7.25	2.75	8.25	2.75	3.25	2.25	2.25	8.25	1.25	0.75	1.00	-0.158691	0.087891	0.963379	-2.800000	4.900000	1.190000	871.00	-0.08	-0.12	3.00	1.75	3.25	2.00	3.00	3.00	3.75	6.00	1.00	1.00	0.50	1.00	6.50	0.50	0.50	1.25	-0.117188	0.104004	0.981934	-3.220000	0.490000	-0.070000	470.00	-0.04	-0.13
0.13	7.25	5.50	7.50	6.00	5.75	7.25	2.75	8.50	2.75	3.50	2.00	2.25	8.25	1.50	0.75	1.00	-0.158691	0.081543	0.960938	-2.870000	4.970000	1.260000	877.00	-0.08	-0.12	3.00	1.50	3.00	1.50	3.00	3.00	3.75	5.75	1.00	0.75	0.50	1.00	6.50	0.75	0.50	1.25	-0.117188	0.104004	0.981934	-3.220000	0.490000	-0.070000	454.00	-0.03	-0.13
0.14	7.25	5.25	7.50	6.00	5.75	7.00	2.50	8.50	2.75	3.25	2.00	2.50	8.25	1.25	0.50	1.00	-0.159180	0.077148	0.959473	-2.870000	4.900000	1.190000	862.00	-0.08	-0.12	3.00	1.50	3.00	2.00	3.00	3.25	3.75	6.00	0.75	1.00	0.50	1.00	6.50	0.75	0.00	1.00	-0.117188	0.105469	0.979004	-3.080000	0.490000	-0.210000	459.00	-0.04	-0.14
0.15	7.25	5.50	7.50	6.00	5.75	7.25	2.75	8.50	3.00	3.00	2.00	2.25	8.25	1.50	0.75	1.00	-0.164551	0.085938	0.964844	-2.800000	4.830000	1.330000	875.00	-0.08	-0.12	3.50	1.50	3.00	1.75	3.00	3.00	3.75	6.00	0.75	1.00	0.50	1.25	6.50	0.50	0.25	1.25	-0.120605	0.103027	0.977051	-3.290000	0.560000	-0.350000	464.00	-0.04	-0.13
0.16	7.50	5.50	7.50	6.00	5.75	7.25	2.75	8.50	2.75	3.25	2.00	2.50	8.25	1.50	0.50	1.00	-0.161133	0.087891	0.954590	-2.730000	4.690000	1.260000	877.00	-0.08	-0.12	3.00	1.50	3.00	1.75	2.75	2.75	3.75	6.00	1.00	1.00	0.50	1.25	6.75	0.75	0.50	1.25	-0.109375	0.108398	0.978516	-3.220000	0.420000	-0.140000	463.00	-0.03	-0.13
0.17	7.25	5.25	7.50	6.00	5.75	7.00	2.50	8.50	2.50	3.50	2.00	2.50	8.25	1.25	0.75	1.00	-0.159668	0.085938	0.958008	-2.730000	4.690000	1.190000	864.00	-0.08	-0.12	3.25	1.25	2.75	1.75	3.00	3.00	3.75	6.25	1.00	1.00	0.25	1.00	6.75	0.50	0.25	1.50	-0.119629	0.104980	0.979004	-3.430000	0.210000	-0.140000	461.00	-0.03	-0.14
0.18	7.50	5.50	7.50	6.00	5.75	7.00	2.75	8.50	2.75	3.25	2.00	2.25	8.25	1.25	0.75	1.25	-0.171875	0.082520	0.963379	-2.870000	4.900000	1.260000	873.00	-0.08	-0.12	3.00	1.50	3.00	1.75	3.00	3.00	3.75	6.00	1.00	1.00	0.50	0.75	6.50	0.50	0.50	1.25	-0.115234	0.105957	0.977051	-3.430000	0.350000	-0.210000	459.00	-0.03	-0.13
0.19	7.50	5.25	7.50	6.00	5.75	7.25	2.75	8.50	3.00	3.25	2.00	2.25	8.25	1.50	0.75	1.25	-0.159180	0.089355	0.959473	-2.940000	4.970000	1.260000	880.00	-0.07	-0.12	3.25	1.25	2.75	1.75	3.00	3.00	3.75	6.25	1.00	1.00	0.50	1.00	6.50	0.75	0.25	1.25	-0.116211	0.104980	0.987305	-3.570000	0.350000	-0.280000	463.00	-0.03	-0.13
0.20	7.75	5.25	7.50	6.00	6.00	7.25	2.75	8.50	2.75	3.50	2.00	2.25	8.25	1.50	0.75	1.25	-0.156250	0.085449	0.964355	-3.220000	5.110000	1.120000	885.00	-0.08	-0.12	3.00	1.25	2.75	1.50	3.00	2.75	3.75	6.25	1.00	1.00	0.50	1.00	6.75	0.50	0.25	1.50	-0.112793	0.102051	0.984863	-3.570000	0.210000	-0.210000	455.00	-0.03	-0.14
0.21	7.50	5.50	7.50	6.00	6.00	7.25	2.50	8.50	2.75	3.25	2.00	2.50	8.25	1.00	0.75	1.25	-0.153320	0.084473	0.962891	-3.010000	4.690000	1.190000	876.00	-0.08	-0.12	3.00	1.50	3.00	1.50	2.75	3.00	3.75	6.25	1.00	1.00	0.50	1.00	6.75	0.75	0.25	1.50	-0.118652	0.101562	0.982422	-3.570000	0.420000	-0.140000	463.00	-0.03	-0.14
0.22	7.50	5.50	7.50	6.00	5.75	7.00	2.75	8.50	2.75	3.50	2.25	2.25	8.25	1.50	0.75	1.00	-0.152832	0.080566	0.958496	-3.080000	4.760000	1.190000	880.00	-0.08	-0.12	3.50	1.25	2.50	2.00	3.00	3.00	3.75	6.25	1.00	1.00	0.75	1.25	6.75	0.75	0.25	1.50	-0.122070	0.103027	0.980957	-3.570000	0.350000	-0.140000	475.00	-0.03	-0.14
0.23	7.50	5.25	7.50	6.00	5.75	7.25	2.75	8.50	3.00	3.25	2.25	2.25	8.25	1.50	0.75	1.00	-0.161133	0.086914	0.962402	-3.220000	4.760000	1.120000	881.00	-0.07	-0.12	3.25	1.50	3.00	1.75	3.00	3.00	3.75	6.25	1.00	1.00	0.50	1.00	6.75	0.75	0.25	1.25	-0.116211	0.098145	0.984863	-3.570000	0.420000	-0.280000	471.00	-0.03	-0.13
0.24	7.50	5.50	7.50	6.00	6.00	7.25	2.75	8.50	2.75	3.25	2.25	2.25	8.25	1.50	0.50	1.00	-0.163574	0.083008	0.958984	-3.080000	4.900000	1.120000	880.00	-0.08	-0.12	3.25	1.50	2.75	1.75	3.00	3.00	3.75	6.25	0.75	0.75	0.50	1.00	7.00	0.75	0.25	1.25	-0.117188	0.103027	0.979492	-3.430000	0.280000	-0.140000	464.00	-0.03	-0.14
0.25	8.00	5.25	7.50	6.00	6.00	7.50	2.75	8.50	2.50	3.25	2.00	2.25	8.25	1.00	0.75	1.00	-0.161621	0.083984	0.957520	-2.940000	4.970000	1.050000	878.00	-0.08	-0.12	3.25	1.50	2.75	1.75	3.00	3.00	3.75	6.25	1.25	1.00	0.50	1.00	6.75	0.75	0.25	1.00	-0.116699	0.101562	0.980957	-3.430000	0.210000	-0.140000	470.00	-0.03	-0.13
0.26	7.50	5.25	7.50	6.00	6.00	7.25	2.75	8.50	2.75	3.25	2.25	2.25	8.25	1.25	0.75	1.25	-0.164551	0.084473	0.967773	-2.870000	5.110000	1.190000	880.00	-0.08	-0.12	3.25	1.50	2.50	1.75	3.25	3.00	3.75	6.25	0.75	0.75	0.50	1.25	6.75	0.75	0.50	1.50	-0.111816	0.104980	0.980957	-3.220000	0.210000	0.140000	468.00	-0.03	-0.14
0.27	7.50	5.50	7.50	6.00	6.00	7.25	2.75	8.50	2.50	3.25	2.00	2.25	8.25	1.50	0.75	1.00	-0.160645	0.085449	0.958984	-2.730000	4.970000	1.120000	876.00	-0.08	-0.12	3.00	1.50	2.75	1.75	3.00	2.75	3.75	6.25	1.00	1.00	0.50	1.25	6.75	0.75	0.25	1.25	-0.115234	0.101562	0.984863	-3.430000	0.210000	0.070000	465.00	-0.03	-0.14
0.28	8.00	5.25	7.50	6.00	6.00	7.25	2.75	8.50	2.50	3.50	2.25	2.25	8.25	1.25	0.75	1.00	-0.157715	0.084961	0.961914	-2.730000	4.900000	1.120000	883.00	-0.08	-0.12	3.25	1.50	3.00	1.75	3.00	2.75	3.75	6.25	0.75	1.00	0.75	1.25	6.75	0.75	0.50	1.25	-0.114258	0.102539	0.983887	-3.570000	0.210000	-0.000000	473.00	-0.03	-0.14
0.29	7.75	5.25	7.50	5.75	5.75	7.00	2.75	8.50	2.75	3.25	2.00	2.00	8.25	1.25	0.75	1.25	-0.161133	0.089355	0.962891	-2.800000	4.900000	1.260000	868.00	-0.08	-0.12	3.00	1.50	2.75	1.75	3.00	3.00	3.75	6.25	1.25	1.25	0.50	1.00	6.75	0.50	0.50	1.50	-0.114746	0.104980	0.980469	-3.640000	0.070000	-0.000000	473.00	-0.02	-0.14
0.30	7.75	5.25	7.50	6.00	6.00	7.50	2.75	8.50	2.75	3.25	2.25	2.25	8.25	1.25	0.75	1.25	-0.158203	0.085449	0.963867	-2.730000	4.690000	1.190000	885.00	-0.08	-0.12	3.25	1.50	2.75	1.50	3.00	3.00	4.00	6.25	1.00	1.00	0.50	1.25	6.75	0.75	0.25	1.25	-0.118164	0.100098	0.985352	-3.640000	0.210000	-0.140000	472.00	-0.03	-0.13
0.31	8.00	5.25	7.75	6.00	6.00	7.25	2.75	8.50	3.00	3.50	2.00	2.50	8.25	1.25	0.75	1.00	-0.163086	0.079590	0.953125	-2.660000	4.620000	1.190000	893.00	-0.08	-0.12	3.00	1.25	3.00	1.75	3.00	3.00	3.75	6.25	1.00	1.25	0.50	1.00	6.75	0.50	0.50	1.50	-0.117188	0.102051	0.976074	-3.500000	0.070000	-0.070000	470.00	-0.03	-0.14
0.32	7.75	5.50	7.75	6.00	6.00	7.25	2.75	8.50	2.75	3.25	2.25	2.25	8.50	1.00	0.75	1.00	-0.156738	0.082031	0.959473	-2.590000	4.480000	1.190000	886.00	-0.08	-0.12	3.00	1.75	3.00	1.75	3.00	3.00	4.00	6.25	1.00	1.00	0.50	1.25	7.00	0.50	0.50	1.25	-0.113770	0.105469	0.982910	-3.430000	0.140000	-0.070000	480.00	-0.03	-0.14
0.33	7.75	5.25	7.75	6.00	6.00	7.25	2.75	8.50	2.75	3.25	2.00	2.25	8.25	1.00	0.75	1.25	-0.165039	0.082031	0.966797	-2.660000	4.690000	1.190000	880.00	-0.08	-0.12	3.25	1.50	3.00	2.00	3.00	2.75	4.00	6.25	1.00	1.00	0.75	1.25	7.00	0.75	0.50	1.25	-0.118164	0.107910	0.984863	-3.290000	0.420000	-0.210000	486.00	-0.03	-0.13
0.34	7.75	5.50	7.50	5.75	6.25	7.25	2.75	8.50	2.75	3.25	2.25	2.25	8.50	1.50	0.75	1.00	-0.159668	0.078125	0.960449	-2.800000	4.900000	1.190000	888.00	-0.08	-0.12	3.00	1.50	3.00	1.50	3.25	3.00	4.00	6.25	1.00	1.00	0.50	1.00	7.00	0.75	0.50	1.50	-0.112793	0.101074	0.977051	-3.290000	0.350000	-0.070000	479.00	-0.02	-0.13
0.35	7.75	5.25	7.50	6.00	6.25	7.50	2.75	8.50	2.75	3.00	2.00	2.25	8.25	1.50	0.50	1.25	-0.160645	0.081543	0.962891	-2.870000	5.040000	1.120000	882.00	-0.08	-0.12	3.25	1.50	3.00	1.75	3.00	3.25	4.00	6.25	1.00	1.00	0.75	1.25	6.75	0.75	0.50	1.50	-0.118164	0.100098	0.979980	-3.290000	0.210000	0.070000	488.00	-0.03	-0.13
0.36	7.75	5.25	7.50	5.75	6.00	7.25	2.75	8.50	2.50	3.25	2.25	2.25	8.25	1.00	0.50	1.25	-0.160645	0.083984	0.966797	-2.590000	4.760000	1.190000	871.00	-0.08	-0.12	2.50	1.50	3.00	1.50	3.00	2.75	4.00	6.50	1.25	1.00	0.75	1.00	6.75	0.75	0.25	1.25	-0.115723	0.104004	0.980469	-3.500000	0.140000	-0.000000	471.00	-0.02	-0.13
0.37	8.00	5.25	7.50	5.75	6.00	7.25	2.75	8.50	2.75	3.00	2.00	2.50	8.25	1.25	0.75	1.00	-0.154785	0.084961	0.961426	-2.520000	4.690000	1.120000	878.00	-0.08	-0.12	3.25	1.50	3.00	2.00	3.00	2.75	4.00	6.25	1.00	1.00	0.50	1.25	7.00	0.75	0.25	1.50	-0.115723	0.104004	0.980469	-3.500000	0.140000	-0.000000	482.00	-0.03	-0.13
0.38	7.50	5.25	7.50	5.75	6.00	7.25	2.75	8.50	2.50	3.25	2.00	2.00	8.25	1.50	0.75	1.00	-0.152344	0.082520	0.961426	-2.590000	4.760000	1.120000	868.00	-0.08	-0.12	3.25	1.50	3.00	1.50	3.00	3.00	4.00	6.50	1.00	1.00	0.50	1.25	7.00	0.50	0.50	1.25	-0.122070	0.102539	0.980469	-3.430000	0.140000	-0.000000	482.00	-0.03	-0.14
0.39	7.75	5.25	7.75	5.75	6.00	7.50	2.50	8.50	3.00	3.25	2.00	2.25	8.25	1.25	0.75	1.00	-0.165527	0.085449	0.958984	-2.520000	4.970000	1.190000	881.00	-0.08	-0.12	3.00	1.25	3.00	1.75	3.00	3.00	4.00	6.50	1.00	1.00	0.50	1.25	7.00	0.75	0.50	1.50	-0.115723	0.107422	0.974609	-3.430000	0.070000	-0.000000	483.00	-0.02	-0.14
0.40	8.00	5.25	7.75	5.75	6.00	7.25	2.75	8.50	3.00	3.25	2.25	2.50	8.25	1.25	0.75	1.00	-0.161621	0.086426	0.966797	-2.520000	4.970000	1.260000	890.00	-0.08	-0.12	2.50	1.50	3.00	1.50	3.00	3.00	4.00	6.50	1.00	1.00	0.50	1.25	7.00	0.75	0.25	1.25	-0.111328	0.106934	0.983887	-3.290000	-0.140000	0.140000	473.00	-0.02	-0.14
0.41	8.00	5.25	7.75	5.75	6.00	7.25	2.75	8.50	2.75	3.25	2.00	2.25	8.25	1.25	0.75	1.25	-0.160645	0.082031	0.956055	-2.520000	4.900000	1.260000	882.00	-0.08	-0.12	3.50	1.25	3.00	1.75	3.00	3.00	4.00	6.50	1.00	1.00	0.50	1.25	7.00	0.75	0.50	1.50	-0.114258	0.104492	0.979980	-3.150000	0.000000	-0.000000	489.00	-0.03	-0.13
0.42	7.75	5.25	7.50	5.50	6.00	7.25	2.75	8.25	2.75	3.50	2.00	2.25	8.25	1.50	0.75	1.25	-0.159668	0.080566	0.966309	-2.310000	5.110000	1.190000	875.00	-0.07	-0.12	3.25	1.25	3.00	1.75	3.00	3.00	4.00	6.50	1.00	1.00	0.75	1.50	7.00	0.50	0.50	1.25	-0.115723	0.102539	0.977539	-3.430000	0.000000	0.070000	488.00	-0.02	-0.14
0.43	7.75	5.25	7.50	5.75	6.00	7.50	2.75	8.50	2.50	3.25	2.00	2.25	8.25	1.00	0.75	1.00	-0.162109	0.085938	0.958984	-2.310000	4.970000	1.120000	872.00	-0.08	-0.12	3.25	1.50	2.75	1.75	3.00	3.00	4.00	6.50	1.00	1.00	0.50	1.00	7.00	0.75	0.50	1.25	-0.110840	0.106934	0.979980	-3.500000	0.000000	0.070000	481.00	-0.03	-0.14
0.44	7.75	5.25	7.50	5.75	6.00	7.25	2.75	8.50	2.75	3.25	2.00	2.25	8.50	1.25	0.50	1.25	-0.161133	0.082031	0.961426	-2.310000	4.970000	1.260000	876.00	-0.08	-0.12	3.00	1.50	2.75	1.75	3.00	3.25	4.00	6.50	1.00	1.00	0.50	1.50	7.00	0.75	0.25	1.25	-0.116211	0.104004	0.983398	-3.570000	0.140000	-0.140000	484.00	-0.03	-0.14
0.45	8.00	5.00	7.50	5.75	6.00	7.25	2.75	8.50	2.75	3.25	2.00	2.25	8.25	1.50	0.75	1.00	-0.162109	0.083008	0.960449	-2.240000	4.900000	1.330000	878.00	-0.08	-0.12	3.00	1.50	3.00	1.75	3.00	3.00	4.00	6.50	1.00	1.25	0.50	1.25	7.00	0.75	0.50	1.50	-0.118652	0.108398	0.980469	-3.570000	-0.070000	-0.000000	489.00	-0.02	-0.14
0.46	7.75	5.25	7.75	5.75	6.00	7.25	2.75	8.50	2.75	3.25	2.00	2.25	8.25	1.00	0.75	1.25	-0.160156	0.083984	0.957520	-2.240000	4.830000	1.260000	877.00	-0.08	-0.12	3.25	1.25	3.00	1.50	3.00	3.00	4.00	6.50	1.00	1.00	0.50	1.25	7.00	0.50	0.25	1.50	-0.122559	0.096680	0.979980	-3.430000	-0.140000	0.140000	478.00	-0.03	-0.14
0.47	8.00	5.00	7.50	5.75	5.75	7.50	2.75	8.50	3.00	3.50	2.25	2.50	8.25	1.25	0.75	1.00	-0.161133	0.084961	0.962891	-2.450000	4.830000	1.120000	887.00	-0.07	-0.12	3.25	1.25	3.00	1.50	3.00	3.00	4.00	6.50	1.00	1.25	0.75	1.25	7.00	0.75	0.75	1.50	-0.115234	0.105469	0.980469	-3.290000	-0.210000	0.070000	492.00	-0.02	-0.13
0.48	7.75	5.25	7.75	5.75	6.25	7.25	2.75	8.50	2.75	3.25	2.25	2.25	8.25	1.25	0.75	1.25	-0.156738	0.080566	0.959473	-2.520000	4.830000	1.190000	885.00	-0.08	-0.12	3.50	1.50	3.00	1.75	3.00	3.00	4.00	6.50	1.00	1.00	0.75	1.50	7.00	0.75	0.50	1.25	-0.110352	0.103516	0.977539	-3.360000	0.000000	-0.000000	496.00	-0.03	-0.14
0.49	8.00	5.25	7.50	5.50	6.00	7.50	2.75	8.50	2.75	3.25	2.25	2.25	8.25	1.25	0.75	1.25	-0.162598	0.082520	0.963379	-2.660000	4.830000	1.120000	882.00	-0.08	-0.12	3.25	1.50	2.75	2.25	3.00	3.00	4.00	6.50	1.25	1.00	0.75	1.00	7.00	1.00	0.50	1.50	-0.119141	0.100586	0.978516	-3.430000	0.070000	0.070000	497.00	-0.02	-0.13
0.50	8.00	5.25	7.75	5.75	6.00	7.50	2.75	8.50	2.50	3.00	2.00	2.25	8.50	1.25	0.75	1.50	-0.157715	0.085938	0.961426	-2.730000	5.040000	1.120000	883.00	-0.08	-0.12	3.50	1.50	2.50	1.75	3.00	3.25	4.00	6.50	1.00	1.00	0.75	1.25	7.00	0.75	0.25	1.75	-0.118652	0.097656	0.979004	-3.360000	-0.280000	0.350000	490.00	-0.03	-0.14
0.51	8.25	5.25	7.75	5.75	6.00	7.50	2.75	8.50	2.75	3.00	2.00	2.25	8.50	1.50	1.00	1.00	-0.161133	0.085449	0.959961	-2.520000	4.760000	1.190000	891.00	-0.08	-0.12	3.00	1.50	3.00	1.50	3.00	3.00	4.00	6.50	1.00	1.00	0.75	1.25	7.00	0.50	0.25	1.50	-0.111328	0.098145	0.983398	-3.220000	-0.210000	0.280000	480.00	-0.03	-0.14
0.52	8.00	5.25	7.50	6.00	6.00	7.50	2.75	8.50	2.75	3.25	2.25	2.25	8.50	1.25	0.75	1.25	-0.164062	0.082520	0.962891	-2.520000	4.900000	1.190000	891.00	-0.08	-0.12	3.25	1.25	2.75	1.75	3.00	3.00	4.00	6.50	1.00	1.00	0.75	1.25	7.00	0.75	0.25	1.50	-0.116699	0.100098	0.983398	-3.290000	-0.070000	0.140000	483.00	-0.02	-0.14
0.53	8.00	5.25	7.75	5.50	6.00	7.50	2.75	8.50	2.50	3.25	2.00	2.50	8.50	1.50	0.75	1.00	-0.161621	0.081055	0.960449	-2.520000	4.970000	1.190000	885.00	-0.08	-0.12	3.25	1.50	2.75	2.00	3.25	3.25	4.00	6.75	1.00	1.00	0.50	1.25	7.25	0.75	0.25	1.50	-0.111328	0.102051	0.982422	-3.360000	-0.140000	0.070000	498.00	-0.03	-0.14
0.54	8.00	5.00	7.75	5.75	5.75	7.50	2.75	8.50	2.50	3.25	2.25	2.25	8.50	1.25	0.50	1.00	-0.163574	0.089844	0.960938	-2.590000	5.040000	1.260000	877.00	-0.08	-0.12	3.25	1.50	3.00	1.75	3.25	3.00	4.00	6.75	0.75	1.00	0.50	1.25	7.00	0.75	0.25	1.25	-0.113770	0.101562	0.983398	-3.500000	-0.070000	0.070000	488.00	-0.03	-0.14
0.55	8.25	5.25	7.50	5.50	6.00	7.50	3.00	8.50	2.75	3.25	2.00	2.25	8.50	1.50	0.75	1.25	-0.160156	0.081055	0.958008	-2.590000	4.830000	1.260000	891.00	-0.08	-0.12	3.25	1.00	3.00	1.50	3.25	3.00	4.00	6.50	1.00	1.00	0.25	1.25	7.00	0.75	0.25	1.50	-0.120117	0.100586	0.981934	-3.500000	-0.070000	0.070000	478.00	-0.02	-0.13
0.56	8.00	5.25	7.75	5.50	6.00	7.50	2.75	8.50	2.75	3.25	2.00	2.50	8.50	1.25	0.75	1.00	-0.161133	0.079590	0.961914	-2.590000	4.900000	1.260000	886.00	-0.08	-0.12	3.25	1.25	2.75	1.75	3.00	3.00	4.00	6.75	1.25	1.25	0.50	1.50	7.00	0.50	0.25	1.50	-0.114258	0.097656	0.980957	-3.500000	-0.070000	-0.000000	491.00	-0.02	-0.14
0.57	8.25	5.25	7.75	5.50	6.25	7.75	2.75	8.50	2.75	3.00	2.25	2.50	8.50	1.00	0.50	1.25	-0.159668	0.084961	0.962402	-2.730000	4.760000	1.120000	891.00	-0.08	-0.12	3.25	1.25	2.75	1.50	3.00	3.00	4.00	6.75	1.25	1.00	0.50	1.50	7.00	0.75	0.75	1.50	-0.117188	0.101562	0.977051	-3.430000	0.070000	0.070000	493.00	-0.01	-0.14
0.58	8.00	5.00	7.50	5.50	6.00	7.50	2.75	8.50	2.50	3.25	2.25	2.50	8.50	1.00	0.75	1.00	-0.163574	0.077637	0.961426	-2.730000	4.690000	1.120000	878.00	-0.08	-0.12	3.25	1.25	3.00	1.75	3.25	3.25	4.00	6.75	0.75	1.25	0.50	1.25	7.25	0.75	0.50	1.50	-0.115723	0.101074	0.978027	-3.220000	0.210000	-0.000000	498.00	-0.02	-0.14
0.59	8.00	5.25	7.50	5.75	6.00	7.50	2.75	8.50	2.75	3.25	2.25	2.25	8.25	1.50	0.75	1.00	-0.159180	0.085449	0.961426	-2.730000	4.760000	1.050000	886.00	-0.08	-0.12	3.25	1.50	2.75	1.75	3.00	3.25	4.00	6.50	1.25	1.00	0.75	1.50	7.25	0.75	0.50	1.25	-0.116211	0.102539	0.979980	-3.010000	0.280000	0.070000	499.00	-0.02	-0.14
0.60	7.75	5.00	7.50	5.50	6.00	7.50	2.75	8.50	2.75	3.50	2.25	2.50	8.25	1.25	0.75	1.25	-0.160645	0.082031	0.964355	-2.660000	4.690000	1.120000	883.00	-0.07	-0.12	3.25	1.25	2.75	1.75	3.25	3.00	4.00	6.75	1.00	1.25	0.50	1.50	7.25	0.75	0.50	1.25	-0.113281	0.100586	0.983398	-3.150000	0.420000	-0.000000	497.00	-0.02	-0.14
0.61	8.00	5.00	7.50	5.50	6.00	7.50	2.75	8.50	2.75	3.25	2.25	2.25	8.25	1.25	0.75	1.00	-0.163574	0.085938	0.958496	-2.660000	4.620000	1.190000	878.00	-0.08	-0.12	3.50	1.50	3.00	1.50	3.00	3.00	4.00	6.75	1.00	1.00	0.75	1.50	7.25	0.50	0.50	1.50	-0.118164	0.102051	0.977051	-3.220000	0.350000	0.070000	498.00	-0.02	-0.14
0.62	8.00	5.25	7.75	5.50	6.00	7.50	2.75	8.50	2.75	3.25	2.00	2.50	8.50	1.50	0.75	1.00	-0.162598	0.078125	0.962402	-2.660000	4.550000	1.190000	888.00	-0.08	-0.12	3.00	1.25	3.25	1.50	3.25	3.25	4.00	6.75	1.00	1.00	0.50	1.50	7.25	0.75	0.50	1.75	-0.119629	0.104980	0.979980	-3.430000	0.490000	-0.070000	500.00	-0.02	-0.14
0.63	7.75	5.00	7.50	5.50	6.00	7.50	2.75	8.50	2.75	3.25	2.25	2.50	8.50	1.50	1.00	1.25	-0.158691	0.086426	0.959961	-2.800000	4.620000	1.120000	887.00	-0.07	-0.12	3.00	1.75	3.00	1.75	3.25	3.25	4.25	6.75	1.00	1.00	0.75	1.25	7.25	0.75	0.75	1.75	-0.118164	0.099121	0.989258	-3.430000	0.490000	-0.070000	512.00	-0.02	-0.14
0.64	8.00	5.00	7.50	5.50	6.00	7.50	2.75	8.50	2.75	3.50	2.00	2.25	8.50	1.25	0.75	1.00	-0.162109	0.085449	0.966797	-2.870000	4.690000	1.120000	881.00	-0.08	-0.12	3.25	1.25	3.00	1.25	3.25	3.25	4.00	6.75	1.00	1.00	0.75	1.25	7.25	0.75	0.50	1.50	-0.115723	0.103027	0.980957	-3.430000	0.280000	-0.000000	495.00	-0.02	-0.14
0.65	8.25	5.00	7.50	5.50	6.00	7.50	2.75	8.50	2.75	3.25	2.00	2.50	8.50	1.25	0.75	1.25	-0.160645	0.079590	0.962402	-2.940000	4.830000	1.120000	885.00	-0.08	-0.12	3.00	1.25	2.75	1.50	3.00	3.00	4.00	6.75	1.00	1.25	0.75	1.25	7.25	0.75	0.50	1.50	-0.119629	0.104980	0.981445	-3.360000	0.280000	-0.000000	489.00	-0.01	-0.14
0.66	8.00	5.00	7.50	5.50	6.00	7.50	2.75	8.50	2.75	3.50	2.25	2.50	8.50	1.25	0.50	1.25	-0.157715	0.083008	0.965332	-2.730000	4.760000	1.190000	885.00	-0.08	-0.12	3.25	1.25	3.00	1.75	3.00	3.25	4.00	6.75	1.00	1.25	0.75	1.25	7.00	0.75	0.50	1.50	-0.116211	0.103027	0.979980	-3.290000	0.350000	-0.070000	499.00	-0.02	-0.14
0.67	8.00	5.25	7.75	5.75	6.00	7.50	2.75	8.50	3.00	3.50	2.25	2.50	8.50	1.50	0.75	1.25	-0.160156	0.081543	0.958496	-2.660000	4.760000	1.190000	902.00	-0.07	-0.12	3.00	1.25	2.50	1.50	3.00	3.00	4.25	7.00	1.00	1.25	0.75	1.25	7.25	0.75	0.50	1.50	-0.117676	0.100586	0.979492	-3.290000	0.350000	-0.140000	495.00	-0.01	-0.14
0.68	7.75	5.00	7.75	5.50	6.00	7.50	2.75	8.50	2.75	3.25	2.25	2.50	8.50	1.50	0.75	1.00	-0.161133	0.086426	0.960449	-2.660000	4.830000	1.120000	886.00	-0.07	-0.12	3.00	1.25	2.75	1.50	3.25	3.00	4.25	6.75	1.00	1.00	0.50	1.25	7.25	1.00	0.25	1.50	-0.111816	0.099609	0.979980	-3.220000	0.490000	-0.070000	490.00	-0.02	-0.14
0.69	7.75	5.25	7.75	5.50	6.00	7.25	2.75	8.50	3.00	3.00	2.25	2.50	8.50	1.25	0.75	1.25	-0.166504	0.079590	0.964844	-2.800000	4.900000	0.980000	885.00	-0.07	-0.12	3.00	1.50	2.75	1.50	3.00	3.25	4.00	6.75	1.00	1.25	0.75	1.25	7.25	0.75	0.25	1.50	-0.114258	0.101562	0.978027	-3.220000	0.350000	-0.070000	492.00	-0.02	-0.14
0.70	7.75	5.00	7.50	5.50	6.00	7.50	2.75	8.50	2.75	3.25	2.00	2.50	8.50	1.25	0.50	1.25	-0.161133	0.086426	0.958984	-2.660000	4.830000	1.050000	876.00	-0.08	-0.12	3.00	1.50	3.25	1.75	3.25	3.25	4.00	6.75	1.00	1.00	0.75	1.25	7.25	0.75	0.50	1.50	-0.114258	0.104492	0.978516	-3.500000	0.210000	-0.070000	504.00	-0.02	-0.14
0.71	7.75	5.00	7.50	5.50	6.00	7.50	2.75	8.50	2.75	3.00	2.25	2.50	8.50	1.25	0.50	1.25	-0.161133	0.081543	0.954590	-2.590000	4.760000	1.120000	876.00	-0.08	-0.12	3.25	1.75	3.00	1.75	3.25	3.25	4.25	6.75	1.00	1.00	0.25	1.25	7.50	0.75	0.25	1.25	-0.120605	0.103516	0.981445	-3.640000	0.210000	-0.070000	503.00	-0.03	-0.14
0.72	7.75	5.00	7.50	5.50	6.00	7.50	3.00	8.50	2.75	3.50	2.00	2.50	8.50	1.25	0.75	1.00	-0.160645	0.082031	0.963379	-2.450000	4.900000	1.050000	885.00	-0.07	-0.12	3.00	1.25	3.00	1.50	3.00	2.75	4.25	6.75	1.00	1.00	0.75	1.50	7.25	0.75	0.50	1.25	-0.118652	0.099121	0.979492	-3.500000	0.280000	-0.210000	492.00	-0.02	-0.14
0.73	7.75	5.00	7.50	5.50	6.00	7.25	3.00	8.50	3.00	3.50	2.25	2.50	8.50	1.50	0.75	1.25	-0.160156	0.086914	0.960938	-2.310000	5.040000	1.190000	892.00	-0.07	-0.12	2.75	1.25	2.50	1.75	3.00	3.25	4.00	7.00	0.75	1.25	0.50	1.25	7.25	1.00	0.50	1.25	-0.118652	0.099121	0.979492	-3.500000	0.280000	-0.210000	488.00	-0.02	-0.15
0.74	7.75	5.00	7.50	5.50	6.00	7.25	2.75	8.50	3.00	3.50	2.25	2.75	8.50	1.50	0.75	1.25	-0.165039	0.082520	0.964844	-2.380000	5.110000	1.190000	891.00	-0.07	-0.12	3.00	1.25	3.00	1.75	3.00	3.25	4.25	7.00	1.25	1.25	0.75	1.25	7.00	0.75	0.25	1.50	-0.117676	0.101074	0.979980	-3.430000	0.280000	0.070000	505.00	-0.02	-0.14
0.75	7.75	4.75	7.50	5.50	6.25	7.25	2.75	8.50	2.75	3.25	2.25	2.25	8.50	1.50	0.75	1.00	-0.162598	0.082031	0.956055	-2.310000	5.040000	1.190000	878.00	-0.07	-0.12	3.00	1.50	3.00	1.75	3.00	3.00	4.25	6.75	1.25	1.00	0.75	1.25	7.25	0.75	0.50	1.50	-0.112793	0.100098	0.975098	-3.430000	0.350000	-0.000000	503.00	-0.02	-0.14
0.76	7.50	5.00	7.75	5.50	6.25	7.50	2.75	8.50	2.75	3.25	2.00	2.50	8.50	1.25	1.00	1.25	-0.158203	0.077637	0.960938	-2.240000	4.900000	1.260000	885.00	-0.07	-0.12	3.00	1.50	3.00	1.50	3.00	3.25	4.00	6.75	1.25	1.00	0.75	1.25	7.25	0.75	0.25	1.50	-0.120117	0.100586	0.982422	-3.500000	0.280000	-0.000000	496.00	-0.02	-0.14
0.77	7.50	5.00	7.75	5.25	6.00	7.50	3.00	8.50	2.75	3.50	2.00	2.50	8.50	1.50	0.75	1.25	-0.161621	0.083008	0.964355	-2.380000	4.760000	1.260000	886.00	-0.07	-0.12	3.25	1.25	2.75	1.50	3.25	3.00	4.25	6.75	1.00	1.00	0.50	1.25	7.50	0.75	0.50	1.75	-0.119141	0.103516	0.980469	-3.500000	0.420000	-0.000000	497.00	-0.02	-0.14
0.78	7.50	5.00	7.75	5.50	6.25	7.50	3.00	8.50	3.00	3.50	2.25	2.50	8.50	1.50	0.50	1.25	-0.157715	0.089355	0.958008	-2.660000	4.830000	1.190000	895.00	-0.07	-0.12	3.25	1.25	2.75	1.50	3.00	3.25	4.25	7.00	0.75	1.25	0.75	1.25	7.25	0.75	0.50	1.50	-0.117676	0.100098	0.986328	-3.430000	0.280000	0.070000	500.00	-0.02	-0.14
0.79	7.50	5.00	7.75	5.50	6.25	7.50	2.75	8.50	3.00	3.25	2.50	2.50	8.75	1.50	0.75	1.25	-0.166016	0.088379	0.959473	-2.870000	4.900000	1.190000	896.00	-0.07	-0.12	3.00	1.50	2.75	1.50	3.25	3.00	4.25	6.75	0.75	1.00	0.75	1.25	7.50	1.00	0.50	1.50	-0.117676	0.103027	0.980957	-3.360000	0.350000	0.070000	497.00	-0.02	-0.14
0.80	7.50	5.00	7.50	5.50	6.25	7.50	3.00	8.50	2.75	3.50	2.00	2.50	8.75	1.25	0.75	1.00	-0.160645	0.084961	0.958496	-3.150000	4.970000	1.120000	887.00	-0.07	-0.12	2.75	1.25	3.00	1.75	3.00	3.25	4.25	7.00	1.00	1.50	0.75	1.25	7.50	0.75	0.50	1.50	-0.116699	0.103027	0.983887	-3.290000	0.280000	-0.000000	509.00	-0.01	-0.14
0.81	7.50	5.00	7.50	5.50	6.00	7.50	2.75	8.50	2.75	3.00	2.25	2.50	8.75	1.50	1.00	1.50	-0.164062	0.082520	0.966309	-2.940000	4.690000	1.190000	885.00	-0.07	-0.12	3.00	1.50	2.75	1.50	3.25	3.25	4.00	6.75	1.00	1.00	0.75	1.25	7.25	0.75	0.50	1.50	-0.115723	0.103027	0.984863	-3.150000	0.280000	-0.000000	495.00	-0.02	-0.14
0.82	7.25	5.00	7.50	5.50	6.25	7.50	3.00	8.50	2.75	3.25	2.25	2.50	8.75	1.25	0.75	1.50	-0.158203	0.083984	0.956543	-3.150000	4.410000	1.330000	887.00	-0.07	-0.12	3.00	1.50	2.50	1.75	3.00	3.25	4.25	7.00	1.00	1.25	0.75	1.25	7.25	0.75	0.50	1.50	-0.112305	0.099609	0.979980	-3.150000	0.210000	0.140000	503.00	-0.02	-0.14
0.83	7.75	5.00	7.75	5.25	6.25	7.25	3.00	8.50	3.00	3.25	2.25	2.25	8.50	1.50	1.00	1.25	-0.155762	0.083984	0.958496	-3.220000	4.270000	1.400000	892.00	-0.07	-0.11	3.00	1.25	2.75	1.75	3.25	3.25	4.25	7.00	1.25	1.00	0.75	1.25	7.50	0.75	0.25	1.50	-0.117188	0.103516	0.979492	-3.290000	0.490000	-0.000000	507.00	-0.02	-0.14
0.84	7.50	5.00	7.50	5.50	6.25	7.50	3.00	8.75	2.75	3.50	2.25	2.50	8.75	1.50	0.75	1.00	-0.161621	0.085449	0.957520	-3.290000	4.060000	1.470000	897.00	-0.07	-0.12	2.75	1.50	3.00	1.50	3.00	3.00	4.25	6.75	1.00	1.25	0.75	1.25	7.25	0.75	0.50	1.75	-0.116211	0.104004	0.977539	-3.360000	0.210000	0.070000	498.00	-0.01	-0.14
0.85	7.50	5.00	7.75	5.50	6.50	7.25	3.00	8.50	3.00	3.50	2.00	2.50	8.75	1.50	0.50	1.00	-0.156250	0.084961	0.964844	-3.430000	3.780000	1.610000	893.00	-0.07	-0.11	2.75	1.25	2.75	1.50	3.00	3.25	4.00	7.00	1.00	1.25	0.75	1.25	7.25	0.75	0.25	1.50	-0.115723	0.095703	0.980469	-3.360000	0.140000	0.210000	491.00	-0.02	-0.15
0.86	7.50	5.00	7.75	5.50	6.50	7.50	3.00	8.50	3.25	3.50	2.25	2.50	8.75	1.25	1.00	1.25	-0.162109	0.083496	0.964355	-3.640000	3.780000	1.610000	908.00	-0.07	-0.11	3.00	1.50	2.75	1.75	3.00	3.00	4.25	6.75	0.75	1.25	0.75	1.25	7.50	0.75	1.00	1.50	-0.114746	0.100586	0.984863	-3.290000	0.140000	0.280000	504.00	-0.01	-0.14
0.87	7.75	5.00	7.75	5.50	6.50	7.50	3.00	8.50	2.75	3.50	2.50	2.50	8.50	1.25	0.75	1.25	-0.164062	0.081543	0.967773	-3.640000	3.080000	1.820000	901.00	-0.07	-0.12	2.75	1.25	2.75	1.75	3.00	3.25	4.25	6.75	1.00	1.00	0.50	1.25	7.50	0.75	0.25	1.50	-0.114746	0.105469	0.984375	-3.360000	0.350000	0.070000	490.00	-0.02	-0.14
0.88	8.00	5.00	7.75	5.75	6.50	7.50	3.00	8.75	3.00	3.25	2.25	2.50	8.50	1.50	1.00	1.00	-0.161621	0.080078	0.963379	-3.430000	2.800000	1.960000	913.00	-0.07	-0.11	3.25	1.25	2.75	1.75	3.00	3.25	4.00	6.75	1.00	1.25	0.50	1.50	7.25	0.75	0.50	1.25	-0.114746	0.098633	0.979980	-3.290000	0.560000	0.140000	497.00	-0.02	-0.14
0.89	8.25	5.25	8.00	5.75	6.50	7.75	3.00	8.50	2.75	3.25	2.25	2.25	8.50	1.00	0.75	1.25	-0.162598	0.083496	0.961914	-3.360000	2.520000	2.100000	907.00	-0.08	-0.12	3.00	1.50	2.75	2.00	3.00	3.00	4.25	6.75	1.00	1.25	0.50	1.50	7.25	0.50	0.50	1.50	-0.113281	0.099609	0.977051	-3.150000	0.630000	0.210000	500.00	-0.02	-0.14
0.90	8.50	5.25	8.25	6.00	6.75	7.50	3.00	8.50	2.75	3.25	2.00	2.25	8.50	1.25	0.75	1.25	-0.164551	0.078125	0.966797	-2.590000	2.170000	2.520000	916.00	-0.08	-0.11	3.25	1.50	2.75	1.75	3.25	3.25	4.25	6.75	1.00	1.00	0.50	1.25	7.25	0.75	0.50	1.50	-0.118652	0.103516	0.976562	-3.010000	0.700000	0.210000	502.00	-0.02	-0.14
0.91	8.50	5.75	8.50	6.75	6.75	7.75	3.00	8.50	2.50	3.00	2.00	2.00	8.50	1.25	0.75	1.00	-0.163086	0.085449	0.965332	-2.170000	1.820000	2.870000	925.00	-0.09	-0.12	3.25	1.75	3.00	1.25	3.00	3.25	4.25	6.75	1.00	1.25	0.50	1.50	7.25	0.75	0.50	1.25	-0.118164	0.104004	0.988281	-2.800000	0.840000	0.140000	503.00	-0.02	-0.14
0.92	9.25	5.75	8.50	7.00	6.75	7.75	3.00	8.50	2.50	3.00	1.75	1.75	8.25	1.25	0.50	0.75	-0.168945	0.075195	0.964844	-1.610000	1.540000	3.150000	924.00	-0.10	-0.11	3.00	1.50	2.75	1.75	3.25	3.00	4.25	6.75	1.00	1.00	0.50	1.25	7.25	0.50	0.25	1.00	-0.116211	0.103516	0.985840	-2.660000	0.840000	0.210000	488.00	-0.03	-0.14
0.93	9.50	6.00	8.75	7.75	7.00	8.00	3.00	8.50	2.50	2.75	1.50	1.50	8.25	1.25	0.50	0.75	-0.160645	0.078613	0.968262	-0.700000	1.750000	3.290000	939.00	-0.11	-0.11	3.00	1.25	2.75	1.50	3.25	3.00	4.25	6.75	1.25	1.00	0.50	1.50	7.25	0.75	0.50	1.25	-0.117188	0.103516	0.983398	-2.450000	0.980000	0.280000	496.00	-0.01	-0.14
0.94	10.50	6.25	9.00	7.75	6.75	8.00	3.00	8.50	2.00	2.75	1.50	1.50	8.00	1.50	0.50	0.75	-0.161133	0.073730	0.971680	0.910000	2.030000	3.430000	945.00	-0.11	-0.11	2.75	1.50	2.75	1.75	3.25	3.00	4.25	6.75	0.75	1.00	0.50	1.25	7.25	0.50	0.25	1.25	-0.119629	0.102539	0.993164	-1.750000	0.910000	0.350000	483.00	-0.03	-0.14
0.95	11.25	7.25	9.25	8.25	6.75	8.25	3.00	8.50	2.25	2.75	1.50	1.50	8.00	1.00	0.50	0.50	-0.160156	0.079102	0.969238	3.080000	2.450000	3.850000	973.00	-0.12	-0.11	3.00	1.25	3.00	1.75	3.00	3.00	4.25	6.50	1.00	1.00	0.50	1.50	6.75	0.50	0.50	1.00	-0.120605	0.105957	0.991699	-0.140000	0.980000	0.490000	483.00	-0.02	-0.13
0.96	12.00	8.00	9.25	8.50	6.50	8.25	3.00	8.50	1.75	2.75	1.25	1.25	7.75	1.00	0.25	0.50	-0.156250	0.086426	0.965820	5.040000	2.800000	4.130000	971.00	-0.14	-0.11	3.00	1.25	2.75	1.50	3.00	3.00	4.00	6.50	1.00	1.00	0.50	1.00	6.50	0.50	0.00	1.00	-0.125000	0.097656	0.992676	1.470000	1.260000	0.700000	459.00	-0.03	-0.14
0.97	13.00	8.50	9.50	8.75	7.00	8.50	2.75	8.50	2.00	2.50	1.25	1.25	7.75	1.00	0.50	0.50	-0.155273	0.087402	0.969238	6.160000	2.870000	4.340000	1002.00	-0.14	-0.11	3.25	1.25	3.00	2.00	3.00	3.00	4.00	6.50	1.00	0.75	0.50	0.75	6.25	0.50	0.50	1.00	-0.133301	0.103027	0.993164	5.180000	1.260000	1.190000	468.00	-0.04	-0.13
0.98	13.75	9.25	9.75	9.00	6.75	8.50	2.75	8.50	1.75	2.25	1.00	1.00	7.50	0.75	0.50	0.25	-0.159180	0.093750	0.971191	6.580000	3.920000	4.270000	1003.00	-0.15	-0.11	3.50	1.25	3.00	1.50	2.75	3.00	4.00	6.25	0.75	0.50	0.25	0.75	6.00	0.50	0.00	0.75	-0.123535	0.104492	0.991211	8.120000	0.630000	1.610000	439.00	-0.05	-0.13
0.99	15.00	9.50	10.00	9.25	6.75	8.50	2.75	8.25	1.50	2.50	1.00	1.00	7.25	0.75	0.25	0.25	-0.149414	0.092285	0.970215	7.350000	3.570000	3.990000	1015.00	-0.16	-0.10	3.50	1.50	3.25	2.00	2.75	3.00	4.00	6.25	0.75	0.50	0.00	0.75	5.75	0.50	0.25	0.75	-0.118164	0.110840	0.980469	9.240000	-0.140000	2.030000	448.00	-0.06	-0.13
1.00	15.50	10.00	10.25	9.50	6.75	8.50	2.75	8.25	1.25	2.00	1.00	0.75	7.00	0.75	0.50	0.00	-0.149414	0.103027	0.963379	7.630000	3.290000	3.710000	1019.00	-0.17	-0.10	3.50	1.25	3.25	2.00	2.75	3.00	4.00	6.00	0.75	0.75	0.00	0.25	5.25	0.25	0.25	0.50	-0.111328	0.106934	0.986328	8.120000	-0.910000	1.960000	430.00	-0.06	-0.12
1.01	16.00	10.75	10.50	9.75	6.75	8.75	2.75	8.25	1.00	2.25	0.75	0.50	6.75	0.75	0.50	0.00	-0.148438	0.107910	0.957520	5.320000	1.680000	3.360000	1032.00	-0.18	-0.10	4.00	1.75	3.50	2.25	2.75	2.75	4.00	6.00	0.50	0.50	0.00	0.25	4.75	0.00	0.50	0.50	-0.114258	0.110352	0.981445	7.700000	-1.890000	2.030000	433.00	-0.08	-0.12
1.02	16.75	11.25	10.75	9.75	6.75	8.75	2.75	8.25	1.25	2.00	1.00	0.75	6.25	0.75	0.25	0.25	-0.156250	0.095703	0.962891	4.550000	0.770000	3.010000	1049.00	-0.18	-0.10	4.00	2.00	3.25	2.00	2.50	3.00	4.00	5.75	0.50	0.25	0.00	0.00	4.25	0.25	0.00	0.25	-0.108398	0.106445	0.976562	6.930000	-2.100000	1.750000	410.00	-0.09	-0.11
1.03	17.50	11.50	11.00	10.25	6.75	8.75	2.75	8.00	1.25	1.75	0.75	0.50	6.00	0.50	0.25	0.00	-0.156250	0.093750	0.975586	4.830000	0.490000	3.010000	1051.00	-0.19	-0.10	4.00	2.00	3.00	2.50	2.50	3.00	3.75	5.75	0.25	0.25	0.00	0.25	3.75	0.50	0.00	0.00	-0.115234	0.121582	0.981445	6.580000	-2.170000	1.680000	404.00	-0.10	-0.12
1.04	18.50	12.00	11.25	10.25	6.75	8.75	2.75	8.00	1.25	2.25	0.75	0.25	5.75	0.75	0.50	0.25	-0.150391	0.103516	0.963867	5.320000	0.770000	3.010000	1077.00	-0.19	-0.09	4.00	1.75	3.75	2.25	2.50	2.50	3.75	5.50	0.25	0.25	0.00	0.25	3.25	0.50	0.25	0.50	-0.115234	0.110352	0.986816	6.370000	-2.240000	1.050000	399.00	-0.10	-0.10
1.05	18.75	12.25	11.50	10.50	6.75	8.75	2.75	8.00	1.25	2.00	1.00	0.25	5.50	0.75	0.25	0.25	-0.147461	0.112305	0.961914	4.830000	1.330000	2.660000	1083.00	-0.19	-0.09	4.50	2.00	3.75	2.50	2.50	2.50	3.75	5.50	0.25	0.25	0.00	0.00	3.50	0.00	0.25	0.25	-0.109863	0.124512	0.965820	6.440000	-2.520000	1.120000	404.00	-0.11	-0.11
1.06	19.25	12.75	11.25	10.75	6.75	8.75	2.75	8.00	1.25	2.00	0.75	0.25	5.50	0.75	0.25	0.00	-0.145996	0.103027	0.961914	4.830000	2.100000	2.520000	1090.00	-0.20	-0.09	4.25	2.25	3.50	2.50	2.25	2.25	3.75	5.25	0.00	0.25	0.00	0.00	2.75	0.00	0.00	0.00	-0.117676	0.130371	0.973145	5.600000	-2.520000	1.190000	375.00	-0.13	-0.10
1.07	19.75	13.25	11.50	10.75	6.50	8.75	2.75	8.00	1.25	2.00	0.75	0.25	5.25	0.25	0.50	0.25	-0.143555	0.086426	0.965332	5.320000	3.080000	2.380000	1098.00	-0.20	-0.09	4.50	2.00	3.75	2.50	2.25	2.25	3.75	5.25	0.25	0.25	0.00	0.00	2.25	0.00	0.00	0.00	-0.119141	0.120117	0.975586	4.620000	-3.500000	1.050000	377.00	-0.13	-0.09
1.08	20.00	13.25	11.75	11.00	6.50	8.75	2.75	7.75	1.25	2.00	0.75	0.50	5.00	0.75	0.50	0.00	-0.148926	0.115234	0.963379	6.370000	4.060000	2.100000	1106.00	-0.20	-0.09	5.00	2.25	3.75	2.50	2.25	2.50	3.75	5.00	0.00	0.00	0.00	0.00	2.25	0.00	0.00	0.25	-0.119141	0.120117	0.975586	4.620000	-3.500000	1.050000	379.00	-0.14	-0.09
1.09	20.00	13.25	11.50	11.00	6.50	8.75	2.75	7.75	1.25	2.00	0.50	0.25	5.00	0.50	0.25	0.25	-0.144043	0.103027	0.962891	5.460000	5.740000	1.960000	1094.00	-0.20	-0.09	5.00	2.25	4.00	2.75	2.25	2.25	3.75	5.00	0.00	0.00	0.00	0.00	2.00	0.00	0.00	0.25	-0.111328	0.123535	0.966797	3.500000	-3.430000	0.980000	380.00	-0.14	-0.09
1.10	19.75	13.25	11.50	11.00	6.25	8.50	2.75	7.75	1.00	1.50	0.75	0.25	4.75	0.75	0.50	0.00	-0.136719	0.112305	0.961426	4.270000	6.510000	1.680000	1080.00	-0.20	-0.09	5.00	2.50	4.25	3.00	2.25	2.25	3.75	4.75	0.25	0.00	0.00	0.00	1.75	0.00	0.25	0.25	-0.114746	0.124023	0.965820	1.540000	-3.430000	0.840000	389.00	-0.14	-0.08
1.11	19.75	13.25	11.25	11.00	6.00	8.50	2.75	7.75	1.25	2.00	0.75	0.25	4.75	0.50	0.50	0.00	-0.140137	0.110840	0.951660	0.910000	7.420000	1.190000	1081.00	-0.20	-0.09	5.25	2.75	4.75	3.00	2.25	2.25	3.75	4.50	0.00	0.00	0.00	0.00	1.75	0.00	0.00	0.00	-0.115234	0.123535	0.973633	0.560000	-3.500000	0.770000	388.00	-0.16	-0.07
1.12	20.00	13.25	11.50	10.75	6.25	8.50	2.50	7.75	1.25	1.75	0.75	0.00	4.75	0.50	0.25	0.25	-0.145508	0.114746	0.950195	-3.290000	8.680000	0.910000	1075.00	-0.21	-0.09	5.50	2.75	4.50	3.25	2.25	2.25	3.75	4.50	0.00	0.00	0.00	0.00	1.25	0.00	0.00	0.00	-0.118164	0.126465	0.969727	0.140000	-3.290000	0.630000	386.00	-0.17	-0.07
1.13	19.25	13.00	11.25	10.75	6.25	8.25	2.75	7.50	1.25	1.75	1.00	0.25	5.00	0.75	0.50	0.00	-0.148438	0.115723	0.949219	-7.280000	9.870000	0.490000	1070.00	-0.20	-0.09	5.75	3.00	5.00	3.25	2.50	2.25	3.75	4.50	0.00	0.00	0.00	0.00	1.50	0.00	0.00	0.00	-0.113281	0.122070	0.977539	-0.140000	-3.080000	0.560000	403.00	-0.17	-0.07
1.14	19.00	13.00	11.25	10.75	6.00	8.25	2.75	7.50	1.25	2.00	0.50	0.25	4.75	0.75	0.25	0.00	-0.151367	0.107910	0.957031	-10.430000	10.570000	-0.070000	1056.00	-0.20	-0.09	5.75	3.00	5.00	3.75	2.25	2.50	3.75	4.25	0.00	0.00	0.00	0.00	1.25	0.00	0.00	0.00	-0.109375	0.128906	0.969727	-0.350000	-2.590000	0.350000	402.00	-0.17	-0.07
1.15	18.75	12.75	11.25	10.50	6.00	8.25	2.75	7.50	1.50	2.00	0.75	0.50	4.50	0.75	0.25	0.00	-0.152832	0.102539	0.966797	-12.110000	10.570000	-0.280000	1055.00	-0.20	-0.08	6.00	3.00	5.00	3.75	2.25	2.50	3.75	4.00	0.00	0.00	0.00	0.00	1.25	0.00	0.00	0.00	-0.104492	0.132324	0.961914	-1.050000	-1.470000	0.210000	401.00	-0.18	-0.06
1.16	19.00	12.50	11.00	10.25	6.00	8.25	2.75	7.50	1.25	2.00	1.00	0.00	4.75	0.75	0.25	0.00	-0.154785	0.100586	0.960938	-10.850000	9.240000	-0.280000	1045.00	-0.20	-0.08	6.00	3.00	5.00	3.75	2.25	2.25	3.75	4.25	0.00	0.00	0.00	0.00	1.50	0.50	0.00	0.00	-0.106445	0.131836	0.966797	-2.380000	0.070000	0.350000	409.00	-0.17	-0.06
1.17	18.50	12.25	11.00	10.50	6.25	8.00	2.75	7.50	1.25	2.00	0.75	0.00	5.00	0.75	0.50	0.00	-0.161133	0.097168	0.964844	-9.870000	8.680000	-0.280000	1042.00	-0.20	-0.09	6.00	3.25	5.25	4.00	2.25	2.25	3.75	4.00	0.00	0.25	0.00	0.00	1.25	0.00	0.00	0.00	-0.106445	0.130371	0.965820	-4.060000	1.470000	0.070000	409.00	-0.18	-0.06
1.18	18.25	12.25	11.00	10.25	6.00	8.00	2.75	7.25	1.25	2.00	0.75	0.25	4.75	0.50	0.50	0.00	-0.163574	0.095703	0.969238	-8.400000	8.050000	-0.210000	1027.00	-0.20	-0.09	6.00	3.25	5.00	4.00	2.25	2.50	3.75	4.25	0.00	0.25	0.00	0.00	1.50	0.00	0.00	0.00	-0.114746	0.134277	0.972168	-5.530000	2.450000	-0.210000	416.00	-0.17	-0.07
1.19	18.00	12.00	10.75	10.25	6.00	8.00	2.75	7.25	1.25	2.00	0.75	0.00	4.75	0.75	0.00	0.25	-0.159180	0.095215	0.964355	-7.000000	7.630000	0.070000	1014.00	-0.20	-0.09	6.25	3.50	5.25	4.00	2.00	2.25	3.75	4.25	0.25	0.00	0.00	0.00	1.00	0.00	0.00	0.25	-0.108398	0.132324	0.963867	-6.580000	2.940000	-0.280000	416.00	-0.18	-0.06
1.20	18.25	11.75	10.75	10.00	6.00	8.00	2.75	7.25	1.25	2.00	0.75	0.25	5.00	1.00	0.25	0.00	-0.162598	0.096191	0.973145	-5.320000	7.210000	0.210000	1020.00	-0.19	-0.08	6.00	3.25	5.25	4.00	2.25	2.25	3.75	4.00	0.00	0.25	0.00	0.00	1.50	0.00	0.00	0.00	-0.113770	0.126465	0.970703	-7.630000	3.290000	-0.420000	412.00	-0.18	-0.06
1.21	18.00	11.75	10.75	10.00	5.75	7.75	2.75	7.00	1.25	1.75	0.75	0.00	5.00	1.00	0.25	0.00	-0.162109	0.093262	0.974121	-3.010000	6.860000	0.420000	1002.00	-0.20	-0.08	6.00	3.50	5.00	4.00	2.25	2.25	3.75	4.50	0.25	0.25	0.00	0.00	1.75	0.00	0.00	0.00	-0.115723	0.128906	0.979980	-8.120000	2.520000	-0.560000	425.00	-0.17	-0.07
1.22	17.50	11.50	10.50	10.00	5.75	7.75	2.75	7.00	1.25	2.00	0.75	0.00	4.50	1.00	0.25	0.00	-0.164551	0.098633	0.961914	-1.680000	6.720000	0.560000	989.00	-0.20	-0.08	6.00	3.25	5.25	4.00	2.25	2.50	3.75	4.25	0.00	0.25	0.00	0.00	2.00	0.25	0.00	0.00	-0.122070	0.128418	0.973145	-7.840000	1.750000	-0.490000	426.00	-0.17	-0.07
1.23	17.25	11.25	10.50	10.00	5.75	7.75	2.75	7.00	1.00	2.00	0.75	0.00	4.75	0.50	0.25	0.00	-0.158691	0.099609	0.957031	-1.820000	7.000000	0.490000	977.00	-0.20	-0.09	6.00	3.25	5.00	4.00	2.25	2.50	3.75	4.25	0.00	0.00	0.00	0.00	2.00	0.25	0.00	0.00	-0.116699	0.124023	0.973145	-7.910000	1.120000	-0.420000	420.00	-0.17	-0.07
1.24	17.25	11.00	10.50	9.75	5.75	7.50	2.75	6.75	1.25	2.00	0.75	0.00	5.00	0.75	0.25	0.25	-0.154297	0.099609	0.960449	-2.310000	7.700000	0.280000	974.00	-0.19	-0.08	6.25	3.50	5.25	4.00	2.50	2.50	3.75	4.50	0.25	0.00	0.00	0.00	2.00	0.00	0.00	0.00	-0.115234	0.122070	0.978027	-8.330000	0.910000	-0.420000	437.00	-0.17	-0.07
1.25	16.75	10.75	10.25	9.50	5.75	7.50	2.75	6.75	1.25	2.00	0.75	0.25	4.50	0.75	0.25	0.25	-0.159668	0.107910	0.969727	-2.660000	8.330000	0.210000	958.00	-0.19	-0.08	6.00	3.25	5.25	4.00	2.25	2.75	3.75	4.25	0.25	0.25	0.00	0.00	2.00	0.25	0.25	0.00	-0.116699	0.120117	0.979980	-8.330000	0.490000	-0.350000	435.00	-0.16	-0.07
1.26	16.25	10.50	10.00	9.50	5.50	7.50	2.75	6.75	1.25	2.25	0.75	0.25	4.50	0.75	0.25	0.00	-0.158691	0.105469	0.964355	-2.940000	8.960000	0.140000	945.00	-0.19	-0.08	6.00	3.50	5.25	4.25	2.50	2.75	4.00	4.50	0.25	0.00	0.00	0.00	2.00	0.00	0.00	0.00	-0.115234	0.123047	0.977539	-7.840000	-0.140000	-0.280000	444.00	-0.17	-0.07
1.27	15.75	10.25	10.00	9.00	5.50	7.25	2.75	6.50	1.25	2.25	0.75	0.00	4.50	0.75	0.50	0.00	-0.157715	0.103027	0.962402	-3.430000	9.940000	-0.070000	924.00	-0.19	-0.08	6.50	3.25	5.50	4.00	2.50	2.75	4.00	4.50	0.25	0.25	0.00	0.00	2.00	0.25	0.00	0.00	-0.116211	0.121582	0.982422	-7.700000	-0.490000	-0.000000	452.00	-0.16	-0.07
1.28	15.25	9.75	9.75	9.00	5.50	7.25	2.75	6.50	1.50	2.25	1.00	0.50	5.00	0.75	0.50	0.00	-0.145020	0.094238	0.932129	-8.610000	10.570000	-0.910000	927.00	-0.18	-0.08	6.25	3.50	5.50	4.25	3.25	3.00	4.00	4.75	0.25	0.25	0.00	0.00	2.00	0.25	0.25	0.00	-0.119141	0.122559	0.976562	-8.050000	-0.630000	0.070000	474.00	-0.16	-0.07
1.29	14.50	9.25	9.50	8.75	5.25	7.00	2.75	6.50	1.50	2.25	1.00	0.25	5.00	1.00	0.25	0.25	-0.145020	0.094238	0.932129	-8.610000	10.570000	-0.910000	900.00	-0.17	-0.09	5.50	2.75	5.00	4.00	2.75	3.50	4.00	5.00	0.50	0.25	0.00	0.00	2.00	0.00	0.00	0.25	-0.117676	0.118164	0.978027	-8.190000	-0.840000	-0.000000	453.00	-0.15	-0.08
1.30	13.50	8.75	9.25	8.25	5.50	7.00	2.75	6.75	1.75	2.50	1.00	0.50	5.25	0.75	0.50	0.25	-0.146973	0.098633	0.942383	-12.810000	10.710000	-1.750000	894.00	-0.16	-0.09	6.75	3.50	5.75	4.75	2.75	3.25	4.00	5.00	0.00	0.50	0.00	0.00	2.50	0.25	0.00	0.25	-0.120117	0.118652	0.980957	-8.540000	-0.980000	0.140000	493.00	-0.16	-0.08
1.31	12.25	8.00	8.75	7.75	5.25	6.75	2.75	7.00	2.00	2.50	1.25	0.75	5.50	0.75	0.25	0.25	-0.151367	0.092773	0.990234	-11.830000	10.990000	-2.310000	867.00	-0.15	-0.09	6.75	3.75	6.00	5.00	3.00	3.25	4.00	5.25	0.25	0.25	0.00	0.00	2.25	0.25	0.00	0.00	-0.116699	0.116699	0.975098	-8.820000	-1.120000	0.280000	505.00	-0.16	-0.08
1.32	10.00	7.00	8.25	7.00	5.25	6.25	2.75	7.50	1.75	2.75	1.50	1.25	5.50	1.00	0.50	0.50	-0.164062	0.086426	0.987305	-5.530000	14.210000	-2.240000	833.00	-0.13	-0.10	6.75	4.00	5.75	5.00	3.00	3.25	4.00	5.25	0.25	0.25	0.00	0.00	2.50	0.25	0.00	0.00	-0.114258	0.112793	0.982422	-9.450000	-0.700000	0.630000	507.00	-0.16	-0.08
1.33	8.25	6.00	7.50	6.00	4.75	5.75	2.75	7.50	2.25	3.00	1.75	1.25	6.25	1.00	0.50	0.50	-0.178223	0.070312	0.998535	3.360000	19.740000	-2.100000	790.00	-0.10	-0.11	7.25	4.25	6.00	5.25	2.75	3.75	4.00	5.25	0.25	0.25	0.00	0.00	2.75	0.25	0.00	0.25	-0.114258	0.112793	0.982422	-9.450000	-0.700000	0.630000	528.00	-0.17	-0.09
1.34	4.75	1.50	5.00	1.50	2.75	1.75	2.50	6.50	0.75	2.00	1.00	1.75	6.75	0.50	0.25	0.00	-0.121094	0.067871	1.028320	14.070000	26.040001	-1.960000	487.00	-0.05	-0.13	7.50	4.50	6.25	5.25	3.00	3.75	4.00	5.50	0.25	0.00	0.00	0.00	3.25	0.25	0.00	0.25	-0.113281	0.111816	0.979492	-9.170000	-1.680000	0.770000	545.00	-0.17	-0.09
1.35	2.75	0.25	3.25	0.00	2.00	1.25	2.50	7.00	1.00	2.25	1.25	0.75	6.25	0.00	0.00	0.00	-0.198242	0.133301	1.070312	31.570000	39.759998	-2.450000	392.00	-0.01	-0.15	7.50	4.75	6.75	5.50	3.25	4.25	4.25	5.75	0.25	0.50	0.00	0.00	3.25	0.00	0.00	0.25	-0.118652	0.110840	0.974609	-9.520000	-2.170000	0.910000	578.00	-0.16	-0.09
1.36	2.00	0.00	2.50	0.00	1.50	0.25	2.50	6.25	0.75	2.00	1.25	0.75	5.75	0.00	0.00	0.25	-0.064453	0.077637	1.134277	69.440002	73.220001	-2.730000	331.00	0.02	-0.15	8.25	5.00	7.00	6.00	3.00	4.25	4.25	6.00	0.25	0.25	0.00	0.00	3.25	0.50	0.00	0.25	-0.109863	0.108887	0.970215	-9.870000	-2.870000	1.120000	601.00	-0.17	-0.09
1.37	0.50	0.00	1.75	0.00	1.00	0.00	2.25	5.75	1.50	2.25	1.75	2.00	6.25	0.50	0.75	1.50	-0.251953	0.167480	1.205566	97.019997	97.160004	-4.270000	343.00	0.09	-0.17	9.00	5.25	7.25	6.25	3.50	5.00	4.25	6.25	0.50	0.50	0.00	0.25	4.00	0.25	0.00	0.25	-0.108887	0.104980	0.977051	-10.570000	-3.990000	1.190000	651.00	-0.16	-0.09
1.38	0.00	0.00	1.00	0.00	0.75	0.00	2.25	4.75	0.50	2.00	1.50	1.25	5.50	0.00	0.00	1.25	-0.269043	0.212402	1.209473	99.190002	129.990005	-7.140000	258.00	0.09	-0.19	9.25	5.50	7.50	6.50	3.50	5.00	4.25	6.50	0.75	0.50	0.00	0.25	4.25	0.50	0.25	0.00	-0.109863	0.104980	0.979492	-10.150000	-5.250000	1.400000	676.00	-0.16	-0.09
1.39	0.00	0.00	0.25	0.00	0.25	0.00	2.00	3.50	0.50	1.50	1.25	1.25	4.75	0.00	0.00	1.50	-0.104980	0.202148	1.373535	97.019997	174.369995	-13.930000	204.00	0.12	-0.20	10.50	5.50	8.00	7.25	3.75	5.25	4.25	6.75	0.50	0.50	0.00	0.25	4.50	0.25	0.00	0.25	-0.106445	0.107910	0.977051	-9.100000	-6.230000	1.610000	710.00	-0.17	-0.09
1.40	0.00	0.00	0.25	0.00	0.25	0.00	2.00	2.25	0.00	1.50	1.50	1.75	5.75	1.00	0.75	1.25	-0.110352	0.339355	1.779785	87.919998	213.220001	-18.620001	210.00	0.15	-0.19	10.50	6.25	7.75	7.50	4.00	5.75	4.25	7.00	0.50	0.50	0.00	0.25	5.00	0.25	0.25	0.50	-0.109863	0.112305	0.986328	-8.050000	-6.720000	1.470000	740.00	-0.17	-0.10
1.41	1.50	1.75	1.25	2.00	1.00	0.75	2.25	3.25	1.75	2.25	1.75	1.25	5.00	1.00	0.75	2.00	-0.344727	0.321289	1.580566	69.860001	241.220001	-26.460001	348.00	0.04	-0.12	10.25	6.25	8.25	8.00	4.25	6.25	4.25	7.50	0.25	0.50	0.25	0.50	5.50	0.50	0.25	0.50	-0.109375	0.110840	0.984375	-7.280000	-7.210000	1.400000	776.00	-0.16	-0.11
1.42	1.75	1.25	2.00	1.50	0.75	0.50	2.25	2.50	1.50	2.25	1.25	0.75	3.25	0.75	0.50	1.50	-0.282715	0.313477	1.667969	42.070000	257.529999	-34.369999	291.00	0.02	-0.08	11.50	6.50	8.50	8.25	4.25	6.50	4.25	7.50	0.25	0.50	0.25	0.50	6.00	0.50	0.25	0.50	-0.103516	0.105957	0.986328	-7.070000	-7.140000	1.260000	806.00	-0.16	-0.11
1.43	1.50	1.00	1.25	0.50	0.50	0.00	2.00	0.00	0.00	1.25	0.25	0.00	0.00	0.00	0.00	0.00	-0.412598	0.388184	1.500488	15.890000	276.360016	-40.389999	104.00	-0.10	0.09	11.75	7.00	8.50	8.50	4.75	7.00	4.25	7.75	0.25	0.50	0.25	0.50	6.00	0.25	0.25	0.50	-0.105957	0.107910	0.983398	-6.580000	-7.000000	1.190000	831.00	-0.17	-0.11
1.44	0.00	0.00	0.50	0.00	0.25	0.00	2.00	0.00	0.50	1.25	0.50	0.00	0.00	0.50	0.25	0.50	-0.353516	0.300781	1.603516	-5.180000	287.070007	-46.549999	80.00	0.14	0.13	11.75	7.00	9.00	8.75	5.00	7.50	4.25	8.00	0.75	0.75	0.50	0.75	6.50	0.50	0.25	0.50	-0.108398	0.115234	0.985352	-5.460000	-6.720000	1.260000	876.00	-0.16	-0.11
1.45	1.25	1.00	1.75	0.50	0.75	0.00	2.25	0.00	0.75	1.50	0.50	0.00	0.00	0.25	0.25	0.00	0.217773	0.584473	1.643555	-19.530001	256.130005	-54.810001	136.00	-0.04	0.10	12.50	7.25	8.75	9.00	5.50	7.75	4.50	8.00	0.75	0.75	0.25	0.75	6.75	0.50	0.25	0.75	-0.104492	0.106445	0.979980	-4.830000	-6.370000	1.120000	901.00	-0.16	-0.11
1.46	0.00	0.00	0.25	0.00	0.25	0.00	2.00	0.00	0.00	0.75	0.00	0.00	0.00	0.00	0.00	0.00	0.682617	0.334473	1.931641	-7.700000	206.500000	-57.959999	48.00	0.00	0.00	13.00	7.50	9.00	9.50	5.50	8.25	4.25	8.25	0.75	1.00	0.50	1.25	7.00	0.50	0.25	0.50	-0.098145	0.102539	0.983398	-4.060000	-6.650000	1.120000	936.00	-0.16	-0.11
1.47	0.00	0.00	0.00	0.00	0.25	0.00	2.00	0.00	0.00	0.50	0.00	0.00	0.00	0.00	0.00	0.00	1.928711	0.719238	1.931641	11.690000	151.550003	-54.599998	42.00	0.00	0.00	13.50	8.25	9.50	9.75	5.75	8.50	4.50	8.25	0.75	0.75	0.50	1.00	7.50	0.50	1.00	1.25	-0.096191	0.107910	0.979492	-4.130000	-7.350000	1.190000	981.00	-0.15	-0.11
1.48	0.00	0.00	0.00	0.00	0.25	0.00	2.00	0.00	0.00	0.75	0.00	0.00	0.00	0.00	0.00	0.00	1.911133	0.454102	2.200195	-3.640000	71.400002	-39.270000	44.00	0.00	0.00	14.50	8.75	10.00	10.25	7.00	9.00	4.75	8.75	0.75	1.00	1.00	2.00	7.50	0.50	0.00	0.75	-0.098633	0.107422	0.982910	-4.130000	-8.120000	1.330000	1048.00	-0.16	-0.11
1.49	0.00	0.00	0.00	0.00	0.25	0.00	2.00	0.00	0.00	0.50	0.00	0.00	0.00	0.00	0.00	0.00	1.991211	0.244629	1.214844	-2.380000	-9.590000	-23.100000	42.00	0.00	0.00	15.25	10.25	10.75	10.75	6.50	9.25	4.75	9.00	1.75	1.75	1.25	2.25	8.75	1.00	1.00	1.75	-0.096191	0.103027	0.980469	-3.850000	-8.330000	1.330000	1151.00	-0.14	-0.11
1.50	0.00	0.00	0.00	0.00	0.00	0.00	2.00	0.00	0.00	0.50	0.00	0.00	0.00	0.00	0.00	0.00	1.939453	0.036621	0.839355	1.330000	-49.700001	-23.660000	39.00	0.00	0.00	17.75	11.00	11.25	12.50	7.50	10.50	5.00	9.50	2.00	2.00	1.50	2.75	9.50	1.25	1.50	1.75	-0.091797	0.105957	0.978027	-3.780000	-8.400000	1.190000	1283.00	-0.14	-0.10
1.51	0.00	0.00	0.00	0.00	0.25	0.00	2.00	0.00	0.00	0.75	0.00	0.00	0.00	0.00	0.00	0.00	1.924316	-0.148926	0.692871	-1.050000	-68.529999	-34.020000	44.00	0.00	0.00	18.50	12.00	11.50	13.00	7.50	11.25	5.00	9.50	2.00	2.00	1.50	2.50	9.50	1.50	1.25	1.75	-0.087891	0.105957	0.988281	-3.500000	-8.400000	1.120000	1316.00	-0.14	-0.10
1.52	0.00	0.00	0.00	0.00	0.00	0.00	2.00	0.00	0.00	0.50	0.00	0.00	0.00	0.00	0.00	0.00	1.898438	-0.089844	0.907227	-5.740000	-89.180000	-45.639999	39.00	0.00	0.00	16.00	9.25	10.25	12.50	7.75	9.25	5.00	9.00	0.50	1.25	1.50	2.50	9.00	1.25	1.25	0.75	-0.086426	0.107422	0.990234	-2.800000	-7.560000	1.190000	1167.00	-0.15	-0.11
1.53	0.00	0.00	0.00	0.00	0.25	0.00	2.00	0.00	0.00	0.50	0.25	0.00	0.00	0.00	0.00	0.00	1.810547	-0.027832	1.022461	-5.110000	-119.209999	-52.430000	44.00	0.00	0.00	21.00	13.75	12.75	14.25	8.50	12.00	5.00	10.00	2.25	2.00	1.75	3.00	10.25	1.75	1.50	2.00	-0.079102	0.108887	0.987793	-2.310000	-6.020000	0.910000	1448.00	-0.15	-0.10
1.54	0.00	0.00	0.00	0.00	0.25	0.00	2.00	0.00	0.00	0.50	0.00	0.00	0.00	0.00	0.00	0.00	1.651855	-0.037598	1.026855	-1.890000	-150.850006	-54.320000	42.00	0.00	0.00	21.50	14.00	13.00	14.75	8.50	12.25	5.00	10.00	2.25	2.00	1.75	3.00	10.50	1.50	1.75	2.00	-0.076172	0.115234	0.992188	-2.240000	-4.340000	0.700000	1471.00	-0.15	-0.10
1.55	0.00	0.00	0.00	0.00	0.25	0.00	2.00	0.00	0.00	0.50	0.00	0.00	0.00	0.00	0.00	0.00	1.442871	-0.006348	1.017578	1.610000	-177.240005	-51.029999	42.00	0.00	0.00	21.00	14.25	13.00	14.50	8.50	12.50	5.00	9.50	2.25	2.25	1.50	2.50	10.25	2.00	1.25	1.75	-0.081055	0.113281	0.996582	-2.310000	-2.660000	0.420000	1448.00	-0.15	-0.10
1.56	0.00	0.00	0.00	0.00	0.00	0.00	2.00	0.00	0.00	0.50	0.00	0.00	0.00	0.00	0.00	0.00	1.217285	0.044434	1.033203	5.390000	-196.139999	-41.299999	39.00	0.00	0.00	20.00	13.75	12.75	14.50	8.75	12.50	5.00	10.00	2.00	1.25	0.50	3.00	10.25	1.50	1.50	1.00	-0.079590	0.110352	0.987793	-2.030000	-0.700000	-0.070000	1413.00	-0.16	-0.11
1.57	0.00	0.00	0.00	0.00	0.25	0.00	2.25	0.00	0.00	1.00	0.25	0.00	0.00	0.00	0.00	0.00	0.981934	0.100098	1.062500	9.730000	-207.690002	-25.969999	54.00	0.11	0.18	20.50	13.25	12.50	14.00	8.50	12.50	5.00	10.25	2.50	2.00	2.00	3.25	10.75	1.75	1.50	2.25	-0.082520	0.107422	0.987305	-1.750000	2.870000	-0.770000	1456.00	-0.14	-0.11
1.58	0.00	0.00	0.50	0.00	0.25	0.00	2.00	0.00	0.00	0.75	0.00	0.00	0.00	0.00	0.00	0.00	0.742676	0.148438	1.090332	14.980000	-212.240005	-6.930000	51.00	0.05	0.18	19.75	12.75	12.25	14.00	8.75	12.50	5.00	10.25	2.25	2.25	2.00	3.25	10.75	2.00	1.50	2.25	-0.082520	0.106445	0.988770	-1.680000	4.130000	-1.050000	1444.00	-0.14	-0.11
1.59	0.00	0.00	0.25	0.00	0.25	0.00	2.00	0.00	0.00	0.50	0.00	0.00	0.00	0.00	0.00	0.00	0.469238	0.217285	1.152832	23.170000	-209.649994	13.580000	45.00	0.00	0.00	18.50	12.00	11.75	13.50	8.50	12.50	5.00	10.25	2.25	2.25	1.75	3.50	11.00	1.50	1.75	2.50	-0.080566	0.100098	0.967773	-1.890000	4.970000	-1.260000	1410.00	-0.13	-0.11
1.60	0.00	0.00	0.00	0.00	0.25	0.00	2.00	0.00	0.00	0.50	0.00	0.00	0.00	0.00	0.00	0.00	0.017090	0.450684	1.662598	40.880001	-200.059998	49.209999	42.00	0.00	0.00	17.75	11.25	11.50	13.00	8.50	12.25	5.00	10.25	2.50	2.00	2.25	3.75	11.00	1.75	1.75	2.50	-0.084473	0.106445	0.978516	-1.750000	5.530000	-1.400000	1393.00	-0.12	-0.11
1.61	0.00	0.00	0.00	0.00	0.00	0.00	2.00	0.00	0.00	0.50	0.00	0.00	0.00	0.00	0.00	0.00	-0.217285	0.545898	1.926758	43.750000	-206.360001	67.830002	39.00	0.00	0.00	14.50	9.00	10.25	11.50	7.75	11.00	5.00	10.50	2.25	2.25	2.25	3.75	11.00	1.50	1.50	2.50	-0.086914	0.109375	0.979492	-1.820000	5.460000	-1.540000	1275.00	-0.11	-0.12
1.62	0.00	0.00	0.00	0.00	0.00	0.00	2.00	0.00	0.00	0.50	0.00	0.00	0.00	0.00	0.00	0.00	-0.500000	0.584473	1.971680	37.450001	-217.910004	87.639999	39.00	0.00	0.00	15.50	9.50	10.50	12.00	8.00	11.75	5.00	10.25	2.50	2.25	2.00	4.25	11.50	1.75	1.75	2.75	-0.090332	0.103516	0.973633	-1.960000	5.390000	-1.540000	1326.00	-0.11	-0.12
1.63	0.00	0.00	0.25	0.00	0.25	0.00	2.00	0.00	0.00	0.75	0.00	0.00	0.00	0.00	0.00	0.00	-0.867676	0.633301	1.785645	24.290001	-223.649994	104.930000	48.00	0.00	0.00	13.50	7.50	10.00	11.25	8.25	12.00	5.00	10.50	2.50	2.25	2.25	4.25	11.50	1.75	1.75	3.00	-0.084961	0.106445	0.967773	-2.240000	5.180000	-1.540000	1283.00	-0.10	-0.12
1.64	0.50	0.00	1.00	0.00	0.50	0.00	2.25	0.00	0.25	1.50	0.75	0.00	0.00	0.00	0.00	0.00	-1.240234	0.704102	1.576172	13.580000	-214.410004	117.739998	90.00	0.04	0.13	9.00	6.25	7.75	10.00	8.00	11.75	5.00	10.50	2.75	2.50	2.25	3.50	11.75	1.75	1.75	3.00	-0.086426	0.104492	0.974121	-2.800000	4.480000	-1.750000	1171.00	-0.07	-0.13
1.65	1.50	0.50	1.50	0.25	1.00	0.00	2.25	0.00	0.75	1.50	0.50	0.00	0.00	0.25	0.25	0.00	-1.537598	0.709961	1.456055	11.830000	-194.600006	127.400002	131.00	-0.02	0.12	12.25	7.50	9.50	10.00	8.00	12.00	5.00	10.50	2.50	2.50	2.75	5.00	12.00	2.00	2.00	3.25	-0.089844	0.105469	0.977539	-3.080000	3.360000	-1.680000	1273.00	-0.08	-0.13
1.66	1.50	0.75	1.50	0.50	0.75	0.00	2.25	0.00	0.50	1.50	0.75	0.00	0.00	0.50	0.25	0.00	-1.829590	0.637695	1.507812	20.719999	-175.139999	136.570007	135.00	-0.03	0.10	10.50	6.75	9.00	9.25	8.00	11.75	5.00	10.75	2.50	2.75	3.00	5.25	12.25	2.00	1.75	3.75	-0.086426	0.105469	0.973145	-3.710000	2.520000	-1.750000	1243.00	-0.07	-0.13
1.67	1.00	0.25	1.50	0.50	1.00	0.00	2.25	0.00	0.75	1.50	0.75	0.00	0.00	0.25	0.00	0.00	-2.157227	0.426270	1.484375	26.950001	-163.100006	144.619995	126.00	-0.01	0.11	10.75	6.75	8.75	9.25	8.00	11.75	5.00	11.00	2.75	2.75	3.25	5.75	12.75	2.25	2.00	4.25	-0.089844	0.105957	0.960938	-4.550000	2.170000	-2.100000	1272.00	-0.06	-0.13
1.68	0.25	0.00	1.00	0.00	0.50	0.00	2.00	0.00	0.00	1.00	0.25	0.00	0.00	0.00	0.00	0.00	-2.465820	0.207031	1.207031	21.420000	-155.820007	145.949997	68.00	0.01	0.15	9.25	6.25	8.50	9.00	8.25	12.00	5.00	11.00	2.75	3.25	3.50	6.50	13.00	2.25	2.25	4.50	-0.083984	0.105469	0.971191	-5.740000	1.120000	-2.170000	1274.00	-0.05	-0.14
1.69	0.50	0.00	1.00	0.00	0.50	0.00	2.25	0.00	0.50	1.50	0.75	0.00	0.00	0.25	0.00	0.00	-2.782715	0.061523	0.742676	4.410000	-144.339996	134.119995	96.00	0.06	0.14	9.00	5.75	8.25	8.50	8.25	12.00	5.00	11.25	2.75	3.25	4.00	7.25	13.25	2.50	2.25	5.00	-0.083984	0.105469	0.971191	-5.740000	1.120000	-2.170000	1283.00	-0.04	-0.14
1.70	0.75	0.75	1.75	0.50	1.00	0.00	2.25	0.00	0.75	1.25	1.00	0.00	0.00	0.25	0.25	0.00	-3.030762	0.082520	0.257812	-11.900000	-123.270004	106.820000	134.00	-0.01	0.09	8.50	5.75	8.00	8.00	8.50	11.75	5.00	11.25	3.00	3.50	4.25	7.75	13.50	2.50	2.50	5.25	-0.082520	0.104492	0.971191	-5.530000	0.070000	-2.590000	1290.00	-0.03	-0.14
1.71	1.25	1.00	1.50	0.50	0.75	0.00	2.25	0.00	0.50	1.25	1.00	0.00	0.00	0.50	0.25	0.00	-3.172363	0.167969	-0.009277	-10.920000	-96.809998	67.760002	135.00	-0.03	0.09	8.25	5.75	7.75	7.75	8.50	12.00	5.00	11.25	3.00	3.75	4.00	7.50	14.00	2.50	1.75	5.25	-0.081543	0.096191	0.974609	-4.690000	-0.140000	-2.660000	1277.00	-0.03	-0.14
1.72	1.75	1.25	1.50	0.75	1.00	0.00	2.25	0.00	0.75	1.75	0.75	0.00	0.00	0.50	0.00	0.00	-3.184082	0.170898	-0.103516	10.710000	-70.840004	25.410000	153.00	-0.05	0.09	7.50	5.25	7.75	7.25	8.75	12.00	5.00	11.50	3.00	4.00	5.50	8.25	14.50	2.75	2.75	6.50	-0.082031	0.104004	0.987305	-3.850000	0.490000	-2.800000	1320.00	-0.02	-0.15
1.73	1.75	1.25	1.75	0.75	0.75	0.00	2.25	0.00	0.50	1.25	0.75	0.00	0.00	0.00	0.00	0.00	-3.113281	0.056641	-0.132812	35.630001	-47.740002	-11.760000	139.00	-0.09	0.08	7.25	5.00	7.25	7.00	8.75	11.75	5.25	11.75	3.50	4.25	6.50	8.50	14.75	3.00	2.75	7.25	-0.076660	0.102539	0.978027	-3.080000	2.170000	-2.730000	1344.00	-0.00	-0.14
1.74	2.25	1.00	1.75	1.00	1.00	0.25	2.25	0.00	0.50	1.25	0.50	0.00	0.00	0.25	0.25	0.00	-3.075684	-0.803711	-0.621094	-24.920000	58.730000	-58.520000	153.00	-0.09	0.08	6.50	5.00	6.50	6.50	8.50	11.75	5.25	11.75	3.25	4.75	7.00	8.75	15.00	3.25	3.25	7.50	-0.082520	0.105469	0.987305	-2.380000	4.550000	-3.290000	1340.00	0.01	-0.15
1.75	2.75	2.00	2.50	1.50	1.25	0.00	2.25	0.00	0.50	1.25	0.75	0.00	0.00	0.75	0.25	0.00	-3.075684	-0.803711	-0.621094	-24.920000	58.730000	-58.520000	192.00	-0.11	0.06	6.50	4.75	6.25	6.00	8.50	11.50	5.25	11.75	3.75	5.50	7.75	9.00	15.75	3.75	3.50	8.25	-0.086914	0.103516	0.994629	-1.260000	6.860000	-3.500000	1372.00	0.02	-0.15
1.76	3.25	2.00	3.00	1.50	1.50	0.00	2.25	0.00	0.75	1.00	0.50	0.00	0.00	0.25	0.00	0.00	0.711914	1.171875	1.802246	-59.849998	117.949997	-55.720001	197.00	-0.15	0.07	6.25	4.25	6.25	5.75	8.25	11.00	5.25	11.75	4.00	6.75	8.00	9.50	16.00	4.00	3.50	8.75	-0.084473	0.102539	0.998535	0.700000	10.080000	-4.270000	1386.00	0.03	-0.14
1.77	5.00	4.25	3.75	2.25	1.25	0.00	2.25	0.00	0.50	1.00	0.75	0.00	0.00	0.00	0.00	0.00	0.829590	0.740723	0.652344	-36.400002	77.209999	-15.960000	251.00	-0.21	0.03	6.25	4.25	5.50	5.50	8.00	10.75	5.25	11.75	4.50	7.25	8.25	9.75	16.50	4.50	4.25	9.25	-0.071289	0.106934	0.995117	3.010000	14.000000	-4.900000	1407.00	0.04	-0.14
1.78	7.00	5.25	4.50	3.25	1.25	0.00	2.25	0.00	0.50	0.75	0.25	0.00	0.00	0.50	0.00	0.00	0.249512	0.273438	0.054199	-43.400002	106.400002	1.890000	301.00	-0.24	0.03	5.75	4.00	5.25	5.25	7.50	10.25	5.25	11.75	4.50	7.75	8.75	10.00	17.00	5.50	5.00	10.25	-0.082031	0.107422	1.000977	5.250000	18.270000	-5.320000	1424.00	0.05	-0.14
1.79	8.75	6.00	5.00	4.25	1.25	0.00	2.25	0.25	0.50	1.00	0.25	0.00	0.00	0.25	0.00	0.00	-0.176270	-0.030762	0.620605	-44.660000	179.899994	6.720000	351.00	-0.25	0.02	3.50	2.00	3.25	3.00	5.75	8.25	5.00	10.50	3.25	8.00	8.50	10.50	15.25	5.00	3.50	10.25	-0.087891	0.116699	0.998047	7.280000	23.100000	-6.440000	1207.00	0.08	-0.15
1.80	11.00	8.25	5.25	5.25	1.25	0.00	2.25	0.25	0.50	1.00	0.25	0.00	0.25	0.25	0.00	0.00	-0.667969	-0.439941	1.932129	-29.540001	204.190002	3.080000	417.00	-0.27	0.00	3.25	1.00	2.75	2.00	5.50	7.75	5.00	10.50	4.00	7.75	8.50	9.75	16.00	5.25	4.50	11.00	-0.073242	0.087891	1.055664	11.410000	29.889999	-8.540000	1191.00	0.10	-0.15
1.81	13.25	9.75	7.00	7.75	1.50	1.00	2.25	1.25	0.50	0.75	0.50	0.00	0.75	0.50	0.25	0.00	-0.820801	0.287598	2.336426	-21.420000	195.089996	-16.660000	550.00	-0.26	-0.03	2.25	1.25	2.25	2.50	5.00	7.50	4.75	10.75	4.25	8.25	8.75	10.25	15.75	5.75	5.00	11.75	-0.067871	0.103516	1.047852	19.600000	43.049999	-8.960000	1204.00	0.11	-0.15
1.82	15.75	11.75	8.25	8.75	1.75	3.25	2.25	2.25	0.50	0.75	0.50	0.00	0.75	0.25	0.00	0.00	-0.804199	0.062012	3.145508	-82.739998	129.570007	-16.799999	667.00	-0.26	-0.05	2.50	1.50	2.25	2.00	4.25	7.25	4.50	10.00	4.50	8.50	9.00	10.50	16.25	6.50	5.75	12.75	-0.096680	0.143066	1.100586	36.750000	66.150002	-10.990000	1213.00	0.12	-0.15
1.83	17.50	12.75	9.00	9.25	2.00	4.50	2.50	3.25	0.50	1.00	0.25	0.00	1.00	0.25	0.25	0.00	-0.431152	0.225098	1.406738	-60.270000	50.400002	-4.830000	756.00	-0.26	-0.05	2.50	1.25	2.00	2.00	3.75	6.75	4.25	9.75	4.75	8.50	9.25	10.50	15.25	7.00	6.25	13.50	-0.134766	0.121582	1.190918	55.790001	85.330002	-13.370000	1199.00	0.13	-0.15
1.84	18.00	12.50	8.00	8.00	1.50	1.75	2.25	2.25	0.00	0.25	0.00	0.00	0.00	0.00	0.00	0.00	-0.196777	0.187012	1.053711	-48.580002	24.990000	-2.310000	639.00	-0.30	-0.03	2.25	1.25	1.75	2.00	3.00	6.25	4.25	9.50	5.00	8.50	9.25	10.50	16.25	7.50	7.00	14.50	-0.138184	0.164062	1.209961	84.419998	108.709999	-17.570000	1206.00	0.14	-0.15
1.85	11.75	10.00	7.50	8.25	1.50	2.50	2.50	2.75	0.00	0.50	0.00	0.00	0.00	0.00	0.00	0.00	-0.161621	0.099609	1.137695	-46.619999	27.719999	-1.120000	564.00	-0.27	-0.05	2.25	1.25	1.25	1.50	6.00	7.00	4.00	9.75	6.50	9.50	10.25	11.50	17.50	9.25	8.75	16.75	-0.215820	0.225098	1.206055	121.099998	129.779999	-22.820000	1356.00	0.15	-0.14
1.86	11.75	9.75	7.75	8.25	1.75	3.25	2.25	3.25	0.00	0.50	0.00	0.00	0.00	0.00	0.00	0.00	-0.196777	0.055664	1.065918	-42.000000	21.280001	-1.330000	581.00	-0.26	-0.06	1.75	1.25	1.00	1.50	2.25	5.50	3.75	9.00	5.75	8.75	9.25	10.50	15.00	8.50	8.00	16.00	-0.169434	0.251465	1.276367	126.279999	148.750000	-27.860001	1182.00	0.16	-0.14
1.87	12.00	10.00	8.00	8.50	2.00	4.00	2.50	4.25	0.00	0.50	0.00	0.00	0.25	0.00	0.00	0.00	-0.142090	0.094727	1.005859	-39.130001	14.980000	-2.310000	628.00	-0.25	-0.07	2.00	1.00	1.25	1.50	1.75	5.50	3.50	8.25	5.25	8.25	9.00	10.25	15.00	9.00	8.25	16.25	-0.160645	0.174805	1.383301	106.820000	174.930008	-31.360001	1154.00	0.16	-0.14
1.88	12.00	10.25	8.25	8.50	2.25	4.75	2.50	5.25	0.00	0.75	0.00	0.00	0.75	0.00	0.00	0.00	-0.175781	0.114746	0.981934	-38.920002	5.040000	-1.470000	669.00	-0.24	-0.09	1.50	1.25	1.50	1.00	1.50	5.25	3.50	7.75	5.00	8.00	9.00	10.00	14.25	9.25	8.50	16.75	-0.307129	0.297363	1.196777	101.919998	203.979996	-33.880001	1125.00	0.17	-0.14
1.89	12.75	10.50	8.50	8.75	2.75	5.25	2.50	5.75	0.00	1.00	0.00	0.00	1.50	0.00	0.00	0.00	-0.175781	0.114746	0.981934	-38.920002	5.040000	-1.470000	716.00	-0.23	-0.09	1.00	1.00	1.00	1.25	1.00	5.00	3.50	7.50	4.75	7.75	8.75	9.50	13.75	9.25	8.75	17.00	-0.280762	0.390625	1.447754	101.430000	237.369995	-42.420002	1085.00	0.18	-0.14
1.90	13.25	11.00	8.75	9.00	2.75	5.75	2.50	6.75	0.00	1.00	0.25	0.00	1.50	0.00	0.00	0.00	-0.145996	0.122559	0.975098	-38.990002	-6.020000	-1.610000	759.00	-0.23	-0.10	3.00	2.00	2.25	2.00	1.50	5.25	3.50	7.00	3.50	7.50	8.25	9.00	12.50	9.25	9.00	16.75	-0.260742	0.436035	1.526855	90.440002	257.459991	-50.540001	1100.00	0.15	-0.14
1.91	13.50	11.50	8.75	9.25	3.25	5.75	2.75	7.25	0.00	1.25	0.25	0.25	3.00	0.00	0.25	0.00	-0.154785	0.091797	0.989258	-31.920000	-7.980000	-1.400000	811.00	-0.21	-0.10	0.25	0.25	0.50	0.75	1.00	2.75	3.50	6.00	2.75	7.25	8.00	8.50	12.00	9.00	9.00	16.00	-0.226562	0.379883	1.644043	74.620003	276.920013	-59.430000	929.00	0.21	-0.14
1.92	14.00	11.50	9.25	9.50	3.75	6.25	2.75	7.50	0.00	1.25	0.25	0.00	3.50	0.00	0.00	0.00	-0.129883	0.073242	0.986328	-23.799999	-7.560000	-1.260000	841.00	-0.21	-0.10	0.50	0.50	0.00	0.50	0.50	3.25	3.50	6.00	2.50	6.50	7.50	8.00	11.00	8.50	8.75	15.00	-0.378418	0.617676	1.609863	42.420002	331.450012	-86.099998	879.00	0.20	-0.15
1.93	16.50	12.75	10.25	10.50	5.25	8.50	2.75	8.00	0.00	1.50	0.25	0.25	5.00	0.00	0.00	0.00	-0.139648	0.088379	0.985352	-15.400000	-6.790000	-0.980000	979.00	-0.21	-0.11	0.75	0.50	0.75	0.50	0.25	2.50	3.25	5.00	2.25	6.00	7.00	7.50	10.00	8.25	8.50	13.25	-0.378418	0.617676	1.609863	42.420002	331.450012	-86.099998	812.00	0.20	-0.14
1.94	17.50	12.25	9.25	10.00	5.75	9.00	3.00	9.00	1.75	2.50	1.25	1.00	5.75	0.25	0.00	0.00	-0.146484	0.102539	0.973633	-9.870000	-5.040000	-0.630000	1065.00	-0.18	-0.10	1.25	0.75	0.75	0.50	0.25	1.75	3.50	4.00	1.50	6.50	7.00	6.50	8.75	6.75	7.50	10.75	-0.757812	0.844727	1.814941	-5.880000	390.390015	-120.610001	730.00	0.19	-0.13
1.95	13.50	11.25	9.25	9.50	5.25	8.00	2.75	8.75	1.00	1.50	0.75	0.75	6.00	0.75	0.50	0.25	-0.140625	0.104004	0.979004	-7.280000	-3.430000	-0.350000	961.00	-0.17	-0.11	1.50	0.50	0.00	0.25	0.75	1.50	3.50	2.50	1.25	4.75	5.00	5.25	7.75	5.75	6.25	8.50	-0.472656	0.800293	2.026855	-12.880000	406.700012	-137.759995	589.00	0.20	-0.12
1.96	20.25	13.25	10.25	10.25	5.50	8.00	2.75	8.50	1.25	1.75	1.00	1.25	8.00	0.25	0.00	0.00	-0.141602	0.097168	0.963867	-6.510000	-2.100000	-0.140000	1100.00	-0.19	-0.10	1.00	1.00	0.00	0.00	0.00	2.00	3.75	2.25	1.25	3.50	4.00	3.75	5.75	4.50	5.25	6.50	-0.663086	0.604980	2.048828	-21.280001	405.160004	-145.180008	486.00	0.19	-0.11
1.97	19.75	14.25	11.50	11.50	6.50	9.50	3.00	9.75	2.00	2.75	1.50	1.50	9.00	1.00	0.25	0.75	-0.139648	0.097656	0.958984	-6.930000	-1.050000	-0.210000	1244.00	-0.17	-0.11	0.50	0.00	0.00	0.00	0.00	0.75	3.50	0.75	0.50	2.50	2.75	2.25	3.75	2.75	4.00	5.00	-0.860840	1.061035	2.287109	-32.689999	394.660004	-145.529999	314.00	0.22	-0.08
1.98	19.50	14.00	11.50	11.50	7.00	9.75	3.25	9.75	2.00	2.75	1.75	1.75	9.00	1.00	0.50	0.75	-0.139648	0.097168	0.971191	-7.770000	0.210000	-0.490000	1260.00	-0.16	-0.11	0.00	0.00	0.00	0.00	0.00	0.50	3.50	0.25	0.00	1.75	1.75	1.75	2.75	1.25	2.75	2.75	-0.689453	0.931641	2.504883	-25.830000	372.119995	-154.630005	213.00	0.21	-0.07
1.99	18.75	13.50	11.50	11.50	7.00	9.75	3.00	10.00	2.25	2.75	1.75	2.00	9.25	1.25	0.50	0.75	-0.138672	0.095215	0.969238	-8.400000	1.540000	-0.910000	1258.00	-0.16	-0.11	0.00	0.00	0.25	0.00	0.00	0.00	3.75	0.75	1.75	2.50	2.75	2.00	1.50	0.75	1.50	1.75	-0.245605	0.753906	1.741211	-25.059999	361.760010	-159.949997	234.00	0.19	-0.01
2.00	18.50	13.00	11.25	11.00	7.25	9.75	3.00	10.00	2.25	2.75	2.25	2.25	9.50	1.00	0.75	1.00	-0.133789	0.081543	0.963867	-8.260000	2.800000	-1.330000	1257.00	-0.15	-0.11	0.50	0.50	0.50	0.50	0.25	1.50	3.75	0.00	0.00	0.50	1.00	0.75	0.75	0.25	1.00	1.00	-0.239258	0.855469	1.506348	-24.430000	359.380005	-168.559998	158.00	0.06	0.00
2.01	18.00	12.25	11.00	10.75	7.50	9.75	3.25	10.00	2.25	3.00	2.25	2.50	9.75	1.25	0.75	1.25	-0.130371	0.085938	0.977539	-7.000000	4.550000	-1.680000	1256.00	-0.14	-0.11	1.75	0.75	0.25	0.00	0.00	0.25	3.75	0.25	0.00	0.50	1.00	0.50	0.75	0.00	0.50	0.75	-0.012207	0.976562	0.975098	-0.980000	366.170013	-176.889999	139.00	0.02	0.04
2.02	17.00	12.00	10.75	10.50	7.50	9.50	3.25	10.25	2.50	3.00	2.00	2.50	10.00	1.00	0.75	1.50	-0.137207	0.083984	0.972656	-4.830000	6.860000	-1.960000	1240.00	-0.14	-0.11	1.00	0.50	1.75	1.50	1.00	1.50	4.00	1.00	1.50	1.50	2.00	1.50	2.25	1.25	1.75	2.00	-0.078125	1.024414	1.531738	25.410000	339.290009	-184.240005	312.00	0.07	-0.03
2.03	16.25	11.00	10.50	10.00	7.25	9.75	3.00	10.25	2.75	3.25	2.25	2.75	10.00	1.25	0.75	1.50	-0.134277	0.079102	0.977051	-2.450000	8.610000	-1.820000	1223.00	-0.13	-0.11	3.00	1.75	2.00	1.50	1.00	1.25	4.00	0.75	1.50	1.50	1.75	1.75	1.75	1.25	1.75	2.00	0.024902	0.980469	1.834961	46.970001	275.940002	-186.690002	338.00	0.02	-0.02
2.04	15.25	10.00	10.00	9.75	7.25	9.50	3.00	10.50	2.75	3.25	3.00	3.25	10.25	1.25	1.00	1.50	-0.144043	0.073730	0.965820	-0.140000	9.800000	-1.330000	1213.00	-0.12	-0.12	2.75	1.50	2.00	1.75	1.00	1.50	4.25	0.75	1.50	1.75	2.00	1.50	2.00	1.25	1.50	1.75	0.986816	2.178223	2.545898	37.520000	191.380005	-158.619995	344.00	0.02	-0.02
2.05	14.00	9.50	9.75	9.25	7.00	9.50	3.00	10.50	2.75	3.75	3.00	3.75	10.75	1.25	1.00	1.75	-0.141113	0.080078	0.964844	3.570000	11.200000	-0.840000	1199.00	-0.10	-0.12	2.50	1.75	2.25	1.50	1.00	1.25	4.25	1.00	1.25	1.50	1.75	1.50	1.75	1.25	1.50	2.00	1.770996	1.049316	3.125000	21.000000	2.450000	-98.209999	334.00	0.02	-0.02
2.06	13.00	9.00	9.25	9.00	7.00	9.25	3.00	10.75	2.75	4.00	3.50	4.00	11.00	1.75	1.00	2.00	-0.143555	0.080078	0.961426	4.480000	11.270000	-0.840000	1195.00	-0.09	-0.13	2.50	1.75	2.00	1.75	1.00	1.50	4.00	1.00	1.75	1.75	1.50	1.00	1.75	1.25	1.75	1.75	1.308105	0.555176	0.980957	-38.849998	-160.300003	-42.630001	336.00	0.02	-0.01
2.07	12.00	8.25	9.00	8.50	6.75	9.25	3.00	10.75	3.00	4.00	3.75	4.25	11.50	1.25	1.00	2.25	-0.138184	0.100586	0.958984	4.830000	11.550000	-0.910000	1175.00	-0.08	-0.13	3.00	1.50	1.75	1.25	0.75	1.25	4.00	0.75	1.50	1.50	1.50	1.50	1.50	1.25	1.50	1.25	1.054688	0.580566	0.520020	-39.200001	-167.160004	-42.630001	311.00	0.02	-0.00
2.08	10.75	7.75	8.75	8.25	6.75	9.25	3.00	11.00	3.25	4.25	4.00	5.00	11.75	1.75	1.00	2.50	-0.136719	0.096191	0.962891	4.480000	11.690000	-1.260000	1181.00	-0.07	-0.13	1.25	0.75	0.00	0.00	0.00	0.00	4.00	0.00	0.00	0.00	0.00	0.00	0.00	0.25	0.75	0.75	1.013184	0.666992	0.348633	-20.090000	-157.289993	-47.110001	103.00	0.02	0.14
2.09	9.75	7.25	8.25	7.75	6.50	9.25	3.00	11.00	3.50	4.50	5.00	5.75	12.00	1.50	1.50	3.00	-0.138672	0.090820	0.964355	3.710000	11.830000	-1.540000	1184.00	-0.05	-0.14	2.25	1.25	1.75	1.50	0.75	1.00	4.25	0.50	1.25	1.00	1.25	0.75	1.25	1.00	1.25	1.25	0.899414	0.692871	0.488770	12.320000	-151.059998	-50.470001	272.00	0.01	0.01
2.10	9.00	6.50	8.00	7.50	6.50	9.00	3.00	11.25	3.75	5.00	5.50	6.00	12.25	1.75	1.50	3.25	-0.131836	0.094238	0.958496	3.220000	11.550000	-1.540000	1187.00	-0.04	-0.14	2.25	1.50	1.75	1.25	1.00	1.25	4.25	0.75	1.25	1.00	1.25	0.75	1.00	1.00	1.25	1.50	0.846680	0.699707	0.651367	43.820000	-154.419998	-47.110001	280.00	0.01	0.01
2.11	8.25	5.75	7.75	6.75	6.25	9.00	3.00	11.25	4.00	5.25	6.25	6.75	12.50	1.50	1.75	3.50	-0.146484	0.091309	0.954102	3.080000	11.340000	-1.610000	1184.00	-0.03	-0.14	0.50	0.00	0.00	0.25	0.00	0.00	4.00	0.00	0.00	0.00	0.00	0.00	0.00	0.00	0.00	0.00	0.831543	0.626953	0.841797	59.990002	-167.300003	-34.930000	75.00	0.03	0.21
2.12	7.50	5.75	7.50	6.25	6.25	8.75	3.00	11.25	4.25	5.25	6.75	7.25	12.75	1.75	1.75	4.00	-0.146484	0.092285	0.964844	3.290000	11.200000	-1.610000	1187.00	-0.02	-0.14	0.50	0.50	0.50	0.00	0.00	0.00	3.75	0.00	0.00	0.00	0.00	0.00	0.00	0.00	0.00	0.00	0.777832	0.555176	0.962891	57.889999	-187.740005	-14.560000	79.00	-0.01	0.19
2.13	7.00	5.00	7.25	6.00	6.00	8.75	3.00	11.50	4.25	6.00	7.50	7.75	13.25	1.50	2.00	5.00	-0.143555	0.085449	0.970703	3.500000	11.550000	-1.540000	1203.00	-0.00	-0.15	0.50	0.25	0.25	0.00	0.00	0.00	3.75	0.00	0.00	0.00	0.00	0.00	0.00	0.00	0.00	0.00	0.703613	0.546387	1.047363	45.779999	-210.770004	10.290000	73.00	0.01	0.21
2.14	6.25	5.25	6.50	5.25	5.75	8.50	3.00	11.50	5.00	7.00	7.50	7.75	13.25	2.25	2.25	5.25	-0.146973	0.100586	0.960449	3.640000	11.970000	-1.610000	1206.00	0.01	-0.14	0.50	0.00	0.25	0.00	0.00	0.00	3.75	0.00	0.00	0.00	0.00	0.00	0.00	0.00	0.00	0.00	0.607910	0.552734	1.048340	36.820000	-232.259995	35.420002	70.00	0.03	0.23
2.15	5.75	4.75	6.25	5.00	5.75	8.50	3.00	11.50	5.25	7.00	7.75	8.00	13.75	2.25	2.50	5.75	-0.150879	0.094727	0.960938	3.850000	12.180000	-1.680000	1209.00	0.02	-0.14	0.00	0.00	0.00	0.00	0.00	0.00	3.75	0.00	0.00	0.00	0.00	0.00	0.00	0.00	0.00	0.00	0.482910	0.537598	1.046875	38.150002	-249.899994	57.049999	62.00	0.08	0.24
2.16	5.50	5.00	5.75	4.75	5.50	8.50	2.75	11.75	5.25	7.50	8.00	8.25	13.75	2.75	2.50	6.25	-0.148438	0.099121	0.963379	3.850000	12.110000	-1.750000	1216.00	0.03	-0.15	0.75	0.75	0.75	0.50	0.25	0.50	4.00	0.25	1.00	0.75	1.00	0.75	1.00	1.25	1.25	1.00	0.366211	0.494629	1.082031	47.110001	-263.619995	73.080002	194.00	0.09	0.04
2.17	5.25	4.25	5.50	4.25	5.50	8.25	3.00	11.75	5.75	8.00	8.25	8.50	14.25	2.50	3.00	6.50	-0.158203	0.096680	0.959961	3.710000	12.250000	-1.960000	1226.00	0.04	-0.15	2.50	1.50	1.75	1.50	0.75	1.25	4.25	0.75	1.25	0.75	1.00	0.75	1.25	1.00	1.00	1.00	0.145996	0.336426	1.254883	64.610001	-288.119995	89.599998	274.00	-0.01	0.01
2.18	4.75	4.25	5.25	3.50	5.25	8.25	2.75	11.50	6.25	8.00	8.50	8.75	14.50	2.50	3.00	7.00	-0.151367	0.107422	0.952637	3.640000	12.040000	-2.380000	1215.00	0.05	-0.15	2.50	1.50	2.00	1.50	0.75	1.00	4.25	0.75	1.25	1.00	1.00	0.75	1.25	1.00	1.00	1.00	-0.005859	0.316895	1.357910	71.190002	-299.739990	91.070000	277.00	-0.01	0.01
2.19	3.75	3.50	5.00	3.50	5.00	8.25	2.75	11.75	6.50	8.25	8.75	9.00	14.75	3.00	3.25	7.25	-0.163574	0.106934	0.956055	3.570000	12.180000	-2.660000	1218.00	0.06	-0.15	2.50	1.50	1.75	1.25	0.75	1.00	4.25	0.75	1.25	0.75	1.00	0.50	1.25	1.00	1.00	1.00	-0.175781	0.262695	1.438965	76.300003	-309.540009	89.949997	265.00	-0.01	0.02
2.20	4.00	2.50	5.00	3.50	5.00	8.00	2.75	11.50	7.25	8.75	8.75	9.25	15.00	3.50	3.50	7.50	-0.167480	0.096191	0.958008	4.830000	13.230000	-2.870000	1234.00	0.07	-0.14	0.25	0.00	0.00	0.25	0.00	0.00	3.75	0.00	0.00	0.00	0.00	0.00	0.00	0.00	0.00	0.00	-0.299316	0.251465	1.526855	78.400002	-316.890015	87.989998	68.00	0.04	0.22
2.21	3.25	3.00	4.00	3.00	4.75	8.00	2.75	11.50	7.50	8.75	9.25	9.50	15.25	3.75	3.25	7.25	-0.165527	0.100098	0.974121	6.160000	14.420000	-3.150000	1222.00	0.08	-0.14	0.75	0.25	0.50	0.50	0.00	0.00	3.75	0.00	0.00	0.00	0.00	0.00	0.00	0.00	0.00	0.00	-0.455566	0.262695	1.621582	78.120003	-321.720001	84.840004	85.00	-0.03	0.17
2.22	0.00	0.00	1.00	0.00	3.00	6.50	2.50	10.75	8.00	9.00	9.25	9.75	15.50	4.25	3.75	8.00	-0.165527	0.114746	0.969727	8.190000	15.890000	-3.570000	1057.00	0.15	-0.16	1.00	0.25	0.25	0.25	0.00	0.25	4.00	0.00	0.00	0.00	0.00	0.00	0.00	0.00	0.00	0.00	-0.619141	0.317383	1.688965	78.050003	-324.380005	81.760002	89.00	-0.03	0.18
2.23	2.25	1.75	2.25	0.00	2.50	6.25	2.50	10.50	7.50	8.75	9.00	9.25	13.75	3.00	3.25	7.75	-0.161133	0.093262	0.979980	10.920000	18.410000	-4.060000	1048.00	0.12	-0.15	0.75	0.50	0.25	0.25	0.00	0.25	3.75	0.00	0.00	0.00	0.00	0.00	0.00	0.00	0.00	0.00	-0.780273	0.370605	1.741699	78.959999	-323.679993	80.430000	84.00	-0.03	0.16
2.24	2.50	2.25	3.00	1.75	3.50	6.25	2.50	10.50	7.50	9.00	9.25	9.50	14.25	3.50	3.75	8.25	-0.154785	0.102539	0.971191	14.140000	22.049999	-3.990000	1125.00	0.10	-0.14	0.75	0.25	0.50	0.25	0.00	0.00	3.75	0.00	0.00	0.00	0.00	0.00	0.00	0.00	0.00	0.00	-0.981934	0.458496	1.793945	80.639999	-318.640015	82.669998	82.00	-0.02	0.19
2.25	2.50	1.75	2.75	1.50	3.25	7.75	2.75	11.75	8.75	10.00	10.00	10.50	16.25	6.00	5.75	9.25	-0.171875	0.112793	0.967285	18.549999	25.969999	-3.430000	1274.00	0.12	-0.14	0.75	0.25	0.25	0.25	0.00	0.00	3.75	0.00	0.00	0.00	0.00	0.00	0.00	0.00	0.00	0.00	-1.114746	0.507324	1.801270	80.639999	-308.350006	90.230003	79.00	-0.01	0.19
2.26	1.75	1.75	2.25	1.50	3.00	7.50	2.50	10.50	7.75	9.50	9.50	10.00	14.50	5.25	5.25	8.75	-0.163574	0.103027	0.981445	24.150000	29.750000	-3.150000	1165.00	0.12	-0.14	1.00	0.25	0.25	0.25	0.00	0.00	3.75	0.00	0.00	0.00	0.00	0.00	0.00	0.00	0.00	0.00	-1.232422	0.564941	1.798828	77.000000	-291.970001	102.199997	82.00	-0.03	0.19
2.27	0.00	0.00	0.00	0.00	1.75	5.50	2.25	10.50	8.00	9.75	10.00	10.00	14.75	5.50	5.25	9.25	-0.165527	0.117188	0.980957	31.500000	34.439999	-3.290000	1059.00	0.17	-0.15	0.50	0.25	0.50	0.00	0.00	0.25	3.75	0.00	0.00	0.00	0.00	0.00	0.00	0.00	0.00	0.00	-1.320312	0.645020	1.826660	69.510002	-270.829987	117.389999	79.00	-0.01	0.19
2.28	1.25	1.25	0.75	0.00	1.50	5.25	2.25	10.50	8.75	9.75	10.25	10.50	15.25	5.75	5.75	9.75	-0.167969	0.136230	0.985840	39.689999	40.810001	-3.710000	1124.00	0.16	-0.15	0.25	0.00	0.50	0.00	0.00	0.00	3.75	0.00	0.00	0.00	0.00	0.00	0.00	0.00	0.00	0.00	-1.479492	0.803223	1.917480	38.639999	-225.399994	150.779999	71.00	0.03	0.22
2.29	0.00	0.50	1.50	1.25	2.00	6.50	2.25	11.50	9.50	10.50	10.50	10.75	15.25	6.50	6.00	10.50	-0.176270	0.136719	0.995117	48.650002	50.400002	-4.550000	1203.00	0.16	-0.15	0.25	0.00	0.00	0.00	0.00	0.00	3.75	0.00	0.00	0.00	0.00	0.00	0.00	0.00	0.00	0.00	-1.479492	0.803223	1.917480	38.639999	-225.399994	150.779999	65.00	0.06	0.24
2.30	0.00	0.00	0.00	0.00	1.00	4.75	2.00	10.25	8.50	10.50	10.75	11.00	16.00	7.25	7.25	11.75	-0.185547	0.143066	0.986328	55.790001	59.500000	-5.110000	1134.00	0.19	-0.15	0.50	0.25	0.25	0.25	0.00	0.00	3.75	0.00	0.00	0.00	0.00	0.00	0.00	0.00	0.00	0.00	-1.757324	0.979980	1.960449	13.230000	-198.520004	184.100006	76.00	-0.00	0.19
2.31	0.00	0.00	0.00	0.00	0.50	4.25	2.00	10.25	8.50	10.50	11.00	11.25	16.00	7.25	7.00	12.00	-0.221680	0.153320	0.979980	62.090000	67.830002	-4.690000	1126.00	0.19	-0.15	0.25	0.25	0.50	0.25	0.00	0.00	3.75	0.00	0.00	0.00	0.00	0.00	0.00	0.00	0.00	0.00	-1.926270	1.027832	1.923340	16.379999	-197.050003	200.970001	76.00	0.00	0.19
2.32	0.25	0.25	0.00	0.00	0.50	3.75	1.75	10.00	9.00	11.00	11.50	12.25	17.75	7.75	7.00	12.50	-0.212891	0.153809	0.987793	62.439999	79.309998	-4.200000	1172.00	0.20	-0.15	0.00	0.00	0.00	0.00	0.00	0.00	3.75	0.00	0.00	0.00	0.00	0.00	0.00	0.00	0.00	0.00	-2.097656	1.003906	1.857910	29.120001	-202.020004	217.979996	62.00	0.08	0.24
2.33	0.75	0.50	1.25	0.75	0.75	5.00	2.00	10.50	9.25	11.00	11.50	12.25	16.75	8.25	7.75	13.75	-0.224609	0.176270	1.025391	61.950001	91.840004	-4.200000	1249.00	0.18	-0.15	0.25	0.25	0.00	0.00	0.00	0.00	3.75	0.00	0.00	0.00	0.00	0.00	0.00	0.00	0.00	0.00	-2.251465	0.924316	1.711914	46.619999	-208.389999	234.710007	67.00	0.04	0.22
2.34	0.00	0.00	0.00	0.00	0.00	2.25	1.75	9.50	8.50	10.75	11.25	12.00	16.25	8.25	7.75	14.00	-0.274414	0.228516	1.077637	70.840004	114.660004	-6.370000	1127.00	0.21	-0.15	0.00	0.00	0.00	0.00	0.00	0.00	3.75	0.00	0.00	0.00	0.00	0.00	0.00	0.00	0.00	0.00	-2.441406	0.763672	1.529297	60.830002	-209.649994	250.809998	62.00	0.08	0.24
2.35	0.00	0.00	0.00	0.00	0.00	2.50	1.75	9.25	8.50	10.75	11.50	12.00	16.50	8.75	8.25	14.75	-0.253906	0.260254	1.124512	78.470001	130.690002	-10.640000	1145.00	0.21	-0.15	0.25	0.50	0.00	0.00	0.00	0.00	3.75	0.00	0.00	0.00	0.00	0.00	0.00	0.00	0.00	0.00	-2.468262	0.546875	1.145996	65.099998	-203.419998	263.690002	70.00	0.02	0.21
2.36	0.00	0.00	0.00	0.00	0.00	2.50	1.50	9.00	8.25	10.50	11.50	12.00	16.25	9.25	8.25	15.25	-0.298340	0.239258	1.141113	80.779999	145.389999	-14.490000	1136.00	0.22	-0.15	0.25	0.25	0.25	0.00	0.00	0.00	3.75	0.00	0.00	0.00	0.00	0.00	0.00	0.00	0.00	0.00	-3.084961	0.399902	0.687012	67.970001	-194.949997	266.350006	70.00	0.03	0.22
2.37	0.00	0.00	0.00	0.00	0.00	2.25	1.50	9.00	8.50	10.75	12.00	12.75	17.25	10.50	9.50	16.75	-0.329590	0.229492	1.078125	75.250000	161.490005	-15.680000	1198.00	0.22	-0.15	0.00	0.00	0.25	0.00	0.00	0.00	3.75	0.00	0.00	0.00	0.00	0.00	0.00	0.00	0.00	0.00	-4.087891	-0.311523	0.237305	152.600006	-177.589996	266.420013	65.00	0.06	0.24
2.38	0.00	0.00	0.00	0.50	0.25	3.50	1.50	9.25	8.75	10.75	12.50	13.50	17.50	10.75	10.00	17.75	-0.400879	0.381348	1.132812	84.559998	180.180008	-19.110001	1260.00	0.22	-0.15	0.25	0.25	0.00	0.00	0.00	0.00	3.50	0.00	0.00	0.00	0.00	0.00	0.00	0.00	0.00	0.00	-5.088379	-1.252441	0.166992	247.100006	-154.559998	262.290009	63.00	0.04	0.22
2.39	0.25	0.00	0.75	0.00	0.25	3.25	1.50	8.75	8.25	10.50	12.00	13.25	17.50	10.50	10.50	17.50	-0.429199	0.337891	1.181641	98.489998	202.860001	-25.480000	1238.00	0.22	-0.15	1.00	0.25	0.25	0.25	0.00	0.00	3.50	0.00	0.00	0.00	0.00	0.00	0.00	0.00	0.00	0.00	-6.121582	-2.815430	-0.126953	193.410004	-77.910004	224.350006	78.00	-0.03	0.19
2.40																										1.25	0.50	0.50	0.25	0.00	0.00	3.50	0.00	0.00	0.00	0.00	0.00	0.00	0.00	0.00	0.00	-4.964355	-3.348633	-1.957031	28.420000	66.430000	134.750000	86.00	-0.07	0.17
2.41	0.50	0.00	0.00	0.00	0.00	2.75	1.25	8.50	7.25	9.50	12.00	12.75	16.25	9.50	10.00	17.25	-0.409668	0.344238	1.346680	115.570000	252.699997	-38.500000	1155.00	0.22	-0.16	1.50	0.50	0.75	0.25	0.25	0.00	3.50	0.00	0.75	0.50	0.50	0.25	0.25	0.50	1.00	0.75	-3.674316	-1.938477	-1.058594	-117.669998	239.820007	-4.550000	143.00	0.05	0.10
2.42	0.00	0.00	0.00	0.00	0.00	1.75	1.50	8.25	6.25	9.25	11.75	12.75	16.00	9.00	10.00	17.50	-0.464355	0.383789	1.383789	117.809998	282.380005	-45.920002	1112.00	0.23	-0.16	3.25	2.00	2.50	1.50	1.00	0.25	4.00	0.25	0.75	0.50	0.50	0.50	0.50	0.75	1.00	0.00	0.309082	0.430176	3.544434	-188.580002	318.149994	-131.600006	241.00	-0.08	0.05
2.43	2.25	0.00	0.00	0.00	0.25	2.00	1.50	8.25	5.75	9.00	11.50	12.25	15.75	8.50	10.25	17.00	-0.455078	0.432129	1.665527	120.400002	316.470001	-53.760002	1118.00	0.21	-0.16	2.75	1.25	1.25	0.75	0.50	0.00	3.75	0.00	0.00	0.00	0.00	0.00	0.00	0.00	0.00	0.00	-0.136230	0.954102	2.924316	-165.830002	144.059998	-101.639999	136.00	-0.15	0.12
2.44	0.25	0.00	0.25	0.00	0.00	2.00	1.50	8.25	5.25	8.75	11.25	12.00	15.00	7.50	10.00	16.00	-0.754883	0.513184	1.452637	109.270004	358.820007	-61.459999	1054.00	0.22	-0.17	4.00	1.75	2.50	1.25	0.50	0.00	3.75	0.00	0.00	0.00	0.00	0.00	0.00	0.00	0.00	0.00	-1.005859	0.600586	0.182129	-139.369995	60.549999	-67.620003	176.00	-0.19	0.09
2.45	0.75	0.00	1.00	0.50	0.00	1.25	1.50	7.75	4.50	8.25	10.75	11.25	13.75	6.25	8.75	13.75	-3.272461	1.263672	1.233887	110.599998	423.149994	-70.980003	976.00	0.20	-0.16	5.50	3.00	3.25	2.25	0.50	0.00	3.50	0.00	0.00	0.00	0.00	0.00	0.00	0.00	0.00	0.00	-0.168457	1.057129	-0.413086	-81.830002	139.300003	-44.170002	223.00	-0.23	0.06
2.46	0.00	0.00	0.00	0.00	0.00	1.00	1.50	6.75	3.50	8.00	10.25	10.25	12.25	5.00	7.75	10.50	-0.580566	0.187012	1.831055	104.510002	454.230011	-81.690002	839.00	0.22	-0.17	6.50	4.50	4.00	3.25	0.50	0.00	3.50	0.25	0.00	0.00	0.00	0.00	0.00	0.00	0.00	0.00	-0.103516	0.556641	1.530762	-29.260000	225.540009	-13.370000	274.00	-0.25	0.03
2.47	0.50	0.00	0.50	0.00	0.00	0.00	1.50	5.25	3.25	7.50	9.00	9.25	10.50	3.25	6.25	8.00	-1.218750	1.228027	2.568848	99.260002	485.519989	-75.739998	714.00	0.21	-0.16	9.25	7.25	5.25	5.25	0.50	0.75	3.50	0.75	0.00	0.00	0.00	0.25	0.25	0.00	0.00	0.00	-0.781250	0.467773	2.449219	-42.980000	235.759995	-10.290000	395.00	-0.26	-0.01
2.48	0.00	0.00	0.50	0.00	0.00	0.25	1.50	2.50	3.25	6.25	8.00	8.00	8.75	2.25	5.00	6.25	-1.100586	0.638672	4.127441	122.779999	480.690002	-70.769997	575.00	0.22	-0.14	12.75	9.50	7.50	8.00	1.25	2.75	4.00	2.50	0.00	0.00	0.00	0.25	0.00	0.00	0.00	0.00	-1.124023	-0.333008	3.795898	-149.100006	178.080002	-15.610000	585.00	-0.26	-0.04
2.49	0.50	0.00	0.25	0.00	0.00	0.75	1.75	1.00	2.75	5.25	6.75	6.75	7.25	1.00	4.00	4.75	-1.614258	0.249512	2.642090	131.949997	463.470001	-70.209999	469.00	0.21	-0.13	16.75	12.50	9.25	9.75	2.00	4.75	4.00	4.00	0.00	0.00	0.25	0.00	1.50	0.25	0.00	0.25	-0.566895	0.080566	2.154785	-135.169998	82.250000	-7.140000	779.00	-0.25	-0.06
2.50	0.50	0.25	0.25	0.00	0.25	0.00	1.75	0.75	2.25	4.75	5.75	5.50	4.75	1.00	2.75	2.50	-0.098633	0.769531	2.604004	130.550003	426.860016	-92.540001	371.00	0.21	-0.10	17.75	13.75	10.00	10.00	2.25	5.00	4.25	5.25	0.00	0.00	0.25	0.25	2.00	0.00	0.00	0.00	-0.199219	0.227051	1.268066	-98.489998	36.610001	-2.870000	850.00	-0.25	-0.07
2.51	0.25	0.75	0.50	0.25	0.00	0.00	1.75	0.50	2.25	3.75	4.25	3.50	3.00	1.00	2.00	1.50	0.305664	0.850098	2.103027	139.369995	395.640015	-105.279999	290.00	0.19	-0.07	18.75	14.50	10.50	11.25	2.50	6.25	4.25	6.00	0.25	0.00	0.25	0.50	2.75	0.00	0.00	0.25	-0.119629	0.106445	1.249023	-86.379997	33.810001	0.630000	935.00	-0.24	-0.08
2.52	0.00	0.00	0.50	0.00	0.25	0.25	1.75	0.25	1.25	3.75	3.50	2.75	2.00	1.25	1.25	1.00	0.678711	1.126953	1.561035	150.919998	373.100006	-128.869995	228.00	0.20	-0.05	18.50	14.50	10.75	11.50	3.00	6.75	4.25	6.50	0.00	0.25	0.50	0.25	3.00	0.75	0.00	0.25	-0.160645	0.085938	1.181152	-59.220001	18.340000	0.840000	967.00	-0.23	-0.08
2.53	0.25	0.00	1.25	0.25	0.50	0.50	2.00	0.00	1.25	3.00	3.25	1.25	1.25	0.25	1.25	0.75	0.778809	0.860840	1.906738	168.910004	353.290009	-161.559998	202.00	0.15	-0.01	18.50	14.25	10.75	12.00	3.25	7.50	4.50	7.00	0.50	0.50	0.50	0.50	3.75	0.25	0.25	0.25	-0.055176	0.182617	0.956543	-35.420002	4.760000	1.260000	1013.00	-0.22	-0.09
2.54	0.75	0.25	1.00	0.50	0.50	0.00	2.00	0.00	0.75	3.25	3.00	1.00	0.00	0.50	1.00	0.50	0.251953	1.280762	2.034180	192.500000	297.220001	-207.970001	181.00	0.12	0.03	18.50	14.75	11.25	12.25	3.50	8.00	4.50	7.50	0.25	1.00	1.25	0.75	4.50	0.25	0.50	0.50	-0.104492	0.156250	0.976074	-39.200001	0.770000	1.610000	1069.00	-0.21	-0.09
2.55	1.50	0.00	1.25	0.50	0.50	0.00	2.00	0.00	1.50	3.00	2.50	0.75	0.25	0.75	0.75	0.25	1.918457	1.156738	3.323242	165.130005	122.779999	-191.380005	189.00	0.10	0.06	18.50	15.50	12.00	12.75	4.25	8.50	4.50	7.75	0.75	0.75	0.75	0.50	5.00	0.00	0.50	0.50	-0.104492	0.160156	1.018555	-40.810001	-7.210000	0.770000	1109.00	-0.21	-0.09
2.56	1.00	0.25	1.00	0.50	0.50	0.00	2.00	0.00	1.25	2.75	2.25	0.75	0.00	0.00	0.50	0.25	1.680664	0.291992	2.586914	119.139999	-30.940001	-142.800003	162.00	0.09	0.06	19.25	16.25	12.25	13.25	5.00	8.75	4.75	8.00	2.00	0.75	0.75	0.75	5.25	0.25	0.25	0.75	-0.107422	0.125000	1.007812	-35.420002	-12.320000	0.140000	1179.00	-0.20	-0.09
2.57	0.75	0.25	1.50	0.25	0.50	0.00	2.00	0.00	1.25	2.50	2.50	0.50	0.00	0.50	0.50	0.25	1.500977	0.304688	2.309570	37.660000	-149.940002	-105.209999	164.00	0.10	0.07	20.25	16.75	12.50	13.75	5.75	9.00	4.75	8.25	0.50	1.00	0.50	0.75	5.50	0.25	0.50	1.00	-0.089844	0.148438	0.993652	-31.290001	-12.320000	-0.490000	1206.00	-0.21	-0.09
2.58	1.25	0.25	1.00	0.25	0.50	0.00	2.00	0.00	1.00	2.75	1.50	0.00	0.00	0.75	0.75	0.25	1.118652	0.264648	1.611816	-38.430000	-224.699997	-78.470001	151.00	0.09	0.09	20.50	16.25	13.00	13.50	6.50	9.75	5.00	8.50	1.00	1.25	1.00	1.00	6.00	0.50	0.25	0.75	-0.077637	0.123535	1.005371	-26.600000	-11.130000	-1.540000	1254.00	-0.20	-0.09
2.59	0.50	0.25	1.00	0.75	0.50	0.00	2.00	0.00	0.75	2.75	1.75	0.00	0.00	0.50	0.50	0.00	0.911133	0.399902	1.207031	-90.019997	-257.110016	-60.619999	141.00	0.08	0.08	25.25	20.00	14.25	14.50	6.75	9.50	5.00	8.50	1.00	1.00	0.75	1.25	6.50	0.25	0.50	1.00	-0.082031	0.118164	1.003418	-20.650000	-9.380000	-2.310000	1377.00	-0.21	-0.09
2.60	1.00	0.00	1.25	0.25	0.25	0.00	2.25	0.00	1.00	2.75	1.75	0.00	0.00	0.25	0.50	0.00	0.735840	0.471191	0.961426	-110.529999	-268.450012	-51.939999	143.00	0.08	0.10	19.50	14.75	11.25	12.75	7.75	11.25	5.00	9.50	2.25	2.00	1.25	2.00	6.75	0.25	0.50	1.25	-0.071777	0.101562	1.001465	-14.770000	-7.140000	-2.310000	1298.00	-0.17	-0.10
2.61	0.00	0.00	0.50	0.25	0.25	0.00	2.00	0.00	1.25	2.50	1.50	0.00	0.25	0.75	0.50	0.25	0.627441	0.560059	0.825195	-102.550003	-269.149994	-49.980000	125.00	0.17	0.10	18.25	14.50	12.25	12.75	7.25	9.75	5.00	9.00	1.00	1.00	1.00	1.50	7.25	0.50	0.25	1.25	-0.073242	0.109375	0.997070	-10.290000	-4.480000	-2.240000	1228.00	-0.18	-0.10
2.62	0.50	0.25	0.75	0.00	0.50	0.00	2.00	0.00	1.25	2.25	1.50	0.00	0.00	0.50	0.50	0.00	0.554199	0.641113	0.761230	-74.129997	-268.940002	-47.459999	127.00	0.12	0.11	17.50	13.25	11.50	11.75	7.25	9.50	5.00	8.75	2.25	2.25	2.00	3.00	9.25	1.75	2.00	3.00	-0.077148	0.120117	0.994141	-7.630000	-1.960000	-1.960000	1300.00	-0.13	-0.10
2.63	0.75	0.25	0.75	0.25	0.50	0.00	2.00	0.00	0.75	2.75	1.50	0.00	0.00	0.50	0.25	0.00	0.471191	0.658203	0.792969	-35.910000	-271.670013	-41.720001	129.00	0.09	0.10	19.25	13.75	13.75	12.50	8.50	11.25	5.25	10.00	2.50	2.50	2.25	3.00	9.75	1.75	2.00	3.00	-0.085449	0.123047	0.998535	-6.090000	0.280000	-1.750000	1436.00	-0.14	-0.10
2.64	0.25	2.25	1.25	0.00	0.50	0.25	2.00	0.00	1.25	2.25	1.00	0.00	0.00	0.50	0.25	0.00	0.298340	0.645996	1.072266	33.810001	-297.220001	-12.600000	145.00	0.02	0.08	19.00	13.75	13.00	13.75	8.50	11.25	5.25	10.00	2.75	2.25	2.25	3.25	10.00	1.75	1.75	3.00	-0.079590	0.118652	0.995117	-4.480000	4.130000	-1.750000	1442.00	-0.14	-0.10
2.65	0.75	0.25	1.25	0.00	0.50	0.00	2.25	0.00	1.25	2.25	1.50	0.00	0.00	0.75	0.25	0.25	0.208984	0.566895	1.161621	50.259998	-318.360016	11.480000	141.00	0.09	0.12	17.50	12.50	12.50	13.25	8.75	11.25	5.25	10.00	3.00	2.50	2.50	3.25	10.25	1.75	2.25	3.25	-0.079590	0.118652	0.995117	-4.480000	4.130000	-1.750000	1422.00	-0.12	-0.10
2.66	0.75	0.00	0.75	0.25	0.50	0.00	2.25	0.00	1.00	2.25	1.25	0.00	0.00	0.50	0.25	0.00	0.102539	0.498047	1.236328	50.189999	-338.799988	37.730000	125.00	0.09	0.12	16.25	11.00	11.50	12.25	8.50	10.75	5.25	10.00	3.00	2.75	2.75	3.75	10.25	1.75	2.25	3.75	-0.078613	0.115234	0.997070	-1.190000	7.280000	-2.030000	1374.00	-0.11	-0.11
2.67	0.50	0.75	0.75	0.50	0.25	0.00	2.25	0.00	1.00	2.00	1.25	0.00	0.00	0.75	0.50	0.00	-0.055176	0.460938	1.302734	36.330002	-353.989990	62.580002	132.00	0.08	0.09	14.25	9.75	11.00	11.50	8.25	10.75	5.25	10.25	3.00	2.75	2.75	4.00	10.50	1.75	2.25	3.75	-0.077637	0.115234	0.987793	0.560000	8.610000	-2.100000	1331.00	-0.10	-0.11
2.68	0.75	0.00	1.00	0.00	0.50	0.00	2.00	0.00	0.75	2.00	1.50	0.00	0.50	0.75	0.50	0.00	-0.179199	0.446777	1.300293	14.840000	-363.790009	85.680000	128.00	0.10	0.09	13.00	8.50	10.25	10.50	8.00	10.50	5.25	10.25	3.00	2.75	3.00	4.50	11.00	2.00	2.25	4.25	-0.073730	0.113281	0.982422	1.820000	9.660000	-2.590000	1295.00	-0.08	-0.12
2.69	0.50	0.00	1.00	0.00	0.50	0.00	2.00	0.00	0.50	2.00	1.25	0.00	0.00	0.25	0.25	0.00	-0.279785	0.477539	1.336914	-6.580000	-368.339996	105.000000	106.00	0.09	0.11	10.75	7.50	9.50	9.50	7.75	10.25	5.00	10.25	3.00	3.00	3.25	4.50	11.00	1.75	2.50	4.25	-0.078613	0.121582	0.982910	2.520000	10.430000	-2.870000	1235.00	-0.07	-0.12
2.70	0.00	0.00	0.75	0.00	0.50	0.00	2.00	0.00	0.75	2.00	1.25	0.00	0.00	0.25	0.75	0.00	-0.392578	0.550293	1.405273	-19.389999	-371.209991	119.349998	107.00	0.14	0.11	9.25	6.75	8.25	8.75	7.50	8.50	5.00	10.25	2.75	2.25	3.00	5.00	11.00	1.75	2.50	4.50	-0.079102	0.116699	0.977539	2.590000	10.570000	-3.010000	1155.00	-0.06	-0.13
2.71	0.75	0.75	1.25	0.00	0.50	0.00	2.00	0.00	1.00	2.00	0.50	0.00	0.00	0.25	0.25	0.00	-0.485840	0.638184	1.503418	-17.639999	-374.429993	130.339996	118.00	0.03	0.12	7.00	5.00	7.00	6.75	6.25	8.25	5.00	9.50	2.50	2.75	3.50	5.50	11.75	2.25	2.75	4.50	-0.087891	0.118164	0.975586	2.660000	10.430000	-3.080000	1070.00	-0.03	-0.13
2.72	0.50	0.00	1.00	0.00	0.50	0.00	2.00	0.00	1.00	1.75	1.00	0.00	0.00	0.25	0.25	0.00	-0.586426	0.659668	1.570312	-6.510000	-377.369995	138.809998	108.00	0.09	0.13	7.25	5.50	7.50	6.50	6.25	9.25	5.00	10.50	3.25	3.25	3.75	6.00	11.75	2.00	2.75	5.25	-0.082520	0.120605	0.978516	2.870000	10.570000	-3.010000	1137.00	-0.03	-0.14
2.73	0.75	0.75	0.75	0.00	0.25	0.00	2.00	0.00	1.00	1.75	0.75	0.00	0.00	0.50	0.25	0.25	-0.706543	0.650391	1.608398	7.140000	-376.529999	145.180008	113.00	0.06	0.12	5.75	3.50	5.75	5.50	5.75	8.00	5.00	9.50	1.50	2.25	3.00	5.25	11.25	1.00	1.50	4.75	-0.070801	0.114746	0.982910	3.080000	10.570000	-3.220000	944.00	-0.03	-0.15
2.74	0.75	0.25	1.00	0.75	0.50	0.00	2.00	0.00	0.25	2.00	1.50	0.00	0.00	0.25	0.25	0.00	-0.852051	0.660645	1.677734	17.500000	-367.850006	148.399994	120.00	0.03	0.07	5.50	3.00	5.25	5.25	5.50	7.75	5.00	9.50	1.75	2.50	3.50	5.50	11.50	1.00	1.50	5.00	-0.094238	0.126465	0.984863	3.430000	10.640000	-3.920000	940.00	-0.02	-0.15
2.75	0.50	0.25	1.00	0.50	0.50	0.00	2.00	0.00	0.50	1.50	1.25	0.00	0.00	0.50	0.25	0.00	-0.983398	0.705566	1.706055	23.870001	-352.730011	151.059998	111.00	0.05	0.09	5.00	2.75	5.00	4.75	5.25	7.75	4.75	9.75	2.25	2.50	3.75	6.25	11.75	1.00	2.00	5.50	-0.099609	0.130371	0.983398	3.920000	10.640000	-4.480000	949.00	-0.00	-0.16
2.76	0.25	0.00	1.00	0.25	0.50	0.00	2.00	0.00	0.75	2.00	1.00	0.00	0.00	0.00	0.25	0.00	-1.157227	0.808594	1.776855	23.100000	-330.750000	154.699997	105.00	0.08	0.11	3.75	2.50	4.75	3.50	5.00	7.50	4.75	10.25	3.50	2.75	4.00	7.00	12.25	1.00	2.00	6.25	-0.104004	0.130859	0.985352	4.200000	11.060000	-5.250000	958.00	0.02	-0.16
2.77	0.50	0.00	0.75	0.00	0.50	0.00	2.00	0.00	1.00	1.75	1.00	0.25	0.00	0.25	0.00	0.00	-1.320801	0.931641	1.811035	16.520000	-302.679993	160.300003	105.00	0.09	0.13	3.75	3.25	5.25	4.75	5.75	8.50	5.00	9.75	2.50	3.00	4.25	7.50	13.25	2.00	3.50	6.75	-0.101562	0.117188	0.970703	4.200000	11.130000	-5.740000	1040.00	0.02	-0.16
2.78	0.50	0.00	0.75	0.00	0.50	0.00	2.00	0.00	0.75	2.00	1.25	0.00	0.00	0.25	0.00	0.00	-1.745117	1.132812	2.036621	10.850000	-272.019989	166.949997	104.00	0.09	0.12	3.50	2.00	3.25	3.00	4.25	7.00	4.75	9.75	2.25	3.25	5.25	7.75	12.75	1.25	2.75	7.50	-0.108887	0.122070	0.971191	4.270000	11.130000	-6.510000	937.00	0.05	-0.17
2.79	0.50	0.25	0.75	0.00	0.50	0.00	2.25	0.00	1.00	1.75	1.00	0.00	0.00	0.25	0.00	0.00	-2.009766	1.629395	2.698242	16.940001	-251.860001	180.110001	108.00	0.08	0.14	3.00	2.00	3.00	3.00	4.25	7.00	4.75	9.75	2.50	3.50	6.00	8.00	13.00	1.50	3.00	8.00	-0.103027	0.139160	0.979980	4.690000	11.340000	-7.070000	956.00	0.06	-0.17
2.80	0.50	0.00	1.00	0.00	0.50	0.00	2.00	0.00	0.25	2.00	1.00	0.25	0.00	0.50	0.25	0.00	-2.357422	1.511719	2.736328	24.990000	-273.980011	234.500000	105.00	0.09	0.10	3.00	1.25	2.50	2.75	3.50	6.75	4.75	9.75	2.75	4.00	6.50	8.25	13.25	1.50	3.25	8.75	-0.106445	0.134766	0.975098	4.690000	11.970000	-7.630000	955.00	0.07	-0.17
2.81	0.25	0.00	1.00	0.00	0.50	0.00	2.00	0.00	0.75	2.00	1.00	0.00	0.00	0.25	0.00	0.00	-2.704590	1.278320	2.386719	-3.080000	-299.950012	260.540009	101.00	0.09	0.13	2.50	1.75	2.50	2.00	3.50	6.50	4.75	9.75	3.50	4.50	7.25	8.50	13.75	1.75	3.75	9.25	-0.109863	0.128906	0.980957	5.320000	12.880000	-8.260000	986.00	0.08	-0.17
2.82	0.50	0.00	1.00	0.25	0.25	0.00	2.00	0.00	0.00	1.75	1.25	0.00	0.00	0.00	0.25	0.00	-3.176758	1.110352	1.845703	-38.080002	-315.489990	272.369995	94.00	0.05	0.09	2.25	1.50	2.25	1.75	3.25	6.25	4.50	9.75	3.25	4.75	7.75	8.75	14.00	1.75	4.25	9.75	-0.094238	0.128418	0.981934	7.140000	15.050000	-9.100000	984.00	0.10	-0.17
2.83	0.25	0.25	1.00	0.00	0.50	0.00	2.00	0.00	0.25	1.75	0.75	0.00	0.00	0.25	0.00	0.00	-3.687988	0.963867	1.218262	-56.770000	-313.950012	264.390015	91.00	0.06	0.12	2.00	1.50	2.00	2.00	3.00	6.25	4.50	9.75	3.75	5.50	8.00	9.00	14.25	2.50	4.50	10.00	-0.107422	0.135254	0.985352	9.240000	16.870001	-10.080000	1013.00	0.10	-0.17
2.84	0.50	0.00	0.75	0.00	0.25	0.00	2.00	0.00	0.50	1.75	1.00	0.00	0.00	0.00	0.00	0.00	-4.353027	0.852051	0.535645	-50.049999	-301.140015	231.419998	89.00	0.08	0.13	2.00	1.25	1.75	1.50	2.75	6.25	4.25	9.75	4.50	6.75	8.25	9.25	14.75	2.75	5.00	10.75	-0.107422	0.139160	0.986816	11.690000	18.969999	-10.990000	1042.00	0.12	-0.16
2.85	0.25	0.00	0.75	0.00	0.50	0.00	2.00	0.00	0.75	1.75	1.00	0.00	0.00	0.00	0.00	0.00	-5.304688	0.635742	-0.192871	-13.790000	-288.329987	169.750000	93.00	0.09	0.13	1.75	1.25	1.50	1.50	2.50	6.00	4.50	9.75	4.50	7.50	8.50	9.75	15.00	3.00	5.25	11.50	-0.110352	0.139648	0.996094	14.350000	21.559999	-11.690000	1064.00	0.13	-0.16
2.86	0.50	0.00	1.00	0.25	0.50	0.00	1.75	0.00	0.50	2.00	1.25	0.00	0.00	0.25	0.00	0.00	-6.234863	0.066895	-0.892090	84.000000	-260.540009	98.559998	102.00	0.07	0.10	1.75	1.00	1.25	1.25	2.00	6.00	4.25	9.50	4.75	7.75	9.00	10.00	15.25	3.75	5.75	12.25	-0.114746	0.144043	1.005371	18.059999	25.059999	-12.390000	1075.00	0.14	-0.16
2.87	0.25	0.00	0.50	0.00	0.25	0.00	2.00	0.00	0.50	1.75	1.00	0.00	0.00	0.00	0.00	0.00	-6.463867	-0.807617	-1.144531	186.970001	-193.830002	35.910000	83.00	0.10	0.13	0.50	0.25	0.25	1.25	2.00	5.75	4.00	9.50	5.50	8.25	9.25	10.25	15.75	4.25	6.25	13.25	-0.112793	0.141113	1.012207	23.799999	29.260000	-13.510000	1078.00	0.16	-0.16
2.88	0.25	0.00	1.00	0.25	0.25	0.00	1.75	0.00	0.25	1.50	0.50	0.00	0.00	0.25	0.00	0.00	-8.361328	-2.932617	0.460938	161.559998	-45.290001	-25.200001	79.00	0.05	0.12	1.00	1.00	0.75	1.25	1.75	5.50	4.00	9.50	5.75	8.50	9.50	10.50	16.00	5.00	7.00	14.00	-0.127441	0.148926	1.015137	31.920000	33.740002	-14.700000	1125.00	0.16	-0.16
2.89	0.00	0.00	0.00	0.00	0.00	0.00	1.75	0.00	0.00	0.50	0.00	0.00	0.00	0.00	0.00	0.00	-4.084473	-2.538086	-1.428223	3.850000	139.369995	-81.480003	34.00	0.00	0.00	1.25	0.75	1.00	1.00	1.75	5.50	4.00	9.50	6.00	8.75	9.75	11.00	16.50	5.75	7.75	14.75	-0.154785	0.158691	1.070801	60.410000	50.330002	-16.170000	1166.00	0.16	-0.16
2.90	1.50	1.50	2.25	0.75	1.00	0.00	2.25	0.00	0.50	1.25	0.25	0.00	0.00	0.25	0.00	0.00	-0.608887	0.390625	0.924805	-110.669998	284.760010	-161.630005	144.00	-0.10	0.09	0.75	0.75	0.50	1.25	1.25	5.25	3.75	9.25	6.25	9.25	10.00	11.25	16.50	6.00	8.25	15.75	-0.147949	0.177734	1.085449	75.529999	63.700001	-16.240000	1169.00	0.17	-0.16
2.91	3.50	2.75	2.75	1.75	1.00	0.00	2.00	0.00	0.50	1.00	0.50	0.00	0.00	0.00	0.00	0.00	0.340820	2.080078	2.645996	-141.820007	242.830002	-158.130005	191.00	-0.19	0.05	0.75	0.50	0.50	1.00	1.00	5.25	3.75	9.25	6.75	9.50	10.25	11.50	17.00	6.75	8.75	16.75	-0.169434	0.182617	1.086914	85.889999	75.040001	-16.730000	1199.00	0.18	-0.15
2.92	5.25	4.50	3.00	2.50	0.75	0.00	2.00	0.00	0.00	0.25	0.00	0.00	0.00	0.00	0.00	0.00	0.051270	1.265137	1.625977	-170.589996	120.540001	-111.020004	216.00	-0.27	0.02	0.50	0.75	0.50	1.00	1.00	5.00	3.50	9.00	6.75	9.75	10.50	11.75	17.25	7.25	9.25	17.50	-0.199219	0.225098	1.095215	92.400002	88.550003	-17.290001	1213.00	0.18	-0.15
2.93	5.00	5.00	1.50	1.00	0.00	0.00	1.75	0.00	0.00	0.00	0.00	0.00	0.00	0.00	0.00	0.00	-0.410645	1.464844	0.176270	-159.880005	237.509995	-12.950000	166.00	-0.30	0.02	0.75	0.50	0.00	1.25	0.75	5.00	3.50	9.00	6.50	10.00	10.75	12.00	17.50	8.00	9.50	18.50	-0.208984	0.178223	1.098145	95.199997	102.970001	-17.360001	1231.00	0.19	-0.16
2.94	8.75	8.00	2.75	2.25	0.00	0.00	1.75	0.00	0.00	0.00	0.00	0.00	0.00	0.00	0.00	0.00	-0.350586	0.126953	2.310059	-86.660004	309.959991	54.180000	269.00	-0.33	0.00	1.00	0.50	0.50	0.50	0.25	4.50	3.50	8.75	7.50	9.75	10.75	13.00	17.50	8.50	9.75	19.50	-0.209473	0.229980	1.103027	94.989998	117.669998	-17.219999	1251.00	0.20	-0.15
2.95	8.25	8.25	3.00	4.00	0.00	0.00	1.50	0.00	0.00	0.00	0.00	0.00	0.00	0.00	0.00	0.00	-0.574707	-1.090820	2.343262	-61.040001	272.160004	57.400002	286.00	-0.33	-0.02	0.25	0.75	0.25	1.00	0.25	4.75	3.25	8.50	6.75	9.75	10.75	12.25	17.25	8.75	10.50	20.25	-0.234863	0.235352	1.146973	93.099998	136.710007	-17.780001	1236.00	0.20	-0.15
2.96	9.75	9.50	4.75	6.00	0.00	0.75	1.75	1.00	0.00	0.00	0.00	0.00	0.00	0.00	0.00	0.00	-0.837402	-0.623047	3.137695	-86.800003	257.390015	1.470000	390.00	-0.31	-0.04	0.50	0.25	0.25	0.75	0.00	4.25	3.25	8.50	6.75	9.50	10.75	12.25	17.25	9.00	10.75	20.75	-0.230469	0.316406	1.206543	88.129997	155.539993	-18.129999	1227.00	0.21	-0.15
2.97	16.25	12.50	6.25	9.00	1.00	5.50	1.75	3.50	0.00	0.00	0.00	0.00	0.00	0.00	0.00	0.00	-0.970703	0.657227	4.051758	-100.519997	186.690002	-26.950001	658.00	-0.29	-0.08	0.50	0.75	0.00	0.75	0.00	4.00	3.25	8.25	6.25	9.25	10.75	12.00	17.00	9.50	11.25	21.50	-0.287598	0.392090	1.165039	94.080002	175.699997	-24.010000	1222.00	0.21	-0.15
2.98	12.25	11.25	7.25	8.75	0.75	5.50	2.25	6.00	0.00	0.25	0.00	0.00	0.25	0.00	0.00	0.00	-0.482422	0.324707	1.374512	-67.269997	96.809998	-8.820000	662.00	-0.25	-0.10	0.25	0.75	0.00	0.75	0.00	4.00	3.00	8.00	6.00	9.00	10.50	12.00	16.50	9.50	11.75	21.75	-0.314453	0.522461	1.196289	103.250000	197.680008	-35.070000	1204.00	0.21	-0.16
2.99	12.25	11.25	7.75	9.00	1.00	7.00	2.25	7.25	0.00	0.00	0.25	0.00	1.25	0.00	0.00	0.00	-0.174316	0.214844	1.056152	-68.320000	71.820000	3.080000	722.00	-0.23	-0.12	0.50	0.50	0.00	0.75	0.00	4.00	3.00	7.75	5.50	8.75	10.50	11.75	16.00	9.50	11.75	22.00	-0.344727	0.491211	1.253906	107.239998	217.000000	-49.910000	1184.00	0.21	-0.16
3.00	18.75	15.00	10.00	11.25	2.00	8.25	2.25	7.75	0.00	0.50	0.00	0.00	2.25	0.00	0.00	0.00	-0.214844	0.064941	1.187988	-78.400002	50.889999	-0.980000	935.00	-0.25	-0.10	0.25	0.50	0.25	0.75	0.00	3.50	3.00	7.50	5.25	8.50	10.25	11.50	15.75	9.50	12.25	22.00	-0.353027	0.513184	1.349121	108.010002	238.770004	-62.510002	1165.00	0.22	-0.16
3.01	12.75	11.50	8.25	9.25	1.50	8.25	2.25	8.25	0.00	0.50	0.75	0.00	3.00	0.00	0.00	0.00	-0.209961	0.071777	1.014648	-76.019997	31.150000	-5.320000	805.00	-0.21	-0.13	0.50	0.25	0.00	0.50	0.00	3.25	3.00	7.25	5.00	8.25	10.00	11.25	15.00	9.25	12.00	21.75	-0.404297	0.414551	1.569336	107.029999	263.410004	-74.620003	1127.00	0.22	-0.16
3.02	12.75	11.50	8.50	9.50	2.25	8.75	2.50	8.50	0.00	0.75	0.50	0.00	5.25	0.00	0.00	0.00	-0.161621	0.135742	1.129395	-80.639999	22.120001	-6.160000	855.00	-0.20	-0.13	0.25	0.50	0.25	0.50	0.00	2.50	3.00	6.75	4.50	8.00	10.00	11.00	14.50	8.75	12.00	21.00	-0.524414	0.815918	1.364746	81.340004	310.380005	-100.169998	1085.00	0.22	-0.15
3.03	12.75	11.25	8.75	9.50	2.50	9.00	2.50	9.00	0.00	0.75	0.50	0.00	6.00	0.00	0.00	0.00	-0.165039	0.104980	1.052246	-79.870003	12.950000	-4.760000	877.00	-0.20	-0.14	0.00	0.50	0.25	0.50	0.00	2.50	3.00	6.25	4.00	7.75	9.75	10.50	13.50	8.25	11.75	20.25	-0.535156	0.673828	1.409180	75.599998	347.130005	-117.110001	1034.00	0.22	-0.15
3.04	12.75	11.00	8.75	9.75	3.00	9.25	2.75	9.50	0.00	1.25	0.25	0.00	7.50	0.00	0.00	0.00	-0.155273	0.130859	1.009277	-74.269997	0.420000	-4.060000	916.00	-0.19	-0.14	0.00	0.25	0.00	0.00	0.00	1.75	3.25	5.50	3.00	7.75	9.50	10.00	13.00	7.50	11.50	18.50	-0.611816	0.745117	1.610352	63.209999	386.679993	-134.750000	957.00	0.23	-0.15
3.05	13.25	11.25	9.75	11.75	5.75	11.25	3.00	9.75	0.00	1.50	0.50	1.00	9.75	0.25	0.00	0.00	-0.141602	0.151367	1.018066	-65.169998	-5.880000	-4.200000	1066.00	-0.17	-0.14	0.00	0.25	0.00	0.00	0.00	1.50	3.25	5.00	2.25	7.25	9.00	9.25	11.75	6.25	10.25	15.50	-0.917480	0.935547	1.542480	39.830002	425.950012	-148.330002	860.00	0.23	-0.16
3.06	17.25	13.25	10.75	11.25	6.00	10.75	2.75	10.00	0.25	1.50	0.75	1.25	9.00	0.00	0.00	0.25	-0.163574	0.127930	1.006348	-51.240002	-8.470000	-5.040000	1136.00	-0.18	-0.13	0.00	0.25	0.00	0.00	0.00	1.00	3.25	2.75	2.00	6.50	8.50	8.25	10.75	5.00	8.75	12.00	-0.923828	1.038574	2.735840	39.970001	459.899994	-161.350006	728.00	0.23	-0.14
3.07	12.25	10.50	9.00	9.50	5.75	9.75	3.00	10.25	0.50	1.75	1.25	1.75	9.50	0.00	0.00	0.25	-0.138184	0.089355	1.003418	-35.700001	-8.610000	-5.320000	1026.00	-0.15	-0.14	0.00	0.25	0.00	0.00	0.00	0.50	3.25	1.75	1.75	5.50	7.50	7.50	9.25	3.50	7.25	9.25	-0.904785	0.541016	2.665527	51.730000	468.299988	-164.289993	609.00	0.23	-0.14
3.08	12.00	10.75	9.00	9.50	6.75	9.75	3.00	11.25	1.75	1.50	1.50	2.25	11.00	1.00	0.50	1.25	-0.140137	0.078125	0.993652	-22.680000	-6.580000	-4.480000	1113.00	-0.13	-0.14	0.00	0.00	0.00	0.00	0.00	0.00	3.25	0.25	1.25	4.25	5.25	5.75	7.25	1.50	5.75	7.25	-1.265625	1.092773	2.943848	49.700001	465.149994	-157.080002	442.00	0.24	-0.12
3.09	16.75	12.00	10.75	11.25	7.50	11.50	3.25	11.75	2.00	2.75	2.50	3.75	11.75	1.25	0.75	1.50	-0.131836	0.081543	0.969238	-8.890000	0.840000	-3.150000	1324.00	-0.13	-0.13	0.00	0.00	0.00	0.00	0.00	0.00	3.25	0.50	1.00	2.75	4.00	4.25	5.00	0.75	4.50	5.00	-0.815918	0.722168	3.062012	73.989998	442.049988	-167.229996	338.00	0.23	-0.11
3.10	15.50	11.00	10.50	10.75	7.50	11.25	3.25	12.00	2.25	3.25	2.75	4.00	12.00	1.50	1.00	1.75	-0.131348	0.087891	0.981934	-6.370000	4.900000	-3.150000	1316.00	-0.11	-0.13	0.00	0.00	0.00	0.00	0.00	0.00	3.25	0.25	0.00	1.75	2.75	2.75	3.50	0.25	2.75	3.00	-0.533203	1.122559	2.187500	71.120003	401.869995	-180.389999	225.00	0.22	-0.10
3.11	14.25	10.00	10.25	10.25	7.50	11.25	3.25	12.00	2.50	3.25	3.25	4.50	12.50	1.50	1.00	2.25	-0.138672	0.078125	0.986328	-3.710000	8.330000	-2.800000	1305.00	-0.10	-0.14	0.00	0.00	0.00	0.00	0.00	0.00	3.25	0.00	0.00	1.25	1.75	1.75	1.75	0.00	1.75	2.50	-0.096680	1.327637	1.923828	75.879997	384.369995	-193.270004	159.00	0.21	-0.05
3.12	13.00	9.25	9.50	9.75	7.50	11.00	3.50	12.00	2.50	3.50	3.75	5.50	12.50	1.50	1.00	2.50	-0.135742	0.073730	0.983887	-0.770000	11.340000	-1.960000	1291.00	-0.09	-0.14	0.00	0.00	0.00	0.00	0.00	0.00	3.50	0.00	0.00	0.50	1.25	0.75	0.75	0.00	0.50	1.00	0.301758	1.487305	2.344727	123.970001	378.420013	-195.089996	105.00	0.16	0.04
3.13	12.00	8.50	9.25	9.25	7.25	10.75	3.25	12.25	2.75	3.75	4.00	5.75	13.00	1.50	1.00	3.00	-0.139160	0.079102	0.990723	2.030000	14.070000	-1.120000	1277.00	-0.08	-0.14	0.00	0.00	0.00	0.00	0.00	0.00	3.75	0.00	0.00	0.25	1.00	0.50	0.00	0.00	0.50	0.75	2.324707	-1.610840	3.265625	190.889999	216.089996	-241.430008	92.00	0.15	0.11
3.14	10.75	8.00	9.00	8.75	7.00	10.50	3.25	12.25	2.75	3.75	4.50	6.00	13.25	1.50	1.25	3.00	-0.142090	0.091797	0.980957	3.920000	16.450001	-0.700000	1257.00	-0.07	-0.15	0.00	0.00	0.00	0.00	0.00	0.00	3.75	0.00	0.00	0.50	1.00	0.75	0.00	0.00	0.25	0.75	1.101562	1.339355	4.303223	123.550003	47.110001	-228.619995	95.00	0.14	0.10
3.15	9.50	7.25	8.25	8.25	7.00	10.25	3.25	12.25	3.25	4.00	5.00	7.00	13.50	1.75	1.50	3.50	-0.145996	0.086914	0.973145	5.460000	18.129999	-0.560000	1255.00	-0.05	-0.15	0.00	0.00	0.00	0.00	0.00	0.00	3.75	0.00	0.00	0.25	1.00	0.25	0.00	0.00	0.00	0.25	1.999512	0.303711	2.246094	65.940002	-129.710007	-182.559998	80.00	0.12	0.16
3.16	8.50	6.75	8.00	7.75	6.75	10.00	3.25	12.25	3.75	4.00	5.75	7.50	13.50	1.75	1.50	4.00	-0.148926	0.090332	0.976074	6.580000	19.180000	-0.770000	1248.00	-0.04	-0.15	0.00	0.00	0.00	0.00	0.00	0.00	3.75	0.00	0.00	0.25	0.75	0.25	0.00	0.00	0.00	0.25	1.191895	0.361328	1.625977	-7.420000	-214.130005	-163.169998	78.00	0.11	0.17
3.17	7.50	6.00	7.50	7.50	6.50	9.75	3.00	12.25	3.50	4.50	5.75	7.50	13.75	1.75	1.75	4.25	-0.146973	0.102051	0.967773	6.930000	20.020000	-1.190000	1219.00	-0.03	-0.16	0.00	0.00	0.00	0.00	0.00	0.00	3.75	0.00	0.00	0.25	0.25	0.00	0.00	0.00	0.00	0.25	1.023438	0.686523	0.946777	-55.930000	-240.029999	-149.100006	69.00	0.10	0.21
3.18	6.75	5.25	7.00	6.50	6.25	9.50	3.00	12.25	3.25	4.75	6.50	7.75	13.75	2.00	1.75	4.50	-0.150391	0.100098	0.964355	6.580000	20.510000	-2.030000	1193.00	-0.01	-0.16	0.00	0.00	0.00	0.00	0.00	0.00	3.75	0.00	0.00	0.00	0.50	0.00	0.00	0.00	0.00	0.00	0.899902	0.868652	0.711914	-73.430000	-240.100006	-125.440002	67.00	0.09	0.21
3.19	6.25	5.25	6.25	6.00	5.75	9.25	3.00	12.25	4.00	5.25	7.25	8.00	13.75	2.00	2.00	5.00	-0.151367	0.101074	0.962402	6.230000	20.650000	-2.450000	1197.00	0.00	-0.16	0.00	0.00	0.00	0.00	0.00	0.00	3.75	0.00	0.00	0.00	0.25	0.00	0.00	0.00	0.00	0.00	0.838867	0.950684	0.545898	-60.619999	-237.020004	-101.290001	65.00	0.09	0.23
3.20	5.50	4.50	6.00	5.25	5.25	8.75	3.00	11.75	3.50	5.25	7.25	8.00	14.00	2.00	1.75	5.25	-0.153320	0.088867	0.962402	6.300000	21.070000	-2.450000	1143.00	0.01	-0.16	0.00	0.00	0.00	0.00	0.00	0.00	3.75	0.00	0.00	0.25	0.25	0.00	0.00	0.00	0.00	0.00	0.794434	1.035645	0.520020	-32.689999	-238.070007	-78.540001	67.00	0.09	0.22
3.21	5.00	4.50	4.75	2.00	4.75	7.75	2.75	12.00	3.25	5.00	6.75	7.50	13.50	2.25	2.00	5.50	-0.160645	0.092285	0.969238	7.420000	21.420000	-2.660000	1049.00	0.03	-0.17	0.00	0.00	0.00	0.00	0.00	0.00	3.75	0.00	0.00	0.00	0.25	0.00	0.00	0.00	0.00	0.00	0.729980	1.056641	0.560547	-0.490000	-243.389999	-52.779999	65.00	0.09	0.23
3.22	1.00	0.00	2.25	0.50	3.25	6.75	2.50	10.50	2.50	5.00	7.00	7.75	12.50	0.75	1.00	5.25	-0.151367	0.104492	0.959473	8.190000	21.980000	-2.800000	810.00	0.08	-0.20	0.00	0.00	0.00	0.00	0.00	0.00	3.75	0.00	0.00	0.00	0.25	0.00	0.00	0.00	0.00	0.00	0.658203	0.983887	0.628418	26.389999	-251.020004	-24.290001	65.00	0.09	0.23
3.23	0.25	0.00	2.00	0.00	2.50	6.25	2.50	10.50	3.00	5.00	7.25	7.75	12.50	0.50	1.25	5.50	-0.153809	0.103516	0.960449	8.330000	22.330000	-3.220000	789.00	0.10	-0.20	0.00	0.00	0.00	0.00	0.00	0.00	3.75	0.00	0.00	0.00	0.25	0.00	0.00	0.00	0.00	0.00	0.562500	0.906738	0.693848	42.910000	-258.860016	7.490000	65.00	0.09	0.23
3.24	0.00	0.00	1.25	0.00	2.50	6.00	2.50	10.25	3.00	5.50	7.50	7.75	12.50	1.00	1.75	5.50	-0.158203	0.122559	0.952148	8.120000	24.500000	-4.830000	789.00	0.11	-0.20	0.00	0.00	0.00	0.00	0.00	0.00	3.75	0.00	0.00	0.00	0.00	0.00	0.00	0.00	0.00	0.00	0.373535	0.800293	0.828613	49.560001	-275.730011	72.660004	62.00	0.08	0.24
3.25	0.00	0.00	1.00	0.00	2.25	5.50	2.50	10.25	3.50	5.75	7.50	7.75	12.50	1.00	1.75	6.00	-0.166992	0.107910	0.951172	7.700000	26.180000	-5.600000	790.00	0.12	-0.20	0.00	0.00	0.00	0.00	0.00	0.00	3.75	0.00	0.00	0.00	0.00	0.00	0.00	0.00	0.00	0.00	0.373535	0.800293	0.828613	49.560001	-275.730011	72.660004	62.00	0.08	0.24
3.26	0.00	0.00	1.00	0.00	2.00	5.00	2.25	10.00	4.25	5.75	7.75	8.00	12.50	1.25	2.00	6.25	-0.182129	0.112305	0.939453	6.440000	26.320000	-6.440000	796.00	0.13	-0.19	0.00	0.00	0.00	0.00	0.00	0.00	3.75	0.00	0.00	0.00	0.00	0.00	0.00	0.00	0.00	0.00	0.178711	0.636230	1.039062	63.840000	-294.559998	119.980003	62.00	0.08	0.24
3.27	0.00	0.00	0.25	0.00	2.00	4.50	2.25	9.75	4.25	6.75	7.75	8.00	12.25	1.50	2.25	6.25	-0.181641	0.109863	0.943848	4.970000	25.340000	-7.070000	791.00	0.14	-0.19	0.00	0.00	0.00	0.00	0.00	0.00	3.75	0.00	0.00	0.00	0.00	0.00	0.00	0.00	0.00	0.00	0.091797	0.537598	1.160645	71.610001	-304.570007	132.369995	62.00	0.08	0.24
3.28	0.00	0.00	0.25	0.00	2.00	4.00	2.25	9.75	5.00	7.00	7.75	8.00	12.50	1.75	2.25	6.50	-0.189453	0.102051	0.930176	3.710000	23.520000	-7.490000	805.00	0.15	-0.18	0.00	0.00	0.00	0.00	0.00	0.00	3.75	0.00	0.00	0.00	0.00	0.00	0.00	0.00	0.00	0.00	-0.042969	0.483887	1.314941	80.989998	-316.190002	138.250000	62.00	0.08	0.24
3.29	0.00	0.00	0.25	0.00	1.75	3.75	2.25	9.50	5.25	7.50	8.00	8.25	12.25	2.50	2.75	6.75	-0.191406	0.102539	0.929688	2.240000	21.070000	-7.490000	821.00	0.16	-0.17	0.00	0.00	0.00	0.00	0.00	0.00	3.75	0.00	0.00	0.00	0.00	0.00	0.00	0.00	0.00	0.00	-0.181152	0.418945	1.454590	92.820000	-329.279999	138.320007	62.00	0.08	0.24
3.30	0.00	0.00	0.00	0.00	1.50	3.25	2.25	9.50	5.75	7.75	8.25	8.25	12.50	3.00	3.00	7.00	-0.193848	0.103516	0.938965	0.910000	17.990000	-7.070000	834.00	0.16	-0.17	0.00	0.00	0.00	0.00	0.00	0.00	3.75	0.00	0.00	0.00	0.00	0.00	0.00	0.00	0.00	0.00	-0.353027	0.370605	1.606934	104.860001	-341.600006	132.930008	62.00	0.08	0.24
3.31	0.00	0.00	0.00	0.00	1.50	3.25	2.25	9.25	6.50	8.00	8.25	8.50	12.75	3.50	3.00	7.25	-0.186035	0.102051	0.939941	0.210000	15.610000	-6.720000	854.00	0.17	-0.16	0.00	0.00	0.00	0.00	0.00	0.00	3.50	0.00	0.00	0.00	0.00	0.00	0.00	0.00	0.00	0.00	-0.511230	0.307617	1.716797	115.849998	-352.450012	124.180000	58.00	0.08	0.24
3.32	0.00	0.00	0.00	0.00	1.50	3.00	2.25	9.25	7.25	8.50	8.50	8.75	13.00	3.75	3.25	7.50	-0.190918	0.103027	0.948730	0.350000	14.700000	-6.650000	883.00	0.17	-0.15	0.00	0.00	0.00	0.00	0.00	0.00	3.50	0.00	0.00	0.00	0.00	0.00	0.00	0.00	0.00	0.00	-0.669922	0.243652	1.840820	124.110001	-359.170013	113.680000	58.00	0.08	0.24
3.33	0.00	0.00	0.00	0.00	1.50	3.00	2.25	9.25	7.50	8.75	8.75	9.00	13.00	4.25	4.00	7.75	-0.192383	0.114746	0.949707	1.470000	14.560000	-6.510000	909.00	0.18	-0.15	0.00	0.00	0.00	0.00	0.00	0.00	3.50	0.00	0.00	0.00	0.00	0.00	0.00	0.00	0.00	0.00	-0.902832	0.235352	1.931641	128.100006	-363.299988	102.550003	58.00	0.08	0.24
3.34	0.00	0.00	0.00	0.00	1.25	2.75	2.25	9.25	8.00	9.25	9.00	9.25	13.50	5.00	4.50	8.25	-0.194336	0.100586	0.955566	3.850000	15.610000	-6.720000	942.00	0.18	-0.14	0.00	0.00	0.00	0.00	0.00	0.00	3.50	0.00	0.00	0.00	0.00	0.00	0.00	0.00	0.00	0.00	-1.074707	0.230957	1.989258	126.629997	-363.440002	94.709999	58.00	0.08	0.24
3.35	0.00	0.00	0.00	0.00	1.50	3.00	2.25	9.25	8.25	9.25	9.50	9.25	13.50	5.75	5.25	8.75	-0.186523	0.102539	0.969238	6.930000	17.850000	-6.930000	976.00	0.19	-0.14	0.00	0.00	0.00	0.00	0.00	0.00	3.50	0.00	0.00	0.00	0.00	0.00	0.00	0.00	0.00	0.00	-1.181641	0.289062	1.999023	118.580002	-356.720001	92.610001	58.00	0.08	0.24
3.36	0.00	0.00	0.00	0.00	1.25	2.50	2.25	9.25	8.50	9.75	9.75	9.75	14.00	6.25	5.50	9.25	-0.207520	0.107910	0.982422	11.900000	21.700001	-6.860000	1000.00	0.19	-0.14	0.00	0.00	0.00	0.00	0.00	0.00	3.75	0.00	0.00	0.00	0.00	0.00	0.00	0.00	0.00	0.00	-1.275879	0.419922	2.089355	106.400002	-342.369995	98.279999	62.00	0.08	0.24
3.37	0.00	0.00	0.00	0.00	1.00	2.25	2.00	9.25	9.00	10.00	10.00	10.00	14.25	7.25	6.00	9.75	-0.194824	0.103027	0.991211	18.969999	28.000000	-6.440000	1026.00	0.20	-0.13	0.00	0.00	0.00	0.00	0.00	0.00	3.50	0.00	0.00	0.00	0.00	0.00	0.00	0.00	0.00	0.00	-1.345703	0.503906	2.164062	91.139999	-323.820007	114.309998	58.00	0.08	0.24
3.38	0.00	0.00	0.00	0.00	0.75	2.25	2.00	9.25	9.25	10.50	10.25	10.50	15.00	8.75	7.50	11.25	-0.191406	0.112305	1.000977	28.139999	36.610001	-6.370000	1088.00	0.21	-0.13	0.00	0.00	0.00	0.00	0.00	0.00	3.50	0.00	0.00	0.00	0.00	0.00	0.00	0.00	0.00	0.00	-1.572754	0.668945	2.285645	50.959999	-284.130005	174.860001	58.00	0.08	0.24
3.39	0.00	0.00	0.00	0.00	0.75	3.00	2.00	9.50	9.75	11.00	11.00	11.25	16.00	9.25	8.00	12.00	-0.215332	0.147949	1.015625	47.599998	59.639999	-4.760000	1156.00	0.21	-0.13	0.00	0.00	0.00	0.00	0.00	0.00	3.50	0.00	0.00	0.00	0.00	0.00	0.00	0.00	0.00	0.00	-1.718750	0.745117	2.281250	31.080000	-266.630005	211.470001	58.00	0.08	0.24
3.40	1.00	0.25	1.00	0.75	1.25	4.50	2.00	10.00	11.00	11.75	11.75	12.00	17.00	9.50	8.50	12.75	-0.213867	0.125977	1.005371	52.990002	74.199997	-3.220000	1288.00	0.19	-0.13	0.00	0.00	0.00	0.00	0.00	0.00	3.50	0.00	0.00	0.00	0.00	0.00	0.00	0.00	0.00	0.00	-1.921387	0.797363	2.264160	14.840000	-253.610001	244.649994	58.00	0.08	0.24
3.41	1.00	0.75	1.00	0.50	0.75	2.75	1.75	9.00	10.00	11.25	11.00	11.25	15.25	9.25	7.75	12.50	-0.252441	0.112793	1.056641	56.349998	87.919998	-0.910000	1177.00	0.19	-0.13	0.00	0.00	0.00	0.00	0.00	0.00	3.50	0.00	0.00	0.00	0.00	0.00	0.00	0.00	0.00	0.00	-2.179688	0.822754	2.195312	0.350000	-247.029999	270.549988	58.00	0.08	0.24
3.42	0.00	0.00	0.00	0.00	0.25	2.25	1.75	9.00	10.50	11.50	11.50	11.50	15.75	9.75	7.75	13.00	-0.266113	0.159180	1.054199	61.950001	102.199997	0.910000	1159.00	0.22	-0.13	0.00	0.00	0.00	0.00	0.00	0.00	3.50	0.00	0.00	0.00	0.00	0.00	0.00	0.00	0.00	0.00	-2.473145	0.863281	1.984375	-14.630000	-246.470001	287.279999	58.00	0.08	0.24
3.43	1.00	0.25	0.50	0.25	0.75	3.50	1.75	9.25	11.00	12.00	12.25	12.50	17.50	11.25	9.50	15.25	-0.270996	0.204590	1.128418	69.090004	119.559998	0.210000	1303.00	0.21	-0.13	0.00	0.00	0.25	0.00	0.00	0.00	3.50	0.00	0.00	0.00	0.00	0.00	0.00	0.00	0.00	0.00	-2.807129	0.917969	1.638672	-28.210001	-245.350006	294.279999	61.00	0.06	0.23
3.44	0.75	0.75	1.00	0.50	0.75	3.25	1.75	9.00	11.00	11.75	12.25	12.75	17.25	11.75	9.75	15.75	-0.263184	0.210938	1.143066	74.199997	137.970001	-3.430000	1316.00	0.20	-0.12	0.00	0.00	0.00	0.00	0.00	0.00	3.75	0.00	0.00	0.00	0.00	0.00	0.00	0.00	0.00	0.00	-3.090820	0.888184	1.021973	-30.940001	-239.960007	291.339996	62.00	0.08	0.24
3.45	0.75	0.50	0.75	0.75	0.75	2.75	1.75	8.75	10.50	11.75	12.25	12.75	17.25	11.75	10.00	16.25	-0.299316	0.231934	1.216309	69.650002	157.990005	-7.210000	1302.00	0.21	-0.13	0.50	0.00	0.00	0.00	0.00	0.00	3.50	0.00	0.00	0.00	0.00	0.00	0.00	0.00	0.00	0.00	-3.750000	0.536133	0.503906	13.440001	-218.330002	278.950012	63.00	0.04	0.23
3.46	0.25	0.50	0.75	0.75	0.50	2.25	1.75	8.50	10.25	11.50	12.00	12.50	17.00	12.25	10.50	16.75	-0.389648	0.344238	1.160645	75.180000	181.649994	-11.480000	1282.00	0.22	-0.13	0.25	0.00	0.00	0.00	0.00	0.00	3.75	0.00	0.00	0.00	0.00	0.00	0.00	0.00	0.00	0.00	-5.316895	-0.000488	-0.049805	119.770004	-209.089996	259.000000	65.00	0.06	0.24
3.47	0.75	0.25	1.25	0.50	0.25	2.00	1.50	8.00	9.75	11.00	12.00	12.50	16.50	12.50	10.50	17.00	-0.416992	0.389160	1.240234	87.500000	208.809998	-20.090000	1256.00	0.22	-0.12	0.00	0.25	0.00	0.00	0.00	0.00	3.50	0.00	0.00	0.00	0.00	0.00	0.00	0.00	0.00	0.00	-6.114258	-0.898438	-0.392090	208.039993	-172.550003	223.720001	60.00	0.06	0.23
3.48	0.50	0.00	1.00	1.00	0.50	2.25	1.50	7.75	9.25	10.75	11.75	12.25	16.00	12.00	10.75	16.75	-0.422363	0.466309	1.360352	95.760002	235.690002	-30.309999	1232.00	0.22	-0.13	0.25	0.00	0.25	0.00	0.00	0.00	3.50	0.00	0.00	0.00	0.00	0.00	0.00	0.00	0.00	0.00	-5.743652	-1.871582	-0.588379	223.860001	-94.779999	170.380005	64.00	0.04	0.23
3.49	0.00	0.00	0.75	0.25	0.25	2.25	1.50	7.75	8.75	10.50	11.50	12.25	15.50	11.25	10.75	16.75	-0.414551	0.432129	1.405762	105.349998	265.019989	-43.330002	1186.00	0.22	-0.13	0.25	0.00	0.25	0.00	0.00	0.00	3.50	0.00	0.00	0.00	0.00	0.00	0.00	0.00	0.00	0.00	-4.648438	-2.330078	-0.545410	143.430008	17.430000	101.779999	64.00	0.04	0.23
3.50	0.00	0.00	0.25	0.00	0.25	2.00	1.50	7.50	8.25	10.00	11.50	12.00	15.00	10.75	10.75	16.50	-0.432129	0.449707	1.540527	109.830002	298.970001	-55.720001	1144.00	0.23	-0.13	0.50	0.75	0.25	0.25	0.00	0.00	3.75	0.00	0.00	0.00	0.00	0.00	0.00	0.00	0.00	0.00	0.120117	-0.742676	-0.083008	-65.519997	276.779999	-68.180000	81.00	-0.03	0.17
3.51	0.25	0.00	0.50	0.50	0.25	1.25	1.50	7.50	7.75	9.50	11.25	11.50	14.25	9.75	10.75	15.75	-0.439941	0.398926	1.776367	105.840004	335.019989	-69.580002	1104.00	0.22	-0.14	1.00	0.50	0.75	0.25	0.25	0.00	3.75	0.00	0.00	0.00	0.00	0.00	0.00	0.00	0.00	0.00	0.729492	0.252441	2.178711	-117.040001	303.380005	-131.880005	93.00	-0.06	0.17
3.52	0.00	0.00	0.50	0.00	0.25	1.50	1.50	6.75	7.00	9.25	11.00	11.00	13.00	8.50	10.25	14.00	-0.506836	0.548828	1.542969	94.639999	382.829987	-81.129997	1024.00	0.23	-0.13	2.00	1.00	1.25	0.50	0.50	0.00	3.75	0.00	0.00	0.00	0.00	0.00	0.00	0.00	0.00	0.00	0.206543	0.618164	3.028809	-153.789993	193.130005	-131.250000	122.00	-0.12	0.13
3.53	0.50	0.50	0.75	0.50	0.00	0.75	1.50	5.75	6.50	9.00	10.75	10.50	12.00	7.25	9.50	11.50	-1.469727	1.894531	2.267090	83.860001	489.580017	-112.629997	952.00	0.22	-0.13	3.50	1.50	1.75	1.00	0.50	0.00	3.50	0.00	0.00	0.00	0.00	0.00	0.00	0.00	0.00	0.00	-0.408203	0.449707	0.774414	-175.210007	100.029999	-110.250000	152.00	-0.18	0.10
3.54	0.50	0.25	0.25	0.25	0.00	0.00	1.50	4.50	5.75	8.50	10.00	9.50	10.50	5.75	8.00	9.00	-0.592773	0.061035	3.044434	96.250000	528.919983	-107.099998	814.00	0.23	-0.12	4.75	2.50	2.50	1.75	0.50	0.00	3.50	0.00	0.00	0.00	0.00	0.00	0.00	0.00	0.00	0.00	-0.641113	0.954102	0.133301	-180.320007	119.279999	-100.730003	194.00	-0.22	0.07
3.55	0.25	0.00	0.25	0.00	0.00	0.50	1.50	2.25	5.00	7.75	9.00	8.50	8.75	3.75	6.50	6.75	-1.154297	0.015625	4.325195	147.000000	542.080017	-105.000000	667.00	0.23	-0.11	6.00	4.25	3.75	3.00	0.50	0.00	3.50	0.00	0.00	0.00	0.00	0.00	0.00	0.00	0.00	0.00	-0.061523	1.162598	0.724609	-134.119995	195.509995	-72.519997	256.00	-0.25	0.04
3.56	0.00	0.00	0.25	0.00	0.25	0.25	1.75	0.75	5.00	7.00	8.00	7.50	6.50	2.25	5.25	5.25	-1.445801	0.112793	3.727051	120.050003	535.080017	-86.309998	553.00	0.24	-0.09	8.50	7.25	4.50	4.50	0.25	0.25	3.25	0.25	0.00	0.00	0.00	0.00	0.25	0.00	0.00	0.00	0.048828	0.677734	1.044434	-64.400002	223.509995	-17.010000	344.00	-0.28	0.00
3.57	0.50	0.00	0.50	0.50	0.00	0.50	1.75	0.25	3.50	6.00	6.75	5.75	5.00	2.00	3.75	3.50	-0.956055	0.546875	3.348633	88.410004	522.970032	-90.090004	448.00	0.22	-0.08	13.00	10.25	5.75	8.00	0.50	2.50	3.50	2.00	0.00	0.00	0.25	0.50	0.75	0.25	0.00	0.00	-0.683594	0.061035	2.469727	-81.059998	266.000000	-11.060000	561.00	-0.26	-0.05
3.58	0.25	0.25	0.50	0.25	0.25	0.00	1.50	0.50	3.25	5.00	5.25	4.00	2.75	1.75	2.50	2.00	-0.280762	0.754883	2.032227	55.020000	480.619995	-103.529999	343.00	0.21	-0.05	17.75	15.00	8.50	10.25	1.75	5.00	4.00	4.25	0.00	0.00	0.50	0.50	1.25	0.50	0.75	0.75	-0.903320	0.191895	3.606445	-208.110001	218.399994	-20.370001	837.00	-0.24	-0.07
3.59	0.50	0.00	0.75	0.00	0.25	0.00	1.75	0.25	2.00	4.50	5.00	2.75	1.50	1.00	1.75	1.75	0.746582	1.178711	2.143555	40.110001	462.910004	-120.400002	273.00	0.20	-0.03	16.25	17.50	10.50	11.75	1.75	7.00	4.00	6.00	0.00	0.00	0.50	0.75	2.50	0.00	0.00	0.25	-0.715820	0.036621	2.023926	-170.100006	98.349998	-9.450000	939.00	-0.24	-0.09
3.60	0.50	1.00	0.75	0.50	0.25	0.00	1.75	0.00	1.50	3.75	3.50	1.25	0.75	0.75	1.50	0.75	0.975098	1.309082	2.464355	58.380001	447.019989	-141.539993	217.00	0.15	0.00	22.75	19.00	11.75	13.25	2.75	7.75	4.25	7.25	0.00	0.00	0.50	0.75	3.75	0.25	0.25	0.25	-0.169434	0.111328	1.570312	-141.820007	57.540001	-0.280000	1123.00	-0.24	-0.09
3.61	0.50	0.00	1.25	0.50	0.75	0.00	2.00	0.00	1.50	4.00	3.00	1.25	0.00	1.00	1.00	0.50	1.260254	1.188477	2.570312	103.040001	397.040009	-165.550003	208.00	0.15	0.05	22.25	18.50	12.25	13.75	3.25	8.50	4.50	7.50	0.00	0.25	1.00	1.00	5.00	0.00	0.50	0.50	-0.169434	0.111328	1.570312	-141.820007	57.540001	-0.280000	1173.00	-0.23	-0.09
3.62	1.00	0.50	1.25	0.25	0.50	0.25	2.00	0.00	1.50	3.50	3.00	1.00	0.00	1.00	1.25	0.50	0.950195	1.925781	4.550293	153.160004	319.480011	-178.639999	210.00	0.12	0.04	21.75	18.00	12.50	13.50	4.00	9.00	4.75	8.00	0.25	0.25	0.75	1.00	5.50	0.25	0.50	0.50	-0.075195	0.114258	1.050293	-70.699997	14.560000	-1.050000	1198.00	-0.22	-0.09
3.63	1.25	0.50	1.50	0.75	0.50	0.00	2.00	0.00	1.50	3.25	2.50	0.75	0.00	1.00	0.75	0.50	2.408691	0.907227	2.947266	134.470001	80.010002	-146.020004	202.00	0.09	0.05	20.50	17.00	12.25	13.50	5.00	9.50	5.00	8.50	0.50	0.50	0.75	1.25	6.75	0.25	0.25	0.75	-0.105469	0.161133	1.094727	-52.709999	1.260000	0.770000	1220.00	-0.20	-0.10
3.64	0.25	0.00	1.50	0.25	0.50	0.00	2.00	0.00	1.50	2.75	2.75	0.25	0.00	1.25	1.00	0.25	1.805176	0.710449	2.812500	64.260002	-91.209999	-87.779999	175.00	0.15	0.08	19.25	16.25	12.00	13.00	6.25	10.25	4.75	9.00	0.75	0.75	0.75	1.25	8.00	0.00	0.50	1.00	-0.129883	0.148926	1.038574	-30.309999	-8.610000	0.350000	1238.00	-0.19	-0.11
3.65	0.50	0.00	1.25	0.75	0.50	0.00	2.00	0.00	1.00	3.00	2.25	0.25	0.00	0.50	0.75	0.50	1.433594	0.420410	2.032227	-24.780001	-200.550003	-43.330002	162.00	0.11	0.06	18.75	15.50	11.75	13.50	5.75	10.25	5.00	9.25	0.75	1.00	1.00	2.00	8.75	0.50	0.50	1.50	-0.100586	0.166016	1.009766	-18.340000	-10.080000	-0.490000	1259.00	-0.18	-0.11
3.66	0.50	0.25	1.00	0.50	0.50	0.00	2.00	0.00	1.25	2.75	2.00	0.00	0.00	1.00	0.50	0.25	1.145020	0.569336	1.348633	-92.680000	-257.390015	-15.750000	154.00	0.11	0.09	18.00	15.00	11.50	13.00	6.00	10.75	5.00	9.50	0.75	1.00	1.00	2.25	9.50	0.00	0.75	2.00	-0.104492	0.176758	1.015625	-13.160000	-8.890000	-1.750000	1261.00	-0.17	-0.12
3.67	1.00	0.00	0.75	0.25	0.50	0.00	2.00	0.00	0.75	2.75	1.75	0.00	0.00	0.75	0.50	0.25	0.949707	0.647461	1.027344	-128.029999	-277.269989	-1.610000	139.00	0.11	0.09	16.75	13.75	11.50	12.75	6.25	10.75	4.75	9.75	0.75	1.00	1.25	2.50	10.75	1.50	2.00	3.50	-0.083008	0.149902	0.987793	-9.800000	-6.930000	-2.590000	1289.00	-0.14	-0.12
3.68	0.75	0.50	1.50	0.50	0.50	0.00	2.00	0.00	1.25	3.00	1.50	0.00	0.00	0.50	0.50	0.25	0.699707	0.761230	0.835449	-121.520004	-280.910004	3.220000	158.00	0.07	0.09	17.50	13.75	13.00	14.50	7.50	13.00	5.00	10.75	1.25	2.00	2.25	4.00	11.25	1.50	2.25	3.75	-0.082031	0.131348	1.000000	-6.790000	-4.340000	-3.500000	1455.00	-0.13	-0.12
3.69	1.00	0.00	1.50	0.25	0.75	0.00	2.25	0.00	1.25	3.00	1.50	0.00	0.00	0.75	0.25	0.00	0.585449	0.772461	0.800293	-34.020000	-287.980011	10.640000	158.00	0.08	0.11	18.25	14.25	12.50	14.25	7.50	13.00	5.00	11.25	2.50	1.75	2.50	4.50	11.75	1.50	2.25	4.00	-0.068359	0.135254	1.003418	-4.130000	-1.050000	-3.640000	1498.00	-0.13	-0.12
3.70	1.00	0.25	1.00	0.50	0.50	0.00	2.00	0.00	0.75	2.00	1.50	0.00	0.00	0.50	0.50	0.00	0.449707	0.709473	0.926758	13.160000	-301.000000	16.799999	132.00	0.06	0.09	11.75	12.00	11.00	12.50	7.00	12.50	5.00	11.25	2.50	2.25	3.00	4.75	12.25	1.75	2.25	4.50	-0.068848	0.131836	1.009766	-1.890000	2.870000	-3.780000	1375.00	-0.10	-0.14
3.71	1.25	0.25	0.50	0.25	0.50	0.00	2.00	0.00	0.75	2.25	1.50	0.00	0.00	0.50	0.25	0.00	0.303711	0.600586	1.086426	47.389999	-319.410004	26.740000	126.00	0.07	0.10	14.00	8.50	9.50	10.50	6.75	12.25	5.00	11.25	2.50	2.50	3.25	6.25	12.50	1.50	2.50	5.25	-0.068848	0.128418	1.008301	0.560000	6.930000	-3.850000	1347.00	-0.08	-0.13
