# time	left pressure 1[N/cm²]	left pressure 2[N/cm²]	left pressure 3[N/cm²]	left pressure 4[N/cm²]	left pressure 5[N/cm²]	left pressure 6[N/cm²]	left pressure 7[N/cm²]	left pressure 8[N/cm²]	left pressure 9[N/cm²]	left pressure 10[N/cm²]	left pressure 11[N/cm²]	left pressure 12[N/cm²]	left pressure 13[N/cm²]	left pressure 14[N/cm²]	left pressure 15[N/cm²]	left pressure 16[N/cm²]	left acceleration X[g]	left acceleration Y[g]	left acceleration Z[g]	left angular X[dps]	left angular Y[dps]	left angular Z[dps]	left total force[N]	left center of pressure X[%]	left center of pressure Y[%]	right pressure 1[N/cm²]	right pressure 2[N/cm²]	right pressure 3[N/cm²]	right pressure 4[N/cm²]	right pressure 5[N/cm²]	right pressure 6[N/cm²]	right pressure 7[N/cm²]	right pressure 8[N/cm²]	right pressure 9[N/cm²]	right pressure 10[N/cm²]	right pressure 11[N/cm²]	right pressure 12[N/cm²]	right pressure 13[N/cm²]	right pressure 14[N/cm²]	right pressure 15[N/cm²]	right pressure 16[N/cm²]	right acceleration X[g]	right acceleration Y[g]	right acceleration Z[g]	right angular X[dps]	right angular Y[dps]	right angular Z[dps]	right total force[N]	right center of pressure X[%]	right center of pressure Y[%]
0.00																										3.00	4.00	4.00	6.00	2.75	3.00	1.00	2.00	1.00	0.75	0.50	0.50	2.25	1.00	0.25	1.00	-0.223145	0.094238	0.964355	-2.240000	-3.150000	1.820000	354.00	-0.14	-0.10
0.01																										3.25	4.25	3.75	5.50	2.75	3.00	1.00	2.00	0.75	0.75	0.25	1.00	2.50	0.75	0.25	1.00	-0.219238	0.090332	0.962402	-2.170000	-3.080000	1.820000	350.00	-0.14	-0.11
0.02																										3.25	4.25	3.75	5.50	3.00	3.25	0.75	2.00	0.75	0.50	0.50	0.75	2.25	1.25	0.25	1.00	-0.220215	0.089844	0.960938	-2.240000	-3.080000	1.890000	351.00	-0.14	-0.11
0.03	3.75	4.25	5.00	5.25	2.75	2.00	0.75	1.00	1.75	0.75	0.75	0.75	1.00	2.00	0.25	0.50	-0.297363	0.082520	0.925781	-1.470000	6.160000	-1.470000	347.00	-0.14	-0.05																									
0.04	3.75	4.50	5.00	5.25	2.75	2.00	0.75	1.00	1.75	0.75	0.50	0.75	1.25	2.25	0.00	0.50	-0.296875	0.082031	0.929199	-1.400000	6.230000	-1.330000	349.00	-0.14	-0.05	3.25	4.25	3.75	5.50	2.75	3.25	0.75	2.00	0.75	0.50	0.25	0.50	2.25	1.25	0.25	1.00	-0.225586	0.089844	0.972168	-2.310000	-3.080000	1.820000	343.00	-0.15	-0.11
0.05	3.75	4.50	5.00	5.25	2.75	2.00	0.75	1.00	1.75	0.75	0.75	0.50	1.25	2.25	0.00	0.50	-0.295898	0.080078	0.925293	-1.400000	5.880000	-1.330000	349.00	-0.14	-0.05	3.25	4.25	4.00	5.75	2.75	3.00	0.75	2.25	1.00	1.00	0.25	0.75	2.25	1.00	0.25	1.00	-0.220215	0.094727	0.953125	-2.310000	-3.010000	1.960000	359.00	-0.14	-0.11
0.06	4.00	4.75	4.75	5.25	2.75	2.00	0.75	1.00	1.75	1.00	0.50	0.75	1.25	2.50	0.00	0.50	-0.296875	0.080566	0.923828	-1.540000	6.230000	-1.470000	356.00	-0.14	-0.05	3.25	4.50	3.75	5.50	3.00	3.25	1.00	2.00	1.00	0.75	0.00	0.75	2.00	1.00	0.25	1.00	-0.220215	0.090332	0.961914	-2.240000	-3.080000	1.960000	354.00	-0.15	-0.10
0.07	3.75	4.25	5.25	5.25	2.75	2.00	0.75	1.00	1.75	1.25	0.50	0.50	1.50	2.25	0.00	0.50	-0.301270	0.081543	0.923828	-1.610000	6.300000	-1.400000	354.00	-0.14	-0.04	3.00	4.25	3.75	5.50	2.75	3.25	0.75	2.25	1.00	0.50	0.50	0.50	2.25	1.00	0.25	1.25	-0.223145	0.094727	0.961426	-2.310000	-3.080000	1.960000	350.00	-0.14	-0.11
0.08	4.00	4.25	5.25	5.25	2.75	1.75	0.75	1.00	1.75	1.00	0.50	0.75	1.25	2.25	0.00	0.25	-0.299805	0.077637	0.930176	-1.610000	6.300000	-1.400000	350.00	-0.14	-0.04	3.25	4.00	3.75	5.75	3.00	3.25	0.75	2.00	0.75	0.50	0.25	0.75	2.25	1.25	0.00	0.75	-0.220215	0.087891	0.960938	-2.240000	-3.080000	1.820000	345.00	-0.15	-0.11
0.09	4.00	4.75	5.50	5.25	2.50	2.00	0.75	1.00	2.00	0.75	0.50	0.50	1.25	2.25	0.00	0.50	-0.298828	0.084961	0.928223	-1.610000	6.230000	-1.400000	357.00	-0.15	-0.04	3.25	4.50	4.00	6.00	2.75	3.50	1.00	2.25	1.00	0.75	0.25	0.75	2.25	1.00	0.00	0.75	-0.220215	0.087891	0.960938	-2.240000	-3.080000	1.820000	367.00	-0.15	-0.11
0.10	3.75	4.50	5.50	5.25	2.75	1.75	0.75	1.00	1.75	1.00	0.50	0.50	1.25	2.25	0.00	0.25	-0.298340	0.078125	0.928223	-1.610000	6.370000	-1.540000	350.00	-0.15	-0.04	3.00	4.50	4.00	5.50	2.75	3.25	0.75	2.25	0.75	0.75	0.25	0.75	2.00	1.00	0.00	1.00	-0.225586	0.091309	0.963379	-2.310000	-3.010000	1.890000	348.00	-0.15	-0.11
0.11	3.75	4.50	5.50	5.25	2.75	1.75	1.00	1.00	1.75	0.75	0.50	0.75	1.25	2.00	0.00	0.50	-0.297363	0.083496	0.929199	-1.540000	6.370000	-1.470000	353.00	-0.14	-0.04	3.00	4.25	3.75	5.50	2.75	3.75	0.75	2.25	0.75	0.75	0.25	0.50	2.00	1.00	0.25	1.00	-0.230469	0.092285	0.959961	-2.380000	-3.150000	1.820000	348.00	-0.15	-0.11
0.12	4.00	4.50	5.50	5.25	2.75	2.00	0.75	1.00	1.75	1.00	0.50	0.25	1.25	2.25	0.00	0.50	-0.301270	0.075684	0.931152	-1.540000	6.230000	-1.470000	354.00	-0.15	-0.04	3.25	4.25	4.00	5.75	2.75	3.25	0.75	2.00	0.75	0.50	0.25	0.50	2.25	1.00	0.00	1.00	-0.221680	0.088867	0.955566	-2.310000	-3.080000	1.750000	344.00	-0.16	-0.11
0.13	4.00	4.50	5.50	5.50	2.75	2.00	0.75	1.00	1.75	1.00	0.50	0.50	1.25	2.25	0.25	0.25	-0.296387	0.081055	0.929199	-1.680000	6.300000	-1.470000	361.00	-0.14	-0.04	3.25	4.25	3.75	5.75	3.00	3.25	0.75	2.00	0.75	0.75	0.50	0.75	2.25	1.25	0.25	1.00	-0.224609	0.093262	0.958984	-2.310000	-3.080000	2.030000	357.00	-0.14	-0.11
0.14	3.75	4.75	5.25	5.25	2.75	1.75	0.75	1.00	1.75	0.75	0.75	0.50	1.25	2.00	0.25	0.50	-0.296387	0.081055	0.929199	-1.610000	6.300000	-1.400000	352.00	-0.14	-0.05	3.00	4.25	4.00	5.75	2.75	3.25	1.00	2.00	0.75	0.50	0.50	0.75	2.25	1.00	0.25	0.75	-0.227051	0.085938	0.958008	-2.240000	-3.010000	1.960000	352.00	-0.15	-0.11
0.15	4.00	4.75	5.50	5.25	2.75	1.75	0.75	1.00	1.75	1.00	0.50	0.50	1.00	2.00	0.25	0.25	-0.293945	0.079590	0.923828	-1.540000	6.160000	-1.330000	353.00	-0.15	-0.04	3.50	4.25	4.00	5.50	2.75	3.50	0.75	2.00	0.50	0.50	0.25	0.75	2.25	1.25	0.25	1.00	-0.218750	0.094238	0.960449	-2.240000	-3.080000	2.030000	351.00	-0.15	-0.11
0.16	4.00	4.75	5.50	5.25	2.75	1.75	0.75	1.00	1.50	0.75	0.75	0.75	1.25	2.00	0.00	0.50	-0.298828	0.085449	0.932617	-1.540000	6.090000	-1.330000	354.00	-0.15	-0.05	3.25	4.25	4.00	5.75	2.75	3.25	0.75	2.25	0.75	0.75	0.50	0.50	2.25	1.00	0.50	0.75	-0.225586	0.093750	0.961426	-2.170000	-3.150000	1.890000	357.00	-0.14	-0.11
0.17	4.00	4.75	5.50	5.25	2.75	2.00	0.75	0.75	2.00	0.75	0.50	0.75	1.25	2.00	0.00	0.50	-0.300293	0.080566	0.931152	-1.470000	6.230000	-1.330000	357.00	-0.15	-0.04	3.50	4.25	4.00	5.75	3.00	3.50	0.75	2.00	0.75	0.75	0.25	0.50	2.25	0.75	0.00	1.00	-0.218262	0.090332	0.966797	-2.310000	-3.220000	1.750000	353.00	-0.16	-0.11
0.18	4.00	4.75	5.50	5.25	2.50	1.75	0.75	1.00	1.50	1.00	0.75	0.50	1.25	2.25	0.00	0.25	-0.299805	0.082520	0.931152	-1.540000	6.160000	-1.400000	352.00	-0.15	-0.04	3.25	4.50	4.00	6.00	3.00	3.50	0.75	2.00	0.75	0.50	0.25	0.50	2.25	1.00	0.00	0.75	-0.225098	0.087891	0.958008	-2.310000	-3.150000	1.890000	353.00	-0.16	-0.11
0.19	4.00	4.75	5.25	5.50	2.50	2.00	0.75	1.00	0.75	1.00	0.75	0.50	1.25	2.00	0.00	0.25	-0.302246	0.080566	0.927734	-1.470000	6.300000	-1.470000	342.00	-0.17	-0.06	3.25	4.50	4.25	5.50	3.00	3.25	1.00	2.25	1.00	0.50	0.50	0.50	2.25	1.25	0.25	0.75	-0.221191	0.095703	0.956055	-2.310000	-3.220000	1.820000	366.00	-0.14	-0.10
0.20	3.75	4.50	5.75	5.25	2.50	1.75	0.75	1.00	2.00	0.75	0.50	0.50	1.50	2.25	0.00	0.50	-0.299316	0.081055	0.930664	-1.400000	6.160000	-1.330000	354.00	-0.14	-0.04	3.50	4.25	4.00	5.75	2.75	3.00	0.75	2.25	0.50	0.75	0.25	0.75	2.25	1.25	0.00	1.00	-0.219727	0.090820	0.965332	-2.380000	-3.010000	1.820000	352.00	-0.15	-0.11
0.21	4.00	4.75	5.75	5.25	2.50	2.00	0.75	1.00	1.75	1.00	0.50	0.75	1.25	2.25	0.00	0.25	-0.297852	0.081055	0.921875	-1.470000	6.020000	-1.330000	360.00	-0.15	-0.04	3.50	4.50	4.00	5.75	2.75	3.25	0.75	2.00	0.75	0.75	0.50	0.75	2.00	1.00	0.25	1.00	-0.224609	0.090332	0.965332	-2.380000	-3.010000	1.820000	357.00	-0.15	-0.11
0.22	4.00	4.75	5.50	5.25	2.75	2.00	0.75	1.00	1.75	1.00	0.50	0.50	1.25	2.00	0.25	0.25	-0.297363	0.082520	0.927246	-1.400000	5.810000	-1.260000	358.00	-0.15	-0.04	3.25	4.25	4.00	5.75	3.00	3.25	0.75	2.00	0.75	0.50	0.25	0.50	1.75	1.00	0.00	0.75	-0.223633	0.093262	0.966797	-2.450000	-3.150000	1.750000	341.00	-0.16	-0.10
0.23	4.00	4.75	5.50	5.25	2.50	1.75	1.00	0.75	1.75	1.00	0.50	0.75	1.25	2.25	0.00	0.25	-0.290039	0.085449	0.926270	-1.540000	6.160000	-1.330000	355.00	-0.15	-0.04	3.25	4.75	3.75	5.75	3.00	3.25	0.75	2.00	0.75	0.75	0.50	0.50	2.00	1.00	0.25	1.00	-0.218262	0.092773	0.962402	-2.380000	-3.150000	1.820000	354.00	-0.15	-0.11
0.24	4.00	4.75	5.50	5.25	2.50	2.00	0.75	1.00	2.00	0.75	0.75	0.75	1.25	2.25	0.00	0.25	-0.296875	0.081543	0.930176	-1.400000	6.020000	-1.330000	361.00	-0.14	-0.04	3.50	4.50	3.75	5.75	2.75	3.25	0.75	2.25	0.75	0.50	0.25	0.50	2.25	1.00	0.25	1.00	-0.219727	0.092773	0.963379	-2.450000	-3.080000	1.890000	353.00	-0.15	-0.11
0.25	4.00	4.75	5.75	5.50	2.50	2.00	1.00	0.75	2.00	1.00	0.75	0.75	1.25	2.25	0.25	0.25	-0.298340	0.077148	0.929199	-1.330000	5.880000	-1.400000	372.00	-0.14	-0.04	3.25	4.75	4.00	5.75	3.00	3.50	0.75	2.00	1.00	0.75	0.00	0.50	2.25	1.00	0.25	0.75	-0.224609	0.088867	0.967285	-2.450000	-3.080000	1.890000	359.00	-0.15	-0.11
0.26	4.00	4.75	5.75	5.50	2.75	2.00	0.75	1.00	1.75	1.00	0.50	0.50	1.25	2.00	0.00	0.50	-0.298340	0.080566	0.926270	-1.540000	6.300000	-1.470000	363.00	-0.15	-0.04	3.50	4.50	4.00	5.75	2.75	3.25	0.75	2.00	1.00	0.75	0.50	0.50	1.75	1.00	0.25	1.00	-0.221191	0.092773	0.960449	-2.450000	-3.150000	1.820000	356.00	-0.15	-0.10
0.27	4.00	4.75	5.50	5.25	2.75	1.75	0.75	1.00	2.00	1.00	0.75	0.50	1.25	2.25	0.00	0.50	-0.301270	0.078125	0.930664	-1.610000	6.580000	-1.540000	362.00	-0.14	-0.04	3.50	4.75	4.00	5.75	3.00	3.50	0.75	2.00	0.75	0.50	0.25	0.75	2.00	1.25	0.00	0.75	-0.224609	0.091797	0.963867	-2.380000	-3.080000	1.750000	358.00	-0.16	-0.11
0.28	3.75	4.75	5.50	5.25	2.50	1.75	0.75	1.00	2.00	0.75	0.50	0.75	1.25	2.25	0.00	0.25	-0.300293	0.082520	0.932129	-1.540000	6.370000	-1.400000	353.00	-0.14	-0.04	3.25	4.25	4.00	5.75	2.75	3.25	0.75	2.00	0.75	0.50	0.50	0.75	2.25	1.25	0.25	1.00	-0.219727	0.090332	0.957520	-2.380000	-3.080000	1.820000	354.00	-0.14	-0.11
0.29	3.75	4.75	5.50	5.25	2.50	2.00	0.75	1.00	1.75	0.75	0.50	0.50	1.00	2.25	0.00	0.50	-0.296875	0.083008	0.932617	-1.540000	6.230000	-1.330000	349.00	-0.15	-0.04	3.50	4.50	4.00	5.75	3.00	3.50	1.00	2.25	0.75	0.75	0.25	0.50	2.25	1.00	0.25	0.75	-0.220703	0.094238	0.957520	-2.240000	-2.940000	1.890000	366.00	-0.15	-0.11
0.30	4.00	4.50	5.75	5.25	2.75	1.75	0.75	0.75	1.75	1.00	0.50	0.50	1.25	2.25	0.00	0.25	-0.294434	0.078613	0.929199	-1.470000	6.300000	-1.400000	352.00	-0.15	-0.03	3.50	4.75	4.00	5.75	2.75	3.25	0.75	2.00	0.75	0.50	0.25	0.50	2.25	0.75	0.25	1.00	-0.218750	0.091309	0.962402	-2.310000	-3.150000	1.890000	352.00	-0.16	-0.11
0.31	4.00	4.50	5.50	5.50	2.50	1.75	0.75	1.00	1.50	0.75	0.75	0.75	1.00	2.00	0.00	0.25	-0.296387	0.085449	0.932617	-1.470000	6.370000	-1.400000	348.00	-0.15	-0.05	3.50	4.50	4.00	5.75	2.75	3.50	0.75	2.00	0.50	0.50	0.25	0.75	2.00	1.00	0.25	1.00	-0.225098	0.092773	0.962891	-2.310000	-3.150000	1.960000	352.00	-0.16	-0.11
0.32	3.75	4.50	5.50	5.25	2.75	1.75	0.75	1.00	1.75	0.75	0.50	0.50	1.25	2.25	0.00	0.25	-0.296875	0.083496	0.931152	-1.540000	6.230000	-1.330000	348.00	-0.15	-0.04	3.75	4.25	4.00	5.75	2.75	3.25	0.75	2.00	0.75	0.50	0.50	0.50	2.00	1.00	0.25	0.75	-0.218262	0.091309	0.961426	-2.380000	-3.150000	1.890000	351.00	-0.16	-0.10
0.33	4.00	4.75	5.50	5.25	2.50	1.75	0.75	1.00	2.00	1.00	0.50	0.50	1.25	2.50	0.00	0.50	-0.299316	0.084473	0.928223	-1.540000	6.300000	-1.400000	359.00	-0.14	-0.04	3.50	4.75	4.25	6.00	2.75	3.50	0.75	2.00	0.75	0.50	0.25	0.50	2.25	1.00	0.25	1.00	-0.227539	0.094727	0.963379	-2.310000	-3.010000	1.820000	362.00	-0.16	-0.11
0.34	4.00	4.75	5.50	5.25	2.50	1.75	0.75	0.75	1.75	0.75	0.25	0.75	1.00	2.00	0.00	0.25	-0.299316	0.082520	0.929199	-1.470000	6.370000	-1.400000	342.00	-0.16	-0.04	3.25	4.50	4.00	6.00	3.00	3.50	0.75	2.00	0.75	0.75	0.25	0.50	2.00	1.00	0.00	0.75	-0.221680	0.090332	0.960449	-2.380000	-3.150000	1.820000	354.00	-0.16	-0.11
0.35	4.00	4.00	5.50	5.25	2.50	2.00	0.75	1.00	1.75	1.00	0.50	0.50	1.25	2.25	0.00	0.25	-0.294922	0.081543	0.926758	-1.470000	6.160000	-1.330000	348.00	-0.14	-0.04	3.25	4.25	4.00	5.75	3.00	3.50	1.00	2.25	0.50	0.75	0.25	0.75	2.00	1.00	0.25	0.75	-0.225098	0.087891	0.959473	-2.380000	-3.080000	1.890000	358.00	-0.15	-0.11
0.36	3.75	4.75	5.75	5.50	2.75	2.00	0.75	0.75	1.75	0.75	0.50	0.50	1.00	2.25	0.25	0.50	-0.296875	0.080566	0.931152	-1.400000	6.160000	-1.330000	356.00	-0.15	-0.04	3.75	4.25	4.00	6.00	2.75	3.00	1.00	2.00	0.75	0.50	0.25	0.50	1.75	1.00	0.25	0.75	-0.226562	0.091797	0.957031	-2.380000	-3.150000	1.960000	350.00	-0.16	-0.10
0.37	3.75	4.75	5.50	5.25	2.50	1.75	0.75	1.00	1.75	0.75	0.50	0.75	1.25	2.25	0.25	0.50	-0.305176	0.078613	0.931152	-1.470000	6.160000	-1.330000	354.00	-0.14	-0.05	3.50	5.00	4.00	6.00	2.75	3.25	1.00	2.00	0.75	1.00	0.25	0.50	2.00	0.75	0.25	1.00	-0.223633	0.092773	0.960449	-2.310000	-3.150000	2.030000	364.00	-0.16	-0.10
0.38	4.00	4.75	6.00	5.25	2.50	1.75	0.75	0.75	1.75	1.00	0.50	0.50	1.00	2.25	0.00	0.25	-0.298828	0.081055	0.931641	-1.400000	6.160000	-1.330000	352.00	-0.15	-0.03	3.50	4.50	4.25	5.75	2.75	3.50	0.75	2.00	0.75	0.75	0.25	0.50	2.00	1.25	0.25	0.75	-0.224121	0.087402	0.960938	-2.310000	-3.150000	1.960000	358.00	-0.16	-0.10
0.39	4.00	4.75	5.75	5.25	2.75	1.75	0.75	0.75	1.75	1.00	0.50	0.50	1.25	2.25	0.25	0.25	-0.292969	0.080566	0.932129	-1.470000	6.020000	-1.190000	357.00	-0.15	-0.04	3.50	4.75	4.00	5.75	2.75	3.50	0.75	2.00	0.75	0.50	0.50	0.50	2.00	1.00	0.25	1.00	-0.222656	0.091309	0.962402	-2.240000	-3.150000	1.890000	357.00	-0.16	-0.11
0.40	4.00	4.50	6.00	5.25	2.50	1.75	0.75	0.75	1.50	0.75	0.75	0.50	1.25	2.00	0.00	0.50	-0.299805	0.080566	0.927246	-1.400000	6.020000	-1.190000	348.00	-0.16	-0.04	3.50	4.50	4.25	5.75	2.75	3.50	0.75	2.00	0.75	0.75	0.25	0.50	1.75	1.25	0.25	1.00	-0.221680	0.093750	0.961914	-2.310000	-3.150000	1.890000	358.00	-0.16	-0.10
0.41	4.00	4.75	5.75	5.50	2.50	2.00	0.75	1.00	1.50	0.75	0.25	0.75	1.25	2.00	0.00	0.25	-0.294922	0.080566	0.926270	-1.330000	5.880000	-1.120000	353.00	-0.16	-0.05	3.75	4.75	4.00	5.75	2.75	3.25	0.75	1.75	0.75	0.50	0.00	0.50	2.00	1.00	0.25	1.00	-0.223145	0.090332	0.959961	-2.240000	-3.080000	1.890000	348.00	-0.17	-0.10
0.42	3.75	4.75	6.00	5.50	2.50	1.75	0.75	1.00	2.00	0.75	0.75	0.50	1.25	2.00	0.00	0.25	-0.298828	0.080078	0.934082	-1.330000	5.880000	-1.260000	359.00	-0.15	-0.04	3.50	5.00	4.25	6.00	3.00	3.25	0.75	2.00	0.75	0.50	0.25	0.50	1.75	1.00	0.25	0.75	-0.223633	0.094238	0.959961	-2.310000	-3.150000	2.100000	359.00	-0.17	-0.10
0.43	4.25	4.75	6.00	5.50	2.50	1.75	0.75	1.00	1.50	0.75	0.50	0.50	1.00	2.00	0.00	0.25	-0.300293	0.080566	0.924316	-1.400000	5.740000	-1.260000	353.00	-0.17	-0.04	3.75	4.75	4.00	6.00	2.75	3.50	0.75	2.00	0.75	0.75	0.25	0.50	2.00	1.25	0.50	1.00	-0.224609	0.093750	0.959961	-2.310000	-3.220000	2.100000	367.00	-0.15	-0.10
0.44	4.00	4.75	6.00	5.50	2.50	2.00	0.75	0.75	1.75	0.75	0.25	0.50	1.00	2.25	0.25	0.25	-0.295898	0.080566	0.928711	-1.540000	6.090000	-1.400000	355.00	-0.16	-0.04	3.50	4.50	4.25	5.75	2.75	3.25	0.75	2.00	1.00	0.75	0.25	0.50	2.00	1.00	0.25	1.00	-0.214844	0.092773	0.962891	-2.310000	-3.150000	2.030000	358.00	-0.15	-0.10
0.45	4.00	4.75	6.00	5.25	2.50	1.50	0.75	0.75	1.50	0.75	0.50	0.50	1.00	2.00	0.00	0.50	-0.295410	0.078125	0.932617	-1.540000	6.020000	-1.260000	343.00	-0.16	-0.04	3.75	5.00	4.75	6.25	2.75	3.00	0.75	2.00	0.75	0.50	0.25	0.50	2.00	1.00	0.00	1.00	-0.224609	0.090332	0.960449	-2.310000	-3.150000	1.960000	365.00	-0.17	-0.10
0.46	3.75	4.75	5.75	5.50	2.50	1.75	0.75	0.75	1.50	0.75	0.50	0.25	1.00	2.25	0.00	0.25	-0.296875	0.082520	0.930664	-1.400000	5.810000	-1.260000	341.00	-0.16	-0.04	3.50	4.75	4.00	6.00	2.75	3.25	0.75	2.00	0.75	0.50	0.25	0.50	1.75	1.00	0.25	0.50	-0.224609	0.096680	0.959473	-2.310000	-3.080000	1.960000	350.00	-0.17	-0.10
0.47	4.25	4.75	6.00	5.50	2.75	1.75	0.75	0.75	1.75	0.75	0.50	0.50	1.25	2.25	0.00	0.50	-0.298340	0.078613	0.923828	-1.540000	6.300000	-1.400000	361.00	-0.16	-0.04	3.50	5.00	4.00	6.00	2.75	3.25	0.75	2.00	0.75	0.25	0.25	0.75	2.00	1.00	0.25	0.75	-0.222168	0.090332	0.961914	-2.380000	-3.080000	2.100000	356.00	-0.17	-0.11
0.48	4.25	5.00	6.00	5.50	2.50	1.75	0.75	1.00	1.25	1.00	0.50	0.50	1.25	2.00	0.00	0.25	-0.294922	0.080566	0.933594	-1.540000	6.440000	-1.470000	357.00	-0.17	-0.05	3.50	4.75	4.25	6.00	2.75	3.00	0.75	2.00	0.75	0.50	0.25	0.50	1.75	0.75	0.25	1.00	-0.221191	0.093750	0.969727	-2.380000	-3.080000	1.960000	350.00	-0.17	-0.10
0.49	4.25	4.50	6.00	5.25	2.75	1.75	0.75	1.00	1.75	0.75	0.50	0.50	1.25	2.25	0.00	0.25	-0.299805	0.078613	0.929688	-1.540000	6.160000	-1.330000	358.00	-0.15	-0.04	3.75	5.00	4.25	6.00	2.75	3.50	0.75	2.00	0.50	0.50	0.25	0.50	2.00	1.00	0.25	0.75	-0.228027	0.092773	0.966309	-2.380000	-3.150000	2.030000	360.00	-0.17	-0.11
0.50	4.25	5.00	6.25	5.50	2.75	2.00	0.75	0.75	1.50	0.75	0.50	0.50	1.00	2.00	0.00	0.25	-0.300293	0.080078	0.922363	-1.540000	6.090000	-1.330000	360.00	-0.17	-0.04	3.75	4.50	4.25	6.00	2.75	3.25	0.75	1.75	0.75	0.50	0.25	0.50	2.00	1.00	0.00	0.75	-0.218750	0.089844	0.966309	-2.240000	-3.080000	2.100000	350.00	-0.17	-0.10
0.51	4.25	5.00	6.00	5.50	2.75	2.00	0.75	0.75	1.75	0.75	0.25	0.75	1.00	2.00	0.00	0.25	-0.300781	0.083008	0.929688	-1.540000	6.160000	-1.260000	360.00	-0.16	-0.04	3.75	4.75	4.50	6.00	2.75	3.50	0.75	1.75	1.00	0.75	0.25	0.50	1.50	1.00	0.00	0.75	-0.220703	0.092285	0.961914	-2.380000	-3.150000	2.100000	359.00	-0.17	-0.09
0.52	4.00	5.00	6.25	5.50	2.75	1.75	0.75	1.00	1.50	0.75	0.50	0.50	1.00	2.00	0.25	0.25	-0.297852	0.083496	0.934570	-1.610000	6.230000	-1.330000	361.00	-0.16	-0.04	3.75	5.00	4.25	6.00	2.75	3.25	0.75	2.00	0.75	0.75	0.25	0.25	2.00	1.25	0.00	0.75	-0.219727	0.089355	0.956055	-2.310000	-3.220000	2.100000	360.00	-0.17	-0.10
0.53	4.00	5.00	6.50	5.50	2.75	2.00	0.75	0.75	1.75	1.00	0.50	0.50	1.00	2.00	0.00	0.25	-0.294922	0.080078	0.930664	-1.540000	6.160000	-1.330000	366.00	-0.16	-0.03	3.75	4.75	4.25	6.00	2.75	3.50	0.75	1.75	0.50	0.50	0.00	0.25	1.50	0.75	0.25	0.75	-0.221191	0.090820	0.961426	-2.240000	-3.150000	1.960000	343.00	-0.19	-0.10
0.54	4.00	5.00	6.50	5.50	2.50	1.75	0.75	0.75	1.75	0.75	0.50	0.25	1.00	2.00	0.00	0.25	-0.295410	0.079590	0.928711	-1.540000	6.160000	-1.260000	355.00	-0.17	-0.03	3.75	5.00	4.50	6.25	2.75	3.25	0.75	1.75	0.75	0.75	0.25	0.50	2.00	1.00	0.25	0.75	-0.219238	0.088379	0.959961	-2.380000	-3.080000	1.960000	365.00	-0.17	-0.10
0.55	4.25	5.00	6.25	5.50	2.75	1.75	0.75	0.75	1.75	0.75	0.50	0.50	1.00	2.00	0.00	0.25	-0.292480	0.082031	0.929688	-1.470000	6.020000	-1.190000	360.00	-0.17	-0.03	3.75	5.00	4.25	6.25	3.00	3.75	0.75	1.75	0.75	0.50	0.25	0.25	1.50	1.00	0.00	0.75	-0.222656	0.091797	0.961426	-2.310000	-3.220000	2.170000	358.00	-0.18	-0.10
0.56	4.25	5.00	6.25	5.75	2.50	1.75	0.75	1.00	1.75	1.00	0.50	0.50	1.00	2.25	0.00	0.25	-0.298340	0.080566	0.925781	-1.540000	6.020000	-1.190000	369.00	-0.16	-0.04	3.75	5.00	4.25	6.00	2.75	3.25	0.75	1.75	0.75	0.50	0.00	0.50	1.75	1.00	0.00	0.75	-0.222656	0.093750	0.962402	-2.240000	-3.150000	2.030000	350.00	-0.18	-0.10
0.57	4.25	4.50	6.25	5.50	2.75	2.00	0.75	0.75	1.75	0.75	0.75	0.50	1.00	2.00	0.00	0.50	-0.296875	0.079590	0.929688	-1.610000	6.300000	-1.260000	362.00	-0.16	-0.04	3.75	5.00	4.50	6.00	3.00	3.25	0.75	2.00	0.50	0.50	0.25	0.25	1.50	0.75	0.00	0.75	-0.218750	0.091309	0.964844	-2.240000	-3.080000	2.100000	351.00	-0.19	-0.10
0.58	4.25	5.00	6.50	5.50	2.75	1.75	0.75	1.00	1.75	0.75	0.50	0.25	1.00	2.00	0.00	0.25	-0.298340	0.081055	0.931641	-1.540000	6.090000	-1.260000	364.00	-0.17	-0.03	3.75	5.00	4.50	6.00	2.75	3.00	0.75	1.75	0.50	0.75	0.00	0.50	1.50	1.25	0.25	1.00	-0.218750	0.095215	0.956055	-2.380000	-3.080000	2.100000	353.00	-0.17	-0.10
0.59	4.25	5.00	6.25	5.75	2.75	1.75	0.75	0.75	1.50	0.75	0.25	0.75	1.00	2.00	0.00	0.25	-0.298828	0.076660	0.935059	-1.540000	6.160000	-1.330000	360.00	-0.17	-0.04	4.00	5.00	4.50	6.00	2.75	3.25	0.75	1.75	0.50	0.50	0.25	0.25	1.50	0.75	0.00	0.75	-0.218750	0.094238	0.958984	-2.380000	-3.150000	2.170000	347.00	-0.19	-0.10
0.60	4.50	5.00	6.50	5.50	2.50	1.75	0.75	0.75	1.50	0.75	0.50	0.50	1.00	2.00	0.00	0.25	-0.296387	0.081055	0.933105	-1.540000	6.020000	-1.330000	360.00	-0.17	-0.03	4.00	5.25	4.50	6.00	2.50	3.50	0.75	1.50	0.50	0.25	0.25	0.50	1.75	0.75	0.25	0.75	-0.220215	0.092285	0.961914	-2.450000	-3.010000	2.100000	351.00	-0.19	-0.10
0.61	4.50	5.00	6.50	5.75	2.50	2.00	0.75	0.75	1.75	0.75	0.50	0.50	0.75	2.25	0.00	0.50	-0.293457	0.075195	0.928711	-1.540000	6.020000	-1.330000	370.00	-0.17	-0.03	4.00	5.00	4.50	6.00	2.75	3.25	0.75	1.75	0.50	0.50	0.25	0.00	1.50	0.75	0.00	0.75	-0.221680	0.087891	0.965820	-2.380000	-3.010000	2.030000	345.00	-0.19	-0.10
0.62	4.50	5.00	6.50	5.75	2.50	2.00	0.75	0.75	1.50	0.75	0.25	0.50	0.75	2.00	0.00	0.25	-0.296875	0.078125	0.934082	-1.540000	6.020000	-1.260000	360.00	-0.18	-0.04	3.75	5.00	4.50	6.00	2.75	3.25	0.75	1.75	0.50	0.50	0.00	0.25	1.50	1.00	0.00	0.75	-0.217285	0.089844	0.959961	-2.380000	-3.010000	2.030000	344.00	-0.19	-0.10
0.63	4.75	4.75	6.50	5.50	2.75	1.75	0.75	0.75	1.50	0.75	0.50	0.50	1.00	2.25	0.00	0.25	-0.297852	0.083984	0.932617	-1.540000	6.160000	-1.260000	365.00	-0.17	-0.03	4.00	5.00	4.25	6.00	2.50	3.25	0.75	1.75	0.75	0.50	0.00	0.50	1.25	1.00	0.25	0.75	-0.222168	0.091797	0.961426	-2.380000	-3.010000	1.960000	348.00	-0.18	-0.09
0.64	4.50	5.00	6.50	5.50	2.75	2.00	0.75	0.50	1.50	0.75	0.50	0.50	1.00	2.00	0.00	0.25	-0.298340	0.076660	0.929199	-1.540000	6.020000	-1.330000	361.00	-0.17	-0.03	3.75	5.00	4.50	6.00	2.75	3.00	0.75	1.50	0.75	0.50	0.25	0.25	1.25	0.75	0.25	0.75	-0.220215	0.093750	0.960449	-2.310000	-3.080000	1.960000	342.00	-0.19	-0.09
0.65	4.75	5.00	6.50	5.75	2.75	1.75	0.75	0.75	1.75	1.00	0.50	0.25	1.00	2.00	0.00	0.25	-0.299316	0.081055	0.936523	-1.540000	6.300000	-1.400000	371.00	-0.17	-0.03	4.00	5.00	4.50	6.00	2.75	3.25	0.75	1.50	0.50	0.25	0.00	0.00	1.25	1.00	0.00	0.75	-0.224121	0.093750	0.960938	-2.240000	-3.150000	2.030000	336.00	-0.20	-0.09
0.66	4.50	5.00	6.25	5.75	2.75	1.75	0.75	1.00	1.75	0.50	0.25	0.50	1.00	2.00	0.25	0.25	-0.292480	0.084961	0.927246	-1.470000	6.160000	-1.400000	367.00	-0.17	-0.04	3.75	5.00	4.75	6.00	2.75	3.25	0.75	1.75	0.50	0.25	0.00	0.50	1.50	0.75	0.25	0.75	-0.219238	0.091797	0.961426	-2.170000	-3.010000	1.890000	348.00	-0.19	-0.10
0.67	4.75	5.00	6.25	5.75	2.50	1.75	0.75	0.75	1.50	0.75	0.25	0.50	0.75	2.00	0.00	0.25	-0.291504	0.079102	0.922852	-1.610000	6.370000	-1.470000	357.00	-0.18	-0.03	3.75	4.75	4.75	6.00	2.75	3.25	0.75	1.50	0.50	0.50	0.00	0.25	1.50	0.50	0.00	0.75	-0.223145	0.091797	0.966797	-2.170000	-3.290000	1.960000	337.00	-0.20	-0.10
0.68	4.25	5.00	6.50	5.75	2.75	2.00	0.75	0.75	1.50	0.75	0.25	0.25	1.00	2.00	0.00	0.25	-0.297852	0.086914	0.934570	-1.680000	6.510000	-1.610000	360.00	-0.18	-0.04	4.00	5.00	4.75	6.25	2.75	3.00	0.75	1.50	0.75	0.50	0.00	0.00	1.50	0.75	0.00	0.75	-0.226074	0.090332	0.962891	-2.240000	-3.220000	2.030000	344.00	-0.20	-0.09
0.69	4.50	5.00	6.50	5.50	2.50	1.75	0.75	0.75	1.75	0.75	0.50	0.25	1.00	2.00	0.25	0.25	-0.297852	0.075195	0.930176	-1.680000	6.370000	-1.470000	363.00	-0.17	-0.03	3.75	4.75	4.50	6.00	2.75	3.25	0.75	1.50	0.50	0.50	0.00	0.25	1.50	0.75	0.00	0.75	-0.221191	0.093750	0.962402	-2.170000	-3.220000	2.030000	336.00	-0.19	-0.10
0.70	4.50	5.00	6.50	5.50	2.75	2.25	0.75	1.00	1.50	1.00	0.25	0.25	1.00	2.00	0.00	0.25	-0.299805	0.076172	0.930176	-1.540000	6.160000	-1.260000	369.00	-0.17	-0.04	4.00	5.00	4.75	6.00	2.75	3.50	0.75	1.50	0.50	0.50	0.00	0.25	1.50	0.75	0.00	0.75	-0.223633	0.096680	0.961426	-2.170000	-3.080000	1.960000	347.00	-0.20	-0.09
0.71	4.50	5.00	6.50	5.75	2.50	2.00	0.75	0.75	1.50	0.75	0.25	0.25	1.00	2.25	0.00	0.50	-0.299805	0.083496	0.927246	-1.400000	6.300000	-1.330000	363.00	-0.17	-0.04	4.00	5.00	4.50	6.00	2.75	3.00	0.75	1.50	0.50	0.50	0.00	0.25	1.25	1.00	0.25	0.75	-0.223633	0.087891	0.964844	-2.170000	-3.150000	2.030000	341.00	-0.19	-0.09
0.72	4.50	5.00	6.50	5.75	2.50	2.00	0.75	0.75	1.75	0.75	0.25	0.25	1.00	1.75	0.25	0.25	-0.301758	0.080078	0.937500	-1.540000	6.230000	-1.260000	364.00	-0.17	-0.03	3.75	5.25	4.50	6.00	2.75	3.00	0.75	1.50	0.75	0.25	0.25	0.25	1.50	1.00	0.00	0.75	-0.220703	0.088867	0.959961	-2.100000	-3.150000	1.960000	343.00	-0.19	-0.09
0.73	4.50	5.00	6.50	5.75	2.50	2.00	0.75	0.75	1.50	0.75	0.50	0.25	1.00	2.00	0.00	0.25	-0.301270	0.077148	0.929688	-1.400000	6.230000	-1.400000	363.00	-0.18	-0.04	4.00	5.00	4.75	6.00	2.75	3.25	0.75	1.50	0.50	0.25	0.00	0.25	1.25	1.00	0.00	0.50	-0.222656	0.091309	0.953613	-2.100000	-3.080000	1.960000	340.00	-0.20	-0.09
0.74	5.00	5.00	6.75	5.50	2.75	1.75	0.75	0.75	1.50	0.75	0.25	0.50	1.00	2.25	0.00	0.25	-0.292480	0.078125	0.926758	-1.400000	6.230000	-1.260000	370.00	-0.18	-0.03	4.00	5.00	4.75	6.25	2.75	2.75	0.75	1.50	0.50	0.25	0.00	0.50	1.25	1.00	0.25	0.50	-0.223145	0.089355	0.961426	-2.100000	-3.080000	1.960000	342.00	-0.19	-0.09
0.75	5.00	5.00	6.50	5.50	2.75	2.00	0.75	0.75	1.75	0.75	0.25	0.25	1.00	2.00	0.00	0.25	-0.295898	0.081055	0.931641	-1.470000	6.370000	-1.470000	368.00	-0.18	-0.03	4.00	5.25	4.75	6.25	2.75	3.00	0.75	1.75	0.50	0.25	0.00	0.25	1.25	1.00	0.25	0.75	-0.221191	0.095703	0.958496	-2.100000	-3.150000	2.100000	350.00	-0.19	-0.09
0.76	4.75	5.25	6.50	5.75	2.50	1.75	0.75	0.75	1.50	0.75	0.25	0.25	1.00	2.00	0.00	0.25	-0.298340	0.080078	0.935059	-1.400000	6.370000	-1.400000	362.00	-0.18	-0.03	4.00	5.00	4.75	6.25	2.75	3.00	0.75	1.50	0.50	0.50	0.25	0.25	1.25	0.75	0.00	0.50	-0.226562	0.088867	0.968262	-2.030000	-3.290000	2.100000	343.00	-0.20	-0.09
0.77	5.00	5.00	6.75	5.75	2.50	1.75	0.75	0.75	1.50	0.75	0.25	0.25	0.75	2.50	0.00	0.25	-0.295898	0.078613	0.930176	-1.540000	6.160000	-1.190000	367.00	-0.18	-0.03	4.00	5.00	4.75	6.25	2.75	3.00	0.75	1.50	0.50	0.25	0.00	0.25	1.25	0.75	0.00	0.50	-0.217773	0.085449	0.957031	-1.960000	-3.220000	2.030000	338.00	-0.21	-0.09
0.78	5.25	5.00	6.75	5.50	2.50	2.00	0.75	0.75	1.50	0.75	0.25	0.25	1.00	1.75	0.00	0.25	-0.292480	0.084961	0.934082	-1.470000	6.090000	-1.190000	366.00	-0.19	-0.03	4.00	4.50	4.75	6.25	2.50	3.25	0.75	1.75	0.50	0.50	0.25	0.25	1.25	1.00	0.25	0.50	-0.225586	0.090332	0.964844	-1.820000	-3.220000	2.030000	347.00	-0.19	-0.09
0.79	5.25	5.00	6.75	5.75	2.75	2.00	0.75	1.00	1.50	0.75	0.50	0.25	1.00	2.00	0.00	0.25	-0.299805	0.079102	0.933105	-1.470000	6.160000	-1.190000	380.00	-0.18	-0.04	4.25	5.00	4.75	6.00	2.75	3.00	0.75	1.50	0.75	0.25	0.00	0.00	1.25	0.75	0.00	0.50	-0.220215	0.088379	0.958496	-1.610000	-3.430000	2.170000	338.00	-0.21	-0.08
0.80	5.00	5.00	6.50	5.75	2.50	1.75	0.75	0.75	1.50	0.75	0.25	0.25	0.75	2.25	0.00	0.25	-0.295898	0.078125	0.930176	-1.400000	6.370000	-1.260000	362.00	-0.18	-0.03	4.25	5.00	4.75	6.00	2.75	3.00	0.75	1.25	0.50	0.50	0.25	0.00	1.00	0.75	0.00	0.50	-0.222168	0.094727	0.958496	-1.400000	-3.500000	2.240000	334.00	-0.21	-0.08
0.81	5.25	5.00	6.75	5.75	2.75	2.00	0.75	0.75	1.50	0.75	0.25	0.25	0.75	1.75	0.00	0.25	-0.298340	0.083496	0.931641	-1.330000	6.230000	-1.260000	369.00	-0.19	-0.03	4.25	5.00	4.50	6.25	2.75	3.00	0.75	1.50	0.50	0.25	0.00	0.25	1.25	0.75	0.25	0.50	-0.230957	0.096191	0.964844	-1.120000	-3.570000	2.310000	340.00	-0.20	-0.09
0.82	5.25	5.25	6.50	5.75	2.50	2.25	0.75	0.75	1.50	0.75	0.00	0.25	0.75	2.00	0.00	0.25	-0.290527	0.081543	0.932129	-1.330000	6.230000	-1.260000	368.00	-0.19	-0.03	4.25	5.00	4.75	6.00	2.75	3.00	0.75	1.50	0.25	0.25	0.25	0.25	1.25	0.75	0.00	0.50	-0.225098	0.089844	0.961426	0.070000	-3.920000	2.800000	337.00	-0.21	-0.09
0.83	5.00	5.25	6.75	5.75	2.75	2.00	0.75	0.75	1.25	0.75	0.25	0.25	0.75	2.25	0.00	0.25	-0.300781	0.079590	0.925293	-1.260000	6.300000	-1.120000	370.00	-0.19	-0.03	4.50	5.25	5.00	6.50	2.50	3.00	0.75	1.50	0.25	0.25	0.00	0.00	1.25	1.00	0.00	0.50	-0.222168	0.096680	0.963379	1.120000	-4.410000	3.150000	344.00	-0.22	-0.09
0.84	5.25	5.25	6.75	5.75	2.50	2.00	0.75	0.75	1.50	0.50	0.25	0.25	0.75	2.00	0.00	0.25	-0.302246	0.078613	0.930664	-1.120000	6.510000	-1.120000	368.00	-0.19	-0.03	4.75	5.50	5.25	6.75	2.50	3.25	0.75	1.50	0.25	0.25	0.00	0.25	1.00	0.75	0.00	0.50	-0.221680	0.094727	0.965332	1.820000	-4.760000	3.290000	356.00	-0.22	-0.09
0.85	5.25	5.00	6.75	6.00	2.50	1.75	0.75	0.75	1.50	0.75	0.25	0.25	0.75	1.75	0.00	0.25	-0.296387	0.083984	0.929199	-0.980000	6.510000	-1.050000	366.00	-0.19	-0.03	4.75	5.25	5.00	6.50	2.50	3.25	0.75	1.50	0.25	0.25	0.00	0.00	0.75	0.75	0.25	0.75	-0.223633	0.096191	0.966797	2.520000	-5.110000	3.360000	347.00	-0.22	-0.09
0.86	5.50	5.00	7.00	6.00	2.50	2.00	0.75	0.75	1.50	0.75	0.25	0.25	0.50	1.25	0.00	0.25	-0.301270	0.081543	0.938965	-1.120000	6.580000	-0.980000	368.00	-0.20	-0.03	4.75	5.50	5.50	7.00	2.50	3.50	0.75	1.25	0.25	0.00	0.00	0.00	1.00	0.75	0.25	0.50	-0.214355	0.093262	0.959961	2.450000	-5.390000	3.500000	358.00	-0.23	-0.09
0.87	5.75	5.00	6.75	5.75	2.50	2.00	0.75	0.75	1.50	0.25	0.00	0.25	0.50	2.00	0.00	0.25	-0.306152	0.078125	0.932617	-0.980000	6.580000	-0.980000	364.00	-0.20	-0.03	5.00	5.50	5.50	7.25	2.75	3.25	0.75	1.50	0.25	0.00	0.00	0.00	1.00	0.75	0.00	0.50	-0.219238	0.094238	0.964844	2.590000	-5.460000	3.430000	364.00	-0.23	-0.09
0.88	5.75	5.25	6.75	5.75	2.25	1.75	0.75	0.50	1.50	0.50	0.25	0.00	0.75	1.75	0.00	0.25	-0.301758	0.078125	0.929688	-0.350000	6.860000	-0.630000	359.00	-0.20	-0.02	5.25	5.50	5.50	7.25	3.00	3.50	0.75	1.25	0.25	0.00	0.00	0.00	0.50	0.50	0.00	0.25	-0.225098	0.093262	0.971680	4.340000	-6.160000	3.780000	360.00	-0.24	-0.08
0.89	5.75	5.25	6.75	5.75	2.50	1.75	0.75	0.50	1.25	0.75	0.00	0.00	0.50	1.75	0.00	0.25	-0.309570	0.088867	0.938965	-0.070000	7.350000	-0.420000	356.00	-0.21	-0.02	5.50	5.50	6.00	7.75	2.50	3.50	0.75	1.50	0.00	0.25	0.00	0.00	0.75	0.75	0.00	0.25	-0.231934	0.084473	0.983398	6.720000	-7.490000	4.340000	376.00	-0.24	-0.09
0.90	5.50	5.25	6.75	6.00	2.25	1.75	0.75	0.50	0.75	0.25	0.25	0.25	0.25	1.25	0.00	0.00	-0.300293	0.081543	0.937988	0.840000	7.630000	0.280000	340.00	-0.23	-0.03	6.00	5.75	6.00	7.75	2.50	3.50	0.75	1.25	0.00	0.00	0.00	0.00	0.75	0.50	0.00	0.50	-0.224121	0.105469	0.969727	10.080000	-9.310000	4.970000	376.00	-0.25	-0.08
0.91	5.75	5.50	7.00	6.00	2.25	1.50	0.50	0.50	1.00	0.50	0.00	0.00	0.50	1.75	0.00	0.00	-0.340820	0.084961	0.923340	1.820000	9.030000	0.770000	348.00	-0.23	-0.03	6.00	6.25	6.25	8.00	2.50	3.75	0.50	1.25	0.00	0.00	0.00	0.00	1.00	0.50	0.00	0.25	-0.217773	0.121094	0.950684	10.780000	-10.010000	5.460000	386.00	-0.25	-0.09
0.92	6.00	5.25	7.25	6.50	2.25	1.50	0.50	0.75	1.00	0.50	0.00	0.00	0.50	1.25	0.00	0.00	-0.312012	0.087402	0.938477	2.870000	9.660000	1.680000	356.00	-0.23	-0.03	6.00	6.25	6.50	8.00	2.50	3.25	0.50	1.25	0.00	0.00	0.00	0.00	0.50	0.50	0.00	0.25	-0.209473	0.105469	0.961914	9.800000	-9.800000	5.180000	379.00	-0.26	-0.08
0.93	6.00	5.50	7.00	6.50	2.25	1.50	0.50	0.50	1.00	0.25	0.00	0.00	0.50	1.25	0.00	0.00	-0.311035	0.098145	0.925781	4.620000	11.410000	1.890000	349.00	-0.24	-0.03	6.50	6.25	6.75	8.25	2.50	3.50	0.50	1.25	0.00	0.00	0.00	0.00	0.25	0.50	0.00	0.25	-0.201172	0.100586	0.953125	8.960000	-10.150000	4.970000	391.00	-0.26	-0.08
0.94	6.00	5.50	7.00	6.50	2.25	1.75	0.50	0.50	0.75	0.25	0.00	0.00	0.25	1.75	0.00	0.00	-0.308105	0.082031	0.933594	4.760000	9.450000	1.960000	351.00	-0.24	-0.03	6.75	6.75	6.75	8.50	2.50	3.75	0.50	1.00	0.00	0.00	0.00	0.00	0.75	0.50	0.00	0.25	-0.199219	0.112793	0.948242	7.700000	-9.520000	4.480000	404.00	-0.26	-0.08
0.95	5.75	5.50	7.00	6.50	2.00	1.50	0.50	0.50	0.50	0.00	0.00	0.00	0.25	1.75	0.00	0.00	-0.296387	0.091309	0.936523	6.230000	6.160000	1.050000	337.00	-0.25	-0.04	7.00	6.50	7.00	8.50	2.25	4.00	0.50	1.00	0.00	0.00	0.00	0.00	0.25	0.50	0.25	0.25	-0.204590	0.111816	0.955566	5.810000	-8.470000	4.200000	405.00	-0.26	-0.08
0.96	6.50	5.50	7.25	6.75	2.00	1.50	0.50	0.50	0.50	0.00	0.00	0.00	0.00	1.25	0.00	0.00	-0.296387	0.091309	0.936523	6.230000	6.160000	1.050000	343.00	-0.26	-0.03	7.25	6.50	6.75	8.50	2.50	3.75	0.50	1.25	0.00	0.00	0.00	0.00	0.50	0.50	0.00	0.25	-0.206055	0.113770	0.954102	4.410000	-7.700000	3.780000	408.00	-0.27	-0.08
0.97	6.50	5.50	7.00	6.50	2.00	1.50	0.25	0.50	0.50	0.25	0.00	0.00	0.00	1.00	0.00	0.00	-0.286133	0.086914	0.934082	6.790000	4.760000	0.560000	335.00	-0.27	-0.04	7.00	7.25	7.00	8.50	2.25	4.00	0.50	0.75	0.00	0.00	0.00	0.00	0.25	0.25	0.00	0.25	-0.202148	0.106934	0.949707	2.940000	-6.930000	3.360000	403.00	-0.28	-0.08
0.98	6.75	5.50	7.00	6.50	2.00	1.50	0.50	0.25	0.50	0.25	0.00	0.00	0.00	1.25	0.00	0.00	-0.298340	0.090332	0.931641	6.580000	3.850000	0.420000	339.00	-0.26	-0.03	7.25	7.25	7.25	8.75	2.25	4.00	0.50	1.00	0.00	0.00	0.00	0.00	0.25	0.50	0.00	0.25	-0.203613	0.116211	0.957031	1.330000	-5.880000	2.730000	417.00	-0.27	-0.08
0.99	6.50	6.50	7.00	6.50	2.00	1.50	0.50	0.25	0.50	0.00	0.00	0.00	0.00	1.25	0.00	0.00	-0.302734	0.068359	0.952637	7.910000	-0.700000	-0.210000	343.00	-0.27	-0.03	7.75	7.75	7.25	8.75	2.50	4.00	0.50	1.00	0.00	0.00	0.00	0.00	0.50	0.50	0.00	0.25	-0.203125	0.117188	0.960938	-0.000000	-5.180000	2.310000	432.00	-0.27	-0.08
1.00	6.75	6.00	7.25	6.75	1.75	1.75	0.50	0.25	0.50	0.00	0.00	0.00	0.00	1.25	0.00	0.00	-0.298340	0.084473	0.944824	9.590000	-3.290000	-0.700000	347.00	-0.27	-0.03	7.75	7.75	7.25	8.75	2.50	3.75	0.50	1.00	0.00	0.00	0.00	0.00	0.25	0.50	0.25	0.25	-0.206055	0.107910	0.964844	-0.280000	-5.320000	2.310000	430.00	-0.27	-0.07
1.01	7.00	6.00	7.00	6.75	1.75	1.25	0.25	0.25	0.50	0.00	0.00	0.00	0.00	1.00	0.00	0.00	-0.322266	-0.070312	0.844238	9.800000	-3.850000	-0.910000	335.00	-0.28	-0.03	7.75	7.75	7.50	9.00	2.50	4.00	0.50	1.25	0.00	0.00	0.00	0.00	0.50	0.25	0.00	0.25	-0.211426	0.115234	0.971191	0.210000	-5.530000	2.100000	439.00	-0.27	-0.08
1.02	6.75	6.25	7.25	6.50	1.75	1.00	0.25	0.25	0.25	0.25	0.00	0.00	0.00	1.25	0.00	0.00	-0.288574	0.094238	0.946777	9.590000	-3.850000	-2.100000	334.00	-0.28	-0.03	8.00	8.00	7.50	9.00	2.25	4.00	0.50	1.00	0.00	0.00	0.00	0.00	0.25	0.50	0.00	0.25	-0.200195	0.119141	0.966309	0.910000	-6.160000	2.170000	438.00	-0.28	-0.08
1.03	6.75	6.25	7.25	6.75	1.50	1.25	0.25	0.25	0.00	0.00	0.00	0.00	0.00	1.25	0.00	0.00	-0.308594	0.097656	0.944336	10.010000	-4.690000	-2.100000	331.00	-0.29	-0.04	8.25	8.00	7.75	9.00	2.25	4.00	0.50	1.00	0.00	0.00	0.00	0.00	0.25	0.50	0.00	0.00	-0.215820	0.112793	0.983398	1.820000	-7.070000	2.310000	442.00	-0.28	-0.07
1.04	7.00	6.25	7.25	7.00	1.75	1.00	0.25	0.00	0.00	0.00	0.00	0.00	0.00	1.25	0.00	0.00	-0.301270	0.082520	0.950195	10.990000	-5.950000	-1.820000	332.00	-0.29	-0.03	8.50	8.00	7.75	9.25	2.50	4.00	0.50	1.00	0.00	0.00	0.00	0.00	0.25	0.50	0.00	0.25	-0.208984	0.113281	0.965332	3.710000	-8.540000	2.450000	451.00	-0.28	-0.07
1.05	7.00	6.50	7.00	7.00	1.50	1.00	0.25	0.25	0.25	0.00	0.00	0.00	0.00	1.00	0.00	0.00	-0.295898	0.095703	0.931641	11.480000	-7.000000	-2.310000	334.00	-0.29	-0.04	8.50	8.25	7.75	9.25	2.50	4.00	0.50	1.00	0.00	0.00	0.00	0.00	0.25	0.50	0.00	0.25	-0.201660	0.120117	0.953613	4.410000	-8.750000	2.520000	453.00	-0.28	-0.07
1.06	7.00	6.50	7.25	6.75	1.75	1.00	0.25	0.25	0.00	0.00	0.00	0.00	0.00	1.00	0.00	0.00	-0.286133	0.113281	0.939941	11.620000	-7.980000	-2.310000	333.00	-0.29	-0.04	8.75	8.00	7.75	9.50	2.50	4.25	0.50	1.00	0.00	0.00	0.00	0.00	0.00	0.25	0.00	0.25	-0.204590	0.123047	0.959961	3.780000	-7.980000	2.520000	455.00	-0.28	-0.07
1.07	6.75	6.50	7.00	6.75	1.50	1.00	0.25	0.00	0.00	0.00	0.00	0.00	0.00	1.25	0.00	0.00	-0.272949	0.115723	0.915039	10.710000	-7.980000	-1.960000	324.00	-0.29	-0.03	9.00	8.25	8.25	9.25	2.50	4.25	0.50	1.00	0.00	0.00	0.00	0.00	0.25	0.50	0.00	0.25	-0.200684	0.120117	0.957031	3.010000	-7.350000	2.310000	467.00	-0.28	-0.07
1.08	7.00	6.50	7.25	6.75	1.50	1.00	0.25	0.25	0.00	0.00	0.00	0.00	0.00	1.00	0.00	0.00	-0.266113	0.115723	0.906738	9.660000	-6.300000	-1.820000	331.00	-0.29	-0.04	9.00	8.25	8.00	9.25	2.25	4.25	0.50	0.75	0.00	0.00	0.00	0.00	0.25	0.25	0.00	0.00	-0.191895	0.127930	0.946777	1.960000	-6.440000	2.240000	454.00	-0.29	-0.07
1.09	7.00	6.50	7.00	7.00	1.25	1.00	0.25	0.00	0.00	0.00	0.00	0.00	0.00	1.00	0.00	0.00	-0.268066	0.128418	0.913574	8.330000	-4.060000	-1.680000	324.00	-0.30	-0.04	9.00	8.75	8.00	9.50	2.50	4.25	0.50	1.00	0.00	0.00	0.00	0.00	0.00	0.00	0.00	0.00	-0.200684	0.125977	0.960449	-0.910000	-4.270000	1.750000	464.00	-0.29	-0.07
1.10	7.00	6.50	7.00	7.00	1.50	1.00	0.25	0.00	0.00	0.00	0.00	0.00	0.00	1.00	0.00	0.00	-0.267578	0.122559	0.920410	6.860000	-2.100000	-1.120000	327.00	-0.30	-0.04	9.00	8.50	8.00	9.50	2.50	4.25	0.50	1.00	0.00	0.00	0.00	0.00	0.25	0.50	0.00	0.25	-0.204590	0.122559	0.965820	-1.330000	-4.130000	1.820000	469.00	-0.28	-0.07
1.11	7.00	6.50	7.00	7.00	1.25	0.75	0.25	0.00	0.00	0.00	0.00	0.00	0.00	1.25	0.00	0.00	-0.266113	0.117188	0.922363	6.020000	-1.330000	-0.630000	323.00	-0.29	-0.03	8.75	8.50	8.25	9.50	2.50	4.25	0.50	1.00	0.00	0.00	0.00	0.00	0.25	0.50	0.00	0.25	-0.196289	0.123535	0.953125	-1.820000	-3.710000	1.610000	469.00	-0.28	-0.07
1.12	7.00	6.50	7.00	7.00	1.50	1.00	0.25	0.00	0.00	0.00	0.00	0.00	0.00	1.00	0.00	0.00	-0.268555	0.113770	0.927734	5.320000	-0.420000	-0.700000	327.00	-0.30	-0.04	9.25	8.75	8.25	9.50	2.25	4.25	0.50	1.25	0.00	0.00	0.00	0.00	0.25	0.50	0.00	0.25	-0.203613	0.127441	0.958008	-2.730000	-3.010000	1.470000	478.00	-0.28	-0.07
1.13	7.25	6.50	7.00	7.00	1.25	0.75	0.25	0.00	0.00	0.00	0.00	0.00	0.00	1.00	0.00	0.00	-0.265625	0.117676	0.911133	4.620000	0.840000	-0.910000	324.00	-0.30	-0.03	9.25	8.50	8.50	9.75	2.50	4.25	0.50	1.25	0.00	0.00	0.00	0.00	0.25	0.25	0.00	0.50	-0.197266	0.123047	0.966309	-2.800000	-2.870000	1.610000	483.00	-0.28	-0.07
1.14	7.00	7.00	7.00	7.00	1.50	0.75	0.25	0.00	0.00	0.00	0.00	0.00	0.00	1.00	0.00	0.00	-0.259766	0.128906	0.905762	3.430000	2.660000	-1.050000	329.00	-0.30	-0.04	9.25	9.00	8.25	9.50	2.50	4.50	0.50	1.00	0.00	0.00	0.00	0.00	0.50	0.50	0.00	0.00	-0.195801	0.126953	0.952637	-2.800000	-2.870000	1.400000	483.00	-0.28	-0.07
1.15	7.00	6.75	6.75	7.00	1.50	0.75	0.25	0.00	0.00	0.00	0.00	0.00	0.00	1.00	0.00	0.00	-0.264160	0.131348	0.910645	1.680000	4.690000	-1.260000	324.00	-0.30	-0.04	9.25	8.75	8.25	9.75	2.50	4.50	0.50	1.00	0.00	0.00	0.00	0.00	0.00	0.75	0.00	0.00	-0.201172	0.123047	0.970703	-3.220000	-2.380000	1.400000	481.00	-0.28	-0.07
1.16	7.00	6.75	7.00	7.25	1.25	0.75	0.25	0.00	0.00	0.00	0.00	0.00	0.00	1.00	0.00	0.00	-0.260742	0.125000	0.914551	-0.000000	6.860000	-1.540000	326.00	-0.30	-0.04	9.00	8.75	8.25	9.50	2.25	4.50	0.50	1.00	0.00	0.00	0.00	0.00	0.25	0.25	0.00	0.25	-0.206055	0.115234	0.966797	-2.730000	-3.010000	1.610000	472.00	-0.28	-0.08
1.17	7.00	6.75	7.00	7.25	1.25	1.00	0.25	0.00	0.00	0.00	0.00	0.00	0.00	1.25	0.00	0.00	-0.262695	0.123047	0.911133	-1.750000	8.610000	-1.680000	331.00	-0.29	-0.04	9.50	9.00	8.25	9.75	2.25	4.25	0.50	1.00	0.00	0.00	0.00	0.00	0.25	0.50	0.00	0.00	-0.198730	0.122559	0.953125	-2.310000	-3.360000	1.680000	480.00	-0.29	-0.07
1.18	7.00	6.50	7.00	7.25	1.25	1.25	0.25	0.25	0.00	0.00	0.00	0.00	0.00	1.00	0.00	0.00	-0.271484	0.129395	0.937500	-2.870000	9.800000	-1.820000	333.00	-0.29	-0.04	9.25	8.75	8.50	9.50	2.50	4.75	0.50	1.00	0.00	0.00	0.00	0.00	0.00	0.50	0.00	0.00	-0.199707	0.122070	0.958008	-2.520000	-2.800000	1.680000	482.00	-0.28	-0.07
1.19	7.00	6.75	6.75	7.00	1.25	0.75	0.25	0.00	0.25	0.00	0.00	0.00	0.00	1.00	0.00	0.00	-0.278320	0.119629	0.945312	-3.080000	9.590000	-1.820000	324.00	-0.29	-0.03	9.50	8.75	8.50	9.75	2.50	4.50	0.50	1.00	0.00	0.00	0.00	0.00	0.50	0.25	0.00	0.25	-0.202637	0.123047	0.960449	-2.940000	-2.240000	1.610000	488.00	-0.28	-0.07
1.20	7.00	6.75	7.25	6.75	1.50	0.50	0.25	0.00	0.00	0.00	0.00	0.00	0.00	1.00	0.00	0.00	-0.274414	0.113281	0.928223	-1.960000	8.050000	-1.680000	324.00	-0.30	-0.03	9.75	8.75	8.25	9.50	2.50	4.25	0.50	1.00	0.00	0.00	0.00	0.00	0.25	0.50	0.00	0.25	-0.199707	0.124023	0.948242	-3.500000	-1.750000	1.470000	482.00	-0.28	-0.07
1.21	7.00	6.75	6.75	7.25	1.00	1.00	0.25	0.00	0.00	0.00	0.00	0.00	0.00	0.75	0.00	0.00	-0.266602	0.118652	0.925293	-1.960000	8.470000	-1.680000	321.00	-0.31	-0.04	9.25	8.75	8.50	9.50	2.50	4.50	0.50	1.00	0.00	0.00	0.00	0.00	0.50	0.50	0.00	0.00	-0.192383	0.127441	0.951172	-4.200000	-0.980000	1.400000	483.00	-0.28	-0.07
1.22	7.00	6.75	7.00	7.25	1.25	1.00	0.25	0.00	0.00	0.00	0.00	0.00	0.00	1.25	0.00	0.00	-0.270508	0.117188	0.930664	-2.240000	9.100000	-1.750000	331.00	-0.29	-0.04	9.25	8.75	8.50	9.50	2.50	4.25	0.50	1.00	0.00	0.00	0.00	0.00	0.25	0.50	0.00	0.00	-0.199219	0.122559	0.961914	-5.320000	-0.140000	1.400000	478.00	-0.28	-0.07
1.23	7.00	7.75	7.00	7.25	1.50	1.00	0.25	0.25	0.00	0.00	0.00	0.00	0.00	1.00	0.00	0.00	-0.276855	0.115723	0.946289	-2.170000	9.170000	-1.820000	345.00	-0.30	-0.05	9.50	8.50	8.25	9.50	2.50	4.25	0.50	1.25	0.00	0.00	0.00	0.00	0.00	0.50	0.00	0.00	-0.215332	0.120605	0.981934	-5.250000	-0.560000	1.330000	477.00	-0.28	-0.07
1.24	7.25	7.00	7.00	7.25	1.25	0.75	0.25	0.00	0.00	0.00	0.00	0.00	0.00	1.25	0.00	0.00	-0.280273	0.116699	0.937012	-1.680000	8.610000	-1.680000	333.00	-0.30	-0.04	9.00	8.50	8.25	9.50	2.50	4.50	0.50	1.00	0.00	0.00	0.00	0.00	0.25	0.50	0.00	0.25	-0.211426	0.115723	0.971680	-3.850000	-2.030000	1.610000	475.00	-0.28	-0.07
1.25	7.00	7.00	7.00	7.25	1.50	1.00	0.25	0.00	0.00	0.00	0.00	0.00	0.00	1.00	0.00	0.00	-0.277832	0.118652	0.934082	-1.260000	8.260000	-1.540000	334.00	-0.30	-0.04	9.25	8.50	8.25	9.50	2.50	4.00	0.50	1.00	0.00	0.00	0.00	0.00	0.25	0.25	0.00	0.00	-0.209473	0.115234	0.968262	-2.520000	-2.870000	1.750000	468.00	-0.29	-0.07
1.26	7.25	7.25	7.00	7.25	1.50	1.00	0.25	0.25	0.00	0.00	0.00	0.00	0.00	1.25	0.00	0.00	-0.275391	0.121094	0.932129	-1.190000	8.260000	-1.470000	345.00	-0.29	-0.04	9.25	8.50	8.25	9.25	2.50	4.00	0.50	1.00	0.00	0.00	0.00	0.00	0.25	0.75	0.00	0.00	-0.211426	0.115234	0.971680	-1.470000	-3.850000	1.960000	470.00	-0.28	-0.07
1.27	7.25	7.00	7.00	7.50	1.50	1.00	0.25	0.00	0.00	0.00	0.00	0.00	0.00	1.00	0.00	0.00	-0.280762	0.120117	0.930664	-1.400000	8.190000	-1.120000	340.00	-0.30	-0.04	9.00	8.50	8.25	9.25	2.50	4.00	0.50	1.25	0.00	0.00	0.00	0.00	0.00	0.50	0.00	0.25	-0.201172	0.119141	0.959961	-0.910000	-4.480000	1.960000	468.00	-0.28	-0.07
1.28	7.50	7.25	7.25	7.50	1.50	1.25	0.25	0.25	0.00	0.00	0.00	0.00	0.00	0.75	0.00	0.00	-0.274414	0.119629	0.929688	-1.540000	8.330000	-1.050000	352.00	-0.30	-0.05	9.00	8.50	8.25	9.25	2.50	4.25	0.50	1.00	0.00	0.00	0.00	0.00	0.25	0.50	0.00	0.25	-0.201172	0.120117	0.959961	-0.840000	-4.620000	1.750000	469.00	-0.28	-0.07
1.29	7.00	7.25	7.25	7.50	1.25	1.00	0.25	0.00	0.00	0.00	0.00	0.00	0.00	0.75	0.00	0.00	-0.272461	0.116699	0.931152	-1.890000	8.680000	-1.050000	337.00	-0.30	-0.04	9.25	8.25	8.25	9.25	2.50	3.75	0.50	1.00	0.00	0.00	0.00	0.00	0.25	0.50	0.00	0.25	-0.204102	0.120605	0.956055	-1.540000	-4.130000	1.820000	464.00	-0.28	-0.07
1.30	7.25	7.00	7.00	7.50	1.50	1.25	0.25	0.25	0.00	0.00	0.00	0.00	0.00	1.00	0.00	0.00	-0.277832	0.128418	0.933594	-2.100000	8.750000	-0.910000	346.00	-0.29	-0.05	9.00	8.50	8.25	9.25	2.50	4.00	0.50	1.00	0.00	0.00	0.00	0.00	0.00	0.50	0.00	0.00	-0.197266	0.125488	0.951660	-2.520000	-3.220000	1.680000	463.00	-0.28	-0.07
1.31	7.25	7.00	7.25	7.75	1.50	1.00	0.25	0.25	0.00	0.00	0.00	0.00	0.00	1.25	0.00	0.00	-0.284668	0.118164	0.929199	-2.170000	8.610000	-0.700000	351.00	-0.29	-0.04	9.25	8.50	8.25	9.25	2.50	4.00	0.50	1.00	0.00	0.00	0.00	0.00	0.00	0.50	0.00	0.00	-0.197754	0.125977	0.955078	-3.570000	-2.450000	1.610000	466.00	-0.29	-0.07
1.32	7.25	7.25	7.25	7.50	1.50	1.25	0.25	0.25	0.00	0.00	0.00	0.00	0.00	0.75	0.00	0.00	-0.280273	0.120117	0.933105	-2.170000	8.610000	-0.630000	349.00	-0.30	-0.05	9.00	8.25	8.25	9.25	2.50	4.00	0.50	1.00	0.00	0.00	0.00	0.00	0.25	0.50	0.00	0.00	-0.208984	0.128418	0.965332	-3.990000	-1.960000	1.750000	463.00	-0.28	-0.07
1.33	7.25	7.25	7.25	7.75	1.50	1.00	0.25	0.25	0.00	0.00	0.00	0.00	0.00	1.00	0.00	0.00	-0.274902	0.125000	0.923828	-2.800000	9.100000	-0.350000	351.00	-0.30	-0.05	8.75	8.50	8.25	9.25	2.25	3.75	0.50	1.00	0.00	0.00	0.00	0.00	0.25	0.00	0.00	0.00	-0.206055	0.121582	0.959473	-4.270000	-1.960000	1.890000	453.00	-0.29	-0.07
1.34	7.25	7.25	7.25	7.75	1.50	1.50	0.25	0.25	0.00	0.00	0.00	0.00	0.00	0.75	0.00	0.00	-0.266602	0.120605	0.909668	-4.130000	10.360000	-0.350000	354.00	-0.30	-0.05	9.00	8.25	8.25	9.25	2.50	3.75	0.50	1.00	0.00	0.00	0.00	0.00	0.00	0.50	0.00	0.00	-0.200195	0.119629	0.958496	-4.620000	-1.820000	1.890000	458.00	-0.28	-0.07
1.35	7.25	7.25	7.00	7.75	1.50	1.50	0.25	0.25	0.00	0.00	0.00	0.00	0.00	0.75	0.00	0.00	-0.267090	0.121094	0.910156	-5.810000	12.250000	-0.840000	352.00	-0.30	-0.05	8.75	8.00	8.25	9.00	2.25	3.75	0.50	1.00	0.00	0.00	0.00	0.00	0.00	0.25	0.00	0.25	-0.203125	0.119141	0.957031	-5.040000	-1.470000	1.960000	447.00	-0.29	-0.07
1.36	7.50	7.50	7.25	7.75	1.25	1.50	0.25	0.25	0.25	0.00	0.00	0.00	0.00	1.00	0.00	0.00	-0.277832	0.121094	0.923828	-7.840000	14.280000	-0.980000	362.00	-0.29	-0.05	9.25	8.50	8.00	9.00	2.50	3.50	0.50	1.00	0.00	0.00	0.00	0.00	0.25	0.50	0.00	0.00	-0.196289	0.124023	0.949707	-6.300000	-0.210000	2.030000	457.00	-0.28	-0.07
1.37	7.25	7.25	7.50	7.75	1.75	1.75	0.25	0.25	0.00	0.00	0.00	0.00	0.00	0.75	0.00	0.00	-0.278320	0.113770	0.909180	-9.940000	15.960000	-1.050000	363.00	-0.30	-0.05	9.00	8.25	8.00	9.00	2.50	3.50	0.50	0.75	0.00	0.00	0.00	0.00	0.25	0.25	0.00	0.00	-0.194824	0.126953	0.948242	-8.260000	1.400000	2.030000	446.00	-0.29	-0.06
1.38	7.25	7.25	7.50	8.00	1.50	1.75	0.25	0.25	0.00	0.00	0.00	0.00	0.00	0.75	0.00	0.00	-0.268066	0.118652	0.914062	-12.250000	18.480000	-1.120000	363.00	-0.30	-0.05	8.50	8.00	8.00	9.00	2.50	3.50	0.50	1.00	0.00	0.00	0.00	0.00	0.25	0.50	0.00	0.00	-0.197266	0.119629	0.948730	-9.590000	2.660000	1.820000	444.00	-0.28	-0.07
1.39	7.00	7.25	7.50	8.00	1.75	1.75	0.25	0.25	0.00	0.00	0.00	0.00	0.00	0.50	0.00	0.00	-0.286621	0.118652	0.922852	-14.700000	20.090000	-1.190000	361.00	-0.30	-0.05	8.75	8.00	7.75	9.00	2.50	3.25	0.50	0.75	0.00	0.00	0.00	0.00	0.00	0.50	0.00	0.25	-0.205566	0.121094	0.945801	-11.130000	4.200000	1.820000	437.00	-0.29	-0.06
1.40	7.25	7.25	7.25	8.00	1.50	1.75	0.25	0.50	0.25	0.00	0.00	0.00	0.25	0.75	0.00	0.00	-0.288574	0.112305	0.932617	-16.870001	20.930000	-1.260000	369.00	-0.29	-0.06	8.25	8.00	7.75	8.75	2.25	3.25	0.50	0.75	0.00	0.00	0.00	0.00	0.25	0.25	0.00	0.00	-0.187500	0.106445	0.930664	-13.020000	5.950000	1.470000	425.00	-0.29	-0.07
1.41	7.25	7.25	7.50	7.75	1.75	1.75	0.25	0.50	0.00	0.00	0.00	0.00	0.00	0.75	0.00	0.00	-0.295898	0.106445	0.927734	-21.139999	22.750000	-1.050000	367.00	-0.29	-0.05	8.00	7.75	7.50	8.50	2.50	3.25	0.50	1.00	0.00	0.00	0.00	0.00	0.25	0.50	0.00	0.00	-0.158691	0.105469	0.909180	-17.080000	9.730000	0.350000	423.00	-0.28	-0.07
1.42	7.00	7.50	7.50	8.00	2.00	2.00	0.50	0.50	0.00	0.00	0.00	0.00	0.00	0.75	0.00	0.00	-0.316406	0.099609	0.965332	-22.889999	21.350000	-0.980000	378.00	-0.29	-0.05	7.25	7.25	7.50	8.50	2.75	3.25	0.50	1.25	0.00	0.00	0.00	0.00	0.50	0.50	0.00	0.25	-0.175293	0.106445	0.957520	-24.080000	13.650000	-1.260000	421.00	-0.27	-0.07
1.43	7.50	7.25	7.50	8.25	2.00	2.25	0.50	0.50	0.00	0.00	0.00	0.00	0.00	0.75	0.00	0.00	-0.330078	0.071289	0.976074	-17.639999	14.980000	-0.630000	387.00	-0.29	-0.05	6.75	6.75	7.00	8.00	2.75	3.00	0.75	1.25	0.00	0.00	0.00	0.00	0.50	0.75	0.00	0.25	-0.198242	0.098145	0.989258	-27.230000	13.440001	-2.730000	403.00	-0.26	-0.07
1.44	7.25	7.25	7.75	8.25	2.00	2.25	0.50	0.50	0.00	0.00	0.00	0.00	0.00	1.00	0.00	0.00	-0.312012	0.092285	0.934082	-11.970000	10.500000	-0.070000	389.00	-0.28	-0.05	6.00	6.25	6.50	7.75	2.75	2.75	0.75	1.50	0.50	0.25	0.00	0.00	1.00	0.75	0.00	0.25	-0.199707	0.103027	0.956543	-27.370001	11.620000	-4.760000	397.00	-0.24	-0.07
1.45	7.75	7.50	7.75	8.25	2.25	2.25	0.50	0.50	0.25	0.25	0.00	0.00	0.00	0.75	0.00	0.00	-0.303711	0.094238	0.932617	-10.290000	9.450000	0.490000	403.00	-0.28	-0.05	5.25	5.75	5.50	6.75	2.50	2.50	0.75	1.50	0.25	0.25	0.00	0.50	1.75	1.25	0.00	0.25	-0.194336	0.122070	0.999512	-28.490000	11.270000	-6.020000	370.00	-0.21	-0.09
1.46	7.75	7.50	8.00	8.75	2.50	2.25	0.50	0.75	0.25	0.00	0.00	0.00	0.00	1.00	0.00	0.00	-0.307129	0.089844	0.929199	-9.870000	8.820000	0.700000	417.00	-0.28	-0.05	4.00	5.25	5.00	6.00	2.50	2.00	0.75	1.50	0.75	0.50	0.25	0.25	1.75	1.50	0.25	0.50	-0.197754	0.124512	0.994629	-24.570000	7.770000	-7.700000	348.00	-0.18	-0.08
1.47	8.00	8.00	8.50	8.75	2.50	2.50	0.50	0.75	0.25	0.25	0.00	0.00	0.25	0.75	0.00	0.00	-0.310059	0.083984	0.932129	-8.890000	7.420000	1.050000	435.00	-0.27	-0.05	3.25	3.75	3.75	5.25	2.25	1.25	1.00	1.50	0.75	1.00	0.50	0.50	2.00	1.50	0.25	0.75	-0.176270	0.090332	0.999023	-21.490000	7.000000	-8.610000	311.00	-0.13	-0.08
1.48	8.50	8.50	8.75	9.25	2.50	2.75	0.50	0.75	0.50	0.00	0.00	0.00	0.25	0.75	0.00	0.00	-0.302734	0.091309	0.914062	-8.120000	6.160000	1.400000	457.00	-0.28	-0.05	2.25	3.00	2.75	4.25	1.75	0.50	0.75	1.00	1.00	0.75	0.50	0.50	2.00	1.50	0.25	0.75	-0.272461	0.056641	0.994629	-15.050000	13.510000	-14.700000	248.00	-0.11	-0.08
1.49	9.00	8.75	9.00	9.50	2.75	3.25	0.50	0.75	0.75	0.25	0.00	0.00	0.25	1.00	0.00	0.00	-0.307129	0.087402	0.932129	-7.700000	5.250000	1.470000	486.00	-0.27	-0.05	1.50	2.50	2.25	3.50	1.00	0.25	0.75	1.00	1.25	0.75	0.50	0.75	2.50	1.75	0.25	0.75	-0.154785	0.113770	1.080566	-8.120000	34.439999	-17.990000	223.00	-0.06	-0.08
1.50	9.50	9.25	9.50	10.00	3.00	3.50	0.75	0.75	0.50	0.50	0.00	0.00	0.25	1.25	0.00	0.00	-0.300781	0.084961	0.931641	-6.650000	4.060000	1.260000	518.00	-0.26	-0.05	1.75	2.00	1.50	3.25	0.75	0.00	0.75	0.75	1.50	1.00	0.25	0.75	2.50	1.75	0.25	1.00	-0.223145	0.167480	1.196777	4.550000	77.209999	-22.049999	205.00	-0.04	-0.07
1.51	9.75	9.75	10.00	11.00	3.75	3.75	0.75	1.00	0.50	0.25	0.00	0.00	0.50	1.25	0.00	0.00	-0.302734	0.095703	0.924316	-5.810000	2.730000	1.120000	556.00	-0.26	-0.06	1.50	1.00	1.00	2.50	0.75	0.00	0.50	0.50	1.50	0.75	0.50	0.75	2.25	2.00	0.25	1.25	-0.260254	0.152344	1.221680	11.060000	129.289993	-25.270000	173.00	0.01	-0.06
1.52	11.50	10.00	10.50	11.50	4.00	4.00	0.75	1.00	0.75	0.25	0.00	0.00	0.50	1.00	0.00	0.00	-0.305176	0.091797	0.931641	-5.180000	2.100000	0.980000	594.00	-0.27	-0.05	1.25	1.25	0.75	2.50	0.50	0.00	0.25	0.25	1.50	0.75	0.50	0.75	2.00	2.00	0.25	1.25	-0.254883	0.200195	1.427246	9.170000	184.800003	-31.780001	158.00	0.02	-0.07
1.53	12.25	11.25	11.00	12.50	4.75	4.50	0.75	1.00	0.75	0.25	0.00	0.00	0.50	1.50	0.00	0.00	-0.301270	0.080566	0.932617	-4.760000	1.820000	0.630000	647.00	-0.26	-0.05	1.00	0.75	0.75	1.50	0.25	0.00	0.25	0.00	1.25	0.50	0.00	0.25	1.75	2.00	0.25	1.25	-0.369629	0.263184	1.378418	-1.820000	223.300003	-38.570000	114.00	0.04	-0.04
1.54	13.00	12.00	11.75	13.00	5.00	5.00	0.75	1.25	0.50	0.50	0.25	0.00	0.50	1.50	0.00	0.25	-0.301758	0.086914	0.940430	-4.340000	2.100000	0.350000	691.00	-0.26	-0.06	0.75	1.00	0.25	1.00	0.25	0.00	0.25	0.00	1.25	0.25	0.25	0.75	1.00	1.75	0.25	1.00	-0.329102	0.258301	1.398926	-9.520000	242.130005	-50.049999	98.00	0.07	-0.03
1.55	14.50	13.25	12.50	14.00	5.50	5.75	0.75	1.25	0.50	0.25	0.00	0.00	0.75	1.25	0.00	0.25	-0.302246	0.087402	0.928223	-3.780000	2.450000	0.210000	746.00	-0.27	-0.06	0.50	0.75	0.25	0.75	0.00	0.00	0.25	0.00	0.50	0.25	0.00	0.00	0.50	1.50	0.00	0.75	-0.497070	0.257324	1.410645	-21.629999	250.880005	-58.660000	57.00	0.04	-0.01
1.56	15.25	13.50	13.00	14.75	6.00	6.00	0.75	1.25	1.00	0.25	0.00	0.00	0.75	1.25	0.00	0.00	-0.308105	0.083984	0.941406	-3.010000	2.590000	0.070000	783.00	-0.27	-0.05	0.75	0.50	0.50	1.25	0.25	0.00	0.00	0.00	0.50	0.00	0.00	0.00	0.00	1.25	0.00	0.50	-0.513184	0.159668	1.441406	-33.110001	252.559998	-66.080002	54.00	-0.07	0.01
1.57	16.00	14.50	13.50	15.25	6.00	6.25	0.75	1.50	0.75	0.50	0.00	0.00	0.75	1.25	0.00	0.00	-0.301758	0.081055	0.934570	-1.610000	2.660000	0.140000	817.00	-0.27	-0.06	0.50	0.75	0.25	0.75	0.00	0.00	0.25	0.00	0.00	0.00	0.00	0.25	0.00	1.00	0.00	0.25	-0.472656	0.194336	1.329102	-53.549999	246.259995	-72.379997	39.00	0.00	0.00
1.58	16.50	15.50	13.75	15.75	6.25	6.75	0.75	1.50	1.00	0.25	0.25	0.25	0.75	1.25	0.00	0.25	-0.286621	0.081055	0.935059	-0.280000	3.080000	0.210000	855.00	-0.27	-0.06	0.50	0.75	0.00	0.50	0.00	0.00	0.25	0.00	0.00	0.00	0.00	0.00	0.00	0.75	0.00	0.00	-0.633789	0.267090	1.546875	-61.529999	234.009995	-75.250000	28.00	0.00	0.00
1.59	17.50	16.50	14.00	16.25	6.50	7.25	0.75	1.25	0.75	0.25	0.00	0.25	0.75	1.50	0.00	0.00	-0.286133	0.080566	0.933105	1.680000	4.130000	-0.490000	882.00	-0.27	-0.06	0.50	0.75	0.25	0.25	0.00	0.00	0.25	0.00	0.00	0.00	0.00	0.00	0.00	0.00	0.00	0.00	0.107910	0.290039	1.611328	-59.570000	206.430008	-76.930000	21.00	0.00	0.00
1.60	17.50	16.00	14.00	16.50	6.50	7.50	0.75	1.50	0.25	0.25	0.25	0.25	0.75	1.25	0.00	0.25	-0.286133	0.080566	0.933105	1.680000	4.130000	-0.490000	882.00	-0.27	-0.06	0.50	0.75	0.25	0.50	0.00	0.00	0.25	0.00	0.00	0.00	0.00	0.00	0.00	0.00	0.00	0.00	1.253418	0.550781	1.771484	-68.949997	165.059998	-73.849998	24.00	0.00	0.00
1.61	18.00	16.25	14.25	16.75	6.50	7.75	0.75	1.50	0.75	0.25	0.00	0.00	0.75	1.50	0.00	0.25	-0.287109	0.081055	0.930176	2.590000	4.690000	-0.840000	902.00	-0.27	-0.06	0.50	0.75	0.00	0.75	0.00	0.00	0.25	0.00	0.00	0.00	0.00	0.00	0.00	0.00	0.00	0.00	1.298828	0.993164	2.268066	-58.450001	106.330002	-52.150002	24.00	0.00	0.00
1.62	17.25	16.75	14.00	16.50	6.50	7.75	0.75	1.50	0.75	0.25	0.00	0.50	1.00	1.25	0.00	0.25	-0.286621	0.093262	0.931152	3.080000	5.880000	-1.330000	898.00	-0.27	-0.07	0.50	0.75	0.00	0.00	0.00	0.00	0.25	0.00	0.00	0.00	0.00	0.00	0.00	0.00	0.00	0.00	1.444336	0.701660	1.596191	-12.390000	36.470001	-26.740000	16.00	0.00	0.00
1.63	17.50	16.00	14.00	16.75	6.50	8.00	0.75	1.75	0.75	0.25	0.00	0.50	1.00	1.75	0.00	0.00	-0.286133	0.099121	0.927734	2.590000	6.300000	-1.330000	906.00	-0.26	-0.07	0.75	0.50	0.00	0.50	0.00	0.00	0.25	0.00	0.00	0.00	0.00	0.00	0.00	0.00	0.00	0.00	1.316406	0.414062	1.063477	16.520000	-3.710000	-12.250000	22.00	0.00	0.00
1.64	17.25	16.00	13.75	16.50	6.75	8.00	0.75	1.75	0.75	0.50	0.00	0.75	1.00	1.75	0.00	0.25	-0.286621	0.102051	0.925781	1.540000	7.000000	-1.680000	907.00	-0.26	-0.07	0.50	0.25	0.25	0.25	0.00	0.00	0.25	0.00	0.00	0.00	0.00	0.00	0.00	0.00	0.00	0.00	1.266113	0.278809	1.033203	15.050000	-16.940001	-5.180000	17.00	0.00	0.00
1.65	16.75	16.00	13.50	16.25	6.50	8.25	0.75	1.75	0.75	0.50	0.25	0.50	1.00	1.50	0.00	0.00	-0.287598	0.093750	0.934082	0.560000	7.560000	-2.100000	893.00	-0.26	-0.07	0.50	0.75	0.00	0.25	0.00	0.00	0.25	0.00	0.00	0.00	0.00	0.00	0.00	0.00	0.00	0.00	1.216797	0.297363	1.206543	3.780000	-33.950001	0.280000	19.00	0.00	0.00
1.66	16.50	15.25	13.00	16.00	6.75	8.25	0.75	1.75	0.75	0.25	0.25	0.50	1.00	1.25	0.00	0.00	-0.291016	0.087891	0.931641	-0.210000	7.770000	-2.450000	873.00	-0.26	-0.07	0.25	0.75	0.00	0.75	0.00	0.00	0.25	0.00	0.00	0.00	0.00	0.00	0.00	0.00	0.00	0.00	1.174316	0.333984	1.217285	2.660000	-58.170002	5.880000	22.00	0.00	0.00
1.67	15.75	15.00	13.00	15.50	6.50	8.25	0.75	1.75	0.50	0.50	0.25	0.50	1.00	1.75	0.00	0.00	-0.296875	0.090820	0.936523	-0.420000	7.630000	-2.730000	858.00	-0.26	-0.07	0.00	0.50	0.00	0.00	0.00	0.00	0.25	0.00	0.00	0.00	0.00	0.00	0.00	0.00	0.00	0.00	1.095703	0.294434	1.156738	8.960000	-81.620003	11.690000	8.00	0.00	0.00
1.68	15.50	14.75	12.75	15.25	6.50	8.00	0.75	2.00	1.00	0.50	0.50	0.50	1.25	1.75	0.00	0.25	-0.288086	0.088379	0.931152	0.140000	7.350000	-2.800000	862.00	-0.25	-0.07	0.25	0.00	0.00	0.00	0.00	0.00	0.25	0.00	0.00	0.00	0.00	0.00	0.00	0.00	0.00	0.00	0.984375	0.246094	1.126953	14.350000	-99.959999	18.410000	6.00	0.00	0.00
1.69	15.00	14.25	12.50	15.00	6.50	8.25	0.75	2.00	1.00	0.50	0.25	0.75	1.00	1.50	0.00	0.25	-0.293945	0.088867	0.929688	0.420000	7.070000	-2.870000	845.00	-0.25	-0.07	0.50	0.00	0.00	0.75	0.25	0.00	0.25	0.00	0.00	0.00	0.00	0.00	0.00	0.00	0.00	0.00	0.731445	0.212402	1.175781	9.170000	-126.699997	35.630001	20.00	0.00	0.00
1.70	14.50	13.75	12.25	14.75	6.50	8.00	0.75	2.00	0.75	0.75	0.25	0.75	1.50	1.50	0.00	0.25	-0.289062	0.096191	0.923340	0.140000	7.280000	-3.080000	831.00	-0.24	-0.07	0.25	0.75	0.00	0.00	0.00	0.00	0.25	0.00	0.00	0.00	0.00	0.00	0.00	0.00	0.00	0.00	0.586426	0.215820	1.209961	5.530000	-137.410004	45.290001	13.00	0.00	0.00
1.71	14.00	13.00	12.00	14.25	6.25	8.00	0.75	2.25	1.00	0.75	0.25	1.00	1.50	1.50	0.00	0.00	-0.288086	0.096191	0.923340	-0.700000	7.490000	-3.500000	816.00	-0.24	-0.07	0.25	0.50	0.00	0.25	0.00	0.00	0.25	0.00	0.00	0.00	0.00	0.00	0.00	0.00	0.00	0.00	0.434082	0.215820	1.276367	4.830000	-147.279999	54.320000	14.00	0.00	0.00
1.72	13.50	12.75	11.75	14.00	6.25	8.25	1.00	2.25	1.00	0.75	0.50	1.00	1.50	1.50	0.00	0.00	-0.288086	0.096680	0.923340	-1.330000	7.070000	-3.710000	812.00	-0.23	-0.07	0.25	0.50	0.00	0.00	0.00	0.00	0.25	0.00	0.00	0.00	0.00	0.00	0.00	0.00	0.00	0.00	0.277344	0.213379	1.340820	6.720000	-156.800003	62.230000	11.00	0.00	0.00
1.73	13.00	12.25	11.50	13.25	6.25	8.00	0.75	2.25	1.00	0.75	0.75	1.00	1.75	2.00	0.00	0.25	-0.291504	0.097656	0.921875	-2.240000	6.580000	-3.990000	795.00	-0.23	-0.08	0.25	0.50	0.00	0.25	0.00	0.00	0.25	0.00	0.00	0.00	0.00	0.00	0.00	0.00	0.00	0.00	0.121582	0.211914	1.400391	9.520000	-165.899994	69.090004	14.00	0.00	0.00
1.74	12.25	12.00	11.25	13.25	6.50	8.00	0.75	2.25	1.25	0.50	0.75	1.00	2.00	2.00	0.25	0.25	-0.293457	0.099121	0.925781	-2.940000	6.160000	-4.410000	790.00	-0.22	-0.08	0.25	0.00	0.00	0.25	0.00	0.00	0.25	0.00	0.00	0.00	0.00	0.00	0.00	0.00	0.00	0.00	-0.022461	0.205566	1.446289	11.480000	-174.649994	74.620003	9.00	0.00	0.00
1.75	11.50	11.00	10.75	12.75	6.25	7.75	1.00	2.50	1.50	1.00	0.75	1.50	2.25	2.25	0.00	0.25	-0.286133	0.094238	0.918457	-3.290000	6.090000	-4.690000	780.00	-0.20	-0.08	0.25	0.50	0.00	0.00	0.00	0.00	0.25	0.00	0.00	0.00	0.00	0.00	0.00	0.00	0.00	0.00	-0.160156	0.210449	1.484375	13.160000	-183.259995	79.099998	11.00	0.00	0.00
1.76	11.00	10.50	10.50	12.25	6.75	8.00	1.00	2.75	1.50	1.00	1.00	1.50	2.50	2.25	0.25	0.25	-0.292969	0.089844	0.926758	-3.360000	5.950000	-4.970000	781.00	-0.19	-0.08	0.50	0.00	0.00	0.25	0.00	0.00	0.25	0.00	0.00	0.00	0.00	0.00	0.00	0.00	0.00	0.00	-0.285156	0.228027	1.489258	16.100000	-191.449997	82.599998	12.00	0.00	0.00
1.77	10.50	9.50	10.25	11.75	6.75	8.25	1.00	3.00	1.75	1.00	1.00	1.75	3.00	2.50	0.00	0.25	-0.293457	0.090332	0.942871	-3.150000	5.880000	-4.970000	775.00	-0.18	-0.08	0.25	0.00	0.00	0.50	0.00	0.00	0.25	0.00	0.00	0.00	0.00	0.00	0.00	0.00	0.00	0.00	-0.388672	0.241699	1.456543	21.629999	-197.820007	84.980003	12.00	0.00	0.00
1.78	9.75	9.25	10.00	11.25	6.75	8.00	1.00	3.50	1.75	1.25	1.25	1.75	3.25	2.75	0.00	0.50	-0.292480	0.092773	0.920410	-3.010000	6.090000	-5.040000	772.00	-0.17	-0.09	0.25	0.50	0.00	0.25	0.00	0.00	0.25	0.00	0.00	0.00	0.00	0.00	0.00	0.00	0.00	0.00	-0.473145	0.232422	1.415527	29.680000	-200.830002	86.029999	14.00	0.00	0.00
1.79	9.25	9.00	9.75	11.00	7.00	8.00	1.00	4.00	1.75	1.25	1.50	2.25	3.50	3.25	0.00	0.50	-0.294922	0.090820	0.928711	-2.380000	6.160000	-4.830000	784.00	-0.16	-0.09	0.25	0.25	0.00	0.00	0.00	0.00	0.25	0.00	0.00	0.00	0.00	0.00	0.00	0.00	0.00	0.00	-0.544434	0.214355	1.378906	37.730000	-200.130005	85.959999	9.00	0.00	0.00
1.80	8.50	8.50	9.50	10.25	7.00	8.00	1.25	4.50	2.25	1.50	2.00	2.50	4.25	3.50	0.25	0.75	-0.290527	0.087402	0.932617	-1.260000	6.930000	-4.410000	802.00	-0.13	-0.09	0.50	0.25	0.00	0.00	0.00	0.00	0.25	0.00	0.00	0.00	0.00	0.00	0.00	0.00	0.00	0.00	-0.601562	0.207520	1.334473	45.360001	-196.910004	84.769997	11.00	0.00	0.00
1.81	8.00	7.75	9.25	9.75	7.00	8.00	1.25	5.25	2.75	1.75	2.00	3.25	4.75	4.25	0.25	0.75	-0.295898	0.088379	0.924316	0.070000	7.630000	-3.990000	821.00	-0.11	-0.10	0.25	0.25	0.00	0.00	0.00	0.00	0.25	0.00	0.00	0.00	0.00	0.00	0.00	0.00	0.00	0.00	-0.651367	0.208984	1.328125	54.599998	-191.940002	83.370003	9.00	0.00	0.00
1.82	7.25	7.50	9.00	9.25	7.00	8.00	1.50	5.50	2.75	2.00	2.50	3.75	5.50	4.50	0.50	1.00	-0.280762	0.083984	0.932129	1.470000	8.610000	-3.850000	836.00	-0.10	-0.10	0.00	0.25	0.00	0.00	0.00	0.00	0.25	0.00	0.00	0.00	0.00	0.00	0.00	0.00	0.00	0.00	-0.698730	0.172852	1.359375	64.959999	-187.529999	81.900002	6.00	0.00	0.00
1.83	6.75	6.75	8.50	8.75	6.75	7.75	1.50	5.75	3.25	2.50	3.00	4.25	6.00	4.75	0.50	1.25	-0.291504	0.092773	0.925781	4.480000	10.710000	-4.970000	841.00	-0.08	-0.10	0.00	0.00	0.00	0.00	0.00	0.00	0.25	0.00	0.00	0.00	0.00	0.00	0.00	0.00	0.00	0.00	-0.761230	0.132324	1.347168	74.340004	-185.289993	80.290001	4.00	0.00	0.00
1.84	6.00	6.50	8.00	8.50	7.00	7.75	1.75	6.00	4.25	2.75	3.75	5.25	6.75	5.25	0.50	1.50	-0.305664	0.102051	0.922852	5.670000	11.830000	-5.250000	879.00	-0.05	-0.10	0.25	0.25	0.00	0.25	0.00	0.00	0.25	0.00	0.00	0.00	0.00	0.00	0.00	0.00	0.00	0.00	-0.837891	0.083008	1.380859	79.730003	-184.240005	77.769997	11.00	0.00	0.00
1.85	5.50	5.75	7.50	7.75	6.75	7.75	1.75	6.50	4.25	3.00	5.00	6.75	7.50	6.25	0.50	1.75	-0.312988	0.084961	0.933594	6.930000	12.950000	-5.600000	906.00	-0.03	-0.11	0.00	0.25	0.00	0.25	0.00	0.00	0.25	0.00	0.00	0.00	0.00	0.00	0.00	0.00	0.00	0.00	-0.943848	0.072754	1.381348	78.540001	-184.309998	73.010002	9.00	0.00	0.00
1.86	5.00	5.50	7.00	7.50	6.50	7.50	1.75	6.75	5.00	3.50	5.75	7.50	8.00	6.75	0.50	2.00	-0.308594	0.083008	0.930664	9.170000	14.000000	-5.740000	929.00	-0.01	-0.11	0.00	0.25	0.00	0.00	0.00	0.00	0.25	0.00	0.00	0.00	0.00	0.00	0.00	0.00	0.00	0.00	-1.042969	0.102051	1.324707	73.570000	-183.119995	66.150002	6.00	0.00	0.00
1.87	4.50	5.00	6.75	6.75	6.25	7.50	1.75	7.25	5.25	4.00	7.25	8.25	8.75	7.75	0.75	2.50	-0.329102	0.102539	0.921387	12.040000	15.120000	-5.110000	966.00	0.01	-0.11	0.00	0.00	0.00	0.00	0.00	0.00	0.25	0.00	0.00	0.00	0.00	0.00	0.00	0.00	0.00	0.00	-1.140625	0.129883	1.214355	71.889999	-178.220001	57.330002	4.00	0.00	0.00
1.88	4.00	4.50	6.00	6.50	5.75	7.25	1.75	7.50	5.50	4.50	8.25	9.00	9.50	8.00	0.75	2.50	-0.290527	0.088379	0.932617	14.560000	16.100000	-4.410000	976.00	0.03	-0.12	0.00	0.00	0.00	0.00	0.00	0.00	0.25	0.00	0.00	0.00	0.00	0.00	0.00	0.00	0.00	0.00	-1.227539	0.120605	1.082520	79.309998	-168.979996	47.529999	4.00	0.00	0.00
1.89	3.25	4.25	5.25	6.00	5.50	6.75	1.75	8.00	6.00	5.25	8.75	9.75	10.25	8.50	1.00	3.50	-0.308105	0.114258	0.931152	17.010000	17.780001	-4.340000	998.00	0.05	-0.12	0.25	0.00	0.00	0.00	0.00	0.00	0.25	0.00	0.00	0.00	0.00	0.00	0.00	0.00	0.00	0.00	-1.373047	-0.070312	0.817871	120.610001	-138.529999	29.820000	6.00	0.00	0.00
1.90	2.75	4.00	4.25	5.75	4.50	6.50	1.75	8.00	6.75	6.25	9.75	10.75	11.00	8.75	1.25	4.00	-0.310547	0.105957	0.927246	19.110001	20.299999	-4.480000	1018.00	0.07	-0.12	0.00	0.00	0.00	0.00	0.00	0.00	0.25	0.00	0.00	0.00	0.00	0.00	0.00	0.00	0.00	0.00	-1.513672	-0.203125	0.706055	143.639999	-118.370003	25.270000	4.00	0.00	0.00
1.91	2.25	2.50	3.75	5.25	3.50	6.25	1.75	8.25	7.50	7.00	10.50	11.75	12.00	9.50	1.25	5.00	-0.294434	0.113281	0.941406	21.629999	23.309999	-4.550000	1035.00	0.09	-0.13	0.00	0.00	0.00	0.00	0.00	0.00	0.25	0.00	0.00	0.00	0.00	0.00	0.00	0.00	0.00	0.00	-1.642090	-0.318848	0.581055	147.000000	-95.269997	23.240000	4.00	0.00	0.00
1.92	2.25	2.50	3.00	5.00	3.00	5.75	1.50	8.25	7.75	7.75	11.00	12.75	12.75	9.75	1.50	5.25	-0.274414	0.108887	0.952148	25.690001	28.559999	-5.390000	1048.00	0.11	-0.13	0.00	0.25	0.00	0.00	0.00	0.00	0.25	0.00	0.00	0.00	0.00	0.00	0.00	0.00	0.00	0.00	-1.711914	-0.377441	0.402344	120.540001	-70.910004	21.840000	6.00	0.00	0.00
1.93	2.00	2.50	3.00	4.75	2.25	5.25	1.25	8.25	8.00	8.00	11.75	13.50	13.25	10.00	1.75	5.50	-0.307129	0.137207	0.969238	30.660000	37.240002	-6.930000	1058.00	0.12	-0.13	0.00	0.25	0.00	0.00	0.00	0.00	0.25	0.00	0.00	0.00	0.00	0.00	0.00	0.00	0.00	0.00	-1.803711	-0.316895	0.280273	72.519997	-46.759998	19.530001	6.00	0.00	0.00
1.94	1.75	2.25	2.50	4.50	1.75	5.00	1.00	8.00	8.00	8.25	12.75	14.75	14.00	10.50	1.75	5.75	-0.334961	0.117676	0.959473	37.730000	53.619999	-7.070000	1067.00	0.13	-0.14	0.00	0.00	0.00	0.00	0.00	0.00	0.25	0.00	0.00	0.00	0.00	0.00	0.00	0.00	0.00	0.00	-1.894043	-0.234375	0.020996	23.309999	-23.590000	13.860000	4.00	0.00	0.00
1.95	1.50	1.50	1.75	4.00	1.50	4.50	1.00	8.00	8.00	8.50	13.25	15.25	14.50	10.75	1.75	6.25	-0.361816	0.117188	0.963379	46.830002	69.650002	-6.510000	1058.00	0.14	-0.14	0.00	0.00	0.00	0.00	0.00	0.00	0.25	0.00	0.00	0.00	0.00	0.00	0.00	0.00	0.00	0.00	-2.007324	-0.094238	-0.308105	-15.470000	1.820000	-1.120000	4.00	0.00	0.00
1.96	1.00	1.75	1.50	3.75	0.75	4.50	0.75	7.75	8.50	8.50	14.00	16.25	15.00	11.25	2.00	6.50	-0.383301	0.178711	0.898926	56.980000	84.980003	-6.230000	1071.00	0.15	-0.14	0.00	0.00	0.00	0.00	0.00	0.00	0.25	0.00	0.00	0.00	0.00	0.00	0.00	0.00	0.00	0.00	-2.198730	0.208008	-0.359375	-40.110001	30.100000	-27.930000	4.00	0.00	0.00
1.97	1.00	1.50	1.25	3.75	0.75	3.75	0.50	7.50	8.25	9.00	14.50	17.00	15.50	11.25	2.00	6.75	-0.357910	0.149902	0.974609	68.110001	102.620003	-5.670000	1071.00	0.16	-0.15	0.00	0.00	0.00	0.00	0.00	0.00	0.25	0.00	0.00	0.00	0.00	0.00	0.00	0.00	0.00	0.00	-2.264648	0.425293	-0.250000	-21.840000	59.010002	-53.830002	4.00	0.00	0.00
1.98	1.25	1.50	1.00	3.75	0.75	3.25	0.50	7.25	8.50	9.00	15.25	17.50	16.00	11.75	2.00	7.25	-0.367676	0.149414	0.979492	79.379997	116.199997	-4.760000	1089.00	0.17	-0.14	0.25	0.75	0.00	0.00	0.00	0.00	0.25	0.00	0.00	0.00	0.00	0.00	0.00	0.00	0.00	0.00	-2.824219	-0.802734	-1.266602	30.730000	82.669998	-66.500000	13.00	0.00	0.00
1.99	1.25	1.25	0.75	2.25	0.75	2.75	0.25	6.75	8.50	9.25	15.50	18.00	16.00	11.50	2.50	7.50	-0.413086	0.189941	1.042480	86.590004	134.259995	-4.690000	1066.00	0.18	-0.14	0.75	1.25	0.50	1.00	0.00	0.00	0.25	0.00	0.00	0.00	0.00	0.00	0.00	0.00	0.00	0.00	1.318359	0.455078	0.687988	-65.519997	192.710007	-67.760002	40.00	0.00	0.00
2.00	1.00	1.00	0.75	2.75	0.25	2.25	0.25	6.00	8.50	9.25	16.00	18.50	16.50	12.00	2.75	7.75	-0.472168	0.226562	1.001953	87.639999	159.740005	-5.250000	1067.00	0.19	-0.14	1.25	2.00	0.75	1.00	0.00	0.00	0.25	0.00	0.00	0.00	0.00	0.00	0.00	0.00	0.00	0.00	0.209961	0.670898	1.729004	-110.739998	174.300003	-69.300003	54.00	-0.33	-0.05
2.01	1.00	1.00	0.75	2.50	0.25	1.75	0.00	6.00	8.25	9.50	16.25	19.00	16.50	12.00	2.75	7.75	-0.478027	0.216797	0.970703	87.779999	187.460007	-6.160000	1063.00	0.19	-0.14	2.00	2.50	1.00	1.75	0.00	0.00	0.00	0.00	0.00	0.00	0.00	0.00	0.00	0.00	0.00	0.00	-0.576172	0.157227	0.726562	-137.830002	159.110001	-76.580002	74.00	-0.36	-0.07
2.02	1.00	1.00	0.25	3.00	0.00	2.00	0.00	5.25	8.25	9.50	16.50	19.00	16.00	12.00	2.75	8.00	-0.506836	0.230469	0.998047	87.010002	234.779999	-11.970000	1051.00	0.19	-0.14	2.50	3.50	1.25	3.25	0.00	0.00	0.25	0.00	0.00	0.00	0.00	0.00	0.00	0.00	0.00	0.00	-0.437500	0.494629	1.660645	-155.190002	181.509995	-75.389999	111.00	-0.34	-0.08
2.03	0.75	0.75	0.00	2.25	0.00	1.50	0.00	5.00	8.25	9.75	16.25	19.00	16.00	12.25	3.00	7.75	-0.506836	0.230469	0.998047	87.010002	234.779999	-11.970000	1029.00	0.20	-0.14	3.00	4.50	2.00	4.50	0.25	0.00	0.25	0.00	0.00	0.00	0.00	0.00	0.00	0.00	0.00	0.00	-0.520996	0.448242	2.133789	-128.449997	162.399994	-48.720001	151.00	-0.33	-0.08
2.04	0.50	0.75	0.00	2.25	0.00	1.25	0.00	4.50	8.00	9.50	16.50	18.75	15.75	12.00	2.75	8.25	-0.609375	0.187500	1.025391	84.910004	276.149994	-12.390000	1006.00	0.21	-0.14	4.25	5.50	2.50	5.50	0.50	0.25	0.25	0.00	0.00	0.00	0.00	0.00	0.00	0.00	0.00	0.00	-0.532715	0.213867	1.608398	-102.199997	131.180008	-24.500000	195.00	-0.33	-0.07
2.05	0.50	0.50	0.00	1.25	0.00	0.75	0.00	4.00	7.75	9.50	16.25	18.50	15.25	11.75	3.00	8.00	-0.634766	0.258789	1.013672	81.690002	298.269989	-12.740000	966.00	0.22	-0.14	6.00	6.50	3.50	6.00	0.50	0.75	0.25	0.00	0.00	0.00	0.00	0.00	0.00	0.00	0.00	0.00	-0.421387	0.282227	1.547852	-93.590004	115.919998	-11.130000	244.00	-0.33	-0.06
2.06	0.50	0.50	0.00	1.25	0.00	0.75	0.00	3.75	7.25	9.25	16.00	18.00	14.50	11.25	3.00	7.75	-0.651367	0.316895	1.039551	82.250000	324.799988	-13.790000	933.00	0.22	-0.14	7.25	7.75	4.50	7.00	0.75	1.00	0.25	0.00	0.00	0.00	0.00	0.00	0.00	0.00	0.00	0.00	-0.387695	0.111328	1.427246	-78.400002	94.989998	3.430000	296.00	-0.33	-0.06
2.07	0.25	0.00	0.00	1.25	0.00	0.50	0.00	3.25	6.75	9.00	15.25	17.25	13.75	10.50	2.50	7.25	-0.798340	0.360840	1.162109	80.010002	349.089996	-16.590000	870.00	0.22	-0.14	8.00	8.50	5.50	8.00	1.00	1.50	0.25	0.00	0.00	0.00	0.00	0.00	0.00	0.00	0.00	0.00	-0.363770	-0.123535	1.357910	-58.450001	79.800003	9.100000	341.00	-0.33	-0.06
2.08	0.00	0.25	0.00	0.50	0.00	0.00	0.00	3.00	6.25	8.50	14.00	16.00	12.75	9.75	2.25	7.00	-0.937500	0.504395	1.157715	77.489998	370.860016	-19.530001	795.00	0.23	-0.14	9.00	9.00	6.50	8.50	1.00	2.00	0.25	0.25	0.00	0.00	0.00	0.00	0.00	0.00	0.00	0.00	-0.243164	0.096191	1.192383	-15.610000	36.189999	0.140000	382.00	-0.32	-0.06
2.09	0.00	0.00	0.00	0.75	0.00	0.00	0.00	2.75	5.50	7.75	12.75	14.00	11.25	9.00	2.00	6.25	-1.226562	0.585449	1.313477	77.699997	395.290009	-20.230000	713.00	0.23	-0.13	9.25	9.25	7.00	9.00	1.25	2.25	0.25	0.50	0.00	0.00	0.00	0.00	0.00	0.00	0.00	0.00	-0.178223	0.136719	0.993164	-2.730000	22.889999	1.540000	407.00	-0.32	-0.07
2.10	0.00	0.00	0.00	0.00	0.00	0.00	0.00	2.00	5.00	6.50	10.75	11.75	9.50	8.25	1.25	5.50	-1.461914	0.316895	2.083496	82.110001	403.269989	-15.050000	596.00	0.24	-0.13	10.00	10.25	7.50	9.50	1.50	2.75	0.50	0.50	0.00	0.00	0.00	0.00	0.00	0.25	0.00	0.00	-0.191895	0.131836	1.032715	2.940000	18.620001	2.800000	449.00	-0.31	-0.06
2.11	0.00	0.00	0.00	0.25	0.00	0.00	0.00	1.25	3.75	5.25	9.00	9.50	8.00	7.50	0.75	4.25	-1.715820	0.753418	1.832031	82.459999	414.190002	0.210000	484.00	0.24	-0.12	10.50	11.00	8.00	10.00	1.75	4.00	0.50	0.75	0.00	0.00	0.00	0.00	0.00	0.00	0.00	0.00	-0.205078	0.180664	1.024902	3.780000	15.330000	3.990000	491.00	-0.31	-0.07
2.12	0.00	0.00	0.00	0.00	0.00	0.00	0.00	0.75	3.00	4.00	7.25	7.75	6.50	6.50	1.00	3.00	-1.485840	0.423828	1.983398	100.800003	409.570007	7.070000	389.00	0.25	-0.12	11.00	11.50	8.25	10.75	1.75	4.25	0.50	0.75	0.00	0.00	0.00	0.00	0.00	0.00	0.00	0.00	-0.202637	0.186523	1.000977	0.980000	11.900000	5.670000	514.00	-0.31	-0.07
2.13	0.00	0.00	0.00	0.00	0.00	0.00	0.00	0.25	2.25	3.50	5.25	6.25	5.00	5.00	0.50	2.00	-1.291992	0.626953	2.138672	135.940002	407.260010	19.809999	293.00	0.25	-0.11	12.25	12.50	8.75	11.00	2.00	5.00	0.50	0.75	0.00	0.00	0.00	0.00	0.00	0.00	0.00	0.00	-0.232910	0.166016	1.051758	-2.310000	7.700000	6.020000	556.00	-0.31	-0.07
2.14	0.00	0.00	0.25	0.00	0.00	0.00	0.00	0.00	1.75	2.75	3.75	5.00	3.25	3.50	0.25	1.25	-1.048828	0.433594	1.726562	167.580002	410.619995	5.670000	214.00	0.25	-0.10	13.00	12.50	9.00	11.75	2.00	5.75	0.50	1.00	0.00	0.00	0.00	0.00	0.00	0.00	0.00	0.00	-0.208984	0.157227	1.023438	-2.310000	1.610000	5.460000	586.00	-0.30	-0.08
2.15	0.00	0.00	0.00	0.00	0.00	0.00	0.00	0.00	0.50	2.00	3.00	3.75	2.00	1.50	0.00	0.75	-0.690430	0.432129	1.686035	195.789993	413.420013	-11.760000	133.00	0.24	-0.14	13.50	13.25	9.50	12.00	2.25	6.50	0.50	1.00	0.00	0.00	0.00	0.00	0.25	0.00	0.00	0.00	-0.191895	0.145996	0.992188	-0.490000	-3.290000	4.550000	620.00	-0.30	-0.08
2.16	0.00	0.00	0.00	0.00	0.00	0.00	0.00	0.00	0.50	1.75	2.00	2.75	1.25	1.00	0.00	0.25	-0.427246	0.537109	2.019043	208.389999	406.489990	-43.189999	95.00	0.24	-0.13	14.25	14.00	9.75	12.25	2.25	6.50	0.50	1.25	0.00	0.00	0.00	0.00	0.00	0.00	0.00	0.00	-0.183105	0.174316	0.944824	-0.560000	-4.270000	3.850000	642.00	-0.30	-0.08
2.17	0.25	0.00	0.00	0.00	0.00	0.00	0.00	0.00	0.25	1.00	1.75	2.00	0.75	0.00	0.00	0.25	-0.014160	0.482910	1.887207	223.160004	388.290009	-72.169998	64.00	0.20	-0.16	14.75	14.50	10.00	12.50	2.25	7.25	0.50	1.25	0.00	0.00	0.00	0.00	0.25	0.00	0.00	0.00	-0.172852	0.150879	0.952148	-2.310000	-2.730000	3.430000	667.00	-0.30	-0.08
2.18	0.00	0.00	0.00	0.00	0.00	0.00	0.00	0.00	0.25	1.00	1.75	1.75	0.50	0.00	0.00	0.00	0.652832	-0.552734	2.322754	210.630005	339.429993	-108.080002	55.00	0.22	-0.15	15.25	14.75	10.00	12.75	2.25	7.50	0.50	1.25	0.00	0.00	0.00	0.00	0.25	0.00	0.00	0.00	-0.167480	0.139160	0.953125	-3.710000	-1.820000	2.520000	680.00	-0.30	-0.08
2.19	0.00	0.00	0.00	0.00	0.00	0.00	0.00	0.00	0.00	1.00	1.25	1.50	0.00	0.00	0.00	0.00	0.166016	0.768555	4.510742	147.699997	218.330002	-122.639999	39.00	0.00	0.00	15.75	15.00	10.25	13.00	2.25	7.75	0.50	1.25	0.00	0.00	0.00	0.00	0.00	0.00	0.00	0.00	-0.168457	0.143555	0.938477	-4.200000	-0.700000	1.680000	694.00	-0.30	-0.08
2.20	0.00	0.25	0.00	0.00	0.00	0.00	0.00	0.00	0.00	1.00	1.25	1.25	0.25	0.00	0.00	0.00	0.987305	0.472168	3.625000	84.349998	35.349998	-109.620003	41.00	0.00	0.00	16.00	15.50	10.50	13.25	2.50	8.00	0.50	1.50	0.00	0.00	0.00	0.00	0.25	0.50	0.00	0.00	-0.167969	0.139160	0.951172	-4.620000	0.840000	0.910000	722.00	-0.30	-0.08
2.21	0.00	0.00	0.00	0.00	0.00	0.00	0.00	0.00	0.00	0.75	1.00	1.25	0.00	0.00	0.00	0.00	0.587402	0.323730	2.785156	32.830002	-122.849998	-88.340004	32.00	0.00	0.00	16.25	15.50	10.75	13.50	2.75	8.25	0.50	1.50	0.00	0.00	0.00	0.00	0.00	0.00	0.00	0.00	-0.172363	0.142090	0.948242	-4.410000	1.680000	0.350000	729.00	-0.30	-0.08
2.22	0.00	0.00	0.00	0.00	0.00	0.00	0.00	0.00	0.00	0.75	1.00	1.00	0.00	0.00	0.00	0.00	0.325195	0.271973	1.868164	5.040000	-208.809998	-81.550003	29.00	0.00	0.00	16.50	15.75	11.00	13.25	2.75	8.50	0.50	1.75	0.00	0.00	0.00	0.00	0.50	0.00	0.00	0.00	-0.157227	0.131348	0.949219	-3.500000	2.310000	-0.070000	745.00	-0.30	-0.08
2.23	0.00	0.00	0.00	0.00	0.00	0.00	0.00	0.00	0.00	0.75	0.50	0.50	0.00	0.00	0.00	0.00	0.162598	0.223633	0.963867	7.630000	-252.559998	-91.629997	18.00	0.00	0.00	16.50	15.75	10.75	13.50	2.75	8.75	0.50	1.75	0.00	0.00	0.00	0.00	0.50	0.00	0.00	0.00	-0.179688	0.141113	0.961426	-2.660000	3.080000	-0.700000	748.00	-0.30	-0.08
2.24	0.00	0.00	0.00	0.00	0.00	0.00	0.00	0.00	0.00	0.75	0.75	0.50	0.00	0.00	0.00	0.00	0.162598	0.223633	0.963867	7.630000	-252.559998	-91.629997	21.00	0.00	0.00	16.25	15.25	10.75	13.50	2.75	9.00	0.50	2.25	0.00	0.00	0.00	0.00	1.25	0.00	0.00	0.00	-0.194336	0.156250	0.999023	-0.490000	2.100000	-0.840000	757.00	-0.29	-0.09
2.25	0.00	0.00	0.00	0.00	0.00	0.00	0.00	0.00	0.00	0.75	0.75	0.25	0.00	0.00	0.00	0.00	-0.020508	0.242188	0.896484	18.620001	-256.899994	-95.199997	18.00	0.00	0.00	15.50	15.00	10.50	13.25	2.75	9.25	0.50	2.25	0.00	0.00	0.00	0.00	0.75	0.00	0.00	0.00	-0.186523	0.148438	0.974121	2.310000	0.210000	-0.350000	740.00	-0.29	-0.09
2.26	0.00	0.00	0.00	0.00	0.00	0.00	0.00	0.00	0.00	0.50	0.25	0.25	0.00	0.00	0.00	0.00	-0.043457	0.262695	1.019531	13.930000	-263.130005	-87.779999	10.00	0.00	0.00	15.50	14.75	10.25	13.50	2.75	9.50	0.50	2.75	0.00	0.00	0.00	0.00	0.75	0.25	0.00	0.25	-0.180176	0.166504	0.959961	3.290000	-0.630000	-0.700000	752.00	-0.28	-0.10
2.27	0.00	0.00	0.00	0.00	0.00	0.00	0.00	0.00	0.00	0.75	0.50	0.00	0.00	0.00	0.00	0.00	-0.076172	0.293457	1.153809	-1.680000	-279.230011	-73.989998	13.00	0.00	0.00	15.00	14.75	10.25	13.25	2.75	9.25	0.50	3.00	0.00	0.00	0.00	0.25	1.25	0.00	0.00	0.00	-0.181152	0.169922	0.939941	1.260000	0.420000	-0.910000	748.00	-0.28	-0.10
2.28	0.00	0.00	0.00	0.00	0.00	0.00	0.00	0.00	0.00	0.25	0.25	0.25	0.00	0.00	0.00	0.00	-0.127441	0.310059	1.170898	-24.430000	-299.809998	-56.980000	8.00	0.00	0.00	14.25	14.00	10.00	13.00	2.75	9.50	0.50	3.00	0.00	0.00	0.00	0.00	1.50	0.25	0.00	0.00	-0.178711	0.169434	0.933105	-8.120000	4.900000	-2.030000	732.00	-0.27	-0.10
2.29	0.00	0.00	0.00	0.00	0.00	0.00	0.00	0.00	0.00	0.25	0.50	0.00	0.00	0.00	0.00	0.00	-0.163574	0.337891	1.150391	-49.209999	-317.869995	-41.090000	8.00	0.00	0.00	13.50	13.50	10.00	12.75	2.75	9.75	0.50	3.50	0.00	0.00	0.00	0.00	1.50	0.00	0.00	0.00	-0.173340	0.163086	0.938477	-13.510000	7.210000	-3.010000	726.00	-0.27	-0.11
2.30	0.00	0.00	0.00	0.00	0.00	0.00	0.00	0.00	0.00	0.25	0.50	0.00	0.00	0.00	0.00	0.00	-0.235840	0.388672	1.080566	-68.739998	-331.940002	-28.490000	8.00	0.00	0.00	13.00	13.25	9.75	12.75	3.00	9.75	0.50	3.75	0.00	0.00	0.00	0.25	1.75	0.00	0.00	0.25	-0.182617	0.150391	0.954590	-18.129999	8.540000	-3.360000	728.00	-0.26	-0.11
2.31	0.00	0.00	0.00	0.00	0.00	0.00	0.00	0.00	0.00	0.50	0.00	0.00	0.00	0.00	0.00	0.00	-0.319824	0.459473	1.038086	-74.900002	-340.200012	-18.760000	5.00	0.00	0.00	13.00	12.75	9.50	12.50	3.00	10.00	0.50	4.25	0.00	0.00	0.00	0.50	2.25	0.25	0.00	0.25	-0.188477	0.151367	0.946289	-22.610001	9.520000	-3.780000	737.00	-0.25	-0.12
2.32	0.00	0.00	0.00	0.00	0.00	0.00	0.00	0.00	0.00	0.00	0.00	0.00	0.00	0.00	0.00	0.00	-0.360352	0.489258	0.973145	-66.919998	-341.809998	-10.500000	0.00	0.00	0.00	11.75	12.00	9.25	12.25	3.50	9.75	0.50	5.00	0.00	0.50	0.00	0.25	2.75	0.25	0.00	0.50	-0.199219	0.143066	0.978027	-25.270000	9.870000	-3.920000	734.00	-0.24	-0.13
2.33	0.00	0.00	0.00	0.00	0.00	0.00	0.00	0.00	0.00	0.25	0.00	0.00	0.00	0.00	0.00	0.00	-0.398438	0.484375	0.937012	-49.279999	-339.079987	-2.660000	3.00	0.00	0.00	11.25	11.50	9.25	12.00	3.50	9.75	0.50	5.50	0.00	0.50	0.25	1.00	3.00	0.50	0.00	0.50	-0.208008	0.138184	0.982422	-24.639999	8.470000	-4.130000	744.00	-0.22	-0.13
2.34	0.00	0.00	0.00	0.00	0.00	0.00	0.00	0.00	0.00	0.00	0.00	0.00	0.00	0.00	0.00	0.00	-0.443848	0.462891	0.954102	-29.680000	-332.779999	5.110000	0.00	0.00	0.00	10.75	10.75	9.00	11.50	4.00	9.75	0.75	5.75	0.00	0.25	0.25	1.00	3.75	0.25	0.00	0.50	-0.196289	0.134766	0.974121	-22.820000	6.440000	-3.990000	739.00	-0.22	-0.14
2.35	0.00	0.00	0.00	0.00	0.00	0.00	0.00	0.00	0.00	0.00	0.00	0.00	0.00	0.00	0.00	0.00	-0.496094	0.431152	1.045898	-13.650000	-325.429993	12.810000	0.00	0.00	0.00	9.75	10.25	8.50	11.25	4.25	9.75	0.75	6.00	0.00	0.50	0.25	1.50	4.00	0.50	0.25	0.50	-0.203613	0.126953	0.976562	-21.770000	5.600000	-4.130000	737.00	-0.20	-0.14
2.36	0.00	0.00	0.00	0.00	0.00	0.00	0.00	0.00	0.00	0.00	0.00	0.00	0.00	0.00	0.00	0.00	-0.527832	0.394043	1.174805	-4.760000	-319.690002	20.440001	0.00	0.00	0.00	9.25	9.75	8.25	11.00	4.25	9.50	0.75	6.25	0.25	0.50	0.25	1.50	4.75	0.50	0.25	0.75	-0.209473	0.126465	0.972656	-20.299999	4.060000	-4.340000	734.00	-0.19	-0.15
2.37	0.00	0.00	0.00	0.00	0.00	0.00	0.00	0.00	0.00	0.00	0.00	0.00	0.00	0.00	0.00	0.00	-0.555664	0.392578	1.302246	-1.470000	-318.429993	28.490000	0.00	0.00	0.00	8.75	9.25	8.25	10.75	4.75	9.50	0.75	6.50	0.50	0.75	0.50	1.50	5.25	0.50	0.25	1.00	-0.206055	0.129883	0.974609	-19.180000	2.870000	-4.270000	745.00	-0.18	-0.15
2.38	0.00	0.00	0.00	0.00	0.00	0.00	0.00	0.00	0.00	0.00	0.00	0.00	0.00	0.00	0.00	0.00	-0.588379	0.398438	1.397949	-0.560000	-320.250000	36.959999	0.00	0.00	0.00	8.25	8.75	8.00	10.25	4.75	9.25	0.75	6.75	0.25	0.50	0.50	1.75	5.25	0.75	0.25	1.00	-0.208496	0.127930	0.975098	-18.480000	1.960000	-4.550000	727.00	-0.17	-0.15
2.39	0.00	0.00	0.00	0.00	0.00	0.00	0.00	0.00	0.00	0.00	0.00	0.00	0.00	0.00	0.00	0.00	-0.622559	0.398926	1.473633	-0.490000	-323.190002	45.779999	0.00	0.00	0.00	7.75	8.25	7.50	10.00	5.00	9.25	1.00	7.00	0.75	1.00	0.75	1.75	5.50	1.00	0.00	1.25	-0.205078	0.117676	0.959961	-17.920000	1.120000	-4.830000	736.00	-0.16	-0.15
2.40	0.00	0.00	0.00	0.00	0.00	0.00	0.00	0.00	0.00	0.00	0.00	0.00	0.00	0.00	0.00	0.00	-0.664062	0.404785	1.528320	-2.310000	-324.730011	54.950001	0.00	0.00	0.00	7.25	7.75	7.50	9.50	5.25	9.00	1.00	7.00	1.00	1.00	1.00	2.00	6.50	1.00	0.25	1.25	-0.196777	0.123535	0.969238	-18.200001	0.910000	-5.040000	741.00	-0.14	-0.15
2.41	0.00	0.00	0.00	0.00	0.00	0.00	0.00	0.00	0.00	0.00	0.00	0.00	0.00	0.00	0.00	0.00	-0.711426	0.416016	1.550781	-7.700000	-323.190002	64.330002	0.00	0.00	0.00	6.50	7.25	7.25	9.00	5.25	9.00	1.00	7.00	1.00	1.50	0.75	2.50	7.00	1.25	0.50	1.75	-0.202148	0.115234	0.964355	-17.780001	0.840000	-5.250000	740.00	-0.12	-0.15
2.42	0.00	0.00	0.00	0.00	0.00	0.00	0.00	0.00	0.00	0.00	0.00	0.00	0.00	0.00	0.00	0.00	-0.752930	0.432129	1.603516	-13.790000	-318.290009	73.080002	0.00	0.00	0.00	6.00	6.50	6.75	8.75	5.75	8.75	1.00	7.50	1.25	1.25	1.25	3.00	7.50	1.50	0.25	1.75	-0.196289	0.113281	0.959961	-16.030001	0.840000	-5.180000	745.00	-0.11	-0.16
2.43	0.00	0.00	0.00	0.00	0.00	0.00	0.00	0.00	0.00	0.00	0.00	0.00	0.00	0.00	0.00	0.00	-0.791016	0.464355	1.707031	-15.610000	-310.730011	80.919998	0.00	0.00	0.00	5.50	6.25	6.25	8.25	5.75	8.75	1.00	7.50	1.25	1.50	1.50	3.50	8.00	1.75	0.50	1.75	-0.201172	0.097168	0.977051	-13.510000	0.840000	-5.600000	746.00	-0.10	-0.16
2.44	0.00	0.00	0.00	0.00	0.00	0.00	0.00	0.00	0.00	0.00	0.00	0.00	0.00	0.00	0.00	0.00	-0.847168	0.532227	1.874512	-10.290000	-303.380005	87.779999	0.00	0.00	0.00	4.75	5.75	6.00	8.00	5.75	8.50	1.25	7.50	1.50	2.25	1.75	4.00	8.25	2.25	0.50	2.25	-0.212891	0.090820	0.972656	-10.360000	1.120000	-5.670000	757.00	-0.07	-0.16
2.45	0.00	0.00	0.00	0.00	0.00	0.00	0.00	0.00	0.00	0.00	0.00	0.00	0.00	0.00	0.00	0.00	-1.186035	0.476074	2.087402	-6.650000	-288.820007	101.290001	0.00	0.00	0.00	4.25	5.25	5.50	7.50	5.50	8.25	1.25	7.75	1.75	2.25	2.25	4.75	8.75	2.75	0.50	2.50	-0.213867	0.101562	0.967285	-7.280000	2.100000	-5.110000	761.00	-0.06	-0.16
2.46	0.00	0.00	0.00	0.00	0.00	0.00	0.00	0.00	0.00	0.00	0.00	0.00	0.00	0.00	0.00	0.00	-1.453613	0.462891	2.088867	-23.450001	-276.079987	107.169998	0.00	0.00	0.00	3.50	4.75	5.00	7.00	5.50	8.00	1.25	7.75	2.25	2.50	2.75	6.00	9.25	3.00	0.75	3.00	-0.214355	0.123047	0.954590	-4.970000	3.290000	-5.040000	774.00	-0.03	-0.17
2.47	0.00	0.00	0.00	0.00	0.00	0.00	0.00	0.00	0.00	0.00	0.00	0.00	0.00	0.00	0.00	0.00	-1.770020	0.527344	2.065430	-46.410000	-259.140015	112.489998	0.00	0.00	0.00	3.00	4.25	4.50	6.25	5.50	7.75	1.50	8.00	2.50	2.75	3.50	7.25	9.75	3.75	0.75	3.50	-0.211914	0.114746	0.967285	-3.500000	5.110000	-5.320000	796.00	-0.01	-0.17
2.48	0.00	0.00	0.00	0.00	0.00	0.00	0.00	0.00	0.00	0.00	0.00	0.00	0.00	0.00	0.00	0.00	-2.095215	0.660156	2.144531	-63.349998	-242.410004	118.650002	0.00	0.00	0.00	2.50	3.25	3.50	5.75	5.00	7.50	1.50	8.00	3.00	3.25	4.50	8.00	10.25	4.50	1.00	4.25	-0.208008	0.105469	0.967285	0.980000	9.450000	-6.230000	804.00	0.02	-0.17
2.49	0.00	0.00	0.00	0.00	0.00	0.00	0.00	0.00	0.00	0.00	0.00	0.00	0.00	0.00	0.00	0.00	-2.422852	0.794922	2.291504	-62.439999	-237.580002	128.520004	0.00	0.00	0.00	1.75	3.00	3.00	5.25	4.75	7.00	1.50	8.25	3.75	3.75	5.75	8.50	11.00	5.25	1.25	5.00	-0.186523	0.060547	1.001465	4.060000	12.320000	-7.070000	832.00	0.05	-0.16
2.50	0.00	0.00	0.00	0.00	0.00	0.00	0.00	0.00	0.00	0.00	0.00	0.00	0.00	0.00	0.00	0.00	-2.675781	0.868652	2.202148	-41.580002	-253.610001	141.610001	0.00	0.00	0.00	2.00	2.50	2.25	4.75	4.25	6.75	1.25	8.25	4.25	4.50	7.50	9.25	11.50	5.75	1.25	5.75	-0.214844	0.117188	0.971680	7.350000	16.170000	-7.630000	857.00	0.07	-0.16
2.51	0.00	0.00	0.00	0.00	0.00	0.00	0.00	0.00	0.00	0.00	0.00	0.00	0.00	0.00	0.00	0.00	-2.940918	0.851074	1.700195	-1.890000	-282.170013	153.300003	0.00	0.00	0.00	1.25	1.50	1.75	4.00	3.25	6.00	1.25	8.00	4.75	5.00	8.50	10.00	12.00	6.75	1.50	6.25	-0.226074	0.144531	0.970703	11.410000	20.580000	-8.260000	852.00	0.10	-0.16
2.52	0.00	0.00	0.00	0.00	0.00	0.00	0.00	0.00	0.00	0.00	0.00	0.00	0.00	0.00	0.00	0.00	-3.285156	0.670410	0.836914	58.799999	-298.549988	160.509995	0.00	0.00	0.00	1.00	1.75	1.50	3.75	2.50	5.50	1.25	8.00	5.50	6.50	9.00	10.50	12.50	7.25	1.50	7.00	-0.214844	0.109375	0.990234	15.960000	26.670000	-9.450000	881.00	0.12	-0.16
2.53	0.00	0.00	0.00	0.00	0.00	0.00	0.00	0.00	0.00	0.00	0.00	0.00	0.00	0.00	0.00	0.00	-3.742188	0.297363	-0.032715	123.059998	-282.519989	159.110001	0.00	0.00	0.00	0.75	1.00	0.75	3.00	2.00	5.00	1.00	8.00	6.25	7.75	10.00	11.25	13.00	8.00	1.75	7.50	-0.241699	0.105469	0.997070	21.139999	37.170002	-9.800000	898.00	0.14	-0.15
2.54	0.00	0.00	0.00	0.00	0.00	0.00	0.00	0.00	0.00	0.00	0.00	0.00	0.00	0.00	0.00	0.00	-4.241699	-0.083496	-0.826660	160.160004	-240.100006	143.220001	0.00	0.00	0.00	0.75	1.00	0.75	2.75	1.50	4.50	1.00	7.75	6.75	8.00	10.75	11.75	13.50	8.75	2.25	8.25	-0.252441	0.099609	1.040527	28.350000	55.439999	-8.680000	922.00	0.15	-0.15
2.55	0.00	0.00	0.00	0.00	0.00	0.00	0.00	0.00	0.00	0.00	0.00	0.00	0.00	0.00	0.00	0.00	-4.674805	-0.394531	-1.426758	158.550003	-185.220001	110.669998	0.00	0.00	0.00	0.50	0.25	0.25	2.25	1.00	3.75	0.75	7.50	7.50	8.75	11.50	12.50	14.00	9.50	2.75	8.75	-0.261719	0.126465	1.019531	41.020000	78.050003	-7.770000	933.00	0.18	-0.15
2.56	0.00	0.00	0.00	0.00	0.00	0.00	0.00	0.00	0.00	0.00	0.00	0.00	0.00	0.00	0.00	0.00	-4.728516	-0.578613	-1.773926	124.949997	-111.720001	71.050003	0.00	0.00	0.00	0.00	0.00	0.25	2.00	1.00	3.00	0.75	7.25	7.75	9.25	12.25	13.00	14.25	10.50	3.25	9.50	-0.277344	0.135742	1.050293	56.700001	104.440002	-7.140000	952.00	0.19	-0.14
2.57	0.00	0.00	0.00	0.00	0.00	0.00	0.00	0.00	0.00	0.00	0.00	0.00	0.00	0.00	0.00	0.00	-4.307129	-0.632812	-1.709473	68.320000	-20.230000	36.470001	0.00	0.00	0.00	0.00	0.50	0.00	2.00	0.75	2.75	0.75	6.50	8.00	9.50	12.75	13.50	14.50	11.50	3.75	10.25	-0.245605	0.125488	1.130371	70.209999	135.520004	-5.880000	974.00	0.20	-0.14
2.58	0.00	0.00	0.00	0.00	0.00	0.00	0.00	0.00	0.00	0.00	0.00	0.00	0.00	0.00	0.00	0.00	-3.606934	-0.434082	-1.081543	-0.420000	70.489998	11.830000	0.00	0.00	0.00	0.00	0.00	0.25	1.75	0.25	2.00	0.50	6.00	8.00	9.75	13.25	13.75	14.50	12.50	4.75	11.00	-0.339844	0.182617	1.140625	77.559998	166.250000	-5.880000	978.00	0.21	-0.13
2.59	0.00	0.00	0.00	0.00	0.00	0.00	0.00	0.00	0.00	0.00	0.00	0.00	0.00	0.00	0.00	0.00	-2.921387	0.061523	-0.052734	-55.369999	134.680008	1.820000	0.00	0.00	0.00	0.00	0.00	0.00	1.50	0.25	1.50	0.50	5.50	8.00	9.75	13.50	14.00	14.50	13.00	5.25	11.50	-0.312988	0.174805	1.079590	83.510002	198.449997	-9.030000	976.00	0.22	-0.13
2.60	0.00	0.25	0.00	0.00	0.00	0.00	0.00	0.00	0.00	0.00	0.00	0.00	0.00	0.00	0.00	0.00	-2.341797	0.504883	0.797852	-76.510002	157.149994	7.140000	2.00	0.00	0.00	0.00	0.00	0.00	1.25	0.00	1.00	0.25	4.75	7.75	9.75	14.00	14.25	14.25	14.00	5.75	12.00	-0.335938	0.187500	1.076172	84.699997	230.229996	-14.980000	969.00	0.23	-0.13
2.61	1.25	1.75	1.00	1.75	0.00	0.00	0.00	0.00	0.00	0.00	0.00	0.00	0.00	0.00	0.00	0.00	2.903809	0.032715	3.168945	7.980000	268.239990	18.480000	59.00	-0.34	-0.08	0.00	0.00	0.00	1.00	0.00	0.75	0.25	4.00	7.75	10.00	14.00	14.25	14.00	14.50	6.25	12.25	-0.437012	0.274902	1.255859	80.010002	258.929993	-21.139999	964.00	0.24	-0.12
2.62	3.00	4.25	1.50	2.50	0.00	0.00	0.00	0.00	0.00	0.00	0.00	0.00	0.00	0.00	0.00	0.00	0.698242	-0.106445	0.079590	-4.900000	125.720001	10.290000	114.00	-0.36	-0.07	0.00	0.00	0.00	1.25	0.00	0.00	0.25	3.25	7.50	10.00	14.00	14.25	13.75	14.75	6.75	12.50	-0.485840	0.272461	1.239746	78.400002	288.260010	-25.129999	950.00	0.25	-0.11
2.63	6.00	7.50	2.75	4.75	0.00	0.00	0.00	0.00	0.00	0.00	0.00	0.00	0.00	0.00	0.00	0.00	-0.671387	0.516113	2.632812	-62.790001	275.799988	-41.020000	214.00	-0.36	-0.06	0.00	0.00	0.00	0.50	0.00	0.00	0.00	2.75	7.50	9.75	14.00	14.00	13.25	15.00	7.00	12.50	-0.487305	0.167480	1.241211	78.260002	320.179993	-29.049999	926.00	0.26	-0.11
2.64	8.25	9.75	4.25	6.75	0.00	0.00	0.00	0.00	0.00	0.00	0.00	0.00	0.25	0.25	0.00	0.00	-0.671387	0.516113	2.632812	-62.790001	275.799988	-41.020000	301.00	-0.35	-0.06	0.00	0.00	0.00	0.25	0.00	0.00	0.00	2.50	7.00	9.75	13.75	13.75	12.75	14.50	7.00	12.25	-0.541016	0.306152	1.678223	71.050003	381.149994	-45.990002	897.00	0.26	-0.11
2.65	13.50	14.25	6.25	8.50	0.25	0.00	0.00	0.00	0.00	0.00	0.00	0.25	0.25	0.25	0.00	0.00	-1.020996	0.154785	2.965332	-31.639999	217.770004	-27.299999	444.00	-0.35	-0.05	0.00	0.00	0.00	0.50	0.00	0.00	0.00	2.00	6.50	9.50	13.50	13.00	11.75	13.75	6.75	11.75	-0.541016	0.306152	1.678223	71.050003	381.149994	-45.990002	852.00	0.26	-0.11
2.66	16.00	17.25	8.50	9.50	0.25	0.00	0.00	0.00	0.00	0.00	0.00	0.00	0.50	1.75	0.00	0.00	-0.452637	0.448730	1.680176	-69.300003	166.460007	-51.799999	545.00	-0.33	-0.04	0.00	0.00	0.00	0.00	0.00	0.00	0.25	2.00	6.00	9.25	12.50	12.25	11.00	12.00	6.25	10.50	-0.647461	0.405273	1.324707	62.160000	429.730011	-58.099998	790.00	0.26	-0.11
2.67	18.00	19.00	9.25	11.00	0.50	0.00	0.00	0.00	0.00	0.00	0.00	0.00	0.25	1.00	0.00	0.00	-0.354492	0.450195	1.202148	-49.980000	157.850006	-27.930000	601.00	-0.34	-0.04	0.00	0.00	0.00	0.00	0.00	0.00	0.25	1.50	5.50	8.50	11.50	11.25	10.25	10.25	5.50	9.25	-0.988281	0.663574	1.565918	54.110001	474.320007	-70.000000	711.00	0.26	-0.11
2.68	19.75	21.75	10.50	12.00	0.75	0.25	0.00	0.00	0.00	0.00	0.00	0.25	0.25	1.00	0.00	0.00	-0.355957	0.053711	1.337402	-35.910000	156.589996	-9.660000	678.00	-0.34	-0.05	0.00	0.00	0.00	0.00	0.00	0.00	0.00	1.25	4.50	7.50	10.00	10.00	9.00	8.50	4.50	7.50	-1.789551	0.962402	2.907715	45.009998	508.970001	-70.489998	605.00	0.26	-0.11
2.69	21.00	22.00	11.75	14.00	1.25	0.50	0.00	0.00	0.00	0.00	0.00	0.00	0.25	1.00	0.00	0.00	-0.423340	-0.199219	1.504395	-19.879999	142.380005	-11.760000	734.00	-0.34	-0.04	0.00	0.00	0.00	0.00	0.00	0.00	0.25	0.50	3.75	6.00	8.25	8.25	7.75	6.75	3.00	5.50	-2.051270	0.912109	2.809082	72.800003	504.489990	-53.130001	483.00	0.26	-0.11
2.70	22.00	23.25	13.00	15.75	1.50	1.25	0.00	0.00	0.00	0.00	0.00	0.00	0.25	1.25	0.00	0.00	-0.340332	0.070801	1.278809	-3.010000	122.570000	-23.100000	802.00	-0.33	-0.05	0.00	0.00	0.00	0.00	0.00	0.00	0.25	0.00	2.25	4.50	6.00	6.50	5.75	5.25	2.00	3.00	-1.790039	0.871094	3.217285	91.980003	479.010010	-55.230000	344.00	0.26	-0.11
2.71	23.25	23.25	13.75	16.75	2.00	2.00	0.00	0.00	0.00	0.00	0.00	0.25	0.25	1.25	0.00	0.00	-0.345215	0.378906	1.224609	3.710000	108.080002	-24.290001	851.00	-0.33	-0.05	0.00	0.00	0.00	0.00	0.00	0.00	0.25	0.00	2.00	3.00	3.75	4.50	3.75	3.50	1.00	1.25	-0.631836	0.685547	2.602539	131.180008	450.940002	-70.419998	228.00	0.25	-0.09
2.72	23.25	24.25	14.75	17.75	2.25	2.50	0.25	0.25	0.00	0.00	0.00	0.25	0.50	1.25	0.00	0.00	-0.375977	0.413086	1.368652	-13.370000	95.199997	-16.660000	900.00	-0.32	-0.05	0.00	0.00	0.00	0.00	0.00	0.00	0.25	0.00	1.00	1.75	2.25	2.50	2.00	1.25	0.50	1.00	0.037109	0.838379	2.359375	159.600006	421.540009	-103.809998	124.00	0.24	-0.11
2.73	23.50	25.00	14.75	18.50	2.50	3.25	0.25	0.25	0.00	0.00	0.00	0.00	0.50	1.25	0.00	0.00	-0.347168	0.177246	1.184082	-24.290001	75.809998	-8.330000	926.00	-0.32	-0.06	0.00	0.00	0.00	0.00	0.00	0.00	0.25	0.00	0.25	1.00	1.25	2.00	1.25	0.25	0.00	0.25	0.873047	0.769043	2.286621	184.660004	405.790009	-147.419998	66.00	0.21	-0.16
2.74	23.50	24.50	15.00	18.75	2.75	3.50	0.25	0.50	0.00	0.00	0.00	0.00	0.50	1.25	0.00	0.00	-0.273926	0.171387	1.109863	-27.440001	58.869999	-7.280000	936.00	-0.32	-0.06	0.00	0.00	0.00	0.25	0.00	0.00	0.25	0.00	0.00	0.50	1.25	1.25	1.00	0.00	0.00	0.25	0.985352	1.060059	1.408691	199.990005	424.269989	-195.089996	48.00	0.00	0.00
2.75	23.75	25.00	15.50	19.25	2.75	4.00	0.25	0.50	0.00	0.00	0.00	0.25	0.50	1.25	0.00	0.00	-0.259766	0.236816	1.007324	-29.400000	47.950001	-6.440000	963.00	-0.32	-0.06	0.00	0.00	0.00	0.00	0.00	0.00	0.25	0.00	0.00	0.50	1.00	1.00	0.50	0.00	0.00	0.25	0.907715	1.529297	4.174805	145.949997	293.019989	-186.339996	36.00	0.00	0.00
2.76	23.75	25.00	16.00	19.00	3.00	4.25	0.25	0.50	0.00	0.00	0.00	0.25	0.50	1.25	0.00	0.00	-0.254883	0.174316	0.987793	-31.990000	43.889999	-3.850000	971.00	-0.32	-0.06	0.00	0.00	0.00	0.00	0.00	0.00	0.25	0.00	0.00	0.25	0.75	0.50	0.50	0.00	0.00	0.25	0.992188	1.613281	3.875488	96.180000	85.470001	-124.879997	25.00	0.00	0.00
2.77	23.00	25.00	15.75	19.00	3.50	4.25	0.25	0.50	0.00	0.00	0.00	0.00	0.50	1.25	0.00	0.00	-0.260742	0.112793	1.011230	-31.150000	39.759998	-3.500000	963.00	-0.32	-0.06	0.00	0.00	0.00	0.00	0.00	0.00	0.25	0.00	0.00	0.25	0.50	0.75	0.00	0.00	0.00	0.00	1.137207	0.946777	2.676270	31.990000	-83.440002	-56.000000	20.00	0.00	0.00
2.78	23.25	24.50	15.50	19.00	3.50	4.50	0.25	0.50	0.00	0.00	0.00	0.00	0.25	1.25	0.00	0.00	-0.262695	0.100586	1.010742	-25.760000	33.950001	-3.920000	959.00	-0.32	-0.06	0.00	0.00	0.00	0.00	0.00	0.00	0.25	0.00	0.00	0.25	0.50	0.00	0.00	0.00	0.00	0.25	0.890137	0.536621	1.633301	-32.830002	-172.199997	-15.750000	13.00	0.00	0.00
2.79	22.75	23.75	15.50	18.75	3.50	4.25	0.25	0.50	0.00	0.00	0.00	0.25	0.25	1.25	0.00	0.00	-0.245117	0.089355	0.990723	-17.850000	28.070000	-4.060000	944.00	-0.32	-0.06	0.00	0.00	0.00	0.00	0.00	0.00	0.25	0.00	0.00	0.25	0.50	0.25	0.00	0.00	0.00	0.00	0.708984	0.403320	1.093750	-73.919998	-197.119995	-7.000000	14.00	0.00	0.00
2.80	22.25	23.75	15.00	18.25	3.50	4.50	0.25	0.50	0.00	0.00	0.00	0.00	0.50	1.25	0.00	0.00	-0.258789	0.125000	0.985840	-11.900000	23.590000	-4.550000	930.00	-0.31	-0.06	0.00	0.00	0.00	0.00	0.00	0.00	0.25	0.00	0.00	0.00	0.25	0.25	0.00	0.00	0.00	0.00	0.621582	0.432129	0.938477	-72.870003	-202.930008	-11.830000	9.00	0.00	0.00
2.81	21.75	23.00	14.75	18.00	3.50	4.75	0.50	0.75	0.00	0.00	0.00	0.25	0.50	1.00	0.00	0.00	-0.266113	0.140137	0.986328	-7.770000	19.809999	-3.990000	923.00	-0.31	-0.06	0.00	0.00	0.00	0.00	0.00	0.00	0.25	0.00	0.00	0.25	0.25	0.25	0.00	0.00	0.00	0.00	0.571777	0.438477	1.029785	-39.830002	-221.550003	-16.940001	12.00	0.00	0.00
2.82	21.25	22.50	14.50	17.25	3.25	4.50	0.25	0.75	0.00	0.00	0.00	0.25	0.50	0.75	0.00	0.00	-0.239746	0.134277	0.927734	-4.060000	15.820000	-3.010000	891.00	-0.31	-0.06	0.00	0.00	0.00	0.00	0.00	0.00	0.25	0.00	0.00	0.25	0.25	0.00	0.00	0.00	0.00	0.00	0.462891	0.350098	1.205566	4.410000	-256.480011	-19.460001	9.00	0.00	0.00
2.83	20.00	21.75	14.00	17.00	3.50	4.50	0.25	0.75	0.00	0.00	0.00	0.25	0.75	1.25	0.00	0.00	-0.229492	0.133789	0.931641	-3.150000	16.240000	-2.660000	872.00	-0.31	-0.06	0.00	0.00	0.00	0.00	0.00	0.00	0.25	0.00	0.00	0.00	0.25	0.00	0.00	0.00	0.00	0.00	0.336426	0.166992	1.383301	39.340000	-299.739990	-18.760000	6.00	0.00	0.00
2.84	19.50	21.00	13.50	16.50	3.50	5.00	0.25	0.75	0.00	0.00	0.00	0.00	0.75	1.00	0.00	0.00	-0.239258	0.109375	0.930176	-1.960000	16.379999	-2.520000	850.00	-0.31	-0.06	0.00	0.00	0.00	0.00	0.00	0.00	0.25	0.00	0.00	0.25	0.25	0.00	0.00	0.00	0.00	0.00	0.197754	-0.025879	1.405273	46.619999	-343.420013	-13.790000	9.00	0.00	0.00
2.85	18.50	20.00	13.00	15.75	3.75	5.25	0.25	0.75	0.00	0.00	0.00	0.50	0.75	1.25	0.00	0.00	-0.219238	0.128906	0.883789	-3.430000	18.129999	-3.080000	829.00	-0.30	-0.07	0.00	0.00	0.00	0.00	0.00	0.00	0.25	0.00	0.00	0.00	0.00	0.00	0.00	0.00	0.00	0.00	0.033203	-0.126953	1.309082	20.930000	-378.209991	-7.210000	4.00	0.00	0.00
2.86	17.25	19.00	12.75	15.50	4.00	5.50	0.25	1.00	0.00	0.00	0.25	0.50	0.75	1.25	0.00	0.00	-0.268066	0.157227	0.927734	-9.310000	22.469999	-4.970000	814.00	-0.29	-0.07	0.00	0.00	0.00	0.00	0.00	0.00	0.25	0.00	0.00	0.00	0.00	0.00	0.00	0.00	0.00	0.00	-0.091797	-0.100586	1.168457	-18.549999	-398.299988	-0.490000	4.00	0.00	0.00
2.87	17.50	18.25	12.25	14.75	4.00	5.50	0.50	1.25	0.00	0.00	0.25	0.25	0.75	1.00	0.00	0.00	-0.235352	0.151367	0.914551	-23.170000	29.120001	-7.140000	798.00	-0.29	-0.07	0.00	0.00	0.00	0.00	0.00	0.00	0.25	0.00	0.00	0.00	0.00	0.00	0.00	0.00	0.00	0.00	-0.170898	-0.002930	1.054199	-48.580002	-404.459991	5.320000	4.00	0.00	0.00
2.88	16.50	17.50	12.00	14.50	4.00	5.50	0.50	1.25	0.00	0.00	0.25	0.25	1.00	1.50	0.00	0.00	-0.297852	0.141602	0.930176	-29.960001	29.540001	-8.330000	782.00	-0.29	-0.07	0.00	0.00	0.00	0.00	0.00	0.00	0.25	0.00	0.00	0.00	0.00	0.00	0.00	0.00	0.00	0.00	-0.195801	0.148926	1.059570	-43.820000	-397.040009	13.580000	4.00	0.00	0.00
2.89	16.00	16.50	11.75	14.00	4.25	5.75	0.50	1.50	0.00	0.00	0.25	0.50	1.00	1.25	0.25	0.00	-0.274414	0.119141	0.960938	-34.369999	27.370001	-9.030000	772.00	-0.28	-0.07	0.00	0.00	0.00	0.00	0.00	0.00	0.25	0.00	0.00	0.00	0.00	0.00	0.00	0.00	0.00	0.00	-0.218262	0.157227	1.112305	-19.600000	-393.260010	17.219999	4.00	0.00	0.00
2.90	14.75	15.75	11.25	13.50	4.50	5.75	0.50	1.50	0.00	0.25	0.25	0.50	1.50	1.25	0.00	0.00	-0.264648	0.104492	0.958984	-36.820000	24.780001	-9.870000	748.00	-0.27	-0.08	0.00	0.00	0.00	0.00	0.00	0.00	0.25	0.00	0.00	0.00	0.00	0.00	0.00	0.00	0.00	0.00	-0.253906	0.119629	1.277344	3.220000	-389.690002	20.299999	4.00	0.00	0.00
2.91	14.25	14.25	11.00	13.00	4.75	5.75	0.50	1.75	0.25	0.25	0.50	0.75	1.50	1.50	0.00	0.00	-0.278809	0.095703	0.974121	-36.610001	21.070000	-10.010000	738.00	-0.26	-0.07	0.00	0.00	0.00	0.00	0.00	0.00	0.25	0.00	0.00	0.00	0.00	0.00	0.00	0.00	0.00	0.00	-0.305664	0.085449	1.437500	17.639999	-388.570007	22.610001	4.00	0.00	0.00
2.92	14.00	14.00	10.75	12.75	5.00	5.75	0.50	2.00	0.50	0.50	0.50	1.00	1.75	1.75	0.00	0.25	-0.286133	0.096191	0.961914	-30.380001	14.770000	-10.080000	748.00	-0.25	-0.08	0.00	0.25	0.00	0.00	0.00	0.00	0.25	0.00	0.00	0.00	0.00	0.00	0.00	0.00	0.00	0.00	-0.361328	0.068359	1.574707	22.330000	-390.250000	24.710001	6.00	0.00	0.00
2.93	12.50	12.75	10.50	12.00	5.25	6.25	0.75	2.00	0.75	0.75	0.75	1.25	1.75	1.75	0.00	0.25	-0.297852	0.111816	0.909180	-22.469999	9.450000	-9.800000	733.00	-0.23	-0.08	0.00	0.00	0.00	0.00	0.00	0.00	0.25	0.00	0.00	0.00	0.00	0.00	0.00	0.00	0.00	0.00	-0.431641	0.068848	1.704102	22.469999	-392.839996	26.600000	4.00	0.00	0.00
2.94	11.75	11.50	10.00	11.25	5.25	6.25	0.75	2.25	1.00	1.00	1.00	1.75	2.50	2.00	0.00	0.25	-0.271484	0.106934	0.921875	-17.500000	7.000000	-9.940000	726.00	-0.21	-0.08	0.00	0.00	0.00	0.00	0.00	0.00	0.25	0.00	0.00	0.00	0.00	0.00	0.00	0.00	0.00	0.00	-0.520996	0.089844	1.711914	23.309999	-394.730011	28.980000	4.00	0.00	0.00
2.95	10.50	11.25	10.00	10.50	5.75	6.25	1.00	2.50	1.50	1.00	1.25	1.75	3.00	2.50	0.00	0.50	-0.270508	0.095703	0.941406	-14.910000	6.090000	-10.220000	735.00	-0.19	-0.08	0.00	0.00	0.00	0.00	0.00	0.00	0.25	0.00	0.00	0.00	0.00	0.00	0.00	0.00	0.00	0.00	-0.656738	0.121582	1.614746	29.190001	-388.149994	31.360001	4.00	0.00	0.00
2.96	9.75	10.00	9.50	10.00	5.75	6.25	1.00	3.25	1.75	1.50	1.50	2.25	3.75	3.25	0.25	0.50	-0.271973	0.092285	0.929688	-12.880000	6.160000	-10.920000	748.00	-0.16	-0.08	0.00	0.00	0.00	0.00	0.00	0.00	0.25	0.00	0.00	0.00	0.00	0.00	0.00	0.00	0.00	0.00	-0.807129	0.103516	1.573242	35.770000	-366.380005	33.180000	4.00	0.00	0.00
2.97	9.00	9.00	9.25	9.50	6.00	6.00	1.00	3.75	2.00	1.75	1.75	2.50	5.00	3.25	0.25	0.75	-0.262207	0.093750	0.948730	-10.920000	7.280000	-11.410000	754.00	-0.14	-0.09	0.00	0.00	0.00	0.00	0.00	0.00	0.25	0.00	0.00	0.00	0.00	0.00	0.00	0.00	0.00	0.00	-0.924805	0.109863	1.791016	37.310001	-335.579987	33.250000	4.00	0.00	0.00
2.98	8.50	8.00	9.00	8.75	6.00	5.75	1.25	4.25	2.75	2.00	2.25	3.50	5.75	4.00	0.25	1.00	-0.281738	0.081543	0.941406	-8.680000	9.450000	-11.620000	779.00	-0.11	-0.09	0.00	0.00	0.00	0.00	0.00	0.00	0.25	0.00	0.00	0.00	0.00	0.00	0.00	0.00	0.00	0.00	-1.062988	0.193359	1.929688	33.110001	-306.670013	30.450001	4.00	0.00	0.00
2.99	7.25	7.50	8.25	8.00	6.00	5.50	1.50	4.75	4.00	2.50	2.75	4.50	6.50	5.00	0.50	1.25	-0.286621	0.079590	0.943848	-6.860000	11.900000	-12.180000	810.00	-0.07	-0.09	0.00	0.00	0.00	0.00	0.00	0.00	0.25	0.00	0.00	0.25	0.00	0.00	0.00	0.00	0.00	0.00	-1.296387	0.326660	1.999512	23.240000	-267.959991	27.299999	6.00	0.00	0.00
3.00	6.50	6.50	7.75	7.25	6.00	5.00	1.50	4.75	4.50	3.25	3.50	5.50	7.00	6.50	0.50	1.50	-0.286133	0.067871	0.932129	-4.970000	14.700000	-12.670000	825.00	-0.04	-0.09	0.00	0.00	0.00	0.00	0.00	0.00	0.25	0.00	0.00	0.00	0.00	0.00	0.00	0.00	0.00	0.00	-1.525391	0.323242	2.164551	0.280000	-220.500000	31.990000	4.00	0.00	0.00
3.01	6.00	5.50	7.50	6.50	6.00	4.75	1.75	5.00	5.50	4.00	5.75	7.00	7.75	7.50	0.75	1.75	-0.298828	0.080078	0.949707	-2.450000	17.850000	-13.580000	884.00	-0.00	-0.08	0.00	0.00	0.00	0.00	0.00	0.00	0.25	0.00	0.00	0.00	0.00	0.00	0.00	0.00	0.00	0.00	-1.759277	0.438477	2.478516	-25.129999	-189.559998	45.920002	4.00	0.00	0.00
3.02	5.00	5.25	6.50	5.75	5.75	4.25	1.75	5.25	7.00	5.50	7.25	7.75	8.00	8.25	1.00	2.25	-0.292480	0.100586	0.940430	-0.560000	21.000000	-14.420000	920.00	0.03	-0.08	0.00	0.00	0.00	0.00	0.00	0.00	0.25	0.00	0.00	0.25	0.00	0.00	0.00	0.00	0.00	0.00	-2.017090	0.661133	2.894531	-5.670000	-194.809998	70.000000	6.00	0.00	0.00
3.03	4.25	4.25	5.75	5.50	5.00	3.50	1.75	5.25	8.00	7.50	8.00	8.75	8.75	9.25	1.00	3.00	-0.312988	0.088379	0.943359	1.120000	24.219999	-16.520000	947.00	0.06	-0.08	0.00	0.00	0.00	0.00	0.00	0.00	0.25	0.00	0.00	0.25	0.25	0.00	0.00	0.00	0.00	0.00	-2.342773	0.604492	3.374512	55.650002	-246.610001	99.959999	9.00	0.00	0.00
3.04	3.25	3.00	5.00	5.00	4.25	2.75	1.75	5.25	8.75	8.00	9.50	9.75	9.50	10.00	1.00	3.75	-0.297852	0.083496	0.928223	4.340000	27.230000	-18.690001	954.00	0.09	-0.08	0.00	0.00	0.00	0.00	0.00	0.00	0.25	0.00	0.00	0.50	0.00	0.00	0.00	0.00	0.00	0.00	-2.691895	0.325684	2.874512	105.980003	-325.850006	129.080002	9.00	0.00	0.00
3.05	2.75	2.50	3.75	4.75	3.25	2.25	1.50	5.00	9.50	8.75	10.25	10.75	10.00	11.00	1.25	4.50	-0.212891	0.066406	0.960938	8.820000	32.689999	-19.460001	959.00	0.12	-0.08	0.00	0.00	0.00	0.00	0.00	0.00	0.25	0.00	0.00	0.00	0.25	0.00	0.00	0.00	0.00	0.00	-3.175293	0.040039	1.665039	117.809998	-374.079987	156.240005	6.00	0.00	0.00
3.06	2.50	2.50	3.25	4.25	2.50	1.50	1.25	4.75	10.00	9.25	11.25	11.75	10.50	12.00	1.50	5.00	-0.318848	0.068359	1.005859	12.880000	45.009998	-18.480000	972.00	0.14	-0.08	0.00	0.00	0.00	0.00	0.00	0.00	0.25	0.00	0.00	0.25	0.25	0.00	0.00	0.00	0.00	0.00	-3.563965	-0.187500	0.540039	105.629997	-359.100006	178.639999	9.00	0.00	0.00
3.07	1.75	2.00	2.75	3.75	2.00	1.50	1.25	4.50	10.50	10.00	12.25	12.75	11.00	13.00	1.75	5.25	-0.294922	0.068359	0.993164	22.820000	67.059998	-15.050000	992.00	0.16	-0.08	0.00	0.00	0.00	0.00	0.00	0.00	0.25	0.00	0.00	0.25	0.00	0.00	0.00	0.00	0.00	0.00	-3.964355	-0.820312	-0.050781	58.380001	-241.779999	197.259995	6.00	0.00	0.00
3.08	2.00	1.75	2.25	3.25	1.50	1.25	1.00	3.75	11.00	10.50	13.00	13.50	11.25	14.00	2.00	5.75	-0.344727	0.087402	0.979004	34.020000	88.480003	-12.040000	1001.00	0.17	-0.07	0.00	0.00	0.00	0.00	0.00	0.00	0.25	0.00	0.00	0.00	0.00	0.00	0.00	0.00	0.00	0.00	-4.234863	-1.010742	-0.292969	32.340000	-197.960007	179.270004	4.00	0.00	0.00
3.09	1.75	1.50	1.50	3.50	1.25	0.75	0.75	3.25	11.25	11.00	13.75	14.25	11.25	15.00	2.25	6.00	-0.402344	0.077637	1.072754	59.639999	138.389999	-8.610000	1008.00	0.19	-0.07	0.00	0.00	0.00	0.00	0.00	0.00	0.25	0.00	0.00	0.00	0.00	0.00	0.00	0.00	0.00	0.00	-4.472168	-1.071777	-1.007324	14.770000	-158.690002	135.100006	4.00	0.00	0.00
3.10	1.25	1.50	1.50	2.50	0.50	0.50	0.50	2.50	11.50	11.25	14.25	14.75	11.50	16.00	2.25	6.25	-0.379395	0.103516	1.081055	67.410004	168.910004	-6.860000	994.00	0.20	-0.07	0.00	0.00	0.00	0.00	0.00	0.00	0.25	0.00	0.00	0.00	0.00	0.00	0.00	0.00	0.00	0.00	-4.518555	-0.913086	-1.606934	1.050000	-102.620003	68.110001	4.00	0.00	0.00
3.11	1.50	1.25	1.25	2.75	0.75	0.50	0.00	2.25	11.75	11.50	14.75	15.25	11.25	16.75	2.50	6.50	-0.433594	0.139160	1.034668	69.160004	201.389999	-7.560000	1010.00	0.21	-0.07	0.00	0.00	0.00	0.00	0.00	0.00	0.25	0.00	0.00	0.00	0.00	0.00	0.00	0.00	0.00	0.00	-4.312988	-0.436035	-1.271484	-12.950000	-32.619999	-3.920000	4.00	0.00	0.00
3.12	1.50	1.00	1.25	2.75	0.50	0.25	0.00	1.75	12.00	11.75	15.25	15.50	11.00	17.25	2.75	6.75	-0.456543	0.161133	1.025879	66.500000	230.790009	-10.500000	1014.00	0.21	-0.06	0.00	0.00	0.00	0.00	0.00	0.00	0.25	0.00	0.00	0.00	0.00	0.00	0.00	0.00	0.00	0.00	-3.763672	-0.105957	-0.374512	13.370000	25.900000	-42.490002	4.00	0.00	0.00
3.13	1.25	0.75	1.00	2.50	0.25	0.25	0.00	1.50	12.00	12.00	15.25	15.75	10.75	17.50	2.75	7.00	-0.489746	0.151855	1.099609	60.900002	254.800003	-14.140000	1004.00	0.22	-0.06	0.00	0.00	0.25	0.50	0.00	0.00	0.25	0.00	0.00	0.00	0.00	0.00	0.00	0.00	0.00	0.00	-3.134766	1.000000	4.594727	48.790001	114.449997	-33.250000	12.00	0.00	0.00
3.14	1.50	0.75	1.00	2.50	0.25	0.00	0.00	1.50	12.00	12.00	15.50	15.75	10.25	17.50	3.00	7.00	-0.535156	0.186523	1.134277	58.310001	279.720001	-17.780001	1005.00	0.22	-0.06	1.50	2.00	0.75	2.00	0.00	0.00	0.25	0.00	0.00	0.00	0.00	0.00	0.00	0.00	0.00	0.00	2.794922	1.062012	-0.078125	40.670002	202.509995	-29.540001	68.00	-0.33	-0.07
3.15	1.25	0.75	0.75	2.00	0.25	0.00	0.00	1.25	11.75	12.25	15.50	15.50	10.25	17.25	3.00	7.00	-0.591309	0.248047	1.136719	57.330002	311.290009	-23.520000	985.00	0.23	-0.06	3.75	5.00	1.75	3.75	0.00	0.00	0.00	0.00	0.00	0.00	0.00	0.00	0.00	0.00	0.00	0.00	0.321777	-0.273926	0.416504	46.549999	192.990005	-42.490002	146.00	-0.36	-0.08
3.16	0.50	0.75	0.50	2.00	0.00	0.00	0.00	1.25	11.50	12.25	15.25	15.25	9.50	17.00	3.25	7.00	-0.548828	0.285645	1.128418	54.950001	345.450012	-31.780001	957.00	0.24	-0.06	8.00	8.75	2.75	5.75	0.00	0.00	0.00	0.00	0.00	0.00	0.00	0.00	0.00	0.00	0.00	0.00	-0.828613	0.938965	0.537598	-32.060001	249.059998	-72.800003	257.00	-0.36	-0.06
3.17	0.75	0.75	0.25	1.50	0.25	0.00	0.00	0.75	11.00	12.00	15.00	15.00	9.25	16.25	3.00	6.75	-0.647949	0.317383	1.152832	50.259998	380.309998	-42.770000	919.00	0.24	-0.06	11.25	12.00	5.00	8.25	0.00	0.00	0.00	0.00	0.00	0.00	0.00	0.00	0.25	0.00	0.00	0.00	-0.960938	1.225586	2.800781	-52.430000	311.360016	-48.930000	375.00	-0.36	-0.06
3.18	1.00	0.50	0.50	1.25	0.00	0.00	0.00	1.00	10.50	11.75	14.50	14.25	8.75	14.50	2.75	6.50	-0.788086	0.425781	1.220215	52.709999	421.049988	-55.510002	875.00	0.24	-0.06	15.00	14.50	7.50	10.00	0.25	0.50	0.00	0.00	0.00	0.00	0.25	0.25	0.50	0.00	0.00	0.00	-1.002930	0.085449	2.791016	-25.340000	276.779999	-6.230000	500.00	-0.34	-0.05
3.19	0.75	0.50	0.00	1.25	0.00	0.00	0.00	1.00	9.50	11.00	13.75	13.25	7.75	12.75	2.25	6.00	-0.917969	0.408203	1.567871	55.090000	461.720001	-67.480003	796.00	0.24	-0.06	16.25	15.75	8.50	11.25	0.50	1.75	0.00	0.00	0.00	0.00	0.00	0.25	0.75	0.00	0.00	0.00	-0.615234	-0.066406	2.210938	-29.680000	239.540009	-10.710000	565.00	-0.34	-0.06
3.20	0.50	0.25	0.00	0.75	0.00	0.00	0.00	0.75	8.75	9.75	11.75	11.50	7.00	10.75	1.75	5.25	-1.571777	0.245605	2.030762	46.270000	499.869995	-71.120003	687.00	0.24	-0.06	16.75	16.00	9.00	11.75	1.00	3.25	0.00	0.25	0.00	0.00	0.00	0.25	0.50	0.00	0.00	0.00	-0.628418	0.109375	2.173340	-23.240000	194.880005	-20.930000	607.00	-0.33	-0.06
3.21	0.00	0.00	0.00	0.50	0.00	0.00	0.00	0.50	7.75	8.25	9.75	9.25	5.75	9.25	1.00	4.00	-1.868652	0.490723	2.505859	37.869999	520.099976	-62.230000	561.00	0.25	-0.05	17.25	16.00	9.50	12.50	1.25	5.00	0.25	0.75	0.00	0.00	0.00	0.25	0.25	0.00	0.00	0.00	-0.482422	0.499023	1.979492	-8.680000	159.110001	-17.780001	657.00	-0.32	-0.07
3.22	0.00	0.00	0.00	0.00	0.00	0.00	0.00	0.00	6.25	6.50	7.50	7.00	4.00	8.00	0.50	2.50	-2.460938	0.998047	2.790527	52.990002	520.799988	-41.439999	424.00	0.26	-0.03	16.75	16.00	10.00	13.00	1.25	6.75	0.50	0.50	0.00	0.00	0.00	0.25	0.75	0.00	0.00	0.00	-0.391113	0.328125	1.498047	-23.309999	119.699997	-9.100000	686.00	-0.31	-0.08
3.23	0.00	0.00	0.00	0.00	0.00	0.00	0.00	0.00	5.00	4.75	4.75	5.25	2.75	6.75	0.50	1.25	-2.098145	0.835449	2.736816	92.959999	498.330017	-25.690001	313.00	0.27	-0.01	16.50	16.00	10.25	13.00	1.75	7.75	0.25	1.50	0.00	0.00	0.00	0.25	0.25	0.00	0.00	0.00	-0.320312	0.256348	1.306641	-43.889999	95.410004	-3.010000	710.00	-0.30	-0.08
3.24	0.00	0.00	0.00	0.00	0.00	0.00	0.00	0.00	3.25	3.25	3.00	3.25	1.50	5.00	0.00	1.00	-1.481445	0.553223	2.406738	138.320007	467.600006	-39.759998	203.00	0.27	-0.00	16.50	15.75	10.50	13.25	2.25	8.25	0.50	2.25	0.00	0.00	0.00	0.50	1.00	0.00	0.00	0.00	-0.282227	0.184570	1.159668	-46.549999	49.700001	0.700000	749.00	-0.29	-0.09
3.25	0.00	0.00	0.00	0.00	0.00	0.00	0.00	0.00	1.50	2.25	2.25	2.00	0.75	2.25	0.00	0.50	-0.410156	0.493652	2.535645	154.210007	447.299988	-80.709999	116.00	0.26	-0.02	16.25	16.25	10.25	13.50	2.25	9.00	0.50	2.50	0.00	0.00	0.25	0.50	1.00	0.00	0.00	0.25	-0.282227	0.184570	1.159668	-46.549999	49.700001	0.700000	766.00	-0.28	-0.10
3.26	0.00	0.00	0.00	0.00	0.00	0.00	0.00	0.00	1.00	1.25	1.00	2.00	0.25	0.50	0.00	0.00	0.259766	0.462402	2.530273	136.430008	421.959991	-127.680000	64.00	0.24	-0.05	16.50	16.00	10.75	13.50	2.50	9.25	0.50	2.75	0.00	0.00	0.25	0.50	1.50	0.25	0.00	0.00	-0.243652	0.139160	1.099121	-36.119999	32.759998	2.730000	787.00	-0.28	-0.10
3.27	0.00	0.00	0.00	0.00	0.00	0.00	0.00	0.00	0.75	1.25	1.25	1.00	0.00	0.00	0.00	0.00	0.107422	1.216309	3.081055	41.369999	386.119995	-189.979996	46.00	0.00	0.00	16.00	16.25	10.75	13.75	2.50	9.50	0.50	2.75	0.00	0.25	0.25	0.25	1.25	0.00	0.00	0.00	-0.227051	0.151367	1.045898	-24.500000	20.440001	3.220000	785.00	-0.28	-0.10
3.28	0.00	0.00	0.00	0.00	0.00	0.00	0.00	0.00	0.00	0.75	1.00	1.00	0.00	0.00	0.00	0.00	0.107422	1.216309	3.081055	41.369999	386.119995	-189.979996	29.00	0.00	0.00	15.75	15.75	10.50	13.50	2.50	9.50	0.50	3.25	0.00	0.25	0.25	0.25	1.50	0.00	0.00	0.00	-0.175293	0.143555	0.987793	-9.100000	7.070000	3.220000	782.00	-0.28	-0.10
3.29	0.00	0.00	0.00	0.00	0.00	0.00	0.00	0.00	0.25	1.00	1.00	1.00	0.00	0.00	0.00	0.00	0.596680	1.143066	4.711914	20.510000	220.850006	-152.669998	35.00	0.00	0.00	16.00	16.25	10.50	13.75	2.50	10.00	0.50	3.25	0.00	0.25	0.25	0.50	1.50	0.00	0.00	0.00	-0.168457	0.149902	0.969727	-4.270000	3.010000	1.960000	800.00	-0.27	-0.10
3.30	0.00	0.00	0.00	0.00	0.00	0.00	0.00	0.00	0.00	1.00	1.00	0.75	0.00	0.00	0.00	0.00	0.872070	0.752930	2.575684	10.150000	-138.389999	-59.639999	29.00	0.00	0.00	15.25	15.50	10.25	13.50	2.50	10.00	0.50	4.75	0.00	0.00	0.25	0.50	1.75	0.00	0.00	0.00	-0.174805	0.149902	0.964844	-0.490000	0.630000	0.910000	802.00	-0.26	-0.12
3.31	0.00	0.00	0.25	0.00	0.00	0.00	0.00	0.00	0.00	1.00	0.75	0.75	0.00	0.00	0.00	0.00	0.572266	0.500000	1.774902	-4.690000	-205.380005	-35.209999	29.00	0.00	0.00	14.75	15.00	10.00	13.25	2.50	10.25	0.50	5.00	0.00	0.25	0.00	0.25	2.00	0.25	0.00	0.00	-0.162598	0.151367	0.951660	1.750000	-0.350000	0.140000	795.00	-0.26	-0.12
3.32	0.00	0.00	0.00	0.00	0.00	0.00	0.00	0.00	0.00	1.00	0.75	0.00	0.00	0.00	0.00	0.00	0.578125	0.471680	1.284668	-8.330000	-230.580002	-21.840000	18.00	0.00	0.00	13.75	14.75	9.75	13.00	2.50	10.25	0.50	5.50	0.00	0.00	0.00	0.25	2.00	0.00	0.00	0.00	-0.179199	0.146973	0.975586	3.430000	-0.350000	-0.070000	780.00	-0.26	-0.13
3.33	0.00	0.00	0.00	0.00	0.00	0.00	0.00	0.00	0.00	0.50	0.50	0.25	0.00	0.00	0.00	0.00	0.527832	0.499023	1.057129	-0.420000	-252.910004	-12.320000	13.00	0.00	0.00	13.00	13.75	9.50	13.00	2.25	10.25	0.50	5.75	0.00	0.25	0.25	0.50	2.75	0.00	0.00	0.00	-0.183105	0.166504	0.965332	5.250000	-0.700000	0.070000	775.00	-0.25	-0.13
3.34	0.00	0.00	0.00	0.00	0.00	0.00	0.00	0.00	0.00	0.25	0.50	0.25	0.00	0.00	0.00	0.00	0.376953	0.519531	1.006836	16.799999	-272.649994	-2.590000	10.00	0.00	0.00	12.25	13.25	9.25	12.50	2.25	10.25	0.50	6.00	0.00	0.25	0.25	0.75	3.00	0.00	0.00	0.00	-0.160156	0.178711	0.937500	4.480000	0.280000	0.210000	763.00	-0.24	-0.14
3.35	0.00	0.00	0.00	0.00	0.00	0.00	0.00	0.00	0.00	0.50	0.00	0.00	0.00	0.00	0.00	0.00	0.245117	0.454102	1.000000	41.860001	-289.100006	10.780000	5.00	0.00	0.00	11.25	12.50	8.50	12.25	2.25	10.50	0.50	6.50	0.00	0.25	0.00	1.00	3.50	0.00	0.00	0.50	-0.168945	0.178223	0.951172	0.770000	2.590000	-0.630000	752.00	-0.23	-0.15
3.36	0.00	0.00	0.00	0.00	0.00	0.00	0.00	0.00	0.00	0.50	0.50	0.00	0.00	0.00	0.00	0.00	0.094727	0.209473	1.023438	55.860001	-303.869995	25.059999	10.00	0.00	0.00	10.00	11.50	8.25	11.75	2.25	10.25	0.50	6.75	0.00	0.25	0.25	1.25	4.00	0.00	0.00	0.25	-0.187988	0.183594	0.955078	-3.080000	4.340000	-1.050000	731.00	-0.22	-0.16
3.37	0.00	0.00	0.00	0.00	0.00	0.00	0.00	0.00	0.00	0.25	0.25	0.00	0.00	0.00	0.00	0.00	-0.013672	-0.060547	1.071777	42.910000	-315.839996	33.599998	5.00	0.00	0.00	9.25	10.75	8.00	11.50	2.25	10.00	0.50	7.00	0.00	0.25	0.25	0.75	4.25	0.25	0.00	0.25	-0.186523	0.171387	0.961914	-6.230000	5.040000	-1.540000	711.00	-0.21	-0.16
3.38	0.00	0.00	0.00	0.00	0.00	0.00	0.00	0.00	0.00	0.25	0.00	0.00	0.00	0.00	0.00	0.00	-0.074707	-0.192871	1.102051	3.220000	-329.559998	31.639999	3.00	0.00	0.00	8.75	9.75	7.75	11.00	2.00	10.00	0.50	7.25	0.00	0.00	0.25	1.25	4.50	0.00	0.00	0.50	-0.202637	0.158203	0.964355	-7.210000	4.410000	-1.750000	694.00	-0.20	-0.17
3.39	0.00	0.00	0.00	0.00	0.00	0.00	0.00	0.00	0.00	0.00	0.00	0.00	0.00	0.00	0.00	0.00	-0.167480	-0.147461	1.134766	-38.920002	-344.820007	20.510000	0.00	0.00	0.00	8.00	9.25	7.25	10.75	2.00	10.00	0.50	7.50	0.00	0.00	0.50	1.00	5.00	0.00	0.00	0.50	-0.204590	0.173828	0.955566	-7.560000	3.990000	-1.400000	681.00	-0.19	-0.18
3.40	0.00	0.00	0.00	0.00	0.00	0.00	0.00	0.00	0.00	0.00	0.25	0.00	0.00	0.00	0.00	0.00	-0.211914	-0.027832	1.141113	-57.750000	-358.190002	4.760000	3.00	0.00	0.00	7.25	9.00	6.75	10.50	2.25	10.00	0.50	7.75	0.00	0.50	0.50	1.25	5.50	0.00	0.00	0.50	-0.185547	0.168945	0.940430	-10.780000	4.760000	-1.190000	681.00	-0.18	-0.18
3.41	0.00	0.00	0.00	0.00	0.25	0.00	0.00	0.00	0.00	0.00	0.00	0.00	0.00	0.00	0.00	0.00	-0.259766	0.062988	1.121582	-47.110001	-368.899994	-12.040000	3.00	0.00	0.00	6.75	8.25	6.50	10.00	2.25	10.00	0.50	7.75	0.00	0.00	0.75	1.50	5.50	0.00	0.25	0.75	-0.189941	0.176270	0.947754	-15.120000	6.020000	-1.680000	665.00	-0.17	-0.19
3.42	0.00	0.00	0.00	0.00	0.00	0.00	0.00	0.00	0.00	0.00	0.00	0.00	0.00	0.00	0.00	0.00	-0.303223	0.078613	1.144043	-20.299999	-376.670013	-27.230000	0.00	0.00	0.00	6.50	7.75	6.00	9.75	2.25	9.75	0.50	8.00	0.00	0.50	0.75	1.50	6.25	0.00	0.25	0.75	-0.193848	0.168457	0.964355	-18.340000	6.370000	-2.380000	662.00	-0.16	-0.19
3.43	0.00	0.00	0.00	0.00	0.00	0.00	0.00	0.00	0.00	0.00	0.00	0.00	0.00	0.00	0.00	0.00	-0.364258	0.088379	1.232422	6.020000	-380.940002	-38.080002	0.00	0.00	0.00	6.00	7.50	6.00	9.50	2.50	10.25	0.50	8.25	0.00	0.50	0.50	2.00	6.50	0.00	0.00	1.00	-0.196777	0.157715	0.971680	-20.090000	5.950000	-2.800000	668.00	-0.16	-0.20
3.44	0.00	0.00	0.00	0.00	0.00	0.00	0.00	0.00	0.00	0.00	0.00	0.00	0.00	0.00	0.00	0.00	-0.449707	0.136230	1.348633	21.910000	-383.600006	-41.509998	0.00	0.00	0.00	5.50	6.75	5.50	9.25	2.50	10.00	0.50	8.25	0.00	0.50	0.75	2.25	7.00	0.25	0.00	1.00	-0.203125	0.148926	0.964355	-20.090000	5.530000	-3.080000	656.00	-0.14	-0.20
3.45	0.00	0.25	0.00	0.00	0.00	0.00	0.00	0.00	0.00	0.00	0.00	0.00	0.00	0.00	0.00	0.00	-0.519531	0.214844	1.459473	27.860001	-386.119995	-35.490002	2.00	0.00	0.00	5.00	6.50	5.50	8.75	2.50	9.75	0.50	8.50	0.25	0.50	0.75	2.25	7.75	0.00	0.00	1.25	-0.191895	0.146484	0.964355	-19.320000	4.690000	-3.290000	653.00	-0.13	-0.21
3.46	0.00	0.00	0.00	0.00	0.00	0.00	0.00	0.00	0.00	0.00	0.00	0.00	0.00	0.00	0.00	0.00	-0.581543	0.275391	1.497559	32.130001	-386.470001	-19.950001	0.00	0.00	0.00	4.50	6.25	5.00	8.50	2.25	10.00	0.75	8.50	0.50	0.75	1.00	2.75	8.00	0.50	0.00	1.25	-0.201172	0.139648	0.973145	-18.549999	4.270000	-3.850000	662.00	-0.12	-0.21
3.47	0.00	0.00	0.00	0.00	0.00	0.00	0.00	0.00	0.00	0.00	0.00	0.00	0.00	0.00	0.00	0.00	-0.642578	0.317383	1.535645	39.410000	-382.760010	3.640000	0.00	0.00	0.00	4.00	5.75	5.00	8.25	2.50	10.00	0.75	8.75	0.75	1.00	1.50	3.00	8.50	0.25	0.25	1.50	-0.205078	0.138184	0.972656	-16.730000	3.780000	-4.690000	676.00	-0.10	-0.21
3.48	0.00	0.00	0.00	0.00	0.00	0.00	0.00	0.00	0.00	0.00	0.00	0.00	0.00	0.00	0.00	0.00	-0.698242	0.318359	1.644531	48.439999	-375.899994	35.279999	0.00	0.00	0.00	3.50	5.50	4.00	8.00	2.50	9.50	0.75	8.75	0.75	1.00	1.25	3.50	8.75	0.25	0.25	1.75	-0.205078	0.143066	0.965332	-14.140000	2.800000	-5.950000	655.00	-0.09	-0.22
3.49	0.00	0.00	0.00	0.00	0.00	0.00	0.00	0.00	0.00	0.00	0.00	0.00	0.00	0.00	0.00	0.00	-0.750977	0.248047	1.835449	52.290001	-369.739990	72.309998	0.00	0.00	0.00	3.25	5.00	3.50	7.50	2.75	9.25	0.75	9.00	1.00	1.00	1.75	4.25	9.25	0.50	0.25	2.00	-0.202148	0.150391	0.966309	-14.700000	2.450000	-7.140000	665.00	-0.07	-0.22
3.50	0.00	0.00	0.00	0.00	0.00	0.00	0.00	0.00	0.00	0.00	0.00	0.00	0.00	0.00	0.00	0.00	-0.819336	0.165527	1.996094	41.650002	-365.890015	108.500000	0.00	0.00	0.00	2.75	4.25	3.25	7.00	2.75	9.25	0.75	8.75	1.00	1.25	2.00	5.00	9.50	0.75	0.75	2.25	-0.207031	0.150391	0.966797	-16.520000	2.450000	-8.680000	665.00	-0.05	-0.22
3.51	0.00	0.00	0.00	0.00	0.00	0.00	0.00	0.00	0.00	0.00	0.00	0.00	0.00	0.00	0.00	0.00	-1.041016	0.165527	2.137695	0.770000	-350.910004	159.600006	0.00	0.00	0.00	2.50	4.25	3.00	6.75	2.75	8.75	0.75	8.75	1.50	1.75	2.25	5.75	9.75	1.25	0.75	2.75	-0.202637	0.152832	0.957031	-18.900000	2.870000	-10.640000	683.00	-0.03	-0.22
3.52	0.00	0.00	0.00	0.00	0.00	0.00	0.00	0.00	0.00	0.00	0.00	0.00	0.00	0.00	0.00	0.00	-1.225586	0.256348	2.373047	1.470000	-337.540009	170.940002	0.00	0.00	0.00	2.25	3.50	2.75	6.00	3.00	8.50	0.75	8.75	1.50	2.00	2.75	6.50	10.00	1.75	0.50	3.00	-0.216797	0.148926	0.974121	-20.299999	3.010000	-11.970000	683.00	-0.01	-0.22
3.53	0.00	0.00	0.00	0.00	0.00	0.00	0.00	0.00	0.00	0.00	0.00	0.00	0.00	0.00	0.00	0.00	-1.475098	0.299316	2.728027	13.720000	-329.839996	176.330002	0.00	0.00	0.00	2.00	3.50	2.50	5.75	3.00	8.00	1.00	8.75	2.00	2.50	3.00	7.75	10.50	2.50	1.00	3.50	-0.214844	0.140625	0.955566	-20.160000	3.150000	-13.370000	720.00	0.01	-0.21
3.54	0.00	0.00	0.00	0.00	0.00	0.00	0.00	0.00	0.00	0.00	0.00	0.00	0.00	0.00	0.00	0.00	-1.821777	0.307617	3.030273	18.969999	-335.440002	181.020004	0.00	0.00	0.00	1.75	2.75	2.25	5.25	3.00	7.75	1.00	8.50	2.50	3.25	4.00	8.25	10.75	3.00	0.75	4.25	-0.211426	0.133789	0.963867	-19.879999	4.620000	-14.840000	733.00	0.03	-0.20
3.55	0.00	0.00	0.00	0.00	0.00	0.00	0.00	0.00	0.00	0.00	0.00	0.00	0.00	0.00	0.00	0.00	-2.263184	0.269043	2.969727	7.140000	-350.070007	185.990005	0.00	0.00	0.00	1.50	2.75	2.00	5.00	3.00	7.00	1.00	8.50	3.00	3.50	5.50	9.00	11.25	4.50	1.25	5.25	-0.212891	0.127930	0.980469	-17.290001	6.510000	-16.799999	778.00	0.06	-0.19
3.56	0.00	0.00	0.00	0.00	0.00	0.00	0.00	0.00	0.00	0.00	0.00	0.00	0.00	0.00	0.00	0.00	-2.743652	0.188965	2.506836	-17.920000	-358.679993	187.949997	0.00	0.00	0.00	1.50	1.75	1.75	4.25	2.75	6.50	1.00	8.25	3.75	4.00	7.50	9.50	11.75	5.75	1.25	5.75	-0.216797	0.119629	0.974121	-12.950000	9.800000	-17.710001	804.00	0.09	-0.18
3.57	0.00	0.00	0.00	0.00	0.00	0.00	0.00	0.00	0.00	0.00	0.00	0.00	0.00	0.00	0.00	0.00	-3.233887	0.334961	1.839355	-51.170002	-352.799988	182.630005	0.00	0.00	0.00	1.00	1.50	1.25	3.75	2.50	6.00	1.00	8.25	4.75	5.00	8.25	10.25	12.25	7.25	1.50	6.25	-0.202637	0.126465	0.972168	-7.000000	14.350000	-17.990000	839.00	0.11	-0.17
3.58	0.00	0.00	0.00	0.00	0.00	0.00	0.00	0.00	0.00	0.00	0.00	0.00	0.00	0.00	0.00	0.00	-3.617188	0.699707	1.035156	-78.260002	-330.049988	170.660004	0.00	0.00	0.00	0.75	0.75	1.00	3.50	2.25	5.25	1.00	8.25	5.50	6.00	9.00	10.75	12.75	8.00	1.75	7.25	-0.199707	0.115723	0.983887	0.770000	21.770000	-17.990000	866.00	0.13	-0.16
3.59	0.00	0.00	0.00	0.00	0.00	0.00	0.00	0.00	0.00	0.00	0.00	0.00	0.00	0.00	0.00	0.00	-3.817383	0.751953	0.045898	-52.290001	-287.700012	154.770004	0.00	0.00	0.00	0.50	1.00	0.75	3.00	1.50	4.75	0.75	8.00	6.75	7.75	10.00	11.50	13.25	8.75	2.25	7.75	-0.228516	0.132324	1.024902	9.660000	32.410000	-19.809999	907.00	0.15	-0.15
3.60	0.00	0.00	0.00	0.00	0.00	0.00	0.00	0.00	0.00	0.00	0.00	0.00	0.00	0.00	0.00	0.00	-4.151855	0.430664	-0.526367	22.400000	-230.930008	119.699997	0.00	0.00	0.00	0.25	0.75	0.75	3.25	1.25	3.75	0.75	7.75	7.50	8.50	11.00	12.25	13.75	9.75	2.75	8.50	-0.231445	0.109863	1.084473	19.670000	51.310001	-19.879999	946.00	0.17	-0.15
3.61	0.00	0.00	0.00	0.00	0.00	0.00	0.00	0.00	0.00	0.00	0.00	0.00	0.00	0.00	0.00	0.00	-4.471191	-0.117676	-0.729004	104.720001	-169.190002	62.020000	0.00	0.00	0.00	0.50	0.50	0.25	2.25	0.75	3.50	0.25	7.25	7.75	9.25	11.75	12.75	14.00	11.25	3.25	9.25	-0.255371	0.137695	1.041016	32.900002	75.529999	-18.200001	955.00	0.19	-0.14
3.62	0.00	0.00	0.00	0.00	0.00	0.00	0.00	0.00	0.00	0.00	0.00	0.00	0.00	0.00	0.00	0.00	-4.958496	-0.655762	-0.783203	148.820007	-112.980003	6.930000	0.00	0.00	0.00	0.25	0.00	0.00	2.00	0.50	2.25	0.25	6.50	8.00	9.50	12.50	13.25	14.50	12.25	4.00	9.75	-0.307129	0.138672	1.041504	49.070000	103.529999	-15.680000	957.00	0.21	-0.14
3.63	0.00	0.00	0.00	0.00	0.00	0.00	0.00	0.00	0.00	0.00	0.00	0.00	0.00	0.00	0.00	0.00	-5.065430	-1.019531	-1.065918	123.480003	-55.230000	-18.340000	0.00	0.00	0.00	0.25	0.00	0.00	1.25	0.25	1.50	0.25	6.00	8.50	10.00	13.00	13.75	14.50	13.75	4.50	10.50	-0.293457	0.123535	1.120605	67.690002	140.070007	-12.040000	974.00	0.22	-0.13
3.64	0.00	0.00	0.00	0.00	0.00	0.00	0.00	0.00	0.00	0.00	0.00	0.00	0.00	0.00	0.00	0.00	-4.751465	-0.979492	-1.116211	42.070000	14.350000	-12.250000	0.00	0.00	0.00	0.25	0.25	0.00	1.50	0.00	1.75	0.00	5.25	8.50	10.00	13.25	14.00	14.50	14.75	5.25	11.25	-0.308105	0.146973	1.200195	75.459999	177.940002	-9.660000	990.00	0.22	-0.12
3.65	0.00	0.00	0.00	0.25	0.00	0.00	0.00	0.00	0.00	0.00	0.00	0.00	0.00	0.00	0.00	0.00	-4.141113	-0.501465	-0.657227	-39.270000	85.959999	4.830000	3.00	0.00	0.00	0.00	0.00	0.00	1.50	0.00	0.75	0.00	4.50	8.75	10.00	13.50	14.25	14.25	15.50	6.25	11.50	-0.324219	0.207520	1.187012	80.919998	216.160004	-12.180000	987.00	0.24	-0.12
3.66	1.50	1.75	1.25	1.50	0.00	0.00	0.00	0.00	0.00	0.00	0.00	0.00	0.00	0.00	0.00	0.00	-3.017578	2.194824	2.234375	-5.040000	242.899994	-22.120001	62.00	-0.35	-0.06	0.25	0.00	0.00	1.00	0.00	0.00	0.00	4.00	8.75	10.25	13.50	14.25	13.75	16.25	6.50	12.00	-0.405762	0.288086	1.289551	66.989998	288.959991	-29.469999	979.00	0.25	-0.11
3.67	3.75	5.00	2.00	3.00	0.00	0.00	0.00	0.00	0.00	0.00	0.00	0.00	0.00	0.00	0.00	0.00	2.109375	0.574707	0.571777	85.680000	253.399994	-25.690001	140.00	-0.36	-0.06	0.00	0.00	0.00	1.00	0.00	0.00	0.00	3.25	8.50	10.25	13.50	14.00	13.25	16.75	6.75	12.00	-0.405762	0.288086	1.289551	66.989998	288.959991	-29.469999	961.00	0.25	-0.10
3.68	7.50	8.50	3.75	4.75	0.00	0.00	0.00	0.00	0.00	0.00	0.00	0.00	0.00	0.00	0.00	0.00	-0.141602	0.598633	0.522461	39.410000	201.039993	-50.470001	250.00	-0.36	-0.05	0.00	0.00	0.00	0.75	0.00	0.00	0.00	2.75	8.25	10.25	13.50	13.75	12.50	16.75	7.00	12.00	-0.566895	0.414062	1.421387	43.330002	366.730011	-56.910000	941.00	0.26	-0.10
3.69	12.25	13.25	6.50	7.50	0.00	0.00	0.00	0.00	0.00	0.00	0.00	0.00	0.00	0.25	0.00	0.00	-1.043457	0.963867	0.902344	-1.680000	267.610016	-55.790001	406.00	-0.35	-0.04	0.00	0.00	0.00	0.25	0.00	0.00	0.00	2.25	8.25	10.25	13.25	13.25	11.75	16.50	7.00	11.50	-0.535156	0.378418	1.336914	35.349998	401.239990	-73.779999	909.00	0.26	-0.09
3.70	17.75	18.00	8.50	9.25	0.00	0.00	0.00	0.00	0.00	0.00	0.00	0.00	0.00	0.25	0.00	0.00	-1.100098	-0.352051	2.321289	-21.629999	268.450012	-5.530000	548.00	-0.36	-0.04	0.00	0.00	0.00	0.00	0.00	0.00	0.00	2.00	7.75	10.25	13.00	12.75	11.00	15.75	6.75	10.75	-0.712402	0.509766	1.390137	39.970001	436.450012	-97.650002	868.00	0.27	-0.09
3.71	20.25	20.75	10.00	11.00	0.50	0.00	0.00	0.00	0.00	0.00	0.25	0.00	0.00	0.75	0.00	0.00	-1.100098	-0.352051	2.321289	-21.629999	268.450012	-5.530000	647.00	-0.35	-0.04	0.00	0.00	0.00	0.00	0.00	0.00	0.00	1.75	7.25	10.00	12.00	11.75	10.25	13.75	6.00	9.50	-0.912109	0.573242	1.515625	17.500000	490.489990	-114.590004	796.00	0.26	-0.09
