# time	left pressure 1[N/cm²]	left pressure 2[N/cm²]	left pressure 3[N/cm²]	left pressure 4[N/cm²]	left pressure 5[N/cm²]	left pressure 6[N/cm²]	left pressure 7[N/cm²]	left pressure 8[N/cm²]	left pressure 9[N/cm²]	left pressure 10[N/cm²]	left pressure 11[N/cm²]	left pressure 12[N/cm²]	left pressure 13[N/cm²]	left pressure 14[N/cm²]	left pressure 15[N/cm²]	left pressure 16[N/cm²]	left acceleration X[g]	left acceleration Y[g]	left acceleration Z[g]	left angular X[dps]	left angular Y[dps]	left angular Z[dps]	left total force[N]	left center of pressure X[%]	left center of pressure Y[%]	right pressure 1[N/cm²]	right pressure 2[N/cm²]	right pressure 3[N/cm²]	right pressure 4[N/cm²]	right pressure 5[N/cm²]	right pressure 6[N/cm²]	right pressure 7[N/cm²]	right pressure 8[N/cm²]	right pressure 9[N/cm²]	right pressure 10[N/cm²]	right pressure 11[N/cm²]	right pressure 12[N/cm²]	right pressure 13[N/cm²]	right pressure 14[N/cm²]	right pressure 15[N/cm²]	right pressure 16[N/cm²]	right acceleration X[g]	right acceleration Y[g]	right acceleration Z[g]	right angular X[dps]	right angular Y[dps]	right angular Z[dps]	right total force[N]	right center of pressure X[%]	right center of pressure Y[%]
0.00	2.50	3.50	1.50	2.50	2.75	2.25	0.25	2.75	3.00	3.25	2.50	2.00	5.50	4.00	0.00	0.75	-0.276367	0.131836	0.921387	-2.520000	4.620000	1.540000	446.00	0.02	-0.10																									
0.01	2.25	3.00	1.75	2.50	2.75	2.25	0.25	2.50	3.25	3.25	2.75	2.25	5.75	3.75	0.00	1.00	-0.271973	0.129395	0.918945	-2.590000	4.620000	1.610000	448.00	0.03	-0.10																									
0.02	2.50	3.25	1.75	2.50	2.50	2.50	0.25	2.75	3.00	3.50	2.50	2.00	5.75	4.00	0.00	1.00	-0.271484	0.133789	0.920898	-2.660000	4.620000	1.610000	454.00	0.02	-0.10																									
0.03	2.00	3.00	1.75	2.50	2.75	2.50	0.50	2.75	3.25	3.25	2.50	2.50	5.75	4.25	0.00	1.00	-0.275391	0.133301	0.926270	-2.590000	4.340000	1.540000	461.00	0.04	-0.10																									
0.04	2.00	3.25	1.50	2.50	2.50	2.75	0.25	2.50	3.00	3.25	2.50	2.00	6.00	4.25	0.00	0.75	-0.274902	0.131836	0.917969	-2.520000	4.270000	1.540000	444.00	0.03	-0.11																									
0.05	2.00	3.25	1.75	2.75	2.50	2.50	0.25	2.50	3.00	3.50	2.50	2.50	5.75	4.00	0.00	0.75	-0.273926	0.125000	0.919922	-2.590000	4.410000	1.540000	451.00	0.03	-0.11																									
0.06	2.25	3.25	1.75	2.75	2.75	2.50	0.25	2.75	3.00	3.50	2.75	2.50	5.75	4.00	0.25	0.75	-0.270020	0.131348	0.915527	-2.730000	4.340000	1.610000	467.00	0.03	-0.11																									
0.07	2.25	3.50	1.75	2.50	2.50	2.75	0.25	2.75	3.25	3.00	2.75	2.50	5.75	4.25	0.00	0.75	-0.274414	0.135254	0.921875	-2.520000	4.130000	1.680000	464.00	0.03	-0.10																									
0.08	1.50	3.25	1.75	2.50	2.50	2.75	0.25	2.50	3.25	3.75	2.75	2.25	5.75	4.25	0.00	0.75	-0.276855	0.133789	0.923828	-2.520000	4.200000	1.610000	454.00	0.04	-0.10																									
0.09	2.00	3.00	1.50	2.75	2.75	2.75	0.25	2.50	3.00	3.50	2.75	2.50	6.00	4.50	0.00	0.75	-0.273438	0.136230	0.923828	-2.450000	4.130000	1.680000	461.00	0.04	-0.11	5.00	3.75	3.75	4.00	3.75	2.00	0.25	1.00	3.50	3.25	2.75	2.25	5.00	3.50	2.00	1.75	-0.218750	0.139648	0.940430	-3.080000	0.210000	0.140000	535.00	-0.01	-0.06
0.10	2.25	2.75	1.75	2.50	2.50	2.50	0.25	2.75	3.25	3.50	2.75	2.50	5.75	4.25	0.00	1.00	-0.273438	0.135254	0.925293	-2.590000	4.410000	1.610000	460.00	0.04	-0.10	5.00	3.50	3.50	4.00	3.75	2.25	0.50	1.00	3.25	3.00	2.75	2.00	4.50	3.25	2.00	2.00	-0.226562	0.138184	0.951660	-3.010000	0.210000	0.210000	522.00	-0.01	-0.06
0.11	1.75	3.50	1.75	2.50	2.50	2.75	0.25	2.75	3.25	3.50	2.75	2.25	6.00	4.25	0.00	1.00	-0.276855	0.131348	0.922363	-2.520000	4.480000	1.610000	465.00	0.03	-0.11																									
0.12	2.25	3.25	1.50	2.25	2.75	2.75	0.25	2.75	3.25	3.25	2.50	2.50	6.00	4.50	0.00	0.75	-0.276367	0.133789	0.921387	-2.520000	4.410000	1.610000	463.00	0.03	-0.10	4.75	3.50	3.75	4.00	4.00	2.00	0.50	1.00	3.75	3.00	2.50	2.00	4.75	3.50	1.50	2.00	-0.226074	0.140625	0.945801	-3.080000	0.280000	0.140000	525.00	-0.01	-0.05
0.13	2.25	3.25	1.75	2.50	2.75	2.75	0.25	3.00	3.25	3.50	2.75	2.50	5.75	4.00	0.00	1.00	-0.273926	0.133789	0.922852	-2.520000	4.270000	1.540000	473.00	0.03	-0.11	4.75	3.75	3.50	3.75	3.75	2.00	0.50	1.25	3.50	3.00	2.75	2.00	4.50	3.50	2.00	2.00	-0.227539	0.138184	0.950684	-3.080000	0.140000	0.140000	525.00	-0.01	-0.06
0.14	2.00	3.50	1.25	2.50	2.75	2.50	0.50	3.00	3.25	3.50	2.75	2.25	5.75	4.25	0.00	1.00	-0.278320	0.128418	0.916992	-2.590000	4.340000	1.680000	467.00	0.04	-0.10	4.50	3.50	4.00	3.75	3.75	2.00	0.50	1.00	3.50	3.25	2.50	2.00	4.75	3.50	2.00	2.00	-0.226562	0.143555	0.951660	-3.150000	0.350000	-0.000000	524.00	-0.00	-0.06
0.15	2.00	3.00	1.50	2.50	2.75	2.75	0.25	3.00	3.00	3.50	2.75	2.25	6.00	4.25	0.00	1.00	-0.273926	0.122559	0.929199	-2.590000	4.340000	1.610000	463.00	0.04	-0.11	4.50	3.75	3.75	3.50	4.25	2.00	0.50	1.25	3.50	3.25	2.75	2.00	5.00	3.75	1.75	2.00	-0.231934	0.136230	0.948242	-3.010000	0.350000	0.070000	536.00	-0.00	-0.06
0.16	2.25	3.25	1.50	2.50	2.75	2.50	0.50	2.75	3.50	3.50	2.75	2.50	5.75	4.25	0.00	0.75	-0.271484	0.128906	0.927246	-2.660000	4.340000	1.680000	471.00	0.04	-0.10	5.00	3.50	3.75	3.75	4.00	2.00	0.50	1.00	3.50	3.00	2.75	2.00	4.75	3.50	1.75	2.25	-0.224609	0.141113	0.948730	-3.010000	0.420000	0.070000	529.00	-0.01	-0.05
0.17	2.25	3.00	1.75	2.50	2.75	2.75	0.25	2.75	3.25	3.25	2.75	2.50	6.00	4.25	0.00	1.00	-0.275391	0.132324	0.929199	-2.520000	4.410000	1.680000	468.00	0.03	-0.10	4.75	3.75	3.75	4.00	4.00	2.00	0.50	1.25	3.25	3.00	2.75	2.00	4.75	3.25	1.75	2.25	-0.228027	0.133789	0.947266	-3.150000	0.350000	0.210000	530.00	-0.01	-0.06
0.18	2.00	3.50	1.50	2.50	2.75	3.00	0.25	2.75	3.25	3.50	2.75	2.50	6.00	4.25	0.00	1.00	-0.271973	0.133301	0.923340	-2.520000	4.270000	1.540000	473.00	0.03	-0.11	4.75	3.50	3.50	4.00	4.00	2.00	0.50	1.00	3.50	3.25	2.75	2.00	4.50	3.50	2.00	2.00	-0.221680	0.142090	0.948730	-3.150000	0.140000	0.070000	528.00	-0.01	-0.05
0.19	2.25	3.00	1.50	2.50	2.50	2.75	0.25	3.00	3.50	3.50	2.75	2.50	6.00	4.00	0.00	0.75	-0.275879	0.133789	0.925781	-2.520000	4.340000	1.610000	469.00	0.04	-0.11	4.25	3.50	3.50	3.75	4.00	2.00	0.50	1.00	3.25	3.00	2.75	1.75	4.75	3.50	2.00	2.25	-0.226562	0.142578	0.943848	-3.010000	0.070000	0.070000	513.00	-0.00	-0.06
0.20	1.75	3.00	1.50	2.75	2.75	3.00	0.25	3.00	3.25	3.50	2.75	2.75	6.00	4.50	0.00	1.00	-0.265625	0.138184	0.926758	-2.590000	4.340000	1.540000	478.00	0.04	-0.11	4.75	3.50	3.75	3.75	4.00	2.00	0.50	1.25	3.50	3.25	3.00	2.00	4.75	4.00	2.00	2.00	-0.224121	0.138672	0.946777	-3.010000	0.140000	0.070000	542.00	0.00	-0.06
0.21	2.25	3.00	1.50	2.75	2.50	2.25	0.25	3.00	3.25	3.50	3.00	2.50	5.75	4.50	0.00	1.00	-0.273438	0.133301	0.927246	-2.450000	4.410000	1.610000	469.00	0.04	-0.10	4.50	3.25	3.50	3.75	4.00	2.00	0.50	1.00	3.50	3.00	2.75	2.00	5.00	3.75	1.75	2.00	-0.222656	0.143555	0.945312	-3.080000	0.070000	0.140000	521.00	0.00	-0.06
0.22	2.00	2.75	1.75	2.50	2.50	3.00	0.25	2.75	3.25	3.50	2.75	2.75	6.00	4.25	0.00	1.00	-0.271484	0.133789	0.926270	-2.380000	4.270000	1.680000	469.00	0.04	-0.11	4.75	2.75	1.50	1.25	2.75	0.00	0.25	0.00	3.25	3.25	2.75	2.00	4.50	3.50	2.00	1.75	-0.224609	0.140625	0.952637	-3.150000	0.140000	0.070000	398.00	0.05	-0.03
0.23	1.75	3.00	1.50	2.50	2.75	2.75	0.25	3.00	3.25	3.75	2.75	2.50	6.00	4.50	0.00	1.00	-0.270020	0.128418	0.921875	-2.380000	4.480000	1.680000	472.00	0.04	-0.11	1.75	1.75	1.00	1.25	2.75	0.25	0.25	0.00	1.25	2.00	1.75	0.50	2.25	1.75	0.50	0.50	-0.220215	0.140625	0.957520	-3.080000	0.280000	-0.000000	217.00	0.01	-0.03
0.24	1.75	3.25	1.75	2.75	2.75	3.00	0.25	3.00	3.25	3.50	2.75	2.75	6.00	4.50	0.00	1.00	-0.271973	0.135254	0.925293	-2.450000	4.620000	1.680000	483.00	0.04	-0.11	2.25	2.00	2.00	2.25	3.00	0.25	0.25	0.00	1.50	1.75	1.50	1.00	2.50	1.75	0.25	0.50	-0.226074	0.140137	0.948730	-3.150000	0.420000	-0.000000	256.00	-0.03	-0.04
0.25	1.75	2.75	1.75	2.75	2.75	3.00	0.25	2.75	3.25	3.50	3.00	2.50	6.00	4.50	0.00	1.00	-0.272949	0.136230	0.924805	-2.520000	4.830000	1.680000	474.00	0.04	-0.11	2.00	1.75	1.00	1.75	2.75	0.00	0.25	0.00	1.75	1.75	1.50	0.75	2.25	2.00	0.00	0.75	-0.225586	0.136719	0.951172	-3.010000	0.350000	0.140000	225.00	0.00	-0.02
0.26	1.75	3.25	1.50	2.00	2.75	2.50	0.25	3.00	3.00	3.50	3.00	2.75	6.00	4.25	0.00	0.75	-0.275391	0.135254	0.925781	-2.590000	4.830000	1.540000	461.00	0.04	-0.11	2.50	1.75	2.00	2.00	3.00	0.50	0.25	0.00	1.50	2.00	1.50	1.00	2.25	2.00	0.25	0.50	-0.224609	0.136719	0.948242	-3.150000	0.280000	0.070000	259.00	-0.03	-0.03
0.27	2.00	3.00	1.75	2.50	2.75	2.50	0.25	3.00	3.25	3.50	2.75	2.50	6.25	4.50	0.00	1.25	-0.270996	0.135254	0.923828	-2.590000	4.690000	1.610000	476.00	0.04	-0.11	2.00	2.00	1.75	2.25	3.00	0.25	0.25	0.00	1.75	2.00	1.75	0.75	2.75	1.75	0.25	0.75	-0.223633	0.143066	0.950684	-3.080000	0.280000	0.140000	260.00	-0.01	-0.04
0.28	1.50	2.50	1.50	2.50	2.50	2.50	0.25	3.00	3.25	3.50	2.75	2.75	6.00	4.50	0.00	1.00	-0.274414	0.131348	0.922852	-2.520000	4.620000	1.750000	458.00	0.05	-0.11	2.50	2.00	1.75	2.25	3.00	0.50	0.25	0.25	1.75	2.00	1.75	0.75	2.50	1.75	0.25	0.75	-0.225098	0.134766	0.947754	-3.150000	0.350000	-0.000000	271.00	-0.02	-0.04
0.29	2.00	3.25	1.50	2.50	2.75	2.75	0.25	3.00	3.00	3.50	2.75	2.50	6.00	4.25	0.00	1.00	-0.274414	0.131348	0.922852	-2.520000	4.620000	1.610000	468.00	0.03	-0.11	2.50	2.00	1.50	1.75	3.00	0.25	0.25	0.25	2.00	2.00	1.50	0.75	2.50	1.75	0.25	0.75	-0.225098	0.136719	0.943359	-3.080000	0.280000	-0.070000	259.00	-0.01	-0.03
0.30	1.75	3.00	1.50	2.75	2.75	2.75	0.25	3.00	3.25	3.75	2.75	2.75	6.00	4.50	0.00	1.00	-0.274902	0.130371	0.916504	-2.590000	4.550000	1.680000	478.00	0.04	-0.11	2.25	2.00	1.75	2.00	3.00	0.25	0.25	0.00	1.50	1.75	1.50	0.75	2.25	1.50	0.25	0.75	-0.223633	0.135254	0.945801	-3.150000	0.210000	-0.000000	244.00	-0.03	-0.03
0.31	2.00	2.75	1.25	2.50	2.50	2.75	0.25	3.00	3.00	3.50	2.75	2.75	6.00	4.50	0.25	0.75	-0.274902	0.131348	0.921387	-2.590000	4.620000	1.610000	464.00	0.05	-0.11	1.50	1.50	1.00	1.25	2.75	0.00	0.25	0.00	1.50	2.00	1.50	0.75	2.25	2.25	1.25	1.75	-0.227539	0.139160	0.957031	-3.010000	0.350000	-0.070000	233.00	0.06	-0.03
0.32	2.00	3.00	1.25	2.50	2.50	3.00	0.25	3.00	3.00	3.75	2.75	2.50	6.00	4.25	0.00	0.75	-0.273926	0.133301	0.922363	-2.590000	4.550000	1.680000	464.00	0.04	-0.11	4.75	3.25	3.25	3.50	4.00	1.50	0.50	1.00	3.50	3.25	2.75	2.00	4.25	3.75	2.00	2.00	-0.227051	0.137207	0.947266	-3.290000	0.420000	-0.070000	510.00	0.00	-0.05
0.33	2.00	3.00	1.75	2.50	2.50	3.00	0.25	3.00	3.50	3.50	2.75	2.75	6.00	4.75	0.00	1.00	-0.272949	0.132812	0.921875	-2.660000	4.550000	1.610000	484.00	0.04	-0.10	4.50	3.25	2.25	1.75	3.00	0.50	0.25	0.25	1.75	2.00	1.75	0.75	2.50	1.75	0.25	0.75	-0.222168	0.137207	0.946777	-3.080000	0.350000	0.140000	306.00	-0.07	-0.03
0.34	2.25	3.25	1.75	2.75	2.75	3.00	0.25	3.00	3.25	3.50	2.75	2.75	6.25	4.50	0.00	0.75	-0.272949	0.136719	0.920410	-2.660000	4.620000	1.540000	490.00	0.03	-0.11	4.00	3.50	3.75	3.75	4.00	2.00	0.50	1.25	3.50	3.00	2.75	2.25	4.75	3.50	2.00	2.25	-0.223145	0.135254	0.952637	-3.150000	0.420000	0.070000	527.00	0.00	-0.06
0.35	2.00	3.25	1.50	2.50	2.75	3.00	0.25	3.00	3.00	3.50	2.75	2.75	6.00	4.25	0.00	1.00	-0.274902	0.131836	0.924805	-2.590000	4.620000	1.610000	474.00	0.03	-0.11	4.25	3.50	3.50	3.50	4.25	2.00	0.50	1.00	3.25	3.25	3.00	2.00	4.75	3.50	2.00	2.00	-0.224121	0.141602	0.952148	-3.150000	0.420000	0.070000	521.00	0.00	-0.06
0.36	2.50	3.25	1.75	2.75	2.75	3.00	0.25	3.00	3.50	3.50	2.75	3.00	6.25	4.25	0.00	1.00	-0.268555	0.133301	0.923828	-2.590000	4.620000	1.680000	498.00	0.03	-0.11	4.75	3.50	3.50	3.50	4.50	2.00	0.50	1.00	3.25	3.25	2.75	2.00	4.50	3.50	2.00	2.25	-0.227051	0.137207	0.954102	-3.010000	0.420000	0.070000	525.00	-0.00	-0.05
0.37	2.00	3.00	1.75	2.25	2.75	2.75	0.25	2.75	3.25	3.50	2.75	2.50	6.00	4.25	0.00	1.25	-0.271973	0.128906	0.928223	-2.590000	4.480000	1.750000	467.00	0.04	-0.10	5.00	3.50	3.25	3.75	4.25	2.00	0.50	1.00	3.75	3.25	3.00	2.00	4.75	3.50	1.75	1.75	-0.229004	0.139160	0.951172	-3.150000	0.420000	-0.000000	532.00	-0.00	-0.05
0.38	2.00	3.25	1.50	2.75	2.75	3.00	0.25	2.75	3.00	3.50	2.75	2.50	6.25	4.00	0.00	1.00	-0.274414	0.133301	0.919434	-2.520000	4.620000	1.750000	470.00	0.03	-0.11	4.75	3.25	3.50	3.50	4.25	2.00	0.50	1.00	3.25	3.25	2.75	1.75	4.75	4.00	2.00	2.00	-0.222656	0.134766	0.954590	-3.150000	0.490000	-0.000000	523.00	0.00	-0.05
0.39	2.25	3.50	1.75	2.50	2.50	2.25	0.25	2.75	3.25	3.50	3.00	2.75	6.00	4.25	0.00	1.00	-0.277344	0.131836	0.917480	-2.660000	4.830000	1.680000	473.00	0.03	-0.10	4.25	3.50	3.25	3.50	4.50	1.75	0.50	1.00	3.50	3.25	3.00	2.25	4.75	3.50	2.00	2.00	-0.225586	0.141113	0.948730	-3.220000	0.560000	0.070000	524.00	0.01	-0.06
0.40	2.00	3.25	1.50	2.50	2.75	3.00	0.25	2.75	3.25	3.75	3.00	2.75	6.00	4.25	0.00	0.75	-0.273926	0.134277	0.924805	-2.660000	4.830000	1.680000	478.00	0.04	-0.11	4.50	3.00	3.25	3.50	4.25	1.75	0.50	1.00	3.50	3.25	3.00	2.25	4.50	3.50	2.00	2.00	-0.224609	0.137695	0.946289	-3.010000	0.630000	-0.070000	516.00	0.01	-0.05
0.41	2.00	3.50	1.50	2.50	2.75	3.00	0.25	3.00	3.50	3.50	3.00	2.75	6.00	4.50	0.00	1.00	-0.274414	0.135742	0.919922	-2.660000	4.830000	1.680000	489.00	0.04	-0.11	4.25	3.50	3.75	3.50	4.50	2.00	0.50	1.00	3.25	3.50	2.75	2.25	4.75	3.75	2.25	2.25	-0.226562	0.137695	0.947754	-3.080000	0.630000	-0.000000	536.00	0.01	-0.06
0.42	2.00	3.25	1.50	2.75	2.50	2.75	0.25	2.75	3.25	3.50	2.50	2.75	6.00	4.25	0.00	1.00	-0.269043	0.136719	0.927734	-2.520000	4.760000	1.750000	468.00	0.04	-0.11	4.25	3.25	3.50	3.50	4.50	2.00	0.50	1.00	3.75	3.25	2.75	2.25	5.00	3.75	2.00	2.00	-0.221680	0.135254	0.953125	-3.080000	0.350000	0.070000	533.00	0.01	-0.05
0.43	2.25	3.00	1.50	2.25	2.75	3.00	0.25	2.75	3.00	3.75	2.75	2.75	6.00	4.25	0.00	1.00	-0.274414	0.132812	0.922363	-2.520000	4.690000	1.750000	470.00	0.04	-0.11	4.75	3.50	3.50	3.75	4.50	2.00	0.50	1.00	3.75	3.25	3.00	2.25	4.75	3.50	2.00	2.25	-0.220703	0.137207	0.949707	-3.220000	0.280000	0.140000	544.00	0.00	-0.05
0.44	1.75	3.00	1.50	2.50	2.75	2.50	0.25	2.75	3.25	3.50	2.75	2.50	6.00	4.25	0.00	1.00	-0.266113	0.131348	0.921875	-2.590000	4.900000	1.680000	459.00	0.04	-0.11	4.25	3.25	3.50	3.50	4.50	1.75	0.50	1.00	3.75	3.25	3.00	2.00	4.00	3.50	2.00	2.00	-0.228516	0.139648	0.941406	-3.150000	0.280000	0.140000	518.00	0.01	-0.05
0.45	2.00	2.75	1.75	2.50	2.75	3.00	0.25	3.00	3.25	3.50	2.75	2.50	6.00	4.50	0.00	1.00	-0.275391	0.133301	0.919922	-2.590000	4.690000	1.540000	475.00	0.04	-0.11	4.25	3.50	3.25	3.50	4.50	1.75	0.50	1.25	3.75	3.25	3.00	2.00	4.75	3.50	2.00	2.25	-0.222656	0.140137	0.956055	-3.220000	0.420000	-0.000000	530.00	0.01	-0.06
0.46	1.75	3.00	1.50	2.50	2.75	3.00	0.25	2.75	3.00	3.50	3.00	2.75	6.00	4.25	0.00	0.75	-0.271484	0.134766	0.920898	-2.590000	4.620000	1.610000	466.00	0.04	-0.11	4.75	2.75	3.50	3.50	4.50	2.00	0.50	1.00	3.75	3.25	3.00	2.00	4.50	3.50	2.25	2.00	-0.221680	0.136719	0.945801	-3.150000	0.490000	-0.000000	529.00	0.01	-0.05
0.47	2.25	3.25	1.50	2.75	2.75	2.75	0.25	2.75	3.25	3.50	3.00	2.50	6.00	4.25	0.00	1.00	-0.271484	0.137695	0.920410	-2.590000	4.480000	1.540000	476.00	0.03	-0.11	4.75	3.25	3.50	3.50	4.25	1.50	0.50	1.00	3.50	3.25	3.00	2.25	4.50	3.50	1.75	2.00	-0.221191	0.138672	0.947754	-3.220000	0.350000	0.140000	519.00	0.00	-0.05
0.48	2.75	3.50	1.50	2.50	2.50	2.75	0.25	2.75	3.25	3.25	3.00	2.75	6.00	4.50	0.00	1.25	-0.272949	0.131348	0.915527	-2.660000	4.550000	1.610000	482.00	0.03	-0.11	4.50	3.25	3.50	3.50	4.25	1.75	0.50	1.00	3.50	3.25	2.75	2.25	4.75	3.50	2.00	1.75	-0.227051	0.140137	0.954590	-3.080000	0.420000	0.140000	520.00	0.00	-0.05
0.49	2.00	3.00	1.75	2.50	2.75	3.00	0.25	3.00	3.50	3.50	2.75	2.75	5.75	4.50	0.25	1.25	-0.270020	0.133301	0.929199	-2.730000	4.620000	1.540000	486.00	0.04	-0.10	4.25	3.00	3.50	3.50	4.25	1.75	0.50	1.00	4.00	3.25	3.00	2.25	4.75	3.50	1.75	2.00	-0.225586	0.138672	0.948730	-3.080000	0.420000	0.070000	523.00	0.01	-0.05
0.50	2.00	3.75	1.50	2.50	2.75	2.75	0.25	2.75	3.25	3.25	2.75	2.75	6.00	4.00	0.00	1.00	-0.270996	0.137695	0.919434	-2.590000	4.550000	1.610000	471.00	0.03	-0.11	4.25	3.25	3.25	3.50	4.50	1.75	0.50	1.25	3.75	3.50	3.00	2.00	4.75	3.50	2.00	2.25	-0.221680	0.135742	0.945312	-3.150000	0.490000	0.070000	531.00	0.01	-0.05
0.51	2.50	3.25	2.00	2.75	2.50	2.50	0.25	3.00	3.25	3.50	3.00	2.75	6.00	4.50	0.00	1.00	-0.270996	0.134766	0.916504	-2.520000	4.550000	1.680000	489.00	0.03	-0.10	4.00	3.25	3.50	3.50	4.25	2.00	0.50	1.00	3.75	3.50	3.00	2.00	4.75	3.50	2.00	2.00	-0.229004	0.140625	0.950195	-3.150000	0.280000	0.140000	525.00	0.01	-0.05
0.52	2.25	3.00	1.50	2.75	2.75	2.75	0.25	3.00	3.00	3.50	3.00	2.75	6.00	4.50	0.00	1.00	-0.265625	0.135742	0.919434	-2.450000	4.550000	1.680000	480.00	0.04	-0.11	4.25	3.25	3.25	3.50	4.50	1.75	0.50	1.00	3.50	3.50	3.00	2.00	4.75	3.75	2.00	1.75	-0.229980	0.141113	0.949219	-3.150000	0.210000	0.210000	522.00	0.01	-0.05
0.53	2.25	3.50	1.50	2.75	2.75	2.50	0.25	2.75	3.25	3.50	3.00	2.50	6.00	4.25	0.00	0.75	-0.275391	0.137695	0.921387	-2.660000	4.900000	1.540000	475.00	0.03	-0.10	4.25	3.50	3.75	3.50	4.25	2.00	0.50	1.00	3.50	3.50	3.00	2.00	4.50	3.75	2.00	2.00	-0.227051	0.134277	0.945801	-3.150000	0.280000	0.280000	530.00	0.00	-0.05
0.54	2.00	3.00	1.75	2.25	2.50	3.00	0.25	2.75	3.00	3.50	3.00	2.75	6.00	4.50	0.00	1.00	-0.278320	0.133301	0.922852	-2.660000	4.830000	1.610000	470.00	0.04	-0.11	4.25	3.25	3.50	3.50	4.25	2.00	0.50	1.00	3.75	3.25	3.00	2.00	4.75	3.50	1.75	2.25	-0.226074	0.135254	0.945312	-3.150000	0.350000	0.070000	524.00	0.01	-0.05
0.55	2.00	3.00	1.75	2.50	2.50	2.50	0.25	2.75	3.00	3.25	3.00	2.50	6.00	4.25	0.00	1.00	-0.277832	0.138672	0.921387	-2.660000	4.830000	1.540000	459.00	0.04	-0.11	4.25	3.25	3.25	3.50	4.25	1.75	0.50	1.00	3.50	3.25	2.75	2.00	4.75	3.75	2.00	2.00	-0.227051	0.143555	0.951172	-3.080000	0.350000	0.140000	515.00	0.01	-0.05
0.56	2.50	3.25	2.25	2.25	2.50	2.50	0.25	2.50	3.50	3.25	2.75	2.50	5.75	4.50	0.25	1.00	-0.273438	0.131836	0.917969	-2.590000	4.760000	1.610000	473.00	0.03	-0.09	4.25	3.50	3.25	3.50	4.50	1.75	0.50	1.25	3.75	3.50	2.75	2.25	5.00	3.50	2.00	2.25	-0.226074	0.139648	0.950684	-3.150000	0.490000	0.140000	536.00	0.01	-0.06
0.57	2.00	3.00	2.00	2.75	2.75	2.75	0.25	2.75	3.25	3.50	2.75	2.50	6.25	4.25	0.00	1.00	-0.273438	0.131836	0.917969	-2.590000	4.760000	1.610000	477.00	0.03	-0.11	4.50	3.25	3.50	3.50	4.25	2.00	0.50	1.00	3.75	3.25	3.00	1.75	5.00	3.75	2.00	2.00	-0.223145	0.141113	0.946777	-3.080000	0.420000	-0.070000	530.00	0.01	-0.05
0.58	2.00	3.00	1.50	2.50	2.75	3.00	0.25	2.75	3.25	3.50	2.75	2.50	6.00	4.50	0.00	0.75	-0.274902	0.137207	0.921875	-2.730000	4.690000	1.540000	469.00	0.04	-0.11	4.75	3.00	3.25	3.50	4.25	1.75	0.50	1.00	3.75	3.25	3.00	2.00	4.50	3.50	2.00	2.25	-0.227051	0.137695	0.951660	-3.080000	0.490000	0.070000	521.00	0.01	-0.05
0.59	2.00	3.25	1.50	2.50	2.50	2.75	0.25	2.75	3.25	3.25	3.00	2.75	5.75	4.50	0.00	1.00	-0.278320	0.134277	0.921875	-2.590000	4.690000	1.610000	468.00	0.04	-0.11	4.25	3.00	3.00	3.50	4.25	2.00	0.50	1.25	3.75	3.25	3.00	1.75	3.50	2.75	0.50	0.75	-0.224609	0.138184	0.948242	-3.150000	0.420000	0.070000	474.00	-0.02	-0.04
0.60	2.00	3.25	1.25	2.50	2.75	2.75	0.25	2.75	3.25	3.50	2.75	2.75	6.00	4.50	0.00	1.00	-0.277832	0.132812	0.920898	-2.660000	4.760000	1.750000	470.00	0.04	-0.11	1.00	1.25	0.75	1.00	3.00	0.00	0.25	0.00	1.75	2.25	2.00	1.50	3.25	2.50	1.50	1.75	-0.224609	0.140137	0.951172	-3.010000	0.420000	0.140000	257.00	0.10	-0.05
0.61	2.00	3.50	1.50	2.50	2.50	2.75	0.25	2.50	3.25	3.50	2.75	2.50	6.00	4.50	0.00	1.25	-0.271973	0.139160	0.924316	-2.730000	4.690000	1.540000	467.00	0.04	-0.10	4.00	3.25	3.25	3.25	4.00	1.75	0.25	1.00	3.50	3.25	2.75	1.75	4.75	3.75	1.75	2.25	-0.224121	0.137695	0.953613	-3.080000	0.280000	0.070000	498.00	0.01	-0.06
0.62	1.75	3.50	1.50	2.50	2.50	2.75	0.25	2.75	3.00	3.25	2.75	2.50	6.00	4.25	0.00	1.25	-0.276367	0.132812	0.921875	-2.590000	4.690000	1.610000	460.00	0.04	-0.11	4.25	3.50	3.25	3.50	4.50	1.75	0.50	1.00	3.75	3.25	2.75	1.75	4.75	3.50	1.75	2.00	-0.226562	0.137207	0.949219	-3.150000	0.350000	-0.000000	516.00	0.00	-0.05
0.63	2.00	3.25	1.25	2.50	2.50	2.50	0.25	2.75	3.00	3.50	2.75	2.75	5.75	4.25	0.00	1.00	-0.276367	0.134277	0.926270	-2.590000	4.620000	1.610000	456.00	0.04	-0.11	4.25	3.50	3.50	3.50	4.25	2.00	0.50	1.00	3.75	3.50	3.00	2.00	4.75	3.50	2.00	2.00	-0.228027	0.136230	0.944824	-3.220000	0.280000	-0.000000	531.00	0.01	-0.05
0.64	2.25	2.75	1.50	2.00	2.50	2.50	0.25	2.75	3.25	3.50	2.75	2.50	5.75	4.25	0.00	0.75	-0.274902	0.135254	0.918945	-2.520000	4.550000	1.540000	450.00	0.04	-0.10	4.25	3.00	3.50	3.50	4.25	1.75	0.50	1.00	3.50	3.25	2.75	2.25	4.75	3.50	2.00	2.00	-0.222656	0.138672	0.941406	-3.290000	0.210000	0.140000	516.00	0.01	-0.05
0.65	2.00	2.75	1.50	2.50	2.75	2.50	0.25	2.75	3.50	3.50	3.00	2.50	5.75	4.50	0.00	1.00	-0.275879	0.133301	0.926758	-2.450000	4.480000	1.680000	466.00	0.05	-0.10	4.25	3.00	3.50	3.50	4.50	1.75	0.50	1.00	3.50	3.25	3.00	2.00	4.50	3.50	2.00	2.00	-0.226562	0.137207	0.951660	-3.220000	0.280000	-0.000000	517.00	0.01	-0.05
0.66	2.00	2.50	1.50	2.50	2.50	2.75	0.25	2.75	3.00	3.25	2.75	2.50	5.75	4.75	0.00	1.00	-0.274902	0.130859	0.921387	-2.450000	4.620000	1.820000	453.00	0.05	-0.11	4.75	3.25	3.25	3.50	4.50	2.00	0.50	1.25	3.50	3.25	3.00	2.00	4.50	3.50	1.75	2.00	-0.228516	0.140625	0.951660	-3.150000	0.070000	0.070000	526.00	-0.00	-0.05
0.67	2.25	3.00	1.50	2.50	2.75	2.75	0.50	2.75	3.25	3.50	2.75	2.50	6.00	4.50	0.00	1.00	-0.274414	0.132812	0.925293	-2.520000	4.830000	1.610000	475.00	0.04	-0.10	4.25	3.25	3.25	3.25	4.50	1.75	0.50	1.25	3.50	3.50	3.00	2.00	4.50	3.50	1.75	2.00	-0.223145	0.139648	0.947266	-3.220000	0.140000	-0.000000	517.00	0.01	-0.05
0.68	1.75	3.25	1.50	2.25	2.75	2.25	0.25	2.75	3.00	3.75	2.75	2.50	5.75	4.50	0.25	0.75	-0.271484	0.135254	0.918945	-2.730000	5.110000	1.540000	457.00	0.05	-0.10	4.00	3.50	3.00	3.50	4.50	2.00	0.50	1.25	3.50	3.25	3.00	2.00	4.50	3.50	2.00	2.25	-0.223633	0.140625	0.947754	-3.080000	0.140000	0.140000	521.00	0.01	-0.06
0.69	2.00	2.75	1.50	2.75	2.50	2.50	0.25	2.75	3.00	3.25	3.00	2.50	5.75	4.75	0.00	1.00	-0.272949	0.131348	0.919434	-2.730000	5.040000	1.540000	458.00	0.04	-0.11	4.25	3.50	3.50	3.50	4.50	1.75	0.50	1.00	3.75	3.25	2.75	2.00	4.75	3.50	1.75	2.00	-0.226562	0.136719	0.946777	-3.220000	0.280000	0.070000	522.00	0.00	-0.05
0.70	1.75	2.75	1.50	2.25	2.75	2.50	0.25	2.75	3.25	3.50	2.75	2.75	5.75	4.50	0.00	1.00	-0.271973	0.134277	0.922363	-2.660000	4.970000	1.540000	457.00	0.05	-0.10	4.75	3.00	3.50	3.50	4.75	1.75	0.50	1.00	3.75	3.25	2.75	1.75	4.75	3.25	2.00	2.00	-0.225098	0.138184	0.947266	-3.220000	0.280000	0.070000	523.00	0.00	-0.05
0.71	2.00	2.75	1.75	2.25	2.50	2.50	0.25	2.50	3.25	3.75	2.75	2.50	6.00	4.50	0.00	1.00	-0.275879	0.135254	0.925293	-2.520000	4.760000	1.540000	458.00	0.05	-0.10	4.50	3.50	3.50	3.25	4.50	1.75	0.50	1.00	3.50	3.50	3.25	2.00	4.50	3.75	1.75	2.00	-0.224121	0.138184	0.947266	-3.220000	0.140000	0.070000	527.00	0.00	-0.05
0.72	1.75	3.25	1.50	2.75	2.50	2.25	0.50	2.50	3.00	3.50	3.00	2.50	5.75	4.50	0.00	1.00	-0.276367	0.131836	0.920898	-2.520000	4.760000	1.540000	458.00	0.04	-0.10	4.25	3.25	3.50	3.50	4.50	1.75	0.25	1.00	3.50	3.25	3.00	1.75	4.75	3.75	1.75	1.75	-0.221680	0.140137	0.950195	-3.220000	0.140000	0.140000	513.00	0.00	-0.05
0.73	2.00	3.25	1.75	2.50	2.75	3.00	0.25	2.75	3.25	3.50	2.75	2.50	5.75	4.25	0.00	1.00	-0.278809	0.133789	0.923828	-2.660000	4.760000	1.540000	471.00	0.03	-0.10	4.25	3.25	3.25	3.50	4.50	2.00	0.50	1.25	3.50	3.25	2.75	2.00	4.50	3.75	2.00	2.00	-0.224609	0.133301	0.953613	-3.220000	0.280000	-0.000000	523.00	0.01	-0.06
0.74	1.75	3.25	1.50	2.75	2.50	2.50	0.25	2.75	3.00	3.25	2.75	2.75	6.00	4.25	0.00	1.00	-0.272461	0.133301	0.918457	-2.730000	4.760000	1.610000	458.00	0.04	-0.11	4.75	3.25	3.50	3.75	4.75	2.00	0.50	1.00	3.50	3.25	2.75	2.25	3.75	3.50	2.25	1.75	-0.223633	0.137695	0.953613	-3.220000	0.210000	-0.000000	528.00	-0.00	-0.05
0.75	1.75	3.00	1.75	3.00	2.50	2.50	0.25	2.75	3.00	3.50	2.75	2.50	5.75	4.50	0.00	1.00	-0.274414	0.129395	0.921387	-2.660000	4.620000	1.610000	462.00	0.04	-0.11	4.50	3.50	3.25	3.50	4.50	2.00	0.50	1.00	3.25	3.50	3.00	1.75	4.75	3.75	2.00	2.00	-0.224121	0.140137	0.950684	-3.220000	0.280000	0.070000	526.00	0.00	-0.05
0.76	2.25	3.00	1.75	2.50	2.75	2.50	0.25	2.75	3.00	3.50	2.75	2.25	5.75	4.50	0.00	0.75	-0.274414	0.138184	0.922363	-2.730000	4.550000	1.540000	460.00	0.03	-0.10	4.50	3.00	3.25	4.00	4.50	2.00	0.50	1.00	3.75	3.25	2.75	2.00	4.50	3.50	1.75	2.25	-0.226562	0.140625	0.954590	-3.220000	0.280000	0.140000	525.00	0.00	-0.05
0.77	2.25	3.00	1.75	2.50	2.75	2.50	0.25	2.75	3.25	3.25	2.75	2.75	5.75	4.50	0.00	1.00	-0.270508	0.134277	0.919922	-2.730000	4.690000	1.540000	468.00	0.04	-0.10	4.25	3.50	3.50	3.50	4.50	2.00	0.50	1.00	3.75	3.25	3.00	1.75	4.50	3.50	2.00	2.00	-0.225586	0.142578	0.955078	-3.150000	0.280000	0.140000	525.00	0.00	-0.05
0.78	2.25	2.75	1.75	2.75	2.50	2.25	0.25	2.75	3.00	3.50	2.75	2.75	5.75	4.50	0.00	1.00	-0.276855	0.130859	0.922852	-2.660000	4.620000	1.610000	462.00	0.04	-0.10	4.25	3.50	3.50	3.50	4.25	1.75	0.50	1.00	3.50	3.25	2.75	2.00	4.75	3.50	1.75	2.00	-0.227051	0.139648	0.955566	-3.220000	0.210000	0.140000	515.00	0.00	-0.05
0.79	2.00	3.25	1.25	2.00	2.50	2.50	0.25	2.75	3.00	3.50	2.75	2.25	5.75	4.50	0.00	0.75	-0.272949	0.132812	0.921875	-2.660000	4.480000	1.470000	445.00	0.04	-0.10	4.75	3.00	3.50	3.75	4.50	2.00	0.50	1.00	3.75	3.25	3.00	1.75	4.75	3.75	2.00	2.00	-0.230469	0.141113	0.949219	-3.150000	0.280000	-0.000000	534.00	0.00	-0.05
0.80	1.50	2.25	1.50	2.00	2.50	2.50	0.25	2.50	3.00	3.50	2.75	2.75	6.00	4.25	0.00	1.00	-0.272461	0.136230	0.924805	-2.520000	4.410000	1.610000	435.00	0.06	-0.11	4.50	3.25	3.50	3.50	4.50	2.00	0.50	1.25	3.75	3.25	3.00	2.25	4.75	3.50	1.75	2.00	-0.225098	0.141113	0.952148	-3.150000	0.140000	0.210000	535.00	0.00	-0.06
0.81	2.00	2.50	1.75	2.25	2.75	2.25	0.25	2.75	3.50	3.50	3.00	2.50	5.75	4.25	0.00	0.75	-0.278809	0.130371	0.923828	-2.590000	4.620000	1.610000	457.00	0.05	-0.10	4.50	3.50	3.25	3.25	4.25	2.00	0.50	1.00	3.50	3.25	2.75	2.00	4.50	3.75	1.75	1.75	-0.229004	0.142090	0.952148	-3.080000	0.210000	0.140000	514.00	0.00	-0.05
0.82	2.00	3.00	1.25	2.00	2.75	2.50	0.25	2.50	3.25	3.25	2.75	2.50	5.75	4.50	0.00	1.00	-0.274414	0.135254	0.927246	-2.590000	4.760000	1.540000	446.00	0.05	-0.10	4.25	3.25	3.25	3.50	4.25	2.00	0.50	1.00	3.75	3.50	3.00	1.75	4.50	3.50	2.00	2.25	-0.227051	0.140625	0.948242	-3.010000	0.070000	0.210000	521.00	0.01	-0.05
0.83	1.75	3.25	1.75	2.50	2.50	2.50	0.25	2.50	3.25	3.50	2.75	2.50	5.75	4.75	0.00	1.00	-0.278809	0.138184	0.923340	-2.590000	4.970000	1.540000	460.00	0.04	-0.10	4.25	3.25	3.25	3.50	4.75	2.00	0.50	1.00	3.50	3.25	2.75	2.00	4.75	3.25	2.00	2.25	-0.226074	0.138184	0.945801	-3.010000	0.210000	0.280000	521.00	0.00	-0.06
0.84	2.00	2.75	1.75	2.50	2.50	2.25	0.25	2.75	3.25	3.50	2.50	2.50	5.75	4.50	0.00	1.00	-0.275391	0.130859	0.922363	-2.590000	4.830000	1.470000	454.00	0.04	-0.10	4.00	3.25	3.50	3.50	4.75	2.00	0.50	1.00	3.50	3.25	2.75	1.75	4.50	3.75	1.75	2.00	-0.226074	0.138672	0.950195	-3.010000	0.210000	0.140000	516.00	0.00	-0.05
0.85	2.00	3.00	1.50	2.25	2.50	2.25	0.25	2.75	3.25	3.50	2.50	2.75	5.75	4.75	0.25	0.75	-0.273438	0.127441	0.922363	-2.590000	4.760000	1.610000	457.00	0.05	-0.10	4.50	3.50	3.25	3.50	4.50	2.00	0.25	1.00	3.50	3.25	2.75	2.00	4.50	3.50	1.75	2.00	-0.222168	0.136719	0.954590	-3.080000	0.140000	0.070000	515.00	-0.00	-0.06
0.86	2.00	3.25	1.50	2.25	2.75	2.50	0.25	2.75	3.00	3.50	2.75	2.50	6.00	4.50	0.00	1.00	-0.275879	0.134277	0.919434	-2.590000	4.760000	1.610000	461.00	0.04	-0.11	4.50	3.50	3.50	3.75	4.75	1.75	0.50	1.00	3.50	3.25	3.00	2.25	4.00	3.50	1.75	2.00	-0.220215	0.135254	0.951660	-3.220000	0.210000	0.070000	526.00	-0.00	-0.05
0.87	1.75	2.50	1.75	2.00	2.50	2.50	0.25	2.50	3.00	3.50	2.75	2.50	5.75	4.50	0.00	1.00	-0.273438	0.134277	0.920898	-2.730000	4.690000	1.680000	441.00	0.05	-0.10	4.25	3.50	3.25	3.50	4.75	1.75	0.50	1.25	3.50	3.25	2.75	2.00	4.50	3.75	1.75	2.00	-0.226074	0.135742	0.952637	-3.150000	0.140000	-0.000000	523.00	0.00	-0.05
0.88	2.00	2.75	1.50	1.75	2.50	2.25	0.25	2.50	3.25	3.25	2.75	2.50	5.75	4.50	0.25	1.00	-0.272949	0.131348	0.922363	-2.660000	4.690000	1.610000	441.00	0.05	-0.10	4.50	3.25	3.50	3.75	4.50	2.00	0.50	1.25	3.50	3.25	3.00	2.00	4.75	3.25	2.00	2.00	-0.228027	0.141602	0.951660	-3.080000	0.070000	0.070000	532.00	-0.00	-0.06
0.89	2.00	2.75	1.50	2.00	2.50	2.50	0.25	2.50	3.25	3.50	2.75	2.50	5.75	4.50	0.00	0.75	-0.275879	0.133789	0.927246	-2.730000	4.620000	1.540000	445.00	0.05	-0.10	4.25	3.50	3.50	3.75	4.50	1.75	0.50	1.00	3.75	3.25	2.75	2.25	4.75	3.50	1.75	2.00	-0.223145	0.138672	0.945312	-3.150000	-0.070000	0.140000	528.00	0.00	-0.05
0.90	1.75	2.75	1.25	2.25	2.75	2.50	0.25	2.75	3.25	3.25	2.75	2.25	5.50	4.75	0.00	0.75	-0.270996	0.128418	0.920898	-2.660000	4.550000	1.680000	444.00	0.05	-0.10	4.50	3.25	3.50	3.75	4.75	2.00	0.50	1.00	3.75	3.25	2.75	2.00	4.75	3.75	2.00	2.00	-0.227539	0.134277	0.950195	-3.150000	-0.070000	0.280000	536.00	0.00	-0.05
0.91	1.75	3.00	1.50	2.00	2.50	2.50	0.50	2.50	3.00	3.50	2.50	2.50	6.00	4.75	0.25	0.75	-0.269043	0.133789	0.919922	-2.660000	4.550000	1.540000	450.00	0.05	-0.10	4.50	3.50	3.50	3.50	4.75	2.00	0.50	1.00	3.50	3.25	3.00	1.75	4.75	3.50	1.75	2.25	-0.226074	0.136230	0.950195	-3.150000	0.070000	0.140000	529.00	-0.00	-0.05
0.92	1.75	2.75	1.50	2.25	2.50	2.25	0.25	2.50	3.25	3.50	2.75	2.50	5.75	4.50	0.00	0.75	-0.278320	0.133789	0.923828	-2.730000	4.480000	1.680000	442.00	0.05	-0.10	4.50	3.50	3.00	3.50	4.75	2.00	0.25	1.25	3.50	3.25	2.75	2.00	4.25	3.50	1.75	2.25	-0.223145	0.135742	0.952637	-3.080000	0.210000	-0.000000	518.00	-0.00	-0.06
0.93	1.75	2.75	1.25	2.25	2.75	2.50	0.25	2.50	3.25	3.50	2.75	2.50	5.75	4.50	0.00	0.75	-0.271484	0.136719	0.919922	-2.800000	4.480000	1.610000	445.00	0.05	-0.10	4.25	3.50	3.50	4.00	4.75	2.00	0.50	1.00	3.75	3.25	2.75	2.00	4.50	3.50	1.75	1.75	-0.226074	0.139160	0.951660	-3.080000	0.210000	0.070000	530.00	-0.00	-0.05
0.94	1.75	2.50	1.50	2.25	2.50	2.50	0.25	2.50	3.00	3.50	2.75	2.50	5.50	4.75	0.00	0.75	-0.270020	0.132812	0.928711	-2.730000	4.480000	1.610000	439.00	0.05	-0.10	4.50	3.75	3.25	3.50	4.75	2.00	0.50	1.00	3.50	3.25	3.00	2.00	4.75	3.50	2.00	2.00	-0.221680	0.136230	0.950195	-3.220000	0.210000	0.070000	532.00	-0.00	-0.06
0.95	1.75	3.00	1.50	2.25	2.50	2.25	0.25	2.75	3.00	3.50	3.00	2.75	5.75	4.75	0.00	0.75	-0.270020	0.133301	0.922852	-2.730000	4.620000	1.540000	453.00	0.05	-0.10	4.50	3.25	3.25	3.75	4.75	1.75	0.50	1.25	4.00	3.25	3.00	2.00	4.75	3.50	1.75	2.00	-0.223633	0.139648	0.946289	-3.080000	0.350000	0.070000	536.00	0.00	-0.05
0.96	1.75	2.75	1.50	2.50	2.50	2.25	0.25	2.50	3.25	3.50	2.75	2.50	5.75	5.00	0.00	1.00	-0.272461	0.130859	0.919434	-2.730000	4.690000	1.540000	451.00	0.05	-0.10	4.50	3.50	3.75	3.50	4.75	2.00	0.25	1.00	3.50	3.25	2.75	2.00	4.50	3.75	1.75	2.00	-0.226562	0.136719	0.951660	-3.010000	0.280000	0.140000	526.00	-0.00	-0.05
0.97	1.75	2.75	1.25	2.25	2.50	2.50	0.25	2.50	3.00	3.50	2.75	2.50	5.75	4.75	0.00	1.00	-0.280273	0.131836	0.926758	-2.660000	4.830000	1.540000	442.00	0.05	-0.10	4.75	3.25	3.50	3.75	4.75	2.00	0.50	1.25	3.50	3.25	3.00	2.25	4.75	3.50	1.75	2.25	-0.229492	0.142578	0.948730	-3.080000	0.420000	0.140000	542.00	-0.00	-0.06
0.98	1.75	3.00	1.75	2.25	2.50	2.50	0.25	2.50	3.00	3.75	2.75	2.75	5.75	4.75	0.00	1.00	-0.275391	0.136230	0.911621	-2.660000	4.690000	1.610000	457.00	0.05	-0.10	4.50	3.50	3.50	3.75	4.75	2.00	0.50	1.00	3.50	3.25	3.25	2.00	4.50	3.75	2.00	2.00	-0.225098	0.141602	0.949707	-3.080000	0.280000	0.140000	539.00	0.00	-0.05
0.99	2.00	3.00	1.50	1.75	2.75	2.25	0.25	2.50	3.00	3.50	2.50	2.50	5.75	5.00	0.00	1.00	-0.279297	0.133789	0.925293	-2.590000	4.550000	1.680000	444.00	0.05	-0.10	4.00	3.50	3.25	3.75	4.75	2.00	0.50	1.25	3.50	3.25	2.75	2.00	5.00	3.50	1.75	2.25	-0.223145	0.137207	0.954102	-3.150000	0.070000	0.280000	530.00	0.00	-0.06
1.00	1.75	3.00	1.75	2.50	2.50	2.50	0.25	2.50	3.00	3.50	3.00	2.50	6.00	4.75	0.00	1.00	-0.275879	0.132812	0.920410	-2.590000	4.690000	1.610000	459.00	0.05	-0.10	4.50	3.50	3.50	3.75	4.75	2.00	0.50	1.00	3.50	3.25	2.75	2.00	4.75	3.50	2.00	2.00	-0.223633	0.137207	0.955078	-3.220000	0.070000	0.210000	533.00	-0.00	-0.05
1.01	1.50	3.25	1.50	2.00	2.50	2.25	0.25	2.75	3.25	3.50	3.00	2.50	5.75	4.50	0.00	1.00	-0.270508	0.133301	0.921875	-2.660000	4.690000	1.680000	450.00	0.05	-0.10	4.75	3.50	3.25	3.75	4.50	1.75	0.25	1.00	3.50	3.25	2.75	2.25	4.75	3.50	2.00	2.25	-0.224121	0.137207	0.939941	-3.150000	0.140000	0.140000	527.00	-0.00	-0.06
1.02	1.50	2.75	1.50	2.25	2.50	2.50	0.25	2.50	3.00	3.50	2.75	2.50	5.75	5.00	0.00	0.75	-0.279297	0.137207	0.928223	-2.660000	4.690000	1.540000	443.00	0.05	-0.10	5.00	3.75	3.75	3.75	5.00	1.75	0.50	1.00	3.50	3.50	3.00	2.00	4.50	3.25	2.00	1.75	-0.226562	0.137207	0.950195	-3.150000	0.210000	0.140000	544.00	-0.01	-0.05
1.03	1.50	3.00	1.25	1.75	2.50	2.50	0.25	2.50	3.25	3.50	2.50	2.50	5.75	5.00	0.00	0.75	-0.275391	0.132324	0.923828	-2.660000	4.550000	1.540000	438.00	0.06	-0.10	4.75	3.75	3.75	4.00	5.00	2.00	0.50	1.00	3.50	3.25	2.75	2.00	4.75	3.50	2.00	2.25	-0.225098	0.137207	0.948242	-3.080000	0.070000	0.070000	549.00	-0.01	-0.05
1.04	1.75	2.50	1.25	2.25	2.25	2.50	0.25	2.50	3.25	3.50	2.50	2.75	6.00	4.75	0.00	0.75	-0.274414	0.135254	0.927734	-2.730000	4.620000	1.610000	441.00	0.06	-0.10	4.50	3.50	3.50	3.50	5.00	2.00	0.50	1.00	3.75	3.50	2.75	1.75	4.75	3.50	1.75	2.00	-0.225098	0.136230	0.953613	-3.080000	0.140000	0.140000	534.00	-0.00	-0.05
1.05	1.75	2.75	1.50	2.00	2.50	2.50	0.25	2.50	3.00	3.50	2.75	2.50	5.75	5.00	0.00	1.00	-0.271973	0.133301	0.924805	-2.660000	4.550000	1.610000	445.00	0.05	-0.10	4.50	3.50	3.00	3.75	4.75	2.00	0.50	1.25	3.75	3.50	3.00	2.25	4.75	3.50	1.75	2.00	-0.223145	0.134277	0.949219	-3.150000	0.000000	0.140000	540.00	0.00	-0.06
1.06	2.00	2.50	1.25	2.00	2.50	2.25	0.25	2.50	3.00	3.25	2.75	2.50	5.75	4.75	0.25	1.00	-0.272949	0.136230	0.921875	-2.660000	4.550000	1.610000	437.00	0.06	-0.10	4.75	3.50	3.50	3.75	5.00	2.00	0.50	1.00	3.50	3.25	2.75	2.00	5.00	3.50	1.75	2.00	-0.229980	0.138184	0.950684	-3.220000	0.140000	0.070000	538.00	-0.01	-0.05
1.07	1.75	3.00	1.50	2.50	2.50	2.25	0.25	2.50	3.00	3.50	2.75	2.50	5.75	4.50	0.00	1.00	-0.273438	0.133789	0.923828	-2.660000	4.550000	1.610000	446.00	0.05	-0.10	4.75	3.50	3.50	3.75	5.00	2.00	0.25	1.25	3.75	3.25	2.75	2.00	4.75	3.50	2.00	2.25	-0.225586	0.137207	0.946777	-3.150000	0.140000	0.140000	544.00	-0.00	-0.06
1.08	1.75	3.00	1.25	2.25	2.50	2.25	0.25	2.50	3.25	3.50	2.75	2.50	5.75	4.75	0.00	0.75	-0.275879	0.134766	0.921875	-2.660000	4.480000	1.680000	444.00	0.05	-0.10	4.50	3.75	3.50	4.00	5.00	2.00	0.50	1.00	3.75	3.50	3.00	2.25	4.75	3.75	1.75	2.25	-0.226074	0.140137	0.958496	-3.080000	0.070000	0.210000	555.00	-0.00	-0.05
1.09	2.00	3.00	1.50	2.25	2.50	2.50	0.25	2.50	3.25	3.25	2.75	2.75	5.75	4.50	0.00	1.00	-0.274414	0.130859	0.920410	-2.730000	4.620000	1.610000	452.00	0.04	-0.10	4.50	3.50	3.75	3.75	5.00	2.00	0.50	1.00	3.75	3.25	2.75	0.75	2.50	2.00	0.25	0.75	-0.225586	0.140137	0.950684	-3.150000	0.210000	0.070000	466.00	-0.05	-0.03
1.10	1.75	3.00	1.50	2.00	2.50	2.25	0.25	2.75	3.50	3.25	2.75	2.75	6.00	4.75	0.25	1.00	-0.276367	0.136719	0.927246	-2.800000	4.690000	1.610000	459.00	0.06	-0.10	2.25	2.00	1.75	2.00	3.75	0.25	0.25	0.00	2.00	2.25	1.50	0.25	3.25	1.75	0.50	0.50	-0.225586	0.142578	0.951660	-3.150000	0.210000	0.140000	273.00	-0.01	-0.03
1.11	1.50	2.75	1.50	2.75	2.50	2.25	0.25	2.75	3.25	3.50	2.75	2.50	5.75	5.00	0.00	1.00	-0.274414	0.133789	0.922852	-2.730000	4.760000	1.610000	456.00	0.05	-0.10	2.00	2.00	1.50	1.75	3.50	0.50	0.25	0.00	1.50	1.75	1.75	0.75	2.50	2.00	0.25	0.75	-0.222656	0.137695	0.958984	-2.940000	0.210000	0.070000	254.00	-0.01	-0.04
1.12	2.00	2.75	1.50	2.25	2.75	2.25	0.25	2.50	3.00	3.75	3.00	2.50	5.75	4.50	0.00	0.75	-0.275391	0.133301	0.922852	-2.660000	4.690000	1.540000	450.00	0.05	-0.10	2.25	2.25	1.75	1.75	3.50	0.25	0.25	0.00	1.75	2.00	1.50	0.75	2.50	1.75	0.50	0.75	-0.227051	0.136719	0.944824	-3.080000	0.280000	-0.070000	263.00	-0.02	-0.03
1.13	2.00	3.25	1.50	2.50	2.75	2.50	0.25	2.50	3.25	3.50	2.75	2.25	6.00	4.75	0.00	1.00	-0.271484	0.138672	0.927246	-2.660000	4.550000	1.540000	462.00	0.04	-0.10	2.50	2.25	1.75	2.25	3.50	0.50	0.25	0.25	1.75	2.00	1.75	1.00	2.75	2.00	0.25	0.75	-0.224609	0.137695	0.946289	-3.150000	0.280000	-0.000000	287.00	-0.02	-0.04
1.14	1.75	3.25	1.50	2.25	2.75	2.50	0.25	2.50	3.25	3.75	2.75	2.50	6.00	4.75	0.00	1.00	-0.273438	0.135254	0.918945	-2.660000	4.340000	1.610000	462.00	0.05	-0.10	2.50	2.00	1.75	2.00	3.50	0.50	0.25	0.25	1.75	2.00	1.50	0.50	2.75	1.75	0.25	0.75	-0.226562	0.135742	0.947754	-3.080000	0.210000	0.070000	270.00	-0.03	-0.04
1.15	1.75	3.00	1.75	2.50	2.75	2.50	0.25	2.50	3.50	3.25	3.00	2.50	6.00	4.75	0.25	1.00	-0.278809	0.135254	0.923828	-2.730000	4.410000	1.680000	469.00	0.05	-0.10	2.00	2.25	1.75	2.00	3.50	0.50	0.25	0.00	1.75	2.00	1.75	0.75	2.50	2.00	0.25	0.75	-0.223145	0.139160	0.949219	-3.080000	0.420000	-0.000000	269.00	-0.02	-0.03
1.16	1.75	3.25	1.50	2.25	2.50	2.25	0.25	2.75	3.25	3.50	2.75	2.50	5.75	4.75	0.00	1.00	-0.272949	0.136719	0.923828	-2.730000	4.480000	1.680000	455.00	0.05	-0.10	2.50	2.00	1.50	2.00	3.50	0.50	0.25	0.25	1.75	2.00	1.50	1.00	2.75	2.00	0.50	0.75	-0.223145	0.141602	0.946289	-3.150000	0.490000	-0.000000	278.00	-0.01	-0.04
1.17	2.25	2.50	1.50	2.50	2.75	2.25	0.25	2.25	3.25	3.50	2.75	2.25	6.00	4.75	0.00	1.00	-0.277344	0.131836	0.917480	-2.660000	4.620000	1.540000	451.00	0.05	-0.09	2.50	2.00	1.50	2.00	3.50	0.50	0.25	0.00	1.50	2.00	1.75	0.75	2.50	1.75	0.50	0.75	-0.224609	0.136719	0.946289	-3.220000	0.210000	0.140000	266.00	-0.02	-0.04
1.18	2.00	2.75	1.50	2.25	2.50	2.50	0.25	2.50	3.00	3.50	2.75	2.50	5.75	4.75	0.25	1.00	-0.280273	0.135254	0.922852	-2.590000	4.550000	1.540000	451.00	0.05	-0.10	1.75	2.00	1.75	2.25	3.50	0.50	0.25	0.00	2.00	2.00	1.75	0.50	3.00	2.00	0.50	0.75	-0.226074	0.142090	0.953125	-3.150000	0.140000	0.210000	274.00	-0.00	-0.04
1.19	1.75	2.50	1.50	2.00	2.50	2.75	0.25	2.50	3.00	3.50	2.75	2.75	5.75	4.50	0.00	1.00	-0.274414	0.134766	0.921875	-2.660000	4.480000	1.540000	444.00	0.05	-0.10	2.50	2.00	2.00	2.00	3.50	0.25	0.25	0.25	1.50	2.00	1.50	1.00	2.25	2.00	0.50	0.50	-0.217285	0.138184	0.949707	-3.220000	0.210000	0.140000	271.00	-0.02	-0.03
1.20	1.75	3.25	1.25	2.25	2.50	2.50	0.25	2.50	3.25	3.25	2.75	2.50	5.75	4.75	0.00	0.75	-0.268555	0.131836	0.924805	-2.520000	4.550000	1.540000	447.00	0.05	-0.10	2.25	2.00	1.50	1.75	3.50	0.50	0.25	0.00	1.75	2.25	1.75	1.00	2.75	2.00	0.25	0.50	-0.226562	0.137695	0.945801	-3.150000	0.350000	-0.000000	269.00	-0.01	-0.03
1.21	2.00	3.25	1.75	2.25	2.75	2.75	0.25	2.50	3.00	3.25	2.50	2.50	5.75	4.25	0.25	0.75	-0.272949	0.137695	0.925293	-2.590000	4.620000	1.540000	453.00	0.03	-0.10	2.50	2.00	1.75	2.25	3.25	0.50	0.25	0.25	2.00	2.00	1.50	1.00	2.50	1.75	0.25	0.75	-0.225098	0.140137	0.950684	-3.080000	0.280000	0.070000	277.00	-0.02	-0.04
1.22	2.00	3.00	1.50	2.50	2.75	2.50	0.25	2.75	3.25	3.50	2.75	2.50	5.75	4.50	0.25	1.00	-0.273926	0.129883	0.920410	-2.590000	4.690000	1.540000	465.00	0.04	-0.10	2.50	2.50	1.25	2.25	3.25	0.50	0.25	0.00	1.75	1.75	1.75	0.50	2.75	2.00	0.50	0.50	-0.219727	0.136719	0.952148	-3.150000	0.210000	0.070000	269.00	-0.03	-0.04
1.23	2.25	3.25	1.50	2.75	2.75	2.25	0.25	2.50	3.25	3.50	2.75	2.25	5.75	4.50	0.00	1.00	-0.268555	0.132812	0.923828	-2.590000	4.620000	1.470000	461.00	0.03	-0.10	2.75	2.25	1.50	2.00	3.25	0.50	0.25	0.25	1.75	2.00	1.50	0.75	2.75	1.75	0.50	0.50	-0.221191	0.137695	0.948730	-3.080000	0.490000	-0.140000	274.00	-0.03	-0.04
1.24	2.00	2.50	1.50	2.25	2.75	2.25	0.25	2.75	3.25	3.50	2.75	2.50	5.75	4.50	0.25	1.00	-0.271484	0.133789	0.921875	-2.660000	4.760000	1.470000	454.00	0.05	-0.10	2.50	2.25	1.75	2.00	3.25	0.50	0.25	0.25	1.75	2.00	1.50	0.75	2.50	1.75	0.50	0.50	-0.222656	0.138672	0.947754	-3.010000	0.420000	-0.000000	272.00	-0.03	-0.04
1.25	2.00	3.25	1.75	2.50	2.75	2.50	0.25	2.75	3.00	3.50	2.75	2.50	5.75	4.50	0.00	1.00	-0.273926	0.137207	0.922852	-2.660000	4.760000	1.610000	464.00	0.04	-0.10	2.00	2.25	1.75	1.75	3.25	0.25	0.25	0.25	1.75	2.00	1.75	0.25	2.50	2.00	0.25	0.50	-0.230469	0.140625	0.951660	-3.080000	0.210000	0.140000	256.00	-0.02	-0.03
1.26	2.25	3.00	1.75	2.75	2.75	2.50	0.25	2.75	3.00	3.50	2.75	2.75	6.00	4.50	0.00	1.00	-0.281738	0.135254	0.926270	-2.800000	4.760000	1.680000	473.00	0.03	-0.11	2.25	2.00	2.00	2.00	3.25	0.25	0.25	0.25	2.00	2.00	1.75	0.75	2.50	2.00	0.25	0.75	-0.227539	0.135254	0.948730	-3.150000	0.280000	0.140000	274.00	-0.01	-0.03
1.27	2.00	3.25	1.50	2.75	2.50	2.25	0.25	2.75	3.00	3.50	2.75	2.50	6.00	4.50	0.00	0.75	-0.272461	0.132324	0.921387	-2.590000	4.480000	1.750000	459.00	0.04	-0.11	2.50	2.25	1.75	2.00	3.50	0.50	0.25	0.25	1.75	1.75	1.50	0.75	2.25	2.00	0.50	0.50	-0.224609	0.136719	0.952148	-3.150000	0.210000	0.070000	272.00	-0.03	-0.03
1.28	1.75	3.25	1.50	2.75	2.75	2.50	0.25	2.75	3.00	3.25	2.50	2.50	6.00	4.75	0.00	1.00	-0.275391	0.135254	0.922363	-2.590000	4.410000	1.750000	460.00	0.04	-0.11	2.25	2.00	2.00	2.00	3.50	0.50	0.25	0.25	1.75	1.75	1.75	1.00	2.50	2.00	0.25	0.50	-0.217285	0.138672	0.949707	-3.150000	0.350000	-0.070000	275.00	-0.02	-0.04
1.29	2.25	3.25	1.75	3.00	2.50	2.50	0.25	2.50	3.25	3.50	2.75	2.50	5.75	4.50	0.00	0.75	-0.277344	0.133789	0.922852	-2.590000	4.410000	1.610000	468.00	0.03	-0.10	2.75	2.00	1.75	1.75	3.25	0.50	0.25	0.00	1.75	2.00	1.50	0.75	2.50	1.75	0.50	0.75	-0.222656	0.141113	0.948730	-3.220000	0.280000	0.140000	266.00	-0.02	-0.03
1.30	2.00	3.00	1.50	2.50	2.75	2.75	0.25	2.75	3.00	3.25	2.75	2.75	5.75	4.75	0.00	1.00	-0.274414	0.135254	0.919922	-2.730000	4.550000	1.470000	464.00	0.04	-0.11	2.75	2.25	1.75	2.00	3.25	0.25	0.25	0.00	1.75	2.25	1.75	0.75	2.50	1.75	0.50	0.75	-0.226074	0.135254	0.947754	-3.150000	0.280000	0.210000	274.00	-0.02	-0.03
1.31	2.25	3.00	1.75	2.75	2.75	2.50	0.25	2.75	3.50	3.50	2.75	2.50	5.75	4.50	0.00	1.00	-0.277832	0.137695	0.920410	-2.730000	4.620000	1.610000	475.00	0.04	-0.10	2.50	2.00	1.75	2.00	3.25	0.75	0.25	0.00	1.50	2.00	1.50	0.50	2.50	1.75	0.25	0.75	-0.224609	0.140625	0.946777	-3.220000	0.210000	0.070000	260.00	-0.03	-0.03
1.32	2.25	3.25	2.25	2.25	2.75	2.50	0.25	2.50	3.25	3.50	2.50	2.50	6.00	4.50	0.00	1.00	-0.271484	0.137207	0.924805	-2.730000	4.760000	1.540000	469.00	0.03	-0.10	2.25	2.00	1.50	2.00	3.25	0.25	0.25	0.00	1.75	2.00	1.75	0.50	2.25	1.75	0.50	0.50	-0.222168	0.138672	0.951660	-3.220000	0.350000	0.070000	254.00	-0.02	-0.02
1.33	2.25	3.25	1.75	2.25	2.75	2.50	0.25	2.50	3.25	3.50	2.75	2.50	5.75	4.25	0.25	1.00	-0.274414	0.137207	0.915527	-2.590000	4.690000	1.610000	464.00	0.04	-0.10	2.50	2.00	1.75	1.75	3.25	0.25	0.25	0.00	1.75	2.00	1.50	0.75	2.25	1.75	0.00	0.75	-0.227539	0.135254	0.955078	-3.290000	0.350000	0.140000	252.00	-0.03	-0.02
1.34	1.75	3.00	1.50	2.50	2.75	2.25	0.25	2.50	3.00	3.50	2.50	2.75	5.75	4.50	0.00	1.00	-0.279785	0.134766	0.926758	-2.520000	4.620000	1.680000	449.00	0.04	-0.10	2.00	1.75	1.50	1.75	3.25	0.25	0.25	0.00	1.75	2.00	1.50	1.00	1.50	1.75	0.00	0.75	-0.218750	0.138184	0.958008	-3.150000	0.350000	0.070000	237.00	-0.01	-0.01
1.35	2.25	3.25	1.50	2.50	2.75	2.50	0.25	2.50	3.00	3.50	2.75	2.25	6.00	4.75	0.25	1.00	-0.272949	0.134277	0.919922	-2.660000	4.760000	1.610000	464.00	0.04	-0.10	1.75	2.00	1.50	1.50	3.00	0.25	0.25	0.00	1.75	2.00	1.50	0.75	2.25	1.50	0.25	0.50	-0.225586	0.137207	0.947266	-3.220000	0.490000	0.070000	234.00	-0.01	-0.03
1.36	2.50	3.25	1.50	2.75	2.50	2.50	0.25	2.50	3.25	3.25	2.50	2.75	5.75	4.50	0.25	1.25	-0.274414	0.131836	0.920410	-2.730000	4.830000	1.680000	468.00	0.03	-0.10	1.75	1.75	1.25	1.75	3.25	0.25	0.25	0.00	1.50	2.00	1.50	0.75	2.25	1.75	0.25	0.50	-0.226074	0.137695	0.951172	-3.080000	0.350000	0.070000	233.00	-0.01	-0.03
1.37	2.00	3.00	1.50	2.50	2.75	2.75	0.25	2.50	3.00	3.25	2.75	2.25	5.75	4.25	0.00	1.00	-0.270508	0.135254	0.924316	-2.590000	4.830000	1.680000	449.00	0.03	-0.10	1.50	1.75	1.25	1.50	3.00	0.25	0.25	0.00	1.50	2.00	1.50	0.50	2.00	1.75	0.00	0.50	-0.226074	0.141113	0.955078	-3.220000	0.350000	0.140000	216.00	-0.00	-0.02
1.38	2.00	3.25	1.75	2.50	2.50	2.50	0.25	2.75	3.00	3.25	2.75	2.75	5.75	4.25	0.00	1.00	-0.278809	0.133301	0.920410	-2.590000	4.830000	1.610000	459.00	0.03	-0.11	2.00	1.75	1.25	1.50	3.25	0.00	0.25	0.00	1.50	2.00	1.50	0.50	2.50	1.50	0.25	0.75	-0.225586	0.134766	0.945312	-3.150000	0.630000	0.140000	228.00	-0.01	-0.03
1.39	2.25	3.00	1.50	2.50	2.75	2.50	0.25	2.50	3.00	3.25	2.50	2.50	5.75	4.50	0.00	0.75	-0.273926	0.134277	0.919434	-2.730000	4.900000	1.540000	450.00	0.03	-0.10	1.25	1.50	1.00	1.25	2.75	0.00	0.25	0.00	1.75	2.00	1.75	0.75	1.75	2.00	0.25	1.00	-0.229004	0.138184	0.944336	-3.080000	0.420000	0.140000	214.00	0.04	-0.01
1.40	2.00	4.00	1.50	2.75	2.75	2.50	0.50	2.50	3.25	3.25	2.75	2.50	5.75	4.25	0.00	0.75	-0.275879	0.132812	0.919434	-2.730000	4.900000	1.400000	469.00	0.03	-0.10	1.75	1.75	1.00	1.50	3.25	0.25	0.25	0.00	2.00	2.50	1.50	0.75	2.25	2.00	0.50	1.00	-0.224609	0.141602	0.945801	-3.220000	0.420000	-0.000000	248.00	0.03	-0.02
1.41	2.25	3.00	1.25	2.00	2.50	2.50	0.25	2.50	3.00	3.50	2.75	2.25	5.75	4.50	0.00	1.00	-0.271973	0.127930	0.923340	-2.730000	5.040000	1.470000	442.00	0.04	-0.10	4.75	3.50	3.75	3.50	4.25	1.75	0.25	1.25	3.75	3.00	2.75	2.00	4.50	3.50	2.00	2.00	-0.223145	0.140625	0.952148	-3.080000	0.350000	-0.000000	525.00	-0.00	-0.05
1.42	2.25	3.00	1.50	2.50	2.50	2.25	0.25	2.50	2.75	3.25	2.75	2.50	5.50	4.50	0.00	0.75	-0.271484	0.130371	0.920410	-2.590000	4.760000	1.540000	441.00	0.03	-0.10	4.00	3.25	3.25	3.75	4.25	2.00	0.50	1.00	3.50	3.25	2.75	2.00	4.50	3.50	1.75	2.00	-0.228516	0.142578	0.945801	-3.080000	0.420000	-0.000000	511.00	0.00	-0.06
1.43	2.00	3.50	1.75	2.25	2.75	2.50	0.25	2.50	3.00	3.25	2.75	2.50	6.00	4.50	0.00	1.00	-0.272949	0.139648	0.916992	-2.520000	4.760000	1.680000	459.00	0.03	-0.10	1.00	1.75	0.75	1.50	3.25	1.50	0.50	1.00	3.50	3.25	2.75	2.00	4.50	3.50	1.75	2.00	-0.226562	0.135254	0.943848	-3.080000	0.420000	0.280000	386.00	0.10	-0.07
1.44	2.00	3.50	1.75	2.75	2.75	2.50	0.25	2.50	3.00	3.25	2.50	2.25	6.00	4.50	0.00	1.00	-0.281738	0.136230	0.917480	-2.590000	5.040000	1.610000	459.00	0.03	-0.10	3.75	2.75	2.00	1.50	3.00	0.00	0.25	0.00	1.50	1.75	1.50	0.75	1.75	1.50	0.25	0.75	-0.233398	0.134277	0.945312	-3.080000	0.490000	0.070000	258.00	-0.07	-0.01
1.45	2.00	3.50	1.75	2.50	2.50	2.50	0.25	2.50	2.75	3.25	2.75	2.50	5.75	4.50	0.00	1.00	-0.274414	0.133301	0.922852	-2.520000	5.040000	1.610000	453.00	0.03	-0.11	4.75	3.50	3.50	4.00	5.00	2.00	0.50	1.00	3.50	3.25	3.00	2.00	4.75	3.50	1.75	2.00	-0.227539	0.136719	0.949707	-3.150000	0.490000	-0.000000	542.00	-0.01	-0.05
1.46	2.25	3.25	1.75	2.50	2.75	2.50	0.25	2.50	3.00	3.25	2.50	2.50	5.75	4.25	0.00	0.75	-0.275391	0.135742	0.928711	-2.520000	5.040000	1.540000	453.00	0.03	-0.10	4.75	3.50	3.50	3.75	5.00	2.00	0.50	1.00	3.75	3.25	2.75	1.75	4.75	3.75	1.75	2.00	-0.224609	0.142578	0.950195	-3.150000	0.420000	-0.000000	539.00	-0.01	-0.05
1.47	2.00	3.25	1.50	2.50	2.50	2.50	0.25	2.50	2.75	3.00	2.75	2.25	5.75	4.50	0.00	1.00	-0.271973	0.129395	0.930664	-2.520000	5.040000	1.610000	442.00	0.03	-0.11	4.50	3.50	3.50	4.00	5.00	2.00	0.50	1.00	3.50	3.25	3.00	2.00	4.75	3.75	1.75	2.00	-0.225098	0.135742	0.952148	-3.150000	0.420000	0.070000	541.00	-0.00	-0.05
1.48	2.00	3.75	1.75	2.50	2.50	2.50	0.25	2.75	3.00	3.25	2.75	2.25	6.00	4.00	0.25	1.00	-0.272461	0.136230	0.923340	-2.520000	5.110000	1.610000	461.00	0.03	-0.11	4.50	3.50	3.75	4.00	5.00	1.75	0.50	1.00	3.50	3.25	2.75	2.00	4.50	3.50	2.00	2.00	-0.227051	0.136719	0.945312	-3.150000	0.350000	0.140000	537.00	-0.01	-0.05
1.49	2.00	3.00	1.50	2.50	2.50	2.50	0.25	2.75	3.00	3.50	2.75	2.50	5.75	4.00	0.00	0.75	-0.278809	0.134766	0.919922	-2.590000	5.110000	1.610000	450.00	0.04	-0.11	4.75	3.50	3.25	3.50	5.00	2.00	0.50	1.00	3.75	3.00	2.75	1.75	4.50	3.25	1.75	2.00	-0.225098	0.138184	0.952148	-3.220000	0.490000	-0.000000	523.00	-0.01	-0.05
1.50	2.00	3.25	1.75	2.50	2.50	2.25	0.25	2.50	3.25	3.50	2.50	2.50	5.75	4.25	0.00	1.25	-0.277832	0.132324	0.920410	-2.660000	4.830000	1.540000	454.00	0.04	-0.10	4.75	3.75	3.50	3.75	4.75	1.75	0.50	1.00	3.50	3.25	2.75	2.25	4.50	3.25	1.75	2.00	-0.221680	0.136719	0.953125	-3.150000	0.560000	0.140000	531.00	-0.01	-0.05
1.51	2.25	3.25	1.75	2.75	2.75	2.50	0.25	2.50	3.00	3.50	2.50	2.50	5.75	4.25	0.00	1.00	-0.276367	0.136230	0.924805	-2.660000	4.900000	1.610000	461.00	0.03	-0.10	4.75	3.75	3.50	3.75	5.00	2.00	0.50	1.00	3.50	3.00	2.75	1.75	4.75	3.50	2.00	2.00	-0.222656	0.138184	0.953125	-3.080000	0.420000	0.070000	536.00	-0.01	-0.05
1.52	2.25	3.50	1.50	2.50	2.75	2.25	0.25	2.75	2.75	3.25	2.50	2.50	5.75	4.50	0.00	1.00	-0.273926	0.134766	0.915527	-2.730000	4.900000	1.540000	454.00	0.03	-0.11	4.50	3.50	3.75	3.75	5.00	2.00	0.50	1.00	3.50	3.25	2.75	2.25	4.50	3.25	1.75	2.00	-0.223633	0.136230	0.944336	-3.150000	0.350000	-0.000000	534.00	-0.01	-0.05
1.53	2.50	3.25	1.75	2.50	2.50	2.75	0.25	2.50	3.00	3.50	2.50	2.25	5.75	4.25	0.00	0.75	-0.272461	0.136230	0.920898	-2.660000	4.900000	1.540000	456.00	0.02	-0.10	4.25	3.50	3.50	3.75	5.00	1.75	0.50	1.00	3.50	3.25	3.00	2.25	4.75	3.25	2.00	2.00	-0.223145	0.142090	0.952637	-3.080000	0.280000	0.070000	534.00	-0.00	-0.06
1.54	2.25	3.75	1.75	2.75	2.50	2.50	0.25	2.75	3.00	3.25	2.50	2.50	5.75	4.00	0.00	1.00	-0.275879	0.135742	0.921875	-2.660000	5.040000	1.610000	462.00	0.02	-0.11	4.50	3.50	3.75	3.75	5.00	2.00	0.50	1.00	3.50	3.00	2.75	2.25	4.50	3.50	2.00	2.00	-0.229004	0.144531	0.952637	-3.150000	0.280000	0.210000	537.00	-0.01	-0.05
1.55	2.25	3.00	1.75	2.75	2.50	2.25	0.25	2.50	3.00	3.25	2.50	2.50	5.75	4.25	0.00	1.00	-0.273926	0.135742	0.916992	-2.520000	4.760000	1.750000	449.00	0.03	-0.10	5.00	3.50	3.75	3.75	4.75	1.75	0.50	1.25	3.75	3.25	2.75	2.00	4.75	3.25	1.75	2.00	-0.228027	0.138672	0.952637	-3.150000	0.280000	0.070000	541.00	-0.01	-0.05
1.56	2.25	3.25	1.75	2.75	2.50	2.50	0.25	2.50	3.00	3.25	2.50	2.50	5.75	4.25	0.00	1.00	-0.276367	0.134277	0.920898	-2.660000	4.970000	1.680000	455.00	0.03	-0.10	4.50	3.75	3.50	3.50	5.00	2.00	0.50	1.00	3.50	3.00	2.75	2.00	4.25	3.25	1.50	2.00	-0.228027	0.142578	0.953125	-3.220000	0.280000	-0.070000	520.00	-0.01	-0.05
1.57	1.75	3.50	1.50	3.00	2.50	2.50	0.25	2.50	3.00	3.00	2.50	2.50	5.75	3.75	0.00	0.75	-0.277344	0.126953	0.919922	-2.520000	4.970000	1.680000	443.00	0.02	-0.11	4.25	3.50	3.50	3.75	5.00	2.00	0.50	1.00	3.25	3.00	2.50	2.00	4.75	3.50	1.75	2.00	-0.219727	0.134277	0.943359	-3.220000	0.280000	-0.000000	521.00	-0.01	-0.06
1.58	2.25	3.50	1.75	2.75	2.50	2.25	0.25	2.25	3.00	3.25	2.50	2.50	5.75	3.75	0.00	0.75	-0.274414	0.134277	0.921875	-2.590000	5.110000	1.540000	444.00	0.02	-0.10	4.50	3.50	3.75	3.75	5.00	2.00	0.50	1.25	3.25	3.00	3.00	1.75	4.25	3.25	1.75	2.00	-0.226562	0.137695	0.947754	-3.150000	0.280000	-0.000000	527.00	-0.01	-0.05
1.59	1.75	4.00	1.75	2.75	2.50	2.25	0.25	2.25	3.00	3.25	2.75	2.25	5.50	3.75	0.00	1.00	-0.276855	0.129395	0.918457	-2.590000	5.040000	1.610000	443.00	0.02	-0.10	5.00	3.75	3.75	3.75	5.00	2.25	0.50	1.25	3.25	3.25	2.75	2.00	4.50	3.50	1.75	2.00	-0.225586	0.142090	0.953613	-3.150000	0.280000	0.140000	546.00	-0.02	-0.06
1.60	2.25	3.25	1.50	3.00	2.75	2.25	0.25	2.50	3.00	3.25	2.50	2.50	5.75	4.00	0.00	0.75	-0.275391	0.135742	0.921387	-2.660000	4.970000	1.610000	451.00	0.02	-0.10	5.00	3.25	3.50	4.00	5.00	2.00	0.50	1.00	3.50	3.25	2.75	1.75	4.50	3.50	2.00	1.75	-0.227051	0.135742	0.948242	-3.290000	0.350000	-0.000000	535.00	-0.01	-0.05
1.61	2.25	3.00	1.75	2.75	2.50	2.50	0.25	2.25	2.75	3.50	2.25	2.50	5.50	4.00	0.00	1.00	-0.279785	0.132812	0.921875	-2.590000	4.900000	1.540000	440.00	0.03	-0.10	4.25	3.50	3.50	3.50	4.75	1.25	0.25	0.00	1.50	1.75	1.25	0.50	1.75	1.50	0.00	0.50	-0.227051	0.138184	0.951660	-3.220000	0.210000	0.070000	339.00	-0.12	-0.02
1.62	2.50	4.25	2.00	2.50	2.75	2.50	0.25	2.25	3.00	3.25	2.50	2.50	5.75	3.50	0.00	0.75	-0.274414	0.128906	0.922852	-2.520000	4.900000	1.470000	458.00	0.01	-0.10	3.50	1.75	1.00	1.25	3.25	0.00	0.25	0.00	2.00	2.00	1.75	0.75	1.75	1.75	0.00	0.75	-0.226074	0.140137	0.947266	-3.290000	0.420000	0.210000	245.00	-0.02	0.00
1.63	2.25	3.25	1.75	2.50	2.50	2.25	0.25	2.50	3.00	3.25	2.50	2.25	5.50	3.75	0.00	0.75	-0.279785	0.138672	0.918457	-2.450000	4.760000	1.610000	438.00	0.02	-0.10	4.50	3.25	2.75	2.50	3.25	0.00	0.25	0.00	2.50	2.50	1.75	0.75	2.25	2.00	1.00	1.00	-0.223145	0.136230	0.952148	-3.150000	0.490000	-0.000000	340.00	-0.05	-0.01
1.64	2.25	3.25	1.50	2.50	2.50	2.50	0.25	2.50	3.00	3.25	2.50	2.50	5.50	3.50	0.00	0.75	-0.269531	0.128906	0.923828	-2.730000	4.620000	1.540000	438.00	0.02	-0.11	1.50	1.50	1.00	1.25	3.25	0.50	0.25	0.50	2.00	1.75	1.25	0.75	1.50	1.50	0.00	0.25	-0.222656	0.138672	0.949707	-3.220000	0.490000	0.070000	218.00	-0.00	-0.02
1.65	2.25	3.25	1.75	2.75	2.50	2.50	0.25	2.25	3.00	3.25	2.75	2.50	5.50	3.50	0.00	1.00	-0.274414	0.136719	0.924805	-2.730000	4.760000	1.470000	444.00	0.02	-0.10	2.25	1.75	1.25	1.75	3.25	0.00	0.25	0.00	1.25	1.75	1.25	0.25	2.00	1.75	0.50	1.50	-0.227539	0.141602	0.955566	-3.220000	0.280000	0.070000	227.00	-0.02	-0.02
1.66	2.50	3.50	2.25	2.75	2.50	2.25	0.25	2.25	3.00	3.25	2.50	2.25	5.50	3.75	0.00	1.00	-0.273438	0.129883	0.919434	-2.730000	4.830000	1.610000	449.00	0.01	-0.10	3.75	2.25	0.75	1.50	3.00	0.00	0.25	0.00	1.25	1.75	1.50	0.50	2.00	1.50	0.00	0.50	-0.224609	0.138672	0.957520	-3.150000	0.350000	0.070000	229.00	-0.06	-0.02
1.67	2.50	3.75	1.75	3.25	2.50	2.50	0.50	2.25	3.00	3.00	2.75	2.00	5.50	3.50	0.00	0.75	-0.274902	0.136719	0.928223	-2.590000	4.900000	1.680000	452.00	0.01	-0.10	2.25	1.75	1.25	2.00	3.25	0.25	0.25	0.00	1.50	2.00	1.50	0.50	2.25	1.75	0.00	0.50	-0.226562	0.139160	0.944824	-3.150000	0.280000	0.140000	236.00	-0.03	-0.02
1.68	2.75	4.25	1.75	3.00	2.50	2.50	0.25	2.25	3.00	3.25	2.25	2.50	5.75	3.50	0.25	0.75	-0.268555	0.134766	0.927246	-2.730000	4.900000	1.610000	461.00	0.00	-0.10	2.50	1.75	0.75	1.50	3.00	0.00	0.25	0.00	1.50	1.75	1.50	0.50	2.00	1.50	0.00	0.50	-0.220215	0.133301	0.946777	-3.220000	0.210000	0.140000	213.00	-0.02	-0.02
1.69	2.50	3.75	1.75	3.00	2.50	2.50	0.25	2.25	3.00	3.25	2.50	2.25	5.75	3.75	0.00	1.00	-0.280762	0.130859	0.921387	-2.870000	5.110000	1.540000	454.00	0.01	-0.10	4.75	3.75	3.50	4.00	5.00	2.00	0.50	1.00	3.25	3.25	2.75	1.75	4.50	3.50	2.00	2.00	-0.225098	0.141602	0.945801	-3.150000	0.140000	0.140000	536.00	-0.01	-0.05
1.70	2.25	3.75	1.75	2.75	2.50	2.25	0.25	2.25	3.25	3.25	2.50	2.50	5.50	3.50	0.00	1.00	-0.279297	0.129395	0.914551	-2.730000	4.900000	1.610000	447.00	0.02	-0.10	4.75	3.75	4.00	4.00	5.00	1.75	0.50	1.00	3.25	3.25	2.75	1.75	4.50	3.50	2.00	1.75	-0.220215	0.137695	0.953125	-3.150000	0.210000	0.210000	537.00	-0.02	-0.05
1.71	2.50	4.00	1.75	3.25	2.50	2.50	0.25	2.25	3.00	3.25	2.50	2.25	5.75	3.75	0.00	0.75	-0.270996	0.131348	0.926270	-2.590000	4.760000	1.680000	458.00	0.01	-0.10	5.00	3.75	3.50	3.75	5.00	1.75	0.50	1.00	3.25	3.25	2.75	2.00	4.25	3.50	1.75	2.00	-0.224121	0.136230	0.954102	-3.220000	0.210000	0.210000	530.00	-0.01	-0.05
1.72	2.25	4.00	1.75	3.00	2.50	2.50	0.25	2.25	3.00	3.25	2.50	2.25	5.75	3.00	0.00	0.75	-0.278809	0.140137	0.918945	-2.730000	4.760000	1.540000	445.00	0.01	-0.11	4.50	3.75	3.25	4.00	4.75	2.00	0.50	1.25	3.25	3.00	2.75	2.00	4.50	3.50	1.75	2.00	-0.228516	0.145020	0.950195	-3.290000	0.140000	0.210000	528.00	-0.01	-0.06
1.73	2.75	4.00	1.75	2.75	2.75	2.25	0.25	2.25	3.25	3.25	2.50	2.25	5.50	3.50	0.00	0.75	-0.272949	0.134277	0.925781	-2.800000	4.690000	1.540000	454.00	0.01	-0.10	5.00	4.00	3.75	4.00	4.50	2.00	0.50	1.00	3.25	3.25	2.50	1.75	4.50	3.50	1.75	2.00	-0.226562	0.141602	0.944824	-3.360000	0.210000	0.140000	532.00	-0.02	-0.05
1.74	2.25	3.75	2.00	2.75	2.50	2.25	0.25	2.25	3.00	3.25	2.50	2.25	5.50	3.50	0.00	1.00	-0.270020	0.134766	0.918945	-2.800000	4.550000	1.540000	444.00	0.01	-0.10	4.75	4.00	3.50	4.00	5.00	2.00	0.50	1.00	3.25	3.00	2.50	2.00	4.25	3.50	1.75	2.00	-0.226562	0.134766	0.950684	-3.220000	0.000000	0.210000	530.00	-0.02	-0.05
1.75	2.50	3.25	2.00	2.75	2.50	2.50	0.25	2.25	3.25	3.25	2.50	2.25	5.75	3.75	0.00	0.75	-0.272949	0.130859	0.921387	-2.730000	4.690000	1.610000	451.00	0.02	-0.10	4.75	4.00	3.75	4.00	4.75	2.00	0.50	1.00	3.50	3.25	2.75	2.00	4.50	3.25	1.50	2.00	-0.225586	0.138672	0.950195	-3.220000	0.140000	0.070000	537.00	-0.02	-0.05
1.76	2.50	3.50	1.75	3.00	2.50	2.50	0.25	2.50	3.00	3.00	2.75	2.00	5.50	3.25	0.00	0.75	-0.275879	0.134277	0.920898	-2.660000	4.620000	1.610000	444.00	0.01	-0.11	5.00	4.00	3.50	4.00	4.75	2.00	0.50	1.25	3.25	3.00	2.75	1.75	4.00	3.50	2.00	2.00	-0.223633	0.140137	0.949219	-3.220000	0.350000	-0.140000	535.00	-0.02	-0.05
1.77	2.50	3.75	2.00	2.75	2.50	2.50	0.25	2.25	3.50	3.25	2.25	2.25	5.50	3.25	0.00	0.75	-0.274902	0.136230	0.915039	-2.730000	4.690000	1.610000	450.00	0.01	-0.10	5.00	4.00	3.75	4.00	4.75	2.00	0.50	1.00	3.50	3.25	2.50	1.75	4.50	3.25	2.00	2.25	-0.226074	0.140137	0.948242	-3.290000	0.140000	0.140000	541.00	-0.02	-0.05
1.78	2.25	4.00	1.75	2.75	2.50	2.50	0.25	2.25	2.75	3.25	2.25	2.00	5.75	3.25	0.25	0.75	-0.274414	0.135742	0.914551	-2.660000	4.690000	1.540000	438.00	0.01	-0.11	5.00	4.00	3.75	4.00	5.00	2.00	0.50	1.00	3.25	3.25	2.75	1.75	4.00	3.50	2.00	1.75	-0.227051	0.138184	0.949707	-3.290000	0.210000	0.140000	538.00	-0.02	-0.05
1.79	2.25	4.00	1.75	3.00	2.50	2.50	0.25	2.25	3.00	3.25	2.50	2.25	5.50	3.50	0.00	1.00	-0.278809	0.133301	0.922852	-2.660000	4.760000	1.540000	449.00	0.01	-0.10	5.00	3.75	3.75	4.00	5.00	1.75	0.50	1.00	3.75	2.75	2.75	2.00	4.50	3.25	1.75	2.00	-0.222168	0.136230	0.948242	-3.290000	0.210000	0.210000	538.00	-0.02	-0.05
1.80	2.25	3.75	1.75	2.75	2.50	2.25	0.50	2.25	3.00	3.25	2.25	2.00	5.75	3.25	0.00	0.75	-0.279297	0.138672	0.925293	-2.520000	4.830000	1.680000	437.00	0.01	-0.10	4.75	3.75	3.75	4.00	4.75	1.75	0.50	1.25	3.25	3.00	2.50	1.75	4.50	3.25	1.75	1.75	-0.225586	0.136230	0.953125	-3.150000	0.070000	0.280000	524.00	-0.02	-0.06
1.81	2.50	4.00	1.50	2.75	2.50	2.50	0.50	2.00	2.75	3.25	2.50	2.25	5.25	3.50	0.00	0.75	-0.272461	0.127930	0.923828	-2.590000	4.760000	1.610000	438.00	0.01	-0.10	5.00	3.50	3.75	4.00	4.75	2.00	0.50	1.00	3.50	3.00	2.75	1.75	4.25	3.25	1.50	1.75	-0.228027	0.137695	0.952637	-3.150000	0.140000	0.280000	525.00	-0.02	-0.05
1.82	2.25	4.00	1.50	3.00	2.75	2.25	0.25	2.00	3.00	3.00	2.50	2.25	5.50	3.25	0.00	0.75	-0.274414	0.130859	0.925293	-2.660000	4.900000	1.610000	435.00	0.01	-0.10	5.00	4.25	4.00	4.25	4.75	2.00	0.50	1.00	3.50	2.75	2.50	1.75	4.25	3.25	1.50	1.75	-0.227539	0.134277	0.951660	-3.220000	0.280000	0.210000	533.00	-0.03	-0.05
1.83	2.25	3.75	2.25	2.75	2.50	2.25	0.25	2.25	2.75	3.00	2.50	2.25	5.50	3.25	0.00	1.00	-0.279297	0.132812	0.932617	-2.520000	4.690000	1.680000	438.00	0.01	-0.11	5.00	4.00	3.50	4.00	4.50	1.50	0.25	0.00	1.25	2.25	2.50	1.75	4.00	3.50	1.75	2.00	-0.229004	0.134277	0.950195	-3.220000	0.420000	0.140000	458.00	-0.04	-0.06
1.84	2.50	3.75	1.75	2.75	2.50	2.50	0.25	2.00	2.75	3.25	2.50	2.25	5.50	3.25	0.00	0.75	-0.273926	0.133789	0.919434	-2.660000	4.620000	1.610000	435.00	0.01	-0.10	5.00	4.00	3.75	4.25	4.75	2.25	0.50	1.00	3.00	2.75	2.50	1.75	4.00	3.25	1.50	1.75	-0.225586	0.139160	0.954590	-3.080000	0.280000	0.140000	521.00	-0.04	-0.05
1.85	2.25	3.75	1.50	3.00	2.50	2.25	0.25	2.25	2.75	3.25	2.25	2.25	5.50	3.25	0.00	0.75	-0.270996	0.132812	0.923828	-2.660000	4.550000	1.540000	430.00	0.01	-0.11	5.00	4.25	3.75	4.00	4.50	2.00	0.50	1.00	3.00	2.75	2.50	1.75	4.25	3.50	1.75	1.75	-0.224121	0.139648	0.950684	-3.220000	0.280000	0.210000	522.00	-0.03	-0.05
1.86	2.00	3.75	2.00	2.75	2.50	2.25	0.25	2.25	3.00	3.00	2.50	2.50	5.50	3.25	0.00	1.00	-0.275879	0.128906	0.919922	-2.660000	4.620000	1.610000	439.00	0.01	-0.11	5.25	4.25	4.00	4.00	4.75	2.00	0.50	1.00	3.25	3.00	2.25	1.75	4.50	3.25	1.75	1.75	-0.224609	0.137695	0.955078	-3.150000	0.210000	0.140000	534.00	-0.03	-0.05
1.87	2.50	4.00	1.75	2.50	2.50	2.25	0.25	2.00	3.25	3.25	2.25	2.25	5.75	3.25	0.00	0.75	-0.278320	0.135742	0.918457	-2.660000	4.550000	1.540000	438.00	0.01	-0.10	3.25	4.00	3.75	4.25	4.50	2.00	0.50	0.75	2.25	1.75	1.00	0.50	1.75	1.25	0.25	0.50	-0.228027	0.139160	0.952148	-3.080000	0.490000	-0.070000	375.00	-0.11	-0.04
1.88	2.50	3.75	1.75	2.75	2.50	2.50	0.25	2.25	3.00	3.25	2.25	2.25	5.50	3.25	0.00	0.75	-0.271484	0.139648	0.916992	-2.730000	4.690000	1.470000	440.00	0.01	-0.10	2.50	2.00	1.25	2.00	3.25	0.00	0.25	0.00	1.50	1.50	1.25	0.25	2.00	1.25	0.00	0.50	-0.223633	0.136230	0.944824	-3.220000	0.350000	-0.000000	220.00	-0.06	-0.02
1.89	2.50	4.00	2.00	2.75	2.50	2.50	0.25	2.00	3.00	3.25	2.50	2.25	5.50	3.50	0.00	1.00	-0.277832	0.130859	0.919922	-2.660000	4.620000	1.610000	448.00	0.01	-0.10	5.25	4.25	3.75	4.25	5.00	2.00	0.50	1.00	3.00	2.75	2.25	1.75	4.00	3.25	1.75	1.75	-0.228516	0.136230	0.943848	-3.220000	0.420000	-0.000000	526.00	-0.04	-0.05
1.90	2.25	4.00	2.00	2.75	2.50	2.50	0.25	2.00	2.75	3.00	2.50	2.25	5.25	3.25	0.00	1.00	-0.276367	0.129883	0.918457	-2.590000	4.690000	1.540000	434.00	0.00	-0.10	5.00	4.25	3.75	4.25	4.75	2.00	0.50	1.00	3.00	3.00	2.25	1.25	1.75	1.75	0.75	1.50	-0.223145	0.136230	0.943359	-3.220000	0.350000	-0.000000	469.00	-0.07	-0.04
1.91	2.25	4.25	1.75	2.75	2.50	2.25	0.25	2.25	2.75	3.25	2.50	2.25	5.50	3.50	0.00	0.75	-0.274414	0.132812	0.926758	-2.590000	4.620000	1.540000	441.00	0.01	-0.11	3.25	2.75	2.00	2.25	3.25	0.50	0.25	0.00	1.25	1.50	1.00	0.75	1.25	1.50	0.00	0.50	-0.222656	0.140625	0.944824	-3.220000	0.420000	0.210000	249.00	-0.10	-0.02
1.92	2.75	4.00	1.25	3.00	2.50	2.25	0.25	2.25	3.00	3.25	2.50	2.25	5.50	3.25	0.00	0.75	-0.276855	0.136230	0.924316	-2.590000	4.760000	1.540000	442.00	0.01	-0.10	2.75	2.75	2.00	2.50	3.25	0.50	0.25	0.00	1.25	1.75	1.75	1.00	3.25	3.25	1.75	2.00	-0.227051	0.137207	0.947266	-3.220000	0.210000	0.210000	324.00	0.01	-0.05
1.93	2.50	4.00	2.00	3.00	2.50	2.50	0.25	2.25	2.50	3.25	2.25	2.25	5.75	3.00	0.00	1.00	-0.276855	0.136230	0.924316	-2.590000	4.760000	1.540000	443.00	-0.00	-0.11	3.75	2.75	2.00	2.50	3.50	0.50	0.25	0.00	1.25	1.50	1.00	0.25	2.00	1.50	0.00	0.25	-0.228516	0.138672	0.954102	-3.150000	0.140000	0.280000	260.00	-0.11	-0.02
1.94	2.50	3.75	1.75	2.75	2.50	2.25	0.25	2.25	2.75	3.25	2.25	2.25	5.50	3.00	0.00	0.75	-0.275879	0.139648	0.923340	-2.590000	4.760000	1.470000	431.00	0.00	-0.11	3.25	2.50	1.50	2.25	3.25	0.25	0.25	0.00	1.50	1.75	1.00	0.25	2.00	1.75	0.00	0.50	-0.224609	0.138672	0.947266	-3.220000	0.280000	0.140000	247.00	-0.07	-0.02
1.95	2.25	3.50	1.75	3.00	2.50	2.50	0.25	2.25	3.00	3.00	2.50	2.25	5.50	3.00	0.00	1.00	-0.275879	0.132324	0.925293	-2.660000	4.760000	1.610000	437.00	0.01	-0.11	3.00	2.75	1.50	2.25	3.25	0.00	0.25	0.00	1.25	2.00	1.50	1.00	2.25	2.00	1.00	1.00	-0.224609	0.144531	0.948242	-3.080000	0.420000	0.140000	277.00	-0.03	-0.04
1.96	2.25	4.00	2.00	2.75	2.50	2.25	0.25	2.25	3.00	3.00	2.25	2.25	5.75	3.00	0.00	0.50	-0.272461	0.134277	0.918945	-2.660000	4.760000	1.540000	435.00	0.00	-0.11	4.25	3.75	3.25	4.25	4.25	2.00	0.50	1.00	3.25	3.00	2.25	1.75	4.00	3.25	1.75	1.50	-0.224121	0.142090	0.953125	-3.010000	0.280000	0.280000	499.00	-0.02	-0.05
1.97	2.25	4.00	1.75	3.00	2.25	2.25	0.25	2.00	2.75	3.00	2.50	2.25	5.50	3.50	0.00	1.00	-0.274414	0.139648	0.920410	-2.660000	4.760000	1.610000	433.00	0.01	-0.11	5.00	3.25	3.25	4.00	4.25	2.00	0.50	0.50	1.25	1.25	1.00	0.50	2.25	1.50	0.25	0.25	-0.221680	0.142090	0.954590	-3.150000	0.350000	0.140000	357.00	-0.13	-0.05
1.98	2.50	4.00	1.75	2.75	2.50	2.50	0.25	2.25	3.00	3.25	2.50	2.00	5.50	3.50	0.00	1.00	-0.279297	0.133301	0.920898	-2.660000	4.760000	1.610000	446.00	0.01	-0.10	3.25	2.75	2.00	2.50	3.25	0.75	0.25	0.00	1.25	1.50	1.00	0.50	2.25	1.50	0.25	0.50	-0.219238	0.141113	0.946289	-3.150000	0.420000	0.070000	264.00	-0.09	-0.04
1.99	2.50	4.00	2.00	2.75	2.50	2.00	0.25	2.50	3.00	3.25	2.50	2.00	5.25	3.25	0.00	0.75	-0.275879	0.136719	0.923340	-2.590000	4.690000	1.610000	441.00	0.00	-0.10	3.50	2.75	1.75	2.50	3.25	0.50	0.25	0.00	1.50	1.50	1.25	0.50	2.25	1.50	0.25	0.25	-0.227051	0.138672	0.941895	-3.150000	0.350000	0.070000	266.00	-0.08	-0.03
2.00	2.50	4.00	2.00	2.75	2.50	2.25	0.25	2.00	3.25	3.25	2.25	2.25	5.50	3.25	0.00	0.75	-0.273438	0.139160	0.921875	-2.590000	4.690000	1.610000	442.00	0.01	-0.09	3.00	2.75	2.25	2.50	3.25	0.50	0.25	0.25	1.50	1.75	1.00	0.25	2.50	1.25	0.25	0.50	-0.226562	0.139160	0.955078	-3.080000	0.210000	0.210000	269.00	-0.08	-0.04
2.01	3.00	4.25	1.75	2.75	2.50	2.25	0.25	2.25	3.25	3.00	2.50	2.25	5.50	3.25	0.00	1.00	-0.278320	0.137207	0.913574	-2.520000	4.550000	1.540000	453.00	0.00	-0.10	3.50	2.75	2.00	2.75	3.25	0.25	0.25	0.00	1.50	1.50	1.00	0.25	2.25	1.50	0.50	0.25	-0.223145	0.141113	0.951660	-3.220000	0.140000	0.140000	266.00	-0.09	-0.02
2.02	2.50	4.00	1.75	3.25	2.75	2.50	0.25	2.00	2.75	3.25	2.50	2.00	5.50	3.25	0.00	0.50	-0.278320	0.133789	0.922852	-2.590000	4.550000	1.470000	442.00	-0.00	-0.10	3.25	2.75	1.75	2.50	3.00	0.50	0.25	0.00	1.25	1.50	1.00	0.25	2.25	1.50	0.25	0.75	-0.226074	0.139160	0.951660	-3.220000	0.070000	0.070000	254.00	-0.09	-0.04
2.03	2.25	3.75	1.75	2.75	2.50	2.25	0.50	2.25	3.00	3.00	2.25	2.25	5.50	3.00	0.00	1.00	-0.274414	0.136230	0.917969	-2.800000	4.690000	1.470000	434.00	0.01	-0.10	3.50	2.75	2.00	2.50	3.00	0.50	0.00	0.00	1.25	1.50	1.25	0.25	2.00	1.50	0.25	0.25	-0.225098	0.135742	0.952148	-3.150000	0.140000	0.210000	253.00	-0.10	-0.03
2.04	2.25	4.00	1.75	2.75	2.25	2.25	0.25	2.00	2.50	3.25	2.50	2.00	5.50	3.25	0.00	0.75	-0.277344	0.133789	0.923340	-2.660000	4.550000	1.610000	422.00	0.01	-0.11	3.50	2.75	2.00	2.25	3.25	0.75	0.25	0.00	1.50	1.50	1.00	0.50	2.25	1.50	0.00	0.25	-0.223145	0.139160	0.951660	-3.080000	0.070000	0.070000	263.00	-0.09	-0.03
2.05	2.50	3.75	1.75	2.75	2.50	2.50	0.25	2.25	3.00	3.25	2.50	2.00	5.50	3.25	0.00	1.00	-0.278320	0.138184	0.925781	-2.730000	4.620000	1.540000	441.00	0.01	-0.10	3.50	3.00	2.00	2.75	3.00	0.25	0.25	0.00	1.25	1.75	1.00	0.25	2.00	1.50	0.25	0.25	-0.223633	0.141113	0.946777	-3.080000	0.140000	-0.000000	259.00	-0.10	-0.02
2.06	2.50	3.75	2.00	2.75	2.50	2.25	0.25	2.00	3.00	3.25	2.50	2.25	5.50	3.50	0.00	0.75	-0.278320	0.136230	0.919922	-2.660000	4.480000	1.610000	441.00	0.01	-0.10	3.75	2.75	2.25	2.50	3.25	0.50	0.25	0.00	1.25	1.50	1.00	0.25	2.25	1.50	0.25	0.50	-0.225586	0.136719	0.953125	-3.150000	0.210000	0.140000	267.00	-0.10	-0.03
2.07	2.00	3.75	2.00	3.00	2.50	2.25	0.25	2.00	3.00	3.25	2.25	2.25	5.50	3.25	0.00	0.75	-0.280762	0.131348	0.917480	-2.660000	4.620000	1.540000	433.00	0.01	-0.10	3.50	3.00	2.00	2.75	3.25	0.50	0.25	0.00	1.25	1.50	1.00	0.25	2.25	1.50	0.25	0.75	-0.220703	0.141113	0.954102	-3.080000	0.000000	0.210000	268.00	-0.10	-0.03
2.08	2.25	4.25	1.75	2.50	2.50	2.50	0.25	2.00	2.75	3.25	2.25	2.25	5.50	3.00	0.00	1.00	-0.278320	0.131836	0.927734	-2.590000	4.550000	1.540000	430.00	0.00	-0.11	3.50	2.75	2.00	2.75	3.25	0.25	0.25	0.00	1.50	1.50	1.00	0.25	2.25	1.25	0.25	0.50	-0.224609	0.139648	0.952148	-3.150000	0.210000	0.140000	262.00	-0.10	-0.03
2.09	2.75	4.00	2.00	3.00	2.50	2.50	0.25	2.00	2.75	3.25	2.50	2.25	5.50	3.25	0.00	1.00	-0.278809	0.137207	0.918945	-2.660000	4.760000	1.470000	448.00	-0.00	-0.10	3.75	2.75	2.00	2.75	3.25	0.75	0.25	0.00	1.00	1.50	1.25	0.25	2.00	1.50	0.25	0.25	-0.226562	0.141113	0.951660	-3.080000	0.140000	0.070000	265.00	-0.11	-0.03
2.10	2.75	4.00	1.75	2.75	2.50	2.25	0.25	2.00	2.75	3.00	2.25	2.25	5.25	3.25	0.00	1.00	-0.270020	0.139160	0.916504	-2.590000	4.690000	1.540000	431.00	0.00	-0.10	3.50	3.00	2.25	2.75	3.25	0.75	0.25	0.00	1.50	1.50	1.25	0.25	2.25	1.25	0.25	0.50	-0.220215	0.136719	0.952637	-3.080000	0.070000	0.070000	277.00	-0.10	-0.03
2.11	2.25	3.75	2.00	2.75	2.50	2.25	0.25	2.25	2.75	3.25	2.25	2.25	5.50	3.50	0.00	0.75	-0.279297	0.138184	0.926270	-2.520000	4.690000	1.470000	436.00	0.01	-0.10	3.50	3.00	2.00	2.75	3.00	0.50	0.25	0.00	1.50	1.50	1.00	0.25	2.00	1.50	0.50	0.50	-0.227051	0.135742	0.949707	-3.290000	0.350000	-0.000000	268.00	-0.09	-0.03
2.12	2.50	4.00	2.00	2.75	2.75	2.00	0.25	2.25	3.00	3.50	2.25	2.25	5.50	3.25	0.00	1.00	-0.274414	0.134766	0.924805	-2.660000	4.620000	1.470000	447.00	0.01	-0.10	3.50	3.00	2.25	2.50	3.25	0.50	0.25	0.00	1.50	1.50	1.50	0.25	1.75	1.75	0.00	0.50	-0.223145	0.132812	0.954590	-3.080000	0.210000	0.070000	271.00	-0.09	-0.02
2.13	2.50	3.75	1.75	3.00	2.50	2.00	0.25	2.00	2.75	3.25	2.25	2.25	5.50	3.25	0.00	1.00	-0.278809	0.133789	0.920898	-2.590000	4.550000	1.680000	431.00	0.01	-0.10	3.25	3.00	2.25	2.50	3.25	0.75	0.25	0.00	1.25	1.50	1.00	0.25	2.50	1.50	0.00	0.50	-0.221191	0.142090	0.949219	-3.080000	0.280000	0.140000	266.00	-0.10	-0.04
2.14	2.50	3.75	2.00	2.75	2.50	2.25	0.25	2.25	3.00	3.25	2.50	2.25	5.25	3.00	0.00	0.75	-0.280273	0.133301	0.923340	-2.590000	4.550000	1.610000	438.00	0.00	-0.10	3.50	3.00	2.00	2.75	3.25	0.50	0.25	0.00	1.50	1.50	1.25	0.25	2.25	1.50	0.00	0.25	-0.229004	0.139160	0.950195	-3.080000	0.280000	0.140000	269.00	-0.10	-0.03
2.15	2.25	3.75	1.75	3.00	2.75	2.25	0.25	2.00	3.25	3.25	2.25	2.00	5.50	3.25	0.00	0.75	-0.274414	0.133789	0.918457	-2.380000	4.340000	1.610000	436.00	0.01	-0.10	3.50	2.75	2.25	2.75	3.25	0.75	0.25	0.00	1.00	1.50	1.25	0.25	2.25	1.50	0.25	0.50	-0.223633	0.141113	0.949707	-3.010000	0.210000	0.140000	269.00	-0.10	-0.04
2.16	2.25	3.50	1.75	2.75	2.50	2.50	0.25	2.00	3.00	3.25	2.25	2.25	5.50	3.25	0.00	1.00	-0.272461	0.132324	0.922363	-2.590000	4.480000	1.540000	432.00	0.01	-0.10	3.75	3.25	2.00	2.75	3.25	0.50	0.25	0.00	1.25	1.50	1.25	0.50	2.25	1.50	0.25	0.50	-0.222656	0.135254	0.942871	-3.080000	0.000000	0.140000	278.00	-0.10	-0.04
2.17	2.50	4.00	1.75	3.00	2.50	2.25	0.25	2.25	3.00	3.25	2.50	2.25	5.25	3.25	0.00	1.00	-0.271973	0.133789	0.919922	-2.660000	4.760000	1.470000	444.00	0.01	-0.10	3.25	3.00	2.50	2.75	3.00	0.50	0.25	0.00	1.75	1.50	1.25	0.50	2.00	1.50	0.00	0.50	-0.223633	0.139648	0.943848	-3.150000	0.140000	0.070000	274.00	-0.09	-0.02
2.18	2.50	4.00	2.00	2.75	2.50	2.50	0.25	2.00	3.25	3.25	2.50	2.25	5.50	3.25	0.00	1.00	-0.274414	0.136230	0.921875	-2.660000	4.690000	1.610000	449.00	0.01	-0.10	3.50	3.00	2.00	2.50	3.25	0.75	0.25	0.00	1.25	1.50	1.00	0.50	2.00	1.50	0.00	0.50	-0.224609	0.136230	0.949707	-3.220000	0.140000	-0.000000	264.00	-0.10	-0.03
2.19	2.75	4.25	2.00	3.00	2.50	2.25	0.25	2.25	2.75	3.25	2.50	2.25	5.50	3.25	0.00	1.00	-0.273926	0.135742	0.914551	-2.730000	4.690000	1.540000	451.00	-0.00	-0.10	3.25	3.00	2.50	2.75	3.00	0.50	0.25	0.00	1.25	1.50	1.25	0.50	2.25	1.50	0.25	0.00	-0.227051	0.138184	0.948242	-3.080000	0.140000	0.140000	269.00	-0.10	-0.03
2.20	2.50	3.75	2.00	2.75	2.50	2.00	0.25	2.25	3.00	3.25	2.25	2.25	5.50	3.50	0.00	0.75	-0.276855	0.138184	0.917969	-2.730000	4.690000	1.540000	439.00	0.01	-0.10	3.25	3.00	2.25	3.00	3.25	0.75	0.25	0.00	1.25	1.50	1.25	0.50	2.00	1.50	0.25	0.50	-0.226074	0.137207	0.955078	-3.150000	0.280000	0.140000	276.00	-0.10	-0.04
2.21	2.75	4.00	1.75	3.00	2.50	2.25	0.25	2.00	2.75	3.25	2.25	2.25	5.50	3.50	0.00	0.75	-0.277832	0.138184	0.926758	-2.800000	4.550000	1.540000	440.00	0.00	-0.10	3.75	3.00	2.50	2.75	3.25	0.75	0.25	0.25	1.00	1.50	1.00	0.25	2.00	1.50	0.00	0.50	-0.223145	0.139648	0.953613	-2.940000	0.210000	0.210000	274.00	-0.12	-0.04
2.22	2.50	3.75	2.00	2.75	2.50	2.50	0.25	2.25	2.75	3.25	2.25	2.25	5.50	3.25	0.00	1.00	-0.276855	0.133789	0.924316	-2.730000	4.620000	1.540000	441.00	0.00	-0.11	3.75	3.00	2.25	2.50	3.25	0.50	0.25	0.00	1.25	1.50	1.25	0.50	1.75	1.25	0.00	0.50	-0.219727	0.137695	0.947754	-3.080000	0.210000	0.210000	265.00	-0.11	-0.03
2.23	2.50	3.75	1.75	3.00	2.75	2.25	0.25	2.25	3.00	3.25	2.25	2.00	5.50	3.25	0.00	0.50	-0.270996	0.135742	0.921875	-2.730000	4.480000	1.610000	438.00	0.00	-0.10	3.50	3.00	2.00	2.50	3.00	0.50	0.25	0.00	1.25	1.25	1.25	0.50	2.25	1.50	0.25	0.50	-0.227051	0.135254	0.950684	-3.080000	0.210000	0.070000	263.00	-0.09	-0.04
2.24	3.00	3.75	2.00	2.75	2.75	2.25	0.25	2.00	2.75	3.25	2.50	2.25	5.50	3.25	0.00	0.75	-0.271484	0.134766	0.932129	-2.730000	4.410000	1.610000	444.00	-0.00	-0.10	3.50	3.00	2.00	2.75	3.25	0.50	0.25	0.00	1.00	1.50	1.00	0.50	2.00	1.50	0.00	0.50	-0.224609	0.140625	0.948730	-3.080000	0.490000	-0.000000	261.00	-0.11	-0.04
2.25	2.25	4.00	1.50	2.75	2.50	2.25	0.25	2.00	2.75	3.00	2.25	2.25	5.50	3.25	0.00	0.75	-0.277344	0.134277	0.927734	-2.800000	4.410000	1.540000	423.00	0.01	-0.11	3.50	3.25	2.00	2.50	3.25	0.75	0.25	0.00	1.50	1.50	1.25	0.25	2.00	1.50	0.00	0.25	-0.229492	0.136230	0.949707	-3.220000	0.210000	0.140000	269.00	-0.10	-0.03
2.26	2.75	4.00	2.00	3.25	2.75	2.50	0.50	2.00	2.75	3.00	2.25	2.25	5.50	3.25	0.00	0.75	-0.275391	0.129883	0.923340	-2.660000	4.550000	1.610000	451.00	-0.01	-0.10	3.50	3.00	2.25	3.00	3.00	0.50	0.25	0.00	1.00	1.50	1.25	0.50	2.25	1.50	0.25	0.50	-0.227051	0.139160	0.950195	-3.080000	0.210000	0.210000	272.00	-0.10	-0.04
2.27	2.75	4.00	2.00	3.00	2.50	2.25	0.25	2.00	2.75	3.25	2.50	2.25	5.50	3.25	0.00	0.75	-0.275391	0.135254	0.925781	-2.660000	4.620000	1.610000	443.00	-0.00	-0.10	3.50	3.25	2.00	2.75	3.00	0.50	0.25	0.25	1.25	1.50	1.25	0.25	2.50	1.50	0.00	0.50	-0.224609	0.142090	0.952637	-3.150000	0.210000	0.070000	272.00	-0.10	-0.04
2.28	3.00	4.00	2.00	3.00	2.50	2.50	0.25	2.00	3.00	3.25	2.50	2.00	5.50	3.25	0.00	1.00	-0.278320	0.137207	0.919434	-2.590000	4.550000	1.610000	451.00	-0.00	-0.10	3.50	3.25	2.25	2.50	3.00	0.50	0.25	0.00	1.50	1.50	1.25	0.50	2.25	1.50	0.25	0.25	-0.225586	0.142578	0.953613	-3.080000	0.210000	0.070000	274.00	-0.09	-0.03
2.29	2.50	4.00	1.75	2.75	2.50	2.25	0.25	2.00	3.00	3.00	2.25	2.25	5.25	3.25	0.00	0.75	-0.273438	0.129883	0.922852	-2.870000	4.620000	1.610000	430.00	0.00	-0.10	3.50	3.25	2.00	2.50	3.25	0.50	0.25	0.25	1.50	1.50	1.00	0.00	2.00	1.25	0.00	0.25	-0.224609	0.139648	0.952637	-3.150000	0.350000	-0.000000	262.00	-0.11	-0.03
2.30	2.50	4.00	1.50	2.75	2.50	2.25	0.25	2.25	3.00	3.25	2.50	2.25	5.25	3.00	0.00	0.75	-0.278320	0.135742	0.919922	-2.800000	4.340000	1.610000	434.00	0.01	-0.10	3.75	3.00	2.00	2.50	3.00	0.50	0.25	0.00	1.25	1.50	1.00	0.25	2.00	1.50	0.25	0.50	-0.229492	0.140625	0.955078	-3.220000	0.350000	-0.070000	261.00	-0.10	-0.03
2.31	2.75	3.50	1.75	3.25	2.50	2.25	0.25	2.25	3.00	3.25	2.25	2.25	5.50	3.25	0.00	1.00	-0.274414	0.131348	0.926270	-3.010000	4.480000	1.540000	445.00	0.01	-0.10	3.25	3.25	2.50	2.50	3.25	0.50	0.25	0.00	1.25	1.50	1.00	0.50	2.25	1.50	0.25	0.50	-0.223633	0.134277	0.952148	-3.220000	0.350000	-0.000000	272.00	-0.10	-0.03
2.32	2.25	4.25	2.00	3.25	2.75	2.50	0.25	2.00	2.75	3.25	2.25	2.25	5.50	3.00	0.00	0.75	-0.277832	0.130371	0.926758	-2.800000	4.130000	1.680000	444.00	-0.01	-0.11	4.00	3.00	2.00	2.50	3.00	0.50	0.25	0.00	1.25	1.50	1.25	0.25	2.00	1.25	0.00	0.50	-0.223145	0.138184	0.950684	-3.220000	0.280000	-0.000000	261.00	-0.11	-0.03
2.33	2.75	4.50	2.00	3.25	2.75	2.25	0.50	2.25	3.00	3.25	2.50	2.50	5.50	3.00	0.00	1.00	-0.274414	0.129395	0.930176	-2.940000	4.200000	1.540000	468.00	-0.01	-0.10	3.50	3.00	1.75	2.50	3.25	0.75	0.00	0.00	1.25	1.50	1.00	0.25	2.00	1.50	0.25	0.50	-0.223145	0.136719	0.950684	-3.220000	0.350000	-0.000000	257.00	-0.10	-0.04
2.34	3.00	4.25	1.75	3.00	2.50	2.50	0.25	2.00	3.00	3.25	2.25	2.00	5.50	3.25	0.00	0.75	-0.277832	0.133301	0.920410	-3.010000	4.060000	1.610000	446.00	-0.01	-0.10	3.50	3.25	2.00	2.50	3.00	0.50	0.25	0.00	1.50	1.75	1.00	0.50	2.50	1.50	0.00	0.50	-0.225586	0.137695	0.950684	-3.220000	0.280000	0.070000	272.00	-0.09	-0.03
2.35	2.75	4.50	1.75	3.50	2.75	2.50	0.25	2.50	3.25	3.25	2.25	2.25	5.50	3.25	0.00	0.75	-0.276855	0.131348	0.919922	-3.010000	4.130000	1.610000	470.00	-0.01	-0.10	3.25	3.25	2.00	2.50	3.00	0.75	0.25	0.25	1.25	1.50	1.00	0.25	2.50	1.50	0.25	0.50	-0.228516	0.136230	0.956543	-3.220000	0.210000	0.070000	270.00	-0.09	-0.05
2.36	3.00	4.25	2.25	3.25	2.75	2.50	0.25	2.50	2.75	3.25	2.25	2.00	5.50	3.25	0.00	0.75	-0.271973	0.128418	0.924805	-3.080000	3.710000	1.540000	463.00	-0.01	-0.10	3.75	3.00	2.25	2.50	3.25	0.75	0.25	0.00	1.50	1.75	1.25	0.25	2.25	1.75	0.00	0.50	-0.224609	0.137207	0.956543	-3.220000	0.210000	0.140000	281.00	-0.09	-0.02
2.37	2.75	4.25	2.00	3.50	2.75	2.50	0.25	2.25	2.75	2.75	2.25	2.25	5.50	3.25	0.25	0.75	-0.278809	0.124512	0.924316	-3.080000	3.570000	1.610000	456.00	-0.01	-0.11	3.25	3.00	2.25	2.50	3.50	0.75	0.25	0.25	1.25	1.50	1.25	0.50	2.00	1.25	0.25	0.50	-0.224121	0.136719	0.948242	-3.080000	0.420000	-0.000000	275.00	-0.10	-0.04
2.38	3.25	5.00	2.25	3.75	2.75	2.75	0.25	2.25	3.25	2.75	2.25	2.25	5.50	3.25	0.25	0.75	-0.282715	0.133789	0.921875	-3.360000	3.500000	1.680000	486.00	-0.02	-0.10	3.50	3.00	2.25	2.50	3.25	0.75	0.25	0.00	1.25	1.75	1.25	0.50	2.00	1.50	0.25	0.25	-0.228516	0.143066	0.951660	-3.150000	0.280000	0.070000	274.00	-0.09	-0.03
2.39	3.50	5.00	2.25	3.75	2.75	3.00	0.25	2.25	2.50	3.25	2.25	2.00	5.50	3.00	0.00	0.75	-0.273926	0.128906	0.922363	-3.430000	3.850000	1.680000	478.00	-0.03	-0.11	3.50	3.00	2.25	2.75	3.25	0.50	0.25	0.00	1.25	1.75	1.25	0.50	2.25	1.50	0.00	0.25	-0.224121	0.139648	0.955078	-3.080000	0.210000	0.140000	274.00	-0.10	-0.03
2.40	3.50	5.25	2.50	4.00	3.00	3.00	0.25	2.50	2.50	3.25	2.00	2.00	5.50	2.75	0.00	0.75	-0.272949	0.134277	0.924316	-3.570000	4.340000	1.750000	489.00	-0.04	-0.11	3.50	3.00	2.25	2.50	3.25	0.75	0.25	0.00	1.25	1.50	1.25	0.25	2.00	1.25	0.25	0.25	-0.227539	0.136230	0.950684	-3.080000	0.070000	0.350000	266.00	-0.11	-0.03
2.41	3.75	5.25	2.50	4.25	3.00	3.00	0.25	2.00	2.50	2.75	2.25	2.00	5.00	3.00	0.00	0.75	-0.272949	0.133301	0.924316	-3.640000	4.480000	1.890000	481.00	-0.05	-0.10	3.25	2.75	2.00	2.50	3.00	0.50	0.25	0.25	1.25	1.50	1.25	0.25	2.00	1.50	0.25	0.50	-0.221191	0.139160	0.946777	-3.220000	0.210000	0.210000	260.00	-0.09	-0.04
2.42	4.25	5.50	2.25	4.75	3.00	3.25	0.50	2.25	2.50	2.75	2.00	1.75	5.50	2.75	0.00	0.75	-0.279785	0.133789	0.922363	-3.570000	4.480000	1.820000	500.00	-0.06	-0.11	3.50	3.00	1.75	2.50	3.00	0.75	0.25	0.00	1.25	1.50	1.00	0.25	2.00	1.25	0.25	0.25	-0.225586	0.137695	0.949707	-3.220000	0.210000	0.140000	254.00	-0.11	-0.03
2.43	4.50	5.75	2.50	5.00	3.00	3.25	0.25	2.25	2.50	2.75	2.00	2.00	5.25	3.00	0.00	0.50	-0.276855	0.136230	0.928711	-3.430000	4.410000	1.890000	509.00	-0.06	-0.10	3.50	2.75	2.00	2.75	3.00	0.50	0.25	0.00	1.25	1.50	1.00	0.25	2.00	1.25	0.25	0.25	-0.224609	0.138184	0.950684	-3.150000	0.280000	-0.000000	255.00	-0.11	-0.03
2.44	5.00	6.25	2.75	5.25	3.00	3.25	0.25	2.25	2.75	2.75	1.75	2.00	5.50	2.50	0.00	0.50	-0.278809	0.130371	0.921387	-3.150000	4.130000	1.960000	524.00	-0.08	-0.10	3.50	3.00	2.25	2.50	3.25	0.75	0.25	0.00	1.50	1.50	1.00	0.25	2.25	1.50	0.25	0.50	-0.226562	0.138184	0.956055	-3.220000	0.420000	-0.070000	273.00	-0.10	-0.03
2.45	5.00	6.50	2.25	5.25	3.00	2.75	0.25	1.75	2.25	2.75	2.25	1.75	5.25	2.50	0.00	0.50	-0.275391	0.133789	0.919434	-3.080000	3.920000	1.820000	499.00	-0.08	-0.10	3.25	3.00	2.00	2.50	3.00	0.50	0.25	0.00	1.25	1.25	1.25	0.25	1.75	1.25	0.25	0.50	-0.229004	0.142578	0.954590	-3.220000	0.350000	-0.000000	251.00	-0.10	-0.03
2.46	5.00	7.25	3.25	5.50	3.00	3.75	0.25	2.25	2.50	2.50	2.00	2.00	5.25	2.50	0.00	0.50	-0.277832	0.135742	0.921875	-2.870000	3.850000	1.820000	543.00	-0.09	-0.11	3.00	3.00	2.25	2.75	3.00	0.50	0.25	0.00	1.25	1.50	1.25	0.50	2.00	1.50	0.00	0.25	-0.226074	0.143066	0.944336	-3.220000	0.210000	0.140000	260.00	-0.10	-0.03
2.47	5.50	8.00	3.25	5.75	3.25	4.00	0.50	2.50	2.25	2.75	1.75	1.75	5.25	2.50	0.00	0.75	-0.272949	0.133301	0.923828	-2.800000	4.270000	1.820000	569.00	-0.10	-0.11	3.25	3.00	2.00	2.75	3.00	0.75	0.25	0.00	1.25	1.50	1.00	0.50	2.00	1.50	0.25	0.50	-0.222168	0.138672	0.949707	-3.220000	0.210000	0.070000	264.00	-0.10	-0.04
2.48	5.75	8.25	3.00	5.75	3.00	4.00	0.25	2.50	2.25	2.75	2.00	1.75	5.25	2.00	0.00	0.75	-0.272949	0.134766	0.927734	-2.660000	4.480000	1.820000	562.00	-0.11	-0.11	3.50	3.00	2.00	2.50	3.25	0.50	0.25	0.00	1.25	1.50	1.00	0.25	2.00	1.25	0.25	0.75	-0.228027	0.137207	0.949707	-3.150000	0.280000	0.070000	260.00	-0.10	-0.03
2.49	6.50	8.75	3.25	6.00	3.00	4.25	0.25	2.50	2.50	2.50	1.75	1.75	5.25	2.25	0.00	0.75	-0.277344	0.134277	0.926758	-2.520000	4.690000	1.820000	585.00	-0.11	-0.11	3.00	3.25	2.25	2.50	3.25	0.50	0.25	0.00	1.25	1.25	1.00	0.50	2.00	1.50	0.25	0.50	-0.228516	0.138184	0.947754	-3.220000	0.140000	0.140000	261.00	-0.10	-0.03
2.50	6.75	9.00	3.25	6.25	3.25	4.25	0.25	2.50	2.50	2.50	1.75	1.75	4.75	2.00	0.00	0.50	-0.273926	0.129883	0.922363	-2.450000	5.110000	1.820000	588.00	-0.12	-0.11	3.25	3.00	2.25	2.75	3.25	0.50	0.25	0.00	1.50	1.50	1.25	0.50	2.50	1.50	0.25	0.50	-0.227051	0.137207	0.956543	-3.010000	0.070000	0.140000	278.00	-0.08	-0.04
2.51	7.00	9.25	3.50	6.75	3.00	4.75	0.50	2.50	2.25	2.75	1.50	1.50	5.25	2.00	0.00	0.25	-0.278809	0.134277	0.918945	-2.310000	5.250000	1.960000	606.00	-0.13	-0.11	3.25	3.00	2.25	2.75	3.25	0.75	0.25	0.00	1.25	1.75	1.00	0.50	2.00	1.25	0.00	0.50	-0.226074	0.139160	0.952148	-3.080000	0.210000	0.140000	268.00	-0.10	-0.04
2.52	8.00	9.75	4.00	7.00	3.00	4.75	0.50	2.50	2.00	2.50	1.75	1.50	5.00	1.75	0.00	0.50	-0.274414	0.132812	0.922852	-2.310000	5.600000	1.890000	625.00	-0.14	-0.11	3.50	3.00	2.50	3.00	3.25	0.50	0.25	0.00	1.50	1.25	1.00	0.50	2.25	1.50	0.00	0.50	-0.222656	0.133789	0.954590	-3.010000	0.350000	0.210000	276.00	-0.11	-0.03
2.53	8.25	10.00	3.75	7.50	3.00	4.75	0.50	2.50	2.25	2.25	1.50	1.50	5.00	1.75	0.00	0.75	-0.274414	0.132812	0.922852	-2.310000	5.600000	1.890000	632.00	-0.15	-0.11	3.50	3.25	2.00	2.75	3.25	0.50	0.25	0.00	1.25	1.50	1.00	0.25	2.25	1.25	0.00	0.50	-0.224121	0.139648	0.950684	-3.150000	0.490000	0.070000	264.00	-0.11	-0.04
2.54	8.00	10.25	4.00	7.50	3.00	4.75	0.50	2.50	2.25	2.25	1.75	1.50	5.00	1.75	0.00	0.50	-0.272949	0.137207	0.921875	-2.380000	5.600000	1.820000	636.00	-0.15	-0.11	3.50	3.00	2.00	2.75	3.25	0.75	0.25	0.00	1.25	1.50	1.00	0.50	2.25	1.50	0.00	0.50	-0.225586	0.143066	0.954590	-3.150000	0.350000	0.070000	269.00	-0.10	-0.04
2.55	8.75	10.50	4.00	7.50	3.00	5.00	0.25	2.50	2.25	2.50	1.75	1.50	5.00	1.75	0.00	0.50	-0.277344	0.131836	0.920410	-2.520000	5.180000	1.820000	649.00	-0.15	-0.11	3.75	3.25	2.25	2.75	3.00	0.50	0.25	0.00	1.25	1.50	1.00	0.50	2.00	1.50	0.25	0.75	-0.224121	0.143555	0.956543	-3.150000	0.420000	0.070000	274.00	-0.10	-0.03
2.56	8.75	10.50	4.00	7.50	3.00	5.00	0.50	2.50	2.00	2.50	1.50	1.75	5.00	1.50	0.00	0.50	-0.268555	0.132324	0.912109	-2.590000	4.970000	1.680000	647.00	-0.15	-0.11	3.00	2.75	1.75	1.75	3.00	0.25	0.25	0.00	1.50	1.50	1.25	0.25	1.75	1.25	0.00	0.50	-0.222656	0.137207	0.951172	-3.010000	0.700000	0.140000	234.00	-0.08	-0.01
2.57	9.00	10.50	4.00	7.50	3.00	4.75	0.50	2.50	2.25	2.50	1.50	1.25	5.00	2.00	0.00	0.50	-0.274902	0.131348	0.916016	-2.800000	4.410000	1.680000	650.00	-0.15	-0.10	5.00	4.25	2.25	1.50	3.00	0.00	0.25	0.00	1.25	1.25	1.00	0.00	1.25	1.75	0.00	0.50	-0.224121	0.138184	0.957520	-3.080000	0.560000	0.210000	259.00	-0.14	0.01
2.58	9.00	11.00	4.25	7.75	3.25	5.00	0.50	2.50	2.25	2.25	1.75	1.50	5.00	1.50	0.00	0.50	-0.277344	0.128418	0.925293	-2.800000	4.060000	1.680000	665.00	-0.16	-0.10	2.50	2.50	1.25	1.75	3.25	0.50	0.25	1.00	3.25	2.75	2.00	1.50	3.75	3.00	1.50	1.75	-0.228027	0.139648	0.945801	-3.080000	0.630000	0.070000	364.00	0.05	-0.05
2.59	9.00	10.75	4.00	7.50	3.00	5.00	0.25	2.50	2.50	2.50	1.50	1.25	5.00	1.75	0.00	0.50	-0.275879	0.135254	0.929688	-2.940000	4.060000	1.610000	652.00	-0.15	-0.10	4.50	4.25	4.00	4.50	4.00	0.00	0.25	0.00	2.25	2.75	1.25	0.50	1.50	1.25	0.00	0.25	-0.225586	0.137695	0.949219	-3.080000	0.700000	0.070000	359.00	-0.12	-0.01
2.60	9.00	10.75	4.00	7.50	3.00	5.00	0.50	2.75	2.00	2.50	1.75	1.75	5.25	1.50	0.00	0.50	-0.270996	0.126953	0.918945	-2.870000	4.200000	1.540000	662.00	-0.15	-0.11	2.25	2.00	1.25	1.75	2.75	0.25	0.25	0.00	1.25	1.50	0.75	0.25	2.25	1.50	0.25	0.25	-0.225586	0.141113	0.951660	-3.080000	0.630000	0.140000	208.00	-0.05	-0.03
2.61	9.00	10.50	3.75	7.75	3.00	5.00	0.50	2.50	2.25	2.50	1.75	1.50	5.25	1.50	0.00	0.50	-0.277832	0.123535	0.917969	-2.800000	4.270000	1.470000	656.00	-0.15	-0.11	3.25	3.00	2.25	2.75	3.00	0.50	0.25	0.00	1.25	1.50	1.00	0.50	2.25	1.25	0.25	0.25	-0.225098	0.142090	0.955078	-2.940000	0.770000	-0.000000	263.00	-0.10	-0.04
2.62	8.75	10.75	4.00	7.50	3.00	5.00	0.50	2.75	2.50	2.50	2.00	1.75	5.25	2.00	0.00	1.00	-0.278320	0.135254	0.920410	-2.730000	4.200000	1.470000	677.00	-0.14	-0.11	3.00	3.25	2.50	2.50	3.00	0.50	0.25	0.00	1.50	1.50	1.00	0.25	2.00	1.25	0.25	0.50	-0.227539	0.138672	0.957520	-3.080000	1.050000	-0.000000	262.00	-0.10	-0.03
2.63	8.50	10.50	4.00	7.50	3.00	5.00	0.50	2.75	2.25	2.50	1.75	1.75	5.25	1.50	0.00	0.50	-0.281250	0.132812	0.921387	-2.520000	4.200000	1.680000	657.00	-0.15	-0.11	3.25	3.00	2.00	2.50	3.00	0.75	0.25	0.00	1.00	1.50	1.25	0.25	2.00	1.50	0.00	0.50	-0.224121	0.141113	0.943848	-2.730000	1.330000	0.070000	255.00	-0.10	-0.04
2.64	8.75	10.25	3.75	7.75	3.00	5.00	0.50	3.00	2.00	2.50	1.75	1.75	5.25	1.75	0.00	0.50	-0.269043	0.126953	0.921387	-2.520000	4.480000	1.540000	661.00	-0.15	-0.11	3.75	2.75	1.75	2.50	3.00	0.50	0.25	0.00	1.00	1.25	0.75	0.25	2.00	1.25	0.25	0.25	-0.226562	0.137695	0.957520	-2.590000	1.470000	0.140000	242.00	-0.12	-0.03
2.65	8.75	10.25	4.00	7.50	3.00	5.00	0.50	2.75	2.25	2.75	1.75	1.50	5.50	1.75	0.00	0.75	-0.274414	0.137695	0.922363	-2.450000	4.550000	1.400000	664.00	-0.14	-0.11	3.25	2.50	1.75	2.25	2.75	0.50	0.25	0.00	1.25	1.25	0.75	0.00	2.00	1.00	0.00	0.25	-0.229004	0.138672	0.949219	-2.380000	1.680000	0.140000	224.00	-0.12	-0.03
2.66	8.25	10.00	3.75	7.75	3.00	5.00	0.50	3.00	2.00	2.75	2.00	2.00	5.25	1.50	0.00	0.50	-0.272461	0.138672	0.918945	-2.520000	4.340000	1.540000	659.00	-0.14	-0.12	3.50	3.00	2.00	2.50	3.00	0.50	0.25	0.00	1.00	1.25	0.75	0.25	1.50	1.00	0.25	0.50	-0.228516	0.142090	0.945801	-2.380000	1.470000	0.210000	239.00	-0.13	-0.03
2.67	7.75	9.75	3.75	7.50	3.00	5.00	0.50	3.00	2.50	2.75	2.00	1.75	5.00	1.75	0.00	0.50	-0.277344	0.141113	0.924316	-2.450000	4.130000	1.470000	652.00	-0.13	-0.11	3.25	3.00	2.25	2.50	2.75	0.25	0.00	0.00	1.00	1.00	0.50	0.00	1.50	1.00	0.00	0.50	-0.231445	0.138184	0.959961	-2.310000	1.540000	0.280000	218.00	-0.15	-0.03
2.68	7.50	9.25	3.50	7.50	3.00	5.00	0.50	3.00	2.25	2.75	2.00	2.00	5.50	1.75	0.00	0.50	-0.279297	0.127930	0.913574	-2.380000	3.780000	1.400000	645.00	-0.13	-0.12	3.25	2.75	2.00	2.75	3.00	0.25	0.25	0.00	0.75	1.25	0.50	0.00	1.50	1.00	0.00	0.00	-0.232422	0.140625	0.956543	-2.100000	1.820000	0.280000	219.00	-0.15	-0.02
2.69	7.50	9.00	3.25	7.25	3.00	5.00	0.50	3.00	2.50	3.00	2.00	2.00	5.50	1.50	0.00	0.50	-0.278320	0.131348	0.921387	-2.240000	3.570000	1.260000	640.00	-0.12	-0.11	3.75	3.00	2.25	2.50	2.50	0.50	0.25	0.00	0.75	1.00	0.75	0.00	1.25	1.00	0.00	0.25	-0.226562	0.142578	0.961426	-1.680000	2.170000	0.350000	223.00	-0.16	-0.02
2.70	6.75	8.50	3.00	7.00	2.75	4.75	0.25	3.00	2.25	2.75	2.25	2.00	5.50	1.50	0.00	0.50	-0.278320	0.133301	0.923340	-2.100000	3.640000	1.260000	607.00	-0.12	-0.12	3.75	3.50	2.25	2.75	2.75	0.25	0.25	0.00	0.75	0.75	0.50	0.00	1.50	1.00	0.00	0.00	-0.228027	0.142090	0.939941	-1.050000	2.590000	0.350000	227.00	-0.18	-0.03
2.71	6.50	8.00	2.75	6.50	2.75	4.50	0.25	3.00	2.50	3.00	2.50	2.25	5.75	1.50	0.00	0.75	-0.275879	0.137207	0.925293	-1.820000	3.850000	1.190000	603.00	-0.10	-0.12	3.50	3.25	1.75	2.50	2.75	0.00	0.00	0.00	0.75	1.00	0.25	0.00	1.25	0.75	0.00	0.00	-0.228027	0.140625	0.952637	-0.560000	2.870000	0.350000	200.00	-0.18	-0.02
2.72	5.75	7.50	2.50	6.00	2.75	4.25	0.25	3.00	2.50	3.00	2.50	2.50	5.75	2.00	0.00	0.75	-0.269531	0.137207	0.925293	-1.400000	4.200000	1.190000	585.00	-0.09	-0.12	3.75	3.25	1.75	2.50	2.25	0.50	0.00	0.00	0.50	0.75	0.25	0.00	1.00	0.75	0.00	0.00	-0.173828	0.136230	0.984863	0.910000	3.220000	-0.070000	194.00	-0.21	-0.03
2.73	5.25	6.75	2.25	5.50	2.75	4.25	0.25	3.25	2.75	3.25	2.75	2.50	6.00	2.00	0.00	0.75	-0.273438	0.136719	0.929688	-0.980000	5.040000	1.190000	579.00	-0.07	-0.13	3.75	3.50	2.00	2.75	2.25	0.00	0.00	0.00	0.25	0.50	0.25	0.00	1.00	0.50	0.00	0.00	-0.228516	0.145508	0.955566	0.630000	3.080000	0.140000	188.00	-0.24	-0.04
2.74	5.00	6.00	2.00	5.00	2.25	4.00	0.25	3.25	3.00	3.50	2.75	2.75	5.75	2.25	0.00	0.75	-0.273926	0.138672	0.930176	-0.420000	6.580000	1.050000	560.00	-0.05	-0.12	4.25	3.50	2.00	2.50	2.50	0.00	0.00	0.00	0.25	0.25	0.00	0.00	0.75	0.50	0.00	0.00	-0.234863	0.147461	0.977051	0.420000	3.570000	0.560000	186.00	-0.26	-0.02
2.75	3.75	5.25	1.75	4.75	2.25	3.25	0.25	3.25	3.00	3.75	3.25	3.00	6.25	2.25	0.00	0.75	-0.275391	0.132812	0.943848	0.560000	7.840000	0.910000	539.00	-0.03	-0.13	4.25	3.75	2.00	2.50	2.00	0.25	0.00	0.00	0.00	0.25	0.00	0.00	0.50	0.75	0.00	0.00	-0.226074	0.149902	0.936523	0.280000	3.710000	0.840000	182.00	-0.27	-0.03
2.76	2.50	4.00	1.75	3.50	2.00	2.75	0.25	3.00	3.00	4.00	3.50	3.25	6.25	2.50	0.00	1.00	-0.272461	0.137207	0.939941	1.120000	9.660000	0.840000	497.00	0.01	-0.13	4.25	3.50	2.00	2.25	2.00	0.00	0.00	0.00	0.00	0.00	0.00	0.00	0.00	0.50	0.00	0.00	-0.231934	0.148438	0.951660	0.560000	3.290000	0.770000	163.00	-0.30	-0.01
2.77	2.00	3.25	1.25	2.25	2.00	2.00	0.25	2.50	4.00	4.75	4.25	3.50	6.25	2.75	0.00	1.25	-0.268555	0.138672	0.947754	2.310000	12.320000	0.280000	483.00	0.06	-0.11	4.25	3.50	2.00	2.50	2.00	0.00	0.00	0.00	0.00	0.00	0.00	0.00	0.25	0.50	0.00	0.00	-0.233398	0.146973	0.954590	0.840000	2.940000	0.700000	169.00	-0.30	-0.02
2.78	0.00	0.00	0.00	0.00	0.50	0.00	0.00	0.50	3.00	4.25	3.50	2.75	4.75	3.25	0.00	1.25	-0.264648	0.158203	0.972656	2.870000	19.040001	-1.750000	260.00	0.23	-0.08	4.00	3.50	1.75	2.25	1.75	0.00	0.00	0.00	0.00	0.00	0.00	0.00	0.25	0.50	0.75	1.00	-0.235840	0.148438	0.940430	0.910000	2.520000	0.700000	171.00	-0.24	-0.04
2.79	0.00	0.00	0.00	0.00	0.50	0.00	0.00	0.00	3.25	4.50	4.00	3.00	4.25	2.50	0.00	0.50	-0.246582	0.193848	1.128418	5.110000	43.610001	-5.180000	250.00	0.23	-0.06	5.50	3.25	1.75	3.75	2.50	0.00	0.00	0.00	0.00	0.00	0.00	0.00	0.00	0.25	0.50	0.75	-0.237305	0.151855	0.943359	0.980000	1.890000	0.840000	204.00	-0.28	-0.03
2.80	0.00	0.00	0.00	0.00	0.25	0.00	0.00	0.00	3.50	5.50	4.25	2.75	3.50	3.25	0.00	0.75	-0.308105	0.145508	1.082031	8.680000	81.410004	-10.150000	264.00	0.25	-0.03	4.00	3.00	0.75	2.00	1.25	0.00	0.00	0.00	0.00	0.50	0.50	0.25	0.25	1.00	1.00	0.75	-0.241211	0.153320	0.942383	0.700000	1.680000	0.770000	165.00	-0.17	-0.04
2.81	0.50	0.50	0.75	0.75	0.75	0.00	0.00	0.75	5.25	6.75	5.75	3.75	4.50	5.00	0.50	1.50	-0.334473	0.192871	1.151367	8.960000	114.099998	-12.530000	415.00	0.20	-0.04	4.25	3.50	1.50	2.00	1.50	0.00	0.00	0.00	0.00	0.50	1.00	0.75	2.00	0.75	0.00	1.25	-0.241211	0.150879	0.954102	0.490000	1.610000	0.700000	203.00	-0.17	-0.08
2.82	0.75	1.25	0.75	0.25	0.75	0.00	0.00	0.50	5.00	6.75	5.75	3.50	4.25	5.50	0.50	1.50	-0.349121	0.177246	1.105957	1.120000	134.470001	-15.680000	411.00	0.20	-0.03	5.75	5.25	3.00	2.25	1.50	0.00	0.00	0.00	0.00	0.00	0.00	0.00	0.00	0.25	0.00	0.00	-0.242676	0.150391	0.944824	0.210000	1.540000	0.770000	202.00	-0.33	-0.01
2.83	0.50	0.25	0.50	0.25	0.50	0.00	0.00	0.25	5.00	6.50	5.50	2.50	3.00	6.00	0.75	1.25	-0.388184	0.183594	1.154297	-20.440001	162.330002	-23.450001	365.00	0.23	0.00	4.50	3.75	1.25	2.00	1.25	0.00	0.00	0.00	0.00	0.00	0.00	0.00	0.00	0.25	0.00	0.00	-0.231934	0.154785	0.954590	-0.000000	1.120000	0.770000	145.00	-0.33	-0.02
2.84	0.75	0.25	0.50	0.00	0.50	0.00	0.00	0.00	5.00	6.75	5.00	2.50	2.00	6.50	0.50	1.50	-0.415527	0.180176	1.185059	-26.530001	176.470001	-26.880001	351.00	0.23	0.03	4.75	4.25	1.75	2.00	1.50	0.00	0.00	0.00	0.00	0.00	0.00	0.00	0.00	0.25	0.00	0.00	-0.233398	0.152344	0.937988	-0.560000	0.770000	0.770000	162.00	-0.33	-0.02
2.85	0.00	0.00	0.00	0.00	0.00	0.00	0.00	0.00	4.00	5.75	3.75	1.25	0.00	6.50	0.25	0.50	-0.447266	0.209473	1.152344	-29.750000	191.169998	-30.940001	246.00	0.29	0.08	4.50	4.00	1.75	2.00	1.50	0.00	0.00	0.00	0.00	0.00	0.00	0.00	0.00	0.00	0.00	0.00	-0.232910	0.157715	0.967285	-1.120000	-0.560000	2.030000	155.00	-0.34	-0.02
2.86	0.00	0.00	0.00	0.00	0.00	0.00	0.00	0.00	3.00	5.00	3.25	0.75	0.00	6.25	0.00	0.25	-0.489746	0.246582	1.210449	-29.750000	206.990005	-36.189999	205.00	0.29	0.09	4.25	4.00	1.50	2.00	1.25	0.00	0.00	0.00	0.00	0.00	0.00	0.00	0.00	0.25	0.00	0.00	-0.229492	0.145996	0.909668	-1.960000	-0.210000	2.520000	148.00	-0.33	-0.03
2.87	0.00	0.00	0.00	0.00	0.00	0.00	0.00	0.00	2.25	4.50	2.25	0.00	0.00	6.00	0.00	0.00	-0.602051	0.348145	1.176270	-32.060001	219.940002	-43.610001	165.00	0.30	0.12	4.00	4.25	1.50	2.00	1.25	0.00	0.00	0.00	0.00	0.00	0.00	0.00	0.00	0.25	0.00	0.00	-0.230469	0.114258	0.937988	-2.380000	0.070000	2.170000	148.00	-0.33	-0.03
2.88	0.00	0.00	0.00	0.00	0.00	0.00	0.00	0.00	1.50	3.75	1.75	0.00	0.00	6.00	0.00	0.00	-0.652832	0.182617	1.240723	-34.650002	230.160004	-53.760002	140.00	0.31	0.12	4.75	4.00	1.50	2.25	1.25	0.00	0.00	0.00	0.00	0.00	0.00	0.00	0.00	0.25	0.00	0.00	-0.227539	0.145508	0.934082	-2.170000	-0.420000	0.560000	157.00	-0.33	-0.03
2.89	0.00	0.00	0.00	0.00	0.00	0.00	0.00	0.00	3.00	3.75	2.25	0.25	0.00	6.25	0.00	0.00	-0.991211	0.427246	1.646973	-35.420002	225.050003	-66.919998	172.00	0.30	0.12	4.50	4.25	1.50	2.00	1.25	0.00	0.00	0.00	0.00	0.00	0.00	0.00	0.00	0.25	0.00	0.00	-0.233887	0.152832	0.936523	-1.890000	-0.280000	0.210000	153.00	-0.33	-0.03
2.90	0.00	0.25	0.25	0.00	0.00	0.00	0.00	0.00	2.25	3.50	1.75	0.25	0.00	5.50	0.00	0.00	-0.853027	0.436035	1.413574	-44.660000	205.869995	-80.639999	151.00	0.28	0.11	4.50	4.00	1.25	2.00	1.50	0.00	0.00	0.00	0.00	0.00	0.00	0.00	0.00	0.25	0.00	0.00	-0.231934	0.150391	0.933594	-2.520000	-0.280000	0.140000	151.00	-0.33	-0.02
2.91	0.00	0.00	0.25	0.00	0.00	0.00	0.00	0.00	1.75	3.00	1.25	0.25	0.00	4.00	0.00	0.00	-0.822266	0.449219	1.338867	-55.299999	189.350006	-94.010002	116.00	0.28	0.12	4.75	4.50	1.50	2.25	1.25	0.00	0.00	0.00	0.00	0.00	0.00	0.00	0.00	0.25	0.00	0.00	-0.234863	0.149414	0.936035	-3.010000	-0.420000	0.140000	162.00	-0.33	-0.03
2.92	0.25	0.00	0.00	0.00	0.00	0.00	0.00	0.00	1.25	2.75	1.50	0.00	0.00	3.50	0.00	0.00	-0.793457	0.534668	1.173340	-53.549999	177.029999	-105.699997	102.00	0.28	0.11	5.00	4.50	1.75	2.50	1.25	0.00	0.00	0.00	0.00	0.00	0.00	0.00	0.00	0.25	0.00	0.00	-0.233887	0.159668	0.937012	-3.430000	-0.420000	0.140000	171.00	-0.33	-0.03
2.93	0.00	0.00	0.00	0.00	0.00	0.00	0.00	0.00	1.25	2.00	0.75	0.00	0.00	2.00	0.00	0.25	-0.659668	0.601074	1.238281	-47.040001	158.899994	-115.709999	69.00	0.29	0.12	4.75	4.25	1.50	2.25	1.50	0.00	0.00	0.00	0.00	0.00	0.00	0.00	0.25	0.00	0.00	0.00	-0.230957	0.149902	0.939941	-4.060000	-0.560000	-0.000000	162.00	-0.33	-0.04
2.94	0.25	0.00	0.50	0.00	0.00	0.00	0.00	0.00	1.00	2.25	1.00	0.00	0.00	1.50	0.00	0.00	-0.285156	0.671387	1.376953	-47.110001	133.350006	-121.800003	74.00	0.21	0.10	5.00	5.00	1.75	2.50	1.25	0.00	0.00	0.00	0.00	0.00	0.00	0.00	0.50	0.00	0.00	0.00	-0.232910	0.152344	0.935059	-4.690000	-0.560000	-0.140000	178.00	-0.33	-0.05
2.95	0.00	0.00	0.25	0.00	0.00	0.00	0.00	0.00	0.75	1.25	0.75	0.00	0.00	0.75	0.00	0.00	0.127930	1.002441	1.304199	-58.380001	103.739998	-115.500000	44.00	0.00	0.00	5.00	5.00	1.75	2.75	1.50	0.00	0.00	0.00	0.00	0.00	0.00	0.00	0.25	0.00	0.00	0.00	-0.232910	0.153809	0.945312	-5.180000	-0.910000	-0.210000	182.00	-0.33	-0.04
2.96	0.25	0.00	0.00	0.00	0.00	0.00	0.00	0.00	0.25	1.75	0.50	0.00	0.00	0.00	0.00	0.00	0.358398	1.447266	0.900391	-77.980003	80.360001	-84.000000	32.00	0.00	0.00	5.25	5.00	1.75	2.50	1.50	0.00	0.00	0.00	0.00	0.00	0.00	0.00	0.25	0.25	0.00	0.00	-0.240234	0.145996	0.941895	-5.670000	-1.190000	-0.280000	184.00	-0.33	-0.03
2.97	0.25	0.25	0.75	0.00	0.00	0.00	0.00	0.00	0.50	1.50	0.50	0.00	0.00	0.25	0.00	0.00	0.479004	1.488770	0.987793	-34.230000	45.430000	23.100000	47.00	0.00	0.00	5.00	5.00	1.75	3.00	1.75	0.00	0.00	0.00	0.00	0.00	0.00	0.00	0.00	0.25	0.00	0.00	-0.236816	0.150391	0.943359	-6.160000	-1.890000	-0.350000	188.00	-0.33	-0.04
2.98	0.75	0.00	0.00	0.00	0.00	0.00	0.00	0.00	0.00	0.50	0.25	0.00	0.25	0.25	0.00	0.00	0.498047	1.488770	0.987793	-34.230000	45.430000	23.100000	22.00	0.00	0.00	5.75	5.50	2.00	3.25	1.75	0.00	0.00	0.00	0.00	0.00	0.00	0.00	0.50	0.25	0.00	0.00	-0.237305	0.148926	0.943848	-6.370000	-2.450000	-0.350000	212.00	-0.32	-0.04
2.99	0.00	0.00	0.00	0.00	0.00	0.00	0.00	0.00	0.00	1.25	0.50	0.00	0.25	0.25	0.00	0.00	0.492676	0.770020	0.624023	23.170000	17.780001	86.870003	25.00	0.00	0.00	5.75	6.25	2.25	3.50	1.75	0.00	0.00	0.00	0.00	0.00	0.00	0.00	0.50	0.50	0.00	0.00	-0.235352	0.150879	0.940430	-6.300000	-2.590000	-0.280000	228.00	-0.32	-0.05
3.00	0.25	0.00	0.00	0.00	0.00	0.00	0.00	0.00	0.00	1.00	0.25	0.00	0.00	0.00	0.00	0.00	0.458496	0.656250	0.756836	28.980000	10.570000	101.290001	17.00	0.00	0.00	6.00	6.50	2.25	3.50	2.00	0.00	0.00	0.00	0.00	0.25	0.00	0.00	0.50	0.50	0.00	0.00	-0.234375	0.148926	0.951172	-6.160000	-2.870000	-0.070000	239.00	-0.31	-0.04
3.01	0.50	0.00	0.00	0.00	0.00	0.00	0.00	0.00	0.50	1.00	0.25	0.00	0.00	0.25	0.00	0.00	0.478516	0.522461	0.823730	36.610001	-0.700000	111.090004	29.00	0.00	0.00	6.00	7.25	2.50	4.00	2.00	0.25	0.00	0.00	0.00	0.25	0.00	0.00	0.50	0.50	0.00	0.00	-0.224121	0.146973	0.945312	-6.020000	-3.150000	-0.210000	259.00	-0.31	-0.05
3.02	0.00	0.50	0.00	0.00	0.00	0.00	0.00	0.00	0.00	1.00	0.25	0.00	0.00	0.00	0.00	0.00	0.474609	0.400879	0.876953	45.360001	-14.980000	116.900002	19.00	0.00	0.00	6.25	7.50	2.50	4.50	2.25	0.00	0.00	0.00	0.00	0.25	0.00	0.00	1.00	0.25	0.00	0.00	-0.227539	0.149902	0.950684	-5.880000	-3.430000	-0.070000	272.00	-0.31	-0.06
3.03	0.00	0.00	0.00	0.00	0.00	0.00	0.00	0.00	0.00	0.00	0.00	0.00	0.00	0.00	0.00	0.00	0.450684	0.265137	0.917969	53.130001	-29.750000	118.720001	0.00	0.00	0.00	6.50	8.50	2.75	4.75	2.25	0.75	0.00	0.00	0.00	0.25	0.00	0.00	1.00	0.75	0.00	0.00	-0.230957	0.150879	0.949219	-5.600000	-3.570000	-0.000000	305.00	-0.30	-0.06
3.04	0.00	0.00	0.00	0.00	0.00	0.00	0.00	0.00	0.00	0.00	0.00	0.00	0.00	0.00	0.00	0.00	0.431641	0.143555	0.953125	59.849998	-44.170002	116.830002	0.00	0.00	0.00	7.00	8.75	3.00	5.00	2.25	0.75	0.00	0.00	0.25	0.50	0.25	0.00	1.25	0.50	0.00	0.00	-0.229492	0.147949	0.948242	-5.530000	-3.990000	0.070000	328.00	-0.28	-0.06
3.05	0.00	0.00	0.00	0.00	0.00	0.00	0.00	0.00	0.00	0.00	0.00	0.00	0.00	0.00	0.00	0.00	0.381348	0.031738	0.999023	65.379997	-58.660000	111.650002	0.00	0.00	0.00	7.25	9.25	3.25	5.50	2.75	1.00	0.00	0.25	0.00	0.50	0.25	0.00	1.00	0.75	0.00	0.00	-0.228027	0.146484	0.943359	-5.740000	-3.920000	-0.070000	355.00	-0.28	-0.07
3.06	0.00	0.00	0.00	0.00	0.00	0.00	0.00	0.00	0.00	0.00	0.00	0.00	0.00	0.00	0.00	0.00	0.327637	-0.055664	1.043945	68.949997	-73.220001	104.019997	0.00	0.00	0.00	8.25	10.25	3.25	5.50	2.75	1.25	0.25	0.00	0.50	0.50	0.00	0.00	1.75	0.75	0.00	0.00	-0.232422	0.148438	0.950684	-5.950000	-4.130000	-0.000000	390.00	-0.27	-0.06
3.07	0.00	0.00	0.00	0.00	0.00	0.00	0.00	0.00	0.00	0.00	0.00	0.00	0.00	0.00	0.00	0.00	0.269043	-0.125000	1.086426	70.070000	-87.919998	94.290001	0.00	0.00	0.00	9.00	11.00	3.25	6.25	3.00	1.25	0.00	0.00	0.25	0.50	0.00	0.00	1.25	0.75	0.00	0.00	-0.221680	0.139160	0.952148	-6.160000	-3.990000	0.070000	406.00	-0.29	-0.06
3.08	0.00	0.00	0.00	0.00	0.00	0.00	0.00	0.00	0.00	0.00	0.00	0.00	0.00	0.00	0.00	0.00	0.198730	-0.168945	1.145020	67.690002	-102.760002	83.440002	0.00	0.00	0.00	9.00	11.75	3.75	6.50	2.75	1.75	0.25	0.00	0.75	0.75	0.25	0.00	1.75	0.75	0.00	0.00	-0.226562	0.146484	0.950684	-6.370000	-3.290000	-0.000000	447.00	-0.27	-0.06
3.09	0.00	0.00	0.00	0.00	0.00	0.00	0.00	0.00	0.00	0.00	0.00	0.00	0.00	0.00	0.00	0.00	0.125000	-0.170898	1.190918	62.860001	-117.529999	72.590004	0.00	0.00	0.00	9.00	12.50	4.00	7.00	3.00	1.75	0.25	0.00	0.50	1.00	0.50	0.00	1.75	1.00	0.00	0.00	-0.221680	0.143066	0.953613	-6.160000	-2.520000	0.070000	471.00	-0.27	-0.07
3.10	0.00	0.00	0.00	0.00	0.00	0.00	0.00	0.00	0.00	0.00	0.00	0.00	0.00	0.00	0.00	0.00	0.045410	-0.132812	1.228516	57.680000	-132.160004	62.860001	0.00	0.00	0.00	9.75	13.00	4.00	7.50	3.25	1.75	0.25	0.25	0.25	0.75	0.50	0.00	1.50	1.00	0.00	0.00	-0.227539	0.143066	0.958008	-5.950000	-2.100000	0.070000	489.00	-0.28	-0.07
3.11	0.00	0.00	0.00	0.00	0.00	0.00	0.00	0.00	0.00	0.00	0.00	0.00	0.00	0.00	0.00	0.00	-0.032715	-0.097656	1.242676	52.849998	-146.020004	55.020000	0.00	0.00	0.00	10.00	13.50	4.25	7.50	3.50	2.00	0.25	0.25	0.75	1.00	0.50	0.00	1.75	1.00	0.00	0.00	-0.229980	0.143555	0.949707	-5.530000	-1.890000	0.070000	519.00	-0.26	-0.06
3.12	0.00	0.00	0.00	0.00	0.00	0.00	0.00	0.00	0.00	0.50	0.00	0.00	0.00	0.00	0.00	0.00	-0.198242	-0.019043	1.185547	44.029999	-165.339996	43.959999	6.00	0.00	0.00	10.25	14.25	4.50	8.00	3.50	2.50	0.25	0.00	0.75	1.00	0.50	0.00	1.75	1.00	0.00	0.00	-0.226074	0.141113	0.953613	-5.180000	-1.820000	0.140000	540.00	-0.27	-0.07
3.13	0.00	0.00	0.00	0.00	0.00	0.00	0.00	0.00	0.00	0.25	0.00	0.00	0.00	0.00	0.00	0.00	-0.270996	0.038574	1.163574	39.759998	-168.910004	40.459999	3.00	0.00	0.00	10.75	14.25	4.25	8.00	3.50	2.50	0.25	0.25	0.50	1.25	0.50	0.25	2.00	1.25	1.00	0.75	-0.222656	0.134766	0.950195	-4.970000	-1.960000	0.070000	569.00	-0.24	-0.07
3.14	0.00	0.00	0.00	0.00	0.00	0.00	0.00	0.00	0.00	0.75	0.00	0.00	0.00	0.00	0.00	0.00	-0.345703	0.102539	1.151855	35.420002	-169.050003	38.150002	9.00	0.00	0.00	10.50	14.00	4.50	8.50	3.75	2.50	0.25	0.25	1.00	1.00	0.75	0.50	2.00	1.00	0.00	0.00	-0.221191	0.139648	0.944824	-4.970000	-2.730000	0.140000	568.00	-0.25	-0.07
3.15	0.00	0.00	0.00	0.00	0.00	0.00	0.00	0.00	0.00	0.50	0.00	0.00	0.00	0.00	0.00	0.00	-0.397461	0.164551	1.163574	31.850000	-166.809998	37.450001	6.00	0.00	0.00	11.00	15.75	5.75	8.00	4.50	3.25	0.25	0.25	1.00	1.00	1.25	0.50	2.50	1.00	0.50	0.25	-0.222656	0.137207	0.953613	-5.040000	-3.080000	0.280000	636.00	-0.24	-0.07
3.16	0.00	0.00	0.00	0.00	0.00	0.00	0.00	0.00	0.00	0.00	0.00	0.00	0.00	0.00	0.00	0.00	-0.455566	0.215820	1.181152	32.200001	-162.190002	39.340000	0.00	0.00	0.00	12.00	15.00	4.75	9.00	4.50	3.00	0.25	0.25	1.00	1.25	0.75	0.25	2.50	1.00	0.00	0.25	-0.220703	0.140625	0.955078	-4.760000	-3.080000	0.210000	625.00	-0.25	-0.07
3.17	0.00	0.00	0.00	0.00	0.00	0.00	0.00	0.00	0.00	0.00	0.00	0.00	0.00	0.00	0.00	0.00	-0.505859	0.230469	1.206543	35.630001	-155.750000	44.380001	0.00	0.00	0.00	11.75	15.50	5.00	9.50	4.75	3.75	0.25	0.50	1.25	1.25	0.75	0.25	2.50	1.00	0.00	0.00	-0.218262	0.137695	0.949707	-4.410000	-2.940000	0.140000	654.00	-0.25	-0.07
3.18	0.00	0.00	0.00	0.00	0.00	0.00	0.00	0.00	0.00	0.25	0.00	0.00	0.00	0.00	0.00	0.00	-0.562012	0.238770	1.237305	37.520000	-148.399994	51.590000	3.00	0.00	0.00	12.75	16.25	5.00	9.50	5.00	3.75	0.25	0.50	1.25	1.50	0.75	0.50	2.50	1.25	0.25	0.50	-0.219727	0.140137	0.958984	-4.060000	-3.150000	0.280000	690.00	-0.24	-0.07
3.19	0.00	0.00	0.00	0.00	0.00	0.00	0.00	0.00	0.00	0.25	0.00	0.00	0.00	0.00	0.00	0.00	-0.615723	0.253418	1.255859	35.700001	-141.190002	60.549999	3.00	0.00	0.00	12.50	16.75	5.25	9.50	5.00	3.75	0.25	0.50	1.25	1.50	1.00	0.50	2.75	1.25	0.00	0.25	-0.224121	0.140137	0.960449	-3.780000	-2.940000	0.210000	696.00	-0.24	-0.07
3.20	0.00	0.00	0.00	0.00	0.00	0.00	0.00	0.00	0.25	0.25	0.00	0.00	0.00	0.00	0.00	0.00	-0.672852	0.259277	1.272949	31.010000	-134.470001	70.980003	6.00	0.00	0.00	13.25	16.50	5.25	10.00	5.25	4.00	0.25	0.50	1.25	1.50	1.00	0.50	3.00	1.25	0.00	0.25	-0.219727	0.139160	0.952637	-3.430000	-2.730000	0.140000	717.00	-0.24	-0.07
3.21	0.25	0.00	0.00	0.00	0.00	0.00	0.00	0.00	0.00	0.50	0.00	0.00	0.00	0.00	0.00	0.00	-0.729980	0.279297	1.288574	22.960001	-128.169998	82.110001	9.00	0.00	0.00	12.75	16.25	5.50	10.00	5.25	4.50	0.25	0.75	1.25	1.50	1.75	0.75	3.25	2.00	0.25	1.00	-0.218262	0.131836	0.952637	-3.640000	-2.590000	0.070000	750.00	-0.22	-0.08
3.22	0.00	0.00	0.00	0.00	0.00	0.00	0.00	0.00	0.00	0.00	0.00	0.00	0.00	0.00	0.00	0.00	-0.788086	0.290527	1.355957	11.480000	-123.620003	93.519997	0.00	0.00	0.00	12.25	16.00	5.25	10.00	6.50	5.00	0.25	0.75	2.50	1.50	1.25	1.50	3.50	1.25	0.25	0.50	-0.214355	0.140625	0.948730	-3.710000	-2.660000	0.070000	773.00	-0.21	-0.08
3.23	0.00	0.00	0.00	0.00	0.00	0.00	0.00	0.00	0.25	0.25	0.00	0.00	0.00	0.25	0.00	0.00	-0.826660	0.426758	1.284180	-5.180000	-124.529999	103.879997	9.00	0.00	0.00	16.75	19.50	6.75	12.25	6.75	6.50	0.50	2.00	2.25	2.00	1.25	0.75	3.75	1.50	1.00	1.75	-0.211426	0.136719	0.950684	-3.920000	-3.080000	0.070000	964.00	-0.21	-0.08
3.24	0.00	0.00	0.00	0.00	0.00	0.00	0.00	0.00	0.25	0.50	0.00	0.00	0.00	0.00	0.00	0.00	-0.889648	0.276367	1.361816	-18.059999	-124.599998	112.629997	9.00	0.00	0.00	16.00	20.00	6.00	9.25	7.00	5.25	0.50	1.00	2.75	2.50	1.25	1.25	4.75	2.25	1.75	1.25	-0.215820	0.132324	0.949707	-4.200000	-3.850000	-0.070000	928.00	-0.19	-0.07
3.25	0.00	0.00	0.25	0.00	0.00	0.00	0.00	0.00	0.00	0.00	0.00	0.00	0.00	0.00	0.00	0.00	-0.939941	0.253906	1.327148	-30.450001	-126.629997	117.809998	3.00	0.00	0.00	11.50	16.75	7.50	10.00	6.25	5.75	0.25	1.00	2.25	2.00	2.00	1.25	4.75	3.00	1.25	1.00	-0.217773	0.134277	0.961426	-4.130000	-3.850000	-0.210000	860.00	-0.18	-0.08
3.26	0.00	0.00	0.25	0.00	0.00	0.00	0.00	0.00	0.00	0.25	0.00	0.00	0.00	0.00	0.00	0.00	-1.009766	0.232422	1.279785	-40.180000	-129.990005	119.000000	6.00	0.00	0.00	14.25	19.25	7.75	11.75	7.25	7.00	0.50	2.00	3.25	3.00	2.75	2.25	5.75	3.25	1.50	1.75	-0.218262	0.134766	0.958008	-3.710000	-3.220000	-0.140000	1052.00	-0.16	-0.08
3.27	0.00	0.00	0.00	0.00	0.00	0.00	0.00	0.00	0.00	0.50	0.00	0.00	0.00	0.00	0.00	0.00	-1.067383	0.198730	1.203125	-44.660000	-132.649994	115.639999	6.00	0.00	0.00	14.25	18.25	7.50	12.00	7.50	7.25	0.50	2.25	3.50	3.00	3.00	2.50	5.50	3.25	1.75	2.00	-0.217773	0.137695	0.951172	-3.500000	-2.520000	-0.140000	1064.00	-0.15	-0.08
3.28	0.00	0.00	0.00	0.00	0.00	0.00	0.00	0.00	0.00	0.50	0.00	0.00	0.00	0.00	0.00	0.00	-1.256348	0.076172	0.966309	-35.070000	-133.210007	97.160004	6.00	0.00	0.00	14.00	17.50	7.50	11.75	7.75	7.25	0.50	2.00	1.75	3.25	3.00	2.00	3.75	1.75	0.50	0.75	-0.221191	0.142578	0.952148	-3.360000	-1.890000	-0.210000	969.00	-0.19	-0.08
3.29	0.00	0.00	0.00	0.00	0.00	0.00	0.00	0.00	0.00	0.25	0.00	0.00	0.00	0.25	0.00	0.00	-1.449219	-0.065918	0.820801	-19.879999	-131.949997	80.150002	5.00	0.00	0.00	8.50	11.00	5.75	8.75	6.75	6.75	0.50	2.25	3.25	3.50	3.25	2.75	5.00	1.75	1.00	2.00	-0.214355	0.133301	0.949707	-3.220000	-1.540000	-0.280000	831.00	-0.12	-0.09
3.30	0.00	0.00	0.00	0.00	0.00	0.00	0.00	0.00	0.00	0.50	0.00	0.00	0.00	0.00	0.00	0.00	-1.794922	-0.198730	0.599609	-0.700000	-134.050003	56.980000	6.00	0.00	0.00	9.25	12.00	5.75	9.25	7.00	6.00	0.25	1.25	2.00	2.25	2.50	1.75	5.00	2.00	0.75	0.75	-0.213867	0.131348	0.950684	-3.430000	-1.400000	-0.280000	769.00	-0.16	-0.09
3.31	0.00	0.00	0.00	0.00	0.00	0.00	0.00	0.00	0.00	0.50	0.00	0.00	0.00	0.00	0.00	0.00	-2.219727	-0.332031	0.296387	15.120000	-138.949997	30.240000	6.00	0.00	0.00	9.00	11.25	5.75	9.00	7.00	5.75	0.25	1.25	2.00	2.50	2.50	1.75	5.00	2.00	0.50	1.00	-0.217285	0.132324	0.948242	-3.570000	-1.820000	-0.350000	754.00	-0.15	-0.09
3.32	0.00	0.00	0.00	0.00	0.00	0.00	0.00	0.00	0.00	0.50	0.00	0.00	0.00	0.00	0.00	0.00	-2.437500	-0.493164	-0.164551	24.360001	-136.149994	1.400000	6.00	0.00	0.00	8.25	10.00	5.00	8.00	6.75	6.25	0.50	2.50	3.75	4.00	4.00	3.50	6.50	3.75	2.00	2.50	-0.210449	0.135742	0.958008	-2.940000	-2.240000	-0.350000	875.00	-0.07	-0.09
3.33	0.00	0.00	0.00	0.00	0.00	0.00	0.00	0.00	0.00	0.25	0.00	0.00	0.00	0.00	0.00	0.00	-2.349121	-0.634277	-0.619141	25.760000	-108.080002	-29.049999	3.00	0.00	0.00	10.00	10.75	7.00	10.25	8.00	6.75	0.25	2.75	4.00	4.25	4.25	3.50	6.75	4.00	2.00	2.75	-0.206055	0.137695	0.958496	-2.800000	-1.890000	-0.210000	990.00	-0.09	-0.09
3.34	0.00	0.00	0.00	0.00	0.00	0.00	0.00	0.00	0.50	1.00	0.00	0.00	0.00	0.00	0.00	0.00	-2.020508	-0.636230	-0.818359	13.230000	-50.889999	-60.619999	19.00	0.00	0.00	9.25	11.50	6.75	9.75	8.50	7.25	0.50	3.00	4.00	4.50	5.25	3.75	6.75	4.00	2.25	2.50	-0.214355	0.138672	0.958984	-2.800000	-1.330000	-0.420000	1019.00	-0.08	-0.09
3.35	0.00	0.00	0.00	0.00	0.00	0.00	0.00	0.00	0.00	0.50	0.00	0.00	0.00	0.00	0.00	0.00	-1.710449	-0.370605	-0.560547	-8.120000	18.200001	-87.779999	6.00	0.00	0.00	8.75	10.25	6.75	9.50	8.50	7.25	0.50	3.00	4.25	4.50	5.75	4.25	7.00	4.50	2.50	3.00	-0.217285	0.133301	0.957031	-2.800000	-1.260000	-0.350000	1026.00	-0.06	-0.09
3.36	0.00	0.00	0.00	0.00	0.00	0.00	0.00	0.00	0.00	0.00	0.00	0.00	0.00	0.00	0.00	0.00	-1.476074	-0.000977	0.021484	-17.500000	73.919998	-102.199997	0.00	0.00	0.00	8.25	9.50	6.50	9.25	8.75	7.00	0.50	3.25	4.50	5.25	7.00	4.50	7.00	4.75	2.25	3.00	-0.219727	0.133789	0.963379	-2.730000	-1.470000	-0.140000	1040.00	-0.05	-0.09
3.37	0.00	0.50	0.00	0.00	0.25	0.00	0.00	0.00	0.00	0.50	0.00	0.00	0.00	0.00	0.00	0.00	-2.677246	5.174805	1.360352	-6.860000	103.389999	-110.040001	14.00	0.00	0.00	7.75	8.50	6.25	8.75	7.50	5.75	0.25	2.50	4.50	5.50	7.50	4.75	7.75	5.00	2.50	3.25	-0.208984	0.134277	0.956055	-2.590000	-1.470000	-0.000000	994.00	-0.03	-0.09
3.38	0.25	0.50	0.25	0.00	0.00	0.00	0.00	0.00	0.00	0.25	0.00	0.00	0.00	0.00	0.00	0.00	0.210449	0.368164	0.756836	-53.549999	128.100006	-97.790001	14.00	0.00	0.00	7.00	7.75	6.25	8.50	8.75	7.25	0.50	3.50	4.75	6.25	8.00	5.50	8.00	5.00	2.75	3.50	-0.205078	0.136719	0.950684	-2.380000	-1.190000	-0.210000	1061.00	-0.02	-0.09
3.39	1.50	2.00	0.50	0.75	0.00	0.00	0.00	0.00	0.00	0.50	0.00	0.00	0.00	0.00	0.00	0.00	-0.336426	0.285156	1.440430	-59.779999	121.800003	-89.809998	58.00	-0.31	-0.05	6.75	7.00	6.00	8.25	8.75	7.25	0.50	3.75	5.00	7.00	8.25	6.00	8.25	5.25	2.75	4.00	-0.210449	0.132324	0.960938	-2.030000	-1.260000	-0.210000	1077.00	-0.01	-0.10
3.40	3.00	5.00	0.75	1.75	0.00	0.00	0.00	0.00	0.00	0.25	0.00	0.00	0.00	0.00	0.00	0.00	-0.164062	0.208008	1.004395	-52.849998	132.649994	-88.480003	117.00	-0.36	-0.07	6.50	6.50	5.75	7.75	8.75	7.25	0.50	3.75	5.25	7.50	8.75	6.50	8.50	5.50	3.00	4.00	-0.210938	0.135254	0.958008	-1.610000	-0.700000	-0.280000	1089.00	0.01	-0.09
3.41	4.00	6.00	1.00	2.50	0.25	0.00	0.00	0.00	0.00	0.25	0.00	0.00	0.00	0.00	0.00	0.00	-0.164062	0.208008	1.004395	-52.849998	132.649994	-88.480003	154.00	-0.36	-0.07	6.00	6.00	5.50	7.25	8.75	7.00	0.50	3.75	5.25	8.00	9.25	7.25	8.75	5.75	3.00	4.25	-0.209961	0.143555	0.946777	-1.400000	-0.490000	-0.280000	1092.00	0.02	-0.10
3.42	5.00	7.75	1.25	3.00	0.00	0.00	0.00	0.00	0.00	0.00	0.00	0.00	0.50	0.00	0.00	0.00	-0.324219	0.106445	1.124023	-50.189999	130.199997	-89.809998	191.00	-0.36	-0.08	5.75	5.50	5.25	7.00	8.50	7.00	0.50	3.75	5.50	8.25	9.50	7.50	9.00	6.00	3.25	4.75	-0.209473	0.136230	0.955566	-1.400000	-0.350000	-0.350000	1098.00	0.03	-0.10
3.43	5.75	9.00	1.00	4.00	0.00	0.00	0.00	0.25	0.00	0.25	0.00	0.00	0.25	0.00	0.00	0.00	-0.531250	0.301758	1.515625	-45.709999	109.480003	-86.730003	225.00	-0.36	-0.09	5.25	5.25	5.25	6.50	8.50	7.00	0.50	4.00	6.00	8.50	10.00	8.00	9.25	6.50	3.50	5.00	-0.208496	0.138672	0.963379	-1.400000	-0.210000	-0.350000	1121.00	0.04	-0.10
3.44	6.75	9.75	1.00	4.75	0.25	0.00	0.00	0.00	0.00	0.00	0.00	0.00	0.75	0.00	0.00	0.00	-0.504395	0.235352	1.363281	-35.000000	93.099998	-77.629997	254.00	-0.36	-0.09	5.25	4.75	5.00	6.25	8.25	6.75	0.50	3.75	6.25	8.75	10.25	8.00	9.50	6.50	3.50	5.00	-0.211426	0.138184	0.951172	-1.120000	0.350000	-0.350000	1111.00	0.05	-0.09
3.45	7.00	11.00	1.50	5.25	0.25	0.00	0.00	0.25	0.00	0.00	0.00	0.00	1.00	0.00	0.00	0.00	-0.409180	0.241699	1.183105	-20.650000	85.050003	-66.639999	288.00	-0.35	-0.10	5.25	4.50	5.00	5.75	8.00	6.50	0.50	3.75	6.25	9.25	10.75	8.25	9.75	7.00	3.75	5.25	-0.210449	0.137207	0.962402	-0.560000	1.050000	-0.490000	1123.00	0.06	-0.09
3.46	8.00	11.25	1.50	5.75	0.00	0.25	0.00	0.25	0.00	0.00	0.00	0.00	1.00	0.00	0.00	0.00	-0.332031	0.345215	0.979980	-1.680000	81.970001	-52.639999	308.00	-0.35	-0.10	4.75	4.00	4.50	5.50	7.75	6.50	0.50	4.00	6.50	9.50	11.00	8.50	9.75	7.25	4.25	5.25	-0.219238	0.133789	0.960449	-0.210000	1.610000	-0.490000	1124.00	0.07	-0.09
3.47	8.50	11.75	1.50	5.75	0.25	1.50	0.00	0.75	0.00	0.00	0.00	0.00	1.25	0.00	0.00	0.00	-0.957520	0.995605	0.684570	20.370001	84.699997	-38.360001	347.00	-0.33	-0.11	4.50	4.00	4.00	5.25	7.50	6.50	0.25	3.75	6.00	10.00	11.25	8.75	10.00	7.50	4.25	5.50	-0.209961	0.139160	0.962891	0.140000	2.100000	-0.490000	1111.00	0.08	-0.10
3.48	8.25	12.50	2.00	7.50	0.50	2.00	0.00	0.75	0.00	0.00	0.00	0.00	1.00	0.25	0.00	0.00	-0.431152	0.382324	1.421875	1.260000	80.849998	-43.820000	388.00	-0.32	-0.11	1.25	3.50	4.00	5.25	7.00	6.25	0.50	3.75	6.00	10.25	11.75	9.00	10.25	7.75	4.50	5.75	-0.205566	0.140137	0.955078	0.420000	2.590000	-0.770000	1085.00	0.10	-0.10
3.49	9.00	13.25	2.50	8.00	0.50	3.50	0.00	1.25	0.00	0.00	0.00	0.00	2.00	0.00	0.00	0.00	-0.448242	0.541504	0.879883	-14.630000	65.239998	-34.650002	449.00	-0.30	-0.13	3.50	2.75	3.75	4.50	6.75	5.50	0.25	3.25	7.50	10.50	11.00	8.50	9.00	7.00	3.00	5.25	-0.210449	0.143066	0.963867	0.770000	3.080000	-0.840000	1038.00	0.09	-0.08
3.50	9.25	14.00	2.25	8.50	0.75	5.00	0.00	1.50	0.00	0.00	0.00	0.00	2.00	0.00	0.00	0.25	-0.412598	0.252441	0.649414	-38.080002	42.349998	-15.540000	489.00	-0.30	-0.14	0.75	0.75	1.00	2.25	5.25	3.75	0.25	2.50	6.75	10.00	11.50	8.75	9.25	7.25	3.50	5.50	-0.206543	0.138672	0.959961	1.260000	3.780000	-1.260000	879.00	0.16	-0.09
3.51	10.50	15.00	2.75	9.00	0.75	5.75	0.00	2.00	0.00	0.25	0.00	0.00	3.00	0.00	0.00	0.00	-0.340332	0.141113	0.850098	-36.750000	28.070000	-5.250000	553.00	-0.28	-0.14	0.75	1.00	1.50	2.25	5.00	3.75	0.25	2.50	6.75	10.50	11.75	9.00	9.50	7.50	3.75	5.75	-0.211426	0.141113	0.964844	1.960000	4.830000	-1.890000	905.00	0.16	-0.09
3.52	11.00	15.50	3.50	9.50	1.25	6.75	0.00	2.50	0.00	0.50	0.25	0.00	3.50	0.00	0.00	0.00	-0.330078	0.158691	1.019531	-30.590000	16.799999	-3.570000	616.00	-0.27	-0.14	1.00	0.75	1.00	2.00	4.25	3.25	0.00	2.50	7.00	10.75	12.00	9.25	9.50	7.75	4.00	6.00	-0.193848	0.151855	0.975098	2.590000	6.650000	-2.870000	896.00	0.17	-0.09
3.53	11.50	16.25	3.50	10.25	1.25	7.75	0.00	3.00	0.00	0.50	0.25	0.50	4.00	0.00	0.00	0.00	-0.354004	0.194824	0.970703	-30.590000	9.660000	-3.220000	669.00	-0.26	-0.15	0.50	0.50	1.25	2.00	3.75	2.75	0.00	2.25	7.25	11.00	12.25	9.50	9.75	8.00	4.50	6.50	-0.216797	0.151367	0.971680	2.800000	9.730000	-3.990000	900.00	0.18	-0.09
3.54	12.50	17.00	3.75	10.50	1.00	8.50	0.00	3.75	0.00	0.50	0.50	0.00	4.25	0.25	0.00	0.00	-0.337891	0.170410	1.003418	-32.970001	6.370000	-2.450000	714.00	-0.26	-0.15	0.75	1.00	1.00	1.50	3.50	3.00	0.00	1.75	7.25	11.25	12.75	9.50	9.75	8.25	4.50	6.75	-0.225098	0.135254	0.971680	6.300000	15.890000	-5.250000	903.00	0.19	-0.09
3.55	12.75	17.25	4.25	11.00	1.00	9.00	0.00	4.00	0.00	0.75	0.75	0.50	5.00	0.25	0.00	0.00	-0.340332	0.166016	0.986816	-28.139999	1.540000	-1.610000	760.00	-0.25	-0.15	0.75	0.75	1.00	1.50	3.25	2.75	0.00	1.75	7.50	11.50	13.00	9.75	9.50	8.75	5.00	7.00	-0.227539	0.146484	0.980469	8.890000	21.559999	-5.390000	916.00	0.19	-0.09
3.56	13.25	17.25	5.00	11.25	1.25	9.25	0.00	5.00	0.00	0.75	0.75	0.75	5.50	0.75	0.00	0.00	-0.333496	0.171387	0.955566	-21.840000	-0.350000	-0.770000	812.00	-0.23	-0.15	2.25	1.75	2.50	3.00	3.75	4.00	0.00	2.50	8.50	13.00	14.50	10.75	10.50	9.50	5.00	7.50	-0.232422	0.152344	0.993652	11.830000	35.980000	-5.530000	1092.00	0.16	-0.09
3.57	13.00	17.50	5.00	11.50	1.25	9.50	0.00	5.25	0.25	1.00	0.75	0.75	5.75	0.00	0.00	0.00	-0.318359	0.170410	0.934570	-17.219999	-0.490000	-0.210000	824.00	-0.23	-0.16	0.25	1.00	0.75	1.25	2.75	1.75	0.00	1.50	7.75	12.00	13.50	10.25	9.75	9.50	5.50	7.75	-0.240234	0.166992	0.996582	12.110000	45.150002	-6.370000	925.00	0.21	-0.08
3.58	13.00	17.25	5.00	11.50	1.25	9.75	0.00	5.50	0.00	1.25	0.75	1.00	6.00	0.00	0.00	0.00	-0.308594	0.156250	0.906738	-13.790000	-2.240000	0.280000	833.00	-0.23	-0.16	0.50	0.75	0.75	1.25	2.75	2.00	0.00	1.25	8.00	12.25	13.75	10.25	10.00	10.00	6.00	8.25	-0.255859	0.162109	1.003906	11.550000	54.810001	-7.630000	949.00	0.21	-0.08
3.59	12.50	17.00	5.00	11.50	1.50	10.00	0.00	6.25	0.25	1.25	1.00	1.00	6.25	0.00	0.00	0.00	-0.309570	0.161133	0.922363	-13.790000	-3.570000	0.280000	852.00	-0.22	-0.17	0.75	0.75	0.75	1.75	2.50	2.00	0.00	1.25	8.00	12.50	14.00	10.50	9.75	10.25	6.25	8.50	-0.259277	0.166016	1.003418	10.570000	64.260002	-8.680000	968.00	0.21	-0.08
3.60	12.25	16.75	5.00	11.50	1.50	10.50	0.00	6.50	0.50	1.25	1.25	1.50	6.50	0.00	0.00	0.25	-0.312012	0.164551	0.932617	-12.180000	-3.850000	0.420000	873.00	-0.21	-0.17	0.75	0.50	0.75	1.00	2.25	1.75	0.00	1.00	8.25	12.75	14.00	10.50	9.75	11.00	6.75	8.75	-0.273926	0.162109	1.009766	9.660000	72.519997	-9.520000	967.00	0.22	-0.07
3.61	12.00	16.50	4.75	11.50	1.50	10.50	0.00	7.00	0.75	1.25	1.25	1.75	7.50	0.25	0.00	0.00	-0.311523	0.160156	0.921387	-9.870000	-3.080000	0.630000	890.00	-0.20	-0.17	0.25	0.75	1.00	1.00	2.25	2.00	0.00	0.75	8.25	13.00	14.25	10.75	9.50	11.50	7.25	9.00	-0.285156	0.165039	1.022949	8.960000	79.590004	-10.010000	984.00	0.23	-0.07
3.62	11.00	16.25	5.00	11.25	1.50	10.75	0.00	7.50	1.00	1.75	1.50	1.50	7.50	0.25	0.00	0.25	-0.313965	0.158203	0.931152	-7.490000	-1.610000	0.910000	898.00	-0.19	-0.17	0.25	0.50	0.25	1.25	2.00	1.75	0.00	0.75	8.25	13.00	14.25	10.75	9.25	12.25	7.75	9.50	-0.300293	0.183105	1.027832	8.540000	86.169998	-11.200000	982.00	0.24	-0.07
3.63	10.75	15.75	5.00	11.50	1.50	10.75	0.00	7.50	1.00	1.50	1.50	2.00	7.75	0.25	0.00	0.00	-0.311523	0.155273	0.928711	-4.480000	0.280000	1.260000	897.00	-0.18	-0.18	0.50	0.25	0.50	1.25	2.00	1.25	0.00	0.50	8.50	13.25	14.50	10.75	8.75	12.75	8.00	9.75	-0.315430	0.189453	1.047363	7.420000	91.840004	-13.090000	989.00	0.24	-0.06
3.64	10.50	15.50	5.00	11.25	1.50	11.00	0.00	7.75	1.25	1.75	1.50	1.75	8.00	0.25	0.00	0.25	-0.312012	0.156250	0.928223	-1.750000	2.170000	1.610000	903.00	-0.18	-0.18	0.75	0.25	0.50	1.25	2.00	1.50	0.00	0.75	8.50	13.50	14.25	10.50	8.50	13.25	8.25	9.75	-0.333008	0.196289	1.041504	5.460000	97.440002	-16.240000	1001.00	0.24	-0.06
3.65	10.00	15.00	4.50	11.25	1.50	11.00	0.00	7.75	0.75	1.75	1.50	1.75	8.00	0.25	0.00	0.25	-0.309082	0.154785	0.916504	0.280000	3.640000	1.750000	879.00	-0.18	-0.18	0.50	0.50	0.75	1.50	1.75	1.25	0.00	0.50	8.50	13.25	14.25	10.50	8.25	14.00	8.50	10.00	-0.351074	0.205566	1.043945	4.270000	104.720001	-19.740000	1003.00	0.24	-0.06
3.66	9.25	14.50	4.75	11.00	1.50	11.00	0.00	7.75	0.75	1.75	1.75	1.50	8.25	0.25	0.00	0.25	-0.308594	0.160156	0.920898	1.890000	4.830000	1.890000	868.00	-0.17	-0.19	0.75	0.75	0.50	1.25	2.00	1.25	0.00	0.25	8.50	13.25	14.25	10.25	8.00	14.75	8.75	10.00	-0.374023	0.179199	1.054688	3.990000	113.610001	-22.260000	1006.00	0.24	-0.06
3.67	9.25	14.25	4.00	10.75	1.25	11.00	0.00	7.75	1.00	2.00	1.50	2.25	8.25	0.50	0.00	0.50	-0.309082	0.160645	0.913574	3.010000	5.390000	2.100000	866.00	-0.16	-0.19	0.75	0.25	0.50	1.25	2.00	1.50	0.00	0.25	8.50	13.25	14.00	10.00	7.50	15.25	9.00	10.25	-0.381836	0.207031	1.098633	3.500000	123.970001	-24.150000	1002.00	0.25	-0.05
3.68	8.50	13.75	3.75	10.50	1.25	11.00	0.00	8.00	1.00	1.50	1.25	2.00	8.25	0.25	0.00	0.25	-0.308594	0.159668	0.903320	3.710000	5.390000	2.240000	836.00	-0.16	-0.20	0.75	0.50	0.75	1.00	2.00	1.00	0.00	0.25	8.50	13.25	13.75	10.00	7.00	15.75	9.00	10.00	-0.398438	0.210449	1.065430	2.240000	136.360001	-27.370001	994.00	0.25	-0.05
3.69	8.50	13.25	4.00	10.50	1.50	11.00	0.00	8.00	1.00	1.25	1.75	2.00	8.50	0.25	0.00	0.00	-0.305176	0.160156	0.899902	4.060000	5.180000	2.240000	840.00	-0.16	-0.19	0.50	0.25	0.75	1.00	1.75	1.00	0.00	0.25	8.50	13.00	13.50	9.50	6.25	16.25	9.25	10.00	-0.441895	0.194824	1.099121	-0.210000	165.339996	-34.790001	975.00	0.25	-0.04
3.70	8.00	13.00	3.75	10.50	1.50	11.00	0.00	8.25	0.75	1.75	1.50	2.00	8.75	0.25	0.00	0.25	-0.300781	0.163574	0.906738	3.430000	4.690000	2.100000	836.00	-0.16	-0.20	0.50	0.75	1.00	1.00	1.75	1.00	0.00	0.00	8.75	12.75	13.25	9.25	5.50	16.75	9.50	9.50	-0.454102	0.226562	1.080078	-2.380000	181.440002	-38.849998	971.00	0.25	-0.03
3.71	7.75	13.00	3.75	10.50	1.25	11.25	0.00	8.25	1.00	2.00	1.50	2.00	8.75	0.25	0.00	0.25	-0.301758	0.157715	0.904297	2.590000	4.200000	2.030000	840.00	-0.15	-0.20	0.25	0.25	0.75	1.25	1.75	0.50	0.00	0.00	8.50	12.50	13.00	8.75	5.00	16.75	9.25	9.00	-0.496582	0.228516	1.095215	-4.830000	198.029999	-44.310001	932.00	0.26	-0.03
3.72	7.75	12.50	3.50	10.25	1.25	11.25	0.00	8.50	0.75	1.50	1.50	2.25	9.00	0.25	0.00	0.25	-0.303223	0.163574	0.909668	0.840000	3.290000	1.680000	829.00	-0.15	-0.21	0.25	0.25	0.50	0.50	1.75	0.50	0.00	0.00	8.50	12.25	12.50	8.50	4.00	16.75	8.75	8.50	-0.558594	0.255371	1.104004	-6.650000	215.320007	-50.330002	890.00	0.27	-0.02
3.73	7.50	12.00	3.25	10.25	1.25	11.50	0.00	8.50	1.00	1.50	1.50	2.25	9.00	0.25	0.00	0.25	-0.305176	0.160156	0.871094	-0.140000	2.590000	1.470000	825.00	-0.15	-0.21	0.75	0.25	0.75	0.75	1.50	0.00	0.00	0.00	8.50	12.00	12.00	8.00	3.25	16.50	8.25	7.75	-0.620605	0.276367	1.061035	-8.820000	234.220001	-57.330002	859.00	0.26	-0.01
3.74	7.00	11.75	3.50	10.25	1.25	11.50	0.00	8.50	0.75	1.50	1.50	2.75	9.50	0.25	0.00	0.25	-0.304199	0.165527	0.901855	-0.840000	2.310000	1.400000	827.00	-0.14	-0.21	0.25	0.00	0.50	0.50	1.50	0.00	0.00	0.00	8.50	11.75	11.50	7.75	2.25	16.00	7.75	7.00	-0.634277	0.291504	1.126465	-10.290000	254.800003	-65.169998	809.00	0.27	-0.00
3.75	7.25	11.50	3.50	10.00	1.25	11.50	0.00	8.75	0.50	1.50	1.50	2.75	9.50	0.00	0.00	0.50	-0.300293	0.160645	0.905273	-1.540000	1.960000	1.260000	824.00	-0.14	-0.22	0.00	0.00	0.50	0.25	1.00	0.00	0.00	0.00	8.25	11.50	11.00	7.50	2.50	15.00	6.75	6.25	-0.720215	0.335449	1.160645	-11.130000	276.640015	-74.269997	760.00	0.28	-0.00
3.76	6.75	11.25	3.50	9.75	1.00	11.75	0.00	8.75	0.50	1.75	2.00	3.25	9.75	0.50	0.00	0.25	-0.298828	0.167480	0.898926	-2.240000	1.330000	1.260000	832.00	-0.13	-0.22	0.00	0.00	0.25	0.25	0.75	0.00	0.00	0.00	8.00	11.00	10.50	7.25	1.75	13.75	6.00	5.50	-0.801758	0.363281	1.162598	-8.470000	298.549988	-84.209999	704.00	0.28	0.00
3.77	6.50	11.00	2.75	10.00	1.25	11.75	0.00	8.75	1.00	1.50	1.75	3.25	10.00	0.25	0.00	0.25	-0.301758	0.169434	0.902832	-3.360000	0.630000	1.190000	825.00	-0.13	-0.22	0.00	0.00	0.00	0.00	0.50	0.00	0.00	0.00	7.50	10.50	10.00	6.50	1.75	12.00	5.25	5.00	-0.936035	0.356934	1.172852	-4.200000	315.279999	-92.120003	640.00	0.28	-0.00
3.78	6.50	10.75	3.25	9.75	1.50	12.00	0.00	9.00	0.75	2.00	2.00	3.50	10.25	0.25	0.00	0.50	-0.297363	0.160156	0.903809	-4.410000	-0.210000	0.980000	848.00	-0.12	-0.22	0.00	0.00	0.00	0.00	0.50	0.00	0.00	0.00	6.75	10.00	9.50	6.00	1.75	10.50	4.25	3.75	-1.296387	0.687012	1.008301	13.930000	331.380005	-99.260002	579.00	0.28	-0.00
