# time	left pressure 1[N/cm²]	left pressure 2[N/cm²]	left pressure 3[N/cm²]	left pressure 4[N/cm²]	left pressure 5[N/cm²]	left pressure 6[N/cm²]	left pressure 7[N/cm²]	left pressure 8[N/cm²]	left pressure 9[N/cm²]	left pressure 10[N/cm²]	left pressure 11[N/cm²]	left pressure 12[N/cm²]	left pressure 13[N/cm²]	left pressure 14[N/cm²]	left pressure 15[N/cm²]	left pressure 16[N/cm²]	left acceleration X[g]	left acceleration Y[g]	left acceleration Z[g]	left angular X[dps]	left angular Y[dps]	left angular Z[dps]	left total force[N]	left center of pressure X[%]	left center of pressure Y[%]	right pressure 1[N/cm²]	right pressure 2[N/cm²]	right pressure 3[N/cm²]	right pressure 4[N/cm²]	right pressure 5[N/cm²]	right pressure 6[N/cm²]	right pressure 7[N/cm²]	right pressure 8[N/cm²]	right pressure 9[N/cm²]	right pressure 10[N/cm²]	right pressure 11[N/cm²]	right pressure 12[N/cm²]	right pressure 13[N/cm²]	right pressure 14[N/cm²]	right pressure 15[N/cm²]	right pressure 16[N/cm²]	right acceleration X[g]	right acceleration Y[g]	right acceleration Z[g]	right angular X[dps]	right angular Y[dps]	right angular Z[dps]	right total force[N]	right center of pressure X[%]	right center of pressure Y[%]
0.00																										0.50	0.75	1.25	2.00	1.50	0.25	1.50	0.75	5.25	2.50	2.00	1.50	2.25	4.75	0.75	0.50	-0.157715	0.045410	1.015625	-6.860000	27.930000	-0.420000	303.00	0.13	0.02
0.01																										0.50	0.50	1.00	2.00	1.25	0.00	1.50	0.75	5.00	2.75	2.00	1.50	2.25	4.75	0.50	0.75	-0.170898	0.050781	1.056152	-6.440000	34.860001	-0.560000	291.00	0.14	0.02
0.02																										0.25	0.50	0.75	2.00	1.00	0.00	1.25	0.50	5.00	2.50	2.00	1.25	2.00	5.00	0.25	0.50	-0.166016	0.054688	1.047852	-5.040000	44.099998	-0.910000	266.00	0.16	0.04
0.03	3.50	5.75	5.25	6.50	4.25	4.00	1.00	1.25	1.75	1.00	0.75	0.50	1.00	1.50	0.00	0.00	-0.170898	0.029785	0.962402	-2.030000	1.400000	-2.240000	411.00	-0.16	-0.06	0.25	0.50	0.75	1.50	0.75	0.00	1.25	0.50	5.00	2.50	2.00	1.00	1.75	5.00	0.50	0.75	-0.165527	0.053711	1.080078	-5.110000	57.189999	-0.910000	257.00	0.17	0.05
0.04	3.75	6.00	6.00	7.00	5.25	4.00	1.00	1.50	2.00	1.00	1.00	0.50	1.00	1.75	0.25	0.00	-0.174805	0.026367	0.963867	-1.820000	1.540000	-2.100000	455.00	-0.15	-0.06	0.25	0.50	0.50	1.50	0.75	0.00	1.25	0.25	4.75	2.25	2.00	1.25	1.75	5.00	0.25	0.75	-0.189941	0.056152	1.091797	-5.670000	71.190002	-0.910000	244.00	0.18	0.05
0.05																										0.00	0.50	1.00	1.50	0.50	0.00	1.00	0.00	4.50	2.00	1.75	1.00	1.75	5.00	0.25	0.50	-0.201660	0.055664	1.109375	-4.900000	85.330002	-1.260000	224.00	0.18	0.05
0.06	4.25	6.50	6.00	7.50	5.50	4.50	1.00	1.50	2.25	1.00	1.25	0.50	1.00	1.75	0.25	0.00	-0.176270	0.023926	0.962402	-1.400000	1.750000	-1.820000	485.00	-0.16	-0.06	0.00	0.75	0.50	1.25	0.50	0.00	1.00	0.25	4.25	2.00	1.50	0.75	1.25	5.00	0.25	0.75	-0.203125	0.054199	1.130859	-5.670000	100.239998	-1.190000	211.00	0.18	0.06
0.07	4.50	7.75	7.00	8.75	6.25	5.50	1.00	2.00	2.00	1.00	1.25	0.50	1.00	2.00	0.25	0.00	-0.169922	0.027832	0.962402	-0.420000	1.260000	-1.260000	549.00	-0.17	-0.07	0.00	0.50	0.50	1.00	0.25	0.00	0.75	0.00	4.00	1.50	1.25	0.75	1.00	5.00	0.25	0.50	-0.214355	0.042480	1.116211	-8.260000	113.680000	-1.120000	181.00	0.20	0.08
0.08	5.50	8.00	7.50	8.75	6.50	6.00	1.00	2.00	2.50	1.00	1.00	0.50	1.50	1.75	0.00	0.00	-0.172852	0.030762	0.961914	-0.000000	1.190000	-1.190000	579.00	-0.17	-0.07	0.25	0.25	0.75	1.50	0.25	0.00	0.75	0.00	3.75	1.50	1.25	0.50	1.00	4.75	0.25	0.25	-0.253418	0.060059	1.129395	-14.420000	126.419998	-1.050000	180.00	0.18	0.08
0.09	5.75	8.50	7.75	9.25	6.75	6.50	1.25	2.25	2.00	1.00	1.00	0.75	1.25	2.00	0.25	0.25	-0.176758	0.031738	0.958496	-0.070000	1.120000	-1.190000	611.00	-0.17	-0.07	0.00	0.25	0.50	1.00	0.25	0.00	0.50	0.00	2.75	1.00	1.00	0.25	0.50	4.25	0.25	0.25	-0.291016	0.075195	1.122070	-26.740000	136.220001	-0.210000	133.00	0.20	0.09
0.10	6.75	9.00	8.25	9.75	7.25	7.00	1.25	2.25	2.50	1.00	1.00	0.75	1.25	2.25	0.25	0.00	-0.170410	0.029785	0.961914	-0.000000	0.910000	-1.330000	655.00	-0.17	-0.06	0.25	0.25	0.75	1.00	0.25	0.00	0.50	0.00	2.25	1.25	0.75	0.25	0.50	4.00	0.00	0.00	-0.288086	0.083496	1.134277	-44.310001	140.279999	0.490000	126.00	0.16	0.09
0.11	6.75	9.50	8.50	10.75	7.50	7.50	1.25	2.50	2.00	1.00	1.00	0.50	1.50	2.00	0.25	0.00	-0.162598	0.030273	0.963867	0.070000	0.980000	-1.400000	676.00	-0.18	-0.07	0.00	0.50	0.50	1.00	0.25	0.00	0.50	0.00	2.25	0.50	0.75	0.00	0.25	3.25	0.00	0.00	-0.346191	0.087402	1.176270	-61.740002	138.320007	3.500000	104.00	0.15	0.10
0.12	7.50	10.75	8.75	11.25	8.00	7.75	1.25	2.50	2.25	1.25	1.25	0.75	1.25	1.75	0.25	0.00	-0.163574	0.030273	0.961914	0.210000	1.400000	-1.400000	719.00	-0.18	-0.07	0.00	0.00	0.50	1.00	0.00	0.00	0.50	0.00	1.75	0.25	0.25	0.00	0.25	2.75	0.00	0.00	-0.163574	0.013184	1.077637	-92.120003	130.130005	7.840000	78.00	0.17	0.12
0.13	8.25	11.25	9.00	11.50	8.00	8.00	1.25	2.75	2.25	0.75	1.25	0.50	1.50	2.00	0.00	0.00	-0.164551	0.027344	0.960938	0.630000	1.610000	-1.330000	737.00	-0.19	-0.07	0.00	0.00	0.25	0.50	0.00	0.00	0.50	0.00	1.25	0.75	0.75	0.25	0.00	1.75	0.00	0.00	-0.158203	0.033691	1.032227	-126.349998	114.099998	17.219999	65.00	0.20	0.10
0.14	8.25	12.00	9.25	11.75	8.50	8.25	1.25	2.75	2.00	1.00	1.00	1.00	1.50	2.50	0.25	0.00	-0.151367	0.029785	0.959961	0.980000	2.170000	-1.260000	766.00	-0.19	-0.08	0.00	0.25	0.25	0.75	0.25	0.00	0.50	0.00	1.00	0.50	0.75	0.25	0.00	1.50	0.00	0.00	-0.145508	0.023438	1.164062	-170.309998	91.629997	30.940001	65.00	0.13	0.07
0.15	8.75	12.50	9.50	12.25	8.50	8.50	1.25	3.25	2.25	1.25	1.00	0.75	1.50	2.00	0.25	0.00	-0.155273	0.031250	0.962402	1.190000	3.010000	-1.190000	794.00	-0.19	-0.08	0.00	0.25	0.25	0.50	0.25	0.00	0.50	0.00	0.75	0.50	0.50	0.00	0.00	1.00	0.00	0.00	-0.282715	0.073730	1.184082	-202.369995	65.239998	46.480000	50.00	0.00	0.00
0.16	9.00	12.50	9.75	12.75	8.75	8.75	1.25	3.50	2.25	1.25	1.50	0.75	1.50	2.00	0.25	0.00	-0.155273	0.030762	0.965820	1.120000	3.920000	-1.120000	819.00	-0.19	-0.08	0.00	0.50	0.25	0.50	0.25	0.00	0.50	0.00	0.50	0.50	0.75	0.00	0.00	0.50	0.00	0.00	-0.261719	0.157715	0.985840	-222.389999	44.799999	62.090000	47.00	0.00	0.00
0.17	9.25	13.50	9.75	13.00	8.75	9.00	1.25	3.75	2.75	1.25	1.25	0.75	1.75	1.50	0.25	0.00	-0.162109	0.035156	0.965332	1.190000	4.550000	-1.120000	842.00	-0.19	-0.08	0.00	0.00	0.50	0.50	0.25	0.00	0.50	0.00	0.50	0.50	0.75	0.00	0.00	0.50	0.00	0.00	-0.354492	0.205078	0.979004	-220.850006	29.540001	77.769997	45.00	0.00	0.00
0.18	9.50	13.50	10.00	13.25	9.00	9.00	1.50	3.75	2.50	1.25	1.25	1.00	1.75	2.00	0.25	0.00	-0.156738	0.041992	0.962891	1.260000	5.110000	-1.050000	860.00	-0.19	-0.08	0.25	0.50	0.25	1.00	0.00	0.00	0.50	0.00	0.25	0.50	0.25	0.00	0.00	0.25	0.00	0.00	-0.053711	1.306641	0.790527	-162.190002	4.130000	126.000000	42.00	0.00	0.00
0.19	9.75	13.00	10.00	13.25	9.00	9.50	1.25	4.25	2.50	1.25	1.25	0.75	1.75	2.00	0.25	0.00	-0.159180	0.036133	0.965332	1.050000	6.230000	-1.120000	865.00	-0.19	-0.08	0.00	0.50	0.25	0.75	0.00	0.00	0.50	0.00	0.25	0.25	0.50	0.00	0.00	0.00	0.00	0.00	-0.163086	1.226074	0.998535	-87.500000	-13.580000	179.690002	34.00	0.00	0.00
0.20	9.50	13.75	10.00	13.25	8.75	9.50	1.50	4.25	2.50	1.50	1.50	0.75	1.75	1.75	0.25	0.00	-0.160645	0.036621	0.971680	1.050000	6.860000	-1.120000	873.00	-0.19	-0.08	0.25	0.75	0.25	1.00	0.00	0.00	0.50	0.00	0.25	0.75	0.50	0.00	0.00	0.00	0.00	0.00	-0.127930	0.911133	1.027344	-42.000000	-40.459999	222.880005	47.00	0.00	0.00
0.21	9.50	13.50	10.00	13.50	8.75	9.50	1.50	4.50	2.50	1.50	1.50	1.00	1.75	2.00	0.25	0.25	-0.160156	0.030273	0.968262	0.980000	7.420000	-1.120000	884.00	-0.18	-0.09	0.25	0.25	0.25	0.75	0.00	0.00	0.50	0.00	0.00	0.50	0.50	0.00	0.00	0.00	0.00	0.00	-0.217773	0.519043	0.830566	-42.840000	-59.570000	248.080002	34.00	0.00	0.00
0.22	9.25	13.50	9.75	13.25	8.75	9.75	1.50	4.50	2.25	1.25	1.50	1.00	1.75	2.00	0.00	0.00	-0.163574	0.034668	0.971680	0.840000	7.770000	-1.330000	868.00	-0.19	-0.09	0.00	0.50	0.25	0.75	0.00	0.00	0.50	0.00	0.00	0.50	0.25	0.25	0.00	0.25	0.00	0.00	-0.266602	0.388672	0.720703	-60.970001	-67.620003	257.739990	36.00	0.00	0.00
0.23	9.25	13.50	9.75	13.25	8.75	10.00	1.50	5.00	2.50	1.25	1.50	1.25	1.75	2.00	0.25	0.00	-0.162598	0.028320	0.961426	0.560000	8.540000	-1.540000	887.00	-0.18	-0.09	0.25	0.25	0.25	0.75	0.00	0.00	0.50	0.00	0.00	0.25	0.00	0.00	0.00	0.00	0.00	0.00	-0.296875	0.378418	0.702637	-60.970001	-73.639999	254.940002	26.00	0.00	0.00
0.24	9.25	13.00	10.00	13.00	8.75	9.75	1.50	5.00	2.25	1.25	1.50	1.00	2.00	1.75	0.25	0.25	-0.162598	0.032715	0.963867	0.700000	8.330000	-1.330000	875.00	-0.18	-0.09	0.25	0.50	0.25	0.75	0.00	0.00	0.50	0.00	0.00	0.00	0.25	0.00	0.00	0.00	0.00	0.00	-0.307129	0.331543	0.730957	-42.420002	-81.480003	245.350006	28.00	0.00	0.00
0.25	9.00	12.75	9.75	12.75	8.75	9.75	1.50	5.00	2.50	1.25	1.25	1.00	2.00	2.00	0.25	0.25	-0.164062	0.034668	0.961914	0.700000	8.330000	-1.470000	868.00	-0.18	-0.09	0.25	0.50	0.50	0.75	0.25	0.00	0.50	0.00	0.00	0.25	0.00	0.00	0.00	0.00	0.00	0.00	-0.334473	0.256836	0.750488	-24.360001	-89.529999	234.710007	34.00	0.00	0.00
0.26	9.00	12.50	9.75	12.75	8.75	9.75	1.50	5.00	2.50	1.50	1.50	1.25	1.75	2.00	0.25	0.00	-0.167969	0.039551	0.960449	0.420000	8.470000	-1.470000	870.00	-0.18	-0.09	0.00	0.50	0.25	0.75	0.00	0.00	0.50	0.00	0.00	0.00	0.25	0.00	0.00	0.00	0.00	0.00	-0.375000	0.216797	0.708496	-18.480000	-94.849998	227.570007	26.00	0.00	0.00
0.27	8.75	12.25	9.75	12.75	8.50	10.00	1.50	5.00	2.50	1.50	1.50	1.00	2.25	1.50	0.25	0.00	-0.165039	0.033203	0.961426	0.140000	8.120000	-1.470000	862.00	-0.18	-0.09	0.00	0.50	0.25	1.00	0.00	0.00	0.50	0.00	0.00	0.00	0.00	0.00	0.00	0.00	0.00	0.00	-0.401367	0.288574	0.730957	-19.670000	-97.370003	225.330002	26.00	0.00	0.00
0.28	9.00	12.25	9.50	12.75	8.50	9.75	1.50	5.00	2.50	1.50	1.75	1.00	2.00	1.75	0.25	0.25	-0.166992	0.040527	0.960938	-0.070000	7.700000	-1.400000	863.00	-0.17	-0.09	0.00	0.25	0.50	0.50	0.00	0.00	0.50	0.00	0.25	0.25	0.00	0.00	0.00	0.00	0.00	0.00	-0.436035	0.372070	0.755859	-18.340000	-98.980003	228.130005	27.00	0.00	0.00
0.29	8.75	12.25	9.50	12.50	8.50	10.00	1.50	5.25	2.50	1.50	1.50	1.25	2.50	1.75	0.25	0.00	-0.162598	0.039551	0.956543	-0.280000	7.420000	-1.330000	868.00	-0.17	-0.10	0.25	0.50	0.25	0.75	0.00	0.00	0.50	0.00	0.00	0.25	0.25	0.00	0.00	0.00	0.00	0.00	-0.467773	0.402832	0.752441	-13.650000	-98.699997	234.570007	31.00	0.00	0.00
0.30	8.75	12.00	9.75	12.75	8.50	10.00	1.50	5.25	2.25	1.50	1.75	1.25	2.25	2.00	0.25	0.25	-0.168945	0.038574	0.964355	-0.630000	7.210000	-1.260000	872.00	-0.17	-0.10	0.00	0.75	0.25	1.00	0.00	0.00	0.50	0.00	0.00	0.00	0.00	0.00	0.00	0.00	0.00	0.00	-0.476562	0.363770	0.751953	-13.230000	-96.529999	241.570007	28.00	0.00	0.00
0.31	8.75	12.00	9.75	12.50	8.50	10.00	1.50	5.25	2.25	1.50	1.75	1.25	2.25	2.00	0.25	0.00	-0.166504	0.035156	0.969238	-0.700000	6.790000	-0.980000	867.00	-0.17	-0.10	0.25	0.25	0.50	1.00	0.00	0.00	0.50	0.00	0.00	0.00	0.00	0.00	0.00	0.00	0.00	0.00	-0.453613	0.398926	0.791016	-14.210000	-95.480003	247.309998	29.00	0.00	0.00
0.32	8.50	12.50	9.75	12.50	8.50	10.00	1.50	5.25	2.50	1.25	1.50	1.25	2.25	1.75	0.25	0.25	-0.163086	0.036621	0.962891	-1.120000	6.440000	-0.910000	867.00	-0.17	-0.10	0.00	0.50	0.50	0.75	0.00	0.00	0.50	0.00	0.00	0.00	0.25	0.00	0.00	0.00	0.00	0.00	-0.437012	0.415039	0.813965	-9.310000	-96.040001	250.110001	29.00	0.00	0.00
0.33	9.00	12.25	9.75	12.50	8.50	10.00	1.50	5.25	2.50	1.25	1.75	1.00	2.25	1.75	0.25	0.25	-0.166992	0.037598	0.961426	-1.050000	6.440000	-0.840000	870.00	-0.17	-0.09	0.25	0.50	0.50	1.25	0.00	0.00	0.50	0.00	0.00	0.00	0.25	0.00	0.00	0.00	0.00	0.00	-0.425293	0.398438	0.829102	-1.470000	-97.510002	249.479996	37.00	0.00	0.00
0.34	8.75	12.00	9.75	12.50	8.50	10.00	1.50	5.50	2.50	1.75	1.50	1.25	2.25	1.75	0.50	0.00	-0.170410	0.035645	0.963379	-1.120000	6.230000	-0.840000	875.00	-0.17	-0.10	0.25	0.75	0.50	1.00	0.00	0.00	0.50	0.00	0.00	0.00	0.00	0.00	0.00	0.00	0.00	0.00	-0.407227	0.395996	0.846191	4.550000	-99.680000	247.169998	34.00	0.00	0.00
0.35	8.75	12.00	9.75	12.75	8.50	10.25	1.50	5.25	2.50	1.50	1.75	1.00	2.25	1.75	0.25	0.00	-0.164062	0.039551	0.967773	-1.120000	6.020000	-0.910000	871.00	-0.17	-0.09	0.00	0.50	0.75	1.00	0.00	0.00	0.50	0.00	0.00	0.00	0.25	0.00	0.00	0.00	0.00	0.00	-0.417969	0.388672	0.786133	8.750000	-100.519997	245.630005	34.00	0.00	0.00
0.36	9.00	11.75	9.75	12.75	8.50	10.25	1.50	5.50	2.50	1.50	1.75	1.00	2.25	2.00	0.25	0.25	-0.166016	0.030762	0.965332	-1.260000	5.950000	-0.840000	879.00	-0.17	-0.09	0.25	0.75	0.50	0.75	0.00	0.00	0.50	0.00	0.00	0.25	0.25	0.25	0.00	0.00	0.00	0.00	-0.366699	0.396484	0.796875	23.100000	-93.940002	249.339996	39.00	0.00	0.00
0.37	8.75	11.75	9.75	12.50	8.50	10.25	1.50	5.50	2.25	1.50	1.50	1.25	2.25	2.00	0.25	0.00	-0.163574	0.035645	0.963379	-1.190000	6.020000	-0.770000	869.00	-0.17	-0.10	0.25	0.75	0.50	1.25	0.00	0.00	0.50	0.00	0.00	0.00	0.00	0.00	0.00	0.00	0.00	0.00	-0.366699	0.396484	0.796875	23.100000	-93.940002	249.339996	36.00	0.00	0.00
0.38	9.00	12.00	9.75	12.75	8.50	10.25	1.50	5.50	2.50	1.50	1.75	1.25	2.00	1.75	0.25	0.25	-0.167480	0.040039	0.967773	-1.190000	6.020000	-0.700000	880.00	-0.17	-0.10	0.25	1.00	0.75	1.25	0.00	0.00	0.50	0.00	0.00	0.00	0.25	0.00	0.00	0.00	0.00	0.00	-0.294434	0.213867	0.793457	33.529999	-84.980003	253.259995	44.00	0.00	0.00
0.39	8.75	11.75	9.75	12.50	8.50	10.25	1.50	5.25	2.50	1.50	1.75	1.00	2.25	1.75	0.25	0.00	-0.156250	0.036621	0.963379	-1.260000	6.230000	-0.700000	866.00	-0.17	-0.09	0.25	0.50	0.50	1.25	0.00	0.00	0.50	0.00	0.00	0.00	0.50	0.00	0.00	0.00	0.00	0.00	-0.267578	0.068848	0.810059	38.009998	-79.379997	247.169998	39.00	0.00	0.00
0.40	9.00	12.00	9.75	12.75	8.50	10.50	1.50	5.50	2.25	1.50	1.50	1.25	2.25	2.00	0.25	0.00	-0.160645	0.038574	0.966309	-1.260000	6.090000	-0.630000	879.00	-0.17	-0.10	0.25	1.00	0.50	0.75	0.00	0.00	0.50	0.00	0.00	0.00	0.25	0.25	0.00	0.00	0.00	0.00	-0.198242	-0.135254	0.877441	48.580002	-75.180000	229.949997	38.00	0.00	0.00
0.41	9.00	12.00	9.75	12.50	8.75	10.50	1.50	5.50	2.50	1.50	1.50	1.00	2.25	1.75	0.25	0.00	-0.163086	0.039062	0.966309	-1.190000	5.880000	-0.630000	878.00	-0.17	-0.10	0.25	0.75	0.50	1.00	0.00	0.00	0.50	0.00	0.00	0.25	0.25	0.00	0.25	0.00	0.00	0.00	-0.133301	-0.308594	0.918457	56.910000	-73.639999	202.509995	41.00	0.00	0.00
0.42	8.75	12.00	9.75	12.75	8.50	10.25	1.50	5.50	2.50	1.50	1.50	1.25	2.25	1.75	0.25	0.00	-0.164551	0.036133	0.968262	-1.190000	6.090000	-0.770000	875.00	-0.17	-0.10	0.25	0.75	0.50	1.25	0.00	0.00	0.50	0.00	0.00	0.00	0.25	0.00	0.00	0.00	0.00	0.00	-0.113770	-0.444824	0.868652	57.189999	-70.769997	168.630005	39.00	0.00	0.00
0.43	9.00	11.75	9.75	12.75	8.50	10.50	1.50	5.50	2.25	1.75	1.50	1.25	2.25	1.75	0.25	0.00	-0.161133	0.036133	0.963379	-1.190000	6.230000	-0.980000	878.00	-0.17	-0.10	0.25	0.50	0.25	1.00	0.00	0.00	0.50	0.00	0.00	0.00	0.25	0.00	0.00	0.00	0.00	0.00	-0.114746	-0.543457	0.812988	46.060001	-61.880001	131.389999	31.00	0.00	0.00
0.44	9.00	12.00	9.75	13.00	8.50	10.50	1.50	5.50	2.50	1.50	1.75	1.25	2.00	1.75	0.25	0.00	-0.169434	0.039551	0.965820	-1.120000	6.090000	-1.050000	884.00	-0.17	-0.10	0.25	0.50	0.50	1.25	0.00	0.00	0.50	0.00	0.00	0.00	0.25	0.25	0.25	0.00	0.00	0.00	-0.065918	-0.539062	0.855469	30.940001	-51.029999	92.610001	41.00	0.00	0.00
0.45	8.75	12.00	10.00	12.75	8.50	10.50	1.50	5.50	2.25	1.50	1.75	1.00	2.25	2.00	0.25	0.25	-0.166016	0.037598	0.965332	-0.910000	5.530000	-0.840000	881.00	-0.17	-0.10	0.50	1.25	1.00	2.25	0.25	0.00	0.50	0.00	0.00	0.00	0.25	0.00	0.00	0.00	0.00	0.00	-1.795898	-2.772949	0.473633	-168.070007	30.170000	7.980000	65.00	-0.25	-0.06
0.46	9.00	12.00	9.75	13.25	8.75	10.50	1.50	5.50	2.25	1.50	1.50	1.00	2.25	2.00	0.25	0.00	-0.166992	0.040527	0.963867	-0.980000	5.460000	-0.840000	885.00	-0.17	-0.10	0.75	1.25	1.00	2.00	0.50	0.00	0.50	0.00	0.00	0.50	0.25	0.00	0.50	0.00	0.00	0.00	-3.615234	0.220703	2.778809	-291.970001	74.760002	-113.120003	78.00	-0.19	-0.06
0.47	9.00	12.25	9.75	13.00	8.50	10.25	1.50	5.25	2.00	1.50	1.50	1.25	2.25	1.50	0.00	0.00	-0.168457	0.035156	0.964355	-1.120000	5.670000	-0.910000	868.00	-0.18	-0.10	1.00	1.25	1.50	2.25	0.75	0.00	0.75	0.25	0.50	0.50	0.50	0.25	0.75	0.25	0.00	0.00	-0.981934	0.161621	2.410645	-156.660004	49.490002	-70.980003	115.00	-0.12	-0.04
0.48	9.25	12.00	9.75	13.00	8.50	10.50	1.50	5.25	2.50	1.25	1.50	1.00	2.00	2.00	0.25	0.25	-0.160156	0.034668	0.970215	-1.050000	6.020000	-0.770000	878.00	-0.18	-0.09	1.00	1.25	1.50	2.50	1.25	0.00	0.75	0.50	0.25	0.50	0.50	0.25	0.50	0.25	0.00	0.00	-0.083496	-0.395508	0.974609	-56.139999	4.340000	-9.240000	122.00	-0.14	-0.05
0.49	8.75	11.75	9.50	12.75	8.25	10.25	1.50	5.25	2.25	1.25	1.50	1.00	2.25	2.00	0.00	0.00	-0.157715	0.041992	0.966309	-1.190000	7.140000	-0.700000	855.00	-0.18	-0.10	1.25	2.00	2.25	3.00	1.50	0.25	0.75	0.25	0.25	0.50	0.50	0.25	1.00	0.50	0.00	0.00	-0.022949	-0.115723	1.057617	-18.830000	-14.560000	1.610000	153.00	-0.15	-0.06
0.50	8.75	11.25	9.25	12.25	8.00	10.25	1.50	5.25	2.25	1.25	1.50	1.25	2.00	1.75	0.25	0.25	-0.161133	0.031738	0.969238	-1.190000	8.120000	-0.700000	841.00	-0.17	-0.10	1.50	2.50	2.25	3.75	1.75	0.75	1.00	0.75	0.75	0.50	0.75	0.50	1.00	1.00	0.00	0.00	-0.111328	0.226562	0.910645	-11.620000	-18.200001	2.590000	204.00	-0.12	-0.06
0.51	8.50	11.25	9.25	12.25	8.25	9.75	1.50	5.25	2.00	1.25	1.50	1.25	2.00	1.75	0.25	0.00	-0.156738	0.044922	0.960449	-1.470000	9.380000	-0.770000	831.00	-0.17	-0.10	1.75	2.25	2.50	3.75	2.00	0.50	1.00	1.00	0.50	0.75	1.00	0.75	1.25	1.00	0.00	0.25	-0.191406	0.045410	1.072266	-19.040001	-14.910000	5.320000	219.00	-0.11	-0.07
0.52	8.25	10.75	9.25	11.75	8.00	9.75	1.50	5.25	2.00	1.25	1.25	1.00	2.00	1.75	0.25	0.00	-0.165039	0.035645	0.958984	-2.030000	9.870000	-0.840000	811.00	-0.17	-0.10	1.75	2.50	2.50	4.25	2.00	0.75	1.00	0.75	1.00	0.75	1.00	0.75	1.25	1.25	0.00	0.25	-0.093262	-0.034668	1.015625	-11.620000	-9.800000	3.780000	234.00	-0.11	-0.06
0.53	7.75	10.25	9.00	11.50	7.75	9.50	1.25	5.00	2.25	1.25	1.50	1.00	1.75	1.75	0.25	0.00	-0.161621	0.042969	0.966309	-2.450000	10.500000	-0.980000	786.00	-0.17	-0.10	1.75	2.50	2.50	4.50	2.25	1.00	1.00	0.75	0.75	0.50	1.00	0.75	1.75	1.00	0.00	0.25	-0.115234	0.068848	0.997070	-2.520000	-5.810000	4.690000	239.00	-0.12	-0.08
0.54	7.50	9.75	8.50	10.75	7.50	9.25	1.25	5.00	2.00	1.25	1.25	1.00	2.00	1.75	0.00	0.00	-0.166504	0.039551	0.968750	-3.220000	12.880000	-1.610000	753.00	-0.17	-0.10	2.00	2.50	2.75	4.50	2.00	1.00	1.00	0.75	1.00	1.00	1.00	0.75	1.75	1.25	0.00	0.25	-0.130371	0.049805	1.002441	0.490000	-3.290000	6.160000	252.00	-0.10	-0.07
0.55	6.75	9.25	8.25	10.50	7.25	8.75	1.25	5.00	1.75	1.25	1.50	1.00	2.00	1.75	0.25	0.00	-0.169434	0.036133	0.967285	-3.360000	13.510000	-1.750000	729.00	-0.16	-0.10	2.00	2.75	2.75	4.75	2.00	1.25	1.00	1.00	1.00	1.25	1.00	1.00	1.75	1.25	0.00	0.25	-0.126953	0.057129	0.996094	2.520000	-2.170000	6.230000	269.00	-0.10	-0.08
0.56	6.50	8.50	8.00	10.00	7.00	8.50	1.25	4.50	2.00	1.25	1.50	1.25	1.50	1.75	0.00	0.25	-0.165527	0.042480	0.963867	-3.080000	14.070000	-1.750000	699.00	-0.16	-0.10	1.75	3.00	2.50	5.00	2.25	1.50	1.00	1.00	1.00	1.00	1.00	1.00	1.50	1.25	0.25	0.25	-0.142578	0.074219	0.987305	2.870000	-2.380000	6.370000	272.00	-0.10	-0.08
0.57	6.00	7.75	7.75	9.50	6.50	8.25	1.25	4.25	2.00	1.50	1.25	1.00	1.75	2.00	0.25	0.00	-0.171387	0.030273	0.964844	-2.870000	14.560000	-1.820000	669.00	-0.15	-0.09	1.75	2.75	2.75	5.00	2.00	1.25	1.00	1.25	1.00	1.25	1.25	0.75	2.00	1.00	0.00	0.25	-0.136230	0.068359	0.992188	2.030000	-3.710000	5.390000	273.00	-0.10	-0.09
0.58	5.50	7.50	7.50	9.00	6.25	8.00	1.25	4.25	1.75	1.25	1.50	0.75	1.75	2.00	0.25	0.00	-0.174805	0.041992	0.958984	-2.730000	14.490000	-1.890000	642.00	-0.15	-0.10	2.00	3.00	2.75	5.00	2.25	1.75	1.00	1.25	1.00	1.00	1.00	1.00	1.75	1.00	0.00	0.25	-0.126953	0.073242	0.988281	0.770000	-4.690000	4.270000	281.00	-0.11	-0.09
0.59	4.75	6.75	7.00	8.50	6.00	7.25	1.25	3.75	1.75	1.25	1.50	1.00	1.75	2.00	0.25	0.00	-0.173828	0.029785	0.959961	-2.380000	14.000000	-1.820000	600.00	-0.15	-0.09	1.75	3.25	3.00	5.25	2.25	1.75	1.00	1.50	1.00	1.00	1.00	1.00	2.00	1.00	0.25	0.25	-0.127441	0.063477	0.989746	-1.260000	-5.320000	3.430000	295.00	-0.11	-0.10
0.60	4.50	6.25	6.75	8.25	5.75	7.25	1.25	3.50	2.00	1.25	1.50	1.00	1.50	2.00	0.25	0.00	-0.181641	0.036133	0.954102	-2.240000	14.000000	-1.890000	582.00	-0.14	-0.09	2.00	3.50	3.00	5.25	2.25	1.75	1.00	1.75	0.25	1.25	1.00	1.00	2.25	1.00	0.25	0.25	-0.129395	0.063965	0.989258	-2.520000	-6.020000	2.800000	299.00	-0.12	-0.11
0.61	4.00	6.00	6.25	7.75	5.50	6.75	1.00	3.50	2.00	1.25	1.50	1.00	1.50	1.75	0.25	0.00	-0.174316	0.034180	0.955566	-2.100000	13.510000	-1.820000	550.00	-0.14	-0.09	2.00	3.00	3.25	5.50	2.50	2.25	1.00	1.50	1.25	0.75	1.25	1.00	2.25	1.25	0.00	0.50	-0.123535	0.056641	0.980469	-2.870000	-6.510000	2.730000	315.00	-0.11	-0.10
0.62	3.50	5.75	6.00	7.25	5.25	6.50	1.25	3.00	2.25	1.25	1.50	0.75	1.50	1.75	0.00	0.25	-0.182617	0.036621	0.959961	-2.030000	12.670000	-1.750000	524.00	-0.13	-0.09	2.25	3.75	3.25	5.75	2.50	2.50	1.00	1.50	1.00	1.25	1.25	1.00	2.25	1.25	0.00	0.50	-0.122070	0.057617	0.987305	-2.870000	-6.440000	2.660000	332.00	-0.11	-0.10
0.63	3.50	5.25	5.50	6.75	5.00	6.00	1.00	3.25	1.75	1.00	1.25	0.75	1.25	2.00	0.25	0.00	-0.178223	0.037109	0.956543	-1.960000	12.040000	-1.890000	490.00	-0.13	-0.09	2.25	3.75	3.25	5.75	2.50	2.50	1.00	1.75	1.00	1.00	1.25	1.00	2.00	0.75	0.00	0.50	-0.125977	0.055664	0.995117	-2.100000	-6.020000	2.660000	327.00	-0.12	-0.11
0.64	3.00	5.25	5.50	6.75	4.75	6.00	1.00	3.00	1.50	1.25	1.50	0.75	1.50	1.75	0.25	0.00	-0.177734	0.034668	0.957520	-2.100000	11.690000	-2.170000	480.00	-0.13	-0.10	2.50	3.50	3.50	6.00	2.50	2.75	1.00	1.75	1.00	1.25	1.50	1.00	2.25	1.00	0.00	0.25	-0.123535	0.052734	0.991699	-0.840000	-5.950000	2.940000	344.00	-0.12	-0.10
0.65	2.75	5.00	5.25	6.50	4.50	5.50	1.00	2.75	2.00	1.00	1.25	0.75	1.25	1.75	0.25	0.00	-0.178223	0.032227	0.956055	-2.100000	11.060000	-2.100000	457.00	-0.13	-0.09	2.50	4.00	3.50	6.00	2.50	2.75	1.00	1.75	1.00	1.25	1.25	0.75	2.00	1.00	0.00	0.25	-0.126953	0.046875	0.996094	0.560000	-5.740000	3.290000	341.00	-0.13	-0.10
0.66	2.75	4.25	5.00	6.25	4.50	5.50	1.00	2.75	2.00	1.25	1.50	0.75	1.50	1.50	0.25	0.00	-0.184082	0.037109	0.957031	-2.100000	10.710000	-2.030000	449.00	-0.12	-0.09	2.75	4.25	4.00	6.00	2.50	3.00	1.00	2.00	0.75	1.25	1.25	1.00	2.25	0.75	0.00	0.25	-0.133301	0.048340	0.993652	1.890000	-5.530000	3.920000	357.00	-0.14	-0.11
0.67	2.50	4.00	5.00	5.75	4.25	5.00	1.00	2.75	2.00	1.25	1.25	1.25	1.25	1.75	0.25	0.00	-0.179199	0.029785	0.962891	-1.960000	9.940000	-1.890000	433.00	-0.11	-0.09	2.75	5.00	4.00	6.25	2.75	3.25	1.00	2.00	0.75	1.00	1.25	0.75	2.00	0.75	0.00	0.50	-0.122070	0.051270	0.985352	2.870000	-5.670000	4.550000	366.00	-0.15	-0.11
0.68	2.50	4.25	4.75	5.75	4.00	5.00	1.00	2.50	2.00	1.25	1.25	0.75	1.25	2.00	0.25	0.00	-0.185547	0.034668	0.958496	-1.820000	9.310000	-1.750000	423.00	-0.11	-0.08	3.00	4.75	3.75	6.50	2.75	3.50	1.00	2.25	0.75	1.25	1.25	1.00	2.50	1.00	0.25	0.25	-0.102539	0.064453	0.973145	3.150000	-5.810000	4.970000	386.00	-0.13	-0.12
0.69	2.50	4.00	4.50	5.75	4.00	5.00	1.00	2.50	2.00	1.25	1.50	0.75	1.25	2.00	0.00	0.25	-0.185547	0.029297	0.955566	-1.820000	8.890000	-1.540000	420.00	-0.11	-0.08	3.00	5.00	4.25	7.00	2.75	4.00	1.00	2.50	1.00	1.00	1.00	1.00	2.50	1.00	0.00	0.50	-0.098633	0.066406	0.981934	2.240000	-5.600000	4.900000	406.00	-0.14	-0.12
0.70	2.25	3.50	4.25	5.75	3.75	4.75	1.00	2.25	1.75	1.00	1.50	0.75	1.25	1.75	0.00	0.00	-0.190918	0.031738	0.963867	-1.890000	8.260000	-1.190000	391.00	-0.11	-0.09	3.00	5.25	4.25	7.25	2.75	4.25	1.25	2.50	1.00	1.50	1.50	1.00	2.50	0.75	0.25	0.25	-0.105469	0.071289	0.969727	0.420000	-5.180000	4.340000	427.00	-0.13	-0.12
0.71	1.75	3.75	4.25	5.75	3.75	4.50	1.00	2.25	2.00	1.25	1.50	0.50	1.25	1.75	0.25	0.00	-0.190430	0.031250	0.964844	-2.030000	7.280000	-0.700000	391.00	-0.10	-0.08	3.25	5.25	4.25	7.25	3.00	4.25	1.25	2.75	1.25	1.00	1.50	1.25	2.50	0.75	0.25	0.25	-0.103516	0.074707	0.981445	-1.400000	-4.410000	3.710000	437.00	-0.13	-0.12
0.72	2.00	3.50	4.00	5.50	3.75	4.50	1.00	2.25	2.00	1.00	1.50	0.75	1.25	2.00	0.50	0.00	-0.190430	0.031250	0.964844	-2.030000	7.280000	-0.700000	391.00	-0.10	-0.08	3.25	5.25	4.50	7.50	3.00	4.75	1.25	2.75	1.00	1.25	1.25	1.00	2.50	0.75	0.00	0.25	-0.112793	0.071289	0.987305	-3.080000	-3.640000	2.940000	439.00	-0.14	-0.12
0.73	2.00	3.25	4.00	5.50	3.50	4.25	1.00	2.25	1.75	1.25	1.50	0.50	1.25	1.75	0.25	0.00	-0.191406	0.041016	0.967285	-2.100000	7.070000	-0.700000	375.00	-0.10	-0.08	3.25	5.25	4.50	7.50	3.25	4.75	1.25	3.00	1.50	1.50	1.50	1.25	3.00	1.00	0.25	0.50	-0.112793	0.069824	0.982910	-4.130000	-3.080000	2.310000	470.00	-0.12	-0.12
0.74	2.00	3.50	3.75	5.25	3.50	4.25	1.00	2.00	1.75	1.25	1.25	1.00	1.25	2.25	0.25	0.00	-0.187012	0.035156	0.961426	-2.030000	7.140000	-0.980000	375.00	-0.09	-0.08	3.25	5.50	4.50	7.75	3.25	4.50	1.25	3.00	1.25	1.25	1.75	1.25	2.75	1.00	0.00	0.50	-0.110840	0.068848	0.996094	-4.620000	-2.590000	1.820000	465.00	-0.13	-0.12
0.75	2.00	3.50	3.75	5.25	3.25	3.75	1.00	2.25	2.00	1.00	1.25	0.75	1.00	1.75	0.25	0.00	-0.182129	0.030762	0.961914	-1.960000	7.420000	-1.260000	362.00	-0.10	-0.08	3.50	5.50	4.50	7.75	3.75	5.00	1.25	3.25	1.00	1.25	1.50	1.00	2.75	1.00	0.00	0.50	-0.120117	0.061035	0.999023	-4.760000	-2.170000	1.470000	473.00	-0.14	-0.12
0.76	2.00	3.25	3.75	5.25	3.25	3.50	1.00	2.00	1.75	1.00	1.50	0.75	1.25	1.75	0.00	0.00	-0.185547	0.030762	0.962402	-1.960000	7.490000	-1.330000	352.00	-0.10	-0.08	3.50	5.50	4.75	7.75	3.75	5.00	1.25	3.25	1.25	1.50	1.50	1.25	2.75	0.75	0.25	0.50	-0.131348	0.058105	1.000000	-4.130000	-2.170000	1.400000	485.00	-0.13	-0.12
0.77	2.00	3.25	3.25	5.00	3.25	3.50	1.00	1.75	1.50	1.00	1.25	0.75	1.00	1.75	0.25	0.00	-0.180664	0.029785	0.959961	-1.820000	7.980000	-1.680000	335.00	-0.10	-0.08	3.25	5.50	4.75	7.75	3.50	5.00	1.25	3.25	1.25	1.25	1.75	1.00	2.75	0.50	0.00	0.25	-0.129395	0.062012	1.004395	-2.870000	-2.730000	1.610000	471.00	-0.14	-0.12
0.78	1.75	3.50	3.25	5.00	3.00	3.25	1.00	2.00	2.25	1.00	1.25	0.75	1.00	1.75	0.25	0.00	-0.188477	0.031738	0.962402	-1.750000	8.050000	-1.680000	342.00	-0.09	-0.07	3.50	5.50	5.00	8.00	3.75	5.25	1.25	3.25	1.00	1.50	1.50	1.25	3.00	0.75	0.25	0.50	-0.147949	0.054688	1.001953	2.100000	-5.950000	2.240000	492.00	-0.13	-0.12
0.79	1.75	3.50	3.25	4.75	3.00	3.25	1.00	1.75	2.00	1.00	1.25	0.75	1.00	2.00	0.25	0.00	-0.189453	0.033203	0.959473	-1.470000	7.980000	-1.540000	335.00	-0.09	-0.07	3.50	5.50	5.00	8.00	3.75	5.00	1.25	3.25	0.75	1.25	1.25	1.25	2.75	0.50	0.00	0.25	-0.120117	0.060059	0.989746	4.690000	-8.050000	2.660000	473.00	-0.15	-0.12
0.80	1.75	3.00	3.25	4.50	3.00	3.00	1.00	1.75	2.00	1.00	1.25	0.50	1.25	1.50	0.25	0.00	-0.188477	0.024414	0.965332	-0.840000	7.630000	-1.260000	320.00	-0.09	-0.07	3.75	5.75	5.00	8.25	3.75	5.25	1.00	3.25	1.00	1.00	1.50	1.00	2.75	0.50	0.00	0.25	-0.116699	0.064941	0.992676	5.180000	-8.540000	2.660000	480.00	-0.15	-0.13
0.81	1.75	3.00	3.25	4.75	2.75	2.75	0.75	1.75	1.25	1.00	1.25	0.75	1.25	1.50	0.00	0.00	-0.190918	0.023438	0.966797	0.210000	7.210000	-1.050000	304.00	-0.11	-0.09	3.75	5.75	5.00	8.25	3.50	5.25	1.00	3.25	0.75	0.75	1.25	1.25	2.50	0.50	0.00	0.25	-0.119141	0.062500	0.996094	5.250000	-8.540000	2.660000	469.00	-0.16	-0.13
0.82	2.00	3.25	3.25	4.75	2.75	2.75	1.00	1.75	1.75	0.75	1.25	0.75	1.00	1.75	0.00	0.00	-0.200684	0.023438	0.960938	1.120000	6.860000	-0.630000	316.00	-0.10	-0.07	4.00	5.75	5.50	8.25	3.50	5.25	1.00	3.00	0.75	1.00	1.25	1.00	2.50	0.50	0.00	0.25	-0.114746	0.072266	0.995117	4.830000	-8.190000	2.730000	474.00	-0.16	-0.12
0.83	1.75	3.25	3.25	4.75	2.75	3.00	0.75	1.50	1.50	1.00	1.00	0.50	1.00	1.25	0.00	0.00	-0.208496	0.029297	0.977539	2.450000	5.600000	-0.210000	299.00	-0.12	-0.08	4.00	6.25	5.25	8.75	3.75	5.25	1.00	3.00	0.75	0.75	1.00	0.75	2.50	0.50	0.00	0.25	-0.134277	0.062988	1.012695	5.880000	-9.170000	2.940000	476.00	-0.17	-0.12
0.84	1.75	3.25	3.25	5.00	2.75	3.00	0.75	1.75	1.00	0.50	1.00	0.50	0.75	1.50	0.00	0.00	-0.201660	0.033203	0.967285	3.850000	3.640000	0.280000	293.00	-0.13	-0.09	4.25	6.50	5.75	8.75	3.50	5.75	1.00	3.00	0.75	1.25	1.50	1.00	1.75	0.25	0.00	0.00	-0.119629	0.073730	1.009277	7.280000	-10.710000	2.940000	492.00	-0.18	-0.12
0.85	2.00	3.50	3.25	4.75	2.75	2.75	0.75	1.75	1.00	0.75	1.00	0.50	0.75	1.25	0.00	0.00	-0.192383	0.032227	0.963379	4.410000	2.100000	0.420000	293.00	-0.14	-0.09	4.00	6.75	5.75	8.75	3.50	5.50	1.00	2.50	0.75	1.00	1.00	1.00	1.50	0.25	0.00	0.25	-0.104492	0.071289	0.978027	6.930000	-10.920000	2.730000	473.00	-0.18	-0.11
0.86	2.00	4.00	3.25	5.25	2.75	3.25	0.75	1.50	0.75	0.50	1.00	0.50	0.75	0.75	0.00	0.00	-0.196777	0.033691	0.958984	4.480000	0.350000	0.560000	295.00	-0.16	-0.10	4.50	7.25	6.25	9.00	3.50	5.50	0.75	2.50	0.75	0.75	1.25	1.00	1.50	0.00	0.00	0.00	-0.105469	0.087891	0.990723	5.880000	-10.360000	2.380000	484.00	-0.20	-0.11
0.87	2.50	4.00	3.50	5.25	2.75	3.25	0.50	1.50	0.75	0.25	0.75	0.50	0.75	0.75	0.00	0.00	-0.188477	0.028809	0.962402	4.060000	-0.770000	0.420000	294.00	-0.18	-0.10	5.00	7.50	6.00	9.00	3.50	5.25	0.75	2.25	0.50	0.75	1.25	1.00	1.50	0.00	0.00	0.25	-0.099121	0.074707	0.989258	5.110000	-9.660000	2.310000	480.00	-0.20	-0.11
0.88	2.50	4.50	3.75	5.50	2.75	3.50	0.50	1.50	0.75	0.50	0.50	0.25	0.75	0.50	0.00	0.00	-0.185547	0.037109	0.976562	4.480000	-2.520000	0.280000	302.00	-0.19	-0.10	5.25	7.75	6.25	9.00	3.25	5.25	0.75	2.00	0.50	1.00	1.25	0.75	1.50	0.00	0.00	0.00	-0.107910	0.076660	0.995605	4.830000	-9.170000	2.450000	480.00	-0.21	-0.11
0.89	2.75	4.75	4.25	6.00	2.75	4.00	0.50	1.50	0.50	0.25	0.50	0.25	0.75	0.50	0.00	0.00	-0.178223	0.047363	0.964844	4.620000	-3.920000	0.280000	317.00	-0.20	-0.11	5.75	8.00	6.25	9.00	3.25	5.25	0.75	1.50	0.25	0.75	0.75	0.75	1.00	0.00	0.00	0.00	-0.099609	0.081055	1.000488	5.040000	-9.240000	2.100000	464.00	-0.23	-0.10
0.90	3.25	5.00	4.50	6.25	3.00	4.00	0.50	1.50	0.50	0.50	0.50	0.50	0.50	0.50	0.00	0.00	-0.171387	0.041016	0.962891	4.340000	-4.200000	0.070000	336.00	-0.20	-0.10	5.75	8.25	6.00	9.25	3.00	4.50	0.75	1.50	0.25	0.50	1.00	0.75	1.00	0.00	0.00	0.00	-0.095703	0.057129	0.991699	6.650000	-9.870000	1.680000	456.00	-0.23	-0.10
0.91	3.25	5.50	5.00	6.50	3.00	4.25	0.50	1.50	0.25	0.50	0.50	0.25	0.25	0.50	0.00	0.00	-0.187500	0.029785	0.972168	5.390000	-4.480000	-0.280000	344.00	-0.22	-0.10	5.75	8.50	6.50	9.00	3.25	5.00	0.75	1.50	0.00	0.75	0.75	0.75	0.75	0.00	0.00	0.00	-0.095215	0.080078	0.990234	7.420000	-10.290000	1.330000	463.00	-0.24	-0.10
0.92	3.75	6.00	5.00	7.25	3.00	4.25	0.50	1.25	0.25	0.25	0.50	0.25	0.25	0.50	0.00	0.00	-0.173828	0.035645	0.969238	6.860000	-5.390000	-0.560000	355.00	-0.23	-0.10	6.50	8.50	6.50	9.25	3.00	4.50	0.50	1.25	0.25	0.50	0.75	0.25	0.75	0.00	0.00	0.00	-0.103027	0.070312	1.006348	7.630000	-11.410000	1.050000	453.00	-0.25	-0.09
0.93	4.00	6.25	5.25	7.50	3.25	4.50	0.50	1.50	0.25	0.00	0.25	0.00	0.25	0.50	0.00	0.00	-0.182617	0.050781	0.984863	8.120000	-7.000000	-0.630000	367.00	-0.24	-0.10	6.50	8.50	6.25	9.25	3.00	4.50	0.75	1.00	0.25	0.50	0.75	0.50	0.75	0.00	0.00	0.00	-0.099121	0.070312	0.994141	9.100000	-13.860000	1.260000	453.00	-0.25	-0.09
0.94	4.50	6.75	5.25	8.25	3.25	4.75	0.50	1.50	0.25	0.00	0.50	0.00	0.25	0.50	0.00	0.00	-0.168457	0.018066	0.988770	9.730000	-8.820000	-0.770000	390.00	-0.24	-0.10	6.50	8.75	6.50	9.25	2.75	4.25	0.50	0.75	0.25	0.25	0.75	0.50	0.50	0.00	0.00	0.00	-0.096680	0.086426	0.967285	10.080000	-15.050000	1.400000	441.00	-0.26	-0.09
0.95	4.75	7.50	5.75	8.25	3.25	5.00	0.50	1.50	0.25	0.00	0.25	0.00	0.50	0.00	0.00	0.00	-0.172363	0.055664	0.978027	11.340000	-10.150000	-0.840000	404.00	-0.25	-0.10	6.75	9.00	6.50	9.25	2.50	4.00	0.50	0.50	0.25	0.25	0.50	0.50	0.50	0.00	0.00	0.00	-0.093262	0.083984	0.987793	9.310000	-15.540000	1.820000	434.00	-0.27	-0.09
0.96	5.50	8.25	5.75	8.50	3.25	5.00	0.50	1.25	0.00	0.00	0.00	0.25	0.50	0.25	0.00	0.00	-0.151367	0.046387	0.971680	12.250000	-8.820000	-0.420000	416.00	-0.26	-0.10	7.25	9.00	6.50	9.25	2.75	3.50	0.75	0.75	0.00	0.50	0.75	0.50	0.75	0.00	0.00	0.00	-0.086426	0.089355	1.000977	9.520000	-17.150000	1.750000	448.00	-0.26	-0.08
0.97	5.50	8.50	6.00	8.75	3.25	5.00	0.25	1.25	0.00	0.00	0.25	0.00	0.25	0.00	0.00	0.00	-0.149414	0.057129	0.960449	12.390000	-7.490000	-0.770000	416.00	-0.27	-0.10	7.25	9.25	6.25	9.25	2.50	3.25	0.50	0.50	0.00	0.25	0.75	0.50	0.50	0.00	0.00	0.00	-0.086426	0.089355	1.000977	9.520000	-17.150000	1.750000	429.00	-0.27	-0.08
0.98	5.75	8.50	6.50	8.75	3.25	5.00	0.25	1.25	0.00	0.00	0.50	0.00	0.25	0.25	0.00	0.00	-0.147949	0.067871	0.957520	11.550000	-5.670000	-0.840000	429.00	-0.27	-0.10	7.00	9.25	6.25	9.00	2.50	3.25	0.50	0.25	0.00	0.25	0.50	0.50	0.50	0.00	0.00	0.00	-0.087891	0.096191	0.988281	9.590000	-19.460001	2.240000	418.00	-0.28	-0.08
0.99	6.25	8.75	6.25	9.00	3.00	5.00	0.25	1.25	0.00	0.00	0.25	0.00	0.25	0.00	0.00	0.00	-0.145996	0.064453	0.949707	10.080000	-3.920000	-0.910000	429.00	-0.28	-0.10	7.25	9.75	6.25	9.00	2.25	3.00	0.50	0.50	0.00	0.25	0.50	0.25	0.25	0.00	0.00	0.00	-0.079590	0.102539	0.973633	8.680000	-19.879999	2.380000	418.00	-0.29	-0.08
1.00	6.25	9.00	6.50	9.00	3.00	5.00	0.25	1.25	0.00	0.00	0.25	0.00	0.25	0.00	0.00	0.00	-0.136719	0.064941	0.933105	8.190000	-1.680000	-1.050000	434.00	-0.28	-0.10	7.75	9.50	6.50	9.00	2.25	2.25	0.50	0.50	0.00	0.75	0.50	0.50	0.50	0.00	0.00	0.00	-0.084473	0.098145	0.948730	7.910000	-19.460001	2.450000	426.00	-0.28	-0.07
1.01	6.25	9.50	6.25	8.75	3.00	5.00	0.25	1.25	0.00	0.00	0.00	0.00	0.25	0.00	0.00	0.00	-0.137695	0.074707	0.946289	6.020000	0.910000	-1.120000	430.00	-0.28	-0.10	7.75	9.75	6.50	9.00	2.25	2.75	0.50	0.25	0.00	0.25	0.50	0.25	0.50	0.00	0.00	0.00	-0.066406	0.107422	0.938477	6.580000	-17.639999	2.730000	422.00	-0.29	-0.07
1.02	6.25	9.00	6.25	9.00	2.75	5.00	0.25	1.00	0.00	0.00	0.00	0.00	0.00	0.00	0.00	0.00	-0.139648	0.065918	0.948730	4.480000	2.450000	-1.050000	420.00	-0.28	-0.10	7.50	9.75	6.50	9.25	2.25	3.25	0.50	0.25	0.00	0.25	0.50	0.50	0.25	0.00	0.00	0.00	-0.068359	0.092285	0.958984	5.880000	-15.400000	3.430000	428.00	-0.28	-0.08
1.03	6.25	9.00	6.25	8.75	2.75	5.00	0.25	1.00	0.00	0.00	0.00	0.00	0.25	0.00	0.00	0.00	-0.133301	0.077637	0.937988	2.730000	4.200000	-1.120000	419.00	-0.28	-0.10	8.00	10.25	6.50	9.50	2.25	3.00	0.50	0.25	0.00	0.50	0.25	0.25	0.50	0.00	0.00	0.00	-0.055176	0.097168	0.944336	5.740000	-13.580000	3.290000	437.00	-0.29	-0.08
1.04	6.00	9.00	6.00	9.00	2.75	5.00	0.25	1.00	0.00	0.00	0.00	0.25	0.00	0.00	0.00	0.00	-0.141113	0.078125	0.940918	0.420000	7.000000	-1.190000	417.00	-0.28	-0.10	7.75	10.50	6.75	9.50	2.50	3.25	0.50	0.25	0.00	0.00	0.25	0.50	0.75	0.00	0.00	0.00	-0.046387	0.111328	0.916992	4.760000	-10.710000	3.360000	445.00	-0.29	-0.08
1.05	6.00	8.75	6.00	8.50	2.75	5.00	0.25	1.00	0.00	0.00	0.25	0.00	0.00	0.00	0.00	0.00	-0.139160	0.075195	0.945801	-1.750000	9.170000	-1.190000	409.00	-0.28	-0.10	8.25	10.75	6.75	9.75	2.25	3.00	0.50	0.25	0.00	0.50	0.50	0.50	0.25	0.00	0.00	0.00	-0.057129	0.109375	0.944824	3.150000	-7.000000	4.060000	453.00	-0.29	-0.08
1.06	5.75	8.50	6.00	8.50	2.75	4.75	0.25	1.25	0.00	0.00	0.00	0.00	0.25	0.00	0.00	0.00	-0.144531	0.069336	0.941895	-3.570000	11.340000	-1.330000	405.00	-0.28	-0.10	8.50	11.25	6.75	10.00	2.50	3.50	0.50	0.50	0.00	0.25	0.75	0.25	0.25	0.00	0.00	0.00	-0.068848	0.097656	0.962402	2.100000	-5.250000	4.060000	473.00	-0.29	-0.08
1.07	5.75	8.50	5.75	8.50	2.75	4.75	0.25	1.00	0.00	0.00	0.25	0.00	0.00	0.00	0.00	0.00	-0.143555	0.071777	0.955566	-5.040000	13.230000	-1.400000	399.00	-0.28	-0.10	8.75	11.75	7.00	10.00	2.50	3.75	0.50	0.50	0.00	0.25	0.50	0.25	0.50	0.00	0.00	0.00	-0.060059	0.118652	0.957031	1.260000	-4.060000	3.990000	485.00	-0.29	-0.08
1.08	5.25	8.00	5.75	8.25	2.50	4.25	0.25	1.00	0.00	0.00	0.00	0.00	0.25	0.00	0.00	0.00	-0.134277	0.071289	0.947754	-6.580000	15.680000	-1.680000	378.00	-0.28	-0.10	9.00	12.25	7.50	10.25	2.75	3.75	0.50	0.50	0.00	0.25	0.50	0.50	0.50	0.00	0.00	0.00	-0.071289	0.116699	0.971191	-0.070000	-3.010000	4.690000	506.00	-0.29	-0.08
1.09	5.00	7.75	5.50	8.00	2.50	4.25	0.25	1.00	0.00	0.00	0.00	0.00	0.00	0.00	0.00	0.00	-0.132324	0.074219	0.940430	-8.190000	18.549999	-2.030000	365.00	-0.28	-0.10	9.50	12.75	7.50	10.50	2.50	4.50	0.50	0.75	0.00	0.25	0.50	0.50	0.50	0.00	0.00	0.00	-0.057129	0.104980	0.960449	-1.470000	-2.520000	4.830000	527.00	-0.29	-0.09
1.10	5.00	7.25	5.25	7.50	2.50	4.00	0.25	1.00	0.00	0.00	0.25	0.00	0.00	0.00	0.00	0.00	-0.133789	0.065918	0.941406	-9.940000	22.120001	-2.380000	352.00	-0.28	-0.10	9.75	13.00	7.75	11.00	2.75	5.00	0.50	0.75	0.00	0.25	0.50	0.50	0.50	0.00	0.00	0.00	-0.059570	0.120117	0.957520	-3.640000	-1.540000	4.550000	549.00	-0.28	-0.09
1.11	4.50	6.75	5.00	7.00	2.25	3.75	0.25	1.25	0.00	0.00	0.00	0.00	0.25	0.00	0.00	0.00	-0.129395	0.063965	0.937500	-11.830000	25.340000	-2.800000	332.00	-0.27	-0.10	10.50	13.50	8.00	11.25	2.75	5.25	0.50	1.00	0.00	0.50	0.50	0.50	0.50	0.00	0.00	0.00	-0.062012	0.124023	0.954102	-7.000000	-0.210000	4.760000	576.00	-0.28	-0.09
1.12	3.75	6.25	4.50	6.50	2.25	3.25	0.25	1.00	0.00	0.00	0.25	0.00	0.25	0.00	0.00	0.00	-0.137695	0.063965	0.947754	-13.930000	29.049999	-3.500000	302.00	-0.27	-0.10	11.00	14.25	8.25	11.50	3.00	5.50	0.50	1.00	0.25	0.25	0.75	0.75	0.50	0.00	0.00	0.00	-0.062500	0.113281	0.981934	-10.080000	0.910000	4.900000	605.00	-0.28	-0.09
1.13	3.50	5.25	4.00	6.00	2.00	3.00	0.25	1.00	0.00	0.00	0.25	0.00	0.00	0.00	0.00	0.00	-0.147461	0.058105	0.954102	-15.680000	32.200001	-4.340000	271.00	-0.27	-0.10	11.75	14.50	8.75	12.00	3.25	5.75	0.50	1.25	0.00	0.25	0.50	0.50	0.75	0.00	0.00	0.25	-0.085449	0.099609	1.002441	-11.550000	0.280000	4.550000	630.00	-0.28	-0.09
1.14	2.50	5.00	3.50	5.50	1.75	2.50	0.25	1.00	0.00	0.00	0.25	0.00	0.25	0.00	0.00	0.00	-0.168945	0.056641	0.973633	-17.219999	33.459999	-5.250000	241.00	-0.26	-0.11	12.75	15.25	9.00	12.25	3.25	6.50	0.50	1.25	0.00	0.25	0.75	0.50	1.00	0.00	0.00	0.00	-0.091309	0.088379	1.035645	-10.570000	-2.310000	4.550000	665.00	-0.28	-0.09
1.15	2.50	3.75	2.75	5.00	1.50	2.25	0.25	1.00	0.00	0.00	0.00	0.00	0.25	0.00	0.00	0.00	-0.139160	0.038086	1.010254	-18.480000	33.040001	-6.580000	208.00	-0.26	-0.12	13.00	16.00	9.00	12.75	3.75	7.00	0.50	1.50	0.00	0.50	0.75	0.50	0.75	0.00	0.00	0.00	-0.087891	0.099121	1.000488	-8.680000	-5.740000	4.270000	695.00	-0.28	-0.09
1.16	2.00	3.25	2.25	3.75	1.25	1.25	0.25	1.00	0.25	0.25	0.50	0.00	0.25	0.25	0.00	0.00	-0.155273	0.041992	0.980469	-16.799999	31.920000	-8.120000	179.00	-0.22	-0.10	14.25	16.75	9.25	13.00	4.25	7.50	0.50	1.75	0.25	0.50	0.75	0.50	1.00	0.00	0.00	0.00	-0.061523	0.096680	0.988281	-7.840000	-7.700000	4.200000	740.00	-0.28	-0.09
1.17	1.50	2.00	2.00	3.00	1.00	1.00	0.25	0.75	0.25	0.00	0.50	0.25	0.25	0.25	0.00	0.00	-0.208984	-0.057617	1.071289	-9.870000	43.049999	-11.830000	142.00	-0.20	-0.10	15.00	17.25	9.50	13.50	4.75	7.50	0.50	1.75	0.25	0.25	0.50	0.50	1.00	0.00	0.00	0.00	-0.073242	0.090820	0.999023	-6.790000	-9.170000	4.060000	761.00	-0.28	-0.09
1.18	1.00	1.75	1.25	3.25	0.75	0.50	0.25	0.50	0.00	0.25	0.50	0.25	0.25	0.25	0.00	0.00	-0.158203	0.053223	1.096680	-0.420000	62.580002	-16.379999	116.00	-0.20	-0.11	15.50	18.00	10.00	13.75	4.75	8.25	0.75	2.00	0.00	0.00	0.50	0.75	1.00	0.00	0.00	0.00	-0.061035	0.102539	0.988770	-6.370000	-9.380000	3.850000	794.00	-0.28	-0.09
1.19	0.75	2.00	1.00	2.75	0.50	0.50	0.00	0.50	0.25	0.00	0.00	0.00	0.25	0.25	0.00	0.00	-0.140625	0.091797	1.129395	14.560000	92.820000	-20.790001	94.00	-0.23	-0.13	16.25	18.50	10.25	13.75	5.00	8.50	0.75	2.00	0.00	0.25	0.75	0.50	1.00	0.00	0.00	0.00	-0.055664	0.101074	0.986328	-6.790000	-8.190000	3.500000	817.00	-0.28	-0.09
1.20	1.00	1.25	1.00	2.75	0.50	0.25	0.00	0.00	0.50	0.25	0.25	0.25	0.00	0.00	0.00	0.00	-0.170898	0.114746	1.273926	16.379999	120.260002	-26.040001	86.00	-0.21	-0.07	16.50	19.25	10.50	14.25	5.50	8.50	0.75	2.00	0.25	0.50	0.75	0.75	1.00	0.00	0.00	0.25	-0.051758	0.103027	0.980957	-7.490000	-6.370000	3.080000	850.00	-0.27	-0.09
1.21	0.75	1.50	0.75	2.50	0.25	0.00	0.00	0.00	0.50	0.25	0.50	0.00	0.00	0.00	0.00	0.00	-0.201660	0.083008	1.112793	22.049999	145.880005	-33.459999	74.00	-0.21	-0.07	17.25	19.25	10.50	14.50	5.25	9.00	0.75	2.25	0.00	0.25	0.75	0.50	1.00	0.00	0.00	0.00	-0.047852	0.102539	0.973145	-8.750000	-3.990000	2.660000	858.00	-0.28	-0.09
1.22	0.50	1.50	0.75	2.50	0.25	0.25	0.00	0.25	0.25	0.25	0.00	0.00	0.00	0.00	0.00	0.00	-0.125977	0.171875	1.243652	24.920000	168.419998	-46.410000	70.00	-0.25	-0.12	17.00	19.25	10.75	14.50	5.75	9.00	0.75	2.25	0.25	0.50	0.75	0.75	0.75	0.00	0.00	0.00	-0.053223	0.097168	0.965820	-10.780000	-1.330000	2.310000	870.00	-0.27	-0.08
1.23	0.75	1.25	0.50	2.25	0.00	0.00	0.00	0.00	0.00	0.00	0.00	0.00	0.00	0.00	0.00	0.00	-0.079590	0.212891	1.309570	29.049999	182.770004	-59.360001	50.00	0.00	0.00	17.50	19.25	11.00	14.75	6.00	9.00	0.75	2.00	0.50	0.50	0.75	0.50	1.00	0.00	0.00	0.00	-0.053223	0.088867	0.974121	-12.320000	1.120000	2.100000	882.00	-0.27	-0.08
1.24	0.75	1.50	0.75	2.00	0.00	0.00	0.00	0.00	0.00	0.00	0.00	0.00	0.00	0.00	0.00	0.00	-0.061035	0.277832	1.363281	41.160000	185.919998	-70.349998	52.00	-0.34	-0.11	17.75	19.50	10.75	14.75	6.00	9.25	0.75	2.25	0.00	0.50	0.75	0.75	1.25	0.00	0.00	0.00	-0.052734	0.093750	0.980957	-12.950000	3.430000	1.890000	889.00	-0.27	-0.09
1.25	0.50	0.75	0.50	2.00	0.25	0.00	0.00	0.00	0.00	0.00	0.00	0.00	0.00	0.00	0.00	0.00	0.297852	0.289551	1.717285	38.430000	177.869995	-77.980003	42.00	0.00	0.00	17.50	19.25	10.75	14.50	6.00	9.25	0.75	2.50	0.50	0.50	0.75	0.50	1.00	0.00	0.00	0.00	-0.052246	0.080566	0.985840	-13.020000	5.250000	1.610000	887.00	-0.27	-0.08
1.26	0.75	1.00	0.75	1.75	0.00	0.00	0.00	0.00	0.00	0.00	0.00	0.00	0.00	0.00	0.00	0.00	0.457520	0.365234	2.217285	5.110000	138.110001	-73.779999	45.00	0.00	0.00	17.25	19.25	11.00	14.50	6.00	9.50	0.75	2.50	0.00	0.50	1.00	0.50	1.00	0.00	0.00	0.00	-0.054688	0.088379	0.985352	-13.090000	6.860000	1.470000	886.00	-0.27	-0.09
1.27	0.50	1.00	0.50	1.75	0.00	0.00	0.00	0.00	0.00	0.00	0.00	0.00	0.00	0.00	0.00	0.00	0.638672	0.487305	1.696777	-19.670000	91.349998	-61.599998	39.00	0.00	0.00	16.75	18.75	10.75	14.25	6.25	9.25	0.75	2.75	0.25	0.25	0.50	0.75	1.00	0.00	0.00	0.00	-0.062988	0.089844	0.980469	-13.860000	8.540000	1.400000	872.00	-0.27	-0.09
1.28	0.50	1.00	0.25	2.00	0.25	0.00	0.00	0.00	0.00	0.00	0.00	0.00	0.00	0.00	0.00	0.00	0.659668	0.524414	1.126465	-17.639999	67.620003	-52.220001	42.00	0.00	0.00	16.50	18.50	10.75	14.25	6.25	9.25	1.00	2.75	0.25	0.50	0.75	0.50	1.25	0.00	0.25	0.00	-0.064941	0.082520	0.978516	-15.190001	10.360000	1.190000	879.00	-0.26	-0.09
1.29	0.50	1.00	0.25	1.75	0.00	0.00	0.00	0.00	0.00	0.00	0.00	0.00	0.00	0.00	0.00	0.00	0.716309	0.504395	1.002930	-1.820000	61.320000	-46.480000	36.00	0.00	0.00	16.25	18.00	10.75	14.25	6.00	9.25	1.00	2.75	0.00	0.75	0.75	0.75	1.25	0.00	0.00	0.25	-0.072266	0.079102	0.984375	-16.450001	11.760000	0.910000	869.00	-0.26	-0.09
1.30	0.50	0.75	0.50	1.50	0.00	0.00	0.00	0.00	0.00	0.00	0.00	0.00	0.00	0.00	0.00	0.00	0.842773	0.481445	1.120117	7.140000	52.920002	-39.340000	34.00	0.00	0.00	15.50	18.00	10.50	13.75	6.25	9.25	1.00	3.00	0.50	0.75	1.00	0.75	1.75	0.00	0.00	0.25	-0.073242	0.083984	0.985352	-16.730000	12.250000	0.630000	873.00	-0.25	-0.09
1.31	0.50	1.25	0.50	1.75	0.25	0.00	0.00	0.00	0.00	0.00	0.00	0.00	0.00	0.00	0.00	0.00	0.966797	0.485840	1.151855	8.470000	35.630001	-28.490000	44.00	0.00	0.00	15.25	17.50	10.25	13.75	6.50	9.25	1.00	3.00	0.50	0.75	1.00	0.75	2.00	0.00	0.00	0.00	-0.078613	0.078125	0.990234	-16.730000	11.760000	0.420000	867.00	-0.25	-0.09
1.32	0.75	1.00	0.25	1.50	0.00	0.00	0.00	0.00	0.00	0.00	0.00	0.00	0.00	0.00	0.00	0.00	1.041504	0.473633	1.103027	12.460000	15.050000	-15.540000	36.00	0.00	0.00	15.00	16.75	10.25	13.50	6.50	9.00	1.00	3.00	0.50	0.75	1.00	0.75	1.75	0.00	0.00	0.00	-0.078125	0.076660	0.995117	-16.799999	11.550000	0.280000	850.00	-0.25	-0.09
1.33	0.50	1.00	0.25	1.25	0.00	0.00	0.00	0.00	0.00	0.00	0.00	0.00	0.00	0.00	0.00	0.00	1.069336	0.428223	1.076660	22.469999	-5.320000	-2.590000	31.00	0.00	0.00	14.25	16.50	10.00	13.50	6.50	9.25	1.00	3.25	0.50	1.00	1.25	1.00	2.00	0.00	0.00	0.00	-0.087402	0.069824	0.989746	-16.590000	10.850000	0.350000	854.00	-0.24	-0.10
1.34	0.50	1.00	0.50	1.00	0.00	0.00	0.00	0.00	0.00	0.00	0.00	0.00	0.00	0.00	0.00	0.00	1.066406	0.337402	1.094238	32.480000	-25.690001	10.150000	31.00	0.00	0.00	13.75	16.00	10.00	13.25	6.75	9.00	1.00	3.50	0.75	1.25	1.00	0.75	2.00	0.00	0.00	0.25	-0.094238	0.070801	0.992676	-15.540000	9.870000	0.420000	847.00	-0.24	-0.09
1.35	0.75	1.25	0.50	1.75	0.00	0.00	0.00	0.00	0.00	0.00	0.00	0.00	0.00	0.00	0.00	0.00	0.992188	0.184082	1.072754	37.590000	-65.730003	32.759998	44.00	0.00	0.00	13.25	15.75	9.75	13.00	6.75	9.25	1.25	3.50	0.75	1.00	1.00	1.00	2.50	0.25	0.00	0.00	-0.091309	0.061035	0.990234	-14.350000	9.100000	0.350000	846.00	-0.23	-0.10
1.36	0.50	0.75	0.25	1.50	0.00	0.00	0.00	0.00	0.00	0.00	0.00	0.00	0.00	0.00	0.00	0.00	0.992188	0.184082	1.072754	37.590000	-65.730003	32.759998	31.00	0.00	0.00	12.75	15.25	9.75	12.75	7.00	9.00	1.25	3.75	0.75	1.25	1.25	1.00	2.50	0.25	0.00	0.25	-0.097168	0.060547	0.997070	-12.250000	8.400000	0.420000	843.00	-0.22	-0.10
1.37	0.50	0.75	0.25	1.25	0.00	0.00	0.00	0.00	0.00	0.00	0.00	0.00	0.00	0.00	0.00	0.00	0.926270	0.107910	1.077148	39.900002	-82.809998	41.090000	29.00	0.00	0.00	12.25	14.75	9.75	12.75	6.75	9.25	1.25	4.00	1.00	1.00	1.50	1.25	2.25	0.25	0.00	0.25	-0.097168	0.057617	0.993652	-10.220000	7.420000	0.280000	841.00	-0.22	-0.10
1.38	0.50	0.75	0.50	1.25	0.00	0.00	0.00	0.00	0.00	0.00	0.00	0.00	0.00	0.00	0.00	0.00	0.753906	-0.095215	1.172363	46.340000	-113.610001	51.590000	31.00	0.00	0.00	11.75	14.25	9.50	12.50	7.00	9.00	1.50	4.50	1.00	1.00	1.75	1.25	2.75	0.75	0.00	0.25	-0.106934	0.070801	0.984863	-6.300000	5.040000	0.630000	848.00	-0.21	-0.10
1.39	0.25	0.75	0.25	1.25	0.00	0.00	0.00	0.00	0.00	0.00	0.00	0.00	0.00	0.00	0.00	0.00	0.650391	-0.184570	1.232422	42.349998	-128.029999	54.320000	26.00	0.00	0.00	11.00	13.75	9.50	12.25	7.25	9.25	1.50	5.25	1.25	1.00	1.50	1.00	2.75	1.00	0.00	0.25	-0.098633	0.059570	0.987305	-5.460000	4.410000	0.490000	850.00	-0.20	-0.10
1.40	0.50	0.75	0.25	0.75	0.00	0.00	0.00	0.00	0.25	0.00	0.00	0.00	0.00	0.00	0.00	0.00	0.533691	-0.255371	1.249512	34.369999	-140.630005	55.090000	26.00	0.00	0.00	10.50	13.00	9.25	12.25	7.25	9.25	1.50	5.25	1.25	1.25	1.50	1.00	3.25	1.00	0.00	0.25	-0.098633	0.055176	0.999512	-4.690000	3.850000	0.490000	842.00	-0.19	-0.11
1.41	0.75	0.75	0.25	1.25	0.00	0.00	0.00	0.00	0.00	0.00	0.00	0.00	0.00	0.00	0.00	0.00	0.413574	-0.295898	1.244141	25.410000	-149.940002	53.480000	31.00	0.00	0.00	10.00	12.50	9.00	11.75	7.50	9.25	1.75	5.50	1.25	1.25	1.50	1.50	3.50	1.00	0.00	0.50	-0.101562	0.062012	0.988770	-3.570000	3.430000	0.210000	844.00	-0.18	-0.11
1.42	0.75	0.75	0.00	1.00	0.00	0.00	0.00	0.00	0.00	0.00	0.00	0.00	0.00	0.00	0.00	0.00	0.290527	-0.344727	1.242188	16.590000	-155.259995	49.349998	26.00	0.00	0.00	9.50	12.25	9.00	11.75	7.50	9.25	1.75	5.75	1.50	1.50	1.75	1.75	4.00	1.25	0.00	0.50	-0.096680	0.063477	0.983398	-3.080000	3.290000	-0.000000	857.00	-0.17	-0.11
1.43	0.25	0.75	0.00	1.00	0.00	0.00	0.00	0.00	0.25	0.00	0.00	0.00	0.00	0.00	0.00	0.00	0.163086	-0.373535	1.232910	6.300000	-156.449997	43.259998	24.00	0.00	0.00	9.00	11.50	9.00	11.50	7.50	9.25	1.75	6.00	1.75	1.25	2.00	2.00	4.00	1.75	0.00	0.50	-0.098145	0.073730	0.985840	-3.150000	3.430000	-0.280000	857.00	-0.16	-0.11
1.44	0.50	0.50	0.25	1.00	0.00	0.00	0.00	0.00	0.00	0.00	0.00	0.00	0.00	0.00	0.00	0.00	0.047852	-0.349121	1.256348	-4.550000	-154.210007	36.049999	24.00	0.00	0.00	8.50	10.75	8.75	11.25	7.50	9.00	2.00	6.25	1.50	2.00	2.00	2.00	4.50	1.75	0.00	0.50	-0.104492	0.062500	0.983398	-3.220000	3.710000	-0.350000	853.00	-0.15	-0.11
1.45	0.50	0.75	0.00	1.00	0.00	0.00	0.00	0.00	0.00	0.00	0.00	0.00	0.00	0.00	0.00	0.00	-0.053711	-0.262207	1.394531	-11.130000	-152.740005	29.120001	23.00	0.00	0.00	8.00	10.25	8.75	11.25	7.75	9.25	2.00	6.50	1.75	2.00	2.25	2.25	5.00	2.25	0.00	0.75	-0.099121	0.063965	0.973633	-3.220000	4.200000	-0.490000	871.00	-0.14	-0.11
1.46	0.25	0.75	0.50	1.25	0.00	0.00	0.00	0.00	0.00	0.00	0.00	0.00	0.00	0.00	0.00	0.00	-0.148438	-0.185059	1.492188	-13.370000	-155.470001	23.100000	29.00	0.00	0.00	7.25	9.50	8.25	10.75	8.00	9.25	2.25	7.00	2.00	2.25	2.50	2.25	5.00	2.25	0.25	0.75	-0.102051	0.057617	0.992188	-2.730000	5.320000	-0.420000	870.00	-0.13	-0.11
1.47	0.25	0.50	0.00	0.75	0.00	0.00	0.00	0.00	0.00	0.00	0.00	0.00	0.00	0.00	0.00	0.00	-0.248535	-0.134766	1.496094	-15.050000	-159.949997	18.059999	15.00	0.00	0.00	6.50	8.75	8.25	10.50	7.50	9.25	2.50	7.25	2.50	2.25	2.75	2.50	5.50	2.00	0.25	0.75	-0.112305	0.056152	0.989258	-1.680000	6.160000	-0.420000	869.00	-0.11	-0.12
1.48	0.25	0.50	0.25	1.00	0.00	0.00	0.00	0.00	0.00	0.00	0.00	0.00	0.00	0.00	0.00	0.00	-0.344727	-0.051270	1.511719	-17.920000	-163.029999	13.440001	21.00	0.00	0.00	6.00	8.00	7.75	10.25	8.00	9.25	2.50	7.50	2.00	2.50	3.00	3.00	5.50	2.75	0.50	0.75	-0.108398	0.061035	0.989746	-0.770000	7.000000	-0.490000	871.00	-0.10	-0.12
1.49	0.25	0.25	0.00	1.25	0.00	0.00	0.00	0.00	0.00	0.00	0.00	0.00	0.00	0.00	0.00	0.00	-0.439941	0.052246	1.549805	-18.200001	-167.509995	9.940000	19.00	0.00	0.00	5.50	7.50	7.50	9.50	8.00	9.00	2.75	7.50	3.00	2.50	3.25	3.00	6.25	3.25	0.50	0.75	-0.119141	0.068359	0.995605	-0.490000	7.630000	-0.350000	878.00	-0.08	-0.11
1.50	0.25	0.25	0.00	0.75	0.00	0.00	0.00	0.00	0.00	0.00	0.00	0.00	0.00	0.00	0.00	0.00	-0.548340	0.161621	1.507324	-14.350000	-174.020004	8.330000	13.00	0.00	0.00	4.75	6.75	7.25	9.50	8.00	9.00	2.75	7.75	3.00	3.00	3.25	3.00	6.75	3.25	0.50	1.00	-0.117676	0.062988	0.991211	-0.140000	8.050000	-0.490000	875.00	-0.07	-0.12
1.51	0.50	0.25	0.00	0.75	0.00	0.00	0.00	0.00	0.00	0.00	0.00	0.00	0.00	0.00	0.00	0.00	-0.684570	0.229492	1.385254	-9.520000	-177.940002	8.400000	16.00	0.00	0.00	4.50	6.25	6.75	8.50	7.75	9.00	3.00	7.75	3.75	3.25	3.50	3.25	7.00	3.50	0.50	1.00	-0.116699	0.059082	0.991211	0.280000	8.750000	-0.490000	874.00	-0.06	-0.11
1.52	0.25	0.75	0.25	1.00	0.00	0.00	0.00	0.00	0.00	0.00	0.00	0.00	0.00	0.00	0.00	0.00	-0.833496	0.257324	1.254395	-5.460000	-175.910004	10.010000	23.00	0.00	0.00	3.50	5.50	6.25	8.25	7.75	9.00	3.00	8.00	3.75	3.50	4.00	3.75	7.50	3.75	0.50	1.25	-0.111816	0.062500	0.994629	0.350000	9.380000	-0.560000	873.00	-0.04	-0.12
1.53	0.50	0.50	0.00	0.75	0.00	0.00	0.00	0.00	0.00	0.00	0.00	0.00	0.00	0.00	0.00	0.00	-0.976074	0.255371	1.142578	-2.870000	-168.279999	11.970000	18.00	0.00	0.00	3.00	5.00	5.75	7.75	7.50	8.75	3.00	8.00	4.50	4.00	4.50	4.00	7.75	4.25	0.75	1.25	-0.119629	0.066895	0.984863	0.210000	10.710000	-0.770000	879.00	-0.02	-0.12
1.54	0.25	0.50	0.25	0.75	0.00	0.00	0.00	0.00	0.00	0.00	0.00	0.00	0.00	0.00	0.00	0.00	-1.089355	0.219727	1.015625	-1.050000	-156.800003	12.950000	18.00	0.00	0.00	2.75	4.50	5.00	7.25	7.25	8.50	3.25	8.25	4.75	4.50	5.50	4.50	8.25	4.75	0.75	1.25	-0.120605	0.065918	0.993164	-0.000000	12.180000	-0.910000	893.00	-0.00	-0.12
1.55	0.25	0.75	0.00	1.00	0.00	0.00	0.00	0.00	0.00	0.00	0.00	0.00	0.00	0.00	0.00	0.00	-1.209473	0.180664	0.879883	0.630000	-141.330002	12.740000	20.00	0.00	0.00	2.00	3.75	4.25	6.50	6.75	8.50	3.25	8.25	5.50	5.75	6.00	5.00	8.25	5.50	0.50	1.50	-0.125000	0.068359	0.996094	-0.210000	14.350000	-1.330000	894.00	0.02	-0.11
1.56	0.25	0.25	0.00	0.75	0.00	0.00	0.00	0.00	0.00	0.00	0.00	0.00	0.00	0.00	0.00	0.00	-1.315918	0.139160	0.761230	1.400000	-122.360001	11.410000	13.00	0.00	0.00	2.25	3.00	3.75	6.00	6.25	8.25	3.50	8.25	5.75	6.00	7.50	5.75	8.75	5.50	0.75	1.50	-0.102539	0.060547	0.995117	0.140000	16.379999	-1.330000	911.00	0.04	-0.11
1.57	0.25	0.75	0.25	0.50	0.00	0.00	0.00	0.00	0.00	0.00	0.00	0.00	0.00	0.00	0.00	0.00	-1.459473	0.101074	0.599121	-1.120000	-81.129997	5.180000	18.00	0.00	0.00	1.75	2.50	2.75	5.50	6.00	7.75	3.50	8.25	6.50	7.25	8.00	6.75	8.75	6.50	0.75	1.75	-0.125977	0.069336	1.013672	0.770000	22.049999	-2.520000	925.00	0.06	-0.11
1.58	0.25	0.25	0.00	0.75	0.00	0.00	0.00	0.00	0.00	0.00	0.00	0.00	0.00	0.00	0.00	0.00	-1.459473	0.101074	0.599121	-1.120000	-81.129997	5.180000	13.00	0.00	0.00	1.00	2.50	2.75	5.00	5.50	7.50	3.50	8.25	7.25	8.00	8.50	7.50	9.25	7.00	1.00	2.00	-0.121582	0.059570	1.001953	1.400000	25.549999	-3.150000	947.00	0.08	-0.11
1.59	0.00	0.50	0.25	0.75	0.00	0.00	0.00	0.00	0.00	0.00	0.00	0.00	0.00	0.00	0.00	0.00	-1.484375	0.204590	0.447266	-1.330000	-39.619999	-6.440000	16.00	0.00	0.00	1.00	2.00	2.00	4.00	4.50	6.75	3.50	8.25	7.75	8.25	9.00	8.00	9.25	7.75	1.00	2.25	-0.166992	0.075684	0.996582	2.310000	29.610001	-4.620000	931.00	0.10	-0.10
1.60	0.00	0.50	0.00	1.00	0.00	0.00	0.00	0.00	0.00	0.00	0.00	0.00	0.00	0.00	0.00	0.00	-1.475098	0.267090	0.428711	2.100000	-19.180000	-13.230000	16.00	0.00	0.00	0.50	1.75	1.50	3.50	3.75	6.00	3.50	8.00	8.00	8.50	9.50	8.50	9.75	8.25	1.00	2.50	-0.179199	0.035156	1.018555	2.520000	35.560001	-6.440000	919.00	0.11	-0.10
1.61	0.00	0.75	0.00	0.50	0.00	0.00	0.00	0.00	0.00	0.00	0.00	0.00	0.00	0.00	0.00	0.00	-1.458984	0.305664	0.431152	7.280000	-0.490000	-19.530001	12.00	0.00	0.00	0.50	1.50	1.50	3.00	3.00	5.75	3.50	8.00	8.50	9.25	10.00	8.75	9.75	8.75	1.25	2.75	-0.177246	0.057617	1.049316	3.080000	42.910000	-7.630000	931.00	0.13	-0.10
1.62	0.25	0.75	0.00	0.75	0.00	0.00	0.00	0.00	0.00	0.00	0.00	0.00	0.00	0.00	0.00	0.00	-1.435547	0.333008	0.413086	13.440001	16.660000	-24.360001	18.00	0.00	0.00	0.50	1.50	1.25	2.75	2.50	5.00	3.25	7.75	9.25	9.75	10.50	9.00	10.00	9.50	1.25	3.00	-0.164062	0.081543	1.041016	3.990000	50.959999	-9.240000	937.00	0.14	-0.09
1.63	0.50	0.25	0.00	1.25	0.00	0.00	0.00	0.00	0.00	0.00	0.00	0.00	0.00	0.00	0.00	0.00	-1.422363	0.322266	0.393555	20.650000	34.369999	-27.230000	21.00	0.00	0.00	0.50	1.25	1.00	2.25	2.00	4.50	3.25	7.50	9.50	10.25	11.00	9.50	10.00	10.50	1.50	3.25	-0.142578	0.096680	0.990234	5.040000	61.250000	-10.500000	943.00	0.15	-0.09
1.64	0.25	0.25	0.00	1.00	0.00	0.00	0.00	0.00	0.50	0.00	0.00	0.00	0.00	0.00	0.00	0.00	-1.390625	0.278320	0.420410	26.740000	52.500000	-27.860001	22.00	0.00	0.00	0.50	0.50	0.25	2.25	1.25	3.25	3.00	7.25	10.25	10.50	11.50	9.75	10.00	11.25	1.75	3.75	-0.195312	0.062988	1.079102	5.040000	73.430000	-10.150000	930.00	0.17	-0.08
1.65	0.25	0.75	0.25	1.25	0.00	0.00	0.00	0.00	0.00	0.00	0.00	0.00	0.00	0.00	0.00	0.00	-1.361328	0.216797	0.491699	29.469999	69.300003	-26.530001	26.00	0.00	0.00	0.25	0.75	0.75	1.75	1.25	2.50	2.75	6.75	10.75	11.00	12.00	10.00	10.00	12.25	2.25	4.50	-0.217285	0.070312	1.067383	6.300000	85.680000	-10.430000	948.00	0.18	-0.08
1.66	0.50	0.25	0.00	1.25	0.00	0.00	0.00	0.00	0.00	0.00	0.00	0.00	0.00	0.00	0.00	0.00	-1.294434	0.152344	0.569824	29.469999	83.930000	-24.780001	21.00	0.00	0.00	0.25	0.75	0.25	1.00	0.75	2.00	2.50	6.25	11.25	11.50	12.25	10.25	10.00	13.25	2.25	5.00	-0.230957	0.094238	1.048340	7.140000	99.050003	-12.250000	940.00	0.20	-0.07
1.67	0.25	0.50	0.25	1.00	0.00	0.00	0.00	0.00	0.00	0.00	0.00	0.00	0.00	0.00	0.00	0.00	-1.203613	0.060059	0.638184	27.719999	94.849998	-24.080000	21.00	0.00	0.00	0.00	0.00	0.25	1.25	0.25	1.25	2.25	5.50	11.25	11.75	12.75	10.50	9.75	14.00	2.25	5.50	-0.258789	0.079102	1.079590	9.170000	113.889999	-14.000000	922.00	0.22	-0.07
1.68	0.75	1.00	0.25	1.25	0.00	0.00	0.00	0.00	0.00	0.00	0.00	0.00	0.00	0.00	0.00	0.00	0.168945	-0.901367	0.982910	20.440001	104.160004	-20.020000	33.00	0.00	0.00	0.25	0.25	0.00	1.25	0.50	1.00	2.00	5.00	11.75	12.00	12.75	10.25	9.50	15.25	2.75	5.50	-0.239258	0.061523	1.139160	9.940000	129.149994	-14.210000	933.00	0.22	-0.06
1.69	0.50	1.50	0.75	2.00	0.25	0.00	0.00	0.00	0.00	0.00	0.00	0.00	0.00	0.00	0.00	0.00	1.841797	0.765625	1.524414	-87.919998	116.480003	-1.610000	52.00	-0.32	-0.11	0.00	0.50	0.00	0.50	0.00	0.50	1.50	4.25	11.50	12.00	13.00	10.50	9.25	16.25	2.75	6.00	-0.281250	0.079590	1.165039	10.430000	143.710007	-12.740000	905.00	0.24	-0.05
1.70	1.25	2.50	1.25	2.75	0.25	0.00	0.00	0.00	0.25	0.00	0.00	0.00	0.00	0.00	0.00	0.00	0.685059	-0.070312	0.018066	-72.309998	67.690002	20.370001	86.00	-0.31	-0.08	0.00	0.25	0.00	0.50	0.00	0.00	1.25	3.25	11.50	12.00	13.00	10.25	9.00	17.25	3.00	5.75	-0.269531	0.088867	1.182617	12.600000	157.360001	-13.300000	884.00	0.25	-0.04
1.71	2.25	4.25	1.50	3.00	0.25	0.00	0.00	0.00	0.00	0.00	0.00	0.00	0.00	0.00	0.00	0.00	-0.053711	-0.531738	-0.059570	-104.720001	122.290001	-2.170000	115.00	-0.35	-0.08	0.00	0.50	0.00	0.00	0.00	0.00	1.00	2.25	11.25	12.00	13.00	10.00	8.50	18.00	3.25	6.00	-0.363770	0.138184	1.031738	10.360000	176.190002	-15.680000	862.00	0.26	-0.03
1.72	4.00	7.50	2.25	4.75	0.25	0.00	0.00	0.00	0.00	0.00	0.00	0.00	0.00	0.00	0.00	0.00	0.120605	-0.201660	1.607422	-72.800003	196.839996	-9.170000	190.00	-0.35	-0.09	0.00	0.00	0.00	0.00	0.00	0.00	0.75	1.50	11.00	11.75	12.75	10.00	8.00	18.75	3.25	6.00	-0.338867	0.123047	1.166504	6.370000	198.660004	-19.110001	835.00	0.27	-0.03
1.73	7.00	10.00	3.25	5.50	0.50	0.00	0.00	0.00	0.00	0.00	0.00	0.00	0.00	0.00	0.00	0.00	-0.599609	-0.433105	2.235352	-24.850000	179.339996	-7.560000	267.00	-0.36	-0.07	0.00	0.00	0.00	0.00	0.00	0.00	0.50	1.00	10.50	11.75	12.50	9.75	7.50	19.25	3.50	5.75	-0.374023	0.136719	1.285645	2.380000	218.680008	-22.049999	813.00	0.27	-0.02
1.74	8.50	12.50	3.75	6.75	0.75	0.00	0.00	0.00	0.00	0.00	0.00	0.00	0.00	0.00	0.00	0.00	-0.550781	0.031250	1.839844	-11.550000	152.949997	-19.180000	327.00	-0.36	-0.07	0.00	0.00	0.00	0.00	0.00	0.00	0.50	0.50	10.00	11.25	12.25	9.25	6.50	19.75	3.50	5.75	-0.447266	0.182617	1.233398	-4.900000	244.509995	-26.110001	782.00	0.28	-0.01
1.75	9.75	14.00	4.50	8.00	0.75	0.50	0.00	0.00	0.00	0.00	0.00	0.00	0.00	0.00	0.00	0.00	-0.259766	0.493652	1.639648	-3.640000	137.410004	-14.490000	381.00	-0.35	-0.07	0.00	0.00	0.00	0.00	0.00	0.00	0.25	0.00	9.50	10.75	11.50	8.75	5.75	19.50	3.50	5.25	-0.588867	0.045898	1.288086	-5.950000	258.510010	-29.120001	734.00	0.28	-0.01
1.76	10.50	15.25	5.25	8.75	1.00	1.00	0.00	0.00	0.00	0.00	0.00	0.00	0.00	0.00	0.00	0.00	-0.238281	0.255859	1.239258	-9.030000	125.160004	-0.210000	425.00	-0.35	-0.07	0.00	0.00	0.00	0.00	0.00	0.00	0.25	0.25	8.75	10.25	11.00	8.25	5.25	19.25	3.25	5.00	-0.567383	0.216309	1.407227	-16.590000	282.029999	-33.320000	702.00	0.28	-0.01
1.77	11.25	16.25	6.25	9.25	1.25	1.75	0.00	0.00	0.00	0.00	0.00	0.00	0.00	0.00	0.00	0.00	-0.183105	-0.031738	1.253418	-14.770000	119.070000	5.320000	470.00	-0.34	-0.07	0.00	0.00	0.00	0.00	0.00	0.00	0.25	0.00	7.75	9.75	10.50	7.50	4.25	18.50	3.00	4.25	-0.639160	0.373535	1.393555	-21.840000	309.260010	-40.040001	645.00	0.29	0.00
1.78	12.25	17.25	7.00	10.00	1.75	2.25	0.00	0.25	0.00	0.00	0.00	0.00	0.00	0.00	0.00	0.00	-0.291016	0.207520	1.395508	-12.320000	77.769997	0.000000	521.00	-0.34	-0.07	0.00	0.00	0.00	0.00	0.00	0.00	0.00	0.00	7.00	9.00	9.50	6.75	2.75	17.25	2.50	3.25	-0.591797	0.308105	1.717773	-13.580000	344.610016	-59.290001	571.00	0.29	0.01
1.79	12.25	17.75	7.50	11.25	2.00	3.25	0.25	0.25	0.00	0.00	0.00	0.00	0.00	0.00	0.00	0.00	-0.291016	0.207520	1.395508	-12.320000	77.769997	0.000000	562.00	-0.33	-0.08	0.00	0.00	0.00	0.00	0.00	0.00	0.00	0.00	5.75	8.00	8.50	5.50	2.25	15.25	2.00	2.25	-0.859375	0.186523	1.914551	-11.830000	361.690002	-65.519997	488.00	0.29	0.01
1.80	12.75	18.25	7.75	11.50	2.25	3.75	0.25	0.50	0.00	0.00	0.25	0.00	0.00	0.00	0.00	0.00	-0.158691	0.022461	1.050293	-24.639999	45.779999	4.900000	592.00	-0.32	-0.08	0.00	0.00	0.00	0.00	0.00	0.00	0.00	0.00	4.75	7.00	7.50	4.25	1.25	13.00	1.25	1.75	-0.961914	0.509766	1.788574	-1.120000	376.459991	-64.820000	403.00	0.29	0.02
1.81	13.50	18.75	8.00	12.50	2.50	4.50	0.25	0.75	0.00	0.00	0.25	0.00	0.25	0.00	0.00	0.00	-0.187012	0.062500	1.097656	-21.700001	36.400002	3.150000	635.00	-0.32	-0.08	0.00	0.00	0.00	0.00	0.00	0.00	0.25	0.00	3.25	5.50	5.50	2.50	0.75	10.00	0.75	0.75	-0.713379	0.494629	1.827637	42.840000	385.980011	-72.239998	291.00	0.29	0.04
1.82	13.25	19.25	8.50	13.25	2.75	5.25	0.25	1.00	0.25	0.00	0.50	0.00	0.00	0.00	0.00	0.00	-0.178223	0.059570	1.003418	-16.240000	23.799999	2.520000	669.00	-0.31	-0.09	0.00	0.00	0.00	0.00	0.00	0.00	0.25	0.00	2.25	4.50	4.25	2.25	0.25	7.50	0.25	0.50	-0.475586	0.267090	1.890137	88.690002	390.950012	-82.879997	220.00	0.29	0.04
1.83	14.25	20.25	8.75	14.00	3.00	6.00	0.50	1.25	0.25	0.25	0.25	0.00	0.50	0.00	0.00	0.00	-0.161133	0.044434	1.012695	-10.080000	15.120000	2.310000	723.00	-0.30	-0.09	0.00	0.00	0.00	0.00	0.00	0.00	0.25	0.00	1.50	3.50	2.75	1.75	0.50	5.25	0.00	0.25	-0.411621	0.111816	1.920898	95.620003	397.040009	-92.260002	157.00	0.28	0.03
1.84	14.25	20.50	9.00	14.25	3.00	7.00	0.50	1.25	0.25	0.00	0.50	0.00	0.25	0.00	0.00	0.00	-0.163086	0.082520	1.016113	-6.230000	10.430000	1.540000	739.00	-0.30	-0.09	0.00	0.00	0.00	0.00	0.00	0.00	0.25	0.00	1.00	2.75	2.50	1.50	0.50	2.00	0.00	0.00	-0.366699	0.262695	2.089844	84.910004	392.559998	-102.620003	109.00	0.25	-0.00
1.85	14.75	21.00	9.00	15.00	3.25	7.50	0.50	1.75	0.75	0.00	0.50	0.25	0.50	0.00	0.00	0.00	-0.154785	0.075684	0.980957	-3.920000	6.720000	1.400000	784.00	-0.29	-0.09	0.00	0.00	0.00	0.00	0.00	0.00	0.50	0.00	0.75	2.25	1.25	0.75	0.50	1.00	0.25	0.25	-0.230469	0.291016	1.772949	86.169998	384.019989	-116.550003	79.00	0.24	0.01
1.86	14.75	21.00	9.25	15.50	3.75	8.00	0.50	1.75	0.25	0.25	0.50	0.00	0.75	0.00	0.00	0.00	-0.125488	0.072754	0.967285	-2.870000	5.460000	1.050000	799.00	-0.29	-0.10	0.00	0.00	0.25	0.25	0.00	0.00	0.50	0.00	0.25	1.25	1.25	0.50	0.00	0.25	0.00	0.00	1.533203	0.466309	1.178223	87.360001	362.320007	-134.190002	50.00	0.00	0.00
1.87	15.00	21.50	9.50	15.75	3.75	8.50	0.50	2.00	0.25	0.50	0.50	0.25	0.50	0.25	0.00	0.00	-0.127441	0.085938	0.961914	-2.660000	5.180000	0.770000	826.00	-0.29	-0.10	0.00	0.00	0.00	0.25	0.00	0.00	0.50	0.00	0.25	1.50	0.75	0.50	0.25	0.00	0.00	0.00	0.146973	1.027344	4.402344	113.470001	207.830002	-128.520004	44.00	0.00	0.00
1.88	14.75	22.00	9.75	16.00	4.25	8.75	0.50	2.25	0.25	0.50	0.50	0.25	0.75	0.00	0.00	0.00	-0.129395	0.073730	0.967773	-3.570000	5.950000	0.490000	846.00	-0.28	-0.10	0.00	0.00	0.00	0.00	0.00	0.00	0.50	0.00	0.25	1.00	0.75	0.50	0.00	0.00	0.00	0.00	0.861816	0.421875	3.239746	104.720001	31.639999	-98.840004	34.00	0.00	0.00
1.89	15.00	21.75	10.00	16.25	4.25	9.00	0.50	2.50	0.50	0.50	0.75	0.50	0.75	0.25	0.00	0.00	-0.123535	0.071289	0.961914	-4.060000	6.790000	0.140000	869.00	-0.28	-0.10	0.00	0.00	0.00	0.00	0.00	0.00	0.50	0.00	0.00	1.00	0.75	0.00	0.00	0.00	0.00	0.00	0.744629	0.291992	1.953613	40.180000	-91.070000	-64.190002	26.00	0.00	0.00
1.90	14.75	21.75	9.50	16.00	4.25	9.25	0.50	2.75	0.75	0.50	0.75	0.50	1.00	0.00	0.00	0.00	-0.116699	0.075684	0.956055	-4.830000	7.840000	-0.140000	868.00	-0.27	-0.10	0.00	0.00	0.00	0.00	0.00	0.00	0.50	0.00	0.25	0.75	0.50	0.00	0.25	0.00	0.00	0.00	0.438477	0.402832	1.127930	-28.070000	-135.589996	-30.940001	26.00	0.00	0.00
1.91	14.50	21.25	9.75	16.50	4.75	9.75	0.75	3.50	0.25	0.50	1.00	0.50	1.00	0.25	0.00	0.00	-0.117676	0.074219	0.950195	-6.090000	9.450000	-0.490000	893.00	-0.27	-0.11	0.00	0.00	0.00	0.00	0.00	0.00	0.50	0.00	0.25	1.00	0.50	0.00	0.25	0.00	0.00	0.00	0.415039	0.454102	0.618652	-56.840000	-133.699997	-5.670000	29.00	0.00	0.00
1.92	14.25	20.75	9.75	16.25	4.75	9.75	0.75	3.50	0.50	0.50	0.75	0.50	1.00	0.25	0.00	0.00	-0.130371	0.068848	0.979004	-7.070000	11.270000	-1.260000	884.00	-0.26	-0.11	0.00	0.00	0.00	0.25	0.00	0.00	0.50	0.00	0.00	0.50	0.25	0.00	0.00	0.00	0.00	0.00	0.368652	0.528809	0.541992	-47.599998	-120.540001	11.130000	18.00	0.00	0.00
1.93	14.00	20.25	9.50	16.00	5.00	10.00	0.75	4.00	0.50	0.75	1.00	0.50	1.25	0.25	0.00	0.00	-0.131348	0.063477	0.969727	-7.490000	12.110000	-1.680000	892.00	-0.26	-0.11	0.00	0.00	0.00	0.00	0.00	0.00	0.50	0.00	0.00	0.50	0.25	0.25	0.00	0.00	0.00	0.00	0.376465	0.481445	0.674316	-20.020000	-113.470001	22.330000	18.00	0.00	0.00
1.94	13.00	20.00	9.75	15.75	5.25	10.25	0.75	4.25	0.75	0.75	1.25	0.50	1.25	0.50	0.00	0.00	-0.125977	0.062500	0.966309	-7.910000	12.950000	-1.890000	897.00	-0.25	-0.11	0.00	0.00	0.00	0.00	0.00	0.00	0.50	0.00	0.00	0.50	0.25	0.00	0.00	0.00	0.00	0.00	0.407715	0.363281	0.831055	3.570000	-121.660004	31.850000	15.00	0.00	0.00
1.95	12.50	19.00	9.50	15.25	5.50	10.25	0.75	4.50	0.75	0.50	1.25	0.75	1.50	0.50	0.00	0.00	-0.144043	0.067383	0.941895	-7.490000	14.000000	-2.170000	883.00	-0.24	-0.11	0.00	0.00	0.00	0.00	0.00	0.00	0.50	0.00	0.00	0.25	0.25	0.00	0.00	0.00	0.00	0.00	0.392578	0.261719	0.962891	8.890000	-141.330002	40.529999	13.00	0.00	0.00
1.96	11.75	18.50	9.25	15.00	5.75	10.50	0.75	4.75	1.00	1.00	1.25	0.75	1.50	0.50	0.00	0.00	-0.146484	0.053711	0.978027	-7.000000	13.650000	-2.520000	882.00	-0.23	-0.11	0.00	0.00	0.00	0.00	0.00	0.00	0.50	0.00	0.00	0.50	0.25	0.00	0.00	0.00	0.00	0.00	0.295898	0.225586	1.053223	-24.150000	-189.210007	58.450001	15.00	0.00	0.00
1.97	11.50	17.75	9.50	14.75	5.75	10.25	0.75	5.25	1.25	1.25	1.50	1.00	1.75	0.50	0.00	0.00	-0.147461	0.058105	0.971680	-5.950000	13.020000	-2.730000	891.00	-0.22	-0.11	0.00	0.00	0.00	0.00	0.00	0.00	0.50	0.00	0.00	0.25	0.00	0.00	0.25	0.00	0.00	0.00	0.250000	0.225586	1.053223	-24.150000	-189.210007	58.450001	12.00	0.00	0.00
1.98	10.50	16.75	9.25	14.25	5.75	10.25	1.00	5.25	1.25	1.00	1.50	1.00	1.75	0.75	0.00	0.00	-0.146973	0.053223	0.976562	-4.690000	11.900000	-2.940000	867.00	-0.22	-0.11	0.00	0.00	0.25	0.00	0.00	0.00	0.50	0.00	0.00	0.00	0.00	0.00	0.00	0.00	0.00	0.00	0.187988	0.334473	1.071777	-40.950001	-230.509995	75.669998	10.00	0.00	0.00
1.99	10.00	16.50	9.00	14.00	6.00	10.25	1.00	5.25	1.50	1.25	1.25	1.00	2.00	0.75	0.25	0.00	-0.146973	0.059082	0.970703	-3.220000	10.990000	-2.870000	864.00	-0.21	-0.11	0.00	0.00	0.00	0.00	0.00	0.00	0.50	0.00	0.00	0.25	0.00	0.00	0.00	0.00	0.00	0.00	0.117188	0.348633	1.046387	-34.860001	-248.290009	83.019997	10.00	0.00	0.00
2.00	9.50	15.50	9.00	13.75	6.25	10.25	1.00	5.50	1.00	1.25	1.75	1.00	2.25	0.75	0.00	0.00	-0.147461	0.055664	0.971191	-1.260000	10.710000	-2.450000	852.00	-0.21	-0.12	0.00	0.00	0.00	0.00	0.00	0.00	0.50	0.00	0.00	0.25	0.00	0.00	0.00	0.00	0.00	0.00	0.024414	0.332520	0.998047	-25.480000	-261.940002	90.860001	10.00	0.00	0.00
2.01	9.25	14.75	8.75	13.50	6.25	10.25	1.00	5.75	1.25	1.25	1.75	1.25	2.25	0.50	0.25	0.00	-0.140625	0.062988	0.968262	-0.630000	10.780000	-2.310000	847.00	-0.20	-0.12	0.00	0.00	0.00	0.00	0.00	0.00	0.50	0.00	0.00	0.25	0.00	0.00	0.00	0.00	0.00	0.00	-0.089355	0.292969	1.000977	-20.230000	-270.480011	99.400002	10.00	0.00	0.00
2.02	8.75	13.75	8.75	13.00	6.25	10.25	1.00	5.75	1.50	1.50	1.75	1.25	2.25	1.00	0.25	0.00	-0.143555	0.062500	0.970703	0.070000	10.850000	-2.170000	838.00	-0.19	-0.12	0.00	0.00	0.00	0.00	0.00	0.00	0.50	0.00	0.00	0.00	0.00	0.00	0.00	0.00	0.00	0.00	-0.211426	0.263672	1.030273	-21.840000	-276.220001	108.290001	8.00	0.00	0.00
2.03	8.50	12.75	8.50	12.50	6.50	10.00	1.00	6.00	1.50	1.50	1.75	1.25	2.50	1.25	0.00	0.25	-0.142578	0.056152	0.965820	0.350000	10.920000	-2.310000	824.00	-0.18	-0.12	0.00	0.00	0.00	0.00	0.00	0.00	0.50	0.00	0.00	0.00	0.00	0.00	0.00	0.00	0.00	0.00	-0.311035	0.239746	1.059570	-26.880001	-280.279999	117.180000	8.00	0.00	0.00
2.04	7.50	12.00	8.25	12.25	6.50	10.50	1.25	6.00	1.75	1.50	2.00	1.25	2.75	1.25	0.25	0.25	-0.145508	0.060059	0.966309	0.560000	11.060000	-2.380000	821.00	-0.17	-0.12	0.00	0.00	0.00	0.00	0.00	0.00	0.50	0.00	0.00	0.00	0.00	0.00	0.00	0.00	0.00	0.00	-0.387207	0.225586	1.122070	-32.130001	-283.220001	123.900002	8.00	0.00	0.00
2.05	7.25	10.75	8.00	11.75	6.75	10.50	1.25	6.25	2.25	1.50	2.25	1.50	3.00	1.00	0.25	0.00	-0.142090	0.059082	0.965332	0.700000	10.990000	-2.380000	816.00	-0.16	-0.12	0.00	0.00	0.00	0.00	0.00	0.00	0.50	0.00	0.00	0.25	0.00	0.00	0.00	0.00	0.00	0.00	-0.458496	0.205078	1.171875	-35.209999	-285.529999	127.400002	10.00	0.00	0.00
2.06	6.75	9.75	8.00	11.25	6.50	10.50	1.25	6.25	2.00	1.50	2.25	1.75	3.25	1.00	0.25	0.25	-0.141602	0.053711	0.960449	0.840000	11.340000	-2.310000	796.00	-0.15	-0.12	0.00	0.00	0.00	0.00	0.00	0.00	0.50	0.00	0.00	0.00	0.00	0.00	0.00	0.00	0.00	0.00	-0.517090	0.193359	1.212891	-36.189999	-287.489990	127.400002	8.00	0.00	0.00
2.07	6.25	9.25	7.75	11.00	6.50	10.50	1.25	6.75	2.50	2.00	2.25	1.75	3.50	1.50	0.25	0.25	-0.137207	0.059570	0.962891	1.050000	11.690000	-2.240000	807.00	-0.14	-0.12	0.00	0.00	0.00	0.00	0.00	0.00	0.50	0.00	0.00	0.00	0.00	0.00	0.00	0.00	0.00	0.00	-0.599121	0.142090	1.273926	-38.920002	-288.540009	123.270004	8.00	0.00	0.00
2.08	5.75	8.75	7.25	10.00	6.50	10.50	1.50	6.75	2.50	2.00	2.50	2.00	3.50	1.25	0.25	0.25	-0.144043	0.057129	0.958496	1.680000	11.970000	-2.310000	787.00	-0.13	-0.12	0.00	0.00	0.00	0.00	0.00	0.00	0.50	0.00	0.00	0.00	0.00	0.00	0.00	0.00	0.00	0.00	-0.640625	0.189453	1.337891	-43.119999	-287.769989	116.270004	8.00	0.00	0.00
2.09	5.50	8.25	7.25	9.75	6.75	10.50	1.50	7.00	2.75	2.00	2.75	2.00	4.00	1.75	0.25	0.50	-0.150391	0.055176	0.963867	2.170000	12.530000	-2.450000	800.00	-0.12	-0.12	0.00	0.00	0.00	0.00	0.00	0.00	0.50	0.00	0.00	0.00	0.00	0.00	0.00	0.00	0.00	0.00	-0.706055	0.230469	1.415527	-44.799999	-286.579987	109.199997	8.00	0.00	0.00
2.10	5.25	7.25	6.75	9.25	6.75	10.50	1.50	7.25	3.00	2.25	3.00	2.25	4.00	1.75	0.25	0.50	-0.147949	0.058105	0.960449	2.870000	13.230000	-2.380000	792.00	-0.11	-0.12	0.00	0.00	0.00	0.00	0.00	0.00	0.50	0.00	0.00	0.25	0.00	0.00	0.00	0.00	0.00	0.00	-0.743652	0.261719	1.515625	-44.099998	-284.480011	102.690002	10.00	0.00	0.00
2.11	4.75	6.75	6.50	8.75	6.75	10.75	1.75	7.50	3.00	2.50	3.25	2.50	5.00	2.00	0.25	0.25	-0.152344	0.061523	0.967773	3.360000	14.350000	-2.590000	802.00	-0.09	-0.13	0.00	0.00	0.00	0.00	0.00	0.00	0.50	0.00	0.00	0.00	0.00	0.00	0.00	0.00	0.00	0.00	-0.773926	0.291992	1.624512	-42.209999	-282.029999	96.599998	8.00	0.00	0.00
2.12	4.00	6.25	6.00	8.50	6.75	10.75	1.75	7.75	3.75	2.75	3.25	3.00	5.25	2.00	0.25	0.50	-0.151855	0.055664	0.965820	3.920000	14.770000	-2.730000	806.00	-0.08	-0.13	0.00	0.00	0.00	0.00	0.00	0.00	0.50	0.00	0.00	0.00	0.00	0.00	0.00	0.00	0.00	0.00	-0.794434	0.319824	1.731445	-38.709999	-280.209991	89.739998	8.00	0.00	0.00
2.13	3.50	5.75	5.75	7.75	6.75	10.75	1.75	7.75	3.50	3.00	3.50	3.25	5.75	2.00	0.50	0.50	-0.152832	0.062012	0.961914	4.410000	15.260000	-3.080000	797.00	-0.06	-0.13	0.00	0.00	0.25	0.00	0.00	0.00	0.50	0.00	0.00	0.00	0.00	0.00	0.00	0.00	0.00	0.00	-0.817383	0.313965	1.839844	-33.670002	-280.279999	81.550003	10.00	0.00	0.00
2.14	3.00	5.25	5.25	7.50	6.50	10.75	2.00	8.00	4.00	3.25	4.00	3.25	6.00	2.25	0.50	0.50	-0.156738	0.062500	0.967773	4.760000	16.309999	-3.640000	802.00	-0.05	-0.13	0.00	0.00	0.00	0.00	0.00	0.00	0.50	0.00	0.00	0.00	0.00	0.00	0.00	0.00	0.00	0.00	-0.859375	0.289551	1.888672	-28.770000	-281.820007	71.820000	8.00	0.00	0.00
2.15	3.00	5.00	5.00	7.00	6.50	10.50	2.00	8.25	4.50	3.50	4.25	3.75	6.50	2.25	0.50	0.75	-0.153320	0.065430	0.957031	5.110000	17.150000	-4.270000	815.00	-0.04	-0.13	0.00	0.00	0.00	0.00	0.00	0.00	0.50	0.00	0.00	0.00	0.00	0.00	0.00	0.00	0.00	0.00	-0.917969	0.269043	1.906738	-24.639999	-282.450012	60.760002	8.00	0.00	0.00
2.16	2.75	4.25	4.25	6.50	6.25	10.50	2.25	8.50	5.00	4.00	5.25	4.25	6.75	2.50	0.50	0.75	-0.156250	0.068359	0.963867	5.460000	18.270000	-4.900000	829.00	-0.02	-0.13	0.00	0.00	0.25	0.00	0.00	0.00	0.50	0.00	0.00	0.25	0.00	0.00	0.00	0.00	0.00	0.00	-0.978027	0.261230	1.949219	-19.530001	-281.329987	48.299999	13.00	0.00	0.00
2.17	2.25	3.50	3.75	6.00	6.25	10.25	2.25	8.50	5.25	4.25	6.00	5.00	7.25	3.00	0.50	0.75	-0.158691	0.064941	0.965820	5.600000	20.160000	-5.250000	833.00	0.00	-0.13	0.00	0.00	0.00	0.00	0.00	0.00	0.50	0.00	0.00	0.00	0.00	0.00	0.00	0.00	0.00	0.00	-1.235352	0.267578	2.041992	-9.380000	-282.589996	21.559999	8.00	0.00	0.00
2.18	1.75	3.50	3.25	5.50	6.00	9.75	2.50	8.50	5.75	5.50	7.25	5.75	7.50	3.25	0.50	0.75	-0.157715	0.073730	0.960449	5.390000	22.610001	-5.740000	857.00	0.02	-0.13	0.00	0.00	0.00	0.00	0.00	0.00	0.50	0.00	0.00	0.00	0.00	0.00	0.00	0.00	0.00	0.00	-1.402344	0.281250	2.028809	-2.030000	-286.299988	9.170000	8.00	0.00	0.00
2.19	1.50	2.75	2.75	5.50	5.75	9.50	2.50	8.75	6.50	6.50	7.75	6.75	8.00	3.50	1.00	1.00	-0.171387	0.082520	0.965332	5.250000	25.900000	-6.510000	890.00	0.04	-0.13	0.00	0.00	0.00	0.00	0.00	0.00	0.50	0.00	0.00	0.25	0.00	0.00	0.00	0.00	0.00	0.00	-1.589355	0.288086	1.939453	8.470000	-290.149994	-0.280000	10.00	0.00	0.00
2.20	1.50	2.50	2.25	5.00	5.25	9.25	2.75	8.75	7.50	7.50	8.50	7.50	8.25	4.25	0.75	1.00	-0.157227	0.047363	0.969238	5.320000	28.910000	-7.140000	917.00	0.06	-0.12	0.00	0.00	0.00	0.00	0.00	0.00	0.50	0.00	0.00	0.00	0.00	0.00	0.00	0.00	0.00	0.00	-1.731934	0.241699	1.687012	19.670000	-288.540009	-5.250000	8.00	0.00	0.00
2.21	1.50	2.25	1.75	4.25	5.00	8.75	2.75	8.75	8.00	8.00	9.00	8.00	8.75	5.00	0.75	1.25	-0.168945	0.099609	0.990234	6.860000	36.680000	-9.030000	927.00	0.07	-0.12	0.00	0.00	0.00	0.00	0.00	0.00	0.50	0.00	0.00	0.25	0.00	0.00	0.00	0.00	0.00	0.00	-1.966797	0.145020	1.317871	29.680000	-277.269989	-5.460000	10.00	0.00	0.00
2.22	1.25	1.75	1.50	4.00	4.25	8.50	2.75	8.75	8.50	8.25	9.75	8.50	9.25	5.00	1.00	1.25	-0.183594	0.088379	0.981934	7.000000	41.860001	-10.010000	933.00	0.09	-0.12	0.00	0.00	0.00	0.00	0.00	0.00	0.50	0.00	0.00	0.50	0.25	0.00	0.00	0.00	0.00	0.00	-2.474121	0.104492	0.890625	32.619999	-257.600006	-11.130000	15.00	0.00	0.00
2.23	1.25	1.75	1.25	3.75	3.50	7.75	2.75	8.75	9.00	9.00	10.25	9.25	9.50	6.25	1.00	1.50	-0.181641	0.089844	1.014160	8.960000	47.810001	-11.690000	952.00	0.10	-0.11	0.00	0.00	0.00	0.00	0.00	0.00	0.50	0.00	0.00	0.00	0.25	0.00	0.00	0.00	0.00	0.00	-3.383789	0.160156	0.345703	43.680000	-233.869995	-29.330000	10.00	0.00	0.00
2.24	1.00	1.25	1.25	2.75	2.75	7.00	2.75	8.50	9.50	9.50	11.00	9.50	10.00	6.75	1.25	1.75	-0.209473	0.117676	0.999512	10.290000	55.090000	-13.230000	949.00	0.12	-0.11	0.00	0.00	0.00	0.00	0.00	0.00	0.50	0.00	0.00	0.25	0.00	0.00	0.00	0.00	0.00	0.00	-4.178711	0.078613	-0.383301	83.860001	-201.529999	-48.650002	10.00	0.00	0.00
2.25	0.75	1.25	0.75	2.75	2.25	6.25	2.75	8.25	10.00	10.00	11.75	10.25	10.25	7.75	1.25	2.00	-0.224121	0.073242	1.038574	13.300000	63.000000	-15.470000	963.00	0.13	-0.10	0.00	0.00	0.00	0.00	0.00	0.00	0.50	0.00	0.00	0.25	0.25	0.00	0.00	0.00	0.00	0.00	-4.387207	-0.176270	-0.984863	123.059998	-144.270004	-57.750000	13.00	0.00	0.00
2.26	0.50	0.75	0.25	2.25	1.75	5.50	2.50	8.00	10.25	10.50	12.50	10.75	10.25	8.25	1.50	2.00	-0.224609	0.062012	1.034668	14.770000	73.500000	-14.980000	952.00	0.15	-0.10	0.00	0.00	0.00	0.00	0.00	0.00	0.50	0.00	0.00	0.25	0.25	0.00	0.00	0.00	0.00	0.00	-3.983887	-0.427734	-1.065430	119.279999	-58.170002	-53.270000	13.00	0.00	0.00
2.27	0.75	0.50	0.25	2.25	1.25	5.25	2.50	7.75	10.75	11.00	13.00	11.25	10.50	9.00	1.50	2.50	-0.222168	0.060059	1.072266	14.210000	86.029999	-12.320000	974.00	0.16	-0.10	0.00	0.00	0.00	0.00	0.00	0.00	0.50	0.00	0.00	0.25	0.00	0.00	0.00	0.00	0.00	0.00	-3.301270	-0.510742	-0.553711	66.010002	32.340000	-35.910000	10.00	0.00	0.00
2.28	0.25	0.25	0.25	1.75	1.00	4.00	2.25	7.50	11.25	11.25	13.75	11.50	10.75	9.50	1.50	2.75	-0.242188	0.116211	1.036133	17.990000	99.120003	-11.200000	964.00	0.18	-0.09	0.00	0.00	0.25	0.25	0.00	0.00	0.50	0.00	0.00	0.25	0.00	0.00	0.00	0.00	0.00	0.00	-4.021484	-1.238281	-0.236816	-9.800000	90.510002	-6.580000	16.00	0.00	0.00
2.29	0.50	0.25	0.00	1.50	0.75	3.25	2.00	7.00	11.50	11.75	14.25	12.00	10.50	10.25	1.75	3.00	-0.307617	0.108887	1.035156	25.340000	110.949997	-12.180000	966.00	0.19	-0.09	0.00	0.00	0.25	0.50	0.00	0.00	0.50	0.00	0.00	0.00	0.25	0.00	0.00	0.00	0.00	0.00	-1.182129	-0.032715	0.300293	-138.740005	200.339996	1.330000	18.00	0.00	0.00
2.30	0.00	0.25	0.00	1.25	0.25	2.25	1.75	6.50	11.75	12.00	14.75	12.50	10.50	10.75	2.00	3.75	-0.290039	0.096191	1.086914	29.400000	125.930000	-12.250000	958.00	0.20	-0.09	0.25	1.00	0.50	1.25	0.00	0.00	0.50	0.00	0.00	0.00	0.00	0.00	0.00	0.00	0.00	0.00	-0.116699	0.630859	2.526367	-126.419998	204.750000	2.730000	39.00	0.00	0.00
2.31	0.00	0.25	0.00	1.25	0.50	1.75	1.25	6.00	11.75	12.25	15.00	12.50	10.25	11.50	2.00	4.00	-0.297363	0.089844	1.157227	32.480000	148.750000	-11.620000	951.00	0.21	-0.08	1.50	2.50	1.25	2.50	0.00	0.00	0.50	0.00	0.00	0.00	0.00	0.00	0.00	0.00	0.00	0.00	0.401367	0.293457	1.952148	-100.590004	134.119995	33.389999	87.00	-0.31	-0.06
2.32	0.25	0.50	0.00	0.75	0.00	1.50	1.00	5.50	12.00	12.50	15.25	12.75	9.75	12.00	2.25	4.25	-0.314453	0.095215	1.200684	34.230000	165.970001	-9.380000	946.00	0.21	-0.08	3.75	5.00	2.25	3.50	0.25	0.00	0.50	0.00	0.00	0.00	0.00	0.00	0.25	0.00	0.00	0.00	0.313477	-0.342285	0.451172	-119.000000	88.970001	42.560001	161.00	-0.32	-0.05
2.33	0.00	0.00	0.00	0.25	0.00	1.00	0.75	5.00	12.00	12.50	15.50	12.50	9.25	12.75	2.25	4.25	-0.326172	0.117188	1.077637	32.759998	187.809998	-11.270000	918.00	0.23	-0.07	7.50	8.50	3.00	5.25	0.00	0.00	0.50	0.00	0.00	0.00	0.00	0.25	0.25	0.00	0.00	0.00	0.057617	-0.642090	0.376465	-77.419998	154.490005	50.820000	259.00	-0.34	-0.06
2.34	0.00	0.00	0.00	0.25	0.00	0.00	0.50	4.00	11.75	12.25	15.50	12.25	8.75	13.50	2.25	4.25	-0.415527	0.147949	1.041016	30.940001	212.029999	-14.280000	882.00	0.24	-0.06	10.25	11.50	4.00	6.50	0.50	0.00	0.50	0.00	0.00	0.00	0.00	0.00	0.25	0.00	0.00	0.00	-0.126953	-1.155273	1.536621	-26.110001	220.360001	35.349998	343.00	-0.35	-0.05
2.35	0.00	0.00	0.00	0.00	0.00	0.00	0.25	3.25	11.25	12.00	15.25	12.00	8.25	13.50	2.50	4.50	-0.558594	0.184570	1.145020	31.500000	238.839996	-18.760000	849.00	0.25	-0.06	13.50	13.75	7.00	8.50	1.00	0.00	0.50	0.00	0.00	0.00	0.25	0.00	0.25	0.00	0.00	0.00	-0.484863	-0.584473	2.002441	14.000000	228.759995	-1.610000	461.00	-0.34	-0.04
2.36	0.00	0.00	0.00	0.00	0.00	0.50	0.25	3.00	10.75	11.75	14.75	11.50	7.50	13.75	2.50	4.25	-0.543945	0.135742	1.207520	31.430000	263.970001	-21.629999	825.00	0.25	-0.05	15.75	15.75	8.25	10.00	1.75	1.00	0.50	0.00	0.00	0.00	0.25	0.25	0.50	0.00	0.00	0.00	-0.656738	0.229492	2.376953	47.389999	200.410004	-20.930000	557.00	-0.33	-0.05
2.37	0.00	0.00	0.00	0.00	0.00	0.00	0.00	2.25	10.25	11.50	14.50	11.25	6.75	14.00	2.75	4.25	-0.404297	0.165527	1.401855	31.920000	301.559998	-27.160000	789.00	0.25	-0.05	16.75	16.50	9.25	11.00	2.50	2.00	0.75	0.25	0.00	0.25	0.25	0.25	0.50	0.00	0.00	0.00	-0.417969	0.323730	1.850586	-4.690000	120.750000	2.520000	626.00	-0.32	-0.05
2.38	0.00	0.00	0.00	0.00	0.00	0.00	0.00	1.75	9.25	10.75	13.75	10.25	6.00	13.50	2.75	4.00	-0.515137	0.187988	1.355957	29.540001	327.739990	-32.759998	729.00	0.26	-0.04	16.50	16.75	9.50	11.50	3.50	3.00	0.75	0.75	0.00	0.25	0.50	0.25	1.00	0.00	0.00	0.00	-0.247559	-0.048340	1.368164	-27.370001	78.540001	6.510000	670.00	-0.30	-0.06
2.39	0.25	0.25	0.00	0.00	0.00	0.00	0.00	1.25	8.50	10.00	12.75	9.50	5.25	13.00	2.25	3.25	-0.809082	0.358887	1.990234	36.330002	385.630005	-38.920002	671.00	0.26	-0.04	16.25	16.75	9.75	11.75	4.25	3.75	1.00	0.50	0.00	0.25	0.25	0.25	1.00	0.00	0.00	0.00	-0.107422	0.001953	1.102539	-18.900000	52.080002	3.500000	687.00	-0.30	-0.06
2.40	0.00	0.00	0.00	0.00	0.00	0.00	0.00	1.00	7.25	9.00	11.50	8.50	4.50	11.50	1.75	2.50	-0.809082	0.358887	1.990234	36.330002	385.630005	-38.920002	583.00	0.26	-0.04	16.25	16.50	9.75	11.75	4.50	4.25	1.00	0.75	0.00	0.25	0.25	0.25	1.00	0.00	0.00	0.00	-0.100098	0.174805	1.040527	-10.920000	38.430000	4.760000	696.00	-0.30	-0.06
2.41	0.00	0.00	0.00	0.00	0.00	0.00	0.00	0.75	5.25	7.75	9.75	7.50	3.25	9.75	1.25	1.75	-0.943359	0.341797	2.297363	58.029999	419.299988	-42.700001	476.00	0.26	-0.04	15.50	16.25	9.75	12.25	5.00	5.00	1.00	1.25	0.00	0.50	0.50	0.25	0.75	0.00	0.25	0.00	-0.174316	0.086914	1.135254	-11.340000	27.090000	6.650000	719.00	-0.28	-0.07
2.42	0.00	0.00	0.00	0.00	0.00	0.00	0.00	0.50	4.00	6.00	8.25	5.75	2.50	7.50	0.75	1.00	-0.733887	0.284668	2.570312	108.080002	466.339996	-42.840000	368.00	0.26	-0.04	15.50	16.25	10.00	12.25	5.25	5.25	1.00	1.50	0.00	0.75	0.50	0.50	1.25	0.00	0.00	0.00	-0.150879	0.076172	1.021973	-10.710000	16.379999	5.880000	738.00	-0.28	-0.07
2.43	0.00	0.00	0.00	0.00	0.00	0.00	0.00	0.25	2.50	4.25	6.00	4.50	1.75	5.25	0.50	0.50	-0.751465	0.398438	2.122070	135.940002	474.040009	-40.670002	259.00	0.26	-0.04	15.25	16.00	10.00	12.50	5.50	5.75	1.00	1.50	0.25	0.50	0.50	0.75	1.00	0.00	0.00	0.25	-0.116211	0.098145	0.993164	-9.310000	9.310000	4.900000	746.00	-0.27	-0.07
2.44	0.00	0.00	0.00	0.00	0.00	0.00	0.00	0.00	2.00	2.75	4.25	3.25	1.25	3.00	0.25	0.25	-0.475098	0.459473	2.292480	164.289993	477.610016	-46.130001	174.00	0.26	-0.04	15.00	16.00	10.25	12.50	5.75	6.50	1.25	1.75	0.50	1.00	0.50	0.50	1.25	0.00	0.00	0.00	-0.112793	0.090332	1.018066	-11.760000	6.230000	3.850000	772.00	-0.26	-0.07
2.45	0.00	0.00	0.00	0.00	0.00	0.25	0.00	0.25	1.75	2.25	3.00	2.25	0.75	1.75	0.25	0.00	-0.162109	0.336914	2.061035	189.139999	485.450012	-61.320000	132.00	0.24	-0.04	15.00	16.00	10.25	12.50	5.75	6.50	1.25	2.00	0.25	1.00	1.00	0.75	1.25	0.25	0.00	0.00	-0.113281	0.062012	0.997559	-12.950000	3.290000	2.590000	782.00	-0.26	-0.07
2.46	0.00	0.00	0.00	0.00	0.00	0.00	0.00	0.00	1.25	1.50	2.00	1.50	0.50	1.00	0.00	0.00	0.295410	0.083984	1.813477	195.860001	494.970001	-91.699997	82.00	0.25	-0.03	14.50	16.25	10.25	12.75	6.00	7.00	1.25	2.00	0.50	0.75	1.00	0.50	1.75	0.50	0.00	0.00	-0.105957	0.062988	0.999023	-11.970000	1.190000	1.330000	795.00	-0.25	-0.08
2.47	0.00	0.00	0.00	0.00	0.00	0.00	0.00	0.00	0.50	1.00	1.25	0.75	0.25	0.50	0.00	0.00	-0.224121	0.054199	1.361328	167.020004	488.390015	-125.930000	44.00	0.00	0.00	14.25	15.50	10.25	12.75	6.25	7.50	1.25	2.50	0.75	1.00	1.25	1.00	1.50	0.25	0.25	0.25	-0.108398	0.062988	1.007324	-10.080000	0.630000	0.560000	815.00	-0.24	-0.08
2.48	0.00	0.00	0.00	0.00	0.00	0.25	0.00	0.00	0.50	1.00	1.25	1.00	0.25	0.50	0.00	0.00	0.237305	0.189453	4.350586	61.320000	381.500000	-130.550003	50.00	0.00	0.00	14.25	15.25	10.00	12.50	6.50	7.75	1.50	2.75	0.50	1.00	1.25	0.50	1.75	0.25	0.00	0.25	-0.103516	0.055176	0.999512	-7.980000	0.700000	0.490000	811.00	-0.24	-0.08
2.49	0.00	0.00	0.00	0.00	0.00	0.25	0.00	0.00	0.50	1.00	1.25	0.75	0.25	0.00	0.00	0.00	0.818359	0.377930	4.133301	-40.810001	195.160004	-106.959999	43.00	0.00	0.00	14.00	15.00	10.00	12.75	6.75	7.75	1.25	2.75	1.00	1.25	1.25	1.00	2.00	0.75	0.00	0.25	-0.106934	0.049316	0.999023	-6.090000	1.190000	0.560000	828.00	-0.23	-0.08
2.50	0.00	0.00	0.00	0.00	0.00	0.00	0.00	0.00	0.50	0.75	1.25	0.50	0.00	0.25	0.00	0.00	1.238770	0.603516	3.269531	-110.180000	-1.540000	-64.400002	35.00	0.00	0.00	13.50	14.75	10.25	12.50	7.00	8.00	1.50	2.75	0.75	1.00	1.25	1.00	2.25	0.75	0.00	0.25	-0.109863	0.061523	1.012695	-4.340000	1.750000	0.840000	827.00	-0.23	-0.08
2.51	0.00	0.00	0.00	0.00	0.00	0.00	0.00	0.00	0.25	0.50	1.25	0.25	0.00	0.00	0.00	0.00	0.789062	0.662109	2.254395	-124.110001	-128.660004	-33.320000	24.00	0.00	0.00	12.75	14.25	10.00	12.25	7.00	8.00	1.50	3.25	0.75	1.00	1.00	1.25	2.25	0.75	0.00	0.25	-0.104980	0.054199	0.999512	-2.450000	2.730000	0.770000	816.00	-0.22	-0.09
2.52	0.00	0.00	0.00	0.00	0.00	0.00	0.00	0.00	0.25	0.50	0.75	0.50	0.00	0.00	0.00	0.00	0.773926	0.485840	1.314453	-102.690002	-185.360001	-21.840000	22.00	0.00	0.00	12.25	14.25	9.75	12.00	6.75	8.00	1.75	3.25	0.75	1.25	2.00	0.75	2.50	0.50	0.00	0.25	-0.097656	0.057129	0.993164	-0.910000	4.480000	0.980000	814.00	-0.22	-0.09
2.53	0.00	0.00	0.00	0.00	0.00	0.00	0.00	0.00	0.00	0.25	0.75	0.00	0.00	0.00	0.00	0.00	0.610352	0.408203	0.856445	-76.930000	-206.710007	-24.780001	10.00	0.00	0.00	12.00	13.00	9.50	12.00	7.00	8.00	1.50	3.75	0.75	1.50	1.50	1.00	2.50	1.00	0.00	0.25	-0.104492	0.064453	0.992188	0.070000	5.950000	1.260000	808.00	-0.21	-0.09
2.54	0.00	0.00	0.00	0.00	0.00	0.00	0.00	0.00	0.00	0.25	0.75	0.25	0.00	0.00	0.00	0.00	0.493164	0.360840	0.646484	-59.220001	-212.169998	-31.639999	13.00	0.00	0.00	11.00	12.50	9.25	11.75	6.75	8.00	1.75	3.50	1.25	1.25	1.50	1.00	2.75	1.00	0.25	0.50	-0.108398	0.068848	0.991211	0.210000	6.580000	0.980000	795.00	-0.20	-0.09
2.55	0.00	0.00	0.00	0.00	0.00	0.00	0.00	0.00	0.00	0.25	0.50	0.00	0.00	0.00	0.00	0.00	0.459473	0.335938	0.544434	-49.420002	-212.589996	-35.490002	8.00	0.00	0.00	10.00	11.75	9.00	11.25	6.50	7.75	1.75	4.00	1.25	1.50	1.50	1.25	3.00	1.00	0.25	0.25	-0.115723	0.064941	0.985352	0.280000	6.160000	0.280000	778.00	-0.19	-0.09
2.56	0.00	0.00	0.00	0.00	0.00	0.00	0.00	0.00	0.00	0.25	0.25	0.00	0.00	0.00	0.00	0.00	0.395996	0.349121	0.580566	-47.250000	-213.220001	-34.860001	5.00	0.00	0.00	9.25	11.00	9.00	11.00	6.75	7.75	1.75	4.00	1.00	1.50	1.75	1.50	3.25	1.00	0.25	0.50	-0.115723	0.069824	0.989258	-0.000000	5.600000	-0.420000	769.00	-0.18	-0.10
2.57	0.00	0.00	0.00	0.00	0.00	0.00	0.00	0.00	0.00	0.25	0.50	0.00	0.00	0.00	0.00	0.00	0.325195	0.397461	0.740723	-50.189999	-216.649994	-29.889999	8.00	0.00	0.00	8.75	10.00	8.50	10.50	6.75	7.75	1.75	4.75	1.25	1.75	1.75	1.25	3.25	1.00	0.00	0.50	-0.113281	0.067871	0.974609	-1.680000	4.900000	-1.610000	755.00	-0.17	-0.10
2.58	0.00	0.00	0.00	0.00	0.00	0.00	0.00	0.00	0.00	0.00	0.25	0.00	0.00	0.00	0.00	0.00	0.284180	0.447266	0.947266	-58.520000	-227.500000	-20.790001	3.00	0.00	0.00	8.25	9.50	8.50	10.50	6.75	8.00	1.75	5.00	1.25	1.75	1.75	1.50	3.50	1.00	0.25	0.50	-0.118164	0.067871	0.980957	-1.750000	4.830000	-1.750000	760.00	-0.16	-0.11
2.59	0.00	0.00	0.00	0.00	0.00	0.00	0.00	0.00	0.00	0.25	0.25	0.00	0.00	0.00	0.00	0.00	0.227051	0.502930	1.062500	-67.970001	-246.680008	-8.610000	5.00	0.00	0.00	8.00	9.25	8.25	10.25	6.75	7.75	2.00	5.25	1.50	1.75	2.00	1.75	4.00	1.00	0.25	0.75	-0.119141	0.056641	0.981445	-1.260000	5.040000	-1.820000	768.00	-0.15	-0.11
2.60	0.00	0.00	0.00	0.00	0.00	0.00	0.00	0.00	0.00	0.00	0.00	0.00	0.00	0.00	0.00	0.00	0.163574	0.564453	1.123535	-71.680000	-268.730011	5.810000	0.00	0.00	0.00	7.50	8.50	8.00	9.75	7.00	7.75	2.00	5.50	1.50	2.00	2.25	2.00	4.50	1.50	0.25	0.50	-0.118164	0.064453	0.983398	-0.910000	4.970000	-1.820000	769.00	-0.14	-0.11
2.61	0.00	0.00	0.00	0.00	0.00	0.00	0.00	0.00	0.00	0.00	0.00	0.00	0.00	0.00	0.00	0.00	0.067871	0.607422	1.090332	-65.660004	-289.100006	19.879999	0.00	0.00	0.00	7.00	8.00	7.75	9.50	6.75	7.75	2.00	5.75	1.75	2.00	2.75	2.25	4.75	1.50	0.00	0.75	-0.121582	0.062988	0.987793	-0.630000	5.670000	-1.820000	767.00	-0.13	-0.11
2.62	0.00	0.00	0.00	0.00	0.00	0.00	0.00	0.00	0.00	0.00	0.00	0.00	0.00	0.00	0.00	0.00	-0.051270	0.648438	1.065430	-49.910000	-305.410004	31.850000	0.00	0.00	0.00	6.25	7.25	7.75	9.25	6.75	7.75	2.25	6.00	2.00	2.00	2.50	2.50	5.00	1.75	0.00	0.75	-0.118652	0.071289	0.989746	-0.490000	6.440000	-2.100000	765.00	-0.12	-0.11
2.63	0.00	0.00	0.00	0.00	0.00	0.00	0.00	0.00	0.00	0.00	0.00	0.00	0.00	0.00	0.00	0.00	-0.176758	0.643066	1.038086	-29.330000	-316.820007	42.630001	0.00	0.00	0.00	5.75	6.50	7.25	8.75	6.75	7.50	2.25	6.25	2.00	2.50	2.75	2.75	5.00	1.75	0.25	0.75	-0.111328	0.068359	0.985352	-0.490000	7.420000	-2.240000	756.00	-0.10	-0.11
2.64	0.00	0.00	0.00	0.00	0.00	0.00	0.00	0.00	0.00	0.00	0.00	0.00	0.00	0.00	0.00	0.00	-0.428711	0.518555	1.066895	0.560000	-325.640015	64.400002	0.00	0.00	0.00	5.00	6.00	7.00	8.25	6.75	7.50	2.25	6.50	2.25	2.50	2.75	2.75	5.25	2.00	0.50	0.75	-0.121094	0.070312	0.984375	-0.560000	8.610000	-2.380000	749.00	-0.09	-0.12
2.65	0.00	0.00	0.00	0.00	0.00	0.00	0.00	0.00	0.00	0.00	0.00	0.00	0.00	0.00	0.00	0.00	-0.495117	0.439941	1.178711	6.230000	-324.660004	72.239998	0.00	0.00	0.00	4.50	5.50	6.50	8.00	6.75	7.50	2.50	6.75	2.75	2.50	3.25	2.75	5.50	2.25	0.00	0.75	-0.123535	0.059082	0.985352	-0.560000	9.730000	-2.800000	750.00	-0.08	-0.12
2.66	0.00	0.00	0.00	0.00	0.00	0.00	0.00	0.00	0.00	0.00	0.00	0.00	0.00	0.00	0.00	0.00	-0.594727	0.365234	1.344238	5.670000	-326.480011	76.440002	0.00	0.00	0.00	3.75	5.00	6.25	7.50	6.50	7.50	2.75	6.75	3.25	3.00	3.25	3.00	6.00	2.75	0.50	1.00	-0.131836	0.072266	0.993652	-0.210000	10.640000	-3.430000	760.00	-0.05	-0.11
2.67	0.00	0.00	0.00	0.00	0.00	0.00	0.00	0.00	0.00	0.00	0.00	0.00	0.00	0.00	0.00	0.00	-0.650391	0.354980	1.478516	-0.910000	-331.730011	77.840004	0.00	0.00	0.00	3.00	4.75	5.75	7.00	6.50	7.25	2.75	7.00	3.50	3.00	3.50	3.25	6.75	3.00	0.50	1.00	-0.122070	0.067383	0.985352	-0.350000	11.690000	-3.850000	757.00	-0.04	-0.12
2.68	0.00	0.00	0.00	0.00	0.00	0.00	0.00	0.00	0.00	0.00	0.00	0.00	0.00	0.00	0.00	0.00	-0.712891	0.382324	1.566895	-5.250000	-338.309998	76.370003	0.00	0.00	0.00	2.75	3.75	5.25	6.50	6.25	7.00	2.75	7.25	3.50	3.75	3.75	3.50	7.00	3.50	0.25	1.00	-0.125977	0.074219	0.992676	-0.420000	13.440001	-4.830000	749.00	-0.02	-0.12
2.69	0.00	0.00	0.00	0.00	0.00	0.00	0.00	0.00	0.00	0.00	0.00	0.00	0.00	0.00	0.00	0.00	-0.770996	0.436035	1.654297	-8.610000	-344.190002	74.129997	0.00	0.00	0.00	2.25	3.00	4.75	6.00	6.25	7.00	3.00	7.50	3.75	4.00	4.25	4.00	7.50	3.75	0.50	1.25	-0.144043	0.059082	0.993164	-0.840000	15.190001	-5.600000	760.00	-0.00	-0.12
2.70	0.00	0.00	0.00	0.00	0.00	0.00	0.00	0.00	0.00	0.00	0.00	0.00	0.00	0.00	0.00	0.00	-0.843262	0.510742	1.755859	-10.710000	-348.110016	73.360001	0.00	0.00	0.00	2.00	2.50	4.25	5.50	6.00	6.75	3.00	7.50	4.50	4.25	5.25	4.50	7.75	4.75	0.50	1.50	-0.177734	0.060059	0.995605	-1.120000	16.870001	-5.880000	777.00	0.02	-0.11
2.71	0.00	0.00	0.00	0.00	0.00	0.00	0.00	0.00	0.00	0.00	0.00	0.00	0.00	0.00	0.00	0.00	-0.933594	0.589844	1.875977	-8.750000	-350.489990	74.129997	0.00	0.00	0.00	1.75	2.50	3.25	5.00	5.50	6.25	3.00	7.25	5.25	5.50	6.25	4.75	8.25	5.50	0.75	1.50	-0.145020	0.069824	1.002441	-1.680000	18.969999	-6.090000	792.00	0.05	-0.11
2.72	0.00	0.00	0.00	0.00	0.00	0.25	0.00	0.00	0.00	0.00	0.00	0.00	0.00	0.00	0.00	0.00	-1.071289	0.628906	1.983887	-1.190000	-351.329987	75.599998	3.00	0.00	0.00	1.75	1.75	2.75	4.25	5.25	5.75	3.00	7.25	6.25	6.00	7.00	5.50	8.50	5.75	0.75	1.75	-0.141113	0.086914	1.001465	-1.890000	21.559999	-6.650000	803.00	0.07	-0.10
2.73	0.00	0.00	0.00	0.00	0.00	0.00	0.00	0.00	0.00	0.00	0.00	0.00	0.00	0.00	0.00	0.00	-1.280273	0.637695	2.075684	10.570000	-351.610016	77.209999	0.00	0.00	0.00	1.50	2.25	3.00	4.25	4.50	5.50	3.25	7.25	7.00	7.25	8.00	6.25	8.50	6.75	0.75	1.75	-0.157227	0.080078	1.003906	-2.310000	24.290001	-7.770000	850.00	0.08	-0.09
2.74	0.00	0.00	0.00	0.00	0.00	0.00	0.00	0.00	0.00	0.00	0.00	0.00	0.00	0.00	0.00	0.00	-1.573242	0.604492	2.182129	21.840000	-351.820007	80.430000	0.00	0.00	0.00	1.00	1.50	2.00	3.75	4.50	5.00	3.25	7.00	7.50	7.75	8.25	7.25	8.75	7.50	1.00	2.00	-0.145020	0.061523	1.001953	-1.610000	27.230000	-8.890000	850.00	0.10	-0.09
2.75	0.00	0.00	0.00	0.00	0.00	0.00	0.00	0.00	0.00	0.00	0.00	0.00	0.00	0.00	0.00	0.00	-1.895020	0.503418	2.222656	29.960001	-351.610016	84.279999	0.00	0.00	0.00	0.50	1.50	1.75	3.75	3.50	4.50	3.25	7.00	7.75	8.25	9.00	7.75	9.00	7.75	1.00	2.25	-0.155273	0.053711	1.024902	-0.840000	29.889999	-9.660000	853.00	0.12	-0.09
2.76	0.00	0.00	0.00	0.00	0.00	0.00	0.00	0.00	0.00	0.00	0.00	0.00	0.00	0.00	0.00	0.00	-2.211914	0.366211	2.108887	48.090000	-347.269989	84.910004	0.00	0.00	0.00	0.75	1.75	1.00	2.75	3.00	4.00	3.25	6.75	8.50	8.75	9.25	8.25	9.00	8.50	1.00	2.50	-0.162109	0.071777	1.031738	0.560000	33.180000	-10.010000	854.00	0.13	-0.09
2.77	0.00	0.00	0.00	0.00	0.00	0.00	0.00	0.00	0.00	0.00	0.00	0.00	0.00	0.00	0.00	0.00	-2.515625	0.143066	1.901367	78.820000	-335.720001	84.349998	0.00	0.00	0.00	0.25	1.00	1.25	2.50	2.50	2.75	3.25	6.75	9.00	9.25	10.00	8.50	9.25	9.25	1.25	3.00	-0.174805	0.081055	1.041016	2.800000	44.869999	-10.220000	859.00	0.15	-0.08
2.78	0.00	0.00	0.00	0.00	0.00	0.00	0.00	0.00	0.00	0.00	0.00	0.00	0.00	0.00	0.00	0.00	-2.743164	-0.104004	1.679199	98.070000	-315.209991	82.809998	0.00	0.00	0.00	0.50	1.00	1.00	2.00	2.00	2.25	3.00	6.50	9.50	10.00	10.50	8.75	9.50	10.25	1.50	3.25	-0.170898	0.080078	1.062500	4.410000	54.389999	-11.200000	872.00	0.17	-0.08
2.79	0.00	0.00	0.00	0.00	0.00	0.00	0.00	0.00	0.00	0.00	0.00	0.00	0.00	0.00	0.00	0.00	-2.855957	-0.297852	1.410645	82.739998	-286.579987	80.989998	0.00	0.00	0.00	0.50	0.50	0.75	1.50	1.50	1.75	3.00	6.25	10.25	10.50	11.00	9.25	9.50	11.25	1.75	3.50	-0.213867	0.071289	1.072754	5.880000	66.709999	-12.110000	883.00	0.18	-0.07
2.80	0.00	0.00	0.00	0.00	0.00	0.00	0.00	0.00	0.00	0.00	0.00	0.00	0.00	0.00	0.00	0.00	-2.978516	-0.345703	1.092773	33.740002	-251.860001	82.739998	0.00	0.00	0.00	0.00	0.75	0.50	1.50	1.25	1.00	2.75	6.00	10.75	11.00	11.50	9.50	9.50	12.25	2.25	4.00	-0.200195	0.077637	1.081055	6.790000	81.620003	-12.110000	894.00	0.20	-0.06
2.81	0.00	0.00	0.00	0.00	0.00	0.00	0.00	0.00	0.00	0.00	0.00	0.00	0.00	0.00	0.00	0.00	-3.102051	-0.247559	0.587402	-28.700001	-213.990005	85.330002	0.00	0.00	0.00	0.25	0.00	0.25	1.00	1.00	1.00	2.50	5.50	11.50	11.50	12.00	9.75	9.50	13.25	2.25	5.00	-0.236328	0.081543	1.064941	9.870000	94.779999	-13.230000	905.00	0.21	-0.06
2.82	0.00	0.00	0.00	0.00	0.00	0.00	0.00	0.00	0.00	0.00	0.00	0.00	0.00	0.00	0.00	0.00	-3.437988	0.084473	0.014648	-91.419998	-178.289993	67.480003	0.00	0.00	0.00	0.00	0.00	0.25	1.25	0.75	0.75	2.25	5.25	12.00	12.00	12.50	10.00	9.50	14.50	2.75	5.25	-0.203125	0.095215	1.177246	13.160000	108.779999	-13.860000	929.00	0.22	-0.05
2.83	0.00	0.00	0.00	0.00	0.00	0.00	0.00	0.00	0.00	0.00	0.00	0.00	0.00	0.00	0.00	0.00	-4.407227	0.641113	-0.312500	-103.040001	-145.250000	14.070000	0.00	0.00	0.00	0.00	0.25	0.00	1.25	0.50	0.25	2.00	4.50	12.25	12.50	13.00	10.50	9.50	15.75	2.75	6.00	-0.265625	0.033203	1.124512	16.940001	122.989998	-12.180000	938.00	0.23	-0.05
2.84	0.00	0.00	0.00	0.00	0.00	0.00	0.00	0.00	0.00	0.00	0.00	0.00	0.00	0.00	0.00	0.00	-4.558594	0.818359	-0.897949	-10.360000	-104.230003	-37.310001	0.00	0.00	0.00	0.00	0.00	0.00	0.25	0.00	0.00	1.75	3.75	12.50	12.50	13.25	10.50	9.25	17.00	3.25	6.25	-0.279785	0.048828	1.145020	18.969999	139.020004	-9.100000	923.00	0.25	-0.04
2.85	0.00	0.00	0.00	0.00	0.00	0.00	0.00	0.00	0.00	0.00	0.00	0.00	0.00	0.00	0.00	0.00	-3.613770	-0.271973	-0.642090	166.600006	46.060001	-41.580002	0.00	0.00	0.00	0.00	0.50	0.00	0.50	0.00	0.00	1.25	2.75	12.25	12.75	13.25	10.50	9.00	18.00	3.50	6.50	-0.304199	0.107910	1.138672	20.860001	156.169998	-8.890000	917.00	0.25	-0.04
2.86	0.00	0.00	0.00	0.00	0.00	0.00	0.00	0.00	0.00	0.00	0.00	0.00	0.00	0.00	0.00	0.00	-2.900879	-0.492188	0.009766	82.739998	117.879997	0.560000	0.00	0.00	0.00	0.00	0.25	0.00	0.00	0.00	0.00	1.00	2.00	12.25	13.00	13.50	10.50	8.50	19.25	3.50	7.00	-0.399902	0.172363	1.019531	20.090000	175.000000	-11.550000	908.00	0.26	-0.03
2.87	0.00	0.00	0.00	0.25	0.00	0.00	0.00	0.00	0.00	0.00	0.00	0.00	0.00	0.00	0.00	0.00	0.607422	0.419922	1.865234	-60.200001	250.250000	8.750000	3.00	0.00	0.00	0.00	0.00	0.00	0.00	0.00	0.00	0.75	1.50	11.75	12.75	13.25	10.50	8.50	20.00	4.75	6.75	-0.354492	0.128906	1.219727	18.900000	200.199997	-15.960000	901.00	0.27	-0.03
2.88	0.50	0.75	0.75	1.00	0.25	0.00	0.00	0.00	0.00	0.00	0.00	0.00	0.00	0.00	0.00	0.00	0.694824	0.920410	2.680176	-50.400002	224.000000	33.599998	34.00	0.00	0.00	0.00	0.00	0.00	0.00	0.00	0.00	0.50	1.00	11.50	12.50	13.25	10.25	7.75	20.50	5.25	6.75	-0.429199	0.198242	1.306152	13.720000	227.779999	-21.629999	884.00	0.28	-0.02
2.89	1.25	2.25	1.25	2.50	0.00	0.00	0.00	0.00	0.00	0.00	0.00	0.00	0.00	0.00	0.00	0.00	0.420410	-0.749512	0.232422	-86.449997	162.119995	35.980000	75.00	-0.34	-0.09	0.00	0.00	0.00	0.00	0.00	0.00	0.25	0.75	11.00	12.25	13.00	10.00	7.50	21.25	5.25	6.50	-0.461426	0.166016	1.381836	5.390000	259.980011	-29.820000	865.00	0.28	-0.02
2.90	2.50	5.00	1.75	4.00	0.25	0.00	0.00	0.00	0.00	0.00	0.00	0.00	0.00	0.00	0.00	0.00	-0.339355	-0.550293	0.352051	-155.820007	185.149994	-9.030000	138.00	-0.35	-0.09	0.00	0.00	0.00	0.00	0.00	0.00	0.25	0.25	10.25	11.75	12.50	9.75	7.00	21.00	5.50	6.50	-0.545410	0.224121	1.351074	12.110000	286.299988	-35.840000	831.00	0.28	-0.02
2.91	6.75	10.25	2.75	7.00	0.25	0.00	0.00	0.00	0.00	0.00	0.00	0.00	0.00	0.00	0.00	0.00	-0.187988	-0.306152	1.834961	-105.489998	253.960007	-21.280001	274.00	-0.36	-0.08	0.25	0.00	0.00	0.00	0.00	0.00	0.00	0.00	9.25	11.00	12.00	9.25	6.00	20.75	5.50	6.00	-0.565918	0.243652	1.455566	-3.220000	316.959991	-40.529999	781.00	0.29	-0.01
2.92	11.00	16.75	4.50	8.75	0.75	0.50	0.00	0.00	0.00	0.00	0.00	0.25	0.00	0.00	0.00	0.00	-0.812500	-0.397461	2.510742	-48.930000	256.690002	-20.090000	431.00	-0.35	-0.07	0.00	0.00	0.00	0.00	0.00	0.00	0.00	0.00	8.00	10.25	11.00	8.50	5.25	20.25	5.25	5.25	-0.768555	0.388184	1.897461	-2.380000	357.839996	-47.740002	718.00	0.29	-0.01
2.93	15.75	20.25	7.25	11.25	1.50	1.50	0.00	0.25	0.00	0.00	0.00	0.00	0.00	0.00	0.00	0.00	-0.795898	0.177734	2.556152	-28.210001	234.779999	-26.950001	590.00	-0.35	-0.07	0.00	0.00	0.00	0.00	0.00	0.00	0.00	0.00	6.75	9.00	10.00	8.00	4.50	18.50	4.50	4.25	-0.850586	0.213379	2.123535	9.170000	395.779999	-58.450001	638.00	0.29	-0.01
2.94	17.75	22.50	9.00	13.50	2.25	3.25	0.00	0.50	0.00	0.00	0.00	0.00	0.00	0.00	0.00	0.00	-0.804199	0.501465	2.724121	-40.599998	176.190002	-10.220000	707.00	-0.34	-0.07	0.00	0.00	0.00	0.00	0.00	0.00	0.00	0.00	5.25	8.00	9.00	7.25	2.50	15.75	3.50	3.00	-0.634766	0.323242	2.230469	14.490000	426.160004	-64.190002	532.00	0.29	-0.01
2.95	19.00	22.75	9.75	14.25	3.25	4.25	0.25	0.75	0.00	0.00	0.25	0.00	0.25	0.00	0.00	0.00	-0.428711	0.007324	1.542480	-69.720001	112.419998	2.800000	773.00	-0.32	-0.07	0.00	0.00	0.00	0.00	0.00	0.00	0.00	0.00	4.25	6.75	8.00	5.50	1.50	12.50	2.50	2.00	-1.088379	0.367676	2.655762	30.380001	453.809998	-64.470001	424.00	0.29	0.00
2.96	18.50	22.25	10.00	14.75	3.75	5.25	0.25	0.75	0.00	0.00	0.25	0.00	0.50	0.00	0.00	0.00	-0.147949	-0.106445	1.163086	-65.660004	85.820000	1.260000	790.00	-0.32	-0.07	0.00	0.00	0.00	0.00	0.00	0.00	0.00	0.00	2.50	4.50	5.50	4.00	1.00	9.25	1.25	1.25	-0.463867	0.396973	2.459961	129.990005	486.360016	-75.180000	287.00	0.29	-0.00
2.97	17.25	21.75	10.25	15.00	4.50	6.25	0.50	1.00	0.00	0.25	0.50	0.25	0.50	0.00	0.00	0.00	-0.227539	0.054688	1.154297	-48.650002	68.739998	-0.840000	813.00	-0.30	-0.08	0.00	0.00	0.00	0.00	0.00	0.00	0.25	0.00	1.25	3.25	4.00	2.75	0.75	6.25	0.50	0.75	-0.280273	0.349609	2.427734	180.740005	495.880005	-84.910004	194.00	0.28	-0.01
2.98	17.25	21.25	10.50	15.25	5.25	7.25	0.50	1.50	0.25	0.25	0.25	0.00	0.50	0.00	0.00	0.00	-0.224121	0.070312	1.069824	-37.450001	48.580002	1.120000	838.00	-0.30	-0.08	0.00	0.00	0.00	0.00	0.00	0.00	0.25	0.00	1.00	2.75	2.75	2.00	1.25	3.00	0.50	0.25	-0.166992	0.306641	2.605957	209.300003	495.950012	-100.519997	138.00	0.26	-0.03
2.99	16.25	21.00	10.50	15.75	5.50	8.00	0.50	1.75	0.00	0.00	0.50	0.25	0.50	0.00	0.00	0.00	-0.083008	0.079102	0.900879	-25.969999	33.110001	3.360000	845.00	-0.29	-0.09	0.00	0.00	0.00	0.00	0.00	0.00	0.25	0.00	0.75	1.75	1.75	1.25	0.50	1.50	0.25	0.25	0.641602	0.271484	2.283203	239.330002	472.290009	-125.440002	84.00	0.26	-0.02
3.00	15.75	20.50	10.25	16.25	6.00	8.50	0.50	2.25	0.50	0.75	0.75	0.50	1.00	0.25	0.00	0.00	-0.198730	0.108398	1.060059	-16.870001	21.139999	2.660000	883.00	-0.27	-0.09	0.00	0.00	0.00	0.00	0.00	0.00	0.50	0.00	0.25	1.50	1.25	1.00	0.75	0.75	0.00	0.25	0.319336	0.583496	1.251465	250.949997	426.440002	-164.639999	64.00	0.23	-0.05
3.01	15.25	20.50	10.50	16.00	6.25	8.75	0.75	2.75	0.25	0.50	0.75	0.50	1.00	0.25	0.00	0.00	-0.153809	0.095215	1.012695	-13.160000	15.260000	2.450000	889.00	-0.27	-0.09	0.00	0.00	0.25	0.00	0.00	0.00	0.50	0.00	0.25	1.25	1.25	1.00	0.75	0.25	0.00	0.00	0.832520	0.472168	5.018555	206.710007	216.300003	-160.160004	59.00	0.19	-0.06
3.02	14.75	20.00	10.50	16.50	6.50	9.25	0.75	3.25	0.50	0.75	1.00	0.50	1.00	0.50	0.00	0.00	-0.132324	0.030273	0.979492	-9.660000	13.510000	1.750000	911.00	-0.26	-0.10	0.00	0.00	0.00	0.00	0.00	0.00	0.50	0.00	0.25	1.25	1.00	0.50	0.25	0.25	0.00	0.25	1.203613	0.176758	3.868652	103.320000	-7.420000	-111.440002	45.00	0.00	0.00
3.03	14.00	19.50	10.50	16.00	6.75	9.50	0.75	3.75	0.50	0.50	1.00	0.75	1.00	1.00	0.00	0.00	-0.124023	0.077148	0.957520	-7.350000	13.230000	-0.350000	910.00	-0.25	-0.10	0.00	0.00	0.00	0.00	0.00	0.00	0.50	0.00	0.25	0.75	1.00	0.75	0.50	0.50	0.00	0.00	0.921875	0.352051	2.169434	-23.240000	-145.320007	-55.230000	46.00	0.00	0.00
3.04	13.25	18.75	10.25	15.75	7.25	10.00	1.00	4.50	1.00	0.75	1.25	0.75	1.25	0.75	0.00	0.00	-0.124023	0.077148	0.957520	-7.350000	13.230000	-0.350000	928.00	-0.24	-0.10	0.00	0.00	0.00	0.00	0.00	0.00	0.50	0.00	0.25	1.00	0.75	0.25	0.50	0.00	0.00	0.00	0.632812	0.513184	1.055176	-95.340004	-188.160004	-10.710000	36.00	0.00	0.00
3.05	12.50	18.00	10.25	15.75	7.75	9.75	1.00	4.75	1.00	1.00	1.25	1.00	1.75	1.00	0.00	0.00	-0.127930	0.066895	0.965820	-9.170000	14.560000	-1.610000	932.00	-0.23	-0.10	0.00	0.00	0.00	0.00	0.00	0.00	0.50	0.00	0.00	0.75	0.75	0.25	0.25	0.00	0.00	0.00	0.587402	0.614258	0.543945	-98.070000	-179.970001	15.680000	28.00	0.00	0.00
3.06	11.50	17.00	10.00	15.00	7.75	10.25	1.00	5.25	1.25	1.25	1.50	1.00	2.00	1.00	0.00	0.00	-0.142578	0.052246	0.993164	-8.470000	17.430000	-3.220000	925.00	-0.21	-0.11	0.00	0.00	0.00	0.00	0.00	0.00	0.50	0.00	0.00	0.75	0.50	0.00	0.25	0.00	0.00	0.00	0.534180	0.632324	0.470215	-58.450001	-165.830002	29.049999	23.00	0.00	0.00
3.07	9.75	15.50	9.75	14.25	7.75	10.25	1.25	5.50	1.75	1.25	1.50	1.00	2.00	1.00	0.00	0.00	-0.152832	0.054688	0.988281	-7.490000	18.830000	-3.150000	896.00	-0.20	-0.11	0.00	0.00	0.00	0.00	0.00	0.00	0.50	0.00	0.25	0.50	0.50	0.25	0.00	0.00	0.00	0.00	0.522949	0.521484	0.557617	-3.360000	-166.250000	37.590000	24.00	0.00	0.00
3.08	9.25	14.00	9.50	13.75	8.00	9.75	1.25	5.50	1.75	1.50	1.50	1.25	2.25	1.50	0.00	0.00	-0.141602	0.031250	0.985352	-5.950000	20.299999	-2.660000	878.00	-0.19	-0.11	0.00	0.00	0.00	0.00	0.00	0.00	0.50	0.00	0.00	0.50	0.25	0.00	0.00	0.00	0.00	0.00	0.491211	0.326172	0.685547	36.959999	-179.550003	45.430000	15.00	0.00	0.00
3.09	8.25	12.25	9.00	12.75	7.75	10.00	1.50	5.75	2.00	1.50	1.75	1.25	2.50	1.50	0.00	0.00	-0.155762	0.036621	0.978027	-4.270000	21.559999	-2.100000	850.00	-0.17	-0.11	0.00	0.00	0.00	0.00	0.00	0.00	0.50	0.00	0.00	0.50	0.50	0.25	0.25	0.00	0.00	0.00	0.462891	0.142090	0.836914	47.880001	-197.889999	54.040001	23.00	0.00	0.00
3.10	7.50	10.75	8.75	11.50	7.75	9.75	1.50	5.75	2.75	1.75	2.00	1.50	2.50	1.50	0.25	0.00	-0.154785	0.034180	0.972168	-2.450000	21.980000	-1.750000	830.00	-0.16	-0.10	0.00	0.00	0.00	0.00	0.00	0.00	0.50	0.00	0.00	0.25	0.00	0.00	0.00	0.00	0.00	0.00	0.403320	0.022461	0.979492	30.870001	-220.009995	63.070000	10.00	0.00	0.00
3.11	6.50	9.50	8.25	10.75	7.50	9.25	1.75	6.00	2.25	2.00	2.00	1.50	2.75	1.50	0.25	0.25	-0.154297	0.050781	0.967285	-0.980000	21.770000	-1.610000	793.00	-0.15	-0.11	0.00	0.00	0.00	0.00	0.00	0.00	0.50	0.00	0.00	0.00	0.00	0.00	0.00	0.00	0.00	0.00	0.330566	0.007812	1.070312	0.630000	-244.580002	71.400002	8.00	0.00	0.00
3.12	5.75	8.50	7.75	10.00	7.50	9.25	1.75	6.00	3.00	2.25	2.25	1.75	3.00	2.00	0.50	0.25	-0.161133	0.045898	0.967773	-0.350000	21.139999	-1.890000	789.00	-0.12	-0.10	0.00	0.00	0.00	0.00	0.00	0.00	0.50	0.00	0.00	0.25	0.25	0.00	0.25	0.00	0.00	0.00	0.247559	0.055176	1.145020	-24.500000	-269.220001	77.279999	15.00	0.00	0.00
3.13	5.00	7.50	7.25	9.50	7.25	9.25	1.75	6.00	3.25	2.25	2.25	1.75	3.25	1.75	0.25	0.25	-0.164551	0.058594	0.961426	0.070000	20.020000	-2.240000	759.00	-0.11	-0.11	0.00	0.00	0.00	0.00	0.00	0.00	0.50	0.00	0.00	0.00	0.00	0.00	0.25	0.00	0.00	0.00	0.149414	0.133301	1.195801	-34.650002	-292.739990	80.639999	10.00	0.00	0.00
3.14	4.75	6.75	6.75	9.00	7.25	9.00	2.00	6.25	3.75	2.50	2.75	2.00	3.50	1.75	0.50	0.25	-0.160645	0.050293	0.968262	-0.000000	19.389999	-3.080000	765.00	-0.10	-0.10	0.00	0.00	0.00	0.00	0.00	0.00	0.50	0.00	0.00	0.00	0.00	0.00	0.00	0.00	0.00	0.00	0.020020	0.182617	1.214355	-31.080000	-314.160004	82.250000	8.00	0.00	0.00
3.15	3.75	6.00	6.25	8.25	7.00	8.75	2.00	6.25	3.75	2.50	2.75	2.25	3.50	2.00	0.25	0.25	-0.166504	0.057617	0.970215	-0.490000	19.600000	-3.780000	731.00	-0.08	-0.11	0.00	0.00	0.00	0.00	0.00	0.00	0.50	0.00	0.00	0.25	0.00	0.00	0.00	0.00	0.00	0.00	-0.136230	0.214355	1.251953	-21.910000	-331.519989	82.599998	10.00	0.00	0.00
3.16	3.50	5.50	5.75	7.75	6.75	8.75	2.25	6.50	4.00	2.75	3.00	2.25	3.75	2.25	0.50	0.25	-0.169434	0.053223	0.956055	-0.700000	19.809999	-4.410000	733.00	-0.07	-0.10	0.00	0.00	0.00	0.00	0.00	0.00	0.50	0.00	0.00	0.00	0.00	0.00	0.00	0.00	0.00	0.00	-0.306641	0.225098	1.293945	-11.760000	-345.239990	83.370003	8.00	0.00	0.00
3.17	3.00	5.00	5.25	7.50	6.75	8.50	2.25	6.50	4.50	3.00	3.00	2.50	4.00	2.25	0.50	0.25	-0.168945	0.052246	0.961914	-0.350000	19.320000	-4.690000	726.00	-0.06	-0.10	0.00	0.00	0.00	0.00	0.00	0.00	0.50	0.00	0.00	0.00	0.00	0.00	0.00	0.00	0.00	0.00	-0.705078	0.162109	1.294434	3.990000	-363.649994	87.500000	8.00	0.00	0.00
3.18	2.50	4.75	5.00	6.75	6.50	8.25	2.25	6.50	5.00	3.25	3.25	2.75	4.25	2.75	0.50	0.50	-0.181152	0.058105	0.962402	-0.560000	19.950001	-5.390000	724.00	-0.04	-0.10	0.00	0.00	0.00	0.00	0.00	0.00	0.50	0.00	0.00	0.25	0.00	0.00	0.00	0.00	0.00	0.00	-0.823730	0.121582	1.254395	8.050000	-361.130005	85.330002	10.00	0.00	0.00
3.19	2.50	4.25	4.75	6.25	6.50	8.25	2.50	6.50	5.25	3.25	3.75	2.75	5.00	3.00	0.50	0.25	-0.164551	0.057617	0.963867	-0.490000	19.879999	-5.600000	731.00	-0.03	-0.10	0.00	0.00	0.00	0.00	0.00	0.00	0.50	0.00	0.00	0.00	0.00	0.00	0.00	0.00	0.00	0.00	-0.939453	0.093750	1.249512	9.590000	-353.010010	82.180000	8.00	0.00	0.00
3.20	2.25	3.50	4.00	5.75	6.25	7.75	2.50	6.50	5.50	3.50	3.75	2.75	5.00	3.00	0.50	0.50	-0.179688	0.055664	0.963867	-0.280000	20.440001	-5.880000	706.00	-0.01	-0.10	0.00	0.00	0.00	0.00	0.00	0.00	0.50	0.00	0.00	0.25	0.00	0.00	0.00	0.00	0.00	0.00	-1.006348	0.076172	1.331055	4.620000	-343.279999	78.610001	10.00	0.00	0.00
3.21	2.00	2.75	3.75	5.50	6.00	7.50	2.50	6.75	6.00	4.00	4.75	3.25	5.50	3.25	0.50	0.50	-0.177246	0.043945	0.958008	-0.140000	20.930000	-6.230000	724.00	0.01	-0.10	0.00	0.00	0.25	0.00	0.00	0.00	0.50	0.00	0.00	0.00	0.00	0.00	0.00	0.00	0.00	0.00	-1.027344	0.124023	1.458984	-6.090000	-335.230011	75.739998	10.00	0.00	0.00
3.22	1.50	2.75	3.25	5.25	6.00	7.50	2.75	6.75	6.75	4.25	5.25	3.50	5.75	3.75	0.50	0.50	-0.173340	0.047852	0.956055	0.420000	21.490000	-6.370000	741.00	0.02	-0.09	0.00	0.00	0.00	0.25	0.00	0.00	0.25	0.00	0.00	0.00	0.00	0.00	0.00	0.00	0.00	0.00	-1.030273	0.197266	1.600098	-16.940001	-330.959991	75.739998	7.00	0.00	0.00
3.23	1.50	2.75	3.00	5.25	5.50	7.25	2.75	6.75	7.25	4.50	5.75	3.75	6.00	4.25	0.75	0.75	-0.176270	0.052734	0.964355	0.490000	22.260000	-6.720000	757.00	0.03	-0.09	0.00	0.00	0.00	0.00	0.00	0.00	0.50	0.00	0.00	0.00	0.00	0.00	0.00	0.00	0.00	0.00	-1.042480	0.263672	1.759766	-23.450001	-329.700012	78.050003	8.00	0.00	0.00
3.24	1.25	2.25	2.75	4.50	5.50	7.00	2.75	6.75	7.75	5.50	6.25	4.50	6.25	4.75	0.50	0.75	-0.187012	0.052734	0.959961	0.420000	23.520000	-7.490000	770.00	0.05	-0.09	0.00	0.25	0.00	0.00	0.00	0.00	0.50	0.00	0.00	0.00	0.00	0.00	0.00	0.00	0.00	0.00	-1.050781	0.281738	1.884766	-25.900000	-331.660004	79.730003	10.00	0.00	0.00
3.25	1.00	2.25	2.75	3.75	5.25	6.75	3.00	7.00	8.00	6.00	6.50	5.00	6.50	5.00	0.75	0.75	-0.190918	0.063965	0.963867	0.210000	26.040001	-8.890000	785.00	0.07	-0.09	0.00	0.00	0.00	0.00	0.00	0.00	0.50	0.00	0.00	0.25	0.00	0.00	0.25	0.00	0.00	0.00	-1.092773	0.276367	1.918457	-25.129999	-334.459991	76.160004	12.00	0.00	0.00
3.26	1.00	1.50	2.50	3.75	4.75	6.50	3.00	6.75	8.50	6.75	7.50	5.75	6.75	5.25	0.75	1.00	-0.190918	0.063965	0.963867	0.210000	26.040001	-8.890000	801.00	0.08	-0.08	0.00	0.00	0.00	0.00	0.00	0.00	0.50	0.00	0.00	0.00	0.00	0.00	0.00	0.00	0.00	0.00	-1.149902	0.270996	1.942871	-21.629999	-334.320007	65.660004	8.00	0.00	0.00
3.27	0.75	1.25	2.00	3.50	4.50	6.00	3.00	6.75	9.00	7.50	7.75	5.75	7.00	6.00	0.75	0.75	-0.200684	0.056641	0.969727	1.400000	29.049999	-10.500000	804.00	0.10	-0.08	0.00	0.00	0.00	0.00	0.00	0.00	0.50	0.00	0.00	0.00	0.00	0.00	0.00	0.00	0.00	0.00	-1.233398	0.253418	1.985840	-17.920000	-332.220001	50.470001	8.00	0.00	0.00
3.28	0.75	1.25	1.50	3.00	4.00	5.75	3.00	6.75	9.25	7.75	8.25	6.50	7.25	6.75	0.75	1.00	-0.175781	0.053711	0.984375	2.030000	31.920000	-11.060000	814.00	0.11	-0.08	0.00	0.00	0.00	0.00	0.00	0.00	0.50	0.00	0.00	0.00	0.00	0.00	0.00	0.00	0.00	0.00	-1.366211	0.293457	2.005859	-18.620001	-329.700012	33.250000	8.00	0.00	0.00
3.29	0.50	1.25	1.25	2.75	3.75	5.50	3.00	6.75	9.75	8.25	8.75	7.00	7.50	7.50	1.25	1.25	-0.197266	0.052246	0.968262	2.870000	35.000000	-11.340000	838.00	0.12	-0.08	0.00	0.00	0.00	0.00	0.00	0.00	0.50	0.00	0.00	0.00	0.00	0.00	0.00	0.00	0.00	0.00	-1.551758	0.368164	1.996094	-24.360001	-326.339996	17.219999	8.00	0.00	0.00
3.30	0.50	1.00	1.00	2.75	3.50	5.00	3.00	6.75	10.00	8.50	9.25	7.25	7.75	8.00	1.25	1.25	-0.194336	0.053223	0.985840	3.990000	39.619999	-11.900000	845.00	0.13	-0.07	0.00	0.00	0.00	0.00	0.00	0.00	0.50	0.00	0.00	0.00	0.00	0.00	0.00	0.00	0.00	0.00	-1.766113	0.449219	1.944824	-32.200001	-321.860016	4.060000	8.00	0.00	0.00
3.31	0.50	0.75	1.25	2.75	2.75	4.50	3.00	6.50	10.25	8.75	9.50	8.00	8.00	8.75	1.25	1.50	-0.236328	0.069824	0.984375	5.810000	43.959999	-13.090000	854.00	0.14	-0.07	0.00	0.00	0.00	0.00	0.00	0.00	0.50	0.00	0.00	0.25	0.00	0.00	0.25	0.00	0.00	0.00	-1.945801	0.555664	1.737305	-34.930000	-314.230011	-5.110000	12.00	0.00	0.00
3.32	0.50	0.75	0.50	2.00	2.75	4.00	3.00	6.50	10.50	9.25	10.00	8.00	8.00	9.25	1.25	1.75	-0.230469	0.059082	1.005371	5.880000	49.209999	-12.670000	851.00	0.15	-0.07	0.00	0.00	0.00	0.00	0.00	0.00	0.50	0.00	0.00	0.00	0.00	0.00	0.00	0.00	0.00	0.00	-2.092773	0.630859	1.432617	-22.820000	-298.690002	-6.510000	8.00	0.00	0.00
3.33	0.25	0.50	0.50	2.00	2.00	3.25	2.75	6.25	11.00	9.50	10.50	8.50	8.25	10.00	1.50	2.00	-0.218750	0.048828	0.990234	6.090000	56.070000	-12.530000	855.00	0.17	-0.07	0.00	0.00	0.00	0.00	0.00	0.00	0.50	0.00	0.00	0.00	0.00	0.00	0.00	0.00	0.00	0.00	-2.244629	0.499023	1.040039	8.680000	-273.769989	4.200000	8.00	0.00	0.00
3.34	0.25	0.50	0.75	1.75	1.75	2.75	2.75	6.00	11.50	10.00	11.00	8.75	8.50	11.00	1.75	2.25	-0.233398	0.051270	0.979004	7.630000	65.590004	-12.670000	877.00	0.18	-0.06	0.00	0.00	0.00	0.00	0.00	0.00	0.25	0.00	0.00	0.25	0.00	0.00	0.00	0.00	0.00	0.00	-2.739258	0.275391	0.670898	31.360001	-242.339996	17.570000	6.00	0.00	0.00
3.35	0.50	0.00	0.25	2.25	1.50	2.25	2.50	6.00	11.75	10.25	11.50	9.25	8.50	11.75	2.00	2.25	-0.251953	0.062500	1.001953	9.310000	74.550003	-11.970000	888.00	0.19	-0.06	0.00	0.00	0.00	0.00	0.00	0.00	0.50	0.00	0.00	0.00	0.00	0.00	0.00	0.00	0.00	0.00	-3.686523	0.089844	0.257324	31.290001	-208.250000	23.240000	8.00	0.00	0.00
3.36	0.25	0.00	0.50	1.50	1.00	2.00	2.50	5.75	12.00	10.75	11.75	9.25	8.50	12.50	2.25	3.00	-0.285156	0.064941	1.006836	10.360000	82.669998	-11.690000	892.00	0.20	-0.05	0.00	0.00	0.00	0.00	0.00	0.00	0.25	0.00	0.00	0.25	0.00	0.00	0.00	0.00	0.00	0.00	-4.296875	-0.147461	-0.426270	30.660000	-164.779999	26.320000	6.00	0.00	0.00
3.37	0.25	0.00	0.25	1.25	1.00	1.50	2.25	5.50	12.50	11.00	12.50	9.75	8.50	13.25	2.25	3.75	-0.284668	0.060547	1.017090	11.760000	92.470001	-11.270000	907.00	0.21	-0.05	0.00	0.00	0.00	0.00	0.00	0.00	0.50	0.00	0.00	0.25	0.50	0.25	0.00	0.00	0.00	0.00	-3.679688	-0.510254	-0.739258	3.220000	-8.680000	33.810001	18.00	0.00	0.00
3.38	0.00	0.00	0.25	1.00	0.50	1.25	2.00	5.00	12.75	11.25	12.75	10.00	8.25	14.25	2.75	4.00	-0.292969	0.042969	1.036133	15.960000	102.830002	-11.200000	906.00	0.22	-0.05	0.00	0.00	0.00	0.00	0.00	0.00	0.25	0.00	0.00	0.25	0.00	0.00	0.00	0.00	0.00	0.00	-4.136230	-0.608887	-0.088379	-33.110001	64.470001	39.900002	6.00	0.00	0.00
3.39	0.00	0.00	0.00	1.25	0.25	0.75	1.75	5.00	13.00	11.50	13.00	10.25	8.25	15.00	2.75	4.50	-0.348633	0.067383	1.044922	19.110001	115.360001	-9.870000	914.00	0.23	-0.05	0.00	0.00	0.00	0.50	0.00	0.00	0.50	0.00	0.00	0.00	0.00	0.00	0.00	0.00	0.00	0.00	-2.654785	-0.624023	-0.132812	-97.930000	179.970001	27.650000	13.00	0.00	0.00
3.40	0.00	0.00	0.00	0.75	0.25	0.25	1.50	4.25	13.00	11.75	13.50	10.25	8.00	16.00	3.00	5.00	-0.317383	0.026367	1.086914	21.910000	130.270004	-7.350000	907.00	0.24	-0.04	0.25	0.50	0.75	1.00	0.00	0.00	0.50	0.00	0.00	0.00	0.00	0.25	0.25	0.00	0.00	0.00	-1.431152	0.063965	1.490723	-94.220001	229.460007	1.960000	39.00	0.00	0.00
3.41	0.25	0.00	0.00	1.00	0.00	0.25	1.25	3.75	13.00	11.75	13.75	10.25	7.75	16.75	3.25	5.25	-0.357422	0.082520	1.109375	24.710001	145.460007	-5.530000	909.00	0.24	-0.04	1.25	1.75	1.00	2.00	0.00	0.00	0.25	0.00	0.00	0.00	0.00	0.00	0.00	0.00	0.00	0.00	0.114746	0.144043	1.605469	-76.230003	192.289993	10.640000	66.00	-0.32	-0.07
3.42	0.00	0.00	0.00	0.50	0.00	0.00	0.75	3.00	13.00	11.75	13.50	10.25	7.50	17.50	4.00	5.50	-0.359375	0.075195	1.097168	30.309999	161.490005	-6.300000	891.00	0.25	-0.03	3.25	5.00	2.25	3.75	0.25	0.00	0.50	0.00	0.00	0.00	0.00	0.00	0.00	0.00	0.00	0.00	-0.166504	0.232422	0.790527	-48.860001	135.029999	28.420000	156.00	-0.33	-0.06
3.43	0.00	0.00	0.00	0.00	0.00	0.00	0.50	2.50	12.75	11.75	13.50	10.25	7.00	18.00	3.75	5.50	-0.402832	0.132324	1.079590	29.190001	186.690002	-8.680000	868.00	0.26	-0.02	7.25	8.75	3.25	5.50	0.50	0.00	0.50	0.00	0.00	0.00	0.00	0.00	0.25	0.00	0.00	0.00	-0.048340	-0.679688	0.333008	-7.070000	188.160004	35.420002	267.00	-0.34	-0.05
3.44	0.00	0.00	0.00	0.25	0.00	0.00	0.25	2.00	12.50	11.50	13.50	10.00	6.50	18.50	4.50	5.50	-0.462402	0.155273	1.163574	28.139999	213.080002	-13.300000	858.00	0.27	-0.02	10.75	12.00	4.75	8.00	0.50	0.00	0.50	0.00	0.00	0.00	0.00	0.00	0.25	0.00	0.00	0.00	-0.333496	-0.597656	1.875977	12.880000	272.720001	14.560000	378.00	-0.34	-0.05
3.45	0.00	0.00	0.00	0.00	0.00	0.00	0.00	1.50	12.25	11.25	13.25	9.50	5.75	19.00	4.75	5.50	-0.554199	0.165527	1.146973	25.760000	235.970001	-18.129999	831.00	0.27	-0.01	14.00	14.50	7.50	9.50	1.25	0.50	0.50	0.00	0.00	0.00	0.00	0.25	0.50	0.00	0.00	0.00	-0.724609	-0.173828	2.818359	40.180000	249.199997	-8.190000	500.00	-0.33	-0.05
3.46	0.00	0.00	0.00	0.00	0.00	0.00	0.00	1.00	11.75	11.00	12.75	9.00	5.25	19.00	4.50	5.25	-0.489746	0.237793	1.592285	13.510000	299.040009	-28.210001	795.00	0.28	-0.01	15.50	15.75	8.50	10.50	2.25	2.25	0.75	0.50	0.00	0.00	0.00	0.25	0.50	0.00	0.00	0.00	-0.764648	0.573730	2.723145	43.889999	197.539993	-16.940001	591.00	-0.32	-0.05
3.47	0.00	0.00	0.00	0.00	0.00	0.00	0.00	0.75	11.00	10.25	12.25	8.50	4.75	19.00	4.75	4.75	-0.489746	0.237793	1.592285	13.510000	299.040009	-28.210001	759.00	0.28	-0.00	15.75	16.25	9.25	11.50	2.75	3.50	0.75	0.75	0.00	0.00	0.00	0.50	0.75	0.00	0.00	0.00	-0.471191	0.563965	1.924805	-12.670000	133.490005	-2.590000	645.00	-0.31	-0.06
3.48	0.00	0.00	0.00	0.00	0.00	0.00	0.00	0.50	10.00	9.75	11.50	8.00	3.25	18.50	4.50	4.25	-0.828125	0.437012	1.921875	5.110000	366.450012	-41.860001	701.00	0.29	0.01	15.25	16.00	9.50	11.75	4.25	4.00	0.75	1.00	0.00	0.25	0.25	0.25	1.00	0.00	0.00	0.00	-0.176758	-0.009277	1.226562	-49.420002	81.760002	7.630000	673.00	-0.30	-0.07
3.49	0.00	0.00	0.00	0.00	0.00	0.00	0.00	0.25	8.75	8.75	10.25	7.25	2.50	17.50	4.25	3.25	-0.859375	0.223145	2.260254	17.290001	409.850006	-52.849998	626.00	0.29	0.01	15.25	15.50	9.75	11.75	5.00	5.25	1.00	1.25	0.00	0.00	0.25	0.25	0.75	0.00	0.00	0.00	-0.028809	-0.190430	1.054199	-44.029999	62.160000	4.130000	696.00	-0.29	-0.07
3.50	0.00	0.00	0.00	0.00	0.00	0.00	0.00	0.00	7.50	7.75	9.00	6.00	1.75	16.25	3.25	2.50	-0.803711	0.313477	2.338379	23.520000	447.160004	-58.450001	538.00	0.29	0.02	14.50	15.25	10.00	12.25	5.50	5.50	1.00	1.25	0.00	0.50	0.50	0.50	1.25	0.25	0.00	0.25	-0.175293	0.212402	1.041016	-39.480000	42.980000	1.680000	721.00	-0.27	-0.07
3.51	0.00	0.00	0.00	0.00	0.00	0.00	0.00	0.00	5.75	6.00	7.50	4.75	1.25	13.75	2.50	1.50	-1.110840	0.349121	2.754395	43.610001	465.570007	-57.400002	429.00	0.29	0.03	14.25	15.00	10.00	12.50	6.00	6.50	1.00	2.00	0.50	0.75	0.75	0.75	1.50	0.50	0.00	0.00	-0.089844	0.138184	1.010742	-33.810001	18.270000	4.830000	764.00	-0.25	-0.08
3.52	0.00	0.00	0.00	0.00	0.00	0.00	0.00	0.00	3.75	4.00	5.50	3.50	1.00	10.75	1.50	1.00	-0.939453	0.666992	2.333496	84.769997	481.880005	-58.029999	307.00	0.30	0.03	14.25	14.75	10.00	12.50	6.25	7.25	1.00	2.25	0.25	1.00	1.00	1.00	1.75	0.50	0.00	0.25	-0.092285	0.020508	1.035156	-21.770000	5.950000	3.640000	784.00	-0.25	-0.08
3.53	0.00	0.00	0.00	0.00	0.00	0.00	0.00	0.00	2.50	2.75	3.75	2.25	0.75	7.50	0.75	0.50	-0.502441	0.556641	2.616211	153.369995	483.839996	-68.669998	205.00	0.30	0.03	14.50	14.75	10.25	12.75	6.75	7.75	1.50	3.00	0.25	1.00	1.00	0.75	1.75	0.50	0.00	0.00	-0.117188	0.087402	1.015137	-12.250000	2.030000	1.820000	818.00	-0.24	-0.08
3.54	0.00	0.00	0.00	0.00	0.00	0.00	0.00	0.00	1.75	2.00	2.75	1.50	0.25	4.50	0.25	0.00	-0.618164	0.560547	2.240234	216.580002	491.260010	-83.720001	131.00	0.29	0.04	13.50	14.50	10.50	12.50	7.00	8.00	1.50	3.25	0.75	0.75	0.75	0.75	2.25	0.75	0.00	0.25	-0.106445	0.054688	1.020508	-9.030000	0.350000	1.890000	824.00	-0.23	-0.08
3.55	0.00	0.00	0.00	0.00	0.00	0.25	0.00	0.00	1.50	1.50	2.00	1.25	0.25	2.50	0.25	0.00	0.249023	0.229004	2.230957	223.160004	496.299988	-114.940002	98.00	0.27	0.02	13.50	14.25	10.50	12.75	7.50	8.25	1.75	3.50	0.50	0.75	1.00	1.00	2.75	1.25	0.00	0.25	-0.093262	0.049316	0.990723	-6.300000	0.000000	1.330000	851.00	-0.22	-0.09
3.56	0.00	0.00	0.00	0.00	0.00	0.00	0.00	0.00	1.50	1.00	1.00	0.50	0.25	0.75	0.25	0.00	0.236328	-0.218750	1.493164	192.500000	489.860016	-155.399994	57.00	0.26	0.06	13.00	14.00	10.50	12.50	7.50	8.50	1.75	3.75	0.75	1.00	1.25	1.25	3.00	1.25	0.00	0.25	-0.098633	0.068848	1.001953	-5.040000	-0.140000	0.910000	861.00	-0.21	-0.09
3.57	0.00	0.00	0.00	0.00	0.00	0.00	0.00	0.00	0.50	1.00	0.75	0.25	0.00	0.75	0.00	0.00	-0.369629	0.552734	3.919922	102.269997	424.269989	-182.559998	34.00	0.00	0.00	12.50	13.50	10.25	12.50	7.75	8.50	1.75	4.50	0.75	1.25	1.25	1.00	3.00	1.25	0.00	0.50	-0.095215	0.047852	1.001953	-4.760000	0.910000	-0.420000	864.00	-0.20	-0.09
3.58	0.00	0.00	0.00	0.00	0.00	0.00	0.00	0.00	0.25	1.25	1.00	0.25	0.00	0.50	0.00	0.00	0.665527	0.528809	4.206543	15.190001	251.790009	-162.610001	34.00	0.00	0.00	12.50	13.25	10.25	12.25	8.00	8.75	2.00	5.00	1.25	1.50	1.25	0.75	3.50	1.50	0.25	0.50	-0.087891	0.039551	1.005371	-3.780000	2.030000	-0.350000	891.00	-0.19	-0.09
3.59	0.00	0.00	0.00	0.00	0.00	0.00	0.00	0.00	0.25	0.50	0.75	0.50	0.00	0.50	0.00	0.00	1.127441	0.975586	3.886230	-53.830002	43.610001	-103.739998	26.00	0.00	0.00	11.50	12.50	10.00	12.00	8.00	8.75	2.00	5.00	1.00	1.75	1.50	1.25	3.25	1.25	0.00	0.50	-0.092773	0.043945	1.013184	-2.450000	4.200000	-0.070000	868.00	-0.19	-0.09
3.60	0.00	0.00	0.00	0.00	0.00	0.00	0.00	0.00	0.50	0.50	0.75	0.00	0.00	0.50	0.00	0.00	0.908691	0.960938	2.552246	-96.809998	-101.709999	-47.180000	24.00	0.00	0.00	11.00	11.50	9.75	11.75	8.00	8.50	2.00	5.50	1.25	1.50	1.50	1.50	3.75	1.25	0.00	0.50	-0.083008	0.043945	1.008301	-1.260000	6.860000	0.350000	861.00	-0.18	-0.10
3.61	0.00	0.00	0.00	0.00	0.00	0.00	0.00	0.00	0.00	0.50	0.75	0.25	0.00	0.50	0.00	0.00	0.804199	0.858887	1.440918	-99.470001	-168.910004	-11.900000	20.00	0.00	0.00	9.75	11.00	9.50	11.25	7.75	8.50	2.25	5.50	1.25	1.75	1.75	1.25	4.00	1.50	0.25	0.50	-0.093750	0.044922	1.004395	-0.070000	9.240000	0.840000	846.00	-0.17	-0.10
3.62	0.00	0.00	0.25	0.00	0.00	0.00	0.00	0.00	0.00	0.25	0.50	0.00	0.00	0.00	0.00	0.00	0.726074	0.788574	0.834473	-66.849998	-186.339996	4.270000	11.00	0.00	0.00	9.00	10.25	9.25	11.00	7.75	8.25	2.25	5.50	1.50	1.50	1.75	1.50	4.00	2.00	0.00	0.50	-0.093750	0.049805	0.997559	0.490000	10.500000	0.910000	828.00	-0.16	-0.10
3.63	0.00	0.00	0.00	0.00	0.00	0.00	0.00	0.00	0.00	0.25	0.25	0.25	0.00	0.00	0.00	0.00	0.635254	0.677734	0.650391	-21.840000	-188.089996	11.200000	8.00	0.00	0.00	7.75	9.25	8.75	10.50	7.50	8.00	2.25	5.50	1.75	1.75	1.75	1.75	4.25	1.75	0.25	0.50	-0.097168	0.061035	0.988281	0.420000	10.990000	0.840000	800.00	-0.15	-0.10
3.64	0.00	0.00	0.00	0.00	0.00	0.00	0.00	0.00	0.00	0.00	0.25	0.00	0.00	0.00	0.00	0.00	0.589355	0.552246	0.666992	14.980000	-192.220001	17.710001	3.00	0.00	0.00	7.00	8.50	8.50	10.00	7.25	8.00	2.25	5.50	1.75	2.00	2.00	2.00	4.50	2.00	0.00	0.50	-0.104004	0.062500	0.985352	-0.770000	10.500000	0.210000	784.00	-0.13	-0.10
3.65	0.00	0.00	0.00	0.00	0.00	0.00	0.00	0.00	0.00	0.00	0.25	0.00	0.00	0.00	0.00	0.00	0.541992	0.415527	0.727051	31.219999	-203.000000	27.090000	3.00	0.00	0.00	6.50	7.75	8.00	9.75	7.00	7.75	2.25	5.50	2.00	2.00	2.25	2.25	4.50	2.00	0.25	0.75	-0.106934	0.069336	0.979492	-2.310000	9.450000	-0.770000	771.00	-0.12	-0.11
3.66	0.00	0.00	0.00	0.00	0.00	0.00	0.00	0.00	0.00	0.00	0.25	0.00	0.00	0.25	0.00	0.00	0.432129	0.338867	0.835938	27.510000	-218.399994	38.639999	5.00	0.00	0.00	6.00	7.25	8.00	9.25	6.75	7.50	2.25	5.50	2.00	2.00	2.25	2.00	4.75	2.25	0.25	0.50	-0.108398	0.057129	0.986328	-3.430000	8.190000	-1.820000	750.00	-0.12	-0.10
3.67	0.00	0.00	0.00	0.00	0.00	0.00	0.00	0.00	0.00	0.00	0.25	0.00	0.00	0.00	0.00	0.00	0.260742	0.303711	1.121582	-17.710001	-258.299988	63.490002	3.00	0.00	0.00	5.75	6.50	7.50	8.75	6.75	7.25	2.25	5.50	2.00	2.25	2.25	1.75	4.50	2.25	0.25	0.75	-0.111328	0.055176	0.985840	-4.340000	7.350000	-2.800000	726.00	-0.11	-0.10
3.68	0.00	0.00	0.00	0.00	0.00	0.00	0.00	0.00	0.00	0.00	0.00	0.00	0.00	0.00	0.00	0.00	0.260742	0.303711	1.121582	-17.710001	-258.299988	63.490002	0.00	0.00	0.00	5.25	6.25	7.25	8.50	6.75	7.25	2.25	5.50	2.50	2.25	2.50	2.00	5.00	2.75	0.25	0.50	-0.111328	0.052734	0.982910	-4.760000	6.720000	-3.500000	732.00	-0.10	-0.10
3.69	0.00	0.00	0.00	0.00	0.00	0.00	0.00	0.00	0.00	0.00	0.25	0.00	0.00	0.00	0.00	0.00	0.086914	0.403809	1.185547	-38.570000	-307.929993	80.709999	3.00	0.00	0.00	5.00	5.75	7.00	8.25	6.75	7.00	2.50	5.50	2.25	2.50	2.50	2.25	5.00	2.50	0.25	0.75	-0.107910	0.045410	0.988281	-4.550000	6.300000	-3.780000	722.00	-0.09	-0.10
3.70	0.00	0.00	0.00	0.00	0.00	0.00	0.00	0.00	0.00	0.00	0.00	0.00	0.00	0.00	0.00	0.00	-0.038574	0.405273	1.128906	-23.309999	-327.880005	83.860001	0.00	0.00	0.00	4.50	5.25	6.75	8.00	6.50	7.00	2.50	5.75	3.00	2.25	3.00	2.50	5.00	3.00	0.25	0.75	-0.111328	0.044922	0.985352	-3.850000	6.090000	-3.780000	727.00	-0.07	-0.10
