# time	left pressure 1[N/cm²]	left pressure 2[N/cm²]	left pressure 3[N/cm²]	left pressure 4[N/cm²]	left pressure 5[N/cm²]	left pressure 6[N/cm²]	left pressure 7[N/cm²]	left pressure 8[N/cm²]	left pressure 9[N/cm²]	left pressure 10[N/cm²]	left pressure 11[N/cm²]	left pressure 12[N/cm²]	left pressure 13[N/cm²]	left pressure 14[N/cm²]	left pressure 15[N/cm²]	left pressure 16[N/cm²]	left acceleration X[g]	left acceleration Y[g]	left acceleration Z[g]	left angular X[dps]	left angular Y[dps]	left angular Z[dps]	left total force[N]	left center of pressure X[%]	left center of pressure Y[%]	right pressure 1[N/cm²]	right pressure 2[N/cm²]	right pressure 3[N/cm²]	right pressure 4[N/cm²]	right pressure 5[N/cm²]	right pressure 6[N/cm²]	right pressure 7[N/cm²]	right pressure 8[N/cm²]	right pressure 9[N/cm²]	right pressure 10[N/cm²]	right pressure 11[N/cm²]	right pressure 12[N/cm²]	right pressure 13[N/cm²]	right pressure 14[N/cm²]	right pressure 15[N/cm²]	right pressure 16[N/cm²]	right acceleration X[g]	right acceleration Y[g]	right acceleration Z[g]	right angular X[dps]	right angular Y[dps]	right angular Z[dps]	right total force[N]	right center of pressure X[%]	right center of pressure Y[%]
0.00	9.00	9.00	5.00	6.50	2.25	2.50	0.75	0.50	1.50	1.25	1.50	1.25	0.25	1.00	0.25	0.75	-0.277344	0.013672	0.937012	-2.590000	4.550000	1.120000	495.00	-0.21	-0.05																									
0.01	9.00	9.25	5.25	6.75	2.25	2.25	0.75	0.50	1.25	1.25	1.75	1.25	0.25	1.00	0.00	0.50	-0.277832	0.006836	0.937500	-2.590000	4.620000	1.120000	496.00	-0.21	-0.05	11.75	8.50	6.50	6.25	4.00	1.75	1.25	0.50	2.75	1.50	1.50	1.25	0.50	2.50	1.50	0.00	-0.257324	0.052246	0.941406	-2.870000	1.120000	-0.140000	604.00	-0.17	-0.01
0.02	9.00	9.25	5.00	7.00	2.50	2.25	0.75	0.50	1.25	1.25	1.50	1.25	0.75	0.75	0.25	0.50	-0.275879	0.012695	0.934570	-2.520000	4.480000	1.190000	501.00	-0.21	-0.05																									
0.03	9.00	9.75	5.00	6.75	2.25	2.75	0.75	0.50	1.25	1.25	1.75	1.25	0.75	1.00	0.25	0.50	-0.280762	0.017578	0.937012	-2.520000	4.480000	1.120000	511.00	-0.21	-0.06	11.50	8.50	6.75	6.25	4.25	2.00	1.00	0.25	2.75	1.25	1.25	1.00	0.50	2.25	1.75	0.50	-0.260254	0.055664	0.938965	-3.010000	1.120000	-0.070000	596.00	-0.17	-0.01
0.04	9.25	9.50	5.00	7.00	2.25	2.50	0.75	0.75	1.25	1.25	1.75	1.50	0.75	0.75	0.25	0.50	-0.280273	0.017090	0.937500	-2.590000	4.550000	1.050000	516.00	-0.21	-0.06	11.75	8.50	6.75	6.50	4.25	2.00	1.25	0.25	2.75	1.50	1.50	1.25	0.50	2.50	1.50	0.00	-0.257324	0.053711	0.944824	-2.870000	1.330000	-0.140000	611.00	-0.17	-0.01
0.05	9.25	9.50	5.25	7.00	2.25	2.50	0.75	0.50	1.50	1.25	1.75	1.25	0.75	1.00	0.50	0.50	-0.279785	0.012695	0.937012	-2.520000	4.690000	1.190000	521.00	-0.20	-0.05	12.00	8.50	6.75	6.50	4.25	2.00	1.25	0.50	3.00	1.50	1.50	1.00	0.50	2.25	1.50	0.00	-0.260254	0.057129	0.940430	-2.800000	1.050000	-0.210000	617.00	-0.17	-0.01
0.06	9.50	9.50	5.25	7.25	2.50	2.25	0.75	0.75	1.50	1.25	1.50	1.25	0.75	1.00	0.25	0.75	-0.279785	0.010254	0.940430	-2.590000	4.550000	1.190000	527.00	-0.21	-0.05	11.75	8.75	6.50	6.50	4.25	1.75	1.00	0.50	3.00	1.50	1.25	1.00	0.50	2.50	1.50	0.25	-0.251465	0.052734	0.941406	-2.730000	0.980000	-0.000000	607.00	-0.17	-0.01
0.07	9.50	9.50	5.25	7.25	2.25	2.50	0.75	0.75	1.25	1.25	1.25	1.25	0.75	1.00	0.25	0.25	-0.275879	0.012695	0.934082	-2.520000	4.550000	1.190000	517.00	-0.22	-0.06	11.75	8.75	6.50	6.50	4.25	1.75	1.00	0.25	3.00	1.50	1.25	1.00	0.50	2.25	1.50	0.25	-0.254883	0.054199	0.942383	-2.870000	1.120000	-0.140000	601.00	-0.17	-0.01
0.08	9.50	9.50	5.25	7.25	2.50	2.50	0.75	0.75	1.50	1.25	1.75	1.25	0.50	1.00	0.25	0.75	-0.280762	0.012695	0.936523	-2.520000	4.550000	1.260000	530.00	-0.21	-0.05	11.75	8.75	6.75	6.50	4.25	1.75	1.00	0.50	2.75	1.25	1.25	1.00	0.50	2.50	1.25	0.25	-0.256836	0.056641	0.939941	-2.940000	1.190000	-0.070000	601.00	-0.18	-0.01
0.09	9.75	9.75	5.25	7.50	2.25	2.50	0.75	0.50	1.25	1.25	1.50	1.25	0.75	1.00	0.25	0.50	-0.279297	0.010254	0.936523	-2.590000	4.620000	1.190000	526.00	-0.22	-0.05	12.25	8.75	6.75	6.50	4.25	1.75	1.00	0.50	3.00	1.25	1.25	1.00	1.25	2.25	1.50	0.25	-0.256348	0.052246	0.940918	-2.940000	1.120000	-0.070000	618.00	-0.17	-0.01
0.10	9.75	9.75	5.25	7.50	2.25	2.75	0.75	0.75	1.25	1.25	1.75	1.00	0.75	1.25	0.25	0.50	-0.283691	0.015137	0.936035	-2.520000	4.690000	1.050000	535.00	-0.21	-0.06	12.25	9.00	6.75	6.50	4.25	1.50	1.00	0.25	3.00	1.50	1.25	1.25	0.50	2.50	1.50	0.25	-0.254883	0.056152	0.937988	-2.940000	1.050000	-0.000000	614.00	-0.17	-0.00
0.11	10.00	9.75	5.25	7.25	2.50	2.25	0.75	0.75	1.00	1.25	1.75	1.25	0.50	0.75	0.25	0.50	-0.283691	0.006836	0.937012	-2.520000	4.620000	1.190000	524.00	-0.22	-0.06	12.00	9.00	7.00	6.50	4.25	1.50	1.00	0.25	3.00	1.25	1.25	0.75	0.25	2.75	1.25	0.25	-0.258301	0.056152	0.938965	-2.870000	1.050000	-0.070000	603.00	-0.18	0.00
0.12	9.50	9.75	5.00	7.00	2.25	2.50	0.75	0.50	1.25	1.25	1.50	1.25	0.50	1.00	0.50	0.50	-0.284180	0.008301	0.936523	-2.590000	4.690000	1.190000	514.00	-0.21	-0.05	12.00	9.00	7.00	6.50	4.25	1.75	1.00	0.50	2.75	1.25	1.25	1.00	0.50	2.25	1.50	0.00	-0.255859	0.057129	0.945801	-3.010000	1.120000	-0.070000	609.00	-0.18	-0.01
0.13	10.25	10.00	5.00	7.50	2.50	2.50	0.75	1.00	1.25	1.25	1.75	1.25	0.50	1.25	0.25	0.25	-0.278320	0.015137	0.939941	-2.450000	4.620000	1.190000	544.00	-0.21	-0.06	12.75	9.00	7.00	6.50	4.25	1.75	1.25	0.25	2.75	1.50	1.25	0.75	0.50	2.50	1.50	0.25	-0.256836	0.051270	0.941895	-2.800000	1.260000	-0.140000	621.00	-0.18	-0.00
0.14	10.25	9.75	5.00	7.50	2.25	2.50	0.75	1.00	1.25	1.25	1.50	1.25	0.50	0.75	0.25	0.50	-0.279785	0.013184	0.937500	-2.450000	4.690000	1.190000	532.00	-0.22	-0.06	12.00	8.75	6.75	6.50	4.25	1.75	1.25	0.25	3.00	1.25	1.50	0.75	0.25	2.25	1.75	0.00	-0.257324	0.056152	0.938965	-2.870000	1.190000	-0.140000	607.00	-0.18	-0.00
0.15	10.25	9.75	5.00	7.50	2.25	2.50	0.75	0.50	1.25	1.25	1.50	1.25	0.50	1.00	0.50	0.50	-0.274902	0.009766	0.937500	-2.450000	4.620000	1.190000	529.00	-0.22	-0.05	13.00	9.00	6.75	6.50	4.25	1.75	1.00	0.25	2.75	1.00	1.25	1.00	0.50	2.50	1.25	0.25	-0.259277	0.056641	0.938477	-2.940000	0.910000	0.070000	611.00	-0.19	-0.00
0.16	10.25	9.75	5.00	7.75	2.25	2.25	0.75	0.75	1.25	1.25	1.75	1.25	0.00	1.00	0.25	0.25	-0.277832	0.010742	0.941406	-2.520000	4.480000	1.190000	527.00	-0.22	-0.05	12.50	9.00	7.00	6.50	4.25	2.00	1.00	0.50	3.00	1.25	1.50	0.75	1.00	2.50	1.50	0.25	-0.255371	0.058594	0.943848	-2.940000	1.120000	-0.070000	629.00	-0.17	-0.01
0.17	10.00	10.00	5.25	7.75	2.25	2.25	0.75	0.50	1.25	1.25	1.50	1.00	0.25	1.00	0.50	0.50	-0.279297	0.008789	0.939941	-2.590000	4.690000	1.120000	526.00	-0.22	-0.05	12.25	9.00	6.75	6.50	4.25	1.75	1.00	0.50	2.50	1.25	1.25	1.00	0.50	2.00	1.50	0.50	-0.256836	0.062500	0.948242	-2.800000	1.190000	-0.070000	605.00	-0.18	-0.01
0.18	10.50	10.00	5.00	7.75	2.25	2.50	0.75	0.75	1.25	1.50	1.50	1.00	0.50	1.00	0.00	0.75	-0.272461	0.007812	0.934082	-2.660000	4.690000	1.050000	537.00	-0.22	-0.05	12.50	9.00	7.00	6.50	4.50	1.50	1.25	0.50	3.00	1.25	1.25	0.75	0.25	2.50	1.50	0.00	-0.261230	0.055664	0.945801	-2.800000	1.190000	-0.000000	619.00	-0.18	0.00
0.19	10.75	10.00	5.25	7.75	2.25	2.25	0.75	0.50	1.25	1.25	1.75	0.75	1.00	1.00	0.25	0.50	-0.281250	0.010254	0.937988	-2.660000	4.690000	1.120000	539.00	-0.22	-0.05	12.75	9.25	6.75	6.50	4.25	1.75	1.00	0.25	3.00	1.25	1.25	1.00	0.50	2.50	1.50	0.00	-0.250488	0.053711	0.941406	-2.870000	1.400000	-0.140000	618.00	-0.18	-0.00
0.20	10.25	10.00	5.00	7.75	2.25	2.75	0.75	0.75	1.25	1.25	1.50	1.25	0.50	1.00	0.25	0.50	-0.276367	0.006348	0.933105	-2.660000	4.760000	1.050000	539.00	-0.22	-0.06	12.75	9.25	6.75	6.75	4.50	2.00	1.00	0.50	3.00	1.25	1.00	1.00	0.25	2.50	1.25	0.00	-0.258301	0.056641	0.937012	-2.940000	1.260000	-0.280000	623.00	-0.19	-0.01
0.21	10.50	10.25	5.25	7.50	2.25	2.25	0.75	0.50	1.25	1.25	1.50	1.00	0.50	1.00	0.25	0.50	-0.280762	0.007812	0.934570	-2.450000	4.690000	1.120000	531.00	-0.22	-0.05	13.00	9.50	6.75	6.75	4.50	1.75	1.00	0.25	3.00	1.25	1.25	1.00	0.25	2.25	1.50	0.25	-0.257324	0.051270	0.942871	-2.730000	1.120000	-0.210000	626.00	-0.19	-0.00
0.22	10.50	10.00	5.25	7.75	2.25	2.50	0.75	0.50	1.25	1.25	1.50	1.25	0.50	1.00	0.50	0.50	-0.275879	0.008301	0.943848	-2.520000	4.550000	1.190000	540.00	-0.22	-0.05	12.50	9.25	7.00	6.75	4.50	2.00	1.00	0.25	3.00	1.25	1.25	0.75	0.50	2.25	1.25	0.00	-0.258789	0.049316	0.944336	-2.940000	1.260000	-0.140000	619.00	-0.19	-0.00
0.23	10.75	10.25	5.00	7.75	2.25	2.25	0.75	0.50	1.00	1.25	1.75	1.00	0.25	1.00	0.25	0.50	-0.279297	0.010742	0.940430	-2.450000	4.620000	1.190000	531.00	-0.23	-0.05	13.00	9.25	7.00	6.75	4.25	1.75	1.00	0.50	3.00	1.25	1.25	0.75	0.25	2.25	1.50	0.25	-0.262207	0.057617	0.941406	-2.940000	1.260000	-0.070000	625.00	-0.19	-0.00
0.24	10.75	10.00	5.00	7.75	2.25	2.25	0.75	0.75	1.25	1.25	1.50	1.25	0.25	0.75	0.25	0.50	-0.280273	0.014160	0.937988	-2.450000	4.620000	1.190000	534.00	-0.23	-0.05	13.00	9.25	6.75	6.75	4.25	1.75	1.00	0.25	3.00	1.25	1.25	0.75	0.25	2.25	1.50	0.00	-0.254395	0.060059	0.944824	-2.800000	1.120000	-0.070000	617.00	-0.19	-0.00
0.25	11.00	10.50	5.00	7.75	2.25	2.50	0.75	0.50	1.25	1.25	1.50	1.25	0.00	0.75	0.25	0.50	-0.281738	0.013184	0.932617	-2.450000	4.690000	1.190000	538.00	-0.23	-0.05	12.75	9.25	6.75	6.75	4.50	1.75	1.00	0.50	3.00	1.25	1.25	0.75	0.50	2.25	1.50	0.25	-0.260742	0.054199	0.941895	-2.940000	1.120000	-0.070000	625.00	-0.18	-0.01
0.26	11.00	10.25	5.25	7.75	2.25	2.50	0.75	0.50	1.25	1.25	1.50	1.25	0.50	1.25	0.25	0.50	-0.278809	0.012695	0.933594	-2.380000	4.620000	1.120000	548.00	-0.22	-0.05	13.00	9.25	7.00	6.75	4.50	2.00	1.00	0.25	2.75	1.25	1.25	1.25	0.25	2.75	1.25	0.25	-0.253418	0.054199	0.938965	-3.010000	1.120000	-0.140000	631.00	-0.18	-0.01
0.27	11.00	10.50	5.00	7.75	2.50	2.50	0.75	0.75	1.50	1.25	1.50	1.25	0.50	1.00	0.25	0.50	-0.283203	0.010742	0.936523	-2.310000	4.620000	1.190000	556.00	-0.22	-0.05	13.25	9.25	7.00	7.00	4.50	1.75	1.00	0.25	3.00	1.25	1.25	1.00	0.50	2.25	1.50	0.25	-0.260254	0.055176	0.949707	-3.010000	1.050000	-0.070000	635.00	-0.19	-0.00
0.28	11.25	10.75	5.25	7.75	2.25	2.50	0.75	0.75	1.00	1.50	1.75	1.25	0.25	1.00	0.25	0.50	-0.281738	0.016113	0.941406	-2.240000	4.690000	1.260000	557.00	-0.23	-0.05	13.75	9.75	7.25	7.00	4.25	2.00	1.00	0.25	2.50	1.25	1.25	1.00	0.50	2.00	1.50	0.00	-0.262207	0.058105	0.944336	-2.940000	1.190000	-0.000000	638.00	-0.20	-0.01
0.29	11.25	10.50	5.25	7.75	2.25	2.50	0.75	0.50	1.25	1.25	1.75	1.00	0.50	1.00	0.25	0.50	-0.284180	0.010254	0.933105	-2.240000	4.620000	1.190000	551.00	-0.23	-0.05	13.75	9.50	7.00	7.00	4.50	1.75	1.00	0.50	2.75	1.25	1.25	0.75	0.25	2.25	1.50	0.00	-0.262207	0.056152	0.944336	-2.870000	1.190000	-0.070000	637.00	-0.19	-0.00
0.30	11.25	10.25	5.25	7.75	2.50	2.25	0.75	0.50	1.25	1.25	1.50	1.25	0.50	1.00	0.25	0.50	-0.276367	0.016113	0.934082	-2.240000	4.480000	1.260000	548.00	-0.22	-0.05	13.50	9.75	7.00	7.00	4.25	1.75	1.00	0.25	2.50	1.00	1.50	0.75	0.25	2.25	1.50	0.00	-0.259766	0.054199	0.937012	-2.870000	1.260000	-0.070000	626.00	-0.20	-0.01
0.31	11.25	10.75	5.00	8.00	2.25	2.50	0.75	0.50	1.50	1.50	1.50	1.00	1.00	1.25	0.25	0.50	-0.282227	0.008789	0.936035	-2.450000	4.620000	1.260000	564.00	-0.22	-0.05	13.75	9.75	7.25	6.75	4.50	1.75	1.00	0.50	2.50	1.25	1.25	0.75	0.50	2.25	1.50	0.00	-0.259766	0.055664	0.943359	-2.870000	1.120000	-0.070000	638.00	-0.20	-0.01
0.32	11.25	10.50	5.25	7.75	2.25	2.25	0.75	0.50	1.25	1.25	1.25	1.00	0.50	0.75	0.50	0.50	-0.276367	0.011230	0.934570	-2.380000	4.690000	1.190000	543.00	-0.23	-0.05	13.50	9.75	7.00	7.00	4.25	2.00	1.00	0.25	2.75	1.00	1.50	0.75	0.50	2.25	1.50	0.25	-0.257812	0.051758	0.940918	-2.870000	1.120000	-0.140000	636.00	-0.19	-0.01
0.33	11.00	11.00	5.00	7.75	2.25	2.50	0.75	0.75	1.25	1.25	1.50	1.25	0.75	1.00	0.25	0.50	-0.280273	0.005859	0.938477	-2.310000	4.620000	1.190000	557.00	-0.22	-0.06	14.50	9.75	7.25	7.00	4.25	1.75	1.00	0.25	2.75	1.25	1.25	0.75	0.50	2.00	1.50	0.00	-0.262207	0.055664	0.937500	-2.870000	0.980000	-0.140000	644.00	-0.20	-0.00
0.34	11.25	11.00	5.25	8.00	2.25	2.25	0.75	0.50	1.25	1.00	1.25	1.00	0.50	1.00	0.00	0.25	-0.279297	0.012695	0.936035	-2.240000	4.690000	1.260000	543.00	-0.24	-0.05	13.75	10.25	7.00	6.75	4.25	1.75	1.00	0.25	2.75	1.00	1.25	1.00	0.50	2.25	1.50	0.00	-0.259766	0.059082	0.944824	-2.730000	1.120000	-0.070000	637.00	-0.20	-0.01
0.35	11.25	11.00	5.00	8.00	2.25	2.50	0.75	0.50	0.75	1.25	1.50	1.00	0.00	1.00	0.25	0.25	-0.278809	0.011719	0.934570	-2.240000	4.690000	1.190000	540.00	-0.24	-0.05	15.00	10.00	7.25	7.00	4.25	1.50	1.00	0.50	2.75	1.25	1.25	1.00	0.50	2.50	1.25	0.00	-0.254395	0.053711	0.938965	-2.800000	1.050000	-0.070000	658.00	-0.20	-0.00
0.36	11.50	11.00	5.25	8.00	2.25	2.25	0.50	0.50	1.25	1.25	1.50	1.00	0.25	0.75	0.00	0.50	-0.274414	0.010254	0.936523	-2.170000	4.410000	1.190000	544.00	-0.24	-0.05	14.75	10.00	7.25	7.00	4.00	1.75	1.00	0.25	2.75	1.25	1.25	0.75	0.25	2.25	1.50	0.00	-0.261719	0.055664	0.942871	-2.730000	1.050000	-0.070000	646.00	-0.20	-0.00
0.37	11.50	11.00	5.25	8.00	2.25	2.25	0.75	0.75	0.75	1.25	1.50	0.75	0.00	1.25	0.25	0.50	-0.278320	0.013184	0.930664	-2.240000	4.410000	1.120000	548.00	-0.24	-0.05	14.50	9.75	7.00	7.25	4.25	2.00	1.00	0.25	2.50	1.25	1.25	0.75	0.25	2.00	1.25	0.00	-0.259277	0.057129	0.941406	-2.730000	0.980000	0.070000	638.00	-0.21	-0.01
0.38	11.25	11.00	5.25	8.00	2.25	2.50	0.50	0.75	1.25	1.00	1.50	1.25	0.50	1.00	0.25	0.50	-0.279785	0.010254	0.937012	-2.380000	4.620000	1.120000	556.00	-0.23	-0.06	15.00	10.50	7.50	7.00	4.25	1.50	1.00	0.25	2.75	1.00	1.25	0.75	0.25	2.00	1.50	0.25	-0.258789	0.053711	0.943359	-2.870000	1.050000	-0.070000	654.00	-0.21	-0.00
0.39	11.25	11.00	5.25	8.00	2.50	2.50	0.75	0.50	1.00	1.00	1.50	1.00	0.25	1.00	0.25	0.50	-0.278320	0.013184	0.943848	-2.380000	4.550000	1.120000	550.00	-0.24	-0.05	15.00	10.50	7.50	7.00	4.00	1.75	1.00	0.25	2.25	1.00	1.00	0.75	0.50	2.25	1.25	0.00	-0.256836	0.056152	0.939941	-2.800000	0.910000	-0.000000	644.00	-0.21	-0.01
0.40	12.00	11.00	5.25	8.00	2.25	2.50	0.75	0.50	1.00	1.50	1.75	1.25	0.50	1.00	0.25	0.25	-0.281738	0.010254	0.935059	-2.380000	4.550000	1.190000	568.00	-0.23	-0.05	15.50	10.50	7.50	7.00	4.00	1.75	1.00	0.25	2.25	1.25	1.25	0.75	0.50	2.25	1.25	0.00	-0.256836	0.060059	0.940918	-2.870000	0.840000	-0.000000	655.00	-0.21	-0.01
0.41	11.75	11.00	5.25	8.00	2.25	2.50	0.75	0.50	1.25	1.25	1.50	1.00	0.50	0.75	0.25	0.50	-0.278320	0.009766	0.936035	-2.380000	4.620000	1.120000	559.00	-0.23	-0.05	15.00	10.25	7.25	7.25	4.00	1.50	0.75	0.25	2.50	1.50	1.25	0.75	0.50	2.00	1.50	0.00	-0.258789	0.056152	0.939453	-2.800000	0.770000	-0.070000	647.00	-0.21	-0.01
0.42	11.75	11.00	5.25	8.00	2.25	2.50	0.75	0.75	1.25	1.25	1.50	1.25	0.25	1.00	0.25	0.50	-0.275391	0.012207	0.930176	-2.380000	4.550000	1.260000	566.00	-0.23	-0.05	14.75	11.25	7.50	7.25	4.00	1.75	1.00	0.25	2.50	1.00	1.00	0.75	0.25	2.00	1.25	0.25	-0.259766	0.056641	0.939453	-3.010000	0.910000	-0.210000	652.00	-0.22	-0.01
0.43	11.50	11.00	5.25	8.00	2.25	2.25	0.75	0.50	1.25	1.00	1.50	0.75	0.00	0.75	0.25	0.50	-0.279785	0.014160	0.937012	-2.240000	4.340000	1.260000	543.00	-0.24	-0.05	14.75	11.25	7.50	7.00	4.00	1.75	1.00	0.50	2.50	1.25	1.25	0.75	0.00	2.25	1.25	0.00	-0.253418	0.055664	0.945312	-3.010000	0.980000	-0.140000	657.00	-0.21	-0.01
0.44	12.00	11.25	5.25	8.00	2.25	2.50	0.75	0.50	1.25	1.25	1.50	1.00	0.50	1.00	0.25	0.50	-0.278320	0.014160	0.935059	-2.240000	4.410000	1.260000	567.00	-0.23	-0.05	15.25	10.75	7.50	7.00	4.25	1.50	1.00	0.25	2.50	1.25	1.00	1.00	0.25	2.00	1.25	0.25	-0.264160	0.058594	0.940430	-2.940000	1.120000	-0.140000	655.00	-0.21	-0.00
0.45	11.75	11.00	5.25	8.00	2.25	2.50	0.50	0.75	1.50	1.25	1.50	1.00	0.50	1.00	0.25	0.50	-0.280762	0.009766	0.935547	-2.310000	4.480000	1.190000	565.00	-0.23	-0.05	15.25	10.75	7.50	7.00	4.25	1.50	1.00	0.25	2.25	1.25	1.00	0.75	0.50	2.00	1.50	0.00	-0.260742	0.055664	0.941895	-2.870000	0.840000	-0.070000	653.00	-0.21	-0.01
0.46	11.50	11.00	5.25	8.00	2.25	3.00	0.50	0.50	1.25	1.25	1.50	1.25	0.00	0.75	0.00	0.25	-0.279785	0.008301	0.938965	-2.450000	4.760000	1.190000	552.00	-0.24	-0.05	15.00	11.25	7.50	7.00	4.00	2.00	1.00	0.25	2.50	1.25	1.00	0.75	0.50	2.00	1.50	0.00	-0.260254	0.049316	0.944824	-2.800000	1.050000	-0.140000	661.00	-0.21	-0.01
0.47	12.25	11.25	5.00	8.00	2.25	2.25	0.75	0.50	1.25	1.00	1.75	1.25	0.50	1.00	0.00	0.50	-0.281738	0.015137	0.937500	-2.520000	4.900000	1.120000	564.00	-0.24	-0.05	15.25	11.25	7.25	7.00	4.00	1.50	1.00	0.00	2.25	1.50	1.25	0.75	0.00	2.25	1.25	0.00	-0.258789	0.057129	0.940430	-2.800000	1.120000	-0.140000	648.00	-0.22	-0.00
0.48	12.25	11.25	5.00	8.00	2.25	2.25	0.50	0.50	1.00	1.25	1.50	1.00	0.50	1.00	0.25	0.50	-0.277832	0.009766	0.938965	-2.380000	4.760000	1.190000	556.00	-0.24	-0.05	14.75	11.25	7.50	7.00	4.00	1.75	0.75	0.25	2.50	1.00	1.00	0.75	0.25	2.00	1.50	0.00	-0.256836	0.053223	0.942871	-2.730000	1.050000	-0.070000	646.00	-0.22	-0.01
0.49	12.00	11.00	5.00	8.00	2.25	2.75	0.50	0.50	1.25	1.00	1.50	0.75	0.25	0.75	0.25	0.25	-0.282227	0.013184	0.934570	-2.310000	4.760000	1.120000	549.00	-0.25	-0.05	15.25	11.00	7.25	7.00	4.00	2.00	0.75	0.25	2.25	1.00	1.00	0.75	0.50	1.75	1.50	0.00	-0.260742	0.050293	0.945801	-2.870000	1.050000	-0.000000	646.00	-0.22	-0.01
0.50	11.75	11.25	5.00	8.00	2.00	2.25	0.50	0.75	1.25	1.25	1.50	1.00	0.75	1.00	0.00	0.50	-0.276855	0.010254	0.940918	-2.240000	4.760000	1.190000	555.00	-0.24	-0.06	15.25	11.00	7.50	7.00	4.00	1.50	0.75	0.25	2.50	1.25	1.25	1.00	0.50	2.25	1.50	0.00	-0.253906	0.058594	0.937012	-2.870000	0.980000	0.070000	660.00	-0.21	-0.01
0.51	11.75	11.25	5.25	8.00	2.25	2.50	0.50	0.50	1.25	1.00	1.50	1.00	0.25	0.75	0.25	0.50	-0.278320	0.010742	0.938477	-2.310000	4.830000	1.190000	553.00	-0.24	-0.05	15.25	11.25	7.50	7.25	4.00	1.75	0.75	0.25	2.25	1.25	1.25	1.00	0.00	2.00	1.25	0.00	-0.259766	0.058594	0.944824	-2.940000	1.120000	-0.070000	655.00	-0.22	-0.01
0.52	11.75	11.00	5.00	8.00	2.25	2.00	0.50	0.50	1.25	1.50	1.50	1.00	0.50	1.00	0.25	0.50	-0.281250	0.010742	0.937012	-2.240000	4.830000	1.260000	552.00	-0.23	-0.05	15.50	11.00	7.25	7.00	4.00	1.75	0.75	0.25	2.50	1.25	1.25	0.75	0.25	2.25	1.25	0.25	-0.258301	0.064453	0.944336	-3.010000	1.260000	-0.070000	656.00	-0.21	-0.01
0.53	11.75	11.50	5.25	8.00	2.00	2.50	0.75	0.75	1.00	1.25	1.50	1.00	0.75	0.75	0.50	0.50	-0.278809	0.013184	0.939941	-2.170000	4.760000	1.260000	567.00	-0.23	-0.06	15.25	11.00	7.50	7.00	4.00	2.00	0.75	0.25	2.25	1.00	1.25	0.50	0.00	2.00	1.25	0.00	-0.259766	0.058594	0.941895	-2.870000	1.120000	-0.070000	644.00	-0.22	-0.01
0.54	12.00	11.25	5.00	8.00	2.25	2.50	0.75	0.75	1.00	1.00	1.50	1.00	0.50	1.00	0.25	0.50	-0.284180	0.011230	0.942383	-2.170000	4.830000	1.120000	562.00	-0.24	-0.06	15.00	11.25	7.50	7.25	4.00	1.50	0.75	0.00	2.25	1.00	1.00	0.50	0.25	2.00	1.25	0.25	-0.260254	0.056641	0.940918	-3.010000	0.980000	-0.070000	637.00	-0.23	-0.01
0.55	11.50	11.50	5.00	8.00	2.25	2.75	0.50	0.25	0.75	1.25	1.50	0.50	0.50	1.00	0.00	0.25	-0.275879	0.014160	0.940918	-2.170000	4.760000	1.190000	538.00	-0.25	-0.05	15.25	11.00	7.50	7.25	4.00	1.50	0.75	0.25	2.25	1.00	1.00	0.75	0.00	2.00	1.25	0.00	-0.262695	0.058105	0.946777	-2.940000	0.840000	-0.000000	641.00	-0.22	-0.01
0.56	12.25	11.50	5.00	8.00	2.25	2.50	0.50	0.50	1.50	1.00	1.50	1.25	0.50	1.00	0.25	0.50	-0.276367	0.008789	0.936523	-2.240000	4.760000	1.260000	569.00	-0.23	-0.05	15.50	11.00	7.50	7.25	4.00	1.75	0.75	0.25	2.25	1.00	1.00	0.50	0.25	2.00	1.25	0.00	-0.256348	0.051758	0.945312	-2.940000	0.910000	0.070000	646.00	-0.23	-0.01
0.57	12.25	11.25	5.25	8.00	2.00	2.50	0.50	0.75	1.00	1.25	1.50	1.00	0.50	0.75	0.25	0.50	-0.280762	0.013672	0.942383	-2.240000	4.550000	1.260000	561.00	-0.24	-0.06	15.25	11.25	7.25	7.00	4.00	1.50	0.75	0.25	2.25	1.25	1.25	0.50	0.25	2.00	1.25	0.00	-0.261230	0.058594	0.944336	-2.940000	0.910000	-0.140000	642.00	-0.22	-0.01
0.58	12.00	11.25	5.25	8.00	2.25	2.50	0.75	0.75	1.25	1.25	1.50	1.00	0.50	1.00	0.25	0.25	-0.277344	0.015625	0.936523	-2.310000	4.480000	1.260000	570.00	-0.23	-0.05	14.75	11.00	7.25	7.00	4.00	1.25	0.75	0.25	2.50	1.25	1.25	0.50	0.25	2.00	1.25	0.00	-0.257812	0.051758	0.932617	-2.940000	0.910000	-0.070000	635.00	-0.22	-0.00
0.59	12.50	11.50	5.00	8.00	2.25	2.25	0.50	0.75	1.00	1.00	1.50	1.00	0.50	0.75	0.25	0.50	-0.273926	0.008789	0.930176	-2.310000	4.550000	1.190000	561.00	-0.25	-0.06	15.00	11.25	7.25	7.00	4.00	1.25	0.75	0.25	2.50	1.25	1.25	0.75	0.00	2.00	1.25	0.00	-0.259277	0.051270	0.942871	-2.870000	1.050000	-0.070000	641.00	-0.22	-0.00
0.60	12.25	11.50	5.00	8.00	2.00	2.50	0.75	0.50	1.00	1.00	1.75	1.00	0.50	1.00	0.25	0.50	-0.277344	0.016602	0.933594	-2.380000	4.690000	1.190000	563.00	-0.24	-0.05	15.50	11.25	7.25	7.25	4.00	1.50	0.75	0.25	2.00	1.00	1.00	0.75	0.25	2.00	1.25	0.00	-0.260742	0.059082	0.942871	-2.870000	0.840000	-0.070000	642.00	-0.23	-0.01
0.61	12.00	11.50	5.00	8.00	2.25	2.50	0.50	0.50	1.25	1.00	1.25	1.00	0.75	0.50	0.25	0.50	-0.279785	0.014160	0.934570	-2.520000	4.760000	1.190000	554.00	-0.25	-0.06	15.50	11.25	7.25	7.25	4.00	1.75	0.75	0.25	2.00	1.00	1.00	0.50	0.25	2.00	1.00	0.00	-0.257324	0.056152	0.945801	-2.940000	0.700000	-0.000000	639.00	-0.23	-0.01
0.62	12.25	11.50	5.25	8.25	2.25	2.50	0.50	0.75	1.25	1.25	1.50	1.25	0.50	1.00	0.25	0.50	-0.279297	0.012207	0.934082	-2.380000	4.760000	1.190000	578.00	-0.23	-0.06	15.25	11.50	7.25	7.25	3.75	1.75	0.75	0.25	2.25	1.25	1.00	0.75	0.00	2.00	1.00	0.00	-0.260254	0.049805	0.943359	-3.080000	0.840000	-0.070000	643.00	-0.23	-0.01
0.63	12.50	11.50	5.00	8.00	2.00	2.50	0.75	0.75	1.00	0.75	1.50	1.25	0.50	0.75	0.25	0.50	-0.275391	0.015625	0.935547	-2.450000	4.760000	1.190000	565.00	-0.24	-0.06	15.25	11.25	7.50	7.50	3.75	1.50	0.75	0.25	2.25	1.00	1.00	0.50	0.25	2.00	1.00	0.00	-0.267090	0.056152	0.941895	-3.150000	0.700000	-0.070000	640.00	-0.23	-0.01
0.64	12.50	11.50	5.00	8.00	2.25	2.50	0.50	0.75	1.25	1.50	1.75	1.00	0.50	0.75	0.25	0.50	-0.278320	0.009766	0.935059	-2.520000	4.620000	1.190000	576.00	-0.23	-0.05	16.00	11.75	7.50	7.25	4.00	1.50	0.75	0.25	2.25	1.00	1.00	0.50	0.00	2.25	1.00	0.00	-0.259277	0.056152	0.947754	-3.010000	0.770000	-0.070000	653.00	-0.23	-0.00
0.65	12.50	11.50	5.25	8.00	2.25	2.50	0.50	0.50	1.00	1.00	1.50	1.00	0.50	1.00	0.25	0.25	-0.280273	0.008789	0.935547	-2.450000	4.620000	1.260000	563.00	-0.25	-0.05	15.25	11.75	7.50	7.25	3.75	1.50	0.75	0.25	2.25	1.00	0.75	0.50	0.50	2.00	1.25	0.00	-0.258789	0.057129	0.945312	-3.080000	0.840000	-0.140000	644.00	-0.23	-0.01
0.66	12.25	11.50	5.00	8.00	2.25	2.50	0.50	0.75	1.25	1.00	1.50	1.00	0.50	1.00	0.25	0.50	-0.280762	0.014648	0.934082	-2.450000	4.620000	1.190000	567.00	-0.24	-0.05	16.00	11.50	7.50	7.25	4.00	1.50	0.75	0.25	2.25	1.25	1.00	0.50	0.50	2.00	1.25	0.25	-0.257812	0.058105	0.943359	-3.150000	0.980000	-0.280000	660.00	-0.22	-0.01
0.67	12.25	11.25	5.00	8.00	2.25	2.50	0.75	0.75	1.00	1.25	1.50	1.25	0.50	0.75	0.00	0.25	-0.276855	0.010742	0.932129	-2.520000	4.690000	1.190000	564.00	-0.24	-0.06	16.00	11.75	7.25	7.25	4.00	1.50	0.75	0.25	2.50	1.00	1.00	0.50	0.25	2.00	1.50	0.00	-0.262207	0.054688	0.943359	-3.150000	0.840000	-0.210000	660.00	-0.22	-0.01
0.68	12.25	11.25	5.00	8.00	2.25	2.25	0.75	0.50	1.00	1.00	1.50	1.00	0.50	0.75	0.25	0.50	-0.280273	0.012207	0.930664	-2.660000	4.690000	1.120000	555.00	-0.24	-0.05	15.75	11.50	7.25	7.25	4.00	1.50	0.75	0.25	2.50	1.00	0.75	0.50	0.00	2.00	1.00	0.00	-0.260254	0.061035	0.942871	-3.080000	0.770000	-0.280000	643.00	-0.23	-0.00
0.69	12.25	11.50	5.00	8.00	2.25	2.50	0.50	0.50	1.00	1.25	1.50	1.25	0.25	0.75	0.25	0.25	-0.282715	0.015625	0.941406	-2.660000	4.620000	1.120000	558.00	-0.24	-0.05	16.25	12.00	7.50	7.25	4.00	1.50	0.75	0.25	2.00	1.00	0.75	0.75	0.00	2.00	1.25	0.00	-0.256348	0.052734	0.940918	-3.010000	0.980000	-0.210000	656.00	-0.24	-0.01
0.70	12.00	11.25	5.00	8.00	2.00	2.25	0.50	0.50	1.50	1.25	1.50	0.50	0.25	0.75	0.50	0.50	-0.280762	0.006348	0.932617	-2.730000	4.620000	1.050000	550.00	-0.24	-0.05	16.00	11.75	7.50	7.25	4.00	1.50	0.75	0.25	2.25	1.00	0.75	0.75	0.25	1.75	1.25	0.00	-0.260254	0.061035	0.942383	-3.010000	0.770000	-0.000000	654.00	-0.23	-0.01
0.71	12.25	11.25	5.00	8.00	2.00	2.25	0.50	0.50	1.00	1.25	1.25	1.00	0.50	1.00	0.25	0.25	-0.278320	0.011230	0.935547	-2.800000	4.550000	1.120000	549.00	-0.24	-0.05	15.75	11.75	7.25	7.25	4.25	1.50	0.75	0.25	2.25	1.25	0.75	0.50	0.50	2.00	1.50	0.00	-0.261230	0.057617	0.943359	-2.940000	0.700000	0.070000	658.00	-0.22	-0.01
0.72	12.00	11.25	5.00	8.00	2.25	2.75	0.75	0.50	1.00	1.00	1.50	1.25	0.50	0.75	0.00	0.25	-0.284668	0.015137	0.940430	-2.730000	4.480000	1.120000	557.00	-0.24	-0.06	16.00	11.75	7.25	7.25	4.00	1.50	0.75	0.25	2.25	1.00	1.00	0.50	0.25	1.75	1.50	0.00	-0.260254	0.054199	0.944824	-3.010000	0.910000	-0.140000	654.00	-0.23	-0.01
0.73	12.00	11.25	5.00	8.00	2.25	2.50	0.75	0.75	1.00	1.75	1.25	1.25	0.50	1.00	0.25	0.50	-0.283691	0.016113	0.935547	-2.940000	4.690000	1.120000	570.00	-0.23	-0.05	16.75	11.50	7.50	7.50	4.00	1.50	0.75	0.00	2.50	1.00	1.00	0.50	0.25	2.00	1.50	0.25	-0.261230	0.056152	0.948242	-3.010000	0.770000	-0.070000	669.00	-0.23	-0.00
0.74	12.00	11.25	5.00	8.00	2.25	2.50	0.50	0.75	1.25	1.25	1.50	1.00	0.25	0.75	0.25	0.50	-0.278809	0.011230	0.938477	-3.010000	4.760000	1.120000	559.00	-0.24	-0.05	16.25	11.50	7.50	7.25	4.00	1.50	0.75	0.25	2.25	1.00	1.00	1.00	0.00	2.00	1.25	0.00	-0.264160	0.057617	0.938477	-3.010000	0.770000	-0.070000	660.00	-0.23	-0.01
0.75	12.00	11.25	5.00	8.00	2.00	2.75	0.75	0.50	1.00	1.00	1.50	1.00	0.25	0.75	0.25	0.50	-0.283203	0.009277	0.938965	-3.010000	4.690000	1.050000	553.00	-0.24	-0.05	16.25	11.25	7.25	7.50	4.00	1.50	0.75	0.25	2.25	1.00	1.00	0.50	0.25	2.00	1.25	0.00	-0.260254	0.057129	0.942871	-3.080000	1.050000	-0.210000	654.00	-0.23	-0.01
0.76	11.75	11.00	5.00	8.00	2.00	2.50	0.75	0.75	1.00	1.00	1.50	1.00	0.50	0.75	0.25	0.50	-0.280762	0.017090	0.933594	-3.080000	4.690000	1.050000	551.00	-0.24	-0.06	16.00	11.50	7.50	7.25	4.00	1.75	0.75	0.25	2.50	1.25	1.25	0.50	0.50	1.75	1.25	0.00	-0.262695	0.058594	0.946289	-3.150000	1.050000	-0.210000	666.00	-0.22	-0.01
0.77	11.75	11.00	5.00	8.00	2.00	2.50	0.75	0.75	1.25	1.25	1.50	1.00	0.25	1.00	0.25	0.50	-0.276367	0.010742	0.938965	-2.940000	4.550000	1.050000	558.00	-0.23	-0.05	15.75	11.50	7.50	7.25	3.75	1.75	0.75	0.25	2.25	1.00	1.00	0.50	0.00	2.00	1.25	0.00	-0.261719	0.054199	0.944336	-3.010000	0.980000	-0.280000	648.00	-0.23	-0.01
0.78	12.25	11.25	5.00	8.00	2.25	2.75	0.75	0.75	1.00	1.25	1.50	1.00	0.75	0.75	0.00	0.50	-0.281738	0.011230	0.934570	-3.010000	4.550000	1.050000	568.00	-0.24	-0.06	16.50	11.50	7.50	7.25	4.00	1.50	0.75	0.25	2.50	1.00	1.00	0.75	0.25	2.00	1.25	0.00	-0.264648	0.056641	0.940430	-3.010000	0.910000	-0.140000	666.00	-0.23	-0.00
0.79	12.00	11.25	5.00	8.00	2.00	2.50	0.75	0.50	0.75	1.00	1.75	1.25	0.75	1.00	0.25	0.50	-0.281250	0.005371	0.938477	-3.010000	4.550000	1.120000	559.00	-0.24	-0.06	16.00	11.25	7.50	7.25	4.00	1.50	0.75	0.25	2.25	1.00	1.00	0.50	0.00	2.00	1.25	0.00	-0.252441	0.053223	0.947266	-3.010000	0.840000	-0.210000	649.00	-0.23	-0.00
0.80	11.50	11.00	5.00	8.00	2.00	2.25	0.50	0.75	1.25	1.25	1.25	1.25	0.50	0.50	0.25	0.50	-0.273438	0.017090	0.939941	-3.080000	4.620000	1.120000	545.00	-0.24	-0.06	16.00	11.25	7.50	7.25	4.25	1.50	0.75	0.25	2.50	1.00	1.00	0.75	0.25	1.75	1.50	0.25	-0.252930	0.056152	0.942871	-3.010000	0.910000	-0.210000	663.00	-0.22	-0.01
0.81	12.00	11.00	5.00	8.00	2.25	2.50	0.75	0.75	1.25	1.25	1.75	1.25	0.25	1.00	0.25	0.50	-0.280762	0.015137	0.937988	-3.010000	4.550000	1.050000	569.00	-0.23	-0.05	16.25	11.25	7.50	7.50	4.00	1.50	1.00	0.25	2.25	1.00	1.00	0.50	0.00	2.00	1.25	0.00	-0.259277	0.058105	0.941406	-3.150000	0.980000	-0.140000	659.00	-0.23	-0.00
0.82	11.75	11.00	5.25	8.00	2.25	2.50	0.50	0.75	1.25	1.00	1.50	0.50	0.25	0.75	0.25	0.25	-0.282227	0.013184	0.931152	-3.150000	4.550000	1.120000	547.00	-0.25	-0.05	15.50	10.75	7.50	7.50	4.00	1.50	0.75	0.25	2.25	1.00	1.00	0.75	0.25	2.00	1.00	0.00	-0.261230	0.058594	0.938477	-2.870000	0.910000	-0.140000	643.00	-0.23	-0.01
0.83	11.50	11.00	5.00	8.00	2.25	2.50	0.75	0.75	1.00	1.25	1.75	1.00	0.50	0.75	0.25	0.75	-0.282227	0.011230	0.936523	-3.010000	4.760000	1.120000	559.00	-0.23	-0.06	16.25	11.50	7.50	7.50	4.25	1.50	0.75	0.25	2.25	1.25	0.75	0.75	0.25	1.75	1.25	0.00	-0.257812	0.056152	0.936523	-2.870000	0.840000	-0.070000	663.00	-0.23	-0.01
0.84	11.50	11.00	5.00	8.00	2.00	2.50	0.75	0.50	1.00	1.25	1.50	1.25	0.50	0.75	0.25	0.25	-0.275879	0.008301	0.937012	-3.010000	4.690000	1.050000	548.00	-0.24	-0.06	16.25	11.25	7.50	7.25	4.00	1.50	0.75	0.25	2.25	1.00	1.00	0.50	0.50	2.00	1.25	0.00	-0.263184	0.054688	0.939941	-2.870000	0.700000	-0.140000	656.00	-0.23	-0.01
0.85	11.50	11.00	5.00	8.00	2.25	2.50	0.75	0.75	1.25	1.00	1.50	0.75	0.00	1.00	0.25	0.50	-0.288086	0.010254	0.933594	-3.010000	4.760000	1.120000	550.00	-0.24	-0.05	16.00	11.75	7.50	7.50	4.00	1.50	1.00	0.25	2.50	1.25	1.00	0.75	0.25	2.00	1.50	0.00	-0.258789	0.057617	0.939941	-2.870000	0.770000	-0.070000	675.00	-0.22	-0.01
0.86	11.25	11.00	5.00	8.00	2.25	2.50	0.50	0.50	1.00	1.00	1.50	1.00	0.25	1.00	0.25	0.50	-0.279297	0.012207	0.937500	-3.010000	4.760000	1.120000	540.00	-0.24	-0.06	16.50	11.25	7.25	7.50	3.75	1.75	1.00	0.25	2.25	1.25	1.00	0.50	0.50	2.00	1.50	0.25	-0.256348	0.055176	0.937012	-2.870000	0.910000	-0.210000	670.00	-0.22	-0.01
0.87	12.50	10.75	5.00	8.00	2.25	2.50	0.75	0.50	1.00	1.25	1.50	1.00	0.50	1.00	0.25	0.25	-0.279785	0.012207	0.938965	-3.080000	4.690000	1.120000	560.00	-0.24	-0.05	15.75	11.50	7.50	7.50	4.25	1.75	0.75	0.25	2.25	1.25	1.00	0.50	0.50	2.00	1.25	0.00	-0.256348	0.057129	0.940430	-2.870000	0.980000	-0.070000	665.00	-0.22	-0.01
0.88	11.75	10.75	5.00	8.00	2.00	2.25	0.75	0.50	1.25	1.25	1.75	1.25	0.75	1.00	0.00	0.50	-0.276855	0.014648	0.939941	-3.080000	4.690000	1.050000	555.00	-0.23	-0.05	15.75	11.25	7.50	7.50	4.25	1.75	0.75	0.25	2.50	1.25	1.00	0.75	0.25	2.00	1.25	0.00	-0.253418	0.060547	0.945801	-2.870000	0.910000	-0.140000	667.00	-0.22	-0.01
0.89	11.75	10.75	5.00	8.00	2.25	2.75	0.75	0.50	1.00	1.25	1.50	1.25	0.25	1.00	0.25	0.50	-0.281250	0.008301	0.930664	-3.010000	4.830000	1.050000	556.00	-0.23	-0.05	15.50	11.50	7.50	7.50	4.25	1.50	1.00	0.25	2.50	1.25	1.25	0.75	0.50	2.25	1.25	0.00	-0.260742	0.052246	0.939941	-2.800000	0.980000	-0.140000	675.00	-0.21	-0.01
0.90	11.50	10.75	5.00	7.75	2.00	2.25	0.75	0.50	1.50	1.00	1.50	1.25	0.25	0.75	0.25	0.25	-0.282715	0.011719	0.930664	-3.010000	4.760000	1.190000	542.00	-0.23	-0.05	15.75	11.50	7.50	7.50	4.25	1.75	1.00	0.25	2.50	1.25	1.25	0.75	0.50	2.25	1.25	0.00	-0.260254	0.056641	0.939941	-2.870000	0.980000	-0.140000	681.00	-0.21	-0.01
0.91	11.25	11.00	5.00	8.00	2.25	2.50	0.75	0.50	1.25	1.25	1.75	0.75	0.00	0.75	0.25	0.50	-0.278809	0.005371	0.931641	-3.010000	4.620000	1.120000	546.00	-0.24	-0.05	15.25	11.25	7.50	7.75	4.25	1.75	1.00	0.50	2.25	1.50	1.25	0.75	0.25	2.25	1.25	0.00	-0.260254	0.057129	0.943848	-3.010000	0.840000	-0.210000	677.00	-0.21	-0.01
0.92	11.75	10.75	5.00	8.00	2.25	2.50	0.75	0.50	1.00	1.00	1.50	1.25	0.50	0.75	0.25	0.50	-0.280762	0.007812	0.935547	-2.870000	4.550000	1.050000	550.00	-0.24	-0.05	15.75	11.50	7.50	7.50	4.00	1.75	1.00	0.50	2.50	1.25	0.75	1.00	0.25	2.00	1.25	0.00	-0.262695	0.055664	0.940430	-3.010000	0.980000	-0.140000	674.00	-0.22	-0.01
0.93	11.50	10.75	5.00	8.00	2.25	2.50	0.75	0.25	1.00	1.25	1.50	0.75	0.50	1.00	0.00	0.25	-0.279297	0.017090	0.935547	-2.870000	4.550000	1.050000	538.00	-0.24	-0.05	15.50	11.25	7.75	7.50	4.00	1.75	1.00	0.25	2.50	1.25	1.25	0.75	0.50	2.25	1.25	0.00	-0.256836	0.055176	0.943848	-2.800000	0.840000	-0.000000	675.00	-0.21	-0.01
0.94	11.75	11.00	5.00	7.75	2.00	2.25	0.75	0.75	1.25	1.25	1.75	1.25	0.50	1.00	0.25	0.50	-0.280762	0.014160	0.937012	-2.940000	4.550000	1.120000	560.00	-0.23	-0.05	15.25	11.75	7.50	7.50	4.25	1.75	1.00	0.25	2.75	1.25	1.25	0.75	0.50	2.00	1.50	0.00	-0.256348	0.056152	0.941406	-2.730000	1.050000	0.070000	682.00	-0.21	-0.01
0.95	11.50	10.75	5.00	8.00	2.25	2.25	0.75	0.75	0.75	1.25	1.25	1.25	0.50	0.75	0.25	0.50	-0.279785	0.015137	0.940918	-2.940000	4.620000	1.120000	545.00	-0.24	-0.06	15.25	11.25	7.50	7.75	4.25	2.00	1.00	0.25	2.75	1.50	1.25	0.75	0.50	2.25	1.50	0.00	-0.257812	0.056641	0.939453	-2.800000	0.980000	-0.070000	688.00	-0.20	-0.01
0.96	11.50	10.75	5.00	7.75	2.25	2.25	0.75	0.75	1.00	1.25	1.50	1.25	0.50	0.75	0.25	0.50	-0.278320	0.009766	0.932129	-2.870000	4.550000	1.050000	549.00	-0.23	-0.06	15.25	11.00	7.50	7.50	4.25	1.75	1.00	0.25	2.50	1.25	1.25	1.00	0.75	2.25	1.50	0.00	-0.259277	0.057129	0.936035	-2.800000	1.050000	-0.070000	678.00	-0.21	-0.01
0.97	11.25	10.75	5.00	8.00	2.25	2.25	0.75	0.75	1.00	1.00	1.50	0.75	0.25	0.75	0.25	0.50	-0.285645	0.009277	0.935059	-2.800000	4.550000	1.120000	538.00	-0.24	-0.05	15.50	11.25	7.50	7.50	4.25	1.75	1.00	0.25	2.50	1.25	1.50	1.00	0.50	2.25	1.50	0.00	-0.259277	0.060547	0.943359	-2.870000	1.050000	-0.140000	684.00	-0.21	-0.01
0.98	11.25	10.75	5.00	7.75	2.25	2.50	0.75	0.50	1.00	1.00	1.50	1.00	0.25	0.75	0.25	0.25	-0.277832	0.008789	0.934570	-2.870000	4.620000	1.050000	535.00	-0.24	-0.05	15.25	11.00	7.50	7.50	4.25	2.00	1.00	0.50	3.00	1.25	1.25	1.00	0.50	2.50	1.50	0.25	-0.259277	0.055176	0.933105	-2.870000	1.190000	-0.210000	694.00	-0.20	-0.01
0.99	11.50	10.50	5.00	7.75	2.25	2.25	0.75	0.50	1.00	1.25	1.50	1.00	0.50	1.00	0.50	0.50	-0.277344	0.013672	0.937500	-2.800000	4.550000	0.980000	544.00	-0.23	-0.05	15.50	11.00	7.50	7.50	4.25	2.00	1.00	0.50	2.50	1.25	1.50	1.00	0.75	2.25	1.25	0.25	-0.255859	0.054688	0.943848	-2.940000	1.190000	-0.210000	690.00	-0.20	-0.01
1.00	11.50	10.50	5.00	7.75	2.25	2.25	0.75	0.75	0.75	1.00	1.25	1.00	0.50	1.00	0.25	0.25	-0.281250	0.007812	0.938477	-2.730000	4.550000	1.050000	535.00	-0.24	-0.05	15.00	10.75	7.50	7.50	4.25	2.00	1.00	0.50	2.50	1.25	1.25	0.75	0.75	2.00	1.50	0.00	-0.260254	0.059570	0.938477	-2.870000	0.980000	-0.070000	675.00	-0.21	-0.01
1.01	11.75	10.75	5.00	8.00	2.25	2.50	0.75	0.50	1.25	1.25	1.50	1.25	0.50	0.75	0.25	0.50	-0.284180	0.012695	0.935547	-2.660000	4.550000	1.120000	557.00	-0.23	-0.05	15.50	10.75	7.50	7.50	4.00	2.00	1.00	0.25	2.75	1.00	1.25	1.00	0.25	2.25	1.50	0.00	-0.258301	0.061523	0.938965	-3.010000	1.050000	-0.070000	674.00	-0.21	-0.01
1.02	11.25	10.25	5.00	7.75	2.25	2.25	0.75	0.75	1.25	1.25	1.50	1.00	0.50	0.75	0.25	0.50	-0.282227	0.011719	0.932617	-2.730000	4.550000	1.120000	541.00	-0.23	-0.05	15.00	10.75	7.50	7.50	4.25	2.00	1.00	0.50	2.75	1.25	1.50	1.00	0.50	2.25	1.50	0.00	-0.265137	0.053223	0.940430	-2.940000	1.050000	-0.140000	684.00	-0.20	-0.01
1.03	11.50	10.75	5.00	7.75	2.25	2.25	0.50	0.25	1.50	1.00	1.50	1.25	0.75	1.00	0.25	0.50	-0.280273	0.009766	0.938477	-2.800000	4.760000	0.980000	545.00	-0.23	-0.05	15.50	10.75	7.50	7.50	4.50	2.00	1.00	0.50	2.75	1.25	1.25	1.00	0.75	2.50	1.25	0.00	-0.254883	0.059082	0.938965	-2.800000	0.910000	-0.070000	692.00	-0.20	-0.01
1.04	11.50	10.50	5.00	7.75	2.00	2.75	0.75	0.75	1.50	1.25	1.50	1.25	0.50	0.75	0.00	0.50	-0.282227	0.009277	0.941895	-2.730000	4.760000	0.910000	553.00	-0.23	-0.05	15.00	10.75	7.50	7.50	4.50	2.00	1.00	0.25	3.00	1.50	1.50	0.75	0.50	2.25	1.50	0.25	-0.261719	0.058594	0.937012	-3.150000	1.050000	-0.140000	688.00	-0.20	-0.01
1.05	11.50	10.75	5.00	7.75	2.25	2.50	0.75	0.50	1.25	1.00	1.50	1.25	0.50	0.75	0.25	0.50	-0.280273	0.016113	0.937988	-2.730000	4.550000	0.980000	548.00	-0.23	-0.05	15.25	10.50	7.50	7.50	4.50	2.00	1.00	0.25	2.75	1.25	1.25	1.00	0.75	2.25	1.75	0.25	-0.262207	0.056641	0.947754	-3.010000	0.770000	-0.070000	687.00	-0.20	-0.01
1.06	11.75	10.50	5.00	8.00	2.25	2.25	0.75	1.25	1.25	1.25	1.50	1.00	0.25	1.00	0.25	0.50	-0.277344	0.016602	0.938477	-2.660000	4.410000	1.120000	561.00	-0.23	-0.05	14.75	10.00	7.50	7.50	4.50	2.00	1.00	0.25	2.75	1.25	1.25	0.75	0.75	2.25	1.75	0.00	-0.257812	0.059082	0.940430	-3.080000	1.120000	-0.140000	672.00	-0.20	-0.01
1.07	11.25	10.75	5.00	8.00	2.25	2.50	0.75	0.50	1.25	1.25	1.50	1.00	0.50	1.00	0.25	0.75	-0.278809	0.017578	0.939941	-2.660000	4.550000	1.120000	552.00	-0.23	-0.05	14.50	11.00	7.50	7.75	4.25	2.00	1.00	0.50	2.50	1.25	1.50	1.00	0.25	2.50	1.50	0.25	-0.258301	0.059082	0.952148	-3.080000	1.120000	-0.070000	682.00	-0.20	-0.01
1.08	11.25	10.50	5.00	7.75	2.25	2.25	0.75	0.75	1.25	1.25	1.50	1.00	0.50	0.75	0.25	0.50	-0.277832	0.015625	0.936035	-2.660000	4.550000	1.050000	544.00	-0.23	-0.05	14.50	10.50	7.50	7.50	4.50	2.00	1.00	0.50	2.75	1.25	1.50	1.00	1.00	2.50	1.50	0.00	-0.257324	0.055176	0.937012	-3.080000	0.980000	-0.140000	686.00	-0.19	-0.01
1.09	11.25	10.50	5.00	7.75	2.25	2.25	0.75	0.75	1.75	1.00	1.75	1.25	1.00	0.75	0.25	0.50	-0.283691	0.012207	0.931641	-2.660000	4.550000	1.050000	559.00	-0.22	-0.05	14.75	10.75	7.50	7.50	4.25	2.00	1.00	0.50	2.75	1.25	1.50	1.00	0.75	2.50	1.50	0.00	-0.258789	0.060547	0.943359	-3.150000	1.050000	-0.140000	686.00	-0.20	-0.01
1.10	11.50	10.75	5.00	7.75	2.25	2.25	0.75	0.50	1.25	1.25	1.50	1.00	0.50	0.75	0.50	0.50	-0.278809	0.010254	0.934082	-2.730000	4.620000	0.980000	548.00	-0.23	-0.05	14.75	10.75	7.50	7.25	4.50	2.25	1.00	0.25	3.25	1.50	1.25	1.00	0.25	2.25	1.50	0.00	-0.260742	0.059082	0.937988	-3.080000	1.050000	-0.140000	685.00	-0.20	-0.00
1.11	11.25	10.25	5.00	7.75	2.25	2.25	0.75	0.50	1.25	1.25	1.50	1.25	0.50	1.00	0.25	0.50	-0.272949	0.011719	0.935547	-2.660000	4.620000	1.120000	542.00	-0.23	-0.05	14.50	10.50	7.50	7.50	4.25	1.75	1.00	0.25	2.75	1.25	1.25	1.00	0.75	2.00	1.75	0.25	-0.258301	0.059570	0.945312	-3.080000	0.980000	-0.000000	670.00	-0.20	-0.01
1.12	11.00	10.50	5.00	7.75	2.25	2.50	0.75	0.50	1.00	1.25	1.50	1.00	0.00	0.75	0.25	0.50	-0.275391	0.005859	0.932617	-2.660000	4.620000	1.120000	532.00	-0.24	-0.05	14.25	10.50	7.50	7.50	4.50	2.00	1.00	0.50	2.75	1.50	1.25	1.00	1.00	2.25	1.50	0.25	-0.256348	0.053223	0.947266	-3.010000	1.190000	-0.140000	682.00	-0.19	-0.01
1.13	11.75	10.75	5.00	7.75	2.25	2.50	0.75	0.50	1.00	1.25	1.50	1.00	0.50	1.25	0.25	0.25	-0.282715	0.010254	0.937988	-2.520000	4.620000	1.190000	550.00	-0.23	-0.05	14.50	10.50	7.25	7.50	4.50	2.00	1.00	0.25	2.50	1.50	1.25	1.00	0.25	2.00	1.25	0.25	-0.257812	0.056641	0.946777	-3.080000	1.190000	-0.140000	662.00	-0.20	-0.01
1.14	11.25	10.50	5.00	7.75	2.25	2.50	0.75	0.75	1.25	1.00	1.50	1.25	0.25	1.00	0.25	0.25	-0.277832	0.011230	0.936523	-2.590000	4.970000	1.050000	545.00	-0.23	-0.05	14.75	10.25	7.50	7.75	4.50	2.00	1.00	0.50	2.75	1.25	1.50	1.00	0.75	2.50	1.50	0.25	-0.257812	0.056641	0.942871	-3.220000	1.050000	-0.070000	688.00	-0.19	-0.01
1.15	11.25	10.50	5.00	7.75	2.25	2.25	0.50	0.50	1.00	1.25	1.50	1.00	0.50	0.75	0.00	0.50	-0.277344	0.009277	0.938477	-2.520000	5.110000	1.050000	529.00	-0.24	-0.05	14.00	10.25	7.50	7.50	4.50	2.00	1.00	0.50	2.75	1.25	1.50	1.00	0.75	2.25	1.50	0.25	-0.260742	0.054199	0.937988	-3.080000	0.980000	-0.070000	675.00	-0.19	-0.01
1.16	11.25	10.50	5.00	7.75	2.25	2.25	0.75	0.50	1.00	1.25	1.50	1.00	0.25	0.75	0.25	0.25	-0.278809	0.012207	0.936523	-2.380000	5.180000	1.050000	532.00	-0.24	-0.05	14.25	10.25	7.50	7.50	4.50	2.00	1.00	0.50	3.00	1.25	1.25	1.00	0.00	2.00	1.25	0.25	-0.265625	0.054688	0.941895	-3.150000	0.980000	-0.070000	666.00	-0.20	-0.01
1.17	11.25	10.75	5.00	7.75	2.00	2.25	0.75	0.50	1.25	1.25	1.50	0.75	0.75	0.75	0.50	0.25	-0.278809	0.011719	0.937988	-2.520000	5.530000	1.050000	540.00	-0.23	-0.05	15.00	10.25	7.50	7.75	4.50	2.00	1.00	0.25	3.00	1.50	1.25	1.00	0.75	2.25	1.50	0.25	-0.256836	0.054199	0.940918	-2.870000	0.770000	0.070000	688.00	-0.19	-0.01
1.18	11.00	10.25	5.00	7.75	2.00	2.25	0.75	0.75	1.00	1.25	1.50	0.75	0.25	1.00	0.00	0.50	-0.283203	0.017578	0.935547	-2.380000	5.320000	1.190000	526.00	-0.24	-0.05	15.25	10.25	7.50	8.00	4.75	1.75	1.00	0.25	2.75	1.25	1.25	1.00	0.75	2.25	1.50	0.00	-0.255371	0.057129	0.941406	-1.680000	0.350000	0.140000	686.00	-0.20	-0.01
1.19	10.75	10.50	4.75	7.50	2.25	2.50	0.75	0.50	1.25	1.25	1.50	1.00	0.25	1.00	0.25	0.75	-0.282227	0.012695	0.944336	-2.380000	5.250000	1.190000	532.00	-0.23	-0.05	14.75	11.25	7.50	8.00	4.75	2.00	1.00	0.50	2.75	1.25	1.25	1.00	0.75	2.25	1.50	0.25	-0.255371	0.053223	0.943359	-0.910000	0.070000	0.280000	699.00	-0.20	-0.02
1.20	10.50	10.25	4.75	7.50	2.00	2.00	0.75	0.50	0.75	1.25	1.50	1.00	0.25	1.00	0.50	0.25	-0.285645	0.009277	0.944336	-1.400000	5.180000	1.400000	511.00	-0.23	-0.05	15.50	11.50	7.75	8.00	4.50	2.25	1.00	0.50	2.50	1.25	1.50	1.00	1.00	2.00	1.50	0.25	-0.259277	0.059082	0.946289	-0.070000	-0.070000	0.560000	713.00	-0.20	-0.02
1.21	10.00	10.00	4.50	7.50	2.00	2.00	0.75	0.25	1.25	1.00	1.50	1.25	0.50	0.75	0.25	0.25	-0.279785	0.015137	0.950684	0.140000	5.880000	1.400000	500.00	-0.23	-0.05	17.00	12.00	7.75	8.00	4.50	2.25	0.75	0.25	2.25	1.25	1.25	1.00	0.50	2.25	1.50	0.25	-0.262207	0.053711	0.935547	1.330000	-0.490000	0.840000	717.00	-0.22	-0.01
1.22	10.00	9.75	4.25	7.50	2.00	2.25	0.50	0.50	0.75	1.00	1.50	1.00	0.25	1.00	0.25	0.25	-0.282715	0.009766	0.947266	1.260000	6.370000	1.680000	487.00	-0.24	-0.06	17.00	13.50	7.75	8.50	4.50	2.25	0.75	0.50	2.25	1.50	1.25	1.00	0.25	2.25	1.25	0.25	-0.256836	0.055176	0.952148	3.500000	-1.260000	0.910000	740.00	-0.22	-0.02
1.23	9.50	9.50	4.25	7.25	1.75	1.75	0.50	0.50	0.75	1.00	1.25	1.00	0.25	0.50	0.25	0.25	-0.285156	0.018066	0.941895	2.310000	5.600000	1.890000	460.00	-0.24	-0.06	18.00	14.00	8.00	8.75	4.50	2.75	0.75	0.50	2.00	1.25	1.25	1.00	1.00	2.00	1.75	0.00	-0.255371	0.059082	0.931152	5.460000	-1.750000	1.120000	771.00	-0.23	-0.03
1.24	9.50	9.50	3.75	7.00	1.75	2.00	0.50	0.25	0.75	1.25	1.25	1.00	0.25	0.50	0.25	0.25	-0.281250	0.018066	0.941895	2.870000	5.250000	1.960000	452.00	-0.24	-0.06	18.75	14.50	8.25	9.00	4.50	2.75	0.50	0.50	2.00	1.00	1.25	1.00	0.75	2.00	1.50	0.25	-0.258301	0.059082	0.947754	6.020000	-2.170000	1.260000	780.00	-0.23	-0.03
1.25	9.25	9.25	3.75	7.00	1.75	1.75	0.50	0.25	0.75	1.00	1.50	0.75	0.00	0.50	0.00	0.00	-0.284668	0.016113	0.949707	3.150000	5.180000	2.030000	434.00	-0.25	-0.05	19.75	16.25	8.00	9.25	4.50	2.75	0.50	0.50	1.50	1.25	1.00	0.75	0.50	2.25	1.50	0.00	-0.258789	0.058105	0.948242	6.790000	-2.450000	1.330000	797.00	-0.25	-0.03
1.26	9.00	9.25	3.50	6.75	1.50	2.00	0.50	0.50	0.75	1.00	1.25	1.00	0.25	0.75	0.25	0.25	-0.273926	0.023926	0.941406	3.570000	5.110000	1.890000	439.00	-0.24	-0.06	20.00	16.50	8.25	9.75	4.25	2.75	0.25	0.50	1.75	1.00	1.00	1.00	0.75	1.75	1.25	0.25	-0.260254	0.064453	0.945312	7.350000	-2.660000	1.330000	805.00	-0.25	-0.03
1.27	9.00	9.00	3.75	6.50	1.50	1.75	0.50	0.25	0.00	1.50	1.50	0.25	0.00	0.75	0.25	0.25	-0.284668	0.019043	0.929199	2.100000	4.270000	1.540000	416.00	-0.25	-0.05	20.75	18.25	8.50	10.00	4.25	3.00	0.25	0.50	1.25	0.75	0.75	1.00	0.50	1.50	1.25	0.00	-0.267578	0.064941	0.949707	7.770000	-2.660000	1.400000	821.00	-0.27	-0.04
1.28	8.25	8.75	3.50	6.50	1.50	1.75	0.50	0.25	0.75	0.75	1.00	0.75	0.00	0.75	0.25	0.25	-0.271484	0.013184	0.937500	3.500000	2.800000	1.610000	404.00	-0.25	-0.06	22.50	19.00	8.50	10.50	4.00	3.00	0.25	0.50	1.00	0.75	1.00	0.50	0.50	1.50	1.00	0.00	-0.261230	0.066895	0.967285	8.260000	-2.590000	1.400000	842.00	-0.28	-0.04
1.29	8.25	8.50	3.25	6.25	1.25	1.50	0.50	0.50	0.50	0.75	1.00	0.50	0.00	0.50	0.00	0.25	-0.281738	0.027832	0.932129	2.240000	3.010000	1.540000	382.00	-0.26	-0.06	23.00	19.75	8.50	10.75	4.00	3.00	0.25	0.50	1.25	0.50	1.00	0.50	0.25	1.75	1.00	0.00	-0.258301	0.076660	0.954102	8.960000	-2.800000	1.540000	859.00	-0.28	-0.04
1.30	8.25	8.50	3.00	6.25	1.50	1.50	0.50	0.00	0.75	0.25	0.75	0.75	0.00	0.75	0.25	0.00	-0.282227	0.021973	0.932617	0.700000	3.010000	1.330000	375.00	-0.26	-0.05	23.75	20.75	8.50	11.00	3.75	3.25	0.25	0.50	0.75	0.50	1.00	0.50	0.50	1.25	0.75	0.00	-0.253906	0.072754	0.943359	8.400000	-3.220000	1.540000	868.00	-0.29	-0.04
1.31	8.25	8.25	3.25	6.00	1.50	1.00	0.50	0.50	0.50	0.75	1.00	0.75	0.00	0.50	0.00	0.00	-0.277344	0.023438	0.932617	-0.910000	3.150000	1.120000	375.00	-0.26	-0.05	24.00	21.25	8.50	11.25	4.00	3.00	0.00	0.50	1.00	0.50	0.50	0.50	0.25	1.50	0.75	0.00	-0.262207	0.067871	0.937988	8.050000	-3.290000	1.470000	873.00	-0.30	-0.04
1.32	8.25	8.00	3.00	6.00	1.50	1.00	0.50	0.50	0.50	0.75	1.00	0.75	0.25	0.50	0.00	0.25	-0.284180	0.021973	0.927734	-2.100000	3.150000	0.980000	373.00	-0.25	-0.06	25.00	22.00	8.50	11.50	3.75	3.00	0.00	0.50	0.50	0.50	0.75	0.50	0.00	1.50	0.75	0.25	-0.256836	0.081055	0.943359	7.490000	-3.430000	1.330000	886.00	-0.30	-0.04
1.33	8.00	8.00	3.25	6.00	1.25	0.75	0.50	0.75	0.25	0.50	1.00	0.25	0.00	0.50	0.00	0.25	-0.282227	0.024902	0.934570	-2.870000	2.800000	0.980000	357.00	-0.27	-0.06	25.50	22.00	8.25	11.75	3.50	3.00	0.00	0.50	0.75	0.50	0.50	0.50	0.00	1.25	1.00	0.00	-0.265137	0.087891	0.938965	6.720000	-3.010000	1.330000	889.00	-0.30	-0.04
1.34	8.00	8.00	2.75	5.75	1.50	0.75	0.25	0.25	0.75	0.50	0.75	0.75	0.00	0.50	0.25	0.25	-0.280273	0.019043	0.938965	-2.730000	2.800000	0.840000	351.00	-0.26	-0.05	25.50	23.00	8.50	11.50	3.50	3.00	0.25	0.25	0.75	0.25	0.75	0.25	0.00	1.25	0.75	0.00	-0.245117	0.087891	0.963379	5.740000	-3.080000	1.260000	893.00	-0.31	-0.04
1.35	8.00	8.00	2.75	5.75	1.25	1.25	0.50	0.25	0.25	0.75	0.75	0.25	0.00	0.25	0.00	0.00	-0.281250	0.023438	0.939453	-2.660000	2.450000	0.980000	342.00	-0.28	-0.05	26.25	23.25	8.25	12.00	3.50	3.00	0.00	0.50	0.50	0.25	0.50	0.25	0.00	1.00	0.75	0.00	-0.238281	0.087891	0.935547	4.970000	-3.010000	1.120000	898.00	-0.32	-0.04
1.36	7.75	8.00	2.75	5.50	1.25	1.25	0.50	0.25	0.25	0.50	0.50	0.50	0.00	0.25	0.00	0.00	-0.277344	0.024902	0.940430	-2.800000	2.100000	1.050000	333.00	-0.28	-0.06	26.00	23.25	8.25	12.50	3.25	3.00	0.00	0.25	0.25	0.50	0.50	0.25	0.00	1.00	0.75	0.00	-0.245117	0.070801	0.932617	3.780000	-2.730000	1.050000	893.00	-0.32	-0.04
1.37	7.75	7.75	2.75	5.50	1.25	1.00	0.25	0.50	0.50	0.75	1.00	0.25	0.00	0.75	0.00	0.00	-0.277344	0.020508	0.938477	-2.450000	1.610000	0.980000	342.00	-0.26	-0.05	26.75	23.50	8.25	12.25	3.50	3.50	0.00	0.50	0.25	0.25	0.50	0.25	0.00	1.25	1.00	0.00	-0.239746	0.083496	0.927734	2.450000	-2.380000	0.910000	917.00	-0.31	-0.05
1.38	7.75	7.75	2.75	5.50	1.00	1.00	0.25	0.25	1.00	0.50	0.75	0.50	0.00	0.75	0.00	0.25	-0.278320	0.016602	0.932129	-2.030000	1.260000	1.190000	340.00	-0.26	-0.05	26.75	24.00	8.50	12.50	3.25	3.25	0.00	0.25	0.50	0.50	0.50	0.50	0.00	0.75	0.75	0.00	-0.242676	0.081543	0.923828	0.280000	-1.260000	0.560000	920.00	-0.32	-0.04
1.39	7.75	7.75	2.25	5.25	1.25	1.00	0.25	0.25	0.25	1.00	0.50	0.50	0.00	0.25	0.00	0.00	-0.275879	0.018555	0.932617	-1.470000	1.260000	1.400000	320.00	-0.28	-0.06	27.00	23.75	8.25	12.50	3.25	3.25	0.00	0.50	0.25	0.50	0.25	0.25	0.00	1.25	0.75	0.00	-0.243652	0.086426	0.926758	-1.470000	-0.350000	0.350000	916.00	-0.32	-0.04
1.40	7.75	7.75	2.75	5.50	1.00	0.75	0.25	0.00	0.50	0.50	0.75	0.25	0.00	0.25	0.00	0.00	-0.279297	0.018555	0.940430	-1.540000	1.190000	1.330000	317.00	-0.29	-0.05	26.75	24.00	8.50	12.50	3.50	3.25	0.00	0.50	0.25	0.50	0.50	0.25	0.00	1.00	0.75	0.00	-0.247559	0.085938	0.935547	-2.660000	0.350000	-0.000000	923.00	-0.32	-0.05
1.41	7.75	7.75	2.50	5.50	1.25	1.00	0.25	0.25	0.25	0.25	0.50	0.25	0.00	0.50	0.00	0.00	-0.273926	0.022461	0.927734	-1.750000	1.330000	1.330000	317.00	-0.29	-0.06	27.00	23.75	8.50	12.75	3.50	3.25	0.00	0.50	0.50	0.25	0.50	0.25	0.00	1.00	0.75	0.00	-0.245117	0.082031	0.937012	-3.640000	0.840000	-0.140000	927.00	-0.32	-0.04
1.42	7.75	7.75	2.75	5.50	1.25	0.75	0.25	0.00	0.00	0.25	0.75	0.25	0.00	0.50	0.00	0.00	-0.271973	0.015137	0.929688	-2.100000	1.890000	1.330000	312.00	-0.30	-0.05	27.00	24.00	8.50	12.75	3.50	3.25	0.00	0.50	0.50	0.50	0.50	0.50	0.00	1.00	0.50	0.00	-0.246094	0.083008	0.937988	-5.320000	1.610000	-0.210000	932.00	-0.32	-0.05
1.43	8.00	8.25	2.75	5.50	1.25	0.75	0.25	0.25	0.25	0.75	0.75	0.25	0.00	0.25	0.00	0.00	-0.271973	0.020996	0.929688	-2.520000	2.170000	1.190000	331.00	-0.29	-0.05	26.75	23.75	8.25	12.75	3.50	3.25	0.00	0.50	0.50	0.25	0.25	0.00	0.00	1.00	1.00	0.00	-0.248047	0.084473	0.937988	-6.230000	1.960000	-0.350000	918.00	-0.32	-0.04
1.44	8.50	8.25	2.50	5.50	1.00	0.75	0.25	0.00	0.50	0.50	0.75	0.50	0.00	0.25	0.00	0.00	-0.266602	0.025879	0.932129	-3.080000	2.800000	1.190000	330.00	-0.29	-0.05	27.00	23.50	8.50	12.50	3.50	3.25	0.00	0.50	0.50	0.50	0.75	0.50	0.00	1.00	0.75	0.00	-0.252441	0.083984	0.942871	-7.280000	2.450000	-0.700000	930.00	-0.31	-0.04
1.45	8.25	8.25	2.75	5.50	1.25	1.25	0.25	0.00	0.00	0.75	0.50	0.50	0.00	0.50	0.00	0.00	-0.264648	0.017090	0.931641	-3.850000	3.360000	1.120000	335.00	-0.29	-0.06	26.75	23.25	8.50	12.75	3.75	3.50	0.25	0.50	0.50	0.50	0.75	0.25	0.25	1.00	0.50	0.00	-0.251465	0.081055	0.942383	-7.910000	2.730000	-0.700000	934.00	-0.31	-0.04
1.46	8.50	8.25	2.75	5.50	1.00	1.00	0.25	0.25	0.25	0.50	0.50	0.25	0.00	0.25	0.00	0.00	-0.271973	0.020996	0.928223	-4.270000	3.990000	0.980000	331.00	-0.30	-0.05	26.25	23.50	8.75	12.75	3.75	3.50	0.25	0.25	0.50	0.50	0.75	0.50	0.00	1.00	0.75	0.00	-0.250488	0.082031	0.944824	-7.980000	2.660000	-0.630000	933.00	-0.31	-0.04
1.47	8.25	8.25	3.00	5.50	1.25	1.25	0.50	0.25	0.25	0.50	0.50	0.25	0.00	0.25	0.00	0.25	-0.271973	0.019043	0.931152	-4.690000	4.410000	0.910000	343.00	-0.29	-0.05	27.00	23.00	8.75	12.50	3.75	3.50	0.25	0.50	0.50	0.50	0.75	0.50	0.00	1.00	0.75	0.00	-0.247070	0.076660	0.949707	-8.470000	2.730000	-0.630000	938.00	-0.31	-0.04
1.48	8.50	8.50	2.75	5.25	1.25	0.75	0.25	0.00	0.50	0.25	0.50	0.25	0.00	0.50	0.00	0.00	-0.275879	0.025391	0.929688	-4.900000	4.690000	0.840000	330.00	-0.30	-0.04	26.25	22.75	8.75	12.50	4.00	3.50	0.25	0.50	0.75	0.75	0.75	0.50	0.25	1.25	1.00	0.00	-0.250488	0.076660	0.937988	-9.100000	2.940000	-0.700000	944.00	-0.30	-0.04
1.49	8.75	8.75	3.00	5.50	1.25	0.75	0.25	0.00	0.25	0.50	0.50	0.50	0.00	0.25	0.00	0.00	-0.271973	0.021484	0.933594	-4.830000	4.690000	0.910000	341.00	-0.30	-0.05	25.50	22.50	8.75	12.50	3.75	3.50	0.25	0.75	0.50	0.50	0.50	0.50	0.00	1.25	1.00	0.00	-0.250977	0.075684	0.945801	-9.660000	2.870000	-0.770000	922.00	-0.30	-0.05
1.50	9.25	8.50	3.00	5.75	1.25	1.00	0.25	0.25	0.50	0.50	0.75	0.50	0.00	0.50	0.25	0.00	-0.273438	0.019531	0.930176	-4.410000	4.830000	1.050000	366.00	-0.28	-0.05	26.00	22.25	8.75	12.25	3.75	3.75	0.25	0.50	0.75	0.50	0.75	0.75	0.25	1.00	1.00	0.00	-0.252441	0.079590	0.948242	-9.870000	2.940000	-0.700000	931.00	-0.30	-0.04
1.51	9.25	9.00	3.50	5.75	1.25	1.00	0.50	0.00	0.25	0.50	0.50	0.50	0.00	0.50	0.00	0.00	-0.271484	0.018066	0.937012	-4.270000	5.040000	1.050000	367.00	-0.29	-0.04	25.25	21.75	8.75	12.00	4.00	3.50	0.25	0.50	0.75	0.75	0.75	0.50	0.25	1.00	1.00	0.00	-0.258789	0.079102	0.947754	-9.870000	2.940000	-0.770000	914.00	-0.30	-0.04
1.52	9.50	9.25	3.25	5.75	1.25	1.00	0.25	0.00	0.25	0.50	0.75	0.25	0.00	0.25	0.50	0.00	-0.270996	0.020996	0.937012	-4.060000	5.180000	1.050000	369.00	-0.29	-0.05	25.50	21.50	8.50	12.00	4.25	3.75	0.25	0.50	0.75	0.50	0.50	0.50	0.25	1.00	1.00	0.00	-0.253906	0.077148	0.944824	-9.800000	2.730000	-0.910000	912.00	-0.30	-0.04
1.53	9.75	9.00	3.75	6.00	1.25	1.00	0.25	0.25	0.75	0.25	0.50	0.25	0.00	0.50	0.00	0.00	-0.276367	0.020996	0.933594	-4.130000	5.110000	1.190000	381.00	-0.29	-0.04	24.75	21.25	8.75	12.00	4.00	3.75	0.25	0.50	1.00	0.75	1.00	0.75	0.00	1.00	1.00	0.00	-0.254395	0.073242	0.942871	-9.590000	2.520000	-0.840000	913.00	-0.29	-0.04
1.54	10.00	9.50	3.50	6.25	1.50	1.25	0.50	0.50	0.50	0.50	0.50	0.50	0.00	0.25	0.25	0.25	-0.277344	0.021973	0.937012	-4.130000	5.110000	1.400000	407.00	-0.28	-0.05	24.50	20.75	8.75	11.75	4.25	3.50	0.25	0.50	0.75	0.75	1.25	0.75	0.50	1.00	1.00	0.00	-0.254395	0.074707	0.951172	-9.030000	2.660000	-0.770000	907.00	-0.29	-0.04
1.55	11.00	10.00	3.50	6.25	1.50	1.50	0.50	0.25	0.25	0.50	0.50	0.50	0.00	0.75	0.00	0.25	-0.274902	0.019043	0.925293	-4.200000	5.040000	1.400000	420.00	-0.29	-0.05	24.00	20.50	8.75	11.25	4.00	3.50	0.25	0.50	0.75	0.75	1.00	0.50	0.50	1.25	0.75	0.00	-0.253906	0.073730	0.942383	-8.750000	2.800000	-0.700000	883.00	-0.29	-0.04
1.56	11.25	10.50	3.75	6.50	1.50	1.00	0.50	0.25	0.50	0.50	0.75	0.50	0.00	0.25	0.00	0.00	-0.272949	0.017578	0.935059	-4.130000	4.970000	1.610000	429.00	-0.29	-0.04	23.50	20.00	8.75	11.25	4.50	3.50	0.25	0.50	1.00	0.75	1.00	0.75	0.50	1.25	1.00	0.00	-0.255371	0.074219	0.947754	-8.330000	2.870000	-0.840000	888.00	-0.28	-0.04
1.57	11.50	10.75	3.75	7.00	1.50	1.25	0.25	0.50	0.00	0.50	0.75	0.50	0.00	0.25	0.00	0.25	-0.278320	0.016113	0.938477	-3.920000	5.040000	1.610000	437.00	-0.30	-0.06	22.50	19.25	8.50	11.00	4.25	3.25	0.50	0.50	1.00	1.00	1.00	0.50	0.25	1.00	1.00	0.25	-0.258789	0.071777	0.945312	-7.980000	2.800000	-0.770000	858.00	-0.28	-0.04
1.58	12.50	11.50	4.25	7.50	1.75	1.75	0.50	0.25	0.25	0.50	1.00	0.75	0.00	0.25	0.00	0.00	-0.269043	0.016113	0.932617	-2.940000	4.830000	1.820000	485.00	-0.29	-0.05	22.00	18.75	8.50	10.75	4.25	3.00	0.50	0.50	1.00	1.00	0.75	0.50	0.50	1.25	1.00	0.00	-0.256348	0.072266	0.945801	-7.560000	2.730000	-0.700000	841.00	-0.28	-0.04
1.59	13.00	11.75	4.25	7.75	1.75	1.75	0.50	0.25	0.50	0.75	0.75	0.50	0.00	0.25	0.25	0.00	-0.271973	0.021484	0.952148	-2.030000	4.620000	1.890000	500.00	-0.29	-0.05	21.25	18.00	8.25	10.25	4.00	3.25	0.50	0.75	1.00	1.00	0.75	0.75	0.50	1.25	1.25	0.00	-0.252441	0.070801	0.945312	-6.930000	2.870000	-0.840000	826.00	-0.27	-0.04
1.60	13.50	12.50	5.00	8.00	1.75	1.75	0.50	0.25	0.75	0.25	1.00	0.75	0.00	0.50	0.25	0.25	-0.270508	0.020508	0.933594	-1.960000	4.620000	1.820000	532.00	-0.28	-0.05	20.75	17.50	8.00	10.00	4.25	3.00	0.50	0.50	1.00	0.75	1.00	0.50	0.00	1.50	1.00	0.00	-0.256348	0.077637	0.945801	-6.790000	2.940000	-0.770000	797.00	-0.28	-0.03
1.61	14.00	13.00	4.75	8.25	2.00	2.00	0.50	0.25	0.50	0.75	1.00	0.75	0.00	0.50	0.50	0.25	-0.267578	0.023926	0.928711	-1.400000	4.620000	1.960000	554.00	-0.28	-0.05	19.50	16.50	8.25	9.75	4.00	2.75	0.50	0.25	1.00	1.00	1.00	0.50	0.00	1.25	1.00	0.00	-0.259277	0.072266	0.937500	-6.790000	3.150000	-0.770000	763.00	-0.27	-0.03
1.62	15.00	13.75	5.00	8.50	2.00	2.25	0.50	0.25	0.50	0.75	1.00	0.50	0.00	0.50	0.00	0.25	-0.275391	0.017090	0.931152	-1.120000	4.410000	2.030000	573.00	-0.29	-0.05	19.00	16.00	8.00	9.50	4.00	2.75	0.50	0.25	1.00	1.00	1.00	0.50	0.50	1.25	1.00	0.00	-0.257812	0.069336	0.944824	-6.650000	3.570000	-0.840000	751.00	-0.27	-0.03
1.63	16.00	14.25	5.00	8.75	2.00	2.50	0.25	0.00	0.75	0.50	1.00	0.50	0.00	0.25	0.00	0.25	-0.271973	0.017578	0.929688	-1.190000	4.060000	1.890000	586.00	-0.30	-0.05	18.00	15.00	7.75	9.00	4.00	2.50	0.50	0.25	1.25	0.75	1.00	0.50	0.50	1.00	1.00	0.00	-0.257812	0.068848	0.948730	-6.650000	3.850000	-0.770000	716.00	-0.27	-0.03
1.64	15.75	14.50	5.25	9.00	2.25	2.50	0.50	0.75	0.50	0.75	1.25	0.50	0.00	0.50	0.00	0.25	-0.267090	0.023438	0.935547	-1.260000	4.200000	1.890000	616.00	-0.29	-0.05	17.00	14.25	7.75	8.75	3.75	2.25	0.50	0.50	1.00	0.75	1.00	0.50	0.00	1.25	1.00	0.00	-0.253418	0.071289	0.946777	-6.720000	4.060000	-0.770000	687.00	-0.27	-0.03
1.65	17.00	15.00	5.50	9.25	2.00	3.00	0.50	0.50	0.50	0.50	1.25	0.75	0.00	0.25	0.25	0.00	-0.272461	0.022461	0.937500	-1.470000	4.130000	1.680000	639.00	-0.29	-0.05	16.00	13.00	7.25	8.25	3.75	2.00	0.50	0.25	1.00	0.75	0.75	0.50	0.00	1.25	1.00	0.00	-0.252441	0.061523	0.951172	-6.580000	4.340000	-0.770000	641.00	-0.27	-0.03
1.66	17.75	15.50	5.75	9.50	2.25	3.50	0.50	0.50	0.25	1.00	1.25	1.00	0.00	0.50	0.00	0.25	-0.270508	0.022949	0.930176	-2.590000	3.920000	1.680000	673.00	-0.29	-0.06	14.25	12.00	7.00	7.75	3.50	2.00	0.50	0.25	1.25	0.75	0.75	0.50	0.00	1.25	1.00	0.00	-0.259766	0.067383	0.951660	-5.880000	5.460000	-0.840000	602.00	-0.26	-0.03
1.67	18.50	16.00	5.75	9.75	2.25	3.50	0.50	0.50	0.25	0.75	1.25	1.00	0.00	0.50	0.00	0.25	-0.270508	0.018066	0.935547	-3.150000	3.430000	1.540000	687.00	-0.29	-0.06	13.00	10.75	6.50	7.25	3.25	1.50	0.50	0.25	1.00	1.00	0.75	0.25	0.00	1.25	0.75	0.00	-0.260742	0.062500	0.953613	-5.390000	6.300000	-0.980000	548.00	-0.26	-0.02
1.68	19.00	16.50	6.00	10.00	2.50	4.25	0.50	0.50	0.50	1.00	1.50	1.00	0.00	0.50	0.25	0.25	-0.275391	0.020020	0.938477	-3.710000	2.940000	1.330000	728.00	-0.28	-0.06	11.25	9.50	6.00	6.75	3.25	1.25	0.50	0.00	1.00	0.75	1.00	0.50	0.00	1.00	1.00	0.00	-0.257812	0.064941	0.940430	-5.320000	7.070000	-0.840000	500.00	-0.24	-0.02
1.69	19.50	17.00	6.50	10.25	2.75	4.50	0.50	0.75	0.25	0.75	1.50	0.75	0.25	0.25	0.00	0.25	-0.282715	0.022949	0.931641	-4.270000	2.450000	1.190000	745.00	-0.29	-0.06	9.50	8.25	5.75	6.00	3.00	1.25	0.50	0.00	1.00	1.00	1.00	0.25	0.00	1.25	1.00	0.00	-0.254883	0.054688	0.950684	-4.900000	8.470000	-0.840000	455.00	-0.23	-0.02
1.70	20.50	17.50	6.50	10.75	2.75	4.75	0.50	1.00	0.50	0.75	1.50	1.25	0.50	0.50	0.50	0.25	-0.275391	0.017090	0.949707	-3.990000	2.030000	1.190000	795.00	-0.28	-0.06	8.50	7.00	5.50	5.50	2.75	0.75	0.50	0.00	1.00	0.75	0.75	0.50	0.00	1.25	0.75	0.00	-0.263184	0.065430	0.954590	-4.690000	10.010000	-0.840000	407.00	-0.23	-0.01
1.71	20.50	17.75	7.00	11.00	2.75	5.00	0.50	1.00	0.75	1.00	1.50	1.00	0.50	0.50	0.25	0.50	-0.271973	0.016602	0.938477	-4.130000	1.610000	1.120000	811.00	-0.28	-0.06	7.50	6.00	4.50	5.00	2.50	0.50	0.50	0.00	1.00	0.75	0.75	0.50	0.00	1.00	0.50	0.00	-0.266113	0.067871	0.967773	-4.480000	11.900000	-1.260000	357.00	-0.22	-0.01
1.72	14.75	14.25	6.00	9.50	2.25	3.00	0.50	0.00	0.00	0.75	1.25	1.00	0.00	0.00	0.00	0.00	-0.271973	0.017578	0.945801	-4.200000	1.190000	0.980000	603.00	-0.30	-0.06	6.25	5.00	3.50	3.75	2.50	0.50	0.50	0.00	1.00	1.00	1.00	0.25	0.00	1.25	0.75	0.00	-0.258789	0.065918	0.951172	-4.130000	14.000000	-1.820000	313.00	-0.19	-0.00
1.73	16.75	15.50	6.50	9.75	2.25	3.75	0.25	0.00	0.00	0.25	0.75	0.50	0.00	0.00	0.00	0.00	-0.272461	0.018555	0.941406	-4.270000	1.050000	0.840000	635.00	-0.32	-0.06	5.25	4.00	3.00	2.50	2.00	0.50	0.25	0.00	1.00	0.75	0.75	0.25	0.00	1.00	0.75	0.00	-0.273438	0.080078	0.950195	-3.990000	16.170000	-2.310000	253.00	-0.19	0.00
1.74	15.00	14.50	6.25	9.50	2.25	4.00	0.25	0.00	0.00	0.00	0.75	0.25	0.00	0.00	0.00	0.00	-0.274902	0.019043	0.942383	-4.200000	0.910000	0.910000	596.00	-0.32	-0.06	5.00	2.50	2.75	2.00	1.75	0.25	0.25	0.00	1.00	0.75	1.00	0.50	0.00	1.00	1.25	0.00	-0.275391	0.069824	0.948242	-4.620000	18.690001	-2.800000	231.00	-0.14	0.01
1.75	14.75	14.75	6.25	9.50	2.50	4.50	0.25	0.00	0.00	0.25	1.00	0.25	0.00	0.00	0.00	0.00	-0.270020	0.018555	0.950684	-3.990000	1.190000	0.910000	610.00	-0.31	-0.06	2.75	2.00	2.25	1.50	1.50	0.25	0.25	0.00	1.00	0.75	0.75	0.50	0.00	0.75	0.50	0.00	-0.286621	0.152832	1.125488	-5.600000	23.309999	-6.650000	172.00	-0.13	0.01
1.76	21.50	18.50	8.00	11.75	4.25	7.25	0.50	1.75	0.75	1.25	2.00	1.50	1.50	0.50	0.25	0.50	-0.273926	0.020508	0.943848	-3.780000	1.400000	0.840000	932.00	-0.26	-0.07	2.50	1.50	1.25	1.25	1.00	0.50	0.25	0.00	1.00	0.50	0.75	0.25	0.00	0.75	0.50	0.00	-0.033691	-0.038574	0.986816	-14.070000	28.490000	-8.470000	140.00	-0.11	0.01
1.77	22.25	18.50	8.00	11.75	4.75	7.50	0.75	1.75	0.00	0.25	1.25	0.75	0.00	0.00	0.00	0.00	-0.270996	0.020508	0.941895	-3.710000	1.680000	0.700000	890.00	-0.29	-0.07	2.00	1.25	1.00	1.00	1.00	0.25	0.00	0.00	0.50	0.50	0.75	0.00	0.00	0.75	0.25	0.00	-0.317383	0.125488	1.052246	-13.090000	54.250000	-9.940000	106.00	-0.13	0.01
1.78	15.00	14.75	6.75	9.75	3.50	6.50	0.50	0.75	0.00	0.25	1.00	1.00	0.00	0.00	0.00	0.00	-0.266602	0.022461	0.938965	-3.640000	1.890000	0.700000	683.00	-0.29	-0.07	1.25	1.00	1.00	0.75	1.00	0.00	0.00	0.00	0.50	0.50	0.75	0.00	0.00	0.50	0.50	0.00	-0.251465	0.163086	1.175781	-18.200001	95.059998	-21.139999	89.00	-0.09	0.02
1.79	15.00	14.50	6.50	9.75	3.75	6.00	0.50	0.50	0.00	0.50	1.25	0.75	0.00	0.00	0.00	0.00	-0.270020	0.021484	0.946777	-3.920000	2.030000	0.840000	674.00	-0.29	-0.07	1.25	1.25	1.00	0.75	1.00	0.00	0.00	0.00	0.25	0.50	0.00	0.00	0.00	0.25	0.25	0.00	-0.312500	0.222168	1.216797	-16.660000	106.260002	-30.730000	74.00	-0.19	0.01
1.80	14.75	14.25	6.75	9.75	3.75	6.25	0.50	1.00	0.00	0.50	1.50	1.00	0.00	0.00	0.00	0.00	-0.264160	0.022949	0.935547	-4.200000	2.240000	0.700000	688.00	-0.28	-0.08	1.00	0.75	1.00	0.75	0.75	0.00	0.00	0.00	0.25	1.25	0.00	0.00	0.25	0.25	0.00	0.00	-0.336426	0.257324	1.260742	-10.080000	113.400002	-41.369999	72.00	-0.13	0.01
1.81	14.75	14.00	6.75	9.75	4.00	6.25	0.50	1.00	0.00	0.75	1.50	1.00	0.50	0.00	0.00	0.00	-0.264160	0.020020	0.940918	-4.480000	2.310000	0.630000	696.00	-0.27	-0.08	0.75	0.75	0.75	0.25	0.75	0.00	0.00	0.00	0.00	0.00	0.00	0.00	0.00	0.25	0.00	0.00	-0.401367	0.196289	1.442383	4.060000	113.190002	-49.070000	40.00	0.00	0.00
1.82	14.25	14.00	6.75	9.75	4.00	6.50	0.50	1.00	0.00	0.50	1.75	1.00	0.50	0.00	0.00	0.00	-0.270996	0.017090	0.942871	-4.620000	2.100000	0.420000	694.00	-0.27	-0.08	0.50	0.75	0.50	0.50	0.75	0.25	0.00	0.00	0.00	0.25	0.00	0.00	0.00	0.00	0.00	0.00	-0.195801	0.150879	1.370605	9.380000	108.220001	-58.520000	40.00	0.00	0.00
1.83	14.25	14.00	6.75	9.75	3.75	6.25	0.50	1.00	0.00	0.50	1.50	1.00	0.25	0.00	0.00	0.00	-0.262207	0.009766	0.934082	-4.900000	2.240000	0.350000	683.00	-0.28	-0.08	0.50	0.75	0.75	0.50	0.50	0.00	0.00	0.00	0.00	0.00	0.00	0.00	0.00	0.00	0.00	0.00	-0.096680	0.165527	1.326172	3.570000	102.760002	-66.919998	34.00	0.00	0.00
1.84	14.00	13.50	7.00	9.75	4.00	6.25	0.50	1.50	0.00	0.75	1.75	1.00	0.75	0.00	0.00	0.00	-0.267578	0.016113	0.941895	-5.110000	2.520000	0.350000	699.00	-0.26	-0.08	0.50	0.75	0.50	0.50	0.50	0.00	0.00	0.00	0.00	0.00	0.00	0.00	0.00	0.00	0.00	0.00	0.085449	0.173340	1.241211	-10.360000	94.639999	-73.779999	31.00	0.00	0.00
1.85	14.00	13.50	6.75	9.75	4.00	6.50	0.75	1.50	0.00	0.50	1.50	1.50	1.00	0.00	0.00	0.00	-0.269531	0.017090	0.941406	-5.390000	2.660000	0.280000	706.00	-0.26	-0.09	0.00	1.75	2.50	1.00	0.50	0.00	0.00	0.00	0.00	0.00	0.00	0.00	0.00	0.00	0.00	0.00	0.245117	0.260742	1.186523	-26.880001	87.220001	-77.559998	66.00	-0.30	-0.04
1.86	13.50	13.25	7.00	9.50	4.25	6.50	0.75	1.50	0.00	0.75	1.75	1.50	1.25	0.00	0.00	0.00	-0.264160	0.022461	0.932129	-5.600000	2.660000	0.210000	709.00	-0.25	-0.09	0.25	0.00	0.00	0.00	0.75	0.00	0.00	0.00	0.00	0.00	0.00	0.00	0.00	0.00	0.00	0.00	0.299316	0.432617	1.212891	-39.200001	79.730003	-76.019997	12.00	0.00	0.00
1.87	13.75	13.25	7.00	9.50	4.50	7.00	0.75	1.50	0.25	1.00	1.75	1.75	1.25	0.00	0.00	0.00	-0.263184	0.013672	0.940430	-6.020000	2.730000	0.000000	730.00	-0.24	-0.08	0.00	0.25	0.25	0.00	0.50	0.00	0.00	0.00	0.00	0.00	0.00	0.00	0.00	0.00	0.00	0.00	0.469238	0.555176	1.503418	-37.660000	61.250000	-67.199997	12.00	0.00	0.00
1.88	13.50	12.75	6.75	9.50	4.75	6.75	0.75	1.75	0.25	0.75	2.25	1.50	1.25	0.00	0.00	0.00	-0.267578	0.016113	0.937500	-6.160000	3.010000	0.000000	723.00	-0.24	-0.09	0.25	0.25	0.00	0.25	0.50	0.25	0.00	0.00	0.00	0.00	0.00	0.00	0.00	0.00	0.00	0.00	0.599121	0.557617	1.403320	-22.190001	34.790001	-54.529999	17.00	0.00	0.00
1.89	13.00	13.00	7.00	9.25	5.00	6.75	0.75	2.00	0.25	0.75	2.25	2.00	1.50	0.00	0.00	0.25	-0.268066	0.009277	0.941895	-6.160000	3.080000	0.070000	737.00	-0.23	-0.09	0.50	0.50	0.25	0.25	0.50	0.00	0.00	0.00	0.00	0.00	0.00	0.00	0.00	0.00	0.00	0.00	0.637695	0.489746	1.184570	-5.460000	11.130000	-42.560001	23.00	0.00	0.00
1.90	12.75	12.50	7.00	9.25	5.00	6.75	0.75	2.00	0.50	0.75	2.25	2.00	2.00	0.00	0.00	0.00	-0.265625	0.013184	0.940918	-6.090000	3.080000	0.070000	736.00	-0.23	-0.09	0.00	0.50	0.25	0.25	0.75	0.00	0.00	0.00	0.00	0.00	0.00	0.00	0.00	0.00	0.00	0.00	0.628906	0.359375	0.895020	8.750000	-11.970000	-23.170000	20.00	0.00	0.00
1.91	12.50	12.50	7.25	10.50	5.75	7.75	0.75	2.25	0.25	1.00	2.50	2.00	2.00	0.25	0.00	0.25	-0.269043	0.011719	0.935547	-6.020000	3.010000	0.140000	782.00	-0.22	-0.10	0.50	0.25	0.00	0.00	0.50	0.00	0.00	0.00	0.00	0.00	0.00	0.00	0.00	0.00	0.00	0.00	0.625977	0.354492	0.884766	8.330000	-18.900000	-12.740000	14.00	0.00	0.00
1.92	12.25	12.50	6.75	9.25	5.00	7.25	0.75	2.25	0.25	1.00	2.50	2.00	2.50	0.25	0.00	0.00	-0.266113	0.007812	0.939453	-6.090000	3.150000	0.000000	746.00	-0.22	-0.10	0.00	0.25	0.00	0.00	0.50	0.00	0.00	0.00	0.00	0.00	0.00	0.00	0.00	0.00	0.00	0.00	0.609375	0.358398	0.908203	8.050000	-26.389999	-1.610000	9.00	0.00	0.00
1.93	12.25	12.50	7.25	9.25	5.25	7.00	1.00	2.50	1.00	1.25	2.25	2.00	2.25	0.50	0.00	0.25	-0.268066	0.009766	0.935059	-6.230000	3.080000	0.000000	773.00	-0.21	-0.09	0.25	0.00	0.25	0.25	0.50	0.00	0.00	0.00	0.00	0.00	0.00	0.00	0.00	0.00	0.00	0.00	0.583008	0.333008	0.916504	10.080000	-34.650002	9.800000	15.00	0.00	0.00
1.94	12.25	12.75	8.00	10.25	6.00	7.75	1.00	3.50	1.25	1.25	2.75	2.75	3.50	0.25	0.00	0.75	-0.257324	0.006348	0.945801	-6.370000	2.800000	-0.070000	862.00	-0.19	-0.10	0.00	0.50	0.00	0.00	0.50	0.00	0.00	0.00	0.00	0.00	0.00	0.00	0.00	0.00	0.00	0.00	0.523926	0.294434	0.920410	12.530000	-41.580002	20.790001	11.00	0.00	0.00
1.95	14.75	13.25	8.50	11.00	6.75	8.75	1.25	4.00	2.00	2.25	4.00	3.50	5.00	1.50	0.75	1.25	-0.271484	0.007324	0.945312	-6.510000	2.660000	-0.140000	1026.00	-0.16	-0.10	0.00	0.25	0.25	0.25	0.50	0.00	0.00	0.00	0.00	0.00	0.00	0.00	0.00	0.00	0.00	0.00	0.475586	0.240723	0.902832	13.160000	-46.759998	30.730000	15.00	0.00	0.00
1.96	17.75	15.25	9.00	11.00	6.75	8.75	1.25	4.00	2.00	1.50	3.75	3.75	5.25	1.75	0.75	1.00	-0.268066	0.003906	0.940430	-6.370000	2.800000	0.000000	1081.00	-0.17	-0.09	0.00	0.25	0.25	0.00	0.50	0.00	0.00	0.00	0.00	0.00	0.00	0.00	0.00	0.00	0.00	0.00	0.402344	0.194336	0.909180	10.640000	-50.470001	39.759998	12.00	0.00	0.00
1.97	13.25	13.25	8.00	11.00	6.75	8.75	1.50	4.75	2.25	2.25	4.00	4.00	5.25	2.00	0.75	1.25	-0.270020	0.010254	0.944824	-6.090000	2.660000	0.140000	1036.00	-0.14	-0.10	0.00	0.50	0.00	0.25	0.50	0.00	0.00	0.00	0.00	0.00	0.00	0.00	0.00	0.00	0.00	0.00	0.327148	0.169434	0.956543	6.160000	-52.990002	47.880001	14.00	0.00	0.00
1.98	17.75	15.50	9.00	11.00	7.00	8.75	1.50	4.75	2.50	2.25	4.00	4.00	5.25	2.00	0.75	1.50	-0.261230	0.004395	0.940918	-6.020000	2.800000	0.070000	1129.00	-0.16	-0.09	0.00	0.25	0.00	0.00	0.50	0.00	0.00	0.00	0.00	0.00	0.00	0.00	0.00	0.00	0.00	0.00	0.273438	0.155273	1.061523	2.380000	-56.700001	55.369999	9.00	0.00	0.00
1.99	17.25	15.25	9.00	11.00	7.25	8.75	1.50	4.50	2.75	2.75	4.50	4.25	5.50	2.00	1.00	1.25	-0.262695	0.006348	0.941895	-5.740000	2.800000	0.140000	1142.00	-0.15	-0.09	0.00	0.25	0.25	0.00	0.25	0.00	0.00	0.00	0.00	0.00	0.00	0.00	0.00	0.00	0.00	0.00	0.211914	0.179199	1.244629	1.540000	-64.750000	62.650002	9.00	0.00	0.00
2.00	17.75	15.00	9.00	11.00	7.25	8.75	1.50	5.00	3.00	2.50	4.25	4.25	5.50	2.00	1.00	1.25	-0.259277	0.001953	0.943359	-5.740000	2.800000	0.140000	1151.00	-0.15	-0.09	0.25	0.00	0.25	0.00	0.50	0.00	0.00	0.00	0.00	0.00	0.00	0.00	0.00	0.00	0.00	0.00	0.168457	0.160156	1.394531	4.200000	-77.840004	70.209999	12.00	0.00	0.00
2.01	17.50	15.00	9.25	10.75	7.50	9.00	1.75	4.75	3.00	2.50	5.25	4.25	5.50	2.25	1.00	1.25	-0.266602	0.005859	0.944824	-5.740000	2.870000	0.140000	1168.00	-0.15	-0.09	0.00	0.00	0.00	0.00	0.25	0.00	0.00	0.00	0.00	0.00	0.00	0.00	0.00	0.00	0.00	0.00	0.102539	0.131836	1.437012	7.000000	-94.709999	77.000000	3.00	0.00	0.00
2.02	17.50	15.00	9.25	10.75	7.75	9.00	1.75	4.75	3.00	2.50	5.00	4.50	5.75	2.25	1.25	1.25	-0.264648	0.006836	0.940918	-6.160000	2.730000	0.070000	1176.00	-0.14	-0.09	0.25	0.25	0.00	0.00	0.50	0.00	0.00	0.00	0.00	0.00	0.00	0.00	0.00	0.00	0.00	0.00	-0.046387	0.020020	1.327148	4.200000	-123.059998	85.260002	11.00	0.00	0.00
2.03	17.25	14.50	9.25	10.50	7.75	8.75	2.00	4.75	3.50	2.75	5.00	4.50	5.75	2.50	1.00	1.50	-0.258301	0.002441	0.943848	-6.440000	3.010000	0.000000	1177.00	-0.14	-0.08	0.00	0.50	0.50	0.00	0.50	0.25	0.00	0.00	0.00	0.00	0.00	0.00	0.00	0.00	0.00	0.00	-0.124023	-0.011719	1.218262	-0.420000	-129.430008	86.309998	20.00	0.00	0.00
2.04	17.00	14.50	9.50	10.50	8.00	8.75	2.00	4.75	3.75	3.00	5.50	4.75	5.50	2.50	1.00	1.25	-0.259766	0.003418	0.945801	-6.510000	2.940000	-0.140000	1192.00	-0.13	-0.08	0.00	0.25	0.00	0.00	0.50	0.00	0.00	0.00	0.00	0.00	0.00	0.00	0.00	0.00	0.00	0.00	-0.191406	-0.019531	1.177246	-5.320000	-131.320007	85.889999	9.00	0.00	0.00
2.05	16.75	14.25	9.25	10.50	8.00	9.00	2.25	5.00	3.25	2.75	6.00	4.50	5.50	2.75	1.00	1.50	-0.268066	0.003418	0.944336	-6.440000	2.940000	-0.140000	1191.00	-0.13	-0.08	0.00	0.50	0.25	0.00	0.25	0.00	0.00	0.00	0.00	0.00	0.00	0.00	0.00	0.00	0.00	0.00	-0.259277	-0.029785	1.153809	-9.240000	-129.779999	84.840004	11.00	0.00	0.00
2.06	16.25	14.00	9.50	10.25	8.00	8.75	2.25	4.75	4.00	3.00	6.00	4.75	5.75	3.00	1.00	1.50	-0.263184	0.000488	0.942383	-6.510000	3.080000	-0.140000	1197.00	-0.12	-0.08	0.00	0.25	0.25	0.00	0.25	0.00	0.00	0.00	0.00	0.00	0.00	0.00	0.00	0.00	0.00	0.00	-0.312988	-0.033203	1.168945	-12.950000	-126.559998	82.529999	9.00	0.00	0.00
2.07	16.00	13.75	9.50	10.25	8.25	8.75	2.50	5.00	4.75	3.00	6.00	5.00	5.75	3.25	1.25	1.75	-0.266113	0.000488	0.944336	-6.580000	3.360000	-0.140000	1223.00	-0.11	-0.08	0.00	0.25	0.00	0.00	0.25	0.00	0.00	0.00	0.00	0.00	0.00	0.00	0.00	0.00	0.00	0.00	-0.350586	-0.034180	1.179688	-16.030001	-123.270004	79.870003	6.00	0.00	0.00
2.08	15.75	13.50	9.50	10.25	8.50	8.75	2.75	5.00	4.75	3.50	6.25	5.00	5.75	3.00	1.25	1.50	-0.255859	0.000977	0.942871	-6.020000	3.500000	0.070000	1230.00	-0.11	-0.08	0.00	0.25	0.00	0.00	0.25	0.00	0.00	0.00	0.00	0.00	0.00	0.00	0.00	0.00	0.00	0.00	-0.380859	-0.044434	1.183105	-19.530001	-120.750000	76.440002	6.00	0.00	0.00
2.09	15.50	13.25	9.50	10.00	8.50	8.75	2.75	5.00	5.00	3.00	7.00	5.25	6.00	3.00	1.25	1.50	-0.264648	0.000000	0.940918	-5.320000	3.360000	0.350000	1233.00	-0.11	-0.08	0.00	0.50	0.00	0.00	0.50	0.00	0.00	0.00	0.00	0.00	0.00	0.00	0.00	0.00	0.00	0.00	-0.405273	-0.060547	1.176270	-22.680000	-118.020004	72.029999	11.00	0.00	0.00
2.10	15.00	13.00	9.50	10.00	8.50	8.75	3.25	5.00	5.00	3.50	7.00	5.50	6.00	3.50	1.50	1.50	-0.259766	-0.001465	0.937988	-5.040000	3.360000	0.490000	1249.00	-0.10	-0.07	0.00	0.25	0.00	0.00	0.25	0.00	0.00	0.00	0.00	0.00	0.00	0.00	0.00	0.00	0.00	0.00	-0.425781	-0.078125	1.159668	-25.059999	-115.360001	66.779999	6.00	0.00	0.00
2.11	14.50	12.50	9.25	10.00	8.50	8.75	3.25	5.25	5.25	3.50	7.50	6.00	6.25	3.75	1.25	1.75	-0.261230	-0.007812	0.939941	-4.900000	3.500000	0.490000	1258.00	-0.09	-0.08	0.00	0.25	0.00	0.00	0.25	0.00	0.00	0.00	0.00	0.00	0.00	0.00	0.00	0.00	0.00	0.00	-0.447266	-0.080566	1.181152	-26.110001	-112.070000	60.549999	6.00	0.00	0.00
2.12	14.00	12.25	9.25	9.75	8.50	8.75	3.50	5.50	5.50	4.00	7.50	6.25	6.25	3.75	1.25	1.75	-0.265137	-0.001465	0.942383	-4.830000	3.780000	0.490000	1267.00	-0.08	-0.08	0.00	0.00	0.00	0.00	0.25	0.00	0.00	0.00	0.00	0.00	0.00	0.00	0.00	0.00	0.00	0.00	-0.477539	-0.050781	1.263184	-22.469999	-110.879997	54.950001	3.00	0.00	0.00
2.13	13.75	11.75	9.25	9.75	8.75	8.75	3.75	5.50	5.50	4.00	7.75	6.75	6.50	4.00	1.50	2.00	-0.256348	-0.004395	0.943359	-4.970000	3.920000	0.490000	1284.00	-0.08	-0.08	0.00	0.25	0.00	0.00	0.25	0.00	0.00	0.00	0.00	0.00	0.00	0.00	0.00	0.00	0.00	0.00	-0.509766	-0.022949	1.334961	-14.280000	-113.330002	50.330002	6.00	0.00	0.00
2.14	13.00	11.25	9.00	9.50	8.75	9.00	4.00	5.75	6.25	4.50	7.75	6.75	6.75	4.50	1.50	2.00	-0.254395	-0.008301	0.933594	-4.970000	3.850000	0.490000	1299.00	-0.06	-0.07	0.00	0.00	0.00	0.00	0.25	0.00	0.00	0.00	0.00	0.00	0.00	0.00	0.00	0.00	0.00	0.00	-0.609375	-0.039062	1.327148	11.340000	-126.279999	43.330002	3.00	0.00	0.00
2.15	12.50	11.00	9.00	9.25	8.75	9.00	4.25	5.75	6.25	4.75	8.25	7.25	7.25	4.75	1.75	2.00	-0.264648	-0.000977	0.946289	-4.830000	4.130000	0.420000	1317.00	-0.06	-0.07	0.00	0.00	0.00	0.00	0.00	0.25	0.00	0.00	0.00	0.00	0.00	0.00	0.00	0.00	0.00	0.00	-0.681152	-0.110840	1.256836	20.719999	-131.949997	40.040001	3.00	0.00	0.00
2.16	12.00	10.50	8.75	9.25	8.75	9.00	4.50	6.25	6.75	5.00	8.50	7.50	7.50	5.00	1.75	2.25	-0.254395	-0.000977	0.942871	-4.620000	4.550000	0.490000	1337.00	-0.05	-0.08	0.00	0.00	0.00	0.00	0.25	0.00	0.00	0.00	0.00	0.00	0.00	0.00	0.00	0.00	0.00	0.00	-0.736816	-0.173340	1.110352	21.280001	-133.839996	36.330002	3.00	0.00	0.00
2.17	10.75	9.75	8.75	9.00	8.75	9.25	4.75	6.25	7.25	5.25	8.75	7.75	7.75	5.00	1.75	2.75	-0.241211	-0.012695	0.938965	-4.130000	4.830000	0.700000	1341.00	-0.03	-0.08	0.00	0.00	0.00	0.00	0.25	0.00	0.00	0.00	0.00	0.00	0.00	0.00	0.00	0.00	0.00	0.00	-0.715332	-0.183105	0.908203	12.460000	-130.550003	31.850000	3.00	0.00	0.00
2.18	10.00	9.25	8.50	8.75	8.75	9.25	5.00	6.50	7.75	6.00	9.00	8.00	8.25	5.25	2.00	2.75	-0.268555	-0.002930	0.943359	-3.640000	5.460000	0.700000	1361.00	-0.02	-0.08	0.00	0.00	0.00	0.00	0.25	0.00	0.00	0.00	0.00	0.00	0.00	0.00	0.00	0.00	0.00	0.00	-0.801270	-0.143555	0.790039	-3.500000	-124.739998	25.690001	3.00	0.00	0.00
2.19	9.25	8.75	8.25	8.50	8.50	9.25	5.00	7.00	8.00	6.25	9.25	8.25	8.25	5.50	2.25	3.00	-0.266602	0.004395	0.939453	-3.010000	6.160000	0.770000	1365.00	-0.01	-0.08	0.00	0.00	0.00	0.00	0.25	0.00	0.00	0.00	0.00	0.00	0.00	0.00	0.00	0.00	0.00	0.00	-0.834961	-0.041504	0.699707	-19.320000	-114.169998	18.059999	3.00	0.00	0.00
2.20	8.50	8.25	8.00	8.25	8.50	9.25	5.25	7.25	8.25	7.00	9.50	8.50	9.00	5.75	2.25	3.25	-0.274414	-0.005371	0.939941	-2.450000	7.070000	0.840000	1383.00	-0.00	-0.08	0.00	0.25	0.00	0.00	0.25	0.00	0.00	0.00	0.00	0.00	0.00	0.00	0.00	0.00	0.00	0.00	-0.857422	0.054688	0.639160	-23.870001	-100.730003	10.850000	6.00	0.00	0.00
2.21	7.75	7.25	7.50	8.00	8.25	9.00	5.25	7.50	8.50	7.50	10.00	8.75	9.25	6.00	2.50	3.50	-0.263184	-0.004395	0.939453	-2.100000	8.190000	0.980000	1380.00	0.01	-0.08	0.00	0.00	0.00	0.00	0.50	0.00	0.00	0.00	0.00	0.00	0.00	0.00	0.00	0.00	0.00	0.00	-0.867676	0.118652	0.623047	-15.470000	-89.459999	4.200000	6.00	0.00	0.00
2.22	6.75	6.75	6.75	7.75	8.00	9.00	5.50	7.50	8.75	7.75	10.50	9.00	9.75	6.25	2.75	3.75	-0.264160	-0.003906	0.948242	-1.610000	9.800000	1.050000	1379.00	0.02	-0.08	0.00	0.00	0.00	0.25	0.25	0.00	0.00	0.00	0.00	0.00	0.00	0.00	0.00	0.00	0.00	0.00	-0.894531	0.132812	0.583496	1.190000	-79.940002	-2.800000	6.00	0.00	0.00
2.23	6.00	6.00	6.25	7.25	7.75	9.00	5.50	7.75	9.25	8.00	10.50	9.25	10.00	6.25	3.00	4.25	-0.267090	-0.008301	0.943359	-1.120000	11.270000	1.120000	1373.00	0.04	-0.08	0.00	0.25	0.00	0.00	0.25	0.00	0.00	0.00	0.00	0.00	0.00	0.00	0.00	0.00	0.00	0.00	-0.915527	0.089355	0.523438	19.879999	-70.209999	-9.940000	6.00	0.00	0.00
2.24	5.75	5.75	5.50	6.50	7.25	8.75	5.75	7.75	9.50	8.25	11.25	9.75	10.25	6.75	3.00	4.50	-0.277344	-0.002930	0.943848	-0.490000	12.880000	1.260000	1374.00	0.05	-0.08	0.00	0.00	0.00	0.00	0.50	0.00	0.00	0.00	0.00	0.00	0.00	0.00	0.00	0.00	0.00	0.00	-0.943359	0.033203	0.441406	33.459999	-59.360001	-17.219999	6.00	0.00	0.00
2.25	5.25	5.25	5.00	6.00	6.50	8.50	5.75	7.75	9.75	8.50	11.50	10.00	10.50	7.00	3.25	5.00	-0.270996	-0.006836	0.940430	0.140000	14.770000	1.330000	1362.00	0.06	-0.08	0.00	0.25	0.25	0.00	0.25	0.25	0.00	0.00	0.00	0.00	0.00	0.00	0.00	0.00	0.00	0.00	-0.961914	-0.003906	0.378418	38.849998	-46.200001	-24.219999	12.00	0.00	0.00
2.26	4.50	4.75	3.75	5.25	5.75	8.25	6.00	7.75	10.00	8.75	11.75	10.25	10.75	7.25	3.50	5.25	-0.212891	-0.016113	0.986816	0.350000	15.750000	1.540000	1338.00	0.07	-0.09	0.00	0.25	0.00	0.00	0.25	0.00	0.00	0.00	0.00	0.00	0.00	0.00	0.00	0.00	0.00	0.00	-0.965820	0.019531	0.470703	35.910000	-20.160000	-34.090000	6.00	0.00	0.00
2.27	3.50	4.75	3.00	5.00	5.00	7.75	6.00	7.75	10.25	9.00	12.25	10.50	11.25	7.50	3.50	5.25	-0.306641	-0.027344	0.928223	0.420000	18.340000	1.400000	1321.00	0.09	-0.09	0.00	0.00	0.00	0.00	0.25	0.25	0.00	0.00	0.00	0.00	0.00	0.00	0.00	0.00	0.00	0.00	-1.278320	0.202637	0.344238	32.549999	-10.220000	-36.189999	6.00	0.00	0.00
2.28	2.75	4.00	1.75	3.75	4.00	7.50	6.00	7.75	10.75	9.25	12.50	10.75	11.25	7.75	3.50	5.50	-0.015137	0.112793	0.913086	0.210000	21.000000	1.050000	1280.00	0.11	-0.09	0.25	0.00	0.00	0.00	0.25	0.00	0.00	0.00	0.00	0.00	0.00	0.00	0.00	0.00	0.00	0.00	-1.002930	-0.135254	-0.328125	40.250000	31.080000	-26.670000	6.00	0.00	0.00
2.29	2.25	3.25	1.75	3.75	3.25	6.50	6.25	7.50	11.00	9.50	12.75	10.50	11.25	7.50	2.50	5.00	-0.316406	0.001465	0.941406	-0.070000	23.100000	0.700000	1235.00	0.11	-0.08	0.25	0.50	0.00	0.00	0.25	0.00	0.00	0.00	0.00	0.00	0.00	0.00	0.00	0.00	0.00	0.00	-1.345215	0.190430	0.041504	13.580000	61.810001	-14.910000	11.00	0.00	0.00
2.30	0.00	0.75	0.00	0.25	1.75	4.75	6.00	7.25	10.00	9.00	12.00	10.25	10.50	7.25	4.00	5.75	-0.323242	0.006836	0.930664	-0.630000	25.410000	0.560000	1055.00	0.17	-0.09	0.25	0.25	0.25	0.00	0.25	0.00	0.00	0.00	0.00	0.00	0.00	0.00	0.00	0.00	0.00	0.00	-1.018555	0.094238	0.162598	-1.680000	100.940002	-1.890000	11.00	0.00	0.00
2.31	1.00	2.00	0.50	0.00	1.25	3.00	6.25	6.25	10.75	9.50	12.50	10.75	10.75	7.50	3.25	5.75	-0.287109	-0.016602	0.943848	-3.010000	33.599998	-0.490000	1067.00	0.17	-0.07	1.00	0.75	0.25	0.00	0.25	0.00	0.00	0.00	0.00	0.00	0.00	0.00	0.00	0.00	0.00	0.00	0.187988	0.237793	1.028809	4.270000	130.690002	7.560000	25.00	0.00	0.00
2.32	1.00	2.00	0.75	1.50	1.50	3.50	6.00	5.25	10.50	9.75	12.75	10.75	10.75	7.75	3.75	6.00	-0.290039	0.001465	0.945312	-2.170000	40.740002	-1.540000	1087.00	0.16	-0.07	1.25	1.00	0.25	0.00	0.25	0.00	0.00	0.00	0.00	0.00	0.00	0.00	0.00	0.00	0.00	0.00	0.086426	0.335938	1.571777	23.170000	115.220001	17.290001	30.00	0.00	0.00
2.33	1.25	1.50	0.50	1.50	1.00	3.00	6.25	5.75	12.00	10.25	13.25	11.25	10.50	7.75	3.75	5.75	-0.323242	0.001953	0.936035	-1.820000	47.880001	-0.980000	1118.00	0.17	-0.07	2.00	1.50	0.25	0.25	0.50	0.25	0.00	0.25	0.00	0.00	0.00	0.00	0.00	0.00	0.00	0.00	0.105469	0.176758	1.103516	30.240000	92.610001	22.330000	57.00	-0.32	-0.04
2.34	1.25	2.00	0.25	1.00	1.25	3.00	6.50	5.50	12.50	10.50	13.50	11.50	11.50	8.50	5.00	6.00	-0.330078	0.004395	0.938965	-1.050000	56.349998	-1.050000	1164.00	0.18	-0.06	2.50	2.25	0.50	0.25	0.25	0.00	0.00	0.00	0.00	0.00	0.00	0.00	0.00	0.00	0.00	0.00	-0.052246	0.034180	0.558105	24.360001	91.000000	19.040001	63.00	-0.38	-0.01
2.35	1.25	2.00	0.50	1.25	0.50	2.50	6.25	5.25	12.75	10.50	13.75	11.50	11.50	8.50	4.75	6.00	-0.346191	-0.014648	0.929199	-0.210000	66.430000	-0.840000	1151.00	0.18	-0.06	3.50	2.50	0.50	0.25	0.50	0.00	0.00	0.00	0.00	0.00	0.00	0.00	0.00	0.00	0.00	0.00	-0.019043	0.010742	0.566406	9.100000	108.709999	10.640000	80.00	-0.37	0.00
2.36	0.75	1.25	0.25	1.00	1.00	2.00	6.25	4.75	13.00	10.75	13.75	11.50	11.25	8.50	5.25	6.25	-0.323242	-0.009766	0.921387	-0.000000	78.750000	-0.420000	1135.00	0.19	-0.06	4.25	3.50	0.75	0.50	0.25	0.00	0.00	0.00	0.00	0.00	0.00	0.00	0.00	0.00	0.00	0.00	-0.075684	0.133301	0.885254	-3.710000	123.620003	3.850000	101.00	-0.38	-0.01
2.37	0.50	1.75	0.25	0.75	0.75	1.50	6.25	4.00	13.25	10.75	13.75	11.25	10.75	8.50	5.00	6.25	-0.347168	-0.006836	0.898438	0.140000	93.730003	0.140000	1105.00	0.20	-0.05	5.00	4.25	0.75	1.00	0.25	0.00	0.00	0.00	0.00	0.00	0.00	0.00	0.00	0.00	0.00	0.00	-0.156250	0.133789	1.013184	-11.340000	127.400002	0.770000	124.00	-0.38	-0.02
2.38	0.25	1.00	0.25	0.25	0.75	0.75	6.25	3.25	13.25	10.75	13.50	11.25	10.50	8.75	5.25	6.00	-0.366699	-0.011719	0.910156	-0.420000	110.879997	0.770000	1066.00	0.21	-0.04	5.50	5.00	0.75	1.25	0.25	0.00	0.00	0.00	0.00	0.00	0.00	0.00	0.00	0.00	0.00	0.00	-0.281738	-0.000977	1.112793	-40.670002	130.759995	-15.400000	140.00	-0.38	-0.03
2.39	0.25	1.25	0.00	1.00	0.75	1.00	6.00	2.75	13.50	11.00	13.50	11.00	10.25	9.00	5.50	6.25	-0.387695	0.000000	0.951172	-2.380000	129.220001	1.820000	1073.00	0.21	-0.04	5.75	6.25	0.75	1.75	0.25	0.00	0.00	0.00	0.00	0.00	0.00	0.00	0.00	0.00	0.00	0.00	-0.405273	0.125977	1.291992	-45.920002	132.300003	-19.670000	161.00	-0.38	-0.04
2.40	0.75	1.25	0.25	0.50	0.75	1.00	6.00	2.25	13.50	11.00	13.50	10.75	9.50	9.00	5.50	6.25	-0.396484	-0.004883	0.999023	-5.950000	148.680008	1.330000	1057.00	0.21	-0.03	8.50	8.50	1.50	2.50	0.50	0.00	0.00	0.00	0.00	0.00	0.00	0.00	0.00	0.00	0.00	0.00	-0.466797	0.230957	1.774414	-0.630000	156.800003	-7.070000	236.00	-0.38	-0.04
2.41	0.75	0.75	0.00	0.25	1.00	0.25	5.75	0.75	13.75	11.00	13.25	10.75	9.00	9.25	5.75	6.25	-0.449707	-0.012695	0.981445	-13.160000	172.899994	0.210000	1012.00	0.23	-0.02	11.50	10.25	2.00	3.50	0.75	0.00	0.00	0.00	0.00	0.00	0.00	0.00	0.00	0.00	0.00	0.00	-0.471680	-0.136719	2.098633	13.440001	145.320007	-5.670000	309.00	-0.37	-0.03
2.42	0.50	1.00	0.00	0.50	0.75	0.50	5.75	1.25	13.50	11.00	13.00	10.25	8.75	9.25	5.75	6.00	-0.465332	0.008301	0.993652	-18.340000	189.419998	-1.120000	1007.00	0.22	-0.02	13.25	12.50	2.25	4.00	1.00	0.00	0.00	0.00	0.00	0.00	0.00	0.00	0.00	0.00	0.00	0.00	-0.371094	0.137695	1.661133	5.460000	107.590004	-12.880000	363.00	-0.37	-0.03
2.43	0.25	1.00	0.00	0.25	0.75	0.50	5.50	0.75	13.25	10.75	12.75	10.00	8.25	9.25	5.75	6.25	-0.493652	0.002930	0.940918	-21.000000	200.339996	-2.520000	974.00	0.23	-0.02	14.50	13.25	3.00	5.00	0.75	0.25	0.00	0.00	0.00	0.00	0.00	0.00	0.00	0.00	0.00	0.00	-0.264160	0.264648	1.218750	-2.660000	78.540001	-11.340000	406.00	-0.37	-0.04
2.44	0.50	1.00	0.00	0.50	0.75	0.75	5.50	0.50	13.25	10.75	12.50	9.75	7.75	9.25	6.25	6.25	-0.547852	-0.021973	0.967285	-24.710001	209.720001	-3.780000	974.00	0.23	-0.01	15.50	13.50	3.00	5.25	1.25	0.50	0.00	0.00	0.00	0.00	0.00	0.00	0.00	0.00	0.00	0.00	-0.221191	0.244141	0.992676	-14.210000	67.970001	-5.180000	432.00	-0.37	-0.03
2.45	0.50	0.50	0.00	0.25	0.75	0.00	5.25	0.75	13.00	10.50	12.25	9.25	6.75	9.25	6.25	6.25	-0.598633	-0.040039	0.901367	-27.299999	215.320007	-4.830000	932.00	0.24	-0.01	16.00	13.75	3.25	5.00	1.00	0.25	0.00	0.00	0.00	0.00	0.00	0.00	0.00	0.00	0.00	0.00	-0.242188	0.163574	1.305176	-31.990000	51.029999	-0.840000	434.00	-0.37	-0.03
2.46	0.25	1.00	0.00	0.25	0.50	0.00	5.00	0.25	12.50	10.25	11.75	9.00	6.50	9.50	6.25	6.50	-0.645508	-0.018066	0.989258	-26.320000	220.919998	-6.440000	902.00	0.24	-0.00	16.50	14.25	3.50	5.25	1.50	0.50	0.00	0.00	0.00	0.00	0.00	0.00	0.00	0.00	0.00	0.00	-0.254883	0.004395	1.060547	-31.639999	31.219999	-0.840000	460.00	-0.36	-0.03
2.47	0.50	0.50	0.00	0.50	0.25	0.00	5.00	0.50	12.00	10.00	11.25	8.50	6.00	9.50	6.50	6.75	-0.711914	-0.025391	0.962402	-23.030001	223.369995	-6.440000	882.00	0.24	-0.00	17.25	14.50	4.00	5.50	1.50	0.50	0.00	0.00	0.00	0.00	0.00	0.00	0.00	0.00	0.00	0.00	-0.190918	0.088379	0.861816	-28.770000	29.680000	-3.850000	480.00	-0.36	-0.03
2.48	0.50	1.00	0.00	0.25	0.75	0.00	4.50	0.00	11.25	9.50	10.75	8.25	5.50	9.25	6.75	6.75	-0.788574	-0.076172	1.087402	-20.370001	228.059998	-6.650000	844.00	0.24	-0.00	17.50	15.00	4.50	6.00	1.75	1.00	0.00	0.00	0.00	0.00	0.00	0.00	0.00	0.00	0.00	0.00	-0.213867	0.115723	0.943848	-28.210001	31.990000	-3.640000	509.00	-0.36	-0.03
2.49	0.25	1.00	0.00	0.00	0.50	0.00	4.25	0.00	10.50	9.00	10.25	7.75	5.00	9.25	6.75	6.75	-0.923340	-0.013184	1.278809	-18.690001	235.759995	-6.300000	799.00	0.25	-0.00	18.50	15.50	5.00	6.25	2.00	0.75	0.25	0.25	0.00	0.00	0.00	0.00	0.00	0.00	0.25	0.00	-0.233887	0.074219	0.993164	-26.110001	30.030001	-3.080000	545.00	-0.35	-0.03
2.50	0.00	0.25	0.00	0.50	0.25	0.00	3.75	0.50	9.25	8.50	9.50	7.50	4.75	9.25	6.75	6.50	-1.159668	0.068359	1.371582	-14.420000	247.169998	-5.530000	753.00	0.25	-0.01	19.25	16.00	5.25	7.00	2.25	1.25	0.25	0.00	0.00	0.00	0.00	0.00	0.00	0.00	0.25	0.00	-0.248047	0.083496	1.006836	-19.110001	22.960001	-3.430000	576.00	-0.35	-0.03
2.51	0.25	0.50	0.00	0.25	0.50	0.00	3.25	0.00	8.75	8.00	9.00	6.75	3.75	9.25	6.75	6.50	-1.091309	0.000488	1.402344	-5.110000	261.029999	-2.730000	705.00	0.26	-0.00	20.50	16.75	5.50	7.50	2.50	1.00	0.50	0.25	0.25	0.00	0.00	0.00	0.00	0.00	0.00	0.00	-0.243164	0.084961	0.975098	-17.290001	20.370001	-3.360000	616.00	-0.34	-0.03
2.52	0.25	0.25	0.00	0.50	0.50	0.00	2.75	0.00	8.25	7.50	8.25	6.25	3.00	9.25	6.75	6.25	-1.078613	0.022461	1.445801	2.870000	274.190002	-2.450000	661.00	0.26	-0.00	20.50	17.50	6.25	8.00	2.75	1.50	0.25	0.25	0.50	0.50	0.25	0.00	0.00	0.50	0.25	0.00	-0.235352	0.085449	0.961914	-17.990000	18.760000	-3.290000	663.00	-0.32	-0.03
2.53	0.75	0.75	0.25	0.50	0.25	0.25	2.00	0.00	7.50	6.50	7.75	5.75	2.75	8.75	6.25	6.00	-1.056152	-0.046387	1.242676	5.040000	280.279999	-5.880000	615.00	0.25	-0.01	22.25	18.25	7.00	8.75	3.00	1.50	0.50	0.25	0.50	0.50	0.25	0.00	0.00	0.50	0.50	0.00	-0.242676	0.078613	0.979492	-18.900000	16.590000	-3.080000	718.00	-0.32	-0.03
2.54	0.00	0.50	0.00	0.50	0.25	0.25	1.75	0.00	6.75	6.00	7.50	5.00	2.25	8.25	6.00	5.75	-1.143066	0.020020	1.280273	4.550000	291.899994	-10.570000	555.00	0.26	-0.01	22.75	19.25	7.50	9.00	3.50	1.75	0.25	0.25	0.25	0.75	0.75	0.00	0.00	0.75	0.50	0.00	-0.248047	0.072266	0.968750	-20.160000	14.420000	-3.010000	755.00	-0.32	-0.03
2.55	0.25	1.00	0.00	0.25	0.25	0.00	1.50	0.00	6.25	5.50	6.75	4.75	1.50	7.50	5.75	5.50	-1.288574	0.002441	1.247559	1.260000	297.989990	-16.660000	510.00	0.26	-0.00	23.50	19.75	8.25	9.50	4.25	2.25	0.50	0.50	0.75	0.50	0.50	0.25	0.00	0.75	0.50	0.00	-0.247070	0.075684	0.985840	-20.650000	11.900000	-2.940000	811.00	-0.31	-0.03
2.56	0.25	0.25	0.00	1.50	0.50	0.00	1.00	0.00	5.50	5.50	6.00	4.00	1.00	7.00	5.25	5.00	-1.375488	0.204102	1.721191	-8.890000	294.980011	-26.600000	466.00	0.25	-0.01	24.50	20.50	9.00	9.75	5.25	2.25	0.75	0.50	1.25	0.50	0.50	0.25	0.00	1.25	0.50	0.00	-0.257324	0.070801	0.980957	-20.230000	9.100000	-2.590000	870.00	-0.29	-0.02
2.57	0.25	0.75	0.00	0.25	0.25	0.50	0.75	0.00	5.25	4.75	5.50	4.00	1.00	6.25	4.50	4.00	-1.456543	0.270020	1.561035	-2.170000	289.589996	-29.260000	416.00	0.25	-0.01	25.25	21.00	9.25	10.25	5.50	2.50	0.75	0.75	1.25	0.75	0.50	0.25	0.00	1.25	0.75	0.00	-0.251953	0.066406	0.972656	-19.180000	6.790000	-2.380000	909.00	-0.29	-0.02
2.58	0.25	0.50	0.25	0.50	0.25	0.25	0.75	0.00	5.00	4.50	5.25	3.25	0.00	5.25	3.75	2.75	-1.205078	0.297363	1.297852	12.180000	281.049988	-33.389999	364.00	0.25	0.02	25.25	21.25	9.75	10.75	6.00	2.75	0.75	0.50	1.75	1.00	0.75	0.25	0.25	1.50	1.00	0.00	-0.251953	0.071289	0.964355	-17.990000	4.970000	-2.310000	949.00	-0.28	-0.02
2.59	0.25	1.00	0.00	0.75	0.25	0.50	0.75	0.00	3.50	3.75	4.00	2.75	0.00	4.00	2.75	2.00	-0.870605	0.342285	1.756836	27.510000	263.829987	-40.180000	294.00	0.22	0.00	26.75	22.00	10.25	10.75	6.75	3.00	1.00	0.50	2.25	1.00	0.75	0.25	0.25	2.00	0.75	0.00	-0.250000	0.063477	0.969727	-17.360001	3.640000	-2.240000	1004.00	-0.27	-0.02
2.60	0.00	0.75	0.00	0.50	0.25	0.25	0.50	0.00	2.50	3.50	3.50	3.00	0.00	2.50	1.75	1.25	-0.702148	0.300293	1.576172	43.049999	239.960007	-48.790001	229.00	0.22	-0.02	26.75	22.00	11.00	11.25	6.75	3.00	1.00	0.75	2.25	1.00	1.00	0.25	0.25	2.00	0.75	0.00	-0.243652	0.062500	0.954102	-17.219999	2.590000	-2.310000	1026.00	-0.27	-0.02
2.61	0.50	0.50	0.00	0.75	0.25	0.50	0.50	0.25	2.00	2.75	3.50	2.25	0.25	2.00	1.25	1.00	-0.200684	0.241211	1.437012	54.599998	216.089996	-71.820000	208.00	0.18	-0.03	26.50	22.00	11.50	11.25	7.25	3.25	1.25	0.75	2.75	1.00	1.00	0.25	0.50	2.25	1.25	0.00	-0.242188	0.057129	0.956543	-16.870001	1.750000	-2.240000	1060.00	-0.26	-0.02
2.62	0.75	0.50	0.00	0.25	0.50	0.75	0.75	0.50	0.75	2.00	2.50	1.50	0.00	1.00	0.50	0.50	0.129395	0.192383	1.288086	56.279999	205.869995	-84.559998	150.00	0.12	-0.04	27.00	21.75	12.00	11.50	8.00	3.25	1.50	0.75	2.75	1.50	1.00	0.50	0.00	2.50	1.25	0.25	-0.244141	0.050293	0.950195	-15.120000	0.560000	-2.030000	1093.00	-0.25	-0.01
2.63	0.25	1.00	0.00	0.50	0.25	0.50	0.50	0.25	0.50	1.75	2.00	0.50	0.75	0.75	0.50	0.25	0.662109	0.101074	0.820801	55.790001	193.130005	-98.209999	117.00	0.10	-0.07	26.75	24.00	13.50	13.25	9.00	3.50	2.00	0.75	3.50	2.00	1.25	1.50	1.75	3.75	2.25	0.50	-0.254395	0.048828	0.955078	-14.420000	0.280000	-2.030000	1248.00	-0.22	-0.02
2.64	0.25	1.25	0.00	0.50	0.25	0.00	0.50	0.00	0.75	1.50	1.50	1.00	0.00	0.75	0.25	0.00	-0.140137	0.597168	2.257812	13.510000	184.100006	-106.050003	99.00	0.09	-0.01	30.50	21.75	12.50	12.50	9.50	3.75	2.50	1.25	5.00	2.25	2.00	1.75	1.00	4.00	2.50	1.25	-0.245605	0.056152	0.962402	-13.790000	0.490000	-2.100000	1310.00	-0.20	-0.01
2.65	1.25	1.00	0.25	0.00	0.00	0.25	0.50	0.25	0.00	1.25	1.50	1.00	0.00	0.75	0.25	0.00	0.506348	0.540527	2.373535	14.560000	92.540001	-96.879997	95.00	0.03	-0.04	34.00	26.00	15.50	12.00	9.50	3.75	3.25	1.50	4.75	2.25	1.25	1.00	2.25	4.50	2.75	0.50	-0.242676	0.048340	0.947754	-13.160000	0.560000	-1.960000	1433.00	-0.22	-0.01
2.66	1.00	1.25	0.00	0.25	0.25	0.25	0.50	0.00	0.25	1.25	1.25	1.25	0.00	0.25	0.00	0.00	0.618164	0.565918	2.217285	39.830002	-0.840000	-79.590004	90.00	0.01	-0.04	34.00	26.75	16.25	14.00	10.25	3.50	3.50	1.50	5.75	2.75	2.25	1.75	2.00	4.50	2.75	1.25	-0.248535	0.044434	0.945801	-12.390000	0.560000	-2.030000	1526.00	-0.20	-0.01
2.67	1.00	0.75	0.00	0.50	0.25	0.50	0.50	0.00	0.50	1.00	1.25	0.75	0.00	0.00	0.00	0.25	0.577148	0.452148	1.835449	52.430000	-78.470001	-62.299999	85.00	0.00	-0.03	33.75	26.25	16.00	13.75	11.00	4.50	4.00	1.50	6.25	2.50	2.00	1.75	1.50	4.75	2.50	1.00	-0.240234	0.044434	0.951172	-11.620000	0.630000	-1.820000	1536.00	-0.20	-0.00
2.68	0.50	1.50	0.00	0.50	0.50	0.00	0.50	0.25	0.25	0.50	1.25	0.25	0.00	0.25	0.25	0.25	0.514160	0.386719	1.409668	53.619999	-135.029999	-46.830002	78.00	-0.02	-0.05	33.50	25.75	16.75	12.25	10.75	4.25	4.50	1.50	6.75	2.50	2.25	1.75	2.00	5.00	2.50	1.00	-0.237793	0.043945	0.948730	-10.710000	0.700000	-1.610000	1539.00	-0.19	0.00
2.69	0.50	1.00	0.00	0.25	0.25	0.50	0.50	0.25	0.00	0.75	1.00	0.50	0.00	0.25	0.00	0.25	0.457031	0.324219	1.083008	49.490002	-167.509995	-33.110001	70.00	-0.01	-0.08	33.50	25.25	16.75	13.50	11.25	4.25	4.75	1.50	7.25	2.50	2.25	1.75	2.25	5.00	2.75	1.25	-0.237793	0.043457	0.949707	-9.800000	0.980000	-1.400000	1573.00	-0.19	-0.00
2.70	0.75	1.25	0.00	0.25	0.25	0.25	0.50	0.25	0.50	0.50	1.00	0.25	0.00	0.25	0.00	0.00	0.418457	0.291016	0.903809	45.639999	-183.820007	-20.930000	72.00	-0.03	-0.02	32.75	24.75	17.00	13.00	11.50	4.50	5.00	1.50	7.50	2.75	2.50	1.75	2.00	5.25	2.75	1.25	-0.239746	0.044434	0.950195	-9.100000	1.260000	-1.260000	1576.00	-0.18	0.00
2.71	0.25	1.25	0.00	0.25	0.25	0.00	0.50	0.00	0.00	0.50	1.00	0.25	0.00	0.25	0.00	0.00	0.377441	0.259766	0.811523	43.540001	-192.009995	-9.730000	52.00	-0.03	-0.03	32.00	24.25	17.00	12.75	11.75	4.25	5.25	1.50	7.75	2.75	2.50	2.00	2.25	5.25	3.00	1.50	-0.238770	0.041504	0.945801	-8.330000	1.540000	-1.190000	1577.00	-0.18	0.00
2.72	0.75	0.75	0.00	0.75	0.25	0.25	0.50	0.00	0.25	0.75	0.75	0.25	0.00	0.25	0.00	0.00	0.316895	0.237305	0.816406	42.910000	-198.449997	1.190000	65.00	-0.04	-0.01	31.50	23.50	17.00	12.50	12.00	3.75	5.25	1.50	8.00	3.00	2.50	2.00	2.25	5.25	3.00	1.25	-0.240723	0.041016	0.942383	-7.350000	1.750000	-1.050000	1562.00	-0.17	0.01
2.73	0.50	1.25	0.00	0.25	0.25	0.25	0.50	0.00	0.25	0.50	0.75	0.50	0.00	0.25	0.00	0.25	0.239746	0.194824	0.884766	42.560001	-207.059998	11.900000	63.00	-0.03	-0.03	30.75	22.75	17.00	12.50	12.00	4.50	5.50	1.50	8.00	2.75	2.50	2.25	2.25	5.50	3.00	1.25	-0.245117	0.039551	0.943359	-6.720000	2.170000	-0.980000	1562.00	-0.17	0.00
2.74	0.50	1.00	0.25	0.75	0.25	0.00	0.25	0.50	0.00	0.25	0.50	0.00	0.00	0.25	0.00	0.00	0.171875	0.153809	1.028320	40.880001	-219.940002	22.330000	54.00	-0.13	-0.09	29.75	21.75	16.75	12.00	12.25	4.25	5.50	1.50	8.25	3.00	2.50	2.00	2.25	5.75	3.00	1.50	-0.243164	0.037598	0.943359	-5.320000	2.240000	-0.770000	1539.00	-0.16	0.01
2.75	0.75	1.50	0.00	0.50	0.25	0.25	0.50	0.25	0.25	0.25	0.75	0.25	0.00	0.25	0.00	0.00	0.097656	0.101562	1.177246	35.770000	-237.930008	32.060001	68.00	-0.10	-0.05	29.25	21.00	17.00	11.75	12.25	3.75	5.75	1.50	8.25	3.25	2.50	2.00	2.25	5.75	3.00	1.25	-0.239258	0.040527	0.937012	-4.830000	2.310000	-0.770000	1525.00	-0.16	0.01
2.76	0.75	0.75	0.00	0.75	0.25	0.50	0.50	0.00	0.25	0.25	0.50	0.25	0.00	0.25	0.00	0.00	-0.085938	0.015137	1.250977	19.180000	-283.920013	45.990002	60.00	-0.09	-0.03	28.25	20.50	16.50	11.25	12.25	4.00	5.75	1.50	8.50	3.00	2.50	2.00	2.00	6.00	3.25	1.25	-0.240723	0.040039	0.936523	-4.690000	2.240000	-0.840000	1503.00	-0.15	0.01
2.77	0.75	1.00	0.00	0.75	0.00	0.00	0.25	0.25	0.00	0.25	0.25	0.25	0.00	0.00	0.00	0.00	-0.225586	-0.007812	1.183105	13.860000	-303.589996	49.070000	44.00	0.00	0.00	28.00	19.75	16.25	11.00	12.50	4.00	5.75	1.50	8.50	3.00	2.75	2.25	2.00	6.00	3.25	1.50	-0.241211	0.037598	0.947754	-4.550000	2.100000	-0.840000	1497.00	-0.15	0.01
2.78	0.25	0.75	0.00	0.50	0.25	0.25	0.25	0.00	0.25	0.25	0.25	0.00	0.00	0.25	0.00	0.00	-0.351562	-0.015625	1.044434	14.070000	-315.070007	49.070000	38.00	0.00	0.00	27.50	19.00	16.50	10.75	12.50	4.25	5.75	1.50	8.75	3.00	2.75	2.25	2.00	6.00	3.00	1.50	-0.240723	0.037598	0.939941	-4.410000	2.030000	-0.770000	1487.00	-0.15	0.01
2.79	0.50	1.00	0.00	0.50	0.25	0.25	0.25	0.25	0.00	0.25	0.25	0.00	0.00	0.25	0.00	0.00	-0.471680	-0.029297	0.899414	22.190001	-315.839996	46.130001	44.00	0.00	0.00	26.75	18.75	16.50	11.00	12.75	4.00	6.00	1.50	8.75	3.50	2.75	2.00	2.00	6.00	3.50	1.00	-0.238281	0.029785	0.939453	-4.130000	2.100000	-0.770000	1489.00	-0.14	0.02
2.80	0.25	0.50	0.00	1.00	0.25	0.00	0.50	0.25	0.25	0.25	0.25	0.00	0.00	0.25	0.00	0.00	-0.580078	-0.057129	0.766602	39.549999	-304.779999	40.810001	47.00	0.00	0.00	26.25	18.00	16.50	10.75	12.75	4.25	6.25	1.50	9.00	3.25	3.00	2.25	2.25	6.25	3.50	1.50	-0.237305	0.034668	0.941406	-4.060000	1.820000	-0.840000	1494.00	-0.14	0.02
2.81	0.00	1.25	0.00	0.50	0.25	0.25	0.25	0.00	0.00	0.50	0.25	0.00	0.00	0.00	0.00	0.00	-0.693359	-0.107910	0.688965	63.349998	-283.500000	35.070000	37.00	0.00	0.00	25.75	17.50	16.50	10.75	13.00	4.00	6.25	1.25	9.00	3.25	3.00	2.50	2.25	6.25	3.50	1.25	-0.236816	0.035645	0.941406	-3.710000	1.960000	-0.840000	1481.00	-0.13	0.02
2.82	0.50	1.25	0.00	0.50	0.25	0.50	0.25	0.25	0.00	0.00	0.00	0.00	0.00	0.50	0.00	0.00	-0.832031	-0.181641	0.738281	85.540001	-259.070007	30.940001	46.00	0.00	0.00	25.00	16.75	16.25	10.25	13.00	4.00	6.25	1.50	9.25	3.50	3.00	2.75	2.25	6.50	3.50	2.00	-0.242188	0.037109	0.942871	-3.780000	1.820000	-0.910000	1476.00	-0.12	0.02
2.83	0.50	0.50	0.50	0.75	0.00	0.25	0.25	0.00	0.00	0.00	0.25	0.25	0.00	0.00	0.00	0.00	-0.922363	-0.239746	0.921387	96.389999	-238.979996	31.570000	39.00	0.00	0.00	24.25	15.75	16.00	10.00	13.00	4.00	6.25	1.50	9.50	3.50	3.00	2.50	2.25	6.50	3.25	1.25	-0.241699	0.035156	0.947266	-3.850000	1.680000	-0.770000	1445.00	-0.12	0.02
2.84	0.75	0.75	0.00	0.25	0.00	0.00	0.25	0.25	0.50	0.00	0.25	0.00	0.00	0.00	0.00	0.00	-0.899414	-0.296387	1.167480	91.209999	-226.869995	38.849998	37.00	0.00	0.00	24.00	15.50	16.25	9.75	13.00	4.00	6.50	1.50	9.50	3.75	3.25	2.50	2.25	6.75	3.50	1.50	-0.244141	0.036133	0.943359	-3.780000	1.820000	-0.770000	1456.00	-0.12	0.02
2.85	0.25	1.00	0.00	0.75	0.25	0.50	0.50	0.25	0.25	0.25	0.50	0.00	0.00	0.25	0.00	0.00	-0.845703	-0.312500	1.423340	71.540001	-222.949997	49.560001	58.00	-0.08	-0.06	23.50	14.75	16.25	9.75	13.50	4.25	6.50	1.50	10.00	3.75	3.25	2.75	2.25	6.75	3.75	1.50	-0.239258	0.037598	0.946777	-3.710000	1.820000	-0.840000	1465.00	-0.11	0.02
2.86	0.25	1.00	0.00	0.75	0.00	0.75	0.25	0.00	0.00	0.25	0.25	0.00	0.00	0.25	0.00	0.00	-0.831543	-0.277344	1.625000	47.599998	-224.210007	59.430000	43.00	0.00	0.00	23.00	14.50	16.25	9.50	13.50	4.25	6.75	1.50	10.00	4.00	3.50	2.75	2.50	7.00	3.75	1.75	-0.236328	0.034668	0.944824	-3.990000	1.960000	-0.910000	1469.00	-0.11	0.02
2.87	0.75	1.00	0.00	0.00	0.25	0.00	0.25	0.25	0.00	0.00	0.25	0.00	0.00	0.25	0.00	0.00	-0.920410	-0.205566	1.746094	31.570000	-228.690002	64.680000	35.00	0.00	0.00	22.50	13.75	16.25	9.50	13.75	3.75	6.75	1.75	10.50	4.25	3.75	2.75	2.50	7.25	3.75	1.50	-0.237793	0.035645	0.939453	-3.990000	2.170000	-0.910000	1471.00	-0.10	0.02
2.88	1.00	1.00	0.00	0.25	0.25	0.25	0.25	0.00	0.00	0.00	0.25	0.00	0.00	0.00	0.00	0.00	-1.128906	-0.115234	1.804199	28.350000	-235.339996	63.980000	37.00	0.00	0.00	22.00	13.00	16.25	9.25	14.00	4.25	7.00	1.50	10.50	4.50	3.75	3.00	2.75	7.25	4.00	1.75	-0.230469	0.030762	0.942383	-3.920000	2.240000	-0.980000	1476.00	-0.09	0.02
2.89	0.50	1.00	0.00	0.75	0.25	0.50	0.25	0.00	0.00	0.00	0.00	0.25	0.00	0.00	0.00	0.00	-1.319336	-0.051270	1.776367	35.000000	-245.070007	60.340000	41.00	0.00	0.00	21.50	12.00	16.00	9.00	14.00	4.50	7.00	1.75	10.75	4.50	4.25	3.00	2.75	7.50	4.25	2.00	-0.236328	0.032715	0.939453	-3.710000	2.310000	-0.840000	1477.00	-0.08	0.02
2.90	0.25	1.00	0.00	0.50	0.00	0.25	0.25	0.25	0.00	0.00	0.25	0.00	0.00	0.00	0.00	0.00	-1.424316	-0.009766	1.694336	41.650002	-255.570007	57.119999	33.00	0.00	0.00	20.50	11.25	16.00	9.00	14.00	4.25	7.00	1.75	11.00	4.75	4.25	2.50	1.50	7.50	4.25	2.00	-0.244141	0.036621	0.937988	-3.500000	2.520000	-0.840000	1445.00	-0.08	0.03
2.91	0.25	1.00	0.00	0.75	0.25	0.00	0.25	0.00	0.00	0.00	0.25	0.00	0.00	0.00	0.00	0.00	-1.545898	0.192383	1.780273	27.090000	-273.769989	63.840000	32.00	0.00	0.00	17.00	8.50	14.25	7.75	13.00	3.25	7.00	1.50	11.25	5.00	5.25	3.50	3.25	7.75	4.25	2.00	-0.248047	0.039062	0.937012	-3.360000	2.870000	-0.910000	1361.00	-0.05	0.03
2.92	0.75	0.75	0.00	0.50	0.00	0.50	0.25	0.00	0.00	0.00	0.25	0.25	0.00	0.00	0.00	0.00	-1.585938	0.323242	1.715820	12.040000	-282.380005	79.169998	38.00	0.00	0.00	19.00	9.50	16.25	8.50	14.50	4.25	7.25	2.00	11.50	5.50	5.75	3.50	3.00	7.75	4.50	2.00	-0.242188	0.037109	0.942383	-2.940000	3.080000	-0.980000	1485.00	-0.06	0.02
2.93	0.50	0.75	0.00	0.50	0.25	0.25	0.25	0.25	0.00	0.00	0.00	0.00	0.00	0.00	0.25	0.00	-1.653320	0.402832	1.583496	-1.750000	-286.790009	100.449997	36.00	0.00	0.00	17.50	8.50	15.50	7.75	14.00	3.75	7.50	1.75	11.75	5.50	6.25	3.75	3.25	8.00	4.50	2.50	-0.261719	0.041992	0.934570	-2.590000	3.500000	-1.050000	1448.00	-0.05	0.03
2.94	0.50	1.25	0.00	0.50	0.00	0.25	0.25	0.00	0.00	0.00	0.25	0.00	0.00	0.00	0.00	0.00	-1.719238	0.418945	1.372070	-11.900000	-283.989990	122.639999	34.00	0.00	0.00	16.00	7.75	14.50	7.50	14.25	4.25	7.25	1.25	11.75	6.00	6.50	3.25	2.00	8.00	4.50	2.00	-0.250488	0.039062	0.937500	-2.170000	3.990000	-1.120000	1392.00	-0.04	0.03
2.95	0.75	1.25	0.00	1.25	0.00	0.25	0.25	0.00	0.00	0.00	0.25	0.00	0.00	0.25	0.00	0.00	-1.789551	0.360840	1.104980	-16.309999	-269.989990	140.979996	48.00	0.00	0.00	14.50	7.50	14.50	7.25	14.25	4.00	7.50	1.75	12.50	7.00	7.50	4.50	3.75	8.50	5.00	2.75	-0.239746	0.033203	0.940918	-1.820000	4.340000	-1.260000	1459.00	-0.02	0.02
2.96	0.50	0.75	0.00	0.75	0.00	0.25	0.25	0.25	0.00	0.25	0.25	0.00	0.00	0.00	0.00	0.00	-1.773926	0.278320	1.000000	-17.010000	-246.889999	150.850006	39.00	0.00	0.00	12.50	6.00	12.50	6.75	13.00	3.50	7.50	1.75	12.50	7.00	8.00	4.75	3.25	8.50	5.00	2.50	-0.240723	0.031738	0.936523	-1.470000	4.830000	-1.260000	1372.00	0.00	0.03
2.97	0.25	1.00	0.00	0.25	0.25	0.00	0.25	0.25	0.25	0.00	0.25	0.00	0.00	0.00	0.00	0.00	-1.845703	0.236328	1.109863	-17.990000	-225.820007	150.570007	34.00	0.00	0.00	9.00	5.00	12.25	5.25	13.75	4.00	7.75	2.00	12.75	7.50	8.25	5.50	3.75	8.75	5.50	2.75	-0.237793	0.031250	0.934570	-1.680000	5.250000	-1.190000	1360.00	0.03	0.02
2.98	0.75	1.00	0.00	0.00	0.25	0.50	0.25	0.00	0.00	0.00	0.25	0.00	0.00	0.00	0.00	0.00	-1.861816	0.166504	1.142090	-10.920000	-213.990005	142.940002	34.00	0.00	0.00	11.75	6.00	13.50	6.25	14.00	4.00	7.75	2.00	13.00	7.75	8.50	5.75	4.50	8.75	5.50	3.25	-0.237305	0.038574	0.935547	-1.540000	6.510000	-1.330000	1453.00	0.01	0.02
2.99	0.75	1.25	0.00	0.50	0.00	0.25	0.25	0.25	0.25	0.00	0.25	0.00	0.00	0.25	0.00	0.00	-1.891602	0.056641	0.936035	4.620000	-207.479996	128.729996	47.00	0.00	0.00	9.75	5.75	13.00	6.00	14.00	4.50	8.00	2.00	13.50	8.00	8.75	6.75	4.50	9.00	5.75	3.25	-0.260742	-0.037598	0.965332	-1.470000	6.720000	-1.540000	1459.00	0.02	0.02
3.00	0.25	1.00	0.00	0.75	0.00	0.25	0.25	0.25	0.00	0.00	0.00	0.25	0.00	0.00	0.00	0.00	-1.916992	-0.104004	0.576660	22.190001	-196.559998	106.959999	36.00	0.00	0.00	8.75	5.25	11.75	5.50	13.50	3.75	8.00	2.00	13.50	8.50	9.25	7.00	5.00	9.25	5.75	3.25	-0.479004	-0.102539	0.923340	-1.260000	7.490000	-1.540000	1427.00	0.04	0.02
3.01	0.50	0.50	0.00	0.00	0.00	0.00	0.25	0.00	0.00	0.00	0.25	0.00	0.00	0.00	0.00	0.00	-1.925293	-0.235352	0.250488	40.320000	-174.720001	78.820000	18.00	0.00	0.00	8.00	4.50	10.75	5.25	12.75	3.75	8.00	2.00	14.00	8.50	9.50	7.50	5.25	9.75	6.25	4.00	-0.246094	0.030273	0.940430	-0.980000	8.400000	-1.470000	1420.00	0.05	0.01
3.02	0.50	0.75	0.00	0.25	0.25	0.25	0.25	0.25	0.00	0.00	0.00	0.00	0.00	0.25	0.00	0.00	-1.937012	-0.331055	0.098145	60.760002	-146.020004	49.209999	33.00	0.00	0.00	7.00	4.50	9.50	5.00	12.25	3.25	8.00	2.00	14.00	8.75	9.75	7.75	5.00	9.50	6.25	4.25	-0.232422	0.072266	0.958008	-0.770000	9.380000	-1.610000	1384.00	0.06	0.01
3.03	0.50	1.00	0.00	0.50	0.25	0.25	0.25	0.00	0.00	0.00	0.25	0.00	0.00	0.00	0.00	0.00	-1.950195	-0.396973	0.061035	78.680000	-115.849998	22.610001	35.00	0.00	0.00	7.00	4.50	9.25	5.00	12.25	3.75	8.25	2.50	14.50	9.25	10.25	8.25	5.75	10.00	7.00	4.75	-0.227051	0.033691	0.968262	-0.490000	9.940000	-1.960000	1447.00	0.07	0.01
3.04	0.25	1.00	0.00	0.25	0.00	0.75	0.25	0.00	0.00	0.00	0.25	0.00	0.00	0.00	0.00	0.00	-1.944336	-0.432617	0.049805	85.680000	-87.919998	0.980000	32.00	0.00	0.00	6.50	4.25	8.50	4.50	11.25	3.50	8.25	1.50	13.75	9.50	10.25	7.75	4.25	9.00	6.00	3.50	-0.407227	0.041016	0.958008	-0.630000	10.780000	-2.380000	1336.00	0.07	0.02
3.05	0.75	1.00	0.00	0.50	0.25	0.25	0.25	0.00	0.00	0.00	0.00	0.00	0.00	0.00	0.00	0.25	-1.929199	-0.450684	0.025391	80.080002	-63.070000	-14.840000	36.00	0.00	0.00	4.25	2.75	6.25	2.00	9.50	2.00	8.00	1.25	13.00	9.00	10.25	8.00	4.50	9.25	6.25	3.75	-0.432129	0.079590	0.940430	-0.910000	12.460000	-2.450000	1187.00	0.11	0.02
3.06	0.75	1.25	0.00	0.50	0.25	0.50	0.25	0.25	0.00	0.00	0.25	0.00	0.00	0.00	0.00	0.00	-1.856445	-0.392578	0.065918	38.990002	-17.360001	-30.730000	47.00	0.00	0.00	4.50	2.00	5.50	2.50	8.75	1.75	8.25	1.25	13.25	9.25	10.50	8.25	5.00	9.25	6.25	4.00	-0.239258	0.037598	0.908203	-1.960000	13.930000	-2.660000	1189.00	0.12	0.02
3.07	0.50	1.25	0.25	0.00	0.25	0.50	0.25	0.25	0.00	0.00	0.25	0.00	0.00	0.00	0.00	0.00	-1.780273	-0.299316	0.080078	12.180000	5.740000	-31.780001	41.00	0.00	0.00	3.25	1.75	5.00	2.25	7.75	1.50	8.25	1.25	13.50	9.50	10.75	8.50	5.00	9.50	6.50	4.00	-0.259277	0.066406	0.959961	-3.010000	15.330000	-3.220000	1166.00	0.13	0.02
3.08	0.75	0.75	0.00	0.50	0.00	0.25	0.25	0.25	0.00	0.00	0.50	0.00	0.00	0.00	0.00	0.00	-4.259277	-0.628906	-2.332520	-19.600000	1.470000	-27.650000	39.00	0.00	0.00	3.50	1.75	4.75	2.00	7.00	1.25	8.25	1.00	13.75	9.75	11.00	8.75	5.00	9.75	6.75	4.25	-0.297852	0.057617	0.936035	-4.130000	17.990000	-3.990000	1165.00	0.14	0.02
3.09	1.00	2.25	0.00	0.75	0.25	0.50	0.25	0.25	0.00	0.00	0.00	0.00	0.00	0.00	0.00	0.00	1.106934	-0.402832	-0.180664	-8.890000	119.629997	-3.290000	60.00	-0.29	-0.11	2.50	1.50	3.50	1.50	6.00	1.00	8.25	1.25	14.00	10.00	11.00	8.75	5.25	9.50	7.00	4.50	-0.129883	-0.088867	0.927734	-5.110000	22.330000	-5.110000	1130.00	0.16	0.02
3.10	1.75	2.00	0.50	0.25	0.25	1.00	0.25	0.50	0.00	0.00	0.00	0.00	0.00	0.00	0.00	0.00	0.104980	0.376465	1.556641	-21.490000	141.119995	0.140000	76.00	-0.27	-0.09	2.25	1.50	2.75	1.50	5.00	1.00	8.25	1.00	14.25	10.25	11.50	8.75	5.00	9.75	6.75	4.50	-0.252441	0.031738	0.935547	-5.320000	24.570000	-5.390000	1111.00	0.17	0.02
3.11	2.25	3.25	0.25	0.75	0.25	0.25	0.25	0.00	0.00	0.00	0.00	0.00	0.00	0.00	0.00	0.00	-0.038574	-0.054199	0.588379	-33.040001	130.690002	-0.420000	80.00	-0.35	-0.05	1.75	1.25	2.50	1.25	4.00	0.75	8.50	0.75	14.25	10.50	11.50	9.00	5.25	9.75	7.00	4.75	-0.256836	0.032227	0.940430	-5.600000	27.299999	-5.740000	1094.00	0.18	0.02
3.12	3.25	5.00	0.25	1.00	0.25	0.00	0.25	0.00	0.00	0.00	0.00	0.00	0.00	0.00	0.00	0.00	-0.130371	-0.026855	0.596680	-52.570000	149.029999	-6.510000	109.00	-0.37	-0.05	1.75	1.25	2.50	1.50	3.25	1.00	8.25	1.00	14.50	10.50	11.75	9.00	5.00	9.75	7.25	5.00	-0.262695	0.033691	0.933105	-5.810000	30.660000	-5.810000	1100.00	0.18	0.02
3.13	4.25	5.50	0.25	1.50	0.25	0.00	0.25	0.00	0.00	0.00	0.00	0.00	0.00	0.00	0.00	0.00	-0.073242	0.131348	0.960449	-55.299999	166.110001	-7.000000	132.00	-0.37	-0.05	1.75	1.00	2.00	1.25	2.75	1.00	8.25	0.75	14.50	10.75	12.00	9.25	5.00	9.75	7.25	5.00	-0.245605	0.023926	0.963379	-5.320000	35.630001	-5.600000	1087.00	0.19	0.02
3.14	5.00	6.00	0.25	1.50	0.00	0.00	0.00	0.00	0.00	0.00	0.00	0.00	0.00	0.00	0.00	0.00	-0.236328	0.099609	1.100586	-31.010000	163.169998	0.560000	138.00	-0.39	-0.06	1.50	1.50	1.50	1.25	2.25	1.00	8.25	0.75	14.50	11.00	12.25	9.50	5.00	9.75	7.25	5.25	-0.277344	0.031738	0.946777	-5.040000	44.310001	-6.510000	1087.00	0.19	0.02
3.15	5.75	7.50	0.00	2.25	0.00	0.00	0.00	0.00	0.00	0.00	0.00	0.00	0.00	0.00	0.00	0.00	-0.289062	-0.133301	1.139648	-22.540001	156.660004	0.350000	168.00	-0.39	-0.07	1.25	1.25	1.75	1.25	2.00	0.75	8.00	0.75	14.75	11.25	12.50	9.50	5.00	9.75	7.50	5.25	-0.296875	0.039551	0.932617	-5.460000	54.110001	-7.560000	1087.00	0.20	0.02
3.16	7.00	9.00	0.00	2.50	0.00	0.00	0.00	0.00	0.00	0.00	0.00	0.00	0.00	0.00	0.00	0.00	-0.303711	-0.172363	1.187500	-34.790001	150.919998	-10.920000	200.00	-0.39	-0.07	1.25	1.00	1.25	0.75	1.75	0.50	8.00	0.75	14.75	11.25	12.25	9.50	4.50	9.75	7.50	5.25	-0.284668	0.041016	0.987305	-5.600000	67.410004	-8.890000	1059.00	0.21	0.02
3.17	9.50	10.50	0.25	3.25	0.00	0.00	0.00	0.00	0.00	0.00	0.00	0.00	0.00	0.00	0.00	0.00	-0.370605	-0.037598	1.259277	-40.950001	147.139999	-21.000000	255.00	-0.39	-0.06	1.25	1.00	0.25	0.25	1.50	0.75	7.75	0.25	15.00	11.50	12.50	9.50	4.25	10.00	7.50	5.50	-0.309082	0.022461	0.973633	-7.980000	84.559998	-11.270000	1039.00	0.22	0.03
3.18	12.00	12.75	0.50	4.50	0.00	0.00	0.00	0.00	0.00	0.00	0.00	0.00	0.00	0.00	0.00	0.00	-0.638184	0.177246	1.526855	-34.369999	151.270004	-23.309999	324.00	-0.39	-0.06	1.00	0.50	0.75	0.75	1.25	0.75	7.75	0.25	15.00	11.50	12.50	9.50	4.25	9.75	7.75	5.50	-0.350098	0.024902	1.019531	-10.570000	106.470001	-12.320000	1040.00	0.22	0.02
3.19	15.50	14.75	1.25	5.50	0.25	0.00	0.00	0.00	0.00	0.00	0.00	0.00	0.00	0.00	0.00	0.00	-0.777344	0.285156	1.884766	-8.820000	163.589996	-10.150000	408.00	-0.38	-0.05	0.00	0.50	0.75	0.00	1.25	0.50	7.50	0.50	17.25	11.25	12.25	9.25	3.75	11.25	8.75	6.50	-0.294922	0.018066	1.030273	-13.860000	127.959999	-14.000000	1067.00	0.24	0.03
3.20	17.50	16.25	1.25	7.25	0.25	0.25	0.00	0.00	0.00	0.00	0.00	0.00	0.00	0.00	0.00	0.00	-0.490723	0.044434	1.737305	2.100000	152.460007	2.240000	470.00	-0.38	-0.05	1.75	1.50	2.25	1.25	1.00	0.50	7.75	0.75	16.50	11.50	12.25	9.00	3.25	10.00	8.00	6.25	-0.359863	0.039062	1.009766	-17.080000	151.199997	-15.610000	1099.00	0.20	0.03
3.21	18.25	17.00	1.75	7.75	0.25	0.00	0.00	0.00	0.00	0.00	0.00	0.00	0.00	0.00	0.00	0.00	-0.282715	0.000000	1.295898	3.920000	100.029999	-1.890000	495.00	-0.38	-0.05	1.75	1.00	1.50	1.25	1.50	1.50	7.50	1.00	17.25	12.50	13.50	9.75	5.00	11.75	8.75	6.75	-0.394043	0.024414	0.978027	-22.960001	173.669998	-16.870001	1192.00	0.21	0.02
3.22	19.50	17.00	2.50	8.25	0.75	1.50	0.25	0.00	0.00	0.00	0.00	0.00	0.00	0.00	0.00	0.00	-0.243164	0.094727	1.108398	8.680000	87.570000	-4.550000	552.00	-0.36	-0.05	0.00	0.25	1.25	1.00	1.75	1.00	7.00	1.00	17.25	12.25	13.25	9.75	4.25	11.75	8.75	6.75	-0.507812	0.023438	0.982422	-37.660000	221.759995	-20.790001	1134.00	0.23	0.02
3.23	19.25	17.50	2.75	8.50	0.75	0.50	0.00	0.00	0.00	0.00	0.00	0.00	0.00	0.00	0.00	0.00	-0.228516	0.109375	1.014648	11.130000	82.459999	-3.570000	544.00	-0.37	-0.05	0.00	0.25	0.00	0.25	0.75	0.25	6.75	0.00	14.25	11.25	11.75	8.50	1.75	9.75	7.75	6.00	-0.478027	-0.076172	1.055664	-45.920002	247.520004	-24.360001	925.00	0.25	0.04
3.24	20.25	18.00	3.50	9.00	0.75	1.00	0.00	0.00	0.00	0.00	0.00	0.00	0.00	0.00	0.00	0.00	-0.233398	0.084473	0.965332	12.950000	81.340004	-3.010000	582.00	-0.37	-0.05	0.25	0.25	0.00	0.00	0.75	0.00	6.25	0.00	14.00	10.75	11.50	8.50	1.75	9.50	8.00	5.75	-0.233887	0.103516	1.151367	-53.060001	275.380005	-28.350000	900.00	0.25	0.04
3.25	21.25	18.50	2.75	9.50	1.00	0.75	0.00	0.00	0.00	0.00	0.00	0.00	0.00	0.00	0.00	0.00	-0.595215	0.606445	2.634277	-32.060001	67.900002	-5.670000	595.00	-0.37	-0.05	0.00	0.25	0.25	0.25	0.75	0.00	6.00	0.00	13.25	10.25	11.00	8.00	1.00	9.25	7.75	5.75	-0.464844	0.203125	1.064453	-53.270000	298.690002	-32.549999	859.00	0.25	0.04
3.26	21.00	18.50	4.50	9.75	1.00	2.00	0.00	0.25	0.00	0.00	0.50	0.25	0.00	0.00	0.00	0.00	-0.369141	0.077637	1.320801	-18.760000	36.540001	-0.070000	644.00	-0.35	-0.05	0.25	0.00	0.00	0.00	0.50	0.25	5.50	0.00	12.00	9.25	10.00	7.75	1.25	9.00	8.00	5.50	-0.805176	0.011719	1.392090	-46.410000	316.399994	-39.830002	803.00	0.25	0.03
3.27	22.00	19.00	4.75	10.00	1.25	2.50	0.00	0.50	0.00	0.00	0.25	0.25	0.00	0.00	0.00	0.00	-0.195801	0.083008	0.905273	-21.980000	37.099998	0.560000	677.00	-0.35	-0.06	0.00	0.25	0.00	0.00	0.50	0.00	5.00	0.00	10.50	8.25	9.25	7.00	0.50	9.25	9.00	6.00	-1.032715	0.063965	1.636719	-31.570000	338.519989	-46.619999	751.00	0.26	0.03
3.28	22.50	19.25	6.00	10.50	1.50	2.50	0.25	0.25	0.00	0.00	0.25	0.00	0.00	0.00	0.00	0.00	-0.282715	0.103027	1.033691	-27.719999	39.410000	0.140000	706.00	-0.35	-0.05	0.75	0.00	0.00	0.00	0.50	0.25	5.00	0.00	9.25	7.25	8.25	5.50	0.25	8.50	7.75	5.00	-1.439453	0.073242	2.066406	-18.620001	362.600006	-50.119999	672.00	0.25	0.04
3.29	16.00	15.25	4.50	9.00	0.50	1.00	0.00	0.00	0.00	0.00	0.00	0.00	0.00	0.00	0.00	0.00	-0.283691	0.064941	1.034668	-29.680000	35.560001	0.000000	515.00	-0.36	-0.05	0.00	0.00	0.00	0.25	0.75	0.00	3.75	0.00	8.00	5.75	7.25	4.50	0.50	8.00	7.25	3.75	-1.597168	0.119629	2.408203	3.080000	383.529999	-43.889999	573.00	0.26	0.04
3.30	15.75	15.25	4.75	9.25	0.75	1.25	0.00	0.00	0.00	0.00	0.00	0.00	0.00	0.00	0.00	0.00	-0.270996	0.061523	0.999023	-28.000000	30.450001	-0.630000	525.00	-0.36	-0.06	0.00	0.00	0.00	0.25	0.50	0.00	2.75	0.00	6.75	5.00	5.75	3.75	0.25	7.50	6.75	3.00	-1.330566	-0.010254	2.178223	20.230000	396.619995	-42.349998	484.00	0.27	0.04
3.31	16.00	15.25	5.25	9.25	1.50	1.75	0.00	0.00	0.00	0.00	0.00	0.00	0.00	0.00	0.00	0.00	-0.261230	0.078613	0.992676	-25.760000	26.740000	-0.980000	548.00	-0.35	-0.05	0.00	0.00	0.25	0.00	0.50	0.00	2.00	0.00	5.75	4.25	4.75	3.00	0.00	6.75	6.00	2.25	-1.187012	0.011230	1.704590	17.780001	404.179993	-47.389999	406.00	0.28	0.05
3.32	16.25	15.25	5.25	9.50	1.00	2.25	0.00	0.00	0.00	0.00	0.00	0.00	0.00	0.00	0.00	0.00	-0.269043	0.060547	0.992676	-24.219999	23.870001	-0.840000	554.00	-0.35	-0.06	0.00	0.00	0.25	0.00	0.50	0.00	1.25	0.00	5.00	3.75	4.00	2.75	0.00	6.00	5.25	1.00	-1.312012	0.145020	1.852539	11.830000	406.420013	-50.889999	343.00	0.28	0.05
3.33	16.25	15.25	5.25	9.50	1.25	2.50	0.00	0.00	0.00	0.00	0.00	0.00	0.00	0.00	0.00	0.00	-0.280273	0.063477	0.989746	-21.280001	21.000000	-0.840000	560.00	-0.35	-0.06	0.00	0.00	0.25	0.25	0.50	0.00	0.75	0.00	4.00	3.50	3.25	2.25	0.00	5.25	4.50	0.75	-1.575684	0.258789	2.098633	14.000000	390.809998	-55.510002	289.00	0.27	0.04
3.34	16.00	15.50	5.25	10.00	1.50	2.50	0.00	0.00	0.00	0.00	0.25	0.00	0.00	0.00	0.00	0.00	-0.267578	0.067871	0.973145	-17.990000	18.760000	-0.700000	572.00	-0.34	-0.06	0.00	0.00	0.00	0.00	0.50	0.00	0.50	0.00	3.00	3.25	3.00	1.50	0.00	4.00	3.50	0.00	-0.676758	0.435547	2.401367	30.520000	348.040009	-77.000000	223.00	0.28	0.05
3.35	16.50	15.50	5.50	9.75	1.25	3.25	0.00	0.00	0.00	0.00	0.25	0.00	0.00	0.00	0.00	0.00	-0.274902	0.065430	0.959473	-15.750000	15.820000	-0.490000	583.00	-0.34	-0.06	0.00	0.00	0.00	0.00	0.25	0.00	0.25	0.00	1.75	3.00	2.50	1.25	0.00	2.00	2.25	0.00	-0.443848	0.386230	2.113770	40.459999	309.470001	-86.309998	154.00	0.27	0.02
3.36	16.25	15.00	5.75	9.50	1.50	3.50	0.00	0.00	0.00	0.00	0.25	0.00	0.00	0.00	0.00	0.00	-0.270508	0.056641	0.952637	-15.400000	14.350000	-0.630000	582.00	-0.34	-0.06	0.00	0.00	0.00	0.00	0.25	0.00	0.25	0.00	1.00	2.00	2.00	1.00	0.00	0.25	1.25	0.00	0.088867	0.295410	2.124512	45.009998	278.880005	-94.919998	95.00	0.25	-0.00
3.37	16.00	15.00	6.25	9.50	1.25	3.25	0.00	0.25	0.00	0.00	0.00	0.00	0.00	0.00	0.00	0.00	-0.264160	0.051758	0.936523	-15.820000	13.090000	-0.770000	580.00	-0.34	-0.06	0.00	0.25	0.00	0.00	0.50	0.00	0.25	0.00	0.75	1.50	1.00	0.00	0.00	0.25	0.50	0.00	0.633789	0.240234	1.745605	38.290001	240.029999	-104.160004	60.00	0.19	0.06
3.38	16.75	15.00	6.00	9.75	1.75	3.50	0.00	0.00	0.00	0.00	0.00	0.00	0.00	0.00	0.00	0.00	-0.269043	0.054199	0.939453	-16.940001	11.900000	-1.050000	593.00	-0.34	-0.06	0.50	0.50	0.00	0.00	0.25	0.00	0.25	0.00	0.50	0.75	0.75	0.00	0.00	0.00	0.50	0.00	1.813965	0.243652	1.596191	30.940001	183.470001	-109.970001	48.00	0.00	0.00
3.39	16.00	14.50	6.25	9.50	2.00	4.00	0.00	0.25	0.00	0.00	0.25	0.25	0.00	0.00	0.00	0.00	-0.272949	0.051270	0.940918	-17.920000	10.920000	-1.190000	599.00	-0.33	-0.06	0.75	0.50	0.00	0.25	0.25	0.25	0.25	0.00	0.00	0.50	0.50	0.00	0.00	0.00	0.00	0.00	0.487305	0.722656	1.878418	17.639999	136.009995	-102.690002	38.00	0.00	0.00
3.40	15.75	14.00	6.25	9.50	2.25	4.00	0.00	0.00	0.00	0.00	0.50	0.50	0.00	0.00	0.00	0.00	-0.264160	0.055664	0.932129	-19.320000	10.430000	-1.540000	595.00	-0.32	-0.06	0.75	0.25	0.00	0.00	0.25	0.00	0.25	0.00	0.00	0.75	0.50	0.00	0.00	0.00	0.25	0.00	0.813477	0.654297	2.840332	9.800000	7.630000	-81.410004	35.00	0.00	0.00
3.41	14.75	13.75	6.75	9.50	2.50	4.50	0.25	0.75	0.00	0.00	0.75	0.50	0.00	0.00	0.00	0.00	-0.269043	0.051270	0.930664	-21.770000	9.800000	-2.030000	616.00	-0.31	-0.07	0.75	0.75	0.00	0.00	0.50	0.00	0.25	0.00	0.00	0.75	0.25	0.00	0.00	0.00	0.00	0.00	1.103027	0.508789	2.168945	36.259998	-96.669998	-58.310001	38.00	0.00	0.00
3.42	14.50	13.50	6.75	9.25	2.50	4.25	0.25	0.50	0.00	0.00	0.75	1.00	1.75	0.50	0.00	0.00	-0.266113	0.038574	0.949219	-24.080000	8.890000	-2.380000	628.00	-0.28	-0.08	0.50	0.25	0.25	0.00	0.25	0.00	0.25	0.00	0.25	0.25	0.00	0.00	0.00	0.00	0.25	0.00	0.830078	0.303223	1.465820	39.410000	-160.580002	-43.400002	28.00	0.00	0.00
3.43	14.25	13.25	7.00	9.25	3.00	4.50	0.25	1.50	0.50	1.00	1.50	1.75	2.25	1.00	0.25	0.25	-0.270020	0.042969	0.938477	-25.760000	7.420000	-2.660000	700.00	-0.24	-0.08	0.00	0.25	0.25	0.00	0.25	0.00	0.25	0.00	0.00	0.25	0.00	0.00	0.00	0.00	0.00	0.00	0.711426	0.293457	1.044922	28.490000	-199.710007	-29.750000	16.00	0.00	0.00
3.44	21.00	16.25	7.25	9.25	4.25	4.75	0.50	2.25	1.00	1.25	2.00	1.75	0.25	0.00	0.00	0.00	-0.283691	0.038574	0.945312	-26.950001	6.090000	-3.010000	828.00	-0.26	-0.06	0.25	0.50	0.00	0.00	0.25	0.00	0.00	0.00	0.00	0.25	0.00	0.00	0.00	0.00	0.00	0.00	0.614746	0.277344	0.800781	18.059999	-214.759995	-16.100000	14.00	0.00	0.00
3.45	18.25	16.25	9.00	10.75	5.75	7.50	0.75	2.25	1.25	1.00	2.25	2.00	3.25	1.50	0.25	0.50	-0.273926	0.028809	0.950195	-26.809999	4.760000	-3.150000	945.00	-0.22	-0.08	0.25	0.25	0.00	0.00	0.50	0.00	0.00	0.00	0.00	0.00	0.00	0.00	0.00	0.00	0.00	0.00	0.535645	0.296875	0.666504	14.070000	-216.649994	-3.080000	11.00	0.00	0.00
3.46	20.75	16.00	9.25	10.75	6.25	7.25	0.75	2.50	1.75	1.50	2.00	2.00	1.75	0.25	0.00	0.00	-0.277344	0.022949	0.953125	-24.850000	3.990000	-2.940000	960.00	-0.24	-0.06	0.00	0.00	0.00	0.00	0.25	0.00	0.00	0.25	0.00	0.00	0.00	0.00	0.00	0.00	0.00	0.00	0.436035	0.285156	0.758301	21.770000	-219.800003	24.360001	7.00	0.00	0.00
3.47	13.50	12.25	7.75	8.75	5.50	5.75	0.75	1.00	0.50	0.50	1.50	1.00	1.25	0.75	0.00	0.00	-0.281738	0.025391	0.951660	-21.910000	3.430000	-2.520000	699.00	-0.25	-0.06	0.25	0.50	0.00	0.00	0.50	0.00	0.00	0.00	0.00	0.00	0.00	0.00	0.00	0.00	0.00	0.00	0.362793	0.253418	0.934082	28.420000	-229.389999	39.270000	14.00	0.00	0.00
3.48	13.50	12.00	8.00	9.00	5.75	5.50	1.00	1.00	0.75	1.00	2.00	1.25	1.50	0.75	0.00	0.00	-0.281738	0.020508	0.945801	-19.040001	3.080000	-2.100000	727.00	-0.23	-0.06	0.00	0.25	0.00	0.00	0.25	0.00	0.00	0.00	0.00	0.00	0.00	0.00	0.00	0.00	0.00	0.00	0.289551	0.210449	1.057617	32.619999	-244.580002	54.250000	6.00	0.00	0.00
3.49	13.75	12.75	8.00	8.75	6.25	6.00	1.00	1.75	2.25	0.75	1.75	2.00	2.50	1.75	0.50	0.75	-0.277344	0.017578	0.945312	-16.730000	2.800000	-1.820000	812.00	-0.19	-0.06	0.00	0.00	0.00	0.00	0.25	0.00	0.00	0.00	0.00	0.00	0.00	0.00	0.00	0.00	0.00	0.00	0.207520	0.117188	1.143066	32.970001	-263.899994	68.529999	3.00	0.00	0.00
3.50	19.00	14.75	9.50	9.75	7.50	7.00	1.25	2.50	3.25	1.50	2.50	2.25	3.75	2.00	0.50	1.00	-0.283691	0.011719	0.945312	-12.810000	2.520000	-1.120000	1016.00	-0.19	-0.06	0.00	0.25	0.00	0.00	0.50	0.00	0.00	0.00	0.00	0.00	0.00	0.00	0.00	0.00	0.00	0.00	0.117676	0.061035	1.151855	29.260000	-284.059998	80.500000	9.00	0.00	0.00
3.51	18.75	14.50	9.75	9.75	7.50	7.25	1.50	2.75	3.25	2.00	2.75	3.00	3.75	2.50	1.00	0.75	-0.274902	0.008789	0.939941	-11.200000	2.730000	-0.770000	1051.00	-0.17	-0.06	0.00	0.00	0.00	0.00	0.50	0.25	0.00	0.00	0.00	0.00	0.00	0.00	0.00	0.00	0.00	0.00	-0.004883	0.005371	1.122559	23.940001	-300.860016	89.250000	9.00	0.00	0.00
3.52	18.25	14.25	9.50	9.75	7.75	7.50	1.50	2.75	3.75	2.25	2.75	3.00	4.25	2.75	0.75	0.75	-0.276855	0.016602	0.941406	-9.940000	2.730000	-0.560000	1059.00	-0.16	-0.06	0.25	0.25	0.00	0.00	0.25	0.00	0.00	0.00	0.00	0.00	0.00	0.00	0.00	0.00	0.00	0.00	-0.127441	-0.026855	1.079590	20.230000	-312.059998	94.919998	8.00	0.00	0.00
3.53	17.75	13.75	9.75	9.50	8.00	7.25	2.00	3.00	4.25	2.50	3.25	3.25	4.75	3.25	1.00	1.00	-0.276855	0.012207	0.936035	-9.100000	2.870000	-0.420000	1094.00	-0.15	-0.06	0.50	0.25	0.00	0.00	0.25	0.00	0.00	0.00	0.00	0.00	0.00	0.00	0.00	0.00	0.00	0.00	-0.242676	-0.070312	1.067383	17.150000	-316.959991	97.160004	11.00	0.00	0.00
3.54	17.50	13.50	9.75	9.50	8.25	7.25	2.25	3.00	4.50	2.50	3.75	3.50	5.00	3.75	1.00	1.25	-0.273438	0.013672	0.936035	-8.610000	2.870000	-0.420000	1116.00	-0.14	-0.05	0.00	0.00	0.00	0.00	0.25	0.25	0.00	0.00	0.00	0.00	0.00	0.00	0.00	0.00	0.00	0.00	-0.354492	-0.118164	1.088867	15.050000	-318.220001	96.599998	6.00	0.00	0.00
3.55	17.00	13.00	9.75	9.25	8.50	7.25	2.25	3.25	4.75	2.75	3.75	3.75	5.25	3.75	1.00	1.00	-0.274414	0.010742	0.935547	-8.120000	3.220000	-0.280000	1120.00	-0.13	-0.05	0.00	0.25	0.00	0.25	0.25	0.00	0.00	0.00	0.00	0.00	0.00	0.00	0.00	0.00	0.00	0.00	-0.480957	-0.146973	1.149414	14.630000	-318.500000	93.660004	9.00	0.00	0.00
3.56	16.50	12.75	9.75	9.25	8.50	7.50	2.75	3.25	5.25	3.25	4.25	3.75	5.00	3.75	1.25	0.75	-0.281250	0.009766	0.941406	-7.490000	3.360000	-0.140000	1140.00	-0.12	-0.05	0.00	0.50	0.00	0.00	0.25	0.00	0.00	0.00	0.00	0.00	0.00	0.00	0.00	0.00	0.00	0.00	-0.638672	-0.175781	1.219727	16.799999	-318.149994	89.040001	8.00	0.00	0.00
3.57	16.00	12.25	9.50	9.00	8.75	7.50	3.25	3.50	5.25	3.00	5.25	4.25	5.50	4.00	1.25	1.25	-0.275391	0.001953	0.938477	-6.580000	3.360000	0.140000	1163.00	-0.11	-0.05	0.00	0.25	0.00	0.00	0.25	0.00	0.00	0.00	0.00	0.00	0.00	0.00	0.00	0.00	0.00	0.00	-0.736328	-0.218750	1.270508	23.379999	-317.519989	82.879997	6.00	0.00	0.00
3.58	15.50	11.50	9.50	9.00	8.75	7.50	3.50	4.00	5.75	3.25	6.00	4.50	5.75	4.50	1.25	1.50	-0.278809	0.004395	0.937012	-5.880000	3.500000	0.210000	1192.00	-0.09	-0.05	0.00	0.00	0.25	0.00	0.25	0.00	0.00	0.00	0.00	0.00	0.00	0.00	0.00	0.00	0.00	0.00	-0.923828	-0.198242	1.358398	49.560001	-310.940002	63.980000	6.00	0.00	0.00
3.59	14.75	11.00	9.50	8.75	8.75	7.75	3.75	4.00	6.25	3.75	6.50	5.25	6.00	4.50	1.25	1.50	-0.272461	0.006348	0.937988	-4.970000	3.920000	0.490000	1213.00	-0.08	-0.05	0.00	0.00	0.00	0.00	0.00	0.00	0.00	0.00	0.00	0.00	0.00	0.00	0.00	0.00	0.00	0.00	-0.984375	-0.156250	1.383301	65.590004	-301.700012	54.880001	0.00	0.00	0.00
3.60	14.00	10.50	9.25	8.75	8.75	7.75	4.00	4.25	6.50	4.00	7.25	5.75	6.25	4.75	1.50	1.75	-0.277344	0.002441	0.937988	-4.060000	4.340000	0.630000	1234.00	-0.07	-0.06	0.00	0.25	0.00	0.00	0.25	0.00	0.00	0.00	0.00	0.00	0.00	0.00	0.00	0.00	0.00	0.00	-1.043457	-0.162109	1.426758	80.430000	-288.049988	47.110001	6.00	0.00	0.00
3.61	13.00	10.25	9.25	8.50	8.75	7.75	4.25	4.50	6.75	4.25	7.75	6.50	6.50	5.00	1.50	1.75	-0.275391	0.003906	0.941895	-3.430000	4.760000	0.770000	1251.00	-0.06	-0.06	0.00	0.00	0.00	0.00	0.25	0.00	0.00	0.00	0.00	0.00	0.00	0.00	0.00	0.00	0.00	0.00	-1.098633	-0.166992	1.603027	88.970001	-272.230011	40.180000	3.00	0.00	0.00
3.62	12.50	9.50	9.00	8.25	8.75	7.75	4.50	4.75	7.00	4.50	8.00	7.25	7.75	5.00	1.50	2.00	-0.281738	0.008301	0.946777	-2.800000	5.110000	0.770000	1271.00	-0.05	-0.06	0.00	0.00	0.00	0.00	0.25	0.00	0.00	0.00	0.00	0.00	0.00	0.00	0.00	0.00	0.00	0.00	-1.183105	-0.120117	1.874512	88.620003	-260.399994	35.139999	3.00	0.00	0.00
3.63	11.00	9.00	9.00	8.25	8.50	7.75	4.50	5.25	7.50	5.00	8.25	7.50	8.00	5.00	1.75	2.25	-0.280762	0.003906	0.937988	-2.450000	5.670000	0.700000	1280.00	-0.03	-0.07	0.00	0.00	0.00	0.00	0.25	0.00	0.00	0.00	0.00	0.00	0.00	0.00	0.00	0.00	0.00	0.00	-1.299316	-0.053223	2.124512	81.690002	-258.089996	34.020000	3.00	0.00	0.00
3.64	10.75	8.25	8.75	8.00	8.50	7.75	4.75	5.50	7.75	5.50	8.50	7.75	8.25	5.50	2.00	2.25	-0.279785	0.000000	0.941895	-2.310000	5.950000	0.630000	1297.00	-0.02	-0.07	0.00	0.00	0.00	0.25	0.25	0.00	0.00	0.00	0.00	0.00	0.00	0.00	0.00	0.00	0.00	0.00	-1.439453	-0.010254	2.192871	75.180000	-263.690002	36.680000	6.00	0.00	0.00
3.65	9.50	8.00	8.50	7.75	8.50	7.75	5.00	5.75	8.00	5.75	9.00	8.00	8.50	5.50	2.25	2.50	-0.283203	0.002930	0.939941	-2.240000	7.000000	0.420000	1304.00	-0.01	-0.07	0.00	0.25	0.00	0.00	0.25	0.00	0.00	0.00	0.00	0.00	0.00	0.00	0.00	0.00	0.00	0.00	-1.590820	0.011230	2.108887	70.419998	-270.059998	39.410000	6.00	0.00	0.00
3.66	8.50	7.25	8.00	7.50	8.25	7.75	5.00	6.00	8.00	6.75	9.25	8.25	9.00	5.75	2.25	2.75	-0.280273	0.000977	0.941406	-2.380000	7.560000	0.280000	1303.00	0.00	-0.07	0.00	0.00	0.00	0.00	0.25	0.25	0.00	0.00	0.00	0.00	0.00	0.00	0.00	0.00	0.00	0.00	-1.714355	-0.004883	1.979004	65.519997	-273.630005	39.689999	6.00	0.00	0.00
3.67	8.25	6.75	8.00	7.50	8.00	7.75	5.25	6.00	8.50	7.25	9.50	8.50	9.25	6.25	2.50	3.00	-0.236328	0.018066	0.929688	-2.660000	8.260000	0.070000	1326.00	0.01	-0.07	0.00	0.00	0.00	0.25	0.25	0.25	0.00	0.00	0.00	0.00	0.00	0.00	0.00	0.00	0.00	0.00	-1.801270	-0.000488	1.849609	57.610001	-273.420013	37.099998	9.00	0.00	0.00
3.68	7.25	6.25	7.50	6.50	7.75	7.75	5.25	6.25	8.75	7.50	9.75	8.75	9.50	6.25	2.75	3.00	-0.363770	0.006836	0.917480	-2.590000	9.730000	-0.700000	1310.00	0.02	-0.07	0.00	0.50	0.00	0.25	0.25	0.00	0.00	0.00	0.00	0.00	0.00	0.00	0.00	0.00	0.00	0.00	-1.887695	0.077637	1.731934	46.549999	-270.619995	33.670002	11.00	0.00	0.00
3.69	6.50	5.75	7.25	6.00	7.75	7.50	5.50	6.25	9.00	7.75	10.25	9.00	9.75	6.75	2.75	3.25	-0.390625	0.009277	0.937012	-2.520000	10.150000	-0.910000	1312.00	0.04	-0.07	0.00	0.00	0.25	0.00	0.25	0.25	0.00	0.00	0.00	0.00	0.00	0.00	0.00	0.00	0.00	0.00	-1.943848	0.175781	1.622559	34.299999	-266.070007	33.740002	9.00	0.00	0.00
