# time	left pressure 1[N/cm²]	left pressure 2[N/cm²]	left pressure 3[N/cm²]	left pressure 4[N/cm²]	left pressure 5[N/cm²]	left pressure 6[N/cm²]	left pressure 7[N/cm²]	left pressure 8[N/cm²]	left pressure 9[N/cm²]	left pressure 10[N/cm²]	left pressure 11[N/cm²]	left pressure 12[N/cm²]	left pressure 13[N/cm²]	left pressure 14[N/cm²]	left pressure 15[N/cm²]	left pressure 16[N/cm²]	left acceleration X[g]	left acceleration Y[g]	left acceleration Z[g]	left angular X[dps]	left angular Y[dps]	left angular Z[dps]	left total force[N]	left center of pressure X[%]	left center of pressure Y[%]	right pressure 1[N/cm²]	right pressure 2[N/cm²]	right pressure 3[N/cm²]	right pressure 4[N/cm²]	right pressure 5[N/cm²]	right pressure 6[N/cm²]	right pressure 7[N/cm²]	right pressure 8[N/cm²]	right pressure 9[N/cm²]	right pressure 10[N/cm²]	right pressure 11[N/cm²]	right pressure 12[N/cm²]	right pressure 13[N/cm²]	right pressure 14[N/cm²]	right pressure 15[N/cm²]	right pressure 16[N/cm²]	right acceleration X[g]	right acceleration Y[g]	right acceleration Z[g]	right angular X[dps]	right angular Y[dps]	right angular Z[dps]	right total force[N]	right center of pressure X[%]	right center of pressure Y[%]
0.00																										0.50	0.50	1.25	2.00	2.00	0.75	2.00	3.00	3.75	2.50	2.25	2.25	5.25	6.25	0.50	0.75	-0.144531	0.051758	0.979004	-4.620000	0.000000	0.770000	382.00	0.12	-0.06
0.01																										0.25	0.50	1.50	1.50	2.00	1.00	2.00	2.75	3.75	2.50	2.25	2.25	5.00	6.25	0.25	0.75	-0.149414	0.059570	0.978516	-4.900000	0.420000	0.840000	371.00	0.12	-0.05
0.02	0.50	1.25	1.50	2.25	1.75	1.25	1.50	2.25	4.00	1.75	1.25	1.50	3.25	8.50	0.75	1.00	-0.194824	0.041992	0.959961	-1.400000	10.710000	-3.080000	361.00	0.12	-0.02	0.25	0.50	1.25	2.00	1.75	0.75	2.00	2.75	3.75	2.50	2.50	2.25	5.00	6.50	0.50	0.75	-0.154297	0.051270	0.976562	-5.320000	0.910000	0.700000	376.00	0.13	-0.06
0.03	0.50	1.50	1.75	2.25	2.00	1.25	1.75	2.50	3.75	1.50	1.25	1.50	3.00	8.75	1.00	1.00	-0.196289	0.040039	0.961914	-1.330000	11.410000	-3.080000	373.00	0.11	-0.03	0.50	0.50	1.25	2.00	1.75	0.50	2.00	2.75	3.75	2.50	2.00	2.25	5.00	6.75	0.25	0.75	-0.150879	0.052246	0.983887	-5.180000	1.890000	0.350000	370.00	0.13	-0.05
0.04																										0.50	0.25	1.75	2.00	1.75	0.75	2.00	2.75	3.50	2.75	2.00	2.25	5.25	6.75	0.50	0.75	-0.150879	0.052246	0.983887	-5.180000	1.890000	0.350000	380.00	0.12	-0.05
0.05	0.75	1.25	1.50	2.25	1.75	1.25	1.75	2.25	4.25	1.50	1.25	1.25	3.25	9.00	1.00	1.25	-0.202148	0.041992	0.960938	-1.260000	12.110000	-2.940000	374.00	0.12	-0.02	0.25	0.25	1.25	1.75	1.75	0.50	2.00	2.50	3.75	2.75	2.50	2.50	5.25	7.25	0.50	1.00	-0.159668	0.047852	0.987305	-4.970000	2.450000	0.420000	379.00	0.15	-0.05
0.06	0.50	1.00	1.50	2.25	1.75	1.25	1.75	2.25	4.00	1.50	1.00	1.25	3.25	9.00	1.00	1.25	-0.199219	0.038086	0.960449	-0.910000	13.160000	-2.590000	363.00	0.12	-0.02	0.25	0.25	1.25	2.00	1.75	0.50	2.25	2.50	3.75	2.50	2.25	2.25	5.00	7.25	0.50	1.00	-0.165527	0.052246	0.985352	-4.550000	2.730000	0.350000	376.00	0.14	-0.04
0.07	0.50	1.00	1.50	2.00	1.75	1.00	1.75	2.25	4.25	1.75	1.25	1.50	3.25	9.25	0.75	1.00	-0.205078	0.038086	0.957031	-0.700000	13.020000	-2.310000	367.00	0.13	-0.01	0.50	0.50	1.25	2.00	1.75	0.50	2.00	2.50	3.75	2.50	2.25	2.00	5.00	7.00	0.50	0.75	-0.164062	0.050781	0.987305	-3.710000	2.940000	0.560000	371.00	0.13	-0.05
0.08	0.25	1.00	1.50	2.00	1.50	1.00	1.75	2.50	3.75	1.50	1.25	1.50	3.25	9.25	1.00	1.25	-0.209473	0.041016	0.958008	-0.490000	12.460000	-1.960000	360.00	0.14	-0.02	0.75	0.50	1.00	2.00	1.75	0.50	2.00	2.25	3.75	2.50	2.25	2.25	5.00	7.00	0.50	1.00	-0.164062	0.050781	0.987305	-3.710000	2.940000	0.560000	371.00	0.13	-0.04
0.09	0.25	0.50	1.25	1.75	1.75	1.00	1.75	2.25	4.00	1.50	1.25	1.50	3.25	9.25	1.00	1.25	-0.211426	0.029785	0.950684	-0.280000	11.410000	-1.610000	352.00	0.15	-0.01	0.25	0.25	1.00	1.75	1.75	0.50	2.00	2.50	3.75	2.25	2.00	2.00	5.00	7.25	0.25	0.75	-0.174316	0.044922	0.984863	-1.820000	2.170000	1.050000	354.00	0.14	-0.04
0.10	0.75	1.00	1.25	2.00	1.75	1.00	1.75	2.25	4.00	1.50	1.25	1.50	3.25	9.25	0.75	1.25	-0.220703	0.029785	0.961426	1.260000	8.050000	-0.140000	362.00	0.13	-0.02	0.25	0.50	1.25	2.00	1.50	0.25	2.00	2.25	3.75	2.25	2.00	2.00	5.00	7.25	0.50	0.75	-0.176758	0.051758	0.988281	-0.420000	1.050000	1.610000	356.00	0.14	-0.04
0.11	0.50	1.00	1.25	2.25	1.50	1.00	1.75	2.50	4.00	1.75	1.25	1.25	3.50	9.25	0.75	1.00	-0.221680	0.030762	0.952148	2.030000	5.600000	0.910000	364.00	0.13	-0.02	0.25	0.50	1.00	1.75	1.50	0.25	2.00	2.50	3.75	2.25	2.00	2.25	5.00	7.25	0.50	0.75	-0.180176	0.049316	0.980957	0.770000	-0.560000	2.310000	357.00	0.15	-0.05
0.12	0.50	1.25	1.50	2.00	1.75	1.25	1.75	2.50	3.75	1.50	1.25	1.25	3.25	9.00	1.00	1.00	-0.222168	0.040527	0.953613	2.730000	2.660000	1.750000	364.00	0.12	-0.02	0.25	0.50	1.00	1.50	1.50	0.00	2.00	2.25	3.75	2.25	2.00	2.00	5.00	7.00	0.50	0.75	-0.170410	0.049316	0.968750	1.750000	-2.660000	3.220000	343.00	0.15	-0.04
0.13	0.50	1.00	1.25	2.00	1.50	1.00	1.50	2.50	4.00	1.75	1.00	1.50	3.50	9.00	0.75	1.00	-0.213379	0.039062	0.948730	2.940000	-0.350000	2.100000	355.00	0.13	-0.03	0.25	0.75	0.75	1.50	1.50	0.25	2.00	2.25	3.50	2.25	2.00	2.00	4.75	7.00	0.25	0.50	-0.165039	0.047852	0.969238	2.030000	-4.620000	3.920000	335.00	0.15	-0.04
0.14	0.50	1.00	1.50	2.00	1.50	1.25	1.75	2.75	3.75	1.50	1.50	1.50	3.50	8.75	1.00	1.00	-0.212402	0.044922	0.950195	2.800000	-3.080000	2.450000	368.00	0.13	-0.03	0.50	0.50	1.00	1.75	1.50	0.50	2.00	2.25	3.50	2.25	2.00	2.00	5.00	7.00	0.25	0.50	-0.164551	0.060059	0.976562	1.750000	-6.230000	4.480000	346.00	0.14	-0.04
0.15	0.50	1.25	1.25	2.00	1.75	1.50	1.75	2.75	3.75	1.50	1.25	1.25	3.25	8.75	0.75	1.00	-0.223145	0.040039	0.951660	2.730000	-6.090000	2.450000	363.00	0.12	-0.03	0.25	0.25	1.00	2.00	1.50	0.25	2.00	2.25	3.00	2.25	2.00	2.25	4.50	6.75	0.25	0.50	-0.172852	0.053711	0.977539	1.610000	-7.770000	4.760000	331.00	0.14	-0.05
0.16	0.50	1.25	1.50	2.25	2.00	1.50	1.75	3.25	3.25	1.50	1.50	1.50	3.50	8.50	0.75	1.00	-0.210449	0.048340	0.958984	2.520000	-8.890000	2.590000	378.00	0.10	-0.05	0.50	0.00	1.25	1.75	1.50	0.00	1.75	2.50	3.00	2.00	2.00	1.75	4.50	6.75	0.50	0.50	-0.172363	0.053223	0.974609	1.330000	-9.520000	4.970000	323.00	0.14	-0.05
0.17	0.75	1.00	1.50	2.25	2.00	1.75	1.75	3.75	3.25	1.50	1.25	1.50	3.75	8.25	0.50	1.00	-0.200684	0.048340	0.954590	2.380000	-10.640000	2.450000	383.00	0.10	-0.06	0.25	0.50	1.25	1.50	1.50	0.25	1.75	2.25	3.25	2.25	2.00	1.75	4.50	6.75	0.50	0.50	-0.164551	0.061523	0.982910	0.840000	-10.850000	4.900000	327.00	0.14	-0.04
0.18	0.75	1.25	1.75	2.50	2.00	2.25	1.75	4.00	3.25	1.50	1.50	1.25	3.25	8.00	0.75	1.00	-0.204102	0.045410	0.969727	2.310000	-11.480000	2.380000	397.00	0.08	-0.06	0.50	0.50	1.00	1.75	1.50	0.25	1.75	2.25	3.00	2.00	2.00	2.00	4.75	6.50	0.25	0.50	-0.166504	0.058594	0.982422	0.490000	-12.110000	4.830000	324.00	0.13	-0.05
0.19	0.75	1.50	2.00	3.00	2.25	2.75	1.75	4.75	3.00	1.50	1.25	1.25	3.75	7.75	0.50	0.75	-0.187988	0.041016	0.965820	2.310000	-11.620000	2.310000	419.00	0.06	-0.08	0.25	0.50	1.00	1.75	1.75	0.50	1.75	2.50	2.75	2.25	2.00	2.00	4.50	6.25	0.00	0.50	-0.167480	0.058105	0.987793	0.560000	-13.510000	4.830000	323.00	0.13	-0.06
0.20	0.75	1.50	2.00	3.00	2.75	3.00	1.75	4.75	2.75	1.50	1.25	1.50	3.50	7.25	0.50	0.75	-0.191895	0.048340	0.967285	2.310000	-11.690000	2.380000	420.00	0.05	-0.09	0.25	0.25	1.00	2.00	1.50	0.50	1.75	2.50	2.50	2.00	1.75	2.00	4.75	6.25	0.25	0.50	-0.167480	0.054199	0.986816	0.490000	-14.840000	5.600000	317.00	0.13	-0.07
0.21	1.00	2.00	2.25	3.25	2.75	3.50	1.50	5.00	2.75	1.25	1.00	1.25	3.25	6.75	0.50	0.75	-0.182129	0.042480	0.977539	2.590000	-11.550000	2.240000	424.00	0.03	-0.09	0.50	0.25	1.25	1.75	1.50	0.50	1.75	2.50	2.50	1.50	1.75	2.00	4.25	6.00	0.25	0.50	-0.162598	0.053711	0.983398	0.420000	-16.309999	6.230000	308.00	0.12	-0.06
0.22	1.00	2.00	2.25	3.75	3.00	4.00	1.75	5.25	2.25	1.25	1.00	1.25	3.50	6.25	0.50	0.50	-0.175781	0.041992	0.971680	2.730000	-10.920000	2.520000	435.00	0.01	-0.10	0.50	0.75	1.25	2.25	1.75	0.75	1.75	2.50	2.50	1.75	1.50	1.75	4.00	5.75	0.25	0.50	-0.163086	0.052734	0.990234	0.630000	-17.150000	6.860000	317.00	0.10	-0.06
0.23	1.00	2.25	2.50	4.25	3.50	4.50	1.50	5.25	2.25	1.25	1.00	1.25	3.25	5.75	0.50	0.50	-0.171387	0.043457	0.969727	2.520000	-9.590000	2.380000	447.00	-0.00	-0.11	0.50	0.75	1.25	2.00	1.75	0.75	1.75	2.50	2.25	1.75	1.75	1.50	4.25	5.75	0.25	0.50	-0.157715	0.062012	0.990723	0.770000	-17.920000	7.420000	313.00	0.10	-0.07
0.24																										0.50	0.50	1.50	2.25	1.75	0.75	1.75	2.50	2.00	1.50	1.50	1.50	3.50	5.25	0.25	0.25	-0.154297	0.053223	0.989746	1.260000	-18.620001	7.770000	295.00	0.08	-0.06
0.25	1.25	2.75	3.00	5.00	4.00	5.75	1.50	5.50	2.00	0.75	1.00	1.00	2.75	4.75	0.25	0.50	-0.178711	0.049316	0.973633	3.010000	-7.070000	2.100000	464.00	-0.04	-0.12	0.75	0.75	1.50	2.50	2.00	1.00	1.50	2.50	1.50	1.50	1.25	1.25	3.50	5.00	0.00	0.25	-0.144043	0.060547	0.990234	1.540000	-18.620001	7.980000	288.00	0.06	-0.08
0.26	1.50	3.25	3.25	5.25	4.25	6.00	1.25	5.25	1.75	0.75	1.00	1.25	2.50	4.25	0.25	0.50	-0.156250	0.056152	0.972656	3.430000	-6.090000	1.960000	468.00	-0.06	-0.12	0.75	1.00	1.50	2.75	2.00	1.25	1.50	2.50	1.50	1.25	1.25	1.25	3.00	4.75	0.00	0.25	-0.130371	0.063965	0.980469	1.400000	-18.340000	7.630000	287.00	0.04	-0.08
0.27	1.75	3.50	3.50	5.25	4.50	6.25	1.25	5.50	1.50	0.75	1.00	0.75	2.50	4.00	0.25	0.50	-0.156738	0.050781	0.970215	3.850000	-5.110000	1.470000	474.00	-0.07	-0.13	0.75	0.75	1.75	3.25	2.00	1.50	1.50	2.75	1.25	1.25	1.25	1.25	3.25	4.00	0.00	0.25	-0.126465	0.062012	0.991211	1.120000	-17.500000	7.070000	292.00	0.02	-0.10
0.28	1.75	3.75	3.75	5.75	4.50	6.50	1.25	5.50	1.25	1.00	0.75	1.00	2.25	3.50	0.00	0.25	-0.152832	0.058105	0.964844	4.060000	-3.710000	1.050000	476.00	-0.09	-0.13	1.00	1.00	2.00	3.25	2.00	1.50	1.50	2.50	1.50	1.00	1.25	1.25	2.75	3.25	0.00	0.25	-0.127930	0.058105	0.995117	1.610000	-15.540000	5.880000	286.00	0.00	-0.09
0.29	2.00	4.00	3.75	5.75	4.25	6.75	1.25	5.25	1.25	0.75	0.50	0.50	2.25	3.00	0.25	0.50	-0.158691	0.062012	0.970215	3.780000	-1.820000	0.770000	466.00	-0.10	-0.13	1.00	1.25	2.25	3.75	2.00	2.00	1.50	2.50	1.00	1.00	1.00	1.00	2.50	2.75	0.00	0.00	-0.112793	0.064453	0.985352	2.030000	-14.560000	5.530000	282.00	-0.03	-0.10
0.30	2.25	4.00	4.25	6.50	4.50	6.75	1.00	5.25	1.00	0.75	0.75	0.75	2.25	2.50	0.25	0.50	-0.154297	0.060547	0.972656	3.500000	-0.420000	0.560000	479.00	-0.11	-0.14	1.25	1.50	2.00	3.50	2.25	2.00	1.50	2.50	1.00	1.25	0.75	1.00	2.25	2.25	0.00	0.00	-0.117188	0.067871	0.981934	2.100000	-13.300000	5.110000	278.00	-0.04	-0.10
0.31	2.25	4.50	4.00	6.50	4.25	7.25	1.00	5.25	0.75	0.75	0.50	0.75	2.25	1.75	0.00	0.25	-0.152344	0.059082	0.961914	3.850000	1.470000	0.000000	468.00	-0.13	-0.15	1.25	1.00	2.25	4.00	2.25	2.25	1.25	2.00	1.00	0.75	1.00	0.75	2.00	2.00	0.00	0.25	-0.114746	0.057129	0.983887	2.450000	-12.180000	5.040000	265.00	-0.05	-0.09
0.32	2.50	4.50	4.25	6.50	4.25	7.00	1.00	5.25	0.25	0.75	0.75	0.50	2.00	2.00	0.25	0.25	-0.153320	0.057617	0.963867	3.920000	1.890000	-0.070000	466.00	-0.13	-0.15	1.00	1.50	2.50	4.00	2.50	2.00	1.25	2.25	0.75	0.75	0.50	0.50	1.75	1.75	0.00	0.00	-0.107910	0.055664	0.991699	3.150000	-11.830000	4.900000	256.00	-0.08	-0.10
0.33	2.50	4.50	4.25	6.75	4.25	7.00	1.00	5.00	0.75	0.50	0.50	0.75	1.75	2.00	0.00	0.50	-0.151367	0.060059	0.956055	3.920000	2.590000	-0.350000	466.00	-0.13	-0.14	1.25	1.75	2.50	4.25	2.25	2.00	1.25	2.00	0.75	0.50	0.50	0.50	1.75	1.00	0.00	0.00	-0.114258	0.061523	0.990234	3.920000	-11.200000	5.040000	249.00	-0.10	-0.10
0.34	2.50	4.75	4.00	6.75	4.00	7.00	1.00	5.00	0.50	0.50	0.50	0.75	1.50	2.00	0.00	0.25	-0.148438	0.068848	0.950195	3.570000	3.710000	-0.420000	456.00	-0.14	-0.14	1.50	1.75	2.50	4.75	2.50	2.50	1.25	2.00	0.75	0.50	0.75	0.50	1.50	1.25	0.00	0.00	-0.117676	0.069824	0.982910	5.040000	-11.060000	5.320000	267.00	-0.11	-0.10
0.35	2.50	4.50	4.25	6.75	3.75	7.00	1.00	5.00	0.75	0.50	0.50	0.50	1.75	1.25	0.00	0.25	-0.142090	0.069824	0.950684	2.590000	5.180000	-0.560000	450.00	-0.14	-0.15	1.50	2.00	2.50	4.75	2.25	2.75	1.25	2.00	0.50	0.50	0.50	0.25	1.50	1.25	0.00	0.00	-0.114258	0.062012	0.989258	6.300000	-11.410000	5.250000	261.00	-0.12	-0.11
0.36	2.50	5.00	4.00	6.75	3.75	6.75	1.00	4.75	0.25	0.50	0.50	0.50	1.50	1.25	0.00	0.25	-0.150879	0.069824	0.957031	1.260000	7.140000	-0.840000	437.00	-0.15	-0.15	1.75	2.25	2.75	5.00	2.50	2.75	1.25	2.25	0.25	0.50	0.25	0.25	1.25	1.00	0.00	0.00	-0.109863	0.064941	0.988281	7.210000	-11.830000	4.970000	268.00	-0.14	-0.11
0.37	2.25	4.75	3.75	6.50	3.75	6.75	0.75	4.75	0.50	0.75	0.50	0.50	1.50	1.25	0.00	0.25	-0.145508	0.067871	0.946777	0.420000	7.910000	-0.980000	428.00	-0.15	-0.15	1.75	2.25	3.00	5.00	2.25	2.75	1.25	2.00	0.50	0.25	0.25	0.25	1.50	0.50	0.00	0.00	-0.114746	0.075195	0.985352	8.050000	-12.600000	4.830000	263.00	-0.15	-0.11
0.38	2.25	4.50	4.00	6.25	3.50	6.75	1.00	4.75	0.25	0.50	0.50	0.75	1.50	1.25	0.00	0.25	-0.137207	0.069336	0.946289	-0.910000	9.310000	-1.400000	424.00	-0.15	-0.15	2.25	2.50	3.00	5.25	2.50	3.00	1.00	2.00	0.50	0.25	0.25	0.25	1.25	0.75	0.00	0.00	-0.109375	0.081055	0.981934	8.190000	-13.440001	4.620000	275.00	-0.16	-0.11
0.39	2.25	4.50	3.50	6.25	3.25	6.75	1.00	4.50	0.25	0.75	0.25	0.75	1.50	0.75	0.00	0.25	-0.143066	0.067383	0.953125	-2.590000	10.850000	-1.820000	407.00	-0.15	-0.16	2.00	2.75	3.25	5.50	2.50	3.00	1.00	2.25	0.00	0.50	0.50	0.50	1.25	0.50	0.00	0.00	-0.102051	0.088867	0.967773	7.000000	-13.510000	4.620000	283.00	-0.16	-0.12
0.40	2.00	4.25	3.25	6.25	3.00	6.50	1.00	4.50	0.25	0.50	0.50	0.50	1.50	1.00	0.00	0.25	-0.142578	0.065430	0.952148	-4.340000	13.160000	-2.310000	394.00	-0.15	-0.16	2.25	2.50	3.50	5.50	2.50	3.25	1.00	2.25	0.00	0.25	0.25	0.00	1.25	0.25	0.00	0.00	-0.112305	0.087402	0.982422	5.530000	-13.930000	4.410000	276.00	-0.18	-0.12
0.41	2.25	3.50	3.25	5.75	3.25	6.25	0.75	4.50	0.50	0.50	0.50	0.50	1.50	0.75	0.00	0.25	-0.139648	0.075684	0.948242	-6.020000	15.260000	-2.800000	381.00	-0.14	-0.16	2.25	3.25	3.50	5.75	2.50	3.50	1.00	2.00	0.25	0.25	0.50	0.00	1.25	0.50	0.00	0.00	-0.113281	0.080078	0.976562	4.480000	-14.840000	4.480000	293.00	-0.18	-0.12
0.42	1.75	3.25	3.00	5.75	2.75	6.00	1.00	4.25	0.50	0.50	0.50	0.50	1.50	1.00	0.00	0.25	-0.137207	0.061523	0.952148	-7.630000	17.639999	-3.290000	365.00	-0.13	-0.16	2.75	3.75	3.50	6.00	2.75	4.00	1.00	2.00	0.00	0.25	0.25	0.25	1.25	0.25	0.00	0.00	-0.097656	0.086426	0.975098	2.870000	-15.120000	4.620000	308.00	-0.20	-0.12
0.43	1.50	3.00	2.50	5.25	2.75	5.75	0.75	4.00	0.25	0.50	0.50	0.50	1.50	0.75	0.00	0.25	-0.133301	0.057129	0.954102	-9.310000	20.510000	-3.920000	333.00	-0.14	-0.17	2.75	4.25	4.00	6.25	3.00	4.25	1.00	2.00	0.00	0.25	0.00	0.00	1.00	0.25	0.00	0.00	-0.100586	0.088867	0.983887	1.190000	-15.470000	4.830000	319.00	-0.21	-0.12
0.44	1.25	2.50	2.25	5.00	2.50	5.25	0.75	4.00	1.00	0.50	0.50	0.75	1.50	1.00	0.00	0.25	-0.154297	0.068359	0.963379	-10.150000	23.240000	-4.830000	327.00	-0.11	-0.16	3.25	4.50	4.50	7.00	3.25	4.75	1.00	2.25	0.00	0.00	0.25	0.00	1.00	0.00	0.00	0.00	-0.107910	0.084473	0.977539	-0.070000	-16.170000	5.040000	350.00	-0.22	-0.12
0.45	1.25	2.25	2.00	4.50	2.25	4.75	1.00	3.75	0.50	0.50	0.75	0.75	1.50	1.25	0.00	0.25	-0.174316	0.064453	0.971191	-9.450000	24.920000	-5.460000	306.00	-0.10	-0.16	3.75	5.25	5.00	7.50	3.75	4.75	1.00	2.25	0.00	0.25	0.00	0.00	1.25	0.25	0.00	0.00	-0.101074	0.084961	0.970703	-1.190000	-16.870001	5.110000	383.00	-0.22	-0.11
0.46	1.00	1.75	1.50	3.75	2.00	4.00	1.00	3.75	0.75	0.75	0.75	0.50	1.50	1.50	0.00	0.25	-0.177246	0.033691	0.972656	-7.140000	27.230000	-6.370000	280.00	-0.07	-0.15	4.00	5.50	5.25	8.00	4.25	5.25	1.00	2.50	0.00	0.00	0.25	0.25	0.75	0.00	0.00	0.00	-0.114258	0.080078	0.980957	-1.400000	-17.850000	5.320000	407.00	-0.22	-0.11
0.47	0.75	1.50	1.50	3.25	1.50	3.25	0.75	3.25	0.75	0.75	1.00	0.75	1.75	1.25	0.25	0.50	-0.170410	0.037598	0.970703	-3.430000	30.799999	-7.490000	254.00	-0.05	-0.16	4.50	7.00	6.00	8.75	4.75	5.75	1.00	2.50	0.25	0.25	0.00	0.25	0.50	0.00	0.00	0.00	-0.099609	0.077637	0.974121	-1.400000	-19.250000	5.600000	455.00	-0.23	-0.11
0.48	0.75	1.25	1.00	2.75	1.00	2.25	0.75	2.75	0.75	0.75	1.00	0.75	1.75	1.50	0.00	0.50	-0.125977	-0.006348	1.057129	1.470000	38.709999	-10.220000	216.00	-0.03	-0.15	5.50	7.75	6.50	9.25	5.25	6.50	1.00	2.75	0.00	0.25	0.00	0.00	1.00	0.00	0.00	0.00	-0.101074	0.080078	0.980469	-1.470000	-20.440001	5.670000	499.00	-0.23	-0.11
0.49	0.50	1.00	0.75	2.75	1.00	1.75	0.75	2.25	1.00	1.00	1.00	0.75	1.25	1.25	0.25	0.25	-0.105469	0.064941	1.112793	14.700000	56.349998	-16.870001	196.00	-0.02	-0.13	7.00	8.75	7.25	9.75	5.50	7.25	1.00	2.75	0.00	0.00	0.25	0.25	0.75	0.00	0.00	0.00	-0.087402	0.070312	0.988770	-2.100000	-22.049999	5.320000	549.00	-0.24	-0.10
0.50	0.50	1.00	0.50	2.75	0.50	1.25	0.50	2.00	0.75	0.75	1.00	0.75	1.50	1.00	0.00	0.50	-0.115723	0.074707	1.207031	36.680000	121.520004	-17.150000	167.00	-0.02	-0.16	7.75	9.50	7.75	10.25	6.00	7.75	1.00	3.00	0.00	0.00	0.25	0.25	1.00	0.00	0.00	0.00	-0.086426	0.073242	0.991699	-0.770000	-23.100000	4.900000	591.00	-0.24	-0.10
0.51	0.50	0.50	0.75	2.00	0.25	1.00	0.50	1.50	1.00	0.75	1.00	0.75	1.50	1.50	0.00	0.50	-0.115723	0.074707	1.207031	36.680000	121.520004	-17.150000	152.00	0.02	-0.12	8.75	10.50	8.25	10.75	6.25	8.25	1.00	3.00	0.00	0.25	0.25	0.25	0.75	0.00	0.00	0.00	-0.062500	0.079590	0.980469	0.280000	-22.960001	4.410000	631.00	-0.24	-0.10
0.52	0.00	1.00	0.50	2.25	0.50	0.75	0.50	1.00	0.50	0.50	0.75	1.00	1.00	0.75	0.25	0.25	-0.130371	0.080566	1.178711	46.270000	154.350006	-23.379999	125.00	-0.01	-0.14	9.75	11.25	8.75	11.00	6.75	8.50	1.00	3.25	0.00	0.00	0.25	0.00	0.75	0.00	0.00	0.00	-0.065430	0.073242	0.977051	0.560000	-21.280001	3.780000	663.00	-0.25	-0.10
0.53	0.00	0.75	0.50	1.50	0.50	0.50	0.25	0.75	0.25	0.50	0.25	0.25	0.75	1.00	0.00	0.25	-0.072754	0.150879	1.384766	40.040001	214.199997	-31.850000	85.00	-0.02	-0.13	10.50	12.25	9.00	11.50	7.00	9.00	1.00	3.25	0.00	0.00	0.25	0.25	0.75	0.25	0.00	0.00	-0.052734	0.073242	0.979980	0.770000	-19.250000	3.010000	701.00	-0.25	-0.10
0.54	0.25	0.50	0.50	1.50	0.25	0.25	0.25	0.50	0.25	0.50	0.25	0.00	0.75	1.00	0.00	0.25	0.041992	0.052246	1.480469	46.410000	234.220001	-41.860001	74.00	-0.03	-0.10	11.50	12.75	9.50	12.00	7.25	9.25	1.00	3.50	0.00	0.00	0.25	0.25	1.25	0.00	0.00	0.00	-0.050781	0.071777	0.972168	1.400000	-17.010000	2.310000	739.00	-0.25	-0.10
0.55	0.00	0.50	0.75	1.75	0.25	0.00	0.25	0.25	0.25	0.00	0.00	0.00	0.50	0.25	0.00	0.25	-0.119629	0.333984	1.493652	69.160004	243.949997	-56.560001	54.00	-0.13	-0.11	12.00	13.25	9.50	12.25	7.25	9.50	1.00	3.50	0.25	0.25	0.25	0.00	1.00	0.00	0.00	0.00	-0.044922	0.078125	0.965332	1.680000	-13.930000	1.890000	755.00	-0.25	-0.09
0.56	0.25	0.50	0.25	1.50	0.25	0.00	0.25	0.00	0.50	0.25	0.00	0.25	0.25	0.75	0.00	0.25	-0.299316	0.502441	1.977539	102.340004	232.610001	-72.940002	55.00	-0.04	-0.04	12.75	14.00	10.00	12.50	7.50	9.75	1.00	3.75	0.00	0.00	0.00	0.25	1.25	0.00	0.00	0.00	-0.059570	0.080078	0.987793	2.100000	-10.920000	1.540000	784.00	-0.25	-0.10
0.57	0.00	0.75	0.50	1.75	0.25	0.00	0.25	0.00	0.00	0.00	0.00	0.00	0.00	0.25	0.00	0.25	-0.093262	0.451172	1.691406	144.410004	220.430008	-86.239998	42.00	0.00	0.00	13.25	14.25	10.00	12.50	7.50	9.75	1.00	4.00	0.00	0.00	0.00	0.00	1.25	0.00	0.00	0.00	-0.058105	0.077148	0.983887	3.080000	-9.100000	1.190000	792.00	-0.26	-0.10
0.58	0.25	0.75	0.25	1.50	0.25	0.00	0.25	0.00	0.00	0.00	0.00	0.00	0.00	0.00	0.00	0.25	1.121094	0.193848	1.851074	122.849998	197.050003	-93.730003	37.00	0.00	0.00	13.75	14.50	10.00	12.75	7.75	10.00	1.00	4.50	0.25	0.25	0.25	0.25	1.25	0.00	0.00	0.00	-0.052246	0.078125	0.986328	4.130000	-7.070000	1.050000	827.00	-0.25	-0.10
0.59	0.25	0.75	0.50	1.75	0.50	0.00	0.25	0.00	0.00	0.00	0.00	0.00	0.00	0.00	0.00	0.25	0.969727	0.628418	2.400391	36.400002	135.240005	-66.639999	45.00	0.00	0.00	13.50	14.50	9.75	12.75	7.75	10.25	1.00	4.75	0.00	0.00	0.25	0.25	1.25	0.00	0.00	0.00	-0.050293	0.099121	0.979004	4.410000	-4.760000	0.980000	822.00	-0.25	-0.10
0.60	0.25	0.75	0.50	1.50	0.25	0.00	0.25	0.00	0.00	0.00	0.00	0.00	0.00	0.00	0.00	0.25	1.332031	0.764648	1.520508	-13.510000	77.769997	-30.520000	39.00	0.00	0.00	13.75	14.50	10.00	12.50	7.50	10.25	1.00	5.00	0.00	0.25	0.25	0.50	1.50	0.00	0.00	0.00	-0.049805	0.094727	0.976074	3.570000	-1.540000	0.630000	833.00	-0.25	-0.10
0.61	0.25	0.75	0.50	1.50	0.00	0.00	0.25	0.00	0.00	0.00	0.00	0.00	0.00	0.00	0.00	0.25	1.240723	0.694824	1.044434	-5.600000	52.080002	-12.600000	37.00	0.00	0.00	13.00	14.25	9.75	12.50	7.50	10.25	1.00	5.25	0.00	0.25	0.25	0.50	1.50	0.00	0.00	0.00	-0.047852	0.096680	0.978516	2.590000	1.330000	0.420000	824.00	-0.24	-0.11
0.62	0.00	0.75	0.25	1.25	0.25	0.00	0.25	0.00	0.00	0.00	0.00	0.00	0.00	0.25	0.00	0.25	1.416504	0.486816	1.062012	24.710001	44.099998	-9.100000	33.00	0.00	0.00	12.50	13.75	9.50	12.25	7.50	10.25	1.00	5.25	0.00	0.00	0.25	0.25	2.00	0.00	0.00	0.00	-0.036133	0.095703	0.956055	1.120000	4.340000	0.140000	808.00	-0.24	-0.11
0.63	0.25	0.50	0.50	1.25	0.25	0.00	0.25	0.00	0.00	0.00	0.00	0.00	0.00	0.00	0.00	0.25	1.551758	0.300293	1.321777	34.230000	26.320000	-5.320000	34.00	0.00	0.00	12.25	13.50	9.50	12.25	7.50	10.25	1.00	5.50	0.25	0.25	0.50	0.25	2.00	0.00	0.00	0.00	-0.045410	0.105957	0.947266	-1.820000	7.980000	-0.280000	815.00	-0.23	-0.11
0.64	0.25	0.50	0.25	1.25	0.00	0.00	0.25	0.00	0.00	0.00	0.00	0.25	0.00	0.00	0.00	0.25	1.601562	0.150879	1.340820	29.540001	-4.060000	2.870000	31.00	0.00	0.00	11.75	13.25	9.25	12.00	7.25	10.00	1.00	5.50	0.00	0.50	0.50	0.50	2.25	0.00	0.00	0.00	-0.044922	0.105469	0.952637	-5.460000	11.410000	-0.840000	801.00	-0.23	-0.12
0.65	0.25	0.50	0.25	1.50	0.25	0.00	0.25	0.00	0.00	0.00	0.00	0.00	0.00	0.00	0.00	0.25	1.531738	-0.005859	1.266113	30.100000	-34.720001	10.640000	34.00	0.00	0.00	11.00	12.50	9.25	11.75	7.25	10.00	1.00	5.75	0.00	0.50	0.50	0.50	2.25	0.00	0.00	0.00	-0.051270	0.112305	0.952148	-9.870000	14.630000	-1.470000	787.00	-0.23	-0.12
0.66	0.00	1.00	0.25	1.50	0.00	0.00	0.25	0.00	0.00	0.00	0.00	0.00	0.00	0.00	0.00	0.25	1.437500	-0.182617	1.237793	31.219999	-60.970001	15.750000	34.00	0.00	0.00	10.50	11.75	9.00	11.50	7.25	10.00	1.25	5.75	0.25	0.50	0.50	0.50	2.75	0.00	0.00	0.00	-0.065430	0.099121	0.965332	-14.280000	17.150000	-1.680000	781.00	-0.22	-0.12
0.67	0.25	0.50	0.25	1.25	0.25	0.00	0.00	0.00	0.00	0.00	0.00	0.25	0.00	0.00	0.00	0.25	1.321289	-0.312012	1.282227	26.460001	-84.910004	18.620001	30.00	0.00	0.00	9.50	11.00	8.75	11.25	7.50	9.75	1.25	6.00	0.25	0.50	0.75	0.75	3.00	0.25	0.00	0.00	-0.069824	0.091797	0.982422	-21.210001	21.770000	-2.660000	772.00	-0.21	-0.12
0.68	0.25	0.75	0.50	1.25	0.00	0.00	0.25	0.00	0.00	0.00	0.00	0.00	0.00	0.25	0.00	0.25	1.203125	-0.380371	1.319824	17.710001	-107.940002	19.389999	36.00	0.00	0.00	9.00	10.50	8.50	11.00	7.50	9.50	1.25	6.25	0.50	0.75	1.00	0.75	3.50	0.00	0.00	0.00	-0.088867	0.076660	0.984863	-22.190001	22.049999	-2.940000	768.00	-0.20	-0.12
0.69	0.25	0.25	0.25	1.25	0.25	0.00	0.00	0.00	0.00	0.00	0.00	0.00	0.00	0.00	0.00	0.25	1.064453	-0.397949	1.363770	8.260000	-129.360001	18.830000	25.00	0.00	0.00	8.25	9.50	8.50	10.50	7.50	9.50	1.50	6.50	0.75	1.00	1.00	1.25	3.50	0.25	0.00	0.00	-0.087891	0.065918	0.988281	-20.090000	21.139999	-3.010000	767.00	-0.18	-0.12
0.70	0.25	0.50	0.25	1.25	0.00	0.00	0.00	0.00	0.00	0.00	0.00	0.00	0.00	0.00	0.00	0.25	0.913574	-0.370605	1.378418	-0.490000	-148.889999	18.410000	25.00	0.00	0.00	7.50	8.75	8.25	10.25	7.75	9.50	1.75	6.75	0.25	1.00	1.25	1.25	4.00	0.50	0.00	0.25	-0.108398	0.058105	1.003906	-16.240000	18.690001	-3.150000	761.00	-0.17	-0.13
0.71	0.25	0.75	0.00	1.00	0.25	0.00	0.00	0.00	0.00	0.00	0.00	0.00	0.00	0.00	0.00	0.25	0.756348	-0.312500	1.413086	-9.170000	-166.039993	18.620001	25.00	0.00	0.00	6.75	8.00	7.75	9.75	7.75	9.50	2.00	7.00	0.75	1.25	1.75	1.00	4.50	0.75	0.25	0.25	-0.088379	0.064453	0.987305	-13.300000	17.639999	-3.220000	763.00	-0.15	-0.13
0.72	0.25	0.50	0.25	1.25	0.00	0.00	0.00	0.00	0.00	0.00	0.00	0.00	0.00	0.00	0.00	0.00	0.597656	-0.238770	1.436523	-15.540000	-181.509995	19.530001	24.00	0.00	0.00	6.25	7.25	7.50	9.25	7.75	9.25	2.00	7.25	1.25	1.75	1.75	1.75	5.00	1.00	0.00	0.25	-0.116211	0.065918	1.004395	-10.850000	17.080000	-3.290000	767.00	-0.13	-0.13
0.73	0.25	0.25	0.25	1.25	0.00	0.00	0.00	0.00	0.00	0.00	0.00	0.00	0.00	0.25	0.00	0.25	0.262695	-0.161133	1.403809	-20.160000	-194.809998	21.139999	25.00	0.00	0.00	5.50	6.25	7.25	8.75	8.00	9.00	2.25	7.50	1.25	1.75	2.25	2.00	5.25	1.25	0.00	0.50	-0.104980	0.059082	0.989746	-8.750000	16.450001	-3.430000	763.00	-0.12	-0.13
0.74	0.25	1.00	0.25	1.25	0.25	0.00	0.00	0.00	0.00	0.00	0.00	0.00	0.00	0.00	0.00	0.25	0.103516	-0.017090	1.392578	-25.200001	-211.750000	25.200001	32.00	0.00	0.00	4.75	5.75	6.50	8.25	7.75	9.00	2.50	7.50	1.75	2.25	2.75	2.50	6.00	1.50	0.25	0.50	-0.113770	0.058594	0.997070	-7.070000	16.799999	-3.500000	772.00	-0.09	-0.13
0.75	0.00	0.75	0.00	1.25	0.25	0.00	0.00	0.00	0.00	0.00	0.00	0.00	0.00	0.00	0.00	0.25	-0.037109	0.056152	1.375977	-26.460001	-216.229996	28.139999	25.00	0.00	0.00	3.75	5.00	6.00	8.00	7.75	8.75	2.75	7.75	2.00	2.75	2.75	2.50	6.50	2.00	0.25	0.75	-0.126953	0.058105	0.993652	-5.320000	17.500000	-3.780000	769.00	-0.07	-0.13
0.76	0.25	0.50	0.25	1.25	0.00	0.00	0.00	0.00	0.00	0.00	0.00	0.00	0.00	0.25	0.00	0.25	-0.167969	0.135254	1.375488	-27.719999	-218.680008	32.549999	27.00	0.00	0.00	3.25	4.50	5.50	7.50	7.50	8.75	2.75	7.75	2.75	3.25	3.25	3.00	7.25	2.50	0.25	0.75	-0.106934	0.062988	0.976562	-3.850000	18.410000	-3.780000	782.00	-0.05	-0.13
0.77	0.00	0.75	0.25	1.25	0.00	0.00	0.00	0.00	0.00	0.00	0.00	0.00	0.00	0.00	0.00	0.25	-0.307129	0.220215	1.345703	-30.870001	-219.589996	39.900002	25.00	0.00	0.00	2.50	3.75	5.00	6.75	7.50	8.50	3.00	7.75	3.00	3.50	3.75	3.50	7.50	3.00	0.25	0.75	-0.115723	0.066406	0.984375	-3.080000	19.809999	-4.340000	778.00	-0.03	-0.13
0.78	0.00	0.50	0.00	1.50	0.00	0.00	0.25	0.00	0.25	0.00	0.00	0.00	0.00	0.00	0.00	0.25	-0.453125	0.299805	1.263184	-35.209999	-217.699997	50.470001	29.00	0.00	0.00	2.00	2.75	4.25	6.25	7.00	8.25	3.25	8.00	3.50	3.75	4.50	4.00	8.00	4.00	0.75	1.00	-0.111328	0.060059	0.993652	-2.660000	21.840000	-5.180000	790.00	-0.00	-0.13
0.79	0.25	0.75	0.00	1.25	0.00	0.00	0.25	0.00	0.00	0.00	0.00	0.00	0.00	0.00	0.00	0.00	-0.621582	0.359863	1.167480	-39.410000	-212.309998	62.650002	27.00	0.00	0.00	1.75	2.50	3.50	5.75	6.75	8.00	3.50	8.00	4.50	4.50	5.50	4.75	8.50	5.00	0.50	1.00	-0.104004	0.066406	0.991699	-1.960000	24.500000	-6.580000	820.00	0.02	-0.12
0.80	0.00	0.75	0.25	1.00	0.00	0.00	0.00	0.00	0.00	0.00	0.00	0.00	0.00	0.00	0.00	0.25	-0.817871	0.404297	1.069336	-42.630001	-203.350006	74.410004	22.00	0.00	0.00	1.50	2.00	3.00	5.50	6.25	7.75	3.75	8.25	5.25	5.00	6.25	5.75	8.75	5.25	0.50	1.00	-0.124512	0.063477	0.996582	-1.960000	28.070000	-7.490000	841.00	0.04	-0.12
0.81	0.00	0.50	0.25	1.00	0.00	0.00	0.25	0.00	0.00	0.00	0.00	0.00	0.00	0.00	0.00	0.25	-1.073242	0.400391	0.983398	-44.520000	-190.960007	83.860001	24.00	0.00	0.00	1.50	2.00	2.50	5.00	5.50	7.50	3.75	8.25	5.50	6.00	7.50	6.75	9.25	6.25	0.75	1.50	-0.129395	0.076660	0.991699	-2.170000	32.340000	-8.400000	875.00	0.06	-0.12
0.82	0.25	1.00	0.25	1.00	0.00	0.00	0.00	0.00	0.00	0.00	0.00	0.00	0.00	0.00	0.00	0.00	-1.418457	0.360840	0.919434	-45.430000	-174.720001	88.690002	26.00	0.00	0.00	1.25	1.75	2.00	4.75	5.25	6.75	4.00	8.25	6.50	6.75	8.00	7.75	9.50	7.00	0.75	1.50	-0.132812	0.088379	0.993652	-1.330000	35.910000	-9.870000	900.00	0.08	-0.11
0.83	0.25	0.25	0.00	1.00	0.25	0.00	0.00	0.00	0.00	0.00	0.00	0.00	0.00	0.00	0.00	0.00	-1.782227	0.334961	0.939453	-45.009998	-156.729996	87.150002	19.00	0.00	0.00	1.00	1.25	1.75	4.25	4.50	6.50	4.00	8.25	7.50	7.75	8.50	8.25	10.00	8.00	1.00	1.25	-0.094238	0.062012	1.007324	-0.630000	41.020000	-11.060000	921.00	0.10	-0.10
0.84	0.00	0.25	0.25	1.00	0.00	0.00	0.00	0.00	0.00	0.00	0.00	0.00	0.00	0.00	0.00	0.00	-2.145508	0.317383	0.900391	-43.959999	-139.020004	78.260002	16.00	0.00	0.00	0.50	1.25	1.25	3.25	3.50	5.75	4.00	8.00	7.50	8.00	9.00	8.50	10.25	9.00	1.00	1.75	-0.169922	0.066406	0.993164	4.760000	44.170002	-12.460000	901.00	0.12	-0.10
0.85	0.00	0.25	0.25	1.25	0.00	0.00	0.00	0.00	0.00	0.00	0.00	0.00	0.00	0.00	0.00	0.25	-2.478027	0.323242	0.810059	-42.279999	-120.120003	62.299999	20.00	0.00	0.00	0.00	0.75	1.00	3.00	3.00	5.50	4.00	8.00	8.00	8.75	9.50	9.00	10.50	10.25	1.25	2.00	-0.121582	0.057617	1.072754	8.190000	50.820000	-9.870000	919.00	0.14	-0.10
0.86	0.25	0.25	0.25	1.25	0.00	0.00	0.00	0.00	0.00	0.00	0.00	0.00	0.00	0.00	0.00	0.25	-2.735352	0.377930	0.669434	-40.670002	-100.519997	40.950001	23.00	0.00	0.00	0.50	1.00	0.75	2.25	2.00	5.00	3.75	8.00	8.75	9.00	10.00	9.50	10.75	11.75	1.50	2.25	-0.183594	0.078125	1.062012	9.730000	59.570000	-9.030000	937.00	0.15	-0.09
0.87	0.25	0.50	0.00	0.75	0.00	0.00	0.00	0.00	0.00	0.00	0.00	0.00	0.00	0.00	0.00	0.25	-2.971680	0.425293	0.430664	-38.500000	-76.790001	16.870001	17.00	0.00	0.00	0.25	1.00	0.50	2.50	1.50	4.25	3.50	7.75	9.00	9.50	10.50	10.00	11.00	13.50	1.75	2.50	-0.201172	0.046875	1.103027	11.130000	71.750000	-9.100000	953.00	0.16	-0.09
0.88	0.00	0.25	0.25	0.75	0.00	0.00	0.00	0.00	0.00	0.00	0.25	0.00	0.00	0.00	0.00	0.00	-3.130859	0.538086	0.183105	-36.119999	-45.570000	-8.540000	16.00	0.00	0.00	0.25	0.25	0.50	1.75	1.25	3.00	3.25	7.50	9.50	9.75	11.00	10.25	11.00	15.25	2.25	3.00	-0.198730	0.099609	1.065918	15.820000	101.989998	-10.220000	954.00	0.19	-0.08
0.89	0.00	0.25	0.00	0.75	0.00	0.00	0.00	0.00	0.00	0.00	0.00	0.00	0.00	0.00	0.00	0.25	-3.168457	0.667969	0.036133	-30.730000	-9.450000	-32.270000	12.00	0.00	0.00	0.25	0.50	0.50	1.25	0.75	2.25	2.75	7.00	9.75	10.25	11.50	10.50	11.25	16.75	2.50	3.25	-0.261719	0.139160	1.096191	16.100000	118.720001	-12.670000	957.00	0.20	-0.08
0.90	0.25	0.00	0.00	1.00	0.00	0.00	0.00	0.00	0.00	0.00	0.00	0.00	0.00	0.00	0.00	0.25	-2.844727	0.841309	-0.116699	3.990000	62.790001	-60.900002	15.00	0.00	0.00	0.25	0.00	0.25	1.50	0.50	1.50	2.50	6.25	9.75	10.50	11.75	10.50	11.00	18.25	2.75	3.50	-0.314941	0.125000	1.090820	14.210000	136.779999	-15.750000	946.00	0.21	-0.07
0.91	0.25	0.50	0.25	0.75	0.00	0.00	0.00	0.00	0.00	0.00	0.00	0.00	0.00	0.00	0.00	0.25	-2.844727	0.841309	-0.116699	3.990000	62.790001	-60.900002	20.00	0.00	0.00	0.25	0.00	0.00	0.50	0.25	1.00	2.00	5.50	9.75	10.75	11.75	10.50	10.75	19.75	3.25	4.00	-0.285645	0.095215	1.167969	14.140000	155.889999	-17.570000	926.00	0.23	-0.06
0.92	0.50	1.25	0.50	2.25	0.00	0.00	0.25	0.00	0.00	0.00	0.00	0.00	0.00	0.00	0.00	0.25	-3.358887	-1.502441	0.191895	-10.290000	96.389999	-34.369999	52.00	-0.28	-0.11	0.00	0.50	0.00	0.75	0.00	0.50	1.50	5.00	10.00	10.75	12.00	10.75	10.25	21.00	3.75	4.00	-0.270020	0.107910	1.140625	12.740000	174.229996	-17.780001	928.00	0.24	-0.06
0.93	1.50	2.75	1.75	3.00	0.50	0.00	0.25	0.00	0.00	0.00	0.00	0.00	0.00	0.00	0.00	0.25	0.476562	-0.358398	1.175293	-11.480000	150.080002	52.150002	104.00	-0.30	-0.07	0.00	0.00	0.00	0.25	0.00	0.25	1.25	3.75	10.00	10.75	12.00	10.50	10.00	21.75	4.50	4.25	-0.304688	0.125000	1.246582	16.100000	190.399994	-20.440001	903.00	0.25	-0.05
0.94	4.00	7.25	2.75	4.50	0.50	0.00	0.00	0.00	0.00	0.00	0.00	0.00	0.00	0.00	0.00	0.25	-0.317871	-0.358398	1.175293	-11.480000	150.080002	52.150002	195.00	-0.34	-0.08	0.00	0.00	0.00	0.50	0.00	0.00	0.75	2.50	9.75	10.75	11.75	10.25	9.25	22.75	5.25	4.00	-0.424805	0.140625	1.052734	10.010000	220.220001	-23.170000	876.00	0.27	-0.04
0.95	8.00	11.25	4.25	5.75	0.75	0.00	0.00	0.00	0.00	0.00	0.00	0.00	0.00	0.00	0.00	0.25	-0.534180	-0.715820	2.628906	23.520000	223.300003	-19.879999	306.00	-0.35	-0.06	0.00	0.00	0.00	0.00	0.00	0.00	0.50	1.75	9.75	10.75	11.75	10.00	8.75	23.25	5.25	4.00	-0.518066	0.062500	1.303711	-4.270000	256.480011	-24.570000	853.00	0.27	-0.03
0.96	10.75	15.25	6.25	7.50	1.25	0.00	0.25	0.00	0.00	0.00	0.00	0.00	0.00	0.00	0.00	0.25	-0.884766	0.628906	2.655762	37.660000	180.529999	-40.740002	423.00	-0.35	-0.05	0.00	0.00	0.00	0.00	0.00	0.00	0.25	1.00	9.25	10.50	11.25	9.75	8.00	23.75	5.75	3.75	-0.497559	0.123535	1.367188	-18.200001	299.110016	-26.180000	822.00	0.28	-0.02
0.97	12.75	17.00	7.25	9.00	1.50	0.75	0.25	0.00	0.00	0.00	0.00	0.00	0.00	0.00	0.00	0.25	-0.377441	0.844727	1.571289	16.170000	137.059998	-17.010000	498.00	-0.34	-0.05	0.25	0.00	0.00	0.00	0.00	0.00	0.00	0.50	9.00	10.50	11.00	9.25	6.75	23.75	5.75	3.00	-0.663086	0.152832	1.355469	-32.060001	332.010010	-30.240000	788.00	0.29	-0.01
0.98	13.75	18.25	8.25	9.75	2.00	1.25	0.25	0.00	0.00	0.00	0.00	0.00	0.00	0.00	0.00	0.25	-0.084473	-0.120117	0.937012	-2.170000	125.510002	4.480000	550.00	-0.34	-0.05	0.00	0.00	0.00	0.00	0.00	0.00	0.00	0.25	8.50	10.00	10.50	8.50	5.25	23.50	5.75	2.75	-0.775391	0.211914	1.714355	-45.990002	364.839996	-36.610001	740.00	0.29	0.00
0.99	16.00	20.00	9.25	11.25	2.75	2.25	0.50	0.00	0.00	0.00	0.00	0.00	0.00	0.00	0.00	0.25	-0.363770	-0.295898	1.543945	-7.910000	122.919998	-6.020000	640.00	-0.33	-0.05	0.00	0.00	0.00	0.00	0.00	0.00	0.00	0.00	7.75	9.50	10.00	7.50	4.50	22.75	5.50	2.00	-1.139648	0.662109	2.492188	-44.170002	382.690002	-44.660000	686.00	0.30	0.01
1.00	17.25	21.50	10.00	13.25	4.25	3.75	0.50	0.25	0.00	0.00	0.00	0.00	0.00	0.00	0.00	0.25	-0.502930	0.331543	1.950684	-17.570000	85.750000	-14.560000	734.00	-0.32	-0.06	0.00	0.00	0.00	0.00	0.00	0.00	0.00	0.00	6.75	9.00	9.00	6.75	3.00	21.25	5.00	1.50	-0.804688	1.055176	1.355957	0.980000	405.299988	-66.779999	615.00	0.30	0.02
1.01	17.25	22.00	10.75	14.00	5.50	4.50	0.75	0.50	0.00	0.00	0.00	0.00	0.25	0.25	0.00	0.25	-0.240234	0.347656	1.072754	-34.090000	46.060001	-6.930000	789.00	-0.31	-0.06	0.00	0.00	0.00	0.00	0.00	0.00	0.00	0.00	6.00	8.00	7.75	5.50	1.50	19.00	4.00	0.50	-1.244141	-0.510254	1.953125	-14.350000	424.269989	-90.650002	520.00	0.30	0.04
1.02	18.50	22.75	11.50	15.00	6.25	5.50	0.75	1.00	0.00	0.00	0.00	0.00	0.25	0.00	0.00	0.25	-0.083496	-0.049316	1.014160	-42.980000	41.790001	-2.800000	852.00	-0.31	-0.07	0.00	0.00	0.00	0.00	0.00	0.00	0.00	0.00	5.00	7.25	6.25	3.50	0.50	16.00	3.00	0.25	-0.985352	0.845215	2.582520	-18.549999	454.230011	-87.430000	417.00	0.31	0.06
1.03	18.25	22.75	11.75	15.50	7.00	6.50	0.75	1.25	0.25	0.25	0.00	0.25	0.50	0.50	0.00	0.25	-0.276367	0.004395	1.234375	-30.309999	31.570000	-5.670000	896.00	-0.29	-0.07	0.00	0.00	0.00	0.00	0.00	0.00	0.00	0.00	3.25	5.25	4.00	2.25	0.25	12.00	1.50	0.00	-0.994141	0.502930	2.898926	35.349998	476.700012	-99.610001	283.00	0.31	0.07
1.04	18.50	22.75	12.50	15.75	7.50	7.50	1.00	1.50	0.50	0.25	0.00	0.25	0.50	0.50	0.00	0.25	-0.193359	0.104004	1.007812	-12.460000	19.389999	-4.060000	937.00	-0.29	-0.07	0.00	0.00	0.00	0.00	0.00	0.00	0.00	0.00	2.25	3.75	2.50	1.25	0.00	8.25	0.50	0.00	-0.877441	0.458984	3.480469	45.009998	482.089996	-121.870003	183.00	0.31	0.09
1.05	17.50	22.50	12.25	15.75	7.75	8.00	1.00	2.00	0.75	0.25	0.25	0.25	1.00	0.75	0.00	0.25	-0.111328	0.054688	0.938965	-9.170000	19.670000	-3.010000	950.00	-0.27	-0.07	0.00	0.00	0.00	0.00	0.00	0.25	0.25	0.00	1.50	2.75	2.00	1.25	0.00	4.25	0.25	0.00	-0.449707	0.768555	3.164551	13.790000	496.860016	-145.600006	128.00	0.28	0.06
1.06	17.00	21.50	12.25	15.50	8.25	8.50	1.00	2.50	0.50	0.50	0.00	0.50	1.00	0.75	0.00	0.25	-0.189941	0.095703	1.042969	-11.060000	18.900000	-3.430000	950.00	-0.27	-0.08	0.00	0.00	0.00	0.00	0.00	0.00	0.50	0.00	1.00	1.75	1.00	0.25	0.00	1.50	0.25	0.00	0.515137	1.011719	2.862305	24.570000	519.470032	-172.339996	67.00	0.26	0.10
1.07	16.25	20.75	12.00	15.00	8.50	8.50	1.25	2.75	1.00	0.50	0.50	0.50	1.00	1.00	0.00	0.50	-0.184082	0.030762	1.020020	-9.310000	16.940001	-2.660000	953.00	-0.25	-0.07	0.00	0.00	0.00	0.00	0.00	0.25	0.50	0.00	0.50	1.25	0.75	0.00	0.00	0.75	0.00	0.00	1.037598	1.595703	2.953125	11.760000	511.559998	-196.210007	44.00	0.00	0.00
1.08	15.00	20.00	11.75	15.00	8.75	8.50	1.25	2.75	0.75	0.75	0.25	0.50	1.25	1.25	0.00	0.50	-0.168457	0.061523	0.979004	-7.420000	15.820000	-2.030000	934.00	-0.25	-0.08	0.00	0.00	0.00	0.00	0.00	0.00	0.50	0.00	0.50	1.25	0.50	0.25	0.00	0.25	0.00	0.00	1.926270	2.105469	4.798340	-37.939999	113.610001	-117.949997	37.00	0.00	0.00
1.09	13.75	19.00	11.50	14.25	8.75	8.75	1.25	3.25	1.00	1.00	1.00	0.50	1.50	1.00	0.00	0.25	-0.159180	0.050781	0.994141	-6.580000	17.360001	-0.980000	924.00	-0.24	-0.08	0.00	0.00	0.00	0.00	0.00	0.25	0.50	0.00	0.50	1.00	0.75	0.00	0.00	0.00	0.00	0.00	1.487305	1.685547	3.070312	-33.040001	-68.180000	89.879997	35.00	0.00	0.00
1.10	12.25	17.25	11.00	13.50	8.75	8.50	1.25	3.50	1.00	0.75	0.75	0.50	1.50	1.25	0.00	0.25	-0.155273	0.039062	0.986816	-5.320000	19.320000	-0.420000	876.00	-0.23	-0.08	0.00	0.00	0.00	0.00	0.00	0.00	0.25	0.00	0.25	1.25	0.75	0.00	0.00	0.25	0.00	0.00	1.154785	1.098145	1.591309	-23.730000	-107.239998	147.419998	30.00	0.00	0.00
1.11	11.00	15.50	10.50	12.75	8.50	8.50	1.50	4.00	1.50	1.00	1.00	0.75	1.50	1.25	0.00	0.50	-0.162598	0.036621	0.994141	-3.990000	21.420000	0.140000	858.00	-0.21	-0.08	0.00	0.00	0.00	0.00	0.00	0.00	0.50	0.00	0.00	1.25	0.50	0.00	0.00	0.00	0.00	0.00	1.079590	0.603027	1.461914	-8.540000	-88.410004	167.300003	26.00	0.00	0.00
1.12	9.00	13.75	9.75	11.75	8.25	8.25	1.50	3.75	1.50	0.75	0.75	0.75	1.50	1.00	0.00	0.50	-0.161133	0.031250	0.961914	-2.870000	22.680000	0.070000	785.00	-0.21	-0.09	0.25	0.00	0.00	0.00	0.00	0.00	0.25	0.00	0.25	1.00	0.50	0.00	0.00	0.00	0.00	0.00	1.306641	0.178711	2.025391	1.750000	-94.709999	161.000000	25.00	0.00	0.00
1.13	8.00	11.50	9.00	10.50	7.75	8.00	1.50	4.00	1.25	1.25	1.00	0.75	1.50	1.25	0.25	0.50	-0.168945	0.030762	0.960449	-2.170000	23.799999	-0.350000	737.00	-0.19	-0.09	0.00	0.00	0.00	0.00	0.00	0.00	0.25	0.00	0.25	0.50	0.50	0.00	0.00	0.00	0.00	0.00	1.453125	-0.064453	2.362793	3.570000	-143.710007	141.470001	17.00	0.00	0.00
1.14	7.00	9.75	8.50	9.75	7.25	7.50	1.50	4.00	1.75	1.25	1.00	1.00	2.00	1.50	0.25	0.50	-0.166992	0.034668	0.969727	-0.700000	26.110001	-1.820000	701.00	-0.17	-0.09	0.00	0.00	0.00	0.00	0.00	0.00	0.25	0.00	0.00	0.50	0.25	0.00	0.00	0.00	0.00	0.00	1.345703	-0.263184	2.285156	-4.620000	-214.130005	117.599998	12.00	0.00	0.00
1.15	5.75	8.25	7.75	8.75	6.75	7.25	1.50	3.75	2.00	1.25	1.00	1.00	1.75	1.50	0.25	0.50	-0.166992	0.034668	0.969727	-0.700000	26.110001	-1.820000	644.00	-0.16	-0.09	0.00	0.00	0.00	0.00	0.00	0.00	0.25	0.00	0.00	0.75	0.25	0.00	0.00	0.00	0.00	0.00	1.147461	-0.354004	1.963867	-14.350000	-276.149994	92.820000	14.00	0.00	0.00
1.16	4.75	7.00	7.00	8.00	6.25	6.75	1.50	3.75	1.75	1.50	1.25	1.00	2.00	1.25	0.00	0.50	-0.165039	0.039551	0.966309	-0.070000	27.510000	-2.800000	594.00	-0.15	-0.09	0.00	0.00	0.25	0.25	0.00	0.00	0.25	0.00	0.00	0.50	0.00	0.00	0.00	0.00	0.00	0.00	0.925781	-0.389648	1.748047	-20.090000	-318.920013	69.720001	15.00	0.00	0.00
1.17	4.00	6.00	6.25	7.25	5.75	6.25	1.50	3.75	2.00	1.50	1.50	1.25	2.25	1.75	0.25	0.50	-0.171875	0.048828	0.961914	-0.350000	28.139999	-2.870000	567.00	-0.12	-0.09	0.00	0.00	0.00	0.00	0.00	0.00	0.25	0.00	0.00	0.50	0.00	0.00	0.00	0.00	0.00	0.00	0.735352	-0.399902	1.656738	-22.820000	-348.880005	49.279999	9.00	0.00	0.00
1.18	3.25	5.50	5.25	6.50	5.25	6.00	1.75	3.75	2.25	2.00	1.50	1.00	2.25	1.75	0.25	0.50	-0.180664	0.042480	0.962891	-0.840000	28.210001	-2.940000	537.00	-0.11	-0.09	0.00	0.00	0.00	0.00	0.00	0.00	0.25	0.00	0.00	0.50	0.00	0.00	0.00	0.00	0.00	0.00	0.552246	-0.377441	1.605469	-26.740000	-374.149994	31.990000	9.00	0.00	0.00
1.19	2.75	4.25	4.50	5.75	5.00	5.50	1.75	3.50	2.75	2.00	1.50	1.50	2.25	1.75	0.25	0.50	-0.172852	0.052734	0.953125	-1.470000	28.280001	-3.360000	503.00	-0.08	-0.09	0.00	0.00	0.00	0.00	0.00	0.00	0.25	0.00	0.00	0.00	0.00	0.00	0.00	0.00	0.00	0.00	0.351562	-0.298340	1.595215	-31.500000	-395.709991	19.250000	4.00	0.00	0.00
1.20	2.00	3.75	4.00	5.25	4.25	5.00	1.75	3.75	2.50	2.00	1.75	1.50	2.50	1.75	0.25	0.75	-0.203125	0.042969	0.957031	-1.750000	28.000000	-4.690000	473.00	-0.06	-0.10	0.00	0.00	0.00	0.00	0.00	0.00	0.25	0.00	0.00	0.25	0.00	0.00	0.00	0.00	0.00	0.00	0.168457	-0.208008	1.600586	-36.330002	-413.000000	11.620000	6.00	0.00	0.00
1.21	1.75	3.25	3.25	4.75	4.00	4.25	1.75	3.50	3.50	2.50	2.00	1.75	2.50	2.00	0.50	0.50	-0.206055	0.051758	0.950684	-1.330000	27.230000	-7.210000	464.00	-0.03	-0.08	0.00	0.00	0.00	0.00	0.00	0.00	0.25	0.00	0.00	0.25	0.00	0.00	0.00	0.00	0.00	0.00	0.005859	-0.096680	1.609375	-40.320000	-426.790009	9.030000	6.00	0.00	0.00
1.22	1.25	2.75	3.00	4.25	3.50	4.25	1.75	3.50	3.75	2.75	2.50	2.25	3.00	2.25	0.50	0.75	-0.203125	0.035645	0.946289	0.280000	26.809999	-10.430000	465.00	-0.00	-0.09	0.00	0.00	0.00	0.00	0.00	0.00	0.25	0.00	0.00	0.25	0.00	0.00	0.00	0.00	0.00	0.00	-0.125488	0.009277	1.656250	-42.980000	-437.360016	10.640000	6.00	0.00	0.00
1.23	1.25	2.25	2.25	4.00	3.00	3.75	1.75	4.00	4.50	2.75	2.75	2.50	3.25	2.25	0.50	0.75	-0.194824	0.027344	0.942871	3.500000	27.370001	-12.460000	463.00	0.02	-0.09	0.00	0.00	0.00	0.25	0.00	0.00	0.50	0.00	0.00	0.00	0.00	0.00	0.00	0.00	0.00	0.00	-0.246094	0.126465	1.748535	-43.470001	-444.920013	15.470000	10.00	0.00	0.00
1.24	1.00	2.00	2.25	3.50	3.00	3.50	1.75	4.25	4.50	3.00	3.25	2.75	3.50	2.75	0.25	0.75	-0.225098	0.053223	0.935059	6.510000	28.840000	-13.230000	468.00	0.03	-0.09	0.00	0.00	0.00	0.00	0.00	0.00	0.25	0.00	0.00	0.00	0.00	0.00	0.00	0.00	0.00	0.00	-0.484863	0.225586	2.046387	-41.930000	-450.519989	22.820000	4.00	0.00	0.00
1.25	1.00	1.00	1.75	3.25	2.50	3.25	1.75	4.25	5.25	3.50	3.75	3.25	5.00	3.25	0.75	1.00	-0.229492	0.044434	0.937012	8.400000	30.450001	-12.950000	492.00	0.07	-0.09	0.00	0.00	0.00	0.00	0.00	0.00	0.25	0.00	0.00	0.25	0.00	0.00	0.00	0.00	0.00	0.00	-0.484863	0.270020	2.046387	-38.570000	-455.209991	31.360001	6.00	0.00	0.00
1.26	0.75	1.25	1.50	3.00	2.50	3.25	2.00	4.75	6.50	4.50	5.25	3.75	5.50	4.50	0.75	1.25	-0.182129	0.034668	0.931152	9.450000	32.900002	-11.970000	561.00	0.10	-0.08	0.00	0.00	0.00	0.00	0.00	0.00	0.25	0.00	0.00	0.25	0.00	0.00	0.00	0.00	0.00	0.00	-0.605957	0.265625	2.233398	-34.860001	-459.130005	37.380001	6.00	0.00	0.00
1.27	0.75	1.25	1.00	2.75	2.25	2.75	2.00	5.00	7.75	5.75	6.50	4.50	6.25	5.25	0.75	1.25	-0.183594	0.041992	0.943359	9.730000	37.660000	-11.550000	612.00	0.12	-0.08	0.00	0.00	0.00	0.00	0.00	0.00	0.25	0.00	0.00	0.25	0.00	0.00	0.00	0.00	0.00	0.00	-0.738281	0.250488	2.509277	-28.210001	-461.089996	37.450001	6.00	0.00	0.00
1.28	0.75	1.00	1.25	2.75	2.00	2.50	2.25	5.25	8.50	7.50	7.75	5.75	6.75	6.50	1.00	1.50	-0.197266	0.065918	0.959961	9.170000	44.450001	-12.460000	688.00	0.14	-0.07	0.00	0.00	0.25	0.25	0.00	0.00	0.50	0.00	0.00	0.00	0.00	0.00	0.00	0.00	0.00	0.00	-1.441895	0.446289	3.127441	0.210000	-465.920013	18.620001	13.00	0.00	0.00
1.29	0.50	1.00	1.00	2.50	1.75	2.50	2.50	5.25	9.25	8.25	8.50	7.00	7.00	8.00	1.25	1.75	-0.200195	0.051270	1.004395	8.540000	53.549999	-15.050000	738.00	0.15	-0.06	0.00	0.00	0.00	0.00	0.00	0.00	0.25	0.00	0.00	0.00	0.00	0.00	0.00	0.00	0.00	0.00	-2.093750	0.508789	3.231445	25.059999	-472.080017	13.160000	4.00	0.00	0.00
1.30	0.50	0.75	1.00	2.25	1.50	2.25	2.50	5.25	10.00	9.00	9.50	7.75	7.75	9.00	1.50	2.25	-0.282715	0.061523	0.995605	8.610000	64.260002	-18.200001	784.00	0.17	-0.06	0.00	0.00	0.00	0.00	0.00	0.00	0.25	0.00	0.00	0.00	0.00	0.00	0.00	0.00	0.00	0.00	-2.832031	0.434570	3.165527	41.439999	-472.779999	17.290001	4.00	0.00	0.00
1.31	0.50	0.75	1.00	1.75	1.25	1.75	2.50	5.25	10.50	9.75	10.50	8.50	8.00	10.50	1.75	2.75	-0.268555	0.062988	1.016602	10.150000	74.550003	-20.370001	824.00	0.18	-0.06	0.00	0.00	0.00	0.00	0.00	0.00	0.50	0.00	0.00	0.00	0.00	0.00	0.00	0.00	0.00	0.00	-3.664062	0.222168	2.914551	46.200001	-458.709991	31.710001	8.00	0.00	0.00
1.32	0.50	0.75	0.25	1.75	1.00	1.25	2.25	5.25	11.50	10.25	11.25	9.25	8.25	11.75	2.25	3.75	-0.289551	0.084961	1.003906	13.790000	86.029999	-22.820000	861.00	0.20	-0.06	0.00	0.00	0.00	0.00	0.00	0.00	0.50	0.00	0.00	0.00	0.00	0.00	0.00	0.00	0.00	0.00	-4.359863	0.086914	2.369141	37.170002	-430.709991	52.009998	8.00	0.00	0.00
1.33	0.25	0.25	0.25	1.25	1.00	0.75	2.25	5.25	12.00	10.75	12.25	9.75	8.75	13.00	2.75	4.75	-0.339844	0.078613	0.998047	18.129999	95.199997	-24.639999	896.00	0.21	-0.05	0.00	0.00	0.00	0.00	0.00	0.00	0.25	0.00	0.00	0.25	0.00	0.00	0.00	0.00	0.00	0.00	-4.850098	0.012207	1.715820	22.120001	-387.450012	75.879997	6.00	0.00	0.00
1.34	0.00	0.25	0.00	1.00	0.50	0.75	2.00	5.00	12.50	11.50	13.00	10.75	9.00	14.50	2.75	5.25	-0.301270	0.041504	1.029785	21.420000	103.040001	-23.100000	925.00	0.22	-0.05	0.00	0.00	0.00	0.00	0.00	0.00	0.25	0.00	0.00	0.25	0.00	0.00	0.00	0.00	0.00	0.00	-4.931641	-0.003906	1.071777	2.940000	-335.579987	101.360001	6.00	0.00	0.00
1.35	0.25	0.25	0.00	1.00	0.50	0.50	1.75	4.50	12.75	11.75	13.50	11.25	9.25	16.00	3.25	5.50	-0.355469	0.077637	1.065430	26.809999	115.290001	-21.139999	952.00	0.23	-0.05	0.00	0.00	0.00	0.00	0.00	0.00	0.25	0.00	0.00	0.00	0.00	0.00	0.00	0.00	0.00	0.00	-4.482910	0.059082	0.314453	-21.139999	-279.299988	129.779999	4.00	0.00	0.00
1.36	0.25	0.00	0.00	1.25	0.25	0.25	1.25	4.25	13.00	12.50	14.25	11.75	9.25	17.00	4.25	6.00	-0.353516	0.091797	1.143555	34.650002	157.360001	-22.820000	981.00	0.24	-0.05	0.00	0.00	0.00	0.00	0.00	0.00	0.50	0.00	0.00	0.25	0.00	0.00	0.00	0.00	0.00	0.00	-5.136230	0.074707	0.076660	-35.000000	-220.149994	157.850006	10.00	0.00	0.00
1.37	0.00	0.00	0.00	0.75	0.00	0.00	1.00	3.75	13.25	12.50	14.75	12.25	9.00	18.00	5.00	6.25	-0.362793	0.105957	1.223633	39.130001	175.979996	-24.570000	986.00	0.25	-0.05	0.00	0.00	0.00	0.00	0.00	0.00	0.50	0.00	0.00	0.50	0.00	0.00	0.00	0.00	0.00	0.00	-5.823242	0.339355	-0.497559	-41.860001	-169.470001	145.740005	13.00	0.00	0.00
1.38	0.00	0.00	0.00	0.75	0.00	0.00	0.75	3.00	13.25	12.50	15.00	12.00	8.75	18.75	5.25	6.50	-0.379395	0.083008	1.234863	34.580002	204.190002	-26.950001	979.00	0.25	-0.04	0.00	0.00	0.00	0.00	0.00	0.00	0.25	0.00	0.00	0.25	0.00	0.00	0.00	0.00	0.00	0.00	-6.098145	0.352539	-1.181152	10.780000	-112.000000	113.680000	6.00	0.00	0.00
1.39	0.00	0.00	0.00	0.25	0.00	0.00	0.25	2.50	13.25	12.50	15.00	12.00	8.25	19.75	5.75	6.75	-0.464844	0.163086	1.193359	28.910000	239.680008	-29.610001	969.00	0.26	-0.04	0.00	0.00	0.00	0.25	0.00	0.00	0.25	0.00	0.00	0.00	0.00	0.00	0.00	0.00	0.00	0.00	-5.734375	-0.094238	-1.397949	84.279999	-33.320000	88.760002	7.00	0.00	0.00
1.40	0.00	0.00	0.00	0.50	0.00	0.00	0.00	2.25	13.00	12.75	15.00	12.00	7.75	20.25	6.00	6.75	-0.568848	0.153320	1.178711	22.889999	274.260010	-33.950001	966.00	0.27	-0.03	0.00	0.00	0.00	0.00	0.00	0.00	0.25	0.00	0.00	0.00	0.25	0.00	0.00	0.00	0.00	0.00	-5.100586	-0.413086	-0.961426	112.489998	56.770000	80.639999	6.00	0.00	0.00
1.41	0.00	0.00	0.00	0.00	0.00	0.00	0.00	1.75	12.75	12.50	14.75	11.75	7.25	20.50	6.25	6.50	-0.533691	0.256836	1.335938	20.160000	310.940002	-40.110001	941.00	0.27	-0.03	0.50	0.25	0.50	1.00	0.00	0.00	0.25	0.00	0.00	0.00	0.00	0.00	0.00	0.00	0.00	0.00	-4.508789	0.153809	0.294434	72.239998	286.860016	103.389999	28.00	0.00	0.00
1.42	0.00	0.00	0.00	0.00	0.00	0.00	0.00	1.50	12.25	12.00	14.25	11.25	6.50	20.50	6.25	6.50	-0.629395	0.080078	1.630371	17.430000	352.940002	-43.959999	908.00	0.28	-0.02	3.25	4.25	2.00	3.25	0.25	0.00	0.50	0.00	0.00	0.00	0.00	0.00	0.00	0.00	0.00	0.00	0.409668	-0.197754	-0.496582	16.100000	294.980011	69.720001	141.00	-0.32	-0.05
1.43	0.00	0.00	0.00	0.00	0.00	0.00	0.00	1.00	11.25	11.75	14.00	10.50	5.75	20.50	6.00	6.00	-0.847168	0.148926	1.621582	8.050000	391.579987	-45.990002	862.00	0.28	-0.02	10.50	11.50	4.00	6.50	0.25	0.00	0.25	0.00	0.00	0.00	0.00	0.00	0.00	0.00	0.00	0.00	0.980957	-1.089844	0.890625	39.830002	206.360001	53.760002	337.00	-0.36	-0.05
1.44	0.00	0.00	0.00	0.00	0.00	0.00	0.00	0.75	10.25	10.75	13.00	9.50	5.25	19.75	6.00	5.75	-0.930664	0.298340	1.779785	6.090000	447.929993	-42.490002	802.00	0.28	-0.02	17.00	17.25	7.50	9.50	0.75	0.00	0.50	0.00	0.00	0.00	0.00	0.00	0.00	0.00	0.00	0.00	-0.983887	-0.996094	1.054199	63.209999	267.959991	1.960000	538.00	-0.35	-0.04
1.45	0.00	0.00	0.00	0.00	0.00	0.00	0.00	0.50	8.75	9.75	11.50	8.50	3.50	19.00	5.50	5.00	-1.034180	0.353027	2.499512	24.290001	496.720001	-46.270000	711.00	0.29	-0.01	19.75	19.50	9.50	11.50	2.25	1.75	0.50	0.00	0.00	0.00	0.00	0.00	0.00	0.00	0.00	0.00	-1.542969	0.210449	5.049316	50.959999	417.410004	-43.330002	667.00	-0.34	-0.04
1.46	0.00	0.00	0.00	0.00	0.00	0.00	0.00	0.25	7.50	8.25	9.75	7.00	2.50	16.75	4.75	3.75	-1.186523	0.650391	2.756348	42.420002	537.320007	-52.500000	598.00	0.29	0.00	21.00	20.50	11.25	12.75	5.00	3.75	0.75	0.25	0.00	0.00	0.00	0.00	0.50	0.00	0.00	0.00	-1.443359	0.973633	4.854980	59.849998	316.750000	-35.420002	787.00	-0.32	-0.05
1.47	0.00	0.00	0.00	0.00	0.00	0.00	0.00	0.00	5.75	6.25	7.75	5.50	1.50	14.00	3.50	2.50	-1.523926	0.667969	3.325195	84.070000	570.500000	-55.720001	462.00	0.30	0.01	21.00	20.00	11.50	13.00	6.25	5.00	0.75	0.75	0.00	0.00	0.00	0.00	0.50	0.00	0.00	0.00	-0.901367	0.624023	2.536621	-37.730000	170.100006	-14.770000	822.00	-0.31	-0.05
1.48	0.00	0.00	0.00	0.00	0.00	0.00	0.00	0.00	3.75	3.50	4.75	3.75	1.00	10.50	2.00	1.50	-1.152832	0.543457	4.076172	156.520004	600.109985	-56.209999	302.00	0.30	0.02	20.25	19.50	11.75	13.25	7.00	6.00	1.00	1.25	0.00	0.00	0.00	0.00	0.50	0.00	0.00	0.00	-0.208496	-0.316406	1.267090	-58.170002	88.620003	-5.460000	846.00	-0.30	-0.06
1.49	0.00	0.00	0.00	0.00	0.00	0.00	0.00	0.00	2.75	2.75	2.75	2.25	0.75	6.75	0.75	1.00	-0.921387	0.394043	4.083008	198.309998	614.950012	-69.860001	194.00	0.30	0.03	19.50	19.00	12.00	13.75	7.75	7.00	1.00	2.00	0.00	0.25	0.50	0.25	1.00	0.00	0.00	0.00	-0.436523	0.377441	1.532715	-36.470001	53.340000	-4.130000	887.00	-0.28	-0.07
1.50	0.00	0.00	0.00	0.00	0.00	0.00	0.00	0.00	2.00	2.00	1.50	1.50	0.25	3.25	0.50	0.75	-0.277832	0.099609	4.018066	228.619995	628.039978	-94.779999	118.00	0.29	0.04	20.25	19.00	12.00	14.00	8.00	7.75	1.00	2.00	0.75	0.25	0.00	0.00	0.75	0.00	0.00	0.00	-0.178711	0.101074	1.094238	-22.049999	11.130000	2.520000	909.00	-0.28	-0.06
1.51	0.00	0.00	0.00	0.25	0.00	0.00	0.00	0.00	1.00	1.25	0.75	0.75	0.25	1.50	0.25	0.50	1.009277	0.002441	3.109375	222.040009	622.789978	-142.449997	65.00	0.26	0.01	20.00	19.25	12.50	14.25	8.50	8.00	1.25	2.25	0.25	0.50	0.25	0.00	1.00	0.25	0.00	0.00	-0.098145	-0.015137	1.065918	-10.010000	-1.890000	2.240000	935.00	-0.28	-0.06
1.52	0.00	0.00	0.00	0.00	0.00	0.00	0.00	0.00	0.75	1.00	0.50	0.75	0.00	1.00	0.25	0.50	-0.158203	0.656250	3.229492	93.519997	563.359985	-196.699997	47.00	0.00	0.00	20.25	19.25	12.50	14.50	8.50	8.25	1.25	2.25	0.25	0.50	0.25	0.00	1.00	0.50	0.00	0.00	-0.127930	0.119629	1.049805	-1.330000	-4.900000	2.030000	946.00	-0.27	-0.06
1.53	0.00	0.00	0.25	0.25	0.00	0.00	0.25	0.00	0.75	0.75	0.50	0.50	0.00	1.00	0.25	0.50	1.476562	0.997070	6.559082	-20.440001	311.429993	-164.149994	51.00	0.21	0.04	19.50	19.00	12.25	14.25	8.50	8.50	1.25	2.50	0.25	0.50	0.25	0.25	1.00	0.25	0.00	0.00	-0.054688	0.047363	1.000977	1.330000	-4.340000	3.430000	937.00	-0.27	-0.07
1.54	0.00	0.00	0.00	0.00	0.00	0.00	0.00	0.00	0.75	0.75	0.25	0.50	0.00	1.00	0.25	0.50	1.283691	1.755859	3.036133	-93.379997	-159.949997	-15.120000	39.00	0.00	0.00	19.25	18.75	12.25	14.25	8.50	8.25	1.25	2.50	0.00	0.50	0.25	0.50	1.25	0.75	0.00	0.00	-0.053711	0.075195	0.999023	2.380000	-1.190000	2.520000	935.00	-0.27	-0.07
1.55	0.00	0.00	0.00	0.25	0.00	0.00	0.00	0.00	0.00	0.50	0.25	0.25	0.00	0.50	0.00	0.50	1.283691	1.755859	3.036133	-93.379997	-159.949997	-15.120000	20.00	0.00	0.00	18.75	18.25	12.00	13.75	8.25	8.25	1.25	2.50	0.25	0.50	0.25	0.25	1.00	0.25	0.00	0.00	-0.052734	0.080078	0.997559	2.240000	3.780000	2.310000	909.00	-0.27	-0.07
1.56	0.00	0.00	0.00	0.00	0.00	0.00	0.25	0.00	0.50	0.50	0.25	0.25	0.00	0.50	0.25	0.25	1.290039	1.368652	1.706055	-36.820000	-188.720001	23.730000	29.00	0.00	0.00	18.00	17.50	11.75	13.50	8.00	8.25	1.25	2.50	0.50	0.50	0.25	0.00	1.00	0.25	0.00	0.00	-0.057129	0.069336	0.992676	1.190000	8.190000	1.750000	886.00	-0.27	-0.07
1.57	0.00	0.00	0.00	0.00	0.00	0.00	0.00	0.00	0.00	0.25	0.00	0.25	0.00	0.25	0.00	0.25	1.092773	0.632324	2.113281	32.619999	-228.830002	56.840000	9.00	0.00	0.00	17.00	16.50	11.00	13.00	7.75	8.00	1.25	2.50	0.50	0.50	0.25	0.25	1.25	0.25	0.00	0.00	-0.068848	0.064453	1.002441	0.700000	12.040000	1.470000	852.00	-0.26	-0.07
1.58	0.00	0.00	0.00	0.00	0.00	0.00	0.00	0.00	0.00	0.25	0.25	0.00	0.00	0.25	0.00	0.25	1.011230	0.426270	2.072754	18.900000	-286.790009	68.809998	9.00	0.00	0.00	15.50	15.50	10.50	12.25	7.00	7.75	1.25	2.25	0.50	0.75	0.50	0.00	1.50	0.25	0.00	0.00	-0.080078	0.052734	1.009277	2.380000	14.840000	2.030000	804.00	-0.26	-0.07
1.59	0.00	0.00	0.00	0.00	0.00	0.00	0.00	0.00	0.25	0.25	0.00	0.00	0.00	0.25	0.00	0.25	0.697266	0.289551	1.910645	-2.590000	-343.489990	72.169998	9.00	0.00	0.00	13.25	14.25	10.00	11.50	6.50	7.25	1.00	2.00	0.00	0.50	0.25	0.25	0.75	0.25	0.00	0.00	-0.061523	0.065430	0.979980	4.690000	16.660000	2.590000	721.00	-0.27	-0.07
1.60	0.00	0.00	0.00	0.00	0.00	0.00	0.00	0.00	0.00	0.25	0.00	0.00	0.00	0.25	0.00	0.25	0.447754	0.205566	1.790039	-14.700000	-388.149994	66.220001	6.00	0.00	0.00	12.75	12.50	9.00	10.75	6.00	6.75	1.00	2.00	0.25	0.50	0.75	0.25	1.00	0.25	0.00	0.00	-0.050293	0.069336	0.958496	4.970000	18.969999	3.010000	680.00	-0.26	-0.07
1.61	0.00	0.00	0.25	0.00	0.00	0.00	0.00	0.00	0.00	0.25	0.00	0.00	0.00	0.00	0.00	0.25	0.243652	0.107422	1.708008	-16.660000	-425.809998	53.549999	7.00	0.00	0.00	9.75	10.75	8.50	10.00	5.50	6.00	1.00	2.00	0.25	0.75	0.50	0.50	1.00	0.25	0.00	0.00	-0.047852	0.075684	0.965820	3.710000	21.070000	3.150000	608.00	-0.24	-0.08
1.62	0.00	0.00	0.00	0.25	0.00	0.00	0.00	0.00	0.00	0.00	0.00	0.00	0.00	0.00	0.00	0.25	-0.016602	0.098145	1.651367	-8.400000	-458.080017	38.709999	4.00	0.00	0.00	8.25	9.25	8.00	9.25	5.00	5.75	1.00	2.00	0.50	0.50	0.75	0.25	1.00	0.25	0.00	0.00	-0.041992	0.073242	0.946777	1.190000	23.379999	2.100000	557.00	-0.23	-0.08
1.63	0.00	0.00	0.00	0.00	0.00	0.00	0.00	0.00	0.00	0.00	0.00	0.00	0.00	0.00	0.00	0.25	-0.262207	0.086426	1.529297	6.020000	-480.549988	26.670000	1.00	0.00	0.00	6.75	8.00	6.75	8.50	4.50	5.00	1.00	2.00	0.75	1.00	0.75	0.75	1.25	0.00	0.00	0.00	-0.057617	0.080078	0.939941	-3.290000	25.549999	0.140000	508.00	-0.21	-0.09
1.64	0.00	0.00	0.00	0.00	0.00	0.00	0.00	0.00	0.00	0.00	0.00	0.00	0.00	0.00	0.00	0.50	-0.477539	0.042480	1.384277	18.129999	-489.299988	21.070000	3.00	0.00	0.00	5.25	6.50	6.00	8.00	4.00	4.75	1.00	1.75	0.50	0.75	0.75	0.75	1.75	0.00	0.00	0.25	-0.084473	0.069824	0.976074	-7.070000	26.040001	-1.960000	453.00	-0.20	-0.10
1.65	0.00	0.00	0.00	0.25	0.00	0.00	0.00	0.00	0.00	0.00	0.00	0.00	0.00	0.00	0.00	0.25	-0.625000	0.031738	1.329102	20.650000	-486.709991	22.260000	4.00	0.00	0.00	4.25	5.50	5.25	7.25	4.00	4.00	1.25	2.00	0.50	1.25	1.00	0.50	2.00	0.50	0.00	0.25	-0.078613	0.067383	0.959961	-8.260000	24.290001	-3.990000	428.00	-0.17	-0.09
1.66	0.00	0.00	0.25	0.00	0.00	0.00	0.00	0.00	0.00	0.00	0.00	0.00	0.00	0.00	0.00	0.25	-0.685547	0.081543	1.419922	12.670000	-478.380005	27.860001	4.00	0.00	0.00	3.50	5.00	5.00	6.50	3.75	4.00	1.25	2.25	0.75	1.25	1.50	1.50	2.50	0.75	0.00	0.25	-0.084473	0.082031	0.965332	-8.610000	23.450001	-4.900000	431.00	-0.14	-0.10
1.67	0.00	0.00	0.00	0.00	0.00	0.00	0.00	0.00	0.00	0.00	0.00	0.00	0.00	0.00	0.00	0.25	-0.701660	0.167969	1.599121	1.470000	-472.360016	34.930000	1.00	0.00	0.00	2.75	3.00	4.50	6.00	3.75	4.00	1.50	2.75	1.25	2.25	1.75	1.25	3.00	1.25	0.00	0.25	-0.081055	0.072266	0.993164	-5.390000	21.490000	-5.250000	431.00	-0.09	-0.10
1.68	0.00	0.00	0.25	0.25	0.00	0.00	0.00	0.00	0.00	0.00	0.00	0.00	0.00	0.00	0.00	0.25	-0.711914	0.286133	1.808105	-2.520000	-471.380005	42.630001	7.00	0.00	0.00	2.00	3.25	3.50	5.50	3.50	4.00	1.75	3.25	1.25	1.75	2.00	1.75	3.50	1.75	0.25	0.25	-0.137695	0.039062	0.984375	-3.080000	21.700001	-6.020000	431.00	-0.07	-0.11
1.69	0.00	0.00	0.00	0.25	0.00	0.00	0.00	0.00	0.00	0.00	0.00	0.00	0.00	0.00	0.00	0.25	-0.755371	0.389160	1.993652	0.770000	-474.739990	52.570000	4.00	0.00	0.00	2.00	1.75	3.00	5.00	3.50	3.50	1.75	3.50	2.00	2.50	2.50	2.50	4.75	2.50	0.00	0.50	-0.141602	0.055664	1.015137	-0.280000	21.770000	-5.320000	451.00	-0.02	-0.11
1.70	0.00	0.00	0.00	0.00	0.00	0.00	0.00	0.00	0.00	0.00	0.00	0.00	0.00	0.00	0.00	0.25	-0.811035	0.450195	2.138184	7.840000	-479.010010	63.910000	1.00	0.00	0.00	1.50	2.00	2.75	4.25	3.00	3.50	2.00	4.50	3.25	3.50	3.25	2.75	5.00	3.50	0.50	1.00	-0.091309	0.060547	0.986816	1.540000	23.940001	-5.460000	507.00	0.03	-0.10
1.71	0.00	0.00	0.00	0.25	0.00	0.00	0.00	0.00	0.00	0.00	0.00	0.00	0.00	0.00	0.00	0.25	-0.899902	0.544434	2.384277	14.560000	-480.269989	75.599998	4.00	0.00	0.00	1.25	1.25	2.50	3.75	3.00	3.25	2.50	5.00	3.50	4.00	3.75	3.50	6.25	4.75	0.50	1.00	-0.148438	0.069336	1.025879	3.080000	28.070000	-6.720000	545.00	0.06	-0.10
1.72	0.00	0.00	0.25	0.00	0.00	0.00	0.00	0.00	0.00	0.00	0.00	0.00	0.00	0.00	0.00	0.50	-1.051270	0.660645	2.715332	18.270000	-479.920013	88.900002	6.00	0.00	0.00	1.00	1.00	1.75	3.25	2.75	3.25	2.50	5.25	4.75	4.50	5.50	4.00	7.50	6.25	0.50	1.25	-0.133789	0.076660	1.021484	5.810000	32.480000	-9.100000	597.00	0.09	-0.10
1.73	0.00	0.00	0.25	0.00	0.00	0.00	0.00	0.00	0.00	0.00	0.00	0.00	0.00	0.00	0.00	0.25	-1.445312	0.756836	2.969238	23.379999	-480.269989	103.180000	4.00	0.00	0.00	1.00	1.00	1.50	3.00	2.25	3.00	2.75	5.50	5.75	5.50	7.25	6.00	8.00	7.50	1.00	1.75	-0.138184	0.064453	1.046387	8.120000	38.290001	-10.780000	677.00	0.12	-0.09
1.74	0.00	0.00	0.00	0.00	0.00	0.00	0.00	0.00	0.00	0.00	0.00	0.00	0.00	0.00	0.00	0.25	-2.004883	0.782227	3.046875	37.939999	-476.910004	117.879997	1.00	0.00	0.00	1.00	0.75	1.50	3.00	2.25	2.75	2.75	6.00	6.50	7.50	8.25	7.50	8.50	8.50	1.00	2.00	-0.195312	0.081543	1.033691	11.270000	45.009998	-12.320000	751.00	0.13	-0.09
1.75	0.00	0.00	0.00	0.00	0.00	0.00	0.00	0.00	0.00	0.00	0.00	0.00	0.00	0.00	0.00	0.25	-2.627930	0.687500	3.084961	56.980000	-464.589996	130.410004	1.00	0.00	0.00	0.50	0.50	0.75	2.25	1.75	2.50	2.75	6.25	7.75	8.25	9.25	8.00	9.00	10.00	1.25	2.75	-0.230957	0.065918	1.090332	15.820000	50.750000	-12.880000	786.00	0.16	-0.09
1.76	0.00	0.00	0.00	0.00	0.00	0.00	0.00	0.00	0.00	0.00	0.00	0.00	0.00	0.00	0.00	0.25	-3.309570	0.431152	3.192871	83.090004	-448.070007	139.720001	1.00	0.00	0.00	0.50	0.50	0.50	1.50	1.25	2.00	2.50	6.50	8.50	9.00	9.75	8.75	9.50	11.50	1.50	3.25	-0.166992	0.067871	1.001953	21.070000	58.310001	-12.530000	817.00	0.18	-0.08
1.77	0.00	0.00	0.00	0.00	0.00	0.00	0.00	0.00	0.00	0.00	0.00	0.00	0.00	0.00	0.00	0.00	-3.925781	0.064941	2.881836	85.889999	-431.200012	150.570007	0.00	0.00	0.00	0.50	0.25	0.25	1.75	1.00	2.00	2.50	6.25	9.00	9.75	10.75	9.50	10.25	13.00	2.00	4.25	-0.207520	0.055664	1.047852	26.320000	67.410004	-11.340000	871.00	0.19	-0.08
1.78	0.00	0.00	0.00	0.00	0.00	0.00	0.00	0.00	0.25	0.00	0.00	0.00	0.00	0.00	0.00	0.25	-4.350098	-0.047363	2.206055	30.660000	-399.209991	162.190002	5.00	0.00	0.00	0.25	0.25	0.25	1.50	0.75	1.25	2.25	6.25	9.50	10.50	11.75	10.50	10.75	14.25	2.50	5.25	-0.173340	0.091797	1.046875	30.520000	78.330002	-10.220000	912.00	0.20	-0.08
1.79	0.00	0.00	0.00	0.25	0.00	0.00	0.00	0.00	0.00	0.00	0.00	0.00	0.00	0.00	0.00	0.25	-4.508301	0.558105	0.350586	-125.370003	-273.980011	189.070007	4.00	0.00	0.00	0.00	0.25	0.00	0.75	0.25	1.00	2.00	6.25	9.75	10.75	12.50	11.00	11.00	15.75	2.75	6.00	-0.164062	0.148438	1.109375	35.420002	92.050003	-12.180000	927.00	0.22	-0.08
1.80	0.00	0.00	0.00	0.00	0.00	0.00	0.00	0.00	0.00	0.00	0.00	0.00	0.00	0.00	0.00	0.00	-5.743652	1.051758	0.010254	-144.410004	-214.270004	152.809998	0.00	0.00	0.00	0.00	0.00	0.00	0.50	0.25	0.75	1.50	6.00	10.00	11.25	13.25	11.75	11.25	17.50	3.75	6.50	-0.219727	0.205566	1.122070	40.459999	111.860001	-18.620001	963.00	0.23	-0.08
1.81	0.00	0.00	0.00	0.50	0.00	0.00	0.00	0.00	0.00	0.00	0.00	0.00	0.00	0.00	0.00	0.25	-6.716797	1.560059	-0.787598	-58.029999	-166.669998	69.440002	7.00	0.00	0.00	0.00	0.00	0.00	0.50	0.00	0.50	1.25	5.50	10.00	11.50	13.75	12.25	11.75	18.50	4.00	7.00	-0.261719	0.187988	1.241699	43.889999	136.500000	-25.900000	977.00	0.24	-0.08
1.82	0.00	0.00	0.00	0.00	0.00	0.00	0.00	0.00	0.00	0.00	0.00	0.00	0.00	0.00	0.00	0.25	-6.658691	1.012207	-1.617676	113.959999	-91.559998	10.150000	1.00	0.00	0.00	0.00	0.00	0.00	0.50	0.00	0.00	0.75	5.00	10.25	11.75	14.00	12.50	11.50	20.00	5.50	7.25	-0.268066	0.141602	1.167969	45.920002	163.449997	-29.889999	995.00	0.25	-0.07
1.83	0.00	0.00	0.00	0.00	0.00	0.00	0.00	0.00	0.00	0.00	0.00	0.00	0.00	0.00	0.00	0.50	-6.330078	-0.025879	-1.126465	224.210007	17.639999	3.150000	3.00	0.00	0.00	0.00	0.00	0.00	0.50	0.00	0.00	0.50	4.25	10.00	12.00	14.25	12.75	11.25	21.00	5.75	7.75	-0.272461	0.123535	1.237793	40.180000	190.539993	-29.049999	996.00	0.25	-0.07
1.84	0.00	0.00	0.00	0.00	0.00	0.00	0.00	0.00	0.00	0.00	0.00	0.00	0.00	0.25	0.00	0.25	-5.451660	-0.629883	-0.281738	177.869995	125.300003	27.719999	3.00	0.00	0.00	0.00	0.00	0.00	0.25	0.00	0.00	0.25	3.25	9.75	11.75	14.50	12.75	11.00	21.75	6.25	8.00	-0.381348	0.195801	1.218750	41.860001	218.470001	-30.100000	982.00	0.26	-0.06
1.85	0.00	0.00	0.25	0.75	0.00	0.00	0.00	0.00	0.00	0.00	0.00	0.00	0.00	0.00	0.00	0.00	-6.096191	-1.205078	-0.158203	33.880001	190.610001	55.020000	11.00	0.00	0.00	0.00	0.00	0.00	0.00	0.00	0.00	0.00	2.50	9.25	11.50	14.25	12.75	10.75	22.25	6.50	8.00	-0.317383	0.188477	1.370605	44.730000	256.410004	-32.619999	957.00	0.27	-0.06
1.86	0.75	1.00	1.00	1.75	0.25	0.00	0.00	0.00	0.00	0.00	0.00	0.00	0.00	0.00	0.00	0.25	2.064941	0.354004	0.368164	-67.410004	347.339996	52.920002	51.00	-0.30	-0.08	0.00	0.00	0.00	0.00	0.00	0.00	0.00	1.75	8.50	11.00	14.00	12.50	10.25	22.50	6.75	7.75	-0.320312	0.231934	1.437988	47.740002	308.839996	-32.759998	925.00	0.28	-0.06
1.87	2.75	5.25	2.00	3.75	0.25	0.00	0.00	0.00	0.00	0.00	0.00	0.00	0.00	0.00	0.00	0.25	0.900879	-0.104492	3.133789	-117.949997	280.140015	63.840000	144.00	-0.34	-0.09	0.00	0.00	0.00	0.00	0.00	0.00	0.00	1.25	7.50	10.50	13.75	12.25	9.50	22.25	7.00	7.50	-0.394043	0.308105	1.494141	39.549999	361.269989	-47.110001	886.00	0.28	-0.06
1.88	11.50	17.25	4.25	7.75	0.50	0.00	0.00	0.00	0.00	0.00	0.00	0.00	0.00	0.00	0.00	0.25	-0.727539	-1.685547	-0.569824	-89.110001	259.980011	48.790001	417.00	-0.36	-0.07	0.00	0.00	0.00	0.00	0.00	0.00	0.00	1.25	6.50	9.75	13.00	11.50	8.75	21.00	6.50	6.75	-0.765137	0.722656	1.805664	35.209999	458.290009	-65.519997	823.00	0.28	-0.06
1.89	21.50	26.25	7.75	11.25	1.00	0.50	0.00	0.00	0.00	0.00	0.00	0.00	0.00	0.00	0.00	0.25	-0.887207	-2.363770	2.517578	-31.150000	425.390015	-1.680000	692.00	-0.36	-0.05	0.00	0.00	0.00	0.00	0.00	0.00	0.00	0.75	4.75	8.50	12.00	10.50	7.75	19.50	6.25	5.75	-0.785156	0.655273	3.018066	57.330002	506.170013	-82.529999	729.00	0.28	-0.06
1.90	26.50	30.50	11.00	15.50	2.25	2.25	0.25	0.25	0.00	0.00	0.00	0.00	0.00	0.00	0.00	0.25	-1.955078	0.522461	6.030273	15.120000	404.390015	-70.910004	906.00	-0.35	-0.06	0.00	0.00	0.00	0.00	0.00	0.00	0.00	0.00	3.00	7.50	10.25	9.25	6.25	16.50	5.00	3.75	-1.072266	0.778809	3.042480	69.580002	563.289978	-98.559998	590.00	0.29	-0.06
1.91	28.75	31.25	13.50	18.00	4.75	4.00	0.25	0.25	0.00	0.00	0.00	0.00	0.25	0.00	0.00	0.25	-1.401855	1.645508	3.979980	-13.510000	280.000000	-63.910000	1040.00	-0.34	-0.05	0.00	0.00	0.00	0.00	0.00	0.00	0.00	0.00	1.75	5.00	8.25	7.75	4.25	12.25	3.25	2.00	-1.010254	0.920410	3.657715	129.149994	597.380005	-102.340004	429.00	0.28	-0.07
1.92	28.25	30.50	14.25	18.75	6.25	5.75	0.50	0.75	0.00	0.00	0.00	0.25	0.50	0.00	0.00	0.25	-0.530762	0.584473	2.106445	-83.440002	202.580002	-6.440000	1096.00	-0.32	-0.06	0.00	0.00	0.00	0.00	0.00	0.00	0.00	0.00	0.75	2.75	5.50	5.25	2.75	7.75	1.50	0.75	-0.461914	0.737793	4.456055	222.180008	616.700012	-106.540001	261.00	0.28	-0.08
1.93	27.00	29.75	14.75	18.75	7.00	7.00	0.50	1.00	0.00	0.00	0.00	0.25	0.25	0.00	0.00	0.25	-0.204102	-0.688477	1.548828	-104.510002	157.779999	5.880000	1106.00	-0.32	-0.06	0.00	0.00	0.00	0.00	0.00	0.00	0.00	0.00	0.50	2.25	3.50	3.25	1.75	5.00	0.75	0.25	-0.206543	0.464844	4.957031	261.519989	633.429993	-120.470001	168.00	0.28	-0.07
1.94	26.25	28.75	15.25	19.00	7.75	7.50	0.50	1.25	0.00	0.00	0.00	0.00	0.50	0.25	0.00	0.25	-0.359375	-0.022949	1.598145	-70.699997	114.099998	-11.200000	1116.00	-0.31	-0.06	0.00	0.00	0.00	0.00	0.00	0.00	0.25	0.00	0.25	1.25	1.50	1.75	1.00	1.50	0.25	0.00	1.163086	0.098633	4.618652	246.540009	629.859985	-158.199997	78.00	0.25	-0.08
1.95	25.50	28.00	15.00	19.25	8.00	8.25	0.75	1.75	0.00	0.00	0.00	0.00	0.50	0.25	0.00	0.25	-0.298828	0.416504	1.296387	-52.360001	73.010002	-4.550000	1124.00	-0.30	-0.07	0.00	0.00	0.00	0.00	0.00	0.00	0.25	0.00	0.00	1.00	1.25	1.00	0.50	0.50	0.00	0.00	0.898438	0.145020	2.827637	154.839996	623.140015	-223.369995	46.00	0.00	0.00
1.96	24.75	27.50	15.00	19.25	8.25	8.25	0.75	1.75	0.00	0.25	0.00	0.50	0.75	0.50	0.00	0.50	-0.216797	-0.105957	1.262207	-40.810001	48.439999	2.310000	1128.00	-0.30	-0.07	0.00	0.00	0.00	0.00	0.00	0.00	0.25	0.00	0.00	1.00	1.00	0.75	0.00	0.75	0.00	0.00	1.513184	1.267578	7.536133	14.420000	401.869995	-226.240005	39.00	0.00	0.00
1.97	23.75	27.00	14.50	18.75	8.00	8.50	0.75	2.00	0.25	0.25	0.00	0.25	0.75	0.25	0.00	0.25	-0.197754	0.029297	1.077148	-16.870001	28.139999	-2.310000	1102.00	-0.29	-0.07	0.00	0.00	0.00	0.00	0.00	0.00	0.25	0.00	0.00	0.50	0.75	0.75	0.00	0.25	0.00	0.00	2.535156	1.777344	5.762207	-51.799999	92.680000	-162.680008	27.00	0.00	0.00
1.98	22.75	26.25	14.25	18.50	8.00	8.50	0.75	2.00	0.25	0.25	0.25	0.50	0.50	0.75	0.00	0.25	-0.145508	0.126465	1.009766	-5.740000	19.670000	-1.050000	1087.00	-0.29	-0.07	0.00	0.00	0.00	0.00	0.00	0.00	0.25	0.00	0.25	0.75	0.50	0.75	0.00	0.00	0.00	0.00	2.098633	1.758789	3.551758	-52.779999	-133.699997	-91.629997	28.00	0.00	0.00
1.99	21.75	25.25	13.75	17.75	8.00	8.50	1.00	2.00	0.25	0.25	0.00	0.25	0.50	0.50	0.00	0.50	-0.106445	-0.005371	0.985840	-2.100000	17.920000	-0.840000	1051.00	-0.29	-0.07	0.00	0.00	0.00	0.00	0.00	0.00	0.25	0.00	0.25	0.50	0.75	0.00	0.00	0.25	0.00	0.00	1.686035	1.386230	1.791504	-8.330000	-199.990005	-50.610001	22.00	0.00	0.00
2.00	20.75	24.00	13.25	17.00	7.75	8.50	1.00	2.00	0.25	0.50	0.25	0.50	0.75	0.75	0.00	0.25	-0.060547	0.080566	0.932129	-0.910000	25.760000	-1.960000	1024.00	-0.28	-0.07	0.00	0.00	0.00	0.00	0.00	0.00	0.25	0.00	0.00	0.00	0.25	0.00	0.00	0.00	0.00	0.00	1.544922	0.968750	1.334961	44.170002	-192.009995	-29.190001	6.00	0.00	0.00
2.01	18.00	22.25	12.50	16.00	7.50	8.25	0.75	2.00	0.50	0.50	0.50	0.25	0.75	1.00	0.00	0.50	-0.105469	0.056152	0.959961	-2.870000	31.010000	-1.750000	957.00	-0.27	-0.07	0.00	0.00	0.00	0.00	0.00	0.00	0.25	0.00	0.00	0.25	0.25	0.00	0.00	0.00	0.00	0.00	1.472168	0.621094	1.738281	60.760002	-202.789993	-13.790000	9.00	0.00	0.00
2.02	15.75	20.00	11.75	14.75	7.25	8.00	0.75	2.25	0.50	0.75	0.50	0.50	0.75	0.75	0.00	0.50	-0.108398	0.091309	0.953613	-5.950000	33.040001	-1.470000	893.00	-0.26	-0.08	0.00	0.00	0.00	0.00	0.00	0.00	0.25	0.00	0.00	0.25	0.00	0.00	0.00	0.00	0.00	0.00	1.285645	0.374023	1.913086	44.099998	-250.949997	0.770000	6.00	0.00	0.00
2.03	13.50	17.25	10.75	13.75	7.00	8.00	1.00	2.25	0.50	0.75	0.50	0.50	1.00	0.75	0.00	0.50	-0.101074	0.057129	0.966797	-8.260000	35.000000	-0.910000	825.00	-0.25	-0.08	0.00	0.00	0.00	0.00	0.00	0.00	0.25	0.00	0.00	0.25	0.25	0.00	0.00	0.00	0.00	0.00	1.005859	0.254395	1.752930	10.290000	-309.959991	14.630000	9.00	0.00	0.00
2.04	10.50	15.00	9.50	12.50	6.75	7.75	1.00	2.25	0.50	0.50	0.50	0.50	1.00	1.00	0.00	0.50	-0.136230	0.050781	0.981934	-8.470000	35.910000	-0.700000	740.00	-0.24	-0.09	0.00	0.00	0.00	0.00	0.00	0.00	0.25	0.00	0.00	0.00	0.00	0.00	0.00	0.00	0.00	0.00	0.684570	0.208008	1.569336	-19.040001	-354.339996	25.340000	4.00	0.00	0.00
2.05	8.75	12.50	9.00	11.00	6.25	7.25	1.00	2.25	0.25	0.75	0.50	0.75	1.00	0.75	0.00	0.50	-0.111328	0.043945	0.948242	-8.050000	36.330002	-0.350000	666.00	-0.23	-0.09	0.00	0.00	0.00	0.00	0.00	0.00	0.25	0.00	0.00	0.25	0.00	0.00	0.00	0.00	0.00	0.00	0.453613	0.141602	1.511719	-32.689999	-383.390015	32.549999	6.00	0.00	0.00
2.06	7.25	10.00	8.00	9.75	6.00	6.75	1.00	2.25	0.75	1.00	0.75	0.50	1.50	0.75	0.00	0.50	-0.121582	0.035156	0.971680	-7.560000	36.820000	-0.490000	607.00	-0.21	-0.09	0.00	0.00	0.25	0.00	0.00	0.00	0.25	0.00	0.00	0.00	0.00	0.00	0.00	0.00	0.00	0.00	0.241699	0.074219	1.498047	-33.670002	-406.140015	36.189999	7.00	0.00	0.00
2.07	6.00	8.25	7.25	8.75	5.50	6.50	1.00	2.50	0.50	1.00	1.00	0.75	1.50	0.75	0.00	0.50	-0.134766	0.053223	0.966797	-7.630000	37.380001	-1.820000	557.00	-0.20	-0.10	0.00	0.00	0.00	0.00	0.00	0.00	0.25	0.00	0.00	0.00	0.00	0.00	0.00	0.00	0.00	0.00	0.023438	-0.008301	1.483398	-28.980000	-424.829987	35.980000	4.00	0.00	0.00
2.08	4.75	6.75	6.25	8.00	5.25	6.00	1.00	2.75	1.25	1.00	1.25	1.00	1.50	1.00	0.00	0.25	-0.123047	0.056152	0.958496	-8.470000	38.570000	-3.500000	522.00	-0.17	-0.10	0.00	0.00	0.00	0.00	0.00	0.00	0.25	0.00	0.00	0.00	0.00	0.00	0.00	0.00	0.00	0.00	-0.308105	-0.051758	1.491211	-16.030001	-445.830017	25.900000	4.00	0.00	0.00
2.09	3.75	5.75	5.50	6.75	4.75	5.50	1.25	2.75	1.25	1.25	1.25	1.00	1.75	1.50	0.00	0.50	-0.135254	0.043457	0.967285	-7.980000	37.869999	-5.040000	484.00	-0.14	-0.09	0.00	0.00	0.00	0.00	0.00	0.00	0.25	0.00	0.00	0.00	0.00	0.00	0.00	0.00	0.00	0.00	-0.426270	-0.020020	1.573730	-8.050000	-449.540009	19.809999	4.00	0.00	0.00
2.10	2.75	4.75	4.75	6.25	4.50	5.25	1.25	3.25	2.00	1.50	1.75	1.25	2.00	1.25	0.25	0.50	-0.173828	0.031738	0.962891	-5.320000	37.590000	-6.370000	475.00	-0.11	-0.10	0.00	0.00	0.00	0.00	0.00	0.00	0.25	0.00	0.00	0.00	0.00	0.00	0.00	0.00	0.00	0.00	-0.498047	0.015625	1.687500	1.190000	-452.269989	16.730000	4.00	0.00	0.00
2.11	2.00	3.50	4.00	5.25	4.25	5.00	1.50	3.50	2.00	2.00	2.00	1.50	2.25	2.00	0.25	0.50	-0.182617	0.050781	0.964844	-2.800000	36.680000	-6.930000	458.00	-0.07	-0.10	0.00	0.00	0.00	0.00	0.00	0.00	0.25	0.00	0.00	0.00	0.00	0.00	0.00	0.00	0.00	0.00	-0.539551	0.076660	1.898926	10.850000	-455.279999	18.340000	4.00	0.00	0.00
2.12	1.75	3.00	3.00	4.75	3.75	5.00	1.50	3.75	3.00	2.50	2.25	2.00	2.75	1.75	0.25	0.50	-0.169922	0.039062	0.950195	-0.840000	35.910000	-7.350000	461.00	-0.04	-0.10	0.00	0.00	0.00	0.00	0.00	0.00	0.25	0.00	0.00	0.00	0.00	0.00	0.00	0.00	0.00	0.00	-0.569336	0.142090	2.187500	19.950001	-461.580017	24.010000	4.00	0.00	0.00
2.13	1.25	2.50	3.00	4.50	3.50	4.50	2.00	4.25	3.50	2.75	3.00	2.25	3.25	3.00	0.25	0.75	-0.167480	0.033691	0.980957	0.560000	37.799999	-8.190000	491.00	-0.00	-0.09	0.00	0.00	0.00	0.00	0.00	0.25	0.25	0.00	0.00	0.00	0.00	0.00	0.00	0.00	0.00	0.00	-0.655762	0.207520	2.475098	25.690001	-472.080017	33.180000	7.00	0.00	0.00
2.14	1.00	2.00	2.50	3.75	3.25	4.00	2.25	4.50	5.00	3.50	3.25	3.00	3.75	3.75	0.50	0.75	-0.207031	0.061035	0.967285	1.890000	40.740002	-8.680000	521.00	0.04	-0.08	0.00	0.00	0.00	0.00	0.00	0.25	0.25	0.00	0.00	0.00	0.00	0.00	0.00	0.00	0.00	0.00	-0.790527	0.226074	2.695801	32.549999	-484.399994	43.400002	7.00	0.00	0.00
2.15	1.00	2.00	2.00	3.50	2.75	3.75	2.25	4.75	5.50	4.00	4.00	3.75	5.25	5.00	0.75	1.00	-0.157227	0.046875	0.977539	2.590000	45.360001	-8.750000	563.00	0.07	-0.08	0.00	0.00	0.00	0.25	0.00	0.00	0.25	0.00	0.00	0.00	0.00	0.00	0.00	0.00	0.00	0.00	-0.995117	0.242188	2.863770	43.189999	-494.059998	49.000000	7.00	0.00	0.00
2.16	0.75	1.50	1.50	3.00	2.50	3.00	2.50	5.00	7.50	5.50	5.75	4.25	5.75	6.25	0.75	1.25	-0.173340	0.060059	0.978027	4.480000	52.360001	-10.500000	623.00	0.11	-0.07	0.00	0.00	0.00	0.00	0.00	0.00	0.25	0.00	0.00	0.00	0.00	0.00	0.00	0.00	0.00	0.00	-1.320801	0.350586	3.013672	53.760002	-497.980011	48.790001	4.00	0.00	0.00
2.17	0.50	1.25	1.00	2.75	2.25	3.00	2.50	5.25	8.50	7.25	7.25	5.25	6.50	7.75	1.00	1.50	-0.215332	0.077637	1.024902	6.090000	59.990002	-13.090000	692.00	0.14	-0.06	0.00	0.00	0.00	0.00	0.00	0.00	0.25	0.00	0.00	0.00	0.00	0.00	0.00	0.00	0.00	0.00	-1.774414	0.463867	3.103027	68.110001	-495.040009	49.560001	4.00	0.00	0.00
2.18	0.75	0.75	1.00	2.25	2.00	2.50	2.50	5.00	9.00	8.00	8.25	6.50	6.75	8.75	1.25	1.75	-0.292480	0.041992	1.014160	12.390000	80.360001	-17.430000	725.00	0.16	-0.06	0.00	0.00	0.00	0.00	0.00	0.00	0.25	0.00	0.00	0.00	0.00	0.00	0.00	0.00	0.00	0.00	-2.278809	0.468750	3.193848	85.889999	-485.519989	57.959999	4.00	0.00	0.00
2.19	0.25	1.00	1.00	2.25	1.50	2.00	2.50	5.00	9.75	8.75	9.00	7.50	7.25	9.75	1.25	2.00	-0.292480	0.041992	1.014160	12.390000	80.360001	-17.430000	762.00	0.17	-0.06	0.00	0.00	0.00	0.00	0.00	0.00	0.25	0.00	0.00	0.00	0.00	0.00	0.00	0.00	0.00	0.00	-2.797363	0.343262	3.336914	98.559998	-471.519989	74.480003	4.00	0.00	0.00
2.20	0.50	1.00	0.75	1.75	1.25	1.50	2.25	5.00	10.25	9.25	10.00	8.25	7.50	11.00	1.75	2.50	-0.271484	0.053711	0.987305	17.360001	89.949997	-17.290001	795.00	0.18	-0.06	0.00	0.00	0.00	0.00	0.00	0.00	0.25	0.00	0.00	0.00	0.00	0.00	0.00	0.00	0.00	0.00	-3.384277	0.233398	3.327148	90.860001	-458.220001	95.830002	4.00	0.00	0.00
2.21	0.25	0.50	0.25	1.50	1.00	1.25	2.25	5.00	11.00	10.00	10.75	8.75	8.00	12.25	2.25	3.25	-0.309570	0.084961	1.023926	26.320000	109.059998	-19.879999	829.00	0.20	-0.05	0.00	0.00	0.00	0.25	0.00	0.00	0.25	0.00	0.00	0.00	0.00	0.00	0.00	0.00	0.00	0.00	-3.816895	0.317871	2.849121	46.830002	-440.649994	119.139999	7.00	0.00	0.00
2.22	0.00	0.50	0.25	1.00	0.75	0.50	1.75	4.75	11.25	10.50	11.75	9.50	8.25	13.75	2.50	4.00	-0.308105	0.119141	1.060059	29.469999	121.870003	-20.930000	847.00	0.22	-0.05	0.00	0.00	0.00	0.00	0.00	0.00	0.25	0.00	0.00	0.25	0.00	0.00	0.00	0.00	0.00	0.00	-4.075684	0.520996	1.725098	-6.090000	-404.250000	155.610001	6.00	0.00	0.00
2.23	0.25	0.25	0.25	1.25	0.50	0.50	1.75	4.50	12.00	11.00	12.50	10.00	8.50	15.00	3.00	5.00	-0.337891	0.090332	1.081055	34.020000	140.559998	-23.450001	895.00	0.22	-0.05	0.00	0.00	0.00	0.00	0.00	0.00	0.25	0.00	0.00	0.25	0.00	0.00	0.00	0.00	0.00	0.00	-5.305176	0.615723	0.446289	-38.150002	-345.589996	189.350006	6.00	0.00	0.00
2.24	0.00	0.00	0.25	1.00	0.25	0.25	1.25	4.00	12.25	11.50	13.25	10.50	8.50	16.25	4.00	5.50	-0.297852	0.030762	1.203613	36.400002	162.190002	-24.710001	913.00	0.24	-0.05	0.00	0.00	0.00	0.00	0.00	0.00	0.25	0.00	0.00	0.00	0.00	0.00	0.00	0.00	0.00	0.00	-7.596191	0.880371	-0.874023	-15.120000	-279.019989	174.580002	4.00	0.00	0.00
2.25	0.00	0.00	0.00	1.00	0.00	0.00	1.00	3.50	12.50	11.75	13.75	11.00	8.25	17.50	4.75	5.75	-0.366211	0.084961	1.166016	38.849998	182.350006	-24.430000	927.00	0.25	-0.04	0.00	0.00	0.00	0.00	0.00	0.00	0.25	0.00	0.00	0.50	0.00	0.00	0.00	0.00	0.00	0.00	-7.596191	0.375000	-2.022949	104.510002	-183.470001	134.610001	9.00	0.00	0.00
2.26	0.00	0.00	0.00	0.50	0.00	0.00	0.50	2.75	12.50	12.00	14.25	11.25	8.00	18.50	5.25	6.00	-0.423828	0.057129	1.149414	39.830002	210.699997	-23.730000	926.00	0.26	-0.04	0.00	0.00	0.00	0.00	0.00	0.00	0.25	0.00	0.00	0.25	0.00	0.00	0.00	0.00	0.00	0.00	-7.022461	-0.396973	-1.774414	182.419998	-51.520000	107.520004	6.00	0.00	0.00
2.27	0.00	0.00	0.00	0.25	0.00	0.00	0.25	2.25	12.50	12.25	14.50	11.50	7.75	19.00	5.75	6.25	-0.444824	0.136230	1.203125	38.009998	245.070007	-22.120001	929.00	0.27	-0.03	0.00	0.00	0.00	0.00	0.00	0.00	0.25	0.00	0.00	0.25	0.00	0.00	0.00	0.00	0.00	0.00	-5.856445	-0.816895	-0.586914	153.649994	70.139999	105.559998	6.00	0.00	0.00
2.28	0.00	0.00	0.00	0.25	0.00	0.00	0.00	1.75	12.00	12.00	14.25	11.50	7.50	19.75	6.00	6.25	-0.596191	0.148926	1.296387	38.990002	289.029999	-23.450001	912.00	0.27	-0.03	0.00	0.00	0.25	0.50	0.00	0.00	0.25	0.00	0.00	0.00	0.25	0.00	0.00	0.00	0.00	0.00	-7.786133	-0.438477	2.315430	-9.520000	246.820007	128.520004	15.00	0.00	0.00
2.29	0.00	0.00	0.00	0.25	0.00	0.00	0.00	1.50	11.50	11.75	14.25	11.00	7.00	20.00	6.25	6.25	-0.623047	0.288086	1.457520	42.070000	324.589996	-28.070000	894.00	0.27	-0.03	1.00	1.00	1.00	2.00	0.00	0.00	0.25	0.00	0.00	0.00	0.00	0.00	0.00	0.00	0.00	0.00	0.566406	-0.638672	-3.320312	-42.000000	345.100006	79.309998	56.00	-0.30	-0.06
2.30	0.00	0.00	0.00	0.00	0.00	0.00	0.00	1.00	10.75	11.25	13.75	10.75	6.25	19.75	6.25	6.00	-0.679688	0.209961	1.819824	32.689999	379.610016	-35.209999	851.00	0.28	-0.02	4.25	5.50	2.50	4.50	0.00	0.00	0.25	0.00	0.00	0.00	0.00	0.00	0.00	0.00	0.00	0.00	0.831055	-1.516602	3.276855	-107.379997	333.899994	30.309999	176.00	-0.34	-0.06
2.31	0.00	0.00	0.00	0.00	0.00	0.00	0.00	0.75	9.50	10.50	13.00	10.25	5.25	19.25	6.00	5.50	-0.579102	0.255371	2.113281	26.040001	437.360016	-41.930000	792.00	0.28	-0.02	14.00	14.50	6.25	8.50	0.25	0.00	0.25	0.00	0.00	0.00	0.00	0.00	0.00	0.00	0.00	0.00	-0.679688	-1.149902	2.595215	-61.529999	345.170013	9.520000	448.00	-0.36	-0.04
2.32	0.00	0.00	0.00	0.00	0.00	0.00	0.00	0.50	8.25	9.25	11.75	9.00	4.50	18.00	5.50	5.00	-0.994629	0.583008	2.331543	41.439999	493.010010	-45.500000	707.00	0.28	-0.02	20.00	19.50	9.00	11.25	1.75	1.75	0.50	0.00	0.00	0.00	0.00	0.00	0.25	0.00	0.00	0.00	-1.323242	-0.727539	3.812012	-9.590000	454.720001	-42.420002	658.00	-0.34	-0.04
2.33	0.00	0.00	0.00	0.00	0.00	0.00	0.00	0.25	6.75	7.75	10.00	7.75	3.00	16.00	4.75	3.50	-1.124512	0.286133	3.317871	71.400002	542.710022	-53.760002	591.00	0.29	-0.01	22.75	21.25	11.75	13.50	5.50	5.00	0.75	0.75	0.00	0.00	0.00	0.00	0.50	0.00	0.00	0.00	-2.077637	1.407715	6.558105	-4.830000	408.519989	-62.299999	852.00	-0.31	-0.05
2.34	0.00	0.00	0.00	0.00	0.00	0.00	0.00	0.00	4.75	5.25	8.00	6.00	2.25	13.00	3.25	2.50	-1.408691	0.602539	3.380859	101.500000	591.710022	-50.259998	442.00	0.29	-0.01	23.25	21.00	13.00	14.25	7.50	6.75	0.75	1.25	0.00	0.00	0.00	0.00	0.75	0.00	0.00	0.00	-1.259766	1.044922	2.916016	-114.239998	197.119995	-28.280001	928.00	-0.30	-0.05
2.35	0.00	0.00	0.00	0.00	0.00	0.00	0.00	0.00	2.75	3.25	4.75	4.25	1.25	9.50	2.00	1.50	-1.346191	0.544434	4.092773	158.199997	626.429993	-48.369999	285.00	0.30	-0.01	22.50	20.00	13.25	14.25	8.25	7.00	1.00	1.75	0.00	0.00	0.00	0.00	1.00	0.00	0.00	0.00	0.102539	-0.609863	1.367188	-134.330002	95.410004	5.250000	938.00	-0.29	-0.06
2.36	0.00	0.00	0.00	0.00	0.00	0.00	0.00	0.00	1.75	2.25	2.75	2.50	1.00	5.75	0.75	0.75	-0.865723	0.422852	4.366211	216.229996	644.979980	-54.250000	171.00	0.29	-0.00	21.25	19.00	13.00	14.00	8.75	8.00	1.50	2.00	0.25	0.25	0.00	0.00	1.25	0.50	0.00	0.00	0.030762	-0.404297	0.980957	-49.209999	80.150002	-5.460000	951.00	-0.28	-0.06
2.37	0.00	0.00	0.00	0.00	0.00	0.00	0.00	0.00	1.25	1.25	1.50	1.50	0.50	2.75	0.50	0.75	-0.175293	0.194824	4.278320	257.320007	657.369995	-68.180000	98.00	0.29	-0.01	20.25	18.25	12.75	14.00	9.25	8.25	1.50	2.75	0.50	0.50	0.50	0.25	1.25	1.00	0.00	0.00	-0.531250	0.415039	1.429688	-3.710000	45.009998	-3.290000	968.00	-0.26	-0.06
2.38	0.00	0.00	0.00	0.00	0.00	0.50	0.00	0.00	0.75	0.75	0.50	0.75	0.25	1.25	0.25	0.50	0.925781	-0.045898	4.005371	263.200012	653.169983	-117.949997	54.00	0.24	-0.03	20.00	17.75	12.75	14.00	9.25	8.75	1.75	3.00	0.25	0.25	0.50	0.25	1.75	1.00	0.00	0.00	-0.188477	-0.017090	1.047363	-1.330000	12.460000	5.460000	973.00	-0.26	-0.07
2.39	0.00	0.00	0.25	0.25	0.00	0.00	0.00	0.00	0.50	0.50	0.50	0.75	0.00	1.00	0.25	0.50	-0.379883	0.464355	2.205566	195.160004	610.609985	-198.729996	44.00	0.00	0.00	19.50	17.75	12.50	14.00	9.00	9.00	1.50	3.50	0.50	0.50	0.25	0.25	1.75	1.00	0.00	0.00	-0.149414	0.030762	1.056152	5.040000	0.630000	4.550000	972.00	-0.25	-0.07
2.40	0.00	0.00	0.25	0.00	0.00	0.00	0.00	0.00	0.25	0.75	0.50	0.75	0.00	0.75	0.00	0.50	1.412598	0.660156	6.983887	51.730000	360.640015	-200.550003	36.00	0.00	0.00	19.00	17.50	12.50	14.00	9.00	9.00	1.75	3.50	0.75	0.50	0.25	0.25	2.00	1.00	0.00	0.00	-0.105469	0.108887	1.017578	8.680000	-3.710000	5.880000	973.00	-0.25	-0.07
2.41	0.00	0.00	0.00	0.25	0.00	0.00	0.25	0.00	0.25	0.50	0.50	0.50	0.00	0.00	0.00	0.25	2.027832	1.476074	5.452637	-65.449997	57.330002	-129.570007	27.00	0.00	0.00	18.50	17.25	12.25	13.75	8.75	9.25	1.75	3.75	0.50	0.50	0.75	0.50	1.75	1.25	0.00	0.00	-0.041992	0.020508	0.984375	9.660000	-1.120000	6.090000	969.00	-0.24	-0.07
2.42	0.00	0.00	0.00	0.00	0.00	0.00	0.00	0.00	0.50	0.50	0.25	0.50	0.00	0.50	0.00	0.50	1.383789	1.567383	1.741211	-91.769997	-176.680008	-11.970000	27.00	0.00	0.00	17.50	16.50	11.75	13.50	8.50	9.00	1.50	4.00	0.50	0.50	0.50	0.50	2.00	0.75	0.00	0.00	-0.058105	0.083984	0.996582	11.130000	3.290000	5.040000	933.00	-0.24	-0.08
2.43	0.00	0.00	0.00	0.00	0.00	0.00	0.00	0.00	0.00	0.50	0.25	0.25	0.00	0.25	0.00	0.50	1.364258	1.218262	1.425293	-16.309999	-182.350006	9.310000	15.00	0.00	0.00	16.00	15.75	11.50	13.00	8.25	9.00	1.50	4.00	0.50	1.00	0.50	0.50	2.00	1.00	0.00	0.25	-0.051270	0.099121	0.997559	8.820000	8.540000	4.340000	908.00	-0.24	-0.08
2.44	0.00	0.00	0.00	0.00	0.00	0.00	0.00	0.00	0.00	0.25	0.25	0.25	0.00	0.25	0.00	0.25	1.238770	0.891113	1.771973	36.889999	-209.860001	24.710001	11.00	0.00	0.00	14.50	14.50	11.00	12.50	8.00	8.75	1.50	4.00	0.50	0.75	0.50	0.50	2.25	0.75	0.25	0.00	-0.063477	0.104004	0.983887	4.200000	12.460000	2.800000	863.00	-0.23	-0.08
2.45	0.00	0.00	0.00	0.00	0.00	0.00	0.00	0.00	0.25	0.25	0.00	0.00	0.00	0.25	0.00	0.50	1.114746	0.527832	1.845703	47.389999	-262.920013	38.639999	11.00	0.00	0.00	13.00	13.25	10.25	12.00	7.75	8.25	1.50	3.50	0.00	1.00	0.75	0.75	2.00	1.00	0.00	0.00	-0.060059	0.095703	0.986328	-0.980000	15.680000	0.910000	805.00	-0.23	-0.09
2.46	0.00	0.00	0.00	0.00	0.00	0.00	0.00	0.00	0.00	0.00	0.00	0.00	0.00	0.00	0.00	0.25	0.827637	0.369141	1.732422	24.570000	-322.489990	48.020000	1.00	0.00	0.00	11.50	11.75	9.50	11.25	7.25	8.00	1.50	3.50	0.75	0.50	1.00	0.50	2.25	1.00	0.00	0.00	-0.068848	0.061523	0.994141	-3.710000	18.410000	-0.350000	758.00	-0.22	-0.09
2.47	0.00	0.00	0.00	0.00	0.00	0.00	0.00	0.00	0.00	0.00	0.00	0.00	0.00	0.00	0.00	0.25	0.525879	0.298828	1.481934	-3.010000	-367.429993	53.410000	1.00	0.00	0.00	9.50	10.00	9.00	10.50	6.75	7.50	1.50	3.25	0.25	0.75	0.75	0.75	2.00	1.00	0.00	0.25	-0.084961	0.061035	0.995117	-3.430000	19.670000	-0.910000	688.00	-0.21	-0.09
2.48	0.00	0.00	0.00	0.25	0.00	0.00	0.00	0.00	0.00	0.00	0.00	0.00	0.00	0.00	0.00	0.25	0.285645	0.253418	1.335938	-17.010000	-393.890015	54.250000	4.00	0.00	0.00	8.25	8.75	8.25	9.50	6.00	7.00	1.50	3.50	1.00	0.50	1.00	0.75	2.00	0.75	0.00	0.25	-0.059570	0.054199	0.978516	-3.500000	23.940001	-1.050000	642.00	-0.20	-0.09
2.49	0.00	0.00	0.00	0.00	0.00	0.00	0.00	0.00	0.00	0.25	0.00	0.00	0.00	0.00	0.00	0.50	0.075195	0.220703	1.322266	-13.580000	-410.760010	51.590000	5.00	0.00	0.00	6.75	7.50	7.50	9.00	5.50	6.25	1.50	3.00	0.75	1.00	1.00	0.75	2.00	1.25	0.00	0.25	-0.086914	0.047852	0.979980	-2.520000	25.690001	-0.840000	586.00	-0.18	-0.09
2.50	0.00	0.00	0.00	0.00	0.00	0.00	0.00	0.00	0.00	0.00	0.00	0.00	0.00	0.00	0.00	0.25	-0.127930	0.171387	1.366211	2.240000	-425.250000	47.599998	1.00	0.00	0.00	5.50	6.00	6.75	8.00	5.00	5.75	1.50	3.00	0.75	1.00	1.00	1.00	2.25	1.25	0.00	0.25	-0.088379	0.056152	0.975098	-1.610000	26.809999	-1.120000	534.00	-0.17	-0.09
2.51	0.00	0.00	0.00	0.00	0.00	0.00	0.00	0.00	0.00	0.00	0.00	0.00	0.00	0.00	0.00	0.25	-0.291016	0.092773	1.393066	18.900000	-438.480011	45.009998	1.00	0.00	0.00	4.25	5.25	5.75	7.50	4.50	5.25	1.50	3.00	0.50	1.00	1.25	0.75	2.25	1.25	0.25	0.25	-0.071777	0.077148	0.964355	-1.750000	27.790001	-2.520000	486.00	-0.15	-0.10
2.52	0.00	0.00	0.00	0.00	0.00	0.00	0.00	0.00	0.00	0.00	0.00	0.00	0.00	0.00	0.00	0.25	-0.442383	0.024414	1.370117	24.360001	-447.089996	44.170002	1.00	0.00	0.00	3.25	4.25	5.25	6.50	4.00	4.25	1.50	2.75	1.00	1.25	1.25	1.25	2.75	1.50	0.00	0.50	0.001953	0.039551	1.006836	-3.290000	29.049999	-5.040000	449.00	-0.12	-0.10
2.53	0.00	0.00	0.00	0.00	0.00	0.00	0.00	0.00	0.00	0.00	0.00	0.00	0.00	0.00	0.00	0.50	-0.534180	0.011230	1.353516	15.960000	-448.559998	45.920002	3.00	0.00	0.00	2.50	3.00	4.25	6.00	3.50	3.75	1.75	2.50	1.00	1.50	1.50	1.00	2.75	2.00	0.00	0.50	-0.104492	0.098633	0.968750	-6.720000	29.680000	-8.260000	409.00	-0.09	-0.09
2.54	0.00	0.00	0.00	0.00	0.00	0.00	0.00	0.00	0.00	0.00	0.00	0.00	0.00	0.00	0.00	0.25	-0.564453	0.080566	1.464844	0.350000	-444.640015	50.330002	1.00	0.00	0.00	2.25	2.00	3.50	5.50	3.25	3.00	1.75	3.00	1.50	1.75	1.75	1.75	3.50	2.75	0.25	0.50	-0.132324	0.070801	0.994141	-8.680000	29.820000	-10.430000	415.00	-0.04	-0.10
2.55	0.00	0.00	0.00	0.00	0.00	0.00	0.00	0.00	0.00	0.00	0.00	0.00	0.00	0.00	0.00	0.25	-0.569336	0.175293	1.656738	-12.040000	-443.100006	57.049999	1.00	0.00	0.00	1.75	1.50	3.25	5.25	3.25	2.75	2.00	2.75	1.75	2.00	2.00	2.00	3.50	3.50	0.75	0.50	-0.155762	0.078125	0.976074	-8.120000	28.280001	-12.600000	420.00	-0.01	-0.09
2.56	0.00	0.00	0.00	0.00	0.00	0.00	0.00	0.00	0.00	0.00	0.00	0.00	0.00	0.00	0.00	0.50	-0.617188	0.293457	1.912109	-14.630000	-446.880005	65.029999	3.00	0.00	0.00	1.50	1.50	2.50	4.00	2.75	2.25	2.00	2.75	2.25	2.50	2.50	2.00	4.25	4.50	0.50	1.00	-0.101562	0.043945	0.981934	-8.260000	28.910000	-13.580000	416.00	0.03	-0.08
2.57	0.00	0.00	0.00	0.00	0.00	0.00	0.00	0.00	0.00	0.00	0.00	0.00	0.00	0.00	0.00	0.25	-0.696777	0.393066	2.152344	-12.390000	-455.910004	75.110001	1.00	0.00	0.00	1.00	1.00	2.50	3.75	2.50	1.50	2.25	2.75	3.50	3.00	2.75	2.50	5.00	6.00	0.50	1.25	-0.156250	0.056152	0.967773	-7.910000	30.730000	-13.370000	447.00	0.07	-0.06
2.58	0.00	0.00	0.00	0.00	0.00	0.00	0.00	0.00	0.00	0.00	0.00	0.00	0.00	0.00	0.00	0.25	-0.775391	0.469238	2.406250	-8.890000	-467.880005	87.430000	1.00	0.00	0.00	1.00	1.00	2.25	3.50	2.50	1.50	2.50	3.00	4.50	3.50	3.50	3.25	5.25	7.25	0.75	1.25	-0.176270	0.074707	1.000000	-7.770000	33.320000	-12.740000	499.00	0.10	-0.05
2.59	0.00	0.00	0.00	0.00	0.00	0.00	0.00	0.00	0.00	0.00	0.00	0.00	0.00	0.00	0.00	0.25	-0.937988	0.587402	2.704102	-4.830000	-479.989990	100.800003	1.00	0.00	0.00	0.50	0.75	1.75	3.00	2.25	1.50	2.50	3.00	6.00	4.50	4.00	3.50	5.50	8.50	0.75	1.75	-0.144043	0.048340	1.032715	-7.350000	37.660000	-13.580000	531.00	0.13	-0.04
2.60	0.00	0.00	0.00	0.00	0.00	0.00	0.00	0.00	0.00	0.00	0.00	0.00	0.00	0.00	0.00	0.25	-1.350586	0.657715	2.902344	5.880000	-493.360016	114.379997	1.00	0.00	0.00	0.75	0.00	1.50	2.00	2.25	1.00	2.50	3.00	7.25	6.00	5.75	4.00	6.00	10.00	1.25	2.25	-0.204590	0.054688	1.024902	-4.550000	42.349998	-14.700000	588.00	0.17	-0.03
2.61	0.00	0.00	0.00	0.25	0.00	0.00	0.00	0.00	0.00	0.00	0.00	0.00	0.00	0.00	0.00	0.25	-2.324219	0.599121	3.054688	39.619999	-496.369995	133.979996	4.00	0.00	0.00	0.75	0.50	1.00	1.75	1.75	0.50	2.75	3.00	8.25	7.75	7.50	4.50	7.00	11.75	1.75	2.75	-0.161621	0.038574	1.005859	-1.610000	48.020000	-14.630000	663.00	0.19	-0.02
2.62	0.00	0.00	0.00	0.00	0.00	0.00	0.00	0.00	0.00	0.00	0.00	0.00	0.00	0.00	0.00	0.25	-2.324219	0.599121	3.054688	39.619999	-496.369995	133.979996	1.00	0.00	0.00	0.25	0.00	1.00	1.75	1.50	0.50	2.75	3.25	9.00	8.50	8.25	5.00	7.50	13.50	2.00	3.50	-0.226562	0.071289	1.045898	1.470000	56.070000	-14.420000	711.00	0.21	-0.02
2.63	0.00	0.00	0.00	0.00	0.00	0.00	0.00	0.00	0.00	0.00	0.00	0.00	0.00	0.00	0.00	0.25	-3.675293	0.323242	3.213867	35.349998	-465.500000	147.210007	1.00	0.00	0.00	0.50	0.00	1.00	1.75	1.00	0.50	2.75	3.25	9.75	9.25	9.00	6.75	8.00	15.00	2.75	5.00	-0.219238	0.082031	0.988281	3.990000	65.169998	-14.280000	786.00	0.21	-0.03
2.64	0.00	0.00	0.00	0.00	0.00	0.00	0.00	0.00	0.00	0.00	0.00	0.00	0.00	0.00	0.00	0.00	-4.299805	0.197266	2.776367	8.470000	-447.440002	146.860001	0.00	0.00	0.00	0.25	0.00	0.75	1.50	1.00	0.25	2.50	3.00	10.75	9.75	9.75	7.75	8.25	17.00	3.25	5.75	-0.248535	0.062012	1.041016	6.300000	76.230003	-14.350000	832.00	0.23	-0.03
2.65	0.00	0.00	0.00	0.00	0.00	0.00	0.00	0.00	0.00	0.00	0.00	0.00	0.00	0.00	0.00	0.25	-4.704102	0.341309	1.978027	-48.509998	-410.339996	142.309998	1.00	0.00	0.00	0.00	0.00	0.25	1.25	0.75	0.00	2.25	2.75	11.50	10.50	10.25	8.25	8.25	18.75	5.00	6.25	-0.236328	0.088379	1.056641	9.520000	87.290001	-15.260000	873.00	0.25	-0.02
2.66	0.00	0.00	0.00	0.00	0.00	0.00	0.00	0.00	0.00	0.00	0.00	0.00	0.00	0.00	0.00	0.25	-4.883301	0.683594	0.986816	-107.660004	-348.110016	149.940002	1.00	0.00	0.00	0.00	0.00	0.25	1.00	0.25	0.00	2.00	2.25	12.00	11.00	10.75	8.75	8.25	20.00	5.50	7.00	-0.229980	0.094727	1.158691	11.900000	101.989998	-17.500000	895.00	0.26	-0.02
2.67	0.00	0.00	0.00	0.00	0.00	0.00	0.00	0.00	0.00	0.00	0.00	0.00	0.00	0.00	0.00	0.25	-5.483398	0.952148	-0.572754	-141.539993	-282.239990	156.869995	1.00	0.00	0.00	0.00	0.00	0.25	0.75	0.25	0.00	1.75	2.00	12.50	11.50	11.25	8.75	8.25	21.50	6.25	7.25	-0.273926	0.169434	1.227539	17.080000	149.029999	-27.650000	924.00	0.26	-0.01
2.68	0.00	0.00	0.00	0.00	0.00	0.00	0.00	0.00	0.00	0.00	0.00	0.00	0.00	0.00	0.00	0.25	-8.054688	1.836426	-1.023926	-116.199997	-222.320007	90.860001	1.00	0.00	0.00	0.25	0.00	0.00	0.75	0.00	0.00	1.25	1.75	12.50	11.75	11.50	9.00	8.00	22.75	6.75	7.75	-0.309570	0.113770	1.117188	17.080000	175.630005	-34.790001	934.00	0.27	-0.01
2.69	0.00	0.00	0.00	0.00	0.00	0.00	0.00	0.00	0.00	0.00	0.00	0.00	0.00	0.00	0.00	0.25	-7.790039	1.503906	-2.552734	55.090000	-127.680000	21.280001	1.00	0.00	0.00	0.25	0.00	0.00	0.50	0.00	0.00	1.00	1.25	12.75	11.75	11.75	9.25	7.75	23.75	7.25	8.00	-0.386230	0.160156	1.036621	11.900000	206.009995	-36.189999	941.00	0.28	-0.01
2.70	0.00	0.00	0.00	0.00	0.00	0.00	0.00	0.00	0.00	0.00	0.00	0.00	0.00	0.00	0.00	0.25	-7.242188	0.323730	-1.953125	227.570007	12.320000	13.300000	1.00	0.00	0.00	0.00	0.00	0.00	0.50	0.00	0.00	0.75	0.75	12.75	12.00	11.75	9.25	7.50	24.75	7.75	8.25	-0.579590	-0.029785	1.144531	33.459999	226.029999	-36.610001	943.00	0.28	-0.01
2.71	0.00	0.00	0.00	0.00	0.00	0.00	0.00	0.00	0.00	0.00	0.00	0.00	0.00	0.00	0.00	0.25	-6.158691	-0.589844	-0.427734	229.740005	149.449997	44.939999	1.00	0.00	0.00	0.00	0.00	0.00	0.00	0.00	0.00	0.25	0.50	12.50	11.75	11.75	8.75	7.00	25.25	8.00	8.25	-0.462891	0.077637	1.437012	11.060000	281.329987	-38.639999	917.00	0.29	-0.00
2.72	0.00	0.00	0.50	0.50	0.00	0.00	0.00	0.00	0.00	0.00	0.00	0.00	0.00	0.00	0.00	0.25	-4.253418	-1.171387	-0.361816	67.269997	233.029999	80.220001	12.00	0.00	0.00	0.00	0.00	0.00	0.00	0.00	0.00	0.25	0.00	11.75	11.50	11.50	8.75	6.25	26.00	7.75	8.00	-0.515137	0.178223	1.529297	-12.110000	336.839996	-41.580002	891.00	0.30	0.00
2.73	1.00	2.50	1.00	2.50	0.25	0.00	0.00	0.00	0.00	0.00	0.00	0.00	0.00	0.00	0.00	0.25	3.352051	0.354004	0.509766	37.170002	349.299988	70.629997	76.00	-0.32	-0.11	0.00	0.00	0.00	0.00	0.00	0.00	0.00	0.00	11.25	11.25	11.00	8.25	5.25	26.00	7.75	7.75	-0.777344	0.237305	1.834473	-23.379999	378.350006	-46.759998	857.00	0.30	0.01
2.74	5.75	10.00	2.75	5.25	0.25	0.00	0.00	0.00	0.00	0.00	0.00	0.00	0.00	0.00	0.00	0.25	0.942383	-1.962891	1.107422	-69.230003	245.350006	35.700001	244.00	-0.36	-0.08	0.00	0.00	0.00	0.00	0.00	0.00	0.00	0.00	10.00	10.50	10.25	7.75	4.50	25.50	7.75	7.00	-0.859375	0.375488	1.777344	-26.670000	431.690002	-57.610001	805.00	0.30	0.01
2.75	17.25	23.25	6.25	9.75	0.50	0.25	0.00	0.00	0.00	0.00	0.00	0.00	0.00	0.00	0.00	0.25	-1.259277	-0.366699	0.447754	-137.550003	330.190002	-44.170002	579.00	-0.36	-0.06	0.00	0.00	0.00	0.00	0.00	0.00	0.00	0.00	8.75	9.75	9.50	7.00	3.00	24.25	7.00	6.00	-0.834473	0.333984	2.740723	-18.059999	474.529999	-67.830002	728.00	0.31	0.02
2.76	25.00	30.25	9.50	14.75	1.50	2.00	0.25	0.00	0.00	0.00	0.00	0.00	0.00	0.00	0.00	0.25	-1.621094	-0.626465	5.271484	-48.650002	480.970001	-58.450001	848.00	-0.35	-0.06	0.00	0.00	0.00	0.00	0.00	0.00	0.00	0.00	7.00	8.50	8.00	5.50	2.00	22.00	6.00	5.00	-0.773438	0.583984	2.938477	-2.870000	518.070007	-78.190002	617.00	0.31	0.03
2.77	28.75	32.50	13.00	18.75	4.25	4.25	0.25	0.50	0.00	0.00	0.00	0.00	0.25	0.00	0.00	0.25	-1.965820	0.534180	5.595703	-22.260000	384.160004	-63.770000	1055.00	-0.34	-0.06	0.00	0.00	0.00	0.00	0.00	0.00	0.00	0.00	5.25	7.25	6.00	3.50	0.75	18.50	5.00	3.25	-1.455566	0.675293	3.145020	27.299999	564.970032	-86.309998	478.00	0.32	0.04
2.78	29.00	31.75	14.50	19.25	6.00	5.75	0.50	0.75	0.00	0.00	0.00	0.00	0.25	0.00	0.00	0.25	-1.000977	1.308105	3.082031	-81.410004	245.000000	-44.730000	1116.00	-0.33	-0.06	0.00	0.00	0.00	0.00	0.00	0.00	0.00	0.00	3.75	4.50	3.25	2.00	0.25	14.00	2.75	1.50	-1.084473	0.763672	3.788574	90.720001	597.869995	-92.959999	309.00	0.32	0.07
2.79	27.75	30.50	15.00	19.00	7.00	6.50	0.50	1.00	0.00	0.00	0.00	0.00	0.25	0.25	0.00	0.25	-0.332520	-0.037109	1.406738	-130.339996	165.479996	-4.340000	1120.00	-0.32	-0.06	0.00	0.00	0.00	0.00	0.00	0.00	0.00	0.00	1.50	3.00	2.00	1.00	0.00	9.00	1.50	0.25	-0.375488	0.716309	3.851074	192.149994	619.780029	-101.290001	176.00	0.33	0.08
2.80	26.00	28.50	14.75	18.75	8.00	7.25	0.75	1.25	0.00	0.00	0.00	0.00	0.50	0.25	0.00	0.50	-0.066895	-0.693359	1.155762	-116.830002	148.259995	-2.100000	1108.00	-0.31	-0.06	0.00	0.00	0.00	0.00	0.00	0.00	0.25	0.00	1.00	2.00	1.50	0.75	0.50	4.50	0.75	0.25	-0.191406	0.060547	4.776855	269.429993	642.109985	-117.389999	113.00	0.30	0.05
2.81	25.25	27.75	14.75	18.75	8.50	8.00	0.75	1.75	0.00	0.00	0.00	0.25	0.75	0.50	0.00	0.25	-0.453125	0.103516	1.657227	-69.440002	107.169998	-10.710000	1120.00	-0.30	-0.07	0.00	0.00	0.00	0.25	0.00	0.00	0.25	0.00	0.50	1.00	0.50	0.00	0.00	1.75	0.25	0.00	1.608398	-0.217773	4.684570	276.149994	612.640015	-160.930008	46.00	0.00	0.00
2.82	24.00	26.25	14.50	18.50	8.75	8.25	0.75	2.00	0.25	0.25	0.00	0.25	0.50	0.50	0.00	0.25	-0.168457	-0.048340	1.074219	-17.780001	36.889999	1.890000	1101.00	-0.29	-0.07	0.00	0.00	0.00	0.00	0.00	0.00	0.25	0.00	0.25	1.25	0.50	0.00	0.00	0.75	0.25	0.00	0.895020	0.661621	2.875977	154.350006	535.359985	-231.000000	34.00	0.00	0.00
2.83	22.75	25.75	14.25	18.25	8.75	9.00	1.00	2.25	0.50	0.50	0.25	0.25	1.00	1.00	0.00	0.25	-0.168457	-0.048340	1.074219	-17.780001	36.889999	1.890000	1111.00	-0.28	-0.07	0.00	0.00	0.00	0.00	0.00	0.25	0.50	0.00	0.50	1.00	0.25	0.00	0.00	0.50	0.00	0.00	1.906250	2.086426	6.786621	58.450001	211.190002	-176.190002	34.00	0.00	0.00
2.84	21.50	25.00	13.75	18.00	8.75	9.00	1.00	2.50	0.50	0.25	0.25	0.25	0.75	1.00	0.00	0.50	-0.116211	0.041016	1.010742	-0.840000	20.090000	0.980000	1083.00	-0.28	-0.07	0.00	0.00	0.00	0.00	0.00	0.00	0.25	0.00	0.50	0.75	0.25	0.00	0.00	0.50	0.00	0.00	1.975098	1.338867	4.206543	-24.500000	-58.310001	-73.010002	25.00	0.00	0.00
2.85	20.00	24.00	13.25	17.50	8.50	9.00	1.00	2.75	0.50	0.75	0.50	0.50	1.00	1.00	0.00	0.25	-0.104004	0.062988	0.972656	1.750000	19.530001	-0.140000	1059.00	-0.27	-0.08	0.00	0.00	0.00	0.00	0.00	0.00	0.50	0.00	0.50	0.50	0.25	0.00	0.00	0.50	0.00	0.00	1.460449	1.719238	1.771484	-80.989998	-135.520004	18.549999	26.00	0.00	0.00
2.86	17.75	21.50	12.75	16.75	8.25	9.25	1.00	3.00	0.50	0.75	0.50	0.75	1.25	1.25	0.00	0.25	-0.095703	0.061523	0.971191	1.960000	22.960001	0.070000	1010.00	-0.26	-0.08	0.00	0.00	0.00	0.00	0.00	0.00	0.25	0.00	0.25	0.25	0.25	0.00	0.00	0.25	0.00	0.00	1.269531	1.459961	1.126465	-54.529999	-109.760002	87.430000	14.00	0.00	0.00
2.87	15.25	20.00	12.00	15.75	8.25	9.00	1.00	3.25	0.50	0.50	0.50	0.75	1.25	1.00	0.00	0.50	-0.106934	0.071777	0.975098	0.560000	27.090000	-0.490000	949.00	-0.25	-0.09	0.00	0.00	0.00	0.00	0.00	0.00	0.50	0.00	0.00	0.25	0.00	0.00	0.00	0.50	0.00	0.00	1.353516	1.012207	1.666016	9.660000	-103.389999	121.169998	14.00	0.00	0.00
2.88	13.25	17.50	11.25	14.75	7.75	8.75	1.00	3.25	0.50	0.50	1.00	0.75	1.25	1.00	0.25	0.50	-0.105957	0.072754	0.955566	-2.590000	30.450001	-1.050000	885.00	-0.24	-0.09	0.00	0.25	0.00	0.00	0.00	0.00	0.50	0.00	0.00	0.50	0.00	0.00	0.00	0.25	0.00	0.00	1.229980	-0.083008	2.047363	29.469999	-218.119995	102.690002	17.00	0.00	0.00
2.89	10.50	15.00	10.00	13.00	7.50	8.00	1.00	3.25	0.75	0.75	0.75	0.75	1.50	1.25	0.00	0.50	-0.141602	0.050293	0.993652	-4.340000	31.710001	-1.470000	795.00	-0.23	-0.09	0.00	0.00	0.00	0.25	0.00	0.00	0.50	0.00	0.00	0.25	0.00	0.00	0.00	0.00	0.00	0.00	0.939453	-0.122559	1.715820	-12.040000	-283.079987	80.220001	13.00	0.00	0.00
2.90	8.75	12.50	9.00	11.75	6.75	8.00	1.00	3.25	0.75	0.75	0.50	0.75	1.50	1.00	0.00	0.50	-0.142090	0.065430	0.981445	-4.340000	30.799999	-2.030000	716.00	-0.22	-0.10	0.00	0.00	0.00	0.00	0.00	0.00	0.25	0.00	0.00	0.00	0.00	0.00	0.00	0.25	0.00	0.00	0.662109	-0.045410	1.448730	-34.299999	-325.989990	58.450001	6.00	0.00	0.00
2.91	7.50	10.25	8.25	10.25	6.25	7.50	1.00	3.25	0.75	1.00	0.75	0.75	1.50	1.00	0.00	0.50	-0.123047	0.051270	0.957031	-5.670000	31.290001	-1.960000	652.00	-0.20	-0.10	0.00	0.00	0.00	0.00	0.00	0.00	0.50	0.00	0.00	0.00	0.00	0.00	0.00	0.00	0.00	0.00	0.427734	-0.034180	1.352051	-27.790001	-354.549988	39.900002	8.00	0.00	0.00
2.92	6.00	8.50	7.50	9.25	6.00	7.00	1.00	3.25	0.75	0.75	0.75	1.00	1.50	1.50	0.00	0.50	-0.122070	0.027344	0.963867	-5.320000	32.549999	-1.400000	597.00	-0.19	-0.10	0.00	0.00	0.00	0.00	0.00	0.00	0.25	0.00	0.00	0.00	0.00	0.00	0.00	0.00	0.00	0.00	0.196777	-0.114746	1.364746	-11.550000	-377.649994	25.480000	4.00	0.00	0.00
2.93	5.25	7.00	7.00	8.50	5.50	6.50	1.00	3.25	1.00	0.75	1.25	1.00	1.75	1.50	0.00	0.50	-0.130859	0.023438	0.972656	-3.010000	32.340000	-1.750000	561.00	-0.17	-0.10	0.00	0.00	0.25	0.00	0.00	0.00	0.50	0.00	0.00	0.00	0.00	0.00	0.00	0.00	0.00	0.00	0.014648	-0.196777	1.381348	-3.850000	-397.950012	15.050000	10.00	0.00	0.00
2.94	3.75	6.00	5.75	7.50	5.00	6.25	1.00	3.25	1.00	1.25	1.25	1.00	1.75	1.50	0.25	0.50	-0.158691	0.052734	0.945801	-1.890000	32.480000	-3.010000	511.00	-0.15	-0.11	0.00	0.00	0.00	0.00	0.00	0.00	0.50	0.00	0.00	0.00	0.00	0.00	0.00	0.00	0.00	0.00	-0.140625	-0.200195	1.400391	-6.300000	-414.190002	8.050000	8.00	0.00	0.00
2.95	2.75	5.25	5.00	6.50	4.50	5.75	1.00	3.50	1.25	1.50	1.50	1.25	2.00	1.50	0.25	0.50	-0.134277	0.048828	0.938965	-1.960000	33.459999	-4.200000	481.00	-0.12	-0.11	0.00	0.00	0.00	0.00	0.00	0.00	0.25	0.00	0.00	0.00	0.00	0.00	0.00	0.00	0.00	0.00	-0.277344	-0.148926	1.446289	-10.080000	-426.089996	3.850000	4.00	0.00	0.00
2.96	2.25	4.25	4.50	5.75	4.00	5.50	1.25	3.50	1.75	1.50	1.50	1.50	2.25	1.75	0.25	0.75	-0.180664	0.051758	0.940430	-1.680000	34.230000	-5.180000	463.00	-0.09	-0.11	0.00	0.00	0.25	0.00	0.00	0.00	0.25	0.00	0.00	0.00	0.00	0.00	0.00	0.00	0.00	0.00	-0.379395	-0.074219	1.533203	-9.590000	-435.190002	3.150000	7.00	0.00	0.00
2.97	2.00	3.25	3.25	5.25	4.00	5.00	1.25	4.00	2.25	1.75	2.00	2.00	3.00	2.25	0.25	0.75	-0.161621	0.062012	0.958496	-2.030000	34.369999	-5.810000	464.00	-0.05	-0.11	0.00	0.00	0.00	0.00	0.00	0.00	0.25	0.00	0.00	0.00	0.00	0.00	0.00	0.00	0.00	0.00	-0.434082	-0.013672	1.649414	-4.620000	-442.890015	7.420000	4.00	0.00	0.00
2.98	1.75	2.50	3.00	5.00	3.75	5.00	1.50	4.00	3.00	2.25	2.25	2.00	3.25	2.50	0.50	0.75	-0.143555	0.053711	0.948242	-1.960000	35.700001	-7.420000	475.00	-0.02	-0.10	0.00	0.00	0.00	0.00	0.00	0.00	0.50	0.00	0.00	0.00	0.00	0.00	0.00	0.00	0.00	0.00	-0.488281	0.037109	1.821289	2.450000	-449.610016	15.960000	8.00	0.00	0.00
2.99	1.25	2.50	2.50	4.25	3.50	4.75	1.75	4.25	3.50	3.00	2.75	2.75	3.50	2.75	0.75	1.00	-0.172852	0.035156	0.964844	-1.960000	38.220001	-8.680000	494.00	0.01	-0.10	0.00	0.00	0.00	0.25	0.00	0.25	0.25	0.00	0.00	0.00	0.00	0.00	0.00	0.00	0.00	0.00	-0.552246	0.102539	2.077148	7.280000	-457.450012	26.530001	9.00	0.00	0.00
3.00	0.75	2.00	2.00	3.50	3.25	4.00	2.00	4.75	4.50	3.50	3.50	3.00	4.00	3.75	0.50	1.00	-0.199219	0.054199	0.946777	-1.120000	39.410000	-9.240000	510.00	0.05	-0.09	0.00	0.00	0.00	0.25	0.00	0.00	0.25	0.00	0.00	0.00	0.00	0.00	0.00	0.00	0.00	0.00	-0.620117	0.164062	2.339844	8.540000	-469.279999	37.170002	7.00	0.00	0.00
3.01	1.00	1.75	2.00	3.50	3.00	4.00	2.25	5.00	7.00	4.25	4.25	3.75	5.00	4.75	0.50	1.00	-0.159180	0.042969	0.951660	-0.700000	42.070000	-9.660000	588.00	0.07	-0.07	0.00	0.00	0.00	0.00	0.00	0.00	0.50	0.00	0.00	0.00	0.00	0.00	0.00	0.00	0.00	0.00	-0.723633	0.213867	2.555176	10.780000	-483.209991	48.160000	8.00	0.00	0.00
3.02	1.00	1.50	1.75	3.25	2.75	3.50	2.50	5.00	7.75	5.50	5.75	4.25	5.50	5.50	0.75	1.00	-0.203125	0.048828	0.987793	0.490000	52.220001	-12.600000	633.00	0.10	-0.07	0.00	0.00	0.00	0.00	0.00	0.25	0.50	0.00	0.00	0.00	0.00	0.00	0.00	0.00	0.00	0.00	-0.846680	0.201660	2.717773	19.809999	-494.760010	56.000000	10.00	0.00	0.00
3.03	0.75	1.25	1.75	3.25	2.50	3.25	2.75	5.25	8.50	7.25	7.75	5.50	6.50	7.00	1.00	1.25	-0.203125	0.048828	0.987793	0.490000	52.220001	-12.600000	718.00	0.12	-0.06	0.00	0.00	0.00	0.00	0.00	0.00	0.25	0.00	0.00	0.00	0.00	0.00	0.00	0.00	0.00	0.00	-1.056152	0.186523	2.862793	34.509998	-502.739990	55.020000	4.00	0.00	0.00
3.04	0.75	1.00	1.25	3.00	2.25	2.25	2.75	5.00	9.50	8.00	8.25	6.75	6.75	8.00	1.00	1.50	-0.238770	0.054688	1.014648	6.650000	66.500000	-17.150000	741.00	0.14	-0.06	0.00	0.00	0.00	0.00	0.00	0.00	0.25	0.00	0.00	0.00	0.00	0.00	0.00	0.00	0.00	0.00	-1.354004	0.289062	3.092773	51.799999	-505.330017	44.799999	4.00	0.00	0.00
3.05	0.50	1.00	1.00	2.25	1.75	2.50	2.75	5.25	10.25	8.75	9.25	7.50	7.25	9.00	1.25	1.75	-0.274414	0.048340	0.989746	10.500000	75.949997	-19.950001	782.00	0.16	-0.06	0.00	0.00	0.00	0.00	0.00	0.00	0.25	0.00	0.00	0.00	0.00	0.00	0.00	0.00	0.00	0.00	-1.756836	0.435547	3.257324	71.400002	-502.529999	33.529999	4.00	0.00	0.00
3.06	0.50	0.75	0.75	2.00	1.50	1.75	2.75	5.25	10.75	9.50	10.25	8.25	7.75	10.25	1.25	2.00	-0.232422	0.063477	1.019043	14.210000	86.029999	-21.490000	812.00	0.18	-0.05	0.00	0.00	0.00	0.00	0.00	0.00	0.25	0.00	0.00	0.00	0.00	0.00	0.00	0.00	0.00	0.00	-2.345215	0.590332	3.455566	88.480003	-493.149994	30.170000	4.00	0.00	0.00
3.07	0.50	0.75	0.75	1.50	1.25	1.25	2.75	5.00	11.50	10.25	11.00	8.75	8.00	11.50	1.75	2.50	-0.272949	0.081543	1.023926	16.450001	97.160004	-23.940001	846.00	0.19	-0.05	0.00	0.00	0.00	0.00	0.00	0.00	0.25	0.00	0.00	0.00	0.00	0.00	0.00	0.00	0.00	0.00	-2.918945	0.605469	3.534668	93.519997	-480.269989	41.790001	4.00	0.00	0.00
3.08	0.50	0.25	0.50	1.50	0.75	1.00	2.50	5.00	12.00	10.75	12.00	9.50	8.25	12.50	2.00	2.75	-0.308594	0.077148	1.071777	18.410000	108.010002	-26.320000	871.00	0.20	-0.05	0.00	0.00	0.00	0.00	0.00	0.00	0.25	0.00	0.00	0.00	0.00	0.00	0.00	0.00	0.00	0.00	-3.913574	0.675781	2.764160	52.080002	-448.769989	107.520004	4.00	0.00	0.00
3.09	0.25	0.25	0.25	1.50	0.75	0.50	2.00	4.75	12.75	11.25	12.75	10.00	8.25	13.75	2.25	3.75	-0.290039	0.045898	1.086914	22.960001	120.610001	-26.880001	896.00	0.22	-0.04	0.00	0.00	0.00	0.00	0.00	0.00	0.25	0.00	0.00	0.00	0.00	0.00	0.00	0.00	0.00	0.00	-4.521973	0.572266	1.047363	26.530001	-407.260010	170.309998	4.00	0.00	0.00
3.10	0.25	0.25	0.00	0.75	0.75	0.25	1.75	4.25	13.00	11.75	13.50	10.75	8.50	15.00	2.50	4.25	-0.327148	0.093750	1.120117	27.160000	137.899994	-27.299999	913.00	0.23	-0.04	0.00	0.00	0.00	0.00	0.00	0.00	0.25	0.00	0.00	0.00	0.00	0.00	0.00	0.00	0.00	0.00	-7.514160	0.664062	-0.342773	10.710000	-341.320007	195.020004	4.00	0.00	0.00
3.11	0.25	0.00	0.00	1.25	0.25	0.25	1.25	3.75	13.25	12.50	14.00	11.25	8.25	16.25	3.00	5.00	-0.352539	0.068848	1.140137	28.210001	161.559998	-26.740000	935.00	0.24	-0.04	0.00	0.00	0.00	0.00	0.00	0.00	0.25	0.00	0.00	0.00	0.00	0.00	0.00	0.00	0.00	0.00	-8.413086	0.312012	-2.236816	80.220001	-244.369995	177.380005	4.00	0.00	0.00
3.12	0.00	0.00	0.00	0.75	0.00	0.00	1.00	3.00	13.50	12.75	14.75	11.50	8.00	17.25	3.25	5.25	-0.327637	0.087402	1.192871	31.360001	185.639999	-25.620001	933.00	0.25	-0.03	0.00	0.00	0.00	0.00	0.00	0.00	0.25	0.00	0.00	0.00	0.00	0.00	0.00	0.00	0.00	0.00	-7.879883	-0.484375	-2.326660	160.789993	-88.340004	146.930008	4.00	0.00	0.00
3.13	0.00	0.00	0.00	0.25	0.00	0.00	0.50	2.50	13.25	12.75	14.75	11.75	7.75	18.25	3.75	5.25	-0.441895	0.062012	1.118164	33.180000	214.199997	-22.680000	924.00	0.26	-0.03	0.00	0.00	0.00	0.00	0.00	0.00	0.25	0.00	0.00	0.00	0.00	0.00	0.00	0.00	0.00	0.00	-6.454590	-0.885742	-1.003418	133.419998	62.930000	121.309998	4.00	0.00	0.00
3.14	0.00	0.00	0.00	0.25	0.00	0.00	0.25	1.75	13.25	12.75	15.00	11.75	7.50	19.00	4.25	5.50	-0.503418	0.083496	1.134277	33.180000	249.830002	-17.639999	922.00	0.26	-0.03	0.00	0.00	0.00	0.00	0.00	0.00	0.25	0.00	0.00	0.00	0.00	0.00	0.00	0.00	0.00	0.00	-4.719727	-0.858398	0.305664	50.189999	152.389999	120.820000	4.00	0.00	0.00
3.15	0.00	0.00	0.00	0.25	0.00	0.00	0.00	1.50	13.00	12.50	15.00	11.75	7.00	19.50	4.75	5.50	-0.515137	0.137207	1.420898	36.119999	293.649994	-17.080000	914.00	0.27	-0.02	0.00	0.00	0.00	0.00	0.00	0.00	0.25	0.00	0.00	0.00	0.00	0.00	0.00	0.00	0.00	0.00	-3.256348	-0.595703	0.949219	-7.350000	177.800003	132.089996	4.00	0.00	0.00
3.16	0.00	0.00	0.00	0.25	0.00	0.00	0.00	1.00	12.25	12.25	14.75	11.25	6.25	19.50	5.00	5.50	-0.560059	0.132812	1.600098	36.540001	338.029999	-22.120001	882.00	0.27	-0.02	0.25	0.75	0.50	1.50	0.00	0.00	0.25	0.00	0.00	0.00	0.00	0.00	0.00	0.00	0.00	0.00	-2.203125	-1.086914	2.023438	-27.790001	344.610016	60.970001	35.00	0.00	0.00
3.17	0.00	0.00	0.00	0.00	0.00	0.00	0.00	0.75	11.50	11.75	14.25	10.75	5.75	19.25	5.00	5.25	-0.804688	0.236328	1.803711	26.600000	380.660004	-29.400000	842.00	0.28	-0.02	2.50	4.00	2.00	3.50	0.00	0.00	0.25	0.00	0.00	0.00	0.00	0.00	0.00	0.00	0.00	0.00	-0.543945	-1.041016	-1.300781	-63.349998	278.529999	7.560000	127.00	-0.33	-0.07
3.18	0.00	0.00	0.00	0.00	0.00	0.00	0.00	0.50	10.50	11.00	13.25	10.25	4.75	18.75	4.75	4.75	-0.727539	0.294922	1.828613	11.830000	429.380005	-38.849998	783.00	0.28	-0.01	10.75	12.50	4.25	7.75	0.25	0.00	0.25	0.00	0.00	0.00	0.00	0.00	0.00	0.00	0.00	0.00	-0.253906	-0.624023	1.155762	-79.169998	253.330002	-30.940001	365.00	-0.36	-0.06
3.19	0.00	0.00	0.00	0.00	0.00	0.00	0.00	0.25	9.00	10.25	12.25	9.25	3.75	17.75	4.25	3.75	-0.950195	0.570801	2.032715	17.430000	478.380005	-50.119999	703.00	0.28	-0.01	18.50	18.50	8.00	10.25	1.00	0.50	0.50	0.00	0.00	0.00	0.00	0.00	0.00	0.00	0.00	0.00	-1.210938	-0.775879	2.472168	-27.299999	363.790009	-35.630001	587.00	-0.35	-0.04
3.20	0.00	0.00	0.00	0.00	0.00	0.00	0.00	0.25	7.75	8.75	10.75	7.75	2.50	15.75	3.50	3.00	-1.049805	0.380371	2.970703	43.610001	527.590027	-63.840000	600.00	0.28	0.00	22.75	21.25	10.75	12.75	2.75	3.00	0.50	0.00	0.00	0.00	0.00	0.00	0.50	0.00	0.00	0.00	-1.767090	0.310059	6.143066	-5.950000	422.799988	-62.510002	766.00	-0.33	-0.05
3.21	0.00	0.00	0.00	0.00	0.00	0.00	0.00	0.00	5.75	7.00	8.50	6.00	1.75	12.75	2.25	1.75	-1.384766	0.570312	3.115723	70.769997	566.859985	-65.029999	457.00	0.29	0.01	24.00	21.75	12.50	14.25	6.25	5.00	0.75	0.75	0.00	0.00	0.00	0.00	0.75	0.00	0.00	0.00	-1.576660	1.228027	4.998535	-49.980000	312.690002	-52.080002	897.00	-0.31	-0.05
3.22	0.00	0.00	0.00	0.00	0.00	0.00	0.00	0.00	4.00	4.25	5.75	4.25	1.00	9.00	1.25	1.25	-1.536133	0.824219	3.838867	139.860001	599.619995	-61.389999	307.00	0.29	0.01	23.75	21.25	13.00	14.25	7.25	6.00	1.00	1.00	0.00	0.00	0.00	0.25	0.75	0.00	0.00	0.00	-0.737793	0.621094	2.363281	-133.979996	161.559998	-13.650000	927.00	-0.30	-0.05
3.23	0.00	0.00	0.00	0.00	0.00	0.00	0.00	0.00	2.50	2.75	3.50	3.00	0.75	5.25	0.50	0.75	-0.845703	0.560547	4.146484	229.460007	622.090027	-66.500000	190.00	0.28	0.00	23.00	20.25	13.25	14.25	8.25	7.25	1.00	1.75	0.00	0.25	0.25	0.25	1.00	0.00	0.00	0.00	0.142578	-0.734375	1.200195	-123.410004	105.629997	3.990000	956.00	-0.29	-0.06
3.24	0.00	0.00	0.00	0.00	0.00	0.00	0.00	0.00	1.75	2.25	1.75	2.25	0.50	2.25	0.50	0.75	-0.607910	0.374512	4.081543	279.860016	633.500000	-85.959999	121.00	0.27	-0.01	21.75	19.00	13.00	14.25	8.50	8.00	1.25	2.25	0.25	0.50	0.50	0.50	1.25	0.25	0.00	0.00	-0.444336	0.420410	1.413086	-11.900000	50.540001	-2.240000	967.00	-0.27	-0.06
3.25	0.00	0.00	0.00	0.25	0.00	0.00	0.00	0.00	0.50	1.00	0.75	1.00	0.00	2.00	0.25	0.50	0.321289	-0.260742	3.015625	221.339996	636.580017	-201.039993	60.00	0.27	-0.00	21.00	19.00	13.00	14.25	8.75	8.25	1.25	2.75	0.50	0.50	0.25	0.25	1.25	0.50	0.00	0.00	-0.444336	0.420410	1.413086	-11.900000	50.540001	-2.240000	972.00	-0.27	-0.06
3.26	0.00	0.00	0.00	0.00	0.00	0.00	0.00	0.00	0.50	1.00	0.75	1.00	0.00	1.00	0.00	0.50	1.058105	1.167969	8.014648	81.550003	429.170013	-213.289993	47.00	0.00	0.00	21.00	18.75	13.00	14.25	9.00	8.50	1.50	3.00	0.25	0.50	0.50	0.50	1.25	0.50	0.00	0.00	-0.152832	-0.111328	1.089355	-7.700000	15.120000	4.970000	985.00	-0.26	-0.06
3.27	0.00	0.00	0.00	0.00	0.00	0.00	0.00	0.00	0.50	1.00	0.50	0.75	0.00	0.75	0.00	0.50	2.063965	1.600586	5.976562	-43.889999	115.360001	-148.820007	39.00	0.00	0.00	20.00	18.50	12.75	14.25	8.75	8.75	1.50	3.25	0.25	0.50	0.50	0.50	2.00	0.75	0.00	0.00	-0.137207	0.060059	1.065918	3.150000	1.400000	3.710000	982.00	-0.26	-0.07
3.28	0.00	0.00	0.00	0.00	0.00	0.00	0.00	0.00	0.25	1.00	0.50	0.50	0.00	0.75	0.25	0.50	1.723145	1.854492	3.991699	-112.000000	-125.930000	-65.800003	36.00	0.00	0.00	19.50	18.25	12.75	14.25	8.75	8.75	1.50	3.50	0.25	0.50	0.75	0.25	1.75	0.75	0.00	0.00	-0.044434	0.004883	1.016113	8.610000	1.750000	5.880000	976.00	-0.26	-0.07
3.29	0.00	0.00	0.25	0.00	0.00	0.00	0.00	0.00	0.25	1.00	0.50	0.75	0.00	0.25	0.00	0.25	1.359863	1.691406	2.117676	-88.620003	-209.020004	-10.150000	33.00	0.00	0.00	19.00	17.50	12.25	14.00	8.75	9.00	1.50	3.50	0.50	0.75	0.75	0.50	1.75	0.75	0.00	0.00	-0.048828	0.089355	1.007812	11.200000	5.320000	4.900000	967.00	-0.25	-0.07
3.30	0.00	0.00	0.00	0.00	0.00	0.00	0.00	0.00	0.00	0.50	0.50	0.25	0.00	0.50	0.00	0.50	1.305664	1.388672	1.465332	-25.340000	-216.509995	18.340000	20.00	0.00	0.00	18.00	17.00	11.75	13.50	8.25	9.00	1.50	3.75	0.00	0.75	0.75	0.75	2.00	0.75	0.00	0.00	-0.058594	0.077148	0.997070	9.870000	9.450000	4.690000	938.00	-0.25	-0.08
3.31	0.00	0.00	0.00	0.00	0.00	0.00	0.00	0.00	0.25	0.50	0.25	0.25	0.00	0.25	0.00	0.25	1.117676	1.085938	1.697754	27.299999	-231.559998	36.330002	17.00	0.00	0.00	16.25	16.00	11.50	13.25	8.00	8.75	1.50	3.75	0.25	0.50	0.75	0.75	2.00	0.50	0.00	0.00	-0.062012	0.097168	0.988281	6.300000	12.810000	3.150000	898.00	-0.24	-0.08
3.32	0.00	0.00	0.00	0.00	0.00	0.00	0.00	0.00	0.00	0.25	0.00	0.25	0.00	0.25	0.00	0.50	0.992676	0.650879	1.819824	46.900002	-272.160004	52.639999	10.00	0.00	0.00	14.75	14.50	10.75	12.50	7.75	8.25	1.50	3.50	0.00	0.75	1.00	0.75	2.00	0.50	0.00	0.00	-0.051270	0.081543	0.974609	1.750000	15.610000	1.890000	842.00	-0.24	-0.08
3.33	0.00	0.00	0.00	0.00	0.00	0.00	0.00	0.00	0.00	0.25	0.25	0.25	0.00	0.00	0.00	0.25	0.696777	0.349121	1.747070	25.830000	-325.360016	62.510002	9.00	0.00	0.00	13.00	13.25	10.00	11.75	7.25	8.00	1.25	3.25	0.50	0.75	1.00	0.50	1.75	0.25	0.00	0.00	-0.060547	0.054688	0.991699	-0.210000	17.639999	1.050000	779.00	-0.24	-0.08
3.34	0.00	0.00	0.00	0.00	0.00	0.00	0.00	0.00	0.00	0.00	0.00	0.25	0.00	0.00	0.00	0.50	0.379395	0.208984	1.573242	-14.840000	-370.929993	64.610001	5.00	0.00	0.00	11.25	11.50	9.25	11.00	6.50	7.75	1.25	3.25	0.75	0.75	1.00	0.50	2.00	0.50	0.00	0.00	-0.062988	0.073730	0.984375	-0.700000	18.830000	0.840000	725.00	-0.22	-0.09
3.35	0.00	0.00	0.00	0.00	0.00	0.00	0.00	0.00	0.00	0.00	0.00	0.00	0.00	0.00	0.00	0.50	0.138672	0.235352	1.412109	-45.360001	-401.519989	60.900002	3.00	0.00	0.00	9.50	10.25	8.75	10.25	6.00	7.25	1.25	3.00	0.25	0.50	0.75	1.00	1.75	0.50	0.00	0.00	-0.040039	0.066895	0.966309	-2.590000	21.000000	0.840000	658.00	-0.22	-0.09
3.36	0.00	0.00	0.00	0.25	0.00	0.00	0.00	0.00	0.00	0.00	0.00	0.00	0.00	0.00	0.00	0.25	-0.058105	0.272949	1.300293	-48.860001	-420.980011	52.430000	4.00	0.00	0.00	8.00	8.75	8.00	9.50	5.50	6.50	1.25	3.00	0.25	0.75	0.75	0.75	1.75	0.50	0.25	0.00	-0.062500	0.044434	0.985352	-4.060000	23.309999	1.050000	601.00	-0.21	-0.09
3.37	0.00	0.00	0.00	0.00	0.00	0.00	0.00	0.00	0.00	0.00	0.00	0.00	0.00	0.00	0.00	0.25	-0.240234	0.249512	1.252930	-29.120001	-433.929993	41.369999	1.00	0.00	0.00	6.50	7.50	7.25	8.75	5.25	6.00	1.25	2.75	0.50	0.75	0.75	0.75	2.50	0.50	0.00	0.00	-0.079102	0.048828	0.968750	-3.640000	24.360001	0.560000	553.00	-0.20	-0.10
3.38	0.00	0.00	0.00	0.25	0.00	0.00	0.00	0.00	0.00	0.00	0.00	0.00	0.00	0.00	0.00	0.50	-0.370117	0.188965	1.259766	-3.010000	-440.580017	30.309999	5.00	0.00	0.00	5.50	6.25	6.50	8.25	4.75	5.50	1.25	2.50	0.50	0.75	1.25	0.75	2.25	0.50	0.00	0.00	-0.061523	0.056152	0.958984	-4.060000	24.990000	0.280000	506.00	-0.19	-0.10
3.39	0.00	0.00	0.00	0.00	0.00	0.00	0.00	0.00	0.00	0.00	0.00	0.00	0.00	0.00	0.00	0.25	-0.483887	0.143066	1.296875	16.100000	-444.149994	21.840000	1.00	0.00	0.00	4.50	5.50	5.75	7.50	4.25	5.00	1.25	2.75	0.50	1.25	1.50	1.00	2.00	0.25	0.00	0.00	-0.064941	0.063477	0.960449	-5.320000	25.480000	-0.980000	471.00	-0.17	-0.11
3.40	0.00	0.00	0.00	0.00	0.00	0.00	0.00	0.00	0.00	0.00	0.00	0.00	0.00	0.00	0.00	0.25	-0.563965	0.138672	1.406738	21.840000	-445.339996	17.219999	1.00	0.00	0.00	3.50	5.00	5.25	6.75	4.00	4.75	1.50	2.75	1.25	1.50	1.75	1.00	2.50	0.75	0.00	0.25	-0.077148	0.060547	0.956055	-5.880000	25.549999	-2.940000	465.00	-0.13	-0.10
3.41	0.00	0.00	0.00	0.00	0.00	0.00	0.00	0.00	0.00	0.00	0.00	0.00	0.00	0.00	0.00	0.25	-0.593750	0.187988	1.519043	18.969999	-446.250000	18.200001	1.00	0.00	0.00	2.75	3.00	4.75	6.25	3.75	4.75	1.50	3.25	1.00	1.50	1.75	1.25	3.25	1.25	0.25	0.25	-0.052734	0.044434	0.987793	-5.110000	25.900000	-5.040000	446.00	-0.10	-0.11
3.42	0.00	0.00	0.00	0.25	0.00	0.00	0.00	0.00	0.00	0.00	0.00	0.00	0.00	0.00	0.00	0.25	-1.796387	0.289062	1.656738	4.200000	-445.830017	27.650000	4.00	0.00	0.00	2.50	2.75	4.25	5.75	3.75	4.25	1.75	3.25	1.50	1.75	2.00	1.75	4.00	1.50	0.25	0.50	-0.083496	0.208984	0.973633	-5.180000	24.360001	-6.440000	455.00	-0.07	-0.11
3.43	0.00	0.00	0.00	0.00	0.00	0.00	0.00	0.00	0.00	0.00	0.00	0.00	0.00	0.00	0.00	0.25	-0.195312	0.500488	2.275879	-79.099998	-429.589996	58.799999	1.00	0.00	0.00	2.00	2.00	3.50	5.00	3.50	4.25	2.00	3.50	2.00	2.25	2.50	2.25	4.25	2.25	0.25	0.75	-0.130859	0.286133	0.914551	-1.120000	23.100000	-5.460000	463.00	-0.03	-0.11
3.44	0.00	0.00	0.00	0.25	0.00	0.00	0.00	0.00	0.00	0.00	0.00	0.00	0.00	0.00	0.00	0.25	-0.827148	1.052734	2.398926	-19.600000	-453.390015	72.239998	4.00	0.00	0.00	1.25	1.75	3.00	4.75	3.25	4.00	2.25	4.00	2.25	2.50	2.75	2.50	5.00	3.00	0.25	0.75	-0.140137	-0.032227	1.009277	-1.680000	22.889999	-6.230000	475.00	0.00	-0.11
3.45	0.00	0.00	0.00	0.00	0.00	0.00	0.00	0.00	0.00	0.00	0.00	0.00	0.00	0.00	0.00	0.25	-0.861328	0.645508	2.246094	61.529999	-468.580017	74.129997	1.00	0.00	0.00	1.25	1.50	2.00	4.25	3.00	3.50	2.25	5.00	3.00	3.25	3.75	3.25	5.75	4.00	0.50	1.00	-0.129883	0.081543	0.977539	2.800000	24.500000	-7.280000	518.00	0.04	-0.12
3.46	0.00	0.00	0.00	0.00	0.00	0.00	0.00	0.00	0.00	0.00	0.00	0.00	0.00	0.00	0.00	0.25	-1.022949	0.512207	2.708984	73.709999	-475.089996	85.190002	1.00	0.00	0.00	1.50	1.00	2.25	3.25	3.00	3.75	2.50	5.50	3.75	4.00	4.25	4.00	6.75	5.75	0.50	1.25	-0.130371	0.060059	0.997070	5.880000	31.290001	-10.290000	578.00	0.07	-0.11
3.47	0.00	0.25	0.00	0.00	0.00	0.00	0.00	0.00	0.00	0.00	0.00	0.00	0.00	0.00	0.00	0.25	-2.083496	0.885254	2.834473	27.930000	-482.089996	116.690002	4.00	0.00	0.00	1.00	0.75	1.75	3.50	2.25	3.50	2.50	6.00	4.50	4.75	6.00	4.75	7.50	7.00	1.00	1.50	-0.130371	0.060059	0.997070	5.880000	31.290001	-10.290000	632.00	0.10	-0.11
3.48	0.00	0.00	0.00	0.00	0.00	0.00	0.00	0.00	0.00	0.00	0.00	0.00	0.00	0.00	0.00	0.25	-2.493164	0.969238	2.802734	38.709999	-472.080017	125.650002	1.00	0.00	0.00	0.50	0.50	1.50	3.00	2.25	3.50	2.75	6.25	6.25	6.50	7.50	5.75	8.25	8.00	1.00	2.25	-0.142578	0.068359	1.041992	10.080000	44.939999	-13.230000	710.00	0.13	-0.10
3.49	0.00	0.00	0.25	0.25	0.00	0.00	0.00	0.00	0.00	0.00	0.00	0.00	0.00	0.00	0.00	0.25	-3.110840	0.956543	2.838867	56.000000	-454.860016	135.100006	7.00	0.00	0.00	0.50	0.25	1.00	2.00	2.00	3.00	2.50	6.75	7.25	7.75	8.75	7.75	9.00	9.25	1.25	2.25	-0.184082	0.065918	1.041016	15.190001	52.639999	-15.960000	767.00	0.15	-0.10
3.50	0.00	0.00	0.00	0.00	0.00	0.00	0.00	0.00	0.00	0.00	0.00	0.00	0.00	0.00	0.00	0.00	-3.549805	0.751953	2.718262	69.510002	-435.540009	147.910004	0.00	0.00	0.00	0.25	0.25	0.75	1.50	1.25	2.50	2.50	6.75	7.75	8.50	9.50	8.50	9.50	10.75	1.50	3.00	-0.170410	0.047363	1.021484	21.000000	61.180000	-17.010000	796.00	0.18	-0.09
3.51	0.00	0.00	0.00	0.00	0.00	0.00	0.00	0.00	0.00	0.00	0.00	0.00	0.00	0.00	0.00	0.25	-4.095703	0.506836	2.466309	82.809998	-412.299988	162.960007	1.00	0.00	0.00	0.25	0.25	0.75	1.75	1.00	2.25	2.50	6.75	8.50	9.00	10.50	9.25	10.00	12.25	2.25	4.50	-0.232910	0.059570	1.082520	25.129999	72.239998	-17.080000	860.00	0.19	-0.09
3.52	0.00	0.00	0.25	0.50	0.00	0.00	0.00	0.00	0.00	0.00	0.00	0.00	0.00	0.00	0.00	0.25	-4.351562	0.276855	1.863770	68.669998	-377.790009	183.259995	10.00	0.00	0.00	0.25	0.25	0.25	1.75	0.75	1.50	2.25	6.50	9.00	10.00	11.25	10.00	10.50	13.75	2.25	5.25	-0.183594	0.073242	1.087402	29.260000	85.889999	-16.100000	890.00	0.20	-0.09
3.53	0.00	0.00	0.00	0.00	0.00	0.00	0.00	0.00	0.00	0.00	0.00	0.00	0.00	0.00	0.00	0.25	-4.411133	0.007812	0.686035	28.350000	-326.200012	222.949997	1.00	0.00	0.00	0.00	0.00	0.50	1.25	0.75	1.25	1.75	6.25	9.50	10.50	12.00	10.50	10.75	15.50	2.75	6.00	-0.168457	0.163574	1.144043	33.810001	105.629997	-17.639999	920.00	0.21	-0.08
3.54	0.00	0.00	0.00	0.00	0.00	0.00	0.00	0.00	0.00	0.00	0.00	0.00	0.00	0.00	0.00	0.00	-5.674805	0.052246	-0.120117	-39.410000	-260.820007	229.250000	0.00	0.00	0.00	0.00	0.00	0.00	0.75	0.25	0.50	1.50	6.00	9.75	10.75	12.50	11.00	11.00	17.00	3.50	6.25	-0.245117	0.210938	1.165039	42.560001	128.520004	-23.590000	928.00	0.23	-0.08
3.55	0.00	0.00	0.00	0.75	0.00	0.00	0.00	0.00	0.00	0.00	0.00	0.00	0.00	0.00	0.00	0.25	-7.320801	0.718262	-1.041016	-71.260002	-199.710007	158.970001	10.00	0.00	0.00	0.25	0.00	0.00	1.00	0.00	0.50	1.00	5.75	9.75	11.25	13.00	11.50	11.00	18.25	4.75	6.75	-0.234863	0.051270	1.331055	47.810001	152.809998	-29.260000	961.00	0.23	-0.08
3.56	0.00	0.00	0.00	0.00	0.00	0.00	0.00	0.00	0.00	0.00	0.00	0.00	0.00	0.00	0.00	0.50	-7.251953	0.809082	-2.095215	19.740000	-105.910004	77.070000	3.00	0.00	0.00	0.00	0.00	0.00	0.75	0.00	0.00	0.75	5.00	9.50	11.25	13.25	12.00	11.00	19.50	5.25	7.25	-0.253906	0.135254	1.274414	45.150002	182.070007	-28.420000	959.00	0.25	-0.08
3.57	0.00	0.00	0.00	0.25	0.00	0.00	0.00	0.00	0.00	0.00	0.00	0.00	0.00	0.00	0.00	0.25	-6.811523	0.065430	-1.535156	160.160004	15.330000	39.549999	4.00	0.00	0.00	0.00	0.00	0.00	0.50	0.00	0.00	0.50	4.25	9.50	11.50	13.50	12.00	10.75	20.25	6.00	7.50	-0.288086	0.140625	1.376953	44.450001	209.229996	-27.020000	959.00	0.25	-0.07
3.58	0.00	0.00	0.00	0.00	0.00	0.00	0.00	0.00	0.00	0.00	0.00	0.00	0.00	0.00	0.00	0.25	-5.799316	-0.763672	-0.336426	206.500000	128.660004	44.310001	1.00	0.00	0.00	0.00	0.00	0.00	0.00	0.00	0.00	0.00	3.00	9.25	11.25	13.50	12.25	10.50	21.25	6.50	7.75	-0.356445	0.171387	1.304688	45.150002	242.899994	-27.580000	937.00	0.27	-0.06
3.59	0.50	1.00	0.25	1.25	0.00	0.00	0.00	0.00	0.00	0.00	0.00	0.00	0.00	0.00	0.00	0.00	-1.893066	-1.349609	1.124512	-25.129999	370.649994	62.930000	31.00	0.00	0.00	0.00	0.00	0.00	0.25	0.00	0.00	0.00	2.25	8.75	11.00	13.50	12.00	10.00	21.50	6.75	7.75	-0.398438	0.145020	1.547852	45.290001	281.329987	-30.030001	917.00	0.27	-0.06
3.60	2.25	4.75	1.75	3.50	0.25	0.00	0.00	0.00	0.00	0.00	0.00	0.00	0.00	0.00	0.00	0.25	-0.045898	1.121094	2.688477	-121.800003	389.690002	30.799999	129.00	-0.34	-0.09	0.00	0.00	0.00	0.00	0.00	0.00	0.00	1.50	8.00	10.50	13.25	11.75	9.50	21.50	6.75	7.50	-0.445312	0.256836	1.656250	36.049999	340.619995	-35.000000	877.00	0.28	-0.06
3.61	11.00	17.50	4.25	8.25	0.50	0.00	0.00	0.00	0.00	0.00	0.00	0.00	0.00	0.00	0.00	0.25	0.790527	-1.120605	1.331543	-136.080002	235.270004	14.630000	420.00	-0.36	-0.07	0.00	0.00	0.00	0.00	0.00	0.00	0.00	1.00	7.00	10.00	12.50	11.25	8.75	21.00	6.75	7.00	-0.596191	0.257324	1.969238	33.250000	387.450012	-41.299999	824.00	0.28	-0.06
3.62	21.50	26.50	8.25	11.75	1.25	1.00	0.00	0.00	0.00	0.00	0.00	0.00	0.00	0.00	0.00	0.50	-1.139160	-0.451172	1.280273	-101.570000	329.630005	-12.740000	715.00	-0.36	-0.06	0.00	0.00	0.00	0.00	0.00	0.00	0.00	0.50	5.50	9.00	11.75	10.50	8.00	19.50	6.50	6.00	-0.532715	0.395020	1.891113	34.509998	441.910004	-47.599998	744.00	0.28	-0.06
3.63	26.50	30.25	11.50	16.00	2.50	3.00	0.25	0.25	0.00	0.00	0.00	0.25	0.25	0.00	0.00	0.25	-1.735840	-0.387695	5.928711	-40.389999	445.970001	-57.959999	930.00	-0.34	-0.06	0.00	0.00	0.00	0.00	0.00	0.00	0.00	0.00	3.00	7.75	10.50	9.50	6.75	17.50	5.50	4.50	-0.665527	0.806641	2.384766	49.279999	507.570007	-59.779999	620.00	0.29	-0.06
3.64	28.00	30.75	13.75	18.25	5.25	4.50	0.50	0.50	0.00	0.00	0.00	0.00	0.00	0.00	0.00	0.25	-1.788574	1.090332	5.203613	-41.930000	321.929993	-60.060001	1050.00	-0.33	-0.06	0.00	0.00	0.00	0.00	0.00	0.00	0.00	0.00	2.00	5.50	8.75	8.00	4.75	14.00	3.50	2.25	-0.817383	0.726562	3.047852	65.449997	550.409973	-78.050003	469.00	0.29	-0.06
3.65	27.25	29.25	14.00	17.75	6.25	5.50	0.50	0.75	0.00	0.00	0.00	0.25	0.00	0.00	0.00	0.25	-0.623535	0.791992	2.300781	-92.959999	185.430008	-19.530001	1054.00	-0.32	-0.06	0.00	0.00	0.00	0.00	0.00	0.00	0.00	0.00	1.00	3.50	6.50	6.25	3.25	9.75	2.25	1.00	-1.072266	0.725098	3.998535	96.809998	589.960022	-79.169998	324.00	0.28	-0.07
3.66	25.50	27.50	14.00	18.00	7.00	6.50	0.50	1.00	0.00	0.00	0.00	0.25	0.25	0.00	0.00	0.25	-0.013672	-0.510254	1.233398	-102.550003	140.210007	5.250000	1047.00	-0.31	-0.06	0.00	0.00	0.00	0.00	0.00	0.00	0.00	0.00	0.50	2.00	3.75	3.50	1.75	6.25	0.75	0.50	-0.773438	0.627930	4.028320	165.199997	611.450012	-79.870003	183.00	0.28	-0.06
3.67	23.50	26.00	14.50	18.25	7.50	7.50	0.75	1.50	0.00	0.00	0.00	0.25	0.50	0.25	0.00	0.50	-0.304199	-0.331543	1.395508	-63.770000	124.250000	-7.000000	1055.00	-0.30	-0.07	0.00	0.00	0.00	0.00	0.00	0.00	0.25	0.00	0.25	1.50	2.25	2.00	1.00	2.50	0.50	0.00	0.730469	0.333984	4.579102	267.679993	646.729980	-105.559998	103.00	0.26	-0.07
3.68	23.25	25.25	14.50	18.00	7.75	8.00	0.75	1.75	0.50	0.25	0.25	0.25	0.75	0.25	0.00	0.00	-0.254395	0.086426	1.129883	-28.700001	42.349998	2.520000	1065.00	-0.29	-0.07	0.00	0.00	0.00	0.25	0.00	0.00	0.25	0.00	0.25	1.00	1.00	1.00	0.50	1.25	0.25	0.25	1.999512	-0.315918	3.209961	233.800003	639.799988	-161.839996	60.00	0.23	-0.05
3.69	22.50	25.50	14.00	18.00	8.00	8.50	0.75	2.00	0.25	0.25	0.25	0.25	0.75	0.25	0.00	0.25	-0.156250	-0.044922	1.088867	-9.030000	20.440001	1.190000	1065.00	-0.29	-0.07	0.00	0.00	0.00	0.00	0.00	0.00	0.25	0.00	0.25	1.00	1.00	0.75	0.50	0.50	0.00	0.00	1.276367	0.731934	7.051758	94.500000	455.350006	-211.399994	44.00	0.00	0.00
