# time	left pressure 1[N/cm²]	left pressure 2[N/cm²]	left pressure 3[N/cm²]	left pressure 4[N/cm²]	left pressure 5[N/cm²]	left pressure 6[N/cm²]	left pressure 7[N/cm²]	left pressure 8[N/cm²]	left pressure 9[N/cm²]	left pressure 10[N/cm²]	left pressure 11[N/cm²]	left pressure 12[N/cm²]	left pressure 13[N/cm²]	left pressure 14[N/cm²]	left pressure 15[N/cm²]	left pressure 16[N/cm²]	left acceleration X[g]	left acceleration Y[g]	left acceleration Z[g]	left angular X[dps]	left angular Y[dps]	left angular Z[dps]	left total force[N]	left center of pressure X[%]	left center of pressure Y[%]	right pressure 1[N/cm²]	right pressure 2[N/cm²]	right pressure 3[N/cm²]	right pressure 4[N/cm²]	right pressure 5[N/cm²]	right pressure 6[N/cm²]	right pressure 7[N/cm²]	right pressure 8[N/cm²]	right pressure 9[N/cm²]	right pressure 10[N/cm²]	right pressure 11[N/cm²]	right pressure 12[N/cm²]	right pressure 13[N/cm²]	right pressure 14[N/cm²]	right pressure 15[N/cm²]	right pressure 16[N/cm²]	right acceleration X[g]	right acceleration Y[g]	right acceleration Z[g]	right angular X[dps]	right angular Y[dps]	right angular Z[dps]	right total force[N]	right center of pressure X[%]	right center of pressure Y[%]
0.00																										3.25	4.75	2.50	4.75	2.50	2.25	1.00	1.00	0.75	0.50	0.00	0.00	1.25	0.50	0.00	0.75	-0.144043	0.047852	0.972656	-2.170000	-3.360000	2.100000	274.00	-0.19	-0.08
0.01																										3.75	5.00	2.50	5.00	2.50	2.25	1.00	1.25	1.25	0.50	0.25	0.00	1.25	0.50	0.00	0.75	-0.142090	0.047852	0.974609	-2.100000	-3.290000	2.100000	297.00	-0.18	-0.08
0.02																										3.50	5.00	2.50	5.00	2.50	2.00	1.00	1.00	0.75	0.50	0.25	0.00	1.25	0.25	0.25	0.50	-0.140137	0.043945	0.978516	-2.240000	-3.360000	2.170000	280.00	-0.19	-0.08
0.03																										3.25	5.00	2.50	4.25	2.25	2.25	1.00	1.00	1.00	0.25	0.00	0.00	1.25	0.25	0.00	0.50	-0.140137	0.047363	0.978516	-2.240000	-3.430000	2.030000	265.00	-0.19	-0.08
0.04																										3.75	5.00	2.50	5.00	2.25	2.50	1.00	1.25	1.00	0.25	0.00	0.00	1.25	0.50	0.00	0.50	-0.141602	0.048340	0.976562	-2.310000	-3.570000	2.030000	287.00	-0.19	-0.08
0.05																										3.50	5.00	2.50	5.00	2.25	2.50	1.00	1.25	0.75	0.25	0.00	0.00	1.25	0.50	0.00	0.50	-0.142090	0.049805	0.967773	-2.450000	-3.570000	2.030000	281.00	-0.20	-0.09
0.06	4.25	5.50	3.00	4.75	4.00	3.00	0.75	1.25	1.00	0.00	0.25	0.00	0.75	1.00	0.00	0.50	-0.181641	0.033691	0.958984	-1.750000	6.860000	-1.470000	321.00	-0.20	-0.07	3.50	5.00	2.75	5.00	2.50	2.00	1.00	1.00	1.00	0.25	0.25	0.00	1.25	0.50	0.25	0.50	-0.141113	0.049316	0.973145	-2.590000	-3.570000	1.960000	286.00	-0.19	-0.08
0.07	4.25	5.50	3.00	4.50	4.25	3.00	0.75	1.25	1.00	0.25	0.00	0.00	0.75	1.00	0.25	0.50	-0.186523	0.033691	0.963867	-1.750000	7.000000	-1.470000	323.00	-0.19	-0.07	3.75	5.25	2.50	5.00	2.50	2.50	1.00	1.25	1.00	0.50	0.00	0.00	1.25	0.50	0.25	0.75	-0.141602	0.048828	0.977051	-2.800000	-3.500000	1.890000	299.00	-0.18	-0.08
0.08																										3.25	5.25	3.00	5.00	2.50	2.75	1.00	1.50	0.75	0.50	0.25	0.00	1.50	0.25	0.00	0.75	-0.145020	0.044922	0.973145	-2.800000	-3.640000	1.820000	302.00	-0.19	-0.10
0.09	4.00	5.50	2.75	5.00	4.00	3.00	0.75	1.00	1.00	0.25	0.00	0.00	0.75	0.75	0.00	0.50	-0.184570	0.033203	0.965820	-1.680000	7.000000	-1.400000	312.00	-0.20	-0.07	3.75	5.25	2.75	5.00	2.50	2.75	1.00	1.00	1.00	0.50	0.00	0.00	1.50	0.50	0.00	0.50	-0.141602	0.043945	0.978027	-2.870000	-3.640000	1.960000	299.00	-0.19	-0.08
0.10	4.00	5.75	3.00	4.50	4.00	3.00	0.75	1.25	0.75	0.25	0.25	0.00	0.75	0.75	0.00	0.50	-0.180664	0.033203	0.958984	-1.680000	6.790000	-1.400000	315.00	-0.20	-0.07	3.75	5.25	3.00	5.25	2.50	2.25	1.00	1.25	0.75	0.25	0.00	0.00	1.00	0.50	0.00	0.50	-0.139160	0.045898	0.981934	-2.940000	-3.500000	1.890000	292.00	-0.21	-0.08
0.11	4.00	5.50	3.00	5.00	4.25	2.75	0.75	1.25	1.25	0.50	0.25	0.00	0.75	1.00	0.00	0.25	-0.180664	0.033203	0.958984	-1.680000	6.790000	-1.400000	328.00	-0.19	-0.06	3.75	5.00	2.75	5.25	2.50	2.50	1.00	1.00	0.75	0.25	0.00	0.00	1.25	0.50	0.00	0.50	-0.141602	0.045898	0.978027	-2.800000	-3.500000	1.960000	288.00	-0.20	-0.08
0.12	4.25	5.50	3.25	4.50	4.00	3.00	0.75	1.25	1.00	0.50	0.00	0.00	0.75	1.00	0.00	0.25	-0.179199	0.030273	0.958496	-1.680000	6.650000	-1.400000	322.00	-0.19	-0.06	4.00	5.25	2.75	5.25	2.50	2.50	1.00	1.25	1.00	0.25	0.25	0.00	1.25	0.50	0.25	0.50	-0.142578	0.046387	0.980469	-2.590000	-3.360000	1.960000	306.00	-0.19	-0.08
0.13	4.00	5.50	3.25	4.75	4.00	2.75	0.75	1.00	1.00	0.25	0.25	0.00	0.75	1.00	0.00	0.25	-0.179199	0.029297	0.959961	-1.540000	6.580000	-1.400000	315.00	-0.20	-0.06	3.75	5.25	2.75	5.25	2.50	2.50	1.00	1.00	1.25	0.25	0.25	0.00	1.25	0.50	0.25	0.50	-0.140137	0.047363	0.981934	-2.450000	-3.290000	2.030000	302.00	-0.19	-0.08
0.14	4.25	5.75	3.00	5.00	4.00	2.75	0.75	1.25	1.00	0.50	0.00	0.00	0.75	0.75	0.00	0.25	-0.185547	0.027344	0.963867	-1.540000	6.510000	-1.330000	322.00	-0.20	-0.07	3.75	5.25	3.00	5.25	2.50	2.50	1.00	1.00	1.00	0.50	0.25	0.00	1.50	0.50	0.00	0.50	-0.145508	0.047852	0.980957	-2.450000	-3.220000	2.100000	304.00	-0.19	-0.08
0.15	4.00	5.50	3.00	4.50	4.00	3.00	0.75	1.00	0.75	0.25	0.00	0.00	0.75	0.75	0.00	0.50	-0.178711	0.031738	0.961914	-1.540000	6.510000	-1.400000	306.00	-0.21	-0.07	3.75	5.25	2.25	5.00	2.50	2.75	1.00	1.25	1.00	0.25	0.00	0.00	1.25	0.50	0.00	0.75	-0.137207	0.051758	0.976562	-2.450000	-3.080000	2.100000	293.00	-0.19	-0.09
0.16	4.00	5.50	3.25	4.50	4.25	2.75	1.00	1.00	0.50	0.25	0.00	0.00	0.75	1.00	0.00	0.25	-0.177734	0.029297	0.956543	-1.540000	6.440000	-1.400000	310.00	-0.21	-0.06	3.75	5.25	2.75	5.25	2.75	2.75	1.00	1.25	1.00	0.50	0.00	0.00	1.25	0.25	0.25	0.50	-0.144531	0.046875	0.976074	-2.450000	-3.150000	2.240000	306.00	-0.19	-0.08
0.17	4.00	5.50	2.75	4.50	4.25	2.75	0.75	1.25	0.75	0.50	0.25	0.00	0.50	0.75	0.00	0.25	-0.178711	0.036621	0.959473	-1.470000	6.370000	-1.400000	309.00	-0.20	-0.07	4.00	5.25	3.00	5.25	2.50	2.50	1.00	1.25	1.00	0.50	0.00	0.00	1.25	0.50	0.00	0.50	-0.136719	0.045410	0.978516	-2.450000	-3.220000	2.170000	306.00	-0.20	-0.08
0.18	4.00	5.50	3.00	4.75	4.00	2.75	0.75	1.00	1.00	0.25	0.00	0.00	0.75	0.75	0.00	0.25	-0.179199	0.035645	0.960938	-1.400000	6.300000	-1.400000	308.00	-0.20	-0.06	3.75	5.25	3.00	5.25	2.50	2.75	1.00	1.25	1.00	0.75	0.00	0.00	1.50	0.50	0.00	0.50	-0.145508	0.044434	0.978516	-2.380000	-3.150000	2.310000	311.00	-0.19	-0.08
0.19	4.00	5.50	2.75	4.50	4.00	2.50	0.75	1.00	0.75	0.50	0.25	0.00	0.75	0.50	0.25	0.50	-0.187988	0.029785	0.960449	-1.400000	6.510000	-1.400000	303.00	-0.20	-0.07	3.75	5.25	3.00	5.25	2.50	2.75	1.00	1.25	1.00	0.25	0.00	0.00	1.50	0.50	0.00	0.50	-0.142090	0.046387	0.976562	-2.310000	-3.150000	2.240000	305.00	-0.19	-0.09
0.20	4.25	5.50	3.25	4.75	4.25	2.50	0.75	1.00	1.25	0.50	0.25	0.00	0.75	0.75	0.00	0.25	-0.179688	0.028809	0.961914	-1.680000	6.650000	-1.470000	322.00	-0.19	-0.05	3.75	5.25	2.75	5.00	2.50	2.75	1.00	1.25	1.25	0.25	0.00	0.00	1.25	0.50	0.00	0.50	-0.141602	0.045898	0.982422	-2.380000	-3.220000	2.240000	301.00	-0.19	-0.08
0.21	4.50	5.25	3.00	4.75	4.25	2.75	0.75	1.00	1.00	0.25	0.00	0.00	0.50	0.50	0.00	0.50	-0.179688	0.030762	0.956543	-1.470000	6.650000	-1.540000	311.00	-0.21	-0.06	3.75	5.25	2.75	5.00	2.50	2.25	1.00	1.00	0.75	0.25	0.25	0.00	1.25	0.25	0.00	0.50	-0.145996	0.044922	0.979004	-2.380000	-3.080000	2.240000	286.00	-0.20	-0.08
0.22	4.25	5.50	2.75	4.75	4.25	2.75	0.75	1.00	1.00	0.25	0.00	0.00	0.75	0.75	0.00	0.25	-0.184082	0.032715	0.956543	-1.610000	6.650000	-1.540000	310.00	-0.20	-0.06	3.50	5.25	2.75	5.25	2.50	2.75	1.00	1.00	1.25	0.50	0.00	0.00	1.25	0.25	0.00	0.75	-0.141113	0.043945	0.980469	-2.310000	-3.080000	2.170000	299.00	-0.19	-0.08
0.23	4.00	5.50	2.75	4.50	4.25	2.50	0.75	1.25	0.75	0.50	0.25	0.00	0.75	0.75	0.00	0.50	-0.182129	0.033203	0.962402	-1.610000	6.510000	-1.470000	310.00	-0.20	-0.07	3.75	5.25	2.75	5.25	2.50	2.50	1.00	1.25	1.00	0.50	0.00	0.00	1.25	0.25	0.00	0.75	-0.142578	0.044434	0.977539	-2.310000	-3.080000	2.240000	300.00	-0.19	-0.09
0.24	4.00	5.50	3.00	4.50	4.50	2.75	0.75	1.25	1.00	0.50	0.00	0.00	0.75	0.75	0.00	0.50	-0.183105	0.029297	0.960938	-1.680000	6.790000	-1.610000	318.00	-0.19	-0.06	3.75	5.00	2.25	5.25	2.50	2.75	1.00	1.00	0.75	0.50	0.00	0.25	1.25	0.50	0.00	0.50	-0.139160	0.045898	0.977051	-2.380000	-3.150000	2.240000	291.00	-0.19	-0.09
0.25	4.25	5.50	3.00	4.75	4.25	2.75	0.75	1.00	1.00	0.25	0.00	0.00	0.50	0.75	0.00	0.50	-0.183105	0.029297	0.961426	-1.680000	6.720000	-1.610000	312.00	-0.21	-0.06	3.75	5.25	2.25	5.00	2.50	2.75	1.00	1.00	1.25	0.25	0.00	0.00	1.25	0.25	0.00	0.50	-0.140137	0.043945	0.979492	-2.450000	-3.150000	2.100000	289.00	-0.20	-0.08
0.26	4.25	5.50	3.25	4.50	4.75	2.75	0.75	1.00	0.75	0.25	0.00	0.00	0.75	0.75	0.00	0.25	-0.183594	0.029785	0.964844	-1.680000	6.720000	-1.610000	316.00	-0.21	-0.06	3.75	5.00	2.75	5.00	2.50	2.50	1.00	1.25	1.00	0.50	0.00	0.00	1.25	0.50	0.00	0.50	-0.138184	0.048828	0.976562	-2.520000	-3.080000	2.240000	295.00	-0.19	-0.08
0.27	4.25	5.50	3.00	4.50	4.50	2.75	0.75	1.00	1.00	0.50	0.00	0.00	0.75	1.00	0.25	0.25	-0.181641	0.030762	0.959473	-1.680000	6.370000	-1.540000	321.00	-0.19	-0.06	3.75	5.25	2.75	5.00	2.50	2.50	1.00	1.00	1.00	0.25	0.00	0.00	1.00	0.25	0.00	0.50	-0.142090	0.048340	0.973633	-2.660000	-3.150000	2.100000	287.00	-0.21	-0.08
0.28	4.00	5.50	3.25	4.75	4.50	2.75	0.75	1.00	1.00	0.50	0.00	0.00	0.50	0.75	0.00	0.25	-0.183594	0.033691	0.962402	-1.610000	6.300000	-1.400000	317.00	-0.20	-0.06	3.75	5.25	2.75	5.00	2.50	2.50	1.00	1.00	1.00	0.50	0.00	0.00	1.25	0.25	0.25	0.50	-0.144043	0.049316	0.979492	-2.660000	-3.290000	1.960000	294.00	-0.19	-0.08
0.29	4.00	5.25	3.00	4.25	4.50	2.75	0.75	1.00	1.00	0.50	0.25	0.00	0.50	1.00	0.00	0.50	-0.186035	0.034668	0.958008	-1.610000	6.580000	-1.540000	312.00	-0.19	-0.05	3.75	5.25	2.50	5.00	2.50	2.50	1.00	1.25	1.25	0.50	0.00	0.00	1.25	0.75	0.25	0.50	-0.137207	0.049805	0.980957	-2.730000	-3.290000	1.890000	303.00	-0.18	-0.08
0.30	4.25	5.50	3.25	4.75	4.75	2.75	0.75	1.25	1.00	0.25	0.25	0.00	0.75	1.00	0.00	0.50	-0.180176	0.029297	0.958496	-1.610000	6.510000	-1.540000	331.00	-0.19	-0.06	3.75	5.00	2.75	5.00	2.50	2.75	1.00	1.25	1.25	0.50	0.00	0.00	1.50	0.25	0.00	0.75	-0.144531	0.046875	0.972656	-2.730000	-3.360000	1.890000	303.00	-0.18	-0.08
0.31	4.25	5.50	3.00	4.50	4.50	2.75	0.75	1.25	1.25	0.25	0.00	0.00	0.50	0.75	0.00	0.25	-0.186035	0.034180	0.958496	-1.680000	6.650000	-1.470000	318.00	-0.20	-0.06	4.00	5.00	2.75	5.25	2.75	2.75	1.00	1.25	1.00	0.75	0.00	0.00	1.25	0.50	0.00	0.75	-0.143066	0.047363	0.979492	-2.730000	-3.290000	1.960000	310.00	-0.19	-0.08
0.32	4.00	5.50	3.00	4.50	4.75	2.75	0.75	1.00	0.50	0.50	0.00	0.00	0.75	0.75	0.00	0.25	-0.185547	0.026855	0.958008	-1.610000	6.720000	-1.540000	309.00	-0.21	-0.07	3.50	5.25	2.75	5.25	2.50	2.50	1.00	1.25	1.00	0.50	0.00	0.00	1.25	0.75	0.00	0.50	-0.137207	0.043945	0.976562	-2.730000	-3.290000	1.960000	300.00	-0.19	-0.08
0.33	4.25	5.25	3.00	4.75	4.75	2.50	0.75	1.25	1.00	0.50	0.25	0.00	0.75	0.75	0.00	0.50	-0.185059	0.029297	0.964844	-1.540000	6.790000	-1.470000	324.00	-0.19	-0.06	3.50	5.00	3.00	5.00	2.50	2.75	1.00	1.25	1.00	0.25	0.00	0.00	1.25	0.25	0.00	0.50	-0.141113	0.046387	0.979004	-2.660000	-3.290000	1.890000	293.00	-0.20	-0.09
0.34	4.00	5.50	3.00	4.75	4.50	2.75	0.75	1.00	1.00	0.25	0.00	0.00	0.75	1.00	0.00	0.50	-0.186035	0.030273	0.964355	-1.470000	6.580000	-1.470000	317.00	-0.20	-0.06	3.75	5.00	3.00	5.25	2.75	2.75	1.00	1.25	1.00	0.25	0.00	0.00	1.25	0.50	0.00	0.75	-0.143555	0.046387	0.975586	-2.660000	-3.290000	1.960000	305.00	-0.19	-0.08
0.35	4.00	5.50	3.00	4.50	4.50	2.50	0.75	1.00	1.00	0.50	0.00	0.00	0.75	0.75	0.00	0.50	-0.186523	0.030762	0.957031	-1.470000	6.580000	-1.400000	312.00	-0.20	-0.06	3.75	5.25	2.50	5.00	2.50	2.50	1.00	1.25	1.00	0.50	0.00	0.00	1.25	0.50	0.00	0.75	-0.144043	0.044434	0.979492	-2.590000	-3.290000	1.960000	296.00	-0.19	-0.08
0.36	4.00	5.50	3.00	4.75	4.75	3.00	0.75	1.00	1.00	0.50	0.00	0.00	0.50	1.00	0.00	0.25	-0.182617	0.033203	0.960449	-1.400000	6.510000	-1.400000	321.00	-0.20	-0.06	3.50	5.00	2.50	5.00	2.75	2.50	1.00	1.25	1.00	0.50	0.00	0.00	1.25	0.25	0.00	0.50	-0.141113	0.044434	0.979004	-2.520000	-3.290000	2.100000	291.00	-0.19	-0.08
0.37	4.00	5.50	3.25	4.50	4.50	2.50	0.75	1.25	1.00	0.50	0.00	0.00	0.75	1.00	0.00	0.25	-0.180664	0.032227	0.961914	-1.470000	6.440000	-1.400000	319.00	-0.19	-0.06	3.75	5.00	2.75	5.00	2.50	2.75	1.00	1.50	1.00	0.50	0.00	0.00	1.50	0.25	0.25	0.50	-0.142090	0.044922	0.978516	-2.450000	-3.150000	2.240000	304.00	-0.18	-0.09
0.38	4.00	5.50	3.25	4.50	4.50	2.75	0.75	1.00	1.00	0.25	0.00	0.00	0.50	0.75	0.00	0.25	-0.183594	0.031738	0.957520	-1.400000	6.510000	-1.470000	311.00	-0.20	-0.06	3.50	5.00	2.75	5.25	2.50	3.00	1.00	1.25	1.00	0.50	0.00	0.00	1.50	0.50	0.00	0.75	-0.141602	0.047852	0.978027	-2.520000	-3.220000	2.100000	304.00	-0.18	-0.09
0.39	4.00	5.25	3.00	4.50	4.75	2.75	0.75	1.00	1.00	0.50	0.25	0.00	0.75	1.00	0.00	0.25	-0.182617	0.030762	0.959473	-1.470000	6.650000	-1.470000	318.00	-0.19	-0.06	3.50	5.00	2.75	5.25	2.50	2.75	1.00	1.25	1.25	0.25	0.25	0.25	1.25	0.50	0.00	0.50	-0.140625	0.049316	0.981445	-2.520000	-3.150000	2.100000	304.00	-0.18	-0.08
0.40	4.00	5.25	3.00	4.25	4.75	2.50	0.75	1.00	1.00	0.25	0.25	0.00	0.75	1.00	0.00	0.25	-0.182129	0.034668	0.959473	-1.400000	6.510000	-1.400000	310.00	-0.19	-0.05	3.75	5.00	2.50	5.00	2.50	2.75	1.00	1.25	1.00	0.50	0.25	0.25	1.50	0.50	0.00	0.75	-0.141113	0.041016	0.977051	-2.520000	-3.150000	2.170000	304.00	-0.18	-0.09
0.41	4.00	5.25	3.25	4.25	4.50	2.50	0.75	1.00	0.75	0.50	0.00	0.00	0.50	0.75	0.25	0.25	-0.184570	0.026367	0.959961	-1.470000	6.230000	-1.190000	306.00	-0.20	-0.06	3.75	5.00	2.75	5.25	2.75	2.75	1.00	1.50	1.00	0.50	0.00	0.00	1.25	0.50	0.00	0.75	-0.143555	0.048828	0.981934	-2.450000	-3.290000	2.100000	309.00	-0.19	-0.09
0.42	4.00	5.50	3.00	4.50	4.75	2.50	0.75	1.00	1.00	0.25	0.00	0.00	0.75	0.75	0.25	0.50	-0.181641	0.031738	0.962402	-1.470000	6.440000	-1.330000	315.00	-0.19	-0.06	3.50	5.00	2.50	5.00	2.50	2.75	1.00	1.25	1.00	0.25	0.25	0.00	1.25	0.50	0.25	0.75	-0.142090	0.048340	0.982422	-2.450000	-3.220000	2.100000	297.00	-0.18	-0.09
0.43	4.00	5.50	3.00	4.50	4.75	2.75	0.75	1.25	0.75	0.50	0.00	0.00	0.50	0.75	0.00	0.25	-0.184082	0.031250	0.958496	-1.540000	6.580000	-1.400000	314.00	-0.20	-0.06	3.75	5.00	2.75	5.00	2.75	2.75	1.00	1.50	1.00	0.25	0.00	0.00	1.25	0.75	0.00	0.75	-0.142090	0.042969	0.979004	-2.590000	-3.220000	2.100000	305.00	-0.18	-0.09
0.44	4.00	5.50	3.25	4.50	4.75	2.75	0.75	1.00	0.75	0.50	0.25	0.00	0.75	0.75	0.25	0.25	-0.182129	0.034180	0.960449	-1.540000	6.440000	-1.400000	321.00	-0.19	-0.06	3.75	5.00	2.75	5.00	2.50	3.00	1.00	1.25	1.25	0.50	0.00	0.00	1.50	0.50	0.00	0.75	-0.141113	0.044922	0.980957	-2.520000	-3.150000	2.100000	308.00	-0.18	-0.08
0.45	4.00	5.50	3.00	4.50	4.75	2.50	0.75	1.00	1.00	0.50	0.25	0.00	0.50	0.75	0.00	0.50	-0.186035	0.030762	0.962891	-1.400000	6.230000	-1.260000	315.00	-0.19	-0.06	3.75	5.00	3.00	5.00	2.75	2.75	1.00	1.25	1.00	0.50	0.00	0.00	1.25	0.50	0.00	0.75	-0.145508	0.044434	0.976074	-2.520000	-3.220000	2.170000	305.00	-0.19	-0.08
0.46	3.50	5.25	3.00	4.75	4.75	2.75	0.75	1.00	0.50	0.25	0.00	0.00	0.50	0.75	0.00	0.50	-0.182617	0.034180	0.960938	-1.400000	6.370000	-1.190000	301.00	-0.21	-0.07	3.75	5.00	3.00	5.25	2.75	2.50	1.00	1.25	1.25	0.50	0.25	0.00	1.25	0.50	0.25	0.75	-0.138672	0.045410	0.982910	-2.380000	-3.010000	2.100000	313.00	-0.18	-0.08
0.47	4.25	5.25	3.25	4.75	4.75	2.75	0.75	1.00	1.00	0.25	0.00	0.00	0.50	1.00	0.00	0.25	-0.184082	0.032227	0.958496	-1.540000	6.510000	-1.330000	319.00	-0.20	-0.05	3.50	5.25	2.75	5.25	2.75	2.75	1.00	1.25	1.00	0.50	0.25	0.00	1.00	0.50	0.00	0.50	-0.138672	0.045410	0.982910	-2.380000	-3.010000	2.100000	304.00	-0.19	-0.08
0.48	4.00	5.50	3.00	4.75	4.75	2.50	0.75	1.00	1.25	0.25	0.00	0.00	0.50	0.75	0.25	0.25	-0.183594	0.027832	0.959961	-1.540000	6.580000	-1.400000	317.00	-0.20	-0.05	3.75	5.25	2.50	5.00	2.75	2.50	1.00	1.25	1.25	0.50	0.25	0.00	1.25	0.50	0.00	0.75	-0.140625	0.044922	0.980957	-2.310000	-2.940000	2.030000	305.00	-0.18	-0.08
0.49	4.00	5.50	2.75	4.50	4.75	2.50	0.75	1.00	0.75	0.50	0.00	0.00	0.75	1.00	0.00	0.50	-0.183105	0.027832	0.956543	-1.400000	6.440000	-1.330000	311.00	-0.20	-0.06	3.75	5.25	2.75	5.25	2.75	2.75	1.00	1.25	1.00	0.25	0.00	0.00	1.00	0.50	0.00	0.50	-0.135742	0.048340	0.979492	-2.310000	-2.940000	2.030000	301.00	-0.20	-0.08
0.50	4.25	5.75	3.00	4.75	4.50	2.50	0.75	1.25	1.00	0.25	0.25	0.00	0.50	0.75	0.00	0.25	-0.181641	0.029785	0.954102	-1.330000	6.580000	-1.330000	320.00	-0.20	-0.06	3.75	5.25	2.75	5.00	2.75	2.75	1.00	1.25	1.00	0.25	0.25	0.00	1.25	0.50	0.00	0.50	-0.142090	0.046387	0.977051	-2.310000	-2.940000	2.030000	303.00	-0.19	-0.08
0.51	4.25	5.50	3.00	4.50	5.00	2.50	0.75	1.00	1.00	0.25	0.00	0.00	0.50	1.00	0.00	0.25	-0.184570	0.032715	0.957520	-1.400000	6.440000	-1.260000	316.00	-0.20	-0.05	4.00	5.25	2.75	5.25	2.50	2.75	1.00	1.25	1.00	0.50	0.00	0.00	1.25	0.75	0.00	0.75	-0.141113	0.043457	0.980469	-2.310000	-2.940000	1.960000	309.00	-0.19	-0.08
0.52	4.25	5.50	2.75	4.50	5.00	2.50	0.75	1.00	0.75	0.25	0.25	0.00	0.50	0.75	0.00	0.25	-0.184082	0.037598	0.959473	-1.400000	6.440000	-1.330000	310.00	-0.21	-0.06	3.50	5.00	2.75	5.25	2.50	2.75	1.00	1.25	0.75	0.50	0.00	0.00	1.50	0.25	0.00	0.75	-0.142090	0.045410	0.978516	-2.310000	-2.940000	2.100000	296.00	-0.19	-0.09
0.53	4.25	5.50	3.00	4.25	5.00	2.75	0.75	1.25	0.50	0.50	0.25	0.00	0.75	0.75	0.25	0.25	-0.183105	0.027832	0.959961	-1.400000	6.230000	-1.400000	321.00	-0.20	-0.07	3.75	5.25	2.50	5.00	2.50	2.75	1.00	1.25	1.00	0.25	0.25	0.00	1.25	0.50	0.00	0.50	-0.144043	0.044434	0.983887	-2.310000	-2.800000	2.240000	298.00	-0.19	-0.09
0.54	4.25	5.50	3.00	4.50	5.00	2.50	0.75	1.00	0.75	0.25	0.00	0.00	0.50	0.75	0.00	0.25	-0.185547	0.029785	0.957520	-1.400000	6.440000	-1.400000	311.00	-0.21	-0.06	3.75	5.00	2.75	5.25	2.50	2.50	1.00	1.25	0.75	0.50	0.00	0.00	1.25	0.50	0.00	0.50	-0.145996	0.045898	0.980957	-2.240000	-2.940000	2.310000	295.00	-0.20	-0.09
0.55	4.25	5.50	2.75	4.75	5.00	2.50	0.75	1.00	0.75	0.25	0.00	0.00	0.75	0.75	0.00	0.25	-0.180176	0.035645	0.961914	-1.260000	6.090000	-1.190000	313.00	-0.21	-0.06	3.75	5.25	2.75	5.25	2.75	2.75	1.00	1.25	1.25	0.25	0.25	0.25	1.25	0.50	0.25	0.50	-0.146484	0.042480	0.974609	-2.240000	-2.870000	2.310000	314.00	-0.18	-0.08
0.56	4.25	5.50	2.75	4.75	5.00	2.50	0.75	1.00	0.75	0.25	0.00	0.00	0.50	1.00	0.00	0.25	-0.180664	0.033203	0.961914	-1.470000	6.090000	-1.330000	313.00	-0.21	-0.06	3.75	5.25	2.75	5.00	2.50	3.00	1.00	1.25	1.00	0.25	0.00	0.00	1.25	0.50	0.00	0.50	-0.138672	0.047363	0.975586	-2.170000	-2.800000	2.170000	300.00	-0.20	-0.09
0.57	4.25	5.50	3.00	4.75	5.00	2.50	0.75	1.00	1.25	0.00	0.00	0.00	0.50	0.75	0.00	0.25	-0.184570	0.033203	0.960938	-1.470000	6.090000	-1.190000	317.00	-0.20	-0.05	3.75	5.25	2.75	5.25	2.50	2.75	1.00	1.25	1.00	0.25	0.00	0.00	1.00	0.25	0.00	0.50	-0.139160	0.045410	0.982910	-2.310000	-2.800000	2.170000	296.00	-0.20	-0.08
0.58	4.25	5.50	3.00	4.50	5.00	2.50	0.75	1.00	0.75	0.25	0.00	0.00	0.50	0.75	0.00	0.25	-0.187500	0.029297	0.959473	-1.470000	6.090000	-1.260000	311.00	-0.21	-0.06	3.75	5.25	3.00	5.00	2.50	2.50	1.00	1.25	0.75	0.50	0.00	0.00	1.00	0.50	0.00	0.50	-0.142578	0.044434	0.979004	-2.100000	-2.800000	2.170000	295.00	-0.20	-0.08
0.59	4.25	5.50	3.25	4.25	5.25	2.75	0.75	1.00	0.75	0.50	0.00	0.00	0.50	1.00	0.00	0.25	-0.183594	0.030273	0.957031	-1.400000	6.160000	-1.260000	321.00	-0.20	-0.05	3.50	5.25	2.75	5.00	2.50	2.75	1.00	1.00	1.00	0.50	0.00	0.00	1.00	0.25	0.00	0.50	-0.140137	0.045410	0.981445	-1.750000	-2.730000	2.310000	290.00	-0.20	-0.08
0.60	4.25	5.75	3.25	4.75	5.00	2.50	0.75	1.00	1.00	0.50	0.00	0.00	0.50	1.00	0.00	0.50	-0.183105	0.029297	0.958008	-1.330000	6.090000	-1.120000	328.00	-0.20	-0.05	3.75	5.00	3.00	5.00	2.50	2.75	1.00	1.00	1.00	0.25	0.00	0.00	1.25	0.50	0.00	0.50	-0.140137	0.046387	0.980957	-1.680000	-2.800000	2.310000	294.00	-0.20	-0.08
0.61	4.25	5.75	3.25	5.00	5.00	2.50	0.75	1.00	0.75	0.25	0.00	0.00	0.50	0.50	0.00	0.25	-0.185547	0.032227	0.960449	-1.260000	6.160000	-1.260000	319.00	-0.22	-0.06	3.75	5.25	2.75	5.25	2.50	2.75	1.00	1.00	0.75	0.25	0.00	0.00	1.00	0.50	0.00	0.50	-0.143066	0.043457	0.983398	-1.750000	-2.870000	2.310000	291.00	-0.21	-0.08
0.62	4.50	6.00	3.50	5.00	5.25	2.75	0.75	1.00	1.00	0.25	0.00	0.00	0.50	1.25	0.00	0.25	-0.185547	0.032715	0.958984	-1.330000	6.300000	-1.120000	342.00	-0.20	-0.05	3.75	5.25	2.75	5.25	2.50	2.50	1.00	1.00	0.75	0.25	0.00	0.00	1.00	0.25	0.00	0.50	-0.140625	0.048828	0.974121	-1.820000	-2.870000	2.240000	286.00	-0.21	-0.08
0.63	4.50	5.75	3.50	4.75	5.00	2.75	0.75	1.00	0.75	0.25	0.00	0.00	0.50	0.75	0.00	0.25	-0.184570	0.027832	0.957031	-1.470000	6.650000	-1.260000	327.00	-0.21	-0.06	3.75	5.25	2.75	5.25	2.50	2.50	1.00	1.00	0.50	0.50	0.00	0.00	1.50	0.50	0.00	0.50	-0.140625	0.050293	0.977539	-1.960000	-2.800000	2.240000	292.00	-0.20	-0.09
0.64	4.25	6.00	3.00	5.00	5.00	2.75	0.75	1.00	1.00	0.25	0.00	0.00	0.50	0.75	0.00	0.25	-0.186035	0.033203	0.960938	-1.190000	6.230000	-1.120000	327.00	-0.21	-0.06	3.50	5.25	3.00	5.25	2.25	2.50	1.00	1.00	1.00	0.50	0.00	0.00	1.25	0.50	0.00	0.50	-0.145996	0.041992	0.980469	-2.100000	-2.870000	2.240000	294.00	-0.19	-0.08
0.65	4.50	6.00	3.25	5.00	5.00	2.75	0.75	1.00	1.00	0.25	0.00	0.00	0.50	0.75	0.00	0.50	-0.184570	0.035156	0.965332	-1.260000	6.440000	-1.120000	333.00	-0.21	-0.06	3.75	5.25	2.75	5.00	2.50	2.50	1.00	1.25	0.75	0.25	0.00	0.00	1.00	0.50	0.00	0.25	-0.145996	0.041992	0.980469	-2.100000	-2.870000	2.240000	288.00	-0.21	-0.08
0.66	4.75	6.00	3.00	5.00	5.00	2.75	0.75	1.00	0.75	0.25	0.00	0.00	0.50	0.50	0.00	0.25	-0.181641	0.028809	0.961914	-1.400000	6.510000	-1.120000	326.00	-0.22	-0.06	3.50	5.25	2.75	5.25	2.50	2.50	1.00	1.00	1.00	0.50	0.00	0.00	0.75	0.25	0.00	0.50	-0.142090	0.043457	0.984863	-2.240000	-2.870000	2.240000	287.00	-0.20	-0.08
0.67	4.75	6.00	3.25	5.00	5.00	2.50	0.75	1.00	0.75	0.25	0.00	0.00	0.50	0.50	0.00	0.25	-0.178711	0.026367	0.962891	-0.980000	6.510000	-0.980000	327.00	-0.22	-0.06	4.00	5.25	2.50	5.25	2.50	2.75	1.00	1.00	0.75	0.25	0.00	0.00	1.00	0.50	0.00	0.50	-0.140137	0.048340	0.968262	-2.240000	-2.800000	2.030000	291.00	-0.21	-0.08
0.68	5.00	6.25	3.00	5.00	5.00	2.50	0.75	1.00	0.50	0.25	0.00	0.00	0.75	0.75	0.00	0.25	-0.178711	0.028320	0.962402	-0.560000	6.510000	-1.050000	330.00	-0.22	-0.06	4.00	5.25	2.75	5.00	2.25	2.50	1.00	1.00	1.00	0.25	0.00	0.00	1.00	0.50	0.00	0.50	-0.138672	0.044922	0.979004	-2.100000	-2.800000	2.310000	289.00	-0.20	-0.07
0.69	4.75	6.25	3.25	5.00	5.00	2.75	0.75	0.75	0.50	0.25	0.00	0.00	0.25	0.75	0.00	0.25	-0.185547	0.033203	0.954102	-0.140000	6.370000	-0.980000	324.00	-0.23	-0.06	4.00	5.25	2.75	5.25	2.50	2.50	1.00	1.00	0.75	0.25	0.00	0.00	1.00	0.50	0.00	0.50	-0.137207	0.048828	0.977051	-1.960000	-2.800000	2.310000	291.00	-0.21	-0.08
0.70	4.75	6.25	3.25	5.00	5.00	2.75	0.75	1.00	0.75	0.25	0.00	0.00	0.50	0.75	0.00	0.25	-0.186523	0.034668	0.962891	0.070000	6.230000	-0.910000	334.00	-0.22	-0.06	4.00	5.25	2.75	5.25	2.50	2.00	1.00	1.00	0.75	0.25	0.00	0.00	1.50	0.25	0.00	0.50	-0.143555	0.046387	0.981934	-2.030000	-2.800000	2.240000	288.00	-0.21	-0.08
0.71	5.50	6.25	3.25	5.00	5.25	2.75	0.75	1.00	0.75	0.25	0.00	0.00	0.50	1.00	0.00	0.25	-0.183594	0.038086	0.958984	-0.210000	6.160000	-0.980000	346.00	-0.22	-0.05	4.00	5.25	2.50	5.00	2.25	2.50	0.75	1.00	0.75	0.25	0.00	0.00	1.25	0.50	0.00	0.50	-0.137207	0.046875	0.975586	-2.030000	-2.800000	2.170000	281.00	-0.21	-0.09
0.72	5.25	6.50	3.25	5.00	5.00	2.75	0.75	1.00	0.75	0.50	0.00	0.00	0.50	1.00	0.00	0.25	-0.180664	0.035156	0.958496	-0.420000	6.160000	-1.120000	346.00	-0.22	-0.05	4.25	5.25	2.75	5.25	2.25	2.50	1.00	1.00	0.50	0.50	0.00	0.00	1.00	0.25	0.00	0.25	-0.142090	0.044434	0.977539	-1.960000	-2.730000	2.100000	287.00	-0.22	-0.08
0.73	5.75	6.50	3.00	5.00	5.00	2.75	0.75	1.00	0.75	0.50	0.00	0.00	0.25	0.75	0.00	0.25	-0.177246	0.031250	0.958008	-0.840000	6.230000	-1.260000	344.00	-0.22	-0.05	3.75	5.25	2.50	5.25	2.25	2.50	1.00	1.00	0.75	0.25	0.00	0.00	1.00	0.50	0.00	0.25	-0.145508	0.042480	0.982422	-2.030000	-2.870000	2.240000	282.00	-0.21	-0.08
0.74	5.50	6.75	3.00	5.25	4.75	2.75	0.75	1.00	0.50	0.00	0.00	0.00	0.25	0.75	0.00	0.25	-0.184082	0.035645	0.958984	-1.610000	5.950000	-1.330000	335.00	-0.24	-0.06	4.00	5.25	2.75	5.25	2.50	2.25	1.00	1.00	0.75	0.25	0.00	0.00	1.00	0.50	0.00	0.25	-0.140625	0.044922	0.982422	-2.170000	-2.800000	2.240000	287.00	-0.21	-0.08
0.75	5.50	6.75	3.25	5.00	5.00	2.75	0.75	1.00	0.75	0.25	0.00	0.00	0.50	1.00	0.00	0.25	-0.184082	0.035645	0.958984	-1.610000	5.950000	-1.330000	348.00	-0.22	-0.06	4.00	5.25	2.75	5.25	2.25	2.50	1.00	0.75	1.00	0.50	0.00	0.00	1.25	0.00	0.00	0.25	-0.138184	0.045898	0.980957	-2.240000	-2.800000	2.170000	287.00	-0.21	-0.08
0.76	5.75	6.75	3.25	5.00	5.00	3.00	0.75	1.00	0.50	0.25	0.00	0.00	0.50	0.75	0.00	0.25	-0.182617	0.035156	0.958984	-1.750000	6.020000	-1.400000	348.00	-0.23	-0.06	4.00	5.25	2.75	5.00	2.25	2.25	1.00	1.00	0.75	0.50	0.00	0.00	0.75	0.50	0.00	0.25	-0.141602	0.044434	0.982422	-2.240000	-2.870000	2.170000	282.00	-0.21	-0.07
0.77	5.75	6.75	3.25	5.25	5.00	2.75	0.75	1.00	0.75	0.25	0.00	0.00	0.50	0.50	0.00	0.25	-0.182617	0.029785	0.965332	-1.680000	6.020000	-1.260000	349.00	-0.23	-0.06	3.75	5.25	2.75	5.00	2.25	2.50	1.00	1.00	0.75	0.25	0.00	0.00	0.75	0.50	0.00	0.50	-0.140137	0.047363	0.981934	-2.310000	-2.870000	2.240000	281.00	-0.21	-0.08
0.78	5.50	6.75	3.50	5.25	5.25	3.00	0.75	1.00	0.50	0.00	0.00	0.00	0.50	0.50	0.00	0.00	-0.188477	0.033691	0.961426	-1.400000	5.950000	-1.260000	348.00	-0.24	-0.06	3.75	5.25	2.75	5.00	2.25	2.25	1.00	1.00	0.50	0.25	0.00	0.00	1.00	0.25	0.00	0.25	-0.142578	0.048340	0.982422	-2.310000	-2.800000	2.100000	274.00	-0.22	-0.08
0.79	6.00	7.25	3.50	5.25	5.25	3.00	0.75	1.00	0.50	0.00	0.00	0.00	0.50	0.50	0.00	0.25	-0.187012	0.036621	0.964844	-1.190000	6.160000	-1.190000	359.00	-0.24	-0.06	3.75	5.25	2.50	5.00	2.25	2.25	1.00	1.00	0.75	0.25	0.00	0.00	0.50	0.25	0.00	0.25	-0.142578	0.045898	0.981445	-2.380000	-2.800000	2.100000	270.00	-0.22	-0.08
0.80	6.50	7.00	3.25	5.25	5.00	3.25	0.75	1.00	0.50	0.25	0.00	0.00	0.25	0.75	0.00	0.25	-0.187988	0.030762	0.968750	-0.490000	6.160000	-1.050000	361.00	-0.24	-0.06	3.75	5.25	2.75	5.00	2.25	2.25	1.00	0.75	1.00	0.50	0.00	0.00	1.00	0.25	0.00	0.50	-0.146484	0.043945	0.992676	-2.170000	-2.730000	2.100000	280.00	-0.21	-0.07
0.81	6.50	7.25	3.75	5.25	5.00	3.00	0.75	0.75	0.75	0.00	0.00	0.00	0.25	0.75	0.00	0.25	-0.181641	0.035645	0.963379	0.140000	5.950000	-0.770000	363.00	-0.24	-0.05	4.00	5.00	2.50	5.00	2.25	2.25	1.00	0.75	0.75	0.25	0.00	0.00	1.00	0.25	0.00	0.25	-0.145508	0.048340	0.974609	-1.820000	-2.590000	2.170000	270.00	-0.22	-0.07
0.82	6.25	7.50	3.50	5.50	5.00	3.00	0.75	1.00	0.50	0.25	0.00	0.00	0.25	0.50	0.00	0.25	-0.179688	0.034668	0.958984	0.350000	5.950000	-0.700000	364.00	-0.24	-0.06	3.75	5.25	2.50	5.00	2.25	2.25	1.00	0.75	0.75	0.25	0.00	0.00	0.75	0.25	0.00	0.25	-0.147461	0.046875	0.981445	-1.470000	-2.450000	2.310000	268.00	-0.22	-0.07
0.83	6.25	7.25	3.25	5.25	5.25	3.00	0.75	1.00	0.50	0.00	0.00	0.00	0.25	0.50	0.00	0.25	-0.183105	0.030762	0.959961	0.140000	6.090000	-0.840000	356.00	-0.24	-0.06	3.75	5.25	2.75	5.00	2.00	2.50	1.00	0.75	0.75	0.25	0.00	0.00	0.75	0.25	0.00	0.50	-0.145508	0.050293	0.976074	-1.610000	-2.590000	2.240000	272.00	-0.22	-0.08
0.84	6.75	7.75	3.50	5.25	5.25	3.00	0.75	1.00	0.50	0.00	0.00	0.00	0.50	0.75	0.00	0.25	-0.182617	0.035645	0.954102	-0.280000	6.370000	-0.910000	373.00	-0.24	-0.06	4.00	5.25	2.50	5.00	2.25	2.25	0.75	0.75	0.75	0.25	0.00	0.00	1.00	0.50	0.00	0.50	-0.142578	0.040039	0.981445	-1.680000	-2.590000	2.240000	272.00	-0.22	-0.08
0.85	6.75	8.00	3.25	5.50	5.00	3.25	0.50	1.00	0.50	0.25	0.00	0.00	0.50	0.75	0.00	0.25	-0.187012	0.034180	0.962402	-0.560000	6.370000	-0.910000	374.00	-0.24	-0.07	3.75	5.25	2.50	5.00	2.00	2.00	1.00	0.75	0.50	0.25	0.00	0.00	0.75	0.50	0.00	0.25	-0.143555	0.047363	0.980469	-1.750000	-2.520000	2.240000	261.00	-0.22	-0.08
0.86	6.75	7.75	3.50	5.25	5.00	3.00	0.50	1.00	0.75	0.25	0.00	0.00	0.25	0.75	0.00	0.25	-0.178223	0.035156	0.962891	-0.700000	6.230000	-0.840000	370.00	-0.24	-0.06	3.75	5.25	2.75	5.00	2.25	2.25	1.00	0.75	0.50	0.25	0.00	0.00	0.75	0.25	0.00	0.50	-0.137695	0.048340	0.973145	-1.820000	-2.520000	2.310000	269.00	-0.22	-0.08
0.87	6.50	7.75	3.75	5.25	5.00	3.00	0.50	1.00	0.50	0.25	0.00	0.00	0.25	0.50	0.00	0.25	-0.184082	0.035645	0.958984	-0.420000	6.020000	-0.840000	365.00	-0.25	-0.06	4.00	5.00	2.50	5.00	2.25	2.25	0.75	0.75	0.75	0.25	0.00	0.00	1.00	0.50	0.00	0.25	-0.143555	0.048340	0.987793	-1.750000	-2.520000	2.240000	269.00	-0.22	-0.08
0.88	6.75	8.50	3.50	5.50	5.00	3.00	0.50	1.00	0.50	0.00	0.00	0.00	0.25	0.50	0.00	0.25	-0.184570	0.035645	0.968262	-0.000000	6.160000	-0.700000	372.00	-0.26	-0.06	4.00	5.25	2.50	5.00	2.25	2.25	0.75	1.00	0.50	0.25	0.00	0.25	0.75	0.50	0.00	0.25	-0.145996	0.047363	0.978516	-1.330000	-2.520000	2.240000	272.00	-0.22	-0.09
0.89	6.75	8.75	3.50	5.50	5.00	3.00	0.75	1.00	0.25	0.25	0.00	0.00	0.25	0.25	0.00	0.25	-0.188477	0.030762	0.967285	0.910000	6.090000	-0.490000	375.00	-0.26	-0.07	3.75	5.00	2.50	5.00	2.00	2.00	1.00	0.75	0.75	0.25	0.00	0.00	1.00	0.25	0.00	0.25	-0.147461	0.053711	0.977051	-1.120000	-2.380000	2.380000	262.00	-0.22	-0.08
0.90	7.25	8.25	3.75	5.75	5.00	3.25	0.50	0.75	0.50	0.25	0.00	0.00	0.25	0.50	0.00	0.25	-0.180664	0.035156	0.967773	1.750000	6.230000	-0.560000	382.00	-0.26	-0.06	3.75	5.00	2.50	5.00	2.00	2.00	0.75	0.75	0.75	0.25	0.00	0.00	1.00	0.50	0.00	0.25	-0.139160	0.052734	0.975586	-1.120000	-2.310000	2.380000	261.00	-0.22	-0.08
0.91	7.00	8.25	3.75	5.75	5.00	3.00	0.75	1.00	0.00	0.00	0.00	0.00	0.25	0.50	0.00	0.25	-0.192383	0.029297	0.954590	1.750000	5.880000	-0.910000	375.00	-0.26	-0.07	3.75	5.25	2.50	4.75	2.00	2.00	0.75	0.75	1.00	0.25	0.00	0.00	0.25	0.25	0.00	0.25	-0.147949	0.048340	0.979492	-1.330000	-2.380000	2.310000	255.00	-0.23	-0.07
0.92	7.00	8.75	4.00	5.50	5.00	3.50	0.50	1.00	0.00	0.00	0.00	0.00	0.50	0.50	0.00	0.25	-0.180176	0.037598	0.959473	1.400000	5.530000	-0.700000	384.00	-0.26	-0.07	3.75	5.25	2.50	5.00	2.00	2.00	0.75	1.00	0.75	0.25	0.00	0.00	1.00	0.25	0.00	0.25	-0.144531	0.048828	0.980469	-1.610000	-2.450000	2.310000	265.00	-0.22	-0.09
0.93	7.50	9.00	3.75	5.75	5.00	3.25	0.50	1.00	0.25	0.00	0.00	0.00	0.25	0.50	0.00	0.25	-0.179688	0.036133	0.958008	1.120000	5.530000	-0.490000	389.00	-0.27	-0.07	3.75	5.00	2.50	4.75	2.00	2.00	0.75	0.75	0.50	0.25	0.00	0.00	1.00	0.50	0.00	0.25	-0.144531	0.049805	0.978027	-1.540000	-2.240000	2.310000	255.00	-0.22	-0.08
0.94	7.25	8.75	3.75	5.75	5.00	3.50	0.50	1.00	0.25	0.25	0.00	0.00	0.00	0.25	0.25	0.25	-0.181641	0.035645	0.968262	1.610000	5.740000	-0.630000	388.00	-0.26	-0.07	3.50	5.00	2.50	5.00	2.00	2.00	0.75	0.75	0.75	0.25	0.00	0.00	0.75	0.25	0.00	0.25	-0.149902	0.046387	0.982422	-0.700000	-2.170000	2.450000	254.00	-0.22	-0.08
0.95	7.50	9.25	4.00	6.00	5.00	3.50	0.50	1.00	0.50	0.00	0.00	0.00	0.25	0.25	0.00	0.25	-0.167480	0.036621	0.982910	3.290000	5.950000	-0.210000	401.00	-0.27	-0.07	3.75	5.25	2.50	5.00	1.75	2.00	0.75	0.75	0.50	0.25	0.00	0.00	1.00	0.25	0.00	0.25	-0.149902	0.048828	0.983887	0.630000	-1.750000	2.800000	255.00	-0.23	-0.09
0.96	8.00	9.50	4.00	6.50	5.00	3.75	0.50	1.00	0.00	0.00	0.00	0.00	0.25	0.25	0.00	0.25	-0.197266	0.033203	0.977539	6.160000	5.250000	0.210000	410.00	-0.28	-0.07	3.50	5.00	2.25	5.00	2.00	2.00	0.75	0.75	0.50	0.00	0.00	0.00	0.75	0.25	0.00	0.25	-0.157715	0.045898	0.991211	2.240000	-1.330000	3.010000	245.00	-0.23	-0.09
0.97	8.50	10.00	4.00	6.50	4.75	3.75	0.50	0.75	0.00	0.00	0.00	0.00	0.25	0.25	0.00	0.00	-0.199707	0.032227	1.008301	10.220000	3.710000	0.840000	412.00	-0.28	-0.07	3.75	5.00	2.50	5.00	1.75	1.75	0.75	0.75	0.50	0.00	0.00	0.00	0.75	0.00	0.00	0.25	-0.148926	0.045410	0.985840	3.850000	-0.840000	3.010000	243.00	-0.24	-0.08
0.98	8.25	10.00	4.00	7.00	5.00	3.75	0.50	1.00	0.00	0.00	0.00	0.00	0.25	0.25	0.00	0.25	-0.200195	0.033203	0.995117	20.230000	-3.010000	1.400000	423.00	-0.28	-0.08	3.75	5.25	2.25	5.00	1.75	1.75	0.75	0.75	0.25	0.25	0.00	0.00	0.50	0.00	0.00	0.00	-0.154785	0.029297	0.996094	5.390000	-0.840000	2.730000	238.00	-0.25	-0.09
0.99	8.75	11.00	4.00	7.00	4.75	4.00	0.50	1.00	0.00	0.00	0.00	0.00	0.00	0.25	0.00	0.00	-0.189941	0.049805	1.001953	25.830000	-9.240000	1.750000	434.00	-0.29	-0.08	3.75	5.25	2.25	5.00	1.75	1.50	0.75	0.50	0.25	0.25	0.00	0.00	0.50	0.25	0.00	0.00	-0.145996	0.024414	0.998535	7.070000	-2.030000	0.980000	234.00	-0.25	-0.08
1.00	9.00	11.50	4.25	7.00	4.75	4.00	0.50	1.00	0.00	0.00	0.00	0.00	0.25	0.00	0.00	0.00	-0.208984	0.027832	1.033203	33.599998	-15.680000	1.330000	444.00	-0.29	-0.08	3.50	5.25	2.25	5.00	1.50	1.75	0.75	0.50	0.25	0.00	0.00	0.00	0.50	0.25	0.00	0.00	-0.149414	0.061523	1.031738	12.880000	-7.630000	0.700000	229.00	-0.26	-0.08
1.01	9.75	12.50	4.25	7.50	4.50	4.25	0.25	1.00	0.00	0.00	0.00	0.00	0.00	0.25	0.00	0.00	-0.176758	0.054199	1.004883	41.790001	-21.139999	1.960000	462.00	-0.30	-0.08	3.75	5.25	2.25	5.00	1.50	1.75	0.50	0.50	0.25	0.00	0.00	0.00	0.25	0.00	0.00	0.00	-0.170898	0.048828	1.030762	18.059999	-14.560000	0.560000	223.00	-0.28	-0.09
1.02	10.75	13.50	4.25	7.75	4.25	4.25	0.25	0.75	0.00	0.00	0.00	0.00	0.00	0.00	0.00	0.00	-0.171387	0.078125	0.977539	47.880001	-24.780001	3.150000	476.00	-0.31	-0.08	3.75	5.25	2.25	4.75	1.50	1.25	0.50	0.25	0.25	0.00	0.00	0.00	0.50	0.00	0.00	0.00	-0.152344	0.054688	1.025879	22.049999	-19.040001	0.140000	213.00	-0.28	-0.08
1.03	11.25	13.75	4.00	8.00	4.00	4.00	0.25	1.00	0.00	0.00	0.00	0.00	0.00	0.00	0.00	0.00	-0.151367	0.074219	0.994141	46.410000	-25.900000	3.080000	482.00	-0.31	-0.08	3.75	5.25	2.25	4.75	1.25	1.25	0.50	0.25	0.00	0.00	0.00	0.00	0.25	0.25	0.00	0.00	-0.159668	0.088867	1.038086	23.940001	-23.170000	0.210000	207.00	-0.29	-0.08
1.04	12.25	14.75	4.50	8.25	4.00	4.25	0.25	0.75	0.00	0.00	0.00	0.00	0.00	0.00	0.00	0.00	-0.152344	0.097656	0.939941	44.380001	-27.370001	3.570000	509.00	-0.31	-0.07	3.75	5.00	2.00	4.25	1.25	1.00	0.50	0.25	0.25	0.00	0.00	0.00	0.25	0.00	0.00	0.00	-0.139648	0.086426	0.985352	22.680000	-26.460001	0.630000	195.00	-0.29	-0.07
1.05	12.50	15.50	4.25	8.25	3.50	4.00	0.00	0.75	0.00	0.00	0.00	0.00	0.00	0.00	0.00	0.00	-0.135254	0.114746	0.931152	40.950001	-25.620001	3.710000	503.00	-0.32	-0.08	3.75	5.00	1.75	4.25	1.00	1.00	0.50	0.25	0.25	0.00	0.00	0.00	0.50	0.00	0.00	0.00	-0.145020	0.109375	1.027344	20.230000	-27.160000	1.400000	192.00	-0.28	-0.08
1.06	13.75	15.25	4.25	8.50	3.50	4.25	0.00	0.75	0.00	0.00	0.00	0.00	0.25	0.00	0.00	0.00	-0.130371	0.115723	0.925293	36.259998	-21.210001	3.780000	522.00	-0.32	-0.08	3.75	5.00	2.00	4.00	1.00	0.75	0.50	0.25	0.00	0.00	0.00	0.00	0.00	0.00	0.00	0.00	-0.108887	0.097168	0.951172	13.160000	-27.860001	2.450000	182.00	-0.31	-0.07
1.07	13.75	16.50	4.00	8.50	3.25	4.50	0.00	0.75	0.00	0.00	0.00	0.00	0.00	0.00	0.00	0.00	-0.143555	0.118652	0.987793	34.160000	-18.690001	3.710000	528.00	-0.32	-0.08	3.50	5.00	1.75	4.00	1.00	0.75	0.50	0.00	0.00	0.00	0.00	0.00	0.25	0.00	0.00	0.00	-0.128906	0.101562	0.986328	11.760000	-27.860001	2.450000	175.00	-0.31	-0.07
1.08	15.00	17.25	4.50	9.00	3.25	4.25	0.00	0.75	0.00	0.00	0.00	0.00	0.00	0.00	0.00	0.00	-0.136230	0.103516	0.966309	34.160000	-20.230000	3.640000	556.00	-0.33	-0.08	3.75	5.00	2.00	3.75	1.00	0.50	0.50	0.00	0.25	0.00	0.00	0.00	0.50	0.00	0.00	0.00	-0.123047	0.110352	0.969727	9.240000	-25.480000	3.990000	180.00	-0.29	-0.06
1.09	15.25	17.50	4.25	9.00	3.25	4.50	0.00	0.75	0.00	0.00	0.00	0.00	0.00	0.00	0.00	0.00	-0.107910	0.125488	0.918457	32.060001	-19.879999	3.150000	561.00	-0.33	-0.08	3.50	5.00	2.00	3.50	1.00	0.50	0.50	0.00	0.00	0.00	0.00	0.00	0.25	0.00	0.00	0.00	-0.105957	0.104980	0.953613	8.260000	-24.570000	5.040000	169.00	-0.31	-0.06
1.10	15.00	18.50	4.25	8.75	3.25	4.50	0.00	0.75	0.00	0.00	0.00	0.00	0.00	0.00	0.00	0.00	-0.120117	0.142578	0.936035	29.049999	-17.430000	2.800000	565.00	-0.33	-0.08	3.50	5.00	1.75	3.75	0.75	0.50	0.50	0.00	0.00	0.00	0.00	0.00	0.50	0.00	0.00	0.00	-0.101074	0.098633	0.925781	7.280000	-22.190001	5.530000	168.00	-0.30	-0.07
1.11	15.00	18.25	4.25	9.25	2.75	4.50	0.00	0.75	0.00	0.00	0.00	0.00	0.00	0.00	0.00	0.00	-0.129883	0.134277	0.941406	26.320000	-15.610000	2.310000	563.00	-0.33	-0.08	3.25	5.00	1.50	3.75	0.75	0.25	0.50	0.25	0.00	0.00	0.00	0.00	0.25	0.00	0.00	0.00	-0.099609	0.099121	0.938965	6.860000	-18.830000	5.740000	162.00	-0.31	-0.08
1.12	16.25	18.50	4.00	9.25	2.75	4.75	0.00	0.75	0.00	0.00	0.00	0.00	0.00	0.00	0.00	0.00	-0.116211	0.125977	0.944336	24.780001	-14.000000	1.960000	578.00	-0.33	-0.08	3.25	5.00	1.75	4.00	0.75	0.50	0.50	0.00	0.00	0.00	0.00	0.00	0.00	0.00	0.00	0.00	-0.097168	0.095703	0.961426	7.000000	-17.290001	5.880000	164.00	-0.32	-0.07
1.13	16.00	18.75	3.75	9.25	2.75	4.75	0.00	0.75	0.00	0.00	0.00	0.00	0.00	0.00	0.00	0.00	-0.103027	0.142578	0.934082	23.450001	-12.110000	1.890000	575.00	-0.33	-0.08	3.50	5.00	1.75	3.75	0.50	0.25	0.50	0.00	0.00	0.00	0.00	0.00	0.00	0.00	0.00	0.00	-0.093262	0.096191	0.940918	6.790000	-16.379999	6.230000	159.00	-0.32	-0.06
1.14	16.25	18.75	4.00	9.25	2.50	4.75	0.00	0.75	0.00	0.00	0.00	0.00	0.00	0.00	0.00	0.00	-0.102539	0.140625	0.935547	21.629999	-9.240000	1.400000	577.00	-0.33	-0.08	3.50	5.25	1.50	3.75	0.50	0.50	0.50	0.00	0.00	0.00	0.00	0.00	0.00	0.00	0.00	0.00	-0.087891	0.102051	0.942871	7.000000	-14.420000	6.230000	161.00	-0.32	-0.07
1.15	16.00	19.00	4.00	9.25	2.50	4.75	0.00	0.75	0.00	0.00	0.00	0.00	0.00	0.00	0.00	0.00	-0.092285	0.127441	0.928223	19.460001	-7.000000	0.560000	577.00	-0.33	-0.08	3.25	5.00	1.50	4.00	0.75	0.25	0.25	0.00	0.25	0.00	0.00	0.00	0.25	0.00	0.00	0.00	-0.094727	0.091797	0.957520	7.490000	-13.300000	6.300000	160.00	-0.31	-0.07
1.16	15.75	18.75	4.00	9.25	2.75	5.00	0.00	0.75	0.00	0.00	0.00	0.00	0.00	0.00	0.00	0.00	-0.091309	0.155762	0.918945	16.730000	-3.360000	-0.700000	578.00	-0.33	-0.08	3.50	5.00	1.50	3.75	0.75	0.25	0.25	0.00	0.00	0.00	0.00	0.00	0.00	0.00	0.00	0.00	-0.095703	0.093262	0.952148	7.770000	-12.600000	6.090000	155.00	-0.33	-0.07
1.17	15.50	18.25	3.50	9.25	2.50	4.75	0.00	0.75	0.00	0.00	0.00	0.00	0.00	0.00	0.00	0.00	-0.088379	0.162109	0.920410	13.650000	0.910000	-1.610000	559.00	-0.33	-0.08	3.75	5.25	1.25	4.00	0.75	0.50	0.25	0.00	0.00	0.00	0.00	0.00	0.00	0.00	0.00	0.00	-0.084473	0.083008	0.932129	7.630000	-11.130000	5.810000	162.00	-0.33	-0.08
1.18	15.25	18.25	3.50	9.00	2.50	5.00	0.00	0.75	0.00	0.00	0.00	0.00	0.00	0.00	0.00	0.00	-0.087891	0.157715	0.902832	9.940000	5.390000	-2.170000	557.00	-0.33	-0.08	3.50	5.25	1.75	4.00	0.50	0.75	0.25	0.25	0.25	0.00	0.00	0.00	0.00	0.00	0.00	0.00	-0.071777	0.085449	0.913574	7.700000	-7.700000	4.900000	172.00	-0.31	-0.08
1.19	15.00	17.50	3.50	9.00	2.25	4.75	0.00	0.75	0.00	0.00	0.00	0.00	0.00	0.00	0.00	0.00	-0.089844	0.165039	0.905273	-1.680000	18.690001	-3.640000	542.00	-0.33	-0.08	3.50	5.25	1.75	4.25	0.75	1.00	0.25	0.00	0.00	0.00	0.00	0.00	0.25	0.00	0.00	0.00	-0.085449	0.094727	0.921875	7.560000	-3.360000	4.130000	176.00	-0.31	-0.09
1.20	13.75	17.00	3.25	8.75	2.50	4.75	0.00	0.75	0.00	0.00	0.00	0.00	0.00	0.00	0.00	0.00	-0.096680	0.167480	0.884277	-7.770000	23.450001	-4.830000	522.00	-0.33	-0.09	4.00	5.50	1.75	4.25	1.00	1.00	0.25	0.00	0.00	0.00	0.00	0.00	0.00	0.00	0.00	0.00	-0.080078	0.110840	0.880371	6.370000	1.330000	3.850000	184.00	-0.32	-0.08
1.21	13.00	16.25	3.00	8.50	2.25	4.50	0.00	0.75	0.00	0.00	0.00	0.00	0.00	0.00	0.00	0.00	-0.087402	0.185547	0.914551	-14.350000	28.630001	-5.810000	496.00	-0.33	-0.09	4.00	5.50	1.75	5.00	1.00	1.25	0.25	0.25	0.00	0.00	0.00	0.00	0.50	0.00	0.00	0.00	-0.092285	0.113281	0.915527	5.040000	8.330000	4.550000	203.00	-0.30	-0.10
1.22	12.25	14.75	3.25	8.25	2.00	4.50	0.00	0.75	0.00	0.00	0.00	0.00	0.00	0.00	0.00	0.00	-0.058594	0.169922	0.920898	-20.440001	34.580002	-7.210000	472.00	-0.33	-0.09	4.25	5.50	2.00	5.00	1.00	1.50	0.25	0.25	0.25	0.00	0.00	0.00	0.00	0.00	0.00	0.00	-0.087891	0.081543	0.983398	1.190000	14.980000	3.780000	210.00	-0.30	-0.08
1.23	10.25	13.25	2.75	7.75	2.25	4.00	0.00	0.75	0.00	0.00	0.00	0.00	0.00	0.00	0.00	0.00	-0.097656	0.117188	0.827637	-28.700001	41.580002	-8.960000	423.00	-0.32	-0.09	4.25	6.25	2.25	5.25	1.25	2.00	0.50	0.50	0.00	0.00	0.00	0.00	0.00	0.00	0.00	0.00	-0.093262	0.102051	0.942383	-5.180000	18.410000	2.380000	235.00	-0.30	-0.09
1.24	8.75	11.00	2.25	7.25	2.00	3.75	0.00	0.75	0.00	0.00	0.00	0.00	0.00	0.00	0.00	0.00	-0.028809	0.178711	0.879395	-34.860001	51.660000	-10.640000	371.00	-0.32	-0.10	4.50	6.75	2.50	5.50	1.25	2.50	0.50	0.50	0.00	0.25	0.00	0.00	0.00	0.00	0.00	0.00	-0.122559	0.135742	0.999512	-26.320000	27.370001	1.960000	256.00	-0.29	-0.09
1.25	7.00	8.75	2.00	6.25	2.00	3.00	0.00	0.75	0.00	0.00	0.00	0.00	0.25	0.00	0.00	0.00	-0.126953	0.166504	0.920898	-41.930000	61.389999	-11.760000	312.00	-0.31	-0.10	5.25	7.25	2.75	6.00	1.50	3.25	0.50	1.00	0.25	0.00	0.00	0.00	0.50	0.00	0.00	0.00	-0.122559	0.135742	0.999512	-26.320000	27.370001	1.960000	300.00	-0.27	-0.10
1.26	5.75	7.25	1.75	5.25	1.75	2.50	0.00	0.75	0.00	0.00	0.00	0.00	0.00	0.00	0.00	0.00	-0.101074	0.127441	0.984375	-46.549999	71.680000	-11.410000	261.00	-0.31	-0.10	6.00	8.00	3.25	6.25	1.75	4.00	0.50	1.00	0.00	0.00	0.00	0.00	0.50	0.00	0.00	0.00	-0.118652	0.107422	0.914062	-36.680000	29.750000	2.940000	330.00	-0.28	-0.10
1.27	4.50	6.00	1.00	4.50	1.50	2.00	0.00	0.75	0.00	0.00	0.00	0.00	0.25	0.00	0.00	0.00	-0.149414	0.064941	1.126953	-47.389999	72.940002	-15.820000	214.00	-0.30	-0.11	6.75	8.50	3.75	7.50	2.50	5.00	0.50	1.50	0.25	0.25	0.25	0.00	1.00	0.00	0.00	0.00	-0.155273	0.116211	1.198242	-68.180000	30.730000	0.420000	402.00	-0.26	-0.11
1.28	3.50	5.25	0.75	3.75	1.25	1.50	0.00	0.50	0.00	0.00	0.00	0.00	0.25	0.00	0.00	0.00	-0.112793	0.015625	1.199219	-35.630001	67.059998	-27.299999	174.00	-0.30	-0.12	7.75	9.00	4.25	8.00	3.00	5.25	0.75	2.00	0.50	0.25	0.00	0.00	1.25	0.00	0.00	0.25	-0.148926	0.072754	1.116211	-76.440002	29.750000	-0.980000	451.00	-0.25	-0.10
1.29	2.75	4.50	0.75	3.25	0.75	1.25	0.00	0.25	0.00	0.00	0.00	0.00	0.25	0.00	0.00	0.00	0.137207	0.207031	1.275879	0.770000	63.700001	-52.570000	142.00	-0.31	-0.12	8.50	9.75	5.00	8.50	4.50	6.25	1.00	2.25	0.75	0.50	0.25	0.25	1.25	0.00	0.00	0.25	-0.165039	0.084473	1.207520	-61.180000	11.480000	-1.750000	526.00	-0.23	-0.10
1.30	2.25	3.75	0.50	2.75	0.75	0.75	0.00	0.00	0.00	0.00	0.00	0.00	0.25	0.00	0.00	0.00	0.221680	0.290527	1.601562	75.809998	88.410004	-88.410004	112.00	-0.32	-0.11	9.00	10.00	5.50	9.00	5.50	6.75	1.00	2.50	0.75	0.50	0.50	0.00	1.50	0.00	0.00	0.25	-0.165527	0.013184	1.013672	-28.980000	-9.590000	-1.330000	567.00	-0.23	-0.09
1.31	1.75	3.75	0.25	2.75	0.75	0.25	0.00	0.00	0.00	0.00	0.00	0.00	0.00	0.00	0.00	0.00	0.077637	0.132812	1.516113	112.629997	112.910004	-124.389999	97.00	-0.34	-0.11	9.25	10.50	5.75	9.25	6.00	7.75	1.00	3.00	1.00	0.75	0.25	0.25	1.50	0.00	0.00	0.25	-0.112793	0.066406	0.993652	-14.420000	-12.740000	-0.140000	610.00	-0.22	-0.10
1.32	1.75	2.50	0.50	2.00	0.75	0.25	0.00	0.00	0.00	0.25	0.00	0.00	0.00	0.00	0.00	0.00	0.164062	0.554199	1.216309	116.760002	137.830002	-146.160004	82.00	-0.31	-0.08	9.75	10.75	6.25	9.50	6.50	8.00	1.25	3.25	1.00	1.00	0.25	0.25	1.75	0.25	0.00	0.25	-0.129883	0.044434	0.997559	-10.080000	-10.150000	0.350000	648.00	-0.22	-0.09
1.33	1.75	2.50	0.50	1.50	0.75	0.00	0.00	0.00	0.00	0.00	0.00	0.00	0.00	0.00	0.00	0.00	0.977051	0.379395	1.332031	96.389999	149.940002	-162.259995	71.00	-0.34	-0.06	9.50	10.75	6.50	9.50	7.00	8.25	1.25	3.50	1.00	0.75	0.25	0.25	2.25	0.00	0.00	0.50	-0.126953	0.039062	0.994629	-6.650000	-8.190000	0.840000	661.00	-0.21	-0.10
1.34	1.75	2.75	0.50	1.75	0.50	0.00	0.00	0.00	0.00	0.00	0.00	0.00	0.00	0.00	0.00	0.00	0.682129	1.187012	2.274902	22.400000	123.620003	-145.740005	74.00	-0.35	-0.08	9.75	11.00	6.75	9.75	7.25	8.50	1.50	3.75	1.25	1.00	0.50	0.25	2.25	0.00	0.00	0.75	-0.124023	0.048340	0.988281	-4.410000	-6.720000	1.260000	695.00	-0.21	-0.10
1.35	1.50	2.25	0.25	1.50	0.75	0.00	0.00	0.00	0.00	0.00	0.00	0.00	0.00	0.00	0.00	0.00	1.293945	1.115723	1.671387	-58.029999	80.989998	-112.980003	64.00	-0.34	-0.07	9.50	11.00	6.50	9.75	7.50	8.50	1.50	4.25	1.25	0.75	0.50	0.50	2.25	0.00	0.00	0.75	-0.127441	0.050293	0.991699	-2.730000	-5.110000	1.400000	700.00	-0.20	-0.10
1.36	1.50	2.50	0.25	1.50	0.75	0.00	0.00	0.00	0.00	0.00	0.00	0.00	0.00	0.00	0.00	0.00	1.252441	1.130371	1.170410	-79.029999	44.450001	-78.959999	66.00	-0.34	-0.08	9.25	10.50	6.50	9.50	7.50	8.50	1.50	4.50	1.25	1.00	0.50	0.50	2.75	0.25	0.00	0.50	-0.125977	0.052246	0.989746	-1.540000	-3.570000	1.470000	701.00	-0.19	-0.10
1.37	2.00	2.00	0.25	1.25	0.50	0.00	0.00	0.00	0.00	0.00	0.00	0.00	0.00	0.00	0.00	0.00	1.244629	0.919922	0.765137	-53.760002	33.110001	-57.820000	61.00	-0.35	-0.05	9.00	10.50	6.25	9.25	7.25	8.75	1.75	5.00	1.25	0.75	0.75	0.75	2.50	0.25	0.00	0.75	-0.122559	0.052246	0.980957	-0.910000	-2.170000	1.470000	706.00	-0.19	-0.11
1.38	1.50	1.75	0.25	1.00	0.75	0.00	0.00	0.00	0.00	0.00	0.00	0.00	0.00	0.00	0.00	0.00	1.291504	0.676758	1.043457	-21.070000	16.100000	-34.720001	54.00	-0.33	-0.05	8.50	10.00	6.00	9.25	7.50	8.50	1.75	5.25	1.50	0.75	0.75	0.50	2.75	0.25	0.00	0.75	-0.122070	0.055664	0.983887	-0.770000	-1.330000	1.260000	700.00	-0.18	-0.11
1.39	1.25	2.25	0.50	0.75	0.75	0.00	0.00	0.00	0.00	0.00	0.00	0.00	0.00	0.00	0.00	0.00	1.291504	0.676758	1.043457	-21.070000	16.100000	-34.720001	56.00	-0.34	-0.05	8.00	9.50	6.00	9.00	7.25	8.50	1.75	5.25	1.75	0.75	0.75	1.00	2.75	0.25	0.00	1.00	-0.126953	0.024902	1.011230	-0.630000	-0.770000	1.330000	695.00	-0.17	-0.11
1.40	1.50	2.25	0.25	0.75	0.75	0.00	0.00	0.00	0.00	0.00	0.00	0.00	0.00	0.00	0.00	0.00	1.185059	0.519043	0.989746	-3.360000	-19.389999	-16.590000	55.00	-0.34	-0.05	7.50	9.00	5.75	8.75	7.25	8.50	1.75	5.50	1.50	1.25	0.75	0.75	3.00	0.50	0.00	1.00	-0.126953	0.046875	0.979004	-0.490000	-0.630000	1.190000	687.00	-0.17	-0.11
1.41	1.25	2.00	0.25	0.75	0.75	0.00	0.00	0.00	0.00	0.00	0.00	0.00	0.00	0.00	0.00	0.00	1.095703	0.479004	1.052246	13.930000	-35.490002	-8.890000	51.00	-0.34	-0.05	7.00	8.50	5.50	8.50	7.25	8.50	2.00	5.75	1.75	1.25	1.00	1.00	3.50	0.50	0.25	1.25	-0.118652	0.055664	0.977539	-0.140000	-0.560000	1.120000	696.00	-0.15	-0.12
1.42	1.25	2.00	0.00	1.00	0.50	0.00	0.00	0.00	0.00	0.00	0.00	0.00	0.00	0.00	0.00	0.00	0.973145	0.426758	1.141113	28.280001	-52.639999	-0.070000	48.00	0.00	0.00	6.00	7.75	5.00	8.00	7.00	8.50	2.00	6.25	2.00	1.25	1.50	0.75	3.50	0.50	0.25	1.25	-0.124023	0.044922	0.986816	-0.000000	-0.140000	0.910000	679.00	-0.14	-0.12
1.43	1.50	1.50	0.25	0.75	0.50	0.00	0.00	0.00	0.00	0.00	0.00	0.00	0.00	0.00	0.00	0.00	0.842773	0.366211	1.169434	34.720001	-69.720001	9.380000	46.00	0.00	0.00	5.50	7.00	4.50	7.75	7.00	8.50	2.00	6.25	2.25	1.25	1.25	1.00	4.00	0.50	0.50	1.50	-0.135254	0.044922	0.977051	-0.070000	0.560000	1.120000	670.00	-0.12	-0.12
1.44	1.25	1.50	0.25	0.50	0.50	0.00	0.00	0.00	0.00	0.00	0.00	0.00	0.00	0.00	0.00	0.00	0.681152	0.327148	1.162109	35.770000	-84.699997	18.340000	41.00	0.00	0.00	5.25	6.75	4.25	7.50	7.00	8.75	2.25	6.50	2.25	1.50	1.25	1.25	4.25	0.75	0.25	1.75	-0.127930	0.065430	0.985840	0.140000	0.980000	0.980000	678.00	-0.11	-0.13
1.45	1.25	1.75	0.00	0.50	0.75	0.00	0.00	0.00	0.00	0.00	0.00	0.00	0.00	0.00	0.00	0.00	0.519043	0.296875	1.115723	34.860001	-95.269997	25.270000	43.00	0.00	0.00	4.50	6.00	3.50	7.00	6.75	8.50	2.25	6.75	2.50	1.50	1.50	1.75	4.50	1.00	0.25	1.75	-0.137207	0.054688	0.982910	0.070000	1.330000	0.490000	663.00	-0.09	-0.13
1.46	1.25	1.75	0.00	0.50	0.75	0.00	0.00	0.00	0.00	0.00	0.00	0.00	0.00	0.00	0.00	0.00	0.360840	0.269043	1.055664	31.710001	-100.099998	29.610001	43.00	0.00	0.00	3.75	5.25	3.25	6.75	6.75	8.50	2.25	6.75	2.50	1.50	1.75	1.75	4.75	1.00	0.25	2.00	-0.137207	0.052246	0.964844	0.420000	2.100000	0.280000	649.00	-0.08	-0.14
1.47	1.25	1.50	0.25	0.75	0.50	0.00	0.00	0.00	0.00	0.00	0.00	0.00	0.00	0.00	0.00	0.00	0.206055	0.258789	0.966309	26.250000	-98.769997	32.060001	43.00	0.00	0.00	3.50	5.00	2.50	6.25	6.50	8.50	2.25	7.00	3.00	2.00	1.75	2.00	5.00	1.25	0.25	2.25	-0.102539	0.003906	0.987793	0.980000	2.660000	0.490000	652.00	-0.06	-0.14
1.48	1.00	1.50	0.00	0.25	0.50	0.00	0.00	0.00	0.00	0.00	0.00	0.00	0.00	0.00	0.00	0.00	0.064941	0.238281	0.856934	18.200001	-89.320000	32.830002	32.00	0.00	0.00	2.75	5.00	2.50	6.00	6.50	8.50	2.50	7.25	3.00	2.00	2.00	2.25	5.00	1.50	0.50	2.25	-0.137207	0.058105	0.972656	1.400000	3.150000	1.190000	659.00	-0.05	-0.14
1.49	1.00	1.50	0.00	0.25	0.50	0.00	0.00	0.00	0.00	0.00	0.00	0.00	0.00	0.00	0.00	0.00	-0.059570	0.235840	0.818359	8.400000	-72.519997	32.619999	32.00	0.00	0.00	2.75	4.50	2.00	5.50	6.00	8.50	2.50	7.25	3.50	2.00	2.25	2.00	5.25	1.75	0.75	2.50	-0.144043	0.074219	1.004395	1.960000	3.430000	1.050000	652.00	-0.04	-0.14
1.50	1.00	1.50	0.00	0.25	0.50	0.00	0.00	0.00	0.00	0.00	0.00	0.00	0.00	0.00	0.00	0.00	-0.155273	0.282715	0.921387	4.550000	-53.130001	33.670002	32.00	0.00	0.00	2.00	3.75	2.00	5.50	6.00	8.50	2.50	7.50	3.50	2.00	2.50	2.50	6.00	2.00	0.50	2.50	-0.132812	0.078613	0.996094	2.170000	4.060000	1.050000	655.00	-0.02	-0.14
1.51	1.00	1.50	0.00	0.25	0.50	0.00	0.00	0.00	0.00	0.00	0.00	0.00	0.00	0.00	0.00	0.00	-0.216797	0.352539	1.112305	11.760000	-40.110001	37.170002	32.00	0.00	0.00	2.00	3.25	1.75	5.25	5.50	8.25	2.50	7.50	3.75	2.00	2.50	2.50	6.50	2.25	0.75	2.75	-0.153809	0.043945	0.971680	2.800000	4.270000	1.260000	651.00	-0.01	-0.14
1.52	1.00	1.25	0.00	0.25	0.50	0.00	0.00	0.00	0.00	0.00	0.00	0.00	0.00	0.00	0.00	0.00	-0.289062	0.364258	1.188477	27.719999	-32.830002	42.349998	30.00	0.00	0.00	1.50	2.50	1.75	5.00	5.25	8.25	2.50	7.75	4.50	2.50	3.00	2.75	6.75	2.50	1.00	3.00	-0.108398	0.038086	0.993652	3.220000	4.620000	1.050000	668.00	0.01	-0.14
1.53	0.75	1.50	0.25	0.00	0.50	0.00	0.00	0.00	0.00	0.00	0.00	0.00	0.00	0.00	0.00	0.00	-0.342285	0.321289	1.328613	39.060001	-29.960001	48.020000	30.00	0.00	0.00	1.50	2.50	1.25	5.00	5.00	8.25	2.50	7.75	4.50	2.75	3.25	3.00	7.00	2.75	1.00	3.25	-0.151855	0.048828	1.000977	4.060000	5.040000	1.470000	673.00	0.02	-0.14
1.54	1.00	1.25	0.00	0.00	0.50	0.00	0.00	0.00	0.00	0.00	0.00	0.00	0.00	0.00	0.00	0.00	-0.374512	0.272461	1.485840	42.070000	-37.939999	56.000000	27.00	0.00	0.00	1.50	2.25	1.25	5.00	4.50	8.00	2.50	7.75	5.00	3.25	3.50	3.50	7.50	3.25	1.00	3.25	-0.093262	-0.042480	0.970215	4.760000	5.530000	2.170000	691.00	0.03	-0.14
1.55	0.50	0.75	0.25	0.50	0.50	0.00	0.00	0.00	0.00	0.00	0.00	0.00	0.00	0.00	0.00	0.00	-0.437500	0.264648	1.409180	42.980000	-50.049999	64.120003	26.00	0.00	0.00	1.25	2.00	1.00	4.50	4.00	8.00	2.25	7.75	5.25	3.50	4.00	4.00	7.75	3.50	1.00	3.75	-0.158691	0.056152	0.965820	4.900000	6.090000	1.820000	692.00	0.05	-0.14
1.56	0.75	1.00	0.00	0.25	0.50	0.00	0.00	0.00	0.00	0.00	0.00	0.00	0.00	0.00	0.00	0.00	-0.445801	0.248535	1.560547	48.369999	-66.220001	74.340004	25.00	0.00	0.00	1.00	2.00	0.75	4.50	3.50	7.50	2.50	7.75	5.75	3.50	4.50	4.50	8.00	3.75	1.25	4.50	0.021973	-0.040527	0.979492	4.690000	7.490000	1.190000	708.00	0.06	-0.14
1.57	0.75	1.00	0.00	0.00	0.50	0.00	0.00	0.00	0.00	0.00	0.00	0.00	0.00	0.00	0.00	0.00	-0.513184	0.192383	1.545410	52.290001	-85.889999	84.980003	22.00	0.00	0.00	1.00	2.00	1.00	4.00	2.75	7.75	2.25	7.75	5.75	4.00	5.75	4.75	8.25	4.25	1.25	4.75	-0.083496	0.033203	0.980957	4.690000	9.450000	1.260000	724.00	0.07	-0.14
1.58	0.75	1.25	0.00	0.25	0.50	0.00	0.00	0.00	0.00	0.00	0.00	0.00	0.00	0.00	0.00	0.00	-0.591797	0.101562	1.463867	47.459999	-104.860001	94.709999	27.00	0.00	0.00	0.75	1.25	0.50	4.00	2.50	7.00	2.25	7.75	6.25	4.50	6.50	5.50	8.25	4.75	1.25	4.75	-0.144531	0.037598	0.990234	3.990000	11.690000	0.070000	730.00	0.09	-0.14
1.59	0.75	0.75	0.00	0.00	0.50	0.00	0.00	0.00	0.00	0.00	0.00	0.00	0.00	0.00	0.00	0.00	-0.669922	0.050781	1.306641	33.320000	-118.020004	102.480003	20.00	0.00	0.00	0.75	1.00	0.50	3.50	1.75	6.75	2.25	7.75	6.75	5.00	6.75	6.00	8.50	5.00	1.50	5.00	-0.148438	0.042969	0.972656	3.780000	13.790000	-0.490000	739.00	0.11	-0.14
1.60	0.50	1.00	0.00	0.00	0.50	0.00	0.00	0.00	0.00	0.00	0.00	0.00	0.00	0.00	0.00	0.00	-0.865234	0.002930	0.993164	2.310000	-124.320000	114.590004	20.00	0.00	0.00	0.25	0.25	0.50	3.50	1.25	6.25	2.00	7.50	7.25	5.00	7.50	6.25	8.50	5.25	1.50	5.25	-0.159668	0.096680	1.004883	4.760000	15.890000	-1.400000	729.00	0.12	-0.14
1.61	0.75	0.75	0.25	0.00	0.50	0.00	0.00	0.00	0.00	0.00	0.00	0.00	0.00	0.00	0.00	0.00	-0.974121	-0.018066	0.892090	-8.190000	-118.930000	117.949997	23.00	0.00	0.00	0.50	0.75	0.50	3.00	1.00	6.00	2.00	7.50	7.50	6.25	8.00	7.50	8.75	6.00	1.50	5.50	-0.183105	0.082520	0.997070	5.530000	17.990000	-2.520000	770.00	0.13	-0.13
1.62	0.75	1.00	0.00	0.25	0.50	0.00	0.00	0.00	0.00	0.00	0.00	0.00	0.00	0.00	0.00	0.00	-1.100098	0.004395	0.849121	-15.610000	-112.699997	118.650002	25.00	0.00	0.00	0.50	0.50	0.00	3.00	0.75	5.50	2.00	7.25	7.75	7.00	8.50	7.75	8.75	6.75	1.75	5.75	-0.160645	0.062500	1.020508	7.280000	20.790001	-2.940000	780.00	0.15	-0.12
1.63	0.50	0.50	0.00	0.00	0.50	0.00	0.00	0.00	0.00	0.00	0.00	0.00	0.00	0.00	0.00	0.00	-1.221680	0.032227	0.814941	-18.620001	-108.919998	116.970001	15.00	0.00	0.00	0.25	0.75	0.25	3.00	0.50	5.25	1.75	7.00	8.25	7.50	8.50	8.00	9.00	7.50	1.75	6.00	-0.188477	0.062012	1.016113	9.590000	25.900000	-3.290000	793.00	0.15	-0.12
1.64	0.50	0.75	0.00	0.00	0.50	0.00	0.00	0.00	0.00	0.00	0.00	0.00	0.00	0.00	0.00	0.00	-1.331543	0.017090	0.670410	-20.580000	-106.400002	112.910004	18.00	0.00	0.00	0.25	0.50	0.25	2.00	0.25	4.75	1.75	6.75	8.25	7.75	9.00	8.25	9.00	7.75	2.00	6.25	-0.198242	0.057129	0.995117	13.230000	33.880001	-3.710000	785.00	0.17	-0.12
1.65	0.50	0.75	0.25	0.00	0.50	0.00	0.00	0.00	0.00	0.00	0.00	0.00	0.00	0.00	0.00	0.00	-1.448730	0.004395	0.420898	-23.730000	-98.489998	106.610001	20.00	0.00	0.00	0.25	0.25	0.25	2.25	0.00	4.00	1.75	6.50	8.50	8.25	9.25	8.50	9.25	8.25	1.75	6.25	-0.191895	0.074707	0.978027	18.059999	42.279999	-4.200000	788.00	0.17	-0.11
1.66	0.50	0.75	0.25	0.00	0.50	0.00	0.00	0.00	0.00	0.00	0.00	0.00	0.00	0.00	0.00	0.00	-1.609863	-0.005859	0.186523	-26.110001	-80.709999	98.209999	20.00	0.00	0.00	0.50	0.50	0.00	2.00	0.00	3.50	1.50	6.25	8.75	8.75	9.25	8.75	9.25	8.75	2.25	6.75	-0.222168	0.078125	0.974121	22.330000	50.189999	-3.850000	798.00	0.18	-0.11
1.67	0.50	1.00	0.00	0.00	0.50	0.00	0.00	0.00	0.00	0.00	0.00	0.00	0.00	0.25	0.00	0.00	-1.794434	-0.044434	0.017090	-21.700001	-56.209999	88.480003	22.00	0.00	0.00	0.25	0.50	0.00	2.00	0.00	3.00	1.50	5.75	9.25	8.75	10.00	9.00	9.50	9.50	2.25	7.00	-0.209961	0.096191	0.995605	31.780001	64.680000	-7.210000	809.00	0.19	-0.10
1.68	0.50	0.75	0.00	0.00	0.50	0.00	0.00	0.00	0.00	0.00	0.00	0.00	0.00	0.00	0.00	0.00	-1.957031	-0.126953	-0.111816	-10.710000	-27.440001	79.169998	18.00	0.00	0.00	0.25	0.50	0.00	1.75	0.00	2.75	1.25	5.50	9.25	9.00	10.25	9.25	9.50	10.00	2.50	7.00	-0.247559	0.062012	0.984863	35.700001	68.180000	-4.620000	811.00	0.20	-0.10
1.69	0.50	0.50	0.00	0.00	0.50	0.00	0.00	0.00	0.00	0.00	0.00	0.00	0.00	0.00	0.00	0.00	-2.047852	-0.230957	-0.133789	-2.660000	4.760000	71.050003	15.00	0.00	0.00	0.25	0.25	0.00	1.75	0.00	2.25	1.25	5.25	9.50	9.00	10.50	9.75	9.75	10.75	2.50	7.25	-0.181152	0.084473	0.946289	33.180000	70.980003	-3.080000	820.00	0.20	-0.10
1.70	0.50	1.00	0.00	0.25	0.50	0.00	0.00	0.00	0.00	0.00	0.00	0.00	0.00	0.00	0.00	0.00	-2.025879	-0.277832	-0.009766	-2.870000	36.750000	63.420002	23.00	0.00	0.00	0.25	0.25	0.00	1.75	0.00	1.75	1.00	4.75	9.50	9.25	10.75	9.75	9.75	12.00	2.50	7.50	-0.172852	0.111816	1.039062	29.120001	75.599998	-2.590000	821.00	0.21	-0.09
1.71	0.75	0.75	0.00	0.00	0.75	0.00	0.00	0.00	0.00	0.00	0.00	0.00	0.00	0.00	0.00	0.00	-1.869629	-0.253906	0.144043	-6.860000	62.510002	54.529999	23.00	0.00	0.00	0.25	0.00	0.00	1.75	0.00	1.75	1.00	4.50	9.75	9.25	11.00	10.00	9.75	12.25	2.75	8.00	-0.321289	0.084961	1.026855	33.740002	88.830002	-2.450000	830.00	0.22	-0.09
1.72	1.00	1.50	0.25	0.25	0.50	0.00	0.00	0.00	0.00	0.00	0.00	0.00	0.00	0.00	0.00	0.00	-1.217285	1.070801	-1.146484	-8.120000	91.910004	31.990000	35.00	0.00	0.00	0.25	0.00	0.00	1.25	0.00	1.00	0.75	3.75	9.75	9.25	11.25	10.25	10.00	13.25	3.00	8.25	-0.269043	0.163086	1.032227	36.259998	105.840004	-2.940000	822.00	0.23	-0.08
1.73	2.00	3.00	0.50	1.50	0.75	0.00	0.00	0.00	0.00	0.00	0.00	0.00	0.00	0.00	0.00	0.00	0.442383	-0.313965	0.985352	-25.620001	165.690002	-5.110000	79.00	-0.34	-0.06	0.25	0.00	0.00	1.25	0.00	1.00	0.75	3.50	9.50	9.25	11.00	10.25	10.00	14.25	3.50	8.50	-0.326660	0.136719	1.033203	39.270000	122.360001	-4.340000	827.00	0.23	-0.08
1.74	3.25	4.75	1.00	2.25	0.50	0.00	0.00	0.00	0.00	0.00	0.00	0.00	0.00	0.00	0.00	0.00	0.464844	0.162109	1.528809	-69.790001	139.930008	-34.860001	119.00	-0.36	-0.07	0.00	0.00	0.00	0.75	0.00	0.75	0.50	2.75	9.50	9.25	11.00	10.00	10.00	15.25	3.75	9.00	-0.397949	0.114746	1.025391	49.070000	138.600006	-5.460000	812.00	0.25	-0.07
1.75	4.25	7.25	1.25	3.00	0.75	0.00	0.00	0.00	0.00	0.00	0.00	0.00	0.00	0.00	0.00	0.00	0.217285	0.307617	1.145508	-51.240002	118.930000	-36.750000	166.00	-0.36	-0.07	0.25	0.00	0.00	0.75	0.00	0.50	0.50	2.50	9.25	9.00	10.75	10.25	9.75	16.00	4.50	9.25	-0.395508	0.119141	1.080078	49.209999	161.419998	-6.860000	816.00	0.25	-0.07
1.76	6.50	8.50	1.25	3.25	0.75	0.00	0.00	0.00	0.00	0.00	0.00	0.00	0.00	0.00	0.00	0.00	-0.374023	0.408691	0.450684	-35.349998	147.839996	-37.590000	203.00	-0.37	-0.06	0.25	0.00	0.00	1.00	0.00	0.50	0.25	2.25	9.00	9.00	10.75	10.00	9.50	17.00	4.25	9.50	-0.432617	0.196289	1.076660	47.459999	182.559998	-8.260000	810.00	0.25	-0.07
1.77	8.75	11.25	1.50	4.25	0.75	0.00	0.00	0.00	0.00	0.00	0.00	0.00	0.00	0.00	0.00	0.00	-0.389648	0.418945	1.478027	-24.710001	184.729996	-21.420000	266.00	-0.37	-0.06	0.00	0.00	0.00	0.50	0.00	0.50	0.25	2.00	9.00	8.50	10.50	9.75	9.25	17.75	5.00	10.00	-0.418457	0.193359	1.047363	42.630001	197.960007	-11.900000	803.00	0.26	-0.06
1.78	10.50	13.50	2.25	5.00	1.00	0.00	0.00	0.00	0.00	0.00	0.00	0.00	0.00	0.00	0.00	0.00	-0.497559	0.203125	1.960938	-17.219999	182.839996	-2.730000	324.00	-0.37	-0.06	0.00	0.00	0.00	0.75	0.00	0.50	0.25	1.75	8.75	8.50	10.25	9.25	8.75	18.50	5.25	10.25	-0.718262	0.107910	1.154297	34.439999	212.449997	-19.250000	796.00	0.27	-0.06
1.79	14.00	15.50	2.50	5.50	1.25	0.75	0.00	0.00	0.00	0.00	0.00	0.00	0.00	0.00	0.00	0.00	-0.623047	-0.450195	1.711914	-17.639999	168.139999	-9.380000	398.00	-0.37	-0.05	0.00	0.00	0.00	0.75	0.00	0.00	0.25	1.25	8.25	8.25	9.75	9.00	8.25	18.75	5.25	10.25	-0.444336	0.214355	1.148438	25.969999	233.240005	-24.080000	764.00	0.27	-0.05
1.80	15.00	17.50	3.25	7.00	1.50	1.25	0.00	0.00	0.00	0.00	0.00	0.00	0.00	0.00	0.00	0.00	-0.386719	-0.132812	1.921387	-19.250000	157.779999	-26.670000	459.00	-0.36	-0.06	0.00	0.00	0.00	0.50	0.00	0.00	0.25	1.25	8.00	8.00	9.25	8.25	7.50	19.25	5.50	10.25	-0.519043	0.198242	1.019043	16.799999	254.940002	-27.230000	743.00	0.28	-0.05
1.81	16.00	17.75	3.25	7.75	1.75	2.25	0.00	0.25	0.00	0.00	0.00	0.00	0.25	0.00	0.00	0.00	-0.325684	0.405762	1.522949	2.590000	97.720001	-24.150000	500.00	-0.35	-0.07	0.00	0.00	0.00	0.00	0.00	0.00	0.00	1.00	7.50	7.75	8.75	7.50	7.00	19.00	5.50	10.00	-0.451660	0.347656	1.189453	3.710000	272.299988	-32.480000	700.00	0.29	-0.04
1.82	15.75	17.75	3.25	8.25	2.00	2.50	0.00	0.50	0.00	0.00	0.00	0.00	0.00	0.00	0.00	0.00	-0.321289	0.378906	1.492188	-26.600000	66.290001	-12.390000	510.00	-0.35	-0.07	0.00	0.00	0.00	0.00	0.00	0.00	0.00	1.00	7.00	7.50	8.00	7.00	6.00	18.75	5.50	9.75	-0.652832	0.268555	1.093262	-3.290000	296.239990	-38.500000	665.00	0.29	-0.04
1.83	15.75	17.50	3.50	8.25	2.00	3.00	0.00	0.50	0.00	0.00	0.00	0.00	0.00	0.00	0.00	0.00	-0.220215	0.201172	1.030273	-32.759998	47.599998	-2.030000	516.00	-0.34	-0.07	0.00	0.00	0.00	0.00	0.00	0.00	0.00	0.50	6.25	6.75	7.50	5.50	5.50	18.00	5.25	9.00	-0.725098	0.195312	1.240723	-20.860001	315.769989	-46.340000	601.00	0.30	-0.03
1.84	15.25	17.25	3.50	8.75	2.00	3.00	0.00	0.75	0.00	0.00	0.00	0.00	0.25	0.00	0.00	0.00	-0.123047	0.092285	0.940430	-33.740002	47.529999	1.680000	520.00	-0.34	-0.08	0.00	0.00	0.00	0.00	0.00	0.00	0.00	0.25	5.50	6.75	6.25	5.00	5.00	16.75	4.75	8.25	-0.898438	0.283203	1.359375	-38.430000	363.579987	-54.599998	545.00	0.30	-0.02
1.85	15.25	17.25	3.25	8.75	2.00	3.25	0.00	0.75	0.00	0.00	0.00	0.00	0.25	0.00	0.00	0.00	-0.170898	0.133789	1.000488	-33.250000	45.570000	1.120000	520.00	-0.34	-0.08	0.00	0.00	0.00	0.00	0.00	0.00	0.00	0.25	5.00	6.00	5.50	4.00	4.00	15.00	4.00	7.25	-0.898438	0.283203	1.359375	-38.430000	363.579987	-54.599998	475.00	0.30	-0.02
1.86	15.00	16.75	3.25	9.25	2.25	4.00	0.25	1.00	0.00	0.00	0.00	0.00	0.00	0.25	0.00	0.00	-0.183105	0.135742	0.999512	-34.439999	39.340000	1.400000	536.00	-0.33	-0.08	0.00	0.00	0.00	0.00	0.00	0.00	0.25	0.25	4.25	5.25	4.75	3.50	3.50	13.00	3.50	6.25	-0.963867	0.314941	1.673828	-39.900002	377.510010	-55.160000	416.00	0.30	-0.02
1.87	14.00	17.25	3.25	9.00	2.00	4.00	0.25	1.00	0.00	0.00	0.00	0.00	0.25	0.00	0.00	0.00	-0.169434	0.132812	0.980957	-35.630001	35.630001	1.680000	525.00	-0.33	-0.09	0.00	0.00	0.00	0.00	0.00	0.00	0.25	0.00	3.00	5.25	3.50	3.00	2.50	10.50	2.50	5.50	-1.202637	0.300781	2.113281	12.250000	373.029999	-43.610001	333.00	0.30	-0.01
1.88	14.50	17.50	3.25	9.50	2.25	4.00	0.25	1.00	0.00	0.00	0.00	0.00	0.25	0.00	0.00	0.00	-0.158203	0.119629	0.953613	-37.799999	32.689999	1.050000	541.00	-0.33	-0.09	0.00	0.00	0.00	0.00	0.00	0.00	0.25	0.00	2.50	4.25	2.75	2.50	2.00	8.50	2.50	4.75	-1.165527	0.134766	2.102539	38.990002	359.100006	-40.529999	278.00	0.30	-0.01
1.89	14.75	17.75	3.25	9.25	2.25	4.25	0.25	1.00	0.00	0.00	0.00	0.00	0.25	0.00	0.00	0.00	-0.179688	0.087891	0.961426	-42.349998	30.590000	-0.210000	546.00	-0.33	-0.09	0.00	0.00	0.00	0.00	0.00	0.00	0.25	0.00	2.50	3.25	3.00	2.00	2.00	6.75	2.00	3.25	-1.114746	0.324219	1.995605	46.340000	344.329987	-41.790001	236.00	0.30	-0.01
1.90	15.50	17.50	3.25	9.75	2.50	5.25	0.25	1.25	0.00	0.00	0.00	0.00	0.25	0.25	0.00	0.00	-0.148926	0.103516	0.954102	-47.810001	30.870001	-1.750000	576.00	-0.32	-0.09	0.00	0.00	0.00	0.00	0.00	0.25	0.25	0.00	2.25	3.00	2.00	1.50	1.25	5.25	1.50	2.25	-0.862793	0.450195	1.681641	58.029999	336.489990	-49.070000	187.00	0.29	0.01
1.91	15.25	17.25	3.75	9.75	2.50	5.50	0.25	1.50	0.00	0.00	0.00	0.00	0.25	0.00	0.00	0.00	-0.162598	0.042480	0.973145	-52.639999	28.980000	-2.940000	581.00	-0.32	-0.09	0.00	0.00	0.00	0.00	0.00	0.25	0.25	0.00	1.25	2.25	1.50	1.50	1.50	3.00	1.00	1.50	-0.191895	0.409180	1.479980	84.980003	323.890015	-60.410000	135.00	0.27	-0.04
1.92	14.75	17.50	3.75	9.75	2.75	5.75	0.50	1.50	0.00	0.00	0.00	0.00	0.50	0.00	0.00	0.00	-0.163574	0.058594	0.975098	-54.389999	26.180000	-4.130000	590.00	-0.31	-0.09	0.00	0.00	0.00	0.00	0.00	0.25	0.25	0.00	1.00	1.50	1.25	0.75	1.00	1.75	0.75	1.25	0.082520	0.355957	1.087891	94.919998	289.869995	-79.029999	94.00	0.26	-0.03
1.93	14.75	17.25	4.00	9.75	3.25	6.25	0.50	1.75	0.25	0.00	0.00	0.00	0.75	0.00	0.00	0.00	-0.187500	0.056641	1.018066	-55.790001	15.750000	-5.250000	611.00	-0.30	-0.09	0.00	0.00	0.25	0.00	0.00	0.00	0.50	0.00	1.25	1.75	0.75	0.75	0.75	1.00	0.25	0.75	0.858398	0.014160	0.997070	86.730003	250.809998	-99.820000	82.00	0.23	0.02
1.94	14.50	17.25	4.00	10.00	3.50	6.75	0.50	2.00	0.00	0.00	0.00	0.00	0.75	0.25	0.00	0.25	-0.177246	0.033203	0.951660	-49.139999	7.840000	-5.180000	623.00	-0.29	-0.10	0.00	0.00	0.25	0.00	0.00	0.00	0.50	0.00	1.00	1.50	1.00	0.25	0.50	0.50	0.25	0.75	0.167969	0.549316	1.738281	56.630001	191.729996	-145.740005	67.00	0.22	0.03
1.95	14.50	16.75	4.50	10.25	4.00	7.25	0.50	2.25	0.25	0.25	0.00	0.00	0.75	0.25	0.00	0.25	-0.194824	0.045410	1.032227	-41.930000	1.680000	-5.180000	647.00	-0.28	-0.10	0.00	0.25	0.00	0.00	0.00	0.00	0.50	0.00	1.00	1.25	0.75	0.25	0.50	0.25	0.25	0.50	0.410645	0.489746	2.977051	96.040001	48.160000	-151.479996	58.00	0.21	0.03
1.96	14.00	16.75	4.50	10.50	5.00	7.75	0.75	2.50	0.50	0.25	0.00	0.00	0.75	0.50	0.00	0.25	-0.197754	0.033691	0.996094	-30.590000	-2.800000	-4.830000	674.00	-0.27	-0.09	0.00	0.25	0.25	0.00	0.00	0.00	0.50	0.00	0.50	1.00	0.50	0.50	0.25	0.25	0.25	0.50	0.517090	-0.071777	1.651367	120.050003	-52.220001	-167.580002	50.00	0.00	0.00
1.97	13.50	16.00	4.50	10.50	5.25	8.00	0.75	2.75	0.50	0.25	0.00	0.00	1.25	0.25	0.00	0.25	-0.173828	0.072754	0.941895	-20.090000	-3.640000	-4.760000	674.00	-0.27	-0.10	0.00	0.25	0.25	0.00	0.00	0.00	0.50	0.00	0.25	1.25	0.50	0.50	0.50	0.00	0.25	0.50	0.440430	-0.085449	1.213379	90.790001	-110.599998	-187.809998	49.00	0.00	0.00
1.98	13.25	15.50	4.75	10.50	5.75	8.00	0.75	3.50	0.75	0.25	0.00	0.25	1.00	0.25	0.00	0.50	-0.162598	0.087891	0.917480	-13.790000	-2.450000	-4.760000	691.00	-0.25	-0.10	0.00	0.00	0.00	0.00	0.00	0.00	0.50	0.00	0.50	0.75	0.75	0.25	0.25	0.00	0.00	0.50	0.301270	0.032227	0.874512	56.139999	-139.369995	-195.930008	37.00	0.00	0.00
1.99	12.75	15.00	4.75	10.50	6.25	8.25	0.75	4.00	0.75	0.50	0.25	0.25	1.25	0.50	0.00	0.50	-0.194824	0.002441	0.965332	-11.270000	-1.120000	-4.690000	707.00	-0.24	-0.11	0.00	0.50	0.25	0.25	0.00	0.25	0.50	0.00	0.50	0.50	0.25	0.25	0.25	0.00	0.00	0.50	0.261230	0.210449	0.802734	32.759998	-152.389999	-195.860001	42.00	0.00	0.00
2.00	12.00	14.75	5.00	10.00	6.50	8.50	1.00	4.25	1.00	0.50	0.25	0.25	1.50	0.75	0.00	0.50	-0.152344	0.023438	0.956055	-10.010000	-0.140000	-4.410000	715.00	-0.23	-0.10	0.00	0.25	0.00	0.00	0.00	0.00	0.50	0.00	0.50	0.75	0.50	0.25	0.00	0.00	0.00	0.25	0.261230	0.356934	0.833984	24.219999	-166.320007	-186.479996	33.00	0.00	0.00
2.01	11.25	13.75	4.75	9.75	7.00	8.50	1.00	5.00	1.25	0.25	0.50	0.25	1.75	0.50	0.00	0.75	-0.172363	0.020020	0.955566	-8.540000	0.490000	-4.270000	714.00	-0.22	-0.11	0.00	0.25	0.00	0.00	0.00	0.00	0.50	0.00	0.50	0.75	0.25	0.00	0.25	0.00	0.00	0.50	0.282227	0.467285	0.930664	20.090000	-188.229996	-168.070007	32.00	0.00	0.00
2.02	10.25	13.25	5.00	9.75	7.00	8.50	1.00	5.25	1.50	0.50	0.50	0.50	1.75	1.00	0.00	0.75	-0.171875	0.027344	0.963867	-7.770000	2.170000	-3.710000	718.00	-0.20	-0.11	0.00	0.25	0.00	0.00	0.00	0.00	0.50	0.00	0.75	0.50	0.25	0.00	0.00	0.00	0.00	0.00	0.279297	0.527832	0.969238	10.920000	-215.110001	-143.430008	28.00	0.00	0.00
2.03	9.50	12.50	4.50	9.25	7.25	8.75	1.25	5.50	1.50	0.75	0.75	0.50	1.75	1.25	0.00	0.75	-0.163574	0.030762	0.962891	-3.640000	5.530000	-2.870000	713.00	-0.19	-0.11	0.00	0.00	0.25	0.00	0.00	0.00	0.50	0.00	0.50	0.75	0.25	0.00	0.25	0.00	0.00	0.25	0.277832	0.583984	0.937500	-1.050000	-239.820007	-114.660004	31.00	0.00	0.00
2.04	8.75	11.50	4.50	9.00	7.50	9.00	1.25	5.75	1.75	0.75	0.75	0.75	2.00	1.25	0.00	1.00	-0.180176	0.038574	0.967285	-2.940000	7.070000	-2.100000	712.00	-0.18	-0.11	0.00	0.25	0.25	0.25	0.00	0.00	0.50	0.00	0.50	0.50	0.25	0.00	0.25	0.00	0.00	0.25	0.248535	0.638672	0.881348	-6.370000	-258.440002	-85.330002	33.00	0.00	0.00
2.05	7.75	10.50	4.25	8.50	7.50	8.75	1.25	6.00	2.25	0.75	0.75	1.00	2.50	1.25	0.25	1.00	-0.161133	0.100586	0.971191	-2.240000	8.260000	-2.030000	701.00	-0.16	-0.12	0.00	0.00	0.25	0.00	0.00	0.00	0.50	0.00	0.25	0.75	0.00	0.00	0.00	0.00	0.00	0.25	0.200195	0.672852	0.887207	4.900000	-272.369995	-58.170002	23.00	0.00	0.00
2.06	7.25	9.75	3.50	8.50	7.50	9.00	1.50	6.00	2.25	1.00	1.00	1.25	2.50	1.50	0.25	1.25	-0.159180	0.028320	0.975098	-1.400000	10.010000	-2.240000	699.00	-0.15	-0.12	0.00	0.00	0.25	0.00	0.00	0.00	0.50	0.00	0.50	0.50	0.00	0.00	0.00	0.00	0.00	0.25	0.006836	0.539062	0.918457	71.050003	-296.450012	-17.219999	23.00	0.00	0.00
2.07	6.50	8.75	3.50	8.00	7.50	8.75	1.50	6.25	2.50	1.00	1.00	1.25	2.75	1.75	0.25	1.25	-0.181152	0.024414	0.983887	-0.560000	11.060000	-2.240000	685.00	-0.13	-0.12	0.00	0.25	0.00	0.00	0.00	0.00	0.50	0.00	0.25	0.50	0.25	0.00	0.00	0.00	0.00	0.25	-0.140625	0.378418	0.957520	103.110001	-303.380005	-5.040000	22.00	0.00	0.00
2.08	5.75	7.75	3.25	7.50	7.50	8.75	1.75	6.50	2.50	1.00	1.25	1.25	2.75	1.75	0.25	1.25	-0.177734	0.029297	0.969238	-0.000000	12.600000	-2.520000	670.00	-0.12	-0.12	0.00	0.00	0.00	0.00	0.00	0.00	0.25	0.00	0.25	0.25	0.00	0.00	0.00	0.00	0.00	0.25	-0.322266	0.239258	1.013672	121.520004	-305.619995	3.640000	11.00	0.00	0.00
2.09	5.25	7.25	2.75	7.00	7.25	8.50	1.75	6.25	2.75	1.50	1.25	1.50	3.00	2.00	0.50	1.50	-0.180664	0.031738	0.961426	0.210000	13.580000	-2.800000	659.00	-0.10	-0.12	0.00	0.00	0.00	0.00	0.00	0.00	0.50	0.00	0.50	0.75	0.25	0.00	0.00	0.00	0.00	0.25	-0.478027	0.150879	1.168457	123.830002	-304.850006	12.040000	26.00	0.00	0.00
2.10	4.75	6.50	2.25	6.75	7.00	8.50	1.50	6.50	2.75	1.50	1.75	1.50	3.00	2.25	0.25	1.50	-0.193359	0.028320	0.964844	0.560000	14.350000	-2.940000	641.00	-0.09	-0.12	0.00	0.00	0.00	0.00	0.00	0.00	0.50	0.00	0.25	0.50	0.25	0.00	0.00	0.00	0.00	0.25	-0.567871	0.118164	1.293457	110.879997	-305.059998	21.980000	20.00	0.00	0.00
2.11	4.25	6.00	2.25	6.25	7.00	8.25	1.50	6.50	3.00	1.50	1.75	1.75	3.25	2.75	0.25	1.50	-0.184082	0.025879	0.968262	0.770000	14.840000	-3.290000	635.00	-0.08	-0.12	0.00	0.00	0.00	0.00	0.00	0.00	0.50	0.00	0.50	0.50	0.00	0.00	0.00	0.00	0.00	0.00	-0.649414	0.110840	1.319824	92.190002	-304.850006	32.060001	19.00	0.00	0.00
2.12	3.75	5.75	2.00	5.50	6.75	8.25	1.50	6.50	3.50	1.75	1.75	2.00	3.50	3.00	0.25	1.75	-0.189941	0.029297	0.961914	1.050000	14.980000	-3.500000	631.00	-0.06	-0.12	0.00	0.00	0.00	0.00	0.00	0.00	0.50	0.00	0.25	0.50	0.00	0.00	0.00	0.00	0.00	0.25	-0.798340	0.121582	1.344727	84.559998	-302.470001	39.759998	17.00	0.00	0.00
2.13	3.50	5.50	2.00	5.50	6.50	8.25	1.50	6.50	3.50	2.00	2.00	2.00	3.75	3.25	0.50	1.75	-0.190918	0.012695	0.963867	0.980000	15.190001	-3.500000	636.00	-0.05	-0.12	0.00	0.00	0.00	0.00	0.00	0.00	0.50	0.00	0.50	0.50	0.25	0.00	0.00	0.00	0.00	0.25	-0.926758	0.104980	1.286621	94.919998	-296.519989	43.959999	23.00	0.00	0.00
2.14	3.00	5.25	1.75	5.25	6.25	8.00	1.75	6.50	3.75	2.00	2.25	2.50	4.00	3.50	0.50	1.75	-0.137207	0.052246	0.955078	1.400000	15.470000	-4.130000	637.00	-0.04	-0.12	0.00	0.00	0.00	0.00	0.00	0.00	0.50	0.00	0.25	0.50	0.00	0.00	0.00	0.00	0.00	0.00	-0.957520	0.044434	1.237793	111.370003	-286.089996	45.500000	16.00	0.00	0.00
2.15	2.50	4.75	1.50	5.00	6.00	7.75	1.50	6.50	4.00	2.00	2.25	2.50	4.00	3.50	0.75	1.75	-0.197754	0.026855	0.967773	1.470000	15.050000	-3.710000	618.00	-0.02	-0.12	0.00	0.25	0.25	0.00	0.00	0.00	0.50	0.00	0.25	0.50	0.00	0.00	0.00	0.00	0.00	0.25	-0.926270	0.015625	1.246094	117.320000	-271.670013	47.180000	23.00	0.00	0.00
2.16	2.50	4.50	1.50	4.75	5.75	7.50	1.50	6.50	4.25	2.25	2.75	2.75	4.50	3.75	0.75	2.00	-0.182617	0.026855	0.959473	1.750000	15.120000	-3.220000	629.00	-0.01	-0.12	0.00	0.25	0.25	0.00	0.00	0.00	0.25	0.00	0.50	0.25	0.00	0.00	0.00	0.00	0.00	0.25	-0.881348	0.070801	1.338867	111.090004	-258.649994	51.869999	19.00	0.00	0.00
2.17	2.25	4.00	1.50	4.50	5.50	7.50	1.50	6.50	4.50	2.50	3.00	3.25	5.00	4.50	0.75	2.00	-0.191406	0.020996	0.965820	2.170000	15.470000	-3.360000	641.00	0.00	-0.12	0.00	0.00	0.25	0.00	0.00	0.00	0.50	0.00	0.50	0.25	0.00	0.00	0.00	0.00	0.00	0.00	-0.828125	0.125977	1.377441	104.230003	-250.110001	60.480000	20.00	0.00	0.00
2.18	2.25	3.50	1.00	4.25	5.25	7.25	1.50	6.50	4.75	2.75	3.00	3.25	5.00	4.50	0.50	2.00	-0.195801	0.039062	0.958496	2.380000	15.400000	-3.430000	626.00	0.01	-0.12	0.00	0.00	0.00	0.00	0.00	0.00	0.50	0.00	0.00	0.00	0.00	0.00	0.00	0.00	0.00	0.00	-0.774414	0.135254	1.350098	100.870003	-242.059998	71.120003	8.00	0.00	0.00
2.19	2.00	3.50	1.00	3.75	5.00	7.00	1.50	6.50	5.00	2.75	3.50	3.50	5.25	5.00	0.75	2.25	-0.189941	0.065430	0.954102	2.100000	15.190001	-3.430000	634.00	0.03	-0.12	0.00	0.00	0.00	0.00	0.00	0.00	0.50	0.00	0.50	0.25	0.00	0.00	0.00	0.00	0.00	0.00	-0.748535	0.121094	1.368164	100.730003	-231.770004	81.199997	17.00	0.00	0.00
2.20	2.00	3.00	0.75	4.00	4.75	7.00	1.50	6.50	5.25	3.25	3.50	4.00	5.25	5.25	0.75	2.25	-0.229492	0.041504	0.955566	2.170000	14.980000	-3.640000	642.00	0.04	-0.12	0.00	0.00	0.25	0.25	0.00	0.00	0.50	0.00	0.50	0.00	0.00	0.00	0.00	0.00	0.00	0.00	-0.736816	0.119141	1.434082	102.760002	-221.970001	90.300003	20.00	0.00	0.00
2.21	1.75	2.50	1.00	3.50	4.25	6.75	1.50	6.25	5.25	3.50	4.00	4.50	5.50	5.50	0.75	2.50	-0.206055	0.037598	0.959961	2.030000	14.770000	-3.780000	639.00	0.05	-0.12	0.00	0.00	0.00	0.00	0.00	0.00	0.25	0.00	0.25	0.25	0.00	0.00	0.00	0.00	0.00	0.00	-0.703125	0.097656	1.477539	104.720001	-213.220001	98.209999	10.00	0.00	0.00
2.22	1.50	2.75	0.75	3.50	4.00	6.50	1.50	6.25	5.50	3.50	4.50	4.75	5.75	6.00	0.75	2.50	-0.185547	0.049805	0.958008	2.030000	14.840000	-3.290000	648.00	0.06	-0.12	0.00	0.00	0.00	0.00	0.00	0.00	0.50	0.00	0.25	0.25	0.00	0.00	0.00	0.00	0.00	0.00	-0.691895	0.049316	1.512207	103.389999	-204.820007	105.279999	13.00	0.00	0.00
2.23	1.50	2.25	0.50	3.00	3.75	6.25	1.50	6.25	5.50	3.75	5.25	5.25	5.75	6.50	0.75	2.50	-0.222168	0.018066	0.953613	2.170000	15.330000	-3.780000	650.00	0.08	-0.12	0.00	0.25	0.00	0.50	0.00	0.00	0.50	0.00	0.25	0.25	0.00	0.00	0.00	0.00	0.00	0.00	-0.690430	0.020020	1.551270	95.269997	-196.630005	111.160004	21.00	0.00	0.00
2.24	1.25	2.00	0.25	2.75	3.25	6.00	1.50	6.25	5.75	4.00	5.75	5.75	6.00	6.75	1.00	3.00	-0.205078	0.040527	0.961914	2.520000	15.680000	-3.010000	657.00	0.09	-0.12	0.00	0.00	0.00	0.25	0.00	0.00	0.50	0.00	0.50	0.25	0.00	0.00	0.00	0.00	0.00	0.00	-0.774902	-0.017578	1.515137	67.970001	-178.710007	117.110001	19.00	0.00	0.00
2.25	1.00	1.50	0.50	2.75	3.25	5.75	1.25	6.00	6.00	4.25	7.00	6.00	6.25	7.50	1.00	3.00	-0.152344	0.015137	0.975098	2.940000	16.660000	-2.800000	673.00	0.11	-0.11	0.00	0.00	0.00	0.00	0.00	0.00	0.25	0.00	0.25	0.50	0.00	0.00	0.00	0.00	0.00	0.00	-0.774902	-0.017578	1.515137	67.970001	-178.710007	117.110001	12.00	0.00	0.00
2.26	1.00	1.75	0.25	2.25	2.75	5.50	1.25	6.25	6.00	4.50	7.00	6.75	6.50	7.75	1.25	3.00	-0.213867	0.049316	0.952148	3.710000	17.430000	-2.870000	680.00	0.12	-0.12	0.00	0.00	0.25	0.00	0.00	0.00	0.50	0.00	0.25	0.50	0.00	0.00	0.00	0.00	0.00	0.00	-0.879395	0.013672	1.499512	62.299999	-166.039993	117.110001	19.00	0.00	0.00
2.27	1.00	1.25	0.50	2.25	2.50	5.25	1.25	6.00	6.75	4.75	7.50	7.00	6.75	8.00	1.00	3.00	-0.214355	0.041016	0.958984	4.690000	18.620001	-3.220000	691.00	0.13	-0.11	0.00	0.00	0.00	0.00	0.00	0.00	0.50	0.00	0.25	0.25	0.00	0.00	0.00	0.00	0.00	0.00	-1.106934	0.096191	1.640137	95.129997	-146.789993	115.500000	13.00	0.00	0.00
2.28	1.00	1.75	0.25	2.50	2.25	5.00	1.25	6.00	6.75	5.75	8.00	7.50	6.75	8.75	1.00	3.25	-0.262695	0.048340	0.959961	5.950000	19.879999	-3.500000	718.00	0.13	-0.11	0.00	0.00	0.00	0.00	0.25	0.00	0.50	0.00	0.00	0.50	0.00	0.00	0.00	0.00	0.00	0.00	-1.219727	0.110352	1.755371	121.870003	-147.910004	115.220001	16.00	0.00	0.00
2.29	1.25	1.50	0.50	2.25	2.00	5.00	1.25	6.00	7.00	6.25	8.25	8.00	7.00	9.00	1.50	3.50	-0.465820	0.156738	0.937988	7.700000	21.700001	-4.060000	743.00	0.14	-0.10	0.00	0.00	0.25	0.00	0.00	0.00	0.25	0.00	0.25	0.00	0.00	0.00	0.00	0.00	0.00	0.00	-1.348145	0.047852	1.870605	136.779999	-159.320007	117.040001	10.00	0.00	0.00
2.30	0.75	1.00	0.25	2.00	1.75	4.75	1.25	6.00	7.50	6.00	8.50	8.25	7.25	9.25	1.25	3.50	-0.223633	0.043457	0.961914	8.330000	23.309999	-4.690000	733.00	0.15	-0.10	0.00	0.00	0.00	0.00	0.00	0.00	0.50	0.00	0.25	0.25	0.00	0.00	0.00	0.00	0.00	0.00	-1.459961	-0.078613	1.815430	126.489998	-178.080002	123.199997	13.00	0.00	0.00
2.31	0.75	1.25	0.25	1.75	1.50	3.75	1.00	5.75	7.50	7.00	8.75	8.50	7.50	9.75	1.25	4.00	-0.225098	0.072754	0.957520	9.870000	25.480000	-4.060000	737.00	0.16	-0.10	0.00	0.00	0.00	0.00	0.00	0.00	0.50	0.00	0.00	0.25	0.00	0.00	0.00	0.00	0.00	0.00	-1.586914	-0.272949	1.487793	96.599998	-192.639999	136.149994	10.00	0.00	0.00
2.32	0.75	1.00	0.25	1.75	1.00	3.75	1.00	5.50	8.00	7.00	9.00	8.75	7.50	10.00	1.50	4.00	-0.220215	0.057617	0.958008	12.250000	28.280001	-3.850000	742.00	0.17	-0.10	0.00	0.00	0.00	0.00	0.00	0.00	0.50	0.00	0.50	0.00	0.00	0.00	0.00	0.00	0.00	0.00	-1.774414	-0.363770	1.015137	54.670002	-192.500000	150.500000	14.00	0.00	0.00
2.33	0.50	1.00	0.00	2.00	0.75	3.00	0.75	5.50	7.75	7.50	9.50	9.25	7.75	10.25	1.50	4.50	-0.239746	0.046875	0.963867	14.840000	31.850000	-3.850000	744.00	0.18	-0.10	0.00	0.00	0.00	0.00	0.00	0.00	0.50	0.00	0.25	0.25	0.00	0.00	0.00	0.00	0.00	0.00	-1.957520	-0.267090	0.557617	4.480000	-176.050003	160.300003	13.00	0.00	0.00
2.34	0.25	1.50	0.00	1.00	0.75	2.75	0.75	5.25	8.00	8.00	9.75	9.50	8.00	10.75	1.50	4.50	-0.253418	0.074219	0.971191	18.900000	38.009998	-3.360000	748.00	0.19	-0.10	0.00	0.00	0.00	0.00	0.00	0.00	0.50	0.00	0.00	0.25	0.00	0.00	0.00	0.00	0.00	0.00	-2.153809	-0.144531	0.143555	-30.309999	-146.229996	162.539993	10.00	0.00	0.00
2.35	0.25	0.75	0.00	1.00	0.75	2.75	0.75	5.25	8.25	8.00	10.25	9.75	8.00	11.50	2.00	4.50	-0.240723	0.064941	0.964355	23.030001	43.330002	-3.220000	764.00	0.20	-0.09	0.00	0.00	0.00	0.00	0.00	0.00	0.50	0.00	0.00	0.25	0.00	0.00	0.00	0.00	0.00	0.00	-2.547852	-0.060547	-0.148926	-37.730000	-111.370003	148.470001	10.00	0.00	0.00
2.36	0.25	0.25	0.00	1.00	0.50	2.50	0.50	5.00	8.25	8.00	10.00	10.25	8.25	12.25	1.75	5.00	-0.245605	0.064941	0.949707	25.340000	45.430000	-3.220000	758.00	0.21	-0.09	0.00	0.00	0.00	0.00	0.00	0.25	0.50	0.00	0.25	0.25	0.00	0.00	0.25	0.00	0.00	0.00	-2.729492	-0.190430	-0.480469	-9.940000	-75.320000	119.910004	18.00	0.00	0.00
2.37	0.25	0.25	0.00	0.75	0.50	2.25	0.25	4.75	8.50	8.00	10.50	10.50	8.50	12.50	2.25	5.00	-0.259277	0.058594	0.970703	27.580000	50.889999	-2.870000	766.00	0.21	-0.09	0.00	0.00	0.25	0.00	0.00	0.00	0.50	0.00	0.00	0.00	0.00	0.00	0.25	0.00	0.00	0.00	-2.766113	-0.505859	-0.580566	38.639999	-33.950001	85.680000	13.00	0.00	0.00
2.38	0.00	0.25	0.00	0.50	0.50	1.50	0.25	4.25	8.25	8.25	11.00	10.75	8.75	13.25	2.00	5.25	-0.265625	0.058594	0.987793	33.040001	60.480000	-2.100000	759.00	0.22	-0.09	0.00	0.00	0.00	0.00	0.00	0.00	0.25	0.00	0.25	0.50	0.00	0.00	0.25	0.00	0.00	0.00	-2.633789	-0.730469	-0.395020	60.760002	13.090000	49.980000	14.00	0.00	0.00
2.39	0.25	0.25	0.00	0.75	0.50	1.25	0.00	3.75	8.50	8.25	11.00	11.00	8.75	13.75	2.00	5.50	-0.233887	0.073730	0.997070	39.549999	70.209999	-0.630000	762.00	0.23	-0.08	0.00	0.00	0.00	0.00	0.00	0.00	0.50	0.00	0.25	0.50	0.00	0.00	0.00	0.00	0.00	0.00	-2.315430	-0.756836	-0.004883	38.779999	55.230000	21.910000	16.00	0.00	0.00
2.40	0.00	0.50	0.00	0.50	0.00	1.00	0.00	3.25	8.50	8.25	11.25	11.25	8.75	14.50	2.25	5.50	-0.291504	0.071289	0.981445	44.099998	82.739998	0.210000	757.00	0.24	-0.08	0.00	0.75	0.25	0.25	0.00	0.00	0.25	0.00	0.25	0.00	0.00	0.00	0.00	0.00	0.00	0.00	-2.812500	-0.243164	0.856934	-0.630000	82.389999	7.420000	20.00	0.00	0.00
2.41	0.00	0.00	0.00	0.50	0.00	0.50	0.00	2.75	8.50	8.50	11.50	11.75	8.75	15.00	2.50	5.50	-0.296875	0.111328	0.966797	46.970001	97.300003	0.420000	757.00	0.25	-0.08	0.50	1.75	0.50	1.50	0.00	0.00	0.50	0.00	0.00	0.00	0.00	0.00	0.00	0.00	0.00	0.00	-0.215332	-0.495117	1.959961	-175.139999	163.869995	-4.480000	51.00	-0.28	-0.07
2.42	0.00	0.00	0.00	0.25	0.00	0.25	0.00	2.50	8.25	8.25	11.50	11.75	8.75	15.75	2.50	5.75	-0.325684	0.130859	0.992188	47.810001	126.279999	-1.890000	749.00	0.25	-0.07	1.75	3.00	0.50	2.50	0.00	0.00	0.50	0.00	0.25	0.00	0.00	0.00	0.00	0.00	0.00	0.00	0.978027	0.607910	1.342773	-182.839996	150.149994	-6.860000	90.00	-0.30	-0.06
2.43	0.00	0.00	0.00	0.25	0.00	0.50	0.00	2.00	8.25	8.25	11.25	12.00	8.75	16.25	3.00	5.75	-0.325684	0.130859	0.992188	47.810001	126.279999	-1.890000	754.00	0.26	-0.07	3.00	5.25	0.75	3.25	0.00	0.00	0.50	0.00	0.00	0.00	0.00	0.00	0.25	0.00	0.00	0.00	-0.078613	0.056152	1.950684	-111.300003	111.230003	14.070000	133.00	-0.33	-0.08
2.44	0.00	0.00	0.00	0.00	0.00	0.25	0.00	1.75	8.25	8.00	11.25	12.00	8.75	16.50	3.00	5.75	-0.349121	0.134766	0.995117	49.630001	143.080002	-3.500000	744.00	0.26	-0.07	4.25	5.75	1.25	4.00	0.00	0.00	0.50	0.00	0.00	0.00	0.00	0.00	0.50	0.00	0.00	0.00	0.237305	-0.127441	0.252930	-78.260002	115.849998	22.469999	167.00	-0.33	-0.08
2.45	0.00	0.00	0.00	0.00	0.00	0.25	0.00	1.50	8.25	7.75	11.25	11.75	8.50	17.25	3.25	6.00	-0.398926	0.149414	0.974609	47.810001	185.919998	-6.370000	744.00	0.27	-0.06	6.25	7.50	1.50	4.50	0.25	0.00	0.50	0.00	0.25	0.00	0.00	0.00	0.50	0.00	0.00	0.00	-0.323242	-0.012695	1.074219	-40.599998	181.300003	21.350000	218.00	-0.33	-0.06
2.46	0.00	0.00	0.00	0.00	0.00	0.25	0.00	1.25	8.00	7.50	10.50	11.50	8.25	17.50	3.50	6.00	-0.491699	0.149414	1.191406	48.299999	204.259995	-8.190000	726.00	0.27	-0.06	8.00	9.50	2.25	5.25	0.25	0.25	0.25	0.00	0.00	0.00	0.00	0.00	0.75	0.00	0.00	0.00	-0.391113	-0.385254	1.823242	-13.720000	215.180008	21.350000	269.00	-0.34	-0.07
2.47	0.00	0.00	0.00	0.00	0.00	0.25	0.00	1.00	8.00	7.25	10.50	11.25	7.50	18.00	3.75	6.00	-0.494141	0.174316	1.059570	47.180000	220.570007	-10.010000	717.00	0.27	-0.05	9.00	10.50	2.50	5.75	0.50	0.75	0.50	0.25	0.00	0.00	0.00	0.25	1.00	0.00	0.00	0.00	-0.459473	-0.297363	1.771973	-11.620000	183.610001	-38.150002	317.00	-0.32	-0.08
2.48	0.00	0.00	0.00	0.00	0.00	0.00	0.00	1.00	7.50	6.50	10.00	10.75	7.00	18.00	4.00	6.00	-0.556152	0.175781	1.187012	45.220001	236.040009	-11.690000	688.00	0.28	-0.05	9.75	11.00	3.00	6.25	0.75	1.25	0.50	0.00	0.00	0.00	0.00	0.00	1.00	0.00	0.00	0.00	-0.369141	0.508789	1.949219	-14.490000	162.820007	-55.580002	342.00	-0.33	-0.07
2.49	0.00	0.25	0.00	0.00	0.00	0.00	0.00	0.75	7.25	6.50	9.75	10.25	6.50	18.00	4.25	6.00	-0.536133	0.148926	1.052734	37.380001	251.440002	-14.420000	674.00	0.28	-0.05	10.25	11.25	3.25	6.50	1.00	2.25	0.50	0.50	0.00	0.00	0.00	0.00	1.00	0.25	0.00	0.00	-0.471191	0.607910	1.534180	-18.620001	125.440002	-35.560001	379.00	-0.31	-0.08
2.50	0.00	0.00	0.00	0.00	0.00	0.25	0.00	0.75	6.75	5.50	9.25	9.25	5.75	18.25	4.50	5.75	-0.605469	0.272461	1.180176	35.070000	271.250000	-17.639999	638.00	0.28	-0.04	10.25	11.25	3.75	7.50	1.25	3.25	0.50	0.75	0.00	0.00	0.00	0.00	1.00	0.00	0.00	0.00	-0.321289	0.333984	1.657227	-47.250000	96.250000	-8.050000	410.00	-0.31	-0.09
2.51	0.00	0.00	0.00	0.00	0.00	0.00	0.00	0.50	6.00	5.50	8.25	8.25	5.00	18.00	4.75	5.50	-0.554688	0.272461	1.314941	35.209999	295.750000	-22.120001	593.00	0.29	-0.03	10.50	11.25	3.75	7.75	1.25	3.50	0.50	0.75	0.00	0.00	0.00	0.00	1.00	0.00	0.00	0.00	-0.254883	0.040527	1.425293	-55.439999	65.029999	1.190000	419.00	-0.31	-0.09
2.52	0.00	0.00	0.00	0.00	0.00	0.00	0.00	0.25	5.50	4.75	7.75	7.75	4.25	17.50	4.50	5.25	-0.751465	0.177246	1.577637	23.590000	310.660004	-29.960001	550.00	0.30	-0.03	10.25	10.50	3.75	7.75	1.50	4.00	0.75	1.00	0.25	0.00	0.00	0.00	1.25	0.00	0.00	0.00	-0.084961	0.070801	1.023438	-48.650002	44.380001	-0.070000	430.00	-0.29	-0.09
2.53	0.00	0.00	0.00	0.00	0.00	0.00	0.00	0.25	5.00	4.75	6.75	6.75	3.50	16.75	4.75	5.00	-0.750977	0.173828	1.096191	3.500000	335.160004	-35.560001	511.00	0.30	-0.02	10.00	10.75	3.50	7.75	1.50	4.00	0.75	1.00	0.00	0.00	0.00	0.00	1.25	0.00	0.00	0.00	-0.070312	0.305176	1.017578	-46.759998	40.950001	0.140000	424.00	-0.29	-0.09
2.54	0.00	0.00	0.00	0.00	0.00	0.00	0.00	0.00	4.50	4.00	6.25	6.00	2.75	15.75	4.25	4.00	-0.787598	0.311035	1.125000	-8.190000	362.880005	-39.060001	454.00	0.31	-0.01	10.00	10.75	3.50	8.00	1.75	4.50	0.75	1.25	0.25	0.00	0.00	0.00	1.25	0.00	0.00	0.00	-0.175781	0.124512	1.064941	-49.770000	33.529999	3.430000	442.00	-0.28	-0.10
2.55	0.00	0.00	0.00	0.00	0.00	0.00	0.00	0.00	2.75	3.75	5.00	5.75	2.50	14.25	3.50	3.75	-0.971680	0.348145	1.487305	-1.540000	377.160004	-43.750000	388.00	0.31	-0.02	9.50	11.00	3.75	8.25	1.75	4.75	0.75	1.50	0.00	0.00	0.00	0.00	1.00	0.00	0.00	0.00	-0.182617	0.073242	1.048828	-46.130001	23.660000	4.130000	446.00	-0.29	-0.10
2.56	0.00	0.00	0.00	0.00	0.00	0.00	0.00	0.00	3.00	3.50	5.00	5.00	2.25	12.50	3.00	3.00	-1.131348	0.295898	1.700684	20.650000	381.640015	-40.320000	355.00	0.30	-0.02	9.75	10.75	3.75	8.00	1.75	5.00	0.75	1.25	0.00	0.25	0.00	0.00	1.00	0.00	0.00	0.25	-0.158203	0.143066	0.994141	-41.369999	18.129999	3.710000	446.00	-0.28	-0.10
2.57	0.00	0.00	0.00	0.00	0.00	0.00	0.00	0.00	3.00	3.25	3.75	4.25	1.75	10.75	2.50	2.50	-1.312012	0.324707	2.194336	43.400002	375.760010	-33.389999	304.00	0.30	-0.01	9.50	10.75	3.75	8.25	2.00	5.00	0.75	1.50	0.25	0.25	0.00	0.25	1.50	0.00	0.00	0.25	-0.156250	0.111328	1.004883	-38.290001	15.960000	4.060000	463.00	-0.27	-0.10
2.58	0.00	0.00	0.00	0.00	0.00	0.00	0.00	0.00	2.25	1.75	3.25	3.50	1.75	8.75	1.75	2.25	-1.324707	0.172852	1.956055	72.169998	363.649994	-26.600000	239.00	0.30	-0.02	9.75	11.00	4.00	8.50	2.00	5.25	0.75	1.75	0.50	0.50	0.00	0.00	1.25	0.00	0.00	0.00	-0.167480	0.064941	1.015137	-36.610001	11.060000	3.920000	480.00	-0.27	-0.10
2.59	0.00	0.00	0.00	0.00	0.00	0.00	0.00	0.00	1.75	2.25	2.50	2.75	1.50	7.50	1.75	1.75	-1.288086	0.323242	2.075684	78.470001	342.230011	-28.700001	206.00	0.31	-0.01	10.25	11.50	4.25	8.75	2.25	5.50	1.00	2.00	0.50	0.50	0.00	0.00	1.25	0.00	0.00	0.00	-0.171875	0.075684	1.045898	-31.920000	3.990000	2.660000	508.00	-0.26	-0.10
2.60	0.00	0.00	0.00	0.00	0.00	0.00	0.00	0.00	1.25	2.00	2.00	2.00	1.25	6.00	1.25	1.00	-1.079102	0.400879	1.637207	83.440002	330.399994	-34.650002	160.00	0.30	-0.01	10.50	11.75	4.50	9.00	2.50	5.75	1.00	1.75	0.50	0.25	0.25	0.00	1.50	0.25	0.00	0.25	-0.152344	0.071777	0.983398	-24.990000	-1.050000	2.170000	526.00	-0.26	-0.10
2.61	0.00	0.00	0.00	0.00	0.00	0.00	0.00	0.00	1.50	1.25	1.25	1.50	1.00	4.00	1.00	0.50	-0.683594	0.596680	1.440918	110.599998	320.670013	-42.770000	118.00	0.30	0.00	11.25	12.25	4.75	9.25	2.50	6.25	1.00	2.00	0.50	0.50	0.00	0.00	1.25	0.00	0.00	0.00	-0.158203	0.045898	0.972656	-22.540001	-2.940000	2.310000	547.00	-0.27	-0.10
2.62	0.00	0.00	0.00	0.00	0.25	0.00	0.00	0.00	0.75	1.25	1.00	1.00	0.50	2.50	0.25	0.25	-0.360352	0.449219	1.268066	153.089996	302.679993	-58.939999	76.00	0.27	0.01	11.75	12.75	5.00	9.50	2.75	6.50	1.00	2.00	0.50	0.25	0.00	0.00	1.75	0.00	0.00	0.00	-0.148438	0.058594	0.995605	-19.740000	-6.860000	2.100000	570.00	-0.27	-0.10
2.63	0.25	0.00	0.00	0.00	0.25	0.00	0.00	0.00	0.50	0.75	1.00	1.00	0.50	1.75	0.25	0.00	-0.005859	0.156250	1.093750	171.779999	278.390015	-85.260002	63.00	0.23	-0.02	12.25	13.25	5.75	9.75	2.75	7.25	1.00	2.00	0.25	0.25	0.25	0.00	1.25	0.00	0.00	0.00	-0.150879	0.052246	0.985352	-14.490000	-8.610000	1.820000	594.00	-0.27	-0.10
2.64	0.00	0.00	0.00	0.00	0.50	0.00	0.00	0.00	0.75	0.50	1.00	1.00	0.50	1.25	0.00	0.00	1.376465	-0.112793	1.190430	153.369995	246.470001	-117.949997	57.00	0.23	-0.02	13.00	13.50	5.75	10.00	3.25	7.50	1.00	2.25	0.25	0.50	0.00	0.25	1.50	0.00	0.00	0.25	-0.160156	0.042969	0.984863	-11.200000	-8.260000	2.380000	625.00	-0.26	-0.10
2.65	0.00	0.00	0.00	0.00	0.00	0.00	0.00	0.00	0.25	0.75	0.75	0.75	0.50	1.00	0.00	0.00	-0.016113	0.481934	2.861816	86.940002	152.389999	-151.899994	40.00	0.00	0.00	13.00	13.75	6.00	10.25	3.50	7.75	1.00	2.50	0.75	0.50	0.25	0.25	1.50	0.00	0.00	0.25	-0.151367	0.043945	0.990723	-8.540000	-7.980000	2.940000	651.00	-0.26	-0.10
2.66	0.00	0.00	0.00	0.00	0.25	0.00	0.00	0.00	0.25	0.50	0.75	0.00	0.25	0.75	0.00	0.00	0.414062	0.248047	2.937988	75.529999	17.430000	-153.229996	28.00	0.00	0.00	13.75	14.25	6.00	10.25	3.75	8.00	1.00	2.50	0.50	0.50	0.25	0.00	1.50	0.00	0.00	0.25	-0.152344	0.046387	0.976074	-6.440000	-7.490000	3.500000	663.00	-0.26	-0.09
2.67	0.00	0.25	0.00	0.00	0.50	0.00	0.00	0.00	0.25	1.00	0.25	0.25	0.25	0.50	0.00	0.00	0.319824	-0.187500	1.226074	22.190001	-110.669998	-180.880005	33.00	0.00	0.00	13.50	14.25	6.25	10.50	4.00	8.25	1.00	2.50	0.50	0.50	0.25	0.00	1.75	0.00	0.00	0.25	-0.146973	0.066895	0.980957	-4.550000	-6.090000	3.220000	674.00	-0.26	-0.10
2.68	0.00	0.00	0.00	0.00	0.50	0.00	0.00	0.00	0.25	0.75	0.50	0.00	0.25	0.50	0.00	0.00	0.162598	-0.002930	0.964355	-26.320000	-134.889999	-194.880005	28.00	0.00	0.00	14.00	14.50	6.50	10.50	4.50	8.50	1.00	2.75	0.75	0.50	0.25	0.00	1.50	0.00	0.00	0.50	-0.145508	0.067871	0.980469	-5.040000	-5.740000	2.800000	698.00	-0.26	-0.09
2.69	0.00	0.00	0.00	0.00	0.25	0.00	0.00	0.00	0.25	0.75	0.50	0.00	0.25	0.50	0.00	0.00	0.108398	0.187012	0.910645	-55.580002	-152.180008	-204.610001	25.00	0.00	0.00	13.75	14.75	6.50	10.75	4.50	8.50	1.25	3.00	0.50	0.50	0.25	0.25	2.00	0.00	0.00	0.25	-0.133301	0.072754	0.977051	-6.230000	-5.670000	2.030000	711.00	-0.25	-0.10
2.70	0.00	0.00	0.25	0.00	0.50	0.25	0.00	0.00	0.25	0.75	0.75	0.25	0.00	0.00	0.00	0.00	0.131348	0.372559	0.869629	-67.480003	-169.050003	-206.850006	33.00	0.00	0.00	14.25	14.50	7.00	10.50	4.75	8.50	1.00	3.00	0.75	0.50	0.50	0.25	2.00	0.00	0.00	0.25	-0.141602	0.053711	0.977051	-7.630000	-5.880000	1.540000	721.00	-0.25	-0.09
2.71	0.00	0.25	0.00	0.00	0.50	0.00	0.00	0.00	0.00	0.50	0.25	0.00	0.00	0.50	0.00	0.00	0.129883	0.523926	0.931152	-72.800003	-187.600006	-198.309998	20.00	0.00	0.00	14.00	14.50	7.00	10.75	5.00	8.75	1.25	3.25	0.50	0.75	0.25	0.25	2.00	0.00	0.00	0.25	-0.145020	0.048828	0.974609	-8.330000	-6.090000	0.980000	731.00	-0.25	-0.10
2.72	0.00	0.25	0.25	0.00	0.25	0.00	0.00	0.00	0.00	0.75	0.25	0.00	0.00	0.25	0.00	0.00	0.135254	0.650391	0.949707	-78.540001	-208.039993	-178.990005	20.00	0.00	0.00	13.75	14.25	7.00	10.75	5.00	8.75	1.00	3.00	0.75	0.75	0.25	0.25	2.00	0.00	0.00	0.25	-0.139648	0.053711	0.972656	-8.610000	-6.090000	0.490000	722.00	-0.25	-0.10
2.73	0.00	0.25	0.00	0.00	0.25	0.00	0.00	0.00	0.00	0.00	0.25	0.00	0.00	0.50	0.00	0.00	0.134766	0.778809	0.937012	-83.650002	-229.180008	-153.229996	12.00	0.00	0.00	13.50	14.25	7.00	10.75	5.50	9.00	1.25	3.25	1.00	0.75	0.25	0.25	2.00	0.00	0.00	0.50	-0.144531	0.049316	0.978516	-8.260000	-6.230000	0.420000	740.00	-0.24	-0.09
2.74	0.00	0.00	0.25	0.00	0.25	0.00	0.00	0.00	0.00	0.50	0.00	0.00	0.00	0.50	0.00	0.00	0.116699	0.900391	0.931152	-80.010002	-249.479996	-123.129997	15.00	0.00	0.00	13.25	14.00	7.25	10.50	5.50	9.00	1.25	3.25	1.25	0.50	0.50	0.25	2.25	0.25	0.00	0.25	-0.137695	0.038574	0.980957	-7.490000	-5.950000	0.350000	741.00	-0.23	-0.09
2.75	0.00	0.50	0.25	0.00	0.50	0.00	0.00	0.00	0.00	0.25	0.00	0.00	0.00	0.25	0.00	0.00	0.101074	0.970215	0.913574	-65.870003	-267.820007	-90.370003	18.00	0.00	0.00	12.75	13.75	7.00	10.50	5.75	8.75	1.25	3.25	1.00	0.50	0.25	0.50	2.00	0.25	0.00	0.25	-0.142578	0.045410	0.977539	-6.440000	-5.460000	0.420000	726.00	-0.24	-0.09
2.76	0.00	0.00	0.00	0.00	0.25	0.00	0.00	0.00	0.00	0.75	0.00	0.00	0.00	0.00	0.00	0.00	0.057617	0.970703	0.886719	-41.860001	-283.360016	-57.330002	11.00	0.00	0.00	12.50	13.25	7.00	10.25	6.00	9.00	1.25	3.50	1.00	0.50	0.25	0.25	2.25	0.00	0.00	0.50	-0.145020	0.045410	0.988281	-5.320000	-5.040000	0.700000	724.00	-0.23	-0.10
2.77	0.00	0.50	0.00	0.00	0.50	0.00	0.00	0.00	0.00	0.50	0.00	0.00	0.00	0.00	0.00	0.00	-0.016602	0.910156	0.887207	-10.220000	-295.260010	-26.250000	15.00	0.00	0.00	12.00	12.75	6.75	10.25	6.00	9.00	1.50	3.50	1.25	0.75	0.50	0.50	2.50	0.00	0.25	0.50	-0.147461	0.049316	0.987305	-4.200000	-4.410000	0.770000	731.00	-0.22	-0.10
2.78	0.00	0.25	0.50	0.00	0.25	0.00	0.00	0.00	0.25	0.25	0.00	0.00	0.00	0.50	0.00	0.00	-0.143555	0.799316	0.909668	22.820000	-305.410004	0.070000	21.00	0.00	0.00	11.50	12.50	6.75	10.00	5.75	8.75	1.25	3.75	1.25	0.75	0.50	0.50	2.25	0.00	0.00	0.50	-0.144531	0.052734	0.976074	-3.640000	-3.990000	0.560000	710.00	-0.22	-0.10
2.79	0.00	0.25	0.25	0.00	0.50	0.00	0.00	0.00	0.00	0.00	0.00	0.00	0.00	0.25	0.00	0.00	-0.281250	0.655762	0.969238	53.060001	-311.709991	15.680000	13.00	0.00	0.00	11.00	12.00	6.50	9.75	6.00	8.75	1.25	3.75	1.25	1.00	0.50	0.50	2.50	0.25	0.00	0.75	-0.140625	0.056641	0.977051	-3.500000	-4.060000	0.280000	706.00	-0.21	-0.10
2.80	0.00	0.25	0.00	0.00	0.50	0.00	0.00	0.00	0.00	0.25	0.00	0.00	0.00	0.00	0.00	0.00	-0.433594	0.475098	1.044434	84.769997	-316.049988	22.750000	10.00	0.00	0.00	10.00	11.50	6.75	9.75	6.00	8.75	1.50	3.75	1.50	1.00	0.50	0.50	2.25	0.25	0.00	0.75	-0.138184	0.058594	0.961426	-3.570000	-4.200000	-0.070000	699.00	-0.20	-0.10
2.81	0.00	0.25	0.25	0.00	0.50	0.00	0.00	0.00	0.00	0.00	0.00	0.00	0.00	0.25	0.00	0.00	-0.596680	0.331055	1.168945	103.180000	-318.290009	24.990000	13.00	0.00	0.00	9.50	11.00	6.25	9.50	6.00	8.75	1.50	4.50	1.50	0.75	0.50	0.50	3.00	0.25	0.00	0.75	-0.142578	0.056641	0.984863	-3.360000	-3.920000	-0.350000	696.00	-0.20	-0.11
2.82	0.00	0.25	0.25	0.00	0.50	0.00	0.00	0.00	0.00	0.25	0.00	0.00	0.00	0.50	0.00	0.00	-0.739746	0.252930	1.291016	101.290001	-317.380005	26.320000	17.00	0.00	0.00	9.00	10.50	6.25	9.25	6.25	8.50	1.50	5.00	1.50	1.00	0.75	0.75	3.00	0.50	0.00	0.75	-0.096191	0.078613	1.002930	-2.310000	-3.500000	-0.000000	701.00	-0.18	-0.11
2.83	0.00	0.25	0.00	0.00	0.50	0.00	0.00	0.00	0.00	0.25	0.00	0.00	0.00	0.00	0.00	0.00	-0.860352	0.217773	1.349121	89.180000	-315.839996	28.980000	10.00	0.00	0.00	8.75	10.00	6.00	9.25	6.25	8.50	1.50	5.25	1.75	1.00	0.50	0.50	3.00	0.50	0.00	1.00	-0.144531	0.047852	0.985840	-2.240000	-3.500000	0.350000	694.00	-0.18	-0.11
2.84	0.00	0.00	0.00	0.00	0.50	0.00	0.00	0.00	0.00	0.00	0.00	0.00	0.00	0.00	0.00	0.00	-1.050293	0.269531	1.385254	81.620003	-314.369995	32.689999	5.00	0.00	0.00	8.00	9.50	5.75	9.00	6.25	8.75	1.75	5.25	1.25	0.75	0.75	0.75	3.00	0.50	0.25	1.00	-0.158691	0.051758	0.974121	-1.470000	-3.570000	0.280000	682.00	-0.17	-0.12
2.85	0.00	0.25	0.00	0.00	0.25	0.00	0.00	0.00	0.25	0.00	0.00	0.00	0.00	0.25	0.00	0.00	-1.187012	0.349609	1.318359	86.590004	-311.290009	39.549999	10.00	0.00	0.00	7.50	9.00	5.75	8.75	6.25	8.50	1.75	5.25	1.50	1.25	0.75	1.00	3.50	0.50	0.25	1.25	-0.158691	0.051758	0.974121	-1.470000	-3.570000	0.280000	683.00	-0.16	-0.12
2.86	0.00	0.00	0.00	0.00	0.25	0.00	0.00	0.00	0.00	0.00	0.00	0.00	0.00	0.00	0.00	0.00	-1.176270	0.388184	1.202637	96.459999	-301.209991	52.430000	3.00	0.00	0.00	7.25	8.50	5.50	8.50	6.25	8.75	1.75	5.75	1.75	1.25	1.00	1.00	3.50	0.75	0.25	1.25	-0.102539	0.065918	0.834473	-0.490000	-3.290000	0.070000	689.00	-0.15	-0.12
2.87	0.00	0.25	0.00	0.00	0.50	0.00	0.00	0.00	0.00	0.25	0.00	0.00	0.00	0.25	0.00	0.00	-1.125000	0.450684	1.189453	100.099998	-283.779999	70.980003	13.00	0.00	0.00	6.75	8.25	5.50	8.25	6.75	8.75	1.75	6.00	1.75	1.25	1.00	1.25	3.50	0.75	0.00	1.50	-0.149902	0.044434	0.964844	-1.470000	-3.360000	-0.350000	689.00	-0.15	-0.12
2.88	0.00	0.50	0.00	0.00	0.50	0.00	0.00	0.00	0.00	0.00	0.00	0.00	0.00	0.00	0.00	0.00	-1.062988	0.522949	1.265625	95.059998	-245.210007	119.000000	10.00	0.00	0.00	6.25	7.50	5.25	8.00	6.50	8.75	2.00	6.25	1.75	1.25	1.25	1.25	3.75	0.75	0.25	1.50	-0.154785	-0.045410	0.957520	-1.260000	-3.150000	-0.210000	684.00	-0.13	-0.12
2.89	0.00	0.25	0.00	0.00	0.25	0.00	0.00	0.00	0.00	0.00	0.00	0.00	0.00	0.00	0.00	0.00	-1.090332	0.507812	1.372559	97.790001	-226.520004	143.289993	5.00	0.00	0.00	5.75	7.25	5.25	8.00	6.75	8.75	2.00	6.25	2.00	1.25	1.00	1.25	4.25	1.00	0.25	1.75	-0.161621	-0.009766	0.982422	-0.350000	-3.220000	0.490000	688.00	-0.12	-0.13
2.90	0.00	0.00	0.00	0.00	0.50	0.00	0.00	0.00	0.00	0.00	0.00	0.00	0.00	0.00	0.00	0.00	-1.112793	0.393555	1.547852	107.940002	-212.240005	163.449997	5.00	0.00	0.00	5.25	6.75	5.00	7.75	6.75	9.00	2.00	6.75	2.00	1.25	1.50	1.25	4.50	1.00	0.50	1.75	-0.149902	0.067871	0.961914	-0.840000	-2.870000	-0.630000	693.00	-0.11	-0.13
2.91	0.00	0.25	0.25	0.00	0.25	0.00	0.00	0.00	0.00	0.25	0.00	0.00	0.00	0.00	0.00	0.00	-1.155273	0.298828	1.613770	112.980003	-204.610001	177.520004	10.00	0.00	0.00	5.00	6.25	4.50	7.50	6.75	8.75	2.25	6.75	2.25	1.25	1.25	1.50	5.00	1.25	0.50	2.00	-0.136719	0.059570	1.011230	-1.470000	-2.310000	-1.260000	689.00	-0.10	-0.13
2.92	0.00	0.00	0.00	0.00	0.25	0.00	0.00	0.00	0.00	0.00	0.00	0.00	0.00	0.00	0.00	0.00	-1.179199	0.171875	1.579102	106.190002	-196.630005	185.990005	3.00	0.00	0.00	4.50	6.00	4.00	7.00	7.00	8.75	2.25	7.00	2.25	1.50	1.50	1.75	5.00	1.25	0.50	2.00	-0.165527	0.052734	0.990234	-1.120000	-1.750000	-0.980000	685.00	-0.09	-0.13
2.93	0.00	0.00	0.00	0.00	0.25	0.00	0.00	0.00	0.00	0.25	0.00	0.00	0.00	0.50	0.00	0.00	-1.196289	0.077148	1.495117	90.090004	-182.559998	189.910004	10.00	0.00	0.00	4.25	5.50	3.75	6.75	6.75	9.00	2.25	7.00	2.75	1.50	1.50	1.75	5.00	1.50	0.75	2.25	-0.160645	0.048340	1.019531	-1.190000	-1.260000	-1.260000	685.00	-0.08	-0.13
2.94	0.00	0.00	0.00	0.00	0.50	0.00	0.00	0.00	0.25	0.25	0.00	0.00	0.00	0.00	0.00	0.00	-1.235840	0.013184	1.487305	73.220001	-164.850006	190.610001	11.00	0.00	0.00	3.75	5.50	3.75	6.75	7.00	9.00	2.25	7.25	2.75	1.75	2.00	2.00	5.25	1.50	0.50	2.25	-0.140137	0.052246	1.008789	-1.120000	-0.210000	-1.400000	697.00	-0.07	-0.14
2.95	0.00	0.00	0.00	0.00	0.50	0.00	0.00	0.00	0.00	0.50	0.00	0.00	0.00	0.00	0.00	0.00	-1.281738	-0.031738	1.689941	62.860001	-151.199997	189.210007	11.00	0.00	0.00	3.50	5.00	3.00	6.25	6.75	9.00	2.50	7.25	3.00	2.00	2.25	2.25	5.25	1.75	0.75	2.25	-0.122559	0.038574	1.015137	-0.700000	0.770000	-1.330000	692.00	-0.05	-0.13
2.96	0.00	0.00	0.00	0.00	0.50	0.00	0.00	0.00	0.00	0.25	0.00	0.00	0.00	0.00	0.00	0.00	-1.351562	-0.047363	1.939453	63.139999	-152.949997	186.690002	8.00	0.00	0.00	3.00	4.25	2.75	6.00	6.50	8.75	2.50	7.50	3.50	2.25	2.25	2.50	5.50	2.25	0.75	2.50	-0.157227	0.029785	1.001465	0.700000	1.820000	-1.120000	693.00	-0.04	-0.13
2.97	0.00	0.25	0.00	0.00	0.50	0.00	0.00	0.00	0.00	0.00	0.00	0.00	0.00	0.00	0.00	0.00	-1.417969	-0.117676	1.975098	69.650002	-170.660004	182.839996	8.00	0.00	0.00	2.75	4.00	2.50	6.00	6.25	8.75	2.50	7.50	3.75	2.25	2.50	2.75	6.00	2.25	0.75	2.75	-0.155273	0.056641	0.965820	1.050000	3.010000	-1.890000	697.00	-0.03	-0.14
2.98	0.00	0.00	0.00	0.00	0.50	0.00	0.00	0.00	0.00	0.00	0.00	0.00	0.00	0.25	0.00	0.00	-1.496094	-0.259766	1.732422	69.580002	-191.660004	177.380005	8.00	0.00	0.00	2.50	3.50	2.25	5.50	6.00	8.75	2.50	7.75	4.00	2.50	3.00	3.00	6.50	2.50	0.75	3.00	-0.042480	0.073730	0.952148	1.120000	3.990000	-1.680000	704.00	-0.01	-0.14
2.99	0.00	0.00	0.00	0.00	0.50	0.00	0.00	0.00	0.00	0.00	0.00	0.00	0.00	0.00	0.00	0.00	-1.593750	-0.334961	1.339844	52.920002	-199.149994	170.660004	5.00	0.00	0.00	2.25	2.75	1.75	5.25	5.75	8.50	2.75	7.75	4.25	3.00	3.50	3.50	6.75	3.00	1.00	3.25	-0.227051	0.046875	0.974609	1.470000	5.250000	-1.680000	714.00	0.01	-0.14
3.00	0.00	0.00	0.00	0.00	0.25	0.00	0.00	0.00	0.25	0.00	0.00	0.00	0.00	0.00	0.00	0.00	-1.709961	-0.276855	1.005859	24.570000	-189.210007	163.169998	6.00	0.00	0.00	1.75	2.75	1.50	4.75	5.00	8.25	2.50	7.75	4.75	3.50	4.00	3.75	7.50	3.50	1.00	3.50	-0.072754	0.090332	1.019531	2.450000	6.790000	-1.260000	717.00	0.03	-0.14
3.01	0.00	0.00	0.00	0.00	0.50	0.00	0.00	0.00	0.00	0.00	0.00	0.00	0.00	0.25	0.00	0.00	-1.805176	-0.148926	0.755371	0.350000	-169.330002	156.309998	8.00	0.00	0.00	1.50	2.00	1.00	4.50	4.75	8.25	2.50	7.75	5.50	3.75	4.50	4.50	7.75	4.00	1.00	4.00	-0.169434	0.007812	0.952637	3.990000	8.820000	-1.680000	731.00	0.05	-0.14
3.02	0.00	0.00	0.00	0.00	0.25	0.00	0.00	0.00	0.00	0.00	0.00	0.00	0.00	0.00	0.00	0.00	-1.839355	-0.030762	0.520508	-10.500000	-146.720001	151.199997	3.00	0.00	0.00	1.25	2.00	0.75	4.50	3.75	7.75	2.50	7.75	6.00	4.25	5.50	5.50	8.00	4.75	1.00	4.50	-0.100098	0.138672	0.953125	5.530000	10.710000	-0.560000	754.00	0.07	-0.14
3.03	0.00	0.25	0.00	0.00	0.25	0.00	0.00	0.00	0.00	0.00	0.00	0.00	0.00	0.00	0.00	0.00	-2.039062	-0.072754	0.333496	-4.130000	-119.910004	147.910004	5.00	0.00	0.00	0.75	1.75	0.75	3.75	3.00	7.50	2.50	7.75	6.50	4.75	6.75	6.25	8.50	5.50	1.50	5.00	-0.159668	0.091797	0.938477	7.910000	13.440001	0.630000	778.00	0.09	-0.13
3.04	0.00	0.25	0.00	0.00	0.50	0.00	0.00	0.00	0.00	0.00	0.00	0.00	0.00	0.25	0.00	0.00	-2.336426	-0.247559	0.106934	4.480000	-93.379997	134.470001	10.00	0.00	0.00	0.75	1.50	0.75	3.75	2.00	7.00	2.25	7.75	7.00	5.75	8.00	7.50	8.50	6.25	1.75	5.50	-0.173828	0.077637	0.937988	10.010000	16.730000	0.490000	811.00	0.11	-0.13
3.05	0.00	0.00	0.00	0.00	0.25	0.00	0.00	0.00	0.00	0.00	0.00	0.00	0.00	0.00	0.00	0.00	-2.570801	-0.417969	-0.229492	14.980000	-67.480003	107.590004	3.00	0.00	0.00	0.75	1.25	0.50	3.50	1.50	6.50	2.25	7.50	7.25	6.75	8.50	8.00	9.00	6.75	1.75	5.75	-0.167969	0.075684	0.969727	13.020000	21.770000	-0.770000	823.00	0.12	-0.13
3.06	0.00	0.00	0.00	0.00	0.50	0.00	0.00	0.00	0.00	0.50	0.00	0.00	0.00	0.00	0.00	0.00	-2.554199	-0.658691	-0.438965	54.880001	6.720000	41.299999	11.00	0.00	0.00	0.75	0.75	0.50	3.25	0.75	6.00	2.00	7.50	7.75	7.75	9.00	8.25	9.25	7.50	2.00	6.25	-0.208496	0.075195	1.052734	25.830000	37.029999	-2.590000	836.00	0.14	-0.12
3.07	0.00	0.00	0.00	0.00	0.25	0.00	0.00	0.00	0.00	0.00	0.00	0.00	0.00	0.00	0.00	0.00	-2.554199	-0.658691	-0.438965	54.880001	6.720000	41.299999	3.00	0.00	0.00	0.50	1.00	0.50	2.50	0.50	5.75	1.50	7.25	7.75	7.75	9.50	8.75	9.50	8.25	2.00	6.50	-0.199707	0.094727	0.989746	37.240002	54.810001	-2.590000	832.00	0.15	-0.13
3.08	0.00	0.00	0.00	0.00	0.50	0.00	0.00	0.00	0.00	0.00	0.00	0.00	0.00	0.00	0.00	0.00	-2.254395	-0.575195	-0.128906	47.389999	51.520000	13.650000	5.00	0.00	0.00	0.50	0.75	0.50	2.75	0.25	5.25	1.50	7.00	8.25	8.25	9.75	9.00	9.75	9.25	2.00	7.00	-0.196289	0.096191	1.050293	51.450001	75.529999	-3.640000	850.00	0.16	-0.12
3.09	0.00	0.00	0.00	0.00	0.25	0.00	0.00	0.00	0.00	0.00	0.00	0.00	0.00	0.00	0.00	0.00	-1.549316	-0.152344	0.508301	22.260000	98.349998	-12.880000	3.00	0.00	0.00	0.50	0.75	0.50	2.00	0.00	5.00	1.25	6.50	8.00	8.00	10.00	9.75	10.00	9.75	2.50	7.00	-0.172363	0.086914	1.024902	63.000000	96.180000	-4.690000	842.00	0.17	-0.12
3.10	0.25	0.50	0.25	0.00	0.25	0.00	0.00	0.00	0.00	0.00	0.00	0.00	0.00	0.00	0.00	0.00	-0.947754	-0.067383	2.043457	-90.019997	184.520004	-21.559999	13.00	0.00	0.00	0.50	0.00	0.00	1.75	0.00	3.50	1.00	6.00	8.25	8.25	10.25	9.75	10.25	10.50	2.50	7.25	-0.229492	0.144531	1.054199	57.400002	100.029999	-11.270000	817.00	0.19	-0.11
3.11	1.00	1.75	0.50	0.50	0.25	0.00	0.00	0.00	0.00	0.00	0.00	0.00	0.00	0.00	0.00	0.00	0.736328	0.628906	1.068848	-131.110001	189.630005	-20.510000	40.00	0.00	0.00	0.75	0.50	0.00	1.75	0.00	3.50	0.75	5.50	8.00	8.25	10.50	10.00	10.50	11.50	2.75	7.75	-0.276367	0.108887	1.047363	61.670002	118.160004	-11.340000	831.00	0.19	-0.11
3.12	1.75	3.00	0.25	1.25	0.50	0.00	0.00	0.00	0.00	0.00	0.00	0.00	0.00	0.00	0.00	0.00	0.013672	0.582520	1.408203	-64.190002	132.440002	-8.470000	68.00	-0.36	-0.08	0.50	0.00	0.00	1.75	0.00	2.75	0.75	5.00	8.00	8.00	10.50	10.25	10.50	12.25	2.50	7.75	-0.260254	0.165039	1.104980	65.309998	136.919998	-11.270000	812.00	0.20	-0.11
3.13	2.75	5.00	1.00	1.75	0.50	0.00	0.00	0.00	0.00	0.00	0.00	0.00	0.00	0.00	0.00	0.00	-0.129883	0.225098	0.594238	-20.440001	135.309998	16.379999	110.00	-0.36	-0.07	0.50	0.25	0.00	1.50	0.00	2.75	0.50	3.75	7.75	7.75	10.50	10.25	10.50	13.00	3.00	8.25	-0.273926	0.173340	1.079590	69.160004	159.669998	-13.860000	797.00	0.21	-0.10
3.14	4.00	7.25	1.00	2.75	0.50	0.00	0.00	0.00	0.00	0.00	0.00	0.00	0.25	0.00	0.00	0.00	-0.094238	-0.002930	0.166016	-11.340000	187.180008	17.290001	157.00	-0.36	-0.08	0.25	0.25	0.25	1.50	0.00	1.50	0.25	3.75	7.50	7.75	10.50	10.25	10.50	13.75	2.75	8.25	-0.277344	0.244141	1.066895	71.889999	185.289993	-16.379999	780.00	0.22	-0.10
3.15	6.50	8.75	1.25	3.75	0.50	0.00	0.00	0.00	0.00	0.00	0.00	0.00	0.25	0.00	0.00	0.00	-0.376953	-0.303223	1.682617	-4.900000	243.460007	9.730000	211.00	-0.36	-0.07	0.25	0.00	0.00	1.25	0.00	1.50	0.25	3.25	7.25	7.25	10.25	10.00	10.25	14.50	3.00	8.50	-0.409668	0.154785	1.067383	73.709999	210.910004	-17.570000	759.00	0.23	-0.10
3.16	8.75	11.25	1.50	4.75	1.00	0.00	0.00	0.00	0.00	0.00	0.00	0.00	0.00	0.00	0.00	0.00	-0.593262	-0.689453	2.535156	-4.690000	247.660004	-3.430000	274.00	-0.37	-0.06	0.50	0.25	0.00	1.25	0.00	1.00	0.00	2.75	6.75	6.50	10.25	10.00	10.00	15.25	3.25	8.75	-0.440918	0.150391	1.065430	70.419998	228.059998	-20.160000	741.00	0.24	-0.10
3.17	10.75	13.25	2.25	5.50	1.25	1.00	0.00	0.00	0.00	0.00	0.00	0.00	0.25	0.00	0.00	0.00	-0.779785	-0.431152	2.160645	-25.410000	219.869995	-40.040001	345.00	-0.36	-0.07	0.25	0.00	0.00	1.00	0.00	0.75	0.00	2.50	6.25	5.75	9.75	9.75	9.50	16.00	3.00	8.75	-0.451172	0.285645	1.213379	72.800003	251.720001	-22.120001	704.00	0.25	-0.09
3.18	12.25	14.75	2.75	6.75	1.75	2.00	0.00	0.75	0.00	0.00	0.00	0.00	0.50	0.25	0.00	0.00	-0.659180	0.576660	2.931152	-34.090000	177.449997	-56.420002	426.00	-0.33	-0.08	0.25	0.00	0.00	0.75	0.00	0.75	0.00	2.25	5.75	5.25	9.25	9.25	9.00	16.25	3.25	8.75	-0.507812	0.270020	1.261230	69.790001	272.510010	-27.510000	676.00	0.25	-0.09
3.19	13.75	15.75	3.25	7.75	2.00	2.75	0.00	0.75	0.00	0.00	0.00	0.00	0.50	0.25	0.00	0.00	-0.557617	0.895020	0.926758	-82.669998	86.800003	-29.750000	478.00	-0.33	-0.08	0.25	0.00	0.00	0.75	0.00	0.00	0.00	2.00	5.25	5.00	9.00	8.75	8.50	16.00	3.00	9.00	-0.507324	0.357422	1.204590	59.849998	296.589996	-32.759998	639.00	0.26	-0.09
3.20	14.50	16.00	3.50	8.25	2.00	3.50	0.25	1.00	0.00	0.00	0.00	0.00	0.50	0.00	0.00	0.00	-0.300781	0.088379	1.061523	-101.919998	63.000000	-3.430000	510.00	-0.33	-0.08	0.00	0.00	0.00	0.50	0.00	0.00	0.00	2.00	5.00	4.75	8.25	8.25	8.00	15.50	3.50	9.00	-0.541016	0.284668	1.148438	54.040001	322.140015	-39.480000	611.00	0.27	-0.09
3.21	14.75	16.50	3.25	8.25	2.25	3.50	0.25	1.00	0.00	0.00	0.00	0.00	0.50	0.25	0.00	0.00	-0.181152	-0.227051	1.289551	-90.019997	57.610001	-2.380000	520.00	-0.32	-0.08	0.00	0.00	0.00	0.25	0.00	0.25	0.00	1.50	4.00	4.50	8.00	7.75	7.50	14.25	3.25	8.50	-0.566406	0.297363	1.093262	31.430000	353.989990	-48.720001	560.00	0.27	-0.09
3.22	13.75	16.25	3.50	8.50	2.25	4.00	0.25	1.25	0.00	0.00	0.00	0.00	0.75	0.25	0.00	0.00	-0.269043	0.099609	1.102051	-58.730000	32.480000	-6.440000	524.00	-0.31	-0.09	0.00	0.25	0.00	0.25	0.00	0.25	0.00	1.25	3.25	4.25	7.25	6.75	6.75	12.50	2.75	7.75	-0.760742	0.150391	1.538574	1.470000	387.519989	-58.310001	497.00	0.27	-0.10
3.23	14.00	15.75	3.50	9.00	2.25	4.50	0.25	1.25	0.00	0.00	0.00	0.00	0.75	0.25	0.00	0.00	-0.213379	0.181641	0.949707	-42.840000	23.100000	-1.330000	533.00	-0.31	-0.09	0.00	0.00	0.00	0.00	0.00	0.00	0.00	1.00	2.75	4.25	6.00	5.75	5.75	10.25	2.25	6.50	-0.855957	0.355469	1.714355	-24.150000	415.869995	-60.340000	415.00	0.27	-0.09
3.24	14.25	16.25	3.25	8.75	2.50	4.50	0.25	1.25	0.00	0.00	0.00	0.00	0.75	0.00	0.00	0.00	-0.181641	0.043945	1.020508	-36.820000	24.290001	2.100000	535.00	-0.32	-0.09	0.00	0.00	0.00	0.00	0.00	0.00	0.00	0.75	2.50	3.50	4.75	4.50	5.00	8.50	2.00	5.50	-1.379883	0.483887	2.587891	21.700001	433.929993	-42.910000	345.00	0.27	-0.09
3.25	13.75	16.00	3.50	9.25	2.50	5.25	0.50	1.75	0.00	0.00	0.00	0.00	1.00	0.25	0.00	0.00	-0.172852	0.090332	0.960938	-33.529999	15.540000	1.120000	560.00	-0.30	-0.10	0.00	0.00	0.00	0.00	0.00	0.25	0.25	0.50	2.25	3.25	3.50	3.75	3.75	6.75	1.75	4.75	-1.379883	0.483887	2.587891	21.700001	433.929993	-42.910000	288.00	0.27	-0.08
3.26	13.50	16.25	3.75	9.50	2.75	5.50	0.50	1.75	0.00	0.25	0.00	0.00	0.75	0.50	0.00	0.25	-0.185059	0.133789	0.962891	-35.490002	10.010000	0.280000	574.00	-0.29	-0.10	0.00	0.00	0.00	0.00	0.00	0.00	0.25	0.25	1.75	2.75	3.00	3.00	3.00	5.50	1.50	3.25	-1.363281	0.428711	2.545898	53.270000	425.390015	-35.070000	229.00	0.28	-0.07
3.27	13.50	16.50	3.75	9.50	3.00	6.00	0.50	1.75	0.50	0.25	0.00	0.00	1.00	0.00	0.00	0.25	-0.174316	0.041504	0.962402	-35.980000	9.520000	-0.070000	589.00	-0.29	-0.10	0.00	0.00	0.00	0.00	0.00	0.00	0.25	0.00	1.50	2.00	2.25	2.25	2.00	4.25	1.00	2.25	-0.707520	0.456055	2.105469	91.419998	388.640015	-44.380001	168.00	0.28	-0.05
3.28	13.25	15.75	4.00	9.75	3.25	6.75	0.50	2.00	0.50	0.25	0.00	0.00	1.00	0.50	0.00	0.25	-0.171875	0.050781	0.942871	-33.810001	0.770000	-1.680000	604.00	-0.28	-0.10	0.00	0.00	0.00	0.00	0.00	0.00	0.25	0.00	1.00	1.75	1.75	1.75	1.75	2.25	0.75	1.50	-0.199707	0.397949	1.497559	116.900002	370.720001	-58.240002	122.00	0.27	-0.07
3.29	13.00	15.75	4.25	9.75	4.00	7.00	0.75	2.50	0.25	0.50	0.25	0.25	1.00	0.75	0.00	0.25	-0.171875	0.038086	0.948242	-26.600000	-4.200000	-2.800000	634.00	-0.26	-0.10	0.00	0.00	0.25	0.00	0.00	0.00	0.25	0.00	1.00	1.25	1.00	1.25	1.25	0.75	0.50	1.00	0.228516	0.459961	1.211914	128.869995	339.010010	-76.860001	84.00	0.23	-0.07
3.30	12.50	15.75	4.50	9.75	4.50	7.25	0.75	3.25	0.25	0.25	0.25	0.25	1.25	0.25	0.00	0.25	-0.202637	0.099121	0.938965	-17.360001	-4.130000	-4.060000	646.00	-0.26	-0.11	0.00	0.00	0.25	0.00	0.00	0.00	0.25	0.00	0.50	1.00	1.00	1.25	1.50	0.50	0.25	0.75	1.100586	-0.344238	1.237793	115.779999	288.329987	-97.790001	71.00	0.22	-0.12
3.31	12.25	15.25	4.25	10.00	5.00	7.75	0.75	3.75	0.75	0.25	0.25	0.25	1.50	0.75	0.00	0.50	-0.155762	-0.003418	0.946289	-14.420000	-3.500000	-3.640000	672.00	-0.24	-0.11	0.00	0.00	0.00	0.25	0.00	0.00	0.50	0.00	0.50	0.75	0.75	0.75	1.00	0.25	0.25	0.50	0.315918	0.477051	2.010254	60.130001	210.279999	-143.500000	57.00	0.20	-0.08
3.32	11.75	15.00	4.75	10.00	5.75	8.00	0.75	4.25	0.50	0.25	0.25	0.50	1.25	1.00	0.00	0.50	-0.167480	-0.012695	0.955566	-11.620000	-2.660000	-3.920000	688.00	-0.24	-0.11	0.00	0.00	0.00	0.00	0.00	0.00	0.25	0.00	0.50	1.00	0.75	0.75	0.75	0.25	0.00	0.50	0.599609	0.504883	3.187988	67.760002	54.880001	-141.330002	48.00	0.00	0.00
3.33	11.25	14.50	4.50	10.00	6.25	8.00	1.00	5.00	1.00	0.50	0.25	0.25	1.75	0.75	0.00	0.50	-0.191895	0.001465	0.950195	-8.260000	-1.890000	-3.010000	705.00	-0.22	-0.11	0.00	0.00	0.25	0.00	0.00	0.00	0.25	0.00	0.50	0.75	0.75	0.50	0.25	0.00	0.00	0.25	0.708496	-0.000977	1.801758	74.340004	-57.959999	-147.419998	38.00	0.00	0.00
3.34	10.50	13.75	4.25	9.75	6.25	8.50	1.00	5.00	1.25	0.25	0.50	0.50	2.00	1.25	0.00	0.75	-0.185547	0.019531	0.958496	-5.600000	-0.350000	-2.380000	703.00	-0.21	-0.12	0.00	0.25	0.00	0.00	0.00	0.00	0.25	0.00	0.50	0.75	0.75	0.25	0.50	0.00	0.00	0.25	0.553223	-0.139160	1.297363	42.840000	-122.989998	-167.580002	37.00	0.00	0.00
3.35	10.00	13.25	4.50	9.75	6.50	8.50	1.00	5.25	1.50	0.50	0.50	0.75	2.00	1.50	0.00	0.75	-0.177246	0.014648	0.952637	-3.710000	1.120000	-1.470000	714.00	-0.20	-0.11	0.00	0.00	0.25	0.00	0.00	0.00	0.50	0.00	0.50	1.00	0.50	0.25	0.50	0.00	0.25	0.25	0.379395	-0.077637	0.861816	7.210000	-155.190002	-184.800003	44.00	0.00	0.00
3.36	9.25	12.50	4.25	9.50	6.75	8.75	1.00	5.50	1.50	0.75	0.75	0.50	2.25	1.25	0.00	0.75	-0.163086	-0.039062	0.970215	-2.660000	2.940000	-1.890000	705.00	-0.19	-0.12	0.00	0.00	0.00	0.00	0.00	0.00	0.50	0.00	0.25	0.50	0.25	0.25	0.25	0.00	0.00	0.25	0.277344	0.106445	0.746094	-20.510000	-173.250000	-197.960007	25.00	0.00	0.00
3.37	8.50	11.75	4.00	9.00	6.75	8.75	1.00	5.75	1.50	0.75	0.75	0.75	2.25	1.25	0.25	1.00	-0.160156	0.024414	0.960449	-2.380000	4.760000	-2.030000	693.00	-0.18	-0.12	0.00	0.00	0.00	0.00	0.00	0.25	0.25	0.00	0.50	0.75	0.25	0.00	0.25	0.00	0.00	0.50	0.261230	0.291992	0.719238	-34.930000	-190.889999	-202.369995	28.00	0.00	0.00
3.38	8.00	11.00	4.00	8.75	6.75	8.75	1.25	6.00	2.00	0.75	0.75	0.75	2.25	1.75	0.00	1.00	-0.180664	0.037109	0.965332	-2.170000	6.160000	-1.890000	694.00	-0.17	-0.12	0.00	0.00	0.25	0.00	0.00	0.00	0.25	0.00	0.25	0.75	0.25	0.00	0.50	0.00	0.00	0.50	0.261230	0.447754	0.700195	-36.820000	-209.509995	-195.789993	27.00	0.00	0.00
3.39	7.25	10.00	4.00	8.50	7.00	8.75	1.25	6.25	1.75	1.00	1.00	0.75	2.75	1.75	0.25	1.25	-0.166992	0.038086	0.953613	-1.750000	6.720000	-1.540000	691.00	-0.15	-0.12	0.00	0.00	0.00	0.00	0.00	0.00	0.50	0.00	0.25	0.50	0.25	0.25	0.00	0.00	0.00	0.25	0.251953	0.555664	0.734375	-32.060001	-229.529999	-179.970001	23.00	0.00	0.00
3.40	6.50	9.00	3.50	8.00	7.25	9.00	1.50	6.25	2.25	1.00	1.25	1.25	2.75	2.00	0.00	1.25	-0.170410	0.041992	0.971680	-1.890000	7.420000	-2.240000	686.00	-0.13	-0.12	0.00	0.00	0.25	0.00	0.00	0.00	0.50	0.00	0.25	0.75	0.25	0.00	0.25	0.00	0.00	0.25	0.244141	0.623535	0.749023	-25.340000	-249.059998	-157.360001	28.00	0.00	0.00
3.41	5.75	8.50	3.00	7.75	7.25	8.75	1.50	6.50	2.50	0.75	1.25	1.25	2.75	2.25	0.25	1.50	-0.179199	0.027832	0.959473	-2.100000	8.820000	-2.800000	673.00	-0.12	-0.12	0.00	0.00	0.00	0.25	0.00	0.00	0.50	0.00	0.50	0.50	0.00	0.00	0.00	0.00	0.00	0.25	0.219238	0.705078	0.776855	-16.799999	-266.489990	-130.690002	23.00	0.00	0.00
3.42	5.25	7.50	3.00	7.25	7.25	8.75	1.50	6.50	3.00	1.00	1.25	1.50	3.25	2.50	0.25	1.50	-0.169922	0.121094	0.974609	-2.240000	10.500000	-3.430000	672.00	-0.10	-0.12	0.00	0.00	0.00	0.00	0.00	0.00	0.50	0.00	0.25	0.50	0.00	0.00	0.00	0.00	0.00	0.25	0.187988	0.762207	0.804688	-1.540000	-281.959991	-101.500000	17.00	0.00	0.00
3.43	5.00	7.00	2.50	6.75	7.00	8.75	1.50	6.75	2.75	1.25	1.50	1.75	3.25	2.50	0.50	1.50	-0.172363	0.043945	0.968750	-1.890000	11.760000	-3.640000	662.00	-0.09	-0.13	0.00	0.00	0.00	0.00	0.00	0.00	0.25	0.00	0.25	0.25	0.00	0.00	0.00	0.00	0.00	0.25	0.131348	0.776367	0.853516	23.450001	-296.029999	-72.449997	11.00	0.00	0.00
3.44	4.25	6.50	2.50	6.25	7.00	8.75	1.50	6.75	3.25	1.00	1.50	1.75	3.50	3.00	0.25	1.75	-0.138672	0.159180	0.955566	-2.030000	12.880000	-4.060000	653.00	-0.08	-0.13	0.00	0.00	0.00	0.00	0.00	0.00	0.50	0.00	0.50	0.50	0.00	0.00	0.25	0.00	0.00	0.25	0.043945	0.710449	0.884277	55.299999	-307.860016	-46.410000	23.00	0.00	0.00
3.45	4.00	5.75	2.25	6.00	6.75	8.50	1.75	7.00	3.50	1.25	1.50	1.75	3.50	3.50	0.50	1.75	-0.176270	0.044434	0.972656	-1.330000	14.280000	-3.990000	653.00	-0.06	-0.12	0.00	0.00	0.25	0.00	0.00	0.00	0.25	0.00	0.50	0.50	0.00	0.00	0.25	0.00	0.00	0.00	-0.226074	0.453125	1.044922	115.150002	-321.649994	-12.180000	20.00	0.00	0.00
3.46	3.25	5.50	2.00	5.75	6.75	8.25	1.75	6.75	3.50	1.75	1.75	2.25	4.00	3.50	0.50	1.75	-0.166992	0.021973	0.961914	-0.280000	15.890000	-3.990000	648.00	-0.05	-0.12	0.00	0.00	0.00	0.00	0.00	0.00	0.50	0.00	0.00	0.50	0.00	0.00	0.00	0.00	0.00	0.00	-0.226074	0.453125	1.044922	115.150002	-321.649994	-12.180000	13.00	0.00	0.00
3.47	3.00	5.25	1.75	5.50	6.25	8.00	1.75	6.75	3.50	1.75	2.00	2.25	4.00	3.75	0.50	2.00	-0.189941	0.014648	0.957031	0.140000	17.080000	-3.500000	636.00	-0.04	-0.13	0.00	0.00	0.00	0.00	0.00	0.00	0.50	0.00	0.25	0.50	0.00	0.00	0.25	0.00	0.00	0.25	-0.613281	0.245605	1.276367	139.509995	-326.899994	2.170000	20.00	0.00	0.00
3.48	2.75	4.75	1.50	5.00	5.75	7.75	1.75	6.75	4.00	1.75	2.25	2.50	4.50	4.25	0.75	2.00	-0.149414	0.058105	0.957520	1.610000	17.850000	-4.200000	635.00	-0.02	-0.12	0.00	0.00	0.00	0.00	0.00	0.00	0.25	0.00	0.25	0.50	0.00	0.00	0.00	0.00	0.00	0.00	-0.734375	0.196777	1.355469	128.449997	-324.869995	9.870000	12.00	0.00	0.00
3.49	2.50	3.75	1.25	4.75	5.50	7.50	1.50	6.50	4.25	2.00	2.25	2.75	4.50	4.75	0.75	2.00	-0.200195	0.023438	0.950195	2.450000	17.920000	-3.780000	617.00	-0.00	-0.12	0.00	0.00	0.00	0.00	0.00	0.00	0.25	0.00	0.25	0.50	0.00	0.00	0.25	0.00	0.00	0.25	-0.918945	0.222656	1.439941	116.410004	-321.369995	18.830000	16.00	0.00	0.00
3.50	2.25	3.75	1.25	4.25	5.25	7.25	1.50	6.50	4.25	2.25	2.75	3.25	5.25	5.00	0.75	2.25	-0.200195	0.023438	0.950195	2.450000	17.920000	-3.780000	627.00	0.01	-0.12	0.00	0.00	0.00	0.00	0.00	0.00	0.25	0.00	0.25	0.50	0.00	0.00	0.25	0.00	0.00	0.00	-1.088867	0.231934	1.434570	116.830002	-317.100006	28.210001	14.00	0.00	0.00
3.51	2.00	3.25	0.75	3.75	4.75	6.75	1.50	6.50	4.75	2.50	3.00	3.50	5.25	5.00	0.75	2.25	-0.420898	0.100586	0.955566	3.010000	17.639999	-3.500000	612.00	0.03	-0.12	0.00	0.25	0.00	0.00	0.00	0.00	0.25	0.00	0.25	0.25	0.00	0.00	0.00	0.00	0.00	0.00	-1.111816	0.212402	1.353027	123.970001	-307.720001	38.500000	12.00	0.00	0.00
3.52	1.75	2.50	1.00	3.75	4.50	6.50	1.50	6.50	5.00	2.50	3.25	3.75	5.50	5.50	0.75	2.50	-0.197266	0.037598	0.977051	3.150000	17.430000	-3.290000	616.00	0.04	-0.12	0.00	0.00	0.00	0.00	0.00	0.00	0.25	0.00	0.25	0.25	0.00	0.00	0.00	0.00	0.00	0.00	-1.071289	0.208008	1.310059	127.470001	-292.390015	51.029999	10.00	0.00	0.00
3.53	1.75	2.75	0.75	3.00	4.00	6.25	1.50	6.25	5.00	2.75	3.50	4.00	5.50	5.75	0.75	2.50	-0.177734	0.041992	0.948242	3.430000	17.639999	-3.990000	606.00	0.05	-0.12	0.00	0.00	0.25	0.00	0.00	0.00	0.25	0.00	0.00	0.50	0.00	0.00	0.25	0.00	0.00	0.00	-1.039551	0.227539	1.370117	124.320000	-274.959991	66.500000	14.00	0.00	0.00
3.54	1.50	2.75	0.50	3.00	3.50	6.25	1.50	6.25	5.25	3.00	4.00	4.25	5.75	6.00	0.75	2.50	-0.206543	0.037109	0.963867	3.640000	17.360001	-3.500000	613.00	0.06	-0.12	0.00	0.00	0.25	0.00	0.00	0.00	0.50	0.00	0.25	0.25	0.00	0.00	0.25	0.00	0.00	0.00	-1.032227	0.217285	1.447266	119.559998	-259.209991	83.580002	18.00	0.00	0.00
3.55	1.25	2.25	0.75	3.25	3.25	6.00	1.25	6.50	5.25	3.00	4.25	4.25	5.75	6.75	0.75	2.50	-0.154297	0.056152	0.955078	3.780000	16.940001	-3.430000	615.00	0.07	-0.12	0.00	0.00	0.25	0.00	0.00	0.25	0.25	0.00	0.00	0.25	0.00	0.00	0.00	0.00	0.00	0.00	-1.017578	0.167480	1.486328	115.570000	-245.839996	100.730003	12.00	0.00	0.00
3.56	1.25	2.25	0.75	3.00	3.00	5.50	1.25	6.25	5.50	3.25	5.25	5.25	6.00	7.00	0.75	2.50	-0.200684	0.043945	0.965820	3.780000	16.730000	-3.220000	631.00	0.08	-0.12	0.00	0.00	0.00	0.00	0.00	0.00	0.50	0.00	0.25	0.25	0.00	0.00	0.00	0.00	0.00	0.00	-1.001465	0.137695	1.552734	112.419998	-233.729996	115.849998	13.00	0.00	0.00
3.57	1.00	1.75	0.75	2.50	2.50	5.50	1.25	6.25	5.50	3.75	6.00	5.75	6.25	7.50	1.00	2.75	-0.238281	0.038574	0.941406	4.340000	16.730000	-3.080000	642.00	0.10	-0.12	0.00	0.00	0.00	0.00	0.00	0.00	0.50	0.00	0.25	0.50	0.25	0.00	0.00	0.00	0.00	0.00	-0.987305	0.089844	1.606934	111.650002	-224.070007	127.470001	19.00	0.00	0.00
3.58	1.25	1.75	0.50	2.50	2.50	5.25	1.25	6.25	6.50	3.75	6.25	6.00	6.50	7.75	1.25	3.00	-0.205566	0.022461	0.955078	4.620000	16.660000	-3.150000	665.00	0.11	-0.11	0.00	0.00	0.00	0.25	0.00	0.00	0.25	0.00	0.25	0.50	0.00	0.00	0.25	0.00	0.00	0.00	-0.985352	0.017578	1.657715	111.930000	-217.559998	135.589996	17.00	0.00	0.00
3.59	1.25	1.75	0.25	2.50	2.25	5.25	1.25	6.25	6.50	4.00	7.25	6.50	6.50	8.25	1.25	3.25	-0.204590	0.053711	0.949219	5.180000	16.870001	-3.220000	684.00	0.12	-0.11	0.00	0.25	0.25	0.00	0.00	0.00	0.50	0.00	0.00	0.50	0.00	0.00	0.00	0.00	0.00	0.00	-0.996094	-0.083008	1.643555	104.790001	-212.869995	139.860001	18.00	0.00	0.00
3.60	1.25	1.50	0.25	2.25	2.00	5.00	1.00	6.50	6.75	4.50	7.75	7.25	7.00	8.75	1.25	3.50	-0.029297	-0.197754	0.967773	5.530000	17.500000	-1.680000	705.00	0.13	-0.12	0.00	0.00	0.25	0.00	0.00	0.00	0.50	0.00	0.00	0.50	0.00	0.00	0.00	0.00	0.00	0.00	-1.029297	-0.142578	1.580566	88.550003	-206.289993	140.770004	16.00	0.00	0.00
3.61	0.75	1.50	0.50	2.00	1.75	5.00	1.00	6.00	6.75	4.50	7.75	7.75	7.00	8.75	1.25	3.75	-0.203125	0.044434	0.969727	6.230000	18.549999	-3.010000	696.00	0.14	-0.12	0.00	0.00	0.00	0.25	0.00	0.25	0.25	0.00	0.25	0.50	0.00	0.00	0.00	0.00	0.00	0.00	-1.106445	-0.129395	1.499023	70.559998	-196.419998	139.229996	18.00	0.00	0.00
3.62	0.75	1.50	0.25	1.75	1.75	4.50	1.00	6.25	7.00	5.25	8.25	7.75	7.25	9.25	1.25	3.75	-0.214844	0.050293	0.960938	7.350000	19.320000	-3.570000	712.00	0.15	-0.11	0.00	0.25	0.00	0.00	0.00	0.00	0.50	0.00	0.25	0.25	0.00	0.00	0.00	0.00	0.00	0.00	-1.225586	-0.056641	1.432617	61.810001	-184.869995	136.990005	16.00	0.00	0.00
3.63	0.75	1.25	0.50	2.00	1.50	4.00	1.00	6.00	7.50	5.50	8.50	8.25	7.50	9.50	1.50	4.00	-0.215820	0.055176	0.952637	8.190000	20.719999	-3.360000	728.00	0.15	-0.11	0.00	0.00	0.00	0.00	0.00	0.00	0.25	0.00	0.25	0.25	0.00	0.00	0.00	0.00	0.00	0.00	-1.346191	-0.008789	1.399902	67.480003	-173.529999	134.470001	10.00	0.00	0.00
3.64	0.75	1.00	0.25	1.25	1.25	4.00	1.00	6.00	7.50	6.00	9.00	8.50	7.75	10.00	1.25	4.25	-0.219727	0.066406	0.960449	9.450000	22.190001	-3.290000	730.00	0.16	-0.11	0.00	0.00	0.25	0.00	0.00	0.00	0.25	0.00	0.50	0.25	0.00	0.00	0.00	0.00	0.00	0.00	-1.447754	-0.002930	1.361328	80.919998	-164.220001	130.410004	16.00	0.00	0.00
3.65	0.75	1.00	0.25	1.50	1.25	3.75	1.00	6.00	7.75	5.75	9.25	8.75	7.75	10.25	1.25	4.75	-0.289062	0.065918	0.978516	11.410000	24.430000	-3.570000	741.00	0.17	-0.11	0.00	0.00	0.00	0.00	0.00	0.00	0.25	0.00	0.25	0.50	0.00	0.00	0.25	0.00	0.00	0.00	-1.544922	-0.002441	1.376953	92.610001	-158.270004	124.669998	14.00	0.00	0.00
3.66	0.50	1.00	0.00	1.75	1.00	3.75	0.50	5.75	7.75	6.75	9.50	9.25	8.00	10.50	1.25	4.75	-0.216797	0.062012	0.954590	13.020000	27.719999	-3.430000	747.00	0.17	-0.11	0.00	0.00	0.00	0.00	0.00	0.00	0.50	0.00	0.25	0.25	0.00	0.00	0.00	0.00	0.00	0.00	-1.631348	-0.010742	1.409668	95.480003	-158.830002	118.580002	13.00	0.00	0.00
3.67	0.25	0.50	0.00	1.50	0.75	3.50	0.75	5.50	7.75	7.25	10.00	9.75	8.25	11.00	1.75	5.00	-0.226562	0.065918	0.959961	15.890000	32.410000	-2.870000	760.00	0.19	-0.11	0.00	0.00	0.00	0.00	0.00	0.00	0.25	0.00	0.00	0.50	0.00	0.00	0.25	0.00	0.00	0.00	-1.770508	-0.191895	0.903809	83.300003	-160.369995	113.610001	11.00	0.00	0.00
3.68	0.25	0.50	0.25	0.75	0.75	3.00	0.50	5.50	8.00	7.25	10.25	10.00	8.25	11.50	1.75	5.00	-0.237305	0.066406	0.961914	19.530001	37.730000	-2.310000	759.00	0.20	-0.10	0.00	0.00	0.00	0.00	0.00	0.00	0.50	0.00	0.00	0.25	0.00	0.00	0.25	0.00	0.00	0.00	-1.861816	-0.374023	0.546875	82.949997	-144.550003	121.870003	12.00	0.00	0.00
3.69	0.00	0.00	0.00	1.00	0.25	1.75	0.50	5.50	8.00	7.50	10.50	10.50	8.75	12.25	1.75	5.25	-0.245605	0.048340	0.971680	22.610001	41.230000	-1.680000	755.00	0.21	-0.10	0.00	0.00	0.00	0.00	0.00	0.00	0.25	0.00	0.25	0.00	0.00	0.00	0.25	0.00	0.00	0.00	-2.031738	-0.413574	0.348633	56.700001	-117.669998	126.139999	9.00	0.00	0.00
3.70	0.25	0.50	0.00	0.25	0.50	2.25	0.25	5.25	8.00	7.50	10.75	10.75	9.00	12.50	2.00	5.50	-0.267578	0.059570	0.968262	27.510000	48.930000	-0.910000	768.00	0.21	-0.10	0.00	0.00	0.00	0.25	0.00	0.00	0.50	0.00	0.25	0.25	0.00	0.00	0.00	0.00	0.00	0.00	-2.346191	-0.226074	0.238770	11.830000	-92.610001	113.470001	16.00	0.00	0.00
3.71	0.25	0.00	0.00	0.75	0.25	2.00	0.25	5.00	8.25	7.75	11.00	10.75	9.00	13.25	1.75	5.50	-0.267578	0.059570	0.968262	27.510000	48.930000	-0.910000	772.00	0.22	-0.10	0.00	0.00	0.00	0.00	0.00	0.00	0.25	0.00	0.25	0.00	0.00	0.00	0.00	0.00	0.00	0.00	-2.478027	-0.088867	-0.032715	1.050000	-70.980003	90.440002	7.00	0.00	0.00
3.72	0.00	0.25	0.25	0.75	0.25	2.00	0.00	4.75	8.25	7.75	11.25	11.50	9.50	13.50	2.25	5.75	-0.274902	0.048828	0.978516	41.230000	66.570000	0.070000	790.00	0.22	-0.10	0.00	0.00	0.25	0.00	0.00	0.00	0.50	0.00	0.00	0.00	0.00	0.00	0.25	0.00	0.00	0.00	-2.500000	-0.183594	-0.342285	34.720001	-44.240002	65.660004	13.00	0.00	0.00
