# time	left pressure 1[N/cm²]	left pressure 2[N/cm²]	left pressure 3[N/cm²]	left pressure 4[N/cm²]	left pressure 5[N/cm²]	left pressure 6[N/cm²]	left pressure 7[N/cm²]	left pressure 8[N/cm²]	left pressure 9[N/cm²]	left pressure 10[N/cm²]	left pressure 11[N/cm²]	left pressure 12[N/cm²]	left pressure 13[N/cm²]	left pressure 14[N/cm²]	left pressure 15[N/cm²]	left pressure 16[N/cm²]	left acceleration X[g]	left acceleration Y[g]	left acceleration Z[g]	left angular X[dps]	left angular Y[dps]	left angular Z[dps]	left total force[N]	left center of pressure X[%]	left center of pressure Y[%]	right pressure 1[N/cm²]	right pressure 2[N/cm²]	right pressure 3[N/cm²]	right pressure 4[N/cm²]	right pressure 5[N/cm²]	right pressure 6[N/cm²]	right pressure 7[N/cm²]	right pressure 8[N/cm²]	right pressure 9[N/cm²]	right pressure 10[N/cm²]	right pressure 11[N/cm²]	right pressure 12[N/cm²]	right pressure 13[N/cm²]	right pressure 14[N/cm²]	right pressure 15[N/cm²]	right pressure 16[N/cm²]	right acceleration X[g]	right acceleration Y[g]	right acceleration Z[g]	right angular X[dps]	right angular Y[dps]	right angular Z[dps]	right total force[N]	right center of pressure X[%]	right center of pressure Y[%]
0.00																										1.00	1.25	2.50	3.50	2.50	1.75	1.50	2.50	2.50	1.75	1.75	2.00	4.50	5.25	0.25	0.50	-0.137695	0.055176	0.976074	-0.630000	7.140000	-1.470000	375.00	0.04	-0.08
0.01																										1.00	1.25	2.25	2.50	2.25	1.75	1.50	2.25	2.25	1.75	1.75	1.75	4.25	5.50	0.50	0.75	-0.148438	0.058594	0.982422	-0.280000	6.650000	-1.680000	353.00	0.06	-0.07
0.02																										1.00	1.00	2.25	2.75	2.00	1.00	1.25	2.25	2.25	1.50	1.75	1.75	4.25	5.50	0.50	0.75	-0.158203	0.057617	0.975098	0.070000	6.020000	-1.540000	336.00	0.06	-0.07
0.03																										0.75	0.75	2.00	2.50	1.75	0.75	1.25	2.25	2.00	1.50	1.75	1.50	4.50	5.25	0.50	0.50	-0.157715	0.059082	0.980469	0.490000	5.040000	-1.190000	313.00	0.08	-0.08
0.04	1.50	2.50	2.75	4.00	3.25	3.25	1.50	2.75	2.25	1.25	1.00	1.25	2.00	3.00	0.25	0.75	-0.187012	0.031250	0.963867	-2.100000	7.350000	-1.050000	364.00	-0.04	-0.08	0.75	0.50	1.75	2.75	1.75	1.00	1.25	2.00	2.00	1.50	1.75	1.75	4.00	5.50	0.25	0.75	-0.159668	0.057617	0.980957	0.910000	4.060000	-0.560000	308.00	0.08	-0.07
0.05	1.25	2.75	2.75	4.25	3.25	3.75	1.50	2.75	2.25	1.50	1.50	1.25	2.25	3.25	0.25	0.75	-0.180664	0.029297	0.961914	-1.330000	7.070000	-0.770000	384.00	-0.03	-0.08	0.75	0.75	1.75	2.25	1.50	0.75	1.25	2.00	2.00	1.25	1.75	1.75	4.25	5.50	0.50	0.50	-0.160156	0.058105	0.979492	1.400000	2.870000	0.350000	300.00	0.09	-0.07
0.06																										0.50	0.75	1.50	2.00	1.50	0.75	1.25	2.00	2.00	1.50	1.75	1.50	4.25	5.50	0.50	0.50	-0.163574	0.060059	0.981934	1.750000	2.030000	1.050000	292.00	0.10	-0.07
0.07	1.50	2.25	2.75	4.25	3.50	3.75	1.50	3.25	3.00	1.75	1.50	1.00	2.50	3.50	0.50	0.75	-0.172363	0.032227	0.958984	-0.140000	7.000000	-0.560000	409.00	-0.02	-0.08	0.50	0.50	1.50	2.00	1.25	0.50	1.25	2.00	2.00	1.25	1.75	1.50	4.25	5.50	0.25	0.50	-0.161621	0.061523	0.984863	1.540000	1.330000	1.610000	279.00	0.10	-0.07
0.08	1.50	2.50	2.75	4.25	3.75	4.00	1.50	3.50	3.00	1.75	1.75	1.50	2.50	3.75	0.25	0.75	-0.172363	0.039062	0.958984	-0.210000	7.140000	-0.700000	428.00	-0.02	-0.08	0.50	0.25	1.25	2.25	1.25	0.50	1.25	2.00	1.75	1.50	2.00	1.75	4.00	5.50	0.25	0.75	-0.156738	0.071289	0.978027	1.120000	0.840000	1.820000	281.00	0.11	-0.08
0.09	1.25	2.50	2.75	4.25	3.75	4.00	1.75	3.75	3.00	1.75	1.50	1.25	2.50	3.75	0.25	0.75	-0.176758	0.042969	0.958984	-0.560000	7.560000	-1.120000	428.00	-0.02	-0.08	0.25	0.50	1.25	1.75	1.25	0.50	1.25	2.00	1.75	1.50	1.75	1.50	4.25	5.50	0.50	0.50	-0.153809	0.063965	0.976074	0.700000	0.420000	1.890000	273.00	0.12	-0.08
0.10	1.25	2.50	2.75	4.00	4.00	3.75	1.75	3.75	3.25	1.50	1.50	1.50	2.75	4.00	0.50	0.75	-0.178711	0.038574	0.962402	-1.470000	7.980000	-1.470000	436.00	-0.01	-0.08	0.25	0.50	1.25	1.50	1.00	0.25	1.25	1.75	1.75	1.50	1.75	1.75	4.25	5.25	0.25	0.50	-0.152832	0.062988	0.979004	0.140000	0.000000	1.610000	259.00	0.12	-0.07
0.11	1.25	2.25	2.75	3.75	4.25	4.00	1.75	4.00	3.75	2.00	1.75	1.50	2.75	3.75	0.50	0.75	-0.175781	0.042480	0.965332	-2.240000	8.260000	-1.820000	452.00	0.00	-0.08	0.25	0.25	1.25	2.00	1.00	0.50	1.25	2.00	1.75	1.50	1.50	1.75	4.25	5.25	0.25	0.75	-0.158203	0.066895	0.976562	-0.420000	-0.350000	1.260000	267.00	0.12	-0.08
0.12	1.25	2.50	2.75	4.00	4.25	4.00	2.00	4.00	3.75	2.00	2.00	1.50	3.00	4.50	0.50	0.75	-0.181152	0.039062	0.961914	-2.730000	8.400000	-2.030000	472.00	0.01	-0.07	0.25	0.25	1.25	2.00	1.00	0.50	1.25	2.00	1.75	1.25	1.75	1.75	4.00	5.50	0.25	0.50	-0.149414	0.067871	0.974609	-0.980000	-0.420000	0.700000	266.00	0.12	-0.08
0.13	1.50	2.50	3.00	4.00	4.50	4.00	2.25	4.50	4.00	2.00	1.75	1.50	2.75	5.00	0.75	1.00	-0.186523	0.037109	0.965820	-3.290000	8.680000	-2.170000	498.00	0.01	-0.07	0.50	0.25	1.00	2.00	1.00	0.25	1.25	1.75	2.00	1.25	1.50	1.75	4.00	5.25	0.50	0.50	-0.152344	0.069824	0.980469	-1.470000	-0.210000	0.140000	261.00	0.12	-0.07
0.14	1.25	2.25	3.00	3.75	4.50	4.25	2.00	4.75	4.00	2.25	2.00	1.50	3.00	5.00	0.25	1.00	-0.175293	0.028809	0.952637	-3.570000	8.750000	-2.170000	496.00	0.01	-0.07	0.25	0.25	1.00	2.00	1.00	0.00	1.00	1.75	1.75	1.25	1.50	1.75	4.25	5.25	0.50	0.75	-0.157227	0.064941	0.979492	-1.820000	0.140000	-0.350000	252.00	0.13	-0.08
0.15	1.25	2.25	2.75	3.75	4.50	4.00	2.25	4.50	4.25	2.25	2.00	1.75	3.00	5.25	0.75	0.75	-0.157715	0.039062	0.958984	-3.990000	9.030000	-2.100000	502.00	0.02	-0.07	0.25	0.50	1.00	2.00	1.00	0.25	1.25	1.75	2.00	1.50	1.75	2.00	4.25	5.50	0.50	0.50	-0.157227	0.068848	0.981934	-2.240000	0.630000	-0.700000	272.00	0.13	-0.08
0.16	1.50	2.00	2.50	4.00	4.75	4.00	2.50	4.75	4.50	2.25	2.00	1.75	3.25	6.00	0.75	1.00	-0.173828	0.032715	0.966797	-4.480000	9.800000	-2.380000	526.00	0.03	-0.06	0.25	0.50	1.25	2.00	1.00	0.25	1.00	1.75	2.00	1.25	1.50	1.75	4.25	5.50	0.25	0.75	-0.156738	0.065918	0.980957	-2.450000	1.120000	-0.910000	262.00	0.12	-0.08
0.17	1.25	2.00	2.75	3.75	4.50	3.75	2.50	4.50	5.00	2.25	2.00	1.50	3.25	6.00	0.50	1.00	-0.183594	0.030762	0.967285	-4.830000	11.130000	-2.310000	515.00	0.03	-0.05	0.25	0.00	1.00	1.50	1.00	0.00	1.00	1.75	1.75	1.25	1.75	2.00	4.00	5.50	0.00	0.75	-0.163086	0.062500	0.985352	-2.520000	1.610000	-0.980000	244.00	0.14	-0.08
0.18	1.00	2.00	2.50	3.50	4.50	3.75	2.50	4.75	5.00	2.25	1.75	1.50	3.25	6.75	0.75	1.00	-0.180664	0.024414	0.964844	-4.550000	12.040000	-2.240000	517.00	0.04	-0.05	0.25	0.00	1.25	1.50	0.75	0.25	1.00	1.75	1.50	1.50	1.50	1.75	4.25	5.50	0.25	0.75	-0.159180	0.062012	0.987793	-1.960000	2.800000	-0.210000	245.00	0.14	-0.08
0.19	1.25	2.25	2.50	3.50	4.25	3.50	2.50	4.75	5.25	2.25	2.00	1.75	3.25	7.50	0.75	1.00	-0.181641	0.036621	0.964844	-4.480000	13.020000	-2.100000	532.00	0.05	-0.05	0.50	0.50	1.25	1.75	0.75	0.00	1.00	1.75	2.00	1.25	1.50	2.00	4.00	5.50	0.50	0.75	-0.163574	0.060547	0.985840	-1.470000	3.500000	0.210000	260.00	0.13	-0.07
0.20	1.00	2.00	2.50	3.50	4.25	3.50	2.50	4.50	5.25	2.75	2.00	1.75	3.25	7.75	0.75	1.25	-0.185059	0.032715	0.964355	-4.690000	13.790000	-2.100000	532.00	0.06	-0.05	0.25	0.25	1.00	1.50	0.75	0.25	1.00	1.50	1.75	1.25	1.75	1.75	4.25	5.75	0.50	0.50	-0.159180	0.059570	0.989258	-0.630000	4.270000	0.700000	248.00	0.15	-0.07
0.21	1.00	1.75	2.25	3.25	4.25	3.25	2.75	4.75	5.50	2.75	2.00	1.50	3.25	8.50	0.75	1.25	-0.182129	0.031250	0.967773	-5.040000	14.560000	-2.380000	536.00	0.07	-0.04	0.25	0.25	1.00	1.75	0.75	0.00	1.00	1.25	2.00	1.25	1.75	1.75	4.25	5.75	0.50	0.50	-0.159668	0.067871	0.984375	-0.140000	4.760000	0.980000	247.00	0.15	-0.06
0.22	1.25	2.00	2.25	3.00	4.25	3.00	2.75	4.50	6.25	2.75	2.00	1.75	3.25	8.75	0.75	1.25	-0.185547	0.024902	0.958496	-5.460000	14.980000	-2.660000	546.00	0.07	-0.03	0.25	0.00	1.00	1.75	0.75	0.00	1.00	1.75	1.75	1.25	1.75	1.75	4.50	5.75	0.25	0.50	-0.171387	0.063965	0.982422	0.420000	5.040000	0.980000	249.00	0.15	-0.08
0.23	1.00	1.75	2.25	3.25	3.75	2.75	2.75	4.25	6.25	2.50	2.00	1.50	3.25	9.25	0.75	1.25	-0.188477	0.028809	0.966309	-5.740000	15.400000	-2.940000	531.00	0.08	-0.02	0.25	0.25	1.00	1.75	0.75	0.00	1.00	1.50	1.75	1.25	1.75	1.50	4.50	5.75	0.50	0.50	-0.165527	0.066895	0.975098	0.840000	5.180000	0.910000	247.00	0.14	-0.07
0.24	1.00	2.00	2.25	2.75	3.75	2.75	2.75	4.25	6.25	2.50	2.00	1.75	3.25	9.50	1.00	1.50	-0.191406	0.025391	0.963867	-5.950000	15.540000	-3.080000	536.00	0.09	-0.02	0.25	0.25	0.75	1.75	0.75	0.00	1.00	1.50	1.75	1.25	1.75	2.00	4.25	5.75	0.25	0.75	-0.166016	0.071777	0.985352	1.050000	5.320000	0.910000	246.00	0.15	-0.08
0.25	1.00	1.75	2.25	2.75	3.75	2.25	3.00	4.25	7.25	2.75	2.00	1.75	3.50	9.75	1.00	1.75	-0.190918	0.030762	0.960449	-6.020000	15.260000	-3.150000	554.00	0.10	-0.01	0.50	0.00	0.75	1.00	0.50	0.00	1.00	1.25	1.50	1.25	1.50	1.75	4.25	6.00	0.50	0.50	-0.173828	0.067871	0.980469	1.330000	5.390000	0.910000	227.00	0.17	-0.07
0.26	0.75	1.25	2.00	2.75	3.75	2.25	3.00	4.00	7.50	2.50	2.00	1.75	3.00	10.00	1.00	1.75	-0.198242	0.027344	0.934082	-5.880000	14.770000	-3.010000	538.00	0.11	-0.01	0.25	0.00	0.75	1.50	0.75	0.00	1.00	1.50	2.00	1.25	1.75	2.00	4.50	6.00	0.50	0.75	-0.174805	0.077637	0.974609	1.400000	5.250000	0.630000	252.00	0.17	-0.07
0.27	0.75	1.50	2.00	2.50	3.75	2.00	3.00	4.00	7.50	2.75	2.00	1.50	3.25	10.00	1.00	1.75	-0.192871	0.024902	0.960449	-5.670000	14.560000	-2.940000	537.00	0.11	-0.00	0.25	0.25	0.75	1.25	0.50	0.00	1.00	1.50	1.75	1.25	1.75	1.75	4.50	6.00	0.25	0.75	-0.180664	0.072754	0.974121	1.540000	4.900000	0.350000	240.00	0.16	-0.08
0.28	0.75	1.50	2.00	2.75	3.50	1.75	3.00	3.50	7.75	2.75	2.00	1.50	3.00	10.25	1.00	1.75	-0.195801	0.019043	0.960449	-5.530000	14.840000	-2.660000	530.00	0.11	0.01	0.25	0.00	0.75	1.25	0.50	0.00	1.00	1.50	1.75	1.50	1.75	1.75	4.50	6.00	0.50	0.75	-0.185059	0.065430	0.962402	1.610000	4.130000	-0.070000	243.00	0.17	-0.07
0.29	0.75	1.50	2.00	2.75	3.25	2.00	3.25	3.50	7.75	2.75	2.00	1.25	3.25	10.50	1.00	1.75	-0.206055	0.022949	0.960449	-5.180000	15.120000	-2.450000	536.00	0.12	0.01	0.25	0.00	0.75	1.50	0.50	0.00	1.00	1.50	1.75	1.25	2.00	1.75	4.50	6.00	0.50	0.75	-0.179688	0.066895	0.965820	1.610000	3.150000	-0.210000	246.00	0.17	-0.08
0.30	0.75	1.50	1.75	2.50	3.25	1.50	3.00	3.50	8.00	2.75	1.75	1.75	3.25	10.75	1.25	1.75	-0.209473	0.008789	0.963379	-4.760000	14.210000	-1.820000	532.00	0.13	0.01	0.25	0.25	0.75	1.50	0.50	0.00	1.00	1.50	2.00	1.50	1.75	2.00	4.75	6.00	0.50	0.75	-0.179688	0.069336	0.970215	2.030000	2.100000	0.140000	256.00	0.16	-0.08
0.31	0.75	1.50	1.75	2.25	3.25	1.50	3.00	3.25	8.25	2.75	1.75	1.50	3.25	10.75	1.00	1.75	-0.217285	0.025391	0.954590	-4.060000	13.020000	-1.610000	523.00	0.13	0.02	0.00	0.25	0.75	1.50	0.50	0.00	1.00	1.50	1.75	1.50	1.75	2.00	5.00	6.25	0.25	0.75	-0.182129	0.062988	0.974609	2.170000	1.050000	0.630000	252.00	0.17	-0.08
0.32	0.75	1.25	1.75	2.25	3.00	1.50	3.00	3.25	8.00	2.75	1.75	1.50	3.00	10.50	1.00	1.75	-0.213379	0.018555	0.965332	-3.080000	11.900000	-1.120000	510.00	0.13	0.02	0.00	0.00	0.75	1.25	0.25	0.00	1.00	1.50	1.75	1.50	1.75	2.25	5.00	6.00	0.25	1.00	-0.187500	0.069336	0.968750	1.960000	0.070000	1.190000	246.00	0.18	-0.09
0.33	0.75	1.25	1.75	2.50	3.00	1.25	3.00	3.00	8.00	2.75	2.00	1.50	3.00	10.50	1.00	1.75	-0.215820	0.023438	0.952148	-1.470000	10.150000	-0.630000	509.00	0.13	0.02	0.00	0.00	0.50	1.25	0.50	0.00	1.00	1.75	1.50	1.50	1.75	2.25	5.00	6.00	0.25	0.75	-0.192871	0.070312	0.968750	2.030000	-1.260000	1.540000	245.00	0.18	-0.10
0.34	0.75	1.25	1.75	2.50	3.00	1.25	3.00	3.00	8.00	2.75	1.75	1.50	3.00	10.50	1.00	1.50	-0.218750	0.011719	0.954102	-0.140000	7.980000	-0.140000	505.00	0.13	0.02	0.00	0.00	0.75	1.50	0.25	0.00	1.00	1.75	1.50	1.50	2.00	2.25	5.00	6.00	0.50	0.75	-0.185547	0.063965	0.972656	2.380000	-2.730000	2.030000	253.00	0.17	-0.10
0.35	0.75	1.00	1.75	2.50	3.00	1.25	3.00	3.25	8.00	2.75	1.75	1.25	3.00	10.25	1.25	1.50	-0.218262	0.020508	0.951660	1.400000	5.250000	0.420000	505.00	0.13	0.02	0.25	0.00	0.75	1.25	0.50	0.00	1.00	2.00	2.00	1.25	2.00	2.25	5.25	5.75	0.50	0.75	-0.187012	0.068848	0.968750	2.940000	-4.620000	2.870000	263.00	0.17	-0.10
0.36	0.75	1.25	1.75	2.75	3.00	1.00	2.75	3.25	7.75	2.75	1.75	1.75	2.75	10.25	1.00	1.50	-0.207031	0.027832	0.957031	1.890000	3.220000	0.770000	500.00	0.13	0.01	0.25	0.00	0.75	1.50	0.25	0.00	1.00	2.00	1.75	1.50	2.25	2.50	5.25	5.75	0.25	1.00	-0.188965	0.067871	0.967285	3.220000	-6.720000	3.640000	267.00	0.16	-0.11
0.37	0.75	1.25	1.50	2.25	3.00	1.25	2.75	3.00	7.75	2.50	1.50	1.50	3.00	10.25	1.00	1.25	-0.210449	0.028809	0.957031	0.770000	0.910000	0.840000	484.00	0.13	0.02	0.00	0.00	0.50	1.50	0.50	0.00	1.00	2.25	1.75	1.50	2.25	2.50	5.50	5.75	0.25	1.00	-0.178711	0.066895	0.968262	3.010000	-8.680000	4.200000	270.00	0.17	-0.12
0.38	0.75	1.50	1.50	2.50	3.00	1.00	2.75	3.00	7.75	2.50	1.75	1.50	2.50	10.00	0.75	1.00	-0.207031	0.030273	0.958008	0.560000	0.070000	0.630000	479.00	0.12	0.02	0.00	0.00	0.50	1.25	0.50	0.25	1.00	2.25	2.00	1.50	2.00	2.50	5.50	5.75	0.50	0.75	-0.180176	0.081055	0.973633	2.030000	-11.130000	4.830000	272.00	0.17	-0.11
0.39	0.75	1.50	1.75	2.50	3.25	1.50	2.75	3.25	7.50	2.50	1.75	1.50	2.75	9.75	0.75	1.25	-0.210449	0.025391	0.961914	0.420000	-0.700000	0.700000	491.00	0.12	0.01	0.25	0.00	0.50	1.50	0.50	0.25	1.00	2.75	2.00	1.75	2.25	2.75	5.50	5.50	0.25	0.75	-0.167969	0.081543	0.976562	1.260000	-11.690000	4.620000	288.00	0.16	-0.12
0.40	1.00	1.25	1.75	2.25	3.25	1.75	2.75	3.00	7.25	2.75	1.75	1.50	2.75	9.50	0.75	1.25	-0.209961	0.022949	0.963867	0.630000	-1.330000	0.840000	485.00	0.12	0.01	0.00	0.00	0.50	1.50	0.50	0.50	1.00	2.50	1.25	1.25	2.25	2.50	5.75	5.50	0.50	0.75	-0.172852	0.080078	0.979004	0.490000	-11.970000	4.410000	271.00	0.16	-0.14
0.41	0.75	1.00	2.00	2.50	3.50	1.50	2.50	3.25	7.25	2.25	1.75	1.25	2.75	9.25	0.75	0.75	-0.200195	0.022949	0.961914	0.630000	-1.890000	1.120000	473.00	0.11	0.01	0.25	0.00	0.50	1.75	0.50	0.50	1.00	2.75	1.50	1.75	2.25	2.75	6.00	5.50	0.50	1.00	-0.169434	0.086426	0.984863	-0.210000	-12.180000	4.200000	295.00	0.15	-0.14
0.42	0.75	1.50	2.00	2.50	3.25	2.00	2.75	3.25	6.75	2.25	1.50	1.25	2.50	9.00	0.75	1.00	-0.191895	0.030273	0.959961	-0.000000	-1.750000	1.190000	472.00	0.10	0.01	0.25	0.25	0.75	1.50	0.50	0.25	1.00	2.75	1.75	1.25	2.50	2.75	6.00	5.25	0.50	0.75	-0.166016	0.083496	0.981934	-0.840000	-12.040000	3.780000	292.00	0.15	-0.13
0.43	0.50	1.50	2.00	2.75	3.50	2.00	2.75	3.00	6.75	2.25	1.75	1.25	2.25	8.75	0.50	0.75	-0.176270	0.027344	0.950195	-0.630000	-2.100000	1.260000	466.00	0.10	0.01	0.25	0.00	0.75	1.50	0.50	0.25	1.00	2.50	1.75	1.50	2.50	2.50	6.00	5.50	0.25	0.75	-0.167480	0.085449	0.980469	-1.540000	-11.760000	3.360000	285.00	0.15	-0.12
0.44	1.00	1.75	2.00	3.00	3.75	2.00	2.50	3.00	6.75	2.25	1.50	1.25	2.50	8.50	0.50	0.75	-0.175293	0.034180	0.961914	-1.540000	-1.680000	0.910000	472.00	0.08	0.00	0.00	0.00	0.75	1.25	0.50	0.50	1.00	3.25	1.75	1.75	2.50	3.00	6.25	5.50	0.25	1.00	-0.163574	0.081055	0.975586	-2.520000	-11.480000	3.080000	306.00	0.15	-0.14
0.45	1.00	2.00	2.00	3.00	3.75	2.00	2.50	3.00	6.50	2.25	1.50	1.25	2.50	8.75	0.50	0.75	-0.179199	0.029785	0.953613	-3.080000	-0.070000	-0.140000	473.00	0.08	0.00	0.00	0.25	0.75	1.25	0.75	0.50	1.00	3.25	1.75	1.75	2.50	2.75	6.25	5.25	0.50	0.75	-0.157227	0.085938	0.990723	-3.570000	-11.130000	2.520000	307.00	0.15	-0.14
0.46	1.25	1.75	2.25	3.25	4.00	2.50	2.75	3.00	6.50	2.25	1.25	1.25	2.50	8.50	0.50	1.00	-0.170410	0.027832	0.962891	-3.640000	1.330000	-0.840000	488.00	0.07	0.00	0.25	0.00	0.50	1.50	0.75	0.50	1.00	3.75	2.00	1.75	2.50	2.75	6.50	5.50	0.25	0.75	-0.147949	0.084473	0.987305	-4.410000	-9.730000	1.960000	320.00	0.14	-0.14
0.47	1.00	1.75	2.25	3.25	4.50	2.50	2.75	3.00	6.50	2.25	1.50	1.25	2.25	8.75	0.50	1.00	-0.182129	0.029785	0.964844	-4.060000	2.940000	-1.470000	493.00	0.07	0.00	0.50	0.00	0.75	1.50	0.75	0.50	1.25	3.50	1.75	1.75	2.25	3.00	6.25	5.75	0.25	0.75	-0.144531	0.090332	0.990723	-5.180000	-7.560000	1.540000	322.00	0.14	-0.13
0.48	1.00	2.00	2.50	3.25	4.50	2.50	2.75	3.00	6.75	2.00	1.25	1.00	2.25	8.75	0.75	0.75	-0.165527	0.026855	0.958008	-4.760000	4.760000	-1.960000	495.00	0.07	0.01	0.25	0.00	0.75	1.75	0.75	0.75	1.00	3.50	1.75	1.75	2.00	3.00	6.50	5.75	0.50	0.75	-0.148438	0.083008	0.990234	-6.090000	-5.180000	0.700000	323.00	0.14	-0.14
0.49	1.25	2.00	2.25	3.00	4.25	2.25	3.00	3.00	6.50	2.25	1.25	1.25	2.25	9.00	0.75	1.00	-0.180664	0.033691	0.963379	-5.390000	6.930000	-2.660000	496.00	0.08	0.01	0.25	0.00	0.75	1.50	0.75	0.50	1.00	3.50	2.00	2.00	2.25	2.75	6.50	5.75	0.25	0.75	-0.155762	0.079102	0.992676	-6.370000	-2.870000	-0.000000	321.00	0.14	-0.13
0.50	1.00	1.75	2.50	3.00	4.50	2.50	3.00	3.00	7.00	2.25	1.25	1.25	2.25	9.25	1.00	1.00	-0.184082	0.019531	0.966797	-5.460000	8.680000	-2.940000	510.00	0.08	0.01	0.25	0.25	0.75	1.75	0.75	0.50	1.00	3.25	1.75	1.50	2.25	2.75	6.25	6.00	0.50	1.00	-0.157715	0.072754	0.990723	-5.670000	-0.560000	-0.000000	318.00	0.14	-0.13
0.51	1.00	1.75	2.50	3.25	4.50	2.00	3.00	2.75	6.75	2.25	1.25	1.00	2.25	9.50	0.75	1.00	-0.185059	0.019043	0.968750	-4.760000	9.660000	-2.590000	498.00	0.08	0.02	0.25	0.00	1.00	1.75	0.50	0.50	1.00	3.00	2.00	1.75	2.25	2.50	6.25	6.00	0.50	1.00	-0.162598	0.074219	0.994629	-4.550000	1.400000	0.140000	315.00	0.15	-0.12
0.52	1.00	1.75	2.25	3.00	4.25	2.00	3.00	2.75	7.00	2.25	1.25	1.00	2.25	9.50	0.50	1.00	-0.194336	0.020508	0.970703	-4.060000	9.940000	-2.030000	490.00	0.09	0.02	0.25	0.00	0.75	1.50	0.50	0.25	1.25	3.00	2.00	1.75	2.00	2.75	6.25	6.25	0.25	0.75	-0.163574	0.070312	0.989258	-3.360000	2.940000	0.350000	309.00	0.15	-0.12
0.53	1.00	1.50	2.25	3.25	4.00	1.75	2.75	2.75	7.25	2.25	1.00	1.00	2.25	9.75	0.50	1.25	-0.193359	0.020508	0.958984	-3.430000	10.220000	-1.750000	485.00	0.09	0.02	0.25	0.00	1.00	1.75	0.50	0.25	1.00	3.00	2.00	1.75	2.25	2.75	6.25	6.00	0.50	1.00	-0.172363	0.066895	0.989258	-2.170000	3.920000	0.980000	315.00	0.15	-0.12
0.54	1.00	1.75	2.50	3.00	4.00	1.75	3.00	2.50	7.50	2.25	1.25	1.00	2.25	9.50	0.75	1.00	-0.197266	0.023438	0.960938	-2.940000	9.870000	-1.470000	493.00	0.09	0.03	0.25	0.00	0.75	1.50	0.50	0.25	1.00	2.75	2.00	1.50	2.00	2.75	6.25	6.25	0.50	1.00	-0.167480	0.073242	0.988770	-1.120000	4.620000	1.820000	302.00	0.16	-0.12
0.55	1.00	1.75	2.50	3.00	4.00	1.50	3.00	2.50	7.25	2.25	1.25	1.00	2.25	9.75	0.75	1.25	-0.191406	0.026367	0.958984	-3.080000	9.730000	-1.260000	490.00	0.09	0.03	0.50	0.00	0.75	1.25	0.50	0.25	1.00	2.75	1.75	1.50	2.00	2.50	6.00	6.25	0.75	1.00	-0.173340	0.075195	0.975586	-0.490000	4.690000	2.240000	297.00	0.16	-0.12
0.56	1.00	1.50	2.50	2.75	3.75	1.50	2.75	2.50	7.50	2.25	1.50	1.00	2.25	9.75	0.75	1.00	-0.192871	0.026367	0.950684	-3.080000	9.870000	-1.400000	483.00	0.10	0.03	0.25	0.00	0.75	1.25	0.50	0.00	1.00	2.75	1.75	1.50	2.00	2.50	6.25	6.25	0.50	1.00	-0.176758	0.072754	0.978027	-0.070000	4.200000	2.660000	291.00	0.16	-0.12
0.57	0.75	1.50	2.00	3.00	3.75	1.50	3.00	2.50	7.50	2.25	1.25	1.00	2.25	9.75	0.75	1.25	-0.196289	0.025879	0.962891	-3.010000	9.800000	-1.610000	480.00	0.11	0.03	0.00	0.25	0.75	1.00	0.50	0.25	1.00	2.75	2.00	1.75	2.00	2.50	6.25	6.25	0.50	1.00	-0.172852	0.077148	0.965332	0.980000	2.170000	2.870000	297.00	0.17	-0.12
0.58	1.00	1.50	2.00	2.75	3.75	1.25	2.75	2.25	7.50	2.25	1.25	1.00	2.25	9.75	0.75	1.25	-0.218262	0.021484	0.972168	-0.770000	8.260000	-1.400000	470.00	0.11	0.03	0.00	0.00	0.75	1.25	0.50	0.50	1.00	2.75	1.75	1.50	2.25	2.50	6.25	6.25	0.50	1.00	-0.176758	0.077637	0.971191	1.400000	0.350000	2.870000	297.00	0.16	-0.13
0.59	0.75	1.50	2.00	2.75	3.75	0.75	2.75	2.25	7.25	1.75	1.25	1.00	2.25	9.50	0.75	1.00	-0.214355	0.020020	0.957520	1.120000	5.810000	-0.770000	450.00	0.11	0.04	0.00	0.00	0.50	1.50	0.50	0.00	1.00	2.75	1.75	1.50	2.25	2.75	6.25	6.00	0.50	1.00	-0.182129	0.075195	0.958496	2.030000	-2.240000	2.870000	292.00	0.17	-0.13
0.60	1.00	1.50	2.25	3.00	3.50	1.50	2.75	2.25	6.75	1.75	1.00	1.00	2.00	9.25	0.75	1.00	-0.196777	0.022949	0.955566	1.890000	3.570000	-0.140000	450.00	0.09	0.03	0.50	0.25	0.50	1.25	0.50	0.25	1.00	2.75	1.75	1.50	2.00	2.50	6.75	6.00	0.25	1.00	-0.186523	0.077637	0.964355	2.870000	-5.740000	3.220000	295.00	0.15	-0.13
0.61	1.00	1.50	2.25	2.75	3.50	1.50	2.75	2.25	6.75	1.75	1.25	1.00	1.75	9.25	0.50	1.00	-0.197266	0.024902	0.954102	2.170000	2.100000	0.140000	445.00	0.09	0.03	0.00	0.00	0.75	1.25	0.50	0.25	1.25	3.00	1.75	1.75	2.25	2.75	6.75	6.00	0.50	0.75	-0.182129	0.080078	0.961426	3.010000	-9.870000	3.920000	307.00	0.16	-0.13
0.62	0.75	1.75	1.75	2.75	3.75	1.25	2.50	2.25	6.50	1.75	1.00	0.75	2.00	9.00	0.75	1.00	-0.189941	0.027832	0.958008	2.100000	1.400000	0.210000	429.00	0.10	0.03	0.00	0.00	0.50	1.50	0.50	0.50	1.00	3.50	1.75	1.50	2.00	2.75	6.75	5.75	0.50	1.00	-0.181641	0.081055	0.960938	2.590000	-13.440001	4.410000	308.00	0.15	-0.15
0.63	1.00	1.75	2.50	2.50	3.75	1.50	2.50	2.25	6.25	1.75	1.00	1.00	2.00	9.00	0.75	0.75	-0.191895	0.027344	0.958496	1.610000	1.050000	0.000000	438.00	0.09	0.03	0.25	0.25	0.75	1.50	0.50	0.25	1.00	3.50	1.75	1.50	2.25	2.75	7.00	5.50	0.50	0.75	-0.174316	0.091797	0.976074	1.680000	-15.960000	4.690000	314.00	0.14	-0.15
0.64	0.75	2.00	2.25	3.00	3.75	1.75	2.50	2.50	6.00	1.50	1.00	0.75	2.00	8.50	0.50	0.75	-0.194824	0.024414	0.964355	1.540000	0.840000	0.000000	432.00	0.07	0.01	0.00	0.00	0.75	1.25	0.50	0.50	1.00	3.75	1.75	1.75	2.00	2.75	7.25	5.75	0.50	1.00	-0.171875	0.088867	0.982910	1.330000	-17.570000	4.690000	319.00	0.15	-0.15
0.65	1.25	1.75	2.25	2.75	4.00	2.00	2.50	2.50	5.50	1.75	1.25	0.75	1.75	8.25	0.50	0.75	-0.201660	0.024902	0.964355	2.030000	0.350000	0.420000	432.00	0.07	0.01	0.25	0.25	0.75	1.75	0.75	1.00	1.00	4.25	1.25	1.50	2.25	2.75	7.25	5.50	0.25	1.00	-0.166504	0.087402	0.987793	0.770000	-18.549999	4.620000	334.00	0.12	-0.17
0.66	1.00	1.75	2.50	3.25	4.00	2.00	2.25	2.50	5.50	1.25	1.00	0.75	2.00	8.00	0.50	0.75	-0.196777	0.018555	0.969238	3.010000	-0.350000	1.190000	426.00	0.06	0.01	0.25	0.00	0.75	2.00	0.75	1.00	1.00	5.00	1.75	1.25	2.25	2.50	7.25	5.00	0.25	0.75	-0.169434	0.084473	0.982910	0.420000	-19.460001	4.830000	341.00	0.11	-0.17
0.67	1.25	1.75	2.50	3.25	4.00	2.00	2.25	2.75	5.00	1.50	1.00	0.75	1.75	7.50	0.75	0.75	-0.199707	0.019531	0.963867	4.060000	-1.400000	2.100000	425.00	0.05	-0.00	0.25	0.50	1.00	2.00	0.75	1.50	1.00	5.00	1.25	1.50	2.25	2.75	7.25	5.00	0.25	0.75	-0.170898	0.082031	0.985352	0.560000	-19.950001	5.320000	353.00	0.10	-0.18
0.68	1.00	1.75	2.50	3.50	4.00	2.25	2.25	2.75	4.50	1.25	0.75	0.75	1.75	7.00	0.50	0.50	-0.187988	0.031738	0.961426	4.480000	-1.680000	2.870000	407.00	0.04	-0.01	0.50	0.50	1.00	2.50	1.00	1.75	1.00	5.50	1.25	1.25	2.25	2.75	7.25	4.25	0.50	0.75	-0.149414	0.089844	0.988770	0.070000	-20.440001	5.530000	368.00	0.08	-0.19
0.69	1.25	2.00	2.50	3.50	4.25	2.75	2.00	2.75	4.25	1.00	1.00	0.75	1.75	6.75	0.50	0.50	-0.195801	0.026367	0.973145	4.690000	-2.030000	3.430000	411.00	0.03	-0.02	0.50	0.50	1.25	2.00	1.00	2.25	1.00	5.50	1.00	1.25	2.00	2.75	7.00	3.75	0.25	0.50	-0.148926	0.089355	0.990723	-0.840000	-20.790001	5.530000	354.00	0.07	-0.19
0.70	1.00	2.50	2.75	4.00	4.50	3.00	2.00	3.00	3.50	1.00	0.75	0.75	1.75	6.00	0.25	0.50	-0.192383	0.029785	0.962402	4.830000	-2.170000	3.500000	409.00	-0.00	-0.04	0.50	0.75	1.25	2.75	1.25	2.50	1.00	5.75	0.75	1.00	1.75	2.50	7.00	3.25	0.25	0.50	-0.141602	0.084961	0.990723	-1.400000	-19.809999	5.390000	358.00	0.04	-0.21
0.71	1.50	2.50	3.00	4.50	4.50	3.00	1.75	3.00	3.00	1.00	1.00	0.50	1.75	5.75	0.25	0.50	-0.187012	0.028809	0.968750	4.690000	-2.660000	3.640000	410.00	-0.02	-0.04	0.50	0.50	1.25	2.75	1.25	2.75	1.00	6.00	0.75	1.25	2.00	2.25	7.00	3.25	0.25	0.50	-0.135254	0.087891	0.982910	-1.890000	-18.620001	4.830000	365.00	0.05	-0.21
0.72	1.25	2.50	3.00	4.50	4.50	3.50	1.75	3.00	2.75	0.75	0.75	0.50	1.50	5.25	0.25	0.50	-0.175293	0.043457	0.968750	4.200000	-2.310000	3.430000	398.00	-0.03	-0.05	0.75	0.75	1.50	3.00	1.25	3.00	1.00	6.00	0.75	1.25	1.50	2.25	6.75	2.75	0.25	0.50	-0.134766	0.089844	0.986328	-2.100000	-17.430000	4.620000	367.00	0.03	-0.21
0.73	1.50	2.75	3.00	4.75	4.50	3.50	1.75	3.00	2.50	0.75	0.75	0.50	1.50	4.50	0.25	0.50	-0.185059	0.029785	0.967285	3.780000	-2.100000	2.870000	396.00	-0.05	-0.06	0.75	1.00	1.75	3.25	1.50	3.25	1.00	6.00	1.00	0.75	1.75	2.00	6.50	2.50	0.25	0.50	-0.133301	0.082031	1.000000	-1.610000	-16.030001	4.410000	374.00	0.01	-0.20
0.74	1.50	3.00	3.25	5.00	4.50	3.75	1.50	3.00	2.50	0.50	0.75	0.50	1.25	4.00	0.25	0.50	-0.183105	0.041504	0.956543	3.360000	-2.030000	2.450000	394.00	-0.06	-0.07	1.00	1.25	1.50	3.50	1.50	3.25	1.00	6.00	0.75	0.75	1.50	2.00	6.50	2.00	0.25	0.25	-0.130371	0.087891	0.995605	-1.260000	-14.490000	4.200000	367.00	-0.00	-0.21
0.75	1.75	3.25	3.50	5.25	4.75	4.00	1.50	3.00	1.75	0.50	0.50	0.25	1.25	3.25	0.25	0.50	-0.177246	0.032227	0.966309	3.430000	-1.470000	2.100000	389.00	-0.09	-0.08	1.00	1.00	2.00	3.50	1.50	3.75	1.00	6.00	0.75	0.75	1.50	2.25	6.25	2.00	0.00	0.25	-0.122559	0.092285	0.983887	-1.400000	-12.810000	3.850000	374.00	-0.01	-0.21
0.76	2.00	3.50	3.75	5.25	4.75	4.00	1.50	3.00	2.00	0.50	0.50	0.50	1.25	2.75	0.00	0.50	-0.164551	0.030273	0.971680	4.130000	-0.770000	1.540000	395.00	-0.10	-0.08	0.75	1.00	1.75	3.75	1.75	3.75	1.00	6.00	0.50	0.75	1.25	1.75	6.25	1.75	0.25	0.50	-0.111328	0.088379	0.984863	-2.240000	-10.710000	3.500000	364.00	-0.01	-0.22
0.77	2.00	3.75	3.75	5.50	4.50	4.75	1.50	2.75	1.50	0.50	0.50	0.25	1.00	2.75	0.00	0.50	-0.164551	0.030273	0.971680	4.130000	-0.770000	1.540000	391.00	-0.11	-0.08	1.00	1.00	2.00	4.00	1.50	3.75	0.75	6.00	0.50	0.75	1.25	1.75	6.00	1.75	0.25	0.25	-0.115723	0.083496	0.980469	-2.870000	-8.260000	3.080000	362.00	-0.02	-0.22
0.78	2.00	4.00	4.00	5.50	4.75	4.50	1.25	2.75	1.25	0.25	0.50	0.25	1.00	2.25	0.00	0.50	-0.171875	0.037598	0.969238	4.690000	-0.140000	1.470000	382.00	-0.13	-0.09	1.00	1.00	1.75	4.00	1.50	3.50	1.00	5.75	0.50	0.75	1.25	1.75	6.00	1.50	0.00	0.25	-0.113770	0.087891	0.983887	-3.710000	-3.080000	2.660000	352.00	-0.02	-0.21
0.79	2.25	4.50	3.75	6.25	4.75	4.50	1.25	2.75	1.25	0.25	0.50	0.25	1.00	2.00	0.00	0.25	-0.165039	0.040527	0.965820	6.090000	-1.400000	1.260000	391.00	-0.14	-0.09	0.75	1.25	2.00	3.50	1.50	4.00	1.00	5.75	0.50	0.50	1.00	1.75	5.75	1.25	0.00	0.25	-0.115723	0.085938	0.980957	-3.990000	-0.770000	2.520000	345.00	-0.03	-0.22
0.80	2.25	4.50	4.25	6.25	4.75	4.75	1.25	3.00	1.25	0.50	0.25	0.25	0.75	1.75	0.00	0.25	-0.163574	0.041016	0.965820	6.510000	-1.400000	1.050000	399.00	-0.15	-0.09	1.00	1.25	1.75	3.50	1.50	3.25	1.00	5.75	0.50	0.75	1.25	1.50	5.50	1.25	0.25	0.25	-0.121582	0.076660	0.984863	-4.060000	1.610000	2.450000	340.00	-0.03	-0.21
0.81	2.50	4.75	4.25	6.50	4.75	5.25	1.25	3.00	0.75	0.25	0.25	0.25	0.75	1.25	0.00	0.25	-0.154785	0.049805	0.958496	6.370000	-1.470000	0.560000	398.00	-0.17	-0.10	1.00	0.75	1.50	3.00	1.25	3.00	0.75	5.50	0.25	0.75	1.25	1.25	5.50	1.00	0.25	0.25	-0.124023	0.080078	0.981934	-3.850000	3.640000	2.310000	306.00	-0.02	-0.23
0.82	2.75	5.25	4.50	7.25	5.00	5.50	1.00	2.75	1.00	0.25	0.25	0.00	0.75	1.50	0.25	0.25	-0.160156	0.058594	0.949707	5.390000	-1.540000	0.140000	420.00	-0.17	-0.10	0.75	0.75	1.50	3.00	1.00	3.00	0.75	5.50	0.50	0.75	1.25	1.50	5.25	1.25	0.00	0.25	-0.115234	0.092285	0.977051	-3.990000	5.810000	2.450000	304.00	-0.01	-0.22
0.83	2.75	5.25	4.75	7.50	5.25	5.75	1.00	2.75	0.75	0.00	0.25	0.00	0.75	1.25	0.00	0.25	-0.149414	0.054688	0.959961	4.340000	1.540000	-0.210000	420.00	-0.18	-0.10	1.00	0.75	1.25	2.75	1.00	2.50	0.75	5.25	0.50	0.50	1.25	1.75	5.25	1.25	0.00	0.25	-0.117188	0.078613	0.983398	-4.550000	8.260000	2.100000	292.00	-0.01	-0.22
0.84	3.25	5.75	5.25	8.00	5.00	6.25	1.00	2.75	0.75	0.25	0.25	0.25	0.75	1.25	0.00	0.25	-0.157715	0.058594	0.956543	2.030000	-0.560000	-0.140000	449.00	-0.18	-0.11	0.50	0.75	1.25	2.75	0.75	2.00	0.75	5.00	0.50	0.75	1.50	1.50	5.25	1.25	0.00	0.50	-0.119629	0.088379	0.981445	-4.900000	11.200000	1.960000	278.00	0.01	-0.23
0.85	3.50	6.25	5.25	8.25	5.25	6.25	1.00	3.00	0.75	0.25	0.25	0.00	0.75	1.00	0.00	0.25	-0.158691	0.056152	0.951172	-0.140000	-1.540000	-0.420000	461.00	-0.19	-0.11	0.75	0.50	1.25	2.25	0.75	1.50	0.75	4.75	0.50	1.00	1.50	1.75	5.25	1.00	0.00	0.25	-0.124512	0.079102	0.988770	-4.550000	14.490000	1.610000	266.00	0.01	-0.22
0.86	3.75	6.50	6.00	8.50	5.50	6.75	1.00	3.00	1.25	0.25	0.25	0.00	0.75	1.00	0.00	0.25	-0.160645	0.056152	0.950684	-2.170000	-1.120000	-0.630000	491.00	-0.19	-0.10	0.25	0.50	1.00	2.00	0.50	1.25	0.75	4.25	0.50	0.50	1.25	1.50	5.25	1.50	0.25	0.25	-0.080078	0.090820	1.010742	-3.640000	19.530001	1.400000	238.00	0.04	-0.23
0.87	4.00	7.50	6.25	9.00	5.50	7.00	1.00	3.00	0.75	0.25	0.25	0.00	0.75	0.75	0.00	0.25	-0.164551	0.049805	0.963379	-3.500000	-0.910000	-0.700000	506.00	-0.20	-0.11	0.50	0.50	0.75	1.75	0.50	1.00	0.75	3.75	0.50	0.75	1.75	1.50	5.00	1.25	0.50	0.25	-0.135254	0.111816	1.022461	-1.610000	25.969999	0.980000	231.00	0.05	-0.21
0.88	4.50	8.25	6.75	9.50	6.00	7.50	1.00	3.25	0.75	0.25	0.25	0.25	0.75	1.00	0.00	0.25	-0.168457	0.044434	0.968262	-3.780000	-1.050000	-0.770000	548.00	-0.20	-0.11	0.25	0.25	0.75	2.00	0.25	0.25	0.75	3.25	0.75	1.00	1.50	1.50	5.00	1.25	0.00	0.25	-0.096191	0.105469	1.067383	2.380000	38.990002	-1.890000	209.00	0.06	-0.21
0.89	4.75	9.00	7.25	9.75	6.25	8.00	1.00	3.00	0.50	0.25	0.00	0.25	0.75	0.75	0.00	0.25	-0.163574	0.048828	0.974121	-3.290000	-1.610000	-0.630000	562.00	-0.21	-0.11	0.25	0.00	0.50	1.50	0.25	0.25	0.50	2.75	0.50	1.00	1.75	1.50	4.50	1.50	0.25	0.25	-0.102539	0.106445	1.089355	6.580000	55.020000	-5.950000	186.00	0.09	-0.21
0.90	5.50	9.75	7.75	10.50	6.25	8.00	1.00	3.25	0.75	0.25	0.25	0.25	0.75	0.50	0.00	0.25	-0.155273	0.048828	0.965820	-2.800000	-1.540000	-0.560000	598.00	-0.22	-0.11	0.00	0.00	0.25	1.50	0.00	0.00	0.75	2.00	0.50	0.75	1.25	1.50	4.50	1.50	0.00	0.25	-0.111816	0.072754	1.105957	12.390000	72.379997	-10.150000	157.00	0.11	-0.21
0.91	6.00	10.50	8.00	10.75	6.50	8.25	1.00	3.25	0.50	0.25	0.25	0.25	0.50	0.75	0.00	0.50	-0.147949	0.041016	0.969727	-2.030000	-1.750000	-0.560000	620.00	-0.22	-0.10	0.00	0.50	0.50	1.25	0.00	0.00	0.75	1.75	0.50	0.75	1.25	1.75	4.50	1.50	0.25	0.25	-0.118164	0.087891	1.218750	23.730000	92.260002	-14.700000	164.00	0.10	-0.20
0.92	6.75	11.50	8.50	11.50	6.75	8.75	1.00	3.50	1.00	0.25	0.25	0.00	0.50	0.50	0.00	0.25	-0.156738	0.043945	0.965820	-1.470000	-1.890000	-0.630000	663.00	-0.23	-0.10	0.00	0.00	0.25	1.25	0.00	0.00	0.50	1.25	0.50	0.50	1.50	1.25	3.75	1.25	0.00	0.25	-0.112305	0.145996	1.223633	24.570000	114.870003	-19.460001	128.00	0.12	-0.20
0.93	7.50	12.00	8.50	12.00	7.00	9.00	1.00	3.50	0.75	0.50	0.25	0.00	0.75	0.75	0.00	0.25	-0.146484	0.038086	0.963867	-0.630000	-2.100000	-0.840000	690.00	-0.23	-0.10	0.25	0.00	0.50	1.00	0.00	0.00	0.50	0.75	0.75	0.75	1.00	1.25	3.25	1.25	0.25	0.25	-0.139160	0.157227	1.157227	22.190001	139.020004	-22.469999	122.00	0.12	-0.15
0.94	7.75	12.50	8.75	12.25	7.25	9.25	1.25	3.75	0.75	0.25	0.25	0.25	0.75	0.75	0.00	0.25	-0.147949	0.052734	0.958984	-0.210000	-2.100000	-0.840000	715.00	-0.22	-0.10	0.00	0.00	0.00	0.75	0.00	0.00	0.50	0.50	0.00	0.25	0.75	1.00	2.25	1.25	0.00	0.25	-0.167480	0.229004	1.314941	22.960001	166.039993	-30.660000	76.00	0.14	-0.19
0.95	8.50	13.75	9.25	12.75	7.50	9.50	1.25	4.00	0.75	0.50	0.25	0.00	0.75	0.75	0.00	0.25	-0.147949	0.047363	0.959961	-0.490000	-1.820000	-1.050000	755.00	-0.23	-0.10	0.00	0.00	0.00	0.50	0.00	0.00	0.50	0.25	0.00	0.00	0.75	0.50	2.00	1.25	0.00	0.25	-0.171875	0.219238	1.413574	17.780001	190.119995	-39.830002	59.00	0.16	-0.17
0.96	8.75	14.75	9.25	13.50	7.75	9.75	1.25	4.00	0.75	0.25	0.25	0.00	0.75	0.75	0.00	0.25	-0.130371	0.048340	0.962402	-0.840000	-1.400000	-1.190000	778.00	-0.23	-0.10	0.25	0.00	0.00	0.50	0.00	0.00	0.25	0.00	0.25	0.25	0.75	0.75	1.00	1.00	0.00	0.00	-0.094238	0.250977	1.552734	14.000000	231.000000	-65.590004	51.00	0.15	-0.09
0.97	9.25	15.00	9.50	13.50	8.00	10.00	1.25	4.25	0.75	0.50	0.50	0.00	0.75	0.75	0.00	0.25	-0.123535	0.048828	0.957031	-1.330000	-0.210000	-1.330000	803.00	-0.23	-0.10	0.00	0.00	0.00	0.50	0.00	0.00	0.25	0.00	0.25	0.25	0.50	0.50	0.75	0.75	0.00	0.00	-0.094238	0.250977	1.552734	14.000000	231.000000	-65.590004	39.00	0.00	0.00
0.98	9.75	15.75	9.75	14.25	8.00	10.50	1.25	4.25	0.75	0.50	0.25	0.25	0.75	0.75	0.00	0.25	-0.136719	0.036621	0.958008	-1.610000	0.910000	-1.540000	831.00	-0.23	-0.10	0.00	0.00	0.25	0.50	0.00	0.00	0.25	0.00	0.00	0.25	0.50	0.25	0.50	0.25	0.00	0.00	-0.089844	0.383301	1.692871	20.930000	262.570007	-89.879997	29.00	0.00	0.00
0.99	9.75	16.00	10.00	14.25	8.50	10.75	1.25	4.75	1.00	0.50	0.50	0.25	1.00	0.75	0.00	0.25	-0.133301	0.047852	0.964844	-1.540000	1.960000	-1.750000	860.00	-0.23	-0.10	0.00	0.00	0.25	0.50	0.00	0.00	0.25	0.00	0.00	0.00	0.25	0.00	0.00	0.00	0.00	0.00	-0.141602	0.432129	1.783691	28.700001	262.500000	-104.230003	15.00	0.00	0.00
1.00	10.25	16.25	10.25	14.50	8.50	11.25	1.25	5.00	1.00	0.50	0.50	0.00	1.00	0.75	0.00	0.25	-0.117188	0.048828	0.949707	-1.680000	3.220000	-1.960000	880.00	-0.23	-0.10	0.25	0.25	0.25	0.75	0.00	0.00	0.50	0.00	0.00	0.00	0.00	0.00	0.00	0.00	0.00	0.00	0.917969	0.375000	2.089844	42.770000	251.440002	-118.020004	23.00	0.00	0.00
1.01	10.50	16.50	10.00	14.25	8.75	11.25	1.25	5.00	0.75	0.50	0.50	0.50	1.25	0.50	0.00	0.25	-0.131348	0.045898	0.952148	-2.030000	7.000000	-2.240000	884.00	-0.23	-0.11	0.00	0.00	0.25	0.50	0.00	0.00	0.25	0.00	0.00	0.00	0.00	0.00	0.00	0.00	0.00	0.00	0.849609	0.784668	2.699707	16.520000	189.139999	-115.639999	12.00	0.00	0.00
1.02	10.25	16.00	10.00	14.50	9.00	11.75	1.50	5.25	0.75	0.75	0.50	0.50	1.25	0.75	0.00	0.50	-0.115723	0.039551	0.955566	-1.820000	9.240000	-2.450000	901.00	-0.22	-0.11	0.00	0.00	0.50	1.00	0.00	0.00	0.50	0.00	0.00	0.00	0.00	0.00	0.00	0.00	0.00	0.00	1.494629	0.705566	2.593750	-23.309999	97.019997	-90.440002	24.00	0.00	0.00
1.03	9.75	15.75	10.00	14.25	9.25	12.00	1.50	5.50	1.00	0.75	0.50	0.50	1.50	1.00	0.00	0.25	-0.119629	0.052734	0.959473	-1.330000	11.340000	-2.380000	907.00	-0.21	-0.11	0.00	0.00	0.00	0.75	0.00	0.00	0.25	0.00	0.00	0.00	0.00	0.00	0.00	0.00	0.00	0.00	1.432129	0.793457	1.490234	-45.290001	31.080000	-64.120003	12.00	0.00	0.00
1.04	9.50	15.25	9.75	13.75	9.00	12.25	1.50	5.75	1.25	0.75	0.75	0.50	1.25	1.00	0.00	0.25	-0.119141	0.047363	0.958496	-0.910000	13.860000	-2.240000	899.00	-0.21	-0.11	0.00	0.00	0.00	0.75	0.00	0.00	0.50	0.00	0.00	0.00	0.00	0.00	0.00	0.00	0.00	0.00	1.296387	0.843262	0.850586	-30.799999	17.080000	-49.000000	16.00	0.00	0.00
1.05	9.25	14.75	9.50	13.75	9.25	12.25	1.50	6.00	1.25	0.75	1.00	0.75	1.75	1.00	0.00	0.50	-0.119629	0.056152	0.951172	-1.330000	17.150000	-2.380000	906.00	-0.20	-0.11	0.00	0.00	0.50	1.00	0.00	0.00	0.50	0.00	0.00	0.00	0.00	0.00	0.00	0.00	0.00	0.00	1.457031	0.836914	1.023926	-1.190000	21.000000	-39.830002	24.00	0.00	0.00
1.06	8.50	13.75	9.50	13.00	9.25	12.25	1.75	6.25	1.50	1.00	1.00	0.75	2.25	1.25	0.00	0.25	-0.118652	0.051270	0.935547	-2.310000	20.090000	-2.310000	900.00	-0.19	-0.11	0.25	0.00	0.50	1.00	0.00	0.00	0.50	0.00	0.00	0.00	0.00	0.00	0.00	0.00	0.00	0.00	1.644043	0.826172	1.417480	17.080000	6.090000	-24.219999	27.00	0.00	0.00
1.07	7.75	12.25	9.25	12.25	9.25	12.25	2.00	6.25	1.50	1.25	1.25	1.00	2.50	1.25	0.25	0.50	-0.144043	0.057617	0.971680	-2.590000	22.190001	-2.520000	885.00	-0.17	-0.11	0.00	0.00	0.00	0.25	0.00	0.00	0.50	0.00	0.00	0.00	0.00	0.00	0.00	0.00	0.00	0.00	1.730957	0.765625	1.471191	20.440001	-27.930000	0.280000	10.00	0.00	0.00
1.08	7.00	10.50	8.75	11.75	9.25	12.00	2.00	6.50	2.25	1.50	1.50	1.00	2.75	1.75	0.00	0.50	-0.139648	0.046387	0.964844	-2.170000	23.379999	-2.800000	870.00	-0.16	-0.11	0.25	0.00	0.25	0.50	0.00	0.00	0.25	0.00	0.00	0.00	0.00	0.00	0.00	0.00	0.00	0.00	1.688477	0.681152	1.267578	23.309999	-62.090000	25.549999	15.00	0.00	0.00
1.09	6.00	9.50	8.25	10.75	9.25	12.25	2.50	7.00	2.25	1.75	1.75	1.25	3.00	1.75	0.25	0.50	-0.148926	0.040039	0.978027	-1.960000	25.129999	-2.870000	864.00	-0.14	-0.11	0.25	0.00	0.25	1.00	0.00	0.00	0.25	0.00	0.00	0.00	0.00	0.00	0.00	0.00	0.00	0.00	1.619629	0.580566	1.148438	33.880001	-86.590004	44.939999	20.00	0.00	0.00
1.10	5.25	8.25	7.50	9.75	9.00	12.00	2.50	7.25	2.75	1.75	2.00	1.75	3.50	1.75	0.25	0.50	-0.142090	0.052734	0.969727	-1.680000	26.460001	-3.290000	843.00	-0.12	-0.11	0.00	0.00	0.25	0.75	0.00	0.00	0.25	0.00	0.00	0.00	0.00	0.00	0.00	0.00	0.00	0.00	1.568848	0.466309	1.246094	47.459999	-107.029999	59.920002	15.00	0.00	0.00
1.11	5.00	7.00	6.75	9.00	8.75	11.50	2.75	7.50	3.25	2.25	2.50	2.00	4.00	2.25	0.25	0.75	-0.173828	0.046875	0.966797	-1.960000	27.510000	-3.500000	841.00	-0.10	-0.11	0.00	0.00	0.25	0.75	0.00	0.00	0.25	0.00	0.00	0.00	0.00	0.00	0.00	0.00	0.00	0.00	1.487305	0.336914	1.363770	54.599998	-130.619995	73.220001	15.00	0.00	0.00
1.12	3.50	6.25	6.00	8.00	8.50	11.00	3.00	7.50	3.75	2.75	2.75	2.50	4.50	2.00	0.25	0.75	-0.182129	0.033203	0.971191	-1.400000	28.350000	-3.710000	817.00	-0.08	-0.11	0.00	0.00	0.25	0.75	0.00	0.00	0.50	0.00	0.00	0.00	0.00	0.00	0.00	0.00	0.00	0.00	1.332520	0.240723	1.426270	53.689999	-156.309998	84.349998	19.00	0.00	0.00
1.13	3.00	5.50	5.25	7.25	8.25	10.75	3.00	7.50	4.25	3.00	3.00	2.50	5.25	2.50	0.50	1.00	-0.163574	0.049805	0.958984	-0.630000	29.610001	-3.920000	809.00	-0.05	-0.11	0.25	0.00	0.50	0.75	0.00	0.00	0.25	0.00	0.00	0.00	0.00	0.00	0.00	0.00	0.00	0.00	1.134766	0.164551	1.449707	52.639999	-179.339996	91.699997	20.00	0.00	0.00
1.14	2.50	5.00	4.50	6.50	8.00	10.50	3.25	7.75	5.00	3.50	3.75	3.00	5.50	3.00	0.50	1.00	-0.192383	0.046387	0.961426	-0.350000	31.500000	-4.270000	819.00	-0.03	-0.11	0.00	0.00	0.25	0.75	0.00	0.00	0.25	0.00	0.00	0.00	0.00	0.00	0.00	0.00	0.00	0.00	0.908203	0.095703	1.502930	54.320000	-198.589996	94.849998	15.00	0.00	0.00
1.15	2.25	4.00	3.75	5.75	7.50	10.00	3.50	7.75	5.50	4.00	4.75	3.75	6.00	3.50	0.75	1.00	-0.196289	0.042480	0.973633	0.420000	32.270000	-4.760000	825.00	-0.00	-0.11	0.25	0.00	0.25	0.50	0.00	0.00	0.25	0.00	0.00	0.00	0.00	0.00	0.00	0.00	0.00	0.00	0.666992	0.016113	1.558594	54.810001	-214.690002	94.989998	15.00	0.00	0.00
1.16	1.50	3.75	3.00	5.75	6.50	9.50	3.75	7.75	7.00	5.25	5.50	4.25	6.50	4.25	0.75	1.25	-0.202637	0.041992	0.946289	0.910000	33.459999	-4.970000	852.00	0.02	-0.10	0.00	0.25	0.25	0.75	0.00	0.00	0.25	0.00	0.00	0.00	0.00	0.00	0.00	0.00	0.00	0.00	0.454590	-0.038086	1.606934	49.980000	-228.690002	92.889999	17.00	0.00	0.00
1.17	1.75	3.00	2.50	5.00	5.75	8.75	3.75	8.00	8.00	6.50	7.25	5.25	6.75	5.00	0.75	1.75	-0.184570	0.043457	0.960938	2.450000	35.630001	-5.460000	888.00	0.05	-0.09	0.00	0.25	0.00	0.75	0.00	0.00	0.50	0.00	0.00	0.00	0.00	0.00	0.00	0.00	0.00	0.00	-0.000000	-0.014648	1.683105	31.920000	-250.460007	84.139999	18.00	0.00	0.00
1.18	1.25	3.00	2.00	4.50	5.25	8.00	3.75	7.75	8.25	7.50	7.75	6.00	7.25	5.50	0.75	1.50	-0.148926	0.039551	0.983887	3.290000	38.150002	-6.440000	888.00	0.07	-0.09	0.00	0.00	0.25	0.75	0.00	0.00	0.50	0.00	0.00	0.00	0.00	0.00	0.00	0.00	0.00	0.00	-0.200684	0.056152	1.669434	23.100000	-257.670013	80.849998	19.00	0.00	0.00
1.19	1.00	2.25	2.00	3.75	4.50	7.50	4.00	7.75	8.75	7.75	8.50	6.75	7.50	6.25	1.25	1.75	-0.185547	0.063477	0.983887	4.340000	41.720001	-7.140000	900.00	0.09	-0.09	0.25	0.00	0.25	0.75	0.00	0.00	0.25	0.00	0.00	0.00	0.00	0.00	0.00	0.00	0.00	0.00	-0.430176	0.137695	1.638184	13.650000	-260.890015	80.989998	17.00	0.00	0.00
1.20	1.00	2.00	1.75	3.00	3.50	6.75	3.75	7.75	9.25	8.25	9.00	7.25	8.00	7.50	1.00	2.00	-0.199219	0.046875	0.979492	6.020000	46.549999	-9.240000	900.00	0.11	-0.09	0.00	0.00	0.25	0.50	0.00	0.00	0.25	0.00	0.00	0.00	0.00	0.00	0.00	0.00	0.00	0.00	-0.683594	0.204102	1.545898	0.070000	-258.579987	85.610001	12.00	0.00	0.00
1.21	0.75	1.75	1.25	3.00	3.00	6.25	4.00	7.50	9.75	9.00	9.50	7.75	8.00	8.25	1.50	2.00	-0.206543	0.080566	1.004395	6.790000	53.340000	-11.060000	915.00	0.12	-0.08	0.00	0.00	0.25	0.50	0.00	0.00	0.25	0.00	0.00	0.00	0.00	0.00	0.00	0.00	0.00	0.00	-0.937500	0.276855	1.404785	-18.410000	-248.570007	93.519997	12.00	0.00	0.00
1.22	0.75	1.25	1.00	3.00	2.50	5.50	3.75	7.25	10.00	9.25	10.25	8.25	8.50	8.75	1.25	2.25	-0.234863	0.055176	1.005859	8.750000	67.480003	-13.720000	913.00	0.13	-0.08	0.00	0.00	0.25	0.50	0.00	0.00	0.25	0.00	0.00	0.00	0.00	0.00	0.00	0.00	0.00	0.00	-1.196289	0.338379	1.259766	-36.750000	-230.930008	102.269997	12.00	0.00	0.00
1.23	0.50	1.25	1.00	2.50	2.00	5.00	3.50	7.00	10.50	9.75	10.75	8.75	8.50	9.50	1.50	2.50	-0.240723	0.036133	1.025879	10.010000	74.970001	-13.790000	919.00	0.15	-0.08	0.00	0.00	0.00	0.50	0.00	0.00	0.50	0.00	0.00	0.00	0.00	0.00	0.00	0.00	0.00	0.00	-1.487793	0.370117	1.153809	-48.860001	-208.110001	109.199997	13.00	0.00	0.00
1.24	0.75	0.75	0.75	2.25	1.50	4.25	3.50	6.75	11.25	10.25	11.50	9.00	8.75	10.25	1.50	3.00	-0.241211	0.044922	1.023926	13.300000	82.459999	-13.580000	931.00	0.16	-0.07	0.00	0.25	0.25	0.50	0.00	0.00	0.25	0.00	0.00	0.00	0.00	0.00	0.00	0.00	0.00	0.00	-1.763184	0.353516	1.092285	-53.480000	-183.539993	112.349998	14.00	0.00	0.00
1.25	0.50	0.75	0.75	2.00	1.25	3.50	3.25	6.50	11.50	10.50	12.00	9.50	9.00	11.00	2.00	3.50	-0.284668	0.066406	0.974121	18.270000	90.580002	-14.490000	940.00	0.17	-0.07	0.00	0.00	0.25	0.75	0.00	0.00	0.25	0.00	0.00	0.00	0.00	0.00	0.00	0.00	0.00	0.00	-2.031738	0.298340	1.060059	-54.599998	-160.369995	111.020004	15.00	0.00	0.00
1.26	0.50	1.00	0.50	1.75	1.00	2.75	3.00	6.25	11.75	10.75	12.50	9.75	8.75	11.75	2.50	4.25	-0.319336	0.041016	1.011719	23.379999	97.930000	-16.590000	945.00	0.18	-0.06	0.00	0.00	0.25	0.50	0.00	0.00	0.25	0.00	0.00	0.00	0.00	0.00	0.00	0.00	0.00	0.00	-2.283203	0.256836	1.070312	-52.220001	-140.979996	104.930000	12.00	0.00	0.00
1.27	0.25	0.75	0.50	1.25	0.75	2.25	2.50	6.00	12.00	11.25	13.00	10.25	9.00	12.25	2.25	4.75	-0.322266	0.099609	1.008301	22.960001	108.080002	-17.080000	941.00	0.20	-0.06	0.00	0.00	0.25	0.50	0.00	0.00	0.25	0.00	0.00	0.00	0.00	0.00	0.00	0.00	0.00	0.00	-2.547852	0.197266	0.985352	-45.990002	-127.680000	93.239998	12.00	0.00	0.00
1.28	0.25	0.75	0.25	1.00	0.50	1.50	2.25	5.50	12.25	11.50	13.50	10.75	9.00	13.25	2.50	5.25	-0.344727	0.106445	0.992188	24.710001	121.449997	-18.969999	943.00	0.21	-0.06	0.00	0.00	0.25	0.50	0.00	0.00	0.25	0.00	0.00	0.00	0.00	0.00	0.00	0.00	0.00	0.00	-2.800293	0.134277	0.751953	-34.230000	-114.449997	74.760002	12.00	0.00	0.00
1.29	0.25	0.00	0.00	1.25	0.50	1.25	1.75	5.25	12.25	11.75	13.75	11.00	8.75	14.00	3.00	5.50	-0.339355	0.095215	1.019531	23.730000	134.190002	-21.000000	941.00	0.22	-0.06	0.00	0.00	0.00	0.50	0.00	0.00	0.25	0.00	0.00	0.00	0.00	0.00	0.00	0.00	0.00	0.00	-2.994629	0.121582	0.545410	-17.639999	-97.090004	50.400002	9.00	0.00	0.00
1.30	0.00	0.25	0.00	0.75	0.00	1.00	1.75	5.00	12.50	12.00	14.25	11.25	8.75	15.00	3.25	5.75	-0.318359	0.053711	1.006348	22.820000	143.570007	-22.260000	950.00	0.23	-0.06	0.00	0.00	0.00	0.25	0.00	0.00	0.25	0.00	0.00	0.00	0.00	0.00	0.00	0.00	0.00	0.00	-3.144043	0.129395	0.357910	-0.910000	-74.690002	24.500000	7.00	0.00	0.00
1.31	0.00	0.25	0.00	0.75	0.00	0.50	1.25	4.25	12.50	12.25	14.50	11.50	8.50	16.00	3.25	6.00	-0.414551	0.137695	0.991211	21.700001	156.520004	-23.030001	941.00	0.24	-0.05	0.00	0.00	0.25	0.25	0.00	0.00	0.50	0.00	0.00	0.00	0.00	0.00	0.00	0.00	0.00	0.00	-3.218262	0.141113	0.101074	9.940000	-45.990002	2.940000	13.00	0.00	0.00
1.32	0.00	0.25	0.00	0.50	0.00	0.25	1.00	3.75	12.75	12.50	14.75	11.50	8.25	16.50	3.75	6.25	-0.419434	0.096191	1.032715	19.320000	173.740005	-25.129999	941.00	0.24	-0.05	0.00	0.00	0.00	0.50	0.00	0.00	0.25	0.00	0.00	0.00	0.00	0.00	0.00	0.00	0.00	0.00	-3.106934	0.175781	-0.068359	14.490000	-11.410000	-10.570000	9.00	0.00	0.00
1.33	0.25	0.00	0.00	0.50	0.00	0.00	0.75	3.25	12.50	12.50	15.00	11.50	7.75	17.25	4.50	6.25	-0.466797	0.103516	1.055176	16.590000	194.949997	-26.530001	936.00	0.25	-0.04	0.25	0.00	0.25	1.50	0.00	0.00	0.25	0.00	0.00	0.00	0.00	0.00	0.00	0.00	0.00	0.00	-4.167480	-0.270020	-0.264648	14.350000	20.090000	-12.530000	26.00	0.00	0.00
1.34	0.00	0.25	0.00	0.00	0.00	0.00	0.75	3.00	12.50	12.50	14.75	11.25	7.50	17.75	4.75	6.25	-0.482910	0.156738	1.100586	9.590000	213.430008	-29.960001	926.00	0.26	-0.04	0.25	0.25	0.50	1.25	0.00	0.00	0.25	0.00	0.00	0.00	0.00	0.00	0.00	0.00	0.00	0.00	-3.596680	-0.608398	-0.977051	-69.090004	118.300003	-26.040001	28.00	0.00	0.00
1.35	0.00	0.00	0.00	0.00	0.00	0.00	0.50	2.50	12.50	12.50	14.75	11.25	7.00	18.25	5.00	6.25	-0.562500	0.123535	1.049316	7.560000	232.889999	-31.080000	915.00	0.26	-0.03	1.00	2.00	1.00	2.00	0.00	0.00	0.25	0.00	0.00	0.00	0.00	0.00	0.00	0.00	0.00	0.00	-1.084961	0.638672	1.467773	-93.940002	194.949997	-49.700001	66.00	-0.32	-0.08
1.36	0.00	0.00	0.00	0.00	0.00	0.00	0.50	2.00	12.25	12.25	14.50	11.00	6.50	18.50	5.00	6.25	-0.533203	0.121094	1.193848	7.840000	264.110016	-34.090000	894.00	0.27	-0.03	3.00	5.00	2.50	5.00	0.50	0.00	0.25	0.00	0.00	0.00	0.00	0.00	0.00	0.00	0.00	0.00	-0.063477	1.075195	2.407715	-99.540001	160.089996	-23.030001	169.00	-0.33	-0.08
1.37	0.00	0.00	0.00	0.00	0.00	0.00	0.50	1.50	11.75	12.00	14.25	10.50	5.75	18.75	5.25	6.25	-0.554688	0.012207	1.204102	3.080000	288.190002	-36.189999	868.00	0.27	-0.02	7.50	9.25	4.50	8.00	0.75	0.25	0.50	0.00	0.00	0.00	0.00	0.00	0.00	0.00	0.00	0.00	-0.209961	0.061035	0.798340	-81.269997	98.980003	18.340000	319.00	-0.33	-0.06
1.38	0.00	0.00	0.00	0.00	0.00	0.00	0.75	1.25	11.25	11.75	13.75	10.00	5.25	18.50	5.50	6.00	-0.562012	-0.019043	1.519531	-7.350000	320.739990	-36.610001	843.00	0.27	-0.01	10.50	11.75	6.75	9.00	1.50	1.25	0.50	0.00	0.00	0.00	0.00	0.00	0.00	0.00	0.00	0.00	-0.450195	-0.471191	2.706543	-36.470001	136.779999	-7.280000	429.00	-0.33	-0.05
1.39	0.00	0.00	0.00	0.00	0.00	0.00	0.75	0.75	10.50	11.25	13.25	9.25	4.25	18.25	5.25	5.75	-0.958984	0.221191	1.104004	-12.390000	352.799988	-31.219999	792.00	0.28	-0.01	12.00	12.75	8.00	9.75	2.25	2.00	0.75	0.25	0.00	0.00	0.00	0.00	0.25	0.00	0.00	0.00	-0.334961	0.369141	1.527344	-18.900000	88.199997	-15.470000	502.00	-0.32	-0.05
1.40	0.00	0.00	0.00	0.00	0.00	0.00	0.75	0.50	9.50	10.50	12.00	8.25	3.25	17.75	5.25	5.25	-0.967285	0.294434	2.028809	0.630000	424.549988	-35.139999	728.00	0.28	0.00	12.75	13.50	8.50	10.50	3.75	3.75	0.75	0.75	0.00	0.00	0.00	0.00	0.00	0.00	0.00	0.00	-0.123535	0.329102	1.064453	-35.490002	64.190002	-1.400000	571.00	-0.30	-0.06
1.41	0.00	0.00	0.00	0.00	0.00	0.00	0.75	0.25	8.25	9.25	10.75	7.25	2.25	16.50	4.75	4.75	-0.967285	0.294434	2.028809	0.630000	424.549988	-35.139999	644.00	0.29	0.01	13.50	14.50	9.00	11.25	5.50	5.00	1.00	1.00	0.25	0.00	0.00	0.00	0.25	0.00	0.00	0.00	-0.145508	0.096680	1.423828	-56.420002	48.509998	1.540000	648.00	-0.29	-0.06
1.42	0.00	0.00	0.00	0.00	0.00	0.00	0.75	0.00	7.50	8.25	9.00	6.00	1.50	14.75	4.00	3.75	-1.138184	0.206543	2.130371	18.900000	461.160004	-39.549999	554.00	0.29	0.02	14.50	15.00	10.00	12.00	6.25	6.00	1.00	1.50	0.25	0.00	0.25	0.00	0.75	0.25	0.00	0.00	-0.114746	-0.014648	1.214355	-38.990002	23.030001	-1.540000	718.00	-0.28	-0.07
1.43	0.00	0.00	0.00	0.00	0.00	0.00	0.50	0.00	5.75	6.50	7.25	4.25	0.75	12.50	3.00	3.00	-1.234863	0.441895	3.034668	88.480003	519.890015	-41.020000	432.00	0.29	0.03	15.25	15.25	10.50	12.50	7.25	7.00	1.25	1.75	0.25	0.25	0.25	0.50	1.00	0.25	0.00	0.25	-0.134277	0.092285	1.077637	-20.790001	1.050000	-1.330000	780.00	-0.27	-0.07
1.44	0.00	0.00	0.00	0.00	0.00	0.00	0.25	0.00	4.50	4.50	5.00	2.75	0.50	9.75	2.00	2.25	-1.050781	0.186035	3.237305	129.289993	541.099976	-48.439999	311.00	0.30	0.04	15.50	16.00	11.00	13.00	7.75	7.75	1.25	2.25	0.75	0.25	0.75	0.00	1.25	0.50	0.00	0.00	-0.068848	0.058594	1.005371	-11.130000	-6.160000	-1.050000	831.00	-0.26	-0.07
1.45	0.00	0.00	0.00	0.00	0.00	0.00	0.25	0.00	2.50	3.00	3.25	2.25	0.50	6.50	1.25	1.25	-0.867676	0.443848	3.201172	146.369995	564.619995	-58.029999	205.00	0.29	0.03	15.75	16.50	11.25	13.25	8.75	8.50	1.50	3.00	0.50	0.50	0.50	0.50	1.50	0.75	0.00	0.00	-0.087402	0.040039	1.018066	-5.950000	-6.370000	-1.540000	884.00	-0.25	-0.07
1.46	0.00	0.00	0.00	0.00	0.00	0.00	0.25	0.00	2.25	2.50	2.00	1.75	0.75	3.25	0.50	0.75	0.166992	0.435059	3.201172	147.279999	570.080017	-82.599998	142.00	0.27	0.02	16.25	16.25	11.25	13.00	9.00	8.75	1.75	3.50	0.75	0.75	1.00	0.50	1.75	0.75	0.00	0.00	-0.071777	0.022949	1.014648	-0.910000	-4.200000	-0.210000	915.00	-0.24	-0.07
1.47	0.00	0.25	0.00	0.00	0.00	0.00	0.25	0.00	1.00	1.50	1.00	1.00	0.25	2.00	0.00	0.50	0.456055	0.504883	2.291016	145.529999	577.780029	-117.320000	78.00	0.25	0.03	15.75	16.00	11.25	13.50	9.25	9.25	1.75	4.75	0.75	0.75	1.00	0.75	2.25	1.00	0.00	0.00	-0.080566	0.070801	1.017090	3.360000	-1.330000	0.770000	949.00	-0.23	-0.08
1.48	0.00	0.00	0.00	0.00	0.00	0.00	0.25	0.00	0.75	1.00	0.50	0.25	0.00	1.00	0.25	0.50	-0.547363	0.929199	5.233398	82.739998	482.440002	-136.289993	46.00	0.00	0.00	15.25	15.75	11.25	13.25	9.50	9.25	2.00	5.50	0.75	1.00	1.00	0.75	2.50	1.00	0.00	0.25	-0.080078	0.072266	1.023438	4.480000	1.890000	1.260000	963.00	-0.22	-0.09
1.49	0.00	0.00	0.00	0.00	0.00	0.00	0.25	0.00	0.50	1.25	0.75	0.50	0.00	1.00	0.00	0.75	1.404297	0.955078	5.796875	-12.670000	211.470001	-101.080002	49.00	0.00	0.00	14.75	15.00	11.00	13.00	9.50	9.75	2.00	6.00	1.00	1.00	1.25	1.00	3.50	1.25	0.25	0.00	-0.076660	0.074219	1.022949	4.410000	4.760000	0.700000	979.00	-0.20	-0.09
1.50	0.00	0.00	0.00	0.00	0.00	0.00	0.25	0.00	0.25	1.00	0.75	0.50	0.00	0.25	0.25	0.50	1.385742	1.391602	4.440430	-64.959999	-59.709999	-42.349998	38.00	0.00	0.00	13.50	14.50	10.75	12.75	9.50	9.75	2.25	6.00	1.25	1.00	1.25	1.00	3.25	1.00	0.25	0.50	-0.102539	0.073730	1.028320	3.640000	7.210000	0.560000	961.00	-0.20	-0.09
1.51	0.00	0.25	0.00	0.00	0.00	0.00	0.25	0.00	0.25	0.75	0.50	0.50	0.00	0.50	0.00	0.25	0.918945	1.212891	2.656250	-67.410004	-183.259995	7.070000	33.00	0.00	0.00	12.50	13.50	10.50	12.25	9.50	9.50	2.25	6.50	1.25	1.25	1.50	1.00	3.25	1.50	0.25	0.50	-0.083984	0.066895	1.027832	3.360000	9.450000	0.980000	948.00	-0.19	-0.10
1.52	0.00	0.25	0.00	0.00	0.00	0.00	0.25	0.00	0.00	0.50	0.25	0.25	0.00	0.00	0.00	0.50	0.891113	0.880371	1.742676	-35.139999	-208.110001	30.940001	19.00	0.00	0.00	11.25	12.75	10.00	12.00	9.00	9.25	2.25	6.50	1.50	1.25	1.25	1.25	3.50	1.25	0.00	0.25	-0.085938	0.066406	1.024414	3.640000	12.040000	1.330000	911.00	-0.18	-0.10
1.53	0.00	0.00	0.00	0.00	0.00	0.00	0.25	0.00	0.25	0.50	0.25	0.00	0.00	0.25	0.25	0.50	0.755371	0.599609	1.737793	-9.450000	-216.160004	37.520000	22.00	0.00	0.00	10.00	11.25	9.50	11.50	8.75	9.25	2.00	6.50	1.75	1.00	1.25	1.25	3.50	1.25	0.25	0.25	-0.082520	0.068848	1.022949	3.570000	14.490000	1.820000	870.00	-0.17	-0.10
1.54	0.00	0.25	0.00	0.00	0.00	0.00	0.25	0.00	0.25	0.25	0.25	0.25	0.00	0.00	0.00	0.50	0.789062	0.294434	1.894043	-1.820000	-239.750000	40.389999	20.00	0.00	0.00	8.75	10.25	8.75	10.75	8.25	8.75	2.00	6.25	1.50	1.25	1.75	1.25	3.75	1.50	0.00	0.50	-0.086914	0.061523	1.008301	3.430000	17.080000	2.030000	824.00	-0.16	-0.11
1.55	0.00	0.00	0.00	0.25	0.00	0.00	0.25	0.00	0.00	0.25	0.25	0.00	0.00	0.00	0.00	0.50	0.719238	0.122559	1.937500	-9.310000	-280.209991	38.709999	14.00	0.00	0.00	7.25	9.00	8.25	10.00	7.50	8.25	2.00	6.25	1.50	1.50	1.75	1.25	3.75	1.50	0.25	0.25	-0.083984	0.056641	1.000488	3.640000	19.530001	1.680000	773.00	-0.15	-0.11
1.56	0.00	0.00	0.00	0.25	0.00	0.00	0.25	0.00	0.00	0.00	0.25	0.00	0.00	0.00	0.00	0.00	0.554199	0.036621	1.896973	-20.440001	-325.149994	31.150000	9.00	0.00	0.00	6.00	7.50	7.50	9.25	6.75	8.00	2.00	6.25	1.50	1.50	2.00	1.50	4.25	1.25	0.25	0.50	-0.079590	0.071289	0.992676	3.570000	21.280001	1.330000	728.00	-0.13	-0.12
1.57	0.00	0.00	0.00	0.00	0.00	0.00	0.25	0.00	0.00	0.00	0.25	0.00	0.00	0.00	0.00	0.25	0.429199	0.036621	1.837402	-25.340000	-366.239990	21.000000	8.00	0.00	0.00	5.25	6.25	6.50	8.50	6.00	7.25	2.00	6.00	1.75	1.75	1.75	1.50	4.25	1.50	0.25	0.50	-0.081055	0.079102	0.996094	1.750000	24.360001	0.280000	674.00	-0.12	-0.12
1.58	0.00	0.00	0.00	0.00	0.00	0.00	0.25	0.00	0.00	0.00	0.00	0.00	0.00	0.00	0.00	0.25	0.276855	0.058105	1.748535	-22.120001	-399.700012	11.060000	5.00	0.00	0.00	3.50	5.00	5.75	7.50	5.50	6.75	1.75	6.00	2.00	1.75	2.25	2.00	4.00	1.75	0.25	0.50	-0.093750	0.092773	0.980957	0.700000	26.320000	-1.050000	624.00	-0.09	-0.12
1.59	0.00	0.00	0.00	0.00	0.00	0.00	0.25	0.00	0.00	0.00	0.00	0.00	0.00	0.00	0.00	0.25	0.097168	0.081543	1.579590	-13.020000	-425.250000	3.150000	5.00	0.00	0.00	2.75	3.25	5.00	6.50	4.50	6.00	1.75	5.75	1.75	1.75	2.25	1.75	4.75	1.75	0.00	0.50	-0.096680	0.052734	1.007324	0.280000	28.210001	-2.100000	556.00	-0.07	-0.13
1.60	0.00	0.00	0.00	0.00	0.00	0.00	0.25	0.00	0.00	0.00	0.00	0.00	0.00	0.00	0.00	0.25	-0.108887	0.113770	1.380859	-3.500000	-439.250000	-2.030000	5.00	0.00	0.00	2.25	2.25	3.50	5.50	3.75	5.50	1.75	5.75	2.25	1.75	2.50	2.00	4.75	1.75	0.25	0.75	-0.110352	0.085449	0.996094	1.050000	30.309999	-3.150000	516.00	-0.04	-0.14
1.61	0.00	0.25	0.50	0.00	0.00	0.00	0.25	0.00	0.00	0.00	0.00	0.00	0.00	0.00	0.00	0.25	-0.276855	0.161621	1.329590	3.500000	-443.170013	-2.800000	13.00	0.00	0.00	1.50	1.50	3.25	5.25	3.00	4.00	1.75	5.25	2.50	2.25	2.75	2.25	4.50	1.75	0.25	0.75	-0.106934	0.078613	1.001465	2.380000	32.270000	-4.620000	475.00	-0.01	-0.13
1.62	0.00	0.00	0.00	0.00	0.00	0.00	0.25	0.00	0.00	0.00	0.00	0.00	0.00	0.00	0.00	0.25	-0.410645	0.218750	1.369629	6.440000	-442.679993	1.120000	5.00	0.00	0.00	1.50	1.50	2.50	4.50	2.50	3.75	1.75	5.00	2.50	2.25	2.75	2.25	5.00	2.25	0.25	0.75	-0.129883	0.075684	0.999023	4.340000	34.930000	-5.670000	455.00	0.00	-0.13
1.63	0.00	0.25	0.25	0.00	0.00	0.00	0.25	0.00	0.00	0.00	0.00	0.00	0.00	0.00	0.00	0.25	-0.484863	0.289062	1.483887	7.140000	-441.839996	8.750000	10.00	0.00	0.00	1.25	1.25	2.00	3.50	1.75	2.75	1.50	4.75	2.50	2.75	3.25	2.50	5.00	2.25	0.50	0.75	-0.108887	0.075195	0.993164	6.440000	38.990002	-6.790000	423.00	0.03	-0.13
1.64	0.00	0.50	0.50	0.00	0.00	0.00	0.25	0.00	0.00	0.00	0.00	0.00	0.00	0.00	0.00	0.25	-0.589844	0.395508	1.724609	8.470000	-442.820007	20.440001	15.00	0.00	0.00	0.75	1.25	1.50	2.75	1.75	1.50	1.50	4.25	2.75	3.25	3.25	2.50	5.00	2.75	0.25	0.75	-0.136719	0.060059	1.020508	8.750000	44.869999	-8.820000	393.00	0.06	-0.12
1.65	0.00	0.00	0.00	0.00	0.00	0.00	0.25	0.00	0.00	0.00	0.00	0.00	0.00	0.00	0.00	0.25	-0.701172	0.495605	1.752930	12.740000	-450.450012	52.009998	5.00	0.00	0.00	0.50	0.25	1.25	2.75	1.25	1.25	1.50	4.25	3.25	3.25	3.75	3.25	5.50	3.50	0.25	1.00	-0.166016	0.057129	1.002930	11.690000	50.470001	-10.220000	402.00	0.10	-0.12
1.66	0.00	0.00	0.00	0.00	0.00	0.00	0.25	0.00	0.00	0.00	0.00	0.00	0.00	0.00	0.00	0.25	-0.762695	0.488770	1.839844	23.100000	-452.760010	64.610001	5.00	0.00	0.00	0.50	0.50	1.25	3.00	1.00	1.00	1.50	4.25	3.75	3.75	4.50	4.00	5.75	4.25	0.75	1.25	-0.187988	0.044434	0.983398	16.730000	55.930000	-10.570000	444.00	0.12	-0.11
1.67	0.00	0.00	0.00	0.00	0.00	0.00	0.25	0.00	0.00	0.00	0.00	0.00	0.00	0.00	0.00	0.25	-0.828613	0.491699	2.002441	34.580002	-452.269989	74.970001	5.00	0.00	0.00	0.50	0.00	1.00	2.50	0.50	1.00	1.50	4.25	4.00	4.00	5.50	4.50	6.50	5.50	0.50	1.25	-0.155762	0.091797	1.000488	20.160000	61.250000	-10.010000	462.00	0.14	-0.11
1.68	0.00	0.25	0.00	0.25	0.00	0.00	0.25	0.00	0.00	0.00	0.00	0.00	0.00	0.00	0.00	0.25	-0.881348	0.542480	2.288086	43.889999	-451.220001	85.330002	10.00	0.00	0.00	0.25	0.25	0.50	1.50	0.50	0.75	1.25	4.25	4.25	4.75	7.25	5.75	7.25	6.50	0.75	1.50	-0.208496	0.095215	0.963867	23.450001	65.309998	-11.480000	500.00	0.17	-0.11
1.69	0.00	0.00	0.00	0.00	0.00	0.00	0.00	0.00	0.00	0.00	0.00	0.00	0.00	0.00	0.00	0.25	-1.008301	0.648438	2.636719	47.110001	-452.200012	98.699997	1.00	0.00	0.00	0.00	0.00	0.75	1.50	0.25	0.50	1.25	4.25	4.75	5.50	8.25	7.50	8.00	7.50	1.00	1.75	-0.229980	0.073730	0.961426	27.580000	68.669998	-13.090000	555.00	0.19	-0.11
1.70	0.00	0.00	0.00	0.00	0.00	0.00	0.00	0.00	0.00	0.00	0.00	0.00	0.00	0.00	0.00	0.25	-1.379883	0.766113	2.869629	48.160000	-455.000000	116.900002	1.00	0.00	0.00	0.00	0.00	0.50	1.00	0.00	0.25	1.25	4.00	5.50	7.50	9.00	8.00	8.50	8.50	1.00	2.25	-0.178711	0.081055	0.994141	29.260000	72.029999	-13.300000	597.00	0.21	-0.10
1.71	0.00	0.00	0.00	0.00	0.00	0.00	0.25	0.00	0.00	0.00	0.00	0.00	0.00	0.00	0.00	0.25	-1.954102	0.757324	2.987305	57.680000	-456.260010	137.899994	5.00	0.00	0.00	0.00	0.00	0.25	1.00	0.00	0.25	1.25	4.25	6.25	8.25	9.75	8.75	9.25	9.75	1.50	2.75	-0.209961	0.116699	0.991211	29.610001	77.349998	-15.050000	656.00	0.21	-0.10
1.72	0.00	0.25	0.00	0.00	0.00	0.00	0.00	0.00	0.00	0.00	0.00	0.00	0.00	0.00	0.00	0.25	-2.767578	0.590332	2.939941	72.590004	-452.200012	156.309998	4.00	0.00	0.00	0.00	0.00	0.00	1.50	0.00	0.25	1.00	4.00	7.25	9.00	10.75	9.50	9.50	11.50	2.00	3.25	-0.255859	0.110352	1.035645	30.799999	84.419998	-17.570000	716.00	0.22	-0.09
1.73	0.00	0.00	0.00	0.00	0.00	0.00	0.25	0.00	0.00	0.00	0.00	0.00	0.00	0.00	0.00	0.25	-3.677734	0.171387	2.802734	98.769997	-437.920013	166.809998	5.00	0.00	0.00	0.00	0.00	0.25	0.75	0.00	0.00	1.00	4.00	8.00	9.75	11.50	10.25	10.00	13.25	2.25	4.75	-0.263672	0.117188	1.029785	28.840000	92.889999	-17.780001	771.00	0.23	-0.08
1.74	0.00	0.00	0.00	0.00	0.00	0.00	0.25	0.00	0.00	0.00	0.00	0.00	0.00	0.00	0.00	0.25	-4.617188	-0.300293	2.313477	98.209999	-413.420013	170.309998	5.00	0.00	0.00	0.00	0.00	0.00	1.00	0.00	0.00	0.75	3.75	8.50	10.25	12.00	11.00	10.25	15.00	3.00	5.50	-0.290039	0.134766	1.026367	24.430000	103.180000	-17.780001	817.00	0.24	-0.08
1.75	0.00	0.00	0.00	0.00	0.00	0.00	0.00	0.00	0.00	0.00	0.00	0.00	0.00	0.00	0.00	0.25	-5.275879	-0.523926	1.387695	45.570000	-368.059998	164.220001	1.00	0.00	0.00	0.00	0.00	0.00	0.25	0.00	0.00	0.75	3.50	9.25	11.00	12.75	11.50	10.50	17.25	3.50	6.25	-0.314453	0.119141	1.030273	18.830000	112.419998	-18.059999	867.00	0.25	-0.07
1.76	0.00	0.00	0.00	0.00	0.00	0.00	0.00	0.00	0.00	0.00	0.00	0.00	0.00	0.00	0.00	0.25	-5.551270	-0.469238	0.553223	-18.830000	-299.600006	142.729996	1.00	0.00	0.00	0.00	0.00	0.00	0.00	0.00	0.00	0.50	3.00	9.75	11.50	13.25	11.75	10.75	18.75	4.75	6.50	-0.261719	0.144043	1.122559	15.610000	121.730003	-18.969999	901.00	0.26	-0.06
1.77	0.00	0.00	0.00	0.00	0.00	0.00	0.00	0.00	0.00	0.00	0.00	0.00	0.00	0.00	0.00	0.00	-5.245117	-0.164062	-0.153809	-61.740002	-226.309998	103.040001	0.00	0.00	0.00	0.00	0.00	0.00	0.25	0.00	0.00	0.25	2.25	10.00	12.00	13.50	12.25	10.75	20.25	5.50	7.00	-0.346191	0.176270	1.188965	14.420000	138.600006	-21.840000	929.00	0.26	-0.06
1.78	0.00	0.00	0.00	0.00	0.00	0.00	0.00	0.00	0.00	0.00	0.00	0.00	0.00	0.00	0.00	0.25	-5.255859	0.287598	-0.318359	-83.790001	-149.029999	68.529999	1.00	0.00	0.00	0.00	0.00	0.00	0.75	0.00	0.00	0.00	1.75	10.50	12.50	13.75	12.25	10.50	21.25	6.25	7.50	-0.405273	0.222656	1.148438	7.070000	188.089996	-33.950001	954.00	0.27	-0.05
1.79	0.00	0.25	0.25	0.00	0.00	0.00	0.00	0.00	0.00	0.00	0.00	0.00	0.00	0.00	0.00	0.25	-5.143555	0.424316	-0.491211	-87.360001	-77.279999	50.750000	6.00	0.00	0.00	0.00	0.00	0.00	0.00	0.00	0.00	0.00	1.50	11.00	12.50	14.00	12.25	10.25	22.25	6.75	7.50	-0.433594	0.174805	1.196777	-1.610000	221.619995	-38.990002	963.00	0.27	-0.04
1.80	0.00	0.00	0.00	0.00	0.00	0.00	0.00	0.00	0.00	0.00	0.00	0.00	0.00	0.00	0.00	0.25	-5.230469	0.520508	-0.515137	-76.300003	-21.420000	39.200001	1.00	0.00	0.00	0.00	0.00	0.00	0.00	0.00	0.00	0.00	1.00	10.75	13.00	14.00	12.25	10.00	23.00	7.25	7.50	-0.623535	0.183105	1.252441	-1.540000	252.139999	-41.650002	967.00	0.28	-0.04
1.81	0.25	0.25	0.25	0.25	0.00	0.00	0.25	0.00	0.00	0.00	0.00	0.00	0.00	0.00	0.00	0.25	-5.128906	0.443359	-0.585938	-47.180000	36.189999	29.400000	16.00	0.00	0.00	0.00	0.00	0.00	0.00	0.00	0.00	0.00	0.50	10.75	12.75	13.75	12.00	9.50	23.50	7.50	7.50	-0.439453	0.145996	1.299316	-12.670000	285.600006	-45.990002	954.00	0.28	-0.03
1.82	0.75	2.25	0.50	1.25	0.00	0.00	0.25	0.00	0.00	0.00	0.00	0.00	0.00	0.00	0.00	0.25	-9.196777	-0.707031	-0.458496	-45.990002	163.240005	21.910000	53.00	-0.31	-0.09	0.00	0.00	0.00	0.00	0.00	0.00	0.00	0.25	10.25	12.75	13.50	11.75	8.75	23.50	7.50	6.75	-0.579590	0.261719	1.351074	-29.469999	307.440002	-52.150002	928.00	0.29	-0.03
1.83	2.75	5.00	2.25	3.00	0.25	0.00	0.25	0.00	0.00	0.00	0.00	0.00	0.00	0.00	0.00	0.25	-0.541504	0.202637	-2.463379	-63.070000	298.619995	-5.320000	140.00	-0.33	-0.06	0.00	0.00	0.00	0.00	0.00	0.00	0.00	0.25	10.00	12.50	13.00	11.25	8.25	23.25	7.25	6.50	-0.542480	0.241211	1.392578	-37.520000	357.070007	-55.230000	901.00	0.29	-0.03
1.84	12.50	18.00	4.50	7.50	0.50	0.00	0.25	0.00	0.00	0.00	0.00	0.00	0.00	0.00	0.00	0.25	0.461426	-0.088379	3.898438	-29.330000	291.619995	7.630000	438.00	-0.36	-0.06	0.00	0.00	0.00	0.00	0.00	0.00	0.00	0.00	9.25	12.00	12.50	10.50	7.50	23.00	7.25	5.75	-0.953613	0.599121	1.924316	-38.150002	399.910004	-62.020000	856.00	0.29	-0.02
1.85	23.25	27.25	8.25	10.75	1.00	0.00	0.25	0.00	0.00	0.00	0.00	0.00	0.00	0.00	0.00	0.25	-0.753906	-1.317383	0.455078	16.170000	224.699997	4.900000	718.00	-0.36	-0.05	0.00	0.00	0.00	0.00	0.00	0.00	0.00	0.00	8.00	11.25	11.50	9.50	6.00	21.75	6.50	4.25	-0.839844	0.384766	2.140137	-24.150000	440.649994	-71.330002	771.00	0.29	-0.01
1.86	28.25	31.25	11.25	14.75	2.00	1.25	0.25	0.00	0.00	0.00	0.00	0.00	0.00	0.00	0.00	0.25	-2.065430	0.900391	6.331055	37.939999	378.000000	-36.750000	908.00	-0.35	-0.05	0.00	0.00	0.00	0.00	0.00	0.00	0.00	0.00	6.75	10.00	10.25	8.50	4.50	20.00	5.50	2.75	-0.891602	0.556152	2.541016	-15.610000	479.220001	-77.559998	672.00	0.29	-0.01
1.87	29.00	32.25	13.25	17.25	4.25	2.50	0.50	0.00	0.00	0.00	0.00	0.00	0.00	0.00	0.00	0.25	-1.100586	0.683594	3.331055	-23.870001	244.020004	-13.090000	1017.00	-0.34	-0.05	0.00	0.00	0.00	0.00	0.00	0.00	0.00	0.00	5.50	8.50	8.75	7.00	2.25	17.00	4.00	1.25	-1.491699	0.584961	3.197266	4.270000	520.239990	-84.629997	539.00	0.29	0.01
1.88	28.25	31.50	13.50	17.75	5.25	3.50	0.50	0.25	0.00	0.00	0.00	0.00	0.00	0.00	0.00	0.25	-0.137695	-0.245117	1.339844	-53.480000	170.309998	0.490000	1036.00	-0.33	-0.05	0.00	0.00	0.00	0.00	0.00	0.00	0.00	0.00	4.00	7.25	6.75	4.50	1.50	13.00	2.25	0.75	-1.188477	0.691406	3.330078	47.740002	554.820007	-91.349998	397.00	0.29	0.02
1.89	26.75	29.75	14.00	18.00	6.25	4.50	0.75	0.50	0.00	0.00	0.00	0.00	0.00	0.00	0.00	0.25	-0.329102	-0.315430	1.291016	-36.470001	152.180008	-6.370000	1042.00	-0.33	-0.05	0.00	0.00	0.00	0.00	0.00	0.00	0.00	0.00	2.75	5.25	4.50	2.75	0.75	8.75	1.25	0.25	-0.828125	0.592773	3.603027	114.660004	579.809998	-99.470001	262.00	0.29	0.03
1.90	26.25	29.50	15.00	18.75	7.25	6.25	0.75	1.00	0.00	0.00	0.00	0.00	0.25	0.00	0.00	0.25	-0.516113	0.205566	1.986816	-38.220001	123.129997	-10.710000	1094.00	-0.32	-0.06	0.00	0.00	0.00	0.00	0.00	0.00	0.00	0.00	1.75	3.50	3.00	2.25	0.50	4.75	0.75	0.25	-0.687500	0.319824	4.115723	160.369995	593.039978	-107.520004	169.00	0.28	0.01
1.91	25.50	29.00	15.00	18.75	7.50	7.00	0.75	1.00	0.00	0.00	0.00	0.00	0.50	0.00	0.00	0.25	-0.328613	0.299316	1.268555	-34.299999	70.139999	-0.700000	1095.00	-0.31	-0.06	0.00	0.00	0.00	0.00	0.00	0.00	0.25	0.00	1.25	2.50	1.75	1.25	0.00	1.75	0.50	0.00	0.502930	0.399902	4.173828	161.000000	589.539978	-135.240005	98.00	0.27	0.03
1.92	24.75	28.50	15.00	19.00	7.75	7.75	0.75	1.25	0.50	0.00	0.25	0.25	0.25	0.50	0.00	0.25	-0.108887	-0.047852	0.948730	-23.170000	41.299999	1.820000	1114.00	-0.30	-0.06	0.25	0.00	0.00	0.00	0.00	0.00	0.25	0.00	0.75	1.50	1.25	1.00	0.00	0.75	0.00	0.00	1.312500	0.322266	2.839355	109.620003	576.940002	-178.289993	62.00	0.22	0.02
1.93	24.75	28.00	15.00	19.00	8.00	8.00	1.00	1.25	0.25	0.00	0.25	0.00	0.50	0.00	0.00	0.25	-0.218262	0.083008	1.126465	-9.730000	28.770000	-1.120000	1110.00	-0.30	-0.06	0.00	0.00	0.00	0.00	0.00	0.00	0.25	0.00	0.50	1.25	1.00	0.50	0.00	0.50	0.00	0.00	0.467773	2.443359	7.274902	80.360001	386.890015	-135.800003	43.00	0.00	0.00
1.94	24.00	27.75	14.75	19.00	8.00	8.25	1.00	1.50	0.25	0.00	0.00	0.00	0.50	0.25	0.00	0.25	-0.147461	0.062500	1.051270	-1.470000	19.040001	0.490000	1104.00	-0.30	-0.07	0.00	0.00	0.00	0.25	0.00	0.00	0.25	0.00	1.00	1.00	1.00	0.50	0.00	0.75	0.25	0.00	2.229492	1.231934	5.563965	5.670000	61.459999	-45.500000	55.00	0.23	0.05
1.95	23.25	27.25	14.50	18.25	7.75	8.25	1.00	1.50	0.25	0.25	0.25	0.00	0.50	0.00	0.00	0.25	-0.137695	0.025391	1.012695	4.830000	14.140000	0.910000	1080.00	-0.30	-0.07	0.00	0.00	0.00	0.00	0.00	0.00	0.25	0.00	0.75	1.00	1.00	0.50	0.00	0.50	0.00	0.00	1.348633	1.368164	3.462891	-63.700001	-157.009995	37.099998	44.00	0.00	0.00
1.96	22.50	26.25	14.00	18.00	7.50	8.00	0.75	1.50	0.25	0.25	0.00	0.00	0.50	0.25	0.00	0.50	-0.135742	0.083984	0.993652	8.120000	13.790000	0.700000	1047.00	-0.30	-0.07	0.00	0.00	0.00	0.00	0.00	0.00	0.25	0.00	0.50	1.00	0.75	0.25	0.00	0.25	0.00	0.00	1.091309	0.808105	1.716797	-59.220001	-198.309998	118.230003	33.00	0.00	0.00
1.97	21.75	25.25	13.00	17.50	7.00	8.00	1.00	1.50	0.50	0.25	0.25	0.25	0.50	0.25	0.00	0.25	-0.141602	0.050293	1.000488	8.890000	14.070000	1.260000	1019.00	-0.29	-0.07	0.00	0.00	0.00	0.25	0.00	0.00	0.25	0.00	0.50	0.75	1.00	0.25	0.00	0.25	0.00	0.00	1.196777	0.457520	1.961426	-22.610001	-215.600006	114.730003	36.00	0.00	0.00
1.98	20.00	24.25	12.75	16.75	6.75	7.75	0.75	1.50	0.50	0.00	0.25	0.00	0.50	0.00	0.00	0.25	-0.135742	0.039551	0.972656	10.780000	13.790000	1.400000	964.00	-0.30	-0.07	0.00	0.00	0.00	0.00	0.00	0.00	0.25	0.00	0.25	0.50	0.25	0.00	0.00	0.00	0.00	0.00	1.181641	0.114746	2.146973	-0.280000	-257.320007	94.360001	15.00	0.00	0.00
1.99	18.50	22.50	11.75	15.75	6.25	7.75	0.75	1.50	0.50	0.00	0.25	0.25	0.25	0.00	0.00	0.50	-0.098633	0.056641	0.925293	12.040000	14.630000	0.770000	906.00	-0.29	-0.07	0.00	0.00	0.00	0.25	0.00	0.00	0.25	0.00	0.00	0.50	0.50	0.00	0.00	0.25	0.00	0.00	1.019531	-0.132812	2.134277	-7.630000	-314.579987	68.669998	19.00	0.00	0.00
2.00	16.25	21.25	10.75	14.75	5.75	7.50	0.75	1.50	0.00	0.25	0.25	0.25	0.25	0.00	0.00	0.25	-0.083008	0.052246	0.908691	10.780000	18.900000	0.560000	836.00	-0.29	-0.08	0.00	0.00	0.00	0.00	0.00	0.00	0.25	0.00	0.00	0.25	0.25	0.00	0.00	0.00	0.00	0.00	0.784180	-0.217773	1.926758	-36.820000	-370.019989	42.910000	9.00	0.00	0.00
2.01	14.25	19.25	10.00	13.75	5.50	7.25	0.75	1.50	0.00	0.25	0.25	0.25	0.50	0.25	0.00	0.50	-0.098145	0.056641	0.928711	8.330000	23.170000	0.280000	778.00	-0.28	-0.08	0.00	0.00	0.00	0.00	0.00	0.00	0.25	0.00	0.00	0.25	0.25	0.00	0.00	0.00	0.00	0.00	0.520508	-0.153809	1.724609	-63.420002	-408.589996	18.410000	9.00	0.00	0.00
2.02	11.50	17.50	9.25	12.50	5.25	7.00	0.75	1.50	0.50	0.25	0.25	0.00	0.50	0.00	0.00	0.50	-0.094238	0.061523	0.930176	6.650000	26.180000	0.420000	707.00	-0.28	-0.08	0.00	0.00	0.25	0.50	0.00	0.00	0.25	0.00	0.00	0.00	0.25	0.00	0.00	0.00	0.00	0.00	0.318359	-0.074707	1.625000	-70.629997	-432.320007	-5.320000	15.00	0.00	0.00
2.03	10.00	14.75	8.50	11.50	4.75	7.00	0.75	1.50	0.00	0.25	0.25	0.25	0.50	0.25	0.00	0.25	-0.104980	0.052246	0.950195	5.950000	28.139999	-0.700000	638.00	-0.27	-0.09	0.00	0.00	0.00	0.00	0.00	0.00	0.25	0.00	0.00	0.00	0.00	0.00	0.00	0.00	0.00	0.00	0.114258	-0.030273	1.496094	-58.869999	-448.559998	-27.580000	4.00	0.00	0.00
2.04	8.25	13.25	7.75	10.25	4.50	6.75	0.75	1.75	0.50	0.50	0.25	0.25	0.75	0.00	0.00	0.50	-0.102051	0.088379	0.905273	-0.350000	31.150000	-3.850000	593.00	-0.25	-0.09	0.00	0.00	0.00	0.00	0.00	0.00	0.25	0.00	0.00	0.00	0.00	0.00	0.00	0.00	0.00	0.00	-0.088379	0.013184	1.500977	-39.340000	-457.940002	-46.340000	4.00	0.00	0.00
2.05	7.00	11.00	7.25	9.50	4.25	6.25	0.75	2.00	0.00	0.50	0.50	0.50	0.75	0.00	0.00	0.25	-0.102051	0.088379	0.905273	-0.350000	31.150000	-3.850000	539.00	-0.25	-0.10	0.00	0.00	0.00	0.00	0.00	0.00	0.25	0.00	0.00	0.00	0.00	0.00	0.00	0.00	0.00	0.00	-0.252441	0.037598	1.565918	-21.280001	-463.679993	-57.750000	4.00	0.00	0.00
2.06	6.50	9.25	6.50	8.75	4.00	6.25	0.75	2.00	0.00	0.50	0.50	0.75	1.00	0.00	0.00	0.25	-0.136719	0.087402	0.925781	-7.280000	33.459999	-4.900000	503.00	-0.24	-0.11	0.00	0.00	0.00	0.00	0.00	0.00	0.25	0.00	0.25	0.00	0.00	0.00	0.00	0.00	0.00	0.00	-0.376953	0.053711	1.590820	-12.600000	-469.350006	-59.920002	7.00	0.00	0.00
2.07	5.25	7.75	6.00	7.75	4.00	6.25	0.75	2.50	0.50	0.75	0.75	0.50	1.25	0.00	0.00	0.50	-0.162109	0.044922	0.967773	-14.420000	31.010000	-5.180000	480.00	-0.21	-0.11	0.00	0.00	0.00	0.00	0.00	0.00	0.25	0.00	0.00	0.00	0.00	0.00	0.00	0.00	0.00	0.00	-0.469238	0.136230	1.614258	-11.270000	-472.709991	-52.009998	4.00	0.00	0.00
2.08	4.50	6.50	5.50	7.25	4.00	6.00	0.75	2.75	0.50	1.00	1.25	1.00	1.50	0.25	0.00	0.50	-0.138672	0.048340	0.937988	-10.920000	28.490000	-5.040000	468.00	-0.18	-0.12	0.00	0.00	0.00	0.00	0.00	0.00	0.25	0.00	0.25	0.00	0.00	0.00	0.00	0.00	0.00	0.00	-0.466309	0.244141	1.706543	-5.740000	-473.339996	-34.160000	7.00	0.00	0.00
2.09	3.75	5.50	5.00	7.00	4.25	6.25	1.00	3.75	0.75	1.00	1.50	1.25	2.00	0.50	0.25	0.50	-0.139648	0.080566	1.003418	-6.930000	28.350000	-4.830000	485.00	-0.15	-0.13	0.00	0.00	0.00	0.00	0.00	0.00	0.25	0.00	0.00	0.00	0.00	0.00	0.00	0.00	0.00	0.00	-1.064941	0.397461	1.740234	-2.380000	-469.140015	-8.680000	4.00	0.00	0.00
2.10	3.25	5.00	4.75	6.25	4.00	6.25	1.25	4.75	1.25	1.25	1.75	1.25	2.75	1.50	0.25	0.75	-0.164062	0.019531	0.894043	-4.830000	27.440001	-6.300000	509.00	-0.11	-0.13	0.00	0.00	0.00	0.25	0.00	0.00	0.25	0.00	0.00	0.00	0.00	0.00	0.00	0.00	0.00	0.00	-0.693359	0.114258	1.931152	-24.639999	-462.000000	17.219999	7.00	0.00	0.00
2.11	2.50	4.75	4.25	5.50	4.00	6.25	1.25	5.25	1.75	1.75	2.25	2.00	3.25	1.75	0.25	0.75	-0.154785	0.033203	1.011230	-2.800000	31.080000	-4.760000	524.00	-0.08	-0.13	0.00	0.00	0.00	0.00	0.00	0.00	0.25	0.00	0.00	0.00	0.00	0.00	0.00	0.00	0.00	0.00	-0.683105	0.512695	2.264160	17.080000	-458.080017	30.799999	4.00	0.00	0.00
2.12	2.25	3.75	3.50	5.00	4.25	6.50	1.75	5.75	2.75	2.50	2.75	2.25	3.75	2.75	0.50	1.00	-0.148438	0.025391	0.961914	0.840000	33.040001	-5.810000	564.00	-0.03	-0.12	0.00	0.00	0.25	0.00	0.00	0.00	0.25	0.00	0.00	0.00	0.00	0.00	0.00	0.00	0.00	0.00	-0.747559	0.154297	2.500488	66.709999	-457.940002	29.400000	7.00	0.00	0.00
2.13	2.00	3.25	3.00	4.75	4.25	6.50	2.25	6.00	3.75	3.00	3.50	3.00	5.25	3.50	0.50	1.00	-0.213379	0.041504	0.984375	3.710000	36.049999	-7.980000	614.00	-0.00	-0.12	0.00	0.00	0.00	0.00	0.00	0.00	0.25	0.00	0.00	0.00	0.00	0.00	0.00	0.00	0.00	0.00	-0.907715	-0.016602	2.935059	78.820000	-459.619995	19.670000	4.00	0.00	0.00
2.14	1.25	2.50	2.50	4.50	4.00	6.25	2.50	6.25	5.00	3.75	5.00	4.00	6.25	5.00	0.75	1.50	-0.169434	0.072266	0.964355	5.110000	39.970001	-10.710000	670.00	0.04	-0.11	0.00	0.00	0.25	0.00	0.00	0.00	0.25	0.00	0.00	0.00	0.00	0.00	0.00	0.00	0.00	0.00	-1.181152	0.095215	3.237793	72.660004	-462.559998	4.200000	7.00	0.00	0.00
2.15	1.50	2.25	2.25	3.75	4.00	5.75	2.75	6.50	7.00	5.25	6.50	5.25	7.00	6.75	0.75	1.75	-0.192383	0.076660	0.985352	7.560000	45.709999	-13.790000	755.00	0.08	-0.09	0.00	0.00	0.00	0.00	0.00	0.00	0.25	0.00	0.00	0.00	0.00	0.00	0.00	0.00	0.00	0.00	-1.647461	0.362793	3.497070	80.709999	-466.480011	-9.590000	4.00	0.00	0.00
2.16	1.50	1.50	2.00	3.50	3.25	5.50	2.75	6.75	8.00	7.25	7.75	6.50	7.75	8.25	1.25	2.00	-0.226074	0.081543	0.993164	11.970000	52.360001	-18.690001	821.00	0.11	-0.09	0.00	0.00	0.00	0.00	0.00	0.00	0.25	0.00	0.00	0.00	0.00	0.00	0.00	0.00	0.00	0.00	-2.249023	0.563965	3.568359	103.320000	-471.309998	-13.090000	4.00	0.00	0.00
2.17	0.75	1.75	1.25	3.00	3.00	5.00	2.75	7.00	8.50	8.00	8.75	7.50	8.50	9.50	1.50	3.00	-0.170410	0.056641	0.962402	16.940001	61.880001	-22.820000	858.00	0.13	-0.09	0.00	0.00	0.00	0.00	0.00	0.00	0.25	0.00	0.00	0.00	0.00	0.00	0.00	0.00	0.00	0.00	-3.446777	0.089844	3.006348	140.770004	-448.000000	44.939999	4.00	0.00	0.00
2.18	1.00	1.25	1.00	2.50	2.25	4.25	2.75	6.75	9.25	8.75	9.75	8.50	9.00	10.50	1.75	4.00	-0.269043	0.081543	0.967285	22.960001	72.239998	-26.460001	887.00	0.15	-0.08	0.00	0.00	0.00	0.00	0.00	0.00	0.25	0.00	0.00	0.25	0.00	0.00	0.00	0.00	0.00	0.00	-3.857910	-0.053223	2.642578	119.139999	-414.890015	98.349998	6.00	0.00	0.00
2.19	0.50	1.50	1.00	2.00	1.50	3.50	2.50	6.75	10.00	9.25	10.75	9.25	9.50	11.75	2.25	4.75	-0.237793	0.077148	1.052734	24.430000	85.959999	-26.180000	917.00	0.17	-0.08	0.00	0.00	0.00	0.00	0.00	0.00	0.25	0.00	0.00	0.00	0.00	0.00	0.00	0.00	0.00	0.00	-4.121582	-0.140137	1.564453	71.190002	-373.170013	170.660004	4.00	0.00	0.00
2.20	0.75	0.75	0.75	1.75	1.25	2.75	2.25	6.50	10.50	10.00	11.50	10.00	9.75	13.25	2.50	5.25	-0.277344	0.066895	1.095215	26.740000	104.300003	-24.290001	939.00	0.18	-0.08	0.00	0.00	0.00	0.00	0.00	0.00	0.25	0.00	0.00	0.00	0.25	0.00	0.00	0.00	0.00	0.00	-5.971191	0.102051	0.539062	11.690000	-317.170013	210.350006	6.00	0.00	0.00
2.21	0.75	0.75	0.50	1.50	1.00	2.25	2.00	6.25	11.00	10.50	12.50	11.00	10.25	14.50	3.00	5.75	-0.258789	0.116699	1.078613	32.480000	122.080002	-23.379999	973.00	0.20	-0.08	0.00	0.00	0.00	0.00	0.00	0.00	0.25	0.00	0.00	0.00	0.00	0.00	0.00	0.00	0.00	0.00	-7.444824	0.473145	-0.956055	23.379999	-249.899994	182.210007	4.00	0.00	0.00
2.22	0.50	0.50	0.25	1.50	0.50	1.25	1.50	6.00	11.25	11.00	13.25	11.50	10.25	16.00	4.25	6.25	-0.291504	0.056152	1.117188	39.830002	138.529999	-24.290001	988.00	0.21	-0.07	0.00	0.00	0.00	0.00	0.00	0.00	0.25	0.00	0.00	0.00	0.25	0.00	0.00	0.00	0.00	0.00	-7.337891	0.062500	-1.849609	117.389999	-144.619995	124.320000	6.00	0.00	0.00
2.23	0.25	0.25	0.00	1.00	0.25	0.50	1.25	5.50	11.50	11.25	13.75	12.00	10.50	17.00	5.00	6.50	-0.360840	0.083008	1.159180	49.209999	159.250000	-23.940001	989.00	0.23	-0.07	0.00	0.00	0.25	0.00	0.00	0.00	0.25	0.00	0.00	0.00	0.00	0.00	0.00	0.00	0.00	0.00	-6.483887	-0.478027	-1.323242	164.360001	-17.570000	90.930000	7.00	0.00	0.00
2.24	0.00	0.00	0.00	0.50	0.00	0.25	0.75	5.00	11.75	11.50	14.25	12.25	10.00	17.50	5.25	6.75	-0.347168	0.009766	1.274414	49.840000	191.729996	-20.650000	975.00	0.24	-0.07	0.00	0.00	0.00	0.00	0.00	0.00	0.25	0.00	0.00	0.00	0.00	0.00	0.00	0.00	0.00	0.00	-5.235840	-0.680664	-0.204102	138.389999	83.019997	102.410004	4.00	0.00	0.00
2.25	0.00	0.00	0.00	0.25	0.00	0.00	0.50	4.25	11.25	11.50	14.50	12.25	9.75	18.50	5.75	7.00	-0.364746	0.082520	1.108398	47.320000	221.970001	-14.350000	964.00	0.25	-0.06	0.00	0.00	0.00	0.00	0.00	0.00	0.25	0.00	0.00	0.00	0.25	0.00	0.00	0.00	0.00	0.00	-4.080078	-0.631836	0.465820	90.580002	131.669998	140.419998	6.00	0.00	0.00
2.26	0.00	0.00	0.00	0.25	0.00	0.00	0.25	3.50	11.25	11.50	14.50	12.50	9.25	18.50	5.75	7.00	-0.404785	0.134277	1.170898	45.920002	257.390015	-12.950000	947.00	0.26	-0.06	0.00	0.00	0.25	0.25	0.00	0.00	0.00	0.00	0.00	0.00	0.25	0.00	0.00	0.00	0.00	0.00	-3.199219	-0.449707	0.784180	54.529999	144.970001	166.809998	8.00	0.00	0.00
2.27	0.25	0.00	0.00	0.00	0.00	0.00	0.00	2.75	10.50	11.00	14.25	12.25	8.75	18.50	6.00	7.25	-0.543457	0.250488	1.401855	47.459999	307.089996	-18.690001	911.00	0.26	-0.06	0.75	1.00	0.75	1.75	0.00	0.00	0.25	0.00	0.00	0.00	0.00	0.00	0.00	0.00	0.00	0.00	-1.523438	-1.218262	1.990234	63.980000	311.640015	107.449997	48.00	0.00	0.00
2.28	0.00	0.00	0.00	0.00	0.00	0.00	0.00	2.00	9.75	10.75	14.00	11.75	7.75	18.00	6.00	7.00	-0.635742	0.303223	1.654297	44.099998	397.670013	-34.720001	862.00	0.27	-0.05	4.00	5.50	2.00	4.50	0.00	0.00	0.25	0.00	0.00	0.00	0.00	0.00	0.00	0.00	0.00	0.00	-1.587891	-1.127441	3.419922	-22.469999	251.580002	55.510002	167.00	-0.34	-0.07
2.29	0.00	0.00	0.00	0.00	0.00	0.00	0.00	1.75	8.75	10.25	13.25	11.00	7.00	17.50	6.00	6.50	-0.565430	0.273438	1.852539	37.029999	448.839996	-40.740002	811.00	0.27	-0.05	13.50	15.50	5.00	8.75	0.00	0.00	0.25	0.00	0.00	0.00	0.00	0.00	0.00	0.00	0.00	0.00	0.015625	-0.829590	0.583008	-65.379997	258.299988	1.470000	438.00	-0.36	-0.06
2.30	0.00	0.00	0.00	0.00	0.00	0.00	0.00	1.50	7.75	9.25	12.00	9.75	6.00	17.00	5.75	6.00	-0.983398	0.602051	1.961426	44.799999	497.209991	-45.779999	739.00	0.28	-0.05	20.50	20.25	8.50	11.25	0.75	1.00	0.25	0.00	0.00	0.00	0.00	0.00	0.00	0.00	0.00	0.00	-0.668457	-1.066895	2.378418	-28.280001	386.679993	-33.110001	640.00	-0.35	-0.04
2.31	0.00	0.00	0.00	0.00	0.00	0.00	0.00	1.00	5.75	7.75	10.50	8.50	4.50	15.25	5.00	5.00	-1.230957	0.254883	3.291016	76.720001	542.989990	-54.180000	620.00	0.28	-0.04	23.50	22.25	11.25	13.50	2.50	4.50	0.50	0.50	0.00	0.00	0.00	0.25	0.75	0.00	0.00	0.00	-1.722168	0.469238	5.678223	-3.080000	436.589996	-68.949997	822.00	-0.33	-0.06
2.32	0.00	0.00	0.00	0.00	0.00	0.00	0.00	0.50	3.75	5.25	8.25	6.75	3.75	13.00	3.75	3.75	-1.198242	0.599609	3.391602	100.590004	581.280029	-54.459999	472.00	0.29	-0.05	23.50	22.25	12.00	14.50	5.50	6.75	0.75	1.00	0.00	0.00	0.00	0.00	0.50	0.00	0.00	0.00	-1.615723	1.371582	5.029785	-53.900002	307.019989	-47.320000	906.00	-0.31	-0.06
2.33	0.00	0.00	0.00	0.00	0.00	0.00	0.00	0.50	1.75	3.25	5.75	4.75	2.50	9.75	2.50	2.50	-1.249023	0.569336	3.981445	139.789993	617.049988	-52.779999	319.00	0.29	-0.06	23.75	21.50	12.75	14.50	6.50	7.25	0.75	1.50	0.00	0.00	0.00	0.25	0.75	0.00	0.00	0.00	-0.573730	0.314453	2.018555	-127.610001	148.399994	-5.180000	939.00	-0.30	-0.06
2.34	0.00	0.00	0.00	0.00	0.00	0.00	0.00	0.25	1.50	2.00	3.00	3.25	1.50	6.25	1.25	1.50	-0.867676	0.465332	4.332520	185.360001	638.260010	-56.560001	198.00	0.29	-0.04	22.50	20.50	12.75	14.50	7.25	7.75	0.75	2.00	0.00	0.00	0.00	0.25	1.00	0.00	0.00	0.25	0.258789	-0.767578	1.045410	-122.150002	109.690002	1.540000	941.00	-0.29	-0.07
2.35	0.00	0.00	0.00	0.00	0.00	0.00	0.00	0.00	1.25	1.75	2.00	2.00	1.00	2.75	0.50	0.75	-0.226562	0.293457	4.010742	229.669998	650.580017	-67.900002	118.00	0.27	-0.04	21.75	19.75	12.75	14.50	7.75	8.25	1.00	2.25	0.00	0.00	0.00	0.50	1.25	0.00	0.00	0.00	-0.366211	0.286133	1.293945	-62.930000	94.500000	-11.130000	949.00	-0.29	-0.07
2.36	0.25	0.00	0.00	0.00	0.00	0.00	0.00	0.00	0.50	0.75	1.00	1.00	0.50	1.25	0.25	0.50	0.583496	0.008789	3.881348	259.980011	651.210022	-115.430000	58.00	0.24	-0.05	20.75	19.00	12.50	14.25	8.00	8.50	1.00	3.00	0.00	0.00	0.25	0.25	1.25	0.50	0.00	0.00	-0.366211	0.286133	1.293945	-37.660000	57.330002	-1.960000	947.00	-0.28	-0.07
2.37	0.00	0.00	0.00	0.00	0.00	0.00	0.25	0.00	0.00	0.75	0.50	0.50	0.00	0.25	0.00	0.50	-0.063477	0.408691	2.277832	239.820007	617.890015	-191.869995	27.00	0.00	0.00	20.25	18.75	12.50	14.25	8.00	8.75	1.00	2.75	0.00	0.00	0.25	0.50	1.50	0.50	0.00	0.00	-0.121582	0.068848	1.054199	-7.350000	8.820000	1.750000	943.00	-0.27	-0.07
2.38	0.00	0.00	0.00	0.00	0.00	0.00	0.00	0.00	0.00	0.50	0.25	0.50	0.25	0.50	0.00	0.50	1.297852	0.713867	7.129883	106.470001	382.130005	-199.639999	22.00	0.00	0.00	20.00	18.50	12.25	14.25	8.00	8.75	1.00	3.25	0.50	0.00	0.50	0.25	1.75	0.50	0.00	0.00	-0.062500	0.097168	1.017090	-1.400000	4.760000	3.500000	952.00	-0.27	-0.07
2.39	0.00	0.00	0.00	0.00	0.00	0.00	0.00	0.00	0.25	0.50	0.25	0.25	0.00	0.25	0.00	0.50	2.098145	1.075684	5.532715	-33.810001	78.330002	-132.440002	19.00	0.00	0.00	19.00	18.00	12.00	14.00	8.00	8.75	1.00	3.50	0.25	0.00	0.50	0.50	1.50	1.25	0.25	0.25	-0.048340	0.009277	1.026367	3.010000	6.020000	3.850000	943.00	-0.26	-0.08
2.40	0.00	0.00	0.00	0.00	0.00	0.00	0.00	0.00	0.50	0.75	0.50	0.50	0.00	0.00	0.00	0.50	1.378906	1.175781	3.556641	-133.419998	-114.870003	-68.389999	28.00	0.00	0.00	18.25	17.50	11.75	13.75	7.75	9.00	1.00	3.75	0.25	0.00	0.50	0.25	2.00	0.75	0.00	0.25	-0.046875	0.101074	0.991211	6.440000	8.470000	3.430000	923.00	-0.26	-0.08
2.41	0.00	0.00	0.00	0.00	0.00	0.00	0.00	0.00	0.00	0.50	0.25	0.50	0.00	0.00	0.00	0.50	1.307129	1.116699	1.917480	-125.510002	-164.289993	-42.349998	16.00	0.00	0.00	16.75	16.50	11.50	13.25	7.50	8.75	1.00	3.75	0.50	0.25	0.75	0.50	1.75	0.50	0.00	0.00	-0.057129	0.095215	1.005371	5.040000	12.110000	3.500000	890.00	-0.25	-0.08
2.42	0.00	0.00	0.00	0.00	0.00	0.00	0.00	0.00	0.25	0.25	0.00	0.25	0.00	0.25	0.00	0.50	1.384766	0.874512	1.525391	-63.700001	-174.229996	-42.560001	13.00	0.00	0.00	15.50	15.25	10.75	12.75	7.25	8.50	1.00	3.75	0.50	0.25	0.50	0.50	2.00	0.75	0.00	0.25	-0.057129	0.088867	0.988281	1.470000	14.770000	2.520000	850.00	-0.25	-0.09
2.43	0.00	0.00	0.00	0.00	0.00	0.00	0.25	0.00	0.00	0.00	0.00	0.00	0.00	0.00	0.00	0.50	1.191406	0.622559	1.804199	-8.400000	-205.869995	-45.080002	7.00	0.00	0.00	14.00	14.25	10.25	12.25	6.75	8.50	1.00	3.75	0.00	0.50	0.50	0.50	2.25	0.50	0.25	0.25	-0.049316	0.071289	0.985352	-1.260000	16.940001	1.960000	807.00	-0.24	-0.09
2.44	0.00	0.00	0.00	0.00	0.00	0.00	0.25	0.00	0.00	0.00	0.25	0.00	0.00	0.00	0.00	0.25	1.094238	0.277832	1.777344	10.080000	-259.420013	-45.080002	8.00	0.00	0.00	12.25	12.50	9.75	11.50	6.50	8.25	1.00	3.50	0.50	0.25	0.50	0.25	2.00	0.75	0.00	0.25	-0.061035	0.062500	1.001465	-1.540000	18.900000	1.750000	748.00	-0.24	-0.09
2.45	0.00	0.00	0.00	0.00	0.00	0.00	0.00	0.00	0.00	0.00	0.00	0.00	0.00	0.00	0.00	0.25	0.796875	0.220215	1.642578	-7.700000	-316.190002	-45.779999	1.00	0.00	0.00	10.25	11.00	9.00	10.75	6.00	7.50	1.00	3.50	0.25	0.50	1.00	0.75	2.25	1.25	0.00	0.00	-0.051758	0.072266	0.982422	-1.260000	20.650000	1.540000	699.00	-0.22	-0.10
2.46	0.00	0.00	0.00	0.00	0.00	0.00	0.25	0.00	0.00	0.00	0.00	0.00	0.00	0.00	0.00	0.50	0.495117	0.278809	1.438477	-30.100000	-359.940002	-44.099998	7.00	0.00	0.00	9.00	9.50	8.00	10.00	5.50	7.25	1.00	3.25	0.00	0.25	1.00	0.75	2.00	1.00	0.00	0.25	-0.037598	0.075684	0.979004	-1.820000	23.379999	1.750000	632.00	-0.22	-0.10
2.47	0.00	0.25	0.00	0.00	0.00	0.00	0.00	0.00	0.00	0.00	0.00	0.00	0.00	0.00	0.00	0.50	0.065918	0.397461	1.189941	-27.930000	-406.769989	-22.120001	5.00	0.00	0.00	7.25	8.00	7.50	9.25	5.00	6.75	1.00	3.25	0.25	0.50	1.00	1.00	2.00	1.00	0.00	0.25	-0.063477	0.063965	0.973633	-2.380000	25.620001	1.610000	583.00	-0.20	-0.11
2.48	0.00	0.00	0.00	0.00	0.00	0.00	0.25	0.00	0.00	0.00	0.00	0.00	0.00	0.00	0.00	0.50	-0.098633	0.391113	1.175781	-27.930000	-406.769989	-34.860001	7.00	0.00	0.00	6.25	6.50	6.50	8.50	4.50	6.00	1.00	3.25	0.25	0.25	1.00	0.75	2.25	1.25	0.50	0.25	-0.076172	0.078613	0.958008	-3.150000	26.389999	0.070000	531.00	-0.18	-0.11
2.49	0.00	0.00	0.00	0.00	0.00	0.00	0.00	0.00	0.00	0.00	0.00	0.00	0.00	0.00	0.00	0.25	-0.260254	0.397461	1.190918	7.980000	-431.410004	-17.850000	1.00	0.00	0.00	4.75	5.50	5.75	7.50	3.75	5.75	1.00	3.25	0.25	0.75	1.00	1.25	2.50	1.25	0.00	0.25	-0.053223	0.081055	0.944824	-5.600000	27.580000	-2.240000	483.00	-0.16	-0.12
2.50	0.00	0.00	0.00	0.00	0.00	0.00	0.25	0.00	0.00	0.00	0.00	0.00	0.00	0.00	0.00	0.50	-0.399902	0.375977	1.194824	20.230000	-439.250000	-5.460000	7.00	0.00	0.00	3.75	4.00	5.00	7.00	3.50	5.25	1.00	3.25	0.75	0.75	1.25	1.25	3.00	1.25	0.25	0.50	-0.048340	0.062500	0.958496	-7.700000	28.490000	-4.760000	454.00	-0.13	-0.12
2.51	0.00	0.00	0.00	0.00	0.00	0.00	0.25	0.00	0.00	0.00	0.00	0.00	0.00	0.00	0.00	0.50	-0.477051	0.363770	1.204590	24.500000	-442.399994	8.260000	7.00	0.00	0.00	2.50	3.00	4.25	6.25	3.50	5.00	1.00	3.50	1.25	1.25	1.50	1.75	3.50	1.75	0.00	0.50	-0.126465	0.093750	0.967285	-7.630000	28.840000	-6.930000	442.00	-0.09	-0.13
2.52	0.00	0.00	0.00	0.00	0.00	0.00	0.00	0.00	0.00	0.00	0.00	0.00	0.00	0.00	0.00	0.25	-0.514160	0.398926	1.338379	24.710001	-441.980011	22.820000	1.00	0.00	0.00	2.00	2.25	3.75	5.75	3.00	4.50	1.50	3.50	1.25	1.25	2.25	2.00	4.25	2.50	0.50	0.25	-0.094238	0.069824	0.997070	-7.210000	27.510000	-7.070000	443.00	-0.05	-0.13
2.53	0.00	0.00	0.00	0.00	0.00	0.00	0.00	0.00	0.00	0.00	0.00	0.00	0.00	0.00	0.00	0.25	-0.545898	0.463379	1.567871	26.040001	-443.450012	38.220001	1.00	0.00	0.00	1.25	2.00	2.25	5.25	2.75	4.25	1.50	3.75	1.50	1.75	2.50	2.50	4.50	3.00	0.25	0.75	-0.133789	0.053223	0.984375	-4.550000	26.740000	-6.090000	432.00	-0.01	-0.14
2.54	0.00	0.00	0.00	0.00	0.00	0.00	0.00	0.00	0.00	0.00	0.00	0.00	0.00	0.00	0.00	0.25	-0.604004	0.549805	1.836914	26.530001	-449.890015	56.279999	1.00	0.00	0.00	1.25	1.25	2.50	4.25	2.50	4.00	1.75	4.50	2.25	2.00	2.75	2.50	5.00	4.25	0.25	0.75	-0.145996	0.038086	0.987305	-0.700000	26.250000	-5.600000	457.00	0.02	-0.12
2.55	0.00	0.00	0.00	0.00	0.00	0.00	0.00	0.00	0.00	0.00	0.00	0.00	0.00	0.00	0.00	0.25	-0.683105	0.605469	2.022949	29.120001	-461.299988	76.440002	1.00	0.00	0.00	1.00	1.00	2.25	4.50	2.25	3.75	1.75	5.00	3.00	2.75	3.50	3.25	6.25	5.25	0.25	1.00	-0.078125	0.060059	0.986328	1.540000	29.120001	-5.460000	508.00	0.05	-0.12
2.56	0.00	0.00	0.00	0.00	0.00	0.00	0.25	0.00	0.00	0.00	0.00	0.00	0.00	0.00	0.00	0.25	-0.795898	0.626465	2.200684	35.279999	-470.750000	95.410004	5.00	0.00	0.00	1.00	1.25	1.75	3.50	1.75	3.25	2.00	5.25	3.75	3.50	4.25	3.75	7.00	6.75	0.50	1.50	-0.149902	0.087402	0.997070	4.830000	38.080002	-8.680000	546.00	0.09	-0.11
2.57	0.00	0.00	0.00	0.00	0.00	0.00	0.25	0.00	0.00	0.00	0.00	0.00	0.00	0.00	0.00	0.25	-0.868652	0.645020	2.567383	43.959999	-475.369995	110.949997	5.00	0.00	0.00	0.75	1.00	1.75	3.00	1.50	3.00	2.00	5.25	4.50	3.75	5.50	4.75	7.75	7.00	0.50	1.75	-0.145020	0.086914	1.003418	6.300000	43.959999	-11.130000	576.00	0.11	-0.11
2.58	0.00	0.00	0.00	0.00	0.00	0.00	0.00	0.00	0.00	0.00	0.00	0.00	0.00	0.00	0.00	0.25	-1.093750	0.723145	2.951660	50.470001	-480.619995	124.320000	1.00	0.00	0.00	0.50	0.25	1.00	3.00	1.75	2.25	2.00	5.75	5.75	6.25	7.50	5.75	8.25	8.25	1.00	2.00	-0.223145	0.062012	1.019531	10.010000	49.070000	-13.300000	656.00	0.14	-0.10
2.59	0.00	0.00	0.00	0.00	0.00	0.00	0.00	0.00	0.00	0.00	0.00	0.00	0.00	0.00	0.00	0.25	-1.594727	0.814941	3.187012	60.619999	-487.690002	135.100006	1.00	0.00	0.00	0.75	0.50	1.00	1.50	1.25	2.50	2.00	5.75	6.50	7.50	8.25	7.50	8.50	9.50	1.25	2.50	-0.192383	0.053711	1.005859	13.860000	54.110001	-13.440001	709.00	0.16	-0.09
2.60	0.00	0.00	0.00	0.00	0.00	0.00	0.00	0.00	0.00	0.00	0.00	0.00	0.00	0.00	0.00	0.25	-2.328613	0.806152	3.180176	75.320000	-489.649994	143.080002	1.00	0.00	0.00	0.00	0.00	0.50	1.75	1.25	1.75	2.00	5.75	7.50	8.25	9.25	8.25	9.00	11.00	1.50	3.00	-0.178223	0.077637	1.045898	17.710001	61.810001	-12.180000	747.00	0.19	-0.09
2.61	0.00	0.00	0.00	0.00	0.00	0.00	0.00	0.00	0.00	0.00	0.00	0.00	0.00	0.00	0.00	0.25	-2.833008	0.663086	3.080566	80.150002	-481.670013	152.809998	1.00	0.00	0.00	0.00	0.00	0.25	1.50	1.00	1.50	2.00	6.00	8.25	8.75	10.25	8.75	9.50	12.50	1.75	3.50	-0.176758	0.079590	1.050293	21.139999	71.120003	-12.530000	793.00	0.20	-0.08
2.62	0.00	0.00	0.00	0.00	0.00	0.00	0.00	0.00	0.00	0.00	0.00	0.00	0.00	0.00	0.00	0.25	-3.460449	0.573730	2.802246	56.980000	-463.890015	166.809998	1.00	0.00	0.00	0.25	0.00	0.25	1.25	0.50	1.00	1.75	5.75	8.75	9.50	11.00	9.50	9.75	13.75	2.00	5.00	-0.207031	0.073730	1.082520	24.639999	80.150002	-14.210000	828.00	0.21	-0.08
2.63	0.00	0.00	0.00	0.00	0.00	0.00	0.00	0.00	0.00	0.00	0.00	0.00	0.00	0.00	0.00	0.25	-3.886230	0.422363	2.499023	40.810001	-436.380005	179.970001	1.00	0.00	0.00	0.00	0.00	0.25	1.25	0.25	0.75	1.50	5.75	9.25	10.25	11.75	10.00	10.25	15.00	3.00	5.75	-0.242676	0.118652	1.089844	28.840000	91.980003	-16.520000	873.00	0.22	-0.08
2.64	0.00	0.00	0.00	0.00	0.00	0.00	0.00	0.00	0.00	0.00	0.00	0.00	0.00	0.00	0.00	0.25	-4.193359	0.250488	2.058594	28.980000	-397.250000	190.680008	1.00	0.00	0.00	0.00	0.00	0.00	0.75	0.00	0.00	1.25	5.50	9.75	10.75	12.25	10.75	10.50	16.50	3.25	6.25	-0.255371	0.152832	1.118652	33.950001	107.520004	-19.879999	892.00	0.24	-0.07
2.65	0.00	0.00	0.25	0.00	0.00	0.00	0.00	0.00	0.00	0.00	0.00	0.00	0.00	0.00	0.00	0.50	-4.293945	0.191895	1.460938	-12.460000	-340.200012	209.860001	6.00	0.00	0.00	0.00	0.00	0.00	0.75	0.00	0.00	1.00	5.25	10.00	11.25	13.00	11.25	10.75	18.00	4.00	6.75	-0.230957	0.112793	1.270020	37.939999	128.380005	-23.799999	931.00	0.24	-0.07
2.66	0.00	0.00	0.00	0.00	0.00	0.00	0.00	0.00	0.00	0.00	0.00	0.00	0.00	0.00	0.00	0.25	-4.605957	0.226074	0.333984	-68.739998	-279.929993	228.059998	1.00	0.00	0.00	0.00	0.00	0.00	0.75	0.00	0.00	0.75	5.00	10.00	11.50	13.50	11.75	10.50	19.50	5.00	7.25	-0.253906	0.162109	1.206543	37.099998	155.190002	-27.580000	961.00	0.25	-0.07
2.67	0.00	0.00	0.00	0.00	0.00	0.00	0.00	0.00	0.00	0.00	0.00	0.00	0.00	0.00	0.00	0.25	-6.986328	0.983398	-0.266602	-116.129997	-234.710007	170.169998	1.00	0.00	0.00	0.00	0.00	0.00	0.50	0.00	0.00	0.50	4.00	10.25	11.75	13.75	12.00	10.50	20.50	5.50	7.50	-0.202148	0.046387	1.256836	37.730000	176.399994	-31.080000	965.00	0.26	-0.06
2.68	0.00	0.00	0.00	0.00	0.00	0.00	0.00	0.00	0.00	0.00	0.00	0.00	0.00	0.00	0.00	0.50	-6.978027	0.743652	-2.006348	111.090004	-38.360001	28.350000	3.00	0.00	0.00	0.25	0.00	0.00	0.25	0.00	0.00	0.00	3.25	10.25	12.00	14.00	12.25	10.50	21.50	6.25	8.00	-0.293945	0.093262	1.197266	39.130001	200.970001	-33.529999	973.00	0.26	-0.06
2.69	0.25	0.00	0.00	0.00	0.00	0.00	0.00	0.00	0.00	0.00	0.00	0.00	0.00	0.00	0.00	0.25	-5.884277	0.743652	-0.788574	111.090004	-38.360001	28.350000	4.00	0.00	0.00	0.00	0.00	0.00	0.00	0.00	0.00	0.00	2.25	10.00	11.75	14.25	12.25	10.25	21.75	6.50	8.25	-0.446777	0.081055	1.447754	43.610001	224.070007	-33.250000	953.00	0.27	-0.06
2.70	0.00	0.25	0.25	0.75	0.00	0.00	0.00	0.00	0.00	0.00	0.00	0.00	0.00	0.00	0.00	0.25	-4.956055	-1.771973	-1.284668	28.280001	344.190002	89.180000	15.00	0.00	0.00	0.00	0.00	0.00	0.00	0.00	0.00	0.00	1.75	9.50	11.75	14.00	12.25	9.75	22.75	6.75	8.25	-0.380859	0.091797	1.381836	24.010000	271.670013	-32.689999	943.00	0.28	-0.05
2.71	1.25	2.00	1.00	1.75	0.00	0.00	0.00	0.00	0.00	0.00	0.00	0.00	0.00	0.00	0.00	0.25	-1.396973	0.234375	1.519043	-59.360001	416.920013	54.810001	63.00	-0.33	-0.09	0.00	0.00	0.00	0.00	0.00	0.00	0.00	1.25	8.75	11.25	13.75	12.00	9.25	22.50	7.00	8.00	-0.535156	0.235352	1.514160	22.610001	323.820007	-34.650002	910.00	0.28	-0.05
2.72	6.00	9.00	2.75	4.75	0.25	0.00	0.00	0.00	0.00	0.00	0.00	0.00	0.00	0.00	0.00	0.25	0.475098	-1.327148	2.203613	-32.900002	317.660004	43.750000	232.00	-0.36	-0.07	0.00	0.00	0.00	0.00	0.00	0.00	0.00	0.75	8.00	10.75	13.50	11.50	8.75	22.25	7.25	7.50	-0.303711	0.207031	1.589355	25.690001	378.700012	-42.279999	873.00	0.28	-0.05
2.73	16.25	21.50	6.75	9.00	0.75	0.00	0.00	0.00	0.00	0.00	0.00	0.00	0.00	0.00	0.00	0.25	-1.398438	-1.482422	1.285645	18.620001	315.000000	2.520000	550.00	-0.36	-0.05	0.00	0.00	0.00	0.00	0.00	0.00	0.00	0.50	6.75	10.00	12.50	11.00	7.75	21.25	6.75	6.75	-0.598633	0.403320	2.223633	24.150000	423.709991	-47.459999	803.00	0.29	-0.05
2.74	23.25	27.50	9.50	13.75	1.75	1.50	0.25	0.00	0.00	0.00	0.00	0.00	0.00	0.00	0.00	0.25	-1.524414	0.469238	4.720703	45.990002	437.220001	-57.889999	791.00	-0.35	-0.05	0.00	0.00	0.00	0.00	0.00	0.00	0.00	0.25	5.00	8.75	11.50	10.00	6.75	19.25	6.00	5.50	-0.768066	0.874023	2.261230	44.799999	477.890015	-58.029999	702.00	0.29	-0.05
2.75	26.25	30.25	13.00	17.75	5.00	4.25	0.50	0.50	0.00	0.00	0.00	0.00	0.25	0.00	0.00	0.50	-1.938477	1.361328	5.807617	8.330000	334.880005	-43.119999	1011.00	-0.33	-0.06	0.00	0.00	0.00	0.00	0.00	0.00	0.00	0.00	3.25	7.25	9.75	8.50	5.00	16.00	4.50	3.75	-0.939941	0.647461	3.003906	65.099998	524.859985	-71.120003	557.00	0.29	-0.05
2.76	26.50	30.00	14.25	18.00	6.25	6.00	0.50	0.75	0.00	0.00	0.25	0.25	0.25	0.00	0.00	0.50	-0.802246	0.562012	2.357910	-86.449997	172.619995	-17.150000	1070.00	-0.32	-0.06	0.00	0.00	0.00	0.00	0.00	0.00	0.00	0.00	1.75	4.75	7.75	7.00	3.25	11.50	2.50	2.00	-1.348145	1.059082	3.684082	91.279999	574.210022	-85.610001	391.00	0.28	-0.06
2.77	24.25	28.00	14.00	17.75	7.00	6.75	0.75	1.00	0.00	0.00	0.25	0.00	0.50	0.00	0.00	0.25	0.173340	-0.305176	0.930664	-97.510002	125.860001	-1.610000	1045.00	-0.31	-0.06	0.00	0.00	0.00	0.00	0.00	0.00	0.00	0.00	0.75	2.25	4.75	4.25	1.75	7.50	1.00	0.75	-0.495117	0.767578	4.316895	231.419998	629.440002	-112.139999	221.00	0.29	-0.06
2.78	22.50	26.00	14.25	17.75	7.75	7.50	0.75	1.50	0.00	0.00	0.25	0.25	0.75	0.25	0.00	0.25	-0.190918	-0.153320	1.416992	-66.779999	123.970001	-4.970000	1042.00	-0.30	-0.07	0.00	0.00	0.00	0.00	0.00	0.00	0.00	0.00	0.25	1.75	2.75	2.75	1.50	3.75	0.50	0.50	0.129883	0.476562	4.810547	311.640015	642.739990	-128.169998	132.00	0.27	-0.09
2.79	21.50	25.25	14.00	17.75	8.25	8.25	0.75	2.00	0.50	0.25	0.25	0.50	0.75	0.50	0.00	0.50	-0.579102	0.262207	1.518066	-36.049999	72.449997	-6.020000	1059.00	-0.28	-0.07	0.00	0.00	0.00	0.00	0.00	0.00	0.25	0.00	0.50	1.00	1.50	1.50	0.50	1.50	0.25	0.25	1.504883	-0.251953	4.159668	308.420013	624.260010	-189.699997	73.00	0.26	-0.05
2.80	20.50	24.50	14.00	17.50	8.75	8.75	1.00	2.25	0.25	0.25	0.25	0.25	1.00	0.75	0.00	0.50	-0.220703	0.052246	1.102539	-19.879999	34.369999	0.910000	1055.00	-0.28	-0.07	0.00	0.00	0.00	0.00	0.00	0.25	0.25	0.00	0.00	0.50	1.25	1.00	0.00	1.00	0.25	0.00	0.706055	0.953125	5.199219	179.550003	502.459991	-267.049988	47.00	0.00	0.00
2.81	20.25	24.00	14.00	17.50	8.75	9.00	1.00	2.75	0.50	0.50	0.25	0.50	1.00	0.75	0.00	0.50	-0.187988	-0.004395	1.087402	-7.700000	18.410000	0.630000	1067.00	-0.27	-0.08	0.00	0.00	0.00	0.00	0.00	0.00	0.25	0.00	0.00	0.50	1.00	1.00	0.00	0.25	0.00	0.00	2.442383	1.123047	5.950684	53.970001	200.059998	-239.259995	32.00	0.00	0.00
2.82	19.25	23.50	13.50	17.25	9.00	9.25	1.00	3.00	0.50	0.50	0.50	0.50	1.25	1.00	0.00	0.50	-0.109375	0.113770	0.969238	-0.980000	12.600000	0.070000	1060.00	-0.26	-0.08	0.00	0.00	0.00	0.00	0.00	0.25	0.25	0.00	0.00	0.75	1.00	0.50	0.00	0.25	0.00	0.00	2.137207	1.739746	4.451660	-21.350000	-78.959999	-158.130005	32.00	0.00	0.00
2.83	17.75	22.25	13.00	16.75	8.75	9.25	1.00	3.25	0.50	0.50	0.75	0.50	1.25	1.00	0.00	0.50	-0.071777	0.044434	0.964355	-0.840000	14.280000	-0.420000	1026.00	-0.26	-0.08	0.00	0.00	0.00	0.00	0.00	0.00	0.25	0.00	0.00	0.50	0.75	0.50	0.00	0.50	0.00	0.00	1.663086	1.645020	2.340332	-29.889999	-190.539993	-78.680000	26.00	0.00	0.00
2.84	16.25	21.25	12.50	16.00	8.75	9.25	1.00	3.50	0.50	0.25	0.50	0.50	1.50	1.25	0.00	0.50	-0.086426	0.087402	0.971680	-1.190000	18.200001	-1.960000	990.00	-0.25	-0.09	0.00	0.00	0.00	0.00	0.00	0.00	0.25	0.00	0.00	0.25	0.25	0.25	0.00	0.25	0.00	0.00	1.604492	1.368652	1.338867	7.140000	-190.750000	-19.670000	14.00	0.00	0.00
2.85	14.50	18.75	11.75	15.25	8.50	9.00	1.25	3.50	0.75	0.75	1.00	0.75	1.50	1.00	0.00	0.75	-0.093262	0.081055	0.967285	-3.850000	22.400000	-2.590000	946.00	-0.24	-0.09	0.00	0.00	0.00	0.00	0.00	0.00	0.25	0.00	0.00	0.50	0.50	0.00	0.00	0.25	0.00	0.00	1.528809	0.964355	1.667480	46.689999	-186.130005	21.840000	16.00	0.00	0.00
2.86	11.75	16.75	10.75	13.75	8.25	8.75	1.00	3.75	1.00	1.00	1.00	0.75	1.50	1.25	0.00	0.75	-0.074707	0.071777	0.970215	-6.440000	26.530001	-3.360000	874.00	-0.22	-0.09	0.00	0.00	0.00	0.00	0.00	0.00	0.25	0.00	0.00	0.00	0.25	0.00	0.00	0.00	0.00	0.00	1.494629	0.471680	2.011719	58.450001	-220.220001	47.110001	6.00	0.00	0.00
2.87	9.50	14.25	9.75	12.00	8.00	8.25	1.25	3.50	1.00	1.00	1.00	0.75	1.75	1.50	0.00	0.50	-0.095703	0.079590	0.979492	-8.120000	30.799999	-3.850000	792.00	-0.21	-0.09	0.00	0.00	0.00	0.00	0.00	0.00	0.25	0.00	0.00	0.25	0.25	0.00	0.00	0.00	0.00	0.00	1.276855	0.128906	1.967773	38.430000	-280.700012	61.250000	9.00	0.00	0.00
2.88	8.25	11.50	9.00	10.50	7.50	8.00	1.25	3.50	0.75	1.00	1.00	1.25	1.75	1.75	0.00	0.75	-0.111328	0.035645	0.973633	-7.980000	33.459999	-3.640000	726.00	-0.19	-0.09	0.00	0.00	0.00	0.00	0.00	0.00	0.25	0.00	0.00	0.00	0.00	0.00	0.00	0.00	0.00	0.00	0.960938	-0.047852	1.761719	7.000000	-336.700012	69.370003	4.00	0.00	0.00
2.89	6.50	9.00	8.00	9.50	6.75	7.00	1.25	3.50	1.00	1.00	1.00	0.75	2.00	1.75	0.25	0.50	-0.102051	0.030273	0.964355	-6.090000	34.509998	-2.940000	646.00	-0.18	-0.09	0.00	0.00	0.00	0.00	0.00	0.25	0.25	0.00	0.00	0.00	0.00	0.00	0.00	0.00	0.00	0.00	0.687012	-0.161133	1.644043	-14.560000	-375.480011	71.330002	7.00	0.00	0.00
2.90	5.25	7.50	7.00	8.25	6.25	6.75	1.25	3.75	1.50	1.25	1.25	1.00	2.00	1.50	0.25	0.50	-0.084473	0.042480	0.964844	-1.890000	36.610001	-2.870000	602.00	-0.15	-0.10	0.00	0.00	0.00	0.00	0.00	0.00	0.25	0.00	0.00	0.00	0.00	0.00	0.00	0.00	0.00	0.00	0.458496	-0.249512	1.626465	-19.600000	-403.970001	68.040001	4.00	0.00	0.00
2.91	4.25	6.00	6.25	7.25	6.00	6.25	1.25	3.50	1.50	1.50	1.50	1.25	2.25	1.75	0.00	0.75	-0.099121	0.046875	0.953613	-1.750000	37.939999	-4.060000	557.00	-0.13	-0.10	0.00	0.00	0.00	0.00	0.00	0.00	0.25	0.00	0.00	0.00	0.00	0.00	0.00	0.00	0.00	0.00	0.213867	-0.364746	1.659180	-14.910000	-428.119995	59.430000	4.00	0.00	0.00
2.92	3.00	5.25	5.25	6.50	5.25	5.50	1.25	3.75	1.75	1.50	1.75	1.25	2.50	1.50	0.25	0.50	-0.148438	0.041504	0.957520	-1.610000	39.340000	-5.250000	513.00	-0.11	-0.10	0.00	0.00	0.00	0.00	0.00	0.00	0.25	0.00	0.00	0.00	0.00	0.00	0.00	0.00	0.00	0.00	-0.022461	-0.455566	1.594238	-9.310000	-448.700012	46.689999	4.00	0.00	0.00
2.93	2.25	4.25	4.25	5.50	4.75	5.25	1.50	3.75	2.00	1.75	1.75	1.50	2.75	2.25	0.25	0.75	-0.180176	0.045898	0.941406	-1.680000	38.920002	-6.860000	487.00	-0.08	-0.10	0.00	0.00	0.00	0.00	0.00	0.00	0.25	0.00	0.00	0.00	0.00	0.00	0.00	0.00	0.00	0.00	-0.224121	-0.470215	1.509766	-6.370000	-460.320007	34.509998	4.00	0.00	0.00
2.94	1.75	3.25	3.50	5.00	4.25	5.00	1.50	3.75	2.75	2.00	2.25	1.50	3.00	2.75	0.50	0.75	-0.145508	0.053223	0.950195	-2.030000	39.340000	-9.170000	478.00	-0.04	-0.10	0.00	0.00	0.00	0.00	0.00	0.00	0.25	0.00	0.00	0.00	0.00	0.00	0.00	0.00	0.00	0.00	-0.349609	-0.427734	1.500977	-6.160000	-462.140015	27.299999	4.00	0.00	0.00
2.95	1.50	2.75	2.75	4.50	3.75	4.00	1.75	3.75	3.25	2.50	2.50	2.25	3.25	3.00	0.50	0.75	-0.143066	0.035645	0.958984	-2.240000	41.930000	-11.760000	471.00	-0.01	-0.09	0.00	0.00	0.00	0.00	0.00	0.00	0.25	0.00	0.00	0.00	0.00	0.00	0.00	0.00	0.00	0.00	-0.380371	-0.326660	1.589844	-9.590000	-459.830017	27.860001	4.00	0.00	0.00
2.96	1.25	1.75	2.50	4.00	3.50	3.50	2.00	3.75	4.25	3.00	3.00	2.50	3.75	4.00	0.75	1.00	-0.199219	0.074219	0.977051	-1.820000	43.889999	-13.790000	489.00	0.04	-0.08	0.00	0.00	0.00	0.00	0.00	0.00	0.25	0.00	0.00	0.00	0.00	0.00	0.00	0.00	0.00	0.00	-0.380371	-0.158691	2.062012	-12.040000	-458.010010	49.770000	4.00	0.00	0.00
2.97	1.00	1.75	2.00	3.50	3.00	3.00	2.00	4.00	5.00	3.50	3.25	3.00	4.50	5.00	0.75	1.00	-0.188477	0.046875	0.966797	-1.960000	46.410000	-15.050000	506.00	0.07	-0.07	0.00	0.00	0.00	0.25	0.00	0.00	0.25	0.00	0.00	0.00	0.00	0.00	0.00	0.00	0.00	0.00	-0.421875	-0.160156	2.403809	-9.380000	-464.519989	62.860001	7.00	0.00	0.00
2.98	0.75	1.50	2.00	2.75	2.50	2.75	2.25	4.00	6.75	4.25	4.00	3.75	5.25	6.25	0.75	1.25	-0.187988	0.044922	0.979492	-0.420000	51.730000	-15.400000	554.00	0.10	-0.06	0.00	0.00	0.00	0.00	0.00	0.00	0.25	0.00	0.00	0.00	0.00	0.00	0.00	0.00	0.00	0.00	-0.550781	-0.202148	2.728516	-6.580000	-476.980011	70.910004	4.00	0.00	0.00
2.99	0.75	1.75	1.75	2.50	2.50	2.50	2.50	4.25	8.00	5.00	5.50	4.00	5.75	7.75	1.00	1.50	-0.203125	0.032715	0.989258	0.630000	56.279999	-15.540000	619.00	0.12	-0.05	0.00	0.00	0.00	0.00	0.00	0.00	0.25	0.00	0.00	0.00	0.00	0.00	0.00	0.00	0.00	0.00	-0.717285	-0.321289	2.936523	-3.080000	-490.209991	72.239998	4.00	0.00	0.00
3.00	0.50	0.75	1.25	2.25	2.00	1.50	2.50	4.25	8.75	6.25	6.50	5.25	6.25	8.50	1.25	1.75	-0.187988	0.056641	1.005859	3.010000	62.860001	-15.050000	644.00	0.16	-0.05	0.00	0.00	0.00	0.00	0.00	0.00	0.25	0.00	0.00	0.00	0.00	0.00	0.00	0.00	0.00	0.00	-0.957520	-0.511230	3.172852	0.770000	-498.260010	64.120003	4.00	0.00	0.00
3.01	0.25	1.00	1.25	2.00	2.00	1.50	2.50	4.25	9.25	7.75	7.75	6.00	6.75	9.75	1.75	2.25	-0.282227	0.062012	0.994141	7.140000	70.629997	-14.560000	707.00	0.17	-0.04	0.00	0.00	0.00	0.00	0.00	0.00	0.25	0.00	0.00	0.00	0.00	0.00	0.00	0.00	0.00	0.00	-1.357422	-0.590332	3.305664	-4.200000	-502.950012	46.970001	4.00	0.00	0.00
3.02	0.50	0.75	1.00	2.00	1.75	1.25	2.50	4.00	10.00	8.25	8.50	7.00	7.00	11.00	2.00	2.50	-0.234375	0.044434	0.990723	11.200000	78.750000	-13.160000	745.00	0.18	-0.04	0.00	0.00	0.00	0.00	0.00	0.00	0.25	0.00	0.00	0.00	0.00	0.00	0.00	0.00	0.00	0.00	-1.958984	-0.402832	3.545898	-22.330000	-500.779999	24.010000	4.00	0.00	0.00
3.03	0.50	0.25	0.75	1.50	1.25	1.00	2.50	4.00	10.75	9.00	9.50	7.50	7.25	12.00	2.25	3.25	-0.249512	0.062988	0.992676	14.280000	88.690002	-13.300000	775.00	0.20	-0.04	0.00	0.00	0.00	0.00	0.00	0.00	0.25	0.00	0.00	0.00	0.00	0.00	0.00	0.00	0.00	0.00	-2.522461	-0.273438	3.749512	-23.170000	-492.799988	2.590000	4.00	0.00	0.00
3.04	0.50	0.25	0.75	1.25	1.00	0.00	2.25	3.75	11.50	9.50	10.00	8.00	7.25	13.25	2.50	4.00	-0.255859	0.085449	1.023926	18.620001	108.150002	-15.750000	794.00	0.22	-0.03	0.00	0.00	0.00	0.00	0.00	0.00	0.25	0.00	0.00	0.00	0.00	0.00	0.00	0.00	0.00	0.00	-3.246094	-0.125000	3.783203	-15.260000	-484.330017	-14.350000	4.00	0.00	0.00
3.05	0.25	0.25	0.50	1.50	0.75	0.50	2.25	3.50	12.00	10.00	10.75	8.50	7.50	14.25	3.00	5.00	-0.255859	0.085449	1.023926	18.620001	108.150002	-15.750000	836.00	0.22	-0.03	0.00	0.00	0.00	0.00	0.00	0.25	0.25	0.00	0.00	0.00	0.00	0.00	0.00	0.00	0.00	0.00	-3.825684	0.199219	3.430664	-35.000000	-472.850006	-20.650000	7.00	0.00	0.00
3.06	0.00	0.00	0.25	0.50	0.50	0.25	1.75	3.25	12.25	10.50	11.50	9.00	7.50	15.50	3.50	5.50	-0.352539	0.073242	1.094238	20.020000	120.820000	-18.620001	841.00	0.24	-0.03	0.00	0.00	0.00	0.00	0.00	0.00	0.25	0.00	0.00	0.00	0.00	0.00	0.00	0.00	0.00	0.00	-4.220703	0.974121	2.338867	-84.699997	-445.130005	-8.470000	4.00	0.00	0.00
3.07	0.00	0.25	0.00	1.25	0.50	0.00	1.50	3.00	12.75	10.75	11.75	9.25	7.50	16.75	4.50	6.00	-0.312012	0.072754	1.063477	21.700001	134.889999	-20.370001	877.00	0.24	-0.03	0.00	0.00	0.00	0.00	0.00	0.00	0.25	0.00	0.00	0.00	0.00	0.00	0.00	0.00	0.00	0.00	-5.122559	1.598633	0.726562	-95.269997	-389.059998	12.600000	4.00	0.00	0.00
3.08	0.25	0.25	0.00	0.50	0.00	0.00	1.00	2.75	13.00	11.25	12.50	9.75	7.50	17.75	5.00	6.00	-0.372559	0.087891	1.120117	24.710001	174.300003	-22.540001	890.00	0.25	-0.03	0.00	0.00	0.00	0.00	0.00	0.00	0.25	0.00	0.00	0.00	0.00	0.00	0.00	0.00	0.00	0.00	-6.797852	1.574707	-0.845703	5.530000	-309.540009	7.070000	4.00	0.00	0.00
3.09	0.00	0.00	0.00	0.75	0.00	0.00	0.75	2.25	13.25	11.50	12.75	10.00	7.00	19.25	5.50	6.50	-0.372559	0.087891	1.120117	24.710001	174.300003	-22.540001	904.00	0.26	-0.02	0.00	0.00	0.00	0.00	0.00	0.00	0.25	0.00	0.00	0.00	0.00	0.00	0.00	0.00	0.00	0.00	-7.427734	0.390137	-1.661621	168.419998	-203.350006	2.940000	4.00	0.00	0.00
3.10	0.00	0.00	0.00	0.25	0.00	0.00	0.50	1.75	13.25	11.75	13.25	10.00	6.75	19.75	6.25	6.75	-0.394531	0.122559	1.117676	25.830000	199.919998	-25.129999	906.00	0.27	-0.02	0.00	0.00	0.00	0.25	0.00	0.00	0.25	0.00	0.00	0.00	0.00	0.00	0.00	0.00	0.00	0.00	-7.239258	-0.877930	-1.513184	200.970001	-79.519997	27.090000	7.00	0.00	0.00
3.11	0.00	0.00	0.00	0.00	0.00	0.00	0.25	1.25	13.25	11.75	13.25	10.00	6.25	20.75	6.50	6.75	-0.752441	0.033691	0.878418	15.610000	265.230011	-26.180000	899.00	0.28	-0.01	0.00	0.00	0.00	0.00	0.00	0.00	0.25	0.00	0.00	0.00	0.00	0.00	0.00	0.00	0.00	0.00	-6.155762	-1.081543	-0.843262	87.010002	31.780001	73.919998	4.00	0.00	0.00
3.12	0.00	0.00	0.00	0.00	0.00	0.00	0.00	0.75	13.00	11.75	13.25	9.75	5.75	21.25	6.75	6.75	-0.581543	0.081055	1.304199	6.860000	300.649994	-25.270000	884.00	0.28	-0.01	0.00	0.00	0.00	0.00	0.00	0.00	0.25	0.00	0.00	0.00	0.00	0.00	0.00	0.00	0.00	0.00	-4.881348	-0.451172	0.014648	-22.680000	104.160004	117.320000	4.00	0.00	0.00
3.13	0.00	0.00	0.00	0.00	0.00	0.00	0.00	0.50	12.75	11.50	13.00	9.50	5.25	21.50	6.75	6.50	-0.425293	0.132812	1.206055	-5.670000	340.970001	-27.090000	866.00	0.29	-0.00	0.00	0.00	0.25	0.25	0.00	0.00	0.25	0.00	0.00	0.00	0.00	0.00	0.00	0.00	0.00	0.00	-3.579590	-0.009277	0.268555	-36.889999	136.430008	136.639999	9.00	0.00	0.00
3.14	0.00	0.00	0.00	0.00	0.00	0.00	0.00	0.25	12.50	11.50	12.50	9.25	4.50	21.50	6.50	6.25	-0.736328	0.018555	1.600586	-17.920000	374.500000	-31.290001	840.00	0.29	0.01	1.00	0.75	0.75	1.50	0.00	0.00	0.25	0.00	0.00	0.00	0.00	0.00	0.00	0.00	0.00	0.00	-7.721191	1.091797	3.226074	-1.470000	131.949997	125.720001	46.00	0.00	0.00
3.15	0.00	0.00	0.00	0.00	0.00	0.00	0.00	0.25	11.75	11.00	12.00	8.50	3.50	21.25	6.50	5.75	-0.715332	0.373535	1.377441	-27.650000	420.070007	-42.560001	798.00	0.29	0.01	6.00	7.25	2.50	5.00	0.00	0.00	0.25	0.00	0.00	0.00	0.00	0.00	0.00	0.00	0.00	0.00	0.577637	-0.867188	-5.939941	15.260000	199.919998	97.510002	215.00	-0.35	-0.06
3.16	0.00	0.00	0.00	0.00	0.00	0.00	0.00	0.25	10.75	10.50	11.25	8.00	2.75	20.50	6.25	5.25	-0.901855	0.505859	2.386719	-30.590000	462.769989	-57.189999	749.00	0.29	0.01	15.50	16.00	6.50	8.50	0.25	0.00	0.25	0.00	0.00	0.00	0.00	0.00	0.00	0.00	0.00	0.00	0.110840	-0.842285	0.642578	22.960001	216.720001	70.559998	480.00	-0.36	-0.04
3.17	0.00	0.00	0.00	0.00	0.00	0.00	0.00	0.00	9.25	9.50	10.25	6.75	1.75	19.25	5.50	4.00	-1.087402	0.458984	2.389648	-19.809999	494.480011	-65.870003	657.00	0.30	0.03	21.75	20.75	9.25	11.25	1.25	0.75	0.25	0.00	0.00	0.00	0.00	0.25	0.00	0.00	0.00	0.00	-1.682617	0.180664	5.475098	48.509998	482.510010	-58.029999	671.00	-0.35	-0.04
3.18	0.00	0.00	0.00	0.00	0.00	0.00	0.00	0.00	8.00	8.25	8.50	5.50	1.00	17.00	4.25	3.25	-1.394043	0.213867	2.798828	7.210000	535.080017	-70.000000	553.00	0.30	0.03	24.75	22.50	12.00	13.75	5.00	3.75	0.50	0.25	0.00	0.00	0.00	0.25	0.50	0.00	0.00	0.00	-1.897949	1.658203	5.505371	13.720000	364.070007	-61.880001	862.00	-0.32	-0.04
3.19	0.00	0.00	0.00	0.00	0.00	0.00	0.00	0.00	6.25	6.25	6.50	4.00	0.75	14.00	3.25	2.25	-1.541992	0.705566	3.247070	38.990002	566.650024	-64.190002	429.00	0.30	0.04	25.25	22.50	13.25	14.50	6.75	5.25	0.75	0.50	0.00	0.00	0.25	0.25	0.75	0.00	0.00	0.00	-0.870117	0.935547	2.926758	-91.629997	198.800003	-10.010000	937.00	-0.31	-0.05
3.20	0.00	0.00	0.00	0.00	0.00	0.00	0.00	0.00	4.25	4.00	4.00	2.25	0.50	10.25	1.75	1.50	-1.114258	0.542480	3.949219	121.520004	593.179993	-68.110001	281.00	0.31	0.06	24.25	21.50	13.00	14.25	7.50	6.00	0.75	1.25	0.00	0.00	0.25	0.00	0.50	0.00	0.00	0.00	0.140625	-0.843262	1.099609	-100.309998	115.010002	8.330000	935.00	-0.31	-0.05
3.21	0.00	0.00	0.00	0.00	0.00	0.00	0.00	0.00	2.75	2.75	2.50	1.50	0.50	6.50	1.00	1.00	-0.918457	0.333496	3.804688	168.000000	619.780029	-82.250000	182.00	0.30	0.05	22.50	20.25	12.75	14.25	8.25	6.75	1.00	1.50	0.00	0.00	0.25	0.25	1.00	0.00	0.00	0.00	-0.106934	-0.083496	1.363770	-25.830000	109.970001	-10.430000	934.00	-0.29	-0.06
3.22	0.00	0.00	0.00	0.00	0.00	0.00	0.00	0.00	1.75	2.25	1.50	0.75	0.25	3.00	0.00	0.50	0.118652	0.326660	4.518066	172.059998	616.210022	-112.489998	100.00	0.28	0.06	21.25	19.25	13.00	14.25	8.50	7.75	1.00	2.00	0.25	0.00	0.50	0.50	1.00	0.00	0.00	0.00	-0.460938	0.532715	1.559082	1.610000	80.500000	-5.320000	944.00	-0.28	-0.06
3.23	0.00	0.00	0.00	0.00	0.00	0.00	0.25	0.00	1.00	1.25	0.75	0.25	0.00	1.25	0.00	0.50	1.010742	0.318848	2.896484	142.029999	612.150024	-161.630005	54.00	0.27	0.09	20.50	18.75	12.75	14.25	8.75	8.25	1.00	2.50	0.00	0.50	0.50	0.25	1.25	0.25	0.00	0.00	-0.239258	0.032715	1.175293	-7.210000	34.650002	4.410000	948.00	-0.27	-0.07
3.24	0.00	0.00	0.00	0.00	0.00	0.00	0.00	0.00	0.75	1.00	1.00	0.50	0.00	1.50	0.00	0.50	-0.136719	1.553711	5.452637	57.540001	483.279999	-202.720001	51.00	0.29	0.04	19.50	18.25	12.50	14.00	9.00	8.25	1.25	2.75	0.25	0.25	0.50	0.25	1.25	0.50	0.00	0.25	-0.088379	-0.007324	1.036621	-0.420000	12.460000	1.820000	942.00	-0.27	-0.07
3.25	0.00	0.00	0.25	0.00	0.00	0.00	0.25	0.00	0.50	1.00	0.75	0.25	0.00	0.50	0.00	0.50	1.607422	1.525879	6.187988	-33.459999	194.389999	-151.199997	41.00	0.00	0.00	19.00	18.00	12.50	14.00	8.75	8.75	1.25	3.00	0.50	0.25	0.75	0.50	1.25	0.75	0.00	0.00	-0.073730	0.147949	1.006836	4.130000	7.000000	2.310000	951.00	-0.26	-0.07
3.26	0.00	0.00	0.00	0.00	0.00	0.00	0.25	0.00	0.50	1.00	0.50	0.25	0.00	0.50	0.00	0.50	1.623535	1.916016	4.071289	-86.029999	-63.000000	-65.239998	36.00	0.00	0.00	18.25	17.50	12.25	13.75	8.75	8.75	1.25	3.25	0.50	0.00	0.50	0.50	1.25	0.50	0.00	0.00	-0.050781	0.040527	1.003418	2.520000	7.280000	3.010000	929.00	-0.26	-0.07
3.27	0.00	0.00	0.00	0.00	0.00	0.00	0.00	0.00	0.00	0.75	0.50	0.00	0.00	0.00	0.00	0.50	1.088379	1.758301	2.347656	-98.559998	-154.279999	2.450000	16.00	0.00	0.00	17.75	16.75	11.75	13.50	8.75	8.75	1.25	3.25	0.25	0.25	0.75	0.75	1.75	0.75	0.00	0.25	-0.044434	0.089844	0.986328	3.080000	9.520000	1.610000	921.00	-0.25	-0.08
3.28	0.00	0.00	0.00	0.00	0.00	0.00	0.25	0.00	0.25	0.75	0.25	0.00	0.00	0.25	0.00	0.25	1.175293	1.441895	1.586426	-64.260002	-158.059998	41.720001	21.00	0.00	0.00	16.25	15.75	11.50	13.25	8.50	8.75	1.50	3.50	0.50	0.50	0.75	0.50	2.00	0.50	0.00	0.25	-0.065430	0.101562	1.015137	1.890000	12.810000	1.890000	899.00	-0.24	-0.08
3.29	0.00	0.00	0.00	0.00	0.00	0.00	0.25	0.00	0.00	0.25	0.00	0.00	0.00	0.00	0.00	0.25	1.077637	1.165039	1.825684	-21.910000	-171.360001	63.770000	8.00	0.00	0.00	14.75	14.50	11.25	12.75	8.50	8.50	1.50	3.75	0.75	0.75	0.75	0.50	2.00	0.75	0.00	0.25	-0.055664	0.082031	0.979980	-0.210000	15.470000	0.910000	873.00	-0.23	-0.08
3.30	0.00	0.00	0.00	0.00	0.00	0.00	0.00	0.00	0.00	0.50	0.25	0.00	0.00	0.25	0.00	0.25	1.034668	0.746094	2.002441	1.820000	-215.460007	78.400002	11.00	0.00	0.00	13.25	13.00	10.50	12.00	8.25	8.50	1.50	3.75	0.75	0.50	1.00	1.00	2.25	0.75	0.00	0.25	-0.043945	0.077148	0.985840	-2.310000	18.340000	-0.560000	832.00	-0.22	-0.08
3.31	0.00	0.00	0.00	0.00	0.00	0.00	0.25	0.00	0.25	0.25	0.00	0.00	0.00	0.25	0.00	0.50	0.864746	0.510254	1.979004	1.540000	-277.690002	83.300003	15.00	0.00	0.00	11.50	11.50	10.00	11.25	8.00	8.00	1.50	3.50	0.75	1.00	1.25	1.25	2.25	1.00	0.25	0.00	-0.063477	0.055664	1.005859	-2.590000	21.700001	-1.120000	788.00	-0.21	-0.08
3.32	0.00	0.00	0.00	0.00	0.00	0.00	0.00	0.00	0.00	0.25	0.00	0.00	0.00	0.00	0.00	0.50	0.601562	0.400391	1.855957	-8.540000	-337.399994	81.620003	5.00	0.00	0.00	9.75	9.75	9.25	10.50	7.50	7.50	1.50	3.50	0.75	0.75	1.00	0.75	2.50	1.25	0.00	0.25	-0.061035	0.067383	1.001953	-0.980000	24.850000	-1.540000	719.00	-0.20	-0.09
3.33	0.00	0.00	0.00	0.00	0.00	0.00	0.25	0.00	0.00	0.00	0.00	0.00	0.00	0.00	0.00	0.25	0.138184	0.321777	1.628418	-8.890000	-424.200012	69.790001	5.00	0.00	0.00	8.00	8.75	8.50	9.75	7.00	7.25	1.50	3.75	0.75	0.75	1.25	1.00	2.50	1.25	0.00	0.25	-0.060547	0.069336	1.000000	-0.210000	27.860001	-1.680000	676.00	-0.19	-0.09
3.34	0.00	0.00	0.00	0.00	0.25	0.00	0.00	0.00	0.00	0.00	0.00	0.00	0.00	0.00	0.00	0.25	-0.092285	0.315430	1.516602	5.460000	-454.860016	62.930000	4.00	0.00	0.00	6.75	7.25	7.75	9.00	6.25	6.50	1.50	3.50	1.25	1.00	1.50	1.00	3.00	1.50	0.00	0.25	-0.079102	0.043945	1.006348	1.400000	30.240000	-1.260000	630.00	-0.16	-0.09
3.35	0.00	0.00	0.00	0.00	0.00	0.00	0.00	0.00	0.00	0.00	0.00	0.00	0.00	0.00	0.00	0.25	-0.305664	0.315918	1.431641	24.360001	-475.089996	57.680000	1.00	0.00	0.00	5.50	6.00	7.00	8.50	6.00	6.25	1.50	3.50	1.00	1.25	1.25	1.25	2.75	1.50	0.00	0.50	-0.078613	0.071777	0.991211	2.730000	31.360001	-0.980000	585.00	-0.15	-0.10
3.36	0.00	0.00	0.00	0.00	0.00	0.00	0.00	0.00	0.00	0.00	0.25	0.00	0.00	0.00	0.00	0.50	-0.476562	0.299805	1.371094	42.490002	-484.399994	56.000000	5.00	0.00	0.00	4.25	5.00	6.25	7.50	5.25	5.50	1.50	3.25	1.25	1.00	1.50	1.25	3.25	1.75	0.25	0.50	-0.101562	0.086426	0.985840	1.960000	32.480000	-1.890000	536.00	-0.13	-0.10
3.37	0.00	0.00	0.00	0.00	0.00	0.00	0.00	0.00	0.00	0.00	0.00	0.00	0.00	0.00	0.00	0.25	-0.595703	0.258789	1.397461	50.400002	-483.910004	58.799999	1.00	0.00	0.00	3.75	3.75	5.25	7.00	5.00	5.25	1.50	3.25	1.25	1.25	1.75	1.50	3.25	2.00	0.25	0.25	-0.077637	0.102051	0.994629	-2.940000	30.799999	-6.650000	506.00	-0.11	-0.10
3.38	0.00	0.00	0.00	0.00	0.00	0.00	0.00	0.00	0.00	0.00	0.00	0.00	0.00	0.00	0.00	0.25	-0.661133	0.234375	1.474121	41.650002	-479.290009	65.730003	1.00	0.00	0.00	2.75	2.50	5.00	6.00	4.25	4.25	1.75	3.25	1.25	1.75	1.75	1.50	3.75	2.25	0.25	0.50	-0.144531	0.094727	0.974121	-5.110000	30.590000	-8.120000	468.00	-0.07	-0.10
3.39	0.00	0.00	0.00	0.00	0.00	0.00	0.00	0.00	0.00	0.00	0.00	0.00	0.00	0.00	0.00	0.25	-0.688477	0.265625	1.561035	22.540001	-473.339996	73.919998	1.00	0.00	0.00	2.25	1.75	4.00	5.50	3.75	3.75	1.75	3.25	2.00	2.00	2.25	2.25	4.00	3.00	0.50	0.50	-0.151367	0.082520	0.996094	-5.740000	29.960001	-11.270000	465.00	-0.03	-0.10
3.40	0.00	0.00	0.00	0.00	0.00	0.00	0.00	0.00	0.00	0.00	0.00	0.00	0.00	0.00	0.00	0.25	-0.720703	0.315430	1.728516	7.700000	-467.390015	79.730003	1.00	0.00	0.00	1.75	1.25	3.25	4.75	3.50	3.00	1.75	3.00	2.25	2.00	2.50	2.50	4.50	3.25	0.25	0.50	-0.138184	0.080078	0.970703	-6.510000	29.820000	-14.070000	436.00	-0.00	-0.10
3.41	0.00	0.00	0.00	0.00	0.00	0.00	0.00	0.00	0.00	0.00	0.00	0.00	0.00	0.00	0.00	0.50	-0.767090	0.394043	1.958008	2.940000	-463.399994	82.110001	3.00	0.00	0.00	1.50	1.50	2.75	4.00	3.00	3.00	1.75	3.00	2.75	2.50	2.75	2.25	4.25	4.25	0.50	0.50	-0.153320	0.072266	0.985840	-5.600000	30.309999	-16.100000	437.00	0.02	-0.08
3.42	0.00	0.00	0.00	0.00	0.00	0.00	0.00	0.00	0.00	0.00	0.00	0.00	0.00	0.00	0.00	0.25	-0.818359	0.482910	2.202148	4.690000	-464.799988	84.769997	1.00	0.00	0.00	1.50	0.75	2.25	4.00	2.75	2.25	2.00	3.00	3.50	3.00	3.00	2.75	5.00	5.25	0.50	1.00	-0.166992	0.067383	0.988281	-3.430000	31.150000	-17.430000	458.00	0.06	-0.07
3.43	0.00	0.00	0.00	0.00	0.00	0.00	0.00	0.00	0.00	0.00	0.00	0.00	0.00	0.00	0.00	0.25	-0.877930	0.568359	2.505859	12.180000	-470.049988	89.389999	1.00	0.00	0.00	1.25	0.75	2.25	3.25	2.50	2.00	2.00	3.00	4.00	3.25	3.50	3.25	5.25	6.25	0.50	1.00	-0.162109	0.054199	0.968750	-0.070000	32.200001	-17.570000	472.00	0.09	-0.07
3.44	0.00	0.00	0.00	0.00	0.00	0.00	0.00	0.00	0.00	0.00	0.00	0.00	0.00	0.00	0.00	0.25	-1.025879	0.639160	2.805664	19.879999	-474.809998	95.970001	1.00	0.00	0.00	1.00	0.75	1.75	3.00	2.25	2.00	2.00	3.25	4.75	4.00	4.50	3.75	6.00	7.00	0.75	1.25	-0.160645	0.060059	0.979004	2.730000	34.090000	-16.030001	513.00	0.11	-0.07
3.45	0.00	0.00	0.00	0.00	0.00	0.00	0.00	0.00	0.00	0.00	0.00	0.00	0.00	0.00	0.00	0.25	-1.461426	0.713379	2.963379	30.380001	-480.410004	103.040001	1.00	0.00	0.00	0.75	0.50	1.50	2.75	2.00	1.50	2.00	3.50	5.50	4.50	5.50	4.25	6.50	8.00	0.75	1.25	-0.170410	0.059082	0.996094	5.320000	37.869999	-14.980000	541.00	0.14	-0.07
3.46	0.00	0.00	0.00	0.00	0.00	0.00	0.00	0.00	0.00	0.00	0.00	0.00	0.00	0.00	0.00	0.25	-2.057617	0.740723	2.893066	44.240002	-479.360016	110.879997	1.00	0.00	0.00	0.50	0.00	1.25	2.25	1.75	1.00	2.00	3.75	6.75	6.25	7.00	5.00	7.75	9.00	1.00	1.75	-0.191406	0.069824	1.007324	8.610000	42.279999	-14.980000	605.00	0.17	-0.06
3.47	0.00	0.25	0.00	0.00	0.00	0.00	0.00	0.00	0.00	0.00	0.00	0.00	0.00	0.00	0.00	0.25	-2.494141	0.680176	2.885742	55.650002	-464.940002	120.959999	4.00	0.00	0.00	0.50	0.25	1.00	1.75	1.50	0.75	2.00	3.75	7.50	7.50	8.00	6.75	8.00	10.25	1.25	2.00	-0.166016	0.077637	0.991699	12.810000	48.790001	-15.540000	662.00	0.18	-0.06
3.48	0.00	0.00	0.00	0.00	0.00	0.00	0.00	0.00	0.00	0.00	0.00	0.00	0.00	0.00	0.00	0.25	-2.977539	0.588867	2.935059	55.160000	-444.010010	136.710007	1.00	0.00	0.00	0.25	0.25	1.00	1.50	1.25	1.00	2.00	4.00	8.25	8.25	8.75	7.75	8.50	11.75	1.75	2.75	-0.215332	0.083984	1.015137	16.170000	57.260002	-16.030001	723.00	0.20	-0.06
3.49	0.00	0.00	0.00	0.00	0.00	0.00	0.00	0.00	0.25	0.00	0.00	0.00	0.00	0.00	0.00	0.25	-3.394043	0.379883	2.913086	48.439999	-423.429993	155.399994	5.00	0.00	0.00	0.25	0.00	0.75	1.50	1.00	0.75	2.00	4.25	8.75	9.00	9.75	8.50	9.00	13.25	2.00	3.25	-0.209473	0.071289	1.025879	18.690001	64.610001	-15.260000	771.00	0.21	-0.06
3.50	0.00	0.00	0.00	0.00	0.00	0.00	0.00	0.00	0.00	0.00	0.00	0.00	0.00	0.00	0.00	0.25	-3.854980	0.177734	2.550293	34.090000	-399.279999	174.440002	1.00	0.00	0.00	0.25	0.00	0.00	1.25	0.75	0.50	1.75	4.25	9.50	9.50	10.50	8.75	9.50	14.75	2.50	4.50	-0.234863	0.110840	1.044434	22.260000	72.870003	-13.860000	805.00	0.22	-0.06
3.51	0.00	0.00	0.00	0.00	0.00	0.00	0.00	0.00	0.00	0.00	0.00	0.00	0.00	0.00	0.00	0.25	-4.224609	0.167969	1.913574	-19.110001	-358.820007	198.309998	1.00	0.00	0.00	0.25	0.00	0.00	1.00	0.50	0.25	1.50	4.00	10.00	10.25	11.00	9.75	9.75	16.25	3.00	5.25	-0.234375	0.154785	1.125000	25.900000	86.449997	-15.470000	844.00	0.23	-0.06
3.52	0.00	0.00	0.00	0.00	0.00	0.00	0.00	0.00	0.00	0.00	0.00	0.00	0.00	0.00	0.00	0.25	-4.330078	0.227051	0.748047	-85.889999	-303.239990	234.779999	1.00	0.00	0.00	0.25	0.00	0.00	1.25	0.25	0.25	1.25	3.75	10.25	10.75	11.75	10.25	10.00	17.75	3.50	6.00	-0.182129	0.254395	0.229492	33.250000	110.250000	-20.370001	882.00	0.24	-0.06
3.53	0.00	0.00	0.00	0.00	0.00	0.00	0.00	0.00	0.25	0.00	0.00	0.00	0.00	0.00	0.00	0.25	-6.068848	0.532715	-0.114258	-155.050003	-247.520004	233.660004	5.00	0.00	0.00	0.00	0.00	0.00	1.00	0.00	0.25	1.00	3.50	10.50	11.25	12.25	10.50	9.75	19.25	5.00	6.50	-0.266113	0.129395	1.131836	34.439999	125.440002	-25.410000	912.00	0.25	-0.05
3.54	0.00	0.00	0.00	0.00	0.00	0.00	0.00	0.00	0.50	0.00	0.00	0.00	0.00	0.00	0.00	0.25	-7.098633	0.581543	-2.391602	5.810000	-67.970001	66.570000	8.00	0.00	0.00	0.00	0.00	0.00	0.75	0.00	0.00	0.75	3.00	11.00	11.50	12.75	11.00	10.00	20.25	5.50	7.00	-0.260742	0.115723	1.159668	33.459999	147.000000	-27.790001	934.00	0.26	-0.05
3.55	0.00	0.00	0.00	0.00	0.00	0.00	0.00	0.00	0.00	0.00	0.00	0.00	0.00	0.00	0.00	0.25	-6.379883	-0.725586	-1.323730	103.459999	74.550003	44.310001	1.00	0.00	0.00	0.00	0.00	0.00	0.75	0.00	0.00	0.50	2.50	11.00	11.75	13.00	11.25	9.75	21.50	6.25	7.25	-0.356934	0.138184	0.984863	33.670002	166.600006	-27.860001	948.00	0.26	-0.05
3.56	0.00	0.00	0.00	0.00	0.00	0.00	0.00	0.00	0.00	0.25	0.25	0.00	0.00	0.00	0.00	0.25	-5.154785	-1.455078	0.155273	42.980000	169.190002	56.420002	7.00	0.00	0.00	0.25	0.00	0.00	0.25	0.00	0.00	0.00	2.00	10.75	12.00	13.25	11.25	9.50	22.50	6.75	7.50	-0.366699	0.198242	1.335938	29.960001	225.259995	-23.590000	945.00	0.27	-0.04
3.57	0.00	0.00	0.00	0.00	0.00	0.00	0.00	0.00	0.00	0.00	0.00	0.00	0.00	0.00	0.00	0.25	-3.955078	-0.880859	0.966797	-80.290001	201.389999	63.770000	1.00	0.00	0.00	0.00	0.00	0.00	0.00	0.00	0.00	0.00	1.25	10.50	11.75	13.25	11.25	9.25	23.00	7.00	7.50	-0.437988	0.250488	1.375000	21.139999	264.950012	-28.910000	927.00	0.28	-0.04
3.58	0.00	0.00	0.00	0.00	0.00	0.00	0.00	0.00	0.00	0.00	0.00	0.00	0.00	0.00	0.00	0.25	-2.909180	-0.226074	1.042480	-115.570000	198.940002	43.610001	1.00	0.00	0.00	0.00	0.00	0.00	0.00	0.00	0.00	0.00	0.75	10.25	11.75	13.00	11.25	8.75	23.50	7.00	7.50	-0.375977	0.312500	1.537598	11.480000	323.679993	-41.580002	913.00	0.28	-0.03
3.59	0.25	0.75	0.75	1.25	0.00	0.00	0.25	0.00	0.00	0.00	0.00	0.00	0.00	0.00	0.00	0.25	1.387207	-0.330078	4.203125	-52.009998	303.380005	-0.070000	37.00	0.00	0.00	0.00	0.00	0.00	0.00	0.00	0.00	0.00	0.50	9.50	11.25	12.50	10.75	8.25	23.25	7.00	7.25	-0.625488	0.319336	1.763672	4.550000	363.649994	-52.360001	876.00	0.29	-0.03
3.60	3.00	5.00	2.25	3.00	0.25	0.00	0.00	0.00	0.00	0.00	0.00	0.00	0.00	0.00	0.00	0.25	0.099121	0.201660	1.358398	-6.020000	183.680008	-9.870000	139.00	-0.34	-0.07	0.00	0.00	0.00	0.00	0.00	0.00	0.00	0.25	8.75	10.75	12.25	10.25	7.75	22.75	7.00	6.50	-0.591309	0.280762	1.538086	1.050000	416.360016	-60.549999	837.00	0.29	-0.03
3.61	12.50	17.00	4.75	7.25	0.50	0.00	0.00	0.00	0.00	0.00	0.00	0.00	0.00	0.00	0.00	0.25	-0.980469	-0.925293	-1.951660	86.169998	269.500000	-4.760000	425.00	-0.36	-0.06	0.00	0.00	0.00	0.00	0.00	0.00	0.00	0.25	7.25	10.00	11.50	9.75	7.00	21.50	6.50	5.75	-0.880371	0.710938	2.299316	16.170000	462.140015	-70.139999	769.00	0.29	-0.03
3.62	22.25	26.50	8.50	11.00	1.25	0.25	0.00	0.00	0.00	0.00	0.00	0.00	0.00	0.00	0.00	0.25	-1.434082	0.113770	4.510254	88.690002	476.980011	-39.340000	708.00	-0.36	-0.05	0.00	0.00	0.00	0.00	0.00	0.00	0.00	0.00	5.75	8.75	10.50	8.75	5.25	19.25	5.75	4.50	-0.728516	0.461426	3.029297	33.599998	507.640015	-82.879997	663.00	0.29	-0.03
3.63	27.25	31.25	12.00	16.25	2.75	2.75	0.25	0.00	0.00	0.00	0.00	0.25	0.00	0.00	0.00	0.25	-2.427246	0.601074	6.500977	81.199997	399.559998	-37.869999	950.00	-0.34	-0.05	0.00	0.00	0.00	0.00	0.00	0.00	0.00	0.00	4.00	7.25	8.75	7.75	3.75	16.00	4.50	2.75	-1.270508	0.880371	2.970703	60.760002	552.369995	-87.500000	532.00	0.29	-0.03
3.64	28.25	31.50	14.25	18.25	5.75	6.00	0.50	0.50	0.00	0.00	0.00	0.00	0.00	0.00	0.00	0.25	-1.335938	1.036621	4.102051	-17.639999	280.070007	-26.600000	1087.00	-0.33	-0.06	0.00	0.00	0.00	0.00	0.00	0.00	0.00	0.00	2.50	4.75	7.00	5.50	2.00	11.75	2.50	1.25	-1.183105	0.839844	3.762695	119.559998	585.340027	-89.809998	364.00	0.29	-0.02
3.65	27.25	30.25	14.75	18.50	7.00	6.50	0.50	0.50	0.00	0.00	0.00	0.25	0.25	0.00	0.00	0.50	-0.525391	0.114258	2.182617	-92.190002	164.500000	-6.930000	1098.00	-0.32	-0.06	0.00	0.00	0.00	0.00	0.00	0.00	0.00	0.00	1.50	2.75	4.50	3.00	1.00	7.75	1.25	0.50	-0.589355	0.665527	3.803711	185.919998	605.919983	-100.379997	218.00	0.30	-0.01
3.66	26.00	29.25	14.75	18.25	7.75	7.00	0.75	1.00	0.00	0.25	0.00	0.00	0.25	0.00	0.00	0.50	-0.029785	-0.518066	1.153320	-92.120003	123.059998	-2.520000	1098.00	-0.31	-0.06	0.00	0.00	0.00	0.00	0.00	0.00	0.00	0.00	1.00	2.00	2.75	2.25	0.75	3.75	0.50	0.25	-0.171387	0.456543	3.998535	256.549988	627.479980	-114.730003	132.00	0.28	-0.03
3.67	23.75	27.25	14.75	18.25	8.50	7.75	0.75	1.50	0.00	0.25	0.00	0.25	0.50	0.00	0.00	0.25	-0.208008	-0.019531	1.446289	-53.970001	112.770004	-5.460000	1084.00	-0.30	-0.07	0.00	0.00	0.00	0.00	0.00	0.00	0.25	0.00	0.50	1.50	1.50	1.25	0.50	1.75	0.25	0.25	0.933594	0.010254	4.448242	289.660004	620.340027	-156.449997	78.00	0.26	-0.03
3.68	22.75	26.25	14.75	18.00	8.75	8.25	1.00	1.75	0.25	0.25	0.25	0.25	0.75	0.25	0.00	0.50	-0.422363	0.180176	1.332520	-28.280001	69.230003	-1.470000	1089.00	-0.29	-0.07	0.00	0.00	0.00	0.00	0.00	0.00	0.25	0.00	0.25	0.75	1.00	0.25	0.00	1.00	0.00	0.00	0.576660	-0.391113	3.100586	267.610016	606.340027	-227.710007	36.00	0.00	0.00
3.69	22.00	26.00	14.50	18.25	9.25	8.75	1.00	2.25	0.75	0.50	0.25	0.25	0.75	0.50	0.00	0.25	-0.236816	-0.039062	1.170410	-15.610000	37.170002	1.330000	1108.00	-0.28	-0.07	0.00	0.00	0.00	0.00	0.00	0.00	0.25	0.00	0.25	1.00	1.00	0.50	0.00	0.50	0.25	0.25	1.072266	1.472168	7.809570	159.529999	372.540009	-237.720001	41.00	0.00	0.00
3.70	21.25	25.25	14.00	18.00	9.50	8.75	1.00	2.25	0.50	0.50	0.25	0.25	0.75	0.25	0.00	0.50	-0.179688	0.038574	1.040039	-4.970000	21.070000	-0.840000	1083.00	-0.28	-0.07	0.00	0.00	0.00	0.00	0.00	0.00	0.25	0.00	0.25	0.75	1.00	0.00	0.00	0.25	0.00	0.00	2.375488	1.251953	5.679688	27.510000	53.970001	-161.070007	27.00	0.00	0.00
3.71	20.25	24.50	14.00	17.50	9.25	9.25	1.00	2.50	0.75	0.50	0.25	0.25	1.00	0.50	0.00	0.50	-0.153320	0.107910	1.020508	-2.310000	16.100000	-0.700000	1075.00	-0.27	-0.07	0.00	0.00	0.00	0.00	0.00	0.00	0.25	0.00	0.25	0.75	0.50	0.25	0.00	0.25	0.00	0.00	1.595703	1.645996	3.389648	-81.480003	-153.930008	-60.760002	25.00	0.00	0.00
