# time	left pressure 1[N/cm²]	left pressure 2[N/cm²]	left pressure 3[N/cm²]	left pressure 4[N/cm²]	left pressure 5[N/cm²]	left pressure 6[N/cm²]	left pressure 7[N/cm²]	left pressure 8[N/cm²]	left pressure 9[N/cm²]	left pressure 10[N/cm²]	left pressure 11[N/cm²]	left pressure 12[N/cm²]	left pressure 13[N/cm²]	left pressure 14[N/cm²]	left pressure 15[N/cm²]	left pressure 16[N/cm²]	left acceleration X[g]	left acceleration Y[g]	left acceleration Z[g]	left angular X[dps]	left angular Y[dps]	left angular Z[dps]	left total force[N]	left center of pressure X[%]	left center of pressure Y[%]	right pressure 1[N/cm²]	right pressure 2[N/cm²]	right pressure 3[N/cm²]	right pressure 4[N/cm²]	right pressure 5[N/cm²]	right pressure 6[N/cm²]	right pressure 7[N/cm²]	right pressure 8[N/cm²]	right pressure 9[N/cm²]	right pressure 10[N/cm²]	right pressure 11[N/cm²]	right pressure 12[N/cm²]	right pressure 13[N/cm²]	right pressure 14[N/cm²]	right pressure 15[N/cm²]	right pressure 16[N/cm²]	right acceleration X[g]	right acceleration Y[g]	right acceleration Z[g]	right angular X[dps]	right angular Y[dps]	right angular Z[dps]	right total force[N]	right center of pressure X[%]	right center of pressure Y[%]
0.00																										1.75	1.25	3.00	3.00	3.00	4.50	1.50	5.00	1.75	2.25	2.75	4.50	8.00	3.25	1.75	1.50	-0.151367	0.129395	0.952637	-2.940000	1.330000	0.070000	571.00	0.04	-0.15
0.01	5.50	6.25	7.25	7.75	7.50	9.50	2.75	8.00	2.75	2.75	2.25	3.00	7.50	1.50	1.00	1.25	-0.135254	0.095703	0.965820	-2.590000	4.620000	1.400000	923.00	-0.08	-0.13	2.50	1.50	3.00	3.00	3.00	4.50	1.50	5.00	2.00	2.00	3.00	4.75	8.00	3.00	1.75	1.50	-0.146973	0.132324	0.963867	-2.940000	1.330000	-0.000000	586.00	0.03	-0.15
0.02	5.75	6.75	7.25	8.00	7.75	9.75	2.50	8.00	2.75	2.50	2.25	3.00	7.50	1.50	0.75	1.00	-0.138184	0.091797	0.960449	-2.590000	4.550000	1.330000	928.00	-0.09	-0.13	2.50	1.50	3.00	3.25	3.00	4.50	1.50	5.25	2.00	2.25	2.50	4.75	8.25	3.25	1.75	1.75	-0.147949	0.131836	0.960938	-2.940000	1.260000	0.070000	597.00	0.03	-0.15
0.03	5.50	6.75	7.50	8.00	7.75	9.75	2.75	8.00	2.75	2.75	2.25	3.00	7.50	1.50	1.00	1.25	-0.142090	0.094727	0.959961	-2.660000	4.690000	1.260000	940.00	-0.08	-0.13	2.25	1.50	3.25	2.50	3.00	4.50	1.50	5.00	2.00	2.25	2.75	4.75	8.25	3.25	1.75	1.25	-0.150879	0.125977	0.958984	-2.940000	1.120000	0.140000	584.00	0.04	-0.15
0.04	5.75	6.75	7.25	8.00	7.75	9.75	2.75	8.00	2.75	2.75	2.25	3.00	7.75	1.50	1.00	1.25	-0.143555	0.100098	0.960938	-2.520000	4.480000	1.470000	942.00	-0.08	-0.13	2.50	1.50	3.00	2.75	3.25	4.25	1.50	5.00	1.75	2.25	2.50	5.00	8.25	3.25	1.75	1.75	-0.150879	0.134277	0.958984	-2.940000	1.190000	0.070000	586.00	0.03	-0.15
0.05	5.75	6.75	7.50	8.00	7.75	9.75	2.75	8.25	2.75	2.50	2.75	3.00	7.75	1.75	0.75	1.25	-0.140625	0.094727	0.965820	-2.450000	4.480000	1.470000	951.00	-0.08	-0.13	2.50	1.50	3.00	3.00	3.00	4.50	1.50	5.25	2.00	2.25	2.50	4.75	8.25	3.00	1.75	1.50	-0.154785	0.132812	0.958008	-3.080000	1.120000	-0.070000	590.00	0.03	-0.15
0.06	5.75	6.75	7.50	8.00	7.75	9.75	2.75	8.00	2.75	2.75	2.25	3.25	7.50	1.50	1.00	1.00	-0.136230	0.096191	0.965332	-2.730000	4.620000	1.330000	944.00	-0.08	-0.13	2.25	1.50	2.75	3.25	3.25	4.75	1.50	5.25	2.00	2.00	2.75	5.00	8.25	3.25	1.75	1.50	-0.153809	0.135742	0.954590	-2.940000	1.120000	0.070000	598.00	0.03	-0.16
0.07	5.75	6.50	7.50	8.00	7.75	9.75	2.75	8.25	2.50	2.50	2.25	3.00	7.75	1.50	1.00	1.00	-0.141602	0.095215	0.958984	-2.800000	4.690000	1.330000	938.00	-0.08	-0.13	2.50	1.75	3.00	3.00	3.25	4.50	1.50	5.25	2.00	2.50	2.50	4.75	8.25	3.00	1.75	1.50	-0.149902	0.130371	0.956543	-3.010000	1.190000	-0.000000	598.00	0.03	-0.15
0.08	5.50	7.00	7.50	8.00	7.75	9.75	3.00	8.25	2.75	2.75	2.50	3.25	7.75	1.50	1.00	1.25	-0.141602	0.097168	0.959961	-2.730000	4.620000	1.260000	958.00	-0.08	-0.13	2.25	1.75	3.00	3.25	3.25	4.50	1.50	5.25	1.75	2.25	2.75	4.75	8.25	3.25	1.50	1.50	-0.152832	0.131836	0.953125	-3.010000	1.330000	-0.140000	594.00	0.03	-0.16
0.09	5.75	7.00	7.50	8.00	7.75	9.75	2.75	8.25	2.50	2.75	2.25	3.25	7.75	1.75	0.75	1.25	-0.142578	0.099609	0.966309	-2.730000	4.550000	1.260000	950.00	-0.08	-0.13	2.50	1.25	3.00	3.25	3.00	4.50	1.50	5.25	2.00	2.25	2.75	4.75	8.50	3.25	1.75	1.50	-0.152832	0.130371	0.959961	-3.010000	1.330000	-0.000000	598.00	0.03	-0.15
0.10	5.75	7.00	7.50	8.00	7.75	9.75	2.75	8.25	2.50	2.75	2.25	3.00	7.75	1.50	1.00	1.25	-0.141602	0.091797	0.962402	-2.660000	4.620000	1.400000	948.00	-0.08	-0.13	2.00	1.50	3.00	3.00	3.00	4.50	1.75	5.25	2.00	2.00	2.75	4.75	8.25	3.00	1.50	1.25	-0.147461	0.133301	0.960938	-3.010000	1.260000	0.070000	584.00	0.03	-0.15
0.11	5.75	6.75	7.50	8.00	7.75	9.75	2.75	8.25	2.75	2.50	2.50	3.00	7.50	2.00	0.75	1.00	-0.142090	0.097168	0.959473	-2.730000	4.760000	1.400000	947.00	-0.08	-0.13	2.50	1.50	3.00	3.25	3.00	4.50	1.50	5.25	1.75	2.25	2.75	4.75	8.50	3.00	2.00	1.75	-0.150879	0.128418	0.958008	-3.150000	1.400000	-0.000000	599.00	0.03	-0.16
0.12	5.50	6.75	7.50	8.00	7.75	9.75	2.75	8.25	2.75	2.75	2.25	3.00	7.75	1.50	0.75	1.25	-0.143555	0.091797	0.961914	-2.730000	4.830000	1.330000	943.00	-0.08	-0.13	2.50	1.50	3.25	3.00	3.00	4.25	1.75	5.25	2.00	2.25	2.75	4.75	8.50	3.25	1.75	1.75	-0.152344	0.128906	0.955566	-3.080000	1.260000	0.070000	603.00	0.03	-0.15
0.13	5.75	7.00	7.50	8.25	7.75	9.75	2.75	8.25	2.75	2.75	2.25	3.00	8.00	1.75	1.00	1.25	-0.146973	0.097168	0.965820	-2.730000	4.830000	1.260000	959.00	-0.08	-0.13	2.00	1.50	2.75	3.00	3.00	4.25	1.50	5.25	2.00	2.25	3.00	4.75	8.50	3.25	1.75	1.75	-0.155273	0.133789	0.954102	-3.150000	1.260000	-0.000000	590.00	0.04	-0.16
0.14	5.75	6.75	7.50	8.00	7.75	9.75	2.75	8.25	2.75	2.75	2.00	3.00	7.75	1.75	0.50	1.00	-0.139160	0.096191	0.964844	-2.730000	4.760000	1.190000	941.00	-0.09	-0.13	2.25	1.50	3.25	3.00	3.00	4.25	1.50	5.25	1.75	2.25	2.50	4.50	8.25	3.25	1.75	1.50	-0.147461	0.126465	0.956543	-3.150000	1.330000	-0.070000	583.00	0.03	-0.15
0.15	5.75	7.00	7.50	8.25	7.75	9.75	2.75	8.25	2.75	2.75	2.25	3.00	8.00	1.75	1.00	1.00	-0.136719	0.094238	0.967285	-2.730000	4.690000	1.330000	958.00	-0.08	-0.13	2.25	1.75	3.25	2.75	3.25	4.50	1.75	5.25	2.00	2.00	2.50	4.50	8.50	3.00	1.50	1.75	-0.148926	0.125488	0.962402	-3.080000	1.260000	-0.000000	592.00	0.03	-0.15
0.16	5.50	7.00	7.50	8.00	7.75	10.00	3.00	8.25	2.75	2.75	2.25	3.00	8.00	1.50	1.00	1.00	-0.141602	0.095215	0.969727	-2.730000	4.690000	1.400000	957.00	-0.08	-0.13	2.50	1.50	3.25	3.00	3.25	4.50	1.75	5.50	2.00	2.25	2.75	4.75	8.25	3.00	1.75	1.50	-0.150879	0.130859	0.957031	-3.150000	1.190000	-0.070000	607.00	0.03	-0.15
0.17	5.75	7.00	7.50	8.25	7.75	10.00	2.75	8.25	2.75	2.75	2.25	3.25	8.00	1.50	0.75	1.00	-0.146484	0.094727	0.963867	-2.660000	4.550000	1.330000	958.00	-0.08	-0.13	2.50	1.50	3.25	3.00	3.00	4.50	1.75	5.25	1.75	2.25	2.75	4.75	8.50	3.00	1.75	1.50	-0.156738	0.132324	0.959473	-3.150000	1.260000	-0.070000	599.00	0.03	-0.15
0.18	5.50	6.75	7.50	8.25	7.75	9.75	3.00	8.25	2.50	2.75	2.00	3.25	8.00	1.50	0.75	1.25	-0.141602	0.094727	0.960449	-2.590000	4.550000	1.260000	949.00	-0.08	-0.13	2.00	1.50	3.25	2.75	3.25	4.50	1.50	5.25	1.75	2.25	2.75	4.75	8.50	3.00	1.75	1.50	-0.152832	0.132324	0.952148	-3.150000	1.330000	-0.070000	589.00	0.03	-0.16
0.19	5.50	7.25	7.50	8.25	7.75	10.00	2.75	8.25	2.50	2.75	2.25	3.00	8.00	1.50	0.75	1.00	-0.144531	0.090332	0.957520	-2.660000	4.690000	1.260000	952.00	-0.09	-0.13	2.25	1.50	3.00	3.00	3.25	4.25	1.75	5.25	1.75	2.25	3.00	5.00	8.50	3.25	1.75	1.50	-0.146484	0.132324	0.959473	-3.080000	1.260000	-0.070000	601.00	0.04	-0.15
0.20	5.50	7.00	7.75	8.25	7.75	10.00	2.75	8.25	2.50	2.75	2.25	3.00	8.00	1.50	0.75	1.25	-0.141113	0.098145	0.965332	-2.800000	4.760000	1.260000	954.00	-0.09	-0.13	2.25	1.50	3.25	3.25	3.25	4.25	1.75	5.25	1.75	2.25	2.50	4.75	8.50	3.25	1.75	1.50	-0.148438	0.125977	0.957031	-3.080000	1.330000	-0.000000	598.00	0.03	-0.15
0.21	5.75	7.00	7.75	8.25	7.75	10.00	3.00	8.25	2.50	2.75	2.25	3.25	8.00	1.50	1.00	1.25	-0.142578	0.102539	0.961914	-2.730000	4.690000	1.260000	966.00	-0.08	-0.13	2.25	1.50	3.00	2.75	3.25	4.50	1.75	5.25	2.00	2.25	2.75	4.75	8.75	3.00	1.75	1.25	-0.147949	0.132324	0.960449	-3.010000	1.120000	0.140000	597.00	0.03	-0.15
0.22	5.75	7.50	7.75	8.25	7.75	10.00	3.00	8.25	3.00	2.75	2.50	3.00	8.00	1.50	1.00	1.25	-0.143555	0.097168	0.960449	-2.520000	4.480000	1.400000	978.00	-0.08	-0.13	2.00	1.50	3.00	3.00	3.00	4.25	1.50	5.25	2.00	2.25	3.00	4.50	8.50	3.00	1.50	1.50	-0.151855	0.131836	0.952637	-3.010000	1.050000	0.070000	583.00	0.04	-0.16
0.23	5.50	7.50	7.75	8.25	7.75	10.00	3.00	8.25	2.50	2.50	2.50	3.00	8.00	1.50	0.75	1.00	-0.142090	0.096191	0.960938	-2.450000	4.270000	1.470000	961.00	-0.09	-0.13	2.25	1.50	3.25	3.00	3.00	4.50	1.50	5.25	1.75	2.00	2.50	4.50	8.75	3.00	1.75	1.50	-0.150879	0.130859	0.958008	-3.010000	1.190000	-0.000000	585.00	0.03	-0.16
0.24	5.75	7.25	7.50	8.25	7.75	10.00	3.00	8.25	2.75	2.75	2.25	3.00	8.25	1.50	0.75	1.00	-0.137695	0.095215	0.962402	-2.520000	4.270000	1.470000	964.00	-0.08	-0.13	2.50	1.75	3.00	3.00	3.25	4.75	1.75	5.50	2.00	2.25	2.50	4.75	8.75	3.25	1.75	1.50	-0.150879	0.129395	0.958984	-3.010000	1.120000	-0.000000	614.00	0.03	-0.15
0.25	5.75	7.25	8.00	8.25	7.75	10.00	3.00	8.25	3.00	2.50	2.25	3.00	8.25	1.50	1.00	1.00	-0.141602	0.090820	0.965332	-2.590000	4.480000	1.400000	974.00	-0.08	-0.13	2.25	1.50	3.00	3.00	3.00	4.25	1.75	5.25	1.75	2.00	2.75	4.50	8.75	3.00	1.75	1.25	-0.150879	0.129395	0.956543	-3.010000	1.050000	-0.000000	585.00	0.03	-0.16
0.26	5.75	7.50	7.75	8.25	8.00	10.00	3.00	8.25	2.75	2.75	2.50	3.25	8.25	1.00	1.00	1.00	-0.140625	0.099609	0.966309	-2.660000	4.690000	1.400000	977.00	-0.09	-0.13	2.25	1.75	3.25	3.00	3.25	4.50	1.50	5.50	2.00	2.00	2.75	4.75	8.75	3.25	1.75	1.50	-0.152832	0.127930	0.961914	-3.080000	1.120000	0.140000	607.00	0.03	-0.16
0.27	5.50	7.25	8.00	8.25	7.75	10.00	2.75	8.25	2.75	2.75	2.25	2.75	8.00	1.25	0.75	1.25	-0.138672	0.097656	0.963867	-2.730000	4.690000	1.330000	957.00	-0.09	-0.13	2.50	1.50	3.00	3.00	3.25	4.00	1.50	5.25	2.00	2.25	2.75	4.75	8.75	3.25	1.75	1.50	-0.150879	0.130859	0.959961	-3.150000	1.120000	-0.000000	597.00	0.03	-0.15
0.28	5.75	7.50	7.75	8.25	7.75	10.00	2.75	8.25	2.75	2.50	2.00	3.00	8.25	1.50	1.00	1.00	-0.145996	0.099121	0.959961	-2.660000	4.550000	1.330000	963.00	-0.09	-0.13	2.75	1.50	3.00	3.00	3.25	4.25	1.50	5.50	2.00	2.25	3.00	4.50	8.75	3.25	1.75	1.50	-0.148926	0.132812	0.951172	-2.940000	1.120000	-0.000000	607.00	0.03	-0.15
0.29	5.75	7.25	7.75	8.25	7.75	10.00	3.00	8.25	2.75	2.75	2.00	3.00	8.00	1.75	1.00	1.00	-0.143555	0.096680	0.964355	-2.660000	4.690000	1.330000	967.00	-0.08	-0.13	2.50	1.50	3.00	3.00	3.25	4.50	1.50	5.50	2.00	2.25	2.75	4.75	8.75	3.00	1.50	1.50	-0.146973	0.131348	0.965820	-2.870000	1.190000	-0.070000	602.00	0.03	-0.16
0.30	5.75	7.25	7.75	8.25	7.75	10.00	3.00	8.25	2.50	2.50	2.25	3.25	8.25	1.50	1.00	1.00	-0.138672	0.096680	0.962402	-2.800000	4.760000	1.400000	967.00	-0.09	-0.13	2.75	1.50	3.00	3.00	3.00	4.25	1.75	5.25	2.00	2.00	2.50	4.75	8.75	3.25	1.75	1.50	-0.152344	0.132812	0.961426	-2.870000	1.120000	0.070000	598.00	0.03	-0.15
0.31	5.75	7.50	7.75	8.25	7.75	10.00	3.00	8.25	2.75	2.75	2.50	3.25	8.25	1.50	0.75	1.25	-0.140625	0.091309	0.954102	-2.800000	4.760000	1.330000	977.00	-0.08	-0.13	2.50	1.50	3.25	3.00	3.25	4.25	1.75	5.50	1.75	2.50	2.75	4.50	8.75	3.25	1.75	1.75	-0.152344	0.134766	0.957031	-2.870000	1.190000	-0.070000	609.00	0.03	-0.15
0.32	5.75	7.25	7.75	8.25	8.00	10.00	3.00	8.25	2.50	2.75	2.00	3.00	8.00	1.50	0.75	1.00	-0.142578	0.095703	0.958008	-2.730000	4.690000	1.400000	962.00	-0.09	-0.13	2.50	1.50	3.00	3.00	3.25	4.50	1.75	5.50	1.75	2.25	2.75	4.75	8.75	3.00	1.50	1.50	-0.146484	0.129883	0.960449	-2.800000	1.330000	-0.140000	602.00	0.03	-0.16
0.33	5.75	7.50	8.00	8.50	8.00	10.25	3.00	8.25	2.75	2.75	2.25	3.00	8.25	1.50	1.00	1.25	-0.138184	0.094238	0.962402	-2.660000	4.760000	1.330000	986.00	-0.09	-0.13	2.00	1.75	3.25	2.75	3.25	4.50	1.75	5.50	2.00	2.00	2.50	4.50	8.75	3.00	1.75	1.25	-0.149902	0.130371	0.958984	-2.870000	1.400000	-0.070000	595.00	0.03	-0.15
0.34	6.00	7.25	8.00	8.50	8.00	10.00	3.00	8.25	3.00	2.75	2.25	3.25	8.25	1.50	0.75	1.00	-0.138184	0.091309	0.964355	-2.660000	4.690000	1.330000	986.00	-0.09	-0.13	2.50	1.25	3.25	3.00	3.00	4.50	1.50	5.50	2.00	2.00	2.50	4.75	8.50	3.00	1.75	1.50	-0.153809	0.130859	0.956543	-2.870000	1.260000	0.070000	594.00	0.03	-0.16
0.35	5.75	7.25	7.75	8.25	7.75	10.00	2.75	8.25	2.25	2.75	2.50	2.50	8.25	1.50	1.00	1.25	-0.144043	0.095215	0.965820	-2.520000	4.620000	1.470000	958.00	-0.09	-0.13	2.50	1.50	3.25	3.00	3.25	4.25	1.75	5.50	2.00	2.00	2.75	4.50	8.75	3.00	2.00	1.75	-0.151855	0.130859	0.956055	-2.800000	1.260000	0.070000	607.00	0.03	-0.15
0.36	5.75	7.25	8.00	8.50	8.00	10.00	3.00	8.25	2.50	2.75	2.00	3.00	8.25	1.50	1.00	1.25	-0.139160	0.095215	0.960938	-2.660000	4.550000	1.470000	974.00	-0.09	-0.13	2.50	1.25	2.75	3.00	3.00	4.50	1.50	5.50	1.75	2.00	2.50	4.50	8.75	3.00	1.75	1.50	-0.149902	0.132812	0.957031	-2.800000	1.260000	-0.070000	584.00	0.03	-0.16
0.37	5.50	7.50	7.75	8.50	8.00	10.00	3.00	8.25	2.50	2.50	2.25	2.75	8.25	1.50	0.75	1.00	-0.137207	0.095703	0.962402	-2.520000	4.340000	1.470000	964.00	-0.09	-0.13	2.25	1.50	3.25	3.00	3.25	4.25	1.50	5.25	1.75	2.25	2.75	4.50	8.75	3.00	1.75	1.25	-0.146484	0.127930	0.951660	-3.010000	1.260000	-0.000000	590.00	0.03	-0.16
0.38	5.75	7.25	8.00	8.50	8.00	9.75	2.75	8.25	2.75	2.50	2.00	3.00	8.00	1.50	0.75	1.25	-0.139160	0.096191	0.960938	-2.800000	4.620000	1.330000	963.00	-0.09	-0.13	2.50	1.75	3.25	3.00	3.00	4.50	1.50	5.50	2.00	2.00	2.50	4.50	8.75	3.25	1.50	1.50	-0.152344	0.127930	0.960938	-3.010000	1.190000	-0.140000	598.00	0.03	-0.16
0.39	5.50	7.50	8.00	8.50	8.00	10.25	3.00	8.25	2.50	2.75	2.25	3.00	8.25	1.50	1.00	1.00	-0.141602	0.093262	0.962402	-2.870000	4.620000	1.400000	978.00	-0.09	-0.13	2.00	1.25	3.00	2.75	3.25	4.25	1.75	5.50	2.00	2.25	2.75	4.50	8.75	3.25	1.75	1.25	-0.148926	0.127930	0.950684	-2.870000	1.120000	-0.070000	592.00	0.04	-0.15
0.40	5.75	7.00	8.00	8.50	8.00	10.00	3.00	8.25	2.50	2.75	2.25	3.00	8.25	1.50	0.75	1.25	-0.139160	0.095703	0.959961	-2.800000	4.480000	1.400000	972.00	-0.09	-0.13	2.25	1.50	3.50	3.00	3.25	4.75	1.50	5.25	1.75	2.25	2.75	4.75	8.75	3.00	1.75	1.00	-0.151367	0.130859	0.961426	-2.940000	1.190000	-0.140000	600.00	0.03	-0.16
0.41	5.75	7.50	8.00	8.50	8.00	10.25	3.00	8.25	2.50	2.75	1.75	3.25	8.00	1.25	1.00	1.00	-0.137695	0.096680	0.963379	-2.800000	4.550000	1.330000	974.00	-0.09	-0.13	2.50	1.50	3.00	3.00	3.25	4.50	1.75	5.25	1.75	2.25	2.75	4.50	8.75	3.25	1.50	1.50	-0.149414	0.130371	0.963867	-2.940000	1.050000	-0.000000	597.00	0.03	-0.15
0.42	5.75	7.50	8.00	8.50	8.00	10.25	3.00	8.25	2.50	2.75	2.25	3.00	8.25	1.50	0.75	1.25	-0.136719	0.098145	0.958008	-2.800000	4.550000	1.470000	980.00	-0.09	-0.13	2.75	1.75	3.25	3.00	3.25	4.00	1.75	5.50	2.00	2.50	2.50	4.50	8.75	3.00	1.75	1.25	-0.152832	0.133789	0.961914	-3.010000	0.980000	-0.000000	607.00	0.03	-0.15
0.43	6.00	7.50	8.00	8.50	8.00	10.25	3.00	8.25	2.50	2.75	2.25	3.00	8.25	1.75	0.75	1.00	-0.140625	0.094727	0.960938	-2.800000	4.480000	1.400000	984.00	-0.09	-0.13	2.50	1.75	3.25	3.25	3.00	4.75	1.75	5.50	1.75	2.00	2.75	4.50	8.75	3.00	1.75	1.50	-0.151855	0.129395	0.959961	-3.010000	1.120000	-0.070000	608.00	0.02	-0.16
0.44	5.75	7.50	8.00	8.50	8.00	10.25	3.00	8.25	2.50	2.75	2.00	3.00	8.25	1.25	1.00	1.00	-0.141113	0.099121	0.961426	-2.730000	4.550000	1.400000	976.00	-0.09	-0.13	2.50	1.75	3.25	3.25	3.25	4.50	1.75	5.50	1.75	2.00	2.50	4.25	8.50	3.00	1.75	1.25	-0.149902	0.135742	0.955078	-3.010000	1.050000	0.070000	598.00	0.02	-0.15
0.45	5.75	7.50	8.00	8.50	8.00	10.25	3.00	8.25	2.75	2.75	2.25	3.00	8.25	1.50	0.75	1.00	-0.140625	0.092285	0.960938	-2.800000	4.550000	1.400000	982.00	-0.09	-0.13	2.00	1.75	3.00	3.00	3.50	4.75	1.75	5.25	2.00	2.00	2.50	4.50	8.75	3.00	1.50	1.25	-0.149414	0.130371	0.954102	-2.940000	1.050000	0.210000	594.00	0.03	-0.15
0.46	6.00	7.50	8.00	8.50	8.00	10.25	3.25	8.25	2.50	2.50	2.00	2.75	8.25	1.50	1.00	1.00	-0.142578	0.095215	0.961914	-2.800000	4.550000	1.330000	980.00	-0.09	-0.13	2.50	1.50	3.25	3.25	3.25	4.50	1.75	5.50	1.75	1.75	2.25	4.50	8.75	3.00	1.50	1.50	-0.151855	0.127441	0.949219	-2.940000	1.120000	-0.000000	594.00	0.02	-0.16
0.47	6.00	7.50	8.00	8.50	8.00	10.00	3.00	8.25	2.75	2.50	2.00	3.00	8.00	1.50	1.00	1.25	-0.138184	0.096680	0.957031	-2.800000	4.550000	1.400000	978.00	-0.09	-0.13	2.50	1.75	3.25	3.25	3.25	4.75	1.75	5.50	1.75	2.00	2.50	4.25	8.75	3.00	1.50	1.25	-0.148926	0.132812	0.956055	-3.010000	1.190000	-0.070000	601.00	0.02	-0.16
0.48	5.75	7.50	8.00	8.50	8.00	10.25	3.00	8.50	2.75	2.50	2.25	3.00	8.25	1.75	0.75	1.00	-0.141602	0.092285	0.956543	-2.730000	4.690000	1.400000	986.00	-0.09	-0.13	2.25	1.50	3.25	3.00	3.25	4.50	1.50	5.50	1.75	2.25	2.50	4.25	8.75	3.25	1.50	1.50	-0.146973	0.127930	0.954590	-3.010000	1.190000	-0.070000	592.00	0.03	-0.16
0.49	6.00	7.50	8.00	8.50	8.00	10.25	3.00	8.25	2.75	2.50	2.00	3.00	8.25	1.50	1.00	1.00	-0.142090	0.097168	0.962891	-2.660000	4.480000	1.470000	982.00	-0.09	-0.13	2.25	1.75	3.50	3.00	3.25	4.50	1.75	5.50	2.00	2.25	2.50	4.25	8.75	3.00	1.50	1.25	-0.144043	0.129395	0.958984	-2.870000	1.120000	-0.000000	601.00	0.02	-0.15
0.50	5.75	7.50	8.00	8.50	8.00	10.25	3.00	8.25	2.75	2.75	2.25	3.00	8.00	1.75	1.00	1.00	-0.142090	0.098633	0.966309	-2.730000	4.620000	1.400000	985.00	-0.09	-0.13	2.25	1.50	3.25	3.00	3.25	4.50	1.75	5.50	2.00	2.25	2.50	4.50	8.75	3.00	1.50	1.50	-0.153809	0.131836	0.954102	-2.940000	0.980000	-0.000000	600.00	0.03	-0.15
0.51	5.75	7.50	8.00	8.50	8.00	10.25	3.25	8.25	2.75	2.75	2.00	3.00	8.25	1.50	1.00	1.25	-0.141113	0.098145	0.964844	-2.660000	4.550000	1.400000	988.00	-0.09	-0.13	3.00	1.75	3.25	3.25	3.25	4.50	1.50	5.50	1.75	2.00	2.50	4.25	9.00	3.00	1.75	1.25	-0.145508	0.133789	0.959473	-3.010000	1.050000	0.070000	605.00	0.02	-0.16
0.52	6.00	7.75	8.25	8.50	8.00	10.25	3.00	8.25	2.50	2.75	2.25	3.00	8.25	1.50	1.00	1.25	-0.139160	0.097168	0.961426	-2.870000	4.830000	1.330000	991.00	-0.09	-0.13	2.25	1.75	3.25	3.25	3.25	4.50	1.50	5.50	2.00	2.25	2.25	4.25	8.75	3.00	1.75	1.50	-0.155762	0.135254	0.959961	-3.010000	0.980000	0.070000	599.00	0.02	-0.16
0.53	6.00	7.50	8.25	8.50	8.00	10.25	3.25	8.25	2.75	2.75	2.25	2.75	8.25	1.75	1.00	1.25	-0.138672	0.094727	0.959961	-2.940000	5.040000	1.260000	996.00	-0.09	-0.12	2.25	1.75	3.25	3.25	3.25	4.25	1.50	5.50	1.75	2.25	2.50	4.25	8.75	3.25	1.50	1.25	-0.148438	0.128906	0.958008	-2.940000	1.050000	-0.000000	593.00	0.02	-0.16
0.54	5.75	7.50	8.00	8.50	8.00	10.50	3.25	8.50	2.50	2.75	2.00	3.00	8.25	1.50	1.00	1.00	-0.139160	0.099609	0.960938	-2.800000	4.760000	1.400000	990.00	-0.09	-0.13	2.50	1.75	3.50	3.00	3.25	4.25	1.75	5.50	1.75	2.00	2.50	4.25	9.00	3.00	1.75	1.50	-0.147461	0.133789	0.953125	-3.010000	1.190000	-0.140000	602.00	0.02	-0.15
0.55	6.50	7.50	8.25	8.50	8.00	10.50	3.00	8.25	2.75	2.50	2.25	2.75	8.25	1.75	0.75	1.25	-0.143555	0.095215	0.958496	-2.660000	4.690000	1.400000	995.00	-0.09	-0.12	2.00	1.25	3.25	3.00	3.25	4.50	1.75	5.50	2.00	2.25	2.50	4.00	9.00	2.75	1.50	1.25	-0.148926	0.133301	0.957520	-3.010000	1.120000	-0.000000	588.00	0.03	-0.15
0.56	6.25	7.50	8.25	8.50	8.00	10.50	3.00	8.25	2.75	2.75	2.25	2.75	8.25	1.50	0.75	1.25	-0.143066	0.089355	0.960938	-2.730000	4.830000	1.400000	992.00	-0.09	-0.13	2.50	1.50	3.25	3.25	3.25	4.50	1.75	5.50	2.00	2.25	2.50	4.50	8.75	3.00	1.50	1.50	-0.151855	0.131836	0.960449	-3.080000	1.260000	-0.140000	606.00	0.02	-0.15
0.57	6.25	7.50	8.00	8.50	8.00	10.50	3.00	8.25	2.75	2.75	2.25	3.00	8.25	1.25	0.75	1.25	-0.134766	0.093262	0.957520	-2.590000	4.690000	1.470000	990.00	-0.09	-0.13	3.00	1.75	3.25	2.75	3.25	4.50	1.50	5.50	1.75	2.00	2.50	4.50	8.75	3.00	1.50	1.25	-0.152344	0.130371	0.958984	-3.080000	1.050000	-0.070000	596.00	0.02	-0.15
0.58	6.25	7.50	8.00	8.50	8.00	10.50	3.00	8.25	2.50	2.50	2.00	3.00	8.25	1.50	0.75	1.25	-0.139160	0.101562	0.960938	-2.590000	4.760000	1.400000	983.00	-0.09	-0.13	2.25	1.50	3.25	3.25	3.25	4.50	1.50	5.25	1.75	2.25	2.25	4.25	8.75	3.25	1.75	1.25	-0.149902	0.132324	0.963379	-3.080000	1.050000	-0.000000	589.00	0.03	-0.15
0.59	6.00	7.50	8.25	8.50	8.25	10.50	3.00	8.25	2.75	2.75	2.25	3.00	8.00	1.50	0.75	1.00	-0.145020	0.098145	0.961914	-2.520000	4.830000	1.540000	991.00	-0.09	-0.13	2.50	1.75	3.25	3.00	3.25	4.50	1.50	5.50	2.00	2.00	2.50	4.25	8.75	3.00	1.75	1.00	-0.151367	0.130859	0.956055	-3.080000	0.910000	0.070000	596.00	0.02	-0.15
0.60	6.25	7.50	8.25	8.50	8.00	10.25	3.00	8.25	2.50	2.50	2.25	3.00	8.25	1.50	0.75	1.00	-0.144531	0.097656	0.963379	-2.240000	4.690000	1.540000	984.00	-0.09	-0.13	2.50	1.50	3.25	3.25	3.25	4.50	1.50	5.50	2.00	2.00	2.25	4.00	8.75	3.00	1.50	1.25	-0.149414	0.131348	0.957520	-3.220000	0.910000	0.070000	589.00	0.02	-0.15
0.61	6.25	7.50	8.25	8.50	8.00	10.50	3.00	8.25	2.50	2.50	2.00	2.75	8.25	1.50	1.00	1.00	-0.137207	0.092773	0.959961	-2.310000	4.690000	1.470000	984.00	-0.09	-0.13	2.25	1.50	3.25	3.00	3.25	4.00	1.50	5.50	1.75	2.00	2.25	4.25	8.50	3.00	1.25	1.00	-0.154297	0.135254	0.960449	-3.220000	0.770000	0.140000	570.00	0.02	-0.16
0.62	6.25	7.50	8.00	8.50	8.00	10.25	3.00	8.50	2.50	2.75	2.00	3.00	8.25	1.50	0.50	1.00	-0.142090	0.098145	0.960449	-2.240000	4.620000	1.610000	983.00	-0.09	-0.13	2.25	1.50	3.50	3.25	3.25	4.50	1.75	5.50	1.50	2.00	2.25	4.00	8.75	3.00	1.50	1.50	-0.152344	0.132324	0.957520	-3.360000	0.700000	-0.000000	588.00	0.02	-0.16
0.63	6.25	7.75	8.00	8.50	8.00	10.75	3.00	8.50	2.75	2.75	2.00	2.75	8.25	1.50	0.75	1.00	-0.140625	0.094238	0.963379	-1.960000	4.550000	1.680000	995.00	-0.09	-0.13	2.50	1.50	3.25	3.50	3.25	4.50	1.75	5.50	1.75	2.00	2.00	4.00	8.75	3.00	1.50	1.25	-0.151855	0.129883	0.963379	-3.570000	0.420000	0.070000	590.00	0.02	-0.15
0.64	6.25	7.50	8.25	8.50	8.00	10.50	3.00	8.25	2.75	2.50	2.00	2.75	8.25	1.50	0.75	1.00	-0.141602	0.094727	0.963379	-1.610000	4.340000	1.890000	985.00	-0.09	-0.13	2.75	1.75	3.25	3.25	3.50	4.50	1.50	5.50	1.75	1.75	2.00	3.25	8.50	2.75	1.50	1.00	-0.154297	0.134766	0.966797	-3.780000	-0.070000	0.280000	573.00	0.01	-0.15
0.65	6.25	7.50	8.25	8.50	8.25	10.75	3.00	8.50	2.75	2.50	2.25	2.75	8.25	1.75	1.00	1.25	-0.140137	0.093750	0.971191	-1.260000	4.410000	1.960000	1005.00	-0.09	-0.13	2.50	1.75	3.50	3.50	3.50	4.50	1.50	5.50	1.75	1.75	2.25	3.50	8.50	2.75	1.25	1.00	-0.161133	0.131348	0.962891	-3.990000	-0.420000	0.350000	579.00	0.00	-0.15
0.66	6.25	7.75	8.50	8.75	8.25	10.75	3.00	8.50	2.25	2.50	2.25	2.75	8.25	1.50	0.75	1.00	-0.142578	0.094727	0.968262	-0.490000	3.850000	2.170000	999.00	-0.10	-0.13	2.75	1.75	4.00	3.75	3.50	4.25	1.50	5.25	1.50	1.75	1.75	3.50	8.25	2.75	1.25	0.75	-0.161133	0.134766	0.968262	-4.480000	-0.910000	0.560000	571.00	-0.01	-0.15
0.67	6.50	7.50	8.25	9.00	8.25	10.75	3.00	8.50	2.50	2.25	2.00	2.75	8.25	1.25	1.00	0.75	-0.147949	0.093750	0.975586	-0.210000	3.500000	2.310000	997.00	-0.10	-0.13	2.75	2.00	3.75	3.75	3.50	4.50	1.50	5.25	1.75	1.50	1.50	2.50	8.00	2.75	1.00	0.75	-0.161133	0.134766	0.970215	-4.620000	-1.890000	0.700000	555.00	-0.02	-0.15
0.68	6.75	8.00	8.50	9.00	8.25	11.00	3.00	8.50	2.25	2.25	1.75	2.50	8.00	1.25	0.75	0.75	-0.153320	0.091797	0.984375	0.910000	2.240000	2.520000	996.00	-0.11	-0.13	3.75	2.25	4.00	4.00	3.50	4.50	1.50	5.00	1.25	1.50	1.50	2.50	7.50	2.25	1.00	0.25	-0.239746	0.092773	0.972656	-4.550000	-3.290000	0.770000	551.00	-0.04	-0.14
0.69	7.00	8.25	8.75	9.25	8.25	11.25	2.75	8.50	2.00	2.00	1.75	2.25	7.75	1.25	0.75	0.75	-0.163086	0.099609	0.994629	2.380000	0.420000	3.080000	995.00	-0.11	-0.13	3.75	2.25	4.25	4.50	3.50	4.75	1.50	5.00	1.25	1.50	1.00	2.00	7.25	2.25	0.75	0.25	-0.159668	0.130371	0.957031	-3.430000	-4.970000	0.910000	546.00	-0.05	-0.14
0.70	7.25	8.50	8.75	9.50	8.50	11.25	2.75	8.25	2.00	1.50	1.25	2.00	7.50	1.00	0.75	0.50	-0.173340	0.090332	0.993652	4.830000	-2.380000	3.640000	981.00	-0.12	-0.13	4.00	2.75	4.75	5.00	3.75	4.75	1.50	4.75	1.25	1.25	0.75	1.75	6.00	2.00	0.75	0.00	-0.169434	0.125977	0.976074	0.490000	-8.470000	1.820000	541.00	-0.08	-0.13
0.71	8.25	8.75	9.25	10.00	8.50	11.75	2.50	8.25	2.00	1.75	1.00	1.50	6.75	0.75	0.25	0.00	-0.133789	0.115234	1.011230	8.470000	-6.370000	4.130000	985.00	-0.14	-0.12	4.75	3.00	5.00	5.00	3.75	4.75	1.50	4.25	1.00	1.00	0.75	1.25	5.75	2.00	0.75	0.00	-0.141602	0.134766	0.982422	3.990000	-9.660000	1.680000	532.00	-0.09	-0.12
0.72	8.75	9.75	9.50	10.25	8.50	12.00	2.50	8.25	1.25	1.25	0.75	1.25	6.25	0.50	0.50	0.25	-0.149414	0.131836	1.042969	13.090000	-10.500000	4.830000	985.00	-0.15	-0.13	5.00	3.50	5.25	5.25	4.00	5.00	1.50	4.00	0.75	0.75	0.25	1.00	5.00	1.50	0.75	0.00	-0.157227	0.128906	0.970703	8.260000	-10.990000	2.240000	521.00	-0.12	-0.12
0.73	9.50	10.00	9.75	10.75	8.25	12.25	2.25	8.00	1.00	1.00	0.50	1.00	5.50	0.25	0.25	0.00	-0.148438	0.131348	0.997559	21.420000	-16.940001	4.900000	971.00	-0.17	-0.13	5.25	4.00	5.25	5.50	3.75	5.00	1.50	3.75	0.50	0.75	0.50	0.50	3.50	1.75	0.50	0.00	-0.152832	0.129883	0.975586	10.710000	-11.130000	2.450000	503.00	-0.14	-0.11
0.74	7.50	9.50	8.75	9.50	7.50	11.00	1.75	7.50	0.00	0.00	0.00	0.00	2.50	0.00	0.00	0.00	-0.111816	0.011719	1.001953	29.540001	-22.469999	6.020000	799.00	-0.20	-0.13	5.50	4.50	5.75	6.00	4.50	5.00	1.50	3.25	0.50	0.50	0.25	0.50	3.25	1.50	0.50	0.00	-0.157227	0.105469	0.969727	15.680000	-13.720000	2.800000	514.00	-0.15	-0.10
0.75	9.25	10.00	9.00	9.75	7.50	11.25	1.75	7.25	0.00	0.00	0.00	0.00	1.50	0.00	0.00	0.00	-0.134277	0.138672	0.994629	39.410000	-22.960001	7.000000	820.00	-0.21	-0.12	6.00	5.00	5.50	6.25	4.25	5.00	1.25	2.75	0.50	0.50	0.25	0.25	2.25	1.50	0.50	0.00	-0.134277	0.104492	0.989746	19.040001	-14.490000	1.260000	497.00	-0.17	-0.09
0.76	10.25	10.50	8.75	9.50	7.50	11.00	1.75	7.00	0.00	0.00	0.00	0.00	0.75	0.00	0.00	0.00	-0.108398	0.147461	1.015625	39.130001	-26.809999	7.140000	816.00	-0.22	-0.11	6.25	5.75	6.75	6.75	4.25	5.00	1.25	2.50	1.00	0.50	0.00	0.00	2.25	1.25	0.00	0.00	-0.130859	0.124023	0.981934	22.540001	-15.750000	0.420000	517.00	-0.19	-0.08
0.77	10.75	11.75	9.75	10.75	7.50	11.50	1.50	6.50	0.00	0.00	0.00	0.00	0.00	0.00	0.00	0.00	-0.103027	0.128906	0.968262	42.630001	-31.780001	7.280000	848.00	-0.23	-0.11	7.50	6.25	7.25	7.25	4.25	5.00	1.25	2.25	0.25	0.25	0.00	0.25	2.00	1.25	0.25	0.00	-0.099121	0.101074	1.000977	24.080000	-16.799999	-0.560000	534.00	-0.21	-0.08
0.78	11.25	11.75	9.00	10.50	7.25	11.50	1.50	6.25	0.00	0.00	0.00	0.00	0.00	0.00	0.00	0.00	-0.073242	0.140137	0.958984	42.630001	-29.540001	7.350000	834.00	-0.24	-0.11	7.75	6.75	7.50	7.75	4.00	5.00	1.25	2.00	0.25	0.25	0.00	0.00	1.00	1.00	0.25	0.00	-0.141113	0.140625	0.968262	26.040001	-17.850000	-1.610000	529.00	-0.23	-0.07
0.79	13.00	12.25	9.50	11.00	7.75	12.50	1.75	6.75	0.50	0.50	0.25	0.75	1.25	0.00	0.00	0.00	-0.093750	0.185059	0.977539	41.650002	-30.309999	8.120000	937.00	-0.22	-0.11	8.75	7.25	7.50	8.00	4.00	4.75	1.25	1.50	0.50	0.00	0.00	0.00	0.75	0.50	0.25	0.00	-0.123535	0.141113	0.975098	26.530001	-18.690001	-3.080000	531.00	-0.24	-0.06
0.80	12.00	12.50	9.00	11.75	7.75	12.50	1.50	6.25	0.25	0.00	0.00	0.00	0.00	0.00	0.00	0.00	-0.094238	0.170898	1.006348	38.220001	-34.369999	7.350000	886.00	-0.24	-0.11	9.75	8.00	7.75	8.00	3.75	4.50	1.25	1.50	0.25	0.00	0.00	0.00	0.75	0.75	0.00	0.00	-0.135254	0.194336	1.001465	26.110001	-22.330000	-2.730000	543.00	-0.25	-0.06
0.81	12.75	13.25	9.25	10.25	7.00	11.50	1.25	5.25	0.00	0.00	0.00	0.00	0.00	0.00	0.00	0.00	-0.070801	0.162598	0.955078	36.400002	-36.189999	7.000000	842.00	-0.25	-0.10	10.25	8.25	8.25	8.25	3.75	4.50	1.25	1.00	0.25	0.00	0.00	0.00	0.75	1.00	0.00	0.00	-0.135742	0.156738	0.946289	26.040001	-23.940001	-1.960000	554.00	-0.26	-0.05
0.82	14.50	14.25	10.25	11.00	6.75	11.00	1.25	5.00	0.00	0.00	0.00	0.00	0.00	0.00	0.00	0.00	-0.064941	0.140625	0.965820	30.590000	-35.700001	6.790000	880.00	-0.26	-0.09	11.50	8.75	8.25	8.25	3.50	4.00	1.00	1.00	0.25	0.00	0.00	0.00	0.00	1.00	0.25	0.00	-0.138184	0.213867	1.000000	20.370001	-24.780001	-5.180000	556.00	-0.27	-0.04
0.83	11.50	13.25	9.50	10.00	6.50	10.50	1.25	4.25	0.00	0.00	0.00	0.00	0.00	0.00	0.00	0.00	-0.054199	0.161621	0.935059	26.110001	-34.650002	5.460000	794.00	-0.25	-0.10	12.00	9.25	8.25	8.50	3.50	4.00	1.25	0.75	0.00	0.00	0.00	0.00	0.25	0.75	0.25	0.00	-0.128906	0.191895	0.966797	18.480000	-27.370001	-4.550000	566.00	-0.28	-0.04
0.84	14.50	15.75	10.75	10.50	6.50	11.50	1.50	5.00	0.50	0.00	0.00	0.00	0.00	0.00	0.00	0.00	-0.036621	0.184082	0.923340	22.960001	-32.340000	4.480000	910.00	-0.25	-0.09	13.25	9.25	8.50	8.50	3.25	4.00	1.00	0.50	0.25	0.00	0.00	0.00	0.25	0.75	0.00	0.00	-0.112793	0.182129	0.946777	15.540000	-28.350000	-3.570000	573.00	-0.28	-0.04
0.85	15.25	14.25	10.25	10.50	6.25	10.75	1.25	3.50	0.00	0.00	0.00	0.00	0.00	0.00	0.00	0.00	-0.035156	0.192383	0.917969	19.460001	-29.260000	3.990000	849.00	-0.27	-0.08	13.25	10.00	8.50	8.75	3.25	3.50	1.00	0.50	0.25	0.00	0.00	0.00	0.00	0.75	0.25	0.00	-0.098145	0.162598	0.933105	13.650000	-26.670000	-3.850000	578.00	-0.29	-0.04
0.86	15.25	14.00	9.50	10.50	6.25	10.75	1.25	3.25	0.00	0.00	0.00	0.00	0.50	0.00	0.00	0.00	-0.021973	0.182617	0.894043	15.260000	-25.690001	3.430000	838.00	-0.27	-0.09	14.00	10.50	8.50	9.00	3.00	3.25	1.00	0.50	0.25	0.00	0.00	0.00	0.00	0.75	0.00	0.00	-0.087891	0.168457	0.934570	12.250000	-24.150000	-4.970000	586.00	-0.29	-0.04
0.87	16.25	14.50	10.50	11.25	6.00	10.50	1.25	3.50	0.50	0.25	0.00	0.00	0.00	0.00	0.00	0.00	-0.020508	0.193848	0.907715	11.340000	-21.700001	2.800000	879.00	-0.26	-0.08	14.75	10.75	8.75	9.00	3.25	3.25	1.00	0.50	0.25	0.00	0.00	0.00	0.00	0.50	0.00	0.00	-0.069824	0.288574	0.964355	8.260000	-21.770000	-5.670000	600.00	-0.30	-0.03
0.88	17.25	16.50	11.25	12.00	7.00	11.25	1.25	3.50	0.75	0.00	0.00	0.50	0.50	0.00	0.00	0.00	-0.029297	0.191406	0.911621	8.050000	-18.480000	2.660000	960.00	-0.26	-0.08	14.75	11.25	9.00	8.75	3.25	3.00	1.00	0.25	0.25	0.00	0.00	0.00	0.00	0.75	0.00	0.00	-0.085449	0.269531	0.931641	6.510000	-21.139999	-2.450000	601.00	-0.30	-0.03
0.89	18.25	16.50	11.25	11.75	6.75	11.00	1.50	3.25	0.50	0.00	0.00	0.75	0.50	0.00	0.00	0.00	-0.011230	0.177734	0.881836	1.190000	-9.800000	2.310000	962.00	-0.26	-0.08	16.00	11.75	9.00	9.00	3.00	3.00	1.00	0.25	0.50	0.00	0.00	0.00	0.00	0.50	0.00	0.00	-0.071777	0.211914	0.893066	5.180000	-17.990000	0.980000	621.00	-0.30	-0.03
0.90	14.00	14.75	10.00	10.75	6.25	10.25	1.25	2.50	0.25	0.00	0.00	0.25	0.75	0.00	0.00	0.00	-0.004883	0.200684	0.862793	-1.960000	-3.850000	0.140000	831.00	-0.26	-0.08	15.75	12.00	9.00	9.00	3.00	3.25	1.00	0.00	0.00	0.00	0.00	0.00	0.00	0.25	0.00	0.00	-0.067383	0.175293	0.921875	3.990000	-14.700000	1.680000	610.00	-0.31	-0.03
0.91	17.75	16.25	10.75	11.75	6.50	11.00	1.25	2.75	0.50	0.00	0.00	0.25	0.50	0.00	0.00	0.00	-0.007324	0.193848	0.874023	-4.900000	2.940000	0.140000	927.00	-0.27	-0.08	16.00	12.50	9.25	9.25	3.00	3.00	1.00	0.25	0.25	0.00	0.00	0.00	0.50	0.50	0.00	0.00	-0.074707	0.197754	0.916992	2.800000	-11.690000	0.770000	636.00	-0.30	-0.03
0.92	17.50	16.50	11.25	11.75	6.75	10.75	1.25	3.00	0.25	0.25	0.00	0.50	0.25	0.00	0.25	0.00	0.002930	0.187012	0.843262	-8.190000	10.220000	-0.140000	939.00	-0.27	-0.08	16.25	12.75	9.25	9.25	3.00	3.00	1.00	0.25	0.25	0.00	0.00	0.00	0.00	0.25	0.00	0.00	-0.069824	0.210449	0.906250	1.750000	-8.960000	0.700000	634.00	-0.31	-0.03
0.93	17.75	16.50	11.00	12.00	6.75	10.75	1.25	2.75	0.25	0.00	0.00	0.50	0.25	0.00	0.00	0.00	-0.015625	0.192383	0.905273	-10.990000	18.200001	-0.910000	932.00	-0.27	-0.08	16.25	13.00	9.25	9.50	3.00	3.00	1.00	0.25	0.25	0.00	0.00	0.00	0.00	0.50	0.00	0.00	-0.057617	0.200684	0.895020	0.420000	-4.970000	0.910000	642.00	-0.31	-0.03
0.94	17.50	16.50	11.25	11.75	6.75	10.75	1.25	3.00	0.50	0.00	0.00	0.25	0.50	0.00	0.00	0.00	-0.037109	0.195801	0.961914	-12.810000	21.559999	-1.330000	937.00	-0.27	-0.08	16.75	13.25	9.25	9.50	3.00	3.25	1.00	0.25	0.00	0.00	0.00	0.00	0.00	0.50	0.00	0.00	-0.075684	0.182129	0.932617	-1.330000	1.890000	-0.210000	650.00	-0.31	-0.03
0.95	17.25	16.25	11.00	11.75	6.50	10.50	1.25	3.25	1.25	0.75	0.00	0.50	0.50	0.00	0.00	0.00	-0.043457	0.198242	0.956055	-14.630000	22.750000	-1.050000	948.00	-0.26	-0.07	17.25	13.50	9.50	9.75	3.00	3.00	1.00	0.25	0.00	0.00	0.00	0.00	0.00	0.50	0.00	0.00	-0.071289	0.187500	0.916992	-2.030000	4.410000	-1.190000	661.00	-0.31	-0.03
0.96	16.75	16.00	11.00	11.50	6.75	10.50	1.25	2.75	0.50	0.00	0.00	0.00	0.75	0.00	0.00	0.00	-0.036133	0.197754	0.928223	-16.379999	24.150000	-0.770000	909.00	-0.27	-0.08	17.75	13.25	9.75	9.75	3.00	3.25	1.00	0.25	0.25	0.00	0.00	0.00	0.00	0.50	0.25	0.00	-0.067383	0.192871	0.893066	-2.660000	8.400000	-2.030000	677.00	-0.31	-0.03
0.97	16.50	15.75	10.75	11.50	6.50	10.25	1.25	2.75	0.50	0.00	0.00	0.25	0.25	0.00	0.00	0.00	-0.030762	0.183594	0.927734	-18.129999	27.790001	-0.350000	893.00	-0.27	-0.07	17.50	13.75	9.50	10.00	3.00	3.50	1.00	0.25	0.25	0.00	0.00	0.00	0.00	0.25	0.00	0.00	-0.066406	0.194336	0.893066	-3.920000	13.510000	-2.520000	676.00	-0.31	-0.03
0.98	13.75	15.25	10.50	11.25	6.50	10.25	1.25	2.50	1.00	0.00	0.00	0.00	0.50	0.00	0.00	0.00	-0.041992	0.172363	0.939941	-19.600000	31.290001	-0.350000	853.00	-0.26	-0.08	17.75	13.75	9.75	10.25	3.25	3.75	1.00	0.50	0.25	0.00	0.00	0.00	0.00	0.25	0.00	0.00	-0.089844	0.210449	0.953613	-8.330000	17.219999	-2.940000	695.00	-0.31	-0.04
0.99	15.75	15.00	10.50	11.00	6.50	10.00	1.25	2.25	0.00	0.00	0.00	0.00	0.25	0.00	0.00	0.00	-0.027344	0.171875	0.858887	-21.000000	35.490002	-0.560000	847.00	-0.28	-0.07	17.75	14.25	10.00	10.75	3.25	4.00	1.00	0.25	0.25	0.00	0.00	0.00	0.00	0.50	0.00	0.00	-0.095703	0.199707	0.947266	-10.360000	18.129999	-2.730000	711.00	-0.31	-0.04
1.00	14.00	13.75	9.75	10.50	6.25	9.75	1.25	2.50	0.00	0.00	0.00	0.00	0.00	0.00	0.00	0.00	0.007812	0.162598	0.762695	-23.870001	45.009998	-0.840000	795.00	-0.27	-0.08	18.00	14.25	10.50	11.00	3.25	4.25	1.00	0.50	0.25	0.00	0.00	0.00	0.00	0.50	0.00	0.00	-0.085938	0.186523	0.926758	-11.060000	19.389999	-2.660000	730.00	-0.30	-0.04
1.01	13.50	13.25	9.50	10.50	6.25	10.00	1.25	2.50	0.00	0.00	0.00	0.00	0.00	0.00	0.00	0.00	0.004883	0.144043	0.725098	-29.190001	61.950001	-1.680000	784.00	-0.27	-0.08	17.75	14.25	10.25	11.00	3.50	4.50	1.00	0.50	0.00	0.00	0.00	0.00	0.00	0.50	0.00	0.00	-0.089355	0.188965	0.914062	-12.110000	22.260000	-2.940000	726.00	-0.31	-0.04
1.02	12.75	12.50	9.50	10.25	6.50	10.25	1.50	3.50	0.00	0.00	0.00	0.00	0.00	0.00	0.00	0.00	-0.022949	0.137207	0.852051	-45.709999	84.279999	-3.990000	792.00	-0.26	-0.09	17.75	14.00	10.50	11.25	3.75	4.75	1.25	0.75	0.25	0.00	0.00	0.00	0.00	0.50	0.00	0.00	-0.099609	0.179199	0.949219	-16.660000	23.870001	-3.290000	748.00	-0.30	-0.04
1.03	11.75	11.50	9.00	9.75	6.75	10.50	1.50	4.75	0.00	0.00	0.00	0.00	0.25	0.00	0.00	0.00	-0.024414	0.230957	0.737305	-72.029999	106.050003	-7.490000	788.00	-0.24	-0.10	18.00	14.50	10.75	11.50	4.00	5.00	1.25	0.75	0.00	0.00	0.00	0.00	0.00	0.75	0.00	0.00	-0.097168	0.175781	0.918457	-21.559999	24.990000	-3.920000	766.00	-0.30	-0.04
1.04	10.00	10.25	8.75	9.50	6.75	10.25	1.75	5.75	0.00	0.00	0.00	0.00	1.75	0.00	0.00	0.00	-0.157227	0.084473	1.152344	-90.790001	72.800003	-9.520000	781.00	-0.22	-0.11	17.75	14.25	11.00	11.25	4.50	5.25	1.25	1.00	0.50	0.00	0.00	0.00	0.25	0.50	0.00	0.00	-0.116699	0.197754	0.966797	-30.030001	25.059999	-4.340000	781.00	-0.29	-0.04
1.05	8.75	9.25	8.25	8.75	6.50	10.00	1.75	6.25	0.00	0.50	0.00	0.00	2.50	0.00	0.00	0.00	-0.159668	0.103027	1.231934	-55.790001	51.029999	-9.380000	757.00	-0.21	-0.12	17.75	14.25	11.00	11.75	4.75	5.75	1.25	1.25	0.25	0.25	0.00	0.00	0.25	0.75	0.00	0.00	-0.127930	0.174316	0.970215	-31.850000	23.170000	-3.850000	802.00	-0.28	-0.05
1.06	7.50	8.00	7.50	8.25	6.25	9.50	2.00	6.75	0.00	0.75	0.25	0.50	3.75	0.00	0.00	0.00	-0.176270	0.116211	1.146973	-25.760000	44.310001	-8.890000	742.00	-0.18	-0.13	17.50	14.00	11.00	11.75	5.25	6.25	1.25	1.75	0.25	0.25	0.00	0.00	0.25	0.75	0.25	0.00	-0.114746	0.176270	0.980957	-38.150002	22.049999	-3.710000	820.00	-0.28	-0.05
1.07	6.25	7.00	6.50	7.50	5.25	8.75	2.00	6.75	0.50	1.00	0.75	1.00	5.25	0.00	0.00	0.00	0.023926	0.115723	1.133789	-8.190000	43.959999	-9.380000	711.00	-0.15	-0.14	17.50	13.75	11.25	12.25	5.75	6.50	1.25	2.00	0.25	0.50	0.00	0.25	0.75	0.75	0.25	0.00	-0.138184	0.169922	0.998535	-40.670002	16.379999	-2.940000	850.00	-0.27	-0.06
1.08	5.25	6.00	5.75	6.25	4.25	8.00	1.75	6.50	0.25	1.75	0.75	1.75	5.50	0.00	0.00	0.50	-0.361816	0.464844	1.014160	3.430000	48.230000	-12.390000	655.00	-0.13	-0.16	17.25	13.75	11.25	12.00	6.00	7.25	1.25	2.25	0.50	0.50	0.25	0.00	1.25	1.00	0.25	0.00	-0.112793	0.156250	0.961914	-40.180000	13.090000	-2.380000	871.00	-0.26	-0.06
1.09	3.00	5.25	4.75	5.25	2.50	7.00	1.75	6.25	0.75	2.00	1.50	2.75	6.75	0.25	0.25	1.00	-0.189941	0.235352	1.012695	11.830000	53.900002	-14.700000	611.00	-0.08	-0.17	17.00	14.00	11.50	12.25	6.50	7.50	1.50	3.00	1.00	0.75	0.25	0.25	1.00	1.00	0.25	0.00	-0.131836	0.140625	0.983398	-36.330002	11.130000	-2.030000	913.00	-0.25	-0.06
1.10	2.00	4.75	3.50	2.75	1.75	5.75	1.25	3.25	0.75	1.75	1.50	3.00	6.75	0.00	0.50	1.50	0.043945	0.143555	1.189453	36.470001	73.290001	-22.820000	471.00	-0.06	-0.18	17.00	13.75	11.75	12.50	6.75	8.25	1.50	3.50	0.75	0.75	0.00	0.25	2.25	1.25	0.50	0.00	-0.141113	0.137695	0.992188	-30.730000	8.050000	-1.750000	947.00	-0.24	-0.07
1.11	2.00	2.50	2.25	2.50	1.25	4.75	1.00	3.25	0.50	2.00	2.00	3.00	7.25	0.75	0.75	2.50	-0.138672	-0.004395	1.689453	80.709999	134.820007	-26.320000	433.00	-0.01	-0.19	16.75	13.50	11.75	12.75	7.25	8.50	1.50	3.75	0.75	1.00	0.25	0.25	2.50	1.00	0.75	0.00	-0.143555	0.157227	0.980469	-25.340000	5.740000	-1.050000	966.00	-0.23	-0.07
1.12	0.25	3.25	3.00	2.50	1.00	3.75	1.00	1.75	0.00	1.50	2.75	3.50	6.50	1.00	1.00	2.50	-0.199219	0.493652	1.446777	114.309998	231.770004	-31.990000	390.00	0.01	-0.19	16.50	14.25	12.25	12.50	7.75	8.75	1.75	4.25	0.75	1.75	1.00	0.50	3.00	1.75	1.00	0.00	-0.146973	0.138184	0.978027	-18.969999	3.080000	-0.350000	1030.00	-0.21	-0.08
1.13	1.00	2.75	2.75	2.00	0.75	3.00	1.00	2.50	0.75	1.50	2.75	3.25	5.25	1.25	1.25	3.00	-0.375977	0.491211	1.474609	109.410004	299.390015	-34.860001	389.00	0.02	-0.17	17.50	15.25	13.00	14.25	8.00	9.25	1.75	5.50	2.25	2.25	1.25	1.50	2.75	1.25	1.25	0.75	-0.135254	0.140137	0.973633	-14.700000	0.840000	0.630000	1153.00	-0.19	-0.08
1.14	1.00	2.75	2.50	1.50	0.50	2.75	0.75	1.00	0.00	1.25	2.00	2.75	4.25	1.00	1.50	3.00	-0.159180	0.165527	1.624023	99.050003	341.600006	-44.799999	308.00	0.02	-0.17	21.75	18.25	13.25	12.50	8.75	9.50	2.00	5.75	1.00	1.25	0.75	0.75	3.25	1.75	1.50	0.00	-0.130859	0.141602	0.972168	-12.880000	-0.420000	1.050000	1198.00	-0.22	-0.07
1.15	1.00	2.75	2.50	1.00	0.50	2.25	0.75	0.75	0.00	0.75	1.75	2.25	2.25	0.75	1.00	2.00	-0.348633	0.163086	1.707031	71.260002	371.000000	-46.900002	245.00	-0.02	-0.14	21.25	18.25	14.75	15.75	10.00	11.50	2.25	7.00	2.25	2.50	1.50	1.75	5.00	2.50	2.25	1.00	-0.129883	0.130859	0.985840	-11.410000	-1.050000	1.190000	1403.00	-0.18	-0.08
1.16	0.25	2.75	2.25	1.00	0.50	1.75	0.75	0.75	0.00	0.50	1.25	1.25	0.00	0.25	0.75	1.00	-0.312012	0.285156	2.271484	57.189999	388.010010	-48.580002	173.00	-0.07	-0.11	16.25	19.00	13.50	17.00	10.50	12.25	2.50	7.25	2.75	2.75	1.75	2.25	6.00	2.75	2.25	0.75	-0.132324	0.133301	0.984863	-8.610000	-2.030000	1.190000	1406.00	-0.17	-0.10
1.17	1.00	2.25	1.50	0.00	0.50	1.50	0.75	0.00	0.00	0.50	0.75	1.00	0.00	0.00	0.00	0.00	-0.348145	0.633301	1.597656	64.400002	391.720001	-46.619999	114.00	-0.14	-0.06	23.00	19.50	15.50	17.25	11.00	12.50	2.50	7.50	2.50	2.75	2.00	2.25	6.25	2.75	2.25	1.00	-0.128418	0.140625	0.968262	-6.930000	-1.540000	1.400000	1531.00	-0.18	-0.09
1.18	0.50	2.50	1.75	0.25	0.50	1.75	0.75	0.00	0.00	0.25	0.50	0.50	0.00	0.00	0.00	0.00	-0.583008	0.622070	2.582031	83.580002	368.200012	-51.029999	109.00	-0.18	-0.06	22.50	19.25	15.50	17.00	11.25	12.75	2.75	7.50	2.50	3.00	2.25	2.25	6.00	2.50	2.50	1.00	-0.125000	0.138184	0.968262	-7.070000	-0.070000	0.910000	1534.00	-0.18	-0.08
1.19	0.50	2.00	2.00	0.25	0.25	1.50	0.75	0.00	0.00	0.50	0.25	0.00	0.00	0.00	0.00	0.00	-0.016113	0.741211	1.212891	116.830002	297.570007	-66.080002	95.00	-0.19	-0.03	15.50	14.75	12.75	13.75	10.25	10.75	2.75	7.00	1.50	2.00	1.50	1.50	5.50	2.25	1.25	0.50	-0.120117	0.133789	0.962891	-7.070000	0.630000	0.420000	1226.00	-0.17	-0.09
1.20	0.00	2.75	3.50	2.00	1.25	3.25	1.00	1.00	0.50	1.25	1.00	1.00	0.25	0.25	0.50	0.00	1.276367	0.395996	1.086426	133.839996	244.229996	-81.550003	236.00	-0.10	-0.09	20.75	18.50	15.50	17.50	12.00	13.25	3.00	8.00	2.75	3.25	2.25	2.75	6.75	3.00	2.75	1.25	-0.117188	0.135742	0.969727	-7.070000	1.120000	0.210000	1568.00	-0.16	-0.09
1.21	1.25	3.75	3.00	2.00	1.25	3.25	1.25	1.00	0.50	1.00	0.75	0.75	0.00	0.25	0.25	0.25	2.095703	0.047852	2.658691	69.860001	131.250000	-96.599998	246.00	-0.14	-0.08	22.25	19.00	15.50	15.75	12.00	13.25	3.00	8.00	3.00	3.50	2.25	1.50	6.25	1.50	1.25	0.25	-0.119629	0.124512	0.966797	-6.720000	1.680000	0.210000	1520.00	-0.18	-0.08
1.22	1.00	1.75	2.00	0.00	0.50	1.00	0.75	0.00	0.00	0.00	0.00	0.00	0.00	0.00	0.00	0.00	1.430176	0.310547	1.932129	5.880000	6.370000	-87.989998	84.00	-0.24	0.01	16.25	14.75	11.50	13.75	11.75	11.50	2.75	7.50	1.50	2.25	1.50	2.00	6.00	2.00	1.25	0.25	-0.116211	0.122559	0.969727	-5.880000	2.450000	-0.070000	1264.00	-0.17	-0.10
1.23	0.75	1.50	1.75	0.25	0.50	1.25	1.00	0.00	0.00	0.00	0.00	0.00	0.00	0.00	0.00	0.00	2.192871	0.173828	1.561523	-44.310001	-94.430000	-75.180000	85.00	-0.21	-0.00	15.75	16.75	14.25	16.00	12.25	13.25	3.25	8.00	3.00	3.50	2.50	3.00	8.25	3.25	2.50	1.50	-0.114258	0.132324	0.972656	-5.110000	2.800000	-0.140000	1495.00	-0.14	-0.10
1.24	0.00	2.00	1.75	0.00	0.50	1.25	1.00	0.00	0.00	0.00	0.00	0.00	0.00	0.00	0.00	0.00	1.638672	0.311035	0.675293	-53.480000	-145.250000	-87.849998	79.00	-0.20	-0.01	21.00	18.75	15.50	17.25	12.75	13.75	3.25	8.25	3.00	4.00	3.00	3.50	8.50	3.25	2.50	1.50	-0.115234	0.122070	0.976562	-4.340000	3.570000	-0.140000	1641.00	-0.15	-0.09
1.25	0.50	2.25	2.00	0.00	0.50	1.25	1.00	0.00	0.00	0.00	0.00	0.00	0.00	0.00	0.00	0.00	1.471680	0.338867	0.745605	-39.619999	-163.940002	-105.769997	90.00	-0.22	-0.01	20.75	18.25	15.25	17.50	13.00	13.50	3.50	8.50	3.25	3.75	3.00	3.50	8.75	3.50	2.75	1.50	-0.122559	0.125000	0.964844	-3.640000	4.060000	-0.210000	1649.00	-0.15	-0.09
1.26	0.75	1.75	1.75	0.00	0.50	1.50	1.00	0.00	0.00	0.00	0.00	0.00	0.00	0.00	0.00	0.00	1.477539	0.421875	0.857422	-16.240000	-183.190002	-115.080002	88.00	-0.21	-0.01	20.50	18.00	15.00	17.00	13.00	13.75	3.50	8.50	3.25	4.25	3.00	3.75	9.00	3.50	3.00	1.75	-0.125000	0.127930	0.957520	-3.570000	4.410000	-0.490000	1653.00	-0.14	-0.09
1.27	0.25	2.00	2.00	0.25	0.50	1.25	1.00	0.00	0.00	0.00	0.00	0.00	0.00	0.00	0.00	0.00	1.295410	0.428711	1.012695	-3.570000	-210.559998	-112.840004	88.00	-0.21	-0.01	20.00	17.50	14.75	16.75	13.25	13.75	3.50	8.50	3.50	4.50	3.25	4.00	9.00	3.75	3.25	2.00	-0.132324	0.125488	0.963379	-3.500000	4.200000	-0.420000	1658.00	-0.13	-0.09
1.28	0.75	2.00	1.75	0.00	0.50	1.00	1.00	0.00	0.00	0.00	0.00	0.00	0.00	0.00	0.00	0.00	1.052734	0.514648	1.035645	-0.280000	-238.279999	-99.750000	84.00	-0.22	0.01	19.50	17.25	14.75	16.75	13.25	14.00	3.50	8.50	3.50	4.50	3.50	4.25	9.50	3.75	3.00	2.25	-0.123535	0.123047	0.959961	-3.150000	4.130000	-0.420000	1662.00	-0.13	-0.09
1.29	0.50	1.75	1.50	0.00	0.50	1.00	1.00	0.00	0.00	0.00	0.00	0.00	0.00	0.00	0.00	0.00	0.786621	0.627930	0.976562	8.330000	-261.799988	-79.449997	76.00	-0.21	0.01	19.50	17.00	14.50	16.50	13.25	13.75	3.50	8.75	3.75	4.50	3.75	4.50	9.75	3.75	3.25	2.25	-0.124512	0.129395	0.955566	-2.940000	3.780000	-0.070000	1669.00	-0.13	-0.09
1.30	0.25	1.75	1.75	0.00	0.25	1.00	1.00	0.00	0.00	0.00	0.00	0.00	0.00	0.00	0.00	0.00	0.493164	0.654297	0.904785	30.309999	-278.179993	-56.139999	73.00	-0.21	0.00	18.75	16.50	14.50	16.75	13.25	14.25	3.75	8.75	3.75	4.75	4.00	4.75	9.75	4.00	3.00	2.00	-0.119629	0.130859	0.947754	-3.360000	3.360000	-0.070000	1676.00	-0.12	-0.09
1.31	0.25	1.50	1.75	0.00	0.25	0.75	1.00	0.00	0.00	0.00	0.00	0.00	0.00	0.00	0.00	0.00	0.183594	0.580566	0.868652	62.160000	-285.739990	-32.480000	68.00	-0.20	0.02	18.50	16.25	14.25	16.50	13.75	14.00	3.50	8.25	3.25	4.50	3.25	4.25	9.25	3.50	3.50	1.75	-0.109375	0.125488	0.957520	-3.290000	3.710000	-0.000000	1625.00	-0.13	-0.09
1.32	0.50	1.50	1.75	0.00	0.50	1.00	1.00	0.00	0.00	0.00	0.00	0.00	0.00	0.00	0.00	0.00	-0.174805	0.439453	0.917480	92.330002	-284.549988	-11.620000	76.00	-0.20	0.01	17.25	15.25	13.75	15.75	13.00	12.50	3.75	8.75	3.25	5.25	4.25	6.25	10.25	4.00	3.50	2.25	-0.114746	0.125488	0.960938	-2.870000	4.480000	0.140000	1632.00	-0.11	-0.10
1.33	0.25	2.25	1.75	0.00	0.25	1.00	1.00	0.00	0.00	0.00	0.00	0.00	0.00	0.00	0.00	0.00	-0.523438	0.324219	0.988281	108.709999	-278.250000	5.950000	78.00	-0.22	-0.01	15.75	15.25	13.75	16.25	13.50	14.25	4.00	9.00	4.00	6.25	5.00	6.00	10.25	4.00	2.75	1.50	-0.120605	0.124023	0.951660	-2.030000	5.530000	0.140000	1671.00	-0.10	-0.10
1.34	0.25	1.25	1.75	0.00	0.50	1.00	1.00	0.00	0.00	0.00	0.00	0.00	0.00	0.00	0.00	0.00	-0.954102	-0.005371	1.178711	114.660004	-259.559998	24.570000	71.00	-0.19	0.02	16.25	13.50	13.50	15.75	13.50	13.75	4.00	9.00	4.50	7.00	6.00	7.50	11.00	4.50	3.75	2.25	-0.120117	0.124023	0.945312	-1.960000	6.720000	0.070000	1716.00	-0.08	-0.10
1.35	0.00	0.50	1.50	0.00	0.25	0.75	1.00	0.00	0.00	0.00	0.00	0.00	0.00	0.00	0.00	0.00	-1.210449	-0.157715	1.236816	106.889999	-249.619995	27.860001	52.00	-0.14	0.05	16.25	14.25	13.00	16.00	14.00	14.50	4.25	9.25	4.50	7.50	7.00	7.75	11.25	4.50	4.50	3.00	-0.117676	0.130371	0.959473	-2.380000	7.420000	-0.000000	1779.00	-0.08	-0.10
1.36	0.25	1.75	1.75	0.00	0.50	1.00	1.00	0.00	0.00	0.00	0.00	0.00	0.00	0.00	0.00	0.00	-1.488770	-0.294434	1.210449	93.239998	-237.930008	24.290001	76.00	-0.20	0.01	15.50	13.25	12.25	15.25	13.50	13.75	4.25	9.25	5.00	7.75	7.50	8.25	11.50	5.00	4.50	3.25	-0.115723	0.119141	0.977051	-2.730000	8.680000	-0.140000	1757.00	-0.07	-0.10
1.37	0.25	1.25	1.75	0.00	0.25	1.00	1.00	0.00	0.00	0.00	0.00	0.00	0.00	0.00	0.00	0.00	-1.721680	-0.369141	1.139160	76.790001	-223.300003	11.830000	68.00	-0.19	0.02	13.75	12.50	12.25	15.00	14.00	14.25	4.25	9.25	5.00	8.00	7.75	8.50	12.00	5.25	5.00	3.50	-0.119141	0.129883	0.956055	-2.380000	10.220000	-0.490000	1762.00	-0.06	-0.10
1.38	0.00	0.25	0.25	0.00	0.00	0.00	1.00	0.00	0.00	0.00	0.00	0.00	0.00	0.00	0.00	0.00	-1.944824	-0.360840	1.070312	57.260002	-206.779999	-6.160000	22.00	0.00	0.00	12.50	11.00	11.75	14.50	13.50	14.25	4.50	9.50	5.25	8.50	8.25	8.75	12.50	5.50	5.00	4.25	-0.123047	0.113770	0.960449	-2.030000	11.830000	-0.910000	1752.00	-0.04	-0.10
1.39	0.00	0.00	0.25	0.00	0.00	0.00	1.00	0.00	0.00	0.00	0.00	0.00	0.00	0.00	0.00	0.00	-2.076660	-0.219238	0.960449	37.590000	-188.720001	-22.820000	20.00	0.00	0.00	11.25	9.75	11.00	14.00	13.25	14.00	4.50	9.50	5.75	8.75	8.75	9.25	12.75	6.00	5.50	4.75	-0.133301	0.120605	0.958008	-1.260000	12.950000	-0.770000	1741.00	-0.03	-0.10
1.40	0.00	0.75	0.75	0.00	0.00	0.00	1.00	0.00	0.00	0.00	0.00	0.00	0.00	0.00	0.00	0.00	-2.094727	-0.070312	0.793457	21.490000	-168.350006	-30.870001	33.00	0.00	0.00	10.00	9.00	10.25	13.00	12.75	13.50	4.50	9.50	6.00	9.00	9.00	9.50	13.25	6.50	5.75	5.00	-0.123535	0.123535	0.956543	-0.560000	14.490000	-0.770000	1712.00	-0.01	-0.11
1.41	0.00	0.50	1.00	0.00	0.00	0.00	1.00	0.00	0.00	0.00	0.00	0.00	0.00	0.00	0.00	0.00	-2.000977	0.099609	0.630859	9.170000	-144.619995	-28.980000	34.00	0.00	0.00	9.00	7.75	9.75	12.00	12.50	13.50	4.50	9.50	6.25	9.50	9.25	9.25	12.50	6.25	5.50	4.50	-0.113770	0.124023	0.951660	-0.070000	15.750000	-0.910000	1661.00	-0.01	-0.10
1.42	0.00	0.50	0.50	0.00	0.00	0.00	1.00	0.00	0.00	0.00	0.00	0.00	0.00	0.00	0.00	0.00	-1.910645	0.228516	0.513184	4.690000	-118.650002	-19.530001	28.00	0.00	0.00	8.00	7.25	9.50	11.00	11.75	13.00	4.50	9.50	6.75	10.00	10.00	10.25	14.00	7.75	7.25	5.50	-0.149414	0.147461	0.977051	-0.350000	19.040001	-2.590000	1702.00	0.02	-0.11
1.43	0.00	0.25	0.25	0.00	0.25	0.00	1.00	0.00	0.00	0.00	0.00	0.00	0.00	0.00	0.00	0.00	-1.842773	0.202637	0.422363	8.470000	-93.660004	-8.050000	25.00	0.00	0.00	7.50	6.50	8.25	9.75	11.25	12.50	4.50	9.50	7.25	10.25	10.25	10.75	14.50	8.50	7.75	6.00	-0.164062	0.153809	0.978516	-0.560000	20.580000	-3.290000	1686.00	0.03	-0.11
1.44	0.00	1.50	1.50	0.00	0.25	0.50	1.00	0.00	0.00	0.00	0.00	0.00	0.00	0.00	0.00	0.00	-1.751953	0.100586	0.329102	14.770000	-70.139999	0.490000	59.00	-0.19	0.03	6.75	6.00	7.75	9.00	10.50	11.00	4.25	9.00	7.50	10.75	10.75	11.25	15.00	9.25	8.25	6.75	-0.135254	0.134766	0.967285	-0.980000	23.030001	-3.080000	1660.00	0.05	-0.10
1.45	0.50	1.00	1.50	0.00	0.50	0.75	1.00	0.00	0.00	0.00	0.00	0.00	0.00	0.00	0.00	0.00	-1.655762	-0.102051	0.269043	19.460001	-48.650002	4.340000	65.00	-0.19	0.04	5.00	5.25	7.00	8.25	9.50	10.25	4.50	9.25	8.00	11.00	11.00	11.50	14.50	10.00	8.50	6.75	-0.159668	0.133301	0.965332	-1.120000	26.389999	-3.990000	1623.00	0.07	-0.10
1.46	0.75	1.50	1.25	0.00	0.25	0.75	1.00	0.00	0.00	0.00	0.00	0.00	0.00	0.00	0.00	0.00	-1.519043	-0.354492	0.212891	18.760000	-30.380001	2.730000	67.00	-0.21	0.02	5.50	5.00	6.50	7.50	8.50	9.50	4.25	9.00	8.00	11.25	11.00	11.00	14.75	11.75	9.50	7.50	-0.186523	0.113281	0.992676	-1.050000	30.660000	-4.200000	1613.00	0.08	-0.10
1.47	0.75	1.75	1.75	0.25	0.25	0.25	1.00	0.00	0.00	0.00	0.00	0.00	0.00	0.00	0.00	0.00	-1.193848	-0.517090	0.215820	12.950000	-15.750000	-5.250000	73.00	-0.23	0.04	4.00	2.75	4.75	5.50	6.50	7.50	3.75	8.25	7.75	11.00	11.00	11.25	14.50	11.50	8.75	7.25	-0.145508	0.137695	0.981445	-0.980000	36.889999	-4.690000	1442.00	0.11	-0.10
1.48	0.75	1.25	2.00	1.75	1.00	2.25	1.25	0.75	0.00	0.00	0.00	0.00	0.00	0.00	0.00	0.00	-0.837402	-0.644043	0.099609	6.440000	-8.260000	-13.720000	138.00	-0.18	-0.07	3.75	2.00	4.00	5.00	5.50	6.50	3.50	7.75	8.75	12.00	12.00	11.75	14.00	13.25	9.50	7.75	-0.139648	0.169922	1.017090	-0.280000	45.500000	-5.250000	1446.00	0.13	-0.09
1.49	1.50	4.00	3.00	1.50	0.25	0.50	0.75	0.00	0.00	0.00	0.00	0.00	0.00	0.00	0.00	0.00	1.883789	-2.172852	0.219727	-210.770004	143.710007	-53.200001	133.00	-0.29	-0.03	3.00	2.00	3.50	4.25	4.25	5.50	3.00	7.25	8.50	11.50	11.75	11.75	14.25	14.50	10.00	8.00	-0.128906	0.187500	0.989258	1.470000	58.170002	-7.490000	1388.00	0.15	-0.10
1.50	7.75	9.25	6.75	7.75	2.00	5.00	1.00	0.75	0.00	0.00	0.00	0.00	0.00	0.00	0.00	0.00	-1.365723	0.737305	4.855957	-202.160004	300.579987	-76.930000	469.00	-0.29	-0.08	2.75	1.75	3.00	3.75	3.00	4.25	2.50	6.00	8.75	11.50	11.75	12.00	13.75	16.00	10.50	8.00	-0.157227	0.157715	1.094727	1.050000	75.250000	-11.060000	1333.00	0.16	-0.09
1.51	11.75	12.50	9.00	9.50	5.00	8.00	1.25	1.50	0.00	0.00	0.00	0.00	0.00	0.00	0.00	0.00	-1.068359	0.115234	4.881348	-233.029999	207.130005	-37.730000	683.00	-0.28	-0.07	2.75	1.25	2.25	3.00	2.25	3.25	2.00	5.00	9.00	11.50	12.00	11.75	13.25	17.25	11.00	8.25	-0.166016	0.200684	1.192871	6.930000	106.959999	-16.520000	1281.00	0.18	-0.08
1.52	14.25	13.50	9.75	9.75	5.75	8.75	1.25	3.25	0.75	0.75	0.50	0.50	0.25	0.00	0.00	0.00	-0.254395	-0.123535	1.963379	-58.590000	20.790001	24.710001	814.00	-0.25	-0.08	2.75	1.25	2.25	2.75	2.00	2.50	1.75	3.25	9.00	11.50	11.75	11.50	12.25	18.75	11.25	8.25	-0.258789	0.168945	1.239258	18.549999	155.190002	-21.910000	1235.00	0.20	-0.07
1.53	9.75	10.50	7.50	8.25	5.00	9.00	1.25	2.50	0.00	0.00	0.00	0.00	0.00	0.00	0.00	0.00	0.547852	-0.815430	-0.357422	9.310000	36.119999	23.240000	636.00	-0.26	-0.09	1.50	1.25	2.25	2.25	1.75	2.25	1.50	2.00	9.25	11.25	11.75	11.00	11.00	20.00	11.50	8.00	-0.182617	0.265137	1.493164	14.140000	209.860001	-25.620001	1180.00	0.22	-0.06
1.54	12.00	12.75	9.25	10.00	6.25	9.75	1.25	3.25	0.00	0.00	0.00	0.00	1.00	0.00	0.00	0.00	-0.192383	0.476562	1.668457	-31.080000	84.349998	-12.460000	772.00	-0.26	-0.09	1.50	1.00	1.50	2.00	1.50	1.75	1.25	1.25	9.00	10.75	11.25	10.50	9.75	21.00	11.75	7.75	-0.340820	0.274414	1.573242	-7.910000	289.380005	-43.540001	1118.00	0.23	-0.05
1.55	12.50	13.00	9.50	10.25	7.00	11.00	1.50	6.50	1.25	1.00	0.50	0.00	2.00	0.00	0.00	0.00	-0.506836	0.571289	1.302246	-35.349998	48.790001	-6.650000	913.00	-0.21	-0.10	1.75	0.75	1.25	1.50	1.50	1.00	1.00	0.75	8.75	10.25	11.00	9.75	8.50	21.50	11.50	7.25	-0.368164	0.268555	1.546875	-23.730000	310.170013	-52.150002	1054.00	0.24	-0.03
1.56	12.25	12.75	9.50	10.50	7.75	11.50	1.75	7.50	0.75	0.75	0.25	0.75	3.00	0.00	0.00	0.25	-0.270508	0.146484	1.120117	-37.380001	35.980000	9.940000	953.00	-0.21	-0.12	1.75	0.75	1.25	1.25	1.25	1.00	1.00	0.75	8.50	9.75	10.50	9.00	7.50	22.00	11.25	6.50	-0.395020	0.331543	1.391602	-34.369999	339.149994	-61.810001	1012.00	0.24	-0.03
1.57	12.50	13.00	9.75	10.75	8.25	12.25	1.75	8.00	0.50	0.25	0.25	0.75	3.00	0.00	0.50	0.00	-0.191406	-0.040039	1.194824	-27.719999	14.700000	4.200000	982.00	-0.21	-0.12	1.50	0.75	1.50	1.00	1.00	0.50	1.00	0.25	7.75	8.75	9.75	8.25	5.25	21.75	10.75	5.75	-0.525879	0.602051	1.365234	-53.549999	371.980011	-78.610001	919.00	0.25	-0.01
1.58	13.00	13.50	9.50	11.00	8.25	12.75	1.75	8.25	0.50	1.00	0.75	1.00	4.25	0.25	0.25	0.00	-0.181641	0.201660	0.950195	-7.630000	-1.610000	-2.170000	1032.00	-0.20	-0.12	1.00	0.50	0.75	0.75	1.00	0.50	0.75	0.25	7.25	8.25	9.00	7.50	3.25	21.25	9.50	3.75	-0.594727	0.501953	1.903809	-71.750000	398.440002	-101.290001	815.00	0.27	0.00
1.59	11.00	12.25	9.25	10.25	7.75	11.75	1.50	8.75	1.00	0.00	0.00	1.00	3.50	0.00	0.00	0.00	-0.115234	0.164551	0.981445	-0.420000	1.540000	1.330000	946.00	-0.20	-0.13	0.50	0.25	0.50	0.50	0.75	0.50	0.75	0.00	6.00	7.50	8.25	5.75	1.75	20.25	8.75	1.50	-0.726074	0.428223	2.068848	-75.320000	413.910004	-117.180000	693.00	0.28	0.02
1.60	9.75	11.50	9.00	10.25	8.00	12.25	1.75	8.75	0.00	0.00	0.00	0.00	4.25	0.00	0.00	0.00	-0.138184	0.062500	1.051758	7.840000	4.620000	1.050000	915.00	-0.20	-0.14	0.75	0.25	0.00	0.00	0.50	0.50	0.75	0.00	5.00	6.25	7.00	4.00	0.50	18.50	7.50	0.00	-0.684570	0.465332	2.097656	-80.080002	430.010010	-131.600006	567.00	0.29	0.04
1.61	8.75	10.75	8.50	10.25	8.50	13.00	1.75	9.50	0.50	0.75	0.50	0.75	5.25	0.00	0.00	0.25	-0.188477	0.166016	1.018066	18.969999	2.170000	0.910000	959.00	-0.18	-0.15	0.50	0.50	0.00	0.00	0.50	0.25	0.75	0.00	3.00	5.00	5.00	2.50	0.00	15.75	6.00	0.00	-0.769531	0.248047	2.576172	-88.269997	432.670013	-142.589996	433.00	0.29	0.05
1.62	12.00	13.00	9.50	10.75	8.00	13.50	1.75	10.00	0.75	1.00	0.50	1.25	8.00	0.25	0.00	0.50	-0.137207	0.186035	0.903809	24.710001	3.500000	4.270000	1086.00	-0.17	-0.15	0.00	0.25	0.00	0.00	0.25	0.00	0.75	0.00	1.25	3.50	3.25	1.50	0.00	12.25	4.25	0.00	-0.672852	0.223145	2.745117	-73.360001	415.940002	-142.100006	292.00	0.32	0.06
1.63	12.00	13.00	9.75	11.25	8.50	14.25	1.75	10.50	0.75	1.00	0.50	1.50	8.50	0.00	0.25	0.00	-0.128906	0.160156	0.969727	22.469999	5.600000	4.760000	1124.00	-0.17	-0.15	0.00	0.00	0.00	0.00	0.25	0.00	0.75	0.00	1.00	2.50	1.75	0.75	0.00	8.50	2.25	0.00	-0.936035	0.574707	3.291504	-75.809998	398.720001	-141.190002	191.00	0.32	0.08
1.64	8.50	11.25	8.25	9.25	8.00	13.75	2.00	10.50	0.00	0.75	0.50	1.75	8.75	0.00	0.00	0.00	-0.155762	0.184082	0.947266	17.500000	5.390000	3.920000	1005.00	-0.16	-0.17	0.25	0.25	0.00	0.00	0.25	0.00	0.75	0.00	0.50	2.00	1.25	0.50	0.00	4.50	0.50	0.00	-0.072754	0.346191	3.179199	-66.220001	368.339996	-144.550003	118.00	0.25	0.09
1.65	11.00	11.25	8.25	10.00	7.50	12.25	1.75	11.00	0.50	0.75	0.25	1.00	8.50	0.00	0.25	0.00	-0.141602	0.188965	0.950195	14.420000	6.090000	3.920000	1019.00	-0.17	-0.16	0.00	0.25	0.25	0.25	0.25	0.00	0.75	0.00	0.25	1.25	0.75	0.25	0.00	1.50	0.75	0.00	-0.199707	0.440430	2.182617	-79.519997	334.390015	-142.729996	76.00	0.19	0.06
1.66	8.75	11.00	8.50	9.75	7.50	13.00	1.75	10.50	0.00	0.50	0.00	0.75	9.00	0.00	0.00	0.00	-0.132812	0.190430	0.951172	11.480000	7.490000	3.920000	978.00	-0.17	-0.17	0.50	0.50	0.25	0.25	0.25	0.00	0.75	0.00	0.50	1.25	1.00	0.00	0.00	0.75	0.75	0.00	1.267090	2.523926	4.347168	-113.959999	168.630005	-101.500000	80.00	0.11	0.06
1.67	7.75	10.50	8.25	9.75	7.00	12.75	1.75	11.25	0.75	0.25	0.50	1.50	10.25	0.00	0.25	0.50	-0.131836	0.182129	0.962402	8.820000	9.100000	3.780000	1002.00	-0.15	-0.18	0.25	0.25	0.00	0.00	0.25	0.00	0.75	0.00	0.00	1.00	0.50	0.00	0.00	0.25	0.00	0.00	2.236328	1.790527	4.098145	-65.029999	-12.950000	-44.590000	40.00	0.00	0.00
1.68	10.00	12.00	9.00	10.75	8.00	14.25	1.75	11.00	0.00	1.00	0.75	2.00	10.50	0.25	0.00	0.25	-0.136719	0.176758	0.970215	7.770000	10.010000	3.220000	1096.00	-0.16	-0.17	0.25	0.00	0.00	0.00	0.25	0.25	0.75	0.00	0.00	1.00	0.25	0.00	0.00	0.25	0.00	0.00	2.252930	1.182129	1.763184	-66.570000	-127.400002	0.490000	38.00	0.00	0.00
1.69	8.50	10.00	7.75	9.25	7.00	13.25	1.50	11.50	0.00	0.25	0.25	2.00	10.00	0.00	0.00	0.00	-0.128418	0.178223	0.962402	7.070000	10.850000	2.380000	983.00	-0.15	-0.18	0.00	0.25	0.00	0.00	0.25	0.00	0.75	0.00	0.00	0.25	0.00	0.00	0.00	0.00	0.00	0.00	1.655762	1.179688	1.303223	-97.230003	-177.729996	21.490000	21.00	0.00	0.00
1.70	7.50	9.75	8.25	9.25	7.00	13.00	1.50	11.25	0.00	0.25	0.00	1.75	10.25	0.00	0.25	0.25	-0.134766	0.179199	0.963379	6.440000	11.550000	1.260000	969.00	-0.15	-0.18	0.00	0.00	0.00	0.00	0.25	0.00	1.00	0.00	0.00	0.50	0.00	0.00	0.00	0.00	0.00	0.00	1.573730	1.272461	0.937500	-97.230003	-186.339996	32.270000	25.00	0.00	0.00
1.71	7.00	9.50	7.75	9.25	6.75	13.00	1.50	11.25	0.00	0.25	0.00	1.75	10.75	0.00	0.00	0.00	-0.146973	0.181152	0.957031	7.070000	11.690000	0.630000	952.00	-0.15	-0.19	0.50	0.25	0.00	0.00	0.25	0.00	0.75	0.00	0.00	0.50	0.00	0.00	0.00	0.00	0.00	0.00	1.479980	1.259766	0.955078	-70.209999	-196.490005	36.049999	29.00	0.00	0.00
1.72	6.50	9.00	7.75	9.00	6.50	12.50	1.50	11.25	0.00	0.25	0.00	1.50	11.00	0.00	0.00	0.00	-0.137207	0.179199	0.956543	7.980000	11.690000	0.630000	929.00	-0.14	-0.19	0.25	0.50	0.00	0.00	0.25	0.00	0.75	0.00	0.00	0.50	0.00	0.00	0.00	0.00	0.00	0.00	1.281250	1.204102	1.118164	-33.599998	-214.759995	36.400002	29.00	0.00	0.00
1.73	6.75	8.75	7.75	9.00	6.25	13.50	1.50	11.25	0.00	0.00	0.25	1.50	11.25	0.00	0.00	0.00	-0.139160	0.186035	0.952148	8.540000	11.830000	0.980000	941.00	-0.14	-0.19	0.25	0.00	0.00	0.00	0.25	0.00	0.75	0.00	0.00	0.25	0.00	0.00	0.00	0.00	0.00	0.00	1.152832	1.065918	1.154297	-7.700000	-239.540009	37.029999	21.00	0.00	0.00
1.74	5.50	8.00	6.50	8.25	5.75	12.25	1.50	11.25	0.00	0.00	0.25	2.00	11.50	0.00	0.25	0.25	-0.143555	0.196289	0.928711	7.560000	12.180000	1.120000	886.00	-0.13	-0.21	0.25	0.25	0.00	0.00	0.25	0.00	0.75	0.00	0.00	0.25	0.00	0.00	0.00	0.00	0.00	0.00	0.969238	1.021484	1.191895	2.100000	-265.579987	39.970001	24.00	0.00	0.00
1.75	6.00	8.50	7.00	8.75	5.75	13.00	1.50	11.50	0.00	0.25	0.00	2.00	11.75	0.00	0.00	0.00	-0.146484	0.195801	0.936035	5.040000	12.600000	0.770000	920.00	-0.13	-0.20	0.00	0.00	0.00	0.00	0.00	0.00	1.00	0.00	0.00	0.00	0.00	0.00	0.00	0.00	0.00	0.00	0.790039	1.040527	1.199219	3.850000	-288.959991	45.849998	16.00	0.00	0.00
1.76	6.00	8.75	6.75	8.75	6.50	14.25	1.75	11.75	0.00	0.25	0.25	3.25	12.50	0.00	0.00	0.00	-0.140625	0.194336	0.927246	1.890000	12.530000	0.350000	976.00	-0.13	-0.21	0.00	0.25	0.00	0.00	0.00	0.00	0.75	0.00	0.00	0.00	0.00	0.00	0.00	0.00	0.25	0.00	0.595703	1.081543	1.198730	8.050000	-309.610016	52.430000	18.00	0.00	0.00
1.77	6.50	8.25	7.25	8.50	5.50	12.75	1.50	11.50	0.00	0.25	0.25	3.00	12.25	0.00	0.00	0.25	-0.134766	0.207031	0.912109	-2.730000	13.090000	-0.280000	938.00	-0.13	-0.20	0.25	0.25	0.00	0.00	0.25	0.00	1.00	0.00	0.00	0.00	0.00	0.00	0.00	0.00	0.00	0.00	0.397949	1.108887	1.180664	20.299999	-327.110016	58.099998	25.00	0.00	0.00
1.78	5.25	7.50	6.25	8.25	5.25	12.75	1.50	11.75	0.00	0.50	0.25	3.50	12.75	0.00	0.00	0.25	-0.137207	0.198242	0.909668	-8.750000	14.070000	-0.770000	916.00	-0.11	-0.22	0.00	0.00	0.00	0.00	0.25	0.00	1.00	0.00	0.25	0.00	0.00	0.00	0.00	0.00	0.00	0.00	0.029785	1.054688	1.174316	59.080002	-341.739990	66.639999	23.00	0.00	0.00
1.79	5.25	7.75	6.25	8.25	5.25	12.75	1.50	11.75	0.00	0.75	0.75	4.00	13.00	0.00	0.00	0.50	-0.132812	0.198242	0.915527	-26.180000	16.660000	-4.130000	936.00	-0.11	-0.22	0.00	0.00	0.00	0.00	0.25	0.00	1.00	0.00	0.00	0.00	0.00	0.00	0.00	0.00	0.00	0.00	-0.154785	1.006348	1.232910	73.570000	-342.369995	72.590004	19.00	0.00	0.00
1.80	5.00	6.75	6.00	8.00	5.25	12.50	1.50	11.50	0.00	0.75	1.00	5.00	13.25	0.00	0.25	0.75	-0.135254	0.214844	0.879883	-37.939999	17.710001	-6.440000	931.00	-0.10	-0.22	0.00	0.25	0.00	0.00	0.25	0.00	0.75	0.00	0.00	0.00	0.00	0.00	0.00	0.00	0.00	0.00	-0.417480	1.085938	1.476074	82.040001	-340.269989	81.830002	18.00	0.00	0.00
1.81	4.75	6.50	5.75	7.75	5.50	12.25	1.50	11.50	0.00	1.25	1.25	6.00	13.50	0.00	0.00	1.50	-0.151855	0.200195	0.889160	-50.959999	19.879999	-9.030000	944.00	-0.08	-0.22	0.00	0.25	0.00	0.00	0.25	0.00	0.75	0.00	0.00	0.00	0.00	0.00	0.00	0.00	0.00	0.00	-0.527344	1.043945	1.364746	101.639999	-337.190002	93.590004	18.00	0.00	0.00
1.82	4.25	6.50	5.75	7.75	5.50	12.25	1.50	11.25	0.00	1.50	2.25	7.25	13.50	0.00	0.00	1.50	-0.182129	0.165039	0.964355	-55.299999	19.740000	-10.780000	963.00	-0.07	-0.22	0.00	0.00	0.00	0.00	0.00	0.00	0.75	0.00	0.00	0.00	0.00	0.00	0.00	0.00	0.00	0.00	-0.582031	0.942871	1.489258	116.690002	-331.730011	93.800003	12.00	0.00	0.00
1.83	4.50	6.00	5.50	7.50	5.75	12.25	1.75	11.50	0.25	1.75	2.25	7.75	13.75	0.00	0.50	2.00	-0.197266	0.133301	1.001953	-48.160000	18.620001	-9.100000	989.00	-0.06	-0.22	0.00	0.00	0.00	0.00	0.00	0.00	0.75	0.00	0.00	0.00	0.00	0.00	0.00	0.00	0.00	0.00	-0.674316	0.946289	1.615723	140.490005	-323.399994	86.099998	12.00	0.00	0.00
1.84	4.25	5.75	5.50	7.50	5.75	12.00	2.00	11.50	0.50	2.00	3.00	8.00	14.00	0.00	0.75	3.00	-0.196777	0.108887	1.039551	-34.720001	16.590000	-7.770000	1014.00	-0.05	-0.21	0.00	0.00	0.00	0.00	0.00	0.00	0.75	0.00	0.00	0.00	0.00	0.00	0.00	0.00	0.00	0.00	-0.836914	0.922852	1.773438	154.770004	-315.279999	81.550003	12.00	0.00	0.00
1.85	3.75	5.50	5.50	7.00	5.75	12.00	2.00	11.25	0.75	2.00	4.00	8.50	14.25	0.00	0.75	3.25	-0.194824	0.111328	0.993164	-21.490000	15.190001	-6.160000	1021.00	-0.04	-0.21	0.00	0.00	0.00	0.00	0.25	0.00	0.75	0.00	0.00	0.00	0.00	0.00	0.00	0.00	0.00	0.00	-0.988281	0.939453	1.964844	167.160004	-305.829987	83.790001	15.00	0.00	0.00
1.86	3.25	5.50	5.25	6.75	5.75	11.75	2.00	11.50	0.75	2.75	5.25	9.00	14.75	0.00	0.75	4.00	-0.194336	0.108887	0.978516	-10.710000	15.260000	-3.500000	1048.00	-0.03	-0.21	0.00	0.00	0.00	0.00	0.25	0.00	0.75	0.00	0.00	0.00	0.00	0.00	0.00	0.00	0.00	0.00	-1.245117	1.083008	2.189453	177.589996	-298.760010	87.430000	15.00	0.00	0.00
1.87	3.25	5.25	5.25	6.25	5.50	11.75	2.00	11.50	0.50	2.75	6.25	9.50	15.00	0.50	1.25	5.00	-0.195801	0.113281	0.958496	-3.010000	16.730000	-0.700000	1069.00	-0.01	-0.21	0.00	0.00	0.00	0.00	0.00	0.00	1.00	0.00	0.00	0.00	0.00	0.00	0.00	0.00	0.00	0.00	-1.514648	1.151367	2.320312	190.610001	-291.619995	90.019997	16.00	0.00	0.00
1.88	3.25	5.25	5.00	6.25	5.50	11.75	2.00	11.50	1.50	3.25	7.25	9.75	15.50	0.50	1.50	5.75	-0.179688	0.127930	0.947754	1.470000	18.549999	1.540000	1112.00	-0.00	-0.21	0.00	0.00	0.00	0.00	0.00	0.00	0.75	0.00	0.00	0.00	0.00	0.00	0.00	0.00	0.00	0.00	-1.907227	1.099609	2.225098	211.539993	-281.399994	90.790001	12.00	0.00	0.00
1.89	3.25	5.25	4.75	5.75	5.25	11.25	2.00	11.50	1.25	3.75	7.75	10.50	16.00	1.25	2.00	6.75	-0.176758	0.141602	0.944824	3.220000	20.930000	3.150000	1134.00	0.01	-0.21	0.00	0.00	0.00	0.00	0.00	0.00	0.75	0.00	0.00	0.00	0.00	0.00	0.00	0.00	0.00	0.00	-2.298340	0.846680	2.160645	242.759995	-262.989990	96.320000	12.00	0.00	0.00
1.90	3.00	5.00	4.50	5.75	5.00	11.25	2.00	11.75	1.75	4.75	8.25	11.00	16.50	1.50	2.50	7.25	-0.166992	0.154785	0.950684	3.150000	23.730000	3.570000	1172.00	0.03	-0.20	0.00	0.25	0.00	0.00	0.25	0.00	0.75	0.00	0.00	0.00	0.00	0.00	0.00	0.00	0.00	0.00	-2.808105	0.278320	2.302734	261.799988	-216.720001	114.449997	18.00	0.00	0.00
1.91	3.00	4.50	4.25	5.25	4.50	10.75	2.00	11.50	1.50	5.00	8.75	11.50	17.00	2.25	2.75	8.00	-0.166016	0.175781	0.945801	1.820000	27.510000	1.610000	1172.00	0.04	-0.21	0.00	0.00	0.00	0.00	0.00	0.00	0.75	0.00	0.00	0.00	0.00	0.00	0.00	0.00	0.00	0.00	-2.943359	-0.229004	2.176270	269.779999	-205.309998	131.949997	12.00	0.00	0.00
1.92	2.75	4.50	4.00	4.75	4.00	10.50	2.25	11.50	2.75	6.75	9.50	12.00	17.50	3.25	3.75	9.00	-0.161621	0.167969	0.958008	-0.140000	32.130001	-1.680000	1239.00	0.06	-0.19	0.00	0.00	0.00	0.00	0.25	0.00	0.75	0.00	0.00	0.00	0.00	0.00	0.00	0.00	0.00	0.00	-3.051270	-1.116699	1.990723	282.380005	-196.419998	159.389999	15.00	0.00	0.00
1.93	2.25	3.50	3.75	4.25	3.50	10.00	2.00	11.50	3.25	7.75	10.00	12.50	18.00	5.00	4.75	10.00	-0.195801	0.188477	1.006836	1.190000	45.009998	-8.050000	1266.00	0.08	-0.19	0.00	0.00	0.00	0.00	0.25	0.00	0.75	0.00	0.00	0.00	0.00	0.00	0.00	0.00	0.00	0.00	-3.507324	-2.076660	1.810059	269.500000	-187.180008	188.580002	15.00	0.00	0.00
1.94	2.25	4.25	2.50	4.00	2.50	9.25	1.75	11.25	4.00	8.25	10.75	13.75	19.50	6.75	6.00	11.00	-0.202148	0.176758	1.033691	6.230000	55.790001	-11.410000	1316.00	0.10	-0.19	0.00	0.00	0.00	0.00	0.00	0.00	0.75	0.00	0.00	0.00	0.00	0.00	0.00	0.00	0.00	0.00	-3.786621	-2.671387	1.255859	175.419998	-175.070007	199.710007	12.00	0.00	0.00
1.95	1.75	3.75	3.00	3.25	2.25	8.50	1.75	11.00	4.50	8.50	11.25	13.75	18.50	8.00	6.75	12.25	-0.186523	0.222168	1.086914	12.250000	68.739998	-13.090000	1321.00	0.12	-0.18	0.00	0.25	0.00	0.00	0.25	0.00	0.75	0.00	0.00	0.00	0.00	0.00	0.00	0.00	0.00	0.00	-3.972656	-2.464355	0.658691	47.320000	-155.889999	176.399994	18.00	0.00	0.00
1.96	1.50	3.25	2.50	3.00	1.50	8.00	1.50	10.50	5.00	8.75	11.50	14.00	18.75	9.25	7.50	13.25	-0.238281	0.216797	1.095215	27.230000	83.090004	-17.080000	1320.00	0.14	-0.18	0.00	0.25	0.00	0.00	0.00	0.00	0.75	0.00	0.00	0.00	0.00	0.00	0.00	0.00	0.00	0.00	-4.151367	-1.817871	0.173340	-21.280001	-124.879997	115.989998	15.00	0.00	0.00
1.97	1.00	3.75	2.25	2.25	1.25	7.50	1.25	9.75	5.00	9.00	12.00	14.25	18.50	10.50	8.00	14.00	-0.269043	0.210938	1.143066	45.570000	108.080002	-17.430000	1313.00	0.15	-0.17	0.50	0.25	0.00	0.00	0.00	0.00	0.75	0.00	0.00	0.00	0.00	0.00	0.00	0.00	0.00	0.00	-4.415039	-1.427734	-0.135254	-13.440001	-81.970001	40.880001	21.00	0.00	0.00
1.98	1.50	2.50	2.25	1.75	1.00	6.75	1.00	9.00	5.25	9.00	12.25	14.50	18.50	11.75	8.75	14.75	-0.279297	0.086426	1.244629	72.379997	138.180008	-17.780001	1306.00	0.16	-0.17	0.75	0.50	0.00	0.50	0.25	0.00	0.75	0.00	0.00	0.00	0.00	0.00	0.00	0.00	0.00	0.00	-6.181641	-2.829590	-0.486816	-76.860001	13.580000	-1.330000	35.00	0.00	0.00
1.99	1.50	2.00	2.00	2.00	1.00	6.25	1.00	8.00	5.25	9.25	12.50	14.25	18.00	13.50	9.25	15.50	-0.277344	0.258789	1.179199	87.290001	179.270004	-17.850000	1302.00	0.17	-0.16	1.75	1.75	1.25	1.25	0.25	0.00	0.50	0.00	0.00	0.00	0.00	0.00	0.00	0.00	0.00	0.00	-4.670410	-2.165039	-1.176758	-232.050003	133.419998	-18.270000	79.00	-0.30	-0.01
2.00	1.00	1.25	2.25	1.50	0.75	4.25	0.75	7.50	4.50	9.00	12.50	14.25	17.50	14.25	9.75	16.00	-0.276367	0.167480	1.206055	97.510002	223.649994	-20.860001	1244.00	0.19	-0.16	5.25	6.50	2.75	3.25	0.25	0.00	0.50	0.00	0.00	0.00	0.00	0.00	0.00	0.00	0.00	0.00	-1.067871	0.031250	1.649414	-279.929993	248.080002	-59.360001	209.00	-0.34	-0.04
2.01	2.00	2.00	2.25	1.25	0.50	4.75	0.75	6.50	4.50	8.75	12.50	14.25	16.75	15.00	10.00	16.25	-0.332520	0.059570	1.439453	89.669998	264.950012	-17.920000	1248.00	0.19	-0.15	12.75	15.50	5.50	8.00	0.50	0.25	0.50	0.00	0.00	0.00	0.00	0.00	0.25	0.00	0.00	0.00	0.215332	-0.655273	3.916504	-189.839996	237.229996	-49.349998	483.00	-0.35	-0.05
2.02	1.50	2.00	2.25	1.00	0.75	4.00	0.75	5.50	3.75	8.25	12.50	13.75	16.00	15.75	10.25	16.25	-0.426758	0.226562	1.566406	83.580002	298.480011	-13.370000	1197.00	0.20	-0.14	20.50	20.75	8.75	11.25	1.00	2.00	0.50	0.00	0.00	0.00	0.00	0.25	0.25	0.00	0.00	0.00	-0.864746	-0.259277	2.006348	-106.400002	292.390015	-41.020000	732.00	-0.34	-0.05
2.03	1.50	2.00	1.50	1.00	0.50	5.00	0.75	4.75	2.25	8.25	12.25	13.50	14.75	16.25	10.50	16.25	-0.383301	0.191406	1.398438	88.760002	330.470001	-11.690000	1153.00	0.20	-0.15	24.50	23.25	11.00	13.75	1.50	4.50	0.75	0.75	0.00	0.00	0.00	0.00	0.00	0.00	0.00	0.00	-1.539062	0.880859	5.233887	-52.360001	351.049988	-37.310001	907.00	-0.33	-0.05
2.04	1.50	2.00	2.00	0.00	0.50	3.00	0.75	3.25	2.00	7.75	12.25	13.00	13.75	16.25	10.25	15.75	-0.488281	0.466797	1.372070	80.080002	355.950012	-14.070000	1068.00	0.21	-0.14	24.00	23.25	12.00	15.00	2.25	6.50	0.75	1.25	0.00	0.00	0.00	0.25	0.75	0.25	0.00	0.00	-0.971680	0.144043	3.625488	-44.520000	175.770004	-20.790001	982.00	-0.32	-0.07
2.05	1.25	1.50	1.50	0.25	0.50	2.25	0.75	3.00	0.50	7.50	12.00	12.50	12.25	16.50	10.25	14.75	-0.498535	0.364746	1.436035	75.040001	390.040009	-20.930000	993.00	0.22	-0.14	23.00	22.50	12.00	14.75	2.25	7.00	0.75	1.50	0.00	0.00	0.00	0.25	0.50	0.00	0.00	0.00	-0.026367	0.385254	0.594238	-32.340000	83.790001	-14.140000	965.00	-0.31	-0.07
2.06	1.75	2.75	1.75	0.00	0.50	1.25	0.75	2.50	0.00	6.75	11.75	11.75	11.00	16.25	9.50	13.00	-0.492188	0.499023	1.532715	67.620003	428.890015	-32.759998	931.00	0.22	-0.13	20.75	21.00	11.75	14.25	2.50	7.50	1.00	2.25	0.00	0.00	0.00	0.50	0.75	0.00	0.00	0.00	0.163574	0.388184	0.754395	-52.360001	89.739998	-1.820000	947.00	-0.30	-0.08
2.07	1.00	1.25	1.00	0.00	0.50	1.25	0.75	1.75	0.00	6.00	11.25	11.00	9.75	15.00	8.75	10.75	-0.623535	0.557617	1.825195	47.950001	473.269989	-52.080002	818.00	0.24	-0.13	19.25	20.25	11.75	14.25	3.00	8.00	1.00	3.00	0.00	0.00	0.00	0.50	1.75	0.25	0.00	0.00	-0.274414	0.198242	1.070801	-75.669998	91.840004	0.910000	958.00	-0.29	-0.09
2.08	0.00	1.75	1.25	0.00	0.25	1.50	0.50	1.00	0.00	5.25	10.25	10.00	8.25	13.25	7.50	7.75	-1.197754	0.773438	2.814453	34.930000	532.419983	-73.709999	704.00	0.24	-0.13	20.25	20.25	12.50	14.75	3.25	8.75	1.25	3.50	0.25	0.00	0.00	0.25	1.75	0.50	0.00	0.00	-0.521484	0.312988	1.455078	-87.639999	69.370003	-2.450000	1012.00	-0.28	-0.08
2.09	1.75	2.25	2.00	0.75	1.25	2.00	0.75	0.50	0.00	4.25	8.75	9.00	6.25	11.00	5.75	6.25	-1.495117	0.525879	3.000488	62.720001	580.090027	-97.720001	652.00	0.18	-0.11	21.25	21.25	13.25	15.25	4.50	8.75	1.25	3.75	0.25	0.25	0.00	0.50	1.00	0.75	0.00	0.00	-0.229492	0.317383	1.038086	-79.099998	32.410000	-2.310000	1069.00	-0.28	-0.08
2.10	1.50	2.75	2.00	0.50	0.75	1.25	0.50	0.50	0.00	4.50	8.25	8.50	6.25	10.25	5.25	4.25	-1.386719	0.462891	3.310547	62.439999	555.450012	-97.650002	599.00	0.18	-0.11	22.75	22.25	14.00	15.75	5.00	9.00	1.25	3.75	0.25	0.25	0.25	0.25	1.25	0.50	0.50	0.00	-0.084961	0.208496	0.985352	-82.040001	27.510000	-1.820000	1126.00	-0.28	-0.08
2.11	1.50	3.00	2.50	1.00	0.75	3.00	0.75	1.00	0.00	3.50	6.75	7.25	4.25	6.75	1.25	1.00	-1.097656	0.178711	3.107910	56.490002	539.000000	-99.959999	487.00	0.10	-0.12	23.75	22.75	14.25	15.75	5.75	9.00	1.25	3.50	0.25	0.50	0.00	0.25	1.25	0.50	0.00	0.00	-0.186035	0.153809	1.182617	-72.239998	23.660000	-3.360000	1144.00	-0.28	-0.07
2.12	0.25	1.50	2.00	0.00	0.00	4.25	0.75	1.00	0.00	3.00	3.75	5.25	1.25	5.25	1.50	0.25	-0.707031	0.256836	3.538574	44.660000	503.089996	-107.449997	339.00	0.12	-0.11	24.00	23.00	14.50	15.50	5.75	8.75	1.25	3.25	0.50	0.50	0.25	0.00	0.75	0.50	0.50	0.00	-0.134766	0.151855	1.052246	-52.990002	16.590000	-3.920000	1147.00	-0.28	-0.07
2.13	0.75	3.25	2.25	0.00	0.25	1.25	0.50	1.00	0.50	2.25	2.50	2.00	1.75	2.00	0.00	0.25	0.155273	1.175293	1.783691	26.809999	495.670013	-103.459999	232.00	0.02	-0.09	25.00	22.75	14.25	15.25	5.75	8.75	1.25	3.25	0.50	0.75	0.00	0.25	1.00	0.25	0.00	0.00	-0.073730	0.160156	1.006836	-38.709999	15.330000	-3.850000	1147.00	-0.28	-0.07
2.14	1.50	3.50	3.00	0.00	0.75	1.00	0.50	0.00	0.00	2.00	2.50	1.25	0.00	0.00	0.75	0.50	1.227539	1.180176	2.797363	66.500000	428.890015	-91.070000	195.00	-0.07	-0.05	24.50	22.00	14.00	15.00	5.75	8.75	1.25	2.75	0.50	0.50	0.00	0.25	0.75	0.50	0.00	0.00	-0.062988	0.187988	0.916504	-24.430000	15.960000	-3.640000	1116.00	-0.28	-0.06
2.15	1.75	1.50	3.00	1.25	0.25	3.50	1.00	1.00	0.25	1.25	2.00	1.75	0.50	0.25	0.75	0.75	0.367188	-0.000488	2.971680	82.599998	299.320007	-113.820000	245.00	-0.05	-0.10	23.25	21.75	13.75	14.50	5.75	8.50	1.25	3.00	0.50	0.50	0.25	0.00	1.00	0.25	0.25	0.00	-0.087402	0.203125	0.924805	-22.120001	15.960000	-2.170000	1095.00	-0.28	-0.07
2.16	2.50	4.00	3.00	1.50	1.00	2.50	1.00	0.75	1.00	2.00	1.50	0.75	0.50	0.50	0.50	0.50	0.932617	1.345215	7.054199	14.140000	125.720001	-156.169998	275.00	-0.10	-0.05	22.75	21.00	13.50	14.25	5.75	8.75	1.25	3.25	0.25	0.75	0.25	0.00	1.50	0.75	0.25	0.00	-0.117676	0.181641	0.949707	-22.400000	16.170000	-0.420000	1091.00	-0.27	-0.07
2.17	0.00	0.00	0.25	0.00	0.00	0.00	1.00	0.00	0.00	0.25	0.00	0.00	0.00	0.00	0.00	0.00	2.050293	-0.504395	3.633301	-81.900002	-89.809998	-141.680008	22.00	0.00	0.00	22.00	20.25	13.25	14.00	6.00	8.75	1.25	3.75	0.50	0.75	0.25	0.25	1.00	0.50	0.00	0.00	-0.115234	0.172852	0.949707	-23.520000	16.100000	0.210000	1077.00	-0.27	-0.07
2.18	0.00	0.00	0.75	0.00	0.25	0.00	1.00	0.00	0.00	0.50	0.00	0.00	0.00	0.00	0.00	0.00	1.495117	0.461914	2.429688	-128.309998	-229.529999	-148.259995	34.00	0.00	0.00	21.75	19.50	13.00	13.50	6.00	8.75	1.25	3.75	0.50	0.75	0.25	0.25	1.25	0.50	0.00	0.00	-0.117188	0.186035	0.944824	-25.270000	15.610000	0.280000	1060.00	-0.27	-0.07
2.19	0.00	0.00	0.25	0.00	0.00	0.00	1.00	0.00	0.00	0.50	0.25	0.00	0.00	0.25	0.25	0.25	1.175293	0.783203	1.707031	-134.050003	-281.820007	-170.940002	35.00	0.00	0.00	20.75	19.00	12.75	13.50	6.25	9.00	1.50	4.00	0.25	1.00	0.25	0.25	2.00	0.50	0.00	0.00	-0.125488	0.165039	0.967285	-27.020000	15.470000	0.700000	1061.00	-0.26	-0.08
2.20	2.50	3.25	2.75	1.50	1.00	2.75	1.00	1.00	1.00	1.25	0.75	0.25	0.50	0.25	0.25	0.00	1.072754	0.960938	1.371094	-78.330002	-302.399994	-185.289993	240.00	-0.13	-0.05	20.25	18.25	12.50	13.00	6.25	9.00	1.25	4.00	0.00	1.00	0.50	0.25	2.00	0.50	0.25	0.00	-0.114746	0.145020	0.959961	-26.320000	14.280000	0.700000	1037.00	-0.26	-0.08
2.21	2.25	2.75	3.00	1.50	1.25	2.50	1.25	1.00	1.00	1.25	0.75	0.00	0.50	0.00	0.50	0.00	0.937012	1.059570	1.224609	-12.880000	-320.950012	-187.460007	237.00	-0.12	-0.04	19.50	17.75	12.25	13.00	6.50	9.25	1.50	5.00	0.25	1.00	0.50	0.50	2.50	0.75	0.25	0.00	-0.100098	0.141113	0.950195	-25.340000	12.880000	-0.000000	1061.00	-0.24	-0.08
2.22	2.00	3.00	2.75	1.25	1.00	2.50	1.25	0.75	0.50	1.00	0.50	0.25	0.75	0.50	0.25	0.00	0.763184	1.067383	1.236816	36.049999	-339.989990	-171.149994	218.00	-0.13	-0.05	18.50	17.25	12.25	12.50	6.75	9.25	1.50	5.50	0.50	1.25	0.50	0.50	2.50	0.75	0.25	0.00	-0.100586	0.166016	0.952148	-25.270000	12.390000	-1.680000	1056.00	-0.24	-0.09
2.23	2.25	3.00	2.75	1.50	1.00	2.50	1.25	1.00	1.00	0.75	0.25	0.00	0.00	0.25	0.50	0.25	0.421387	1.044434	1.314453	48.509998	-380.100006	-87.080002	221.00	-0.14	-0.04	18.25	16.75	12.00	12.25	7.00	9.25	1.50	5.75	0.75	1.50	0.75	0.75	3.25	0.75	0.25	0.00	-0.112793	0.161133	0.948242	-26.809999	11.270000	-3.430000	1068.00	-0.23	-0.09
2.24	1.75	2.50	1.75	0.00	0.00	0.75	1.00	0.25	0.75	0.75	0.25	0.00	0.25	0.00	0.25	0.00	0.236328	1.051270	1.318848	25.830000	-398.510010	-34.860001	123.00	-0.14	0.01	17.75	16.00	11.75	12.00	7.25	9.50	1.50	6.25	0.50	1.50	0.75	0.75	3.25	1.00	0.25	0.00	-0.111328	0.152832	0.932617	-28.910000	10.850000	-4.060000	1062.00	-0.22	-0.09
2.25	1.50	3.00	2.50	0.75	1.00	2.50	1.25	0.75	0.75	0.75	0.00	0.00	0.25	0.00	0.25	0.00	0.098145	1.084961	1.331543	6.370000	-412.089996	13.580000	186.00	-0.15	-0.04	17.00	15.25	11.75	12.25	7.50	9.75	1.50	6.50	0.75	1.75	1.00	1.00	4.50	1.00	0.50	0.00	-0.133789	0.144531	0.958496	-31.360001	11.410000	-4.620000	1086.00	-0.21	-0.10
2.26	2.25	3.25	2.75	1.25	1.25	2.75	1.25	1.00	0.50	0.75	0.00	0.25	0.25	0.00	0.00	0.00	-0.010742	1.086914	1.347656	-1.260000	-422.730011	53.760002	213.00	-0.18	-0.06	16.75	14.50	11.50	11.75	7.75	9.75	1.75	6.75	0.50	2.00	1.25	1.50	5.00	1.00	0.75	0.00	-0.122559	0.136230	0.944336	-29.540001	8.540000	-3.850000	1093.00	-0.20	-0.10
2.27	1.50	2.75	2.50	1.50	1.00	3.25	1.25	1.50	0.00	0.75	0.25	0.00	0.25	0.25	0.00	0.00	-0.130859	0.998535	1.327148	3.780000	-429.940002	83.230003	205.00	-0.16	-0.09	16.75	14.00	10.50	12.75	9.00	10.75	2.00	7.50	1.75	3.25	2.50	2.50	7.00	2.50	2.00	1.25	-0.127930	0.125488	0.998535	-26.530001	7.420000	-2.940000	1244.00	-0.15	-0.10
2.28	2.25	3.00	2.75	1.00	0.75	2.50	1.25	1.00	1.25	1.00	0.25	0.00	0.25	0.00	0.00	0.00	-0.266602	0.870605	1.275879	17.290001	-431.200012	100.870003	212.00	-0.15	-0.03	18.75	16.50	13.75	14.25	9.75	11.75	2.50	8.00	2.50	3.50	2.75	3.00	7.75	2.50	2.25	1.25	-0.134277	0.122070	0.951660	-21.139999	7.000000	-2.520000	1419.00	-0.15	-0.10
2.29	2.00	3.50	2.75	0.50	0.75	2.50	1.25	1.00	0.50	0.50	0.00	0.00	0.25	0.00	0.00	0.25	-0.394531	0.722656	1.251465	35.700001	-425.390015	107.730003	190.00	-0.18	-0.05	17.50	15.50	13.50	14.00	10.00	11.75	2.50	8.00	2.50	4.00	3.25	3.75	8.25	3.00	2.25	1.75	-0.137695	0.123047	0.948730	-17.360001	7.420000	-2.030000	1424.00	-0.14	-0.10
2.30	2.50	2.75	2.50	1.50	1.75	3.25	1.00	1.00	0.00	0.50	0.00	0.00	0.25	0.25	0.00	0.00	-0.542969	0.564941	1.246582	54.180000	-412.860016	105.070000	208.00	-0.20	-0.07	17.00	14.25	13.25	13.50	10.25	11.75	2.75	8.25	3.00	4.50	3.50	4.50	9.00	3.00	2.50	2.00	-0.122070	0.118652	0.957520	-13.790000	8.120000	-1.960000	1444.00	-0.12	-0.10
2.31	2.50	3.00	2.75	1.50	1.00	2.50	1.25	0.75	0.75	0.50	0.00	0.00	0.75	0.25	0.00	0.00	-0.652832	0.437012	1.266113	69.580002	-392.839996	92.400002	211.00	-0.17	-0.05	15.50	12.75	12.75	13.25	10.50	12.00	3.00	8.50	3.00	4.75	3.75	3.75	8.75	1.75	1.00	0.75	-0.117188	0.123047	0.974121	-9.520000	8.680000	-2.240000	1376.00	-0.13	-0.10
2.32	2.00	3.50	3.00	1.25	1.00	2.50	1.25	1.00	0.50	0.50	0.00	0.00	0.00	0.00	0.25	0.00	-0.666992	0.330566	1.404785	84.419998	-369.179993	71.190002	204.00	-0.19	-0.05	9.50	9.75	9.25	10.00	9.25	9.75	2.75	8.00	2.00	4.25	3.75	5.00	10.50	3.75	2.50	1.50	-0.134277	0.121582	0.967773	-7.350000	10.220000	-2.800000	1193.00	-0.08	-0.12
2.33	2.25	2.25	2.75	1.25	0.75	3.25	1.25	1.25	0.25	0.50	0.00	0.00	0.25	0.00	0.25	0.00	-0.681152	0.301270	1.681641	101.500000	-349.579987	46.830002	200.00	-0.17	-0.07	8.00	7.75	9.75	9.50	9.00	9.50	3.00	8.00	2.50	5.50	4.50	6.00	10.25	2.50	1.75	1.75	-0.134766	0.134277	0.980469	-6.090000	12.530000	-3.150000	1174.00	-0.06	-0.12
2.34	1.75	3.50	2.50	1.50	1.00	2.50	1.25	1.00	0.50	0.75	0.00	0.00	0.75	0.25	0.00	0.00	-0.804199	0.372070	1.926758	111.020004	-336.910004	29.889999	208.00	-0.17	-0.07	7.50	6.75	10.00	11.00	10.25	11.50	3.25	8.75	4.75	7.75	7.50	8.25	11.50	4.75	3.75	3.25	-0.127441	0.119629	0.955078	-5.040000	14.420000	-3.780000	1418.00	-0.02	-0.11
2.35	2.25	3.50	3.00	1.50	1.25	2.50	1.25	1.25	0.75	0.75	0.00	0.00	0.50	0.00	0.00	0.00	-0.984375	0.608398	2.157227	101.080002	-326.619995	31.639999	225.00	-0.17	-0.06	7.50	6.50	8.00	8.25	9.00	9.25	3.50	8.75	5.00	8.50	8.00	8.75	12.50	5.00	4.50	4.50	-0.134277	0.125488	0.967285	-4.200000	16.309999	-4.620000	1371.00	0.01	-0.11
2.36	1.75	2.50	3.00	1.75	0.75	2.00	1.25	1.00	1.25	0.25	0.25	0.00	0.25	0.00	0.00	0.00	-1.168457	1.037109	2.259766	70.980003	-319.829987	60.200001	199.00	-0.16	-0.04	7.75	6.75	8.75	8.75	10.00	9.75	3.50	9.00	5.50	8.50	8.75	9.25	13.00	5.75	5.00	5.00	-0.138184	0.134277	0.985840	-3.430000	18.549999	-5.320000	1456.00	0.01	-0.11
2.37	1.50	3.00	2.75	1.50	1.00	2.75	1.25	0.75	0.75	1.00	0.25	0.00	0.00	0.25	0.25	0.00	-1.328125	1.396973	2.378906	54.040001	-319.339996	112.000000	207.00	-0.15	-0.04	5.75	5.00	6.75	6.75	8.25	8.50	3.25	8.25	5.00	8.50	8.50	9.25	12.25	6.00	5.00	5.25	-0.132812	0.138184	0.956055	-0.910000	23.799999	-7.490000	1302.00	0.03	-0.11
2.38	2.25	3.00	2.75	1.75	1.25	2.50	1.00	1.00	0.75	0.75	0.00	0.00	0.00	0.00	0.00	0.00	-1.983398	1.185547	2.954102	119.910004	-339.640015	230.160004	207.00	-0.18	-0.05	5.75	5.50	6.25	6.75	8.00	8.50	3.25	8.50	5.75	9.25	9.25	9.75	12.75	6.50	5.00	5.50	-0.155273	0.117676	0.977539	-0.070000	26.389999	-8.540000	1346.00	0.04	-0.11
2.39	2.25	3.50	2.50	0.75	1.25	2.50	1.25	1.50	0.50	0.75	0.25	0.00	0.50	0.25	0.00	0.00	-2.542969	0.446777	3.163086	157.289993	-361.549988	279.299988	216.00	-0.16	-0.06	5.00	4.50	5.50	5.75	7.25	8.25	3.25	8.50	6.50	10.25	10.50	10.50	13.25	7.75	5.75	6.50	-0.171387	0.149414	0.986816	1.050000	29.400000	-9.170000	1370.00	0.07	-0.11
2.40	2.50	2.50	3.00	1.50	1.00	2.50	1.25	0.75	0.75	0.75	0.00	0.25	0.00	0.00	0.00	0.00	-3.449707	-0.139648	3.120117	157.009995	-380.589996	301.910004	205.00	-0.18	-0.03	4.25	3.00	5.00	5.25	6.50	7.50	3.00	8.25	6.75	10.00	10.25	10.75	13.50	9.00	7.00	7.00	-0.145508	0.066406	0.993164	3.080000	33.320000	-11.830000	1340.00	0.09	-0.11
2.41	1.75	3.50	2.75	1.75	1.00	2.75	1.25	0.50	0.75	0.75	0.00	0.00	0.25	0.00	0.25	0.00	-4.122070	-0.565430	2.430664	109.690002	-388.079987	303.380005	208.00	-0.17	-0.05	3.75	2.25	4.00	4.75	5.75	6.50	3.00	8.00	7.50	10.50	10.75	11.25	14.00	10.00	7.75	7.75	-0.175293	0.139160	0.998535	2.730000	37.939999	-11.900000	1339.00	0.11	-0.11
2.42	2.25	2.50	2.75	1.50	0.75	1.25	1.00	0.25	0.00	0.00	0.00	0.00	0.25	0.00	0.25	0.00	-4.755371	-0.570801	1.585938	29.680000	-377.649994	286.860016	152.00	-0.23	-0.03	3.25	2.25	3.25	3.50	4.50	5.75	2.75	7.75	7.75	10.75	11.25	11.50	14.25	11.75	8.25	8.25	-0.142578	0.157715	1.002441	3.920000	43.540001	-13.930000	1319.00	0.13	-0.11
2.43	2.00	2.75	3.00	1.00	1.00	2.00	1.25	1.00	1.00	0.50	0.25	0.00	0.25	0.25	0.25	0.00	-5.410156	-0.324707	0.581055	-43.189999	-349.019989	248.639999	202.00	-0.14	-0.03	2.25	1.75	2.50	3.00	3.25	5.00	2.25	7.50	8.25	11.25	11.75	12.00	14.50	13.50	9.25	8.75	-0.175293	0.178711	1.000488	5.040000	52.779999	-15.120000	1309.00	0.16	-0.11
2.44	2.25	2.75	2.75	1.75	1.00	0.25	1.00	1.00	0.75	0.50	0.00	0.25	0.00	0.00	0.00	0.00	-5.800781	0.086426	-0.401855	-64.470001	-298.410004	184.240005	175.00	-0.19	-0.02	1.00	1.50	2.00	2.50	2.00	3.75	2.00	6.50	8.25	11.50	12.25	12.50	14.50	15.25	10.00	9.25	-0.204102	0.153320	1.029297	9.800000	65.730003	-19.460001	1272.00	0.19	-0.11
2.45	2.00	3.50	3.00	2.75	1.00	3.00	1.00	1.00	0.00	0.75	0.00	0.25	0.25	0.00	0.00	0.00	-5.737793	0.320801	-1.083984	-26.880001	-217.770004	95.269997	222.00	-0.21	-0.09	1.25	1.00	1.75	2.25	1.75	2.75	1.50	5.75	8.75	11.50	12.50	12.50	14.25	17.00	10.50	9.25	-0.216309	0.135742	1.041992	14.910000	87.430000	-23.100000	1257.00	0.20	-0.10
2.46	1.00	1.25	1.25	0.00	0.50	0.25	0.75	0.00	0.00	0.00	0.00	0.00	0.00	0.00	0.00	0.00	-5.420898	0.258789	-1.109375	32.970001	-121.029999	6.650000	60.00	-0.23	0.05	1.25	1.00	1.25	2.00	1.25	1.75	1.25	5.00	9.00	11.75	12.75	12.75	14.00	18.75	11.25	9.75	-0.193359	0.120605	1.223145	23.799999	120.889999	-23.030001	1251.00	0.22	-0.09
2.47	0.75	0.75	1.25	0.00	0.00	0.00	0.75	0.00	0.00	0.00	0.00	0.00	0.00	0.00	0.00	0.00	-7.130371	-0.696777	-0.955566	30.309999	25.200001	-9.170000	44.00	0.00	0.00	1.25	1.00	1.25	1.50	0.75	1.50	1.00	3.50	9.00	11.50	12.75	12.75	13.50	20.00	11.75	10.00	-0.256348	0.167969	1.193359	37.380001	156.029999	-27.580000	1219.00	0.23	-0.08
2.48	3.00	5.00	2.25	1.75	0.75	0.00	1.00	0.00	0.00	0.00	0.00	0.00	0.00	0.00	0.00	0.00	-5.744629	-0.836914	-1.457520	-76.720001	165.550003	21.070000	158.00	-0.30	-0.02	1.00	0.75	1.00	1.50	1.00	1.25	0.75	2.75	9.00	11.50	13.00	12.50	12.75	21.25	12.50	10.25	-0.215332	0.124512	1.416016	39.549999	193.479996	-27.930000	1208.00	0.24	-0.07
2.49	11.00	10.25	5.25	5.25	0.50	0.25	0.75	0.25	0.75	0.00	0.25	0.25	0.25	0.50	0.00	0.00	-1.360352	0.168945	2.832031	-67.480003	310.589996	44.730000	404.00	-0.30	-0.02	0.75	0.75	0.75	1.25	0.75	1.00	0.75	2.00	9.00	11.25	13.00	12.25	12.00	22.50	12.75	10.25	-0.310059	0.170898	1.282227	42.000000	231.139999	-30.799999	1183.00	0.25	-0.07
2.50	16.50	15.75	7.75	8.00	1.00	1.25	0.75	0.00	0.00	0.00	0.00	0.00	0.25	0.00	0.00	0.00	0.687988	-1.670410	4.168457	-10.220000	288.119995	80.290001	577.00	-0.34	-0.04	0.50	0.75	0.75	1.25	0.50	1.00	0.50	1.25	8.75	11.00	12.75	12.00	11.25	23.50	13.25	10.25	-0.364746	0.108398	1.334961	15.120000	293.929993	-33.250000	1156.00	0.26	-0.06
2.51	16.50	16.25	9.50	9.00	2.25	2.75	0.75	0.00	0.00	0.00	0.00	0.00	0.00	0.00	0.00	0.00	-0.712402	-1.886719	2.795410	-15.400000	271.040009	28.490000	646.00	-0.33	-0.04	1.25	0.50	0.50	0.75	0.75	0.50	0.50	1.00	8.50	10.75	12.75	11.50	10.25	24.00	13.00	9.75	-0.415039	0.244141	1.275879	3.290000	313.179993	-34.369999	1123.00	0.26	-0.05
2.52	19.75	15.75	10.25	10.25	3.00	4.50	0.75	0.25	0.00	0.00	0.00	0.25	1.25	0.25	0.25	0.25	-0.843750	-0.144531	2.709961	26.950001	309.959991	-64.050003	757.00	-0.31	-0.05	0.50	0.50	0.25	0.75	0.50	0.50	0.50	0.75	8.25	10.25	12.50	11.00	9.25	24.50	13.00	9.25	-0.460938	0.233887	1.350586	-13.020000	345.100006	-42.139999	1079.00	0.28	-0.05
2.53	23.50	19.50	12.00	11.75	6.00	7.75	1.00	1.75	0.25	0.00	0.00	1.00	1.50	0.25	0.00	0.25	-0.276367	1.019043	1.546387	39.480000	152.949997	-42.980000	992.00	-0.29	-0.06	0.75	0.25	0.50	0.50	0.50	0.25	0.25	0.50	8.00	9.75	12.25	10.50	8.25	24.75	12.50	8.25	-0.519043	0.370117	1.358887	-34.790001	380.100006	-54.459999	1031.00	0.28	-0.04
2.54	21.75	18.25	10.75	10.25	5.50	7.50	1.00	1.00	0.00	0.00	0.00	0.00	0.00	0.00	0.00	0.00	0.048340	0.354980	1.007324	26.460001	150.289993	-6.230000	872.00	-0.31	-0.05	0.25	0.25	0.00	0.00	0.50	0.25	0.25	0.25	7.50	9.25	11.75	9.75	7.25	24.50	12.25	7.50	-0.698730	0.693359	1.551270	-43.330002	416.500000	-73.639999	963.00	0.29	-0.03
2.55	17.00	17.00	10.50	10.75	6.75	8.50	1.00	2.75	0.00	0.00	0.00	0.75	2.25	0.00	0.00	0.50	-0.151367	-0.210449	1.359375	-23.520000	140.559998	-7.980000	898.00	-0.27	-0.08	0.75	0.25	0.00	0.00	0.50	0.25	0.25	0.25	6.50	8.50	11.00	8.75	5.75	23.75	11.25	5.50	-0.837402	0.824219	1.965820	-35.700001	451.989990	-100.519997	881.00	0.29	-0.02
2.56	17.75	16.00	10.25	11.00	7.25	9.50	1.25	3.25	0.00	0.00	0.00	0.25	0.75	0.00	0.00	0.00	-0.362305	0.382812	1.778320	-59.709999	111.510002	-20.230000	904.00	-0.27	-0.08	0.50	0.25	0.00	0.00	0.25	0.50	0.25	0.00	5.50	7.75	10.00	8.00	4.75	22.00	9.75	2.75	-0.995117	0.775391	2.057617	-46.060001	490.980011	-134.610001	772.00	0.29	-0.02
2.57	20.50	19.25	13.00	13.00	9.00	11.75	1.50	6.25	0.75	0.50	0.25	0.50	2.75	0.25	0.50	0.00	-0.339844	0.624023	1.312988	-77.699997	75.739998	-12.950000	1176.00	-0.24	-0.09	0.00	0.00	0.00	0.00	0.00	0.00	0.25	0.00	3.75	6.50	8.50	6.50	3.00	19.25	8.00	0.25	-1.201172	0.733398	2.806152	-50.889999	516.530029	-160.089996	604.00	0.31	-0.00
2.58	21.50	19.00	13.75	13.50	9.75	12.50	1.50	6.50	0.75	0.50	0.00	0.75	2.25	0.25	0.25	0.00	-0.156250	0.187500	1.181152	-84.279999	50.330002	-0.980000	1214.00	-0.24	-0.09	0.00	0.00	0.00	0.00	0.00	0.25	0.25	0.00	1.75	5.00	7.00	4.75	1.25	15.75	6.25	0.00	-1.257324	0.751465	3.060547	-14.490000	520.309998	-162.470001	453.00	0.31	-0.00
2.59	20.00	18.75	13.50	13.25	10.00	11.50	1.25	6.50	0.50	0.25	0.25	0.75	2.25	0.00	0.00	0.00	-0.081543	0.007812	1.078613	-72.309998	33.880001	-3.500000	1167.00	-0.25	-0.09	0.00	0.00	0.00	0.00	0.00	0.25	0.25	0.00	0.75	3.25	4.50	2.75	0.75	12.25	4.75	0.00	-1.688965	0.718750	3.770020	12.810000	512.609985	-183.820007	313.00	0.32	0.01
2.60	17.00	19.75	14.00	13.25	10.75	13.00	1.75	7.00	0.50	0.50	0.00	0.50	2.50	0.25	0.25	0.00	-0.079590	0.230957	0.939453	-56.910000	25.690001	-5.810000	1197.00	-0.23	-0.10	0.00	0.00	0.00	0.00	0.00	0.00	0.25	0.00	0.25	2.25	2.50	1.75	0.50	8.50	2.25	0.00	-1.202148	0.552734	4.575195	43.959999	481.390015	-181.789993	191.00	0.32	0.02
2.61	22.75	19.50	14.00	13.75	11.00	13.25	1.75	7.25	0.75	0.75	0.25	0.75	2.75	0.25	0.50	0.00	-0.038574	0.189941	0.955566	-52.290001	30.730000	-1.540000	1293.00	-0.23	-0.09	0.00	0.00	0.00	0.00	0.00	0.00	0.50	0.00	0.00	1.75	1.50	1.25	0.50	5.00	1.25	0.00	-1.234375	1.137695	4.130371	62.510002	459.130005	-195.440002	125.00	0.30	0.02
2.62	22.00	19.25	13.75	13.50	11.50	13.50	1.75	7.50	0.75	0.75	0.00	0.75	1.00	0.00	0.00	0.00	-0.019043	0.080078	0.964355	-48.720001	34.860001	-0.840000	1262.00	-0.24	-0.09	0.50	0.50	0.25	0.25	0.00	0.00	0.75	0.00	0.00	0.75	0.50	0.50	0.00	1.00	0.75	0.00	1.422852	1.487305	0.963867	66.639999	312.059998	-237.229996	67.00	0.10	0.02
2.63	21.50	18.75	13.50	13.50	11.75	13.50	2.00	7.75	1.25	1.00	0.50	0.50	3.00	0.25	0.25	0.25	-0.049316	0.143555	0.922852	-44.240002	34.930000	-2.520000	1298.00	-0.22	-0.09	0.50	0.50	0.25	0.25	0.25	0.00	0.75	0.00	0.00	1.00	0.75	0.00	0.00	0.50	0.50	0.00	6.212402	4.200684	5.304688	80.220001	188.649994	-235.339996	62.00	0.06	0.04
2.64	20.50	18.00	13.25	13.00	12.25	13.50	2.25	7.75	0.75	1.25	0.50	1.00	3.50	0.25	0.25	0.50	-0.021484	0.170410	0.866699	-48.020000	39.340000	-1.820000	1288.00	-0.22	-0.09	0.25	0.25	0.00	0.00	0.00	0.00	0.75	0.00	0.00	0.75	0.50	0.25	0.00	0.25	0.25	0.00	1.447266	2.222168	6.542969	73.849998	-145.949997	-132.789993	40.00	0.00	0.00
2.65	19.25	17.25	12.75	12.75	12.50	13.50	2.25	8.25	1.25	1.25	0.50	0.75	4.25	0.25	0.25	0.25	-0.055664	0.115723	1.028809	-53.340000	40.529999	-0.630000	1278.00	-0.21	-0.09	0.25	0.25	0.00	0.00	0.25	0.00	0.75	0.00	0.00	0.50	0.25	0.00	0.00	0.25	0.50	0.00	2.379883	1.671387	2.399902	48.720001	-302.540009	-42.560001	37.00	0.00	0.00
2.66	17.75	16.25	12.50	12.00	12.75	13.50	2.75	8.25	0.75	1.75	0.75	1.25	4.25	0.75	0.25	0.25	-0.097168	0.105957	0.969727	-50.400002	37.170002	-0.910000	1262.00	-0.20	-0.10	0.75	0.00	0.00	0.00	0.25	0.00	0.75	0.00	0.00	0.25	0.25	0.00	0.00	0.25	0.00	0.00	1.927246	1.590820	0.973633	0.420000	-324.730011	-9.660000	32.00	0.00	0.00
2.67	16.50	15.25	12.00	11.75	12.75	13.25	3.00	8.50	1.50	2.00	1.25	1.00	5.00	0.75	0.50	0.50	-0.055176	0.137695	0.968750	-45.990002	38.500000	-0.770000	1262.00	-0.18	-0.10	0.50	0.00	0.00	0.00	0.00	0.00	0.75	0.00	0.00	0.00	0.00	0.00	0.00	0.00	0.00	0.00	1.231445	1.811523	1.250000	23.240000	-301.630005	1.960000	18.00	0.00	0.00
2.68	15.00	14.25	11.25	11.25	12.50	13.00	3.50	8.75	1.75	2.25	1.25	1.75	5.50	0.75	0.50	0.50	-0.098145	0.051270	0.985840	-24.850000	31.710001	0.910000	1246.00	-0.17	-0.10	0.25	0.25	0.25	0.25	0.00	0.00	0.75	0.00	0.00	0.00	0.00	0.00	0.00	0.00	0.00	0.00	1.414551	1.565430	1.382324	79.449997	-302.470001	6.650000	24.00	0.00	0.00
2.69	13.00	12.75	10.50	10.50	12.25	12.75	3.50	9.00	1.75	2.50	1.50	1.75	6.00	0.75	0.75	0.50	-0.103516	0.091309	1.048340	-14.490000	31.360001	0.280000	1202.00	-0.15	-0.10	0.50	0.00	0.00	0.00	0.00	0.00	0.75	0.00	0.00	0.00	0.00	0.00	0.00	0.00	0.00	0.00	1.387695	1.125000	1.698730	126.349998	-332.429993	12.530000	18.00	0.00	0.00
2.70	11.50	11.50	9.75	10.00	11.75	12.50	3.75	9.00	2.25	2.75	1.75	2.50	7.50	1.25	0.75	0.75	-0.140137	0.079102	0.990234	-6.090000	30.799999	-1.260000	1194.00	-0.13	-0.11	0.50	0.00	0.00	0.00	0.00	0.00	0.75	0.00	0.00	0.00	0.00	0.00	0.00	0.00	0.00	0.00	1.229492	0.791992	1.738770	133.630005	-370.790009	25.549999	18.00	0.00	0.00
2.71	9.75	10.25	9.50	9.75	11.25	12.00	3.75	9.00	2.50	3.25	2.25	2.75	8.25	1.50	1.00	1.00	-0.113770	0.101562	0.978027	-2.450000	30.799999	-3.220000	1175.00	-0.11	-0.11	0.50	0.00	0.00	0.00	0.00	0.00	0.75	0.00	0.00	0.00	0.00	0.00	0.00	0.00	0.00	0.00	1.072754	0.591309	1.678223	108.849998	-402.779999	42.070000	18.00	0.00	0.00
2.72	8.75	9.50	8.75	9.25	10.75	11.50	3.75	9.00	2.75	3.50	2.50	3.25	9.00	1.50	0.75	1.50	-0.122070	0.095703	1.002930	-1.050000	29.610001	-4.200000	1151.00	-0.10	-0.12	0.00	0.00	0.00	0.00	0.00	0.00	0.75	0.00	0.00	0.00	0.00	0.00	0.00	0.00	0.00	0.00	0.807129	0.609863	1.617676	87.639999	-425.600006	53.760002	12.00	0.00	0.00
2.73	8.00	8.75	8.25	9.00	10.25	11.00	3.75	9.25	2.75	4.00	3.00	3.50	9.25	1.50	1.00	1.75	-0.128906	0.112305	0.958008	-0.630000	28.840000	-5.040000	1139.00	-0.09	-0.12	0.50	0.00	0.00	0.00	0.00	0.00	0.75	0.00	0.00	0.00	0.00	0.00	0.00	0.00	0.00	0.00	0.512695	0.554199	1.589355	92.050003	-439.950012	57.889999	18.00	0.00	0.00
2.74	6.75	8.25	8.00	8.50	9.50	10.75	3.75	9.00	3.25	4.50	3.50	4.50	9.75	1.75	1.25	2.00	-0.135254	0.112305	0.952148	-2.100000	28.700001	-5.600000	1136.00	-0.07	-0.12	0.25	0.00	0.00	0.00	0.00	0.00	0.75	0.00	0.00	0.00	0.00	0.00	0.00	0.00	0.00	0.00	0.110352	0.223633	1.459473	142.169998	-446.390015	43.259998	15.00	0.00	0.00
2.75	6.75	7.50	7.75	8.00	9.25	10.50	3.75	9.00	3.50	4.75	4.00	5.50	10.25	1.75	1.25	2.50	-0.137695	0.102539	0.953613	-3.570000	28.700001	-5.320000	1145.00	-0.05	-0.12	0.00	0.00	0.00	0.00	0.00	0.00	0.75	0.00	0.00	0.00	0.00	0.00	0.00	0.00	0.00	0.00	-0.087402	0.060059	1.502441	163.589996	-435.049988	30.660000	12.00	0.00	0.00
2.76	6.00	7.25	7.50	7.75	8.75	10.00	3.75	9.00	4.00	5.75	4.50	6.75	10.75	2.50	1.50	3.25	-0.157715	0.086426	0.954102	-4.270000	27.299999	-5.110000	1174.00	-0.03	-0.12	0.00	0.25	0.00	0.00	0.25	0.00	0.75	0.00	0.00	0.00	0.00	0.00	0.00	0.00	0.00	0.00	-0.222656	-0.017090	1.674805	176.750000	-419.510010	20.650000	18.00	0.00	0.00
2.77	6.00	6.50	7.00	7.50	8.25	9.75	3.75	9.00	4.75	6.25	5.50	7.25	11.00	2.50	1.50	3.50	-0.134277	0.088379	0.963379	-3.850000	26.110001	-5.040000	1186.00	-0.02	-0.12	0.25	0.00	0.00	0.00	0.00	0.00	0.75	0.00	0.00	0.00	0.00	0.00	0.00	0.00	0.00	0.00	-0.297852	-0.038574	1.900879	186.830002	-405.649994	14.280000	15.00	0.00	0.00
2.78	5.50	6.25	6.75	6.75	8.00	9.50	3.75	8.75	4.50	7.50	6.75	8.00	11.50	3.00	1.75	4.50	-0.145996	0.097168	0.964355	-3.150000	26.250000	-5.320000	1207.00	-0.00	-0.12	0.00	0.00	0.00	0.00	0.00	0.00	0.75	0.00	0.00	0.00	0.00	0.00	0.00	0.00	0.00	0.00	-0.382324	-0.034180	2.106445	198.380005	-394.940002	10.360000	12.00	0.00	0.00
2.79	5.25	6.00	6.25	6.50	7.50	9.00	3.75	9.00	5.00	8.00	7.75	8.50	12.00	3.25	2.00	5.25	-0.167969	0.088867	0.950684	-2.380000	26.110001	-5.670000	1229.00	0.01	-0.13	0.50	0.00	0.00	0.00	0.00	0.00	0.75	0.00	0.00	0.00	0.00	0.00	0.00	0.00	0.00	0.00	-0.530273	-0.051758	2.319824	211.539993	-386.399994	9.380000	18.00	0.00	0.00
2.80	5.00	5.75	6.00	6.00	7.00	8.75	3.50	9.00	5.25	8.25	8.00	8.75	12.50	3.75	2.50	6.00	-0.138184	0.086914	0.947754	-1.050000	25.690001	-5.180000	1234.00	0.03	-0.13	0.00	0.00	0.00	0.25	0.00	0.00	0.75	0.00	0.00	0.00	0.00	0.00	0.00	0.00	0.00	0.00	-0.794434	0.013672	2.489746	215.320007	-377.160004	17.080000	15.00	0.00	0.00
2.81	5.00	5.75	5.75	6.00	6.25	8.25	3.25	8.50	5.75	8.75	8.25	9.25	13.25	4.75	3.00	6.75	-0.152832	0.075195	0.950684	-0.210000	25.760000	-4.060000	1251.00	0.04	-0.13	0.00	0.00	0.00	0.00	0.25	0.00	0.75	0.00	0.00	0.00	0.00	0.00	0.00	0.00	0.00	0.00	-1.124512	0.192871	2.629395	204.539993	-368.829987	40.040001	15.00	0.00	0.00
2.82	4.25	5.00	4.75	4.50	5.25	7.75	3.50	9.00	6.50	9.50	9.00	9.00	12.50	4.50	3.50	7.75	-0.162109	0.085449	0.966309	0.700000	27.020000	-2.940000	1227.00	0.06	-0.12	0.25	0.25	0.00	0.00	0.00	0.00	0.75	0.00	0.00	0.00	0.00	0.00	0.00	0.00	0.00	0.00	-1.483398	0.466797	2.768066	194.039993	-359.660004	73.570000	18.00	0.00	0.00
2.83	4.50	5.50	5.25	5.00	5.50	8.00	3.50	9.00	7.50	10.00	9.75	10.50	14.25	6.75	5.25	8.50	-0.156738	0.105957	0.978027	3.710000	31.290001	-2.870000	1360.00	0.07	-0.12	0.00	0.00	0.00	0.00	0.00	0.00	0.75	0.00	0.00	0.00	0.00	0.00	0.00	0.00	0.00	0.00	-1.818848	0.685059	3.003906	201.529999	-350.910004	110.110001	12.00	0.00	0.00
2.84	4.25	5.25	5.00	5.50	5.00	7.50	3.25	9.00	7.75	10.50	10.25	11.25	14.75	7.75	5.50	9.50	-0.192383	0.097168	1.008789	4.900000	35.630001	-4.550000	1388.00	0.08	-0.12	0.00	0.00	0.00	0.00	0.00	0.00	0.75	0.00	0.00	0.00	0.00	0.00	0.00	0.00	0.00	0.00	-2.304688	0.676270	3.191895	220.990005	-346.290009	147.490005	12.00	0.00	0.00
2.85	2.50	3.50	2.75	2.75	3.50	6.00	2.75	8.25	7.50	10.25	9.75	10.75	14.25	8.00	5.50	10.00	-0.197266	0.118652	1.020508	9.030000	43.330002	-7.980000	1217.00	0.12	-0.13	0.00	0.00	0.00	0.00	0.00	0.00	0.75	0.00	0.00	0.00	0.00	0.00	0.00	0.00	0.00	0.00	-2.847656	0.306641	3.162598	233.380005	-344.540009	191.449997	12.00	0.00	0.00
2.86	2.25	3.50	3.00	2.00	2.50	5.50	2.50	8.00	7.75	10.50	10.25	11.25	14.75	9.00	6.50	10.75	-0.169434	0.117676	1.056152	13.440001	52.360001	-10.850000	1229.00	0.14	-0.12	0.00	0.00	0.25	0.00	0.25	0.00	0.75	0.00	0.00	0.00	0.00	0.00	0.00	0.00	0.00	0.00	-4.063477	-0.808105	2.171875	209.229996	-317.029999	302.820007	18.00	0.00	0.00
2.87	2.25	3.25	2.50	0.00	2.00	5.00	2.00	8.00	8.00	11.00	10.75	12.00	16.25	10.25	7.25	11.75	-0.229980	0.138672	1.044922	20.510000	62.860001	-13.650000	1241.00	0.16	-0.13	0.25	0.00	0.00	0.00	0.00	0.00	0.75	0.00	0.00	0.00	0.00	0.00	0.00	0.00	0.00	0.00	-4.554688	-1.576660	1.555176	189.839996	-270.200012	357.630005	15.00	0.00	0.00
2.88	1.75	2.75	2.75	1.25	1.25	4.50	1.50	7.50	8.25	11.25	11.00	12.25	15.25	11.75	7.75	13.25	-0.195312	0.118652	1.090820	29.610001	75.599998	-15.820000	1248.00	0.17	-0.12	0.00	0.00	0.00	0.00	0.00	0.00	0.75	0.00	0.00	0.00	0.00	0.00	0.00	0.00	0.00	0.00	-5.017578	-2.171387	1.290527	142.100006	-211.680008	377.440002	12.00	0.00	0.00
2.89	1.75	1.75	2.50	1.25	1.25	4.00	1.25	6.50	8.25	11.50	11.50	12.75	15.50	12.75	8.50	14.00	-0.257324	0.133789	1.114258	44.520000	92.540001	-15.190001	1247.00	0.18	-0.12	0.75	0.00	0.00	0.00	0.00	0.00	0.75	0.00	0.00	0.00	0.00	0.00	0.00	0.00	0.00	0.00	-5.190430	-2.365234	1.026855	76.650002	-160.720001	339.010010	21.00	0.00	0.00
2.90	1.25	2.25	4.00	1.00	0.75	3.75	1.25	5.50	8.50	11.50	11.50	13.00	15.25	14.75	10.00	15.00	-0.240723	0.171387	1.219238	57.959999	126.000000	-17.010000	1282.00	0.19	-0.11	0.00	0.00	0.00	0.00	0.00	0.00	0.50	0.00	0.00	0.00	0.00	0.00	0.00	0.00	0.00	0.00	-5.354004	-2.368164	0.592285	42.490002	-118.510002	242.550003	8.00	0.00	0.00
2.91	1.25	2.25	2.50	0.50	0.75	2.75	0.75	4.75	8.25	11.50	11.75	12.50	15.25	15.25	9.50	15.75	-0.265625	0.190430	1.189941	75.320000	160.229996	-19.320000	1222.00	0.21	-0.11	0.25	0.00	0.00	0.00	0.00	0.00	0.50	0.00	0.00	0.00	0.00	0.00	0.00	0.00	0.00	0.00	-5.445801	-2.345215	0.151367	27.580000	-68.949997	112.629997	11.00	0.00	0.00
2.92	0.75	1.50	2.00	1.00	0.75	2.75	0.50	3.75	8.25	11.25	11.75	13.00	15.00	16.25	10.00	16.25	-0.253906	0.170898	1.267578	80.290001	201.740005	-18.969999	1206.00	0.22	-0.11	0.50	0.25	0.00	1.00	0.00	0.00	0.50	0.00	0.00	0.00	0.00	0.00	0.00	0.00	0.00	0.00	-6.526855	-2.908203	-0.348633	-40.459999	24.010000	-4.480000	28.00	0.00	0.00
2.93	1.00	2.00	2.25	2.50	0.75	3.00	0.50	3.50	8.00	11.00	11.75	12.75	14.50	17.00	10.75	16.75	-0.339844	0.176270	1.265137	85.050003	243.529999	-21.280001	1238.00	0.21	-0.11	2.25	1.75	1.00	1.00	0.00	0.00	0.50	0.00	0.00	0.00	0.00	0.00	0.00	0.00	0.00	0.00	-7.271484	-2.407227	-0.351562	-166.460007	132.020004	-91.910004	76.00	-0.31	0.00
2.94	1.50	2.25	2.00	0.75	0.75	3.75	0.50	2.75	7.50	10.75	11.75	12.50	14.00	17.75	10.75	17.00	-0.381836	0.176270	1.312500	87.220001	277.829987	-23.730000	1210.00	0.22	-0.10	5.75	7.00	2.75	3.00	0.25	0.00	0.50	0.00	0.00	0.00	0.00	0.00	0.00	0.00	0.00	0.00	-0.969238	-0.051270	0.813477	-226.309998	265.019989	-158.830002	216.00	-0.34	-0.03
2.95	1.00	2.00	1.75	0.25	0.50	2.25	0.50	2.50	7.25	10.00	11.75	12.25	13.00	18.25	11.25	16.75	-0.355469	0.244141	1.381348	80.570000	303.589996	-27.440001	1152.00	0.23	-0.10	16.75	19.00	5.25	8.00	0.50	0.00	0.50	0.00	0.00	0.00	0.00	0.00	0.00	0.00	0.00	0.00	1.375000	1.822266	3.563965	-206.220001	269.290009	-152.880005	555.00	-0.36	-0.04
2.96	1.00	2.00	1.00	0.75	0.50	1.75	0.50	1.75	6.50	9.75	11.50	12.00	12.00	18.50	11.50	16.25	-0.458008	0.293945	1.444336	58.939999	326.619995	-30.030001	1104.00	0.24	-0.09	26.25	26.00	8.75	11.00	0.50	0.50	0.50	0.00	0.00	0.00	0.00	0.25	0.00	0.00	0.00	0.00	0.134766	1.738281	1.327148	-107.309998	222.389999	-82.669998	821.00	-0.36	-0.04
2.97	0.75	1.75	1.75	0.00	0.25	1.25	0.50	2.00	5.50	9.00	11.25	11.50	11.00	19.00	11.00	15.00	-0.479492	0.338379	1.332031	51.380001	361.549988	-36.889999	1045.00	0.25	-0.09	29.50	27.25	11.00	13.75	1.25	2.50	0.50	0.50	0.00	0.00	0.00	0.25	0.25	0.00	0.00	0.00	-0.808105	-0.269531	2.872070	-64.190002	346.500000	-34.020000	974.00	-0.35	-0.05
2.98	0.75	2.25	1.50	0.00	0.25	1.25	0.50	1.75	5.00	8.50	11.25	10.75	9.75	18.50	10.50	13.75	-0.638672	0.620117	1.771484	10.220000	443.940002	-53.830002	991.00	0.24	-0.09	29.25	27.00	12.75	15.50	2.25	4.50	0.50	0.75	0.00	0.00	0.00	0.25	0.50	0.00	0.00	0.00	-0.721680	0.066406	3.832520	-24.639999	285.880005	-69.440002	1053.00	-0.33	-0.05
2.99	0.75	2.00	2.50	0.00	0.25	1.25	0.50	0.00	2.00	8.00	10.75	10.25	8.50	18.00	9.75	11.00	-0.652344	0.729980	1.652344	7.210000	496.649994	-74.690002	870.00	0.24	-0.09	27.25	26.00	13.25	16.25	2.75	6.50	0.75	1.25	0.25	0.00	0.00	0.25	0.50	0.00	0.00	0.00	-0.345703	0.918457	1.367188	-8.330000	156.169998	-55.160000	1081.00	-0.32	-0.06
3.00	0.00	0.00	0.75	0.00	0.25	1.00	0.50	0.50	2.50	7.75	11.00	10.00	7.25	19.00	10.00	9.25	-1.159180	0.570801	2.040527	-8.470000	561.190002	-100.590004	820.00	0.28	-0.08	25.25	24.75	13.25	16.00	3.50	7.50	1.00	2.00	0.25	0.00	0.00	0.25	1.00	0.00	0.00	0.00	-0.174805	1.163574	0.425781	-19.040001	137.130005	-19.389999	1085.00	-0.31	-0.07
3.01	0.75	3.00	2.25	1.25	0.75	2.25	0.75	1.25	2.25	7.25	10.25	8.75	6.25	15.25	7.50	6.25	-1.359375	1.060059	3.752930	-8.470000	598.220032	-113.540001	807.00	0.20	-0.08	24.00	24.00	13.50	16.00	4.25	8.25	1.00	3.00	0.25	0.00	0.00	0.50	1.50	0.25	0.00	0.00	-0.196777	0.157715	1.279785	-68.250000	123.129997	6.020000	1111.00	-0.29	-0.08
3.02	0.25	1.75	0.25	0.75	0.75	1.25	0.75	1.25	2.00	6.00	8.75	8.00	5.00	13.50	6.00	4.00	-1.577637	0.516602	3.313477	3.710000	608.929993	-126.910004	644.00	0.23	-0.08	23.25	23.50	14.25	16.50	5.25	9.00	1.25	4.00	0.25	0.00	0.00	0.50	1.50	0.25	0.00	0.00	-0.311523	0.048828	1.337891	-86.449997	82.669998	-1.820000	1155.00	-0.28	-0.08
3.03	0.00	1.00	0.75	0.00	0.00	1.00	0.50	0.00	0.00	2.75	5.75	5.25	0.00	8.75	2.25	1.25	-1.432617	0.046387	4.159668	46.480000	593.530029	-122.150002	312.00	0.24	-0.05	25.25	24.00	15.00	17.00	6.00	9.50	1.25	5.00	0.50	0.00	0.00	0.50	2.00	0.50	0.25	0.00	-0.313965	0.498535	1.127441	-88.480003	50.750000	-5.810000	1242.00	-0.27	-0.08
3.04	2.25	1.50	1.75	0.00	0.50	1.25	0.75	0.00	0.00	3.50	5.00	5.25	0.00	7.75	2.00	0.75	-0.655762	-0.676270	3.879395	52.709999	570.359985	-134.889999	352.00	0.15	-0.03	26.25	24.50	15.50	17.25	6.75	10.00	1.25	5.25	0.25	0.25	0.00	0.25	1.75	0.50	0.00	0.00	-0.140137	0.274902	1.056641	-94.570000	39.689999	0.910000	1278.00	-0.28	-0.08
3.05	1.50	1.25	1.25	0.50	0.00	1.75	0.50	0.50	0.25	2.75	3.25	2.00	0.00	3.00	0.50	0.00	0.123047	0.647949	3.042969	27.090000	541.520020	-138.039993	217.00	0.07	-0.05	26.00	24.50	15.75	17.25	7.25	10.00	1.25	5.50	0.25	0.25	0.00	0.25	1.75	0.25	0.00	0.00	-0.102539	0.136719	1.177734	-86.730003	33.950001	-0.840000	1286.00	-0.28	-0.08
3.06	0.00	0.25	0.00	0.00	0.00	0.00	0.50	0.00	0.00	1.00	0.25	0.00	0.00	0.00	0.00	0.00	1.541016	1.675781	2.830566	11.690000	546.280029	-147.000000	25.00	0.00	0.00	25.50	24.00	15.50	16.75	7.25	10.00	1.25	5.25	0.25	0.25	0.25	0.50	2.00	0.50	0.25	0.00	-0.089844	0.225586	1.037598	-66.080002	25.549999	-3.500000	1276.00	-0.27	-0.08
3.07	3.25	3.50	3.00	0.50	0.00	0.00	0.75	0.00	0.00	1.25	1.50	1.00	0.00	0.75	0.50	0.00	0.210449	1.574707	2.927246	34.509998	399.350006	-144.479996	183.00	-0.14	-0.00	25.00	23.00	15.50	16.25	7.50	9.50	1.25	5.50	0.25	0.50	0.25	0.25	1.75	0.50	0.25	0.00	-0.066406	0.211914	0.966309	-54.670002	27.299999	-1.820000	1253.00	-0.27	-0.08
3.08	0.25	0.75	1.75	0.00	0.50	0.50	1.00	0.00	0.25	1.50	1.00	0.25	0.00	0.00	0.00	0.00	1.808105	1.506836	6.180664	37.380001	220.290009	-160.440002	95.00	-0.02	0.04	23.50	22.25	14.75	15.50	7.50	9.75	1.25	5.50	0.25	0.75	0.00	0.50	2.00	0.50	0.25	0.00	-0.035156	0.170410	0.943359	-48.650002	28.770000	-1.400000	1218.00	-0.26	-0.08
3.09	1.50	3.00	2.75	1.00	0.75	2.00	1.25	1.00	1.00	2.00	1.50	0.75	0.75	0.75	0.75	0.50	2.324219	0.160645	5.137207	-52.360001	-118.160004	-94.849998	251.00	-0.05	-0.05	22.50	20.75	14.25	14.75	7.75	9.50	1.25	5.50	0.25	0.75	0.25	0.50	2.25	0.50	0.25	0.00	-0.037109	0.188965	0.922363	-45.220001	29.540001	-1.960000	1182.00	-0.26	-0.08
3.10	2.50	3.50	2.75	1.50	1.00	2.25	1.00	1.00	0.75	1.75	1.00	0.50	0.50	0.50	0.50	0.50	1.891113	0.605957	2.278320	-101.709999	-296.450012	-60.480000	253.00	-0.11	-0.06	21.00	19.00	13.75	13.75	7.50	9.25	1.50	5.75	0.25	0.75	0.25	0.50	2.50	0.50	0.25	0.00	-0.116211	0.176270	0.980957	-39.130001	28.280001	-1.890000	1134.00	-0.25	-0.08
3.11	2.50	3.50	2.25	1.50	0.50	2.25	1.25	1.00	1.25	1.75	1.00	0.50	0.50	0.50	0.25	0.25	1.336426	1.213867	1.355957	-123.129997	-327.250000	-92.820000	248.00	-0.10	-0.05	19.50	17.50	13.00	13.25	7.75	9.25	1.50	5.75	0.25	1.00	0.75	0.50	2.75	0.50	0.25	0.00	-0.101074	0.197754	0.950195	-36.959999	27.580000	-1.260000	1101.00	-0.24	-0.09
3.12	2.50	3.25	2.75	1.75	1.25	2.50	1.25	1.00	1.00	1.75	1.00	0.25	0.50	0.00	0.50	0.25	1.189941	1.489746	1.183594	-39.270000	-323.049988	-116.760002	258.00	-0.11	-0.05	18.00	15.75	12.25	12.25	7.50	9.00	1.50	6.00	0.25	1.00	0.50	0.50	3.00	0.75	0.00	0.00	-0.108398	0.161621	0.964355	-35.840000	26.389999	-0.280000	1042.00	-0.23	-0.09
3.13	2.00	3.00	2.75	1.50	1.00	2.25	1.25	1.00	1.00	1.75	0.50	0.00	0.00	0.25	0.00	0.25	0.927734	1.007324	1.416504	121.800003	-356.860016	-115.570000	224.00	-0.13	-0.03	16.50	14.75	11.50	11.50	7.50	9.00	1.25	6.25	0.25	1.25	0.75	0.75	3.50	0.75	0.25	0.00	-0.096191	0.160156	0.967285	-34.930000	24.920000	-0.980000	1013.00	-0.22	-0.10
3.14	2.50	4.00	1.50	0.00	0.25	1.50	1.25	1.00	0.50	1.25	0.75	0.00	0.25	0.25	0.50	0.00	0.693359	0.827637	1.497070	128.309998	-381.079987	-86.239998	185.00	-0.13	-0.04	18.75	16.25	13.25	11.75	7.75	8.75	1.50	6.50	0.50	1.25	0.75	1.00	4.25	1.00	1.50	0.75	-0.111816	0.168457	0.944824	-32.480000	23.940001	-1.750000	1121.00	-0.21	-0.09
3.15	2.25	3.50	3.00	1.25	1.00	2.75	1.25	1.25	0.75	1.25	0.50	0.00	0.25	0.25	0.25	0.00	0.489258	0.742188	1.543457	96.180000	-405.440002	-45.430000	237.00	-0.14	-0.05	17.00	14.50	12.50	12.75	8.50	9.50	1.50	7.50	2.00	2.50	2.00	2.25	6.25	2.00	1.75	1.00	-0.103027	0.166504	0.955078	-31.290001	24.639999	-2.520000	1218.00	-0.16	-0.10
3.16	2.75	3.25	2.75	1.75	0.75	2.25	1.25	1.00	1.00	1.25	0.25	0.00	0.25	0.00	0.25	0.25	0.290527	0.776367	1.505371	59.010002	-425.739990	-2.660000	229.00	-0.15	-0.04	14.75	13.00	12.00	12.00	8.75	10.25	2.00	7.75	2.25	3.00	2.25	2.75	7.25	2.25	2.00	1.25	-0.096191	0.175781	0.956055	-29.260000	21.700001	-4.270000	1220.00	-0.14	-0.10
3.17	2.75	2.25	3.75	1.25	0.75	2.75	1.25	1.00	0.75	1.25	0.00	0.00	0.50	0.00	0.00	0.00	0.126953	0.832520	1.456543	37.590000	-440.019989	35.349998	223.00	-0.16	-0.04	13.25	11.50	11.25	11.50	8.50	10.00	2.00	7.75	2.25	3.25	2.50	3.00	7.75	2.25	2.00	1.25	-0.146973	0.149414	0.982422	-26.880001	17.920000	-5.460000	1180.00	-0.13	-0.11
3.18	2.00	3.00	2.50	1.25	1.00	2.00	1.25	1.00	0.75	1.00	0.00	0.00	0.25	0.25	0.75	0.00	-0.018066	0.805664	1.416016	38.849998	-447.790009	65.029999	207.00	-0.13	-0.04	12.00	9.75	10.75	11.00	8.75	10.00	2.25	8.00	2.50	3.75	3.00	4.00	8.50	2.75	2.50	1.75	-0.121094	0.153809	0.951660	-25.270000	16.590000	-6.090000	1195.00	-0.10	-0.11
3.19	2.00	3.00	2.75	1.25	1.00	2.25	1.25	1.00	1.00	1.25	0.00	0.00	0.50	0.25	0.25	0.00	-0.152832	0.671387	1.419922	55.860001	-449.470001	85.330002	216.00	-0.13	-0.04	10.25	9.00	10.25	10.50	8.75	9.75	2.50	8.25	2.75	4.25	3.50	4.50	9.50	2.75	2.50	2.00	-0.115234	0.138672	0.949219	-23.940001	16.590000	-5.950000	1192.00	-0.08	-0.12
3.20	2.25	2.75	3.25	1.00	0.75	0.50	1.25	0.50	0.50	0.50	0.00	0.00	0.25	0.00	0.25	0.00	-0.281250	0.466309	1.400879	73.709999	-445.480011	96.529999	167.00	-0.19	0.00	9.00	7.50	9.25	9.75	8.50	9.50	2.50	8.25	3.25	5.50	4.25	5.00	10.00	3.00	3.00	2.50	-0.119629	0.133789	0.979492	-19.389999	16.170000	-5.740000	1187.00	-0.06	-0.12
3.21	1.75	3.50	3.00	1.25	1.00	2.50	1.00	1.00	1.00	1.00	0.25	0.00	0.50	0.25	0.00	0.00	-0.412109	0.304688	1.386719	84.980003	-434.839996	99.610001	217.00	-0.15	-0.05	8.00	6.75	8.75	8.75	8.50	9.50	2.25	8.25	3.50	6.25	5.50	6.75	10.50	3.50	3.00	3.00	-0.134277	0.130371	0.988770	-15.330000	17.850000	-5.810000	1205.00	-0.03	-0.12
3.22	2.00	3.25	3.00	1.75	1.00	2.50	1.25	0.75	0.50	1.00	0.25	0.00	0.25	0.25	0.00	0.00	-0.509766	0.168945	1.421387	91.489998	-416.989990	95.900002	214.00	-0.17	-0.05	7.00	6.00	8.00	7.75	8.25	9.25	2.75	8.25	3.75	7.00	7.25	7.75	11.00	4.25	3.75	3.75	-0.136230	0.153320	0.952637	-9.380000	21.210001	-7.140000	1236.00	-0.01	-0.12
3.23	2.25	4.00	1.50	1.25	0.75	3.75	1.25	1.00	0.75	1.00	0.00	0.00	0.00	0.25	0.25	0.00	-0.541992	0.062012	1.571289	96.250000	-395.360016	84.910004	217.00	-0.16	-0.07	6.00	5.50	7.00	6.75	6.75	7.25	2.50	7.50	3.00	7.50	7.50	8.25	11.50	4.25	2.50	3.25	-0.126953	0.145020	0.956055	-8.400000	22.190001	-8.050000	1128.00	0.01	-0.13
3.24	2.00	3.00	2.75	1.50	1.00	2.50	1.25	0.75	1.00	1.00	0.00	0.00	0.00	0.50	0.50	0.00	-0.571777	0.010742	1.819824	101.290001	-377.440002	69.300003	215.00	-0.14	-0.03	5.50	3.00	5.00	6.50	7.75	8.25	2.75	8.00	4.25	8.25	8.25	8.75	11.50	5.50	5.00	5.25	-0.150391	0.140625	0.980957	-7.280000	22.889999	-8.820000	1199.00	0.04	-0.12
3.25	2.25	3.25	2.50	1.50	1.00	2.50	1.25	1.00	0.50	0.75	0.25	0.25	0.00	0.00	0.00	0.00	-0.645508	0.046875	2.072754	106.400002	-366.589996	55.230000	207.00	-0.18	-0.06	5.25	4.50	5.75	6.00	6.25	7.00	2.75	8.00	4.00	8.50	9.00	9.25	11.25	6.25	4.75	5.00	-0.155762	0.144043	0.970215	-5.880000	23.450001	-9.100000	1195.00	0.05	-0.12
3.26	1.75	3.25	3.00	2.00	0.75	2.25	1.25	1.00	0.75	1.00	0.00	0.00	0.25	0.00	0.25	0.00	-0.773438	0.150391	2.305664	104.650002	-358.470001	50.049999	213.00	-0.16	-0.05	4.00	2.50	4.75	4.75	6.00	6.75	2.50	8.00	4.75	8.75	8.75	9.00	12.00	6.00	5.00	5.25	-0.160156	0.141113	0.964844	-4.130000	24.080000	-10.010000	1141.00	0.07	-0.12
3.27	2.50	3.00	3.00	1.00	1.00	2.50	1.25	1.00	0.75	0.75	0.00	0.00	0.25	0.00	0.50	0.00	-1.100098	0.826172	2.794434	65.730003	-348.179993	89.250000	213.00	-0.16	-0.04	2.75	2.25	3.00	3.75	5.75	6.50	2.50	7.75	5.50	9.00	9.25	9.50	12.25	7.25	5.50	6.50	-0.154785	0.136719	0.983398	-3.150000	25.059999	-9.730000	1133.00	0.10	-0.12
3.28	2.25	3.25	2.50	1.25	1.00	2.50	1.00	1.00	0.75	1.00	0.00	0.25	0.75	0.00	0.00	0.00	-1.264648	1.332520	3.194824	55.090000	-360.220001	134.960007	211.00	-0.16	-0.06	2.75	2.25	3.25	3.75	5.00	5.75	2.50	7.75	6.00	9.75	9.75	10.00	12.75	8.25	6.50	7.25	-0.152344	0.126465	0.992188	-1.400000	27.510000	-9.450000	1175.00	0.11	-0.12
3.29	2.00	2.25	2.75	1.50	1.00	2.25	1.25	1.00	0.25	0.75	0.00	0.00	0.25	0.00	0.25	0.00	-1.595215	1.550293	3.511719	75.250000	-392.070007	189.350006	190.00	-0.17	-0.05	2.50	1.50	2.75	3.00	4.25	5.50	2.25	7.75	6.75	10.00	10.25	10.75	13.00	9.50	7.50	8.00	-0.174316	0.148926	0.978027	1.190000	29.820000	-9.940000	1191.00	0.14	-0.12
3.30	2.00	3.00	2.25	1.25	1.00	2.25	1.00	1.00	0.50	0.75	0.25	0.00	0.00	0.00	0.25	0.00	-2.123047	0.995605	3.458008	119.000000	-426.019989	243.600006	189.00	-0.17	-0.06	2.25	1.50	2.00	2.50	3.50	4.50	2.00	7.50	7.25	10.50	10.75	11.00	13.25	10.75	8.25	8.50	-0.185547	0.128418	1.002930	2.380000	33.180000	-11.480000	1191.00	0.15	-0.11
3.31	2.25	3.00	2.50	1.75	0.75	2.25	1.00	0.75	0.50	0.75	0.00	0.00	0.00	0.00	0.00	0.00	-2.927734	0.173828	3.455078	160.930008	-448.700012	275.799988	188.00	-0.20	-0.05	1.50	1.00	1.75	2.00	2.75	3.00	1.75	7.25	7.50	10.75	11.25	11.50	13.75	12.25	8.75	9.00	-0.149414	0.137695	1.040039	3.710000	37.660000	-12.040000	1179.00	0.18	-0.11
3.32	2.25	3.25	1.75	1.75	1.25	1.25	1.00	0.75	0.50	0.75	0.00	0.00	0.00	0.25	0.25	0.00	-3.778320	-0.161621	3.115234	150.850006	-452.410004	281.959991	180.00	-0.18	-0.04	1.50	1.00	1.50	2.00	2.00	2.75	1.50	6.75	8.00	11.25	11.50	11.75	13.75	13.75	9.50	9.50	-0.157227	0.179688	0.999512	6.090000	44.590000	-14.770000	1195.00	0.19	-0.11
3.33	2.50	3.50	3.00	1.50	1.00	2.25	1.00	0.75	0.75	0.75	0.25	0.00	0.00	0.00	0.00	0.00	-4.819336	-0.241699	2.152832	96.949997	-438.970001	270.899994	208.00	-0.19	-0.04	1.25	0.75	1.25	1.50	1.50	1.75	1.25	6.00	8.25	11.50	11.75	12.00	13.75	15.50	10.25	9.75	-0.174316	0.185547	1.025391	10.010000	53.410000	-18.690001	1185.00	0.21	-0.10
3.34	0.50	0.75	0.50	0.00	0.75	2.00	1.00	0.75	0.75	0.25	0.00	0.25	0.00	0.00	0.00	0.00	-5.850586	0.145508	0.567383	49.560001	-399.420013	247.380005	98.00	-0.07	-0.05	0.75	1.00	0.50	1.50	1.00	1.50	1.25	5.25	8.25	11.50	12.25	12.25	13.75	17.00	10.75	10.00	-0.208496	0.210449	1.150391	17.920000	95.830002	-22.540001	1181.00	0.22	-0.10
3.35	2.75	4.00	3.50	2.00	1.00	3.00	1.00	1.75	0.50	0.50	0.00	0.00	0.50	0.00	0.25	0.00	-6.587402	0.538574	-0.767578	38.990002	-315.279999	206.919998	252.00	-0.19	-0.08	1.00	0.50	0.75	1.25	0.75	1.00	1.00	4.50	8.50	11.75	12.50	12.50	13.25	18.25	11.50	10.25	-0.259277	0.238281	1.108398	27.510000	123.129997	-28.280001	1182.00	0.23	-0.09
3.36	1.75	3.75	3.00	1.75	1.00	2.25	1.00	1.25	0.25	0.75	0.00	0.00	0.00	0.25	0.25	0.25	-6.681152	0.665039	-1.091309	79.870003	-198.800003	150.430008	210.00	-0.18	-0.07	1.00	0.00	0.50	1.00	0.75	1.00	0.75	3.25	8.50	11.75	12.50	12.50	13.00	19.75	12.25	10.75	-0.263672	0.165039	1.233398	30.940001	153.300003	-31.430000	1169.00	0.25	-0.08
3.37	2.25	2.75	3.00	1.50	1.00	2.00	1.00	1.00	0.75	0.50	0.50	0.25	0.50	0.00	0.50	0.00	-5.881836	0.367676	-0.583984	126.139999	-89.459999	94.150002	212.00	-0.15	-0.06	1.00	0.25	0.25	1.00	0.50	0.75	0.50	2.50	8.50	11.75	12.50	12.25	12.50	21.00	12.75	11.00	-0.270508	0.182617	1.285156	34.720001	186.970001	-34.090000	1157.00	0.26	-0.07
3.38	2.00	4.00	3.50	2.00	1.00	2.75	1.00	1.00	0.50	0.50	0.25	0.25	0.50	0.00	0.00	0.00	-4.886719	0.153320	0.174805	118.790001	-16.100000	55.090000	231.00	-0.19	-0.08	0.75	0.25	0.50	1.00	0.50	0.75	0.25	2.00	8.50	11.50	12.50	12.25	11.75	22.50	13.25	10.75	-0.343262	0.200684	1.170898	31.430000	220.430008	-38.009998	1154.00	0.26	-0.07
3.39	0.50	1.50	1.25	0.00	0.25	0.00	0.75	0.00	0.00	0.00	0.00	0.00	0.00	0.00	0.00	0.00	-4.096191	0.255371	0.504395	79.309998	21.980000	42.980000	51.00	-0.23	0.05	0.75	0.25	0.25	0.75	0.25	0.25	0.25	1.75	8.50	11.25	12.50	12.00	11.25	23.25	13.50	10.75	-0.327637	0.163086	1.336426	21.629999	247.940002	-40.880001	1134.00	0.27	-0.06
3.40	1.75	3.75	2.75	0.75	0.00	0.00	0.75	0.00	0.00	0.00	0.00	0.00	0.00	0.00	0.00	0.00	-10.045410	-1.203125	-0.287109	38.220001	7.910000	112.419998	112.00	-0.30	-0.00	0.75	0.25	0.00	0.25	0.25	0.50	0.25	1.50	8.25	11.00	12.25	11.75	10.50	24.00	14.00	10.50	-0.359863	0.244629	1.404785	6.230000	263.829987	-41.299999	1115.00	0.28	-0.06
3.41	11.25	13.50	6.25	7.50	1.75	2.00	0.75	0.00	0.00	0.00	0.00	0.00	0.00	0.00	0.00	0.00	-1.384277	-1.038086	-2.395996	-71.400002	214.690002	154.000000	487.00	-0.33	-0.05	0.25	0.25	0.00	0.50	0.25	0.25	0.25	1.00	8.00	10.75	12.00	11.25	10.00	24.75	13.75	10.25	-0.437012	0.156250	1.263672	0.840000	286.929993	-43.259998	1084.00	0.29	-0.05
3.42	17.75	16.00	8.00	8.75	1.50	2.50	0.75	0.25	0.00	0.00	0.25	0.25	0.50	0.00	0.25	0.00	-0.913086	-3.967285	3.330078	61.180000	442.260010	94.080002	642.00	-0.32	-0.05	0.25	0.00	0.00	0.50	0.25	0.25	0.00	0.75	7.75	10.25	12.00	11.00	9.00	25.00	13.75	9.75	-0.475586	0.162598	1.311523	-11.690000	321.299988	-45.220001	1051.00	0.29	-0.05
3.43	23.50	21.00	10.50	11.25	2.75	4.75	0.75	1.25	0.00	0.25	0.25	0.75	1.25	0.00	0.00	0.00	-1.680176	-2.414062	5.241699	51.380001	491.190002	-74.620003	889.00	-0.31	-0.06	0.00	0.25	0.25	0.00	0.25	0.25	0.00	0.50	7.50	10.00	11.75	10.50	8.00	24.75	13.25	8.75	-0.521973	0.223633	1.373047	-27.650000	360.500000	-50.049999	1005.00	0.29	-0.04
3.44	26.50	22.50	13.00	13.75	6.00	8.00	0.75	1.25	0.25	0.25	0.00	0.75	1.50	0.25	0.00	0.00	-1.240234	0.795410	5.237305	42.279999	432.950012	-181.649994	1082.00	-0.30	-0.06	0.25	0.00	0.00	0.00	0.25	0.00	0.00	0.50	6.75	9.25	11.50	9.75	7.50	24.25	12.75	7.75	-0.581543	0.565918	1.379883	-39.830002	401.799988	-61.180000	948.00	0.30	-0.04
3.45	25.50	22.00	14.00	14.25	7.75	10.25	1.00	3.00	0.25	0.25	0.25	1.00	2.75	0.00	0.50	0.25	-0.741211	2.598145	2.966309	39.619999	308.769989	-123.970001	1187.00	-0.27	-0.07	0.00	0.00	0.00	0.00	0.00	0.00	0.00	0.25	6.00	8.75	10.75	9.00	6.00	23.50	11.50	5.75	-0.729980	0.712402	1.789551	-40.180000	446.809998	-84.349998	857.00	0.30	-0.03
3.46	24.50	21.50	14.50	14.75	9.00	12.25	1.25	6.00	0.50	0.25	0.00	1.25	3.25	0.00	0.25	0.50	-0.519531	1.093750	2.083984	-14.210000	219.380005	-19.879999	1283.00	-0.25	-0.09	0.25	0.00	0.00	0.00	0.00	0.00	0.00	0.25	4.75	8.00	10.00	8.25	5.00	21.25	10.00	3.00	-1.336914	0.620605	2.870605	-50.889999	528.640015	-141.960007	752.00	0.30	-0.03
3.47	23.00	21.00	14.25	14.50	9.75	13.50	1.25	7.50	0.75	0.25	0.50	1.00	3.75	0.25	0.25	0.25	-0.084961	-0.443359	1.517090	-73.430000	155.050003	3.430000	1315.00	-0.24	-0.10	0.00	0.00	0.00	0.00	0.00	0.25	0.00	0.00	2.50	6.50	8.50	7.25	3.50	18.50	8.25	1.00	-1.648438	1.392578	3.881348	-46.200001	544.460022	-152.389999	599.00	0.31	-0.03
3.48	22.00	20.25	14.00	14.50	10.25	14.25	1.50	8.50	0.50	0.75	0.25	1.00	5.00	0.00	0.25	0.50	-0.225098	0.329102	1.453613	-100.800003	106.400002	-16.590000	1339.00	-0.23	-0.11	0.00	0.00	0.00	0.00	0.00	0.25	0.00	0.00	1.50	5.25	6.75	5.25	2.00	14.50	6.25	0.00	-1.509277	0.028320	3.641602	10.290000	556.640015	-166.320007	447.00	0.31	-0.02
3.49	21.25	19.75	14.00	14.50	11.00	15.00	1.50	9.00	0.75	0.50	0.25	0.75	5.50	0.50	0.25	0.50	-0.422852	0.732422	1.009277	-90.790001	78.820000	-5.110000	1359.00	-0.22	-0.11	0.00	0.00	0.00	0.00	0.00	0.00	0.00	0.00	0.50	3.25	4.25	3.25	0.75	10.50	4.25	0.00	-1.442383	0.703125	5.019043	26.040001	518.280029	-167.930008	283.00	0.32	-0.01
3.50	20.75	19.50	14.00	14.50	11.50	15.50	1.75	9.50	0.50	1.00	0.25	1.00	6.00	0.25	0.25	0.50	-0.048828	0.073730	1.127930	-94.430000	73.290001	5.390000	1383.00	-0.21	-0.11	0.00	0.00	0.00	0.00	0.00	0.00	0.25	0.00	0.25	2.50	2.25	2.00	0.50	7.00	2.50	0.00	-1.030762	1.342773	4.426758	17.850000	466.690002	-183.539993	183.00	0.32	0.01
3.51	20.50	19.00	13.75	14.00	12.00	15.50	1.75	9.75	1.00	0.75	0.50	1.00	6.00	0.00	0.25	0.25	-0.151367	0.141602	1.316406	-82.599998	50.610001	-2.170000	1379.00	-0.21	-0.11	0.00	0.00	0.00	0.00	0.00	0.00	0.25	0.00	0.25	1.50	1.50	1.25	0.25	2.50	1.00	0.00	1.239258	0.598145	2.852539	-7.350000	458.779999	-210.139999	93.00	0.29	-0.01
3.52	20.00	19.00	13.75	14.00	12.50	15.75	2.00	10.00	0.75	1.00	0.75	1.00	6.00	0.25	0.25	0.50	-0.112793	0.296875	1.006348	-60.549999	33.250000	-1.050000	1397.00	-0.21	-0.11	0.75	0.50	0.50	0.00	0.00	0.00	0.50	0.00	0.00	0.50	0.25	0.25	0.00	1.00	0.75	0.00	2.418945	1.734375	1.963379	-6.020000	362.880005	-215.250000	57.00	0.06	0.05
3.53	19.75	18.25	13.50	13.75	12.50	15.25	2.00	10.00	0.75	1.25	0.50	1.25	5.75	0.50	0.25	0.50	-0.039062	0.126465	0.997559	-52.150002	34.439999	1.820000	1377.00	-0.20	-0.11	0.00	0.00	0.00	0.00	0.00	0.00	0.50	0.00	0.00	0.75	0.50	0.25	0.00	0.75	0.50	0.00	3.850586	1.379883	4.974121	27.790001	229.110001	-241.570007	38.00	0.00	0.00
3.54	18.75	17.50	13.25	13.50	12.50	15.25	2.00	10.00	0.75	1.75	0.75	1.00	6.75	0.75	0.50	0.25	-0.071289	0.134766	1.000977	-41.720001	32.340000	0.840000	1371.00	-0.19	-0.11	0.00	0.00	0.00	0.00	0.00	0.00	0.75	0.00	0.00	0.75	0.25	0.25	0.00	0.00	0.25	0.00	1.455078	3.031738	6.712891	59.290001	-65.169998	-175.630005	29.00	0.00	0.00
3.55	18.25	17.25	12.75	13.00	12.25	15.25	2.00	10.25	0.75	1.00	0.75	1.50	7.25	0.50	0.25	0.25	-0.083984	0.149902	1.003906	-31.639999	30.520000	2.170000	1349.00	-0.19	-0.12	0.00	0.00	0.00	0.00	0.00	0.00	0.75	0.00	0.00	0.50	0.00	0.00	0.00	0.00	0.00	0.00	2.437012	1.237305	2.687988	48.020000	-224.979996	-93.379997	18.00	0.00	0.00
3.56	17.00	16.25	12.25	12.75	12.00	14.75	2.25	10.50	0.75	1.50	1.00	1.50	7.50	0.50	0.50	0.50	-0.082031	0.103516	0.998047	-21.840000	29.400000	3.010000	1330.00	-0.18	-0.12	0.00	0.00	0.00	0.00	0.00	0.00	0.75	0.00	0.00	0.50	0.00	0.00	0.00	0.00	0.25	0.00	1.798828	1.455078	1.256836	-4.060000	-279.369995	-59.500000	21.00	0.00	0.00
3.57	16.00	15.75	11.75	12.25	11.75	14.50	2.25	10.25	1.00	1.50	1.25	1.75	7.75	0.00	0.50	0.25	-0.108398	0.167480	0.990723	-11.340000	29.889999	1.680000	1297.00	-0.18	-0.12	0.00	0.25	0.00	0.00	0.00	0.00	0.75	0.00	0.00	0.25	0.00	0.00	0.00	0.00	0.00	0.00	1.216797	1.690918	1.247559	-19.180000	-280.140015	-40.740002	18.00	0.00	0.00
3.58	14.50	15.00	11.50	11.75	11.50	14.25	2.25	10.50	1.00	1.50	1.00	2.00	7.75	0.50	0.50	0.75	-0.115234	0.129883	0.983398	-9.590000	28.980000	2.380000	1269.00	-0.17	-0.13	0.00	0.00	0.00	0.00	0.00	0.00	0.75	0.00	0.00	0.00	0.00	0.00	0.00	0.00	0.00	0.00	1.197266	1.415039	1.332031	66.290001	-309.260010	-17.430000	12.00	0.00	0.00
3.59	13.75	14.00	11.00	11.50	11.00	13.50	2.00	10.00	1.00	1.25	0.25	1.75	7.50	0.00	0.00	0.00	-0.105957	0.118164	1.002441	-4.970000	27.230000	2.800000	1183.00	-0.18	-0.13	0.25	0.00	0.00	0.00	0.00	0.00	0.75	0.00	0.00	0.00	0.00	0.00	0.00	0.00	0.00	0.00	1.023926	1.128418	1.407227	98.349998	-338.380005	-2.660000	15.00	0.00	0.00
3.60	9.25	11.50	9.25	10.00	9.75	13.00	2.00	10.25	1.00	1.50	1.25	1.25	7.75	0.00	0.00	0.00	-0.088867	0.133789	0.982910	0.070000	26.670000	2.800000	1062.00	-0.16	-0.14	0.25	0.00	0.00	0.00	0.00	0.00	0.75	0.00	0.00	0.00	0.00	0.00	0.00	0.00	0.00	0.00	0.934082	0.828613	1.390625	102.199997	-362.459991	18.690001	15.00	0.00	0.00
3.61	8.75	10.50	8.75	9.50	8.75	11.75	1.75	9.75	0.00	0.75	0.50	0.75	8.00	0.00	0.00	0.00	-0.069824	0.143555	0.955078	2.940000	26.740000	1.260000	960.00	-0.17	-0.15	0.00	0.00	0.00	0.00	0.00	0.00	0.75	0.00	0.00	0.00	0.00	0.00	0.00	0.00	0.00	0.00	0.736328	0.755859	1.450684	90.510002	-382.410004	40.459999	12.00	0.00	0.00
3.62	8.00	10.00	8.50	9.00	8.50	11.50	1.75	9.75	0.00	0.75	1.00	1.25	8.25	0.00	0.00	0.00	-0.065430	0.158203	0.932617	2.590000	26.320000	-1.610000	945.00	-0.16	-0.16	0.00	0.00	0.00	0.00	0.00	0.00	0.75	0.00	0.00	0.00	0.00	0.00	0.00	0.00	0.00	0.00	0.494141	0.718750	1.514648	85.610001	-398.160004	56.700001	12.00	0.00	0.00
3.63	7.75	9.25	8.00	9.00	8.00	12.25	1.75	9.75	0.00	2.25	0.75	1.50	9.00	0.00	0.00	0.00	-0.083008	0.183105	0.923340	-2.870000	27.650000	-4.200000	955.00	-0.15	-0.16	0.00	0.00	0.00	0.00	0.00	0.00	0.75	0.00	0.00	0.00	0.00	0.00	0.00	0.00	0.00	0.00	0.278320	0.611328	1.504395	96.879997	-410.970001	64.260002	12.00	0.00	0.00
3.64	6.75	9.75	8.00	8.50	7.50	11.00	1.75	9.50	0.25	1.50	1.25	2.50	9.25	0.00	0.00	0.00	-0.084961	0.167969	0.927246	-9.450000	28.980000	-6.580000	933.00	-0.14	-0.17	0.00	0.00	0.00	0.00	0.00	0.00	0.75	0.00	0.00	0.00	0.00	0.00	0.00	0.00	0.00	0.00	0.062988	0.470215	1.519531	121.379997	-417.690002	62.580002	12.00	0.00	0.00
