# time	left pressure 1[N/cm²]	left pressure 2[N/cm²]	left pressure 3[N/cm²]	left pressure 4[N/cm²]	left pressure 5[N/cm²]	left pressure 6[N/cm²]	left pressure 7[N/cm²]	left pressure 8[N/cm²]	left pressure 9[N/cm²]	left pressure 10[N/cm²]	left pressure 11[N/cm²]	left pressure 12[N/cm²]	left pressure 13[N/cm²]	left pressure 14[N/cm²]	left pressure 15[N/cm²]	left pressure 16[N/cm²]	left acceleration X[g]	left acceleration Y[g]	left acceleration Z[g]	left angular X[dps]	left angular Y[dps]	left angular Z[dps]	left total force[N]	left center of pressure X[%]	left center of pressure Y[%]	right pressure 1[N/cm²]	right pressure 2[N/cm²]	right pressure 3[N/cm²]	right pressure 4[N/cm²]	right pressure 5[N/cm²]	right pressure 6[N/cm²]	right pressure 7[N/cm²]	right pressure 8[N/cm²]	right pressure 9[N/cm²]	right pressure 10[N/cm²]	right pressure 11[N/cm²]	right pressure 12[N/cm²]	right pressure 13[N/cm²]	right pressure 14[N/cm²]	right pressure 15[N/cm²]	right pressure 16[N/cm²]	right acceleration X[g]	right acceleration Y[g]	right acceleration Z[g]	right angular X[dps]	right angular Y[dps]	right angular Z[dps]	right total force[N]	right center of pressure X[%]	right center of pressure Y[%]
0.00																										1.75	3.00	2.00	4.75	1.25	1.00	0.50	1.00	1.25	1.25	1.25	0.75	2.00	1.00	0.00	0.50	-0.176758	0.112305	0.971191	-1.820000	-3.150000	2.590000	246.00	-0.09	-0.10
0.01																										2.00	3.25	2.50	4.75	1.25	1.00	0.50	0.75	1.25	1.25	1.25	1.00	1.75	0.50	0.00	0.25	-0.172363	0.116699	0.970703	-1.610000	-3.220000	2.520000	248.00	-0.12	-0.09
0.02	1.25	1.75	1.50	1.25	1.00	0.50	1.00	0.25	0.75	4.00	5.75	3.50	0.75	2.00	0.00	3.25	-0.240723	0.099609	0.948242	-1.050000	5.950000	-0.910000	285.00	0.09	-0.07	1.75	3.50	2.50	4.75	1.25	1.00	0.50	0.75	1.25	1.25	1.25	0.75	1.75	0.75	0.25	0.25	-0.174805	0.116699	0.974121	-1.470000	-3.500000	2.660000	250.00	-0.11	-0.09
0.03	1.00	1.75	1.25	1.25	1.00	0.50	0.75	0.25	1.00	4.00	5.50	3.50	1.00	2.00	0.00	3.50	-0.242676	0.102539	0.947754	-0.980000	5.950000	-0.980000	280.00	0.11	-0.08	2.00	3.50	2.50	4.50	1.25	1.00	0.50	0.75	1.00	1.00	1.25	0.75	1.50	0.75	0.00	0.25	-0.175293	0.117676	0.981445	-0.770000	-3.290000	2.870000	239.00	-0.13	-0.09
0.04	1.00	1.75	1.50	1.25	1.00	0.25	0.75	0.50	1.00	3.75	5.50	3.50	1.00	2.00	0.00	3.50	-0.241211	0.104004	0.948242	-0.910000	5.950000	-0.840000	281.00	0.10	-0.08	2.00	3.50	2.75	5.00	1.25	1.00	0.50	1.00	1.00	1.25	1.25	0.75	1.50	0.75	0.00	0.25	-0.178223	0.120117	0.974609	0.490000	-3.360000	3.010000	254.00	-0.13	-0.09
0.05	1.00	1.75	1.50	1.25	1.00	0.50	0.75	0.25	0.75	3.75	5.50	3.50	0.75	1.50	0.00	3.50	-0.239258	0.109375	0.945801	-1.050000	5.880000	-0.840000	270.00	0.09	-0.08	1.75	3.75	2.50	5.00	1.25	1.50	0.50	1.00	1.25	1.00	1.00	0.75	1.75	0.75	0.00	0.25	-0.171387	0.119629	0.962402	1.190000	-3.290000	3.150000	256.00	-0.13	-0.10
0.06	1.25	1.75	1.75	1.50	1.00	0.50	0.75	0.25	0.75	3.75	5.50	3.50	1.00	1.75	0.00	3.50	-0.235840	0.102051	0.947754	-1.050000	6.020000	-0.910000	283.00	0.08	-0.08	2.25	3.50	2.50	4.75	1.25	1.50	0.50	0.75	0.75	1.00	1.00	0.75	1.50	0.75	0.00	0.25	-0.173828	0.114746	0.965820	0.630000	-2.940000	3.080000	244.00	-0.14	-0.10
0.07	1.50	2.00	1.50	1.75	1.00	0.25	0.75	0.25	0.75	3.75	5.50	3.25	1.00	2.00	0.00	3.50	-0.235352	0.103027	0.942383	-1.260000	6.440000	-0.910000	284.00	0.08	-0.08	2.00	4.00	2.50	5.00	1.25	1.25	0.50	0.75	1.00	1.00	1.25	0.50	1.75	0.75	0.00	0.50	-0.172852	0.119141	0.965332	-0.000000	-2.660000	3.080000	253.00	-0.13	-0.10
0.08	1.25	1.75	1.75	1.75	1.00	0.50	0.75	0.25	0.50	3.75	5.25	3.25	0.75	1.25	0.25	3.50	-0.236816	0.101074	0.950195	-1.120000	6.370000	-0.770000	273.00	0.07	-0.08	2.25	4.25	2.75	5.25	1.25	1.00	0.25	0.75	1.00	1.00	1.00	0.50	1.50	0.50	0.00	0.50	-0.173828	0.124512	0.964355	-0.700000	-2.730000	2.870000	250.00	-0.16	-0.10
0.09	1.00	1.75	1.75	1.75	1.00	0.50	0.75	0.25	0.50	3.75	5.75	3.50	0.75	2.00	0.00	3.50	-0.236328	0.100098	0.945312	-1.260000	6.510000	-0.840000	282.00	0.09	-0.08	2.25	4.50	2.50	5.00	1.25	1.25	0.50	0.75	1.00	1.00	0.75	0.50	1.50	0.50	0.00	0.25	-0.169922	0.123047	0.972168	-1.330000	-2.800000	2.730000	249.00	-0.16	-0.09
0.10	1.25	2.00	1.75	1.50	1.25	0.25	0.75	0.25	1.00	3.75	5.50	3.25	1.00	2.00	0.00	3.50	-0.237305	0.098145	0.943359	-1.260000	6.790000	-0.980000	288.00	0.08	-0.07	2.50	4.50	2.50	5.25	1.00	1.25	0.50	0.75	0.75	1.00	1.00	0.50	0.75	0.50	0.00	0.25	-0.171875	0.118652	0.965820	-2.030000	-3.010000	2.660000	244.00	-0.18	-0.09
0.11	1.50	1.75	1.75	1.75	1.00	0.50	1.00	0.25	0.75	3.75	6.25	3.50	0.75	1.75	0.00	3.50	-0.246094	0.102539	0.945312	-1.330000	7.280000	-1.120000	297.00	0.08	-0.07	2.50	5.00	2.75	5.25	1.25	1.00	0.50	0.75	1.00	1.00	1.00	0.50	1.25	0.50	0.00	0.25	-0.175781	0.120605	0.969238	-2.240000	-2.940000	2.590000	259.00	-0.17	-0.09
0.12	1.25	2.00	1.75	1.75	1.00	0.50	0.75	0.25	0.75	3.75	6.00	3.50	1.00	1.75	0.00	3.50	-0.240723	0.103027	0.946777	-1.050000	7.350000	-0.980000	293.00	0.08	-0.08	2.75	5.00	2.75	5.25	1.25	1.25	0.25	0.75	0.75	1.00	0.75	0.50	1.25	0.50	0.00	0.25	-0.172852	0.117676	0.967773	-2.450000	-2.800000	2.590000	255.00	-0.18	-0.10
0.13	1.25	1.75	1.75	1.50	1.00	0.50	0.75	0.25	0.75	3.75	5.75	3.25	1.00	2.00	0.00	3.50	-0.238770	0.104980	0.944824	-0.700000	6.790000	-0.770000	285.00	0.09	-0.08	2.50	5.00	2.75	5.50	1.25	1.00	0.50	0.75	0.75	1.50	0.50	0.75	1.00	0.75	0.00	0.00	-0.173828	0.121582	0.959961	-3.080000	-2.940000	2.380000	260.00	-0.17	-0.09
0.14	1.25	2.00	1.75	1.75	1.00	0.50	0.75	0.25	0.50	3.75	5.75	3.50	0.75	1.50	0.00	3.50	-0.239746	0.101562	0.942871	-0.630000	6.720000	-0.910000	283.00	0.07	-0.09	2.75	5.00	2.75	5.25	1.25	1.25	0.50	0.75	0.75	1.00	1.00	0.50	1.25	0.50	0.00	0.25	-0.172363	0.121582	0.965332	-3.920000	-3.080000	2.310000	261.00	-0.18	-0.09
0.15	1.25	2.00	1.75	1.75	1.00	0.25	0.75	0.25	1.00	3.75	5.75	3.25	1.00	1.75	0.00	3.50	-0.237793	0.105957	0.941406	-0.980000	6.720000	-0.910000	288.00	0.08	-0.07	3.00	5.00	3.00	5.25	1.25	1.00	0.50	0.50	1.00	1.00	1.00	0.25	1.00	0.50	0.00	0.25	-0.175781	0.115234	0.965820	-4.480000	-3.150000	2.170000	259.00	-0.18	-0.07
0.16	1.25	2.00	1.75	1.50	1.00	0.50	0.75	0.25	0.75	3.75	6.00	3.25	1.00	1.75	0.00	3.75	-0.238281	0.109863	0.941895	-1.260000	6.370000	-0.910000	289.00	0.08	-0.08	3.00	5.00	3.00	5.50	1.25	1.25	0.50	0.50	0.75	1.00	0.75	0.50	0.75	0.50	0.00	0.25	-0.174805	0.124023	0.973145	-4.410000	-3.430000	2.170000	259.00	-0.19	-0.08
0.17	1.25	2.25	1.75	2.00	1.00	0.50	0.75	0.25	0.50	3.75	5.75	3.25	1.00	2.00	0.00	3.75	-0.238770	0.104980	0.943359	-1.260000	6.160000	-0.910000	293.00	0.07	-0.09	3.00	5.25	3.00	5.50	1.25	1.25	0.50	0.75	0.75	1.00	1.00	0.25	1.25	0.50	0.00	0.00	-0.187988	0.121094	0.972168	-2.660000	-3.010000	2.590000	268.00	-0.19	-0.09
0.18	1.25	2.00	1.75	2.00	1.25	0.25	0.75	0.25	0.50	3.50	5.75	3.50	0.75	1.75	0.00	3.50	-0.239746	0.105469	0.944336	-1.190000	6.090000	-0.980000	285.00	0.07	-0.08	3.50	5.25	2.75	5.50	1.25	1.00	0.50	0.50	0.75	1.00	0.75	0.25	1.00	0.50	0.00	0.25	-0.174316	0.116699	0.968262	-1.330000	-2.590000	2.940000	260.00	-0.20	-0.08
0.19	1.25	2.25	1.50	1.50	1.00	0.50	0.75	0.25	0.50	3.50	5.75	3.25	0.75	1.75	0.00	3.75	-0.234863	0.103027	0.944336	-1.400000	6.090000	-0.980000	278.00	0.08	-0.08	3.00	5.50	3.25	5.75	1.25	1.00	0.50	0.50	0.75	0.75	0.50	0.50	0.75	0.25	0.00	0.25	-0.174805	0.118164	0.963379	-1.190000	-2.730000	2.940000	259.00	-0.21	-0.08
0.20	1.75	2.00	1.75	1.75	1.00	0.50	1.00	0.25	0.75	3.50	5.75	3.25	0.75	2.00	0.00	3.75	-0.236328	0.103027	0.947266	-1.610000	5.810000	-0.980000	295.00	0.07	-0.07	3.00	5.50	3.00	5.75	1.25	1.00	0.50	0.50	0.75	1.00	0.75	0.50	1.00	0.25	0.00	0.25	-0.168945	0.117676	0.968262	-1.330000	-3.010000	2.870000	264.00	-0.20	-0.09
0.21	1.50	2.25	1.75	1.75	1.25	0.50	0.75	0.25	0.50	3.75	5.75	3.25	0.75	1.75	0.00	3.75	-0.237305	0.106445	0.943848	-1.820000	5.880000	-1.050000	291.00	0.07	-0.08	3.00	5.75	3.25	5.75	1.25	0.75	0.25	0.50	0.75	0.75	0.75	0.50	1.25	0.50	0.00	0.25	-0.158691	0.117188	0.956055	-1.820000	-3.500000	2.870000	264.00	-0.20	-0.09
0.22	1.50	2.25	1.50	1.75	1.00	0.50	0.75	0.25	0.75	3.50	5.75	3.50	0.75	1.50	0.00	3.75	-0.233398	0.097168	0.946289	-2.240000	6.230000	-1.260000	287.00	0.07	-0.08	3.25	5.50	3.25	5.75	1.25	1.25	0.50	0.50	1.00	1.00	0.75	0.50	0.50	0.75	0.00	0.00	-0.166016	0.121582	0.965332	-3.360000	-4.200000	2.520000	273.00	-0.20	-0.07
0.23	1.25	2.25	1.75	1.75	1.00	0.25	0.75	0.25	0.75	4.00	5.75	3.25	0.75	1.75	0.00	3.75	-0.239746	0.106934	0.938965	-2.310000	6.370000	-1.190000	289.00	0.08	-0.08	3.00	5.50	3.25	5.75	1.25	1.25	0.50	0.50	0.75	0.75	0.50	0.50	1.25	0.25	0.00	0.00	-0.174316	0.116211	0.969727	-4.410000	-4.130000	2.240000	265.00	-0.21	-0.09
0.24	1.50	2.25	1.50	2.00	1.00	0.50	0.75	0.25	0.75	3.75	5.75	3.50	1.00	1.50	0.00	3.50	-0.236816	0.103516	0.948730	-2.240000	6.580000	-1.260000	293.00	0.07	-0.09	3.00	5.50	3.25	5.50	1.25	1.00	0.50	0.50	1.00	0.75	0.50	0.25	1.25	0.50	0.00	0.25	-0.179688	0.119629	0.972168	-4.410000	-3.850000	2.310000	263.00	-0.20	-0.08
0.25	1.50	2.00	1.75	1.75	1.00	0.50	0.75	0.25	0.50	3.50	6.00	3.50	0.75	2.00	0.00	3.50	-0.247559	0.101074	0.949219	-1.750000	6.790000	-1.190000	290.00	0.07	-0.08	3.25	5.50	3.00	5.75	1.25	1.50	0.50	0.50	0.75	1.00	0.75	0.50	1.00	0.50	0.00	0.25	-0.173828	0.118652	0.967285	-3.850000	-3.500000	2.240000	274.00	-0.20	-0.09
0.26	1.25	2.25	1.75	1.75	1.00	0.25	0.75	0.25	0.75	3.75	6.25	3.50	0.75	1.75	0.00	3.75	-0.231934	0.104004	0.949219	-1.540000	7.000000	-1.190000	294.00	0.08	-0.08	3.00	5.50	3.25	5.50	1.25	1.00	0.50	0.50	0.75	1.00	0.75	0.25	1.25	0.50	0.00	0.25	-0.172852	0.118652	0.967773	-3.920000	-3.500000	2.170000	265.00	-0.20	-0.08
0.27	1.25	2.50	2.00	1.75	1.00	0.25	0.75	0.25	0.75	3.75	6.00	3.25	0.75	2.00	0.00	3.75	-0.241699	0.104980	0.940918	-1.610000	6.650000	-1.120000	296.00	0.07	-0.07	3.25	5.25	3.00	5.75	1.25	1.00	0.50	0.50	1.00	1.00	0.75	0.25	1.25	0.50	0.00	0.25	-0.172852	0.119141	0.968262	-3.920000	-3.500000	2.240000	269.00	-0.19	-0.08
0.28	1.75	2.25	1.50	1.50	1.00	0.50	0.75	0.25	0.75	3.75	5.75	3.25	0.75	1.75	0.00	3.75	-0.232422	0.101074	0.937988	-1.960000	5.950000	-1.120000	289.00	0.07	-0.08	2.75	5.25	3.00	5.75	1.25	1.00	0.50	0.50	1.00	0.75	1.00	0.00	0.75	0.50	0.00	0.25	-0.172852	0.119141	0.973633	-3.780000	-3.640000	2.240000	257.00	-0.20	-0.07
0.29	1.25	2.25	1.75	1.75	1.00	0.50	0.75	0.25	0.75	3.50	6.00	3.25	0.75	1.50	0.00	4.00	-0.234375	0.103516	0.941895	-2.520000	5.740000	-1.190000	288.00	0.07	-0.08	3.00	5.25	3.00	5.50	1.25	1.25	0.50	0.50	1.00	1.00	0.75	0.50	1.00	0.75	0.00	0.25	-0.171387	0.114258	0.965332	-3.570000	-3.570000	2.170000	269.00	-0.18	-0.08
0.30	1.50	2.25	1.75	1.75	1.00	0.25	0.75	0.25	0.50	3.75	5.75	3.25	0.75	2.00	0.00	3.75	-0.241211	0.104492	0.941895	-2.800000	5.880000	-1.470000	288.00	0.07	-0.08	3.25	5.25	3.00	5.50	1.25	1.00	0.50	0.50	1.00	1.00	1.00	0.50	1.25	0.50	0.00	0.25	-0.178223	0.120605	0.971680	-3.780000	-3.640000	2.170000	271.00	-0.18	-0.08
0.31	1.25	2.50	1.75	1.75	1.25	0.50	0.75	0.25	0.75	3.75	6.25	3.50	0.75	2.00	0.00	3.75	-0.239746	0.100586	0.945801	-3.010000	5.810000	-1.470000	304.00	0.07	-0.08	2.75	5.25	3.00	5.50	1.25	0.75	0.50	0.75	1.00	0.75	1.00	0.50	1.25	0.75	0.00	0.00	-0.177246	0.117676	0.976074	-3.220000	-3.500000	2.170000	265.00	-0.18	-0.08
0.32	1.25	2.00	1.75	1.75	1.00	0.50	0.75	0.25	0.75	3.75	6.25	3.00	0.75	1.75	0.25	3.75	-0.240723	0.099121	0.945312	-2.800000	5.880000	-1.400000	292.00	0.08	-0.08	2.75	5.25	3.25	5.50	1.25	1.00	0.50	0.75	1.00	1.00	0.75	0.50	1.25	0.50	0.00	0.00	-0.172852	0.115723	0.973145	-2.100000	-3.220000	2.450000	269.00	-0.18	-0.08
0.33	1.25	2.00	1.75	1.75	1.00	0.25	0.75	0.25	0.75	3.75	6.25	3.25	1.00	1.75	0.00	3.75	-0.239258	0.101562	0.947754	-2.660000	5.810000	-1.190000	292.00	0.08	-0.08	2.50	5.00	3.00	5.50	1.25	1.00	0.50	0.50	1.00	1.00	0.75	0.25	1.25	0.50	0.00	0.25	-0.171875	0.120117	0.969238	-1.680000	-3.290000	2.520000	256.00	-0.18	-0.08
0.34	1.50	1.75	1.75	1.75	1.00	0.25	0.75	0.25	0.75	3.75	6.25	3.50	0.75	1.75	0.00	3.75	-0.239258	0.100098	0.948242	-2.590000	6.090000	-1.260000	292.00	0.08	-0.08	2.75	5.25	2.75	5.50	1.25	1.00	0.50	0.75	1.00	0.75	0.75	0.25	0.75	0.50	0.00	0.25	-0.176758	0.117676	0.967285	-1.890000	-3.430000	2.520000	255.00	-0.19	-0.08
0.35	1.25	2.25	1.75	1.75	1.25	0.50	0.75	0.25	0.75	3.75	6.00	3.00	0.75	1.75	0.00	3.75	-0.234375	0.101562	0.943359	-2.660000	6.370000	-1.400000	292.00	0.07	-0.08	2.75	5.00	3.00	5.25	1.25	1.00	0.50	0.50	0.75	0.75	0.75	0.25	1.25	0.50	0.00	0.25	-0.172852	0.110840	0.958984	-1.890000	-3.640000	2.520000	250.00	-0.19	-0.08
0.36	1.50	1.75	1.75	1.50	1.00	0.25	1.00	0.25	1.00	3.75	6.25	3.50	1.00	2.00	0.00	3.75	-0.239258	0.104004	0.949219	-2.800000	6.580000	-1.400000	301.00	0.09	-0.07	3.00	5.00	3.00	5.50	1.50	1.00	0.50	0.75	1.00	1.00	0.75	0.50	1.25	0.50	0.00	0.25	-0.158203	0.123535	0.950195	-2.590000	-4.200000	2.520000	270.00	-0.18	-0.08
0.37	1.25	2.25	1.50	1.50	1.00	0.25	0.75	0.25	1.00	4.00	6.25	3.25	0.75	2.00	0.00	3.75	-0.238770	0.102539	0.940430	-3.850000	6.230000	-1.680000	294.00	0.09	-0.07	2.50	5.00	3.00	5.50	1.25	1.00	0.50	0.75	0.75	1.00	0.75	0.50	1.00	0.75	0.00	0.50	-0.154297	0.118652	0.943848	-4.550000	-5.810000	2.170000	260.00	-0.18	-0.09
0.38	1.25	2.00	1.75	1.75	1.00	0.50	0.75	0.25	0.75	4.00	6.50	3.50	1.00	2.00	0.00	3.75	-0.238770	0.096191	0.937988	-4.690000	6.090000	-1.750000	304.00	0.09	-0.08	2.75	4.75	3.00	5.50	1.25	1.25	0.50	0.75	1.00	1.00	1.00	0.75	1.25	1.00	0.25	0.25	-0.149902	0.120605	0.962891	-7.770000	-7.980000	1.610000	278.00	-0.15	-0.09
0.39	1.25	1.75	1.50	1.50	1.00	0.25	0.75	0.25	0.75	3.75	6.25	3.50	0.75	2.00	0.00	3.75	-0.239258	0.100098	0.944824	-5.040000	5.880000	-1.680000	286.00	0.10	-0.08	2.50	4.50	2.75	5.25	1.50	0.75	0.50	1.00	1.25	1.25	1.00	0.50	1.50	1.25	0.00	0.25	-0.172852	0.125488	0.980469	-8.680000	-8.050000	1.050000	273.00	-0.14	-0.08
0.40	1.25	2.50	1.50	1.75	1.00	0.25	1.00	0.25	1.00	4.00	6.50	3.25	1.00	2.00	0.00	3.75	-0.243164	0.100586	0.953613	-4.550000	6.370000	-1.540000	308.00	0.09	-0.07	2.25	3.75	2.50	4.75	1.25	1.50	0.50	1.00	1.25	1.00	1.25	0.75	1.25	1.25	0.50	0.50	-0.185547	0.104492	0.980957	-7.420000	-6.580000	1.120000	268.00	-0.11	-0.09
0.41	1.25	1.75	1.75	1.50	1.00	0.50	0.75	0.25	0.75	4.25	6.00	3.25	0.50	2.25	0.00	4.00	-0.240723	0.097656	0.946777	-3.430000	6.650000	-1.330000	293.00	0.09	-0.07	2.00	3.75	2.25	4.75	1.25	1.00	0.50	0.75	1.25	1.00	1.25	1.00	1.50	1.25	0.25	0.50	-0.195801	0.098633	0.983887	-4.900000	-5.250000	1.610000	255.00	-0.10	-0.09
0.42	1.25	1.75	1.50	1.75	1.00	0.25	0.75	0.25	1.00	4.00	6.25	3.50	1.00	2.00	0.00	4.00	-0.247559	0.096680	0.950195	-2.450000	6.720000	-1.330000	298.00	0.10	-0.08	2.00	3.50	2.00	4.50	1.25	1.00	0.50	1.00	1.25	1.25	1.25	0.50	1.75	1.75	0.25	0.50	-0.170898	0.115723	0.974121	-3.290000	-4.340000	1.820000	255.00	-0.09	-0.08
0.43	1.50	1.75	1.75	1.25	1.00	0.25	0.75	0.25	0.75	3.75	6.50	3.25	1.00	2.00	0.00	3.75	-0.241211	0.103027	0.943359	-1.260000	6.580000	-1.050000	291.00	0.09	-0.07	1.75	3.00	2.25	4.00	1.25	1.00	0.50	1.00	1.25	1.00	1.00	1.00	1.75	1.75	0.25	0.50	-0.173828	0.116699	0.976074	-2.660000	-3.710000	2.100000	245.00	-0.08	-0.09
0.44	1.25	1.75	1.50	1.50	1.00	0.50	0.75	0.25	0.75	4.00	6.25	3.25	0.75	2.00	0.00	4.00	-0.237305	0.093262	0.940430	-1.400000	6.300000	-1.050000	290.00	0.10	-0.08	1.50	3.00	2.00	3.75	1.25	1.00	0.50	1.00	1.25	1.25	1.25	1.00	2.00	1.75	0.25	0.50	-0.171387	0.111328	0.969727	-2.030000	-3.290000	2.170000	245.00	-0.06	-0.09
0.45	1.00	1.75	1.75	1.75	1.25	0.25	0.75	0.25	0.50	3.75	6.25	3.25	0.75	2.25	0.00	3.75	-0.231445	0.101074	0.944824	-1.890000	6.090000	-1.120000	288.00	0.09	-0.08	1.75	3.00	2.00	3.75	1.25	0.75	0.50	1.00	1.25	1.25	1.50	0.75	2.00	1.75	0.25	0.50	-0.174805	0.109375	0.969238	-1.610000	-2.590000	2.240000	244.00	-0.06	-0.08
0.46	1.50	2.00	1.75	1.25	1.25	0.25	1.00	0.25	0.75	3.75	6.25	3.25	0.75	2.00	0.00	3.75	-0.229980	0.103516	0.942383	-2.450000	5.530000	-1.190000	295.00	0.09	-0.07	1.25	2.50	2.00	3.50	1.25	0.50	0.50	1.00	1.25	1.25	1.25	0.50	2.00	1.50	0.25	0.50	-0.166992	0.114746	0.976074	-1.610000	-2.380000	2.310000	222.00	-0.06	-0.08
0.47	1.00	1.75	1.75	1.50	1.25	0.50	0.75	0.25	1.00	4.00	6.50	3.50	1.00	2.00	0.25	4.00	-0.240234	0.097168	0.944336	-3.010000	5.110000	-1.400000	307.00	0.10	-0.08	1.25	2.25	1.75	3.50	1.25	0.75	0.50	1.00	1.50	1.25	1.25	0.75	1.75	1.75	0.25	0.50	-0.179199	0.116699	0.975586	-0.700000	-2.030000	2.450000	225.00	-0.04	-0.08
0.48	1.25	1.75	1.75	1.50	1.00	0.50	1.00	0.25	0.75	3.75	6.50	3.25	0.75	2.50	0.25	4.00	-0.239258	0.106934	0.948242	-3.220000	5.040000	-1.470000	304.00	0.10	-0.07	1.50	2.50	1.50	3.25	1.00	0.75	0.50	1.00	1.25	1.50	1.25	0.75	1.75	1.75	0.25	0.50	-0.175293	0.114258	0.976562	-0.000000	-1.890000	2.520000	221.00	-0.04	-0.08
0.49	1.25	2.00	1.75	1.50	1.00	0.50	0.75	0.25	1.00	4.00	6.50	3.25	0.75	2.25	0.00	4.00	-0.242676	0.093262	0.949707	-2.660000	5.320000	-1.610000	303.00	0.09	-0.07	1.25	2.00	1.75	3.25	1.25	1.25	0.50	1.00	1.50	1.25	1.25	0.50	1.75	1.50	0.25	0.75	-0.178711	0.113281	0.968262	0.490000	-2.170000	2.660000	222.00	-0.04	-0.08
0.50	1.50	2.25	1.75	1.75	1.00	0.25	0.75	0.25	1.00	4.00	6.50	3.50	1.00	2.50	0.25	4.00	-0.236328	0.103027	0.948242	-1.680000	5.530000	-1.610000	318.00	0.09	-0.07	1.25	1.50	1.50	3.50	1.25	1.00	0.50	1.00	1.25	1.25	1.50	0.75	1.75	1.50	0.25	0.50	-0.170410	0.113281	0.973145	0.560000	-2.450000	2.800000	216.00	-0.03	-0.09
0.51	1.50	2.00	1.75	1.75	1.00	0.50	0.75	0.25	0.50	4.00	6.50	3.25	1.00	2.25	0.00	4.00	-0.236816	0.093750	0.942871	-1.260000	5.320000	-1.330000	304.00	0.08	-0.08	0.75	2.00	1.75	3.25	1.25	0.75	0.50	1.00	1.25	1.00	1.25	0.75	2.00	1.75	0.00	0.50	-0.175293	0.117188	0.967773	0.280000	-2.590000	2.870000	209.00	-0.04	-0.09
0.52	1.25	1.75	1.75	1.50	1.25	0.50	0.75	0.25	1.00	3.75	6.25	3.50	0.75	2.00	0.00	4.00	-0.239258	0.101074	0.944336	-0.770000	5.040000	-1.050000	299.00	0.09	-0.07	1.00	1.75	1.75	3.25	1.25	1.00	0.50	1.00	1.50	0.50	1.25	0.75	1.50	1.50	0.25	0.50	-0.175293	0.120117	0.964355	-0.420000	-2.590000	2.800000	206.00	-0.04	-0.08
0.53	1.25	2.25	1.75	1.75	1.25	0.50	0.75	0.25	0.75	3.75	6.25	3.25	0.75	2.25	0.00	3.75	-0.236816	0.094238	0.941895	-0.770000	5.320000	-1.050000	301.00	0.08	-0.07	1.00	2.00	1.50	3.00	1.25	0.75	0.50	1.00	1.25	1.25	1.25	0.50	1.75	1.50	0.00	0.75	-0.171387	0.121094	0.968750	-1.400000	-2.800000	2.660000	203.00	-0.04	-0.08
0.54	1.00	2.00	1.75	1.75	1.25	0.50	0.75	0.50	0.75	3.75	6.25	3.25	1.00	2.25	0.00	4.00	-0.242676	0.098633	0.943848	-0.560000	4.550000	-0.910000	304.00	0.09	-0.08	1.50	1.50	1.50	3.25	1.25	0.75	0.50	0.75	1.25	1.25	1.00	0.50	2.00	1.25	0.25	0.50	-0.182617	0.117676	0.978516	-1.610000	-2.940000	2.590000	201.00	-0.04	-0.08
0.55	1.50	2.25	1.50	2.00	1.25	0.50	1.00	0.25	0.75	3.75	6.50	3.50	1.00	2.00	0.00	4.00	-0.249512	0.091797	0.946777	0.630000	5.040000	-0.840000	314.00	0.08	-0.08	1.00	2.00	1.75	3.00	1.00	0.75	0.50	1.00	1.50	1.25	1.25	0.75	1.75	1.25	0.00	0.50	-0.181641	0.118164	0.971680	-0.420000	-2.380000	2.660000	205.00	-0.04	-0.08
0.56	1.75	2.25	2.00	2.25	1.25	0.75	1.00	0.25	0.75	3.75	6.50	3.50	1.00	1.75	0.00	4.00	-0.241211	0.099609	0.952637	1.540000	4.690000	-0.350000	326.00	0.06	-0.08	1.25	2.00	1.75	3.50	1.00	1.00	0.25	1.00	1.00	1.25	1.00	0.75	1.75	1.00	0.00	0.25	-0.178223	0.114258	0.967773	1.050000	-2.170000	3.010000	200.00	-0.07	-0.10
0.57	1.50	2.50	2.00	2.25	1.25	0.75	1.00	0.25	0.50	3.75	6.25	3.25	0.75	2.00	0.00	4.00	-0.249023	0.096680	0.945312	3.080000	4.270000	0.280000	317.00	0.06	-0.08	1.25	2.25	1.75	3.50	1.00	1.00	0.50	1.00	0.75	1.00	0.75	0.50	1.50	1.00	0.00	0.25	-0.168457	0.114746	0.981445	2.520000	-1.540000	3.150000	192.00	-0.10	-0.10
0.58	1.75	2.75	2.00	2.50	1.50	1.00	1.00	0.50	0.75	3.75	6.25	3.50	0.75	1.75	0.00	4.00	-0.239746	0.103027	0.950684	3.920000	4.340000	0.910000	338.00	0.04	-0.08	1.50	2.25	1.50	3.50	1.00	0.75	0.50	0.75	0.75	1.00	1.00	0.25	1.50	0.50	0.00	0.25	-0.178223	0.111816	0.982910	4.760000	-0.910000	3.570000	181.00	-0.11	-0.10
0.59	2.25	3.25	2.25	2.75	1.50	1.25	0.75	0.50	0.50	3.50	6.25	3.00	1.00	1.50	0.00	3.75	-0.248047	0.104004	0.948242	5.530000	4.900000	1.050000	340.00	0.02	-0.09	1.50	2.75	1.75	3.75	1.00	0.75	0.25	0.75	0.50	0.75	0.75	0.50	1.00	0.50	0.00	0.25	-0.195312	0.118652	0.979004	8.680000	0.140000	3.990000	178.00	-0.15	-0.11
0.60	2.25	3.75	2.50	3.25	1.50	1.00	0.75	0.50	0.50	3.50	6.00	3.25	0.75	1.25	0.00	3.75	-0.246582	0.108887	0.952637	6.790000	5.530000	1.610000	345.00	0.00	-0.09	1.75	2.50	2.00	4.00	1.00	0.50	0.25	0.50	0.50	0.75	0.75	0.25	1.00	0.50	0.00	0.00	-0.176270	0.147461	0.990723	10.500000	0.350000	4.060000	173.00	-0.16	-0.09
0.61	2.50	4.25	2.50	3.00	1.50	1.00	0.75	0.50	0.25	3.50	5.75	3.25	0.75	1.00	0.00	3.75	-0.241699	0.108398	0.953613	9.870000	7.070000	1.960000	342.00	-0.01	-0.10	1.75	2.75	2.00	4.00	1.00	0.75	0.25	0.50	0.25	0.50	0.50	0.25	0.75	0.25	0.00	0.00	-0.153809	0.131836	0.967285	11.270000	1.190000	3.710000	165.00	-0.20	-0.10
0.62	3.00	5.00	2.50	3.75	1.50	1.25	0.75	0.50	0.25	3.50	6.00	3.00	0.50	1.25	0.00	3.75	-0.225586	0.114258	0.938965	12.110000	7.980000	2.380000	365.00	-0.03	-0.09	1.50	3.25	2.00	3.75	0.75	0.50	0.25	0.25	0.50	0.25	0.50	0.00	0.75	0.25	0.00	0.00	-0.162598	0.116699	0.968750	11.550000	1.330000	2.940000	153.00	-0.21	-0.09
0.63	3.25	5.50	3.00	4.00	1.50	1.00	0.75	0.50	0.25	3.25	5.75	3.00	0.50	0.75	0.00	3.75	-0.238281	0.109863	0.952148	15.680000	8.330000	2.730000	368.00	-0.05	-0.09	2.00	3.50	2.00	4.00	0.75	0.50	0.25	0.50	0.25	0.50	0.50	0.00	0.75	0.25	0.00	0.00	-0.162598	0.145020	0.962402	12.390000	0.490000	1.680000	167.00	-0.22	-0.10
0.64	3.50	6.25	2.75	4.50	1.50	1.25	0.75	0.50	0.00	3.00	5.75	3.25	0.50	0.50	0.00	3.75	-0.194336	0.142090	0.915527	16.309999	7.140000	2.450000	378.00	-0.07	-0.11	2.00	3.75	2.00	4.25	1.00	0.50	0.25	0.25	0.50	0.75	0.50	0.50	0.25	0.00	0.00	0.00	-0.175781	0.131348	0.962402	11.130000	0.840000	0.980000	175.00	-0.22	-0.08
0.65	3.75	7.00	3.00	4.50	1.25	1.25	0.75	0.50	0.25	3.00	5.50	2.50	0.75	0.25	0.00	3.50	-0.220215	0.128418	0.924805	10.780000	6.160000	1.400000	379.00	-0.09	-0.10	2.25	4.00	2.25	4.25	0.75	0.25	0.25	0.25	0.00	0.25	0.25	0.25	0.25	0.00	0.00	0.00	-0.190430	0.133789	0.960938	7.980000	-2.940000	2.240000	160.00	-0.27	-0.09
0.66	4.25	7.75	3.50	5.00	1.50	1.25	0.75	0.50	0.00	3.25	5.75	3.00	0.50	0.25	0.00	3.75	-0.221191	0.128906	0.936035	5.460000	6.440000	0.630000	411.00	-0.10	-0.10	2.25	4.75	2.25	4.50	0.75	0.50	0.25	0.25	0.25	0.25	0.25	0.25	0.25	0.00	0.00	0.00	-0.178223	0.145020	0.947754	7.910000	-4.200000	3.080000	176.00	-0.27	-0.09
0.67	4.50	7.75	3.25	4.75	1.50	1.25	0.75	0.50	0.00	3.00	5.75	3.00	0.50	0.50	0.00	3.75	-0.217773	0.123535	0.944824	1.890000	7.700000	0.070000	408.00	-0.10	-0.10	2.75	5.00	2.50	5.00	1.00	0.50	0.25	0.00	0.25	0.75	0.25	0.00	0.00	0.00	0.00	0.00	-0.197266	0.139648	0.964844	7.210000	-6.090000	4.200000	191.00	-0.27	-0.07
0.68	4.25	7.75	3.25	5.00	1.50	1.00	0.75	0.50	0.00	3.00	5.75	3.00	0.25	0.50	0.00	3.50	-0.220703	0.125000	0.945801	-0.630000	9.380000	-0.560000	401.00	-0.10	-0.10	3.25	5.50	2.50	5.25	0.75	0.25	0.00	0.25	0.00	0.25	0.25	0.25	0.00	0.00	0.00	0.00	-0.192871	0.144043	0.963379	8.190000	-7.140000	5.740000	192.00	-0.30	-0.09
0.69	4.25	7.50	3.00	4.50	1.50	1.00	0.75	0.25	0.00	3.00	5.75	3.00	0.25	0.25	0.00	3.75	-0.216797	0.125977	0.925781	-3.290000	10.920000	-1.400000	386.00	-0.09	-0.10	3.50	6.50	3.25	5.50	0.75	0.50	0.00	0.25	0.00	0.25	0.25	0.25	0.00	0.00	0.00	0.00	-0.192871	0.139160	0.971680	10.080000	-7.700000	7.000000	218.00	-0.31	-0.09
0.70	3.75	7.00	3.00	4.00	1.25	0.75	0.75	0.25	0.00	3.25	5.75	3.00	0.25	0.25	0.00	3.75	-0.225586	0.116211	0.932129	-7.350000	12.180000	-2.450000	368.00	-0.08	-0.09	4.00	7.00	3.50	5.75	1.00	0.75	0.25	0.25	0.00	0.50	0.25	0.00	0.25	0.00	0.00	0.00	-0.185547	0.144531	0.968262	11.900000	-8.120000	8.120000	245.00	-0.30	-0.08
0.71	3.25	6.25	2.50	3.25	1.25	0.50	0.75	0.25	0.25	3.25	5.75	3.00	0.25	0.25	0.00	3.75	-0.222656	0.112793	0.916016	-9.800000	13.790000	-2.660000	343.00	-0.06	-0.09	4.50	8.50	3.50	6.25	0.75	0.75	0.00	0.00	0.00	0.25	0.25	0.25	0.00	0.00	0.00	0.00	-0.174805	0.139160	0.973633	12.740000	-8.470000	8.610000	257.00	-0.32	-0.09
0.72	2.50	5.50	2.00	2.50	1.00	0.50	0.75	0.25	0.00	3.25	5.75	3.00	0.25	0.50	0.00	3.75	-0.228516	0.101074	0.950684	-10.500000	15.820000	-2.520000	310.00	-0.03	-0.10	5.50	8.75	3.75	7.00	1.00	1.00	0.25	0.25	0.00	0.25	0.50	0.25	0.00	0.00	0.00	0.00	-0.185059	0.152832	0.962891	14.350000	-9.380000	8.470000	296.00	-0.30	-0.08
0.73	1.50	3.75	1.25	1.50	0.75	0.00	0.75	0.25	0.00	3.50	5.75	3.25	0.25	0.50	0.00	3.75	-0.232422	0.132324	0.948242	-8.610000	17.990000	-3.780000	262.00	0.04	-0.10	6.25	10.00	4.00	7.75	0.75	1.00	0.25	0.25	0.00	0.00	0.25	0.50	0.00	0.00	0.00	0.00	-0.173340	0.153320	0.937012	13.300000	-10.570000	8.890000	321.00	-0.32	-0.09
0.74	0.75	1.75	0.75	0.50	0.50	0.00	0.75	0.00	0.00	3.75	5.75	2.50	0.00	0.50	0.00	3.75	-0.250000	0.169922	0.962891	-8.820000	21.770000	-5.810000	205.00	0.12	-0.08	7.00	10.75	4.25	8.25	1.00	1.50	0.00	0.25	0.00	0.25	0.25	0.25	0.00	0.00	0.00	0.00	-0.172852	0.168457	0.941895	10.220000	-11.480000	8.470000	348.00	-0.32	-0.09
0.75	0.00	0.25	0.25	0.00	0.00	0.00	0.50	0.00	0.00	3.25	6.25	3.25	0.00	0.25	0.00	3.50	-0.737793	-0.004395	0.979004	-24.010000	25.129999	-5.390000	168.00	0.22	-0.12	8.00	12.25	4.75	9.25	1.25	1.50	0.00	0.25	0.00	0.25	0.25	0.25	0.00	0.00	0.00	0.00	-0.170898	0.181641	0.936523	6.440000	-11.200000	8.260000	392.00	-0.32	-0.09
0.76	0.00	0.00	0.00	0.00	0.00	0.00	0.50	0.00	0.50	3.00	5.75	3.00	0.00	0.25	0.00	3.50	0.017578	-0.009277	1.278320	1.960000	97.860001	-0.350000	158.00	0.24	-0.10	9.00	13.25	5.50	9.75	1.50	2.25	0.25	0.50	0.00	0.00	0.00	0.25	0.00	0.00	0.00	0.00	-0.149414	0.182129	0.933105	2.100000	-9.800000	8.190000	438.00	-0.32	-0.08
0.77	0.25	0.25	0.25	0.00	0.00	0.00	0.50	0.00	0.00	3.75	6.00	3.25	0.00	0.00	0.00	3.75	-0.327148	0.099609	1.430176	24.010000	167.300003	-16.030001	172.00	0.21	-0.11	9.75	14.50	6.25	10.00	1.25	2.00	0.00	0.25	0.00	0.50	0.25	0.00	0.00	0.00	0.00	0.00	-0.143555	0.153320	0.970703	-1.260000	-7.560000	6.860000	461.00	-0.32	-0.08
0.78	0.00	0.00	0.25	0.00	0.00	0.00	0.50	0.00	0.00	3.00	5.75	2.75	0.00	0.00	0.00	3.50	-0.510254	0.081055	1.703613	9.660000	218.119995	-16.170000	150.00	0.23	-0.12	10.25	15.25	6.50	10.50	1.25	2.50	0.25	0.25	0.00	0.25	0.25	0.25	0.00	0.00	0.00	0.00	-0.147461	0.159180	0.960938	-2.590000	-6.790000	5.670000	491.00	-0.32	-0.08
0.79	0.00	0.00	0.25	0.00	0.00	0.00	0.50	0.00	0.00	3.00	5.50	2.50	0.00	0.00	0.00	3.50	-0.393066	-0.043457	1.750488	-21.000000	252.770004	-7.700000	145.00	0.23	-0.11	11.00	16.00	6.75	11.00	1.50	2.75	0.25	0.75	0.25	0.50	0.50	0.00	0.00	0.00	0.00	0.00	-0.162109	0.168457	0.970215	-3.150000	-5.390000	5.320000	532.00	-0.31	-0.08
0.80	0.00	0.00	0.00	0.00	0.00	0.00	0.25	0.00	0.00	2.50	5.50	3.25	0.00	0.00	0.00	3.75	0.006836	0.213379	1.662598	-48.720001	275.869995	6.160000	142.00	0.24	-0.15	11.75	16.50	7.00	11.25	1.75	2.75	0.25	0.50	0.00	0.25	0.25	0.25	0.00	0.00	0.00	0.00	-0.152832	0.145996	0.979492	-2.730000	-3.920000	5.530000	543.00	-0.32	-0.08
0.81	0.00	0.00	0.00	0.00	0.00	0.00	0.50	0.00	0.00	3.00	5.75	2.75	0.00	0.00	0.00	3.75	0.742676	1.415527	2.059570	-103.529999	270.899994	24.710001	149.00	0.24	-0.12	12.25	17.25	7.75	11.50	1.75	2.75	0.25	0.25	0.00	0.00	0.25	0.25	0.00	0.00	0.00	0.00	-0.157227	0.145508	0.978027	-1.470000	-3.920000	4.690000	560.00	-0.33	-0.07
0.82	0.00	0.00	0.00	0.00	0.00	0.00	0.50	0.00	0.00	3.00	5.50	2.75	0.00	0.00	0.00	3.75	1.204590	1.367676	2.626465	-83.230003	239.119995	74.480003	146.00	0.24	-0.12	12.25	17.00	7.50	11.50	1.50	3.00	0.25	0.50	0.25	0.75	0.25	0.25	0.25	0.00	0.00	0.00	-0.171875	0.159668	0.972656	1.120000	-4.830000	3.850000	572.00	-0.31	-0.08
0.83	0.00	0.25	0.25	0.00	0.00	0.00	0.50	0.00	0.25	3.25	5.50	2.75	0.00	0.00	0.00	4.00	1.637207	0.547852	1.878418	-25.059999	178.919998	109.760002	158.00	0.22	-0.11	12.50	17.50	7.75	11.75	1.50	3.50	0.25	0.50	0.00	0.50	0.25	0.00	0.00	0.00	0.00	0.00	-0.157715	0.164062	0.968750	2.730000	-4.900000	3.220000	580.00	-0.32	-0.08
0.84	0.00	0.00	0.00	0.00	0.00	0.00	0.50	0.00	0.00	3.00	5.50	2.75	0.00	0.00	0.00	3.75	1.728027	-0.447266	1.292480	-14.210000	144.130005	111.510002	146.00	0.24	-0.12	13.00	18.00	7.75	11.75	1.50	3.50	0.25	0.50	0.00	0.25	0.50	0.00	0.00	0.00	0.00	0.00	-0.168945	0.155762	0.983887	4.270000	-4.480000	2.730000	589.00	-0.32	-0.08
0.85	0.00	0.25	0.50	0.00	0.00	0.00	0.50	0.00	0.00	3.00	5.50	2.75	0.00	0.00	0.00	3.75	1.996582	-0.557129	1.705078	-43.750000	82.180000	62.580002	154.00	0.21	-0.12	12.75	17.75	7.75	11.75	1.75	3.25	0.25	0.25	0.25	0.50	0.25	0.00	0.00	0.00	0.00	0.00	-0.165527	0.159668	0.971680	7.700000	-4.550000	1.750000	584.00	-0.32	-0.07
0.86	0.50	0.25	0.00	0.00	0.00	0.00	0.50	0.00	0.00	3.00	5.50	2.75	0.00	0.00	0.00	3.75	2.014648	-0.638184	1.613770	-41.650002	29.820000	35.630001	153.00	0.21	-0.12	12.75	17.50	7.75	11.75	1.50	3.00	0.25	0.50	0.00	0.25	0.50	0.25	0.00	0.00	0.00	0.00	-0.159180	0.163086	0.957520	7.210000	-4.200000	0.770000	579.00	-0.32	-0.08
0.87	0.00	0.00	0.25	0.00	0.00	0.00	0.50	0.00	0.00	3.00	5.50	2.75	0.00	0.00	0.00	3.75	1.902832	-0.630859	1.453125	-52.990002	-17.290001	11.200000	149.00	0.23	-0.12	12.75	17.50	7.50	11.75	1.50	3.00	0.00	0.50	0.00	0.25	0.25	0.25	0.25	0.00	0.00	0.00	-0.163574	0.134766	0.980957	7.490000	-5.320000	-0.560000	572.00	-0.32	-0.08
0.88	0.50	0.00	0.25	0.00	0.00	0.00	0.50	0.00	0.00	3.00	5.50	3.00	0.00	0.00	0.00	3.75	1.775879	-0.484375	1.400879	-69.019997	-56.420002	-8.750000	157.00	0.21	-0.11	12.75	17.25	7.50	11.75	1.50	3.00	0.00	0.50	0.00	0.50	0.25	0.00	0.00	0.00	0.00	0.00	-0.166992	0.135742	0.991699	10.430000	-7.490000	-1.680000	568.00	-0.32	-0.08
0.89	0.00	0.25	0.50	0.00	0.00	0.00	0.50	0.00	0.00	2.75	6.00	3.00	0.00	0.00	0.00	4.00	1.652344	-0.339844	1.440430	-73.500000	-95.970001	-26.110001	160.00	0.21	-0.12	12.50	17.00	7.50	11.75	1.25	3.00	0.00	0.50	0.00	0.00	0.25	0.25	0.00	0.00	0.00	0.00	-0.153809	0.165039	0.978516	13.230000	-8.750000	-2.730000	558.00	-0.33	-0.08
0.90	0.00	0.50	0.25	0.00	0.00	0.00	0.50	0.00	0.00	2.75	5.25	2.75	0.00	0.00	0.00	3.75	1.471191	-0.278320	1.363770	-69.300003	-134.050003	-42.139999	148.00	0.21	-0.12	12.00	16.75	7.50	11.50	1.25	3.00	0.00	0.50	0.00	0.25	0.25	0.50	0.50	0.00	0.00	0.00	-0.149902	0.167969	0.962891	14.490000	-8.890000	-3.150000	557.00	-0.32	-0.09
0.91	0.00	0.00	0.25	0.00	0.00	0.00	0.50	0.00	0.00	3.00	5.50	2.75	0.00	0.00	0.00	3.75	1.204102	-0.218262	1.354980	-62.930000	-165.830002	-56.980000	149.00	0.23	-0.12	12.00	16.75	7.25	11.25	1.25	2.75	0.00	0.50	0.00	0.50	0.00	0.00	0.50	0.00	0.00	0.00	-0.150879	0.193848	0.947754	14.350000	-8.470000	-2.940000	543.00	-0.32	-0.08
0.92	0.00	0.50	0.25	0.00	0.00	0.00	0.50	0.00	0.00	2.75	5.00	2.75	0.00	0.00	0.00	3.75	0.897949	-0.072754	1.338867	-57.889999	-190.259995	-67.550003	145.00	0.21	-0.12	12.00	16.25	7.25	11.25	1.00	2.50	0.00	0.50	0.00	0.25	0.25	0.50	0.75	0.00	0.00	0.00	-0.159668	0.191406	0.956543	13.930000	-8.400000	-3.360000	541.00	-0.32	-0.09
0.93	0.25	0.25	0.50	0.00	0.00	0.00	0.50	0.00	0.00	2.75	5.50	2.75	0.00	0.00	0.00	3.75	0.609375	0.114746	1.271484	-54.950001	-206.500000	-67.340004	154.00	0.20	-0.11	11.25	16.00	7.25	11.25	1.25	2.75	0.00	0.75	0.00	0.50	0.25	0.25	0.75	0.00	0.00	0.00	-0.155273	0.192383	0.937500	12.670000	-8.120000	-3.850000	540.00	-0.31	-0.09
0.94	0.00	0.00	0.25	0.00	0.00	0.00	0.50	0.00	0.00	2.75	5.25	3.00	0.00	0.00	0.00	4.00	0.312988	0.228516	1.186035	-49.840000	-213.220001	-56.910000	147.00	0.23	-0.13	11.00	15.75	7.00	11.25	1.25	2.50	0.00	0.75	0.25	0.25	0.25	0.75	0.75	0.00	0.00	0.00	-0.141602	0.193848	0.915527	9.800000	-7.560000	-4.550000	536.00	-0.31	-0.09
0.95	0.25	0.00	0.00	0.00	0.00	0.00	0.50	0.00	0.00	2.75	5.50	2.75	0.00	0.00	0.00	3.75	0.013184	0.347656	1.254395	-39.340000	-213.919998	-39.270000	146.00	0.23	-0.12	10.75	15.50	6.75	11.00	1.00	2.50	0.00	0.75	0.00	0.00	0.50	0.75	1.00	0.00	0.00	0.00	-0.145020	0.213379	0.912109	5.320000	-5.670000	-4.970000	521.00	-0.31	-0.10
0.96	0.00	0.25	0.25	0.00	0.00	0.00	0.50	0.00	0.00	2.75	5.50	2.75	0.00	0.00	0.00	3.75	-0.221680	0.390625	1.215332	-27.790001	-212.940002	-16.870001	148.00	0.22	-0.12	10.50	15.25	7.00	11.00	1.00	2.50	0.00	0.75	0.00	0.25	0.25	0.50	0.75	0.00	0.00	0.00	-0.149414	0.203125	0.911621	0.980000	-3.570000	-4.830000	514.00	-0.31	-0.09
0.97	0.25	0.25	0.00	0.00	0.00	0.00	0.50	0.00	0.00	2.50	5.25	2.75	0.00	0.00	0.00	3.75	-0.458496	0.308594	1.271484	-11.130000	-207.410004	7.350000	143.00	0.21	-0.13	10.25	15.00	6.75	10.75	1.00	2.50	0.00	0.75	0.25	0.00	0.25	0.75	1.00	0.00	0.00	0.00	-0.145996	0.198242	0.937012	-3.500000	-1.750000	-4.900000	510.00	-0.30	-0.09
0.98	0.00	0.25	0.25	0.00	0.00	0.00	0.50	0.00	0.00	2.50	5.50	2.50	0.00	0.00	0.00	3.75	-0.710449	0.112793	1.284180	2.520000	-201.740005	27.719999	143.00	0.22	-0.12	10.25	14.50	6.75	10.50	1.00	2.75	0.00	0.75	0.00	0.25	0.50	0.50	1.25	0.00	0.00	0.00	-0.153809	0.194824	0.926758	-7.560000	-0.350000	-5.390000	506.00	-0.30	-0.10
0.99	0.50	0.00	0.25	0.00	0.00	0.00	0.50	0.00	0.00	2.75	5.25	2.75	0.00	0.00	0.00	4.00	-0.933105	-0.070312	1.305664	10.360000	-195.509995	36.680000	150.00	0.21	-0.12	10.25	14.50	6.75	10.75	1.00	2.75	0.00	0.75	0.00	0.25	0.50	0.75	1.25	0.00	0.00	0.00	-0.164062	0.234863	0.857910	-14.700000	1.120000	-4.620000	512.00	-0.30	-0.10
1.00	0.25	0.25	0.00	0.00	0.00	0.00	0.50	0.00	0.00	2.50	5.25	2.75	0.00	0.00	0.00	3.75	-1.110840	-0.167969	1.302246	11.900000	-188.509995	33.110001	143.00	0.21	-0.13	10.25	14.75	7.00	10.75	1.25	3.25	0.00	1.00	0.00	0.25	0.75	0.25	1.75	0.00	0.00	0.00	-0.154297	0.176270	0.928711	-23.660000	4.620000	-2.240000	530.00	-0.29	-0.10
1.01	0.00	0.25	0.25	0.00	0.00	0.00	0.50	0.00	0.00	2.50	5.25	2.50	0.00	0.00	0.00	3.75	-1.261230	-0.234375	1.244141	13.370000	-180.320007	20.299999	141.00	0.22	-0.12	10.25	14.75	7.00	11.25	1.50	3.75	0.00	1.25	0.00	1.00	0.25	0.75	1.75	0.00	0.00	0.00	-0.155762	0.111816	0.980469	-26.530001	4.760000	-1.610000	556.00	-0.28	-0.10
1.02	0.00	0.00	0.00	0.00	0.00	0.00	0.50	0.00	0.00	2.50	5.00	2.50	0.00	0.00	0.00	4.00	-1.362793	-0.355957	1.140137	21.210001	-167.509995	0.420000	134.00	0.24	-0.13	10.25	14.75	7.25	11.25	1.50	4.25	0.00	1.75	0.00	0.50	0.50	1.00	2.25	0.00	0.00	0.00	-0.172852	0.145996	0.991699	-23.730000	3.220000	-1.680000	576.00	-0.27	-0.11
1.03	0.00	0.00	0.25	0.00	0.00	0.00	0.50	0.00	0.00	2.50	5.25	2.75	0.00	0.00	0.00	4.00	-1.433594	-0.412109	1.153320	27.510000	-152.250000	-22.889999	142.00	0.23	-0.13	10.25	14.75	7.25	11.75	1.75	4.75	0.00	2.25	0.00	0.50	0.75	1.00	3.00	0.00	0.00	0.00	-0.166016	0.161621	0.961914	-21.000000	3.290000	-0.910000	606.00	-0.26	-0.12
1.04	0.00	0.00	0.00	0.00	0.00	0.00	0.50	0.00	0.00	2.50	5.25	2.50	0.25	0.00	0.00	4.00	-1.567383	-0.292480	1.092773	24.570000	-138.600006	-43.680000	139.00	0.24	-0.13	10.00	14.50	7.25	11.50	1.75	5.25	0.00	2.50	0.00	0.50	0.75	1.50	3.25	0.00	0.00	0.00	-0.154785	0.150391	1.001953	-22.889999	1.960000	-1.190000	615.00	-0.25	-0.13
1.05	0.00	0.00	0.25	0.00	0.00	0.00	0.50	0.00	0.00	2.50	5.25	2.50	0.00	0.00	0.00	3.75	-1.704102	-0.109375	0.915527	20.299999	-123.830002	-56.209999	138.00	0.23	-0.12	9.50	14.00	7.25	11.50	2.00	5.75	0.25	3.00	0.00	0.75	1.00	1.50	3.75	0.00	0.00	0.00	-0.101074	0.205566	0.895020	-32.130001	-1.820000	-3.570000	635.00	-0.24	-0.13
1.06	0.00	0.00	0.25	0.00	0.00	0.00	0.50	0.00	0.00	2.75	5.00	2.50	0.00	0.00	0.00	3.75	-1.856445	0.111816	0.544434	24.219999	-84.070000	-58.520000	138.00	0.23	-0.12	9.25	13.50	7.25	11.25	2.25	6.50	0.25	3.75	0.25	0.75	1.25	2.25	4.50	0.00	0.00	0.00	-0.173340	0.163574	0.959961	-38.080002	-3.780000	-4.270000	668.00	-0.22	-0.14
1.07	0.00	0.00	0.25	0.00	0.00	0.00	0.50	0.25	0.00	2.50	5.00	2.50	0.00	0.00	0.00	3.75	-1.849609	0.250977	0.500000	23.940001	-58.799999	-46.900002	139.00	0.22	-0.13	9.00	13.00	7.25	11.25	2.50	7.50	0.25	5.50	0.00	1.25	1.50	2.50	5.25	0.00	0.00	0.00	-0.130371	0.146484	0.942383	-38.990002	-7.280000	-4.480000	714.00	-0.20	-0.16
1.08	0.00	0.25	0.25	0.00	0.00	0.00	0.50	0.00	0.00	2.50	5.00	2.75	0.00	0.00	0.00	3.75	-1.840332	0.356934	0.535156	23.660000	-35.770000	-26.460001	141.00	0.22	-0.13	8.50	12.25	7.00	11.00	3.00	8.25	0.25	6.50	0.25	1.25	2.00	3.25	6.50	0.00	0.00	0.00	-0.169434	0.112793	1.032227	-27.440001	-9.380000	-3.640000	753.00	-0.17	-0.17
1.09	0.25	0.50	0.25	0.00	0.00	0.00	0.50	0.00	0.00	2.50	5.00	3.00	0.25	0.00	0.00	3.75	-1.854492	0.378906	0.451660	26.740000	-16.870001	-0.140000	150.00	0.19	-0.13	8.00	11.75	7.00	10.75	3.50	8.75	0.50	7.25	0.25	1.50	2.75	4.25	7.50	0.25	0.00	0.50	-0.136230	0.126953	0.982422	-11.130000	-3.710000	-3.010000	801.00	-0.15	-0.17
1.10	0.25	0.25	0.25	0.00	0.00	0.00	0.50	0.00	0.25	2.50	5.00	2.50	0.00	0.00	0.00	4.00	-1.922363	0.353027	0.333496	33.529999	1.330000	23.309999	145.00	0.21	-0.11	7.25	10.75	6.75	10.50	4.25	8.75	0.50	7.75	0.50	1.75	3.50	5.75	8.50	0.50	0.00	0.50	-0.163086	0.159668	0.991699	-1.960000	3.360000	-2.800000	835.00	-0.12	-0.18
1.11	0.00	0.00	0.25	0.00	0.00	0.00	0.50	0.00	0.00	2.50	5.00	2.75	0.00	0.00	0.00	4.00	-2.040039	0.341309	0.306641	42.770000	18.410000	35.630001	140.00	0.23	-0.13	6.25	9.00	6.00	9.75	4.25	8.75	0.50	8.50	0.75	2.50	4.25	7.25	9.00	1.00	0.00	1.00	-0.148438	0.158691	0.993164	-0.000000	8.680000	-4.130000	849.00	-0.09	-0.18
1.12	0.25	0.00	0.25	0.00	0.00	0.00	0.50	0.00	0.00	2.25	5.00	2.50	0.00	0.00	0.00	3.75	-2.128418	0.319824	0.246094	52.009998	31.150000	35.910000	136.00	0.21	-0.12	4.75	7.50	5.25	8.75	3.75	8.50	0.75	8.75	1.00	3.00	6.50	8.00	9.75	1.75	0.25	1.50	-0.166504	0.180176	1.019531	-0.630000	11.970000	-7.630000	858.00	-0.05	-0.19
1.13	0.00	0.00	0.25	0.00	0.00	0.00	0.50	0.00	0.00	2.50	4.75	2.75	0.00	0.00	0.00	4.00	-2.158691	0.310547	0.150879	58.660000	41.160000	27.719999	137.00	0.23	-0.13	3.25	5.75	3.75	7.75	3.50	8.00	0.50	8.75	1.50	3.50	7.50	8.50	10.50	2.75	0.50	2.50	-0.191895	0.177734	1.039551	-0.280000	15.750000	-10.290000	837.00	-0.01	-0.19
1.14	0.25	0.25	0.25	0.00	0.00	0.00	0.50	0.00	0.00	2.75	5.25	2.75	0.00	0.00	0.00	3.75	-2.163574	0.249023	-0.001465	63.420002	52.570000	14.770000	148.00	0.21	-0.12	2.25	4.00	2.25	6.00	2.50	6.75	0.50	8.75	2.00	3.50	8.25	9.25	11.00	5.00	1.25	3.50	-0.237793	0.290039	1.009277	6.510000	19.600000	-18.900000	810.00	0.04	-0.19
1.15	0.00	0.00	0.00	0.00	0.00	0.00	0.50	0.00	0.00	2.50	5.00	2.50	0.00	0.00	0.00	4.00	-2.066406	0.242188	-0.129883	58.029999	64.260002	0.420000	134.00	0.24	-0.13	1.00	2.00	1.50	5.00	1.25	5.25	0.25	8.50	2.25	3.75	9.25	10.00	11.50	6.75	2.00	5.00	0.135254	0.314453	1.071777	19.530001	28.210001	-31.219999	781.00	0.10	-0.20
1.16	0.50	0.50	0.50	0.00	0.00	0.00	0.50	0.00	0.00	2.75	5.00	2.75	0.00	0.00	0.00	4.00	-1.892090	0.360840	-0.244141	48.230000	71.610001	-14.140000	155.00	0.18	-0.11	0.75	1.50	1.00	3.50	0.50	4.00	0.00	7.75	2.50	3.75	9.75	10.50	11.75	8.75	2.50	6.00	-0.079102	0.391113	1.163574	48.509998	62.160000	-49.700001	758.00	0.14	-0.19
1.17	2.00	4.25	0.75	1.00	0.00	0.00	0.50	0.00	0.00	2.50	5.00	2.50	0.00	0.00	0.00	4.00	0.770508	-0.830566	-0.780762	89.459999	118.230003	13.860000	213.00	0.01	-0.11	0.50	0.00	0.75	2.75	0.00	2.50	0.00	7.25	2.00	3.75	9.75	10.50	11.50	11.25	3.25	6.75	-0.193848	0.360352	1.386719	74.199997	136.570007	-54.599998	726.00	0.18	-0.19
1.18	7.75	10.25	1.50	1.50	0.00	0.00	0.50	0.00	0.00	2.50	5.25	2.50	0.00	0.00	0.00	4.00	-0.440918	-0.691406	3.289062	98.070000	168.630005	9.030000	345.00	-0.14	-0.08	0.75	0.00	0.25	1.75	0.00	1.50	0.00	6.00	1.50	3.25	9.75	10.25	11.00	13.50	3.75	7.50	-0.351074	0.224609	1.604492	103.879997	224.979996	-67.550003	692.00	0.20	-0.17
1.19	9.50	14.00	2.25	1.75	0.25	0.00	0.50	0.00	0.25	2.50	5.00	2.75	0.00	0.00	0.00	3.75	-0.891602	0.506348	2.847656	50.189999	126.419998	-37.869999	413.00	-0.18	-0.07	0.25	0.00	0.25	1.25	0.00	0.75	0.00	5.25	1.50	3.25	9.25	9.75	9.75	16.00	5.25	8.25	-0.104492	0.450684	1.826660	75.599998	314.019989	-78.540001	681.00	0.23	-0.15
1.20	10.00	14.25	2.25	2.50	0.25	0.00	0.50	0.00	0.00	2.50	5.00	2.50	0.00	0.00	0.00	3.75	-0.591309	1.439941	2.059570	1.960000	71.820000	-37.029999	423.00	-0.19	-0.07	0.00	0.00	0.00	1.00	0.00	0.25	0.00	3.75	1.25	3.00	8.50	8.75	8.50	17.50	5.75	8.25	-0.579590	0.688477	2.152344	24.710001	406.000000	-94.080002	628.00	0.26	-0.13
1.21	10.00	14.75	2.00	2.50	0.25	0.00	0.75	0.00	0.00	2.50	5.00	2.50	0.00	0.00	0.00	3.75	0.033691	0.744141	0.478516	-23.450001	47.389999	4.620000	428.00	-0.19	-0.07	0.00	0.00	0.00	0.00	0.00	0.00	0.00	3.00	0.75	2.75	7.50	7.50	7.25	18.00	6.00	8.25	-0.508301	0.455078	2.049316	23.240000	481.390015	-109.620003	566.00	0.28	-0.12
1.22	12.25	16.25	2.75	3.50	0.25	0.00	0.50	0.00	0.00	2.50	5.00	3.00	0.00	0.00	0.00	3.75	0.232422	-0.457031	-0.021973	-14.490000	73.080002	24.990000	486.00	-0.21	-0.07	0.00	0.00	0.00	0.00	0.00	0.00	0.00	1.50	0.50	2.00	5.00	5.50	5.50	18.00	6.25	7.75	-0.651367	0.718262	2.695312	-15.540000	550.479980	-121.520004	469.00	0.31	-0.09
1.23	15.00	20.00	3.50	5.00	0.50	0.00	0.50	0.00	0.00	2.50	5.25	2.75	0.00	0.00	0.00	3.75	-0.172363	-0.726562	1.031738	14.630000	94.989998	7.000000	577.00	-0.23	-0.07	0.00	0.00	0.00	0.00	0.00	0.00	0.00	0.50	0.25	1.75	3.25	3.75	3.25	16.50	5.75	6.50	-0.824707	0.828125	3.451172	-14.770000	618.869995	-127.540001	367.00	0.33	-0.06
1.24	18.00	23.50	4.50	5.75	1.00	0.00	0.75	0.00	0.00	2.50	5.25	2.75	0.00	0.00	0.00	4.00	-0.588867	-0.025391	1.860352	30.870001	81.550003	-21.910000	670.00	-0.25	-0.06	0.00	0.00	0.00	0.00	0.00	0.00	0.00	0.25	0.00	1.25	2.00	2.00	2.25	14.00	5.00	5.50	-0.656250	0.458984	4.192871	9.660000	679.979980	-140.000000	280.00	0.35	-0.04
1.25	19.00	26.00	5.50	7.25	1.00	0.00	0.75	0.00	0.00	2.50	5.25	2.75	0.00	0.00	0.00	3.75	-0.373535	0.607422	1.413574	30.660000	47.529999	-25.830000	730.00	-0.26	-0.06	0.00	0.00	0.00	0.00	0.00	0.00	0.00	0.00	0.00	0.75	0.75	1.00	1.00	10.75	3.50	3.75	-0.954590	1.228027	4.934570	12.810000	734.440002	-189.839996	184.00	0.37	-0.00
1.26	20.25	27.50	6.25	8.25	1.25	0.25	0.75	0.00	0.00	2.25	5.25	2.75	0.00	0.00	0.00	4.00	-0.115234	0.350098	0.861816	28.910000	36.680000	-8.960000	780.00	-0.26	-0.07	0.00	0.00	0.00	0.00	0.00	0.00	0.00	0.00	0.00	0.25	0.50	0.75	0.75	6.75	2.25	1.25	-0.754883	1.690430	6.395996	45.080002	705.250000	-217.070007	110.00	0.37	0.00
1.27	20.00	28.75	6.50	9.25	1.50	0.75	0.75	0.00	0.00	2.50	5.00	3.00	0.00	0.00	0.00	4.00	-0.415527	0.081543	1.436523	31.639999	29.190001	-11.270000	814.00	-0.26	-0.07	0.00	0.00	0.25	0.25	0.00	0.00	0.00	0.00	0.00	0.25	0.00	0.25	0.50	1.75	0.00	0.00	1.203613	1.634766	6.170898	114.800003	632.309998	-229.949997	30.00	0.00	0.00
1.28	21.00	29.25	7.00	9.75	1.25	0.50	0.75	0.00	0.00	2.50	5.25	3.00	0.00	0.00	0.00	4.00	-0.301758	0.295410	1.151367	32.549999	5.670000	-12.740000	837.00	-0.26	-0.07	0.25	0.00	0.50	0.50	0.00	0.00	0.00	0.00	0.00	0.00	0.00	0.25	0.00	0.50	0.00	0.00	3.918945	0.208496	3.997559	103.110001	459.549988	-236.389999	21.00	0.00	0.00
1.29	20.75	30.00	6.75	10.00	1.25	0.75	0.75	0.00	0.00	2.50	5.25	2.75	0.00	0.00	0.00	3.75	-0.149414	0.271973	0.978027	30.030001	-1.750000	-8.540000	840.00	-0.27	-0.07	0.00	0.00	0.25	0.50	0.00	0.00	0.00	0.00	0.00	0.00	0.00	0.00	0.00	0.25	0.00	0.00	-0.895508	5.722656	14.068359	-21.980000	175.559998	-78.540001	10.00	0.00	0.00
1.30	20.50	29.50	6.75	10.00	1.25	0.75	0.75	0.00	0.00	2.25	5.25	2.75	0.00	0.00	0.00	3.75	-0.161133	0.190430	0.959961	25.549999	-0.350000	-6.020000	830.00	-0.27	-0.07	0.00	0.00	0.00	0.25	0.00	0.00	0.00	0.00	0.00	0.00	0.00	0.00	0.00	0.25	0.00	0.00	3.817871	0.790527	4.079590	-62.020000	-141.330002	85.050003	5.00	0.00	0.00
1.31	19.25	29.00	6.50	10.25	1.00	1.00	0.50	0.00	0.00	2.75	5.00	2.75	0.00	0.00	0.00	4.00	-0.148438	0.123535	0.923340	21.629999	1.680000	-7.770000	812.00	-0.26	-0.08	0.00	0.00	0.25	0.00	0.00	0.00	0.00	0.00	0.00	0.00	0.00	0.00	0.25	0.25	0.00	0.00	2.896973	-0.773926	0.368164	-84.559998	-212.869995	77.489998	7.00	0.00	0.00
1.32	18.75	27.75	6.25	9.50	1.00	0.50	0.50	0.00	0.00	2.50	5.00	3.00	0.00	0.00	0.00	3.75	-0.040039	0.265137	0.634277	12.950000	9.520000	-10.780000	778.00	-0.26	-0.07	0.00	0.00	0.25	0.00	0.00	0.00	0.00	0.00	0.00	0.00	0.00	0.00	0.25	0.00	0.00	0.00	1.743164	0.026855	1.933594	-65.870003	-124.389999	-3.920000	5.00	0.00	0.00
1.33	16.75	26.00	6.00	9.25	1.00	0.75	0.50	0.25	0.00	2.50	5.50	3.00	0.25	0.00	0.00	3.75	-0.051270	0.392578	0.678223	-1.890000	27.160000	-9.520000	750.00	-0.25	-0.08	0.00	0.00	0.50	0.00	0.00	0.00	0.00	0.00	0.00	0.00	0.00	0.00	0.00	0.00	0.00	0.00	2.722656	0.104004	3.231934	-22.469999	-135.729996	-58.240002	6.00	0.00	0.00
1.34	14.75	23.50	5.75	8.75	1.00	1.00	0.50	0.50	0.00	2.50	5.00	2.75	0.00	0.00	0.00	3.75	-0.117676	0.240723	0.832031	-15.890000	43.330002	-6.370000	694.00	-0.24	-0.08	0.00	0.00	0.25	0.00	0.00	0.00	0.00	0.00	0.00	0.00	0.00	0.00	0.00	0.00	0.00	0.00	2.307129	0.143555	3.832520	-45.009998	-267.260010	-91.629997	3.00	0.00	0.00
1.35	11.75	20.50	5.50	8.25	1.00	0.75	0.75	0.25	0.00	2.75	5.25	2.75	0.25	0.00	0.00	3.75	-0.234863	0.082031	1.059570	-19.879999	48.509998	-7.490000	632.00	-0.22	-0.09	0.00	0.00	0.00	0.00	0.00	0.00	0.00	0.00	0.00	0.00	0.00	0.00	0.00	0.00	0.00	0.00	1.967285	0.091797	2.792969	-92.260002	-390.670013	-126.840004	0.00	0.00	0.00
1.36	9.25	17.50	5.00	7.75	1.00	1.00	0.75	0.50	0.00	2.50	5.50	3.00	0.25	0.00	0.00	4.00	-0.168457	0.222656	0.891113	-27.650000	44.450001	-10.920000	578.00	-0.20	-0.10	0.00	0.00	0.00	0.00	0.00	0.00	0.00	0.00	0.00	0.00	0.00	0.00	0.00	0.00	0.00	0.00	1.574219	0.332031	2.124023	-106.120003	-453.250000	-171.080002	0.00	0.00	0.00
1.37	7.75	13.50	4.25	7.00	1.00	0.75	0.50	0.50	0.00	3.00	6.00	3.00	0.25	0.00	0.00	4.00	-0.143066	0.201172	0.760742	-42.700001	54.110001	-11.550000	513.00	-0.16	-0.10	0.00	0.00	0.00	0.00	0.00	0.00	0.00	0.00	0.00	0.00	0.00	0.00	0.00	0.00	0.00	0.00	1.305176	0.692383	1.906738	-63.209999	-480.970001	-202.930008	0.00	0.00	0.00
1.38	6.00	9.75	3.50	6.00	1.00	1.00	0.75	0.75	0.00	3.00	6.00	3.25	0.75	0.00	0.00	3.75	-0.352051	0.067871	1.283203	-53.270000	62.580002	-11.620000	457.00	-0.12	-0.11	0.00	0.00	0.00	0.00	0.00	0.00	0.00	0.00	0.00	0.00	0.00	0.00	0.00	0.00	0.00	0.00	1.114258	0.834473	1.769043	7.420000	-505.119995	-215.529999	0.00	0.00	0.00
1.39	4.75	7.25	2.75	4.75	1.00	1.00	0.75	0.75	0.00	3.25	6.25	3.50	0.75	0.00	0.00	3.75	-0.276855	-0.050293	1.238281	-49.209999	40.950001	-9.310000	407.00	-0.08	-0.11	0.00	0.00	0.00	0.00	0.00	0.00	0.25	0.00	0.00	0.00	0.00	0.00	0.00	0.00	0.00	0.00	0.890625	0.937988	1.571777	72.730003	-525.280029	-215.180008	4.00	0.00	0.00
1.40	3.00	5.50	2.25	3.50	0.75	0.75	0.75	0.75	0.00	3.25	6.75	3.75	1.25	0.50	0.00	4.00	-0.219238	0.109863	0.987793	-37.450001	27.090000	-10.570000	365.00	-0.02	-0.12	0.00	0.00	0.00	0.00	0.00	0.00	0.00	0.00	0.00	0.00	0.00	0.00	0.00	0.00	0.00	0.00	0.641602	1.128418	1.442871	126.699997	-531.159973	-198.940002	0.00	0.00	0.00
1.41	1.75	3.25	1.00	2.00	0.75	1.00	0.75	1.25	0.00	3.50	6.75	5.25	2.00	0.75	0.00	4.00	-0.250000	0.165527	0.932129	-33.810001	20.299999	-9.870000	339.00	0.05	-0.15	0.00	0.00	0.00	0.00	0.00	0.00	0.00	0.00	0.00	0.00	0.00	0.00	0.00	0.00	0.00	0.00	0.348633	1.319336	1.540039	179.690002	-523.950012	-163.660004	0.00	0.00	0.00
1.42	1.00	2.25	1.00	1.75	0.50	0.50	0.75	1.50	0.25	3.75	7.25	6.00	2.75	1.00	0.00	4.00	-0.306641	0.126953	0.896484	-33.389999	11.410000	-10.010000	342.00	0.10	-0.16	0.00	0.00	0.25	0.00	0.00	0.00	0.25	0.00	0.00	0.00	0.00	0.00	0.00	0.00	0.00	0.00	0.052246	1.479980	1.852539	229.949997	-511.839996	-108.570000	7.00	0.00	0.00
1.43	0.50	1.50	0.50	1.00	0.50	0.50	0.75	2.00	0.25	4.00	7.75	7.00	3.75	1.75	0.00	4.25	-0.228027	0.134277	0.982910	-29.680000	4.760000	-11.620000	359.00	0.14	-0.17	0.00	0.00	0.00	0.00	0.00	0.00	0.00	0.00	0.00	0.00	0.00	0.00	0.00	0.00	0.00	0.00	-0.496094	1.532227	2.286133	274.190002	-501.690002	-29.540001	0.00	0.00	0.00
1.44	0.25	0.75	0.75	1.00	0.50	0.50	0.75	2.75	0.75	5.00	8.50	8.00	5.75	2.50	0.00	4.50	-0.187500	0.139160	0.978516	-17.430000	3.990000	-15.820000	424.00	0.16	-0.17	0.00	0.00	0.00	0.00	0.00	0.00	0.00	0.00	0.00	0.00	0.00	0.00	0.00	0.00	0.00	0.00	-2.094727	1.157227	2.821289	312.899994	-494.690002	70.139999	0.00	0.00	0.00
1.45	0.00	0.75	0.75	0.75	0.50	0.50	0.75	4.00	1.00	6.50	9.50	9.00	6.75	3.75	0.50	5.00	-0.251465	0.152344	0.934570	-6.440000	6.930000	-19.040001	505.00	0.17	-0.17	0.00	0.00	0.00	0.00	0.00	0.00	0.00	0.00	0.00	0.00	0.00	0.00	0.00	0.00	0.00	0.00	-2.966797	-0.164062	3.583984	309.470001	-476.630005	250.809998	0.00	0.00	0.00
1.46	0.25	0.50	0.25	0.50	0.50	0.50	0.75	5.00	2.00	7.50	10.75	10.00	7.75	5.25	0.50	5.25	-0.279297	0.087402	0.944336	-2.170000	10.920000	-18.830000	582.00	0.19	-0.16	0.00	0.00	0.00	0.00	0.00	0.00	0.00	0.00	0.00	0.00	0.00	0.00	0.00	0.00	0.00	0.00	-3.659668	-0.563477	3.452637	257.390015	-463.890015	314.440002	0.00	0.00	0.00
1.47	0.00	0.50	0.25	0.75	0.50	0.75	0.75	5.25	2.75	8.50	12.00	11.25	8.50	7.25	0.75	5.75	-0.274414	0.119629	0.908691	-4.410000	15.120000	-14.210000	664.00	0.19	-0.15	0.00	0.00	0.00	0.00	0.00	0.00	0.00	0.00	0.00	0.00	0.00	0.00	0.00	0.00	0.00	0.00	-4.318359	-0.880859	3.190918	200.690002	-443.660004	365.750000	0.00	0.00	0.00
1.48	0.00	0.00	0.50	0.50	0.50	0.50	0.75	5.50	4.00	9.25	13.25	12.25	9.25	9.00	1.25	6.25	-0.259277	0.159180	0.985352	-2.940000	31.290001	-11.900000	738.00	0.21	-0.14	0.00	0.00	0.00	0.00	0.00	0.00	0.00	0.00	0.00	0.00	0.00	0.00	0.00	0.00	0.00	0.00	-5.115234	-1.251465	3.006836	157.710007	-414.610016	393.610016	0.00	0.00	0.00
1.49	0.00	0.00	0.50	0.25	0.50	0.50	1.00	5.50	5.50	10.25	14.50	13.25	9.75	11.00	1.75	6.75	-0.249023	0.155273	1.045410	6.230000	45.849998	-18.690001	822.00	0.22	-0.12	0.00	0.00	0.00	0.00	0.00	0.00	0.00	0.00	0.00	0.00	0.00	0.00	0.00	0.00	0.00	0.00	-5.893066	-1.530762	2.520508	115.919998	-378.559998	383.179993	0.00	0.00	0.00
1.50	0.00	0.00	0.00	0.00	0.25	0.50	0.75	5.75	6.50	11.00	15.50	14.25	10.25	13.00	2.50	7.25	-0.232910	0.127441	1.112305	15.680000	66.290001	-24.080000	885.00	0.23	-0.11	0.00	0.00	0.00	0.00	0.00	0.00	0.00	0.00	0.00	0.00	0.00	0.00	0.00	0.00	0.00	0.00	-6.424316	-1.246094	1.702637	64.190002	-331.730011	341.320007	0.00	0.00	0.00
1.51	0.00	0.00	0.25	0.25	0.25	0.25	0.50	5.50	7.50	11.75	16.50	15.25	10.75	15.25	3.00	7.75	-0.258789	0.130859	1.116699	28.630001	96.669998	-25.200001	953.00	0.23	-0.11	0.00	0.00	0.00	0.00	0.00	0.00	0.00	0.00	0.00	0.00	0.00	0.00	0.00	0.00	0.00	0.00	-6.695312	-0.674316	0.737793	19.670000	-271.880005	283.220001	0.00	0.00	0.00
1.52	0.00	0.00	0.00	0.00	0.00	0.00	0.50	5.25	7.75	12.00	17.00	15.50	10.50	17.50	4.25	8.50	-0.299805	0.260742	1.233887	48.230000	145.669998	-27.090000	987.00	0.24	-0.10	0.00	0.00	0.00	0.00	0.00	0.00	0.00	0.00	0.00	0.00	0.00	0.00	0.00	0.00	0.00	0.00	-6.635742	-0.095703	0.118652	7.560000	-208.529999	212.380005	0.00	0.00	0.00
1.53	0.00	0.00	0.00	0.00	0.00	0.00	0.25	4.50	8.00	12.00	17.25	15.75	10.50	19.25	5.00	9.25	-0.294922	0.230957	1.310547	60.060001	207.130005	-33.529999	1007.00	0.25	-0.09	0.00	0.00	0.00	0.00	0.00	0.00	0.00	0.00	0.00	0.00	0.00	0.00	0.00	0.00	0.00	0.00	-6.639648	0.362305	-0.228516	41.439999	-147.839996	136.080002	0.00	0.00	0.00
1.54	0.00	0.00	0.00	0.00	0.00	0.25	0.00	3.50	8.00	12.00	17.00	15.50	9.75	20.75	6.00	9.75	-0.394531	0.214355	1.313965	66.849998	265.860016	-38.290001	1005.00	0.26	-0.08	0.00	0.00	0.00	0.00	0.00	0.00	0.00	0.00	0.00	0.00	0.00	0.00	0.00	0.00	0.00	0.00	-6.814453	0.392090	-0.815918	112.910004	-72.590004	70.419998	0.00	0.00	0.00
1.55	0.00	0.00	0.00	0.00	0.00	0.00	0.00	3.00	8.00	11.75	16.75	15.25	8.75	21.75	6.25	10.00	-0.508789	0.152344	1.480469	60.549999	324.239990	-40.110001	990.00	0.27	-0.07	0.00	0.00	0.00	0.00	0.00	0.00	0.00	0.00	0.00	0.00	0.00	0.00	0.00	0.25	0.00	0.00	-6.486328	0.126953	-1.021973	155.750000	33.110001	31.780001	2.00	0.00	0.00
1.56	0.00	0.00	0.00	0.00	0.00	0.00	0.00	2.25	7.75	11.50	16.00	14.25	7.75	22.25	6.50	10.75	-0.613281	0.248535	1.812012	60.060001	380.869995	-42.560001	957.00	0.27	-0.07	0.00	0.00	0.00	0.00	0.00	0.00	0.00	0.00	0.00	0.00	0.00	0.00	0.00	0.25	0.00	0.00	-5.690918	-0.071777	-0.146973	135.449997	130.550003	24.430000	2.00	0.00	0.00
1.57	0.00	0.00	0.00	0.00	0.00	0.00	0.00	1.50	7.25	11.00	15.00	12.75	6.25	22.50	7.00	11.00	-0.516113	0.065430	1.668945	58.520000	436.450012	-37.730000	903.00	0.28	-0.05	0.00	0.00	0.25	0.00	0.00	0.00	0.00	0.00	0.00	0.00	0.00	0.00	0.00	0.25	0.00	0.00	-4.708008	-0.214844	0.720215	90.930000	169.960007	39.410000	5.00	0.00	0.00
1.58	0.00	0.00	0.00	0.00	0.00	0.00	0.00	0.75	5.75	10.25	13.50	11.25	5.25	22.25	7.25	11.25	-0.656738	0.245605	1.729980	46.410000	496.230011	-38.220001	826.00	0.29	-0.05	1.00	1.50	0.50	0.75	0.00	0.00	0.00	0.00	0.00	0.00	0.00	0.00	0.00	0.00	0.00	0.00	-2.754395	-0.220703	0.472656	51.310001	171.990005	62.510002	38.00	0.00	0.00
1.59	0.00	0.00	0.00	0.00	0.00	0.00	0.00	0.50	3.50	9.50	12.25	10.00	3.75	21.25	7.50	10.75	-0.961914	0.492188	2.275879	33.040001	550.409973	-41.509998	737.00	0.30	-0.05	6.50	9.75	1.50	3.00	0.00	0.00	0.00	0.00	0.00	0.00	0.00	0.00	0.00	0.00	0.00	0.00	2.232910	-0.765137	-4.680176	-168.770004	193.270004	78.120003	207.00	-0.38	-0.07
1.60	0.00	0.00	0.00	0.00	0.00	0.00	0.00	0.00	1.50	8.00	10.50	8.50	2.50	18.75	6.50	9.75	-1.387207	0.680664	3.181641	75.040001	600.739990	-42.770000	605.00	0.31	-0.05	15.00	17.50	3.25	6.00	0.00	0.00	0.00	0.00	0.00	0.00	0.00	0.00	0.00	0.00	0.00	0.00	-0.276855	-0.096191	2.060059	-173.460007	284.760010	48.650002	418.00	-0.38	-0.05
1.61	0.00	0.00	0.00	0.00	0.00	0.00	0.00	0.00	0.00	6.25	8.50	7.00	1.50	14.75	5.50	7.75	-1.725098	0.603516	4.103027	150.639999	632.940002	-33.110001	467.00	0.31	-0.06	20.25	20.50	5.75	8.50	0.00	0.00	0.00	0.00	0.00	0.00	0.00	0.00	0.00	0.00	0.00	0.00	-1.893555	-0.116211	4.077148	-100.449997	392.700012	52.360001	556.00	-0.37	-0.04
1.62	0.00	0.00	0.00	0.00	0.00	0.00	0.00	0.00	0.25	5.25	7.25	5.75	1.00	10.50	4.25	6.00	-2.129395	0.575195	5.093262	208.529999	638.960022	-28.700001	370.00	0.30	-0.07	21.50	20.75	7.50	9.25	0.25	0.00	0.00	0.00	0.00	0.00	0.00	0.00	0.25	0.00	0.00	0.00	-1.713867	-0.922852	5.083496	-81.550003	352.589996	40.110001	604.00	-0.37	-0.04
1.63	0.00	0.00	0.00	0.00	0.00	0.00	0.25	0.00	0.00	4.75	6.50	5.25	0.75	6.25	2.00	4.50	-1.408203	0.435547	5.687500	217.559998	632.940002	-36.680000	282.00	0.28	-0.08	20.00	19.50	8.00	10.00	0.25	0.00	0.25	0.00	0.00	0.00	0.00	0.00	0.25	0.00	0.00	0.00	-0.558594	-0.757324	2.109863	-72.940002	241.779999	0.280000	594.00	-0.36	-0.04
1.64	0.00	0.00	0.00	0.00	0.00	0.00	0.25	0.25	0.00	3.75	6.00	4.75	0.75	1.50	0.25	4.25	-0.320312	0.668457	6.069336	195.089996	604.169983	-57.540001	205.00	0.24	-0.14	19.00	18.75	9.00	10.50	0.50	0.00	0.25	0.00	0.00	0.00	0.00	0.00	0.00	0.75	0.00	0.00	-0.285156	-0.075195	1.310547	-19.040001	205.169998	-29.330000	601.00	-0.35	-0.04
1.65	0.00	0.00	0.00	0.00	0.00	0.00	0.25	0.00	0.00	4.00	6.00	4.75	0.50	0.75	0.00	4.25	2.622559	0.191406	4.533203	170.169998	554.539978	-92.330002	192.00	0.24	-0.14	17.00	18.25	9.50	11.25	1.00	0.75	0.25	0.00	0.00	0.00	0.00	0.00	0.50	0.50	0.00	0.00	-0.495605	0.674316	1.627930	35.139999	162.680008	-12.460000	605.00	-0.34	-0.05
1.66	0.00	0.00	0.00	0.00	0.00	0.00	0.25	0.00	0.00	4.00	5.75	4.75	0.50	0.75	0.00	4.25	2.355469	3.073242	7.402832	59.010002	452.549988	-146.089996	190.00	0.24	-0.14	16.00	17.50	9.50	11.75	1.50	1.25	0.50	0.50	0.50	0.00	0.00	0.00	0.75	1.25	0.00	0.00	-0.354004	-0.125977	1.905273	-14.770000	40.320000	-3.430000	631.00	-0.31	-0.05
1.67	0.00	0.00	0.00	0.00	0.00	0.00	0.50	0.00	0.00	4.00	5.50	4.25	0.50	0.25	0.00	4.00	3.273438	1.170410	6.734375	-2.800000	97.790001	-131.320007	180.00	0.24	-0.13	15.25	16.50	9.75	11.50	1.50	1.75	0.50	0.75	0.50	0.00	0.00	0.00	1.25	2.00	0.00	0.00	-0.167969	0.034668	1.138184	-38.779999	-2.870000	-3.920000	634.00	-0.29	-0.05
1.68	0.00	0.00	0.00	0.00	0.00	0.00	0.50	0.00	0.00	3.75	6.00	4.25	0.50	0.50	0.00	4.00	3.316895	-0.517578	4.197266	-18.200001	-106.050003	-167.930008	185.00	0.24	-0.13	14.00	16.00	9.50	11.50	1.75	2.25	0.75	1.00	0.75	0.00	0.00	0.00	1.50	1.50	0.00	0.25	-0.313965	0.143555	1.160156	-18.620001	-14.700000	-4.690000	632.00	-0.28	-0.06
1.69	0.00	0.00	0.00	0.00	0.00	0.00	0.50	0.00	0.00	3.50	6.00	4.00	0.25	0.00	0.00	4.25	2.311035	0.230957	2.656250	-108.290001	-229.040009	-283.570007	174.00	0.24	-0.14	13.75	15.75	9.50	11.25	1.75	3.00	0.50	1.00	0.50	0.00	0.00	0.00	1.25	1.50	0.00	0.25	-0.189941	0.202148	1.026855	-12.950000	-10.360000	-2.100000	623.00	-0.29	-0.06
1.70	0.00	0.00	0.00	0.00	0.00	0.00	0.50	0.00	0.00	3.75	5.50	3.75	0.25	0.00	0.00	4.00	2.146484	0.658691	2.478027	-94.290001	-274.399994	-301.489990	168.00	0.23	-0.13	12.50	14.75	9.25	11.00	1.75	2.50	0.50	1.00	0.50	0.00	0.00	0.00	1.25	1.25	0.00	0.00	-0.182129	0.144531	1.030273	-10.850000	-1.260000	-0.700000	586.00	-0.29	-0.06
1.71	0.25	0.00	0.00	0.00	0.00	0.00	0.50	0.00	0.00	3.50	5.50	3.75	0.00	0.00	0.25	3.75	1.787109	0.837891	2.431152	-69.650002	-328.019989	-290.570007	167.00	0.23	-0.12	11.75	14.00	8.50	10.75	1.50	2.00	0.50	1.00	0.75	0.00	0.00	0.00	0.75	1.25	0.00	0.00	-0.160156	0.149414	1.013672	-7.420000	6.160000	-0.490000	551.00	-0.29	-0.06
1.72	0.00	0.00	0.00	0.00	0.00	0.00	0.50	0.00	0.00	3.25	5.25	3.75	0.25	0.25	0.00	4.00	1.482910	0.865723	2.095215	-67.760002	-377.579987	-259.489990	162.00	0.24	-0.13	10.25	12.75	7.75	10.00	1.25	1.25	0.50	0.50	0.75	0.00	0.00	0.00	0.50	0.75	0.00	0.00	-0.155762	0.175781	0.960938	-6.020000	11.900000	0.070000	483.00	-0.30	-0.06
1.73	0.00	0.00	0.25	0.00	0.00	0.00	0.75	0.00	0.00	3.25	5.25	3.50	0.00	0.00	0.00	4.00	1.109375	1.023926	1.786621	-89.110001	-408.869995	-218.470001	162.00	0.22	-0.12	9.00	11.75	7.00	9.25	1.25	1.50	0.50	0.25	0.50	0.00	0.00	0.00	0.25	0.75	0.00	0.00	-0.126465	0.171387	0.944824	-9.800000	16.170000	0.560000	437.00	-0.30	-0.06
1.74	0.00	0.00	0.00	0.00	0.00	0.00	0.50	0.00	0.00	3.25	5.50	3.25	0.00	0.25	0.00	4.00	0.752441	1.273438	1.675293	-88.620003	-421.959991	-173.039993	157.00	0.24	-0.12	7.75	10.25	6.00	8.25	1.00	1.00	0.50	0.25	0.75	0.00	0.00	0.00	0.50	0.75	0.00	0.00	-0.114258	0.178223	0.907715	-18.059999	19.670000	0.420000	386.00	-0.29	-0.06
1.75	0.00	0.00	0.00	0.00	0.00	0.00	0.50	0.00	0.00	3.25	5.25	3.25	0.00	0.00	0.00	4.00	0.397949	1.395508	1.670898	-45.990002	-430.500000	-124.389999	153.00	0.24	-0.13	6.75	9.00	5.25	7.75	0.75	0.50	0.50	0.25	0.50	0.00	0.00	0.00	0.25	0.75	0.00	0.00	-0.156250	0.163086	1.009766	-24.639999	20.930000	0.350000	336.00	-0.30	-0.06
1.76	0.00	0.00	0.00	0.00	0.00	0.25	0.50	0.00	0.00	3.25	5.25	3.25	0.00	0.00	0.00	4.00	0.124023	1.326172	1.654297	20.510000	-436.799988	-71.889999	155.00	0.23	-0.13	6.00	8.00	4.25	6.75	0.75	0.50	0.50	0.25	0.50	0.50	0.00	0.00	0.50	0.50	0.00	0.00	-0.160645	0.083496	0.969238	-16.170000	17.360001	0.770000	303.00	-0.28	-0.06
1.77	0.00	0.00	0.00	0.00	0.00	0.00	0.50	0.00	0.00	3.25	5.25	3.25	0.00	0.00	0.00	4.00	-0.135742	1.104980	1.749023	78.820000	-438.269989	-18.760000	153.00	0.24	-0.13	4.75	7.00	3.50	6.25	0.75	0.25	0.50	0.00	0.50	0.50	0.00	0.00	0.25	0.50	0.00	0.00	-0.162109	0.125488	0.964355	-11.060000	13.650000	1.540000	258.00	-0.28	-0.05
1.78	0.00	0.00	0.00	0.00	0.00	0.00	0.50	0.00	0.00	3.25	5.25	3.25	0.00	0.00	0.00	4.00	-0.368652	0.842285	2.049805	111.230003	-440.019989	25.620001	153.00	0.24	-0.13	4.00	6.75	3.00	5.75	0.50	0.50	0.25	0.25	0.25	0.50	0.00	0.00	0.25	0.25	0.00	0.00	-0.167480	0.127930	0.959473	-4.620000	9.870000	3.220000	231.00	-0.29	-0.08
1.79	0.00	0.00	0.00	0.00	0.00	0.00	0.50	0.00	0.00	3.25	5.25	3.25	0.00	0.00	0.00	4.00	-0.661621	0.510254	2.417969	128.100006	-445.690002	49.490002	153.00	0.24	-0.13	3.00	5.50	2.50	5.25	0.50	0.50	0.25	0.25	0.25	0.50	0.00	0.00	0.50	0.75	0.00	0.00	-0.117676	0.138184	0.854004	-5.530000	5.180000	3.290000	205.00	-0.26	-0.08
1.80	0.00	0.00	0.00	0.00	0.00	0.00	0.50	0.00	0.00	3.25	5.25	3.00	0.00	0.00	0.00	3.75	-0.993164	0.166504	2.649902	142.100006	-456.890015	50.189999	149.00	0.24	-0.12	2.25	4.50	2.00	5.00	0.50	0.00	0.50	0.50	0.25	0.75	0.25	0.25	1.25	0.25	0.00	0.00	-0.135742	0.134766	0.939941	-11.410000	1.960000	1.960000	192.00	-0.22	-0.10
1.81	0.00	0.00	0.00	0.00	0.00	0.00	0.50	0.00	0.00	3.25	5.00	3.25	0.00	0.00	0.00	4.00	-1.266602	0.001953	2.801270	140.000000	-464.100006	42.000000	150.00	0.24	-0.13	2.00	3.50	2.00	5.00	0.50	1.25	0.25	0.50	0.25	0.75	0.75	0.75	1.75	0.50	0.00	0.00	-0.153809	0.139160	0.901367	-14.070000	0.490000	0.630000	207.00	-0.17	-0.13
1.82	0.00	0.00	0.00	0.00	0.00	0.00	0.50	0.00	0.00	2.75	5.50	3.25	0.00	0.00	0.00	4.00	-1.510254	0.103027	2.852539	117.949997	-463.470001	40.529999	150.00	0.24	-0.13	2.00	2.75	1.75	4.75	0.75	0.75	0.25	1.00	0.25	1.50	1.25	1.00	2.25	0.75	0.00	0.00	-0.133301	0.162109	0.941895	-19.809999	-0.350000	-0.000000	221.00	-0.12	-0.13
1.83	0.00	0.00	0.00	0.00	0.00	0.00	0.50	0.00	0.00	3.25	5.25	3.25	0.00	0.00	0.00	4.00	-2.025391	0.442871	2.878906	92.680000	-460.320007	47.670002	153.00	0.24	-0.13	1.00	2.75	2.00	4.25	0.75	0.75	0.50	1.50	0.25	1.50	1.75	1.50	3.00	0.50	0.00	0.25	-0.148926	0.152344	0.932129	-23.030001	0.140000	-0.700000	236.00	-0.07	-0.16
1.84	0.00	0.00	0.00	0.00	0.00	0.00	0.50	0.00	0.00	3.25	5.25	3.25	0.00	0.00	0.00	3.75	-2.416504	0.822266	2.637207	89.250000	-453.110016	65.169998	151.00	0.24	-0.13	1.25	3.00	1.75	3.75	1.00	1.00	0.50	2.25	0.50	2.25	2.25	2.50	3.75	0.50	0.00	0.50	-0.195312	0.091309	1.007324	-16.730000	-1.330000	-1.190000	284.00	-0.04	-0.16
1.85	0.00	0.25	0.00	0.00	0.00	0.25	0.25	0.00	0.00	3.00	5.50	3.00	0.00	0.00	0.00	3.75	-2.716797	0.903320	2.225586	115.500000	-435.330017	94.150002	150.00	0.22	-0.14	1.25	2.00	1.75	4.00	1.00	1.50	0.50	2.75	1.25	2.75	3.00	3.00	5.00	0.50	0.00	0.75	-0.158691	0.138672	0.959961	-4.550000	0.490000	-1.890000	331.00	0.00	-0.17
1.86	0.00	0.00	0.00	0.00	0.00	0.00	0.50	0.00	0.00	3.25	5.00	3.25	0.00	0.00	0.00	3.75	-2.922852	0.690918	1.862793	152.529999	-403.899994	128.309998	149.00	0.24	-0.13	1.50	1.75	1.75	4.00	1.50	2.00	0.50	5.00	1.75	3.25	4.50	4.50	6.75	1.50	0.00	1.25	-0.170410	0.148438	0.974609	-2.310000	3.920000	-3.850000	446.00	0.04	-0.18
1.87	0.00	0.00	0.00	0.00	0.00	0.00	0.50	0.00	0.00	3.00	5.00	3.00	0.00	0.00	0.00	3.75	-3.000488	0.407715	1.679688	178.080002	-363.230011	160.020004	143.00	0.24	-0.13	1.25	0.75	1.75	4.00	1.75	2.75	0.75	6.00	2.00	4.25	7.25	6.50	7.75	2.50	0.50	2.00	-0.140625	0.162109	0.939941	0.490000	5.600000	-4.760000	555.00	0.08	-0.18
1.88	0.00	0.00	0.00	0.00	0.00	0.25	0.50	0.00	0.00	3.00	5.00	3.25	0.00	0.00	0.00	3.75	-3.097168	0.083984	1.815918	197.610001	-326.690002	186.339996	149.00	0.23	-0.13	1.00	0.75	1.50	3.50	1.75	3.25	1.00	7.00	3.25	6.75	8.50	8.00	8.75	3.75	1.00	2.50	-0.160156	0.118164	0.976074	3.010000	4.830000	-4.970000	667.00	0.11	-0.16
1.89	0.00	0.00	0.25	0.00	0.00	0.00	0.50	0.00	0.00	3.25	5.00	3.50	0.00	0.00	0.00	3.75	-3.626953	-0.544434	2.452637	241.990005	-297.640015	218.470001	154.00	0.23	-0.12	1.00	1.00	1.25	2.75	2.00	3.50	1.00	7.75	4.50	8.00	9.75	8.50	9.50	5.75	1.50	3.50	-0.165527	0.139160	1.026367	2.310000	6.790000	-5.740000	757.00	0.13	-0.15
1.90	0.25	0.00	0.00	0.00	0.00	0.00	0.50	0.00	0.00	3.25	5.00	3.25	0.00	0.00	0.00	3.75	-4.320801	-0.758789	2.288574	230.160004	-300.790009	232.610001	151.00	0.22	-0.12	0.50	0.75	0.75	2.25	1.25	2.75	1.00	7.75	5.75	8.75	10.75	9.50	10.50	7.50	2.25	5.25	-0.235352	0.139160	1.018555	6.300000	14.490000	-9.590000	808.00	0.16	-0.14
1.91	0.00	0.00	0.00	0.00	0.00	0.00	0.50	0.00	0.00	3.00	5.50	3.25	0.00	0.00	0.00	4.00	-5.186035	-0.857910	1.386230	157.779999	-282.730011	241.710007	153.00	0.24	-0.13	0.25	0.25	0.50	1.25	1.00	2.00	1.00	8.00	6.75	9.50	11.75	10.25	11.25	9.50	3.00	6.50	-0.223145	0.185547	1.025391	12.040000	28.139999	-10.640000	858.00	0.19	-0.13
1.92	0.00	0.00	0.00	0.00	0.00	0.00	0.50	0.00	0.00	3.25	5.25	3.25	0.00	0.00	0.00	3.75	-5.860352	-0.966797	0.318359	47.320000	-229.389999	230.160004	151.00	0.24	-0.13	0.25	0.00	0.25	1.00	0.50	1.00	0.75	7.50	7.50	10.00	12.50	11.00	11.50	12.75	4.00	7.75	-0.130371	0.218750	1.146484	23.730000	57.470001	-13.720000	900.00	0.21	-0.12
1.93	0.00	0.00	0.00	0.00	0.00	0.00	0.50	0.00	0.00	3.00	5.00	3.25	0.00	0.00	0.00	4.00	-6.290039	-0.586914	-0.076660	-25.760000	-155.330002	186.690002	147.00	0.24	-0.13	0.00	0.00	0.00	0.25	0.25	0.25	0.50	6.50	7.75	10.25	13.00	11.50	11.50	15.50	5.25	8.50	-0.115723	-0.075195	1.924805	46.970001	111.370003	-22.049999	914.00	0.24	-0.11
1.94	0.00	0.00	0.00	0.00	0.00	0.00	0.50	0.00	0.00	3.00	5.25	3.50	0.00	0.00	0.00	4.00	-6.693848	-0.231934	-0.030273	-27.580000	-83.720001	128.100006	153.00	0.24	-0.13	0.00	0.00	0.00	0.50	0.00	0.00	0.25	5.50	8.00	10.50	13.25	11.50	11.25	18.50	6.50	9.50	-0.176270	0.381348	1.442383	62.650002	189.559998	-29.049999	942.00	0.25	-0.09
1.95	0.00	0.00	0.00	0.00	0.00	0.00	0.50	0.00	0.00	3.25	5.25	3.25	0.00	0.00	0.00	3.75	-6.949707	-0.269043	-0.321289	-0.140000	-21.420000	73.010002	151.00	0.24	-0.13	0.00	0.00	0.00	0.00	0.00	0.00	0.00	4.25	8.00	10.25	13.00	11.00	10.25	20.50	7.50	10.50	-0.202148	0.342285	1.827148	64.959999	288.750000	-48.930000	928.00	0.27	-0.08
1.96	0.00	0.00	0.25	0.00	0.00	0.00	0.50	0.00	0.00	3.25	5.25	3.25	0.00	0.00	0.00	4.00	-6.924805	-0.324707	-0.463867	14.840000	47.250000	24.010000	155.00	0.23	-0.12	0.00	0.00	0.00	0.00	0.00	0.00	0.00	2.50	7.75	10.00	12.50	10.25	9.00	22.75	8.00	11.50	-0.277344	0.389648	1.837891	44.520000	395.570007	-68.459999	901.00	0.28	-0.06
1.97	0.00	0.25	0.00	0.00	0.00	0.00	0.25	0.00	0.00	2.75	5.00	3.50	0.00	0.00	0.00	4.00	-6.333984	-0.227051	-0.433594	3.570000	114.099998	-20.020000	146.00	0.23	-0.15	0.00	0.00	0.00	0.00	0.00	0.00	0.00	1.50	7.50	9.50	11.75	9.25	7.75	24.00	8.75	12.00	-0.569824	0.917969	2.274414	28.139999	488.950012	-98.489998	869.00	0.29	-0.05
1.98	1.00	1.25	0.50	0.00	0.00	0.00	0.50	0.00	0.00	3.00	5.25	3.25	0.00	0.00	0.00	4.00	2.313965	-0.321289	2.129883	-112.910004	386.329987	-10.010000	177.00	0.14	-0.11	0.00	0.00	0.00	0.00	0.00	0.00	0.00	0.75	6.50	8.75	10.75	8.50	6.25	24.25	8.75	11.75	-0.490234	0.364746	2.611816	35.070000	567.419983	-124.180000	806.00	0.30	-0.04
1.99	7.50	9.00	0.75	0.25	0.00	0.00	0.50	0.00	0.00	2.75	5.50	3.25	0.00	0.00	0.00	3.75	1.202148	0.636230	3.725098	-110.180000	396.410004	9.310000	320.00	-0.11	-0.08	0.00	0.00	0.00	0.00	0.00	0.00	0.00	0.75	5.00	8.00	9.50	7.50	5.25	22.75	8.75	11.00	-0.706055	0.707520	2.348633	16.170000	647.919983	-136.220001	730.00	0.30	-0.04
2.00	18.25	20.50	2.00	1.50	0.00	0.00	0.50	0.00	0.00	2.75	4.75	3.25	0.00	0.00	0.00	4.00	-0.688965	-0.335449	1.345703	-0.280000	305.690002	64.680000	558.00	-0.24	-0.06	0.00	0.00	0.00	0.00	0.00	0.00	0.00	0.00	2.75	5.75	7.75	5.75	4.50	19.25	7.75	9.25	-1.015137	0.861816	3.344238	60.900002	734.720032	-140.210007	572.00	0.31	-0.04
2.01	26.25	28.00	3.00	3.00	0.00	0.00	0.25	0.00	0.00	3.00	5.00	3.25	0.00	0.00	0.00	3.75	-1.679688	-0.867676	2.896973	27.650000	355.670013	43.610001	738.00	-0.27	-0.05	0.00	0.00	0.00	0.00	0.00	0.00	0.00	0.00	1.50	3.00	3.75	3.50	3.00	14.50	6.00	7.25	-1.847168	1.004883	5.056641	158.690002	806.330017	-126.349998	379.00	0.33	-0.04
2.02	29.00	31.25	4.75	4.75	0.25	0.00	0.25	0.00	0.00	3.00	5.00	3.50	0.00	0.00	0.00	3.75	-1.078125	0.158691	4.144043	18.900000	326.690002	4.130000	840.00	-0.28	-0.05	0.00	0.00	0.00	0.00	0.00	0.00	0.00	0.00	1.00	2.00	2.00	1.75	2.00	9.00	4.00	4.75	-2.129395	1.813965	7.198730	274.959991	827.679993	-117.180000	235.00	0.33	-0.04
2.03	30.50	31.00	5.75	5.75	0.25	0.00	0.50	0.00	0.00	3.25	4.75	3.25	0.00	0.00	0.00	4.00	-0.771484	-0.047363	2.391602	7.700000	223.580002	-14.840000	878.00	-0.28	-0.05	0.00	0.00	0.00	0.00	0.00	0.00	0.00	0.00	0.75	1.00	1.00	1.00	1.50	4.50	1.50	1.00	-1.531250	1.162109	8.150879	378.350006	782.599976	-142.449997	114.00	0.32	-0.03
2.04	29.00	32.75	6.50	7.50	0.25	0.00	0.50	0.00	0.00	2.75	5.00	3.25	0.00	0.00	0.00	4.00	-0.426758	-0.123535	1.407227	37.869999	187.809998	-15.680000	904.00	-0.28	-0.05	0.00	0.00	0.00	0.00	0.00	0.00	0.00	0.00	0.00	0.50	0.50	0.25	1.00	1.00	0.25	0.25	4.660156	0.052246	7.000488	470.260010	568.049988	-275.309998	34.00	0.00	0.00
2.05	27.25	32.50	7.75	8.25	0.50	0.00	0.50	0.00	0.00	2.75	4.75	3.25	0.00	0.00	0.00	4.00	-0.423828	-0.048340	1.832520	71.540001	169.119995	-23.940001	906.00	-0.28	-0.06	0.00	0.00	0.25	0.00	0.00	0.00	0.00	0.00	0.00	0.00	0.50	0.25	1.00	0.75	0.00	0.25	0.109863	3.563965	12.705078	245.139999	366.239990	-238.559998	27.00	0.00	0.00
2.06	25.25	32.00	7.75	9.50	0.25	0.00	0.50	0.00	0.00	2.50	5.00	3.75	0.00	0.00	0.00	4.00	-0.641113	0.039062	2.365234	90.510002	129.220001	-41.790001	897.00	-0.28	-0.06	0.00	0.00	0.00	0.00	0.00	0.00	0.00	0.00	0.00	0.00	0.00	0.25	0.50	0.75	0.25	0.00	2.488281	2.649902	6.493164	-6.300000	-8.960000	-47.110001	16.00	0.00	0.00
2.07	22.75	30.75	7.50	9.75	0.50	0.25	0.50	0.00	0.00	3.00	4.75	3.50	0.00	0.00	0.00	3.75	-0.495117	0.723145	1.848145	88.410004	86.940002	-44.170002	863.00	-0.27	-0.07	0.00	0.00	0.00	0.00	0.00	0.00	0.00	0.00	0.00	0.00	0.00	0.00	0.75	0.75	0.25	0.25	3.041504	-0.198242	3.083496	-224.139999	-215.949997	52.639999	17.00	0.00	0.00
2.08	20.25	29.75	6.75	9.75	0.50	0.50	0.50	0.00	0.00	3.00	4.75	3.50	0.00	0.00	0.00	4.00	-0.347656	0.634766	1.330566	60.340000	51.240002	-31.430000	824.00	-0.26	-0.07	0.00	0.00	0.00	0.00	0.00	0.00	0.00	0.00	0.00	0.00	0.00	0.00	0.50	0.25	0.25	0.00	2.043945	0.012695	2.252441	-286.369995	-204.889999	-4.760000	9.00	0.00	0.00
2.09	18.50	28.25	6.25	9.00	0.50	0.00	0.50	0.00	0.00	3.50	4.75	3.50	0.25	0.00	0.00	3.75	-0.272461	0.608398	1.120117	21.070000	27.020000	-15.680000	779.00	-0.25	-0.07	0.00	0.00	0.00	0.00	0.00	0.00	0.00	0.00	0.00	0.00	0.00	0.00	0.50	0.25	0.25	0.00	2.274902	0.415039	2.754395	-223.860001	-196.070007	-77.980003	9.00	0.00	0.00
2.10	16.50	26.25	5.75	8.25	0.25	0.00	0.50	0.00	0.00	2.75	4.75	3.50	0.00	0.00	0.00	3.75	-0.227051	0.229492	0.965820	2.450000	21.980000	-5.390000	713.00	-0.25	-0.08	0.00	0.00	0.00	0.00	0.00	0.00	0.00	0.00	0.00	0.00	0.00	0.00	0.50	0.50	0.25	0.25	2.106445	0.383301	3.413574	-130.970001	-284.899994	-125.510002	13.00	0.00	0.00
2.11	15.00	23.50	5.00	7.75	0.25	0.00	0.50	0.00	0.00	3.00	4.75	3.25	0.00	0.00	0.00	3.75	-0.038086	0.418457	0.746582	-26.389999	26.040001	-17.219999	659.00	-0.24	-0.08	0.00	0.00	0.00	0.00	0.00	0.00	0.25	0.00	0.00	0.00	0.00	0.00	0.25	0.25	0.00	0.00	1.813477	0.016602	3.034668	-102.830002	-403.549988	-159.110001	8.00	0.00	0.00
2.12	13.50	20.75	5.00	7.00	0.75	0.00	0.50	0.00	0.00	3.00	4.50	3.25	0.25	0.00	0.00	3.75	-0.007812	0.525879	0.645996	-32.759998	36.189999	-10.080000	614.00	-0.23	-0.08	0.00	0.00	0.00	0.00	0.00	0.00	0.00	0.00	0.00	0.00	0.00	0.00	0.25	0.25	0.00	0.00	1.560059	0.096680	2.288574	-141.889999	-489.089996	-194.949997	4.00	0.00	0.00
2.13	12.25	19.00	4.50	6.25	0.25	0.00	0.50	0.00	0.00	2.75	4.75	3.25	0.25	0.00	0.00	3.75	-0.021484	0.235840	0.663574	-33.810001	53.830002	0.350000	566.00	-0.22	-0.08	0.00	0.00	0.00	0.00	0.00	0.00	0.00	0.00	0.00	0.00	0.00	0.00	0.25	0.00	0.00	0.00	1.297852	0.677246	1.868164	-172.830002	-532.140015	-230.649994	2.00	0.00	0.00
2.14	10.75	17.25	4.50	5.75	0.25	0.00	0.50	0.00	0.00	3.00	4.25	3.50	0.00	0.00	0.00	4.00	-0.173828	-0.252930	1.191895	-33.040001	66.150002	-0.350000	528.00	-0.21	-0.08	0.00	0.00	0.00	0.00	0.00	0.00	0.25	0.00	0.00	0.00	0.00	0.00	0.00	0.25	0.00	0.00	1.083008	1.240234	1.607422	-138.039993	-554.679993	-254.800003	6.00	0.00	0.00
2.15	9.75	15.25	4.25	5.75	0.00	0.50	0.50	0.00	0.00	2.75	4.50	3.75	0.00	0.00	0.00	3.75	-0.151855	0.009766	1.078125	-28.070000	52.920002	-13.230000	501.00	-0.19	-0.09	0.00	0.00	0.00	0.00	0.00	0.00	0.25	0.00	0.00	0.00	0.00	0.00	0.00	0.00	0.00	0.00	0.738281	1.648926	1.453613	-43.259998	-572.179993	-261.309998	4.00	0.00	0.00
2.16	8.75	13.50	3.75	5.50	0.50	0.25	0.50	0.00	0.00	3.00	4.50	3.50	0.50	0.00	0.00	3.75	-0.200684	0.291992	0.878906	-17.080000	44.240002	-20.160000	473.00	-0.18	-0.09	0.00	0.00	0.00	0.00	0.00	0.00	0.25	0.00	0.00	0.00	0.00	0.00	0.00	0.00	0.00	0.00	0.348145	1.787109	1.309082	67.199997	-582.750000	-253.190002	4.00	0.00	0.00
2.17	7.50	11.75	4.00	5.25	0.50	0.50	0.50	0.25	0.00	3.00	5.00	4.00	0.25	0.00	0.00	3.75	-0.192383	0.194336	1.003418	-20.160000	39.619999	-12.740000	459.00	-0.15	-0.09	0.00	0.00	0.00	0.00	0.00	0.00	0.25	0.00	0.00	0.00	0.00	0.00	0.00	0.00	0.00	0.00	-0.098145	1.723633	1.359863	168.770004	-581.070007	-233.100006	4.00	0.00	0.00
2.18	6.00	9.50	3.25	5.25	0.50	0.50	0.50	0.50	0.00	3.00	5.25	4.00	0.75	0.00	0.00	3.75	-0.166504	0.224121	0.782715	-26.040001	44.310001	-7.700000	425.00	-0.12	-0.11	0.00	0.00	0.00	0.00	0.00	0.00	0.25	0.00	0.00	0.00	0.00	0.00	0.00	0.00	0.00	0.00	-0.575684	1.614746	1.704590	252.279999	-566.510010	-203.699997	4.00	0.00	0.00
2.19	4.75	7.75	2.75	4.25	0.50	0.50	0.50	0.75	0.00	3.25	5.25	4.25	1.00	0.50	0.00	4.00	-0.266113	0.179199	1.055176	-34.160000	46.270000	-4.970000	396.00	-0.08	-0.12	0.00	0.00	0.00	0.00	0.00	0.00	0.25	0.00	0.00	0.00	0.00	0.00	0.00	0.00	0.00	0.00	-1.124023	1.526855	2.131836	310.450012	-550.340027	-158.410004	4.00	0.00	0.00
2.20	3.75	6.50	2.50	3.50	0.75	0.75	0.75	1.00	0.00	3.50	5.75	4.50	1.50	0.50	0.00	4.00	-0.224121	0.138672	0.965820	-40.320000	36.889999	-4.480000	391.00	-0.04	-0.12	0.25	0.00	0.00	0.00	0.00	0.00	0.00	0.00	0.00	0.00	0.00	0.00	0.00	0.00	0.00	0.00	-1.842773	1.348145	2.459473	343.700012	-532.770020	-90.230003	3.00	0.00	0.00
2.21	2.50	5.25	2.00	3.00	1.00	1.00	0.75	1.50	0.00	4.25	6.00	5.00	2.00	0.75	0.00	4.25	-0.107910	0.175781	0.846191	-64.400002	27.719999	-8.820000	392.00	0.00	-0.14	0.00	0.00	0.00	0.00	0.00	0.00	0.00	0.00	0.00	0.00	0.00	0.00	0.00	0.00	0.00	0.00	-2.243164	0.958496	2.535645	354.269989	-510.089996	-3.220000	0.00	0.00	0.00
2.22	2.25	5.00	2.00	3.50	1.25	1.75	0.75	2.25	0.00	4.50	7.25	5.75	3.00	1.50	0.00	4.50	-0.237793	0.083496	1.050293	-88.129997	-1.680000	-14.490000	455.00	0.02	-0.15	0.25	0.00	0.00	0.00	0.00	0.00	0.25	0.00	0.00	0.00	0.00	0.00	0.00	0.00	0.00	0.00	-2.807129	0.748535	2.755371	345.730011	-478.869995	84.629997	6.00	0.00	0.00
2.23	1.50	3.75	2.00	3.25	1.50	2.25	1.00	4.25	0.50	5.00	7.75	6.75	5.25	2.75	0.25	5.00	-0.252441	0.098633	1.021484	-71.889999	-23.379999	-17.360001	539.00	0.06	-0.16	0.00	0.00	0.00	0.00	0.00	0.00	0.00	0.00	0.00	0.00	0.00	0.00	0.00	0.00	0.00	0.00	-3.368652	0.674805	2.953125	323.890015	-450.029999	170.520004	0.00	0.00	0.00
2.24	1.50	3.75	2.50	3.25	2.00	2.75	1.00	5.50	0.75	5.50	8.50	8.00	6.00	4.50	0.50	5.25	-0.272949	0.079590	1.022949	-36.680000	-18.900000	-14.140000	629.00	0.07	-0.16	0.00	0.00	0.00	0.00	0.00	0.00	0.00	0.00	0.25	0.00	0.00	0.00	0.00	0.00	0.00	0.00	-4.065918	0.094238	3.083984	337.540009	-430.290009	243.880005	3.00	0.00	0.00
2.25	1.00	2.25	2.00	3.00	2.00	3.25	1.00	6.25	1.75	7.25	10.00	9.00	7.25	5.50	0.75	5.75	-0.234863	0.084961	0.982910	-11.760000	-0.980000	-9.310000	701.00	0.11	-0.16	0.00	0.00	0.00	0.00	0.00	0.00	0.00	0.00	0.00	0.00	0.00	0.00	0.00	0.00	0.00	0.00	-5.625488	-1.264160	3.274902	356.019989	-397.670013	335.579987	0.00	0.00	0.00
2.26	0.50	1.50	1.50	2.00	1.75	3.25	1.00	7.00	2.75	7.75	11.25	10.25	8.00	7.50	1.00	6.00	-0.215332	0.110352	0.975098	3.220000	16.240000	-5.670000	753.00	0.14	-0.15	0.00	0.00	0.00	0.00	0.00	0.00	0.25	0.00	0.50	0.00	0.00	0.00	0.00	0.00	0.00	0.00	-6.161621	-1.290039	2.738281	305.619995	-369.110016	355.950012	10.00	0.00	0.00
2.27	0.25	0.75	0.75	1.00	1.25	2.50	1.00	7.50	3.25	8.25	12.50	11.75	9.50	9.00	1.25	6.50	-0.200195	0.070801	1.012695	16.309999	29.049999	-3.150000	790.00	0.17	-0.15	0.00	0.00	0.00	0.00	0.00	0.00	0.00	0.00	0.00	0.00	0.00	0.00	0.00	0.00	0.00	0.00	-6.777832	-1.266602	1.860352	286.230011	-315.700012	364.559998	0.00	0.00	0.00
2.28	0.25	0.25	0.25	0.75	0.25	1.50	1.00	7.75	3.75	8.75	14.00	13.25	10.50	10.25	1.75	7.00	-0.230469	0.175293	1.058594	31.780001	42.910000	-3.570000	830.00	0.19	-0.15	0.00	0.00	0.00	0.00	0.00	0.00	0.00	0.00	0.00	0.00	0.00	0.00	0.00	0.00	0.00	0.00	-7.112793	-2.162109	0.816895	261.450012	-231.000000	348.950012	0.00	0.00	0.00
2.29	0.00	0.00	0.00	0.00	0.00	1.25	0.75	7.50	4.00	9.00	14.75	14.50	11.50	11.75	2.25	7.75	-0.137695	0.255859	1.137695	51.939999	73.709999	-7.980000	858.00	0.21	-0.15	0.00	0.00	0.00	0.00	0.00	0.00	0.00	0.00	0.25	0.00	0.00	0.00	0.00	0.25	0.00	0.00	-6.811523	-2.527832	0.351562	178.430008	-136.149994	288.329987	5.00	0.00	0.00
2.30	0.00	0.00	0.00	0.00	0.00	0.00	0.50	7.00	3.75	9.25	15.25	15.75	12.25	13.50	2.75	8.00	-0.262695	0.163574	1.202148	91.000000	132.580002	-8.680000	879.00	0.23	-0.15	0.00	0.00	0.00	0.00	0.00	0.00	0.00	0.00	0.00	0.00	0.00	0.00	0.00	0.00	0.00	0.00	-6.877441	-2.211914	0.350098	87.430000	-55.510002	194.389999	0.00	0.00	0.00
2.31	0.00	0.00	0.00	0.00	0.00	0.50	0.25	6.50	3.75	8.75	16.00	16.75	13.25	15.50	3.25	9.00	-0.317871	0.265625	1.326660	126.209999	196.559998	-16.520000	923.00	0.23	-0.15	0.00	0.00	0.00	0.00	0.00	0.00	0.00	0.00	0.00	0.00	0.00	0.00	0.00	0.25	0.00	0.00	-6.818848	-1.809570	0.271484	57.750000	2.310000	106.260002	2.00	0.00	0.00
2.32	0.00	0.00	0.00	0.00	0.00	0.50	0.00	6.00	3.00	8.50	16.00	17.25	13.00	16.75	5.00	9.50	-0.480469	0.356445	1.603516	148.889999	344.190002	-34.790001	934.00	0.24	-0.15	0.00	0.00	0.00	0.00	0.00	0.00	0.00	0.00	0.00	0.00	0.00	0.00	0.00	0.00	0.00	0.00	-6.240723	-1.816406	0.057617	55.720001	52.220001	58.660000	0.00	0.00	0.00
2.33	0.00	0.00	0.00	0.00	0.00	0.75	0.00	5.25	1.75	8.00	15.50	16.75	12.25	17.75	5.25	10.25	-0.332520	0.217285	1.693848	166.529999	432.320007	-47.950001	902.00	0.24	-0.15	0.00	0.00	0.00	0.00	0.00	0.00	0.00	0.00	0.00	0.00	0.00	0.00	0.00	0.00	0.00	0.00	-5.504883	-1.817871	0.239258	6.020000	110.250000	50.259998	0.00	0.00	0.00
2.34	0.00	0.00	0.00	0.00	0.00	0.00	0.00	4.50	1.50	8.25	15.25	16.00	10.50	18.25	6.00	11.00	-0.502441	0.277832	1.827148	138.600006	520.520020	-55.790001	872.00	0.26	-0.14	1.25	3.00	0.75	1.00	0.00	0.00	0.00	0.00	0.00	0.00	0.00	0.00	0.00	0.00	0.00	0.00	-5.150391	-1.179199	1.217285	-221.830002	203.070007	36.049999	60.00	-0.37	-0.08
2.35	0.00	0.00	0.00	0.00	0.00	0.00	0.00	3.50	0.50	8.00	14.50	14.75	9.25	17.75	6.25	11.50	-0.796875	0.599609	2.461914	121.940002	614.320007	-66.639999	810.00	0.26	-0.14	9.25	13.00	1.50	4.50	0.00	0.00	0.00	0.00	0.00	0.00	0.00	0.00	0.25	0.00	0.00	0.00	-1.868652	-2.452637	2.771973	-353.290009	335.929993	-47.250000	284.00	-0.38	-0.07
2.36	0.00	0.00	0.00	0.00	0.00	0.25	0.00	2.00	0.00	6.75	12.75	12.75	7.25	16.25	6.00	11.00	-1.202637	0.406738	3.509277	132.300003	706.299988	-69.370003	696.00	0.27	-0.13	20.00	19.50	4.25	7.75	0.00	0.00	0.00	0.00	0.00	0.00	0.00	0.00	0.50	0.00	0.00	0.00	-0.623535	0.561035	4.065430	-314.720001	401.589996	-29.820000	523.00	-0.37	-0.05
2.37	0.00	0.00	0.00	0.00	0.00	0.00	0.00	1.25	0.00	5.50	10.00	10.00	5.75	13.00	5.25	9.00	-2.065430	1.130371	5.052734	168.770004	754.460022	-51.240002	551.00	0.28	-0.13	24.00	20.50	7.75	9.25	0.25	0.00	0.00	0.00	0.00	0.00	0.00	0.00	0.25	0.00	0.00	0.00	-2.207520	-1.154297	5.013672	-166.669998	424.339996	31.780001	630.00	-0.37	-0.03
2.38	0.00	0.00	0.00	0.00	0.00	0.00	0.00	0.50	0.00	4.75	8.00	7.75	3.50	9.25	4.25	6.75	-2.113281	0.874512	6.391113	218.680008	778.400024	-41.230000	413.00	0.28	-0.12	23.50	19.75	8.75	9.75	0.00	0.00	0.25	0.25	0.00	0.00	0.00	0.00	0.00	0.25	0.00	0.00	-1.479004	-0.709961	4.240234	-94.010002	354.619995	14.140000	639.00	-0.36	-0.03
2.39	0.00	0.00	0.00	0.00	0.00	0.00	0.00	0.50	0.00	4.50	6.50	6.25	2.00	5.25	1.75	4.50	-1.917969	0.770020	6.848633	168.279999	754.039978	-53.900002	294.00	0.27	-0.12	22.50	18.50	9.50	10.25	0.50	0.00	0.00	0.00	0.00	0.00	0.00	0.00	0.00	0.25	0.00	0.00	-0.569824	-0.349609	2.682129	-49.349998	234.500000	-10.710000	629.00	-0.36	-0.03
2.40	0.00	0.00	0.00	0.00	0.00	0.00	0.00	0.25	0.00	4.00	6.00	5.25	1.75	1.50	0.25	4.25	0.619629	1.281738	7.308594	170.100006	672.489990	-73.779999	218.00	0.24	-0.16	20.00	17.00	9.50	10.50	0.75	0.25	0.25	0.00	0.25	0.00	0.00	0.00	0.00	0.75	0.00	0.00	-0.254395	0.288574	1.001953	-8.540000	165.410004	-16.660000	609.00	-0.34	-0.03
2.41	0.00	0.00	0.00	0.00	0.00	0.00	0.25	0.25	0.00	3.75	6.00	5.00	1.00	0.50	0.00	4.25	5.100586	-3.663574	6.190918	163.100006	562.729980	-157.639999	198.00	0.23	-0.16	19.25	17.00	10.25	11.25	1.00	0.50	0.50	0.00	0.00	0.00	0.00	0.00	0.50	0.75	0.00	0.00	-0.313477	0.284180	1.333984	23.799999	161.910004	-5.180000	628.00	-0.33	-0.03
2.42	0.00	0.00	0.00	0.00	0.00	0.00	0.25	0.25	0.00	3.75	5.50	5.00	0.75	0.50	0.00	4.25	1.770508	2.631836	9.429199	33.810001	291.130005	-265.929993	191.00	0.23	-0.16	18.50	16.75	10.75	12.00	1.50	1.50	0.75	0.50	0.50	0.00	0.00	0.00	0.50	1.25	0.00	0.25	-0.370117	0.254395	1.414551	29.680000	141.750000	-5.740000	672.00	-0.31	-0.04
2.43	0.00	0.00	0.00	0.00	0.00	0.00	0.25	0.00	0.00	3.75	5.75	4.50	1.00	0.00	0.00	4.00	3.084961	-0.179199	5.699219	24.150000	5.880000	-293.720001	181.00	0.23	-0.16	17.75	16.50	11.00	12.00	1.75	2.00	0.50	0.75	0.50	0.00	0.00	0.00	0.75	1.50	0.00	0.00	-0.625488	0.103027	1.869629	-19.040001	30.590000	-2.730000	676.00	-0.30	-0.04
2.44	0.00	0.00	0.00	0.00	0.00	0.00	0.50	0.00	0.00	3.75	5.25	4.25	0.50	0.00	0.00	4.00	2.686035	-0.271484	3.718262	-19.040001	-133.070007	-367.149994	173.00	0.23	-0.14	17.25	16.25	10.50	12.50	2.00	2.50	0.75	0.75	0.75	0.00	0.00	0.00	0.75	1.25	0.25	0.00	-0.125488	0.082520	1.049316	-21.139999	-1.610000	1.890000	684.00	-0.30	-0.05
2.45	0.00	0.00	0.00	0.00	0.00	0.00	0.25	0.00	0.00	3.50	5.00	4.00	0.25	0.00	0.00	4.00	2.323242	0.438965	3.173340	-98.629997	-201.250000	-410.339996	159.00	0.24	-0.15	15.50	15.75	9.75	11.75	1.75	2.50	0.50	0.75	1.00	0.00	0.00	0.00	0.75	1.50	0.25	0.25	-0.193848	0.262695	0.985840	1.680000	-1.680000	0.140000	645.00	-0.29	-0.05
2.46	0.00	0.00	0.00	0.00	0.00	0.00	0.50	0.00	0.00	3.25	5.50	4.25	0.50	0.25	0.00	4.00	2.138672	1.150879	2.970215	-165.759995	-264.110016	-405.299988	172.00	0.24	-0.14	14.25	15.00	9.25	11.00	1.50	2.25	0.75	0.75	1.00	0.00	0.00	0.00	1.00	1.25	0.00	0.00	-0.166992	0.190430	0.995117	2.100000	4.480000	1.960000	606.00	-0.29	-0.05
2.47	0.00	0.00	0.25	0.00	0.00	0.00	0.50	0.00	0.00	3.25	5.50	3.50	0.25	0.00	0.00	4.00	1.839844	1.600098	2.511230	-199.149994	-327.250000	-370.510010	163.00	0.23	-0.13	12.50	14.00	8.50	10.50	1.50	2.00	0.75	0.25	1.25	0.00	0.00	0.00	0.75	0.75	0.00	0.00	-0.126953	0.145996	0.969238	2.520000	8.470000	2.520000	551.00	-0.29	-0.05
2.48	0.00	0.00	0.00	0.00	0.00	0.00	0.75	0.00	0.00	3.25	5.25	3.75	0.00	0.50	0.00	4.00	1.543945	1.645020	1.839844	-212.029999	-371.070007	-319.970001	166.00	0.24	-0.12	10.75	12.25	7.50	9.50	1.25	1.75	0.50	0.50	0.75	0.00	0.00	0.00	0.50	0.75	0.00	0.00	-0.116211	0.205566	0.924316	-0.350000	12.530000	2.100000	480.00	-0.30	-0.05
2.49	0.00	0.00	0.00	0.00	0.00	0.00	0.50	0.00	0.00	3.25	5.50	3.00	0.00	0.25	0.00	4.00	1.304199	1.869629	1.331543	-209.440002	-385.910004	-262.500000	155.00	0.24	-0.12	8.75	10.75	6.25	8.50	1.00	1.00	0.50	0.50	0.50	0.00	0.00	0.00	0.25	1.00	0.00	0.00	-0.074219	0.199219	0.809570	-9.240000	18.340000	2.520000	407.00	-0.30	-0.06
2.50	0.00	0.00	0.00	0.00	0.00	0.00	0.50	0.00	0.00	3.25	5.00	3.25	0.25	0.00	0.00	4.00	1.070312	2.037598	1.180664	-180.529999	-385.769989	-201.110001	152.00	0.24	-0.13	6.75	8.75	5.25	7.50	1.00	1.00	0.50	0.25	0.00	0.00	0.00	0.00	0.50	0.75	0.00	0.00	-0.010742	0.177246	0.795898	-25.200001	23.730000	2.380000	335.00	-0.30	-0.07
2.51	0.00	0.00	0.00	0.00	0.25	0.00	0.50	0.00	0.00	3.25	5.50	3.50	0.00	0.00	0.00	3.75	0.875000	2.126465	1.285156	-112.000000	-389.130005	-135.309998	159.00	0.23	-0.12	5.00	7.00	3.75	6.50	0.75	1.00	0.50	0.75	0.50	0.00	0.00	0.00	0.50	0.75	0.00	0.00	-0.076172	0.191406	0.839844	-47.810001	28.490000	1.050000	285.00	-0.27	-0.08
2.52	0.00	0.00	0.00	0.00	0.00	0.00	0.75	0.00	0.00	3.00	5.25	3.25	0.00	0.00	0.00	3.75	0.618164	2.000977	1.344238	-22.260000	-400.820007	-67.620003	152.00	0.23	-0.12	3.50	5.50	3.00	5.25	0.75	1.00	0.50	0.75	0.75	0.50	0.25	0.00	1.25	1.00	0.00	0.00	-0.233398	0.080566	1.129395	-72.660004	27.440001	-4.200000	253.00	-0.21	-0.08
2.53	0.00	0.00	0.00	0.00	0.00	0.00	0.50	0.00	0.00	3.00	5.25	3.25	0.25	0.00	0.00	3.75	0.117676	1.462891	1.574707	78.610001	-420.350006	53.060001	151.00	0.23	-0.13	1.75	3.50	2.25	2.75	0.50	0.50	0.50	0.75	1.00	0.25	0.25	0.25	1.75	1.00	0.00	0.25	-0.173340	0.149902	1.112793	-42.490002	18.760000	-3.850000	182.00	-0.14	-0.08
2.54	0.00	0.00	0.00	0.00	0.00	0.00	0.50	0.00	0.00	2.75	4.50	3.25	0.00	0.00	0.00	3.75	-0.032715	1.347656	1.709961	82.040001	-424.480011	94.080002	138.00	0.24	-0.13	1.00	2.50	1.50	2.75	0.75	0.50	0.50	0.75	1.00	1.00	0.75	0.50	2.00	1.00	0.00	0.25	-0.256836	0.157227	1.005859	-19.460001	16.940001	-1.120000	177.00	-0.07	-0.09
2.55	0.00	0.00	0.00	0.00	0.00	0.00	0.50	0.00	0.00	3.00	5.00	3.25	0.25	0.00	0.00	4.00	-0.145508	1.259766	1.995605	87.779999	-429.869995	120.820000	150.00	0.24	-0.14	0.75	1.25	1.00	2.00	0.50	0.00	0.50	0.75	1.00	1.25	1.25	0.75	2.00	0.75	0.00	0.25	-0.291016	0.130371	0.921875	-9.660000	17.080000	3.780000	149.00	-0.00	-0.09
2.56	0.00	0.00	0.00	0.00	0.00	0.00	0.50	0.00	0.00	3.25	5.00	3.25	0.00	0.00	0.00	4.00	-0.320312	1.099121	2.413086	112.699997	-444.149994	136.639999	150.00	0.24	-0.13	0.75	0.75	0.50	2.00	0.25	0.00	0.50	0.75	1.00	1.75	1.75	1.00	2.00	0.75	0.00	0.25	-0.139648	0.128906	0.910645	-6.580000	17.219999	5.880000	149.00	0.04	-0.10
2.57	0.00	0.00	0.00	0.00	0.00	0.00	0.75	0.00	0.00	3.00	4.75	3.00	0.00	0.00	0.00	4.00	-0.544434	0.872559	2.742188	143.710007	-464.589996	142.520004	146.00	0.23	-0.12	0.25	0.50	0.75	1.00	0.25	0.00	0.50	1.00	1.25	2.00	2.25	2.25	3.25	1.25	0.00	0.75	-0.098145	0.145508	1.016602	-0.350000	21.350000	3.220000	179.00	0.12	-0.13
2.58	0.00	0.00	0.00	0.00	0.00	0.00	0.50	0.00	0.00	3.00	5.00	3.25	0.00	0.00	0.00	4.00	-1.176270	0.725586	3.156738	160.300003	-491.190002	139.229996	147.00	0.24	-0.13	0.00	0.50	0.50	1.00	0.25	0.00	0.50	1.25	1.25	2.25	2.75	2.25	3.75	1.25	0.00	0.50	-0.094727	0.181641	0.979980	6.650000	26.460001	-2.450000	189.00	0.14	-0.14
2.59	0.00	0.00	0.00	0.00	0.00	0.00	0.50	0.00	0.00	3.25	5.00	3.25	0.00	0.00	0.00	4.00	-1.818359	0.734375	3.126953	145.809998	-519.890015	131.740005	150.00	0.24	-0.13	0.00	0.25	0.50	0.00	0.50	0.00	0.75	1.50	2.50	2.75	3.50	3.00	4.75	1.50	0.25	1.00	-0.181152	0.147949	0.964355	8.890000	33.950001	-5.880000	239.00	0.18	-0.11
2.60	0.00	0.00	0.00	0.00	0.00	0.00	0.50	0.00	0.00	3.00	5.00	3.25	0.00	0.00	0.00	4.00	-2.320801	0.756348	2.722656	133.000000	-533.470032	129.919998	147.00	0.24	-0.13	0.00	0.00	0.25	0.00	0.25	0.00	0.50	1.75	2.25	3.50	6.25	4.50	5.25	2.00	0.25	1.50	-0.209473	0.127441	0.951172	7.840000	36.540001	-4.970000	292.00	0.20	-0.14
2.61	0.00	0.00	0.00	0.00	0.00	0.00	0.50	0.00	0.00	3.00	4.75	3.25	0.00	0.00	0.00	3.75	-2.714355	0.815430	2.586914	133.210007	-525.140015	136.430008	143.00	0.24	-0.13	0.00	0.00	0.25	0.25	0.50	0.00	0.75	2.00	3.00	4.25	7.75	6.25	7.00	3.25	0.75	1.75	-0.206055	0.134766	0.926270	6.230000	35.490002	-2.870000	389.00	0.20	-0.13
2.62	0.00	0.00	0.00	0.00	0.00	0.00	0.50	0.00	0.00	3.00	5.25	3.25	0.00	0.00	0.00	4.00	-3.082031	0.964844	2.662109	142.520004	-505.890015	152.669998	150.00	0.24	-0.13	0.00	0.00	0.50	1.00	0.50	0.00	0.75	2.50	3.50	6.50	8.75	7.75	8.00	4.25	1.00	3.00	-0.166992	0.166992	0.938965	7.210000	32.549999	-3.290000	491.00	0.20	-0.13
2.63	0.00	0.00	0.00	0.00	0.00	0.00	0.50	0.00	0.00	3.00	5.00	3.25	0.00	0.00	0.00	4.00	-3.446777	1.009766	2.563965	170.309998	-479.360016	175.419998	147.00	0.24	-0.13	0.00	0.00	0.00	0.00	0.25	0.00	0.75	3.25	5.75	8.00	10.00	8.50	9.00	6.75	1.75	4.75	-0.178711	0.222168	0.958984	10.360000	31.290001	-7.980000	596.00	0.23	-0.11
2.64	0.00	0.00	0.00	0.00	0.00	0.00	0.50	0.00	0.00	3.00	5.00	3.50	0.25	0.00	0.00	4.00	-4.130859	0.995605	2.600586	229.320007	-435.610016	193.410004	152.00	0.24	-0.14	0.00	0.00	0.00	0.00	0.00	0.00	0.75	3.75	6.50	8.75	11.00	9.25	9.50	9.00	2.25	5.75	-0.228027	0.196289	1.031250	13.020000	35.070000	-14.630000	671.00	0.23	-0.10
2.65	0.00	0.00	0.00	0.00	0.00	0.00	0.50	0.00	0.00	3.25	5.25	3.50	0.00	0.00	0.00	4.00	-5.252930	0.815918	2.746094	291.829987	-378.140015	207.830002	155.00	0.24	-0.13	0.00	0.00	0.00	0.50	0.00	0.00	0.50	3.50	7.25	9.50	11.75	10.00	9.75	12.00	3.50	7.00	-0.233398	0.204102	1.167969	27.650000	78.889999	-24.290001	750.00	0.24	-0.09
2.66	0.00	0.00	0.00	0.00	0.00	0.00	0.50	0.00	0.00	3.25	5.00	3.50	0.00	0.00	0.00	4.00	-6.625000	0.166992	2.748535	296.170013	-325.010010	227.639999	153.00	0.24	-0.13	0.00	0.00	0.00	0.25	0.00	0.00	0.50	3.25	8.00	10.00	12.75	10.50	10.00	14.75	5.50	8.25	-0.285645	0.270508	1.220215	35.700001	121.239998	-28.700001	828.00	0.25	-0.08
2.67	0.00	0.00	0.00	0.00	0.00	0.00	0.50	0.00	0.00	3.25	5.25	3.75	0.00	0.00	0.00	4.25	-7.439453	-0.737793	1.572266	214.899994	-278.110016	240.240005	159.00	0.24	-0.13	0.00	0.00	0.00	0.00	0.00	0.00	0.25	2.75	8.50	10.50	13.00	10.75	10.00	17.50	6.50	9.00	-0.327637	0.136230	1.370605	41.580002	177.100006	-37.170002	869.00	0.27	-0.07
2.68	0.00	0.00	0.00	0.00	0.00	0.00	0.50	0.00	0.00	3.25	5.25	3.50	0.00	0.00	0.00	3.75	-7.896484	-1.178223	-0.107422	111.860001	-206.149994	226.589996	154.00	0.24	-0.13	0.00	0.00	0.00	0.00	0.00	0.00	0.00	2.00	8.75	10.75	13.25	10.50	9.50	19.75	7.25	10.00	-0.295898	0.175781	1.397949	38.920002	252.139999	-34.090000	888.00	0.28	-0.06
2.69	0.00	0.00	0.00	0.00	0.00	0.00	0.25	0.00	0.00	3.25	5.50	3.75	0.00	0.00	0.00	4.00	-8.144043	-1.237305	-1.005371	52.500000	-95.059998	175.070007	157.00	0.24	-0.14	0.00	0.00	0.00	0.00	0.00	0.00	0.00	1.25	9.00	10.75	13.00	10.25	8.50	21.75	8.00	11.00	-0.419434	0.385742	1.717285	19.600000	341.320007	-38.009998	896.00	0.28	-0.05
2.70	0.00	0.00	0.00	0.00	0.00	0.00	0.50	0.00	0.00	3.25	5.25	3.25	0.00	0.00	0.00	3.75	-7.822266	-0.738770	-0.622559	23.309999	7.910000	103.110001	151.00	0.24	-0.13	0.00	0.00	0.00	0.00	0.00	0.00	0.00	0.50	8.75	10.75	12.50	9.25	7.50	23.25	9.00	11.75	-0.613770	0.606445	2.125977	6.230000	429.869995	-56.349998	884.00	0.29	-0.04
2.71	0.00	0.00	0.00	0.00	0.00	0.00	0.50	0.00	0.00	3.25	5.50	3.75	0.00	0.00	0.00	4.00	-7.386719	-0.105957	-0.420410	5.040000	70.349998	44.799999	160.00	0.24	-0.13	0.00	0.00	0.00	0.00	0.00	0.00	0.00	0.50	8.25	10.00	11.50	8.25	6.00	24.00	9.25	12.00	-0.514160	0.463379	2.497070	-6.300000	520.799988	-81.760002	846.00	0.30	-0.03
2.72	0.25	0.50	0.50	0.00	0.00	0.00	0.25	0.00	0.00	3.00	5.25	3.75	0.00	0.00	0.00	4.00	-6.558105	0.438965	-0.714355	22.889999	116.760002	6.440000	164.00	0.19	-0.13	0.00	0.00	0.00	0.00	0.00	0.00	0.00	0.00	7.50	9.50	10.50	7.75	4.75	23.75	9.50	11.75	-0.870117	0.734863	2.056641	-34.720001	614.109985	-104.019997	796.00	0.31	-0.02
2.73	7.25	10.25	1.25	0.75	0.00	0.00	0.25	0.00	0.00	3.25	5.25	4.00	0.00	0.00	0.00	3.50	3.847168	-0.647461	1.211426	-6.020000	432.179993	37.660000	346.00	-0.11	-0.09	0.00	0.00	0.00	0.00	0.00	0.00	0.00	0.00	5.75	8.25	9.00	5.75	3.25	21.75	9.00	10.50	-0.893066	0.767090	3.019531	-3.500000	708.330017	-125.720001	681.00	0.31	-0.01
2.74	23.75	30.50	2.75	4.25	0.00	0.00	0.00	0.00	0.00	3.00	5.50	3.50	0.00	0.00	0.00	4.00	1.208984	0.149414	5.178711	-5.880000	531.299988	56.980000	752.00	-0.27	-0.07	0.00	0.00	0.00	0.00	0.00	0.00	0.00	0.00	3.50	5.75	6.50	4.25	3.00	18.50	7.75	8.50	-1.878906	1.086914	4.393066	84.279999	772.729980	-120.050003	530.00	0.32	-0.02
2.75	30.25	38.00	6.00	8.75	0.00	0.25	0.25	0.00	0.00	3.25	5.50	3.75	0.00	0.00	0.00	3.75	-2.416992	-0.565430	4.714844	82.040001	512.049988	-24.780001	984.00	-0.29	-0.06	0.00	0.00	0.00	0.00	0.00	0.00	0.00	0.00	2.00	2.75	2.75	1.75	2.50	13.00	6.00	6.50	-2.053711	2.036133	5.837891	234.639999	797.650024	-106.889999	333.00	0.34	-0.02
2.76	29.25	38.00	8.00	12.50	0.75	1.00	0.25	0.25	0.00	3.25	5.50	3.75	0.00	0.00	0.00	4.00	-1.718262	1.312500	5.180664	77.139999	436.660004	-72.800003	1059.00	-0.28	-0.07	0.00	0.00	0.00	0.00	0.00	0.00	0.00	0.00	1.00	1.25	1.25	1.00	1.75	7.50	3.75	3.00	-1.829590	2.267090	8.161621	431.549988	772.099976	-117.250000	184.00	0.34	-0.02
2.77	26.25	35.00	9.00	14.50	1.00	2.50	0.50	0.50	0.00	3.00	5.25	4.00	0.25	0.00	0.00	4.00	-1.781250	1.286621	4.509277	1.470000	266.489990	-58.099998	1059.00	-0.27	-0.08	0.00	0.00	0.00	0.00	0.00	0.00	0.00	0.00	0.75	0.75	0.50	0.75	1.50	2.25	0.50	0.50	-0.474121	1.720703	8.865234	527.869995	700.280029	-178.990005	71.00	0.29	-0.05
2.78	22.50	32.00	9.00	14.50	1.00	3.50	0.50	1.25	0.00	3.00	5.50	4.00	0.50	0.00	0.00	3.75	-0.689941	0.478027	1.718262	-25.480000	121.660004	-23.660000	1019.00	-0.25	-0.09	0.00	0.00	0.00	0.00	0.00	0.00	0.00	0.00	0.00	0.25	0.50	0.50	0.75	1.00	0.00	0.25	3.610352	0.889648	7.710938	588.349976	585.409973	-270.480011	29.00	0.00	0.00
2.79	18.25	30.25	8.00	14.25	0.75	4.50	0.50	1.25	0.00	2.75	5.25	4.25	0.75	0.00	0.00	3.50	-0.278809	0.059082	1.451172	-18.620001	68.459999	-1.610000	951.00	-0.24	-0.10	0.00	0.00	0.00	0.00	0.00	0.00	0.00	0.00	0.00	0.25	0.25	0.00	0.75	0.75	0.25	0.25	2.267578	4.178711	-1.172363	315.839996	453.250000	-278.809998	22.00	0.00	0.00
2.80	16.00	29.00	7.50	14.25	0.75	5.25	0.50	1.75	0.00	3.00	5.50	4.00	1.00	0.00	0.00	3.75	-0.283691	0.195312	1.174805	1.960000	30.660000	3.710000	932.00	-0.23	-0.11	0.00	0.00	0.25	0.00	0.00	0.00	0.00	0.00	0.00	0.00	0.00	0.00	1.00	0.50	0.50	0.25	2.082031	4.515625	7.319336	97.720001	109.550003	-79.730003	22.00	0.00	0.00
2.81	14.75	28.25	7.25	14.50	0.50	6.00	0.50	2.00	0.00	2.75	5.50	4.00	1.25	0.00	0.00	4.00	-0.231445	0.386230	0.948730	0.420000	19.110001	0.000000	923.00	-0.23	-0.12	0.00	0.00	0.00	0.00	0.00	0.00	0.00	0.00	0.00	0.25	0.25	0.00	0.75	0.75	0.50	0.00	3.150879	0.985352	4.492188	-131.320007	-102.620003	105.699997	23.00	0.00	0.00
2.82	13.25	27.00	6.75	13.50	0.50	5.50	0.50	2.00	0.00	2.75	5.25	4.25	1.00	0.00	0.00	3.75	-0.259277	0.318359	1.062012	-11.690000	18.549999	-3.920000	870.00	-0.22	-0.12	0.00	0.00	0.00	0.00	0.00	0.00	0.00	0.00	0.00	0.00	0.00	0.00	0.50	0.25	0.25	0.25	2.588867	-0.181152	3.167480	-274.190002	-162.889999	115.779999	10.00	0.00	0.00
2.83	12.75	25.25	6.50	12.25	0.50	5.00	0.50	1.25	0.00	3.00	5.25	4.00	0.75	0.00	0.00	3.75	-0.150879	0.133789	0.975586	-19.180000	14.000000	-10.990000	813.00	-0.22	-0.12	0.00	0.00	0.00	0.00	0.00	0.00	0.00	0.00	0.00	0.00	0.00	0.00	0.50	0.50	0.00	0.00	2.370117	0.027344	3.063477	-297.850006	-200.339996	49.349998	9.00	0.00	0.00
2.84	11.75	22.75	6.00	10.75	0.25	4.00	0.50	1.00	0.00	3.00	5.25	3.75	0.75	0.00	0.00	4.00	-0.150391	0.224609	0.869141	-25.480000	13.650000	-19.040001	739.00	-0.21	-0.11	0.25	0.00	0.00	0.00	0.00	0.00	0.00	0.00	0.00	0.00	0.00	0.00	0.50	0.25	0.00	0.00	2.138672	-0.010742	3.305664	-235.270004	-275.589996	-31.780001	9.00	0.00	0.00
2.85	9.75	19.25	5.25	8.75	0.50	2.25	0.50	0.75	0.00	2.75	5.00	4.00	0.50	0.00	0.00	3.75	-0.162598	0.324707	0.866211	-35.490002	22.049999	-21.420000	630.00	-0.20	-0.11	0.00	0.00	0.00	0.00	0.00	0.00	0.00	0.00	0.00	0.00	0.00	0.00	0.00	0.50	0.00	0.00	1.527344	-0.321289	2.700684	-103.180000	-462.209991	-184.869995	4.00	0.00	0.00
2.86	8.50	15.00	4.50	7.25	0.25	1.25	0.50	0.50	0.00	2.75	5.00	3.75	0.25	0.00	0.00	3.75	-0.170410	0.183594	0.818359	-40.180000	29.960001	-18.129999	531.00	-0.18	-0.10	0.00	0.00	0.00	0.25	0.00	0.00	0.00	0.00	0.00	0.00	0.00	0.00	0.00	0.25	0.00	0.00	1.142578	0.003906	2.246094	-120.260002	-529.760010	-239.399994	5.00	0.00	0.00
2.87	7.25	10.75	3.25	5.75	0.25	0.00	0.75	0.25	0.00	2.75	5.25	3.50	0.25	0.00	0.00	4.00	-0.118652	0.078613	0.703613	-39.970001	40.740002	-18.200001	436.00	-0.15	-0.09	0.00	0.00	0.00	0.00	0.00	0.00	0.00	0.00	0.00	0.00	0.00	0.00	0.00	0.00	0.00	0.00	0.772949	0.590820	1.852051	-138.460007	-573.159973	-270.059998	0.00	0.00	0.00
2.88	5.50	7.75	2.75	4.25	0.25	0.25	0.75	0.25	0.00	2.75	5.00	4.25	0.75	0.00	0.00	4.00	-0.107910	0.200195	0.953125	-40.250000	50.400002	-17.990000	380.00	-0.10	-0.11	0.00	0.00	0.00	0.00	0.00	0.00	0.00	0.00	0.00	0.00	0.00	0.00	0.00	0.25	0.00	0.00	0.499023	1.154297	1.512207	-111.650002	-595.140015	-273.070007	2.00	0.00	0.00
2.89	3.75	6.00	2.00	3.00	0.25	0.00	0.75	0.25	0.00	3.00	5.25	3.75	0.50	0.25	0.00	4.00	-0.037598	0.140137	0.852051	-38.080002	49.700001	-14.350000	321.00	-0.05	-0.10	0.00	0.00	0.00	0.00	0.00	0.00	0.25	0.00	0.00	0.00	0.00	0.00	0.00	0.00	0.00	0.00	0.285156	1.515137	1.095703	-38.290001	-597.590027	-251.790009	4.00	0.00	0.00
2.90	2.50	4.25	2.00	1.00	0.50	0.00	0.75	0.00	0.00	3.50	5.50	4.00	1.00	0.50	0.00	4.00	-0.074219	0.212402	0.681641	-53.060001	59.150002	-15.260000	286.00	0.02	-0.10	0.00	0.00	0.00	0.00	0.00	0.00	0.25	0.00	0.25	0.00	0.00	0.00	0.25	0.00	0.00	0.00	0.112793	1.586426	0.878418	66.779999	-580.510010	-219.800003	9.00	0.00	0.00
2.91	1.50	3.00	1.25	1.50	0.25	0.25	0.75	0.50	0.00	3.50	5.75	4.25	1.25	0.50	0.00	4.25	-0.386719	0.091797	1.540039	-76.510002	49.840000	-15.190001	278.00	0.06	-0.13	0.00	0.00	0.00	0.00	0.00	0.00	0.25	0.00	0.25	0.00	0.00	0.00	0.00	0.00	0.00	0.00	-0.106445	1.288574	0.986816	191.309998	-551.250000	-188.860001	7.00	0.00	0.00
2.92	1.25	1.50	1.00	1.25	0.25	0.50	0.75	0.50	0.00	4.00	6.25	4.50	1.75	1.00	0.00	4.25	-0.257812	0.055664	0.928711	-54.810001	28.490000	-12.320000	280.00	0.11	-0.13	0.00	0.00	0.00	0.00	0.00	0.00	0.25	0.00	0.00	0.00	0.00	0.00	0.00	0.00	0.00	0.00	-0.394531	0.752930	1.579590	292.670013	-521.359985	-165.970001	4.00	0.00	0.00
2.93	1.00	1.25	1.00	1.50	0.50	0.25	0.75	1.00	0.25	4.25	6.50	5.00	2.25	1.50	0.00	4.50	-0.282227	0.156250	0.938477	-45.570000	17.150000	-7.910000	309.00	0.12	-0.13	0.00	0.00	0.00	0.00	0.00	0.00	0.00	0.00	0.00	0.00	0.00	0.00	0.00	0.00	0.00	0.00	-0.892090	0.745605	2.429688	327.880005	-502.670013	-137.690002	0.00	0.00	0.00
2.94	0.50	0.75	1.00	1.00	0.50	0.00	0.75	1.25	0.25	4.50	7.25	5.50	3.00	2.25	0.00	4.75	-0.195801	0.156738	0.972656	-48.160000	11.760000	-3.360000	325.00	0.16	-0.14	0.00	0.00	0.00	0.00	0.00	0.00	0.25	0.00	0.25	0.00	0.00	0.00	0.00	0.00	0.00	0.00	-1.409180	0.802734	3.078125	308.000000	-501.760010	-84.489998	7.00	0.00	0.00
2.95	0.25	0.50	0.50	0.75	0.50	0.25	0.75	1.50	0.50	5.00	7.75	6.25	3.75	3.25	0.25	5.00	-0.227539	0.145996	0.987793	-36.470001	7.280000	-5.180000	359.00	0.19	-0.14	0.00	0.00	0.00	0.00	0.00	0.00	0.25	0.00	0.00	0.00	0.00	0.00	0.00	0.00	0.00	0.00	-1.867676	0.832031	3.279785	277.899994	-508.970001	-14.630000	4.00	0.00	0.00
2.96	0.00	0.25	0.75	1.00	0.50	0.50	1.00	2.00	1.00	5.50	8.25	7.25	5.50	4.50	0.50	5.25	-0.221680	0.134766	0.931641	-13.580000	5.600000	-14.070000	431.00	0.19	-0.14	0.00	0.00	0.00	0.00	0.00	0.00	0.25	0.00	0.25	0.00	0.00	0.00	0.00	0.00	0.00	0.00	-2.457520	0.926758	3.250977	275.029999	-507.429993	59.639999	7.00	0.00	0.00
2.97	0.00	0.25	0.75	0.50	0.75	0.25	0.75	2.50	1.50	6.25	9.25	8.50	6.25	5.50	1.00	5.50	-0.248047	0.142578	0.916016	-9.940000	1.680000	-14.560000	489.00	0.20	-0.14	0.00	0.00	0.00	0.00	0.00	0.00	0.25	0.00	0.25	0.00	0.00	0.00	0.00	0.00	0.00	0.00	-3.145996	0.816406	3.126465	299.809998	-490.910004	140.070007	7.00	0.00	0.00
2.98	0.00	0.00	0.75	0.50	0.75	0.25	1.00	3.75	2.00	7.50	10.25	9.50	7.25	8.00	1.25	6.00	-0.193848	0.083984	0.975098	-4.690000	4.340000	-12.180000	586.00	0.21	-0.13	0.00	0.00	0.00	0.00	0.00	0.25	0.00	0.00	0.00	0.00	0.00	0.00	0.00	0.00	0.00	0.00	-3.669434	0.311035	2.983398	326.059998	-458.779999	226.940002	3.00	0.00	0.00
2.99	0.00	0.00	0.50	0.00	0.50	0.00	0.75	5.25	2.75	8.25	11.75	10.50	8.00	9.75	1.75	6.25	-0.232422	0.131836	1.009766	4.900000	18.549999	-9.940000	663.00	0.22	-0.13	0.00	0.00	0.00	0.00	0.00	0.00	0.00	0.00	0.00	0.00	0.00	0.00	0.00	0.00	0.00	0.00	-4.319336	-0.297363	3.153320	337.399994	-416.079987	305.619995	0.00	0.00	0.00
3.00	0.00	0.00	0.00	0.00	0.50	0.00	0.75	5.50	3.75	9.00	13.00	11.75	9.00	11.75	2.50	7.00	-0.236816	0.097168	1.106934	13.300000	41.439999	-7.910000	746.00	0.23	-0.13	0.00	0.00	0.00	0.00	0.00	0.00	0.25	0.00	0.00	0.00	0.00	0.00	0.00	0.00	0.00	0.00	-5.123047	-0.956543	3.412598	319.480011	-374.220001	365.679993	4.00	0.00	0.00
3.01	0.00	0.00	0.00	0.00	0.25	0.00	0.75	5.25	4.75	9.75	14.00	13.00	9.50	14.00	2.75	7.50	-0.229980	0.135254	1.104004	34.580002	79.940002	-5.110000	813.00	0.24	-0.12	0.00	0.00	0.25	0.00	0.00	0.00	0.00	0.00	0.00	0.00	0.00	0.00	0.00	0.00	0.00	0.00	-5.909180	-1.551270	3.306641	250.180008	-336.489990	399.489990	3.00	0.00	0.00
3.02	0.00	0.00	0.00	0.25	0.00	0.00	0.50	5.25	5.25	10.25	15.00	13.75	10.25	16.00	4.25	8.50	-0.252441	0.217773	1.139648	57.119999	131.600006	-3.500000	884.00	0.24	-0.11	0.00	0.00	0.00	0.00	0.00	0.00	0.00	0.00	0.00	0.00	0.00	0.00	0.00	0.00	0.00	0.00	-6.399902	-1.694824	2.634766	169.399994	-305.130005	397.320007	0.00	0.00	0.00
3.03	0.00	0.00	0.00	0.00	0.00	0.00	0.50	4.25	5.25	10.50	15.50	14.75	10.50	18.00	5.50	9.25	-0.308105	0.128906	1.315430	79.730003	184.029999	-10.080000	921.00	0.25	-0.11	0.00	0.00	0.00	0.00	0.00	0.00	0.00	0.00	0.25	0.00	0.00	0.00	0.00	0.00	0.00	0.00	-6.840820	-1.577637	1.587402	126.699997	-268.380005	360.570007	3.00	0.00	0.00
3.04	0.00	0.00	0.00	0.00	0.00	0.00	0.25	3.50	5.00	10.50	15.75	15.00	10.25	19.25	5.75	9.75	-0.367676	0.262695	1.247070	86.519997	232.750000	-14.350000	922.00	0.26	-0.10	0.00	0.00	0.00	0.00	0.00	0.00	0.00	0.00	0.00	0.00	0.00	0.00	0.00	0.00	0.00	0.00	-7.450195	-1.149414	0.593262	104.580002	-206.430008	300.230011	0.00	0.00	0.00
3.05	0.00	0.00	0.00	0.00	0.00	0.00	0.25	2.25	5.00	10.25	15.50	14.75	9.75	20.75	6.50	10.75	-0.448242	0.337891	1.516113	87.360001	297.500000	-22.750000	916.00	0.27	-0.09	0.00	0.00	0.00	0.00	0.00	0.00	0.00	0.00	0.00	0.00	0.00	0.00	0.00	0.00	0.00	0.00	-7.660645	-0.562500	-0.515137	117.809998	-32.480000	151.899994	0.00	0.00	0.00
3.06	0.00	0.00	0.00	0.00	0.00	0.00	0.00	2.00	5.00	10.25	15.00	14.25	9.00	21.75	7.00	11.25	-0.320312	0.131836	1.777832	91.070000	365.119995	-32.480000	908.00	0.28	-0.09	0.00	0.00	0.00	0.00	0.00	0.00	0.00	0.00	0.25	0.00	0.00	0.00	0.00	0.00	0.00	0.00	-7.168457	-1.083008	-0.255859	162.960007	47.599998	102.269997	3.00	0.00	0.00
3.07	0.00	0.00	0.00	0.00	0.00	0.00	0.00	1.25	3.75	10.00	14.50	13.50	7.75	22.25	7.50	12.00	-0.497070	0.226074	1.883789	90.580002	431.059998	-35.700001	867.00	0.28	-0.08	0.00	0.00	0.00	0.00	0.00	0.00	0.00	0.00	0.25	0.00	0.00	0.00	0.00	0.00	0.00	0.00	-6.227539	-1.995605	0.007812	149.169998	115.570000	75.459999	3.00	0.00	0.00
3.08	0.00	0.00	0.00	0.00	0.00	0.00	0.00	0.50	2.75	9.75	13.75	12.50	6.50	21.75	7.75	12.50	-0.679199	0.284180	1.837402	80.500000	507.290009	-40.740002	812.00	0.29	-0.08	0.00	0.00	0.50	0.25	0.00	0.00	0.00	0.00	0.00	0.00	0.00	0.00	0.00	0.00	0.00	0.00	-4.906738	-2.243164	0.334473	60.340000	171.919998	51.240002	8.00	0.00	0.00
3.09	0.00	0.00	0.00	0.00	0.00	0.00	0.00	0.75	1.75	9.00	13.00	11.50	5.50	20.50	7.50	12.25	-0.666504	0.264648	2.050781	86.169998	589.820007	-43.259998	753.00	0.29	-0.08	3.25	7.50	1.00	2.25	0.00	0.00	0.00	0.00	0.00	0.00	0.00	0.00	0.25	0.00	0.00	0.00	2.550293	-1.633789	-5.827148	-230.580002	262.989990	8.190000	141.00	-0.37	-0.10
3.10	0.00	0.00	0.00	0.00	0.00	0.00	0.00	0.25	0.25	8.00	11.25	10.00	4.75	17.75	7.00	11.25	-1.121582	0.291016	2.778320	100.169998	665.700012	-40.740002	641.00	0.30	-0.09	14.75	18.50	2.25	5.50	0.00	0.00	0.00	0.00	0.00	0.00	0.00	0.00	0.00	0.00	0.00	0.00	0.328125	0.548828	2.595703	-305.899994	369.320007	-63.279999	408.00	-0.38	-0.06
3.11	0.00	0.00	0.00	0.00	0.00	0.00	0.00	0.00	0.00	6.25	9.00	8.25	3.50	13.75	5.75	9.00	-2.122559	1.054688	4.456543	157.919998	720.090027	-27.440001	503.00	0.30	-0.09	23.50	22.00	6.50	8.75	0.00	0.00	0.00	0.00	0.00	0.00	0.00	0.00	0.25	0.00	0.00	0.00	-2.649414	0.091797	4.755859	-213.779999	498.610016	-27.230000	616.00	-0.37	-0.04
3.12	0.00	0.00	0.00	0.00	0.00	0.00	0.00	0.00	0.00	5.00	7.50	6.50	1.75	9.50	4.25	6.50	-2.481934	0.818359	6.155273	241.220001	754.739990	-14.630000	375.00	0.30	-0.09	26.25	22.75	8.75	10.25	0.00	0.00	0.00	0.00	0.00	0.00	0.00	0.00	0.50	0.00	0.00	0.00	-2.340820	-1.235840	5.592285	-130.759995	482.369995	-0.350000	695.00	-0.37	-0.03
3.13	0.00	0.00	0.00	0.00	0.00	0.00	0.00	0.00	0.00	5.00	6.75	5.50	1.00	5.00	1.75	4.50	-2.372559	0.849609	6.715332	227.149994	757.049988	-20.930000	275.00	0.28	-0.10	25.75	21.50	10.50	11.50	0.50	0.25	0.00	0.00	0.25	0.00	0.00	0.00	0.25	0.00	0.00	0.00	-1.170898	-0.857422	3.818359	-55.790001	369.320007	-27.790001	721.00	-0.36	-0.03
3.14	0.00	0.00	0.00	0.00	0.00	0.00	0.25	0.00	0.00	4.25	6.00	5.00	0.75	1.25	0.00	4.25	-0.885254	1.464844	7.833984	234.080002	719.530029	-30.309999	204.00	0.24	-0.13	23.50	20.00	10.50	12.00	0.75	0.50	0.25	0.00	0.00	0.00	0.00	0.00	0.50	0.25	0.00	0.00	-0.638184	0.360840	2.635742	3.990000	254.029999	-60.410000	700.00	-0.35	-0.04
3.15	0.00	0.00	0.00	0.00	0.00	0.00	0.25	0.00	0.00	4.00	6.00	5.00	0.50	0.75	0.25	4.25	3.373535	0.065430	6.282227	283.079987	637.489990	-73.919998	198.00	0.24	-0.14	21.00	18.50	11.00	12.50	1.00	1.25	0.25	0.25	0.00	0.00	0.00	0.00	0.50	0.75	0.25	0.00	-0.378418	1.163574	1.342773	16.240000	174.649994	-49.910000	693.00	-0.33	-0.04
3.16	0.00	0.00	0.00	0.00	0.00	0.00	0.25	0.00	0.00	4.00	6.00	5.00	0.75	0.75	0.00	4.25	3.464844	3.345703	7.187988	160.930008	459.549988	-147.350006	197.00	0.24	-0.14	19.75	17.50	11.00	12.75	1.00	2.75	0.50	0.50	0.50	0.00	0.00	0.00	1.75	0.75	0.25	0.25	-0.376953	0.337402	1.248535	-65.519997	87.430000	-6.510000	716.00	-0.31	-0.05
3.17	0.00	0.00	0.00	0.00	0.00	0.00	0.25	0.00	0.00	3.75	5.75	4.50	0.50	0.00	0.00	4.25	3.215820	-0.537598	3.704102	1.680000	-148.470001	-133.000000	178.00	0.24	-0.15	19.00	17.00	11.25	12.75	1.75	2.75	0.50	1.00	0.75	0.00	0.00	0.00	1.50	1.25	0.25	0.25	-0.243652	-0.107422	1.270020	-77.769997	40.810001	2.100000	728.00	-0.29	-0.05
3.18	0.00	0.00	0.00	0.00	0.00	0.00	0.25	0.00	0.00	3.75	5.50	4.25	0.50	0.00	0.00	4.25	2.473145	-0.378418	3.061035	-14.980000	-178.009995	-216.649994	173.00	0.24	-0.15	18.50	16.75	11.25	13.00	1.75	3.25	0.75	1.25	0.75	0.00	0.00	0.00	1.75	1.00	0.50	0.50	-0.359863	0.123535	1.331055	-40.529999	-0.070000	-6.090000	740.00	-0.29	-0.06
3.19	0.00	0.00	0.00	0.00	0.00	0.00	0.50	0.00	0.00	3.75	5.75	4.25	0.50	0.00	0.00	4.00	2.452148	0.336426	3.491211	-55.020000	-214.270004	-265.160004	178.00	0.23	-0.14	17.75	16.50	10.75	12.50	1.75	3.25	0.75	1.25	0.50	0.00	0.00	0.00	1.75	1.25	0.25	0.50	-0.215820	0.229980	0.994629	-10.500000	-9.170000	-1.610000	715.00	-0.29	-0.06
3.20	0.00	0.00	0.25	0.00	0.00	0.00	0.50	0.00	0.00	3.75	5.75	4.00	0.50	0.00	0.00	4.00	2.081543	0.779297	3.636719	-100.940002	-299.739990	-265.579987	178.00	0.23	-0.13	17.00	15.50	10.25	12.00	1.50	3.00	0.75	1.00	0.75	0.00	0.00	0.00	1.50	1.00	0.25	0.50	-0.135254	0.170898	1.055176	-3.990000	-0.980000	1.260000	677.00	-0.29	-0.06
3.21	0.00	0.00	0.00	0.00	0.00	0.00	0.50	0.00	0.00	3.50	5.50	3.75	0.00	0.00	0.00	3.75	1.609863	0.914062	3.243164	-147.770004	-390.739990	-245.419998	162.00	0.23	-0.13	15.25	14.50	9.50	11.25	1.50	2.75	0.50	1.25	0.50	0.00	0.00	0.00	1.75	1.00	0.25	0.25	-0.148926	0.177246	0.937012	-0.490000	2.730000	0.910000	628.00	-0.29	-0.06
3.22	0.00	0.00	0.00	0.00	0.00	0.00	0.50	0.00	0.00	3.50	5.50	3.75	0.25	0.00	0.00	4.00	1.193848	1.072754	2.623047	-190.750000	-459.410004	-225.050003	165.00	0.23	-0.13	13.25	13.25	8.75	10.00	1.50	2.25	0.50	0.75	0.75	0.00	0.00	0.00	1.25	1.00	0.25	0.25	-0.126465	0.178711	0.919434	-4.270000	7.070000	2.450000	560.00	-0.29	-0.06
3.23	0.00	0.00	0.00	0.00	0.00	0.00	0.50	0.00	0.00	3.50	5.50	3.50	0.25	0.00	0.00	4.25	0.761719	1.195312	2.073730	-213.570007	-498.679993	-208.809998	164.00	0.24	-0.13	10.75	11.50	7.50	9.50	1.25	2.00	0.50	1.25	0.75	0.00	0.00	0.00	1.25	1.25	0.00	0.25	-0.097168	0.175293	0.909668	-13.020000	11.480000	3.990000	500.00	-0.27	-0.07
3.24	0.00	0.00	0.00	0.00	0.00	0.00	0.50	0.00	0.00	3.25	5.25	3.25	0.00	0.00	0.00	4.00	0.369629	1.364258	1.786133	-200.059998	-511.839996	-190.750000	153.00	0.24	-0.13	8.00	9.50	6.25	8.50	1.00	1.50	0.50	1.00	1.00	0.00	0.00	0.00	1.50	0.75	0.00	0.25	-0.109375	0.169922	0.944336	-22.540001	16.520000	4.900000	417.00	-0.26	-0.07
3.25	0.00	0.00	0.00	0.00	0.00	0.00	0.50	0.00	0.00	3.25	5.50	3.25	0.00	0.00	0.00	4.00	0.079590	1.503418	1.782715	-149.380005	-513.659973	-162.889999	155.00	0.24	-0.13	6.00	7.50	5.25	7.00	0.50	1.75	0.50	0.75	1.00	0.00	0.00	0.00	1.50	1.25	0.00	0.25	-0.079102	0.159180	0.896973	-42.070000	21.070000	1.680000	348.00	-0.24	-0.07
3.26	0.00	0.25	0.00	0.00	0.00	0.00	0.50	0.00	0.00	3.25	5.50	3.25	0.00	0.00	0.00	4.00	-0.183594	1.493164	1.896973	-81.269997	-519.470032	-122.150002	157.00	0.23	-0.13	4.00	6.00	3.50	6.00	0.75	0.75	0.50	0.75	1.00	0.00	0.00	0.00	1.75	1.00	0.25	0.25	-0.103516	0.154297	0.954102	-57.049999	24.010000	0.210000	278.00	-0.22	-0.08
3.27	0.00	0.00	0.00	0.00	0.00	0.00	0.50	0.00	0.00	3.25	5.00	3.25	0.00	0.00	0.00	3.75	-0.488770	1.405762	1.897461	-23.590000	-525.280029	-77.559998	149.00	0.24	-0.13	2.25	4.25	2.25	4.25	0.75	0.75	0.50	0.75	1.50	0.50	0.25	0.25	2.00	1.75	0.25	0.50	-0.126953	0.135742	1.067383	-52.500000	24.780001	-2.240000	237.00	-0.12	-0.08
3.28	0.00	0.00	0.00	0.00	0.00	0.00	0.50	0.00	0.00	3.25	5.25	3.25	0.00	0.00	0.00	4.00	-0.777344	1.353516	1.911133	15.190001	-522.270020	-38.849998	153.00	0.24	-0.13	1.50	3.50	1.25	4.50	0.50	0.50	0.50	0.75	1.75	0.75	0.50	0.75	2.50	1.75	0.00	0.50	-0.197266	0.126465	1.043457	-35.000000	25.129999	-2.450000	224.00	-0.08	-0.10
3.29	0.00	0.00	0.00	0.00	0.00	0.50	0.50	0.00	0.00	3.25	5.50	3.25	0.00	0.00	0.00	4.00	-1.000488	1.340820	1.986816	42.700001	-511.630005	-10.780000	161.00	0.22	-0.13	0.25	1.00	1.00	1.75	0.25	0.00	0.50	0.75	1.75	1.00	0.75	1.00	2.50	1.25	0.00	0.75	-0.222656	0.091309	1.043457	-15.540000	25.059999	-0.350000	152.00	0.06	-0.09
3.30	0.00	0.00	0.00	0.00	0.00	0.00	0.50	0.00	0.00	3.25	5.50	3.25	0.00	0.00	0.00	3.75	-1.147461	1.393066	2.239746	70.209999	-501.410004	4.970000	154.00	0.24	-0.12	0.50	0.25	0.75	1.00	0.25	0.00	0.50	0.75	2.00	1.25	1.00	1.25	2.75	2.00	0.25	0.75	-0.121582	0.124023	1.061523	1.190000	30.660000	3.150000	159.00	0.13	-0.07
3.31	0.00	0.00	0.00	0.00	0.00	0.00	0.50	0.00	0.00	3.25	5.25	3.25	0.00	0.00	0.00	4.00	-1.323730	1.484863	2.699707	117.389999	-497.769989	13.510000	153.00	0.24	-0.13	0.00	0.75	0.25	2.25	0.25	0.00	0.75	0.75	2.00	1.50	1.50	1.50	2.75	2.25	0.25	0.75	-0.141113	0.137207	0.965332	4.410000	38.290001	3.640000	183.00	0.12	-0.08
3.32	0.00	0.00	0.00	0.00	0.00	0.25	0.50	0.00	0.00	3.25	5.25	3.25	0.00	0.00	0.00	4.00	-1.632812	1.450684	3.106445	171.919998	-503.860016	24.639999	155.00	0.23	-0.13	0.00	0.00	0.50	0.50	0.25	0.00	0.50	0.75	2.00	2.25	2.25	1.50	3.00	2.00	0.75	1.00	-0.153320	0.176758	0.920898	4.480000	39.549999	-2.170000	178.00	0.19	-0.07
3.33	0.00	0.00	0.00	0.00	0.00	0.00	0.50	0.00	0.00	3.25	5.25	3.25	0.00	0.25	0.00	3.75	-2.110352	1.349121	3.233887	205.100006	-510.230011	47.599998	153.00	0.24	-0.12	0.00	0.25	0.50	0.50	0.25	0.00	0.50	0.75	2.25	2.25	2.50	2.00	4.00	3.00	0.25	1.25	-0.145508	0.165527	0.938477	6.020000	39.340000	-9.940000	205.00	0.19	-0.08
3.34	0.00	0.00	0.00	0.00	0.00	0.00	0.50	0.00	0.00	3.25	5.25	3.25	0.00	0.00	0.00	4.00	-2.539062	1.172852	3.026855	214.619995	-505.330017	86.730003	153.00	0.24	-0.13	0.00	0.00	0.00	0.00	0.50	0.00	0.50	0.75	2.25	3.00	3.25	2.75	4.25	3.25	0.50	1.25	-0.193359	0.156250	0.966309	8.680000	42.910000	-15.190001	225.00	0.23	-0.09
3.35	0.00	0.00	0.00	0.00	0.00	0.25	0.50	0.00	0.00	3.25	5.25	3.25	0.25	0.00	0.00	3.75	-2.805176	1.004395	2.730469	211.610001	-483.559998	142.240005	156.00	0.23	-0.13	0.00	0.00	0.00	0.50	0.00	0.00	0.50	1.00	3.00	3.75	4.50	3.75	5.25	3.50	0.75	2.00	-0.203125	0.124512	0.941895	12.110000	44.869999	-19.040001	287.00	0.22	-0.10
3.36	0.00	0.00	0.00	0.00	0.00	0.00	0.50	0.00	0.00	3.00	5.25	3.25	0.00	0.00	0.00	4.00	-3.160156	0.801270	2.668457	205.309998	-452.059998	206.919998	150.00	0.24	-0.13	0.00	0.00	0.00	0.25	0.25	0.00	0.50	1.25	3.50	4.75	7.50	5.00	6.50	4.75	0.75	2.25	-0.203613	0.125977	0.887207	16.660000	43.470001	-19.670000	376.00	0.23	-0.10
3.37	0.00	0.00	0.00	0.00	0.00	0.00	0.50	0.00	0.00	3.00	5.25	3.50	0.00	0.00	0.00	3.75	-3.489746	0.388184	2.952637	230.229996	-423.429993	273.209991	151.00	0.24	-0.13	0.00	0.00	0.00	0.00	0.00	0.00	0.25	1.75	4.25	6.50	8.75	7.00	7.75	6.50	1.50	3.25	-0.225098	0.094727	0.972168	16.870001	43.820000	-17.080000	475.00	0.24	-0.11
3.38	0.00	0.00	0.50	0.00	0.00	0.00	0.50	0.00	0.00	3.25	5.25	3.50	0.00	0.00	0.00	3.75	-5.334473	-1.110840	3.312988	267.540009	-379.470001	343.489990	159.00	0.22	-0.12	0.00	0.00	0.00	0.00	0.00	0.00	0.50	1.75	5.75	8.00	10.00	8.25	8.25	8.75	2.50	5.50	-0.218262	0.117188	1.027344	19.180000	49.279999	-13.020000	587.00	0.25	-0.09
3.39	0.00	0.00	0.00	0.00	0.00	0.00	0.50	0.00	0.00	3.25	5.25	3.50	0.00	0.00	0.00	3.75	-6.814941	-1.058594	1.986328	189.279999	-335.369995	338.100006	154.00	0.24	-0.13	0.00	0.00	0.00	0.00	0.00	0.00	0.50	1.75	6.75	9.00	10.75	8.75	8.75	11.25	3.00	6.50	-0.250977	0.120117	1.101562	25.059999	64.120003	-8.960000	660.00	0.25	-0.08
3.40	0.00	0.00	0.00	0.00	0.00	0.00	0.50	0.00	0.00	3.50	5.25	3.50	0.00	0.00	0.00	4.00	-7.895508	-0.946777	0.504395	75.669998	-260.820007	295.399994	158.00	0.24	-0.13	0.00	0.00	0.00	0.00	0.00	0.00	0.25	1.75	7.50	9.75	11.75	9.50	9.25	14.25	5.00	7.75	-0.260742	0.181641	1.166016	31.850000	91.980003	-7.350000	750.00	0.26	-0.07
3.41	0.00	0.00	0.00	0.00	0.00	0.00	0.50	0.00	0.00	3.25	5.50	3.50	0.00	0.00	0.00	4.00	-7.902344	-0.740723	-0.464844	18.340000	-163.029999	225.330002	158.00	0.24	-0.13	0.00	0.00	0.00	0.00	0.00	0.00	0.25	1.50	8.00	9.75	12.25	9.75	9.25	17.00	6.25	9.00	-0.286133	0.289551	1.217285	35.700001	129.850006	-13.930000	804.00	0.27	-0.06
3.42	0.00	0.00	0.00	0.00	0.00	0.00	0.50	0.00	0.00	3.50	5.50	3.50	0.00	0.00	0.00	3.75	-7.486816	-0.665039	-0.748047	3.640000	-64.470001	148.960007	159.00	0.24	-0.12	0.00	0.00	0.00	0.00	0.00	0.00	0.00	1.00	8.50	10.50	12.50	9.75	8.75	19.50	7.25	10.00	-0.330078	0.309570	1.362305	33.529999	182.559998	-27.230000	842.00	0.28	-0.05
3.43	0.00	0.00	0.00	0.00	0.00	0.00	0.50	0.00	0.00	3.25	5.50	3.50	0.00	0.00	0.00	4.00	-7.158691	-0.522949	-0.541992	-4.130000	18.200001	87.290001	158.00	0.24	-0.13	0.00	0.00	0.00	0.00	0.00	0.00	0.00	0.75	8.75	10.75	12.50	9.75	8.25	21.75	8.25	10.75	-0.376465	0.298828	1.521973	29.469999	254.660004	-41.020000	874.00	0.29	-0.04
3.44	0.00	0.00	0.00	0.00	0.00	0.00	0.50	0.00	0.00	3.25	5.50	3.75	0.00	0.00	0.00	4.00	-6.916016	-0.492188	-0.315430	-17.150000	81.059998	52.290001	160.00	0.24	-0.13	0.00	0.00	0.00	0.00	0.00	0.00	0.00	0.25	8.75	10.50	12.25	9.25	7.50	23.50	9.00	11.75	-0.545898	0.434082	1.632812	13.790000	328.089996	-53.970001	877.00	0.30	-0.03
3.45	0.00	0.00	0.00	0.00	0.00	0.00	0.50	0.00	0.00	3.50	5.25	3.50	0.00	0.00	0.00	3.75	-6.497559	-0.348145	-0.201660	-39.759998	135.029999	25.200001	156.00	0.24	-0.12	0.00	0.00	0.00	0.00	0.00	0.00	0.00	0.00	8.75	10.50	11.75	8.50	6.25	24.25	9.50	12.25	-0.602539	0.548340	2.082520	-5.670000	492.380005	-96.669998	864.00	0.30	-0.02
3.46	0.00	0.00	0.00	0.00	0.00	0.00	0.50	0.00	0.00	3.25	5.50	3.50	0.00	0.00	0.00	3.75	-5.601074	0.020508	0.161621	-66.010002	182.419998	-16.730000	156.00	0.23	-0.13	0.00	0.00	0.00	0.00	0.00	0.00	0.00	0.00	8.00	10.50	11.25	7.75	5.25	25.00	10.00	12.00	-0.634277	0.559570	1.850586	-25.129999	581.559998	-119.629997	842.00	0.31	-0.02
3.47	0.50	0.75	0.75	0.00	0.00	0.00	0.50	0.00	0.00	3.25	5.25	3.25	0.00	0.00	0.00	3.75	3.237793	-0.753418	-0.196777	-61.950001	208.949997	-69.860001	172.00	0.17	-0.11	0.00	0.00	0.00	0.00	0.00	0.00	0.00	0.00	6.75	9.75	10.25	7.00	4.50	23.75	9.75	11.25	-0.663086	0.583496	2.263672	-12.600000	676.760010	-136.639999	776.00	0.31	-0.02
3.48	9.50	12.25	1.25	0.75	0.00	0.00	0.25	0.00	0.00	3.25	5.25	3.25	0.00	0.00	0.00	3.75	2.524414	0.841309	-3.942383	27.790001	127.470001	-41.720001	381.00	-0.15	-0.07	0.00	0.00	0.00	0.00	0.00	0.00	0.00	0.00	5.25	8.25	9.00	6.00	3.75	21.25	9.00	9.75	-1.612305	0.937988	3.325684	30.309999	755.159973	-138.250000	673.00	0.31	-0.02
3.49	26.75	29.00	3.00	3.25	0.00	0.00	0.25	0.00	0.00	3.25	5.50	3.50	0.00	0.00	0.00	3.75	-1.165039	0.174316	-0.897949	90.090004	279.510010	17.219999	766.00	-0.27	-0.05	0.00	0.00	0.00	0.00	0.00	0.00	0.00	0.00	3.50	5.25	6.00	3.75	2.75	17.00	7.50	7.75	-3.063477	1.737305	5.780762	149.660004	806.470032	-118.230003	492.00	0.32	-0.02
3.50	32.25	37.00	6.25	8.00	0.00	0.00	0.25	0.00	0.00	3.00	5.50	4.00	0.00	0.00	0.00	4.00	-2.189453	0.229980	3.707520	106.050003	544.530029	-4.830000	989.00	-0.29	-0.06	0.00	0.00	0.00	0.00	0.00	0.00	0.00	0.00	2.00	2.25	2.50	1.50	2.50	11.75	5.50	5.50	-2.627441	2.231445	7.563477	363.510010	792.820007	-84.699997	301.00	0.34	-0.02
3.51	33.25	37.75	8.50	9.75	0.75	0.25	0.50	0.00	0.00	3.25	5.25	3.75	0.00	0.00	0.00	4.00	-2.266602	0.241699	5.494141	79.029999	513.659973	-25.760000	1062.00	-0.29	-0.05	0.00	0.00	0.00	0.00	0.00	0.00	0.00	0.00	1.25	1.50	1.25	1.00	1.50	6.25	3.00	2.00	-1.393066	1.381836	8.231934	500.149994	705.320007	-117.389999	164.00	0.33	-0.01
3.52	31.25	36.00	9.75	12.25	1.50	0.75	0.50	0.00	0.00	2.75	5.25	3.75	0.00	0.00	0.00	3.75	-1.754395	0.047852	4.376465	40.529999	372.890015	-57.889999	1074.00	-0.28	-0.06	0.00	0.00	0.00	0.00	0.00	0.00	0.00	0.00	0.75	0.75	0.75	0.50	1.25	1.50	0.50	0.25	0.886719	1.125488	8.135742	532.070007	604.239990	-193.410004	61.00	0.28	-0.05
3.53	27.50	33.50	10.00	13.25	1.75	1.75	0.75	0.25	0.00	2.75	5.25	3.75	0.50	0.00	0.00	4.00	-1.159180	0.385254	3.410645	44.730000	233.380005	-64.610001	1053.00	-0.27	-0.07	0.00	0.00	0.00	0.00	0.00	0.00	0.00	0.00	0.25	0.25	0.50	0.00	0.50	1.00	0.00	0.00	3.273438	0.017090	5.095215	526.470032	461.299988	-289.450012	24.00	0.00	0.00
3.54	23.25	31.00	9.50	13.50	1.50	2.25	0.50	0.50	0.00	2.50	5.00	4.00	0.50	0.00	0.00	3.75	-0.727051	1.038574	1.619141	22.540001	88.760002	-37.869999	982.00	-0.26	-0.08	0.00	0.00	0.00	0.00	0.00	0.00	0.00	0.00	0.00	0.25	0.25	0.00	0.50	0.50	0.50	0.00	-0.200684	4.498535	10.656738	271.600006	315.559998	-213.570007	19.00	0.00	0.00
3.55	19.25	29.00	8.50	13.25	1.25	2.75	0.75	0.75	0.00	2.75	5.25	3.75	0.75	0.00	0.00	3.75	-0.156738	0.458008	0.755859	19.250000	53.270000	-6.230000	923.00	-0.25	-0.09	0.00	0.00	0.25	0.00	0.00	0.00	0.00	0.00	0.00	0.25	0.00	0.00	0.75	0.50	0.25	0.25	1.852051	2.929688	5.116699	69.580002	62.860001	4.340000	20.00	0.00	0.00
3.56	17.50	27.00	8.25	13.00	1.00	3.00	0.75	1.00	0.00	3.00	5.25	4.00	0.75	0.00	0.00	3.75	-0.095215	0.137695	1.266113	-6.510000	59.290001	1.120000	890.00	-0.24	-0.09	0.00	0.00	0.00	0.00	0.00	0.00	0.00	0.00	0.00	0.00	0.00	0.00	1.00	0.25	0.25	0.25	2.365234	0.447266	2.902832	-119.629997	-71.889999	123.620003	15.00	0.00	0.00
3.57	16.25	25.50	7.75	12.25	1.00	3.25	0.75	1.00	0.00	3.00	5.25	4.00	1.00	0.00	0.00	3.50	-0.418945	0.213867	1.264160	-14.000000	33.950001	-5.740000	853.00	-0.23	-0.10	0.00	0.00	0.00	0.00	0.00	0.00	0.00	0.00	0.00	0.00	0.00	0.25	0.75	0.50	0.25	0.00	1.934570	0.188965	2.529297	-217.770004	-50.820000	99.330002	16.00	0.00	0.00
3.58	14.50	24.25	7.50	11.50	1.00	3.00	0.75	1.00	0.00	3.00	5.00	4.00	0.75	0.00	0.00	3.75	-0.252930	0.250977	0.975586	-7.770000	18.200001	-5.600000	806.00	-0.22	-0.10	0.00	0.00	0.00	0.00	0.00	0.00	0.00	0.00	0.00	0.00	0.00	0.00	0.75	0.25	0.25	0.25	2.236328	0.697754	3.199707	-206.080002	-54.880001	39.900002	13.00	0.00	0.00
3.59	13.50	21.75	7.00	10.25	1.00	2.25	0.75	0.75	0.00	3.00	5.25	3.75	0.75	0.00	0.00	3.75	-0.159668	0.279297	0.841309	-27.650000	31.219999	-7.210000	742.00	-0.22	-0.09	0.00	0.00	0.00	0.00	0.00	0.00	0.00	0.00	0.00	0.00	0.00	0.00	0.75	0.25	0.25	0.00	2.341797	0.689941	3.890625	-153.369995	-164.919998	-2.240000	11.00	0.00	0.00
3.60	11.50	19.50	6.25	9.00	0.75	2.00	0.75	0.75	0.00	2.75	5.50	3.75	0.75	0.00	0.00	4.00	-0.208008	0.200195	0.872559	-36.889999	40.740002	-6.090000	674.00	-0.20	-0.10	0.00	0.00	0.25	0.00	0.00	0.00	0.00	0.00	0.00	0.00	0.00	0.00	0.75	0.25	0.25	0.00	1.978027	0.221191	3.684082	-142.729996	-317.029999	-38.849998	14.00	0.00	0.00
3.61	9.50	16.25	5.75	8.00	0.75	1.50	0.75	0.50	0.00	3.00	5.25	3.75	0.75	0.00	0.00	4.00	-0.140137	0.180664	0.824707	-41.299999	48.509998	-4.900000	598.00	-0.18	-0.10	0.00	0.00	0.25	0.00	0.00	0.00	0.00	0.00	0.25	0.00	0.00	0.00	0.50	0.00	0.25	0.00	1.601074	0.026855	3.130371	-188.300003	-443.869995	-88.059998	13.00	0.00	0.00
3.62	7.75	12.75	5.00	7.00	0.50	1.00	0.75	0.50	0.00	3.00	5.50	3.75	0.50	0.00	0.00	3.75	-0.138672	0.168457	0.798340	-48.860001	58.730000	-4.270000	519.00	-0.16	-0.10	0.00	0.00	0.00	0.00	0.00	0.00	0.00	0.00	0.50	0.00	0.00	0.00	0.50	0.75	0.25	0.00	1.317871	0.331543	2.696777	-230.440002	-533.539978	-146.300003	20.00	0.00	0.00
3.63	6.00	8.75	3.75	5.50	0.50	0.75	0.75	0.50	0.00	3.25	5.50	3.50	0.25	0.25	0.00	3.75	-0.218262	0.001953	1.291504	-69.860001	66.080002	-5.600000	431.00	-0.12	-0.10	0.00	0.00	0.00	0.00	0.00	0.00	0.00	0.00	0.00	0.00	0.00	0.00	0.00	0.25	0.00	0.00	1.004395	0.712402	2.306641	-225.610001	-594.510010	-200.899994	2.00	0.00	0.00
3.64	4.75	6.75	3.00	4.50	0.50	0.50	0.75	0.25	0.00	3.50	5.50	3.75	0.50	0.50	0.00	3.75	-0.200195	0.050781	1.074707	-62.650002	46.830002	-10.990000	383.00	-0.08	-0.10	0.00	0.00	0.00	0.00	0.00	0.00	0.00	0.00	0.25	0.00	0.00	0.00	0.00	0.00	0.00	0.00	0.640625	1.105469	2.031250	-177.589996	-633.220032	-241.149994	3.00	0.00	0.00
3.65	3.50	5.00	2.25	2.00	0.75	0.25	0.75	0.50	0.00	3.75	6.00	4.00	1.00	0.75	0.00	4.00	-0.187500	0.136719	0.955078	-58.520000	35.630001	-14.420000	340.00	-0.01	-0.10	0.00	0.00	0.00	0.00	0.00	0.00	0.25	0.00	0.25	0.00	0.00	0.00	0.00	0.50	0.00	0.00	-0.003418	1.557617	1.465820	-38.009998	-661.429993	-250.880005	11.00	0.00	0.00
3.66	2.00	3.25	2.00	2.25	0.50	0.25	0.75	0.75	0.00	4.25	6.00	4.50	1.25	1.75	0.00	4.00	-0.302734	0.146973	1.017578	-46.410000	22.120001	-12.740000	331.00	0.05	-0.11	0.00	0.00	0.00	0.00	0.00	0.00	0.25	0.00	0.00	0.00	0.00	0.00	0.00	0.00	0.00	0.00	-0.299805	1.681152	1.315430	43.049999	-644.210022	-225.190002	4.00	0.00	0.00
3.67	1.25	2.25	1.50	1.50	0.75	0.25	0.75	0.75	0.25	4.25	6.50	4.50	1.75	1.25	0.00	4.25	-0.248047	0.143066	0.979492	-36.119999	12.040000	-10.850000	313.00	0.09	-0.12	0.00	0.00	0.00	0.50	0.00	0.00	0.25	0.00	0.50	0.00	0.00	0.00	0.00	0.00	0.00	0.00	-0.533691	1.635254	1.434570	139.369995	-612.989990	-190.470001	16.00	0.00	0.00
3.68	0.75	0.75	1.00	1.25	0.75	0.25	0.75	0.75	0.25	4.50	7.00	5.00	2.25	2.00	0.25	4.25	-0.220703	0.107910	0.945801	-26.809999	10.430000	-7.910000	312.00	0.15	-0.12	0.00	0.00	0.00	0.00	0.00	0.00	0.25	0.00	0.25	0.00	0.00	0.00	0.00	0.00	0.00	0.00	-0.860352	1.536133	1.924316	238.770004	-579.530029	-148.259995	7.00	0.00	0.00
