# time	left pressure 1[N/cm²]	left pressure 2[N/cm²]	left pressure 3[N/cm²]	left pressure 4[N/cm²]	left pressure 5[N/cm²]	left pressure 6[N/cm²]	left pressure 7[N/cm²]	left pressure 8[N/cm²]	left pressure 9[N/cm²]	left pressure 10[N/cm²]	left pressure 11[N/cm²]	left pressure 12[N/cm²]	left pressure 13[N/cm²]	left pressure 14[N/cm²]	left pressure 15[N/cm²]	left pressure 16[N/cm²]	left acceleration X[g]	left acceleration Y[g]	left acceleration Z[g]	left angular X[dps]	left angular Y[dps]	left angular Z[dps]	left total force[N]	left center of pressure X[%]	left center of pressure Y[%]	right pressure 1[N/cm²]	right pressure 2[N/cm²]	right pressure 3[N/cm²]	right pressure 4[N/cm²]	right pressure 5[N/cm²]	right pressure 6[N/cm²]	right pressure 7[N/cm²]	right pressure 8[N/cm²]	right pressure 9[N/cm²]	right pressure 10[N/cm²]	right pressure 11[N/cm²]	right pressure 12[N/cm²]	right pressure 13[N/cm²]	right pressure 14[N/cm²]	right pressure 15[N/cm²]	right pressure 16[N/cm²]	right acceleration X[g]	right acceleration Y[g]	right acceleration Z[g]	right angular X[dps]	right angular Y[dps]	right angular Z[dps]	right total force[N]	right center of pressure X[%]	right center of pressure Y[%]	right steps[]	left steps[]
0.00																										1.75	2.00	2.75	2.75	5.25	6.25	0.75	2.25	0.75	0.50	1.25	1.25	1.75	1.25	0.75	1.50	-0.132324	0.069336	0.975098	-2.590000	-3.150000	2.660000	352.00	-0.07	-0.12		
0.01																										1.75	2.00	2.50	2.75	5.00	6.25	0.75	2.25	0.75	0.75	1.25	1.75	1.75	1.25	0.75	1.75	-0.139160	0.067383	0.969238	-2.520000	-3.150000	2.660000	356.00	-0.06	-0.12		
0.02	3.25	4.00	5.75	5.50	7.75	8.50	0.75	3.50	0.75	0.75	1.25	1.00	2.25	2.25	0.75	1.00	-0.203613	0.073730	0.941406	-1.610000	6.370000	-1.120000	530.00	-0.12	-0.11																											
0.03																										1.75	2.00	2.50	2.75	5.00	6.25	0.75	2.25	0.25	1.25	1.00	1.25	1.75	1.00	0.75	1.75	-0.133301	0.069824	0.969727	-2.660000	-3.290000	2.660000	344.00	-0.08	-0.13		
0.04	3.25	3.75	5.50	5.00	7.75	8.50	0.75	3.50	0.00	0.75	1.00	1.00	2.25	2.25	0.75	1.00	-0.203613	0.070801	0.944824	-1.680000	6.440000	-1.120000	507.00	-0.12	-0.12																											
0.05																										1.75	2.00	2.50	2.75	5.00	6.50	0.50	2.25	1.00	0.50	1.00	1.25	2.00	1.25	0.75	1.50	-0.133301	0.065918	0.971191	-2.590000	-3.430000	2.660000	348.00	-0.07	-0.12		
0.06	3.25	3.50	5.75	5.25	7.75	8.50	0.75	3.25	0.50	0.75	1.25	1.00	2.50	2.25	0.75	1.00	-0.203125	0.073730	0.945312	-1.680000	6.440000	-1.260000	518.00	-0.11	-0.11	1.75	2.25	2.75	2.75	5.25	6.50	0.75	2.25	0.50	0.50	1.00	1.25	2.00	1.25	0.75	1.75	-0.129395	0.068848	0.972656	-2.590000	-3.430000	2.590000	354.00	-0.08	-0.13		
0.07	3.25	3.75	6.00	5.00	7.75	8.50	0.75	3.50	0.50	0.75	1.25	1.00	2.25	2.25	1.00	1.25	-0.202637	0.071289	0.948242	-1.680000	6.510000	-1.190000	526.00	-0.11	-0.11	1.75	2.00	2.75	2.75	5.25	6.75	0.75	2.50	0.75	0.50	1.00	1.25	2.00	1.25	1.00	1.75	-0.132812	0.068359	0.971191	-2.520000	-3.500000	2.520000	365.00	-0.07	-0.13		
0.08	3.00	3.75	5.75	5.25	7.75	8.50	0.75	3.50	1.00	0.50	1.25	1.00	2.25	2.25	1.00	1.00	-0.202637	0.070801	0.947266	-1.540000	6.510000	-1.120000	526.00	-0.11	-0.11	1.75	2.00	2.75	3.25	5.25	6.75	0.75	2.50	0.75	0.50	1.25	1.25	2.00	1.25	0.75	1.75	-0.132324	0.071289	0.969727	-2.590000	-3.430000	2.590000	370.00	-0.08	-0.13		
0.09	3.00	3.75	5.75	5.25	7.75	8.75	0.75	3.50	0.50	0.75	1.25	0.75	2.25	2.75	1.00	1.00	-0.201660	0.073242	0.949219	-1.540000	6.370000	-1.120000	526.00	-0.11	-0.11	1.75	2.00	2.75	3.00	5.50	6.75	0.50	2.25	0.50	1.00	1.25	1.50	2.00	1.25	0.75	1.75	-0.132324	0.071289	0.969727	-2.590000	-3.430000	2.590000	367.00	-0.07	-0.13		
0.10	3.00	4.00	5.75	5.00	8.00	8.75	0.75	3.50	0.75	0.50	1.25	1.00	2.25	2.25	1.00	1.00	-0.203613	0.072266	0.954102	-1.540000	6.650000	-1.190000	528.00	-0.11	-0.11	1.75	2.00	2.75	2.75	5.50	6.50	0.75	2.50	0.50	0.75	1.25	1.25	1.75	1.25	1.00	1.75	-0.129395	0.071289	0.968750	-2.590000	-3.360000	2.660000	364.00	-0.07	-0.12		
0.11	3.25	3.25	6.00	5.00	7.75	8.50	0.75	3.50	0.75	0.75	1.25	1.00	2.25	2.50	0.75	1.00	-0.198242	0.071777	0.945801	-1.470000	6.790000	-1.260000	523.00	-0.11	-0.10	1.75	1.75	2.75	2.50	5.50	6.75	0.50	2.50	0.75	0.75	1.25	1.25	2.00	1.25	0.75	1.75	-0.127930	0.067871	0.970703	-2.520000	-3.150000	2.660000	361.00	-0.07	-0.13		
0.12	3.00	4.00	5.75	5.00	7.75	8.50	0.75	3.50	0.75	0.50	1.25	0.75	2.25	2.25	0.75	1.00	-0.208008	0.071777	0.952148	-1.540000	6.790000	-1.190000	517.00	-0.12	-0.11	2.00	2.25	2.75	2.75	5.75	7.00	0.75	2.50	0.50	0.75	1.00	1.25	2.00	1.25	0.75	1.75	-0.127441	0.062500	0.977051	-2.380000	-3.150000	2.590000	374.00	-0.08	-0.13		
0.13	3.00	3.50	6.00	5.25	7.75	8.75	0.75	3.50	0.25	0.50	1.25	0.50	2.25	2.25	0.75	1.00	-0.204102	0.070312	0.948242	-1.470000	6.440000	-1.050000	512.00	-0.12	-0.11	1.75	2.25	2.75	3.00	5.50	7.00	0.75	2.50	0.50	0.50	1.00	1.50	2.00	1.25	0.75	1.75	-0.129883	0.065918	0.976074	-2.380000	-3.080000	2.520000	372.00	-0.08	-0.13		
0.14	2.75	3.50	5.75	5.00	7.75	8.75	0.75	3.50	0.75	0.75	1.25	1.00	2.25	2.50	0.75	1.00	-0.205566	0.069824	0.952148	-1.400000	6.370000	-1.190000	520.00	-0.11	-0.11	1.75	2.25	2.75	3.25	5.50	6.75	0.50	2.25	0.50	0.75	1.00	1.50	2.00	1.25	0.75	1.75	-0.123535	0.070312	0.974609	-2.450000	-3.290000	2.520000	367.00	-0.08	-0.13		
0.15	2.75	3.50	6.00	5.00	7.75	8.50	0.75	3.50	0.75	0.75	1.25	1.00	2.50	2.25	0.75	1.00	-0.210938	0.071289	0.950684	-1.610000	6.160000	-1.120000	520.00	-0.11	-0.11	2.00	2.00	2.50	2.75	5.50	7.00	0.50	2.50	0.50	0.75	1.25	1.50	2.00	1.25	1.00	1.50	-0.128418	0.072266	0.976562	-2.520000	-3.150000	2.590000	369.00	-0.07	-0.13		
0.16	3.00	3.75	6.00	5.00	7.75	8.50	0.75	3.50	0.75	0.75	1.25	1.00	2.25	2.25	1.00	1.00	-0.207520	0.072266	0.950684	-1.610000	6.370000	-1.190000	525.00	-0.11	-0.11	2.00	2.25	2.75	2.75	5.50	7.25	0.75	2.50	0.50	0.75	1.25	1.25	2.00	1.25	0.75	1.75	-0.130859	0.067383	0.973633	-2.590000	-3.150000	2.520000	377.00	-0.08	-0.13		
0.17	3.00	3.75	6.00	5.00	7.75	8.75	0.75	3.50	0.75	0.75	1.00	1.00	2.00	2.25	1.00	1.00	-0.204102	0.071289	0.947754	-1.610000	6.510000	-1.330000	523.00	-0.11	-0.11	2.00	2.25	2.75	3.25	5.50	7.25	0.75	2.25	0.00	0.50	1.25	1.50	2.50	1.50	0.75	1.75	-0.129883	0.064453	0.976074	-2.520000	-3.150000	2.450000	379.00	-0.08	-0.14		
0.18	3.00	3.75	6.00	5.00	7.75	8.75	0.75	3.50	0.75	0.75	1.25	1.00	2.25	2.50	1.00	1.00	-0.200684	0.074707	0.954102	-1.540000	6.230000	-1.190000	530.00	-0.11	-0.11	2.00	2.25	2.75	2.75	5.75	7.25	0.75	2.50	0.75	0.50	1.00	1.50	2.00	1.25	0.75	1.75	-0.134277	0.063477	0.975098	-2.520000	-3.220000	2.660000	380.00	-0.08	-0.13		
0.19	3.00	3.50	6.00	5.00	7.75	9.00	0.75	3.50	0.50	0.75	1.25	0.75	2.25	2.25	1.00	1.00	-0.208008	0.070801	0.954102	-1.680000	6.090000	-1.050000	523.00	-0.11	-0.11	1.75	2.25	2.50	3.25	5.50	7.25	0.75	2.50	0.50	1.00	1.00	1.25	2.00	1.25	0.75	1.75	-0.125977	0.064453	0.978516	-2.520000	-3.150000	2.660000	377.00	-0.08	-0.13		
0.20	3.00	3.75	6.00	5.00	8.00	8.75	0.75	3.50	0.75	0.50	1.00	0.75	2.25	2.50	0.75	1.00	-0.201172	0.069336	0.955566	-1.610000	6.090000	-1.190000	523.00	-0.12	-0.11	1.75	2.25	2.75	3.00	5.50	7.00	0.75	2.75	0.50	0.50	1.25	1.50	2.00	1.25	0.75	1.75	-0.128418	0.071777	0.977539	-2.450000	-3.150000	2.660000	378.00	-0.08	-0.13		
0.21	2.75	3.75	6.00	5.00	8.00	8.75	0.75	3.50	0.75	0.75	1.00	0.75	2.25	2.75	0.75	1.00	-0.207031	0.076172	0.949219	-1.610000	6.160000	-1.260000	525.00	-0.11	-0.11	1.50	2.00	2.75	2.75	5.75	7.25	0.75	2.50	0.75	0.75	1.25	1.50	2.00	1.25	0.75	1.50	-0.129395	0.069336	0.975586	-2.450000	-3.010000	2.660000	377.00	-0.07	-0.13		
0.22	3.25	3.75	6.25	5.00	8.00	8.75	0.75	3.75	0.75	0.50	1.00	1.00	2.25	2.50	0.75	1.00	-0.202637	0.074219	0.950195	-1.610000	6.300000	-1.190000	534.00	-0.12	-0.11	2.00	2.25	2.50	3.00	5.75	7.25	0.75	2.50	0.50	0.75	1.25	1.50	2.00	1.25	0.75	1.75	-0.127930	0.069824	0.972656	-2.520000	-3.010000	2.520000	382.00	-0.08	-0.13		
0.23	3.00	3.75	6.00	5.00	7.75	9.00	0.75	3.75	0.75	0.75	1.25	1.00	2.25	2.25	0.50	1.00	-0.204102	0.070312	0.953125	-1.610000	6.160000	-1.190000	529.00	-0.12	-0.11	2.00	2.00	2.75	3.25	5.75	7.25	0.50	2.50	0.75	0.75	1.00	1.25	2.00	1.25	0.75	1.50	-0.129395	0.065430	0.976562	-2.590000	-3.080000	2.450000	378.00	-0.08	-0.13		
0.24	2.75	4.00	6.00	5.00	8.00	9.00	0.75	3.75	0.75	0.75	1.25	0.75	2.25	2.25	0.75	1.00	-0.203613	0.073242	0.947266	-1.610000	6.160000	-1.050000	532.00	-0.11	-0.11	2.00	2.00	2.75	2.75	5.75	7.25	0.50	2.25	0.75	0.75	1.25	1.50	2.00	1.25	1.00	1.75	-0.124512	0.071289	0.976074	-2.520000	-3.080000	2.520000	378.00	-0.07	-0.12		
0.25	3.00	3.50	6.00	5.00	8.00	9.00	0.75	3.75	0.25	0.50	1.25	0.75	2.25	2.25	0.75	1.00	-0.204102	0.069336	0.950684	-1.540000	6.230000	-1.190000	521.00	-0.12	-0.11	1.75	2.25	2.75	3.00	5.75	7.25	0.50	2.50	0.50	0.50	1.00	1.50	2.00	1.25	0.75	1.50	-0.127441	0.069824	0.982910	-2.590000	-3.220000	2.660000	372.00	-0.08	-0.13		
0.26	3.00	3.75	6.25	5.00	8.00	8.75	0.75	3.75	0.75	0.75	1.25	1.00	2.25	2.25	0.75	1.00	-0.200195	0.072266	0.952637	-1.470000	5.950000	-1.120000	535.00	-0.11	-0.11	1.75	2.00	2.75	2.50	5.75	7.25	0.75	2.75	0.50	0.75	1.00	1.50	2.00	1.25	0.75	1.75	-0.128906	0.065918	0.978516	-2.660000	-3.290000	2.590000	376.00	-0.07	-0.13		
0.27	3.00	3.50	6.25	5.00	8.00	9.00	0.75	3.75	0.75	0.50	1.25	1.00	2.25	2.25	0.75	1.00	-0.205566	0.066895	0.947266	-1.750000	6.650000	-1.330000	533.00	-0.11	-0.11	2.00	2.00	2.50	3.00	5.75	7.25	0.50	2.50	0.50	0.75	1.25	1.25	2.00	1.25	0.75	1.75	-0.125977	0.074707	0.973145	-2.590000	-3.290000	2.590000	374.00	-0.08	-0.13		
0.28	2.75	3.75	6.25	4.75	8.00	8.75	0.75	3.75	0.75	0.75	1.00	0.75	2.25	2.50	0.75	1.25	-0.201172	0.070801	0.950195	-1.750000	6.790000	-1.330000	528.00	-0.11	-0.11	2.00	1.75	2.50	3.00	5.75	7.50	0.75	2.50	0.50	0.75	1.25	1.50	2.00	1.00	0.75	1.75	-0.128418	0.073730	0.975586	-2.450000	-3.220000	2.590000	378.00	-0.08	-0.13		
0.29	3.00	3.25	6.00	5.00	8.00	8.75	0.75	3.75	0.50	0.75	1.00	0.75	2.00	2.50	0.75	1.00	-0.207031	0.072266	0.950195	-1.680000	6.300000	-1.260000	519.00	-0.11	-0.11	2.00	2.25	2.75	2.50	6.00	7.50	0.50	2.50	0.75	1.00	1.50	1.50	2.00	1.50	0.75	1.75	-0.131836	0.070801	0.977051	-2.520000	-3.220000	2.660000	392.00	-0.07	-0.12		
0.30	2.75	3.75	6.00	4.75	8.00	8.75	0.75	3.75	0.75	0.75	1.25	0.75	2.25	2.50	0.75	1.00	-0.211914	0.072266	0.949219	-1.470000	6.160000	-1.190000	526.00	-0.11	-0.11	1.75	2.00	2.75	2.75	5.75	7.25	0.75	2.50	0.75	1.00	1.25	1.50	2.25	1.25	0.75	1.75	-0.127441	0.067383	0.979492	-2.450000	-3.290000	2.590000	386.00	-0.07	-0.13		
0.31	2.75	3.75	6.25	4.75	8.00	8.75	0.75	3.50	0.75	0.75	1.25	1.00	2.25	2.25	0.75	1.00	-0.207031	0.066406	0.953125	-1.400000	6.160000	-1.120000	526.00	-0.11	-0.11	1.75	2.00	2.50	3.00	6.00	7.25	0.50	2.25	0.75	0.75	1.25	1.75	2.25	1.00	0.75	1.75	-0.129395	0.064941	0.977539	-2.520000	-3.290000	2.590000	379.00	-0.07	-0.13		
0.32	2.75	3.50	6.00	5.00	8.00	8.75	0.75	3.75	0.75	0.50	1.25	1.00	2.25	2.50	0.75	1.00	-0.206055	0.075684	0.948730	-1.400000	6.020000	-1.260000	527.00	-0.11	-0.11	1.75	2.00	2.50	2.75	5.75	7.50	0.75	2.50	0.50	0.75	1.25	1.50	2.00	1.25	1.00	1.75	-0.125000	0.073242	0.982422	-2.520000	-3.430000	2.520000	380.00	-0.07	-0.13		
0.33	3.00	3.50	6.00	5.00	8.00	8.75	0.75	4.00	0.75	0.75	1.25	1.00	2.25	2.25	0.75	1.00	-0.204102	0.077148	0.954102	-1.470000	5.880000	-1.260000	534.00	-0.11	-0.11	2.00	2.50	2.50	2.75	6.00	7.50	0.75	2.50	0.75	0.75	1.50	1.50	2.25	1.50	1.00	1.75	-0.131348	0.068848	0.972656	-2.590000	-3.430000	2.520000	400.00	-0.07	-0.13		
0.34	3.00	3.75	6.00	4.75	8.00	8.75	0.75	3.75	0.75	0.75	1.25	1.00	2.50	2.50	0.75	1.25	-0.208008	0.076660	0.944824	-1.470000	5.880000	-1.260000	535.00	-0.11	-0.11	1.75	2.25	2.75	2.75	6.00	7.50	0.75	2.50	0.50	0.75	1.00	1.50	2.00	1.50	0.75	1.75	-0.129883	0.068848	0.976562	-2.450000	-3.430000	2.520000	385.00	-0.08	-0.13		
0.35	2.75	3.50	6.00	4.75	8.00	8.75	0.75	3.75	0.75	0.75	1.25	0.75	2.25	2.25	0.75	1.00	-0.203613	0.074219	0.957520	-1.540000	5.880000	-1.190000	522.00	-0.11	-0.11	1.75	2.00	2.50	2.50	6.00	7.50	0.75	2.50	0.50	1.00	1.25	1.50	2.25	1.25	0.75	1.75	-0.125000	0.071289	0.973145	-2.450000	-3.500000	2.450000	382.00	-0.07	-0.13		
0.36	2.75	3.25	6.25	4.75	7.75	8.75	0.75	4.00	0.75	0.75	1.25	1.25	2.25	2.50	0.75	1.00	-0.202148	0.074219	0.946777	-1.470000	5.810000	-1.120000	531.00	-0.10	-0.11	1.75	2.25	2.50	2.75	6.00	7.50	0.75	2.50	0.75	0.75	1.50	1.50	2.25	1.50	1.00	1.75	-0.121582	0.064941	0.974121	-2.520000	-3.570000	2.520000	395.00	-0.06	-0.13		
0.37	2.50	3.25	6.00	4.75	8.00	8.50	0.75	4.00	0.75	0.75	1.25	1.00	2.25	2.50	0.75	1.00	-0.204590	0.070312	0.948242	-1.470000	5.810000	-1.120000	523.00	-0.10	-0.11	2.00	2.00	2.50	2.50	6.00	7.50	0.75	2.50	0.75	0.75	1.25	1.75	2.25	1.25	0.75	1.75	-0.128906	0.072754	0.975098	-2.450000	-3.500000	2.450000	388.00	-0.07	-0.13		
0.38	2.75	3.75	6.25	4.75	7.75	8.75	0.75	4.00	0.50	0.75	1.25	1.25	2.25	2.50	0.75	1.00	-0.206543	0.074219	0.954102	-1.400000	5.880000	-1.120000	532.00	-0.11	-0.11	1.75	2.00	2.75	2.75	6.00	7.50	0.75	2.75	0.50	0.75	1.25	1.75	2.00	1.25	1.00	2.00	-0.128906	0.066406	0.975586	-2.380000	-3.360000	2.520000	393.00	-0.07	-0.13		
0.39	2.75	3.50	6.00	4.50	8.00	8.75	0.75	4.00	0.75	0.75	1.25	1.00	2.50	2.75	1.00	1.25	-0.203125	0.069824	0.949707	-1.470000	5.950000	-1.260000	536.00	-0.10	-0.11	1.75	1.75	2.50	3.00	6.00	7.50	0.75	2.75	0.75	1.00	1.50	1.50	2.25	1.25	1.00	1.75	-0.125000	0.069824	0.976074	-2.450000	-3.430000	2.450000	398.00	-0.06	-0.13		
0.40	2.75	3.75	6.00	4.50	8.00	8.75	0.75	3.75	0.75	0.75	1.25	1.00	2.25	2.50	0.75	1.25	-0.199707	0.069824	0.949707	-1.540000	5.810000	-1.190000	527.00	-0.11	-0.11	1.75	2.00	2.75	2.75	5.75	7.25	0.50	2.75	0.50	1.00	1.50	1.50	2.25	1.25	0.75	1.75	-0.126465	0.066895	0.974121	-2.450000	-3.290000	2.380000	385.00	-0.07	-0.14		
0.41	2.75	3.75	5.75	4.50	8.00	8.75	0.75	4.00	0.50	0.75	1.25	1.25	2.50	2.25	1.00	1.00	-0.203613	0.071777	0.958008	-1.470000	5.880000	-1.120000	529.00	-0.10	-0.12	1.50	2.25	2.50	2.75	6.00	7.50	0.50	2.50	0.50	0.75	1.50	1.50	2.00	1.25	0.75	1.75	-0.130859	0.066895	0.972656	-2.380000	-3.360000	2.450000	379.00	-0.07	-0.14		
0.42	2.75	3.25	5.75	4.50	8.00	8.75	0.75	4.00	0.50	0.75	1.25	1.00	2.50	2.25	0.75	1.00	-0.202637	0.071777	0.950684	-1.400000	6.090000	-1.120000	519.00	-0.11	-0.12	1.75	2.00	2.75	2.50	6.25	7.50	0.75	2.75	0.50	0.75	1.50	1.50	2.50	1.25	0.75	1.75	-0.126465	0.065918	0.979980	-2.170000	-3.430000	2.520000	394.00	-0.07	-0.13		
0.43	2.75	3.75	5.75	4.50	7.75	8.75	0.75	4.00	1.00	0.75	1.25	1.00	2.25	2.50	0.75	1.00	-0.202637	0.070801	0.951172	-1.190000	6.020000	-1.120000	528.00	-0.10	-0.11	1.75	2.00	2.50	2.75	6.00	7.50	0.50	2.50	0.50	0.75	1.50	1.75	2.25	1.25	1.00	1.75	-0.127930	0.070801	0.976562	-2.170000	-3.290000	2.520000	386.00	-0.07	-0.14		
0.44	2.50	3.50	5.75	4.50	7.75	8.75	0.75	4.00	0.75	0.75	1.50	1.00	2.25	2.50	1.00	1.00	-0.202148	0.075195	0.946289	-1.330000	6.160000	-1.120000	525.00	-0.10	-0.11	1.75	1.75	2.50	2.75	6.00	7.50	0.75	2.75	0.50	0.75	1.50	1.50	2.25	1.50	1.00	2.00	-0.132812	0.068848	0.974609	-2.240000	-3.360000	2.590000	393.00	-0.06	-0.13		
0.45	2.50	3.50	5.75	4.25	7.75	8.75	0.75	4.00	0.75	0.75	1.00	1.00	2.25	2.50	1.00	1.00	-0.199707	0.071777	0.957520	-1.400000	6.300000	-1.260000	517.00	-0.10	-0.11	1.50	1.75	2.50	2.75	6.00	7.50	0.75	2.75	0.75	0.75	1.25	1.50	2.25	1.25	1.00	1.75	-0.129883	0.069824	0.976562	-2.240000	-3.430000	2.450000	387.00	-0.06	-0.13		
0.46	2.50	3.25	5.75	4.50	7.75	8.75	0.75	4.00	0.50	0.75	1.25	1.25	2.25	2.50	1.00	1.00	-0.199219	0.074219	0.950684	-1.330000	6.370000	-1.190000	519.00	-0.10	-0.12	1.75	2.00	2.50	2.75	6.00	7.50	0.75	2.75	0.75	1.00	1.50	1.50	2.50	1.25	0.75	2.00	-0.125977	0.066406	0.978516	-2.240000	-3.360000	2.520000	398.00	-0.06	-0.13		
0.47	2.50	3.50	5.75	4.50	7.75	8.50	0.75	4.00	0.75	0.75	1.25	1.25	2.50	2.50	1.00	1.00	-0.205078	0.075195	0.954590	-1.400000	5.950000	-1.050000	524.00	-0.10	-0.11	1.50	2.00	2.50	2.75	6.00	7.50	0.75	2.50	0.50	1.00	1.75	1.75	2.50	1.25	1.00	2.00	-0.127441	0.071777	0.976562	-2.170000	-3.360000	2.520000	396.00	-0.06	-0.14		
0.48	2.50	3.50	5.50	4.50	8.00	8.75	0.75	3.75	1.00	0.75	1.50	1.00	2.50	2.25	0.75	1.00	-0.205078	0.071289	0.948242	-1.470000	5.950000	-1.260000	522.00	-0.10	-0.11	1.50	2.75	2.50	2.75	6.00	7.75	0.50	2.75	0.75	1.00	1.75	1.50	2.50	1.25	1.00	2.00	-0.128418	0.064453	0.973145	-2.240000	-3.290000	2.450000	407.00	-0.06	-0.14		
0.49	2.50	3.25	5.50	4.25	7.75	8.50	0.75	3.75	0.75	1.00	1.25	1.25	2.25	2.50	1.00	1.00	-0.201172	0.072266	0.947266	-1.540000	6.230000	-1.260000	513.00	-0.09	-0.11	1.50	1.75	2.50	2.75	6.00	7.75	0.75	3.00	1.00	1.00	1.50	1.75	2.75	1.25	1.00	2.00	-0.128418	0.064453	0.973145	-2.240000	-3.290000	2.450000	410.00	-0.05	-0.14		
0.50	2.50	3.25	5.50	4.25	7.75	9.00	0.75	4.00	1.00	0.75	1.50	1.00	2.25	2.00	0.75	1.00	-0.200195	0.066895	0.954102	-1.610000	6.160000	-1.260000	516.00	-0.10	-0.11	1.50	2.00	2.50	2.50	6.00	7.75	0.75	3.00	0.75	1.00	1.50	2.00	2.25	1.25	1.00	1.75	-0.128906	0.068848	0.977539	-2.170000	-3.360000	2.520000	404.00	-0.05	-0.14		
0.51	2.50	3.25	5.50	4.25	7.75	8.75	0.75	4.00	1.00	1.00	1.25	1.00	2.50	2.25	1.00	1.00	-0.210449	0.069824	0.956543	-1.680000	5.880000	-1.120000	520.00	-0.09	-0.11	1.75	1.75	2.25	2.75	6.00	7.50	0.75	2.75	0.75	1.00	1.50	1.75	2.50	1.50	1.00	1.75	-0.126465	0.068359	0.968750	-2.380000	-3.430000	2.450000	399.00	-0.05	-0.13		
0.52	2.50	3.00	5.50	4.50	7.75	8.75	0.75	3.75	0.75	1.00	1.50	1.25	2.50	2.50	0.75	1.00	-0.205566	0.070312	0.949219	-1.610000	6.020000	-1.050000	518.00	-0.09	-0.11	1.50	2.00	2.25	2.25	6.00	7.50	0.75	2.75	1.00	0.75	1.50	1.75	2.75	1.25	1.00	1.75	-0.125488	0.076172	0.970215	-2.380000	-3.500000	2.380000	394.00	-0.05	-0.13		
0.53	2.50	3.25	5.50	4.00	7.75	8.75	0.75	3.75	1.00	0.75	1.25	1.00	2.50	2.25	1.00	1.00	-0.204102	0.073730	0.948242	-1.610000	5.950000	-1.190000	511.00	-0.09	-0.11	1.50	2.00	2.00	2.75	6.00	7.50	0.50	3.00	0.50	1.00	1.75	1.75	2.50	1.50	0.75	2.00	-0.125000	0.074219	0.977539	-2.380000	-3.500000	2.520000	394.00	-0.05	-0.15		
0.54	2.50	3.25	5.25	4.25	7.75	8.75	0.75	4.00	1.00	0.75	1.50	1.00	2.50	2.50	0.75	1.00	-0.203613	0.072266	0.950684	-1.610000	6.020000	-1.190000	517.00	-0.09	-0.11	1.50	2.00	2.25	2.25	6.00	7.50	0.75	3.00	0.75	1.00	1.50	2.00	2.50	1.50	0.75	1.75	-0.124512	0.061523	0.972168	-2.310000	-3.360000	2.660000	397.00	-0.05	-0.14		
0.55	2.75	3.25	5.50	4.25	7.75	8.75	0.75	3.75	1.00	0.75	1.25	1.25	2.50	2.50	0.75	1.00	-0.203613	0.070312	0.948730	-1.610000	6.300000	-1.190000	519.00	-0.10	-0.11	1.50	2.00	2.25	2.75	6.00	7.75	0.75	3.00	0.75	1.25	1.75	1.75	2.75	1.25	1.00	2.00	-0.128906	0.070312	0.979492	-2.310000	-3.430000	2.590000	412.00	-0.05	-0.14		
0.56	2.50	3.25	5.50	4.25	7.75	8.50	0.75	4.00	1.25	1.00	1.50	1.00	2.50	2.50	1.00	1.00	-0.209473	0.069824	0.959473	-1.540000	6.300000	-1.190000	526.00	-0.09	-0.11	1.75	2.00	2.25	2.50	6.00	7.75	0.75	2.75	0.75	0.75	1.75	2.00	2.75	1.50	0.75	2.00	-0.122559	0.069824	0.976074	-2.380000	-3.500000	2.660000	405.00	-0.05	-0.14		
0.57	2.50	3.25	5.50	4.25	7.75	8.50	0.75	4.00	0.75	1.00	1.50	1.25	2.50	2.50	0.75	1.00	-0.205078	0.074219	0.953613	-1.540000	6.230000	-1.120000	519.00	-0.09	-0.11	1.50	2.00	2.25	2.50	6.00	7.75	0.75	3.00	1.00	1.00	1.75	2.00	2.75	1.25	1.00	1.75	-0.121582	0.067871	0.975586	-2.310000	-3.570000	2.730000	411.00	-0.05	-0.14		
0.58	2.25	3.00	5.50	4.00	7.50	8.75	0.75	4.00	1.00	0.50	1.50	1.25	2.50	2.50	1.00	1.00	-0.203613	0.067871	0.947754	-1.540000	6.230000	-1.260000	512.00	-0.09	-0.12	1.50	2.00	2.25	2.25	6.00	7.75	0.50	3.00	0.75	1.25	1.75	1.75	2.75	1.50	1.00	2.00	-0.127930	0.073242	0.979980	-2.240000	-3.570000	2.520000	405.00	-0.04	-0.14		
0.59	2.50	3.25	5.25	4.25	7.75	8.50	0.75	3.75	1.00	1.00	1.50	1.00	2.50	2.50	0.75	1.25	-0.205078	0.072266	0.956543	-1.540000	6.370000	-1.330000	514.00	-0.09	-0.11	1.50	1.75	2.00	2.25	6.00	8.00	0.50	2.75	1.00	1.00	1.75	2.00	3.00	1.50	1.00	2.00	-0.121094	0.070801	0.972168	-2.240000	-3.500000	2.450000	404.00	-0.04	-0.14		
0.60	2.50	3.25	5.25	3.75	7.75	8.50	0.75	3.75	1.00	1.00	1.50	1.00	2.50	2.75	0.75	1.00	-0.203125	0.073730	0.961426	-1.610000	6.510000	-1.260000	510.00	-0.09	-0.11	1.75	1.75	2.00	2.25	6.00	7.75	0.75	3.00	1.00	1.00	2.00	1.75	3.00	1.50	1.00	2.00	-0.124512	0.069824	0.970703	-2.240000	-3.500000	2.380000	412.00	-0.04	-0.14		
0.61	2.50	3.00	5.25	3.75	7.75	8.50	0.75	3.75	1.25	1.00	1.50	1.00	2.50	2.75	0.75	1.00	-0.204590	0.074707	0.946777	-1.610000	6.370000	-1.190000	511.00	-0.08	-0.10	1.50	1.75	2.25	2.75	6.00	8.00	0.75	3.00	0.75	1.00	1.75	2.00	2.75	1.50	1.25	2.00	-0.124512	0.063965	0.980957	-2.310000	-3.640000	2.520000	417.00	-0.04	-0.14		
0.62	2.50	3.00	5.25	3.75	7.75	8.50	0.75	4.00	0.75	1.00	1.50	1.25	2.50	2.50	1.00	1.25	-0.201660	0.075684	0.950684	-1.680000	5.950000	-1.120000	512.00	-0.08	-0.11	1.50	2.00	2.00	2.25	6.00	7.75	0.50	3.25	0.75	1.00	1.75	2.00	3.00	1.25	1.00	2.00	-0.130371	0.070312	0.977539	-2.240000	-3.570000	2.590000	406.00	-0.04	-0.15		
0.63	2.50	3.00	5.25	4.00	7.75	8.50	0.75	3.75	1.00	0.75	1.25	1.25	2.50	2.50	0.75	1.00	-0.200195	0.072266	0.951172	-1.820000	6.090000	-1.260000	505.00	-0.09	-0.11	1.50	1.50	2.25	2.50	6.00	7.75	0.50	3.00	1.00	1.00	1.75	2.00	3.00	1.50	0.75	2.00	-0.122559	0.070801	0.969238	-2.100000	-3.430000	2.660000	406.00	-0.04	-0.14		
0.64	2.50	3.25	5.25	4.00	7.75	8.25	0.75	3.75	0.75	1.00	1.50	1.00	2.50	2.50	1.00	1.25	-0.198730	0.071777	0.951172	-1.820000	6.160000	-1.260000	508.00	-0.09	-0.11	1.50	2.00	2.00	2.25	6.00	8.00	0.75	3.25	0.75	1.00	1.75	2.00	3.25	1.50	1.00	2.00	-0.121582	0.067871	0.980469	-2.170000	-3.430000	2.660000	417.00	-0.04	-0.15		
0.65	2.50	3.00	5.25	3.75	7.50	8.50	0.75	3.75	0.75	0.75	1.25	1.25	2.25	2.75	0.75	1.25	-0.206055	0.072754	0.948730	-1.820000	6.230000	-1.190000	498.00	-0.09	-0.11	1.50	1.75	2.50	2.50	6.00	8.00	0.75	3.00	1.00	1.00	2.00	2.00	3.00	1.50	0.75	2.00	-0.127930	0.068359	0.979980	-2.310000	-3.430000	2.520000	420.00	-0.04	-0.14		
0.66	2.50	3.00	5.00	4.00	7.50	8.50	0.75	3.75	0.75	0.75	1.25	1.25	2.50	2.75	0.75	1.00	-0.207520	0.076172	0.953125	-1.820000	6.300000	-1.260000	499.00	-0.09	-0.11	1.75	1.75	2.50	2.50	5.75	8.00	0.75	3.25	0.75	1.25	2.25	2.25	3.00	1.50	1.00	2.25	-0.130859	0.071289	0.981445	-2.310000	-3.430000	2.590000	432.00	-0.04	-0.14		
0.67	2.25	3.00	5.00	3.75	7.75	8.50	0.75	3.75	0.75	0.75	1.50	1.00	2.25	2.75	1.00	1.25	-0.204590	0.071777	0.950684	-1.820000	6.160000	-1.330000	498.00	-0.08	-0.11	1.50	2.00	2.25	2.25	5.75	8.00	0.50	3.25	1.00	1.50	1.75	2.25	3.00	1.75	1.00	2.00	-0.125488	0.070801	0.979980	-2.310000	-3.430000	2.590000	424.00	-0.03	-0.14		
0.68	2.25	3.25	5.00	3.75	7.50	8.25	0.75	4.00	1.00	0.75	1.50	1.00	2.50	2.50	1.00	1.00	-0.205078	0.073730	0.954102	-1.820000	6.160000	-1.190000	501.00	-0.09	-0.11	1.50	1.75	2.00	2.25	6.00	8.00	0.75	3.00	0.75	1.25	2.00	2.25	3.00	1.50	1.00	2.00	-0.129395	0.066895	0.978516	-2.380000	-3.290000	2.520000	416.00	-0.03	-0.14		
0.69	2.50	3.00	5.25	3.50	7.50	8.50	0.75	3.75	1.00	1.00	1.50	1.25	2.50	2.75	1.00	1.00	-0.206543	0.072754	0.956055	-1.680000	6.160000	-1.120000	507.00	-0.08	-0.11	1.50	2.00	2.00	2.25	6.00	8.25	0.75	3.25	1.00	1.50	2.00	2.25	3.00	1.50	1.00	2.25	-0.123535	0.073730	0.980469	-2.450000	-3.220000	2.450000	432.00	-0.03	-0.14		
0.70	2.25	3.00	5.00	3.75	7.75	8.25	0.75	3.75	0.75	0.75	1.50	1.00	2.25	2.75	0.75	1.25	-0.199707	0.073242	0.947266	-1.610000	6.230000	-1.190000	493.00	-0.09	-0.11	1.50	1.75	2.00	2.00	6.00	8.00	0.75	3.25	1.00	1.25	2.00	2.25	3.00	1.50	0.75	2.25	-0.123535	0.068359	0.978516	-2.450000	-3.150000	2.520000	419.00	-0.03	-0.14		
0.71	2.25	2.75	5.00	3.25	7.50	8.25	0.75	4.00	1.00	0.75	1.50	1.00	2.50	2.50	1.00	1.25	-0.200195	0.072266	0.950195	-1.610000	6.160000	-1.190000	492.00	-0.08	-0.11	1.50	2.00	2.00	2.25	5.75	8.25	0.75	3.50	1.00	1.25	2.00	2.25	3.00	1.50	1.00	2.00	-0.127441	0.071289	0.975586	-2.380000	-3.220000	2.520000	429.00	-0.03	-0.15		
0.72	2.50	2.75	5.00	3.50	7.50	8.25	0.75	3.75	1.00	1.00	1.50	1.25	2.50	2.75	1.00	1.00	-0.202637	0.071777	0.955566	-1.610000	6.090000	-1.120000	499.00	-0.08	-0.11	1.50	1.75	2.25	2.50	5.75	8.00	0.75	3.25	1.00	1.25	2.00	2.25	3.00	1.50	1.25	2.00	-0.126953	0.069336	0.985352	-2.380000	-3.080000	2.590000	429.00	-0.03	-0.14		
0.73	2.25	3.25	5.00	3.50	7.75	8.25	0.75	4.00	1.00	0.75	1.50	1.25	2.50	2.50	0.75	1.25	-0.208984	0.073730	0.948730	-1.680000	6.020000	-1.260000	502.00	-0.08	-0.11	1.50	1.50	2.25	2.50	5.75	8.25	0.75	3.25	1.00	1.25	2.25	2.25	3.00	1.50	1.00	2.25	-0.144043	0.072754	0.961914	-2.520000	-2.870000	2.520000	431.00	-0.03	-0.14		
0.74	2.50	3.00	5.00	3.50	7.75	8.25	0.75	4.00	1.25	1.00	1.50	1.00	2.25	2.75	0.75	1.00	-0.204590	0.070801	0.957031	-1.750000	5.880000	-1.260000	504.00	-0.08	-0.10	1.50	1.75	2.00	2.25	5.75	8.00	0.50	3.50	0.75	1.25	2.00	2.00	3.00	1.50	1.00	2.00	-0.121582	0.067383	1.018066	-2.730000	-2.800000	2.520000	415.00	-0.04	-0.15		
0.75	2.50	3.00	5.00	3.50	7.50	8.25	0.75	4.00	1.25	0.75	1.25	1.25	2.50	2.50	0.75	1.00	-0.211914	0.073242	0.963379	-1.470000	6.090000	-1.190000	499.00	-0.08	-0.11	1.50	1.75	1.75	2.50	5.75	8.00	0.75	3.25	1.00	1.00	2.25	2.25	3.00	1.50	1.00	2.00	-0.126465	0.070801	0.961914	-2.520000	-2.660000	2.590000	421.00	-0.03	-0.15		
0.76	2.25	3.00	5.00	3.75	7.50	8.25	0.75	4.00	1.25	1.00	1.50	1.00	2.50	2.75	0.75	1.25	-0.203613	0.072266	0.923340	-1.470000	6.230000	-1.190000	505.00	-0.08	-0.11	1.50	0.75	2.00	2.00	5.75	8.00	0.50	3.25	1.00	1.25	2.25	2.50	3.25	1.50	1.00	2.25	-0.125000	0.068848	0.975586	-2.450000	-2.730000	2.520000	414.00	-0.02	-0.15		
0.77	2.25	2.75	5.00	3.50	7.75	8.25	0.75	4.00	1.00	1.00	1.50	1.00	2.50	2.75	0.75	1.25	-0.205566	0.076660	0.960449	-1.610000	6.090000	-1.190000	499.00	-0.08	-0.11	1.50	1.75	2.00	2.50	5.75	8.00	0.75	3.50	1.25	1.25	2.00	2.50	3.00	1.50	1.00	2.25	-0.125000	0.070312	0.979004	-2.450000	-2.730000	2.590000	434.00	-0.03	-0.14		
0.78	2.50	3.00	5.00	3.50	7.75	8.25	0.75	4.00	1.25	1.00	1.50	1.00	2.50	2.75	0.75	1.00	-0.206543	0.073242	0.956055	-1.610000	5.880000	-1.190000	506.00	-0.08	-0.11	1.50	1.75	2.00	2.50	5.75	8.00	0.75	3.25	1.00	1.25	2.25	2.25	3.25	1.50	0.75	2.00	-0.124512	0.070312	0.970703	-2.520000	-2.940000	2.520000	426.00	-0.03	-0.15		
0.79	2.25	3.00	5.00	3.50	7.75	8.25	0.75	4.00	1.25	1.00	1.50	1.25	2.25	2.25	0.75	1.00	-0.202148	0.071777	0.960449	-1.540000	5.880000	-1.120000	500.00	-0.08	-0.11	1.25	1.75	2.00	2.25	5.50	8.00	0.75	3.50	1.00	1.25	2.00	2.25	3.25	1.50	1.00	2.25	-0.125000	0.068359	0.974121	-2.660000	-3.010000	2.590000	423.00	-0.03	-0.15		
0.80	2.00	3.00	4.75	3.50	7.75	8.25	0.75	3.75	1.25	1.00	1.75	1.25	2.50	2.50	0.75	1.25	-0.205566	0.073730	0.954102	-1.610000	6.090000	-1.120000	499.00	-0.07	-0.11	1.50	1.75	2.00	2.00	5.50	8.00	0.75	3.00	0.75	1.00	2.25	2.25	3.25	1.50	1.00	2.25	-0.128906	0.070801	0.977051	-2.660000	-3.010000	2.590000	412.00	-0.03	-0.15		
0.81	2.25	2.75	5.00	3.50	7.75	8.50	0.75	4.00	1.25	0.75	1.50	1.25	2.75	2.75	1.00	1.00	-0.206055	0.074219	0.949707	-1.540000	6.230000	-1.120000	509.00	-0.07	-0.11	1.50	1.50	2.00	2.00	5.50	8.00	0.50	3.25	1.00	1.25	2.25	2.25	3.25	1.50	1.00	2.00	-0.131348	0.071289	0.974609	-2.660000	-3.150000	2.520000	414.00	-0.02	-0.15		
0.82	2.25	3.00	5.00	3.75	7.75	8.25	0.75	4.00	1.25	0.75	1.50	1.00	2.25	2.75	1.00	1.25	-0.199219	0.068359	0.957031	-1.610000	6.510000	-1.190000	506.00	-0.08	-0.11	1.75	1.75	2.00	2.25	5.75	8.00	0.50	3.25	0.75	1.25	2.00	2.25	3.25	1.50	1.00	2.00	-0.126465	0.066406	0.973633	-2.730000	-3.080000	2.520000	418.00	-0.03	-0.15		
0.83	2.25	3.00	5.00	3.50	7.75	8.25	0.75	4.25	1.25	0.75	1.50	1.25	2.25	2.75	1.00	1.00	-0.202637	0.067383	0.959961	-1.540000	6.720000	-1.260000	508.00	-0.08	-0.11	1.50	1.50	2.00	2.25	5.50	8.00	0.75	3.50	1.00	1.25	2.25	2.25	3.25	1.50	1.00	2.00	-0.119141	0.077148	0.971680	-2.590000	-3.080000	2.730000	424.00	-0.02	-0.15		
0.84	2.25	3.25	4.75	3.25	7.75	8.50	0.75	4.00	1.25	1.00	1.50	1.00	2.50	2.75	0.75	1.25	-0.204102	0.073730	0.953125	-1.540000	6.720000	-1.190000	504.00	-0.08	-0.11	1.50	2.25	2.00	2.00	5.75	8.25	0.75	3.25	1.00	1.25	2.25	2.50	3.25	1.50	1.00	2.25	-0.123535	0.073242	0.970215	-2.520000	-3.220000	2.730000	434.00	-0.03	-0.15		
0.85	2.25	2.75	5.00	3.00	7.75	8.25	0.75	4.00	1.25	1.00	1.50	1.00	2.50	2.75	0.75	1.00	-0.206055	0.074219	0.950684	-1.680000	6.860000	-1.260000	496.00	-0.08	-0.11	1.25	1.75	2.00	2.00	5.75	8.00	0.75	3.25	1.00	1.25	2.50	2.25	3.00	1.50	1.00	2.00	-0.119629	0.072266	0.975098	-2.380000	-3.710000	2.800000	421.00	-0.02	-0.14		
0.86	2.25	3.00	4.75	3.50	7.50	8.25	0.75	4.00	1.00	0.75	1.50	1.25	2.50	2.50	0.75	1.25	-0.202148	0.078125	0.951172	-1.680000	7.140000	-1.120000	494.00	-0.08	-0.12	1.50	1.75	2.00	2.00	5.75	8.50	0.50	3.50	1.00	1.00	2.25	2.50	3.25	1.50	1.00	2.25	-0.124512	0.071777	0.969238	-2.100000	-3.920000	3.010000	430.00	-0.03	-0.15		
0.87	2.50	2.50	4.75	3.50	7.50	8.00	0.75	3.75	1.25	0.75	1.50	1.25	2.50	2.50	1.00	1.25	-0.199219	0.072754	0.958008	-1.680000	7.280000	-1.050000	491.00	-0.08	-0.11	1.75	2.00	2.00	2.25	5.75	8.50	0.75	3.75	0.75	1.00	2.25	2.50	3.50	1.50	1.00	2.25	-0.122559	0.068359	0.973633	-1.820000	-4.200000	2.940000	444.00	-0.03	-0.16		
0.88	2.25	3.00	4.75	3.00	7.50	8.25	0.75	3.75	1.00	0.75	1.25	1.25	2.25	2.75	0.75	1.25	-0.208008	0.067871	0.957031	-1.750000	7.840000	-1.120000	482.00	-0.08	-0.11	1.50	2.00	2.25	2.50	5.75	8.50	0.75	3.75	0.75	1.00	2.25	2.50	3.50	1.25	1.00	2.00	-0.124512	0.074219	0.970703	-1.610000	-4.760000	3.080000	443.00	-0.04	-0.16		
0.89	2.00	3.00	4.75	3.25	7.50	8.00	0.75	3.75	1.25	0.75	1.50	1.00	2.25	2.75	0.75	1.25	-0.206543	0.072754	0.958984	-1.750000	8.610000	-1.120000	483.00	-0.08	-0.11	1.75	2.00	2.00	2.75	6.00	9.00	0.50	4.50	1.00	1.00	2.00	2.50	3.50	1.50	1.00	2.25	-0.121094	0.072754	0.977051	-1.260000	-5.320000	3.220000	466.00	-0.04	-0.16		
0.90	2.00	3.00	4.50	3.25	7.25	7.75	0.75	3.50	1.00	1.00	1.50	1.00	2.25	2.75	1.00	1.00	-0.203125	0.068359	0.955078	-2.030000	9.380000	-1.190000	471.00	-0.07	-0.11	1.75	1.75	2.25	3.00	6.25	9.25	0.75	4.50	0.75	1.25	2.00	2.50	3.75	1.25	1.00	2.25	-0.122070	0.071289	0.977051	-1.050000	-5.880000	3.290000	477.00	-0.04	-0.16		
0.91	2.00	3.00	4.50	3.25	7.25	7.75	0.75	3.50	1.00	0.75	1.50	1.00	2.25	2.50	0.75	1.00	-0.203613	0.070312	0.957031	-2.310000	9.870000	-1.050000	464.00	-0.08	-0.11	1.75	2.25	2.50	2.75	6.50	9.50	0.75	5.00	0.75	1.00	2.00	2.50	3.75	1.25	0.75	2.00	-0.122559	0.078125	0.979004	-0.700000	-6.020000	3.570000	489.00	-0.05	-0.17		
0.92	2.00	3.00	4.25	3.00	7.00	7.50	0.75	3.25	1.25	0.75	1.50	1.00	2.00	2.75	0.75	1.00	-0.202637	0.065430	0.946289	-2.100000	9.870000	-1.050000	452.00	-0.08	-0.10	1.75	2.00	2.75	3.25	6.50	10.00	0.75	5.25	0.50	1.00	2.25	2.50	4.00	1.25	1.00	2.00	-0.129883	0.081055	0.976074	-0.770000	-5.390000	3.710000	508.00	-0.05	-0.17		
0.93	2.00	2.75	4.25	2.75	7.00	7.25	0.75	3.25	1.00	1.00	1.25	1.00	2.25	2.75	0.75	1.00	-0.208496	0.065430	0.951660	-1.680000	9.590000	-1.120000	444.00	-0.07	-0.10	1.75	2.25	2.75	3.75	6.75	10.50	0.75	5.50	0.75	1.00	1.75	2.50	4.00	1.25	0.75	2.00	-0.119141	0.067871	0.977051	-0.420000	-4.480000	3.850000	523.00	-0.06	-0.17		
0.94	2.00	3.00	4.00	3.00	6.75	7.25	0.75	3.25	1.25	0.75	1.50	0.75	1.75	2.75	0.75	0.75	-0.209961	0.077148	0.952637	-1.470000	9.380000	-1.120000	438.00	-0.08	-0.10	2.00	2.50	2.50	3.75	6.75	10.75	0.50	5.75	0.50	0.75	1.50	2.25	4.00	1.00	0.75	2.00	-0.126465	0.070312	0.984863	0.210000	-3.500000	4.130000	515.00	-0.07	-0.18		
0.95	2.00	2.50	4.25	2.75	6.75	7.00	0.75	3.25	1.00	0.75	1.25	1.00	2.00	2.25	0.75	0.75	-0.212402	0.075195	0.954590	-1.120000	10.010000	-1.050000	425.00	-0.08	-0.10	2.25	3.00	3.00	4.50	7.00	11.50	0.50	5.75	0.25	0.50	1.50	2.25	4.00	1.00	0.75	2.00	-0.126953	0.073730	0.980957	0.980000	-2.380000	4.480000	541.00	-0.09	-0.18		
0.96	2.00	3.00	4.00	2.50	6.50	7.00	0.75	2.75	0.75	0.75	1.25	1.00	1.75	2.00	0.50	0.75	-0.215332	0.073242	0.954102	-0.560000	11.130000	-0.840000	404.00	-0.09	-0.10	2.50	2.50	3.25	5.00	7.00	12.00	0.50	6.25	0.00	0.50	1.50	2.25	4.00	0.75	0.75	1.75	-0.129883	0.076172	0.977051	2.380000	-1.470000	4.830000	553.00	-0.09	-0.19		
0.97	2.00	2.75	4.25	3.00	6.50	6.75	0.50	2.75	0.50	0.50	1.00	0.50	1.50	2.00	0.50	0.75	-0.210449	0.076660	0.954590	-0.070000	12.530000	-0.560000	387.00	-0.11	-0.10	2.50	3.00	3.50	5.25	7.00	12.50	0.50	6.50	0.00	0.25	1.25	2.25	4.00	0.50	0.50	1.50	-0.128418	0.051758	0.987793	4.690000	-0.700000	4.970000	561.00	-0.10	-0.19		
0.98	2.00	2.75	4.00	2.75	6.25	7.00	0.50	2.75	0.50	0.50	1.00	0.75	1.50	2.00	0.50	0.50	-0.218750	0.071777	0.947266	0.910000	14.280000	-0.210000	383.00	-0.10	-0.11	2.50	3.25	3.75	5.50	7.00	13.50	0.50	6.75	0.25	0.25	1.25	1.75	3.75	0.75	0.75	1.75	-0.132812	0.078613	0.986816	7.350000	0.700000	5.320000	586.00	-0.10	-0.19		
0.99	2.00	2.75	4.25	2.50	6.00	6.75	0.50	2.75	0.00	0.50	1.00	0.50	1.25	1.75	0.50	0.50	-0.215332	0.077637	0.951660	2.100000	15.960000	0.210000	364.00	-0.12	-0.11	3.00	3.50	4.00	6.00	7.00	14.00	0.50	7.25	0.00	0.25	1.00	1.75	4.00	0.75	0.50	1.50	-0.136230	0.077637	0.987305	9.380000	2.800000	5.880000	607.00	-0.12	-0.19		
1.00	2.00	2.50	4.00	3.00	5.75	6.75	0.50	2.50	0.25	0.50	0.75	0.50	1.00	1.75	0.50	0.50	-0.213379	0.080078	0.951172	3.010000	17.010000	0.560000	357.00	-0.12	-0.11	3.25	3.75	4.25	6.50	6.75	14.75	0.50	7.50	0.00	0.00	0.75	1.50	3.75	0.25	0.50	1.25	-0.136719	0.088867	1.000977	12.530000	5.740000	6.930000	614.00	-0.13	-0.19		
1.01	2.00	2.50	4.00	2.75	5.75	6.50	0.50	2.50	0.50	0.50	0.75	0.25	0.75	1.50	0.25	0.50	-0.219238	0.076172	0.952148	2.870000	16.450001	0.630000	345.00	-0.13	-0.10	3.50	4.25	4.25	7.25	6.75	15.75	0.25	7.50	0.00	0.25	0.50	1.25	3.75	0.25	0.50	1.25	-0.127441	0.087891	0.979492	18.410000	9.240000	7.280000	633.00	-0.14	-0.20		
1.02	1.75	2.50	4.50	3.00	5.75	6.50	0.50	2.25	0.25	0.25	0.75	0.00	1.00	1.25	0.25	0.25	-0.215332	0.071777	0.952637	2.660000	15.330000	0.420000	337.00	-0.14	-0.10	3.50	4.50	4.50	7.75	6.50	16.00	0.50	7.75	0.00	0.00	0.50	1.75	3.75	0.25	0.25	1.25	-0.114746	0.093750	0.979980	21.559999	10.150000	7.350000	652.00	-0.14	-0.20		
1.03	2.25	2.75	4.25	3.00	5.75	6.25	0.50	2.25	0.25	0.25	0.50	0.25	0.75	1.00	0.25	0.25	-0.216309	0.076660	0.941406	2.800000	14.560000	0.140000	335.00	-0.15	-0.10	3.75	4.75	4.50	8.00	6.25	16.75	0.25	8.00	0.00	0.00	0.50	1.25	4.00	0.50	0.25	1.25	-0.125000	0.093262	0.996094	23.940001	8.330000	6.790000	664.00	-0.14	-0.20		
1.04	2.25	2.75	4.25	3.00	5.50	6.75	0.50	2.00	0.25	0.00	0.75	0.00	0.75	1.25	0.25	0.25	-0.216309	0.079590	0.948730	2.940000	14.210000	0.140000	333.00	-0.15	-0.10	3.75	5.00	4.25	8.25	6.00	17.00	0.50	8.25	0.00	0.00	0.50	1.25	3.75	0.00	0.25	1.00	-0.130371	0.108398	0.976074	24.080000	6.370000	6.370000	666.00	-0.15	-0.20		
1.05	2.25	3.00	4.00	3.25	5.50	6.50	0.50	2.00	0.25	0.00	0.50	0.25	0.50	1.00	0.25	0.25	-0.226562	0.079590	0.942871	3.150000	13.440001	0.000000	328.00	-0.16	-0.10	3.75	5.00	4.00	8.75	6.00	17.25	0.25	8.25	0.00	0.00	0.25	1.00	3.75	0.25	0.00	0.75	-0.136230	0.103027	0.971191	23.799999	5.180000	6.230000	660.00	-0.15	-0.21		
1.06	2.25	3.25	4.25	3.50	5.50	6.50	0.50	2.00	0.25	0.00	0.50	0.00	0.75	0.75	0.25	0.25	-0.219238	0.080566	0.949219	3.220000	13.020000	-0.070000	334.00	-0.17	-0.10	3.75	5.00	4.00	9.00	5.75	17.50	0.25	8.25	0.00	0.00	0.25	1.00	3.75	0.00	0.00	0.75	-0.142090	0.111328	0.981445	23.030001	4.340000	5.950000	661.00	-0.16	-0.21		
1.07	2.50	3.00	4.25	3.25	5.50	6.75	0.50	2.00	0.00	0.00	0.25	0.25	0.50	0.75	0.25	0.25	-0.223145	0.073730	0.950195	3.010000	12.810000	-0.140000	328.00	-0.17	-0.11	3.75	5.00	4.00	9.00	5.50	17.50	0.25	8.25	0.00	0.00	0.25	1.25	3.50	0.00	0.25	0.75	-0.136719	0.114258	0.976074	21.629999	3.430000	6.020000	661.00	-0.15	-0.21		
1.08	2.50	3.25	4.25	3.50	5.50	6.75	0.50	1.75	0.00	0.00	0.50	0.00	0.50	0.75	0.25	0.25	-0.220215	0.086914	0.940430	2.100000	11.690000	-0.140000	330.00	-0.18	-0.10	3.75	5.00	4.00	9.00	5.25	17.50	0.25	8.25	0.00	0.00	0.00	0.75	3.25	0.25	0.00	0.75	-0.143555	0.127930	0.987793	19.879999	2.380000	5.740000	648.00	-0.16	-0.21		
1.09	2.75	3.25	4.50	4.00	5.50	6.75	0.50	2.00	0.00	0.00	0.25	0.00	0.50	1.00	0.25	0.25	-0.227539	0.081543	0.939453	1.470000	10.780000	0.140000	344.00	-0.18	-0.10	3.75	5.00	3.75	9.00	4.75	17.50	0.25	8.25	0.00	0.00	0.00	1.00	3.00	0.00	0.00	0.50	-0.130859	0.134277	0.968262	15.750000	-0.210000	5.110000	637.00	-0.16	-0.21		
1.10	2.50	3.50	5.00	4.25	5.50	6.75	0.50	2.00	0.00	0.00	0.25	0.00	0.25	0.75	0.00	0.25	-0.221191	0.086426	0.932129	0.070000	9.730000	0.420000	345.00	-0.19	-0.10	3.75	5.00	3.75	9.25	4.75	17.25	0.25	8.25	0.00	0.00	0.00	1.00	3.00	0.00	0.00	0.50	-0.130859	0.134277	0.968262	15.750000	-0.210000	5.110000	637.00	-0.16	-0.21		
1.11	3.00	4.00	5.00	4.25	5.50	7.25	0.50	1.75	0.00	0.00	0.25	0.00	0.50	0.75	0.00	0.00	-0.229492	0.082031	0.941895	-1.610000	9.100000	0.840000	357.00	-0.20	-0.10	3.50	4.75	3.25	9.00	4.25	17.25	0.25	8.25	0.00	0.00	0.25	0.75	2.75	0.00	0.00	0.25	-0.140625	0.125488	0.970215	10.570000	-2.380000	4.270000	614.00	-0.16	-0.22		
1.12	3.00	3.75	5.25	4.25	5.50	7.50	0.50	2.00	0.00	0.00	0.50	0.00	0.50	0.75	0.25	0.00	-0.228027	0.079102	0.944824	-0.980000	8.610000	1.190000	369.00	-0.19	-0.10	3.25	4.75	3.00	9.00	4.00	17.00	0.25	8.00	0.00	0.00	0.00	0.75	2.75	0.00	0.00	0.25	-0.145020	0.133301	0.961426	7.280000	-2.870000	3.500000	597.00	-0.16	-0.22		
1.13	3.25	3.75	5.25	5.00	5.50	7.75	0.50	2.00	0.00	0.00	0.50	0.00	0.50	0.50	0.00	0.00	-0.229492	0.078613	0.947266	-0.000000	8.120000	1.190000	378.00	-0.20	-0.11	2.75	4.25	2.75	8.75	3.75	16.75	0.25	8.00	0.00	0.00	0.00	1.00	2.25	0.00	0.00	0.25	-0.141602	0.127930	0.952637	3.920000	-2.940000	2.730000	575.00	-0.16	-0.22		
1.14	3.75	4.25	5.25	5.25	5.75	8.25	0.50	2.25	0.00	0.00	0.25	0.00	0.25	0.25	0.25	0.00	-0.232910	0.079102	0.946289	1.190000	7.630000	1.610000	398.00	-0.21	-0.11	2.50	4.00	2.50	8.25	3.25	16.25	0.25	8.00	0.00	0.00	0.00	0.50	2.50	0.00	0.00	0.25	-0.132812	0.128906	0.942871	0.070000	-2.380000	1.680000	547.00	-0.16	-0.23		
1.15	3.50	4.50	5.50	5.75	5.75	8.75	0.50	2.25	0.00	0.00	0.25	0.00	0.50	0.50	0.25	0.00	-0.229980	0.088379	0.938477	1.890000	6.790000	1.890000	416.00	-0.20	-0.11	2.50	3.50	2.25	8.00	3.00	15.75	0.25	7.75	0.00	0.00	0.00	0.75	2.50	0.00	0.00	0.25	-0.128906	0.140625	0.922852	-5.250000	-0.070000	0.280000	528.00	-0.15	-0.23		
1.16	4.25	5.00	6.00	6.00	6.00	9.25	0.50	2.50	0.00	0.00	0.25	0.25	0.50	0.50	0.00	0.25	-0.229492	0.083984	0.947266	1.960000	5.670000	2.100000	450.00	-0.21	-0.11	2.25	3.00	2.00	7.50	3.00	15.25	0.25	7.75	0.00	0.00	0.00	0.75	2.25	0.00	0.00	0.00	-0.131348	0.144043	0.926758	-11.830000	3.290000	-0.770000	503.00	-0.15	-0.24		
1.17	5.00	5.25	6.50	6.75	6.25	10.25	0.25	2.75	0.00	0.00	0.25	0.00	0.75	0.50	0.00	0.25	-0.219238	0.086426	0.955566	3.500000	4.830000	2.170000	487.00	-0.21	-0.12	1.75	2.75	1.75	6.75	2.75	14.50	0.25	7.50	0.00	0.00	0.00	0.75	2.25	0.00	0.00	0.00	-0.136230	0.137695	0.951660	-20.020000	6.020000	-1.820000	470.00	-0.15	-0.24		
1.18	5.75	5.50	6.50	8.00	6.25	11.25	0.50	3.25	0.00	0.00	0.50	0.25	0.75	0.50	0.00	0.25	-0.215820	0.080566	0.941895	4.550000	3.500000	1.890000	538.00	-0.21	-0.12	2.00	2.00	1.50	6.00	2.75	13.75	0.25	7.25	0.00	0.00	0.00	0.75	2.50	0.00	0.00	0.25	-0.128418	0.123047	0.965820	-26.600000	6.580000	-3.500000	447.00	-0.14	-0.24		
1.19	6.00	6.50	7.25	8.75	6.75	12.25	0.50	4.00	0.00	0.00	0.25	0.25	0.75	0.50	0.00	0.25	-0.227051	0.086914	0.943848	2.520000	0.210000	0.980000	592.00	-0.21	-0.13	1.50	2.00	1.25	5.25	2.25	12.50	0.25	7.00	0.00	0.00	0.00	0.75	2.50	0.00	0.00	0.00	-0.126465	0.115723	0.965332	-32.270000	5.250000	-5.180000	406.00	-0.13	-0.25		
1.20	6.25	6.75	7.25	9.25	6.75	13.75	0.50	4.50	0.00	0.00	0.50	0.25	1.00	0.25	0.25	0.50	-0.227051	0.086914	0.943848	2.520000	0.210000	0.980000	633.00	-0.20	-0.14	1.50	1.75	0.75	4.50	2.25	11.25	0.25	6.25	0.00	0.00	0.00	0.75	2.25	0.00	0.00	0.00	-0.139160	0.112305	0.987305	-37.939999	3.150000	-7.070000	363.00	-0.13	-0.25		
1.21	7.00	7.50	7.50	10.25	7.25	15.00	0.50	5.00	0.00	0.00	0.50	0.25	1.25	0.50	0.00	0.50	-0.222168	0.086914	0.949707	3.290000	-0.840000	0.700000	690.00	-0.20	-0.14	1.00	1.50	0.75	3.25	1.75	10.00	0.25	5.75	0.00	0.00	0.25	0.75	2.25	0.00	0.00	0.25	-0.142578	0.120117	0.998535	-41.439999	1.680000	-8.890000	319.00	-0.11	-0.26		
1.22	7.50	8.00	8.00	10.75	7.50	16.25	0.50	5.25	0.00	0.00	0.50	0.50	1.50	0.50	0.25	0.50	-0.227051	0.087402	0.946289	5.320000	0.490000	0.770000	738.00	-0.20	-0.14	0.75	1.00	1.00	2.75	1.25	8.75	0.25	5.25	0.00	0.00	0.25	1.00	2.25	0.00	0.00	0.00	-0.136719	0.110840	1.019043	-43.049999	0.140000	-11.550000	284.00	-0.10	-0.26		
1.23	8.25	9.25	8.25	12.25	7.75	17.50	0.50	5.75	0.00	0.00	0.50	0.50	1.50	1.00	0.25	0.50	-0.231445	0.092773	0.942871	6.510000	1.540000	1.050000	805.00	-0.20	-0.14	0.75	0.75	0.50	1.75	0.75	7.25	0.25	4.25	0.00	0.00	0.25	0.75	2.00	0.00	0.00	0.25	-0.108887	0.116211	0.994629	-42.070000	-3.920000	-14.630000	224.00	-0.09	-0.27		
1.24	8.75	10.25	8.75	13.25	7.75	19.00	0.50	6.00	0.00	0.00	0.50	0.75	1.75	0.50	0.25	0.50	-0.219238	0.089844	0.952148	6.930000	2.100000	1.120000	857.00	-0.21	-0.15	0.75	0.50	0.25	1.25	0.50	6.00	0.25	2.50	0.00	0.00	0.25	1.00	2.00	0.00	0.00	0.25	-0.179199	0.143555	0.980469	-43.680000	-3.430000	-19.670000	173.00	-0.08	-0.27		
1.25	9.50	11.25	9.00	14.50	8.25	20.25	0.50	6.50	0.00	0.00	0.75	0.50	1.75	0.25	0.25	0.75	-0.225098	0.096680	0.944824	7.770000	2.660000	0.980000	916.00	-0.21	-0.15	0.25	0.50	0.25	1.25	0.25	4.50	0.00	1.75	0.00	0.00	0.25	0.50	1.75	0.00	0.00	0.00	-0.130371	0.166504	1.135254	-32.549999	13.440001	-25.760000	125.00	-0.09	-0.29		
1.26	10.75	12.75	9.25	15.75	8.25	21.50	0.50	6.75	0.00	0.00	0.50	0.50	2.00	0.50	0.25	0.25	-0.221680	0.094238	0.949707	9.100000	3.220000	0.840000	975.00	-0.22	-0.15	0.50	0.00	0.00	1.00	0.25	3.50	0.00	1.25	0.00	0.00	0.00	0.50	1.50	0.00	0.00	0.00	-0.022461	0.106445	1.441406	15.750000	114.099998	-33.389999	94.00	-0.09	-0.29		
1.27	11.25	14.25	9.75	17.25	8.50	22.75	0.50	7.00	0.00	0.00	0.50	0.75	2.25	0.50	0.25	0.50	-0.219238	0.089844	0.951660	10.640000	4.060000	0.630000	1043.00	-0.22	-0.15	0.25	0.25	0.25	0.75	0.25	2.50	0.00	0.75	0.00	0.00	0.00	0.50	0.75	0.00	0.00	0.00	-0.197754	0.138184	1.137695	17.360001	176.119995	-34.860001	69.00	-0.11	-0.26		
1.28	12.25	15.25	9.50	18.00	8.75	23.75	0.50	7.50	0.00	0.00	0.50	0.50	2.50	0.75	0.00	0.50	-0.218262	0.100586	0.952637	11.760000	4.060000	0.560000	1088.00	-0.22	-0.15	0.25	0.00	0.00	0.75	0.25	1.75	0.00	0.50	0.00	0.00	0.00	0.25	0.50	0.00	0.00	0.00	-0.173828	0.190918	1.256836	13.160000	203.770004	-39.410000	47.00	0.00	0.00		
1.29	12.50	16.25	10.00	18.75	8.75	25.00	0.25	7.75	0.00	0.00	0.75	0.75	2.50	0.50	0.25	0.50	-0.218750	0.099121	0.962891	10.920000	3.570000	0.490000	1133.00	-0.22	-0.15	0.00	0.50	0.25	0.50	0.25	1.00	0.00	0.00	0.00	0.00	0.00	0.50	0.50	0.00	0.00	0.00	-0.192383	0.234863	1.522461	20.580000	206.009995	-48.580002	36.00	0.00	0.00		
1.30	13.50	16.75	10.25	19.75	8.75	25.75	0.50	8.25	0.00	0.00	0.50	0.75	2.75	0.50	0.25	0.50	-0.210938	0.110840	0.946289	9.520000	3.500000	0.280000	1181.00	-0.22	-0.15	0.50	0.25	0.00	0.25	0.25	0.75	0.00	0.00	0.00	0.00	0.00	0.00	0.00	0.00	0.00	0.00	-0.053711	0.258301	1.657227	39.549999	192.990005	-66.849998	21.00	0.00	0.00		
1.31	13.50	17.50	10.25	20.25	8.75	26.50	0.25	8.50	0.00	0.00	0.50	1.00	3.25	0.25	0.25	0.50	-0.214844	0.106445	0.955078	9.170000	4.130000	0.140000	1206.00	-0.22	-0.16	0.50	0.00	0.00	0.25	0.25	0.25	0.00	0.00	0.00	0.00	0.00	0.00	0.00	0.00	0.00	0.00	0.067871	0.159668	1.464844	54.180000	181.580002	-74.340004	13.00	0.00	0.00		
1.32	14.00	18.00	10.25	21.00	8.75	27.50	0.25	8.75	0.00	0.00	0.25	1.00	3.50	0.25	0.25	0.75	-0.213379	0.106934	0.952148	9.520000	4.270000	0.210000	1240.00	-0.22	-0.16	0.25	0.00	0.00	0.00	0.25	0.25	0.00	0.00	0.00	0.00	0.00	0.25	0.00	0.00	0.00	0.00	0.530762	0.129883	1.654785	60.410000	162.539993	-80.779999	11.00	0.00	0.00		
1.33	13.50	18.00	10.50	20.75	8.75	28.25	0.25	9.25	0.00	0.00	0.75	1.00	3.75	0.50	0.00	0.75	-0.217285	0.108887	0.948242	9.310000	4.410000	0.280000	1257.00	-0.21	-0.16	0.50	0.00	0.00	0.00	0.25	0.25	0.00	0.00	0.00	0.00	0.00	0.00	0.00	0.00	0.00	0.00	0.667969	0.308594	1.590820	56.279999	124.809998	-71.400002	11.00	0.00	0.00		
1.34	13.75	18.50	10.25	21.50	8.75	28.25	0.50	9.50	0.00	0.00	0.50	1.00	3.75	0.50	0.25	0.50	-0.214355	0.106445	0.942383	8.400000	4.690000	0.070000	1276.00	-0.21	-0.16	0.25	0.25	0.25	0.00	0.25	0.00	0.00	0.00	0.00	0.00	0.00	0.00	0.00	0.00	0.00	0.00	0.892578	0.114746	1.568848	16.660000	88.269997	-62.020000	10.00	0.00	0.00		
1.35	13.25	18.00	10.00	21.50	8.75	29.00	0.50	9.50	0.00	0.00	0.75	1.00	4.00	0.50	0.25	0.50	-0.214844	0.110840	0.943359	6.930000	4.830000	-0.280000	1277.00	-0.21	-0.17	0.50	0.25	0.00	0.25	0.25	0.00	0.00	0.00	0.00	0.00	0.00	0.00	0.00	0.00	0.00	0.00	0.923828	0.300781	1.604980	-37.029999	50.400002	-45.639999	13.00	0.00	0.00		
1.36	13.25	17.75	10.00	22.00	8.50	29.50	0.25	9.75	0.00	0.00	0.75	0.75	4.50	0.50	0.25	0.50	-0.214355	0.110840	0.950684	5.250000	4.760000	-0.630000	1284.00	-0.21	-0.17	0.25	0.25	0.00	0.25	0.25	0.00	0.00	0.00	0.00	0.00	0.00	0.00	0.00	0.00	0.00	0.00	0.859863	0.433105	1.235840	-52.570000	18.340000	-23.799999	10.00	0.00	0.00		
1.37	13.00	17.75	10.00	21.50	8.50	29.50	0.25	10.00	0.00	0.00	0.50	0.75	5.00	0.75	0.25	0.75	-0.219238	0.113281	0.952148	4.550000	4.900000	-0.840000	1285.00	-0.21	-0.17	0.50	0.00	0.00	0.50	0.25	0.00	0.00	0.00	0.00	0.00	0.00	0.00	0.00	0.00	0.00	0.00	0.827637	0.448730	0.895996	-38.430000	1.470000	-10.780000	13.00	0.00	0.00		
1.38	12.50	17.50	9.75	21.25	8.50	29.50	0.50	10.25	0.00	0.00	0.75	1.25	5.00	0.75	0.25	0.75	-0.217285	0.114746	0.948730	4.270000	5.600000	-1.190000	1288.00	-0.20	-0.17	0.25	0.25	0.00	0.00	0.25	0.00	0.00	0.00	0.00	0.00	0.00	0.00	0.00	0.00	0.00	0.00	0.791016	0.396973	0.877441	-19.389999	-9.520000	-3.290000	8.00	0.00	0.00		
1.39	11.75	17.00	9.50	21.00	8.50	29.50	0.50	10.50	0.00	0.00	0.50	0.75	5.00	0.50	0.25	0.75	-0.205566	0.119141	0.941406	3.500000	5.600000	-1.260000	1264.00	-0.20	-0.18	0.25	0.50	0.00	0.00	0.00	0.00	0.00	0.00	0.00	0.00	0.00	0.00	0.00	0.00	0.00	0.00	0.824707	0.340820	0.940918	-8.260000	-20.160000	4.060000	7.00	0.00	0.00		
1.40	11.00	16.00	9.25	20.50	8.25	30.00	0.50	10.75	0.00	0.00	0.50	1.00	5.25	0.50	0.25	0.75	-0.214844	0.119141	0.944336	1.540000	5.040000	-1.470000	1250.00	-0.20	-0.18	0.25	0.25	0.00	0.00	0.25	0.00	0.00	0.00	0.00	0.00	0.00	0.00	0.00	0.00	0.00	0.00	0.847168	0.315918	0.999023	-6.790000	-35.209999	12.530000	8.00	0.00	0.00		
1.41	10.75	15.25	9.25	20.00	8.25	29.75	0.50	10.75	0.00	0.00	0.75	1.25	5.25	0.25	0.25	0.75	-0.217285	0.122559	0.940430	-0.210000	4.690000	-2.100000	1235.00	-0.19	-0.18	0.25	0.25	0.00	0.00	0.00	0.00	0.00	0.00	0.00	0.00	0.00	0.00	0.00	0.00	0.00	0.00	0.827637	0.323730	1.017090	-6.510000	-52.849998	21.139999	5.00	0.00	0.00		
1.42	10.00	14.75	9.00	19.25	8.25	29.50	0.50	11.00	0.00	0.00	0.75	1.25	5.25	0.50	0.25	0.50	-0.211426	0.124512	0.951172	-1.050000	4.340000	-2.100000	1214.00	-0.19	-0.18	0.25	0.25	0.00	0.00	0.00	0.00	0.00	0.00	0.00	0.00	0.00	0.00	0.00	0.00	0.00	0.00	0.790527	0.312012	1.006836	-2.870000	-69.930000	28.000000	5.00	0.00	0.00		
1.43	9.50	14.00	9.00	19.25	8.00	29.25	0.50	11.00	0.00	0.00	0.75	1.25	5.50	0.50	0.25	0.50	-0.212891	0.118164	0.938477	-2.940000	3.990000	-2.520000	1198.00	-0.19	-0.18	0.00	0.00	0.00	0.00	0.00	0.00	0.00	0.00	0.00	0.00	0.00	0.00	0.00	0.00	0.00	0.00	0.726562	0.286133	1.017578	2.030000	-85.610001	33.110001	0.00	0.00	0.00		
1.44	9.25	13.25	8.75	18.75	8.25	29.25	0.50	11.00	0.00	0.00	0.75	1.50	5.75	0.50	0.25	0.50	-0.209473	0.119141	0.944336	-4.620000	3.360000	-2.730000	1188.00	-0.18	-0.19	0.25	0.00	0.00	0.00	0.00	0.00	0.00	0.00	0.00	0.00	0.00	0.00	0.00	0.00	0.00	0.00	0.680176	0.268066	1.031250	6.370000	-100.029999	37.450001	3.00	0.00	0.00		
1.45	8.75	12.75	8.50	18.25	8.00	29.25	0.50	11.00	0.00	0.00	0.75	1.50	5.75	0.50	0.25	0.75	-0.214844	0.117188	0.937988	-5.880000	2.730000	-3.010000	1169.00	-0.18	-0.19	0.25	0.25	0.00	0.00	0.00	0.00	0.00	0.00	0.00	0.00	0.00	0.00	0.00	0.00	0.00	0.00	0.604004	0.234863	1.083008	10.430000	-113.680000	41.299999	5.00	0.00	0.00		
1.46	8.50	12.25	8.50	17.75	8.00	29.00	0.50	11.25	0.00	0.00	0.75	1.25	5.75	0.50	0.25	0.75	-0.216309	0.116699	0.949707	-6.230000	2.520000	-3.150000	1154.00	-0.18	-0.19	0.25	0.00	0.00	0.00	0.00	0.00	0.00	0.00	0.00	0.00	0.00	0.00	0.00	0.00	0.00	0.00	0.541016	0.213379	1.130371	14.420000	-126.489998	45.639999	3.00	0.00	0.00		
1.47	8.00	11.50	8.50	17.25	8.25	29.00	0.50	11.25	0.00	0.00	0.75	1.50	5.75	0.50	0.25	0.75	-0.214844	0.118164	0.941406	-6.020000	2.590000	-3.150000	1142.00	-0.18	-0.19	0.25	0.25	0.00	0.00	0.00	0.00	0.00	0.00	0.00	0.00	0.00	0.00	0.00	0.00	0.00	0.00	0.460938	0.168457	1.169434	15.050000	-137.759995	49.630001	5.00	0.00	0.00		
1.48	8.00	11.00	8.50	17.00	8.00	28.50	0.50	11.00	0.00	0.00	1.00	1.25	6.00	0.25	0.25	0.75	-0.206543	0.115723	0.950195	-6.160000	2.590000	-3.080000	1123.00	-0.18	-0.19	0.00	0.00	0.00	0.00	0.00	0.00	0.00	0.00	0.00	0.00	0.00	0.00	0.00	0.00	0.00	0.00	0.375488	0.170410	1.259277	12.460000	-147.699997	53.200001	0.00	0.00	0.00		
1.49	7.75	10.00	8.25	16.50	8.25	28.50	0.50	11.25	0.00	0.00	1.00	1.75	6.00	0.50	0.25	0.75	-0.211426	0.115234	0.944824	-6.650000	2.240000	-3.150000	1117.00	-0.17	-0.19	0.25	0.25	0.00	0.00	0.25	0.00	0.00	0.00	0.00	0.00	0.00	0.00	0.00	0.00	0.00	0.00	0.244141	0.167480	1.342773	11.200000	-156.660004	56.349998	8.00	0.00	0.00		
1.50	7.25	9.75	8.00	16.00	8.25	28.25	0.50	11.25	0.00	0.00	1.00	2.00	6.00	0.75	0.25	0.75	-0.207031	0.115234	0.945801	-6.580000	1.470000	-3.150000	1103.00	-0.16	-0.19	0.25	0.00	0.00	0.00	0.00	0.00	0.00	0.00	0.00	0.00	0.00	0.00	0.00	0.00	0.00	0.00	0.244141	0.156738	1.342773	11.130000	-165.479996	58.170002	3.00	0.00	0.00		
1.51	7.00	9.25	7.75	15.50	8.50	28.50	0.50	11.25	0.00	0.00	1.00	1.75	6.25	0.50	0.25	0.75	-0.209473	0.112793	0.942871	-6.790000	1.120000	-3.010000	1090.00	-0.16	-0.20	0.25	0.00	0.00	0.00	0.00	0.00	0.00	0.00	0.00	0.00	0.00	0.00	0.00	0.00	0.00	0.00	0.049805	0.122559	1.335938	10.990000	-177.309998	57.820000	3.00	0.00	0.00		
1.52	6.75	8.75	7.75	15.00	8.50	28.25	0.50	11.25	0.00	0.00	1.00	2.00	6.50	0.50	0.25	0.75	-0.208984	0.110352	0.948730	-6.370000	1.190000	-2.800000	1080.00	-0.16	-0.20	0.00	0.00	0.00	0.00	0.00	0.00	0.00	0.00	0.00	0.00	0.00	0.00	0.00	0.00	0.00	0.00	-0.034668	0.119629	1.342285	10.290000	-179.199997	55.230000	0.00	0.00	0.00		
1.53	6.50	8.25	7.75	14.50	8.75	28.25	0.50	11.50	0.00	0.00	1.25	2.00	6.75	0.75	0.25	1.00	-0.211426	0.114258	0.942871	-5.600000	0.700000	-2.660000	1082.00	-0.15	-0.20	0.25	0.00	0.00	0.00	0.00	0.00	0.00	0.00	0.00	0.00	0.00	0.00	0.00	0.00	0.00	0.00	-0.104004	0.102051	1.354980	8.610000	-179.270004	51.170002	3.00	0.00	0.00		
1.54	6.25	8.00	7.75	14.00	8.75	28.25	0.50	11.75	0.00	0.00	1.50	2.25	6.75	0.50	0.50	1.00	-0.207520	0.107422	0.946777	-5.600000	-0.910000	-2.730000	1081.00	-0.15	-0.20	0.25	0.25	0.00	0.00	0.00	0.00	0.00	0.00	0.00	0.00	0.00	0.00	0.00	0.00	0.00	0.00	-0.157715	0.084473	1.372559	5.950000	-178.639999	45.709999	5.00	0.00	0.00		
1.55	5.75	8.00	7.50	13.50	9.00	28.50	0.50	12.00	0.00	0.00	1.50	2.25	7.00	0.50	0.50	1.00	-0.198730	0.111816	0.947754	-5.810000	-2.240000	-2.800000	1079.00	-0.14	-0.20	0.25	0.00	0.00	0.00	0.00	0.00	0.00	0.00	0.00	0.00	0.00	0.00	0.00	0.00	0.00	0.00	-0.217773	0.085449	1.402344	3.710000	-178.289993	39.549999	3.00	0.00	0.00		
1.56	5.50	7.25	7.25	13.00	9.00	28.25	0.50	12.00	0.00	0.00	1.50	2.75	7.25	0.75	0.25	1.00	-0.202148	0.108887	0.945312	-5.740000	-2.870000	-2.870000	1066.00	-0.14	-0.20	0.25	0.00	0.00	0.00	0.00	0.00	0.00	0.00	0.00	0.00	0.00	0.00	0.00	0.00	0.00	0.00	-0.247070	0.093750	1.427246	4.690000	-179.550003	33.529999	3.00	0.00	0.00		
1.57	5.25	7.00	7.25	12.25	9.25	28.50	0.50	12.25	0.00	0.00	1.75	2.75	7.50	0.75	0.50	1.00	-0.203125	0.105957	0.944824	-5.880000	-3.500000	-3.010000	1069.00	-0.13	-0.20	0.25	0.25	0.00	0.00	0.00	0.00	0.00	0.00	0.00	0.00	0.00	0.00	0.00	0.00	0.00	0.00	-0.275391	0.091309	1.373535	7.210000	-180.039993	27.650000	5.00	0.00	0.00		
1.58	5.25	6.75	7.00	11.50	9.25	28.25	0.50	12.50	0.00	0.25	2.25	3.00	7.75	1.00	0.50	1.25	-0.197754	0.106445	0.939941	-6.790000	-5.320000	-3.290000	1073.00	-0.12	-0.21	0.25	0.25	0.00	0.00	0.00	0.00	0.00	0.00	0.00	0.00	0.00	0.00	0.00	0.00	0.00	0.00	-0.300293	0.088867	1.325684	7.770000	-179.130005	22.120001	5.00	0.00	0.00		
1.59	5.25	6.50	6.75	10.75	9.50	28.00	0.50	12.75	0.00	0.25	2.25	3.75	8.00	1.00	0.50	1.25	-0.198242	0.104492	0.948730	-6.370000	-6.300000	-3.850000	1074.00	-0.12	-0.21	0.00	0.00	0.00	0.00	0.00	0.00	0.00	0.00	0.00	0.00	0.00	0.00	0.00	0.00	0.00	0.00	-0.319336	0.090820	1.261719	6.090000	-176.119995	17.430000	0.00	0.00	0.00		
1.60	4.75	6.50	6.75	10.00	9.50	28.00	0.75	13.00	0.00	0.50	2.75	4.25	8.25	1.25	0.75	1.25	-0.189941	0.101074	0.943848	-6.370000	-6.720000	-4.130000	1088.00	-0.11	-0.21	0.00	0.00	0.00	0.00	0.00	0.00	0.00	0.00	0.00	0.00	0.00	0.00	0.00	0.00	0.00	0.00	-0.343262	0.109375	1.242676	3.500000	-172.270004	13.370000	0.00	0.00	0.00		
1.61	4.75	6.25	6.25	9.50	9.75	27.75	0.75	13.00	0.00	0.75	3.00	5.00	8.75	1.25	0.75	1.50	-0.191406	0.108398	0.954102	-6.160000	-6.650000	-4.130000	1093.00	-0.10	-0.21	0.00	0.00	0.00	0.00	0.00	0.00	0.00	0.00	0.00	0.00	0.00	0.00	0.00	0.00	0.00	0.00	-0.357910	0.139648	1.205078	3.500000	-168.699997	9.730000	0.00	0.00	0.00		
1.62	4.25	5.75	6.00	9.00	9.75	27.50	0.75	13.00	0.25	1.00	3.50	5.25	9.00	1.50	0.75	1.50	-0.185547	0.103027	0.942383	-4.060000	-5.180000	-4.130000	1091.00	-0.09	-0.21	0.00	0.25	0.00	0.00	0.00	0.00	0.00	0.00	0.00	0.00	0.00	0.00	0.00	0.00	0.00	0.00	-0.380371	0.146973	1.170898	5.390000	-164.850006	6.160000	2.00	0.00	0.00		
1.63	4.00	5.75	5.75	8.50	9.50	26.75	0.75	13.25	0.00	1.25	4.00	6.00	9.25	1.50	1.00	1.50	-0.193848	0.103027	0.955566	-4.060000	-5.180000	-4.130000	1090.00	-0.08	-0.21	0.25	0.00	0.00	0.00	0.00	0.00	0.00	0.00	0.00	0.00	0.00	0.00	0.00	0.00	0.00	0.00	-0.424316	0.145996	1.133301	7.560000	-160.020004	2.940000	3.00	0.00	0.00		
1.64	4.00	5.50	5.25	8.00	9.50	26.50	0.75	13.50	0.50	1.50	5.50	7.00	9.50	2.25	0.75	2.00	-0.180664	0.104004	0.944824	-0.560000	-1.050000	-3.500000	1122.00	-0.07	-0.21	0.25	0.00	0.00	0.00	0.00	0.00	0.00	0.00	0.00	0.00	0.00	0.00	0.00	0.00	0.00	0.00	-0.442383	0.160156	1.072754	7.770000	-154.490005	0.210000	3.00	0.00	0.00		
1.65	3.50	5.50	5.00	7.50	9.00	26.00	0.75	13.50	0.75	1.75	6.25	7.50	10.00	2.00	1.00	2.00	-0.194824	0.106445	0.947266	1.260000	1.680000	-3.080000	1121.00	-0.06	-0.21	0.00	0.00	0.00	0.00	0.00	0.00	0.00	0.00	0.00	0.00	0.00	0.00	0.00	0.00	0.00	0.00	-0.469727	0.182129	1.036133	7.770000	-148.610001	-2.100000	0.00	0.00	0.00		
1.66	3.50	5.50	4.50	7.00	8.75	25.50	0.75	13.75	0.75	2.25	7.75	8.00	10.50	2.50	1.25	2.00	-0.185059	0.100586	0.950684	2.100000	3.360000	-2.450000	1143.00	-0.04	-0.21	0.00	0.00	0.00	0.00	0.00	0.00	0.00	0.00	0.00	0.00	0.00	0.00	0.00	0.00	0.00	0.00	-0.489258	0.212402	0.972656	10.430000	-142.169998	-3.780000	0.00	0.00	0.00		
1.67	3.25	5.25	4.25	6.75	8.50	24.50	0.75	13.75	0.75	2.50	8.25	8.50	11.00	2.50	1.00	2.25	-0.204102	0.122070	0.962402	2.450000	4.900000	-1.960000	1135.00	-0.04	-0.21	0.00	0.25	0.00	0.00	0.00	0.00	0.00	0.00	0.00	0.00	0.00	0.00	0.00	0.00	0.00	0.00	-0.517090	0.215332	0.913574	15.050000	-134.889999	-4.690000	2.00	0.00	0.00		
1.68	3.00	5.25	4.00	6.25	8.00	23.50	0.75	13.75	1.25	3.25	9.00	9.00	11.75	3.00	1.25	2.25	-0.183105	0.095703	0.944336	2.380000	5.530000	-1.820000	1149.00	-0.02	-0.21	0.25	0.00	0.00	0.00	0.00	0.00	0.00	0.00	0.00	0.00	0.00	0.00	0.00	0.00	0.00	0.00	-0.540527	0.211426	0.873535	18.059999	-126.419998	-4.340000	3.00	0.00	0.00		
1.69	3.00	4.75	3.75	6.00	7.50	22.50	0.75	13.75	1.50	4.00	9.75	9.75	12.25	2.75	1.25	2.75	-0.178223	0.097656	0.946777	1.120000	6.370000	-1.610000	1154.00	-0.01	-0.21	0.25	0.00	0.00	0.00	0.00	0.00	0.00	0.00	0.00	0.00	0.00	0.00	0.00	0.00	0.00	0.00	-0.563965	0.187988	0.836914	19.180000	-117.459999	-3.080000	3.00	0.00	0.00		
1.70	2.75	5.00	3.00	5.75	6.75	21.25	0.75	13.50	2.00	5.25	10.50	10.50	12.75	3.50	1.25	3.00	-0.179688	0.097168	0.981934	0.840000	7.280000	-1.750000	1165.00	0.01	-0.21	0.25	0.25	0.00	0.00	0.00	0.00	0.00	0.00	0.00	0.00	0.00	0.00	0.00	0.00	0.00	0.00	-0.615234	0.181641	0.790039	21.840000	-108.570000	-1.820000	5.00	0.00	0.00		
1.71	2.75	4.50	2.75	5.25	6.00	19.50	0.75	13.25	2.25	7.00	11.25	11.25	13.25	3.75	1.75	3.25	-0.189453	0.112793	0.958008	0.280000	8.610000	-2.170000	1171.00	0.02	-0.20	0.00	0.00	0.00	0.00	0.00	0.00	0.00	0.00	0.00	0.00	0.00	0.00	0.00	0.00	0.00	0.00	-0.767578	0.044922	0.686035	28.420000	-86.029999	-3.990000	0.00	0.00	0.00		
1.72	2.25	3.75	2.75	5.00	5.25	18.00	1.00	12.75	2.75	8.00	12.25	12.25	13.75	4.25	1.75	3.50	-0.181641	0.103027	0.967285	-0.630000	10.010000	-2.800000	1176.00	0.04	-0.19	0.00	0.00	0.00	0.00	0.00	0.00	0.00	0.00	0.00	0.00	0.00	0.00	0.00	0.00	0.00	0.00	-0.828613	0.002930	0.660156	28.559999	-72.309998	-7.910000	0.00	0.00	0.00		
1.73	2.25	3.75	2.25	4.50	4.50	16.00	1.00	12.25	3.50	8.50	13.25	13.00	14.25	4.75	2.00	4.00	-0.189941	0.120605	0.963867	-0.420000	11.410000	-3.990000	1174.00	0.06	-0.19	0.25	0.25	0.00	0.00	0.00	0.00	0.00	0.00	0.00	0.00	0.00	0.00	0.00	0.00	0.00	0.00	-0.874512	-0.038086	0.641602	26.880001	-57.959999	-12.950000	5.00	0.00	0.00		
1.74	2.00	4.00	1.75	4.25	3.50	14.50	1.00	11.75	4.50	9.25	14.25	13.75	15.00	5.25	2.25	4.00	-0.198730	0.117676	0.974121	0.420000	13.300000	-5.320000	1184.00	0.07	-0.18	0.00	0.00	0.00	0.00	0.00	0.00	0.00	0.00	0.00	0.00	0.00	0.00	0.00	0.00	0.00	0.00	-0.937012	-0.064453	0.640625	23.799999	-43.680000	-18.480000	0.00	0.00	0.00		
1.75	2.00	3.75	1.75	3.75	3.00	12.75	1.00	11.00	5.25	10.00	15.00	14.25	15.25	5.50	2.00	4.25	-0.199707	0.126465	0.966309	3.080000	18.410000	-7.560000	1174.00	0.09	-0.18	0.25	0.25	0.00	0.00	0.00	0.00	0.00	0.00	0.00	0.00	0.00	0.00	0.00	0.00	0.00	0.00	-0.998535	-0.082031	0.627441	19.250000	-28.700001	-24.500000	5.00	0.00	0.00		
1.76	1.50	3.25	1.50	3.75	2.50	10.75	1.00	10.00	6.50	10.75	16.00	15.25	15.75	6.25	2.25	4.50	-0.196777	0.113281	0.980957	6.370000	24.990000	-10.080000	1179.00	0.11	-0.17	0.25	0.25	0.00	0.00	0.00	0.00	0.00	0.00	0.00	0.00	0.00	0.00	0.00	0.00	0.00	0.00	-1.070312	-0.063965	0.588867	12.950000	-12.670000	-31.290001	5.00	0.00	0.00		
1.77	1.75	2.75	1.25	3.00	1.75	9.75	1.00	9.50	7.50	11.25	16.50	16.00	16.00	7.00	2.25	4.50	-0.207520	0.135742	0.981934	10.640000	34.930000	-12.390000	1179.00	0.12	-0.16	0.25	0.00	0.00	0.00	0.00	0.00	0.00	0.00	0.00	0.00	0.00	0.00	0.00	0.00	0.00	0.00	-1.161133	-0.043457	0.581543	7.560000	4.690000	-38.360001	3.00	0.00	0.00		
1.78	1.50	3.00	1.00	3.25	1.50	9.00	1.00	8.75	8.25	12.00	17.50	16.75	16.25	7.75	2.25	4.75	-0.193359	0.125977	0.953613	21.000000	63.139999	-13.860000	1202.00	0.13	-0.15	0.25	0.00	0.00	0.00	0.00	0.00	0.00	0.00	0.00	0.00	0.00	0.00	0.00	0.00	0.00	0.00	-1.237305	-0.005859	0.615723	3.710000	22.610001	-45.220001	3.00	0.00	0.00		
1.79	1.50	2.25	1.00	2.75	1.25	8.50	1.25	8.25	8.75	12.50	18.00	17.00	16.00	8.25	2.25	5.00	-0.214355	0.129395	0.995605	24.570000	85.330002	-14.770000	1201.00	0.14	-0.14	0.00	0.00	0.00	0.00	0.00	0.00	0.00	0.00	0.00	0.00	0.00	0.00	0.00	0.00	0.00	0.00	-1.302734	0.042969	0.680664	1.400000	40.599998	-51.170002	0.00	0.00	0.00		
1.80	1.50	2.75	1.00	2.75	1.25	8.00	1.25	7.50	9.25	13.00	18.50	17.25	16.00	8.75	2.50	5.00	-0.237305	0.135742	0.997070	24.010000	107.029999	-15.050000	1215.00	0.15	-0.14	0.25	0.00	0.00	0.00	0.00	0.00	0.00	0.00	0.00	0.00	0.00	0.00	0.00	0.00	0.00	0.00	-1.357910	0.068848	0.689941	-2.870000	58.520000	-55.930000	3.00	0.00	0.00		
1.81	1.50	2.50	0.25	3.00	1.25	7.50	1.25	7.00	9.75	13.50	19.25	17.75	15.50	9.25	2.75	5.00	-0.257812	0.131348	0.995117	23.660000	130.479996	-15.470000	1222.00	0.15	-0.13	0.25	0.25	0.00	0.00	0.00	0.00	0.00	0.00	0.00	0.00	0.00	0.00	0.00	0.00	0.00	0.00	-1.378418	0.125977	0.655273	-9.380000	78.190002	-59.220001	5.00	0.00	0.00		
1.82	1.50	2.75	1.00	2.75	1.00	6.75	1.50	6.25	10.25	14.00	19.50	17.75	15.25	10.00	3.00	5.25	-0.282715	0.101562	1.083496	20.719999	157.009995	-14.980000	1234.00	0.16	-0.12	0.00	0.00	0.00	0.00	0.00	0.00	0.00	0.00	0.00	0.00	0.00	0.00	0.00	0.00	0.00	0.00	-1.371094	0.202637	0.654297	-14.630000	99.050003	-61.250000	0.00	0.00	0.00		
1.83	1.50	2.50	0.75	2.50	0.75	6.25	1.50	6.00	10.50	14.50	19.75	17.75	14.75	10.75	3.00	5.25	-0.316406	0.135254	1.021484	14.910000	187.669998	-14.140000	1227.00	0.17	-0.12	0.25	0.75	0.00	0.00	0.00	0.00	0.00	0.00	0.00	0.00	0.00	0.00	0.00	0.00	0.00	0.00	-1.003418	0.330078	0.817871	-15.190001	118.440002	-61.320000	9.00	0.00	0.00		
1.84	1.25	2.50	1.00	2.50	0.75	5.75	1.75	5.50	11.00	14.75	20.00	17.75	14.00	11.25	3.00	5.50	-0.404785	0.146484	1.009766	13.370000	237.300003	-17.990000	1229.00	0.17	-0.11	1.00	1.00	0.00	0.25	0.00	0.00	0.00	0.00	0.00	0.00	0.00	0.00	0.00	0.00	0.00	0.00	0.657227	0.737305	2.073730	3.150000	225.960007	-26.110001	22.00	0.00	0.00		
1.85	1.50	2.50	0.50	2.50	0.75	5.50	2.00	5.00	11.25	15.25	20.25	17.75	13.00	12.00	3.00	5.50	-0.440918	0.151855	1.028809	14.350000	257.250000	-21.210001	1228.00	0.17	-0.10	1.50	2.00	0.75	1.00	0.00	0.00	0.00	0.00	0.00	0.00	0.00	0.00	0.00	0.00	0.00	0.00	2.135742	0.727051	1.511230	-25.969999	135.660004	-9.030000	53.00	-0.36	-0.06	21.00	
1.86	1.25	2.25	0.50	2.25	0.75	5.00	2.25	4.50	11.25	15.25	20.50	17.50	12.25	12.50	3.25	5.75	-0.464844	0.125488	1.043945	17.290001	278.529999	-21.770000	1213.00	0.18	-0.09	4.50	7.00	1.00	1.75	0.25	0.00	0.00	0.00	0.00	0.00	0.00	0.00	0.00	0.00	0.00	0.00	0.110840	0.259277	-0.130371	-20.719999	59.430000	7.770000	144.00	-0.38	-0.06		
1.87	1.25	1.75	0.25	1.00	0.75	4.25	2.75	4.00	11.25	15.50	20.50	17.25	11.50	12.75	3.75	6.00	-0.504883	0.121582	1.023926	21.629999	299.739990	-21.910000	1186.00	0.19	-0.08	9.50	10.75	1.50	3.25	0.25	0.00	0.00	0.00	0.00	0.00	0.00	0.00	0.00	0.00	0.00	0.00	-0.183105	-0.326172	-0.578125	-12.950000	142.800003	8.890000	252.00	-0.38	-0.05		
1.88	1.25	2.25	0.50	1.50	0.75	3.75	3.00	3.25	11.00	15.50	20.25	17.25	10.50	13.25	4.25	6.00	-0.535645	0.116699	1.031738	27.370001	324.799988	-21.700001	1180.00	0.19	-0.08	13.00	13.25	2.25	5.50	0.50	0.00	0.00	0.00	0.00	0.00	0.00	0.00	0.00	0.00	0.00	0.00	-0.313965	-0.320312	1.369629	-20.510000	277.970001	-14.350000	347.00	-0.37	-0.05		
1.89	1.00	2.25	0.25	1.25	0.50	2.50	3.25	3.00	10.50	15.50	20.25	17.00	9.75	13.50	4.00	6.50	-0.607422	0.168457	1.038086	33.529999	353.920013	-22.469999	1142.00	0.20	-0.07	16.25	15.25	3.25	7.75	0.50	1.00	0.00	0.00	0.00	0.00	0.00	0.25	0.00	0.00	0.00	0.00	-0.399414	0.189453	2.736328	-24.080000	188.020004	-53.340000	449.00	-0.36	-0.05		
1.90	1.00	2.00	0.50	1.00	0.50	2.25	3.25	2.50	9.50	15.00	19.75	16.75	9.00	13.50	4.00	6.50	-0.645508	0.212402	1.043945	36.889999	386.399994	-26.809999	1097.00	0.21	-0.07	17.25	16.00	4.00	9.00	0.75	2.25	0.00	0.00	0.00	0.00	0.00	0.25	0.00	0.00	0.00	0.00	-0.183594	0.189453	2.736328	-24.080000	188.020004	-53.340000	505.00	-0.35	-0.06		
1.91	1.00	1.00	0.00	0.50	0.50	1.75	3.25	2.25	8.50	14.25	19.50	16.50	8.50	13.50	4.00	6.50	-0.733887	0.233887	1.061035	34.790001	424.269989	-34.020000	1037.00	0.22	-0.07	17.75	16.50	5.00	10.25	1.00	4.00	0.00	0.00	0.00	0.00	0.00	0.25	0.00	0.00	0.00	0.00	-0.047363	0.625000	0.950684	-11.270000	135.869995	-20.160000	561.00	-0.34	-0.07		
1.92	1.00	1.50	0.25	0.75	0.50	1.50	3.25	1.75	7.50	13.00	18.50	15.50	7.50	13.50	3.75	6.75	-0.946777	0.220215	1.120605	24.850000	464.450012	-41.090000	980.00	0.21	-0.07	18.00	16.75	6.25	11.25	1.25	7.00	0.00	0.50	0.00	0.00	0.00	0.25	0.00	0.00	0.00	0.00	-0.117676	0.260254	1.275879	-36.049999	150.149994	0.070000	634.00	-0.33	-0.08		
1.93	0.50	0.00	0.00	0.25	0.00	0.75	2.75	1.50	5.50	11.25	16.25	14.25	6.75	14.00	3.50	6.50	-1.173340	0.281738	1.368164	15.190001	493.920013	-45.150002	840.00	0.24	-0.07	18.50	17.25	7.75	12.50	1.75	8.50	0.00	1.00	0.00	0.00	0.00	0.50	0.00	0.00	0.00	0.00	-0.154297	0.137207	1.510254	-67.410004	136.639999	2.870000	706.00	-0.31	-0.09		
1.94	0.50	0.50	0.00	0.00	0.00	0.50	2.00	1.00	3.00	9.25	13.50	12.00	5.75	13.75	3.00	5.75	-1.888672	0.375000	1.940918	26.389999	508.059998	-37.590000	694.00	0.24	-0.07	20.00	17.75	8.75	13.50	2.25	9.75	0.25	1.25	0.00	0.00	0.00	0.50	0.25	0.00	0.00	0.00	-0.150391	0.104980	1.238770	-66.919998	111.860001	0.280000	777.00	-0.31	-0.08		
1.95	0.25	0.50	0.00	0.00	0.00	0.25	1.50	0.75	1.50	7.75	11.25	10.00	5.00	13.25	2.50	4.75	-2.671875	0.746582	2.318359	57.820000	521.640015	-16.940001	576.00	0.25	-0.08	22.00	18.00	9.75	14.25	3.75	11.00	0.25	1.50	0.00	0.00	0.00	0.75	0.25	0.00	0.00	0.00	-0.135254	0.174316	1.057617	-66.570000	101.639999	-1.890000	856.00	-0.30	-0.08		
1.96	0.50	0.50	0.00	0.00	0.00	0.25	1.25	0.50	1.00	5.75	9.50	8.50	3.75	12.00	2.25	3.75	-2.909668	0.936523	3.040039	115.290001	536.760010	8.680000	480.00	0.25	-0.07	23.25	18.50	11.00	14.75	5.25	11.75	0.25	1.75	0.00	0.00	0.25	0.75	0.25	0.00	0.00	0.00	-0.129883	0.101074	1.000977	-76.860001	99.400002	-2.450000	924.00	-0.29	-0.08		
1.97	0.75	0.50	0.25	0.00	0.00	0.25	0.75	0.25	1.00	4.25	7.75	7.50	3.00	10.75	2.00	3.00	-2.433105	0.161621	3.266602	132.720001	536.549988	-0.420000	406.00	0.25	-0.07	24.50	18.25	12.00	14.75	5.75	12.00	0.25	2.25	0.00	0.00	0.25	0.50	0.25	0.00	0.00	0.00	-0.153320	0.091797	1.162598	-90.440002	91.840004	-3.710000	959.00	-0.29	-0.07		
1.98	0.75	0.75	0.00	0.00	0.00	0.25	0.50	0.00	0.75	3.25	6.25	6.00	2.25	9.50	2.00	2.50	-2.200195	1.106934	2.374023	148.330002	541.729980	4.270000	332.00	0.25	-0.06	25.50	18.00	12.75	15.00	7.00	12.50	0.50	2.25	0.00	0.00	0.25	0.50	0.00	0.00	0.00	0.25	-0.161621	0.090332	1.129395	-99.400002	75.879997	-5.110000	1000.00	-0.29	-0.07		
1.99	0.50	0.50	0.00	0.25	0.00	0.00	0.25	0.00	0.75	2.50	5.00	5.00	1.75	7.75	1.50	1.75	-1.781738	0.932617	3.454102	205.309998	510.369995	-4.130000	264.00	0.25	-0.06	26.00	18.00	13.50	15.00	8.00	12.50	0.50	2.25	0.00	0.25	0.00	0.50	0.25	0.00	0.00	0.25	-0.156738	0.110352	1.099121	-116.199997	43.119999	-3.080000	1027.00	-0.29	-0.07		
2.00	0.50	0.25	0.00	0.00	0.00	0.00	0.00	0.00	0.00	2.25	3.75	4.25	1.50	4.25	0.75	1.00	-0.945801	0.386230	3.995605	226.729996	442.190002	-37.799999	178.00	0.24	-0.10	26.75	17.50	14.25	15.00	9.00	12.50	0.50	2.50	0.00	0.00	0.25	0.75	0.25	0.00	0.00	0.25	-0.164062	0.067383	1.083496	-120.470001	14.140000	-1.470000	1056.00	-0.28	-0.06		
2.01	0.50	0.25	0.00	0.00	0.00	0.00	0.00	0.00	0.25	1.75	2.75	2.50	1.25	2.00	0.25	0.50	0.460449	0.137207	4.059570	232.190002	363.720001	-76.860001	117.00	0.21	-0.10	26.75	17.25	14.75	14.75	10.00	12.75	0.75	2.75	0.00	0.25	0.25	0.50	0.50	0.00	0.50	0.50	-0.149902	0.067383	1.057617	-90.930000	0.350000	-0.840000	1087.00	-0.27	-0.06		
2.02	0.25	0.00	0.00	0.00	0.00	0.25	0.00	0.00	0.00	1.25	2.50	2.25	0.75	0.50	0.50	0.50	1.946289	0.007812	3.498047	235.830002	288.119995	-121.800003	87.00	0.21	-0.15	26.25	16.50	14.75	14.50	10.75	13.25	0.75	2.75	0.00	0.50	0.50	0.50	0.75	0.00	0.25	0.50	-0.141602	0.028809	1.025879	-49.490002	-7.980000	-0.630000	1090.00	-0.27	-0.06		
2.03	0.25	0.00	0.00	0.00	0.00	0.00	0.00	0.00	0.00	1.25	2.25	2.00	1.00	1.00	0.25	0.25	2.207031	0.963867	4.340332	108.500000	40.810001	-167.020004	81.00	0.23	-0.13	25.50	16.00	14.75	14.25	11.50	13.25	1.00	3.00	0.25	0.75	0.75	0.50	0.75	0.00	0.00	0.75	-0.162598	0.029297	1.001465	-21.910000	-11.690000	-1.400000	1098.00	-0.26	-0.06		
2.04	0.00	0.00	0.00	0.00	0.00	0.00	0.00	0.00	0.00	1.00	2.00	1.75	0.50	0.50	0.25	0.00	2.207031	0.963867	4.340332	108.500000	40.810001	-167.020004	61.00	0.24	-0.14	24.25	15.25	14.50	14.00	12.00	13.50	1.00	3.25	0.50	0.75	0.75	1.00	0.50	0.00	0.25	0.75	-0.148438	0.044922	0.988281	-12.740000	-12.880000	0.210000	1094.00	-0.25	-0.06		
2.05	0.00	0.00	0.00	0.00	0.00	0.00	0.00	0.00	0.00	1.00	1.75	1.25	0.50	0.00	0.25	0.25	0.783203	0.487793	2.188965	47.250000	-265.299988	-78.820000	50.00	0.23	-0.16	22.75	14.25	14.25	13.75	12.25	13.75	1.00	4.00	0.50	1.00	1.00	1.00	1.00	0.00	0.25	1.25	-0.143066	0.036621	0.991699	-8.400000	-12.530000	0.980000	1093.00	-0.24	-0.07		
2.06	0.25	0.25	0.00	0.00	0.00	0.00	0.00	0.00	0.00	0.75	1.50	1.50	0.50	0.00	0.00	0.00	0.611328	0.343750	1.620605	27.650000	-289.450012	-45.360001	49.00	0.00	0.00	20.50	13.25	13.50	13.25	12.25	13.75	1.00	4.75	0.75	1.00	1.25	1.25	1.50	0.00	0.50	1.25	-0.139648	0.050781	0.993164	-6.160000	-11.760000	1.050000	1073.00	-0.22	-0.08		
2.07	0.25	0.00	0.00	0.00	0.00	0.00	0.00	0.00	0.00	0.75	1.50	1.00	0.25	0.00	0.00	0.00	0.484863	0.261719	1.275879	17.430000	-294.000000	-18.480000	39.00	0.00	0.00	18.50	11.75	12.75	12.50	12.25	13.75	1.25	5.25	0.75	1.25	1.25	1.50	1.75	0.25	0.50	1.50	-0.137695	0.047363	0.998535	-4.900000	-10.220000	1.120000	1044.00	-0.21	-0.08		
2.08	0.00	0.25	0.00	0.00	0.00	0.00	0.00	0.00	0.00	0.50	1.25	0.75	0.25	0.00	0.00	0.00	0.373535	0.187988	1.195312	9.590000	-298.829987	-1.470000	31.00	0.00	0.00	15.75	10.50	12.00	11.75	12.00	13.50	1.25	5.75	0.75	1.25	1.50	1.50	2.00	0.25	0.50	1.75	-0.142090	0.050293	0.991211	-4.060000	-8.470000	1.330000	996.00	-0.20	-0.09		
2.09	0.00	0.25	0.00	0.00	0.00	0.00	0.00	0.00	0.00	0.50	1.25	0.75	0.00	0.50	0.00	0.00	0.302246	0.081543	1.198730	7.560000	-309.049988	11.970000	33.00	0.00	0.00	13.00	9.25	10.75	10.75	11.75	13.00	1.25	6.00	1.00	1.25	1.50	1.75	2.00	0.50	0.75	1.75	-0.144043	0.047852	0.988770	-3.710000	-6.860000	1.190000	938.00	-0.18	-0.10		
2.10	0.00	0.00	0.00	0.00	0.00	0.00	0.00	0.00	0.00	0.50	1.25	0.75	0.00	0.00	0.00	0.00	0.235352	-0.062500	1.196289	3.150000	-323.679993	23.030001	26.00	0.00	0.00	10.25	8.25	10.00	10.00	11.50	12.75	1.25	6.25	1.00	1.50	1.75	1.75	2.50	0.50	0.50	2.00	-0.132812	0.048828	0.987793	-4.130000	-4.830000	0.140000	890.00	-0.16	-0.11		
2.11	0.25	0.00	0.00	0.00	0.00	0.00	0.00	0.00	0.00	0.25	0.75	0.50	0.00	0.00	0.00	0.00	0.171875	-0.137695	1.134766	-6.790000	-337.890015	30.870001	18.00	0.00	0.00	8.75	7.25	9.00	9.25	11.00	12.25	1.50	6.25	1.25	2.00	1.75	2.00	3.00	0.50	0.75	2.00	-0.135742	0.056152	0.987793	-5.040000	-3.710000	-0.840000	857.00	-0.14	-0.11		
2.12	0.00	0.00	0.00	0.00	0.00	0.00	0.00	0.00	0.25	0.25	0.75	0.75	0.00	0.00	0.00	0.00	0.087891	-0.147949	1.128906	-18.410000	-350.209991	35.139999	22.00	0.00	0.00	7.00	6.25	8.50	8.50	10.50	11.50	1.50	6.00	1.50	2.00	2.25	1.75	2.75	0.50	0.50	2.25	-0.142578	0.044922	0.989746	-5.600000	-2.800000	-1.190000	801.00	-0.13	-0.11		
2.13	0.00	0.00	0.00	0.00	0.00	0.00	0.00	0.00	0.00	0.25	0.75	0.25	0.00	0.00	0.00	0.00	0.026855	-0.135742	1.145508	-28.070000	-360.500000	35.840000	13.00	0.00	0.00	6.00	5.75	7.50	7.75	10.00	10.75	1.75	6.00	2.00	2.50	2.50	2.25	3.00	0.50	0.75	2.25	-0.140625	0.043457	0.984863	-5.880000	-2.520000	-1.330000	781.00	-0.11	-0.11		
2.14	0.25	0.00	0.00	0.00	0.00	0.00	0.00	0.00	0.00	0.25	0.75	0.25	0.00	0.00	0.00	0.00	0.015625	-0.094727	1.196289	-33.810001	-369.320007	32.060001	16.00	0.00	0.00	5.25	5.25	6.50	7.50	9.75	10.25	1.75	6.00	2.50	2.75	2.75	2.25	2.75	0.75	1.00	2.25	-0.138184	0.040039	0.987793	-5.950000	-2.800000	-1.120000	761.00	-0.10	-0.11		
2.15	0.00	0.00	0.00	0.00	0.00	0.00	0.00	0.00	0.00	0.25	0.50	0.00	0.00	0.00	0.00	0.00	-0.035156	-0.067383	1.315430	-32.689999	-379.820007	23.940001	8.00	0.00	0.00	4.25	4.75	6.00	6.50	9.25	9.50	2.00	5.75	3.00	2.75	3.00	2.25	3.00	1.00	1.00	2.50	-0.138672	0.042969	0.990723	-5.600000	-2.590000	-0.560000	730.00	-0.08	-0.10		
2.16	0.00	0.00	0.00	0.00	0.00	0.00	0.00	0.00	0.00	0.00	0.50	0.00	0.00	0.00	0.00	0.00	-0.139648	-0.044434	1.491699	-24.780001	-390.880005	11.480000	5.00	0.00	0.00	3.75	4.00	5.25	5.75	8.75	9.00	2.25	5.75	3.50	3.25	3.50	2.50	3.25	1.00	1.25	2.50	-0.143066	0.036133	0.996094	-5.110000	-1.750000	0.350000	719.00	-0.05	-0.10		
2.17	0.50	0.00	0.00	0.00	0.00	0.00	0.00	0.00	0.00	0.00	0.50	0.25	0.00	0.00	0.00	0.00	-0.275391	-0.020020	1.705566	-11.410000	-401.730011	-5.250000	13.00	0.00	0.00	3.00	3.50	4.75	5.25	8.25	8.25	2.25	5.50	4.50	3.75	3.75	3.00	3.50	1.00	1.00	2.75	-0.140625	0.042969	0.989258	-4.480000	-0.490000	1.540000	705.00	-0.03	-0.09		
2.18	0.00	0.25	0.00	0.00	0.00	0.00	0.00	0.00	0.00	0.00	0.00	0.00	0.00	0.00	0.00	0.00	-0.452148	0.018066	1.888672	4.270000	-413.630005	-24.850000	2.00	0.00	0.00	2.75	3.00	4.25	5.00	7.50	7.75	2.50	5.25	5.00	4.50	4.50	3.00	3.50	1.50	1.25	2.75	-0.141602	0.044922	0.990723	-3.920000	0.980000	2.170000	705.00	-0.01	-0.09		
2.19	0.00	0.25	0.00	0.00	0.00	0.00	0.00	0.00	0.00	0.00	0.25	0.00	0.00	0.00	0.00	0.00	-0.672363	0.069824	2.007812	19.950001	-425.250000	-44.099998	5.00	0.00	0.00	2.25	3.00	3.25	4.25	6.75	7.00	2.75	5.00	6.00	5.75	5.25	3.25	3.75	1.75	1.25	3.00	-0.149414	0.044434	0.993652	-3.430000	2.380000	2.590000	706.00	0.02	-0.08		
2.20	0.00	0.50	0.00	0.00	0.00	0.00	0.00	0.00	0.00	0.00	0.25	0.00	0.00	0.00	0.00	0.00	-0.953613	0.108887	1.894043	36.750000	-435.679993	-59.779999	7.00	0.00	0.00	2.00	2.75	2.75	3.50	6.00	6.25	2.75	5.00	6.75	7.00	6.50	3.50	3.75	2.00	1.25	3.00	-0.145020	0.047852	0.986816	-3.290000	3.430000	2.730000	712.00	0.05	-0.07		
2.21	0.00	0.00	0.00	0.00	0.00	0.00	0.00	0.00	0.00	0.00	0.00	0.00	0.00	0.00	0.00	0.00	-1.096191	0.119629	1.883789	56.000000	-440.440002	-72.730003	0.00	0.00	0.00	2.00	2.00	2.25	2.25	5.25	5.25	3.00	4.25	7.75	7.75	7.50	3.50	4.00	2.25	1.50	3.25	-0.145508	0.046387	0.987305	-3.430000	4.200000	2.800000	699.00	0.08	-0.05		
2.22	0.00	0.00	0.00	0.00	0.00	0.00	0.00	0.00	0.00	0.00	0.00	0.00	0.00	0.00	0.00	0.00	-1.260254	0.132324	1.844727	69.440002	-434.070007	-79.590004	0.00	0.00	0.00	1.50	2.25	2.00	2.25	4.50	4.25	3.00	4.00	8.25	8.50	8.25	4.00	3.75	2.75	2.00	3.25	-0.142090	0.037109	0.985840	-3.710000	5.460000	2.380000	705.00	0.10	-0.05		
2.23	0.25	0.00	0.00	0.00	0.00	0.00	0.00	0.00	0.00	0.00	0.25	0.00	0.00	0.00	0.00	0.00	-1.328125	0.166504	1.864258	74.059998	-421.750000	-77.699997	5.00	0.00	0.00	1.50	1.50	2.00	1.50	3.50	3.50	3.25	3.25	9.00	9.25	8.75	4.25	3.75	3.25	1.75	3.25	-0.146973	0.043457	0.989258	-3.430000	6.790000	1.960000	690.00	0.12	-0.03		
2.24	0.00	0.00	0.00	0.00	0.00	0.00	0.00	0.00	0.00	0.00	0.00	0.00	0.00	0.00	0.00	0.00	-1.324707	0.198242	1.887695	71.680000	-408.100006	-68.180000	0.00	0.00	0.00	1.50	1.75	2.00	2.00	2.75	2.25	3.50	2.50	9.75	9.75	9.25	4.75	3.50	4.00	2.00	3.25	-0.137695	0.052734	0.995605	-2.870000	8.540000	0.980000	701.00	0.14	-0.02		
2.25	0.00	0.00	0.00	0.00	0.00	0.00	0.00	0.00	0.00	0.00	0.00	0.00	0.00	0.00	0.00	0.00	-1.319336	0.273438	1.889160	64.750000	-393.820007	-52.920002	0.00	0.00	0.00	1.25	1.25	1.75	1.25	2.25	2.00	3.50	2.50	10.75	10.25	9.75	5.50	3.75	4.75	1.75	3.50	-0.145996	0.056152	0.988281	-2.170000	11.270000	-0.490000	713.00	0.16	-0.01		
2.26	0.00	0.00	0.00	0.00	0.00	0.00	0.00	0.00	0.00	0.00	0.00	0.00	0.00	0.00	0.00	0.00	-1.241211	0.362305	1.910156	54.180000	-378.279999	-34.580002	0.00	0.00	0.00	1.25	1.25	1.00	1.50	1.75	1.25	3.50	1.75	11.50	10.75	10.50	5.50	3.50	5.25	2.25	3.50	-0.145996	0.046387	0.992188	-1.260000	14.140000	-1.680000	713.00	0.17	0.00		
2.27	0.00	0.00	0.00	0.00	0.00	0.00	0.00	0.00	0.00	0.00	0.00	0.00	0.00	0.25	0.00	0.00	-1.157227	0.639648	2.135254	37.730000	-346.850006	1.820000	2.00	0.00	0.00	1.25	1.25	1.00	1.00	1.50	1.25	3.50	1.75	12.50	11.50	11.00	6.25	3.50	5.75	2.25	3.75	-0.151855	0.039551	1.001465	0.490000	18.620001	-2.450000	744.00	0.18	0.01		
2.28	0.00	0.00	0.00	0.00	0.00	0.00	0.00	0.00	0.00	0.00	0.00	0.00	0.00	0.00	0.00	0.00	-1.110352	0.806152	2.375000	51.730000	-338.660004	18.830000	0.00	0.00	0.00	0.75	1.00	0.75	1.00	1.25	0.75	3.75	1.50	13.50	12.00	11.50	7.00	3.75	6.75	2.50	4.75	-0.165527	0.040039	0.982422	4.340000	27.510000	-2.240000	776.00	0.20	0.01		
2.29	0.25	0.00	0.00	0.00	0.00	0.00	0.00	0.00	0.00	0.00	0.00	0.00	0.00	0.00	0.00	0.00	-1.237305	0.873535	2.570801	85.120003	-340.130005	34.650002	3.00	0.00	0.00	1.00	0.75	0.75	1.00	1.25	0.25	3.75	1.25	14.25	12.75	12.00	7.50	3.75	7.50	2.50	4.25	-0.177734	0.046387	0.990234	10.430000	42.560001	-0.980000	799.00	0.21	0.02		
2.30	0.25	0.00	0.00	0.00	0.00	0.00	0.00	0.00	0.00	0.00	0.00	0.00	0.00	0.00	0.00	0.00	-2.580078	-0.231445	5.125977	64.610001	-311.989990	54.670002	3.00	0.00	0.00	1.00	1.00	1.00	1.00	1.25	0.25	3.50	1.00	15.00	13.25	12.75	8.00	3.75	8.25	2.50	5.00	-0.181641	0.048340	0.991211	14.700000	51.310001	0.280000	835.00	0.21	0.02		
2.31	0.00	0.00	0.00	0.00	0.00	0.00	0.00	0.00	0.00	0.00	0.00	0.00	0.00	0.00	0.00	0.00	-1.838379	0.520508	2.203613	56.770000	-298.549988	72.730003	0.00	0.00	0.00	1.00	1.00	0.75	0.75	1.00	0.25	3.75	1.00	15.75	13.75	13.50	8.50	4.00	9.00	3.00	5.00	-0.190918	0.052246	1.000488	16.030001	63.000000	-0.070000	872.00	0.22	0.02		
2.32	0.50	0.00	0.00	0.00	0.00	0.00	0.00	0.00	0.00	0.00	0.00	0.00	0.00	0.00	0.00	0.00	-2.175781	0.899902	2.208984	66.779999	-329.350006	84.840004	5.00	0.00	0.00	0.75	0.75	0.75	1.25	0.75	0.00	3.50	1.00	16.50	14.25	14.00	9.00	4.25	9.50	3.00	5.25	-0.199219	0.053223	1.007812	17.010000	75.040001	0.280000	897.00	0.22	0.02		
2.33	0.00	0.00	0.00	0.00	0.00	0.00	0.00	0.00	0.00	0.00	0.00	0.00	0.00	0.00	0.00	0.00	-2.676270	1.026367	1.842285	139.789993	-338.029999	96.250000	0.00	0.00	0.00	1.25	0.25	0.25	0.25	0.75	0.00	3.50	0.75	17.25	15.00	14.75	9.25	4.75	10.50	3.00	5.50	-0.214844	0.061523	1.051270	17.010000	95.410004	-0.770000	919.00	0.23	0.02		
2.34	0.00	0.00	0.00	0.00	0.00	0.00	0.00	0.00	0.00	0.00	0.00	0.00	0.00	0.00	0.00	0.00	-3.171387	0.604980	1.659668	240.169998	-345.029999	115.150002	0.00	0.00	0.00	1.25	0.50	0.75	0.75	0.75	0.00	3.25	0.75	17.75	15.50	15.25	9.75	4.50	11.50	3.25	5.75	-0.236816	0.051758	1.033691	11.760000	118.370003	-1.470000	962.00	0.23	0.02		
2.35	0.50	0.50	0.00	0.00	0.00	0.00	0.00	0.00	0.00	0.00	0.00	0.00	0.00	0.00	0.00	0.00	-3.977539	-0.305176	1.225586	287.839996	-289.029999	150.990005	10.00	0.00	0.00	1.00	0.50	0.50	1.00	0.75	0.00	3.00	0.50	18.50	15.75	15.75	10.25	5.00	12.50	3.75	6.00	-0.280273	0.077637	1.043945	8.400000	140.279999	-3.080000	994.00	0.23	0.02		
2.36	0.00	0.00	0.00	0.00	0.00	0.00	0.00	0.00	0.00	0.00	0.00	0.00	0.00	0.00	0.00	0.00	-4.487793	-0.937012	0.365234	245.699997	-219.240005	193.899994	0.00	0.00	0.00	1.00	1.25	0.50	0.75	0.50	0.00	3.00	0.75	18.75	16.00	16.25	10.50	5.00	13.75	3.75	6.25	-0.283691	0.086426	1.043945	4.620000	160.089996	-6.440000	1025.00	0.23	0.02		
2.37	0.00	0.00	0.00	0.00	0.00	0.00	0.00	0.00	0.00	0.00	0.00	0.00	0.00	0.00	0.00	0.00	-5.012695	-1.178223	-0.168945	144.339996	-154.699997	222.949997	0.00	0.00	0.00	1.00	1.00	0.50	0.75	0.50	0.25	2.75	0.50	19.25	16.50	16.75	10.75	5.00	15.00	4.75	6.50	-0.315918	0.070312	1.031250	0.210000	177.660004	-9.730000	1060.00	0.24	0.02		
2.38	0.00	0.25	0.00	0.00	0.00	0.00	0.00	0.00	0.00	0.00	0.00	0.00	0.00	0.00	0.00	0.00	-5.344727	-1.385254	-0.374512	56.910000	-81.830002	224.979996	2.00	0.00	0.00	1.00	1.00	0.50	0.50	0.50	0.00	2.50	0.50	19.75	16.75	17.00	11.00	5.25	15.75	5.25	6.75	-0.342285	0.057129	1.056641	-1.610000	193.619995	-11.760000	1080.00	0.24	0.02		
2.39	0.00	0.00	0.00	0.00	0.00	0.00	0.00	0.00	0.00	0.00	0.00	0.00	0.00	0.00	0.00	0.00	-5.144531	-1.512207	-0.481934	10.640000	-1.750000	195.509995	0.00	0.00	0.00	1.00	0.50	0.75	0.25	0.50	0.00	2.50	0.75	20.00	17.00	17.25	11.25	5.00	16.75	5.50	6.75	-0.355957	0.045410	1.101562	-1.120000	213.500000	-11.900000	1099.00	0.25	0.02		
2.40	0.00	0.00	0.00	0.00	0.00	0.00	0.00	0.00	0.00	0.00	0.00	0.00	0.00	0.00	0.00	0.00	-4.477051	-1.474121	-0.242676	-13.020000	71.610001	135.729996	0.00	0.00	0.00	0.75	1.00	0.50	0.50	0.50	0.00	2.25	0.50	20.25	17.00	17.50	11.25	5.00	17.50	6.00	7.25	-0.409668	0.087891	1.129883	-2.870000	238.490005	-13.580000	1114.00	0.25	0.02		
2.41	0.25	0.25	0.00	0.00	0.00	0.00	0.00	0.00	0.00	0.00	0.00	0.00	0.00	0.00	0.00	0.00	-7.744629	-0.808594	0.076660	-43.259998	129.149994	60.760002	5.00	0.00	0.00	1.00	1.00	0.50	0.75	0.50	0.25	2.25	0.75	20.25	17.25	17.25	11.25	5.00	18.25	6.50	7.50	-0.464355	0.114258	1.105957	-7.630000	268.100006	-20.020000	1139.00	0.25	0.02		
2.42	0.75	0.75	0.00	0.00	0.00	0.00	0.00	0.00	0.00	0.00	0.00	0.00	0.00	0.00	0.00	0.00	0.553223	-1.563477	0.003418	17.080000	339.709991	55.580002	15.00	0.00	0.00	1.00	1.00	0.25	0.00	0.25	0.00	2.25	0.75	20.25	17.50	17.25	11.00	5.00	19.00	6.75	7.75	-0.479980	0.101562	1.153320	-14.700000	298.549988	-29.260000	1133.00	0.25	0.02		211.00
2.43	2.00	3.00	0.50	0.50	0.25	0.00	0.00	0.00	0.00	0.00	0.00	0.00	0.00	0.00	0.00	0.00	-0.485840	0.125977	0.786621	-60.130001	311.920013	9.660000	62.00	-0.37	-0.05	1.00	1.25	0.25	0.50	0.50	0.00	2.25	0.50	19.75	17.50	17.00	10.75	4.25	19.75	6.75	7.75	-0.550781	0.138184	1.110840	-22.190001	331.380005	-39.270000	1128.00	0.25	0.02		
2.44	7.75	13.75	1.00	1.75	0.25	0.00	0.00	0.00	0.00	0.00	0.50	0.25	0.00	0.00	0.00	0.00	0.830078	0.672363	2.848145	-104.580002	227.430008	-0.770000	248.00	-0.37	-0.07	1.00	1.25	0.25	0.25	0.25	0.00	2.50	0.50	19.25	17.25	16.75	10.75	4.00	20.00	6.75	7.75	-0.593750	0.133789	1.123535	-30.590000	368.339996	-49.420002	1114.00	0.25	0.02		
2.45	18.25	23.75	2.00	3.00	0.25	0.00	0.00	0.00	0.00	0.00	0.50	0.00	0.25	0.00	0.00	0.00	0.330566	0.545898	0.123535	-58.590000	164.779999	26.180000	473.00	-0.38	-0.05	0.75	0.75	0.00	0.25	0.25	0.00	2.50	0.25	18.25	16.75	16.25	10.25	3.50	20.00	6.75	7.50	-0.654297	0.088867	1.186523	-40.529999	411.739990	-58.730000	1066.00	0.26	0.03		
2.46	23.00	27.75	2.50	5.00	0.25	0.25	0.00	0.00	0.00	0.00	0.25	0.25	0.00	0.00	0.00	0.00	-0.855957	0.258789	3.303711	-62.860001	467.179993	40.040001	587.00	-0.38	-0.05	0.50	0.75	0.00	0.00	0.00	0.00	2.75	0.25	16.00	15.50	15.25	10.00	3.00	20.25	6.25	7.50	-0.802246	0.164551	1.145508	-52.849998	460.739990	-67.480003	998.00	0.27	0.03		
2.47	25.25	29.00	4.00	9.00	0.50	1.00	0.00	0.00	0.00	0.00	0.75	0.25	0.00	0.00	0.00	0.00	-0.914551	0.258789	4.535156	-62.860001	467.179993	40.040001	698.00	-0.37	-0.06	0.25	0.25	0.00	0.00	0.00	0.00	2.75	0.25	13.00	13.75	13.50	9.50	2.25	20.25	5.75	6.75	-1.002441	0.230957	1.234375	-63.630001	501.059998	-78.470001	894.00	0.27	0.03		
2.48	26.25	31.25	6.25	12.75	0.75	3.00	0.00	0.25	0.00	0.00	0.50	0.50	0.00	0.50	0.00	0.00	-0.597168	-0.624023	2.237305	-38.430000	273.769989	23.799999	828.00	-0.35	-0.07	0.00	0.75	0.00	0.00	0.00	0.00	2.50	0.00	9.50	11.25	11.75	8.50	1.25	20.00	5.00	6.00	-1.689453	0.360352	1.725098	-62.790001	526.890015	-81.410004	765.00	0.28	0.03		
2.49	25.75	30.75	7.50	16.75	1.50	7.00	0.00	0.50	0.00	0.00	0.50	0.25	0.25	0.25	0.00	0.00	-0.282715	0.099609	1.486816	2.170000	250.809998	-2.030000	929.00	-0.33	-0.08	0.00	0.00	0.00	0.00	0.00	0.00	2.00	0.00	7.00	9.25	9.50	7.25	1.00	18.25	3.75	5.00	-2.541016	0.428711	2.392090	-46.130001	546.489990	-67.550003	625.00	0.29	0.03		
2.50	25.50	31.00	9.00	20.50	2.25	10.00	0.00	1.25	0.00	0.00	0.50	0.75	0.50	0.50	0.00	0.00	-0.448242	0.156250	2.204102	3.570000	248.850006	-9.100000	1049.00	-0.32	-0.10	0.00	0.00	0.00	0.00	0.00	0.00	1.25	0.00	5.25	7.50	8.00	5.50	1.00	14.75	2.25	4.00	-2.937500	0.243652	3.059082	26.389999	571.549988	-61.670002	487.00	0.29	0.02		
2.51	24.75	30.75	10.25	23.00	3.25	14.00	0.25	2.25	0.00	0.00	0.75	1.25	1.00	0.25	0.00	0.00	-0.458496	0.403320	1.725586	-54.040001	181.720001	0.140000	1164.00	-0.30	-0.11	0.00	0.00	0.00	0.00	0.00	0.00	0.75	0.00	3.75	6.00	6.25	4.25	1.00	11.50	2.00	3.50	-2.208984	0.486328	3.392578	49.700001	566.510010	-78.120003	380.00	0.29	0.01		
2.52	26.00	31.50	11.50	24.25	4.25	16.25	0.25	2.75	0.00	0.00	0.75	0.75	1.00	0.50	0.00	0.25	-0.260254	-0.091797	1.299316	-69.440002	127.470001	3.780000	1253.00	-0.29	-0.11	0.00	0.00	0.00	0.00	0.00	0.00	0.50	0.00	2.50	4.50	5.00	3.50	1.00	8.75	1.00	2.50	-2.089844	0.780273	4.189453	53.410000	533.190002	-88.970001	284.00	0.29	0.00		
2.53	27.50	31.75	13.00	25.00	5.50	17.75	0.25	4.00	0.00	0.00	0.75	0.50	1.25	0.75	0.00	0.25	-0.184570	0.025879	1.281738	-52.709999	84.139999	-6.510000	1346.00	-0.28	-0.11	0.00	0.00	0.00	0.00	0.00	0.00	0.25	0.00	2.00	3.75	3.50	2.75	0.75	5.50	1.25	1.75	-0.972656	0.858887	4.501465	46.689999	443.450012	-109.410004	211.00	0.28	-0.00		
2.54	28.25	31.50	13.75	25.75	6.25	18.75	0.25	5.00	0.00	0.00	0.75	0.75	1.50	0.75	0.00	0.25	-0.236816	0.232422	1.012695	-43.330002	54.250000	-10.570000	1407.00	-0.28	-0.11	0.00	0.00	0.00	0.00	0.00	0.00	0.25	0.00	1.25	2.75	2.25	2.00	0.25	1.75	0.75	1.50	1.113770	0.930664	4.852539	37.520000	330.119995	-142.309998	127.00	0.27	-0.03	25.00	
2.55	29.25	31.25	14.75	25.50	6.75	19.25	0.25	5.00	0.00	0.00	0.75	0.75	1.50	1.00	0.00	0.25	-0.206543	0.141602	0.974121	-44.869999	47.880001	-5.460000	1437.00	-0.28	-0.11	0.00	0.00	0.00	0.00	0.00	0.00	0.00	0.00	0.50	2.00	1.75	1.25	0.00	1.00	0.25	0.50	1.460449	1.089355	3.443359	29.049999	241.850006	-146.720001	73.00	0.26	-0.03		
2.56	30.25	31.25	15.25	25.50	7.00	19.50	0.25	5.25	0.00	0.00	0.50	1.00	1.50	0.75	0.25	0.25	-0.190918	0.090332	1.046875	-44.099998	39.759998	-4.900000	1463.00	-0.28	-0.11	0.00	0.00	0.00	0.00	0.00	0.00	0.00	0.00	0.75	2.25	1.75	1.00	0.00	0.25	0.25	0.50	1.786133	2.000000	2.902344	-31.010000	191.589996	-106.190002	70.00	0.25	-0.03		
2.57	30.75	31.00	15.50	25.25	7.50	20.00	0.50	5.50	0.00	0.00	0.50	1.00	1.75	1.00	0.00	0.25	-0.208008	0.131348	0.972168	-36.680000	26.740000	-5.670000	1486.00	-0.27	-0.10	0.00	0.00	0.00	0.00	0.00	0.00	0.00	0.00	0.75	2.00	1.50	0.75	0.00	0.00	0.25	0.00	1.807129	1.470215	3.930664	-46.340000	-4.550000	-63.139999	57.00	0.24	-0.01		
2.58	30.25	30.00	15.75	25.25	7.75	20.50	0.50	5.50	0.00	0.00	0.50	1.00	1.75	1.00	0.00	0.25	-0.181152	0.122070	0.931152	-36.189999	22.260000	-4.480000	1482.00	-0.27	-0.10	0.00	0.00	0.00	0.00	0.00	0.00	0.00	0.00	0.50	1.75	1.25	0.75	0.00	0.25	0.25	0.25	1.033203	1.152832	2.664062	14.420000	-164.639999	-24.920000	52.00	0.25	-0.02		
2.59	29.50	29.50	15.75	24.50	8.00	20.75	0.50	5.75	0.00	0.00	0.75	1.00	1.75	0.75	0.25	0.25	-0.176270	0.085938	0.967773	-41.720001	20.930000	-4.410000	1474.00	-0.27	-0.11	0.00	0.00	0.00	0.00	0.00	0.00	0.00	0.00	0.00	1.75	1.25	0.75	0.00	0.00	0.25	0.00	0.855469	0.996582	2.122070	35.420002	-221.270004	-4.340000	42.00	0.00	0.00		
2.60	28.00	27.75	15.25	24.00	8.25	21.00	0.50	6.25	0.00	0.00	0.50	0.75	2.00	1.00	0.00	0.25	-0.194336	0.098633	0.980957	-45.150002	16.590000	-5.040000	1441.00	-0.26	-0.11	0.00	0.00	0.00	0.00	0.00	0.00	0.00	0.00	0.25	1.25	1.25	0.25	0.00	0.00	0.00	0.00	0.821289	0.774414	1.660645	62.860001	-241.919998	15.400000	32.00	0.00	0.00		
2.61	26.00	26.25	14.75	23.25	8.25	21.25	0.50	6.50	0.00	0.00	0.75	1.00	2.25	0.75	0.25	0.25	-0.199219	0.083008	0.981445	-41.160000	11.690000	-4.480000	1407.00	-0.26	-0.11	0.00	0.00	0.00	0.00	0.00	0.00	0.00	0.00	0.25	1.25	1.00	0.50	0.00	0.25	0.00	0.25	0.812012	0.564453	1.557617	88.550003	-263.480011	34.299999	36.00	0.00	0.00		
2.62	23.50	24.75	13.75	22.00	8.25	21.25	0.50	7.00	0.00	0.00	0.75	1.00	2.50	0.75	0.00	0.25	-0.218262	0.095215	0.980957	-32.970001	7.210000	-3.290000	1350.00	-0.25	-0.12	0.00	0.00	0.00	0.00	0.00	0.00	0.00	0.00	0.00	1.00	0.75	0.00	0.00	0.00	0.00	0.00	0.756836	0.283691	1.586426	99.680000	-291.269989	51.520000	18.00	0.00	0.00		
2.63	20.75	23.00	12.75	21.00	8.00	21.25	0.50	7.50	0.00	0.00	0.75	1.00	3.00	0.50	0.00	0.50	-0.193848	0.071777	0.970215	-23.450001	4.970000	-1.680000	1291.00	-0.24	-0.13	0.00	0.00	0.00	0.00	0.00	0.00	0.00	0.00	0.00	0.75	0.75	0.25	0.00	0.00	0.00	0.00	0.650391	0.060547	1.601562	101.290001	-322.209991	70.419998	18.00	0.00	0.00		
2.64	17.75	20.50	11.25	19.50	7.75	21.00	0.50	8.00	0.00	0.00	1.00	1.25	3.25	0.50	0.00	0.50	-0.201172	0.064453	0.970215	-16.240000	4.480000	-0.560000	1214.00	-0.23	-0.14	0.00	0.00	0.00	0.00	0.00	0.00	0.00	0.00	0.00	0.75	0.75	0.25	0.00	0.00	0.25	0.00	0.512207	-0.136230	1.521973	91.209999	-351.329987	88.970001	21.00	0.00	0.00		
2.65	14.25	17.75	10.00	18.00	7.75	20.75	0.50	8.25	0.00	0.00	0.75	1.25	3.50	0.25	0.00	0.50	-0.199219	0.086426	0.964355	-11.200000	4.760000	0.000000	1120.00	-0.22	-0.15	0.00	0.00	0.00	0.00	0.00	0.00	0.00	0.00	0.00	0.75	0.50	0.25	0.00	0.00	0.00	0.00	0.339844	-0.240723	1.370605	74.900002	-374.920013	105.840004	16.00	0.00	0.00		
2.66	11.00	15.00	9.00	16.50	7.25	20.75	0.50	8.75	0.00	0.00	1.00	1.50	3.50	0.50	0.25	0.75	-0.191895	0.085449	0.952637	-10.080000	5.110000	0.490000	1047.00	-0.20	-0.16	0.25	0.00	0.00	0.00	0.00	0.00	0.00	0.00	0.00	0.50	0.50	0.25	0.00	0.00	0.00	0.00	0.168945	-0.289062	1.296875	58.660000	-390.320007	119.139999	16.00	0.00	0.00		
2.67	8.50	12.75	8.25	14.50	6.75	20.50	0.50	9.00	0.00	0.25	1.00	1.25	4.75	0.25	0.25	0.50	-0.184082	0.081543	0.944336	-15.750000	5.390000	0.770000	973.00	-0.19	-0.17	0.00	0.00	0.00	0.00	0.00	0.00	0.00	0.00	0.00	0.50	0.25	0.00	0.00	0.00	0.00	0.00	0.054688	-0.272949	1.246582	48.020000	-398.440002	126.699997	8.00	0.00	0.00		
2.68	7.00	9.75	7.25	12.50	6.50	20.00	0.50	9.50	0.00	0.25	1.00	1.50	5.25	0.25	0.25	0.75	-0.184082	0.081543	0.944336	-15.750000	5.390000	0.770000	905.00	-0.17	-0.19	0.00	0.00	0.00	0.00	0.00	0.00	0.00	0.00	0.00	0.00	0.00	0.00	0.00	0.00	0.00	0.00	-0.142578	-0.323730	1.323730	38.709999	-406.630005	119.770004	0.00	0.00	0.00		
2.69	5.75	8.25	6.25	10.75	6.25	19.75	0.50	9.75	0.00	0.25	1.25	1.75	5.75	0.00	0.25	0.75	-0.189941	0.065918	0.957031	-20.930000	2.660000	-0.560000	853.00	-0.15	-0.20	0.25	0.00	0.00	0.00	0.00	0.00	0.00	0.00	0.00	0.25	0.25	0.25	0.00	0.00	0.00	0.00	-0.142578	-0.323730	1.323730	38.709999	-406.630005	119.770004	10.00	0.00	0.00		
2.70	5.00	6.75	5.50	9.25	5.75	19.00	0.50	10.00	0.25	0.25	1.25	1.75	6.00	0.50	0.25	0.75	-0.195312	0.064941	0.954102	-23.799999	-0.560000	-3.080000	807.00	-0.14	-0.20	0.00	0.00	0.00	0.00	0.00	0.00	0.00	0.00	0.00	0.25	0.25	0.00	0.00	0.00	0.00	0.00	-0.345215	-0.327637	1.572266	37.590000	-415.029999	90.370003	5.00	0.00	0.00		
2.71	4.00	5.75	5.00	8.25	5.50	18.50	0.50	10.00	0.25	0.50	1.25	2.00	6.25	0.50	0.00	1.00	-0.174805	0.068359	0.958984	-25.620001	-4.900000	-6.160000	769.00	-0.13	-0.21	0.00	0.00	0.00	0.00	0.00	0.00	0.00	0.00	0.00	0.00	0.00	0.00	0.00	0.00	0.00	0.00	-0.439941	-0.331543	1.702148	34.369999	-420.910004	71.260002	0.00	0.00	0.00		
2.72	3.50	5.25	4.25	7.25	5.25	17.75	0.75	10.25	0.25	0.50	1.75	2.00	6.50	0.25	0.25	1.00	-0.203125	0.067383	0.958008	-26.530001	-9.730000	-8.330000	744.00	-0.11	-0.21	0.00	0.00	0.00	0.00	0.00	0.00	0.00	0.00	0.00	0.00	0.00	0.00	0.00	0.00	0.00	0.00	-0.529785	-0.297363	1.827637	28.559999	-428.049988	51.730000	0.00	0.00	0.00		
2.73	2.75	5.00	4.00	6.50	5.25	17.25	0.75	10.25	0.25	0.75	1.75	2.50	6.75	0.50	0.25	1.25	-0.203613	0.057129	0.966797	-21.070000	-11.900000	-9.170000	731.00	-0.10	-0.22	0.00	0.00	0.00	0.00	0.00	0.00	0.00	0.00	0.00	0.00	0.00	0.00	0.00	0.00	0.00	0.00	-0.621582	-0.218262	1.935547	24.080000	-434.910004	32.970001	0.00	0.00	0.00		
2.74	2.50	5.00	3.75	6.00	5.00	16.75	0.75	10.25	0.25	0.75	2.00	2.75	7.00	0.25	0.50	1.25	-0.183105	0.044434	0.960449	-12.390000	-9.380000	-7.700000	720.00	-0.09	-0.22	0.00	0.00	0.00	0.00	0.00	0.00	0.00	0.00	0.00	0.00	0.00	0.00	0.00	0.00	0.00	0.00	-0.710449	-0.136719	2.010742	21.700001	-440.720001	16.309999	0.00	0.00	0.00		
2.75	2.25	4.00	3.25	5.50	4.75	16.25	0.75	10.25	0.25	1.00	2.25	3.00	7.50	0.75	0.50	1.50	-0.192383	0.054199	0.954590	-8.540000	-7.210000	-7.000000	707.00	-0.07	-0.23	0.00	0.00	0.00	0.00	0.00	0.00	0.00	0.00	0.00	0.00	0.00	0.00	0.00	0.00	0.00	0.00	-0.830078	-0.036621	2.118164	23.730000	-446.809998	2.590000	0.00	0.00	0.00		
2.76	2.25	3.75	3.00	5.25	4.50	15.50	0.75	10.25	0.50	1.25	2.75	3.25	8.00	0.75	0.50	1.50	-0.178223	0.049316	0.959961	-7.070000	-6.230000	-6.580000	706.00	-0.06	-0.23	0.00	0.00	0.00	0.00	0.00	0.00	0.00	0.00	0.00	0.00	0.00	0.00	0.00	0.00	0.00	0.00	-0.936523	0.048828	2.187500	29.889999	-450.660004	-7.070000	0.00	0.00	0.00		
2.77	1.25	3.50	2.75	4.50	4.50	14.75	0.75	10.25	0.50	1.50	3.25	4.00	8.25	0.50	0.75	1.75	-0.175781	0.055176	0.964844	-6.860000	-5.180000	-6.440000	694.00	-0.04	-0.23	0.00	0.00	0.00	0.00	0.00	0.00	0.00	0.00	0.00	0.00	0.00	0.00	0.00	0.00	0.00	0.00	-1.011719	0.132812	2.278809	34.720001	-451.640015	-11.410000	0.00	0.00	0.00		
2.78	1.75	3.25	2.50	4.50	4.25	13.75	0.75	10.00	0.75	2.00	3.75	4.50	8.50	1.25	1.00	2.00	-0.166992	0.053711	0.958984	-7.980000	-3.430000	-6.720000	708.00	-0.03	-0.22	0.25	0.00	0.00	0.00	0.00	0.00	0.00	0.00	0.00	0.00	0.00	0.00	0.00	0.00	0.00	0.00	-1.113770	0.240723	2.358398	36.610001	-450.450012	-9.310000	3.00	0.00	0.00		
2.79	1.75	3.00	2.25	3.75	3.75	12.25	0.75	9.75	1.25	2.50	5.00	5.25	8.75	1.75	1.00	2.00	-0.166504	0.052734	0.966309	-9.170000	-0.630000	-7.630000	708.00	-0.00	-0.21	0.00	0.00	0.00	0.00	0.00	0.00	0.00	0.00	0.00	0.00	0.00	0.00	0.00	0.00	0.00	0.00	-1.213379	0.350098	2.414551	36.470001	-444.779999	-0.420000	0.00	0.00	0.00		
2.80	1.50	2.50	2.00	2.75	3.50	10.50	0.75	9.50	2.00	3.00	6.75	6.50	9.00	2.50	1.25	2.50	-0.172852	0.054688	0.961914	-8.890000	1.610000	-9.030000	722.00	0.03	-0.20	0.00	0.00	0.00	0.00	0.00	0.00	0.00	0.00	0.00	0.00	0.00	0.00	0.00	0.00	0.00	0.00	-1.316406	0.419922	2.499023	36.959999	-433.929993	13.580000	0.00	0.00	0.00		
2.81	1.25	2.25	1.75	3.00	2.75	9.00	1.00	9.00	3.00	4.25	8.00	6.75	9.25	3.00	1.25	2.50	-0.176270	0.054688	0.968750	-8.050000	4.620000	-10.710000	737.00	0.06	-0.19	0.00	0.00	0.00	0.00	0.00	0.00	0.00	0.00	0.00	0.00	0.00	0.00	0.00	0.00	0.00	0.00	-1.405762	0.459473	2.561035	42.000000	-420.350006	29.820000	0.00	0.00	0.00		
2.82	1.25	2.00	1.50	2.50	2.50	8.00	1.00	8.50	4.25	6.25	8.75	7.75	9.25	4.00	1.50	2.50	-0.183105	0.041992	0.964844	-6.230000	7.350000	-12.600000	772.00	0.08	-0.16	0.00	0.00	0.00	0.00	0.00	0.00	0.00	0.00	0.00	0.00	0.00	0.00	0.00	0.00	0.00	0.00	-1.539062	0.458496	2.603516	56.209999	-407.260010	44.170002	0.00	0.00	0.00		
2.83	1.25	2.00	1.50	2.00	2.00	7.00	1.00	8.25	5.50	7.75	9.75	8.25	9.75	4.50	1.50	2.75	-0.179199	0.046387	0.968750	-2.940000	10.570000	-14.350000	804.00	0.10	-0.15	0.00	0.00	0.00	0.00	0.00	0.00	0.00	0.00	0.00	0.00	0.00	0.00	0.00	0.00	0.00	0.00	-1.738770	0.375977	2.626465	77.980003	-397.040009	52.709999	0.00	0.00	0.00		
2.84	1.25	1.50	1.00	2.00	1.50	6.25	1.00	7.75	7.50	8.75	11.00	9.00	9.75	5.00	1.75	3.00	-0.181641	0.038086	0.964355	1.260000	13.510000	-15.260000	839.00	0.13	-0.13	0.00	0.00	0.00	0.00	0.00	0.00	0.00	0.00	0.00	0.00	0.00	0.00	0.00	0.00	0.00	0.00	-2.028809	0.284668	2.582031	98.910004	-387.309998	54.250000	0.00	0.00	0.00		
2.85	1.00	1.25	1.00	1.75	1.00	5.50	1.00	7.25	8.75	9.50	12.00	9.75	10.25	6.00	2.00	3.50	-0.172852	0.039551	0.966797	5.740000	16.520000	-15.400000	871.00	0.15	-0.12	0.00	0.00	0.00	0.00	0.00	0.00	0.00	0.00	0.00	0.00	0.00	0.00	0.00	0.00	0.00	0.00	-2.389160	0.157715	2.345703	113.400002	-372.540009	49.279999	0.00	0.00	0.00		
2.86	1.50	1.00	0.75	1.75	0.75	5.00	1.00	7.00	9.50	10.25	13.00	10.50	10.50	7.00	2.00	3.50	-0.183105	0.035156	0.970703	10.990000	20.650000	-14.910000	905.00	0.15	-0.11	0.00	0.00	0.00	0.00	0.00	0.00	0.00	0.00	0.00	0.00	0.00	0.00	0.00	0.00	0.00	0.00	-2.728516	0.036621	1.888184	120.050003	-349.720001	40.250000	0.00	0.00	0.00		
2.87	0.75	1.25	0.75	1.75	0.75	4.00	1.00	6.50	10.25	11.00	13.75	11.25	10.50	7.75	2.25	3.50	-0.201172	0.041504	0.963867	20.299999	34.650002	-12.390000	924.00	0.17	-0.10	0.00	0.00	0.00	0.00	0.00	0.00	0.00	0.00	0.00	0.00	0.00	0.00	0.00	0.00	0.00	0.00	-3.049805	-0.054688	1.404785	123.410004	-316.049988	32.619999	0.00	0.00	0.00		
2.88	1.00	0.50	0.75	1.75	0.25	3.75	1.00	6.00	11.00	11.75	14.75	12.00	10.75	8.25	2.50	4.25	-0.208984	0.041504	0.984375	29.260000	51.450001	-11.410000	953.00	0.18	-0.10	0.00	0.00	0.00	0.00	0.00	0.00	0.00	0.00	0.00	0.00	0.00	0.00	0.00	0.00	0.00	0.00	-3.359375	-0.224121	1.083496	128.800003	-270.619995	31.010000	0.00	0.00	0.00		
2.89	1.00	1.00	0.75	1.75	0.50	3.25	1.00	5.75	11.75	12.50	16.00	13.00	11.00	8.75	2.50	4.25	-0.230957	0.071777	0.974609	46.900002	93.449997	-11.830000	999.00	0.18	-0.09	0.00	0.00	0.00	0.00	0.00	0.00	0.00	0.00	0.00	0.00	0.00	0.00	0.00	0.00	0.00	0.00	-3.666016	-0.469727	0.792969	129.360001	-221.130005	38.430000	0.00	0.00	0.00		
2.90	1.00	1.00	0.75	1.50	0.25	2.75	1.00	5.25	12.50	13.25	16.75	13.50	11.00	9.50	2.75	4.50	-0.252930	0.068848	1.001953	49.000000	118.230003	-11.970000	1021.00	0.19	-0.09	0.25	0.00	0.00	0.00	0.00	0.00	0.00	0.00	0.00	0.00	0.00	0.00	0.00	0.00	0.00	0.00	-4.229980	-0.795410	0.207520	88.620003	-120.959999	55.510002	3.00	0.00	0.00		
2.91	1.00	1.25	0.50	1.50	0.25	2.50	1.00	5.00	13.25	13.75	17.75	14.25	11.25	10.00	3.00	4.75	-0.278320	0.082520	1.000000	44.099998	149.589996	-13.160000	1058.00	0.20	-0.08	0.00	0.00	0.00	0.00	0.00	0.00	0.00	0.00	0.00	0.00	0.00	0.00	0.00	0.00	0.00	0.00	-4.366211	-0.863281	0.144531	61.810001	-69.720001	47.180000	0.00	0.00	0.00		
2.92	1.00	1.25	0.25	1.75	0.25	2.25	1.00	4.75	13.75	14.50	18.50	15.00	11.25	11.00	3.00	5.00	-0.311523	0.082520	1.014648	36.540001	181.369995	-14.140000	1092.00	0.20	-0.08	0.00	0.00	0.00	0.00	0.00	0.00	0.00	0.00	0.00	0.00	0.00	0.00	0.00	0.00	0.00	0.00	-4.445801	-0.842285	0.212891	36.049999	-17.430000	24.990000	0.00	0.00	0.00		
2.93	1.00	0.75	0.25	1.00	0.00	2.00	1.00	4.00	14.50	15.00	19.25	15.50	11.00	11.75	3.00	5.25	-0.314453	0.062012	1.014160	28.139999	211.960007	-14.070000	1096.00	0.21	-0.07	0.25	0.00	0.00	0.00	0.00	0.00	0.00	0.00	0.00	0.00	0.00	0.00	0.00	0.00	0.00	0.00	-4.143066	-0.668945	0.086914	5.950000	38.220001	-3.710000	3.00	0.00	0.00		
2.94	0.75	1.00	0.50	1.25	0.00	1.75	1.00	3.50	14.75	15.25	19.75	16.00	10.75	12.75	3.25	5.50	-0.369629	0.093262	1.058105	21.700001	243.110001	-13.440001	1117.00	0.21	-0.06	0.00	0.00	0.00	0.00	0.00	0.00	0.00	0.00	0.00	0.00	0.00	0.00	0.00	0.00	0.00	0.00	-3.717773	-0.325195	0.314453	-22.190001	88.900002	-29.750000	0.00	0.00	0.00		
2.95	1.25	0.75	0.25	1.00	0.25	1.50	1.25	3.25	15.00	15.75	20.25	15.75	10.25	13.25	4.00	5.75	-0.429688	0.114746	1.125977	18.200001	273.559998	-15.190001	1135.00	0.22	-0.06	0.00	0.00	0.00	0.00	0.00	0.00	0.00	0.00	0.00	0.00	0.00	0.00	0.00	0.00	0.00	0.00	-3.207520	0.006836	0.759766	-28.559999	129.289993	-45.290001	0.00	0.00	0.00		
2.96	1.00	1.00	0.25	0.75	0.25	1.50	1.50	3.00	15.00	16.00	20.50	16.00	9.75	14.00	4.50	6.00	-0.457520	0.111816	1.132812	15.960000	303.660004	-19.040001	1148.00	0.22	-0.05	1.00	0.00	0.00	0.00	0.00	0.00	0.00	0.00	0.00	0.00	0.00	0.00	0.00	0.00	0.00	0.00	-2.132812	-0.284668	8.206543	10.990000	429.660004	39.060001	10.00	0.00	0.00		
2.97	0.75	1.25	0.25	1.00	0.00	1.25	1.75	2.50	15.00	16.25	20.50	15.75	9.00	14.25	5.00	6.50	-0.540039	0.120605	1.180176	13.930000	337.399994	-24.010000	1145.00	0.23	-0.05	2.50	4.00	0.50	0.50	0.25	0.00	0.00	0.00	0.00	0.00	0.00	0.00	0.00	0.00	0.00	0.00	1.286133	1.314941	-1.191406	-74.129997	305.130005	60.130001	77.00	-0.38	-0.05	221.00	
2.98	0.50	1.25	0.25	1.00	0.25	1.25	2.25	2.25	14.75	16.50	20.75	15.50	8.50	14.75	5.25	6.75	-0.556152	0.119141	1.167969	10.780000	378.140015	-29.960001	1152.00	0.23	-0.04	15.50	16.75	1.50	3.00	0.25	0.00	0.00	0.00	0.00	0.50	0.50	0.50	0.00	0.00	0.00	0.00	0.731934	0.919434	-0.013184	-48.230000	178.710007	85.330002	383.00	-0.36	-0.04		
2.99	0.75	1.00	0.00	0.75	0.00	1.00	2.50	2.00	14.25	16.50	20.50	15.25	7.75	14.75	5.25	7.00	-0.634766	0.151367	1.162598	7.210000	424.619995	-38.009998	1124.00	0.23	-0.04	24.50	23.50	3.00	5.75	0.25	0.00	0.00	0.00	0.00	0.25	0.50	0.25	0.00	0.00	0.00	0.00	-2.149902	-1.179688	0.817871	21.770000	360.709991	100.309998	580.00	-0.38	-0.04		
3.00	0.50	1.00	0.25	0.75	0.00	0.75	2.75	1.75	13.25	16.25	20.25	14.50	7.00	14.75	5.25	7.00	-0.681152	0.184570	1.193359	2.800000	476.559998	-48.299999	1089.00	0.23	-0.04	27.25	24.50	4.75	9.25	0.50	0.75	0.00	0.00	0.00	0.25	0.75	0.25	0.00	0.00	0.00	0.00	-1.142578	-0.751465	3.898926	-45.009998	553.489990	52.570000	689.00	-0.36	-0.04		
3.01	0.50	0.75	0.00	0.00	0.00	1.00	3.00	1.50	11.50	15.50	19.50	14.00	6.25	14.50	5.00	7.00	-0.795898	0.104492	1.315430	-6.930000	530.109985	-56.070000	1023.00	0.24	-0.04	28.75	25.00	7.75	12.25	0.75	3.00	0.00	0.00	0.00	0.50	0.75	0.75	0.00	0.00	0.00	0.00	-1.121582	-0.548340	6.452148	-52.080002	433.790009	15.330000	810.00	-0.34	-0.05		
3.02	0.00	0.25	0.00	0.00	0.00	0.75	3.00	1.25	9.75	13.75	17.75	13.00	5.50	14.75	4.75	6.50	-0.983398	0.178711	1.449707	-22.469999	579.109985	-59.290001	927.00	0.25	-0.03	27.00	24.00	8.75	13.75	1.25	6.25	0.00	0.25	0.00	0.50	1.00	1.00	0.00	0.00	0.00	0.00	-0.533691	0.130859	2.545898	-35.139999	276.010010	-18.270000	861.00	-0.33	-0.06		215.00
3.03	0.25	0.50	0.00	0.00	0.00	0.00	2.75	0.50	7.75	11.00	14.75	11.00	4.00	15.00	4.25	5.75	-2.791016	-0.041992	2.669922	-35.070000	621.880005	-47.110001	781.00	0.26	-0.02	24.75	22.75	9.50	15.50	2.00	9.00	0.00	0.75	0.00	0.50	1.00	1.00	0.00	0.00	0.00	0.00	-0.111816	0.718750	1.060547	-4.270000	223.509995	-8.610000	899.00	-0.31	-0.08		
3.04	0.00	0.00	0.00	0.00	0.00	0.00	2.25	0.25	5.25	8.75	11.75	9.00	3.00	14.50	3.50	4.75	-2.791016	-0.041992	2.669922	-35.070000	621.880005	-47.110001	628.00	0.27	-0.02	23.50	22.50	10.50	16.75	3.00	12.25	0.00	1.75	0.00	0.50	1.25	1.50	0.25	0.00	0.00	0.25	-0.290039	0.334961	1.431641	-18.410000	241.290009	15.120000	982.00	-0.29	-0.09		
3.05	0.25	0.25	0.00	0.00	0.00	0.00	1.75	0.00	3.00	6.50	9.50	7.25	2.25	12.75	2.75	3.50	-3.945312	0.412598	3.609863	-3.500000	638.539978	-16.379999	490.00	0.27	-0.02	23.75	22.00	11.25	17.25	4.50	14.25	0.00	3.00	0.00	0.25	1.50	1.50	0.50	0.00	0.00	0.25	-0.272461	0.114746	1.727051	-57.750000	211.960007	21.350000	1053.00	-0.28	-0.10		
3.06	0.25	0.25	0.00	0.00	0.00	0.00	1.25	0.00	2.25	4.75	7.50	6.25	1.75	11.25	2.25	3.00	-3.226074	0.423340	3.412598	32.759998	661.080017	9.450000	398.00	0.27	-0.02	23.25	21.75	12.00	17.75	5.50	15.25	0.00	4.00	0.00	0.75	1.50	1.50	0.25	0.00	0.00	0.50	-0.245605	-0.062012	1.565918	-81.760002	140.419998	11.270000	1101.00	-0.27	-0.10		
3.07	0.25	0.00	0.00	0.00	0.00	0.00	0.75	0.00	1.50	3.50	5.75	5.25	1.50	9.50	2.00	2.25	-2.507812	1.380859	4.353516	132.720001	631.539978	-14.350000	313.00	0.28	-0.03	24.00	21.75	12.50	17.75	6.25	16.00	0.25	5.00	0.00	0.75	1.50	1.50	0.75	0.00	0.00	0.50	-0.184082	0.106445	1.258789	-67.620003	82.320000	0.560000	1154.00	-0.26	-0.10		
3.08	0.00	0.00	0.00	0.00	0.00	0.00	0.25	0.00	1.00	2.75	4.50	4.25	1.25	7.50	1.50	1.50	-2.507812	1.380859	4.353516	132.720001	631.539978	-14.350000	236.00	0.29	-0.04																											
3.09	0.00	0.00	0.00	0.00	0.00	0.00	0.25	0.00	1.00	2.25	3.25	3.25	1.00	3.00	0.50	0.75	-1.517578	1.133789	5.559082	157.919998	554.960022	-47.180000	152.00	0.26	-0.06	24.50	21.75	13.00	18.00	7.00	17.00	0.25	5.50	0.00	0.75	1.25	1.25	0.75	0.00	0.00	0.75	-0.147461	0.094238	1.048828	-56.560001	17.710001	3.360000	1190.00	-0.26	-0.10		
3.10	0.25	0.00	0.00	0.00	0.00	0.00	0.00	0.00	0.00	1.50	2.00	1.50	0.75	1.00	0.50	0.25	2.504883	0.673340	4.318848	201.949997	288.610016	-109.620003	77.00	0.23	-0.11	24.75	21.25	13.25	18.25	7.25	17.00	0.25	6.00	0.00	0.75	1.50	1.50	0.75	0.00	0.00	0.75	-0.144531	0.123047	1.001953	-45.009998	7.280000	2.590000	1209.00	-0.26	-0.11		
3.11	0.00	0.00	0.00	0.00	0.00	0.00	0.00	0.00	0.25	0.75	2.25	1.75	0.50	0.50	0.50	0.50	2.692383	1.696289	3.054199	59.639999	191.589996	-112.770004	70.00	0.25	-0.13	24.50	21.25	13.25	18.00	7.50	17.50	0.25	5.75	0.00	0.75	1.25	1.50	1.00	0.00	0.00	0.50	-0.144531	0.104004	1.006348	-36.049999	3.010000	3.500000	1207.00	-0.26	-0.11		
3.12	0.25	0.00	0.00	0.00	0.00	0.00	0.00	0.00	0.00	1.25	1.75	1.25	0.50	0.00	0.25	0.25	1.794922	1.680664	4.700195	-52.639999	-52.220001	-52.220001	55.00	0.20	-0.14	23.75	20.75	13.00	17.75	7.50	17.50	0.25	6.25	0.00	0.75	1.00	1.75	1.00	0.00	0.00	0.50	-0.135254	0.098145	1.015625	-23.870001	0.000000	4.270000	1196.00	-0.25	-0.11		
3.13	0.00	0.00	0.00	0.00	0.00	0.00	0.00	0.00	0.25	0.75	1.75	1.25	0.25	0.25	0.00	0.00	1.094727	0.934570	2.695312	-43.959999	-236.250000	16.660000	47.00	0.00	0.00	22.75	20.00	12.50	17.50	7.50	17.75	0.25	6.50	0.00	0.75	1.25	1.50	0.75	0.00	0.00	0.75	-0.145508	0.097656	1.000000	-11.340000	-2.660000	4.550000	1177.00	-0.25	-0.11		
3.14	0.00	0.00	0.00	0.00	0.00	0.00	0.00	0.00	0.25	1.00	1.50	1.00	0.00	0.25	0.00	0.25	0.649902	0.648438	2.096191	-66.290001	-289.730011	41.509998	43.00	0.00	0.00	21.00	19.25	12.00	17.00	7.25	18.00	0.25	6.75	0.00	0.25	1.25	1.50	1.25	0.00	0.25	0.50	-0.147949	0.113770	1.000000	-0.630000	-4.130000	6.230000	1145.00	-0.25	-0.12		
3.15	0.25	0.25	0.00	0.00	0.00	0.00	0.00	0.00	0.00	1.00	1.25	1.00	0.25	0.00	0.00	0.00	0.527344	0.502930	1.505371	-59.150002	-302.540009	50.680000	41.00	0.00	0.00	18.50	18.25	11.25	16.50	6.75	17.75	0.25	7.25	0.00	0.75	1.25	1.50	1.25	0.00	0.00	1.00	-0.128418	0.104492	0.997559	9.520000	-4.690000	8.190000	1100.00	-0.24	-0.13		
3.16	0.00	0.00	0.00	0.00	0.00	0.00	0.00	0.00	0.00	0.75	1.25	0.75	0.00	0.00	0.00	0.00	0.429688	0.422852	1.387695	-29.400000	-312.480011	49.139999	29.00	0.00	0.00	16.25	16.75	10.25	15.75	6.25	17.75	0.25	7.75	0.25	0.75	1.25	1.75	1.75	0.00	0.00	0.75	-0.134277	0.094238	0.988281	18.620001	-5.740000	9.240000	1055.00	-0.23	-0.14		
3.17	0.00	0.00	0.00	0.00	0.00	0.00	0.00	0.00	0.00	0.25	0.50	0.75	0.00	0.00	0.00	0.00	0.320801	0.217773	1.458984	5.950000	-334.459991	41.509998	16.00	0.00	0.00	13.25	15.00	9.25	14.75	6.00	17.50	0.25	8.25	0.00	0.75	1.00	1.50	1.75	0.00	0.00	0.50	-0.121094	0.105469	0.996582	23.100000	-6.370000	10.290000	978.00	-0.22	-0.15		
3.18	0.00	0.00	0.00	0.00	0.00	0.00	0.00	0.00	0.00	0.50	1.00	0.75	0.00	0.00	0.00	0.00	0.233398	-0.045898	1.538086	32.340000	-366.940002	36.400002	24.00	0.00	0.00	10.25	13.25	8.25	13.75	5.50	17.50	0.25	8.75	0.00	0.75	1.25	1.75	2.50	0.00	0.00	0.75	-0.112305	0.111816	0.978516	23.309999	-5.250000	10.360000	924.00	-0.20	-0.16		
3.19	0.25	0.00	0.00	0.00	0.00	0.00	0.00	0.00	0.00	0.75	1.00	0.25	0.25	0.00	0.00	0.00	0.114746	-0.226562	1.502930	37.939999	-397.880005	34.160000	26.00	0.00	0.00	8.25	11.00	7.00	12.50	5.00	17.50	0.25	9.00	0.00	0.75	1.50	2.00	3.00	0.00	0.00	0.50	-0.113770	0.111816	0.954590	17.570000	-3.500000	9.450000	861.00	-0.18	-0.18		
3.20	0.00	0.00	0.00	0.00	0.00	0.00	0.00	0.00	0.00	0.50	1.00	0.25	0.00	0.00	0.00	0.00	-0.041992	-0.325195	1.391113	25.690001	-417.059998	32.689999	18.00	0.00	0.00	6.50	9.25	6.00	11.25	4.00	17.00	0.25	9.25	0.00	0.75	1.25	2.00	3.50	0.00	0.25	0.75	-0.108398	0.126953	0.944336	4.340000	0.140000	7.770000	795.00	-0.17	-0.19		
3.21	0.00	0.00	0.00	0.00	0.00	0.00	0.00	0.00	0.00	0.25	0.75	0.25	0.00	0.00	0.00	0.00	-0.176270	-0.343262	1.358398	6.790000	-424.480011	30.940001	13.00	0.00	0.00	5.00	7.75	5.00	10.25	3.75	16.50	0.25	9.75	0.00	1.00	1.50	2.25	3.75	0.00	0.00	0.75	-0.116699	0.124512	0.928711	-10.920000	4.200000	6.720000	751.00	-0.15	-0.21		
3.22	0.00	0.00	0.00	0.00	0.00	0.00	0.00	0.00	0.00	0.25	0.25	0.00	0.00	0.00	0.00	0.00	-0.239746	-0.320312	1.354492	-13.930000	-427.700012	25.760000	5.00	0.00	0.00	4.00	6.50	4.00	9.25	3.50	16.25	0.25	9.75	0.00	1.00	1.75	2.50	4.75	0.00	0.00	0.75	-0.099609	0.132324	0.924805	-30.240000	7.350000	3.360000	715.00	-0.13	-0.22		
3.23	0.00	0.00	0.00	0.00	0.00	0.00	0.00	0.00	0.00	0.25	0.75	0.25	0.00	0.00	0.00	0.00	-0.263184	-0.238281	1.255859	-31.010000	-430.429993	15.750000	13.00	0.00	0.00	3.00	5.25	3.00	8.25	3.25	15.50	0.25	10.00	0.00	1.25	2.00	2.50	5.00	0.00	0.00	0.75	-0.045898	0.153809	0.985352	-58.170002	7.770000	-1.540000	671.00	-0.11	-0.23		
3.24	0.00	0.00	0.00	0.00	0.00	0.00	0.00	0.00	0.00	0.00	0.50	0.00	0.00	0.00	0.00	0.00	-0.343750	-0.093750	1.283203	-34.790001	-431.059998	2.240000	5.00	0.00	0.00	2.25	5.00	2.75	7.75	3.25	15.00	0.50	10.25	0.25	1.50	2.25	3.00	5.50	0.00	0.25	1.00	-0.121094	0.095703	0.938477	-83.580002	2.520000	-7.350000	677.00	-0.09	-0.23		
3.25	0.00	0.00	0.00	0.00	0.00	0.00	0.00	0.00	0.00	0.00	0.50	0.00	0.00	0.00	0.00	0.00	-0.421387	-0.024414	1.356934	-24.570000	-427.350006	-13.510000	5.00	0.00	0.00	2.25	4.00	2.50	6.50	3.25	14.50	0.50	10.00	0.25	1.50	2.50	3.25	6.00	0.00	0.25	1.25	-0.159668	0.103516	1.013672	-94.500000	-4.410000	-12.110000	653.00	-0.08	-0.23		
3.26	0.00	0.00	0.00	0.00	0.00	0.00	0.00	0.00	0.00	0.00	0.50	0.00	0.00	0.00	0.00	0.00	-0.465820	-0.018555	1.513672	-8.330000	-423.290009	-30.100000	5.00	0.00	0.00	2.00	3.50	2.50	6.25	3.00	13.50	0.75	10.00	0.50	1.75	2.75	3.50	6.75	0.00	0.00	1.50	-0.172852	0.088379	1.049316	-69.720001	-9.520000	-13.930000	650.00	-0.07	-0.23		
3.27	0.00	0.25	0.00	0.00	0.00	0.00	0.00	0.00	0.00	0.00	0.25	0.00	0.00	0.00	0.00	0.00	-0.545410	-0.002930	1.677246	4.200000	-423.850006	-46.200001	5.00	0.00	0.00	2.25	3.50	1.75	5.50	3.00	12.75	0.75	9.75	0.50	2.00	3.50	4.25	7.00	0.00	0.25	1.75	-0.137207	0.070801	1.006348	-37.660000	-10.920000	-13.020000	649.00	-0.05	-0.23		
3.28	0.00	0.00	0.00	0.00	0.00	0.00	0.00	0.00	0.00	0.00	0.50	0.00	0.00	0.00	0.00	0.00	-0.709961	0.043945	1.778809	12.740000	-427.910004	-61.320000	5.00	0.00	0.00	1.50	2.75	2.00	5.00	3.00	11.50	0.75	9.25	1.00	2.50	3.75	4.50	7.25	0.00	0.75	2.25	-0.118164	0.087891	0.973145	-19.389999	-7.840000	-9.380000	637.00	-0.02	-0.23		
3.29	0.00	0.00	0.00	0.00	0.00	0.00	0.00	0.00	0.00	0.00	0.00	0.00	0.00	0.00	0.00	0.00	-0.830078	0.089355	1.847168	23.100000	-430.850006	-75.320000	0.00	0.00	0.00	1.25	2.75	1.50	4.25	2.75	10.25	1.00	8.75	1.50	3.00	5.75	5.00	7.25	0.25	0.75	2.50	-0.161133	0.071777	0.988281	-14.560000	-5.320000	-7.910000	642.00	0.00	-0.21		
3.30	0.00	0.00	0.00	0.00	0.00	0.00	0.00	0.00	0.00	0.00	0.00	0.00	0.00	0.00	0.00	0.00	-0.948242	0.175781	1.972656	36.400002	-430.709991	-85.959999	0.00	0.00	0.00	1.50	2.25	1.50	3.75	2.50	9.25	1.25	8.25	2.25	4.25	6.75	5.50	7.00	0.25	1.00	2.75	-0.144043	0.062988	0.995605	-14.630000	-2.310000	-5.670000	657.00	0.03	-0.19		
3.31	0.00	0.00	0.00	0.00	0.00	0.00	0.00	0.00	0.00	0.00	0.00	0.00	0.00	0.00	0.00	0.00	-1.063965	0.316406	2.092285	60.200001	-425.529999	-88.830002	0.00	0.00	0.00	1.50	1.75	1.50	3.00	2.50	8.25	1.50	7.75	3.25	5.75	8.00	6.25	7.00	0.50	1.25	3.00	-0.146973	0.061035	0.997070	-13.090000	0.210000	-6.650000	686.00	0.05	-0.17		
3.32	0.25	0.00	0.00	0.00	0.00	0.00	0.00	0.00	0.00	0.00	0.00	0.00	0.00	0.00	0.00	0.00	-1.164551	0.367188	2.171875	66.500000	-421.329987	-80.010002	3.00	0.00	0.00	1.25	1.50	1.50	2.50	2.50	7.25	1.50	7.50	4.50	7.50	8.50	6.75	7.00	1.25	1.25	3.25	-0.148926	0.062012	0.997559	-10.570000	2.660000	-7.700000	714.00	0.08	-0.15		
3.33	0.00	0.00	0.00	0.00	0.00	0.00	0.00	0.00	0.00	0.00	0.00	0.00	0.00	0.00	0.00	0.00	-1.219238	0.451660	2.176758	64.260002	-413.769989	-64.050003	0.00	0.00	0.00	1.25	1.25	1.25	2.00	2.25	6.50	2.00	6.75	6.50	8.25	9.25	7.50	6.50	2.00	1.75	3.25	-0.148926	0.057129	0.984375	-7.770000	4.270000	-8.260000	745.00	0.11	-0.12		
3.34	0.00	0.00	0.00	0.00	0.00	0.00	0.00	0.00	0.00	0.00	0.00	0.00	0.00	0.00	0.00	0.00	-1.219727	0.585938	2.188965	55.720001	-401.380005	-42.420002	0.00	0.00	0.00	1.25	1.25	0.75	2.00	2.00	5.75	2.00	6.25	7.75	9.25	10.00	7.75	6.75	3.00	2.00	4.25	-0.150879	0.056152	0.997559	-5.180000	5.320000	-8.400000	777.00	0.13	-0.11		
3.35	0.00	0.00	0.00	0.00	0.00	0.00	0.00	0.00	0.00	0.00	0.00	0.00	0.00	0.00	0.00	0.00	-1.175781	0.763184	2.340820	52.849998	-386.399994	-18.200001	0.00	0.00	0.00	1.50	1.00	0.75	1.75	1.50	5.00	2.25	5.75	8.75	10.00	10.75	8.25	6.75	4.00	2.25	4.00	-0.150391	0.048340	0.986816	-2.730000	6.580000	-8.330000	801.00	0.14	-0.09		
3.36	0.00	0.00	0.00	0.00	0.00	0.00	0.00	0.00	0.00	0.00	0.00	0.00	0.00	0.00	0.00	0.00	-1.172852	0.920410	2.583984	72.730003	-376.040009	5.950000	0.00	0.00	0.00	1.25	1.00	0.75	1.25	1.00	4.25	2.50	5.50	9.50	10.75	11.50	8.50	7.25	5.50	2.25	4.75	-0.148926	0.052734	0.993652	0.210000	9.380000	-8.050000	829.00	0.16	-0.08		
3.37	0.00	0.00	0.00	0.00	0.00	0.00	0.00	0.00	0.00	0.00	0.00	0.00	0.00	0.00	0.00	0.00	-1.380859	0.992676	2.806152	111.510002	-374.850006	29.820000	0.00	0.00	0.00	1.25	1.00	0.50	1.25	0.75	3.50	2.50	5.25	10.75	11.75	12.50	9.25	7.25	6.25	2.50	4.75	-0.152832	0.050781	1.001465	3.710000	15.190001	-7.980000	865.00	0.17	-0.07		
3.38	0.00	0.00	0.00	0.00	0.00	0.00	0.00	0.00	0.00	0.00	0.00	0.00	0.00	0.00	0.00	0.00	-1.814453	0.862793	3.013672	148.050003	-382.130005	54.529999	0.00	0.00	0.00	1.00	1.00	0.25	1.50	0.75	2.50	2.50	4.75	11.75	12.50	13.25	9.75	7.75	7.25	2.75	5.25	-0.169922	0.054199	0.985840	10.710000	30.520000	-6.720000	896.00	0.19	-0.06		
3.39	0.00	0.00	0.00	0.00	0.00	0.00	0.00	0.00	0.00	0.00	0.00	0.00	0.00	0.00	0.00	0.00	-2.340332	0.738281	3.083008	159.600006	-390.320007	78.750000	0.00	0.00	0.00	1.00	0.50	0.50	1.25	0.50	2.75	2.25	4.25	12.75	13.25	14.50	10.25	7.75	8.00	3.00	5.50	-0.174805	0.067871	1.032715	25.200001	44.869999	-17.219999	930.00	0.19	-0.06		
3.40	0.25	0.25	0.00	0.00	0.00	0.00	0.00	0.00	0.00	0.00	0.00	0.00	0.00	0.00	0.00	0.00	-3.018555	0.761719	2.766602	157.360001	-390.600006	103.250000	5.00	0.00	0.00	0.75	0.50	0.25	1.00	0.50	1.75	2.25	3.75	13.50	14.00	15.25	11.00	7.75	8.75	3.00	6.00	-0.172363	0.078125	1.024414	34.930000	68.320000	-10.080000	946.00	0.21	-0.05		
3.41	0.00	0.00	0.00	0.00	0.00	0.00	0.00	0.00	0.00	0.00	0.00	0.00	0.00	0.00	0.00	0.00	-3.620117	0.763184	2.030762	169.259995	-372.890015	128.100006	0.00	0.00	0.00	0.50	0.50	0.25	1.00	0.25	1.50	2.00	3.25	14.25	14.75	16.25	11.75	8.00	9.75	3.25	6.00	-0.412598	0.018555	1.214355	43.049999	84.489998	-5.320000	976.00	0.22	-0.05		
3.42	0.00	0.00	0.00	0.00	0.00	0.00	0.00	0.00	0.00	0.00	0.00	0.00	0.00	0.00	0.00	0.00	-4.170410	0.488770	1.413086	215.389999	-334.110016	156.380005	0.00	0.00	0.00	0.75	0.75	0.00	1.25	0.25	1.25	1.75	2.75	15.00	15.25	16.75	12.25	8.25	10.75	3.50	6.25	-0.225586	0.069336	1.120117	46.130001	129.080002	-7.630000	1007.00	0.22	-0.04		
3.43	0.00	0.00	0.00	0.00	0.00	0.00	0.00	0.00	0.00	0.00	0.00	0.00	0.00	0.00	0.00	0.00	-4.956543	-0.184570	1.025879	251.930008	-278.110016	187.529999	0.00	0.00	0.00	0.75	0.75	0.25	0.50	0.00	1.00	1.50	2.50	15.50	15.75	17.50	12.75	8.25	12.00	4.00	6.75	-0.237793	0.099121	1.120117	36.680000	187.669998	-10.850000	1032.00	0.23	-0.04		
3.44	0.00	0.00	0.00	0.00	0.00	0.00	0.00	0.00	0.00	0.00	0.00	0.00	0.00	0.00	0.00	0.00	-5.606934	-0.901367	0.435547	234.009995	-210.490005	213.990005	0.00	0.00	0.00	0.50	0.50	0.00	0.75	0.00	1.25	1.25	2.25	16.00	16.25	18.00	13.00	8.25	13.50	4.50	6.75	-0.277344	0.119629	1.169922	21.070000	241.149994	-15.680000	1060.00	0.24	-0.03		
3.45	0.00	0.00	0.00	0.00	0.00	0.00	0.00	0.00	0.00	0.00	0.00	0.00	0.00	0.00	0.00	0.00	-6.076660	-1.601562	-0.275391	168.770004	-139.930008	226.940002	0.00	0.00	0.00	0.75	0.75	0.00	0.75	0.00	1.00	1.00	2.00	16.50	16.50	18.25	13.25	8.25	14.50	5.25	7.25	-0.301758	0.111816	1.167969	9.870000	282.940002	-21.629999	1088.00	0.24	-0.03		
3.46	0.25	0.00	0.00	0.00	0.00	0.00	0.00	0.00	0.00	0.00	0.00	0.00	0.00	0.00	0.00	0.00	-6.254883	-2.117676	-0.702148	84.209999	-60.970001	211.330002	3.00	0.00	0.00	0.50	0.50	0.00	0.75	0.00	1.25	1.00	2.00	16.25	16.75	18.50	13.50	8.00	15.50	5.50	7.50	-0.348633	0.105957	1.212891	4.200000	312.549988	-27.020000	1100.00	0.24	-0.03		
3.47	0.00	0.00	0.00	0.00	0.00	0.00	0.00	0.00	0.00	0.00	0.50	0.00	0.00	0.00	0.00	0.00	-5.949219	-2.203613	-0.502930	11.760000	22.540001	159.110001	5.00	0.00	0.00	0.50	0.75	0.00	0.75	0.00	1.00	0.75	1.75	16.25	17.25	19.00	13.50	8.00	16.50	6.00	7.75	-0.422363	0.121582	1.198730	3.640000	340.549988	-30.940001	1118.00	0.25	-0.03		
3.48	0.25	0.00	0.00	0.00	0.00	0.00	0.00	0.00	0.00	0.00	0.00	0.00	0.00	0.00	0.00	0.00	-5.055176	-1.913574	-0.201172	-27.299999	98.769997	90.720001	3.00	0.00	0.00	0.50	0.75	0.00	0.50	0.00	1.00	0.75	1.75	16.00	17.50	18.75	13.50	7.75	17.25	6.25	7.75	-0.443848	0.134766	1.208496	3.150000	372.190002	-36.470001	1119.00	0.25	-0.03		
3.49	0.25	0.00	0.00	0.00	0.00	0.00	0.00	0.00	0.00	0.00	0.25	0.00	0.00	0.00	0.00	0.00	-4.284180	-1.387695	0.602051	-49.700001	147.839996	24.639999	5.00	0.00	0.00	0.50	0.75	0.00	0.50	0.00	1.00	0.75	1.75	15.50	17.50	18.50	13.50	7.50	17.75	6.25	8.00	-0.591309	0.258789	1.131348	-6.020000	442.119995	-61.250000	1113.00	0.25	-0.03		211.00
3.50	1.00	1.25	0.00	0.50	0.00	0.00	0.00	0.00	0.00	0.00	0.00	0.00	0.00	0.00	0.00	0.00	-2.058594	-1.145020	1.087891	-91.769997	182.630005	11.620000	27.00	0.00	0.00	0.50	0.50	0.00	0.50	0.00	0.50	0.75	1.50	14.75	17.25	18.00	13.00	7.25	18.25	6.00	8.25	-0.658691	0.265137	1.191406	-12.530000	485.940002	-81.480003	1079.00	0.25	-0.03		
3.51	6.75	12.25	1.00	1.25	0.25	0.00	0.00	0.00	0.00	0.00	0.75	0.00	0.00	0.00	0.00	0.00	2.810059	0.343262	-0.332031	-45.500000	191.729996	19.250000	218.00	-0.37	-0.06	0.25	0.25	0.00	0.50	0.00	0.75	0.75	1.50	13.25	16.25	17.25	12.75	6.75	18.50	5.75	8.00	-0.838379	0.293945	1.460938	-28.070000	538.229980	-100.590004	1031.00	0.26	-0.03		
3.52	27.75	37.75	2.00	4.50	0.50	0.00	0.00	0.00	0.00	0.50	1.25	0.50	0.00	0.00	0.00	0.00	2.810059	0.343262	-0.332031	-45.500000	191.729996	19.250000	735.00	-0.38	-0.05	0.00	0.00	0.00	0.00	0.00	0.25	1.00	1.25	10.75	14.00	15.25	12.00	5.75	19.25	5.50	7.50	-1.294922	0.208496	1.896484	-42.630001	584.640015	-106.050003	922.00	0.27	-0.03		
3.53	33.25	40.75	4.00	8.25	0.50	0.25	0.00	0.00	0.00	0.00	0.50	0.00	0.00	0.00	0.00	0.00	-1.757812	-1.059082	2.209961	-68.949997	622.859985	-27.299999	868.00	-0.38	-0.05	0.00	0.00	0.00	0.00	0.00	0.00	1.00	0.50	8.00	11.25	12.75	10.50	4.50	20.00	5.00	6.75	-2.269531	0.943359	2.334961	-10.500000	618.450012	-82.739998	788.00	0.28	-0.02	225.00	
3.54	35.75	41.25	7.25	15.75	0.75	2.25	0.00	0.00	0.00	0.00	0.75	0.50	0.00	0.00	0.00	0.00	-1.707520	0.480469	7.447754	-96.040001	597.309998	-30.870001	1049.00	-0.36	-0.06	0.00	0.00	0.00	0.00	0.00	0.00	0.75	0.25	5.50	9.25	10.75	9.00	2.75	18.75	3.25	5.75	-3.392090	1.360840	3.358887	89.110001	655.130005	-48.509998	640.00	0.29	-0.01		
3.55	34.75	39.75	9.50	22.00	1.50	7.50	0.00	0.50	0.00	0.00	0.75	0.75	0.25	0.25	0.00	0.00	-1.071777	-0.434570	4.241699	-46.130001	422.519989	-41.580002	1199.00	-0.34	-0.08	0.00	0.00	0.00	0.00	0.00	0.00	0.50	0.00	4.25	7.50	8.75	8.00	2.00	15.75	2.25	5.25	-3.171387	0.259277	3.944824	152.880005	686.140015	-53.549999	521.00	0.29	-0.02		
3.56	31.50	37.50	10.75	23.75	2.50	11.00	0.00	1.25	0.00	0.00	0.75	1.00	0.25	0.50	0.00	0.00	-0.501953	0.687012	3.114258	-32.270000	277.690002	-45.709999	1243.00	-0.32	-0.09	0.00	0.00	0.00	0.00	0.00	0.00	0.25	0.00	2.75	5.50	7.25	6.25	1.75	13.00	2.00	4.75	-2.167969	0.791504	4.039551	158.410004	687.890015	-75.040001	412.00	0.29	-0.03		
3.57	29.75	36.00	11.25	25.00	2.75	14.75	0.00	2.75	0.00	0.00	0.75	1.00	0.75	0.75	0.00	0.00	-0.407227	0.611816	1.123047	-41.090000	174.020004	-7.700000	1303.00	-0.30	-0.10	0.00	0.25	0.00	0.00	0.00	0.00	0.00	0.00	2.00	4.25	5.50	5.00	1.50	10.25	1.75	3.75	-2.609375	1.248047	4.340332	183.820007	666.539978	-95.059998	322.00	0.29	-0.03		
3.58	28.25	35.00	11.75	26.00	4.50	17.25	0.25	4.25	0.00	0.00	0.50	1.00	1.25	1.25	0.00	0.00	-0.182129	0.052734	1.167969	-68.040001	150.570007	12.530000	1374.00	-0.29	-0.11	0.25	0.25	0.00	0.00	0.00	0.00	0.00	0.00	1.25	3.75	4.25	3.75	1.25	7.25	1.25	2.50	-2.024902	1.307617	5.327148	187.949997	590.520020	-138.039993	244.00	0.28	-0.04		
3.59	27.75	34.25	12.50	26.50	5.00	18.75	0.25	5.50	0.00	0.00	0.75	0.75	1.75	1.00	0.00	0.00	-0.190918	-0.065430	1.399902	-70.699997	117.669998	2.240000	1418.00	-0.28	-0.12	0.25	0.00	0.00	0.00	0.00	0.00	0.00	0.00	1.25	2.75	3.00	2.75	0.75	3.00	0.50	1.75	-0.705078	0.970703	6.394531	175.979996	439.739990	-185.779999	155.00	0.26	-0.05		
3.60	28.75	34.00	13.25	26.75	6.00	19.50	0.25	5.75	0.00	0.00	0.50	1.00	1.75	1.00	0.00	0.00	-0.255859	0.214355	1.139648	-58.450001	70.699997	-8.050000	1461.00	-0.28	-0.12	0.00	0.00	0.00	0.00	0.00	0.00	0.00	0.00	0.50	1.50	1.50	1.25	0.25	1.00	0.25	0.75	3.500977	1.111816	7.333984	182.559998	277.829987	-233.100006	68.00	0.26	-0.06		
3.61	29.50	33.50	14.00	26.50	6.75	19.50	0.25	5.75	0.00	0.00	0.50	0.50	1.50	1.50	0.00	0.25	-0.216309	0.218750	0.932617	-58.730000	55.860001	-5.320000	1476.00	-0.28	-0.11	0.00	0.00	0.00	0.00	0.00	0.00	0.00	0.00	0.25	1.75	2.00	1.50	0.25	0.75	0.00	0.50	3.234375	0.284180	-0.615234	70.070000	135.869995	-181.509995	70.00	0.25	-0.08		
3.62	29.75	33.00	14.75	26.00	7.00	19.25	0.25	5.50	0.00	0.00	0.50	0.75	1.75	1.25	0.00	0.25	-0.217773	0.119141	0.995117	-67.620003	56.910000	-3.430000	1476.00	-0.28	-0.11	0.00	0.00	0.00	0.00	0.00	0.00	0.00	0.00	0.00	1.25	1.25	1.00	0.25	0.00	0.25	0.50	2.131348	1.788574	7.051270	10.850000	-113.750000	-83.300003	44.00	0.00	0.00		
3.63	31.25	32.25	15.50	25.25	7.75	18.75	0.25	5.50	0.00	0.00	0.25	0.50	1.50	2.00	0.00	0.25	-0.198242	0.139648	1.015137	-67.059998	48.860001	-4.970000	1486.00	-0.28	-0.10	0.00	0.00	0.00	0.00	0.00	0.00	0.00	0.00	0.00	1.25	1.50	1.00	0.00	0.25	0.00	0.25	1.256348	1.302246	3.462891	-38.639999	-317.170013	7.840000	43.00	0.00	0.00		
3.64	30.75	31.75	16.00	24.50	8.00	18.00	0.50	5.25	0.00	0.00	0.25	0.75	1.50	1.75	0.00	0.25	-0.202148	0.162598	0.938477	-67.760002	42.770000	-4.410000	1469.00	-0.28	-0.10	0.00	0.00	0.00	0.00	0.00	0.00	0.00	0.00	0.25	1.00	1.25	1.00	0.00	0.00	0.00	0.25	0.508301	1.071289	2.412598	-32.759998	-385.559998	75.250000	39.00	0.00	0.00		
3.65	31.50	30.50	16.50	23.75	8.50	17.25	0.50	5.00	0.00	0.00	0.25	0.50	1.25	2.00	0.00	0.25	-0.211914	0.095703	0.969727	-77.209999	41.509998	-1.680000	1453.00	-0.28	-0.09	0.00	0.00	0.00	0.00	0.00	0.00	0.00	0.00	0.00	1.00	1.00	1.00	0.00	0.00	0.00	0.25	0.459473	0.664062	1.549316	-6.650000	-387.940002	110.459999	33.00	0.00	0.00		
3.66	30.75	29.25	16.25	22.50	8.75	16.25	0.50	4.75	0.00	0.00	0.25	0.25	1.25	2.00	0.00	0.25	-0.203125	0.084473	1.014160	-84.489998	33.529999	-0.910000	1403.00	-0.28	-0.09	0.00	0.00	0.00	0.00	0.00	0.00	0.00	0.00	0.00	1.00	1.25	0.75	0.00	0.00	0.00	0.00	0.317871	0.435547	1.539551	29.889999	-386.470001	118.510002	31.00	0.00	0.00		
3.67	29.25	27.50	15.75	21.00	9.25	15.50	0.50	4.50	0.00	0.00	0.50	0.25	1.25	1.75	0.00	0.25	-0.193848	0.048340	1.003906	-80.639999	18.690001	-1.330000	1343.00	-0.27	-0.09	0.00	0.00	0.00	0.00	0.00	0.00	0.00	0.00	0.00	1.00	1.00	0.75	0.00	0.00	0.00	0.00	0.330566	0.056152	1.617188	60.410000	-391.230011	112.980003	29.00	0.00	0.00		
3.68	27.00	25.00	15.25	19.25	9.25	14.75	0.50	4.00	0.00	0.00	0.50	0.25	1.00	1.75	0.00	0.00	-0.189453	0.028809	0.979492	-70.349998	5.600000	-2.170000	1253.00	-0.27	-0.08	0.00	0.00	0.00	0.00	0.00	0.00	0.00	0.00	0.00	1.00	0.75	0.50	0.00	0.00	0.00	0.00	0.294922	-0.301270	1.664551	71.750000	-402.920013	105.000000	24.00	0.00	0.00		
