# time	left pressure 1[N/cm²]	left pressure 2[N/cm²]	left pressure 3[N/cm²]	left pressure 4[N/cm²]	left pressure 5[N/cm²]	left pressure 6[N/cm²]	left pressure 7[N/cm²]	left pressure 8[N/cm²]	left pressure 9[N/cm²]	left pressure 10[N/cm²]	left pressure 11[N/cm²]	left pressure 12[N/cm²]	left pressure 13[N/cm²]	left pressure 14[N/cm²]	left pressure 15[N/cm²]	left pressure 16[N/cm²]	left acceleration X[g]	left acceleration Y[g]	left acceleration Z[g]	left angular X[dps]	left angular Y[dps]	left angular Z[dps]	left total force[N]	left center of pressure X[%]	left center of pressure Y[%]	right pressure 1[N/cm²]	right pressure 2[N/cm²]	right pressure 3[N/cm²]	right pressure 4[N/cm²]	right pressure 5[N/cm²]	right pressure 6[N/cm²]	right pressure 7[N/cm²]	right pressure 8[N/cm²]	right pressure 9[N/cm²]	right pressure 10[N/cm²]	right pressure 11[N/cm²]	right pressure 12[N/cm²]	right pressure 13[N/cm²]	right pressure 14[N/cm²]	right pressure 15[N/cm²]	right pressure 16[N/cm²]	right acceleration X[g]	right acceleration Y[g]	right acceleration Z[g]	right angular X[dps]	right angular Y[dps]	right angular Z[dps]	right total force[N]	right center of pressure X[%]	right center of pressure Y[%]
0.00																										0.75	0.25	1.00	1.00	1.25	0.50	0.75	1.25	1.50	1.50	2.00	1.25	2.75	4.75	0.75	0.75	-0.161621	0.108398	0.977051	-0.000000	-4.760000	4.200000	227.00	0.13	-0.05
0.01																										1.00	0.75	1.25	1.00	1.25	0.50	0.75	1.25	1.50	1.50	1.50	1.25	2.50	4.25	0.25	1.00	-0.158203	0.108398	0.981445	0.350000	-3.990000	4.200000	222.00	0.09	-0.05
0.02	0.00	0.00	0.50	0.25	1.00	0.00	1.50	0.50	2.75	5.50	6.50	4.25	1.25	6.50	0.75	3.75	-0.227539	0.091309	0.952637	-2.380000	11.760000	-1.890000	350.00	0.23	-0.02	1.00	0.00	1.00	1.25	1.25	0.25	0.75	1.00	1.50	1.25	1.50	1.50	2.75	4.00	0.25	1.00	-0.159180	0.115234	0.982910	0.560000	-3.360000	4.130000	208.00	0.11	-0.05
0.03	0.00	0.25	0.75	0.50	1.00	0.00	1.50	0.50	2.75	5.50	7.00	5.00	1.00	6.75	0.75	3.75	-0.226562	0.098633	0.951660	-2.030000	11.690000	-1.680000	371.00	0.22	-0.02	0.75	0.50	1.50	1.50	1.50	0.25	0.75	1.00	1.50	1.50	1.50	1.00	2.50	4.00	0.50	0.75	-0.160645	0.106934	0.979492	0.420000	-2.940000	3.920000	218.00	0.09	-0.04
0.04	0.00	0.00	0.25	0.25	1.00	0.25	1.50	0.50	2.75	5.50	6.75	4.75	1.25	6.50	0.75	3.75	-0.226562	0.098633	0.951660	-2.030000	11.690000	-1.680000	358.00	0.23	-0.03	1.00	0.75	1.25	1.50	1.25	0.75	0.75	1.25	1.25	1.25	1.75	1.50	3.00	3.25	0.50	0.75	-0.157715	0.110840	0.977051	0.070000	-2.800000	3.640000	226.00	0.07	-0.08
0.05	0.00	0.00	0.25	0.25	1.00	0.25	1.50	0.50	2.50	5.25	6.75	4.75	1.50	6.25	0.75	3.75	-0.230469	0.089355	0.952148	-1.120000	10.920000	-1.050000	352.00	0.23	-0.03	0.50	0.75	1.25	1.25	1.50	0.75	0.75	1.00	1.25	1.25	1.50	1.50	2.75	3.00	0.25	0.75	-0.158691	0.109863	0.977051	-0.140000	-2.590000	3.430000	208.00	0.08	-0.08
0.06	0.00	0.25	0.50	0.25	1.00	0.25	1.50	0.50	2.50	5.50	6.75	5.00	1.25	6.25	0.75	3.75	-0.230957	0.091797	0.947754	-0.700000	10.570000	-0.770000	360.00	0.22	-0.03	0.75	1.00	1.00	1.75	1.50	0.50	0.75	1.25	1.25	1.50	1.75	1.50	2.25	2.75	0.25	0.75	-0.160156	0.115723	0.970215	-0.420000	-2.730000	3.220000	215.00	0.06	-0.08
0.07	0.00	0.25	0.25	0.25	1.00	0.25	1.50	0.25	2.50	5.50	6.50	4.75	1.25	6.00	0.50	4.00	-0.227051	0.096680	0.947754	-0.140000	10.080000	-0.490000	345.00	0.23	-0.03	1.00	0.75	1.50	1.75	1.50	0.50	0.75	1.00	1.25	1.25	1.50	1.25	2.50	3.00	0.50	0.75	-0.155273	0.109375	0.973145	-0.630000	-2.730000	3.010000	216.00	0.06	-0.07
0.08	0.00	0.00	0.50	0.00	0.75	0.00	1.50	0.50	2.25	5.75	6.75	4.75	1.25	6.00	0.75	3.75	-0.234863	0.092285	0.947754	0.070000	9.380000	-0.280000	345.00	0.24	-0.03	0.75	0.75	1.50	1.25	1.50	0.75	0.50	1.25	1.00	1.25	1.75	1.25	2.50	2.50	0.25	0.75	-0.163574	0.108398	0.966797	-0.630000	-2.800000	2.870000	204.00	0.05	-0.09
0.09	0.00	0.00	0.50	0.00	1.00	0.00	1.25	0.25	2.00	5.50	6.50	4.75	1.00	5.75	0.75	3.75	-0.232422	0.092285	0.948242	0.210000	9.100000	-0.140000	327.00	0.24	-0.03	1.00	0.75	1.25	1.50	1.25	0.75	0.75	1.00	1.00	1.25	1.25	1.25	2.00	2.50	0.25	0.75	-0.160156	0.108398	0.972168	-1.330000	-3.430000	2.940000	194.00	0.05	-0.07
0.10	0.00	0.00	0.25	0.00	0.75	0.00	1.25	0.50	2.25	5.50	6.50	4.75	1.00	5.75	0.50	3.75	-0.231445	0.100586	0.954102	0.350000	8.960000	-0.140000	326.00	0.24	-0.03	1.00	1.00	1.50	1.75	1.50	0.50	0.75	1.00	0.75	1.25	1.75	1.50	2.50	2.50	0.25	0.75	-0.152832	0.118164	0.967285	-1.680000	-3.640000	2.940000	211.00	0.04	-0.08
0.11	0.00	0.00	0.50	0.25	0.75	0.00	1.25	0.25	2.00	5.50	6.50	4.75	1.00	5.50	0.50	3.75	-0.229980	0.095215	0.950684	0.770000	9.450000	-0.140000	322.00	0.23	-0.03	1.00	0.75	1.50	1.50	1.25	0.50	0.75	0.75	1.25	1.25	1.50	1.25	2.50	2.50	0.25	0.75	-0.156738	0.107422	0.973145	-1.960000	-3.780000	2.870000	200.00	0.05	-0.06
0.12	0.00	0.00	0.25	0.00	0.75	0.00	1.25	0.25	2.00	5.50	7.00	4.50	1.00	5.75	0.75	3.75	-0.227539	0.094727	0.951660	0.910000	10.010000	-0.420000	324.00	0.24	-0.03	1.25	1.25	1.50	1.25	1.25	0.75	0.75	1.00	1.25	1.50	1.50	1.25	2.50	2.75	0.25	0.50	-0.160156	0.115234	0.974609	-2.100000	-3.780000	2.730000	215.00	0.04	-0.06
0.13	0.00	0.00	0.25	0.00	0.75	0.25	1.25	0.25	1.75	5.25	6.75	4.75	1.00	5.25	0.50	3.75	-0.229004	0.092773	0.947754	0.910000	10.150000	-0.630000	314.00	0.24	-0.04	1.00	1.00	1.50	1.75	1.50	0.75	0.75	1.00	1.00	1.25	1.50	1.50	2.50	2.25	0.25	0.75	-0.157227	0.110840	0.977051	-2.310000	-3.710000	2.800000	212.00	0.03	-0.08
0.14	0.00	0.25	0.25	0.00	0.75	0.00	1.25	0.25	1.75	5.25	6.50	4.75	1.00	5.25	0.25	3.75	-0.230469	0.101074	0.946777	0.910000	9.940000	-0.840000	308.00	0.23	-0.04	1.00	1.25	1.50	2.00	1.50	0.50	0.75	1.00	1.25	1.25	1.25	1.25	2.00	2.25	0.25	0.75	-0.155273	0.112793	0.970215	-2.380000	-3.780000	2.800000	208.00	0.02	-0.07
0.15	0.00	0.00	0.00	0.00	0.50	0.00	1.25	0.25	1.50	5.25	6.75	4.50	0.75	5.00	0.50	3.75	-0.235352	0.102051	0.941406	0.910000	9.450000	-0.840000	295.00	0.25	-0.04	1.25	1.00	1.75	1.75	1.50	0.75	0.75	1.00	1.00	1.00	1.25	1.00	2.25	2.25	0.25	0.75	-0.162598	0.113281	0.974609	-2.520000	-3.710000	2.800000	205.00	0.01	-0.07
0.16	0.00	0.00	0.25	0.00	0.75	0.00	1.25	0.25	1.50	5.25	6.50	4.50	1.00	5.00	0.50	3.75	-0.229492	0.097656	0.937500	1.050000	8.190000	-0.700000	301.00	0.24	-0.04	1.25	0.75	1.50	2.00	1.25	0.50	0.75	1.00	0.75	1.00	1.25	1.00	2.00	2.00	0.50	0.50	-0.154297	0.113281	0.968262	-2.870000	-3.710000	2.800000	190.00	0.01	-0.08
0.17	0.00	0.00	0.25	0.00	0.50	0.00	1.25	0.00	1.50	5.00	6.25	4.50	0.75	4.50	0.25	3.75	-0.234375	0.097656	0.946289	0.980000	7.280000	-0.490000	280.00	0.24	-0.04	1.25	1.00	1.25	1.75	1.25	0.75	0.75	1.00	1.00	1.00	1.50	1.25	2.25	2.25	0.50	0.50	-0.156250	0.113281	0.970215	-3.360000	-3.710000	2.730000	203.00	0.03	-0.08
0.18	0.00	0.00	0.25	0.00	0.75	0.00	1.25	0.25	1.50	5.25	6.75	4.50	0.75	4.75	0.25	4.00	-0.232422	0.099121	0.941895	0.910000	6.860000	-0.630000	298.00	0.24	-0.04	1.00	1.25	1.75	1.75	1.50	0.75	0.75	0.75	0.75	1.00	1.25	1.00	1.50	2.00	0.25	0.50	-0.156738	0.116699	0.976562	-3.500000	-3.570000	2.800000	187.00	-0.00	-0.06
0.19	0.00	0.00	0.00	0.00	0.50	0.00	1.25	0.25	1.25	5.00	6.50	4.50	0.75	4.25	0.25	3.75	-0.226074	0.104980	0.943359	0.630000	6.580000	-0.840000	278.00	0.24	-0.05	1.25	1.00	1.75	2.00	1.25	0.75	0.50	0.75	1.00	1.00	1.25	0.75	2.25	2.25	0.25	0.50	-0.162598	0.105957	0.981445	-3.220000	-2.730000	3.010000	193.00	0.00	-0.07
0.20	0.00	0.00	0.25	0.00	0.75	0.00	1.25	0.00	1.25	5.00	6.75	4.50	0.75	4.50	0.25	4.00	-0.229980	0.101074	0.949219	0.560000	6.300000	-1.120000	286.00	0.24	-0.04	1.00	0.75	1.50	1.50	1.25	0.50	0.50	0.75	1.00	1.00	1.25	1.00	1.75	2.25	0.25	0.50	-0.158691	0.110840	0.975586	-3.150000	-2.240000	3.080000	175.00	0.03	-0.06
0.21	0.00	0.00	0.25	0.00	0.75	0.00	1.25	0.00	1.50	5.25	6.75	4.50	0.75	4.50	0.25	4.00	-0.234375	0.103516	0.946289	0.560000	5.950000	-1.190000	292.00	0.24	-0.04	1.00	1.00	1.50	1.75	1.25	0.50	0.75	0.75	0.75	1.25	1.00	1.25	1.50	2.00	0.25	0.50	-0.163086	0.109863	0.974121	-3.290000	-2.100000	3.010000	179.00	0.01	-0.06
0.22	0.00	0.00	0.25	0.00	0.75	0.00	1.25	0.25	1.50	5.25	6.50	4.50	0.75	4.00	0.00	4.00	-0.230469	0.103516	0.937500	0.140000	5.250000	-1.120000	286.00	0.23	-0.05	1.00	1.00	1.50	1.50	1.25	0.50	0.50	0.75	1.00	1.00	1.25	0.75	1.75	2.25	0.50	0.50	-0.164062	0.115234	0.969727	-3.430000	-2.100000	3.010000	178.00	0.03	-0.06
0.23	0.00	0.00	0.25	0.00	0.50	0.00	1.25	0.25	1.00	5.25	6.75	4.75	1.00	4.50	0.25	3.75	-0.228027	0.104980	0.951172	-0.280000	4.480000	-1.120000	290.00	0.24	-0.06	1.25	1.00	1.50	1.50	1.25	0.50	0.75	0.75	0.75	1.00	1.25	0.75	1.75	2.00	0.25	0.50	-0.171387	0.107910	0.983398	-2.940000	-1.820000	2.940000	176.00	0.01	-0.06
0.24	0.00	0.00	0.75	0.25	0.75	0.25	1.25	0.25	1.25	5.25	6.75	4.50	1.00	4.25	0.50	4.00	-0.232422	0.100098	0.944336	-0.350000	4.200000	-1.190000	306.00	0.22	-0.05	1.25	1.00	1.25	1.75	1.25	0.25	0.50	0.75	0.50	1.25	1.75	0.75	1.25	2.25	0.00	0.25	-0.163574	0.108887	0.976562	-2.660000	-0.980000	2.800000	168.00	0.01	-0.06
0.25	0.00	0.25	0.25	0.25	0.75	0.00	1.25	0.25	1.25	5.00	6.75	4.50	1.00	4.50	0.50	4.00	-0.232910	0.102051	0.943848	-0.350000	4.200000	-1.260000	299.00	0.23	-0.05	1.00	1.00	1.50	1.75	1.00	0.50	0.50	0.50	0.75	1.00	1.25	0.75	1.50	1.75	0.00	0.50	-0.166504	0.109375	0.973633	-2.660000	-1.190000	2.660000	159.00	-0.00	-0.06
0.26	0.00	0.00	0.50	0.25	0.75	0.00	1.25	0.50	1.00	5.00	6.75	4.75	1.00	4.50	0.25	4.00	-0.231445	0.100586	0.945312	-0.000000	3.990000	-0.910000	301.00	0.22	-0.06	1.25	1.25	1.50	1.75	1.25	0.25	0.50	0.50	0.75	1.00	1.25	0.75	1.25	1.75	0.25	0.25	-0.166016	0.105469	0.975586	-2.520000	-1.680000	2.450000	163.00	-0.01	-0.05
0.27	0.00	0.25	0.50	0.00	0.75	0.00	1.25	0.25	1.00	5.00	7.00	4.75	0.75	4.25	0.25	4.00	-0.231445	0.098633	0.950684	0.070000	3.990000	-0.770000	295.00	0.22	-0.06	1.25	1.00	1.75	1.75	1.25	0.50	0.50	0.50	0.75	1.00	0.75	0.50	1.00	1.50	0.00	0.50	-0.169922	0.109863	0.978516	-1.330000	-2.030000	2.590000	153.00	-0.04	-0.04
0.28	0.00	0.00	0.50	0.25	0.75	0.25	1.25	0.25	1.25	5.00	6.75	4.75	0.75	4.25	0.50	4.25	-0.231934	0.105957	0.952637	0.070000	4.200000	-0.840000	302.00	0.22	-0.06	1.50	1.25	1.50	2.25	1.25	0.25	0.50	0.50	0.50	0.75	1.00	0.25	1.00	1.50	0.00	0.25	-0.164551	0.107422	0.979980	0.140000	-1.960000	2.660000	150.00	-0.07	-0.05
0.29	0.00	0.00	0.50	0.25	1.00	0.25	1.25	0.50	1.00	5.00	7.00	4.50	1.00	4.25	0.25	4.00	-0.232422	0.103027	0.946289	0.140000	4.060000	-0.770000	304.00	0.21	-0.06	1.00	1.50	1.50	2.25	1.25	0.50	0.50	0.50	0.75	0.75	0.75	0.50	1.00	1.50	0.25	0.00	-0.165039	0.114258	0.978027	0.910000	-1.400000	3.010000	155.00	-0.05	-0.05
0.30	0.00	0.00	0.75	0.50	0.75	0.50	1.25	0.50	1.25	5.50	6.50	4.75	0.75	4.25	0.50	4.00	-0.233887	0.103516	0.944336	0.210000	4.060000	-0.770000	316.00	0.21	-0.06	1.25	1.50	1.50	2.00	1.25	0.00	0.50	0.25	0.50	0.75	0.50	0.50	0.75	1.50	0.00	0.25	-0.156738	0.116699	0.968750	0.560000	-1.120000	2.940000	136.00	-0.07	-0.03
0.31	0.00	0.00	0.50	0.25	1.00	0.25	1.25	0.25	1.25	5.25	7.00	4.75	1.00	4.00	0.25	4.00	-0.229004	0.102051	0.952637	0.280000	3.850000	-0.560000	306.00	0.22	-0.06	1.25	1.50	1.75	2.00	1.25	0.25	0.50	0.25	0.00	1.00	0.75	0.50	0.75	1.25	0.00	0.25	-0.154297	0.115234	0.961426	-0.210000	-1.190000	2.870000	138.00	-0.09	-0.05
0.32	0.00	0.00	0.75	0.00	1.00	0.25	1.25	0.50	1.00	5.25	6.75	4.75	1.00	4.00	0.25	4.00	-0.229004	0.104492	0.947754	0.210000	3.920000	-0.630000	304.00	0.21	-0.06	1.25	1.75	1.75	1.75	1.25	0.50	0.50	0.25	0.50	0.75	0.75	0.25	0.50	1.00	0.00	0.25	-0.150879	0.115723	0.964844	-1.050000	-1.610000	2.590000	137.00	-0.10	-0.03
0.33	0.00	0.00	0.50	0.50	1.00	0.50	1.25	0.50	1.00	5.00	7.25	4.75	0.75	4.25	0.25	4.00	-0.228027	0.106445	0.948730	0.140000	4.200000	-0.700000	312.00	0.21	-0.06	1.75	1.75	1.75	2.00	1.25	0.75	0.50	0.50	0.25	0.50	0.75	0.50	0.25	0.25	0.00	0.00	-0.162109	0.111328	0.974609	-1.190000	-1.960000	2.450000	139.00	-0.16	-0.06
0.34	0.00	0.25	0.50	0.50	0.75	0.00	1.25	0.50	0.75	5.00	7.00	4.75	1.00	3.75	0.25	4.25	-0.231445	0.102539	0.947266	0.140000	4.340000	-0.560000	300.00	0.21	-0.07	1.75	1.75	1.75	2.25	1.25	0.50	0.50	0.25	0.25	0.75	0.75	0.50	0.25	0.75	0.00	0.00	-0.154297	0.112305	0.963379	-0.770000	-1.820000	2.520000	142.00	-0.14	-0.04
0.35	0.00	0.50	1.00	0.50	1.25	0.50	1.25	0.50	1.00	5.00	7.00	4.50	1.00	4.00	0.25	4.25	-0.227051	0.102539	0.953613	0.280000	4.270000	-0.420000	321.00	0.19	-0.07	1.75	1.25	1.75	2.00	1.25	0.25	0.50	0.25	0.25	0.75	0.50	0.00	0.25	0.75	0.00	0.00	-0.155273	0.115723	0.967773	-0.910000	-2.030000	2.520000	124.00	-0.15	-0.01
0.36	0.00	0.50	0.75	1.25	1.00	0.50	1.25	0.75	0.75	5.00	7.00	4.75	1.00	3.75	0.25	4.00	-0.227539	0.111816	0.954590	0.490000	4.130000	-0.280000	324.00	0.17	-0.08	2.00	1.75	2.00	2.25	1.25	0.25	0.50	0.25	0.00	0.75	0.50	0.00	0.00	0.75	0.00	0.00	-0.150391	0.117188	0.967773	-1.540000	-2.380000	2.520000	131.00	-0.18	-0.02
0.37	0.00	0.50	0.75	0.75	1.25	0.50	1.25	0.50	0.75	4.75	7.00	4.75	1.00	3.75	0.25	4.25	-0.227051	0.105469	0.948730	0.350000	4.270000	-0.350000	316.00	0.18	-0.08	1.75	1.75	2.00	2.50	1.25	0.25	0.50	0.00	0.00	0.75	0.75	0.25	0.50	0.25	0.00	0.00	-0.158691	0.112793	0.964355	-2.100000	-2.730000	2.520000	133.00	-0.18	-0.04
0.38	0.00	0.75	0.75	0.75	1.25	0.50	1.25	0.50	0.75	5.00	6.75	4.50	1.00	3.50	0.25	4.25	-0.230957	0.101074	0.951660	0.350000	4.900000	-0.350000	314.00	0.18	-0.08	2.00	2.25	2.00	2.50	1.25	0.50	0.50	0.25	0.25	0.75	0.50	0.25	0.25	0.25	0.00	0.00	-0.158691	0.110352	0.970215	-2.100000	-2.800000	2.730000	145.00	-0.19	-0.04
0.39	0.00	0.75	1.00	1.25	1.25	0.75	1.25	0.50	0.75	4.75	6.75	4.50	1.00	3.50	0.25	4.00	-0.222656	0.111328	0.947754	0.700000	5.460000	-0.210000	321.00	0.16	-0.08	2.25	2.00	2.25	2.75	1.00	0.25	0.50	0.00	0.00	0.75	1.00	0.25	0.50	0.25	0.00	0.00	-0.170898	0.112793	0.975098	-1.540000	-1.960000	2.870000	146.00	-0.19	-0.04
0.40	0.00	1.00	1.00	1.00	1.25	0.50	1.25	0.50	0.75	4.75	6.75	4.75	1.25	3.25	0.25	4.25	-0.228027	0.108887	0.946777	1.050000	5.600000	0.070000	321.00	0.16	-0.08	2.00	2.00	2.00	2.50	1.25	0.25	0.50	0.00	0.25	0.75	0.75	0.25	0.25	0.25	0.00	0.00	-0.158203	0.118164	0.960938	-1.330000	-1.610000	2.940000	139.00	-0.18	-0.03
0.41	0.00	1.00	1.25	1.25	1.25	1.00	1.25	0.50	0.50	4.75	6.75	4.75	1.00	3.25	0.00	4.25	-0.233887	0.106934	0.947266	1.890000	5.810000	0.210000	324.00	0.15	-0.09	2.00	2.25	2.00	2.50	1.00	0.00	0.50	0.00	0.00	0.75	0.50	0.25	0.25	0.25	0.00	0.00	-0.158691	0.118164	0.964355	-1.680000	-1.610000	2.800000	130.00	-0.21	-0.03
0.42	0.00	1.00	1.25	1.50	1.25	1.00	1.25	0.75	0.50	4.75	6.75	4.50	1.00	2.75	0.25	4.25	-0.227051	0.109375	0.945801	2.940000	5.810000	0.350000	327.00	0.14	-0.09	2.25	2.25	2.25	2.75	1.25	0.25	0.50	0.00	0.00	1.00	0.75	0.25	0.25	0.50	0.00	0.00	-0.158691	0.118652	0.967285	-2.450000	-1.750000	2.660000	151.00	-0.19	-0.03
0.43	0.00	1.25	1.00	1.25	1.25	1.00	1.25	0.75	0.50	4.50	6.75	4.50	0.75	3.00	0.25	4.25	-0.218262	0.106934	0.943848	3.290000	5.390000	0.630000	321.00	0.14	-0.09	2.00	2.25	2.00	2.75	1.25	0.50	0.50	0.25	0.00	0.75	0.75	0.00	0.00	0.25	0.00	0.00	-0.162109	0.114746	0.971680	-2.730000	-1.610000	2.380000	142.00	-0.20	-0.04
0.44	0.50	1.25	1.25	1.50	1.25	0.75	1.25	0.75	0.00	4.50	6.50	4.50	0.75	2.50	0.00	4.25	-0.226562	0.108887	0.946777	3.080000	5.250000	0.980000	313.00	0.12	-0.10	2.25	1.75	2.50	2.75	1.00	0.25	0.50	0.25	0.25	0.75	0.75	0.25	0.00	0.00	0.00	0.00	-0.164062	0.115723	0.972656	-2.660000	-1.190000	2.240000	144.00	-0.20	-0.03
0.45	0.25	1.50	1.25	1.75	1.25	0.75	1.00	0.75	0.50	4.25	6.75	4.25	0.75	2.75	0.25	4.00	-0.230469	0.111816	0.957031	3.290000	5.530000	1.050000	319.00	0.12	-0.09	2.25	2.25	2.00	2.25	1.00	0.50	0.50	0.00	0.00	0.75	0.75	0.00	0.00	0.00	0.00	0.00	-0.164062	0.110840	0.968750	-1.890000	-0.840000	2.310000	131.00	-0.22	-0.03
0.46	0.25	1.50	1.50	2.00	1.25	1.00	1.00	0.75	0.00	4.50	6.50	4.50	0.75	2.50	0.00	4.00	-0.231445	0.117188	0.951660	3.920000	6.160000	1.260000	318.00	0.11	-0.10	2.25	2.00	2.00	2.75	1.00	0.00	0.50	0.25	0.00	0.75	0.75	0.00	0.00	0.25	0.00	0.00	-0.167969	0.119629	0.975098	-1.120000	-0.840000	2.590000	134.00	-0.21	-0.03
0.47	0.25	1.25	1.25	1.75	1.25	0.75	1.00	0.75	0.00	4.50	6.50	4.50	0.75	2.25	0.00	4.25	-0.225098	0.120605	0.950195	5.460000	7.840000	1.750000	307.00	0.12	-0.11	2.00	2.25	2.00	2.75	0.75	0.25	0.50	0.00	0.00	0.75	0.75	0.00	0.00	0.00	0.00	0.00	-0.167480	0.108887	0.968750	-0.350000	-1.400000	2.520000	128.00	-0.22	-0.04
0.48	0.00	1.75	1.50	2.00	1.25	1.25	1.00	0.75	0.00	4.25	6.50	4.00	0.75	1.50	0.00	4.00	-0.218750	0.113281	0.950195	4.970000	7.840000	1.330000	304.00	0.09	-0.11	2.25	2.25	2.00	2.50	1.00	0.25	0.50	0.00	0.00	0.50	1.00	0.00	0.00	0.00	0.00	0.00	-0.166992	0.120117	0.965332	-0.280000	-1.960000	2.450000	131.00	-0.22	-0.03
0.49	0.75	2.00	1.50	2.50	1.25	1.25	1.00	0.75	0.00	4.50	6.50	4.25	0.75	2.00	0.00	4.25	-0.219727	0.127441	0.945801	3.500000	7.210000	0.630000	331.00	0.08	-0.11	2.00	2.25	2.25	2.50	0.75	0.00	0.50	0.00	0.00	0.75	0.50	0.25	0.00	0.00	0.00	0.00	-0.160156	0.110840	0.963379	-0.700000	-2.590000	2.450000	125.00	-0.23	-0.03
0.50	0.75	2.50	1.50	2.75	1.50	1.25	1.00	0.75	0.00	4.50	6.50	4.25	0.50	1.50	0.00	4.25	-0.217285	0.115234	0.947266	1.540000	6.510000	0.070000	334.00	0.06	-0.11	2.00	2.00	2.25	2.25	1.00	0.00	0.50	0.25	0.00	0.75	0.75	0.00	0.25	0.00	0.00	0.00	-0.161621	0.119141	0.966309	-1.820000	-3.570000	2.380000	129.00	-0.21	-0.03
0.51	0.75	3.00	1.50	2.50	1.25	1.25	1.00	0.75	0.00	4.50	6.25	4.00	0.75	1.75	0.00	4.25	-0.219238	0.120605	0.946289	-0.070000	6.160000	-0.280000	333.00	0.06	-0.11	2.00	1.75	2.25	2.75	1.00	0.00	0.50	0.00	0.00	1.25	0.75	0.25	0.00	0.00	0.00	0.00	-0.161133	0.115234	0.963867	-2.240000	-3.710000	2.240000	134.00	-0.19	-0.02
0.52	1.25	3.00	1.75	3.00	1.25	1.25	1.00	0.75	0.00	4.25	6.50	4.25	0.50	1.75	0.00	4.00	-0.216309	0.117188	0.945312	-1.400000	6.230000	-0.700000	345.00	0.05	-0.11	2.00	2.25	2.00	2.50	1.00	0.00	0.50	0.25	0.00	0.75	0.50	0.25	0.00	0.00	0.00	0.00	-0.163574	0.117188	0.968750	-2.450000	-3.640000	2.240000	129.00	-0.22	-0.04
0.53	1.25	3.00	1.75	3.00	1.25	1.25	1.00	0.75	0.00	4.50	6.50	4.25	0.50	1.75	0.00	4.00	-0.223633	0.117676	0.944336	-2.520000	6.160000	-0.980000	348.00	0.05	-0.11	2.25	2.50	2.00	2.50	1.00	0.25	0.25	0.00	0.00	0.75	0.75	0.00	0.25	0.00	0.00	0.00	-0.166016	0.115234	0.969727	-2.660000	-3.640000	2.030000	131.00	-0.23	-0.05
0.54	1.25	3.25	1.75	3.00	1.25	1.25	1.00	0.75	0.50	4.00	6.25	4.25	0.75	1.50	0.00	4.00	-0.219727	0.117188	0.946289	-3.920000	5.950000	-1.190000	349.00	0.04	-0.11	2.25	2.00	2.00	2.25	1.00	0.00	0.50	0.00	0.25	0.75	0.75	0.00	0.00	0.00	0.00	0.00	-0.171387	0.114746	0.979492	-2.100000	-3.780000	2.240000	126.00	-0.21	-0.01
0.55	1.25	3.25	2.00	3.25	1.50	1.25	1.00	0.50	0.00	4.25	6.50	4.25	0.25	1.75	0.00	4.25	-0.226562	0.113281	0.946777	-4.620000	5.600000	-1.260000	351.00	0.04	-0.10	2.00	2.25	1.75	2.50	1.00	0.25	0.50	0.00	0.00	0.50	0.75	0.25	0.00	0.00	0.00	0.00	-0.172852	0.105957	0.972656	-0.420000	-3.640000	2.310000	125.00	-0.22	-0.04
0.56	1.75	3.75	2.00	3.25	1.50	1.25	1.00	0.75	0.00	4.50	6.25	4.25	0.50	1.75	0.00	4.00	-0.229492	0.112793	0.950195	-4.620000	5.670000	-1.470000	365.00	0.03	-0.10	1.75	2.25	2.00	2.50	0.75	0.00	0.25	0.00	0.00	0.25	0.50	0.25	0.25	0.00	0.00	0.00	-0.168945	0.117188	0.971191	0.420000	-3.850000	2.380000	113.00	-0.25	-0.06
0.57	1.50	3.50	2.00	3.25	1.50	1.25	1.00	0.50	0.00	4.50	6.25	4.25	0.50	0.75	0.00	4.00	-0.221191	0.115723	0.947754	-4.480000	6.020000	-1.470000	348.00	0.02	-0.11	2.00	2.25	2.00	2.50	0.50	0.25	0.25	0.00	0.25	0.75	0.50	0.00	0.00	0.00	0.00	0.00	-0.170898	0.117188	0.975098	1.400000	-3.710000	2.450000	119.00	-0.23	-0.03
0.58	1.75	4.00	2.25	3.50	1.50	1.50	1.00	0.75	0.00	4.50	6.25	4.25	0.75	1.25	0.00	4.25	-0.222656	0.115723	0.951172	-4.550000	5.740000	-1.400000	375.00	0.01	-0.11	1.75	2.00	1.75	2.00	0.75	0.00	0.25	0.00	0.00	0.75	0.50	0.00	0.00	0.00	0.00	0.00	-0.163574	0.113281	0.962402	2.100000	-3.430000	2.450000	103.00	-0.23	-0.03
0.59	1.75	3.75	2.25	3.25	1.50	1.25	1.00	0.50	0.25	4.25	6.50	4.25	0.50	1.75	0.00	4.00	-0.230957	0.113281	0.950195	-3.640000	5.670000	-1.330000	368.00	0.03	-0.10	2.00	2.75	1.75	2.50	0.75	0.25	0.25	0.00	0.00	0.75	0.50	0.00	0.00	0.00	0.00	0.00	-0.161621	0.123535	0.963867	0.350000	-4.200000	2.310000	121.00	-0.25	-0.05
0.60	1.75	4.00	2.00	3.25	1.50	1.00	1.00	0.50	0.00	4.50	6.25	4.25	0.75	1.50	0.00	4.00	-0.226074	0.108887	0.945312	-2.940000	6.020000	-1.260000	361.00	0.02	-0.10	2.00	2.00	2.00	2.75	0.75	0.25	0.25	0.00	0.25	0.50	0.25	0.00	0.00	0.00	0.00	0.00	-0.161621	0.120117	0.971680	-0.630000	-4.340000	2.380000	117.00	-0.25	-0.03
0.61	1.75	4.00	2.00	3.50	1.50	1.25	1.00	0.50	0.00	4.50	6.25	4.00	0.25	1.50	0.00	4.00	-0.228027	0.112305	0.948242	-2.730000	5.950000	-1.260000	360.00	0.02	-0.10	1.75	2.00	1.75	2.25	0.75	0.00	0.25	0.25	0.00	1.00	0.50	0.25	0.00	0.00	0.00	0.00	-0.173340	0.120605	0.977051	-0.700000	-4.550000	2.380000	115.00	-0.21	-0.05
0.62	1.75	4.25	2.00	3.25	1.50	1.25	1.00	0.50	0.00	4.25	6.25	4.00	0.25	1.75	0.00	4.00	-0.223633	0.110840	0.942383	-3.010000	5.530000	-1.330000	359.00	0.02	-0.10	2.00	2.00	2.00	2.50	0.75	0.00	0.25	0.00	0.00	0.50	0.50	0.25	0.00	0.00	0.00	0.00	-0.170410	0.116211	0.977051	0.630000	-4.690000	2.520000	114.00	-0.24	-0.04
0.63	1.50	4.00	2.00	3.50	1.50	1.25	1.00	0.50	0.00	4.25	6.25	4.00	0.25	1.50	0.00	4.25	-0.219727	0.112793	0.940918	-3.920000	4.970000	-1.470000	356.00	0.02	-0.10	2.00	2.25	2.00	2.25	1.00	0.00	0.25	0.00	0.00	0.50	0.75	0.00	0.25	0.00	0.00	0.00	-0.161133	0.125000	0.964844	1.190000	-4.690000	2.730000	118.00	-0.23	-0.04
0.64	1.75	3.75	2.00	3.25	1.50	1.25	1.25	0.50	0.25	4.25	6.50	4.00	0.50	1.75	0.00	4.25	-0.221680	0.114258	0.947754	-4.970000	4.830000	-1.470000	367.00	0.03	-0.09	2.00	2.00	2.00	2.50	0.75	0.25	0.25	0.00	0.00	0.50	0.50	0.00	0.00	0.00	0.00	0.00	-0.158691	0.122559	0.959473	0.350000	-4.410000	3.010000	114.00	-0.25	-0.04
0.65	1.75	3.50	2.00	3.25	1.50	1.25	1.25	0.50	0.00	4.25	6.25	4.25	0.50	2.00	0.00	4.00	-0.224121	0.112305	0.952637	-4.830000	5.250000	-1.330000	363.00	0.03	-0.09	2.25	2.00	1.75	2.50	0.75	0.25	0.25	0.25	0.00	0.50	0.50	0.00	0.00	0.00	0.00	0.00	-0.154297	0.121582	0.962891	-0.420000	-4.270000	2.940000	118.00	-0.25	-0.05
0.66	1.75	4.00	2.00	3.25	1.75	1.00	1.25	0.50	0.50	4.25	6.25	4.00	0.25	1.75	0.00	4.25	-0.219238	0.111816	0.944824	-4.200000	5.390000	-1.260000	368.00	0.03	-0.09	2.25	2.00	1.75	2.75	0.75	0.00	0.25	0.00	0.00	0.50	0.75	0.00	0.00	0.00	0.00	0.00	-0.164062	0.120605	0.968750	-0.420000	-4.550000	3.080000	116.00	-0.25	-0.04
0.67	1.50	4.00	2.00	3.25	1.75	1.25	1.25	0.50	0.25	4.25	6.25	4.25	0.25	1.75	0.00	4.25	-0.227539	0.110840	0.950195	-3.640000	5.460000	-1.190000	368.00	0.03	-0.09	2.25	1.75	1.75	2.50	1.00	0.00	0.25	0.00	0.00	0.50	0.75	0.00	0.00	0.00	0.00	0.00	-0.161133	0.122559	0.964355	-0.630000	-4.690000	3.290000	114.00	-0.24	-0.03
0.68	1.75	4.00	2.25	3.50	1.50	1.25	1.00	0.50	0.00	4.25	6.25	4.00	0.50	2.00	0.00	4.25	-0.224121	0.108887	0.951660	-0.980000	5.320000	-0.770000	368.00	0.02	-0.10	2.00	2.25	1.75	2.50	1.00	0.25	0.25	0.25	0.00	0.50	0.50	0.00	0.00	0.00	0.00	0.00	-0.157715	0.124023	0.959473	-2.030000	-5.390000	3.360000	120.00	-0.24	-0.05
0.69	1.75	4.00	2.25	3.25	1.75	1.25	1.25	0.50	0.25	4.50	6.50	4.25	0.25	2.00	0.00	4.25	-0.232422	0.107422	0.951660	0.490000	5.390000	-0.700000	381.00	0.03	-0.09	2.25	2.50	2.00	2.75	1.00	0.25	0.25	0.25	0.25	1.00	0.50	0.25	0.25	0.00	0.00	0.00	-0.165527	0.126465	0.961426	-4.130000	-6.160000	3.290000	144.00	-0.21	-0.05
0.70	2.00	4.00	2.25	3.50	1.50	1.25	1.25	0.50	0.00	4.25	6.25	4.00	0.50	1.75	0.00	4.00	-0.220215	0.112305	0.945312	1.190000	5.670000	-0.700000	371.00	0.01	-0.09	2.25	2.50	2.00	2.75	1.00	0.50	0.25	0.25	0.00	0.50	0.75	0.50	0.00	0.00	0.00	0.00	-0.166016	0.120117	0.964355	-5.110000	-6.510000	3.500000	141.00	-0.22	-0.07
0.71	2.00	4.50	2.25	3.75	1.50	1.00	1.00	0.50	0.00	4.25	6.25	4.00	0.50	1.75	0.00	4.00	-0.220703	0.108887	0.949707	1.260000	5.600000	-0.560000	371.00	0.01	-0.10	2.50	3.00	2.00	3.75	1.25	0.50	0.50	0.50	0.00	0.50	0.75	0.25	0.00	0.00	0.00	0.00	-0.157227	0.122559	0.966309	-6.160000	-6.930000	3.710000	167.00	-0.23	-0.07
0.72	2.00	4.50	2.25	3.25	1.50	1.25	1.25	0.75	0.00	4.25	6.25	4.00	0.50	1.75	0.00	4.00	-0.215332	0.117676	0.940918	0.910000	5.460000	-0.630000	376.00	0.01	-0.10	2.50	3.25	2.75	3.25	1.25	0.75	0.50	0.50	0.25	0.75	0.75	0.25	0.00	0.00	0.00	0.00	-0.165039	0.130371	0.957031	-7.490000	-7.280000	3.920000	181.00	-0.21	-0.06
0.73	1.75	4.25	2.00	4.00	1.50	1.25	1.25	0.75	0.00	4.25	6.25	4.00	0.75	1.75	0.00	4.00	-0.221680	0.114746	0.948730	0.280000	5.320000	-0.700000	379.00	0.01	-0.10	2.75	3.25	2.50	3.75	1.25	0.50	0.50	0.50	0.00	0.50	1.00	0.25	0.25	0.00	0.00	0.00	-0.169434	0.114746	0.971680	-7.630000	-7.910000	3.920000	182.00	-0.22	-0.07
0.74	2.00	4.00	2.25	3.75	1.75	1.25	1.00	0.75	0.00	4.00	6.25	4.00	0.75	1.25	0.25	4.00	-0.219727	0.112793	0.942383	-0.140000	5.390000	-0.700000	374.00	0.01	-0.11	3.25	3.75	3.00	4.00	1.50	1.00	0.50	0.50	0.00	0.75	0.75	0.50	0.25	0.00	0.00	0.00	-0.167969	0.106445	0.978516	-5.530000	-8.330000	3.990000	211.00	-0.23	-0.07
0.75	2.00	4.50	2.00	3.50	1.75	1.25	1.00	0.75	0.00	4.25	6.00	4.00	0.50	1.50	0.00	4.00	-0.213379	0.116211	0.951172	-0.700000	5.740000	-0.840000	370.00	0.00	-0.10	3.50	4.25	3.25	5.00	1.50	1.25	0.50	0.50	0.00	1.00	1.00	0.00	0.50	0.00	0.00	0.00	-0.152832	0.120117	0.965332	-1.540000	-10.570000	3.850000	237.00	-0.23	-0.08
0.76	1.75	4.25	2.00	3.75	1.75	1.50	1.25	0.75	0.00	4.25	6.25	4.00	0.50	1.75	0.00	4.00	-0.214844	0.115234	0.943848	-1.120000	6.300000	-0.840000	380.00	0.01	-0.10	4.00	5.00	3.50	5.25	1.75	2.00	0.50	0.75	0.00	0.75	0.75	0.50	0.25	0.00	0.00	0.00	-0.152832	0.120117	0.965332	-1.540000	-10.570000	3.850000	267.00	-0.24	-0.09
0.77	2.00	4.50	2.00	3.50	1.50	1.25	1.00	0.75	0.00	4.25	6.25	4.00	0.50	1.75	0.00	4.00	-0.220215	0.114746	0.951172	-1.820000	6.370000	-0.910000	372.00	0.01	-0.10	4.50	5.50	4.00	5.75	2.00	2.25	0.50	1.00	0.00	0.75	0.75	0.50	0.50	0.00	0.00	0.00	-0.157227	0.121582	0.969238	-1.470000	-12.110000	3.710000	299.00	-0.24	-0.09
0.78	1.75	4.25	2.00	3.75	1.75	1.50	1.25	0.75	0.25	4.50	6.00	4.25	0.50	1.75	0.00	4.00	-0.223145	0.112305	0.955566	-1.470000	6.650000	-0.840000	385.00	0.01	-0.10	5.50	5.75	4.25	6.25	2.00	2.75	0.50	1.50	0.00	0.75	1.25	0.75	0.50	0.00	0.00	0.00	-0.160156	0.125488	0.976562	-0.770000	-11.900000	3.710000	341.00	-0.23	-0.10
0.79	1.75	4.00	2.00	3.50	1.50	1.25	1.00	0.75	0.00	4.25	6.25	4.00	0.50	1.75	0.00	4.00	-0.223633	0.116211	0.948730	-0.630000	7.070000	-0.630000	365.00	0.02	-0.10	6.00	6.75	4.75	6.50	2.25	3.25	0.50	1.50	0.00	0.75	1.00	0.75	0.75	0.00	0.00	0.00	-0.137207	0.131836	0.972168	-0.420000	-9.450000	3.920000	372.00	-0.23	-0.10
0.80	1.75	4.00	2.00	3.50	1.50	1.25	1.25	0.75	0.00	4.25	6.25	4.00	0.25	2.00	0.00	4.00	-0.219238	0.118164	0.947754	-0.770000	7.420000	-0.630000	369.00	0.02	-0.10	6.25	7.50	4.75	7.50	2.25	4.00	0.50	1.50	0.00	1.00	1.00	0.75	1.00	0.00	0.00	0.00	-0.151367	0.113281	0.988281	0.630000	-8.330000	3.220000	405.00	-0.23	-0.11
0.81	1.50	3.75	1.50	3.25	1.75	1.25	1.00	0.75	0.25	4.25	6.25	4.25	0.50	1.75	0.00	4.00	-0.215820	0.111816	0.945801	-1.820000	8.190000	-0.840000	361.00	0.03	-0.10	7.25	7.75	5.25	7.75	2.50	4.50	0.50	2.00	0.00	1.00	1.25	1.25	1.00	0.00	0.00	0.00	-0.146484	0.114746	0.974609	2.380000	-7.350000	3.080000	450.00	-0.22	-0.11
0.82	1.50	3.00	1.75	2.75	1.50	1.00	1.00	0.75	0.00	4.50	6.25	4.25	0.75	1.50	0.00	4.00	-0.215820	0.116699	0.951660	-2.800000	9.310000	-1.050000	345.00	0.04	-0.10	7.25	8.25	5.25	8.00	2.50	4.50	0.50	2.00	0.00	1.25	1.25	1.00	1.25	0.00	0.00	0.00	-0.137695	0.135742	0.983398	3.990000	-6.300000	3.360000	459.00	-0.22	-0.11
0.83	1.00	2.75	1.50	2.75	1.50	1.00	1.25	0.75	0.00	4.25	6.50	4.00	0.50	1.75	0.25	4.25	-0.212402	0.114746	0.940430	-3.920000	10.150000	-1.260000	340.00	0.06	-0.10	7.50	8.00	5.50	8.00	2.75	5.25	0.50	2.25	0.00	0.75	1.25	1.00	1.50	0.00	0.00	0.00	-0.141113	0.129395	0.982422	4.830000	-5.110000	3.150000	474.00	-0.22	-0.11
0.84	0.75	2.25	1.00	2.00	1.25	1.00	1.25	0.50	0.50	4.50	6.25	4.00	0.50	2.00	0.00	4.00	-0.212891	0.117676	0.950195	-5.530000	10.780000	-2.030000	317.00	0.09	-0.09	7.75	8.50	5.75	8.25	2.50	5.25	0.50	2.75	0.00	0.75	1.00	1.00	1.50	0.00	0.00	0.00	-0.141602	0.135742	0.975098	4.690000	-4.060000	3.080000	489.00	-0.23	-0.12
0.85	0.25	1.00	0.75	1.25	1.00	0.50	1.25	0.50	0.25	4.50	6.25	4.00	0.50	2.00	0.25	4.00	-0.211914	0.116211	0.955078	-6.580000	12.390000	-2.730000	280.00	0.14	-0.09	7.50	8.50	5.50	8.25	2.75	5.25	0.50	2.25	0.00	1.00	1.25	1.00	1.50	0.00	0.00	0.00	-0.143555	0.133301	0.977539	4.270000	-3.150000	2.800000	484.00	-0.22	-0.11
0.86	0.00	0.50	0.25	0.75	0.75	0.00	1.00	0.25	0.25	4.50	6.50	4.25	0.50	2.00	0.00	4.25	-0.211426	0.112793	0.959961	-5.600000	15.820000	-3.220000	250.00	0.19	-0.09	7.25	8.25	5.50	8.25	2.75	5.50	0.50	2.75	0.00	1.00	1.25	1.25	2.00	0.00	0.00	0.00	-0.154297	0.127930	0.985352	5.320000	-2.170000	2.870000	496.00	-0.21	-0.12
0.87	0.00	0.00	0.00	0.00	0.50	0.00	1.00	0.00	0.25	4.75	6.00	4.50	0.75	2.25	0.25	4.50	-0.208984	0.122070	0.966309	-4.410000	19.460001	-3.920000	237.00	0.24	-0.09	7.00	8.25	5.50	8.00	2.50	5.75	0.50	2.75	0.00	0.75	1.00	1.50	1.75	0.00	0.00	0.25	-0.143555	0.128418	0.978516	7.210000	-1.400000	3.150000	488.00	-0.21	-0.13
0.88	0.00	0.00	0.00	0.00	0.25	0.00	1.00	0.25	0.75	4.75	7.00	4.25	0.75	2.25	0.25	4.25	-0.280273	0.192871	0.924805	-4.060000	23.730000	-7.140000	251.00	0.24	-0.08	6.75	8.00	5.00	8.00	2.25	5.50	0.50	3.00	0.00	0.75	1.25	1.25	1.75	0.00	0.00	0.00	-0.152832	0.130859	0.970703	7.280000	-0.280000	3.500000	474.00	-0.21	-0.13
0.89	0.00	0.00	0.00	0.00	0.25	0.00	1.00	0.25	0.75	4.50	6.50	4.00	0.50	2.25	0.00	4.50	-0.268066	0.118164	1.226074	22.049999	130.970001	-26.180000	237.00	0.24	-0.08	6.50	7.75	5.00	7.75	2.25	5.50	0.50	3.00	0.00	0.75	1.25	1.25	2.00	0.00	0.00	0.00	-0.143555	0.132812	0.961426	5.740000	0.700000	3.010000	469.00	-0.21	-0.13
0.90	0.00	0.00	0.00	0.00	0.00	0.00	0.75	0.00	0.00	4.50	6.25	4.50	0.25	3.00	0.00	4.25	-0.396484	0.268066	1.431641	19.389999	197.050003	-29.049999	222.00	0.25	-0.09	6.00	7.75	5.00	7.75	2.00	5.50	0.50	3.00	0.00	0.75	1.25	1.00	1.50	0.00	0.00	0.00	-0.139648	0.142090	0.964355	3.430000	0.630000	2.170000	454.00	-0.21	-0.13
0.91	0.00	0.00	0.00	0.00	0.00	0.00	0.75	0.00	0.00	4.50	6.25	3.75	0.00	2.50	0.00	4.50	-0.367676	0.240723	1.817871	4.480000	244.720001	-35.980000	209.00	0.25	-0.08	5.50	7.25	4.75	7.50	2.00	5.75	0.50	3.00	0.00	0.75	1.25	1.50	2.25	0.00	0.00	0.00	-0.146484	0.138672	0.963867	1.820000	0.210000	1.680000	453.00	-0.20	-0.14
0.92	0.00	0.00	0.00	0.00	0.00	0.00	0.50	0.00	0.00	4.25	6.00	3.75	0.00	2.00	0.00	4.00	-0.360352	0.095703	1.916992	1.050000	296.660004	-35.560001	193.00	0.25	-0.09	5.50	6.75	4.50	7.50	1.75	5.25	0.50	3.25	0.00	0.50	1.25	1.50	2.25	0.00	0.00	0.00	-0.152344	0.136230	0.969238	1.470000	-0.210000	1.470000	439.00	-0.20	-0.15
0.93	0.00	0.00	0.00	0.00	0.00	0.00	0.50	0.00	0.00	4.50	5.00	3.50	0.00	1.50	0.00	3.75	-0.148926	0.063477	1.905273	-18.690001	338.799988	-31.430000	177.00	0.25	-0.09	5.25	6.50	4.25	7.25	1.75	5.25	0.50	3.25	0.00	0.75	1.25	1.00	2.50	0.00	0.00	0.00	-0.147461	0.140625	0.963379	0.630000	-0.490000	1.260000	428.00	-0.19	-0.15
0.94	0.00	0.00	0.00	0.00	0.00	0.00	0.50	0.00	0.00	4.00	6.00	3.25	0.00	1.25	0.00	4.00	-0.272461	0.323730	2.449219	-43.750000	360.360016	-28.630001	179.00	0.25	-0.10	5.00	6.25	4.25	6.75	1.75	5.25	0.50	3.25	0.00	1.00	1.50	1.75	2.50	0.00	0.00	0.00	-0.141113	0.144043	0.961914	-1.330000	-0.840000	0.980000	430.00	-0.18	-0.15
0.95	0.00	0.00	0.00	0.00	0.00	0.00	0.50	0.00	0.00	4.00	5.75	3.50	0.00	0.75	0.00	3.75	0.216797	0.567383	2.461914	-70.070000	354.899994	-24.639999	173.00	0.24	-0.11	4.75	5.50	4.00	6.75	1.75	5.25	0.50	3.50	0.00	1.00	1.75	1.50	2.75	0.00	0.00	0.25	-0.139160	0.132324	0.974121	-3.010000	0.000000	0.490000	425.00	-0.17	-0.16
0.96	0.00	0.00	0.00	0.00	0.00	0.00	0.50	0.00	0.00	3.75	5.75	3.50	0.00	0.50	0.00	3.75	1.385254	0.917969	2.855469	-120.959999	314.929993	-14.140000	169.00	0.24	-0.11	4.00	5.50	3.50	6.50	1.75	5.00	0.50	3.75	0.00	1.25	1.50	2.00	3.00	0.00	0.00	0.25	-0.152832	0.140625	0.964844	-3.710000	0.910000	-0.140000	418.00	-0.15	-0.17
0.97	0.00	0.00	0.00	0.00	0.00	0.00	0.50	0.00	0.00	3.75	5.50	3.50	0.00	0.00	0.00	4.00	3.392578	1.527832	3.303223	-121.870003	236.250000	15.400000	163.00	0.24	-0.12	3.25	5.00	3.00	6.00	1.75	5.00	0.50	3.50	0.00	1.00	2.00	2.00	3.25	0.25	0.00	0.25	-0.145996	0.155273	0.941895	-5.810000	0.420000	-0.350000	398.00	-0.13	-0.17
0.98	0.00	0.00	0.00	0.00	0.00	0.00	0.75	0.00	0.00	3.75	5.75	3.25	0.00	0.00	0.00	4.00	2.392090	0.831543	3.137695	-20.650000	135.169998	48.720001	167.00	0.23	-0.11	3.00	4.50	3.25	5.75	1.75	5.00	0.50	3.50	0.00	1.25	2.00	2.25	3.50	0.00	0.00	0.25	-0.162109	0.140137	0.958496	-9.520000	-0.210000	-1.120000	396.00	-0.13	-0.18
0.99	0.00	0.00	0.00	0.00	0.00	0.00	0.50	0.00	0.00	3.75	5.50	3.25	0.00	0.00	0.00	4.00	2.562012	-0.303711	1.476074	35.070000	41.790001	49.700001	160.00	0.24	-0.12	2.75	4.50	3.00	6.00	1.75	5.00	0.50	3.75	0.00	1.50	2.25	2.50	4.00	0.00	0.00	0.25	-0.149414	0.113770	0.976074	-9.100000	-0.910000	-1.190000	409.00	-0.11	-0.19
1.00	0.00	0.00	0.00	0.00	0.00	0.00	0.50	0.00	0.00	3.75	5.50	3.50	0.00	0.00	0.00	4.00	2.223145	-0.845215	1.124023	14.350000	8.470000	25.760000	163.00	0.24	-0.12	2.75	3.50	2.75	5.25	2.00	5.00	0.50	4.50	0.00	1.25	2.50	2.50	4.25	0.25	0.00	0.25	-0.152344	0.115234	0.975586	-4.760000	0.910000	-0.700000	407.00	-0.10	-0.19
1.01																										2.50	3.25	2.50	5.50	2.00	4.75	0.50	5.00	0.25	1.50	2.75	3.00	5.00	0.25	0.00	0.50	-0.157715	0.116699	0.977539	0.490000	2.450000	-0.000000	429.00	-0.07	-0.20
1.02	0.00	0.00	0.00	0.00	0.00	0.00	0.75	0.00	0.00	3.50	5.25	3.25	0.00	0.00	0.00	3.75	1.982422	-0.435059	1.802246	-24.219999	-43.680000	-37.660000	158.00	0.23	-0.11	1.75	2.50	2.25	4.00	1.75	5.00	0.50	5.75	0.25	1.75	3.00	3.75	5.25	0.50	0.00	0.50	-0.159180	0.126953	0.961914	4.340000	3.360000	0.840000	424.00	-0.04	-0.21
1.03	0.00	0.00	0.00	0.00	0.00	0.00	0.50	0.00	0.00	3.50	5.50	3.25	0.00	0.00	0.00	3.75	1.847656	-0.391602	1.689941	-15.820000	-98.419998	-58.730000	156.00	0.24	-0.12	1.50	2.25	1.50	4.00	1.75	5.00	0.50	6.25	0.50	2.00	3.25	4.50	6.50	0.25	0.00	0.75	-0.177246	0.121582	0.972168	7.000000	3.920000	1.470000	445.00	-0.02	-0.23
1.04	0.00	0.00	0.00	0.00	0.00	0.00	0.75	0.00	0.00	3.50	5.50	3.50	0.00	0.00	0.00	3.75	1.581543	-0.348633	1.408691	-16.730000	-145.039993	-72.239998	163.00	0.23	-0.12	1.00	1.75	1.25	3.00	1.75	5.25	0.50	6.75	0.00	2.00	4.00	5.50	7.50	0.50	0.00	1.00	-0.185059	0.118652	0.952637	10.640000	3.430000	1.890000	455.00	0.01	-0.25
1.05	0.00	0.00	0.00	0.00	0.00	0.00	0.50	0.00	0.00	3.25	5.50	3.25	0.00	0.00	0.00	4.00	1.303711	-0.198730	1.269043	-23.309999	-176.330002	-78.260002	155.00	0.24	-0.13	1.00	1.50	1.25	2.25	1.75	5.25	0.50	7.25	0.25	2.25	4.00	7.00	8.00	0.75	0.00	1.00	-0.171875	0.130859	0.956543	14.140000	1.470000	2.170000	481.00	0.03	-0.25
1.06	0.00	0.00	0.00	0.00	0.00	0.00	0.75	0.00	0.00	3.50	5.50	3.25	0.00	0.00	0.00	4.00	1.032715	-0.003418	1.266602	-22.049999	-200.199997	-75.040001	162.00	0.23	-0.11	0.75	1.50	1.25	3.25	1.75	6.00	0.50	8.00	0.25	2.00	6.25	7.75	9.00	1.00	0.00	1.25	-0.154785	0.140625	0.947754	16.799999	-0.980000	1.750000	550.00	0.04	-0.25
1.07	0.00	0.00	0.00	0.00	0.00	0.00	0.75	0.00	0.00	3.75	5.50	3.25	0.00	0.00	0.00	3.75	0.772461	0.115234	1.250488	-12.250000	-221.690002	-64.750000	163.00	0.23	-0.11	1.00	1.25	1.25	3.25	1.75	6.75	0.50	8.25	0.25	2.25	7.00	8.25	9.50	1.25	0.25	1.50	-0.132324	0.186035	0.927246	15.260000	-3.080000	-0.560000	588.00	0.04	-0.25
1.08	0.00	0.00	0.00	0.00	0.00	0.00	0.50	0.00	0.00	3.50	5.00	3.25	0.00	0.00	0.00	4.00	0.496582	0.187012	1.157715	-1.890000	-238.770004	-50.680000	153.00	0.24	-0.12	1.00	1.25	1.00	3.25	2.00	7.25	0.50	8.75	0.50	2.75	7.75	8.75	10.00	1.75	0.25	2.00	-0.148438	0.175293	0.949219	10.290000	-3.920000	-4.620000	634.00	0.05	-0.24
1.09	0.00	0.00	0.00	0.00	0.00	0.00	0.50	0.00	0.00	3.50	5.50	3.25	0.00	0.00	0.00	4.00	0.214844	0.276855	1.158203	4.200000	-248.360001	-35.279999	158.00	0.24	-0.12	0.75	1.00	1.00	3.00	2.00	7.75	0.75	9.00	0.75	2.50	8.25	9.50	11.00	2.25	0.50	2.50	-0.157715	0.142090	0.980469	6.440000	-3.080000	-7.560000	672.00	0.07	-0.24
1.10	0.00	0.00	0.00	0.00	0.00	0.00	0.75	0.00	0.00	3.50	5.25	3.25	0.00	0.00	0.00	4.00	-0.288574	0.378906	1.283203	30.240000	-257.040009	1.400000	159.00	0.23	-0.11	0.50	1.00	0.75	3.00	2.00	7.75	0.75	9.50	1.00	3.00	8.75	10.25	11.50	3.00	1.00	3.00	-0.157715	0.168457	1.002441	5.530000	-1.330000	-9.730000	714.00	0.08	-0.23
1.11	0.00	0.00	0.00	0.00	0.00	0.00	0.75	0.00	0.00	2.75	5.25	3.25	0.00	0.00	0.00	3.75	-0.590820	0.309082	1.284180	45.220001	-260.260010	20.580000	150.00	0.23	-0.12	0.50	1.00	1.00	2.25	1.75	7.50	0.75	9.75	0.75	3.00	9.25	10.75	12.25	3.50	1.50	4.50	-0.140137	0.171875	1.019043	6.440000	1.400000	-11.410000	739.00	0.09	-0.24
1.12	0.00	0.00	0.00	0.00	0.00	0.00	0.75	0.00	0.00	3.50	5.50	3.25	0.00	0.00	0.00	4.25	-0.927734	0.206055	1.207520	49.209999	-259.420013	39.200001	163.00	0.23	-0.12	0.00	0.50	0.00	2.00	1.25	7.00	0.75	9.75	1.00	3.75	10.00	11.50	13.00	5.75	2.00	5.75	-0.149414	0.167969	0.989746	8.890000	5.740000	-14.000000	769.00	0.13	-0.23
1.13	0.00	0.00	0.00	0.00	0.00	0.00	0.50	0.00	0.00	3.50	5.25	3.25	0.00	0.00	0.00	4.00	-1.326172	0.180176	1.060547	41.790001	-253.330002	56.349998	155.00	0.24	-0.12	0.25	0.00	0.00	1.25	0.50	6.25	0.50	9.50	1.50	3.50	10.75	12.25	13.50	7.00	2.50	6.25	-0.169922	0.202637	1.018555	13.790000	12.530000	-17.500000	777.00	0.15	-0.23
1.14	0.00	0.00	0.00	0.00	0.00	0.00	0.50	0.00	0.00	3.25	5.75	3.00	0.00	0.00	0.00	4.00	-1.652344	0.199707	0.846680	30.870001	-239.889999	72.449997	155.00	0.24	-0.12	0.00	0.00	0.00	0.50	0.25	5.50	0.25	9.25	1.50	3.75	11.00	12.50	13.75	8.00	2.75	7.00	-0.095703	0.266113	1.055176	28.350000	23.240000	-29.330000	773.00	0.17	-0.22
1.15	0.00	0.00	0.00	0.00	0.00	0.00	0.75	0.00	0.00	3.50	5.50	3.25	0.00	0.00	0.00	4.00	-1.926270	0.257812	0.658203	24.430000	-219.940002	86.730003	162.00	0.23	-0.11	0.00	0.00	0.00	0.25	0.00	5.00	0.00	9.00	1.25	3.00	11.25	13.00	14.25	9.25	3.50	7.75	-0.175293	0.146484	1.204102	48.230000	47.599998	-37.520000	778.00	0.18	-0.23
1.16	0.00	0.00	0.00	0.00	0.00	0.00	0.75	0.00	0.00	3.75	5.50	3.25	0.00	0.00	0.00	3.75	-2.161621	0.287109	0.503906	24.080000	-196.979996	100.309998	163.00	0.23	-0.11	0.00	0.00	0.00	0.50	0.00	4.00	0.00	8.25	0.75	3.00	11.25	13.25	14.00	10.25	3.75	8.00	-0.139160	0.185059	1.379395	70.559998	96.809998	-42.490002	765.00	0.19	-0.22
1.17	0.00	0.00	0.00	0.00	0.00	0.00	0.75	0.00	0.00	3.25	5.50	3.25	0.00	0.00	0.00	4.00	-2.408203	0.261230	0.388672	30.520000	-171.080002	112.419998	159.00	0.23	-0.12	0.00	0.00	0.00	0.00	0.00	3.00	0.00	7.75	0.50	2.75	11.25	13.00	13.25	11.75	4.50	8.50	-0.225586	0.450684	1.285645	75.110001	164.360001	-47.740002	749.00	0.21	-0.21
1.18	0.00	0.00	0.00	0.00	0.00	0.00	0.50	0.00	0.00	3.50	5.25	3.50	0.00	0.00	0.00	3.75	-2.603516	0.163086	0.337891	36.889999	-140.979996	123.270004	156.00	0.24	-0.12	0.00	0.00	0.00	0.00	0.00	1.50	0.00	6.50	0.50	2.75	11.00	12.50	12.75	13.25	5.25	8.50	0.129883	0.588867	1.945312	84.349998	216.160004	-52.779999	723.00	0.23	-0.20
1.19	0.00	0.00	0.00	0.00	0.00	0.00	0.75	0.00	0.00	3.50	5.50	3.25	0.00	0.00	0.00	4.00	-2.784668	0.063965	0.335449	38.290001	-108.500000	132.649994	162.00	0.23	-0.11	0.00	0.00	0.00	0.00	0.00	1.00	0.00	5.75	0.25	3.00	10.75	11.75	11.50	14.75	5.75	9.00	-0.495605	0.425293	2.022461	15.890000	386.679993	-72.029999	704.00	0.24	-0.18
1.20	0.00	0.00	0.00	0.00	0.00	0.00	0.50	0.00	0.00	3.75	5.75	3.50	0.00	0.00	0.00	4.00	-2.975586	0.014160	0.386230	31.010000	-76.720001	137.059998	166.00	0.24	-0.12	0.00	0.00	0.00	0.00	0.00	0.00	0.00	4.50	0.25	2.75	10.00	10.75	10.00	15.75	6.25	9.00	-0.377930	0.446289	1.734375	19.320000	442.750000	-91.349998	654.00	0.26	-0.16
1.21	0.00	0.00	0.00	0.00	0.00	0.00	0.50	0.00	0.00	3.75	5.25	3.25	0.00	0.00	0.00	4.00	-3.201172	0.020996	0.432617	16.940001	-48.090000	131.949997	158.00	0.24	-0.12	0.00	0.00	0.00	0.00	0.00	0.00	0.00	2.75	0.00	3.00	8.75	9.50	8.50	16.75	6.25	9.00	-0.542480	0.675781	1.997070	-8.050000	499.519989	-110.879997	596.00	0.28	-0.14
1.22	0.00	0.00	0.00	0.00	0.00	0.00	0.50	0.00	0.00	3.25	5.50	3.25	0.00	0.00	0.00	4.00	-3.451172	0.057617	0.366699	3.710000	-21.000000	116.690002	155.00	0.24	-0.13	0.00	0.00	0.00	0.00	0.00	0.00	0.00	1.50	0.00	2.50	7.75	8.25	6.75	16.50	6.25	8.25	-0.833008	0.674805	2.424316	-35.420002	555.380005	-130.059998	527.00	0.29	-0.12
1.23	0.00	0.00	0.00	0.00	0.00	0.00	0.50	0.00	0.00	3.00	5.25	3.25	0.00	0.00	0.00	4.00	-3.621094	0.124023	0.173828	-13.440001	8.540000	90.019997	150.00	0.24	-0.13	0.00	0.00	0.00	0.00	0.00	0.00	0.00	0.75	0.00	2.25	5.75	6.75	5.00	15.25	6.00	7.00	-1.194824	1.077637	3.312500	-27.860001	616.770020	-140.419998	441.00	0.30	-0.10
1.24	0.00	0.00	0.00	0.00	0.00	0.00	0.75	0.00	0.00	3.50	5.50	3.25	0.00	0.00	0.00	3.75	-3.676758	0.389160	0.098633	-32.340000	41.650002	50.959999	160.00	0.23	-0.11	0.00	0.00	0.00	0.00	0.00	0.00	0.00	0.00	0.00	1.50	3.50	4.75	2.75	13.25	5.00	5.75	-1.073730	1.063965	3.996582	-15.190001	666.820007	-156.869995	323.00	0.33	-0.07
1.25	0.00	0.00	0.00	0.00	0.00	0.00	0.50	0.00	0.00	3.25	5.50	3.50	0.00	0.00	0.00	4.00	-3.664551	0.660645	0.061523	-27.370001	72.519997	8.610000	158.00	0.24	-0.13	0.00	0.00	0.00	0.00	0.00	0.00	0.00	0.00	0.00	1.00	2.25	2.50	1.25	10.25	3.75	4.00	-0.885254	0.975098	4.269531	-2.520000	692.650024	-168.630005	220.00	0.34	-0.04
1.26	0.00	0.00	0.00	0.00	0.00	0.00	0.75	0.00	0.00	3.25	5.50	3.00	0.00	0.00	0.00	4.00	-3.531738	0.793457	0.047852	-6.230000	98.419998	-29.750000	156.00	0.23	-0.11	0.00	0.00	0.00	0.00	0.00	0.00	0.00	0.00	0.00	1.00	1.25	1.75	0.25	6.75	2.25	1.75	-1.060547	1.147461	5.294434	-2.940000	677.669983	-196.000000	135.00	0.34	-0.02
1.27	0.00	0.00	0.00	0.00	0.00	0.00	0.75	0.00	0.00	3.25	5.00	3.00	0.00	0.00	0.00	4.00	-0.535645	0.740234	2.709473	137.410004	275.450012	-7.280000	151.00	0.23	-0.11	0.00	0.00	0.00	0.00	0.00	0.00	0.00	0.00	0.00	0.50	1.00	1.00	0.25	2.00	0.75	0.25	-0.420410	1.576172	5.870605	-9.170000	650.859985	-220.779999	55.00	0.31	-0.06
1.28	2.00	2.75	0.00	0.00	0.00	0.00	0.75	0.00	0.00	3.75	5.25	3.00	0.00	0.00	0.00	3.75	1.620605	-0.008301	3.005859	27.510000	190.960007	-22.469999	204.00	0.09	-0.09	0.00	0.00	0.00	0.00	0.00	0.00	0.00	0.00	0.00	0.00	0.25	0.25	0.25	0.25	0.00	0.00	1.526855	1.967773	4.921875	9.730000	585.619995	-237.649994	10.00	0.00	0.00
1.29	3.00	4.25	0.25	0.00	0.00	0.00	0.75	0.00	0.00	3.50	4.75	3.25	0.00	0.00	0.00	4.00	-0.147949	-0.314453	0.898926	88.410004	63.980000	-16.940001	227.00	0.03	-0.09	0.00	0.00	0.00	0.00	0.00	0.00	0.00	0.00	0.00	0.25	0.50	0.50	0.00	0.00	0.00	0.00	4.278320	0.961426	4.002441	11.620000	410.269989	-250.949997	13.00	0.00	0.00
1.30	3.75	5.25	0.25	0.00	0.00	0.00	0.75	0.00	0.00	3.50	5.00	3.00	0.00	0.00	0.00	4.00	-0.536621	0.098633	0.777344	65.519997	129.080002	-46.549999	244.00	-0.00	-0.09	0.00	0.00	0.00	0.00	0.00	0.00	0.00	0.00	0.00	0.00	0.25	0.00	0.00	0.00	0.00	0.00	0.502930	4.082031	9.185547	18.410000	153.020004	-179.410004	3.00	0.00	0.00
1.31	4.25	5.75	1.00	0.75	0.00	0.00	0.75	0.00	0.00	3.25	5.25	3.00	0.00	0.00	0.00	4.00	-0.521484	0.867676	1.374023	-19.040001	100.660004	24.500000	270.00	-0.03	-0.08	0.00	0.00	0.00	0.00	0.00	0.00	0.00	0.00	0.00	0.00	0.00	0.00	0.00	0.00	0.00	0.00	3.168945	0.522461	3.985352	25.549999	-89.949997	-100.169998	0.00	0.00	0.00
1.32	7.00	7.50	1.25	1.75	0.25	0.00	0.75	0.00	0.00	3.50	5.25	3.00	0.00	0.00	0.00	3.75	-0.218262	-0.216309	0.839844	-39.970001	95.059998	52.709999	332.00	-0.09	-0.07	0.00	0.00	0.00	0.00	0.00	0.00	0.00	0.00	0.00	0.00	0.00	0.00	0.00	0.00	0.00	0.00	1.996582	0.011719	1.996582	-34.090000	-188.440002	-110.599998	0.00	0.00	0.00
1.33	7.25	8.25	1.50	1.50	0.25	0.00	0.75	0.00	0.00	3.25	5.25	3.25	0.00	0.00	0.00	3.75	-0.134766	-1.184570	0.926758	-22.820000	90.300003	34.020000	342.00	-0.10	-0.07	0.00	0.00	0.00	0.00	0.00	0.00	0.00	0.00	0.00	0.00	0.00	0.00	0.00	0.00	0.00	0.00	1.770020	0.634766	1.725586	-75.529999	-157.220001	-138.320007	0.00	0.00	0.00
1.34	9.25	11.00	2.25	2.50	0.50	0.00	0.75	0.00	0.00	3.25	5.00	3.00	0.00	0.00	0.00	3.75	-0.525391	-0.645020	1.459961	10.360000	90.300003	-9.100000	405.00	-0.15	-0.07	0.00	0.00	0.00	0.00	0.00	0.00	0.00	0.00	0.00	0.00	0.00	0.00	0.00	0.00	0.00	0.00	1.921875	0.942871	2.482910	-39.060001	-148.050003	-149.589996	0.00	0.00	0.00
1.35	11.50	14.50	3.50	4.00	1.00	0.00	1.00	0.00	0.00	3.50	5.00	3.25	0.00	0.00	0.00	4.00	-0.469727	0.469238	1.557617	41.090000	72.449997	-27.090000	507.00	-0.18	-0.06	0.00	0.00	0.00	0.00	0.00	0.00	0.00	0.00	0.00	0.00	0.00	0.00	0.00	0.00	0.00	0.00	1.894531	0.936035	3.002441	18.129999	-212.520004	-135.520004	0.00	0.00	0.00
1.36	15.00	18.50	4.50	5.00	1.50	0.25	1.00	0.00	0.00	3.25	5.00	3.25	0.00	0.00	0.00	4.00	-0.422852	0.701172	1.323242	29.400000	46.130001	-16.030001	607.00	-0.21	-0.06	0.00	0.00	0.00	0.00	0.00	0.00	0.00	0.00	0.00	0.00	0.00	0.00	0.00	0.00	0.00	0.00	1.770996	0.540039	2.651367	31.430000	-293.230011	-106.120003	0.00	0.00	0.00
1.37	15.50	19.00	5.25	5.50	1.75	0.25	1.00	0.00	0.00	3.50	5.00	3.00	0.00	0.00	0.00	4.00	-0.218750	0.081543	1.207031	18.549999	34.720001	2.660000	634.00	-0.22	-0.06	0.00	0.00	0.00	0.00	0.00	0.00	0.00	0.00	0.00	0.00	0.00	0.00	0.00	0.00	0.00	0.00	1.530273	0.485840	2.179199	8.680000	-344.820007	-73.849998	0.00	0.00	0.00
1.38	14.25	19.50	5.25	5.50	1.50	0.25	1.00	0.00	0.00	3.25	4.75	3.00	0.00	0.00	0.00	3.75	-0.305664	0.146973	1.089844	21.700001	21.070000	-0.840000	616.00	-0.22	-0.06	0.00	0.00	0.00	0.00	0.00	0.00	0.00	0.00	0.00	0.00	0.00	0.00	0.00	0.00	0.00	0.00	1.412598	0.532715	1.958984	6.230000	-370.019989	-44.310001	0.00	0.00	0.00
1.39	14.75	20.75	5.50	6.75	1.50	0.50	1.00	0.00	0.00	3.50	5.00	3.25	0.00	0.00	0.00	3.75	-0.306152	0.117676	1.002930	17.430000	3.920000	-2.030000	660.00	-0.22	-0.07	0.00	0.00	0.00	0.00	0.00	0.00	0.00	0.00	0.00	0.00	0.00	0.00	0.00	0.00	0.00	0.00	1.080078	0.304199	2.072266	80.430000	-416.010010	5.530000	0.00	0.00	0.00
1.40	15.75	22.75	5.75	7.75	1.75	0.50	1.00	0.00	0.00	3.50	5.00	3.25	0.00	0.00	0.00	4.00	-0.248535	0.191406	0.917969	15.470000	-0.420000	0.280000	706.00	-0.23	-0.07	0.00	0.00	0.00	0.00	0.00	0.00	0.25	0.00	0.00	0.00	0.00	0.00	0.00	0.00	0.00	0.00	0.842285	0.209473	2.161621	97.230003	-442.679993	25.480000	4.00	0.00	0.00
1.41	15.50	23.50	5.50	8.25	1.75	0.75	0.75	0.00	0.00	3.75	5.25	3.25	0.00	0.00	0.00	4.00	-0.221191	0.092773	0.971680	15.050000	1.120000	-0.140000	718.00	-0.23	-0.07	0.00	0.00	0.00	0.00	0.00	0.00	0.25	0.00	0.00	0.00	0.00	0.00	0.00	0.00	0.00	0.00	0.570801	0.243652	2.229492	98.910004	-465.850006	39.900002	4.00	0.00	0.00
1.42	15.00	23.25	5.50	8.50	1.75	0.75	1.00	0.25	0.00	3.75	5.50	3.25	0.00	0.00	0.00	4.00	-0.208984	0.122559	0.961426	19.040001	2.590000	-2.870000	723.00	-0.22	-0.07	0.00	0.00	0.00	0.00	0.00	0.00	0.00	0.00	0.00	0.00	0.00	0.00	0.00	0.00	0.00	0.00	0.310059	0.379883	2.311035	104.160004	-484.399994	49.770000	0.00	0.00	0.00
1.43	14.00	22.25	5.25	8.25	1.50	1.00	1.00	0.25	0.00	3.50	5.25	3.50	0.00	0.00	0.00	4.00	-0.175293	0.188477	0.882324	18.620001	4.130000	-4.690000	695.00	-0.22	-0.08	0.00	0.00	0.00	0.00	0.00	0.00	0.25	0.00	0.00	0.00	0.00	0.00	0.00	0.00	0.00	0.00	0.037598	0.500977	2.454590	118.370003	-503.089996	55.650002	4.00	0.00	0.00
1.44	11.50	20.25	5.00	8.25	1.25	1.00	0.75	0.25	0.00	3.75	5.50	3.50	0.00	0.00	0.00	3.75	-0.176758	0.208984	0.893066	13.860000	8.400000	-5.670000	646.00	-0.20	-0.09	0.00	0.00	0.00	0.00	0.00	0.00	0.00	0.00	0.00	0.00	0.00	0.00	0.00	0.00	0.00	0.00	-0.436523	0.537598	2.630859	146.580002	-522.059998	58.240002	0.00	0.00	0.00
1.45	11.00	18.75	4.75	8.00	1.25	1.00	0.75	0.25	0.00	3.75	5.75	3.50	0.00	0.00	0.00	3.75	-0.207031	0.190430	0.917969	8.540000	11.200000	-5.880000	624.00	-0.20	-0.09	0.00	0.00	0.00	0.00	0.00	0.00	0.25	0.00	0.00	0.00	0.00	0.00	0.00	0.00	0.00	0.00	-1.007324	0.488281	2.752441	183.539993	-540.260010	62.439999	4.00	0.00	0.00
1.46	9.00	16.00	4.25	7.25	1.25	1.25	0.75	0.50	0.00	3.75	5.75	3.50	0.00	0.00	0.00	3.75	-0.199219	0.174316	0.911621	2.450000	13.790000	-5.880000	570.00	-0.17	-0.09	0.00	0.00	0.00	0.00	0.00	0.00	0.25	0.00	0.00	0.00	0.00	0.00	0.00	0.00	0.00	0.00	-1.706055	0.461426	2.859375	211.190002	-556.010010	78.050003	4.00	0.00	0.00
1.47	7.50	12.75	3.75	6.50	1.25	1.00	1.00	0.50	0.00	4.00	6.00	3.75	0.00	0.00	0.00	3.75	-0.124512	0.257812	0.956543	-7.630000	17.010000	-5.810000	520.00	-0.14	-0.09	0.00	0.00	0.00	0.00	0.00	0.00	0.00	0.00	0.00	0.00	0.00	0.00	0.00	0.00	0.00	0.00	-2.461914	0.433594	2.774414	221.059998	-565.250000	110.180000	0.00	0.00	0.00
1.48	5.75	9.75	2.75	5.75	1.25	1.00	0.75	0.50	0.00	4.00	6.00	4.00	0.25	0.25	0.00	3.75	-0.197266	0.157715	0.883301	-20.090000	19.460001	-4.900000	458.00	-0.11	-0.10	0.00	0.00	0.00	0.00	0.00	0.00	0.25	0.00	0.00	0.00	0.00	0.00	0.00	0.00	0.00	0.00	-3.207520	0.458496	2.589355	224.630005	-559.090027	156.449997	4.00	0.00	0.00
1.49	4.00	7.50	2.25	5.00	1.00	1.00	1.00	0.75	0.00	4.25	6.25	4.25	0.25	0.25	0.00	3.75	-0.192871	0.118652	0.920410	-32.340000	18.690001	-4.690000	418.00	-0.06	-0.11	0.00	0.00	0.00	0.00	0.00	0.00	0.00	0.00	0.00	0.00	0.00	0.00	0.00	0.00	0.00	0.00	-4.137207	0.442383	2.656738	243.460007	-535.080017	212.100006	0.00	0.00	0.00
1.50	2.75	5.75	1.75	3.25	1.00	0.50	1.00	0.75	0.00	4.50	6.50	4.75	0.75	0.50	0.00	4.00	-0.189453	0.110352	0.937988	-39.970001	14.560000	-4.970000	377.00	-0.01	-0.11	0.00	0.00	0.00	0.00	0.00	0.00	0.00	0.00	0.00	0.00	0.00	0.00	0.00	0.00	0.00	0.00	-5.299805	0.353516	2.918457	281.329987	-499.309998	272.299988	0.00	0.00	0.00
1.51	1.75	4.25	1.25	2.50	1.00	0.75	1.00	1.00	0.00	4.75	6.75	4.75	1.00	0.75	0.00	4.25	-0.265137	0.090820	1.004883	-29.120001	9.730000	-4.760000	357.00	0.04	-0.12	0.00	0.00	0.00	0.00	0.00	0.00	0.00	0.00	0.00	0.00	0.00	0.00	0.00	0.00	0.00	0.00	-6.707031	0.276367	3.031738	296.239990	-456.750000	331.170013	0.00	0.00	0.00
1.52	0.50	2.25	0.50	1.50	0.75	0.75	1.00	1.25	0.00	4.75	7.25	5.25	1.75	1.00	0.00	4.25	-0.200195	0.127930	0.949707	-9.100000	8.400000	-1.610000	326.00	0.11	-0.14	0.00	0.00	0.00	0.00	0.00	0.00	0.00	0.00	0.00	0.00	0.00	0.00	0.00	0.00	0.00	0.00	-8.209473	0.111328	2.562012	254.240005	-402.709991	382.690002	0.00	0.00	0.00
1.53	0.00	1.25	0.00	0.75	0.50	0.75	0.75	1.75	0.00	5.00	7.50	6.25	2.50	1.50	0.00	4.50	-0.253906	0.147949	0.950195	5.250000	9.870000	0.560000	327.00	0.16	-0.17	0.00	0.00	0.00	0.00	0.00	0.00	0.00	0.00	0.00	0.00	0.00	0.00	0.00	0.00	0.00	0.00	-9.274902	-0.129395	1.169922	164.080002	-324.170013	413.209991	0.00	0.00	0.00
1.54	0.00	0.25	0.25	1.00	0.50	0.50	1.00	2.25	0.00	5.25	7.75	7.25	3.25	1.75	0.00	4.50	-0.248535	0.136719	0.932129	9.170000	12.250000	-1.050000	356.00	0.17	-0.17	0.00	0.00	0.00	0.00	0.00	0.00	0.00	0.00	0.00	0.00	0.00	0.00	0.00	0.00	0.00	0.00	-9.372070	-0.406738	-0.594727	77.629997	-209.860001	408.170013	0.00	0.00	0.00
1.55	0.00	0.25	0.00	0.50	0.50	0.75	1.00	2.75	0.25	5.75	8.25	7.75	5.00	1.75	0.00	4.75	-0.238281	0.155273	0.943359	11.340000	14.280000	-3.220000	394.00	0.18	-0.18	0.00	0.00	0.00	0.00	0.00	0.00	0.00	0.00	0.00	0.00	0.00	0.00	0.00	0.00	0.00	0.00	-8.882324	-0.563477	-1.376953	33.880001	-70.840004	351.750000	0.00	0.00	0.00
1.56	0.00	0.00	0.00	0.00	0.25	0.25	1.00	3.25	0.00	6.00	9.00	8.50	5.75	2.25	0.25	5.00	-0.208496	0.181641	0.934082	14.070000	20.230000	-5.670000	415.00	0.20	-0.19	0.00	0.00	0.00	0.00	0.00	0.00	0.00	0.00	0.00	0.00	0.00	0.00	0.00	0.00	0.00	0.00	-8.118652	-0.496582	-0.985840	25.059999	53.760002	247.240005	0.00	0.00	0.00
1.57	0.00	0.00	0.00	0.00	0.25	0.50	1.00	4.00	0.50	7.25	9.75	9.25	6.50	3.00	0.50	5.25	-0.150391	0.134766	0.965332	12.460000	25.690001	-9.520000	482.00	0.20	-0.18	0.75	0.75	0.00	0.50	0.00	0.00	0.00	0.00	0.00	0.00	0.00	0.00	0.00	0.00	0.00	0.00	-13.116699	-1.402832	-2.796387	-20.020000	73.220001	127.610001	20.00	0.00	0.00
1.58	0.00	0.00	0.00	0.00	0.25	0.50	1.00	4.75	1.25	7.75	10.75	10.25	7.50	4.25	0.50	5.25	-0.243164	0.168945	0.965332	13.300000	34.020000	-12.880000	549.00	0.20	-0.17	4.50	5.50	0.75	1.50	0.00	0.00	0.00	0.00	0.00	0.00	0.00	0.00	0.00	0.00	0.00	0.00	1.081055	-1.826172	-1.774902	-133.000000	328.929993	65.379997	122.00	-0.38	-0.05
1.59	0.00	0.00	0.00	0.00	0.25	0.50	1.00	5.00	1.25	8.25	11.75	11.25	8.25	5.25	0.50	5.50	-0.267578	0.157227	0.978516	19.950001	45.849998	-16.799999	595.00	0.20	-0.17	13.50	12.75	2.00	3.75	0.00	0.00	0.00	0.00	0.00	0.00	0.00	0.00	0.00	0.00	0.00	0.00	-1.223633	-0.096680	5.354492	-13.790000	359.380005	22.610001	321.00	-0.38	-0.04
1.60	0.00	0.00	0.00	0.00	0.00	0.50	1.00	5.00	2.75	8.75	13.00	12.50	8.75	6.25	0.50	6.00	-0.243164	0.165039	0.924805	24.430000	52.290001	-19.809999	659.00	0.21	-0.16	18.50	15.50	4.00	5.50	0.00	0.00	0.00	0.00	0.00	0.00	0.00	0.00	0.00	0.00	0.00	0.00	-1.629395	-1.097168	3.718750	0.980000	278.250000	-15.400000	439.00	-0.38	-0.03
1.61	0.00	0.00	0.00	0.00	0.25	0.25	0.75	5.50	3.25	9.50	14.25	13.75	9.75	8.00	1.00	6.25	-0.253418	0.147949	0.878418	21.770000	50.470001	-20.160000	734.00	0.21	-0.15	19.75	16.25	5.75	6.00	0.00	0.00	0.00	0.00	0.00	0.00	0.00	0.00	0.00	0.00	0.00	0.00	-1.087402	1.239746	3.351074	-39.549999	214.130005	-60.830002	484.00	-0.37	-0.02
1.62	0.00	0.00	0.00	0.00	0.00	0.75	1.00	5.50	4.50	10.25	15.50	15.00	10.75	9.50	1.25	7.00	-0.279785	0.163086	0.921387	17.010000	45.080002	-18.900000	819.00	0.22	-0.14	19.50	16.00	6.50	6.00	0.00	0.00	0.00	0.00	0.00	0.00	0.00	0.00	0.00	0.00	0.00	0.00	-0.183594	1.137207	1.853516	-55.020000	133.350006	-24.570000	487.00	-0.37	-0.02
1.63	0.00	0.00	0.00	0.00	0.00	0.50	0.75	5.75	5.50	11.25	17.00	16.25	11.75	11.25	2.00	7.25	-0.334961	0.166992	0.980957	17.219999	47.320000	-19.600000	901.00	0.22	-0.13	18.75	15.25	7.00	7.50	0.25	0.00	0.00	0.00	0.00	0.00	0.00	0.00	0.00	0.00	0.00	0.00	0.076660	0.294922	0.156738	-20.650000	112.419998	27.299999	498.00	-0.36	-0.03
1.64	0.00	0.00	0.00	0.00	0.00	0.25	0.50	5.75	6.75	11.75	17.75	17.00	12.25	13.25	2.50	8.00	-0.294922	0.173340	1.062012	24.570000	67.129997	-21.559999	963.00	0.23	-0.13	18.25	15.75	7.75	8.25	0.50	0.00	0.00	0.00	0.00	0.00	0.00	0.00	0.00	0.00	0.00	0.00	-0.284180	-0.749512	1.069824	26.180000	153.580002	37.869999	516.00	-0.36	-0.03
1.65	0.00	0.00	0.00	0.00	0.00	0.00	0.50	5.50	7.50	12.25	18.75	17.75	12.25	15.50	3.00	8.50	-0.298340	0.205078	1.114746	38.360001	102.690002	-23.730000	1017.00	0.24	-0.11	18.75	16.50	8.50	9.25	0.75	0.75	0.25	0.00	0.00	0.00	0.00	0.00	0.00	0.00	0.00	0.00	-0.574219	-0.242676	2.212402	36.750000	129.220001	1.610000	562.00	-0.35	-0.03
1.66	0.00	0.00	0.00	0.00	0.00	0.00	0.25	5.25	8.25	12.50	19.00	18.00	12.25	17.25	3.25	9.25	-0.344727	0.212402	1.199707	45.080002	152.320007	-29.049999	1049.00	0.24	-0.11	19.50	17.25	8.75	9.75	1.00	0.00	0.25	0.00	0.00	0.00	0.00	0.00	0.00	0.00	0.00	0.00	-0.493652	0.550293	1.756348	19.250000	52.220001	-21.280001	580.00	-0.35	-0.03
1.67	0.00	0.00	0.00	0.00	0.00	0.00	0.00	4.50	8.50	12.75	19.00	18.00	11.50	19.00	4.75	9.75	-0.349609	0.225098	1.229980	54.040001	213.080002	-35.420002	1066.00	0.25	-0.10	18.75	17.50	8.75	9.75	1.00	0.00	0.25	0.00	0.00	0.00	0.00	0.00	0.00	0.00	0.00	0.00	-0.197266	0.607422	1.055664	6.440000	20.790001	-6.230000	575.00	-0.35	-0.03
1.68	0.00	0.00	0.00	0.00	0.00	0.00	0.00	3.75	8.25	13.00	19.00	17.75	10.50	20.25	5.75	10.50	-0.394043	0.218750	1.351074	55.369999	277.480011	-38.080002	1068.00	0.26	-0.09	18.25	17.25	8.50	9.75	1.00	0.00	0.25	0.00	0.00	0.00	0.00	0.00	0.00	0.00	0.00	0.00	-0.135742	0.133301	1.123047	1.470000	21.210001	8.750000	564.00	-0.35	-0.04
1.69	0.00	0.00	0.00	0.00	0.00	0.00	0.00	3.00	8.25	12.75	18.75	17.00	9.50	21.25	6.25	11.00	-0.520996	0.159668	1.403320	46.410000	339.850006	-35.490002	1051.00	0.26	-0.08	18.00	16.75	8.25	9.50	0.75	0.25	0.25	0.00	0.00	0.00	0.00	0.00	0.00	0.00	0.00	0.00	-0.206543	-0.170410	1.236816	7.070000	11.620000	2.240000	551.00	-0.35	-0.04
1.70	0.00	0.00	0.00	0.00	0.00	0.00	0.00	2.25	8.00	12.75	18.25	16.50	8.25	21.75	6.50	11.75	-0.679199	0.235840	1.621582	54.670002	400.470001	-33.320000	1026.00	0.27	-0.07	16.25	16.00	7.75	9.25	0.75	0.25	0.25	0.00	0.00	0.00	0.00	0.00	0.00	0.00	0.00	0.00	-0.191406	0.025391	1.026855	18.480000	-5.250000	-11.410000	518.00	-0.35	-0.04
1.71	0.00	0.00	0.00	0.00	0.00	0.00	0.00	1.75	7.50	12.50	17.50	15.00	6.75	21.50	6.50	12.25	-0.571777	0.154297	1.670410	64.330002	462.559998	-31.430000	973.00	0.28	-0.07	14.50	15.00	7.00	8.75	0.50	0.00	0.25	0.00	0.00	0.00	0.00	0.00	0.00	0.00	0.00	0.00	-0.104492	0.212402	0.830566	30.660000	-6.790000	-14.140000	472.00	-0.35	-0.04
1.72	0.00	0.00	0.00	0.00	0.00	0.00	0.00	1.25	6.25	12.00	16.50	14.00	5.75	20.50	6.75	12.50	-0.616211	0.341309	1.604492	53.270000	536.900024	-36.889999	910.00	0.28	-0.07	13.00	14.00	6.25	8.50	0.25	0.00	0.25	0.00	0.00	0.00	0.00	0.00	0.00	0.00	0.00	0.00	-0.050781	0.225098	0.814941	39.060001	4.130000	-11.550000	433.00	-0.35	-0.05
1.73	0.00	0.00	0.00	0.00	0.00	0.00	0.00	0.75	3.75	10.75	14.75	12.25	4.75	18.50	6.25	11.50	-1.069824	0.623047	2.118164	45.639999	616.630005	-54.810001	783.00	0.28	-0.07	10.25	12.00	5.50	8.00	0.50	0.00	0.25	0.00	0.00	0.00	0.00	0.00	0.00	0.00	0.00	0.00	-0.000977	0.236816	0.692871	39.549999	18.059999	-9.730000	375.00	-0.35	-0.05
1.74	0.00	0.00	0.00	0.00	0.00	0.00	0.00	0.25	2.25	9.00	11.50	9.50	2.50	14.50	5.25	9.25	-2.785645	1.029297	5.039551	140.000000	728.280029	-77.840004	598.00	0.29	-0.07	8.00	10.50	4.75	7.25	0.25	0.25	0.25	0.00	0.00	0.00	0.00	0.00	0.00	0.00	0.00	0.00	-0.094238	0.419922	0.801270	12.880000	23.240000	-4.900000	321.00	-0.35	-0.06
1.75	0.00	0.00	0.00	0.00	0.00	0.00	0.00	0.00	0.25	7.75	9.00	7.50	1.25	9.50	3.75	6.50	-3.312012	1.413574	6.474609	182.630005	728.140015	-83.090004	424.00	0.29	-0.08	6.50	8.25	3.50	6.25	0.25	0.25	0.25	0.00	0.00	0.00	0.00	0.00	0.00	0.00	0.00	0.00	-0.080078	0.232422	0.820801	-4.410000	24.780001	-0.420000	260.00	-0.34	-0.06
1.76	0.00	0.00	0.00	0.00	0.00	0.00	0.00	0.00	0.25	6.75	7.75	6.25	0.75	4.75	1.50	4.75	-2.122070	1.229980	6.555176	211.259995	706.580017	-104.370003	309.00	0.27	-0.09	4.25	6.50	2.50	5.50	0.25	0.00	0.25	0.50	0.00	0.00	0.00	0.00	0.25	0.00	0.00	0.00	-0.128418	0.121094	1.024902	-13.930000	25.760000	0.770000	208.00	-0.32	-0.09
1.77	0.00	0.00	0.00	0.00	0.00	0.00	0.25	0.00	0.00	6.00	7.25	5.75	0.50	2.25	0.00	4.25	0.387207	1.100586	6.573730	256.200012	616.210022	-131.600006	250.00	0.25	-0.11	3.00	5.25	1.75	4.50	0.25	0.00	0.25	0.50	0.00	0.00	0.25	0.25	0.50	0.00	0.00	0.00	-0.161133	0.084961	1.052246	-7.840000	22.049999	-0.560000	172.00	-0.29	-0.11
1.78	0.00	0.00	0.00	0.00	0.00	0.00	0.25	0.00	0.50	5.50	7.00	5.25	0.25	1.25	0.00	4.25	2.291504	0.223633	4.293945	322.769989	494.410004	-227.290009	232.00	0.24	-0.11	2.00	4.00	1.25	3.50	0.25	0.25	0.25	0.75	0.00	0.25	0.50	0.50	1.00	0.00	0.00	0.00	-0.217773	0.303711	0.854492	-2.590000	25.620001	1.400000	152.00	-0.23	-0.14
1.79	0.00	0.00	0.00	0.00	0.00	0.00	0.25	0.00	0.00	5.25	7.25	5.25	0.25	0.75	0.00	4.00	3.395996	2.612305	7.958496	200.339996	198.240005	-259.489990	220.00	0.24	-0.12	1.00	2.75	0.75	2.75	0.25	0.25	0.25	1.00	0.00	0.50	0.50	1.00	2.00	0.00	0.00	0.00	-0.070801	0.147461	0.976074	-39.340000	38.360001	5.670000	137.00	-0.14	-0.19
1.80	0.00	0.00	0.00	0.00	0.00	0.00	0.25	0.00	0.00	5.25	6.75	5.25	0.50	0.75	0.00	4.25	2.241211	0.766113	4.158691	171.149994	-20.719999	-252.559998	219.00	0.24	-0.13	0.75	1.50	0.75	2.00	0.50	0.25	0.25	1.50	0.00	1.00	1.00	1.75	3.00	0.00	0.00	0.00	-0.123047	0.158691	1.037109	-54.740002	25.340000	-2.310000	152.00	-0.04	-0.21
1.81	0.00	0.00	0.00	0.00	0.00	0.00	0.25	0.00	0.00	5.00	6.75	5.00	0.00	0.75	0.00	4.00	1.974121	0.228516	2.715820	143.919998	-71.260002	-253.889999	208.00	0.24	-0.12	0.50	1.25	0.25	1.50	0.25	0.50	0.25	2.00	0.00	1.50	1.50	2.25	4.00	0.00	0.00	0.50	-0.152344	0.275391	0.887695	-57.889999	10.500000	-9.170000	171.00	0.03	-0.24
1.82	0.00	0.00	0.00	0.00	0.00	0.00	0.25	0.00	0.00	4.75	6.50	4.75	0.00	0.00	0.00	4.25	1.884277	0.682617	3.186523	80.919998	-76.650002	-245.770004	195.00	0.24	-0.13	0.25	0.75	0.25	1.25	0.25	0.50	0.25	2.50	0.25	1.50	2.25	3.00	5.00	0.25	0.00	0.75	-0.197754	0.161621	1.026855	-54.180000	-1.400000	-14.910000	200.00	0.08	-0.25
1.83	0.00	0.00	0.00	0.00	0.00	0.00	0.50	0.00	0.00	4.75	6.50	4.75	0.00	0.00	0.00	4.00	2.030762	0.905273	3.419434	25.270000	-137.199997	-206.639999	197.00	0.23	-0.12	0.25	0.25	0.25	1.50	0.25	1.00	0.25	3.25	0.75	2.00	2.75	3.50	5.50	0.50	0.00	1.00	-0.219238	0.130371	1.041016	-41.720001	-8.050000	-18.620001	245.00	0.10	-0.24
1.84	0.00	0.00	0.00	0.00	0.00	0.00	0.50	0.00	0.00	4.50	6.25	4.50	0.00	0.00	0.00	4.00	1.890625	0.774414	3.053223	-10.430000	-218.750000	-158.339996	189.00	0.23	-0.12	0.00	0.25	0.00	1.50	0.50	0.75	0.50	4.50	0.75	2.50	3.75	4.75	7.00	1.25	0.25	1.25	-0.185547	0.130371	0.966797	-21.490000	-3.990000	-15.120000	314.00	0.12	-0.24
1.85	0.00	0.00	0.00	0.00	0.00	0.00	0.50	0.00	0.00	4.50	5.75	4.50	0.00	0.00	0.00	4.00	1.677734	0.473145	2.521484	-36.330002	-282.519989	-112.419998	184.00	0.23	-0.13	0.00	0.25	0.00	1.00	0.50	1.00	0.50	5.25	1.25	3.25	5.75	6.50	8.00	2.50	0.50	1.75	-0.188477	0.136719	0.991211	-9.870000	1.680000	-14.000000	402.00	0.15	-0.22
1.86	0.00	0.00	0.00	0.00	0.00	0.00	0.50	0.00	0.00	4.50	6.00	4.00	0.00	0.00	0.00	4.00	1.525391	0.260254	2.154297	-66.570000	-326.619995	-71.330002	181.00	0.24	-0.12	0.00	0.00	0.25	0.75	0.75	0.75	0.50	6.00	1.75	3.75	7.75	8.00	9.00	3.75	1.00	2.25	-0.172852	0.130859	0.961914	-4.620000	5.950000	-14.700000	487.00	0.17	-0.20
1.87	0.00	0.00	0.00	0.00	0.00	0.00	0.50	0.00	0.00	4.00	6.00	4.00	0.00	0.00	0.00	4.00	1.297363	0.198242	2.101562	-84.489998	-360.500000	-39.270000	176.00	0.24	-0.13	0.00	0.00	0.00	0.75	0.75	1.00	0.50	6.50	2.25	5.75	8.75	8.75	9.50	6.25	1.25	2.75	-0.165039	0.142090	0.989258	-2.170000	9.730000	-13.860000	571.00	0.18	-0.18
1.88	0.00	0.00	0.00	0.00	0.00	0.00	0.50	0.00	0.00	4.00	5.75	4.00	0.00	0.00	0.00	4.00	1.038086	0.124512	2.055664	-77.629997	-394.309998	-17.500000	174.00	0.24	-0.13	0.00	0.00	0.00	0.25	0.75	0.75	0.75	6.75	3.25	7.50	10.00	9.75	10.25	7.75	1.75	4.50	-0.176758	0.162598	1.035645	1.680000	14.560000	-15.540000	659.00	0.20	-0.16
1.89	0.00	0.00	0.00	0.00	0.00	0.00	0.50	0.00	0.00	4.00	5.50	4.25	0.00	0.00	0.00	4.00	0.845215	0.018555	1.938477	-58.029999	-424.970001	-7.210000	174.00	0.23	-0.13	0.00	0.00	0.00	0.00	0.50	0.00	0.50	6.50	4.00	8.25	11.00	10.25	10.50	9.75	2.25	5.75	-0.177734	0.166016	1.049316	6.020000	25.830000	-18.270000	703.00	0.22	-0.14
1.90	0.00	0.00	0.00	0.00	0.00	0.00	0.50	0.00	0.00	4.00	5.75	3.75	0.00	0.00	0.00	4.25	0.644043	-0.032227	1.904297	-36.680000	-449.049988	-8.330000	172.00	0.24	-0.12	0.00	0.00	0.00	0.00	0.00	0.50	0.50	6.25	5.00	8.75	11.75	11.00	11.00	12.75	3.25	6.50	-0.157715	0.232910	1.137207	14.140000	49.209999	-22.680000	777.00	0.23	-0.13
1.91	0.00	0.00	0.00	0.00	0.00	0.00	0.50	0.00	0.00	4.00	5.75	4.00	0.00	0.00	0.00	4.00	0.486816	0.003418	1.919434	-9.520000	-466.200012	-16.730000	174.00	0.24	-0.13	0.00	0.00	0.00	0.00	0.00	0.00	0.25	5.75	5.25	9.25	12.50	11.50	11.25	15.75	5.00	7.00	-0.199219	-0.093750	1.675293	33.110001	95.129997	-27.090000	831.00	0.24	-0.12
1.92	0.00	0.00	0.00	0.00	0.00	0.00	0.50	0.00	0.00	3.75	5.50	3.75	0.00	0.00	0.00	4.00	0.277832	0.083496	2.017578	24.150000	-480.690002	-25.549999	166.00	0.24	-0.13	0.00	0.00	0.00	0.00	0.00	0.25	0.00	5.00	5.75	9.50	12.50	11.75	11.00	18.00	5.75	8.00	-0.213867	0.235840	1.329590	54.529999	156.869995	-28.980000	861.00	0.25	-0.11
1.93	0.00	0.00	0.00	0.00	0.00	0.00	0.50	0.00	0.00	3.75	5.75	3.75	0.00	0.00	0.00	4.00	0.027832	0.218750	2.104492	54.529999	-496.019989	-33.529999	168.00	0.24	-0.13	0.00	0.00	0.00	0.00	0.00	0.00	0.00	3.50	5.50	9.75	13.00	12.00	10.50	20.25	6.50	8.75	-0.253906	0.135742	1.617188	66.500000	229.389999	-35.209999	869.00	0.27	-0.09
1.94	0.00	0.00	0.00	0.00	0.00	0.00	0.50	0.00	0.00	3.50	5.50	3.75	0.00	0.00	0.00	4.00	-0.254395	0.339844	2.217773	84.489998	-512.260010	-44.099998	163.00	0.24	-0.13	0.00	0.00	0.00	0.00	0.00	0.00	0.00	2.00	5.50	9.50	12.75	11.75	9.50	22.25	7.00	9.25	-0.303711	0.154297	1.718750	52.500000	307.440002	-36.889999	855.00	0.28	-0.08
1.95	0.00	0.00	0.00	0.00	0.00	0.25	0.50	0.00	0.00	3.75	5.50	3.75	0.00	0.00	0.00	4.00	-1.244141	0.360352	2.498047	192.360001	-548.940002	-76.930000	168.00	0.23	-0.13	0.00	0.00	0.00	0.00	0.00	0.00	0.00	1.25	5.25	9.25	12.50	11.00	8.75	23.25	7.50	9.75	-0.397461	0.265137	1.719727	31.290001	390.040009	-39.130001	837.00	0.29	-0.07
1.96	0.00	0.00	0.00	0.00	0.00	0.00	0.50	0.00	0.00	3.50	5.50	3.50	0.00	0.00	0.00	4.00	-1.735840	0.356934	2.518555	246.680008	-556.429993	-73.849998	160.00	0.24	-0.13	0.00	0.00	0.00	0.00	0.00	0.00	0.00	0.50	4.50	9.00	11.75	10.50	7.75	23.75	7.50	10.00	-0.515137	0.281250	2.038574	47.040001	462.279999	-47.529999	797.00	0.29	-0.06
1.97	0.00	0.00	0.00	0.00	0.00	0.00	0.50	0.00	0.00	3.50	5.50	3.75	0.00	0.00	0.00	4.00	-2.149902	0.425293	2.509277	269.429993	-547.960022	-37.170002	163.00	0.24	-0.13	0.00	0.00	0.00	0.00	0.00	0.00	0.00	0.50	3.25	8.50	11.25	10.00	7.00	23.25	7.75	9.75	-0.400391	0.416992	1.967773	58.099998	531.789978	-58.730000	755.00	0.30	-0.06
1.98	0.00	0.00	0.00	0.00	0.00	0.25	0.50	0.00	0.00	3.50	5.25	3.25	0.00	0.00	0.00	4.00	-2.634277	0.544434	2.520996	259.980011	-527.309998	30.730000	158.00	0.23	-0.13	0.00	0.00	0.00	0.00	0.00	0.00	0.00	0.00	2.00	7.50	10.00	9.00	6.00	20.50	7.00	9.00	-0.733887	0.570801	2.423340	61.810001	619.989990	-81.269997	653.00	0.30	-0.06
1.99	0.00	0.00	0.00	0.00	0.00	0.00	0.50	0.00	0.00	3.50	5.75	3.50	0.00	0.00	0.00	4.00	-3.157715	0.650879	2.591309	251.720001	-500.850006	115.150002	163.00	0.24	-0.13	0.00	0.00	0.00	0.00	0.00	0.00	0.00	0.00	0.75	5.50	8.25	7.75	5.25	16.50	5.50	7.25	-1.903809	0.962402	4.864746	117.110001	797.650024	-105.489998	519.00	0.30	-0.08
2.00	0.00	0.00	0.00	0.00	0.00	0.00	0.50	0.00	0.00	3.75	5.50	3.50	0.00	0.00	0.00	4.00	-3.760254	0.566895	2.748535	266.420013	-471.380005	201.250000	163.00	0.24	-0.12	0.00	0.00	0.00	0.00	0.00	0.00	0.00	0.00	0.50	3.25	5.00	5.25	2.75	11.50	3.75	5.25	-2.689941	0.768066	7.167969	131.320007	850.359985	-107.029999	338.00	0.31	-0.07
2.01	0.00	0.00	0.00	0.00	0.00	0.00	0.25	0.00	0.00	3.50	5.00	3.75	0.00	0.00	0.00	4.00	-4.688965	0.289551	2.953125	292.600006	-440.230011	279.089996	154.00	0.24	-0.14	0.00	0.00	0.00	0.00	0.00	0.00	0.00	0.00	0.75	2.25	3.00	2.75	1.25	6.50	2.25	2.25	-2.118164	1.211914	7.448242	123.970001	859.109985	-102.690002	196.00	0.31	-0.05
2.02	0.00	0.00	0.00	0.00	0.00	0.00	0.25	0.00	0.00	3.50	5.50	3.50	0.00	0.00	0.00	4.00	-5.979004	-0.009277	2.992188	303.660004	-402.709991	345.100006	157.00	0.24	-0.14	0.00	0.00	0.00	0.00	0.00	0.00	0.00	0.00	0.50	1.75	2.00	2.25	1.00	1.50	0.25	0.00	-0.783691	2.051270	8.158691	137.479996	819.280029	-124.599998	94.00	0.25	-0.09
2.03	0.00	0.00	0.00	0.00	0.00	0.00	0.50	0.00	0.00	3.50	5.50	3.50	0.00	0.00	0.00	4.00	-7.344727	-0.463867	2.318848	269.360016	-353.779999	397.809998	160.00	0.24	-0.13	0.00	0.00	0.00	0.00	0.00	0.00	0.00	0.00	0.00	0.50	1.25	1.50	0.75	0.25	0.00	0.25	3.303223	1.453613	6.939941	232.540009	692.929993	-163.589996	44.00	0.00	0.00
2.04	0.00	0.00	0.00	0.00	0.00	0.00	0.25	0.00	0.00	3.75	5.50	4.00	0.00	0.00	0.00	4.00	-8.360352	-1.004883	0.845703	194.600006	-278.809998	423.500000	165.00	0.24	-0.14	0.00	0.00	0.00	0.00	0.00	0.00	0.00	0.00	0.00	0.75	0.50	1.25	0.25	0.00	0.00	0.00	2.936035	3.178223	4.709473	195.089996	442.190002	-250.949997	28.00	0.00	0.00
2.05	0.00	0.00	0.00	0.00	0.00	0.00	0.25	0.00	0.00	3.50	5.75	3.75	0.00	0.00	0.00	4.00	-8.833984	-1.352539	-0.432617	110.599998	-167.229996	405.510010	162.00	0.24	-0.14	0.00	0.00	0.00	0.00	0.00	0.00	0.00	0.00	0.00	0.75	0.50	0.75	0.00	0.00	0.00	0.00	2.712402	0.984375	8.554199	129.990005	-5.880000	-240.729996	21.00	0.00	0.00
2.06	0.00	0.00	0.00	0.00	0.00	0.00	0.25	0.00	0.00	3.50	5.75	3.75	0.00	0.00	0.00	4.00	-8.617188	-1.463379	-1.028320	29.400000	-47.180000	332.220001	162.00	0.24	-0.14	0.00	0.00	0.00	0.00	0.00	0.00	0.00	0.00	0.00	0.75	0.75	0.25	0.00	0.00	0.00	0.00	2.615723	-0.558594	3.992676	18.200001	-256.899994	-269.920013	18.00	0.00	0.00
2.07	0.00	0.00	0.00	0.00	0.00	0.00	0.25	0.25	0.00	3.50	5.50	3.75	0.00	0.00	0.00	3.75	-8.144531	-1.139160	-0.759766	-28.210001	45.220001	212.729996	162.00	0.23	-0.14	0.00	0.00	0.00	0.00	0.00	0.00	0.00	0.00	0.00	0.25	0.25	0.50	0.00	0.00	0.00	0.00	1.775391	0.276855	2.999512	-90.720001	-323.750000	-339.779999	11.00	0.00	0.00
2.08	0.00	0.00	0.00	0.00	0.00	0.00	0.25	0.00	0.00	3.50	5.50	3.50	0.00	0.00	0.00	3.75	-7.419434	-0.618652	-0.508301	-45.150002	92.470001	83.090004	155.00	0.24	-0.13	0.00	0.00	0.00	0.00	0.00	0.00	0.00	0.00	0.00	0.25	0.00	0.00	0.00	0.00	0.00	0.00	1.534180	1.215820	2.877441	-113.190002	-333.619995	-376.950012	3.00	0.00	0.00
2.09	1.00	2.25	0.25	0.00	0.00	0.00	0.25	0.00	0.00	3.00	5.25	3.75	0.00	0.00	0.00	4.00	-10.985840	-1.946777	-2.117188	-28.000000	158.899994	-31.500000	185.00	0.12	-0.13	0.00	0.00	0.00	0.00	0.00	0.00	0.00	0.00	0.00	0.00	0.00	0.00	0.00	0.00	0.00	0.00	1.509277	1.526855	3.029785	-80.639999	-380.589996	-368.269989	0.00	0.00	0.00
2.10	13.25	19.50	1.25	1.50	0.00	0.00	0.25	0.00	0.00	3.25	5.50	3.75	0.00	0.00	0.00	4.00	-2.755371	-1.584473	-2.288574	-202.930008	315.630005	-121.800003	504.00	-0.20	-0.08	0.00	0.00	0.00	0.00	0.00	0.00	0.25	0.00	0.00	0.00	0.00	0.00	0.00	0.00	0.00	0.00	1.187012	1.613770	2.752930	-60.830002	-451.570007	-324.239990	4.00	0.00	0.00
2.11	29.25	32.75	4.00	5.00	0.00	0.00	0.00	0.00	0.00	3.25	5.25	4.00	0.00	0.00	0.00	3.75	0.580078	2.108398	3.799316	-112.910004	434.489990	-62.230000	855.00	-0.28	-0.06	0.00	0.00	0.00	0.00	0.00	0.00	0.00	0.00	0.00	0.00	0.00	0.00	0.00	0.00	0.00	0.00	0.897949	1.802246	2.071289	-87.989998	-501.269989	-252.910004	0.00	0.00	0.00
2.12	31.25	34.50	7.50	8.75	0.25	0.00	0.25	0.00	0.00	3.25	5.50	4.25	0.00	0.00	0.00	4.00	-2.956543	-1.271484	4.766113	-4.760000	507.220001	8.050000	985.00	-0.28	-0.06	0.00	0.00	0.00	0.00	0.00	0.00	0.00	0.00	0.00	0.00	0.00	0.00	0.00	0.00	0.00	0.00	0.673828	2.172852	1.692383	-98.910004	-515.619995	-164.570007	0.00	0.00	0.00
2.13	30.25	31.25	8.75	9.25	0.75	0.00	0.50	0.00	0.00	3.25	5.25	4.00	0.00	0.00	0.00	4.00	-2.588867	0.296387	6.230469	-60.200001	497.209991	-47.320000	969.00	-0.27	-0.05	0.00	0.00	0.00	0.00	0.00	0.00	0.00	0.00	0.00	0.00	0.00	0.00	0.00	0.00	0.00	0.00	0.478027	2.333984	1.481445	-35.700001	-512.470032	-68.669998	0.00	0.00	0.00
2.14	27.75	27.75	9.75	9.50	1.50	0.25	0.50	0.00	0.00	3.25	5.25	3.75	0.00	0.00	0.00	4.00	-1.148438	0.644043	4.148926	-85.610001	306.880005	-59.360001	933.00	-0.26	-0.05	0.00	0.00	0.00	0.00	0.00	0.00	0.00	0.00	0.00	0.00	0.00	0.00	0.00	0.00	0.00	0.00	0.215820	1.892090	1.479492	68.320000	-507.709991	16.030001	0.00	0.00	0.00
2.15	25.75	26.00	10.25	9.75	2.00	0.75	0.75	0.25	0.00	3.00	5.50	4.00	0.00	0.00	0.00	4.25	-0.381836	0.212402	0.837402	-51.660000	162.330002	-30.100000	927.00	-0.25	-0.05	0.00	0.00	0.00	0.00	0.00	0.00	0.00	0.00	0.00	0.00	0.00	0.00	0.00	0.00	0.00	0.00	-0.056641	1.227539	1.525391	139.789993	-502.250000	75.180000	0.00	0.00	0.00
2.16	24.25	24.75	11.00	11.00	2.50	1.25	0.75	0.75	0.00	3.25	5.50	4.00	0.25	0.00	0.00	4.00	-0.640137	0.135254	1.910156	-12.320000	78.889999	-6.790000	944.00	-0.24	-0.06	0.00	0.00	0.00	0.00	0.00	0.00	0.00	0.00	0.00	0.00	0.00	0.00	0.00	0.00	0.00	0.00	-0.301270	0.742676	1.604004	153.580002	-496.230011	104.440002	0.00	0.00	0.00
2.17	22.50	25.00	11.25	11.75	2.75	2.00	0.75	0.50	0.00	3.25	5.50	4.00	0.25	0.25	0.00	4.00	-0.266602	0.223145	0.876465	-21.280001	17.080000	-4.970000	948.00	-0.24	-0.06	0.00	0.00	0.00	0.00	0.00	0.00	0.00	0.00	0.00	0.00	0.00	0.00	0.00	0.00	0.00	0.00	-0.403809	0.503906	1.692871	147.770004	-492.660004	103.529999	0.00	0.00	0.00
2.18	22.00	24.50	11.25	12.25	3.00	2.50	1.00	0.75	0.00	3.25	5.75	4.00	0.50	0.25	0.00	4.00	-0.281250	0.254883	1.095703	-30.309999	17.500000	-3.080000	964.00	-0.23	-0.07	0.00	0.00	0.00	0.00	0.00	0.00	0.00	0.00	0.00	0.00	0.00	0.00	0.00	0.00	0.00	0.00	-0.463867	0.371582	1.838867	170.169998	-491.190002	79.029999	0.00	0.00	0.00
2.19	21.25	24.25	11.00	12.25	3.00	3.00	1.00	0.75	0.00	3.50	5.75	4.00	0.50	0.25	0.00	4.00	-0.313965	0.098633	1.133301	-13.930000	18.270000	-0.770000	960.00	-0.23	-0.07	0.00	0.00	0.00	0.00	0.00	0.00	0.00	0.00	0.00	0.00	0.00	0.00	0.00	0.00	0.00	0.00	-0.982910	-0.201660	2.925293	294.279999	-496.510010	-4.340000	0.00	0.00	0.00
2.20	19.50	23.25	10.00	11.75	2.50	2.50	0.75	0.75	0.00	3.50	5.75	3.75	0.25	0.25	0.00	4.00	-0.241699	0.111328	1.036133	5.530000	18.059999	-0.350000	896.00	-0.23	-0.07	0.00	0.00	0.00	0.00	0.00	0.00	0.00	0.00	0.00	0.00	0.00	0.00	0.00	0.00	0.00	0.00	-1.394043	-0.337891	3.393555	314.510010	-510.369995	-30.240000	0.00	0.00	0.00
2.21	18.00	22.25	9.25	10.75	2.00	2.25	0.75	0.75	0.00	3.50	5.50	4.00	0.25	0.25	0.00	4.00	-0.298828	0.140137	0.995605	14.280000	20.230000	-0.280000	844.00	-0.22	-0.07	0.00	0.00	0.00	0.00	0.00	0.00	0.00	0.00	0.00	0.00	0.00	0.00	0.00	0.00	0.00	0.00	-1.777832	-0.225098	3.478027	302.399994	-522.900024	-25.549999	0.00	0.00	0.00
2.22	15.75	20.75	8.25	9.50	1.50	2.00	0.75	0.75	0.00	3.50	5.50	4.00	0.25	0.00	0.00	4.00	-0.254883	0.086914	0.985352	14.980000	24.639999	0.070000	772.00	-0.21	-0.08	0.00	0.00	0.00	0.00	0.00	0.00	0.00	0.00	0.00	0.00	0.00	0.00	0.00	0.00	0.00	0.00	-2.269531	-0.070312	3.445312	288.540009	-525.280029	6.160000	0.00	0.00	0.00
2.23	12.50	17.75	7.25	8.25	1.00	1.25	0.75	0.50	0.00	3.50	5.50	3.75	0.50	0.00	0.00	4.00	-0.211426	0.075195	1.005859	17.780001	23.660000	-3.080000	668.00	-0.20	-0.08	0.00	0.00	0.00	0.00	0.00	0.00	0.00	0.00	0.00	0.00	0.00	0.00	0.00	0.00	0.00	0.00	-2.951660	0.164062	3.517090	286.510010	-516.390015	62.930000	0.00	0.00	0.00
2.24	10.25	15.25	5.75	7.25	0.75	0.75	0.75	0.25	0.00	3.50	5.50	4.00	0.25	0.25	0.00	3.75	-0.157227	0.119141	0.773926	17.570000	15.120000	-6.020000	583.00	-0.18	-0.08	0.00	0.00	0.00	0.00	0.00	0.00	0.00	0.00	0.00	0.00	0.00	0.00	0.00	0.00	0.00	0.00	-3.729492	0.133789	3.562500	290.640015	-501.059998	142.940002	0.00	0.00	0.00
2.25	7.50	11.25	4.75	6.00	0.50	0.50	0.75	0.25	0.00	3.75	5.75	4.00	0.25	0.00	0.00	4.00	-0.043945	0.248047	0.580078	3.430000	22.400000	-7.770000	492.00	-0.14	-0.09	0.00	0.00	0.00	0.00	0.00	0.00	0.00	0.00	0.00	0.00	0.00	0.00	0.00	0.00	0.00	0.00	-4.707031	-0.039551	3.545898	290.149994	-481.529999	221.970001	0.00	0.00	0.00
2.26	5.50	8.00	3.25	4.50	0.50	0.25	0.75	0.25	0.00	3.50	5.75	3.75	0.50	0.00	0.00	3.75	-0.029785	0.349121	0.669922	-23.590000	45.920002	-7.070000	401.00	-0.10	-0.09	0.00	0.00	0.00	0.00	0.00	0.00	0.00	0.00	0.00	0.00	0.00	0.00	0.00	0.00	0.00	0.00	-6.106934	-0.076660	3.578125	290.360016	-452.269989	286.510010	0.00	0.00	0.00
2.27	3.50	6.00	2.25	3.00	0.50	0.25	0.75	0.25	0.00	3.75	6.00	3.75	0.25	0.25	0.00	4.00	-0.155273	0.013184	1.157715	-39.619999	40.459999	-5.390000	340.00	-0.04	-0.10	0.00	0.00	0.00	0.00	0.00	0.00	0.00	0.00	0.00	0.00	0.00	0.00	0.00	0.00	0.00	0.00	-7.786621	-0.277832	2.990723	295.190002	-411.320007	346.570007	0.00	0.00	0.00
2.28	2.25	3.50	1.50	1.75	0.25	0.25	0.50	0.50	0.00	4.25	6.25	4.25	0.75	0.00	0.00	3.75	-0.208984	0.044434	1.000977	-37.240002	28.070000	-9.030000	294.00	0.03	-0.12	0.00	0.00	0.00	0.00	0.00	0.00	0.00	0.00	0.00	0.00	0.00	0.00	0.00	0.00	0.00	0.00	-8.889648	-0.899902	0.846191	284.549988	-337.610016	398.230011	0.00	0.00	0.00
2.29	1.25	2.25	1.00	1.25	0.50	0.25	0.75	0.50	0.00	4.50	6.25	4.25	1.00	0.25	0.00	4.00	-0.210938	0.165527	0.919434	-35.209999	23.520000	-10.570000	276.00	0.09	-0.12	0.00	0.00	0.00	0.00	0.00	0.00	0.00	0.00	0.00	0.00	0.00	0.00	0.00	0.00	0.00	0.00	-8.851562	-1.592285	-0.785156	251.649994	-203.490005	418.320007	0.00	0.00	0.00
2.30	0.25	1.00	0.50	0.50	0.25	0.00	0.75	0.75	0.00	4.75	6.50	4.75	1.00	0.25	0.00	4.00	-0.231445	0.111328	0.963379	-35.560001	20.160000	-9.100000	249.00	0.16	-0.13	0.00	0.00	0.00	0.00	0.00	0.00	0.00	0.00	0.00	0.00	0.00	0.00	0.00	0.00	0.00	0.00	-8.503418	-1.897461	-0.863281	181.930008	-48.720001	377.089996	0.00	0.00	0.00
2.31	0.00	0.50	0.50	1.25	0.00	0.00	0.75	1.00	0.00	4.75	7.00	5.50	1.75	0.75	0.00	4.25	-0.234863	0.099609	0.953613	-26.460001	13.720000	-7.210000	276.00	0.17	-0.15	0.00	0.00	0.00	0.00	0.00	0.00	0.00	0.00	0.00	0.00	0.00	0.00	0.00	0.00	0.00	0.00	-7.899414	-1.569336	-0.285156	101.639999	56.980000	280.000000	0.00	0.00	0.00
2.32	0.00	0.50	0.00	0.50	0.25	0.00	0.75	1.00	0.25	5.50	7.50	6.00	2.75	1.25	0.00	4.50	-0.212891	0.081543	0.949707	-17.850000	10.150000	-4.480000	301.00	0.20	-0.15	0.00	0.00	0.00	0.00	0.00	0.00	0.00	0.00	0.00	0.00	0.00	0.00	0.00	0.00	0.00	0.00	-7.292480	-1.145020	0.475098	81.410004	99.050003	169.960007	0.00	0.00	0.00
2.33	0.00	0.00	0.00	0.00	0.00	0.25	0.75	1.50	0.00	5.75	7.75	7.00	3.75	1.75	0.25	4.75	-0.242676	0.107910	0.915039	-8.540000	11.200000	-4.550000	328.00	0.21	-0.17	0.00	0.00	0.00	0.00	0.00	0.00	0.00	0.00	0.00	0.00	0.00	0.00	0.00	0.00	0.00	0.00	-6.349121	-1.435059	0.520020	98.629997	116.620003	81.900002	0.00	0.00	0.00
2.34	0.00	0.00	0.00	0.00	0.50	0.00	0.75	1.75	1.25	6.75	8.50	7.75	5.50	2.75	0.25	5.00	-0.212402	0.161133	0.849121	-1.400000	11.200000	-6.650000	402.00	0.22	-0.15	2.50	4.50	0.25	1.25	0.00	0.00	0.00	0.00	0.00	0.00	0.00	0.00	0.00	0.00	0.00	0.00	-6.411621	-4.125000	-2.664062	-33.180000	113.260002	37.240002	84.00	-0.39	-0.08
2.35	0.00	0.00	0.00	0.00	0.25	0.25	0.75	2.50	0.75	7.25	9.50	8.75	6.50	4.25	0.50	5.50	-0.219727	0.145020	0.926758	2.450000	7.770000	-10.640000	460.00	0.22	-0.16	13.25	15.25	1.75	4.25	0.00	0.00	0.00	0.00	0.00	0.00	0.00	0.00	0.00	0.00	0.00	0.00	-1.545410	-3.061523	-2.646973	-252.770004	250.389999	-52.290001	344.00	-0.39	-0.05
2.36	0.00	0.00	0.00	0.00	0.25	0.50	0.75	4.25	1.50	7.75	10.75	9.75	7.50	5.50	0.75	5.50	-0.334473	0.133789	0.939941	5.600000	4.830000	-14.000000	550.00	0.21	-0.16	22.75	20.25	4.25	6.50	0.00	0.00	0.00	0.00	0.00	0.00	0.00	0.00	0.00	0.00	0.00	0.00	-1.128906	0.503906	3.231445	-238.279999	394.309998	-71.470001	541.00	-0.38	-0.03
2.37	0.00	0.00	0.00	0.00	0.25	0.25	0.75	5.25	2.00	8.50	12.00	10.75	8.25	7.75	1.25	6.00	-0.235840	0.093750	0.995605	4.830000	12.600000	-6.930000	634.00	0.21	-0.15	25.25	20.25	7.50	8.75	0.00	0.00	0.00	0.00	0.00	0.00	0.00	0.00	0.00	0.00	0.00	0.00	-2.273926	0.047363	5.070312	-115.430000	479.920013	-26.040001	627.00	-0.37	-0.03
2.38	0.00	0.00	0.00	0.00	0.25	0.25	0.75	5.75	3.00	9.25	13.50	12.25	9.25	9.50	1.50	6.50	-0.226074	0.158203	0.992676	10.570000	26.809999	-8.820000	723.00	0.22	-0.14	24.00	19.00	8.50	10.00	0.25	0.00	0.00	0.00	0.00	0.00	0.00	0.00	0.00	0.00	0.00	0.00	-1.859863	-0.656250	4.224121	-84.489998	450.799988	-21.559999	631.00	-0.36	-0.03
2.39	0.00	0.00	0.00	0.00	0.25	0.25	0.75	5.75	4.25	10.25	14.75	13.50	9.75	11.75	2.00	7.00	-0.243164	0.151367	1.091309	20.719999	49.560001	-15.750000	807.00	0.22	-0.13	21.75	17.25	9.25	10.25	0.50	0.25	0.25	0.00	0.00	0.00	0.00	0.00	0.00	0.00	0.00	0.00	-0.684082	0.174316	2.558594	19.530001	249.690002	-56.349998	612.00	-0.36	-0.03
2.40	0.00	0.00	0.00	0.00	0.00	0.25	0.50	5.50	5.25	11.25	16.00	14.50	10.50	14.00	2.75	7.75	-0.300781	0.125977	1.128906	36.330002	90.790001	-19.670000	882.00	0.23	-0.12	19.50	16.50	9.75	11.25	0.75	0.25	0.25	0.00	0.00	0.00	0.00	0.00	0.00	0.50	0.00	0.00	-0.683105	0.712891	1.950684	45.639999	156.940002	-45.360001	605.00	-0.34	-0.03
2.41	0.00	0.00	0.00	0.00	0.00	0.00	0.50	5.25	5.50	11.50	17.00	15.25	11.25	16.25	3.50	8.25	-0.308105	0.139160	1.194336	70.139999	144.619995	-20.790001	936.00	0.24	-0.12	18.00	16.50	9.75	11.50	1.25	1.50	0.50	0.50	0.00	0.00	0.00	0.00	0.00	1.00	0.00	0.25	-0.469727	0.771973	0.936035	-4.270000	69.300003	-14.700000	628.00	-0.32	-0.04
2.42	0.00	0.00	0.00	0.00	0.00	0.00	0.25	4.25	6.50	11.50	17.25	15.75	10.75	18.25	4.25	9.00	-0.323242	0.147949	1.299316	73.150002	205.729996	-19.530001	963.00	0.25	-0.10	17.25	16.00	9.75	12.00	1.00	2.00	0.50	0.25	0.00	0.00	0.00	0.00	0.50	1.00	0.00	0.00	-0.262695	0.246582	1.039551	-20.230000	21.350000	4.480000	623.00	-0.32	-0.05
2.43	0.00	0.00	0.00	0.00	0.00	0.00	0.00	4.00	6.25	11.75	17.50	15.75	10.25	19.50	5.50	9.50	-0.389160	0.221191	1.353516	81.550003	278.390015	-23.799999	979.00	0.26	-0.10	16.50	16.25	9.75	11.75	1.25	3.00	0.50	0.75	0.00	0.00	0.00	0.00	0.25	0.75	0.00	0.00	-0.211426	0.102051	1.230957	-19.460001	7.350000	3.220000	632.00	-0.32	-0.06
2.44	0.00	0.00	0.00	0.00	0.00	0.00	0.00	2.00	6.00	11.25	17.00	15.50	9.00	20.50	5.75	10.00	-0.414551	0.150879	1.684570	81.199997	355.040009	-27.299999	935.00	0.27	-0.08	15.75	16.00	9.50	12.00	1.25	2.75	0.50	0.75	0.00	0.00	0.00	0.00	0.75	0.75	0.00	0.00	-0.261719	0.229492	1.200684	-1.540000	-6.300000	0.910000	623.00	-0.31	-0.06
2.45	0.00	0.00	0.00	0.00	0.00	0.00	0.00	1.50	5.50	11.25	16.50	15.00	8.50	21.25	6.50	10.50	-0.617188	0.058105	1.995117	85.959999	430.920013	-22.680000	923.00	0.27	-0.08	15.25	15.75	9.00	11.50	0.75	2.50	0.50	0.75	0.00	0.00	0.00	0.00	0.50	0.75	0.00	0.00	-0.158691	0.297852	0.930664	4.200000	-5.040000	2.520000	595.00	-0.32	-0.06
2.46	0.00	0.00	0.00	0.00	0.00	0.00	0.00	0.75	4.50	10.75	15.75	14.50	7.25	21.25	6.50	10.75	-0.496094	0.225586	1.828613	101.220001	515.059998	-19.460001	871.00	0.28	-0.08	14.25	15.00	8.75	11.25	0.75	1.50	0.50	0.50	0.25	0.00	0.00	0.00	0.25	0.25	0.00	0.00	-0.084473	0.204590	0.919434	-3.570000	4.130000	2.450000	554.00	-0.32	-0.06
2.47	0.00	0.00	0.00	0.00	0.00	0.00	0.00	0.50	2.25	10.25	14.75	13.25	6.00	20.00	6.50	10.75	-0.656250	0.496582	1.998047	107.099998	604.799988	-30.660000	787.00	0.29	-0.08	12.25	13.25	7.75	9.75	0.50	1.50	0.50	0.25	0.00	0.00	0.00	0.00	0.25	0.50	0.00	0.00	-0.112305	0.187012	0.919922	-9.310000	8.540000	0.070000	482.00	-0.32	-0.06
2.48	0.00	0.00	0.00	0.00	0.00	0.00	0.00	0.25	0.25	9.00	13.00	11.50	5.00	17.50	6.25	10.00	-1.047852	0.498535	2.930664	130.410004	691.320007	-44.939999	671.00	0.29	-0.09	10.50	11.75	7.00	9.00	0.50	1.00	0.50	0.25	0.00	0.00	0.00	0.00	0.00	0.50	0.00	0.00	-0.126465	0.227539	0.903809	-13.720000	12.740000	-0.210000	426.00	-0.32	-0.05
2.49	0.00	0.00	0.00	0.00	0.00	0.00	0.00	0.00	0.00	7.50	10.25	9.25	3.50	13.75	5.00	8.25	-2.389160	1.018555	4.403809	162.610001	762.789978	-43.119999	528.00	0.29	-0.09	8.50	9.75	5.50	8.25	0.25	1.00	0.50	0.00	0.00	0.00	0.00	0.00	0.00	0.00	0.00	0.00	-0.101562	0.199219	0.851074	-21.000000	19.389999	0.630000	351.00	-0.33	-0.06
2.50	0.00	0.00	0.00	0.00	0.00	0.00	0.00	0.00	0.00	5.75	8.00	7.50	1.75	9.25	3.50	6.25	-2.764648	0.790527	6.534668	230.790009	806.820007	-26.250000	388.00	0.29	-0.09	6.75	8.25	4.50	7.25	0.50	0.50	0.50	0.50	0.00	0.00	0.00	0.00	0.00	0.25	0.00	0.00	-0.084961	0.135254	0.945801	-22.750000	21.770000	2.660000	304.00	-0.32	-0.07
2.51	0.00	0.00	0.00	0.00	0.00	0.00	0.00	0.00	0.00	5.50	7.50	6.00	0.75	5.25	1.50	4.50	-2.661621	0.790527	6.938477	218.960007	816.130005	-27.440001	291.00	0.27	-0.10	5.25	6.50	3.00	6.00	0.25	0.75	0.50	0.50	0.00	0.00	0.00	0.25	0.25	0.25	0.00	0.00	-0.069336	0.095215	0.960938	-17.850000	19.180000	3.920000	246.00	-0.30	-0.08
2.52	0.00	0.00	0.00	0.00	0.00	0.00	0.00	0.00	0.00	5.00	6.50	5.25	0.50	1.75	0.25	4.25	-1.016602	1.498047	8.084961	218.820007	776.369995	-30.240000	221.00	0.25	-0.13	3.75	5.25	2.50	5.50	0.25	0.50	0.50	0.75	0.25	0.00	0.00	0.00	0.50	0.50	0.00	0.00	-0.136230	0.131836	0.877441	-11.620000	17.780001	4.900000	214.00	-0.27	-0.09
2.53	0.00	0.00	0.00	0.00	0.00	0.00	0.25	0.00	0.00	4.50	6.25	5.25	0.25	1.25	0.25	4.50	3.014648	0.595215	6.429688	296.100006	658.419983	-69.440002	212.00	0.25	-0.13	2.50	4.25	1.25	4.25	0.25	0.25	0.50	0.75	0.00	0.00	0.00	0.25	0.75	0.00	0.00	0.00	-0.148438	0.136719	1.023438	-8.190000	18.410000	6.510000	159.00	-0.27	-0.13
2.54	0.00	0.00	0.00	0.00	0.00	0.00	0.25	0.00	0.00	4.50	6.25	5.00	0.25	0.75	0.00	4.25	3.354492	3.295410	6.058105	207.619995	468.299988	-148.680008	201.00	0.24	-0.13	1.75	3.00	1.00	4.00	0.25	0.25	0.25	1.25	0.00	0.00	0.25	0.50	1.00	0.00	0.00	0.00	-0.151855	0.197266	0.913574	-2.870000	22.260000	9.940000	146.00	-0.22	-0.17
2.55	0.00	0.00	0.00	0.00	0.00	0.00	0.25	0.00	0.00	4.25	6.00	4.75	0.25	0.50	0.00	4.25	3.133789	0.730957	7.239746	82.669998	59.010002	-114.660004	191.00	0.24	-0.14	1.50	2.00	1.25	1.50	0.25	0.00	0.50	2.00	0.25	0.50	0.50	0.75	2.00	0.25	0.00	0.25	-0.174805	0.222656	0.895508	-13.650000	25.900000	10.570000	148.00	-0.09	-0.16
2.56	0.00	0.00	0.00	0.00	0.00	0.00	0.25	0.00	0.00	4.00	6.00	4.75	0.00	0.25	0.00	4.00	2.580078	-0.745605	3.538086	-4.480000	-116.480003	-154.139999	182.00	0.24	-0.14	1.00	1.50	0.75	2.50	0.50	1.00	0.50	2.50	0.00	0.50	1.00	1.25	2.75	0.00	0.00	0.50	-0.158203	0.183594	0.912109	-33.040001	21.840000	5.040000	177.00	-0.06	-0.22
2.57	0.00	0.00	0.00	0.00	0.00	0.00	0.50	0.00	0.00	4.00	6.00	4.50	0.00	0.00	0.00	4.00	1.968750	0.107910	3.183594	-49.700001	-139.300003	-237.300003	181.00	0.23	-0.13	0.75	1.00	0.75	2.50	0.25	1.25	0.50	3.00	0.25	1.00	1.25	1.75	3.75	0.25	0.00	0.50	-0.155273	0.209961	0.929688	-45.150002	11.830000	-2.730000	205.00	-0.01	-0.23
2.58	0.00	0.00	0.00	0.00	0.00	0.00	0.50	0.00	0.00	4.00	5.75	4.00	0.00	0.25	0.00	4.25	1.982910	0.802734	3.806641	-50.820000	-273.350006	-286.860016	177.00	0.24	-0.12	0.75	1.50	1.00	2.00	0.25	2.00	0.50	3.75	0.25	1.25	2.00	2.25	5.00	0.75	0.00	0.75	-0.156250	0.171875	0.960449	-48.230000	5.250000	-7.490000	259.00	0.01	-0.23
2.59	0.00	0.00	0.00	0.00	0.00	0.00	0.50	0.00	0.00	3.75	5.50	4.25	0.00	0.00	0.00	4.00	1.464355	0.688965	3.179199	-66.639999	-381.149994	-277.410004	171.00	0.23	-0.13	0.25	1.50	0.50	2.25	1.00	1.50	0.50	5.00	0.50	2.00	2.50	3.75	5.50	1.25	0.00	0.75	-0.172852	0.138672	0.937988	-29.260000	-1.190000	-11.970000	313.00	0.05	-0.23
2.60	0.00	0.00	0.00	0.00	0.00	0.00	0.50	0.00	0.00	3.75	5.50	4.00	0.00	0.25	0.00	4.00	1.135742	0.573242	2.420898	-93.449997	-448.769989	-264.110016	170.00	0.24	-0.12	0.50	1.00	0.50	2.25	1.00	2.00	0.75	6.00	0.75	2.25	3.50	4.00	7.00	2.00	0.25	1.50	-0.128906	0.128906	1.015137	-18.900000	4.760000	-11.060000	381.00	0.07	-0.22
2.61	0.00	0.00	0.00	0.00	0.00	0.00	0.50	0.00	0.00	3.50	5.50	3.75	0.00	0.25	0.00	4.00	0.839844	0.669434	2.072754	-100.239998	-478.730011	-245.070007	165.00	0.24	-0.13	0.25	1.00	0.25	3.00	1.25	2.25	0.75	6.50	1.25	2.50	5.50	5.75	8.00	3.25	0.75	1.75	-0.220703	0.142578	1.019531	-10.080000	11.200000	-10.920000	471.00	0.10	-0.21
2.62	0.00	0.00	0.00	0.00	0.00	0.00	0.50	0.00	0.00	3.50	5.50	3.50	0.00	0.25	0.00	4.00	0.604492	0.840820	1.905762	-79.730003	-493.640015	-209.930008	163.00	0.24	-0.12	0.25	0.75	0.25	1.50	1.00	2.00	0.75	7.00	2.25	3.50	8.00	7.75	9.00	4.75	0.75	2.00	-0.120117	0.110840	1.006836	-4.130000	16.240000	-9.730000	548.00	0.14	-0.19
2.63	0.00	0.00	0.00	0.00	0.00	0.00	0.50	0.00	0.00	3.50	5.25	3.50	0.00	0.25	0.00	4.00	0.420410	0.847656	1.718750	-36.189999	-505.610016	-159.669998	160.00	0.24	-0.12	0.25	0.50	0.25	1.50	0.75	1.75	0.75	7.50	3.00	4.75	8.75	8.50	9.75	6.75	1.50	3.00	-0.158691	0.121094	1.055664	1.820000	21.350000	-9.520000	623.00	0.16	-0.17
2.64	0.00	0.00	0.00	0.00	0.00	0.00	0.50	0.00	0.00	3.75	5.25	3.50	0.00	0.25	0.00	4.00	0.178711	0.801758	1.696777	18.270000	-511.630005	-101.849998	163.00	0.24	-0.12	0.00	0.00	0.00	0.25	0.50	0.50	0.75	7.25	3.75	6.50	10.00	9.50	10.25	9.00	2.25	4.50	-0.178223	0.177734	1.145020	10.150000	36.119999	-10.850000	671.00	0.20	-0.15
2.65	0.00	0.00	0.00	0.00	0.00	0.00	0.50	0.00	0.00	3.25	5.25	3.75	0.00	0.00	0.00	3.75	-0.057129	0.664062	1.756836	62.020000	-514.710022	-42.349998	156.00	0.23	-0.13	0.00	0.00	0.00	0.00	0.25	0.25	0.50	6.75	4.50	7.75	11.25	10.50	10.75	11.75	3.25	5.75	-0.087402	0.176758	1.243652	25.340000	68.250000	-16.520000	743.00	0.22	-0.14
2.66	0.00	0.00	0.00	0.00	0.00	0.00	0.50	0.00	0.00	3.25	5.25	3.50	0.00	0.25	0.00	4.00	-0.241699	0.547852	1.836914	84.349998	-515.830017	9.240000	157.00	0.24	-0.13	0.00	0.00	0.00	0.00	0.00	0.00	0.25	6.00	5.25	8.50	12.00	11.00	10.75	15.00	3.75	6.50	-0.225586	0.143066	1.238770	52.150002	138.949997	-21.910000	790.00	0.24	-0.12
2.67	0.00	0.00	0.00	0.00	0.00	0.00	0.50	0.00	0.00	3.50	5.00	3.50	0.00	0.00	0.00	4.00	-0.434570	0.497070	2.054688	96.110001	-513.590027	44.240002	155.00	0.24	-0.13	0.00	0.00	0.00	0.00	0.00	0.00	0.25	4.75	5.25	8.50	12.25	11.25	10.50	18.00	5.25	7.25	-0.317871	0.294434	1.392090	75.599998	212.240005	-29.820000	819.00	0.25	-0.10
2.68	0.00	0.00	0.00	0.00	0.00	0.00	0.50	0.00	0.00	3.25	5.25	3.75	0.00	0.00	0.00	4.00	-0.604492	0.371094	2.416992	115.150002	-515.270020	57.820000	158.00	0.24	-0.13	0.00	0.00	0.00	0.00	0.00	0.00	0.00	3.00	5.00	8.25	12.25	11.00	9.75	20.50	6.25	8.00	-0.285156	0.241699	1.470215	70.559998	291.269989	-40.110001	810.00	0.27	-0.09
2.69	0.00	0.00	0.00	0.00	0.00	0.00	0.50	0.00	0.00	3.25	5.25	3.50	0.00	0.00	0.00	4.00	-0.818359	0.343262	2.831543	145.880005	-525.280029	49.840000	155.00	0.24	-0.13	0.00	0.00	0.00	0.00	0.00	0.00	0.00	1.75	5.00	8.00	12.00	10.75	9.00	22.00	6.50	8.50	-0.384766	0.226074	1.779297	47.599998	374.850006	-44.730000	794.00	0.28	-0.07
2.70	0.00	0.00	0.00	0.00	0.00	0.00	0.50	0.00	0.00	3.50	5.25	3.50	0.00	0.00	0.00	4.00	-1.343750	0.465820	3.252930	181.229996	-541.380005	35.279999	158.00	0.24	-0.13	0.00	0.00	0.00	0.00	0.00	0.00	0.00	1.00	4.00	7.75	11.50	10.50	8.00	23.00	7.00	8.75	-0.462402	0.444336	2.302734	68.529999	456.190002	-50.259998	766.00	0.29	-0.07
2.71	0.00	0.00	0.00	0.00	0.00	0.00	0.50	0.00	0.00	3.25	5.25	3.25	0.00	0.00	0.00	4.25	-2.070801	0.493164	3.423340	221.410004	-560.280029	27.440001	154.00	0.24	-0.13	0.00	0.00	0.00	0.00	0.00	0.00	0.00	0.50	2.75	6.75	10.50	9.75	7.50	22.75	7.00	9.00	-0.413574	0.514648	2.165527	95.059998	537.880005	-67.129997	708.00	0.30	-0.07
2.72	0.00	0.00	0.00	0.00	0.00	0.00	0.50	0.00	0.00	3.25	5.25	3.50	0.00	0.00	0.00	4.00	-2.723145	0.555176	3.277832	254.589996	-567.979980	38.570000	155.00	0.24	-0.13	0.00	0.00	0.00	0.00	0.00	0.00	0.00	0.25	1.75	5.75	9.50	8.75	6.50	20.75	6.75	8.25	-0.532227	0.601074	2.299316	96.250000	630.630005	-90.790001	627.00	0.30	-0.07
2.73	0.00	0.00	0.00	0.00	0.00	0.00	0.50	0.00	0.00	3.25	5.25	3.50	0.00	0.00	0.00	4.00	-3.314941	0.567383	3.040527	260.890015	-554.539978	76.370003	155.00	0.24	-0.13	0.00	0.00	0.00	0.00	0.00	0.00	0.00	0.00	0.50	4.00	8.00	7.75	5.25	17.50	5.75	7.00	-1.020508	1.063477	2.913086	83.930000	722.190002	-114.309998	507.00	0.31	-0.08
2.74	0.00	0.00	0.00	0.00	0.00	0.00	0.50	0.00	0.00	3.50	5.50	4.00	0.00	0.00	0.00	4.00	-3.805664	0.564453	2.789062	233.800003	-525.700012	139.860001	166.00	0.24	-0.13	0.00	0.00	0.00	0.00	0.00	0.00	0.00	0.00	0.25	2.00	4.75	5.25	4.00	13.25	4.00	5.00	-1.820801	1.208496	5.398438	137.479996	804.159973	-123.970001	346.00	0.31	-0.08
2.75	0.00	0.00	0.00	0.00	0.00	0.00	0.50	0.00	0.00	3.50	5.50	3.50	0.00	0.00	0.00	3.75	-4.468750	0.495605	2.810059	210.419998	-483.910004	210.070007	159.00	0.24	-0.12	0.00	0.00	0.00	0.00	0.00	0.00	0.00	0.00	0.00	1.00	2.25	3.00	2.00	8.50	2.25	2.50	-1.710938	1.709961	7.337891	180.110001	802.619995	-143.990005	193.00	0.32	-0.07
2.76	0.00	0.00	0.00	0.00	0.00	0.00	0.50	0.00	0.00	3.50	5.25	3.50	0.00	0.00	0.00	4.00	-5.265625	0.302734	2.873047	220.220001	-434.910004	265.230011	158.00	0.24	-0.13	0.00	0.00	0.00	0.00	0.00	0.00	0.00	0.00	0.25	0.75	1.50	2.25	1.50	3.00	0.50	0.00	-1.710938	1.709961	7.337891	180.110001	802.619995	-143.990005	94.00	0.28	-0.10
2.77	0.00	0.00	0.00	0.00	0.00	0.00	0.25	0.00	0.00	3.50	5.50	3.50	0.00	0.00	0.00	4.00	-6.443359	-0.004883	2.864746	245.630005	-384.160004	295.119995	157.00	0.24	-0.14	0.00	0.00	0.00	0.00	0.00	0.00	0.00	0.00	0.00	0.00	0.50	1.00	0.75	0.50	0.00	0.00	-0.210449	1.914062	7.753906	219.869995	743.330017	-173.110001	27.00	0.00	0.00
2.78	0.00	0.00	0.00	0.00	0.00	0.00	0.25	0.00	0.00	3.75	5.75	3.50	0.00	0.00	0.00	3.75	-7.666016	-0.515137	2.080566	232.399994	-333.829987	303.869995	160.00	0.24	-0.13	0.00	0.00	0.00	0.00	0.00	0.00	0.00	0.00	0.00	0.25	0.25	0.75	0.00	0.00	0.00	0.00	4.635742	0.575195	5.681152	288.750000	612.220032	-218.330002	13.00	0.00	0.00
2.79	0.00	0.00	0.00	0.00	0.00	0.00	0.50	0.00	0.00	3.50	5.50	3.75	0.00	0.00	0.00	4.00	-8.684082	-1.298340	-1.063477	93.519997	-176.680008	253.680008	163.00	0.24	-0.13	0.00	0.00	0.00	0.00	0.00	0.00	0.00	0.00	0.00	0.00	0.25	0.50	0.25	0.00	0.00	0.00	2.901855	1.303711	7.116699	85.750000	-39.200001	-243.600006	10.00	0.00	0.00
2.80	0.00	0.00	0.00	0.00	0.00	0.00	0.25	0.00	0.00	3.75	5.50	3.50	0.00	0.00	0.00	4.00	-8.431152	-1.302246	-1.425293	29.190001	-53.900002	188.509995	159.00	0.24	-0.13	0.00	0.00	0.00	0.00	0.00	0.00	0.00	0.00	0.00	0.00	0.50	0.50	0.25	0.00	0.00	0.00	2.820312	0.004395	3.712402	-11.760000	-249.830002	-240.940002	13.00	0.00	0.00
2.81	0.00	0.00	0.00	0.00	0.00	0.00	0.25	0.00	0.00	3.75	5.50	3.75	0.00	0.00	0.00	4.00	-8.020508	-0.662598	-1.092773	-29.330000	50.259998	111.720001	162.00	0.24	-0.13	0.00	0.00	0.00	0.00	0.00	0.00	0.00	0.00	0.00	0.00	0.25	0.00	0.00	0.00	0.00	0.00	2.044922	0.364258	2.465820	-98.279999	-290.920013	-308.140015	3.00	0.00	0.00
2.82	0.00	0.00	0.00	0.00	0.00	0.00	0.50	0.00	0.00	3.25	5.50	3.75	0.00	0.00	0.00	4.00	-7.425293	-0.046387	-0.716797	-33.320000	120.330002	41.090000	160.00	0.24	-0.13	0.00	0.00	0.00	0.00	0.00	0.25	0.00	0.00	0.00	0.00	0.25	0.00	0.00	0.00	0.00	0.00	1.667969	1.115723	2.725098	-141.610001	-294.070007	-351.190002	5.00	0.00	0.00
2.83	0.00	0.00	0.00	0.00	0.00	0.00	0.25	0.00	0.00	3.50	5.50	3.75	0.00	0.00	0.00	3.75	-7.077637	2.363770	-0.091309	12.880000	170.449997	-19.530001	158.00	0.24	-0.14	0.00	0.00	0.00	0.00	0.00	0.00	0.00	0.00	0.00	0.00	0.00	0.00	0.00	0.00	0.00	0.00	1.668457	1.503906	2.948242	-144.830002	-337.329987	-352.519989	0.00	0.00	0.00
2.84	3.00	5.25	0.50	0.00	0.00	0.00	0.25	0.00	0.00	3.25	5.50	3.75	0.00	0.00	0.00	4.00	3.017578	-0.417480	-3.790527	-10.360000	340.760010	4.200000	242.00	0.01	-0.11	0.00	0.00	0.00	0.00	0.00	0.00	0.25	0.00	0.00	0.00	0.00	0.00	0.00	0.00	0.00	0.00	1.308105	1.791992	2.636230	-161.070007	-403.690002	-310.519989	4.00	0.00	0.00
2.85	20.25	26.00	1.50	1.00	0.00	0.00	0.00	0.00	0.00	3.25	5.50	4.00	0.00	0.00	0.00	3.75	-0.759277	0.001953	2.175781	-37.310001	441.980011	21.000000	631.00	-0.25	-0.07	0.00	0.00	0.00	0.00	0.00	0.00	0.00	0.00	0.00	0.00	0.00	0.00	0.00	0.00	0.00	0.00	1.082031	2.037598	1.974609	-181.300003	-447.649994	-241.220001	0.00	0.00	0.00
2.86	30.25	36.50	3.50	5.75	0.00	0.00	0.00	0.00	0.00	3.50	5.75	4.00	0.00	0.00	0.00	4.00	-2.514648	-0.845703	3.674805	30.100000	591.710022	-5.180000	912.00	-0.28	-0.06	0.00	0.00	0.00	0.00	0.00	0.00	0.25	0.00	0.00	0.00	0.00	0.00	0.00	0.00	0.00	0.00	0.930176	2.375000	1.434082	-144.619995	-456.330017	-156.800003	4.00	0.00	0.00
2.87	29.75	36.25	7.25	10.25	0.25	0.50	0.25	0.00	0.00	3.50	5.75	4.25	0.00	0.00	0.00	4.00	-3.107910	0.253418	5.073730	28.210001	645.609985	-51.660000	1010.00	-0.28	-0.06	0.00	0.00	0.00	0.00	0.00	0.00	0.25	0.00	0.00	0.00	0.00	0.00	0.00	0.00	0.00	0.00	0.737793	2.314941	1.372559	-33.880001	-449.890015	-63.910000	4.00	0.00	0.00
2.88	26.75	32.50	9.25	13.50	1.25	2.50	0.50	0.50	0.00	3.25	5.75	4.50	0.00	0.00	0.00	4.00	-2.229004	0.833984	6.352051	-16.940001	565.739990	-83.019997	1047.00	-0.26	-0.07	0.00	0.00	0.00	0.00	0.00	0.00	0.00	0.00	0.00	0.00	0.00	0.00	0.00	0.00	0.00	0.00	0.504395	1.672363	1.597168	89.180000	-448.489990	21.910000	0.00	0.00	0.00
2.89	22.25	28.25	9.75	14.50	1.75	3.75	0.75	1.00	0.00	3.50	6.00	4.75	0.50	0.00	0.00	4.00	-1.493652	0.162598	3.151367	-111.370003	301.279999	-36.330002	1020.00	-0.24	-0.08	0.00	0.00	0.00	0.00	0.00	0.00	0.25	0.00	0.00	0.00	0.00	0.00	0.00	0.00	0.00	0.00	0.193359	0.926270	1.897949	144.550003	-456.190002	85.190002	4.00	0.00	0.00
2.90	19.25	26.25	9.50	14.25	1.75	4.75	0.75	1.50	0.00	3.75	6.25	4.50	0.75	0.00	0.00	4.00	-0.799805	0.004883	1.639648	-113.400002	115.639999	-6.300000	989.00	-0.22	-0.09	0.00	0.00	0.00	0.00	0.00	0.00	0.00	0.00	0.00	0.00	0.00	0.00	0.00	0.00	0.00	0.00	-0.108887	0.465332	2.024414	128.029999	-469.000000	114.449997	0.00	0.00	0.00
2.91	16.50	24.50	8.75	14.50	1.75	5.00	0.75	1.75	0.00	3.50	6.25	4.75	1.25	0.00	0.00	4.00	-0.263184	0.004395	1.134766	-43.119999	39.689999	0.840000	949.00	-0.21	-0.10	0.00	0.00	0.00	0.00	0.00	0.00	0.00	0.00	0.00	0.00	0.00	0.00	0.00	0.00	0.00	0.00	-0.268555	0.333496	2.040527	103.739998	-481.600006	108.290001	0.00	0.00	0.00
2.92	14.75	24.00	8.50	14.00	1.50	6.00	0.75	2.25	0.00	3.75	6.00	4.50	1.50	0.00	0.00	4.00	-0.223145	0.346680	0.838379	-14.490000	17.080000	-0.280000	934.00	-0.20	-0.11	0.00	0.00	0.00	0.00	0.00	0.00	0.25	0.00	0.00	0.00	0.00	0.00	0.00	0.00	0.00	0.00	-0.420898	0.285645	2.147949	124.459999	-491.750000	76.860001	4.00	0.00	0.00
2.93	14.25	23.25	8.25	13.50	1.50	6.00	0.75	2.50	0.00	3.75	6.25	4.75	1.50	0.00	0.00	4.00	-0.244141	0.280762	0.971680	-22.960001	20.020000	-0.910000	922.00	-0.20	-0.12	0.00	0.00	0.00	0.00	0.00	0.00	0.00	0.00	0.00	0.00	0.00	0.00	0.00	0.00	0.00	0.00	-0.637207	0.003418	2.291016	183.539993	-501.059998	28.210001	0.00	0.00	0.00
2.94	13.75	21.75	8.25	13.00	1.50	6.00	0.75	2.50	0.00	3.75	6.00	4.50	1.25	0.00	0.00	4.00	-0.259766	0.078125	1.093750	-14.630000	15.190001	-6.580000	890.00	-0.20	-0.11	0.00	0.00	0.00	0.00	0.00	0.00	0.00	0.00	0.00	0.00	0.00	0.00	0.00	0.00	0.00	0.00	-1.017578	-0.192871	2.686035	245.839996	-508.549988	-28.210001	0.00	0.00	0.00
2.95	12.25	20.00	7.50	11.25	1.25	5.50	0.75	2.00	0.00	3.75	5.75	4.50	1.25	0.25	0.00	4.50	-0.219727	0.200684	0.956543	1.400000	12.390000	-7.770000	818.00	-0.19	-0.11	0.00	0.00	0.00	0.00	0.00	0.00	0.25	0.00	0.00	0.00	0.00	0.00	0.00	0.00	0.00	0.00	-1.445312	-0.209961	2.929688	280.980011	-514.500000	-64.400002	4.00	0.00	0.00
2.96	10.25	18.00	6.75	9.75	1.00	5.00	0.75	1.75	0.00	3.75	5.75	4.50	1.00	0.00	0.00	4.25	-0.208008	0.208008	0.932129	1.400000	18.549999	-4.970000	736.00	-0.18	-0.12	0.00	0.00	0.00	0.00	0.00	0.00	0.00	0.00	0.00	0.00	0.00	0.00	0.00	0.00	0.00	0.00	-1.779785	-0.141113	2.989258	288.679993	-513.239990	-65.099998	0.00	0.00	0.00
2.97	8.75	15.25	6.50	8.75	0.50	4.50	0.75	1.50	0.00	3.75	6.00	4.25	1.00	0.00	0.00	4.00	-0.253418	0.171875	0.955078	-2.940000	22.330000	-4.480000	665.00	-0.16	-0.12	0.00	0.00	0.00	0.00	0.00	0.00	0.25	0.00	0.00	0.00	0.00	0.00	0.00	0.00	0.00	0.00	-2.160156	0.019531	3.068848	279.089996	-501.899994	-33.389999	4.00	0.00	0.00
2.98	7.25	12.75	5.25	7.50	0.75	3.00	0.75	1.00	0.00	3.50	5.75	4.25	0.75	0.00	0.00	4.25	-0.226074	0.178223	0.926270	-5.670000	24.850000	-4.340000	572.00	-0.14	-0.11	0.00	0.00	0.00	0.00	0.00	0.00	0.00	0.00	0.00	0.00	0.00	0.00	0.00	0.00	0.00	0.00	-2.754395	0.304199	3.176758	267.470001	-487.830017	28.700001	0.00	0.00	0.00
2.99	6.00	9.25	4.00	6.25	0.50	2.25	0.75	1.00	0.00	3.75	6.25	4.25	0.50	0.00	0.00	4.00	-0.131348	0.157227	0.883789	-24.360001	34.439999	-3.290000	493.00	-0.11	-0.11	0.00	0.00	0.00	0.00	0.00	0.00	0.00	0.00	0.00	0.00	0.00	0.00	0.00	0.00	0.00	0.00	-3.799316	0.093262	2.995605	258.790009	-447.720001	205.029999	0.00	0.00	0.00
3.00	4.75	7.50	2.25	5.25	0.25	1.75	0.75	0.50	0.00	3.75	6.00	4.25	0.50	0.00	0.00	4.25	-0.090332	0.112793	0.919922	-30.730000	31.780001	-4.690000	416.00	-0.08	-0.12	0.00	0.00	0.00	0.00	0.00	0.00	0.00	0.00	0.00	0.00	0.00	0.00	0.00	0.00	0.00	0.00	-4.742188	-0.187012	3.210938	253.399994	-412.929993	264.809998	0.00	0.00	0.00
3.01	3.25	5.75	1.50	3.50	0.50	1.25	0.75	0.50	0.00	4.00	6.25	4.25	0.50	0.00	0.00	4.25	-0.134277	0.133789	0.948730	-31.990000	26.040001	-8.330000	359.00	-0.03	-0.12	0.00	0.00	0.00	0.00	0.00	0.00	0.00	0.00	0.00	0.00	0.00	0.00	0.00	0.00	0.00	0.00	-5.868164	-0.476074	3.029297	247.729996	-379.750000	304.989990	0.00	0.00	0.00
3.02	1.75	4.00	1.00	2.00	0.25	0.75	0.75	0.50	0.00	4.25	6.25	4.75	1.00	0.25	0.00	4.00	-0.193359	0.129395	0.930176	-32.830002	21.490000	-12.180000	310.00	0.04	-0.13	0.00	0.00	0.00	0.00	0.00	0.00	0.25	0.00	0.00	0.00	0.00	0.00	0.00	0.00	0.00	0.00	-6.816406	-0.640137	2.170898	247.520004	-344.190002	340.130005	4.00	0.00	0.00
3.03	0.75	2.00	1.50	0.25	0.50	0.75	0.75	0.75	0.00	4.25	6.50	4.75	1.00	0.75	0.00	4.25	-0.239258	0.155273	0.986328	-34.860001	17.780001	-13.090000	283.00	0.11	-0.12	0.00	0.00	0.00	0.00	0.00	0.00	0.25	0.00	0.00	0.00	0.00	0.00	0.00	0.00	0.00	0.00	-7.335449	-0.952148	0.889160	255.080002	-285.179993	378.209991	4.00	0.00	0.00
3.04	0.50	0.75	0.75	0.75	0.25	0.25	0.75	0.50	0.00	4.50	6.50	5.25	1.50	0.50	0.00	4.25	-0.254395	0.135254	0.975586	-31.990000	15.260000	-11.760000	264.00	0.16	-0.14	0.00	0.00	0.00	0.00	0.00	0.00	0.00	0.00	0.00	0.00	0.00	0.00	0.00	0.00	0.00	0.00	-7.529785	-1.391602	-0.347656	238.770004	-183.889999	399.209991	0.00	0.00	0.00
3.05	0.00	0.25	0.50	0.00	0.25	0.00	0.75	0.50	0.00	5.00	7.25	5.75	1.75	0.75	0.00	4.25	-0.278320	0.104492	0.925781	-23.590000	14.910000	-9.170000	263.00	0.20	-0.14	0.00	0.00	0.00	0.00	0.00	0.00	0.00	0.00	0.00	0.00	0.00	0.00	0.00	0.00	0.00	0.00	-7.645996	-1.535645	-0.623047	182.350006	-68.040001	362.600006	0.00	0.00	0.00
3.06	0.00	0.00	0.25	0.00	0.25	0.50	0.50	1.00	0.25	5.25	7.50	6.25	2.50	1.50	0.00	4.50	-0.229004	0.124512	0.910156	-20.370001	13.300000	-7.560000	295.00	0.21	-0.15	0.00	0.00	0.00	0.00	0.00	0.00	0.00	0.00	0.00	0.00	0.00	0.00	0.00	0.00	0.00	0.00	-7.429199	-1.326172	-0.306641	137.550003	15.540000	262.709991	0.00	0.00	0.00
3.07	0.00	0.25	0.25	0.25	0.25	0.00	0.75	1.00	0.25	5.75	8.00	7.00	3.25	1.75	0.25	4.75	-0.197754	0.132812	0.925293	-16.660000	14.980000	-8.890000	330.00	0.21	-0.15	0.00	0.00	0.00	0.00	0.00	0.00	0.00	0.00	0.00	0.00	0.00	0.00	0.00	0.00	0.00	0.00	-6.791504	-1.191406	0.084961	157.710007	63.279999	141.750000	0.00	0.00	0.00
3.08	0.00	0.00	0.00	0.00	0.25	0.00	0.75	1.25	0.50	6.75	8.50	7.50	4.00	2.75	0.25	5.00	-0.232910	0.199707	0.921387	-12.670000	16.940001	-13.160000	366.00	0.22	-0.14	2.00	3.75	0.50	1.50	0.00	0.00	0.00	0.00	0.00	0.00	0.00	0.00	0.00	0.00	0.00	0.00	-8.637207	-4.131348	-2.311035	48.020000	324.660004	98.910004	77.00	-0.37	-0.09
3.09	0.00	0.25	0.00	0.00	0.00	0.50	0.75	1.25	0.75	7.50	9.25	8.25	5.25	4.00	0.50	5.25	-0.246094	0.150391	0.928711	-8.680000	17.500000	-17.219999	423.00	0.22	-0.14	11.75	14.25	1.75	4.25	0.00	0.00	0.00	0.00	0.00	0.00	0.00	0.00	0.00	0.00	0.00	0.00	-3.041016	-2.800293	1.377441	-184.100006	566.580017	-53.549999	319.00	-0.38	-0.05
3.10	0.00	0.00	0.00	0.00	0.25	0.00	0.75	1.75	1.25	7.75	10.00	9.00	6.25	5.50	0.75	5.50	-0.284668	0.126465	0.909180	-6.160000	14.070000	-20.370001	476.00	0.23	-0.14	22.50	21.50	6.00	9.00	0.00	0.00	0.00	0.00	0.00	0.00	0.00	0.00	0.00	0.00	0.00	0.00	-1.412109	1.202637	8.844238	-125.090004	640.359985	-115.430000	596.00	-0.37	-0.04
3.11	0.00	0.00	0.00	0.00	0.25	0.00	0.75	2.00	2.25	8.50	11.25	10.00	6.75	7.50	1.00	5.75	-0.264160	0.108887	0.925781	-7.210000	6.580000	-19.530001	550.00	0.24	-0.12	24.25	21.50	9.00	11.50	0.25	0.00	0.00	0.00	0.00	0.00	0.00	0.00	0.00	0.00	0.00	0.00	-2.601074	-0.258789	6.048828	-18.900000	510.720001	-76.930000	678.00	-0.36	-0.04
3.12	0.00	0.25	0.00	0.25	0.25	0.50	0.75	2.25	3.25	9.50	12.50	11.00	7.75	9.25	1.25	6.25	-0.288574	0.110840	0.959961	-5.950000	7.420000	-16.590000	640.00	0.23	-0.11	22.00	19.25	10.25	12.25	0.50	0.75	0.00	0.00	0.00	0.00	0.00	0.00	0.25	0.00	0.00	0.00	-2.106445	1.180176	4.822266	-35.349998	467.529999	-92.540001	669.00	-0.35	-0.04
3.13	0.00	0.00	0.00	0.00	0.25	0.00	0.75	2.50	4.50	10.25	13.75	12.25	8.25	11.00	1.75	6.50	-0.267090	0.075195	0.988770	-2.030000	18.900000	-12.600000	710.00	0.24	-0.10	19.00	16.75	10.75	12.50	1.25	1.75	0.25	0.50	0.00	0.00	0.00	0.00	0.25	0.25	0.00	0.00	-1.058594	1.444336	4.033691	-73.080002	339.850006	-50.049999	656.00	-0.33	-0.05
3.14	0.00	0.00	0.00	0.00	0.25	0.00	0.75	2.75	5.75	11.25	15.25	13.25	8.75	13.00	2.25	7.00	-0.255859	0.121094	1.057129	6.510000	41.299999	-9.030000	796.00	0.24	-0.09	17.00	14.75	11.00	12.50	1.50	2.50	0.50	0.75	0.00	0.00	0.00	0.00	1.00	0.75	0.00	0.00	-0.589355	-0.092773	2.057129	-133.419998	143.360001	-11.480000	649.00	-0.31	-0.05
3.15	0.00	0.00	0.00	0.00	0.00	0.25	0.50	2.50	6.75	11.75	16.25	14.25	9.25	15.25	2.75	7.50	-0.234375	0.116699	1.170898	25.059999	82.739998	-6.440000	859.00	0.25	-0.09	16.00	14.00	11.75	12.25	2.50	3.50	0.75	0.75	0.25	0.00	0.00	0.00	1.50	1.50	0.00	0.00	-0.165527	-0.148926	1.276367	-114.940002	38.990002	-5.530000	677.00	-0.29	-0.05
3.16	0.00	0.00	0.00	0.00	0.00	0.00	0.25	1.75	7.50	12.25	16.75	15.00	9.25	17.25	4.25	7.75	-0.291992	0.233398	1.182129	51.310001	141.610001	-8.610000	904.00	0.26	-0.08	16.75	14.75	12.00	13.00	3.00	4.25	0.75	1.25	0.50	0.00	0.00	0.00	1.75	2.25	0.00	0.25	-0.486328	0.239746	1.188477	-83.440002	-16.730000	-6.790000	737.00	-0.27	-0.06
3.17	0.00	0.00	0.00	0.00	0.00	0.00	0.25	1.25	7.75	12.50	17.50	15.25	9.25	19.00	4.75	8.50	-0.331543	0.183105	1.258301	67.129997	204.960007	-16.309999	937.00	0.27	-0.07	17.00	14.75	12.25	13.25	3.75	4.25	0.75	1.25	1.00	0.00	0.00	0.00	1.75	2.00	0.00	0.25	-0.259277	0.207520	1.167480	-69.019997	-20.090000	-2.730000	758.00	-0.27	-0.05
3.18	0.00	0.00	0.00	0.00	0.00	0.00	0.00	0.75	7.50	12.25	17.25	15.25	8.75	20.50	5.50	9.00	-0.364258	0.266602	1.316895	75.879997	266.279999	-27.440001	936.00	0.27	-0.07	17.25	14.50	12.00	12.75	4.00	4.00	0.75	1.00	1.00	0.00	0.00	0.00	1.25	2.25	0.00	0.25	-0.187500	0.054199	1.183594	-44.029999	-8.260000	-0.210000	744.00	-0.27	-0.04
3.19	0.00	0.00	0.00	0.00	0.00	0.00	0.00	0.50	7.75	12.25	17.00	14.75	7.75	21.50	6.00	9.25	-0.392090	0.118652	1.532715	67.269997	326.760010	-33.529999	934.00	0.28	-0.06	17.00	14.75	11.75	12.50	3.50	3.75	0.75	1.00	0.75	0.00	0.00	0.00	1.25	1.50	0.00	0.25	-0.139648	0.156250	1.038086	-3.010000	8.610000	3.570000	721.00	-0.28	-0.05
3.20	0.00	0.00	0.00	0.00	0.00	0.00	0.00	0.25	7.00	11.75	16.50	14.50	6.75	22.00	6.00	9.50	-0.552734	0.262207	1.643555	64.889999	387.450012	-34.720001	904.00	0.28	-0.05	16.25	14.25	11.00	12.00	3.00	2.75	0.75	0.75	0.50	0.00	0.00	0.00	1.00	1.25	0.00	0.00	-0.137207	0.113281	1.007812	3.710000	13.580000	2.520000	665.00	-0.29	-0.05
3.21	0.00	0.00	0.00	0.00	0.00	0.00	0.00	0.00	5.75	11.25	15.50	13.25	5.75	21.50	6.25	9.75	-0.517090	0.336426	1.763184	87.570000	538.090027	-43.470001	846.00	0.29	-0.05	14.50	13.50	10.25	11.00	2.50	2.50	0.75	0.75	0.50	0.00	0.00	0.00	0.75	1.25	0.00	0.25	-0.135254	0.099121	0.989258	10.990000	17.010000	4.410000	612.00	-0.29	-0.05
3.22	0.00	0.00	0.00	0.00	0.00	0.00	0.00	0.00	3.50	10.75	14.50	12.25	4.75	20.75	6.00	9.75	-0.822266	0.330566	2.200195	84.980003	624.330017	-55.790001	773.00	0.29	-0.06	12.50	11.75	8.75	10.00	2.00	1.75	0.50	0.50	0.50	0.00	0.00	0.00	0.25	0.75	0.00	0.00	-0.118652	0.105957	0.959473	16.940001	19.040001	7.140000	516.00	-0.30	-0.04
3.23	0.00	0.00	0.00	0.00	0.00	0.00	0.00	0.00	1.25	9.50	13.00	10.75	3.00	18.00	5.25	9.00	-1.621094	0.637207	3.128906	108.779999	700.700012	-54.250000	648.00	0.29	-0.07	9.50	10.25	7.50	8.75	1.50	1.25	0.50	0.50	0.50	0.00	0.00	0.00	0.25	0.75	0.00	0.25	-0.068359	0.125000	0.930664	21.280001	17.850000	7.490000	434.00	-0.29	-0.05
3.24	0.00	0.00	0.00	0.00	0.00	0.00	0.00	0.00	0.25	7.75	10.50	8.75	2.00	14.25	4.25	7.25	-2.375000	0.584473	5.117188	179.830002	752.919983	-32.200001	509.00	0.29	-0.07	7.00	8.50	5.50	7.75	1.00	1.00	0.50	0.75	0.25	0.00	0.00	0.00	0.25	0.50	0.00	0.00	0.000488	0.178711	0.866699	10.990000	18.200001	5.600000	348.00	-0.29	-0.07
3.25	0.00	0.00	0.00	0.00	0.00	0.00	0.00	0.00	0.00	6.25	8.50	7.25	1.00	9.75	3.25	5.50	-3.176758	0.018555	6.817383	204.680008	773.570007	-13.720000	386.00	0.29	-0.08	4.50	6.50	3.75	6.00	0.50	0.50	0.50	0.50	0.50	0.00	0.00	0.00	0.75	0.75	0.00	0.25	-0.173828	0.162109	0.987305	-0.700000	18.200001	5.530000	261.00	-0.26	-0.07
3.26	0.00	0.00	0.00	0.00	0.00	0.00	0.00	0.00	0.00	6.00	7.50	5.75	0.75	5.75	1.25	4.25	-2.096191	0.358887	6.825195	170.800003	766.220032	-19.389999	294.00	0.27	-0.09	2.75	4.75	2.25	4.50	0.50	0.25	0.25	0.50	0.25	0.00	0.00	0.00	0.75	0.50	0.00	0.00	-0.118164	0.143555	1.010742	-6.510000	17.780001	4.270000	180.00	-0.26	-0.09
3.27	0.00	0.00	0.00	0.00	0.00	0.00	0.00	0.00	0.25	5.00	6.75	5.25	0.50	2.00	0.00	4.25	0.027344	1.196289	7.071289	175.070007	714.280029	-32.480000	226.00	0.25	-0.12	1.50	0.00	1.00	1.50	0.75	0.00	0.50	0.25	0.25	0.00	0.00	0.00	0.75	0.25	0.00	0.25	-0.129883	0.121094	0.979004	-7.560000	22.260000	6.440000	76.00	-0.15	-0.03
3.28	0.00	0.00	0.00	0.00	0.00	0.00	0.25	0.00	0.00	5.00	6.50	5.25	0.25	1.00	0.00	4.00	3.943359	-1.080566	6.275391	197.470001	596.890015	-95.550003	212.00	0.24	-0.12	0.25	0.75	0.75	1.75	0.00	0.00	0.50	0.25	0.75	0.50	0.25	0.00	0.75	0.75	0.00	0.00	-0.142578	0.097656	0.928223	-17.080000	26.389999	10.150000	79.00	-0.04	-0.04
3.29	0.00	0.00	0.00	0.00	0.00	0.00	0.25	0.00	0.00	4.75	6.50	5.25	0.00	1.00	0.00	4.25	1.920898	2.784180	10.043945	107.940002	315.630005	-193.759995	209.00	0.24	-0.12	0.00	0.25	0.25	0.75	0.00	0.00	0.50	0.25	0.25	0.50	0.25	0.50	0.75	0.75	0.00	0.00	-0.148926	0.084473	0.920410	-22.190001	34.790001	17.150000	54.00	0.07	-0.08
3.30	0.00	0.00	0.00	0.00	0.00	0.00	0.25	0.00	0.00	4.75	6.50	5.00	0.25	0.50	0.00	4.25	3.062988	-0.419434	5.656738	118.300003	-40.740002	-226.380005	204.00	0.24	-0.13	0.00	0.00	0.00	0.00	0.50	0.00	0.50	0.25	0.75	1.00	1.00	0.75	1.50	0.75	0.00	0.25	-0.104980	0.260254	0.959961	-44.520000	30.940001	34.439999	76.00	0.19	-0.06
3.31	0.00	0.00	0.00	0.00	0.00	0.00	0.25	0.00	0.00	4.50	6.25	4.75	0.00	0.00	0.00	4.25	2.200684	-0.327637	3.219238	86.169998	-185.149994	-302.329987	189.00	0.24	-0.14	0.00	0.00	0.00	0.25	0.00	0.00	0.50	0.00	1.00	1.25	1.25	1.00	2.00	1.00	0.00	0.25	-0.010254	0.248047	1.016602	-17.219999	44.380001	19.040001	87.00	0.21	-0.07
3.32	0.00	0.00	0.00	0.00	0.00	0.00	0.25	0.00	0.00	4.50	6.25	4.50	0.00	0.00	0.00	4.00	1.809082	0.252930	2.867676	53.689999	-203.770004	-370.860016	185.00	0.24	-0.13	0.00	0.00	0.00	0.00	0.00	0.00	0.50	0.25	1.00	1.50	2.00	1.25	2.25	1.00	0.00	0.50	-0.141113	0.225586	0.975586	6.720000	50.119999	-3.570000	105.00	0.22	-0.09
3.33	0.00	0.00	0.00	0.00	0.00	0.00	0.50	0.00	0.00	4.25	6.00	4.50	0.00	0.25	0.00	4.25	1.840332	0.911133	3.156738	42.910000	-241.779999	-382.059998	188.00	0.24	-0.13	0.00	0.00	0.00	0.00	0.00	0.00	0.25	0.25	0.50	2.00	2.50	2.00	3.00	1.50	0.25	0.75	-0.229492	0.145508	0.953613	7.910000	50.610001	-10.290000	128.00	0.23	-0.14
3.34	0.00	0.00	0.00	0.00	0.00	0.00	0.50	0.00	0.00	4.25	5.75	4.25	0.00	0.25	0.00	4.25	1.772461	1.056152	3.011719	31.290001	-321.720001	-347.059998	182.00	0.24	-0.12	0.00	0.00	0.00	0.00	0.00	0.00	0.50	0.25	1.25	2.00	3.25	2.50	3.75	2.25	0.00	0.75	-0.262207	0.089355	0.925781	7.630000	46.689999	-9.730000	165.00	0.23	-0.11
3.35	0.00	0.00	0.00	0.00	0.00	0.00	0.50	0.00	0.00	4.00	5.75	4.00	0.00	0.00	0.00	4.25	1.422852	0.975586	2.384766	-4.410000	-394.100006	-295.049988	175.00	0.24	-0.13	0.00	0.00	0.00	0.00	0.00	0.00	0.50	0.50	1.75	3.00	4.50	3.25	4.75	2.75	0.50	1.50	-0.218262	0.116211	0.894043	6.160000	39.060001	-5.880000	229.00	0.23	-0.11
3.36	0.00	0.00	0.00	0.00	0.00	0.00	0.50	0.00	0.00	4.25	5.50	4.25	0.00	0.00	0.00	4.00	1.177734	1.022949	1.788086	-48.299999	-429.660004	-234.149994	176.00	0.24	-0.13	0.00	0.00	0.00	0.00	0.25	0.00	0.50	1.00	1.50	4.00	7.25	4.50	5.50	3.75	1.00	1.75	-0.145020	0.145020	0.939941	6.020000	32.410000	-4.270000	310.00	0.23	-0.13
3.37	0.00	0.00	0.00	0.00	0.00	0.00	0.50	0.00	0.00	4.25	5.75	4.00	0.00	0.00	0.00	4.25	0.958008	1.150879	1.452637	-65.169998	-434.769989	-167.089996	177.00	0.24	-0.12	0.00	0.00	0.00	0.00	0.00	0.00	0.50	1.25	2.75	4.75	8.50	6.75	7.00	6.00	1.00	2.50	-0.202637	0.171875	0.954590	10.080000	29.120001	-7.420000	408.00	0.24	-0.12
3.38	0.00	0.00	0.00	0.00	0.00	0.00	0.50	0.00	0.00	3.75	5.50	4.00	0.00	0.00	0.00	4.00	0.774414	1.226074	1.350098	-39.060001	-428.049988	-97.300003	168.00	0.24	-0.13	0.00	0.00	0.00	0.00	0.00	0.00	0.50	1.50	3.25	6.25	9.50	8.00	8.00	7.00	1.75	3.25	-0.247559	0.115234	0.942383	14.350000	28.139999	-9.170000	487.00	0.24	-0.12
3.39	0.00	0.00	0.00	0.00	0.00	0.00	0.50	0.00	0.00	4.00	5.50	3.75	0.00	0.00	0.00	4.00	0.542480	1.138184	1.462402	17.219999	-426.649994	-28.420000	168.00	0.24	-0.12	0.00	0.00	0.00	0.00	0.00	0.00	0.25	1.75	4.00	7.75	10.50	9.00	8.75	8.75	2.25	4.50	-0.247070	0.139160	1.042480	19.809999	36.049999	-5.600000	567.00	0.25	-0.11
3.40	0.00	0.00	0.00	0.00	0.00	0.00	0.50	0.00	0.00	3.50	5.50	4.00	0.00	0.00	0.00	4.00	0.297363	0.904785	1.618652	73.709999	-432.950012	34.230000	166.00	0.24	-0.13	0.00	0.00	0.00	0.00	0.00	0.00	0.25	2.25	4.75	8.50	11.25	9.75	9.50	11.00	3.00	5.50	-0.224121	0.164551	1.112305	25.410000	54.880001	-5.530000	647.00	0.25	-0.10
3.41	0.00	0.00	0.00	0.00	0.00	0.00	0.50	0.00	0.00	3.75	5.50	3.75	0.00	0.00	0.00	4.00	0.025391	0.640625	1.766113	106.330002	-441.279999	87.220001	166.00	0.24	-0.13	0.00	0.00	0.00	0.00	0.00	0.00	0.25	2.25	5.25	9.00	12.00	10.50	10.00	13.25	3.75	6.50	-0.203613	0.219727	1.251465	34.299999	85.820000	-8.680000	711.00	0.26	-0.10
3.42	0.00	0.00	0.00	0.00	0.00	0.00	0.50	0.00	0.00	3.75	5.50	3.50	0.00	0.00	0.00	4.00	-0.398926	0.379395	2.107910	105.489998	-452.549988	148.119995	163.00	0.24	-0.12	0.00	0.00	0.00	0.00	0.00	0.00	0.00	1.75	5.75	9.50	12.75	11.00	10.00	16.00	5.25	7.25	-0.245117	0.273438	1.234863	38.849998	126.699997	-17.360001	768.00	0.27	-0.09
3.43	0.00	0.00	0.00	0.00	0.00	0.00	0.50	0.00	0.00	3.75	5.50	3.75	0.00	0.00	0.00	4.00	-0.568359	0.404297	2.325195	111.720001	-460.950012	155.539993	166.00	0.24	-0.13	0.00	0.00	0.00	0.00	0.00	0.00	0.00	1.25	6.75	9.75	13.00	11.50	9.50	18.25	6.00	8.00	-0.299805	0.338379	1.290527	37.520000	182.979996	-31.990000	811.00	0.27	-0.07
3.44	0.00	0.00	0.00	0.00	0.00	0.00	0.50	0.00	0.00	3.75	5.50	3.75	0.00	0.00	0.00	4.00	-0.770996	0.387207	2.587891	138.320007	-472.850006	151.270004	166.00	0.24	-0.13	0.00	0.00	0.00	0.00	0.00	0.00	0.00	0.75	6.75	10.25	13.25	11.50	9.25	20.25	6.75	8.50	-0.322754	0.196289	1.422363	21.420000	247.309998	-41.720001	836.00	0.28	-0.06
3.45	0.00	0.00	0.00	0.00	0.00	0.00	0.50	0.00	0.00	3.75	5.50	3.75	0.00	0.00	0.00	4.00	-1.206055	0.336426	2.893555	171.080002	-488.459991	139.789993	166.00	0.24	-0.13	0.00	0.00	0.00	0.00	0.00	0.00	0.00	0.50	7.00	10.25	13.00	11.00	8.75	22.00	7.50	9.00	-0.456543	0.208984	1.601562	11.830000	315.350006	-44.240002	849.00	0.29	-0.05
3.46	0.00	0.00	0.00	0.00	0.00	0.00	0.25	0.00	0.00	3.50	5.50	3.50	0.00	0.00	0.00	4.25	-1.704102	0.257324	3.029297	190.470001	-505.750000	126.629997	158.00	0.24	-0.14	0.00	0.00	0.00	0.00	0.00	0.00	0.00	0.25	6.75	10.25	12.75	10.75	7.75	23.25	7.75	9.25	-0.460938	0.271973	1.828613	18.760000	392.070007	-46.970001	843.00	0.29	-0.04
3.47	0.00	0.00	0.00	0.00	0.00	0.00	0.50	0.00	0.00	3.50	5.50	3.75	0.00	0.00	0.00	4.00	-2.165039	0.224121	2.988281	189.000000	-516.809998	116.059998	163.00	0.24	-0.13	0.00	0.00	0.00	0.00	0.00	0.00	0.00	0.00	6.25	10.00	12.25	10.00	6.75	23.75	8.00	9.25	-0.428223	0.503906	1.936035	29.120001	472.500000	-57.260002	815.00	0.30	-0.04
3.48	0.00	0.00	0.00	0.00	0.00	0.00	0.50	0.00	0.00	3.50	5.50	3.50	0.00	0.00	0.00	4.00	-2.616211	0.243652	2.854004	174.580002	-517.159973	111.090004	160.00	0.24	-0.13	0.00	0.00	0.00	0.00	0.00	0.00	0.00	0.00	5.50	9.75	11.50	9.25	5.25	23.25	7.75	9.00	-0.514160	0.404785	2.194824	25.059999	568.679993	-80.570000	765.00	0.30	-0.03
3.49	0.00	0.00	0.00	0.00	0.00	0.00	0.50	0.00	0.00	3.50	5.50	3.50	0.00	0.00	0.00	3.75	-3.059570	0.345703	2.718262	151.690002	-506.799988	114.730003	159.00	0.24	-0.12	0.00	0.00	0.00	0.00	0.00	0.00	0.00	0.00	3.75	9.00	10.50	8.50	3.50	21.25	7.50	8.00	-0.947754	0.724121	2.415527	-5.040000	675.919983	-102.550003	676.00	0.31	-0.03
3.50	0.00	0.00	0.00	0.00	0.00	0.00	0.25	0.00	0.00	3.75	5.50	3.50	0.00	0.00	0.00	4.00	-3.465820	0.476562	2.588867	133.070007	-488.179993	132.509995	159.00	0.24	-0.13	0.00	0.00	0.00	0.00	0.00	0.00	0.00	0.00	2.00	7.75	9.00	7.50	2.50	17.75	6.25	6.50	-1.354004	0.890625	3.826172	17.570000	789.669983	-117.879997	554.00	0.31	-0.04
3.51	0.00	0.00	0.00	0.00	0.00	0.00	0.25	0.00	0.00	3.50	5.50	3.75	0.00	0.00	0.00	4.00	-3.909668	0.550293	2.651855	135.729996	-460.950012	157.850006	159.00	0.24	-0.14	0.00	0.00	0.00	0.00	0.00	0.00	0.00	0.00	1.75	5.25	6.50	5.00	1.50	13.25	4.50	4.25	-2.293457	0.657227	5.446777	41.090000	861.630005	-122.849998	395.00	0.31	-0.03
3.52	0.00	0.00	0.00	0.00	0.00	0.00	0.50	0.00	0.00	3.75	5.50	3.75	0.00	0.00	0.00	4.00	-4.699219	0.575195	2.787598	163.940002	-432.670013	181.580002	166.00	0.24	-0.13	0.00	0.00	0.00	0.00	0.00	0.00	0.00	0.00	0.50	3.00	3.25	2.50	1.00	8.50	2.50	1.25	-3.227539	1.404785	7.075195	57.750000	862.750000	-131.949997	212.00	0.31	-0.02
3.53	0.00	0.00	0.00	0.00	0.00	0.00	0.25	0.00	0.00	3.50	5.50	3.75	0.00	0.00	0.00	4.00	-5.833008	0.429199	2.321289	201.880005	-403.970001	204.610001	159.00	0.24	-0.14	0.00	0.00	0.00	0.00	0.00	0.00	0.00	0.00	0.50	2.00	2.50	2.00	0.50	3.00	0.00	0.00	-2.268555	1.762695	8.187012	89.040001	803.039978	-155.399994	105.00	0.27	-0.03
3.54	0.00	0.00	0.00	0.00	0.00	0.00	0.25	0.00	0.00	3.75	5.75	3.75	0.00	0.00	0.00	3.75	-6.948730	-0.036133	1.083496	211.399994	-348.179993	224.419998	163.00	0.24	-0.13	0.00	0.00	0.00	0.00	0.00	0.00	0.00	0.00	0.00	0.50	0.50	1.00	0.75	0.50	0.00	0.00	0.734375	2.435059	7.778320	120.959999	694.470032	-185.220001	32.00	0.00	0.00
3.55	0.00	0.00	0.00	0.00	0.00	0.00	0.25	0.00	0.00	3.75	5.50	3.75	0.00	0.00	0.00	4.00	-7.558594	-0.570312	-0.337402	177.869995	-252.490005	237.930008	162.00	0.24	-0.13	0.00	0.00	0.00	0.00	0.00	0.00	0.00	0.00	0.00	0.75	1.00	0.75	0.00	0.00	0.00	0.00	6.112793	-0.000488	4.992188	192.639999	527.380005	-237.580002	26.00	0.00	0.00
3.56	0.00	0.00	0.00	0.00	0.00	0.00	0.25	0.00	0.00	3.50	5.50	3.75	0.00	0.00	0.00	4.00	-7.673828	-0.909180	-0.863770	108.290001	-133.350006	230.369995	159.00	0.24	-0.14	0.00	0.00	0.00	0.00	0.00	0.00	0.00	0.00	0.00	0.75	0.75	0.50	0.00	0.00	0.00	0.00	-0.408203	4.169922	10.589844	264.179993	269.079987	-370.299988	21.00	0.00	0.00
3.57	0.00	0.00	0.00	0.00	0.00	0.00	0.25	0.00	0.00	3.50	5.25	3.75	0.00	0.00	0.00	4.00	-7.648438	-0.715820	-0.690918	40.250000	-23.590000	191.240005	157.00	0.24	-0.14	0.00	0.00	0.00	0.00	0.00	0.00	0.25	0.00	0.00	0.25	0.50	0.25	0.00	0.00	0.00	0.00	2.653320	0.513672	5.993164	315.700012	-108.919998	-377.929993	14.00	0.00	0.00
3.58	0.00	0.00	0.00	0.00	0.00	0.00	0.25	0.00	0.00	3.50	5.50	3.75	0.00	0.25	0.00	3.75	-7.462402	-0.280273	-0.672852	1.260000	48.650002	133.770004	160.00	0.24	-0.13	0.00	0.00	0.00	0.00	0.00	0.00	0.00	0.00	0.00	0.25	0.50	0.50	0.00	0.00	0.00	0.00	1.987305	0.356934	3.456543	213.710007	-308.559998	-372.750000	13.00	0.00	0.00
3.59	0.00	0.50	0.00	0.00	0.00	0.00	0.25	0.00	0.00	3.25	5.50	3.75	0.00	0.00	0.00	4.00	-12.355957	0.105469	-2.710449	-4.410000	90.930000	62.650002	161.00	0.22	-0.14	0.00	0.00	0.00	0.00	0.00	0.00	0.00	0.00	0.00	0.25	0.25	0.00	0.00	0.00	0.00	0.00	1.261719	1.607422	2.095215	-63.560001	-295.470001	-304.709991	5.00	0.00	0.00
3.60	4.00	8.75	0.25	1.00	0.00	0.00	0.00	0.00	0.00	3.50	5.50	3.75	0.00	0.00	0.00	4.00	-0.476562	-0.827148	-5.395020	29.049999	377.230011	20.370001	291.00	-0.06	-0.12	0.00	0.00	0.00	0.00	0.00	0.00	0.00	0.00	0.00	0.25	0.25	0.00	0.00	0.00	0.00	0.00	1.555176	2.140625	2.195312	-101.220001	-286.299988	-203.699997	5.00	0.00	0.00
3.61	19.25	27.75	1.50	3.50	0.00	0.00	0.00	0.00	0.00	3.50	5.75	4.25	0.00	0.50	0.00	4.00	-0.583984	0.851074	4.454102	-147.699997	600.950012	-40.529999	677.00	-0.24	-0.08	0.00	0.00	0.00	0.00	0.00	0.00	0.00	0.00	0.00	0.00	0.25	0.00	0.00	0.00	0.00	0.00	1.598633	2.208496	2.244141	-75.180000	-324.589996	-86.239998	3.00	0.00	0.00
3.62	26.00	35.25	3.75	8.25	0.00	0.00	0.00	0.00	0.00	3.50	5.75	4.25	0.00	0.00	0.00	3.75	-1.965332	0.217773	4.960938	13.440001	547.330017	16.309999	888.00	-0.27	-0.07	0.00	0.00	0.00	0.00	0.00	0.00	0.00	0.00	0.00	0.00	0.00	0.00	0.00	0.00	0.00	0.00	1.355957	1.867188	1.978027	-10.570000	-372.470001	21.910000	0.00	0.00	0.00
3.63	25.25	33.50	7.00	11.25	0.50	1.25	0.25	0.25	0.00	3.50	5.75	4.25	0.00	0.00	0.00	4.00	-2.306152	2.583008	6.734375	76.019997	553.979980	-97.790001	961.00	-0.26	-0.08	0.00	0.00	0.00	0.00	0.00	0.00	0.00	0.00	0.00	0.25	0.25	0.00	0.00	0.00	0.00	0.00	1.166016	1.194824	1.801758	43.400002	-402.570007	99.959999	5.00	0.00	0.00
3.64	20.50	30.50	8.00	12.75	1.00	2.25	0.50	0.50	0.00	3.00	5.50	4.50	0.25	0.00	0.00	4.00	-1.268066	1.773926	2.925293	-69.860001	244.509995	-48.580002	933.00	-0.25	-0.09	0.00	0.00	0.00	0.00	0.00	0.00	0.00	0.00	0.00	0.00	0.00	0.00	0.00	0.00	0.00	0.00	0.961426	0.605469	1.964844	74.620003	-423.850006	137.339996	0.00	0.00	0.00
3.65	18.75	27.25	8.00	12.75	1.00	2.25	0.50	0.50	0.00	3.25	5.75	4.25	0.25	0.00	0.00	4.00	-0.257324	0.011719	0.727539	-102.690002	104.790001	-20.370001	888.00	-0.24	-0.09	0.00	0.00	0.00	0.00	0.00	0.00	0.00	0.00	0.00	0.25	0.00	0.00	0.00	0.00	0.00	0.00	0.830078	0.247559	2.054688	93.239998	-450.519989	134.750000	3.00	0.00	0.00
3.66	16.25	23.50	7.75	12.25	1.00	3.00	0.75	1.00	0.00	3.00	5.75	4.50	0.50	0.00	0.00	4.00	-0.001465	-0.106445	1.558105	-71.260002	105.139999	-14.490000	841.00	-0.22	-0.09	0.00	0.00	0.00	0.00	0.00	0.00	0.00	0.00	0.00	0.25	0.00	0.00	0.00	0.00	0.00	0.00	0.697754	0.080078	2.046875	111.930000	-479.570007	106.820000	3.00	0.00	0.00
3.67	14.75	23.00	8.50	12.50	1.25	4.00	0.75	1.25	0.00	3.25	5.75	4.25	0.75	0.00	0.00	4.00	-0.508789	0.088867	1.306641	-56.490002	65.169998	-8.750000	851.00	-0.21	-0.10	0.00	0.00	0.00	0.00	0.00	0.00	0.00	0.00	0.00	0.25	0.00	0.00	0.00	0.00	0.00	0.00	0.464355	0.004883	2.127930	137.479996	-503.790009	69.650002	3.00	0.00	0.00
3.68	15.00	24.00	8.75	13.75	1.75	4.75	0.75	1.50	0.00	3.50	5.75	4.50	1.00	0.00	0.00	4.00	-0.307129	0.354492	0.951172	-51.590000	35.840000	-4.690000	904.00	-0.21	-0.10	0.00	0.00	0.00	0.00	0.00	0.00	0.00	0.00	0.00	0.00	0.00	0.00	0.00	0.00	0.00	0.00	0.240234	-0.075195	2.176270	164.080002	-523.320007	29.400000	0.00	0.00	0.00
3.69	15.50	24.00	9.00	14.00	2.00	5.00	0.75	1.50	0.00	3.50	5.75	4.50	1.00	0.00	0.00	4.25	-0.346680	0.186523	1.194824	-61.950001	29.260000	-7.210000	922.00	-0.21	-0.10	0.00	0.00	0.00	0.00	0.00	0.00	0.00	0.00	0.00	0.00	0.00	0.00	0.00	0.00	0.00	0.00	-0.084961	-0.166992	2.312012	201.529999	-537.039978	-16.450001	0.00	0.00	0.00
