# time	left pressure 1[N/cm²]	left pressure 2[N/cm²]	left pressure 3[N/cm²]	left pressure 4[N/cm²]	left pressure 5[N/cm²]	left pressure 6[N/cm²]	left pressure 7[N/cm²]	left pressure 8[N/cm²]	left pressure 9[N/cm²]	left pressure 10[N/cm²]	left pressure 11[N/cm²]	left pressure 12[N/cm²]	left pressure 13[N/cm²]	left pressure 14[N/cm²]	left pressure 15[N/cm²]	left pressure 16[N/cm²]	left acceleration X[g]	left acceleration Y[g]	left acceleration Z[g]	left angular X[dps]	left angular Y[dps]	left angular Z[dps]	left total force[N]	left center of pressure X[%]	left center of pressure Y[%]	right pressure 1[N/cm²]	right pressure 2[N/cm²]	right pressure 3[N/cm²]	right pressure 4[N/cm²]	right pressure 5[N/cm²]	right pressure 6[N/cm²]	right pressure 7[N/cm²]	right pressure 8[N/cm²]	right pressure 9[N/cm²]	right pressure 10[N/cm²]	right pressure 11[N/cm²]	right pressure 12[N/cm²]	right pressure 13[N/cm²]	right pressure 14[N/cm²]	right pressure 15[N/cm²]	right pressure 16[N/cm²]	right acceleration X[g]	right acceleration Y[g]	right acceleration Z[g]	right angular X[dps]	right angular Y[dps]	right angular Z[dps]	right total force[N]	right center of pressure X[%]	right center of pressure Y[%]
0.00	0.75	1.25	2.00	2.00	1.00	4.75	1.25	6.25	1.50	5.75	8.00	8.75	6.75	6.25	1.25	5.00	-0.237305	0.192383	0.985352	0.980000	41.650002	-39.340000	648.00	0.12	-0.16																									
0.01	0.25	0.75	1.50	1.75	0.75	3.75	1.00	5.75	1.25	5.75	8.00	8.50	6.50	6.00	1.25	5.00	-0.237793	0.245117	0.949707	1.540000	44.099998	-51.590000	595.00	0.14	-0.17																									
0.02	0.25	0.50	1.25	1.50	0.50	2.75	1.00	5.25	1.25	5.50	8.00	8.25	6.25	6.25	1.25	4.75	-0.040039	0.399414	0.860840	4.900000	46.900002	-69.860001	559.00	0.15	-0.16	3.75	4.50	4.00	6.25	2.00	4.75	2.50	6.25	0.25	1.25	1.00	3.00	6.25	2.75	1.00	1.00	-0.188965	0.160645	0.987793	-25.620001	-16.240000	-2.170000	552.00	-0.06	-0.16
0.03	0.25	0.00	0.75	1.25	0.50	2.00	0.75	4.25	1.25	5.50	7.75	8.00	6.00	6.25	1.25	4.75	-0.276367	0.259766	0.979004	9.380000	56.070000	-92.190002	512.00	0.17	-0.16	4.50	5.25	4.50	6.50	2.25	5.00	2.50	6.00	0.50	1.25	1.00	2.75	6.00	2.75	1.00	1.00	-0.189453	0.141602	0.988281	-22.469999	-14.210000	-0.840000	575.00	-0.08	-0.15
0.04	0.00	0.25	0.75	1.25	0.25	1.50	0.75	3.25	1.25	5.25	8.00	7.75	5.50	6.25	1.25	4.50	-0.348633	0.308105	1.008789	15.120000	65.309998	-116.199997	479.00	0.18	-0.15	5.25	5.50	5.25	7.50	2.50	5.00	2.50	6.00	0.75	1.25	1.00	2.50	5.75	3.00	1.00	1.00	-0.175781	0.126465	0.951172	-18.340000	-10.360000	0.210000	608.00	-0.09	-0.13
0.05	0.00	0.00	0.50	0.75	0.25	1.25	0.50	2.50	1.00	5.25	7.50	7.50	5.00	6.25	1.25	4.25	-0.320312	0.363281	1.033203	15.890000	70.840004	-150.500000	434.00	0.20	-0.14	6.75	6.25	6.00	7.75	2.50	5.25	2.50	6.00	0.50	1.00	0.75	2.50	5.75	3.00	1.00	1.00	-0.187988	0.125000	0.977539	-15.260000	-10.990000	2.310000	636.00	-0.11	-0.13
0.06	0.25	0.50	1.00	0.75	0.25	0.75	0.50	1.75	0.75	5.25	7.25	7.00	4.25	6.00	1.00	4.25	-0.408691	0.417480	0.890625	16.799999	73.639999	-171.850006	408.00	0.19	-0.13	8.00	7.50	6.75	8.50	3.00	5.50	2.75	6.00	0.75	1.50	0.75	2.00	5.25	2.75	1.00	1.00	-0.193359	0.140137	0.969238	-11.340000	-11.760000	4.480000	685.00	-0.12	-0.12
0.07	0.00	0.00	0.75	0.50	0.25	0.50	0.50	1.25	0.75	5.00	7.00	6.50	3.00	6.00	0.75	4.00	-0.359863	0.440918	1.059570	18.200001	78.190002	-198.800003	359.00	0.22	-0.11	8.75	8.25	7.50	9.00	3.25	5.75	2.50	6.00	0.50	1.00	0.75	2.25	5.50	3.00	1.00	0.75	-0.174805	0.133789	0.980469	-8.120000	-11.620000	6.160000	713.00	-0.13	-0.12
0.08	0.00	0.25	0.25	0.50	0.25	0.25	0.50	1.00	0.50	4.75	6.50	5.75	2.50	5.75	0.50	3.50	-0.410156	0.537109	0.909180	18.549999	79.800003	-227.639999	319.00	0.22	-0.11	9.75	9.25	8.00	9.75	3.50	6.50	2.50	6.00	0.50	1.00	0.75	2.25	5.25	2.75	1.00	0.75	-0.186523	0.116211	0.995605	-1.610000	-11.900000	8.050000	753.00	-0.15	-0.12
0.09	0.00	0.50	0.50	0.25	0.25	0.25	0.50	0.50	0.50	4.50	6.00	5.25	1.75	5.25	0.50	3.50	-0.465332	0.696289	0.918457	30.660000	80.849998	-260.820007	289.00	0.22	-0.09	11.25	10.25	8.25	10.25	3.75	7.00	2.75	6.25	0.50	1.00	0.50	1.75	5.25	2.50	1.00	0.75	-0.175293	0.135254	0.989746	6.090000	-12.180000	9.940000	791.00	-0.16	-0.11
0.10	0.00	0.00	0.25	0.50	0.25	0.00	0.75	0.50	0.25	4.25	5.50	5.00	1.00	5.00	0.50	3.25	-0.493164	0.671875	0.926758	52.849998	81.690002	-296.450012	262.00	0.23	-0.08	12.50	11.50	8.75	10.75	4.00	7.75	2.50	6.25	0.50	1.00	0.25	2.00	5.25	2.50	1.00	0.75	-0.186523	0.141602	1.002441	12.670000	-12.600000	11.130000	834.00	-0.17	-0.11
0.11	0.00	0.00	0.25	0.25	0.25	0.00	0.75	0.25	0.00	4.00	5.50	4.00	0.75	4.00	0.25	3.25	-0.594238	0.694824	1.001953	75.599998	76.019997	-327.390015	226.00	0.24	-0.08	13.75	12.50	9.00	11.25	4.00	7.75	2.50	6.50	0.25	0.25	0.25	1.50	5.00	2.25	1.00	0.75	-0.186035	0.165527	0.985840	16.030001	-13.160000	11.550000	848.00	-0.19	-0.11
0.12	0.00	0.25	0.25	0.75	0.25	0.00	0.75	0.25	0.00	4.25	5.25	4.00	0.50	3.00	0.00	3.25	-0.549316	0.588379	0.891602	81.970001	67.129997	-355.670013	220.00	0.21	-0.09	15.00	13.75	9.25	11.75	4.00	8.25	2.50	6.50	0.25	0.50	0.25	1.50	5.00	2.00	1.00	0.75	-0.175781	0.153809	0.973145	17.360001	-13.860000	11.550000	886.00	-0.19	-0.11
0.13	0.00	0.00	0.25	0.50	0.25	0.00	1.00	0.00	0.00	4.00	5.25	3.75	0.25	1.50	0.00	3.25	-0.626953	0.414062	1.193359	77.980003	52.500000	-380.239990	195.00	0.21	-0.09	16.25	15.00	9.75	12.25	4.25	8.50	2.50	6.75	0.00	0.50	0.00	1.25	5.00	2.00	0.75	0.50	-0.175781	0.166504	0.987793	16.730000	-13.930000	10.920000	919.00	-0.21	-0.11
0.14	0.00	0.00	0.25	0.25	0.25	0.00	0.75	0.00	0.00	3.75	5.00	3.50	0.25	1.75	0.00	3.25	-0.627930	0.335449	1.016113	55.020000	37.799999	-400.540009	183.00	0.22	-0.09	17.75	15.75	10.00	12.75	4.00	8.75	2.50	6.75	0.00	0.50	0.00	1.50	5.00	1.75	0.75	0.50	-0.166992	0.154785	0.981445	17.780001	-14.700000	10.500000	950.00	-0.21	-0.11
0.15	0.00	0.75	0.25	0.25	0.25	0.00	0.75	0.00	0.00	3.75	5.00	3.50	0.25	1.00	0.00	3.50	-0.635254	0.425293	0.977539	25.620001	26.320000	-415.100006	185.00	0.19	-0.10	18.00	16.75	10.25	13.00	4.00	8.75	2.25	7.00	0.25	0.25	0.25	1.25	4.00	1.50	0.50	0.50	-0.169922	0.165039	0.991211	20.020000	-15.960000	10.010000	954.00	-0.22	-0.11
0.16	0.00	0.25	0.00	0.00	0.25	0.00	0.75	0.00	0.00	3.75	5.00	3.00	0.25	1.00	0.00	3.50	-0.527344	1.328613	0.981934	50.610001	5.740000	-396.269989	169.00	0.23	-0.09	19.25	18.00	10.50	13.75	4.00	9.00	2.25	6.75	0.00	0.25	0.00	1.00	4.25	1.50	0.50	0.25	-0.170898	0.147461	0.983887	21.350000	-17.080000	9.800000	981.00	-0.23	-0.11
0.17	0.00	0.50	0.25	0.25	0.25	0.00	1.00	0.00	0.00	3.75	5.00	3.00	0.00	1.00	0.00	3.25	-0.484375	1.236328	0.561523	90.720001	-6.370000	-361.059998	177.00	0.20	-0.08	20.25	19.00	11.00	13.75	3.75	9.25	2.25	6.75	0.00	0.25	0.00	0.75	4.25	1.25	0.50	0.25	-0.149902	0.171387	0.973145	22.960001	-18.969999	9.520000	1001.00	-0.24	-0.10
0.18	0.00	0.25	0.00	0.00	0.25	0.00	0.75	0.00	0.00	3.75	5.00	2.75	0.00	0.75	0.00	3.25	-0.516602	1.219238	0.402344	102.550003	1.960000	-316.119995	161.00	0.22	-0.09	21.00	19.75	11.00	14.25	3.75	9.50	2.25	7.00	0.00	0.25	0.00	0.75	3.50	0.75	0.50	0.25	-0.145020	0.167969	0.984375	25.620001	-21.629999	9.170000	1017.00	-0.24	-0.10
0.19	0.00	0.00	0.50	0.00	0.00	0.00	1.00	0.00	0.00	4.00	4.50	3.25	0.00	1.00	0.00	3.25	-0.418945	1.305664	0.594727	103.879997	16.030001	-264.670013	170.00	0.22	-0.08	21.50	20.25	11.25	14.75	3.75	9.50	2.25	7.00	0.00	0.00	0.00	0.75	3.75	1.25	0.50	0.25	-0.145996	0.197266	0.957031	27.370001	-21.700001	9.310000	1039.00	-0.24	-0.10
0.20	0.00	0.25	0.25	0.00	0.25	0.00	0.75	0.00	0.00	3.75	5.00	3.00	0.00	1.00	0.00	3.25	-0.294434	1.226074	0.704102	114.730003	21.700001	-213.850006	169.00	0.22	-0.08	22.25	21.00	11.50	14.75	3.50	9.75	2.25	6.75	0.00	0.00	0.00	0.75	3.50	1.00	0.75	0.00	-0.139160	0.204590	0.960449	25.690001	-19.879999	9.660000	1050.00	-0.25	-0.10
0.21	0.00	0.25	0.25	0.00	0.00	0.00	0.75	0.00	0.00	3.75	5.25	2.75	0.00	1.00	0.00	3.25	-0.234375	0.955078	0.739746	128.449997	24.010000	-168.279999	166.00	0.22	-0.08	22.75	21.50	11.50	15.00	3.50	9.75	2.25	6.75	0.00	0.00	0.00	0.75	3.50	1.00	0.50	0.25	-0.129395	0.208008	0.944336	23.450001	-18.969999	9.380000	1061.00	-0.25	-0.10
0.22	0.00	0.00	0.25	0.00	0.00	0.00	0.75	0.00	0.00	3.50	5.00	2.50	0.00	1.00	0.00	3.25	-0.161133	0.646973	0.790039	134.889999	26.389999	-132.509995	156.00	0.23	-0.08	23.50	22.00	11.75	15.50	3.25	9.75	2.25	6.75	0.00	0.00	0.00	0.50	3.25	1.00	0.50	0.25	-0.106934	0.210938	0.915527	18.690001	-16.799999	9.030000	1074.00	-0.25	-0.10
0.23	0.00	0.25	0.00	0.00	0.00	0.00	0.75	0.00	0.00	3.75	5.00	2.75	0.00	0.75	0.00	3.25	-0.101074	0.408691	0.896973	141.119995	25.410000	-109.199997	158.00	0.23	-0.09	23.75	22.50	11.75	15.50	3.25	9.75	2.25	6.75	0.00	0.00	0.00	0.50	3.25	1.00	0.50	0.00	-0.121094	0.210938	0.953613	13.650000	-13.790000	8.470000	1080.00	-0.26	-0.10
0.24	0.25	0.00	0.50	0.00	0.00	0.00	1.00	0.00	0.00	3.50	5.00	3.00	0.00	1.00	0.00	3.25	-0.060059	0.145996	0.915527	147.490005	20.160000	-98.840004	170.00	0.21	-0.07	24.00	23.00	11.75	15.75	3.25	10.00	2.25	6.75	0.00	0.00	0.00	0.50	2.75	1.00	0.50	0.25	-0.115723	0.222656	0.937012	10.220000	-11.620000	7.980000	1089.00	-0.26	-0.10
0.25	0.00	0.25	0.25	0.00	0.00	0.00	0.75	0.00	0.00	3.75	4.75	3.00	0.00	0.25	0.00	3.25	-0.032227	-0.035645	0.908203	152.250000	14.560000	-98.139999	157.00	0.21	-0.10	24.25	23.25	12.00	15.75	3.25	10.00	2.00	6.75	0.00	0.00	0.00	0.50	3.00	0.75	0.25	0.25	-0.116699	0.232422	0.916992	4.970000	-8.680000	7.490000	1091.00	-0.26	-0.10
0.26	0.00	0.00	0.25	0.00	0.00	0.00	0.75	0.00	0.00	3.75	4.75	2.75	0.00	0.50	0.00	3.25	-0.004883	-0.188965	0.929688	156.240005	9.100000	-102.269997	154.00	0.23	-0.09	24.25	23.50	12.00	16.00	3.25	10.00	2.00	6.75	0.00	0.00	0.00	0.50	3.00	0.75	0.25	0.25	-0.119141	0.217285	0.940430	-0.770000	-6.300000	6.790000	1096.00	-0.26	-0.10
0.27	0.00	0.25	0.00	0.25	0.25	0.00	0.75	0.00	0.00	3.50	5.25	2.75	0.00	0.75	0.00	3.00	-0.005371	-0.301270	0.911133	156.589996	3.150000	-106.959999	162.00	0.21	-0.09	24.50	23.50	12.00	16.00	3.25	10.00	2.00	6.50	0.00	0.00	0.00	0.25	2.50	0.50	0.25	0.00	-0.112305	0.208496	0.932617	-5.460000	-5.110000	5.740000	1084.00	-0.27	-0.10
0.28	0.00	0.25	0.00	0.00	0.00	0.00	0.75	0.00	0.00	4.00	5.00	2.75	0.00	1.00	0.00	3.50	0.016113	-0.384277	0.869141	154.210007	-0.980000	-107.590004	164.00	0.23	-0.09	25.25	23.75	12.25	16.00	3.25	10.00	2.25	6.50	0.00	0.00	0.00	0.50	2.50	0.75	0.25	0.00	-0.117676	0.222168	0.927246	-10.430000	-2.450000	4.970000	1106.00	-0.27	-0.09
0.29	0.00	0.00	0.25	0.00	0.25	0.00	0.75	0.00	0.00	3.50	5.00	3.00	0.00	0.25	0.00	3.25	0.057617	-0.450195	0.864258	147.139999	-2.660000	-101.010002	157.00	0.22	-0.10	25.75	23.50	12.25	16.00	3.25	10.25	2.25	6.75	0.00	0.00	0.00	0.25	2.25	0.75	0.25	0.00	-0.125000	0.194336	0.958496	-12.740000	-0.070000	4.830000	1110.00	-0.27	-0.09
0.30	0.00	0.00	0.25	0.25	0.25	0.00	0.75	0.00	0.00	3.50	5.00	2.75	0.00	1.00	0.00	3.50	0.097168	-0.510254	0.878418	139.229996	-3.990000	-89.110001	165.00	0.22	-0.09	25.25	24.00	12.25	16.25	3.25	10.00	2.25	6.75	0.00	0.00	0.00	0.25	2.50	0.50	0.25	0.00	-0.134277	0.204590	0.970215	-12.600000	1.400000	4.760000	1110.00	-0.27	-0.10
0.31	0.00	0.25	0.25	0.00	0.00	0.00	0.75	0.00	0.00	3.75	5.50	2.75	0.00	0.75	0.00	3.25	0.170410	-0.632324	0.887207	127.260002	-4.480000	-72.660004	166.00	0.22	-0.09	25.00	24.00	12.25	16.25	3.00	10.00	2.00	6.75	0.00	0.00	0.00	0.50	2.00	0.75	0.25	0.00	-0.141113	0.194336	0.989746	-9.590000	0.630000	5.180000	1101.00	-0.27	-0.10
0.32	0.00	0.00	0.25	0.00	0.00	0.00	0.75	0.00	0.00	3.75	5.00	3.00	0.00	0.75	0.00	3.50	0.242676	-0.685059	0.922852	111.160004	-5.810000	-55.510002	163.00	0.23	-0.09	25.00	24.25	12.25	16.25	3.00	10.00	2.00	6.75	0.00	0.00	0.00	0.50	2.50	0.50	0.25	0.00	-0.129395	0.199219	0.969727	-6.440000	-0.560000	5.040000	1105.00	-0.27	-0.10
0.33	0.00	0.50	0.00	0.00	0.00	0.00	0.75	0.00	0.00	3.50	5.00	2.75	0.00	1.00	0.00	3.50	0.304688	-0.755371	0.926270	101.709999	-10.220000	-42.349998	161.00	0.22	-0.09	24.50	24.00	12.25	16.00	3.00	10.00	2.00	6.75	0.00	0.00	0.00	0.50	1.75	0.50	0.25	0.00	-0.124512	0.206543	0.953613	-5.460000	-0.350000	5.180000	1089.00	-0.27	-0.10
0.34	0.00	0.25	0.00	0.25	0.00	0.00	0.75	0.00	0.00	3.25	5.75	3.00	0.00	0.75	0.00	3.50	0.402832	-0.840332	0.933105	97.370003	-15.960000	-34.720001	168.00	0.22	-0.10	24.75	23.75	12.00	16.00	3.00	10.00	2.00	6.50	0.00	0.00	0.00	0.25	2.25	0.50	0.25	0.00	-0.133301	0.189453	0.977051	-3.920000	-0.560000	5.390000	1084.00	-0.27	-0.10
0.35	0.00	0.00	0.00	0.00	0.00	0.00	0.75	0.00	0.25	3.50	5.25	3.00	0.00	1.25	0.00	3.50	1.143066	-2.505371	3.376465	8.750000	-67.480003	-70.000000	167.00	0.24	-0.08	24.75	23.50	12.00	16.00	3.00	10.00	2.00	6.75	0.00	0.00	0.00	0.25	2.00	0.50	0.25	0.00	-0.131836	0.202637	0.960449	-2.170000	-1.610000	5.320000	1083.00	-0.27	-0.10
0.36	0.00	0.00	0.00	0.00	0.00	0.00	0.75	0.00	0.00	3.50	5.50	3.25	0.50	1.50	0.00	3.75	-0.064941	-0.533203	1.648438	15.400000	-175.490005	-108.150002	177.00	0.24	-0.10	24.25	23.75	11.75	16.00	2.75	10.00	2.00	6.50	0.00	0.00	0.00	0.00	2.00	0.50	0.00	0.00	-0.119141	0.211426	0.939453	-3.150000	-1.050000	5.320000	1066.00	-0.27	-0.10
0.37	0.00	0.25	0.00	0.00	0.00	0.00	0.75	0.25	0.25	4.25	5.25	3.50	0.00	2.25	0.25	4.25	-0.554199	-0.239258	0.909668	-2.520000	-181.020004	-49.139999	202.00	0.24	-0.08	23.75	23.50	11.75	15.75	2.75	10.00	2.00	6.50	0.00	0.00	0.00	0.50	1.75	0.50	0.00	0.00	-0.131348	0.194336	0.964844	-4.200000	-0.280000	5.320000	1059.00	-0.27	-0.10
0.38	0.00	0.00	0.00	0.00	0.00	0.00	1.00	0.25	0.50	4.25	5.75	3.75	1.00	2.50	0.25	4.00	-0.397949	0.014160	0.948730	-8.260000	-173.180008	-6.930000	224.00	0.24	-0.09	24.25	23.25	11.50	16.00	2.75	10.00	2.25	6.50	0.00	0.00	0.00	0.00	2.00	0.75	0.00	0.00	-0.132324	0.209961	0.965332	-3.640000	-0.770000	5.110000	1065.00	-0.27	-0.10
0.39	0.25	0.00	0.00	0.00	0.25	0.00	1.00	0.50	0.00	4.25	6.25	4.00	1.50	2.50	0.25	4.25	-0.239746	0.033203	1.012695	4.270000	-148.960007	1.610000	240.00	0.23	-0.11	24.00	23.50	11.75	15.75	2.75	9.75	2.25	6.50	0.00	0.00	0.00	0.25	1.75	0.50	0.00	0.00	-0.138184	0.201172	0.958008	-3.850000	-1.330000	5.180000	1060.00	-0.27	-0.09
0.40	0.00	0.25	0.25	0.25	0.50	0.00	1.25	0.75	0.50	4.75	6.25	4.00	1.75	2.75	0.50	4.25	-0.191895	0.181152	1.085938	-0.700000	-117.809998	12.320000	274.00	0.21	-0.09	24.00	23.75	11.50	15.75	2.75	9.75	2.25	6.25	0.00	0.00	0.00	0.25	1.75	0.50	0.00	0.00	-0.122070	0.204102	0.959473	-4.550000	-1.750000	5.040000	1056.00	-0.27	-0.09
0.41	0.25	0.25	0.75	0.75	0.75	0.50	1.75	1.25	0.75	4.50	6.25	4.00	1.75	3.00	0.50	4.50	-0.307129	0.045898	1.027832	5.880000	-66.290001	14.770000	316.00	0.17	-0.09	23.75	23.50	11.50	16.00	2.75	10.00	2.25	6.25	0.00	0.00	0.00	0.25	1.75	0.50	0.00	0.00	-0.126465	0.199707	0.949219	-5.600000	-1.680000	4.690000	1056.00	-0.27	-0.10
0.42	0.25	0.75	1.50	1.25	1.50	1.00	1.75	1.50	0.50	4.75	6.25	4.25	1.75	3.00	0.50	4.50	-0.111328	0.035645	1.040527	5.810000	-41.720001	14.980000	353.00	0.13	-0.09	23.75	23.25	11.50	15.75	2.50	9.75	2.25	6.25	0.00	0.00	0.00	0.00	1.50	0.50	0.25	0.00	-0.129395	0.203125	0.944824	-7.560000	-1.190000	4.060000	1044.00	-0.27	-0.09
0.43	1.00	1.00	2.00	1.75	1.75	1.25	2.00	2.00	0.50	4.50	6.50	4.25	1.50	3.00	0.50	4.25	-0.127441	0.173340	1.019043	-2.520000	-35.490002	12.110000	388.00	0.10	-0.09	23.50	23.25	11.50	16.00	2.50	9.75	2.00	6.25	0.00	0.00	0.00	0.00	1.50	0.50	0.00	0.00	-0.128906	0.196777	0.968750	-10.010000	0.560000	3.710000	1037.00	-0.28	-0.10
0.44	1.50	2.00	2.75	2.50	2.25	2.00	2.25	2.00	0.50	4.50	6.25	4.00	1.50	3.00	0.50	4.25	-0.120605	0.159180	1.021973	-7.700000	-27.860001	6.790000	431.00	0.06	-0.09	23.75	23.25	11.50	15.75	2.75	9.75	2.00	6.25	0.00	0.00	0.00	0.25	1.50	0.50	0.00	0.00	-0.141113	0.203613	0.978516	-8.820000	-0.630000	2.870000	1042.00	-0.27	-0.10
0.45	2.50	2.50	2.75	3.25	2.50	2.00	2.25	2.25	0.50	4.75	5.50	3.50	1.75	2.75	0.25	4.25	-0.152344	0.142090	1.003906	-8.330000	-18.340000	2.590000	448.00	0.03	-0.09	23.25	23.00	11.25	15.75	2.50	9.50	2.00	6.00	0.00	0.00	0.00	0.00	1.25	0.75	0.00	0.00	-0.127441	0.200684	0.958984	-8.470000	-1.190000	2.450000	1020.00	-0.28	-0.09
0.46	2.75	2.75	3.75	3.25	2.75	2.50	2.25	2.25	0.50	4.50	6.00	3.75	1.50	3.25	0.25	4.25	-0.205078	0.128906	0.993652	-6.650000	-9.730000	0.630000	479.00	0.02	-0.08	23.25	22.75	11.25	15.50	2.50	9.50	2.25	6.00	0.00	0.00	0.00	0.00	1.75	0.75	0.25	0.00	-0.111328	0.215332	0.925293	-10.570000	-0.420000	2.100000	1026.00	-0.27	-0.09
0.47	3.25	3.50	4.00	3.75	2.75	2.50	2.25	2.25	0.75	4.25	5.75	3.75	1.75	2.50	0.25	4.25	-0.203613	0.112305	0.981445	-4.620000	-3.290000	0.420000	493.00	-0.00	-0.08	22.75	22.50	11.25	15.50	2.50	9.50	2.25	5.75	0.00	0.00	0.00	0.25	1.25	0.50	0.00	0.00	-0.132324	0.198730	0.959473	-13.650000	0.910000	1.680000	1008.00	-0.27	-0.09
0.48	3.25	3.50	3.75	3.50	2.75	2.50	2.25	2.25	0.50	4.25	5.75	3.50	1.75	2.50	0.50	4.25	-0.194336	0.126953	0.970215	-3.570000	1.120000	0.140000	485.00	0.00	-0.09	22.50	22.25	11.25	15.25	2.50	9.50	2.00	5.75	0.00	0.00	0.25	0.00	1.00	0.50	0.25	0.00	-0.135742	0.179688	0.982422	-13.930000	0.560000	1.120000	997.00	-0.27	-0.09
0.49	3.50	3.75	4.25	3.75	2.75	2.50	2.25	2.00	0.75	4.50	6.00	3.50	1.75	2.50	0.50	4.00	-0.199219	0.109375	0.957031	-3.570000	4.270000	-0.210000	501.00	-0.00	-0.08	22.50	22.00	11.00	15.00	2.50	9.25	2.25	5.75	0.00	0.00	0.00	0.00	1.25	0.75	0.00	0.00	-0.138184	0.183105	0.987793	-12.600000	-0.070000	0.700000	990.00	-0.27	-0.09
0.50	3.75	4.25	4.25	3.75	2.75	2.50	2.25	2.25	0.50	4.25	5.75	3.50	1.50	2.25	0.50	4.25	-0.204102	0.089844	0.950195	-2.590000	6.160000	-0.490000	501.00	-0.02	-0.08	21.75	21.25	10.75	14.75	2.50	9.00	2.25	5.50	0.00	0.00	0.00	0.00	1.00	0.50	0.00	0.00	-0.148438	0.178711	0.994141	-9.940000	-1.330000	0.840000	959.00	-0.28	-0.09
0.51	3.75	3.50	4.00	3.75	2.75	2.50	2.25	2.00	0.25	4.25	6.00	3.50	1.75	2.50	0.25	4.25	-0.210449	0.088867	0.947754	0.140000	6.440000	-0.280000	488.00	-0.01	-0.08	21.25	21.00	10.50	14.50	2.25	9.00	2.00	5.25	0.00	0.00	0.00	0.00	1.00	1.00	0.25	0.00	-0.136719	0.174805	0.968750	-7.350000	-2.520000	0.630000	942.00	-0.27	-0.09
0.52	3.75	4.25	4.50	4.00	2.75	3.00	2.25	2.25	0.50	4.25	5.75	3.25	1.50	2.25	0.25	4.25	-0.197754	0.099121	0.944336	3.150000	5.740000	0.070000	506.00	-0.02	-0.08	20.75	20.50	10.50	14.50	2.25	8.50	2.00	5.00	0.00	0.00	0.00	0.00	0.75	0.75	0.00	0.00	-0.137207	0.202148	0.941895	-7.560000	-2.170000	0.490000	916.00	-0.28	-0.09
0.53	3.75	4.00	4.50	4.00	2.75	3.00	2.25	2.25	0.50	4.50	5.75	3.50	1.75	2.50	0.25	4.25	-0.207031	0.105957	0.945312	5.320000	4.900000	-0.070000	514.00	-0.02	-0.08	20.00	20.00	10.25	14.25	2.25	8.50	2.00	4.75	0.00	0.00	0.00	0.00	0.75	0.75	0.00	0.00	-0.123047	0.179199	0.948242	-9.800000	-0.630000	0.770000	894.00	-0.28	-0.09
0.54	4.00	4.50	4.75	4.50	2.75	2.75	2.25	2.50	0.00	4.25	5.75	3.50	1.75	2.50	0.50	4.25	-0.202148	0.112305	0.952148	6.230000	4.340000	-0.490000	524.00	-0.03	-0.09	19.25	19.50	10.00	13.75	2.00	8.00	2.00	4.50	0.00	0.00	0.00	0.00	0.50	0.50	0.00	0.00	-0.136230	0.173340	0.953613	-11.690000	0.210000	0.350000	858.00	-0.28	-0.09
0.55	4.00	4.50	4.50	4.50	2.75	3.25	2.00	2.50	0.50	4.50	5.50	3.50	1.75	2.25	0.50	4.25	-0.201172	0.117676	0.945312	6.020000	4.200000	-1.050000	527.00	-0.03	-0.09	18.50	19.00	9.75	13.50	2.00	7.75	2.25	4.25	0.00	0.00	0.00	0.00	0.75	0.75	0.00	0.00	-0.133301	0.180176	0.953125	-13.300000	1.120000	-0.350000	841.00	-0.28	-0.09
0.56	4.25	4.75	4.75	4.50	2.75	3.25	2.25	2.50	0.25	4.25	5.50	3.75	2.00	2.25	0.50	4.25	-0.197266	0.123047	0.947266	5.180000	4.200000	-1.470000	537.00	-0.03	-0.09	18.00	18.50	9.50	13.25	2.00	7.50	2.25	3.75	0.00	0.00	0.00	0.00	0.50	0.75	0.00	0.00	-0.127441	0.177246	0.950684	-15.540000	2.380000	-0.840000	813.00	-0.28	-0.08
0.57	4.00	5.00	4.75	4.50	2.75	3.50	2.00	2.50	0.50	4.25	5.75	4.00	1.75	2.50	0.50	4.25	-0.202637	0.115234	0.954102	4.340000	4.270000	-1.820000	545.00	-0.03	-0.09	17.00	17.75	9.25	13.00	1.75	7.25	2.25	3.50	0.00	0.00	0.00	0.00	0.50	0.50	0.25	0.00	-0.124023	0.162109	0.937988	-17.500000	3.640000	-1.680000	782.00	-0.28	-0.08
0.58	4.25	5.00	5.25	5.00	2.75	3.25	2.25	2.75	0.25	4.25	5.50	3.75	1.50	2.50	0.25	4.50	-0.195801	0.122070	0.956543	4.200000	4.620000	-1.820000	551.00	-0.04	-0.09	16.75	17.25	9.00	12.50	1.75	6.75	2.25	3.00	0.00	0.00	0.00	0.00	0.50	0.75	0.25	0.00	-0.127930	0.177734	0.921387	-25.830000	8.610000	-4.130000	755.00	-0.28	-0.08
0.59	4.50	5.00	5.25	4.50	2.75	3.75	2.25	3.25	0.25	4.25	5.75	3.75	2.00	2.25	0.25	4.25	-0.203613	0.115234	0.946777	3.780000	4.900000	-1.470000	565.00	-0.04	-0.10	15.75	16.75	8.75	12.25	1.75	6.50	2.25	2.75	0.00	0.00	0.00	0.00	0.75	1.00	0.00	0.00	-0.136230	0.180664	0.952637	-30.940001	10.920000	-4.620000	730.00	-0.28	-0.08
0.60	4.25	5.25	5.25	5.00	2.75	3.75	2.00	3.25	0.25	4.25	5.75	3.75	2.00	2.25	0.50	4.25	-0.197266	0.117188	0.955078	3.150000	5.110000	-1.050000	569.00	-0.04	-0.10	15.25	16.00	8.50	12.00	1.75	6.25	2.25	2.75	0.00	0.00	0.00	0.00	0.50	1.25	0.25	0.00	-0.180176	0.140137	1.033203	-25.760000	7.140000	-3.640000	712.00	-0.27	-0.08
0.61	5.00	5.00	5.25	5.00	2.75	4.00	2.00	3.50	0.50	4.00	5.50	3.25	2.25	2.25	0.25	4.25	-0.204102	0.120605	0.953125	2.800000	4.690000	-0.770000	573.00	-0.05	-0.10	14.50	15.75	8.50	11.75	1.75	6.00	2.25	2.50	0.00	0.00	0.00	0.00	0.25	1.00	0.25	0.00	-0.158203	0.135254	0.981934	-17.990000	2.520000	-2.660000	689.00	-0.27	-0.07
0.62	5.25	5.50	5.50	5.00	3.00	4.00	2.00	3.50	0.00	4.25	5.75	3.75	2.00	2.25	0.25	4.25	-0.194336	0.127441	0.948242	2.030000	4.620000	-0.700000	588.00	-0.05	-0.10	14.25	15.50	8.50	11.75	1.75	6.00	2.25	2.25	0.00	0.00	0.00	0.00	0.50	1.25	0.25	0.00	-0.160156	0.153320	0.964355	-13.020000	-0.210000	-1.680000	684.00	-0.27	-0.07
0.63	5.25	5.50	5.75	5.25	3.00	4.25	2.00	3.75	0.25	4.00	5.75	3.75	2.00	2.00	0.50	4.25	-0.189453	0.128906	0.949219	0.560000	4.550000	-0.420000	601.00	-0.05	-0.11	14.00	15.25	8.50	11.75	2.00	5.75	2.25	2.25	0.00	0.00	0.00	0.00	0.25	1.00	0.25	0.00	-0.173340	0.139648	0.971680	-11.340000	-1.610000	-1.050000	675.00	-0.27	-0.07
0.64	5.50	5.50	6.00	5.25	3.00	4.25	2.00	3.75	0.50	4.00	5.75	3.75	2.00	2.00	0.25	4.25	-0.192383	0.125000	0.959473	-1.120000	4.760000	-0.350000	607.00	-0.06	-0.10	13.75	15.25	8.25	11.50	2.00	5.75	2.50	2.25	0.00	0.00	0.00	0.00	0.25	1.25	0.25	0.00	-0.162109	0.143066	0.982422	-8.400000	-3.080000	-0.280000	673.00	-0.27	-0.07
0.65	5.75	5.75	6.00	5.50	3.00	4.50	2.25	3.75	0.25	4.25	5.75	3.75	2.25	2.25	0.50	4.25	-0.201660	0.130371	0.953613	-2.520000	4.830000	-0.560000	627.00	-0.06	-0.10	13.75	15.00	8.50	11.75	2.00	5.75	2.25	2.50	0.00	0.00	0.00	0.00	0.50	1.25	0.25	0.00	-0.170898	0.150391	0.989258	-4.200000	-5.040000	0.420000	678.00	-0.27	-0.07
0.66	6.25	5.75	6.00	5.25	3.00	4.25	2.00	3.75	0.50	4.25	5.50	3.50	1.75	2.00	0.25	4.25	-0.195801	0.124023	0.959961	-3.430000	4.620000	-0.770000	612.00	-0.07	-0.10	14.25	15.25	8.50	11.75	2.00	5.75	2.25	2.25	0.00	0.00	0.00	0.00	0.50	1.25	0.25	0.00	-0.154785	0.150879	0.968262	-1.960000	-6.300000	1.050000	682.00	-0.27	-0.07
0.67	6.25	6.00	6.50	5.50	3.25	4.50	2.00	3.75	0.75	4.50	5.50	3.75	1.75	2.00	0.25	4.25	-0.192871	0.131836	0.955078	-4.410000	4.760000	-1.050000	637.00	-0.07	-0.09	13.75	15.25	8.50	11.75	2.00	5.75	2.25	2.25	0.00	0.00	0.00	0.00	0.50	1.25	0.25	0.00	-0.150879	0.160156	0.964355	-1.610000	-6.440000	1.330000	677.00	-0.27	-0.07
0.68	6.25	6.25	6.25	5.50	3.00	4.25	2.25	3.50	0.25	4.00	5.75	3.50	1.75	2.25	0.25	4.25	-0.189941	0.115234	0.958008	-5.110000	4.760000	-1.260000	621.00	-0.07	-0.09	14.75	15.50	8.50	11.75	2.00	5.75	2.25	2.25	0.00	0.00	0.00	0.00	0.50	1.25	0.50	0.00	-0.149902	0.154785	0.957520	-2.590000	-6.300000	1.330000	692.00	-0.27	-0.07
0.69	6.50	6.25	6.50	5.50	3.25	4.25	2.25	3.50	0.25	4.25	5.75	3.50	1.75	2.00	0.25	4.00	-0.195312	0.123535	0.958496	-5.320000	4.900000	-1.470000	628.00	-0.07	-0.09	15.00	16.25	8.75	12.00	2.25	5.75	2.50	2.25	0.25	0.00	0.00	0.00	0.75	1.50	0.25	0.25	-0.149414	0.152832	0.971191	-3.360000	-5.880000	1.470000	720.00	-0.26	-0.07
0.70	6.50	6.25	6.50	5.50	3.25	4.25	2.25	3.50	0.00	4.25	5.75	3.75	2.00	2.00	0.25	4.00	-0.198730	0.118164	0.958496	-5.600000	5.250000	-1.540000	630.00	-0.07	-0.10	15.25	16.25	9.00	12.25	2.25	5.75	2.25	2.25	0.00	0.00	0.00	0.00	0.50	1.25	0.50	0.00	-0.153809	0.153809	0.978027	-3.010000	-5.950000	1.540000	718.00	-0.27	-0.07
0.71	6.50	6.50	6.50	5.50	3.25	4.25	2.25	3.25	0.25	4.25	5.50	3.50	1.75	2.00	0.25	4.00	-0.201660	0.117188	0.965820	-5.670000	5.250000	-1.750000	624.00	-0.08	-0.09	16.00	16.50	9.00	12.25	2.00	5.75	2.50	2.25	0.00	0.00	0.00	0.00	0.50	1.25	0.25	0.00	-0.153809	0.152344	0.979492	-2.100000	-6.370000	1.890000	727.00	-0.27	-0.07
0.72	6.75	6.50	6.50	5.50	3.50	4.00	2.25	3.25	0.50	4.25	5.50	3.50	1.50	2.00	0.25	4.00	-0.202148	0.111816	0.952148	-5.530000	5.530000	-1.820000	628.00	-0.08	-0.08	16.75	16.75	9.00	12.50	2.00	5.75	2.50	2.25	0.00	0.00	0.00	0.00	0.75	1.25	0.25	0.00	-0.158203	0.143066	0.985840	-0.280000	-7.560000	2.170000	741.00	-0.27	-0.07
0.73	7.00	6.50	6.75	5.50	3.75	4.25	2.25	3.00	0.75	4.25	5.25	3.75	1.50	1.25	0.25	3.75	-0.197754	0.111816	0.957031	-4.900000	5.320000	-1.680000	630.00	-0.08	-0.08	17.00	17.00	9.25	12.25	2.25	5.75	2.50	2.25	0.00	0.00	0.00	0.00	0.25	1.00	0.25	0.00	-0.149902	0.152344	0.971680	0.840000	-8.330000	2.310000	743.00	-0.28	-0.06
0.74	6.50	6.50	6.75	5.75	3.50	4.25	2.00	3.00	0.00	4.00	5.50	3.50	1.50	2.00	0.25	4.00	-0.195312	0.114746	0.958984	-4.340000	4.970000	-1.680000	617.00	-0.08	-0.09	17.50	17.00	9.25	12.25	2.25	5.50	2.25	2.00	0.00	0.00	0.00	0.00	0.25	1.00	0.25	0.00	-0.150391	0.154785	0.974609	1.680000	-8.400000	2.450000	738.00	-0.28	-0.06
0.75	7.25	6.50	6.50	5.50	3.50	4.00	2.00	3.00	0.50	4.25	5.50	3.50	1.25	2.00	0.25	4.00	-0.199219	0.114258	0.959473	-3.570000	4.900000	-1.400000	623.00	-0.08	-0.08	17.50	17.25	9.25	12.50	2.50	5.50	2.25	2.00	0.00	0.00	0.00	0.00	0.25	1.00	0.25	0.00	-0.146484	0.152344	0.973145	2.380000	-8.820000	2.520000	745.00	-0.28	-0.06
0.76	7.00	6.75	6.75	5.75	3.75	4.00	2.00	2.75	0.75	4.00	5.50	3.75	1.25	1.50	0.00	4.00	-0.193848	0.112305	0.959473	-2.590000	4.480000	-1.120000	624.00	-0.09	-0.08	17.50	17.50	9.25	12.50	2.25	5.50	2.25	2.00	0.00	0.00	0.00	0.00	0.00	1.00	0.25	0.00	-0.145508	0.159180	0.974121	2.730000	-8.820000	2.380000	743.00	-0.29	-0.06
0.77	7.00	6.75	6.75	5.50	3.50	4.00	2.00	2.75	0.50	4.25	5.75	3.25	1.25	2.00	0.25	4.00	-0.198730	0.112305	0.954102	-1.610000	4.060000	-0.840000	622.00	-0.08	-0.08	18.00	17.75	9.00	12.50	2.25	5.50	2.25	1.75	0.00	0.00	0.00	0.00	0.00	0.75	0.25	0.00	-0.154785	0.153320	0.990723	4.760000	-9.800000	2.660000	741.00	-0.29	-0.06
0.78	7.25	7.00	6.75	5.50	3.75	3.75	2.00	2.75	0.50	4.25	5.75	3.50	1.25	1.75	0.00	4.00	-0.194336	0.116211	0.957031	-1.120000	4.060000	-0.630000	625.00	-0.09	-0.08	18.00	18.00	9.50	12.50	2.25	5.50	2.25	1.75	0.00	0.00	0.00	0.00	0.00	0.75	0.25	0.00	-0.144043	0.164551	0.978027	10.570000	-12.950000	3.290000	749.00	-0.29	-0.06
0.79	7.25	7.00	6.75	5.50	3.75	3.75	2.00	2.75	0.00	4.25	5.50	3.75	1.00	1.75	0.00	4.00	-0.186035	0.117188	0.947754	-0.980000	4.130000	-0.350000	616.00	-0.09	-0.08	18.75	18.00	9.75	12.75	2.25	5.25	2.25	1.50	0.00	0.00	0.00	0.00	0.00	0.75	0.25	0.00	-0.139160	0.175781	0.977051	12.880000	-14.280000	4.060000	756.00	-0.29	-0.06
0.80	7.25	7.25	6.75	5.50	3.50	4.00	2.00	2.50	0.50	4.25	5.50	3.50	1.00	1.50	0.00	3.75	-0.189453	0.115234	0.956543	-1.050000	4.270000	-0.420000	615.00	-0.09	-0.08	18.50	18.00	9.25	12.50	2.00	5.25	2.25	1.50	0.00	0.00	0.00	0.00	0.00	0.75	0.25	0.00	-0.130371	0.158203	0.967285	13.860000	-14.630000	4.410000	742.00	-0.29	-0.06
0.81	7.50	7.00	7.00	5.75	3.50	4.00	2.00	2.50	0.00	4.25	5.75	3.25	1.00	1.75	0.25	3.75	-0.186523	0.121094	0.947754	-1.400000	4.480000	-0.630000	619.00	-0.10	-0.08	18.25	18.00	9.50	12.50	1.75	5.25	2.25	1.25	0.00	0.00	0.00	0.00	0.00	0.75	0.25	0.00	-0.092773	0.125977	0.864746	13.580000	-14.910000	4.340000	736.00	-0.30	-0.06
0.82	7.50	7.25	6.75	5.75	3.50	3.75	2.00	2.75	0.25	4.25	5.50	3.50	1.00	1.75	0.00	3.75	-0.190430	0.120605	0.951660	-2.030000	4.480000	-0.700000	620.00	-0.10	-0.08	19.00	18.25	9.50	12.75	2.00	5.00	2.25	1.25	0.00	0.00	0.00	0.00	0.00	0.75	0.25	0.00	-0.137695	0.173828	0.965332	13.370000	-14.910000	4.200000	749.00	-0.30	-0.05
0.83	8.00	7.25	7.00	5.75	3.75	3.75	2.00	2.50	0.00	4.00	5.50	3.25	1.00	1.50	0.25	3.75	-0.196777	0.120117	0.951172	-2.310000	4.690000	-0.840000	619.00	-0.10	-0.08	18.75	18.50	9.75	12.75	2.00	5.00	2.25	1.25	0.00	0.00	0.00	0.00	0.00	0.50	0.25	0.00	-0.129395	0.171387	0.964844	12.950000	-15.470000	3.990000	749.00	-0.30	-0.05
0.84	7.75	7.50	7.00	5.75	3.75	3.75	2.00	2.50	0.25	4.00	5.75	3.25	1.00	1.25	0.25	3.75	-0.185547	0.122070	0.948730	-2.660000	4.760000	-0.980000	623.00	-0.10	-0.08	18.75	18.25	9.50	12.75	2.25	5.00	2.25	1.25	0.00	0.00	0.00	0.00	0.00	0.50	0.00	0.00	-0.126953	0.175293	0.971680	12.460000	-15.400000	3.850000	744.00	-0.30	-0.05
0.85	7.75	7.50	7.00	5.75	4.25	3.75	2.00	2.50	0.25	4.25	5.25	3.25	0.75	1.25	0.25	3.75	-0.190430	0.111816	0.960938	-2.590000	5.040000	-1.120000	623.00	-0.10	-0.07	19.00	18.50	9.75	12.75	1.75	5.00	2.25	1.25	0.00	0.00	0.00	0.00	0.00	0.50	0.00	0.00	-0.125977	0.168945	0.969727	11.760000	-15.820000	3.640000	747.00	-0.30	-0.05
0.86	8.00	7.75	7.25	5.75	4.00	3.75	2.00	2.50	0.25	4.00	5.50	3.25	1.00	1.50	0.25	3.75	-0.190430	0.111816	0.951660	-2.660000	4.690000	-1.120000	633.00	-0.10	-0.07	19.75	18.50	9.50	12.75	1.75	5.00	2.25	1.25	0.00	0.00	0.00	0.00	0.00	0.75	0.00	0.00	-0.116699	0.176758	0.952637	10.850000	-15.190001	3.430000	754.00	-0.30	-0.05
0.87	8.25	7.75	7.50	6.25	4.00	4.00	2.00	2.50	0.25	4.25	5.50	3.25	1.00	1.75	0.00	3.75	-0.181641	0.115723	0.954102	-2.940000	4.970000	-1.190000	648.00	-0.11	-0.07	19.75	18.75	9.75	12.50	1.75	5.00	2.25	1.25	0.00	0.00	0.00	0.00	0.00	0.25	0.00	0.00	-0.123047	0.184082	0.977051	10.150000	-14.490000	3.010000	752.00	-0.31	-0.05
0.88	8.50	8.00	7.25	6.00	4.50	4.00	2.00	2.50	0.00	4.50	5.25	3.50	1.00	1.25	0.00	4.00	-0.186523	0.111328	0.956543	-2.940000	4.900000	-0.980000	650.00	-0.11	-0.08	19.75	19.00	9.75	12.75	1.75	5.00	2.25	1.00	0.00	0.00	0.00	0.00	0.00	0.25	0.25	0.00	-0.114746	0.177246	0.971680	10.290000	-14.630000	2.730000	756.00	-0.31	-0.05
0.89	8.25	8.00	7.50	6.25	4.25	4.00	2.00	2.50	0.25	4.00	5.75	3.25	1.00	1.50	0.00	3.75	-0.187500	0.107910	0.954102	-2.800000	5.180000	-0.910000	651.00	-0.11	-0.08	19.75	19.00	9.50	13.00	1.75	5.00	2.25	1.25	0.00	0.00	0.00	0.00	0.00	0.50	0.00	0.00	-0.119141	0.177246	0.970215	10.990000	-14.630000	2.660000	759.00	-0.30	-0.05
0.90	8.50	8.50	7.50	6.50	4.25	4.00	2.00	2.50	0.25	4.00	5.50	3.25	0.75	1.50	0.25	3.75	-0.193359	0.113281	0.961914	-2.170000	4.900000	-0.700000	659.00	-0.11	-0.07	19.25	19.25	9.50	12.75	1.50	5.00	2.00	0.75	0.00	0.00	0.00	0.00	0.00	0.50	0.00	0.00	-0.118652	0.181152	0.965820	11.900000	-14.630000	2.450000	739.00	-0.31	-0.05
0.91	8.50	8.25	7.50	6.25	4.50	4.00	2.00	2.50	0.75	4.50	5.25	3.25	0.75	1.50	0.25	4.00	-0.194336	0.111816	0.947266	-1.890000	5.110000	-0.560000	667.00	-0.11	-0.07	20.25	19.25	9.75	13.00	1.75	5.00	2.25	1.00	0.00	0.00	0.00	0.00	0.00	0.50	0.00	0.00	-0.125488	0.183594	0.994141	14.000000	-15.330000	2.380000	765.00	-0.31	-0.05
0.92	8.75	8.50	7.75	6.50	4.50	4.00	2.00	2.50	0.25	4.25	5.50	3.25	1.00	1.50	0.00	3.75	-0.182617	0.112793	0.951172	-1.750000	5.320000	-0.560000	669.00	-0.12	-0.07	20.00	19.25	9.50	13.00	1.75	5.00	2.25	1.25	0.00	0.00	0.00	0.00	0.00	0.25	0.00	0.00	-0.108398	0.185059	0.962402	15.190001	-16.379999	2.310000	762.00	-0.31	-0.06
0.93	9.00	8.50	7.75	6.75	4.50	4.25	2.00	2.50	0.25	4.00	5.75	3.25	1.00	1.50	0.00	3.75	-0.186035	0.103516	0.954102	-1.470000	5.530000	-0.560000	677.00	-0.12	-0.07	20.00	19.25	9.50	12.75	1.50	5.00	2.00	1.25	0.00	0.00	0.00	0.00	0.00	0.25	0.00	0.00	-0.104004	0.193359	0.944336	15.400000	-15.330000	1.960000	752.00	-0.31	-0.06
0.94	8.75	8.75	7.75	7.00	4.50	4.25	2.00	2.50	0.00	4.00	5.75	3.50	0.75	1.50	0.00	3.75	-0.184570	0.112793	0.952148	-1.330000	5.670000	-0.350000	677.00	-0.12	-0.08	19.50	19.00	9.50	12.75	1.50	5.00	2.00	1.00	0.00	0.00	0.00	0.00	0.00	0.25	0.00	0.00	-0.102051	0.200195	0.955566	14.560000	-13.370000	1.750000	741.00	-0.31	-0.06
0.95	8.75	9.00	7.75	7.00	4.75	4.50	2.00	2.50	0.25	4.25	5.75	3.25	0.75	1.25	0.25	3.75	-0.187500	0.104492	0.958984	-0.560000	5.390000	-0.210000	688.00	-0.12	-0.08	20.00	19.00	9.25	12.75	1.50	4.75	2.00	1.00	0.00	0.00	0.00	0.00	0.00	0.00	0.00	0.00	-0.116699	0.196289	0.958008	14.070000	-12.530000	1.470000	739.00	-0.31	-0.05
0.96	9.25	9.50	8.00	7.00	4.75	4.50	2.00	2.75	0.25	4.00	5.75	3.25	1.00	1.50	0.25	3.75	-0.187500	0.116211	0.954102	0.210000	4.970000	-0.210000	706.00	-0.12	-0.08	19.75	18.75	9.25	12.75	1.25	4.50	2.00	0.75	0.00	0.00	0.00	0.00	0.25	0.50	0.00	0.00	-0.095703	0.211914	0.957031	13.580000	-11.620000	1.120000	731.00	-0.31	-0.05
0.97	9.00	9.25	8.00	7.25	5.00	4.75	2.00	2.75	0.00	4.00	5.75	3.50	0.75	1.50	0.00	3.75	-0.189941	0.108398	0.945312	-0.000000	5.740000	0.070000	704.00	-0.12	-0.08	19.50	18.75	9.25	12.50	1.25	4.75	2.00	1.00	0.00	0.00	0.00	0.00	0.00	0.50	0.25	0.00	-0.105469	0.212891	0.951660	12.880000	-10.850000	0.980000	733.00	-0.31	-0.05
0.98	9.25	9.75	8.00	7.50	5.00	5.00	2.00	2.75	0.25	4.25	5.50	3.50	0.75	1.75	0.00	3.75	-0.189941	0.108398	0.945312	-0.000000	5.740000	0.070000	722.00	-0.12	-0.08	19.25	18.25	9.00	12.50	1.25	4.75	2.00	1.00	0.00	0.00	0.00	0.00	0.00	0.25	0.00	0.00	-0.090820	0.222656	0.937988	7.770000	-7.210000	0.280000	718.00	-0.31	-0.06
0.99	9.50	10.00	8.50	7.75	5.00	5.00	2.00	3.00	0.00	4.25	5.75	3.50	1.00	1.25	0.00	3.75	-0.184570	0.115234	0.949707	-0.000000	6.230000	0.000000	737.00	-0.13	-0.08	19.25	18.50	9.25	12.50	1.50	4.50	2.00	1.00	0.00	0.00	0.00	0.00	0.00	0.25	0.00	0.00	-0.100098	0.231445	0.937012	4.340000	-4.830000	-0.070000	723.00	-0.31	-0.05
1.00	9.75	10.00	8.25	7.75	5.25	5.50	2.00	3.25	0.00	4.25	5.25	3.75	1.25	1.00	0.00	3.75	-0.184570	0.107910	0.956543	0.140000	7.350000	-0.280000	746.00	-0.13	-0.09	18.25	18.25	9.00	12.25	1.25	4.50	2.25	1.00	0.00	0.00	0.00	0.00	0.00	0.25	0.00	0.00	-0.091309	0.235840	0.939941	1.050000	-2.800000	-0.140000	706.00	-0.31	-0.05
1.01	10.50	10.75	8.50	8.25	5.25	6.00	2.00	3.25	0.25	4.00	5.50	3.50	1.25	1.25	0.00	3.75	-0.180176	0.116211	0.939941	0.420000	7.070000	-0.420000	777.00	-0.14	-0.09	18.25	18.00	8.75	12.25	1.25	4.50	2.00	0.75	0.00	0.00	0.00	0.00	0.00	0.25	0.00	0.00	-0.104980	0.223633	0.947754	-1.050000	-1.400000	-0.140000	693.00	-0.31	-0.05
1.02	10.00	11.25	9.00	8.50	5.50	6.50	2.00	3.50	0.25	4.25	5.75	3.50	1.00	1.75	0.00	3.75	-0.186523	0.121582	0.950684	0.490000	6.930000	-0.490000	804.00	-0.13	-0.09	18.00	17.75	8.75	12.00	1.00	4.25	2.25	1.00	0.00	0.00	0.00	0.00	0.00	0.25	0.00	0.00	-0.099609	0.223145	0.933594	-3.360000	0.000000	-0.350000	688.00	-0.31	-0.05
1.03	10.75	11.75	8.75	8.75	5.50	6.75	2.00	4.00	0.50	4.25	6.00	3.50	1.25	1.25	0.25	4.00	-0.193848	0.105957	0.957520	0.980000	6.440000	-0.420000	835.00	-0.13	-0.09	17.50	17.50	8.50	12.00	1.00	4.25	2.25	0.75	0.00	0.00	0.00	0.00	0.00	0.25	0.00	0.00	-0.087402	0.226074	0.932129	-6.580000	2.100000	-0.490000	674.00	-0.31	-0.05
1.04	11.50	12.25	9.25	9.25	5.75	7.00	2.25	4.50	0.25	4.25	5.75	3.50	1.25	1.25	0.00	3.75	-0.190918	0.119141	0.950195	1.050000	5.950000	-0.350000	865.00	-0.14	-0.09	17.50	17.00	8.25	11.75	1.25	4.00	2.00	0.75	0.00	0.00	0.00	0.00	0.00	0.50	0.00	0.00	-0.091797	0.228516	0.927246	-10.150000	4.970000	-0.630000	662.00	-0.31	-0.05
1.05	12.00	12.50	9.25	9.50	6.00	7.75	2.25	5.00	0.25	4.50	5.75	3.50	1.50	1.25	0.00	4.00	-0.184570	0.114258	0.945801	0.560000	5.740000	-0.490000	900.00	-0.14	-0.09	17.00	16.75	8.25	11.50	1.25	4.00	2.25	1.00	0.00	0.00	0.00	0.00	0.00	0.25	0.00	0.00	-0.088867	0.221191	0.932617	-13.930000	7.840000	-0.840000	657.00	-0.31	-0.05
1.06	12.75	13.50	9.50	9.75	6.25	8.00	2.25	5.25	0.00	4.50	5.50	4.00	1.50	1.00	0.00	4.00	-0.187500	0.118652	0.945801	0.070000	5.670000	-0.700000	929.00	-0.15	-0.10	16.25	16.25	8.25	11.50	1.00	4.00	2.00	0.75	0.00	0.00	0.00	0.00	0.00	0.25	0.00	0.00	-0.096680	0.223145	0.937988	-17.780001	10.640000	-1.260000	634.00	-0.31	-0.05
1.07	13.50	14.50	10.00	10.50	6.75	8.50	2.25	5.50	0.25	4.25	5.75	3.75	1.50	1.50	0.25	4.00	-0.182617	0.118652	0.927246	-0.350000	5.320000	-0.770000	982.00	-0.15	-0.10	15.50	15.75	8.00	11.00	1.25	3.50	2.25	1.00	0.00	0.00	0.00	0.00	0.00	0.50	0.25	0.00	-0.101562	0.219238	0.933105	-21.840000	13.440001	-1.820000	623.00	-0.30	-0.05
1.08	14.50	15.50	10.25	11.25	7.25	9.25	2.50	5.75	0.25	4.50	6.00	3.75	2.00	1.25	0.25	4.25	-0.173340	0.122070	0.932617	-1.120000	5.180000	-0.910000	1042.00	-0.15	-0.10	15.00	15.00	7.75	10.75	1.00	3.25	2.00	0.75	0.00	0.00	0.00	0.00	0.00	0.25	0.00	0.00	-0.091309	0.218262	0.914551	-26.880001	17.150000	-2.870000	588.00	-0.31	-0.05
1.09	15.25	16.75	11.00	11.75	7.75	9.75	2.50	6.00	0.75	4.50	6.00	3.75	1.75	1.75	0.25	4.25	-0.201172	0.116699	0.954102	-2.030000	5.390000	-1.400000	1099.00	-0.15	-0.09	14.00	14.25	7.50	10.50	1.00	3.00	2.25	0.75	0.00	0.00	0.00	0.00	0.00	0.50	0.25	0.00	-0.092773	0.214355	0.915527	-32.970001	21.350000	-4.340000	571.00	-0.30	-0.05
1.10	16.25	18.00	11.50	12.50	8.25	10.50	2.50	6.50	0.75	4.50	6.00	3.75	2.25	1.50	0.25	4.25	-0.193359	0.115723	0.956055	-2.590000	5.250000	-1.540000	1158.00	-0.16	-0.10	12.75	13.25	7.25	10.00	1.00	2.75	2.25	0.75	0.00	0.00	0.00	0.00	0.00	0.25	0.00	0.00	-0.104004	0.209473	0.920898	-39.689999	25.969999	-6.020000	533.00	-0.30	-0.05
1.11	17.25	18.50	12.00	13.50	9.00	11.25	2.75	6.75	0.50	4.75	6.00	4.00	2.50	1.75	0.25	4.25	-0.181641	0.120117	0.964355	-3.080000	5.110000	-1.470000	1220.00	-0.16	-0.10	10.75	12.00	6.25	9.50	1.00	2.00	2.25	1.00	0.00	0.00	0.00	0.00	0.00	0.25	0.25	0.00	-0.110840	0.192383	0.941895	-46.130001	30.100000	-8.260000	482.00	-0.29	-0.05
1.12	18.50	19.75	12.50	14.00	9.50	12.00	2.75	7.25	0.75	4.50	6.00	4.00	2.50	1.75	0.25	4.25	-0.179199	0.120605	0.955078	-3.710000	5.110000	-1.470000	1277.00	-0.16	-0.10	9.00	10.50	5.50	8.75	1.00	1.75	2.25	0.75	0.00	0.00	0.00	0.00	0.00	0.50	0.25	0.00	-0.116211	0.170898	0.941895	-51.730000	33.880001	-10.710000	430.00	-0.28	-0.05
1.13	18.50	20.50	12.75	15.00	10.00	13.00	3.00	7.50	0.50	4.75	6.25	4.00	3.00	2.25	0.25	4.50	-0.161621	0.107910	0.951172	-4.200000	5.740000	-1.680000	1334.00	-0.16	-0.10	7.25	8.75	5.00	8.00	0.75	1.25	2.25	0.75	0.00	0.00	0.00	0.00	0.25	0.50	0.00	0.00	-0.134277	0.165527	0.993652	-55.860001	36.400002	-13.580000	373.00	-0.27	-0.05
1.14	18.75	21.00	13.25	15.25	10.75	13.25	3.00	7.75	0.75	4.75	6.50	4.50	3.00	2.25	0.50	4.50	-0.172363	0.114746	0.963867	-4.900000	7.700000	-1.960000	1378.00	-0.16	-0.10	5.25	6.75	3.50	6.50	0.75	1.00	2.25	0.75	0.00	0.00	0.00	0.00	0.00	0.50	0.25	0.00	-0.153320	0.167480	1.005371	-57.400002	35.770000	-16.660000	298.00	-0.25	-0.05
1.15	19.25	21.00	13.25	15.50	11.25	13.75	3.25	8.25	1.00	4.75	6.75	4.50	3.25	2.25	0.50	4.75	-0.175293	0.115234	0.965820	-5.250000	9.450000	-2.310000	1418.00	-0.15	-0.10	3.50	5.25	2.50	5.25	0.50	0.75	2.25	0.75	0.00	0.00	0.00	0.00	0.00	0.50	0.25	0.00	-0.090820	0.176270	0.962402	-59.360001	37.799999	-19.530001	236.00	-0.23	-0.05
1.16	19.25	20.75	13.25	15.75	11.50	14.25	3.25	8.50	0.75	5.00	6.50	4.75	3.75	2.25	0.50	4.50	-0.182129	0.116211	0.965332	-5.320000	10.920000	-2.590000	1432.00	-0.15	-0.10	2.25	3.75	1.75	4.50	0.25	0.75	2.25	0.50	0.00	0.00	0.00	0.00	0.00	0.25	0.00	0.00	-0.318359	0.153809	1.005371	-57.540001	34.720001	-24.639999	181.00	-0.23	-0.05
1.17	18.75	20.50	13.25	15.50	12.00	14.75	3.50	8.75	1.25	5.50	6.75	5.25	4.00	2.50	0.50	4.75	-0.164551	0.128418	0.970703	-5.320000	12.390000	-2.450000	1466.00	-0.14	-0.10	1.75	3.25	1.50	4.00	0.25	0.50	2.25	0.00	0.00	0.00	0.00	0.00	0.25	0.50	0.25	0.00	-0.143555	0.125000	1.247070	-39.060001	43.610001	-43.610001	160.00	-0.20	-0.03
1.18	18.25	19.50	13.00	15.25	11.75	14.50	3.75	9.00	0.75	5.75	6.75	5.50	4.50	2.75	0.50	4.75	-0.172363	0.109863	0.943848	-5.320000	14.000000	-2.520000	1453.00	-0.14	-0.10	1.50	2.75	1.50	2.75	0.25	0.50	2.25	0.25	0.00	0.00	0.00	0.00	0.00	0.50	0.00	0.00	-0.272949	0.245605	1.311035	-12.670000	122.290001	-90.230003	138.00	-0.19	-0.01
1.19	17.25	19.25	12.50	14.75	12.00	14.50	3.75	9.00	1.50	6.00	7.25	6.00	5.25	2.75	0.50	5.25	-0.189453	0.120605	0.975098	-5.180000	15.610000	-2.310000	1464.00	-0.13	-0.10	1.50	2.25	1.50	2.00	0.25	0.50	2.25	0.25	0.00	0.00	0.00	0.00	0.00	0.50	0.00	0.00	-0.267578	0.380371	1.186035	-28.840000	150.500000	-100.449997	125.00	-0.18	0.01
1.20	16.50	18.25	12.25	14.25	12.00	14.50	4.00	9.25	1.25	6.25	7.50	6.25	5.50	3.25	0.75	5.00	-0.195801	0.113281	0.964844	-4.550000	17.010000	-2.450000	1459.00	-0.12	-0.11	1.00	2.00	1.00	1.75	0.25	0.00	2.00	0.00	0.00	0.00	0.00	0.00	0.00	0.00	0.00	0.00	0.094238	0.694824	1.662598	-63.139999	157.360001	-102.410004	92.00	-0.20	0.02
1.21	15.25	17.25	11.75	14.25	12.00	14.25	4.00	9.50	1.50	6.50	7.75	7.00	5.75	3.00	0.75	5.00	-0.198730	0.118652	0.971680	-1.960000	18.480000	-2.450000	1449.00	-0.11	-0.11	1.00	2.00	1.00	1.75	0.25	0.00	2.00	0.00	0.00	0.00	0.00	0.00	0.00	0.00	0.00	0.00	1.212891	1.306641	1.979980	-99.330002	131.320007	-96.180000	92.00	-0.20	0.02
1.22	14.00	15.50	11.25	13.00	11.75	14.00	4.00	9.50	2.00	7.00	7.75	7.25	6.25	3.50	0.75	5.00	-0.197754	0.112305	0.959473	-1.190000	19.040001	-2.520000	1418.00	-0.10	-0.11	1.00	1.50	0.75	1.75	0.00	0.00	2.00	0.00	0.00	0.00	0.00	0.00	0.00	0.25	0.00	0.00	1.612793	1.645508	1.804199	-62.930000	86.660004	-64.610001	84.00	-0.17	0.04
1.23	12.75	14.25	10.50	12.25	11.50	13.75	4.25	9.50	2.50	7.50	8.00	7.50	6.50	3.75	0.75	5.25	-0.189453	0.117676	0.956055	-1.050000	19.460001	-2.590000	1398.00	-0.08	-0.11	0.75	1.25	0.50	1.50	0.00	0.00	2.00	0.00	0.00	0.00	0.00	0.00	0.00	0.00	0.25	0.00	1.605469	1.461914	1.242188	-41.580002	53.689999	-28.910000	74.00	-0.14	0.04
1.24	11.25	12.50	10.00	11.00	11.00	13.50	4.25	9.75	2.25	7.25	8.25	7.75	6.75	4.25	1.00	5.50	-0.198730	0.117188	0.964844	-0.980000	19.879999	-2.870000	1353.00	-0.07	-0.11	0.75	1.25	0.75	1.25	0.00	0.00	2.00	0.00	0.00	0.00	0.00	0.00	0.00	0.00	0.25	0.00	1.717285	1.561035	1.051270	-26.670000	39.619999	5.880000	74.00	-0.14	0.05
1.25	9.75	10.75	9.50	10.25	10.75	13.25	4.25	9.75	2.75	7.50	8.50	8.00	7.00	4.25	1.00	5.50	-0.205078	0.115234	0.960449	-0.840000	19.879999	-3.150000	1318.00	-0.05	-0.11	0.75	1.25	0.75	1.00	0.00	0.00	2.00	0.00	0.00	0.00	0.00	0.00	0.00	0.00	0.00	0.00	1.838379	1.483398	1.184082	1.540000	22.820000	37.310001	69.00	-0.16	0.07
1.26	8.50	9.50	9.00	9.50	10.25	12.75	4.25	9.75	3.00	7.75	8.75	8.25	7.50	4.75	1.00	5.50	-0.210449	0.115723	0.962402	-0.770000	19.670000	-3.570000	1289.00	-0.04	-0.11	0.75	1.25	0.75	1.50	0.25	0.00	2.00	0.00	0.00	0.00	0.00	0.00	0.00	0.25	0.00	0.00	1.883789	1.213379	1.228516	24.639999	-0.560000	62.439999	79.00	-0.15	0.05
1.27	7.50	8.25	8.50	8.50	10.00	12.50	4.50	9.75	3.50	8.00	9.00	8.50	7.50	5.00	1.00	5.75	-0.215820	0.114746	0.947266	-0.490000	19.180000	-3.850000	1267.00	-0.02	-0.11	0.75	1.50	0.25	0.75	0.00	0.00	2.00	0.00	0.00	0.00	0.00	0.00	0.00	0.00	0.00	0.00	1.847168	1.018555	1.250000	40.740002	-25.969999	79.519997	63.00	-0.15	0.07
1.28	6.75	7.50	7.75	8.25	9.50	12.00	4.50	9.75	4.00	8.25	9.25	9.00	7.50	5.00	1.00	5.75	-0.209473	0.114258	0.951660	-0.490000	19.180000	-4.270000	1247.00	-0.01	-0.11	0.75	1.50	0.50	0.75	0.00	0.00	2.00	0.00	0.00	0.00	0.00	0.00	0.00	0.25	0.00	0.00	1.766602	0.791504	1.295410	56.910000	-52.080002	89.389999	68.00	-0.14	0.07
1.29	6.00	6.50	7.50	7.50	9.00	11.75	4.50	9.75	4.00	8.25	9.75	9.25	7.75	5.25	1.25	5.75	-0.215820	0.117676	0.955078	-0.910000	19.530001	-4.830000	1225.00	-0.00	-0.11	0.75	1.25	0.50	0.00	0.00	0.00	2.00	0.00	0.00	0.00	0.00	0.00	0.00	0.00	0.00	0.00	1.652832	0.567871	1.366699	66.080002	-77.559998	95.059998	55.00	-0.13	0.12
1.30	5.25	6.00	7.00	6.75	8.50	11.00	4.75	9.75	4.50	8.75	10.00	9.75	8.00	5.50	1.50	6.00	-0.209473	0.111816	0.954102	-0.980000	19.809999	-5.530000	1217.00	0.02	-0.11	0.75	1.00	0.50	0.50	0.00	0.00	2.00	0.00	0.00	0.00	0.00	0.00	0.00	0.00	0.00	0.00	1.520020	0.418945	1.489258	67.900002	-103.739998	97.370003	58.00	-0.13	0.10
1.31	4.50	5.50	6.50	6.25	8.25	10.75	4.75	9.75	4.75	8.75	10.25	10.00	8.25	6.25	1.50	6.00	-0.214355	0.117676	0.946777	-1.120000	19.740000	-5.950000	1206.00	0.03	-0.11	0.50	1.25	0.50	0.75	0.00	0.00	2.00	0.00	0.00	0.00	0.00	0.00	0.00	0.00	0.00	0.00	1.346680	0.289551	1.556152	66.919998	-130.899994	96.389999	61.00	-0.14	0.08
1.32	3.75	5.00	6.00	5.75	7.75	10.50	4.75	9.75	5.25	9.00	10.75	10.50	8.50	6.75	1.50	6.25	-0.220703	0.114258	0.954102	-0.980000	19.460001	-6.090000	1201.00	0.04	-0.11	0.50	1.00	0.50	0.50	0.00	0.00	2.00	0.00	0.00	0.00	0.00	0.00	0.00	0.00	0.00	0.00	1.134766	0.196289	1.564453	65.449997	-156.240005	92.889999	56.00	-0.12	0.10
1.33	3.25	4.25	5.50	5.25	7.50	10.00	5.00	9.75	5.25	9.50	11.00	10.75	8.50	7.50	1.75	6.25	-0.231934	0.117188	0.958008	-0.700000	19.670000	-6.370000	1193.00	0.05	-0.11	0.50	1.00	0.25	0.50	0.00	0.00	2.00	0.00	0.00	0.00	0.00	0.00	0.00	0.00	0.00	0.00	0.919922	0.166504	1.583496	63.630001	-177.309998	88.550003	53.00	-0.11	0.10
1.34	2.75	4.00	5.00	5.00	6.75	9.75	5.00	9.75	6.25	9.50	11.50	11.25	8.75	7.50	1.75	6.25	-0.215820	0.112305	0.954102	-0.210000	20.160000	-6.790000	1192.00	0.06	-0.11	0.75	0.75	0.25	0.50	0.00	0.00	2.00	0.00	0.00	0.00	0.00	0.00	0.00	0.00	0.00	0.00	0.702148	0.167969	1.625977	61.810001	-195.229996	85.330002	53.00	-0.11	0.11
1.35	2.25	3.00	4.75	5.00	6.50	9.50	5.00	9.75	7.00	9.75	11.75	11.50	9.25	8.25	2.00	6.50	-0.231445	0.112793	0.945801	-0.070000	20.790001	-7.210000	1202.00	0.08	-0.11	0.25	1.00	0.25	0.50	0.00	0.00	2.00	0.00	0.00	0.00	0.00	0.00	0.00	0.00	0.00	0.00	0.477539	0.187012	1.642090	58.730000	-210.000000	83.720001	50.00	-0.09	0.10
1.36	2.00	3.00	4.25	4.25	6.00	9.25	5.00	9.75	7.50	10.25	12.25	12.25	9.25	8.50	2.00	6.50	-0.233398	0.106445	0.947266	-0.210000	21.629999	-7.350000	1205.00	0.09	-0.11	0.50	0.75	0.25	0.25	0.00	0.00	2.00	0.00	0.00	0.00	0.00	0.00	0.00	0.00	0.00	0.00	0.243164	0.237305	1.640625	56.209999	-220.220001	84.209999	48.00	0.00	0.00
1.37	1.75	2.50	3.50	4.00	5.50	9.25	5.00	9.75	8.00	10.50	12.75	12.75	9.75	9.00	2.25	6.75	-0.237305	0.113770	0.941406	0.070000	22.540001	-7.560000	1213.00	0.10	-0.11	0.25	0.75	0.00	0.25	0.00	0.00	2.00	0.00	0.00	0.00	0.00	0.00	0.00	0.00	0.00	0.00	0.019531	0.265137	1.606934	54.810001	-225.330002	87.080002	43.00	0.00	0.00
1.38	1.25	2.00	3.00	3.75	5.00	8.75	5.25	9.75	8.25	10.75	13.25	13.25	10.00	9.25	2.50	7.00	-0.241211	0.110840	0.941895	1.260000	23.450001	-7.630000	1212.00	0.11	-0.11	0.00	1.00	0.25	0.75	0.00	0.00	2.25	0.00	0.00	0.00	0.00	0.00	0.00	0.00	0.00	0.00	-0.367188	0.289551	1.554199	53.480000	-220.500000	96.040001	54.00	-0.08	0.09
1.39	0.75	2.00	2.50	3.00	4.50	8.75	5.25	10.00	8.50	11.25	13.75	14.00	10.50	9.75	2.75	7.25	-0.240723	0.112305	0.942383	2.240000	24.920000	-7.700000	1226.00	0.12	-0.11	0.50	0.75	0.25	0.50	0.00	0.00	2.00	0.00	0.00	0.00	0.00	0.00	0.00	0.25	0.00	0.00	-0.500000	0.230957	1.569336	53.970001	-215.389999	100.870003	53.00	-0.08	0.12
1.40	0.75	1.75	2.50	3.25	3.75	8.50	5.25	9.75	8.75	11.50	14.50	14.50	11.00	10.25	3.00	7.50	-0.236816	0.112305	0.938477	3.500000	26.809999	-7.980000	1243.00	0.13	-0.11	0.25	1.00	0.25	0.50	0.00	0.00	2.00	0.00	0.00	0.00	0.00	0.00	0.00	0.00	0.00	0.00	-0.607422	0.163086	1.503906	49.840000	-209.649994	104.720001	50.00	-0.09	0.10
1.41	1.00	1.50	1.50	2.75	3.25	8.25	5.25	9.75	9.25	12.00	15.25	15.50	11.25	10.75	3.00	7.50	-0.255859	0.117188	0.945312	9.730000	30.170000	-8.400000	1255.00	0.14	-0.11	0.25	1.00	0.50	0.25	0.00	0.00	2.25	0.00	0.00	0.00	0.00	0.00	0.00	0.25	0.00	0.00	-0.694824	0.124512	1.410156	44.520000	-202.229996	105.489998	56.00	-0.06	0.13
1.42	0.75	1.25	2.00	2.75	2.75	7.75	5.25	9.75	9.50	12.25	15.75	16.00	12.00	11.50	3.75	7.75	-0.264648	0.116211	0.942383	8.750000	33.740002	-9.310000	1284.00	0.15	-0.11	0.50	0.75	0.00	0.50	0.00	0.00	2.00	0.00	0.00	0.00	0.00	0.00	0.00	0.00	0.00	0.00	-0.780273	0.091797	1.338867	40.950001	-192.570007	103.040001	48.00	0.00	0.00
1.43	0.50	1.25	1.75	2.50	2.25	7.50	5.25	9.75	10.00	13.00	16.50	17.00	12.25	12.25	4.25	8.00	-0.263672	0.117676	0.944336	10.290000	35.630001	-10.080000	1315.00	0.16	-0.11	0.25	0.75	0.25	0.50	0.00	0.00	2.00	0.00	0.00	0.00	0.00	0.00	0.00	0.00	0.00	0.00	-0.839355	0.071289	1.267578	36.959999	-182.139999	99.190002	48.00	0.00	0.00
1.44	0.25	0.75	1.50	2.00	2.00	7.25	5.25	9.75	10.50	13.50	17.25	17.75	12.75	13.00	5.00	8.50	-0.268555	0.115234	0.925293	12.180000	38.009998	-11.340000	1343.00	0.17	-0.11	0.25	0.50	0.00	0.25	0.00	0.00	2.25	0.00	0.00	0.00	0.00	0.00	0.00	0.00	0.00	0.00	-0.879395	0.068359	1.191895	33.389999	-171.779999	95.830002	44.00	0.00	0.00
1.45	0.25	1.00	1.25	2.25	1.50	6.75	5.25	10.00	10.50	14.00	17.75	18.50	13.00	13.75	5.50	8.75	-0.262695	0.139648	0.944336	13.370000	41.090000	-12.950000	1372.00	0.17	-0.11	0.50	1.00	0.25	0.25	0.00	0.00	2.00	0.00	0.00	0.00	0.00	0.00	0.00	0.00	0.00	0.00	-0.892578	0.072754	1.109863	29.120001	-161.350006	94.220001	50.00	-0.10	0.12
1.46	0.25	1.00	1.00	2.00	1.25	6.50	5.25	9.75	11.00	14.75	18.75	19.50	13.75	15.00	6.00	9.00	-0.276855	0.142090	0.943848	14.350000	44.450001	-15.260000	1416.00	0.18	-0.11	0.50	0.25	0.50	0.50	0.00	0.00	2.00	0.00	0.00	0.00	0.00	0.00	0.00	0.00	0.00	0.00	-0.951172	0.099609	1.038086	26.389999	-150.220001	93.449997	49.00	0.00	0.00
1.47	0.00	1.00	0.50	2.00	1.00	6.00	5.00	9.50	11.50	15.25	19.50	20.00	14.25	16.00	6.50	9.50	-0.286133	0.142090	0.951660	15.050000	48.509998	-17.010000	1438.00	0.19	-0.10	0.25	0.75	0.25	0.50	0.00	0.00	2.00	0.00	0.00	0.00	0.00	0.00	0.00	0.00	0.00	0.00	-1.057129	0.017090	0.908691	27.370001	-138.180008	90.580002	48.00	0.00	0.00
1.48	0.00	0.50	0.75	1.75	0.50	5.50	5.00	9.50	12.00	15.75	20.25	20.50	14.50	17.00	7.25	10.00	-0.291992	0.145508	0.965332	16.590000	54.320000	-18.480000	1469.00	0.20	-0.10	0.50	1.00	0.25	0.50	0.00	0.00	2.00	0.00	0.00	0.00	0.00	0.00	0.00	0.00	0.00	0.00	-1.144043	-0.039551	0.832520	25.969999	-123.059998	84.910004	53.00	-0.11	0.10
1.49	0.00	0.50	0.50	1.50	0.50	5.25	5.00	9.00	12.50	16.25	20.75	21.25	14.75	18.25	7.75	10.25	-0.302246	0.134766	0.947754	19.809999	63.420002	-19.460001	1497.00	0.20	-0.10	0.50	0.50	0.25	0.25	0.00	0.00	2.00	0.00	0.00	0.00	0.00	0.00	0.00	0.00	0.00	0.00	-1.202637	-0.028320	0.847168	23.100000	-107.800003	77.349998	46.00	0.00	0.00
1.50	0.00	0.00	0.50	1.00	0.50	4.50	4.50	8.75	12.75	16.75	21.50	21.75	15.00	19.50	8.25	10.75	-0.314453	0.155273	0.973633	24.150000	73.779999	-20.160000	1510.00	0.21	-0.10	0.25	0.75	0.25	0.25	0.00	0.00	2.25	0.00	0.00	0.00	0.00	0.00	0.00	0.00	0.00	0.00	-1.269043	-0.047363	0.781738	18.340000	-93.309998	69.300003	49.00	0.00	0.00
1.51	0.25	0.25	0.25	1.00	0.25	4.00	4.25	8.50	13.00	17.25	21.75	22.25	14.75	20.75	8.75	11.00	-0.334961	0.162109	0.985840	29.540001	87.779999	-22.190001	1528.00	0.22	-0.09	0.50	0.50	0.25	0.50	0.00	0.00	2.00	0.00	0.00	0.00	0.00	0.00	0.00	0.00	0.00	0.00	-1.324219	-0.003906	0.678223	12.390000	-76.440002	60.760002	48.00	0.00	0.00
1.52	0.00	0.00	0.00	0.75	0.00	3.25	3.50	8.00	13.25	17.75	22.25	22.25	14.75	21.75	9.50	11.50	-0.330566	0.170410	0.991211	34.650002	103.949997	-25.969999	1520.00	0.23	-0.09	0.50	0.50	0.00	0.50	0.00	0.00	2.00	0.00	0.00	0.00	0.00	0.00	0.00	0.00	0.00	0.00	-1.335938	0.041016	0.629883	9.450000	-58.029999	53.270000	46.00	0.00	0.00
1.53	0.00	0.00	0.00	0.50	0.00	3.00	3.00	7.50	13.50	18.00	22.25	22.00	14.50	23.00	10.00	11.50	-0.369629	0.175293	0.981445	38.009998	120.260002	-30.309999	1516.00	0.23	-0.09	0.50	0.75	0.25	0.50	0.00	0.00	2.00	0.25	0.00	0.00	0.00	0.00	0.00	0.00	0.00	0.00	-1.327148	0.079590	0.609375	7.210000	-38.990002	48.160000	54.00	-0.09	0.08
1.54	0.00	0.00	0.00	0.25	0.00	2.25	2.50	7.00	13.50	18.25	22.75	21.75	13.75	24.25	11.00	12.00	-0.419922	0.207031	0.974609	36.610001	137.899994	-34.580002	1513.00	0.24	-0.08	0.25	0.75	0.00	0.25	0.00	0.00	2.00	0.00	0.00	0.00	0.00	0.00	0.00	0.25	0.00	0.00	-1.313965	0.071777	0.620605	5.950000	-20.510000	44.380001	45.00	0.00	0.00
1.55	0.00	0.00	0.00	0.50	0.00	1.75	2.00	6.50	13.75	18.25	22.50	21.50	13.25	25.25	11.25	11.75	-0.452637	0.209961	0.998047	30.940001	158.830002	-39.060001	1499.00	0.25	-0.08	0.25	1.00	0.25	0.50	0.00	0.00	2.00	0.00	0.00	0.00	0.00	0.00	0.00	0.00	0.00	0.00	-1.283691	0.038086	0.604004	4.270000	-2.590000	41.090000	50.00	-0.09	0.10
1.56	0.00	0.00	0.00	0.00	0.00	1.50	1.25	5.75	13.75	18.50	22.25	21.00	12.50	26.00	11.75	11.75	-0.502441	0.495605	0.985352	29.260000	181.300003	-43.049999	1467.00	0.25	-0.07	0.25	1.00	0.00	0.50	0.00	0.00	2.00	0.00	0.00	0.00	0.00	0.00	0.00	0.00	0.00	0.00	-1.268555	-0.013184	0.630371	2.310000	14.980000	37.310001	48.00	0.00	0.00
1.57	0.00	0.00	0.00	0.00	0.00	1.00	1.00	5.50	13.75	18.50	21.75	20.50	11.25	26.75	12.00	11.75	-0.474121	0.186523	0.988281	17.360001	199.779999	-47.180000	1442.00	0.26	-0.07	0.50	0.75	0.25	0.50	0.00	0.00	2.00	0.00	0.00	0.00	0.00	0.00	0.00	0.00	0.00	0.00	-1.249023	-0.062012	0.672363	-2.450000	31.920000	33.040001	51.00	-0.10	0.11
1.58	0.00	0.00	0.00	0.00	0.00	0.25	0.75	5.00	14.00	18.25	21.75	19.50	10.25	27.50	12.50	11.50	-0.478027	0.185059	1.091309	-1.610000	216.369995	-50.470001	1414.00	0.26	-0.06	0.25	0.50	0.25	0.25	0.00	0.00	2.00	0.00	0.00	0.00	0.00	0.00	0.00	0.00	0.00	0.00	-1.289551	-0.139160	0.642090	-17.990000	66.639999	21.139999	43.00	0.00	0.00
1.59	0.00	0.00	0.00	0.00	0.00	0.00	0.50	4.75	14.25	18.50	21.25	18.75	9.00	28.00	12.25	11.50	-0.546387	0.192383	1.040527	-18.549999	234.850006	-53.549999	1387.00	0.27	-0.05	0.25	1.00	0.50	0.50	0.00	0.00	2.00	0.00	0.00	0.00	0.00	0.00	0.00	0.00	0.00	0.00	-1.354492	-0.123047	0.698730	-28.210001	84.980003	12.740000	53.00	-0.10	0.10
1.60	0.00	0.00	0.00	0.00	0.00	0.00	0.50	4.00	14.75	18.50	20.75	17.50	8.00	28.00	12.00	11.00	-0.656250	0.180176	1.032227	-29.540001	255.919998	-58.730000	1350.00	0.27	-0.04	0.25	0.50	0.00	0.25	0.00	0.00	2.00	0.00	0.00	0.00	0.00	0.00	0.00	0.00	0.00	0.00	-1.382812	-0.053223	0.786621	-32.759998	99.889999	3.850000	40.00	0.00	0.00
1.61	0.00	0.00	0.00	0.00	0.00	0.00	0.50	3.50	15.00	18.25	20.25	16.25	7.00	28.00	11.50	10.75	-0.623047	0.135254	0.745605	-38.779999	278.739990	-63.420002	1309.00	0.27	-0.03	0.75	1.25	0.25	0.75	0.00	0.00	2.00	0.00	0.00	0.00	0.00	0.00	0.00	0.00	0.00	0.00	6.041992	2.176758	2.065918	-21.280001	148.539993	-20.860001	61.00	-0.14	0.08
1.62	0.00	0.00	0.00	0.00	0.00	0.00	0.50	3.00	15.00	18.25	19.75	15.25	6.00	27.75	11.25	10.50	-0.706543	0.181641	0.773926	-50.400002	303.380005	-65.239998	1271.00	0.28	-0.02	1.25	2.75	0.50	1.25	0.00	0.00	2.00	0.00	0.00	0.00	0.00	0.00	0.00	0.00	0.00	0.00	1.880859	0.977051	2.855957	14.630000	60.200001	-24.850000	88.00	-0.21	0.02
1.63	0.00	0.00	0.00	0.00	0.00	0.00	0.75	2.50	14.75	18.00	19.00	13.50	5.25	27.25	10.50	10.00	-0.832520	0.187988	0.814941	-62.860001	345.380005	-72.379997	1214.00	0.28	-0.02	2.75	4.50	1.00	2.25	0.00	0.00	2.00	0.00	0.00	0.00	0.00	0.00	0.00	0.00	0.00	0.00	0.048340	0.088867	-0.957520	-0.140000	26.600000	-27.020000	136.00	-0.27	-0.01
1.64	0.00	0.00	0.00	0.00	0.00	0.00	0.75	2.25	14.50	17.25	18.00	12.25	4.75	27.00	9.75	9.50	-1.110352	0.165527	1.099609	-58.310001	363.579987	-75.949997	1158.00	0.28	-0.01	3.75	5.75	1.50	2.75	0.00	0.00	2.00	0.00	0.00	0.00	0.00	0.00	0.00	0.00	0.00	0.00	-0.114258	0.569824	0.902832	-7.070000	102.410004	-30.660000	169.00	-0.29	-0.01
1.65	0.00	0.00	0.00	0.00	0.00	0.00	1.00	1.75	13.50	16.50	16.75	11.00	3.75	26.50	9.75	9.25	-1.243164	0.172363	1.373047	-56.420002	376.179993	-75.669998	1093.00	0.28	-0.00	6.00	8.00	1.75	3.50	0.00	0.00	2.00	0.00	0.00	0.00	0.00	0.00	0.00	0.00	0.00	0.00	0.164551	0.697266	1.786621	-1.330000	109.199997	-11.970000	224.00	-0.31	-0.02
1.66	0.00	0.00	0.00	0.00	0.00	0.00	1.25	1.00	12.00	15.25	15.00	9.50	3.00	26.00	9.00	8.75	-1.452637	0.279785	1.561035	-39.130001	380.799988	-69.160004	997.00	0.29	0.01	8.25	10.00	2.00	4.50	0.00	0.00	2.00	0.00	0.00	0.00	0.00	0.00	0.00	0.00	0.00	0.00	0.144043	0.086426	0.620605	-4.690000	99.330002	-1.890000	279.00	-0.32	-0.03
1.67	0.00	0.00	0.00	0.00	0.00	0.00	1.25	0.50	10.25	13.50	13.00	8.25	2.50	25.25	8.75	8.00	-1.564941	0.320801	1.750000	-11.690000	388.429993	-61.180000	897.00	0.29	0.01	10.00	12.00	2.50	5.25	0.00	0.00	2.00	0.00	0.00	0.00	0.00	0.00	0.00	0.00	0.00	0.00	0.189941	0.110840	0.947754	-11.550000	118.300003	-8.400000	330.00	-0.33	-0.03
1.68	0.00	0.00	0.00	0.00	0.00	0.00	1.25	0.25	8.75	12.00	11.00	7.50	1.75	23.75	7.75	7.00	-1.613281	0.501465	2.000000	16.520000	390.459991	-56.279999	793.00	0.30	0.02	12.25	13.75	2.75	5.50	0.00	0.00	2.00	0.00	0.00	0.00	0.00	0.00	0.00	0.00	0.00	0.00	0.117676	0.136719	1.305176	-5.530000	119.349998	-9.310000	375.00	-0.34	-0.03
1.69	0.00	0.00	0.00	0.00	0.00	0.00	1.25	0.00	7.50	10.25	9.50	6.25	1.50	21.00	6.50	6.25	-1.291504	0.523926	1.934570	58.660000	407.679993	-53.900002	683.00	0.30	0.02	15.25	16.00	3.75	6.25	0.00	0.00	1.75	0.00	0.00	0.00	0.00	0.00	0.00	0.00	0.00	0.00	-0.000000	-0.126465	1.152832	-6.930000	114.309998	-15.470000	442.00	-0.35	-0.03
1.70	0.00	0.00	0.00	0.00	0.00	0.00	1.00	0.00	5.50	9.25	8.50	6.00	1.00	17.50	5.75	5.75	-1.657715	0.454590	2.175293	104.860001	407.959991	-61.740002	585.00	0.30	0.01	17.00	17.75	4.00	7.00	0.00	0.00	1.75	0.00	0.00	0.00	0.00	0.00	0.00	0.00	0.00	0.00	0.160156	0.165039	0.972168	-5.810000	121.449997	-25.760000	487.00	-0.35	-0.03
1.71	0.00	0.00	0.00	0.00	0.00	0.00	1.00	0.00	3.75	8.25	7.75	5.25	1.00	14.50	4.25	5.00	-1.624023	0.660645	2.672852	164.639999	395.220001	-73.849998	491.00	0.29	0.01	19.00	19.50	4.75	8.00	0.00	0.00	2.00	0.00	0.00	0.00	0.00	0.00	0.00	0.00	0.00	0.00	0.052246	0.401855	1.026367	-0.980000	126.910004	-26.530001	547.00	-0.35	-0.03
1.72	0.00	0.00	0.00	0.00	0.00	0.00	0.75	0.00	2.25	7.75	7.25	5.25	0.75	11.50	2.50	4.50	-0.672852	0.544434	1.698730	214.270004	399.769989	-87.430000	408.00	0.29	-0.01	21.25	21.25	5.25	8.75	0.00	0.00	1.75	0.00	0.00	0.00	0.00	0.00	0.00	0.00	0.00	0.00	0.009277	0.433105	1.013184	4.200000	133.770004	-18.690001	597.00	-0.35	-0.03
1.73	0.00	0.00	0.00	0.00	0.00	0.00	0.75	0.00	1.50	7.00	6.75	4.50	0.25	8.50	1.75	4.00	-0.093750	0.472656	2.208984	202.229996	397.880005	-115.919998	337.00	0.28	-0.02	22.00	22.50	6.25	9.50	0.00	0.00	1.75	0.00	0.00	0.00	0.00	0.00	0.00	0.00	0.00	0.00	0.010254	0.323242	1.029297	6.370000	141.470001	-11.340000	635.00	-0.35	-0.03
1.74	0.00	0.00	0.00	0.00	0.00	0.00	0.75	0.00	1.50	6.25	6.50	4.50	0.00	5.25	0.50	3.75	0.007812	0.651367	2.572266	198.449997	369.320007	-151.479996	282.00	0.27	-0.03	23.25	23.50	7.00	10.00	0.00	0.00	1.75	0.00	0.00	0.00	0.00	0.00	0.00	0.00	0.00	0.00	-0.000000	0.195801	1.033691	7.000000	147.419998	-9.380000	671.00	-0.35	-0.03
1.75	0.00	0.75	0.00	0.00	0.00	0.00	1.00	0.00	0.75	5.50	6.50	4.25	0.00	2.75	0.75	4.00	0.225586	0.239746	2.223145	193.550003	326.549988	-184.100006	255.00	0.24	-0.06	24.25	24.50	7.50	10.75	0.00	0.25	1.75	0.00	0.00	0.00	0.00	0.00	0.00	0.00	0.00	0.00	-0.029297	0.102539	1.153809	7.210000	150.220001	-12.740000	707.00	-0.35	-0.03
1.76	0.00	0.00	0.00	0.00	0.00	0.00	1.00	0.00	1.00	5.75	6.25	3.75	0.00	2.00	0.50	3.75	2.900391	1.889648	2.088867	129.639999	266.839996	-189.630005	236.00	0.25	-0.05	25.75	25.25	8.50	12.00	0.25	0.50	2.00	0.00	0.00	0.00	0.00	0.00	0.00	0.00	0.00	0.00	-0.076172	0.159668	1.229980	10.220000	151.410004	-19.040001	764.00	-0.35	-0.03
1.77	0.00	0.00	0.00	0.00	0.00	0.00	1.00	0.00	0.75	5.50	6.00	3.75	0.00	2.00	0.25	3.75	0.260742	1.484375	6.282715	17.780001	24.219999	-78.190002	225.00	0.25	-0.06	26.75	26.25	9.00	12.75	0.25	1.50	1.75	0.25	0.00	0.00	0.00	0.00	0.00	0.00	0.00	0.00	-0.112793	0.235352	1.270508	14.840000	147.839996	-23.660000	808.00	-0.35	-0.04
1.78	0.00	0.00	0.00	0.00	0.00	0.00	1.00	0.00	0.50	5.50	6.00	3.00	0.00	1.25	0.00	3.75	1.049316	0.812500	3.030273	-57.750000	-176.820007	16.940001	205.00	0.24	-0.06	27.50	26.75	10.00	13.75	0.75	2.50	2.00	0.75	0.00	0.00	0.00	0.00	0.00	0.00	0.00	0.00	-0.295410	0.478027	1.549805	1.960000	128.869995	-24.570000	870.00	-0.34	-0.04
1.79	0.00	0.00	0.00	0.00	0.00	0.00	1.00	0.00	0.50	5.00	5.75	3.25	0.00	1.25	0.00	3.75	0.052246	0.650879	1.832031	-119.419998	-251.089996	66.360001	199.00	0.24	-0.06	28.00	27.25	10.50	14.50	0.75	4.00	2.25	0.75	0.00	0.00	0.00	0.00	0.00	0.00	0.00	0.00	-0.221680	0.483887	1.264648	-21.350000	106.820000	-17.080000	914.00	-0.33	-0.05
1.80	0.00	0.00	0.00	0.00	0.00	0.00	1.00	0.00	0.50	5.00	5.75	3.25	0.00	1.25	0.00	3.75	0.100098	0.661133	1.299805	-104.300003	-243.600006	78.540001	199.00	0.24	-0.06	28.50	27.00	11.25	15.25	1.25	5.25	2.25	1.50	0.00	0.00	0.00	0.25	0.25	0.00	0.00	0.00	-0.229980	0.358887	1.213867	-42.349998	89.879997	-9.660000	969.00	-0.32	-0.05
1.81	0.00	0.00	0.00	0.00	0.00	0.00	0.75	0.00	0.50	5.00	5.50	3.00	0.00	1.00	0.00	3.50	0.281738	0.370605	1.340332	-38.430000	-233.449997	56.560001	187.00	0.24	-0.07	28.75	27.25	11.75	15.75	1.50	6.25	2.25	1.75	0.00	0.00	0.00	0.25	0.50	0.00	0.00	0.00	-0.161133	0.215820	1.171875	-51.099998	74.410004	-6.790000	1004.00	-0.32	-0.06
1.82	0.00	0.00	0.00	0.00	0.00	0.00	1.00	0.00	0.50	4.75	5.50	3.00	0.00	1.25	0.00	3.75	0.241699	0.106445	1.847656	20.860001	-257.320007	18.270000	192.00	0.24	-0.06	28.50	27.00	12.25	16.00	1.75	7.00	2.25	2.25	0.00	0.00	0.00	0.25	0.75	0.00	0.00	0.00	-0.172852	0.193359	1.119629	-51.170002	60.760002	-6.720000	1029.00	-0.31	-0.06
1.83	0.00	0.00	0.00	0.00	0.00	0.00	1.00	0.00	0.50	5.00	5.50	3.00	0.00	0.75	0.00	3.75	0.260254	-0.088379	1.904297	44.730000	-303.519989	-15.750000	190.00	0.24	-0.07	29.00	27.25	12.75	16.25	2.00	7.50	2.50	2.75	0.00	0.00	0.00	0.50	0.75	0.25	0.00	0.00	-0.145996	0.211426	1.076660	-48.650002	49.700001	-5.530000	1069.00	-0.30	-0.06
1.84	0.00	0.25	0.00	0.00	0.00	0.00	1.00	0.00	0.50	4.75	5.50	3.25	0.00	0.75	0.00	3.50	0.120605	0.032227	1.494629	13.720000	-376.040009	-44.520000	191.00	0.23	-0.07	29.00	26.75	12.75	16.00	2.50	8.00	2.25	3.25	0.00	0.00	0.00	0.25	1.00	0.00	0.00	0.00	-0.146484	0.199219	1.046875	-44.029999	42.139999	-4.200000	1073.00	-0.30	-0.07
1.85	0.00	0.00	0.00	0.00	0.00	0.00	1.00	0.00	0.25	4.50	5.50	3.25	0.00	0.75	0.00	3.75	-0.012207	0.227539	1.126465	-1.960000	-392.140015	-44.939999	184.00	0.24	-0.08	28.50	26.75	13.00	16.25	2.50	8.25	2.50	3.25	0.00	0.00	0.25	0.50	1.00	0.50	0.00	0.00	-0.054688	0.205566	1.066895	-39.549999	34.299999	-4.200000	1090.00	-0.29	-0.07
1.86	0.00	0.00	0.00	0.00	0.00	0.00	1.00	0.00	0.00	4.50	5.25	3.00	0.00	0.50	0.00	3.50	-0.130371	0.393066	0.858398	-2.520000	-390.179993	-42.209999	172.00	0.23	-0.08	28.25	26.50	13.00	16.25	2.75	8.50	2.50	3.50	0.00	0.25	0.00	0.25	1.00	0.25	0.00	0.00	-0.155273	0.194336	1.017090	-34.650002	28.350000	-3.990000	1089.00	-0.29	-0.07
1.87	0.00	0.00	0.00	0.00	0.00	0.00	1.00	0.00	0.00	4.50	5.50	3.00	0.00	0.00	0.00	3.50	-0.139160	0.487305	0.786621	7.980000	-377.440002	-36.470001	170.00	0.23	-0.09	27.50	25.75	13.00	16.25	2.75	8.50	2.50	4.25	0.00	0.00	0.25	0.25	1.50	0.50	0.25	0.00	-0.128906	0.186035	1.000977	-30.240000	24.290001	-3.640000	1095.00	-0.29	-0.07
1.88	0.00	0.00	0.00	0.00	0.00	0.00	1.00	0.00	0.00	4.25	5.25	3.00	0.00	0.75	0.00	3.75	-0.151855	0.579102	1.055176	24.780001	-366.519989	-26.670000	173.00	0.24	-0.08	27.25	25.25	13.00	16.00	3.00	8.50	2.50	4.75	0.00	0.00	0.25	0.25	1.25	0.50	0.25	0.00	-0.141113	0.168457	0.964844	-27.719999	22.889999	-3.990000	1094.00	-0.28	-0.08
1.89	0.00	0.00	0.00	0.00	0.00	0.00	1.00	0.00	0.00	4.25	5.25	3.00	0.00	0.25	0.00	3.50	-0.147949	0.598145	1.387207	41.790001	-370.019989	-12.250000	167.00	0.23	-0.09	26.50	25.00	12.75	15.75	3.00	8.75	2.50	5.00	0.00	0.00	0.00	0.50	1.50	0.75	0.25	0.25	-0.114746	0.182129	0.973145	-27.230000	21.629999	-4.550000	1090.00	-0.28	-0.08
1.90	0.00	0.00	0.00	0.00	0.00	0.00	1.00	0.00	0.25	4.25	5.25	2.75	0.00	0.00	0.00	3.50	-0.241211	0.606934	1.417969	51.380001	-381.640015	6.440000	166.00	0.23	-0.08	25.75	24.25	12.75	15.50	3.50	8.75	2.50	5.50	0.00	0.00	0.25	0.50	1.75	0.75	0.00	0.00	-0.103516	0.166504	0.935547	-27.719999	22.049999	-5.530000	1087.00	-0.27	-0.08
1.91	0.00	0.00	0.00	0.00	0.00	0.00	1.00	0.00	0.00	4.00	5.25	3.00	0.00	0.00	0.00	3.50	-0.397461	0.627441	1.354492	55.369999	-386.750000	29.190001	163.00	0.23	-0.09	24.75	23.25	12.50	15.25	3.75	9.00	2.75	5.75	0.00	0.25	0.25	0.75	2.00	0.75	0.25	0.25	-0.085938	0.184570	0.988281	-29.400000	23.450001	-6.510000	1086.00	-0.26	-0.08
1.92	0.00	0.00	0.00	0.00	0.00	0.00	1.00	0.00	0.00	4.00	5.25	3.00	0.00	0.00	0.00	3.50	-0.539551	0.626465	1.470703	57.189999	-384.299988	55.160000	163.00	0.23	-0.09	24.00	22.50	12.25	14.75	4.00	8.75	2.75	6.00	0.00	0.50	0.25	0.50	2.50	0.75	0.50	0.25	-0.116699	0.164062	0.958496	-26.809999	21.210001	-6.930000	1074.00	-0.26	-0.09
1.93	0.00	0.00	0.00	0.00	0.00	0.00	1.00	0.00	0.00	3.75	5.25	2.75	0.00	0.25	0.00	3.75	-0.633789	0.611328	1.610352	60.480000	-382.480011	80.919998	161.00	0.23	-0.09	22.75	21.50	12.00	14.50	4.50	8.75	2.75	6.25	0.00	0.50	0.25	0.75	2.50	0.75	0.50	0.25	-0.141113	0.173340	0.966797	-24.920000	20.020000	-7.140000	1058.00	-0.25	-0.09
1.94	0.00	0.00	0.00	0.00	0.00	0.00	1.00	0.00	0.00	3.75	5.00	3.00	0.00	0.25	0.00	3.75	-0.721191	0.534180	1.785156	66.150002	-383.880005	103.599998	161.00	0.23	-0.10	22.00	20.75	11.75	14.25	5.00	9.00	3.00	6.50	0.00	0.75	0.50	1.00	3.00	1.25	0.50	0.25	-0.166016	0.163086	0.995605	-23.940001	19.389999	-7.490000	1070.00	-0.24	-0.09
1.95	0.00	0.00	0.00	0.00	0.00	0.00	1.00	0.00	0.00	3.75	5.00	3.00	0.00	0.00	0.00	3.50	-0.855469	0.414062	1.875977	71.889999	-388.360016	121.590004	157.00	0.23	-0.10	20.75	19.50	11.50	13.75	5.25	9.00	2.75	6.75	0.50	0.50	0.50	1.00	3.75	1.25	0.50	0.50	-0.177734	0.148438	0.993164	-20.860001	16.870001	-7.140000	1052.00	-0.23	-0.09
1.96	0.00	0.00	0.00	0.00	0.00	0.00	1.00	0.00	0.00	4.00	5.25	3.00	0.00	0.00	0.00	3.50	-1.020996	0.251953	1.927734	77.559998	-391.019989	133.770004	163.00	0.23	-0.09	20.00	18.75	11.25	13.25	5.75	8.75	3.00	7.00	0.25	0.75	0.75	1.25	4.00	1.25	0.50	0.50	-0.176270	0.154785	0.986816	-18.059999	13.860000	-6.790000	1046.00	-0.22	-0.09
1.97	0.00	0.00	0.00	0.00	0.00	0.00	1.00	0.00	0.00	4.00	5.25	3.00	0.00	0.00	0.00	3.50	-1.203125	0.020996	2.039062	86.029999	-392.350006	137.410004	163.00	0.23	-0.09	19.00	18.00	11.25	13.25	5.75	8.75	3.00	7.25	0.25	0.75	0.75	1.50	4.00	1.50	0.75	0.75	-0.178711	0.150391	0.989746	-16.870001	12.180000	-6.160000	1041.00	-0.21	-0.10
1.98	0.00	0.00	0.00	0.00	0.00	0.00	1.00	0.00	0.00	4.00	5.00	2.75	0.00	0.00	0.00	3.50	-1.411133	-0.178223	2.058594	87.639999	-391.860016	131.949997	157.00	0.23	-0.09	17.75	17.25	11.00	12.75	6.00	9.00	3.25	7.50	0.25	1.25	1.25	1.75	4.75	1.75	0.75	1.00	-0.158203	0.145020	0.948730	-16.799999	11.060000	-5.810000	1049.00	-0.19	-0.10
1.99	0.00	0.00	0.00	0.00	0.00	0.00	1.00	0.00	0.00	3.50	4.75	3.00	0.00	0.00	0.00	3.50	-1.573730	-0.235840	2.038086	78.190002	-385.839996	122.989998	152.00	0.23	-0.10	17.00	16.00	10.75	12.75	6.25	8.75	3.25	7.50	0.75	1.50	1.25	2.00	5.00	1.50	0.75	1.00	-0.158203	0.140137	0.969238	-17.430000	11.270000	-6.020000	1039.00	-0.19	-0.10
2.00	0.00	0.00	0.00	0.00	0.00	0.00	1.00	0.00	0.00	3.75	5.00	2.75	0.00	0.25	0.00	3.50	-1.672852	-0.124023	2.092773	65.660004	-374.850006	114.800003	157.00	0.23	-0.09	16.00	15.00	10.50	12.25	6.50	8.75	3.25	7.75	1.00	1.50	1.25	2.50	5.50	2.25	1.00	1.00	-0.169434	0.136230	0.956055	-17.570000	11.340000	-6.160000	1040.00	-0.17	-0.10
2.01	0.00	0.00	0.00	0.00	0.00	0.00	1.00	0.00	0.00	3.75	5.00	2.75	0.00	0.00	0.00	3.50	-1.756348	0.040527	2.169434	59.360001	-363.649994	110.879997	155.00	0.23	-0.09	14.75	13.75	10.25	11.75	6.75	8.75	3.50	8.00	1.25	1.75	1.50	3.00	6.50	2.25	1.00	1.25	-0.172852	0.136230	0.969238	-18.340000	11.830000	-6.160000	1041.00	-0.15	-0.11
2.02	0.00	0.00	0.00	0.00	0.00	0.00	0.75	0.00	0.00	3.75	5.00	3.00	0.00	0.00	0.00	3.50	-1.895996	0.126953	2.200195	61.670002	-353.290009	110.669998	154.00	0.23	-0.11	12.75	12.25	9.75	11.50	6.75	8.75	3.50	8.00	1.50	2.25	2.00	3.50	7.00	3.00	1.25	1.50	-0.175293	0.135742	0.978027	-18.200001	11.830000	-6.580000	1032.00	-0.13	-0.11
2.03	0.00	0.00	0.00	0.00	0.00	0.00	0.75	0.00	0.00	3.50	4.75	3.00	0.00	0.00	0.00	3.50	-2.100586	0.246582	2.115723	67.550003	-341.459991	112.629997	148.00	0.23	-0.11	11.50	11.00	9.25	10.75	6.75	8.75	3.75	8.25	2.00	2.75	2.75	4.25	7.75	3.25	1.50	1.75	-0.199707	0.077637	0.995117	-17.360001	12.320000	-6.790000	1042.00	-0.11	-0.11
2.04	0.00	0.00	0.00	0.00	0.00	0.00	0.75	0.00	0.00	3.50	5.00	3.00	0.00	0.00	0.00	3.50	-2.345215	0.171875	1.993652	75.879997	-323.190002	115.639999	151.00	0.23	-0.11	10.00	9.50	8.75	10.25	7.00	8.50	4.00	8.25	1.75	3.25	3.25	5.00	8.25	3.75	1.50	2.25	-0.189941	0.137695	0.981445	-16.799999	13.440001	-7.350000	1032.00	-0.09	-0.11
2.05	0.00	0.00	0.00	0.00	0.00	0.00	0.75	0.00	0.00	3.75	4.75	3.00	0.00	0.00	0.00	3.50	-2.812012	-0.194824	1.496094	66.360001	-269.850006	116.760002	151.00	0.23	-0.10	8.75	8.75	8.50	9.50	6.50	8.50	4.00	8.50	2.50	4.00	3.75	6.50	8.50	4.50	1.75	2.50	-0.189941	0.111328	0.972656	-16.170000	14.980000	-8.190000	1050.00	-0.06	-0.12
2.06	0.00	0.00	0.00	0.00	0.00	0.00	0.75	0.00	0.00	3.50	5.00	3.00	0.00	0.00	0.00	3.50	-3.001953	-0.240723	1.193359	53.689999	-236.949997	115.709999	151.00	0.23	-0.11	7.25	7.75	7.75	9.00	6.50	8.25	4.25	8.50	3.50	5.75	6.00	7.75	9.00	5.25	2.00	3.00	-0.191406	0.129395	0.969727	-14.910000	16.450001	-8.400000	1097.00	-0.02	-0.11
2.07	0.00	0.00	0.00	0.00	0.00	0.00	0.75	0.00	0.00	3.75	5.00	3.00	0.00	0.00	0.00	3.50	-3.172363	-0.186523	0.857910	40.740002	-201.600006	116.900002	154.00	0.23	-0.11	6.50	6.75	7.25	8.25	6.00	8.00	4.50	8.75	4.25	7.00	7.50	8.50	9.50	6.25	2.50	3.25	-0.191895	0.129395	0.971680	-11.900000	18.690001	-8.750000	1131.00	0.00	-0.11
2.08	0.00	0.00	0.00	0.00	0.00	0.00	1.00	0.00	0.00	3.25	4.75	3.00	0.00	0.25	0.00	3.50	-3.372559	-0.121094	0.430176	29.610001	-163.169998	122.010002	152.00	0.23	-0.10	5.50	6.00	6.75	7.75	5.75	7.50	4.50	8.75	5.50	8.00	8.00	9.00	10.00	7.00	3.00	4.25	-0.208984	0.134766	0.978027	-8.400000	20.580000	-9.240000	1154.00	0.03	-0.11
2.09	0.00	0.00	0.00	0.00	0.00	0.00	0.75	0.00	0.00	3.50	4.50	3.25	0.00	0.00	0.00	3.50	-3.564453	-0.073242	0.030273	23.940001	-119.279999	130.059998	148.00	0.23	-0.11	4.25	5.25	6.00	7.25	5.25	7.50	4.75	9.00	6.50	8.75	9.00	10.00	10.25	8.00	3.25	5.00	-0.201172	0.125488	0.972168	-5.110000	23.309999	-10.430000	1181.00	0.05	-0.10
2.10	0.00	0.00	0.00	0.00	0.00	0.00	0.75	0.00	0.00	3.50	4.50	3.00	0.00	0.50	0.00	3.50	-3.881836	-0.219238	-0.125000	27.440001	-72.029999	136.990005	150.00	0.24	-0.10	3.75	4.25	5.25	6.50	5.00	7.25	5.00	9.00	7.50	9.75	9.75	10.50	10.75	9.25	4.00	5.50	-0.214844	0.143555	0.979980	-3.920000	27.790001	-12.320000	1211.00	0.07	-0.10
2.11	0.00	0.00	0.00	0.00	0.00	0.00	0.75	0.00	0.00	3.75	4.50	3.00	0.00	0.25	0.00	3.50	-4.206543	-0.545410	-0.167480	29.120001	-24.920000	136.570007	150.00	0.23	-0.10	2.75	3.25	4.75	5.75	4.00	6.50	5.00	9.00	8.00	10.50	10.75	11.50	11.25	10.75	5.25	6.00	-0.211914	0.142090	0.978516	-3.500000	32.759998	-15.120000	1227.00	0.10	-0.10
2.12	0.00	0.00	0.00	0.00	0.00	0.00	0.75	0.00	0.00	3.50	4.50	2.75	0.00	0.25	0.00	3.50	-4.334961	-0.598633	-0.210938	11.900000	24.570000	131.180008	145.00	0.23	-0.10	2.25	2.50	3.75	5.25	3.25	6.00	5.00	9.00	8.75	11.25	11.50	12.25	11.75	12.50	6.00	6.50	-0.216797	0.149414	0.988770	-1.750000	38.150002	-17.290001	1248.00	0.12	-0.10
2.13	0.00	0.00	0.00	0.00	0.00	0.00	1.00	0.00	0.00	3.50	4.50	3.00	0.00	0.25	0.00	3.50	-4.247559	-0.471680	-0.129395	-5.390000	78.330002	122.360001	152.00	0.23	-0.10	1.50	1.75	3.00	4.00	2.50	5.25	5.25	8.75	9.50	12.25	12.50	13.00	12.00	14.75	7.00	7.00	-0.216309	0.149902	0.988770	0.700000	44.450001	-19.250000	1268.00	0.15	-0.09
2.14	0.00	0.00	0.00	0.00	0.00	0.00	0.75	0.00	0.00	3.50	4.25	2.75	0.00	0.25	0.00	3.25	-3.888672	-0.404785	0.152344	-11.480000	128.589996	109.900002	141.00	0.23	-0.10	1.25	1.00	2.25	3.00	1.50	4.25	5.25	8.50	10.50	13.00	13.25	13.50	12.50	17.00	7.75	7.50	-0.215332	0.164551	1.003906	4.620000	52.500000	-22.400000	1281.00	0.18	-0.08
2.15	0.00	0.25	0.00	0.00	0.00	0.00	0.75	0.00	0.00	3.50	4.25	2.75	0.00	0.50	0.00	3.25	3.537598	-0.971191	0.512695	-11.620000	170.240005	94.010002	146.00	0.23	-0.09	1.00	1.00	2.00	2.75	1.00	3.50	5.25	8.25	11.50	13.75	14.00	14.25	12.75	19.25	8.75	7.75	-0.247559	0.166016	1.019043	10.290000	61.599998	-27.440001	1326.00	0.19	-0.07
2.16	1.25	2.25	0.25	0.75	0.00	0.00	0.75	0.00	0.00	3.25	4.25	2.75	0.00	0.50	0.00	3.25	2.544434	0.112793	2.356934	-18.270000	161.770004	68.180000	185.00	0.09	-0.09	1.00	0.25	1.25	1.75	0.75	2.25	5.00	7.75	12.25	14.75	14.75	14.75	12.75	21.50	9.75	8.50	-0.297852	0.132812	1.028320	17.639999	76.019997	-29.540001	1339.00	0.21	-0.07
2.17	2.75	4.75	0.75	1.00	0.25	0.00	0.75	0.00	0.00	3.75	4.00	2.75	0.00	0.50	0.00	3.50	0.754395	-0.926758	-0.609863	-1.470000	66.150002	35.490002	239.00	-0.00	-0.08	0.50	0.25	1.00	2.00	0.25	2.00	5.00	7.00	13.25	15.25	15.25	15.25	12.50	23.50	10.50	9.00	-0.297852	0.139160	1.035156	24.360001	98.769997	-27.650000	1368.00	0.22	-0.06
2.18	6.00	8.75	1.00	1.50	0.00	0.00	0.75	0.00	0.00	3.00	4.00	2.50	0.00	0.00	0.00	3.50	-0.598145	-1.240723	-0.379395	-52.920002	180.039993	-11.690000	300.00	-0.12	-0.08	0.25	0.25	0.75	1.25	0.25	1.25	5.00	6.25	14.00	15.75	15.75	15.25	12.50	25.25	11.50	9.25	-0.319336	0.166504	1.116211	32.900002	155.889999	-29.260000	1382.00	0.24	-0.05
2.19	9.25	14.00	2.00	2.50	0.00	0.00	0.75	0.00	0.00	3.00	4.25	2.75	0.00	0.50	0.00	3.50	-1.089355	-0.277832	2.527344	-35.840000	238.559998	-42.420002	414.00	-0.18	-0.07	0.00	0.00	0.75	1.00	0.00	1.00	4.75	5.50	14.50	16.25	16.00	15.25	12.00	26.75	12.25	9.75	-0.391113	0.193359	1.078613	24.780001	185.080002	-31.430000	1387.00	0.25	-0.04
2.20	14.50	20.00	3.25	4.25	0.00	0.00	1.00	0.00	0.00	3.25	4.00	2.75	0.00	1.00	0.00	3.50	0.039551	-0.158203	0.979492	4.410000	186.690002	-41.650002	565.00	-0.22	-0.06	0.25	0.00	0.25	0.50	0.00	0.75	4.25	4.75	15.00	16.50	16.25	15.25	11.25	28.25	12.75	10.00	-0.423340	0.200195	1.090332	17.570000	221.619995	-37.029999	1381.00	0.26	-0.04
2.21	19.00	24.00	5.00	5.50	0.25	0.00	1.00	0.00	0.00	3.00	4.00	2.75	0.00	1.25	0.00	3.50	-0.357422	0.469727	1.201172	10.500000	229.250000	-51.450001	684.00	-0.25	-0.05	0.25	0.00	0.50	0.50	0.00	0.00	4.00	3.75	15.25	16.75	16.00	15.00	10.75	29.25	13.00	10.00	-0.467285	0.162109	1.189453	2.660000	257.250000	-41.580002	1364.00	0.26	-0.03
2.22	21.75	26.75	7.00	7.50	0.50	0.00	1.00	0.00	0.00	3.25	4.00	2.75	0.00	1.50	0.00	3.25	-0.393066	0.723145	1.812988	15.960000	262.149994	-44.240002	788.00	-0.26	-0.05	0.25	0.00	0.25	0.25	0.00	0.00	3.50	2.75	15.50	16.75	15.75	14.50	10.00	30.00	13.00	10.00	-0.455566	0.160645	1.131348	-13.230000	286.440002	-44.310001	1331.00	0.27	-0.02
2.23	23.50	28.00	8.50	9.25	0.75	0.75	1.00	0.00	0.00	3.00	3.75	2.50	0.00	1.75	0.00	3.75	-0.378418	0.380371	1.422363	16.309999	270.829987	-24.219999	861.00	-0.26	-0.05	0.00	0.00	0.00	0.25	0.00	0.00	3.00	2.00	15.50	16.50	15.50	13.75	9.00	30.25	12.75	9.75	-0.560547	0.221191	1.150391	-24.570000	316.540009	-47.740002	1283.00	0.28	-0.01
2.24	24.50	29.25	9.75	10.75	1.50	1.75	1.00	0.50	0.00	3.00	4.00	2.50	0.00	1.75	0.00	3.50	-0.430176	0.115234	2.284668	0.700000	272.649994	-11.690000	941.00	-0.26	-0.05	0.00	0.00	0.25	0.00	0.00	0.00	2.75	1.75	15.25	16.50	15.25	13.00	8.00	30.25	12.75	9.50	-0.567383	0.208984	1.102051	-28.700001	348.529999	-55.790001	1252.00	0.28	-0.01
2.25	25.50	29.75	11.00	12.00	2.25	2.75	1.25	0.75	0.00	3.25	4.00	2.75	0.00	2.00	0.00	3.50	-0.412109	0.019043	1.609863	3.500000	230.790009	-8.260000	1018.00	-0.26	-0.06	0.00	0.00	0.00	0.00	0.00	0.00	2.50	1.25	14.75	16.25	14.75	12.50	7.50	29.75	12.50	9.00	-0.584961	0.190430	1.411621	-34.299999	372.820007	-64.470001	1204.00	0.28	-0.00
2.26	25.75	30.00	12.50	13.75	4.50	4.00	1.25	1.25	0.00	3.25	4.00	2.75	0.25	2.50	0.00	3.50	-0.271973	0.121094	1.515625	-13.020000	188.369995	-11.550000	1111.00	-0.25	-0.06	0.00	0.00	0.00	0.00	0.00	0.00	2.00	1.50	14.00	15.75	14.00	11.75	6.50	28.75	12.25	8.50	-0.729492	0.237305	1.150391	-32.759998	406.279999	-71.330002	1147.00	0.29	-0.00
2.27	26.25	30.25	13.25	14.75	5.25	6.25	1.25	2.00	0.00	3.00	4.00	2.50	0.50	2.25	0.00	3.50	-0.388672	0.190430	1.558105	-43.119999	106.260002	-4.130000	1177.00	-0.25	-0.07	0.00	0.00	0.00	0.00	0.00	0.00	2.00	1.00	12.00	14.75	13.00	10.75	5.75	28.00	11.75	7.50	-0.966797	0.424805	1.497559	-27.860001	418.880005	-74.970001	1058.00	0.29	0.00
2.28	25.75	30.25	13.75	15.75	5.75	7.25	1.50	2.50	0.25	3.25	4.00	2.75	0.75	2.25	0.00	3.50	-0.250977	0.157715	1.230469	-28.700001	61.950001	-0.910000	1227.00	-0.24	-0.07	0.00	0.00	0.00	0.00	0.00	0.00	1.75	0.50	9.25	12.75	11.50	9.75	5.00	26.50	11.25	6.50	-1.418945	0.301758	1.795898	-1.120000	437.010010	-72.099998	934.00	0.29	0.00
2.29	25.75	30.00	13.75	16.00	6.00	8.00	1.75	3.25	0.25	3.50	4.00	3.00	0.75	2.25	0.00	3.50	-0.232422	0.100098	1.195312	-13.510000	35.139999	0.770000	1259.00	-0.23	-0.07	0.00	0.00	0.00	0.00	0.00	0.00	1.75	0.75	6.75	10.50	9.50	8.25	4.00	23.75	10.25	5.25	-1.715332	0.630859	2.055176	36.540001	440.440002	-64.470001	795.00	0.30	-0.00
2.30	25.25	29.50	13.75	16.25	6.50	8.25	1.75	4.25	0.25	3.50	4.50	3.00	0.75	2.50	0.00	3.50	-0.217773	0.097168	0.982422	-1.330000	24.219999	2.240000	1282.00	-0.22	-0.08	0.00	0.00	0.00	0.00	0.00	0.00	1.75	0.25	5.00	8.50	7.50	6.75	2.75	19.50	8.75	3.25	-1.834961	0.358887	2.634766	77.139999	440.860016	-59.150002	634.00	0.30	0.01
2.31	24.75	29.25	13.75	16.25	6.75	9.00	1.75	5.00	0.50	3.50	4.25	3.00	1.00	2.75	0.00	3.75	-0.086426	0.209473	1.064941	6.650000	22.120001	2.520000	1303.00	-0.22	-0.08	0.00	0.00	0.00	0.00	0.00	0.00	1.75	0.00	3.00	6.75	5.25	4.75	1.75	15.00	7.25	1.50	-1.420410	0.443359	2.957031	96.320000	435.190002	-57.750000	468.00	0.30	0.02
2.32	24.25	28.75	13.75	17.00	7.25	9.25	2.00	5.50	0.25	4.25	4.25	3.00	1.50	3.00	0.25	3.75	-0.170410	0.112793	0.974609	10.500000	21.000000	2.240000	1335.00	-0.21	-0.08	0.00	0.00	0.00	0.00	0.00	0.00	1.75	0.00	1.75	5.25	3.50	3.25	1.25	10.75	5.50	0.50	-1.391602	0.634277	2.586914	124.389999	434.070007	-64.470001	338.00	0.30	0.02
2.33	24.00	28.25	13.50	16.75	7.25	9.75	2.00	6.00	0.50	4.00	4.50	3.25	1.50	3.00	0.00	4.00	-0.175293	0.155762	0.895020	14.490000	20.160000	1.470000	1340.00	-0.21	-0.09	0.00	0.00	0.00	0.00	0.00	0.00	1.50	0.00	1.00	4.00	2.50	2.00	0.75	7.75	3.75	0.25	-0.402832	1.038574	1.576172	167.160004	442.610016	-74.340004	238.00	0.30	0.03
2.34	23.00	27.50	13.25	16.75	7.50	10.50	2.25	6.50	0.50	4.00	5.00	3.50	1.75	3.25	0.00	4.00	-0.191406	0.129883	0.958984	15.680000	19.950001	0.490000	1355.00	-0.20	-0.09	0.00	0.00	0.00	0.00	0.00	0.00	1.75	0.00	0.00	2.75	2.00	1.50	0.50	5.25	1.75	0.25	-0.561035	0.937988	2.076172	212.029999	459.059998	-93.940002	161.00	0.28	0.03
2.35	22.25	26.50	13.00	16.50	7.75	11.25	2.25	7.00	0.50	4.25	5.25	3.50	2.25	3.25	0.00	4.00	-0.189941	0.132324	0.973633	14.630000	20.650000	-0.980000	1360.00	-0.19	-0.09	0.00	0.00	0.00	0.00	0.00	0.00	1.75	0.00	0.25	2.00	1.50	1.25	0.00	3.00	1.00	0.25	-0.423340	0.798340	2.973633	263.549988	447.929993	-122.220001	117.00	0.25	0.05
2.36	21.25	25.75	12.50	16.25	7.75	11.50	2.50	7.50	0.75	4.25	5.50	3.75	2.75	3.25	0.00	4.25	-0.183594	0.131836	0.964844	12.320000	21.490000	-2.450000	1363.00	-0.18	-0.10	0.00	0.00	0.00	0.00	0.00	0.00	2.00	0.00	0.00	1.50	1.00	0.50	0.00	1.75	0.75	0.00	0.310059	0.352539	3.125488	298.899994	410.269989	-159.460007	84.00	0.23	0.09
2.37	20.00	24.25	12.25	15.75	7.75	11.75	2.50	7.75	0.50	4.50	5.25	4.00	2.50	3.00	0.00	4.25	-0.189453	0.133301	0.975586	10.150000	22.750000	-3.570000	1329.00	-0.18	-0.10	0.00	0.00	0.00	0.00	0.00	0.00	2.00	0.00	0.00	1.25	0.75	0.25	0.00	1.00	0.50	0.00	1.684570	-0.154297	2.560547	256.619995	316.679993	-205.520004	68.00	0.20	0.11
2.38	19.00	23.00	11.75	15.50	7.75	11.75	2.75	8.25	0.50	4.50	5.50	4.00	3.25	3.00	0.00	4.25	-0.145508	0.147949	0.977539	8.400000	23.520000	-4.130000	1320.00	-0.17	-0.11	0.00	0.25	0.00	0.00	0.00	0.00	2.00	0.00	0.25	1.00	0.75	0.25	0.00	1.00	0.50	0.00	1.796387	0.044922	3.956543	11.270000	-226.380005	-96.879997	71.00	0.18	0.11
2.39	18.00	21.75	11.25	14.75	7.75	12.00	2.75	8.50	0.75	4.75	5.75	4.25	3.50	3.25	0.00	4.50	-0.178223	0.134277	0.958008	6.370000	24.219999	-4.480000	1307.00	-0.16	-0.11	0.00	0.00	0.00	0.00	0.00	0.00	2.00	0.00	0.00	1.25	0.75	0.00	0.00	0.25	0.25	0.00	0.598633	0.602539	2.164551	-88.269997	-322.350006	-49.070000	56.00	0.17	0.13
2.40	16.25	20.00	10.75	14.00	7.75	11.75	2.75	8.75	1.00	4.75	6.25	4.75	4.00	3.25	0.00	4.50	-0.179199	0.143555	0.952637	4.270000	25.059999	-5.040000	1279.00	-0.14	-0.11	0.00	0.00	0.00	0.00	0.00	0.00	2.00	0.00	0.00	0.75	0.50	0.25	0.00	0.25	0.25	0.00	0.569336	0.562012	1.209473	-103.739998	-308.350006	-21.770000	51.00	0.16	0.13
2.41	15.00	18.00	10.50	13.00	7.75	11.50	2.75	9.00	1.25	5.50	6.25	4.75	4.50	3.00	0.25	4.50	-0.145996	0.155273	0.951660	1.750000	25.830000	-5.600000	1250.00	-0.13	-0.11	0.00	0.00	0.00	0.00	0.00	0.00	2.00	0.00	0.00	0.50	0.25	0.00	0.00	0.25	0.25	0.00	0.687012	0.688477	0.914551	-61.529999	-273.839996	-23.799999	43.00	0.00	0.00
2.42	13.00	15.75	10.00	12.25	7.50	11.50	3.00	9.00	1.25	5.25	6.75	5.50	5.00	3.00	0.00	5.00	-0.191895	0.138184	0.964844	-0.770000	26.530001	-6.160000	1211.00	-0.11	-0.12	0.00	0.00	0.00	0.00	0.00	0.00	2.00	0.00	0.00	0.50	0.25	0.00	0.00	0.25	0.00	0.00	0.558105	0.667969	1.292969	-4.060000	-280.700012	-36.610001	40.00	0.00	0.00
2.43	11.25	13.50	9.25	11.00	7.50	11.25	3.00	9.25	1.50	5.50	7.00	5.75	5.50	3.00	0.25	5.00	-0.206055	0.137695	0.958496	-2.870000	26.740000	-6.650000	1170.00	-0.09	-0.12	0.25	0.00	0.00	0.00	0.00	0.00	2.25	0.00	0.00	0.25	0.25	0.00	0.00	0.25	0.25	0.00	0.389160	0.510742	1.522949	40.180000	-312.410004	-43.889999	47.00	0.00	0.00
2.44	9.50	11.75	9.00	10.00	7.50	11.00	3.00	9.50	1.50	6.00	7.25	6.00	5.75	3.25	0.25	5.00	-0.200684	0.140625	0.963867	-4.480000	26.110001	-6.930000	1137.00	-0.08	-0.12	0.00	0.00	0.00	0.00	0.00	0.00	2.00	0.00	0.00	0.25	0.25	0.00	0.00	0.25	0.00	0.00	0.339844	0.360840	1.498047	51.520000	-347.549988	-39.900002	38.00	0.00	0.00
2.45	8.25	9.75	8.50	9.25	7.25	10.75	3.00	9.75	2.00	6.25	7.50	6.50	6.25	3.25	0.25	5.25	-0.209473	0.144043	0.940430	-6.090000	25.270000	-7.350000	1113.00	-0.06	-0.13	0.00	0.00	0.00	0.00	0.00	0.00	2.00	0.00	0.00	0.25	0.00	0.00	0.00	0.00	0.00	0.00	0.262207	0.377930	1.358398	29.120001	-378.559998	-25.760000	33.00	0.00	0.00
2.46	7.50	8.75	8.00	8.75	7.25	10.50	3.25	9.75	2.00	6.25	7.50	6.75	6.50	3.50	0.50	5.25	-0.214844	0.118164	0.951172	-7.350000	24.570000	-7.490000	1096.00	-0.05	-0.13	0.00	0.25	0.00	0.00	0.00	0.00	2.00	0.00	0.00	0.25	0.00	0.00	0.00	0.00	0.00	0.00	0.107422	0.524902	1.135742	2.800000	-395.850006	-5.320000	35.00	0.00	0.00
2.47	6.75	7.75	7.75	8.25	7.25	10.25	3.25	9.75	2.50	7.00	8.00	7.50	6.75	3.50	0.50	5.25	-0.209961	0.131348	0.963867	-7.910000	23.450001	-7.280000	1098.00	-0.03	-0.13	0.00	0.00	0.00	0.00	0.00	0.00	2.00	0.00	0.00	0.00	0.00	0.00	0.00	0.00	0.25	0.00	-0.035645	0.628418	0.943848	-3.290000	-400.049988	14.490000	33.00	0.00	0.00
2.48	6.00	7.25	7.25	7.75	6.75	10.00	3.25	10.00	2.50	7.00	8.25	7.75	7.25	4.00	0.75	5.50	-0.209961	0.140625	0.960938	-8.190000	21.350000	-7.140000	1088.00	-0.02	-0.13	0.00	0.25	0.00	0.00	0.00	0.00	2.00	0.00	0.00	0.25	0.00	0.00	0.00	0.00	0.00	0.00	-0.128906	0.671875	0.949219	13.440001	-395.570007	28.070000	35.00	0.00	0.00
2.49	5.25	6.00	6.75	7.00	6.50	10.00	3.50	10.00	2.75	7.25	8.50	8.00	7.50	4.25	0.75	5.50	-0.208008	0.126953	0.950684	-8.470000	20.790001	-7.350000	1071.00	-0.00	-0.13	0.00	0.00	0.00	0.00	0.00	0.00	2.00	0.00	0.00	0.00	0.00	0.00	0.00	0.00	0.00	0.00	-0.214355	0.607422	1.103027	42.209999	-390.179993	35.000000	30.00	0.00	0.00
2.50	4.75	5.75	6.50	6.75	6.75	9.75	3.50	10.00	3.50	7.50	8.75	8.50	7.75	4.75	0.75	5.75	-0.220703	0.129395	0.952637	-10.010000	20.230000	-7.840000	1086.00	0.01	-0.13	0.00	0.00	0.00	0.00	0.00	0.00	2.00	0.00	0.00	0.00	0.00	0.00	0.00	0.00	0.00	0.00	-0.336914	0.480957	1.320312	65.099998	-389.059998	37.240002	30.00	0.00	0.00
2.51	3.75	5.25	5.75	5.75	6.25	9.25	3.75	10.00	3.50	7.75	9.25	8.75	7.75	5.00	0.75	6.00	-0.227539	0.121582	0.945801	-11.620000	19.809999	-8.400000	1059.00	0.02	-0.13	0.00	0.00	0.00	0.00	0.00	0.00	2.00	0.00	0.00	0.00	0.00	0.00	0.00	0.00	0.00	0.00	-0.452148	0.416504	1.489746	73.989998	-392.489990	37.730000	30.00	0.00	0.00
2.52	3.50	5.00	5.50	5.50	6.25	9.25	3.75	10.00	4.00	8.00	9.75	9.25	8.00	5.50	1.00	6.25	-0.229980	0.119629	0.941406	-12.950000	20.090000	-9.240000	1078.00	0.03	-0.13	0.00	0.00	0.00	0.00	0.00	0.00	2.25	0.00	0.00	0.00	0.00	0.00	0.00	0.00	0.00	0.00	-0.615723	0.424805	1.536133	73.989998	-396.339996	40.810001	34.00	0.00	0.00
2.53	2.50	4.00	5.25	5.50	6.00	8.75	4.00	10.00	4.75	8.50	10.25	9.50	8.50	6.75	1.25	6.25	-0.235840	0.124512	0.946289	-12.600000	21.350000	-9.940000	1092.00	0.05	-0.12	0.00	0.00	0.00	0.00	0.00	0.00	2.00	0.00	0.00	0.00	0.00	0.00	0.00	0.00	0.00	0.00	-0.778809	0.500977	1.556641	72.590004	-394.100006	49.980000	30.00	0.00	0.00
2.54	2.25	3.50	5.00	5.00	6.00	8.75	4.25	10.00	5.25	8.75	11.00	10.25	8.75	7.50	1.50	6.50	-0.230957	0.105469	0.940918	-11.620000	23.030001	-10.780000	1118.00	0.07	-0.12	0.25	0.00	0.00	0.00	0.00	0.00	2.00	0.00	0.00	0.00	0.00	0.00	0.00	0.00	0.00	0.00	-0.885254	0.560547	1.657715	73.500000	-387.589996	67.129997	33.00	0.00	0.00
2.55	1.75	3.00	4.25	4.50	5.75	8.50	4.50	9.75	6.25	9.25	11.50	10.75	9.00	8.25	1.75	6.75	-0.208496	0.112305	0.936523	-10.080000	25.620001	-12.180000	1130.00	0.08	-0.11	0.00	0.00	0.00	0.00	0.00	0.00	2.00	0.00	0.00	0.00	0.00	0.00	0.00	0.00	0.00	0.00	-0.980957	0.576172	1.808594	79.379997	-382.130005	88.199997	30.00	0.00	0.00
2.56	1.25	2.50	3.75	4.00	5.50	8.25	5.00	9.75	7.50	10.00	12.00	11.75	9.50	9.00	2.00	7.00	-0.246582	0.114258	0.954590	-7.070000	29.540001	-13.370000	1166.00	0.10	-0.11	0.00	0.00	0.00	0.00	0.00	0.00	2.00	0.00	0.00	0.00	0.00	0.00	0.00	0.00	0.00	0.00	-1.042480	0.544434	1.945312	86.590004	-378.420013	108.080002	30.00	0.00	0.00
2.57	1.00	2.25	3.00	3.50	4.75	8.00	5.00	9.75	8.25	10.50	13.00	12.50	9.75	9.75	2.50	7.50	-0.246094	0.112793	0.953125	-4.200000	33.180000	-14.490000	1186.00	0.12	-0.11	0.00	0.00	0.00	0.00	0.00	0.00	2.00	0.00	0.00	0.00	0.00	0.00	0.00	0.00	0.00	0.00	-1.063477	0.485840	2.015625	85.889999	-375.549988	124.879997	30.00	0.00	0.00
2.58	1.00	1.75	2.75	3.00	4.00	7.50	5.00	9.75	8.75	11.25	14.00	13.50	10.50	11.00	3.00	7.75	-0.250977	0.104492	0.956055	-0.000000	37.380001	-15.750000	1219.00	0.13	-0.10	0.00	0.00	0.00	0.00	0.00	0.00	2.00	0.00	0.00	0.00	0.00	0.00	0.00	0.00	0.00	0.00	-1.243164	0.458496	2.127441	80.989998	-366.309998	148.190002	30.00	0.00	0.00
2.59	0.75	1.25	1.75	2.75	3.25	7.00	5.00	9.75	9.25	11.75	14.75	14.50	11.00	12.00	4.00	8.25	-0.245605	0.116211	0.969238	4.410000	42.070000	-16.799999	1240.00	0.15	-0.10	0.00	0.00	0.00	0.00	0.00	0.00	2.00	0.00	0.00	0.00	0.00	0.00	0.00	0.00	0.00	0.00	-1.367676	0.378906	2.166016	87.220001	-360.570007	149.869995	30.00	0.00	0.00
2.60	0.25	1.50	1.50	2.50	2.50	6.75	5.00	9.50	9.75	12.50	15.75	15.25	11.75	13.25	5.00	8.75	-0.250977	0.113281	0.937988	8.260000	46.410000	-17.990000	1280.00	0.16	-0.10	0.00	0.00	0.00	0.00	0.00	0.00	2.00	0.00	0.00	0.00	0.00	0.00	0.00	0.00	0.00	0.00	-1.509766	0.293945	2.219238	96.110001	-352.869995	143.850006	30.00	0.00	0.00
2.61	0.25	1.25	1.00	2.50	1.75	6.00	5.00	9.50	10.25	13.00	16.75	16.50	12.25	14.75	5.75	9.25	-0.273926	0.143555	0.963867	12.250000	52.150002	-20.370001	1319.00	0.17	-0.10	0.00	0.00	0.00	0.00	0.00	0.00	2.00	0.00	0.00	0.00	0.00	0.00	0.00	0.00	0.00	0.00	-1.674316	0.210449	2.246094	100.309998	-342.579987	132.580002	30.00	0.00	0.00
2.62	0.00	0.50	0.75	2.75	1.00	5.50	4.75	9.25	11.00	14.00	17.50	17.25	12.50	16.50	6.75	10.00	-0.259277	0.118164	0.973145	16.870001	58.939999	-21.629999	1356.00	0.19	-0.10	0.00	0.00	0.00	0.00	0.00	0.00	2.00	0.00	0.00	0.00	0.00	0.00	0.00	0.00	0.00	0.00	-1.865723	0.183105	2.247070	93.730003	-330.049988	117.809998	30.00	0.00	0.00
2.63	0.00	0.75	0.75	1.50	0.75	5.25	4.50	9.00	11.25	14.25	18.50	18.50	13.00	18.25	7.50	11.00	-0.304688	0.146484	0.966797	22.960001	68.459999	-21.980000	1394.00	0.20	-0.10	0.00	0.00	0.00	0.00	0.00	0.00	2.00	0.00	0.00	0.00	0.00	0.00	0.00	0.00	0.00	0.00	-2.075684	0.268066	2.102539	87.010002	-317.660004	102.480003	30.00	0.00	0.00
2.64	0.00	0.50	0.50	1.25	0.50	4.25	4.00	8.50	11.75	15.00	19.25	19.25	13.50	19.75	8.50	11.50	-0.335449	0.143066	0.987793	30.870001	81.760002	-22.469999	1418.00	0.21	-0.09	0.00	0.25	0.00	0.00	0.00	0.00	2.00	0.00	0.00	0.00	0.00	0.00	0.00	0.00	0.00	0.00	-2.321289	0.334961	1.736328	91.489998	-301.350006	90.790001	33.00	0.00	0.00
2.65	0.00	0.00	0.25	1.00	0.50	3.75	3.50	8.25	12.00	15.25	20.00	19.75	13.75	21.50	9.25	12.50	-0.328613	0.184570	1.016113	40.670002	101.080002	-22.750000	1440.00	0.22	-0.09	0.00	0.00	0.00	0.00	0.00	0.00	2.00	0.00	0.00	0.00	0.00	0.00	0.00	0.00	0.00	0.00	-2.485840	0.274902	1.288574	106.050003	-276.149994	88.059998	30.00	0.00	0.00
2.66	0.00	0.00	0.00	0.75	0.00	3.00	3.00	7.50	12.25	15.75	20.50	20.25	13.75	23.00	10.00	12.75	-0.328613	0.137695	1.014160	51.099998	123.410004	-24.360001	1443.00	0.23	-0.09	0.25	0.00	0.00	0.00	0.00	0.00	2.00	0.00	0.00	0.00	0.00	0.00	0.00	0.00	0.00	0.00	-2.668457	-0.160645	1.101562	134.889999	-242.830002	104.790001	33.00	0.00	0.00
2.67	0.00	0.00	0.00	0.75	0.00	2.25	2.25	7.00	12.25	16.00	20.75	20.50	13.50	24.25	11.00	13.25	-0.387695	0.156250	1.000488	60.060001	148.119995	-24.360001	1445.00	0.24	-0.09	0.00	0.00	0.00	0.00	0.00	0.00	2.00	0.00	0.00	0.00	0.00	0.00	0.00	0.00	0.00	0.00	-3.048828	-0.746582	1.116211	124.809998	-203.559998	131.669998	30.00	0.00	0.00
2.68	0.00	0.00	0.00	0.75	0.00	1.50	1.75	6.25	12.25	16.00	21.25	20.50	13.00	25.50	11.75	13.50	-0.408691	0.235840	1.110352	64.330002	173.250000	-23.799999	1439.00	0.25	-0.08	0.00	0.00	0.00	0.00	0.00	0.00	2.00	0.00	0.00	0.00	0.00	0.00	0.00	0.00	0.00	0.00	-3.242676	-0.719238	0.710449	48.230000	-166.600006	158.970001	30.00	0.00	0.00
2.69	0.00	0.00	0.00	0.50	0.00	1.25	1.25	5.75	12.25	16.00	21.00	20.25	12.50	26.75	12.25	14.00	-0.469727	0.218262	1.127930	64.889999	240.240005	-31.219999	1427.00	0.26	-0.08	0.00	0.00	0.00	0.00	0.00	0.00	2.00	0.00	0.00	0.00	0.00	0.00	0.00	0.00	0.00	0.00	-3.546387	-0.142090	0.196289	-12.320000	-129.850006	175.000000	30.00	0.00	0.00
2.70	0.00	0.00	0.00	0.00	0.00	0.75	0.75	5.25	12.25	16.00	20.75	19.75	12.00	27.50	12.75	13.75	-0.502930	0.252930	1.076660	47.670002	274.329987	-38.920002	1399.00	0.26	-0.07	0.00	0.00	0.00	0.00	0.00	0.00	2.00	0.00	0.00	0.00	0.00	0.00	0.00	0.00	0.00	0.00	-3.824219	0.033691	-0.185059	-10.290000	-87.849998	176.050003	30.00	0.00	0.00
2.71	0.00	0.00	0.00	0.00	0.00	0.75	0.50	5.00	12.25	16.00	20.25	19.00	10.50	28.00	12.75	13.50	-0.591797	0.327148	1.144043	28.139999	311.570007	-49.840000	1368.00	0.27	-0.07	0.00	0.00	0.00	0.00	0.00	0.00	2.00	0.00	0.00	0.00	0.00	0.00	0.00	0.00	0.00	0.00	-4.149902	-0.093262	-0.223633	14.350000	-41.650002	163.240005	30.00	0.00	0.00
2.72	0.00	0.00	0.00	0.00	0.00	0.25	0.50	4.50	12.50	16.25	20.00	18.50	9.25	27.50	12.25	13.25	-0.730469	0.307129	1.122070	15.750000	355.459991	-63.840000	1332.00	0.27	-0.06	0.00	0.00	0.00	0.00	0.00	0.00	2.00	0.00	0.00	0.00	0.00	0.00	0.00	0.00	0.00	0.00	-4.130371	-0.298340	-0.195801	25.760000	6.580000	146.720001	30.00	0.00	0.00
2.73	0.00	0.00	0.00	0.00	0.00	0.00	0.25	4.00	12.50	16.00	19.50	17.00	8.25	27.25	11.75	12.75	-0.688965	0.312012	1.289551	6.090000	401.730011	-79.239998	1275.00	0.27	-0.05	0.00	0.00	0.00	0.25	0.00	0.00	2.00	0.00	0.00	0.00	0.00	0.00	0.00	0.00	0.00	0.00	-3.935059	-0.431641	0.004883	20.650000	55.090000	139.229996	33.00	0.00	0.00
2.74	0.00	0.00	0.00	0.00	0.00	0.00	0.50	3.25	12.25	15.75	18.75	15.50	7.25	26.50	11.00	12.00	-0.725098	0.298340	1.066895	-6.230000	441.980011	-93.660004	1211.00	0.28	-0.04	0.25	0.00	0.25	0.00	0.00	0.00	2.00	0.00	0.00	0.00	0.00	0.00	0.00	0.00	0.00	0.00	-3.531738	-0.436035	0.238281	5.880000	97.790001	137.550003	36.00	0.00	0.00
2.75	0.00	0.00	0.00	0.00	0.00	0.00	0.50	3.25	11.50	14.75	17.50	14.00	6.25	25.50	10.25	11.00	-0.998047	0.363281	1.495605	-5.180000	484.610016	-102.900002	1131.00	0.28	-0.04	0.50	1.00	0.50	0.75	0.00	0.00	2.00	0.00	0.00	0.00	0.00	0.00	0.00	0.00	0.00	0.00	-3.281250	-0.428711	-0.078613	-25.900000	110.809998	135.589996	58.00	-0.13	0.09
2.76	0.00	0.00	0.00	0.00	0.00	0.00	0.50	2.75	9.75	13.25	15.00	12.25	5.50	24.50	9.50	9.50	-1.642578	0.442383	2.354004	13.020000	513.030029	-102.480003	1009.00	0.28	-0.04	2.50	3.50	0.75	1.75	0.00	0.00	1.75	0.00	0.00	0.00	0.00	0.00	0.00	0.00	0.00	0.00	0.962891	-0.077148	0.557129	-24.710001	194.600006	121.099998	112.00	-0.26	0.00
2.77	0.00	0.00	0.00	0.00	0.00	0.00	0.75	2.00	7.75	11.00	12.25	9.75	4.50	22.25	8.25	7.75	-2.161133	0.777832	2.783691	38.500000	526.119995	-88.199997	846.00	0.28	-0.03	6.00	7.50	1.75	3.00	0.00	0.00	1.75	0.00	0.00	0.00	0.00	0.00	0.00	0.00	0.00	0.00	0.464844	-0.487793	0.953613	-24.290001	189.490005	114.660004	210.00	-0.32	-0.02
2.78	0.00	0.00	0.00	0.00	0.00	0.00	0.75	1.00	5.50	9.25	10.00	8.00	3.00	19.00	7.00	6.00	-2.108887	0.819824	3.441895	74.550003	526.330017	-73.779999	678.00	0.29	-0.02	9.50	10.75	2.75	5.00	0.00	0.00	1.75	0.00	0.00	0.00	0.00	0.00	0.00	0.00	0.00	0.00	-0.169434	-0.920898	1.923340	-3.570000	244.089996	40.459999	309.00	-0.33	-0.03
2.79	0.00	0.00	0.00	0.00	0.00	0.00	0.75	0.25	3.50	8.25	8.50	7.00	2.00	15.00	5.50	5.00	-1.568359	0.901367	3.313477	128.169998	503.230011	-76.440002	540.00	0.29	-0.02	15.75	15.75	4.75	6.25	0.00	0.00	1.75	0.00	0.00	0.00	0.00	0.00	0.00	0.00	0.00	0.00	-0.348145	-0.832031	1.685547	27.790001	247.800003	-7.420000	456.00	-0.35	-0.02
2.80	0.00	0.00	0.00	0.00	0.00	0.00	0.50	0.25	1.75	7.25	7.50	6.00	1.50	11.75	3.50	4.50	-1.354980	0.556641	3.412598	187.389999	486.850006	-93.099998	426.00	0.29	-0.04	19.75	19.50	7.00	9.00	0.00	0.00	1.75	0.00	0.00	0.00	0.00	0.25	0.00	0.00	0.00	0.00	-0.658203	-0.047363	1.862793	42.420002	267.329987	-62.369999	590.00	-0.35	-0.03
2.81	0.00	0.00	0.00	0.00	0.00	0.00	0.50	0.00	1.50	6.50	6.75	5.00	1.00	8.50	2.00	4.25	-0.842773	1.100098	2.153809	220.430008	451.850006	-120.750000	344.00	0.28	-0.04	23.00	21.50	9.00	10.75	0.25	1.00	2.00	0.25	0.00	0.00	0.00	0.00	0.25	0.00	0.00	0.00	-0.749023	1.050781	2.447266	54.110001	284.480011	-71.889999	704.00	-0.34	-0.03
2.82	0.00	0.00	0.00	0.00	0.00	0.00	0.75	0.00	1.25	5.50	6.25	4.75	0.75	5.25	0.75	4.00	-0.043945	1.031250	3.321777	255.500000	436.309998	-153.229996	281.00	0.27	-0.05	24.50	22.25	10.50	12.50	1.25	2.75	2.00	0.75	0.00	0.00	0.00	0.50	0.50	0.00	0.00	0.00	-0.662598	0.854004	2.248047	28.910000	263.619995	-37.869999	808.00	-0.32	-0.04
2.83	0.00	0.00	0.00	0.00	0.00	0.00	1.00	0.00	0.25	5.25	6.25	4.50	0.25	2.50	0.25	4.00	0.798828	0.308105	3.345215	285.110016	404.320007	-200.199997	234.00	0.25	-0.08	24.75	22.75	11.75	13.50	1.75	5.00	2.25	1.75	0.00	0.00	0.00	0.25	0.75	0.00	0.00	0.00	-0.465820	0.424316	2.046387	-39.549999	199.009995	-8.120000	888.00	-0.31	-0.05
2.84	0.00	0.00	0.00	0.00	0.00	0.00	1.00	0.00	0.50	5.25	6.25	4.00	0.00	1.50	0.75	3.50	3.742676	-1.317871	3.640137	227.149994	324.100006	-258.720001	224.00	0.25	-0.07	25.25	22.75	12.50	14.25	2.75	6.75	2.50	3.00	0.00	0.00	0.00	0.50	1.50	0.25	0.00	0.00	-0.400879	0.118164	1.525391	-71.120003	135.589996	0.490000	974.00	-0.29	-0.06
2.85	0.00	0.00	0.00	0.00	0.00	0.00	1.00	0.00	0.75	5.00	6.00	4.00	0.00	2.00	0.25	4.00	1.201660	1.862793	6.428223	55.299999	42.349998	-242.550003	224.00	0.25	-0.06	25.25	22.50	13.00	14.75	4.25	8.00	2.50	3.75	0.00	0.00	0.00	0.75	1.75	0.50	0.25	0.00	-0.296875	0.117676	1.374512	-62.230000	85.889999	0.420000	1034.00	-0.28	-0.07
2.86	0.00	0.00	0.00	0.00	0.00	0.00	0.75	0.00	0.50	5.00	6.00	3.75	0.25	1.25	0.00	3.75	1.474609	0.500977	4.214844	-22.750000	-204.750000	-156.100006	206.00	0.24	-0.08	25.50	22.25	13.50	15.00	5.25	8.50	2.75	5.75	0.00	0.00	0.25	0.50	2.50	0.75	0.00	0.25	-0.271973	0.152344	1.240234	-42.980000	50.400002	1.820000	1100.00	-0.26	-0.08
2.87	0.00	0.00	0.00	0.00	0.00	0.00	1.00	0.00	0.50	4.75	5.75	3.50	0.00	1.25	0.25	3.75	0.705566	0.556152	2.038574	-94.360001	-289.869995	-88.690002	202.00	0.24	-0.07	25.00	22.00	13.50	15.25	5.75	9.00	2.75	6.25	0.00	0.00	0.00	0.75	3.00	1.00	0.25	0.00	-0.216309	0.151855	1.141602	-26.040001	28.070000	2.590000	1122.00	-0.26	-0.08
2.88	0.00	0.00	0.00	0.00	0.00	0.00	1.00	0.00	0.50	4.75	5.75	3.75	0.00	1.00	0.00	3.75	0.504883	0.653320	1.160156	-139.300003	-278.950012	-42.279999	200.00	0.24	-0.07	24.75	22.25	13.75	15.50	6.00	9.00	2.75	6.75	0.00	0.25	0.00	1.00	2.75	1.00	0.00	0.00	-0.177734	0.153320	1.060547	-15.610000	17.430000	2.870000	1138.00	-0.25	-0.08
2.89	0.00	0.00	0.00	0.25	0.00	0.00	1.00	0.00	0.50	4.50	5.50	3.50	0.00	1.25	0.00	3.75	0.614746	0.946777	0.922363	-119.279999	-259.910004	-21.070000	197.00	0.23	-0.07	25.00	22.00	13.75	15.50	6.25	9.75	2.75	7.25	0.00	0.00	0.25	0.75	3.50	1.25	0.25	0.25	-0.172363	0.158691	1.031738	-12.110000	12.810000	2.660000	1167.00	-0.25	-0.09
2.90	0.00	0.00	0.00	0.00	0.00	0.00	1.00	0.00	0.00	4.50	5.50	3.50	0.00	0.75	0.00	3.75	0.419434	0.412598	1.548340	12.460000	-312.480011	-24.639999	183.00	0.24	-0.09	24.25	21.75	13.75	15.75	6.50	10.00	3.00	7.25	0.00	0.25	0.50	1.00	3.75	1.25	0.25	0.25	-0.153809	0.117676	1.028320	-11.760000	9.590000	1.960000	1179.00	-0.24	-0.09
2.91	0.00	0.00	0.00	0.00	0.00	0.00	1.00	0.00	0.00	4.50	5.50	3.50	0.00	0.75	0.00	3.50	0.317383	0.129883	1.447754	20.440001	-348.880005	-28.910000	182.00	0.23	-0.09	24.50	21.75	13.50	15.50	6.50	9.75	3.00	7.50	0.00	0.25	0.00	0.75	3.75	1.25	0.25	0.25	-0.140137	0.143555	0.995605	-11.340000	7.770000	1.120000	1169.00	-0.24	-0.09
2.92	0.00	0.00	0.00	0.00	0.00	0.00	1.00	0.00	0.00	4.50	5.50	3.25	0.00	0.75	0.00	3.50	0.178223	0.226074	1.320312	-8.890000	-373.730011	-28.280001	179.00	0.23	-0.08	24.00	21.25	13.50	15.25	6.50	10.25	3.00	7.50	0.00	0.25	0.25	1.00	3.75	1.50	0.25	0.25	-0.137695	0.141113	0.987793	-10.360000	6.930000	0.420000	1169.00	-0.24	-0.09
2.93	0.00	0.00	0.00	0.00	0.00	0.00	1.00	0.00	0.00	4.25	5.50	3.00	0.00	0.50	0.00	3.25	0.036133	0.482422	1.104492	-22.889999	-389.480011	-24.290001	171.00	0.23	-0.08	23.50	20.75	13.25	15.25	6.50	10.00	3.00	7.75	0.50	0.50	0.50	1.00	3.75	1.25	0.25	0.25	-0.136230	0.136719	0.987793	-8.610000	6.440000	0.070000	1168.00	-0.23	-0.09
2.94	0.00	0.00	0.00	0.00	0.00	0.00	1.00	0.00	0.25	4.25	5.25	3.25	0.00	0.50	0.00	3.50	-0.095703	0.597168	1.016113	-1.540000	-396.829987	-18.620001	175.00	0.23	-0.08	22.75	20.25	13.00	15.00	6.50	10.00	3.25	7.75	0.50	0.25	0.50	1.00	4.00	1.50	0.50	0.50	-0.123047	0.153809	0.975098	-7.280000	6.860000	-0.490000	1159.00	-0.23	-0.09
2.95	0.00	0.00	0.00	0.00	0.00	0.00	1.00	0.00	0.00	4.25	5.00	3.25	0.00	1.00	0.00	3.50	-0.159180	0.532715	1.088379	29.889999	-398.860016	-10.710000	174.00	0.24	-0.08	22.00	19.75	12.75	14.50	6.50	10.00	3.25	7.75	0.25	0.50	0.75	1.00	4.25	1.75	0.50	0.50	-0.119141	0.157227	0.971191	-7.350000	7.980000	-1.540000	1145.00	-0.22	-0.09
2.96	0.00	0.00	0.00	0.00	0.00	0.00	1.00	0.00	0.00	4.00	5.50	3.00	0.00	0.50	0.00	4.00	-0.231445	0.484375	1.174316	44.520000	-397.179993	1.610000	172.00	0.23	-0.09	21.00	18.75	12.25	14.25	6.25	9.75	3.00	7.75	0.25	0.75	0.50	1.00	4.25	1.75	0.25	0.50	-0.128906	0.147461	0.969727	-8.330000	9.240000	-2.730000	1105.00	-0.22	-0.10
2.97	0.00	0.00	0.00	0.00	0.00	0.00	1.00	0.00	0.00	4.25	5.25	3.25	0.00	0.50	0.00	3.50	-0.283691	0.505859	1.379883	43.119999	-395.640015	20.090000	172.00	0.23	-0.09	19.75	17.75	11.75	13.75	6.25	9.75	3.25	7.75	0.25	0.75	0.75	1.25	4.75	1.75	0.25	0.50	-0.140137	0.145020	0.974609	-9.100000	9.870000	-3.640000	1085.00	-0.21	-0.10
2.98	0.00	0.00	0.00	0.00	0.00	0.00	1.00	0.00	0.00	3.75	5.50	3.00	0.00	0.50	0.00	3.75	-0.343262	0.567871	1.589355	43.820000	-401.519989	41.020000	168.00	0.23	-0.09	18.75	16.75	11.50	13.25	6.25	9.50	3.25	7.75	0.50	0.50	0.50	1.25	5.00	1.50	0.50	0.50	-0.127441	0.138184	0.956543	-10.500000	10.010000	-4.480000	1055.00	-0.21	-0.10
2.99	0.00	0.00	0.00	0.00	0.00	0.00	1.00	0.00	0.00	4.00	5.25	3.25	0.00	0.25	0.00	3.75	-0.502930	0.525391	1.650879	56.070000	-409.989990	59.500000	169.00	0.23	-0.10	17.25	16.00	11.00	12.75	6.25	9.25	3.25	7.75	0.50	0.75	1.00	1.25	5.00	2.00	0.50	0.75	-0.135742	0.141113	0.960449	-12.040000	10.710000	-5.390000	1033.00	-0.19	-0.10
3.00	0.00	0.00	0.00	0.00	0.00	0.00	0.75	0.00	0.00	4.00	5.00	3.25	0.00	0.50	0.00	3.50	-0.713867	0.375000	1.673828	71.610001	-413.630005	75.320000	163.00	0.24	-0.10	16.00	14.25	10.50	12.25	6.00	9.00	3.50	8.00	0.75	1.00	0.75	1.50	5.00	2.00	0.50	0.75	-0.146484	0.145508	0.963867	-13.230000	10.920000	-6.160000	1000.00	-0.18	-0.10
3.01	0.00	0.00	0.00	0.25	0.00	0.00	1.00	0.00	0.00	3.75	5.25	3.25	0.00	0.00	0.00	3.50	-0.865234	0.229492	1.797363	80.500000	-412.510010	86.660004	165.00	0.22	-0.10	14.25	13.00	10.25	11.75	6.25	8.75	3.50	7.75	1.25	1.25	1.50	2.00	5.25	2.25	0.50	1.00	-0.150391	0.135742	0.975098	-14.420000	11.410000	-6.790000	987.00	-0.16	-0.10
3.02	0.00	0.00	0.00	0.00	0.00	0.00	1.00	0.00	0.00	3.75	5.00	3.00	0.00	0.50	0.00	3.75	-0.978027	0.087402	1.940918	82.529999	-411.320007	93.239998	163.00	0.23	-0.09	13.50	11.75	9.75	11.00	6.00	8.75	3.50	7.75	1.25	1.50	1.25	2.25	5.25	2.50	0.75	1.00	-0.160156	0.133301	0.958984	-16.240000	11.480000	-7.350000	958.00	-0.15	-0.10
3.03	0.00	0.00	0.00	0.00	0.00	0.00	0.75	0.00	0.00	3.75	5.00	3.00	0.00	0.00	0.00	3.50	-1.076660	0.018555	2.092773	78.050003	-411.179993	96.459999	154.00	0.23	-0.11	11.75	10.75	9.50	10.75	6.00	8.50	3.50	7.75	1.50	1.75	1.50	2.50	5.50	2.75	1.00	1.00	-0.167969	0.125977	0.964355	-18.900000	11.410000	-7.630000	941.00	-0.14	-0.10
3.04	0.00	0.00	0.00	0.00	0.00	0.00	0.75	0.00	0.00	3.75	5.00	3.00	0.00	0.00	0.00	3.50	-1.189453	0.014648	2.247559	70.699997	-411.670013	101.290001	154.00	0.23	-0.11	11.25	9.75	9.00	10.25	6.25	8.25	3.75	7.75	1.75	2.25	1.75	2.75	5.50	3.00	1.00	1.50	-0.156738	0.126953	0.958984	-21.910000	11.480000	-8.330000	938.00	-0.12	-0.10
3.05	0.00	0.00	0.00	0.00	0.00	0.00	0.75	0.00	0.00	3.50	5.00	3.00	0.00	0.00	0.00	3.25	-1.371582	0.095703	2.290527	63.630001	-410.619995	110.809998	150.00	0.23	-0.11	9.75	9.00	9.00	9.75	6.25	8.00	3.75	7.75	2.25	2.50	2.00	3.25	6.00	3.25	1.00	1.50	-0.153809	0.121582	0.970215	-23.379999	11.060000	-8.540000	931.00	-0.11	-0.10
3.06	0.00	0.00	0.00	0.00	0.00	0.00	0.75	0.00	0.00	3.75	5.00	3.00	0.00	0.00	0.00	3.50	-1.584473	0.234375	2.334961	59.920002	-405.369995	125.930000	154.00	0.23	-0.11	9.25	8.50	8.50	9.50	6.25	7.75	4.00	7.75	2.50	3.25	2.75	3.75	6.75	3.75	1.25	1.50	-0.170898	0.107910	0.961426	-25.200001	10.290000	-8.190000	951.00	-0.09	-0.10
3.07	0.00	0.00	0.00	0.00	0.00	0.00	0.75	0.00	0.00	3.75	5.00	3.00	0.00	0.00	0.00	3.50	-1.763184	0.245117	2.502930	58.240002	-397.390015	144.899994	154.00	0.23	-0.11	8.25	7.75	8.25	9.00	6.50	7.75	4.25	8.00	3.25	3.75	3.25	4.25	7.25	4.25	1.25	1.75	-0.170898	0.108398	0.976074	-24.920000	10.010000	-8.190000	971.00	-0.07	-0.10
3.08	0.00	0.00	0.00	0.00	0.00	0.00	0.75	0.00	0.00	3.75	5.00	3.00	0.00	0.00	0.00	3.75	-2.029785	0.230957	2.572754	57.400002	-390.809998	159.110001	155.00	0.23	-0.11	8.00	7.00	8.25	8.75	6.75	7.50	4.50	8.00	4.25	4.50	4.00	5.00	7.75	4.75	1.50	1.75	-0.166992	0.107910	0.978027	-23.870001	10.360000	-8.190000	1011.00	-0.05	-0.09
3.09	0.00	0.00	0.00	0.00	0.00	0.00	0.75	0.00	0.00	3.75	5.00	3.00	0.00	0.00	0.00	3.50	-2.383789	0.157715	2.406738	56.910000	-380.519989	163.520004	154.00	0.23	-0.11	7.00	6.50	8.00	8.25	6.50	7.50	4.75	8.00	5.00	5.75	5.75	6.00	8.00	5.50	1.75	2.25	-0.182129	0.097656	0.979004	-22.120001	11.270000	-8.610000	1054.00	-0.02	-0.09
3.10	0.00	0.00	0.00	0.00	0.00	0.00	0.75	0.00	0.00	3.75	5.00	3.00	0.00	0.00	0.00	3.50	-2.731445	0.066895	2.114258	55.930000	-358.890015	157.990005	154.00	0.23	-0.11	6.25	6.00	7.50	7.75	6.50	7.00	5.00	8.00	6.00	7.50	7.00	7.25	8.50	6.25	2.00	2.50	-0.169922	0.103027	0.976074	-20.299999	12.600000	-9.100000	1102.00	0.01	-0.09
3.11	0.00	0.00	0.00	0.00	0.00	0.00	0.75	0.00	0.00	3.50	4.75	3.00	0.00	0.00	0.00	3.50	-3.271484	-0.045410	1.500488	54.599998	-293.230011	126.559998	148.00	0.23	-0.11	5.75	5.75	7.25	7.50	6.50	6.75	5.25	8.25	7.00	8.50	8.00	8.25	8.50	7.00	2.25	2.75	-0.179199	0.102051	0.987793	-17.500000	14.000000	-9.660000	1148.00	0.02	-0.08
3.12	0.00	0.00	0.00	0.00	0.00	0.00	0.75	0.00	0.00	3.50	5.00	3.00	0.00	0.00	0.00	3.50	-3.519043	-0.130859	1.140625	56.139999	-254.869995	113.680000	151.00	0.23	-0.11	5.25	5.00	7.00	7.25	6.25	6.50	5.25	8.25	7.75	9.25	8.75	8.75	9.00	8.00	2.50	3.00	-0.193359	0.094238	0.984863	-14.210000	15.400000	-10.220000	1173.00	0.04	-0.08
3.13	0.00	0.00	0.00	0.00	0.00	0.00	0.75	0.00	0.00	3.75	5.00	3.00	0.00	0.00	0.00	3.50	-3.773926	-0.158691	0.688477	50.119999	-213.009995	111.160004	154.00	0.23	-0.11	4.25	4.25	6.25	6.25	6.00	6.25	5.50	8.25	8.50	9.75	9.25	9.25	9.25	8.75	2.75	3.50	-0.193848	0.104980	0.989258	-11.060000	17.639999	-10.780000	1174.00	0.06	-0.08
3.14	0.00	0.00	0.00	0.00	0.00	0.00	0.75	0.00	0.00	3.75	4.75	3.25	0.00	0.00	0.00	3.50	-4.033691	-0.115234	0.174316	36.400002	-163.520004	121.379997	154.00	0.23	-0.11	4.00	3.25	6.00	6.00	5.75	6.00	5.50	8.00	9.25	10.50	10.00	9.75	9.50	9.75	3.00	4.25	-0.190918	0.086914	0.979980	-8.610000	20.930000	-11.410000	1196.00	0.08	-0.07
3.15	0.00	0.00	0.00	0.00	0.00	0.00	0.75	0.00	0.00	3.50	4.50	3.25	0.00	0.00	0.00	3.50	-4.285645	0.039062	-0.233887	21.700001	-105.980003	141.470001	148.00	0.23	-0.11	3.00	3.00	5.25	5.50	5.25	5.50	5.75	8.25	10.00	11.50	10.75	10.50	10.00	11.50	3.50	4.75	-0.200684	0.107910	0.964844	-6.650000	24.150000	-12.250000	1229.00	0.10	-0.07
3.16	0.00	0.00	0.00	0.00	0.00	0.00	0.75	0.00	0.00	3.75	4.75	3.00	0.00	0.00	0.00	3.25	-4.456543	0.057129	-0.433594	15.960000	-47.599998	163.800003	150.00	0.23	-0.10	2.25	2.25	4.75	5.00	4.75	5.25	5.75	8.00	11.00	12.25	11.75	11.25	10.25	13.50	5.00	5.00	-0.191895	0.104980	0.998535	-4.480000	28.980000	-13.300000	1267.00	0.12	-0.07
3.17	0.00	0.00	0.00	0.00	0.00	0.00	0.75	0.00	0.00	3.75	4.75	3.50	0.00	0.25	0.00	3.75	-4.720703	-0.173828	-0.315430	21.490000	4.410000	178.500000	160.00	0.23	-0.11	1.50	1.50	3.50	3.75	3.75	4.50	6.00	8.00	12.00	13.00	12.50	11.75	10.50	15.00	5.25	5.75	-0.197266	0.100098	1.004395	-2.170000	35.139999	-14.560000	1265.00	0.15	-0.06
3.18	0.00	0.00	0.00	0.00	0.00	0.00	0.75	0.00	0.00	3.50	4.75	3.00	0.00	0.25	0.00	3.75	-4.741699	-0.279785	-0.307617	13.580000	55.369999	181.580002	152.00	0.24	-0.11	1.50	1.25	2.50	3.50	3.00	3.50	6.00	8.00	13.00	14.00	13.50	12.50	11.00	17.25	6.25	6.25	-0.219727	0.109863	1.020996	4.760000	50.540001	-19.320000	1308.00	0.17	-0.06
3.19	0.00	0.00	0.00	0.00	0.00	0.00	0.75	0.00	0.00	3.75	5.00	3.00	0.00	0.00	0.00	3.50	-4.479004	-0.217773	-0.205078	6.160000	108.989998	176.960007	154.00	0.23	-0.11	1.00	0.75	2.25	2.25	2.00	2.50	6.00	7.75	14.00	15.00	14.25	13.25	11.00	19.50	7.25	6.75	-0.261719	0.102051	1.045898	11.340000	61.320000	-22.610001	1328.00	0.19	-0.05
3.20	0.00	0.00	0.00	0.00	0.00	0.00	0.75	0.00	0.00	3.75	4.75	3.00	0.00	0.25	0.00	3.25	3.341309	-2.920898	0.334961	11.480000	167.089996	167.089996	152.00	0.23	-0.10	0.75	0.75	1.75	2.25	1.25	2.00	5.75	7.25	14.75	15.50	15.00	13.75	11.25	21.50	7.75	7.00	-0.313965	0.097168	1.051270	19.180000	76.230003	-25.410000	1349.00	0.20	-0.04
3.21	0.75	2.00	0.00	0.25	0.00	0.00	0.75	0.00	0.00	3.50	5.00	3.25	0.00	0.00	0.00	3.50	1.729492	-0.345215	2.460449	49.139999	194.669998	133.070007	183.00	0.13	-0.11	0.25	0.00	1.25	1.00	0.50	1.50	5.75	6.50	15.25	16.00	15.50	14.25	11.00	23.50	8.00	7.25	-0.281250	0.146973	1.069824	29.120001	102.760002	-24.360001	1333.00	0.23	-0.04
3.22	3.00	5.00	0.50	0.00	0.00	0.00	0.75	0.00	0.00	3.50	4.75	3.00	0.00	0.00	0.00	3.50	0.849121	-1.337891	0.337891	41.230000	134.960007	76.930000	231.00	0.00	-0.09	0.00	0.00	0.75	1.25	0.50	1.25	5.50	5.75	16.00	16.50	16.00	14.25	11.00	25.50	9.00	7.75	-0.325195	0.088379	1.121094	37.590000	135.729996	-24.920000	1360.00	0.24	-0.03
3.23	6.25	8.75	1.00	1.50	0.00	0.00	0.75	0.00	0.00	3.75	5.25	3.25	0.00	0.00	0.00	3.50	-0.708984	-0.955566	0.236816	-2.800000	202.930008	17.500000	332.00	-0.09	-0.08	0.00	0.00	0.50	1.00	0.25	1.00	5.25	5.00	16.50	17.00	16.25	14.25	10.50	27.25	9.50	7.75	-0.344727	0.145508	1.106934	38.920002	167.160004	-25.690001	1364.00	0.24	-0.02
3.24	10.00	14.25	2.00	2.50	0.00	0.00	0.75	0.00	0.00	3.25	4.75	3.50	0.00	0.25	0.00	3.50	-0.502930	0.493652	3.398438	4.970000	234.779999	-17.780001	438.00	-0.17	-0.07	0.00	0.00	1.00	0.25	0.00	0.25	5.00	3.75	17.00	17.25	16.25	14.25	10.25	28.75	10.00	8.25	-0.343262	0.192871	1.087891	30.100000	200.339996	-29.260000	1356.00	0.26	-0.01
3.25	15.75	20.50	4.00	4.00	0.50	0.00	0.75	0.00	0.00	3.25	5.00	3.25	0.00	0.50	0.00	3.50	-0.554199	-0.164551	1.441895	56.420002	210.770004	-15.960000	601.00	-0.22	-0.06	0.25	0.00	0.50	0.00	0.00	0.25	4.50	2.75	17.25	17.25	16.25	14.00	9.50	30.00	10.25	8.50	-0.460938	0.155762	1.157715	20.580000	236.320007	-33.740002	1336.00	0.26	-0.00
3.26	19.25	24.50	5.75	5.75	0.25	0.00	0.75	0.00	0.00	3.25	4.50	3.50	0.00	0.25	0.00	3.50	-0.320801	0.057617	1.297852	71.120003	249.619995	-29.540001	705.00	-0.25	-0.06	0.00	0.00	0.25	0.25	0.00	0.00	4.00	2.25	17.00	17.00	16.00	13.50	8.75	31.00	10.75	8.25	-0.429199	0.161133	1.199707	2.590000	267.610016	-38.150002	1308.00	0.27	0.00
3.27	22.50	26.75	7.75	8.50	0.50	0.25	0.75	0.25	0.00	3.00	4.75	3.50	0.00	0.50	0.00	3.50	-0.603027	0.584473	2.031250	75.110001	282.730011	-35.000000	824.00	-0.26	-0.06	0.00	0.00	0.00	0.00	0.00	0.00	3.50	1.50	17.00	16.75	15.75	13.00	8.00	31.75	10.50	8.25	-0.495605	0.197266	1.146973	-12.040000	295.540009	-43.820000	1270.00	0.28	0.01
3.28	24.00	28.75	9.25	10.50	1.25	1.75	0.75	0.25	0.00	3.25	4.75	3.50	0.25	0.75	0.00	3.50	-0.286133	0.346191	1.733398	74.830002	283.220001	-29.330000	928.00	-0.26	-0.06	0.00	0.00	0.00	0.00	0.00	0.00	3.00	1.00	16.75	16.75	15.00	12.50	6.75	32.25	10.25	8.00	-0.536621	0.241211	1.273438	-25.690001	324.869995	-51.520000	1228.00	0.28	0.02
3.29	24.25	29.75	11.00	12.75	2.00	3.75	1.00	1.25	0.00	3.25	4.75	3.50	0.50	1.50	0.00	3.50	-0.418945	0.339355	1.840820	63.840000	268.589996	-26.670000	1041.00	-0.25	-0.07	0.00	0.00	0.00	0.00	0.00	0.00	2.50	0.75	16.25	16.25	14.25	11.50	5.75	31.75	10.50	7.75	-0.600098	0.212891	1.139160	-32.619999	354.410004	-61.389999	1174.00	0.29	0.02
3.30	25.25	30.00	12.25	14.50	3.00	6.50	1.00	2.00	0.00	3.25	4.50	3.50	0.75	1.50	0.00	3.75	-0.527344	0.404297	2.004883	27.860001	220.779999	-23.030001	1140.00	-0.24	-0.08	0.00	0.00	0.00	0.00	0.00	0.00	2.25	0.50	15.50	15.75	13.75	10.75	4.75	31.25	10.25	7.25	-0.618652	0.291992	1.040039	-35.000000	387.799988	-74.059998	1120.00	0.29	0.03
3.31	25.75	30.50	13.00	15.50	4.50	7.75	1.25	4.00	0.00	3.25	4.50	3.50	1.00	1.50	0.00	3.75	-0.399414	0.305176	1.508301	-16.520000	152.039993	-15.540000	1236.00	-0.23	-0.08	0.00	0.00	0.00	0.00	0.00	0.00	2.00	0.25	14.00	15.25	12.75	10.25	3.75	30.25	10.25	6.75	-0.692871	0.247559	1.389160	-39.270000	405.299988	-85.330002	1052.00	0.29	0.03
3.32	26.00	29.75	13.75	16.25	5.75	8.50	1.25	5.25	0.00	3.75	4.50	3.50	1.50	2.00	0.00	3.50	-0.301270	0.109863	1.216309	-27.719999	59.010002	-6.580000	1301.00	-0.22	-0.09	0.00	0.00	0.00	0.00	0.00	0.00	1.75	0.25	11.50	13.75	11.50	9.25	3.00	28.75	9.75	6.00	-0.939453	0.355469	1.664551	-28.980000	445.549988	-95.690002	948.00	0.30	0.03
3.33	25.25	30.00	14.25	16.75	6.00	9.50	1.50	5.75	0.00	3.50	4.50	3.75	1.75	2.00	0.00	3.75	-0.249023	0.293945	1.075684	-14.700000	30.940001	-6.090000	1336.00	-0.22	-0.09	0.00	0.00	0.00	0.00	0.00	0.00	1.75	0.00	8.75	11.50	10.00	8.25	2.75	26.25	9.25	5.00	-1.469238	0.408203	2.213867	2.660000	470.750000	-95.830002	824.00	0.30	0.02
3.34	25.75	29.50	14.25	16.75	6.50	9.75	1.50	6.00	0.00	3.50	4.50	3.75	2.00	2.25	0.00	3.75	-0.183594	0.149902	1.000488	-10.640000	23.170000	-4.480000	1352.00	-0.22	-0.09	0.00	0.00	0.00	0.00	0.00	0.00	1.75	0.00	6.25	9.50	8.25	6.75	2.00	23.00	8.25	3.00	-1.665527	0.628418	2.545898	48.020000	474.179993	-87.220001	681.00	0.30	0.03
3.35	25.50	29.25	14.25	17.00	6.75	10.25	1.50	6.50	0.00	3.50	4.50	3.75	2.00	2.25	0.25	4.00	-0.157227	0.114258	1.157227	-7.770000	19.879999	-4.200000	1370.00	-0.21	-0.09	0.00	0.00	0.00	0.00	0.00	0.00	1.75	0.00	4.25	8.00	6.00	4.50	1.75	18.25	6.75	1.50	-1.950684	0.565918	2.850586	96.040001	471.239990	-79.940002	525.00	0.30	0.03
3.36	25.00	29.00	14.00	17.00	7.00	10.75	1.75	6.75	0.00	3.50	4.75	3.75	2.00	2.00	0.00	4.00	-0.128906	0.145508	0.874023	-6.160000	17.710001	-4.620000	1373.00	-0.21	-0.10	0.00	0.00	0.00	0.00	0.00	0.00	1.75	0.00	2.75	6.25	4.00	3.00	1.00	13.75	5.25	0.50	-1.310547	0.836914	2.872559	131.740005	461.160004	-83.860001	385.00	0.30	0.05
3.37	24.25	28.25	14.25	16.75	7.25	11.00	1.75	7.00	0.00	3.75	4.50	4.00	2.25	2.25	0.00	4.00	-0.123047	0.144043	0.957520	-6.930000	17.360001	-5.110000	1375.00	-0.21	-0.10	0.00	0.00	0.00	0.00	0.00	0.00	1.75	0.00	1.50	5.00	3.00	2.25	0.50	9.50	3.75	0.25	-2.031250	0.367676	3.003418	176.750000	456.540009	-98.349998	279.00	0.30	0.05
3.38	23.75	27.75	14.00	17.25	7.75	11.25	1.75	7.25	0.00	3.50	4.50	4.00	2.75	2.50	0.00	4.00	-0.155273	0.129883	0.972656	-7.490000	17.430000	-5.810000	1384.00	-0.20	-0.10	0.00	0.00	0.00	0.00	0.00	0.00	1.75	0.00	0.50	3.50	2.00	1.50	0.25	6.75	2.00	0.00	-0.267578	1.254395	2.325684	270.339996	451.920013	-143.009995	187.00	0.28	0.06
3.39	22.75	27.00	13.75	17.00	8.00	11.50	2.00	7.50	0.00	3.75	5.00	4.00	2.75	2.50	0.00	4.00	-0.179688	0.162109	0.952637	-7.420000	17.920000	-6.440000	1382.00	-0.20	-0.10	0.00	0.00	0.00	0.00	0.00	0.00	1.75	0.00	0.25	2.00	1.00	0.75	0.25	4.00	1.00	0.25	0.145508	0.876953	3.312500	339.989990	435.610016	-180.180008	117.00	0.27	0.08
3.40	22.00	26.00	13.50	16.00	8.00	11.75	2.25	7.75	0.00	4.00	5.00	4.25	3.00	2.50	0.25	4.00	-0.150879	0.159180	1.064453	-8.190000	19.389999	-6.860000	1372.00	-0.19	-0.10	0.00	0.00	0.00	0.00	0.00	0.00	2.00	0.00	0.00	1.25	0.75	0.50	0.00	2.50	0.50	0.00	0.626465	-0.365234	3.044434	355.459991	367.920013	-234.990005	83.00	0.23	0.11
3.41	20.75	24.75	13.00	15.75	8.25	11.25	2.25	7.75	0.25	4.25	5.25	4.00	3.25	2.75	0.00	4.25	-0.171875	0.138184	0.971191	-8.960000	20.299999	-7.350000	1345.00	-0.18	-0.10	0.25	0.00	0.00	0.00	0.00	0.00	2.25	0.00	0.00	1.50	0.75	0.25	0.00	1.25	0.25	0.00	2.090332	1.063477	4.015137	215.529999	177.380005	-270.200012	76.00	0.17	0.13
3.42	20.00	23.25	12.75	15.00	8.50	11.25	2.50	8.00	0.25	4.25	5.50	4.25	3.25	2.75	0.25	4.25	-0.167480	0.131348	0.962402	-9.520000	20.790001	-7.490000	1331.00	-0.17	-0.10	0.00	0.00	0.00	0.00	0.00	0.00	2.00	0.00	0.25	1.25	1.00	0.25	0.00	0.75	0.50	0.00	1.391113	1.011719	6.662598	76.370003	-146.020004	-172.550003	71.00	0.20	0.11
3.43	18.50	21.25	12.00	13.75	8.25	11.00	2.50	8.00	0.00	4.00	5.25	4.50	3.75	2.75	0.25	4.25	-0.141113	0.240723	0.957520	-10.150000	22.260000	-7.420000	1268.00	-0.16	-0.11	0.00	0.25	0.00	0.00	0.00	0.00	2.00	0.00	0.00	1.50	0.75	0.25	0.00	0.75	0.75	0.00	1.336914	0.476562	2.547363	-42.700001	-308.630005	-54.880001	73.00	0.18	0.09
3.44	16.75	19.25	11.50	13.25	8.50	10.50	2.75	8.00	0.50	4.50	5.50	4.50	4.00	2.75	0.50	4.50	-0.167969	0.134766	0.957520	-11.480000	24.080000	-7.280000	1242.00	-0.15	-0.11	0.25	0.00	0.00	0.00	0.00	0.00	2.00	0.00	0.00	1.00	0.50	0.00	0.00	0.50	0.50	0.00	0.871094	1.091797	1.218262	-127.120003	-321.790009	11.830000	58.00	0.15	0.14
3.45	15.00	17.25	11.00	12.00	8.50	10.00	2.75	8.00	0.50	4.50	5.75	4.75	4.00	3.00	0.25	4.50	-0.172363	0.127441	0.954590	-13.020000	26.389999	-7.560000	1185.00	-0.14	-0.11	0.00	0.00	0.00	0.00	0.00	0.00	2.00	0.00	0.00	1.00	0.50	0.00	0.00	0.50	0.00	0.00	0.812988	1.449219	1.152832	-67.900002	-284.690002	39.340000	50.00	0.16	0.16
3.46	12.75	15.50	10.00	11.00	8.50	9.75	2.75	8.00	0.75	4.50	6.00	5.00	4.50	3.25	0.25	4.75	0.063965	0.284668	0.982910	-13.650000	28.280001	-7.980000	1137.00	-0.12	-0.11	0.00	0.00	0.00	0.00	0.00	0.00	2.00	0.00	0.00	1.00	0.50	0.00	0.00	0.00	0.25	0.00	0.838379	0.987793	1.531738	58.380001	-294.980011	36.119999	49.00	0.00	0.00
3.47	11.75	12.75	9.75	9.75	8.25	9.25	3.00	8.00	0.75	4.75	6.25	5.25	5.00	3.00	0.50	4.75	-0.180664	0.114746	0.957031	-14.000000	29.469999	-8.260000	1093.00	-0.10	-0.11	0.00	0.00	0.00	0.00	0.00	0.00	2.25	0.00	0.00	0.75	0.50	0.00	0.00	0.00	0.00	0.00	0.532715	0.380371	1.949219	152.320007	-338.660004	23.450001	47.00	0.00	0.00
3.48	9.75	11.00	9.00	9.00	8.25	9.00	3.00	8.00	1.00	5.00	6.75	5.50	5.00	3.75	0.50	4.75	-0.180664	0.113281	0.954102	-14.490000	30.170000	-8.680000	1057.00	-0.08	-0.11	0.00	0.25	0.00	0.00	0.00	0.00	2.00	0.00	0.00	0.50	0.25	0.00	0.00	0.00	0.00	0.00	0.398438	-0.115723	1.816895	167.020004	-380.239990	17.080000	40.00	0.00	0.00
3.49	9.00	9.25	8.50	8.50	8.00	8.50	3.25	8.00	1.00	5.50	6.75	6.00	5.50	4.00	0.75	5.00	-0.187012	0.128418	0.971191	-15.470000	30.870001	-9.240000	1039.00	-0.06	-0.11	0.00	0.00	0.00	0.00	0.00	0.00	2.00	0.00	0.00	0.00	0.25	0.00	0.00	0.25	0.00	0.00	0.263672	-0.106934	1.428711	125.650002	-406.839996	17.920000	35.00	0.00	0.00
3.50	7.75	8.25	8.25	8.00	8.00	8.25	3.25	8.00	1.75	6.25	7.25	6.50	5.75	4.75	0.75	5.00	-0.196777	0.107910	0.951172	-16.660000	30.450001	-9.730000	1042.00	-0.04	-0.11	0.00	0.00	0.00	0.00	0.00	0.00	2.00	0.00	0.00	0.50	0.00	0.00	0.00	0.00	0.00	0.00	0.059570	0.046387	1.065918	89.529999	-412.579987	22.049999	35.00	0.00	0.00
3.51	6.75	7.25	7.75	7.50	8.00	8.00	3.50	8.00	2.00	6.75	7.50	7.00	6.00	4.75	1.00	5.25	-0.195312	0.116699	0.954590	-18.760000	30.170000	-10.220000	1035.00	-0.03	-0.11	0.00	0.00	0.00	0.00	0.00	0.00	2.00	0.00	0.00	0.25	0.00	0.00	0.00	0.00	0.00	0.00	-0.082520	0.123535	0.902832	91.139999	-402.709991	24.290001	33.00	0.00	0.00
3.52	6.50	6.50	7.75	7.00	8.00	7.75	3.75	8.00	2.75	7.25	8.00	7.50	6.25	5.25	1.00	5.50	-0.207520	0.106934	0.955078	-20.090000	29.049999	-10.500000	1055.00	-0.01	-0.10	0.00	0.00	0.00	0.00	0.00	0.00	2.00	0.00	0.00	0.25	0.00	0.00	0.00	0.00	0.00	0.00	-0.150879	0.039062	0.972168	111.510002	-387.170013	23.870001	33.00	0.00	0.00
3.53	5.50	6.00	7.25	6.25	7.75	7.50	4.00	8.00	3.25	7.50	8.25	8.00	6.75	6.25	1.25	5.50	-0.220703	0.110840	0.956543	-18.969999	27.090000	-10.500000	1057.00	0.01	-0.10	0.00	0.00	0.00	0.00	0.00	0.00	2.00	0.00	0.00	0.00	0.00	0.00	0.00	0.00	0.00	0.00	-0.176758	-0.055664	1.178711	122.779999	-374.850006	24.080000	30.00	0.00	0.00
3.54	5.25	5.25	7.00	6.00	7.75	7.25	4.00	8.00	4.00	8.00	8.75	8.25	7.00	7.00	1.25	5.75	-0.218262	0.097168	0.962402	-18.830000	26.320000	-10.570000	1072.00	0.02	-0.10	0.00	0.00	0.00	0.00	0.00	0.00	2.00	0.00	0.00	0.00	0.00	0.00	0.00	0.00	0.00	0.00	-0.171387	-0.068359	1.517090	122.989998	-371.209991	26.530001	30.00	0.00	0.00
3.55	4.25	4.75	6.75	5.50	7.75	7.00	4.50	8.00	5.00	8.25	9.25	9.00	7.25	7.75	1.25	5.75	-0.228027	0.092285	0.951660	-18.549999	26.040001	-10.710000	1091.00	0.04	-0.09	0.00	0.00	0.00	0.00	0.00	0.00	2.00	0.00	0.00	0.00	0.00	0.00	0.00	0.00	0.00	0.00	-0.218750	-0.097168	1.703125	124.879997	-378.630005	29.400000	30.00	0.00	0.00
3.56	3.50	4.00	6.25	5.25	7.50	6.50	4.75	8.00	5.75	9.00	10.00	9.25	7.50	8.50	1.75	5.75	-0.228027	0.088867	0.961914	-17.290001	26.180000	-11.200000	1106.00	0.06	-0.09	0.00	0.00	0.00	0.00	0.00	0.00	2.00	0.00	0.00	0.00	0.00	0.00	0.00	0.00	0.00	0.00	-0.365234	-0.159180	1.649414	131.389999	-385.420013	32.060001	30.00	0.00	0.00
3.57	3.00	3.50	5.75	4.50	7.25	6.25	5.00	8.00	6.75	9.50	10.75	10.00	7.75	9.25	1.75	6.25	-0.224609	0.084961	0.949219	-15.820000	26.740000	-11.550000	1126.00	0.08	-0.08	0.25	0.25	0.00	0.00	0.00	0.00	2.00	0.00	0.00	0.00	0.00	0.00	0.00	0.00	0.00	0.00	-0.507812	-0.221191	1.680664	136.080002	-380.660004	38.009998	35.00	0.00	0.00
3.58	2.75	3.00	5.25	4.00	7.00	6.00	5.25	8.00	8.00	10.25	11.25	10.75	8.25	10.00	2.25	6.25	-0.229980	0.078613	0.968750	-13.580000	28.070000	-11.900000	1159.00	0.09	-0.08	0.00	0.00	0.00	0.00	0.00	0.00	2.00	0.00	0.00	0.00	0.00	0.00	0.00	0.00	0.00	0.00	-0.666016	-0.209473	2.092773	127.330002	-367.429993	62.930000	30.00	0.00	0.00
3.59	1.75	2.25	5.00	3.75	6.75	5.75	5.50	8.00	8.50	11.00	12.00	11.25	8.25	11.00	2.50	6.50	-0.230469	0.084473	0.957520	-10.500000	30.170000	-12.530000	1175.00	0.11	-0.07	0.00	0.00	0.00	0.00	0.00	0.00	2.00	0.00	0.00	0.00	0.00	0.00	0.00	0.00	0.00	0.00	-0.695312	-0.192383	2.280762	122.709999	-367.220001	78.610001	30.00	0.00	0.00
3.60	1.25	2.00	4.50	3.50	6.50	5.50	5.75	8.00	9.50	11.50	12.75	12.25	8.75	11.75	2.75	6.75	-0.237305	0.073730	0.950195	-7.420000	32.970001	-13.580000	1209.00	0.12	-0.07	0.25	0.00	0.00	0.00	0.00	0.00	2.00	0.00	0.00	0.00	0.00	0.00	0.00	0.00	0.00	0.00	-0.718262	-0.198242	2.411621	119.699997	-370.790009	95.550003	33.00	0.00	0.00
3.61	1.25	1.75	3.50	3.00	5.75	5.00	5.75	7.75	9.75	12.00	13.75	13.00	9.00	13.00	3.50	7.00	-0.242188	0.088867	0.960938	-4.130000	36.820000	-14.840000	1221.00	0.14	-0.07	0.00	0.00	0.00	0.00	0.00	0.00	2.00	0.00	0.00	0.00	0.00	0.00	0.00	0.00	0.00	0.00	-0.839355	-0.239258	2.492676	117.180000	-375.130005	111.650002	30.00	0.00	0.00
3.62	0.75	1.25	3.25	2.50	5.25	4.50	5.75	7.75	10.50	12.75	14.50	13.75	9.50	14.50	4.50	7.50	-0.247070	0.090820	0.957520	-0.420000	41.020000	-16.030001	1256.00	0.16	-0.07	0.00	0.00	0.00	0.00	0.00	0.00	2.00	0.00	0.00	0.00	0.00	0.00	0.00	0.00	0.00	0.00	-1.035645	-0.333008	2.462402	113.330002	-376.600006	125.160004	30.00	0.00	0.00
3.63	0.50	0.75	2.25	2.00	4.25	4.00	5.75	7.75	11.00	13.50	15.50	15.00	9.75	15.75	5.25	8.00	-0.273438	0.084961	0.956543	3.640000	45.709999	-17.780001	1277.00	0.17	-0.07	0.00	0.00	0.00	0.00	0.00	0.00	2.00	0.00	0.00	0.00	0.00	0.00	0.00	0.00	0.00	0.00	-1.223145	-0.391602	2.481445	105.139999	-373.239990	133.979996	30.00	0.00	0.00
3.64	0.25	0.50	1.75	1.75	3.00	3.25	5.75	7.50	11.50	14.25	16.50	15.75	10.50	17.25	6.50	8.50	-0.261719	0.081055	0.970215	7.630000	51.730000	-19.110001	1306.00	0.19	-0.07	0.00	0.00	0.00	0.00	0.00	0.00	2.00	0.00	0.00	0.00	0.00	0.00	0.00	0.00	0.00	0.00	-1.473145	-0.449219	2.514648	91.769997	-366.100006	137.059998	30.00	0.00	0.00
