# time	left pressure 1[N/cm²]	left pressure 2[N/cm²]	left pressure 3[N/cm²]	left pressure 4[N/cm²]	left pressure 5[N/cm²]	left pressure 6[N/cm²]	left pressure 7[N/cm²]	left pressure 8[N/cm²]	left pressure 9[N/cm²]	left pressure 10[N/cm²]	left pressure 11[N/cm²]	left pressure 12[N/cm²]	left pressure 13[N/cm²]	left pressure 14[N/cm²]	left pressure 15[N/cm²]	left pressure 16[N/cm²]	left acceleration X[g]	left acceleration Y[g]	left acceleration Z[g]	left angular X[dps]	left angular Y[dps]	left angular Z[dps]	left total force[N]	left center of pressure X[%]	left center of pressure Y[%]	right pressure 1[N/cm²]	right pressure 2[N/cm²]	right pressure 3[N/cm²]	right pressure 4[N/cm²]	right pressure 5[N/cm²]	right pressure 6[N/cm²]	right pressure 7[N/cm²]	right pressure 8[N/cm²]	right pressure 9[N/cm²]	right pressure 10[N/cm²]	right pressure 11[N/cm²]	right pressure 12[N/cm²]	right pressure 13[N/cm²]	right pressure 14[N/cm²]	right pressure 15[N/cm²]	right pressure 16[N/cm²]	right acceleration X[g]	right acceleration Y[g]	right acceleration Z[g]	right angular X[dps]	right angular Y[dps]	right angular Z[dps]	right total force[N]	right center of pressure X[%]	right center of pressure Y[%]
0.00																										11.25	8.00	7.50	7.00	2.50	3.00	1.25	1.00	1.25	1.25	1.25	1.00	0.75	0.75	0.50	0.25	-0.260742	0.079590	0.927246	-2.940000	-5.810000	1.680000	619.00	-0.21	-0.04
0.01																										11.25	7.75	7.50	7.00	2.50	3.00	1.25	1.00	1.75	1.00	1.50	1.00	1.00	0.75	1.25	0.75	-0.253418	0.082031	0.918457	-2.870000	-5.880000	1.750000	639.00	-0.19	-0.04
0.02	3.50	3.75	3.25	3.00	0.50	1.25	0.75	1.00	0.75	1.50	0.75	0.50	0.50	1.25	0.75	0.75	-0.295898	0.031250	0.926270	-1.820000	1.680000	0.350000	300.00	-0.12	-0.05	11.00	8.25	7.50	6.75	2.50	3.00	1.25	1.00	1.50	1.50	1.50	1.00	0.75	1.25	1.00	0.50	-0.254395	0.083008	0.930664	-2.660000	-5.950000	1.750000	638.00	-0.19	-0.04
0.03	3.75	3.75	3.00	3.25	0.50	1.50	0.75	1.25	1.00	1.50	1.00	0.50	0.00	1.25	0.75	0.75	-0.290527	0.022949	0.933594	-1.750000	1.610000	0.420000	313.00	-0.12	-0.05	11.00	8.00	7.50	6.75	2.50	3.00	1.50	0.75	2.00	1.50	1.50	1.25	0.75	1.00	0.75	0.50	-0.259277	0.083008	0.923340	-2.590000	-5.880000	1.890000	641.00	-0.19	-0.03
0.04	3.75	3.50	2.50	2.75	0.50	1.50	0.75	1.25	1.00	1.50	1.00	0.50	0.25	1.00	1.00	1.00	-0.289062	0.028809	0.934570	-1.750000	1.540000	0.420000	302.00	-0.11	-0.06	11.00	8.00	7.50	7.00	2.50	3.25	1.25	1.00	1.50	1.50	1.25	1.00	0.75	0.75	1.00	0.50	-0.257812	0.083496	0.930664	-2.660000	-6.090000	1.890000	634.00	-0.20	-0.04
0.05	3.50	3.50	2.75	2.50	0.50	0.75	0.75	1.75	1.00	1.50	1.00	0.50	0.00	1.00	1.00	0.75	-0.290039	0.031738	0.934570	-1.750000	1.540000	0.490000	294.00	-0.10	-0.05	11.00	8.00	7.50	7.00	2.25	3.00	1.25	1.00	1.75	1.50	1.75	1.00	1.00	1.00	1.25	0.50	-0.256836	0.083496	0.926758	-2.660000	-6.020000	1.890000	646.00	-0.19	-0.04
0.06	3.75	3.50	2.75	3.00	0.50	1.25	0.75	1.00	1.00	1.50	1.00	0.25	0.00	1.25	1.25	0.50	-0.292969	0.025879	0.930176	-1.890000	1.680000	0.350000	297.00	-0.11	-0.04	11.00	8.00	7.50	7.00	2.50	3.00	1.25	0.75	1.50	1.50	1.50	1.00	1.00	1.00	1.25	0.50	-0.257324	0.086426	0.924316	-2.590000	-5.950000	1.890000	637.00	-0.19	-0.04
0.07	3.75	3.50	2.50	2.75	0.50	1.25	0.75	1.25	0.75	1.50	1.00	0.25	0.25	1.25	1.00	1.00	-0.291016	0.032227	0.925781	-2.030000	1.820000	0.280000	294.00	-0.11	-0.05	11.25	8.00	7.50	7.00	2.50	3.25	1.25	1.00	2.00	1.50	1.25	1.00	1.00	1.25	0.75	0.50	-0.257812	0.081055	0.921387	-2.660000	-5.950000	1.680000	649.00	-0.19	-0.03
0.08	3.50	3.25	2.75	3.00	0.50	1.00	0.75	1.25	1.00	1.25	1.00	0.50	0.00	1.00	1.00	0.75	-0.290039	0.030762	0.933105	-2.100000	1.750000	0.350000	289.00	-0.11	-0.05	11.00	8.00	7.50	7.00	2.50	3.25	1.25	0.75	2.00	1.50	1.50	1.00	1.00	1.25	0.75	0.50	-0.256348	0.081055	0.925293	-2.590000	-6.090000	1.820000	645.00	-0.19	-0.03
0.09	3.50	3.25	2.50	2.75	0.50	0.75	0.75	1.25	1.00	1.50	1.00	0.50	0.00	1.00	0.75	1.00	-0.293457	0.028320	0.935547	-2.030000	1.540000	0.350000	280.00	-0.11	-0.05	10.75	7.75	7.75	7.00	2.50	3.00	1.25	1.00	1.75	1.50	1.50	1.00	1.00	0.75	1.00	0.50	-0.257812	0.080566	0.926758	-2.520000	-6.230000	1.820000	638.00	-0.19	-0.04
0.10	3.75	3.50	3.00	3.00	0.50	1.25	0.75	1.00	0.75	1.50	1.00	0.50	0.00	1.00	1.25	0.75	-0.288574	0.024902	0.934570	-2.030000	1.540000	0.280000	299.00	-0.12	-0.05	10.75	7.75	7.50	7.50	2.50	3.25	1.25	1.00	1.75	1.50	1.50	1.25	0.75	0.75	1.00	0.75	-0.257812	0.082520	0.919434	-2.310000	-6.300000	1.960000	646.00	-0.19	-0.04
0.11	3.75	3.50	2.75	2.50	0.50	1.00	0.75	1.25	1.00	1.50	1.00	0.50	0.50	1.00	1.00	0.75	-0.295898	0.031738	0.934082	-2.100000	1.610000	0.280000	296.00	-0.11	-0.05	11.25	7.75	7.75	7.25	2.50	3.00	1.25	1.00	2.00	1.50	1.75	1.00	1.00	1.00	1.00	0.50	-0.258789	0.082031	0.922363	-2.310000	-6.230000	1.890000	657.00	-0.19	-0.04
0.12	3.75	3.75	2.50	2.75	0.50	1.50	0.75	1.00	0.75	1.25	1.00	0.25	0.25	1.25	1.25	1.00	-0.286621	0.025879	0.939941	-2.170000	1.680000	0.350000	295.00	-0.11	-0.05	11.00	8.00	7.75	7.25	2.75	3.25	1.25	1.00	1.75	1.75	1.75	1.25	1.00	1.25	1.00	0.50	-0.263184	0.083496	0.921875	-2.380000	-6.090000	1.890000	668.00	-0.18	-0.04
0.13	3.75	3.25	2.75	2.50	0.50	1.00	0.75	1.50	0.75	1.25	1.00	0.50	0.00	1.25	1.00	0.75	-0.292969	0.032227	0.937988	-2.380000	1.820000	0.280000	288.00	-0.11	-0.05	11.75	8.00	7.75	7.25	2.75	3.00	1.25	1.00	1.50	1.75	1.75	1.00	1.00	1.25	0.50	0.50	-0.258301	0.085449	0.923340	-2.380000	-6.230000	1.960000	660.00	-0.20	-0.04
0.14	3.50	3.25	2.75	2.75	0.50	1.25	0.75	1.00	0.75	1.75	1.00	0.50	0.25	1.25	0.75	0.75	-0.292969	0.026367	0.934082	-2.590000	1.890000	0.280000	288.00	-0.11	-0.05	11.50	7.75	7.75	7.00	2.50	3.00	1.25	1.00	1.50	1.50	1.50	1.25	1.00	1.00	1.00	0.50	-0.255371	0.079102	0.927734	-2.170000	-6.230000	1.820000	649.00	-0.19	-0.04
0.15	3.25	3.25	2.50	2.75	0.50	1.00	0.75	0.75	1.00	1.75	0.75	0.50	0.50	1.50	0.75	0.50	-0.288574	0.025391	0.935059	-2.590000	1.750000	0.140000	278.00	-0.10	-0.04	11.25	8.50	7.50	7.25	2.50	3.25	1.50	0.75	1.50	1.50	1.50	1.00	1.25	1.00	1.25	0.50	-0.256348	0.082031	0.928223	-2.310000	-6.300000	1.890000	659.00	-0.19	-0.04
0.16	3.50	3.00	2.75	2.75	0.50	1.00	0.75	1.25	1.00	1.25	1.00	0.50	0.50	1.00	1.25	0.75	-0.293457	0.024414	0.936523	-2.450000	1.680000	0.140000	291.00	-0.10	-0.05	11.75	8.00	7.75	7.25	2.75	3.25	1.25	1.00	2.00	1.25	1.75	1.00	1.00	1.00	1.50	0.50	-0.259277	0.083984	0.923340	-2.240000	-6.090000	1.960000	675.00	-0.19	-0.04
0.17	3.25	3.00	2.50	2.75	0.50	1.50	0.75	1.25	0.75	1.50	1.00	0.75	0.25	1.25	1.25	0.75	-0.290527	0.028809	0.928223	-2.590000	1.890000	0.140000	293.00	-0.09	-0.06	11.50	8.00	7.75	7.25	2.50	3.25	1.25	1.00	1.75	1.50	1.50	1.25	1.00	1.25	1.00	0.75	-0.258789	0.083496	0.927734	-2.240000	-6.160000	1.890000	666.00	-0.19	-0.04
0.18	3.25	3.00	2.50	2.75	0.50	0.75	0.75	0.75	0.75	1.50	1.00	0.50	0.25	1.00	1.00	0.50	-0.291504	0.025879	0.929199	-2.520000	1.820000	0.140000	264.00	-0.11	-0.04	11.75	8.25	7.75	7.25	2.50	3.25	1.50	1.00	1.75	1.75	1.50	1.25	1.00	1.00	1.00	0.75	-0.256348	0.083008	0.925781	-2.170000	-6.020000	1.960000	677.00	-0.19	-0.04
0.19	3.25	3.00	2.75	2.75	0.50	0.50	0.75	1.00	1.00	1.25	0.75	0.50	0.00	1.00	1.00	0.75	-0.296387	0.027832	0.937988	-2.380000	1.750000	0.140000	265.00	-0.11	-0.04	11.50	8.25	7.75	7.25	2.75	3.25	1.50	1.00	1.75	1.50	1.50	1.25	1.00	1.50	1.00	0.50	-0.260742	0.081055	0.926758	-2.170000	-5.950000	1.890000	677.00	-0.19	-0.04
0.20	2.75	3.25	2.25	2.25	0.50	1.25	0.75	1.00	1.00	1.50	0.75	0.75	0.50	1.00	1.25	0.75	-0.292969	0.031250	0.928711	-2.380000	1.820000	0.280000	273.00	-0.08	-0.06	11.75	8.25	7.75	7.50	2.75	3.25	1.50	1.00	2.00	1.50	1.50	1.00	0.75	1.00	0.75	0.75	-0.257812	0.085938	0.926270	-2.240000	-5.950000	1.820000	675.00	-0.19	-0.03
0.21	3.00	3.25	2.25	2.50	0.50	0.50	0.75	1.25	1.00	1.75	0.75	0.50	0.00	1.25	1.25	0.75	-0.290527	0.019531	0.934570	-2.450000	1.820000	0.140000	271.00	-0.08	-0.04	11.50	8.25	7.75	7.25	2.50	3.25	1.50	1.00	1.75	1.75	1.50	1.00	0.75	1.50	1.00	0.50	-0.259766	0.087402	0.923828	-2.310000	-6.020000	1.960000	671.00	-0.19	-0.03
0.22	3.00	3.00	2.50	2.25	0.50	1.25	0.75	1.00	1.00	1.50	0.75	0.75	0.00	1.25	1.25	0.75	-0.300293	0.024414	0.935059	-2.380000	1.750000	0.140000	274.00	-0.08	-0.04	11.75	8.00	7.75	7.25	2.75	3.25	1.50	1.00	1.75	1.50	1.75	1.00	1.25	1.00	1.00	0.25	-0.258301	0.084473	0.923828	-2.380000	-6.090000	1.960000	674.00	-0.19	-0.04
0.23	2.75	3.00	2.25	2.50	0.50	0.50	0.75	1.25	1.00	1.50	1.00	0.25	0.00	1.00	1.25	1.00	-0.294434	0.024414	0.937012	-2.380000	1.680000	0.000000	262.00	-0.08	-0.05	11.50	8.00	7.75	7.25	2.75	3.25	1.50	1.00	2.00	1.50	1.50	1.50	1.00	1.00	1.25	0.50	-0.253906	0.079590	0.926758	-2.310000	-6.020000	2.030000	680.00	-0.18	-0.04
0.24	3.00	3.00	2.50	2.50	0.50	0.50	0.75	1.25	0.75	1.50	0.75	0.25	0.00	1.25	1.00	0.50	-0.294434	0.026855	0.932617	-2.310000	1.540000	0.070000	257.00	-0.10	-0.04	11.50	8.00	7.75	7.25	2.75	3.25	1.50	1.00	1.75	1.50	1.50	1.00	1.00	1.25	1.25	0.50	-0.255371	0.083496	0.923340	-2.310000	-5.950000	1.960000	672.00	-0.19	-0.03
0.25	2.75	2.75	2.50	2.50	0.50	1.00	0.75	1.25	0.75	1.50	1.00	0.50	0.00	1.25	1.00	0.75	-0.291992	0.024414	0.936523	-2.310000	1.610000	0.210000	266.00	-0.09	-0.05	11.25	7.75	7.75	7.25	2.75	3.50	1.50	1.00	2.25	1.75	1.75	1.25	1.00	1.50	1.00	1.00	-0.263184	0.084473	0.929688	-2.310000	-5.950000	1.820000	689.00	-0.17	-0.03
0.26	3.00	2.75	2.50	2.50	0.50	1.00	0.75	0.75	1.00	1.50	0.75	0.50	0.00	1.00	1.25	0.50	-0.292480	0.027344	0.927734	-2.310000	1.540000	0.210000	259.00	-0.09	-0.03	11.25	8.25	7.75	7.25	2.75	3.25	1.50	1.00	2.00	1.50	1.75	1.00	1.00	1.50	1.00	0.75	-0.259766	0.084961	0.924805	-2.240000	-6.020000	1.890000	680.00	-0.18	-0.03
0.27	3.00	2.75	2.25	2.50	0.50	0.50	0.75	0.75	1.00	1.50	1.00	0.25	0.00	1.25	1.25	1.00	-0.294922	0.025391	0.935547	-2.310000	1.330000	0.210000	255.00	-0.08	-0.03	11.75	8.25	7.75	7.25	2.75	3.50	1.50	1.25	2.00	2.00	1.75	1.50	1.00	1.25	1.00	0.75	-0.259277	0.085449	0.928711	-2.240000	-6.020000	2.030000	704.00	-0.18	-0.04
0.28	2.75	2.75	2.50	2.50	0.50	1.00	0.75	1.00	1.00	1.50	0.75	0.75	0.00	1.00	0.75	0.75	-0.296875	0.027344	0.936523	-2.170000	1.400000	0.140000	259.00	-0.09	-0.04	11.50	8.00	7.75	7.25	2.75	3.25	1.50	1.00	2.25	1.50	1.75	1.50	0.75	1.25	1.25	0.50	-0.259766	0.083984	0.924805	-2.240000	-6.020000	2.100000	687.00	-0.18	-0.03
0.29	3.00	3.25	2.50	2.75	0.50	1.25	0.75	1.50	1.00	1.50	1.00	0.50	0.50	1.00	1.00	0.75	-0.291504	0.028809	0.930176	-2.170000	1.610000	0.210000	292.00	-0.09	-0.07	11.25	8.25	7.75	7.25	2.75	3.50	1.50	1.00	2.00	1.75	1.50	1.25	1.25	1.00	1.25	0.50	-0.256348	0.084961	0.921387	-2.240000	-6.230000	1.890000	685.00	-0.18	-0.04
0.30	3.25	2.75	2.50	2.75	0.50	0.75	0.75	1.50	0.75	1.75	1.00	0.75	0.00	1.25	1.25	0.75	-0.291504	0.025879	0.932129	-2.240000	1.750000	0.210000	286.00	-0.08	-0.05	11.50	8.25	7.75	7.25	2.50	3.25	1.50	1.00	1.75	1.75	1.75	1.25	1.00	1.25	1.25	0.75	-0.262207	0.086914	0.928223	-2.380000	-6.160000	2.030000	683.00	-0.18	-0.04
0.31	3.00	2.75	2.25	2.75	0.50	1.00	0.75	1.00	1.00	1.50	0.75	0.50	0.00	1.00	1.00	0.75	-0.295898	0.026367	0.929199	-2.030000	1.540000	0.350000	262.00	-0.10	-0.04	11.75	8.00	8.00	7.25	2.75	3.25	1.50	1.00	1.75	1.75	1.75	1.25	1.00	1.00	0.75	0.75	-0.257324	0.081543	0.924316	-2.310000	-6.090000	1.960000	681.00	-0.19	-0.04
0.32	2.75	2.50	2.50	2.50	0.50	1.25	0.75	0.75	0.75	1.50	1.00	0.50	0.25	1.00	1.25	0.75	-0.293457	0.026855	0.937012	-2.100000	1.680000	0.210000	260.00	-0.08	-0.05	11.25	8.00	7.75	7.00	2.75	3.50	1.50	1.00	2.00	1.75	1.75	1.25	1.00	1.50	1.00	0.50	-0.260254	0.083008	0.925781	-2.310000	-6.300000	1.960000	682.00	-0.18	-0.03
0.33	3.00	2.75	2.75	2.75	0.50	1.25	0.75	1.00	1.00	1.50	1.00	0.50	0.25	1.25	1.25	0.50	-0.285156	0.024414	0.930176	-2.240000	1.680000	0.350000	282.00	-0.09	-0.05	11.50	8.25	7.75	7.50	2.75	3.25	1.50	1.00	2.25	1.50	1.75	1.50	1.00	1.25	1.00	0.75	-0.256348	0.082031	0.924805	-2.240000	-6.440000	2.030000	694.00	-0.18	-0.04
0.34	3.00	2.75	2.50	2.25	0.50	1.00	0.75	1.25	1.00	1.50	1.00	0.75	0.00	1.25	1.00	0.75	-0.293945	0.027344	0.933105	-2.100000	1.540000	0.420000	273.00	-0.08	-0.05	11.50	8.25	7.75	7.50	2.75	3.50	1.50	1.00	2.25	1.75	1.75	1.25	1.25	1.00	0.75	0.50	-0.258301	0.082031	0.922852	-2.240000	-6.440000	2.030000	692.00	-0.18	-0.04
0.35	2.75	3.00	2.50	2.50	0.50	0.25	0.75	1.25	0.75	1.75	1.00	0.50	0.00	1.25	1.75	0.50	-0.297852	0.029785	0.937012	-2.100000	1.540000	0.350000	269.00	-0.07	-0.04	11.50	8.00	7.75	7.50	2.75	3.25	1.50	1.00	1.75	1.75	1.75	1.50	1.00	1.25	1.00	0.50	-0.257812	0.083008	0.928223	-2.310000	-6.510000	2.030000	685.00	-0.18	-0.04
0.36	2.75	2.75	2.50	2.25	0.50	1.25	0.75	1.00	1.00	1.75	0.75	0.50	0.00	1.25	1.25	0.75	-0.289551	0.031738	0.931641	-2.100000	1.540000	0.350000	268.00	-0.08	-0.04	11.50	8.00	7.75	7.25	2.75	3.50	1.50	1.00	2.25	1.50	1.50	1.25	1.00	1.25	1.00	0.50	-0.261230	0.084473	0.923340	-2.380000	-6.370000	1.960000	683.00	-0.18	-0.03
0.37	2.75	2.75	2.75	2.00	0.50	0.75	0.75	0.75	1.00	1.50	1.00	0.50	0.00	1.25	0.75	0.75	-0.295898	0.027832	0.934570	-2.030000	1.400000	0.280000	251.00	-0.09	-0.02	11.50	8.00	8.00	7.25	2.75	3.25	1.50	1.00	2.00	1.75	1.75	1.00	1.00	1.50	1.25	0.50	-0.258789	0.086426	0.924805	-2.310000	-6.440000	1.960000	688.00	-0.18	-0.03
0.38	2.25	2.75	2.25	2.50	0.50	1.25	0.75	0.75	0.75	1.50	1.00	0.50	0.25	1.00	1.25	0.75	-0.298828	0.028320	0.932617	-2.170000	1.470000	0.420000	253.00	-0.08	-0.05	11.25	8.25	8.00	7.25	3.00	3.75	1.50	1.25	2.00	1.75	1.50	1.25	1.25	1.50	1.00	0.50	-0.261719	0.081543	0.930176	-2.310000	-6.300000	1.960000	702.00	-0.18	-0.04
0.39	2.75	3.00	2.50	2.75	0.50	1.25	0.75	1.00	1.00	1.75	1.00	0.50	0.25	0.75	1.50	0.75	-0.294922	0.024902	0.933594	-2.310000	1.400000	0.420000	281.00	-0.08	-0.05	11.25	8.50	8.00	7.25	2.75	3.75	1.50	1.00	2.50	1.75	1.50	1.25	1.25	1.00	1.00	0.75	-0.259277	0.083496	0.928711	-2.310000	-6.300000	2.100000	701.00	-0.18	-0.04
0.40	2.50	2.50	2.50	2.50	0.50	0.75	0.75	1.50	1.00	1.50	1.00	0.75	0.50	1.25	1.25	0.75	-0.292480	0.026367	0.933105	-2.450000	1.260000	0.210000	276.00	-0.06	-0.06	11.25	8.50	7.75	7.25	2.75	3.50	1.50	1.25	2.00	1.75	1.75	1.25	1.25	1.25	1.00	0.50	-0.264648	0.083496	0.925293	-2.310000	-6.440000	2.030000	695.00	-0.18	-0.04
0.41	3.00	3.00	2.25	2.25	0.50	0.75	0.75	0.75	0.75	1.75	1.00	0.50	0.00	1.25	1.00	0.75	-0.297363	0.029297	0.933594	-2.520000	1.120000	0.280000	256.00	-0.09	-0.03	11.25	8.50	8.00	7.50	2.50	3.50	1.50	1.00	1.75	1.50	1.75	1.50	1.25	1.25	1.00	0.75	-0.258789	0.083984	0.927734	-2.310000	-6.720000	2.170000	692.00	-0.18	-0.04
0.42	2.75	2.75	2.50	2.50	0.50	1.50	0.75	0.75	1.00	1.50	0.75	0.50	0.00	1.00	0.75	0.75	-0.295410	0.026855	0.937500	-2.450000	1.120000	0.350000	258.00	-0.10	-0.04	11.00	8.25	7.75	7.50	2.50	3.50	1.50	1.25	2.25	1.75	1.75	1.50	1.00	1.25	1.00	0.50	-0.259766	0.085449	0.923340	-2.240000	-6.720000	2.100000	694.00	-0.18	-0.04
0.43	2.75	3.00	2.50	2.50	0.50	0.75	0.75	1.25	1.00	1.50	0.75	0.75	0.00	1.25	1.25	0.75	-0.290527	0.029297	0.932617	-2.380000	0.980000	0.280000	272.00	-0.08	-0.05	11.50	8.50	8.00	7.25	2.50	3.75	1.50	1.00	1.75	1.75	1.75	1.50	1.25	1.25	0.75	0.50	-0.257324	0.087402	0.927246	-2.240000	-6.790000	2.030000	693.00	-0.19	-0.04
0.44	2.75	3.00	2.50	2.50	0.50	1.75	0.75	1.00	1.00	1.50	0.75	0.50	0.00	1.00	1.25	0.75	-0.298828	0.025879	0.936523	-2.380000	0.980000	0.210000	275.00	-0.09	-0.05	11.50	8.25	8.00	7.50	2.50	3.50	1.50	1.00	1.75	1.75	1.75	1.50	1.00	1.25	1.00	0.75	-0.258301	0.083496	0.920898	-2.240000	-6.720000	1.960000	692.00	-0.18	-0.04
0.45	2.75	3.00	2.25	2.50	0.50	1.00	0.75	1.25	1.00	1.50	0.75	0.50	0.00	1.25	1.00	0.50	-0.291992	0.030762	0.937012	-2.450000	0.980000	0.420000	264.00	-0.09	-0.05	11.50	8.75	7.75	7.50	2.50	3.50	1.50	1.00	2.00	1.50	1.75	1.25	1.00	1.25	1.00	0.50	-0.263672	0.087402	0.922363	-2.380000	-6.720000	2.030000	691.00	-0.19	-0.04
0.46	3.00	2.75	2.50	2.75	0.50	0.75	0.75	1.00	1.00	1.50	1.00	0.75	0.00	1.50	1.50	0.75	-0.291992	0.024414	0.938477	-2.380000	1.050000	0.420000	280.00	-0.07	-0.04	11.50	8.75	8.00	7.50	2.50	3.50	1.50	1.00	2.00	1.50	1.75	1.25	1.00	1.50	0.50	0.50	-0.261230	0.083496	0.926758	-2.450000	-6.790000	1.960000	690.00	-0.19	-0.04
0.47	3.00	2.50	2.25	2.75	0.50	1.75	0.75	1.25	0.75	1.75	1.00	0.50	0.25	1.25	1.25	0.50	-0.288086	0.021484	0.930176	-2.380000	0.980000	0.490000	283.00	-0.08	-0.06	11.25	8.50	8.00	7.25	2.75	3.50	1.50	1.00	2.00	1.75	1.75	1.25	1.00	1.00	1.00	0.50	-0.257812	0.085938	0.927734	-2.660000	-6.650000	1.890000	689.00	-0.18	-0.04
0.48	3.00	2.50	2.50	2.00	0.50	1.00	0.75	1.25	1.25	1.50	0.75	0.50	0.00	1.25	1.50	0.50	-0.292969	0.028809	0.932617	-2.520000	1.120000	0.490000	269.00	-0.07	-0.03	11.50	8.50	8.00	8.00	2.75	3.50	1.50	1.25	2.00	1.75	1.50	1.25	1.00	1.25	1.00	0.50	-0.262207	0.090332	0.927246	-2.660000	-6.580000	1.890000	706.00	-0.19	-0.04
0.49	2.75	3.00	2.25	2.25	0.50	0.75	0.75	1.25	1.00	1.50	1.00	0.25	0.25	1.00	1.00	0.50	-0.294922	0.025879	0.936035	-2.520000	1.120000	0.420000	258.00	-0.09	-0.05	11.25	8.25	8.00	7.75	2.75	3.50	1.50	1.00	2.00	1.75	1.75	1.00	0.75	1.50	0.75	0.25	-0.260254	0.085938	0.921387	-2.590000	-6.580000	1.960000	687.00	-0.19	-0.03
0.50	2.75	3.00	2.50	2.25	0.50	1.75	0.75	1.00	1.00	1.75	1.00	0.25	0.50	1.00	1.25	0.75	-0.292969	0.026855	0.932617	-2.520000	1.050000	0.350000	280.00	-0.08	-0.05	11.50	8.25	8.00	8.00	2.75	3.50	1.50	1.00	2.00	1.75	1.75	1.25	1.00	1.25	0.75	0.50	-0.255859	0.086914	0.927246	-2.520000	-6.720000	1.890000	698.00	-0.19	-0.04
0.51	2.75	3.00	2.50	2.75	0.50	1.00	0.75	1.00	1.25	1.50	0.75	0.25	0.25	1.00	0.75	0.50	-0.291016	0.027832	0.936035	-2.660000	0.980000	0.420000	264.00	-0.10	-0.04	11.25	9.00	8.00	7.75	2.75	3.50	1.50	1.00	1.75	1.75	1.50	1.25	1.00	1.25	1.00	0.75	-0.259766	0.080078	0.929688	-2.660000	-6.790000	2.030000	698.00	-0.19	-0.04
0.52	2.50	2.50	2.75	3.00	0.50	1.00	0.75	1.00	1.00	1.50	0.75	0.50	0.00	1.25	1.00	0.50	-0.294922	0.025879	0.929688	-2.730000	0.770000	0.420000	264.00	-0.09	-0.04	11.75	8.75	8.00	7.75	2.50	3.50	1.50	1.00	2.00	1.50	1.75	1.50	1.50	1.25	1.00	0.50	-0.257812	0.089844	0.923828	-2.590000	-6.860000	2.030000	709.00	-0.18	-0.04
0.53	3.00	2.50	2.50	2.25	0.50	1.75	0.75	1.25	1.00	1.25	1.00	0.50	0.00	1.00	1.25	0.75	-0.292969	0.024902	0.936523	-2.590000	0.770000	0.490000	274.00	-0.08	-0.05	11.50	8.75	8.00	7.75	2.50	3.50	1.25	1.00	1.75	1.75	1.75	1.25	1.00	1.00	0.75	0.50	-0.262207	0.085449	0.922852	-2.590000	-6.790000	2.030000	686.00	-0.19	-0.04
0.54	2.50	2.75	2.50	2.75	0.50	1.00	0.75	1.00	1.00	1.50	0.75	0.25	0.00	1.25	1.25	0.75	-0.293457	0.028320	0.930664	-2.730000	0.560000	0.630000	262.00	-0.08	-0.04	11.50	8.75	8.00	8.00	2.75	3.50	1.50	1.00	1.75	1.75	1.75	1.25	1.00	1.25	1.25	0.75	-0.264160	0.088379	0.924316	-2.590000	-6.860000	1.960000	708.00	-0.18	-0.04
0.55	3.00	2.75	2.50	2.50	0.50	1.00	0.75	1.25	1.00	1.50	1.00	0.50	0.00	1.25	1.00	0.75	-0.293457	0.025879	0.936035	-2.730000	0.560000	0.630000	273.00	-0.09	-0.05	11.75	8.75	8.00	7.75	2.75	3.50	1.50	1.00	2.25	1.75	1.75	1.25	1.00	1.25	1.00	0.50	-0.259766	0.083496	0.923340	-2.730000	-7.000000	2.030000	711.00	-0.18	-0.04
0.56	3.00	2.75	2.25	2.75	0.50	1.25	0.75	0.75	0.75	1.50	0.75	0.75	0.25	1.00	1.00	0.75	-0.294922	0.031250	0.935059	-2.800000	0.490000	0.630000	263.00	-0.10	-0.05	11.50	9.00	8.25	7.75	2.50	3.50	1.25	1.00	2.00	1.50	1.50	1.25	0.75	1.50	1.00	0.50	-0.261230	0.086426	0.928711	-2.730000	-6.860000	2.030000	696.00	-0.19	-0.04
0.57	3.25	3.00	3.00	2.50	0.50	1.00	0.75	1.25	1.00	1.75	1.00	0.75	0.00	1.25	1.25	0.50	-0.295898	0.029297	0.933105	-2.870000	0.490000	0.490000	293.00	-0.09	-0.04	11.75	9.00	8.00	8.00	2.50	3.50	1.50	1.00	1.75	1.50	1.75	1.25	1.00	1.25	0.75	0.50	-0.263184	0.081055	0.924805	-2.800000	-6.930000	2.030000	699.00	-0.19	-0.04
0.58	2.75	2.50	2.50	2.50	0.50	0.75	0.75	1.00	1.25	1.50	1.00	0.25	0.50	1.00	1.00	0.75	-0.292969	0.029785	0.932129	-2.870000	0.490000	0.490000	262.00	-0.08	-0.04	12.00	9.00	8.00	7.75	2.50	3.50	1.25	1.00	1.50	1.75	1.75	1.25	1.00	1.00	0.75	0.50	-0.260742	0.085938	0.925781	-2.940000	-7.140000	2.100000	691.00	-0.20	-0.04
0.59	3.00	3.00	2.25	2.50	0.50	1.50	0.75	0.75	0.75	1.75	0.75	0.50	0.25	1.00	1.25	1.00	-0.291992	0.023926	0.936523	-2.870000	0.280000	0.560000	270.00	-0.09	-0.05	12.25	8.75	8.00	8.00	2.50	3.25	1.25	1.00	1.50	1.50	1.50	1.25	1.00	1.25	1.00	0.25	-0.264160	0.085449	0.929688	-2.940000	-7.210000	2.100000	690.00	-0.20	-0.04
0.60	3.00	2.75	2.50	2.25	0.50	1.00	0.75	1.00	1.00	1.50	1.00	0.50	0.00	1.25	1.25	0.50	-0.293945	0.022461	0.933594	-2.940000	0.350000	0.630000	266.00	-0.08	-0.04	12.50	9.00	8.00	8.00	2.50	3.25	1.25	1.00	1.25	1.50	1.75	1.25	1.00	0.75	0.75	0.50	-0.261719	0.083496	0.926758	-2.870000	-7.560000	2.100000	688.00	-0.21	-0.04
0.61	3.25	3.00	2.50	2.50	0.50	1.25	0.75	1.00	0.50	1.50	0.75	0.25	0.00	1.00	1.25	0.75	-0.293457	0.030273	0.936035	-3.150000	0.420000	0.700000	264.00	-0.11	-0.05	12.75	9.50	8.25	8.00	2.50	3.25	1.25	1.00	2.00	1.50	1.50	1.25	1.00	0.75	0.75	0.50	-0.264648	0.083984	0.930664	-2.870000	-7.910000	2.170000	709.00	-0.21	-0.04
0.62	3.25	3.00	2.75	2.25	0.50	1.00	0.75	0.75	0.75	1.25	0.75	0.50	0.00	1.00	1.25	0.75	-0.291016	0.027832	0.929688	-3.220000	0.280000	0.700000	260.00	-0.11	-0.04	12.50	9.50	8.25	8.00	2.50	3.50	1.25	1.00	1.50	1.25	1.75	1.00	1.00	0.75	0.50	0.50	-0.259277	0.085449	0.932129	-2.940000	-8.260000	2.310000	695.00	-0.21	-0.04
0.63	3.25	3.25	2.50	2.50	0.50	1.00	0.75	0.75	0.75	1.50	1.00	0.25	0.00	1.25	1.25	0.50	-0.291504	0.025391	0.935059	-3.500000	0.280000	0.700000	267.00	-0.10	-0.03	13.00	9.25	8.00	8.00	2.50	3.50	1.25	1.00	1.50	1.50	1.25	1.25	0.75	0.75	0.75	0.50	-0.264160	0.082031	0.932617	-3.080000	-8.750000	2.380000	695.00	-0.21	-0.04
0.64	3.50	3.25	2.50	2.75	0.50	1.00	0.75	1.25	1.00	1.50	0.75	0.50	0.25	1.25	1.25	0.75	-0.293457	0.026855	0.934570	-3.710000	0.280000	0.630000	290.00	-0.10	-0.05	13.25	10.00	8.25	8.00	2.25	3.50	1.25	1.00	1.75	1.25	1.75	1.25	0.50	1.25	1.25	0.50	-0.258301	0.087402	0.930664	-3.150000	-9.100000	2.380000	723.00	-0.20	-0.04
0.65	3.50	3.50	2.50	2.25	0.50	2.00	0.75	1.25	1.00	1.50	0.75	0.50	0.00	1.00	1.25	0.75	-0.295410	0.026367	0.937012	-4.130000	0.420000	0.490000	294.00	-0.10	-0.06	13.50	10.25	8.25	8.25	2.25	3.25	1.25	0.75	1.50	1.25	1.50	1.00	0.50	0.75	0.75	0.25	-0.252930	0.085449	0.923828	-3.150000	-9.170000	2.310000	701.00	-0.23	-0.04
0.66	3.50	3.25	2.75	2.25	0.50	0.75	0.75	0.75	1.00	1.50	0.75	0.25	0.50	1.00	0.75	0.50	-0.291992	0.029297	0.941895	-4.620000	0.630000	0.350000	264.00	-0.12	-0.03	14.50	10.25	8.50	8.00	2.25	3.25	1.00	0.75	1.00	1.25	1.50	1.00	0.75	1.00	1.00	0.50	-0.244629	0.083984	0.916504	-3.150000	-8.890000	2.240000	711.00	-0.23	-0.04
0.67	3.50	3.25	2.75	2.50	0.50	1.00	0.75	0.75	1.00	1.50	1.00	0.00	0.00	1.00	0.75	0.25	-0.289551	0.024902	0.937500	-5.390000	0.630000	0.140000	263.00	-0.13	-0.02	14.00	10.75	8.25	8.25	2.25	3.25	1.00	1.00	1.25	1.25	1.25	1.25	0.75	0.50	0.50	0.50	-0.248535	0.088379	0.925293	-3.080000	-8.610000	2.240000	707.00	-0.23	-0.05
0.68	3.50	3.25	2.75	2.00	0.50	1.00	0.75	1.00	1.00	1.50	0.75	0.25	0.00	1.00	1.00	0.50	-0.288086	0.019531	0.931641	-6.930000	1.330000	-0.420000	266.00	-0.11	-0.03	14.50	11.00	8.50	8.25	2.50	3.25	1.25	0.75	1.25	1.25	1.25	0.75	0.75	1.00	0.75	0.50	-0.256836	0.082520	0.919434	-3.220000	-8.120000	2.100000	725.00	-0.23	-0.04
0.69	3.50	3.25	2.75	2.75	0.50	0.75	0.75	1.00	1.00	1.50	0.75	0.25	0.00	0.75	0.75	0.75	-0.287598	0.020996	0.940430	-8.540000	2.380000	-0.770000	269.00	-0.13	-0.04	13.75	11.00	8.50	8.25	2.25	3.25	1.00	1.00	0.75	1.25	1.25	0.75	0.75	0.75	0.50	0.25	-0.254883	0.081055	0.926758	-3.360000	-7.840000	2.100000	697.00	-0.24	-0.05
0.70	3.25	3.50	3.00	2.25	0.50	0.50	0.75	1.00	0.75	1.50	0.75	0.25	0.00	1.00	1.25	0.50	-0.288086	0.020020	0.937500	-9.800000	2.940000	-1.400000	265.00	-0.11	-0.03	14.75	11.25	8.25	8.50	2.25	3.25	1.00	1.00	1.50	1.25	1.25	0.75	0.75	0.50	1.00	0.25	-0.259277	0.081055	0.923340	-3.500000	-7.700000	2.100000	728.00	-0.24	-0.04
0.71	3.75	3.00	3.00	2.50	0.50	1.00	0.75	0.50	1.00	1.50	0.75	0.25	0.00	1.50	1.00	0.50	-0.291992	0.023926	0.935547	-10.920000	3.290000	-1.820000	272.00	-0.11	-0.01	15.00	11.25	8.25	8.50	2.25	3.25	1.25	1.00	1.25	1.25	1.25	0.75	0.50	1.00	0.75	0.50	-0.255859	0.080078	0.921875	-3.430000	-7.700000	2.100000	732.00	-0.24	-0.04
0.72	3.75	3.25	2.50	2.25	0.50	0.50	0.75	0.75	0.75	1.50	0.75	0.25	0.25	1.25	1.25	0.75	-0.291016	0.018555	0.928711	-11.550000	3.500000	-2.310000	264.00	-0.11	-0.03	15.75	11.75	8.50	8.25	2.25	3.50	1.00	0.75	1.50	1.00	1.25	0.75	0.50	0.75	0.50	0.50	-0.260254	0.087402	0.925293	-3.500000	-7.630000	2.100000	736.00	-0.25	-0.04
0.73	3.50	3.25	2.75	2.50	0.50	0.25	1.00	0.50	1.25	1.50	0.50	0.25	0.00	1.25	0.75	0.75	-0.283691	0.017090	0.928711	-11.550000	4.060000	-2.800000	260.00	-0.11	-0.00	15.25	11.75	8.50	8.50	2.50	3.25	1.00	0.75	1.50	1.25	1.25	0.75	0.50	0.00	0.50	0.25	-0.252930	0.078613	0.924316	-3.640000	-7.700000	2.100000	727.00	-0.25	-0.04
0.74	3.50	3.00	2.50	2.50	0.50	0.75	1.00	0.75	1.00	1.75	0.75	0.25	0.00	0.75	1.00	0.50	-0.284668	0.010254	0.926758	-10.360000	4.550000	-2.870000	264.00	-0.11	-0.02	15.25	11.50	8.50	8.50	2.25	3.25	1.25	1.00	1.25	1.25	1.25	0.75	0.75	0.50	0.75	0.25	-0.255859	0.079590	0.925293	-3.640000	-7.700000	2.100000	737.00	-0.24	-0.04
0.75	3.25	3.25	2.50	2.25	0.50	1.00	1.00	1.00	1.25	1.50	1.00	0.25	0.00	1.00	0.75	0.50	-0.295898	0.001953	0.927246	-8.330000	5.040000	-3.080000	271.00	-0.10	-0.03	15.50	11.75	8.50	8.25	2.25	3.25	1.00	0.75	1.00	1.00	1.25	0.75	0.25	1.00	0.75	0.25	-0.249023	0.086426	0.918457	-3.640000	-7.630000	2.030000	724.00	-0.25	-0.04
0.76	3.50	2.75	2.50	2.50	0.50	0.50	1.00	0.75	1.25	1.75	0.75	0.00	0.00	1.25	1.00	0.75	-0.291504	0.001465	0.915527	-5.810000	5.600000	-4.340000	265.00	-0.09	-0.01	16.00	11.50	8.75	8.50	2.25	3.25	1.00	0.75	1.25	1.25	1.25	1.00	0.50	1.25	0.75	0.50	-0.246094	0.083984	0.919434	-3.570000	-7.490000	2.030000	751.00	-0.24	-0.03
0.77	3.00	3.00	2.75	2.25	0.50	0.25	1.00	1.00	1.25	1.75	0.50	0.25	0.00	1.25	0.75	0.50	-0.286621	0.028809	0.956055	-6.580000	7.700000	-6.230000	258.00	-0.10	-0.01	15.75	12.25	8.75	8.50	2.50	3.25	1.25	0.75	0.75	1.50	1.25	0.75	0.50	1.00	0.75	0.25	-0.249023	0.088867	0.928711	-3.710000	-7.140000	1.960000	752.00	-0.25	-0.04
0.78	3.25	2.50	2.25	2.00	0.50	1.00	1.25	0.50	1.25	1.50	0.75	0.25	0.00	1.25	1.25	0.50	-0.290039	0.035156	0.951660	-9.660000	10.010000	-7.910000	257.00	-0.08	-0.00	14.75	12.00	8.50	8.25	2.25	3.25	1.00	1.00	1.50	1.00	1.25	0.75	0.50	0.75	0.50	0.25	-0.255371	0.080078	0.921875	-3.780000	-6.930000	1.890000	726.00	-0.24	-0.04
0.79	2.75	2.50	2.50	1.75	0.50	1.00	1.25	1.00	1.25	1.75	0.75	0.00	0.00	1.25	1.25	0.75	-0.312012	0.033203	0.958984	-13.650000	11.970000	-9.660000	262.00	-0.06	-0.01	16.00	12.00	8.50	8.50	2.50	3.50	1.25	0.75	1.25	1.25	1.25	0.75	0.25	1.00	0.50	0.25	-0.250977	0.077148	0.927734	-3.780000	-6.790000	1.960000	751.00	-0.25	-0.03
0.80	2.00	2.50	2.00	2.25	0.50	0.00	1.25	0.50	1.50	1.50	0.75	0.25	0.25	1.50	0.75	0.50	-0.308105	0.036621	0.957520	-16.940001	13.860000	-11.690000	232.00	-0.05	0.01	15.75	11.75	8.50	8.50	2.25	3.50	1.25	1.00	1.00	1.00	1.25	0.75	0.75	0.75	0.75	0.50	-0.256836	0.080566	0.931152	-3.640000	-6.790000	2.100000	747.00	-0.24	-0.04
0.81	1.75	2.25	2.00	1.75	0.50	0.50	1.25	0.75	1.25	1.50	0.75	0.25	0.00	1.25	1.00	0.75	-0.305176	0.020508	0.966797	-20.650000	16.240000	-14.630000	226.00	-0.04	-0.01	16.00	11.75	8.75	8.50	2.50	3.50	1.25	0.75	1.25	1.25	1.25	0.75	0.25	0.75	1.00	0.50	-0.251465	0.081055	0.925781	-3.570000	-6.930000	2.170000	757.00	-0.24	-0.03
0.82	2.00	1.75	1.75	1.75	0.25	0.50	1.25	0.50	1.25	1.75	0.75	0.25	0.00	1.25	1.00	0.50	-0.375977	-0.091797	0.941895	-25.830000	23.450001	-26.040001	214.00	-0.03	0.01	16.00	12.25	8.75	8.75	2.50	3.25	1.25	0.75	1.50	1.25	1.25	1.00	0.50	1.00	0.50	0.25	-0.254395	0.082031	0.929688	-3.640000	-7.210000	2.380000	767.00	-0.24	-0.03
0.83	1.75	2.00	2.00	1.25	0.50	0.00	1.25	0.75	1.25	1.75	0.75	0.00	0.00	1.50	1.00	0.75	-0.375977	-0.091797	0.941895	-25.830000	23.450001	-26.040001	213.00	-0.02	0.02	16.00	12.25	9.00	8.75	2.50	3.25	1.25	1.00	1.50	1.25	1.25	0.75	0.50	0.50	1.00	0.25	-0.256836	0.082520	0.923828	-3.500000	-7.420000	2.450000	773.00	-0.24	-0.04
0.84	1.75	2.00	2.00	1.50	0.25	0.50	1.00	0.50	1.25	1.50	1.00	0.25	0.00	1.00	1.00	0.25	-0.380371	0.072266	0.992676	-29.190001	45.639999	-38.709999	205.00	-0.04	0.00	16.75	12.25	8.75	8.75	2.75	3.50	1.25	0.75	1.25	1.25	1.50	1.00	0.50	0.75	0.75	0.50	-0.263672	0.085449	0.925781	-3.360000	-7.630000	2.520000	784.00	-0.24	-0.04
0.85	1.75	1.75	1.75	1.75	0.25	0.50	1.00	0.75	1.50	1.50	0.75	0.25	0.00	1.00	1.25	1.00	-0.405762	0.032715	1.120605	-27.860001	51.660000	-45.009998	216.00	-0.02	-0.01	16.50	12.50	9.00	9.00	2.50	3.50	1.25	0.75	1.00	1.25	1.25	1.00	1.00	0.00	0.50	0.50	-0.259277	0.082520	0.928711	-3.570000	-7.700000	2.660000	774.00	-0.25	-0.04
0.86	1.00	2.00	1.50	1.75	0.50	0.75	1.00	0.75	1.25	1.50	0.50	0.00	0.00	1.50	1.00	0.25	-0.404785	0.062500	1.116211	-33.180000	55.510002	-52.430000	199.00	-0.02	-0.01	16.75	12.50	9.00	8.75	2.75	3.75	1.25	0.75	1.25	1.25	1.25	0.75	0.50	0.75	0.75	0.50	-0.254395	0.083496	0.921875	-3.570000	-7.700000	2.520000	787.00	-0.25	-0.03
0.87	1.50	1.75	1.75	1.75	0.25	0.25	0.75	0.75	1.00	1.50	0.50	0.25	0.00	1.25	0.50	0.25	-0.434082	0.087891	1.103516	-42.840000	58.170002	-57.610001	182.00	-0.05	-0.01	15.75	12.75	9.00	9.25	2.75	3.50	1.25	1.00	1.50	1.25	1.25	0.75	0.25	0.75	1.00	0.25	-0.252930	0.078125	0.922852	-3.710000	-7.490000	2.380000	788.00	-0.24	-0.04
0.88	1.75	2.00	1.50	1.50	0.25	0.75	0.75	0.25	1.25	1.50	0.50	0.25	0.00	1.00	1.00	0.50	-0.431641	0.106445	1.149414	-50.820000	58.170002	-62.160000	188.00	-0.04	-0.00	16.75	12.75	9.25	9.25	2.75	3.75	1.25	1.00	1.50	1.25	1.25	0.75	0.75	0.50	0.75	0.50	-0.255371	0.080078	0.931152	-3.640000	-7.070000	2.450000	808.00	-0.24	-0.04
0.89	1.25	1.75	1.25	2.25	0.25	0.25	0.50	0.25	0.75	1.50	0.75	0.00	0.00	1.00	0.75	0.50	-0.395020	0.106934	1.196777	-61.950001	54.529999	-66.360001	164.00	-0.05	-0.02	17.00	13.00	9.00	9.25	2.75	4.00	1.25	1.00	1.50	1.50	1.00	0.75	0.50	1.00	1.00	0.25	-0.252930	0.081055	0.928711	-3.430000	-6.860000	2.310000	818.00	-0.24	-0.04
0.90	1.50	2.00	1.75	1.75	0.50	1.00	0.50	0.50	0.75	1.00	0.75	0.00	0.00	0.75	0.75	0.50	-0.378906	0.031738	1.196777	-76.230003	49.840000	-67.830002	178.00	-0.09	-0.04																									
0.91	1.50	1.75	1.50	1.50	0.25	0.75	0.50	0.50	0.50	1.00	0.50	0.25	0.00	1.00	0.50	0.25	-0.321777	-0.025391	1.151855	-95.059998	46.270000	-67.900002	156.00	-0.09	-0.04	17.25	12.75	9.25	9.25	2.75	4.00	1.25	1.00	1.25	1.25	1.25	0.75	0.50	1.25	0.75	0.50	-0.258301	0.077148	0.931641	-2.870000	-6.510000	2.310000	819.00	-0.24	-0.04
0.92	1.00	1.50	1.50	2.00	0.25	0.50	0.50	0.50	0.75	1.00	0.50	0.00	0.00	0.50	0.50	0.25	-0.138672	0.100586	1.083496	-107.239998	42.840000	-66.080002	146.00	-0.09	-0.04	17.00	13.75	9.50	9.50	2.75	4.00	1.25	1.00	1.50	1.25	1.50	1.00	0.75	1.00	0.75	0.25	-0.243652	0.083008	0.929199	-3.640000	-5.950000	2.240000	842.00	-0.24	-0.04
0.93	1.50	1.75	1.25	1.25	0.25	0.25	0.50	0.50	0.50	1.00	0.50	0.00	0.00	1.00	0.75	0.25	0.118652	0.328125	1.042969	-104.300003	39.270000	-59.920002	143.00	-0.07	-0.02	17.00	13.25	9.25	9.50	3.00	4.25	1.50	1.00	1.50	1.25	1.50	0.75	0.50	1.25	0.75	0.50	-0.243652	0.083008	0.929199	-3.640000	-5.950000	2.240000	842.00	-0.24	-0.04
0.94	0.50	1.50	1.00	1.25	0.25	0.75	0.50	0.50	0.25	0.75	0.50	0.00	0.00	0.50	0.50	0.50	0.236816	0.572266	1.106445	-83.090004	35.209999	-41.299999	118.00	-0.07	-0.07	17.00	13.25	9.25	9.25	3.00	4.00	1.50	1.00	1.50	1.25	1.25	0.75	0.25	1.50	0.75	0.25	-0.252930	0.084473	0.927734	-4.340000	-5.390000	1.890000	831.00	-0.24	-0.03
0.95	1.00	1.50	1.25	1.50	0.25	0.25	0.50	0.75	0.50	1.00	0.25	0.00	0.00	0.75	0.75	0.50	0.429199	0.681641	1.272461	-27.930000	27.719999	-8.960000	138.00	-0.06	-0.04	16.75	13.50	9.25	9.75	3.00	4.00	1.50	1.00	1.75	1.75	1.25	1.00	0.75	0.75	0.50	0.75	-0.260254	0.080566	0.930664	-4.830000	-4.760000	1.750000	848.00	-0.23	-0.04
0.96	1.00	1.75	1.00	1.50	0.25	0.50	0.50	0.25	0.50	1.00	0.00	0.00	0.00	0.50	1.00	0.25	0.533691	0.476074	1.184570	9.310000	11.620000	20.160000	127.00	-0.08	-0.03	16.50	13.25	9.25	9.50	3.00	4.25	1.50	1.00	1.75	1.50	1.50	1.25	0.75	1.00	1.00	0.50	-0.247070	0.082031	0.929688	-4.760000	-4.760000	1.890000	853.00	-0.23	-0.04
0.97	1.25	1.75	1.25	1.25	0.25	0.75	0.50	0.50	0.25	1.00	0.50	0.00	0.00	0.50	0.75	0.25	0.562500	0.323242	1.107422	22.960001	-2.730000	43.680000	138.00	-0.09	-0.05	16.75	12.75	9.25	9.25	3.00	4.00	1.50	0.75	2.00	1.50	1.25	0.75	1.00	0.75	1.00	0.25	-0.252930	0.081543	0.927246	-4.830000	-4.690000	1.750000	832.00	-0.23	-0.03
0.98	0.75	1.50	1.00	1.25	0.00	1.00	0.50	0.75	0.50	1.25	0.50	0.00	0.00	0.50	0.50	0.25	0.597168	0.200195	1.038574	28.139999	-14.910000	62.230000	134.00	-0.06	-0.06	16.50	12.75	9.25	9.50	3.00	3.75	2.00	1.00	1.75	1.50	1.50	1.00	0.50	1.25	1.00	0.75	-0.257812	0.079102	0.930664	-4.900000	-4.480000	1.610000	848.00	-0.22	-0.03
0.99	1.25	1.75	1.25	1.50	0.25	0.75	0.50	0.00	0.75	1.00	0.50	0.00	0.00	0.50	0.50	0.75	0.589844	-0.120117	1.008301	51.730000	-33.110001	82.040001	140.00	-0.08	-0.02	16.00	12.75	9.00	9.50	3.25	3.75	2.00	0.75	2.00	1.50	1.25	1.25	0.50	1.25	1.00	0.50	-0.256348	0.081055	0.927734	-4.900000	-4.410000	1.610000	840.00	-0.22	-0.03
1.00	1.00	1.50	1.00	1.25	0.25	1.50	0.50	0.50	0.50	0.75	0.50	0.00	0.00	0.75	0.50	0.25	0.570801	-0.298340	1.013184	60.619999	-40.459999	82.949997	138.00	-0.08	-0.06	16.50	12.50	9.25	9.25	3.00	3.75	2.00	1.00	1.75	1.75	1.50	1.00	0.50	1.00	0.50	0.25	-0.258789	0.076172	0.930664	-4.550000	-4.480000	1.680000	833.00	-0.23	-0.03
1.01	1.25	1.25	1.00	1.75	0.25	0.50	0.50	0.25	0.25	1.00	0.50	0.00	0.00	0.75	0.50	0.25	0.539551	-0.451172	1.020996	62.369999	-46.619999	78.820000	127.00	-0.09	-0.03	16.00	12.50	9.00	9.25	3.00	3.75	2.00	0.75	2.00	1.50	1.50	1.00	0.75	1.00	0.75	0.50	-0.253418	0.077148	0.928711	-4.480000	-4.760000	1.890000	827.00	-0.22	-0.03
1.02	1.00	1.25	1.25	1.50	0.25	0.50	0.50	0.25	0.50	0.75	0.25	0.25	0.00	0.25	0.75	0.50	0.500488	-0.558105	1.060547	57.889999	-52.570000	70.769997	124.00	-0.08	-0.04	15.75	12.25	9.00	9.25	3.00	3.75	2.00	0.75	2.00	1.50	1.25	1.00	0.75	1.00	1.25	0.50	-0.257812	0.075195	0.932129	-4.270000	-5.110000	1.890000	824.00	-0.22	-0.03
1.03	1.00	1.25	0.75	0.75	0.25	1.25	0.50	0.25	0.50	0.75	0.25	0.00	0.00	0.50	0.50	0.50	0.453613	-0.615234	1.139160	51.520000	-59.639999	60.130001	114.00	-0.07	-0.04	15.75	12.25	9.25	9.25	3.00	3.75	2.00	0.75	2.00	1.75	1.50	1.00	0.50	0.75	1.00	0.50	-0.253906	0.074707	0.933594	-4.130000	-5.460000	2.030000	826.00	-0.22	-0.03
1.04	1.25	1.50	1.00	1.00	0.25	0.25	0.50	0.25	0.50	0.75	0.50	0.00	0.00	0.75	0.50	0.50	0.412598	-0.649902	1.183105	44.450001	-68.529999	48.230000	119.00	-0.07	-0.01	15.50	12.00	9.00	9.00	3.25	3.75	2.25	1.00	2.00	1.75	1.50	1.00	0.50	1.25	0.75	0.25	-0.259277	0.078613	0.927246	-4.130000	-5.740000	2.170000	826.00	-0.22	-0.03
1.05	1.00	1.25	0.75	1.25	0.25	0.75	0.50	0.50	0.25	0.75	0.25	0.25	0.00	0.50	0.25	0.25	0.380859	-0.684570	1.175781	35.279999	-77.349998	35.279999	113.00	-0.10	-0.06	15.75	11.75	9.00	9.25	3.00	3.50	2.25	1.00	2.25	1.50	1.25	0.75	0.75	1.00	1.25	0.50	-0.257324	0.073730	0.929688	-4.130000	-6.020000	2.030000	825.00	-0.21	-0.03
1.06	0.75	1.25	1.00	0.75	0.25	0.75	0.50	0.50	0.25	0.75	0.50	0.00	0.00	0.75	0.25	0.50	0.345215	-0.667969	1.113770	23.309999	-84.559998	21.770000	111.00	-0.06	-0.05	15.50	11.75	9.00	9.00	3.00	3.50	2.25	0.75	1.75	1.50	1.50	1.00	0.75	1.00	1.00	0.50	-0.250488	0.077148	0.920410	-4.410000	-6.160000	1.890000	810.00	-0.22	-0.03
1.07	0.75	1.25	1.00	1.75	0.25	0.25	0.50	0.50	0.50	1.00	0.50	0.00	0.00	0.25	0.75	0.25	0.306641	-0.620117	1.020996	10.710000	-87.639999	9.170000	124.00	-0.07	-0.05	15.25	11.75	9.00	9.00	3.25	3.50	2.25	0.75	2.00	1.50	1.50	1.25	0.50	1.00	1.00	0.50	-0.254883	0.074219	0.919434	-4.550000	-6.300000	1.820000	815.00	-0.21	-0.03
1.08	0.75	1.50	1.00	1.25	0.25	1.00	0.50	0.75	0.50	1.00	0.50	0.25	0.00	0.50	0.50	0.50	0.268066	-0.539551	0.967773	1.190000	-86.449997	-1.750000	139.00	-0.06	-0.07	15.50	11.50	9.00	9.25	3.25	3.50	2.25	0.75	2.25	1.50	1.25	0.75	0.75	1.25	0.75	0.50	-0.254395	0.077148	0.925293	-4.480000	-6.300000	1.680000	815.00	-0.22	-0.02
1.09	1.00	1.75	1.00	1.25	0.25	0.75	0.50	0.75	0.50	0.75	0.50	0.25	0.00	0.25	0.50	0.25	0.226562	-0.457520	0.927734	-3.780000	-81.480003	-10.080000	134.00	-0.09	-0.07	15.75	11.75	8.75	9.00	3.00	3.50	2.25	0.75	2.25	1.50	1.50	0.75	0.75	1.00	0.75	0.50	-0.257812	0.076660	0.923340	-4.340000	-6.440000	1.540000	811.00	-0.22	-0.02
1.10	1.00	1.75	1.00	1.50	0.25	1.00	0.50	0.50	0.25	1.00	0.25	0.00	0.00	0.75	0.50	0.50	0.196777	-0.375488	0.950684	-6.300000	-73.919998	-15.330000	136.00	-0.09	-0.06	15.25	11.75	9.00	9.00	3.25	3.50	2.25	1.00	2.00	1.50	1.25	1.00	0.50	0.75	1.00	0.50	-0.254883	0.071777	0.928711	-4.200000	-6.650000	1.540000	810.00	-0.22	-0.03
1.11	0.75	1.25	1.00	1.50	0.25	1.00	0.50	0.75	0.50	1.00	0.50	0.25	0.00	0.75	0.50	0.50	0.158691	-0.261719	1.039551	-5.040000	-66.500000	-17.500000	142.00	-0.05	-0.07	15.50	11.50	9.25	9.00	3.25	3.75	2.50	0.75	2.25	1.50	1.75	1.00	0.50	1.00	1.00	0.50	-0.255371	0.073730	0.927246	-3.920000	-6.930000	1.610000	830.00	-0.21	-0.02
1.12	0.75	1.25	1.00	1.50	0.25	0.50	0.50	0.50	0.25	1.00	0.50	0.00	0.00	0.75	0.50	0.25	0.111816	-0.166016	1.130859	0.910000	-60.760002	-17.290001	122.00	-0.06	-0.05	15.50	11.50	9.00	9.00	3.00	3.75	2.25	0.75	1.75	1.75	1.50	1.00	0.50	0.75	0.75	0.25	-0.254883	0.072754	0.923828	-3.780000	-7.000000	1.680000	804.00	-0.22	-0.03
1.13	0.75	1.25	0.75	1.50	0.25	0.25	0.50	0.50	0.25	1.00	0.25	0.00	0.00	0.50	0.50	0.50	0.038086	-0.105469	1.215332	8.400000	-57.049999	-14.560000	111.00	-0.07	-0.05	15.25	11.75	9.25	9.00	3.00	3.75	2.50	0.75	2.25	1.75	1.50	0.75	0.50	1.25	1.00	0.50	-0.253906	0.075195	0.936035	-3.710000	-6.930000	1.750000	826.00	-0.21	-0.02
1.14	0.75	1.25	1.00	1.25	0.25	0.00	0.50	0.25	0.50	1.00	0.25	0.00	0.00	0.75	0.75	0.00	-0.152344	-0.012207	1.446289	18.410000	-58.869999	-2.240000	110.00	-0.04	-0.00	15.50	11.75	9.25	9.00	3.25	3.50	2.25	0.75	2.00	1.50	1.50	0.75	0.50	0.75	1.00	0.50	-0.255859	0.072754	0.926270	-3.220000	-7.000000	1.820000	812.00	-0.22	-0.02
1.15	0.75	1.25	1.00	1.50	0.25	0.50	0.50	1.00	0.50	1.00	0.25	0.00	0.00	0.75	0.75	0.25	-0.214355	0.066406	1.666504	25.059999	-68.459999	6.020000	135.00	-0.05	-0.06	15.75	11.75	9.25	9.00	3.25	3.75	2.25	1.00	2.25	1.50	1.25	1.00	0.50	0.75	1.25	0.50	-0.254395	0.074219	0.925293	-2.730000	-7.210000	1.890000	830.00	-0.21	-0.03
1.16	0.75	1.25	0.75	1.25	0.25	0.75	0.50	0.25	0.25	0.75	0.25	0.25	0.00	0.50	0.50	0.25	-0.292480	0.090820	1.805176	34.790001	-87.779999	14.280000	109.00	-0.08	-0.05	15.25	11.50	9.25	8.75	3.00	3.75	2.25	0.75	2.00	1.75	1.50	1.00	0.25	1.25	1.00	0.25	-0.252930	0.076660	0.925781	-2.100000	-7.350000	2.030000	810.00	-0.21	-0.02
1.17	0.75	1.00	1.00	1.00	0.25	1.00	0.50	0.50	0.25	0.75	0.25	0.00	0.00	0.25	0.25	0.50	-0.369141	0.058594	1.785645	40.180000	-111.440002	20.790001	106.00	-0.09	-0.06	15.75	11.75	9.25	9.00	3.25	3.75	2.25	1.00	2.00	1.75	1.25	0.75	0.75	0.75	0.75	0.50	-0.250000	0.072266	0.922852	-1.400000	-7.420000	2.170000	822.00	-0.22	-0.03
1.18	1.00	1.00	1.00	1.00	0.50	0.75	0.50	0.75	0.50	1.00	0.50	0.00	0.00	1.00	0.50	0.00	-0.440430	-0.020996	1.651855	33.950001	-133.350006	24.500000	132.00	-0.04	-0.03	15.75	11.50	9.25	9.00	3.50	3.75	2.25	1.00	2.25	1.75	1.50	1.00	0.50	1.25	1.00	0.25	-0.255859	0.074707	0.923828	-0.910000	-7.560000	2.310000	837.00	-0.21	-0.02
1.19	0.75	1.00	0.75	1.25	0.25	1.00	0.50	0.75	0.25	1.00	0.25	0.25	0.00	0.50	0.50	0.50	-0.518066	-0.102539	1.440918	15.260000	-148.680008	24.850000	123.00	-0.05	-0.08	15.50	11.75	9.25	9.00	3.25	4.00	2.25	1.00	2.00	1.75	1.50	1.00	0.75	1.50	1.00	0.50	-0.254883	0.078125	0.928711	-0.420000	-7.420000	2.310000	840.00	-0.21	-0.03
1.20	0.50	1.50	0.75	1.25	0.25	1.00	0.50	0.50	0.25	0.75	0.25	0.00	0.00	0.50	0.50	0.50	-0.592285	-0.145508	1.213867	-4.480000	-154.490005	22.820000	114.00	-0.08	-0.08	15.50	11.25	9.00	9.00	3.25	3.75	2.25	1.00	2.25	1.75	1.50	1.00	0.75	1.25	1.00	0.50	-0.253906	0.077637	0.925781	-0.000000	-7.140000	2.520000	829.00	-0.21	-0.03
1.21	0.50	1.25	0.75	1.25	0.25	0.25	0.50	0.75	0.25	0.75	0.25	0.00	0.00	0.50	0.50	0.50	-0.646484	-0.155273	1.012207	-17.219999	-151.830002	19.600000	106.00	-0.06	-0.07	15.25	11.25	9.25	9.00	3.50	3.75	2.25	1.00	2.25	1.75	1.50	0.75	0.50	1.00	1.25	0.50	-0.257812	0.077148	0.931641	0.070000	-6.930000	2.660000	827.00	-0.21	-0.02
1.22	0.75	1.00	0.75	1.25	0.25	1.25	0.50	1.00	0.25	1.00	0.25	0.25	0.00	0.75	0.25	0.25	-0.690918	-0.146973	0.875488	-22.049999	-142.309998	14.630000	128.00	-0.06	-0.09	15.25	11.25	9.00	8.75	3.50	4.25	2.25	1.00	2.25	1.75	1.50	1.00	1.00	1.50	1.25	0.50	-0.251465	0.078125	0.924805	-0.140000	-6.720000	2.520000	841.00	-0.20	-0.03
1.23	1.00	1.25	1.00	1.25	0.25	0.75	0.50	0.50	0.50	1.00	0.25	0.00	0.00	0.50	0.50	0.50	-0.698730	-0.116699	0.797852	-22.680000	-129.080002	7.770000	125.00	-0.07	-0.04	15.00	10.75	9.00	8.75	3.50	4.25	2.25	1.00	2.25	1.50	1.75	1.25	0.50	1.25	1.00	0.25	-0.253418	0.078125	0.918945	-1.120000	-6.160000	2.100000	823.00	-0.20	-0.03
1.24	0.75	1.00	0.75	1.50	0.25	0.50	0.50	0.25	0.50	0.75	0.50	0.25	0.00	0.50	0.50	0.50	-0.687012	-0.068848	0.761230	-21.980000	-115.430000	-0.140000	114.00	-0.05	-0.04	14.75	10.75	9.00	8.75	3.50	4.25	2.25	1.00	2.25	1.75	1.75	1.25	0.75	1.25	1.00	0.50	-0.253418	0.078125	0.918945	-1.120000	-6.160000	2.100000	827.00	-0.20	-0.03
1.25	0.75	1.00	0.75	1.75	0.25	0.50	0.50	0.50	0.50	0.75	0.25	0.00	0.00	0.50	0.75	0.25	-0.655762	-0.012695	0.740234	-19.879999	-102.690002	-7.770000	118.00	-0.06	-0.05	14.50	10.50	9.00	8.50	3.50	4.25	2.50	1.25	2.25	1.75	1.75	1.25	1.00	1.50	1.25	0.50	-0.252441	0.071777	0.923828	-1.960000	-5.040000	1.330000	835.00	-0.19	-0.03
1.26	0.50	1.25	0.75	1.25	0.25	1.25	0.50	0.50	0.50	1.00	0.50	0.00	0.00	0.75	0.50	0.50	-0.650879	0.026367	0.754883	-15.960000	-92.330002	-15.260000	128.00	-0.04	-0.06	14.25	10.50	9.00	8.50	3.75	4.25	2.50	1.25	2.75	1.75	1.75	1.50	1.00	1.50	1.25	0.50	-0.254395	0.078125	0.924316	-2.100000	-4.480000	1.190000	846.00	-0.18	-0.03
1.27	0.75	1.25	1.00	1.25	0.25	1.00	0.50	0.75	0.50	1.00	0.25	0.25	0.00	0.75	0.75	0.25	-0.646973	0.043945	0.751465	-9.450000	-85.400002	-23.240000	137.00	-0.04	-0.06	14.00	10.00	8.75	8.25	3.75	4.25	2.50	1.25	2.75	2.00	1.75	1.25	1.00	1.50	1.25	0.50	-0.252441	0.073242	0.922852	-2.030000	-4.130000	1.190000	831.00	-0.18	-0.03
1.28	0.75	1.00	1.00	1.50	0.25	0.75	0.50	0.50	0.50	0.75	0.50	0.00	0.25	0.75	0.50	0.25	-0.671875	0.002930	0.703613	7.560000	-76.230003	-43.540001	126.00	-0.05	-0.05	13.50	9.75	8.75	8.25	4.25	4.25	2.75	1.50	3.00	2.00	2.00	1.50	1.00	1.75	1.50	0.50	-0.253418	0.077148	0.921387	-1.890000	-3.710000	1.260000	853.00	-0.16	-0.03
1.29	0.50	1.50	1.00	1.25	0.25	1.00	0.50	0.75	0.50	1.00	0.25	0.00	0.00	0.75	0.50	0.25	-0.695312	-0.062500	0.677246	15.610000	-71.959999	-54.180000	130.00	-0.06	-0.06	13.25	9.25	8.50	8.00	4.00	4.25	2.75	1.50	3.25	2.00	2.00	1.50	1.25	1.50	1.25	0.75	-0.255371	0.077637	0.925781	-1.680000	-3.290000	1.260000	837.00	-0.16	-0.03
1.30	0.50	1.50	1.00	1.25	0.25	0.75	0.50	0.50	0.25	1.00	0.50	0.00	0.00	0.50	0.50	0.50	-0.717285	-0.131836	0.614746	18.270000	-66.849998	-63.770000	121.00	-0.06	-0.07	12.75	8.75	8.50	8.00	4.00	4.25	3.00	1.50	3.75	2.25	2.50	1.25	1.25	2.00	1.25	0.50	-0.253418	0.074707	0.917969	-1.400000	-2.590000	1.260000	848.00	-0.15	-0.02
1.31	0.75	1.50	1.25	1.00	0.25	0.75	0.50	0.25	0.50	1.00	0.25	0.00	0.00	0.75	0.50	0.50	-0.742676	-0.170410	0.542480	12.180000	-59.779999	-71.190002	123.00	-0.06	-0.02	12.50	8.50	8.50	7.75	4.50	4.25	3.25	1.50	3.75	2.25	2.25	1.75	1.50	2.25	1.25	0.75	-0.254883	0.079102	0.916504	-1.470000	-2.030000	1.330000	859.00	-0.14	-0.02
1.32	0.50	1.00	0.75	1.00	0.25	0.75	0.50	0.50	0.50	0.75	0.25	0.25	0.00	0.75	0.25	0.50	-0.756348	-0.169434	0.486816	-1.540000	-49.770000	-76.440002	109.00	-0.03	-0.05	12.00	8.00	8.25	7.75	4.25	4.25	3.25	1.50	4.00	2.50	2.50	2.00	1.25	2.25	1.25	0.75	-0.261719	0.079102	0.929199	-1.540000	-1.330000	1.330000	852.00	-0.13	-0.02
1.33	0.75	1.25	0.75	1.25	0.25	0.75	0.50	0.50	0.50	1.00	0.25	0.00	0.00	0.25	0.25	0.50	-0.757324	-0.095703	0.449707	-17.850000	-38.290001	-79.309998	113.00	-0.08	-0.05	11.25	7.50	8.25	7.50	4.25	4.00	3.25	1.50	4.25	2.75	2.50	1.75	1.75	2.00	2.00	1.00	-0.259277	0.078613	0.926270	-1.470000	-0.910000	1.260000	848.00	-0.12	-0.02
1.34	0.75	1.25	0.75	2.00	0.25	0.75	0.50	0.75	0.50	1.00	0.25	0.00	0.00	0.50	0.50	0.50	-0.740723	0.002441	0.439453	-30.660000	-26.250000	-79.590004	133.00	-0.07	-0.08	10.75	7.25	8.00	7.25	4.25	4.00	3.50	1.75	4.50	2.75	2.75	2.00	2.00	2.50	1.75	0.75	-0.264648	0.077637	0.924805	-1.260000	-0.280000	1.330000	854.00	-0.10	-0.02
1.35	0.50	1.00	1.00	1.50	0.25	1.00	0.50	0.50	0.50	1.00	0.25	0.00	0.25	0.50	0.25	0.50	-0.720215	0.116211	0.434570	-36.959999	-13.650000	-77.629997	122.00	-0.06	-0.07	10.25	6.75	7.75	7.00	4.25	4.00	3.75	1.75	4.50	3.00	3.00	2.25	2.00	2.75	1.75	1.00	-0.258789	0.079590	0.917969	-1.260000	0.490000	1.190000	854.00	-0.09	-0.02
1.36	0.75	1.25	0.75	1.00	0.25	0.75	0.50	0.50	0.50	0.75	0.25	0.00	0.00	0.25	0.50	0.25	-0.685547	0.190430	0.449707	-37.029999	-2.170000	-73.010002	108.00	-0.07	-0.05	10.00	6.25	7.75	6.75	4.25	4.25	4.00	1.75	5.25	3.00	3.25	2.50	2.25	3.00	1.75	1.00	-0.254395	0.083008	0.916992	-1.470000	1.260000	0.770000	873.00	-0.08	-0.02
1.37	0.75	1.25	1.00	1.50	0.25	0.75	0.50	0.25	0.50	1.00	0.25	0.00	0.00	0.50	0.50	0.50	-0.651367	0.261719	0.462891	-33.110001	8.890000	-65.940002	121.00	-0.07	-0.04	9.00	5.50	7.50	6.50	4.25	4.00	4.25	2.00	5.50	3.25	3.50	2.75	2.25	3.00	2.00	1.00	-0.257812	0.075684	0.915527	-1.750000	2.450000	0.350000	868.00	-0.06	-0.02
1.38	0.50	1.25	1.00	1.00	0.25	0.75	0.50	0.25	0.50	1.00	0.25	0.00	0.00	0.50	0.50	0.50	-0.625488	0.300293	0.479980	-26.950001	19.740000	-56.980000	111.00	-0.05	-0.03	8.50	5.25	7.25	6.25	4.00	3.50	4.50	2.00	5.75	3.75	4.25	2.75	2.75	3.75	2.50	1.00	-0.263672	0.071289	0.921387	-1.540000	3.850000	0.210000	886.00	-0.04	-0.01
1.39	0.75	1.00	0.50	1.25	0.25	0.75	0.50	0.50	0.25	1.00	0.25	0.00	0.00	0.75	0.50	0.50	-0.604980	0.309082	0.511719	-19.460001	30.799999	-46.060001	111.00	-0.04	-0.06	8.00	4.50	6.75	5.75	3.75	3.75	4.75	2.00	7.25	4.50	4.75	3.75	3.00	3.50	2.50	1.25	-0.274902	0.081055	0.919922	0.490000	6.440000	0.280000	916.00	-0.01	-0.01
1.40	0.75	1.25	0.75	1.50	0.25	0.75	0.50	0.50	0.25	1.00	0.25	0.00	0.00	0.50	0.50	0.50	-0.606934	0.316406	0.559082	-11.550000	40.810001	-34.160000	118.00	-0.07	-0.07	7.50	4.00	6.50	5.50	4.00	3.50	5.00	2.25	7.25	5.00	5.50	3.50	3.50	4.25	2.75	1.25	-0.268066	0.067871	0.923340	0.980000	7.770000	0.490000	935.00	0.00	-0.01
1.41	0.50	1.00	1.00	1.25	0.25	1.00	0.50	0.25	0.25	1.00	0.25	0.00	0.00	0.75	0.25	0.50	-0.617676	0.289551	0.595215	-5.180000	50.330002	-22.820000	110.00	-0.06	-0.05	6.50	3.25	6.00	5.00	3.75	3.25	5.25	2.50	8.00	5.50	5.75	3.75	3.75	4.25	3.00	1.25	-0.273926	0.082520	0.933594	1.190000	9.520000	0.700000	933.00	0.03	-0.01
1.42	0.75	1.00	0.75	1.25	0.25	1.00	0.50	0.50	0.50	1.25	0.50	0.00	0.00	0.50	0.50	0.25	-0.666504	0.236328	0.653809	-4.340000	66.989998	-7.280000	124.00	-0.04	-0.05	6.00	2.75	5.75	4.00	3.50	2.75	5.25	2.25	8.25	6.00	6.25	5.25	4.00	5.00	3.25	1.50	-0.276855	0.086426	0.927734	1.470000	11.130000	1.050000	941.00	0.05	-0.01
1.43	0.75	1.25	1.00	0.50	0.25	1.00	0.50	0.50	0.50	1.00	0.25	0.00	0.00	0.50	0.50	0.50	-0.666504	0.236328	0.653809	-4.340000	66.989998	-7.280000	115.00	-0.05	-0.04	5.50	2.25	5.00	4.00	3.25	2.50	5.50	2.50	8.50	6.50	6.75	5.50	4.25	5.00	3.25	1.50	-0.284180	0.072754	0.933594	1.190000	13.370000	1.050000	944.00	0.07	-0.01
1.44	2.00	2.00	1.25	1.50	0.25	0.75	0.50	0.25	0.50	0.75	0.00	0.00	0.00	0.75	0.25	0.50	1.099609	0.061035	1.309082	-38.849998	129.919998	26.880001	141.00	-0.15	-0.02	4.00	1.75	5.00	3.50	2.75	2.50	5.50	2.50	8.75	7.00	7.50	5.50	4.50	5.25	3.50	1.75	-0.289551	0.093262	0.927734	0.350000	15.400000	1.050000	936.00	0.09	-0.01
1.45	3.25	2.75	1.50	2.00	0.25	0.50	0.50	0.50	0.25	0.75	0.25	0.00	0.00	0.25	0.75	0.25	0.368652	0.090332	0.235352	-18.690001	79.800003	29.889999	175.00	-0.19	-0.04	4.00	1.25	4.00	2.75	2.25	2.00	5.75	2.50	9.00	7.25	7.50	6.00	5.00	5.25	4.00	1.75	-0.296875	0.077148	0.928711	-1.680000	17.570000	0.910000	923.00	0.11	-0.01
1.46	3.75	3.75	1.50	2.00	0.25	1.00	0.50	0.25	0.25	1.00	0.25	0.00	0.00	0.25	0.00	0.25	0.012207	-0.334473	-0.442871	-2.800000	132.440002	37.240002	188.00	-0.24	-0.04	2.75	1.00	3.00	2.50	2.00	1.50	5.75	2.25	9.25	7.50	7.75	6.50	5.25	5.50	4.25	1.75	-0.288086	0.083008	0.939453	-3.150000	20.510000	0.560000	899.00	0.13	-0.01
1.47	4.25	3.75	2.00	2.00	0.50	0.25	0.50	0.00	0.50	1.00	0.50	0.00	0.00	0.50	0.25	0.50	-0.086426	-0.139160	0.462891	-9.520000	217.279999	33.880001	204.00	-0.21	-0.01	2.50	1.25	2.75	2.25	1.75	1.00	5.75	2.25	9.50	7.75	8.00	6.50	5.25	5.75	4.00	1.75	-0.286133	0.085938	0.951660	-3.990000	24.430000	-0.210000	892.00	0.14	-0.01
1.48	4.75	3.50	2.00	2.50	0.25	0.25	0.50	0.00	0.50	1.00	0.25	0.00	0.00	0.50	0.75	0.50	-0.332520	-0.288086	1.586914	-8.540000	235.199997	27.719999	214.00	-0.20	-0.01	2.50	0.75	2.25	1.75	1.25	0.50	6.00	1.75	9.75	8.00	8.00	6.75	5.25	6.00	4.25	2.00	-0.255859	0.113770	0.958496	-3.360000	30.170000	-1.820000	873.00	0.16	0.00
1.49	4.50	3.75	2.25	2.25	0.25	0.50	0.50	0.25	0.50	1.00	0.25	0.00	0.00	0.50	0.50	0.25	-0.554199	-0.273926	1.552246	4.620000	202.509995	22.120001	216.00	-0.21	-0.02	1.25	0.75	2.00	1.75	1.25	0.25	5.75	1.50	10.00	8.00	8.50	6.75	5.25	6.50	4.00	1.75	-0.296387	0.092773	0.972168	-0.840000	41.509998	-3.570000	852.00	0.17	0.00
1.50	5.25	4.25	2.00	2.25	0.25	0.25	0.50	0.00	0.50	1.00	0.50	0.00	0.00	0.50	0.00	0.50	-0.603027	-0.291504	1.309570	23.030001	178.009995	19.600000	218.00	-0.24	-0.01	1.50	0.75	2.00	0.75	1.00	0.25	5.75	1.25	10.50	8.25	8.50	7.00	5.25	6.75	4.50	1.75	-0.312988	0.084473	0.960449	0.700000	57.260002	-4.970000	857.00	0.19	0.01
1.51	6.00	5.00	2.25	2.25	0.25	0.25	0.50	0.75	0.50	1.00	0.50	0.25	0.00	0.50	0.75	0.50	-0.480469	-0.230957	1.384766	40.670002	165.830002	16.870001	266.00	-0.21	-0.03	1.00	0.50	1.50	1.00	0.50	0.50	5.75	1.00	10.75	8.25	8.75	7.00	5.00	6.75	4.25	2.00	-0.321777	0.076172	0.972168	0.630000	71.680000	-5.600000	840.00	0.20	0.01
1.52	7.00	5.00	3.00	4.00	0.50	0.75	0.50	0.00	0.75	1.00	0.50	0.25	0.00	0.75	0.75	0.25	-0.422852	-0.170410	1.427246	49.209999	149.520004	8.610000	312.00	-0.22	-0.02	1.25	0.50	1.50	0.75	0.25	0.25	5.75	0.75	11.00	8.50	8.75	7.00	4.75	7.00	4.75	2.00	-0.355469	0.068359	0.980957	-1.190000	83.860001	-5.600000	842.00	0.20	0.02
1.53	7.75	5.75	2.50	3.00	0.25	0.50	0.50	0.25	0.75	1.00	0.50	0.00	0.00	0.50	0.75	0.75	-0.427246	0.024902	1.348633	48.580002	134.820007	-1.330000	305.00	-0.23	-0.02	0.75	0.75	1.25	0.75	0.50	0.25	5.75	0.50	11.25	8.50	9.00	7.00	5.00	7.50	4.25	2.25	-0.358398	0.080078	0.975586	-4.480000	95.340004	-4.900000	844.00	0.21	0.02
1.54	8.25	6.25	3.25	3.25	0.50	0.25	0.50	0.25	0.75	1.00	0.50	0.00	0.00	0.25	0.25	0.50	-0.485352	0.213867	1.339355	43.959999	125.440002	-3.640000	320.00	-0.26	-0.01	0.50	0.50	1.25	1.00	0.50	0.00	5.75	0.25	11.25	8.75	9.25	6.75	4.25	7.75	4.25	2.25	-0.400879	0.063477	0.989258	-10.360000	114.800003	-3.220000	831.00	0.21	0.03
1.55	8.75	7.00	3.00	3.75	0.50	0.75	0.50	0.50	0.50	1.00	0.50	0.00	0.00	0.75	1.00	0.00	-0.594727	0.258789	1.434082	36.189999	116.059998	2.030000	356.00	-0.25	-0.03	0.50	0.25	1.00	0.50	0.25	0.00	5.75	0.25	11.50	8.75	9.00	6.75	4.00	8.00	4.75	2.00	-0.420898	0.077637	0.965820	-13.510000	124.320000	-2.520000	821.00	0.22	0.03
1.56	9.50	7.25	4.25	4.25	0.50	0.75	0.75	0.50	1.00	1.25	0.75	0.25	0.00	0.50	0.00	0.75	-0.506348	0.132812	1.387695	26.320000	99.610001	7.560000	403.00	-0.25	-0.02	0.75	0.25	0.75	0.50	0.50	0.00	5.50	0.25	11.75	9.00	9.00	6.50	3.50	8.00	4.25	2.25	-0.448242	0.076660	0.983398	-17.570000	134.750000	-2.590000	813.00	0.22	0.04
1.57	10.50	7.50	4.75	5.00	0.75	1.00	0.75	0.50	0.50	1.25	0.75	0.25	0.00	1.00	0.75	0.25	-0.487793	-0.145020	1.558594	44.240002	53.270000	7.980000	444.00	-0.24	-0.02	0.75	0.25	0.75	0.75	0.25	0.00	5.50	0.00	11.75	8.75	9.00	6.25	3.00	8.25	4.25	2.25	-0.460449	0.088379	0.971680	-21.629999	145.460007	-3.430000	800.00	0.22	0.05
1.58	10.50	7.75	5.00	4.50	0.75	1.00	0.75	0.75	1.00	1.00	0.50	0.00	0.00	1.00	0.00	0.25	-0.344238	-0.026367	0.857422	24.500000	11.970000	2.240000	437.00	-0.26	-0.02	0.00	0.25	0.50	0.25	0.50	0.00	5.50	0.00	11.75	9.00	8.75	6.00	2.75	8.75	4.50	2.25	-0.493652	0.086426	1.004395	-26.180000	156.940002	-5.390000	787.00	0.24	0.05
1.59	11.50	8.25	5.00	5.00	0.75	1.00	0.75	0.75	0.75	1.50	0.50	0.00	0.00	1.00	0.50	0.50	-0.300781	0.061035	0.975586	11.690000	3.920000	2.380000	472.00	-0.25	-0.02	0.00	0.00	0.75	0.50	0.25	0.00	5.25	0.00	11.50	8.75	8.75	5.75	2.75	8.75	4.25	2.50	-0.520996	0.099609	0.995117	-30.730000	167.649994	-8.260000	771.00	0.24	0.05
1.60	11.25	8.75	5.25	5.25	0.75	1.25	0.75	1.00	0.75	1.50	0.75	0.25	0.00	1.25	0.75	0.25	-0.286621	0.025391	0.934570	6.440000	3.150000	1.960000	499.00	-0.24	-0.03	0.25	0.25	0.00	0.50	0.25	0.00	5.25	0.00	11.50	8.75	8.50	5.50	2.25	9.00	3.50	2.75	-0.556641	0.120117	0.991699	-35.209999	177.800003	-12.180000	750.00	0.24	0.06
1.61	12.00	8.75	5.50	5.25	0.75	1.00	0.75	1.25	0.75	1.50	0.75	0.25	0.00	1.25	0.50	0.50	-0.290039	0.031738	0.939453	4.270000	2.450000	1.190000	512.00	-0.24	-0.03	0.00	0.00	0.00	0.00	0.25	0.00	5.25	0.00	11.50	8.50	8.25	5.25	2.00	9.00	3.50	2.50	-0.591309	0.106934	0.995117	-39.480000	186.830002	-17.360001	724.00	0.25	0.06
1.62	12.25	9.25	5.50	5.50	0.50	1.25	0.75	1.25	0.75	1.50	1.00	0.25	0.00	0.75	1.00	0.50	-0.282715	0.040527	0.931641	2.660000	1.960000	0.630000	528.00	-0.24	-0.04	0.00	0.25	0.50	0.00	0.00	0.00	5.00	0.00	11.00	8.25	8.00	4.75	1.75	9.25	3.25	2.50	-0.637207	0.110352	1.037109	-43.680000	194.600006	-22.889999	702.00	0.25	0.07
1.63	12.75	9.50	5.50	5.50	0.75	1.50	1.00	1.50	0.75	1.50	1.00	0.25	0.00	1.25	0.50	0.50	-0.282715	0.037109	0.937500	0.700000	1.330000	0.280000	551.00	-0.24	-0.03	0.00	0.00	0.00	0.00	0.00	0.00	5.00	0.00	10.75	8.25	7.50	4.00	1.75	9.50	3.00	2.50	-0.691406	0.104004	1.020020	-48.439999	200.830002	-28.210001	673.00	0.25	0.07
1.64	13.25	10.25	5.75	5.75	0.75	2.00	1.00	0.75	1.00	1.25	1.00	0.50	0.00	1.00	1.00	0.75	-0.288574	0.028320	0.934570	-0.210000	0.630000	0.350000	574.00	-0.24	-0.03	0.00	0.00	0.00	0.00	0.00	0.00	5.00	0.00	10.00	7.75	7.00	3.25	1.50	9.50	2.50	2.50	-0.720703	0.092773	1.057129	-50.540001	207.619995	-32.549999	630.00	0.25	0.08
1.65	13.75	10.25	6.25	6.00	0.75	1.50	1.00	1.50	1.25	1.75	1.00	0.50	0.00	1.25	0.75	1.00	-0.282715	0.027832	0.936523	-0.280000	0.140000	0.350000	609.00	-0.23	-0.03	0.00	0.25	0.00	0.00	0.00	0.00	4.75	0.00	9.50	7.25	6.25	3.00	1.25	9.50	2.75	2.25	-0.794434	0.062012	1.083008	-51.590000	213.009995	-35.490002	601.00	0.25	0.08
1.66	14.50	10.75	6.75	6.50	1.00	2.00	1.00	1.25	1.25	1.75	0.75	0.50	0.25	1.50	1.25	0.75	-0.284668	0.029297	0.932617	-0.210000	0.070000	0.280000	649.00	-0.23	-0.03	0.00	0.00	0.00	0.00	0.00	0.00	4.25	0.00	9.25	6.50	5.75	2.25	1.25	9.50	2.25	2.00	-0.901367	0.005371	1.287109	-53.200001	216.930008	-36.189999	552.00	0.26	0.09
1.67	15.00	11.50	7.00	6.50	1.00	1.75	1.00	1.25	1.00	1.75	0.75	0.50	0.00	1.25	0.75	0.50	-0.283203	0.023438	0.935059	-0.140000	0.140000	0.280000	646.00	-0.24	-0.03	0.00	0.00	0.00	0.00	0.00	0.00	4.00	0.00	8.75	6.25	5.00	2.00	1.25	9.50	1.50	2.00	-0.971680	0.043945	1.320801	-57.330002	218.540009	-35.910000	515.00	0.26	0.10
1.68	15.50	11.75	7.50	7.25	1.00	2.50	1.25	1.00	1.25	1.75	1.00	0.75	0.50	1.50	2.00	0.50	-0.277832	0.023926	0.933594	0.490000	0.070000	0.490000	715.00	-0.22	-0.03	0.00	0.00	0.00	0.00	0.00	0.00	3.50	0.00	8.00	5.50	4.00	1.50	1.25	9.25	1.25	1.75	-0.970703	0.140625	1.149902	-47.180000	227.919998	-38.009998	459.00	0.26	0.11
1.69	16.25	12.00	7.50	7.75	1.00	2.50	1.25	1.75	1.25	1.75	1.25	0.75	0.00	1.50	0.75	0.75	-0.277344	0.013184	0.926758	1.400000	0.280000	0.910000	731.00	-0.23	-0.04	0.00	0.25	0.00	0.00	0.00	0.00	3.00	0.00	7.75	4.75	3.50	1.75	1.00	9.00	1.25	1.50	-0.992188	0.062988	1.233398	-38.920002	234.990005	-39.480000	430.00	0.26	0.11
1.70	16.75	13.00	7.75	7.75	1.00	3.00	1.25	1.25	1.25	1.50	1.25	1.00	0.50	1.25	1.00	1.00	-0.273438	0.029297	0.932129	2.590000	0.700000	1.400000	757.00	-0.23	-0.04	0.00	0.00	0.00	0.00	0.00	0.00	2.50	0.00	6.75	4.50	3.00	1.50	1.00	8.75	1.00	1.50	-0.988770	0.012695	1.307129	-38.920002	239.330002	-42.630001	384.00	0.27	0.11
1.71	17.25	12.75	8.00	8.00	1.00	2.75	1.25	1.75	1.50	2.00	1.25	1.00	0.25	1.50	1.00	0.50	-0.272949	0.030273	0.937988	3.640000	0.910000	1.960000	779.00	-0.23	-0.04	0.00	0.00	0.00	0.00	0.00	0.00	1.75	0.00	6.00	3.75	2.75	1.50	0.75	8.50	1.00	1.00	-0.978027	0.044434	1.269531	-44.590000	245.279999	-44.939999	338.00	0.28	0.10
1.72	17.00	13.50	8.25	8.25	1.25	3.00	1.50	1.75	1.25	2.00	1.25	0.75	0.50	1.50	1.25	0.75	-0.281738	0.030762	0.936035	4.690000	0.910000	2.240000	803.00	-0.23	-0.04	0.00	0.50	0.00	0.00	0.00	0.00	1.25	0.00	5.00	3.25	1.75	1.50	0.25	7.75	1.00	1.00	-1.000977	0.048828	1.184082	-52.360001	252.210007	-49.000000	287.00	0.27	0.10
1.73	17.25	13.75	8.50	8.50	1.25	3.50	1.50	2.00	1.25	2.00	1.25	1.00	0.25	1.50	1.50	0.75	-0.279785	0.031738	0.933594	5.460000	0.770000	2.520000	830.00	-0.22	-0.04	0.00	0.00	0.25	0.25	0.00	0.00	0.75	0.00	4.25	2.75	2.00	1.75	0.50	7.00	0.75	0.75	-1.033203	0.060547	1.458008	-61.529999	254.520004	-54.459999	258.00	0.27	0.08
1.74	17.75	14.00	8.75	8.75	1.25	3.75	1.50	1.75	1.50	1.75	1.25	1.25	0.50	1.75	1.00	1.00	-0.276367	0.037598	0.928711	6.860000	1.330000	2.660000	848.00	-0.23	-0.04	0.00	0.00	0.00	0.00	0.00	0.00	0.50	0.00	3.25	2.75	1.75	1.00	0.25	5.75	0.50	0.75	-0.988770	0.054688	1.525391	-74.550003	250.529999	-59.150002	200.00	0.29	0.10
1.75	17.75	14.25	9.00	8.75	1.25	4.25	1.75	2.50	1.50	1.75	1.50	1.00	0.75	1.50	1.50	1.25	-0.275879	0.045898	0.923340	6.860000	2.100000	2.310000	887.00	-0.22	-0.05	0.00	0.00	0.00	0.00	0.00	0.25	0.25	0.00	1.50	2.50	2.00	1.00	0.25	4.50	0.25	0.50	-0.799316	0.064453	1.455078	-93.029999	243.460007	-61.599998	154.00	0.28	0.05
1.76	18.00	14.50	8.75	9.00	1.50	4.25	1.75	2.25	1.50	2.25	1.50	1.25	0.75	2.00	1.75	1.25	-0.281738	0.052734	0.935547	6.090000	3.010000	2.030000	909.00	-0.21	-0.05	0.00	0.00	0.25	0.00	0.00	0.25	0.25	0.00	1.25	1.75	1.50	0.75	0.25	2.00	0.25	0.25	-0.625000	0.085449	1.332520	-116.340004	231.419998	-62.860001	108.00	0.24	0.04
1.77	17.50	14.25	9.00	9.00	1.50	5.00	1.75	2.25	1.75	2.00	1.50	1.25	1.25	2.00	2.00	1.00	-0.292969	0.042969	0.935547	4.970000	3.710000	1.470000	921.00	-0.20	-0.05	0.25	0.00	0.00	0.25	0.00	0.00	0.25	0.00	0.75	1.50	1.25	0.25	0.50	1.00	0.50	0.25	-0.296875	0.189941	1.141602	-144.059998	208.039993	-62.930000	83.00	0.22	0.01
1.78	17.50	14.25	9.25	9.25	1.50	5.00	2.00	2.75	1.75	2.00	1.50	1.50	1.00	2.00	2.00	1.25	-0.285156	0.040527	0.939453	3.430000	4.270000	1.050000	943.00	-0.20	-0.05	0.00	0.25	0.25	0.25	0.00	0.00	0.25	0.00	0.75	1.00	1.25	0.00	0.00	0.50	0.25	0.25	0.324219	0.522461	1.114258	-157.080002	180.600006	-58.869999	63.00	0.17	0.04
1.79	17.75	14.25	9.25	9.00	1.50	5.00	2.25	2.75	2.00	2.25	1.75	1.25	1.25	2.00	2.00	1.25	-0.291016	0.053223	0.937500	2.240000	4.620000	0.630000	957.00	-0.19	-0.05	0.25	0.25	0.00	0.25	0.00	0.25	0.25	0.00	0.25	1.00	1.00	0.25	0.00	0.25	0.25	0.00	0.469238	0.760742	2.474121	-132.229996	120.120003	-33.389999	55.00	0.12	-0.02
1.80	17.50	14.00	9.25	9.25	1.75	5.00	2.25	3.25	2.25	2.50	1.50	1.50	1.50	2.25	2.00	1.25	-0.276855	0.046387	0.937988	1.750000	4.970000	0.560000	979.00	-0.18	-0.05	0.25	0.25	0.50	0.25	0.00	0.25	0.25	0.00	0.25	1.00	0.75	0.00	0.00	0.50	0.25	0.00	0.599609	0.981934	3.143066	-59.570000	9.380000	1.400000	57.00	0.07	0.02
1.81	17.00	13.75	9.25	9.25	1.75	5.25	2.50	3.25	2.25	2.50	1.75	1.50	1.25	2.50	2.00	1.25	-0.283691	0.047852	0.929199	2.100000	5.390000	0.420000	981.00	-0.18	-0.05	0.00	0.25	0.00	0.25	0.00	0.25	0.25	0.00	0.00	0.75	0.50	0.25	0.00	0.75	0.00	0.25	1.154785	0.612793	1.840820	-19.600000	-83.019997	38.290001	42.00	0.00	0.00
1.82	16.75	13.50	9.25	9.25	1.75	5.25	2.50	3.00	2.25	2.50	1.75	1.50	2.00	2.50	2.25	1.25	-0.286621	0.051758	0.940918	2.100000	6.510000	0.350000	981.00	-0.17	-0.05	0.00	0.25	0.00	0.25	0.00	0.25	0.25	0.00	0.00	0.75	0.75	0.00	0.00	0.25	0.00	0.25	0.657227	0.444336	1.544922	-20.580000	-137.759995	63.980000	37.00	0.00	0.00
1.83	16.25	13.00	9.25	9.25	2.00	5.50	2.75	3.25	2.50	2.75	1.75	1.75	1.75	2.50	1.75	1.25	-0.291992	0.043457	0.954590	2.030000	7.280000	0.350000	987.00	-0.17	-0.05	0.00	0.00	0.50	0.25	0.00	0.25	0.00	0.00	0.25	0.75	0.50	0.00	0.00	0.50	0.00	0.25	0.645508	0.270508	1.083008	-32.480000	-178.360001	84.349998	39.00	0.00	0.00
1.84	15.75	12.75	9.25	9.00	2.00	5.25	2.75	3.50	2.50	2.50	2.00	1.75	2.00	2.50	2.50	1.75	-0.291504	0.044434	0.942383	2.100000	7.280000	0.420000	991.00	-0.16	-0.06	0.75	0.25	0.50	0.00	0.00	0.25	0.25	0.00	0.00	0.75	0.00	0.00	0.50	0.25	0.00	0.00	0.584961	0.202148	1.122559	-27.160000	-194.250000	81.550003	43.00	0.00	0.00
1.85	15.25	12.25	9.25	9.00	2.00	5.50	2.75	3.75	2.50	2.50	2.00	2.00	2.25	2.75	2.75	1.75	-0.295898	0.045898	0.941895	2.170000	7.280000	0.490000	998.00	-0.15	-0.06	0.25	0.00	0.25	0.00	0.00	0.25	0.25	0.00	0.50	0.75	0.50	0.00	0.00	0.00	0.00	0.25	0.528809	0.124512	1.135742	-15.190001	-213.710007	73.500000	39.00	0.00	0.00
1.86	15.00	12.00	9.00	8.75	2.25	5.50	3.00	3.75	3.00	3.00	2.00	2.00	2.00	3.00	2.25	1.25	-0.293945	0.042969	0.936035	2.240000	7.210000	0.560000	998.00	-0.14	-0.05	0.00	0.00	0.00	0.25	0.00	0.00	0.25	0.00	0.50	0.75	0.50	0.00	0.00	0.25	0.00	0.00	0.445801	0.039551	1.150391	-3.500000	-234.919998	62.160000	34.00	0.00	0.00
1.87	14.50	11.75	8.75	8.75	2.00	5.50	3.00	3.50	3.00	2.75	2.25	1.75	2.50	2.75	2.75	1.75	-0.289551	0.047852	0.938965	2.030000	7.140000	0.490000	987.00	-0.14	-0.06	0.00	0.00	0.25	0.25	0.00	0.25	0.25	0.00	0.50	0.75	0.50	0.00	0.00	0.00	0.25	0.00	0.359375	-0.029785	1.147949	5.950000	-255.919998	49.070000	41.00	0.00	0.00
1.88	13.50	11.25	8.50	8.50	2.25	5.50	3.25	3.50	3.00	2.75	2.25	2.00	2.25	3.00	2.75	1.50	-0.298828	0.051270	0.939941	1.050000	7.280000	-0.280000	972.00	-0.13	-0.05	0.00	0.00	0.00	0.00	0.00	0.25	0.25	0.00	0.25	0.75	0.25	0.00	0.00	0.00	0.00	0.25	0.253418	-0.078613	1.119141	13.160000	-275.519989	34.650002	26.00	0.00	0.00
1.89	13.00	10.75	8.50	8.50	2.00	5.25	3.25	3.50	3.25	3.00	2.25	2.25	2.25	3.00	3.00	1.50	-0.305176	0.062988	0.940430	0.210000	7.070000	-0.490000	967.00	-0.12	-0.05	0.25	0.00	0.00	0.25	0.00	0.00	0.25	0.00	0.00	0.75	0.25	0.00	0.00	0.00	0.25	0.00	0.120605	-0.094727	1.077637	19.809999	-291.760010	19.180000	26.00	0.00	0.00
1.90	12.75	10.00	8.50	8.25	2.25	5.25	3.50	4.00	3.50	3.00	2.25	2.25	2.50	3.25	2.50	1.75	-0.296387	0.051758	0.944824	-0.700000	7.210000	-0.840000	973.00	-0.11	-0.05	0.00	0.25	0.00	0.00	0.00	0.00	0.25	0.00	0.25	1.00	0.00	0.25	0.00	0.00	0.00	0.00	0.002930	-0.095703	1.053223	27.510000	-304.010010	3.780000	27.00	0.00	0.00
1.91	11.75	10.25	8.25	8.25	2.50	5.50	3.50	3.50	3.50	3.00	2.50	2.25	2.50	3.50	3.25	1.75	-0.292969	0.057129	0.931641	-2.240000	7.350000	-1.330000	973.00	-0.10	-0.05	0.00	0.00	0.50	0.00	0.00	0.00	0.00	0.00	0.00	0.50	0.25	0.00	0.00	0.00	0.25	0.00	-0.104492	-0.106445	1.089844	36.889999	-313.459991	-10.710000	19.00	0.00	0.00
1.92	11.75	9.25	8.25	8.00	2.25	5.25	3.75	4.25	3.75	3.25	2.25	2.50	2.25	3.75	3.00	2.00	-0.292480	0.053711	0.928223	-3.500000	7.070000	-1.750000	976.00	-0.10	-0.05	0.50	0.00	0.25	0.00	0.00	0.25	0.25	0.00	0.25	0.75	0.25	0.00	0.00	0.25	0.00	0.00	-0.202637	-0.158203	1.182617	45.639999	-321.860016	-24.150000	36.00	0.00	0.00
1.93	11.25	9.00	8.25	7.75	2.25	5.25	4.00	4.25	4.25	3.25	2.50	2.50	2.50	3.50	3.00	1.75	-0.294922	0.050781	0.923340	-4.200000	6.860000	-2.030000	977.00	-0.09	-0.05	0.00	0.00	0.00	0.25	0.00	0.00	0.00	0.00	0.50	0.75	0.25	0.00	0.00	0.25	0.00	0.00	-0.298340	-0.195312	1.235352	49.840000	-329.279999	-37.029999	26.00	0.00	0.00
1.94	10.75	8.75	7.75	7.75	2.25	5.00	4.00	4.00	4.50	3.25	3.00	2.50	2.50	3.75	3.00	1.75	-0.294434	0.053223	0.925293	-4.550000	6.720000	-2.240000	966.00	-0.08	-0.05	0.25	0.00	0.25	0.25	0.25	0.00	0.00	0.00	0.00	0.25	0.00	0.00	0.00	0.00	0.00	0.00	-0.436523	-0.196777	1.245605	51.310001	-334.390015	-48.790001	16.00	0.00	0.00
1.95	10.00	8.25	8.00	7.50	2.50	5.00	4.25	4.25	4.50	3.75	3.00	2.50	2.50	3.75	2.50	1.75	-0.295410	0.045410	0.930664	-5.040000	6.720000	-2.310000	964.00	-0.07	-0.05	0.00	0.00	0.50	0.25	0.00	0.00	0.00	0.00	0.25	0.50	0.25	0.00	0.00	0.00	0.00	0.25	-0.581055	-0.173340	1.206543	49.980000	-334.809998	-57.820000	25.00	0.00	0.00
1.96	9.50	7.75	7.75	7.50	2.25	5.25	4.75	4.25	4.75	3.75	3.25	3.00	3.25	4.00	3.25	1.75	-0.300781	0.042969	0.934570	-5.180000	6.650000	-2.240000	991.00	-0.06	-0.05	0.25	0.00	0.25	0.00	0.00	0.25	0.25	0.00	0.00	0.50	0.50	0.00	0.00	0.00	0.25	0.25	-0.710449	-0.114258	1.129883	44.520000	-328.019989	-63.070000	31.00	0.00	0.00
1.97	9.00	7.50	7.75	7.25	2.50	5.00	5.00	4.25	5.25	4.00	3.25	2.50	3.25	4.50	3.25	1.75	-0.305176	0.046387	0.940430	-5.040000	6.650000	-1.960000	993.00	-0.05	-0.04	0.00	0.00	0.50	0.00	0.00	0.25	0.00	0.00	0.25	0.25	0.00	0.00	0.00	0.00	0.00	0.00	-0.983398	0.070801	1.205078	30.030001	-295.399994	-60.060001	17.00	0.00	0.00
1.98	9.00	6.75	7.50	7.00	2.50	5.00	5.00	4.50	5.75	4.25	3.50	2.75	3.00	4.75	3.50	2.00	-0.306641	0.043457	0.934082	-5.040000	7.210000	-1.820000	1004.00	-0.04	-0.04	0.25	0.00	0.50	0.25	0.00	0.25	0.25	0.00	0.50	0.50	0.00	0.25	0.00	0.00	0.25	0.00	-1.010254	0.176270	1.280762	21.770000	-277.760010	-53.200001	41.00	0.00	0.00
1.99	8.25	7.00	7.25	7.00	2.50	5.00	5.00	4.75	6.25	4.50	3.50	3.00	4.00	5.00	3.75	2.25	-0.302734	0.056152	0.931152	-4.900000	7.350000	-1.750000	1031.00	-0.02	-0.04	0.00	0.00	0.00	0.00	0.00	0.25	0.25	0.00	0.00	0.00	0.00	0.00	0.00	0.25	0.00	0.00	-1.023438	0.283691	1.296875	12.530000	-261.519989	-43.680000	10.00	0.00	0.00
2.00	8.00	6.50	7.25	6.75	2.50	4.50	5.25	4.50	6.50	5.00	3.75	3.25	3.50	5.00	4.25	2.00	-0.309570	0.052734	0.932129	-4.550000	7.140000	-1.400000	1028.00	-0.01	-0.04	0.00	0.00	0.25	0.00	0.00	0.25	0.00	0.00	0.00	0.00	0.25	0.00	0.00	0.00	0.00	0.00	-1.033203	0.365723	1.291992	7.700000	-244.089996	-31.639999	10.00	0.00	0.00
2.01	7.50	6.25	7.25	6.50	2.50	4.75	5.25	4.25	6.75	5.50	4.00	3.25	3.75	5.00	4.00	2.25	-0.310547	0.050781	0.934570	-4.130000	7.000000	-1.190000	1029.00	-0.01	-0.04	0.00	0.00	0.25	0.25	0.00	0.00	0.00	0.00	0.00	0.50	0.00	0.00	0.00	0.00	0.25	0.00	-1.044434	0.476074	1.291504	13.580000	-225.330002	-17.780001	16.00	0.00	0.00
2.02	7.50	5.50	7.00	6.25	2.50	4.75	5.50	4.75	7.00	5.25	4.50	3.50	4.00	5.25	4.25	2.00	-0.303711	0.045898	0.943848	-3.570000	6.650000	-1.050000	1044.00	0.00	-0.04	0.00	0.00	0.25	0.00	0.00	0.00	0.00	0.00	0.00	0.00	0.00	0.00	0.00	0.00	0.25	0.00	-1.065430	0.536621	1.354004	30.030001	-207.339996	-2.170000	6.00	0.00	0.00
2.03	6.50	5.75	6.75	6.25	2.50	4.50	5.50	4.50	7.50	5.50	4.50	3.50	4.25	5.25	4.50	2.50	-0.303711	0.045898	0.943848	-3.570000	6.650000	-1.050000	1044.00	0.01	-0.04	0.00	0.00	0.00	0.00	0.00	0.00	0.25	0.00	0.00	0.00	0.00	0.00	0.00	0.00	0.00	0.00	-1.105469	0.547363	1.358398	47.740002	-191.800003	16.520000	4.00	0.00	0.00
2.04	6.25	5.50	6.50	6.00	2.50	4.50	5.50	4.75	7.50	6.00	5.00	3.75	4.25	5.25	4.25	2.00	-0.312012	0.042969	0.922852	-4.060000	7.140000	-0.980000	1045.00	0.02	-0.04	0.00	0.25	0.25	0.25	0.00	0.25	0.00	0.00	0.00	0.25	0.25	0.00	0.00	0.00	0.00	0.00	-1.154785	0.491211	1.318848	54.389999	-177.800003	40.180000	19.00	0.00	0.00
2.05	6.00	5.25	6.25	6.00	2.50	4.75	5.75	4.75	8.00	6.25	5.25	3.75	4.50	5.25	4.75	2.50	-0.312012	0.051758	0.929688	-4.130000	7.560000	-1.050000	1070.00	0.03	-0.04	0.00	0.00	0.00	0.25	0.00	0.25	0.25	0.00	0.00	0.75	0.00	0.00	0.00	0.00	0.00	0.00	-1.186523	0.443359	1.244629	46.549999	-162.610001	67.550003	20.00	0.00	0.00
2.06	5.75	5.25	6.50	5.50	2.50	4.00	5.75	4.75	8.00	6.50	5.75	4.25	4.50	5.50	5.00	2.50	-0.317871	0.038574	0.933105	-4.340000	8.400000	-1.120000	1075.00	0.04	-0.04	0.00	0.00	0.25	0.00	0.00	0.00	0.25	0.00	0.25	0.25	0.25	0.00	0.00	0.25	0.25	0.00	-1.176270	0.417480	1.170898	33.880001	-146.229996	95.199997	24.00	0.00	0.00
2.07	5.00	5.00	6.25	5.50	2.50	4.25	6.00	4.50	8.50	6.75	5.75	4.00	4.25	6.00	5.00	2.25	-0.314941	0.047852	0.932129	-4.410000	9.380000	-1.260000	1071.00	0.05	-0.03	0.00	0.00	0.50	0.00	0.00	0.25	0.25	0.00	0.00	0.25	0.00	0.00	0.00	0.00	0.00	0.00	-1.160645	0.386230	1.153809	27.790001	-129.009995	119.910004	18.00	0.00	0.00
2.08	4.75	4.50	5.75	5.25	2.25	4.25	6.00	4.75	8.75	7.25	6.00	4.25	4.50	6.25	5.00	2.75	-0.313477	0.046387	0.927734	-4.270000	10.710000	-1.190000	1079.00	0.06	-0.03	0.00	0.25	0.00	0.00	0.00	0.50	0.25	0.00	0.00	0.25	0.00	0.00	0.00	0.00	0.00	0.00	-1.141113	0.362793	1.188477	31.850000	-113.540001	139.860001	17.00	0.00	0.00
2.09	4.25	3.75	5.50	5.25	2.25	3.75	6.00	5.00	9.00	7.50	6.50	4.50	5.00	6.25	5.00	2.50	-0.322266	0.041016	0.937500	-4.690000	12.390000	-1.190000	1079.00	0.07	-0.03	0.00	0.00	0.00	0.00	0.00	0.25	0.00	0.00	0.00	0.25	0.00	0.00	0.00	0.00	0.00	0.00	-1.174316	0.329590	1.270996	43.049999	-101.570000	153.860001	6.00	0.00	0.00
2.10	3.75	4.00	5.25	5.00	2.00	3.25	6.25	5.00	9.00	7.50	6.75	4.75	5.00	6.25	5.00	2.75	-0.324219	0.041504	0.934082	-5.810000	14.350000	-1.610000	1071.00	0.07	-0.03	0.25	0.25	0.00	0.25	0.00	0.25	0.25	0.00	0.25	0.25	0.00	0.00	0.00	0.00	0.00	0.00	-1.219238	0.243164	1.416992	54.810001	-95.410004	162.820007	24.00	0.00	0.00
2.11	3.25	3.50	5.00	4.25	2.00	2.75	6.25	4.50	9.25	7.75	6.75	4.50	4.50	6.75	5.25	2.25	-0.320312	0.045898	0.928223	-6.370000	16.100000	-2.240000	1035.00	0.09	-0.02	0.00	0.00	0.00	0.00	0.25	0.00	0.00	0.00	0.00	0.25	0.00	0.00	0.00	0.00	0.00	0.00	-1.288574	0.127930	1.618164	59.920002	-98.070000	167.720001	6.00	0.00	0.00
2.12	3.00	3.75	4.50	4.75	1.75	2.75	6.50	4.50	9.50	7.75	7.00	5.25	5.00	7.00	5.25	2.50	-0.321289	0.041016	0.928711	-6.580000	17.570000	-2.660000	1061.00	0.09	-0.03	0.00	0.00	0.00	0.25	0.00	0.25	0.25	0.00	0.00	0.25	0.00	0.00	0.00	0.00	0.00	0.00	-1.344727	-0.054199	1.761719	49.770000	-113.820000	168.210007	14.00	0.00	0.00
2.13	2.75	2.50	3.75	4.00	1.75	2.25	6.50	4.25	10.00	8.00	7.50	5.25	5.00	7.25	5.50	2.75	-0.331543	0.040039	0.931641	-6.860000	19.389999	-3.010000	1038.00	0.12	-0.02	0.00	0.00	0.25	0.00	0.25	0.50	0.25	0.00	0.00	0.25	0.00	0.00	0.00	0.00	0.00	0.00	-1.407227	-0.153809	1.429688	25.900000	-175.350006	163.869995	21.00	0.00	0.00
2.14	2.00	2.50	3.75	4.00	1.75	1.75	6.50	3.50	10.25	8.25	7.50	5.50	5.00	7.25	5.50	2.75	-0.327637	0.042480	0.930664	-6.790000	21.629999	-3.220000	1018.00	0.12	-0.01	0.00	0.00	0.00	0.00	0.00	0.50	0.25	0.00	0.00	0.25	0.00	0.00	0.00	0.00	0.00	0.00	-1.557129	-0.264160	1.188477	41.090000	-200.830002	163.380005	14.00	0.00	0.00
2.15	2.50	2.25	3.00	3.50	1.50	2.00	6.75	3.50	10.50	8.25	7.75	5.75	5.00	7.50	5.50	2.75	-0.312012	0.051270	0.936035	-7.140000	25.059999	-3.500000	1023.00	0.13	-0.01	0.00	0.00	0.00	0.25	0.00	0.50	0.00	0.00	0.25	0.25	0.00	0.00	0.00	0.00	0.00	0.00	-1.675293	-0.338379	0.933594	44.310001	-214.339996	158.199997	17.00	0.00	0.00
2.16	1.50	2.25	3.00	3.50	1.25	1.75	6.75	3.25	11.00	8.50	7.75	5.75	5.00	7.75	5.50	2.75	-0.329102	0.050293	0.942383	-8.540000	28.840000	-4.060000	1013.00	0.14	-0.01	0.00	0.00	0.00	0.00	0.00	0.25	0.00	0.00	0.00	0.00	0.25	0.00	0.00	0.00	0.00	0.00	-1.760254	-0.312012	0.677246	26.180000	-216.160004	147.910004	6.00	0.00	0.00
2.17	1.50	2.00	2.25	2.50	1.00	1.50	6.75	3.25	11.25	8.75	8.00	5.75	5.00	7.75	5.50	3.00	-0.345215	0.053223	0.943848	-8.190000	34.160000	-4.480000	992.00	0.16	-0.00	0.00	0.00	0.25	0.00	0.00	0.25	0.25	0.00	0.25	0.75	0.00	0.00	0.00	0.00	0.00	0.00	-1.839844	-0.215820	0.382324	-1.330000	-206.779999	132.229996	24.00	0.00	0.00
2.18	1.25	2.25	2.25	2.75	1.00	1.75	6.75	2.25	11.50	8.75	8.00	5.75	4.75	8.00	5.75	2.75	-0.360352	0.035156	0.922363	-7.070000	38.920002	-5.040000	985.00	0.16	0.00	0.00	0.00	0.00	0.25	0.25	0.00	0.25	0.00	0.00	0.00	0.00	0.00	0.00	0.00	0.00	0.00	-1.941895	-0.103516	0.116699	-16.100000	-188.300003	111.440002	11.00	0.00	0.00
2.19	1.25	2.00	2.25	2.75	1.00	1.25	6.75	2.75	12.00	9.00	8.00	6.25	5.00	7.75	5.75	3.00	-0.368652	0.038574	0.926758	-5.530000	51.590000	-5.390000	1004.00	0.16	0.00	0.00	0.00	0.25	0.25	0.00	0.00	0.00	0.00	0.00	0.25	0.00	0.00	0.00	0.00	0.00	0.00	-2.050293	-0.073242	-0.075684	-2.380000	-163.100006	88.410004	10.00	0.00	0.00
2.20	1.25	1.75	2.25	2.25	1.00	1.00	7.00	1.50	12.50	9.25	8.25	6.00	4.50	8.25	5.50	2.75	-0.378906	0.030273	0.937012	-5.740000	58.099998	-5.320000	979.00	0.17	0.02	0.00	0.00	0.25	0.25	0.00	0.00	0.25	0.00	0.25	0.25	0.25	0.00	0.00	0.25	0.00	0.00	-2.169434	-0.167480	-0.194824	32.130001	-133.910004	66.989998	24.00	0.00	0.00
2.21	1.25	1.25	2.00	2.50	1.00	1.25	7.00	1.75	12.75	9.25	8.25	6.25	4.50	8.25	5.75	2.75	-0.385742	0.033691	0.937988	-6.440000	65.519997	-5.250000	992.00	0.18	0.02	0.00	0.00	0.25	0.25	0.00	0.00	0.25	0.00	0.00	0.50	0.00	0.00	0.00	0.00	0.00	0.00	-2.238770	-0.320801	-0.230469	60.900002	-102.970001	49.980000	17.00	0.00	0.00
2.22	1.00	1.50	1.75	2.25	0.75	1.25	6.75	1.25	13.00	9.50	8.50	6.00	3.75	8.50	5.25	3.00	-0.409668	0.029297	0.932129	-7.280000	73.849998	-5.320000	965.00	0.18	0.03	0.00	0.00	0.25	0.00	0.00	0.00	0.00	0.00	0.25	0.25	0.00	0.00	0.00	0.00	0.00	0.00	-2.180664	-0.459961	-0.234863	65.660004	-69.510002	38.009998	10.00	0.00	0.00
2.23	0.75	1.25	1.50	1.75	0.75	1.25	6.75	1.25	13.25	9.75	8.50	6.00	3.75	8.50	5.75	3.00	-0.416504	0.027832	0.937500	-9.240000	83.580002	-5.530000	963.00	0.19	0.03	0.00	0.00	0.00	0.00	0.25	0.25	0.00	0.00	0.25	0.25	0.00	0.00	0.00	0.00	0.00	0.00	-1.981934	-0.494629	-0.179199	45.990002	-33.599998	28.980000	14.00	0.00	0.00
2.24	1.25	1.00	1.50	2.00	0.75	0.75	6.75	0.75	13.50	9.75	8.50	6.00	3.50	8.50	5.75	3.00	-0.427734	0.030273	0.934082	-11.200000	93.870003	-5.880000	955.00	0.19	0.04	0.25	0.00	0.25	0.00	0.00	0.00	0.00	0.00	0.00	0.25	0.00	0.00	0.00	0.25	0.00	0.00	-1.741211	-0.408691	-0.010254	14.000000	1.400000	20.020000	12.00	0.00	0.00
2.25	0.75	1.25	1.75	2.00	0.75	0.75	6.75	0.50	13.75	9.75	8.75	6.25	2.75	9.00	5.75	3.00	-0.436523	0.028320	0.936523	-12.950000	105.910004	-6.300000	958.00	0.20	0.04	0.00	0.25	0.75	0.25	0.25	0.25	0.25	0.00	0.00	0.00	0.00	0.00	0.00	0.00	0.25	0.00	-1.496094	-0.222656	0.217285	-13.790000	29.889999	9.870000	30.00	0.00	0.00
2.26	0.75	0.75	1.50	1.50	0.50	0.00	6.50	0.75	14.00	9.75	8.75	6.25	2.75	9.00	6.00	3.00	-0.455078	0.032227	0.954102	-14.280000	115.570000	-6.930000	937.00	0.21	0.05	2.50	0.25	1.50	1.00	0.25	0.00	0.00	0.25	0.00	0.00	0.00	0.00	0.00	0.00	0.00	0.00	0.712402	0.297363	0.463379	-76.160004	120.820000	-14.490000	75.00	-0.31	0.00
2.27	0.75	1.00	1.25	1.75	0.50	0.75	6.50	0.50	14.00	10.00	8.75	6.00	2.25	9.00	5.75	2.75	-0.493164	0.021484	0.977051	-16.309999	125.020004	-7.070000	935.00	0.20	0.05	5.00	2.00	1.50	1.25	0.00	0.00	0.00	0.00	0.25	0.00	0.00	0.00	0.00	0.00	0.00	0.00	0.169434	0.054688	0.378906	-54.389999	118.020004	-8.120000	124.00	-0.35	0.02
2.28	0.00	1.25	1.00	1.75	0.50	0.75	6.50	0.00	14.00	10.00	8.50	5.75	1.75	9.25	5.75	3.00	-0.504883	0.033203	0.974121	-18.620001	135.940002	-6.860000	908.00	0.21	0.06	6.25	3.25	2.25	1.75	0.00	0.00	0.00	0.00	0.00	0.00	0.00	0.00	0.00	0.00	0.00	0.25	0.059570	-0.038574	0.084961	-18.620001	167.300003	5.390000	168.00	-0.36	-0.00
2.29	0.50	1.25	1.00	1.50	0.50	0.00	6.25	0.25	14.25	10.00	8.50	5.75	2.00	9.50	5.75	3.00	-0.527832	0.032227	0.977051	-20.650000	148.610001	-7.560000	911.00	0.22	0.06	8.50	6.00	2.50	2.00	0.00	0.00	0.00	0.00	0.25	0.00	0.25	0.00	0.00	0.00	0.00	0.00	-0.410156	-0.112793	1.649902	10.080000	213.919998	14.700000	238.00	-0.36	-0.01
2.30	0.00	0.50	1.00	1.25	0.50	0.75	6.25	0.00	14.25	10.00	8.50	5.50	1.25	9.50	5.75	2.75	-0.561523	0.042480	0.979980	-22.540001	162.539993	-9.380000	886.00	0.23	0.06	10.25	7.50	2.50	2.25	0.25	0.00	0.00	0.00	0.00	0.00	0.00	0.00	0.00	0.00	0.00	0.00	-0.589355	-0.360840	2.044434	38.080002	197.119995	14.770000	276.00	-0.38	-0.01
2.31	0.25	1.00	1.00	1.00	0.50	0.75	6.25	0.00	13.75	9.75	8.50	5.50	1.75	9.50	5.75	3.25	-0.600098	0.047852	0.993652	-23.240000	177.940002	-11.970000	888.00	0.22	0.06	12.25	9.50	4.00	3.00	0.00	0.00	0.00	0.00	0.00	0.00	0.00	0.00	0.00	0.00	0.25	0.00	-0.476562	-0.398926	1.604492	56.910000	170.100006	-0.420000	352.00	-0.37	-0.01
2.32	0.00	0.75	1.00	1.25	0.50	0.00	6.00	0.00	13.50	9.50	8.25	5.50	1.50	9.75	5.75	3.25	-0.640137	0.045410	1.020996	-23.799999	194.039993	-15.120000	861.00	0.23	0.06	13.50	10.75	4.75	4.00	0.25	0.00	0.00	0.00	0.75	0.00	0.00	0.00	0.00	0.25	0.00	0.00	-0.388184	-0.037109	1.529785	62.860001	160.020004	-18.900000	419.00	-0.35	-0.01
2.33	0.25	0.50	0.75	0.75	0.50	0.50	5.75	0.00	13.25	9.50	8.00	5.25	1.00	9.75	5.50	3.75	-0.753906	0.068359	1.153809	-23.660000	229.460007	-22.750000	839.00	0.23	0.07	14.75	12.00	5.00	4.50	0.25	0.00	0.00	0.00	0.00	0.00	0.00	0.00	0.00	0.00	0.00	0.25	-0.450195	0.308594	1.703613	71.680000	147.000000	-21.629999	446.00	-0.37	-0.02
2.34	0.00	1.00	0.50	0.50	0.50	0.75	5.75	0.00	12.50	9.00	8.00	5.25	1.00	10.00	5.25	3.75	-0.828613	0.053223	1.179688	-20.090000	247.940002	-25.059999	819.00	0.23	0.06	14.50	12.25	5.00	5.00	0.25	0.50	0.00	0.50	0.00	0.00	0.25	0.25	0.00	0.00	0.25	0.25	-0.442383	0.432617	1.535645	76.510002	127.680000	-10.780000	477.00	-0.34	-0.04
2.35	0.00	0.75	0.50	1.00	0.25	0.00	5.50	0.00	11.50	8.75	7.50	5.00	1.50	10.25	5.25	4.25	-0.902344	0.034180	1.314453	-12.320000	264.600006	-23.940001	788.00	0.24	0.06	14.75	12.75	5.25	5.25	0.25	0.25	0.00	0.50	0.00	0.00	0.50	0.25	0.00	0.00	0.25	0.00	-0.388184	0.308105	1.457031	72.099998	113.120003	0.770000	491.00	-0.34	-0.04
2.36	0.00	0.00	0.25	1.00	0.25	0.50	5.25	0.00	10.50	8.00	7.00	4.50	1.25	10.25	5.00	4.25	-1.045898	0.052246	1.507812	0.070000	279.440002	-18.900000	735.00	0.24	0.06	14.50	12.00	5.25	6.00	0.50	0.75	0.00	0.00	0.00	0.00	0.50	0.25	0.00	0.00	0.00	0.25	-0.263672	0.167480	1.272461	61.320000	95.830002	3.570000	488.00	-0.35	-0.04
2.37	0.00	0.25	0.00	0.50	0.25	0.50	4.75	0.00	9.25	7.75	6.25	4.25	1.50	10.25	4.50	4.25	-1.173340	-0.020996	1.751465	17.500000	292.110016	-9.730000	680.00	0.25	0.05	14.00	12.50	5.25	6.75	0.50	1.00	0.00	0.25	0.00	0.00	0.00	0.00	0.00	0.25	0.00	0.00	-0.277832	0.194336	1.269531	50.259998	84.699997	1.190000	497.00	-0.35	-0.04
2.38	0.00	0.50	0.00	0.50	0.25	0.25	4.00	0.00	8.25	7.00	5.50	3.50	1.50	10.00	4.00	3.75	-1.290039	-0.001953	1.834473	34.509998	299.670013	2.310000	610.00	0.25	0.05	14.00	12.50	5.50	7.00	0.25	1.25	0.00	0.25	0.00	0.00	0.25	0.25	0.25	0.25	0.00	0.00	-0.258301	0.360352	1.093262	31.080000	77.699997	-0.560000	512.00	-0.34	-0.05
2.39	0.00	0.75	0.50	0.50	0.25	0.25	3.25	0.00	7.00	6.00	5.25	3.50	1.50	9.25	3.25	3.25	-1.231445	-0.005859	1.752930	52.009998	306.390015	12.530000	551.00	0.24	0.05	14.25	13.00	5.50	7.50	0.50	2.00	0.00	0.50	0.00	0.25	0.50	0.00	0.00	0.00	0.00	0.00	-0.283203	0.522461	0.939941	-7.140000	61.110001	4.620000	543.00	-0.33	-0.06
2.40	0.00	1.00	0.50	0.50	0.25	0.00	2.50	0.00	6.00	5.50	4.50	3.00	0.75	8.50	3.00	2.50	-1.184082	-0.017090	1.637207	63.630001	308.700012	17.219999	476.00	0.24	0.05	14.75	12.50	5.50	8.00	0.50	2.50	0.00	0.50	0.00	0.00	0.50	0.25	0.50	0.00	0.00	0.00	-0.238281	0.078613	1.108398	-34.369999	56.420002	6.930000	562.00	-0.33	-0.06
2.41	0.00	0.25	0.00	0.50	0.25	0.00	2.00	0.00	5.25	5.00	3.50	2.50	0.75	7.75	2.50	2.00	-1.167969	-0.154785	1.584473	60.549999	311.429993	15.260000	399.00	0.26	0.06	15.00	13.75	6.25	8.25	0.50	2.75	0.00	0.50	0.00	0.00	0.25	0.25	0.00	0.00	0.50	0.00	-0.238281	0.078613	1.108398	-34.369999	56.420002	6.930000	593.00	-0.33	-0.06
2.42	0.00	0.50	0.00	0.75	0.25	0.50	1.50	0.00	4.00	4.50	3.25	2.00	1.00	7.00	2.25	1.25	-1.305664	-0.094727	1.780273	42.070000	312.690002	11.620000	354.00	0.24	0.04	15.50	14.50	6.75	8.75	0.50	3.00	0.00	1.00	0.00	0.25	0.50	0.50	0.25	0.00	0.25	0.00	-0.262695	0.153809	0.975098	-29.960001	37.799999	2.310000	642.00	-0.32	-0.07
2.43	0.00	0.25	0.00	0.50	0.25	0.00	1.00	0.00	3.00	4.25	3.00	2.50	0.50	5.50	1.50	1.00	-1.179199	0.013184	2.061035	38.779999	302.470001	15.470000	286.00	0.25	0.03	16.00	15.00	6.75	9.00	0.75	3.50	0.00	1.00	0.00	0.25	0.50	0.75	0.25	0.00	0.00	0.25	-0.256836	0.104980	1.003906	-29.190001	33.670002	2.730000	669.00	-0.31	-0.07
2.44	0.00	0.50	0.25	1.00	0.25	0.75	1.00	0.00	2.50	3.75	2.50	1.75	0.25	3.75	1.50	1.00	-0.804688	-0.029297	1.684570	40.320000	292.809998	18.549999	258.00	0.20	0.02	16.75	15.00	7.25	8.75	0.50	4.00	0.00	1.00	0.25	0.00	0.50	0.50	0.25	0.00	0.25	0.25	-0.252441	0.079590	1.023438	-25.480000	25.690001	2.240000	685.00	-0.31	-0.07
2.45	0.00	0.50	0.50	1.00	0.25	0.50	0.75	0.75	2.00	3.25	2.00	1.50	0.50	2.00	1.75	1.00	-0.198730	-0.044434	1.501953	35.840000	287.630005	12.740000	232.00	0.17	-0.03	16.50	15.25	7.25	9.50	1.25	4.75	0.25	1.00	0.00	0.25	0.50	0.50	0.25	0.50	0.25	0.00	-0.265625	0.114746	0.993652	-19.180000	16.660000	2.170000	722.00	-0.30	-0.07
2.46	0.25	0.25	0.50	1.00	0.25	0.75	0.75	0.50	1.25	3.00	1.50	1.00	1.50	1.75	1.50	1.00	0.299316	-0.054688	1.219238	21.000000	273.000000	4.200000	208.00	0.15	-0.05	17.00	15.00	7.50	9.50	0.75	5.00	0.25	1.00	0.00	0.50	0.75	0.50	0.50	0.00	0.50	0.00	-0.233398	0.110352	0.958984	-13.930000	11.550000	3.290000	732.00	-0.30	-0.07
2.47	0.00	0.75	0.00	1.25	0.25	1.00	0.75	0.50	1.25	2.75	1.50	0.75	0.75	1.50	1.00	0.75	1.162598	-0.889160	1.254883	19.809999	238.000000	-11.060000	186.00	0.13	-0.05	17.00	15.00	7.50	10.00	1.00	5.25	0.25	1.50	0.00	0.50	0.75	0.50	0.50	0.00	0.00	0.25	-0.232910	0.110840	0.955078	-10.080000	8.540000	4.060000	749.00	-0.30	-0.08
2.48	0.25	0.25	0.50	1.00	0.25	1.00	0.75	0.75	1.00	2.50	1.50	0.50	0.00	1.75	0.75	0.75	0.956055	-0.041992	2.466797	19.389999	181.229996	-42.560001	173.00	0.12	-0.03	16.75	15.25	7.50	10.00	1.00	5.50	0.25	1.50	0.50	0.50	1.00	0.75	0.75	0.25	0.25	0.00	-0.241699	0.125000	0.946289	-7.280000	6.300000	4.900000	773.00	-0.28	-0.08
2.49	0.25	0.75	0.75	1.25	0.25	0.75	0.75	0.50	1.25	2.50	1.50	0.75	0.00	0.50	1.00	0.75	0.775391	-0.015625	1.916504	3.080000	-3.640000	-61.459999	175.00	0.08	-0.03	16.50	15.00	7.50	10.00	1.00	5.75	0.25	1.75	0.00	0.75	0.75	0.75	0.75	0.25	0.00	0.25	-0.248535	0.126953	0.947754	-5.390000	4.550000	5.530000	766.00	-0.29	-0.08
2.50	0.00	1.00	0.75	0.75	0.25	0.50	0.50	0.50	1.25	2.50	1.50	0.50	0.25	1.25	0.50	0.75	0.647949	0.087402	1.428711	-18.620001	-66.430000	-57.400002	161.00	0.11	-0.02	16.25	14.75	7.25	9.75	1.00	5.75	0.25	1.50	0.00	0.50	0.75	0.75	0.75	0.00	0.00	0.00	-0.238281	0.128418	0.936035	-4.760000	3.290000	5.530000	741.00	-0.29	-0.08
2.51	0.75	1.25	0.50	0.75	0.25	0.25	0.75	0.50	1.00	2.25	1.25	0.50	0.25	1.00	0.75	0.75	0.587402	0.225098	1.014160	-25.690001	-102.830002	-46.060001	161.00	0.07	-0.02	16.00	14.50	7.25	9.75	1.00	6.00	0.25	1.75	0.00	0.50	1.00	0.75	1.00	0.50	0.00	0.25	-0.244629	0.128418	0.930664	-5.530000	2.520000	4.760000	756.00	-0.28	-0.09
2.52	0.00	1.00	0.75	1.00	0.25	0.25	0.50	0.00	1.25	2.25	1.50	0.50	0.25	0.75	1.00	0.50	0.510254	0.274902	0.854980	-17.500000	-123.760002	-32.340000	148.00	0.11	-0.01	15.75	15.00	7.25	9.75	1.00	6.25	0.25	2.00	0.00	0.75	0.75	0.75	0.50	0.25	0.00	0.25	-0.240234	0.129883	0.915039	-7.280000	2.660000	3.710000	758.00	-0.28	-0.09
2.53	0.00	0.50	0.50	1.00	0.25	0.75	0.50	0.50	1.00	2.25	1.25	0.50	0.00	0.75	0.75	0.50	0.470703	0.237793	0.829590	0.770000	-139.649994	-18.830000	142.00	0.10	-0.04	15.25	14.25	7.25	9.75	0.75	6.25	0.50	1.75	1.00	1.00	0.75	1.00	1.00	0.25	0.25	0.25	-0.230469	0.118164	0.911133	-9.590000	3.780000	2.450000	771.00	-0.26	-0.08
2.54	0.50	0.50	0.50	1.00	0.50	0.50	0.50	0.50	1.00	2.00	1.25	0.75	0.00	1.00	0.75	0.75	0.401367	0.165527	0.877930	17.920000	-156.169998	-7.840000	153.00	0.09	-0.03	15.00	14.25	7.00	9.50	1.00	6.50	0.50	2.00	0.25	1.00	0.75	1.00	1.25	0.00	0.25	0.25	-0.236816	0.127930	0.914062	-12.250000	5.460000	1.050000	760.00	-0.27	-0.09
2.55	0.00	0.75	0.50	1.00	0.25	0.75	0.50	0.50	1.00	2.00	1.25	0.50	0.00	1.00	0.75	0.75	0.337402	0.041016	0.994141	27.230000	-176.330002	0.070000	146.00	0.10	-0.04	14.75	13.50	7.25	9.50	1.00	6.50	0.50	2.25	0.50	0.75	1.00	0.50	1.00	0.25	0.50	0.25	-0.244141	0.126465	0.931641	-13.720000	5.530000	-0.140000	757.00	-0.26	-0.09
2.56	0.00	0.75	0.50	1.00	0.25	0.50	0.50	0.50	1.00	2.00	1.25	0.25	0.25	0.75	1.00	0.25	0.284668	-0.075195	1.082520	25.900000	-200.130005	4.690000	140.00	0.10	-0.04	14.00	13.50	7.00	9.25	1.00	6.75	0.25	3.25	0.00	0.50	1.00	1.00	1.00	0.00	0.25	0.50	-0.246094	0.118164	0.926758	-13.440001	4.410000	-0.840000	750.00	-0.26	-0.11
2.57	0.25	0.50	0.50	1.00	0.25	0.25	0.50	0.50	1.00	1.75	1.25	0.50	0.00	0.75	0.50	0.75	0.192383	-0.162598	1.103516	17.920000	-226.169998	5.180000	131.00	0.09	-0.03	13.75	13.00	7.00	9.50	1.00	6.75	0.50	2.75	0.75	0.75	0.75	0.75	1.50	0.25	0.25	0.25	-0.249512	0.106934	0.936035	-9.660000	2.730000	-0.700000	755.00	-0.25	-0.10
2.58	0.25	0.00	0.75	1.25	0.25	1.00	0.50	0.25	0.50	1.75	1.00	0.25	0.00	0.25	0.75	0.75	0.081055	-0.202637	1.068848	11.410000	-250.250000	1.610000	121.00	0.06	-0.05	13.50	12.50	7.00	9.25	1.00	6.75	0.50	2.75	0.25	1.00	1.25	0.75	1.50	0.00	0.00	0.25	-0.257324	0.100098	0.948730	-5.250000	0.980000	0.350000	739.00	-0.25	-0.10
2.59	0.25	0.75	0.50	1.00	0.25	0.75	0.50	0.75	0.75	2.00	1.00	0.50	0.25	0.75	0.75	0.75	-0.033203	-0.225098	1.004883	10.080000	-269.500000	-4.830000	147.00	0.07	-0.07	13.00	12.00	7.00	9.25	1.00	6.75	0.50	4.00	0.25	0.75	1.25	1.00	1.50	0.00	0.50	0.50	-0.256348	0.105957	0.931152	-1.680000	-0.630000	0.980000	758.00	-0.24	-0.11
2.60	0.50	0.50	1.00	0.75	0.25	1.00	0.50	0.75	1.00	1.75	1.25	0.50	0.25	1.00	0.25	0.50	-0.137695	-0.247559	0.950684	13.300000	-283.290009	-12.880000	152.00	0.05	-0.04	12.75	11.50	6.75	9.00	1.00	6.75	0.75	3.50	0.25	1.00	1.50	1.00	1.75	0.25	0.25	0.50	-0.255371	0.110352	0.941406	0.840000	-1.260000	1.400000	746.00	-0.23	-0.11
2.61	0.00	0.75	0.25	1.00	0.25	1.00	0.50	0.25	0.75	1.75	1.00	0.25	0.25	0.75	0.75	0.50	-0.211914	-0.270508	0.935547	19.110001	-291.059998	-22.610001	126.00	0.08	-0.05	12.50	11.25	6.75	9.00	1.25	7.25	0.75	3.75	0.75	0.75	1.25	1.50	2.00	0.00	0.25	0.25	-0.257324	0.111328	0.922852	2.520000	-1.820000	1.680000	761.00	-0.22	-0.11
2.62	0.00	0.75	0.50	0.50	0.25	0.75	0.50	0.75	1.00	2.00	1.00	0.25	0.00	0.50	0.75	0.50	-0.282227	-0.312012	0.930664	26.600000	-294.209991	-33.599998	131.00	0.09	-0.04	12.00	11.00	6.75	8.75	1.25	7.50	0.75	4.25	0.25	1.00	1.75	1.25	2.00	0.50	0.25	0.50	-0.253418	0.117188	0.925781	3.360000	-2.240000	1.960000	766.00	-0.21	-0.12
2.63	0.00	0.50	1.00	1.00	0.25	0.50	0.50	0.50	1.00	1.75	1.00	0.50	0.00	0.50	0.75	0.50	-0.356445	-0.346191	0.965332	33.389999	-295.190002	-45.220001	134.00	0.08	-0.03	11.75	10.50	6.75	8.75	1.00	7.75	0.75	4.25	0.50	1.25	1.50	1.50	2.25	0.50	0.50	0.25	-0.250488	0.119629	0.917480	3.920000	-2.660000	2.030000	768.00	-0.21	-0.12
2.64	0.00	0.50	0.50	1.00	0.25	0.50	0.50	0.50	0.75	1.50	0.75	0.50	0.25	0.75	1.00	0.50	-0.530762	-0.370605	1.045898	33.250000	-293.440002	-68.250000	125.00	0.10	-0.05	11.50	10.50	6.75	8.50	1.25	7.25	0.75	4.25	1.00	1.50	1.50	1.75	2.50	0.25	0.25	0.75	-0.256836	0.119141	0.918457	4.410000	-2.800000	2.030000	773.00	-0.20	-0.12
2.65	0.00	1.00	0.50	1.25	0.25	0.25	0.50	0.75	0.75	1.75	0.75	0.25	0.25	0.50	0.25	0.25	-0.625488	-0.323730	1.123535	23.799999	-290.640015	-76.300003	122.00	0.03	-0.06	11.00	9.75	6.75	8.50	1.25	8.00	0.75	5.00	1.50	1.25	1.75	1.50	2.50	0.25	0.25	0.50	-0.259277	0.122559	0.923828	4.760000	-2.660000	1.960000	785.00	-0.19	-0.12
2.66	0.25	0.75	0.75	1.00	0.25	1.25	0.50	0.75	0.75	1.75	0.75	0.50	0.00	0.50	0.00	0.75	-0.730469	-0.257324	1.198242	12.670000	-286.720001	-80.080002	136.00	0.02	-0.07	11.00	9.50	6.50	8.25	1.25	7.75	0.75	5.00	0.00	1.25	1.75	1.75	2.75	0.25	0.50	0.75	-0.251465	0.123047	0.937988	5.040000	-2.660000	1.890000	759.00	-0.19	-0.13
2.67	0.00	0.50	1.00	1.50	0.25	1.00	0.50	0.50	0.50	1.50	0.75	0.25	0.25	0.75	0.75	0.50	-0.838867	-0.145020	1.254883	5.110000	-282.660004	-79.870003	135.00	0.03	-0.07	10.25	9.00	6.75	8.25	1.25	8.00	0.75	5.00	0.50	1.25	1.75	1.75	2.75	0.50	0.25	0.75	-0.267090	0.117188	0.924316	5.180000	-2.870000	1.890000	758.00	-0.19	-0.13
2.68	0.25	0.50	0.50	0.50	0.25	1.00	0.50	0.75	0.75	1.25	0.75	0.25	0.00	0.50	0.50	0.50	-0.925781	-0.052246	1.280273	2.660000	-278.670013	-75.529999	115.00	0.05	-0.06	10.25	8.00	6.75	8.25	1.25	8.25	0.75	5.25	0.25	1.50	2.00	2.00	3.50	0.75	0.75	0.75	-0.265137	0.126953	0.928223	4.830000	-3.640000	2.100000	777.00	-0.17	-0.14
2.69	0.25	0.00	0.50	0.75	0.25	0.00	0.50	0.50	0.50	1.50	0.75	0.25	0.00	0.75	0.25	0.50	-0.976074	0.040039	1.279297	3.220000	-274.049988	-67.900002	94.00	0.10	-0.01	9.50	8.75	6.50	8.25	1.25	8.25	0.75	5.50	0.50	1.50	1.75	2.25	3.25	0.50	0.50	0.75	-0.265137	0.126953	0.928223	4.830000	-3.640000	2.100000	773.00	-0.17	-0.14
2.70	0.00	0.75	0.75	1.00	0.25	0.50	0.50	0.25	0.50	1.50	0.75	0.00	0.25	0.50	0.50	0.50	-0.992676	0.103516	1.291016	3.920000	-267.190002	-56.700001	108.00	0.04	-0.04	9.50	8.25	6.50	8.00	1.25	8.50	0.75	5.50	0.75	1.50	1.75	2.25	3.75	0.50	0.50	0.75	-0.266113	0.127441	0.922363	4.340000	-4.130000	2.170000	777.00	-0.16	-0.14
2.71	0.00	0.50	0.50	1.00	0.25	0.75	0.50	0.75	0.50	1.25	0.75	0.00	0.25	0.50	0.75	0.50	-0.989746	0.150879	1.329590	3.640000	-258.089996	-42.420002	114.00	0.05	-0.08	9.25	8.00	6.75	8.00	1.25	8.75	1.00	5.75	0.50	1.50	2.00	2.00	3.75	0.75	0.50	1.00	-0.258301	0.126465	0.916992	3.920000	-4.550000	2.380000	787.00	-0.16	-0.14
2.72	0.00	0.75	0.25	0.75	0.25	0.50	0.50	1.00	1.00	1.50	0.50	0.25	0.00	0.75	0.50	0.50	-1.009277	0.199219	1.387207	2.310000	-248.500000	-26.600000	119.00	0.08	-0.05	9.25	8.00	6.50	7.75	1.25	8.75	0.75	5.75	0.75	1.50	2.00	2.25	4.25	0.25	0.50	0.75	-0.261230	0.126465	0.914062	4.060000	-4.620000	2.380000	781.00	-0.16	-0.15
2.73	0.00	0.75	0.50	1.00	0.25	1.00	0.50	0.75	0.75	1.25	0.75	0.25	0.00	0.75	0.75	0.50	-1.040527	0.240723	1.455566	2.660000	-238.630005	-10.710000	127.00	0.05	-0.07	9.00	7.25	6.50	7.75	1.50	9.00	0.75	5.75	0.75	1.25	2.00	2.50	4.25	0.75	0.75	0.75	-0.257812	0.130371	0.919922	4.410000	-4.690000	2.380000	784.00	-0.15	-0.15
2.74	0.00	0.50	0.50	1.00	0.25	1.00	0.50	0.25	0.50	1.50	0.75	0.25	0.00	0.50	0.50	0.50	-1.089844	0.255859	1.531738	5.670000	-229.460007	3.850000	109.00	0.05	-0.05	9.00	7.25	6.25	7.50	1.25	9.25	1.00	6.00	0.75	1.50	2.00	2.75	4.75	0.50	0.75	0.75	-0.256836	0.129395	0.912598	4.900000	-4.480000	2.310000	796.00	-0.14	-0.15
2.75	0.25	0.75	0.50	1.00	0.25	1.00	0.50	0.75	0.50	1.25	0.50	0.50	0.00	0.50	0.50	0.25	-1.120605	0.263184	1.556152	8.120000	-220.639999	16.660000	119.00	0.01	-0.08	9.00	7.00	6.00	7.50	1.50	9.25	0.75	6.00	0.50	1.50	2.25	2.50	4.75	0.75	0.75	1.25	-0.252930	0.132812	0.916504	5.250000	-4.270000	2.100000	790.00	-0.14	-0.15
2.76	0.00	0.50	0.75	0.75	0.25	1.00	0.50	0.50	0.75	1.50	0.75	0.00	0.00	0.50	0.50	0.50	-1.199219	0.265137	1.587402	6.790000	-211.750000	28.070000	114.00	0.05	-0.04	8.50	6.75	6.00	7.50	1.75	9.75	0.75	6.25	0.75	1.50	2.50	2.75	5.25	0.75	0.75	1.00	-0.257324	0.129883	0.915039	5.670000	-3.850000	1.890000	809.00	-0.13	-0.16
2.77	0.00	0.50	0.75	1.00	0.25	1.00	0.50	0.50	0.75	1.25	0.50	0.00	0.00	0.00	0.75	0.50	-1.229492	0.275879	1.606445	2.590000	-203.279999	38.360001	109.00	0.02	-0.06	8.25	6.25	6.00	7.50	1.50	9.75	0.75	6.50	1.25	1.75	2.75	3.50	5.50	0.75	1.00	1.00	-0.253906	0.139160	0.917480	5.810000	-3.290000	1.680000	831.00	-0.11	-0.16
2.78	0.00	0.50	0.50	0.50	0.25	1.00	0.50	0.50	0.75	1.25	0.50	0.25	0.00	0.00	0.50	0.50	-1.254883	0.276855	1.645508	-2.310000	-196.070007	48.369999	99.00	0.05	-0.06	7.75	6.25	5.75	7.25	1.50	9.75	0.75	6.50	1.00	1.75	3.00	3.75	5.50	0.50	0.50	1.25	-0.254883	0.131348	0.916016	5.740000	-2.660000	1.330000	814.00	-0.11	-0.16
2.79	0.00	0.50	0.50	1.00	0.25	0.75	0.50	0.25	0.75	1.25	0.50	0.25	0.00	0.50	0.50	0.75	-1.333008	0.277832	1.670410	-1.330000	-188.930008	67.269997	105.00	0.06	-0.04	7.50	5.75	5.75	7.00	1.50	10.00	1.00	6.75	1.00	1.75	3.00	4.00	6.00	1.00	1.00	1.25	-0.256348	0.135742	0.918457	5.390000	-1.960000	1.120000	833.00	-0.10	-0.16
2.80	0.25	0.25	0.75	1.00	0.25	0.25	0.50	0.50	0.50	1.25	0.75	0.00	0.00	0.50	0.50	0.25	-1.366699	0.241699	1.676758	7.630000	-189.770004	76.650002	99.00	0.04	-0.02	7.50	5.25	5.75	6.75	1.50	10.00	0.75	7.00	1.00	1.75	3.25	4.25	6.25	0.75	0.75	1.25	-0.269531	0.138184	0.916992	5.110000	-1.050000	0.980000	828.00	-0.10	-0.17
2.81	0.00	0.25	0.75	1.00	0.25	0.75	0.50	0.75	0.75	1.50	0.75	0.25	0.00	0.75	0.25	0.75	-1.395508	0.176758	1.667480	18.549999	-194.250000	85.820000	120.00	0.06	-0.05	6.75	4.50	5.50	6.75	1.50	10.25	0.75	6.75	1.00	1.75	3.25	5.00	6.75	1.50	1.25	1.25	-0.266602	0.142090	0.919922	5.180000	-0.210000	0.840000	834.00	-0.08	-0.17
2.82	0.00	0.50	0.50	0.75	0.25	0.50	0.50	0.25	0.75	1.25	0.50	0.50	0.00	0.50	0.50	0.50	-1.420898	0.085938	1.624023	25.129999	-201.389999	94.360001	100.00	0.08	-0.03	6.25	4.25	5.50	6.25	1.75	10.00	0.75	7.00	1.25	2.00	4.50	5.00	7.00	1.25	1.25	1.50	-0.262695	0.141602	0.914551	5.390000	0.910000	0.700000	848.00	-0.06	-0.17
2.83	0.00	0.75	0.50	0.75	0.25	1.00	0.50	0.50	0.75	1.25	0.25	0.25	0.00	0.75	0.50	0.75	-1.411133	0.018555	1.450684	24.920000	-208.180008	101.639999	111.00	0.05	-0.05	6.00	3.75	5.00	6.00	1.50	10.00	0.75	7.00	1.25	2.00	4.50	5.50	7.00	1.50	1.25	1.50	-0.263184	0.144531	0.916504	5.810000	2.030000	0.420000	835.00	-0.05	-0.18
2.84	0.00	0.75	0.50	0.75	0.25	0.75	0.50	0.50	0.75	1.25	0.50	0.00	0.00	0.50	0.50	0.50	-1.445312	-0.061035	1.226562	19.670000	-211.399994	105.840004	104.00	0.04	-0.04	5.25	3.00	5.00	5.50	1.50	10.00	0.75	7.25	1.50	2.50	5.00	6.00	7.50	1.25	1.75	1.75	-0.273926	0.145508	0.908203	5.950000	3.570000	0.140000	848.00	-0.03	-0.18
2.85	0.00	0.50	0.25	1.00	0.25	0.75	0.50	0.25	0.50	1.25	0.50	0.00	0.00	0.50	0.25	0.25	-1.695312	-0.116699	0.933594	21.000000	-211.610001	105.699997	88.00	0.03	-0.04	5.00	2.50	3.75	5.25	1.25	9.75	1.00	7.25	1.50	2.50	5.50	6.25	7.75	1.25	1.25	1.75	-0.292480	0.137207	0.922852	3.220000	6.930000	-0.350000	823.00	-0.02	-0.18
2.86	0.00	0.75	0.25	0.75	0.25	0.00	0.50	0.75	0.75	1.25	0.50	0.25	0.00	0.50	0.25	0.25	-2.057129	-0.212402	0.641113	39.480000	-209.160004	97.860001	94.00	0.06	-0.04	4.50	2.00	3.25	4.50	1.25	9.50	0.75	7.50	1.50	2.50	6.00	6.75	8.00	1.25	1.75	1.75	-0.282227	0.150391	0.905273	1.050000	8.750000	-0.350000	813.00	-0.00	-0.19
2.87	0.50	0.50	0.50	1.25	0.25	1.00	0.50	0.50	0.50	1.25	0.50	0.25	0.25	0.50	0.75	0.50	-2.593750	-0.322754	0.324707	58.099998	-200.479996	76.019997	122.00	0.02	-0.07	3.25	1.50	3.00	4.00	1.00	9.00	1.00	7.25	1.50	2.75	6.25	7.25	8.00	1.75	2.00	2.25	-0.274414	0.146973	0.907227	-3.080000	11.900000	-0.560000	796.00	0.02	-0.19
2.88	0.00	0.50	0.50	0.75	0.25	0.75	0.50	0.50	0.75	1.25	0.75	0.00	0.00	0.50	0.50	0.50	-3.035645	-0.388184	-0.072266	61.459999	-183.750000	39.689999	104.00	0.06	-0.04	3.25	1.00	2.50	3.25	1.00	8.50	1.00	7.25	2.25	3.25	6.75	7.50	8.25	2.00	2.00	2.25	-0.286133	0.154785	0.918945	-7.210000	15.050000	-1.120000	800.00	0.04	-0.19
2.89	0.00	0.50	0.75	1.25	0.25	1.00	0.50	0.50	0.50	1.25	0.50	0.00	0.00	0.50	0.50	0.50	-3.083008	-0.385254	-0.627441	53.549999	-149.940002	-2.380000	110.00	0.01	-0.06	1.75	1.25	1.75	2.75	1.00	8.00	1.00	7.50	2.75	3.50	7.25	7.75	8.50	2.00	2.00	2.25	-0.280762	0.142090	0.907227	-11.340000	18.200001	-1.960000	789.00	0.07	-0.19
2.90	0.00	0.50	0.75	0.75	0.25	1.00	0.50	0.75	0.50	1.50	0.50	0.25	0.00	0.50	0.25	0.50	-2.187988	-0.287109	-0.974609	9.170000	-13.510000	-53.340000	112.00	0.03	-0.07	1.50	1.00	2.00	1.75	1.00	7.50	1.25	7.25	2.75	4.25	7.50	8.00	8.75	2.00	2.25	2.50	-0.297852	0.154785	0.920410	-14.140000	20.719999	-3.010000	790.00	0.08	-0.18
2.91	0.00	0.50	0.75	0.50	0.25	1.00	0.50	0.50	0.75	1.25	0.75	0.25	0.50	0.50	0.25	0.50	-2.187988	-0.287109	-0.974609	9.170000	-13.510000	-53.340000	113.00	0.06	-0.06	1.00	0.75	1.25	1.75	0.50	6.75	1.50	7.00	3.25	5.00	8.00	8.25	8.75	2.25	2.50	2.75	-0.295410	0.145996	0.930664	-15.050000	23.309999	-4.060000	788.00	0.11	-0.18
2.92	0.00	0.50	0.75	1.00	0.25	0.75	0.50	0.25	0.75	1.50	0.50	0.00	0.00	0.50	0.50	0.50	-1.740723	-0.147949	-0.536621	-31.150000	60.900002	-55.439999	106.00	0.04	-0.02	0.00	0.25	0.75	1.00	0.50	6.25	2.00	7.00	3.75	5.50	8.00	8.50	9.00	3.00	2.25	2.50	-0.326172	0.158691	0.918945	-13.020000	27.160000	-5.040000	779.00	0.13	-0.17
2.93	0.25	1.00	0.75	1.00	0.25	0.75	0.50	0.50	0.50	1.25	0.50	0.00	0.00	0.50	0.50	0.25	-0.785645	-0.081055	0.404297	-94.919998	200.270004	-8.960000	111.00	-0.01	-0.05	0.25	0.25	0.50	1.25	0.50	5.25	2.00	6.50	4.50	6.25	8.25	8.50	9.00	3.00	2.75	2.75	-0.304199	0.138184	0.935547	-10.920000	31.290001	-6.020000	792.00	0.14	-0.16
2.94	0.75	1.25	0.75	1.50	0.25	0.50	0.50	0.75	0.25	1.25	0.25	0.25	0.00	0.25	0.25	0.50	-0.505371	0.293945	1.272461	-74.129997	229.110001	11.410000	120.00	-0.08	-0.08	0.25	0.25	0.50	1.00	0.25	4.50	2.25	6.25	5.00	6.50	8.75	8.75	9.00	3.50	3.00	3.00	-0.306641	0.147461	0.941895	-7.630000	36.610001	-7.280000	805.00	0.15	-0.15
2.95	1.75	2.00	1.00	1.50	0.50	0.75	0.50	0.25	0.25	1.25	0.25	0.00	0.00	0.50	0.25	0.25	0.057617	0.250977	1.833496	-17.850000	198.520004	38.779999	139.00	-0.14	-0.03	0.25	0.25	0.00	0.75	0.25	3.25	2.50	5.75	5.50	7.00	9.00	9.00	9.00	3.50	3.00	3.00	-0.317871	0.144531	0.956543	-3.500000	44.240002	-8.750000	795.00	0.17	-0.13
2.96	3.00	3.00	1.25	2.00	0.25	0.50	0.50	0.25	0.50	1.25	0.50	0.00	0.00	0.25	0.50	0.25	-0.201660	-0.163574	1.001465	21.629999	150.220001	57.470001	177.00	-0.17	-0.03	0.75	0.00	0.00	0.75	0.00	2.50	2.50	5.50	5.75	7.25	9.00	9.25	8.75	4.50	3.00	3.25	-0.339355	0.145020	0.941406	0.210000	54.180000	-10.710000	800.00	0.18	-0.12
2.97	5.00	4.25	2.00	2.25	0.50	0.25	0.50	0.25	0.50	1.00	0.50	0.00	0.00	0.50	0.25	0.50	-0.094727	-0.263184	0.405273	35.910000	155.750000	60.340000	226.00	-0.22	-0.02	0.00	0.00	0.25	0.00	0.00	2.00	2.50	5.25	6.25	7.50	9.25	9.25	8.75	5.00	3.25	3.00	-0.350586	0.127441	0.933594	2.380000	66.150002	-12.040000	794.00	0.20	-0.11
2.98	6.25	5.25	2.50	3.00	0.50	0.00	0.50	0.50	0.50	0.75	0.50	0.00	0.00	0.25	0.00	0.25	-0.152344	-0.522949	0.629395	30.380001	192.570007	47.880001	260.00	-0.26	-0.02	0.00	0.00	0.25	0.25	0.00	1.75	2.25	5.00	7.00	7.50	9.25	9.25	8.75	5.25	3.50	3.25	-0.350586	0.132812	0.971680	4.270000	79.379997	-12.250000	804.00	0.20	-0.11
2.99	8.50	6.75	3.25	3.25	0.25	0.25	0.50	0.25	0.75	1.00	0.25	0.00	0.00	0.50	0.00	0.25	-0.354004	-0.487793	1.304199	25.760000	213.009995	26.040001	320.00	-0.28	-0.01	0.00	0.00	0.25	0.25	0.00	1.25	2.25	4.25	7.50	7.75	9.50	9.25	8.50	5.50	3.50	3.25	-0.389160	0.163574	1.047363	3.850000	95.970001	-12.670000	798.00	0.21	-0.10
3.00	11.25	8.25	3.50	3.50	0.50	0.00	0.50	0.00	0.50	1.00	0.25	0.00	0.00	0.75	0.00	0.50	-0.625977	-0.357910	1.590820	24.360001	207.479996	5.810000	373.00	-0.29	-0.00	0.00	0.00	0.25	0.25	0.00	0.75	2.25	3.75	7.75	8.00	9.75	9.25	8.25	5.50	3.50	3.50	-0.413086	0.133301	1.011230	7.210000	129.289993	-12.880000	791.00	0.21	-0.09
3.01	13.25	9.25	4.50	4.25	0.50	0.00	0.50	0.00	0.50	1.25	0.50	0.25	0.00	0.50	0.00	0.25	-0.642090	0.001953	1.478027	30.940001	201.110001	-3.780000	437.00	-0.30	-0.00	0.00	0.00	0.00	0.00	0.00	1.00	2.00	3.25	7.75	8.00	9.75	9.00	8.00	6.50	3.75	3.50	-0.436523	0.136230	0.988281	6.720000	146.300003	-12.810000	782.00	0.22	-0.08
3.02	14.00	10.75	5.25	5.00	0.50	0.25	0.50	0.50	0.75	1.00	0.50	0.00	0.00	0.75	0.75	0.50	-0.646973	0.167480	1.589355	37.170002	196.979996	-1.400000	506.00	-0.28	-0.02	0.00	0.00	0.00	0.25	0.00	0.50	2.00	2.75	8.00	8.25	10.00	9.00	7.50	7.00	3.75	3.50	-0.461914	0.142090	1.007812	5.390000	161.979996	-12.460000	780.00	0.23	-0.07
3.03	15.25	11.50	5.50	5.50	0.50	0.75	0.75	0.25	0.50	1.00	0.50	0.50	0.00	0.50	0.25	0.50	-0.764648	0.104492	1.888672	39.480000	188.369995	4.200000	540.00	-0.29	-0.02	0.00	0.00	0.00	0.00	0.00	0.25	2.00	2.25	8.00	8.00	9.75	9.00	7.25	7.50	3.25	3.50	-0.498047	0.141602	0.996582	4.410000	178.009995	-12.110000	754.00	0.24	-0.06
3.04	15.50	12.00	6.50	6.00	0.75	1.50	0.75	0.50	0.50	1.50	0.75	0.25	0.00	0.75	0.50	0.25	-0.807617	-0.099609	1.887207	33.599998	163.520004	4.620000	596.00	-0.28	-0.02	0.00	0.00	0.00	0.00	0.00	0.25	1.75	2.00	7.75	8.25	9.75	8.75	6.75	7.50	3.00	4.00	-0.526367	0.135254	1.024902	4.340000	194.320007	-11.760000	736.00	0.24	-0.06
3.05	15.50	12.00	7.00	6.50	1.00	1.25	0.75	0.75	0.75	1.50	0.75	0.50	0.00	1.25	0.25	0.75	-0.561523	-0.054688	2.060547	72.940002	95.340004	8.470000	626.00	-0.27	-0.03	0.00	0.00	0.00	0.00	0.00	0.25	1.75	1.75	7.75	8.00	9.50	8.50	6.50	8.00	3.25	4.00	-0.569824	0.150391	1.069824	4.830000	211.470001	-11.480000	728.00	0.24	-0.05
3.06	15.75	12.25	7.50	6.75	1.00	1.75	0.75	1.25	0.75	1.50	1.00	0.25	1.00	1.50	0.75	0.75	-0.394531	0.077148	0.942383	47.529999	32.830002	3.780000	677.00	-0.25	-0.04	0.00	0.00	0.00	0.00	0.00	0.25	1.75	1.50	7.50	7.75	9.50	8.25	6.00	8.00	3.00	4.50	-0.638184	0.168945	1.150879	4.480000	230.089996	-11.830000	708.00	0.24	-0.05
3.07	15.50	12.25	7.75	7.00	1.00	1.75	0.75	1.25	1.25	1.50	0.75	0.50	0.00	1.50	0.50	0.50	-0.308105	0.161621	1.104004	26.600000	20.090000	3.850000	673.00	-0.25	-0.03	0.00	0.25	0.00	0.00	0.00	0.25	1.50	1.25	7.50	7.50	9.00	7.75	5.50	8.25	3.00	4.25	-0.699219	0.227051	1.242676	4.830000	249.479996	-13.440001	682.00	0.25	-0.04
3.08	15.75	12.25	7.75	7.25	1.00	1.50	0.75	1.25	0.75	1.75	1.00	0.75	0.00	1.50	0.75	0.75	-0.261719	0.049316	0.881836	11.130000	10.430000	4.480000	683.00	-0.25	-0.03	0.00	0.00	0.00	0.00	0.00	0.00	1.25	0.75	7.00	7.00	8.50	7.50	5.25	8.50	2.50	4.25	-0.801758	0.305176	1.383789	6.020000	268.309998	-17.150000	632.00	0.26	-0.04
3.09	15.75	12.25	7.50	7.50	1.00	2.00	1.00	1.50	0.75	2.00	1.00	0.25	0.50	1.50	1.00	0.50	-0.297363	0.068359	0.924316	2.940000	6.160000	1.680000	702.00	-0.24	-0.04	0.00	0.00	0.00	0.00	0.00	0.00	1.25	0.50	6.50	6.25	8.00	6.75	5.00	8.50	2.00	4.25	-0.933594	0.367676	1.415527	12.460000	283.429993	-21.490000	586.00	0.26	-0.04
3.10	16.00	12.75	8.00	7.75	1.00	2.50	1.00	1.50	1.25	1.75	1.25	0.50	0.50	1.25	0.50	0.50	-0.291992	0.076172	0.944824	-0.700000	3.920000	0.280000	729.00	-0.24	-0.04	0.00	0.00	0.00	0.00	0.00	0.25	1.00	0.50	6.00	5.75	7.25	6.00	4.25	8.50	1.75	4.00	-1.102539	0.306152	1.547363	18.620001	293.369995	-24.780001	540.00	0.26	-0.03
3.11	16.00	12.75	8.25	8.00	1.00	2.50	1.00	1.75	1.00	2.00	1.25	0.75	0.50	1.50	1.00	0.75	-0.289062	0.041992	0.945801	-4.060000	2.450000	-0.700000	753.00	-0.23	-0.04	0.00	0.00	0.00	0.00	0.00	0.00	0.75	0.25	5.25	5.50	6.50	5.75	3.75	8.25	1.75	3.25	-1.147949	0.295410	1.622070	30.170000	301.700012	-24.150000	487.00	0.27	-0.03
3.12	16.75	13.25	8.50	8.00	1.00	2.50	1.25	1.25	1.25	2.00	1.00	1.00	0.25	1.75	1.25	1.00	-0.289062	0.035156	0.942871	-5.040000	1.680000	-1.050000	775.00	-0.23	-0.03	0.00	0.00	0.00	0.00	0.00	0.00	0.75	0.00	3.75	4.25	5.75	5.25	3.25	8.00	0.75	3.00	-1.113770	0.216309	1.688965	36.540001	309.610016	-26.110001	406.00	0.27	-0.03
3.13	17.50	13.75	8.50	8.25	1.25	2.50	1.25	1.75	1.25	2.00	1.50	0.75	0.50	2.00	1.25	1.00	-0.294434	0.038574	0.939941	-4.200000	1.400000	-0.840000	814.00	-0.22	-0.04	0.00	0.00	0.00	0.00	0.00	0.00	0.50	0.00	3.25	3.75	5.25	4.50	3.00	7.50	1.00	2.50	-1.081543	0.257812	1.580078	33.950001	317.799988	-28.630001	364.00	0.27	-0.03
3.14	19.00	14.25	8.75	8.50	1.25	3.25	1.25	1.75	1.25	2.00	1.50	1.00	0.25	1.50	1.50	1.00	-0.288086	0.023926	0.941895	-2.660000	1.330000	-0.280000	853.00	-0.23	-0.04	0.00	0.00	0.00	0.00	0.00	0.00	0.25	0.00	2.50	3.25	4.25	4.25	2.50	6.25	0.75	2.25	-1.147461	0.222168	1.537598	36.189999	328.510010	-28.980000	304.00	0.27	-0.04
3.15	18.25	14.50	9.00	8.75	1.25	2.75	1.25	1.50	1.25	2.00	1.25	1.00	0.50	1.50	1.50	0.75	-0.294434	0.021484	0.936035	-0.560000	1.120000	0.490000	840.00	-0.23	-0.04	0.00	0.00	0.00	0.00	0.00	0.00	0.00	0.00	1.50	2.75	3.75	3.50	2.00	5.50	0.50	1.75	-1.090820	0.251465	1.846191	29.960001	332.779999	-31.639999	243.00	0.28	-0.06
3.16	18.50	15.00	9.00	8.75	1.25	3.25	1.25	2.00	1.50	1.75	1.50	0.75	0.25	1.50	1.25	1.00	-0.286133	0.025391	0.934570	1.680000	1.120000	1.610000	861.00	-0.23	-0.04	0.00	0.00	0.00	0.00	0.00	0.50	0.25	0.00	1.00	2.75	3.00	3.25	1.75	4.00	0.75	1.25	-0.906250	0.318848	1.886719	32.970001	324.799988	-30.870001	215.00	0.26	-0.07
3.17	19.00	15.25	9.25	9.00	1.25	4.00	1.25	2.00	1.25	2.25	1.50	0.75	0.50	1.75	1.25	0.75	-0.281250	0.033203	0.930664	3.360000	1.540000	2.800000	892.00	-0.23	-0.04	0.00	0.00	0.00	0.00	0.00	0.00	0.00	0.00	1.00	2.25	2.75	2.25	1.50	2.75	0.50	1.00	-0.430176	0.259766	1.664062	42.560001	313.040009	-32.130001	162.00	0.27	-0.07
3.18	18.75	15.75	9.50	9.25	1.25	4.00	1.50	2.25	1.25	2.25	1.50	1.00	0.75	1.75	1.75	1.00	-0.282715	0.044434	0.940918	4.830000	1.820000	3.570000	923.00	-0.22	-0.05	0.00	0.00	0.00	0.00	0.00	0.25	0.00	0.00	0.75	2.00	2.25	2.00	0.75	1.25	0.00	0.50	-0.020508	0.217285	1.317383	52.920002	286.440002	-35.000000	117.00	0.24	-0.08
3.19	19.75	15.75	9.50	9.50	1.50	4.25	1.25	2.00	1.50	2.25	1.50	1.25	0.00	1.50	1.75	1.25	-0.277344	0.053711	0.934570	5.740000	2.170000	4.130000	935.00	-0.23	-0.04	0.50	0.00	0.25	0.00	0.00	0.00	0.00	0.25	0.50	1.00	1.75	1.50	0.75	0.50	0.25	0.50	0.009277	0.220703	1.024414	65.800003	248.570007	-37.799999	94.00	0.17	-0.11
3.20	19.50	16.00	9.25	9.75	1.50	5.00	1.75	2.75	1.50	2.25	1.50	1.25	1.25	1.75	1.50	1.00	-0.279785	0.056152	0.939941	5.880000	2.450000	4.200000	978.00	-0.22	-0.06	0.00	0.00	0.00	0.00	0.25	0.00	0.00	0.00	0.00	1.25	1.00	1.00	0.75	0.25	0.25	0.50	1.334961	0.071289	1.504395	68.040001	218.889999	-47.320000	61.00	0.22	-0.14
3.21	19.50	16.00	9.25	9.75	1.50	5.00	1.50	2.50	1.50	2.00	1.50	1.25	0.75	1.75	1.50	1.00	-0.279785	0.047363	0.932617	5.320000	2.730000	3.850000	960.00	-0.22	-0.05	0.00	0.00	0.25	0.25	0.00	0.25	0.00	0.00	0.25	1.00	1.00	0.75	0.75	0.00	0.25	0.00	0.015137	0.378906	3.174805	40.040001	144.199997	-71.260002	59.00	0.15	-0.13
3.22	19.25	16.00	9.50	9.75	1.25	5.25	1.75	2.50	1.50	2.25	1.50	1.25	1.00	1.50	1.75	1.25	-0.283691	0.059082	0.944824	3.220000	2.730000	2.380000	973.00	-0.22	-0.06	0.00	0.00	0.00	0.25	0.00	0.00	0.00	0.00	0.00	0.75	1.00	0.25	0.25	0.00	0.50	0.25	1.175293	0.113770	2.843262	10.150000	22.680000	-73.849998	39.00	0.00	0.00
3.23	19.25	16.00	9.50	9.75	1.50	5.25	1.75	3.00	1.75	2.25	1.75	1.25	0.75	1.50	2.00	1.25	-0.283691	0.059082	0.944824	3.220000	2.730000	2.380000	993.00	-0.21	-0.06	0.00	0.00	0.25	0.25	0.00	0.25	0.00	0.00	0.25	1.00	0.75	0.75	0.50	0.00	0.00	0.25	0.985352	0.107910	1.975098	-18.270000	-74.129997	-67.480003	52.00	0.14	-0.12
3.24	19.00	16.00	9.50	10.00	1.50	5.25	1.75	2.75	1.25	2.50	2.00	0.75	1.00	1.50	1.75	1.25	-0.276855	0.058594	0.935059	0.210000	3.220000	0.350000	980.00	-0.22	-0.06	0.00	0.25	0.00	0.00	0.00	0.25	0.00	0.00	0.25	0.75	0.75	0.25	0.00	0.00	0.50	0.25	0.728516	0.140625	1.584961	-44.730000	-132.580002	-63.139999	40.00	0.00	0.00
3.25	19.00	15.75	9.50	10.00	1.50	5.50	1.75	3.00	1.75	2.25	1.75	1.00	1.00	1.50	1.50	1.50	-0.274414	0.053711	0.933105	-0.910000	3.920000	-0.280000	988.00	-0.21	-0.06	0.00	0.00	0.00	0.25	0.00	0.25	0.00	0.00	0.25	0.75	0.75	0.00	0.00	0.00	0.00	0.25	0.737305	0.205078	1.285645	-47.389999	-164.080002	-59.150002	31.00	0.00	0.00
3.26	18.25	16.00	9.50	9.75	1.75	5.50	2.00	3.00	1.75	2.50	1.75	1.50	1.00	1.50	1.50	1.50	-0.278320	0.045898	0.939941	-1.260000	4.480000	-0.490000	996.00	-0.21	-0.06	0.00	0.00	0.25	0.25	0.00	0.00	0.25	0.00	0.00	0.75	0.75	0.25	0.25	0.00	0.00	0.25	0.660645	0.222168	1.182617	-34.650002	-189.350006	-55.720001	37.00	0.00	0.00
3.27	18.25	15.25	9.50	10.00	1.50	5.25	2.00	3.25	2.00	2.25	1.75	1.25	0.75	1.75	1.50	1.25	-0.273438	0.047852	0.940430	-0.840000	5.040000	-0.210000	985.00	-0.20	-0.06	0.00	0.00	0.25	0.25	0.00	0.00	0.00	0.00	0.25	0.75	0.50	0.25	0.25	0.00	0.25	0.00	0.579590	0.204102	1.125977	-17.290001	-213.779999	-53.480000	35.00	0.00	0.00
3.28	18.00	15.00	9.25	9.75	1.50	5.50	2.00	2.75	1.75	2.50	1.50	1.50	1.25	2.00	1.75	1.25	-0.274902	0.047363	0.935547	0.210000	5.670000	0.000000	976.00	-0.20	-0.06	0.00	0.00	0.25	0.25	0.00	0.00	0.25	0.00	0.00	0.75	0.75	0.00	0.00	0.00	0.25	0.00	0.497070	0.131836	1.158203	-3.990000	-237.649994	-51.170002	33.00	0.00	0.00
3.29	17.75	14.75	9.50	9.50	1.50	5.25	2.00	3.00	1.50	2.25	2.00	1.50	1.50	1.75	2.25	1.25	-0.274902	0.044434	0.933105	1.400000	6.160000	0.420000	977.00	-0.19	-0.06	0.00	0.00	0.00	0.00	0.00	0.00	0.25	0.00	0.00	0.75	0.50	0.25	0.00	0.00	0.25	0.00	0.400391	0.048828	1.192871	-2.100000	-263.829987	-48.720001	26.00	0.00	0.00
3.30	17.25	14.25	9.25	9.50	1.75	5.50	2.25	3.25	2.00	2.50	1.75	1.25	1.25	2.00	2.25	1.25	-0.279785	0.046387	0.931641	2.520000	6.580000	0.560000	983.00	-0.19	-0.06	0.00	0.00	0.00	0.00	0.00	0.00	0.00	0.00	0.00	0.75	0.25	0.25	0.00	0.00	0.00	0.00	0.158691	0.045410	1.105469	-21.980000	-310.589996	-43.400002	16.00	0.00	0.00
3.31	16.50	14.00	9.25	9.25	1.50	5.50	2.00	3.00	2.00	2.50	1.75	1.50	1.50	1.75	2.00	1.25	-0.283691	0.050781	0.936035	3.500000	6.720000	0.630000	955.00	-0.19	-0.06	0.00	0.00	0.00	0.00	0.00	0.50	0.00	0.00	0.50	0.25	0.50	0.00	0.00	0.00	0.00	0.00	0.044922	0.076172	1.055176	-28.350000	-324.799988	-39.619999	24.00	0.00	0.00
3.32	16.00	13.50	9.00	9.25	1.50	5.50	2.25	3.25	2.00	2.50	1.75	1.75	1.50	1.75	2.25	1.50	-0.286621	0.057617	0.936523	3.570000	6.930000	0.490000	957.00	-0.18	-0.06	0.00	0.25	0.00	0.00	0.00	0.00	0.00	0.00	0.00	0.25	0.25	0.00	0.00	0.00	0.00	0.00	-0.045410	0.096191	1.044434	-25.969999	-334.809998	-35.840000	9.00	0.00	0.00
3.33	15.50	13.00	9.00	9.25	1.75	5.50	2.25	3.50	2.00	2.75	1.50	2.00	1.75	2.25	1.75	1.25	-0.281250	0.058105	0.933105	3.080000	6.860000	0.210000	956.00	-0.17	-0.06	0.00	0.00	0.00	0.00	0.00	0.25	0.00	0.00	0.00	0.50	0.25	0.00	0.00	0.00	0.00	0.00	-0.138184	0.099121	1.060059	-14.840000	-342.510010	-33.110001	13.00	0.00	0.00
3.34	15.25	12.50	9.00	8.75	1.75	5.75	2.50	3.50	2.00	2.75	2.25	1.75	1.50	2.00	2.25	1.50	-0.278809	0.062500	0.926270	2.380000	6.860000	-0.210000	957.00	-0.16	-0.06	0.00	0.00	0.00	0.00	0.00	0.00	0.00	0.00	0.00	0.50	0.25	0.25	0.00	0.00	0.00	0.25	-0.237793	0.063477	1.068848	0.980000	-347.619995	-32.619999	14.00	0.00	0.00
3.35	15.00	12.00	8.50	9.00	1.75	5.50	2.50	3.50	2.25	2.75	2.00	1.75	1.75	2.25	2.25	1.50	-0.279297	0.064941	0.930664	1.680000	6.720000	-0.700000	948.00	-0.16	-0.06	0.00	0.00	0.00	0.00	0.00	0.25	0.25	0.00	0.00	0.25	0.25	0.00	0.00	0.25	0.00	0.00	-0.311035	0.029297	1.105469	18.900000	-350.420013	-33.389999	16.00	0.00	0.00
3.36	14.25	11.50	8.75	8.75	1.75	5.75	2.50	3.50	2.25	2.75	2.25	2.00	2.25	2.00	2.25	1.75	-0.282715	0.058105	0.929199	1.050000	6.720000	-1.050000	947.00	-0.15	-0.07	0.00	0.00	0.00	0.25	0.00	0.00	0.00	0.00	0.00	0.50	0.00	0.00	0.25	0.00	0.25	0.00	-0.418945	-0.016113	1.152344	33.740002	-351.890015	-35.070000	15.00	0.00	0.00
3.37	13.75	11.25	8.75	8.75	1.75	5.75	2.75	4.00	2.50	3.00	2.50	1.75	2.25	2.25	2.50	1.25	-0.287598	0.058594	0.931152	0.560000	6.580000	-1.260000	961.00	-0.14	-0.06	0.00	0.00	0.00	0.25	0.00	0.25	0.00	0.00	0.00	0.25	0.25	0.00	0.00	0.00	0.00	0.25	-0.537598	-0.036133	1.186523	40.740002	-349.790009	-36.889999	14.00	0.00	0.00
3.38	14.00	10.75	8.50	8.50	1.75	5.75	2.75	4.00	2.75	3.00	2.50	2.25	2.00	2.50	2.50	1.75	-0.300293	0.052734	0.944336	0.140000	6.510000	-1.540000	966.00	-0.13	-0.06	0.00	0.00	0.00	0.25	0.00	0.00	0.00	0.00	0.00	0.50	0.00	0.00	0.25	0.00	0.00	0.00	-0.644531	-0.029297	1.236328	40.950001	-343.630005	-37.660000	12.00	0.00	0.00
3.39	13.25	10.00	8.50	8.50	1.75	5.50	3.00	4.00	2.75	3.00	2.50	2.00	2.25	2.25	2.50	1.75	-0.301758	0.054688	0.936035	-0.140000	5.530000	-1.190000	946.00	-0.13	-0.06	0.00	0.00	0.00	0.00	0.00	0.25	0.00	0.00	0.00	0.25	0.00	0.00	0.25	0.00	0.00	0.00	-0.766113	-0.013672	1.330078	37.450001	-335.019989	-37.170002	9.00	0.00	0.00
3.40	13.00	9.75	8.50	8.25	1.75	5.75	3.00	4.25	3.00	3.25	2.75	2.50	2.50	2.75	2.50	1.75	-0.298828	0.055176	0.933594	-0.070000	4.900000	-0.840000	969.00	-0.12	-0.06	0.00	0.00	0.00	0.25	0.00	0.00	0.25	0.00	0.00	0.00	0.00	0.00	0.00	0.00	0.00	0.25	-0.903809	0.046387	1.418457	32.970001	-326.130005	-34.930000	9.00	0.00	0.00
3.41	12.75	9.50	8.25	8.25	1.75	5.75	3.25	4.25	2.75	3.25	2.75	2.25	2.75	2.75	2.50	2.00	-0.295898	0.060547	0.934570	-0.210000	4.480000	-0.630000	961.00	-0.11	-0.07	0.00	0.00	0.00	0.25	0.00	0.00	0.00	0.00	0.00	0.25	0.25	0.00	0.00	0.00	0.00	0.00	-1.005371	0.104004	1.454590	26.180000	-317.869995	-30.520000	10.00	0.00	0.00
3.42	12.25	9.50	8.25	8.25	2.25	5.50	3.25	4.50	3.50	3.50	2.75	2.50	2.75	3.25	2.75	2.00	-0.293945	0.054688	0.932617	-0.490000	4.200000	-0.770000	989.00	-0.10	-0.06	0.00	0.00	0.00	0.00	0.00	0.00	0.00	0.00	0.00	0.25	0.25	0.25	0.00	0.00	0.00	0.00	-1.058594	0.192871	1.449707	15.960000	-308.209991	-23.940001	9.00	0.00	0.00
3.43	12.00	9.25	8.25	8.00	2.25	5.75	3.50	5.00	3.50	3.50	3.00	2.50	3.00	3.00	3.00	1.75	-0.296875	0.063965	0.934570	-1.120000	4.060000	-0.840000	1001.00	-0.10	-0.06	0.00	0.00	0.00	0.00	0.25	0.25	0.00	0.00	0.00	0.25	0.00	0.00	0.00	0.00	0.00	0.00	-1.071777	0.288574	1.427246	7.140000	-295.119995	-14.630000	10.00	0.00	0.00
3.44	11.50	9.00	8.00	7.75	2.25	5.75	3.75	5.00	3.50	3.50	3.00	2.50	2.75	3.00	3.00	2.00	-0.295410	0.051758	0.931152	-1.750000	4.200000	-0.910000	989.00	-0.09	-0.06	0.00	0.00	0.00	0.25	0.00	0.25	0.00	0.00	0.00	0.25	0.00	0.00	0.00	0.00	0.00	0.00	-1.046875	0.365234	1.463379	3.640000	-279.440002	-2.800000	10.00	0.00	0.00
3.45	11.00	8.50	8.00	8.00	2.25	6.00	3.75	5.00	4.00	3.75	3.25	3.00	3.25	3.50	2.75	2.00	-0.302246	0.058105	0.930664	-2.310000	4.690000	-0.840000	1012.00	-0.08	-0.06	0.00	0.00	0.00	0.25	0.00	0.00	0.00	0.00	0.00	0.25	0.00	0.00	0.00	0.00	0.00	0.00	-1.043457	0.464355	1.479980	13.720000	-245.630005	23.660000	6.00	0.00	0.00
3.46	10.25	8.50	8.00	7.75	2.25	5.75	4.00	5.00	4.50	3.75	3.25	3.00	3.50	3.50	3.00	2.00	-0.292969	0.062500	0.932129	-2.380000	4.970000	-0.980000	1014.00	-0.07	-0.06	0.00	0.00	0.00	0.00	0.00	0.00	0.00	0.00	0.00	0.25	0.00	0.00	0.00	0.00	0.00	0.00	-1.056152	0.462891	1.504395	22.260000	-227.779999	36.820000	3.00	0.00	0.00
3.47	9.75	7.75	8.00	7.75	2.50	5.75	4.25	5.00	4.75	4.00	3.50	3.00	4.00	3.75	3.50	2.00	-0.290527	0.066406	0.920410	-2.450000	5.670000	-1.050000	1031.00	-0.06	-0.06	0.00	0.00	0.00	0.25	0.25	0.25	0.00	0.00	0.00	0.25	0.00	0.00	0.25	0.00	0.00	0.00	-1.099609	0.446289	1.535645	27.860001	-210.000000	50.610001	15.00	0.00	0.00
3.48	9.25	7.75	7.75	7.50	2.50	6.00	4.50	5.25	5.25	5.00	3.50	3.25	4.25	4.00	3.75	2.00	-0.292969	0.062988	0.931152	-2.660000	6.860000	-1.050000	1062.00	-0.04	-0.06	0.00	0.25	0.00	0.00	0.00	0.50	0.25	0.00	0.25	0.25	0.25	0.00	0.00	0.00	0.00	0.00	-1.150879	0.415527	1.560547	27.090000	-193.550003	65.029999	24.00	0.00	0.00
3.49	9.00	7.25	7.75	7.25	2.50	5.75	4.75	5.25	5.50	5.25	5.00	3.25	5.00	4.25	3.75	2.25	-0.299805	0.054199	0.935547	-2.590000	7.980000	-0.910000	1089.00	-0.03	-0.06	0.00	0.00	0.00	0.00	0.00	0.25	0.00	0.00	0.00	0.25	0.00	0.00	0.00	0.00	0.25	0.00	-1.227539	0.368164	1.655273	21.420000	-179.059998	79.449997	9.00	0.00	0.00
3.50	8.00	6.75	7.50	7.00	2.50	5.75	5.00	5.50	6.00	5.50	4.75	3.75	4.50	5.00	3.75	2.50	-0.309082	0.064453	0.932617	-2.310000	9.100000	-0.840000	1092.00	-0.01	-0.06	0.00	0.00	0.00	0.00	0.00	0.00	0.00	0.00	0.00	0.00	0.00	0.00	0.00	0.00	0.00	0.00	-1.307129	0.284180	1.800781	11.690000	-169.259995	92.470001	0.00	0.00	0.00
3.51	7.50	6.25	7.00	6.75	2.25	5.50	5.00	5.25	6.25	5.75	5.25	3.75	4.75	4.75	4.25	2.25	-0.305664	0.054688	0.934082	-1.820000	10.430000	-0.700000	1077.00	-0.00	-0.06	0.00	0.00	0.00	0.00	0.00	0.00	0.00	0.00	0.00	0.25	0.00	0.00	0.00	0.00	0.25	0.00	-1.371582	0.225098	1.960938	1.890000	-168.839996	102.900002	6.00	0.00	0.00
3.52	7.00	6.00	6.75	6.25	2.25	5.50	5.25	5.50	7.00	6.00	5.50	4.00	5.00	5.00	4.50	2.50	-0.302246	0.055664	0.934570	-1.330000	11.900000	-0.700000	1098.00	0.01	-0.05	0.00	0.00	0.00	0.00	0.25	0.00	0.25	0.00	0.00	0.25	0.00	0.00	0.00	0.00	0.00	0.00	-1.450195	0.224609	2.086914	0.980000	-181.300003	110.110001	11.00	0.00	0.00
3.53	6.00	5.50	6.50	6.25	2.25	5.50	5.25	5.50	7.25	6.50	6.00	4.25	5.25	5.00	5.00	2.50	-0.304688	0.056641	0.933105	-0.490000	15.050000	-0.770000	1105.00	0.03	-0.06	0.00	0.00	0.00	0.00	0.00	0.00	0.00	0.00	0.25	0.00	0.00	0.00	0.00	0.00	0.00	0.00	-1.539551	0.217285	2.119141	17.780001	-205.100006	113.820000	4.00	0.00	0.00
3.54	5.00	5.25	5.75	5.75	2.25	5.25	5.50	5.75	7.50	6.75	6.25	5.25	5.50	5.25	5.25	2.75	-0.311035	0.055664	0.933105	-0.420000	17.290001	-0.910000	1112.00	0.04	-0.06	0.00	0.00	0.00	0.00	0.00	0.00	0.00	0.00	0.00	0.25	0.00	0.00	0.00	0.00	0.00	0.00	-1.591309	0.179199	1.870605	52.779999	-234.919998	115.150002	3.00	0.00	0.00
3.55	5.00	4.50	5.50	5.50	2.00	5.00	5.50	5.75	8.00	7.00	6.75	5.25	5.75	5.50	5.25	3.00	-0.317871	0.055664	0.936035	-0.420000	19.950001	-0.840000	1115.00	0.05	-0.06	0.00	0.00	0.00	0.00	0.00	0.25	0.00	0.00	0.00	0.00	0.00	0.00	0.00	0.00	0.00	0.00	-1.738770	0.065430	1.582031	112.840004	-264.390015	123.830002	3.00	0.00	0.00
3.56	3.25	4.50	5.25	5.25	1.75	4.75	5.50	5.75	8.25	7.50	7.25	6.00	6.25	5.50	5.50	2.75	-0.321777	0.058105	0.942871	-0.350000	22.820000	-1.050000	1112.00	0.07	-0.06	0.00	0.00	0.25	0.00	0.00	0.00	0.00	0.00	0.00	0.00	0.00	0.00	0.00	0.00	0.00	0.00	-2.767578	-0.235840	0.791016	159.949997	-285.529999	125.930000	3.00	0.00	0.00
3.57	3.00	3.25	4.75	5.00	1.75	4.50	5.75	5.50	8.50	7.50	7.50	6.25	6.25	6.25	5.50	2.75	-0.316406	0.060059	0.941895	-0.980000	26.530001	-1.190000	1100.00	0.09	-0.06	0.00	0.00	0.00	0.00	0.00	0.00	0.00	0.00	0.00	0.00	0.00	0.00	0.00	0.00	0.00	0.00	-2.767578	-0.484375	0.791016	177.309998	-291.829987	112.699997	0.00	0.00	0.00
3.58	2.50	3.25	3.75	4.25	1.50	3.50	5.75	5.25	8.75	7.75	7.75	6.50	6.50	6.25	5.50	3.25	-0.330078	0.062012	0.931641	-2.100000	30.170000	-0.700000	1069.00	0.10	-0.05	0.00	0.00	0.00	0.25	0.00	0.00	0.00	0.00	0.00	0.00	0.00	0.00	0.00	0.00	0.00	0.00	-3.399902	-0.674316	0.130859	174.930008	-285.390015	82.879997	3.00	0.00	0.00
3.59	2.00	2.50	3.25	4.25	1.25	3.00	6.00	5.50	9.25	8.00	7.75	7.00	6.50	7.00	5.75	3.25	-0.334473	0.058105	0.935547	-2.100000	34.650002	-0.840000	1075.00	0.12	-0.05	0.00	0.00	0.00	0.25	0.00	0.00	0.00	0.00	0.00	0.25	0.00	0.00	0.00	0.00	0.00	0.00	-3.438965	-0.809082	-1.200684	152.600006	-192.639999	8.050000	6.00	0.00	0.00
3.60	1.75	2.50	2.75	3.00	1.25	2.50	6.00	5.00	9.50	8.25	8.00	7.25	7.00	7.25	6.00	3.25	-0.363281	0.069824	0.907227	-0.840000	41.509998	-0.490000	1057.00	0.14	-0.05	0.00	0.00	0.00	0.25	0.00	0.25	0.00	0.00	0.00	0.25	0.00	0.00	0.00	0.00	0.00	0.00	-2.872559	-0.839355	-1.377441	116.270004	-98.070000	-22.750000	10.00	0.00	0.00
3.61	1.50	2.25	2.50	3.25	1.00	2.00	6.00	5.00	10.00	8.50	8.25	7.50	6.75	7.50	6.00	3.50	-0.348633	0.064941	0.967285	-0.350000	47.880001	-0.280000	1060.00	0.14	-0.04	0.00	0.00	0.00	0.00	0.00	0.00	0.00	0.00	0.00	0.00	0.00	0.00	0.00	0.00	0.00	0.00	-2.785645	-1.155762	-0.970703	-0.210000	38.220001	-42.279999	0.00	0.00	0.00
3.62	1.50	2.50	2.25	3.25	1.00	2.00	6.00	4.00	10.50	8.75	8.50	7.50	7.00	7.75	6.00	3.75	-0.356934	0.062012	0.965332	0.490000	56.770000	-0.630000	1062.00	0.15	-0.04	0.00	0.00	0.00	0.25	0.00	0.00	0.00	0.00	0.00	0.00	0.00	0.00	0.00	0.00	0.00	0.00	-2.333984	-0.839355	-1.027344	-144.199997	144.410004	-59.010002	3.00	0.00	0.00
3.63	0.75	1.75	2.50	2.75	1.00	2.00	6.00	3.50	11.00	8.75	8.50	7.75	6.75	8.00	6.25	3.75	-0.373535	0.064941	0.943359	2.030000	66.709999	-1.050000	1046.00	0.16	-0.03	0.75	0.25	0.00	0.00	0.00	0.00	0.00	0.00	0.00	0.00	0.00	0.00	0.00	0.00	0.00	0.00	-1.071289	0.130371	0.473633	-218.680008	221.479996	-77.769997	12.00	0.00	0.00
3.64	1.00	1.75	1.75	2.75	0.75	1.25	6.00	2.50	11.00	9.00	8.75	7.75	6.75	8.00	6.25	3.75	-0.388672	0.075195	0.959961	3.920000	78.610001	-1.680000	1014.00	0.17	-0.02	0.50	0.75	0.75	0.00	0.00	0.00	0.00	0.00	0.00	0.00	0.00	0.00	0.00	0.00	0.00	0.00	-0.268555	0.493164	2.257812	-187.110001	251.790009	-63.630001	24.00	0.00	0.00
3.65	0.75	1.75	2.00	2.50	0.75	1.25	5.75	2.50	11.50	9.00	8.75	7.75	6.75	8.25	6.25	3.75	-0.400391	0.068359	0.965332	4.830000	92.750000	-2.660000	1017.00	0.18	-0.02	2.25	1.00	1.00	0.50	0.25	0.00	0.00	0.00	0.00	0.00	0.00	0.00	0.00	0.00	0.00	0.00	-0.016113	0.559082	2.215820	-118.720001	203.490005	-21.559999	62.00	-0.35	0.02
3.66	0.75	1.50	1.25	2.75	0.75	1.25	5.75	2.25	11.50	9.25	8.75	7.75	6.75	8.50	6.25	4.00	-0.418945	0.072754	0.958496	4.480000	109.480003	-3.430000	1010.00	0.18	-0.02	5.25	2.00	1.50	1.25	0.00	0.00	0.00	0.00	0.00	0.00	0.00	0.00	0.00	0.00	0.25	0.00	-0.097168	0.285156	0.956543	-62.160000	153.020004	16.100000	127.00	-0.35	0.01
3.67	0.75	1.50	1.75	2.00	0.75	0.50	5.75	1.00	11.75	9.25	9.00	7.75	6.50	8.75	6.25	4.00	-0.430176	0.062988	0.985352	2.310000	129.430008	-3.710000	982.00	0.19	-0.00	6.50	3.75	1.75	1.25	0.25	0.00	0.00	0.00	0.00	0.00	0.00	0.00	0.00	0.00	0.00	0.00	-0.110352	-0.117188	0.487305	-26.740000	174.789993	38.150002	165.00	-0.37	0.00
3.68	0.25	1.50	1.25	2.25	0.50	0.00	5.50	1.00	12.00	9.50	9.00	7.75	5.75	9.00	6.25	3.50	-0.460449	0.059570	1.009766	-0.490000	148.190002	-3.850000	957.00	0.20	0.00	8.25	5.25	2.75	2.00	0.00	0.00	0.00	0.00	0.00	0.00	0.00	0.00	0.25	0.25	0.00	0.00	-0.270996	-0.395996	1.182617	-13.160000	223.509995	40.670002	228.00	-0.36	-0.01
3.69	0.50	1.50	1.50	1.75	0.50	0.75	5.50	0.25	12.00	9.25	9.00	7.50	5.25	9.00	6.25	4.00	-0.511719	0.079590	1.000977	-7.210000	181.160004	-5.250000	944.00	0.20	0.01	9.75	7.25	3.25	2.75	0.00	0.00	0.00	0.00	0.00	0.00	0.00	0.00	0.00	0.00	0.00	0.00	-0.541016	-0.669922	1.831543	7.700000	229.320007	30.309999	280.00	-0.37	-0.02
3.70	0.50	1.25	1.00	1.50	0.50	0.00	5.25	0.50	12.00	9.25	8.75	7.50	5.00	9.25	6.25	4.25	-0.550781	0.097656	1.053223	-11.200000	197.889999	-7.420000	920.00	0.22	0.01	11.50	8.50	4.00	3.75	0.00	0.00	0.00	0.00	0.00	0.00	0.00	0.00	0.00	0.25	0.00	0.00	-0.633789	-0.635742	1.863770	19.670000	201.600006	1.960000	341.00	-0.36	-0.02
3.71	0.00	1.25	0.75	1.75	0.50	0.50	5.25	0.00	11.75	9.00	8.75	7.50	4.00	9.50	6.00	4.25	-0.594238	0.111328	1.086426	-15.050000	216.020004	-11.200000	894.00	0.22	0.02	12.75	9.25	5.00	3.75	0.25	0.25	0.00	0.00	0.00	0.00	0.00	0.00	0.00	0.25	0.25	0.25	-0.528320	-0.081543	1.708496	26.110001	177.169998	-26.950001	390.00	-0.35	-0.02
