# time	left pressure 1[N/cm²]	left pressure 2[N/cm²]	left pressure 3[N/cm²]	left pressure 4[N/cm²]	left pressure 5[N/cm²]	left pressure 6[N/cm²]	left pressure 7[N/cm²]	left pressure 8[N/cm²]	left pressure 9[N/cm²]	left pressure 10[N/cm²]	left pressure 11[N/cm²]	left pressure 12[N/cm²]	left pressure 13[N/cm²]	left pressure 14[N/cm²]	left pressure 15[N/cm²]	left pressure 16[N/cm²]	left acceleration X[g]	left acceleration Y[g]	left acceleration Z[g]	left angular X[dps]	left angular Y[dps]	left angular Z[dps]	left total force[N]	left center of pressure X[%]	left center of pressure Y[%]	right pressure 1[N/cm²]	right pressure 2[N/cm²]	right pressure 3[N/cm²]	right pressure 4[N/cm²]	right pressure 5[N/cm²]	right pressure 6[N/cm²]	right pressure 7[N/cm²]	right pressure 8[N/cm²]	right pressure 9[N/cm²]	right pressure 10[N/cm²]	right pressure 11[N/cm²]	right pressure 12[N/cm²]	right pressure 13[N/cm²]	right pressure 14[N/cm²]	right pressure 15[N/cm²]	right pressure 16[N/cm²]	right acceleration X[g]	right acceleration Y[g]	right acceleration Z[g]	right angular X[dps]	right angular Y[dps]	right angular Z[dps]	right total force[N]	right center of pressure X[%]	right center of pressure Y[%]
0.00	5.75	6.25	2.50	5.00	1.25	1.25	0.25	0.25	0.75	0.50	1.00	0.75	0.25	0.50	0.25	0.50	-0.282715	0.045410	0.932129	-1.050000	4.270000	1.120000	306.00	-0.22	-0.07																									
0.01	6.00	6.75	2.75	5.25	1.25	1.75	0.25	0.25	0.75	0.75	1.25	0.50	0.25	0.75	0.50	0.50	-0.284668	0.041992	0.937500	-1.750000	4.130000	1.120000	334.00	-0.21	-0.06																									
0.02	6.00	7.25	2.75	5.50	1.25	1.75	0.25	0.25	0.50	0.75	1.00	0.75	0.25	0.75	0.25	0.50	-0.278809	0.035645	0.934082	-2.030000	3.920000	0.980000	335.00	-0.23	-0.07	14.00	12.00	6.75	7.75	3.75	2.25	0.75	0.25	2.25	1.00	1.25	1.25	0.50	2.25	1.00	0.00	-0.254395	0.045410	0.945801	-2.450000	2.450000	-0.350000	652.00	-0.22	-0.02
0.03	6.50	7.75	2.75	5.75	1.50	1.50	0.25	0.25	1.00	1.00	1.25	1.00	0.50	0.50	0.25	0.75	-0.284668	0.043945	0.936035	-2.100000	3.780000	0.980000	366.00	-0.21	-0.07	13.75	12.50	6.75	7.75	3.75	2.50	0.75	0.50	2.25	1.00	1.00	1.00	0.75	2.00	0.50	0.00	-0.255371	0.045410	0.939453	-2.590000	2.380000	-0.420000	650.00	-0.22	-0.03
0.04	7.50	8.00	3.25	6.00	1.50	2.00	0.25	0.25	1.00	1.00	1.25	0.50	0.50	0.25	0.25	0.75	-0.280762	0.036621	0.943848	-2.240000	3.570000	1.050000	387.00	-0.23	-0.06	13.50	11.50	6.50	7.50	3.50	2.25	0.50	0.25	2.25	1.00	1.00	1.00	0.75	2.25	0.75	0.00	-0.252441	0.051758	0.940430	-2.800000	2.310000	-0.420000	622.00	-0.22	-0.03
0.05	7.75	8.25	3.50	6.00	1.50	2.00	0.25	0.25	0.75	1.00	1.25	0.50	0.25	0.75	0.25	0.75	-0.283203	0.041504	0.931641	-2.450000	3.710000	0.980000	394.00	-0.23	-0.06	13.50	12.00	6.50	7.75	3.50	2.25	0.75	0.25	2.25	1.00	1.00	1.00	0.25	2.25	1.00	0.00	-0.255371	0.047852	0.941895	-2.800000	2.030000	-0.350000	632.00	-0.22	-0.02
0.06	8.25	8.50	3.50	6.00	1.50	2.25	0.25	0.50	1.00	1.00	1.00	0.75	0.50	0.75	0.25	0.75	-0.281738	0.043457	0.937988	-2.310000	3.570000	1.050000	416.00	-0.23	-0.06	13.00	11.75	6.50	7.50	3.50	2.25	0.75	0.25	2.25	1.00	1.00	1.00	0.75	2.00	0.75	0.00	-0.255859	0.050781	0.943359	-2.800000	1.820000	-0.280000	621.00	-0.22	-0.03
0.07	8.75	8.75	3.50	6.75	1.50	2.50	0.25	0.75	0.75	0.75	1.25	1.00	0.75	0.50	0.25	0.50	-0.277344	0.040527	0.929688	-2.240000	3.850000	0.980000	438.00	-0.23	-0.08	12.00	12.00	6.25	7.50	3.25	2.25	0.75	0.25	2.25	1.00	1.00	0.75	0.75	2.00	0.75	0.00	-0.262207	0.041016	0.940430	-2.940000	1.960000	-0.420000	603.00	-0.22	-0.03
0.08	8.50	9.00	3.50	7.00	1.50	2.75	0.25	0.50	1.00	1.00	1.25	1.00	1.25	1.00	0.50	0.75	-0.280762	0.046875	0.938965	-2.310000	4.270000	0.980000	459.00	-0.21	-0.08	13.00	11.25	6.25	7.50	3.25	2.00	0.75	0.25	2.25	1.00	1.25	1.00	0.50	2.25	0.75	0.00	-0.259766	0.047852	0.945801	-2.730000	1.820000	-0.280000	609.00	-0.21	-0.02
0.09	9.00	8.75	3.50	7.25	1.50	3.25	0.25	0.50	0.75	1.00	1.50	1.00	1.25	1.00	0.25	0.50	-0.282715	0.041992	0.928711	-2.450000	4.760000	0.980000	466.00	-0.22	-0.08	12.75	11.00	6.25	7.25	3.25	2.00	0.75	0.25	2.25	1.00	0.75	1.00	0.75	2.00	0.75	0.00	-0.262207	0.041992	0.945312	-2.660000	1.750000	-0.210000	595.00	-0.22	-0.02
0.10	9.00	9.25	4.00	7.50	1.50	3.00	0.25	0.50	1.25	1.00	1.75	1.50	0.50	1.00	0.25	0.75	-0.282715	0.040039	0.944336	-2.240000	4.760000	1.050000	488.00	-0.21	-0.07	12.50	11.00	6.25	7.25	3.25	2.00	0.50	0.25	2.25	1.00	0.75	0.75	0.75	2.00	0.75	0.00	-0.253418	0.042480	0.944336	-2.590000	1.680000	-0.140000	586.00	-0.22	-0.02
0.11	9.00	9.25	3.75	7.25	1.75	3.25	0.25	0.75	1.00	1.25	1.25	1.00	1.50	0.50	0.25	0.75	-0.290039	0.041992	0.941406	-1.750000	4.900000	1.400000	484.00	-0.22	-0.08	12.25	10.75	6.25	7.00	3.00	2.00	0.75	0.25	2.25	0.75	1.25	1.25	0.75	2.00	0.50	0.00	-0.257324	0.047852	0.941895	-2.590000	1.680000	-0.140000	584.00	-0.21	-0.03
0.12	9.25	9.50	4.00	7.50	1.75	3.50	0.25	1.00	1.25	1.25	1.50	1.25	2.00	0.75	0.25	0.75	-0.286621	0.046387	0.935059	-1.680000	4.970000	1.610000	519.00	-0.20	-0.09	11.75	10.50	6.25	7.00	3.25	2.00	0.50	0.25	2.25	1.00	0.75	1.00	0.50	2.00	0.50	0.00	-0.262695	0.052734	0.944336	-2.660000	1.540000	-0.140000	567.00	-0.22	-0.02
0.13	9.00	9.50	3.75	7.50	1.75	3.50	0.25	0.75	1.00	1.25	1.50	1.25	0.75	1.00	0.00	0.75	-0.278809	0.046387	0.936035	-1.680000	4.970000	1.610000	493.00	-0.22	-0.08	12.00	10.25	6.00	7.25	3.00	1.75	0.50	0.25	2.25	1.00	1.00	0.75	1.00	1.75	1.00	0.00	-0.260742	0.044922	0.942383	-2.660000	1.610000	-0.210000	569.00	-0.21	-0.03
0.14	9.25	9.75	3.75	7.75	1.75	3.50	0.25	0.75	1.25	1.00	1.50	1.25	1.75	1.00	0.25	0.75	-0.283203	0.050781	0.943848	-2.030000	4.760000	1.540000	515.00	-0.21	-0.09	11.50	10.00	6.25	7.00	3.00	1.75	0.50	0.25	2.25	1.00	1.00	1.25	0.50	2.25	0.75	0.00	-0.257324	0.048340	0.946289	-2.660000	1.540000	-0.210000	564.00	-0.21	-0.02
0.15	9.25	10.00	4.00	8.00	1.75	4.00	0.25	1.00	1.00	1.25	1.75	1.50	1.75	0.75	0.00	0.50	-0.286621	0.042969	0.939941	-2.520000	4.550000	1.400000	532.00	-0.21	-0.09	11.00	9.75	6.00	7.00	3.00	2.00	0.50	0.25	2.25	1.00	0.75	1.00	0.75	2.25	0.75	0.00	-0.257812	0.051270	0.939453	-2.940000	1.540000	-0.280000	552.00	-0.21	-0.03
0.16	6.50	7.75	1.50	6.00	0.75	1.25	0.00	0.00	0.00	0.25	0.50	0.25	0.00	0.00	0.00	0.00	-0.285156	0.044434	0.945801	-2.870000	4.410000	1.260000	277.00	-0.32	-0.09	10.50	9.75	6.00	6.75	3.00	1.75	0.50	0.00	2.25	1.00	1.00	1.00	0.75	2.00	0.75	0.00	-0.257812	0.047852	0.942383	-3.080000	1.470000	-0.210000	537.00	-0.21	-0.02
0.17	6.75	7.75	1.00	6.25	0.75	1.00	0.00	0.00	0.00	0.00	0.50	0.25	0.00	0.00	0.00	0.00	-0.283203	0.042969	0.935059	-2.940000	4.270000	1.260000	271.00	-0.33	-0.09	11.25	9.75	6.00	6.75	3.00	1.75	0.50	0.25	2.25	1.00	1.25	1.25	0.75	2.50	0.75	0.00	-0.258301	0.049316	0.947754	-3.150000	1.610000	-0.350000	560.00	-0.20	-0.02
0.18	6.50	7.75	1.25	6.25	0.75	1.00	0.00	0.00	0.00	0.00	0.75	0.25	0.00	0.00	0.00	0.00	-0.282715	0.040527	0.935059	-3.150000	4.410000	1.120000	274.00	-0.32	-0.09	10.75	9.50	6.00	6.75	3.00	1.75	0.50	0.00	2.25	1.00	1.00	1.00	0.75	2.25	0.75	0.00	-0.255859	0.046387	0.947754	-3.150000	1.470000	-0.350000	540.00	-0.20	-0.02
0.19	6.50	8.00	1.25	6.25	0.75	2.00	0.00	0.00	0.00	0.50	0.75	0.25	0.00	0.00	0.00	0.00	-0.279297	0.041504	0.933594	-2.940000	4.060000	1.260000	294.00	-0.30	-0.10	10.75	9.50	5.75	6.75	2.75	1.75	0.75	0.25	2.25	1.25	1.00	1.00	1.00	2.25	1.00	0.00	-0.258301	0.044922	0.947266	-2.870000	1.610000	-0.280000	550.00	-0.19	-0.02
0.20	8.50	9.50	3.75	8.00	2.00	4.25	0.25	1.00	1.00	1.50	1.75	1.50	2.00	0.75	0.50	0.75	-0.277832	0.044434	0.935547	-3.080000	3.920000	1.260000	534.00	-0.19	-0.10	10.25	9.25	6.00	6.50	3.00	1.75	0.50	0.25	2.50	1.00	1.00	1.00	0.75	2.50	1.00	0.00	-0.253418	0.045898	0.945312	-2.660000	1.540000	-0.210000	541.00	-0.19	-0.02
0.21	9.50	10.50	4.00	8.25	1.75	5.00	0.25	1.00	1.00	1.50	1.75	1.50	2.00	1.00	0.50	0.75	-0.283203	0.046875	0.937500	-3.430000	3.990000	1.050000	569.00	-0.20	-0.10	10.25	9.00	5.75	6.50	2.75	1.75	0.50	0.25	2.50	1.00	1.00	1.00	0.75	2.00	0.75	0.00	-0.260254	0.051270	0.937500	-2.660000	1.680000	-0.210000	525.00	-0.20	-0.02
0.22	9.75	10.50	4.00	8.50	2.00	4.75	0.25	1.00	1.00	1.25	2.00	2.00	2.25	0.50	0.25	0.75	-0.283691	0.035645	0.938965	-3.710000	4.130000	0.980000	576.00	-0.20	-0.10	10.00	8.75	5.75	6.25	2.75	1.75	0.50	0.00	2.50	0.75	1.00	1.00	0.50	2.25	0.75	0.00	-0.258789	0.046875	0.948730	-2.800000	1.680000	-0.210000	510.00	-0.20	-0.02
0.23	9.50	10.50	4.25	8.50	2.00	4.50	0.50	1.25	1.00	1.25	2.00	1.75	2.75	0.75	0.25	0.75	-0.282227	0.042969	0.935059	-3.850000	4.200000	0.910000	585.00	-0.20	-0.10	9.75	8.75	5.50	6.50	3.00	1.50	0.50	0.25	2.50	1.00	1.00	1.00	0.75	2.25	0.75	0.00	-0.264160	0.048828	0.944824	-2.870000	1.610000	-0.280000	516.00	-0.19	-0.02
0.24	9.50	10.25	4.50	8.50	2.00	5.00	0.50	1.00	1.25	1.25	2.00	1.75	2.25	1.00	0.50	0.50	-0.282227	0.047852	0.935547	-3.850000	4.270000	0.980000	590.00	-0.19	-0.09	9.75	8.50	5.75	6.25	2.75	1.50	0.50	0.25	2.25	1.00	1.00	1.00	0.50	2.50	1.00	0.00	-0.259766	0.048828	0.944824	-2.940000	1.540000	-0.210000	510.00	-0.19	-0.02
0.25	9.75	10.50	4.25	8.50	2.00	4.75	0.25	1.25	1.25	1.50	1.75	2.00	1.50	0.75	0.50	0.75	-0.279297	0.039551	0.936523	-3.780000	4.200000	0.910000	585.00	-0.20	-0.09	9.75	8.25	5.75	6.50	3.00	1.50	0.50	0.00	2.50	1.25	1.00	1.00	0.75	2.00	1.00	0.00	-0.260254	0.048828	0.941895	-3.010000	1.400000	-0.210000	514.00	-0.19	-0.02
0.26	9.50	10.25	4.00	8.25	1.75	4.75	0.25	1.25	1.25	1.50	1.75	1.50	2.50	1.00	0.25	0.75	-0.278320	0.040527	0.936523	-3.780000	4.060000	0.770000	573.00	-0.19	-0.10	9.25	8.50	5.50	6.50	2.75	1.50	0.50	0.25	2.25	1.00	1.00	1.00	0.25	2.00	0.75	0.00	-0.263672	0.046875	0.941406	-3.150000	1.540000	-0.140000	495.00	-0.20	-0.02
0.27	10.25	10.50	4.50	8.50	2.00	5.00	0.50	1.50	1.00	1.50	2.00	2.00	2.50	0.50	0.50	0.75	-0.281250	0.043457	0.932617	-3.640000	4.270000	0.910000	611.00	-0.19	-0.10	9.50	8.25	5.50	6.25	2.75	1.25	0.50	0.00	2.25	1.00	0.75	1.00	0.75	2.25	1.00	0.00	-0.259766	0.049805	0.948242	-3.150000	1.260000	-0.140000	492.00	-0.19	-0.02
0.28	9.75	10.50	4.25	8.50	2.00	5.00	0.25	1.50	1.00	1.50	2.00	1.75	2.75	1.00	0.25	0.25	-0.280273	0.041016	0.936035	-3.640000	4.340000	0.980000	596.00	-0.20	-0.10	9.50	8.25	5.50	6.50	2.75	1.25	0.50	0.25	2.25	0.75	1.00	0.75	1.00	2.00	1.00	0.00	-0.257324	0.049316	0.937988	-3.290000	1.260000	-0.140000	496.00	-0.19	-0.02
0.29	8.00	9.50	3.00	7.75	1.75	4.00	0.25	0.75	0.50	1.25	2.00	1.75	2.25	0.75	0.25	1.00	-0.281250	0.037598	0.933594	-3.780000	4.480000	1.050000	502.00	-0.20	-0.11	9.50	8.25	5.50	6.25	2.75	1.50	0.75	0.00	2.00	1.00	1.00	0.75	0.25	2.00	0.75	0.00	-0.261719	0.042480	0.944824	-3.430000	1.260000	-0.350000	485.00	-0.20	-0.01
0.30	9.75	10.75	4.50	8.50	2.00	5.00	0.25	1.25	1.00	1.50	2.00	1.75	2.75	0.50	0.25	1.00	-0.282227	0.038574	0.939453	-3.710000	4.480000	1.050000	598.00	-0.20	-0.11	9.25	8.00	5.50	6.25	2.75	1.50	0.50	0.25	2.25	1.00	1.00	1.00	0.50	2.25	1.00	0.00	-0.262695	0.047363	0.946289	-3.500000	1.330000	-0.210000	494.00	-0.18	-0.02
0.31	10.00	10.50	4.75	8.75	2.00	5.25	0.50	1.50	1.00	1.50	2.00	2.25	2.75	0.75	0.50	1.00	-0.282227	0.036133	0.935059	-3.640000	4.550000	0.910000	626.00	-0.19	-0.10	8.75	8.00	5.50	6.25	2.75	1.50	0.50	0.25	2.25	1.00	1.00	1.00	0.75	2.00	0.75	0.00	-0.260742	0.045898	0.940918	-3.430000	1.540000	-0.210000	486.00	-0.19	-0.02
0.32	9.75	10.50	4.75	8.50	2.00	5.25	0.50	1.50	0.75	1.50	2.00	2.00	3.00	1.00	0.50	1.00	-0.275391	0.039551	0.940430	-3.500000	4.480000	0.910000	619.00	-0.19	-0.11	9.50	8.00	5.50	6.00	2.50	1.25	0.50	0.25	2.50	1.00	1.00	1.00	0.00	2.50	0.50	0.00	-0.262695	0.049316	0.946289	-3.640000	1.330000	-0.210000	483.00	-0.19	-0.01
0.33	10.00	10.50	4.25	8.50	2.00	5.00	0.50	1.25	1.25	1.50	2.00	2.00	2.50	0.75	0.50	0.75	-0.287109	0.037109	0.934082	-3.430000	4.340000	0.980000	607.00	-0.19	-0.10	9.50	8.00	5.50	6.00	2.50	1.00	0.50	0.25	2.50	1.00	1.00	1.00	0.75	2.00	0.75	0.00	-0.265625	0.047363	0.942383	-3.500000	1.470000	-0.350000	486.00	-0.19	-0.02
0.34	9.75	10.50	4.75	8.50	2.25	5.50	0.50	1.25	1.25	1.25	2.00	1.75	3.00	0.75	0.00	1.00	-0.280762	0.040527	0.939453	-3.430000	4.270000	0.910000	614.00	-0.19	-0.10	9.25	7.75	5.25	6.00	2.75	1.25	0.50	0.25	2.25	1.00	1.00	1.00	0.25	2.25	0.75	0.00	-0.264160	0.049316	0.942871	-3.500000	1.540000	-0.350000	477.00	-0.19	-0.01
0.35	9.50	10.75	4.50	8.50	2.00	5.25	0.50	1.50	1.25	1.50	2.00	2.00	3.25	0.75	0.50	1.00	-0.284668	0.041016	0.938965	-3.430000	4.340000	0.980000	622.00	-0.18	-0.11	9.00	7.75	5.25	6.00	2.75	1.50	0.50	0.25	2.50	1.25	0.75	1.00	0.50	2.25	0.75	0.00	-0.263184	0.047852	0.937012	-3.500000	1.470000	-0.280000	483.00	-0.18	-0.02
0.36	9.75	10.25	4.50	8.50	2.25	5.00	0.25	1.25	1.25	1.75	2.00	2.00	2.75	1.00	0.25	0.75	-0.282715	0.041504	0.941406	-3.290000	4.410000	0.980000	608.00	-0.19	-0.10	8.75	7.50	5.25	6.00	2.75	1.25	0.75	0.25	2.25	1.00	1.00	1.00	0.75	2.50	0.75	0.00	-0.261230	0.047852	0.945801	-3.500000	1.540000	-0.280000	480.00	-0.18	-0.02
0.37	8.75	9.75	3.75	8.00	1.75	4.75	0.25	0.75	0.50	1.50	2.25	1.75	1.50	0.25	0.25	0.25	-0.282227	0.038086	0.934082	-3.430000	4.410000	0.840000	524.00	-0.21	-0.10	8.75	7.50	5.25	5.75	2.75	1.25	0.75	0.00	2.50	1.00	0.75	1.00	0.50	2.25	0.75	0.00	-0.265625	0.047852	0.942383	-3.430000	1.540000	-0.210000	469.00	-0.18	-0.01
0.38	9.25	10.25	4.25	8.50	2.25	5.00	0.50	1.50	1.00	1.50	2.25	2.25	2.75	0.50	0.25	1.00	-0.279297	0.036621	0.937500	-3.360000	4.340000	0.770000	604.00	-0.19	-0.11	8.50	7.25	5.25	5.75	2.75	1.25	0.75	0.25	2.25	1.25	1.25	1.00	1.00	2.25	1.00	0.00	-0.255859	0.049805	0.945801	-3.290000	1.400000	-0.140000	481.00	-0.17	-0.02
0.39	9.75	10.50	4.75	8.75	2.25	5.25	0.50	1.50	1.00	1.50	2.25	2.25	3.25	0.75	0.50	1.25	-0.281738	0.037598	0.940918	-3.360000	4.410000	0.910000	635.00	-0.18	-0.11	8.75	7.25	5.25	6.00	2.75	1.25	0.75	0.25	2.25	1.00	1.00	1.00	0.75	2.25	1.00	0.00	-0.262695	0.044922	0.946777	-3.570000	1.330000	-0.210000	478.00	-0.17	-0.02
0.40	9.75	10.50	4.75	8.75	2.25	5.50	0.50	1.25	1.00	1.75	2.00	2.00	3.00	1.00	0.50	1.00	-0.279785	0.041016	0.933594	-3.360000	4.410000	0.910000	630.00	-0.18	-0.10	8.50	7.25	5.25	5.75	2.50	1.25	0.75	0.25	2.25	1.25	1.00	0.75	0.75	2.25	1.00	0.00	-0.259766	0.050781	0.942871	-3.640000	1.260000	-0.280000	469.00	-0.17	-0.01
0.41	10.00	10.50	4.75	8.50	2.25	5.25	0.50	1.50	1.00	1.25	2.25	2.25	3.00	0.75	0.50	0.75	-0.276855	0.039062	0.927246	-3.290000	4.410000	0.910000	627.00	-0.19	-0.10	8.50	7.25	5.25	5.75	2.75	1.25	0.50	0.00	2.25	1.00	1.00	1.00	0.50	2.25	0.75	0.00	-0.257812	0.047852	0.941895	-3.570000	1.400000	-0.280000	459.00	-0.18	-0.01
0.42	10.25	10.50	4.50	8.50	2.25	5.25	0.50	1.50	1.50	1.50	2.25	2.25	3.00	0.75	0.50	0.75	-0.283691	0.043945	0.932617	-3.710000	4.130000	0.910000	637.00	-0.18	-0.10	8.50	7.00	5.25	5.75	2.75	1.25	0.75	0.25	2.25	0.75	1.25	1.00	0.25	2.50	0.75	0.00	-0.258789	0.049316	0.940430	-3.570000	1.400000	-0.210000	465.00	-0.17	-0.01
0.43	10.00	10.50	5.00	8.75	2.25	5.50	0.50	1.50	1.25	1.50	2.75	2.25	3.00	1.00	0.50	1.00	-0.277832	0.035645	0.931641	-3.990000	4.130000	0.770000	652.00	-0.18	-0.10	8.25	7.00	5.00	5.50	2.75	1.25	0.75	0.25	2.50	1.00	1.00	1.00	0.50	2.50	1.00	0.00	-0.261230	0.045410	0.937012	-3.710000	1.610000	-0.280000	465.00	-0.16	-0.01
0.44	9.75	10.50	5.00	8.75	2.25	5.25	0.50	1.75	1.50	1.50	2.25	2.25	3.25	0.75	0.50	0.75	-0.278809	0.035645	0.934082	-4.200000	3.920000	0.700000	647.00	-0.18	-0.10	8.25	7.00	5.25	5.75	2.75	1.00	0.75	0.25	2.50	1.00	1.00	1.00	0.00	2.75	1.00	0.00	-0.259277	0.047852	0.942383	-3.500000	1.610000	-0.280000	465.00	-0.16	-0.00
0.45	9.75	10.25	5.00	8.75	2.25	5.50	0.50	1.75	1.25	1.75	2.50	2.50	3.25	1.00	0.75	1.00	-0.278809	0.038086	0.941406	-4.410000	3.780000	0.630000	659.00	-0.17	-0.11	8.50	6.75	5.00	5.50	2.50	1.25	0.75	0.00	2.50	1.00	1.00	1.00	0.75	2.50	1.00	0.00	-0.260254	0.044922	0.944336	-3.640000	1.540000	-0.280000	460.00	-0.16	-0.01
0.46	9.75	10.25	4.75	8.75	2.25	5.50	0.50	1.50	1.25	1.75	2.25	2.00	3.25	1.00	0.50	1.00	-0.283203	0.034180	0.940918	-4.550000	3.850000	0.560000	640.00	-0.18	-0.10	8.25	6.75	5.25	5.50	2.75	1.00	0.75	0.25	2.50	1.00	1.25	1.00	0.50	2.25	1.00	0.00	-0.260742	0.051270	0.942383	-3.640000	1.540000	-0.350000	463.00	-0.16	-0.01
0.47	9.50	10.25	5.00	8.50	2.50	5.25	0.50	1.75	1.50	1.50	2.50	2.25	3.25	0.75	0.75	1.00	-0.277832	0.038574	0.930664	-4.620000	3.850000	0.560000	649.00	-0.17	-0.10	8.00	6.75	5.00	5.50	2.75	1.00	0.75	0.00	2.50	1.50	1.00	1.00	0.75	2.50	1.00	0.25	-0.261230	0.045410	0.937012	-3.640000	1.540000	-0.420000	462.00	-0.15	-0.01
0.48	9.75	10.00	4.75	8.50	2.50	5.50	0.50	1.50	1.25	1.75	2.25	2.50	3.50	1.00	0.50	1.00	-0.286133	0.039551	0.944824	-4.340000	4.060000	0.700000	646.00	-0.17	-0.10	7.75	6.50	5.00	5.50	3.00	1.25	0.75	0.00	2.50	1.00	1.25	1.25	1.00	2.50	1.00	0.00	-0.261719	0.047852	0.939453	-3.640000	1.820000	-0.490000	463.00	-0.15	-0.01
0.49	9.50	10.00	4.75	8.50	2.50	5.25	0.50	1.75	1.25	1.50	2.50	2.25	3.75	0.75	0.75	1.00	-0.280762	0.038574	0.934570	-4.340000	4.200000	0.630000	644.00	-0.17	-0.11	7.75	6.50	5.00	5.25	2.75	1.00	0.75	0.25	2.75	1.25	1.00	1.00	1.00	2.50	1.00	0.00	-0.262695	0.045898	0.943848	-3.780000	1.820000	-0.490000	459.00	-0.15	-0.01
0.50	9.50	9.75	4.75	8.50	2.50	5.50	0.50	1.75	1.25	1.50	2.50	2.50	3.50	1.00	0.50	1.00	-0.280762	0.036621	0.938965	-4.270000	4.200000	0.770000	645.00	-0.17	-0.11	7.50	6.50	5.00	5.25	2.75	1.25	0.75	0.00	2.75	1.50	1.50	1.25	0.50	2.50	1.25	0.00	-0.260742	0.046875	0.936035	-3.850000	1.750000	-0.490000	465.00	-0.14	-0.01
0.51	9.50	10.00	5.00	8.50	2.50	5.25	0.50	1.50	1.75	2.00	2.50	2.25	3.75	1.25	0.50	1.25	-0.279297	0.035645	0.934570	-4.410000	4.200000	0.630000	659.00	-0.16	-0.10	7.50	6.25	5.00	5.25	2.75	1.25	0.75	0.25	2.75	1.25	1.25	1.25	1.00	2.75	1.50	0.00	-0.259277	0.046875	0.941895	-3.780000	1.540000	-0.350000	471.00	-0.13	-0.01
0.52	9.00	9.75	5.00	8.50	2.50	5.50	0.50	1.75	1.00	1.75	2.75	2.25	3.75	0.75	1.00	1.00	-0.280273	0.034668	0.939941	-4.410000	4.340000	0.630000	647.00	-0.16	-0.11	7.25	6.25	5.00	5.25	2.75	1.25	0.75	0.25	2.75	1.25	1.25	1.25	0.75	2.50	1.25	0.00	-0.260742	0.042969	0.944336	-3.570000	1.610000	-0.280000	460.00	-0.14	-0.01
0.53	9.25	9.50	5.00	8.50	2.50	5.50	0.50	1.75	1.25	1.75	2.50	2.25	3.25	1.00	0.50	1.00	-0.283691	0.032715	0.944336	-4.410000	4.270000	0.700000	640.00	-0.17	-0.10	7.50	6.25	5.00	5.25	3.00	1.00	0.75	0.25	2.75	1.25	1.25	1.25	0.75	2.75	1.25	0.00	-0.262207	0.045898	0.942383	-3.570000	1.680000	-0.350000	465.00	-0.14	-0.01
0.54	9.50	9.75	5.00	8.50	2.50	5.25	0.50	1.75	1.50	1.75	2.75	2.50	3.50	1.00	0.75	1.00	-0.282227	0.033203	0.932617	-4.270000	4.410000	0.700000	657.00	-0.16	-0.10	7.25	6.25	5.00	5.25	2.75	1.25	1.00	0.25	2.75	1.25	1.00	1.25	1.00	2.75	1.25	0.00	-0.261230	0.042969	0.944336	-3.430000	1.400000	-0.280000	466.00	-0.13	-0.01
0.55	9.25	9.50	5.00	8.25	2.50	5.25	0.50	1.50	1.75	2.00	2.50	2.50	3.75	1.25	0.75	1.25	-0.285156	0.035156	0.937988	-4.270000	4.410000	0.700000	654.00	-0.15	-0.10	7.25	6.25	5.00	5.00	2.75	1.00	1.00	0.25	3.00	1.25	1.50	1.25	1.00	2.75	1.25	0.00	-0.258789	0.039551	0.939453	-3.430000	1.190000	-0.070000	469.00	-0.12	-0.01
0.56	9.00	9.50	5.00	8.25	2.75	5.25	0.50	1.50	1.50	2.00	2.50	2.25	3.50	1.25	0.50	1.00	-0.284180	0.032715	0.939941	-4.270000	4.620000	0.560000	641.00	-0.16	-0.10	7.00	6.25	5.00	5.00	3.00	1.25	1.00	0.25	3.00	1.00	1.00	1.25	0.75	2.75	1.25	0.00	-0.257812	0.044922	0.937500	-3.500000	1.260000	-0.280000	462.00	-0.13	-0.01
0.57	9.75	9.50	4.25	8.25	2.50	5.25	0.50	1.50	1.75	1.75	2.75	2.50	4.00	1.25	0.50	1.25	-0.278320	0.030273	0.933105	-4.480000	4.620000	0.560000	650.00	-0.15	-0.10	7.00	6.00	5.00	5.00	3.00	1.25	1.00	0.25	3.00	1.50	1.25	1.25	0.50	2.75	1.25	0.00	-0.262207	0.050293	0.939453	-3.360000	1.120000	-0.140000	465.00	-0.12	-0.00
0.58	9.00	9.50	5.00	8.25	2.75	5.50	0.50	1.50	2.00	1.75	2.50	2.00	3.75	1.25	0.75	1.00	-0.282227	0.030273	0.941406	-4.550000	4.690000	0.560000	651.00	-0.15	-0.10	7.25	6.25	5.00	5.25	3.00	1.00	0.75	0.25	3.00	1.50	1.25	1.25	1.25	2.75	1.25	0.00	-0.264648	0.044922	0.941895	-3.430000	0.980000	-0.210000	474.00	-0.13	-0.01
0.59	9.00	9.50	5.00	8.25	2.50	5.25	0.50	1.50	1.50	1.75	2.75	2.25	3.50	1.00	0.75	1.00	-0.282227	0.030762	0.938477	-4.690000	4.830000	0.490000	639.00	-0.16	-0.10	7.25	6.00	5.00	5.25	3.00	1.25	1.00	0.25	3.25	1.50	1.25	1.25	0.75	3.00	1.25	0.00	-0.268066	0.043457	0.945801	-3.500000	0.910000	-0.210000	479.00	-0.12	-0.00
0.60	8.75	9.50	5.00	8.25	2.75	5.25	0.50	1.50	1.75	2.00	2.50	2.50	3.25	1.25	0.50	1.00	-0.282715	0.032227	0.937988	-4.410000	4.620000	0.490000	642.00	-0.15	-0.10	7.00	6.25	5.00	5.00	3.00	1.00	0.75	0.25	3.00	1.50	1.25	1.25	1.00	2.75	1.25	0.00	-0.265137	0.046387	0.943359	-3.500000	0.840000	-0.210000	466.00	-0.12	-0.01
0.61	9.00	9.25	5.00	8.00	2.75	5.25	0.75	1.50	2.00	2.25	2.50	2.25	3.25	1.25	0.75	0.75	-0.279297	0.035645	0.934570	-4.060000	4.200000	0.560000	649.00	-0.15	-0.09	7.00	6.25	5.00	5.25	3.00	1.25	0.75	0.00	2.50	1.25	1.25	1.25	0.75	2.75	1.25	0.00	-0.259766	0.047852	0.940918	-3.360000	0.910000	-0.350000	455.00	-0.14	-0.01
0.62	8.75	9.25	5.00	8.25	2.75	5.25	0.75	1.50	1.75	1.75	2.50	2.50	3.25	1.25	0.75	1.00	-0.283203	0.028809	0.941406	-3.920000	4.270000	0.770000	644.00	-0.15	-0.10	7.25	6.25	5.00	5.25	3.00	1.00	1.00	0.25	3.25	1.25	1.25	1.00	1.00	2.75	1.00	0.00	-0.258789	0.043945	0.938965	-3.360000	0.770000	-0.280000	470.00	-0.13	-0.00
0.63	8.50	9.00	4.75	8.00	2.50	4.75	0.50	0.50	1.25	1.50	2.00	2.00	2.00	0.25	0.00	0.50	-0.282227	0.036133	0.934570	-3.990000	4.270000	0.770000	549.00	-0.20	-0.09	7.25	6.25	5.00	5.25	3.00	1.25	0.75	0.25	3.00	1.25	1.50	1.25	1.00	2.75	1.25	0.00	-0.259766	0.039551	0.943848	-3.290000	0.700000	-0.210000	474.00	-0.13	-0.01
0.64	6.25	7.50	2.75	6.50	1.50	2.00	0.25	0.00	0.00	1.25	1.25	1.00	0.50	0.00	0.00	0.25	-0.279297	0.036621	0.937012	-3.850000	4.130000	0.700000	350.00	-0.25	-0.09	7.25	6.25	5.00	5.25	3.00	1.50	1.00	0.25	3.00	1.25	1.25	1.25	1.00	2.75	1.25	0.25	-0.263184	0.041016	0.933105	-3.220000	0.700000	-0.140000	480.00	-0.13	-0.01
0.65	6.25	7.50	2.50	6.25	1.75	2.25	0.25	0.00	0.00	0.75	1.25	1.00	0.75	0.00	0.00	0.25	-0.283691	0.029785	0.937012	-3.780000	4.130000	0.700000	347.00	-0.25	-0.09	7.50	6.25	5.00	5.25	3.00	0.75	1.00	0.25	3.00	1.50	1.25	1.00	0.50	2.50	1.25	0.00	-0.264160	0.044922	0.942871	-3.150000	0.700000	-0.070000	465.00	-0.13	0.00
0.66	6.25	7.50	2.50	6.25	1.50	2.00	0.50	0.00	0.00	0.50	1.50	1.00	0.50	0.00	0.00	0.25	-0.281250	0.037598	0.934570	-3.990000	4.270000	0.700000	342.00	-0.25	-0.09	7.50	6.50	5.00	5.25	2.75	1.25	0.75	0.25	2.75	1.50	1.25	1.25	1.00	2.75	1.50	0.00	-0.261230	0.042480	0.939453	-3.080000	0.840000	-0.140000	476.00	-0.13	-0.01
0.67	6.25	7.50	2.50	6.25	1.50	2.00	0.25	0.00	0.00	1.00	1.50	1.50	0.25	0.00	0.00	0.00	-0.283691	0.029297	0.939453	-4.060000	4.270000	0.630000	346.00	-0.24	-0.09	7.25	6.25	5.00	5.25	3.00	1.50	1.00	0.25	3.00	1.25	1.25	1.50	0.75	2.50	1.25	0.00	-0.257812	0.045410	0.941895	-3.010000	0.700000	-0.140000	477.00	-0.13	-0.01
0.68	6.00	7.50	2.75	6.25	1.75	2.00	0.50	0.00	0.00	1.00	1.50	1.00	0.75	0.00	0.00	0.25	-0.280762	0.030762	0.934082	-4.060000	4.200000	0.560000	354.00	-0.24	-0.09	7.75	6.50	5.00	5.25	3.00	1.25	0.75	0.25	3.00	1.50	1.25	1.25	0.00	3.00	1.25	0.00	-0.264160	0.041016	0.945801	-3.010000	0.630000	-0.000000	475.00	-0.13	0.00
0.69	6.00	7.75	2.75	6.00	1.50	2.00	0.50	0.00	0.25	1.00	1.50	1.25	0.50	0.25	0.00	0.00	-0.283691	0.027832	0.937988	-4.060000	4.410000	0.490000	355.00	-0.23	-0.08	7.50	6.50	5.25	5.25	3.00	1.25	1.00	0.25	3.00	1.50	1.25	1.25	1.00	2.50	1.25	0.00	-0.262207	0.047363	0.947754	-3.080000	0.630000	-0.070000	484.00	-0.13	-0.01
0.70	6.00	7.50	2.75	6.00	2.00	1.75	0.50	0.00	0.25	0.50	1.25	1.00	0.50	0.25	0.00	0.25	-0.285156	0.030762	0.941895	-4.130000	4.480000	0.560000	346.00	-0.24	-0.08	7.50	6.75	5.25	5.25	2.75	1.00	1.00	0.25	2.75	1.25	1.25	1.25	0.75	2.50	1.00	0.00	-0.259766	0.047852	0.941406	-3.010000	0.490000	0.070000	469.00	-0.14	-0.01
0.71	6.00	7.25	2.75	6.00	1.75	1.75	0.50	0.00	0.25	1.00	1.50	1.25	0.50	0.00	0.00	0.25	-0.285156	0.030273	0.936523	-4.130000	4.620000	0.630000	349.00	-0.23	-0.08	8.00	6.75	5.00	5.25	3.00	1.25	0.75	0.25	2.75	1.25	1.25	1.00	1.25	3.00	1.00	0.25	-0.265137	0.045410	0.940918	-2.520000	0.350000	-0.000000	482.00	-0.14	-0.01
0.72	5.75	7.25	2.50	5.75	1.75	2.00	0.50	0.00	0.25	0.75	1.50	1.25	0.50	0.00	0.00	0.25	-0.281250	0.029785	0.938965	-4.060000	4.900000	0.560000	340.00	-0.23	-0.08	8.25	6.75	5.25	5.50	3.00	1.25	0.75	0.25	2.75	1.00	1.25	1.00	0.75	2.75	1.25	0.00	-0.265625	0.046387	0.943359	-1.820000	0.210000	0.210000	482.00	-0.15	-0.01
0.73	6.25	7.25	2.50	6.00	1.75	1.50	0.50	0.00	0.50	0.75	1.50	1.25	0.00	0.25	0.00	0.25	-0.279785	0.033691	0.941406	-4.200000	4.970000	0.630000	344.00	-0.23	-0.07	8.75	7.00	5.00	5.50	3.00	1.50	0.75	0.00	2.75	1.25	1.25	1.25	0.50	2.50	1.00	0.00	-0.259766	0.044922	0.942383	-1.470000	0.000000	0.420000	484.00	-0.16	-0.01
0.74	6.00	7.25	2.75	5.75	1.75	1.75	0.50	0.00	0.25	0.75	1.25	1.00	0.25	0.00	0.00	0.00	-0.279297	0.029297	0.937012	-4.340000	5.320000	0.560000	334.00	-0.25	-0.07	8.50	7.25	5.25	5.50	3.25	1.50	0.75	0.25	3.00	1.25	1.50	1.25	0.75	2.50	1.00	0.00	-0.260742	0.047363	0.937500	-1.470000	-0.070000	0.420000	503.00	-0.15	-0.01
0.75	6.00	7.00	2.50	5.75	1.75	1.50	0.50	0.00	0.25	0.75	1.25	1.00	0.00	0.00	0.00	0.00	-0.274902	0.024414	0.938965	-4.410000	5.530000	0.560000	323.00	-0.25	-0.07	9.25	8.00	5.25	5.50	3.00	1.50	0.75	0.25	2.75	1.25	1.00	1.25	1.00	2.50	1.00	0.00	-0.259277	0.045898	0.944336	-1.050000	-0.140000	0.350000	509.00	-0.16	-0.01
0.76	5.75	7.00	2.75	5.50	1.50	1.50	0.50	0.00	0.00	0.75	1.50	1.00	0.25	0.00	0.00	0.25	-0.285645	0.029785	0.937500	-4.340000	5.670000	0.560000	320.00	-0.25	-0.08	9.25	8.25	5.25	6.00	3.00	1.75	0.75	0.25	2.50	1.00	1.00	1.25	0.75	2.50	1.25	0.00	-0.269043	0.048828	0.952148	0.210000	-0.700000	0.560000	515.00	-0.17	-0.02
0.77	5.50	7.00	2.50	5.25	1.75	1.25	0.25	0.00	0.25	0.75	1.25	0.75	0.00	0.00	0.00	0.00	-0.282227	0.029297	0.938477	-4.200000	5.880000	0.630000	301.00	-0.26	-0.07	11.00	9.00	5.50	6.00	2.75	1.50	0.50	0.25	2.00	1.00	1.00	1.00	0.50	2.50	1.25	0.00	-0.265137	0.045898	0.956055	2.380000	-1.540000	0.980000	523.00	-0.19	-0.02
0.78	5.75	6.75	2.25	5.25	1.50	0.75	0.50	0.00	0.50	1.00	1.25	0.75	0.00	0.00	0.00	0.00	-0.280273	0.028809	0.941406	-4.200000	6.020000	0.700000	300.00	-0.24	-0.06	11.25	9.25	5.50	6.00	3.00	1.75	0.50	0.25	1.75	1.00	1.00	1.00	1.00	2.25	1.00	0.00	-0.261719	0.046875	0.949707	5.040000	-2.450000	1.190000	530.00	-0.20	-0.03
0.79	5.50	6.75	2.75	5.25	1.75	0.75	0.50	0.00	0.50	0.75	0.75	1.00	0.00	0.00	0.00	0.00	-0.281250	0.030273	0.937500	-4.130000	6.230000	0.770000	301.00	-0.25	-0.06	12.25	10.00	5.50	6.75	3.00	2.00	0.50	0.50	1.75	1.00	1.00	1.00	0.75	2.25	1.00	0.00	-0.270996	0.053223	0.943359	6.720000	-3.360000	1.330000	563.00	-0.21	-0.03
0.80	5.50	6.50	2.25	5.00	1.50	0.50	0.50	0.00	0.25	0.75	1.00	0.75	0.00	0.00	0.00	0.00	-0.286133	0.023926	0.938965	-4.060000	6.510000	0.630000	280.00	-0.26	-0.06	13.25	11.25	5.75	7.50	3.00	2.00	0.25	0.50	1.50	1.00	1.00	1.00	0.75	1.75	1.25	0.00	-0.264648	0.043945	0.939941	7.000000	-3.220000	1.260000	589.00	-0.23	-0.04
0.81	5.25	6.50	2.25	5.00	1.50	0.50	0.50	0.00	0.25	0.75	1.00	0.75	0.00	0.25	0.00	0.00	-0.287109	0.025391	0.935547	-3.920000	6.580000	0.630000	279.00	-0.25	-0.06	14.25	12.50	5.75	7.75	3.00	2.00	0.25	0.25	1.50	0.75	1.00	0.75	0.25	2.00	0.75	0.00	-0.242188	0.103516	0.993164	9.450000	-2.380000	0.070000	598.00	-0.25	-0.03
0.82	5.25	6.50	2.50	5.00	1.25	0.50	0.50	0.00	0.25	1.00	1.00	0.50	0.00	0.00	0.00	0.00	-0.280762	0.023438	0.937988	-3.780000	6.790000	0.770000	277.00	-0.26	-0.05	15.50	13.50	6.00	8.00	2.75	2.25	0.25	0.25	1.50	0.75	0.75	1.00	0.75	1.75	0.50	0.00	-0.257812	0.015137	0.949707	9.520000	-3.080000	1.400000	628.00	-0.26	-0.04
0.83	5.25	6.25	2.00	4.50	1.25	0.00	0.25	0.00	0.25	0.50	1.00	0.75	0.00	1.25	0.50	1.00	-0.282227	0.026855	0.938965	-3.640000	6.650000	0.770000	272.00	-0.21	-0.05	16.25	14.25	6.00	8.50	3.00	2.00	0.25	0.25	1.25	0.50	0.75	0.75	0.50	1.75	0.00	0.00	-0.219238	0.059570	0.897949	9.590000	-3.780000	1.540000	632.00	-0.27	-0.04
0.84	5.25	6.25	2.00	4.75	1.50	0.00	0.50	0.00	0.50	1.00	1.00	0.75	0.00	0.25	0.00	0.00	-0.286621	0.025879	0.938965	-3.220000	6.300000	0.910000	271.00	-0.24	-0.05	17.00	15.00	6.00	8.75	2.75	2.00	0.00	0.25	1.00	0.50	0.75	0.75	0.25	1.50	0.50	0.00	-0.173828	0.094727	0.957520	9.450000	-3.080000	1.890000	642.00	-0.28	-0.04
0.85	5.25	6.25	2.00	4.50	1.50	0.00	0.25	0.00	0.25	0.50	1.00	0.25	0.00	0.00	0.00	0.00	-0.281250	0.027344	0.930176	-3.150000	6.160000	0.980000	246.00	-0.28	-0.05	18.25	15.25	6.00	8.75	2.50	2.00	0.00	0.25	1.00	0.50	0.50	0.50	0.00	1.50	0.25	0.00	-0.277344	0.039551	0.999023	7.490000	-3.710000	1.960000	644.00	-0.29	-0.03
0.86	5.00	6.00	2.25	4.25	1.25	0.00	0.25	0.00	0.00	0.50	0.75	0.25	0.00	0.25	0.00	0.00	-0.289551	0.029785	0.947754	-2.030000	7.000000	1.190000	234.00	-0.28	-0.05	18.25	16.50	6.00	9.00	2.50	2.00	0.00	0.25	1.25	0.25	0.50	0.75	0.00	1.25	0.50	0.00	-0.255371	0.068848	0.934570	7.700000	-4.060000	1.680000	664.00	-0.29	-0.04
0.87	5.00	6.00	2.00	3.50	1.00	0.00	0.25	0.00	0.25	0.50	0.50	0.25	0.00	0.00	0.00	0.00	-0.289062	0.027344	0.940430	-1.610000	7.210000	1.120000	217.00	-0.29	-0.04	19.25	16.75	6.00	9.00	2.50	2.25	0.00	0.00	0.50	0.50	0.50	0.75	0.00	1.25	0.50	0.00	0.104004	0.221191	1.143555	8.470000	-2.100000	-0.840000	669.00	-0.30	-0.04
0.88	5.25	6.00	2.25	3.75	1.25	0.00	0.25	0.00	0.00	0.25	1.00	0.25	0.00	0.00	0.00	0.00	-0.287109	0.024414	0.938965	-1.330000	6.650000	1.260000	229.00	-0.29	-0.05	19.25	17.50	6.00	9.25	2.25	2.00	0.00	0.00	0.25	0.50	0.25	0.50	0.00	1.25	0.50	0.00	-0.250977	0.069336	0.947754	7.630000	-3.780000	0.770000	664.00	-0.31	-0.04
0.89	5.25	6.25	2.25	4.50	1.25	0.00	0.50	0.00	0.50	0.75	1.00	0.50	0.00	0.75	0.00	0.25	-0.282227	0.027832	0.939453	-1.260000	6.090000	1.400000	268.00	-0.24	-0.04	20.25	18.00	6.00	9.25	2.25	2.00	0.00	0.00	0.75	0.50	0.25	0.25	0.00	1.00	0.25	0.00	-0.256836	0.048340	0.960449	7.140000	-4.480000	1.470000	680.00	-0.32	-0.04
0.90	7.75	7.75	4.25	5.75	2.00	1.50	0.25	0.00	1.50	1.25	1.25	1.00	0.00	1.00	0.25	0.50	-0.291992	0.026855	0.951172	-0.280000	5.600000	1.470000	409.00	-0.21	-0.04	20.00	18.50	6.00	9.50	2.00	1.75	0.00	0.00	0.25	0.25	0.50	0.50	0.00	1.25	0.00	0.00	0.062988	0.215820	1.075195	9.310000	-2.310000	-1.260000	674.00	-0.32	-0.04
0.91	8.25	8.25	4.75	6.00	1.75	1.50	0.25	0.00	1.50	1.25	1.50	0.75	0.00	0.75	0.00	0.50	-0.292969	0.030273	0.944336	2.450000	4.900000	1.890000	421.00	-0.23	-0.03	20.50	19.50	5.75	10.00	2.00	2.00	0.00	0.00	0.00	0.50	0.25	0.50	0.25	0.75	0.00	0.00	-0.335449	0.011719	0.899902	8.400000	-7.280000	1.190000	690.00	-0.33	-0.05
0.92	5.75	6.00	1.50	3.25	0.75	0.00	0.00	0.00	0.00	0.00	0.00	0.00	0.00	0.00	0.00	0.00	-0.288086	0.037598	0.943848	3.430000	3.990000	2.030000	192.00	-0.36	-0.05	21.50	19.75	6.00	9.75	2.00	1.75	0.00	0.00	0.25	0.25	0.25	0.50	0.00	0.50	0.00	0.00	-0.237793	0.057617	0.949219	7.840000	-7.770000	1.610000	697.00	-0.34	-0.04
0.93	5.75	6.25	1.50	3.00	0.50	0.00	0.00	0.00	0.00	0.25	1.25	0.50	0.00	0.75	0.25	0.25	-0.289551	0.034180	0.953613	2.730000	3.080000	1.960000	223.00	-0.26	-0.05	22.25	20.25	6.00	10.00	1.75	1.75	0.00	0.00	0.00	0.00	0.00	0.50	0.00	1.00	0.00	0.00	-0.468262	-0.186035	0.864746	7.840000	-8.190000	0.840000	706.00	-0.34	-0.04
0.94	8.50	8.25	4.50	5.75	1.75	1.00	0.25	0.00	1.25	1.00	1.25	0.50	0.00	0.50	0.00	0.50	-0.292480	0.034180	0.958496	3.360000	1.540000	2.030000	397.00	-0.24	-0.03	23.00	21.00	6.00	10.25	2.00	1.75	0.00	0.00	0.25	0.00	0.25	0.50	0.00	0.50	0.00	0.00	-0.225098	0.058105	0.940430	6.020000	-8.120000	1.260000	730.00	-0.34	-0.04
0.95	8.75	8.25	4.25	5.75	1.50	0.75	0.25	0.00	1.00	0.75	1.25	0.50	0.00	0.75	0.00	0.25	-0.289551	0.030273	0.951660	4.480000	-0.280000	2.170000	385.00	-0.25	-0.03	23.00	21.25	6.00	10.00	1.50	2.00	0.00	0.25	0.25	0.00	0.00	0.00	0.00	0.50	0.00	0.00	-0.247070	0.056152	0.909668	4.760000	-8.260000	1.120000	722.00	-0.35	-0.05
0.96	8.75	8.50	4.25	5.75	1.25	0.50	0.00	0.00	0.75	0.75	0.50	0.25	0.00	0.50	0.00	0.25	-0.288574	0.029297	0.941895	4.410000	-1.540000	2.240000	360.00	-0.29	-0.04	23.50	21.50	6.00	10.25	1.75	1.75	0.00	0.00	0.00	0.00	0.00	0.25	0.00	0.75	0.00	0.00	-0.302734	0.135254	0.959473	4.130000	-8.890000	1.050000	730.00	-0.35	-0.04
0.97	9.00	8.50	4.00	5.50	1.25	0.75	0.00	0.00	1.00	0.50	0.75	0.50	0.00	0.75	0.00	0.25	-0.288574	0.037109	0.943359	3.710000	-2.870000	2.310000	369.00	-0.27	-0.03	24.50	22.25	6.00	10.25	1.75	1.50	0.00	0.00	0.00	0.00	0.00	0.25	0.00	0.50	0.00	0.00	-0.243164	0.070801	0.927734	5.530000	-8.820000	1.050000	744.00	-0.35	-0.04
0.98	9.00	8.75	4.00	5.50	1.25	0.75	0.25	0.00	0.50	0.50	0.50	0.25	0.00	0.25	0.00	0.25	-0.291992	0.032227	0.956543	4.270000	-4.550000	2.450000	358.00	-0.30	-0.04	25.25	22.50	6.25	10.75	1.75	1.50	0.00	0.00	0.00	0.00	0.00	0.25	0.00	0.50	0.00	0.00	-0.337402	-0.041504	0.939453	5.670000	-7.560000	-0.700000	764.00	-0.35	-0.04
0.99	8.50	8.25	3.75	5.25	1.00	0.25	0.00	0.00	0.25	0.75	0.50	0.25	0.00	0.50	0.00	0.00	-0.242188	-0.080078	0.890137	4.760000	-5.250000	2.590000	328.00	-0.30	-0.04	25.50	23.00	6.25	10.75	1.50	1.25	0.00	0.00	0.00	0.00	0.00	0.00	0.00	0.50	0.00	0.00	-0.239258	0.074219	0.925293	5.670000	-8.890000	0.560000	763.00	-0.36	-0.04
1.00	9.00	8.75	3.75	5.50	1.00	0.25	0.00	0.00	0.75	0.50	0.25	0.00	0.00	0.00	0.00	0.25	-0.277344	0.049805	0.956055	4.060000	-6.510000	2.940000	337.00	-0.31	-0.04	25.75	23.00	6.00	10.25	1.50	1.25	0.00	0.00	0.00	0.00	0.00	0.00	0.00	0.25	0.00	0.00	-0.282227	0.005371	0.926758	4.550000	-8.750000	0.210000	754.00	-0.36	-0.04
1.01	9.25	8.75	3.50	5.50	1.00	0.25	0.00	0.00	0.00	0.50	0.50	0.00	0.00	0.25	0.00	0.00	-0.317871	0.056152	0.900879	3.640000	-8.820000	3.850000	330.00	-0.33	-0.04	26.00	23.75	6.50	11.00	1.75	1.50	0.00	0.00	0.25	0.00	0.00	0.00	0.00	0.25	0.00	0.00	-0.245605	0.137695	0.986816	4.830000	-9.940000	0.630000	789.00	-0.36	-0.04
1.02	9.25	9.00	3.75	5.50	1.00	0.25	0.00	0.00	0.00	0.50	0.00	0.00	0.00	0.00	0.00	0.00	-0.352539	0.078613	0.865723	2.870000	-9.380000	3.780000	328.00	-0.34	-0.04	26.00	24.25	6.50	11.00	1.25	1.50	0.00	0.00	0.00	0.00	0.00	0.00	0.00	0.50	0.00	0.00	-0.232422	0.089355	0.911133	4.200000	-9.310000	0.700000	787.00	-0.36	-0.04
1.03	9.50	9.25	3.75	5.50	1.00	0.25	0.00	0.00	0.00	0.50	0.25	0.25	0.00	0.50	0.00	0.00	-0.384766	0.114746	0.889648	1.750000	-9.100000	3.850000	343.00	-0.32	-0.04	27.00	24.25	6.75	11.00	1.50	1.25	0.00	0.00	0.00	0.00	0.00	0.00	0.00	0.25	0.00	0.00	-0.233398	0.092285	0.944336	1.890000	-7.070000	0.140000	799.00	-0.36	-0.04
1.04	10.25	9.25	3.50	5.75	0.75	0.00	0.00	0.00	0.00	0.25	0.00	0.00	0.00	0.00	0.00	0.00	-0.173340	-0.142578	0.910645	1.400000	-9.520000	3.920000	333.00	-0.35	-0.04	26.50	24.50	6.50	11.00	1.25	1.25	0.00	0.00	0.00	0.00	0.00	0.00	0.00	0.25	0.00	0.00	-0.260254	0.200195	0.975586	0.280000	-4.760000	-1.610000	790.00	-0.36	-0.04
1.05	10.50	9.75	3.50	5.50	0.75	0.00	0.00	0.00	0.25	0.00	0.25	0.00	0.00	0.00	0.00	0.00	-0.314453	0.137695	0.924805	1.610000	-10.220000	4.270000	341.00	-0.35	-0.04	27.25	24.50	6.50	11.00	1.25	1.25	0.00	0.00	0.00	0.00	0.00	0.00	0.00	0.25	0.00	0.00	-0.229492	0.094727	0.941406	0.980000	-5.600000	-0.000000	798.00	-0.36	-0.04
1.06	10.25	10.00	3.50	5.50	0.75	0.00	0.00	0.00	0.00	0.25	0.25	0.00	0.00	0.00	0.00	0.00	-0.214355	0.002930	0.961914	2.380000	-11.410000	4.550000	340.00	-0.35	-0.04	26.75	24.25	6.50	11.00	1.50	1.25	0.00	0.00	0.00	0.00	0.00	0.00	0.00	0.50	0.00	0.00	-0.227539	0.095215	0.947266	-0.630000	-4.340000	0.700000	796.00	-0.36	-0.04
1.07	11.00	10.25	3.75	5.50	0.75	0.00	0.00	0.00	0.00	0.25	0.00	0.00	0.00	0.00	0.00	0.00	-0.251465	0.045410	0.927734	3.010000	-12.460000	4.900000	351.00	-0.36	-0.04	26.75	23.75	6.75	10.75	1.25	1.00	0.00	0.00	0.00	0.00	0.00	0.25	0.00	0.50	0.00	0.00	-0.227051	0.091309	0.945801	-1.470000	-3.640000	0.560000	788.00	-0.36	-0.04
1.08	11.50	10.00	3.25	6.00	0.50	0.00	0.00	0.00	0.00	0.00	0.00	0.00	0.00	0.00	0.00	0.00	-0.230469	0.038574	0.901367	2.520000	-11.550000	5.040000	348.00	-0.36	-0.04	26.50	24.50	6.50	11.00	1.25	1.00	0.00	0.00	0.00	0.00	0.00	0.00	0.00	0.50	0.00	0.00	-0.236328	0.104004	0.944336	-2.030000	-3.220000	0.280000	789.00	-0.36	-0.04
1.09	11.75	10.75	3.75	6.00	0.75	0.00	0.00	0.00	0.50	0.25	0.25	0.00	0.00	0.00	0.00	0.00	-0.231934	0.026367	0.891113	1.400000	-9.310000	4.480000	381.00	-0.34	-0.03	26.00	23.75	6.50	10.75	1.00	1.00	0.00	0.00	0.00	0.00	0.00	0.00	0.00	0.00	0.00	0.00	-0.206543	0.107422	0.927734	-3.780000	-2.100000	-0.140000	765.00	-0.37	-0.04
1.10	11.50	11.25	3.75	6.00	0.50	0.00	0.00	0.00	0.00	0.00	0.00	0.00	0.00	0.00	0.00	0.00	-0.236328	0.035645	0.902832	0.210000	-6.650000	3.360000	367.00	-0.36	-0.04	26.25	24.00	6.50	11.00	1.25	1.00	0.00	0.00	0.00	0.00	0.00	0.25	0.00	0.50	0.00	0.00	-0.306152	0.164062	0.995605	-5.250000	-1.050000	-1.190000	784.00	-0.36	-0.04
1.11	13.25	11.50	3.50	6.00	0.75	0.00	0.00	0.00	0.00	0.00	0.00	0.00	0.00	0.00	0.00	0.00	-0.237793	0.033691	0.914062	-0.070000	-4.200000	2.730000	389.00	-0.36	-0.04	26.00	23.75	6.50	10.75	1.25	1.00	0.00	0.00	0.00	0.00	0.00	0.00	0.00	0.25	0.00	0.00	-0.236328	0.099121	0.929688	-6.160000	-0.210000	-0.280000	771.00	-0.36	-0.04
1.12	13.25	11.75	3.75	6.25	0.75	0.00	0.00	0.00	0.00	0.00	0.00	0.00	0.00	0.25	0.00	0.00	-0.241699	0.036621	0.920410	0.490000	-2.590000	2.310000	400.00	-0.36	-0.04	25.75	23.25	6.25	10.50	1.25	1.00	0.00	0.00	0.00	0.00	0.00	0.00	0.00	0.25	0.00	0.00	-0.231445	0.095703	0.950195	-7.630000	0.840000	0.070000	757.00	-0.36	-0.04
1.13	13.75	12.00	3.75	6.50	0.75	0.00	0.00	0.00	0.00	0.00	0.00	0.00	0.00	0.00	0.00	0.00	-0.234375	0.046387	0.896484	0.910000	-0.630000	1.540000	409.00	-0.36	-0.04	25.25	23.00	6.25	10.00	1.25	1.00	0.00	0.00	0.00	0.00	0.00	0.00	0.00	0.25	0.00	0.00	-0.224121	0.086914	0.941895	-8.120000	0.980000	0.140000	743.00	-0.36	-0.04
1.14	13.75	12.25	3.75	6.50	0.75	0.00	0.00	0.00	0.00	0.00	0.00	0.00	0.00	0.00	0.00	0.00	-0.231934	0.050781	0.897461	0.630000	1.960000	1.120000	412.00	-0.36	-0.04	25.00	22.75	6.25	10.25	1.25	0.75	0.00	0.00	0.00	0.00	0.00	0.00	0.00	0.25	0.00	0.00	-0.228027	0.093262	0.936523	-9.030000	1.680000	0.070000	737.00	-0.36	-0.04
1.15	14.75	12.75	4.25	7.25	0.75	0.25	0.00	0.00	0.00	0.25	0.00	0.00	0.00	0.00	0.00	0.00	-0.230957	0.051270	0.905762	-0.420000	4.900000	0.980000	449.00	-0.36	-0.04	24.50	22.25	6.00	10.00	1.00	0.75	0.00	0.00	0.00	0.00	0.00	0.00	0.00	0.25	0.00	0.00	-0.228027	0.085449	0.935547	-12.530000	3.710000	-0.000000	718.00	-0.36	-0.04
1.16	14.75	13.00	4.25	7.00	0.75	0.25	0.00	0.00	0.00	0.00	0.00	0.00	0.00	0.00	0.00	0.00	-0.232422	0.050293	0.903320	-4.130000	9.520000	0.420000	446.00	-0.36	-0.04	24.00	22.00	6.25	10.00	1.25	1.00	0.00	0.00	0.00	0.00	0.00	0.00	0.00	0.00	0.00	0.00	-0.230469	0.084473	0.936523	-14.630000	5.040000	-0.210000	716.00	-0.36	-0.04
1.17	15.50	13.25	4.50	7.50	0.75	0.50	0.00	0.00	0.00	0.00	0.00	0.00	0.00	0.00	0.00	0.00	-0.236816	0.054199	0.899902	-5.950000	12.320000	0.280000	469.00	-0.36	-0.04	23.75	21.50	6.00	9.75	1.25	0.75	0.00	0.00	0.00	0.00	0.00	0.00	0.00	0.25	0.00	0.00	-0.230957	0.088867	0.940918	-16.590000	5.950000	-0.280000	702.00	-0.36	-0.04
1.18	16.00	13.75	4.75	7.75	0.75	0.25	0.00	0.00	0.25	0.25	0.25	0.00	0.00	0.25	0.00	0.00	-0.243164	0.047852	0.918457	-7.420000	14.980000	0.350000	494.00	-0.35	-0.04	22.75	21.00	6.25	9.50	1.25	0.75	0.00	0.00	0.00	0.00	0.00	0.00	0.00	0.25	0.00	0.00	-0.238770	0.083984	0.942871	-19.110001	7.280000	-0.490000	685.00	-0.36	-0.04
1.19	16.00	14.00	5.00	8.00	1.00	0.25	0.00	0.00	0.00	0.00	0.25	0.00	0.00	0.00	0.00	0.00	-0.248535	0.040039	0.942383	-7.630000	16.100000	0.210000	497.00	-0.36	-0.04	22.25	20.25	6.00	9.25	1.25	1.00	0.00	0.00	0.00	0.00	0.00	0.00	0.00	0.25	0.00	0.00	-0.235840	0.082031	0.951172	-20.510000	8.190000	-0.490000	669.00	-0.36	-0.04
1.20	16.50	14.25	5.00	8.00	1.00	0.25	0.00	0.00	0.00	0.00	0.25	0.00	0.00	0.00	0.00	0.00	-0.260742	0.038574	0.955078	-6.300000	15.330000	0.000000	505.00	-0.36	-0.04	21.75	19.75	6.00	8.75	1.25	0.50	0.00	0.00	0.00	0.00	0.00	0.00	0.00	0.25	0.00	0.00	-0.264160	0.071289	0.943359	-20.510000	8.120000	-0.560000	646.00	-0.36	-0.04
1.21	17.00	14.50	5.25	8.25	1.00	0.50	0.00	0.00	0.00	0.25	0.00	0.00	0.00	0.00	0.00	0.00	-0.257324	0.051270	0.962891	-4.200000	13.370000	-0.070000	522.00	-0.36	-0.04	20.75	18.75	5.75	8.50	1.25	0.50	0.00	0.00	0.25	0.00	0.00	0.00	0.00	0.25	0.00	0.00	-0.231445	0.074219	0.940918	-21.070000	8.400000	-0.700000	623.00	-0.36	-0.04
1.22	17.75	15.00	5.25	8.50	1.25	1.00	0.25	0.00	0.25	0.50	0.25	0.00	0.00	0.00	0.00	0.00	-0.263672	0.045898	0.938965	-2.450000	11.900000	0.210000	561.00	-0.34	-0.04	19.50	17.50	5.75	8.25	1.25	0.50	0.00	0.00	0.00	0.00	0.00	0.00	0.00	0.25	0.00	0.00	-0.231445	0.077637	0.930664	-22.120001	9.870000	-0.910000	589.00	-0.36	-0.04
1.23	17.75	15.50	5.25	8.75	1.25	1.00	0.00	0.00	0.00	0.50	0.50	0.00	0.00	0.00	0.00	0.00	-0.261230	0.044434	0.939453	-1.470000	11.760000	0.420000	564.00	-0.34	-0.04	18.00	16.00	5.50	7.75	1.25	0.50	0.00	0.00	0.00	0.00	0.00	0.00	0.00	0.25	0.00	0.00	-0.237793	0.076660	0.934570	-23.170000	11.830000	-1.330000	548.00	-0.36	-0.04
1.24	18.50	16.00	5.75	9.00	1.50	1.50	0.00	0.25	0.25	0.25	0.25	0.00	0.00	0.00	0.00	0.00	-0.256348	0.053223	0.926758	-0.630000	11.410000	0.490000	598.00	-0.34	-0.04	15.50	14.00	5.25	7.00	1.50	0.50	0.00	0.00	0.25	0.00	0.00	0.00	0.00	0.25	0.00	0.00	-0.217285	0.056152	0.893066	-21.559999	12.950000	-1.680000	494.00	-0.35	-0.03
1.25	19.75	16.25	6.00	9.25	1.50	1.50	0.25	0.00	0.25	0.25	0.25	0.00	0.00	0.00	0.00	0.50	-0.257324	0.053223	0.917480	-1.260000	11.690000	0.560000	623.00	-0.34	-0.04	12.50	11.25	5.00	6.25	1.25	0.25	0.00	0.00	0.50	0.25	0.00	0.00	0.00	0.50	0.00	0.00	-0.203125	0.047852	0.875977	-20.020000	16.799999	-2.870000	423.00	-0.33	-0.03
1.26	20.00	17.00	6.50	9.75	1.75	2.00	0.00	0.00	0.25	0.25	0.50	0.00	0.00	0.00	0.00	0.25	-0.258789	0.054688	0.931641	-2.870000	12.320000	0.630000	652.00	-0.34	-0.04	9.25	8.25	4.00	5.00	1.25	0.25	0.25	0.00	0.25	0.25	0.00	0.00	0.00	0.50	0.00	0.00	-0.215332	0.057617	0.918945	-19.530001	23.309999	-3.780000	330.00	-0.32	-0.03
1.27	21.00	17.50	6.75	10.00	1.75	2.25	0.00	0.00	0.00	0.25	0.50	0.25	0.00	0.50	0.00	0.00	-0.269043	0.041992	0.948242	-4.620000	12.320000	0.700000	680.00	-0.34	-0.04	7.00	6.50	3.25	4.00	1.25	0.25	0.25	0.00	0.50	0.50	0.25	0.00	0.00	0.75	0.00	0.00	-0.315430	0.042969	0.988281	-20.299999	41.230000	-6.930000	277.00	-0.28	-0.02
1.28	14.25	13.75	5.75	8.75	1.25	0.25	0.00	0.00	0.25	0.25	0.25	0.00	0.00	0.00	0.00	0.00	-0.265625	0.045898	0.939941	-6.300000	11.620000	0.420000	502.00	-0.34	-0.04	5.75	5.00	2.50	2.00	1.00	0.00	0.25	0.00	1.00	0.50	0.25	0.00	0.00	0.50	0.00	0.00	-0.614258	-0.033203	0.957520	-19.389999	46.619999	-9.450000	214.00	-0.26	0.01
1.29	15.25	14.25	5.75	9.00	1.25	1.00	0.00	0.00	0.00	0.00	0.00	0.00	0.00	0.00	0.00	0.00	-0.268555	0.048828	0.947266	-8.820000	11.130000	0.280000	521.00	-0.35	-0.05	4.75	2.50	1.50	1.25	0.50	0.00	0.25	0.00	1.00	0.75	0.50	0.25	0.00	1.00	0.25	0.00	-0.484863	0.228027	1.163086	-29.469999	58.380001	-17.010000	166.00	-0.18	0.03
1.30	21.75	18.50	7.75	10.75	2.50	3.00	0.00	0.25	0.00	0.50	0.50	0.00	0.00	0.00	0.00	0.00	-0.268555	0.046387	0.958008	-10.850000	10.430000	0.000000	737.00	-0.33	-0.05	2.50	1.50	1.25	0.50	0.50	0.00	0.25	0.00	1.25	0.75	0.50	0.00	0.00	1.00	0.00	0.00	-0.242188	0.020508	1.472168	-51.029999	84.489998	-17.010000	116.00	-0.10	0.07
1.31	16.25	15.25	7.25	10.75	2.50	3.50	0.00	0.00	0.25	0.25	0.75	0.50	0.00	0.00	0.25	0.25	-0.270996	0.047852	0.956543	-13.580000	8.610000	-0.350000	652.00	-0.31	-0.06	1.50	1.25	0.75	0.50	0.25	0.00	0.00	0.00	1.00	0.50	0.25	0.00	0.00	1.00	0.25	0.00	-0.185547	0.217285	1.430664	-54.320000	127.050003	-28.350000	83.00	-0.07	0.06
1.32	24.50	19.75	8.50	11.75	3.00	4.50	0.25	0.25	0.50	0.75	0.75	0.25	0.00	0.00	0.00	0.25	-0.272461	0.048340	0.962402	-13.930000	7.910000	-0.350000	847.00	-0.32	-0.05	1.00	0.50	0.75	0.25	0.00	0.00	0.00	0.00	3.25	1.75	0.25	0.75	1.25	2.25	1.75	0.25	-0.374512	0.200684	1.416504	-74.410004	165.759995	-42.420002	161.00	0.18	0.05
1.33	25.00	20.25	9.00	11.75	3.50	5.00	0.25	0.25	0.50	1.00	0.75	0.25	0.00	0.00	0.00	0.25	-0.266113	0.041992	0.963867	-13.580000	7.210000	-0.420000	879.00	-0.31	-0.04	0.00	0.50	0.25	0.25	1.00	1.25	0.00	0.00	1.00	0.50	0.00	0.00	0.00	0.75	1.50	0.75	-0.506348	0.279297	1.608398	-83.440002	188.789993	-56.349998	87.00	0.10	-0.02
1.34	17.50	17.75	8.75	12.00	4.00	5.00	0.25	0.50	0.50	1.00	1.25	0.50	0.00	0.00	0.00	0.75	-0.274414	0.035156	0.952148	-12.740000	6.860000	-0.420000	790.00	-0.29	-0.06	0.00	0.25	0.00	0.00	0.00	0.00	0.00	0.00	0.75	0.50	0.25	0.00	0.00	0.50	1.50	0.25	-0.462402	0.340820	1.551758	-82.459999	198.660004	-71.190002	45.00	0.00	0.00
1.35	24.25	19.75	8.75	10.75	3.25	4.50	0.25	0.25	0.25	0.75	1.00	0.75	0.00	0.00	0.00	0.25	-0.276855	0.035156	0.945312	-11.340000	6.510000	-0.070000	843.00	-0.31	-0.05	2.00	1.50	2.00	1.50	0.75	1.25	0.00	0.75	2.00	1.25	0.75	0.75	1.25	2.00	1.50	0.75	-0.721680	0.365234	2.017090	-72.940002	200.619995	-82.389999	229.00	0.01	-0.04
1.36	16.75	16.75	7.50	10.00	3.25	2.75	0.00	0.00	0.00	0.25	0.25	0.00	0.00	0.00	0.00	0.00	-0.270020	0.034180	0.951660	-9.940000	6.020000	0.140000	647.00	-0.33	-0.05	1.25	1.00	1.50	1.25	0.75	1.25	0.00	0.50	1.75	1.25	0.75	0.75	1.00	1.50	1.25	0.75	-0.354492	0.322754	2.060059	-44.869999	188.720001	-90.720001	188.00	0.03	-0.05
1.37	18.25	16.25	7.75	9.75	3.50	3.25	0.00	0.00	0.00	0.50	1.00	0.50	0.00	0.25	0.00	0.00	-0.270996	0.037109	0.947266	-8.890000	5.670000	0.140000	688.00	-0.31	-0.05	2.00	1.50	1.75	1.25	0.75	1.50	0.25	0.50	1.25	1.00	0.50	0.75	1.25	1.50	1.00	0.50	0.255371	0.366211	1.846191	-39.410000	176.680008	-102.900002	197.00	-0.03	-0.05
1.38	16.75	15.50	7.75	10.00	3.50	3.25	0.00	0.00	0.00	0.00	0.50	0.00	0.00	0.00	0.00	0.00	-0.268066	0.031250	0.946289	-8.120000	5.810000	0.210000	646.00	-0.33	-0.05	2.50	1.25	1.75	1.50	0.75	1.25	0.25	0.50	1.25	0.75	0.50	0.25	0.00	0.00	0.00	0.00	0.672363	0.558105	1.715820	-53.340000	156.029999	-109.059998	152.00	-0.15	-0.02
1.39	16.25	15.25	7.75	10.00	3.75	3.75	0.25	0.00	0.00	0.50	0.50	0.00	0.00	0.00	0.00	0.00	-0.268066	0.034180	0.948730	-7.210000	5.950000	0.210000	657.00	-0.32	-0.05	1.25	1.25	1.75	1.25	0.75	1.00	0.00	0.75	1.25	1.00	0.75	0.50	1.25	1.50	1.00	0.50	1.031738	1.280273	1.926758	-75.110001	101.639999	-84.489998	180.00	-0.00	-0.06
1.40	16.00	15.00	7.75	10.00	3.75	4.00	0.25	0.00	0.00	0.50	1.00	0.50	0.00	0.25	0.25	0.25	-0.270996	0.026855	0.945312	-6.160000	5.880000	0.350000	673.00	-0.30	-0.05	2.25	1.25	2.00	1.25	0.75	1.25	0.25	0.75	1.25	0.75	0.75	0.75	1.50	1.25	1.00	0.50	1.524414	1.132324	1.668457	-45.009998	54.459999	-56.490002	202.00	-0.03	-0.06
1.41	23.25	19.00	9.25	12.00	5.50	5.75	0.25	0.75	0.75	1.25	1.25	1.00	0.50	0.25	0.25	0.50	-0.272949	0.028809	0.943848	-5.250000	5.600000	0.490000	926.00	-0.28	-0.05	2.25	1.50	1.75	1.25	0.75	1.25	0.25	0.75	1.25	0.75	0.50	0.50	1.25	1.25	1.00	0.50	1.460938	1.021484	1.248047	-6.160000	15.890000	-33.599998	193.00	-0.04	-0.06
1.42	23.50	19.00	9.25	11.75	5.50	6.00	0.50	1.25	0.50	1.25	1.50	1.00	0.25	0.50	0.00	0.25	-0.270996	0.031250	0.940430	-4.550000	5.600000	0.630000	936.00	-0.28	-0.05	0.00	0.00	0.00	0.00	0.00	0.00	0.00	0.00	0.00	0.00	0.00	0.00	0.00	0.00	0.00	0.00	1.391602	0.845703	0.944824	19.110001	-5.390000	-16.100000	0.00	0.00	0.00
1.43	22.75	18.50	9.25	11.75	5.50	5.75	0.50	0.75	1.00	1.25	1.75	1.00	0.75	0.50	0.25	0.25	-0.272949	0.025391	0.936035	-4.200000	5.600000	0.630000	929.00	-0.27	-0.05	0.00	0.00	0.00	0.00	0.00	0.00	0.00	0.00	0.00	0.00	0.00	0.00	0.00	0.00	0.00	0.00	1.395508	0.738281	0.839844	32.549999	-15.400000	0.070000	0.00	0.00	0.00
1.44	22.50	18.25	9.25	11.75	5.50	6.00	0.50	1.25	0.75	1.25	1.75	1.00	1.25	0.50	0.00	0.50	-0.270020	0.027832	0.932129	-4.060000	5.320000	0.560000	934.00	-0.27	-0.06	0.00	0.00	0.00	0.00	0.00	0.00	0.00	0.00	0.00	0.00	0.00	0.00	0.00	0.00	0.00	0.00	1.358398	0.671875	0.928711	38.849998	-25.900000	16.100000	0.00	0.00	0.00
1.45	22.25	18.00	9.00	11.50	5.75	6.00	0.50	1.25	1.00	1.50	1.75	1.00	1.00	0.25	0.25	0.50	-0.269043	0.029297	0.935547	-4.270000	5.180000	0.490000	931.00	-0.26	-0.05	0.00	0.00	0.00	0.00	0.00	0.00	0.00	0.00	0.00	0.00	0.00	0.00	0.00	0.00	0.00	0.00	1.288086	0.589844	1.046387	43.680000	-41.230000	32.340000	0.00	0.00	0.00
1.46	21.75	18.00	9.00	11.50	5.75	6.25	0.50	1.00	1.00	1.25	1.50	1.00	1.00	0.50	0.25	0.75	-0.270508	0.031250	0.936035	-4.690000	4.480000	0.280000	922.00	-0.26	-0.06	0.00	0.00	0.00	0.00	0.00	0.00	0.00	0.00	0.00	0.00	0.00	0.00	0.00	0.00	0.00	0.00	1.186523	0.464355	1.127930	46.619999	-59.080002	47.389999	0.00	0.00	0.00
1.47	21.75	17.75	9.25	11.50	5.75	6.25	0.50	1.00	1.00	1.50	1.50	1.25	0.75	0.75	0.25	0.25	-0.272461	0.026855	0.936035	-5.320000	4.200000	0.210000	925.00	-0.26	-0.05	0.00	0.00	0.00	0.00	0.00	0.00	0.00	0.00	0.00	0.00	0.00	0.00	0.00	0.00	0.00	0.00	1.055664	0.343262	1.181152	45.080002	-77.000000	60.900002	0.00	0.00	0.00
1.48	21.00	17.25	9.25	11.50	5.75	6.50	0.50	1.25	1.25	1.25	1.75	1.25	1.00	0.50	0.25	0.50	-0.273438	0.031250	0.934570	-6.300000	3.850000	0.000000	924.00	-0.26	-0.06	0.00	0.00	0.00	0.00	0.00	0.00	0.00	0.00	0.00	0.00	0.00	0.00	0.00	0.25	0.25	0.00	0.917969	0.268555	1.318359	42.279999	-95.199997	73.500000	5.00	0.00	0.00
1.49	21.25	17.25	9.25	11.25	6.00	6.50	0.50	1.25	1.00	1.50	2.00	1.25	1.00	0.50	0.25	0.75	-0.270996	0.023438	0.937988	-7.070000	3.570000	-0.070000	930.00	-0.25	-0.06	0.00	0.00	0.00	0.00	0.00	0.00	0.00	0.00	0.00	0.00	0.00	0.00	0.00	0.00	0.00	0.00	0.782715	0.245117	1.484863	41.860001	-115.989998	85.820000	0.00	0.00	0.00
1.50	20.75	17.00	9.25	11.25	6.00	6.50	0.50	1.50	1.25	1.25	1.75	1.25	1.00	0.75	0.25	0.50	-0.272949	0.027832	0.942383	-7.630000	3.220000	-0.140000	925.00	-0.25	-0.06	0.00	0.00	0.00	0.00	0.00	0.00	0.00	0.00	0.00	0.00	0.00	0.00	0.00	0.00	0.00	0.00	0.616699	0.195801	1.572266	43.820000	-138.809998	97.860001	0.00	0.00	0.00
1.51	21.50	17.25	9.50	11.25	6.25	6.75	0.50	1.50	1.00	1.50	2.25	1.50	1.00	0.75	0.25	0.50	-0.272461	0.023438	0.937012	-7.910000	2.940000	-0.210000	953.00	-0.25	-0.06	0.00	0.00	0.00	0.00	0.00	0.00	0.00	0.00	0.00	0.00	0.00	0.00	0.00	0.00	0.00	0.00	0.276367	0.083984	1.609863	47.950001	-178.850006	116.129997	0.00	0.00	0.00
1.52	21.25	17.00	9.50	11.50	6.50	6.75	0.50	1.50	1.25	1.25	1.75	1.50	1.25	0.75	0.25	0.50	-0.265625	0.023438	0.938965	-8.330000	2.730000	-0.210000	951.00	-0.25	-0.06	0.00	0.00	0.00	0.00	0.00	0.00	0.00	0.00	0.00	0.00	0.00	0.00	0.00	0.00	0.00	0.00	0.093262	0.050293	1.619141	47.740002	-192.360001	122.709999	0.00	0.00	0.00
1.53	21.75	17.00	9.75	11.25	6.50	7.25	0.75	1.50	1.50	1.50	1.75	1.50	1.50	0.75	0.25	0.50	-0.267578	0.022461	0.937500	-8.960000	2.310000	-0.350000	976.00	-0.24	-0.06	0.00	0.00	0.00	0.00	0.00	0.00	0.00	0.00	0.00	0.00	0.00	0.00	0.00	0.00	0.00	0.00	-0.068848	0.035645	1.645508	45.779999	-202.440002	128.169998	0.00	0.00	0.00
1.54	21.25	16.75	9.75	11.25	6.75	7.00	0.75	1.75	1.25	1.50	2.25	1.50	1.50	0.75	0.25	0.75	-0.267090	0.023926	0.934082	-9.450000	1.750000	-0.630000	975.00	-0.24	-0.06	0.00	0.00	0.00	0.00	0.00	0.00	0.00	0.00	0.00	0.00	0.00	0.00	0.00	0.00	0.00	0.00	-0.222656	0.031250	1.679688	41.860001	-209.089996	132.440002	0.00	0.00	0.00
1.55	21.25	16.75	10.00	11.25	7.00	7.50	0.75	1.75	1.75	1.50	2.00	1.50	1.75	0.75	0.25	0.50	-0.269043	0.020508	0.938965	-9.590000	1.400000	-0.840000	992.00	-0.24	-0.06	0.00	0.00	0.00	0.00	0.00	0.00	0.00	0.00	0.00	0.00	0.00	0.00	0.00	0.00	0.00	0.00	-0.374023	0.041992	1.691406	36.959999	-213.639999	136.009995	0.00	0.00	0.00
1.56	21.00	16.50	10.25	11.25	7.25	7.25	0.75	1.75	1.75	1.75	2.00	1.75	2.00	1.00	0.25	0.75	-0.268555	0.017578	0.937988	-9.520000	1.260000	-0.840000	1002.00	-0.23	-0.06	0.00	0.00	0.00	0.00	0.00	0.00	0.00	0.00	0.00	0.00	0.00	0.00	0.00	0.00	0.00	0.00	-0.496582	0.044922	1.633789	32.480000	-215.389999	138.529999	0.00	0.00	0.00
1.57	20.75	16.25	10.25	11.00	7.50	7.50	1.00	1.75	1.50	1.50	2.50	1.75	2.25	1.25	0.50	0.75	-0.269531	0.020996	0.934570	-9.380000	1.120000	-0.840000	1011.00	-0.22	-0.06	0.00	0.00	0.00	0.00	0.00	0.00	0.00	0.00	0.00	0.00	0.00	0.00	0.00	0.00	0.00	0.00	-0.625488	0.037598	1.513672	29.400000	-211.960007	139.369995	0.00	0.00	0.00
1.58	20.25	16.25	10.50	11.00	7.75	7.75	1.00	1.75	2.00	2.00	2.50	1.75	2.25	1.00	1.00	0.75	-0.263672	0.012695	0.943848	-9.380000	0.980000	-0.910000	1030.00	-0.21	-0.06	0.00	0.00	0.00	0.00	0.00	0.00	0.00	0.00	0.00	0.00	0.00	0.00	0.00	0.00	0.00	0.00	-0.740234	0.026855	1.367676	28.490000	-202.229996	138.039993	0.00	0.00	0.00
1.59	20.00	15.75	10.50	11.00	8.00	7.75	1.25	2.00	2.00	2.00	2.75	2.25	2.50	1.25	0.50	0.50	-0.270996	0.017090	0.938965	-9.310000	0.980000	-0.910000	1040.00	-0.21	-0.06	0.00	0.00	0.00	0.00	0.00	0.00	0.00	0.00	0.00	0.00	0.00	0.00	0.00	0.00	0.00	0.00	-0.817383	0.007812	1.231934	30.240000	-185.289993	133.839996	0.00	0.00	0.00
1.60	19.25	15.50	10.50	10.75	8.00	7.75	1.25	2.25	2.25	2.50	3.00	2.25	2.50	1.50	0.50	0.75	-0.266113	0.009277	0.932617	-9.100000	0.910000	-0.770000	1046.00	-0.20	-0.06	0.00	0.00	0.00	0.00	0.00	0.00	0.00	0.00	0.00	0.00	0.00	0.00	0.00	0.00	0.00	0.00	-0.861328	-0.011230	1.349121	31.150000	-165.690002	126.699997	0.00	0.00	0.00
1.61	19.00	15.00	10.50	10.50	8.25	7.75	1.50	2.50	2.75	2.50	3.25	2.50	2.75	1.50	0.50	0.75	-0.269043	0.011230	0.937500	-8.750000	1.120000	-0.770000	1061.00	-0.19	-0.06	0.00	0.00	0.00	0.00	0.00	0.00	0.00	0.00	0.00	0.00	0.00	0.00	0.00	0.00	0.00	0.00	-0.855957	0.003418	1.619629	31.010000	-153.229996	119.629997	0.00	0.00	0.00
1.62	18.50	14.75	10.25	10.50	8.50	8.00	1.75	2.75	2.75	2.50	3.25	3.00	3.50	1.75	1.00	1.00	-0.265625	0.009766	0.939941	-8.050000	1.540000	-0.770000	1087.00	-0.17	-0.06	0.00	0.00	0.00	0.00	0.00	0.00	0.00	0.00	0.00	0.00	0.00	0.00	0.00	0.00	0.00	0.00	-0.877930	0.020020	1.785156	28.840000	-154.279999	114.940002	0.00	0.00	0.00
1.63	17.75	14.25	10.50	10.25	8.75	8.00	2.00	3.00	2.75	2.75	4.00	3.00	4.00	2.00	1.00	1.25	-0.262207	0.010254	0.936523	-7.560000	2.100000	-0.700000	1105.00	-0.16	-0.06	0.00	0.00	0.00	0.00	0.00	0.00	0.00	0.00	0.00	0.00	0.00	0.00	0.00	0.00	0.00	0.00	-1.034180	-0.066895	1.538574	18.900000	-177.309998	110.669998	0.00	0.00	0.00
1.64	17.25	13.50	10.25	10.00	8.75	8.25	2.50	3.50	3.75	3.00	4.25	3.50	4.25	2.25	0.75	1.25	-0.270020	0.005859	0.940430	-7.070000	2.380000	-0.630000	1132.00	-0.15	-0.06	0.00	0.00	0.00	0.00	0.00	0.00	0.00	0.00	0.00	0.00	0.00	0.00	0.00	0.00	0.00	0.00	-1.111328	-0.163086	1.192383	14.070000	-178.430008	105.910004	0.00	0.00	0.00
1.65	16.00	12.75	10.00	9.75	9.00	8.25	3.25	3.50	4.25	3.00	5.00	3.75	4.75	2.50	1.00	1.50	-0.268066	0.008301	0.934082	-6.580000	2.660000	-0.490000	1150.00	-0.13	-0.06	0.00	0.00	0.00	0.00	0.00	0.00	0.00	0.00	0.00	0.00	0.00	0.00	0.00	0.00	0.00	0.00	-1.224609	-0.266113	0.906250	12.040000	-167.649994	96.879997	0.00	0.00	0.00
1.66	15.50	11.75	9.75	9.75	9.00	8.25	3.75	4.00	4.75	3.50	6.00	4.25	5.25	3.00	1.50	1.50	-0.270020	0.007812	0.942871	-6.510000	3.150000	-0.350000	1193.00	-0.11	-0.06	0.00	0.00	0.00	0.00	0.00	0.00	0.00	0.00	0.00	0.00	0.00	0.00	0.00	0.00	0.00	0.00	-1.370117	-0.314941	0.781250	14.280000	-150.080002	84.349998	0.00	0.00	0.00
1.67	14.00	11.00	9.50	9.50	9.00	8.25	4.00	4.50	5.25	4.00	7.00	4.75	5.75	3.25	1.50	1.75	-0.273926	0.009766	0.930664	-6.720000	3.780000	-0.420000	1213.00	-0.09	-0.06	0.00	0.00	0.00	0.00	0.00	0.00	0.00	0.00	0.00	0.00	0.00	0.00	0.00	0.00	0.00	0.00	-1.434570	-0.349609	0.699219	15.540000	-132.300003	69.370003	0.00	0.00	0.00
1.68	13.00	10.00	9.50	9.00	9.00	8.25	4.75	4.75	6.00	4.50	7.75	5.50	6.25	3.75	1.50	1.75	-0.292969	-0.002930	0.951660	-7.000000	4.340000	-0.630000	1246.00	-0.07	-0.06	0.00	0.00	0.00	0.00	0.00	0.00	0.00	0.00	0.00	0.00	0.00	0.00	0.00	0.00	0.00	0.00	-1.483887	-0.349121	0.618652	8.820000	-119.770004	52.290001	0.00	0.00	0.00
1.69	11.25	9.00	9.00	8.75	9.00	8.25	5.00	5.25	6.50	5.50	8.25	6.25	6.50	4.00	1.75	2.00	-0.206055	0.004883	0.940430	-6.860000	4.900000	-0.560000	1261.00	-0.05	-0.06	0.00	0.00	0.00	0.00	0.00	0.00	0.00	0.00	0.00	0.00	0.00	0.00	0.00	0.00	0.00	0.00	-1.536621	-0.315430	0.484863	-8.470000	-112.489998	32.060001	0.00	0.00	0.00
1.70	9.75	8.00	8.75	8.25	8.75	8.50	5.25	5.50	7.50	6.25	8.50	7.50	7.50	4.75	2.00	2.50	-0.234375	0.006348	0.937988	-6.650000	6.020000	-0.630000	1296.00	-0.02	-0.07	0.00	0.00	0.00	0.00	0.00	0.00	0.00	0.00	0.00	0.00	0.00	0.00	0.00	0.00	0.00	0.00	-1.595215	-0.224609	0.264160	-26.670000	-105.349998	9.800000	0.00	0.00	0.00
1.71	8.75	7.50	8.50	7.75	8.75	8.25	5.75	5.50	8.00	7.25	9.00	7.75	8.00	5.00	2.25	2.75	-0.245605	0.035645	0.936035	-7.070000	7.770000	-0.700000	1314.00	-0.01	-0.06	0.00	0.00	0.00	0.00	0.00	0.00	0.00	0.00	0.00	0.00	0.00	0.00	0.00	0.00	0.00	0.00	-1.677734	-0.139160	0.040527	-32.689999	-92.330002	-12.390000	0.00	0.00	0.00
1.72	7.50	6.25	8.00	7.25	8.50	8.00	6.25	5.75	8.50	7.75	9.75	8.25	8.75	5.50	2.25	3.00	-0.002930	-0.000488	0.925781	-7.840000	8.960000	-0.910000	1322.00	0.01	-0.06	0.00	0.00	0.00	0.00	0.00	0.00	0.00	0.00	0.00	0.00	0.00	0.00	0.00	0.00	0.00	0.00	-1.738770	-0.072266	-0.113281	-22.610001	-71.959999	-33.040001	0.00	0.00	0.00
1.73	6.50	5.50	7.25	6.25	8.00	7.75	6.50	6.00	9.25	8.25	10.00	8.50	9.25	6.00	2.75	3.25	-0.338379	-0.014648	0.924805	-8.120000	12.250000	-0.910000	1320.00	0.03	-0.06	0.00	0.00	0.00	0.00	0.00	0.00	0.00	0.00	0.00	0.00	0.00	0.00	0.00	0.00	0.00	0.00	-1.758789	-0.005859	-0.173340	-3.500000	-46.410000	-50.889999	0.00	0.00	0.00
1.74	5.50	5.00	6.25	5.50	7.50	7.50	7.00	6.00	9.75	8.75	10.75	8.75	9.50	6.50	3.00	3.75	-0.263672	-0.012695	0.918945	-7.910000	15.890000	-0.840000	1319.00	0.05	-0.06	0.00	0.00	0.00	0.00	0.00	0.00	0.00	0.00	0.00	0.00	0.00	0.00	0.00	0.00	0.00	0.00	-1.732910	0.039062	-0.111816	15.400000	-20.440001	-63.630001	0.00	0.00	0.00
1.75	4.75	4.25	5.25	4.50	6.75	6.75	7.25	5.75	10.75	9.00	11.00	9.00	9.75	7.25	3.00	4.00	-0.386719	-0.007812	0.923340	-7.210000	18.200001	-1.050000	1294.00	0.07	-0.05	0.00	0.00	0.00	0.00	0.00	0.00	0.00	0.00	0.00	0.00	0.00	0.00	0.00	0.00	0.00	0.00	-1.640625	0.129395	0.134277	27.299999	23.520000	-72.590004	0.00	0.00	0.00
1.76	3.75	3.75	3.75	3.25	5.75	6.00	7.50	5.75	11.25	9.50	11.75	9.50	10.00	7.50	3.50	4.50	-0.211914	-0.073242	0.929688	-5.880000	25.549999	-2.380000	1268.00	0.10	-0.05	0.00	0.00	0.00	0.00	0.00	0.00	0.00	0.00	0.00	0.00	0.00	0.00	0.00	0.00	0.00	0.00	-1.583984	0.187012	0.253906	18.900000	40.880001	-70.699997	0.00	0.00	0.00
1.77	2.50	2.00	2.50	1.75	4.75	5.25	7.75	5.50	12.00	10.00	12.00	10.00	10.25	8.00	3.50	5.00	-0.187012	-0.032227	0.926270	-5.530000	30.309999	-3.290000	1217.00	0.13	-0.05	0.00	0.00	0.00	0.00	0.00	0.00	0.00	0.00	0.00	0.00	0.00	0.00	0.00	0.00	0.00	0.00	-1.525879	0.242188	0.317383	6.720000	56.420002	-65.449997	0.00	0.00	0.00
1.78	2.00	1.50	1.75	1.75	3.50	4.50	7.75	5.00	13.00	10.50	12.50	10.25	10.50	8.25	3.75	5.00	-0.268066	-0.001953	0.954590	-5.460000	37.799999	-4.130000	1201.00	0.15	-0.05	0.00	0.00	0.00	0.00	0.00	0.00	0.00	0.25	0.00	0.00	0.00	0.00	0.00	0.00	0.00	0.00	-1.907227	-0.763184	2.913574	-33.810001	76.090004	-66.220001	4.00	0.00	0.00
1.79	1.25	1.25	1.50	1.50	2.50	3.00	8.00	5.00	13.50	10.75	13.00	10.50	10.75	8.50	3.75	5.25	-0.289062	-0.014648	0.942383	-5.530000	47.389999	-4.270000	1183.00	0.17	-0.04	0.00	0.50	0.00	0.00	0.00	0.00	0.00	0.00	0.00	0.00	0.00	0.00	0.00	0.00	0.00	0.00	1.360840	0.038574	0.041504	22.540001	132.720001	-39.970001	5.00	0.00	0.00
1.80	1.75	1.75	1.00	1.00	1.50	2.50	8.00	4.50	14.25	11.25	13.25	10.50	10.75	9.00	4.25	5.25	-0.332520	-0.003906	0.935059	-3.780000	61.250000	-3.640000	1185.00	0.17	-0.04	0.50	0.75	0.00	0.00	0.00	0.00	0.00	0.00	0.00	0.00	0.00	0.00	0.00	0.00	0.00	0.00	-0.033203	0.528809	1.008789	5.320000	126.419998	-30.240000	13.00	0.00	0.00
1.81	0.75	1.75	1.00	1.00	1.25	1.75	7.75	3.75	14.50	11.50	13.50	10.75	10.50	9.25	4.25	5.50	-0.350098	-0.044922	0.870605	-2.520000	79.730003	-3.430000	1159.00	0.19	-0.03	2.00	1.50	0.25	0.00	0.00	0.00	0.00	0.00	0.00	0.00	0.00	0.00	0.00	0.00	0.00	0.00	0.064453	0.056152	-0.136230	-4.130000	144.199997	-29.330000	41.00	0.00	0.00
1.82	0.50	0.50	0.75	0.50	1.00	1.50	7.75	3.25	15.25	11.75	13.75	10.75	10.25	9.50	4.75	5.25	-0.320801	0.003418	0.997070	-2.380000	107.169998	-3.150000	1141.00	0.20	-0.02	2.50	2.75	0.00	0.00	0.00	0.00	0.00	0.00	0.00	0.00	0.00	0.00	0.00	0.00	0.00	0.00	-0.166016	0.402344	0.540527	-35.490002	183.680008	-32.619999	56.00	-0.41	-0.03
1.83	0.50	0.50	0.50	0.50	0.75	1.50	7.75	2.50	15.75	12.00	14.00	10.75	10.00	9.75	4.75	5.75	-0.374023	-0.032227	0.954102	-4.690000	138.600006	-2.520000	1138.00	0.21	-0.02	4.25	3.75	0.00	0.25	0.00	0.00	0.00	0.00	0.00	0.00	0.00	0.00	0.00	0.00	0.00	0.00	-0.238770	0.649414	1.044434	-45.709999	197.050003	-24.360001	89.00	-0.41	-0.02
1.84	0.50	0.75	0.50	0.00	0.75	1.50	7.50	2.00	16.00	12.50	14.00	10.75	9.50	10.00	5.00	5.50	-0.416992	0.011230	0.978516	-9.310000	172.550003	-1.890000	1131.00	0.21	-0.01	5.25	5.00	0.00	0.50	0.00	0.00	0.00	0.00	0.00	0.00	0.00	0.00	0.00	0.00	0.00	0.00	-0.385742	0.393555	1.382324	-42.560001	187.600006	-10.080000	116.00	-0.40	-0.03
1.85	0.50	0.25	0.50	0.00	0.75	0.75	7.50	1.75	16.25	12.50	14.00	10.50	9.00	10.50	5.25	5.50	-0.417969	-0.013184	1.017578	-17.570000	207.690002	-1.470000	1116.00	0.22	-0.00	6.25	6.75	0.50	1.25	0.00	0.00	0.00	0.00	0.00	0.00	0.00	0.00	0.00	0.00	0.00	0.00	-0.468750	0.087402	1.376465	-53.689999	173.250000	-5.390000	160.00	-0.39	-0.04
1.86	0.50	0.25	0.25	0.00	0.75	0.50	7.50	1.25	16.50	12.75	13.75	10.00	8.50	10.75	5.50	5.50	-0.462402	-0.009766	0.957520	-29.400000	248.080002	-1.330000	1100.00	0.23	0.01	8.75	9.25	0.75	1.75	0.00	0.00	0.00	0.00	0.00	0.00	0.00	0.00	0.00	0.00	0.00	0.00	-0.536133	-0.106445	1.481445	-71.610001	166.949997	-10.710000	222.00	-0.39	-0.04
1.87	0.25	0.00	0.25	0.00	0.50	1.00	7.25	0.75	16.50	12.50	13.75	9.75	7.75	11.00	5.75	6.00	-0.490234	-0.003418	1.045898	-41.160000	277.690002	-2.310000	1080.00	0.23	0.01	12.50	13.00	1.00	3.25	0.00	0.00	0.00	0.00	0.00	0.00	0.00	0.00	0.00	0.00	0.00	0.00	-0.743164	-0.321777	2.168945	-12.040000	178.639999	-11.410000	324.00	-0.39	-0.04
1.88	0.00	0.25	0.25	0.00	0.50	0.00	7.25	0.25	16.25	12.50	13.50	9.25	7.25	11.25	5.75	5.75	-0.581543	-0.022949	1.022461	-50.610001	295.750000	-4.550000	1044.00	0.24	0.02	15.75	15.75	1.50	4.25	0.00	0.00	0.00	0.00	0.00	0.00	0.00	0.00	0.00	0.00	0.00	0.00	-0.533691	-0.077148	2.299316	6.580000	140.979996	-19.740000	406.00	-0.39	-0.04
1.89	0.00	0.00	0.25	0.00	0.75	0.00	7.00	0.00	16.00	12.50	13.00	8.75	6.50	11.00	6.25	6.00	-0.598633	-0.016602	0.989258	-61.950001	309.399994	-7.420000	1019.00	0.24	0.03	17.75	16.50	1.75	5.00	0.25	0.00	0.00	0.00	0.00	0.00	0.00	0.00	0.00	0.00	0.00	0.00	-0.262695	0.284180	1.314453	9.800000	97.370003	-21.700001	451.00	-0.38	-0.04
1.90	0.00	0.50	0.00	0.00	0.50	0.00	7.00	0.00	15.50	12.25	12.50	8.50	5.50	11.25	6.50	6.50	-0.730469	0.004883	1.062012	-72.730003	323.610016	-17.430000	998.00	0.25	0.03	18.25	17.50	2.50	5.50	0.25	0.00	0.00	0.00	0.00	0.00	0.00	0.00	0.00	0.00	0.00	0.00	-0.121094	0.262207	0.535156	7.910000	89.320000	-15.400000	482.00	-0.38	-0.04
1.91	0.00	0.00	0.00	0.00	0.50	0.00	6.75	0.00	14.50	11.50	12.00	8.00	5.25	11.00	6.75	6.50	-0.865234	-0.027832	1.181641	-65.379997	330.119995	-22.049999	953.00	0.25	0.03	20.00	18.50	3.00	6.50	0.50	0.75	0.00	0.00	0.00	0.00	0.00	0.00	0.00	0.00	0.00	0.00	-0.115723	0.160645	0.476562	7.770000	112.279999	-8.820000	542.00	-0.37	-0.04
1.92	0.00	0.00	0.00	0.00	0.50	0.00	6.50	0.00	13.00	10.75	11.00	7.50	5.00	10.75	7.00	7.00	-1.124512	0.040527	1.494629	-49.560001	340.899994	-24.710001	902.00	0.25	0.02	21.75	20.00	3.50	8.00	0.75	0.75	0.00	0.00	0.00	0.00	0.00	0.00	0.00	0.00	0.00	0.00	-0.393066	0.159180	1.803223	-21.840000	95.480003	-6.650000	604.00	-0.37	-0.04
1.93	0.00	0.00	0.00	0.00	0.25	0.00	5.75	0.00	11.00	9.75	10.00	6.75	5.25	10.75	7.00	7.00	-1.510254	-0.049316	2.069336	-29.889999	358.260010	-26.110001	829.00	0.26	0.02	23.50	20.75	4.50	8.50	1.25	0.75	0.00	0.25	0.00	0.00	0.00	0.25	0.00	0.25	0.00	0.00	-0.441895	0.045898	1.577148	-19.950001	50.330002	-5.810000	665.00	-0.36	-0.04
1.94	0.00	0.00	0.00	0.00	0.25	0.00	5.25	0.00	9.50	8.50	9.00	5.75	4.50	10.75	7.00	6.50	-2.246094	0.051758	2.737793	-3.780000	397.880005	-15.540000	752.00	0.26	0.02	24.50	21.50	5.00	9.25	1.25	1.25	0.00	0.00	0.00	0.00	0.00	0.50	0.00	0.50	0.00	0.00	-0.212891	0.162598	0.796875	-35.139999	42.910000	-7.770000	706.00	-0.36	-0.04
1.95	0.00	0.00	0.00	0.00	0.25	0.00	4.50	0.00	8.25	7.75	8.25	5.00	4.00	9.75	6.75	6.25	-1.934570	0.216797	2.518066	27.719999	431.970001	-2.660000	678.00	0.26	0.01	25.75	22.75	5.50	10.00	1.75	1.50	0.00	0.25	0.00	0.25	0.25	0.50	0.00	0.50	0.00	0.00	-0.268066	0.120605	1.115234	-39.619999	45.639999	-6.300000	767.00	-0.35	-0.04
1.96	0.00	0.00	0.00	0.00	0.25	0.00	3.00	0.00	7.25	6.75	7.50	4.25	3.00	8.75	6.25	5.75	-1.774902	-0.066895	2.249512	58.520000	454.510010	-2.590000	583.00	0.27	0.01	27.50	23.75	5.75	10.50	2.00	1.75	0.00	0.25	0.50	0.25	0.50	0.50	0.00	0.75	0.00	0.00	-0.315918	0.076172	1.122559	-32.900002	35.209999	-5.390000	824.00	-0.34	-0.04
1.97	0.00	0.00	0.00	0.00	0.00	0.00	2.25	0.00	6.50	6.00	6.25	3.75	2.25	7.75	5.50	5.00	-2.104980	-0.245117	2.652344	40.250000	465.220001	-18.410000	499.00	0.28	0.01	28.50	24.75	6.75	11.25	2.25	2.50	0.00	0.50	0.50	0.50	0.75	0.75	0.25	1.00	0.00	0.00	-0.270020	0.110840	0.988770	-30.870001	26.389999	-4.900000	896.00	-0.33	-0.04
1.98	0.00	0.00	0.00	0.00	0.00	0.00	1.25	0.00	5.75	5.25	5.75	3.25	1.25	6.50	4.75	3.50	-2.255371	0.003418	2.699219	17.360001	458.429993	-26.180000	413.00	0.28	0.02	28.75	24.75	7.25	11.75	2.50	2.50	0.25	0.25	0.75	0.50	0.50	0.75	0.25	0.75	0.50	0.00	-0.269043	0.094727	1.015625	-30.799999	22.260000	-3.850000	918.00	-0.32	-0.04
1.99	0.00	0.00	0.00	0.00	0.00	0.00	1.00	0.00	5.00	5.00	5.00	2.50	0.00	5.25	3.25	2.00	-1.194824	0.419434	3.132324	9.800000	444.429993	-35.000000	329.00	0.28	0.04	29.50	25.25	7.25	12.00	2.75	2.75	0.25	0.50	0.75	0.75	0.75	0.50	0.25	0.75	0.50	0.00	-0.268066	0.090820	0.987305	-27.160000	14.070000	-2.730000	947.00	-0.32	-0.04
2.00	0.00	0.00	0.00	0.00	0.00	0.00	0.75	0.00	3.75	4.25	3.75	2.00	0.25	2.50	2.00	1.25	-0.565430	0.310059	3.230957	18.690001	384.790009	-45.430000	236.00	0.27	0.03	30.00	25.50	7.75	12.25	3.00	3.00	0.25	0.50	0.75	0.75	1.00	0.75	0.50	1.25	0.50	0.00	-0.259277	0.076660	0.973633	-24.360001	11.130000	-2.240000	983.00	-0.31	-0.04
2.01	0.50	0.00	0.25	0.00	0.00	0.00	0.50	0.00	2.25	3.50	3.25	1.75	0.00	1.50	1.00	0.50	0.193848	0.317871	2.806152	12.530000	322.700012	-62.090000	175.00	0.23	0.03	30.25	26.00	8.50	12.50	3.25	3.00	0.25	0.50	1.00	0.75	0.75	1.00	0.25	1.50	0.50	0.00	-0.260254	0.077637	0.972168	-21.280001	8.890000	-1.960000	1010.00	-0.31	-0.04
2.02	0.00	0.00	0.25	0.00	0.00	0.00	0.50	0.00	1.25	2.50	2.50	1.25	0.75	1.25	0.75	0.75	0.602051	0.211426	2.307129	1.540000	281.959991	-76.440002	132.00	0.24	-0.01	30.25	25.75	8.75	12.75	3.50	3.00	0.50	0.50	1.00	1.00	0.75	1.00	0.25	1.25	0.50	0.00	-0.260742	0.070801	0.965820	-18.340000	7.280000	-1.680000	1021.00	-0.30	-0.04
2.03	0.00	0.00	0.00	0.00	0.00	0.00	0.25	0.00	1.00	2.25	1.75	1.00	0.50	1.00	0.75	0.50	0.522949	0.169922	0.343262	-7.490000	277.899994	-86.169998	101.00	0.26	-0.01	30.00	25.00	9.00	12.75	4.25	3.00	0.50	0.50	1.25	1.00	1.00	1.00	0.50	1.00	0.50	0.00	-0.250977	0.068359	0.960938	-15.470000	6.020000	-1.330000	1029.00	-0.30	-0.04
2.04	0.00	0.00	0.00	0.00	0.00	0.00	0.25	0.00	0.75	1.50	1.75	0.50	0.00	0.25	0.00	0.50	-0.365723	1.382324	4.245117	-77.980003	280.839996	-89.459999	63.00	0.24	0.01	29.75	25.50	9.00	12.75	4.25	3.25	0.50	0.50	1.25	1.00	1.00	1.00	0.25	1.00	0.50	0.00	-0.249512	0.062500	0.946289	-12.810000	5.180000	-1.190000	1032.00	-0.30	-0.04
2.05	0.75	0.50	0.00	0.00	0.00	0.00	0.25	0.00	0.75	1.50	1.75	0.00	0.00	0.25	0.00	0.25	1.373047	0.966309	3.327148	-13.300000	-1.330000	-27.719999	69.00	0.11	0.04	29.50	25.00	9.00	12.75	4.25	3.50	0.50	0.50	1.25	0.75	0.75	1.00	0.75	1.25	0.50	0.00	-0.250488	0.067383	0.946289	-10.570000	4.550000	-0.770000	1028.00	-0.30	-0.04
2.06	0.50	0.00	0.00	0.00	0.00	0.00	0.25	0.00	0.75	1.50	1.50	0.25	0.00	0.00	0.00	0.50	1.132812	0.691406	2.493652	10.220000	-116.480003	-4.690000	61.00	0.17	0.03	28.75	24.50	9.00	12.50	4.25	3.50	0.50	0.50	1.00	1.00	1.00	1.25	0.25	1.00	0.75	0.00	-0.257812	0.061523	0.943848	-9.030000	4.200000	-0.630000	1013.00	-0.30	-0.04
2.07	0.00	0.00	0.00	0.00	0.00	0.00	0.25	0.00	0.25	1.50	1.25	0.50	0.00	0.00	0.00	0.25	1.027832	0.566895	1.842285	13.300000	-184.029999	10.080000	46.00	0.00	0.00	28.00	23.75	9.00	12.25	4.50	3.75	0.50	0.50	1.25	1.00	1.00	1.00	0.75	1.00	0.75	0.00	-0.250977	0.062988	0.940918	-7.980000	4.130000	-0.560000	1005.00	-0.29	-0.04
2.08	0.00	0.25	0.00	0.00	0.00	0.00	0.25	0.00	1.00	1.25	1.00	0.25	0.00	0.00	0.00	0.25	1.011719	0.463379	1.387695	12.880000	-209.860001	19.809999	51.00	0.20	0.05	27.00	23.25	8.75	12.25	4.50	3.50	0.50	0.50	1.25	0.75	1.25	1.50	0.75	1.25	0.50	0.00	-0.254395	0.063477	0.946777	-7.070000	4.060000	-0.490000	988.00	-0.29	-0.04
2.09	0.25	0.00	0.00	0.00	0.00	0.00	0.25	0.00	0.25	1.00	0.75	0.25	0.00	0.50	0.25	0.50	0.983398	0.419922	1.214844	11.480000	-219.589996	25.129999	44.00	0.00	0.00	26.25	22.25	8.75	12.00	4.50	4.00	0.50	0.75	1.25	1.00	1.25	1.25	0.50	1.25	0.75	0.00	-0.262207	0.062500	0.949219	-6.510000	4.270000	-0.490000	977.00	-0.28	-0.04
2.10	0.00	0.00	0.00	0.00	0.00	0.00	0.00	0.00	0.00	0.75	0.75	0.00	0.00	0.25	0.25	0.00	0.850098	0.397461	1.159180	13.860000	-225.680008	28.070000	22.00	0.00	0.00	25.25	21.75	8.50	11.50	4.75	4.00	0.75	0.50	1.50	1.25	1.25	1.25	1.00	1.50	0.50	0.00	-0.255371	0.061035	0.937500	-6.440000	3.990000	-0.280000	965.00	-0.27	-0.04
2.11	0.00	0.00	0.00	0.00	0.25	0.25	0.25	0.00	1.00	0.50	1.00	0.00	0.00	0.25	0.00	0.00	0.716309	0.365723	1.282715	21.070000	-238.279999	31.570000	44.00	0.00	0.00	24.75	21.00	8.50	11.50	5.00	4.00	0.75	0.75	1.25	1.00	1.50	1.25	1.25	1.25	0.50	0.00	-0.254395	0.062500	0.940918	-6.440000	4.200000	-0.700000	956.00	-0.27	-0.04
2.12	0.75	0.00	0.00	0.00	0.00	0.00	0.00	0.00	0.25	0.75	0.75	0.00	0.00	0.00	0.00	0.00	0.572754	0.295898	1.391602	27.370001	-261.380005	35.279999	29.00	0.00	0.00	23.75	20.00	8.50	11.25	5.00	4.25	0.75	0.75	1.75	1.25	1.25	1.50	1.25	1.25	0.75	0.00	-0.246582	0.059570	0.930664	-6.720000	4.200000	-0.980000	947.00	-0.26	-0.04
2.13	0.25	0.00	0.00	0.00	0.00	0.00	0.00	0.00	0.50	0.50	0.25	0.00	0.00	0.00	0.00	0.25	0.408691	0.232422	1.428223	29.540001	-291.480011	38.009998	20.00	0.00	0.00	22.75	19.50	8.25	11.00	5.00	4.25	0.75	0.75	1.75	1.50	1.50	1.25	1.25	1.50	1.00	0.00	-0.250488	0.059082	0.930176	-6.860000	3.990000	-1.120000	933.00	-0.25	-0.04
2.14	0.25	0.00	0.00	0.00	0.00	0.00	0.25	0.00	0.25	0.75	0.75	0.00	0.00	0.00	0.00	0.00	0.235840	0.187012	1.421875	28.910000	-321.160004	40.250000	28.00	0.00	0.00	22.00	18.50	8.25	10.50	5.00	4.25	0.75	0.75	1.75	1.50	1.50	1.50	1.25	1.50	0.75	0.00	-0.252930	0.060059	0.939453	-6.650000	3.920000	-1.190000	908.00	-0.25	-0.04
2.15	0.00	0.00	0.00	0.00	0.00	0.00	0.25	0.00	0.25	0.75	0.50	0.25	0.00	0.00	0.00	0.25	0.065430	0.145020	1.342285	25.969999	-345.730011	42.000000	26.00	0.00	0.00	20.50	17.50	8.00	10.25	5.25	4.00	0.75	0.75	1.75	1.50	1.50	1.50	1.25	1.50	0.75	0.00	-0.252930	0.056152	0.930176	-6.720000	3.710000	-1.400000	875.00	-0.24	-0.04
2.16	0.50	0.00	0.00	0.00	0.00	0.00	0.00	0.00	0.50	0.25	0.50	0.00	0.00	0.00	0.00	0.00	-0.080078	0.124023	1.272461	21.280001	-363.160004	42.770000	21.00	0.00	0.00	19.50	16.75	8.00	10.00	5.25	4.50	1.00	0.75	1.75	1.50	1.50	1.75	1.50	1.75	0.75	0.00	-0.246582	0.055176	0.928711	-6.510000	3.500000	-1.400000	871.00	-0.23	-0.04
2.17	0.00	0.00	0.00	0.00	0.00	0.00	0.00	0.00	0.00	0.50	0.00	0.00	0.00	0.25	0.00	0.00	-0.219727	0.120117	1.268066	15.890000	-373.519989	42.490002	8.00	0.00	0.00	19.25	15.50	8.00	9.75	5.75	4.50	1.00	0.75	2.00	1.50	1.75	1.75	2.00	1.75	0.75	0.00	-0.248047	0.052246	0.937012	-6.510000	3.360000	-1.610000	869.00	-0.22	-0.04
2.18	0.50	0.00	0.00	0.00	0.00	0.00	0.00	0.00	0.25	0.50	0.25	0.00	0.00	0.00	0.00	0.00	-0.346191	0.126465	1.352051	12.180000	-380.380005	41.930000	18.00	0.00	0.00	17.25	14.25	7.75	9.50	6.25	4.75	1.25	1.00	2.00	1.75	2.00	2.00	1.75	2.00	1.00	0.00	-0.259277	0.058594	0.930664	-6.510000	3.150000	-1.750000	857.00	-0.21	-0.04
2.19	0.25	0.00	0.00	0.00	0.00	0.00	0.25	0.00	0.25	0.25	0.00	0.00	0.00	0.00	0.00	0.00	-0.453125	0.155273	1.427734	10.290000	-386.049988	41.650002	13.00	0.00	0.00	15.75	13.25	7.50	9.25	6.00	5.00	1.25	1.00	2.25	2.00	2.25	2.25	2.50	2.50	1.25	0.25	-0.255371	0.052734	0.933105	-6.790000	2.520000	-1.680000	852.00	-0.18	-0.05
2.20	0.00	0.00	0.00	0.00	0.25	0.00	0.00	0.25	0.50	0.50	0.25	0.00	0.00	0.00	0.00	0.25	-0.677734	0.230957	1.551758	11.410000	-394.450012	42.910000	24.00	0.00	0.00	15.50	12.25	7.50	9.25	6.25	4.75	1.25	1.25	2.75	2.00	2.75	2.75	2.75	2.50	1.25	0.50	-0.255859	0.061523	0.936035	-7.070000	2.800000	-1.960000	866.00	-0.17	-0.05
2.21	0.00	0.00	0.00	0.00	0.00	0.00	0.00	0.00	0.00	0.25	0.00	0.00	0.00	0.00	0.00	0.00	-0.789551	0.286133	1.598633	14.840000	-393.610016	45.570000	3.00	0.00	0.00	13.75	11.00	7.50	8.75	6.25	5.00	1.75	1.25	3.00	2.00	3.00	3.00	3.25	2.50	1.75	0.50	-0.258301	0.051270	0.930176	-7.070000	2.730000	-2.100000	858.00	-0.14	-0.05
2.22	0.00	0.00	0.00	0.00	0.00	0.00	0.00	0.00	0.00	0.25	0.00	0.00	0.00	0.00	0.25	0.00	-0.900879	0.339844	1.601562	22.680000	-387.730011	50.470001	6.00	0.00	0.00	12.50	9.50	7.25	8.50	6.50	5.00	2.25	1.50	3.50	2.25	3.25	3.25	3.50	2.75	1.75	0.50	-0.256348	0.050781	0.938477	-7.770000	2.730000	-2.170000	859.00	-0.12	-0.05
2.23	0.25	0.00	0.00	0.00	0.00	0.00	0.00	0.00	0.25	0.50	0.25	0.00	0.00	0.00	0.00	0.00	-0.994141	0.358887	1.580078	34.509998	-375.619995	57.400002	15.00	0.00	0.00	11.00	9.25	7.25	8.25	6.50	5.00	2.75	1.75	4.00	2.25	3.75	4.00	4.00	3.25	1.75	1.00	-0.256836	0.047852	0.937012	-8.750000	3.150000	-3.010000	883.00	-0.10	-0.05
2.24	0.50	0.00	0.00	0.00	0.00	0.00	0.00	0.00	0.00	0.25	0.00	0.00	0.00	0.00	0.00	0.00	-1.071289	0.360352	1.602539	48.650002	-356.230011	64.400002	8.00	0.00	0.00	10.25	8.00	7.00	8.25	7.00	5.00	3.25	1.75	4.50	2.75	4.50	4.25	4.50	3.50	2.00	0.75	-0.253906	0.047852	0.938965	-8.540000	3.150000	-3.080000	906.00	-0.08	-0.05
2.25	0.00	0.00	0.00	0.00	0.00	0.00	0.00	0.00	0.00	0.00	0.00	0.00	0.00	0.00	0.00	0.00	-1.140137	0.377930	1.853027	64.540001	-330.959991	69.650002	0.00	0.00	0.00	9.25	7.25	7.00	7.75	7.25	5.25	3.75	2.00	5.50	3.00	5.25	4.75	5.50	4.00	2.25	1.00	-0.258301	0.049805	0.941406	-8.190000	3.500000	-3.220000	949.00	-0.05	-0.05
2.26	0.25	0.00	0.00	0.00	0.00	0.00	0.00	0.25	0.00	0.25	0.00	0.00	0.00	0.00	0.00	0.00	-1.287598	0.417480	2.477051	82.739998	-309.540009	74.059998	10.00	0.00	0.00	8.75	6.75	6.75	7.50	7.25	5.25	4.25	2.00	6.00	3.25	6.50	5.50	5.00	4.25	2.50	1.25	-0.250000	0.055176	0.939453	-7.770000	3.850000	-3.290000	975.00	-0.03	-0.04
2.27	0.25	0.00	0.00	0.00	0.00	0.00	0.00	0.00	0.00	0.00	0.00	0.00	0.00	0.00	0.00	0.00	-1.473145	0.427246	2.979004	95.970001	-305.269989	81.129997	3.00	0.00	0.00	7.75	6.00	6.75	7.00	7.25	5.25	4.75	2.25	6.75	3.50	7.50	5.75	5.50	4.50	3.00	1.50	-0.263184	0.050293	0.931641	-7.070000	4.480000	-3.290000	1005.00	-0.01	-0.04
2.28	0.25	0.00	0.25	0.00	0.00	0.00	0.00	0.00	0.25	0.50	0.00	0.00	0.00	0.00	0.00	0.00	-1.733398	0.401367	3.224121	95.340004	-319.410004	90.930000	15.00	0.00	0.00	7.25	5.50	6.50	6.50	7.50	5.25	5.00	2.25	7.50	4.25	8.00	7.25	6.00	5.00	3.00	1.75	-0.242676	0.053711	0.935547	-6.720000	5.320000	-3.290000	1046.00	0.01	-0.04
2.29	0.00	0.00	0.00	0.00	0.00	0.00	0.00	0.00	0.00	0.25	0.00	0.00	0.00	0.00	0.00	0.00	-2.078613	0.373535	3.080566	86.239998	-339.220001	101.290001	3.00	0.00	0.00	6.75	4.75	6.25	6.00	7.50	5.25	5.50	2.25	7.75	4.50	8.50	7.75	6.25	5.25	3.50	1.75	-0.212891	0.080078	0.940918	-6.580000	6.510000	-3.290000	1060.00	0.02	-0.04
2.30	0.00	0.00	0.00	0.00	0.00	0.00	0.00	0.00	0.00	0.25	0.00	0.00	0.00	0.00	0.00	0.00	-2.370605	0.330566	2.654297	76.790001	-349.230011	109.620003	3.00	0.00	0.00	6.00	4.00	5.75	5.25	7.25	5.25	5.75	2.50	8.25	5.50	9.00	8.00	6.50	5.75	3.75	2.00	-0.244141	0.055664	0.928223	-6.580000	7.910000	-3.570000	1073.00	0.04	-0.04
2.31	0.25	0.00	0.00	0.00	0.00	0.00	0.00	0.00	0.25	0.25	0.00	0.00	0.00	0.00	0.00	0.25	-2.602051	0.264648	2.184570	68.949997	-343.489990	114.239998	11.00	0.00	0.00	5.50	3.25	5.50	4.75	7.00	5.00	6.25	2.75	8.75	6.50	9.50	8.50	7.00	6.00	4.00	2.50	-0.117676	-0.075684	0.957520	-6.020000	8.540000	-4.130000	1100.00	0.06	-0.04
2.32	0.25	0.00	0.00	0.00	0.00	0.75	0.00	0.00	0.00	0.25	0.25	0.00	0.00	0.00	0.00	0.00	-2.764648	0.227539	1.871094	61.670002	-326.130005	112.910004	17.00	0.00	0.00	5.25	2.50	5.25	3.50	7.00	4.75	6.50	2.75	9.50	7.50	10.00	8.75	7.25	6.50	4.25	2.75	-0.280273	0.071777	0.891113	-5.390000	10.710000	-4.410000	1114.00	0.08	-0.03
2.33	0.00	0.00	0.00	0.00	0.00	0.00	0.00	0.00	0.00	0.25	0.00	0.00	0.00	0.00	0.00	0.00	-3.075684	0.273438	1.788086	53.060001	-311.290009	105.209999	3.00	0.00	0.00	5.00	2.00	4.75	3.00	6.50	4.25	6.75	3.00	9.75	7.75	10.50	9.25	7.75	6.75	4.50	3.25	-0.431152	0.107910	1.014160	-4.620000	12.460000	-4.830000	1121.00	0.09	-0.03
2.34	0.00	0.00	0.00	0.00	0.00	0.00	0.00	0.00	0.00	0.00	0.00	0.00	0.00	0.00	0.00	0.00	-3.248535	0.313965	1.558594	51.380001	-303.170013	96.250000	0.00	0.00	0.00	3.50	1.75	3.75	2.25	5.75	4.00	7.25	2.75	10.50	8.50	11.25	9.75	8.00	7.25	5.00	3.75	-0.321777	0.036133	0.921387	-3.640000	16.170000	-4.130000	1122.00	0.12	-0.03
2.35	0.00	0.00	0.00	0.00	0.00	0.00	0.00	0.00	0.00	0.00	0.00	0.00	0.00	0.00	0.00	0.00	-3.752441	0.188965	0.455078	60.619999	-286.510010	70.559998	0.00	0.00	0.00	3.00	1.50	3.00	2.00	5.00	3.50	7.50	3.00	11.25	9.00	11.75	10.00	8.75	7.50	5.25	4.25	-0.296875	0.098145	0.945801	-0.980000	25.270000	-5.110000	1135.00	0.14	-0.03
2.36	0.00	0.00	0.00	0.00	0.00	0.00	0.00	0.00	0.25	0.25	0.00	0.00	0.00	0.00	0.00	0.00	-4.046875	0.012695	-0.177246	82.250000	-260.470001	56.840000	6.00	0.00	0.00	1.75	1.00	2.25	1.50	3.75	2.25	7.75	2.75	12.00	9.50	12.50	10.50	9.25	7.75	5.50	4.75	-0.266602	-0.020020	0.916504	0.420000	30.940001	-5.810000	1115.00	0.16	-0.03
2.37	0.00	0.00	0.00	0.00	0.00	0.00	0.00	0.00	0.00	0.25	0.00	0.00	0.00	0.00	0.25	0.00	-4.302734	-0.276855	-0.664062	115.290001	-218.330002	48.160000	6.00	0.00	0.00	1.25	0.75	1.75	1.00	2.75	2.00	8.00	2.50	12.50	10.00	13.00	11.00	9.50	8.25	6.00	5.00	-0.293457	0.039062	0.949707	1.400000	38.430000	-6.860000	1118.00	0.18	-0.03
2.38	0.25	0.00	0.00	0.00	0.00	0.25	0.00	0.00	0.25	0.50	0.00	0.00	0.00	0.00	0.00	0.00	-4.408203	-0.620117	-1.032715	136.289993	-164.080002	41.790001	15.00	0.00	0.00	1.50	0.50	1.50	0.75	2.25	2.25	8.00	2.75	13.00	11.00	13.75	11.25	9.75	8.25	6.50	5.25	-0.272949	0.038574	0.943848	1.820000	47.320000	-6.930000	1153.00	0.19	-0.03
2.39	0.25	0.00	0.00	0.00	0.00	0.00	0.00	0.00	0.00	0.00	0.00	0.00	0.00	0.00	0.00	0.00	-4.273926	-0.902344	-1.257324	124.809998	-102.129997	30.799999	3.00	0.00	0.00	1.50	1.00	2.00	0.25	1.75	1.50	8.25	2.00	14.00	11.00	14.00	11.75	10.25	8.75	6.75	5.50	-0.274902	0.054199	0.994629	2.730000	61.389999	-4.620000	1172.00	0.19	-0.02
2.40	0.00	0.00	0.00	0.00	0.00	0.00	0.00	0.00	0.25	0.25	0.00	0.00	0.00	0.00	0.00	0.00	-3.997070	-0.963379	-1.169434	84.699997	-38.290001	14.630000	6.00	0.00	0.00	2.00	1.00	1.75	1.50	1.50	1.75	8.25	2.50	16.25	12.25	15.50	12.75	10.50	9.75	8.00	7.00	-0.292969	0.036621	0.974609	3.430000	78.400002	-5.390000	1307.00	0.19	-0.02
2.41	0.00	0.00	0.00	0.00	0.00	0.00	0.00	0.00	0.00	0.00	0.00	0.00	0.00	0.25	0.00	0.00	-3.673340	-0.789551	-0.787598	34.020000	22.469999	-1.400000	2.00	0.00	0.00	1.75	1.25	2.50	1.75	1.75	2.00	8.50	2.50	16.75	12.75	16.00	13.00	10.75	10.25	8.25	7.25	-0.307617	0.045410	0.938965	4.970000	96.879997	-7.140000	1362.00	0.19	-0.02
2.42	0.00	0.00	0.00	0.00	0.00	0.00	0.00	0.00	0.25	0.00	0.00	0.00	0.00	0.00	0.00	0.00	-3.318359	-0.492188	-0.227051	-12.950000	71.959999	-11.690000	4.00	0.00	0.00	1.50	1.00	2.00	1.25	1.50	1.50	8.25	2.25	17.25	12.50	15.75	13.00	10.50	10.25	8.50	7.25	-0.360352	0.037598	1.041016	1.050000	124.529999	-9.240000	1329.00	0.20	-0.02
2.43	0.75	0.25	0.00	0.00	0.00	0.00	0.00	0.00	0.00	0.00	0.25	0.00	0.00	0.00	0.00	0.00	2.323242	4.487793	-0.069336	-42.420002	104.720001	-21.139999	14.00	0.00	0.00	0.00	0.00	0.00	0.25	0.50	0.50	8.25	1.25	16.50	13.25	16.00	12.50	9.25	9.50	8.25	7.25	-0.330078	0.070312	1.118652	-5.320000	161.490005	-12.040000	1199.00	0.23	-0.01
2.44	1.75	2.25	0.00	0.75	0.25	0.00	0.00	0.00	0.00	0.00	0.00	0.00	0.00	0.00	0.00	0.00	1.480957	0.296875	1.562012	-87.500000	208.740005	25.760000	54.00	-0.37	-0.06	0.75	0.00	1.00	1.00	1.00	1.50	8.25	1.75	18.00	13.50	15.50	12.75	9.50	11.00	8.50	7.25	-0.417969	0.027344	0.918945	-11.200000	200.130005	-15.400000	1295.00	0.22	-0.01
2.45	2.75	4.50	0.50	0.50	0.00	0.00	0.00	0.00	0.00	0.00	0.00	0.00	0.00	0.00	0.00	0.00	-0.599609	0.618164	1.533691	-164.430008	219.240005	29.120001	89.00	-0.39	-0.06	1.25	0.50	1.25	1.25	1.00	1.50	8.25	1.50	18.00	13.75	16.50	13.00	9.25	11.25	9.25	7.50	-0.438477	0.056152	1.007812	-17.500000	233.869995	-18.480000	1335.00	0.21	-0.01
2.46	5.25	6.25	0.25	1.25	0.00	0.00	0.00	0.00	0.00	0.00	0.00	0.00	0.00	0.00	0.00	0.00	-0.060059	-0.483887	-0.092773	-162.539993	217.350006	31.990000	140.00	-0.39	-0.05	1.00	0.25	1.25	1.00	1.00	0.25	8.00	0.75	16.25	13.25	15.25	12.75	8.00	11.00	9.25	7.50	-0.461426	0.053711	1.040527	-22.469999	261.380005	-19.950001	1233.00	0.22	-0.00
2.47	7.75	8.50	0.25	1.75	0.00	0.00	0.00	0.00	0.00	0.00	0.00	0.00	0.00	0.00	0.00	0.00	-0.542480	-0.177734	0.306641	-145.389999	231.699997	30.870001	197.00	-0.39	-0.05	1.00	0.75	1.00	0.00	1.00	1.25	8.00	1.00	16.25	12.75	15.00	11.50	8.00	11.00	9.25	7.75	-0.573730	0.022949	0.986328	-41.369999	317.170013	-26.740000	1218.00	0.22	-0.00
2.48	9.75	10.25	0.00	2.50	0.00	0.00	0.00	0.00	0.00	0.00	0.00	0.00	0.00	0.00	0.00	0.00	-0.695312	-0.542969	1.029785	-103.599998	263.059998	36.889999	244.00	-0.39	-0.05	0.75	0.50	0.75	0.50	1.00	1.25	7.75	1.50	17.00	14.00	16.25	12.25	8.25	10.75	9.75	7.50	-0.674316	0.071289	0.972656	-43.610001	338.309998	-30.030001	1272.00	0.22	-0.01
2.49	14.00	14.00	0.25	3.75	0.00	0.00	0.00	0.00	0.00	0.00	0.00	0.00	0.00	0.00	0.00	0.00	-0.886719	-1.085938	1.895508	-73.779999	275.730011	22.120001	347.00	-0.39	-0.05	1.25	0.50	1.25	1.00	0.50	0.00	7.25	0.50	15.25	12.75	15.75	12.00	6.75	9.75	9.50	7.75	-0.832031	0.011230	0.971191	-26.880001	354.410004	-31.850000	1171.00	0.22	-0.00
2.50	18.75	17.50	1.50	6.00	0.00	0.00	0.00	0.00	0.00	0.00	0.00	0.00	0.00	0.00	0.00	0.00	-0.982422	-0.430664	2.688965	16.450001	291.059998	-20.160000	479.00	-0.39	-0.04	0.50	0.50	1.25	1.00	0.75	0.75	6.75	0.75	14.00	12.00	14.00	11.25	7.00	10.25	9.50	7.75	-0.983398	0.129395	1.337891	6.860000	371.350006	-33.110001	1122.00	0.23	-0.01
2.51	22.50	19.00	2.25	8.25	0.00	0.00	0.00	0.00	0.00	0.00	0.00	0.00	0.00	0.00	0.00	0.00	-0.682617	0.401367	2.485352	22.469999	238.350006	-29.960001	572.00	-0.38	-0.04	0.75	0.00	0.00	1.00	0.75	1.00	5.75	1.00	10.00	10.25	12.75	10.75	7.50	10.50	9.50	8.00	-1.329590	0.223633	1.853516	51.240002	398.929993	-31.080000	1007.00	0.23	-0.03
2.52	23.25	19.25	3.50	9.00	0.25	0.50	0.00	0.00	0.00	0.00	0.00	0.00	0.00	0.00	0.00	0.00	-0.406250	0.471191	1.502441	8.400000	183.750000	-16.030001	616.00	-0.37	-0.04	0.50	0.50	1.50	1.00	0.75	0.75	5.25	1.00	9.75	8.75	10.75	9.50	7.00	10.50	9.50	7.75	-2.147461	0.030762	3.041016	81.059998	441.980011	-23.170000	952.00	0.22	-0.03
2.53	23.25	19.50	4.75	9.25	0.50	0.75	0.00	0.00	0.00	0.00	0.00	0.00	0.00	0.00	0.00	0.00	-0.265137	-0.019531	1.102051	3.500000	161.279999	-4.830000	643.00	-0.37	-0.04	0.25	0.50	0.00	0.00	0.25	1.00	4.25	0.25	7.75	7.25	9.50	8.50	6.75	10.00	9.00	6.75	-2.564941	-0.024902	3.504395	82.529999	499.380005	-8.960000	797.00	0.25	-0.04
2.54	18.00	15.25	5.00	10.25	1.00	2.00	0.00	0.00	0.00	0.00	0.00	0.00	0.00	0.00	0.00	0.00	-0.284180	0.390137	0.989258	-43.750000	87.570000	-1.050000	577.00	-0.35	-0.05	0.00	0.00	0.00	0.00	0.25	0.00	2.75	0.00	5.75	4.50	7.50	6.50	4.25	7.75	7.00	4.75	-2.044434	-0.045898	3.039551	80.639999	539.979980	-6.370000	563.00	0.27	-0.03
2.55	24.50	19.50	6.00	10.50	1.25	3.50	0.00	0.00	0.00	0.00	0.25	0.25	0.00	0.00	0.00	0.00	-0.315918	0.008301	0.722656	-58.520000	57.330002	-2.520000	735.00	-0.35	-0.05	0.00	0.00	0.00	0.00	0.00	0.00	1.75	0.00	5.25	4.00	6.00	5.50	3.00	7.00	6.50	4.00	-1.899414	0.389160	2.379883	68.110001	566.720032	-16.030001	473.00	0.28	-0.02
2.56	24.00	19.25	6.75	10.50	1.00	1.50	0.00	0.00	0.00	0.00	0.00	0.00	0.00	0.00	0.00	0.00	-0.238281	0.105957	0.983398	-69.790001	70.000000	-4.900000	704.00	-0.36	-0.04	0.00	0.00	0.00	0.00	0.00	0.00	1.00	0.00	4.25	3.75	5.00	5.00	2.50	6.00	5.50	2.00	-2.226562	0.530762	3.458008	89.669998	571.479980	-10.850000	389.00	0.28	-0.03
2.57	21.75	17.75	6.50	10.25	1.50	3.50	0.00	0.00	0.00	0.25	0.75	0.50	0.00	0.00	0.00	0.00	-0.347168	0.075195	1.291992	-71.610001	64.470001	-4.830000	704.00	-0.33	-0.05	0.00	0.00	0.00	0.00	0.00	0.00	0.25	0.00	3.25	3.25	4.25	3.75	1.25	5.00	4.75	1.75	-1.834961	0.644043	3.072266	108.220001	568.750000	-24.710001	303.00	0.29	-0.02
2.58	23.75	19.00	7.75	11.25	2.25	5.00	0.00	1.00	0.00	0.50	1.00	0.75	0.75	0.00	0.00	0.25	-0.286133	0.054688	1.121582	-57.610001	45.430000	-4.200000	827.00	-0.31	-0.06	0.00	0.00	0.00	0.00	0.00	0.00	0.00	0.00	1.75	3.00	3.25	2.75	0.25	2.50	2.25	0.25	-0.634277	0.473145	3.966309	128.869995	515.830017	-41.509998	181.00	0.28	-0.02
2.59	16.00	14.50	6.25	9.25	1.75	3.50	0.00	0.25	0.00	0.00	0.25	0.25	0.00	0.00	0.00	0.00	-0.260742	0.048828	0.971191	-49.490002	32.060001	-3.710000	587.00	-0.33	-0.06	0.00	0.00	0.00	0.00	0.00	0.00	0.00	0.00	0.75	2.50	2.50	1.75	0.00	1.00	0.75	0.00	1.451660	0.046875	3.604980	119.209999	351.049988	-97.650002	106.00	0.26	-0.03
2.60	15.75	14.25	6.75	9.50	2.25	4.25	0.00	0.50	0.00	0.00	0.50	0.25	0.00	0.00	0.00	0.00	-0.270508	0.040527	1.017578	-46.549999	23.660000	-3.640000	612.00	-0.32	-0.06	0.00	0.00	0.00	0.00	0.00	0.00	0.00	0.00	0.00	1.00	1.00	0.75	0.25	0.50	0.75	0.00	1.575195	-0.210449	2.652344	84.840004	259.559998	-118.300003	47.00	0.00	0.00
2.61	15.25	14.00	7.00	9.50	2.50	4.75	0.00	1.00	0.00	0.00	0.75	0.50	0.75	0.00	0.00	0.00	-0.293945	0.052246	1.011719	-42.070000	16.309999	-3.430000	637.00	-0.30	-0.08	0.00	0.25	1.25	0.00	0.00	0.00	0.00	0.00	0.00	1.00	0.75	1.25	2.00	1.50	1.75	1.25	0.148438	0.659180	2.387695	50.330002	244.649994	-123.550003	112.00	0.20	-0.12
2.62	15.00	13.25	7.00	9.25	3.00	5.25	0.00	1.50	0.00	0.25	1.00	0.75	1.25	0.00	0.00	0.00	-0.291504	0.030762	0.996094	-35.630001	10.220000	-2.870000	658.00	-0.28	-0.08	1.50	1.00	1.50	1.25	0.75	1.00	0.25	1.00	1.50	2.25	1.75	2.00	2.00	1.75	1.75	1.00	1.865234	0.514648	3.907715	-29.190001	71.889999	-110.320000	253.00	0.07	-0.08
2.63	14.50	13.25	7.50	9.25	3.25	5.50	0.25	1.75	0.00	0.75	1.25	1.25	2.25	0.00	0.00	0.00	-0.281250	0.033691	0.975586	-27.790001	6.580000	-2.310000	696.00	-0.26	-0.09	1.75	1.00	1.50	1.00	0.75	1.00	0.25	0.75	1.50	2.00	2.00	1.75	2.25	1.75	2.00	1.00	1.723145	0.878906	3.479492	-15.820000	-106.330002	-83.720001	251.00	0.08	-0.08
2.64	13.25	14.00	7.75	9.00	3.50	5.50	0.25	2.25	0.00	0.75	1.75	1.50	2.25	0.00	0.00	0.00	-0.280273	0.022949	0.960938	-20.650000	5.320000	-1.470000	710.00	-0.25	-0.10	1.50	1.00	1.50	1.00	0.50	1.00	0.25	0.75	1.50	2.00	2.00	1.50	1.75	1.50	1.75	0.75	0.769043	0.458984	2.648926	-4.550000	-227.710007	-67.340004	231.00	0.07	-0.07
2.65	12.75	11.75	7.00	9.00	3.50	5.75	0.25	2.75	0.00	0.75	1.75	2.00	3.25	0.00	0.00	0.50	-0.279297	0.023926	0.948730	-9.520000	5.950000	0.210000	701.00	-0.23	-0.11	0.00	0.00	0.00	0.00	0.00	0.00	0.00	0.00	0.00	0.75	0.50	0.00	0.00	0.00	0.00	0.00	0.666992	0.354492	1.741211	6.300000	-291.059998	-62.020000	14.00	0.00	0.00
2.66	11.50	10.75	6.50	8.50	3.75	5.75	0.50	3.50	0.00	1.00	2.25	2.25	4.50	0.00	0.00	0.50	-0.258301	0.020508	0.947754	-6.440000	6.720000	0.700000	708.00	-0.20	-0.12	0.00	0.00	0.00	0.00	0.00	0.00	0.00	0.00	0.00	0.50	0.25	0.00	0.00	0.00	0.00	0.00	0.632324	0.230957	1.355469	25.549999	-315.630005	-59.849998	9.00	0.00	0.00
2.67	10.25	10.00	6.00	8.25	3.75	5.75	0.50	4.00	0.00	1.00	2.50	3.25	5.50	0.00	0.00	0.75	-0.295410	0.022949	0.925781	-4.550000	7.980000	0.700000	711.00	-0.18	-0.14	0.00	0.00	0.00	0.00	0.00	0.00	0.00	0.00	0.00	0.25	0.00	0.25	0.00	0.00	0.00	0.00	0.526367	0.204102	1.142090	33.459999	-323.540009	-58.450001	6.00	0.00	0.00
2.68	9.50	9.25	5.50	8.00	3.75	5.75	0.50	4.50	0.00	1.25	3.00	3.75	5.75	0.00	0.00	1.00	-0.277832	0.024902	0.938965	-4.340000	9.170000	0.420000	712.00	-0.16	-0.15	0.00	0.00	0.00	0.00	0.00	0.00	0.00	0.00	0.00	0.25	0.00	0.00	0.00	0.00	0.00	0.00	0.376465	0.216797	1.015137	31.850000	-330.540009	-57.400002	3.00	0.00	0.00
2.69	8.25	8.50	5.25	7.75	3.50	5.75	0.75	5.00	0.00	1.00	3.50	4.50	6.25	0.00	0.00	0.75	-0.297852	0.014648	0.930664	-5.390000	9.800000	-0.140000	709.00	-0.14	-0.16	0.00	0.00	0.00	0.00	0.00	0.00	0.00	0.00	0.00	0.25	0.00	0.00	0.00	0.00	0.00	0.00	0.257812	0.252930	1.038086	34.299999	-339.149994	-52.430000	3.00	0.00	0.00
2.70	7.50	7.50	4.50	7.25	3.25	5.50	0.75	5.00	0.00	1.50	4.25	4.50	6.50	0.00	0.00	1.25	-0.297363	0.015137	0.937012	-6.370000	10.290000	-0.630000	689.00	-0.12	-0.16	0.00	0.00	0.00	0.00	0.00	0.00	0.00	0.00	0.00	0.00	0.00	0.00	0.00	0.00	0.00	0.00	0.145020	0.261719	1.090820	38.779999	-350.559998	-42.279999	0.00	0.00	0.00
2.71	6.25	6.75	4.00	6.25	3.25	5.50	1.00	5.25	0.25	1.50	5.25	5.75	7.25	0.00	0.25	1.25	-0.277344	0.026367	0.942871	-7.000000	10.780000	-0.910000	697.00	-0.08	-0.17	0.00	0.00	0.00	0.00	0.00	0.00	0.00	0.00	0.00	0.00	0.00	0.00	0.00	0.00	0.00	0.00	-0.006836	0.202148	1.174316	32.200001	-378.559998	-13.580000	0.00	0.00	0.00
2.72	5.75	5.75	3.50	5.75	3.00	5.25	1.00	5.25	0.50	2.00	6.25	6.25	7.75	0.25	0.25	1.50	-0.264648	0.019531	0.946777	-7.280000	11.060000	-1.050000	698.00	-0.06	-0.17	0.00	0.00	0.00	0.00	0.00	0.00	0.00	0.00	0.00	0.00	0.00	0.00	0.00	0.00	0.00	0.00	-0.068359	0.223145	1.172852	23.730000	-391.510010	1.680000	0.00	0.00	0.00
2.73	5.00	5.00	2.75	5.25	3.00	5.25	1.25	5.75	1.25	2.50	7.50	6.75	8.00	0.75	0.50	1.50	-0.275879	0.024414	0.944824	-7.210000	11.130000	-1.120000	725.00	-0.02	-0.17	0.00	0.00	0.00	0.00	0.00	0.00	0.00	0.00	0.00	0.00	0.00	0.00	0.00	0.00	0.00	0.00	-0.147461	0.242676	1.154297	17.430000	-399.630005	16.030001	0.00	0.00	0.00
2.74	5.50	5.50	4.50	6.25	4.25	7.50	1.50	7.00	2.75	3.50	8.25	8.25	9.75	2.00	1.75	2.75	-0.285156	0.018066	0.937988	-6.790000	11.830000	-1.190000	945.00	-0.01	-0.16	0.00	0.00	0.00	0.00	0.00	0.00	0.00	0.00	0.00	0.00	0.00	0.00	0.00	0.00	0.00	0.00	-0.217285	0.245605	1.123535	16.520000	-403.970001	29.540001	0.00	0.00	0.00
2.75	5.25	4.75	1.25	3.00	2.50	5.50	1.50	6.25	1.75	2.75	8.00	8.00	9.00	1.00	0.75	2.00	-0.280762	0.019043	0.938965	-6.300000	12.740000	-1.260000	738.00	0.01	-0.18	0.00	0.00	0.00	0.00	0.00	0.00	0.00	0.00	0.00	0.00	0.00	0.00	0.00	0.00	0.00	0.00	-0.292969	0.244141	1.144043	22.330000	-405.579987	41.650002	0.00	0.00	0.00
2.76	2.50	0.25	0.75	1.75	2.00	5.00	1.75	5.75	2.00	3.25	8.25	8.00	9.00	1.25	0.75	2.25	-0.328613	0.031250	0.962402	-5.740000	12.880000	-1.960000	640.00	0.08	-0.18	0.00	0.00	0.00	0.00	0.00	0.00	0.00	0.00	0.00	0.00	0.00	0.00	0.00	0.00	0.00	0.00	-0.378906	0.219727	1.234375	34.020000	-405.440002	51.450001	0.00	0.00	0.00
2.77	0.75	0.00	0.50	1.00	1.75	4.75	2.25	5.50	2.25	3.75	8.75	8.25	9.00	1.25	1.00	2.25	-0.300293	0.050293	0.953125	-5.180000	13.790000	-2.030000	624.00	0.11	-0.18	0.00	0.00	0.00	0.00	0.00	0.00	0.00	0.00	0.00	0.00	0.00	0.00	0.00	0.00	0.00	0.00	-0.429199	0.161133	1.369141	47.040001	-405.089996	58.869999	0.00	0.00	0.00
2.78	0.00	0.00	0.00	0.25	1.50	4.25	2.50	5.50	3.00	4.00	9.00	8.50	9.25	1.50	1.00	2.25	-0.320312	0.063965	0.936523	-4.690000	14.770000	-1.960000	620.00	0.14	-0.17	0.00	0.00	0.00	0.00	0.00	0.00	0.00	0.00	0.00	0.00	0.00	0.00	0.00	0.00	0.00	0.00	-0.530762	0.124023	1.510742	57.330002	-406.279999	64.120003	0.00	0.00	0.00
2.79	2.00	1.50	1.75	2.75	2.25	5.75	3.25	6.75	5.00	6.50	10.00	9.25	10.75	3.25	2.50	3.75	-0.310547	0.035645	0.935547	-4.760000	15.610000	-2.100000	902.00	0.10	-0.14	0.00	0.00	0.00	0.00	0.00	0.00	0.00	0.00	0.00	0.00	0.00	0.00	0.00	0.00	0.00	0.00	-0.666992	0.103516	1.615723	65.940002	-409.220001	68.459999	0.00	0.00	0.00
2.80	0.00	0.00	0.00	0.00	1.00	3.75	3.50	6.75	5.50	7.00	9.50	9.00	9.75	2.50	1.00	3.00	-0.269043	-0.037109	0.919434	-5.530000	16.030001	-3.150000	742.00	0.16	-0.14	0.00	0.00	0.00	0.00	0.00	0.00	0.00	0.00	0.00	0.00	0.00	0.00	0.00	0.00	0.00	0.00	-0.815918	0.076172	1.647461	78.540001	-409.220001	70.489998	0.00	0.00	0.00
2.81	0.00	0.00	0.00	0.00	0.75	2.00	3.50	5.25	4.75	7.50	10.75	9.75	10.25	2.50	1.50	2.75	-0.284668	-0.051758	0.916992	-6.370000	16.100000	-3.780000	720.00	0.18	-0.13	0.00	0.00	0.00	0.00	0.00	0.00	0.00	0.00	0.00	0.00	0.00	0.00	0.00	0.00	0.00	0.00	-0.897461	0.024902	1.600098	100.239998	-400.399994	68.040001	0.00	0.00	0.00
2.82	0.00	0.00	0.00	0.00	0.50	1.25	3.75	5.00	5.00	7.25	10.25	9.25	9.75	3.00	1.75	3.25	-0.305176	0.004395	0.922363	-7.070000	16.799999	-4.480000	703.00	0.18	-0.12	0.00	0.00	0.00	0.00	0.00	0.00	0.00	0.00	0.00	0.00	0.00	0.00	0.00	0.00	0.00	0.00	-1.027344	0.023926	1.677246	125.650002	-380.450012	59.080002	0.00	0.00	0.00
2.83	0.00	0.00	0.00	0.00	0.50	1.25	4.25	5.00	5.75	7.50	10.50	9.50	10.00	3.75	1.75	3.25	-0.312012	0.037109	0.937500	-7.490000	17.219999	-5.320000	740.00	0.19	-0.11	0.00	0.00	0.00	0.00	0.00	0.00	0.00	0.00	0.00	0.00	0.00	0.00	0.00	0.00	0.00	0.00	-1.291016	0.083496	2.330078	168.979996	-329.279999	40.599998	0.00	0.00	0.00
2.84	0.00	0.00	0.00	0.00	0.25	0.25	4.75	5.00	8.00	8.50	11.75	10.50	11.25	6.00	3.25	5.25	-0.323730	0.038574	0.931641	-7.490000	17.920000	-5.810000	864.00	0.21	-0.09	0.00	0.00	0.00	0.00	0.00	0.00	0.00	0.00	0.00	0.00	0.00	0.00	0.00	0.00	0.00	0.00	-1.533203	0.222168	3.030273	177.449997	-323.890015	43.259998	0.00	0.00	0.00
2.85	0.75	0.25	0.75	1.00	1.00	2.25	5.25	5.75	8.75	8.75	12.00	10.50	11.25	6.25	3.50	5.50	-0.308105	0.067871	0.930664	-7.910000	18.969999	-5.880000	973.00	0.18	-0.09	0.00	0.00	0.00	0.00	0.00	0.00	0.00	0.00	0.00	0.00	0.00	0.00	0.00	0.00	0.00	0.00	-1.823242	0.330078	3.185059	170.029999	-337.049988	59.990002	0.00	0.00	0.00
2.86	0.00	0.25	0.50	0.00	0.75	2.00	5.50	5.50	9.25	9.25	12.50	11.00	11.50	6.75	3.75	5.50	-0.230957	-0.172852	0.904297	-8.330000	20.580000	-6.160000	978.00	0.19	-0.09	0.00	0.00	0.00	0.00	0.00	0.00	0.00	0.00	0.00	0.00	0.00	0.00	0.00	0.00	0.00	0.00	-2.169922	0.300781	2.895508	149.800003	-350.420013	85.120003	0.00	0.00	0.00
2.87	0.00	0.00	0.00	0.00	0.50	1.25	5.75	5.25	9.75	9.75	12.75	11.25	11.25	6.50	2.75	5.00	-0.288086	0.019043	0.923828	-8.400000	21.629999	-5.600000	957.00	0.20	-0.08	0.00	0.00	0.00	0.00	0.00	0.00	0.00	0.00	0.00	0.00	0.00	0.00	0.00	0.00	0.00	0.00	-2.520508	0.212891	2.565918	118.160004	-347.549988	108.220001	0.00	0.00	0.00
2.88	0.50	0.25	0.25	0.25	0.50	1.50	6.00	5.25	10.50	10.00	13.25	11.50	11.75	7.25	4.25	6.00	-0.327148	0.000488	0.926270	-8.680000	23.100000	-4.970000	1035.00	0.20	-0.07	0.00	0.00	0.00	0.00	0.00	0.00	0.00	0.00	0.00	0.00	0.00	0.00	0.00	0.00	0.00	0.00	-2.831543	0.150391	2.395020	80.639999	-335.230011	126.349998	0.00	0.00	0.00
2.89	0.25	0.25	0.50	0.00	0.50	1.25	6.25	5.00	11.00	10.50	13.75	11.75	11.75	7.75	4.75	6.25	-0.326172	0.000000	0.926758	-7.980000	26.880001	-3.990000	1063.00	0.20	-0.07	0.00	0.00	0.00	0.00	0.00	0.00	0.00	0.00	0.00	0.00	0.00	0.00	0.00	0.00	0.00	0.00	-3.042480	0.095703	2.183105	47.389999	-324.029999	141.960007	0.00	0.00	0.00
2.90	0.00	0.00	0.25	0.25	0.50	1.25	6.50	5.00	12.00	11.00	14.00	12.00	11.75	8.00	4.75	6.25	-0.333984	-0.008789	0.932617	-6.160000	31.990000	-3.430000	1089.00	0.21	-0.06	0.00	0.00	0.00	0.00	0.00	0.00	0.00	0.00	0.00	0.00	0.00	0.00	0.00	0.00	0.00	0.00	-3.184082	-0.045410	1.789062	24.219999	-313.459991	155.960007	0.00	0.00	0.00
2.91	0.00	0.00	0.00	0.00	0.00	0.00	6.50	4.25	12.50	11.25	14.50	12.25	12.00	8.50	5.00	6.50	-0.339844	0.007324	0.932617	-4.200000	37.450001	-2.800000	1080.00	0.22	-0.06	0.00	0.00	0.00	0.00	0.00	0.00	0.00	0.00	0.00	0.00	0.00	0.00	0.00	0.00	0.00	0.00	-3.394531	-0.264160	1.317871	6.090000	-297.010010	162.610001	0.00	0.00	0.00
2.92	0.00	0.00	0.00	0.00	0.25	0.25	6.75	4.25	13.25	11.50	15.00	12.50	12.00	8.75	5.25	6.25	-0.339844	0.004395	0.929199	-2.730000	44.450001	-1.960000	1116.00	0.22	-0.05	0.00	0.00	0.00	0.00	0.00	0.00	0.00	0.00	0.00	0.00	0.00	0.00	0.00	0.00	0.00	0.00	-3.669922	-0.453613	0.744141	-13.440001	-274.260010	156.589996	0.00	0.00	0.00
2.93	0.00	0.00	0.00	0.00	0.00	0.75	6.75	4.00	13.75	12.00	15.00	12.50	12.00	9.00	5.50	6.75	-0.359863	0.003906	0.938477	-1.610000	53.480000	-1.400000	1136.00	0.22	-0.05	0.00	0.00	0.00	0.00	0.00	0.00	0.00	0.00	0.00	0.00	0.00	0.00	0.00	0.00	0.00	0.00	-3.872559	-0.470215	0.015137	-43.119999	-244.089996	135.309998	0.00	0.00	0.00
2.94	0.00	0.00	0.00	0.00	0.00	0.50	7.00	3.50	14.25	12.25	15.50	12.75	12.00	9.50	5.75	6.75	-0.370605	-0.005371	0.916504	-0.210000	77.629997	-0.700000	1155.00	0.23	-0.04	0.00	0.00	0.00	0.00	0.00	0.00	0.00	0.00	0.00	0.00	0.00	0.00	0.00	0.00	0.00	0.00	-4.220703	-0.326660	-0.612305	-67.550003	-205.240005	103.110001	0.00	0.00	0.00
2.95	0.00	0.00	0.00	0.25	0.25	0.00	7.00	3.25	14.75	12.50	15.50	12.75	12.00	9.75	5.75	6.75	-0.382812	-0.011719	0.951660	-0.770000	97.090004	-0.140000	1163.00	0.23	-0.04	0.00	0.00	0.00	0.00	0.00	0.00	0.00	0.00	0.00	0.00	0.00	0.00	0.00	0.00	0.00	0.00	-4.276367	-0.379395	-1.487793	-8.890000	-89.180000	37.029999	0.00	0.00	0.00
2.96	0.00	0.00	0.00	0.00	0.00	0.50	7.00	3.00	15.25	12.75	15.75	12.75	11.75	10.25	6.00	6.75	-0.407227	-0.008789	0.943359	-1.890000	122.500000	0.280000	1177.00	0.23	-0.03	0.00	0.00	0.00	0.00	0.00	0.00	0.00	0.00	0.00	0.00	0.00	0.00	0.00	0.00	0.00	0.00	-4.141113	-0.535156	-1.414551	43.470001	-21.629999	4.830000	0.00	0.00	0.00
2.97	0.00	0.00	0.00	0.00	0.00	0.00	6.75	2.50	15.75	13.00	16.00	12.75	11.50	10.50	6.25	7.00	-0.425293	0.014648	0.975098	-4.270000	155.050003	-0.070000	1175.00	0.24	-0.03	0.00	0.00	0.00	0.00	0.00	0.00	0.00	0.00	0.00	0.00	0.00	0.00	0.00	0.00	0.00	0.00	-3.907715	-0.665039	-1.013672	70.000000	42.279999	-18.059999	0.00	0.00	0.00
2.98	0.00	0.00	0.00	0.00	0.00	0.00	6.75	2.00	16.00	13.25	16.25	12.50	11.00	11.00	6.50	7.25	-0.432617	-0.007324	1.005371	-11.410000	199.360001	-1.260000	1178.00	0.24	-0.02	0.00	0.00	0.00	0.00	0.00	0.00	0.00	0.00	0.00	0.00	0.00	0.00	0.00	0.00	0.00	0.00	-3.104980	-1.561523	-3.053223	-12.040000	223.580002	33.040001	0.00	0.00	0.00
2.99	0.00	0.00	0.00	0.00	0.00	0.00	6.50	1.75	16.00	13.25	16.25	12.25	10.50	11.25	7.00	7.50	-0.499023	0.000000	0.962402	-17.290001	236.669998	-2.310000	1171.00	0.24	-0.02	1.00	0.75	0.00	0.00	0.00	0.00	0.00	0.00	0.00	0.00	0.00	0.00	0.00	0.00	0.00	0.00	0.135254	0.248047	0.842285	-20.580000	318.220001	26.040001	19.00	0.00	0.00
3.00	0.00	0.00	0.00	0.00	0.00	0.00	6.50	1.25	16.00	13.50	16.25	12.00	10.00	11.50	7.00	7.50	-0.524414	-0.003418	0.992676	-25.270000	269.920013	-3.290000	1161.00	0.24	-0.01	4.00	2.75	0.00	0.25	0.00	0.00	0.00	0.00	0.00	0.00	0.00	0.00	0.00	0.00	0.00	0.00	0.662109	0.163574	2.188965	-50.959999	304.149994	14.700000	76.00	-0.40	-0.00
3.01	0.00	0.00	0.00	0.00	0.00	0.00	6.25	1.25	15.75	13.25	16.25	12.00	9.25	11.50	7.25	7.75	-0.580078	0.010254	0.988770	-30.940001	297.429993	-4.130000	1147.00	0.25	-0.01	5.75	5.00	0.25	0.25	0.00	0.00	0.00	0.00	0.00	0.00	0.00	0.00	0.00	0.00	0.00	0.00	-0.545410	-0.233398	0.655273	-74.970001	249.759995	10.220000	121.00	-0.40	-0.01
3.02	0.00	0.00	0.00	0.00	0.00	0.00	6.00	1.00	15.50	13.25	16.00	11.50	8.75	11.50	7.25	8.00	-0.638184	0.004883	0.938477	-38.500000	323.679993	-6.370000	1124.00	0.25	-0.01	8.75	7.50	0.00	0.75	0.00	0.00	0.00	0.00	0.00	0.00	0.00	0.00	0.00	0.00	0.00	0.00	-0.958008	-0.206055	0.514160	-82.040001	268.519989	-0.000000	184.00	-0.40	-0.02
3.03	0.00	0.00	0.00	0.00	0.00	0.00	5.75	0.50	15.00	13.00	15.75	11.25	8.25	11.25	7.50	8.00	-0.718262	-0.028320	0.911621	-44.380001	344.959991	-10.220000	1091.00	0.25	-0.01	12.50	11.50	0.50	1.25	0.00	0.00	0.00	0.00	0.00	0.00	0.00	0.00	0.00	0.00	0.00	0.00	-1.089844	0.332031	1.897461	-85.190002	307.019989	-0.770000	278.00	-0.40	-0.02
3.04	0.00	0.00	0.00	0.00	0.00	0.25	5.25	0.25	13.75	12.50	15.25	10.75	8.00	11.00	7.50	8.25	-0.790039	0.091309	0.937012	-46.549999	364.839996	-17.290001	1044.00	0.25	-0.01	19.75	18.75	1.75	3.75	0.00	0.00	0.00	0.00	0.00	0.00	0.00	0.00	0.00	0.00	0.00	0.00	-2.035156	-0.362305	3.654297	-51.590000	317.869995	10.500000	479.00	-0.39	-0.03
3.05	0.00	0.00	0.00	0.00	0.00	0.00	5.00	0.25	12.25	11.50	14.50	10.00	7.50	10.75	7.50	8.25	-0.929199	-0.006836	1.253418	-32.340000	383.390015	-15.890000	979.00	0.26	-0.02	24.00	22.00	3.00	5.75	0.50	0.25	0.00	0.00	0.00	0.00	0.00	0.00	0.00	0.00	0.00	0.00	-1.320312	-0.966309	2.713867	31.010000	316.540009	2.590000	608.00	-0.38	-0.03
3.06	0.00	0.00	0.00	0.00	0.00	0.00	4.25	0.00	10.25	10.25	12.75	9.00	7.50	10.75	7.50	8.00	-1.356445	0.069336	1.722656	-1.470000	404.809998	-8.610000	887.00	0.26	-0.02	25.25	22.50	3.75	7.00	0.50	0.50	0.00	0.00	0.00	0.00	0.00	0.00	0.00	0.00	0.00	0.00	-0.736816	-0.304199	3.124512	48.439999	250.389999	-36.820000	654.00	-0.38	-0.03
3.07	0.00	0.00	0.00	0.00	0.00	0.00	3.50	0.00	8.50	8.75	10.75	8.25	6.75	10.50	7.50	7.75	-1.983398	0.103516	2.576172	29.680000	439.320007	-0.070000	790.00	0.27	-0.03	25.50	22.25	4.50	8.25	0.75	1.00	0.00	0.00	0.00	0.00	0.00	0.00	0.00	0.00	0.00	0.00	-0.236328	0.603027	0.937988	16.590000	96.320000	-15.400000	687.00	-0.37	-0.04
3.08	0.00	0.00	0.00	0.00	0.00	0.00	2.75	0.00	7.25	7.50	9.25	7.50	6.25	9.50	7.25	7.00	-2.887695	0.026367	3.635254	47.670002	497.070007	12.670000	698.00	0.27	-0.03	25.50	22.50	5.00	9.00	1.00	1.50	0.00	0.00	0.00	0.00	0.00	0.25	0.00	0.00	0.00	0.00	-0.306641	0.084961	1.078613	-26.180000	75.949997	-4.690000	717.00	-0.37	-0.04
3.09	0.00	0.00	0.00	0.00	0.00	0.00	2.00	0.00	6.50	6.50	8.50	6.25	5.25	8.50	6.25	6.50	-2.250000	0.479492	2.804199	103.879997	554.119995	22.889999	608.00	0.27	-0.03	26.75	22.25	5.50	9.75	1.50	2.25	0.00	0.25	0.00	0.00	0.50	0.50	0.00	0.50	0.00	0.00	-0.221680	0.047363	1.017090	-62.020000	87.639999	-9.590000	776.00	-0.35	-0.04
3.10	0.00	0.00	0.25	0.00	0.00	0.00	1.00	0.00	5.75	6.00	7.75	5.50	4.50	7.50	5.50	5.50	-2.455078	0.458008	2.692383	130.339996	555.869995	18.760000	530.00	0.27	-0.04	28.50	23.25	7.25	10.75	2.00	2.75	0.00	0.50	0.00	0.00	0.50	0.75	0.25	0.50	0.00	0.00	-0.478516	0.103027	1.717285	-72.029999	82.389999	-11.620000	860.00	-0.34	-0.05
3.11	0.00	0.00	0.00	0.00	0.00	0.00	0.75	0.00	5.00	5.50	7.50	5.00	2.75	6.00	5.25	4.00	-1.222656	0.058105	3.637695	144.479996	533.750000	7.140000	456.00	0.28	-0.03	29.00	23.75	8.75	11.00	2.50	2.75	0.00	0.50	0.25	0.50	0.75	0.75	0.50	1.00	0.00	0.00	-0.329102	0.121094	1.104492	-71.540001	54.389999	-10.780000	917.00	-0.32	-0.04
3.12	0.00	0.00	0.00	0.00	0.00	0.00	0.50	0.00	4.00	5.00	6.00	4.00	1.25	4.50	3.00	2.25	-0.399414	-0.027832	3.822266	139.229996	471.100006	-25.690001	338.00	0.27	-0.02	30.25	23.00	9.25	11.75	3.25	3.25	0.25	0.75	0.75	0.50	1.25	1.50	0.75	1.50	0.50	0.25	-0.261230	0.109375	1.038086	-72.029999	39.340000	-9.450000	998.00	-0.30	-0.04
3.13	0.00	0.00	0.00	0.00	0.00	0.00	0.50	0.00	2.50	4.50	5.25	3.25	0.50	2.00	1.50	1.75	0.478516	-0.021484	3.654785	121.870003	396.829987	-59.920002	244.00	0.26	-0.03	30.50	26.25	10.00	12.00	4.50	3.50	0.25	0.75	0.75	1.00	1.00	1.25	1.00	1.25	0.50	0.25	-0.263672	0.085449	1.030762	-63.910000	28.490000	-8.190000	1064.00	-0.30	-0.04
3.14	0.00	0.00	0.00	0.00	0.00	0.00	0.50	0.00	1.75	3.25	4.00	2.50	0.50	1.25	0.75	1.75	1.543945	-0.091797	3.294434	102.900002	311.360016	-87.150002	180.00	0.25	-0.04	31.25	24.50	11.25	12.50	5.75	4.25	0.50	1.00	1.00	1.00	1.25	1.50	1.50	1.75	0.75	0.25	-0.270020	0.083984	1.000977	-52.779999	18.690001	-7.070000	1130.00	-0.28	-0.04
3.15	0.00	0.00	0.00	0.00	0.00	0.00	0.25	0.00	0.50	2.75	2.75	1.50	0.00	0.75	0.75	0.75	1.181641	-0.321289	1.114258	112.489998	268.100006	-109.620003	111.00	0.25	-0.04	31.50	24.75	11.50	12.75	6.50	4.50	0.50	1.00	1.25	1.00	1.50	1.75	1.75	1.75	1.25	0.00	-0.267090	0.077148	0.995117	-42.980000	11.760000	-5.880000	1169.00	-0.27	-0.04
3.16	0.00	0.00	0.50	0.00	0.00	0.00	0.25	0.00	0.00	2.25	2.50	1.25	0.00	0.50	0.50	1.00	-0.494629	1.265137	5.210938	24.500000	253.610001	-129.289993	95.00	0.22	-0.06	31.25	24.50	12.25	12.50	6.75	4.75	0.75	1.00	1.75	1.25	1.75	1.75	2.25	2.00	1.00	0.25	-0.271484	0.069824	0.985352	-34.509998	7.350000	-4.340000	1198.00	-0.26	-0.04
3.17	0.00	0.00	0.00	0.00	0.00	0.00	0.25	0.00	0.50	2.00	1.75	1.50	0.50	0.00	0.25	0.25	1.904297	0.734375	3.820312	-4.970000	95.340004	-117.529999	80.00	0.23	-0.07	31.25	23.75	12.75	12.75	7.00	5.00	0.75	1.00	2.00	1.25	1.75	2.00	2.50	2.50	1.00	0.50	-0.266602	0.062012	0.974609	-27.440001	4.200000	-3.220000	1221.00	-0.25	-0.04
3.18	0.00	0.00	0.00	0.00	0.00	0.00	0.25	0.00	0.25	1.75	2.00	0.50	0.00	0.75	0.25	0.50	1.547363	0.967285	3.393555	35.349998	-72.239998	-79.379997	69.00	0.25	-0.01	29.50	23.25	12.75	12.50	7.50	5.00	1.00	1.00	2.25	1.50	2.25	2.00	2.50	2.50	1.25	0.50	-0.254395	0.039062	0.967285	-21.210001	3.290000	-2.590000	1218.00	-0.24	-0.04
3.19	0.50	0.00	0.00	0.00	0.00	0.00	0.25	0.00	0.75	1.50	1.25	0.75	0.25	0.00	0.00	0.25	0.927246	0.545410	2.772461	38.709999	-197.330002	-50.889999	64.00	0.17	-0.00	36.25	27.75	15.00	15.00	8.75	6.50	1.25	1.25	2.50	1.50	2.00	2.25	2.50	2.75	1.25	0.75	-0.243164	0.051758	0.950195	-10.570000	3.920000	-1.050000	1446.00	-0.25	-0.04
3.20	0.00	0.00	0.00	0.00	0.00	0.00	0.25	0.00	0.50	1.50	1.75	0.75	0.25	0.25	0.25	0.25	0.817871	0.500977	2.014648	29.750000	-271.880005	-30.309999	66.00	0.24	-0.03	30.50	26.00	14.50	14.75	8.75	6.50	1.25	1.75	3.50	1.75	2.75	3.25	4.75	4.00	2.75	1.50	-0.253418	0.054688	0.947266	-7.350000	4.200000	-0.630000	1454.00	-0.21	-0.05
3.21	0.00	0.00	0.00	0.00	0.00	0.00	0.25	0.00	0.25	1.25	1.50	0.75	0.00	0.00	0.00	0.25	0.750488	0.344238	1.519531	16.240000	-304.360016	-17.080000	49.00	0.00	0.00	33.00	24.75	14.75	14.25	9.00	7.00	1.50	2.25	4.50	2.50	3.25	3.75	5.00	4.25	2.25	0.25	-0.250000	0.042480	0.945312	-5.460000	4.900000	-0.350000	1514.00	-0.20	-0.04
3.22	0.00	1.00	0.00	0.00	0.00	0.00	0.25	0.00	0.25	1.00	1.00	0.50	0.25	0.00	0.00	0.50	0.666992	0.355469	1.152344	3.920000	-320.459991	-10.220000	52.00	0.10	-0.08	30.75	21.50	11.00	11.00	8.25	7.25	1.25	1.25	3.00	2.00	2.50	3.00	3.00	3.00	2.75	2.00	-0.252930	0.047852	0.943848	-4.620000	5.740000	-0.000000	1286.00	-0.21	-0.04
3.23	0.00	0.00	0.00	0.00	0.00	0.00	0.00	0.00	0.00	0.75	1.25	0.25	0.25	0.00	0.00	0.50	0.519043	0.357422	1.111816	-2.730000	-323.890015	-5.950000	31.00	0.00	0.00	28.75	21.25	13.50	13.25	9.00	7.00	2.00	2.25	3.50	2.50	3.50	4.25	5.25	4.25	3.00	1.75	-0.250000	0.047852	0.943359	-4.550000	6.580000	-0.070000	1426.00	-0.18	-0.05
3.24	0.25	0.00	0.00	0.00	0.00	0.00	0.25	0.00	0.50	0.75	0.50	0.00	0.00	0.00	0.00	0.25	0.153320	0.354980	1.230469	7.490000	-342.860016	4.830000	30.00	0.00	0.00	22.25	13.75	12.00	12.50	8.75	7.00	2.25	2.50	4.50	2.75	3.75	3.75	3.00	4.25	2.25	1.00	-0.255859	0.058105	0.943848	-5.180000	7.140000	-0.700000	1235.00	-0.15	-0.04
3.25	0.00	0.25	0.00	0.00	0.00	0.00	0.00	0.00	0.00	0.75	0.75	0.00	0.00	0.00	0.00	0.25	0.015137	0.299316	1.246094	16.660000	-359.029999	12.110000	21.00	0.00	0.00	24.50	17.25	12.00	11.50	8.75	6.75	2.50	2.25	4.75	2.75	3.75	4.25	3.25	3.25	1.50	0.75	-0.250000	0.063477	0.929688	-5.740000	7.350000	-1.050000	1273.00	-0.17	-0.04
3.26	0.00	0.00	0.00	0.00	0.00	0.00	0.00	0.00	0.25	0.50	0.00	0.25	0.00	0.00	0.00	0.00	-0.130371	0.248535	1.264648	18.620001	-375.549988	18.549999	12.00	0.00	0.00	19.50	13.50	10.75	9.75	8.00	6.50	2.50	1.50	4.75	3.00	4.00	4.25	4.25	4.00	2.50	1.50	-0.250488	0.047852	0.941406	-6.230000	7.140000	-1.400000	1156.00	-0.13	-0.04
3.27	0.25	0.00	0.00	0.00	0.00	0.00	0.00	0.00	0.00	0.75	0.25	0.00	0.00	0.25	0.00	0.25	-0.250488	0.210938	1.260742	13.790000	-390.110016	22.889999	18.00	0.00	0.00	14.50	11.00	10.00	9.75	8.50	6.00	2.50	1.75	5.50	3.00	4.00	3.50	3.25	3.00	1.75	2.00	-0.257324	0.048340	0.938477	-6.230000	7.000000	-1.540000	1047.00	-0.12	-0.04
3.28	0.25	0.00	0.25	0.00	0.00	0.00	0.00	0.00	0.25	0.75	0.50	0.00	0.00	0.00	0.00	0.25	-0.349121	0.207520	1.261719	7.070000	-400.610016	26.460001	25.00	0.00	0.00	14.25	8.75	8.75	7.75	8.00	6.00	3.00	2.25	5.75	3.25	5.25	5.00	5.25	4.75	3.00	2.25	-0.253906	0.043945	0.936035	-6.020000	7.000000	-1.890000	1082.00	-0.07	-0.04
3.29	0.00	0.00	0.00	0.00	0.00	0.00	0.00	0.00	0.25	0.25	0.50	0.00	0.00	0.00	0.00	0.00	-0.436035	0.199219	1.272461	0.280000	-405.720001	28.910000	12.00	0.00	0.00	13.00	7.75	7.75	7.50	7.50	5.50	3.00	1.75	5.75	2.75	4.50	3.75	3.50	3.50	2.25	1.25	-0.255859	0.041992	0.936035	-5.180000	7.070000	-1.820000	951.00	-0.08	-0.03
3.30	0.00	0.00	0.00	0.00	0.00	0.00	0.00	0.00	0.25	0.50	0.50	0.00	0.00	0.00	0.00	0.25	-0.513672	0.209961	1.301758	-3.710000	-407.820007	29.889999	16.00	0.00	0.00	11.75	8.00	8.50	7.50	6.75	5.25	3.00	1.25	5.00	2.50	4.75	4.00	3.50	3.00	2.00	1.25	-0.254883	0.040039	0.931641	-4.060000	7.560000	-1.680000	913.00	-0.09	-0.03
3.31	0.50	0.50	0.00	0.00	0.00	0.00	0.00	0.00	0.25	0.25	0.25	0.00	0.00	0.00	0.00	0.00	-0.605957	0.238281	1.337402	-2.450000	-407.540009	30.030001	20.00	0.00	0.00	10.75	6.25	7.25	7.25	7.75	5.75	3.25	1.75	6.25	3.50	6.75	6.75	5.25	4.50	3.00	1.25	-0.249512	0.036621	0.934570	-1.610000	8.470000	-1.470000	1022.00	-0.03	-0.04
3.32	0.00	0.00	0.00	0.00	0.00	0.00	0.00	0.00	0.00	0.50	1.00	0.00	0.00	0.00	0.00	0.00	-0.700684	0.287109	1.405273	4.900000	-405.160004	30.170000	17.00	0.00	0.00	8.50	5.75	6.25	5.25	7.00	5.25	3.25	1.50	6.25	3.25	6.75	6.25	4.50	3.50	2.25	1.50	-0.255371	0.043945	0.937500	-0.770000	9.450000	-1.470000	904.00	-0.02	-0.04
3.33	0.00	0.00	0.00	0.00	0.00	0.00	0.00	0.00	0.00	0.50	0.50	0.00	0.00	0.00	0.00	0.00	-0.781738	0.304688	1.510254	17.570000	-401.589996	31.219999	11.00	0.00	0.00	7.25	5.00	6.50	5.50	6.75	5.00	3.25	1.50	6.25	3.00	7.50	6.50	4.75	4.00	2.50	1.75	-0.255371	0.049805	0.933594	-0.070000	10.080000	-1.400000	902.00	-0.01	-0.04
3.34	0.25	0.00	0.00	0.00	0.00	0.00	0.00	0.00	0.00	0.25	0.25	0.00	0.00	0.00	0.00	0.25	-0.871582	0.330078	1.666504	33.950001	-398.019989	33.250000	10.00	0.00	0.00	6.50	3.75	5.75	4.50	6.00	4.75	3.50	1.25	6.00	3.25	7.75	7.25	5.25	4.00	2.75	1.75	-0.259277	0.044434	0.924316	0.420000	10.640000	-1.400000	866.00	0.02	-0.05
3.35	0.00	0.00	0.00	0.00	0.00	0.00	0.00	0.00	0.00	0.25	0.00	0.00	0.00	0.25	0.00	0.25	-1.010254	0.344238	1.776367	52.849998	-394.170013	36.820000	7.00	0.00	0.00	6.00	3.00	5.75	4.25	5.75	4.50	3.50	1.25	6.25	3.50	8.25	7.50	5.50	4.25	3.00	1.75	-0.266113	0.040527	0.934082	0.560000	11.200000	-1.540000	867.00	0.03	-0.05
3.36	0.00	0.00	0.00	0.00	0.00	0.00	0.00	0.00	0.25	0.25	0.00	0.00	0.00	0.00	0.00	0.25	-1.105469	0.343262	1.808105	72.940002	-388.010010	41.930000	8.00	0.00	0.00	5.25	2.50	5.00	3.25	5.50	4.50	3.75	1.50	6.50	3.75	8.50	8.00	5.75	4.75	3.50	2.25	-0.269531	0.034668	0.928223	0.210000	11.200000	-1.890000	868.00	0.06	-0.05
3.37	0.25	0.00	0.25	0.00	0.00	0.50	0.00	0.00	0.00	0.50	0.25	0.00	0.00	0.00	0.00	0.00	-1.232422	0.362793	1.854004	93.870003	-373.170013	46.480000	20.00	0.00	0.00	4.50	2.50	4.75	3.25	5.25	4.50	4.25	1.50	7.00	4.25	9.00	8.25	6.25	5.00	3.50	2.50	-0.290039	0.037109	0.928223	-0.630000	11.340000	-2.240000	892.00	0.07	-0.05
3.38	0.75	0.00	0.00	0.00	0.00	0.00	0.00	0.00	0.00	0.00	0.00	0.00	0.00	0.00	0.00	0.00	-1.395996	0.406738	2.100586	116.059998	-346.989990	49.490002	8.00	0.00	0.00	3.50	1.50	4.00	2.75	5.00	4.00	4.50	1.75	7.50	4.75	9.25	8.50	6.75	5.00	3.75	2.50	-0.286133	0.034668	0.893066	-1.820000	12.040000	-2.660000	881.00	0.10	-0.05
3.39	0.25	0.00	0.00	0.00	0.00	0.00	0.00	0.00	0.00	0.25	0.25	0.00	0.00	0.00	0.00	0.00	-1.940430	0.558105	3.129883	145.039993	-321.649994	64.750000	9.00	0.00	0.00	2.50	1.50	3.50	2.00	4.50	3.50	5.00	1.50	7.75	5.50	10.00	9.00	7.00	5.25	3.75	3.00	-0.283691	0.097656	0.893066	-3.920000	13.300000	-3.710000	880.00	0.12	-0.04
3.40	0.25	0.00	0.00	0.00	0.00	0.00	0.00	0.00	0.00	0.25	0.00	0.00	0.00	0.00	0.00	0.00	-2.286133	0.632812	3.163574	138.250000	-337.119995	84.629997	6.00	0.00	0.00	2.50	1.00	3.00	2.00	4.00	3.25	5.25	1.75	8.25	6.75	10.50	9.25	7.25	5.75	4.25	3.25	-0.221680	0.062988	0.929199	-6.090000	13.720000	-4.760000	913.00	0.13	-0.04
3.41	0.00	0.00	0.25	0.00	0.00	0.00	0.00	0.00	0.00	0.75	0.00	0.00	0.00	0.00	0.00	0.00	-2.637695	0.594727	2.803711	122.639999	-353.500000	110.250000	12.00	0.00	0.00	2.00	0.50	3.00	1.50	3.50	3.25	5.50	1.75	8.75	7.75	11.00	9.50	7.75	6.00	4.75	3.25	-0.212402	-0.001953	0.903809	-6.510000	14.630000	-5.180000	934.00	0.15	-0.04
3.42	0.25	0.00	0.00	0.00	0.00	0.00	0.00	0.00	0.00	0.25	0.00	0.00	0.00	0.00	0.00	0.00	-2.880859	0.425781	2.236816	109.830002	-354.200012	135.240005	6.00	0.00	0.00	1.50	0.75	2.25	1.25	3.25	2.75	6.00	1.75	9.25	8.25	11.25	10.00	8.00	6.50	5.00	4.00	-0.311523	0.080566	0.930664	-6.160000	15.820000	-5.180000	954.00	0.16	-0.04
3.43	0.00	0.50	0.00	0.00	0.00	0.00	0.00	0.00	0.00	0.25	0.00	0.00	0.00	0.00	0.00	0.25	-3.090820	0.236328	1.866699	95.480003	-341.250000	155.119995	9.00	0.00	0.00	1.25	0.75	2.25	1.25	2.75	2.25	6.25	1.75	10.00	8.50	12.00	10.25	8.25	7.00	5.50	4.50	-0.242676	-0.002930	0.936035	-5.810000	21.420000	-5.740000	984.00	0.17	-0.04
3.44	0.25	0.00	0.00	0.00	0.00	0.00	0.00	0.00	0.25	0.25	0.00	0.00	0.00	0.50	0.00	0.00	-3.336914	0.120605	1.617188	72.870003	-325.709991	169.119995	14.00	0.00	0.00	1.75	0.50	1.50	0.75	2.25	1.75	6.75	1.75	10.75	9.00	12.50	10.75	8.50	7.50	5.50	5.00	-0.249023	-0.000488	0.927246	-5.530000	24.920000	-6.370000	1006.00	0.18	-0.03
3.45	0.50	0.00	0.00	0.00	0.00	0.00	0.00	0.00	0.00	0.00	0.25	0.00	0.00	0.00	0.00	0.00	-3.640625	-0.024414	1.288086	39.270000	-312.690002	173.180008	9.00	0.00	0.00	1.00	0.50	1.50	0.75	2.00	1.75	7.00	1.75	11.25	9.75	13.00	11.00	9.00	7.75	6.00	5.00	-0.269531	0.052246	0.922363	-4.970000	28.980000	-6.230000	1036.00	0.19	-0.03
3.46	0.00	0.50	0.00	0.00	0.00	0.00	0.00	0.00	0.25	0.00	0.00	0.00	0.00	0.00	0.00	0.25	-3.927246	-0.075195	0.567871	7.070000	-295.750000	162.820007	10.00	0.00	0.00	0.50	0.25	1.50	0.75	1.50	1.25	7.25	1.75	12.00	10.25	13.50	11.25	9.00	8.00	6.25	5.25	-0.288574	0.032715	0.935547	-3.990000	34.369999	-6.440000	1051.00	0.20	-0.03
3.47	0.00	0.00	0.00	0.00	0.00	0.00	0.00	0.00	0.00	0.00	0.25	0.00	0.00	0.00	0.00	0.00	-4.234375	-0.125000	-0.198242	-5.810000	-266.910004	137.550003	3.00	0.00	0.00	1.50	1.25	1.75	1.25	1.75	1.25	7.50	1.75	12.75	10.75	14.25	11.75	10.25	9.00	7.00	5.50	-0.260254	0.019043	0.973633	-3.290000	42.070000	-6.790000	1151.00	0.19	-0.03
3.48	0.75	0.00	0.00	0.00	0.00	0.00	0.00	0.00	0.25	0.00	0.00	0.00	0.00	0.00	0.00	0.00	-4.465332	-0.258301	-0.773438	27.160000	-220.570007	107.239998	12.00	0.00	0.00	2.00	1.25	2.75	0.75	1.25	2.00	7.75	1.75	15.00	11.75	15.50	12.75	10.25	8.50	8.25	7.50	-0.279785	0.050781	0.955078	-1.750000	54.320000	-8.260000	1261.00	0.19	-0.03
3.49	0.25	0.00	0.50	0.00	0.00	0.25	0.00	0.00	0.25	0.25	0.00	0.00	0.00	0.00	0.00	0.25	-4.719727	-0.558105	-1.064453	93.940002	-163.589996	82.180000	20.00	0.00	0.00	0.00	0.25	0.75	0.75	0.75	0.75	8.00	1.25	14.00	11.50	15.25	13.00	10.00	9.50	8.00	7.50	-0.308105	0.045410	0.958008	-1.540000	66.500000	-9.450000	1166.00	0.22	-0.03
3.50	0.00	0.00	0.00	0.00	0.00	0.00	0.00	0.00	0.00	0.25	0.00	0.00	0.00	0.00	0.00	0.00	-4.791016	-0.983887	-1.207031	135.029999	-101.290001	57.189999	3.00	0.00	0.00	1.25	0.00	0.75	0.00	0.50	0.50	7.75	1.25	14.25	12.25	15.00	12.25	10.25	10.25	8.50	7.75	-0.321289	0.051270	0.958008	-1.190000	82.040001	-10.150000	1175.00	0.23	-0.02
3.51	0.50	0.00	0.00	0.00	0.00	0.00	0.00	0.00	0.00	0.00	0.00	0.00	0.00	0.00	0.00	0.00	-4.577148	-1.229004	-1.240234	119.139999	-37.799999	26.320000	6.00	0.00	0.00	0.00	0.00	1.25	1.00	1.00	0.25	7.50	1.25	15.00	12.75	16.00	12.50	9.25	9.25	7.75	7.50	-0.352539	0.049805	0.947266	-3.220000	104.300003	-11.760000	1180.00	0.22	-0.02
3.52	1.25	0.50	0.00	0.50	0.00	0.00	0.00	0.00	0.00	0.00	0.00	0.00	0.00	0.00	0.00	0.00	-2.811523	-0.716797	-3.479004	-141.539993	305.619995	-2.800000	25.00	0.00	0.00	1.25	0.50	1.75	1.25	0.75	1.25	7.75	1.75	17.50	13.50	17.00	13.25	9.75	10.75	9.00	8.25	-0.334961	0.052246	1.017578	-6.580000	136.289993	-14.140000	1331.00	0.21	-0.02
3.53	2.25	3.25	0.00	0.00	0.00	0.00	0.00	0.00	0.00	0.00	0.00	0.00	0.00	0.00	0.00	0.00	-2.811523	-0.716797	-3.479004	-141.539993	305.619995	-2.800000	58.00	-0.41	-0.05	1.00	0.75	1.25	0.50	0.75	0.75	7.50	1.00	16.75	13.75	16.75	12.25	8.25	9.50	8.25	7.50	-0.335938	0.036133	1.027344	-11.550000	174.440002	-17.639999	1232.00	0.22	-0.01
3.54	5.25	5.75	0.00	0.75	0.00	0.00	0.00	0.00	0.00	0.00	0.00	0.00	0.00	0.00	0.00	0.00	-0.020508	0.004883	2.764160	-187.669998	346.429993	-37.380001	126.00	-0.40	-0.04	0.00	0.00	0.00	0.00	0.25	0.25	7.50	0.50	15.50	13.50	16.00	12.00	8.00	10.00	8.50	7.50	-0.436035	0.029297	0.966309	-17.080000	216.720001	-19.809999	1145.00	0.24	-0.00
3.55	7.50	8.25	0.00	2.00	0.00	0.00	0.00	0.00	0.00	0.00	0.00	0.00	0.00	0.00	0.00	0.00	-1.177734	0.013672	1.632324	-158.970001	286.860016	-25.410000	192.00	-0.39	-0.05	0.00	0.00	0.00	0.00	0.00	0.00	7.25	0.50	15.75	13.00	15.50	12.00	7.50	11.25	8.50	7.50	-0.509277	0.029785	0.942383	-33.529999	291.690002	-26.530001	1134.00	0.25	-0.00
3.56	11.50	11.25	0.00	2.50	0.00	0.00	0.00	0.00	0.00	0.00	0.00	0.00	0.00	0.00	0.00	0.00	-1.840332	-0.216309	1.684082	-114.590004	307.790009	-7.280000	273.00	-0.40	-0.04	0.00	0.00	0.00	0.00	0.00	0.00	7.25	0.00	15.00	13.00	15.25	11.50	7.75	11.25	9.50	7.25	-0.558594	0.049316	0.953613	-44.939999	330.540009	-30.100000	1119.00	0.25	0.00
3.57	18.50	16.00	1.25	5.75	0.00	0.00	0.00	0.00	0.00	0.00	0.00	0.00	0.00	0.00	0.00	0.00	-1.563965	-0.603027	4.218750	-3.220000	400.540009	18.340000	455.00	-0.39	-0.04	0.00	0.00	0.75	1.00	0.25	1.00	7.00	1.00	17.25	14.00	16.50	12.25	7.00	9.75	8.50	7.25	-0.599609	0.059082	1.008789	-49.770000	358.679993	-34.720001	1201.00	0.23	-0.00
3.58	14.00	13.50	0.25	5.25	0.00	0.00	0.00	0.00	0.00	0.00	0.00	0.00	0.00	0.00	0.00	0.00	-1.104004	-0.421875	4.306641	14.350000	330.679993	-3.080000	360.00	-0.39	-0.05	0.25	0.75	1.25	1.00	0.50	1.00	6.75	1.25	16.00	13.50	16.25	12.25	7.25	10.50	9.75	8.00	-0.580566	-0.035645	1.172852	-35.490002	382.480011	-36.470001	1222.00	0.23	-0.01
3.59	21.25	17.25	3.75	8.50	0.50	0.25	0.00	0.00	0.00	0.00	0.00	0.00	0.00	0.00	0.00	0.00	-0.606934	0.113281	2.627930	19.950001	200.270004	-17.290001	571.00	-0.37	-0.04	0.50	0.00	0.75	0.75	0.50	1.00	6.00	1.00	13.75	12.25	14.50	11.50	6.50	10.25	9.50	8.00	-0.972656	-0.115234	1.442383	-3.920000	402.779999	-29.960001	1105.00	0.23	-0.02
3.60	20.50	16.25	4.25	8.75	0.50	1.25	0.00	0.00	0.00	0.00	0.00	0.00	0.00	0.00	0.00	0.00	-0.219727	0.581543	4.004883	35.349998	129.570007	-18.690001	573.00	-0.36	-0.04	0.00	0.00	1.00	0.00	0.00	0.00	5.25	0.50	11.00	10.00	12.25	10.75	6.75	10.00	9.50	8.00	-1.185547	0.010742	2.255859	39.549999	434.980011	-19.670000	955.00	0.25	-0.02
3.61	19.50	16.00	4.75	9.00	1.00	2.00	0.00	0.00	0.00	0.00	0.25	0.00	0.00	0.00	0.00	0.00	-0.344727	0.276855	0.803711	-15.400000	84.629997	-4.270000	586.00	-0.35	-0.05	1.00	0.25	1.00	1.00	0.50	0.75	4.75	1.00	9.25	8.25	11.00	9.00	6.00	9.50	8.75	7.50	-2.155762	0.084961	3.190918	59.220001	478.380005	-12.180000	893.00	0.23	-0.03
3.62	20.25	16.50	6.50	9.75	1.25	3.25	0.00	0.25	0.00	0.00	0.50	0.50	0.00	0.00	0.00	0.25	-0.181641	-0.002441	0.444336	-75.809998	91.699997	-3.570000	662.00	-0.33	-0.05	0.00	0.75	0.75	0.75	0.25	0.00	3.00	0.00	6.50	5.50	8.50	7.75	4.50	8.25	7.50	5.50	-2.813477	0.071289	3.776855	63.910000	535.429993	0.280000	658.00	0.24	-0.03
3.63	17.75	12.75	5.50	8.25	1.00	1.25	0.00	0.75	0.00	0.00	1.25	0.75	0.25	0.25	0.00	0.00	-0.513184	0.024902	1.742188	-92.680000	92.190002	-8.680000	562.00	-0.32	-0.05	0.00	0.00	0.00	0.00	0.00	0.00	2.00	0.00	5.50	4.00	7.50	6.75	4.50	7.25	6.75	4.75	-2.259766	0.029785	3.007812	63.910000	568.400024	-2.170000	536.00	0.27	-0.04
3.64	22.00	17.25	8.00	10.25	3.00	4.75	0.00	1.00	0.00	0.00	0.75	1.00	1.25	0.00	0.00	0.25	-0.428223	0.057129	1.280273	-71.120003	50.820000	-8.330000	786.00	-0.31	-0.06	0.00	0.00	0.00	0.00	0.00	0.00	1.00	0.00	4.75	4.00	6.25	5.75	3.75	6.50	6.00	3.00	-2.064453	0.646484	2.661133	57.889999	589.609985	-9.240000	450.00	0.28	-0.04
3.65	15.50	13.50	7.00	10.50	4.25	5.00	0.00	0.00	0.00	0.00	0.50	1.00	1.00	0.00	0.00	0.25	-0.278809	0.080078	0.972168	-67.269997	27.580000	-7.980000	661.00	-0.30	-0.07	0.00	0.00	0.00	0.00	0.00	0.00	0.50	0.00	3.25	3.75	5.50	4.75	2.50	5.50	5.25	1.50	-2.281738	0.860352	3.416992	96.459999	584.289978	-11.200000	359.00	0.28	-0.04
3.66	23.25	17.50	9.25	10.75	5.50	5.50	0.25	1.25	0.25	0.75	1.25	1.00	0.75	0.00	0.00	0.50	-0.299805	0.041504	1.069824	-66.849998	17.430000	-7.840000	885.00	-0.29	-0.05	0.00	0.00	0.00	0.00	0.00	0.00	0.25	0.00	2.00	3.25	4.25	3.75	0.00	3.75	3.50	0.75	-1.609863	1.034668	3.514160	147.630005	563.640015	-21.629999	241.00	0.29	-0.02
3.67	22.25	16.75	9.75	10.75	6.25	5.75	0.50	1.50	0.75	1.00	1.50	1.50	1.00	0.75	0.00	0.75	-0.296875	-0.000488	1.023926	-52.639999	9.520000	-6.580000	922.00	-0.26	-0.05	0.00	0.00	0.75	0.00	0.50	1.00	0.25	0.00	2.25	4.50	4.75	4.25	1.75	1.75	2.50	1.25	0.653809	0.151855	4.287598	233.869995	413.559998	-70.980003	287.00	0.22	-0.07
3.68	23.00	17.25	10.00	11.00	7.00	6.00	0.50	1.75	1.00	1.25	1.75	1.75	3.00	1.00	0.75	0.50	-0.281738	0.032715	0.976074	-37.029999	4.480000	-4.760000	998.00	-0.24	-0.06	1.25	0.75	1.25	1.00	0.50	1.00	0.25	0.50	2.50	3.50	3.50	3.75	2.25	2.50	2.50	1.50	2.161621	-0.177246	4.036133	231.559998	308.980011	-109.340004	320.00	0.14	-0.07
3.69	22.75	17.00	10.50	10.75	7.50	6.25	0.75	2.00	1.00	1.50	1.75	2.25	3.50	1.25	0.75	0.75	-0.285645	0.017578	0.962402	-21.070000	0.490000	-2.590000	1031.00	-0.23	-0.06	1.25	0.75	1.25	1.00	0.50	1.00	0.25	0.75	2.75	3.00	3.00	2.75	2.25	2.25	2.50	1.25	1.636230	0.265625	1.033691	228.270004	214.270004	-138.039993	301.00	0.13	-0.06
