# time	left pressure 1[N/cm²]	left pressure 2[N/cm²]	left pressure 3[N/cm²]	left pressure 4[N/cm²]	left pressure 5[N/cm²]	left pressure 6[N/cm²]	left pressure 7[N/cm²]	left pressure 8[N/cm²]	left pressure 9[N/cm²]	left pressure 10[N/cm²]	left pressure 11[N/cm²]	left pressure 12[N/cm²]	left pressure 13[N/cm²]	left pressure 14[N/cm²]	left pressure 15[N/cm²]	left pressure 16[N/cm²]	left acceleration X[g]	left acceleration Y[g]	left acceleration Z[g]	left angular X[dps]	left angular Y[dps]	left angular Z[dps]	left total force[N]	left center of pressure X[%]	left center of pressure Y[%]	right pressure 1[N/cm²]	right pressure 2[N/cm²]	right pressure 3[N/cm²]	right pressure 4[N/cm²]	right pressure 5[N/cm²]	right pressure 6[N/cm²]	right pressure 7[N/cm²]	right pressure 8[N/cm²]	right pressure 9[N/cm²]	right pressure 10[N/cm²]	right pressure 11[N/cm²]	right pressure 12[N/cm²]	right pressure 13[N/cm²]	right pressure 14[N/cm²]	right pressure 15[N/cm²]	right pressure 16[N/cm²]	right acceleration X[g]	right acceleration Y[g]	right acceleration Z[g]	right angular X[dps]	right angular Y[dps]	right angular Z[dps]	right total force[N]	right center of pressure X[%]	right center of pressure Y[%]
0.00																										0.75	1.00	0.75	2.00	0.50	0.00	0.25	0.00	1.00	1.00	1.00	0.50	1.00	1.75	1.00	0.75	-0.184082	0.069336	0.969727	-0.210000	-8.680000	2.870000	134.00	0.05	-0.04
0.01																										0.75	1.25	1.00	1.75	0.75	0.00	0.25	0.00	1.00	1.00	0.75	0.50	0.75	2.00	1.00	0.75	-0.181641	0.071777	0.969238	0.070000	-8.540000	2.940000	136.00	0.04	-0.02
0.02	1.25	2.50	2.25	3.00	1.50	2.00	1.00	2.25	1.00	1.00	6.25	8.25	7.25	6.00	1.25	3.25	-0.207031	0.074219	0.955566	0.140000	10.080000	-2.100000	503.00	0.09	-0.15	1.00	1.25	1.00	1.75	1.00	0.00	0.25	0.00	1.00	1.25	0.50	0.50	1.25	1.75	0.75	0.75	-0.178711	0.067383	0.973145	0.140000	-8.330000	2.870000	141.00	0.02	-0.03
0.03	1.25	2.25	2.00	2.75	1.25	1.50	1.00	2.25	1.50	1.50	6.25	8.00	7.25	5.75	1.25	3.50	-0.215332	0.098145	0.972656	0.280000	9.940000	-2.030000	495.00	0.11	-0.15	1.00	1.75	0.75	2.00	0.75	0.00	0.25	0.00	1.25	1.50	1.00	0.50	1.00	1.75	1.00	0.75	-0.178711	0.067383	0.973145	0.140000	-8.330000	2.870000	155.00	0.03	-0.03
0.04	1.00	2.00	2.00	2.75	1.25	1.50	1.00	2.25	1.50	1.50	6.00	8.00	7.25	5.75	1.25	3.75	-0.213379	0.080078	0.954590	-0.420000	9.870000	-2.030000	489.00	0.11	-0.15	1.00	1.50	1.25	2.00	1.00	0.00	0.25	0.00	1.00	1.25	1.00	0.50	1.25	2.00	1.00	0.75	-0.178711	0.065430	0.978027	-0.140000	-8.190000	2.870000	159.00	0.02	-0.04
0.05	0.75	1.75	2.00	3.00	1.25	1.50	1.00	2.25	2.25	1.75	5.75	8.25	7.00	5.50	1.25	3.50	-0.213379	0.080078	0.954590	-0.420000	9.870000	-2.030000	493.00	0.12	-0.14	1.00	1.25	1.00	2.00	0.75	0.00	0.25	0.00	1.00	1.25	1.00	0.50	1.25	1.75	0.75	1.00	-0.176270	0.066895	0.971191	-0.280000	-8.190000	2.870000	148.00	0.03	-0.04
0.06	0.75	1.75	1.75	2.25	1.25	1.50	1.00	2.00	1.50	1.75	6.50	8.25	7.25	6.00	1.25	3.50	-0.214844	0.076172	0.952148	-0.700000	9.940000	-2.100000	483.00	0.13	-0.15	1.25	1.75	1.25	2.25	0.75	0.00	0.25	0.00	1.25	1.50	1.00	0.50	1.25	2.00	0.75	0.75	-0.177246	0.066406	0.971680	-0.490000	-8.120000	2.660000	167.00	0.01	-0.03
0.07	1.00	1.75	1.75	2.25	1.25	1.25	1.00	2.00	1.75	1.75	6.50	8.25	7.25	6.25	1.50	3.50	-0.216797	0.072266	0.952148	-1.050000	9.520000	-2.030000	491.00	0.13	-0.14	1.00	0.75	1.25	2.25	0.75	0.00	0.25	0.25	1.00	1.25	1.00	0.75	1.50	1.75	1.00	0.75	-0.182129	0.071777	0.978516	-0.770000	-8.260000	2.590000	159.00	0.04	-0.06
0.08	1.00	1.75	1.50	2.25	1.25	1.00	1.00	1.75	1.75	1.50	6.50	8.00	7.25	6.25	1.00	3.50	-0.215820	0.078613	0.948242	-1.260000	9.590000	-2.100000	471.00	0.13	-0.14	1.25	1.50	1.25	2.50	1.00	0.00	0.25	0.00	0.75	1.50	1.00	0.75	1.50	2.00	1.00	0.75	-0.178711	0.071777	0.974609	-1.050000	-7.910000	2.450000	171.00	0.01	-0.05
0.09	1.00	1.50	1.50	1.75	1.00	1.25	1.00	1.75	1.25	1.75	6.50	8.00	7.25	6.00	1.25	3.50	-0.211914	0.074219	0.951172	-1.610000	8.820000	-1.890000	460.00	0.14	-0.15	1.25	1.75	1.50	2.50	1.00	0.25	0.25	0.25	1.00	1.50	1.25	1.00	1.75	1.75	1.00	0.75	-0.173828	0.068359	0.974121	-1.540000	-7.560000	2.310000	191.00	0.00	-0.07
0.10	0.75	1.50	1.50	1.75	1.25	1.00	1.00	1.75	1.50	1.50	6.75	8.00	7.25	6.00	1.25	3.50	-0.209473	0.079590	0.949707	-1.890000	8.820000	-1.890000	461.00	0.14	-0.15	1.50	2.00	1.25	2.50	1.00	0.00	0.25	0.00	1.25	1.50	1.25	0.75	1.50	2.00	1.00	1.00	-0.176270	0.065430	0.979492	-1.960000	-7.420000	2.030000	189.00	0.01	-0.05
0.11	0.75	1.50	1.50	2.50	1.00	1.00	1.00	1.50	1.50	1.50	6.75	8.00	7.25	6.25	1.25	3.50	-0.216309	0.071777	0.944824	-2.170000	8.750000	-1.890000	464.00	0.14	-0.14	1.25	1.75	1.25	2.50	1.00	0.00	0.25	0.00	1.25	1.75	1.25	1.00	1.50	2.00	1.00	0.75	-0.175781	0.064941	0.972168	-2.240000	-7.210000	2.030000	188.00	0.02	-0.05
0.12	0.75	1.50	1.00	2.25	1.00	1.00	1.00	1.50	1.75	1.50	6.50	8.00	7.00	6.25	1.25	3.75	-0.215332	0.070801	0.954102	-2.380000	8.680000	-1.960000	456.00	0.15	-0.14	1.25	2.00	1.50	2.75	1.00	0.00	0.25	0.00	1.25	1.50	1.25	1.00	1.50	2.00	1.00	1.00	-0.173340	0.067871	0.974121	-2.660000	-6.930000	1.890000	195.00	0.01	-0.05
0.13	0.75	1.50	1.50	1.50	1.25	0.75	1.00	1.50	1.75	1.75	6.50	8.00	7.00	6.25	1.50	3.50	-0.215332	0.074707	0.947754	-2.520000	8.330000	-2.030000	457.00	0.15	-0.13	1.25	1.75	1.50	3.00	1.00	0.00	0.25	0.00	1.50	1.50	1.50	1.00	1.50	1.75	1.00	1.00	-0.179199	0.064453	0.975586	-2.940000	-6.580000	1.680000	199.00	0.01	-0.05
0.14	0.75	1.25	1.50	2.00	1.00	0.75	1.00	1.50	0.75	1.50	6.75	7.75	7.00	6.25	1.25	3.50	-0.213379	0.076660	0.944336	-2.660000	7.980000	-1.890000	439.00	0.14	-0.15	1.75	1.75	1.50	2.75	1.25	0.00	0.25	0.00	1.25	1.50	1.50	0.75	1.50	2.25	1.25	1.00	-0.169922	0.067383	0.977539	-3.220000	-6.300000	1.820000	205.00	0.01	-0.04
0.15	0.75	1.50	1.50	1.75	1.00	1.00	1.00	1.50	1.50	1.75	6.50	8.00	6.75	6.25	1.25	3.50	-0.218262	0.076172	0.951172	-2.800000	7.910000	-1.890000	452.00	0.14	-0.14	1.25	2.00	1.50	2.75	1.25	0.00	0.25	0.00	1.25	1.50	1.50	1.00	1.50	2.00	1.00	1.00	-0.172852	0.067383	0.975098	-3.360000	-6.090000	1.750000	200.00	0.01	-0.05
0.16	0.50	1.25	1.25	2.00	1.00	0.75	1.00	1.25	1.50	1.50	6.50	8.00	6.75	6.50	1.50	3.50	-0.221680	0.074707	0.947754	-3.010000	7.840000	-1.820000	442.00	0.16	-0.14	1.50	2.00	1.50	2.75	1.00	0.00	0.25	0.00	1.25	1.75	1.50	0.75	1.50	2.00	1.00	1.00	-0.174805	0.071289	0.974121	-3.570000	-6.020000	1.750000	200.00	0.01	-0.05
0.17	0.75	1.50	1.50	1.50	1.00	0.75	1.00	1.25	1.50	1.50	6.50	7.75	6.75	6.50	1.50	3.50	-0.218262	0.071777	0.949219	-3.150000	7.840000	-1.820000	442.00	0.15	-0.13	1.50	2.00	1.50	2.75	1.00	0.00	0.25	0.25	1.50	1.75	1.50	1.00	1.50	2.25	1.00	0.75	-0.170898	0.069336	0.978516	-3.640000	-6.230000	1.680000	210.00	0.01	-0.05
0.18	0.75	1.50	1.50	1.75	1.00	0.75	1.00	1.50	1.50	1.75	6.50	7.75	6.75	6.25	1.25	3.50	-0.215820	0.073730	0.947754	-3.360000	8.120000	-1.960000	446.00	0.15	-0.14	1.75	2.25	1.75	3.00	1.25	0.25	0.25	0.00	1.25	1.75	1.50	1.00	1.50	2.25	1.00	1.00	-0.170898	0.065430	0.974121	-3.710000	-6.230000	1.750000	220.00	-0.01	-0.05
0.19	0.50	1.50	1.25	1.75	1.00	0.50	1.00	1.25	1.50	1.75	6.25	7.75	6.75	6.25	1.50	3.50	-0.222168	0.068359	0.946777	-3.430000	7.980000	-2.030000	435.00	0.16	-0.14	1.75	2.25	1.75	3.25	1.25	0.00	0.25	0.00	1.75	1.50	1.50	1.00	1.25	2.25	0.75	1.00	-0.170898	0.067871	0.972168	-3.710000	-6.020000	1.750000	220.00	-0.01	-0.03
0.20	0.75	0.75	1.00	1.25	1.25	0.50	1.00	1.25	1.50	2.00	6.75	7.50	6.50	6.25	1.25	3.50	-0.218750	0.072266	0.954590	-3.570000	7.840000	-2.030000	425.00	0.17	-0.13	1.50	2.50	2.00	3.00	1.25	0.25	0.50	0.00	1.50	1.75	1.75	1.00	1.25	2.50	1.00	1.00	-0.167969	0.063965	0.986816	-3.710000	-5.880000	1.750000	233.00	-0.00	-0.03
0.21	0.75	1.25	1.25	1.25	1.00	0.25	1.00	1.25	1.75	1.75	6.50	7.75	6.50	6.25	1.25	3.50	-0.216309	0.071777	0.949219	-3.640000	7.630000	-1.960000	428.00	0.16	-0.13	1.75	2.25	1.75	3.25	1.25	0.25	0.50	0.00	1.50	1.75	1.50	1.00	1.50	2.00	1.25	1.00	-0.167480	0.070801	0.979492	-3.640000	-5.600000	1.610000	231.00	-0.01	-0.04
0.22	0.50	1.25	1.25	1.50	1.00	0.50	1.00	1.00	1.75	1.75	6.50	7.50	6.50	6.50	1.25	3.50	-0.219727	0.073242	0.944336	-3.920000	7.980000	-2.030000	426.00	0.16	-0.13	1.50	2.00	1.75	3.50	1.25	0.00	0.50	0.25	1.50	1.50	1.50	1.00	1.75	2.50	1.00	1.00	-0.167480	0.063477	0.979492	-3.570000	-5.460000	1.750000	231.00	0.00	-0.05
0.23	0.75	1.50	1.25	1.75	1.00	0.50	1.00	1.00	2.25	2.00	6.75	7.50	6.25	6.75	1.25	3.50	-0.215332	0.070312	0.952148	-3.990000	7.840000	-2.100000	446.00	0.16	-0.12	1.75	2.25	2.00	3.25	1.25	0.25	0.50	0.00	1.50	2.00	1.50	1.00	1.50	2.50	1.00	1.00	-0.169922	0.065430	0.978516	-3.500000	-5.320000	1.960000	238.00	-0.00	-0.04
0.24	0.50	1.50	1.50	1.25	0.75	0.25	1.00	1.00	2.00	2.00	6.50	7.50	6.25	6.50	1.25	3.25	-0.219727	0.071777	0.956055	-3.990000	7.770000	-2.030000	425.00	0.17	-0.12	1.75	2.00	2.00	3.25	1.25	0.00	0.25	0.00	1.75	1.75	1.75	1.00	1.50	2.50	1.00	1.00	-0.169922	0.069336	0.978516	-3.360000	-5.110000	1.890000	232.00	0.01	-0.03
0.25	0.75	1.50	1.50	1.50	1.00	0.50	1.00	1.00	1.50	1.75	6.50	7.50	6.25	6.75	1.25	3.25	-0.216797	0.069336	0.947754	-3.990000	7.700000	-2.100000	429.00	0.16	-0.12	1.75	2.50	2.00	3.25	1.50	0.25	0.25	0.00	1.50	1.75	1.75	1.25	1.75	2.50	1.00	1.00	-0.169922	0.066406	0.971680	-3.220000	-4.900000	1.890000	244.00	-0.01	-0.05
0.26	0.50	1.50	1.25	1.75	1.00	0.25	1.00	1.00	2.50	1.75	6.25	7.50	6.00	6.75	1.50	3.25	-0.220215	0.067871	0.951660	-3.990000	7.700000	-2.100000	435.00	0.16	-0.11	1.75	2.50	2.25	3.75	1.25	0.25	0.25	0.00	1.50	1.75	1.75	1.00	1.25	2.50	1.00	1.00	-0.164551	0.063477	0.977051	-3.150000	-4.970000	2.100000	242.00	-0.02	-0.04
0.27	0.75	1.50	1.25	1.75	1.25	0.50	1.00	0.75	2.00	1.75	6.25	7.50	6.00	6.50	1.50	3.50	-0.224121	0.066895	0.950195	-4.130000	7.560000	-2.030000	432.00	0.16	-0.12	1.75	2.50	2.00	3.50	1.50	0.00	0.25	0.00	1.50	1.75	1.50	0.75	1.50	2.25	1.00	1.00	-0.169922	0.070312	0.979980	-2.940000	-4.760000	2.100000	232.00	-0.02	-0.04
0.28	0.75	1.00	1.25	1.50	1.00	0.50	1.00	0.75	2.00	1.75	6.50	7.25	5.75	6.75	1.25	3.25	-0.216309	0.073242	0.950195	-4.270000	7.490000	-2.030000	418.00	0.17	-0.11	1.50	2.00	2.25	3.50	1.25	0.00	0.50	0.00	1.50	1.75	1.75	0.75	1.75	2.25	1.00	1.00	-0.165527	0.067871	0.974609	-2.800000	-4.620000	2.100000	233.00	-0.00	-0.04
0.29	0.75	1.50	1.25	1.00	1.00	0.25	1.00	0.75	1.75	1.75	6.25	7.50	5.75	6.75	1.25	3.25	-0.221680	0.072754	0.947266	-4.340000	7.700000	-2.100000	411.00	0.17	-0.11	2.00	2.75	2.25	3.50	1.25	0.25	0.25	0.00	1.75	2.00	1.75	1.00	1.50	2.25	1.25	1.25	-0.170410	0.066406	0.978516	-2.660000	-4.410000	2.170000	254.00	-0.01	-0.04
0.30	0.75	0.75	1.25	1.50	1.00	0.25	1.00	0.75	2.00	2.00	6.25	7.25	5.75	6.50	1.50	3.25	-0.221191	0.067383	0.947754	-4.620000	7.210000	-2.100000	413.00	0.17	-0.11	2.00	2.75	2.25	3.50	1.25	0.50	0.25	0.00	1.75	1.75	1.75	0.75	1.50	2.50	1.00	1.00	-0.169434	0.066895	0.982422	-2.590000	-4.410000	2.170000	250.00	-0.02	-0.04
0.31	0.75	1.25	1.25	1.50	1.00	0.25	1.00	0.50	2.00	1.75	6.50	7.00	5.50	6.75	1.25	3.25	-0.226074	0.066406	0.946289	-4.690000	7.000000	-2.030000	409.00	0.17	-0.10	2.25	2.75	2.25	3.75	1.25	0.50	0.25	0.00	1.75	1.75	1.50	0.75	1.25	2.50	1.25	1.00	-0.166504	0.063965	0.977539	-2.660000	-4.340000	2.170000	253.00	-0.03	-0.04
0.32	0.75	1.25	1.25	1.75	1.00	0.25	1.00	0.50	1.75	2.00	6.25	7.25	5.50	6.75	1.50	3.25	-0.220703	0.063965	0.947266	-4.760000	6.720000	-1.960000	413.00	0.17	-0.11	2.25	2.75	2.50	3.75	1.50	0.00	0.50	0.00	1.50	1.75	1.50	1.00	1.50	2.50	1.00	1.00	-0.161133	0.058594	0.978027	-2.590000	-4.410000	2.170000	256.00	-0.03	-0.03
0.33	0.75	1.25	1.25	1.75	1.00	0.50	1.00	0.50	2.00	2.00	6.25	7.00	5.50	6.75	1.25	3.00	-0.224121	0.071289	0.948730	-4.760000	6.580000	-1.890000	413.00	0.16	-0.10	2.00	2.50	2.50	4.00	1.75	0.00	0.50	0.00	1.50	1.75	1.50	1.25	1.50	2.50	1.25	1.25	-0.161133	0.058594	0.978027	-2.590000	-4.410000	2.100000	263.00	-0.02	-0.04
0.34	0.75	1.25	1.00	1.25	1.25	0.00	1.00	0.50	1.75	1.75	6.50	6.75	5.25	6.75	1.50	3.00	-0.216797	0.066895	0.947754	-4.900000	6.720000	-1.820000	396.00	0.17	-0.10	2.25	2.50	2.25	4.25	1.50	0.25	0.50	0.00	1.50	2.00	1.50	0.75	1.25	2.25	1.00	1.00	-0.166504	0.064941	0.974609	-2.730000	-4.410000	2.100000	255.00	-0.04	-0.04
0.35	1.00	1.50	1.25	1.75	1.25	0.50	1.00	0.75	1.75	1.75	6.25	7.00	5.25	7.00	1.25	3.00	-0.219727	0.062988	0.951172	-5.040000	6.580000	-1.960000	418.00	0.15	-0.11	2.25	2.75	2.50	4.25	1.50	0.25	0.25	0.00	1.75	1.75	1.50	1.00	1.50	2.25	1.25	1.00	-0.163574	0.067383	0.974609	-2.730000	-4.620000	2.170000	264.00	-0.04	-0.04
0.36	1.00	1.50	1.50	1.75	1.25	0.50	1.00	0.75	2.00	2.25	6.25	7.00	5.25	7.00	1.50	2.75	-0.225098	0.062988	0.952637	-4.900000	6.300000	-1.890000	431.00	0.15	-0.10	2.25	3.00	2.50	4.00	1.75	0.75	0.50	0.00	1.75	1.50	1.50	1.25	1.50	2.25	1.00	1.00	-0.163574	0.062988	0.972168	-2.800000	-4.690000	2.100000	273.00	-0.04	-0.04
0.37	1.00	1.75	1.50	1.50	1.25	0.50	1.00	0.75	2.50	2.00	6.25	6.75	5.00	6.75	1.50	2.75	-0.218750	0.061523	0.952637	-4.620000	6.020000	-1.750000	427.00	0.15	-0.09	2.50	2.75	2.50	4.25	1.50	0.50	0.25	0.00	1.50	1.75	1.50	0.75	1.50	2.00	1.25	0.75	-0.162598	0.065430	0.974609	-2.870000	-4.690000	2.030000	260.00	-0.05	-0.05
0.38	1.00	1.50	1.50	1.50	1.00	0.50	1.00	0.25	1.75	1.75	6.00	6.50	5.00	6.75	1.50	2.75	-0.224121	0.062500	0.952148	-4.480000	5.950000	-1.610000	397.00	0.15	-0.10	2.50	2.75	2.50	4.25	1.50	0.25	0.50	0.00	1.50	1.75	1.50	1.00	1.50	2.00	1.25	1.00	-0.160645	0.064941	0.978027	-2.940000	-4.760000	1.890000	265.00	-0.05	-0.04
0.39	1.00	1.50	1.25	1.75	1.25	0.50	1.00	0.50	2.25	2.25	5.75	6.75	5.00	6.50	1.25	2.50	-0.222656	0.057617	0.950195	-4.060000	6.230000	-1.540000	409.00	0.15	-0.09	2.50	3.00	2.75	4.50	1.50	0.00	0.25	0.00	1.50	1.75	1.25	1.00	1.50	2.25	1.00	1.00	-0.165039	0.062012	0.978027	-2.870000	-4.830000	1.960000	263.00	-0.06	-0.04
0.40	0.75	1.50	1.25	1.75	1.25	0.50	1.00	0.50	1.75	2.00	6.00	6.50	4.75	6.75	1.25	2.50	-0.216797	0.062012	0.953613	-3.640000	6.160000	-1.470000	397.00	0.15	-0.10	2.75	2.75	2.75	4.25	1.50	0.50	0.25	0.00	1.75	1.75	1.50	0.75	1.50	2.25	0.75	1.00	-0.161133	0.058594	0.971680	-2.870000	-4.550000	1.960000	267.00	-0.06	-0.04
0.41	1.00	1.75	1.50	1.75	1.25	0.25	1.00	0.75	2.25	2.00	6.25	6.25	4.75	6.75	1.25	2.50	-0.219238	0.059082	0.951172	-3.080000	6.090000	-1.260000	413.00	0.15	-0.09	2.50	3.00	3.00	4.75	1.50	0.00	0.25	0.00	1.50	1.50	1.50	1.00	1.50	2.50	1.00	1.00	-0.163574	0.062012	0.976562	-2.800000	-4.480000	1.820000	271.00	-0.06	-0.04
0.42	0.75	1.50	1.50	1.50	1.00	0.25	1.00	0.50	2.50	2.00	6.00	6.50	4.75	6.50	1.25	2.25	-0.219238	0.063965	0.955078	-2.590000	6.230000	-1.330000	398.00	0.16	-0.09	2.50	3.25	3.00	4.75	1.75	0.00	0.50	0.00	2.00	1.75	1.50	0.75	1.50	2.25	1.00	1.00	-0.167480	0.061035	0.981445	-2.870000	-4.550000	1.960000	284.00	-0.06	-0.03
0.43	0.75	1.25	1.50	1.50	1.25	0.25	1.00	0.50	2.50	2.00	5.75	6.25	4.50	6.50	1.25	2.25	-0.221191	0.064941	0.947266	-2.520000	6.790000	-1.400000	391.00	0.16	-0.08	2.75	3.25	3.00	4.75	1.50	0.25	0.50	0.00	1.25	1.50	1.50	0.75	1.75	2.50	1.00	1.00	-0.165039	0.069824	0.977051	-2.730000	-4.340000	1.960000	279.00	-0.07	-0.05
0.44	1.00	1.50	1.75	1.75	1.00	0.25	1.00	0.75	2.75	1.75	6.00	6.25	4.25	6.75	1.25	2.25	-0.219727	0.062012	0.948730	-2.450000	7.210000	-1.400000	406.00	0.15	-0.08	3.00	3.50	3.00	4.50	1.75	0.25	0.25	0.00	1.50	1.50	1.50	1.00	1.50	2.00	1.00	1.00	-0.162598	0.062500	0.974609	-2.660000	-4.060000	1.960000	279.00	-0.08	-0.05
0.45	0.75	1.50	1.50	1.50	1.25	0.25	1.00	0.50	2.25	1.75	5.75	6.00	4.50	6.50	1.00	2.25	-0.221191	0.063477	0.952148	-2.310000	7.070000	-1.330000	382.00	0.15	-0.08	2.75	3.25	3.25	5.00	1.75	0.00	0.50	0.00	1.50	1.50	1.50	1.00	1.25	2.50	1.00	1.00	-0.161621	0.064941	0.977539	-2.590000	-4.060000	1.960000	286.00	-0.07	-0.04
0.46	1.00	1.75	1.75	1.75	1.25	0.25	1.00	0.50	2.00	2.00	6.25	6.00	4.25	6.25	1.25	2.25	-0.220703	0.061523	0.954590	-2.170000	7.210000	-1.330000	396.00	0.14	-0.08	3.00	3.50	3.00	4.75	1.75	0.50	0.50	0.00	1.50	1.75	1.25	0.75	1.50	2.50	1.00	1.00	-0.166016	0.069824	0.985840	-2.660000	-3.920000	1.890000	290.00	-0.07	-0.04
0.47	1.00	1.50	1.25	1.75	1.25	0.50	1.00	0.50	1.75	2.00	6.25	6.00	4.25	6.25	1.25	2.25	-0.222656	0.061523	0.953613	-2.030000	7.350000	-1.330000	387.00	0.15	-0.09	2.75	3.50	3.25	5.00	1.75	0.25	0.50	0.00	1.50	1.50	1.50	0.50	1.25	2.25	1.25	1.25	-0.164062	0.062988	0.983887	-2.660000	-3.780000	1.890000	287.00	-0.07	-0.04
0.48	1.00	1.50	1.50	1.75	1.25	0.25	1.00	0.50	2.25	1.75	6.00	6.00	4.00	6.25	1.25	2.00	-0.219238	0.059570	0.947266	-1.960000	7.350000	-1.470000	385.00	0.14	-0.08	2.75	3.50	3.25	5.00	1.75	0.75	0.50	0.25	1.25	1.50	1.50	1.00	1.50	2.25	1.25	1.25	-0.168457	0.060059	0.979004	-2.660000	-3.710000	2.030000	301.00	-0.07	-0.06
0.49	0.75	1.50	1.50	1.75	1.25	0.25	1.00	0.50	2.50	2.00	6.00	6.00	4.00	6.25	1.25	2.25	-0.221680	0.057129	0.947754	-2.030000	7.350000	-1.610000	390.00	0.15	-0.08	3.00	3.50	3.25	5.00	1.75	0.50	0.50	0.00	1.50	1.50	1.50	1.00	1.25	2.25	1.00	1.00	-0.165039	0.070312	0.978516	-2.590000	-3.640000	1.960000	294.00	-0.08	-0.04
0.50	0.75	1.50	1.50	1.75	1.25	0.25	1.00	0.50	2.25	2.00	6.00	5.75	4.00	6.25	1.25	2.25	-0.223145	0.061035	0.946289	-2.100000	7.280000	-1.470000	384.00	0.15	-0.08	3.00	3.75	3.25	4.50	1.75	0.50	0.50	0.00	1.50	1.50	1.25	0.75	1.50	2.25	1.00	1.00	-0.161621	0.065430	0.973633	-2.660000	-3.640000	1.750000	288.00	-0.08	-0.04
0.51	0.75	1.50	1.25	1.50	1.25	0.25	1.00	0.50	2.25	2.00	5.50	6.00	4.25	6.25	1.25	2.00	-0.221680	0.062500	0.951172	-2.170000	7.000000	-1.400000	377.00	0.15	-0.08	3.00	4.00	3.25	5.00	1.50	1.00	0.50	0.00	1.50	1.50	1.25	0.75	1.75	2.25	1.00	1.00	-0.167480	0.068359	0.976562	-2.660000	-3.640000	1.750000	300.00	-0.09	-0.05
0.52	1.00	1.50	1.50	1.50	1.25	0.00	1.00	0.50	2.00	2.00	5.75	6.00	4.00	6.00	1.00	2.25	-0.222168	0.063965	0.947266	-2.310000	6.650000	-1.400000	373.00	0.15	-0.08	3.00	3.75	3.25	5.00	1.75	0.50	0.50	0.00	1.50	2.00	1.25	0.75	1.50	2.00	1.00	1.00	-0.160645	0.064453	0.968750	-2.660000	-3.640000	1.820000	296.00	-0.08	-0.04
0.53	0.75	1.50	1.50	1.50	1.00	0.25	1.00	0.50	2.25	2.00	5.75	5.75	4.00	6.00	1.25	2.00	-0.225586	0.061523	0.953613	-2.450000	6.720000	-1.540000	372.00	0.15	-0.08	3.00	4.25	3.25	5.00	1.75	0.25	0.50	0.00	1.50	1.75	1.50	1.00	1.50	2.25	1.00	1.00	-0.161133	0.062500	0.979004	-2.660000	-3.710000	1.960000	303.00	-0.08	-0.04
0.54	0.75	1.75	1.50	1.75	1.25	0.25	1.00	0.50	2.25	2.00	5.75	5.75	4.00	6.00	1.25	2.00	-0.218262	0.062500	0.945801	-2.520000	6.510000	-1.400000	380.00	0.14	-0.08	3.00	3.75	3.25	5.25	1.50	0.50	0.25	0.00	1.50	1.50	1.25	0.75	1.50	2.25	1.00	1.00	-0.162598	0.065430	0.978516	-2.590000	-3.710000	1.890000	289.00	-0.09	-0.05
0.55	0.75	1.50	1.50	1.75	1.25	0.50	1.00	0.50	2.25	1.75	5.50	5.75	3.75	6.00	1.25	2.00	-0.219727	0.062012	0.950195	-2.520000	6.300000	-1.470000	373.00	0.14	-0.08	3.00	3.75	3.50	5.25	1.75	0.50	0.25	0.00	1.50	1.50	1.50	0.75	1.25	2.25	1.00	1.00	-0.158203	0.061523	0.979492	-2.590000	-3.780000	1.820000	295.00	-0.09	-0.04
0.56	1.00	1.75	1.25	1.75	1.25	0.25	1.00	0.50	2.00	1.75	5.50	5.75	3.75	6.25	1.00	2.00	-0.225586	0.062988	0.940918	-2.730000	5.950000	-1.400000	369.00	0.14	-0.08	3.00	4.00	3.50	5.00	1.75	0.75	0.25	0.00	1.50	1.50	1.25	1.00	1.50	2.25	1.00	1.00	-0.165039	0.061523	0.981445	-2.520000	-3.850000	1.960000	300.00	-0.09	-0.05
0.57	1.00	1.50	1.50	1.75	1.25	0.25	1.00	0.50	2.25	2.00	5.50	5.50	3.75	6.00	1.25	2.00	-0.215820	0.058105	0.950684	-2.800000	5.810000	-1.330000	373.00	0.14	-0.08	3.25	4.25	3.50	5.25	1.75	0.75	0.50	0.00	1.25	1.50	1.25	0.75	1.50	2.25	1.25	1.00	-0.166016	0.070801	0.974121	-2.520000	-3.710000	1.890000	308.00	-0.10	-0.05
0.58	1.00	1.75	1.50	1.75	1.25	0.50	1.00	0.50	2.25	1.75	5.50	5.50	3.50	6.00	1.00	1.75	-0.219727	0.056641	0.946289	-2.800000	5.600000	-1.260000	369.00	0.13	-0.07	3.25	4.00	3.50	5.25	1.75	0.50	0.25	0.00	1.50	1.50	1.25	0.75	1.50	2.25	1.00	1.00	-0.160156	0.061523	0.975586	-2.520000	-3.710000	1.820000	300.00	-0.10	-0.05
0.59	1.00	1.50	1.50	1.75	1.50	0.25	1.25	0.75	2.50	2.00	5.50	5.25	3.75	5.75	1.00	2.00	-0.223145	0.058594	0.957031	-2.870000	5.460000	-1.190000	379.00	0.13	-0.07	3.25	4.00	3.75	5.00	1.75	0.75	0.25	0.00	1.50	1.75	1.25	0.75	1.50	2.25	1.25	0.75	-0.161621	0.064453	0.976562	-2.660000	-3.780000	1.820000	307.00	-0.09	-0.04
0.60	1.00	1.75	1.75	1.75	1.25	0.50	1.00	0.50	2.25	2.25	5.25	5.25	3.50	5.75	1.25	2.00	-0.225586	0.053711	0.946777	-2.870000	5.320000	-1.190000	374.00	0.13	-0.07	3.00	3.75	3.75	5.25	1.75	0.50	0.25	0.00	1.50	1.75	1.00	0.75	1.25	2.50	1.25	1.00	-0.160156	0.056641	0.977539	-2.660000	-3.780000	1.820000	300.00	-0.09	-0.04
0.61	1.25	1.75	1.75	2.00	1.25	0.50	1.00	0.50	2.25	1.75	5.25	5.25	3.25	5.75	1.00	1.75	-0.224121	0.059082	0.956543	-2.800000	5.530000	-1.190000	368.00	0.12	-0.07	3.25	4.25	3.75	5.00	1.75	0.50	0.25	0.25	1.50	1.75	1.25	1.00	1.25	2.00	1.25	1.00	-0.162598	0.059570	0.980469	-2.590000	-3.640000	1.960000	310.00	-0.09	-0.05
0.62	1.25	1.50	1.75	2.00	1.50	0.25	1.00	0.50	2.50	1.75	5.25	5.00	3.50	5.50	1.00	1.75	-0.226562	0.061523	0.951172	-2.800000	5.460000	-1.120000	366.00	0.12	-0.07	3.25	4.00	3.50	5.00	1.75	0.50	0.50	0.00	1.50	1.75	1.25	0.75	1.25	2.00	1.00	0.75	-0.165527	0.062012	0.980469	-2.520000	-3.570000	1.960000	298.00	-0.10	-0.04
0.63	1.25	2.00	1.75	2.00	1.25	0.25	1.00	0.50	2.00	1.75	5.00	5.25	3.25	5.50	1.00	1.75	-0.215820	0.058105	0.954590	-2.800000	5.600000	-1.050000	359.00	0.11	-0.07	3.50	4.25	3.50	5.25	1.75	1.00	0.50	0.00	1.50	1.50	1.25	0.75	1.50	2.50	1.00	1.00	-0.156738	0.064941	0.979980	-2.450000	-3.430000	1.960000	316.00	-0.10	-0.05
0.64	1.25	1.75	1.75	1.75	1.50	0.50	1.00	0.50	2.00	1.75	5.25	5.25	3.00	5.50	0.75	1.50	-0.217773	0.060547	0.944824	-2.800000	5.880000	-1.190000	356.00	0.11	-0.07	3.25	4.00	3.75	5.25	1.75	0.00	0.50	0.00	1.25	1.25	1.25	0.75	1.50	2.25	1.00	1.00	-0.166992	0.061035	0.980957	-2.380000	-3.430000	2.100000	295.00	-0.10	-0.04
0.65	1.00	1.75	1.50	1.75	1.25	0.50	1.00	0.25	2.25	2.00	5.25	5.25	3.00	5.50	0.75	1.50	-0.223145	0.060547	0.948730	-2.520000	6.020000	-1.190000	350.00	0.13	-0.07	3.50	4.25	3.75	5.50	1.75	0.50	0.25	0.00	1.50	1.50	1.25	0.75	1.50	2.25	1.00	0.75	-0.157715	0.067871	0.975586	-2.310000	-3.290000	2.030000	309.00	-0.11	-0.05
0.66	1.25	1.75	1.50	2.00	1.50	0.50	1.00	0.25	2.50	2.00	5.00	5.00	3.25	5.25	0.50	1.50	-0.220215	0.058105	0.953125	-2.240000	5.950000	-1.050000	354.00	0.11	-0.06	3.75	4.25	4.00	5.25	1.75	0.50	0.25	0.00	1.50	1.50	1.25	0.50	1.50	2.00	1.00	1.00	-0.161621	0.063477	0.980469	-2.310000	-3.220000	1.960000	308.00	-0.11	-0.04
0.67	1.25	2.00	1.75	2.25	1.50	0.25	1.00	0.50	2.00	1.75	5.00	5.00	3.00	5.25	0.75	1.50	-0.216797	0.061523	0.955566	-2.100000	6.090000	-1.120000	354.00	0.10	-0.07	3.75	4.00	3.75	5.25	1.75	0.50	0.50	0.25	1.25	1.50	1.25	0.75	1.50	2.25	1.00	1.00	-0.160156	0.059570	0.977539	-2.310000	-3.150000	1.890000	312.00	-0.10	-0.05
0.68	1.25	1.75	1.75	1.75	1.25	0.25	1.25	0.50	2.25	2.00	5.00	4.75	3.00	5.00	0.50	1.50	-0.215332	0.063477	0.949707	-1.960000	6.090000	-1.190000	346.00	0.11	-0.06	3.75	4.25	3.75	5.50	2.00	0.75	0.25	0.00	1.50	1.25	1.25	0.75	1.50	2.25	1.00	1.00	-0.163574	0.066406	0.975098	-2.240000	-3.010000	2.030000	316.00	-0.11	-0.05
0.69	1.25	1.75	2.00	2.00	1.25	0.25	1.00	0.50	2.25	1.75	5.00	5.00	3.00	5.25	0.75	1.25	-0.216797	0.058594	0.952637	-1.960000	6.370000	-1.190000	351.00	0.11	-0.06	3.75	4.25	3.75	5.50	1.75	0.25	0.25	0.00	1.50	1.50	1.25	0.75	1.25	2.00	1.00	1.00	-0.162109	0.063965	0.978027	-2.170000	-3.010000	1.890000	306.00	-0.11	-0.04
0.70	1.25	2.00	1.75	2.00	1.25	0.25	1.00	0.50	2.00	1.75	5.00	4.75	3.00	5.00	0.50	1.50	-0.222656	0.059082	0.956543	-1.960000	6.510000	-1.330000	341.00	0.10	-0.07	3.50	4.50	4.00	5.50	1.75	0.50	0.50	0.25	1.50	1.50	1.00	0.75	1.50	2.00	1.25	1.00	-0.164551	0.060059	0.977539	-2.170000	-2.940000	1.890000	321.00	-0.11	-0.05
0.71	1.25	2.00	1.75	2.00	1.25	0.50	1.25	0.25	2.25	2.00	5.25	4.75	2.75	5.00	0.50	1.25	-0.219238	0.059082	0.950195	-2.310000	6.300000	-1.330000	349.00	0.10	-0.06	3.75	4.50	4.00	5.50	2.00	0.50	0.50	0.00	1.50	1.25	1.25	0.75	1.25	2.25	1.00	1.00	-0.161133	0.064453	0.975098	-2.240000	-3.010000	1.960000	320.00	-0.11	-0.04
0.72	1.25	2.00	2.00	2.25	1.50	0.50	1.00	0.50	2.00	2.00	5.00	4.50	3.00	5.00	0.75	1.50	-0.222656	0.057129	0.950195	-2.240000	6.370000	-1.400000	355.00	0.10	-0.07	4.00	4.25	4.00	5.50	1.50	0.75	0.25	0.00	1.50	1.75	1.00	0.75	1.75	2.00	1.00	1.00	-0.161133	0.063477	0.979004	-2.380000	-3.150000	1.960000	318.00	-0.11	-0.05
0.73	1.25	2.00	2.00	2.00	1.25	0.25	1.00	0.50	2.50	2.00	5.00	4.50	3.00	5.00	0.50	1.50	-0.216797	0.056641	0.952637	-2.170000	6.230000	-1.260000	350.00	0.10	-0.06	3.75	4.75	4.00	5.50	1.75	0.50	0.50	0.25	1.25	1.50	1.25	0.50	1.75	2.25	1.00	1.00	-0.158691	0.065918	0.979004	-2.240000	-3.220000	1.960000	324.00	-0.11	-0.05
0.74	1.25	2.25	2.25	2.25	1.25	0.50	1.25	0.50	2.50	2.00	5.50	4.75	2.75	5.25	0.50	1.25	-0.215820	0.060059	0.951660	-2.240000	6.230000	-1.400000	371.00	0.09	-0.06	4.00	4.50	4.25	5.50	1.75	0.50	0.50	0.00	1.50	1.50	1.25	0.75	1.25	2.00	1.00	1.00	-0.160156	0.062988	0.983398	-2.240000	-3.220000	1.960000	323.00	-0.12	-0.04
0.75	1.25	2.25	2.00	2.25	1.50	0.50	1.00	0.50	2.25	2.00	5.00	4.25	3.00	5.25	0.50	1.25	-0.213379	0.059082	0.949219	-2.170000	6.230000	-1.400000	356.00	0.09	-0.06	3.75	4.50	4.00	5.50	2.00	0.50	0.25	0.00	1.50	1.50	1.00	0.75	1.25	2.25	1.25	0.75	-0.160156	0.063965	0.983398	-2.240000	-3.150000	1.890000	317.00	-0.11	-0.04
0.76	1.50	2.00	2.25	2.50	1.50	0.50	1.00	0.50	2.50	2.00	5.00	4.50	3.00	5.00	0.75	1.25	-0.216797	0.060547	0.955566	-2.170000	6.300000	-1.400000	368.00	0.09	-0.06	4.00	4.75	4.25	5.50	2.00	0.50	0.50	0.25	1.50	1.50	1.00	0.75	1.25	2.25	1.00	0.75	-0.164062	0.057617	0.976562	-2.450000	-3.570000	1.960000	330.00	-0.12	-0.04
0.77	1.25	2.00	2.25	2.00	1.50	0.50	1.25	0.50	2.00	2.25	5.25	4.50	3.00	5.00	0.75	1.25	-0.223633	0.058594	0.946777	-1.960000	6.370000	-1.400000	362.00	0.10	-0.06	3.75	4.75	4.25	5.50	2.00	0.75	0.25	0.00	1.25	1.25	1.00	0.50	1.25	2.00	1.00	0.75	-0.162109	0.060059	0.976074	-2.450000	-3.570000	1.960000	312.00	-0.14	-0.04
0.78	1.50	2.25	2.25	2.50	1.50	0.50	1.25	0.50	2.00	2.00	5.00	4.50	3.00	5.00	0.50	1.25	-0.223633	0.054688	0.951660	-1.890000	6.300000	-1.330000	365.00	0.08	-0.06	3.75	4.75	4.00	5.50	2.00	0.75	0.25	0.00	1.50	1.25	1.25	0.75	1.25	2.25	1.00	1.00	-0.160156	0.062988	0.974121	-2.380000	-3.570000	1.890000	321.00	-0.12	-0.04
0.79	1.50	2.25	2.25	2.50	1.50	0.50	1.25	0.50	2.00	2.25	5.00	4.50	3.00	5.00	0.50	1.25	-0.220215	0.055664	0.948242	-1.750000	6.300000	-1.330000	367.00	0.08	-0.06	3.75	4.50	4.00	5.50	1.75	0.50	0.50	0.00	1.25	1.50	1.25	0.50	1.50	2.00	1.00	0.75	-0.162109	0.060059	0.979492	-2.520000	-3.710000	1.820000	312.00	-0.12	-0.04
0.80	1.50	2.25	2.00	2.25	1.50	0.75	1.00	0.50	2.25	2.25	5.00	4.50	3.00	5.00	0.75	1.25	-0.217285	0.060059	0.948730	-1.610000	6.300000	-1.190000	367.00	0.09	-0.06	4.25	4.50	4.00	5.50	1.75	0.50	0.25	0.00	1.50	1.50	1.25	0.75	1.50	2.00	1.25	1.00	-0.163086	0.063965	0.977051	-2.450000	-3.710000	1.820000	324.00	-0.11	-0.04
0.81	1.50	2.50	2.25	2.50	1.25	0.25	1.25	0.50	2.50	2.25	4.75	4.25	2.75	5.00	0.75	1.25	-0.213379	0.055176	0.951660	-1.680000	6.440000	-1.190000	366.00	0.08	-0.05	3.75	4.50	4.25	5.75	1.50	1.00	0.50	0.00	1.50	1.50	1.00	0.50	1.25	2.00	1.00	1.00	-0.158691	0.064453	0.975098	-2.450000	-3.640000	1.890000	320.00	-0.12	-0.04
0.82	1.75	2.25	2.25	2.25	1.50	0.50	1.00	0.50	2.50	2.00	5.00	4.25	2.75	5.00	0.75	1.25	-0.221680	0.058105	0.950195	-1.610000	6.580000	-1.330000	365.00	0.08	-0.05	3.75	4.50	4.25	5.50	2.00	0.50	0.50	0.00	1.25	1.25	1.00	0.75	1.25	2.00	1.00	0.75	-0.163086	0.060059	0.978516	-2.450000	-3.500000	1.890000	313.00	-0.13	-0.04
0.83	1.50	2.50	2.00	2.25	1.50	0.75	1.25	0.50	2.00	2.25	4.75	4.25	2.75	5.00	0.75	1.50	-0.217773	0.054688	0.946777	-1.540000	6.510000	-1.260000	363.00	0.08	-0.06	4.00	4.75	4.25	5.50	1.75	0.75	0.50	0.00	1.25	1.50	1.25	1.00	1.25	2.00	1.00	1.00	-0.164062	0.063965	0.976562	-2.450000	-3.640000	1.960000	327.00	-0.12	-0.05
0.84	1.50	2.50	2.25	2.25	1.50	0.50	1.25	0.50	2.50	2.00	4.75	4.25	3.00	5.00	0.75	1.25	-0.215332	0.054688	0.957520	-1.400000	6.580000	-1.260000	368.00	0.08	-0.05	4.00	4.50	4.00	5.75	2.00	0.50	0.50	0.00	1.25	1.50	1.00	0.75	1.50	2.25	1.00	1.00	-0.160156	0.062012	0.976562	-2.450000	-3.640000	1.890000	324.00	-0.12	-0.04
0.85	1.50	2.50	2.00	2.75	1.50	0.75	1.00	0.50	2.50	2.00	4.75	4.00	2.75	5.00	0.75	1.25	-0.220703	0.058594	0.950195	-1.470000	6.790000	-1.400000	365.00	0.08	-0.06	4.00	5.00	4.25	5.50	1.75	0.50	0.50	0.00	1.25	1.25	1.00	0.75	1.25	2.25	1.00	1.00	-0.165527	0.060547	0.978027	-2.380000	-3.640000	1.890000	321.00	-0.13	-0.04
0.86	1.50	2.50	2.00	2.50	1.50	1.00	1.25	0.50	2.50	2.00	4.50	4.00	3.00	5.00	0.75	1.25	-0.214844	0.056641	0.951660	-1.470000	7.210000	-1.400000	368.00	0.08	-0.06	3.75	4.75	4.00	5.50	1.75	0.50	0.50	0.00	1.00	1.50	1.00	0.75	1.25	2.00	1.00	0.75	-0.163086	0.061523	0.972656	-2.450000	-3.710000	1.960000	309.00	-0.13	-0.05
0.87	1.75	2.50	2.25	2.50	1.50	0.75	1.00	0.50	2.25	2.00	4.25	4.00	2.75	5.00	0.75	1.25	-0.218750	0.053711	0.951660	-1.540000	7.280000	-1.400000	359.00	0.07	-0.06	4.00	4.75	4.25	5.50	1.75	0.50	0.50	0.25	1.25	1.50	1.00	0.50	1.25	1.75	1.00	1.00	-0.165527	0.059082	0.982422	-2.520000	-3.920000	2.030000	318.00	-0.13	-0.04
0.88	1.75	2.25	2.25	2.50	1.50	0.50	1.00	0.50	2.50	2.25	4.50	4.00	3.00	5.00	1.00	1.25	-0.224121	0.055664	0.955078	-1.470000	7.420000	-1.540000	367.00	0.08	-0.05	4.00	4.75	4.25	5.75	1.75	0.50	0.50	0.25	1.50	1.50	1.25	0.75	1.25	2.00	0.75	0.75	-0.164062	0.059570	0.978027	-2.520000	-3.990000	2.030000	328.00	-0.13	-0.04
0.89	1.50	2.25	2.00	2.25	1.50	0.75	1.25	0.50	2.25	1.75	4.25	3.75	3.00	5.00	0.75	1.25	-0.222656	0.058594	0.953125	-1.400000	7.490000	-1.470000	349.00	0.08	-0.06	4.00	5.00	4.25	5.75	1.75	0.50	0.25	0.00	1.50	1.25	1.25	0.75	1.25	2.00	1.00	0.75	-0.158203	0.062988	0.981934	-2.520000	-4.270000	2.030000	322.00	-0.13	-0.04
0.90	1.50	2.50	2.00	2.50	1.50	0.50	1.00	0.50	2.25	1.50	4.25	4.00	2.75	5.00	1.00	1.25	-0.220703	0.049805	0.953125	-1.330000	7.770000	-1.470000	349.00	0.08	-0.06	4.00	5.00	4.50	5.75	1.75	0.50	0.50	0.00	1.25	1.50	1.25	0.50	1.25	2.00	1.00	1.00	-0.155762	0.064453	0.979004	-2.590000	-4.620000	1.890000	327.00	-0.13	-0.04
0.91	1.50	2.25	2.25	2.25	1.50	0.50	1.00	0.50	2.00	1.75	4.00	4.00	2.75	4.75	0.75	1.25	-0.225098	0.059082	0.957520	-1.260000	8.400000	-1.400000	338.00	0.07	-0.06	4.00	5.00	4.75	5.75	2.00	0.75	0.25	0.00	1.50	1.50	1.25	1.00	1.50	2.00	1.00	1.00	-0.161621	0.065430	0.979004	-2.730000	-5.040000	2.100000	342.00	-0.12	-0.05
0.92	1.50	2.50	2.00	2.50	1.50	1.00	1.25	0.50	1.75	1.75	3.75	4.00	2.75	4.75	0.75	1.25	-0.221680	0.056641	0.953125	-0.630000	9.310000	-1.400000	344.00	0.06	-0.07	4.50	5.00	4.25	6.00	2.00	0.75	0.50	0.00	1.50	1.25	1.00	0.75	1.50	2.00	1.00	1.00	-0.159180	0.062012	0.979492	-2.590000	-6.300000	2.100000	341.00	-0.13	-0.04
0.93	1.50	2.25	2.00	2.25	1.25	0.75	1.00	0.50	2.00	1.50	3.50	3.75	2.75	4.75	0.75	1.25	-0.224609	0.058594	0.952637	-0.070000	9.590000	-1.260000	325.00	0.07	-0.06	4.50	5.25	4.75	6.25	2.00	1.00	0.25	0.00	1.25	1.50	1.00	0.75	1.50	2.00	1.00	1.00	-0.159180	0.062012	0.979492	-2.590000	-6.300000	2.100000	349.00	-0.14	-0.05
0.94	1.50	2.50	2.00	2.50	1.50	0.75	1.00	0.50	1.75	1.25	3.25	3.50	2.50	4.75	0.75	1.00	-0.222656	0.059570	0.948730	1.470000	9.730000	-1.050000	318.00	0.06	-0.06	5.00	5.25	4.75	6.25	2.00	0.75	0.50	0.00	1.50	1.25	1.25	0.75	1.50	2.00	1.25	1.00	-0.161133	0.062500	0.976074	-2.660000	-6.930000	2.170000	362.00	-0.14	-0.04
0.95	1.50	2.75	1.75	2.50	1.50	1.00	1.25	0.50	1.75	1.25	3.00	3.25	2.50	4.00	0.75	0.75	-0.223145	0.063477	0.940918	1.470000	10.220000	-1.120000	311.00	0.04	-0.06	5.00	5.25	5.00	6.25	2.25	0.75	0.50	0.25	1.50	1.25	1.00	0.75	1.50	2.25	1.00	1.00	-0.162598	0.067383	0.980469	-2.800000	-7.630000	2.170000	368.00	-0.14	-0.04
0.96	1.25	2.00	1.75	2.50	1.50	0.50	1.00	0.50	1.50	1.00	3.00	3.00	2.25	3.75	0.50	0.75	-0.222656	0.062500	0.948242	1.260000	10.850000	-1.330000	277.00	0.05	-0.06	5.00	5.50	5.50	6.50	2.25	1.25	0.50	0.25	1.25	1.25	1.00	1.00	1.50	2.00	1.00	0.75	-0.158691	0.063965	0.981934	-2.870000	-8.190000	2.240000	380.00	-0.15	-0.05
0.97	1.50	2.25	2.00	2.25	1.25	0.75	1.00	0.50	1.50	1.00	2.75	3.25	2.25	4.00	0.50	0.50	-0.226562	0.059570	0.948242	0.700000	11.410000	-1.820000	283.00	0.04	-0.06	6.25	5.50	5.75	7.00	2.25	1.00	0.50	0.00	1.25	1.50	1.25	0.75	1.50	2.00	1.00	0.50	-0.153809	0.063477	0.977539	-3.080000	-8.190000	2.100000	396.00	-0.16	-0.04
0.98	1.75	2.00	1.75	2.25	1.25	0.75	1.00	0.25	1.25	1.00	2.50	3.00	2.25	3.50	0.50	0.50	-0.223633	0.059570	0.954590	0.280000	11.760000	-2.030000	264.00	0.03	-0.06	6.50	6.25	6.00	7.50	2.50	1.25	0.50	0.25	1.25	1.50	1.00	0.75	1.75	2.25	1.00	0.75	-0.158203	0.060547	0.981934	-3.010000	-8.120000	2.170000	426.00	-0.16	-0.05
0.99	1.25	2.50	2.00	2.25	1.25	0.50	1.00	0.25	1.25	0.50	2.00	2.75	2.00	3.50	0.25	0.50	-0.235352	0.068359	0.948242	0.630000	12.250000	-1.960000	245.00	0.02	-0.06	7.25	6.50	6.00	7.75	2.50	1.25	0.50	0.25	1.25	1.00	1.00	0.75	1.75	2.00	1.00	1.00	-0.150879	0.062988	0.984375	-3.080000	-7.700000	2.170000	433.00	-0.18	-0.05
1.00	1.50	2.50	2.00	2.25	1.25	0.50	1.00	0.50	0.75	0.75	1.50	2.25	1.75	3.00	0.00	0.50	-0.235352	0.060547	0.956543	1.540000	13.300000	-1.820000	228.00	-0.01	-0.06	7.50	7.25	7.00	8.25	2.50	1.50	0.50	0.00	1.25	1.25	1.25	0.75	1.75	2.00	1.00	1.00	-0.152832	0.061523	0.990723	-3.080000	-7.350000	2.030000	463.00	-0.18	-0.05
1.01	1.25	2.00	1.50	1.75	1.25	0.50	1.00	0.25	0.75	0.75	1.50	1.75	1.50	3.00	0.00	0.00	-0.237305	0.059082	0.949219	2.870000	14.980000	-1.610000	196.00	0.00	-0.04	8.00	7.75	7.50	8.50	2.75	1.25	0.50	0.25	1.25	1.50	1.00	0.75	1.75	2.00	1.00	0.75	-0.154785	0.061523	0.979004	-3.220000	-7.350000	1.960000	483.00	-0.19	-0.05
1.02	1.25	2.25	1.75	1.75	1.25	0.25	0.75	0.25	0.75	0.50	1.00	1.75	1.25	1.25	0.00	0.00	-0.237305	0.049316	0.957520	4.060000	16.100000	-1.610000	169.00	-0.06	-0.06	8.75	8.25	7.75	9.00	2.75	1.75	0.50	0.25	1.25	1.50	1.00	0.75	1.75	2.00	1.00	1.00	-0.151855	0.061523	0.980957	-3.150000	-7.140000	2.100000	511.00	-0.19	-0.05
1.03	1.25	2.00	1.75	2.25	1.25	0.00	0.75	0.25	0.25	0.25	0.75	1.00	1.00	2.00	0.00	0.25	-0.244629	0.066895	0.947266	5.390000	17.150000	-1.540000	156.00	-0.07	-0.05	9.00	8.25	7.75	9.00	2.75	2.00	0.50	0.25	1.25	1.25	1.00	0.75	1.75	1.75	1.00	1.00	-0.153809	0.062988	0.983887	-3.290000	-6.860000	2.030000	511.00	-0.20	-0.05
1.04	1.25	2.00	2.00	2.00	1.25	0.00	0.75	0.00	0.00	0.50	1.00	1.25	1.00	2.00	0.25	0.00	-0.244141	0.070801	0.951172	6.300000	17.500000	-1.400000	158.00	-0.06	-0.04	9.75	8.75	8.25	9.25	3.00	2.00	0.50	0.25	1.25	1.50	0.75	0.75	1.75	2.00	1.00	0.75	-0.150879	0.063477	0.982422	-3.360000	-6.510000	1.960000	536.00	-0.20	-0.05
1.05	1.50	2.25	2.25	2.00	1.00	0.25	0.75	0.25	0.00	0.25	0.50	1.00	1.00	1.50	0.00	0.00	-0.250488	0.091309	0.941895	8.470000	17.710001	-1.750000	152.00	-0.12	-0.06	10.25	9.25	8.25	9.50	3.00	2.00	0.50	0.25	1.25	1.25	1.00	0.50	1.75	2.00	1.25	0.75	-0.152344	0.059570	0.981934	-3.290000	-6.020000	1.890000	548.00	-0.20	-0.05
1.06	1.50	2.25	2.00	2.00	1.25	0.25	0.75	0.00	0.00	0.25	0.50	0.75	0.50	1.25	0.00	0.00	-0.247070	0.068359	0.954102	10.430000	17.639999	-2.310000	139.00	-0.14	-0.03	10.50	9.50	8.50	9.75	3.25	2.00	0.50	0.25	1.25	1.50	1.00	1.00	1.50	2.00	1.00	0.50	-0.150391	0.060547	0.987793	-3.150000	-5.530000	2.030000	563.00	-0.21	-0.04
1.07	1.50	1.75	2.25	2.25	1.25	0.25	0.50	0.00	0.00	0.25	0.25	0.25	0.50	1.00	0.00	0.00	-0.255859	0.049316	0.955078	12.180000	17.290001	-2.870000	126.00	-0.18	-0.03	11.00	9.75	8.75	9.75	3.25	2.25	0.50	0.25	1.00	1.50	0.75	1.00	1.75	2.00	1.00	1.00	-0.148438	0.061035	0.981934	-3.010000	-5.040000	1.960000	575.00	-0.21	-0.05
1.08	1.75	2.25	1.75	2.00	1.00	0.25	0.75	0.00	0.00	0.25	0.25	0.50	0.25	0.75	0.00	0.00	-0.265137	0.048828	0.935547	12.180000	19.530001	-3.710000	124.00	-0.18	-0.03	11.00	10.00	9.00	9.75	3.50	2.25	0.50	0.50	1.25	1.25	0.75	0.75	1.50	1.75	1.00	0.75	-0.148438	0.061035	0.983398	-2.730000	-4.620000	1.960000	579.00	-0.22	-0.05
1.09	1.75	2.00	2.25	2.25	1.00	0.00	0.75	0.00	0.00	0.25	0.25	0.25	0.00	1.00	0.00	0.00	-0.291504	0.049316	0.990723	10.780000	17.850000	-5.180000	125.00	-0.19	-0.00	11.50	10.00	8.75	10.00	3.50	2.50	0.50	0.25	1.25	1.25	1.00	0.75	1.50	2.00	1.00	0.50	-0.152344	0.061523	0.988770	-2.380000	-4.130000	2.100000	586.00	-0.22	-0.04
1.10	2.00	2.50	2.00	2.25	1.25	0.25	0.75	0.00	0.00	0.25	0.50	0.00	0.00	1.25	0.00	0.00	-0.239258	0.031250	0.949219	11.060000	14.840000	-7.420000	137.00	-0.19	-0.01	12.00	10.25	9.25	10.00	3.50	2.25	0.50	0.25	1.50	1.25	1.00	0.75	1.50	2.00	1.00	0.75	-0.154297	0.053223	0.983887	-1.890000	-3.640000	2.310000	601.00	-0.21	-0.04
1.11	1.75	2.75	2.00	2.00	1.00	0.00	0.50	0.00	0.00	0.00	0.25	0.00	0.00	0.25	0.00	0.00	-0.224121	0.019531	0.906738	11.130000	12.180000	-9.660000	111.00	-0.26	-0.02	12.25	10.50	9.25	10.50	3.50	2.50	0.50	0.50	1.25	1.25	1.00	1.00	1.75	2.00	1.00	0.75	-0.149414	0.062500	0.986816	-1.400000	-3.220000	2.380000	620.00	-0.21	-0.05
1.12	2.25	2.50	2.00	1.75	1.00	0.00	0.50	0.00	0.00	0.25	0.50	0.00	0.00	1.00	0.00	0.00	-0.237793	0.051758	0.950195	10.080000	10.010000	-12.250000	123.00	-0.21	-0.00	12.25	10.50	9.25	10.25	3.25	2.50	0.50	0.50	1.25	1.50	1.25	0.50	1.75	2.00	1.00	0.75	-0.149902	0.057129	0.982910	-1.120000	-3.010000	2.520000	614.00	-0.21	-0.05
1.13	2.25	3.25	2.25	1.75	1.00	0.50	0.75	0.00	0.00	0.25	0.25	0.00	0.00	0.75	0.00	0.00	-0.233398	0.112305	0.946777	9.310000	7.210000	-12.880000	137.00	-0.23	-0.01	11.75	10.50	9.00	10.25	3.50	2.50	0.50	0.50	1.00	1.25	1.00	0.75	1.75	2.00	1.00	1.00	-0.149414	0.061035	0.983887	-0.770000	-2.590000	2.590000	605.00	-0.22	-0.05
1.14	2.25	3.00	2.50	2.25	1.00	0.00	0.50	0.00	0.00	0.00	0.25	0.00	0.00	0.50	0.00	0.00	-0.232422	0.159180	0.921875	7.350000	5.320000	-10.220000	129.00	-0.26	-0.02	12.25	10.50	9.00	10.50	3.50	2.50	0.50	0.25	1.25	1.50	1.25	1.00	1.75	1.75	1.00	0.75	-0.149902	0.061035	0.984375	-0.350000	-2.310000	2.660000	616.00	-0.21	-0.05
1.15	2.25	3.00	2.25	2.25	1.25	0.00	0.50	0.00	0.00	0.25	0.25	0.00	0.00	1.00	0.00	0.00	-0.220703	0.115723	0.914062	1.470000	6.720000	-1.610000	136.00	-0.23	-0.01	12.00	10.25	9.00	10.50	3.50	2.75	0.50	0.50	1.25	1.50	1.25	1.00	1.75	1.75	1.00	1.00	-0.145996	0.059082	0.979004	-0.000000	-2.030000	2.800000	619.00	-0.21	-0.05
1.16	2.50	2.75	2.75	2.25	1.25	0.00	0.75	0.00	0.00	0.00	0.25	0.00	0.25	0.50	0.00	0.00	-0.241211	0.079102	0.932617	-2.380000	7.490000	-0.630000	141.00	-0.24	-0.01	11.75	10.25	9.00	10.25	3.50	2.75	0.50	0.75	1.50	1.50	1.25	1.00	1.75	1.75	1.00	0.75	-0.154785	0.064453	0.984375	0.840000	-1.260000	2.940000	620.00	-0.21	-0.05
1.17	2.25	3.25	2.50	2.00	1.25	0.00	0.50	0.00	0.00	0.25	0.00	0.00	0.00	0.75	0.00	0.00	-0.239746	0.082031	0.934082	-4.410000	7.350000	-0.980000	133.00	-0.25	-0.01	12.00	10.25	9.25	10.00	3.25	2.75	0.50	0.50	1.00	1.25	1.25	1.00	2.00	1.75	0.75	0.75	-0.155273	0.062988	0.982422	1.260000	-0.700000	3.150000	606.00	-0.22	-0.05
1.18	2.50	2.75	2.50	2.25	1.25	0.00	0.50	0.00	0.00	0.00	0.00	0.00	0.00	0.50	0.00	0.00	-0.241211	0.089844	0.931152	-6.440000	7.770000	-0.910000	129.00	-0.27	-0.01	11.75	10.00	8.75	10.25	3.00	2.50	0.50	0.50	1.00	1.50	1.25	1.00	1.75	1.75	1.00	1.00	-0.153320	0.067383	0.989258	1.820000	-0.140000	3.430000	597.00	-0.21	-0.05
1.19	2.50	2.75	2.25	2.50	1.50	0.50	0.50	0.00	0.00	0.00	0.25	0.00	0.00	0.50	0.00	0.00	-0.241699	0.083984	0.939941	-8.960000	7.490000	-0.700000	140.00	-0.25	-0.02	11.50	10.00	8.75	10.25	3.00	2.75	0.50	0.50	1.00	1.25	1.25	1.00	2.00	1.50	1.00	1.00	-0.154297	0.060059	0.986816	2.030000	0.350000	3.430000	595.00	-0.21	-0.06
1.20	2.50	3.25	2.50	2.50	1.00	0.00	0.75	0.00	0.00	0.00	0.25	0.00	0.00	0.25	0.00	0.00	-0.241211	0.085449	0.935547	-11.620000	6.930000	-0.490000	138.00	-0.27	-0.02	11.25	9.75	8.50	10.00	3.00	3.00	0.50	0.50	1.00	1.25	1.25	1.00	2.25	1.75	1.00	0.75	-0.145508	0.064453	0.980957	2.520000	0.910000	3.500000	590.00	-0.21	-0.06
1.21	2.50	3.00	2.50	2.75	1.25	0.00	0.50	0.00	0.00	0.00	0.25	0.00	0.25	1.00	0.00	0.00	-0.245117	0.074219	0.939941	-13.790000	5.530000	-0.140000	146.00	-0.24	-0.02	10.50	9.50	8.50	10.00	2.75	2.75	0.50	0.50	1.00	1.50	1.50	1.00	2.00	1.75	1.00	1.25	-0.150879	0.066406	0.981445	2.870000	1.050000	3.290000	580.00	-0.20	-0.06
1.22	2.75	3.50	2.75	2.50	1.25	0.50	0.50	0.00	0.00	0.00	0.00	0.00	0.00	0.75	0.00	0.00	-0.237793	0.079102	0.940918	-16.379999	3.500000	0.070000	152.00	-0.26	-0.02	10.25	9.25	8.25	9.75	2.75	2.75	0.50	0.50	0.75	1.25	1.25	1.25	2.25	1.50	1.00	1.00	-0.150391	0.067383	0.977539	3.290000	1.190000	3.150000	563.00	-0.20	-0.07
1.23	3.00	4.00	2.50	2.75	1.50	0.25	0.75	0.00	0.00	0.00	0.00	0.00	0.25	1.00	0.00	0.00	-0.240234	0.073730	0.939941	-19.460001	1.050000	-0.140000	167.00	-0.25	-0.02	9.25	9.00	8.00	9.75	2.75	2.75	0.50	0.75	1.00	1.50	1.25	1.25	3.00	1.25	0.75	1.00	-0.145996	0.068848	0.979980	3.710000	1.610000	3.150000	559.00	-0.19	-0.07
1.24	3.00	4.00	3.00	2.50	1.25	0.25	0.75	0.00	0.00	0.25	0.00	0.50	0.25	1.00	0.00	0.00	-0.248535	0.069336	0.974121	-22.750000	-1.680000	-0.350000	175.00	-0.23	-0.02	9.00	8.50	7.50	9.25	2.50	2.25	0.50	0.50	1.00	1.25	1.50	1.25	2.50	1.50	1.00	1.00	-0.138672	0.064941	0.979980	4.200000	1.960000	3.080000	529.00	-0.19	-0.07
1.25	3.25	4.25	3.25	3.50	1.50	0.75	0.75	0.25	0.00	0.25	0.25	0.25	0.50	1.25	0.00	0.00	-0.246582	0.055176	0.988770	-22.120001	-5.740000	-0.420000	210.00	-0.22	-0.04	7.75	8.00	6.75	9.00	2.25	2.25	0.50	0.50	0.75	1.25	1.50	1.25	2.50	1.50	1.00	1.25	-0.160156	0.083008	0.978516	5.180000	3.150000	3.010000	496.00	-0.18	-0.08
1.26	4.25	5.50	4.00	4.50	1.50	1.00	1.00	0.25	0.50	0.25	0.25	0.00	0.75	1.25	0.00	0.00	-0.251953	0.060059	0.943359	-16.379999	-9.590000	-0.490000	264.00	-0.22	-0.04	6.75	7.00	6.25	8.25	2.00	2.00	0.50	0.75	1.00	1.25	1.75	1.75	3.00	1.25	0.75	1.00	-0.154297	0.075684	0.982422	5.810000	4.550000	2.590000	470.00	-0.16	-0.09
1.27	4.25	5.50	3.75	4.00	1.75	0.75	1.00	0.25	0.50	0.25	0.25	0.25	0.75	1.75	0.25	0.00	-0.236816	0.066406	0.951660	-14.000000	-11.620000	-0.280000	265.00	-0.20	-0.03	5.75	6.25	5.50	8.00	1.75	1.75	0.25	0.50	1.00	1.50	1.75	1.25	3.25	1.25	0.75	1.00	-0.156738	0.071289	0.993652	6.860000	6.860000	1.750000	428.00	-0.15	-0.09
1.28	5.25	5.50	4.25	5.00	2.00	0.50	1.00	0.25	0.75	0.25	0.00	0.25	0.75	1.75	0.50	0.00	-0.241211	0.057129	0.953125	-13.300000	-12.810000	-0.560000	295.00	-0.21	-0.02	5.00	5.50	4.75	7.25	1.50	1.25	0.25	0.75	0.75	1.25	1.75	1.50	3.00	1.00	1.00	1.25	-0.161133	0.081055	0.991699	7.210000	10.150000	1.050000	389.00	-0.14	-0.10
1.29	6.25	6.50	4.75	5.00	2.25	1.00	1.00	0.25	0.75	0.50	0.50	0.50	1.00	2.00	0.25	0.25	-0.238281	0.049316	0.951660	-11.690000	-13.510000	-0.770000	342.00	-0.20	-0.03	3.25	4.00	3.00	5.75	1.25	1.00	0.25	0.50	0.75	1.25	1.75	1.25	3.00	1.00	1.00	1.25	-0.159668	0.082520	0.987305	6.930000	13.580000	0.420000	309.00	-0.10	-0.11
1.30	7.00	8.75	5.50	5.50	2.00	1.25	1.00	0.50	1.00	0.50	0.50	0.25	1.25	2.25	0.25	0.25	-0.231445	0.052734	0.941895	-10.430000	-14.140000	-0.700000	393.00	-0.21	-0.04	1.75	2.75	2.25	4.75	0.75	0.50	0.25	0.50	0.75	1.00	1.75	1.50	3.25	0.75	1.00	1.00	-0.168945	0.079102	0.993164	5.880000	17.010000	-0.910000	251.00	-0.06	-0.13
1.31	8.25	9.50	6.50	6.50	2.50	1.50	1.25	0.50	0.75	0.50	0.75	0.50	1.25	2.00	0.50	0.25	-0.232422	0.050293	0.949707	-9.310000	-15.470000	-0.490000	450.00	-0.22	-0.04	1.25	1.50	1.50	3.25	0.50	0.25	0.25	0.25	0.50	1.00	1.50	1.50	3.25	0.50	0.75	1.25	-0.179199	0.087402	1.007812	4.830000	21.700001	-2.030000	191.00	-0.02	-0.14
1.32	9.75	11.50	7.00	8.00	2.50	1.50	1.25	0.50	0.75	0.75	0.50	0.75	1.25	2.25	0.25	0.25	-0.218262	0.051270	0.958008	-7.840000	-16.520000	0.140000	508.00	-0.23	-0.04	0.75	0.75	1.00	2.75	0.50	0.00	0.25	0.25	0.50	0.75	1.50	1.50	3.25	0.50	0.75	1.00	-0.188965	0.085449	1.010742	2.380000	27.299999	-3.500000	161.00	0.03	-0.16
1.33	11.50	12.75	8.00	8.75	2.75	1.75	1.00	0.50	1.25	0.75	0.50	1.00	1.50	2.50	0.25	0.25	-0.216797	0.055664	0.959473	-6.300000	-15.190001	0.420000	572.00	-0.23	-0.04	0.25	0.25	0.75	1.25	0.00	0.00	0.00	0.00	0.25	0.75	1.50	1.50	3.25	0.25	1.00	0.75	-0.124023	0.182617	1.001465	-1.260000	35.209999	-7.280000	114.00	0.11	-0.19
1.34	13.00	14.25	8.75	9.50	2.75	2.75	1.25	0.50	1.25	0.75	1.00	0.75	1.50	2.50	0.50	0.50	-0.210449	0.052246	0.953125	-5.390000	-12.950000	0.000000	639.00	-0.23	-0.04	0.25	0.00	0.50	1.00	0.00	0.00	0.00	0.25	0.00	0.50	1.25	1.25	2.25	0.25	0.50	0.75	-0.208008	0.030762	1.037598	-10.010000	57.959999	-17.290001	85.00	0.11	-0.22
1.35	14.50	16.25	9.25	10.50	3.25	2.25	1.25	0.50	1.00	0.75	0.75	1.00	1.50	2.25	0.25	0.25	-0.196777	0.054688	0.951172	-4.900000	-12.250000	-0.210000	680.00	-0.25	-0.05	0.00	0.00	0.00	1.75	0.00	0.00	0.00	0.00	0.00	0.75	1.00	0.50	1.75	0.25	0.50	0.50	-0.210938	0.077148	1.067871	3.290000	150.919998	-18.270000	68.00	0.09	-0.21
1.36	15.25	17.25	9.50	11.50	3.50	3.25	1.25	0.75	1.00	1.00	0.75	0.75	2.00	2.50	0.50	0.50	-0.203613	0.051270	0.964844	-3.780000	-8.400000	-0.420000	739.00	-0.24	-0.05	0.00	0.00	0.00	1.25	0.00	0.00	0.00	0.00	0.00	0.50	0.50	0.50	1.00	0.25	0.50	1.00	-0.228027	0.079102	1.202148	0.490000	160.020004	-19.180000	51.00	0.12	-0.21
1.37	16.50	18.50	9.75	12.00	4.25	3.25	1.25	0.75	1.25	1.00	1.00	1.50	2.00	2.75	0.25	0.50	-0.205566	0.051270	0.967285	-2.310000	-5.040000	-0.420000	793.00	-0.24	-0.05	0.00	0.00	0.00	0.75	0.00	0.00	0.00	0.00	0.00	0.50	0.25	0.25	0.25	0.00	0.25	0.25	-0.246094	0.252441	1.137207	3.220000	166.389999	-21.910000	25.00	0.00	0.00
1.38	16.75	18.75	10.00	12.75	4.25	4.00	1.25	1.00	1.25	1.00	1.25	1.50	2.25	2.50	0.50	0.50	-0.200195	0.050293	0.959961	-0.910000	-2.310000	-0.350000	826.00	-0.24	-0.06	0.00	0.00	0.00	0.50	0.00	0.00	0.00	0.00	0.00	0.50	0.25	0.25	0.00	0.00	0.00	0.00	-0.278320	0.329590	1.237305	13.370000	163.309998	-32.130001	16.00	0.00	0.00
1.39	17.00	19.50	10.25	13.50	4.25	4.50	1.25	1.00	1.50	1.25	1.25	1.50	2.50	2.75	0.25	0.75	-0.194824	0.052246	0.960938	-0.000000	-0.070000	-0.350000	861.00	-0.23	-0.06	0.00	0.00	0.00	0.00	0.00	0.00	0.00	0.00	0.00	0.25	0.25	0.25	0.00	0.00	0.00	0.00	-0.177246	0.301270	1.083984	25.340000	150.149994	-44.240002	8.00	0.00	0.00
1.40	16.75	19.75	10.75	13.75	4.75	4.75	1.25	1.00	1.50	1.50	1.25	2.00	2.75	2.50	0.50	0.75	-0.195801	0.051758	0.959961	0.560000	1.610000	-0.210000	888.00	-0.23	-0.06	0.00	0.00	0.00	0.00	0.00	0.00	0.00	0.00	0.00	0.50	0.25	0.25	0.00	0.00	0.00	0.00	-0.159180	0.308594	1.141602	32.410000	136.360001	-58.240002	10.00	0.00	0.00
1.41	16.75	19.50	10.50	13.75	4.75	5.25	1.25	1.00	1.75	1.50	1.75	2.00	2.75	2.50	0.50	0.75	-0.195312	0.054688	0.960938	0.910000	3.010000	-0.140000	897.00	-0.22	-0.06	0.00	0.00	0.25	0.00	0.00	0.00	0.00	0.00	0.00	0.25	0.00	0.00	0.00	0.00	0.00	0.00	0.162598	0.312500	1.411133	42.349998	113.540001	-70.349998	5.00	0.00	0.00
1.42	16.50	19.00	11.00	14.25	4.75	6.00	1.25	1.25	1.50	1.50	2.00	2.25	3.00	2.50	0.50	0.75	-0.194336	0.050781	0.959961	1.750000	4.200000	-0.140000	917.00	-0.22	-0.07	0.00	0.00	0.00	0.00	0.00	0.00	0.00	0.00	0.00	0.50	0.00	0.00	0.00	0.00	0.25	0.00	0.728516	0.341309	1.385254	39.060001	77.209999	-75.040001	8.00	0.00	0.00
1.43	16.00	18.75	10.75	14.00	4.75	6.25	1.25	1.25	1.50	1.50	2.00	2.50	3.25	2.75	0.75	0.75	-0.199707	0.056152	0.954590	2.590000	5.670000	-0.140000	916.00	-0.21	-0.07	0.00	0.00	0.00	0.00	0.00	0.00	0.00	0.00	0.00	0.25	0.00	0.00	0.00	0.00	0.00	0.00	0.580566	0.626953	1.208008	17.010000	39.759998	-59.709999	3.00	0.00	0.00
1.44	15.00	18.25	10.50	14.00	5.00	6.25	1.25	1.50	1.75	1.75	2.00	2.75	3.25	2.75	0.75	0.75	-0.193359	0.059082	0.955078	3.430000	6.510000	0.140000	913.00	-0.20	-0.08	0.00	0.00	0.00	0.00	0.00	0.00	0.00	0.00	0.00	0.25	0.00	0.00	0.00	0.25	0.00	0.00	0.876465	0.626953	1.352051	-7.910000	7.490000	-38.639999	5.00	0.00	0.00
1.45	14.50	18.00	10.00	13.75	4.75	6.50	1.25	1.50	1.75	1.50	2.50	3.00	3.75	2.75	0.75	1.00	-0.194336	0.056641	0.955078	3.780000	7.420000	-0.140000	908.00	-0.19	-0.08	0.00	0.00	0.00	0.00	0.00	0.00	0.00	0.00	0.00	0.00	0.25	0.00	0.00	0.00	0.00	0.00	0.693848	0.544922	0.916504	-15.540000	-14.910000	-19.460001	3.00	0.00	0.00
1.46	14.00	17.00	10.00	13.25	5.00	6.50	1.25	1.50	1.50	1.75	2.50	3.50	3.75	3.00	0.50	1.00	-0.194336	0.056152	0.954102	3.990000	8.050000	-0.280000	895.00	-0.19	-0.08	0.00	0.00	0.00	0.00	0.00	0.00	0.00	0.00	0.00	0.25	0.00	0.00	0.00	0.00	0.00	0.00	0.653809	0.476074	0.876953	-3.780000	-22.190001	-7.770000	3.00	0.00	0.00
1.47	13.00	16.50	9.50	13.25	4.50	7.00	1.25	1.75	2.00	1.75	2.75	3.75	4.75	2.75	0.75	1.00	-0.199707	0.064453	0.957031	3.990000	8.470000	-0.420000	900.00	-0.17	-0.09	0.00	0.00	0.00	0.00	0.00	0.00	0.00	0.00	0.00	0.00	0.00	0.00	0.00	0.00	0.00	0.00	0.674805	0.390625	1.026855	9.800000	-31.780001	-0.420000	0.00	0.00	0.00
1.48	12.25	16.00	9.25	12.75	4.75	7.00	1.25	1.75	1.75	1.75	2.75	4.25	4.75	3.00	0.75	1.25	-0.199707	0.056641	0.953125	3.990000	8.960000	-0.420000	887.00	-0.17	-0.09	0.00	0.00	0.00	0.00	0.00	0.00	0.00	0.00	0.00	0.00	0.00	0.00	0.00	0.00	0.00	0.00	0.658691	0.280273	1.038086	16.590000	-46.759998	6.020000	0.00	0.00	0.00
1.49	11.00	14.75	9.00	12.25	4.50	7.00	1.25	2.00	1.75	2.00	3.25	4.25	5.00	2.50	0.75	1.25	-0.196777	0.062012	0.960938	3.990000	9.310000	-0.490000	861.00	-0.16	-0.10	0.00	0.00	0.00	0.00	0.00	0.00	0.00	0.00	0.00	0.00	0.00	0.00	0.00	0.00	0.00	0.00	0.596191	0.204590	0.993164	20.580000	-60.480000	10.500000	0.00	0.00	0.00
1.50	9.75	14.00	8.75	11.75	4.50	6.75	1.25	2.00	1.75	1.75	3.25	5.00	5.25	2.75	0.75	1.25	-0.200195	0.062500	0.950684	4.410000	9.590000	-0.420000	840.00	-0.14	-0.10	0.00	0.00	0.00	0.00	0.00	0.00	0.00	0.00	0.00	0.00	0.00	0.00	0.00	0.00	0.00	0.00	0.530273	0.141602	1.002441	24.990000	-71.400002	12.320000	0.00	0.00	0.00
1.51	9.25	13.00	8.25	11.50	4.25	7.00	1.25	2.00	1.50	2.00	3.75	5.50	5.75	2.75	1.00	1.25	-0.196289	0.063965	0.957520	4.480000	9.730000	-0.490000	834.00	-0.13	-0.11	0.25	0.00	0.25	0.25	0.00	0.00	0.00	0.00	0.00	0.00	0.00	0.00	0.00	0.00	0.00	0.00	0.460938	0.096191	1.023438	28.139999	-81.340004	12.740000	8.00	0.00	0.00
1.52	8.50	12.25	8.25	11.50	3.75	7.00	1.25	2.25	1.50	2.25	3.75	6.25	6.00	3.00	1.00	1.25	-0.198242	0.062012	0.951660	4.410000	9.660000	-0.700000	833.00	-0.12	-0.12	0.00	0.00	0.00	0.00	0.00	0.00	0.00	0.00	0.00	0.00	0.00	0.00	0.00	0.00	0.00	0.00	0.381836	0.075195	1.044434	28.770000	-90.160004	13.300000	0.00	0.00	0.00
1.53	7.75	11.50	7.75	10.50	4.25	6.75	1.25	2.50	1.50	2.25	4.50	6.50	6.25	3.00	1.00	1.50	-0.202637	0.067383	0.957031	4.410000	9.170000	-0.700000	822.00	-0.10	-0.12	0.00	0.00	0.00	0.00	0.00	0.00	0.00	0.00	0.00	0.00	0.00	0.00	0.00	0.00	0.00	0.00	0.302246	0.062988	1.044434	27.160000	-96.529999	14.490000	0.00	0.00	0.00
1.54	7.25	10.25	7.50	10.00	4.00	6.75	1.25	2.75	1.50	2.25	5.25	6.75	6.50	3.00	1.00	1.50	-0.204590	0.065918	0.948730	4.550000	8.960000	-0.840000	811.00	-0.09	-0.12	0.00	0.00	0.00	0.25	0.00	0.00	0.00	0.00	0.00	0.00	0.00	0.00	0.00	0.00	0.00	0.00	0.214355	0.070312	1.067383	23.379999	-100.379997	17.010000	3.00	0.00	0.00
1.55	6.75	9.75	7.25	9.75	4.00	6.50	1.25	2.75	1.50	2.25	5.75	7.50	6.75	2.75	1.00	1.50	-0.203125	0.064453	0.947266	4.620000	8.890000	-1.050000	806.00	-0.08	-0.13	0.00	0.00	0.00	0.00	0.00	0.00	0.00	0.00	0.00	0.00	0.00	0.00	0.00	0.00	0.00	0.00	0.123047	0.094238	1.098145	18.760000	-103.040001	20.719999	0.00	0.00	0.00
1.56	6.25	9.00	6.75	9.25	3.50	6.50	1.25	3.50	1.50	2.25	6.25	7.75	7.50	3.00	1.00	1.75	-0.203125	0.065918	0.947266	4.690000	8.820000	-1.050000	807.00	-0.07	-0.14	0.00	0.00	0.00	0.00	0.00	0.00	0.00	0.00	0.00	0.00	0.00	0.00	0.00	0.00	0.00	0.00	-0.071777	0.096191	1.068359	10.430000	-105.489998	30.520000	0.00	0.00	0.00
1.57	6.00	8.50	6.50	9.25	3.50	6.50	1.25	3.75	1.50	2.50	7.00	8.25	7.50	3.00	1.00	2.00	-0.198242	0.066895	0.952637	4.270000	9.240000	-1.400000	818.00	-0.06	-0.14	0.00	0.00	0.00	0.00	0.00	0.00	0.00	0.00	0.00	0.25	0.00	0.00	0.00	0.00	0.00	0.00	-0.178223	0.072266	1.029297	6.790000	-102.340004	34.299999	3.00	0.00	0.00
1.58	5.50	7.75	6.25	8.75	3.00	6.50	1.25	4.25	1.75	2.75	7.75	8.50	8.00	4.00	1.25	2.00	-0.199219	0.071777	0.953125	4.130000	9.310000	-1.540000	831.00	-0.03	-0.14	0.00	0.00	0.00	0.00	0.00	0.00	0.00	0.00	0.00	0.00	0.00	0.00	0.00	0.00	0.00	0.00	-0.264160	0.070801	1.032715	2.940000	-96.110001	36.119999	0.00	0.00	0.00
1.59	5.25	7.50	6.00	8.75	3.00	6.25	1.25	4.50	1.50	2.75	8.25	9.00	8.50	3.25	1.50	2.25	-0.202148	0.071777	0.953125	3.850000	9.310000	-1.750000	834.00	-0.03	-0.15	0.00	0.50	0.00	0.00	0.00	0.00	0.00	0.00	0.00	0.00	0.00	0.00	0.00	0.00	0.00	0.00	-0.340820	0.052246	1.034668	-1.190000	-88.900002	36.540001	5.00	0.00	0.00
1.60	4.50	7.00	5.75	8.25	3.25	6.25	1.25	5.00	2.00	2.75	8.25	9.50	9.00	3.75	1.25	2.50	-0.194824	0.070801	0.949219	3.570000	9.590000	-1.890000	843.00	-0.01	-0.15	0.00	0.00	0.00	0.00	0.00	0.00	0.00	0.00	0.00	0.00	0.00	0.00	0.00	0.00	0.00	0.00	-0.404785	0.041504	1.024902	-5.180000	-81.340004	35.770000	0.00	0.00	0.00
1.61	4.00	6.50	5.25	8.25	2.50	6.25	1.25	5.00	1.75	3.00	8.75	9.75	9.50	4.00	1.50	2.50	-0.205566	0.077148	0.948242	3.570000	9.730000	-1.960000	835.00	-0.00	-0.16	0.00	0.00	0.00	0.00	0.00	0.00	0.00	0.00	0.00	0.00	0.00	0.00	0.00	0.00	0.00	0.00	-0.479980	0.034180	0.998047	-8.960000	-73.080002	33.880001	0.00	0.00	0.00
1.62	3.25	6.25	5.25	7.75	3.00	6.00	1.25	5.50	2.00	3.25	9.25	10.25	9.75	4.00	1.25	2.75	-0.201660	0.076172	0.955566	3.360000	10.220000	-2.170000	848.00	0.01	-0.16	0.00	0.00	0.00	0.00	0.00	0.00	0.00	0.00	0.00	0.00	0.00	0.00	0.00	0.00	0.00	0.00	-0.541992	0.021484	0.986816	-11.550000	-63.910000	31.080000	0.00	0.00	0.00
1.63	3.00	5.50	4.75	7.50	2.75	5.75	1.00	5.50	2.00	3.50	9.50	11.00	10.25	4.75	1.50	3.25	-0.203613	0.075195	0.949707	3.430000	10.640000	-2.170000	850.00	0.03	-0.16	0.00	0.00	0.00	0.00	0.00	0.00	0.00	0.00	0.00	0.00	0.00	0.00	0.00	0.00	0.00	0.00	-0.582520	0.016113	0.986328	-13.580000	-54.740002	28.000000	0.00	0.00	0.00
1.64	2.50	5.00	4.25	7.00	2.50	5.50	1.25	5.50	2.00	3.75	10.00	11.25	10.75	5.00	1.50	3.50	-0.201660	0.075684	0.952637	3.220000	11.200000	-2.240000	845.00	0.04	-0.17	0.00	0.00	0.00	0.00	0.00	0.25	0.00	0.00	0.00	0.00	0.00	0.00	0.00	0.00	0.00	0.00	-0.616699	0.025879	0.968262	-15.960000	-46.970001	24.780001	3.00	0.00	0.00
1.65	2.50	4.75	3.50	6.50	2.50	5.25	1.25	5.50	2.50	4.00	10.50	12.00	11.00	5.00	1.50	3.75	-0.209473	0.079590	0.954590	1.890000	11.830000	-2.450000	852.00	0.05	-0.17	0.00	0.00	0.00	0.00	0.00	0.00	0.00	0.00	0.00	0.00	0.00	0.00	0.00	0.00	0.00	0.00	-0.648438	0.023438	1.001465	-18.129999	-40.040001	21.280001	0.00	0.00	0.00
1.66	1.75	4.00	3.50	6.00	2.00	4.75	1.25	5.50	2.25	5.25	11.00	12.50	11.50	5.50	1.75	3.75	-0.207520	0.078125	0.958496	-0.140000	12.740000	-3.220000	853.00	0.07	-0.17	0.00	0.00	0.00	0.00	0.00	0.00	0.00	0.00	0.00	0.25	0.00	0.00	0.00	0.00	0.00	0.00	-0.690430	0.034180	1.150879	-17.219999	-38.220001	18.270000	3.00	0.00	0.00
1.67	2.00	3.25	3.00	5.00	2.25	4.00	1.00	5.50	2.75	5.75	11.25	12.75	11.50	5.50	1.75	4.25	-0.209473	0.080566	0.953125	-1.260000	13.440001	-3.780000	843.00	0.09	-0.16	0.00	0.00	0.00	0.00	0.00	0.00	0.00	0.00	0.00	0.00	0.00	0.00	0.00	0.00	0.00	0.00	-0.686523	0.047363	1.176758	-13.580000	-45.920002	15.960000	0.00	0.00	0.00
1.68	1.25	3.00	2.75	5.00	2.00	3.75	1.00	5.25	3.00	7.00	11.75	13.50	12.00	5.50	2.00	4.25	-0.212402	0.074707	0.950684	-0.980000	13.510000	-3.850000	857.00	0.10	-0.16	0.00	0.25	0.00	0.00	0.00	0.00	0.00	0.00	0.00	0.00	0.00	0.00	0.00	0.00	0.00	0.00	-0.724121	0.020996	1.063965	-8.190000	-56.209999	13.300000	2.00	0.00	0.00
1.69	1.00	2.50	2.25	4.50	1.50	3.50	1.00	5.25	2.75	7.25	12.25	13.75	12.25	6.25	2.00	4.75	-0.214355	0.073242	0.954590	-0.280000	14.070000	-3.780000	849.00	0.12	-0.17	0.00	0.00	0.00	0.00	0.00	0.00	0.00	0.00	0.00	0.25	0.00	0.00	0.00	0.00	0.00	0.00	-0.780762	-0.010254	0.909668	-1.750000	-60.760002	9.310000	3.00	0.00	0.00
1.70	0.75	2.25	2.00	3.75	1.25	2.25	1.00	5.00	3.25	7.50	12.50	14.00	12.50	6.50	2.25	5.00	-0.220215	0.070312	0.951172	0.350000	15.190001	-3.780000	835.00	0.14	-0.16	0.00	0.00	0.00	0.00	0.00	0.00	0.00	0.00	0.00	0.00	0.00	0.00	0.00	0.00	0.00	0.00	-0.820312	-0.024902	0.798340	4.410000	-58.099998	4.970000	0.00	0.00	0.00
1.71	1.00	2.00	1.50	2.75	1.25	2.25	1.00	5.00	3.75	8.00	13.00	14.25	12.75	7.25	2.00	5.25	-0.223633	0.073242	0.952148	0.840000	16.240000	-3.640000	846.00	0.15	-0.16	0.00	0.00	0.00	0.00	0.00	0.00	0.00	0.00	0.00	0.00	0.00	0.00	0.00	0.00	0.00	0.00	-0.833984	-0.029785	0.771484	8.190000	-52.290001	1.540000	0.00	0.00	0.00
1.72	0.75	1.75	1.00	2.25	1.25	1.50	1.00	5.00	4.25	8.25	13.25	14.75	13.00	7.75	2.50	5.25	-0.226074	0.067871	0.945312	1.260000	17.500000	-3.640000	851.00	0.17	-0.15	0.00	0.00	0.00	0.00	0.00	0.00	0.00	0.00	0.00	0.25	0.00	0.00	0.00	0.00	0.25	0.00	-0.827637	-0.018066	0.759766	9.660000	-46.900002	-0.490000	5.00	0.00	0.00
1.73	0.50	1.25	1.25	2.50	0.75	1.25	1.00	4.75	4.50	8.50	13.50	15.25	13.50	8.00	2.50	5.25	-0.210938	0.078125	0.961914	1.540000	17.990000	-3.570000	857.00	0.17	-0.15	0.00	0.00	0.00	0.00	0.00	0.00	0.00	0.00	0.00	0.00	0.00	0.00	0.00	0.00	0.00	0.00	-0.817871	-0.005371	0.750000	10.360000	-42.560001	-1.610000	0.00	0.00	0.00
1.74	0.25	1.00	1.25	1.75	1.00	1.00	1.00	4.50	4.50	8.75	13.75	15.75	13.75	8.50	2.50	5.50	-0.230469	0.075684	0.953125	1.820000	18.620001	-3.360000	859.00	0.19	-0.15	0.00	0.00	0.00	0.00	0.00	0.00	0.00	0.00	0.00	0.00	0.00	0.00	0.00	0.00	0.00	0.00	-0.780762	-0.014160	0.753418	14.700000	-37.170002	-4.060000	0.00	0.00	0.00
1.75	0.00	0.75	1.00	1.75	1.00	0.75	1.00	4.25	4.75	9.00	14.25	16.00	13.75	8.75	2.50	5.25	-0.233887	0.074219	0.941406	1.750000	19.110001	-3.360000	859.00	0.19	-0.15	0.00	0.00	0.00	0.00	0.00	0.00	0.00	0.00	0.00	0.00	0.00	0.00	0.00	0.00	0.25	0.00	-0.780762	-0.014160	0.753418	14.700000	-37.170002	-4.060000	3.00	0.00	0.00
1.76	0.00	0.50	0.50	0.75	0.50	0.25	1.00	4.00	5.25	9.25	14.50	16.25	14.25	9.00	2.75	5.50	-0.223145	0.081055	0.947754	1.750000	19.389999	-3.220000	850.00	0.21	-0.14	0.00	0.00	0.00	0.00	0.00	0.00	0.00	0.00	0.00	0.00	0.00	0.00	0.00	0.00	0.00	0.00	-2.115234	-0.426758	0.315918	14.560000	-35.420002	-10.710000	0.00	0.00	0.00
1.77	0.00	0.25	0.50	1.00	0.50	0.25	0.75	3.75	5.00	9.50	14.75	16.50	14.50	9.25	2.50	5.50	-0.224121	0.083984	0.947754	1.540000	19.670000	-3.360000	849.00	0.21	-0.14	0.00	0.25	0.25	0.00	0.00	0.00	0.00	0.00	0.00	0.00	0.00	0.00	0.00	0.00	0.00	0.00	-0.993164	-0.478516	0.184082	-21.070000	-2.240000	-24.010000	5.00	0.00	0.00
1.78	0.00	0.25	0.50	0.75	0.50	0.25	0.75	3.50	5.25	9.75	15.25	17.00	14.75	9.50	2.75	5.50	-0.233887	0.084473	0.955566	1.260000	20.790001	-3.780000	866.00	0.22	-0.14	0.00	0.00	0.00	0.00	0.00	0.00	0.00	0.00	0.00	0.00	0.00	0.00	0.00	0.00	0.00	0.00	-1.582520	-0.336426	0.600586	-46.060001	14.840000	-42.070000	0.00	0.00	0.00
1.79	0.00	0.25	0.25	0.50	0.00	0.00	0.75	3.00	5.25	10.00	15.25	17.25	15.00	9.75	2.75	5.50	-0.220215	0.079590	0.954590	0.770000	22.260000	-3.990000	854.00	0.23	-0.14	0.00	0.00	0.00	0.00	0.00	0.00	0.00	0.00	0.00	0.00	0.00	0.00	0.00	0.00	0.00	0.00	-1.395508	-0.311523	0.413086	-50.540001	31.780001	-59.990002	0.00	0.00	0.00
1.80	0.00	0.00	0.50	0.50	0.25	0.00	0.75	2.75	5.50	10.25	15.50	17.25	14.75	10.00	2.75	5.75	-0.245117	0.071777	1.036621	1.820000	25.690001	-3.220000	864.00	0.23	-0.13	0.25	0.00	0.00	0.25	0.00	0.00	0.00	0.00	0.00	0.00	0.00	0.00	0.00	0.00	0.00	0.00	-0.440430	0.504395	1.121094	-36.049999	57.820000	-63.209999	5.00	0.00	0.00
1.81	0.00	0.00	0.50	0.50	0.25	0.00	0.75	2.50	5.50	10.50	15.75	17.50	15.00	10.25	3.00	5.75	-0.242676	0.082031	0.956543	5.040000	37.029999	-3.990000	875.00	0.23	-0.13	0.50	0.25	0.25	0.75	0.00	0.00	0.00	0.00	0.00	0.00	0.00	0.00	0.00	0.00	0.00	0.00	-0.119141	0.656738	1.429199	-6.230000	52.220001	-38.150002	18.00	0.00	0.00
1.82	0.00	0.00	0.25	0.50	0.00	0.00	0.75	2.00	5.50	10.50	15.75	17.75	14.75	10.75	3.25	5.75	-0.248535	0.079590	0.959473	6.020000	44.869999	-4.900000	869.00	0.23	-0.13	0.75	1.25	0.50	1.00	0.00	0.00	0.00	0.00	0.00	0.00	0.00	0.00	0.00	0.00	0.00	0.00	-0.128906	0.422852	1.144043	6.230000	33.110001	-11.130000	36.00	0.00	0.00
1.83	0.00	0.00	0.75	0.00	0.00	0.00	0.50	2.00	6.00	11.00	16.00	18.00	14.50	11.25	3.25	5.50	-0.260742	0.084473	0.961426	5.600000	51.310001	-5.040000	883.00	0.24	-0.12	1.00	1.00	0.75	1.50	0.00	0.00	0.00	0.00	0.00	0.00	0.00	0.00	0.00	0.00	0.00	0.00	-0.156738	0.144043	0.908691	-1.260000	40.529999	-0.140000	44.00	0.00	0.00
1.84	0.00	0.00	0.00	0.25	0.00	0.00	0.50	1.50	6.00	11.00	16.00	18.00	14.50	11.50	3.25	5.75	-0.270508	0.084961	0.958984	5.320000	59.570000	-5.040000	873.00	0.24	-0.12	1.50	2.00	0.75	1.50	0.00	0.00	0.00	0.00	0.00	0.00	0.00	0.00	0.00	0.00	0.00	0.00	-0.167480	0.141113	1.097168	-16.520000	53.619999	-1.470000	59.00	-0.36	-0.07
1.85	0.00	0.00	0.25	0.00	0.00	0.00	0.50	1.25	6.50	11.25	16.00	17.75	14.00	11.75	3.25	5.50	-0.283203	0.092285	0.971680	5.530000	68.599998	-5.320000	872.00	0.24	-0.11	1.75	2.25	0.75	2.00	0.25	0.00	0.00	0.00	0.00	0.00	0.00	0.00	0.00	0.00	0.00	0.00	-0.231445	0.140625	1.255859	-22.330000	50.189999	-1.330000	72.00	-0.35	-0.08
1.86	0.00	0.00	0.00	0.25	0.00	0.00	0.50	1.25	6.50	11.50	16.00	17.50	14.25	12.50	3.50	5.50	-0.288574	0.094727	0.984863	6.020000	78.820000	-5.950000	883.00	0.25	-0.11	2.00	2.00	0.75	2.50	0.00	0.00	0.00	0.00	0.00	0.00	0.00	0.00	0.00	0.00	0.00	0.00	-0.197266	0.097656	1.066895	-19.320000	42.209999	1.540000	75.00	-0.35	-0.08
1.87	0.00	0.00	0.00	0.00	0.00	0.00	0.25	1.00	6.50	11.50	15.75	17.25	13.50	12.75	3.25	5.50	-0.313477	0.090820	0.998047	6.860000	92.190002	-7.140000	861.00	0.25	-0.11	2.50	3.00	1.25	3.00	0.25	0.00	0.00	0.00	0.00	0.00	0.00	0.00	0.00	0.00	0.00	0.00	-0.156738	0.096680	0.937012	-12.250000	42.349998	3.850000	103.00	-0.34	-0.08
1.88	0.00	0.00	0.50	0.50	0.00	0.00	0.25	1.00	7.00	11.50	15.75	17.00	13.00	13.00	3.50	5.50	-0.329102	0.099609	0.983887	5.950000	105.980003	-8.190000	876.00	0.24	-0.10	2.75	3.50	1.75	3.25	0.50	0.00	0.00	0.00	0.00	0.00	0.00	0.00	0.00	0.00	0.00	0.00	-0.160645	0.066406	0.942383	-2.730000	45.500000	5.950000	121.00	-0.34	-0.07
1.89	0.00	0.00	0.00	0.00	0.00	0.00	0.25	0.75	6.75	11.50	15.50	16.75	12.25	13.25	3.25	5.50	-0.333984	0.099121	0.984863	4.480000	120.959999	-9.310000	846.00	0.25	-0.10	3.00	4.00	1.00	3.75	0.50	0.00	0.00	0.00	0.00	0.00	0.00	0.00	0.00	0.00	0.00	0.00	-0.164551	0.072754	0.941406	3.850000	47.320000	6.090000	126.00	-0.34	-0.08
1.90	0.00	0.00	0.00	0.00	0.00	0.00	0.25	0.75	6.75	11.50	15.25	16.25	11.75	13.50	3.25	5.25	-0.353027	0.081055	0.989258	1.680000	133.139999	-10.990000	834.00	0.25	-0.09	3.50	4.00	2.25	4.25	0.75	0.00	0.00	0.00	0.00	0.00	0.00	0.00	0.00	0.00	0.00	0.00	-0.204102	0.130859	0.899414	7.630000	49.209999	5.950000	153.00	-0.33	-0.06
1.91	0.00	0.00	0.00	0.25	0.00	0.00	0.00	0.50	6.50	11.50	14.75	15.75	10.75	13.75	3.25	5.25	-0.399414	0.076172	1.047363	-3.990000	143.430008	-12.530000	809.00	0.26	-0.09	3.75	5.00	2.50	4.25	0.50	0.00	0.25	0.00	0.00	0.00	0.00	0.00	0.00	0.00	0.00	0.00	-0.208984	0.015625	0.899414	-18.200001	18.969999	5.600000	169.00	-0.33	-0.06
1.92	0.00	0.00	0.00	0.00	0.00	0.00	0.00	0.50	6.50	11.50	14.50	15.25	10.00	14.00	3.25	5.25	-0.410645	0.087402	1.009277	-8.470000	153.789993	-12.810000	794.00	0.26	-0.09	4.50	5.50	2.50	5.00	0.75	0.00	0.25	0.00	0.00	0.25	0.00	0.00	0.00	0.00	0.00	0.00	-0.180176	0.085449	1.030762	-37.240002	2.800000	2.030000	195.00	-0.32	-0.06
1.93	0.00	0.00	0.00	0.00	0.00	0.00	0.00	0.50	6.25	11.50	14.25	14.50	9.00	13.75	3.50	5.25	-0.438477	0.082520	0.976562	-10.290000	165.899994	-12.670000	772.00	0.26	-0.08	4.75	5.25	2.75	5.00	0.75	0.25	0.25	0.00	0.00	0.25	0.00	0.00	0.00	0.00	0.00	0.00	-0.180176	0.085449	1.030762	-37.240002	2.800000	2.030000	200.00	-0.32	-0.06
1.94	0.00	0.00	0.00	0.00	0.00	0.00	0.00	0.50	6.50	11.50	14.00	13.75	8.25	14.00	3.00	5.00	-0.460938	0.081543	0.995117	-10.570000	180.250000	-12.810000	754.00	0.26	-0.07	5.25	5.75	3.25	5.75	0.75	0.25	0.25	0.00	0.00	0.25	0.00	0.00	0.00	0.00	0.00	0.00	-0.217773	0.056641	1.135254	-38.290001	-7.560000	1.610000	224.00	-0.32	-0.06
1.95	0.00	0.00	0.00	0.00	0.00	0.00	0.00	0.25	6.00	11.25	13.50	13.00	7.50	13.75	3.25	4.75	-0.479980	0.092773	0.985840	-10.360000	195.930008	-14.420000	720.00	0.27	-0.07	6.00	5.75	3.50	6.00	1.00	0.50	0.25	0.00	0.00	0.50	0.00	0.00	0.00	0.00	0.00	0.00	-0.191406	0.062012	1.004395	-24.219999	-20.090000	1.820000	245.00	-0.31	-0.05
1.96	0.00	0.00	0.00	0.00	0.00	0.00	0.00	0.25	6.25	11.25	13.00	12.00	6.75	13.50	3.00	4.75	-0.522949	0.086426	1.016602	-12.040000	208.880005	-15.540000	696.00	0.27	-0.06	6.25	6.00	4.25	6.25	1.00	0.50	0.25	0.00	0.25	0.75	0.00	0.00	0.25	0.00	0.25	0.00	-0.156738	0.062500	0.958008	-6.510000	-35.279999	3.010000	272.00	-0.29	-0.05
1.97	0.00	0.00	0.00	0.00	0.00	0.00	0.00	0.25	6.00	11.00	12.50	10.75	5.75	13.25	2.75	4.50	-0.556152	0.090820	0.979004	-13.930000	223.580002	-16.660000	657.00	0.27	-0.05	6.50	6.75	4.25	7.00	1.25	0.50	0.25	0.00	0.25	0.75	0.25	0.00	0.50	0.25	0.25	0.25	-0.170410	0.076660	0.994141	-5.250000	-40.180000	2.590000	301.00	-0.28	-0.06
1.98	0.00	0.00	0.00	0.00	0.00	0.00	0.00	0.00	5.25	10.50	11.75	9.75	5.00	13.00	2.75	4.25	-0.592773	0.079102	1.022949	-16.590000	238.000000	-17.780001	610.00	0.27	-0.05	7.00	7.25	4.75	7.25	1.50	0.50	0.25	0.00	0.75	1.00	0.50	0.25	0.50	0.50	0.50	0.50	-0.172363	0.078613	1.010254	-5.180000	-37.590000	2.030000	342.00	-0.25	-0.05
1.99	0.00	0.00	0.00	0.00	0.00	0.00	0.00	0.00	5.25	10.00	10.75	8.75	4.00	12.75	2.50	3.50	-0.715820	0.096680	1.061035	-20.930000	267.610016	-20.580000	566.00	0.27	-0.03	7.00	7.25	5.25	7.75	1.50	1.00	0.25	0.00	0.50	0.75	0.50	0.50	0.75	1.25	0.50	0.50	-0.169434	0.076660	1.016602	-4.760000	-31.990000	1.750000	364.00	-0.24	-0.06
2.00	0.00	0.00	0.00	0.00	0.00	0.00	0.00	0.00	4.75	9.25	9.75	7.75	3.00	12.50	2.25	3.00	-0.781738	0.076660	1.172363	-23.379999	278.459991	-23.030001	515.00	0.28	-0.03	6.75	7.50	5.50	8.00	1.75	1.00	0.25	0.00	1.00	1.00	0.75	0.75	1.25	0.75	0.50	1.00	-0.158203	0.073730	0.980469	-4.480000	-26.110001	1.540000	389.00	-0.22	-0.06
2.01	0.00	0.00	0.00	0.00	0.00	0.00	0.00	0.00	3.75	8.75	8.50	6.25	2.25	12.00	2.00	2.50	-0.962402	0.094727	1.257324	-25.480000	285.950012	-24.920000	451.00	0.28	-0.02	7.00	7.75	6.00	8.25	2.00	1.25	0.25	0.25	1.00	1.25	1.00	0.75	1.50	1.25	0.75	1.00	-0.150879	0.062012	0.980957	-3.780000	-21.490000	1.470000	426.00	-0.20	-0.06
2.02	0.00	0.00	0.00	0.00	0.00	0.00	0.00	0.00	2.50	8.25	7.50	5.50	1.75	11.25	1.75	2.25	-1.235840	0.137695	1.556152	-19.530001	288.049988	-25.969999	397.00	0.28	-0.02	7.25	7.75	6.00	8.50	2.25	1.50	0.25	0.25	1.00	1.25	1.25	1.00	1.75	1.75	1.00	1.25	-0.155273	0.067383	0.993164	-2.940000	-17.990000	1.680000	452.00	-0.18	-0.07
2.03	0.00	0.00	0.00	0.00	0.00	0.00	0.00	0.00	2.25	7.75	6.50	5.00	1.00	10.50	1.25	1.75	-1.254883	0.114746	1.436523	-15.120000	288.890015	-31.080000	352.00	0.29	-0.01	7.25	8.00	6.75	8.75	2.25	2.00	0.50	0.50	1.25	1.75	1.75	1.50	2.25	2.00	1.00	1.50	-0.144531	0.073730	0.987305	-2.030000	-15.050000	2.030000	506.00	-0.16	-0.07
2.04	0.00	0.00	0.00	0.00	0.00	0.00	0.00	0.00	1.75	7.00	5.50	3.50	1.00	9.75	1.00	1.00	-1.229492	-0.024414	1.270508	-31.150000	286.089996	-41.439999	298.00	0.29	0.01	7.50	7.75	6.75	9.00	2.50	2.25	0.25	0.50	1.50	2.00	2.25	1.50	2.50	2.25	1.25	1.75	-0.143066	0.091797	0.981445	-1.400000	-12.530000	2.170000	530.00	-0.15	-0.07
2.05	0.00	0.00	0.00	0.00	0.00	0.00	0.00	0.00	1.25	6.00	4.50	2.75	1.00	8.75	0.50	1.00	-1.105957	0.395508	1.502441	-33.950001	276.920013	-37.380001	249.00	0.29	0.01	7.50	8.00	7.25	9.25	2.75	2.75	0.25	0.50	1.50	2.00	2.75	2.00	3.00	2.25	1.25	2.00	-0.138184	0.076172	0.982910	-0.770000	-10.360000	2.170000	565.00	-0.14	-0.08
2.06	0.00	0.00	0.25	0.00	0.00	0.00	0.00	0.00	1.50	5.25	3.75	2.50	0.75	8.00	0.50	0.75	-0.830078	0.236816	1.278809	-18.690001	265.089996	-44.869999	227.00	0.29	0.02	7.25	8.00	7.25	9.25	3.00	2.75	0.25	0.75	2.00	2.25	3.25	2.25	3.25	2.50	1.25	2.25	-0.140625	0.075195	0.984863	-0.350000	-8.820000	2.170000	591.00	-0.12	-0.08
2.07	0.00	0.00	0.00	0.00	0.00	0.00	0.00	0.00	1.25	4.25	3.00	1.75	0.50	6.50	0.25	0.00	-1.178711	0.182129	0.882324	-7.700000	246.119995	-57.119999	173.00	0.29	0.03	7.00	7.75	7.50	9.25	3.00	2.75	0.25	1.00	2.00	2.50	3.50	2.25	3.75	2.75	1.50	3.00	-0.139160	0.074707	0.988281	-0.000000	-7.630000	2.100000	611.00	-0.11	-0.08
2.08	0.00	0.00	0.00	0.00	0.00	0.00	0.25	0.00	0.75	3.75	2.25	1.25	0.50	5.25	0.25	0.25	-0.842285	0.177246	1.451172	-11.830000	239.960007	-66.849998	142.00	0.29	0.03	7.00	7.75	7.50	9.25	3.25	3.50	0.25	1.25	2.50	2.50	4.00	2.75	4.50	3.50	1.50	3.00	-0.141113	0.076172	0.981445	-0.070000	-6.580000	2.100000	656.00	-0.09	-0.09
2.09	0.00	0.00	0.00	0.00	0.00	0.00	0.25	0.00	0.75	2.75	2.25	1.00	0.25	2.50	0.25	0.25	-0.564941	0.299316	0.973145	-11.900000	224.000000	-75.180000	104.00	0.27	0.02	7.00	7.75	7.50	9.25	3.25	3.75	0.50	1.25	2.25	2.75	4.50	3.00	4.50	3.25	1.75	3.25	-0.138672	0.076172	0.986328	-0.280000	-5.740000	2.030000	672.00	-0.09	-0.09
2.10	0.00	0.00	0.00	0.00	0.00	0.00	0.25	0.00	0.75	2.50	1.75	0.75	0.00	1.25	0.00	0.25	-0.030273	0.213867	1.159668	-8.470000	199.919998	-83.860001	78.00	0.25	0.03	7.00	7.50	7.25	9.25	3.25	3.75	0.25	1.50	2.50	3.00	5.25	3.00	4.75	3.50	2.00	4.25	-0.140625	0.077148	0.986816	-0.420000	-5.110000	1.890000	693.00	-0.07	-0.09
2.11	0.00	0.00	0.00	0.00	0.00	0.00	0.25	0.00	0.50	1.75	1.25	0.50	0.00	0.50	0.00	0.00	0.627930	0.284668	1.766113	-2.170000	145.039993	-98.070000	51.00	0.24	0.03	6.75	7.50	7.25	9.00	3.50	3.75	0.50	1.50	2.75	3.50	5.75	3.50	5.00	3.50	1.75	4.25	-0.140137	0.072266	0.985840	-0.560000	-4.690000	1.960000	712.00	-0.06	-0.09
2.12	0.00	0.00	0.00	0.00	0.00	0.00	0.50	0.00	0.25	1.00	1.00	0.50	0.00	0.00	0.00	0.00	1.288086	0.017578	2.417969	11.760000	62.160000	-119.209999	37.00	0.00	0.00	6.50	7.50	7.25	9.25	3.75	4.00	0.50	1.50	2.75	3.50	6.75	3.75	5.25	3.75	1.75	4.50	-0.137695	0.074707	0.981934	-0.490000	-4.270000	2.030000	737.00	-0.05	-0.09
2.13	0.00	0.00	0.00	0.00	0.00	0.00	0.50	0.00	0.00	1.00	1.00	0.25	0.00	0.00	0.00	0.00	0.332031	0.259277	1.810547	26.880001	-9.380000	-142.240005	31.00	0.00	0.00	6.75	7.75	7.25	9.25	3.50	3.75	0.25	2.00	3.25	4.00	7.50	4.25	5.50	3.75	2.00	5.00	-0.136230	0.073242	0.984863	-0.560000	-3.710000	1.960000	772.00	-0.04	-0.10
2.14	0.00	0.00	0.00	0.00	0.00	0.00	0.25	0.00	0.25	0.75	0.50	0.00	0.00	0.00	0.00	0.00	0.829590	0.019043	1.565430	25.760000	-67.059998	-146.089996	20.00	0.00	0.00	6.25	7.25	7.25	9.00	3.50	4.00	0.50	1.75	3.25	4.00	7.50	4.25	5.75	4.75	2.00	5.00	-0.142578	0.081543	0.984375	-0.910000	-2.660000	1.680000	773.00	-0.03	-0.09
2.15	0.00	0.00	0.00	0.00	0.00	0.00	0.50	0.00	0.00	0.75	0.50	0.25	0.00	0.00	0.00	0.00	0.452637	0.172852	0.888672	10.640000	-98.910004	-140.070007	23.00	0.00	0.00	6.00	7.00	7.00	9.00	3.50	3.75	0.25	1.75	3.25	4.25	8.00	4.50	5.75	4.50	2.25	5.25	-0.142578	0.081543	0.984375	-0.910000	-2.660000	1.680000	771.00	-0.02	-0.10
2.16	0.00	0.00	0.00	0.00	0.00	0.00	0.50	0.00	0.00	0.75	0.50	0.00	0.00	0.00	0.00	0.00	0.344727	0.281738	0.835449	-4.620000	-104.860001	-122.849998	21.00	0.00	0.00	6.25	6.75	6.75	8.75	3.50	3.75	0.25	2.00	3.50	4.25	8.25	5.75	6.25	4.50	2.25	5.50	-0.138184	0.074219	0.985840	-1.260000	-1.890000	1.750000	795.00	-0.01	-0.10
2.17	0.00	0.00	0.00	0.00	0.00	0.00	0.50	0.00	0.00	0.75	0.50	0.00	0.00	0.00	0.00	0.00	0.394531	0.500977	0.985352	-17.430000	-111.930000	-70.489998	21.00	0.00	0.00	5.75	6.75	6.50	8.75	3.50	3.75	0.25	2.00	3.50	4.75	8.50	5.50	6.00	4.50	2.50	5.50	-0.139648	0.077637	0.985352	-0.980000	-1.400000	1.820000	793.00	-0.01	-0.10
2.18	0.00	0.25	0.00	0.25	0.00	0.00	0.50	0.00	0.00	0.00	0.25	0.00	0.00	0.00	0.00	0.00	0.394531	0.500977	0.985352	-17.430000	-111.930000	-70.489998	15.00	0.00	0.00	5.50	6.50	6.75	8.75	3.25	3.75	0.50	2.25	3.75	4.75	8.75	6.00	6.50	4.75	2.25	5.75	-0.145020	0.085938	0.984375	-0.630000	-0.840000	1.890000	812.00	-0.00	-0.10
2.19	0.00	0.25	0.25	0.00	0.00	0.00	0.50	0.00	0.00	0.25	0.00	0.00	0.00	0.00	0.00	0.00	0.434082	0.556152	1.258301	14.000000	-153.649994	-14.980000	15.00	0.00	0.00	5.25	6.25	6.25	8.25	3.25	3.50	0.25	2.00	3.75	5.50	8.75	6.50	7.00	5.00	2.50	5.75	-0.142090	0.078125	0.992188	-0.280000	-0.420000	1.960000	808.00	0.01	-0.10
2.20	0.00	0.00	0.25	0.00	0.00	0.00	0.25	0.00	0.00	0.50	0.25	0.00	0.00	0.00	0.00	0.00	0.368164	0.436035	1.234863	37.660000	-180.320007	5.320000	14.00	0.00	0.00	5.00	6.25	6.00	8.25	3.00	3.50	0.25	2.00	3.75	5.50	9.00	7.00	7.00	5.00	2.50	5.75	-0.138672	0.081543	0.982422	-0.140000	-0.140000	2.030000	807.00	0.02	-0.11
2.21	0.00	0.25	0.00	0.00	0.00	0.00	0.25	0.00	0.00	0.25	0.00	0.00	0.00	0.00	0.00	0.00	0.259277	0.288574	1.149902	58.520000	-202.720001	17.990000	9.00	0.00	0.00	5.25	5.75	5.75	8.00	3.00	3.00	0.25	2.25	4.25	6.00	9.25	7.00	7.25	5.25	2.75	6.00	-0.145996	0.075195	0.986328	-0.000000	0.140000	1.960000	821.00	0.03	-0.10
2.22	0.25	0.00	0.00	0.00	0.00	0.00	0.25	0.00	0.00	0.00	0.00	0.00	0.00	0.00	0.00	0.00	0.137207	0.113281	1.083008	75.110001	-218.190002	22.960001	6.00	0.00	0.00	4.25	5.25	5.50	7.75	3.00	3.00	0.25	2.00	4.25	6.25	9.50	7.50	7.50	5.50	2.75	6.00	-0.149902	0.077637	0.979980	-0.000000	0.350000	1.960000	811.00	0.04	-0.10
2.23	0.00	0.00	0.00	0.00	0.00	0.00	0.25	0.00	0.00	0.00	0.00	0.00	0.00	0.00	0.00	0.00	0.012695	-0.020996	1.054199	85.750000	-228.199997	21.559999	4.00	0.00	0.00	4.00	5.25	5.25	7.50	2.75	3.00	0.50	2.00	4.75	6.50	9.75	7.75	7.50	5.25	2.75	6.25	-0.148926	0.081543	0.975098	-0.280000	0.350000	1.820000	818.00	0.05	-0.10
2.24	0.00	0.00	0.25	0.00	0.00	0.00	0.25	0.00	0.00	0.00	0.00	0.00	0.00	0.00	0.00	0.00	-0.106445	-0.121582	1.033203	90.510002	-234.919998	16.100000	7.00	0.00	0.00	3.50	5.00	5.00	7.25	2.50	2.50	0.25	2.00	4.25	7.25	10.00	8.00	7.75	5.75	2.75	6.25	-0.141602	0.082031	0.980469	-0.350000	0.420000	1.680000	806.00	0.06	-0.11
2.25	0.00	0.00	0.00	0.00	0.00	0.00	0.25	0.00	0.00	0.00	0.25	0.00	0.00	0.00	0.00	0.00	-0.201172	-0.188965	1.034180	89.529999	-238.279999	7.980000	6.00	0.00	0.00	3.25	4.00	4.75	7.00	2.50	2.25	0.50	2.00	4.25	7.50	10.00	8.00	7.75	6.00	3.00	6.25	-0.142090	0.081543	0.979004	-0.420000	0.490000	1.680000	797.00	0.08	-0.10
2.26	0.00	0.00	0.00	0.00	0.00	0.00	0.25	0.00	0.00	0.00	0.00	0.00	0.00	0.00	0.00	0.00	-0.273438	-0.209473	1.044434	85.330002	-239.330002	-1.190000	4.00	0.00	0.00	3.00	4.25	4.25	6.25	2.25	2.00	0.25	2.00	5.00	7.75	10.25	8.25	7.75	6.00	3.00	6.50	-0.147949	0.076660	0.979004	-0.770000	0.350000	1.540000	793.00	0.09	-0.10
2.27	0.00	0.00	0.25	0.00	0.00	0.00	0.50	0.00	0.00	0.00	0.00	0.00	0.00	0.00	0.00	0.00	-0.340820	-0.187988	1.087891	80.360001	-238.419998	-11.130000	10.00	0.00	0.00	2.75	3.50	3.75	6.25	2.50	1.75	0.25	2.00	5.00	8.25	10.50	8.50	8.00	6.25	3.00	6.75	-0.146973	0.082520	0.975586	-1.260000	0.420000	1.260000	794.00	0.10	-0.10
2.28	0.00	0.00	0.00	0.00	0.00	0.00	0.25	0.00	0.00	0.00	0.00	0.00	0.00	0.00	0.00	0.00	-0.375977	-0.153809	1.145508	78.959999	-237.649994	-21.840000	4.00	0.00	0.00	1.75	2.75	3.50	5.75	2.25	1.75	0.25	2.00	5.50	8.50	10.75	8.50	8.00	6.75	3.00	6.75	-0.139648	0.084961	0.977539	-1.960000	0.490000	1.050000	781.00	0.12	-0.10
2.29	0.00	0.00	0.00	0.00	0.00	0.00	0.25	0.00	0.00	0.00	0.00	0.00	0.00	0.00	0.00	0.00	-0.436035	-0.111328	1.229492	83.510002	-237.649994	-32.830002	4.00	0.00	0.00	2.00	2.50	3.00	5.25	2.25	1.25	0.25	1.75	5.50	8.75	11.00	8.75	8.00	6.50	3.25	6.75	-0.143555	0.079102	0.980469	-2.380000	0.700000	0.910000	770.00	0.13	-0.10
2.30	0.00	0.25	0.00	0.00	0.00	0.00	0.25	0.00	0.00	0.00	0.00	0.00	0.00	0.00	0.00	0.00	-0.521973	-0.081543	1.285156	92.470001	-238.279999	-42.349998	6.00	0.00	0.00	1.50	2.75	3.00	5.25	1.75	1.25	0.25	1.75	5.75	9.00	11.25	9.00	8.25	7.25	3.25	7.00	-0.148438	0.081543	0.984863	-2.800000	0.980000	0.700000	782.00	0.14	-0.10
2.31	0.00	0.00	0.25	0.00	0.00	0.00	0.25	0.00	0.00	0.00	0.00	0.00	0.00	0.00	0.00	0.00	-0.600098	-0.062988	1.269531	99.540001	-237.720001	-48.020000	7.00	0.00	0.00	1.25	2.00	2.25	4.75	1.75	1.00	0.25	1.50	6.50	9.50	11.50	9.00	8.25	7.75	3.50	7.25	-0.147949	0.080566	0.981934	-3.080000	1.610000	0.490000	778.00	0.16	-0.09
2.32	0.00	0.00	0.00	0.00	0.00	0.00	0.25	0.00	0.00	0.00	0.00	0.00	0.00	0.00	0.00	0.00	-0.708496	-0.014648	1.241211	100.519997	-233.520004	-48.090000	4.00	0.00	0.00	1.25	1.75	2.25	4.25	1.75	0.75	0.25	1.75	7.00	9.75	11.75	9.25	8.00	8.50	3.50	7.25	-0.143555	0.079102	0.987305	-3.010000	2.450000	0.490000	790.00	0.17	-0.08
2.33	0.00	0.00	0.00	0.00	0.00	0.00	0.25	0.00	0.00	0.00	0.00	0.00	0.00	0.00	0.00	0.00	-0.800293	0.047852	1.215332	98.489998	-223.860001	-43.049999	4.00	0.00	0.00	1.00	1.50	1.75	3.50	1.50	0.50	0.25	1.50	7.25	10.00	12.00	9.50	8.25	8.50	3.75	7.50	-0.151367	0.072754	0.982422	-2.520000	3.080000	0.490000	780.00	0.18	-0.08
2.34	0.00	0.00	0.25	0.00	0.00	0.00	0.25	0.00	0.00	0.00	0.00	0.00	0.00	0.00	0.00	0.00	-0.876465	0.120117	1.230957	96.459999	-209.509995	-34.160000	7.00	0.00	0.00	1.00	1.50	1.75	3.00	1.50	0.50	0.25	1.50	7.50	10.25	12.25	9.75	8.50	9.00	3.75	7.75	-0.146973	0.075195	0.982910	-2.100000	3.430000	0.700000	793.00	0.19	-0.08
2.35	0.00	0.00	0.00	0.00	0.00	0.00	0.25	0.00	0.00	0.00	0.00	0.00	0.00	0.00	0.00	0.00	-0.925293	0.202148	1.305176	97.790001	-194.180008	-21.980000	4.00	0.00	0.00	0.75	1.25	1.00	2.75	1.25	0.25	0.25	1.50	7.75	10.75	12.50	9.75	8.50	9.50	4.00	8.00	-0.152344	0.076660	0.980469	-1.050000	5.250000	0.910000	791.00	0.20	-0.08
2.36	0.00	0.00	0.25	0.00	0.00	0.00	0.25	0.00	0.00	0.00	0.00	0.00	0.00	0.00	0.00	0.00	-0.928223	0.272461	1.335449	99.470001	-182.070007	-6.720000	7.00	0.00	0.00	0.25	0.75	1.00	2.00	1.25	0.00	0.25	1.25	8.00	11.00	12.75	10.00	8.75	10.00	4.00	8.00	-0.154785	0.075684	0.979492	-0.560000	6.300000	1.050000	784.00	0.22	-0.07
2.37	0.00	0.00	0.00	0.00	0.00	0.00	0.25	0.00	0.00	0.00	0.00	0.00	0.00	0.00	0.00	0.00	-0.979004	0.250488	1.302734	98.769997	-171.360001	10.290000	4.00	0.00	0.00	0.75	1.00	0.75	2.00	1.00	0.00	0.25	1.25	8.00	11.25	13.00	10.00	8.75	10.75	4.50	8.25	-0.157715	0.077637	0.981445	-0.210000	7.280000	0.910000	804.00	0.22	-0.07
2.38	0.00	0.00	0.00	0.00	0.00	0.00	0.50	0.00	0.00	0.00	0.00	0.00	0.00	0.00	0.00	0.00	-1.040527	0.179199	1.237305	96.110001	-158.690002	27.440001	8.00	0.00	0.00	0.25	1.00	0.75	1.50	0.75	0.00	0.25	1.00	8.25	11.75	13.25	10.25	8.75	11.25	4.75	8.50	-0.159180	0.079590	0.982910	0.140000	8.400000	0.560000	809.00	0.23	-0.07
2.39	0.00	0.00	0.00	0.00	0.00	0.00	0.25	0.00	0.00	0.00	0.00	0.00	0.00	0.00	0.00	0.00	-1.111816	0.058594	1.190918	90.090004	-142.589996	42.840000	4.00	0.00	0.00	0.00	0.25	0.25	1.25	0.75	0.00	0.25	1.00	8.50	12.00	13.50	10.75	8.75	11.75	4.75	8.50	-0.153809	0.068848	0.977051	0.490000	9.660000	0.140000	809.00	0.25	-0.07
2.40	0.00	0.00	0.25	0.00	0.00	0.00	0.25	0.00	0.00	0.00	0.00	0.00	0.00	0.00	0.00	0.00	-1.214844	-0.158691	1.138672	68.529999	-105.980003	63.349998	7.00	0.00	0.00	0.00	0.50	0.25	1.00	0.50	0.00	0.25	1.00	8.75	12.00	13.75	10.75	9.00	12.50	5.25	8.75	-0.190430	0.106445	0.988281	0.280000	11.060000	-0.420000	827.00	0.25	-0.07
2.41	0.00	0.00	0.25	0.25	0.00	0.00	0.25	0.00	0.00	0.25	0.00	0.00	0.00	0.00	0.00	0.00	-1.276367	-0.251953	1.127930	60.619999	-90.860001	68.809998	12.00	0.00	0.00	0.00	0.00	0.25	0.75	0.50	0.00	0.25	1.00	8.75	12.50	14.00	10.75	8.75	12.75	5.50	8.75	-0.163574	0.088379	0.984375	-0.210000	12.880000	-0.910000	830.00	0.26	-0.06
2.42	0.00	0.25	0.00	0.00	0.00	0.00	0.25	0.00	0.00	0.00	0.00	0.00	0.00	0.00	0.00	0.00	-1.328613	-0.335938	1.125977	56.000000	-79.590004	71.750000	6.00	0.00	0.00	0.00	0.00	0.25	0.25	0.25	0.00	0.25	0.50	9.00	12.75	14.25	11.25	9.00	13.75	5.50	8.75	-0.162598	0.078613	0.985352	-2.100000	16.170000	-1.960000	839.00	0.26	-0.06
2.43	0.00	0.00	0.00	0.00	0.00	0.00	0.25	0.00	0.00	0.00	0.00	0.00	0.00	0.00	0.00	0.00	-1.385254	-0.416016	1.114258	49.560001	-72.800003	72.870003	4.00	0.00	0.00	0.00	0.00	0.00	0.75	0.00	0.00	0.25	0.75	9.50	13.00	14.50	11.25	9.00	14.25	5.75	9.25	-0.170898	0.082031	0.981934	-3.640000	19.530001	-2.590000	864.00	0.26	-0.06
2.44	0.00	0.00	0.00	0.00	0.00	0.00	0.25	0.00	0.00	0.00	0.00	0.00	0.00	0.00	0.00	0.00	-1.468750	-0.525879	1.111816	35.209999	-70.070000	72.730003	4.00	0.00	0.00	0.00	0.00	0.00	0.50	0.00	0.00	0.00	0.50	9.50	13.50	14.50	11.50	9.00	15.00	5.75	9.00	-0.175293	0.077637	0.989746	-4.900000	23.100000	-2.590000	866.00	0.27	-0.06
2.45	0.00	0.00	0.25	0.00	0.00	0.00	0.25	0.00	0.00	0.00	0.00	0.00	0.00	0.00	0.00	0.00	-1.558594	-0.587891	1.026367	13.720000	-72.660004	72.029999	7.00	0.00	0.00	0.00	0.00	0.00	0.75	0.00	0.00	0.00	0.50	9.75	13.75	15.00	11.25	9.00	15.25	6.25	9.25	-0.170898	0.105957	0.977539	-2.310000	33.459999	-1.890000	886.00	0.27	-0.05
2.46	0.00	0.00	0.00	0.00	0.00	0.00	0.25	0.00	0.00	0.00	0.00	0.00	0.00	0.00	0.00	0.00	-1.650879	-0.540527	0.852539	-4.410000	-77.840004	69.510002	4.00	0.00	0.00	0.00	0.00	0.00	0.50	0.00	0.00	0.00	0.25	10.00	14.00	15.00	11.50	8.75	16.00	6.25	9.25	-0.187500	0.078613	0.997559	-1.960000	41.790001	-2.170000	893.00	0.27	-0.05
2.47	0.00	0.25	0.25	0.00	0.00	0.00	0.25	0.00	0.00	0.00	0.00	0.00	0.00	0.00	0.00	0.00	-1.785645	-0.453613	0.617188	-8.960000	-81.970001	64.750000	9.00	0.00	0.00	0.00	0.00	0.00	0.00	0.00	0.00	0.00	0.25	10.25	14.25	15.00	11.50	8.75	16.50	6.25	9.25	-0.193848	0.079102	1.001465	-2.660000	49.070000	-2.940000	897.00	0.27	-0.05
2.48	0.00	0.00	0.25	0.00	0.00	0.00	0.50	0.00	0.00	0.00	0.00	0.00	0.00	0.00	0.00	0.00	-1.942871	-0.382812	0.402344	0.420000	-80.360001	58.590000	10.00	0.00	0.00	0.00	0.00	0.00	0.00	0.00	0.00	0.00	0.25	10.25	14.50	15.25	11.25	8.50	17.00	6.50	9.00	-0.207031	0.078125	1.003418	-3.500000	57.400002	-3.500000	903.00	0.28	-0.04
2.49	0.00	0.25	0.00	0.00	0.00	0.00	0.25	0.00	0.00	0.00	0.00	0.00	0.00	0.00	0.00	0.00	-2.058105	-0.415039	0.213867	18.129999	-72.309998	53.130001	6.00	0.00	0.00	0.00	0.00	0.00	0.25	0.00	0.00	0.00	0.25	10.75	14.75	15.25	11.25	8.25	17.50	6.75	9.00	-0.215820	0.091309	0.999023	-5.250000	65.379997	-4.130000	920.00	0.28	-0.04
2.50	0.00	0.00	0.00	0.25	0.00	0.00	0.25	0.00	0.00	0.00	0.00	0.00	0.00	0.00	0.00	0.00	-2.124023	-0.550293	0.105469	32.060001	-57.820000	48.580002	7.00	0.00	0.00	0.00	0.00	0.00	0.25	0.00	0.00	0.00	0.25	10.75	15.00	15.25	11.25	8.25	18.00	7.00	9.00	-0.222656	0.075684	0.999512	-7.280000	73.989998	-5.320000	929.00	0.28	-0.04
2.51	0.00	0.00	0.00	0.00	0.00	0.00	0.50	0.00	0.00	0.00	0.00	0.00	0.00	0.00	0.00	0.00	-2.101074	-0.707520	0.054199	33.320000	-38.779999	44.520000	8.00	0.00	0.00	0.00	0.00	0.00	0.25	0.00	0.00	0.00	0.00	10.75	15.00	15.25	11.25	8.00	18.50	7.00	9.00	-0.252441	0.072266	0.984863	-9.450000	81.550003	-5.670000	927.00	0.28	-0.03
2.52	0.00	0.25	0.00	0.25	0.00	0.00	0.50	0.00	0.00	0.00	0.00	0.00	0.00	0.00	0.00	0.00	-3.500000	-1.363281	0.185547	3.010000	-16.450001	40.880001	13.00	0.00	0.00	0.00	0.00	0.00	0.00	0.00	0.00	0.00	0.00	11.25	15.25	15.25	11.00	8.00	19.00	7.00	9.00	-0.261230	0.069336	0.997559	-9.380000	87.150002	-5.810000	935.00	0.28	-0.03
2.53	0.00	0.00	0.00	0.00	0.00	0.00	0.25	0.00	0.00	0.00	0.00	0.00	0.00	0.00	0.00	0.00	-2.283691	-1.181641	-0.670898	-52.009998	55.580002	34.439999	4.00	0.00	0.00	0.00	0.00	0.00	0.50	0.00	0.00	0.00	0.00	11.25	15.25	15.25	11.00	7.50	19.00	7.00	9.00	-0.269531	0.071289	0.979980	-8.050000	91.209999	-5.530000	937.00	0.28	-0.03
2.54	0.00	0.00	0.00	0.00	0.00	0.00	0.25	0.00	0.00	0.00	0.00	0.00	0.00	0.00	0.00	0.00	-2.180664	-0.832520	-0.069336	-75.809998	111.790001	9.450000	4.00	0.00	0.00	0.00	0.00	0.00	0.00	0.00	0.00	0.00	0.00	11.25	15.50	15.00	11.00	7.50	19.50	7.00	8.75	-0.288086	0.070312	0.989746	-6.440000	94.919998	-5.390000	934.00	0.28	-0.02
2.55	0.00	0.50	0.25	0.25	0.00	0.00	0.25	0.00	0.00	0.00	0.00	0.00	0.00	0.00	0.00	0.00	-0.306641	-0.225586	1.442871	-74.059998	140.000000	-20.930000	14.00	0.00	0.00	0.00	0.00	0.00	0.25	0.00	0.00	0.00	0.00	11.00	15.50	15.00	10.75	7.50	19.50	7.25	8.75	-0.324219	0.080078	0.975586	-3.010000	103.949997	-5.250000	933.00	0.28	-0.03
2.56	0.50	1.50	0.50	0.75	0.00	0.00	0.25	0.00	0.00	0.00	0.00	0.00	0.00	0.00	0.00	0.00	0.138672	-0.231934	2.151367	-63.840000	105.629997	-35.139999	37.00	0.00	0.00	0.00	0.00	0.00	0.00	0.00	0.00	0.00	0.25	11.25	15.75	14.75	10.75	7.50	19.50	7.00	8.75	-0.339355	0.075195	0.979980	-2.590000	110.110001	-5.460000	935.00	0.28	-0.03
2.57	1.25	3.25	0.00	1.00	0.25	0.00	0.25	0.00	0.00	0.00	0.00	0.00	0.00	0.00	0.00	0.00	-0.203613	0.253906	0.960938	-18.690001	66.360001	-22.540001	60.00	-0.35	-0.08	0.00	0.00	0.00	0.00	0.00	0.00	0.00	0.00	11.25	15.50	14.75	10.75	7.25	19.50	7.25	8.50	-0.357422	0.071289	0.995605	-3.080000	118.020004	-5.950000	928.00	0.28	-0.02
2.58	1.75	5.00	1.50	1.75	0.50	0.00	0.50	0.00	0.00	0.00	0.00	0.00	0.00	0.00	0.00	0.00	-0.303711	0.381836	1.114746	-9.940000	120.820000	-10.990000	113.00	-0.32	-0.06	0.00	0.00	0.00	0.25	0.00	0.00	0.00	0.00	11.25	15.75	14.50	10.50	7.00	19.25	7.25	8.50	-0.391602	0.073242	1.020996	-3.780000	128.869995	-6.370000	924.00	0.28	-0.02
2.59	3.50	5.25	2.00	2.75	0.50	0.00	0.50	0.00	0.00	0.00	0.00	0.00	0.00	0.00	0.00	0.00	-0.303711	0.381836	1.114746	-9.940000	120.820000	-10.990000	150.00	-0.33	-0.04	0.00	0.00	0.00	0.25	0.00	0.00	0.00	0.00	11.25	15.50	14.50	10.25	6.75	19.00	7.00	8.25	-0.404785	0.085938	1.016602	-5.950000	142.729996	-7.280000	910.00	0.28	-0.02
2.60	4.25	7.00	2.50	3.25	0.75	0.00	0.50	0.00	0.00	0.00	0.00	0.00	0.00	0.00	0.00	0.00	-0.397461	0.248535	1.537598	-11.480000	118.440002	3.570000	188.00	-0.33	-0.05	0.00	0.00	0.00	0.00	0.00	0.00	0.00	0.00	11.25	15.50	14.25	10.00	6.50	18.75	7.25	8.00	-0.432129	0.097168	1.008301	-8.890000	157.360001	-9.590000	899.00	0.28	-0.02
2.61	5.25	7.00	3.00	4.00	0.75	0.25	0.50	0.00	0.00	0.00	0.00	0.00	0.00	0.25	0.00	0.00	-0.346191	-0.004883	1.162598	-18.340000	93.730003	10.010000	217.00	-0.32	-0.04	0.00	0.00	0.00	0.00	0.00	0.00	0.00	0.00	11.00	15.50	14.00	9.75	6.00	18.50	7.00	8.00	-0.470215	0.093262	1.054199	-11.270000	172.479996	-12.740000	881.00	0.28	-0.02
2.62	6.00	7.00	3.25	4.50	1.00	0.00	0.75	0.00	0.25	0.00	0.00	0.00	0.00	0.00	0.00	0.00	-0.466309	0.072266	2.115234	-56.000000	67.059998	-4.830000	238.00	-0.32	-0.03	0.00	0.00	0.00	0.00	0.00	0.00	0.00	0.00	10.75	15.25	13.50	9.50	5.50	18.25	7.00	7.75	-0.497070	0.106934	1.062500	-16.590000	189.490005	-16.100000	860.00	0.28	-0.01
2.63	6.75	7.75	3.50	4.75	1.00	0.75	0.75	0.00	0.00	0.00	0.00	0.00	0.00	0.25	0.00	0.00	-0.354980	0.100098	1.140625	-47.459999	15.610000	-3.290000	265.00	-0.32	-0.04	0.00	0.00	0.00	0.00	0.00	0.00	0.00	0.00	10.50	15.00	13.00	8.75	5.00	17.75	7.25	7.50	-0.520508	0.099609	1.050781	-22.680000	208.250000	-20.580000	834.00	0.29	-0.01
2.64	7.00	8.75	4.00	4.75	1.25	0.50	0.75	0.00	0.00	0.25	0.25	0.00	0.00	0.00	0.00	0.00	-0.256348	0.083008	0.987305	-46.060001	-3.290000	-0.630000	285.00	-0.32	-0.04	0.00	0.00	0.00	0.00	0.00	0.00	0.00	0.00	10.00	14.50	12.75	8.25	4.00	17.50	6.75	7.25	-0.549316	0.104004	1.039062	-28.980000	227.570007	-25.549999	796.00	0.29	-0.00
2.65	7.00	9.25	4.50	5.25	1.25	0.50	0.75	0.00	0.25	0.50	0.25	0.00	0.25	0.25	0.00	0.00	-0.252930	0.066406	0.971191	-43.259998	-12.600000	-0.140000	311.00	-0.30	-0.04	0.00	0.00	0.00	0.00	0.00	0.00	0.00	0.00	9.50	14.25	12.25	7.75	3.00	17.00	6.75	7.00	-0.597168	0.093750	1.045898	-36.540001	247.380005	-30.730000	763.00	0.29	0.00
2.66	7.75	9.25	4.50	5.75	1.25	0.75	0.75	0.00	0.25	0.50	0.25	0.00	0.50	0.25	0.00	0.00	-0.273438	0.059570	0.940430	-20.650000	-24.080000	-0.070000	329.00	-0.29	-0.04	0.00	0.00	0.00	0.00	0.00	0.00	0.00	0.00	9.00	13.50	11.50	7.00	2.50	16.50	6.25	6.50	-0.653320	0.098145	1.079590	-43.610001	265.089996	-35.349998	716.00	0.29	0.01
2.67	8.25	9.75	5.25	6.25	1.50	1.00	1.00	0.25	0.50	1.00	0.50	0.25	0.50	0.25	0.00	0.00	-0.244141	0.076660	0.949219	-12.740000	-27.719999	0.140000	380.00	-0.27	-0.04	0.00	0.00	0.00	0.00	0.00	0.00	0.00	0.00	8.25	12.50	10.50	5.75	2.25	16.00	6.00	6.00	-0.701660	0.113770	1.121582	-49.980000	279.369995	-39.619999	660.00	0.29	0.01
2.68	8.25	10.25	5.75	6.50	1.75	1.25	1.00	0.25	0.75	0.75	0.50	0.25	0.75	0.50	0.00	0.00	-0.243652	0.080566	0.941406	-11.340000	-28.770000	0.210000	403.00	-0.26	-0.04	0.00	0.00	0.00	0.00	0.00	0.00	0.00	0.00	7.00	11.75	9.75	4.25	1.25	15.00	5.75	5.50	-0.838379	0.105469	1.177246	-51.240002	291.480011	-44.099998	590.00	0.30	0.02
2.69	8.50	11.50	6.50	7.00	1.75	1.50	1.00	0.00	0.75	1.00	0.50	0.50	1.00	0.75	0.25	0.25	-0.245117	0.072266	0.951660	-6.440000	-26.880001	-0.280000	444.00	-0.25	-0.05	0.00	0.00	0.00	0.00	0.00	0.00	0.00	0.00	6.00	10.75	8.75	3.50	1.00	14.00	5.25	5.00	-1.041992	0.110352	1.406250	-51.660000	298.760010	-47.389999	529.00	0.30	0.02
2.70	8.50	11.00	6.75	8.00	2.00	1.75	1.00	0.50	1.00	1.00	1.25	0.75	1.00	1.50	0.00	0.25	-0.241699	0.080566	0.961426	-5.530000	-22.120001	-1.120000	483.00	-0.23	-0.05	0.00	0.00	0.00	0.00	0.00	0.00	0.00	0.00	5.25	10.00	8.00	2.75	1.00	12.75	4.75	4.25	-1.302734	0.005371	1.555176	-44.099998	300.510010	-49.349998	476.00	0.30	0.02
2.71	8.75	11.50	7.50	8.25	2.00	2.00	1.00	0.50	1.25	1.25	0.75	1.25	1.50	1.00	0.00	0.25	-0.230469	0.063477	0.952637	-5.810000	-17.219999	-1.820000	510.00	-0.23	-0.06	0.00	0.00	0.00	0.00	0.00	0.00	0.00	0.00	4.50	9.25	7.25	1.00	0.50	11.50	3.50	3.00	-1.243164	0.121582	1.520508	-35.630001	296.029999	-48.930000	397.00	0.30	0.04
2.72	9.25	11.75	7.50	9.00	2.25	2.50	1.00	0.50	1.50	1.25	1.25	1.25	2.00	1.50	0.50	0.50	-0.229980	0.076660	0.956543	-6.370000	-13.510000	-2.590000	558.00	-0.21	-0.06	0.00	0.00	0.00	0.00	0.00	0.00	0.00	0.00	4.25	8.75	6.00	1.50	0.00	9.75	2.75	2.25	-1.229980	0.538574	1.202148	-29.750000	301.839996	-42.420002	349.00	0.30	0.05
2.73	9.50	12.25	8.00	9.50	2.50	2.75	1.00	0.75	1.75	1.50	1.50	1.50	1.75	1.75	0.50	0.50	-0.220703	0.073242	0.947754	-7.070000	-11.270000	-3.010000	597.00	-0.20	-0.06	0.00	0.00	0.00	0.00	0.00	0.00	0.00	0.00	3.00	8.25	5.00	1.75	0.00	8.25	2.00	2.00	-1.191406	0.227539	1.504395	-0.000000	299.739990	-38.360001	298.00	0.29	0.04
2.74	11.00	13.50	8.50	9.50	2.75	3.25	1.00	0.75	1.75	1.75	2.00	2.00	2.50	2.25	0.25	0.75	-0.220215	0.059570	0.955566	-7.350000	-10.010000	-3.150000	660.00	-0.19	-0.06	0.00	0.00	0.00	0.00	0.00	0.00	0.00	0.00	2.75	7.50	4.00	1.50	0.00	7.00	1.50	1.50	-0.807129	0.244141	1.322266	2.310000	283.079987	-60.760002	255.00	0.29	0.05
2.75	10.00	13.25	9.50	10.75	3.00	3.75	1.25	0.75	1.75	1.75	2.00	2.00	2.25	2.75	0.50	0.75	-0.212402	0.048828	0.950684	-7.630000	-8.400000	-3.150000	689.00	-0.19	-0.06	0.00	0.00	0.00	0.00	0.00	0.00	0.00	0.00	2.50	6.50	3.25	1.00	0.00	5.50	1.25	1.25	-0.723145	0.400391	1.242676	4.760000	278.320007	-70.419998	212.00	0.29	0.05
2.76	10.50	13.00	9.00	10.00	3.50	3.75	1.25	0.75	2.50	2.00	2.25	2.25	2.75	3.25	0.25	0.75	-0.209473	0.062988	0.954102	-7.840000	-7.140000	-3.220000	707.00	-0.17	-0.06	0.00	0.00	0.00	0.00	0.00	0.00	0.00	0.00	1.25	5.25	2.75	1.00	0.00	2.25	1.25	0.75	-0.664062	0.423340	1.326172	21.280001	269.149994	-80.010002	147.00	0.28	0.02
2.77	10.25	13.50	9.50	10.25	4.00	4.25	1.25	0.75	3.00	2.25	2.75	2.50	2.75	3.50	0.50	0.75	-0.200195	0.049805	0.958496	-7.280000	-5.320000	-3.290000	750.00	-0.16	-0.05	0.00	0.00	0.00	0.00	0.00	0.00	0.00	0.00	1.25	4.50	2.25	0.75	0.25	0.75	0.50	0.50	-0.267090	0.430176	1.398438	42.560001	240.520004	-89.040001	111.00	0.26	0.01
2.78	10.00	13.50	9.25	11.00	4.25	4.25	1.25	1.00	2.50	2.25	3.25	3.00	3.25	3.75	0.50	1.00	-0.207031	0.061523	0.954590	-5.810000	-3.290000	-3.150000	771.00	-0.15	-0.07	0.00	0.00	0.00	0.00	0.00	0.00	0.00	0.00	1.00	3.25	1.75	0.75	0.00	0.50	0.25	0.25	1.424805	0.476562	2.368164	59.849998	156.800003	-102.620003	81.00	0.25	0.02
2.79	10.75	13.00	9.50	10.00	4.50	4.75	1.25	1.25	3.75	2.75	3.50	3.50	3.00	4.75	0.50	1.00	-0.205566	0.050781	0.957031	-4.480000	-1.190000	-2.730000	814.00	-0.13	-0.05	0.00	0.00	0.00	0.00	0.00	0.00	0.00	0.00	0.75	2.75	1.25	0.50	0.00	0.50	0.25	0.00	0.948730	0.687012	3.296875	66.290001	21.629999	-106.610001	64.00	0.26	0.03
2.80	9.50	12.00	9.50	10.00	4.75	4.50	1.25	1.25	3.75	3.25	4.00	3.75	3.50	4.00	0.75	1.00	-0.204590	0.061523	0.967285	-3.360000	0.700000	-2.520000	806.00	-0.12	-0.06	0.00	0.00	0.00	0.00	0.00	0.00	0.00	0.00	0.75	2.75	1.25	0.25	0.00	0.25	0.25	0.25	0.763672	0.296875	2.839355	55.369999	-94.989998	-98.489998	60.00	0.25	0.03
2.81	9.25	12.00	9.25	10.00	5.00	4.75	1.25	1.25	4.25	3.50	5.00	4.00	3.75	5.00	0.75	1.25	-0.203125	0.055664	0.965332	-2.310000	3.220000	-2.240000	840.00	-0.10	-0.06	0.00	0.00	0.00	0.00	0.00	0.00	0.00	0.00	0.25	1.75	0.75	0.25	0.00	0.00	0.00	0.00	0.840820	0.047852	1.381836	6.440000	-155.470001	-89.739998	32.00	0.00	0.00
2.82	8.50	11.00	9.00	9.75	5.00	4.50	1.25	1.25	4.75	3.75	5.50	5.25	4.00	5.25	1.00	1.25	-0.199707	0.062988	0.960938	-1.610000	5.460000	-2.030000	849.00	-0.08	-0.06	0.00	0.00	0.00	0.00	0.00	0.00	0.00	0.00	0.50	1.75	0.50	0.25	0.00	0.00	0.00	0.00	0.447754	0.330566	0.935547	-33.320000	-166.389999	-80.779999	33.00	0.00	0.00
2.83	8.00	10.50	8.75	9.25	5.00	4.50	1.25	1.25	5.25	4.50	6.50	5.75	4.50	5.25	1.00	1.25	-0.201172	0.065430	0.957520	-0.420000	8.400000	-1.820000	866.00	-0.06	-0.06	0.00	0.00	0.00	0.00	0.00	0.00	0.00	0.00	0.00	1.50	0.75	0.25	0.00	0.00	0.00	0.00	0.414062	0.529297	0.920410	-37.310001	-165.059998	-70.769997	26.00	0.00	0.00
2.84	8.00	9.50	8.50	8.75	5.00	4.25	1.25	1.50	5.25	5.25	7.50	6.00	5.00	5.50	1.25	1.50	-0.198730	0.066406	0.957520	-0.000000	10.080000	-2.100000	881.00	-0.04	-0.06	0.00	0.00	0.00	0.00	0.00	0.00	0.00	0.00	0.00	1.00	0.25	0.00	0.00	0.00	0.00	0.00	0.417969	0.584961	0.882812	-12.390000	-170.729996	-59.849998	13.00	0.00	0.00
2.85	7.00	8.75	8.00	8.50	4.75	3.75	1.25	1.50	6.25	6.00	7.75	6.25	5.25	6.25	1.25	1.75	-0.206055	0.061035	0.959473	0.070000	10.990000	-2.380000	883.00	-0.02	-0.06	0.00	0.00	0.00	0.00	0.00	0.00	0.00	0.00	0.00	1.00	0.25	0.00	0.00	0.00	0.00	0.00	0.407227	0.525879	0.962402	20.440001	-182.839996	-47.529999	13.00	0.00	0.00
2.86	7.00	8.75	8.25	8.50	4.50	3.25	1.25	1.25	6.50	6.25	8.25	7.00	5.25	6.50	1.50	1.75	-0.203613	0.059570	0.959473	-0.000000	11.690000	-2.450000	898.00	-0.01	-0.05	0.00	0.00	0.00	0.00	0.00	0.00	0.00	0.00	0.00	1.00	0.00	0.00	0.00	0.00	0.00	0.00	0.375000	0.416504	1.046387	42.490002	-198.869995	-32.759998	10.00	0.00	0.00
2.87	6.00	7.50	7.25	7.50	4.25	3.00	1.25	1.25	7.50	7.50	8.75	7.25	5.25	7.25	1.50	1.75	-0.210938	0.061035	0.958496	-0.070000	12.110000	-2.310000	889.00	0.02	-0.05	0.00	0.00	0.00	0.00	0.00	0.00	0.00	0.00	0.00	0.50	0.25	0.00	0.00	0.00	0.00	0.00	0.352539	0.340332	1.126953	48.299999	-217.630005	-15.400000	8.00	0.00	0.00
2.88	5.25	6.75	7.00	7.00	4.25	2.75	1.00	1.25	7.50	7.75	9.00	7.50	5.50	8.00	1.75	2.00	-0.209473	0.062012	0.957031	-0.000000	12.670000	-2.380000	879.00	0.03	-0.05	0.00	0.00	0.00	0.00	0.00	0.25	0.00	0.00	0.00	0.50	0.00	0.00	0.00	0.00	0.00	0.00	0.307129	0.315918	1.190918	45.150002	-238.279999	2.590000	8.00	0.00	0.00
2.89	4.50	6.00	6.50	6.50	3.75	2.50	1.25	1.00	7.75	8.00	9.25	7.75	5.75	8.25	1.75	2.00	-0.205078	0.060547	0.954102	0.070000	13.510000	-2.310000	861.00	0.05	-0.04	0.00	0.00	0.00	0.00	0.00	0.00	0.00	0.00	0.00	0.50	0.00	0.00	0.00	0.00	0.00	0.00	0.250000	0.333496	1.193359	43.400002	-258.720001	17.920000	5.00	0.00	0.00
2.90	4.00	5.25	6.00	6.00	3.75	1.75	1.00	1.00	8.00	8.25	9.75	8.00	5.75	8.75	1.75	2.25	-0.207520	0.063477	0.958008	0.140000	14.770000	-2.310000	845.00	0.07	-0.04	0.00	0.00	0.00	0.00	0.00	0.00	0.00	0.00	0.00	0.25	0.00	0.00	0.00	0.00	0.00	0.00	0.168457	0.311035	1.168457	49.630001	-275.730011	28.630001	3.00	0.00	0.00
2.91	3.25	5.00	5.25	5.50	3.50	1.50	1.25	1.00	8.25	8.50	10.00	8.25	5.75	9.00	1.75	2.25	-0.209961	0.058105	0.963379	0.560000	16.170000	-2.030000	833.00	0.09	-0.04	0.00	0.00	0.00	0.00	0.00	0.00	0.00	0.00	0.00	0.00	0.00	0.00	0.00	0.00	0.00	0.00	0.058105	0.263672	1.104004	63.420002	-287.070007	34.650002	0.00	0.00	0.00
2.92	2.75	4.75	5.00	5.00	3.00	1.50	1.00	1.00	8.50	8.75	10.50	8.75	5.75	9.25	2.00	2.25	-0.210449	0.063477	0.951660	1.750000	17.710001	-1.820000	829.00	0.10	-0.04	0.00	0.00	0.00	0.00	0.00	0.00	0.00	0.00	0.00	0.50	0.00	0.00	0.00	0.00	0.00	0.00	-0.193848	0.107910	1.065918	90.019997	-290.149994	39.970001	5.00	0.00	0.00
2.93	2.50	3.00	4.25	4.00	2.75	1.25	1.00	0.75	8.50	9.00	10.75	9.00	6.25	9.75	2.00	2.50	-0.210938	0.063477	0.957520	2.730000	19.320000	-1.610000	800.00	0.13	-0.04	0.00	0.00	0.00	0.00	0.00	0.00	0.00	0.00	0.00	0.25	0.00	0.00	0.00	0.00	0.00	0.00	-0.193848	0.107910	1.065918	90.019997	-290.149994	39.970001	3.00	0.00	0.00
2.94	2.00	2.00	3.50	3.50	2.50	1.25	1.00	1.00	8.75	9.25	11.25	9.50	6.25	10.00	1.75	2.50	-0.215332	0.063965	0.956055	3.990000	20.299999	-1.470000	788.00	0.15	-0.04	0.00	0.00	0.00	0.00	0.00	0.00	0.00	0.00	0.00	0.00	0.00	0.00	0.00	0.00	0.00	0.00	-0.275879	0.052246	1.093262	91.840004	-285.250000	44.799999	0.00	0.00	0.00
2.95	1.50	2.50	2.75	3.25	2.00	0.75	1.00	0.75	8.75	9.75	11.75	10.00	6.75	10.25	2.25	2.75	-0.215820	0.064453	0.952637	4.760000	21.350000	-1.330000	791.00	0.16	-0.04	0.00	0.00	0.00	0.00	0.00	0.00	0.00	0.00	0.00	0.00	0.00	0.00	0.00	0.00	0.00	0.00	-0.381836	0.052734	1.280273	80.150002	-273.209991	58.660000	0.00	0.00	0.00
2.96	0.75	1.50	2.25	3.00	2.00	0.75	1.00	0.75	8.75	9.75	11.75	10.00	7.00	10.75	2.25	3.00	-0.227051	0.065918	0.947266	5.530000	21.980000	-1.400000	773.00	0.18	-0.04	0.00	0.00	0.00	0.00	0.00	0.00	0.00	0.00	0.00	0.00	0.00	0.00	0.00	0.00	0.00	0.00	-0.452637	0.047852	1.381348	79.660004	-269.640015	64.120003	0.00	0.00	0.00
2.97	0.50	1.50	1.50	2.25	1.50	0.25	1.00	0.75	8.75	10.00	12.25	10.50	7.50	11.00	2.25	3.25	-0.225098	0.065918	0.952637	6.020000	22.330000	-1.260000	764.00	0.20	-0.05	0.00	0.00	0.00	0.25	0.00	0.00	0.00	0.00	0.00	0.00	0.00	0.00	0.25	0.00	0.00	0.00	-0.526367	0.040039	1.424805	79.940002	-266.980011	67.199997	5.00	0.00	0.00
2.98	0.75	1.50	1.50	2.00	1.50	0.25	1.00	0.75	8.75	10.25	12.50	11.00	7.50	11.25	2.50	3.50	-0.226562	0.062988	0.949707	6.370000	22.540001	-1.330000	780.00	0.20	-0.05	0.00	0.00	0.00	0.00	0.00	0.00	0.00	0.00	0.00	0.50	0.00	0.00	0.00	0.00	0.00	0.00	-0.629395	0.079102	1.375977	73.849998	-262.220001	69.230003	5.00	0.00	0.00
2.99	0.00	1.25	1.25	1.75	1.00	0.25	1.00	0.75	8.75	10.50	13.00	11.50	7.75	11.50	2.50	3.50	-0.236816	0.071289	0.946289	6.580000	22.540001	-1.470000	777.00	0.21	-0.05	0.00	0.00	0.00	0.00	0.00	0.25	0.00	0.00	0.00	0.00	0.00	0.00	0.00	0.00	0.00	0.00	-0.732910	0.131348	1.312012	61.599998	-252.070007	72.099998	3.00	0.00	0.00
3.00	0.00	1.00	0.75	1.25	1.00	0.00	1.00	1.00	8.75	10.50	13.25	12.00	8.25	11.75	2.50	3.75	-0.227051	0.069824	0.947754	6.510000	22.469999	-1.470000	780.00	0.22	-0.06	0.25	0.00	0.00	0.00	0.00	0.00	0.00	0.00	0.00	0.00	0.00	0.00	0.00	0.00	0.00	0.00	-0.822754	0.259766	1.371094	47.740002	-236.809998	76.510002	3.00	0.00	0.00
3.01	0.25	0.50	0.25	1.25	0.50	0.00	1.00	1.00	9.00	10.75	13.50	12.50	8.50	11.75	2.50	4.00	-0.236816	0.073242	0.948242	6.300000	21.910000	-1.610000	784.00	0.23	-0.06	0.00	0.00	0.00	0.25	0.00	0.00	0.00	0.00	0.00	0.00	0.00	0.25	0.00	0.00	0.00	0.00	-0.858398	0.496582	1.571777	44.240002	-225.399994	85.050003	5.00	0.00	0.00
3.02	0.50	0.00	0.50	1.00	0.50	0.00	0.75	1.00	8.75	11.00	14.00	13.00	9.00	12.00	2.75	4.50	-0.240234	0.076660	0.939941	5.950000	21.559999	-1.820000	800.00	0.23	-0.06	0.00	0.00	0.00	0.00	0.00	0.00	0.00	0.00	0.00	0.00	0.00	0.00	0.00	0.00	0.00	0.00	-0.917480	0.647949	1.665527	51.590000	-222.949997	98.840004	0.00	0.00	0.00
3.03	0.00	0.00	0.75	0.75	0.50	0.00	0.75	0.75	8.75	11.25	14.25	13.50	9.25	12.25	2.75	4.50	-0.251953	0.069336	0.969727	4.900000	20.370001	-2.310000	806.00	0.24	-0.06	0.00	0.00	0.00	0.00	0.00	0.25	0.00	0.00	0.00	0.00	0.00	0.00	0.00	0.00	0.00	0.00	-1.050781	0.615234	1.652344	59.709999	-223.020004	115.919998	3.00	0.00	0.00
3.04	0.00	0.50	0.75	1.00	0.25	0.00	0.75	0.75	8.75	11.50	14.50	13.75	9.50	12.75	3.00	5.00	-0.246094	0.081055	0.941895	2.450000	23.940001	-3.850000	830.00	0.24	-0.07	0.00	0.00	0.00	0.00	0.00	0.00	0.00	0.00	0.00	0.00	0.00	0.00	0.00	0.00	0.00	0.00	-1.237305	0.477539	1.566406	64.889999	-219.240005	133.630005	0.00	0.00	0.00
3.05	0.50	0.00	0.25	0.75	0.25	0.00	0.75	0.50	9.25	11.75	15.00	14.00	9.75	13.00	3.00	5.00	-0.252930	0.069336	0.948242	0.210000	25.900000	-3.920000	840.00	0.24	-0.06	0.00	0.00	0.00	0.00	0.00	0.00	0.00	0.00	0.00	0.00	0.00	0.00	0.00	0.00	0.00	0.00	-1.391113	0.251953	1.515625	70.070000	-210.000000	146.580002	0.00	0.00	0.00
3.06	0.00	0.00	0.50	0.75	0.00	0.00	0.75	0.50	9.25	12.00	15.00	14.25	9.75	13.25	3.00	5.00	-0.247559	0.084961	0.955078	3.850000	35.560001	-3.710000	842.00	0.25	-0.06	0.00	0.00	0.00	0.00	0.00	0.00	0.00	0.00	0.00	0.00	0.00	0.00	0.00	0.00	0.00	0.00	-1.510254	-0.062500	1.490234	72.800003	-197.119995	150.779999	0.00	0.00	0.00
3.07	0.00	0.00	0.50	0.50	0.25	0.00	0.75	0.50	9.25	12.25	15.25	14.75	10.00	13.50	3.00	5.00	-0.252930	0.078125	0.947266	5.040000	41.650002	-3.430000	857.00	0.25	-0.06	0.00	0.00	0.00	0.00	0.00	0.00	0.00	0.00	0.00	0.00	0.00	0.00	0.00	0.00	0.00	0.00	-1.576172	-0.280273	1.504395	60.200001	-184.169998	147.279999	0.00	0.00	0.00
3.08	0.00	0.00	0.25	0.50	0.00	0.00	0.75	0.50	9.25	12.50	15.50	15.00	10.00	14.00	3.25	5.25	-0.268555	0.074707	0.943848	5.670000	44.730000	-3.570000	868.00	0.25	-0.06	0.00	0.00	0.00	0.25	0.00	0.00	0.00	0.00	0.00	0.00	0.00	0.00	0.00	0.00	0.00	0.00	-1.575684	-0.304199	1.466797	31.710001	-174.860001	138.949997	3.00	0.00	0.00
3.09	0.00	0.00	0.25	0.25	0.00	0.00	0.50	0.50	9.50	12.50	15.50	15.25	10.00	14.25	3.50	5.50	-0.277832	0.081055	0.943848	6.020000	48.090000	-3.570000	873.00	0.26	-0.06	0.25	0.00	0.00	0.25	0.00	0.00	0.00	0.00	0.00	0.00	0.00	0.00	0.00	0.00	0.00	0.00	-1.569336	-0.141113	1.330566	3.780000	-167.580002	128.589996	5.00	0.00	0.00
3.10	0.00	0.00	0.25	0.00	0.00	0.00	0.50	0.50	9.50	13.00	15.75	15.50	10.50	14.50	3.25	5.50	-0.281250	0.081055	0.960449	5.810000	51.730000	-3.500000	885.00	0.26	-0.07	0.00	0.00	0.00	0.00	0.00	0.00	0.00	0.00	0.00	0.00	0.00	0.00	0.00	0.00	0.00	0.00	-1.529297	-0.007324	1.121582	-2.310000	-159.880005	115.709999	0.00	0.00	0.00
3.11	0.00	0.25	0.00	0.25	0.00	0.00	0.50	0.25	9.75	13.00	16.00	15.75	10.50	14.50	3.75	5.50	-0.289551	0.079590	0.946289	5.460000	56.279999	-3.430000	897.00	0.26	-0.06	0.00	0.00	0.00	0.25	0.00	0.00	0.00	0.00	0.00	0.00	0.00	0.00	0.00	0.00	0.00	0.00	-1.706543	-0.042480	1.038086	25.480000	-153.020004	96.389999	3.00	0.00	0.00
3.12	0.00	0.00	0.00	0.25	0.00	0.00	0.50	0.25	9.75	13.25	16.25	16.00	10.50	15.00	4.25	5.75	-0.299316	0.082520	0.952148	5.320000	61.459999	-3.640000	914.00	0.26	-0.06	0.00	0.00	0.00	0.00	0.00	0.00	0.00	0.00	0.00	0.00	0.00	0.00	0.00	0.00	0.00	0.00	-1.834473	-0.177246	0.887207	58.869999	-147.910004	71.190002	0.00	0.00	0.00
3.13	0.00	0.00	0.00	0.25	0.00	0.00	0.50	0.25	9.75	13.50	16.25	16.00	10.25	15.25	4.25	5.50	-0.297363	0.092773	0.961914	5.460000	67.129997	-4.200000	915.00	0.26	-0.06	0.00	0.00	0.00	0.00	0.00	0.00	0.00	0.00	0.00	0.00	0.00	0.00	0.00	0.00	0.00	0.00	-1.963867	-0.206543	0.654785	74.550003	-141.190002	45.150002	0.00	0.00	0.00
3.14	0.00	0.00	0.00	0.00	0.00	0.00	0.25	0.25	10.00	13.75	16.25	15.75	10.25	15.50	4.25	5.50	-0.320312	0.086914	0.945801	4.970000	72.800003	-4.760000	914.00	0.26	-0.06	0.00	0.00	0.00	0.00	0.00	0.00	0.00	0.00	0.00	0.00	0.00	0.00	0.00	0.00	0.00	0.00	-2.081543	-0.223633	0.415527	81.199997	-128.100006	23.730000	0.00	0.00	0.00
3.15	0.00	0.00	0.25	0.00	0.00	0.00	0.25	0.25	9.75	13.75	16.25	15.75	10.25	15.75	4.50	5.50	-0.314941	0.089844	0.938477	4.060000	80.500000	-5.390000	918.00	0.26	-0.06	0.00	0.00	0.00	0.00	0.00	0.00	0.00	0.00	0.00	0.00	0.00	0.00	0.00	0.00	0.00	0.00	-2.174805	-0.420410	0.175781	90.440002	-83.510002	-2.590000	0.00	0.00	0.00
3.16	0.00	0.00	0.25	0.00	0.00	0.00	0.25	0.25	10.00	14.00	16.25	16.00	10.25	16.00	4.75	5.75	-0.341797	0.092773	0.951172	4.340000	86.379997	-6.370000	933.00	0.26	-0.06	0.00	0.00	0.00	0.00	0.00	0.00	0.00	0.00	0.00	0.00	0.00	0.00	0.00	0.00	0.00	0.00	-2.149902	-0.528809	0.155273	81.970001	-58.029999	-7.910000	0.00	0.00	0.00
3.17	0.00	0.00	0.00	0.00	0.00	0.00	0.25	0.00	10.00	14.25	16.25	16.00	9.75	16.25	5.00	5.75	-0.355957	0.091797	0.948730	2.660000	92.050003	-7.070000	929.00	0.27	-0.06	0.00	0.00	0.00	0.00	0.00	0.00	0.00	0.00	0.00	0.00	0.00	0.00	0.00	0.00	0.00	0.00	-2.083496	-0.585938	0.201660	63.840000	-33.180000	-8.190000	0.00	0.00	0.00
3.18	0.00	0.00	0.00	0.00	0.00	0.00	0.25	0.00	10.00	14.25	16.00	15.50	9.75	16.50	5.00	5.75	-0.374512	0.094238	0.950195	-0.350000	98.349998	-8.190000	923.00	0.27	-0.05	0.00	0.00	0.00	0.00	0.00	0.00	0.00	0.00	0.00	0.00	0.00	0.00	0.00	0.00	0.00	0.00	-1.926270	-0.551270	0.297852	40.880001	-10.710000	-6.370000	0.00	0.00	0.00
3.19	0.00	0.00	0.00	0.00	0.00	0.00	0.25	0.25	10.00	14.50	16.00	15.75	9.50	16.75	5.25	5.75	-0.395020	0.092773	0.940430	-4.340000	104.720001	-9.170000	935.00	0.27	-0.05	0.00	0.00	0.00	0.00	0.00	0.00	0.00	0.00	0.00	0.25	0.00	0.00	0.00	0.00	0.00	0.00	-1.726074	-0.448730	0.429199	18.760000	6.230000	-7.000000	3.00	0.00	0.00
3.20	0.00	0.00	0.00	0.00	0.00	0.00	0.00	0.25	10.25	14.75	15.75	15.50	9.25	17.00	5.50	5.75	-0.406738	0.087891	0.940430	-7.350000	111.090004	-10.570000	934.00	0.27	-0.05	0.00	0.00	0.00	0.00	0.00	0.00	0.00	0.00	0.00	0.00	0.00	0.00	0.00	0.00	0.00	0.00	-1.531738	-0.291992	0.532227	4.620000	17.430000	-10.710000	0.00	0.00	0.00
3.21	0.00	0.00	0.00	0.00	0.00	0.00	0.00	0.25	10.25	15.00	15.75	15.25	8.25	17.25	5.75	6.00	-0.420898	0.091309	0.945312	-9.450000	118.650002	-11.830000	932.00	0.27	-0.05	0.00	0.00	0.25	0.00	0.00	0.00	0.00	0.00	0.00	0.00	0.00	0.00	0.00	0.00	0.00	0.00	-1.868164	-0.954590	0.331055	-66.360001	84.419998	-17.219999	3.00	0.00	0.00
3.22	0.00	0.25	0.00	0.00	0.00	0.00	0.00	0.25	10.50	15.00	15.50	15.00	8.50	17.50	5.75	5.75	-0.468262	0.079102	0.955078	-12.740000	137.199997	-13.650000	935.00	0.27	-0.05	0.25	0.00	0.25	0.00	0.00	0.00	0.00	0.00	0.00	0.00	0.00	0.00	0.00	0.00	0.00	0.00	-0.186035	0.265625	0.529785	-107.099998	126.980003	-44.520000	5.00	0.00	0.00
3.23	0.00	0.00	0.00	0.00	0.00	0.00	0.00	0.25	10.25	15.25	15.25	14.50	8.00	17.75	6.00	5.75	-0.468262	0.079102	0.955078	-12.740000	137.199997	-13.650000	924.00	0.27	-0.04	0.75	0.75	0.50	0.25	0.00	0.00	0.00	0.00	0.00	0.00	0.00	0.00	0.00	0.00	0.00	0.00	-0.046875	0.413086	2.099609	-102.550003	116.550003	-43.400002	23.00	0.00	0.00
3.24	0.00	0.00	0.00	0.00	0.00	0.00	0.00	0.25	10.50	15.25	15.25	14.00	7.25	18.25	6.00	5.75	-0.488770	0.091797	0.953125	-14.560000	148.750000	-14.560000	920.00	0.27	-0.04	1.25	1.25	0.50	1.25	0.00	0.00	0.00	0.00	0.00	0.00	0.00	0.00	0.00	0.00	0.00	0.00	-0.054199	0.431152	1.177734	-110.110001	73.570000	-23.870001	44.00	0.00	0.00
3.25	0.00	0.00	0.00	0.00	0.00	0.00	0.00	0.25	10.50	15.50	15.00	13.50	6.75	18.00	6.25	5.75	-0.537109	0.071777	0.964844	-17.219999	175.699997	-18.480000	911.00	0.27	-0.03	2.75	4.00	0.75	2.25	0.00	0.00	0.00	0.00	0.00	0.00	0.00	0.00	0.00	0.00	0.00	0.00	0.002930	0.164551	0.627441	-88.900002	100.099998	-3.150000	98.00	-0.37	-0.08
3.26	0.00	0.00	0.00	0.00	0.00	0.00	0.00	0.25	10.50	15.25	14.75	12.75	6.25	18.00	6.25	5.75	-0.571289	0.079590	0.978516	-20.020000	194.809998	-20.370001	894.00	0.28	-0.03	6.00	5.75	1.75	4.00	0.00	0.00	0.00	0.00	0.00	0.00	0.00	0.00	0.00	0.00	0.00	0.00	-0.331543	-0.142090	1.319336	-88.129997	156.520004	-1.960000	178.00	-0.36	-0.06
3.27	0.00	0.00	0.00	0.00	0.00	0.00	0.00	0.00	10.50	15.25	14.25	12.00	5.75	17.75	6.25	5.50	-0.619141	0.079590	0.988281	-23.590000	217.000000	-22.469999	869.00	0.28	-0.02	8.50	8.00	2.75	5.25	0.00	0.00	0.00	0.00	0.00	0.00	0.00	0.00	0.00	0.00	0.00	0.00	-0.443359	-0.121094	1.881836	-74.690002	174.300003	-9.520000	250.00	-0.36	-0.05
3.28	0.00	0.00	0.00	0.00	0.00	0.00	0.00	0.25	10.50	15.25	13.75	10.75	5.25	17.75	6.25	5.50	-0.649902	0.098633	0.994629	-28.210001	241.430008	-25.900000	850.00	0.28	-0.02	10.50	9.25	4.00	6.25	0.25	0.00	0.00	0.00	0.00	0.00	0.00	0.00	0.00	0.00	0.00	0.00	-0.379395	0.091797	1.796875	-44.799999	148.190002	-9.590000	310.00	-0.36	-0.04
3.29	0.00	0.00	0.00	0.00	0.00	0.00	0.00	0.00	10.25	14.75	13.25	9.75	4.25	17.50	6.00	5.25	-0.687500	0.083984	1.021973	-35.560001	269.149994	-30.799999	807.00	0.28	-0.01	12.25	10.00	5.50	7.50	0.75	0.00	0.00	0.00	0.00	0.00	0.00	0.00	0.00	0.00	0.00	0.00	-0.245117	0.115234	1.141113	-21.910000	125.020004	-4.970000	371.00	-0.35	-0.04
3.30	0.00	0.00	0.00	0.00	0.00	0.00	0.00	0.00	10.25	14.25	12.50	8.50	3.75	17.00	6.00	5.00	-0.786133	0.098633	1.099121	-44.730000	299.809998	-37.590000	771.00	0.28	0.00	13.00	10.75	6.50	8.50	0.75	0.00	0.00	0.00	0.00	0.00	0.00	0.00	0.00	0.00	0.00	0.00	-0.168457	0.125000	0.921387	-7.420000	124.599998	-0.840000	408.00	-0.35	-0.04
3.31	0.00	0.00	0.00	0.00	0.00	0.00	0.00	0.00	10.00	13.50	11.50	7.50	2.50	16.50	5.50	4.50	-0.868652	0.097168	1.212402	-54.180000	328.089996	-44.939999	715.00	0.29	0.01	13.75	11.00	7.50	9.00	1.00	0.75	0.25	0.00	0.00	0.00	0.00	0.00	0.00	0.00	0.00	0.00	-0.776855	0.408203	3.850098	-96.180000	96.879997	-5.600000	449.00	-0.34	-0.04
3.32	0.00	0.00	0.00	0.00	0.00	0.00	0.00	0.00	8.75	12.25	10.25	6.25	2.00	16.25	5.50	4.00	-0.997559	0.147461	1.270996	-60.410000	353.920013	-51.730000	651.00	0.29	0.02	14.25	11.50	8.00	9.50	1.25	1.00	0.00	0.00	0.00	0.25	0.00	0.00	0.00	0.00	0.25	0.00	-0.333984	-0.024902	1.372559	-94.779999	33.950001	-1.120000	477.00	-0.33	-0.04
3.33	0.00	0.00	0.00	0.00	0.00	0.00	0.00	0.00	7.75	11.00	9.00	5.00	1.25	15.50	5.00	3.25	-1.269043	0.049805	1.526855	-63.209999	375.480011	-58.939999	576.00	0.29	0.03	14.75	11.50	8.50	10.00	1.75	1.00	0.25	0.00	0.00	0.50	0.00	0.00	0.25	0.00	0.00	0.25	-0.244141	0.060059	1.239258	-98.070000	-1.610000	-0.000000	506.00	-0.32	-0.04
3.34	0.00	0.00	0.00	0.00	0.00	0.00	0.00	0.00	6.50	10.25	8.00	4.25	1.00	14.75	3.75	2.50	-1.620117	0.002930	1.953613	-64.750000	384.160004	-65.029999	508.00	0.30	0.04	15.00	11.50	9.00	10.50	1.75	1.50	0.25	0.25	0.50	0.50	0.00	0.00	0.25	0.00	0.25	0.25	-0.199707	0.088867	1.151855	-66.360001	-29.540001	-0.420000	538.00	-0.31	-0.04
3.35	0.00	0.00	0.00	0.00	0.00	0.00	0.00	0.00	5.25	9.25	6.75	2.75	0.75	13.50	3.00	2.00	-1.887695	0.186523	1.964355	-75.809998	379.260010	-71.260002	428.00	0.30	0.05	15.50	12.00	9.50	10.75	2.00	1.75	0.25	0.25	0.50	1.00	0.25	0.25	1.00	0.00	0.25	0.50	-0.164551	0.073730	0.984375	-14.560000	-33.880001	0.490000	580.00	-0.29	-0.04
3.36	0.00	0.00	0.00	0.00	0.00	0.00	0.00	0.00	4.00	8.50	5.75	2.50	0.50	12.00	1.75	1.50	-1.484863	0.247070	1.530762	-74.480003	375.059998	-71.820000	360.00	0.30	0.05	16.00	11.75	10.00	11.25	2.50	2.25	0.50	0.25	0.50	1.00	0.50	0.50	1.25	0.50	0.50	0.75	-0.159668	0.063477	0.990723	-11.060000	-30.799999	0.280000	624.00	-0.27	-0.04
3.37	0.00	0.00	0.00	0.00	0.00	0.00	0.00	0.00	3.25	7.75	4.75	2.00	0.50	10.50	1.50	1.00	-1.346191	0.384277	1.652344	-34.439999	357.839996	-70.070000	309.00	0.30	0.05	15.50	12.00	10.50	11.50	3.00	2.75	0.25	0.25	1.00	1.75	1.25	0.00	1.50	0.50	0.50	0.75	-0.157715	0.067871	1.000000	-8.610000	-25.900000	0.140000	656.00	-0.26	-0.04
3.38	0.00	0.00	0.00	0.00	0.00	0.00	0.00	0.00	2.50	7.25	3.75	1.50	0.25	9.00	1.00	0.50	-0.965820	0.377441	1.760254	-5.110000	339.429993	-82.459999	255.00	0.30	0.06	15.75	11.75	10.50	11.25	3.75	3.00	0.50	0.50	1.00	1.50	0.75	0.75	1.75	0.75	0.50	1.00	-0.147949	0.056641	0.984863	-6.790000	-20.370001	0.210000	677.00	-0.25	-0.05
3.39	0.00	0.00	0.00	0.00	0.00	0.00	0.25	0.00	2.00	5.75	3.00	1.50	0.00	7.50	0.75	0.50	-0.751953	0.311035	2.214844	3.570000	325.709991	-96.669998	211.00	0.29	0.06	15.50	11.75	11.00	11.75	4.50	3.00	0.50	0.75	1.25	1.25	1.25	1.00	2.00	1.50	0.75	1.25	-0.145020	0.059570	0.982910	-5.880000	-16.730000	0.490000	719.00	-0.23	-0.05
3.40	0.00	0.00	0.00	0.00	0.00	0.00	0.25	0.00	1.50	4.50	2.50	0.75	0.00	4.00	0.75	0.25	-0.666016	0.297363	1.946777	-6.650000	297.010010	-113.540001	148.00	0.28	0.06	15.00	11.50	11.00	11.75	5.25	3.50	0.50	0.75	1.50	1.75	1.75	1.25	2.50	1.50	0.75	1.25	-0.145508	0.059570	0.982910	-4.900000	-14.280000	0.700000	746.00	-0.21	-0.05
3.41	0.00	0.00	0.00	0.00	0.00	0.00	0.25	0.00	1.25	3.25	2.00	0.50	0.00	1.50	0.25	0.00	-0.157715	0.251465	1.370117	-18.200001	265.649994	-124.389999	96.00	0.26	0.06	14.25	11.00	11.00	11.50	5.75	4.00	0.50	0.75	1.75	2.00	2.00	1.75	2.75	2.25	0.75	1.50	-0.156250	0.062988	0.989746	-4.340000	-11.970000	0.700000	765.00	-0.19	-0.05
3.42	0.00	0.00	0.00	0.00	0.00	0.00	0.25	0.00	0.50	2.50	1.25	0.25	0.00	1.00	0.00	0.25	0.842285	0.512695	1.720215	-19.110001	207.690002	-132.369995	62.00	0.25	0.05	13.75	10.75	11.00	11.50	6.00	4.00	0.50	1.00	2.25	2.00	2.50	2.00	3.00	2.75	1.00	1.75	-0.156738	0.059570	0.986816	-4.060000	-9.590000	0.560000	789.00	-0.17	-0.05
3.43	0.00	0.00	0.00	0.00	0.00	0.00	0.50	0.00	0.50	2.00	1.25	0.25	0.00	0.25	0.00	0.00	0.455078	0.815918	3.421387	55.439999	-63.349998	-129.220001	53.00	0.22	0.06	13.50	10.75	11.00	11.25	6.50	4.50	0.50	1.00	2.75	2.25	3.00	2.25	3.25	3.00	1.25	2.25	-0.141113	0.060547	0.991211	-3.920000	-7.840000	0.630000	822.00	-0.16	-0.05
3.44	0.00	0.00	0.00	0.00	0.00	0.00	0.50	0.00	0.50	1.75	1.25	0.00	0.00	0.25	0.00	0.00	0.455078	0.815918	3.421387	55.439999	-63.349998	-129.220001	48.00	0.00	0.00	12.50	10.00	10.75	11.00	6.50	4.25	0.50	1.25	3.50	2.75	3.75	2.25	3.50	3.75	1.50	2.25	-0.138184	0.065430	0.995605	-3.150000	-5.670000	0.770000	834.00	-0.13	-0.05
3.45	0.00	0.00	0.00	0.00	0.00	0.00	0.50	0.00	0.25	1.75	1.25	0.00	0.00	0.25	0.00	0.00	1.035645	0.311035	1.319336	59.150002	-142.940002	-110.320000	44.00	0.00	0.00	11.75	9.50	10.50	10.75	6.50	4.25	0.50	1.00	4.00	3.25	4.25	2.75	4.00	4.25	1.50	2.50	-0.140625	0.059570	0.991699	-2.170000	-3.290000	1.050000	844.00	-0.11	-0.05
3.46	0.00	0.00	0.00	0.00	0.00	0.00	0.25	0.00	0.00	1.25	0.75	0.25	0.00	0.00	0.00	0.00	0.251953	0.607422	0.768555	2.310000	-147.699997	-51.240002	27.00	0.00	0.00	11.00	9.00	10.00	10.25	6.50	4.00	0.50	1.25	5.00	4.00	5.75	3.50	4.50	4.75	1.50	2.75	-0.139160	0.065918	0.990723	-0.630000	-0.350000	1.120000	877.00	-0.08	-0.05
3.47	0.00	0.00	0.00	0.00	0.00	0.00	0.25	0.00	0.25	1.00	0.50	0.25	0.00	0.25	0.00	0.00	0.403809	0.662598	0.959473	-7.490000	-146.300003	-17.219999	27.00	0.00	0.00	9.75	8.50	9.50	9.75	6.25	3.50	0.50	1.00	5.25	4.50	7.00	3.75	4.25	5.75	1.50	3.00	-0.137695	0.064453	1.001465	0.350000	2.590000	1.190000	868.00	-0.06	-0.05
3.48	0.00	0.00	0.00	0.00	0.00	0.00	0.50	0.00	0.00	0.75	0.25	0.25	0.00	0.00	0.00	0.00	0.422363	0.672363	1.221680	-4.760000	-167.229996	12.110000	21.00	0.00	0.00	8.75	7.75	9.00	9.25	5.75	3.00	0.50	1.00	5.75	5.50	8.00	4.00	4.75	6.50	1.75	3.25	-0.143066	0.067871	0.996582	0.840000	4.970000	1.190000	873.00	-0.03	-0.04
3.49	0.00	0.25	0.00	0.00	0.00	0.00	0.25	0.00	0.00	0.75	0.50	0.00	0.00	0.25	0.00	0.00	0.420898	0.565430	1.283203	9.240000	-199.430008	35.490002	21.00	0.00	0.00	7.25	7.00	8.25	8.50	5.50	2.50	0.50	1.00	6.25	6.75	8.50	4.75	5.00	7.50	2.25	3.50	-0.149902	0.070312	0.995117	0.700000	7.140000	1.330000	876.00	-0.00	-0.04
3.50	0.00	0.00	0.00	0.00	0.00	0.00	0.50	0.00	0.00	0.75	0.25	0.00	0.00	0.00	0.00	0.00	0.322266	0.382812	1.226562	26.040001	-230.930008	52.290001	18.00	0.00	0.00	6.50	6.25	7.75	8.00	5.00	2.00	0.50	0.75	7.25	7.50	9.00	5.00	5.00	8.00	2.25	3.50	-0.145996	0.070801	0.988770	0.840000	8.960000	1.610000	869.00	0.02	-0.04
3.51	0.00	0.00	0.00	0.00	0.00	0.00	0.25	0.00	0.00	0.00	0.50	0.00	0.00	0.25	0.00	0.00	0.201660	0.203125	1.149902	38.009998	-253.960007	61.459999	11.00	0.00	0.00	5.25	5.50	7.00	7.50	4.50	1.50	0.50	0.75	7.50	8.00	9.50	5.75	5.00	9.00	2.50	4.00	-0.142578	0.073730	0.994141	0.770000	10.500000	1.680000	860.00	0.05	-0.04
3.52	0.25	0.00	0.25	0.00	0.00	0.00	0.25	0.00	0.00	0.25	0.25	0.00	0.00	0.25	0.00	0.00	0.089844	0.068848	1.068848	44.939999	-267.820007	63.209999	17.00	0.00	0.00	4.50	4.75	6.00	6.50	4.00	1.00	0.50	0.50	7.75	8.50	10.00	6.50	5.25	9.75	2.50	4.00	-0.161133	0.078613	0.994629	0.910000	12.390000	1.400000	838.00	0.08	-0.03
3.53	0.00	0.00	0.00	0.00	0.00	0.00	0.25	0.00	0.00	0.00	0.00	0.00	0.00	0.25	0.00	0.00	-0.029297	-0.009766	1.068848	52.080002	-276.149994	57.959999	6.00	0.00	0.00	3.25	3.00	5.25	5.75	3.25	0.75	0.50	0.25	8.00	9.00	10.50	7.50	5.25	10.25	2.75	4.50	-0.154785	0.069824	0.985840	0.980000	14.910000	1.120000	812.00	0.11	-0.03
3.54	0.00	0.25	0.00	0.00	0.00	0.00	0.25	0.00	0.00	0.25	0.25	0.00	0.00	0.25	0.00	0.00	-0.131348	-0.077637	1.073242	61.810001	-283.360016	48.860001	13.00	0.00	0.00	2.25	2.50	4.25	4.75	2.75	0.25	0.50	0.50	8.25	9.25	10.75	7.75	5.25	11.00	3.00	5.00	-0.156738	0.074707	0.994629	1.400000	17.010000	0.980000	791.00	0.14	-0.03
3.55	0.00	0.00	0.00	0.00	0.00	0.00	0.50	0.00	0.00	0.00	0.25	0.00	0.00	0.00	0.00	0.00	-0.247070	-0.096680	1.081055	71.260002	-289.799988	38.709999	10.00	0.00	0.00	1.50	2.00	3.50	3.75	2.00	0.25	0.50	0.25	8.75	9.75	11.25	8.00	5.25	12.00	3.25	5.00	-0.153320	0.074707	0.977051	2.380000	19.040001	0.490000	778.00	0.17	-0.03
3.56	0.00	0.00	0.25	0.00	0.00	0.00	0.25	0.00	0.00	0.00	0.00	0.00	0.00	0.25	0.00	0.00	-0.368164	-0.110840	1.087402	78.959999	-293.860016	30.660000	9.00	0.00	0.00	1.00	1.00	2.25	3.25	1.50	0.00	0.25	0.25	9.00	10.00	11.75	8.50	5.25	12.75	3.50	5.25	-0.163086	0.078125	0.980469	3.010000	20.020000	0.350000	758.00	0.20	-0.03
3.57	0.00	0.00	0.00	0.00	0.00	0.00	0.50	0.00	0.00	0.00	0.25	0.00	0.00	0.00	0.00	0.00	-0.461914	-0.112305	1.109375	83.440002	-294.279999	26.320000	10.00	0.00	0.00	1.00	0.75	1.75	2.25	1.25	0.00	0.25	0.00	9.00	10.25	12.00	8.50	5.50	13.50	3.25	5.25	-0.174805	0.062500	0.974609	2.870000	20.510000	0.210000	744.00	0.22	-0.02
3.58	0.00	0.00	0.25	0.00	0.00	0.00	0.25	0.00	0.00	0.00	0.00	0.00	0.00	0.25	0.00	0.00	-0.542969	-0.115723	1.168457	83.790001	-292.809998	24.920000	9.00	0.00	0.00	0.25	0.25	1.25	1.75	1.00	0.00	0.25	0.25	9.50	10.50	12.25	9.00	5.50	14.25	3.50	5.50	-0.174805	0.077637	0.973633	2.380000	20.860001	-0.070000	749.00	0.24	-0.02
3.59	0.00	0.00	0.00	0.00	0.00	0.00	0.50	0.00	0.00	0.00	0.00	0.00	0.00	0.00	0.00	0.00	-0.605957	-0.105957	1.222656	80.989998	-290.429993	24.850000	8.00	0.00	0.00	0.50	0.00	0.75	1.50	0.75	0.00	0.25	0.25	9.50	11.00	12.50	9.25	5.50	14.75	3.75	5.75	-0.169922	0.093750	0.964844	0.210000	22.260000	-0.980000	757.00	0.25	-0.02
3.60	0.00	0.00	0.00	0.00	0.00	0.00	0.25	0.00	0.00	0.00	0.00	0.00	0.00	0.00	0.00	0.00	-0.674805	-0.103027	1.312988	78.610001	-288.260010	24.430000	4.00	0.00	0.00	0.25	1.00	0.75	1.00	0.50	0.00	0.25	0.00	9.75	11.25	12.75	9.25	5.50	15.50	4.50	5.75	-0.175293	0.063965	0.968262	-1.260000	22.889999	-2.170000	775.00	0.25	-0.02
3.61	0.00	0.00	0.25	0.00	0.00	0.00	0.25	0.00	0.00	0.00	0.00	0.00	0.00	0.00	0.00	0.00	-0.750488	-0.099609	1.400879	77.769997	-286.579987	21.980000	7.00	0.00	0.00	0.00	0.00	0.25	1.00	0.25	0.00	0.25	0.00	9.75	11.25	13.25	9.50	5.50	16.25	4.75	5.75	-0.207031	0.083496	0.959473	-2.800000	22.469999	-2.450000	771.00	0.27	-0.02
3.62	0.00	0.00	0.00	0.00	0.00	0.00	0.25	0.00	0.00	0.00	0.00	0.00	0.00	0.00	0.00	0.00	-0.823730	-0.097656	1.415527	80.709999	-286.160004	16.450001	4.00	0.00	0.00	0.00	0.00	0.25	1.00	0.25	0.00	0.25	0.00	9.75	11.75	13.25	9.50	5.50	16.50	4.75	6.00	-0.193359	0.053711	0.972656	-4.270000	21.980000	-1.890000	780.00	0.27	-0.02
3.63	0.00	0.00	0.25	0.00	0.00	0.00	0.25	0.00	0.00	0.00	0.00	0.00	0.00	0.00	0.00	0.00	-0.923828	-0.065918	1.415039	85.820000	-283.850006	9.170000	7.00	0.00	0.00	0.00	0.00	0.00	0.50	0.25	0.00	0.00	0.00	10.00	12.00	13.50	9.75	5.50	17.00	4.75	6.25	-0.196777	0.062500	0.968262	-5.600000	21.910000	-0.630000	785.00	0.27	-0.02
3.64	0.00	0.00	0.00	0.00	0.00	0.00	0.25	0.00	0.00	0.00	0.00	0.00	0.00	0.00	0.00	0.00	-1.037109	-0.032227	1.346680	87.919998	-277.200012	3.780000	4.00	0.00	0.00	0.00	0.00	0.25	0.50	0.00	0.00	0.00	0.00	10.25	12.25	13.75	9.75	5.50	17.50	5.00	6.25	-0.198242	0.076660	0.958984	-1.960000	27.650000	-0.280000	800.00	0.27	-0.02
3.65	0.00	0.00	0.00	0.00	0.00	0.00	0.25	0.00	0.00	0.00	0.00	0.00	0.00	0.00	0.00	0.00	-1.224121	0.093262	1.218262	84.279999	-242.690002	-0.070000	4.00	0.00	0.00	0.00	0.00	0.00	0.75	0.00	0.00	0.00	0.00	10.50	12.25	13.75	10.00	5.50	18.00	5.25	6.50	-0.205078	0.078125	0.979980	-1.890000	32.200001	-0.350000	814.00	0.28	-0.02
3.66	0.00	0.00	0.00	0.00	0.00	0.00	0.25	0.00	0.00	0.00	0.25	0.00	0.00	0.00	0.00	0.00	-1.224121	0.093262	1.218262	84.279999	-242.690002	-0.070000	6.00	0.00	0.00	0.00	0.00	0.25	0.25	0.00	0.00	0.00	0.00	10.50	12.50	14.00	10.00	5.50	18.25	5.25	6.50	-0.214355	0.073730	0.967285	-2.310000	35.560001	-1.190000	819.00	0.28	-0.02
3.67	0.00	0.00	0.25	0.00	0.00	0.00	0.25	0.00	0.00	0.00	0.00	0.00	0.00	0.00	0.00	0.00	-1.335449	0.256348	1.521484	102.129997	-210.350006	10.920000	7.00	0.00	0.00	0.00	0.00	0.00	0.00	0.00	0.00	0.00	0.00	10.75	12.50	14.00	10.25	5.50	18.75	5.75	6.50	-0.213379	0.071777	0.975098	-3.220000	38.220001	-1.610000	829.00	0.28	-0.01
3.68	0.00	0.00	0.00	0.00	0.00	0.00	0.50	0.00	0.00	0.00	0.00	0.00	0.00	0.00	0.00	0.00	-1.437988	0.200195	1.513672	106.120003	-206.850006	25.059999	8.00	0.00	0.00	0.00	0.00	0.00	0.00	0.00	0.00	0.00	0.00	10.75	13.00	14.25	10.25	5.50	19.25	5.75	6.75	-0.226074	0.078125	0.975586	-5.950000	41.369999	-2.100000	842.00	0.28	-0.01
3.69	0.00	0.00	0.00	0.00	0.00	0.00	0.25	0.00	0.00	0.00	0.00	0.00	0.00	0.00	0.00	0.00	-1.572266	0.139648	1.360840	98.699997	-201.110001	44.240002	4.00	0.00	0.00	0.00	0.00	0.00	0.00	0.00	0.00	0.00	0.00	11.25	13.25	14.50	10.25	5.50	19.75	5.75	6.75	-0.227539	0.069824	0.964844	-7.700000	44.869999	-2.870000	858.00	0.28	-0.01
3.70	0.00	0.00	0.00	0.00	0.00	0.00	0.25	0.00	0.00	0.00	0.00	0.00	0.00	0.00	0.00	0.00	-1.681152	0.078125	1.177246	87.290001	-187.039993	64.680000	4.00	0.00	0.00	0.00	0.00	0.00	0.00	0.00	0.00	0.00	0.00	11.25	13.50	14.50	10.25	5.25	20.25	6.25	6.75	-0.240234	0.072754	0.970703	-8.540000	47.880001	-3.500000	868.00	0.28	-0.01
3.71	0.00	0.00	0.00	0.00	0.00	0.00	0.25	0.00	0.00	0.00	0.00	0.00	0.00	0.00	0.00	0.00	-1.783203	-0.040527	1.072266	80.290001	-167.160004	82.110001	4.00	0.00	0.00	0.00	0.00	0.00	0.25	0.00	0.00	0.00	0.00	11.50	13.75	14.50	10.50	5.25	20.75	6.50	7.00	-0.242676	0.066895	0.958496	-9.240000	50.889999	-4.200000	888.00	0.28	-0.01
