# time	left pressure 1[N/cm²]	left pressure 2[N/cm²]	left pressure 3[N/cm²]	left pressure 4[N/cm²]	left pressure 5[N/cm²]	left pressure 6[N/cm²]	left pressure 7[N/cm²]	left pressure 8[N/cm²]	left pressure 9[N/cm²]	left pressure 10[N/cm²]	left pressure 11[N/cm²]	left pressure 12[N/cm²]	left pressure 13[N/cm²]	left pressure 14[N/cm²]	left pressure 15[N/cm²]	left pressure 16[N/cm²]	left acceleration X[g]	left acceleration Y[g]	left acceleration Z[g]	left angular X[dps]	left angular Y[dps]	left angular Z[dps]	left total force[N]	left center of pressure X[%]	left center of pressure Y[%]	right pressure 1[N/cm²]	right pressure 2[N/cm²]	right pressure 3[N/cm²]	right pressure 4[N/cm²]	right pressure 5[N/cm²]	right pressure 6[N/cm²]	right pressure 7[N/cm²]	right pressure 8[N/cm²]	right pressure 9[N/cm²]	right pressure 10[N/cm²]	right pressure 11[N/cm²]	right pressure 12[N/cm²]	right pressure 13[N/cm²]	right pressure 14[N/cm²]	right pressure 15[N/cm²]	right pressure 16[N/cm²]	right acceleration X[g]	right acceleration Y[g]	right acceleration Z[g]	right angular X[dps]	right angular Y[dps]	right angular Z[dps]	right total force[N]	right center of pressure X[%]	right center of pressure Y[%]
0.00																										6.25	6.50	6.25	8.25	2.25	4.25	0.50	1.25	0.00	0.00	0.00	0.00	0.75	0.50	0.00	0.00	-0.217285	0.104980	0.945801	-2.800000	-2.800000	2.520000	393.00	-0.26	-0.09
0.01																										6.00	6.75	6.00	8.25	2.25	4.25	0.50	1.25	0.00	0.00	0.00	0.00	0.75	0.50	0.00	0.25	-0.209961	0.106934	0.954590	-3.010000	-2.520000	2.310000	391.00	-0.26	-0.10
0.02																										6.50	6.75	6.25	8.00	2.25	4.00	0.50	1.25	0.00	0.00	0.00	0.00	0.50	0.50	0.00	0.00	-0.217285	0.108398	0.954590	-3.220000	-2.520000	2.310000	390.00	-0.27	-0.09
0.03																										6.25	7.00	6.25	8.25	2.25	4.25	0.50	1.25	0.00	0.00	0.00	0.00	0.25	0.25	0.00	0.25	-0.215332	0.109375	0.948730	-3.150000	-2.590000	2.380000	393.00	-0.27	-0.09
0.04	6.25	6.50	6.50	7.00	1.00	1.25	0.00	0.25	0.00	0.00	0.00	0.00	0.00	1.25	0.00	0.00	-0.262207	0.129395	0.912598	4.340000	0.070000	0.210000	313.00	-0.29	-0.05	6.25	7.00	6.25	8.25	2.25	4.50	0.50	1.00	0.00	0.00	0.00	0.00	0.50	0.50	0.00	0.00	-0.220703	0.105469	0.949219	-3.220000	-2.450000	2.520000	394.00	-0.27	-0.09
0.05	6.75	7.00	6.75	7.00	1.25	1.25	0.00	0.00	0.00	0.00	0.00	0.00	0.00	1.00	0.00	0.00	-0.258789	0.131836	0.911133	3.150000	1.400000	0.070000	322.00	-0.30	-0.05	6.50	6.75	6.25	8.25	2.25	4.25	0.50	0.75	0.00	0.00	0.00	0.00	0.50	0.25	0.00	0.00	-0.209961	0.109863	0.948730	-3.570000	-2.380000	2.450000	386.00	-0.27	-0.08
0.06	6.50	6.75	6.50	7.25	1.25	1.50	0.00	0.00	0.00	0.00	0.00	0.00	0.00	0.75	0.00	0.00	-0.254883	0.136230	0.920898	1.960000	2.730000	-0.350000	318.00	-0.30	-0.05	6.25	7.00	6.25	8.25	2.25	4.00	0.50	1.25	0.00	0.25	0.00	0.00	0.25	0.50	0.00	0.25	-0.216309	0.103516	0.956543	-3.640000	-2.380000	2.380000	395.00	-0.26	-0.09
0.07	6.75	7.25	6.75	7.50	1.00	1.50	0.00	0.00	0.00	0.00	0.00	0.00	0.00	1.25	0.00	0.00	-0.258301	0.139160	0.926758	0.490000	4.200000	-0.700000	332.00	-0.30	-0.05	6.75	7.00	6.25	8.00	2.25	4.00	0.50	1.25	0.00	0.00	0.00	0.00	0.25	0.75	0.00	0.25	-0.213379	0.098633	0.950684	-3.780000	-2.380000	2.310000	397.00	-0.26	-0.08
0.08																										6.50	7.00	6.25	8.50	2.00	3.75	0.50	1.00	0.00	0.00	0.00	0.00	0.50	0.50	0.00	0.25	-0.212891	0.102051	0.958496	-3.850000	-2.520000	2.310000	390.00	-0.27	-0.09
0.09	7.00	8.00	6.75	7.75	1.25	1.50	0.00	0.25	0.00	0.00	0.00	0.00	0.00	0.75	0.00	0.00	-0.265137	0.135254	0.927734	-0.910000	5.530000	-0.980000	347.00	-0.31	-0.06	6.75	7.00	6.00	8.50	2.25	4.00	0.50	1.00	0.00	0.00	0.00	0.00	0.75	0.50	0.00	0.25	-0.218262	0.104980	0.951172	-3.780000	-2.520000	2.310000	398.00	-0.27	-0.09
0.10	7.25	7.50	6.75	7.50	1.25	1.50	0.00	0.25	0.00	0.00	0.00	0.00	0.00	1.00	0.00	0.00	-0.261719	0.132324	0.929688	-1.610000	6.300000	-1.190000	344.00	-0.30	-0.05	6.75	7.00	6.50	8.50	2.25	3.75	0.50	1.25	0.00	0.00	0.00	0.00	0.50	0.75	0.00	0.00	-0.221680	0.101074	0.949219	-3.430000	-2.730000	2.310000	403.00	-0.26	-0.08
0.11	7.25	7.75	7.25	7.75	1.25	1.50	0.00	0.00	0.00	0.00	0.00	0.00	0.25	1.00	0.00	0.00	-0.259766	0.132324	0.925293	-2.240000	6.720000	-1.260000	353.00	-0.30	-0.05	6.50	6.75	6.50	8.50	2.25	3.75	0.50	1.25	0.00	0.00	0.00	0.00	0.50	0.75	0.00	0.00	-0.219238	0.096191	0.959473	-2.800000	-3.150000	2.310000	398.00	-0.26	-0.08
0.12	7.25	7.75	7.25	7.75	1.25	1.50	0.00	0.00	0.00	0.00	0.00	0.00	0.00	1.25	0.00	0.00	-0.266602	0.131836	0.926758	-2.940000	7.280000	-1.400000	353.00	-0.30	-0.05	6.75	7.25	6.50	8.50	2.00	4.25	0.50	1.00	0.00	0.00	0.00	0.00	0.25	0.75	0.00	0.25	-0.220215	0.102051	0.957031	-2.380000	-3.220000	2.310000	403.00	-0.27	-0.08
0.13	7.75	7.75	7.50	8.00	1.25	1.50	0.00	0.00	0.00	0.00	0.00	0.00	0.00	1.00	0.00	0.00	-0.263672	0.140137	0.925781	-3.990000	8.120000	-1.820000	362.00	-0.30	-0.05	6.75	7.25	6.50	8.75	2.00	4.00	0.50	1.25	0.00	0.00	0.00	0.00	0.25	0.50	0.00	0.00	-0.223145	0.104980	0.954590	-1.820000	-3.360000	2.310000	404.00	-0.27	-0.09
0.14	8.00	8.00	7.75	8.25	1.25	1.50	0.00	0.00	0.00	0.00	0.00	0.00	0.25	1.25	0.00	0.00	-0.265137	0.134277	0.919434	-5.110000	8.820000	-1.960000	376.00	-0.30	-0.05	6.75	7.25	6.50	8.50	2.00	4.00	0.50	1.00	0.00	0.00	0.00	0.00	0.50	0.50	0.00	0.00	-0.220703	0.113770	0.948242	-1.470000	-3.500000	2.520000	399.00	-0.27	-0.08
0.15	8.00	8.25	7.75	8.25	1.25	1.25	0.00	0.25	0.00	0.00	0.00	0.00	0.00	1.00	0.00	0.00	-0.262207	0.127930	0.919922	-6.230000	9.590000	-2.030000	375.00	-0.30	-0.05	6.75	7.50	6.50	8.75	2.25	3.75	0.50	1.00	0.00	0.00	0.00	0.00	0.25	0.75	0.00	0.25	-0.218262	0.101074	0.959473	-1.260000	-3.640000	2.800000	406.00	-0.27	-0.08
0.16	8.25	8.25	7.75	8.25	1.25	1.50	0.00	0.25	0.00	0.00	0.00	0.00	0.00	1.00	0.00	0.00	-0.260254	0.126953	0.929688	-6.860000	10.220000	-2.170000	381.00	-0.30	-0.05	6.75	7.25	6.50	8.75	2.25	3.75	0.50	1.00	0.00	0.00	0.00	0.00	0.50	0.50	0.00	0.00	-0.217285	0.097168	0.955566	-1.050000	-3.850000	2.800000	402.00	-0.27	-0.08
0.17	8.00	8.25	8.00	8.25	1.50	1.75	0.00	0.25	0.00	0.00	0.00	0.00	0.00	0.75	0.00	0.00	-0.270508	0.134277	0.933594	-7.210000	11.060000	-2.240000	384.00	-0.30	-0.05	7.50	7.50	6.50	9.00	1.75	4.25	0.50	1.00	0.00	0.00	0.00	0.00	0.25	0.75	0.00	0.00	-0.215332	0.102539	0.962402	-0.980000	-3.360000	2.660000	415.00	-0.27	-0.08
0.18	8.25	8.25	7.75	8.50	1.50	1.75	0.00	0.00	0.00	0.00	0.00	0.00	0.25	0.75	0.00	0.00	-0.270508	0.128906	0.933105	-7.350000	11.620000	-2.240000	385.00	-0.31	-0.05	7.00	7.50	6.50	8.75	2.00	4.00	0.50	1.00	0.00	0.00	0.00	0.00	0.25	0.50	0.00	0.25	-0.213867	0.103027	0.960449	-1.050000	-3.290000	2.520000	406.00	-0.27	-0.08
0.19	8.50	8.75	8.00	8.25	1.25	1.75	0.00	0.25	0.00	0.00	0.00	0.00	0.00	1.00	0.00	0.00	-0.271484	0.125977	0.940430	-7.210000	11.900000	-2.100000	393.00	-0.30	-0.05	7.00	7.50	6.50	8.75	2.00	4.00	0.50	1.00	0.00	0.00	0.00	0.00	0.50	0.50	0.00	0.00	-0.215820	0.098633	0.958496	-1.120000	-3.150000	2.450000	407.00	-0.27	-0.09
0.20	8.50	8.50	8.00	8.50	1.25	1.75	0.25	0.25	0.00	0.00	0.00	0.00	0.25	1.25	0.00	0.00	-0.270996	0.122559	0.943848	-6.580000	11.760000	-2.030000	402.00	-0.29	-0.05	7.25	7.50	6.75	8.75	1.75	3.75	0.50	1.00	0.00	0.00	0.00	0.00	0.50	0.25	0.00	0.00	-0.214355	0.097168	0.960938	-0.980000	-3.080000	2.310000	405.00	-0.28	-0.08
0.21	8.25	8.50	8.00	8.25	1.50	2.00	0.00	0.00	0.00	0.00	0.00	0.00	0.00	1.00	0.00	0.00	-0.276367	0.116211	0.940430	-3.990000	9.520000	-1.820000	390.00	-0.30	-0.05	7.25	7.50	6.50	8.50	2.00	3.50	0.50	1.00	0.00	0.00	0.00	0.00	0.00	0.50	0.00	0.00	-0.220215	0.108398	0.968750	0.140000	-3.570000	2.380000	397.00	-0.28	-0.08
0.22	8.50	8.50	8.25	8.75	1.25	1.75	0.00	0.25	0.00	0.00	0.00	0.00	0.00	1.00	0.00	0.00	-0.278320	0.117188	0.948730	-2.800000	8.750000	-1.750000	399.00	-0.30	-0.05	7.25	7.50	6.75	8.75	2.00	3.75	0.50	1.00	0.00	0.00	0.00	0.00	0.25	0.50	0.00	0.00	-0.219727	0.103516	0.960449	2.170000	-4.690000	2.660000	407.00	-0.28	-0.08
0.23	8.25	8.25	8.00	8.75	1.50	1.75	0.25	0.25	0.00	0.00	0.00	0.00	0.00	1.00	0.00	0.00	-0.280273	0.113281	0.941406	-2.030000	7.630000	-1.610000	398.00	-0.30	-0.05	7.00	7.50	6.50	8.75	2.00	3.75	0.25	1.00	0.00	0.00	0.00	0.00	0.00	0.50	0.00	0.00	-0.215332	0.103027	0.958984	3.360000	-5.250000	2.940000	396.00	-0.28	-0.08
0.24	8.25	8.50	8.50	9.00	1.50	1.50	0.25	0.25	0.00	0.00	0.00	0.00	0.25	1.25	0.00	0.00	-0.269531	0.123047	0.924316	-1.750000	7.210000	-1.470000	410.00	-0.29	-0.05	7.25	7.50	6.75	8.75	2.00	3.75	0.25	1.00	0.00	0.00	0.00	0.00	0.25	0.25	0.00	0.00	-0.220703	0.108887	0.963379	3.500000	-5.600000	2.870000	401.00	-0.28	-0.08
0.25	8.00	8.25	8.25	8.75	1.50	1.50	0.25	0.25	0.00	0.00	0.00	0.00	0.25	0.75	0.00	0.00	-0.270508	0.125488	0.929199	-2.310000	7.560000	-1.470000	396.00	-0.30	-0.05	7.25	7.50	6.75	8.75	2.00	3.75	0.50	1.00	0.00	0.00	0.00	0.00	0.00	0.50	0.00	0.00	-0.220215	0.112305	0.966309	4.060000	-6.370000	3.080000	405.00	-0.28	-0.08
0.26	8.50	8.75	8.25	8.75	1.25	1.75	0.00	0.25	0.00	0.00	0.00	0.00	0.00	1.25	0.00	0.00	-0.271973	0.123047	0.934082	-2.940000	7.910000	-1.610000	404.00	-0.30	-0.05	7.75	7.50	6.75	8.75	1.75	3.50	0.25	0.75	0.00	0.00	0.00	0.00	0.25	0.50	0.00	0.00	-0.220215	0.105469	0.967285	5.110000	-7.210000	3.220000	399.00	-0.29	-0.08
0.27	8.25	8.50	8.50	8.75	1.50	1.75	0.00	0.25	0.00	0.00	0.00	0.00	0.00	1.00	0.00	0.00	-0.271973	0.124023	0.929199	-3.430000	8.050000	-1.680000	402.00	-0.30	-0.05	7.50	8.00	6.75	8.75	1.75	3.75	0.50	1.00	0.00	0.00	0.00	0.00	0.00	0.75	0.00	0.00	-0.212891	0.115234	0.971191	6.300000	-8.400000	3.290000	412.00	-0.28	-0.08
0.28	8.50	8.50	8.25	8.75	1.25	1.50	0.00	0.25	0.00	0.00	0.00	0.00	0.00	1.00	0.00	0.00	-0.275391	0.124023	0.930176	-4.270000	8.820000	-1.960000	397.00	-0.30	-0.05	7.75	7.75	6.75	9.00	1.75	3.50	0.25	0.75	0.00	0.00	0.00	0.00	0.00	0.50	0.00	0.00	-0.216309	0.108887	0.962891	7.420000	-9.520000	3.500000	402.00	-0.29	-0.08
0.29	8.50	8.75	8.50	9.00	1.50	1.75	0.25	0.25	0.00	0.00	0.00	0.00	0.00	1.00	0.00	0.00	-0.283691	0.120117	0.935547	-4.690000	8.890000	-2.030000	414.00	-0.30	-0.05	7.75	8.00	6.50	8.75	1.75	3.50	0.25	1.00	0.00	0.00	0.00	0.00	0.00	0.50	0.00	0.00	-0.207520	0.111816	0.950195	7.560000	-9.870000	3.640000	403.00	-0.29	-0.08
0.30	8.25	8.75	8.50	8.75	1.25	1.50	0.25	0.25	0.00	0.00	0.00	0.00	0.00	1.00	0.00	0.00	-0.282227	0.116211	0.941406	-4.410000	8.120000	-1.890000	403.00	-0.30	-0.05	8.00	8.25	6.75	9.00	1.75	3.75	0.25	0.75	0.00	0.00	0.00	0.00	0.25	0.50	0.00	0.25	-0.208496	0.115723	0.954102	6.510000	-9.240000	3.290000	416.00	-0.29	-0.08
0.31	8.50	8.50	8.50	9.00	1.25	1.50	0.25	0.25	0.00	0.00	0.00	0.00	0.25	1.00	0.00	0.00	-0.280762	0.118652	0.941895	-3.780000	7.280000	-1.680000	408.00	-0.30	-0.05	8.25	8.25	7.00	9.00	1.50	3.50	0.25	0.75	0.00	0.00	0.00	0.00	0.00	0.25	0.00	0.00	-0.208008	0.116699	0.954590	5.530000	-8.680000	3.080000	410.00	-0.30	-0.08
0.32	8.75	8.50	8.50	9.00	1.50	1.75	0.25	0.00	0.00	0.00	0.00	0.00	0.00	1.00	0.00	0.00	-0.284180	0.114746	0.946289	-3.220000	7.560000	-1.890000	410.00	-0.30	-0.05	8.00	8.00	7.00	9.00	1.75	3.75	0.25	0.50	0.00	0.00	0.00	0.00	0.00	0.50	0.00	0.00	-0.198242	0.118164	0.945312	4.550000	-8.050000	2.870000	409.00	-0.29	-0.07
0.33	8.25	8.50	8.50	8.75	1.25	1.50	0.00	0.25	0.00	0.00	0.00	0.00	0.00	1.25	0.00	0.00	-0.281250	0.108398	0.941895	-2.310000	6.930000	-1.890000	399.00	-0.30	-0.05	8.00	8.25	7.25	9.00	1.75	3.50	0.25	0.75	0.00	0.00	0.00	0.00	0.00	0.50	0.00	0.00	-0.192871	0.112305	0.936035	2.520000	-6.930000	2.170000	415.00	-0.29	-0.07
0.34	8.25	8.50	8.25	8.75	1.50	1.50	0.25	0.00	0.00	0.00	0.00	0.00	0.00	0.75	0.00	0.00	-0.271973	0.118652	0.928711	-1.610000	6.860000	-1.960000	395.00	-0.31	-0.05	8.00	8.50	7.00	9.00	1.75	3.75	0.25	0.75	0.00	0.00	0.00	0.00	0.00	0.50	0.00	0.00	-0.197266	0.121094	0.950195	0.420000	-5.530000	1.610000	417.00	-0.29	-0.08
0.35	8.50	8.50	8.50	9.00	1.25	1.50	0.00	0.00	0.00	0.00	0.00	0.00	0.00	1.00	0.00	0.00	-0.269531	0.121582	0.921387	-1.750000	7.280000	-1.960000	398.00	-0.31	-0.05	8.25	8.25	7.25	9.00	2.00	3.25	0.25	0.75	0.00	0.00	0.00	0.00	0.00	0.50	0.00	0.00	-0.199707	0.120117	0.948242	-0.700000	-4.690000	1.330000	418.00	-0.29	-0.07
0.36	8.25	8.50	8.50	8.75	1.25	1.25	0.00	0.25	0.00	0.00	0.00	0.00	0.00	1.00	0.00	0.00	-0.278809	0.122559	0.925781	-2.380000	7.980000	-1.960000	394.00	-0.30	-0.05	8.50	8.50	7.00	9.00	1.75	3.00	0.25	1.00	0.00	0.00	0.00	0.00	0.00	0.25	0.00	0.00	-0.199707	0.121094	0.948242	-1.330000	-3.640000	1.540000	416.00	-0.30	-0.07
0.37	8.50	8.25	8.25	8.75	1.50	1.50	0.00	0.25	0.00	0.00	0.00	0.00	0.25	1.00	0.00	0.00	-0.279297	0.121582	0.937988	-2.800000	8.400000	-2.030000	399.00	-0.30	-0.05	8.50	8.50	7.25	8.75	1.75	3.75	0.25	0.75	0.00	0.00	0.00	0.00	0.00	0.50	0.00	0.00	-0.208984	0.120605	0.963867	-1.400000	-3.010000	1.680000	423.00	-0.29	-0.07
0.38	8.50	8.50	8.25	8.75	1.50	1.50	0.00	0.25	0.00	0.00	0.00	0.00	0.00	1.00	0.00	0.00	-0.284180	0.117676	0.941406	-2.450000	7.700000	-1.890000	399.00	-0.30	-0.05	8.50	8.25	7.25	9.25	1.75	3.75	0.25	0.75	0.00	0.00	0.00	0.00	0.00	0.75	0.00	0.00	-0.205566	0.119141	0.964355	-0.630000	-3.710000	1.750000	428.00	-0.29	-0.07
0.39	8.25	8.25	8.25	8.75	1.25	1.75	0.25	0.25	0.00	0.00	0.00	0.00	0.00	1.25	0.00	0.00	-0.277344	0.118164	0.924805	-1.960000	6.930000	-1.820000	400.00	-0.29	-0.05	8.75	8.25	7.25	9.25	1.75	3.50	0.25	0.75	0.00	0.00	0.00	0.00	0.00	0.25	0.00	0.00	-0.200684	0.124512	0.948730	-0.420000	-3.780000	1.820000	424.00	-0.30	-0.07
0.40	8.00	8.00	8.25	8.75	1.25	1.50	0.25	0.00	0.00	0.00	0.00	0.00	0.00	1.00	0.00	0.00	-0.273926	0.118652	0.921875	-3.150000	7.910000	-2.030000	387.00	-0.30	-0.05	8.50	8.50	7.50	9.00	1.75	3.25	0.25	0.75	0.00	0.00	0.00	0.00	0.00	0.50	0.00	0.00	-0.206543	0.123047	0.952148	-1.260000	-3.080000	1.750000	423.00	-0.29	-0.07
0.41	8.00	8.00	8.25	8.50	1.50	1.25	0.25	0.00	0.00	0.00	0.00	0.00	0.00	1.00	0.00	0.00	-0.273926	0.118652	0.921875	-3.150000	7.910000	-2.030000	384.00	-0.30	-0.04	8.50	8.25	7.25	9.00	1.75	3.25	0.25	0.50	0.00	0.00	0.00	0.00	0.25	0.25	0.00	0.00	-0.202148	0.121094	0.952148	-2.030000	-2.310000	1.540000	414.00	-0.30	-0.07
0.42	8.50	8.25	8.75	8.50	1.25	1.50	0.25	0.25	0.00	0.00	0.00	0.00	0.00	1.25	0.00	0.00	-0.276855	0.120117	0.923828	-5.530000	10.010000	-2.380000	403.00	-0.30	-0.04	8.25	8.50	7.00	9.00	1.75	3.25	0.25	0.75	0.00	0.00	0.00	0.00	0.00	0.50	0.00	0.00	-0.204102	0.120117	0.947754	-2.940000	-1.750000	1.400000	415.00	-0.29	-0.07
0.43	8.25	8.00	8.50	8.75	1.50	1.75	0.25	0.25	0.00	0.00	0.00	0.00	0.00	1.25	0.00	0.00	-0.274902	0.118652	0.927734	-6.580000	10.920000	-2.450000	404.00	-0.29	-0.05	8.25	8.25	7.50	9.00	1.75	3.25	0.25	0.75	0.00	0.00	0.00	0.00	0.00	0.25	0.00	0.00	-0.201660	0.128418	0.949707	-4.060000	-0.980000	1.190000	416.00	-0.30	-0.07
0.44	8.25	8.25	8.25	8.50	1.50	1.75	0.25	0.25	0.00	0.00	0.00	0.00	0.00	1.00	0.00	0.00	-0.284668	0.117676	0.931641	-7.280000	11.200000	-2.590000	398.00	-0.30	-0.05	8.25	8.25	7.50	9.00	2.00	3.50	0.25	0.75	0.00	0.00	0.00	0.00	0.00	0.25	0.00	0.00	-0.201660	0.122559	0.952637	-5.740000	-0.140000	1.050000	421.00	-0.29	-0.07
0.45	8.75	8.25	8.25	8.75	1.50	1.75	0.25	0.25	0.00	0.00	0.00	0.00	0.00	1.00	0.00	0.00	-0.286133	0.107910	0.941895	-7.210000	11.130000	-2.310000	406.00	-0.30	-0.05	8.25	8.25	7.25	9.00	1.75	3.50	0.25	0.75	0.00	0.00	0.00	0.00	0.00	0.25	0.00	0.00	-0.204102	0.118652	0.953613	-7.210000	0.490000	0.980000	416.00	-0.30	-0.07
0.46	8.50	8.50	8.75	8.75	1.50	1.50	0.25	0.25	0.00	0.00	0.00	0.00	0.00	1.25	0.00	0.00	-0.299316	0.106445	0.949707	-6.020000	9.870000	-1.960000	411.00	-0.30	-0.04	8.00	8.25	7.25	8.75	1.75	3.25	0.25	0.75	0.00	0.00	0.00	0.00	0.00	0.25	0.00	0.00	-0.208984	0.113281	0.958008	-7.770000	0.770000	0.910000	408.00	-0.30	-0.07
0.47	8.25	8.50	8.50	8.75	1.50	1.75	0.25	0.25	0.00	0.00	0.00	0.00	0.00	1.00	0.00	0.00	-0.283691	0.111328	0.933105	-4.620000	8.680000	-1.610000	406.00	-0.30	-0.05	8.25	8.25	7.25	9.00	1.50	3.50	0.25	0.50	0.00	0.00	0.00	0.00	0.00	0.50	0.00	0.00	-0.211426	0.119141	0.955078	-7.770000	0.700000	0.910000	411.00	-0.30	-0.07
0.48	9.00	8.50	8.75	9.00	1.50	1.75	0.25	0.25	0.00	0.00	0.00	0.00	0.00	1.00	0.00	0.00	-0.282715	0.108398	0.934082	-3.850000	8.050000	-1.470000	419.00	-0.30	-0.05	8.00	8.00	7.00	9.00	1.75	3.25	0.25	0.75	0.00	0.00	0.00	0.00	0.00	0.50	0.00	0.00	-0.206543	0.116699	0.959961	-7.700000	0.490000	0.840000	407.00	-0.29	-0.07
0.49	9.00	8.50	8.50	8.75	1.50	1.75	0.25	0.25	0.00	0.00	0.00	0.00	0.00	1.00	0.00	0.00	-0.282715	0.104492	0.929199	-3.640000	8.190000	-1.750000	414.00	-0.30	-0.05	8.00	8.25	7.00	9.00	1.75	3.25	0.25	0.75	0.00	0.00	0.00	0.00	0.25	0.50	0.00	0.00	-0.212891	0.122070	0.954102	-7.770000	0.490000	0.840000	412.00	-0.29	-0.08
0.50	8.75	8.50	8.50	9.00	1.50	1.75	0.25	0.25	0.00	0.00	0.00	0.00	0.25	1.25	0.00	0.00	-0.288574	0.116211	0.937012	-3.360000	8.050000	-1.890000	418.00	-0.29	-0.05	8.00	8.00	7.00	9.00	1.75	3.00	0.25	0.75	0.00	0.00	0.00	0.00	0.00	0.75	0.00	0.00	-0.210938	0.120117	0.960938	-7.770000	0.490000	0.980000	407.00	-0.29	-0.07
0.51	9.00	8.75	8.75	8.75	1.50	2.00	0.25	0.25	0.00	0.00	0.00	0.00	0.25	1.25	0.00	0.00	-0.278320	0.112305	0.923340	-3.710000	8.470000	-1.820000	426.00	-0.29	-0.05	7.75	8.00	7.00	8.75	1.75	3.25	0.25	0.75	0.00	0.00	0.00	0.00	0.25	0.50	0.00	0.00	-0.215820	0.111816	0.961914	-7.630000	0.280000	0.910000	404.00	-0.29	-0.08
0.52	9.00	8.75	8.75	9.25	1.75	2.00	0.25	0.25	0.00	0.00	0.00	0.00	0.00	1.00	0.00	0.00	-0.281250	0.107422	0.927734	-4.550000	9.170000	-1.890000	430.00	-0.30	-0.05	7.75	7.75	7.25	8.75	1.75	2.75	0.25	0.75	0.00	0.00	0.00	0.00	0.00	0.50	0.00	0.00	-0.211426	0.112793	0.956543	-7.350000	0.210000	0.980000	397.00	-0.29	-0.07
0.53	9.00	9.00	9.00	9.50	1.75	2.00	0.25	0.25	0.00	0.00	0.00	0.00	0.25	1.25	0.00	0.00	-0.286133	0.111328	0.932617	-5.390000	9.730000	-2.030000	442.00	-0.29	-0.05	7.50	7.75	6.75	8.50	1.75	3.00	0.25	0.75	0.00	0.00	0.00	0.00	0.00	0.50	0.00	0.00	-0.211426	0.112305	0.956543	-7.560000	0.490000	0.980000	389.00	-0.29	-0.07
0.54	9.00	9.25	8.75	9.50	1.50	2.00	0.25	0.25	0.00	0.00	0.00	0.00	0.00	1.00	0.00	0.00	-0.285156	0.113281	0.928711	-5.670000	9.520000	-1.890000	434.00	-0.30	-0.05	7.50	7.75	6.75	8.75	1.75	3.00	0.25	0.75	0.00	0.00	0.00	0.00	0.00	0.50	0.00	0.00	-0.218750	0.118164	0.957520	-7.980000	0.560000	0.840000	392.00	-0.29	-0.07
0.55	9.50	9.00	9.00	9.50	1.75	2.25	0.25	0.50	0.00	0.00	0.00	0.00	0.25	1.00	0.00	0.00	-0.282715	0.115234	0.931641	-6.300000	9.870000	-1.750000	452.00	-0.29	-0.05	7.25	7.75	6.75	8.50	1.75	2.75	0.25	0.75	0.00	0.00	0.00	0.00	0.00	0.25	0.00	0.00	-0.209473	0.110840	0.956543	-8.190000	0.630000	0.840000	381.00	-0.30	-0.07
0.56	9.50	9.00	9.25	9.75	2.00	2.25	0.25	0.50	0.00	0.00	0.00	0.00	0.00	1.00	0.00	0.00	-0.290527	0.107910	0.933594	-7.280000	10.500000	-1.680000	458.00	-0.30	-0.05	7.50	7.75	6.75	8.50	1.75	2.75	0.25	0.75	0.00	0.00	0.00	0.00	0.00	0.25	0.00	0.00	-0.211914	0.105469	0.963379	-8.540000	0.770000	0.840000	384.00	-0.30	-0.07
0.57	9.25	9.00	9.50	9.50	1.75	2.25	0.25	0.50	0.00	0.00	0.00	0.00	0.00	1.00	0.00	0.00	-0.289551	0.107910	0.936523	-7.980000	10.850000	-1.750000	452.00	-0.30	-0.05	7.00	7.50	6.50	8.50	1.75	3.00	0.25	0.75	0.00	0.00	0.00	0.00	0.00	0.50	0.00	0.25	-0.217773	0.103027	0.961914	-8.120000	0.280000	0.840000	380.00	-0.29	-0.08
0.58	9.50	8.75	9.25	10.00	2.00	2.75	0.25	0.50	0.00	0.00	0.00	0.00	0.00	1.00	0.00	0.00	-0.287598	0.106445	0.937988	-8.540000	11.060000	-1.680000	464.00	-0.29	-0.06	7.00	7.50	6.50	8.25	1.50	3.00	0.25	0.75	0.00	0.00	0.00	0.00	0.25	0.50	0.00	0.00	-0.217773	0.105957	0.969238	-7.630000	-0.070000	0.910000	375.00	-0.29	-0.08
0.59	9.50	9.25	9.25	9.75	2.00	2.50	0.25	0.50	0.00	0.00	0.00	0.00	0.00	1.25	0.00	0.00	-0.296387	0.102539	0.934082	-8.890000	11.200000	-1.610000	465.00	-0.29	-0.05	7.00	7.50	6.25	8.25	1.75	2.75	0.25	0.75	0.00	0.00	0.00	0.00	0.00	0.50	0.00	0.00	-0.218262	0.108398	0.962402	-6.860000	-0.420000	1.190000	370.00	-0.29	-0.07
0.60	9.25	9.00	9.50	9.75	2.00	2.75	0.25	0.50	0.00	0.00	0.00	0.00	0.25	1.00	0.00	0.00	-0.287598	0.102539	0.926758	-9.240000	11.060000	-1.680000	466.00	-0.29	-0.06	7.00	7.25	6.25	8.25	1.75	2.50	0.25	0.75	0.00	0.00	0.00	0.00	0.00	0.50	0.00	0.00	-0.220215	0.104004	0.960449	-6.020000	-0.700000	1.190000	365.00	-0.29	-0.07
0.61	10.00	9.00	9.25	10.00	2.00	2.50	0.25	0.50	0.00	0.00	0.00	0.00	0.25	1.00	0.00	0.00	-0.286133	0.105957	0.927734	-10.430000	11.690000	-1.610000	470.00	-0.29	-0.05	6.75	7.00	6.00	8.25	1.75	2.25	0.25	0.50	0.00	0.00	0.00	0.00	0.00	0.25	0.00	0.00	-0.220703	0.101562	0.970703	-5.460000	-0.980000	1.330000	349.00	-0.30	-0.07
0.62	9.50	9.00	9.25	9.75	2.00	2.75	0.25	0.50	0.00	0.00	0.00	0.00	0.25	1.25	0.00	0.00	-0.286133	0.100098	0.938965	-10.570000	10.430000	-1.820000	467.00	-0.29	-0.06	6.50	6.75	6.00	8.00	1.75	2.50	0.25	0.75	0.00	0.00	0.00	0.00	0.25	0.50	0.00	0.00	-0.217285	0.105469	0.962402	-4.970000	-1.260000	1.400000	352.00	-0.28	-0.08
0.63	9.25	9.00	9.75	9.75	2.00	2.75	0.25	0.75	0.00	0.00	0.00	0.00	0.25	1.25	0.00	0.00	-0.291992	0.095215	0.934570	-10.360000	10.080000	-1.820000	474.00	-0.29	-0.06	6.50	6.75	6.00	7.75	1.75	2.25	0.25	1.00	0.00	0.00	0.00	0.00	0.00	0.50	0.00	0.00	-0.220215	0.108887	0.959473	-4.620000	-1.400000	1.470000	348.00	-0.29	-0.07
0.64	9.50	9.25	9.50	9.75	2.25	3.00	0.25	0.50	0.00	0.00	0.25	0.00	0.25	1.25	0.00	0.00	-0.289062	0.103027	0.938477	-9.730000	9.730000	-2.030000	481.00	-0.28	-0.06	6.25	6.75	5.75	7.75	1.75	2.00	0.25	0.75	0.00	0.00	0.00	0.00	0.00	0.50	0.00	0.00	-0.220215	0.102539	0.958008	-4.410000	-1.400000	1.540000	336.00	-0.29	-0.07
0.65	9.50	9.25	9.50	9.75	2.00	3.00	0.50	0.75	0.25	0.00	0.00	0.00	0.25	1.00	0.00	0.00	-0.297852	0.093262	0.934570	-8.680000	8.960000	-1.890000	484.00	-0.28	-0.06	6.00	6.75	5.50	7.75	1.75	2.25	0.25	0.75	0.00	0.00	0.00	0.00	0.00	0.50	0.00	0.25	-0.220703	0.110352	0.957031	-4.550000	-1.470000	1.540000	335.00	-0.28	-0.08
0.66	9.25	9.00	9.25	9.75	2.25	3.00	0.50	0.75	0.75	0.00	0.00	0.00	0.25	1.00	0.00	0.00	-0.296875	0.090332	0.937012	-7.770000	8.400000	-1.680000	486.00	-0.27	-0.05	6.00	6.50	6.00	7.75	1.75	2.25	0.25	1.00	0.00	0.00	0.00	0.00	0.50	0.75	0.00	0.00	-0.221680	0.107910	0.960938	-4.760000	-1.330000	1.470000	347.00	-0.27	-0.08
0.67	9.00	9.25	9.50	9.50	2.25	3.00	0.50	0.75	0.25	0.00	0.00	0.00	0.25	1.25	0.00	0.00	-0.294922	0.091309	0.939453	-7.000000	7.840000	-1.680000	481.00	-0.28	-0.05	6.00	6.50	5.75	7.50	1.50	2.00	0.25	0.75	0.00	0.00	0.00	0.00	0.25	0.75	0.00	0.00	-0.225098	0.105957	0.966797	-4.830000	-1.540000	1.610000	330.00	-0.28	-0.07
0.68	9.00	9.00	9.50	9.75	2.25	3.00	0.50	0.75	0.50	0.00	0.00	0.00	0.50	1.25	0.00	0.00	-0.297852	0.092285	0.931152	-6.230000	7.490000	-1.820000	487.00	-0.27	-0.05	5.75	6.25	5.75	7.50	1.75	1.50	0.50	0.75	0.00	0.00	0.00	0.00	0.00	0.50	0.00	0.00	-0.220215	0.102539	0.959961	-4.550000	-1.680000	1.540000	322.00	-0.28	-0.07
0.69	9.25	9.00	9.50	9.50	2.25	3.00	0.50	0.75	0.50	0.00	0.00	0.00	0.50	1.25	0.00	0.00	-0.297852	0.091309	0.940430	-5.390000	7.140000	-1.680000	487.00	-0.27	-0.05	6.00	6.25	5.75	7.50	1.75	2.00	0.25	0.75	0.00	0.00	0.00	0.00	0.25	0.75	0.00	0.25	-0.223633	0.096191	0.966797	-4.270000	-1.960000	1.750000	332.00	-0.28	-0.07
0.70	9.25	9.00	9.25	9.75	2.50	3.00	0.50	0.75	0.50	0.00	0.00	0.00	0.50	1.00	0.00	0.00	-0.299805	0.094727	0.936523	-4.830000	6.860000	-1.540000	487.00	-0.27	-0.05	5.75	6.25	5.25	7.50	1.75	2.00	0.25	0.75	0.00	0.00	0.00	0.00	0.25	0.50	0.00	0.00	-0.216309	0.106445	0.954102	-4.200000	-2.100000	1.680000	320.00	-0.28	-0.08
0.71	9.00	8.75	9.50	9.50	2.25	3.00	0.50	0.75	0.50	0.00	0.00	0.00	0.50	1.25	0.00	0.00	-0.301270	0.093750	0.934570	-4.270000	6.370000	-1.260000	482.00	-0.27	-0.05	5.50	6.25	5.50	7.50	1.75	2.00	0.50	0.75	0.00	0.00	0.00	0.00	0.25	0.50	0.00	0.00	-0.225098	0.102051	0.961426	-4.340000	-2.170000	1.610000	324.00	-0.28	-0.07
0.72	9.25	8.75	9.25	9.50	2.50	3.25	0.50	1.00	0.75	0.00	0.00	0.25	0.50	1.50	0.00	0.00	-0.296387	0.089844	0.932617	-3.850000	6.510000	-1.330000	499.00	-0.26	-0.05	5.50	6.00	5.25	7.25	1.50	2.00	0.25	0.75	0.00	0.00	0.00	0.00	0.00	0.50	0.00	0.00	-0.223633	0.096680	0.957520	-4.340000	-2.240000	1.610000	308.00	-0.29	-0.08
0.73	8.75	8.75	9.25	9.50	2.50	3.00	0.50	0.75	0.25	0.00	0.00	0.00	0.75	1.25	0.00	0.00	-0.298340	0.086914	0.934082	-3.430000	6.440000	-1.330000	478.00	-0.27	-0.06	5.50	6.00	5.25	7.00	1.50	2.00	0.25	0.75	0.00	0.25	0.00	0.00	0.00	0.75	0.00	0.00	-0.219727	0.100098	0.953125	-4.270000	-2.380000	1.680000	310.00	-0.28	-0.07
0.74	9.00	8.75	9.25	9.75	2.25	3.00	0.50	0.75	0.25	0.00	0.00	0.00	0.50	1.25	0.00	0.00	-0.305176	0.089844	0.941895	-2.380000	6.090000	-0.980000	478.00	-0.27	-0.06	5.50	6.25	5.25	6.75	1.75	2.00	0.50	0.75	0.00	0.00	0.00	0.00	0.00	0.75	0.00	0.25	-0.221680	0.107422	0.959961	-4.200000	-2.520000	1.680000	315.00	-0.27	-0.07
0.75	9.25	8.50	9.00	9.75	2.25	3.00	0.50	0.75	0.50	0.00	0.00	0.00	0.50	1.25	0.00	0.00	-0.302734	0.084473	0.929199	-0.910000	5.950000	-0.840000	479.00	-0.27	-0.05	5.25	5.75	5.25	7.00	1.75	1.75	0.50	1.00	0.00	0.25	0.00	0.00	0.25	0.50	0.00	0.00	-0.221191	0.103516	0.959473	-4.060000	-2.800000	1.610000	313.00	-0.27	-0.07
0.76	9.00	8.50	9.25	9.50	2.25	3.00	0.50	0.75	0.00	0.00	0.00	0.00	0.25	1.00	0.00	0.00	-0.300293	0.083496	0.943359	-0.140000	6.020000	-0.630000	466.00	-0.28	-0.06	5.50	6.00	5.25	7.00	1.75	2.25	0.50	0.75	0.00	0.00	0.00	0.00	0.25	0.50	0.00	0.00	-0.226074	0.103027	0.960449	-3.920000	-2.870000	1.750000	317.00	-0.28	-0.07
0.77	8.75	9.00	9.25	9.50	2.25	3.00	0.50	0.75	0.25	0.00	0.00	0.25	0.50	1.25	0.00	0.00	-0.301758	0.090332	0.928223	1.120000	5.740000	-0.420000	478.00	-0.27	-0.06	5.25	5.75	5.25	6.75	1.75	2.25	0.50	0.75	0.50	0.25	0.00	0.00	0.00	0.25	0.00	0.00	-0.228516	0.096191	0.971680	-2.240000	-3.640000	1.960000	314.00	-0.27	-0.06
0.78	8.75	9.00	9.50	9.75	2.25	2.75	0.50	0.75	0.25	0.00	0.00	0.00	0.50	1.00	0.00	0.00	-0.291016	0.093262	0.929688	1.540000	5.740000	-0.490000	476.00	-0.28	-0.06	5.25	6.00	5.25	7.00	1.50	2.00	0.25	0.75	0.00	0.00	0.00	0.00	0.25	0.50	0.00	0.00	-0.220215	0.103027	0.963867	-0.980000	-4.270000	2.240000	305.00	-0.28	-0.08
0.79	9.00	9.00	9.25	9.50	2.25	3.00	0.50	0.75	0.25	0.00	0.00	0.00	0.50	1.25	0.00	0.00	-0.296387	0.091309	0.938965	1.330000	5.880000	-0.560000	478.00	-0.27	-0.06	5.25	6.00	5.25	7.00	1.75	2.25	0.25	0.75	0.00	0.00	0.00	0.00	0.25	0.25	0.00	0.00	-0.218750	0.095215	0.958496	-0.490000	-4.550000	2.520000	308.00	-0.28	-0.08
0.80	9.25	9.00	9.25	9.75	2.25	3.00	0.25	0.75	0.00	0.00	0.00	0.00	0.25	1.00	0.00	0.00	-0.305176	0.091797	0.935059	2.170000	5.880000	-0.560000	472.00	-0.29	-0.06	6.00	5.75	5.25	6.75	1.50	1.75	0.50	0.75	0.00	0.00	0.00	0.00	0.25	0.50	0.00	0.00	-0.219238	0.101562	0.960938	-0.350000	-4.690000	2.590000	309.00	-0.28	-0.07
0.81	9.00	9.00	9.25	9.50	2.25	3.00	0.25	0.75	0.50	0.00	0.00	0.00	0.25	1.25	0.00	0.00	-0.300781	0.101562	0.947266	3.920000	5.250000	-0.490000	475.00	-0.28	-0.05	5.75	6.00	5.25	7.00	1.75	2.25	0.25	1.00	0.00	0.00	0.00	0.00	0.25	0.50	0.00	0.25	-0.228027	0.098145	0.960449	0.770000	-5.180000	2.660000	321.00	-0.27	-0.08
0.82	9.25	9.25	9.25	10.00	2.25	3.00	0.25	0.50	0.00	0.00	0.00	0.00	0.25	0.75	0.00	0.00	-0.312012	0.088379	0.950684	7.140000	3.920000	0.000000	471.00	-0.29	-0.06	5.75	6.00	5.25	7.25	1.75	2.00	0.50	0.75	0.00	0.25	0.00	0.00	0.25	0.50	0.00	0.00	-0.217773	0.098145	0.962891	2.380000	-6.090000	3.010000	322.00	-0.27	-0.07
0.83	9.25	9.00	9.25	10.00	2.00	2.75	0.25	0.50	0.00	0.00	0.00	0.00	0.25	1.25	0.00	0.00	-0.284180	0.093262	0.937988	10.430000	1.820000	0.280000	468.00	-0.29	-0.06	6.00	6.25	5.25	7.25	1.50	2.50	0.25	1.00	0.00	0.00	0.00	0.00	0.00	0.75	0.00	0.00	-0.211914	0.105957	0.952148	2.520000	-6.230000	3.220000	327.00	-0.28	-0.08
0.84	9.25	9.00	9.00	9.75	2.00	2.75	0.25	0.50	0.00	0.00	0.00	0.00	0.25	0.75	0.00	0.00	-0.291504	0.096191	0.940430	10.290000	0.350000	-0.070000	458.00	-0.29	-0.06	6.00	6.00	5.25	7.50	1.75	2.50	0.50	1.00	0.00	0.00	0.00	0.00	0.25	0.75	0.00	0.00	-0.210449	0.105957	0.951660	1.540000	-5.670000	3.150000	336.00	-0.27	-0.08
0.85	9.50	9.25	9.25	9.75	2.00	2.75	0.25	0.50	0.00	0.00	0.00	0.00	0.25	1.25	0.00	0.00	-0.293945	0.103027	0.937988	10.850000	-0.630000	0.070000	470.00	-0.29	-0.06	6.00	6.25	5.50	7.50	1.75	2.50	0.25	1.00	0.00	0.00	0.00	0.00	0.00	0.25	0.00	0.00	-0.218750	0.109863	0.957031	0.420000	-5.180000	2.940000	331.00	-0.29	-0.08
0.86	9.50	9.25	9.25	9.75	2.00	2.75	0.25	0.25	0.00	0.00	0.00	0.00	0.25	0.75	0.00	0.00	-0.302734	0.097168	0.951660	11.900000	-2.310000	0.350000	462.00	-0.30	-0.06	6.25	6.25	5.50	7.25	1.75	2.50	0.25	0.75	0.00	0.00	0.00	0.00	0.00	0.50	0.00	0.00	-0.213867	0.101074	0.959473	-0.000000	-4.760000	2.870000	329.00	-0.29	-0.07
0.87	9.50	9.50	9.00	9.75	1.75	2.25	0.25	0.50	0.00	0.00	0.00	0.00	0.00	0.75	0.00	0.00	-0.299805	0.103027	0.951172	13.230000	-4.410000	0.210000	455.00	-0.30	-0.06	6.50	6.25	5.75	7.75	1.75	2.50	0.25	0.75	0.00	0.00	0.00	0.00	0.00	0.50	0.00	0.00	-0.216797	0.096680	0.966309	0.420000	-5.040000	2.800000	340.00	-0.29	-0.07
0.88	9.50	9.25	9.25	9.75	2.00	2.50	0.25	0.50	0.00	0.00	0.00	0.00	0.25	1.00	0.00	0.00	-0.293457	0.107422	0.954102	14.910000	-6.370000	0.490000	465.00	-0.29	-0.06	6.50	6.25	5.50	7.75	1.75	2.75	0.25	0.75	0.00	0.00	0.00	0.00	0.00	0.50	0.00	0.00	-0.226562	0.106445	0.969238	2.380000	-6.020000	2.730000	340.00	-0.29	-0.08
0.89	9.25	9.25	9.25	9.50	1.75	2.25	0.25	0.25	0.00	0.00	0.00	0.00	0.00	1.00	0.00	0.00	-0.285645	0.108398	0.933105	16.030001	-7.630000	0.700000	448.00	-0.30	-0.05	6.50	6.25	6.25	7.75	1.75	2.50	0.25	0.75	0.00	0.00	0.00	0.00	0.00	0.50	0.00	0.00	-0.222656	0.107910	0.971191	4.550000	-6.930000	3.080000	345.00	-0.29	-0.07
0.90	9.50	9.50	9.00	9.50	1.50	2.25	0.25	0.25	0.00	0.00	0.00	0.00	0.00	1.00	0.00	0.00	-0.283691	0.113770	0.935547	15.890000	-8.260000	0.770000	447.00	-0.30	-0.05	6.50	6.75	6.00	8.25	1.50	2.50	0.25	0.75	0.00	0.00	0.00	0.00	0.00	0.50	0.00	0.00	-0.214844	0.106934	0.968262	5.810000	-7.910000	3.360000	350.00	-0.29	-0.08
0.91	9.50	9.75	9.50	9.50	1.50	2.25	0.25	0.25	0.00	0.00	0.00	0.00	0.00	1.00	0.00	0.00	-0.277344	0.116699	0.927734	14.560000	-8.260000	0.490000	455.00	-0.30	-0.05	6.75	6.50	6.25	8.25	1.75	2.75	0.25	1.00	0.00	0.00	0.00	0.00	0.00	0.50	0.00	0.00	-0.215332	0.110352	0.973145	6.510000	-8.400000	3.570000	362.00	-0.28	-0.08
0.92	9.50	9.50	9.25	9.25	1.50	2.00	0.00	0.25	0.00	0.00	0.00	0.00	0.00	1.00	0.00	0.00	-0.265625	0.127441	0.913574	12.740000	-7.560000	0.210000	441.00	-0.31	-0.05	6.75	7.00	6.25	8.00	1.75	3.00	0.25	0.75	0.00	0.00	0.00	0.00	0.25	0.50	0.00	0.00	-0.218262	0.107910	0.963379	7.700000	-9.660000	3.570000	365.00	-0.28	-0.08
0.93	9.25	9.75	8.75	9.75	1.50	1.75	0.00	0.25	0.00	0.00	0.00	0.00	0.00	1.25	0.00	0.00	-0.275391	0.127441	0.928223	10.780000	-6.020000	0.140000	440.00	-0.30	-0.05	7.00	7.25	6.50	8.00	1.75	2.75	0.25	0.75	0.00	0.00	0.00	0.00	0.00	0.50	0.00	0.00	-0.204102	0.115723	0.953613	7.630000	-9.660000	3.430000	368.00	-0.29	-0.07
0.94	9.50	9.50	9.25	9.50	1.50	2.00	0.00	0.25	0.00	0.00	0.00	0.00	0.00	1.25	0.00	0.00	-0.278320	0.119629	0.942383	9.940000	-5.880000	0.350000	446.00	-0.30	-0.05	7.25	7.25	6.50	8.50	1.75	3.00	0.25	0.75	0.00	0.00	0.00	0.00	0.00	0.50	0.00	0.00	-0.203613	0.119141	0.947266	5.740000	-8.540000	3.010000	379.00	-0.29	-0.07
0.95	9.50	9.50	9.25	9.50	1.50	1.75	0.00	0.25	0.00	0.00	0.00	0.00	0.00	1.00	0.00	0.00	-0.274902	0.123047	0.941406	10.010000	-6.440000	0.560000	441.00	-0.31	-0.05	7.25	7.25	6.50	8.50	1.75	2.75	0.25	0.50	0.00	0.00	0.00	0.00	0.00	0.50	0.00	0.00	-0.208496	0.123047	0.944824	3.220000	-7.000000	2.660000	372.00	-0.29	-0.07
0.96	9.25	9.25	9.25	9.50	1.25	1.75	0.00	0.25	0.00	0.00	0.00	0.00	0.00	0.75	0.00	0.00	-0.284668	0.120605	0.962402	10.500000	-7.420000	0.700000	431.00	-0.31	-0.05	7.25	7.50	6.75	8.50	1.75	3.25	0.25	0.75	0.00	0.00	0.00	0.00	0.00	0.50	0.00	0.00	-0.217285	0.108398	0.973145	1.190000	-5.950000	2.380000	387.00	-0.29	-0.07
0.97	9.50	10.00	9.00	9.50	1.25	1.75	0.00	0.00	0.00	0.00	0.00	0.00	0.00	1.00	0.00	0.00	-0.269043	0.126465	0.940430	11.340000	-9.030000	0.770000	436.00	-0.31	-0.05	7.50	7.50	6.50	8.50	1.75	3.25	0.25	0.75	0.00	0.00	0.00	0.00	0.00	0.50	0.00	0.00	-0.224121	0.106934	0.982910	3.570000	-7.770000	2.590000	386.00	-0.29	-0.07
0.98	9.50	9.50	9.00	9.25	1.25	1.50	0.00	0.00	0.00	0.00	0.00	0.00	0.00	1.00	0.00	0.00	-0.263184	0.153320	0.920898	11.200000	-9.170000	0.910000	426.00	-0.31	-0.05	7.50	7.75	7.00	8.50	1.75	3.00	0.25	0.75	0.00	0.00	0.00	0.00	0.00	0.50	0.00	0.00	-0.218262	0.116211	0.978516	6.790000	-10.010000	2.940000	392.00	-0.29	-0.07
0.99	9.50	9.25	9.00	9.25	1.50	1.50	0.00	0.00	0.00	0.00	0.00	0.00	0.00	1.00	0.00	0.00	-0.252441	0.140137	0.916992	9.870000	-7.700000	0.770000	427.00	-0.31	-0.05	7.50	7.75	7.00	8.50	1.75	3.00	0.25	0.75	0.00	0.00	0.00	0.00	0.00	0.25	0.00	0.00	-0.205566	0.127441	0.948242	7.840000	-10.640000	2.870000	390.00	-0.30	-0.07
1.00	9.50	9.75	9.00	9.25	1.25	1.50	0.00	0.00	0.00	0.00	0.00	0.00	0.00	1.25	0.00	0.00	-0.248047	0.131348	0.919922	8.330000	-6.020000	0.420000	431.00	-0.31	-0.05	7.75	7.75	7.00	8.75	1.50	3.00	0.25	0.50	0.00	0.00	0.00	0.00	0.00	0.75	0.00	0.00	-0.193848	0.131348	0.940918	6.160000	-9.170000	2.730000	393.00	-0.29	-0.07
1.01	9.75	9.75	8.75	9.00	1.25	1.50	0.00	0.00	0.00	0.00	0.00	0.00	0.00	1.00	0.00	0.00	-0.245605	0.134277	0.920898	7.070000	-4.410000	-0.070000	426.00	-0.31	-0.05	7.75	8.00	7.00	9.00	1.75	3.00	0.25	0.75	0.00	0.00	0.00	0.00	0.00	0.25	0.00	0.00	-0.208496	0.126953	0.958008	4.340000	-8.050000	2.800000	400.00	-0.30	-0.07
1.02	9.75	9.50	9.00	9.25	1.25	1.50	0.00	0.00	0.00	0.00	0.00	0.00	0.00	1.00	0.00	0.00	-0.243164	0.138184	0.907227	5.670000	-2.660000	-0.420000	429.00	-0.31	-0.05	8.25	8.00	7.00	8.75	1.75	3.00	0.25	0.50	0.00	0.00	0.00	0.00	0.00	0.50	0.00	0.00	-0.192383	0.129883	0.942383	3.220000	-7.140000	2.730000	401.00	-0.30	-0.07
1.03	9.50	9.50	9.00	9.00	1.25	1.25	0.00	0.00	0.00	0.00	0.00	0.00	0.25	1.00	0.00	0.00	-0.237793	0.138672	0.902344	4.200000	-0.140000	-0.840000	423.00	-0.31	-0.05	8.00	8.00	7.25	8.75	1.50	3.25	0.25	0.50	0.00	0.00	0.00	0.00	0.00	0.50	0.00	0.00	-0.189453	0.133789	0.941406	0.980000	-5.670000	2.590000	401.00	-0.30	-0.07
1.04	9.75	9.75	8.75	9.00	1.25	1.50	0.00	0.00	0.00	0.00	0.00	0.00	0.00	1.00	0.00	0.00	-0.244629	0.144043	0.924316	0.980000	4.340000	-1.540000	426.00	-0.31	-0.05	8.00	8.00	7.50	8.75	1.75	3.25	0.25	0.75	0.00	0.00	0.00	0.00	0.00	0.50	0.00	0.00	-0.197754	0.131836	0.943848	-1.890000	-3.850000	2.380000	410.00	-0.29	-0.07
1.05	9.50	10.25	9.00	9.00	1.25	1.50	0.00	0.00	0.00	0.00	0.00	0.00	0.00	1.00	0.00	0.00	-0.255371	0.138672	0.919922	0.140000	5.460000	-1.820000	430.00	-0.31	-0.05	8.25	8.25	7.25	9.00	1.75	3.00	0.25	0.75	0.00	0.00	0.00	0.00	0.00	1.00	0.00	0.00	-0.218262	0.118652	0.966797	-2.870000	-3.640000	2.590000	417.00	-0.29	-0.07
1.06	9.50	9.50	9.00	9.00	1.25	1.25	0.00	0.00	0.00	0.00	0.00	0.00	0.00	1.50	0.00	0.00	-0.241211	0.142090	0.922363	-0.630000	6.720000	-2.030000	425.00	-0.31	-0.04	8.50	8.25	7.50	9.00	1.75	3.00	0.25	0.75	0.00	0.00	0.00	0.00	0.00	0.75	0.00	0.00	-0.206055	0.120605	0.973633	-1.890000	-4.760000	2.450000	420.00	-0.29	-0.07
1.07	9.50	9.50	8.75	9.00	1.00	1.50	0.00	0.00	0.00	0.00	0.00	0.00	0.00	1.00	0.00	0.00	-0.252930	0.146973	0.933105	-1.400000	7.490000	-2.100000	418.00	-0.31	-0.05	8.50	8.50	7.50	9.00	1.50	3.00	0.25	0.75	0.00	0.00	0.00	0.00	0.00	0.50	0.00	0.00	-0.208008	0.128906	0.966797	-0.630000	-5.530000	2.590000	417.00	-0.30	-0.07
1.08	9.25	9.25	8.75	9.00	1.25	1.25	0.00	0.00	0.00	0.00	0.00	0.00	0.00	1.00	0.00	0.00	-0.250977	0.142578	0.931152	-1.820000	7.980000	-2.100000	413.00	-0.31	-0.04	8.75	8.50	7.50	9.00	1.75	3.50	0.25	0.75	0.00	0.00	0.00	0.00	0.00	0.50	0.00	0.00	-0.206055	0.119629	0.962891	0.140000	-5.950000	2.800000	428.00	-0.29	-0.07
1.09	9.25	9.25	8.50	9.25	1.00	1.25	0.00	0.00	0.00	0.00	0.00	0.00	0.00	1.00	0.00	0.00	-0.244141	0.141113	0.917480	-2.310000	8.540000	-2.100000	410.00	-0.31	-0.05	8.50	8.50	7.50	9.00	1.75	3.25	0.25	0.75	0.00	0.00	0.00	0.00	0.00	0.50	0.00	0.00	-0.201172	0.130859	0.971680	0.770000	-6.160000	2.870000	423.00	-0.29	-0.07
1.10	9.00	9.25	8.75	9.25	1.25	1.50	0.00	0.00	0.00	0.00	0.00	0.00	0.00	1.00	0.00	0.00	-0.255371	0.144043	0.928223	-3.010000	9.870000	-2.310000	416.00	-0.31	-0.05	8.75	8.25	7.75	9.00	1.75	3.50	0.25	0.75	0.00	0.00	0.00	0.00	0.00	0.25	0.00	0.00	-0.192871	0.124512	0.957031	1.120000	-6.160000	2.870000	426.00	-0.30	-0.07
1.11	9.25	9.50	8.75	9.00	1.25	1.50	0.00	0.00	0.00	0.00	0.00	0.00	0.00	1.00	0.00	0.00	-0.260742	0.141602	0.947754	-3.290000	10.220000	-2.310000	418.00	-0.31	-0.05	8.75	8.75	7.75	9.25	1.75	3.25	0.25	0.50	0.00	0.00	0.00	0.00	0.00	0.50	0.00	0.00	-0.204590	0.125977	0.956055	1.050000	-5.740000	2.870000	429.00	-0.30	-0.07
1.12	9.50	9.25	8.75	9.00	1.25	1.50	0.00	0.00	0.00	0.00	0.00	0.00	0.25	1.00	0.00	0.00	-0.258301	0.140625	0.947266	-2.940000	9.520000	-2.170000	421.00	-0.31	-0.05	8.50	8.50	7.75	9.25	1.75	3.00	0.25	0.50	0.00	0.00	0.00	0.00	0.00	0.50	0.00	0.00	-0.203613	0.126953	0.966797	0.630000	-5.110000	2.800000	422.00	-0.30	-0.07
1.13	9.25	9.25	8.75	9.00	1.25	1.50	0.00	0.00	0.00	0.00	0.00	0.00	0.00	0.75	0.00	0.00	-0.261719	0.138672	0.952637	-2.240000	8.470000	-1.820000	414.00	-0.31	-0.05	8.75	8.75	7.75	9.00	1.75	3.00	0.25	0.75	0.00	0.00	0.00	0.00	0.00	0.25	0.00	0.00	-0.203613	0.126953	0.966797	0.420000	-4.830000	2.870000	426.00	-0.30	-0.07
1.14	9.00	9.25	8.75	9.25	1.25	1.50	0.00	0.00	0.00	0.00	0.00	0.00	0.00	1.00	0.00	0.00	-0.272461	0.135742	0.958008	-1.330000	7.000000	-1.470000	416.00	-0.31	-0.05	8.75	8.50	7.50	9.25	1.75	3.25	0.25	0.75	0.00	0.00	0.00	0.00	0.00	0.50	0.00	0.00	-0.199707	0.125488	0.959961	0.490000	-4.690000	2.940000	428.00	-0.30	-0.07
1.15	9.50	9.25	8.75	9.25	1.25	1.50	0.00	0.00	0.00	0.00	0.00	0.00	0.00	1.00	0.00	0.00	-0.252930	0.141113	0.924316	-0.700000	6.440000	-1.260000	421.00	-0.31	-0.05	8.50	8.50	7.50	9.25	1.75	3.25	0.25	0.50	0.00	0.00	0.00	0.00	0.00	0.75	0.00	0.00	-0.204102	0.123535	0.971191	0.420000	-4.620000	2.870000	424.00	-0.29	-0.07
1.16	9.25	9.25	9.00	9.00	1.25	1.50	0.00	0.00	0.00	0.00	0.00	0.00	0.00	1.00	0.00	0.00	-0.258789	0.139648	0.935547	-0.700000	6.510000	-1.190000	419.00	-0.31	-0.05	8.75	8.25	7.50	9.00	1.75	3.25	0.25	0.75	0.00	0.00	0.00	0.00	0.00	0.75	0.00	0.00	-0.195801	0.127930	0.958496	0.700000	-5.040000	2.870000	425.00	-0.29	-0.07
1.17	9.75	9.25	8.75	9.25	1.25	1.50	0.00	0.00	0.00	0.00	0.00	0.00	0.00	1.00	0.00	0.00	-0.260254	0.139648	0.936035	-0.840000	6.580000	-1.260000	424.00	-0.31	-0.05	8.75	8.50	7.50	9.25	1.50	3.00	0.25	0.75	0.00	0.00	0.00	0.00	0.00	0.75	0.00	0.00	-0.197266	0.131836	0.959473	0.700000	-4.970000	2.730000	425.00	-0.29	-0.07
1.18	9.50	9.25	8.75	9.25	1.25	1.50	0.00	0.00	0.00	0.00	0.00	0.00	0.00	0.50	0.00	0.00	-0.252441	0.140625	0.925293	-0.980000	6.860000	-1.120000	417.00	-0.32	-0.05	8.50	8.75	7.50	9.25	1.75	3.25	0.25	0.75	0.00	0.00	0.00	0.00	0.00	0.75	0.00	0.00	-0.197754	0.125977	0.962402	0.630000	-4.970000	2.660000	430.00	-0.29	-0.07
1.19	9.75	9.25	8.75	9.25	1.25	1.50	0.00	0.00	0.00	0.00	0.00	0.00	0.00	1.00	0.00	0.00	-0.258789	0.145020	0.941406	-1.470000	7.280000	-1.260000	424.00	-0.31	-0.05	9.00	8.50	7.25	9.00	1.75	3.25	0.25	0.75	0.00	0.00	0.00	0.00	0.00	0.50	0.00	0.00	-0.196289	0.126465	0.958496	0.910000	-4.970000	2.590000	425.00	-0.30	-0.07
1.20	10.00	9.25	8.75	9.50	1.25	1.50	0.00	0.00	0.00	0.00	0.00	0.00	0.00	1.25	0.00	0.00	-0.261230	0.146484	0.938965	-1.750000	7.210000	-1.050000	431.00	-0.31	-0.04	8.75	8.50	7.50	9.00	1.75	3.00	0.25	0.50	0.00	0.00	0.00	0.00	0.00	0.25	0.00	0.00	-0.189453	0.124023	0.957031	0.630000	-4.760000	2.590000	417.00	-0.30	-0.07
1.21	9.75	9.75	8.75	9.25	1.25	1.75	0.00	0.00	0.00	0.00	0.00	0.00	0.00	1.00	0.00	0.00	-0.254395	0.145508	0.928223	-1.960000	6.930000	-0.840000	431.00	-0.31	-0.05	8.75	8.50	7.50	9.25	1.75	3.25	0.00	0.75	0.00	0.00	0.00	0.00	0.00	0.50	0.00	0.00	-0.198730	0.131348	0.953125	0.140000	-4.130000	2.310000	424.00	-0.30	-0.07
1.22	10.00	9.50	9.00	9.50	1.25	1.75	0.00	0.00	0.00	0.00	0.00	0.00	0.00	1.00	0.00	0.00	-0.252441	0.141113	0.922852	-2.520000	7.700000	-0.770000	437.00	-0.31	-0.05	8.75	8.50	7.50	9.00	1.75	3.00	0.25	0.50	0.00	0.00	0.00	0.00	0.00	0.50	0.00	0.00	-0.199707	0.133301	0.951172	-0.490000	-3.920000	2.170000	419.00	-0.30	-0.06
1.23	10.00	9.50	9.00	9.50	1.25	1.75	0.00	0.00	0.00	0.00	0.00	0.00	0.00	1.00	0.00	0.00	-0.252930	0.140625	0.925293	-3.290000	8.680000	-0.840000	437.00	-0.31	-0.05	8.50	8.25	7.50	9.00	1.75	3.25	0.25	0.25	0.00	0.00	0.00	0.00	0.00	0.25	0.00	0.00	-0.189453	0.140625	0.950684	-1.400000	-3.010000	1.820000	411.00	-0.30	-0.06
1.24	9.75	9.50	8.75	9.25	1.25	1.50	0.00	0.00	0.00	0.00	0.00	0.00	0.00	0.75	0.00	0.00	-0.257812	0.139648	0.945312	-3.570000	9.100000	-0.770000	424.00	-0.32	-0.05	8.50	8.25	7.50	9.00	1.75	3.00	0.25	0.75	0.00	0.00	0.00	0.00	0.00	0.50	0.00	0.00	-0.189453	0.140625	0.945312	-2.730000	-1.680000	1.680000	418.00	-0.29	-0.07
1.25	10.00	9.75	8.75	9.50	1.50	1.50	0.00	0.00	0.00	0.00	0.00	0.00	0.00	1.25	0.00	0.00	-0.264160	0.137207	0.936035	-2.870000	8.050000	-0.490000	439.00	-0.31	-0.05	8.25	8.50	7.25	9.00	1.50	3.00	0.00	0.50	0.00	0.00	0.00	0.00	0.00	0.50	0.00	0.00	-0.189941	0.140137	0.942383	-4.340000	-0.350000	1.540000	404.00	-0.30	-0.07
1.26	9.75	9.50	9.00	9.50	1.25	1.75	0.00	0.00	0.00	0.00	0.00	0.00	0.00	1.25	0.00	0.00	-0.254395	0.145020	0.926758	-2.730000	7.980000	-0.420000	436.00	-0.31	-0.05	8.25	8.25	7.25	8.75	1.50	3.00	0.25	0.75	0.00	0.00	0.00	0.00	0.00	0.75	0.00	0.00	-0.188477	0.137207	0.938477	-6.440000	1.400000	1.610000	409.00	-0.29	-0.07
1.27	10.00	10.00	9.00	9.50	1.25	1.75	0.00	0.25	0.00	0.00	0.00	0.00	0.00	0.50	0.00	0.00	-0.259766	0.145996	0.918457	-3.430000	8.820000	-0.490000	441.00	-0.32	-0.05	8.00	8.00	7.25	8.75	1.50	3.00	0.25	0.50	0.00	0.00	0.00	0.00	0.00	0.50	0.00	0.00	-0.193359	0.130859	0.938965	-8.330000	3.640000	1.610000	398.00	-0.30	-0.07
1.28	9.75	9.75	9.50	9.75	1.25	2.00	0.00	0.25	0.00	0.00	0.00	0.00	0.00	1.00	0.00	0.00	-0.260254	0.151367	0.930176	-4.340000	9.310000	-0.070000	451.00	-0.31	-0.05	7.75	8.00	7.00	8.75	1.50	3.00	0.25	0.50	0.00	0.00	0.00	0.00	0.00	0.25	0.00	0.00	-0.184570	0.127930	0.933594	-9.450000	5.390000	1.610000	391.00	-0.30	-0.07
1.29	10.00	9.75	9.25	9.75	1.25	2.00	0.00	0.00	0.00	0.00	0.00	0.00	0.00	1.25	0.00	0.00	-0.267578	0.149902	0.932129	-5.180000	9.730000	0.490000	450.00	-0.31	-0.05	7.50	7.75	7.00	8.50	1.50	3.00	0.25	0.75	0.00	0.00	0.00	0.00	0.00	0.50	0.00	0.00	-0.177246	0.128418	0.936035	-11.410000	7.980000	1.260000	389.00	-0.29	-0.07
1.30	10.50	10.75	9.50	9.75	1.50	2.00	0.00	0.25	0.00	0.00	0.00	0.00	0.00	1.00	0.00	0.00	-0.265625	0.143555	0.926758	-5.530000	9.660000	1.050000	471.00	-0.31	-0.05	7.25	7.50	6.50	8.50	1.50	3.00	0.25	0.75	0.00	0.00	0.00	0.00	0.00	0.25	0.00	0.00	-0.192383	0.118652	0.956055	-13.580000	10.080000	0.770000	376.00	-0.30	-0.08
1.31	11.50	10.50	9.75	10.25	1.50	2.00	0.00	0.00	0.00	0.00	0.00	0.00	0.00	1.00	0.00	0.00	-0.262207	0.145020	0.919922	-6.440000	10.430000	1.610000	484.00	-0.31	-0.05	6.50	6.75	6.25	8.25	1.50	3.00	0.25	1.00	0.00	0.00	0.00	0.00	0.00	0.25	0.00	0.00	-0.178223	0.109375	0.933594	-14.770000	11.550000	0.070000	360.00	-0.29	-0.08
1.32	12.25	11.25	10.00	10.75	1.50	2.25	0.00	0.25	0.00	0.00	0.00	0.00	0.00	0.75	0.00	0.00	-0.255371	0.142578	0.923340	-7.700000	11.620000	1.820000	511.00	-0.32	-0.05	6.00	6.50	5.50	7.75	1.50	3.00	0.25	1.00	0.00	0.00	0.00	0.00	0.25	0.75	0.00	0.00	-0.190430	0.125977	0.974609	-17.710001	13.020000	-1.120000	345.00	-0.27	-0.09
1.33	12.50	11.75	10.25	11.50	1.50	2.00	0.00	0.25	0.00	0.00	0.00	0.00	0.00	1.00	0.00	0.00	-0.266113	0.135254	0.921387	-9.170000	11.900000	1.750000	529.00	-0.31	-0.05	5.50	6.00	5.00	7.50	1.25	3.00	0.25	1.00	0.00	0.00	0.00	0.00	0.25	0.25	0.00	0.00	-0.216309	0.121094	0.995117	-18.830000	12.880000	-1.820000	320.00	-0.28	-0.09
1.34	13.25	12.50	10.75	12.00	1.75	2.75	0.00	0.25	0.00	0.00	0.00	0.00	0.00	1.00	0.00	0.00	-0.267090	0.149902	0.918457	-10.850000	12.460000	1.750000	565.00	-0.31	-0.05	4.50	5.50	3.50	6.50	1.25	2.75	0.25	1.25	0.00	0.00	0.00	0.00	0.50	0.50	0.00	0.00	-0.197754	0.108398	0.978516	-17.360001	12.040000	-2.730000	283.00	-0.26	-0.11
1.35	14.50	13.50	11.50	13.00	2.00	2.75	0.00	0.25	0.00	0.00	0.00	0.00	0.00	1.25	0.00	0.00	-0.265625	0.138672	0.940918	-12.460000	12.320000	1.750000	612.00	-0.31	-0.05	3.25	4.75	2.75	5.50	1.00	2.00	0.25	1.50	0.00	0.00	0.00	0.00	0.50	0.75	0.00	0.25	-0.161133	0.104980	0.984375	-17.080000	12.460000	-5.320000	240.00	-0.24	-0.12
1.36	15.75	14.75	12.25	14.00	2.25	3.25	0.00	0.25	0.00	0.00	0.00	0.00	0.00	1.00	0.00	0.00	-0.266602	0.125000	0.935059	-12.740000	10.990000	1.610000	661.00	-0.31	-0.05	2.50	3.50	2.00	4.75	0.75	1.50	0.25	1.50	0.00	0.00	0.00	0.00	1.00	0.50	0.00	0.00	-0.219238	0.134277	1.000000	-18.059999	16.660000	-14.350000	197.00	-0.23	-0.14
1.37	17.25	16.00	13.00	14.75	2.50	3.75	0.00	0.50	0.00	0.00	0.00	0.00	0.00	1.00	0.00	0.00	-0.261230	0.128906	0.921875	-12.950000	10.150000	1.330000	717.00	-0.31	-0.05	2.00	3.50	1.00	3.25	0.50	1.00	0.25	1.00	0.00	0.25	0.00	0.25	1.50	0.25	0.00	0.00	0.001953	0.139160	1.187012	-15.820000	21.980000	-15.540000	155.00	-0.21	-0.15
1.38	18.25	17.50	13.50	16.00	2.50	4.00	0.25	0.50	0.00	0.00	0.00	0.00	0.00	1.00	0.00	0.00	-0.261719	0.124512	0.933105	-13.370000	10.430000	1.050000	767.00	-0.31	-0.06	1.25	1.75	1.25	2.50	0.25	0.50	0.25	0.50	0.00	0.00	0.00	0.25	1.25	0.50	0.00	0.25	-0.171387	0.189453	1.146484	6.090000	63.000000	-19.670000	109.00	-0.18	-0.14
1.39	19.75	18.75	14.50	16.75	2.75	4.50	0.25	0.50	0.00	0.00	0.00	0.00	0.25	1.00	0.00	0.00	-0.263672	0.115234	0.959961	-13.160000	10.290000	0.490000	824.00	-0.31	-0.06	1.00	1.50	0.75	2.00	0.25	0.25	0.00	0.50	0.00	0.25	0.00	0.00	1.25	0.00	0.00	0.00	-0.197754	0.138672	1.348145	24.570000	119.209999	-31.990000	81.00	-0.21	-0.17
1.40	20.75	20.25	15.25	17.50	3.00	4.75	0.25	0.50	0.00	0.00	0.00	0.00	0.00	1.25	0.00	0.00	-0.269531	0.104980	0.964355	-11.760000	9.800000	-0.070000	870.00	-0.31	-0.05	1.00	2.00	0.50	2.25	0.25	0.25	0.00	0.25	0.00	0.00	0.00	0.00	1.25	0.00	0.00	0.00	-0.216797	0.342773	1.423340	28.910000	168.630005	-44.029999	79.00	-0.25	-0.18
1.41	22.75	20.25	15.50	18.00	3.00	5.25	0.25	0.50	0.00	0.00	0.00	0.00	0.00	1.00	0.00	0.00	-0.280273	0.115723	0.967773	-9.310000	8.960000	-0.490000	902.00	-0.32	-0.05	0.75	1.25	0.50	1.00	0.00	0.00	0.00	0.00	0.00	0.00	0.00	0.00	0.50	0.00	0.00	0.00	-0.233887	0.315918	1.309570	32.410000	205.940002	-55.020000	40.00	0.00	0.00
1.42	22.50	21.50	16.00	19.00	3.75	5.50	0.25	0.50	0.00	0.00	0.00	0.00	0.00	1.25	0.00	0.00	-0.273926	0.111328	0.959961	-6.510000	7.280000	-0.490000	941.00	-0.31	-0.06	0.75	1.00	0.25	1.25	0.00	0.00	0.00	0.00	0.00	0.00	0.00	0.00	0.00	0.25	0.00	0.00	-0.220215	0.400879	1.583984	27.510000	224.630005	-71.400002	36.00	0.00	0.00
1.43	23.50	22.25	16.25	19.00	4.00	5.50	0.25	0.50	0.00	0.00	0.00	0.00	0.00	1.00	0.00	0.00	-0.267578	0.109863	0.944336	-3.990000	6.090000	-0.700000	961.00	-0.31	-0.05	1.00	1.00	1.00	0.25	0.00	0.00	0.00	0.00	0.00	0.00	0.00	0.00	0.00	0.00	0.00	0.00	-0.186035	0.555664	1.339355	34.160000	227.779999	-89.459999	33.00	0.00	0.00
1.44	24.25	22.75	16.50	19.50	4.00	5.75	0.25	0.75	0.00	0.00	0.00	0.00	0.00	1.00	0.00	0.00	-0.255859	0.110352	0.929688	-2.310000	6.300000	-1.120000	989.00	-0.31	-0.06	0.75	0.25	0.00	0.50	0.00	0.00	0.00	0.00	0.00	0.00	0.00	0.00	0.00	0.25	0.00	0.00	-0.155273	0.486816	1.596680	49.980000	215.669998	-109.270004	18.00	0.00	0.00
1.45	24.00	23.00	16.75	19.75	4.25	6.00	0.25	0.75	0.00	0.00	0.00	0.00	0.00	1.00	0.00	0.00	-0.257812	0.116211	0.947266	-1.120000	7.000000	-1.540000	999.00	-0.31	-0.06	0.50	0.25	0.00	0.50	0.00	0.00	0.00	0.00	0.00	0.00	0.00	0.00	0.00	0.00	0.00	0.00	0.713379	0.532715	1.684570	51.799999	192.220001	-118.230003	13.00	0.00	0.00
1.46	23.50	23.25	16.50	19.75	4.25	6.25	0.25	0.75	0.00	0.00	0.00	0.00	0.00	1.00	0.00	0.00	-0.267090	0.108398	0.951172	0.980000	6.720000	-1.680000	996.00	-0.31	-0.06	0.75	0.50	0.00	0.50	0.00	0.00	0.00	0.00	0.00	0.00	0.00	0.00	0.00	0.00	0.00	0.00	1.402344	0.841797	1.794922	25.690001	151.130005	-106.610001	18.00	0.00	0.00
1.47	23.25	22.50	16.25	19.50	4.50	6.50	0.25	0.75	0.00	0.00	0.00	0.00	0.00	1.25	0.00	0.00	-0.255371	0.127930	0.928223	3.640000	7.490000	-1.750000	989.00	-0.31	-0.06	0.25	0.50	0.25	0.50	0.00	0.00	0.00	0.00	0.00	0.00	0.00	0.00	0.00	0.00	0.00	0.00	1.545410	0.998535	2.187988	1.610000	95.900002	-73.150002	15.00	0.00	0.00
1.48	22.75	22.50	16.00	19.25	4.25	6.50	0.25	0.75	0.00	0.00	0.00	0.00	0.25	0.75	0.00	0.00	-0.270020	0.126953	0.942383	3.430000	8.540000	-1.750000	973.00	-0.31	-0.06	0.50	0.50	0.00	0.00	0.00	0.00	0.00	0.00	0.00	0.00	0.00	0.00	0.00	0.00	0.00	0.00	1.587402	0.881836	1.757324	0.140000	33.389999	-34.230000	10.00	0.00	0.00
1.49	22.50	21.75	15.75	19.00	4.00	6.50	0.25	0.75	0.00	0.00	0.00	0.00	0.00	1.25	0.00	0.00	-0.252930	0.119629	0.915527	3.640000	9.170000	-1.820000	958.00	-0.31	-0.06	0.50	0.75	0.25	0.50	0.00	0.00	0.00	0.00	0.00	0.00	0.00	0.00	0.00	0.00	0.00	0.00	1.543457	0.617188	1.238281	17.780001	-9.030000	-6.440000	20.00	0.00	0.00
1.50	21.75	21.50	15.50	18.50	4.50	6.75	0.25	0.75	0.00	0.00	0.00	0.00	0.00	1.00	0.00	0.00	-0.253418	0.130859	0.901367	2.520000	10.920000	-2.100000	945.00	-0.31	-0.06	0.50	0.75	0.00	0.25	0.00	0.00	0.00	0.00	0.00	0.00	0.00	0.00	0.00	0.00	0.00	0.00	1.458984	0.355957	1.078613	33.180000	-28.840000	7.490000	15.00	0.00	0.00
1.51	21.25	21.00	15.25	18.25	4.50	6.75	0.25	0.75	0.00	0.00	0.00	0.00	0.00	1.00	0.00	0.00	-0.254395	0.131348	0.903320	0.350000	13.370000	-2.730000	930.00	-0.31	-0.06	0.75	0.75	0.00	0.25	0.00	0.00	0.00	0.00	0.00	0.00	0.00	0.00	0.00	0.00	0.00	0.00	1.404785	0.222656	1.157227	31.570000	-43.680000	14.140000	17.00	0.00	0.00
1.52	20.75	20.25	14.75	18.00	4.25	6.75	0.25	1.00	0.00	0.00	0.00	0.00	0.25	1.25	0.00	0.00	-0.258789	0.129883	0.903809	-2.870000	16.240000	-3.570000	915.00	-0.30	-0.06	0.25	0.50	0.00	0.50	0.00	0.00	0.00	0.00	0.00	0.00	0.00	0.00	0.00	0.00	0.00	0.00	1.352051	0.175293	1.272949	21.840000	-63.209999	17.710001	13.00	0.00	0.00
1.53	20.00	19.75	14.50	17.50	4.25	7.00	0.25	1.00	0.00	0.00	0.00	0.00	0.25	1.25	0.00	0.00	-0.256348	0.130371	0.905273	-6.930000	18.760000	-4.760000	897.00	-0.30	-0.07	0.50	0.75	0.00	0.00	0.00	0.00	0.00	0.00	0.00	0.00	0.00	0.00	0.00	0.00	0.00	0.00	1.250977	0.127441	1.273926	15.330000	-85.820000	20.090000	12.00	0.00	0.00
1.54	19.25	19.00	14.00	17.25	4.75	7.25	0.25	1.25	0.00	0.00	0.00	0.00	0.75	1.25	0.00	0.00	-0.254883	0.127441	0.882324	-12.250000	21.980000	-6.020000	891.00	-0.29	-0.07	0.50	0.50	0.00	0.25	0.00	0.00	0.00	0.00	0.00	0.00	0.00	0.00	0.00	0.00	0.00	0.00	1.127930	0.055664	1.222168	9.520000	-105.349998	21.210001	13.00	0.00	0.00
1.55	19.00	18.75	14.00	17.00	4.75	7.25	0.25	1.50	0.00	0.00	0.25	0.00	0.50	1.00	0.00	0.00	-0.274414	0.137207	0.931152	-19.040001	24.080000	-7.210000	885.00	-0.29	-0.07	0.00	0.00	0.00	0.25	0.00	0.00	0.00	0.00	0.00	0.00	0.00	0.00	0.00	0.00	0.00	0.00	0.980957	0.007812	1.191406	-0.420000	-119.349998	22.049999	3.00	0.00	0.00
1.56	18.25	17.75	13.75	16.50	4.75	7.50	0.25	1.50	0.00	0.00	0.00	0.25	0.75	1.75	0.00	0.00	-0.272949	0.133789	0.904785	-25.270000	23.590000	-7.840000	871.00	-0.28	-0.07	0.25	0.25	0.00	0.00	0.00	0.00	0.00	0.00	0.00	0.00	0.00	0.00	0.00	0.00	0.00	0.00	0.658691	0.038086	1.263184	-27.160000	-135.800003	26.880001	5.00	0.00	0.00
1.57	17.50	17.25	13.25	16.00	5.25	7.75	0.50	1.75	0.25	0.00	0.25	0.25	1.00	1.25	0.00	0.00	-0.279785	0.119141	0.931641	-32.619999	23.240000	-8.540000	867.00	-0.28	-0.07	0.25	0.25	0.00	0.50	0.00	0.00	0.00	0.00	0.00	0.00	0.00	0.00	0.00	0.00	0.00	0.00	0.478027	0.083008	1.329590	-37.310001	-142.100006	31.219999	10.00	0.00	0.00
1.58	16.50	16.25	13.25	15.75	5.50	8.00	0.50	2.00	0.25	0.25	0.25	0.50	1.25	1.25	0.00	0.00	-0.307129	0.098145	0.988770	-33.389999	18.900000	-8.750000	862.00	-0.27	-0.08	0.25	0.25	0.00	0.00	0.00	0.00	0.00	0.00	0.00	0.00	0.00	0.00	0.00	0.00	0.00	0.00	0.288574	0.136230	1.416016	-43.959999	-148.399994	36.540001	5.00	0.00	0.00
1.59	16.00	15.75	13.00	15.25	5.75	8.00	0.50	2.00	0.75	0.25	0.50	0.75	1.50	1.75	0.00	0.00	-0.304688	0.093262	0.972168	-27.020000	12.950000	-8.680000	865.00	-0.25	-0.07	0.00	0.25	0.00	0.00	0.00	0.00	0.00	0.00	0.00	0.00	0.00	0.00	0.00	0.00	0.00	0.00	0.103516	0.190918	1.478516	-47.950001	-154.979996	42.420002	2.00	0.00	0.00
1.60	15.25	14.75	12.75	14.75	6.00	8.25	0.50	2.25	0.75	0.25	0.50	1.00	2.00	1.75	0.00	0.00	-0.296875	0.086426	0.968262	-19.250000	8.050000	-8.050000	856.00	-0.25	-0.08	0.00	0.25	0.00	0.50	0.00	0.00	0.00	0.00	0.00	0.00	0.00	0.00	0.00	0.00	0.00	0.00	-0.058594	0.243652	1.534668	-49.000000	-161.839996	48.790001	8.00	0.00	0.00
1.61	14.25	14.25	12.50	14.25	6.25	8.25	0.75	2.50	0.75	0.50	0.75	1.25	2.25	2.25	0.00	0.00	-0.285645	0.104004	0.908691	-15.050000	5.390000	-7.840000	857.00	-0.23	-0.08	0.00	0.00	0.00	0.00	0.00	0.00	0.00	0.00	0.00	0.00	0.00	0.00	0.00	0.00	0.00	0.00	-0.211914	0.281250	1.551270	-45.430000	-168.139999	55.510002	0.00	0.00	0.00
1.62	14.00	12.75	12.25	13.50	6.50	8.25	0.75	2.75	1.25	0.75	1.00	1.25	2.75	2.50	0.00	0.25	-0.299316	0.088379	0.934570	-12.320000	4.760000	-7.770000	856.00	-0.21	-0.08	0.00	0.25	0.00	0.00	0.00	0.00	0.00	0.00	0.00	0.00	0.00	0.00	0.00	0.00	0.00	0.00	-0.346191	0.308105	1.553711	-37.099998	-173.110001	62.369999	2.00	0.00	0.00
1.63	13.00	12.00	11.75	13.00	6.75	8.25	1.00	3.25	1.75	0.75	1.00	2.00	3.00	3.00	0.00	0.25	-0.287598	0.083984	0.931641	-9.940000	4.830000	-7.420000	862.00	-0.20	-0.08	0.00	0.25	0.00	0.00	0.00	0.00	0.00	0.00	0.00	0.00	0.00	0.00	0.00	0.00	0.00	0.00	-0.453125	0.306152	1.524902	-25.620001	-176.190002	68.809998	2.00	0.00	0.00
1.64	11.50	11.25	11.50	12.50	7.00	8.00	1.00	4.00	2.00	1.25	1.25	2.25	3.75	3.50	0.25	0.50	-0.294434	0.089844	0.939453	-8.330000	5.320000	-7.140000	872.00	-0.17	-0.09	0.25	0.00	0.00	0.00	0.00	0.00	0.00	0.00	0.00	0.00	0.00	0.00	0.00	0.00	0.00	0.00	-0.544922	0.292480	1.454590	-13.720000	-176.399994	74.269997	3.00	0.00	0.00
1.65	10.75	10.00	11.00	11.75	7.25	8.00	1.00	4.50	2.00	1.25	1.75	2.50	4.75	3.75	0.25	0.75	-0.302734	0.075684	0.936035	-6.580000	6.160000	-6.720000	869.00	-0.15	-0.09	0.00	0.50	0.00	0.00	0.00	0.00	0.00	0.00	0.00	0.00	0.00	0.00	0.00	0.00	0.00	0.00	-0.615234	0.269043	1.375977	-1.820000	-172.970001	77.769997	5.00	0.00	0.00
1.66	9.75	9.50	10.75	10.75	7.50	8.00	1.00	5.00	2.50	1.50	2.25	3.25	5.50	4.50	0.25	0.75	-0.289062	0.093262	0.932129	-4.480000	7.000000	-6.300000	886.00	-0.13	-0.09	0.25	0.50	0.00	0.00	0.00	0.00	0.00	0.00	0.00	0.00	0.00	0.00	0.00	0.00	0.00	0.00	-0.687012	0.249512	1.322266	9.380000	-166.039993	79.660004	7.00	0.00	0.00
1.67	8.50	8.50	10.25	10.00	7.50	7.75	1.25	5.25	3.00	2.00	2.50	3.50	6.00	5.00	0.25	1.00	-0.279297	0.081055	0.936523	-3.570000	7.910000	-5.880000	882.00	-0.11	-0.09	0.00	0.50	0.00	0.00	0.00	0.00	0.00	0.00	0.00	0.00	0.00	0.00	0.00	0.00	0.00	0.00	-0.742676	0.210938	1.276855	20.299999	-156.729996	80.150002	5.00	0.00	0.00
1.68	7.75	8.00	9.75	9.25	7.50	7.50	1.50	5.50	3.75	2.25	3.00	4.25	6.50	5.50	0.25	1.25	-0.297363	0.080566	0.931152	-1.540000	10.990000	-6.160000	896.00	-0.08	-0.09	0.00	0.25	0.00	0.00	0.00	0.00	0.00	0.00	0.00	0.00	0.00	0.00	0.00	0.00	0.00	0.00	-0.811523	0.153320	1.291992	28.000000	-146.720001	78.750000	2.00	0.00	0.00
1.69	7.25	7.00	9.25	8.75	7.50	7.25	1.75	5.75	4.25	2.75	3.50	5.50	7.00	5.75	0.25	1.25	-0.305176	0.077148	0.938965	-0.420000	12.320000	-6.090000	912.00	-0.06	-0.09	0.00	0.25	0.00	0.00	0.00	0.00	0.00	0.00	0.00	0.00	0.00	0.00	0.00	0.00	0.00	0.00	-0.861328	0.083984	1.374512	29.960001	-140.070007	75.809998	2.00	0.00	0.00
1.70	6.25	6.75	8.75	8.25	7.25	7.00	1.75	6.00	4.75	3.00	4.25	6.50	7.50	7.00	0.50	1.50	-0.296875	0.082520	0.939453	1.050000	13.230000	-6.510000	933.00	-0.04	-0.10	0.50	0.00	0.00	0.00	0.00	0.00	0.00	0.00	0.00	0.00	0.00	0.00	0.00	0.00	0.00	0.00	-0.906738	0.044922	1.359375	27.370001	-138.809998	70.699997	5.00	0.00	0.00
1.71	5.75	6.00	8.25	7.50	7.25	6.75	2.00	6.25	5.25	3.75	5.75	7.25	8.00	7.50	0.75	1.75	-0.285645	0.090332	0.935059	2.520000	14.350000	-6.580000	963.00	-0.01	-0.09	0.00	0.00	0.00	0.00	0.00	0.00	0.00	0.00	0.00	0.00	0.00	0.00	0.00	0.00	0.00	0.00	-0.972168	0.059570	1.274414	26.389999	-140.000000	63.000000	0.00	0.00	0.00
1.72	5.00	5.50	7.50	7.25	7.00	6.25	2.00	6.25	6.25	4.25	6.75	7.75	8.50	8.25	1.00	2.00	-0.310547	0.086426	0.930664	3.360000	15.890000	-6.370000	980.00	0.01	-0.09	0.50	0.00	0.00	0.00	0.00	0.00	0.00	0.00	0.00	0.00	0.00	0.00	0.00	0.00	0.00	0.00	-1.067871	0.078613	1.210938	33.670002	-140.419998	53.549999	5.00	0.00	0.00
1.73	4.50	5.25	6.75	6.50	6.50	6.00	2.00	6.25	7.25	5.25	8.00	8.50	9.00	8.75	1.00	2.50	-0.300781	0.101074	0.937012	3.150000	17.290001	-6.510000	1003.00	0.03	-0.09	0.00	0.00	0.00	0.00	0.00	0.00	0.00	0.00	0.00	0.00	0.00	0.00	0.00	0.00	0.00	0.00	-1.067871	0.063477	1.210938	49.139999	-143.360001	43.330002	0.00	0.00	0.00
1.74	3.75	4.50	6.00	6.25	6.00	5.25	2.00	6.25	7.75	6.50	8.50	9.00	9.25	9.25	1.00	3.00	-0.286621	0.097168	0.913574	3.010000	19.180000	-6.510000	1003.00	0.05	-0.09	0.00	0.25	0.00	0.00	0.00	0.00	0.00	0.00	0.00	0.00	0.00	0.00	0.00	0.00	0.00	0.00	-1.060547	0.008301	1.128418	67.620003	-150.990005	32.970001	2.00	0.00	0.00
1.75	3.25	4.25	5.25	5.75	5.25	4.75	2.25	6.25	8.50	7.75	9.25	9.75	9.75	9.75	1.00	3.25	-0.284668	0.093262	0.934082	2.730000	22.190001	-7.140000	1020.00	0.07	-0.09	0.00	0.00	0.00	0.00	0.00	0.00	0.00	0.00	0.00	0.00	0.00	0.00	0.00	0.00	0.00	0.00	-1.237305	-0.247070	0.786133	111.300003	-158.479996	16.030001	0.00	0.00	0.00
1.76	3.00	3.50	4.75	5.25	4.25	3.75	2.25	6.00	9.00	8.25	10.25	10.75	10.25	10.25	1.25	4.00	-0.310059	0.061035	0.952148	3.500000	26.180000	-8.190000	1022.00	0.09	-0.09	0.25	0.00	0.00	0.00	0.00	0.00	0.00	0.00	0.00	0.00	0.00	0.00	0.00	0.00	0.00	0.00	-1.320312	-0.373047	0.571777	118.720001	-149.660004	10.010000	3.00	0.00	0.00
1.77	2.75	3.25	4.25	5.25	3.25	3.25	2.00	5.75	9.75	9.00	11.00	11.50	10.75	11.00	1.50	4.50	-0.301758	0.084473	0.963867	5.460000	35.000000	-9.170000	1037.00	0.11	-0.09	0.00	0.00	0.00	0.00	0.00	0.00	0.00	0.00	0.00	0.00	0.00	0.00	0.00	0.00	0.00	0.00	-1.416504	-0.424316	0.315430	105.070000	-132.720001	4.900000	0.00	0.00	0.00
1.78	2.50	3.00	3.25	5.00	2.50	2.50	2.00	5.50	10.25	9.75	12.00	12.25	11.25	11.50	1.50	5.00	-0.287109	0.072754	1.034180	10.010000	50.750000	-9.310000	1042.00	0.13	-0.09	0.00	0.00	0.00	0.00	0.00	0.00	0.00	0.00	0.00	0.00	0.00	0.00	0.00	0.00	0.00	0.00	-1.536133	-0.402832	-0.008301	76.090004	-107.800003	-1.890000	0.00	0.00	0.00
1.79	2.50	2.75	3.00	4.25	2.00	2.00	1.75	5.25	11.00	10.25	13.00	13.00	11.25	12.50	1.75	5.25	-0.333984	0.103027	0.954102	17.780001	69.160004	-10.080000	1056.00	0.14	-0.08	0.00	0.00	0.00	0.00	0.00	0.00	0.00	0.00	0.00	0.00	0.00	0.00	0.00	0.00	0.00	0.00	-1.720215	-0.252930	-0.442871	41.020000	-71.889999	-16.309999	0.00	0.00	0.00
1.80	2.25	2.25	2.75	4.00	1.75	1.75	1.50	5.00	11.50	11.00	13.75	13.50	11.25	13.00	2.00	5.75	-0.354492	0.096191	0.987793	25.620001	86.519997	-10.710000	1068.00	0.16	-0.08	0.00	0.00	0.00	0.00	0.00	0.00	0.00	0.00	0.00	0.00	0.00	0.00	0.00	0.00	0.00	0.00	-1.871582	-0.046875	-0.543945	25.200001	-19.879999	-39.480000	0.00	0.00	0.00
1.81	2.00	2.00	2.25	4.00	1.50	1.50	1.50	4.25	12.00	11.50	14.50	14.25	11.75	13.75	2.25	6.00	-0.375000	0.099609	0.984375	33.459999	107.449997	-10.920000	1083.00	0.17	-0.08	0.00	0.00	0.00	0.25	0.00	0.00	0.00	0.00	0.00	0.00	0.00	0.00	0.00	0.00	0.00	0.00	-1.870605	0.102539	-0.296875	54.389999	30.730000	-62.580002	3.00	0.00	0.00
1.82	2.00	2.00	1.75	3.50	1.00	1.25	1.00	3.50	12.50	12.00	15.00	14.75	11.50	14.50	2.00	6.25	-0.380859	0.113770	1.032227	42.279999	128.940002	-9.730000	1070.00	0.18	-0.07	0.00	0.00	0.00	0.00	0.00	0.00	0.00	0.00	0.00	0.00	0.00	0.00	0.00	0.00	0.00	0.00	-1.792480	0.150391	0.017090	99.260002	64.050003	-82.389999	0.00	0.00	0.00
1.83	1.75	1.75	2.00	3.50	0.75	0.75	0.75	2.75	12.75	12.50	15.50	15.25	11.25	15.50	2.50	6.75	-0.408691	0.099609	1.014160	48.020000	151.550003	-9.380000	1077.00	0.19	-0.07	0.00	0.00	0.00	0.00	0.00	0.00	0.00	0.00	0.00	0.00	0.00	0.00	0.00	0.00	0.00	0.00	-1.717285	0.205078	0.320312	128.589996	79.590004	-98.070000	0.00	0.00	0.00
1.84	1.75	2.00	1.75	3.50	0.50	0.75	0.50	2.00	13.25	12.75	16.00	15.00	11.00	16.00	2.75	7.00	-0.429688	0.125000	1.000000	53.200001	175.210007	-10.080000	1077.00	0.20	-0.06	0.00	0.00	0.00	0.00	0.00	0.00	0.00	0.00	0.00	0.00	0.00	0.00	0.00	0.00	0.00	0.00	-1.669434	0.235352	0.720215	133.000000	81.620003	-105.279999	0.00	0.00	0.00
1.85	1.75	1.75	1.50	2.75	0.50	0.50	0.50	2.00	13.50	13.25	16.00	15.50	10.75	16.50	3.00	7.25	-0.468750	0.144531	0.985352	52.360001	200.059998	-11.060000	1081.00	0.21	-0.06	0.25	0.00	0.00	0.00	0.00	0.00	0.00	0.00	0.00	0.00	0.00	0.00	0.00	0.00	0.00	0.00	-1.595703	0.227539	0.849121	98.279999	69.860001	-94.919998	3.00	0.00	0.00
1.86	1.75	1.75	1.00	3.00	0.25	0.25	0.25	1.50	13.50	13.25	16.25	15.50	10.25	17.00	3.25	7.75	-0.467285	0.128418	1.021484	45.570000	220.500000	-12.040000	1069.00	0.21	-0.05	0.00	0.00	0.00	0.00	0.00	0.00	0.00	0.00	0.00	0.00	0.00	0.00	0.00	0.00	0.00	0.00	-1.666504	0.315918	0.731934	38.990002	56.420002	-71.750000	0.00	0.00	0.00
1.87	1.50	1.50	1.00	2.50	0.00	0.00	0.00	1.50	13.75	13.50	16.50	15.50	10.00	17.00	3.50	8.00	-0.503906	0.148438	0.991699	42.560001	240.240005	-13.790000	1060.00	0.22	-0.05	0.25	0.25	0.00	0.00	0.00	0.00	0.00	0.00	0.00	0.00	0.00	0.00	0.00	0.00	0.00	0.00	-1.772461	0.489258	0.528809	-5.600000	55.650002	-44.939999	5.00	0.00	0.00
1.88	1.50	0.75	0.75	2.00	0.00	0.00	0.25	1.00	13.50	13.75	16.25	15.25	9.50	17.00	3.50	8.00	-0.568359	0.129883	1.040039	39.900002	261.869995	-16.379999	1030.00	0.23	-0.05	1.00	1.75	0.75	1.00	0.00	0.00	0.00	0.00	0.00	0.00	0.00	0.00	0.00	0.00	0.00	0.00	2.459961	2.376465	4.880371	-68.809998	188.509995	-83.160004	46.00	0.00	0.00
1.89	1.00	1.00	0.50	1.50	0.25	0.00	0.25	1.00	13.50	13.50	16.00	15.25	9.00	16.75	3.75	8.25	-0.750488	0.269531	1.101562	32.970001	312.829987	-21.700001	1014.00	0.24	-0.05	1.75	2.75	1.00	2.00	0.00	0.00	0.00	0.00	0.00	0.00	0.00	0.00	0.00	0.00	0.00	0.00	1.414551	0.287109	1.837891	-33.320000	60.619999	-40.110001	77.00	-0.35	-0.08
1.90	1.00	1.00	0.25	1.75	0.00	0.00	0.25	0.75	13.25	13.75	16.00	14.75	8.75	16.50	4.00	8.00	-0.632812	0.187012	0.975586	25.410000	336.140015	-27.090000	999.00	0.24	-0.04	2.00	3.25	1.25	2.75	0.00	0.00	0.00	0.00	0.00	0.00	0.00	0.00	0.00	0.00	0.00	0.00	-0.735840	-0.252441	-1.598145	-108.360001	67.900002	-61.180000	95.00	-0.35	-0.09
1.91	0.50	0.75	0.25	0.75	0.00	0.00	0.00	0.75	12.75	13.75	15.50	14.25	8.00	16.00	3.75	8.00	-0.790039	0.257812	1.037598	16.030001	361.549988	-30.940001	946.00	0.25	-0.04	3.00	4.75	1.75	4.50	0.00	0.00	0.00	0.00	0.00	0.00	0.00	0.00	0.00	0.00	0.00	0.00	-0.423340	1.189941	2.449707	-186.619995	156.869995	-93.169998	144.00	-0.35	-0.09
1.92	0.50	0.25	0.00	0.75	0.00	0.00	0.25	0.75	12.25	13.25	15.00	13.50	7.50	15.25	3.75	7.50	-0.791504	-0.028809	1.297363	6.790000	384.649994	-34.160000	904.00	0.25	-0.04	4.00	5.75	2.50	5.25	0.00	0.00	0.00	0.00	0.00	0.00	0.00	0.00	0.00	0.00	0.00	0.00	-0.454590	0.981934	2.263184	-149.029999	98.419998	-42.209999	180.00	-0.35	-0.08
1.93	0.25	0.00	0.00	0.75	0.00	0.00	0.25	0.50	11.25	12.50	14.25	12.50	7.00	14.50	3.25	7.25	-0.689941	0.095215	1.172363	2.380000	406.209991	-39.410000	839.00	0.26	-0.04	6.00	7.25	2.75	6.00	0.25	0.50	0.00	0.00	0.00	0.00	0.00	0.00	0.00	0.00	0.00	0.00	-0.271973	0.243164	0.673828	-153.930008	71.050003	-15.820000	234.00	-0.35	-0.08
1.94	0.00	0.25	0.00	0.50	0.00	0.00	0.25	0.50	10.25	11.50	12.75	11.25	6.50	13.00	3.00	6.50	-1.241699	0.048340	1.615723	-0.280000	423.429993	-47.599998	759.00	0.26	-0.04	7.50	8.25	3.50	7.75	0.25	1.00	0.00	0.25	0.00	0.00	0.00	0.00	0.00	0.00	0.00	0.00	-0.014648	0.419434	1.345703	-144.619995	92.260002	4.060000	295.00	-0.34	-0.08
1.95	0.00	0.00	0.00	0.00	0.00	0.00	0.25	0.50	9.25	10.00	11.00	9.75	5.75	11.75	2.25	5.75	-1.647949	0.561035	1.775391	1.960000	431.830017	-51.310001	660.00	0.26	-0.03	8.75	9.75	4.50	8.50	0.25	1.50	0.00	0.00	0.00	0.00	0.00	0.00	0.00	0.00	0.00	0.00	-0.273438	-0.359863	1.195312	-99.190002	93.379997	23.170000	343.00	-0.34	-0.08
1.96	0.00	0.00	0.00	0.00	0.00	0.00	0.25	0.25	8.25	8.75	9.25	8.25	4.75	10.50	1.75	4.75	-1.950195	0.437012	2.024414	9.870000	433.089996	-46.759998	566.00	0.27	-0.03	9.75	10.50	6.00	9.25	0.50	2.00	0.00	0.25	0.00	0.00	0.00	0.00	0.00	0.00	0.00	0.00	-0.166504	-0.141602	1.097168	-34.160000	71.959999	-11.130000	397.00	-0.33	-0.07
1.97	0.00	0.00	0.00	0.00	0.00	0.00	0.25	0.00	7.50	7.50	7.25	6.50	3.25	9.25	1.25	3.25	-2.272461	0.875488	1.756836	31.219999	435.260010	-23.100000	462.00	0.27	-0.00	10.25	11.50	6.75	10.00	0.75	3.00	0.00	0.00	0.00	0.00	0.00	0.00	0.00	0.25	0.00	0.00	-0.191895	0.225098	1.179688	-8.260000	70.699997	-17.010000	440.00	-0.33	-0.07
1.98	0.00	0.00	0.00	0.00	0.00	0.00	0.00	0.00	5.50	6.00	5.25	5.25	2.00	8.00	0.75	2.25	-1.791504	0.700684	2.446777	64.540001	420.700012	-19.530001	350.00	0.27	0.00	12.25	12.50	7.75	10.50	0.75	4.25	0.00	0.25	0.00	0.00	0.00	0.00	0.00	0.00	0.00	0.00	-0.248047	0.304688	1.330566	-3.290000	65.800003	-13.370000	502.00	-0.33	-0.07
1.99	0.00	0.00	0.00	0.00	0.00	0.00	0.00	0.00	4.75	4.25	4.00	3.25	1.25	6.25	0.50	1.50	-1.225098	0.324219	2.084473	113.750000	419.369995	-25.549999	260.00	0.28	0.02	12.75	13.00	8.00	11.00	0.75	5.25	0.00	0.75	0.00	0.00	0.00	0.00	0.25	0.00	0.00	0.00	-0.224609	0.320801	1.166016	-9.240000	52.080002	-7.070000	541.00	-0.32	-0.08
2.00	0.00	0.00	0.00	0.00	0.00	0.00	0.00	0.00	2.50	3.25	2.75	2.75	0.75	4.25	0.25	0.75	-0.770996	0.300781	2.309082	130.970001	417.549988	-47.459999	174.00	0.27	0.01	13.00	13.50	8.25	11.50	1.25	5.75	0.00	1.00	0.00	0.00	0.00	0.00	0.25	0.25	0.00	0.00	-0.186035	0.267090	1.075195	-19.180000	45.009998	-2.380000	573.00	-0.31	-0.09
2.01	0.00	0.00	0.00	0.00	0.00	0.00	0.00	0.00	1.25	2.00	2.00	2.00	0.75	1.50	0.00	0.25	-0.369141	0.394043	2.396973	131.669998	392.279999	-74.620003	100.00	0.25	-0.04	13.25	13.75	8.50	12.00	1.25	6.75	0.00	0.75	0.00	0.00	0.00	0.00	0.00	0.00	0.00	0.00	-0.195801	0.211426	1.064453	-24.430000	38.570000	-0.350000	589.00	-0.31	-0.09
2.02	0.00	0.00	0.00	0.00	0.00	0.00	0.00	0.00	1.00	1.50	1.75	1.75	0.25	0.50	0.00	0.00	0.395996	0.426270	2.252441	123.830002	347.269989	-98.419998	72.00	0.24	-0.05	13.75	14.25	8.75	12.25	1.25	7.50	0.00	1.25	0.00	0.00	0.00	0.00	0.25	0.00	0.00	0.00	-0.189941	0.221191	1.033691	-27.790001	32.619999	0.350000	622.00	-0.31	-0.09
2.03	0.00	0.00	0.00	0.00	0.00	0.00	0.00	0.00	0.75	1.25	1.50	1.25	0.00	0.00	0.00	0.00	0.587402	0.468750	2.769531	109.340004	283.149994	-121.239998	52.00	0.23	-0.04	14.25	14.25	9.25	12.50	1.50	8.00	0.00	1.25	0.00	0.00	0.00	0.25	0.50	0.00	0.00	0.00	-0.178711	0.207031	1.009277	-31.780001	28.280001	0.700000	649.00	-0.30	-0.09
2.04	0.00	0.00	0.00	0.00	0.00	0.00	0.00	0.00	0.75	1.50	1.50	1.00	0.00	0.00	0.00	0.00	0.936523	0.264160	3.030762	104.230003	-95.900002	-97.019997	52.00	0.23	-0.02	13.75	15.00	9.25	12.75	1.50	8.00	0.00	1.50	0.00	0.00	0.00	0.25	0.25	0.00	0.00	0.00	-0.177246	0.176270	1.014648	-34.090000	24.990000	0.350000	655.00	-0.30	-0.10
2.05	0.00	0.00	0.00	0.00	0.00	0.00	0.00	0.00	0.00	1.25	1.00	0.75	0.00	0.00	0.00	0.00	0.936523	0.264160	3.030762	104.230003	-95.900002	-97.019997	31.00	0.00	0.00	14.75	15.00	9.50	13.00	1.75	8.50	0.00	1.75	0.00	0.00	0.00	0.00	0.25	0.00	0.00	0.00	-0.172852	0.171387	0.990723	-33.950001	21.350000	-0.350000	680.00	-0.30	-0.09
2.06	0.00	0.00	0.00	0.00	0.00	0.00	0.00	0.00	0.00	1.00	1.00	0.50	0.00	0.00	0.00	0.00	0.507812	0.262695	2.062012	67.550003	-187.949997	-90.230003	26.00	0.00	0.00	15.50	15.25	9.75	13.00	2.00	8.75	0.25	1.75	0.00	0.00	0.00	0.00	0.50	0.00	0.00	0.00	-0.166992	0.150391	0.997559	-32.549999	18.830000	-0.700000	704.00	-0.30	-0.09
2.07	0.00	0.00	0.00	0.00	0.00	0.00	0.00	0.00	0.25	1.00	1.00	0.50	0.00	0.00	0.00	0.00	0.418457	0.265625	1.472656	46.830002	-211.399994	-80.919998	29.00	0.00	0.00	15.25	15.00	10.00	13.25	2.00	8.75	0.25	2.25	0.00	0.00	0.00	0.00	0.25	0.25	0.00	0.00	-0.175781	0.136719	1.009766	-29.330000	16.240000	-0.980000	712.00	-0.29	-0.09
2.08	0.00	0.00	0.00	0.00	0.00	0.00	0.00	0.00	0.00	1.00	1.00	0.75	0.00	0.00	0.00	0.00	0.426270	0.270020	1.250000	38.570000	-215.949997	-69.160004	29.00	0.00	0.00	15.75	15.50	10.25	13.25	2.00	9.25	0.25	2.00	0.00	0.00	0.00	0.00	0.50	0.25	0.00	0.00	-0.170410	0.138672	0.988770	-24.780001	13.510000	-0.980000	729.00	-0.29	-0.09
2.09	0.00	0.00	0.00	0.00	0.00	0.00	0.00	0.00	0.00	0.50	0.75	0.25	0.00	0.00	0.00	0.00	0.346191	0.264648	1.275391	26.250000	-227.360001	-57.049999	16.00	0.00	0.00	15.50	15.25	10.25	13.25	2.25	9.50	0.25	2.50	0.00	0.00	0.00	0.00	0.75	0.00	0.00	0.00	-0.144043	0.139160	0.943848	-21.070000	12.530000	-0.980000	737.00	-0.29	-0.10
2.10	0.00	0.00	0.00	0.00	0.00	0.00	0.00	0.00	0.00	0.50	0.50	0.25	0.00	0.00	0.00	0.00	0.181641	0.286133	1.290039	4.410000	-268.309998	-31.920000	13.00	0.00	0.00	15.25	15.50	10.25	13.25	2.25	9.50	0.25	2.50	0.00	0.00	0.00	0.00	0.75	0.00	0.00	0.00	-0.159180	0.139648	0.971191	-20.090000	13.790000	-1.400000	737.00	-0.29	-0.10
2.11	0.00	0.00	0.00	0.00	0.00	0.00	0.00	0.00	0.00	0.50	0.75	0.00	0.00	0.00	0.00	0.00	0.068359	0.256348	1.238770	3.920000	-291.619995	-19.879999	13.00	0.00	0.00	14.75	15.00	10.00	13.00	2.25	9.75	0.25	3.00	0.00	0.00	0.00	0.25	0.50	0.00	0.00	0.00	-0.184082	0.136230	1.006348	-17.430000	12.600000	-1.400000	732.00	-0.28	-0.10
2.12	0.00	0.00	0.00	0.00	0.00	0.00	0.00	0.00	0.00	0.25	0.25	0.00	0.00	0.00	0.00	0.00	-0.061035	0.244629	1.131836	9.380000	-310.239990	-8.260000	5.00	0.00	0.00	14.25	14.75	10.00	13.25	2.50	9.75	0.25	3.25	0.00	0.00	0.00	0.25	1.25	0.25	0.00	0.00	-0.184082	0.156250	0.984863	-13.930000	9.730000	-1.260000	743.00	-0.27	-0.11
2.13	0.00	0.00	0.00	0.00	0.00	0.00	0.00	0.00	0.00	0.25	0.25	0.25	0.00	0.00	0.00	0.00	-0.184570	0.229004	1.042969	14.700000	-320.950012	2.310000	8.00	0.00	0.00	14.00	14.25	9.75	13.00	2.50	10.00	0.25	3.50	0.00	0.00	0.00	0.00	1.50	0.00	0.00	0.25	-0.167480	0.159668	0.956543	-13.720000	8.540000	-1.120000	735.00	-0.27	-0.11
2.14	0.00	0.00	0.00	0.00	0.00	0.00	0.00	0.00	0.00	0.00	0.50	0.00	0.00	0.00	0.00	0.00	-0.278809	0.231445	1.024414	17.639999	-326.760010	11.830000	5.00	0.00	0.00	13.25	14.00	9.50	12.75	2.50	10.00	0.25	4.00	0.00	0.25	0.00	0.25	1.75	0.25	0.00	0.00	-0.183594	0.154785	0.960938	-15.610000	8.400000	-1.890000	735.00	-0.26	-0.12
2.15	0.00	0.00	0.00	0.00	0.00	0.00	0.00	0.00	0.00	0.25	0.50	0.00	0.00	0.00	0.00	0.00	-0.378906	0.247070	0.939453	18.549999	-328.440002	21.350000	8.00	0.00	0.00	13.00	13.00	9.25	12.50	2.50	10.00	0.50	4.00	0.00	0.25	0.00	0.25	1.50	0.00	0.00	0.25	-0.183594	0.154785	0.960938	-17.290001	8.120000	-2.800000	719.00	-0.26	-0.12
2.16	0.00	0.00	0.00	0.00	0.00	0.00	0.00	0.00	0.00	0.25	0.25	0.00	0.00	0.00	0.00	0.00	-0.441406	0.287109	0.855957	18.690001	-322.209991	31.500000	5.00	0.00	0.00	12.00	12.75	9.25	12.25	2.75	9.75	0.25	4.50	0.00	0.00	0.00	0.25	2.00	0.25	0.00	0.00	-0.186035	0.142090	0.971680	-20.370001	7.350000	-3.780000	710.00	-0.26	-0.12
2.17	0.00	0.00	0.00	0.00	0.00	0.00	0.00	0.00	0.00	0.00	0.50	0.00	0.00	0.00	0.00	0.00	-0.501465	0.317383	0.962891	21.559999	-311.290009	42.420002	5.00	0.00	0.00	11.75	12.50	9.25	12.00	2.75	9.75	0.50	4.75	0.00	0.00	0.00	0.50	2.25	0.25	0.00	0.25	-0.202637	0.125000	0.990234	-18.900000	5.810000	-3.850000	716.00	-0.25	-0.13
2.18	0.00	0.00	0.00	0.00	0.00	0.00	0.00	0.00	0.00	0.00	0.25	0.00	0.00	0.25	0.00	0.00	-0.551270	0.299316	1.151855	28.980000	-305.690002	53.130001	5.00	0.00	0.00	11.25	11.75	8.75	11.75	2.75	10.00	0.25	5.25	0.00	0.25	0.00	0.50	2.75	0.00	0.00	0.00	-0.189941	0.138672	0.964355	-16.170000	4.480000	-3.430000	706.00	-0.24	-0.14
2.19	0.00	0.00	0.00	0.00	0.00	0.00	0.00	0.00	0.00	0.25	0.25	0.00	0.00	0.00	0.00	0.00	-0.617676	0.211914	1.285645	39.480000	-306.880005	63.000000	5.00	0.00	0.00	10.25	11.25	8.75	11.75	3.00	9.75	0.25	5.50	0.00	0.25	0.25	1.25	3.00	0.00	0.00	0.25	-0.182129	0.134277	0.968262	-15.540000	4.200000	-3.150000	708.00	-0.23	-0.14
2.20	0.00	0.00	0.00	0.00	0.00	0.00	0.00	0.00	0.00	0.00	0.00	0.00	0.00	0.00	0.00	0.00	-0.659668	0.126465	1.378906	44.730000	-311.290009	71.820000	0.00	0.00	0.00	10.00	10.75	8.50	11.25	3.00	9.75	0.50	5.75	0.00	0.25	0.00	1.00	3.25	0.50	0.00	0.25	-0.186523	0.141113	0.954590	-16.240000	4.480000	-3.220000	702.00	-0.22	-0.14
2.21	0.00	0.00	0.00	0.00	0.00	0.00	0.00	0.00	0.00	0.00	0.00	0.00	0.00	0.25	0.00	0.00	-0.700195	0.036621	1.403809	41.439999	-316.119995	80.360001	2.00	0.00	0.00	9.50	10.00	8.25	11.00	3.25	9.75	0.50	6.25	0.00	0.25	0.25	1.25	4.25	0.50	0.00	0.50	-0.180664	0.132812	0.959473	-18.340000	5.110000	-3.710000	710.00	-0.20	-0.15
2.22	0.00	0.00	0.00	0.00	0.00	0.00	0.00	0.00	0.00	0.00	0.00	0.00	0.00	0.25	0.00	0.00	-0.735840	-0.019531	1.434082	33.180000	-318.500000	88.269997	2.00	0.00	0.00	8.75	9.50	7.75	10.75	3.75	9.75	0.50	6.50	0.00	0.50	0.25	1.00	5.00	0.75	0.00	0.50	-0.183594	0.135254	0.963867	-21.070000	5.600000	-4.410000	707.00	-0.19	-0.16
2.23	0.00	0.00	0.00	0.00	0.00	0.00	0.00	0.00	0.00	0.00	0.00	0.00	0.00	0.25	0.00	0.00	-0.747559	-0.071777	1.538086	21.770000	-320.110016	94.220001	2.00	0.00	0.00	8.00	9.00	7.50	10.50	3.75	9.50	0.50	6.75	0.25	0.75	0.25	1.75	5.25	0.75	0.00	0.75	-0.197754	0.123535	0.982422	-22.469999	5.320000	-4.830000	707.00	-0.18	-0.16
2.24	0.00	0.00	0.00	0.00	0.00	0.00	0.00	0.00	0.00	0.00	0.00	0.00	0.00	0.25	0.00	0.00	-0.750000	-0.102051	1.644043	8.680000	-324.029999	96.809998	2.00	0.00	0.00	7.75	8.50	7.50	10.00	4.00	9.50	0.50	7.00	0.25	0.50	0.75	2.00	5.50	1.25	0.00	1.00	-0.198730	0.120117	0.985352	-21.770000	3.150000	-5.180000	714.00	-0.17	-0.16
2.25	0.00	0.00	0.00	0.00	0.00	0.00	0.00	0.00	0.00	0.00	0.00	0.00	0.00	0.00	0.00	0.00	-0.792969	-0.092285	1.630859	-1.890000	-328.160004	95.480003	0.00	0.00	0.00	6.75	8.00	7.00	9.50	4.25	9.25	0.50	7.25	0.50	0.50	0.75	2.00	6.25	1.00	0.00	1.00	-0.182617	0.124023	0.974609	-20.790001	1.820000	-5.530000	700.00	-0.15	-0.17
2.26	0.00	0.00	0.00	0.00	0.00	0.00	0.00	0.00	0.00	0.00	0.00	0.00	0.00	0.00	0.00	0.00	-0.862793	-0.043945	1.533691	-7.000000	-326.269989	90.370003	0.00	0.00	0.00	6.50	7.25	6.75	9.25	4.75	9.00	0.75	7.50	1.00	1.00	0.75	2.50	7.25	1.50	0.00	1.50	-0.199707	0.119629	0.965820	-20.370001	0.980000	-6.020000	728.00	-0.13	-0.16
2.27	0.00	0.00	0.00	0.00	0.00	0.00	0.00	0.00	0.00	0.00	0.00	0.00	0.00	0.25	0.00	0.00	-0.979004	-0.001465	1.395020	-8.890000	-312.829987	82.669998	2.00	0.00	0.00	6.00	6.75	6.50	9.00	5.00	9.00	0.75	7.50	1.25	1.25	1.00	2.75	7.50	1.75	0.25	1.50	-0.188477	0.116211	0.967285	-20.090000	0.770000	-6.510000	733.00	-0.11	-0.16
2.28	0.00	0.00	0.00	0.00	0.00	0.00	0.00	0.00	0.00	0.00	0.25	0.00	0.00	0.25	0.00	0.00	-1.099121	0.089844	1.476074	-11.690000	-288.119995	73.989998	5.00	0.00	0.00	5.50	6.50	6.25	8.50	5.25	8.75	0.75	7.50	1.50	1.50	1.25	3.50	8.00	2.25	0.00	1.75	-0.196289	0.121094	0.966797	-19.110001	0.840000	-7.140000	741.00	-0.10	-0.16
2.29	0.00	0.00	0.00	0.00	0.00	0.00	0.00	0.00	0.00	0.00	0.00	0.00	0.00	0.25	0.00	0.00	-1.208496	0.272949	1.924316	-19.320000	-269.220001	68.599998	2.00	0.00	0.00	5.00	6.00	5.75	8.00	5.50	8.50	1.00	7.75	1.75	1.75	1.75	4.00	8.50	2.75	0.25	2.00	-0.203613	0.099121	0.973633	-16.240000	0.910000	-7.910000	757.00	-0.08	-0.16
2.30	0.00	0.00	0.00	0.00	0.00	0.00	0.00	0.00	0.00	0.00	0.00	0.00	0.00	0.25	0.00	0.00	-1.387695	0.318848	1.930176	-36.470001	-262.570007	67.129997	2.00	0.00	0.00	4.25	5.25	5.00	7.50	5.25	8.25	1.00	7.75	2.25	2.25	2.25	5.00	8.75	3.50	0.25	2.50	-0.206543	0.106934	0.972656	-13.090000	2.170000	-8.120000	762.00	-0.05	-0.16
2.31	0.00	0.00	0.00	0.00	0.00	0.00	0.00	0.00	0.00	0.00	0.25	0.00	0.00	0.50	0.00	0.00	-1.859375	0.818848	2.363281	-34.299999	-266.070007	72.519997	7.00	0.00	0.00	3.50	5.00	5.00	6.75	5.50	8.00	1.00	7.75	2.50	2.75	3.00	5.50	9.25	3.75	0.25	3.00	-0.200684	0.108887	0.970703	-10.920000	3.710000	-8.400000	775.00	-0.03	-0.16
2.32	0.00	0.00	0.00	0.00	0.00	0.00	0.00	0.00	0.00	0.00	0.00	0.00	0.00	0.50	0.00	0.00	-2.092773	0.886719	2.220215	-4.130000	-289.730011	90.300003	4.00	0.00	0.00	3.00	4.50	4.25	6.25	5.25	7.50	1.00	8.00	3.00	3.00	3.50	7.25	9.75	5.75	0.75	3.50	-0.189941	0.091309	0.980469	-6.650000	9.310000	-9.660000	809.00	0.01	-0.16
2.33	0.00	0.00	0.00	0.00	0.00	0.00	0.00	0.00	0.00	0.00	0.00	0.00	0.00	0.25	0.00	0.00	-2.365234	0.754883	1.826660	9.660000	-306.880005	120.260002	2.00	0.00	0.00	2.50	3.50	3.50	5.50	5.00	7.00	1.00	7.75	3.50	3.75	4.25	8.00	10.25	6.25	0.75	4.25	-0.189941	0.091309	0.980469	-6.650000	9.310000	-9.660000	809.00	0.03	-0.16
2.34	0.00	0.00	0.00	0.00	0.00	0.00	0.00	0.00	0.00	0.00	0.00	0.00	0.00	0.25	0.00	0.00	-2.620605	0.559082	1.439941	0.560000	-306.670013	156.940002	2.00	0.00	0.00	2.00	2.75	2.50	5.25	4.25	6.25	1.00	7.75	5.00	5.00	7.00	8.75	10.75	7.00	1.25	5.50	-0.193848	0.122559	0.980469	-4.550000	13.650000	-10.990000	858.00	0.07	-0.15
2.35	0.00	0.00	0.00	0.00	0.00	0.00	0.00	0.00	0.00	0.00	0.00	0.00	0.00	0.00	0.00	0.00	-2.921875	0.430176	1.058594	-16.730000	-291.970001	187.250000	0.00	0.00	0.00	1.75	2.00	2.50	4.50	3.50	5.75	1.00	7.75	5.75	6.00	8.00	9.25	11.25	8.00	1.25	6.25	-0.206543	0.090332	0.988770	3.710000	26.530001	-14.350000	880.00	0.10	-0.14
2.36	0.00	0.00	0.00	0.00	0.00	0.00	0.00	0.00	0.00	0.00	0.00	0.00	0.00	0.25	0.00	0.00	-3.210449	0.344238	0.628418	-29.820000	-268.100006	196.630005	2.00	0.00	0.00	1.50	2.00	1.75	3.75	2.75	5.00	1.00	7.50	7.00	7.50	8.75	10.00	11.75	8.75	1.75	6.75	-0.220215	0.108887	1.031250	9.940000	36.049999	-16.100000	907.00	0.12	-0.13
2.37	0.00	0.00	0.00	0.00	0.00	0.00	0.00	0.00	0.00	0.00	0.00	0.00	0.00	0.00	0.00	0.00	-3.478516	0.299316	0.148438	-23.799999	-239.750000	178.710007	0.00	0.00	0.00	1.25	1.25	1.25	3.00	2.25	4.00	0.50	7.00	7.50	8.25	9.75	10.50	12.25	9.75	2.00	7.50	-0.244629	0.083984	1.027344	17.570000	53.060001	-15.890000	902.00	0.15	-0.13
2.38	0.00	0.00	0.00	0.00	0.00	0.00	0.00	0.00	0.00	0.00	0.00	0.00	0.00	0.25	0.00	0.00	-3.751953	0.194824	-0.287598	12.670000	-205.589996	135.940002	2.00	0.00	0.00	1.25	1.00	0.75	2.25	1.50	3.50	0.50	6.50	8.25	9.00	10.50	11.25	12.50	11.00	2.50	8.00	-0.249023	0.093750	1.038574	27.090000	74.760002	-14.210000	919.00	0.17	-0.12
2.39	0.00	0.00	0.00	0.00	0.00	0.00	0.00	0.00	0.00	0.00	0.00	0.00	0.00	0.00	0.00	0.00	-4.075684	-0.060059	-0.662109	73.430000	-165.550003	78.120003	0.00	0.00	0.00	0.75	0.75	0.75	2.50	1.25	2.00	0.25	6.00	8.75	9.50	11.00	11.50	12.75	12.75	3.00	8.75	-0.280273	0.128418	1.079590	38.150002	100.730003	-12.460000	929.00	0.19	-0.11
2.40	0.00	0.00	0.00	0.00	0.00	0.00	0.00	0.00	0.00	0.00	0.25	0.00	0.00	0.00	0.00	0.00	-4.364258	-0.469727	-0.961426	123.270004	-115.290001	20.020000	3.00	0.00	0.00	0.75	0.50	1.00	2.00	1.00	2.00	0.25	5.50	9.25	9.75	11.50	11.75	12.75	13.75	3.50	9.50	-0.297852	0.093750	1.116211	49.209999	132.440002	-11.970000	949.00	0.20	-0.11
2.41	0.00	0.00	0.00	0.00	0.00	0.00	0.00	0.00	0.00	0.00	0.00	0.00	0.00	0.00	0.00	0.00	-4.390625	-0.745605	-1.051270	116.550003	-54.810001	-23.309999	0.00	0.00	0.00	0.75	0.50	0.25	2.00	0.75	1.25	0.00	5.00	10.00	10.50	12.25	12.25	12.50	15.25	5.00	10.00	-0.310059	0.107910	1.164551	52.920002	163.380005	-11.410000	978.00	0.22	-0.10
2.42	0.00	0.00	0.00	0.00	0.00	0.00	0.00	0.00	0.00	0.00	0.00	0.00	0.00	0.00	0.00	0.00	-4.156250	-0.682617	-0.922363	55.299999	10.220000	-45.639999	0.00	0.00	0.00	0.75	0.50	0.50	1.75	0.50	1.00	0.00	4.00	10.25	10.75	12.25	12.25	12.25	16.75	5.75	10.75	-0.356934	0.194824	1.133301	53.970001	194.110001	-12.110000	986.00	0.23	-0.09
2.43	0.25	0.75	0.50	0.75	0.00	0.00	0.00	0.00	0.00	0.00	0.00	0.00	0.00	0.00	0.00	0.00	-5.505859	0.510254	0.242188	6.090000	145.250000	-50.959999	23.00	0.00	0.00	0.50	0.50	0.50	1.50	0.25	0.75	0.00	3.25	10.50	11.00	12.25	12.25	12.00	18.00	6.25	11.50	-0.392090	0.163574	1.180664	48.720001	224.559998	-14.280000	987.00	0.24	-0.08
2.44	1.75	2.75	1.25	2.00	0.00	0.00	0.00	0.00	0.00	0.00	0.00	0.00	0.00	0.00	0.00	0.00	1.112793	0.725098	1.367676	-17.639999	275.869995	-69.160004	79.00	-0.35	-0.07	0.50	0.50	0.25	1.50	0.00	0.50	0.00	2.75	11.00	11.25	12.50	12.25	11.50	18.75	6.75	11.75	-0.377441	0.219727	1.229980	40.950001	251.440002	-18.900000	992.00	0.25	-0.07
2.45	3.75	5.25	2.50	3.75	0.00	0.00	0.00	0.00	0.00	0.00	0.00	0.00	0.00	0.25	0.00	0.00	0.674316	0.343262	1.844238	-36.889999	218.330002	-74.480003	158.00	-0.34	-0.06	0.50	0.25	0.00	1.00	0.00	0.00	0.00	2.25	11.00	11.25	12.50	12.00	11.00	19.00	7.25	12.00	-0.429688	0.236328	1.155273	32.270000	281.260010	-26.670000	970.00	0.26	-0.07
2.46	7.50	8.75	3.75	5.00	0.00	0.00	0.00	0.00	0.00	0.00	0.00	0.00	0.00	0.50	0.00	0.00	-0.672852	0.624512	0.536621	-37.099998	198.449997	-71.470001	259.00	-0.35	-0.05	0.50	0.00	0.00	1.00	0.00	0.00	0.00	1.50	10.75	11.50	12.75	11.75	10.50	19.50	7.25	12.00	-0.456055	0.228516	1.217285	19.389999	310.029999	-38.009998	956.00	0.27	-0.06
2.47	12.00	12.25	6.75	7.75	0.00	0.00	0.00	0.00	0.00	0.00	0.00	0.00	0.00	0.75	0.00	0.00	-0.678711	1.035156	2.144531	-51.380001	241.850006	-49.490002	404.00	-0.34	-0.04	0.50	0.00	0.00	0.25	0.00	0.00	0.00	1.50	10.75	11.50	12.50	11.50	9.75	19.50	7.75	11.75	-0.503418	0.297852	1.213867	4.970000	341.600006	-50.680000	939.00	0.27	-0.05
2.48	16.25	16.75	8.25	9.25	0.00	0.00	0.00	0.00	0.00	0.00	0.00	0.00	0.25	1.25	0.00	0.00	-0.892090	0.456543	2.263184	-30.590000	218.960007	-6.650000	529.00	-0.34	-0.04	0.00	0.00	0.00	0.00	0.00	0.00	0.00	1.25	10.25	11.50	12.00	11.00	9.00	19.25	7.50	11.25	-0.647461	0.382324	1.384277	-12.250000	373.380005	-66.360001	897.00	0.28	-0.05
2.49	19.50	19.75	9.50	10.75	0.25	0.00	0.00	0.00	0.00	0.00	0.00	0.00	0.25	1.25	0.00	0.00	-0.621582	-0.070801	1.661621	-40.740002	208.460007	1.470000	623.00	-0.34	-0.04	0.00	0.00	0.00	0.50	0.00	0.00	0.00	1.00	9.75	11.25	11.50	10.25	8.25	18.25	7.25	10.00	-0.625977	0.344727	1.470215	-31.850000	410.269989	-82.110001	852.00	0.28	-0.05
2.50	20.75	20.50	10.50	11.75	0.50	0.25	0.00	0.00	0.00	0.00	0.25	0.00	0.25	1.25	0.00	0.00	-0.581055	0.054199	1.982422	-33.110001	192.289993	-0.140000	673.00	-0.34	-0.04	0.00	0.00	0.00	0.00	0.00	0.00	0.00	0.25	9.00	11.00	10.75	9.50	7.75	16.75	6.75	9.00	-0.695801	0.445801	1.432617	-49.209999	452.200012	-99.260002	779.00	0.28	-0.04
2.51	21.25	21.25	11.50	13.00	0.75	0.25	0.00	0.00	0.00	0.00	0.00	0.00	0.25	1.25	0.00	0.00	-0.516113	-0.200684	1.526367	-8.960000	165.339996	0.140000	710.00	-0.34	-0.04	0.00	0.00	0.00	0.00	0.00	0.00	0.00	0.25	8.25	10.25	10.00	8.50	6.75	14.50	5.75	7.75	-1.030273	0.476074	1.633301	-69.720001	497.000000	-119.629997	698.00	0.28	-0.04
2.52	20.75	21.25	11.75	14.00	1.00	0.75	0.00	0.00	0.00	0.00	0.00	0.00	0.25	1.50	0.00	0.00	-0.277832	0.016602	1.180664	33.320000	126.279999	-16.240000	729.00	-0.33	-0.04	0.00	0.00	0.00	0.00	0.00	0.00	0.00	0.00	7.50	9.00	8.75	7.50	5.50	12.00	4.75	6.00	-1.518066	0.708008	2.268555	-80.849998	526.539978	-131.949997	595.00	0.28	-0.03
2.53	21.00	22.25	12.50	15.50	1.25	1.00	0.00	0.00	0.00	0.00	0.00	0.00	0.50	1.25	0.00	0.00	-0.309570	0.363770	1.181641	36.959999	115.570000	-17.710001	771.00	-0.33	-0.05	0.00	0.00	0.00	0.00	0.00	0.00	0.00	0.00	6.00	8.00	7.00	5.75	3.25	9.50	3.00	4.25	-1.980469	0.538086	2.582520	-48.020000	532.909973	-128.029999	460.00	0.28	-0.02
2.54	21.50	22.75	13.50	16.50	1.50	2.00	0.00	0.00	0.00	0.00	0.00	0.00	0.50	1.25	0.00	0.00	-0.351074	0.403809	1.158691	24.850000	107.239998	-11.830000	817.00	-0.33	-0.05	0.00	0.00	0.00	0.00	0.00	0.00	0.00	0.00	5.00	6.25	4.50	3.50	1.50	7.50	1.75	2.50	-2.330078	0.903809	3.166504	-14.070000	526.679993	-114.730003	323.00	0.28	0.02
2.55	22.00	23.25	14.00	17.75	2.00	2.75	0.00	0.25	0.00	0.00	0.00	0.00	0.25	1.25	0.00	0.00	-0.381836	0.320801	1.358887	-2.870000	94.290001	-7.490000	861.00	-0.33	-0.06	0.00	0.00	0.00	0.00	0.00	0.00	0.00	0.00	3.50	4.25	1.75	2.25	0.50	5.50	0.75	1.25	-0.409668	0.783691	2.958984	43.330002	473.410004	-135.029999	198.00	0.29	0.05
2.56	22.00	23.75	14.50	18.25	2.25	3.50	0.00	0.25	0.00	0.00	0.25	0.25	0.25	1.50	0.00	0.00	-0.356934	0.200195	1.125000	-19.879999	72.519997	-3.780000	895.00	-0.32	-0.06	0.00	0.25	0.00	0.00	0.00	0.00	0.00	0.00	1.50	2.75	1.50	1.25	0.25	2.50	0.00	0.25	0.476562	0.917969	2.674316	46.270000	435.820007	-169.330002	104.00	0.26	0.03
2.57	22.50	24.00	14.50	18.25	2.50	4.00	0.25	0.50	0.00	0.00	0.00	0.25	0.25	1.50	0.00	0.00	-0.281738	0.157715	1.071777	-26.180000	59.779999	-2.310000	916.00	-0.32	-0.06	0.00	0.00	0.00	0.00	0.00	0.00	0.00	0.00	0.50	1.50	0.75	0.75	0.00	0.75	0.00	0.25	1.162109	0.977051	2.395020	47.810001	420.000000	-200.199997	46.00	0.00	0.00
2.58	22.00	24.25	15.00	18.75	2.75	4.25	0.25	0.50	0.00	0.00	0.00	0.00	0.50	1.50	0.00	0.00	-0.281250	0.164551	1.041016	-28.630001	51.730000	-2.730000	929.00	-0.32	-0.06	0.00	0.00	0.00	0.00	0.00	0.00	0.00	0.00	0.25	1.50	0.75	0.25	0.00	0.25	0.00	0.00	0.600098	1.608398	3.196289	31.920000	392.489990	-202.229996	31.00	0.00	0.00
2.59	21.75	23.75	15.25	18.75	3.50	4.75	0.25	0.50	0.00	0.00	0.00	0.00	0.25	1.50	0.00	0.00	-0.266113	0.128906	1.008789	-28.840000	44.170002	-2.940000	936.00	-0.31	-0.06	0.00	0.00	0.00	0.00	0.00	0.00	0.00	0.00	0.00	1.25	0.75	0.50	0.00	0.00	0.00	0.00	0.934570	1.945801	5.238770	60.200001	173.389999	-139.440002	26.00	0.00	0.00
2.60	21.50	23.50	15.25	18.75	3.75	5.25	0.25	0.75	0.00	0.00	0.00	0.25	0.25	1.50	0.00	0.00	-0.248535	0.101562	0.985352	-26.740000	38.849998	-3.920000	946.00	-0.31	-0.06	0.00	0.00	0.00	0.00	0.00	0.00	0.00	0.00	0.00	1.00	0.50	0.00	0.00	0.00	0.00	0.00	1.286133	1.278320	3.630371	60.830002	-63.560001	-56.420002	16.00	0.00	0.00
2.61	21.25	23.00	15.25	18.50	4.00	5.50	0.25	0.75	0.00	0.00	0.00	0.00	0.50	1.50	0.00	0.00	-0.253906	0.083496	0.972656	-22.540001	34.369999	-4.760000	941.00	-0.31	-0.06	0.00	0.00	0.00	0.00	0.00	0.00	0.00	0.00	0.00	0.50	0.75	0.00	0.00	0.00	0.00	0.00	0.895996	0.774414	2.177246	8.190000	-197.960007	15.330000	13.00	0.00	0.00
2.62	20.75	22.25	15.00	18.00	4.25	5.50	0.25	0.75	0.00	0.00	0.00	0.25	0.50	1.25	0.00	0.00	-0.274902	0.081543	0.959961	-17.710001	29.820000	-5.950000	924.00	-0.31	-0.06	0.00	0.00	0.00	0.00	0.00	0.00	0.00	0.00	0.00	1.00	0.25	0.00	0.00	0.00	0.00	0.00	0.772949	0.607422	1.277832	-46.759998	-229.740005	60.970001	13.00	0.00	0.00
2.63	20.00	21.75	14.25	17.75	4.25	5.50	0.25	1.00	0.00	0.00	0.00	0.00	0.50	1.50	0.00	0.00	-0.262695	0.130371	0.966797	-14.420000	27.160000	-6.160000	904.00	-0.30	-0.06	0.00	0.00	0.00	0.00	0.00	0.00	0.00	0.00	0.00	0.00	0.25	0.00	0.00	0.00	0.00	0.00	0.769531	0.644043	1.013184	-57.610001	-228.339996	83.019997	3.00	0.00	0.00
2.64	19.25	21.00	14.00	17.25	4.50	6.00	0.25	1.00	0.00	0.00	0.25	0.25	0.75	1.50	0.00	0.00	-0.257812	0.108398	0.960449	-12.040000	25.549999	-5.530000	896.00	-0.30	-0.07	0.00	0.00	0.00	0.00	0.00	0.00	0.00	0.00	0.00	0.25	0.25	0.00	0.00	0.00	0.00	0.00	0.691895	0.566895	1.179199	-12.530000	-238.139999	93.099998	5.00	0.00	0.00
2.65	18.00	20.25	13.75	16.75	4.50	6.00	0.25	1.25	0.25	0.00	0.25	0.00	0.50	1.50	0.00	0.00	-0.227051	0.081055	0.875000	-10.640000	24.639999	-5.810000	870.00	-0.29	-0.07	0.00	0.00	0.00	0.00	0.00	0.00	0.00	0.00	0.00	0.25	0.00	0.00	0.00	0.00	0.00	0.00	0.598145	0.322754	1.567383	53.619999	-271.950012	95.760002	3.00	0.00	0.00
2.66	17.25	19.25	13.25	16.25	4.75	6.50	0.25	1.50	0.00	0.00	0.25	0.25	0.75	1.50	0.00	0.00	-0.260254	0.121094	0.928223	-10.920000	25.340000	-6.370000	856.00	-0.29	-0.07	0.00	0.00	0.00	0.00	0.00	0.00	0.00	0.00	0.00	0.25	0.00	0.00	0.00	0.00	0.00	0.00	0.437500	-0.019531	1.830078	94.779999	-328.369995	95.900002	3.00	0.00	0.00
2.67	16.25	17.75	12.50	15.75	4.75	6.50	0.25	1.50	0.00	0.00	0.00	0.25	0.75	1.50	0.00	0.00	-0.261719	0.139160	0.921387	-13.790000	27.580000	-6.790000	815.00	-0.29	-0.07	0.00	0.00	0.00	0.00	0.00	0.00	0.00	0.00	0.00	0.25	0.00	0.00	0.00	0.00	0.00	0.00	0.215332	-0.296387	1.739258	89.809998	-387.940002	95.900002	3.00	0.00	0.00
2.68	15.50	16.50	12.00	15.00	4.75	6.50	0.25	1.50	0.00	0.00	0.25	0.50	1.00	1.25	0.00	0.00	-0.294434	0.145996	0.959961	-19.040001	29.400000	-7.490000	787.00	-0.28	-0.08	0.00	0.00	0.00	0.00	0.00	0.00	0.00	0.00	0.00	0.25	0.00	0.00	0.00	0.00	0.00	0.00	-0.056152	-0.380859	1.467773	55.020000	-428.190002	95.970001	3.00	0.00	0.00
2.69	14.50	15.75	11.75	14.25	4.75	6.50	0.50	1.50	0.00	0.25	0.25	0.50	1.25	1.50	0.00	0.00	-0.271484	0.132324	0.916016	-24.010000	28.280001	-7.210000	770.00	-0.27	-0.08	0.00	0.00	0.00	0.00	0.00	0.00	0.00	0.00	0.00	0.25	0.00	0.00	0.00	0.00	0.00	0.00	-0.221191	-0.369629	1.214355	12.110000	-441.700012	94.080002	3.00	0.00	0.00
2.70	13.25	14.75	11.00	13.50	5.00	6.50	0.50	1.75	0.00	0.00	0.25	0.75	1.50	1.25	0.00	0.00	-0.278809	0.126465	0.926270	-29.750000	27.650000	-7.630000	738.00	-0.27	-0.08	0.00	0.00	0.00	0.00	0.00	0.00	0.00	0.00	0.00	0.50	0.00	0.00	0.00	0.00	0.00	0.00	-0.272461	-0.293457	1.075684	-23.799999	-438.690002	88.129997	5.00	0.00	0.00
2.71	12.00	13.50	10.75	12.75	5.00	6.50	0.50	2.00	0.50	0.75	0.50	1.00	1.75	1.50	0.00	0.00	-0.281250	0.098145	0.965332	-31.500000	24.639999	-8.050000	730.00	-0.24	-0.08	0.00	0.00	0.00	0.00	0.00	0.00	0.00	0.00	0.00	0.00	0.00	0.00	0.00	0.00	0.00	0.00	-0.310059	-0.170410	1.047363	-37.590000	-431.690002	79.519997	0.00	0.00	0.00
2.72	11.25	12.00	10.25	12.25	5.25	6.50	0.50	2.00	0.50	0.50	0.75	0.75	2.00	1.75	0.00	0.00	-0.298828	0.090332	0.939941	-21.980000	15.190001	-8.750000	702.00	-0.23	-0.08	0.00	0.00	0.00	0.00	0.00	0.00	0.00	0.00	0.00	0.00	0.00	0.00	0.00	0.00	0.00	0.00	-0.341309	-0.072754	1.066895	-29.120001	-423.220001	69.510002	0.00	0.00	0.00
2.73	10.00	11.25	9.75	11.25	5.25	6.50	0.75	2.25	1.00	0.50	1.00	1.00	2.00	1.75	0.00	0.25	-0.294922	0.094238	0.957520	-15.750000	11.340000	-8.540000	686.00	-0.22	-0.08	0.00	0.00	0.00	0.00	0.00	0.00	0.00	0.00	0.00	0.00	0.00	0.00	0.00	0.00	0.00	0.00	-0.379883	-0.018066	1.124512	-10.360000	-413.350006	61.740002	0.00	0.00	0.00
2.74	9.25	10.25	9.50	10.50	5.25	6.25	0.75	2.50	0.25	0.75	1.00	1.50	2.50	2.00	0.00	0.00	-0.297363	0.088867	0.936523	-11.970000	9.170000	-8.330000	662.00	-0.21	-0.09	0.00	0.00	0.00	0.00	0.00	0.00	0.00	0.00	0.00	0.00	0.00	0.00	0.00	0.00	0.00	0.00	-0.451172	0.096680	1.375977	7.980000	-392.769989	59.430000	0.00	0.00	0.00
2.75	8.75	9.50	9.25	9.75	5.50	6.25	0.75	2.75	1.50	1.00	1.25	1.50	3.00	2.50	0.00	0.25	-0.288086	0.091797	0.931152	-9.800000	8.400000	-8.540000	677.00	-0.18	-0.08	0.00	0.00	0.00	0.00	0.00	0.00	0.00	0.00	0.00	0.00	0.00	0.00	0.00	0.00	0.00	0.00	-0.483887	0.169434	1.545410	11.270000	-386.610016	65.099998	0.00	0.00	0.00
2.76	8.25	8.75	8.50	9.50	5.50	6.25	0.75	3.00	1.50	1.25	1.50	1.75	3.50	2.75	0.25	0.25	-0.292480	0.084961	0.924805	-8.540000	8.050000	-8.890000	675.00	-0.16	-0.09	0.00	0.00	0.00	0.00	0.00	0.00	0.00	0.00	0.00	0.00	0.00	0.00	0.00	0.00	0.00	0.00	-0.543945	0.213867	1.677734	19.040001	-383.390015	74.550003	0.00	0.00	0.00
2.77	7.50	8.25	8.50	8.75	5.75	6.25	1.00	3.50	1.50	1.50	1.50	2.00	4.00	3.00	0.25	0.50	-0.276367	0.114746	0.939453	-8.330000	8.470000	-9.380000	682.00	-0.14	-0.09	0.00	0.00	0.00	0.00	0.00	0.00	0.00	0.00	0.00	0.00	0.00	0.00	0.00	0.00	0.00	0.00	-0.623047	0.228027	1.770020	28.420000	-379.190002	85.889999	0.00	0.00	0.00
2.78	6.75	7.75	8.25	8.50	5.75	6.00	1.00	4.25	2.50	1.75	2.00	2.75	5.00	3.50	0.25	0.75	-0.298828	0.079590	0.937988	-7.630000	8.890000	-10.080000	716.00	-0.11	-0.10	0.00	0.00	0.00	0.00	0.00	0.00	0.00	0.00	0.00	0.00	0.00	0.00	0.00	0.00	0.00	0.00	-0.735840	0.208496	1.755371	33.250000	-368.760010	96.669998	0.00	0.00	0.00
2.79	6.50	7.00	8.00	8.00	6.00	5.75	1.25	4.75	3.00	2.00	2.50	3.50	5.75	4.00	0.25	1.00	-0.289062	0.083496	0.930176	-5.950000	9.730000	-10.780000	744.00	-0.09	-0.10	0.00	0.00	0.00	0.00	0.00	0.00	0.00	0.00	0.00	0.00	0.00	0.00	0.00	0.00	0.00	0.00	-0.864746	0.232910	1.833984	33.810001	-348.880005	103.599998	0.00	0.00	0.00
2.80	6.00	6.50	7.50	7.75	5.75	5.75	1.25	5.00	3.75	2.25	3.00	4.00	6.50	5.00	0.50	1.00	-0.301270	0.074707	0.935059	-4.340000	11.550000	-11.410000	767.00	-0.06	-0.10	0.00	0.00	0.00	0.00	0.00	0.00	0.00	0.00	0.00	0.00	0.00	0.00	0.00	0.00	0.00	0.00	-1.004395	0.274902	2.080078	33.810001	-325.570007	105.209999	0.00	0.00	0.00
2.81	5.00	6.00	7.25	7.00	6.00	5.50	1.50	5.25	4.50	3.00	3.50	5.50	7.00	5.50	0.50	1.25	-0.302246	0.069824	0.931641	-2.310000	13.720000	-11.620000	797.00	-0.03	-0.10	0.00	0.00	0.00	0.00	0.00	0.00	0.00	0.00	0.00	0.00	0.00	0.00	0.00	0.00	0.00	0.00	-1.198730	0.285645	2.223633	30.870001	-304.010010	101.989998	0.00	0.00	0.00
2.82	4.50	5.25	6.50	6.25	6.00	5.25	1.50	5.50	5.25	3.50	5.00	6.75	7.50	6.50	0.75	1.75	-0.314941	0.071289	0.942383	0.280000	16.379999	-11.340000	832.00	-0.00	-0.10	0.00	0.00	0.00	0.00	0.00	0.00	0.00	0.00	0.00	0.00	0.00	0.00	0.00	0.00	0.00	0.00	-1.478027	0.342285	2.253418	25.480000	-279.649994	96.180000	0.00	0.00	0.00
2.83	4.00	4.75	5.75	6.00	5.75	5.00	1.50	5.75	5.75	4.00	6.75	7.75	8.25	7.75	0.75	2.00	-0.303223	0.082520	0.937988	3.150000	18.340000	-11.060000	869.00	0.03	-0.10	0.00	0.00	0.00	0.00	0.00	0.00	0.00	0.00	0.00	0.00	0.00	0.00	0.00	0.00	0.00	0.00	-1.792480	0.397461	2.343262	23.590000	-252.000000	90.720001	0.00	0.00	0.00
2.84	3.00	4.00	5.50	5.50	5.25	4.25	1.50	5.75	6.50	5.75	7.75	8.50	9.00	8.75	0.75	2.50	-0.306641	0.095703	0.935059	5.390000	21.420000	-11.970000	894.00	0.06	-0.10	0.00	0.00	0.00	0.00	0.00	0.00	0.00	0.00	0.00	0.00	0.00	0.00	0.00	0.00	0.00	0.00	-2.124023	0.372070	2.460449	27.860001	-231.210007	87.430000	0.00	0.00	0.00
2.85	2.75	3.25	4.50	5.00	4.50	4.00	1.50	5.75	7.75	7.25	8.75	9.50	9.75	9.50	1.00	3.25	-0.274902	0.078613	0.934082	7.280000	24.850000	-11.900000	929.00	0.08	-0.09	0.00	0.00	0.00	0.00	0.00	0.00	0.00	0.00	0.00	0.00	0.00	0.00	0.00	0.00	0.00	0.00	-2.470215	0.396484	2.581543	38.290001	-226.800003	88.410004	0.00	0.00	0.00
2.86	2.50	2.50	3.50	4.75	3.50	3.25	1.50	6.00	8.50	8.00	10.00	10.50	10.50	10.25	1.25	4.00	-0.306152	0.072754	0.932129	10.220000	29.750000	-11.830000	951.00	0.11	-0.09	0.00	0.00	0.00	0.00	0.00	0.00	0.00	0.00	0.00	0.00	0.00	0.00	0.00	0.00	0.00	0.00	-2.813965	0.497070	2.647461	56.910000	-249.550003	94.500000	0.00	0.00	0.00
2.87	2.00	2.25	3.00	4.25	2.75	2.50	1.50	5.75	9.00	8.50	10.75	11.75	11.25	11.25	1.50	5.00	-0.299316	0.071289	0.953125	13.650000	36.750000	-11.550000	968.00	0.13	-0.10	0.00	0.00	0.00	0.00	0.00	0.00	0.00	0.00	0.00	0.00	0.00	0.00	0.00	0.00	0.00	0.00	-3.166992	0.453125	2.143066	81.269997	-290.989990	105.980003	0.00	0.00	0.00
2.88	1.75	1.50	2.50	3.75	2.25	2.25	1.25	5.50	9.50	9.50	12.00	12.50	11.75	12.25	1.50	5.50	-0.357422	0.049805	0.997070	19.320000	50.049999	-11.900000	986.00	0.15	-0.09	0.00	0.00	0.00	0.00	0.00	0.00	0.00	0.00	0.00	0.00	0.00	0.00	0.00	0.00	0.00	0.00	-3.530762	0.266113	1.199707	103.040001	-316.750000	121.169998	0.00	0.00	0.00
2.89	1.75	1.25	2.00	3.50	1.50	1.75	1.00	5.25	10.25	10.00	13.00	13.50	12.25	13.25	1.75	5.75	-0.333984	0.098145	1.024902	28.700001	73.849998	-10.500000	1007.00	0.17	-0.09	0.00	0.00	0.00	0.00	0.00	0.00	0.00	0.00	0.00	0.00	0.00	0.00	0.00	0.00	0.00	0.00	-3.786621	-0.018555	0.239258	115.570000	-304.989990	131.039993	0.00	0.00	0.00
2.90	1.50	1.25	1.75	3.00	1.25	1.75	0.75	4.75	10.50	10.50	13.75	14.50	12.50	14.00	2.00	6.25	-0.371582	0.130859	1.000000	41.299999	99.190002	-10.010000	1022.00	0.18	-0.09	0.00	0.00	0.00	0.00	0.00	0.00	0.00	0.00	0.00	0.00	0.00	0.00	0.00	0.00	0.00	0.00	-4.150879	-0.361816	-0.442871	115.500000	-263.339996	124.110001	0.00	0.00	0.00
2.91	1.25	1.25	1.50	2.50	0.75	1.00	0.50	4.00	11.00	11.00	14.50	15.00	12.50	15.25	2.50	6.50	-0.404297	0.104980	1.004395	54.110001	126.419998	-10.570000	1025.00	0.20	-0.09	0.00	0.00	0.00	0.00	0.00	0.00	0.00	0.00	0.00	0.00	0.00	0.00	0.00	0.00	0.00	0.00	-4.482422	-0.547363	-0.879395	108.150002	-212.449997	92.260002	0.00	0.00	0.00
2.92	1.25	0.75	1.00	2.50	0.50	0.50	0.25	3.50	11.00	11.25	15.00	15.50	12.50	15.75	2.75	6.75	-0.405762	0.076172	1.105469	69.580002	153.789993	-9.170000	1016.00	0.21	-0.08	0.00	0.00	0.00	0.00	0.00	0.00	0.00	0.00	0.00	0.00	0.00	0.00	0.00	0.00	0.00	0.00	-4.618164	-0.582520	-1.327637	96.040001	-102.620003	-11.410000	0.00	0.00	0.00
2.93	1.00	0.75	0.50	2.50	0.50	0.75	0.00	2.75	11.50	11.50	15.50	16.00	12.25	16.50	3.00	7.25	-0.499512	0.138184	1.078613	75.739998	226.029999	-9.100000	1025.00	0.22	-0.08	0.00	0.00	0.00	0.00	0.00	0.00	0.00	0.00	0.00	0.00	0.00	0.00	0.00	0.00	0.00	0.00	-4.618164	-0.582520	-1.327637	96.040001	-102.620003	-11.410000	0.00	0.00	0.00
2.94	1.25	0.75	0.75	2.50	0.25	0.50	0.00	2.25	11.25	11.50	15.75	16.50	12.00	16.50	3.00	7.50	-0.507324	0.177246	1.135742	73.220001	257.880005	-12.110000	1021.00	0.22	-0.08	0.00	0.00	0.00	0.00	0.00	0.00	0.00	0.00	0.00	0.00	0.00	0.00	0.00	0.00	0.00	0.00	-4.214844	-0.673828	-1.104004	82.879997	-30.380001	-38.639999	0.00	0.00	0.00
2.95	1.00	0.50	0.75	2.50	0.00	0.50	0.00	2.25	11.50	11.75	15.75	16.25	11.75	16.75	3.25	7.50	-0.515625	0.208008	1.112793	70.699997	292.739990	-17.500000	1019.00	0.22	-0.08	0.00	0.50	0.25	0.50	0.00	0.00	0.00	0.00	0.00	0.00	0.00	0.00	0.00	0.00	0.00	0.00	-0.383301	-1.030762	2.323242	-30.450001	252.839996	-70.629997	13.00	0.00	0.00
2.96	0.50	0.25	0.50	1.75	0.00	0.00	0.00	1.75	11.00	11.75	15.50	16.00	11.25	16.50	3.00	7.50	-0.537109	0.270508	1.108398	66.080002	331.239990	-25.900000	967.00	0.24	-0.07	2.00	2.75	1.00	1.75	0.00	0.00	0.00	0.00	0.00	0.00	0.00	0.00	0.00	0.00	0.00	0.00	0.883301	0.464844	2.450195	-100.870003	258.510010	-108.430000	76.00	-0.36	-0.07
2.97	0.75	0.50	0.50	1.75	0.00	0.25	0.00	1.50	10.75	11.75	15.50	15.75	10.50	16.00	3.00	7.25	-0.755371	0.268066	1.372070	61.670002	370.929993	-36.820000	953.00	0.23	-0.07	4.00	5.25	1.50	3.75	0.00	0.00	0.00	0.00	0.00	0.00	0.00	0.00	0.00	0.00	0.00	0.00	-0.589844	0.332031	1.174805	-116.900002	221.339996	-127.889999	148.00	-0.36	-0.08
2.98	0.75	0.25	0.25	1.75	0.00	0.00	0.00	1.50	10.50	11.50	15.25	15.25	9.75	15.25	3.00	7.00	-0.710938	0.352051	1.294434	55.369999	409.360016	-49.070000	917.00	0.24	-0.07	7.50	8.50	3.00	5.50	0.00	0.00	0.00	0.00	0.00	0.00	0.00	0.00	0.00	0.00	0.00	0.00	-1.104004	1.588867	1.403809	-148.399994	264.250000	-106.820000	250.00	-0.36	-0.06
2.99	0.50	0.00	0.00	1.00	0.00	0.00	0.00	1.50	10.00	11.25	14.75	14.50	9.00	14.00	2.75	6.75	-0.845703	0.366699	1.534668	55.650002	457.170013	-61.389999	858.00	0.25	-0.07	11.25	11.50	4.75	8.00	0.00	0.00	0.00	0.00	0.00	0.00	0.00	0.00	0.00	0.25	0.00	0.00	-0.931152	1.362793	2.743652	-91.559998	285.110016	-15.820000	365.00	-0.35	-0.05
3.00	0.25	0.00	0.00	0.75	0.00	0.00	0.00	1.00	9.00	10.50	13.25	13.00	8.00	12.00	2.00	6.00	-0.958008	0.366699	1.831055	43.330002	500.709991	-71.190002	754.00	0.25	-0.07	14.25	13.75	7.50	9.50	0.00	0.50	0.00	0.00	0.00	0.00	0.00	0.00	0.00	0.00	0.00	0.00	-0.934082	-0.535156	2.471680	-79.940002	258.649994	29.049999	467.00	-0.35	-0.05
3.01	0.00	0.00	0.00	0.50	0.00	0.00	0.00	0.75	8.25	9.25	11.25	10.75	7.00	10.50	1.50	5.00	-1.635254	0.433105	2.335938	15.470000	532.630005	-70.769997	646.00	0.25	-0.06	15.75	14.75	8.25	10.25	0.25	0.75	0.00	0.00	0.00	0.00	0.00	0.00	0.00	0.25	0.00	0.00	-0.647949	-0.625977	2.338867	-76.090004	220.149994	8.260000	516.00	-0.35	-0.05
3.02	0.00	0.00	0.00	0.00	0.00	0.00	0.00	0.25	7.50	7.75	8.75	8.25	5.50	8.75	0.75	3.50	-2.159180	0.667969	2.535645	12.530000	542.780029	-63.349998	511.00	0.26	-0.04	16.25	15.00	8.75	11.00	0.50	2.00	0.00	0.00	0.00	0.00	0.00	0.00	0.00	0.25	0.00	0.00	-0.469238	-0.178223	1.706543	-34.650002	173.460007	-13.860000	554.00	-0.34	-0.05
3.03	0.00	0.00	0.00	0.00	0.00	0.00	0.00	0.00	6.00	5.75	6.75	6.50	3.75	7.75	0.50	2.00	-2.395996	1.050293	2.733398	28.630001	530.669983	-49.490002	392.00	0.26	-0.03	16.25	15.25	9.50	11.50	1.00	3.00	0.00	0.50	0.00	0.00	0.00	0.00	0.00	0.75	0.00	0.00	-0.287598	0.308105	1.265137	-9.240000	147.630005	-19.600000	598.00	-0.33	-0.06
3.04	0.00	0.00	0.00	0.00	0.00	0.00	0.00	0.00	4.25	4.00	4.50	4.50	2.25	6.00	0.00	1.25	-1.938477	1.240234	2.843750	67.269997	498.890015	-58.029999	269.00	0.27	-0.01	16.75	15.00	10.00	12.00	1.50	4.25	0.25	0.75	0.00	0.00	0.00	0.00	0.00	0.50	0.00	0.00	-0.333008	0.423340	1.540527	-26.530001	137.059998	-14.070000	637.00	-0.32	-0.06
3.05	0.00	0.00	0.00	0.00	0.00	0.00	0.00	0.00	2.50	3.00	3.00	3.00	1.50	4.75	0.00	0.75	-0.871582	0.787598	2.600098	109.059998	471.170013	-88.550003	185.00	0.27	-0.01	16.25	15.75	10.50	12.50	2.00	6.25	0.25	1.25	0.00	0.00	0.00	0.25	0.25	0.75	0.00	0.00	-0.436523	0.179199	1.451660	-48.439999	105.070000	-7.280000	691.00	-0.30	-0.07
3.06	0.00	0.00	0.00	0.00	0.00	0.00	0.00	0.00	1.50	1.75	2.00	2.25	0.75	2.00	0.00	0.25	-0.021484	0.684570	2.676270	113.540001	452.480011	-132.300003	107.00	0.26	-0.03	16.75	15.75	10.75	12.75	2.50	7.25	0.25	1.75	0.00	0.00	0.00	0.00	0.50	0.75	0.00	0.00	-0.388672	0.125977	1.409180	-54.810001	71.050003	-3.640000	726.00	-0.30	-0.08
3.07	0.00	0.00	0.00	0.00	0.00	0.00	0.00	0.00	0.50	1.00	1.25	1.25	0.50	0.75	0.00	0.00	0.461914	0.750977	2.416992	101.919998	443.660004	-173.809998	54.00	0.25	-0.07	16.25	15.75	11.00	13.00	2.50	7.75	0.25	2.00	0.00	0.00	0.00	0.25	0.75	0.50	0.00	0.00	-0.279297	0.163574	1.109863	-45.920002	45.220001	-0.910000	738.00	-0.29	-0.08
3.08	0.00	0.00	0.00	0.00	0.00	0.00	0.00	0.00	0.00	1.00	1.25	1.00	0.00	0.00	0.00	0.00	0.949707	0.592773	2.603027	90.230003	435.260010	-207.970001	34.00	0.00	0.00	16.75	15.50	11.00	13.00	2.75	8.00	0.50	2.25	0.00	0.00	0.00	0.00	0.75	0.75	0.00	0.00	-0.222168	0.142578	1.011719	-38.639999	32.060001	1.470000	753.00	-0.29	-0.08
3.09	0.00	0.00	0.00	0.00	0.00	0.00	0.00	0.00	0.25	0.75	1.00	1.00	0.00	0.00	0.00	0.00	0.250488	1.595215	5.598145	51.590000	318.989990	-191.169998	32.00	0.00	0.00	17.00	15.50	11.25	13.25	2.75	8.00	0.50	2.00	0.25	0.25	0.00	0.00	0.75	0.75	0.00	0.00	-0.256348	0.132324	1.073242	-30.520000	20.580000	2.380000	764.00	-0.28	-0.08
3.10	0.00	0.00	0.00	0.00	0.00	0.00	0.00	0.00	0.00	0.75	1.00	0.75	0.00	0.00	0.00	0.00	1.394043	1.431641	4.835449	44.029999	65.730003	-131.740005	26.00	0.00	0.00	16.75	15.50	11.00	13.25	3.00	8.25	0.50	2.25	0.00	0.00	0.00	0.00	0.75	0.50	0.00	0.00	-0.225098	0.138672	1.013672	-18.830000	9.380000	2.730000	759.00	-0.29	-0.08
3.11	0.00	0.00	0.00	0.00	0.00	0.00	0.00	0.00	0.00	0.50	0.75	0.50	0.00	0.00	0.00	0.00	1.099609	0.901855	3.187500	28.139999	-142.169998	-76.019997	18.00	0.00	0.00	16.25	15.50	11.25	13.50	3.25	8.50	0.50	2.75	0.00	0.50	0.00	0.25	0.75	0.25	0.00	0.00	-0.201660	0.137207	0.980469	-11.620000	4.060000	2.800000	779.00	-0.28	-0.09
3.12	0.00	0.00	0.00	0.00	0.00	0.00	0.00	0.00	0.00	0.75	0.75	0.25	0.00	0.00	0.00	0.00	0.699707	0.508301	1.862793	-4.480000	-228.130005	-43.189999	18.00	0.00	0.00	16.25	15.50	11.00	13.25	3.25	8.50	0.25	2.50	0.00	0.00	0.00	0.00	0.50	0.50	0.00	0.00	-0.202637	0.139648	0.976562	-7.070000	0.910000	1.960000	758.00	-0.29	-0.09
3.13	0.00	0.00	0.00	0.00	0.00	0.00	0.00	0.00	0.00	0.75	0.75	0.25	0.00	0.00	0.00	0.00	0.621582	0.427734	1.229004	-26.389999	-237.229996	-29.049999	18.00	0.00	0.00	15.50	15.00	10.75	13.00	3.00	8.25	0.50	2.75	0.00	0.25	0.00	0.00	1.00	0.25	0.00	0.00	-0.179688	0.142090	0.936523	-5.040000	-0.350000	0.980000	747.00	-0.28	-0.09
3.14	0.00	0.00	0.00	0.00	0.00	0.00	0.00	0.00	0.00	0.50	0.50	0.00	0.00	0.00	0.00	0.00	0.494141	0.564941	1.051758	0.420000	-244.440002	-17.990000	10.00	0.00	0.00	14.75	14.50	10.50	12.75	3.00	8.75	0.25	2.75	0.00	0.00	0.25	0.25	1.25	0.50	0.00	0.00	-0.166504	0.135742	0.931152	-6.230000	0.980000	-0.070000	737.00	-0.27	-0.10
3.15	0.00	0.00	0.00	0.00	0.00	0.00	0.00	0.00	0.00	0.25	0.50	0.00	0.00	0.00	0.00	0.00	0.364258	0.513184	1.170898	39.830002	-260.959991	-8.050000	8.00	0.00	0.00	14.25	14.00	10.25	12.75	3.25	8.50	0.50	3.00	0.00	0.25	0.00	0.00	1.25	0.75	0.00	0.00	-0.154785	0.131348	0.995117	-7.910000	3.080000	-0.910000	732.00	-0.27	-0.09
3.16	0.00	0.00	0.00	0.00	0.00	0.00	0.00	0.00	0.00	0.25	0.50	0.00	0.00	0.00	0.00	0.00	0.247070	0.366699	1.378418	71.959999	-286.790009	7.070000	8.00	0.00	0.00	13.00	13.25	10.00	12.50	3.50	8.50	0.50	3.25	0.00	0.25	0.00	0.25	1.50	0.75	0.00	0.25	-0.178223	0.144531	0.962891	-7.140000	3.220000	-0.560000	719.00	-0.26	-0.10
3.17	0.00	0.00	0.00	0.00	0.00	0.00	0.00	0.00	0.00	0.25	0.25	0.00	0.00	0.00	0.00	0.00	0.097168	0.210449	1.522461	79.519997	-321.160004	25.760000	5.00	0.00	0.00	12.25	12.75	9.50	12.00	3.50	8.75	0.50	3.75	0.00	0.25	0.00	0.25	2.00	0.50	0.00	0.25	-0.182617	0.134766	0.952637	-8.820000	4.130000	-1.400000	708.00	-0.25	-0.11
3.18	0.00	0.00	0.00	0.00	0.00	0.00	0.00	0.00	0.00	0.25	0.00	0.00	0.00	0.00	0.00	0.00	-0.028809	0.115234	1.526855	62.230000	-357.350006	45.709999	3.00	0.00	0.00	11.50	12.00	9.25	11.75	3.50	8.75	0.25	4.50	0.00	0.25	0.00	0.25	2.25	0.50	0.00	0.25	-0.200195	0.151367	0.964844	-10.570000	4.830000	-2.240000	698.00	-0.25	-0.12
3.19	0.00	0.00	0.00	0.00	0.00	0.00	0.00	0.00	0.00	0.00	0.25	0.00	0.00	0.00	0.00	0.00	-0.173340	0.054688	1.407227	32.270000	-386.750000	63.420002	3.00	0.00	0.00	10.50	11.00	8.75	11.25	3.50	8.50	0.50	4.50	0.00	0.50	0.00	0.75	2.75	0.75	0.00	0.25	-0.193848	0.139648	0.957031	-12.250000	5.180000	-2.800000	683.00	-0.23	-0.12
3.20	0.00	0.00	0.00	0.00	0.00	0.00	0.00	0.00	0.00	0.00	0.25	0.00	0.00	0.00	0.00	0.00	-0.292480	0.044434	1.244141	3.290000	-403.130005	74.830002	3.00	0.00	0.00	9.50	9.50	8.25	10.75	3.50	8.50	0.50	5.00	0.25	0.25	0.00	0.75	3.00	0.75	0.00	0.25	-0.204590	0.141602	0.955078	-14.700000	5.390000	-3.430000	658.00	-0.22	-0.13
3.21	0.00	0.00	0.00	0.00	0.00	0.00	0.00	0.00	0.00	0.00	0.00	0.00	0.00	0.00	0.00	0.00	-0.370117	0.050293	1.082031	-13.650000	-406.420013	77.910004	0.00	0.00	0.00	8.75	9.25	8.00	10.50	3.75	8.25	0.50	5.50	0.75	0.00	0.00	1.00	3.50	0.50	0.00	0.50	-0.218750	0.135254	0.972656	-16.450001	4.970000	-3.780000	660.00	-0.21	-0.14
3.22	0.00	0.00	0.00	0.00	0.00	0.00	0.00	0.00	0.00	0.00	0.00	0.00	0.00	0.00	0.00	0.00	-0.416992	0.067871	1.018066	-13.720000	-401.029999	74.830002	0.00	0.00	0.00	7.75	8.75	7.50	9.75	3.75	8.25	0.50	5.75	0.25	0.50	0.25	1.25	4.50	0.75	0.00	0.50	-0.219727	0.128906	0.971191	-16.100000	3.780000	-3.780000	650.00	-0.19	-0.15
3.23	0.00	0.00	0.00	0.00	0.00	0.00	0.00	0.00	0.00	0.00	0.00	0.00	0.00	0.00	0.00	0.00	-0.482910	0.083008	1.097656	0.630000	-391.510010	68.459999	0.00	0.00	0.00	7.25	8.25	7.00	9.50	3.75	8.00	0.50	5.75	0.25	0.75	0.25	1.50	4.75	0.75	0.00	0.75	-0.215332	0.134766	0.962891	-15.680000	2.100000	-3.990000	638.00	-0.18	-0.15
3.24	0.00	0.00	0.00	0.00	0.00	0.00	0.00	0.00	0.00	0.00	0.00	0.00	0.00	0.00	0.00	0.00	-0.563965	0.075195	1.276855	20.160000	-382.130005	61.110001	0.00	0.00	0.00	6.50	7.75	6.75	9.25	3.75	8.00	0.50	6.00	0.50	1.00	0.50	1.50	5.25	1.00	0.00	0.75	-0.215820	0.119629	0.966797	-15.400000	1.400000	-4.480000	639.00	-0.16	-0.16
3.25	0.00	0.00	0.00	0.00	0.00	0.00	0.00	0.00	0.00	0.00	0.00	0.00	0.00	0.00	0.00	0.00	-0.639648	0.063965	1.476074	32.200001	-376.320007	55.230000	0.00	0.00	0.00	6.00	7.00	6.50	9.00	4.25	8.00	0.75	6.50	0.75	1.00	0.75	1.75	5.50	1.50	0.00	1.25	-0.220215	0.113770	0.982422	-13.580000	0.350000	-4.830000	656.00	-0.14	-0.15
3.26	0.00	0.00	0.00	0.00	0.00	0.00	0.00	0.00	0.00	0.00	0.00	0.00	0.00	0.00	0.00	0.00	-0.715820	0.092285	1.666016	31.290001	-375.549988	53.410000	0.00	0.00	0.00	5.75	6.75	6.00	8.50	4.25	7.75	0.75	6.50	0.75	1.25	0.75	2.00	6.25	1.50	0.25	1.25	-0.217773	0.121582	0.960449	-11.410000	-0.140000	-4.830000	651.00	-0.13	-0.16
3.27	0.00	0.00	0.00	0.00	0.00	0.00	0.00	0.00	0.00	0.00	0.00	0.00	0.00	0.00	0.00	0.00	-0.790527	0.159180	1.809570	21.490000	-378.630005	57.610001	0.00	0.00	0.00	5.25	6.00	5.75	8.00	4.50	7.75	0.75	7.00	0.50	1.25	1.00	2.75	7.00	1.75	0.00	1.50	-0.213379	0.118652	0.953125	-10.430000	-0.210000	-4.900000	656.00	-0.11	-0.17
3.28	0.00	0.00	0.00	0.00	0.00	0.00	0.00	0.00	0.00	0.00	0.00	0.00	0.00	0.00	0.00	0.00	-0.852051	0.235352	1.882324	10.290000	-381.640015	67.900002	0.00	0.00	0.00	4.75	6.00	5.25	8.00	4.50	7.50	0.75	7.00	1.00	1.50	1.25	3.00	7.50	2.00	0.00	1.75	-0.215820	0.126953	0.955566	-10.360000	-0.210000	-5.390000	665.00	-0.10	-0.17
3.29	0.00	0.00	0.00	0.00	0.00	0.00	0.00	0.00	0.00	0.00	0.00	0.00	0.00	0.00	0.00	0.00	-0.917480	0.313477	1.919434	2.170000	-381.290009	83.370003	0.00	0.00	0.00	4.25	5.25	5.25	7.50	4.50	7.50	0.75	7.25	1.25	1.50	1.50	3.50	8.25	2.75	0.25	2.00	-0.208496	0.125000	0.960449	-9.940000	-0.280000	-5.880000	679.00	-0.07	-0.17
3.30	0.00	0.00	0.00	0.00	0.00	0.00	0.00	0.00	0.00	0.00	0.00	0.00	0.00	0.00	0.00	0.00	-0.986816	0.353516	1.985352	-5.460000	-374.290009	101.360001	0.00	0.00	0.00	3.75	5.00	5.00	7.25	4.50	7.50	0.75	7.50	1.75	2.00	2.00	4.00	8.50	3.00	0.25	2.50	-0.216309	0.114258	0.963379	-9.380000	0.420000	-6.370000	699.00	-0.05	-0.17
3.31	0.00	0.00	0.00	0.00	0.00	0.00	0.00	0.00	0.00	0.00	0.00	0.00	0.00	0.00	0.00	0.00	-1.087891	0.413574	2.121582	-16.240000	-360.709991	119.559998	0.00	0.00	0.00	3.50	4.50	4.25	6.50	4.50	7.25	1.00	7.50	2.25	2.25	2.25	4.75	9.00	3.50	0.50	2.50	-0.219727	0.109863	0.961426	-8.260000	1.890000	-7.000000	707.00	-0.03	-0.17
3.32	0.00	0.00	0.00	0.00	0.00	0.00	0.00	0.00	0.00	0.00	0.00	0.00	0.00	0.00	0.00	0.00	-1.556152	0.567383	2.566406	-30.520000	-324.869995	149.729996	0.00	0.00	0.00	2.75	3.75	4.00	6.00	4.50	7.00	0.75	7.50	2.50	2.75	3.00	6.25	9.50	4.25	0.50	3.25	-0.218750	0.116211	0.963379	-6.930000	3.500000	-7.630000	725.00	-0.00	-0.17
3.33	0.00	0.00	0.00	0.00	0.00	0.00	0.00	0.00	0.00	0.00	0.00	0.00	0.00	0.00	0.00	0.00	-1.556152	0.567383	2.566406	-30.520000	-324.869995	149.729996	0.00	0.00	0.00	2.50	3.00	3.50	5.75	4.25	6.50	1.00	7.75	3.25	3.25	3.50	7.50	10.00	5.25	0.75	4.00	-0.228027	0.114746	0.965332	-5.180000	5.460000	-7.910000	759.00	0.03	-0.16
3.34	0.00	0.00	0.00	0.00	0.00	0.00	0.00	0.00	0.00	0.00	0.00	0.00	0.00	0.00	0.00	0.00	-1.953613	0.517578	2.759766	-42.840000	-311.709991	157.360001	0.00	0.00	0.00	2.00	2.50	2.75	4.75	3.75	6.00	1.00	7.75	3.75	3.75	5.75	8.25	10.50	6.50	1.00	5.00	-0.198730	0.110352	0.958496	-1.190000	12.460000	-9.310000	786.00	0.06	-0.16
3.35	0.00	0.00	0.00	0.00	0.00	0.00	0.00	0.00	0.00	0.00	0.00	0.00	0.00	0.00	0.00	0.00	-2.354492	0.560059	2.838867	-69.510002	-305.200012	157.080002	0.00	0.00	0.00	1.50	1.75	2.00	4.75	3.50	5.25	1.00	7.50	4.50	4.50	7.25	8.75	11.00	7.25	1.25	5.75	-0.221191	0.141113	0.977539	1.330000	18.059999	-10.430000	807.00	0.09	-0.16
3.36	0.00	0.00	0.00	0.00	0.00	0.00	0.00	0.00	0.00	0.00	0.00	0.00	0.00	0.00	0.00	0.00	-3.364258	0.970703	2.874023	-84.419998	-311.920013	150.149994	0.00	0.00	0.00	1.25	1.25	1.50	3.75	3.00	5.00	0.75	7.50	5.75	6.00	8.25	9.50	11.50	8.00	1.25	6.25	-0.209473	0.124512	0.996582	5.950000	25.830000	-12.600000	835.00	0.12	-0.15
3.37	0.00	0.00	0.00	0.00	0.00	0.00	0.00	0.00	0.00	0.00	0.00	0.00	0.00	0.00	0.00	0.00	-3.564941	0.940430	1.673828	-31.780001	-333.829987	153.020004	0.00	0.00	0.00	1.00	1.00	1.00	3.00	2.25	4.00	0.75	7.25	6.50	7.50	9.00	10.25	12.00	8.75	1.75	7.00	-0.249023	0.113770	1.002930	12.250000	36.820000	-15.120000	854.00	0.14	-0.14
3.38	0.00	0.00	0.00	0.00	0.00	0.00	0.00	0.00	0.00	0.00	0.00	0.00	0.00	0.00	0.00	0.00	-4.123535	0.931641	0.352539	35.139999	-339.850006	146.509995	0.00	0.00	0.00	0.50	1.00	1.00	2.25	1.75	3.50	0.50	6.75	7.50	8.00	10.00	10.75	12.50	10.00	2.25	7.75	-0.272949	0.093262	1.036621	20.860001	53.200001	-15.260000	877.00	0.17	-0.13
3.39	0.00	0.00	0.00	0.00	0.00	0.00	0.00	0.00	0.00	0.00	0.00	0.00	0.00	0.00	0.00	0.00	-4.773438	0.640625	-0.848633	119.070000	-308.630005	116.199997	0.00	0.00	0.00	0.75	0.75	0.75	2.50	1.50	2.50	0.25	6.50	7.75	8.75	10.50	11.50	12.75	11.00	2.75	8.25	-0.279297	0.097168	1.053223	33.040001	74.269997	-13.440001	899.00	0.18	-0.13
3.40	0.00	0.00	0.00	0.00	0.00	0.00	0.00	0.00	0.00	0.00	0.00	0.00	0.00	0.00	0.00	0.00	-5.670410	0.132812	-1.335449	249.199997	-253.470001	82.669998	0.00	0.00	0.00	0.75	0.25	0.50	2.50	1.00	2.00	0.25	6.00	8.25	9.25	11.25	12.00	13.25	12.25	3.50	9.00	-0.291016	0.124512	1.084473	45.779999	99.540001	-10.990000	925.00	0.19	-0.12
3.41	0.00	0.00	0.00	0.00	0.00	0.00	0.00	0.00	0.00	0.00	0.00	0.00	0.00	0.00	0.00	0.00	-6.104980	-0.991211	-1.686523	313.390015	-172.059998	74.830002	0.00	0.00	0.00	0.25	0.25	0.75	2.25	0.50	1.75	0.00	5.50	8.75	9.75	12.00	12.25	13.25	14.00	4.50	10.25	-0.300293	0.104980	1.129883	57.680000	132.160004	-9.380000	954.00	0.21	-0.12
3.42	0.00	0.00	0.00	0.00	0.00	0.00	0.00	0.00	0.00	0.00	0.00	0.00	0.00	0.00	0.00	0.00	-5.964844	-1.818848	-2.062012	194.039993	-68.320000	75.180000	0.00	0.00	0.00	0.25	0.00	0.25	2.00	0.50	1.00	0.00	4.75	9.25	10.00	12.25	12.75	13.25	15.25	5.25	10.75	-0.331543	0.145508	1.112305	62.439999	161.000000	-8.120000	963.00	0.23	-0.11
3.43	0.00	0.00	0.00	0.00	0.00	0.00	0.00	0.00	0.00	0.00	0.00	0.00	0.00	0.00	0.00	0.00	-5.134277	-1.376953	-1.755859	-25.760000	48.369999	62.860001	0.00	0.00	0.00	0.25	0.00	0.00	1.50	0.25	0.75	0.00	4.25	9.50	10.25	12.75	13.00	13.00	16.25	5.75	11.50	-0.360840	0.131836	1.122070	65.590004	190.750000	-7.910000	971.00	0.24	-0.10
3.44	0.00	0.00	0.00	0.00	0.00	0.00	0.00	0.00	0.00	0.00	0.00	0.00	0.00	0.00	0.00	0.00	-4.104980	-0.291504	-0.603516	-137.479996	142.029999	46.130001	0.00	0.00	0.00	0.75	0.00	0.25	1.25	0.00	0.25	0.00	3.25	9.25	10.50	13.00	13.25	13.00	17.00	6.50	12.00	-0.375977	0.142578	1.191406	65.590004	219.380005	-7.350000	974.00	0.24	-0.09
3.45	0.75	1.00	0.25	0.75	0.00	0.00	0.00	0.00	0.00	0.00	0.00	0.00	0.00	0.00	0.00	0.00	0.211426	2.395996	3.772949	-86.590004	290.079987	-4.340000	28.00	0.00	0.00	0.50	0.00	0.00	1.50	0.00	0.00	0.00	2.00	9.75	10.75	13.25	13.25	12.50	17.75	6.75	12.50	-0.389648	0.216797	1.128906	61.670002	248.710007	-9.240000	969.00	0.25	-0.08
3.46	2.50	3.50	1.75	2.75	0.00	0.00	0.00	0.00	0.00	0.00	0.00	0.00	0.00	0.00	0.00	0.00	2.322266	0.489746	1.906738	5.600000	226.729996	-1.960000	108.00	-0.35	-0.07	0.25	0.00	0.00	1.00	0.00	0.00	0.00	2.25	9.25	10.75	13.25	13.00	12.25	18.25	7.00	13.00	-0.415039	0.292969	1.228516	54.459999	279.019989	-17.710001	963.00	0.26	-0.08
3.47	6.50	7.25	3.00	4.75	0.00	0.00	0.00	0.00	0.00	0.00	0.00	0.00	0.00	0.00	0.00	0.00	-0.821777	-0.098145	-0.504395	-25.760000	152.039993	-29.680000	220.00	-0.36	-0.06	0.25	0.00	0.00	0.75	0.00	0.00	0.00	2.25	9.25	11.00	13.00	13.00	11.75	18.25	7.50	12.75	-0.446289	0.374512	1.208984	52.290001	311.220001	-31.500000	960.00	0.26	-0.08
3.48	10.25	12.00	6.00	7.50	0.00	0.00	0.00	0.00	0.00	0.00	0.00	0.00	0.00	0.00	0.00	0.00	-0.793457	0.088867	1.035645	-49.070000	278.739990	-55.720001	366.00	-0.36	-0.05	0.00	0.00	0.00	0.25	0.00	0.00	0.00	1.75	8.75	10.75	13.00	12.75	11.25	18.00	7.50	12.50	-0.583984	0.347168	1.377930	46.060001	347.339996	-48.509998	924.00	0.27	-0.08
3.49	17.25	17.50	8.25	9.50	0.00	0.00	0.00	0.00	0.00	0.00	0.00	0.00	0.25	0.00	0.00	0.00	-1.187988	0.957520	3.804688	-38.920002	296.309998	-40.950001	538.00	-0.36	-0.04	0.00	0.00	0.00	0.25	0.00	0.00	0.00	1.50	8.50	10.75	12.75	12.25	10.75	17.25	7.50	12.00	-0.601562	0.465820	1.398926	34.580002	384.579987	-66.010002	896.00	0.27	-0.08
3.50	21.50	21.25	10.25	11.75	0.50	0.00	0.00	0.00	0.00	0.00	0.00	0.00	0.25	0.25	0.00	0.00	-1.190918	-0.222656	1.978516	-59.150002	233.520004	-30.730000	671.00	-0.35	-0.04	0.00	0.00	0.00	0.00	0.00	0.00	0.00	1.25	8.25	10.75	12.50	11.75	9.75	16.00	6.75	11.00	-0.683105	0.510742	1.495117	37.450001	429.869995	-82.739998	846.00	0.27	-0.07
3.51	23.25	23.00	12.00	13.75	0.50	0.00	0.00	0.00	0.00	0.00	0.00	0.00	0.00	0.50	0.00	0.00	-0.577637	0.609863	1.950195	-68.110001	230.440002	-29.610001	747.00	-0.35	-0.04	0.00	0.00	0.00	0.00	0.00	0.00	0.00	1.75	7.50	10.25	11.50	11.00	9.25	13.75	6.25	9.75	-0.865234	0.687012	1.500000	13.790000	477.610016	-108.220001	784.00	0.27	-0.08
3.52	24.00	24.25	13.25	15.00	1.00	0.50	0.00	0.00	0.00	0.00	0.00	0.00	0.50	0.75	0.00	0.00	-0.674316	-0.092773	1.753906	-41.160000	212.100006	-3.780000	811.00	-0.34	-0.04	0.00	0.00	0.00	0.00	0.00	0.00	0.00	0.75	6.50	9.25	10.25	9.75	8.50	11.25	5.25	8.00	-1.154297	0.571777	2.178223	-5.250000	518.280029	-129.710007	671.00	0.27	-0.08
3.53	23.75	24.00	14.00	16.50	1.50	1.25	0.00	0.00	0.00	0.00	0.25	0.00	0.25	0.50	0.00	0.00	-0.476562	-0.393555	1.754883	-9.870000	184.940002	-4.830000	843.00	-0.34	-0.05	0.00	0.00	0.00	0.00	0.00	0.00	0.00	0.25	5.75	8.00	8.75	8.00	7.25	8.75	3.25	5.75	-1.912109	0.913086	2.679688	11.760000	543.270020	-126.980003	541.00	0.27	-0.07
3.54	23.50	24.25	14.50	17.75	1.75	2.00	0.00	0.00	0.00	0.00	0.00	0.00	0.50	0.50	0.00	0.00	-0.347168	-0.111328	1.280762	19.180000	154.979996	-23.520000	873.00	-0.34	-0.05	0.00	0.00	0.00	0.00	0.00	0.00	0.00	0.50	5.00	6.25	6.25	6.00	5.00	7.00	2.00	3.25	-2.577637	0.994141	3.637695	55.580002	545.229980	-105.629997	409.00	0.26	-0.06
3.55	23.00	24.75	15.25	18.50	2.50	3.00	0.00	0.25	0.00	0.00	0.25	0.00	0.25	0.50	0.00	0.00	-0.388184	0.464355	1.244629	30.170000	139.580002	-29.330000	912.00	-0.33	-0.06	0.00	0.00	0.00	0.00	0.00	0.00	0.00	0.00	3.00	4.00	3.50	4.00	2.25	5.25	1.00	1.25	-1.036133	1.036133	3.283691	119.279999	483.350006	-125.230003	241.00	0.27	-0.03
3.56	23.25	24.75	15.75	19.50	3.00	4.25	0.00	0.50	0.00	0.00	0.25	0.25	0.50	0.50	0.00	0.00	-0.446777	0.618164	1.392578	-10.080000	117.040001	-18.200001	959.00	-0.32	-0.06	0.00	0.00	0.00	0.00	0.00	0.00	0.00	0.00	1.00	2.00	2.00	2.50	1.00	3.00	0.00	0.75	0.313477	0.975586	3.233887	129.080002	435.679993	-172.270004	120.00	0.27	-0.05
3.57	23.00	24.50	16.00	19.75	3.75	4.75	0.25	0.75	0.00	0.00	0.25	0.00	0.50	0.75	0.00	0.00	-0.354980	0.064941	1.193359	-40.740002	68.669998	-5.320000	980.00	-0.31	-0.06	0.00	0.00	0.00	0.00	0.00	0.00	0.00	0.00	0.75	1.00	1.00	1.50	0.75	1.00	0.00	0.50	1.206055	1.091309	3.025879	131.180008	410.480011	-221.550003	64.00	0.25	-0.08
3.58	22.75	24.25	16.00	20.00	4.25	5.50	0.25	0.75	0.00	0.00	0.25	0.00	0.50	0.25	0.00	0.00	-0.297852	0.216309	0.998047	-36.750000	49.349998	-4.620000	987.00	-0.32	-0.06	0.00	0.00	0.00	0.00	0.00	0.00	0.00	0.00	0.00	0.50	1.00	1.00	0.00	0.00	0.00	0.00	1.236816	1.819824	2.197266	124.669998	422.450012	-257.529999	26.00	0.00	0.00
3.59	22.75	24.25	15.75	19.50	4.50	5.50	0.25	0.75	0.25	0.00	0.00	0.25	0.50	0.75	0.00	0.00	-0.290527	0.095703	1.034180	-32.900002	39.340000	-1.610000	989.00	-0.31	-0.06	0.00	0.00	0.00	0.00	0.00	0.00	0.00	0.00	0.00	0.75	0.50	0.50	0.00	0.00	0.00	0.00	1.031250	2.222656	5.429199	103.739998	230.089996	-211.750000	18.00	0.00	0.00
3.60	22.50	23.75	16.25	19.50	4.50	5.50	0.25	0.75	0.25	0.00	0.25	0.25	0.50	0.25	0.00	0.00	-0.271973	0.093262	1.003906	-26.040001	30.309999	-2.450000	986.00	-0.31	-0.06	0.00	0.00	0.00	0.00	0.00	0.00	0.00	0.00	0.00	0.50	0.50	0.50	0.00	0.00	0.00	0.00	1.338379	1.963379	4.413574	88.690002	-27.370001	-120.050003	16.00	0.00	0.00
3.61	21.75	23.25	15.50	19.00	5.00	5.75	0.25	0.75	0.25	0.00	0.25	0.00	0.75	0.25	0.00	0.00	-0.238281	0.137695	0.922363	-20.930000	26.110001	-2.940000	968.00	-0.31	-0.06	0.00	0.00	0.00	0.00	0.00	0.00	0.00	0.00	0.00	0.50	0.50	0.50	0.00	0.00	0.00	0.00	1.169922	0.916992	2.631836	29.889999	-193.550003	-37.869999	16.00	0.00	0.00
3.62	20.75	22.75	15.25	18.25	4.50	5.75	0.25	0.75	0.25	0.25	0.25	0.00	0.50	0.50	0.00	0.00	-0.234375	0.095703	0.949707	-18.830000	26.040001	-3.220000	939.00	-0.31	-0.06	0.00	0.00	0.00	0.00	0.00	0.00	0.00	0.00	0.00	0.50	0.25	0.00	0.00	0.00	0.00	0.00	0.975098	0.512207	1.550293	-55.230000	-244.369995	6.510000	8.00	0.00	0.00
3.63	20.00	21.50	14.75	17.50	4.75	5.50	0.25	1.00	0.25	0.00	0.25	0.00	0.50	0.50	0.00	0.00	-0.227051	0.114746	0.908691	-15.960000	25.830000	-4.410000	907.00	-0.30	-0.06	0.00	0.00	0.00	0.00	0.00	0.00	0.00	0.00	0.00	0.00	0.00	0.00	0.00	0.00	0.00	0.00	0.901855	0.617676	1.131348	-109.480003	-239.399994	22.120001	0.00	0.00	0.00
3.64	18.50	20.25	13.75	16.75	4.75	5.50	0.50	1.00	0.00	0.25	0.25	0.00	0.50	0.25	0.00	0.00	-0.233398	0.116211	0.905762	-17.080000	27.860001	-5.110000	862.00	-0.30	-0.07	0.00	0.00	0.00	0.00	0.00	0.00	0.00	0.00	0.00	0.25	0.00	0.00	0.00	0.00	0.00	0.00	0.869141	0.745605	1.154297	-92.330002	-240.520004	31.080000	3.00	0.00	0.00
3.65	17.75	19.25	13.00	16.00	4.50	5.50	0.25	1.00	0.50	0.25	0.25	0.25	0.50	0.00	0.00	0.00	-0.250000	0.088379	0.937012	-19.389999	30.170000	-5.670000	828.00	-0.30	-0.07	0.00	0.00	0.00	0.00	0.00	0.00	0.00	0.00	0.00	0.25	0.00	0.00	0.00	0.00	0.00	0.00	0.782715	0.654785	1.375977	-24.219999	-267.470001	40.950001	3.00	0.00	0.00
3.66	16.25	18.00	12.25	15.00	4.50	5.25	0.25	1.00	0.50	0.25	0.50	0.25	0.75	0.50	0.00	0.00	-0.262207	0.091797	0.955566	-21.490000	28.980000	-6.230000	788.00	-0.29	-0.07	0.00	0.00	0.00	0.00	0.00	0.00	0.00	0.00	0.00	0.25	0.00	0.00	0.00	0.00	0.00	0.00	0.627930	0.340820	1.485840	45.500000	-311.149994	51.240002	3.00	0.00	0.00
3.67	15.00	16.50	11.75	14.00	4.75	5.25	0.50	1.25	0.75	0.25	0.50	0.50	0.75	0.75	0.00	0.00	-0.252441	0.105469	0.932617	-24.290001	28.070000	-6.860000	764.00	-0.28	-0.07	0.00	0.00	0.00	0.00	0.00	0.00	0.00	0.00	0.00	0.00	0.00	0.00	0.00	0.00	0.00	0.00	0.402832	-0.027344	1.443848	75.949997	-353.290009	60.060001	0.00	0.00	0.00
3.68	13.75	14.75	10.75	12.50	4.75	5.50	0.50	1.25	0.25	0.25	0.50	0.50	1.25	0.75	0.00	0.00	-0.259766	0.087891	0.958008	-25.690001	25.340000	-7.350000	707.00	-0.27	-0.07	0.00	0.00	0.00	0.00	0.00	0.00	0.00	0.00	0.00	0.00	0.00	0.00	0.00	0.00	0.00	0.00	0.176758	-0.214844	1.297363	61.740002	-382.480011	68.040001	0.00	0.00	0.00
3.69	11.75	13.25	10.00	12.00	4.75	5.25	0.50	1.50	1.25	0.75	0.75	0.75	1.25	1.00	0.00	0.00	-0.297363	0.081543	0.997070	-25.480000	21.280001	-7.630000	686.00	-0.24	-0.07	0.00	0.00	0.00	0.00	0.00	0.00	0.00	0.00	0.00	0.00	0.00	0.00	0.00	0.00	0.00	0.00	0.004883	-0.260254	1.205566	26.389999	-396.480011	75.529999	0.00	0.00	0.00
3.70	10.75	12.25	9.50	10.75	4.50	5.25	0.75	1.50	1.25	0.75	0.75	0.75	1.50	0.75	0.00	0.00	-0.276855	0.070312	0.958496	-21.070000	14.700000	-8.120000	648.00	-0.24	-0.07	0.00	0.00	0.00	0.00	0.00	0.00	0.00	0.00	0.00	0.00	0.00	0.00	0.00	0.00	0.00	0.00	-0.067383	-0.210938	1.139160	-3.990000	-401.589996	81.340004	0.00	0.00	0.00
