# time	left pressure 1[N/cm²]	left pressure 2[N/cm²]	left pressure 3[N/cm²]	left pressure 4[N/cm²]	left pressure 5[N/cm²]	left pressure 6[N/cm²]	left pressure 7[N/cm²]	left pressure 8[N/cm²]	left pressure 9[N/cm²]	left pressure 10[N/cm²]	left pressure 11[N/cm²]	left pressure 12[N/cm²]	left pressure 13[N/cm²]	left pressure 14[N/cm²]	left pressure 15[N/cm²]	left pressure 16[N/cm²]	left acceleration X[g]	left acceleration Y[g]	left acceleration Z[g]	left angular X[dps]	left angular Y[dps]	left angular Z[dps]	left total force[N]	left center of pressure X[%]	left center of pressure Y[%]	right pressure 1[N/cm²]	right pressure 2[N/cm²]	right pressure 3[N/cm²]	right pressure 4[N/cm²]	right pressure 5[N/cm²]	right pressure 6[N/cm²]	right pressure 7[N/cm²]	right pressure 8[N/cm²]	right pressure 9[N/cm²]	right pressure 10[N/cm²]	right pressure 11[N/cm²]	right pressure 12[N/cm²]	right pressure 13[N/cm²]	right pressure 14[N/cm²]	right pressure 15[N/cm²]	right pressure 16[N/cm²]	right acceleration X[g]	right acceleration Y[g]	right acceleration Z[g]	right angular X[dps]	right angular Y[dps]	right angular Z[dps]	right total force[N]	right center of pressure X[%]	right center of pressure Y[%]
0.00	3.50	5.50	2.00	3.50	1.75	0.75	0.25	0.50	1.25	1.00	0.50	0.25	1.75	2.00	0.00	0.25	-0.299316	0.121094	0.916504	-2.520000	5.250000	1.330000	278.00	-0.15	-0.06	0.50	0.25	0.75	0.75	2.00	0.25	0.00	0.25	5.00	7.75	8.25	4.75	6.00	4.75	2.00	2.25	-0.237793	0.130859	0.939453	-3.360000	0.140000	-0.070000	503.00	0.20	-0.06
0.01	3.75	5.50	2.00	3.75	1.75	0.25	0.25	0.25	1.25	1.00	0.25	0.25	2.00	1.75	0.00	0.25	-0.294434	0.121582	0.912598	-2.590000	5.460000	1.470000	271.00	-0.16	-0.05	0.50	0.25	0.75	0.50	2.00	0.50	0.00	0.25	5.00	8.00	8.25	4.50	6.00	5.00	2.00	2.50	-0.233887	0.134277	0.942871	-3.220000	0.070000	-0.000000	507.00	0.21	-0.05
0.02	3.75	5.75	2.00	3.75	1.75	0.25	0.25	0.25	0.75	1.00	0.50	0.25	2.25	1.75	0.00	0.25	-0.300781	0.125977	0.919434	-2.590000	5.600000	1.470000	272.00	-0.17	-0.07	0.25	0.25	0.75	0.75	2.00	0.25	0.00	0.00	5.00	7.75	8.25	4.75	5.75	4.50	2.00	2.25	-0.240723	0.134277	0.938965	-3.220000	-0.070000	0.140000	492.00	0.21	-0.05
0.03	3.75	5.75	1.75	3.50	1.75	0.50	0.25	0.25	1.00	0.75	0.25	0.25	2.25	1.75	0.00	0.25	-0.302246	0.122070	0.910156	-2.660000	5.600000	1.470000	266.00	-0.17	-0.07	0.25	0.25	1.00	0.75	2.00	0.00	0.00	0.25	5.00	7.75	8.25	4.75	6.00	4.75	1.75	2.25	-0.234863	0.127930	0.945801	-3.220000	-0.280000	0.210000	498.00	0.20	-0.05
0.04	3.75	5.75	2.00	3.50	1.75	0.50	0.25	0.00	1.00	0.75	0.50	0.25	1.50	1.75	0.00	0.25	-0.302246	0.122070	0.910156	-2.660000	5.600000	1.470000	261.00	-0.18	-0.05	0.50	0.00	1.00	0.50	2.00	0.25	0.00	0.00	5.00	8.00	8.25	5.00	6.00	4.50	1.25	2.50	-0.234863	0.127930	0.945801	-3.220000	-0.280000	0.210000	493.00	0.20	-0.05
0.05	3.50	5.75	2.00	3.75	1.75	0.75	0.25	0.25	1.00	0.75	0.25	0.25	2.00	1.75	0.00	0.25	-0.297852	0.119141	0.917969	-2.800000	5.670000	1.470000	270.00	-0.17	-0.07	0.25	0.00	0.75	0.75	2.00	0.50	0.00	0.25	5.00	8.00	8.25	5.00	6.00	4.75	1.75	2.25	-0.237305	0.134766	0.931152	-3.360000	-0.350000	0.280000	504.00	0.21	-0.06
0.06	3.75	5.75	2.00	3.75	1.75	0.25	0.25	0.00	1.00	1.00	0.00	0.25	2.00	1.75	0.00	0.25	-0.301758	0.118652	0.915039	-2.800000	5.460000	1.470000	263.00	-0.17	-0.05	0.50	0.25	0.75	0.75	2.00	0.50	0.00	0.00	5.00	7.75	8.25	4.75	6.25	4.50	1.75	2.50	-0.241211	0.128906	0.939941	-3.360000	-0.350000	0.420000	501.00	0.20	-0.06
0.07	3.75	6.00	1.50	3.50	1.75	0.75	0.25	0.00	1.00	0.50	0.75	0.50	1.50	1.25	0.00	0.25	-0.296875	0.119629	0.915527	-2.940000	5.320000	1.470000	259.00	-0.18	-0.06	1.00	0.25	1.00	0.75	2.00	0.50	0.00	0.25	5.00	7.75	8.00	4.75	6.00	4.25	1.50	2.50	-0.231934	0.132324	0.947754	-3.430000	-0.350000	0.280000	503.00	0.19	-0.06
0.08	3.50	5.75	1.75	3.50	1.75	0.50	0.25	0.00	1.25	0.75	0.50	0.25	2.00	1.50	0.00	0.25	-0.298340	0.119629	0.922852	-3.010000	5.250000	1.470000	261.00	-0.16	-0.06	0.25	0.00	0.50	0.75	2.00	0.50	0.00	0.25	5.00	7.75	8.50	4.75	6.25	4.50	1.75	2.00	-0.231445	0.128418	0.939453	-3.500000	-0.350000	0.140000	496.00	0.21	-0.06
0.09	4.00	5.75	2.00	4.00	1.75	0.50	0.25	0.00	1.25	0.75	0.25	0.25	2.00	1.25	0.00	0.25	-0.294922	0.124023	0.914062	-3.010000	5.320000	1.400000	271.00	-0.18	-0.06	0.50	0.25	0.75	0.75	2.00	0.25	0.00	0.25	5.00	8.00	8.25	4.75	6.00	4.25	1.50	2.25	-0.234863	0.135742	0.952148	-3.500000	-0.210000	0.140000	496.00	0.20	-0.06
0.10	4.00	5.75	1.75	3.50	1.50	0.50	0.25	0.00	1.00	1.00	0.25	0.00	1.50	1.25	0.00	0.00	-0.299805	0.120117	0.911621	-2.730000	5.040000	1.400000	249.00	-0.20	-0.05	0.75	0.25	1.00	1.00	2.25	0.50	0.00	0.25	5.00	8.00	8.25	4.75	6.00	4.25	1.50	2.25	-0.236816	0.129395	0.944336	-3.570000	-0.560000	0.140000	511.00	0.19	-0.06
0.11	3.75	5.75	2.00	3.50	1.75	0.25	0.25	0.00	0.75	1.00	0.25	0.25	1.50	1.50	0.00	0.00	-0.298828	0.117676	0.918945	-2.730000	5.040000	1.330000	251.00	-0.19	-0.05	0.50	0.25	0.75	0.75	2.25	0.50	0.00	0.25	5.00	7.75	8.25	4.50	6.00	4.25	1.75	2.50	-0.232422	0.128906	0.946289	-3.640000	-0.350000	0.070000	500.00	0.20	-0.06
0.12	4.25	5.75	1.50	3.25	1.50	0.50	0.25	0.00	0.75	1.00	0.25	0.25	1.50	1.50	0.00	0.00	-0.300781	0.119629	0.913574	-2.870000	5.110000	1.400000	247.00	-0.19	-0.05	1.25	0.50	0.75	0.50	2.25	0.25	0.00	0.25	5.00	7.75	8.25	4.50	5.50	4.50	2.00	2.00	-0.236328	0.131836	0.951172	-3.710000	-0.350000	0.070000	503.00	0.19	-0.05
0.13	4.00	5.75	1.75	3.50	1.75	0.00	0.25	0.00	1.00	0.75	0.75	0.25	1.50	1.75	0.00	0.25	-0.297363	0.121582	0.911621	-3.010000	4.970000	1.330000	258.00	-0.17	-0.04	0.00	0.00	0.25	0.75	2.25	0.00	0.00	0.25	5.00	7.75	8.25	4.50	5.75	4.25	1.50	2.00	-0.238770	0.125488	0.945801	-3.430000	-0.280000	0.280000	472.00	0.22	-0.05
0.14	4.00	5.75	1.75	3.75	1.75	0.50	0.25	0.00	0.75	0.75	0.25	0.25	2.00	1.25	0.00	0.00	-0.296387	0.119141	0.917480	-3.010000	4.900000	1.330000	256.00	-0.20	-0.06	0.75	0.25	1.00	1.75	2.75	1.50	0.25	0.75	5.00	8.00	8.25	4.50	6.00	4.25	1.75	2.25	-0.232422	0.131836	0.942383	-3.360000	0.140000	0.140000	550.00	0.17	-0.06
0.15	3.75	6.00	1.75	3.75	1.75	0.25	0.25	0.00	1.00	0.75	0.50	0.25	2.00	1.25	0.00	0.25	-0.301270	0.121094	0.916016	-3.010000	4.830000	1.400000	261.00	-0.18	-0.06	0.00	0.00	0.25	0.25	2.00	0.00	0.00	0.00	5.00	7.75	8.25	4.25	5.25	4.50	2.00	2.50	-0.233887	0.128906	0.946289	-3.220000	0.420000	0.140000	462.00	0.23	-0.05
0.16	4.00	6.00	1.75	4.00	1.75	0.50	0.25	0.00	0.75	0.75	0.50	0.00	1.50	1.50	0.00	0.25	-0.300293	0.122070	0.921875	-2.940000	5.040000	1.400000	261.00	-0.20	-0.06	1.75	1.00	1.75	1.75	2.75	1.50	0.25	1.00	6.50	9.00	9.75	6.75	7.00	5.75	3.00	3.50	-0.237305	0.126465	0.947754	-3.290000	0.490000	-0.000000	703.00	0.16	-0.06
0.17	4.00	5.75	2.00	3.75	1.75	0.25	0.25	0.25	1.00	0.50	0.25	0.25	1.75	1.25	0.00	0.00	-0.303223	0.118652	0.917480	-2.870000	5.250000	1.400000	259.00	-0.20	-0.06	1.75	1.00	1.00	0.25	2.00	0.00	0.00	0.00	5.50	8.25	8.75	5.50	6.00	5.50	2.75	3.00	-0.232422	0.136719	0.949707	-3.220000	0.560000	0.140000	562.00	0.19	-0.05
0.18	4.25	6.25	1.75	4.00	1.75	0.25	0.25	0.00	0.75	1.00	0.25	0.00	1.50	1.25	0.00	0.25	-0.298340	0.120605	0.920410	-2.730000	5.460000	1.470000	261.00	-0.21	-0.05	1.75	1.25	2.00	1.75	2.75	1.25	0.25	1.00	6.50	9.25	9.75	6.75	6.75	5.75	2.75	3.25	-0.231934	0.127441	0.946289	-3.150000	0.840000	0.070000	702.00	0.16	-0.06
0.19	4.75	6.25	2.00	4.00	1.75	0.50	0.25	0.25	1.00	1.00	0.00	0.00	1.25	1.00	0.00	0.25	-0.300293	0.123535	0.920898	-2.730000	5.530000	1.470000	272.00	-0.22	-0.05	1.75	1.00	1.75	2.00	3.00	1.50	0.25	0.75	6.50	9.00	9.50	6.50	6.75	5.75	2.75	2.75	-0.240723	0.133789	0.947266	-3.150000	1.050000	0.070000	690.00	0.16	-0.06
0.20	4.50	6.25	2.00	4.25	1.75	0.50	0.25	0.25	0.75	0.75	0.25	0.00	1.50	1.00	0.00	0.25	-0.298340	0.122070	0.910645	-2.590000	4.900000	1.470000	271.00	-0.22	-0.06	1.75	1.00	1.50	1.75	2.75	1.25	0.25	0.75	6.25	9.00	9.50	6.50	6.50	5.75	2.75	3.25	-0.237305	0.134766	0.941895	-3.290000	0.980000	0.070000	675.00	0.16	-0.06
0.21	4.25	6.50	1.75	4.25	1.50	0.50	0.25	0.00	1.00	0.75	0.25	0.00	1.75	1.25	0.00	0.25	-0.302246	0.118652	0.917480	-2.520000	4.620000	1.470000	269.00	-0.21	-0.06	1.00	0.50	1.00	1.00	2.25	0.25	0.00	0.25	5.50	8.25	8.75	5.25	5.75	5.25	1.25	2.00	-0.229980	0.131348	0.940918	-3.710000	0.350000	-0.070000	537.00	0.19	-0.05
0.22	4.00	6.50	1.75	4.25	1.50	0.50	0.25	0.25	0.75	1.00	0.75	0.00	1.75	1.50	0.00	0.00	-0.300293	0.119629	0.913574	-2.380000	4.340000	1.470000	276.00	-0.19	-0.07	1.75	1.00	1.75	1.25	2.25	0.50	0.00	0.25	5.50	8.25	8.75	5.25	5.50	5.00	1.25	2.00	-0.235840	0.128906	0.943359	-3.710000	0.210000	-0.140000	561.00	0.16	-0.04
0.23	4.25	6.50	1.75	4.25	1.50	0.75	0.25	0.25	1.00	1.00	0.50	0.25	2.00	1.25	0.00	0.25	-0.300781	0.125977	0.913574	-2.310000	4.130000	1.540000	287.00	-0.19	-0.07	0.75	0.50	1.00	1.00	2.50	0.25	0.00	0.00	5.50	8.25	8.75	5.00	5.50	5.00	1.50	2.00	-0.231934	0.133301	0.943359	-3.780000	-0.070000	-0.070000	528.00	0.19	-0.04
0.24	4.25	7.25	2.00	4.00	1.50	0.75	0.25	0.25	1.25	0.75	0.50	0.25	2.00	1.00	0.00	0.00	-0.300781	0.123047	0.917969	-2.310000	3.850000	1.470000	292.00	-0.20	-0.07	0.50	0.25	1.00	1.00	2.50	0.50	0.00	0.25	5.50	8.25	8.50	5.00	5.50	5.25	1.25	1.75	-0.234375	0.126953	0.949219	-3.710000	-0.140000	0.140000	525.00	0.19	-0.04
0.25	4.25	7.00	2.00	4.25	1.50	1.00	0.25	0.25	1.00	0.75	0.50	0.25	1.75	1.25	0.00	0.25	-0.299316	0.122070	0.922852	-2.310000	3.710000	1.540000	293.00	-0.20	-0.07	0.00	0.75	1.75	1.00	2.25	0.25	0.00	0.00	5.25	8.00	8.50	4.75	5.50	5.00	1.25	1.75	-0.239746	0.128906	0.944824	-3.500000	0.070000	0.210000	512.00	0.19	-0.04
0.26	4.75	7.00	2.00	4.50	1.75	1.00	0.25	0.00	1.00	0.75	0.50	0.00	1.75	1.00	0.00	0.00	-0.292480	0.122559	0.916504	-2.310000	3.920000	1.610000	294.00	-0.22	-0.06	0.50	0.25	1.00	1.25	2.50	0.50	0.00	0.25	5.25	8.00	8.50	5.00	5.25	5.00	1.25	1.75	-0.241699	0.135742	0.948730	-3.360000	0.280000	0.280000	517.00	0.19	-0.05
0.27	4.50	7.25	2.00	4.75	1.75	0.75	0.25	0.25	1.00	0.75	0.25	0.25	2.00	1.00	0.00	0.25	-0.298828	0.120117	0.919434	-2.520000	4.340000	1.540000	302.00	-0.21	-0.08	0.50	0.50	0.75	0.75	2.50	0.50	0.00	0.00	5.25	7.75	8.25	4.50	5.50	5.00	1.50	1.50	-0.237305	0.130371	0.950684	-3.220000	0.490000	0.210000	499.00	0.19	-0.04
0.28	4.50	7.00	2.00	4.75	1.50	1.00	0.25	0.25	1.00	0.50	0.50	0.00	2.00	1.00	0.00	0.25	-0.300293	0.120605	0.917969	-2.450000	4.690000	1.540000	296.00	-0.21	-0.08	0.75	0.50	1.50	1.00	2.75	0.50	0.00	0.25	5.00	7.75	8.25	4.25	5.50	4.75	1.25	1.50	-0.230469	0.128418	0.943359	-3.150000	0.490000	0.280000	509.00	0.17	-0.04
0.29	4.75	7.25	1.75	4.50	1.50	1.00	0.25	0.50	0.75	0.75	0.50	0.25	2.00	1.25	0.00	0.25	-0.299805	0.119141	0.916504	-2.380000	4.830000	1.540000	304.00	-0.20	-0.09	1.00	0.50	1.00	1.00	2.50	0.50	0.00	0.00	5.00	7.75	8.25	4.50	5.50	4.50	1.25	1.50	-0.230957	0.125977	0.945801	-3.220000	0.420000	0.280000	499.00	0.18	-0.05
0.30	4.50	7.25	1.75	4.75	1.50	0.75	0.25	0.25	0.75	1.00	0.50	0.50	2.25	0.75	0.00	0.00	-0.299316	0.123535	0.915039	-2.170000	5.040000	1.610000	299.00	-0.21	-0.09	1.00	0.75	1.25	1.50	2.50	0.75	0.00	0.25	5.00	7.50	8.25	4.25	5.25	4.25	1.25	1.50	-0.244141	0.132812	0.944824	-3.080000	0.560000	0.280000	508.00	0.16	-0.05
0.31	4.50	7.50	1.75	5.00	1.50	1.25	0.25	0.50	0.75	1.00	0.25	0.00	1.50	0.75	0.00	0.00	-0.295898	0.119141	0.909180	-2.030000	5.320000	1.680000	299.00	-0.23	-0.09	1.25	0.50	1.50	1.25	2.50	0.50	0.00	0.25	5.00	7.50	7.75	4.00	5.25	4.25	0.75	1.50	-0.236816	0.128418	0.943848	-3.150000	0.630000	0.210000	491.00	0.16	-0.04
0.32	4.75	7.25	1.75	4.75	1.50	1.00	0.25	0.25	0.75	0.50	0.25	0.25	1.75	1.00	0.00	0.00	-0.301270	0.120117	0.912109	-1.960000	5.250000	1.680000	291.00	-0.23	-0.08	0.75	0.75	1.25	1.25	2.50	0.75	0.00	0.00	5.00	7.25	7.75	4.00	5.00	3.75	0.75	1.25	-0.240723	0.131836	0.948242	-3.220000	0.840000	0.140000	472.00	0.16	-0.04
0.33	4.50	7.50	1.50	5.00	1.50	1.00	0.25	0.50	1.00	1.00	0.25	0.50	1.75	0.75	0.00	0.25	-0.299316	0.119141	0.919922	-2.030000	4.970000	1.610000	306.00	-0.21	-0.09	3.00	2.00	2.75	2.75	3.50	1.75	0.25	0.00	5.00	8.00	8.50	5.25	5.75	3.75	1.00	2.00	-0.230469	0.129395	0.950195	-3.220000	0.910000	0.140000	620.00	0.09	-0.05
0.34	4.75	7.50	2.25	5.00	1.25	1.25	0.25	0.25	0.75	0.50	0.50	0.50	2.00	0.75	0.00	0.25	-0.293457	0.124023	0.922363	-2.030000	4.550000	1.540000	310.00	-0.22	-0.09	1.75	1.25	2.00	2.00	2.75	0.25	0.00	0.00	4.75	6.50	7.50	3.50	5.00	3.75	1.00	1.25	-0.315430	0.083984	0.615723	-2.380000	5.040000	-0.280000	486.00	0.13	-0.04
0.35	5.00	7.75	1.50	5.00	1.50	1.25	0.25	0.50	1.00	1.00	0.50	0.50	2.25	0.75	0.00	0.00	-0.299316	0.122070	0.919434	-2.030000	4.130000	1.610000	324.00	-0.21	-0.09	3.50	2.25	1.50	1.50	3.25	2.25	0.25	1.25	5.50	7.50	8.00	4.75	6.00	5.00	2.00	1.00	-0.234863	0.128418	0.965820	-3.220000	1.890000	0.210000	631.00	0.11	-0.06
0.36	4.75	7.75	2.00	5.25	1.50	1.25	0.25	0.50	0.75	1.00	0.50	0.25	2.00	0.75	0.00	0.00	-0.296387	0.124512	0.914551	-2.170000	3.990000	1.680000	321.00	-0.22	-0.09	1.75	1.25	1.50	1.75	2.50	0.75	0.00	0.00	3.75	5.75	6.50	3.00	4.50	3.25	0.50	0.75	-0.229004	0.129883	0.944336	-3.780000	0.490000	0.490000	421.00	0.11	-0.05
0.37	4.50	7.75	1.50	5.00	1.50	1.25	0.25	0.50	1.25	1.00	0.50	0.75	2.25	1.00	0.00	0.00	-0.299805	0.122559	0.918457	-2.240000	3.570000	1.540000	327.00	-0.19	-0.09	2.00	1.25	1.50	1.75	2.50	1.00	0.00	0.00	3.75	5.50	6.25	2.50	4.25	3.00	0.75	0.75	-0.248047	0.136230	0.945312	-3.780000	0.210000	0.630000	414.00	0.11	-0.04
0.38	5.00	7.75	1.50	5.25	1.50	1.75	0.25	0.75	1.00	1.25	0.50	0.50	2.25	0.75	0.00	0.25	-0.300293	0.125977	0.928711	-2.170000	3.430000	1.540000	341.00	-0.20	-0.10	1.50	1.00	2.00	2.75	3.50	2.25	0.25	1.00	5.00	6.50	7.00	3.75	5.50	4.50	2.00	2.00	-0.230957	0.130371	0.947266	-3.920000	-0.140000	0.770000	571.00	0.12	-0.06
0.39	5.00	7.75	2.00	5.25	1.25	1.75	0.25	0.50	1.00	0.75	0.75	0.25	2.25	0.75	0.00	0.50	-0.301270	0.124512	0.921875	-2.100000	3.290000	1.540000	336.00	-0.21	-0.10	1.75	1.75	1.50	2.50	2.75	1.00	0.00	0.25	4.50	5.75	6.25	3.25	5.00	3.50	1.50	1.25	-0.159668	0.123535	0.683594	-2.940000	1.540000	0.630000	478.00	0.11	-0.05
0.40	5.00	8.00	1.75	5.00	1.50	1.75	0.25	0.75	1.25	1.25	0.50	0.50	2.25	0.75	0.00	0.00	-0.302246	0.124023	0.916992	-2.030000	3.430000	1.540000	346.00	-0.20	-0.09	1.25	1.25	1.25	1.75	2.50	0.75	0.00	0.00	3.25	4.25	5.00	2.25	3.75	2.00	0.25	0.50	-0.229004	0.122559	0.957520	-3.570000	0.630000	0.350000	340.00	0.09	-0.05
0.41	4.75	7.75	1.75	5.50	1.50	1.75	0.25	0.75	1.00	1.00	0.75	0.25	2.50	1.00	0.00	0.00	-0.302246	0.123047	0.917969	-2.030000	3.780000	1.540000	344.00	-0.20	-0.10	1.75	2.00	2.00	2.50	3.00	1.75	0.25	0.50	4.25	5.25	5.75	3.00	5.00	3.25	1.50	1.25	-0.227539	0.128906	0.949707	-3.920000	-0.140000	0.280000	486.00	0.09	-0.06
0.42	5.25	8.00	2.00	5.25	1.50	2.00	0.25	0.75	1.00	0.75	0.75	0.50	2.50	0.50	0.00	0.25	-0.298340	0.127930	0.920410	-2.170000	4.270000	1.400000	353.00	-0.21	-0.10	3.00	2.75	2.75	2.75	3.25	1.50	0.00	0.00	3.50	4.25	4.50	2.00	3.75	2.00	0.50	0.50	-0.235352	0.134766	0.945801	-3.710000	0.070000	0.210000	421.00	0.02	-0.04
0.43	5.25	8.00	2.00	5.25	1.25	1.50	0.25	0.75	1.00	1.25	0.50	0.25	2.25	0.75	0.00	0.00	-0.298340	0.123047	0.914062	-2.170000	4.760000	1.470000	342.00	-0.21	-0.09	2.50	2.25	2.00	2.25	2.75	0.75	0.00	0.00	2.50	4.00	4.25	2.00	3.00	2.00	0.25	0.25	-0.237305	0.132812	0.945312	-3.360000	0.490000	0.210000	348.00	0.03	-0.04
0.44	5.00	8.25	1.75	5.50	1.50	1.75	0.25	0.75	1.25	1.25	0.50	0.00	2.25	0.75	0.00	0.25	-0.292480	0.124023	0.913086	-2.170000	5.180000	1.400000	350.00	-0.20	-0.09	2.25	2.00	2.00	2.25	2.75	1.00	0.00	0.00	3.00	4.00	4.25	1.75	3.50	2.00	0.25	0.75	-0.234375	0.127441	0.940918	-3.290000	0.420000	0.210000	358.00	0.04	-0.05
0.45	5.00	8.25	1.75	5.25	1.25	1.75	0.25	0.50	1.00	1.00	0.50	0.25	2.25	0.75	0.00	0.00	-0.299805	0.127930	0.918457	-2.170000	5.670000	1.330000	335.00	-0.21	-0.10	3.25	2.00	2.25	2.50	2.75	1.00	0.00	0.00	3.00	4.00	4.25	1.75	3.75	1.75	0.25	0.50	-0.237305	0.134277	0.938965	-3.500000	0.000000	0.210000	374.00	0.02	-0.04
0.46	5.00	8.00	2.00	5.25	1.50	1.50	0.25	0.50	1.00	1.25	0.50	0.25	2.25	0.75	0.00	0.00	-0.301758	0.118652	0.918457	-2.240000	6.020000	1.400000	338.00	-0.21	-0.09	1.75	1.50	1.75	2.75	2.75	1.00	0.25	0.00	3.00	4.00	4.25	2.00	3.50	1.75	0.50	0.25	-0.231934	0.130371	0.945312	-3.570000	-0.350000	0.280000	355.00	0.05	-0.05
0.47	4.75	8.00	2.00	5.50	1.50	1.75	0.25	0.50	0.75	1.25	0.50	0.25	2.25	0.75	0.00	0.25	-0.299316	0.119629	0.916992	-2.240000	6.020000	1.260000	339.00	-0.21	-0.10	2.75	2.25	2.25	2.75	3.00	1.25	0.00	0.00	3.25	4.00	3.75	1.75	3.75	2.00	0.50	0.25	-0.240234	0.131348	0.943848	-3.780000	-0.560000	0.210000	381.00	0.02	-0.04
0.48	5.00	8.00	1.75	5.25	1.50	1.25	0.25	0.50	1.00	0.75	0.75	0.50	2.00	0.75	0.00	0.25	-0.299316	0.128418	0.916504	-2.520000	6.160000	1.330000	331.00	-0.21	-0.09	2.75	2.50	2.25	3.00	3.00	1.25	0.00	0.25	3.00	3.75	3.75	1.50	3.75	2.00	0.25	0.50	-0.234863	0.126953	0.934082	-3.990000	-0.840000	0.350000	380.00	0.01	-0.05
0.49	4.75	8.00	1.75	5.25	1.25	1.75	0.25	0.50	1.00	0.75	0.25	0.50	2.25	0.75	0.00	0.25	-0.300293	0.123047	0.924316	-2.940000	6.790000	1.330000	328.00	-0.21	-0.10	3.00	2.75	2.25	3.00	3.25	1.25	0.00	0.00	3.00	3.75	3.75	1.50	3.75	2.00	0.25	1.00	-0.235352	0.129395	0.933594	-4.200000	-1.610000	0.560000	387.00	0.00	-0.05
0.50	4.75	8.00	2.00	5.00	1.25	1.25	0.25	0.25	1.00	1.00	0.25	0.25	1.75	0.75	0.00	0.00	-0.301270	0.119629	0.920410	-3.080000	7.490000	1.260000	312.00	-0.22	-0.08	3.00	2.75	2.50	3.00	3.25	1.50	0.00	0.25	3.75	3.75	3.75	1.75	3.75	2.00	0.00	0.50	-0.232910	0.132324	0.936035	-4.340000	-2.520000	0.630000	405.00	0.00	-0.04
0.51	4.75	7.75	2.00	5.00	1.25	1.00	0.25	0.25	1.00	0.75	0.50	0.00	1.50	0.75	0.00	0.25	-0.300781	0.118652	0.921387	-3.360000	8.330000	1.190000	302.00	-0.23	-0.08	3.00	3.00	3.25	3.25	3.50	2.50	0.25	1.00	3.25	5.00	4.50	3.00	5.50	3.50	1.25	1.25	-0.132324	0.261719	0.997070	-4.410000	-3.150000	1.260000	531.00	0.03	-0.07
0.52	4.75	7.50	2.00	4.50	1.25	0.50	0.25	0.25	0.75	0.75	0.50	0.00	1.25	0.75	0.00	0.00	-0.310547	0.122070	0.925781	-3.360000	9.170000	1.260000	281.00	-0.24	-0.07	3.00	2.75	2.50	3.75	3.50	2.00	0.00	0.50	3.00	4.25	5.00	2.25	5.25	2.75	1.00	0.75	-0.227539	0.128418	0.941406	-4.620000	-3.500000	0.910000	477.00	0.02	-0.07
0.53	4.50	7.50	1.75	4.50	1.25	0.50	0.25	0.00	0.75	0.75	0.25	0.00	1.25	0.75	0.00	0.00	-0.301758	0.127930	0.916992	-3.710000	10.010000	1.120000	268.00	-0.24	-0.07	3.25	3.50	2.50	3.75	3.75	2.25	0.00	0.50	3.25	3.75	3.75	2.00	4.50	2.00	0.25	0.25	-0.232910	0.128418	0.947266	-4.760000	-3.920000	0.770000	448.00	-0.02	-0.07
0.54	4.00	7.00	1.75	4.00	1.25	0.25	0.25	0.00	0.75	0.75	0.00	0.00	1.00	0.75	0.00	0.00	-0.302734	0.123535	0.924316	-4.200000	10.780000	0.980000	243.00	-0.25	-0.06	3.25	3.50	2.75	4.25	4.25	2.25	0.00	0.50	3.25	4.00	4.00	2.00	5.00	2.25	0.75	0.50	-0.231445	0.126953	0.948730	-4.690000	-4.200000	0.700000	483.00	-0.01	-0.07
0.55	4.00	6.75	1.50	3.50	1.25	0.00	0.25	0.00	0.75	0.00	0.00	0.00	0.50	0.75	0.00	0.00	-0.306641	0.121582	0.929199	-4.760000	12.040000	1.050000	215.00	-0.27	-0.05	3.75	3.75	2.75	4.50	4.75	2.75	0.00	0.75	4.25	4.00	4.00	2.00	5.00	3.50	0.25	0.50	-0.225586	0.130371	0.944336	-4.830000	-4.550000	0.630000	530.00	-0.01	-0.06
0.56	3.50	6.50	1.25	2.75	1.00	0.00	0.25	0.00	0.50	0.50	0.00	0.00	0.25	0.50	0.00	0.00	-0.310059	0.123047	0.930664	-5.670000	13.860000	0.840000	189.00	-0.28	-0.05	5.25	5.00	2.75	5.00	5.75	3.00	0.25	1.25	3.50	4.25	4.25	2.50	5.00	2.75	0.50	1.00	-0.215820	0.125000	0.963867	-5.600000	-5.180000	0.770000	593.00	-0.03	-0.07
0.57	2.75	5.75	1.25	2.50	1.00	0.00	0.25	0.00	0.50	0.75	0.00	0.00	0.00	0.75	0.00	0.00	-0.312500	0.125000	0.926270	-6.930000	15.960000	0.700000	173.00	-0.25	-0.04	3.25	5.25	3.75	4.75	5.50	4.75	0.25	1.50	4.25	6.00	5.75	3.00	5.25	2.50	0.25	0.75	-0.215820	0.125000	0.963867	-5.600000	-5.180000	0.770000	653.00	-0.01	-0.08
0.58	2.50	5.75	1.00	2.25	1.00	0.00	0.25	0.00	0.25	0.25	0.00	0.00	0.00	0.50	0.00	0.00	-0.312988	0.122559	0.917969	-8.190000	17.639999	0.560000	153.00	-0.29	-0.05	4.25	5.00	4.00	5.25	6.25	5.00	0.25	1.75	5.00	6.00	6.50	3.75	6.25	4.25	2.00	1.50	-0.225098	0.122070	0.951660	-5.180000	-5.740000	0.560000	766.00	0.01	-0.07
0.59	2.25	5.00	0.75	1.50	0.75	0.00	0.25	0.00	0.00	0.25	0.25	0.00	0.00	0.25	0.00	0.00	-0.315918	0.125000	0.934082	-9.100000	19.460001	0.280000	124.00	-0.30	-0.06	5.25	6.75	3.75	7.25	7.50	6.25	0.50	2.50	5.00	6.50	6.75	3.75	7.25	4.50	2.00	2.00	-0.219727	0.123535	0.952637	-4.620000	-5.530000	0.490000	885.00	-0.01	-0.09
0.60	1.75	4.50	0.75	0.50	0.50	0.00	0.25	0.00	0.00	0.25	0.00	0.00	0.00	0.25	0.00	0.00	-0.322266	0.146973	0.933594	-12.670000	22.330000	-1.680000	96.00	-0.31	-0.04	4.00	6.25	4.50	6.75	7.50	6.00	0.25	2.75	5.25	6.50	7.00	4.00	7.75	4.75	1.75	2.25	-0.220215	0.124512	0.950195	-4.270000	-5.530000	0.560000	881.00	0.00	-0.09
0.61	1.25	3.75	0.50	1.25	0.75	0.00	0.00	0.00	0.00	0.00	0.00	0.00	0.00	0.25	0.00	0.00	-0.332031	0.170410	0.927246	-20.510000	26.389999	-5.390000	84.00	-0.33	-0.08	5.25	7.75	4.00	8.75	8.00	7.25	0.50	3.00	5.25	6.75	7.25	4.25	7.75	4.25	0.75	1.75	-0.225586	0.126953	0.955566	-4.060000	-5.250000	0.630000	947.00	-0.02	-0.10
0.62	1.25	2.75	0.50	0.50	0.25	0.00	0.00	0.00	0.00	0.00	0.00	0.00	0.00	0.00	0.00	0.00	-0.363281	0.178711	0.956055	-31.990000	31.500000	-12.110000	57.00	-0.37	-0.06	6.25	8.00	5.25	9.00	8.00	7.00	0.25	3.25	5.25	6.50	7.25	4.25	7.75	3.75	1.75	1.75	-0.209473	0.124023	0.952148	-3.710000	-4.480000	0.630000	980.00	-0.03	-0.09
0.63	1.00	2.25	0.25	0.00	0.25	0.00	0.00	0.00	0.00	0.00	0.00	0.00	0.00	0.00	0.00	0.00	-0.575195	0.519531	1.108887	-61.389999	16.379999	-50.049999	40.00	0.00	0.00	5.00	7.00	4.25	8.00	7.50	6.50	0.25	2.50	4.00	5.75	6.00	3.25	7.00	3.25	0.50	1.25	-0.218750	0.130371	0.955566	-3.570000	-3.570000	0.560000	826.00	-0.04	-0.10
0.64	0.75	2.00	0.00	0.00	0.00	0.00	0.00	0.00	0.00	0.00	0.00	0.00	0.00	0.00	0.00	0.00	-0.521484	0.706055	1.064453	-70.840004	-0.210000	-70.559998	29.00	0.00	0.00	5.00	6.75	4.00	8.00	7.75	6.50	0.25	2.50	3.75	6.75	6.50	3.00	7.50	3.50	1.25	1.25	-0.218750	0.122070	0.955078	-3.500000	-3.010000	0.490000	850.00	-0.03	-0.10
0.65	0.25	1.75	0.00	0.25	0.25	0.00	0.00	0.00	0.00	0.00	0.00	0.00	0.00	0.00	0.00	0.00	-0.602051	0.987305	1.070801	-80.220001	-6.650000	-79.660004	26.00	0.00	0.00	6.50	9.00	5.50	9.50	9.00	8.00	0.50	4.00	5.50	7.25	7.75	4.50	8.50	5.00	2.25	2.75	-0.219727	0.125977	0.956055	-3.430000	-2.170000	0.420000	1094.00	-0.02	-0.10
0.66	0.25	2.00	0.00	0.00	0.00	0.00	0.00	0.00	0.00	0.00	0.00	0.00	0.00	0.00	0.00	0.00	-0.591797	1.243652	0.892090	-83.300003	-2.030000	-70.629997	23.00	0.00	0.00	6.25	8.75	5.50	9.50	9.25	8.25	0.50	4.00	5.50	7.25	7.75	4.75	8.50	5.00	2.00	2.25	-0.217773	0.119629	0.961426	-3.360000	-1.120000	0.210000	1091.00	-0.02	-0.10
0.67	0.00	1.75	0.00	0.00	0.00	0.00	0.00	0.00	0.00	0.25	0.00	0.00	0.00	0.00	0.00	0.00	-0.469727	1.385742	0.869141	-64.330002	0.140000	-47.040001	20.00	0.00	0.00	6.25	8.75	5.75	9.50	9.25	8.25	0.50	4.25	5.50	7.50	7.75	4.75	8.75	5.00	2.25	2.50	-0.216797	0.123535	0.954102	-3.360000	-0.210000	0.210000	1108.00	-0.02	-0.10
0.68	0.00	1.50	0.00	0.00	0.00	0.00	0.00	0.00	0.00	0.00	0.00	0.00	0.00	0.00	0.00	0.00	-0.393555	1.333984	0.812500	-36.049999	1.610000	-18.900000	15.00	0.00	0.00	6.00	8.50	5.75	9.50	9.00	8.25	0.50	4.00	5.75	7.50	7.75	4.75	8.75	5.00	2.00	2.25	-0.218262	0.126953	0.957520	-3.290000	0.630000	0.070000	1095.00	-0.02	-0.10
0.69	0.00	1.00	0.00	0.00	0.00	0.00	0.00	0.00	0.00	0.00	0.00	0.00	0.00	0.00	0.00	0.00	-0.312500	1.222168	0.724121	-15.120000	6.580000	8.190000	10.00	0.00	0.00	6.25	8.25	5.50	9.50	9.25	8.25	0.50	4.00	5.75	7.50	7.75	5.00	8.50	5.25	2.25	2.50	-0.219238	0.129395	0.955078	-3.150000	1.330000	0.140000	1102.00	-0.02	-0.09
0.70	0.50	0.75	0.00	0.00	0.00	0.00	0.00	0.00	0.00	0.00	0.00	0.00	0.00	0.00	0.00	0.00	-0.245117	1.120605	0.701660	-6.090000	15.330000	33.389999	13.00	0.00	0.00	6.00	8.25	5.50	9.25	9.00	8.00	0.50	4.25	5.50	7.75	7.50	4.75	8.50	5.00	2.00	2.50	-0.217285	0.122070	0.950684	-3.290000	1.610000	-0.140000	1083.00	-0.02	-0.10
0.71	0.00	1.00	0.00	0.00	0.00	0.00	0.00	0.00	0.00	0.00	0.00	0.00	0.00	0.00	0.00	0.00	-0.189941	1.061523	0.748047	-2.170000	23.799999	56.070000	10.00	0.00	0.00	6.00	8.25	5.50	9.25	9.00	8.00	0.50	4.00	5.75	7.50	7.75	4.75	8.50	5.25	2.25	3.00	-0.216797	0.118652	0.947754	-3.220000	1.890000	-0.000000	1090.00	-0.01	-0.09
0.72	0.00	0.50	0.00	0.00	0.00	0.00	0.00	0.00	0.00	0.00	0.00	0.00	0.00	0.00	0.00	0.00	-0.152344	0.992188	0.785645	5.460000	29.469999	76.019997	5.00	0.00	0.00	6.00	7.75	5.50	9.25	8.75	8.00	0.50	3.75	6.00	7.50	7.75	5.00	8.50	5.25	2.25	2.50	-0.219727	0.129883	0.958496	-3.080000	2.030000	0.070000	1082.00	-0.01	-0.09
0.73	0.00	0.75	0.00	0.00	0.00	0.00	0.00	0.00	0.00	0.00	0.00	0.00	0.00	0.00	0.00	0.00	-0.116699	0.884277	0.842285	17.219999	31.710001	92.190002	8.00	0.00	0.00	6.00	7.50	5.50	9.00	8.75	7.75	0.25	3.75	5.75	7.75	7.75	4.75	8.50	5.25	2.25	2.50	-0.219727	0.117188	0.952148	-3.150000	1.960000	-0.210000	1066.00	-0.01	-0.09
0.74	0.00	1.00	0.00	0.00	0.00	0.00	0.00	0.00	0.00	0.00	0.00	0.00	0.00	0.00	0.00	0.00	-0.084961	0.757324	0.869629	27.790001	31.920000	103.180000	10.00	0.00	0.00	5.75	7.50	5.50	9.00	8.75	7.75	0.50	3.75	6.25	7.50	7.75	4.75	8.25	5.25	2.25	2.50	-0.218262	0.120605	0.947266	-3.080000	1.750000	-0.140000	1069.00	-0.01	-0.09
0.75	0.00	0.75	0.00	0.00	0.00	0.00	0.00	0.00	0.00	0.00	0.00	0.00	0.00	0.00	0.00	0.00	-0.061523	0.642578	0.888672	34.650002	31.290001	109.199997	8.00	0.00	0.00	5.75	7.50	5.50	8.75	8.75	7.75	0.50	3.75	6.25	7.75	8.00	4.75	8.25	5.25	2.00	2.50	-0.219727	0.126465	0.948730	-3.010000	1.540000	-0.140000	1069.00	-0.01	-0.09
0.76	0.25	0.75	0.00	0.00	0.00	0.00	0.00	0.00	0.00	0.00	0.00	0.00	0.00	0.00	0.00	0.00	-0.057617	0.550293	0.910645	40.040001	30.730000	111.510002	10.00	0.00	0.00	5.75	7.25	5.25	9.25	8.75	8.00	0.50	3.75	6.25	7.75	7.75	4.50	8.50	5.25	2.25	2.50	-0.219238	0.124512	0.952637	-2.940000	1.470000	-0.070000	1071.00	-0.01	-0.09
0.77	0.00	0.75	0.00	0.00	0.00	0.00	0.00	0.00	0.00	0.00	0.00	0.00	0.00	0.00	0.00	0.00	-0.052246	0.466797	0.939453	45.920002	29.120001	111.300003	8.00	0.00	0.00	5.75	7.50	5.50	9.00	8.50	7.75	0.50	3.50	6.25	7.75	8.00	4.75	8.25	5.25	2.25	2.50	-0.218262	0.127441	0.950684	-3.010000	1.400000	-0.000000	1067.00	-0.01	-0.09
0.78	0.00	1.00	0.00	0.00	0.00	0.00	0.00	0.00	0.00	0.00	0.00	0.00	0.00	0.00	0.00	0.00	-0.049805	0.395020	0.974121	51.520000	25.900000	109.550003	10.00	0.00	0.00	5.75	7.50	5.25	9.00	8.50	7.75	0.50	3.50	6.25	7.75	7.75	4.75	8.25	5.25	2.25	2.50	-0.215820	0.124512	0.945801	-3.010000	1.260000	0.140000	1061.00	-0.01	-0.09
0.79	0.00	0.75	0.00	0.00	0.00	0.00	0.00	0.00	0.00	0.00	0.00	0.00	0.00	0.00	0.00	0.00	-0.074219	0.270508	1.060059	58.380001	13.580000	103.110001	8.00	0.00	0.00	5.50	7.25	5.50	9.00	8.50	7.75	0.25	3.75	6.25	7.75	7.75	4.50	8.25	5.25	2.25	2.25	-0.225098	0.124512	0.948242	-3.080000	0.980000	-0.000000	1055.00	-0.01	-0.09
0.80	0.00	0.75	0.00	0.00	0.00	0.00	0.00	0.00	0.00	0.00	0.00	0.00	0.00	0.00	0.00	0.00	-0.088867	0.234375	1.071777	58.869999	4.830000	98.279999	8.00	0.00	0.00	5.50	7.25	5.25	9.00	8.50	7.75	0.50	3.50	6.25	7.75	7.75	4.75	8.25	5.25	2.50	2.75	-0.223633	0.125488	0.952148	-3.220000	0.350000	0.070000	1060.00	-0.00	-0.09
0.81	0.00	0.75	0.00	0.00	0.00	0.00	0.00	0.00	0.00	0.00	0.00	0.00	0.00	0.00	0.00	0.00	-0.110840	0.201172	1.062012	58.099998	-3.920000	92.260002	8.00	0.00	0.00	5.50	7.50	5.50	9.00	8.50	7.75	0.50	3.75	6.25	7.75	8.00	4.50	8.25	5.50	2.25	2.50	-0.223633	0.125488	0.952148	-3.220000	0.350000	0.070000	1068.00	-0.01	-0.09
0.82	0.00	0.75	0.00	0.00	0.00	0.00	0.00	0.00	0.00	0.00	0.00	0.00	0.00	0.00	0.00	0.00	-0.144043	0.185059	1.046875	58.660000	-12.180000	85.470001	8.00	0.00	0.00	5.75	7.25	5.25	9.00	8.50	8.00	0.50	3.50	6.25	7.75	8.00	4.50	8.50	5.50	2.25	2.50	-0.214844	0.125000	0.953613	-3.290000	-0.070000	-0.000000	1066.00	-0.01	-0.09
0.83	0.00	0.25	0.00	0.00	0.00	0.00	0.00	0.00	0.00	0.00	0.00	0.00	0.00	0.00	0.00	0.00	-0.178223	0.165527	1.031250	59.849998	-19.040001	78.470001	3.00	0.00	0.00	5.75	7.25	5.50	9.00	8.75	8.00	0.50	3.75	6.00	7.75	8.00	4.50	8.50	5.50	2.25	2.50	-0.219238	0.128418	0.956543	-3.220000	-0.280000	0.140000	1073.00	-0.01	-0.09
0.84	0.00	0.00	0.00	0.00	0.00	0.00	0.00	0.00	0.00	0.00	0.00	0.00	0.00	0.00	0.00	0.00	-0.210449	0.164551	1.031738	60.549999	-24.850000	71.050003	0.00	0.00	0.00	5.75	7.25	5.25	8.75	8.75	8.00	0.25	4.00	6.25	7.75	8.00	4.50	8.25	5.50	2.50	2.50	-0.224121	0.125488	0.943848	-3.220000	-0.280000	0.070000	1071.00	-0.00	-0.09
0.85	0.00	0.50	0.00	0.00	0.00	0.00	0.00	0.00	0.00	0.00	0.00	0.00	0.00	0.00	0.00	0.00	-0.245117	0.177246	1.023438	60.970001	-29.400000	63.490002	5.00	0.00	0.00	5.75	7.25	5.50	8.75	8.75	8.25	0.50	4.25	5.75	7.75	7.75	4.75	8.25	5.50	2.00	2.50	-0.217285	0.120117	0.955566	-3.150000	-0.140000	-0.000000	1073.00	-0.01	-0.09
0.86	0.00	0.75	0.00	0.00	0.00	0.00	0.00	0.00	0.00	0.00	0.00	0.00	0.00	0.00	0.00	0.00	-0.281250	0.198242	1.008789	61.389999	-33.320000	56.490002	8.00	0.00	0.00	5.50	7.25	5.25	9.00	9.00	8.25	0.50	4.00	6.50	8.00	8.00	5.00	8.50	5.75	2.50	2.50	-0.220703	0.124512	0.948242	-3.150000	-0.140000	-0.000000	1098.00	-0.00	-0.09
0.87	0.00	0.00	0.00	0.00	0.00	0.00	0.00	0.00	0.00	0.00	0.00	0.00	0.00	0.00	0.00	0.00	-0.304688	0.229980	0.984863	62.230000	-36.470001	50.330002	0.00	0.00	0.00	5.50	7.25	5.25	9.00	9.25	8.25	0.50	4.00	6.25	8.00	8.00	5.00	8.50	5.75	2.25	2.75	-0.215820	0.123047	0.956055	-3.080000	-0.210000	-0.000000	1096.00	-0.00	-0.09
0.88	0.00	1.25	0.00	0.00	0.00	0.00	0.00	0.00	0.00	0.00	0.00	0.00	0.00	0.00	0.00	0.00	-0.333984	0.264160	0.969727	63.630001	-38.779999	45.290001	13.00	0.00	0.00	5.75	7.25	5.50	9.00	9.00	8.25	0.25	4.00	6.25	8.00	8.25	5.00	8.50	5.75	2.25	2.50	-0.219727	0.123535	0.949219	-2.940000	0.000000	-0.000000	1097.00	-0.00	-0.09
0.89	0.00	0.00	0.00	0.00	0.00	0.00	0.00	0.00	0.00	0.00	0.00	0.00	0.00	0.00	0.00	0.00	-0.362793	0.295410	0.948242	65.309998	-39.689999	41.580002	0.00	0.00	0.00	5.50	7.25	5.50	9.00	9.00	8.25	0.25	4.00	6.25	8.00	8.25	5.00	8.50	5.75	2.50	2.75	-0.216797	0.126465	0.954590	-2.870000	0.070000	0.210000	1098.00	-0.00	-0.09
0.90	0.00	0.75	0.00	0.00	0.00	0.00	0.00	0.00	0.00	0.00	0.00	0.00	0.00	0.00	0.00	0.00	-0.404297	0.312988	0.923828	67.620003	-39.200001	38.849998	8.00	0.00	0.00	5.75	7.00	5.50	8.75	9.00	8.25	0.50	4.25	6.25	8.25	8.25	5.25	8.75	5.75	2.25	2.50	-0.214844	0.129883	0.956543	-2.800000	0.070000	0.140000	1107.00	-0.00	-0.09
0.91	0.00	0.25	0.00	0.00	0.00	0.00	0.00	0.00	0.00	0.00	0.00	0.00	0.00	0.00	0.00	0.00	-0.431152	0.315918	0.918457	70.489998	-37.799999	37.099998	3.00	0.00	0.00	5.50	7.00	5.25	8.75	9.00	8.50	0.50	4.00	6.25	8.00	8.25	5.25	8.50	5.50	2.50	2.75	-0.216797	0.127930	0.955566	-2.660000	0.350000	-0.070000	1097.00	0.00	-0.09
0.92	0.00	0.00	0.00	0.00	0.00	0.00	0.00	0.00	0.00	0.00	0.00	0.00	0.00	0.00	0.00	0.00	-0.467285	0.308594	0.914551	72.590004	-35.490002	36.259998	0.00	0.00	0.00	5.50	6.75	5.00	8.75	9.00	8.25	0.50	4.25	6.25	8.25	8.25	5.25	8.75	5.75	2.50	3.00	-0.220703	0.123047	0.955078	-2.590000	0.210000	-0.000000	1102.00	0.00	-0.09
0.93	0.00	0.75	0.00	0.00	0.00	0.00	0.00	0.00	0.00	0.00	0.00	0.00	0.00	0.00	0.00	0.00	-0.502930	0.292480	0.911133	73.080002	-33.459999	35.980000	8.00	0.00	0.00	5.25	6.75	5.25	8.75	9.00	8.25	0.25	4.50	6.25	8.25	8.50	5.50	9.00	6.00	2.50	3.00	-0.216797	0.124512	0.950195	-2.450000	0.280000	0.070000	1112.00	0.01	-0.10
0.94	0.00	0.75	0.00	0.00	0.00	0.00	0.00	0.00	0.00	0.00	0.00	0.00	0.00	0.00	0.00	0.00	-0.549805	0.240723	0.888184	73.989998	-30.940001	37.660000	8.00	0.00	0.00	5.50	6.50	5.25	8.50	9.00	8.50	0.50	5.00	6.50	8.25	8.50	5.50	9.00	6.00	2.50	3.00	-0.216309	0.129395	0.947266	-2.170000	0.350000	0.140000	1129.00	0.01	-0.10
0.95	0.00	0.25	0.00	0.00	0.00	0.00	0.00	0.00	0.00	0.00	0.00	0.00	0.00	0.00	0.00	0.00	-0.575195	0.187500	0.875977	77.279999	-29.820000	40.529999	3.00	0.00	0.00	5.00	6.25	5.00	8.25	9.00	8.25	0.50	4.75	6.50	8.50	8.75	6.00	9.25	6.00	2.50	3.25	-0.221191	0.122070	0.955078	-2.100000	0.490000	0.070000	1123.00	0.02	-0.10
0.96	0.00	0.25	0.00	0.00	0.00	0.00	0.00	0.00	0.00	0.00	0.00	0.00	0.00	0.00	0.00	0.00	-0.597656	0.112793	0.847168	78.750000	-28.000000	44.310001	3.00	0.00	0.00	5.00	6.25	5.00	8.25	9.00	8.25	0.50	5.00	6.50	8.50	9.00	6.00	9.25	6.25	2.50	3.25	-0.224121	0.125000	0.954102	-1.960000	0.840000	-0.000000	1132.00	0.02	-0.10
0.97	0.00	0.25	0.00	0.00	0.00	0.00	0.00	0.00	0.00	0.00	0.00	0.00	0.00	0.00	0.00	0.00	-0.628906	0.038574	0.792480	74.199997	-24.430000	47.670002	3.00	0.00	0.00	5.00	6.00	5.00	8.00	8.75	8.25	0.25	5.25	6.50	8.75	9.00	6.50	9.25	6.00	2.50	3.25	-0.213379	0.127441	0.952148	-1.890000	1.120000	-0.070000	1130.00	0.02	-0.10
0.98	0.00	0.50	0.00	0.00	0.00	0.00	0.00	0.00	0.00	0.00	0.00	0.00	0.00	0.00	0.00	0.00	-0.645996	-0.007324	0.743652	65.169998	-18.270000	50.959999	5.00	0.00	0.00	5.00	5.75	4.75	7.75	8.75	8.25	0.50	5.25	6.75	8.75	9.25	6.75	9.25	6.25	3.00	3.50	-0.216797	0.128906	0.950684	-2.030000	1.120000	-0.070000	1144.00	0.03	-0.10
0.99	0.00	0.50	0.00	0.00	0.00	0.00	0.00	0.00	0.00	0.00	0.00	0.00	0.00	0.00	0.00	0.00	-0.666016	-0.026367	0.708496	54.950001	-9.730000	54.529999	5.00	0.00	0.00	4.75	5.50	4.75	7.75	8.75	8.50	0.50	5.25	6.75	9.00	9.50	7.25	9.50	6.25	2.75	3.50	-0.218750	0.129883	0.949219	-1.960000	1.050000	-0.140000	1153.00	0.03	-0.10
1.00	0.00	0.75	0.00	0.00	0.00	0.00	0.00	0.00	0.00	0.00	0.00	0.00	0.00	0.00	0.00	0.00	-0.675293	-0.033691	0.688477	45.430000	-0.210000	58.939999	8.00	0.00	0.00	4.50	5.25	4.25	7.50	8.50	8.25	0.25	5.50	7.00	9.25	9.50	7.25	9.50	6.25	2.75	3.50	-0.217773	0.125977	0.956543	-1.610000	1.120000	-0.140000	1139.00	0.04	-0.10
1.01	0.00	0.25	0.00	0.00	0.00	0.00	0.00	0.00	0.00	0.00	0.00	0.00	0.00	0.00	0.00	0.00	-0.680664	-0.032227	0.670410	36.400002	9.520000	63.770000	3.00	0.00	0.00	4.00	5.00	4.25	7.25	8.50	8.25	0.25	5.25	7.00	9.25	9.75	7.50	9.75	6.25	2.75	3.75	-0.220215	0.128906	0.958984	-1.330000	1.260000	-0.070000	1133.00	0.04	-0.10
1.02	0.00	0.00	0.00	0.00	0.00	0.00	0.00	0.00	0.00	0.00	0.00	0.00	0.00	0.00	0.00	0.00	-0.687500	-0.033203	0.659668	28.770000	19.250000	69.090004	0.00	0.00	0.00	3.75	4.75	4.50	7.00	8.25	8.25	0.25	5.25	7.00	9.50	10.25	7.75	9.75	6.50	3.00	3.50	-0.217285	0.127441	0.948730	-1.050000	1.540000	-0.140000	1140.00	0.05	-0.10
1.03	0.00	0.25	0.00	0.00	0.00	0.00	0.00	0.00	0.00	0.00	0.00	0.00	0.00	0.00	0.00	0.00	-0.709961	-0.052734	0.661621	22.680000	28.700001	74.900002	3.00	0.00	0.00	3.75	4.75	4.00	6.75	8.00	8.25	0.25	5.50	7.25	10.00	10.50	8.00	10.00	6.50	3.25	4.25	-0.215332	0.127930	0.954102	-0.840000	1.680000	-0.070000	1157.00	0.06	-0.11
1.04	0.00	0.00	0.00	0.00	0.00	0.00	0.00	0.00	0.00	0.00	0.00	0.00	0.00	0.00	0.00	0.00	-0.709473	-0.090332	0.660156	16.450001	37.799999	80.639999	0.00	0.00	0.00	3.75	4.25	3.75	6.50	7.75	8.00	0.25	5.50	7.25	10.00	10.75	8.25	10.00	6.75	3.75	4.25	-0.218750	0.125977	0.951172	-0.700000	1.960000	-0.280000	1154.00	0.06	-0.11
1.05	0.00	0.25	0.00	0.00	0.00	0.00	0.00	0.00	0.00	0.00	0.00	0.00	0.00	0.00	0.00	0.00	-0.712402	-0.127930	0.672363	9.450000	46.900002	85.750000	3.00	0.00	0.00	3.75	3.50	3.25	6.00	7.75	8.00	0.25	5.50	7.50	10.50	11.00	8.50	10.25	6.75	3.75	4.50	-0.218750	0.125488	0.957520	-0.000000	2.450000	-0.280000	1153.00	0.07	-0.10
1.06	0.00	0.25	0.00	0.00	0.00	0.00	0.00	0.00	0.00	0.00	0.00	0.00	0.00	0.00	0.00	0.00	-0.704102	-0.138672	0.703125	2.520000	55.580002	90.230003	3.00	0.00	0.00	3.25	3.50	3.50	5.75	7.50	8.00	0.25	5.50	7.50	10.75	11.50	8.75	10.50	7.00	3.75	5.00	-0.218262	0.133301	0.957031	0.560000	3.570000	-0.350000	1163.00	0.08	-0.11
1.07	0.00	0.25	0.00	0.00	0.00	0.00	0.00	0.00	0.00	0.00	0.00	0.00	0.00	0.00	0.00	0.00	-0.699219	-0.131836	0.733887	-2.380000	62.860001	94.500000	3.00	0.00	0.00	3.00	3.25	2.00	5.50	7.00	7.75	0.25	5.50	7.50	11.25	11.75	9.00	10.75	7.50	4.00	5.00	-0.224609	0.129883	0.962891	1.470000	5.040000	-0.420000	1149.00	0.09	-0.11
1.08	0.00	0.25	0.00	0.00	0.00	0.00	0.00	0.00	0.00	0.00	0.00	0.00	0.00	0.00	0.00	0.00	-0.659180	-0.104004	0.775879	-8.820000	70.419998	101.220001	3.00	0.00	0.00	2.75	1.75	2.75	5.00	6.25	7.50	0.25	5.50	7.75	11.50	12.25	9.25	10.75	7.50	4.25	5.25	-0.223145	0.135254	0.966309	2.800000	6.930000	-0.490000	1142.00	0.11	-0.11
1.09	0.00	0.50	0.00	0.00	0.00	0.00	0.00	0.00	0.00	0.00	0.00	0.00	0.00	0.00	0.00	0.00	-0.642578	-0.097168	0.742676	-10.220000	72.169998	103.110001	5.00	0.00	0.00	2.50	2.25	2.00	4.50	5.75	7.00	0.00	4.75	7.00	11.00	11.50	8.75	10.00	6.75	3.75	5.00	-0.223145	0.123047	0.961426	4.550000	8.960000	-0.630000	1048.00	0.11	-0.11
1.10	0.00	0.25	0.00	0.00	0.00	0.00	0.00	0.00	0.00	0.00	0.00	0.00	0.00	0.00	0.00	0.00	0.146484	-0.922363	2.776367	-201.669998	133.210007	100.309998	3.00	0.00	0.00	0.25	0.75	1.00	2.00	4.25	5.50	0.00	4.50	7.00	11.25	12.00	9.00	10.50	7.50	3.00	4.75	-0.222168	0.120117	0.982910	7.280000	11.270000	-0.700000	938.00	0.16	-0.11
1.11	0.50	1.00	0.00	0.00	0.25	0.00	0.00	0.00	0.00	0.00	0.00	0.00	0.00	0.00	0.00	0.00	-0.230469	0.183594	0.849121	-235.130005	96.529999	108.709999	19.00	0.00	0.00	0.25	0.25	0.75	1.25	4.25	5.00	0.00	4.25	7.00	11.50	12.25	9.25	10.25	7.25	3.75	5.25	-0.218262	0.125488	1.018555	10.360000	14.630000	-0.910000	927.00	0.17	-0.11
1.12	0.25	2.25	0.00	0.25	0.00	0.00	0.00	0.00	0.00	0.00	0.00	0.00	0.00	0.00	0.00	0.00	-0.171387	-0.576172	0.430176	-212.869995	79.029999	100.379997	29.00	0.00	0.00	0.00	0.00	0.50	1.25	3.00	4.50	0.00	3.25	7.50	12.00	12.75	9.50	10.25	7.75	3.50	5.25	-0.215820	0.145508	1.006836	19.600000	25.760000	-2.800000	904.00	0.19	-0.10
1.13	1.00	3.25	0.00	1.00	0.00	0.00	0.00	0.00	0.00	0.00	0.00	0.00	0.00	0.00	0.00	0.00	-0.108887	-0.418945	0.867676	-218.190002	103.250000	67.129997	56.00	-0.39	-0.12	0.00	0.00	0.75	1.25	2.25	4.00	0.00	3.25	7.25	12.25	13.00	9.50	10.25	8.00	3.75	5.50	-0.217773	0.157227	1.026855	24.850000	40.040001	-4.480000	901.00	0.19	-0.10
1.14	1.50	4.25	0.00	1.50	0.00	0.00	0.00	0.00	0.00	0.00	0.00	0.00	0.00	0.00	0.00	0.00	-0.142090	-0.514648	1.476562	-213.919998	98.419998	33.880001	78.00	-0.38	-0.12	0.00	0.00	0.25	0.75	2.00	3.75	0.00	2.50	7.25	12.25	13.00	9.75	10.00	8.25	4.75	5.50	-0.241211	0.146484	0.999023	28.630001	54.529999	-6.580000	885.00	0.21	-0.10
1.15	1.25	4.75	0.00	2.00	0.00	0.00	0.00	0.00	0.00	0.00	0.00	0.00	0.00	0.00	0.00	0.00	-0.264648	-0.617676	1.508789	-200.410004	72.099998	0.700000	86.00	-0.38	-0.14	0.25	0.00	0.25	0.75	1.75	3.00	0.00	1.75	7.25	12.25	13.25	9.75	10.00	8.75	5.00	6.00	-0.270508	0.166504	1.018555	29.960001	70.209999	-8.260000	876.00	0.22	-0.09
1.16	1.00	5.50	0.25	2.75	0.00	0.00	0.00	0.00	0.00	0.00	0.00	0.00	0.00	0.00	0.00	0.00	-0.247559	-0.608887	1.551758	-187.250000	49.349998	-34.720001	103.00	-0.37	-0.15	0.00	0.00	0.25	0.75	1.50	2.25	0.00	1.00	7.25	12.50	13.25	9.75	9.75	9.25	5.00	6.25	-0.289062	0.171387	1.020020	28.980000	85.820000	-9.730000	856.00	0.23	-0.08
1.17	2.50	5.75	0.00	2.50	0.00	0.00	0.00	0.00	0.00	0.00	0.00	0.00	0.00	0.00	0.00	0.00	-0.235352	-0.416504	1.354492	-152.809998	33.950001	-59.849998	116.00	-0.38	-0.11	0.00	0.00	0.25	0.50	1.25	2.25	0.00	0.75	7.25	12.50	13.25	9.75	9.25	9.75	5.00	6.50	-0.302246	0.172363	1.056152	26.880001	99.889999	-11.200000	847.00	0.24	-0.08
1.18	2.75	7.25	0.25	3.25	0.25	0.00	0.00	0.00	0.00	0.00	0.00	0.00	0.00	0.00	0.00	0.00	-0.202148	-0.113281	0.791504	-104.860001	37.380001	-69.019997	149.00	-0.37	-0.11	0.00	0.00	0.25	0.50	1.00	1.75	0.00	0.50	7.00	12.50	13.25	9.75	9.00	10.00	5.50	7.00	-0.379883	0.295410	1.116699	24.150000	114.239998	-13.930000	839.00	0.24	-0.08
1.19	3.25	7.75	0.75	4.00	0.00	0.50	0.00	0.00	0.00	0.00	0.00	0.00	0.00	0.00	0.00	0.00	-0.308594	0.183105	0.833984	-70.840004	56.209999	-69.930000	178.00	-0.36	-0.12	0.00	0.00	0.25	0.25	0.75	1.25	0.00	0.00	7.00	12.25	13.00	9.50	8.25	10.75	5.75	7.50	-0.347168	0.181641	1.062500	23.799999	123.900002	-15.330000	816.00	0.25	-0.07
1.20	4.00	8.25	0.75	4.75	0.25	0.75	0.00	0.25	0.00	0.00	0.00	0.00	0.50	0.00	0.00	0.00	-0.783203	0.792969	1.560059	-101.360001	53.619999	-64.120003	215.00	-0.34	-0.13	0.00	0.00	0.25	0.50	0.75	0.75	0.00	0.00	6.75	12.00	12.75	9.25	8.00	11.25	5.75	7.50	-0.369629	0.193359	1.036621	23.100000	131.880005	-17.360001	803.00	0.26	-0.06
1.21	4.75	9.00	1.00	5.25	0.25	1.50	0.00	0.00	0.00	0.00	0.00	0.00	0.75	0.00	0.00	0.00	-0.783203	0.495117	1.560059	-66.989998	23.100000	-32.900002	247.00	-0.33	-0.12	0.00	0.00	0.00	0.25	0.75	0.75	0.00	0.00	6.50	11.75	12.50	9.25	7.50	11.75	6.00	7.50	-0.388672	0.193848	1.069824	22.820000	139.369995	-18.760000	790.00	0.26	-0.06
1.22	4.75	9.50	0.75	5.50	0.25	2.00	0.00	0.25	0.00	0.00	0.00	0.00	0.75	0.00	0.00	0.00	-0.322266	0.119141	1.047852	-42.209999	18.340000	-11.830000	263.00	-0.33	-0.13	0.00	0.00	0.25	0.25	0.50	0.25	0.00	0.00	6.25	11.50	12.25	8.75	6.25	12.00	6.00	7.25	-0.402344	0.186523	1.048828	22.960001	148.330002	-19.879999	759.00	0.27	-0.05
1.23	5.25	9.50	1.00	5.75	0.25	2.00	0.00	0.50	0.00	0.00	0.00	0.00	0.75	0.00	0.00	0.00	-0.366699	0.160156	0.980469	-26.040001	8.260000	-4.900000	278.00	-0.32	-0.13	0.00	0.00	0.25	0.50	0.50	0.00	0.00	0.00	6.25	11.25	11.75	8.50	5.75	12.25	6.25	7.25	-0.428711	0.203125	1.034180	22.120001	158.970001	-22.260000	748.00	0.27	-0.05
1.24	5.25	10.00	1.00	6.00	0.25	2.50	0.00	0.50	0.00	0.00	0.00	0.00	1.25	0.00	0.00	0.00	-0.315918	0.152832	0.947754	-20.650000	6.860000	-2.450000	297.00	-0.31	-0.14	0.00	0.00	0.25	0.00	0.50	0.00	0.00	0.00	6.00	10.75	11.50	8.00	4.75	12.50	6.00	7.00	-0.454590	0.206543	1.006348	20.020000	169.399994	-25.200001	712.00	0.28	-0.04
1.25	5.25	10.25	1.00	6.50	0.50	2.50	0.00	0.75	0.00	0.00	0.00	0.00	2.00	0.00	0.00	0.00	-0.317383	0.152344	0.945312	-17.710001	4.620000	-1.750000	320.00	-0.30	-0.15	0.00	0.00	0.00	0.00	0.25	0.00	0.00	0.00	5.75	10.25	11.00	7.75	3.75	12.50	5.75	6.75	-0.628906	0.114258	0.943848	18.830000	179.479996	-27.440001	675.00	0.28	-0.04
1.26	5.50	10.50	1.25	7.25	0.50	3.00	0.00	0.75	0.00	0.00	0.00	0.00	1.25	0.25	0.00	0.00	-0.326660	0.157715	0.932617	-15.540000	2.940000	-1.260000	338.00	-0.30	-0.14	0.00	0.00	0.00	0.00	0.50	0.00	0.00	0.00	5.50	10.00	10.25	7.50	3.00	12.00	5.50	6.50	-0.519531	0.215820	1.000977	19.040001	188.720001	-28.420000	644.00	0.28	-0.03
1.27	5.50	11.00	1.50	7.50	0.50	3.50	0.00	1.25	0.00	0.00	0.00	0.00	1.75	0.00	0.00	0.00	-0.318359	0.157715	0.927734	-14.420000	1.890000	-0.700000	366.00	-0.29	-0.16	0.00	0.00	0.00	0.00	0.00	0.00	0.00	0.00	5.50	9.50	10.00	6.50	2.75	12.00	5.50	6.25	-0.570801	0.182129	1.068848	20.370001	197.259995	-28.350000	614.00	0.29	-0.03
1.28	5.75	11.25	1.75	7.75	0.50	4.00	0.00	1.00	0.00	0.00	0.00	0.00	2.25	0.00	0.00	0.00	-0.318359	0.149902	0.917480	-13.230000	0.770000	-0.490000	384.00	-0.29	-0.16	0.00	0.00	0.00	0.00	0.00	0.00	0.00	0.00	5.50	9.00	9.50	6.25	2.50	11.50	5.00	6.00	-0.621094	0.213379	1.027832	24.360001	206.430008	-28.210001	585.00	0.29	-0.02
1.29	6.75	12.00	2.00	8.25	0.75	4.75	0.00	1.25	0.00	0.00	0.00	0.00	2.75	0.25	0.00	0.00	-0.308594	0.155762	0.917480	-12.670000	-0.140000	-0.350000	435.00	-0.28	-0.15	0.00	0.00	0.00	0.00	0.00	0.00	0.00	0.00	5.00	8.50	9.00	5.50	2.00	10.75	4.50	5.50	-0.703125	0.273438	1.066406	35.209999	221.130005	-26.389999	538.00	0.29	-0.02
1.30	7.00	12.25	2.00	8.75	0.50	5.00	0.00	1.75	0.00	0.00	0.00	0.00	3.00	0.25	0.00	0.00	-0.308594	0.147949	0.913086	-13.020000	-0.420000	-0.420000	457.00	-0.27	-0.16	0.00	0.00	0.00	0.00	0.00	0.00	0.00	0.00	5.00	8.25	8.50	5.25	2.00	9.75	4.00	5.25	-0.706055	0.256836	1.036133	43.189999	229.529999	-26.530001	510.00	0.29	-0.02
1.31	7.75	13.00	2.50	8.75	0.75	5.25	0.00	1.75	0.00	0.00	0.00	0.00	2.75	0.25	0.00	0.00	-0.310547	0.146484	0.909668	-13.020000	-1.050000	-0.210000	483.00	-0.28	-0.15	0.00	0.00	0.00	0.00	0.00	0.00	0.00	0.00	4.25	7.75	8.25	5.00	2.00	9.00	3.25	4.25	-0.855957	0.241699	1.064453	48.580002	236.880005	-26.460001	466.00	0.28	-0.02
1.32	9.00	13.50	2.75	9.00	1.00	5.50	0.00	1.75	0.00	0.00	0.00	0.00	2.75	0.50	0.00	0.00	-0.305176	0.140625	0.906250	-13.020000	-1.820000	-0.140000	516.00	-0.28	-0.14	0.00	0.00	0.00	0.00	0.00	0.00	0.00	0.00	4.00	7.50	7.75	4.50	2.00	8.25	2.25	3.75	-0.913086	0.246582	1.219727	55.160000	242.339996	-25.129999	427.00	0.28	-0.02
1.33	9.50	14.25	3.00	9.50	1.00	5.75	0.00	2.00	0.00	0.00	0.00	0.00	3.25	0.75	0.00	0.00	-0.304199	0.145020	0.910645	-13.650000	-2.800000	-0.140000	553.00	-0.27	-0.14	0.00	0.00	0.00	0.00	0.00	0.00	0.00	0.00	3.25	6.75	7.50	4.00	1.50	7.50	1.75	3.25	-1.051270	0.300781	1.290039	62.090000	241.570007	-20.860001	378.00	0.28	-0.02
1.34	10.00	15.00	3.00	9.75	1.00	6.25	0.00	2.25	0.00	0.00	0.00	0.00	3.00	0.50	0.00	0.00	-0.302734	0.145508	0.913086	-14.630000	-4.200000	-0.210000	574.00	-0.28	-0.14	0.00	0.00	0.00	0.00	0.00	0.00	0.00	0.00	2.50	6.00	6.75	3.75	1.50	6.75	1.25	2.50	-1.176758	0.418457	1.359375	71.610001	233.100006	-12.600000	330.00	0.28	-0.03
1.35	11.00	15.75	3.75	10.00	1.25	7.00	0.00	2.50	0.00	0.00	0.00	0.00	4.00	0.75	0.00	0.00	-0.303711	0.138672	0.908691	-15.330000	-5.530000	-0.140000	633.00	-0.27	-0.14	0.00	0.00	0.00	0.00	0.00	0.00	0.00	0.00	2.25	5.00	5.75	3.25	1.50	6.00	0.75	1.75	-1.171875	0.545898	1.384766	94.849998	216.160004	-0.770000	281.00	0.27	-0.02
1.36	11.75	16.00	4.00	10.25	1.50	7.75	0.00	3.00	0.00	0.00	0.00	0.00	3.75	1.00	0.00	0.00	-0.305176	0.130371	0.925293	-15.540000	-5.740000	0.070000	671.00	-0.26	-0.14	0.00	0.00	0.00	0.00	0.00	0.00	0.00	0.00	1.75	4.25	5.00	2.75	1.25	5.25	0.50	1.25	-0.953125	0.519043	1.433105	127.750000	198.940002	9.590000	236.00	0.27	-0.02
1.37	12.25	16.50	4.50	10.75	1.50	8.00	0.00	3.00	0.00	0.00	0.00	0.00	4.25	1.50	0.00	0.00	-0.303223	0.133789	0.924805	-13.930000	-5.180000	0.280000	706.00	-0.26	-0.14	0.00	0.00	0.00	0.00	0.00	0.00	0.00	0.00	1.25	3.50	4.00	2.25	1.00	4.25	0.75	0.50	-0.862793	0.365234	1.207031	161.979996	181.020004	15.750000	190.00	0.28	-0.02
1.38	12.75	16.50	4.75	10.75	1.75	8.00	0.00	3.25	0.25	0.25	0.00	0.25	4.50	1.75	0.00	0.00	-0.295410	0.132812	0.925293	-12.250000	-4.340000	0.560000	736.00	-0.25	-0.13	0.00	0.00	0.00	0.00	0.00	0.00	0.00	0.00	1.00	2.75	3.25	1.75	0.75	2.75	0.25	0.50	-0.500977	0.155273	1.340820	178.149994	166.949997	14.770000	141.00	0.27	-0.03
1.39	13.25	17.00	5.00	11.00	1.75	8.50	0.00	3.50	0.00	0.25	0.00	0.25	5.00	2.00	0.00	0.00	-0.299805	0.131836	0.926270	-11.130000	-3.290000	0.700000	766.00	-0.25	-0.14	0.00	0.00	0.00	0.00	0.00	0.00	0.00	0.00	0.75	2.25	2.75	1.25	1.00	1.00	0.25	0.25	-0.111816	-0.032227	1.532227	174.789993	144.339996	11.060000	105.00	0.25	-0.06
1.40	13.25	17.25	5.00	11.25	2.00	8.50	0.00	3.50	0.00	0.25	0.00	0.25	5.00	1.75	0.00	0.00	-0.302734	0.132324	0.928711	-10.220000	-2.170000	0.770000	772.00	-0.25	-0.14	0.00	0.00	0.00	0.00	0.00	0.00	0.00	0.00	0.75	1.25	2.00	1.00	0.75	0.50	0.00	0.00	0.657715	-0.545898	1.392090	98.980003	84.139999	-11.270000	71.00	0.24	-0.07
1.41	13.75	17.25	5.25	11.50	2.25	8.75	0.00	3.75	0.25	0.50	0.00	0.25	5.25	2.25	0.00	0.00	-0.296875	0.129395	0.922363	-9.170000	-0.980000	0.910000	807.00	-0.24	-0.13	0.00	0.00	0.00	0.00	0.00	0.00	0.00	0.00	0.25	1.00	1.00	0.75	0.50	0.00	0.00	0.00	0.657715	-0.545898	1.392090	98.980003	84.139999	-11.270000	40.00	0.00	0.00
1.42	13.75	17.00	5.25	11.25	2.25	8.50	0.25	4.00	0.50	0.50	0.25	0.25	5.00	2.50	0.00	0.00	-0.295898	0.125488	0.928223	-8.120000	0.350000	0.980000	813.00	-0.23	-0.13	0.00	0.00	0.00	0.00	0.00	0.00	0.00	0.00	0.25	0.75	1.00	0.50	0.00	0.00	0.00	0.00	0.634766	-0.241699	1.684082	-1.330000	2.940000	-50.189999	29.00	0.00	0.00
1.43	13.75	17.00	5.25	11.25	2.00	8.75	0.25	3.75	0.50	0.50	0.50	0.25	5.00	2.50	0.00	0.00	-0.299805	0.130371	0.928223	-7.350000	1.610000	1.120000	812.00	-0.23	-0.13	0.00	0.00	0.00	0.00	0.00	0.00	0.00	0.00	0.00	0.75	0.50	0.50	0.25	0.00	0.00	0.00	0.490723	-0.227539	1.376465	-26.670000	-46.480000	-55.090000	22.00	0.00	0.00
1.44	14.25	16.75	5.50	11.25	2.25	8.50	0.25	4.00	0.50	0.50	0.25	0.50	4.75	2.50	0.00	0.00	-0.300781	0.121094	0.920898	-7.000000	2.730000	1.120000	820.00	-0.23	-0.12	0.00	0.00	0.00	0.00	0.00	0.00	0.00	0.00	0.00	0.50	0.50	0.25	0.50	0.00	0.00	0.00	0.487305	-0.288086	0.986816	-38.290001	-80.220001	-57.470001	19.00	0.00	0.00
1.45	13.75	16.75	5.50	11.00	2.25	8.50	0.25	3.25	0.75	0.75	0.00	0.25	4.75	2.50	0.00	0.00	-0.294434	0.127441	0.923828	-6.580000	3.290000	1.190000	800.00	-0.23	-0.12	0.00	0.00	0.00	0.00	0.00	0.00	0.00	0.00	0.25	0.50	0.50	0.00	0.00	0.00	0.00	0.00	0.402344	-0.257812	0.826660	-43.959999	-98.209999	-58.590000	15.00	0.00	0.00
1.46	13.50	16.50	5.50	11.00	2.25	8.50	0.25	3.50	1.00	0.50	0.00	0.50	4.50	2.75	0.00	0.00	-0.290039	0.127441	0.912598	-6.370000	3.220000	1.190000	802.00	-0.23	-0.12	0.00	0.00	0.00	0.00	0.00	0.00	0.00	0.00	0.00	0.00	0.25	0.00	0.00	0.00	0.00	0.00	0.349121	-0.244629	0.757324	-49.490002	-107.730003	-55.650002	3.00	0.00	0.00
1.47	13.50	16.25	5.50	11.00	2.50	8.50	0.25	3.50	0.50	0.75	0.25	0.25	4.75	3.00	0.00	0.00	-0.292480	0.127441	0.918945	-6.370000	2.730000	1.120000	803.00	-0.23	-0.12	0.00	0.00	0.00	0.00	0.00	0.00	0.00	0.00	0.00	0.00	0.00	0.00	0.00	0.00	0.00	0.00	0.316895	-0.204102	0.715820	-58.939999	-114.590004	-47.459999	0.00	0.00	0.00
1.48	13.00	16.50	5.75	10.75	2.50	8.25	0.25	3.50	0.75	0.50	0.25	0.25	4.75	3.25	0.00	0.00	-0.290039	0.128906	0.917969	-6.510000	2.240000	1.120000	800.00	-0.22	-0.12	0.00	0.00	0.00	0.00	0.00	0.00	0.00	0.00	0.00	0.00	0.00	0.00	0.00	0.00	0.00	0.00	0.294434	-0.136719	0.708008	-70.489998	-121.099998	-35.209999	0.00	0.00	0.00
1.49	13.25	16.00	5.75	10.75	2.50	8.25	0.25	3.50	0.75	0.50	0.25	0.25	5.00	3.25	0.00	0.00	-0.287598	0.123047	0.919434	-6.650000	2.310000	1.050000	800.00	-0.22	-0.12	0.00	0.00	0.00	0.00	0.00	0.00	0.00	0.00	0.00	0.25	0.00	0.00	0.00	0.00	0.00	0.00	0.261230	-0.082520	0.710938	-79.449997	-127.680000	-21.000000	3.00	0.00	0.00
1.50	13.00	15.75	5.75	10.75	2.75	8.25	0.25	3.50	0.75	0.75	0.00	0.50	4.75	3.25	0.00	0.25	-0.291016	0.124023	0.912598	-6.790000	1.960000	1.050000	800.00	-0.22	-0.12	0.00	0.00	0.00	0.00	0.00	0.00	0.00	0.00	0.00	0.25	0.00	0.00	0.00	0.00	0.00	0.00	0.221680	-0.058105	0.717773	-82.949997	-134.119995	-7.420000	3.00	0.00	0.00
1.51	12.75	15.50	5.75	10.50	2.75	8.25	0.25	3.00	0.75	1.00	0.50	0.25	4.50	3.50	0.00	0.00	-0.290039	0.126465	0.913574	-6.790000	1.960000	1.050000	787.00	-0.22	-0.11	0.00	0.00	0.00	0.00	0.00	0.00	0.00	0.00	0.00	0.00	0.00	0.00	0.00	0.00	0.00	0.00	0.178223	-0.051270	0.753906	-82.250000	-140.559998	3.920000	0.00	0.00	0.00
1.52	9.25	12.75	4.75	9.00	2.25	7.00	0.25	2.25	0.00	0.00	0.00	0.00	4.25	3.50	0.00	0.00	-0.289551	0.125488	0.916992	-6.510000	1.820000	1.120000	623.00	-0.22	-0.12	0.00	0.00	0.00	0.00	0.00	0.00	0.00	0.00	0.00	0.00	0.00	0.00	0.00	0.00	0.00	0.00	0.126953	-0.060547	0.809082	-80.709999	-147.770004	12.460000	0.00	0.00	0.00
1.53	10.00	13.25	4.75	9.25	2.25	7.25	0.25	2.00	0.00	0.00	0.00	0.00	3.50	3.75	0.00	0.25	-0.289062	0.122559	0.922852	-6.230000	1.470000	1.120000	635.00	-0.23	-0.11	0.00	0.00	0.00	0.00	0.00	0.00	0.00	0.00	0.00	0.00	0.00	0.00	0.00	0.00	0.00	0.00	0.085938	-0.077148	0.874512	-82.040001	-156.520004	17.850000	0.00	0.00	0.00
1.54	9.50	12.75	4.75	9.25	2.25	7.00	0.00	1.75	0.00	0.00	0.00	0.00	2.25	2.75	0.00	0.00	-0.295410	0.119629	0.921387	-5.950000	1.400000	1.120000	591.00	-0.25	-0.11	0.00	0.00	0.00	0.00	0.00	0.00	0.00	0.00	0.00	0.00	0.00	0.00	0.00	0.00	0.00	0.00	-0.034180	-0.034668	1.029297	-93.099998	-180.740005	21.629999	0.00	0.00	0.00
1.55	9.00	15.00	6.25	9.25	2.50	6.75	0.25	1.75	0.00	0.25	0.00	0.00	3.00	3.25	0.00	0.00	-0.287109	0.125000	0.919434	-5.600000	1.400000	1.120000	645.00	-0.24	-0.11	0.00	0.00	0.00	0.00	0.00	0.00	0.00	0.00	0.00	0.00	0.00	0.00	0.00	0.00	0.00	0.00	-0.101562	0.016602	1.064941	-99.610001	-194.320007	21.070000	0.00	0.00	0.00
1.56	12.00	15.00	6.50	10.50	4.25	8.00	0.25	3.25	1.50	0.75	0.25	0.25	2.50	3.50	0.00	0.00	-0.286133	0.123047	0.913574	-5.320000	1.680000	1.260000	788.00	-0.22	-0.09	0.00	0.00	0.00	0.00	0.00	0.00	0.00	0.00	0.00	0.00	0.00	0.00	0.00	0.00	0.00	0.00	-0.180664	0.079102	1.091797	-103.739998	-206.500000	20.370001	0.00	0.00	0.00
1.57	10.50	14.50	6.25	10.50	4.25	8.00	0.25	3.25	0.75	1.00	0.25	0.75	4.25	4.50	0.00	0.25	-0.290039	0.117188	0.919434	-5.110000	2.030000	1.120000	788.00	-0.20	-0.11	0.00	0.00	0.00	0.00	0.00	0.00	0.00	0.00	0.00	0.00	0.00	0.00	0.00	0.00	0.00	0.00	-0.260254	0.154785	1.125488	-104.090004	-216.300003	20.510000	0.00	0.00	0.00
1.58	13.25	15.75	6.50	10.75	4.75	8.00	0.25	3.25	1.00	0.75	0.25	0.50	4.50	4.50	0.00	0.25	-0.286621	0.116699	0.922852	-4.970000	2.170000	1.260000	844.00	-0.21	-0.10	0.00	0.00	0.00	0.00	0.00	0.00	0.00	0.00	0.00	0.00	0.00	0.00	0.00	0.00	0.00	0.00	-0.331055	0.221191	1.157715	-101.570000	-223.860001	21.980000	0.00	0.00	0.00
1.59	13.00	15.50	6.50	10.50	4.75	7.75	0.25	2.50	1.00	0.75	0.00	0.25	2.25	3.50	0.00	0.25	-0.286621	0.120117	0.918457	-5.040000	2.170000	1.260000	784.00	-0.23	-0.09	0.00	0.00	0.00	0.00	0.00	0.00	0.00	0.00	0.00	0.00	0.00	0.00	0.00	0.00	0.00	0.00	-0.401367	0.281738	1.211426	-97.019997	-229.880005	25.900000	0.00	0.00	0.00
1.60	13.00	15.50	6.25	9.25	4.00	7.00	0.25	2.75	1.25	1.00	0.25	0.75	3.00	4.75	0.00	0.25	-0.290527	0.114746	0.921387	-5.390000	2.100000	1.190000	786.00	-0.21	-0.09	0.00	0.00	0.00	0.00	0.00	0.00	0.00	0.00	0.00	0.00	0.00	0.00	0.00	0.00	0.00	0.00	-0.489746	0.343750	1.253906	-93.029999	-234.080002	32.830002	0.00	0.00	0.00
1.61	13.00	15.25	6.75	10.50	5.00	8.00	0.25	3.00	1.50	0.75	0.50	0.50	4.00	5.00	0.00	0.25	-0.286133	0.118652	0.916504	-5.530000	1.330000	1.120000	845.00	-0.20	-0.09	0.00	0.00	0.00	0.00	0.00	0.00	0.00	0.00	0.00	0.00	0.00	0.00	0.00	0.00	0.00	0.00	-0.563965	0.399902	1.263672	-94.919998	-235.410004	43.540001	0.00	0.00	0.00
1.62	13.50	15.00	6.00	9.50	4.50	7.50	0.25	2.75	1.50	1.00	0.25	1.00	4.25	5.00	0.00	0.50	-0.291504	0.117676	0.919434	-5.740000	0.840000	1.190000	821.00	-0.19	-0.09	0.00	0.00	0.00	0.00	0.00	0.00	0.00	0.00	0.00	0.00	0.00	0.00	0.00	0.00	0.00	0.00	-0.633301	0.485352	1.309082	-103.040001	-234.080002	58.310001	0.00	0.00	0.00
1.63	13.25	15.50	7.00	10.50	5.50	8.00	0.50	2.75	1.50	0.75	0.50	0.50	4.25	5.00	0.00	0.25	-0.282715	0.119141	0.918457	-5.950000	0.700000	1.190000	862.00	-0.20	-0.09	0.00	0.00	0.00	0.00	0.00	0.00	0.00	0.00	0.00	0.00	0.00	0.00	0.00	0.00	0.00	0.00	-0.728516	0.583984	1.369629	-114.940002	-231.210007	77.699997	0.00	0.00	0.00
1.64	13.25	15.25	7.00	10.50	5.75	8.00	0.50	3.00	1.50	1.00	0.50	0.75	4.50	5.25	0.00	0.25	-0.291504	0.115234	0.919434	-6.160000	0.560000	1.190000	877.00	-0.19	-0.09	0.00	0.00	0.00	0.00	0.00	0.00	0.00	0.00	0.00	0.00	0.00	0.00	0.00	0.00	0.00	0.00	-0.814941	0.673340	1.442383	-131.180008	-228.199997	99.400002	0.00	0.00	0.00
1.65	13.25	15.25	7.00	10.50	5.75	8.00	0.25	3.00	1.50	1.50	0.75	1.00	4.75	5.50	0.00	0.25	-0.283203	0.111816	0.920898	-6.160000	0.350000	1.120000	889.00	-0.18	-0.09	0.00	0.00	0.00	0.00	0.00	0.00	0.00	0.00	0.00	0.00	0.00	0.00	0.00	0.00	0.00	0.00	-1.053223	0.865723	1.544922	-171.639999	-224.559998	138.809998	0.00	0.00	0.00
1.66	13.00	15.25	7.00	10.25	5.75	8.00	0.50	3.25	1.75	1.00	0.50	1.00	4.25	5.75	0.00	0.25	-0.280273	0.114258	0.922363	-6.230000	0.350000	1.120000	884.00	-0.18	-0.09	0.00	0.00	0.00	0.00	0.00	0.00	0.00	0.00	0.00	0.00	0.00	0.00	0.00	0.00	0.00	0.00	-1.195801	1.013184	1.666992	-180.949997	-225.050003	152.809998	0.00	0.00	0.00
1.67	13.00	15.00	7.25	10.25	6.25	8.00	0.50	3.25	1.75	1.25	0.50	1.00	4.50	5.75	0.00	0.50	-0.281250	0.114258	0.924805	-6.230000	0.350000	1.120000	897.00	-0.18	-0.09	0.00	0.00	0.00	0.00	0.00	0.00	0.00	0.00	0.00	0.00	0.00	0.00	0.00	0.00	0.00	0.00	-1.316406	1.123047	1.684570	-173.880005	-228.550003	162.050003	0.00	0.00	0.00
1.68	13.00	15.00	7.25	10.25	6.25	8.00	0.50	3.25	2.00	1.25	0.75	1.00	5.00	6.25	0.00	0.50	-0.278809	0.113770	0.916992	-5.880000	0.490000	1.190000	913.00	-0.17	-0.08	0.00	0.00	0.00	0.00	0.00	0.00	0.00	0.00	0.00	0.00	0.00	0.00	0.00	0.00	0.00	0.00	-1.424316	1.188965	1.591309	-156.100006	-232.820007	166.180008	0.00	0.00	0.00
1.69	13.00	15.00	7.50	10.25	6.25	8.25	0.50	3.25	2.25	1.50	0.75	1.00	4.75	6.25	0.00	0.50	-0.281738	0.112305	0.918457	-5.670000	-0.000000	1.190000	923.00	-0.17	-0.08	0.00	0.00	0.00	0.00	0.00	0.00	0.00	0.00	0.00	0.00	0.00	0.00	0.00	0.00	0.00	0.00	-1.520996	1.203613	1.369141	-136.779999	-233.100006	164.220001	0.00	0.00	0.00
1.70	13.50	14.75	7.50	10.25	6.50	8.00	0.50	3.25	2.00	1.25	0.75	0.75	4.75	6.50	0.00	0.50	-0.285156	0.109375	0.918457	-5.320000	-0.070000	1.260000	919.00	-0.17	-0.08	0.00	0.00	0.00	0.00	0.00	0.00	0.00	0.00	0.00	0.00	0.00	0.00	0.00	0.00	0.00	0.00	-1.576172	1.192871	1.119141	-115.150002	-225.540009	155.820007	0.00	0.00	0.00
1.71	13.00	14.75	7.75	10.50	6.50	8.00	0.50	3.25	2.25	1.50	0.75	1.00	4.75	6.50	0.00	0.50	-0.280762	0.113770	0.928223	-5.040000	0.490000	1.260000	929.00	-0.17	-0.08	0.00	0.00	0.00	0.00	0.00	0.00	0.00	0.00	0.00	0.00	0.00	0.00	0.00	0.00	0.00	0.00	-1.480957	1.155762	0.336914	18.129999	-154.559998	151.339996	0.00	0.00	0.00
1.72	13.75	14.50	7.50	10.25	6.75	8.25	0.50	3.00	2.00	1.75	1.00	1.00	4.75	6.75	0.00	0.50	-0.277832	0.108887	0.926270	-4.620000	1.400000	1.330000	935.00	-0.17	-0.08	0.00	0.00	0.00	0.00	0.00	0.00	0.00	0.00	0.00	0.00	0.00	0.00	0.00	0.00	0.00	0.00	-2.452148	1.410645	-0.382324	149.800003	-93.449997	130.199997	0.00	0.00	0.00
1.73	13.50	14.75	7.50	10.25	7.00	8.00	0.50	3.25	2.25	1.50	0.75	1.00	4.50	6.75	0.00	0.50	-0.277344	0.110840	0.925781	-4.270000	2.310000	1.330000	935.00	-0.17	-0.08	0.00	0.00	0.00	0.00	0.00	0.00	0.00	0.00	0.00	0.00	0.00	0.00	0.00	0.00	0.00	0.00	-2.744629	0.779297	0.086914	155.330002	-51.590000	109.340004	0.00	0.00	0.00
1.74	13.00	14.50	7.50	10.25	7.00	7.75	0.50	3.50	2.75	1.50	0.75	1.00	5.00	7.00	0.00	0.50	-0.281738	0.103027	0.924805	-4.270000	3.010000	1.400000	942.00	-0.16	-0.08	0.00	0.00	0.00	0.00	0.00	0.00	0.00	0.00	0.00	0.00	0.00	0.00	0.00	0.00	0.00	0.00	-2.598145	0.837891	0.473633	102.900002	-25.900000	88.690002	0.00	0.00	0.00
1.75	13.00	14.25	7.50	10.00	7.25	7.75	0.50	3.25	3.00	1.50	1.00	1.00	4.75	7.00	0.00	0.50	-0.278809	0.109863	0.922363	-4.130000	3.500000	1.330000	939.00	-0.16	-0.07	0.00	0.00	0.00	0.00	0.00	0.00	0.00	0.00	0.00	0.00	0.00	0.00	0.00	0.00	0.00	0.00	-2.509277	0.668945	0.040039	69.090004	-16.590000	73.989998	0.00	0.00	0.00
1.76	13.00	13.75	7.50	9.75	7.25	7.75	0.50	3.25	3.00	1.50	1.00	1.25	4.50	7.00	0.00	0.75	-0.278809	0.112793	0.926270	-3.780000	3.920000	1.330000	933.00	-0.15	-0.07	0.00	0.00	0.00	0.00	0.00	0.00	0.00	0.00	0.00	0.00	0.00	0.00	0.00	0.00	0.00	0.00	-2.330566	0.185059	-0.289062	83.650002	5.530000	62.860001	0.00	0.00	0.00
1.77	12.50	13.75	7.50	9.75	7.00	7.50	0.50	3.00	2.75	1.50	1.00	1.00	4.50	7.25	0.00	0.50	-0.282227	0.113770	0.932129	-3.220000	5.250000	1.470000	912.00	-0.16	-0.07	0.00	0.00	0.00	0.00	0.00	0.00	0.00	0.00	0.00	0.00	0.00	0.00	0.00	0.00	0.00	0.00	-2.173828	-0.127441	0.062012	104.440002	40.880001	52.639999	0.00	0.00	0.00
1.78	12.25	13.25	7.50	9.50	7.00	7.50	0.50	3.00	2.50	1.75	0.75	1.00	4.75	7.25	0.00	0.75	-0.283691	0.110352	0.924316	-2.660000	6.720000	1.470000	901.00	-0.15	-0.07	0.00	0.00	0.00	0.00	0.00	0.00	0.00	0.00	0.00	0.00	0.00	0.00	0.00	0.00	0.00	0.00	0.212891	0.339355	1.621094	54.740002	59.430000	-7.280000	0.00	0.00	0.00
1.79	11.75	12.75	7.50	9.50	7.00	7.25	0.50	2.50	2.75	1.75	1.00	1.00	4.25	7.00	0.00	0.75	-0.280762	0.110840	0.920898	-2.380000	7.910000	1.610000	879.00	-0.15	-0.07	0.25	0.00	0.00	0.00	0.00	0.00	0.00	0.00	0.00	0.00	0.00	0.00	0.00	0.00	0.00	0.00	0.025879	0.148926	0.466797	-0.630000	17.920000	-24.990000	3.00	0.00	0.00
1.80	11.25	12.25	7.25	9.25	7.00	6.75	0.50	2.75	2.50	1.75	0.75	0.75	4.00	7.00	0.00	0.50	-0.280273	0.107422	0.921875	-1.820000	9.380000	1.610000	847.00	-0.15	-0.07	0.75	0.50	0.00	0.00	0.00	0.00	0.00	0.00	0.00	0.00	0.00	0.00	0.00	0.00	0.00	0.00	-0.216309	0.284180	0.447266	-46.060001	35.840000	-41.230000	14.00	0.00	0.00
1.81	10.75	12.00	7.00	9.00	6.75	6.50	0.25	2.25	3.00	1.50	0.75	1.00	3.50	7.00	0.00	0.50	-0.281738	0.105957	0.921387	-1.610000	10.710000	1.680000	817.00	-0.15	-0.06	1.00	0.75	0.00	0.00	0.00	0.00	0.00	0.00	0.00	0.00	0.00	0.00	0.00	0.00	0.00	0.00	-0.022949	0.585449	0.694824	-64.680000	50.959999	-39.060001	19.00	0.00	0.00
1.82	10.25	11.50	7.00	8.75	6.75	6.25	0.50	2.00	2.75	1.75	0.75	0.75	3.50	7.25	0.00	0.50	-0.284180	0.113770	0.922852	-1.750000	11.270000	1.750000	799.00	-0.15	-0.06	2.00	1.25	0.50	0.50	0.00	0.00	0.00	0.00	0.00	0.00	0.00	0.00	0.00	0.00	0.00	0.00	-0.160645	0.559082	0.636230	-74.410004	60.340000	-26.250000	47.00	0.00	0.00
1.83	10.25	11.50	6.75	8.50	6.50	6.00	0.25	1.75	2.75	1.75	0.75	0.75	3.50	7.00	0.00	0.25	-0.284668	0.114258	0.919922	-1.680000	10.990000	1.750000	775.00	-0.15	-0.06	2.75	2.50	0.75	0.75	0.25	0.00	0.00	0.00	0.00	0.00	0.00	0.00	0.00	0.00	0.00	0.00	-0.180664	0.769531	0.847656	-34.930000	81.340004	8.820000	77.00	-0.37	-0.02
1.84	10.00	11.00	6.75	8.50	6.50	5.25	0.50	1.50	2.50	1.50	0.50	0.25	3.25	6.75	0.00	0.25	-0.285645	0.108887	0.924316	-1.260000	11.480000	1.750000	738.00	-0.16	-0.05	4.50	4.00	1.25	1.50	0.25	0.00	0.00	0.00	0.00	0.00	0.00	0.00	0.00	0.00	0.00	0.00	-0.241699	0.195312	0.903320	10.640000	93.519997	45.849998	127.00	-0.37	-0.03
1.85	9.75	11.00	6.50	8.25	6.25	5.25	0.25	1.50	2.50	1.25	0.50	0.75	2.75	6.50	0.00	0.25	-0.291504	0.109863	0.923828	-0.770000	12.670000	1.750000	718.00	-0.16	-0.05	5.75	6.25	1.50	2.00	0.50	0.00	0.00	0.00	0.00	0.00	0.00	0.00	0.00	0.00	0.00	0.00	-0.342285	-0.280762	1.159180	27.370001	96.809998	51.240002	176.00	-0.37	-0.04
1.86	10.00	10.75	6.25	8.00	6.25	5.00	0.25	1.00	2.25	1.25	0.25	0.50	2.25	6.25	0.00	0.25	-0.288574	0.116211	0.926270	-0.560000	13.720000	1.820000	685.00	-0.17	-0.04	6.25	7.50	1.50	2.50	0.50	0.00	0.00	0.00	0.00	0.00	0.00	0.00	0.25	0.00	0.00	0.00	-0.443848	-0.312988	1.520020	29.049999	85.120003	34.090000	203.00	-0.36	-0.05
1.87	9.75	10.75	6.25	7.75	6.00	3.75	0.25	0.75	2.25	1.25	0.00	0.25	2.00	6.25	0.00	0.25	-0.296875	0.114746	0.921387	-0.770000	14.910000	1.820000	649.00	-0.17	-0.03	8.00	9.00	2.00	3.75	0.75	0.00	0.00	0.00	0.00	0.00	0.00	0.00	0.50	0.00	0.00	0.00	-0.725586	-0.343262	1.667969	32.060001	57.400002	14.000000	264.00	-0.36	-0.06
1.88	9.50	10.25	6.25	7.75	6.00	3.50	0.25	0.50	2.00	1.25	0.25	0.25	2.25	6.00	0.00	0.25	-0.294922	0.104492	0.920410	-0.980000	15.890000	1.610000	633.00	-0.17	-0.03	9.25	10.25	2.50	4.25	0.75	0.00	0.00	0.00	0.00	0.00	0.00	0.00	0.25	0.00	0.00	0.00	-0.467773	0.022949	1.721680	25.059999	17.780001	-6.160000	301.00	-0.36	-0.05
1.89	9.25	10.00	6.25	7.50	5.50	2.75	0.25	0.25	1.75	1.25	0.50	0.25	1.75	5.75	0.00	0.00	-0.293945	0.115234	0.933594	-1.120000	16.730000	1.610000	596.00	-0.18	-0.03	9.50	11.00	2.25	4.25	1.00	0.00	0.00	0.00	0.00	0.00	0.00	0.00	0.50	0.00	0.00	0.00	-0.239746	0.225586	0.941406	19.600000	-21.559999	-12.740000	313.00	-0.36	-0.05
1.90	9.25	9.50	6.00	7.25	5.25	2.50	0.25	0.25	1.75	1.00	0.50	0.00	1.50	5.50	0.00	0.00	-0.298828	0.108887	0.922363	-1.050000	18.059999	1.610000	569.00	-0.18	-0.02	10.25	12.00	2.50	5.00	0.75	0.00	0.00	0.00	0.00	0.00	0.00	0.00	0.00	0.00	0.00	0.00	-0.314941	0.328125	1.130371	23.379999	-25.410000	-6.930000	336.00	-0.37	-0.05
1.91	9.00	9.25	5.75	6.75	5.00	1.50	0.25	0.00	2.00	1.25	0.25	0.00	1.25	5.50	0.00	0.00	-0.299316	0.113281	0.939453	-0.980000	19.250000	1.540000	537.00	-0.18	-0.01	10.75	13.00	2.50	5.00	0.75	0.00	0.00	0.00	0.00	0.00	0.00	0.00	0.50	0.00	0.00	0.00	-0.279785	0.291016	0.992676	21.840000	-31.990000	0.280000	357.00	-0.36	-0.06
1.92	8.50	9.00	5.50	6.50	5.00	0.75	0.25	0.00	1.75	1.00	0.00	0.00	0.50	5.25	0.00	0.00	-0.298828	0.113770	0.910156	-1.470000	20.580000	1.540000	495.00	-0.19	0.00	11.75	14.00	2.50	5.00	1.00	0.00	0.00	0.00	0.00	0.00	0.00	0.00	0.50	0.00	0.00	0.00	-0.243164	0.290527	0.889648	15.820000	-32.549999	4.550000	381.00	-0.36	-0.06
1.93	8.25	8.75	5.50	6.00	4.75	1.25	0.25	0.00	1.25	1.00	0.00	0.00	0.50	5.00	0.00	0.00	-0.301270	0.121582	0.927246	-2.310000	20.930000	1.260000	477.00	-0.20	-0.01	13.25	15.75	2.75	5.50	0.75	0.00	0.00	0.00	0.00	0.00	0.00	0.00	0.75	0.25	0.00	0.00	-0.217773	0.310547	0.846680	7.770000	-30.240000	7.630000	426.00	-0.36	-0.06
1.94	8.25	8.50	5.25	5.75	4.00	0.25	0.25	0.00	1.00	0.75	0.00	0.00	0.50	4.50	0.00	0.00	-0.314941	0.111816	0.936523	-3.360000	21.770000	1.120000	436.00	-0.21	-0.00	14.50	17.25	3.00	6.00	0.75	0.00	0.00	0.00	0.00	0.00	0.00	0.00	0.50	0.25	0.00	0.00	-0.172852	0.295410	0.754395	1.960000	-25.200001	12.040000	462.00	-0.36	-0.05
1.95	7.50	8.00	5.00	5.25	3.75	0.25	0.25	0.00	1.00	0.50	0.00	0.00	0.00	3.50	0.00	0.00	-0.135254	0.181152	0.865723	-3.010000	27.860001	-2.310000	394.00	-0.23	0.00	15.75	18.75	3.25	7.00	1.00	0.25	0.00	0.00	0.00	0.00	0.00	0.00	1.00	0.50	0.00	0.00	-0.137207	0.240723	0.725586	-0.000000	-16.520000	16.520000	520.00	-0.35	-0.06
1.96	6.50	7.50	4.50	4.75	3.25	0.00	0.00	0.00	1.25	0.50	0.00	0.00	0.00	3.25	0.00	0.00	-0.265625	0.164551	0.912109	-7.070000	30.380001	-3.850000	354.00	-0.22	0.00	17.75	20.75	4.00	7.50	1.00	0.50	0.00	0.00	0.00	0.00	0.00	0.00	0.75	0.25	0.00	0.00	-0.141602	0.128418	0.788574	0.560000	-6.580000	18.200001	576.00	-0.36	-0.06
1.97	6.25	6.75	3.75	4.00	2.50	0.00	0.25	0.00	1.50	0.50	0.00	0.00	0.00	2.75	0.00	0.00	-0.365234	0.024414	0.965820	-19.950001	34.299999	-19.040001	319.00	-0.22	0.01	19.50	22.50	4.50	8.25	1.25	0.50	0.00	0.00	0.00	0.00	0.00	0.25	1.25	0.50	0.00	0.00	-0.140625	0.022949	0.831055	0.980000	0.490000	15.470000	641.00	-0.35	-0.06
1.98	4.00	5.00	0.50	2.25	2.00	0.00	0.00	0.00	0.00	0.00	0.00	0.00	0.00	2.50	0.00	0.00	-0.415527	0.072266	1.007324	-34.509998	37.869999	-38.080002	176.00	-0.24	-0.02	21.00	23.75	5.00	9.25	1.25	0.75	0.00	0.00	0.00	0.00	0.00	0.00	1.25	0.50	0.00	0.00	-0.104004	-0.045410	0.781250	4.270000	6.510000	8.820000	689.00	-0.35	-0.06
1.99	1.50	3.50	0.00	0.00	0.50	0.00	0.00	0.00	0.00	0.00	0.00	0.00	0.00	1.75	0.00	0.00	-0.500488	0.385254	0.996094	-55.090000	36.610001	-61.810001	74.00	-0.21	-0.01	22.50	25.75	5.00	9.75	1.00	1.00	0.00	0.00	0.00	0.00	0.00	0.25	1.25	0.50	0.00	0.00	-0.134766	-0.074219	0.870605	13.230000	13.230000	0.350000	735.00	-0.35	-0.06
2.00	3.25	5.00	1.50	1.50	1.00	0.00	0.00	0.00	0.75	0.50	0.00	0.00	0.00	1.50	0.00	0.00	-0.557129	0.656738	0.900391	-63.700001	28.700001	-88.410004	166.00	-0.23	-0.00	23.75	26.75	5.25	10.50	1.50	1.25	0.00	0.00	0.00	0.00	0.00	0.25	1.25	0.50	0.00	0.00	-0.287598	0.274414	1.057129	21.840000	16.100000	-14.280000	780.00	-0.35	-0.06
2.01	2.50	4.50	1.00	1.00	0.75	0.00	0.00	0.00	0.50	0.25	0.00	0.00	0.00	1.50	0.00	0.00	-0.657715	0.472168	0.939453	-64.190002	19.950001	-117.739998	131.00	-0.23	-0.01	24.00	27.75	5.50	11.25	1.50	2.00	0.00	0.00	0.00	0.00	0.00	0.25	1.25	0.50	0.00	0.00	-0.287598	0.274414	1.057129	21.840000	16.100000	-14.280000	814.00	-0.35	-0.06
2.02	1.00	3.75	0.75	0.50	1.00	0.00	0.00	0.00	0.75	0.00	0.00	0.00	0.00	0.75	0.00	0.00	-0.734863	0.383789	1.168457	-63.560001	14.280000	-152.529999	94.00	-0.22	-0.01	24.25	28.25	5.75	11.75	1.75	2.25	0.00	0.00	0.00	0.00	0.00	0.25	1.50	0.75	0.00	0.00	-0.241211	0.286133	0.938965	8.680000	15.610000	-2.940000	842.00	-0.34	-0.07
2.03	1.75	3.50	0.50	0.50	0.50	0.00	0.00	0.00	0.50	0.00	0.00	0.00	0.00	0.75	0.00	0.00	-0.678223	0.335449	0.980469	-53.830002	23.379999	-187.740005	87.00	-0.25	-0.01	24.75	28.75	5.50	12.25	1.75	2.50	0.00	0.00	0.00	0.00	0.00	0.25	2.00	0.50	0.00	0.00	-0.257812	0.168945	1.094238	3.430000	12.670000	0.140000	861.00	-0.34	-0.07
2.04	1.50	1.75	0.25	0.50	0.50	0.00	0.00	0.00	0.25	0.25	0.00	0.00	0.00	0.50	0.00	0.00	-0.578613	0.327148	0.954102	-39.830002	33.320000	-215.529999	61.00	-0.23	0.00	25.50	29.00	5.75	12.75	1.50	2.75	0.00	0.00	0.00	0.00	0.00	0.25	1.75	0.75	0.00	0.00	-0.241699	0.223145	0.997070	0.490000	5.670000	-0.210000	881.00	-0.34	-0.07
2.05	1.00	2.00	0.50	0.25	0.25	0.00	0.00	0.00	0.00	0.00	0.00	0.00	0.00	0.50	0.00	0.00	-0.513672	0.328613	1.069336	-29.540001	39.410000	-236.320007	48.00	0.00	0.00	24.75	29.00	5.75	12.75	1.75	2.50	0.00	0.00	0.00	0.00	0.00	0.25	2.00	0.75	0.00	0.00	-0.246582	0.266113	0.961914	-2.450000	2.800000	1.890000	875.00	-0.34	-0.07
2.06	0.50	1.75	0.25	0.00	0.25	0.00	0.00	0.00	0.00	0.00	0.00	0.00	0.00	0.00	0.00	0.00	-0.445801	0.354492	1.050781	-28.280001	42.840000	-251.020004	29.00	0.00	0.00	24.75	28.75	6.00	13.00	1.75	2.75	0.00	0.00	0.00	0.00	0.00	0.25	1.50	0.50	0.00	0.00	-0.241699	0.213379	0.990234	-5.040000	1.260000	4.410000	874.00	-0.34	-0.07
2.07	0.50	1.50	0.00	0.25	0.25	0.00	0.00	0.00	0.00	0.00	0.00	0.00	0.00	0.00	0.00	0.00	-0.431152	0.620605	1.024902	-32.060001	45.430000	-258.860016	27.00	0.00	0.00	25.75	29.25	6.00	12.75	1.75	2.75	0.00	0.00	0.00	0.00	0.00	0.25	2.00	0.50	0.00	0.00	-0.220215	0.166016	0.939453	-5.320000	-0.420000	4.900000	892.00	-0.34	-0.07
2.08	0.00	1.50	0.00	0.00	0.25	0.00	0.00	0.00	0.00	0.00	0.00	0.00	0.00	0.00	0.00	0.00	-0.460449	0.974609	0.962891	-23.940001	50.750000	-250.669998	18.00	0.00	0.00	25.50	29.50	6.25	13.25	1.75	2.75	0.00	0.00	0.00	0.00	0.00	0.25	1.50	0.50	0.00	0.00	-0.205078	0.148438	0.894531	-4.550000	0.560000	3.780000	896.00	-0.34	-0.07
2.09	0.25	1.25	0.00	0.00	0.25	0.00	0.00	0.00	0.00	0.00	0.00	0.00	0.00	0.00	0.00	0.00	-0.398438	1.232422	1.175781	14.840000	51.590000	-226.589996	18.00	0.00	0.00	25.25	29.00	6.25	13.25	1.75	3.00	0.00	0.00	0.00	0.00	0.00	0.50	1.50	0.75	0.00	0.00	-0.194336	0.140137	0.850586	-4.550000	3.920000	1.680000	896.00	-0.34	-0.07
2.10	0.25	1.25	0.00	0.00	0.25	0.00	0.00	0.00	0.00	0.00	0.00	0.00	0.00	0.00	0.00	0.00	-0.356934	1.057617	1.026367	51.310001	50.610001	-199.710007	18.00	0.00	0.00	24.75	29.25	6.25	13.50	1.75	3.00	0.00	0.00	0.00	0.00	0.00	0.25	1.50	0.50	0.00	0.00	-0.199219	0.169922	0.845703	-4.200000	10.150000	-0.840000	891.00	-0.34	-0.07
2.11	0.25	1.75	0.00	0.00	0.50	0.00	0.00	0.00	0.00	0.00	0.00	0.00	0.00	0.00	0.00	0.00	-0.287109	0.989258	0.903809	57.959999	54.529999	-172.759995	26.00	0.00	0.00	25.00	28.75	6.25	13.25	1.75	3.25	0.00	0.00	0.00	0.00	0.00	0.25	1.75	0.25	0.00	0.00	-0.250488	0.205566	1.003418	-3.150000	12.180000	-1.750000	889.00	-0.34	-0.07
2.12	0.25	1.25	0.00	0.00	0.25	0.00	0.00	0.00	0.00	0.00	0.00	0.00	0.00	0.00	0.00	0.00	-0.228516	1.041992	0.890137	59.639999	67.900002	-102.970001	18.00	0.00	0.00	24.50	28.75	6.50	13.50	1.75	3.00	0.00	0.00	0.00	0.00	0.00	0.50	1.50	0.50	0.00	0.00	-0.248535	0.225586	0.991699	-3.290000	8.750000	-0.560000	889.00	-0.34	-0.07
2.13	0.00	1.25	0.00	0.00	0.25	0.00	0.00	0.00	0.00	0.00	0.00	0.00	0.00	0.00	0.00	0.00	-0.163574	0.936523	0.887695	65.660004	75.389999	-63.070000	16.00	0.00	0.00	24.25	28.25	6.50	13.75	1.75	3.25	0.00	0.00	0.00	0.00	0.00	0.00	1.75	0.25	0.00	0.00	-0.244141	0.217773	0.962402	-3.500000	6.370000	0.910000	882.00	-0.34	-0.07
2.14	0.25	1.00	0.00	0.00	0.50	0.00	0.00	0.00	0.00	0.00	0.00	0.00	0.00	0.00	0.00	0.00	-0.098633	0.820801	0.917969	67.129997	83.019997	-24.219999	19.00	0.00	0.00	24.25	28.75	6.25	13.50	1.75	3.50	0.00	0.00	0.00	0.00	0.00	0.25	1.75	0.50	0.00	0.00	-0.238770	0.193848	0.961914	-2.450000	-1.610000	2.870000	889.00	-0.34	-0.07
2.15	0.00	1.25	0.00	0.00	0.25	0.00	0.00	0.00	0.00	0.00	0.00	0.00	0.00	0.00	0.00	0.00	-0.046387	0.711426	0.970703	65.730003	88.690002	11.760000	16.00	0.00	0.00	24.00	28.25	6.50	13.25	2.00	3.00	0.00	0.00	0.00	0.00	0.00	0.50	1.75	0.25	0.00	0.00	-0.220703	0.186035	0.906738	-2.590000	-2.100000	3.080000	879.00	-0.34	-0.07
2.16	0.00	1.25	0.00	0.00	0.25	0.00	0.00	0.00	0.00	0.00	0.00	0.00	0.00	0.00	0.00	0.00	-0.000977	0.600098	1.011230	64.820000	90.930000	43.330002	16.00	0.00	0.00	23.75	28.00	6.25	13.50	1.75	3.25	0.00	0.00	0.00	0.00	0.00	0.00	1.25	0.50	0.00	0.00	-0.227539	0.168457	0.946777	-2.450000	-1.050000	2.520000	865.00	-0.34	-0.07
2.17	0.00	1.00	0.00	0.00	0.50	0.00	0.00	0.00	0.00	0.00	0.00	0.00	0.00	0.00	0.00	0.00	0.029297	0.481445	1.037109	65.519997	89.949997	69.090004	16.00	0.00	0.00	23.75	28.00	6.50	13.50	1.50	3.25	0.00	0.00	0.00	0.00	0.00	0.25	1.50	0.25	0.00	0.00	-0.230957	0.162598	0.958984	-1.890000	-2.240000	1.610000	868.00	-0.34	-0.07
2.18	0.00	0.75	0.00	0.00	0.00	0.00	0.00	0.00	0.00	0.00	0.00	0.00	0.00	0.25	0.00	0.00	0.077637	0.340820	0.996582	66.849998	86.870003	88.340004	10.00	0.00	0.00	23.50	27.75	6.25	13.25	1.75	3.25	0.00	0.00	0.00	0.00	0.00	0.00	1.25	0.50	0.00	0.25	-0.221191	0.186523	0.906738	-1.400000	-2.800000	0.700000	858.00	-0.34	-0.07
2.19	0.25	1.25	0.00	0.00	0.00	0.00	0.00	0.00	0.00	0.00	0.00	0.00	0.00	0.25	0.00	0.00	0.117676	0.147949	0.945801	69.790001	83.720001	102.480003	18.00	0.00	0.00	24.00	27.50	6.50	13.25	1.75	3.25	0.00	0.00	0.00	0.00	0.00	0.25	1.50	0.25	0.00	0.00	-0.208008	0.196777	0.881348	-2.520000	-0.770000	-0.000000	866.00	-0.34	-0.07
2.20	0.25	0.25	0.00	0.00	0.00	0.00	0.00	0.00	0.00	0.00	0.00	0.00	0.00	0.00	0.00	0.00	0.125000	0.001953	0.963379	69.370003	81.830002	108.360001	5.00	0.00	0.00	23.50	27.25	6.50	13.25	1.50	3.25	0.00	0.00	0.00	0.00	0.00	0.00	1.25	0.25	0.00	0.00	-0.197266	0.178711	0.837891	-4.900000	3.150000	-0.630000	849.00	-0.35	-0.07
2.21	0.00	0.50	0.00	0.00	0.00	0.00	0.00	0.00	0.00	0.00	0.00	0.00	0.00	0.00	0.00	0.00	0.167480	-0.079590	1.076660	73.570000	77.070000	108.989998	5.00	0.00	0.00	23.25	27.50	6.50	13.25	1.75	3.25	0.00	0.00	0.00	0.00	0.00	0.00	1.50	0.50	0.00	0.00	-0.204590	0.174805	0.846680	-7.140000	8.610000	-1.890000	857.00	-0.34	-0.07
2.22	0.25	0.25	0.00	0.00	0.25	0.00	0.00	0.00	0.00	0.00	0.00	0.00	0.00	0.00	0.00	0.00	0.211426	-0.201172	1.156250	78.050003	67.059998	106.470001	8.00	0.00	0.00	23.25	27.25	6.75	13.50	2.00	3.50	0.00	0.00	0.00	0.00	0.00	0.00	1.25	0.25	0.00	0.00	-0.228516	0.187988	0.901855	-8.610000	12.740000	-2.870000	861.00	-0.34	-0.07
2.23	0.00	0.75	0.00	0.00	0.00	0.00	0.00	0.00	0.00	0.00	0.00	0.00	0.00	0.00	0.00	0.00	0.254395	-0.291504	1.171387	73.220001	53.130001	100.590004	8.00	0.00	0.00	23.00	27.25	7.00	13.50	2.00	3.50	0.00	0.00	0.00	0.00	0.00	0.00	1.25	0.50	0.00	0.00	-0.243652	0.201660	0.937012	-8.890000	14.140000	-2.940000	864.00	-0.34	-0.07
2.24	0.00	0.75	0.00	0.00	0.00	0.00	0.00	0.00	0.00	0.00	0.00	0.00	0.00	0.00	0.00	0.00	0.280273	-0.315918	1.163574	63.490002	38.639999	92.610001	8.00	0.00	0.00	23.50	27.25	6.75	13.75	2.00	3.75	0.00	0.00	0.00	0.00	0.00	0.00	1.25	0.50	0.00	0.00	-0.271973	0.183105	0.987305	-10.640000	4.690000	-1.610000	873.00	-0.34	-0.07
2.25	0.25	0.25	0.00	0.00	0.00	0.00	0.00	0.00	0.00	0.00	0.00	0.00	0.00	0.00	0.00	0.00	0.303223	-0.295410	1.173828	54.040001	24.639999	83.720001	5.00	0.00	0.00	23.50	27.00	7.00	14.00	2.00	3.75	0.00	0.00	0.00	0.00	0.00	0.00	1.25	0.50	0.00	0.00	-0.245605	0.196289	0.954590	-5.810000	1.540000	-0.980000	876.00	-0.34	-0.07
2.26	0.00	0.75	0.00	0.00	0.25	0.00	0.00	0.00	0.00	0.00	0.00	0.00	0.00	0.00	0.00	0.00	0.320801	-0.263672	1.181641	45.220001	11.060000	74.480003	11.00	0.00	0.00	23.50	26.75	7.00	13.75	2.00	3.75	0.00	0.00	0.00	0.00	0.00	0.25	1.25	0.50	0.00	0.00	-0.227051	0.181152	0.916504	-5.880000	1.400000	-0.840000	874.00	-0.34	-0.07
2.27	0.00	0.75	0.00	0.00	0.00	0.00	0.00	0.00	0.00	0.00	0.00	0.00	0.00	0.00	0.00	0.00	0.318359	-0.132812	1.200195	35.490002	-15.820000	58.170002	8.00	0.00	0.00	23.25	27.00	7.00	14.00	2.00	3.75	0.00	0.00	0.00	0.00	0.00	0.00	1.00	0.25	0.00	0.00	-0.226562	0.178711	0.917969	-6.720000	1.470000	-1.050000	869.00	-0.34	-0.07
2.28	0.25	0.25	0.00	0.00	0.00	0.00	0.00	0.00	0.00	0.00	0.00	0.00	0.00	0.00	0.00	0.00	0.303223	-0.114258	1.170898	37.240002	-28.210001	52.220001	5.00	0.00	0.00	23.25	26.75	7.25	14.00	2.00	3.75	0.00	0.00	0.00	0.00	0.00	0.25	1.25	0.25	0.00	0.00	-0.235352	0.189453	0.933594	-7.420000	1.680000	-1.190000	874.00	-0.34	-0.07
2.29	0.00	0.50	0.00	0.00	0.00	0.00	0.00	0.00	0.00	0.00	0.00	0.00	0.00	0.00	0.00	0.00	0.258789	-0.109863	1.139160	38.360001	-38.220001	47.459999	5.00	0.00	0.00	23.25	26.75	7.00	14.00	2.00	4.25	0.00	0.00	0.00	0.00	0.00	0.00	1.00	0.50	0.00	0.00	-0.234863	0.187012	0.927246	-8.750000	1.960000	-1.120000	874.00	-0.34	-0.07
2.30	0.00	0.25	0.00	0.00	0.00	0.00	0.00	0.00	0.00	0.00	0.00	0.00	0.00	0.00	0.00	0.00	0.215332	-0.099609	1.112793	37.660000	-44.730000	43.889999	3.00	0.00	0.00	22.75	26.50	7.25	14.00	2.00	3.75	0.00	0.00	0.00	0.00	0.00	0.25	1.25	0.25	0.00	0.00	-0.232910	0.183105	0.918457	-10.640000	2.310000	-1.330000	866.00	-0.34	-0.07
2.31	0.00	0.50	0.00	0.00	0.00	0.00	0.00	0.00	0.00	0.00	0.00	0.00	0.00	0.00	0.00	0.00	0.169922	-0.061523	1.093262	37.029999	-47.670002	42.770000	5.00	0.00	0.00	23.50	26.25	7.25	14.25	2.25	4.00	0.00	0.00	0.00	0.00	0.00	0.00	1.75	0.50	0.00	0.00	-0.229492	0.184082	0.928711	-12.810000	2.660000	-1.470000	885.00	-0.33	-0.07
2.32	0.00	1.25	0.00	0.00	0.00	0.00	0.00	0.00	0.00	0.00	0.00	0.00	0.00	0.00	0.00	0.00	0.126953	-0.010742	1.152344	37.869999	-48.509998	45.220001	13.00	0.00	0.00	23.00	26.25	7.75	14.25	2.25	4.50	0.00	0.00	0.00	0.00	0.00	0.00	1.50	0.25	0.00	0.00	-0.243652	0.181152	0.946289	-13.860000	2.520000	-1.540000	887.00	-0.34	-0.07
2.33	0.00	0.25	0.00	0.00	0.00	0.00	0.00	0.00	0.00	0.00	0.00	0.00	0.00	0.00	0.00	0.00	0.078125	0.030762	1.283203	38.920002	-50.540001	51.590000	3.00	0.00	0.00	23.00	26.25	7.50	14.00	2.50	4.25	0.00	0.00	0.00	0.00	0.00	0.00	1.50	0.50	0.00	0.00	-0.236816	0.180664	0.947266	-13.510000	2.170000	-1.330000	883.00	-0.33	-0.07
2.34	0.00	0.25	0.00	0.00	0.00	0.00	0.00	0.00	0.00	0.00	0.00	0.00	0.00	0.00	0.00	0.00	0.027832	0.082031	1.368652	39.270000	-56.770000	61.250000	3.00	0.00	0.00	22.75	26.00	7.50	14.25	2.50	4.25	0.00	0.00	0.00	0.00	0.00	0.00	1.25	0.50	0.00	0.00	-0.238770	0.180176	0.962402	-12.390000	1.820000	-1.330000	879.00	-0.33	-0.07
2.35	0.00	0.00	0.00	0.00	0.00	0.00	0.00	0.00	0.00	0.00	0.00	0.00	0.00	0.00	0.00	0.00	-0.021973	0.108887	1.470215	37.380001	-66.709999	72.660004	0.00	0.00	0.00	23.00	26.25	8.00	14.25	2.75	4.25	0.00	0.00	0.00	0.00	0.00	0.00	1.00	0.25	0.00	0.00	-0.241699	0.171875	0.945312	-10.570000	1.190000	-1.050000	888.00	-0.34	-0.07
2.36	0.00	0.50	0.00	0.00	0.00	0.00	0.00	0.00	0.00	0.00	0.00	0.00	0.00	0.00	0.00	0.00	-0.070312	0.102051	1.529785	32.759998	-80.220001	84.559998	5.00	0.00	0.00	22.75	26.00	7.75	14.25	2.50	4.25	0.00	0.00	0.00	0.00	0.00	0.00	1.50	0.50	0.00	0.00	-0.243164	0.171875	0.944824	-9.450000	0.840000	-0.840000	884.00	-0.33	-0.07
2.37	0.00	0.00	0.00	0.00	0.00	0.00	0.00	0.00	0.00	0.00	0.00	0.00	0.00	0.25	0.00	0.00	-0.110840	0.086426	1.544434	24.710001	-95.340004	95.410004	2.00	0.00	0.00	22.50	25.75	7.75	14.50	2.75	4.25	0.00	0.00	0.00	0.00	0.00	0.00	1.25	0.50	0.00	0.00	-0.231934	0.168945	0.943848	-8.540000	0.630000	-0.630000	882.00	-0.33	-0.07
2.38	0.00	0.00	0.00	0.00	0.00	0.00	0.00	0.00	0.00	0.00	0.00	0.00	0.00	0.00	0.00	0.00	-0.162109	0.053711	1.460938	14.630000	-109.129997	103.739998	0.00	0.00	0.00	22.50	26.00	8.00	14.75	2.75	4.75	0.00	0.00	0.00	0.00	0.00	0.00	1.50	0.50	0.00	0.00	-0.239258	0.166992	0.936523	-8.750000	0.210000	-0.770000	899.00	-0.33	-0.07
2.39	0.00	0.00	0.00	0.00	0.00	0.00	0.00	0.00	0.00	0.00	0.00	0.00	0.00	0.00	0.00	0.00	-0.222168	0.016602	1.360840	5.880000	-117.389999	108.570000	0.00	0.00	0.00	22.50	25.75	8.00	14.50	3.00	5.00	0.00	0.00	0.00	0.00	0.00	0.00	1.50	0.50	0.00	0.00	-0.231934	0.169434	0.936523	-9.310000	-0.210000	-0.770000	900.00	-0.33	-0.07
2.40	0.00	0.00	0.00	0.00	0.00	0.00	0.00	0.00	0.00	0.00	0.00	0.00	0.00	0.00	0.00	0.00	-0.282227	-0.017090	1.283691	1.680000	-119.629997	110.110001	0.00	0.00	0.00	22.25	25.75	8.00	14.50	2.75	4.75	0.00	0.00	0.00	0.00	0.00	0.00	1.50	0.50	0.00	0.00	-0.239258	0.173828	0.943848	-9.800000	-0.280000	-0.910000	891.00	-0.33	-0.07
2.41	0.00	0.00	0.00	0.00	0.25	0.00	0.00	0.00	0.00	0.00	0.00	0.00	0.00	0.00	0.00	0.00	-0.325195	-0.064453	1.244629	0.210000	-117.739998	108.989998	3.00	0.00	0.00	22.50	25.50	7.75	14.50	3.00	4.75	0.00	0.00	0.00	0.00	0.00	0.00	2.00	0.50	0.00	0.00	-0.235352	0.167969	0.945801	-10.220000	-0.350000	-0.980000	896.00	-0.33	-0.07
2.42	0.00	0.00	0.00	0.00	0.00	0.00	0.00	0.00	0.00	0.00	0.00	0.00	0.00	0.00	0.00	0.00	-0.380371	-0.128906	1.210938	-4.900000	-110.459999	99.680000	0.00	0.00	0.00	21.75	25.75	7.75	14.50	3.25	5.25	0.00	0.25	0.00	0.00	0.25	0.25	2.25	0.50	0.00	0.00	-0.232422	0.168945	0.931641	-10.500000	-0.770000	-0.910000	911.00	-0.32	-0.08
2.43	0.00	0.50	0.00	0.00	0.00	0.00	0.00	0.00	0.00	0.00	0.00	0.00	0.00	0.00	0.00	0.00	-0.383301	-0.161621	1.167480	-8.050000	-106.750000	92.470001	5.00	0.00	0.00	22.00	25.25	8.00	14.50	3.25	5.00	0.00	0.00	0.00	0.00	0.00	0.00	1.50	0.50	0.00	0.00	-0.234863	0.159668	0.937012	-11.060000	-0.630000	-1.120000	892.00	-0.33	-0.07
2.44	0.00	0.00	0.00	0.00	0.25	0.00	0.00	0.00	0.00	0.00	0.00	0.00	0.00	0.00	0.00	0.00	-0.375488	-0.177734	1.123047	-11.410000	-101.919998	83.580002	3.00	0.00	0.00	22.25	25.00	8.00	14.50	3.25	5.25	0.00	0.00	0.00	0.00	0.00	0.00	1.75	0.75	0.00	0.00	-0.233887	0.160156	0.934570	-11.760000	-0.840000	-1.190000	900.00	-0.32	-0.07
2.45	0.00	0.00	0.00	0.00	0.00	0.00	0.00	0.00	0.00	0.00	0.00	0.00	0.00	0.00	0.00	0.00	-0.358887	-0.184570	1.095703	-13.720000	-96.180000	73.849998	0.00	0.00	0.00	22.00	24.75	8.00	14.50	3.50	5.00	0.00	0.00	0.00	0.00	0.00	0.00	1.75	0.50	0.00	0.00	-0.225098	0.161133	0.923828	-12.740000	-1.400000	-1.330000	892.00	-0.32	-0.07
2.46	0.00	0.00	0.00	0.00	0.00	0.00	0.00	0.00	0.00	0.00	0.00	0.00	0.00	0.00	0.00	0.00	-0.345215	-0.193848	1.067383	-15.400000	-90.440002	63.490002	0.00	0.00	0.00	21.25	24.50	8.25	14.25	3.75	5.25	0.00	0.00	0.00	0.00	0.00	0.00	2.00	0.75	0.00	0.00	-0.224609	0.158691	0.914062	-14.840000	-2.870000	-1.540000	892.00	-0.32	-0.07
2.47	0.00	0.25	0.00	0.00	0.00	0.00	0.00	0.00	0.00	0.00	0.00	0.00	0.00	0.00	0.00	0.00	-0.323242	-0.184082	1.049316	-17.010000	-85.330002	52.430000	3.00	0.00	0.00	20.75	23.75	8.25	14.25	4.00	5.25	0.00	0.00	0.00	0.00	0.00	0.00	2.25	0.75	0.00	0.00	-0.221680	0.156250	0.910645	-18.830000	-4.900000	-1.960000	884.00	-0.32	-0.07
2.48	0.00	0.25	0.00	0.00	0.00	0.00	0.00	0.00	0.00	0.00	0.00	0.00	0.00	0.00	0.00	0.00	-0.320801	-0.150879	1.064941	-18.200001	-81.620003	41.090000	3.00	0.00	0.00	20.00	23.25	8.00	14.00	5.00	5.50	0.00	0.00	0.25	0.00	0.00	0.00	2.00	1.00	0.00	0.00	-0.239746	0.152344	0.967285	-20.650000	-6.160000	-2.170000	883.00	-0.31	-0.07
2.49	0.00	0.25	0.00	0.00	0.00	0.00	0.00	0.00	0.00	0.00	0.00	0.00	0.00	0.00	0.00	0.00	-0.340332	-0.096191	1.086426	-16.240000	-80.779999	29.400000	3.00	0.00	0.00	19.25	22.75	8.50	14.00	5.75	6.00	0.00	1.00	0.75	0.75	0.25	0.00	4.00	1.75	1.00	0.00	-0.238770	0.147949	0.955566	-19.110001	-6.720000	-1.890000	963.00	-0.27	-0.08
2.50	0.00	0.25	0.00	0.00	0.00	0.00	0.00	0.00	0.00	0.00	0.00	0.00	0.00	0.00	0.00	0.00	-0.386230	-0.065430	1.120117	-10.570000	-83.440002	17.639999	3.00	0.00	0.00	20.50	24.25	9.25	18.00	7.00	8.00	0.00	1.25	1.50	0.50	0.25	0.75	3.75	1.50	1.00	0.00	-0.237793	0.149414	0.959961	-18.410000	-6.510000	-1.820000	1104.00	-0.26	-0.09
2.51	0.00	0.25	0.00	0.00	0.00	0.00	0.00	0.00	0.00	0.00	0.00	0.00	0.00	0.00	0.00	0.00	-0.437988	-0.060059	1.095703	-4.480000	-88.900002	4.480000	3.00	0.00	0.00	18.50	21.75	8.25	14.75	6.50	7.25	0.00	1.00	1.25	1.50	1.50	1.25	4.25	2.25	1.00	1.00	-0.227051	0.141602	0.957031	-17.360001	-6.370000	-1.540000	1032.00	-0.23	-0.08
2.52	0.00	0.00	0.00	0.00	0.00	0.00	0.00	0.00	0.00	0.00	0.00	0.00	0.00	0.00	0.00	0.00	-0.481934	-0.067383	1.001953	-0.560000	-94.500000	-9.800000	0.00	0.00	0.00	23.75	28.50	9.75	17.50	8.00	8.25	0.00	0.75	1.00	1.00	1.25	1.00	3.75	1.75	0.00	0.00	-0.230469	0.141602	0.960938	-17.150000	-6.160000	-1.680000	1194.00	-0.27	-0.08
2.53	0.00	0.25	0.00	0.00	0.00	0.00	0.00	0.00	0.00	0.00	0.00	0.00	0.00	0.00	0.00	0.00	-0.529785	-0.064941	0.882324	2.100000	-96.809998	-24.430000	3.00	0.00	0.00	15.00	26.75	9.25	17.00	8.00	7.50	0.00	1.50	1.00	1.50	1.25	1.00	4.50	2.00	0.75	0.00	-0.228516	0.137207	0.941895	-17.430000	-6.370000	-1.330000	1093.00	-0.24	-0.10
2.54	0.00	0.25	0.00	0.00	0.00	0.00	0.00	0.00	0.00	0.00	0.00	0.00	0.00	0.00	0.00	0.00	-0.586914	-0.057129	0.771973	4.410000	-94.430000	-37.939999	3.00	0.00	0.00	16.00	20.25	7.75	14.00	8.50	7.75	0.00	0.75	1.50	1.50	1.00	0.75	3.50	2.00	0.00	0.25	-0.223633	0.130371	0.948242	-17.430000	-6.860000	-1.260000	966.00	-0.24	-0.08
2.55	0.00	0.00	0.00	0.00	0.00	0.00	0.00	0.00	0.00	0.00	0.00	0.00	0.00	0.00	0.00	0.00	-0.637207	-0.031738	0.687988	5.950000	-87.989998	-49.910000	0.00	0.00	0.00	19.50	24.50	9.25	16.25	9.00	8.75	0.25	2.00	2.50	2.25	2.00	2.00	5.75	3.00	1.25	1.00	-0.229980	0.138184	0.947266	-16.730000	-7.280000	-1.050000	1234.00	-0.21	-0.09
2.56	0.00	0.25	0.00	0.00	0.00	0.00	0.00	0.00	0.00	0.00	0.00	0.00	0.00	0.00	0.00	0.00	-0.672363	0.010742	0.620117	5.950000	-78.959999	-60.130001	3.00	0.00	0.00	17.50	22.00	9.00	15.75	9.75	8.50	0.25	2.25	3.00	2.50	2.25	2.25	5.75	2.75	1.75	1.25	-0.227051	0.134277	0.939453	-15.680000	-8.190000	-0.770000	1208.00	-0.19	-0.09
2.57	0.00	0.00	0.00	0.00	0.00	0.00	0.00	0.00	0.00	0.00	0.00	0.00	0.00	0.00	0.00	0.00	-0.734375	0.133789	0.583008	5.110000	-59.430000	-74.410004	0.00	0.00	0.00	16.00	20.00	8.75	14.50	10.00	8.75	0.25	2.50	3.25	3.00	3.00	2.50	6.25	3.00	2.00	1.50	-0.220215	0.125977	0.956543	-14.070000	-8.820000	-0.700000	1195.00	-0.17	-0.09
2.58	0.00	0.00	0.00	0.00	0.00	0.00	0.00	0.00	0.00	0.00	0.00	0.00	0.00	0.00	0.00	0.00	-0.753906	0.183594	0.562500	3.780000	-50.750000	-78.120003	0.00	0.00	0.00	13.75	18.00	8.50	13.50	10.25	8.75	0.25	2.75	3.75	3.50	3.50	3.00	7.00	3.75	1.75	2.00	-0.239258	0.124512	0.945801	-13.020000	-9.450000	-0.490000	1180.00	-0.14	-0.09
2.59	0.00	0.25	0.00	0.00	0.25	0.00	0.00	0.00	0.00	0.00	0.00	0.00	0.00	0.00	0.00	0.00	-0.743652	0.235352	0.546875	0.350000	-42.490002	-79.730003	6.00	0.00	0.00	11.50	15.00	7.75	12.50	10.75	8.50	0.25	3.00	4.25	4.25	4.25	3.50	7.50	4.00	2.00	2.50	-0.213867	0.122559	0.978027	-9.590000	-10.010000	-0.000000	1154.00	-0.11	-0.09
2.60	0.00	0.00	0.00	0.00	0.00	0.00	0.00	0.00	0.00	0.00	0.00	0.00	0.00	0.00	0.00	0.00	-0.750977	0.295410	0.537598	-3.010000	-34.160000	-79.519997	0.00	0.00	0.00	9.50	11.75	7.50	11.25	10.50	8.50	0.25	3.50	4.75	5.00	6.00	4.00	7.75	4.75	2.00	2.75	-0.215820	0.123535	0.973633	-7.210000	-8.750000	0.140000	1138.00	-0.08	-0.09
2.61	0.00	0.00	0.00	0.00	0.00	0.00	0.00	0.00	0.00	0.00	0.00	0.00	0.00	0.00	0.00	0.00	-0.757324	0.349121	0.536133	-4.550000	-26.180000	-77.209999	0.00	0.00	0.00	8.25	9.25	7.00	10.00	10.50	8.00	0.25	3.75	5.25	6.25	7.75	4.75	8.25	5.25	2.50	3.00	-0.221191	0.123047	0.971191	-5.880000	-6.650000	0.140000	1142.00	-0.04	-0.09
2.62	0.00	0.00	0.00	0.00	0.00	0.00	0.00	0.00	0.00	0.00	0.00	0.00	0.00	0.00	0.00	0.00	-0.766113	0.397949	0.540039	-2.940000	-19.530001	-72.870003	0.00	0.00	0.00	7.00	7.50	6.00	9.00	10.25	8.00	0.25	3.75	5.50	8.00	8.50	6.00	8.75	5.75	3.00	3.75	-0.217285	0.118652	0.968750	-2.590000	-0.770000	0.210000	1149.00	-0.01	-0.09
2.63	0.00	0.00	0.00	0.00	0.00	0.00	0.00	0.00	0.00	0.00	0.00	0.00	0.00	0.00	0.00	0.00	-0.796875	0.421387	0.544434	2.030000	-14.420000	-66.430000	0.00	0.00	0.00	6.25	6.50	5.75	7.75	9.75	7.50	0.25	3.75	6.25	8.50	9.50	6.75	9.00	6.50	4.00	4.00	-0.212402	0.124512	0.977539	-0.770000	2.310000	-0.210000	1159.00	0.02	-0.09
2.64	0.00	0.00	0.00	0.00	0.00	0.00	0.00	0.00	0.00	0.00	0.00	0.00	0.00	0.00	0.00	0.00	-0.841309	0.427734	0.522461	7.070000	-10.290000	-58.660000	0.00	0.00	0.00	5.75	5.50	5.25	6.75	9.00	7.25	0.25	3.75	7.00	9.25	10.25	7.75	9.50	7.25	3.75	4.75	-0.208496	0.126465	0.978516	1.330000	5.740000	-0.770000	1166.00	0.04	-0.09
2.65	0.00	0.25	0.00	0.00	0.25	0.00	0.00	0.00	0.00	0.00	0.00	0.00	0.00	0.00	0.00	0.00	-0.894531	0.401367	0.458984	8.680000	-5.110000	-50.400002	6.00	0.00	0.00	5.00	4.75	4.25	6.00	8.00	6.25	0.25	3.25	7.75	10.25	11.25	8.25	9.75	8.00	3.75	5.25	-0.204590	0.128906	1.032227	3.570000	9.940000	-1.820000	1148.00	0.07	-0.08
2.66	0.00	0.75	0.00	0.00	0.00	0.00	0.00	0.00	0.00	0.00	0.00	0.00	0.00	0.00	0.00	0.00	-0.950195	0.379883	0.397949	6.300000	2.590000	-41.650002	8.00	0.00	0.00	3.25	2.25	2.25	3.50	5.75	4.25	0.00	1.75	7.00	10.25	11.75	8.50	9.00	7.25	3.50	5.00	-0.196777	0.136230	1.002441	6.860000	16.730000	-3.430000	949.00	0.12	-0.08
2.67	0.00	0.25	0.00	0.00	0.00	0.00	0.00	0.00	0.00	0.00	0.00	0.00	0.00	0.00	0.00	0.00	-0.984375	0.365723	0.355469	2.030000	12.950000	-32.340000	3.00	0.00	0.00	3.00	1.75	2.50	2.75	5.25	3.25	0.00	2.00	7.50	10.50	11.50	8.25	9.50	8.50	4.00	5.25	-0.188477	0.157715	1.127930	17.850000	37.799999	-8.330000	949.00	0.14	-0.07
2.68	0.00	0.75	0.00	0.25	0.00	0.00	0.00	0.00	0.00	0.00	0.00	0.00	0.00	0.00	0.00	0.00	-0.988770	0.358887	0.338379	-2.730000	24.850000	-22.190001	11.00	0.00	0.00	1.25	1.00	1.75	2.75	4.25	3.00	0.00	1.00	7.50	11.25	12.00	8.25	8.75	9.00	4.75	6.00	-0.249023	0.165527	1.071289	25.969999	63.560001	-11.760000	906.00	0.17	-0.07
2.69	0.00	0.75	0.00	0.00	0.00	0.00	0.00	0.00	0.00	0.00	0.00	0.00	0.00	0.00	0.00	0.00	-0.979004	0.350586	0.384277	-6.230000	37.029999	-11.130000	8.00	0.00	0.00	1.50	1.00	1.25	2.75	4.50	3.25	0.00	0.50	7.75	11.50	12.25	8.50	8.50	9.75	5.00	6.25	-0.264648	0.153809	1.064453	25.830000	89.669998	-14.000000	921.00	0.18	-0.07
2.70	0.75	1.50	0.00	0.00	0.00	0.00	0.00	0.00	0.00	0.00	0.00	0.00	0.00	0.00	0.00	0.00	-3.593750	0.068359	5.544434	-97.580002	7.490000	-33.389999	24.00	0.00	0.00	1.25	0.75	1.50	1.75	3.25	2.00	0.00	0.50	7.75	11.75	12.50	8.75	8.25	10.75	5.50	7.25	-0.273926	0.160156	1.106445	19.879999	113.330002	-15.610000	904.00	0.20	-0.06
2.71	1.50	4.00	0.50	0.00	0.25	0.00	0.00	0.00	0.00	0.00	0.00	0.00	0.00	0.00	0.00	0.00	-0.001953	0.006348	0.830566	-63.630001	146.229996	-58.939999	66.00	-0.39	-0.06	1.25	0.50	1.50	1.50	2.75	1.75	0.00	0.00	8.00	12.00	12.50	8.50	7.50	11.75	6.00	7.75	-0.316406	0.151855	1.137695	14.910000	133.000000	-16.309999	896.00	0.21	-0.05
2.72	2.75	5.25	0.25	1.25	0.00	0.00	0.00	0.00	0.00	0.00	0.00	0.00	0.00	0.00	0.00	0.00	-0.455078	0.171875	0.925293	-99.540001	168.630005	-75.599998	102.00	-0.39	-0.08	1.25	0.75	1.00	1.25	2.50	1.25	0.00	0.00	8.00	12.00	12.50	8.50	7.00	12.50	6.50	7.75	-0.322754	0.185547	1.156738	10.640000	147.139999	-17.850000	888.00	0.22	-0.05
2.73	3.50	6.25	0.50	2.00	0.25	0.00	0.00	0.00	0.00	0.00	0.00	0.00	0.00	0.00	0.00	0.00	-0.589355	0.494629	1.733887	-97.720001	167.020004	-71.120003	136.00	-0.38	-0.08	1.00	0.50	1.25	1.50	2.50	1.00	0.00	0.00	7.75	11.75	12.25	8.25	6.00	13.50	6.50	8.00	-0.365234	0.213867	1.173340	1.820000	166.180008	-26.250000	875.00	0.23	-0.04
2.74	4.75	8.00	0.50	2.75	0.25	0.00	0.00	0.00	0.00	0.00	0.00	0.00	0.00	0.00	0.00	0.00	-0.582520	0.407715	1.517090	-86.590004	134.680008	-56.070000	176.00	-0.38	-0.08	0.50	0.50	1.00	1.25	2.00	1.00	0.00	0.00	7.75	11.50	12.00	7.75	4.75	14.25	7.00	7.75	-0.374023	0.205078	1.109863	-2.380000	176.399994	-31.990000	845.00	0.24	-0.03
2.75	5.75	9.75	0.50	4.00	0.25	0.00	0.00	0.00	0.00	0.00	0.00	0.00	0.00	0.00	0.00	0.00	-0.485840	0.351562	1.289062	-83.580002	116.129997	-44.029999	220.00	-0.38	-0.09	0.75	0.25	1.25	1.25	2.00	0.75	0.00	0.00	7.50	11.25	11.75	7.50	3.25	15.00	7.00	7.75	-0.404785	0.201172	1.130371	-7.210000	189.000000	-37.310001	827.00	0.24	-0.02
2.76	7.00	10.50	0.75	4.75	0.00	0.00	0.00	0.00	0.00	0.00	0.00	0.00	0.00	0.00	0.00	0.00	-0.487793	0.381836	1.342773	-77.000000	106.750000	-30.030001	251.00	-0.38	-0.08	0.75	0.25	0.75	1.00	1.75	0.25	0.00	0.00	7.50	11.00	11.25	6.50	2.00	15.25	7.00	7.50	-0.442383	0.223633	1.161133	-11.900000	205.869995	-42.700001	777.00	0.26	-0.01
2.77	7.50	11.25	1.00	5.50	0.00	0.00	0.00	0.00	0.00	0.00	0.00	0.00	0.00	0.00	0.00	0.00	-0.479492	0.279785	1.286133	-60.760002	98.070000	-12.600000	276.00	-0.38	-0.08	0.75	0.00	1.00	1.25	1.75	0.25	0.00	0.00	7.50	10.50	10.50	5.50	1.25	15.25	6.75	6.75	-0.488770	0.218262	1.161621	-17.150000	224.699997	-48.439999	741.00	0.25	0.01
2.78	8.00	12.25	1.00	5.50	0.25	0.00	0.00	0.00	0.00	0.00	0.00	0.00	0.00	0.00	0.00	0.00	-0.393555	0.175781	1.162109	-40.110001	91.840004	3.220000	295.00	-0.37	-0.08	0.50	0.25	0.75	1.00	1.50	0.00	0.00	0.00	7.00	9.75	9.75	4.50	0.25	15.25	6.25	6.00	-0.582520	0.238281	1.224609	-20.230000	245.000000	-54.599998	673.00	0.26	0.02
2.79	8.75	12.75	1.00	5.75	0.25	0.00	0.00	0.00	0.00	0.00	0.00	0.00	0.00	0.00	0.00	0.00	-0.319824	0.059082	1.015137	-18.200001	89.389999	14.700000	312.00	-0.38	-0.08	0.00	0.00	0.75	0.50	1.25	0.00	0.00	0.00	7.00	9.25	9.25	3.75	0.00	14.50	5.75	5.00	-0.666504	0.256836	1.301758	-23.379999	265.160004	-60.480000	615.00	0.28	0.03
2.80	9.00	13.25	1.25	6.75	0.25	0.75	0.00	0.00	0.00	0.00	0.00	0.00	0.00	0.00	0.00	0.00	-0.264160	-0.062500	0.904785	0.210000	90.580002	17.780001	343.00	-0.37	-0.09	0.25	0.00	0.50	0.00	0.75	0.00	0.00	0.00	6.50	9.00	8.50	3.25	0.00	13.50	5.00	3.75	-0.760742	0.260254	1.381348	-25.549999	282.100006	-65.519997	553.00	0.28	0.04
2.81	9.75	13.75	2.00	7.75	0.25	1.75	0.00	0.00	0.00	0.00	0.00	0.00	1.00	0.00	0.00	0.00	-0.429688	-0.229980	1.411133	-14.980000	87.709999	-12.110000	399.00	-0.34	-0.10	0.25	0.00	0.25	0.25	0.50	0.00	0.00	0.00	6.25	8.50	8.00	2.50	0.00	12.25	4.00	3.00	-0.757324	0.333008	1.328613	-26.389999	295.540009	-69.860001	499.00	0.28	0.05
2.82	10.75	14.75	2.50	8.25	0.50	2.50	0.00	0.25	0.00	0.00	0.00	0.00	1.25	0.00	0.00	0.00	-0.632812	0.367188	1.195801	-18.900000	21.840000	-16.240000	451.00	-0.33	-0.10	0.25	0.00	0.00	0.00	0.25	0.00	0.00	0.00	5.75	8.00	7.50	2.25	0.00	11.25	2.25	1.75	-0.855957	0.367676	1.356445	-17.080000	309.260010	-75.040001	431.00	0.29	0.06
2.83	11.00	15.00	2.25	8.75	0.75	3.00	0.00	0.50	0.00	0.00	0.00	0.00	0.75	0.00	0.00	0.00	-0.275879	0.185059	0.836426	-27.790001	14.350000	-6.230000	468.00	-0.33	-0.10	0.00	0.00	0.00	0.00	0.00	0.00	0.00	0.00	5.25	7.50	6.50	2.00	0.00	10.00	1.75	1.50	-0.926270	0.333496	1.466309	-4.130000	319.549988	-80.220001	380.00	0.29	0.06
2.84	11.50	15.25	2.75	9.00	1.00	4.00	0.00	1.00	0.00	0.00	0.00	0.00	1.75	0.50	0.00	0.00	-0.336914	0.158203	1.011719	-29.400000	9.940000	-3.360000	523.00	-0.31	-0.11	0.00	0.00	0.00	0.00	0.00	0.00	0.00	0.00	4.75	7.00	5.50	1.50	0.00	9.00	1.00	1.25	-1.180176	0.329102	1.535645	3.430000	326.760010	-93.379997	330.00	0.29	0.07
2.85	12.25	16.00	3.50	9.25	1.00	5.00	0.00	1.25	0.00	0.00	0.00	0.00	2.00	0.25	0.00	0.00	-0.312988	0.166016	0.943848	-26.180000	3.080000	-2.660000	567.00	-0.31	-0.11	0.00	0.00	0.00	0.00	0.00	0.00	0.00	0.00	4.00	5.50	4.50	1.00	0.00	8.25	0.50	0.75	-1.180176	0.329102	1.535645	3.430000	326.760010	-93.379997	270.00	0.29	0.08
2.86	12.75	16.25	4.25	9.75	1.25	5.50	0.00	1.50	0.00	0.00	0.00	0.00	2.75	0.25	0.00	0.00	-0.313965	0.167480	0.951660	-26.530001	0.560000	-2.100000	610.00	-0.30	-0.12	0.00	0.00	0.00	0.00	0.00	0.00	0.00	0.00	2.75	4.75	3.50	0.75	0.00	7.25	0.25	0.50	-1.363770	0.365723	1.915039	-21.420000	292.670013	-103.529999	215.00	0.30	0.08
2.87	12.50	16.25	4.00	10.00	1.25	6.50	0.00	2.00	0.00	0.00	0.00	0.25	3.50	0.75	0.00	0.00	-0.291016	0.156250	0.918457	-28.770000	-6.510000	-1.820000	642.00	-0.28	-0.13	0.00	0.00	0.00	0.00	0.00	0.00	0.00	0.00	2.00	3.25	2.50	0.75	0.00	6.25	0.25	0.00	-1.016602	0.446289	1.776367	-33.389999	257.390015	-103.040001	164.00	0.30	0.09
2.88	12.75	16.00	4.25	10.25	1.50	7.25	0.00	2.50	0.00	0.00	0.00	0.25	4.00	1.00	0.00	0.00	-0.305176	0.155273	0.954590	-27.510000	-10.430000	-1.680000	676.00	-0.27	-0.13	0.00	0.00	0.00	0.00	0.00	0.00	0.00	0.00	1.25	2.25	1.25	0.50	0.00	5.25	0.00	0.00	-0.671387	0.467285	1.702148	-43.610001	227.850006	-103.879997	112.00	0.31	0.11
2.89	12.50	16.00	4.75	10.50	1.75	7.75	0.00	3.25	0.00	0.25	0.00	0.25	5.00	1.25	0.00	0.00	-0.297852	0.146973	0.938965	-23.170000	-12.110000	-1.190000	718.00	-0.25	-0.14	0.00	0.00	0.00	0.00	0.00	0.00	0.00	0.00	0.75	1.25	0.75	0.25	0.00	2.75	0.00	0.00	-0.437500	0.442383	1.645020	-53.270000	215.529999	-107.940002	62.00	0.31	0.11
2.90	12.50	15.75	4.50	10.50	2.00	7.75	0.00	3.50	0.00	0.50	0.25	0.50	5.25	1.50	0.00	0.00	-0.291992	0.145996	0.934082	-20.440001	-12.040000	-0.770000	733.00	-0.24	-0.14	0.00	0.00	0.00	0.00	0.00	0.00	0.00	0.00	0.75	0.25	0.00	0.00	0.00	1.00	0.00	0.00	0.566406	0.990723	2.253906	-53.970001	211.610001	-103.949997	23.00	0.00	0.00
2.91	12.00	15.50	5.00	10.50	2.25	8.50	0.00	4.25	0.25	0.25	0.50	0.50	5.00	1.00	0.00	0.00	-0.295410	0.146484	0.950195	-17.780001	-10.640000	-0.280000	752.00	-0.23	-0.14	0.00	0.00	0.00	0.00	0.00	0.00	0.00	0.00	0.25	0.50	0.00	0.00	0.00	0.25	0.00	0.00	0.936523	1.167969	1.541992	-86.239998	157.360001	-74.830002	12.00	0.00	0.00
2.92	8.75	12.75	3.25	9.50	1.75	7.75	0.00	3.00	0.00	0.00	0.00	0.25	4.75	1.25	0.00	0.00	-0.295898	0.141602	0.937012	-14.070000	-8.260000	0.210000	603.00	-0.23	-0.16	0.00	0.00	0.00	0.00	0.00	0.00	0.00	0.00	0.00	0.25	0.00	0.00	0.00	0.00	0.00	0.00	0.846191	1.486328	2.285156	-97.650002	115.849998	-28.840000	3.00	0.00	0.00
2.93	8.25	12.00	3.00	9.00	1.75	7.75	0.00	3.50	0.00	0.25	0.00	0.25	4.75	1.50	0.00	0.00	-0.285156	0.145996	0.930176	-10.990000	-5.460000	0.630000	595.00	-0.22	-0.16	0.00	0.00	0.00	0.00	0.00	0.00	0.00	0.00	0.00	0.00	0.00	0.00	0.00	0.50	0.00	0.00	0.683105	1.225098	1.522461	-95.760002	41.090000	19.879999	5.00	0.00	0.00
2.94	8.00	11.75	2.50	9.00	2.00	7.75	0.00	3.75	0.00	0.00	0.00	0.25	4.75	1.25	0.00	0.00	-0.283691	0.140137	0.937988	-9.030000	-2.730000	1.050000	585.00	-0.22	-0.17	0.00	0.00	0.00	0.00	0.00	0.00	0.00	0.00	0.00	0.00	0.00	0.00	0.00	0.00	0.00	0.00	0.816406	0.842773	0.986328	-85.050003	-1.120000	50.680000	0.00	0.00	0.00
2.95	7.50	11.50	2.75	8.75	1.75	7.75	0.00	4.00	0.00	0.25	0.00	0.50	5.25	1.25	0.00	0.00	-0.285645	0.145996	0.924805	-7.420000	-0.210000	1.190000	589.00	-0.21	-0.17	0.00	0.00	0.00	0.00	0.00	0.00	0.00	0.00	0.00	0.00	0.00	0.00	0.00	0.00	0.00	0.00	0.724609	0.651855	0.758301	-80.709999	-14.700000	64.260002	0.00	0.00	0.00
2.96	7.00	11.25	2.25	8.75	2.00	7.75	0.00	4.00	0.00	0.25	0.25	0.75	5.25	1.50	0.00	0.00	-0.276855	0.135254	0.922363	-6.580000	1.470000	1.260000	585.00	-0.20	-0.18	0.00	0.00	0.00	0.00	0.00	0.00	0.00	0.00	0.00	0.00	0.00	0.00	0.00	0.00	0.00	0.00	0.659668	0.635742	0.841309	-71.959999	-24.290001	69.370003	0.00	0.00	0.00
2.97	9.00	11.00	2.50	9.00	2.00	8.75	0.25	6.25	1.00	1.00	1.00	1.75	6.75	2.50	0.00	0.50	-0.275879	0.138672	0.923340	-6.440000	2.030000	1.190000	734.00	-0.15	-0.17	0.00	0.00	0.00	0.00	0.00	0.00	0.00	0.00	0.00	0.00	0.00	0.00	0.00	0.00	0.00	0.00	0.676270	0.579590	0.882812	-56.630001	-40.040001	70.699997	0.00	0.00	0.00
2.98	8.75	12.75	4.00	9.75	2.75	9.00	0.25	5.75	0.00	0.50	0.25	1.00	5.50	1.50	0.00	0.00	-0.280762	0.138672	0.919922	-6.440000	2.310000	1.120000	719.00	-0.20	-0.17	0.00	0.00	0.00	0.00	0.00	0.00	0.00	0.00	0.00	0.00	0.00	0.00	0.00	0.00	0.00	0.00	0.574707	0.464355	0.927734	-33.389999	-88.129997	68.599998	0.00	0.00	0.00
2.99	7.75	12.00	3.75	9.00	2.25	8.00	0.25	5.75	1.25	1.25	1.25	1.75	7.75	2.00	0.00	0.00	-0.279785	0.138672	0.914062	-6.160000	2.310000	1.120000	742.00	-0.15	-0.17	0.00	0.00	0.00	0.00	0.00	0.00	0.00	0.00	0.00	0.00	0.00	0.00	0.00	0.00	0.00	0.00	0.499512	0.416016	0.887695	-30.100000	-111.860001	66.150002	0.00	0.00	0.00
3.00	7.75	11.25	3.50	9.25	2.75	9.00	0.25	6.50	1.50	1.50	1.50	2.00	8.00	2.75	0.00	0.25	-0.280273	0.135742	0.917480	-5.320000	1.680000	1.190000	788.00	-0.13	-0.17	0.00	0.00	0.00	0.00	0.00	0.00	0.00	0.00	0.00	0.00	0.00	0.00	0.00	0.00	0.00	0.00	0.410645	0.390625	0.860840	-29.400000	-131.529999	62.860001	0.00	0.00	0.00
3.01	7.50	11.25	4.25	9.50	3.00	9.00	0.25	6.75	1.50	1.50	1.50	2.25	8.00	2.75	0.00	0.50	-0.285645	0.135742	0.917480	-5.320000	1.680000	1.190000	809.00	-0.13	-0.17	0.00	0.00	0.00	0.00	0.00	0.00	0.00	0.00	0.00	0.00	0.00	0.00	0.00	0.00	0.00	0.00	0.316895	0.395996	0.841309	-28.770000	-147.839996	59.849998	0.00	0.00	0.00
3.02	7.00	10.75	4.00	9.25	3.25	9.00	0.25	6.75	1.75	1.75	1.75	2.25	8.25	2.75	0.00	0.50	-0.281738	0.134277	0.920410	-4.200000	1.820000	1.400000	807.00	-0.12	-0.17	0.00	0.00	0.00	0.00	0.00	0.00	0.00	0.00	0.00	0.00	0.00	0.00	0.00	0.00	0.00	0.00	0.240234	0.406250	0.866699	-26.530001	-162.259995	57.610001	0.00	0.00	0.00
3.03	6.75	10.25	3.00	9.00	3.00	9.00	0.25	7.00	2.00	2.00	1.75	2.75	8.25	3.00	0.00	0.50	-0.280273	0.135742	0.914062	-3.500000	2.030000	1.470000	800.00	-0.11	-0.17	0.00	0.00	0.00	0.00	0.00	0.00	0.00	0.00	0.00	0.00	0.00	0.00	0.00	0.00	0.00	0.00	0.180176	0.411133	0.870605	-23.309999	-176.119995	56.560001	0.00	0.00	0.00
3.04	6.25	9.75	3.00	8.75	3.00	9.00	0.25	7.00	2.00	2.25	2.00	2.75	8.50	3.00	0.00	0.75	-0.278320	0.139160	0.917969	-3.150000	1.890000	1.330000	795.00	-0.10	-0.17	0.00	0.00	0.00	0.00	0.00	0.00	0.00	0.00	0.00	0.00	0.00	0.00	0.00	0.00	0.00	0.00	0.111328	0.430664	0.895508	-20.580000	-190.050003	56.700001	0.00	0.00	0.00
3.05	6.00	9.25	3.00	8.50	3.25	9.00	0.25	7.25	2.25	2.00	2.25	3.00	8.50	2.75	0.00	1.00	-0.270508	0.133301	0.916992	-3.010000	1.330000	1.260000	797.00	-0.09	-0.17	0.00	0.00	0.00	0.00	0.00	0.00	0.00	0.00	0.00	0.00	0.00	0.00	0.00	0.00	0.00	0.00	0.067871	0.455566	0.903320	-17.500000	-203.559998	57.750000	0.00	0.00	0.00
3.06	5.75	9.00	2.75	8.25	3.50	9.00	0.25	7.50	2.50	2.25	2.75	3.50	9.00	2.75	0.00	1.00	-0.279785	0.137695	0.912109	-3.150000	0.840000	1.120000	816.00	-0.08	-0.17	0.00	0.00	0.00	0.00	0.00	0.00	0.00	0.00	0.00	0.00	0.00	0.00	0.00	0.00	0.00	0.00	0.001465	0.482422	0.920410	-13.230000	-216.160004	59.570000	0.00	0.00	0.00
3.07	5.25	8.50	2.50	8.25	3.50	9.00	0.25	7.50	2.50	2.75	2.75	4.00	9.00	3.00	0.00	1.25	-0.273438	0.131348	0.914551	-3.220000	-0.630000	1.190000	817.00	-0.07	-0.18	0.00	0.00	0.00	0.00	0.00	0.00	0.00	0.00	0.00	0.00	0.00	0.00	0.00	0.00	0.00	0.00	-0.071777	0.512207	0.957520	-9.100000	-226.589996	62.720001	0.00	0.00	0.00
3.08	5.00	8.00	2.75	8.00	3.75	9.25	0.25	7.50	2.75	3.00	3.50	4.50	9.25	3.00	0.00	1.25	-0.305176	0.116699	0.903320	-3.850000	-3.220000	1.120000	839.00	-0.06	-0.17	0.00	0.00	0.00	0.00	0.00	0.00	0.00	0.00	0.00	0.00	0.00	0.00	0.00	0.00	0.00	0.00	-0.133789	0.545410	1.000488	-5.110000	-234.779999	67.340004	0.00	0.00	0.00
3.09	4.50	7.75	2.00	7.75	3.50	9.25	0.25	7.75	3.00	3.00	3.75	4.75	9.50	3.00	0.00	1.25	-0.277832	0.135742	0.910645	-3.570000	-2.660000	1.190000	831.00	-0.05	-0.18	0.00	0.00	0.00	0.00	0.00	0.00	0.00	0.00	0.00	0.00	0.00	0.00	0.00	0.00	0.00	0.00	-0.270508	0.631836	1.148926	3.290000	-247.589996	80.360001	0.00	0.00	0.00
3.10	3.50	7.00	2.00	7.50	3.75	9.50	0.25	7.75	3.50	3.50	4.25	5.50	9.75	3.25	0.00	1.50	-0.279785	0.136230	0.921387	-3.220000	-1.680000	1.190000	849.00	-0.03	-0.18	0.00	0.00	0.00	0.00	0.00	0.00	0.00	0.00	0.00	0.00	0.00	0.00	0.00	0.00	0.00	0.00	-0.340820	0.672363	1.237793	8.680000	-253.610001	87.709999	0.00	0.00	0.00
3.11	3.00	6.50	1.75	7.25	4.25	9.50	0.25	8.00	3.75	4.00	5.25	6.00	10.00	3.75	0.25	1.25	-0.277344	0.134277	0.912598	-2.520000	-0.840000	1.330000	877.00	-0.01	-0.17	0.00	0.00	0.00	0.00	0.00	0.00	0.00	0.00	0.00	0.00	0.00	0.00	0.00	0.00	0.00	0.00	-0.413574	0.701660	1.331543	14.840000	-259.420013	95.340004	0.00	0.00	0.00
3.12	2.50	6.25	1.50	6.75	4.00	9.25	0.25	8.00	4.00	4.75	6.25	7.00	10.25	3.50	0.25	1.75	-0.272949	0.137695	0.923340	-2.030000	-0.210000	1.330000	892.00	0.01	-0.18	0.00	0.00	0.00	0.00	0.00	0.00	0.00	0.00	0.00	0.00	0.00	0.00	0.00	0.00	0.00	0.00	-0.487305	0.705566	1.391113	21.280001	-264.110016	102.550003	0.00	0.00	0.00
3.13	2.50	5.75	1.25	6.50	4.00	9.50	0.25	8.00	4.25	5.25	6.75	7.50	10.50	3.75	0.00	2.00	-0.271484	0.128906	0.918945	-1.400000	0.420000	1.400000	908.00	0.02	-0.18	0.00	0.00	0.00	0.00	0.00	0.00	0.00	0.00	0.00	0.00	0.00	0.00	0.00	0.00	0.00	0.00	-0.546875	0.693848	1.455078	27.790001	-266.980011	108.639999	0.00	0.00	0.00
3.14	1.50	5.50	1.25	5.75	3.75	9.25	0.25	8.25	4.75	6.00	7.50	7.75	10.50	4.00	0.25	2.00	-0.270020	0.136230	0.918457	-0.980000	1.260000	1.540000	915.00	0.03	-0.17	0.00	0.00	0.00	0.00	0.00	0.00	0.00	0.00	0.00	0.00	0.00	0.00	0.00	0.00	0.00	0.00	-0.586914	0.658203	1.525879	34.580002	-268.309998	113.120003	0.00	0.00	0.00
3.15	1.00	5.00	0.75	5.50	3.75	9.50	0.25	8.25	4.75	6.50	7.75	7.75	10.75	4.25	0.50	2.25	-0.270508	0.141113	0.926270	-0.350000	2.170000	1.400000	916.00	0.05	-0.17	0.00	0.00	0.00	0.00	0.00	0.00	0.00	0.00	0.00	0.00	0.00	0.00	0.00	0.00	0.00	0.00	-0.648926	0.622070	1.616699	44.660000	-269.149994	116.830002	0.00	0.00	0.00
3.16	1.25	5.00	0.00	5.00	3.25	9.25	0.25	8.25	5.00	7.50	8.00	8.25	11.00	4.25	0.50	2.50	-0.263672	0.135742	0.927246	1.680000	5.110000	1.680000	922.00	0.06	-0.17	0.00	0.00	0.00	0.00	0.00	0.00	0.00	0.00	0.00	0.00	0.00	0.00	0.00	0.00	0.00	0.00	-0.691406	0.563477	1.675781	56.490002	-269.640015	121.239998	0.00	0.00	0.00
3.17	1.00	3.25	1.00	4.75	3.50	9.25	0.25	8.50	5.25	7.75	8.25	8.50	11.25	4.25	0.25	2.50	-0.272949	0.136719	0.923340	2.450000	6.020000	1.890000	930.00	0.07	-0.17	0.00	0.00	0.00	0.00	0.00	0.00	0.00	0.00	0.00	0.00	0.00	0.00	0.00	0.00	0.00	0.00	-0.722168	0.480957	1.731934	66.010002	-269.220001	127.540001	0.00	0.00	0.00
3.18	0.50	3.00	0.50	4.00	3.25	9.00	0.25	8.50	5.50	8.00	8.75	8.75	11.25	4.75	0.75	3.00	-0.272949	0.134766	0.926270	3.150000	6.790000	1.820000	929.00	0.08	-0.17	0.00	0.00	0.00	0.00	0.00	0.00	0.00	0.00	0.00	0.00	0.00	0.00	0.00	0.00	0.00	0.00	-0.776367	0.419434	1.811035	68.180000	-267.260010	136.220001	0.00	0.00	0.00
3.19	0.25	2.00	0.75	3.50	3.25	9.00	0.25	8.25	5.50	8.25	9.00	9.00	11.50	5.00	0.75	3.25	-0.271973	0.140625	0.911133	3.990000	7.700000	1.750000	924.00	0.10	-0.17	0.00	0.00	0.00	0.00	0.00	0.00	0.00	0.00	0.00	0.00	0.00	0.00	0.00	0.00	0.00	0.00	-0.864746	0.400391	1.860352	58.730000	-262.500000	145.529999	0.00	0.00	0.00
3.20	0.00	2.50	0.00	2.50	2.75	9.00	0.25	8.50	5.75	8.50	9.50	9.25	11.50	5.00	0.50	3.50	-0.278320	0.139160	0.922363	5.250000	9.240000	1.820000	917.00	0.11	-0.17	0.00	0.00	0.00	0.00	0.00	0.00	0.00	0.00	0.00	0.00	0.00	0.00	0.00	0.00	0.00	0.00	-0.995117	0.449219	1.893555	41.299999	-254.520004	155.539993	0.00	0.00	0.00
3.21	0.00	2.00	0.00	2.00	2.50	8.50	0.25	8.50	6.25	9.00	9.75	9.50	12.00	5.00	1.00	3.50	-0.270508	0.141113	0.931641	6.860000	10.710000	1.960000	926.00	0.12	-0.17	0.00	0.00	0.00	0.00	0.00	0.00	0.00	0.00	0.00	0.00	0.00	0.00	0.00	0.00	0.00	0.00	-1.147461	0.528809	1.906738	18.900000	-244.020004	166.740005	0.00	0.00	0.00
3.22	0.00	1.25	0.25	0.75	2.00	8.50	0.25	8.50	6.75	9.25	10.25	9.75	12.25	5.50	1.00	4.00	-0.271484	0.141602	0.926758	10.080000	13.370000	2.100000	929.00	0.13	-0.16	0.00	0.00	0.00	0.00	0.00	0.00	0.00	0.00	0.00	0.00	0.00	0.00	0.00	0.00	0.00	0.00	-1.602051	0.703125	1.808594	-25.129999	-221.270004	189.559998	0.00	0.00	0.00
3.23	0.00	0.75	0.00	0.50	2.00	8.00	0.25	8.50	7.00	9.75	10.50	10.25	12.50	5.75	1.25	4.25	-0.274414	0.143555	0.938477	14.280000	17.290001	2.030000	939.00	0.15	-0.16	0.00	0.00	0.00	0.00	0.00	0.00	0.00	0.00	0.00	0.00	0.00	0.00	0.00	0.00	0.00	0.00	-1.836426	0.750977	1.692871	-39.689999	-212.380005	195.649994	0.00	0.00	0.00
3.24	0.00	0.25	0.00	0.50	1.50	7.75	0.25	8.25	7.00	10.00	10.75	10.50	12.75	6.00	1.25	5.00	-0.272461	0.156250	0.941406	20.370001	22.960001	0.980000	938.00	0.16	-0.16	0.00	0.00	0.00	0.00	0.00	0.00	0.00	0.00	0.00	0.00	0.00	0.00	0.00	0.00	0.00	0.00	-2.074219	0.771484	1.573242	-44.730000	-206.289993	195.020004	0.00	0.00	0.00
3.25	0.00	0.00	0.00	0.00	1.25	7.75	0.00	8.25	7.25	10.25	11.25	11.00	13.00	6.50	1.50	5.25	-0.279297	0.165039	0.938477	25.200001	29.400000	-0.140000	952.00	0.16	-0.16	0.00	0.00	0.00	0.00	0.00	0.00	0.00	0.00	0.00	0.00	0.00	0.00	0.00	0.00	0.00	0.00	-2.334473	0.731445	1.412109	-35.490002	-203.490005	187.320007	0.00	0.00	0.00
3.26	0.00	0.25	0.00	0.00	1.25	7.50	0.00	8.25	7.50	10.75	11.75	11.25	13.25	6.75	2.00	5.50	-0.283691	0.140625	0.921875	26.530001	38.009998	-0.490000	981.00	0.17	-0.16	0.00	0.00	0.00	0.00	0.00	0.00	0.00	0.00	0.00	0.00	0.00	0.00	0.00	0.00	0.00	0.00	-2.544434	0.597168	1.159668	-10.080000	-205.169998	171.430008	0.00	0.00	0.00
3.27	0.00	0.25	0.00	0.00	1.00	7.25	0.00	8.00	7.75	11.00	12.00	11.50	13.25	7.50	1.75	5.25	-0.295898	0.154297	0.942383	28.420000	47.880001	-0.770000	986.00	0.17	-0.15	0.00	0.00	0.00	0.00	0.00	0.00	0.00	0.00	0.00	0.00	0.00	0.00	0.00	0.00	0.00	0.00	-2.847168	0.341797	0.831543	31.850000	-207.690002	146.930008	0.00	0.00	0.00
3.28	0.00	0.00	0.00	0.00	0.25	5.75	0.00	7.00	7.25	10.75	11.75	11.00	12.25	7.00	1.50	5.75	-0.300293	0.169922	0.943359	29.049999	57.189999	-1.050000	907.00	0.18	-0.15	0.00	0.00	0.00	0.00	0.00	0.00	0.00	0.00	0.00	0.00	0.00	0.00	0.00	0.00	0.00	0.00	-3.479980	-0.235840	0.404297	93.309998	-206.639999	115.150002	0.00	0.00	0.00
3.29	0.00	0.00	0.00	0.00	0.00	5.25	0.00	6.75	7.50	11.25	12.25	11.50	13.00	8.50	1.75	6.00	-0.322754	0.169434	0.967773	28.000000	67.900002	-0.980000	940.00	0.19	-0.14	0.00	0.00	0.00	0.00	0.00	0.00	0.00	0.00	0.00	0.00	0.00	0.00	0.00	0.00	0.00	0.00	-4.064453	-0.732910	-0.105957	141.050003	-202.789993	76.790001	0.00	0.00	0.00
3.30	0.00	0.00	0.00	0.00	0.00	5.00	0.00	6.25	7.50	11.25	12.25	11.50	12.25	8.25	2.00	6.50	-0.336426	0.183105	0.982422	27.230000	80.570000	-0.770000	925.00	0.20	-0.14	0.00	0.00	0.00	0.00	0.00	0.00	0.00	0.00	0.00	0.00	0.00	0.00	0.00	0.00	0.00	0.00	-4.218262	-1.152344	-0.772461	147.350006	-180.110001	33.389999	0.00	0.00	0.00
3.31	0.00	0.00	0.00	0.00	0.50	6.00	0.00	7.00	8.00	12.25	13.00	12.25	12.75	9.25	3.25	7.25	-0.357422	0.187012	0.979980	27.510000	103.180000	-1.330000	1024.00	0.19	-0.14	0.00	0.00	0.00	0.00	0.00	0.00	0.00	0.00	0.00	0.00	0.00	0.00	0.00	0.00	0.00	0.00	-3.148926	-1.612305	-1.237305	99.330002	-115.570000	-19.320000	0.00	0.00	0.00
3.32	0.00	0.00	0.00	0.00	0.75	5.75	0.00	6.75	8.25	12.75	13.50	12.50	13.00	10.50	4.00	7.50	-0.377441	0.194336	0.992188	27.650000	112.770004	-2.030000	1062.00	0.20	-0.13	0.00	0.00	0.00	0.00	0.00	0.00	0.00	0.00	0.00	0.00	0.00	0.00	0.00	0.00	0.00	0.00	-3.846680	-2.267090	-2.389648	-47.599998	24.290001	-77.629997	0.00	0.00	0.00
3.33	0.00	0.00	0.00	0.00	0.75	5.50	0.00	6.00	8.25	12.75	13.50	12.50	12.50	11.50	4.50	7.75	-0.389648	0.209473	1.017090	26.389999	123.340004	-3.360000	1058.00	0.21	-0.12	0.50	0.00	0.00	0.00	0.00	0.00	0.00	0.00	0.00	0.00	0.00	0.00	0.00	0.00	0.00	0.00	-3.464355	-0.923340	-1.395020	-172.550003	186.690002	-129.360001	6.00	0.00	0.00
3.34	0.00	0.00	0.00	0.00	0.50	5.25	0.00	5.75	8.50	12.75	13.75	12.50	12.00	12.50	5.00	8.25	-0.363770	0.212891	1.126953	26.670000	134.470001	-6.020000	1068.00	0.21	-0.12	1.00	0.50	0.00	0.25	0.00	0.00	0.00	0.00	0.00	0.00	0.00	0.00	0.00	0.00	0.00	0.00	-0.301270	0.913574	2.492676	-162.539993	263.130005	-108.220001	19.00	0.00	0.00
3.35	0.00	0.00	0.00	0.00	0.50	5.00	0.00	5.25	8.50	13.00	13.50	12.50	11.50	13.50	5.25	8.25	-0.424316	0.215820	1.025391	22.889999	146.649994	-9.870000	1064.00	0.22	-0.11	2.00	2.00	0.25	0.50	0.00	0.00	0.00	0.00	0.00	0.00	0.00	0.00	0.00	0.00	0.00	0.00	-0.850586	0.981445	1.566895	-135.800003	191.380005	-61.110001	52.00	-0.39	-0.04
3.36	0.00	0.00	0.00	0.00	0.50	4.25	0.00	4.75	8.75	13.00	13.50	12.25	11.00	14.25	5.50	8.25	-0.429688	0.142578	1.095215	21.000000	160.089996	-12.810000	1053.00	0.23	-0.10	3.50	3.75	0.50	1.25	0.00	0.00	0.00	0.00	0.00	0.00	0.00	0.00	0.00	0.00	0.00	0.00	-0.169434	0.144043	0.776367	-99.260002	191.100006	-29.330000	98.00	-0.38	-0.05
3.37	0.00	0.00	0.00	0.00	0.25	3.75	0.00	3.25	8.50	12.75	13.00	11.75	9.75	13.75	5.00	8.25	-0.462402	0.226562	0.992188	21.139999	173.529999	-15.540000	979.00	0.23	-0.09	5.25	6.25	0.75	1.75	0.00	0.00	0.00	0.00	0.00	0.00	0.00	0.00	0.00	0.00	0.00	0.00	-0.409668	0.255859	1.007324	-79.800003	208.740005	-17.780001	152.00	-0.38	-0.05
3.38	0.00	0.00	0.00	0.00	0.25	3.50	0.00	3.00	8.75	12.75	13.50	11.75	10.00	15.75	6.25	8.75	-0.492188	0.208984	1.035156	22.330000	188.930008	-16.799999	1019.00	0.24	-0.08	5.50	7.50	1.00	2.75	0.00	0.00	0.00	0.00	0.00	0.00	0.00	0.00	0.00	0.00	0.00	0.00	-0.881836	0.241699	2.209473	-63.770000	205.940002	-5.950000	183.00	-0.38	-0.07
3.39	0.00	0.00	0.00	0.00	0.50	2.50	0.00	2.50	8.50	12.50	13.00	11.25	9.25	16.00	6.00	8.75	-0.520020	0.227051	1.034668	22.889999	206.009995	-18.270000	976.00	0.25	-0.07	6.25	9.25	0.75	3.75	0.00	0.00	0.00	0.00	0.00	0.00	0.00	0.00	0.00	0.00	0.00	0.00	-0.746582	-0.035645	2.343750	-59.639999	166.110001	1.400000	218.00	-0.38	-0.08
3.40	0.00	0.50	0.00	0.00	0.25	1.75	0.00	2.25	8.50	12.50	12.75	11.25	8.50	16.50	6.00	8.50	-0.559570	0.240234	0.989746	23.100000	223.930008	-20.930000	958.00	0.25	-0.07	8.00	11.00	1.00	4.25	0.00	0.00	0.00	0.00	0.00	0.00	0.00	0.00	0.00	0.00	0.00	0.00	-0.593750	-0.093262	1.877930	-40.180000	126.349998	7.420000	264.00	-0.38	-0.07
3.41	0.00	0.00	0.00	0.00	0.25	0.75	0.00	1.50	8.50	12.00	12.50	10.75	8.00	16.50	6.00	8.50	-0.548828	0.249023	1.091309	24.710001	241.639999	-23.100000	910.00	0.27	-0.06	8.00	10.75	1.50	4.25	0.00	0.00	0.00	0.00	0.00	0.00	0.00	0.00	0.00	0.00	0.00	0.00	-0.267090	-0.128906	1.208496	-7.630000	105.910004	13.650000	268.00	-0.38	-0.07
3.42	0.00	0.00	0.00	0.00	0.25	0.50	0.00	1.00	8.50	11.75	12.00	10.25	7.75	16.25	5.75	8.25	-0.642090	0.276855	1.021484	18.760000	262.989990	-25.620001	875.00	0.27	-0.05	8.00	10.50	1.25	4.25	0.00	0.00	0.00	0.00	0.00	0.00	0.00	0.00	0.00	0.00	0.00	0.00	-0.173828	-0.239258	1.017578	7.630000	96.809998	5.040000	262.00	-0.38	-0.07
3.43	0.00	0.25	0.00	0.00	0.00	0.00	0.00	0.50	8.25	11.50	11.75	10.00	7.25	16.00	5.50	7.75	-0.723145	0.317383	1.026855	10.290000	285.529999	-30.450001	835.00	0.28	-0.04	8.25	11.25	1.75	5.00	0.25	0.25	0.00	0.00	0.00	0.00	0.00	0.00	0.50	0.00	0.00	0.00	-0.161621	-0.167480	0.867188	17.080000	94.570000	-10.780000	299.00	-0.36	-0.08
3.44	0.00	0.00	0.00	0.00	0.00	0.00	0.00	0.75	8.00	11.00	11.25	9.50	6.50	15.25	5.25	7.00	-0.827637	0.381348	1.088867	2.450000	307.160004	-37.660000	795.00	0.28	-0.04	8.00	12.50	2.00	6.50	0.50	0.75	0.00	0.00	0.00	0.00	0.00	0.00	1.75	0.00	0.00	0.00	-0.670410	0.327148	1.154297	-31.360001	18.549999	-16.940001	350.00	-0.33	-0.10
3.45	0.00	0.00	0.00	0.00	0.00	0.00	0.00	0.00	7.75	10.50	10.75	9.00	6.50	14.25	3.75	6.50	-1.154785	0.513672	1.297852	-4.690000	338.799988	-51.590000	732.00	0.28	-0.04	10.00	13.75	2.50	7.25	0.75	1.50	0.00	0.00	0.00	0.00	0.00	0.00	0.75	0.00	0.00	0.00	-0.670410	0.327148	1.154297	-31.360001	18.549999	-16.940001	403.00	-0.35	-0.09
3.46	0.00	0.00	0.00	0.00	0.00	0.00	0.00	0.00	7.50	10.00	10.00	8.75	6.50	13.25	3.00	6.00	-1.365234	0.541016	1.439453	5.530000	350.070007	-56.840000	691.00	0.27	-0.04	10.00	14.00	2.75	8.00	1.00	1.75	0.00	0.00	0.00	0.00	0.00	0.00	1.50	0.00	0.00	0.00	-0.264648	0.160156	1.069336	-40.389999	-0.910000	-4.340000	431.00	-0.33	-0.10
3.47	0.00	0.00	0.00	0.00	0.00	0.00	0.00	0.00	7.00	9.50	9.75	8.25	6.00	12.00	2.00	5.50	-1.589844	0.484375	1.737305	14.420000	353.010010	-61.459999	639.00	0.27	-0.04	11.00	15.00	3.00	8.75	1.50	2.50	0.00	0.00	0.00	0.00	0.00	0.00	2.25	0.00	0.00	0.00	-0.278809	0.181152	1.023926	-32.340000	-8.540000	-3.640000	486.00	-0.32	-0.10
3.48	0.00	0.00	0.00	0.00	0.00	0.00	0.00	0.00	6.75	9.00	9.00	7.75	5.25	11.00	1.50	5.25	-1.687500	0.470703	1.700684	15.050000	349.160004	-66.989998	591.00	0.27	-0.04	11.50	16.25	3.75	9.00	1.75	2.75	0.00	0.00	0.00	0.00	0.00	0.00	2.50	0.25	0.00	0.00	-0.240723	0.161621	0.970215	-32.689999	-8.400000	-2.800000	527.00	-0.32	-0.10
3.49	0.00	0.00	0.00	0.00	0.00	0.00	0.00	0.00	5.75	8.25	8.25	7.50	4.75	10.00	1.25	5.00	-1.679688	0.535156	1.753906	13.230000	341.110016	-74.199997	539.00	0.27	-0.04	12.75	16.75	4.00	9.75	2.50	3.75	0.00	0.25	0.25	0.25	0.00	0.00	2.75	0.25	0.00	0.00	-0.260742	0.155273	1.020996	-31.010000	-8.750000	-1.890000	592.00	-0.30	-0.10
3.50	0.00	0.00	0.00	0.00	0.00	0.00	0.00	0.00	5.25	7.75	7.75	6.50	3.25	9.25	0.00	3.75	-1.525391	0.653809	1.776367	15.260000	330.190002	-77.629997	466.00	0.27	-0.03	13.75	18.00	4.75	10.25	2.50	4.25	0.00	0.50	0.00	0.50	0.25	0.00	3.00	0.50	0.00	0.00	-0.248535	0.154297	0.998047	-24.150000	-7.910000	-1.400000	648.00	-0.30	-0.10
3.51	0.00	0.00	0.00	0.00	0.00	0.00	0.00	0.00	4.00	6.50	7.00	5.25	2.00	8.00	0.25	2.75	-1.339355	0.779297	1.934082	24.430000	317.589996	-80.010002	384.00	0.27	-0.02	14.50	18.50	5.00	11.00	3.00	4.75	0.00	0.50	0.50	0.50	0.25	0.25	3.25	0.50	0.00	0.00	-0.241699	0.142578	0.996582	-18.760000	-5.670000	-0.840000	698.00	-0.29	-0.09
3.52	0.00	0.00	0.00	0.00	0.00	0.00	0.00	0.00	2.50	5.50	5.75	4.25	1.75	6.50	0.25	1.75	-1.025391	0.840332	1.889160	45.430000	305.269989	-79.309998	303.00	0.27	-0.03	15.25	19.25	5.25	11.25	3.00	5.00	0.00	0.75	0.50	0.75	0.50	0.00	3.75	0.50	0.00	0.00	-0.237793	0.145020	0.985840	-12.740000	-3.850000	-0.420000	735.00	-0.28	-0.10
3.53	0.00	0.00	0.00	0.00	0.00	0.00	0.00	0.00	2.00	4.50	4.50	3.25	0.25	5.25	0.50	1.00	-0.669434	0.826660	1.831055	83.440002	292.600006	-77.279999	232.00	0.28	-0.00	15.00	19.25	5.25	11.75	3.25	5.00	0.00	0.75	0.75	0.50	0.50	0.50	3.75	0.75	0.25	0.00	-0.232910	0.143066	0.956543	-9.030000	-2.660000	-0.210000	753.00	-0.27	-0.10
3.54	0.00	0.00	0.00	0.00	0.00	0.00	0.00	0.00	1.50	3.75	3.50	2.25	0.25	2.50	0.00	0.50	-0.344238	0.794922	1.956543	135.029999	287.350006	-78.120003	159.00	0.26	-0.01	14.75	19.75	5.50	11.50	3.50	5.25	0.00	0.75	0.75	1.00	0.50	0.25	3.75	0.50	0.00	0.00	-0.227051	0.144043	0.953613	-7.840000	-2.240000	-0.000000	758.00	-0.27	-0.10
3.55	0.00	0.25	0.00	0.00	0.00	0.00	0.00	0.00	1.25	2.75	2.50	1.75	0.00	1.75	0.00	0.75	0.218262	0.767090	2.072754	195.229996	282.170013	-83.230003	121.00	0.25	-0.01	14.50	19.75	5.25	11.75	3.50	5.50	0.00	0.75	0.75	1.00	0.50	0.25	3.75	0.75	0.00	0.00	-0.223633	0.139160	0.937988	-7.630000	-2.380000	0.070000	761.00	-0.27	-0.10
3.56	0.00	0.00	0.00	0.00	0.00	0.00	0.00	0.00	0.75	2.00	2.00	1.25	0.00	0.50	0.00	0.00	1.119141	0.721680	2.285645	245.000000	248.990005	-84.139999	75.00	0.24	-0.02	15.00	19.50	5.50	12.00	3.50	6.00	0.00	1.00	0.75	1.00	0.50	0.25	4.00	0.75	0.25	0.00	-0.217773	0.141113	0.943848	-8.260000	-2.800000	-0.000000	785.00	-0.26	-0.10
3.57	0.00	0.00	0.00	0.00	0.00	0.00	0.00	0.00	0.75	2.00	2.00	1.00	0.00	0.50	0.00	0.25	0.830566	0.853516	2.513672	228.479996	202.720001	-69.720001	74.00	0.25	-0.02	14.00	19.00	5.50	12.00	4.00	6.00	0.00	1.00	0.75	1.00	1.50	1.00	4.25	0.75	0.25	0.00	-0.224121	0.137695	0.953125	-7.770000	-2.800000	0.070000	797.00	-0.25	-0.10
3.58	0.00	0.00	0.00	0.00	0.00	0.00	0.00	0.00	0.50	1.50	1.50	1.00	0.00	0.00	0.00	0.00	0.868164	0.636230	2.776855	149.449997	83.370003	-38.009998	53.00	0.23	-0.04	13.50	19.00	5.25	11.75	4.50	6.25	0.00	1.00	1.00	1.00	0.75	0.50	4.50	1.00	0.25	0.00	-0.225586	0.137207	0.957031	-6.720000	-1.470000	0.070000	789.00	-0.25	-0.10
3.59	0.00	0.00	0.00	0.00	0.00	0.00	0.00	0.00	0.00	1.75	1.50	0.75	0.00	0.00	0.00	0.00	0.804688	0.204590	2.124512	38.500000	-20.230000	-4.900000	46.00	0.00	0.00	13.00	18.00	5.50	11.75	4.50	6.25	0.00	1.00	1.00	1.00	0.75	0.75	5.00	0.75	0.25	0.00	-0.230469	0.141113	0.955566	-5.810000	-0.490000	0.070000	781.00	-0.24	-0.11
3.60	0.00	0.00	0.00	0.00	0.00	0.00	0.00	0.00	0.00	1.25	1.25	0.25	0.00	0.00	0.00	0.00	0.713379	0.077148	1.469727	-69.510002	-84.349998	10.290000	31.00	0.00	0.00	12.50	17.50	5.50	11.50	4.50	6.25	0.00	1.00	1.25	1.25	1.00	0.75	4.50	1.00	0.25	0.00	-0.230957	0.138184	0.962402	-4.830000	0.630000	-0.140000	774.00	-0.23	-0.10
3.61	0.00	0.00	0.00	0.00	0.00	0.00	0.00	0.00	0.00	1.00	1.00	0.25	0.00	0.00	0.00	0.00	0.482422	0.335938	0.952148	-132.229996	-136.990005	0.070000	26.00	0.00	0.00	11.50	16.75	5.25	11.25	4.50	6.25	0.00	1.00	1.25	1.25	1.00	0.50	4.50	1.00	0.25	0.00	-0.227051	0.136719	0.952148	-4.060000	1.540000	-0.000000	747.00	-0.23	-0.10
3.62	0.00	0.00	0.00	0.00	0.00	0.00	0.00	0.00	0.00	0.75	0.75	0.25	0.00	0.00	0.00	0.00	0.423340	0.407227	0.812988	-88.340004	-147.559998	-8.680000	20.00	0.00	0.00	10.75	16.00	5.25	11.25	4.50	6.25	0.00	1.25	1.25	1.50	1.00	0.75	4.50	0.75	0.25	0.00	-0.224609	0.141113	0.954102	-3.500000	1.890000	0.070000	738.00	-0.22	-0.11
3.63	0.00	0.00	0.00	0.00	0.00	0.00	0.00	0.00	0.50	1.00	0.50	0.00	0.00	0.00	0.00	0.00	0.357910	0.336426	0.780273	-27.230000	-157.850006	-16.660000	24.00	0.00	0.00	12.00	15.00	5.50	13.25	5.50	6.50	0.00	1.50	3.00	2.25	1.75	1.75	5.50	1.75	1.25	0.00	-0.225098	0.136719	0.957031	-3.290000	2.100000	-0.070000	872.00	-0.18	-0.10
3.64	0.00	0.00	0.00	0.00	0.00	0.00	0.00	0.00	0.00	0.50	0.50	0.00	0.00	0.00	0.00	0.00	0.281738	0.207520	0.809570	22.680000	-171.360001	-23.730000	11.00	0.00	0.00	9.25	14.00	5.25	10.25	5.00	6.00	0.00	1.00	1.25	1.25	1.00	0.50	4.50	0.75	0.25	0.00	-0.224609	0.138184	0.953125	-3.360000	2.450000	-0.000000	682.00	-0.22	-0.11
3.65	0.00	0.00	0.00	0.00	0.00	0.00	0.00	0.00	0.00	0.75	0.50	0.00	0.00	0.00	0.00	0.00	0.225098	0.096680	0.846680	46.549999	-187.669998	-29.049999	14.00	0.00	0.00	9.50	13.50	5.00	9.50	4.75	5.75	0.00	1.75	3.00	2.50	1.75	2.00	5.50	2.00	1.25	1.25	-0.227051	0.139160	0.950195	-3.150000	2.450000	0.070000	780.00	-0.15	-0.10
3.66	0.00	0.00	0.00	0.00	0.00	0.00	0.00	0.00	0.00	0.50	0.50	0.00	0.00	0.00	0.00	0.00	0.156250	0.074219	0.869629	45.080002	-205.380005	-31.150000	11.00	0.00	0.00	11.25	16.00	6.00	12.50	6.00	6.75	0.25	2.00	3.00	2.25	1.25	0.75	4.75	0.75	0.00	0.00	-0.223145	0.139648	0.944824	-2.800000	2.240000	0.070000	844.00	-0.20	-0.09
3.67	0.00	0.00	0.00	0.00	0.00	0.00	0.00	0.00	0.00	0.50	0.25	0.00	0.00	0.00	0.00	0.00	0.062012	0.145996	0.888672	29.960001	-222.740005	-27.650000	9.00	0.00	0.00	8.75	12.50	5.00	9.75	5.00	6.50	0.00	1.25	1.50	1.50	1.00	0.50	4.50	0.75	0.00	0.00	-0.226074	0.137207	0.951172	-2.800000	1.890000	0.070000	666.00	-0.21	-0.11
3.68	0.00	0.00	0.00	0.00	0.00	0.00	0.00	0.00	0.00	0.50	0.25	0.00	0.00	0.00	0.00	0.00	-0.056152	0.196777	0.963867	14.560000	-238.559998	-18.129999	9.00	0.00	0.00	8.00	12.00	4.75	9.75	4.75	6.50	0.00	1.00	1.50	1.75	1.25	1.00	4.25	0.75	0.25	0.00	-0.224121	0.140625	0.950684	-2.800000	1.540000	0.070000	654.00	-0.20	-0.11
3.69	0.00	0.00	0.00	0.00	0.00	0.00	0.00	0.00	0.00	0.25	0.25	0.00	0.00	0.00	0.00	0.00	-0.127930	0.317871	0.854004	7.840000	-250.880005	-3.290000	6.00	0.00	0.00	8.00	11.75	4.75	9.50	5.00	6.50	0.00	1.25	1.50	1.50	1.25	0.75	4.75	0.75	0.00	0.00	-0.225586	0.138184	0.943359	-3.080000	0.210000	-0.070000	652.00	-0.20	-0.11
3.70	0.00	0.00	0.00	0.00	0.00	0.00	0.00	0.00	0.00	0.00	0.25	0.00	0.00	0.00	0.00	0.00	-0.202637	0.358398	0.866699	9.100000	-259.489990	14.770000	3.00	0.00	0.00	7.75	11.00	4.75	9.75	5.00	6.50	0.00	1.00	1.50	2.00	1.75	1.25	4.25	1.00	0.25	0.00	-0.223145	0.139160	0.943848	-3.290000	-0.560000	-0.140000	658.00	-0.18	-0.11
