# time	left pressure 1[N/cm²]	left pressure 2[N/cm²]	left pressure 3[N/cm²]	left pressure 4[N/cm²]	left pressure 5[N/cm²]	left pressure 6[N/cm²]	left pressure 7[N/cm²]	left pressure 8[N/cm²]	left pressure 9[N/cm²]	left pressure 10[N/cm²]	left pressure 11[N/cm²]	left pressure 12[N/cm²]	left pressure 13[N/cm²]	left pressure 14[N/cm²]	left pressure 15[N/cm²]	left pressure 16[N/cm²]	left acceleration X[g]	left acceleration Y[g]	left acceleration Z[g]	left angular X[dps]	left angular Y[dps]	left angular Z[dps]	left total force[N]	left center of pressure X[%]	left center of pressure Y[%]	right pressure 1[N/cm²]	right pressure 2[N/cm²]	right pressure 3[N/cm²]	right pressure 4[N/cm²]	right pressure 5[N/cm²]	right pressure 6[N/cm²]	right pressure 7[N/cm²]	right pressure 8[N/cm²]	right pressure 9[N/cm²]	right pressure 10[N/cm²]	right pressure 11[N/cm²]	right pressure 12[N/cm²]	right pressure 13[N/cm²]	right pressure 14[N/cm²]	right pressure 15[N/cm²]	right pressure 16[N/cm²]	right acceleration X[g]	right acceleration Y[g]	right acceleration Z[g]	right angular X[dps]	right angular Y[dps]	right angular Z[dps]	right total force[N]	right center of pressure X[%]	right center of pressure Y[%]
0.00	1.00	1.00	0.50	0.50	0.25	0.00	0.25	0.00	1.75	1.75	1.00	0.75	0.00	1.25	0.25	0.00	-0.309082	0.042480	0.926758	-1.330000	5.670000	-1.400000	110.00	0.08	0.05	5.50	7.75	6.50	9.00	2.00	4.00	0.50	2.50	2.75	3.00	3.50	4.00	5.50	4.50	1.25	2.75	-0.248047	0.099121	0.952148	-2.380000	-3.010000	1.820000	671.00	-0.06	-0.11
0.01																										5.50	8.00	6.50	9.00	2.00	4.00	0.50	2.50	2.75	2.75	3.50	3.75	5.25	4.50	0.75	2.50	-0.249023	0.099609	0.943848	-2.520000	-2.800000	1.820000	659.00	-0.07	-0.10
0.02	1.00	1.00	0.75	0.25	0.50	0.00	0.25	0.00	1.25	2.00	1.00	0.75	0.00	1.25	0.25	0.25	-0.308105	0.043457	0.920898	-1.330000	5.950000	-1.260000	110.00	0.07	0.04	5.50	8.00	6.50	9.00	2.00	4.00	0.50	2.50	2.75	3.00	3.75	4.00	5.50	4.25	0.75	2.50	-0.247559	0.096191	0.950195	-2.380000	-2.870000	1.890000	667.00	-0.07	-0.11
0.03	1.00	0.75	0.75	0.25	0.25	0.00	0.25	0.00	1.50	2.00	1.00	0.75	0.00	1.25	0.00	0.00	-0.312500	0.047852	0.932129	-1.190000	5.950000	-1.190000	104.00	0.08	0.06																									
0.04	1.25	0.25	0.50	0.00	0.00	0.25	0.25	0.00	1.50	1.75	1.25	0.75	0.00	1.00	0.25	0.25	-0.312988	0.040039	0.921875	-1.260000	6.020000	-1.190000	99.00	0.11	0.05	5.75	8.00	6.50	9.25	2.00	3.75	0.50	2.50	2.50	3.25	3.50	4.00	5.25	4.25	1.00	2.50	-0.242676	0.099609	0.950195	-2.450000	-2.870000	1.820000	667.00	-0.07	-0.11
0.05	1.00	1.00	0.50	0.50	0.50	0.00	0.25	0.00	1.25	1.75	1.00	0.75	0.00	1.25	0.25	0.00	-0.313477	0.048828	0.931641	-1.330000	6.230000	-1.260000	106.00	0.06	0.04																									
0.06	0.75	0.75	0.75	0.50	0.25	0.00	0.25	0.00	1.50	2.00	1.00	0.75	0.00	1.25	0.00	0.00	-0.311523	0.041504	0.926758	-1.190000	6.020000	-1.260000	105.00	0.08	0.05	5.75	8.00	6.25	9.25	2.00	4.00	0.50	2.50	2.75	3.00	3.50	3.75	5.50	4.25	1.00	2.50	-0.254395	0.091797	0.951660	-2.310000	-2.870000	1.960000	667.00	-0.07	-0.11
0.07	1.00	1.00	0.50	0.50	0.25	0.00	0.25	0.00	1.50	1.75	1.00	0.50	0.00	1.00	0.25	0.25	-0.312012	0.039062	0.927734	-1.190000	6.160000	-1.330000	103.00	0.07	0.04	5.75	8.00	6.50	9.25	2.00	4.00	0.50	2.50	2.50	2.75	3.75	3.75	5.25	4.50	1.00	2.75	-0.250977	0.104980	0.954102	-2.310000	-2.800000	2.030000	668.00	-0.07	-0.11
0.08	1.00	0.75	0.50	0.50	0.00	0.00	0.25	0.00	1.50	1.75	1.00	0.75	0.00	1.25	0.25	0.25	-0.309570	0.035645	0.924316	-1.330000	6.160000	-1.400000	103.00	0.09	0.04	5.75	8.00	6.50	9.25	2.00	4.00	0.50	2.75	2.50	3.00	3.75	3.75	5.50	4.50	1.00	2.50	-0.255371	0.095215	0.954590	-2.310000	-2.730000	1.890000	675.00	-0.07	-0.11
0.09	0.75	1.00	0.75	0.25	0.50	0.00	0.25	0.00	2.00	2.00	0.75	0.50	0.00	1.25	0.00	0.25	-0.309570	0.039062	0.927734	-1.260000	6.160000	-1.260000	109.00	0.08	0.07	6.00	8.00	6.50	9.25	2.25	3.75	0.50	2.50	3.00	3.00	3.75	4.00	5.25	4.50	1.00	2.75	-0.250488	0.102051	0.955078	-2.310000	-2.660000	1.750000	682.00	-0.07	-0.10
0.10	1.00	1.00	1.00	0.50	0.25	0.00	0.25	0.00	1.25	2.00	1.00	0.50	0.00	1.25	0.00	0.00	-0.312988	0.041016	0.928711	-1.190000	5.880000	-1.260000	106.00	0.04	0.05	5.75	8.00	6.75	9.50	2.00	4.00	0.50	2.50	2.75	2.75	3.75	4.00	5.50	4.25	1.00	2.50	-0.251953	0.101562	0.947266	-2.310000	-2.940000	1.820000	678.00	-0.07	-0.11
0.11	1.00	0.75	0.50	0.25	0.50	0.00	0.25	0.00	1.25	2.00	1.25	1.00	0.00	1.50	0.25	0.00	-0.310059	0.044922	0.929199	-1.260000	6.020000	-1.330000	111.00	0.10	0.04	6.00	8.25	6.50	9.25	2.00	4.00	0.50	2.50	3.00	2.75	3.75	4.00	5.25	4.50	1.25	2.50	-0.249512	0.103027	0.949219	-2.310000	-3.010000	1.890000	683.00	-0.07	-0.10
0.12	1.00	1.25	0.75	0.50	0.25	0.00	0.25	0.00	1.75	1.75	1.00	0.75	0.00	1.25	0.50	0.00	-0.310059	0.044922	0.926270	-1.470000	6.300000	-1.470000	118.00	0.07	0.04	6.00	8.25	6.50	9.25	2.00	3.75	0.50	2.50	2.75	2.75	3.75	4.00	5.25	4.50	0.75	2.50	-0.249023	0.104492	0.950195	-2.380000	-2.940000	1.890000	672.00	-0.07	-0.10
0.13	0.75	1.00	0.75	1.00	0.50	0.00	0.25	0.00	1.75	1.75	1.00	0.75	0.00	1.25	0.00	0.00	-0.309570	0.041504	0.929688	-1.540000	6.300000	-1.540000	116.00	0.05	0.04	6.00	8.00	6.75	9.25	2.00	4.00	0.50	2.50	2.75	3.00	3.75	4.00	5.25	4.25	1.00	2.50	-0.250977	0.103516	0.953613	-2.380000	-2.940000	1.890000	678.00	-0.07	-0.10
0.14	1.00	1.00	0.75	0.50	0.25	0.00	0.25	0.00	1.75	1.75	1.25	0.75	0.00	0.75	0.25	0.00	-0.311035	0.040527	0.930664	-1.540000	6.020000	-1.400000	111.00	0.06	0.04	6.00	8.00	6.75	9.50	2.00	3.75	0.50	2.50	2.50	3.00	3.50	4.00	5.50	4.25	0.75	2.75	-0.248535	0.102051	0.947754	-2.310000	-2.940000	1.890000	673.00	-0.07	-0.11
0.15	1.00	0.75	1.00	0.50	0.25	0.00	0.25	0.00	1.75	2.00	1.00	1.00	0.00	1.00	0.25	0.00	-0.312988	0.039062	0.925293	-1.540000	6.090000	-1.470000	116.00	0.07	0.05	6.00	8.25	6.75	9.25	2.00	3.75	0.50	2.50	2.50	2.75	3.75	4.00	5.25	4.25	1.00	2.50	-0.251465	0.090820	0.953613	-2.380000	-2.940000	1.890000	672.00	-0.07	-0.11
0.16	1.00	1.00	0.50	0.25	0.50	0.00	0.25	0.00	1.50	1.75	1.00	0.75	0.00	1.00	0.25	0.25	-0.312012	0.042480	0.924805	-1.470000	6.020000	-1.330000	106.00	0.07	0.04	6.25	8.25	6.75	9.25	2.00	4.00	0.50	2.75	2.75	3.00	3.75	3.75	5.25	4.25	0.75	2.75	-0.254883	0.102539	0.954102	-2.380000	-2.940000	1.890000	683.00	-0.07	-0.10
0.17	0.75	1.00	0.75	0.25	0.25	0.00	0.25	0.00	1.25	2.00	1.00	0.50	0.00	1.25	0.00	0.00	-0.312500	0.040527	0.927734	-1.470000	5.950000	-1.330000	98.00	0.07	0.06	6.00	8.25	6.75	9.50	2.00	4.25	0.50	2.50	2.75	3.00	3.50	4.00	5.50	4.25	1.00	2.25	-0.250000	0.103027	0.949707	-2.310000	-2.940000	1.960000	684.00	-0.07	-0.11
0.18	1.00	1.00	0.75	0.50	0.25	0.00	0.25	0.00	1.50	2.00	1.00	0.75	0.00	1.25	0.25	0.00	-0.309082	0.039551	0.928223	-1.400000	6.090000	-1.400000	112.00	0.07	0.04	6.00	8.25	6.75	9.50	2.00	3.75	0.50	2.50	2.75	2.75	3.75	4.00	5.25	4.25	1.00	2.50	-0.249512	0.096680	0.951172	-2.240000	-3.010000	1.820000	678.00	-0.07	-0.10
0.19	1.00	1.00	0.50	0.50	0.00	0.00	0.25	0.00	1.75	2.00	1.25	1.00	0.00	1.25	0.00	0.00	-0.312988	0.037598	0.929199	-1.400000	6.020000	-1.260000	112.00	0.09	0.04	6.25	8.25	6.75	9.50	1.75	3.75	0.50	2.50	2.75	3.00	3.50	4.00	5.25	4.25	1.00	2.75	-0.248535	0.098633	0.950195	-2.310000	-2.940000	1.890000	679.00	-0.07	-0.10
0.20	1.00	1.00	0.50	0.50	0.25	0.00	0.25	0.00	1.25	1.75	1.00	0.75	0.00	1.00	0.00	0.00	-0.312988	0.037598	0.929199	-1.400000	6.020000	-1.260000	99.00	0.05	0.04	6.00	8.50	6.75	9.50	2.00	4.00	0.50	2.50	2.50	3.00	3.50	4.00	5.25	4.50	0.75	2.25	-0.246582	0.097656	0.953125	-2.170000	-2.870000	1.820000	678.00	-0.08	-0.10
0.21	1.00	1.00	0.50	0.25	0.50	0.00	0.25	0.00	1.50	1.75	1.00	0.50	0.00	1.00	0.25	0.25	-0.307129	0.041992	0.924316	-1.540000	6.230000	-1.400000	103.00	0.07	0.05	6.50	8.25	7.00	9.50	2.00	4.00	0.50	2.75	2.75	3.00	3.75	4.25	5.50	4.25	1.00	2.50	-0.251465	0.104980	0.953613	-2.380000	-3.150000	1.820000	700.00	-0.07	-0.11
0.22	1.00	0.75	0.75	0.25	0.25	0.00	0.25	0.00	1.75	2.00	1.00	0.50	0.00	1.50	0.00	0.00	-0.312500	0.040527	0.929688	-1.540000	6.230000	-1.400000	107.00	0.09	0.08	6.25	8.50	6.75	9.75	2.00	4.00	0.50	2.50	2.50	2.75	3.75	3.75	5.25	4.25	0.75	2.50	-0.253906	0.101562	0.955078	-2.380000	-3.080000	1.820000	680.00	-0.08	-0.11
0.23	1.00	1.00	0.50	0.25	0.25	0.00	0.25	0.00	1.75	1.75	0.75	0.75	0.00	1.00	0.25	0.00	-0.312988	0.041016	0.926270	-1.470000	6.160000	-1.400000	102.00	0.08	0.06	6.00	8.50	6.75	9.50	2.00	4.00	0.50	2.50	2.50	2.75	3.50	3.75	5.25	4.50	0.75	2.50	-0.251465	0.098145	0.954102	-2.170000	-3.010000	1.820000	674.00	-0.08	-0.11
0.24	1.00	1.00	0.75	0.50	0.25	0.00	0.25	0.00	1.50	1.75	1.00	0.75	0.00	1.00	0.00	0.00	-0.306152	0.046875	0.927246	-1.400000	6.020000	-1.330000	105.00	0.05	0.04	6.25	8.50	7.00	9.50	2.00	4.00	0.50	2.50	2.50	2.75	3.75	3.75	5.25	4.25	0.75	2.50	-0.251465	0.100098	0.956055	-2.170000	-3.010000	1.820000	680.00	-0.08	-0.10
0.25	1.00	1.25	0.50	1.00	0.50	0.00	0.25	0.00	1.50	1.75	1.00	0.50	0.00	1.00	0.00	0.25	-0.308105	0.041992	0.931641	-1.400000	6.020000	-1.330000	111.00	0.03	0.03	6.25	8.50	7.00	9.50	2.00	3.75	0.50	2.50	2.50	2.75	3.50	4.00	5.25	4.25	1.00	2.50	-0.254883	0.097168	0.949219	-2.380000	-3.010000	1.820000	680.00	-0.08	-0.10
0.26	1.00	1.00	0.50	0.50	0.25	0.00	0.25	0.00	1.50	1.75	1.00	0.75	0.00	1.25	0.25	0.00	-0.305664	0.043457	0.926270	-1.400000	6.160000	-1.470000	107.00	0.07	0.04	6.50	8.25	7.00	9.75	2.00	3.75	0.50	2.25	2.25	2.75	3.75	4.00	5.25	4.50	0.75	2.50	-0.251465	0.097168	0.958008	-2.380000	-3.080000	1.890000	678.00	-0.08	-0.10
0.27	0.75	1.00	0.50	0.50	0.25	0.00	0.25	0.00	1.75	1.75	1.00	1.00	0.00	1.25	0.25	0.00	-0.312012	0.041504	0.921387	-1.470000	6.230000	-1.470000	110.00	0.09	0.04	6.50	8.50	7.00	9.75	2.25	3.75	0.50	2.25	2.50	3.00	3.75	3.75	5.25	4.00	0.75	2.50	-0.251465	0.096680	0.954590	-2.380000	-3.010000	1.750000	682.00	-0.08	-0.10
0.28	1.00	1.00	0.50	0.50	0.50	0.00	0.25	0.00	1.75	2.00	1.00	0.75	0.00	1.25	0.25	0.00	-0.305176	0.045410	0.927734	-1.330000	6.020000	-1.190000	115.00	0.08	0.05	6.75	8.50	7.00	9.50	2.00	4.00	0.50	2.50	2.50	3.00	3.75	3.75	5.25	4.25	1.00	2.50	-0.246582	0.101562	0.956055	-2.380000	-3.080000	1.750000	690.00	-0.08	-0.10
0.29	1.00	1.00	0.75	0.50	0.50	0.00	0.25	0.00	1.75	1.75	1.00	1.00	0.00	1.50	0.25	0.00	-0.305176	0.039551	0.932617	-1.260000	6.230000	-1.260000	120.00	0.07	0.05	6.50	8.75	7.25	9.75	2.00	4.00	0.50	2.50	2.50	3.00	3.75	4.00	5.50	4.25	1.25	2.50	-0.252441	0.102051	0.955566	-2.450000	-3.010000	1.820000	703.00	-0.08	-0.10
0.30	1.00	1.00	1.00	0.25	0.25	0.00	0.25	0.00	1.25	2.00	1.00	0.50	0.00	1.25	0.00	0.00	-0.306152	0.043945	0.932129	-1.260000	6.300000	-1.330000	104.00	0.05	0.06	6.50	8.75	7.25	9.75	1.75	4.00	0.50	2.25	2.75	2.75	3.50	3.50	5.25	4.25	1.00	2.50	-0.250000	0.101074	0.957520	-2.310000	-2.940000	1.890000	684.00	-0.08	-0.10
0.31	1.00	1.25	0.50	0.00	0.25	0.00	0.25	0.00	1.50	1.75	0.75	0.75	0.00	1.00	0.25	0.00	-0.314453	0.041504	0.931641	-1.470000	6.580000	-1.470000	99.00	0.07	0.05	6.50	8.75	7.50	10.00	2.00	4.00	0.50	2.25	2.50	2.75	3.50	4.00	5.25	4.25	1.00	2.50	-0.256836	0.094727	0.955078	-2.240000	-2.870000	1.820000	695.00	-0.09	-0.10
0.32	1.00	1.00	0.75	0.50	0.25	0.00	0.25	0.00	1.25	2.00	1.00	0.50	0.00	1.50	0.25	0.25	-0.311523	0.042480	0.930176	-1.190000	6.300000	-1.330000	110.00	0.07	0.04	6.50	8.75	7.25	9.75	2.00	4.00	0.50	2.25	2.50	3.00	3.25	4.00	5.25	4.25	1.00	2.25	-0.252441	0.097168	0.952148	-2.310000	-2.870000	1.890000	688.00	-0.08	-0.10
0.33	1.00	0.75	0.50	0.25	0.25	0.00	0.25	0.00	1.75	2.00	1.00	0.75	0.00	1.50	0.25	0.00	-0.312988	0.038574	0.930176	-1.190000	6.230000	-1.330000	110.00	0.11	0.06	6.50	8.75	7.25	9.75	2.00	3.75	0.50	2.25	2.50	3.00	3.75	4.00	5.25	4.00	1.00	2.50	-0.247559	0.099609	0.957031	-2.380000	-2.870000	1.890000	689.00	-0.08	-0.10
0.34	0.75	0.75	0.75	0.50	0.50	0.00	0.25	0.00	1.75	2.00	1.00	1.00	0.00	1.00	0.00	0.25	-0.312012	0.047363	0.932129	-1.260000	6.370000	-1.330000	112.00	0.08	0.04	6.50	8.75	7.00	9.75	2.00	4.00	0.50	2.50	2.50	3.00	3.50	3.75	5.25	4.25	1.00	2.50	-0.246094	0.096191	0.944336	-2.380000	-2.870000	1.890000	690.00	-0.08	-0.10
0.35	1.00	1.25	0.75	0.50	0.25	0.00	0.25	0.00	1.75	1.75	1.00	0.75	0.00	1.25	0.25	0.00	-0.316406	0.038574	0.930664	-1.260000	6.300000	-1.330000	115.00	0.06	0.05	6.50	8.75	7.50	10.00	2.00	3.75	0.50	2.50	2.75	3.00	3.50	4.00	5.25	4.25	0.75	2.50	-0.251953	0.099121	0.951172	-2.380000	-2.940000	1.890000	699.00	-0.08	-0.10
0.36	1.00	1.00	0.75	0.25	0.25	0.00	0.25	0.00	1.75	1.75	1.00	0.75	0.00	1.25	0.00	0.00	-0.310547	0.036133	0.930664	-1.260000	6.230000	-1.330000	107.00	0.07	0.06	6.50	8.75	7.50	9.75	2.00	4.00	0.50	2.50	2.50	2.75	3.50	4.00	5.25	4.25	1.00	2.50	-0.250000	0.098145	0.958496	-2.450000	-2.870000	1.890000	696.00	-0.08	-0.10
0.37	1.00	1.25	0.50	1.00	0.00	0.00	0.25	0.00	2.00	1.75	1.00	1.00	0.00	1.25	0.00	0.00	-0.313965	0.040527	0.927734	-1.330000	6.160000	-1.330000	118.00	0.06	0.03	6.75	9.00	7.50	9.75	1.75	4.00	0.50	2.25	2.75	2.75	3.50	3.75	5.25	4.00	1.00	2.50	-0.250977	0.100098	0.957031	-2.380000	-2.940000	1.890000	692.00	-0.09	-0.10
0.38	1.00	1.00	0.75	0.00	0.25	0.00	0.25	0.00	1.50	1.75	1.00	0.75	0.00	1.25	0.25	0.25	-0.306152	0.042969	0.927246	-1.260000	6.160000	-1.330000	105.00	0.09	0.05	6.50	8.75	7.50	10.00	2.00	3.75	0.50	2.50	2.75	2.75	3.50	3.75	5.25	4.00	0.75	2.50	-0.250977	0.100098	0.957031	-2.380000	-2.940000	1.890000	692.00	-0.09	-0.10
0.39	0.75	0.75	0.75	0.00	0.25	0.00	0.25	0.00	2.00	1.75	1.00	1.00	0.00	1.25	0.00	0.00	-0.312500	0.044434	0.927246	-1.120000	6.160000	-1.330000	106.00	0.11	0.07	6.75	9.00	7.50	9.75	2.00	3.75	0.50	2.25	2.50	3.00	3.50	3.75	5.25	4.00	1.00	2.50	-0.251465	0.103516	0.951660	-2.450000	-2.870000	1.960000	692.00	-0.09	-0.10
0.40	1.00	1.00	0.75	0.00	0.50	0.00	0.25	0.00	1.50	1.75	1.00	0.75	0.00	1.00	0.25	0.00	-0.308594	0.040039	0.926270	-1.120000	5.950000	-1.120000	105.00	0.07	0.06	6.50	8.75	7.50	9.75	2.00	4.00	0.50	2.25	2.50	2.75	3.25	3.75	5.25	4.00	1.00	2.50	-0.251465	0.100098	0.954590	-2.450000	-2.940000	1.820000	684.00	-0.09	-0.10
0.41	0.75	1.00	0.50	0.00	0.50	0.00	0.25	0.00	1.50	1.75	1.25	0.75	0.00	1.25	0.00	0.25	-0.308594	0.040039	0.926270	-1.120000	5.950000	-1.120000	103.00	0.10	0.05	7.00	9.00	7.50	10.00	2.00	3.75	0.50	2.25	2.50	2.75	3.75	3.50	5.25	4.00	1.00	2.50	-0.249512	0.101562	0.952148	-2.450000	-3.080000	1.750000	695.00	-0.09	-0.10
0.42	0.75	1.00	1.00	0.25	0.50	0.00	0.25	0.00	1.25	2.00	1.00	0.50	0.00	1.50	0.25	0.00	-0.315430	0.041016	0.931641	-1.050000	6.160000	-1.330000	108.00	0.07	0.06	6.75	9.00	7.50	9.75	1.75	3.75	0.50	2.25	2.25	3.00	3.50	3.75	5.25	4.00	1.00	2.50	-0.251465	0.101074	0.951172	-2.450000	-3.080000	1.890000	686.00	-0.09	-0.10
0.43	1.00	1.00	0.75	0.50	0.25	0.00	0.25	0.00	1.75	2.00	1.00	0.75	0.00	1.25	0.00	0.25	-0.313965	0.046387	0.931641	-1.050000	6.160000	-1.330000	114.00	0.07	0.05	6.75	9.00	7.50	10.00	2.00	4.00	0.50	2.25	2.50	2.75	3.50	3.75	5.25	4.00	1.00	2.50	-0.250488	0.099121	0.948242	-2.520000	-3.080000	1.820000	695.00	-0.09	-0.10
0.44	1.00	1.25	1.00	0.50	0.50	0.25	0.25	0.00	1.75	1.75	0.75	1.00	0.00	1.25	0.25	0.25	-0.309082	0.042969	0.932129	-1.120000	6.090000	-1.260000	125.00	0.05	0.03	6.75	8.75	7.50	10.00	2.00	3.75	0.50	2.50	2.50	2.75	3.50	3.75	5.25	4.25	1.00	2.50	-0.249023	0.098145	0.953613	-2.520000	-3.080000	1.820000	696.00	-0.09	-0.10
0.45	0.75	1.00	0.75	0.50	0.50	0.00	0.25	0.00	1.50	1.75	1.00	1.00	0.00	1.25	0.00	0.25	-0.306641	0.046875	0.926758	-1.120000	6.230000	-1.330000	111.00	0.07	0.03	7.00	9.25	7.50	10.25	2.00	3.75	0.50	2.50	2.50	2.75	3.25	3.50	5.25	4.25	1.00	2.50	-0.250977	0.103027	0.954590	-2.520000	-3.080000	1.890000	700.00	-0.09	-0.10
0.46	1.00	1.00	0.75	0.00	0.25	0.25	0.25	0.00	1.50	2.00	1.00	0.75	0.00	1.25	0.25	0.25	-0.318848	0.042969	0.925781	-1.260000	6.160000	-1.400000	111.00	0.08	0.05	7.00	9.25	7.50	10.00	2.00	3.75	0.50	2.25	2.50	2.75	3.50	3.50	5.00	4.00	0.75	2.50	-0.249512	0.097168	0.957031	-2.520000	-3.150000	1.750000	689.00	-0.10	-0.10
0.47	1.25	1.00	0.75	0.25	0.50	0.00	0.25	0.00	1.75	2.25	1.00	0.75	0.00	1.25	0.00	0.00	-0.309570	0.042480	0.929199	-1.260000	6.370000	-1.470000	118.00	0.06	0.06	6.75	9.25	7.50	10.00	2.00	3.75	0.50	2.50	2.25	2.50	3.50	3.50	5.00	4.00	0.50	2.25	-0.247070	0.100098	0.958008	-2.590000	-3.150000	1.890000	681.00	-0.10	-0.10
0.48	0.75	0.50	0.75	0.25	0.25	0.00	0.25	0.00	1.25	2.00	1.00	0.75	0.00	1.00	0.25	0.25	-0.310547	0.039551	0.930176	-1.400000	6.510000	-1.470000	98.00	0.10	0.05	7.25	9.00	7.50	10.00	2.00	3.75	0.50	2.25	2.50	2.50	3.25	3.50	5.00	4.00	1.00	2.50	-0.246094	0.099609	0.952148	-2.520000	-3.150000	1.890000	687.00	-0.10	-0.10
0.49	1.00	1.00	0.50	0.25	0.50	0.00	0.25	0.00	1.75	2.00	1.25	0.75	0.00	1.25	0.25	0.25	-0.308105	0.042480	0.926758	-1.400000	6.440000	-1.400000	117.00	0.09	0.05	7.00	9.25	7.75	10.00	1.75	3.75	0.50	2.25	2.25	2.50	3.50	3.75	5.00	4.00	0.75	2.50	-0.249512	0.100098	0.954590	-2.520000	-3.010000	1.960000	686.00	-0.10	-0.10
0.50	1.00	1.00	0.75	0.75	0.25	0.00	0.25	0.00	1.50	2.00	1.25	0.75	0.25	1.25	0.00	0.25	-0.306641	0.047852	0.927246	-1.400000	6.300000	-1.260000	118.00	0.06	0.02	7.25	9.25	7.50	10.25	2.00	3.75	0.50	2.25	2.25	2.75	3.25	3.50	5.25	3.75	0.75	2.25	-0.251465	0.103027	0.957520	-2.520000	-3.080000	2.030000	688.00	-0.10	-0.10
0.51	1.00	1.00	0.75	0.75	0.25	0.00	0.25	0.00	1.75	2.00	1.25	0.75	0.00	1.00	0.25	0.00	-0.312500	0.033691	0.929688	-1.330000	6.370000	-1.330000	119.00	0.06	0.04	7.25	9.25	7.50	10.00	1.75	3.50	0.50	2.25	2.50	2.75	3.25	3.50	5.00	3.75	1.00	2.50	-0.251465	0.099609	0.951172	-2.520000	-3.150000	1.960000	684.00	-0.10	-0.10
0.52	1.00	1.00	0.50	0.25	0.25	0.00	0.25	0.00	1.50	2.00	1.25	0.75	0.00	1.50	0.00	0.00	-0.314453	0.041992	0.927246	-1.400000	6.300000	-1.470000	109.00	0.09	0.05	7.25	9.25	7.75	10.25	2.00	3.75	0.50	2.25	2.50	2.75	3.25	3.75	5.00	4.00	1.00	2.50	-0.254395	0.105469	0.954590	-2.450000	-3.010000	1.820000	700.00	-0.10	-0.10
0.53	0.75	1.00	0.50	0.50	0.25	0.00	0.25	0.00	1.75	2.00	1.00	0.75	0.00	1.25	0.25	0.00	-0.312500	0.042969	0.930664	-1.330000	6.370000	-1.470000	110.00	0.09	0.05	7.00	9.25	7.50	10.25	2.00	3.75	0.50	2.25	2.25	2.75	3.50	3.50	5.00	3.75	0.75	2.25	-0.253906	0.098633	0.959961	-2.520000	-2.940000	1.890000	685.00	-0.10	-0.10
0.54	1.00	1.00	0.75	0.50	0.25	0.00	0.25	0.00	1.50	1.75	1.25	1.25	0.00	1.25	0.25	0.00	-0.309570	0.043457	0.928711	-1.260000	5.950000	-1.330000	117.00	0.07	0.03	7.00	9.25	7.50	10.25	1.75	4.00	0.50	2.25	2.50	2.75	3.25	3.25	5.00	3.75	1.00	2.50	-0.252930	0.099121	0.949707	-2.380000	-2.940000	1.890000	687.00	-0.10	-0.10
0.55	1.00	1.00	0.75	1.00	0.25	0.00	0.25	0.00	1.75	1.75	1.00	1.00	0.00	1.25	0.00	0.00	-0.311035	0.041992	0.923828	-1.260000	5.950000	-1.400000	118.00	0.05	0.03	7.25	9.50	7.50	10.00	2.00	3.75	0.50	2.25	2.25	2.75	3.50	3.75	5.00	4.00	0.75	2.50	-0.253906	0.097656	0.954590	-2.380000	-2.940000	1.890000	694.00	-0.10	-0.10
0.56	1.00	0.75	0.75	0.25	0.25	0.00	0.25	0.00	1.50	1.50	1.00	0.75	0.00	1.25	0.25	0.00	-0.311035	0.045898	0.933105	-1.400000	6.090000	-1.260000	102.00	0.08	0.06	7.25	9.50	7.75	10.25	2.00	3.75	0.50	2.25	2.25	3.00	3.25	3.50	5.00	3.75	1.00	2.50	-0.250000	0.101074	0.952637	-2.310000	-3.010000	1.820000	697.00	-0.10	-0.10
0.57	1.25	1.25	0.75	0.50	0.25	0.00	0.25	0.00	1.50	2.00	1.00	1.00	0.00	1.00	0.00	0.00	-0.311035	0.042480	0.924805	-1.400000	6.090000	-1.330000	115.00	0.04	0.03	7.25	9.25	7.75	10.25	1.75	3.75	0.50	2.25	2.50	3.00	3.25	3.50	5.00	3.75	0.75	2.25	-0.252930	0.096680	0.958496	-2.450000	-3.010000	1.960000	691.00	-0.10	-0.10
0.58	1.25	1.25	0.50	0.75	0.25	0.00	0.25	0.00	1.75	1.75	1.25	0.50	0.00	1.00	0.25	0.00	-0.310059	0.039551	0.932129	-1.260000	6.090000	-1.400000	115.00	0.04	0.04	7.50	9.50	7.75	10.00	1.75	3.75	0.50	2.25	2.25	2.75	3.25	3.50	5.00	4.00	1.00	2.50	-0.251953	0.095703	0.951172	-2.310000	-2.940000	1.890000	694.00	-0.10	-0.10
0.59	1.00	1.00	0.75	0.25	0.25	0.00	0.25	0.00	1.75	2.25	1.00	0.75	0.00	1.25	0.25	0.25	-0.312988	0.038574	0.930176	-1.400000	6.160000	-1.330000	117.00	0.09	0.05	7.25	9.50	7.75	10.25	1.75	3.75	0.50	2.25	2.00	2.75	3.50	3.50	5.00	3.75	1.00	2.50	-0.244629	0.097656	0.952148	-2.310000	-2.940000	1.820000	691.00	-0.10	-0.10
0.60	1.25	1.00	0.50	0.75	0.25	0.00	0.25	0.00	1.50	1.75	1.00	0.75	0.00	1.25	0.00	0.00	-0.314453	0.042969	0.930664	-1.260000	6.090000	-1.330000	109.00	0.04	0.04	7.25	9.50	8.00	10.25	2.00	3.75	0.50	2.25	2.25	2.75	3.25	3.25	5.00	3.75	1.00	2.50	-0.246094	0.096191	0.954102	-2.310000	-3.010000	1.890000	695.00	-0.10	-0.10
0.61	1.25	1.00	0.75	0.25	0.25	0.00	0.25	0.00	1.50	2.00	1.00	0.75	0.00	1.50	0.00	0.00	-0.313965	0.041016	0.923828	-1.260000	6.160000	-1.400000	111.00	0.06	0.06	7.25	9.50	7.75	10.25	2.00	3.75	0.50	2.25	2.00	2.75	3.25	3.50	5.00	4.00	0.75	2.25	-0.256348	0.102539	0.952637	-2.380000	-2.940000	1.820000	689.00	-0.11	-0.10
0.62	1.25	1.25	0.75	0.25	0.25	0.00	0.25	0.00	1.25	2.00	1.00	0.75	0.00	1.25	0.25	0.00	-0.308594	0.041016	0.932617	-1.330000	6.300000	-1.190000	111.00	0.05	0.04	7.50	9.50	7.75	10.25	2.00	4.00	0.50	2.00	2.25	2.75	3.25	3.25	5.00	3.50	1.00	2.50	-0.250488	0.098633	0.957031	-2.310000	-3.010000	1.890000	691.00	-0.11	-0.10
0.63	1.00	0.75	0.75	0.25	0.25	0.00	0.25	0.00	1.75	2.00	1.00	0.75	0.00	1.25	0.25	0.25	-0.309082	0.045410	0.931152	-1.330000	6.160000	-1.260000	112.00	0.10	0.06	7.25	9.25	7.75	10.25	2.00	3.75	0.50	2.25	2.25	2.75	3.50	3.50	5.00	3.75	0.75	2.25	-0.250977	0.097168	0.950684	-2.310000	-2.940000	2.030000	691.00	-0.10	-0.10
0.64	1.00	1.25	0.75	0.50	0.50	0.00	0.25	0.00	1.50	2.00	1.00	0.75	0.00	1.25	0.25	0.25	-0.308105	0.044434	0.931152	-1.330000	6.370000	-1.260000	118.00	0.06	0.04	7.25	9.50	7.75	10.25	1.75	3.75	0.50	2.25	2.25	2.75	3.25	3.75	5.00	3.75	0.75	2.50	-0.248047	0.099609	0.951660	-2.380000	-2.940000	1.960000	692.00	-0.10	-0.10
0.65	0.75	1.00	0.75	0.50	0.25	0.00	0.25	0.00	1.75	2.00	1.00	0.75	0.00	1.25	0.25	0.25	-0.312988	0.041016	0.929199	-1.330000	6.440000	-1.260000	114.00	0.09	0.05	7.50	9.50	7.75	10.25	2.00	4.00	0.50	2.25	2.25	2.75	3.25	3.25	5.00	3.75	0.75	2.25	-0.249023	0.098633	0.951660	-2.380000	-2.870000	1.820000	693.00	-0.11	-0.10
0.66	1.00	1.00	0.50	0.25	0.50	0.00	0.25	0.00	1.75	2.00	1.00	0.75	0.00	1.00	0.00	0.00	-0.307617	0.041016	0.927246	-1.470000	6.300000	-1.260000	108.00	0.07	0.06	7.50	9.50	7.75	10.25	1.75	3.75	0.50	2.25	2.25	2.75	3.25	3.50	5.00	3.75	0.75	2.25	-0.247559	0.098145	0.955566	-2.310000	-2.940000	1.820000	690.00	-0.11	-0.10
0.67	1.25	1.00	0.75	0.50	0.50	0.00	0.25	0.00	1.75	2.00	1.00	0.75	0.00	1.25	0.25	0.00	-0.316895	0.040039	0.925781	-1.470000	6.300000	-1.400000	121.00	0.06	0.05	7.25	9.50	7.75	10.25	2.00	3.75	0.50	2.00	2.25	2.75	3.50	3.75	5.00	3.75	1.00	2.50	-0.250000	0.097168	0.953613	-2.450000	-2.730000	1.820000	696.00	-0.10	-0.10
0.68	1.00	0.75	0.50	0.50	0.25	0.00	0.25	0.00	2.00	1.75	1.00	0.75	0.00	1.25	0.50	0.25	-0.308105	0.041992	0.932129	-1.260000	6.160000	-1.470000	115.00	0.10	0.05	7.25	9.75	7.75	10.25	2.00	3.50	0.50	2.25	2.25	2.75	3.50	3.75	5.00	3.50	1.00	2.50	-0.250000	0.096191	0.952637	-2.450000	-2.800000	1.820000	697.00	-0.10	-0.10
0.69	1.00	1.25	0.50	0.25	0.50	0.00	0.50	0.00	1.25	2.00	1.00	0.50	0.00	1.50	0.25	0.00	-0.311035	0.041504	0.930176	-1.330000	6.020000	-1.400000	112.00	0.07	0.06	7.25	9.50	7.75	10.25	1.75	3.50	0.50	2.25	2.25	2.75	3.50	3.50	5.00	3.75	0.75	2.50	-0.251953	0.098145	0.953125	-2.520000	-2.800000	1.820000	689.00	-0.10	-0.10
0.70	1.00	1.25	1.00	0.25	0.25	0.00	0.25	0.00	1.50	1.75	1.00	0.75	0.00	1.25	0.25	0.00	-0.307129	0.042969	0.931152	-1.330000	6.020000	-1.400000	112.00	0.05	0.05	7.25	9.25	7.75	10.25	1.75	4.00	0.50	2.25	2.25	2.50	3.25	3.50	5.00	3.75	0.75	2.50	-0.254883	0.098633	0.952148	-2.520000	-2.800000	1.890000	687.00	-0.10	-0.10
0.71	1.25	1.00	0.75	0.50	0.25	0.00	0.50	0.00	1.75	2.00	1.25	0.75	0.00	1.00	0.25	0.00	-0.309082	0.046875	0.925781	-1.400000	6.160000	-1.330000	122.00	0.06	0.05	7.50	9.75	7.75	10.25	2.00	3.75	0.50	2.00	2.25	2.75	3.00	3.50	5.00	3.75	0.75	2.25	-0.250488	0.106934	0.951172	-2.380000	-2.940000	1.960000	689.00	-0.11	-0.10
0.72	1.25	1.00	0.75	0.75	0.25	0.00	0.25	0.00	1.75	2.00	1.25	1.00	0.00	1.25	0.00	0.25	-0.305664	0.043945	0.930664	-1.330000	6.160000	-1.260000	125.00	0.06	0.03	7.50	9.50	7.75	10.25	2.00	3.75	0.50	2.25	2.00	2.50	3.00	3.50	5.00	3.50	0.75	2.25	-0.253418	0.099121	0.951660	-2.310000	-2.870000	1.820000	682.00	-0.11	-0.10
0.73	1.00	1.00	0.50	0.25	0.00	0.00	0.25	0.00	1.25	1.75	1.00	1.00	0.00	1.50	0.00	0.00	-0.307617	0.041992	0.927246	-1.190000	6.020000	-1.330000	100.00	0.08	0.04	7.50	9.25	7.75	10.25	2.00	3.75	0.50	2.25	2.25	2.50	3.25	3.50	5.00	3.75	1.00	2.50	-0.252930	0.102051	0.956543	-2.450000	-2.940000	1.890000	692.00	-0.10	-0.10
0.74	1.00	1.25	0.50	0.75	0.25	0.00	0.25	0.00	1.50	2.00	1.25	0.75	0.00	1.00	0.25	0.25	-0.309570	0.043457	0.928223	-1.260000	6.090000	-1.330000	116.00	0.06	0.02	7.25	9.75	7.75	10.25	2.00	3.75	0.50	2.00	2.25	2.75	3.25	3.50	5.00	3.75	1.00	2.50	-0.246582	0.096191	0.950195	-2.520000	-2.940000	1.820000	693.00	-0.10	-0.10
0.75	1.00	1.00	0.75	0.50	0.25	0.00	0.25	0.00	1.75	2.00	1.25	1.00	0.00	1.75	0.25	0.00	-0.310059	0.040039	0.924316	-1.400000	6.370000	-1.470000	125.00	0.09	0.04	7.50	9.50	7.75	10.25	1.75	4.00	0.50	2.00	2.00	2.75	3.25	3.25	5.00	3.50	0.75	2.25	-0.254883	0.098145	0.954590	-2.450000	-2.940000	1.820000	681.00	-0.11	-0.10
0.76	1.00	0.75	1.00	0.25	0.50	0.00	0.25	0.00	1.50	2.00	1.25	1.00	0.00	1.00	0.25	0.00	-0.313477	0.041992	0.927246	-1.400000	6.370000	-1.400000	116.00	0.07	0.04	7.50	9.75	7.50	10.25	1.75	3.50	0.50	2.00	2.25	2.50	3.25	3.25	5.00	3.75	0.75	2.50	-0.253418	0.098633	0.956543	-2.450000	-2.940000	1.820000	679.00	-0.11	-0.10
0.77	0.75	1.25	0.75	0.50	0.25	0.00	0.50	0.00	1.75	2.00	1.25	1.00	0.00	1.50	0.00	0.00	-0.314453	0.042480	0.930176	-1.610000	6.300000	-1.260000	124.00	0.08	0.05	7.25	9.75	7.75	10.25	2.00	3.75	0.50	2.25	2.50	2.75	3.50	3.50	5.00	3.50	1.00	2.25	-0.248535	0.108398	0.958496	-2.520000	-3.010000	1.750000	699.00	-0.10	-0.10
0.78	1.00	1.00	0.75	0.25	0.25	0.00	0.50	0.00	1.75	2.00	1.00	0.75	0.00	1.25	0.25	0.00	-0.317871	0.042969	0.933105	-1.680000	6.230000	-1.260000	116.00	0.08	0.06	7.50	9.50	7.75	10.25	1.75	3.75	0.50	2.00	2.25	2.25	3.25	3.50	5.00	3.75	0.75	2.25	-0.249512	0.100098	0.954102	-2.450000	-2.870000	1.750000	681.00	-0.11	-0.10
0.79	1.00	1.25	0.00	0.25	0.50	0.00	0.25	0.00	1.50	2.00	1.00	0.75	0.00	1.75	0.25	0.00	-0.312988	0.044434	0.927246	-1.680000	5.950000	-1.330000	110.00	0.10	0.05	7.50	9.50	7.50	10.25	1.75	3.75	0.50	2.00	2.50	2.75	3.25	3.50	5.00	3.75	0.75	2.50	-0.248535	0.096680	0.954102	-2.520000	-2.940000	1.820000	688.00	-0.10	-0.10
0.80	1.00	1.25	0.75	0.50	0.25	0.00	0.25	0.00	1.75	2.00	1.25	0.75	0.00	1.25	0.25	0.25	-0.310059	0.041016	0.927246	-1.260000	5.460000	-1.190000	122.00	0.07	0.04	7.50	9.50	7.50	10.25	1.75	4.00	0.50	2.00	2.25	2.50	3.25	3.50	5.00	3.75	1.00	2.25	-0.250488	0.096680	0.953125	-2.800000	-3.220000	1.680000	686.00	-0.11	-0.10
0.81	1.25	1.25	0.50	0.25	0.50	0.00	0.50	0.00	1.75	2.00	1.25	1.00	0.00	1.50	0.25	0.00	-0.310059	0.041016	0.927246	-1.260000	5.460000	-1.190000	129.00	0.08	0.05	7.50	9.75	7.75	10.25	1.75	3.75	0.50	2.00	2.00	2.25	3.25	3.25	5.00	3.50	0.75	2.25	-0.258789	0.095215	0.961426	-1.540000	-3.990000	2.030000	676.00	-0.12	-0.10
0.82	1.00	1.00	1.00	0.50	0.50	0.00	0.25	0.00	1.75	2.00	1.00	1.00	0.00	1.25	0.25	0.00	-0.312012	0.047852	0.932129	-1.190000	5.390000	-1.050000	123.00	0.06	0.05	7.75	9.75	7.75	10.50	1.75	3.75	0.25	2.00	2.00	2.50	3.00	3.00	4.75	3.25	0.75	2.25	-0.252441	0.101074	0.956055	0.280000	-5.110000	2.450000	670.00	-0.12	-0.10
0.83	1.50	1.00	0.75	0.75	0.50	0.00	0.25	0.00	1.75	1.75	1.00	0.75	0.00	0.75	0.25	0.00	-0.312500	0.045410	0.931152	-1.190000	5.250000	-1.050000	119.00	0.02	0.04	7.75	10.00	7.75	10.75	2.00	3.75	0.25	2.00	1.75	2.50	3.00	3.25	4.75	3.25	1.00	2.25	-0.251953	0.095215	0.956055	1.260000	-5.950000	2.730000	680.00	-0.12	-0.10
0.84	0.75	1.00	0.75	0.75	0.50	0.00	0.50	0.00	1.50	2.00	1.00	1.00	0.00	1.25	0.25	0.25	-0.308105	0.040527	0.934570	-0.910000	5.040000	-1.120000	123.00	0.07	0.03	8.25	10.25	8.00	10.75	1.75	4.00	0.25	2.00	1.75	2.25	3.00	3.00	4.50	3.00	0.75	2.00	-0.253906	0.101562	0.960938	1.610000	-6.510000	2.870000	677.00	-0.13	-0.10
0.85	1.25	1.00	0.75	0.25	0.50	0.00	0.25	0.00	2.00	1.75	1.25	1.00	0.00	1.50	0.25	0.00	-0.312988	0.041992	0.925293	-0.630000	5.040000	-1.190000	126.00	0.08	0.06	8.25	11.00	7.75	11.00	1.75	3.75	0.25	2.00	1.50	2.00	2.50	3.00	4.50	3.00	0.75	2.00	-0.257324	0.094238	0.968262	2.240000	-7.350000	3.080000	670.00	-0.14	-0.11
0.86	1.25	1.50	1.00	0.50	0.50	0.00	0.25	0.00	2.00	1.75	1.25	0.50	0.00	1.00	0.25	0.00	-0.308594	0.041992	0.930176	-0.770000	5.110000	-1.190000	127.00	0.03	0.05	8.50	11.25	8.25	11.25	1.75	3.75	0.25	2.00	1.25	2.00	2.50	3.00	4.25	3.25	0.50	1.75	-0.261719	0.101562	0.966797	3.850000	-8.820000	3.430000	676.00	-0.15	-0.10
0.87	1.25	1.25	0.50	0.25	0.50	0.00	0.25	0.00	1.25	2.00	1.25	0.50	0.00	0.75	0.25	0.00	-0.319336	0.047363	0.931152	-0.840000	5.320000	-1.120000	107.00	0.04	0.04	9.00	11.50	8.50	12.00	1.75	4.00	0.25	1.75	1.00	1.75	2.00	2.75	4.25	2.50	0.75	1.75	-0.251953	0.104004	0.960449	4.620000	-9.660000	3.780000	676.00	-0.17	-0.11
0.88	1.25	1.50	1.00	0.50	0.50	0.00	0.50	0.00	1.25	1.75	1.00	0.75	0.00	1.25	0.25	0.25	-0.309082	0.045410	0.938965	-0.770000	5.460000	-1.260000	124.00	0.02	0.04	9.50	12.50	8.75	12.25	1.50	4.00	0.25	1.75	1.00	1.75	2.00	2.25	3.75	2.50	0.50	1.50	-0.268066	0.106445	0.972656	5.040000	-10.640000	4.270000	679.00	-0.18	-0.10
0.89	1.25	1.50	0.75	0.25	0.25	0.00	0.25	0.00	1.50	2.00	1.25	0.75	0.00	1.25	0.00	0.00	-0.312500	0.047852	0.931641	-0.770000	5.250000	-1.190000	116.00	0.04	0.04	10.25	13.00	9.00	12.75	1.50	4.00	0.00	1.75	0.25	1.50	1.75	2.25	3.25	2.00	0.25	1.25	-0.263672	0.106445	0.953613	7.140000	-11.620000	4.550000	668.00	-0.21	-0.11
0.90	1.25	1.25	1.00	0.75	0.50	0.00	0.25	0.00	1.25	2.00	1.00	0.75	0.00	1.50	0.00	0.25	-0.310059	0.044922	0.932129	-0.490000	4.970000	-1.190000	123.00	0.03	0.03	11.00	14.00	9.25	13.00	1.50	4.00	0.00	1.75	0.50	1.50	1.75	2.00	3.25	1.75	0.50	1.25	-0.231934	0.117188	0.960938	7.000000	-11.760000	4.480000	692.00	-0.21	-0.10
0.91	1.50	0.75	0.50	0.25	0.25	0.00	0.25	0.00	1.75	2.00	0.75	0.75	0.00	1.25	0.00	0.00	-0.306641	0.042480	0.933594	-0.560000	5.180000	-1.190000	107.00	0.07	0.07	11.25	14.50	9.25	13.25	1.50	4.25	0.00	1.50	0.50	1.00	1.50	2.00	3.00	1.75	0.50	1.00	-0.233398	0.104004	1.011719	5.460000	-11.270000	4.270000	689.00	-0.22	-0.10
0.92	1.25	1.25	0.50	0.50	0.50	0.00	0.25	0.00	1.25	1.75	1.00	0.75	0.00	1.50	0.25	0.25	-0.304688	0.047363	0.929688	-0.700000	5.460000	-1.260000	115.00	0.05	0.03	12.50	15.00	9.50	13.25	1.25	4.00	0.00	1.50	0.00	1.00	1.50	1.75	2.75	1.50	0.25	1.00	-0.244629	0.119141	0.920410	3.570000	-10.430000	4.130000	688.00	-0.24	-0.10
0.93	1.25	1.25	0.75	0.25	0.25	0.00	0.25	0.00	1.25	1.75	1.00	0.50	0.00	1.25	0.25	0.00	-0.307129	0.046875	0.933594	-1.050000	5.600000	-1.330000	106.00	0.04	0.05	13.00	15.50	9.50	13.75	1.50	4.00	0.00	1.50	0.00	1.00	1.25	1.75	2.75	1.25	0.25	0.75	-0.246094	0.107910	0.956055	2.870000	-9.380000	4.340000	700.00	-0.25	-0.10
0.94	1.25	1.00	0.75	0.25	0.25	0.00	0.25	0.00	1.50	1.75	1.00	0.75	0.00	1.25	0.25	0.00	-0.303223	0.044434	0.932617	-1.470000	5.530000	-1.470000	109.00	0.06	0.05	13.75	16.00	9.75	14.25	1.25	4.00	0.00	1.25	0.25	1.00	1.25	1.75	2.25	1.00	0.25	0.75	-0.239746	0.104980	0.956543	3.220000	-8.890000	4.270000	711.00	-0.26	-0.09
0.95	1.25	1.25	0.75	0.50	0.50	0.00	0.25	0.00	1.25	1.75	1.00	0.75	0.00	0.75	0.00	0.00	-0.312988	0.045898	0.932129	-2.380000	5.880000	-1.750000	107.00	0.01	0.03	14.25	16.75	10.00	14.25	1.25	4.00	0.00	1.25	0.00	0.75	1.50	1.50	2.50	1.00	0.00	0.50	-0.246582	0.119629	0.956055	4.550000	-9.170000	4.410000	718.00	-0.26	-0.10
0.96	1.00	0.75	0.50	0.25	0.25	0.00	0.25	0.00	1.50	1.75	1.00	0.50	0.00	0.75	0.00	0.00	-0.310547	0.044922	0.929199	-3.080000	6.160000	-2.100000	92.00	0.07	0.06	14.75	17.25	10.00	14.50	1.25	4.00	0.00	1.00	0.00	0.75	1.25	1.50	2.00	0.75	0.00	0.50	-0.243164	0.123047	0.963379	5.670000	-9.240000	5.110000	718.00	-0.27	-0.09
0.97	1.00	0.75	0.75	0.50	0.00	0.00	0.25	0.00	1.25	1.50	1.00	0.50	0.00	1.00	0.00	0.00	-0.312012	0.051758	0.920898	-4.200000	6.860000	-2.310000	91.00	0.05	0.05	15.25	17.75	10.00	14.75	1.00	4.25	0.00	1.00	0.00	0.50	1.25	1.75	1.75	0.75	0.25	0.25	-0.240723	0.113770	1.007324	7.560000	-9.870000	5.810000	729.00	-0.28	-0.09
0.98	0.75	0.75	0.25	0.25	0.25	0.00	0.25	0.00	1.00	2.00	0.50	0.75	0.00	1.00	0.25	0.00	-0.307617	0.051758	0.930176	-5.040000	7.140000	-2.730000	85.00	0.10	0.04	15.50	18.00	10.25	15.00	1.25	4.25	0.00	1.00	0.00	0.50	1.25	1.75	1.50	0.50	0.00	0.25	-0.230957	0.112305	0.959473	8.750000	-10.640000	5.740000	736.00	-0.28	-0.09
0.99	1.00	0.75	0.50	0.25	0.25	0.00	0.00	0.00	1.25	1.50	0.75	0.75	0.00	1.00	0.00	0.00	-0.301758	0.051270	0.929688	-6.090000	8.120000	-3.570000	85.00	0.06	0.04	16.25	18.75	10.25	15.25	1.00	4.25	0.00	1.00	0.00	0.75	1.00	1.50	2.00	0.25	0.00	0.25	-0.221191	0.138184	0.936523	8.610000	-10.500000	5.670000	750.00	-0.29	-0.09
1.00	0.50	0.50	0.75	0.00	0.25	0.00	0.25	0.00	1.00	1.50	0.75	0.50	0.00	0.75	0.00	0.00	-0.308594	0.049805	0.951172	-7.490000	8.610000	-4.270000	73.00	0.09	0.07	16.75	19.25	10.25	15.50	1.25	4.25	0.00	1.00	0.00	0.50	1.25	1.25	1.75	0.25	0.00	0.25	-0.227051	0.123535	0.928711	8.470000	-10.010000	5.740000	760.00	-0.29	-0.09
1.01	0.50	0.50	0.25	0.25	0.00	0.00	0.00	0.00	0.75	1.25	0.75	0.25	0.00	1.25	0.25	0.00	-0.305176	0.066895	0.953125	-7.140000	8.050000	-5.670000	62.00	0.13	0.05	16.25	19.25	10.25	15.50	1.00	4.25	0.00	1.00	0.00	0.75	0.75	1.25	1.50	0.25	0.25	0.00	-0.223633	0.124023	0.950684	6.230000	-7.910000	5.600000	749.00	-0.29	-0.09
1.02	0.50	0.50	0.25	0.00	0.00	0.00	0.00	0.00	0.75	1.25	0.25	0.50	0.00	0.50	0.00	0.00	-0.300293	0.079102	1.010254	-1.260000	9.660000	-11.620000	48.00	0.00	0.00	17.25	19.75	10.00	15.75	1.00	4.25	0.00	1.00	0.00	0.50	1.00	1.00	1.50	0.00	0.00	0.00	-0.224121	0.123047	0.954590	6.020000	-7.700000	5.390000	756.00	-0.30	-0.09
1.03	0.50	1.00	0.00	0.00	0.00	0.00	0.00	0.00	0.75	1.00	0.25	0.25	0.00	0.50	0.00	0.00	-0.302734	0.057129	0.989746	-4.060000	13.790000	-12.600000	44.00	0.00	0.00	17.75	20.25	10.25	15.75	1.00	4.50	0.00	1.00	0.00	0.50	0.75	1.25	1.50	0.00	0.00	0.00	-0.230957	0.121582	0.956055	6.510000	-7.700000	5.180000	772.00	-0.30	-0.09
1.04	0.50	0.50	0.00	0.00	0.00	0.00	0.00	0.00	0.50	0.75	0.25	0.25	0.00	0.25	0.00	0.00	-0.307617	0.081055	0.971191	-14.350000	10.360000	-11.410000	32.00	0.00	0.00	17.50	20.50	10.50	16.00	1.00	4.50	0.00	1.00	0.00	0.50	1.00	1.25	1.25	0.00	0.00	0.00	-0.228516	0.131348	0.946777	7.000000	-8.050000	5.320000	777.00	-0.30	-0.09
1.05	0.50	0.25	0.00	0.00	0.00	0.00	0.00	0.00	0.25	0.75	0.00	0.00	0.00	0.00	0.00	0.00	-0.514648	0.061523	1.345215	-17.920000	-0.700000	-15.610000	19.00	0.00	0.00	17.50	20.50	10.25	16.00	1.00	4.75	0.00	1.00	0.00	0.50	1.00	1.25	1.50	0.00	0.00	0.00	-0.221680	0.128418	0.958496	7.630000	-8.890000	5.110000	780.00	-0.30	-0.09
1.06	0.25	0.00	0.00	0.00	0.00	0.00	0.00	0.00	0.00	0.75	0.00	0.25	0.00	0.00	0.00	0.00	-0.369629	-0.000977	1.089844	-27.160000	11.970000	-19.809999	13.00	0.00	0.00	17.75	20.50	10.50	16.25	0.75	4.75	0.00	1.00	0.00	0.50	0.75	1.50	1.75	0.00	0.00	0.00	-0.220215	0.136230	0.955566	8.470000	-9.380000	4.760000	787.00	-0.30	-0.09
1.07	0.50	0.50	0.00	0.00	0.00	0.00	0.00	0.00	0.00	0.50	0.00	0.00	0.00	0.25	0.00	0.00	-0.311523	0.078125	1.088379	-42.490002	21.000000	-20.580000	17.00	0.00	0.00	18.00	21.50	10.25	16.25	1.00	4.50	0.00	1.00	0.25	0.50	0.50	1.25	1.50	0.00	0.00	0.00	-0.223145	0.128418	0.961426	8.470000	-9.240000	4.480000	792.00	-0.30	-0.09
1.08	0.25	0.25	0.00	0.00	0.00	0.00	0.00	0.00	0.00	0.50	0.00	0.00	0.00	0.00	0.00	0.00	-0.237305	0.088867	1.048828	-59.570000	25.410000	-19.320000	10.00	0.00	0.00	18.00	21.75	10.25	16.50	0.75	4.75	0.00	1.00	0.00	0.25	0.75	1.25	1.50	0.00	0.00	0.00	-0.224121	0.140625	0.951172	8.470000	-9.450000	4.620000	794.00	-0.31	-0.09
1.09	0.50	0.00	0.00	0.00	0.00	0.00	0.00	0.00	0.00	0.50	0.00	0.00	0.00	0.00	0.00	0.00	0.099121	0.323242	1.145508	-68.040001	27.090000	-17.570000	10.00	0.00	0.00	18.75	21.75	10.50	16.50	0.75	5.00	0.00	0.75	0.00	0.50	0.75	1.25	1.00	0.00	0.00	0.00	-0.214355	0.142578	0.947266	8.050000	-9.030000	5.040000	801.00	-0.31	-0.09
1.10	0.25	0.50	0.00	0.25	0.00	0.00	0.00	0.00	0.00	0.50	0.00	0.00	0.00	0.25	0.00	0.00	-0.043945	0.399902	1.343262	-42.209999	22.469999	-9.660000	17.00	0.00	0.00	18.50	21.75	10.25	16.50	0.75	5.00	0.00	1.00	0.00	0.25	0.75	1.00	1.25	0.00	0.00	0.00	-0.219238	0.139648	0.947266	6.020000	-8.400000	4.550000	797.00	-0.31	-0.09
1.11	0.50	0.25	0.00	0.00	0.00	0.00	0.00	0.00	0.00	0.50	0.00	0.00	0.00	0.00	0.00	0.00	0.142090	0.369629	1.218750	-11.550000	19.389999	-1.400000	13.00	0.00	0.00	18.75	22.00	10.25	16.75	0.75	5.00	0.00	0.75	0.00	0.25	0.75	1.25	1.00	0.00	0.00	0.00	-0.223633	0.141113	0.964355	5.110000	-8.330000	4.340000	801.00	-0.31	-0.09
1.12	0.00	0.00	0.00	0.00	0.00	0.00	0.00	0.00	0.25	0.25	0.00	0.00	0.00	0.00	0.00	0.00	0.129395	0.289062	1.093262	-2.870000	14.980000	5.880000	6.00	0.00	0.00	19.00	22.25	10.25	17.00	0.75	4.75	0.00	1.00	0.00	0.50	0.75	1.00	1.25	0.00	0.00	0.00	-0.215332	0.142578	0.950684	4.480000	-8.120000	4.060000	812.00	-0.31	-0.09
1.13	0.25	0.00	0.00	0.00	0.00	0.00	0.00	0.00	0.00	0.25	0.00	0.00	0.00	0.00	0.00	0.00	0.109863	0.265137	1.016113	-9.030000	15.400000	14.000000	5.00	0.00	0.00	18.75	22.00	10.25	16.75	0.75	5.00	0.00	0.75	0.00	0.00	0.75	1.25	1.50	0.00	0.00	0.00	-0.206055	0.145508	0.942871	3.360000	-7.560000	3.780000	803.00	-0.31	-0.09
1.14	0.25	0.25	0.00	0.00	0.00	0.00	0.00	0.00	0.00	0.00	0.00	0.00	0.00	0.00	0.00	0.00	0.139648	0.293945	0.989746	-15.330000	19.110001	21.980000	5.00	0.00	0.00	18.75	21.75	10.25	16.75	0.75	5.00	0.00	1.00	0.00	0.00	0.75	1.00	1.25	0.00	0.00	0.00	-0.207031	0.140137	0.943359	1.960000	-6.790000	3.290000	800.00	-0.31	-0.09
1.15	0.50	0.00	0.00	0.00	0.00	0.00	0.00	0.00	0.00	0.25	0.00	0.00	0.00	0.00	0.00	0.00	0.166992	0.311523	0.990723	-14.840000	21.700001	29.330000	8.00	0.00	0.00	18.25	22.00	10.25	16.75	0.50	5.00	0.00	0.75	0.00	0.25	0.50	1.25	1.25	0.00	0.00	0.00	-0.207520	0.146484	0.937988	-0.140000	-5.180000	2.660000	793.00	-0.31	-0.09
1.16	0.00	0.25	0.00	0.00	0.00	0.00	0.00	0.00	0.00	0.25	0.00	0.00	0.00	0.00	0.00	0.00	0.203613	0.298828	0.976074	-9.660000	23.170000	35.700001	5.00	0.00	0.00	18.50	21.75	10.00	16.75	0.75	5.00	0.00	1.00	0.00	0.25	0.75	1.00	1.75	0.00	0.00	0.00	-0.205078	0.143555	0.945801	-2.450000	-3.640000	2.030000	801.00	-0.31	-0.09
1.17	0.25	0.25	0.00	0.00	0.00	0.00	0.00	0.00	0.25	0.50	0.00	0.00	0.00	0.00	0.00	0.00	0.250977	0.285156	1.000977	-5.390000	23.730000	41.439999	13.00	0.00	0.00	19.00	21.50	10.00	16.50	0.75	5.00	0.00	0.75	0.00	0.25	0.50	1.00	1.25	0.00	0.00	0.00	-0.210449	0.145508	0.942871	-4.200000	-2.590000	1.540000	790.00	-0.31	-0.09
1.18	0.25	1.00	0.00	0.00	0.00	0.00	0.00	0.00	0.00	0.00	0.00	0.00	0.00	0.00	0.00	0.00	0.293945	0.253906	1.023438	-3.500000	22.820000	46.549999	12.00	0.00	0.00	18.75	21.50	10.00	16.75	0.75	5.00	0.00	1.00	0.00	0.25	0.50	1.00	1.25	0.00	0.00	0.00	-0.213379	0.143555	0.967285	-4.550000	-2.590000	1.400000	794.00	-0.31	-0.09
1.19	0.25	0.50	0.00	0.00	0.00	0.00	0.00	0.00	0.00	0.25	0.00	0.00	0.00	0.25	0.00	0.00	0.323242	0.236816	1.059570	-2.170000	19.879999	50.610001	12.00	0.00	0.00	18.50	21.50	10.00	16.50	0.75	5.00	0.00	0.75	0.00	0.00	0.50	1.00	0.75	0.00	0.00	0.00	-0.221680	0.141113	0.973145	-3.010000	-3.920000	1.260000	778.00	-0.32	-0.09
1.20	0.50	0.25	0.00	0.00	0.00	0.00	0.00	0.00	0.00	0.25	0.00	0.00	0.00	0.00	0.00	0.00	0.345703	0.206543	1.067871	0.210000	15.050000	53.410000	10.00	0.00	0.00	18.75	21.25	10.00	16.50	0.75	5.00	0.00	1.00	0.00	0.00	0.50	1.00	1.00	0.00	0.00	0.00	-0.222656	0.143555	0.958008	-1.330000	-5.460000	1.260000	785.00	-0.31	-0.09
1.21	0.25	0.00	0.00	0.00	0.00	0.00	0.00	0.00	0.00	0.25	0.00	0.00	0.00	0.00	0.00	0.00	0.373047	0.172363	1.095215	2.730000	8.470000	54.670002	5.00	0.00	0.00	18.75	21.25	10.00	16.50	0.75	5.00	0.00	1.00	0.00	0.25	0.50	1.00	1.25	0.00	0.00	0.00	-0.216309	0.145020	0.951172	-0.910000	-5.600000	1.540000	789.00	-0.31	-0.09
1.22	0.25	0.25	0.00	0.00	0.00	0.00	0.00	0.00	0.00	0.00	0.00	0.00	0.00	0.25	0.00	0.00	0.382324	0.149902	1.114258	4.760000	0.840000	53.970001	7.00	0.00	0.00	18.50	21.50	10.00	16.50	0.75	4.75	0.00	1.00	0.00	0.25	0.50	0.75	1.00	0.00	0.00	0.00	-0.213867	0.136230	0.958984	-0.630000	-5.530000	1.540000	782.00	-0.31	-0.09
1.23	0.25	0.00	0.00	0.00	0.00	0.00	0.00	0.00	0.00	0.25	0.00	0.00	0.00	0.00	0.00	0.00	0.418457	0.127930	1.104980	6.160000	-7.490000	51.660000	5.00	0.00	0.00	18.50	21.25	10.00	16.25	1.00	4.75	0.00	1.00	0.00	0.00	0.50	1.00	1.25	0.00	0.00	0.00	-0.209961	0.143555	0.947266	0.070000	-5.670000	1.540000	781.00	-0.31	-0.09
1.24	0.50	0.00	0.00	0.00	0.00	0.00	0.00	0.00	0.00	0.25	0.00	0.00	0.00	0.00	0.00	0.00	0.421875	0.109375	1.106934	7.280000	-16.030001	48.299999	8.00	0.00	0.00	18.75	21.00	10.00	16.25	1.00	4.75	0.00	0.75	0.00	0.00	0.75	0.75	1.00	0.00	0.00	0.00	-0.207520	0.145020	0.939941	0.560000	-5.460000	1.820000	776.00	-0.31	-0.09
1.25	0.25	0.50	0.00	0.00	0.00	0.00	0.00	0.00	0.00	0.00	0.00	0.00	0.00	0.00	0.00	0.00	0.437500	0.107422	1.093750	9.240000	-24.639999	43.610001	7.00	0.00	0.00	18.50	21.00	10.25	16.25	0.75	4.75	0.00	1.00	0.00	0.25	0.50	0.75	1.25	0.00	0.00	0.00	-0.209473	0.150391	0.948242	0.210000	-5.320000	1.610000	779.00	-0.31	-0.09
1.26	0.25	0.25	0.00	0.00	0.00	0.00	0.00	0.00	0.00	0.25	0.00	0.00	0.00	0.00	0.00	0.00	0.430176	0.096191	1.106445	14.910000	-40.389999	32.130001	7.00	0.00	0.00	18.25	20.75	10.00	16.25	0.75	5.00	0.00	1.00	0.00	0.00	0.50	1.00	1.25	0.00	0.00	0.00	-0.212891	0.149902	0.944336	-0.980000	-4.690000	1.540000	774.00	-0.31	-0.09
1.27	0.25	0.75	0.00	0.00	0.00	0.00	0.00	0.00	0.00	0.25	0.00	0.00	0.00	0.00	0.00	0.00	0.422852	0.100586	1.139160	16.240000	-47.810001	26.530001	12.00	0.00	0.00	18.75	20.75	10.00	16.50	0.75	5.00	0.00	1.25	0.00	0.25	0.50	1.00	1.25	0.00	0.00	0.00	-0.207031	0.151367	0.937500	-2.660000	-3.360000	1.190000	789.00	-0.31	-0.09
1.28	0.25	0.00	0.00	0.00	0.00	0.00	0.00	0.00	0.00	0.00	0.00	0.00	0.00	0.00	0.00	0.00	0.405273	0.111328	1.146484	16.170000	-55.230000	21.559999	3.00	0.00	0.00	18.50	21.00	10.00	16.25	0.75	5.00	0.00	0.75	0.00	0.25	0.50	1.00	1.25	0.00	0.00	0.00	-0.207031	0.149902	0.937012	-4.620000	-1.890000	1.050000	778.00	-0.31	-0.09
1.29	0.25	0.00	0.00	0.00	0.00	0.00	0.00	0.00	0.00	0.00	0.00	0.00	0.00	0.00	0.00	0.00	0.389648	0.124023	1.166504	14.700000	-62.020000	17.290001	3.00	0.00	0.00	18.50	20.75	10.00	16.25	0.75	5.00	0.00	1.00	0.00	0.00	0.75	1.00	1.25	0.00	0.00	0.00	-0.207031	0.144531	0.942871	-6.790000	-0.070000	0.770000	779.00	-0.31	-0.09
1.30	0.25	0.25	0.00	0.00	0.00	0.00	0.00	0.00	0.00	0.25	0.00	0.00	0.00	0.00	0.00	0.00	0.356445	0.128906	1.195312	11.690000	-68.040001	13.930000	7.00	0.00	0.00	18.50	20.50	10.00	16.25	0.75	5.00	0.00	1.00	0.00	0.25	0.50	1.00	1.25	0.00	0.00	0.00	-0.215332	0.142090	0.968262	-6.860000	0.000000	0.840000	777.00	-0.31	-0.09
1.31	0.25	0.00	0.00	0.00	0.00	0.00	0.00	0.00	0.00	0.50	0.00	0.00	0.00	0.00	0.00	0.00	0.324219	0.141113	1.207031	7.350000	-74.830002	11.550000	8.00	0.00	0.00	18.50	20.75	10.00	16.25	0.75	5.00	0.00	1.00	0.00	0.00	0.50	1.00	1.25	0.00	0.00	0.00	-0.212891	0.145508	0.962402	-5.950000	-0.910000	0.840000	777.00	-0.31	-0.09
1.32	0.25	0.00	0.00	0.00	0.00	0.00	0.00	0.00	0.00	0.25	0.00	0.00	0.00	0.00	0.00	0.00	0.302734	0.161621	1.219238	5.320000	-80.779999	9.940000	5.00	0.00	0.00	18.25	20.75	10.00	16.00	0.75	5.00	0.00	1.00	0.00	0.00	0.50	1.00	1.50	0.00	0.00	0.25	-0.206055	0.146484	0.945801	-5.880000	-1.260000	0.770000	775.00	-0.31	-0.09
1.33	0.50	0.00	0.00	0.00	0.00	0.00	0.00	0.00	0.00	0.25	0.00	0.00	0.00	0.00	0.00	0.00	0.272949	0.194336	1.260254	6.370000	-87.290001	8.260000	8.00	0.00	0.00	18.25	20.00	10.00	16.00	0.75	4.75	0.00	1.00	0.00	0.25	0.75	1.00	1.25	0.00	0.00	0.25	-0.210449	0.145508	0.940918	-6.930000	-0.770000	0.490000	768.00	-0.31	-0.09
1.34	0.25	0.75	0.00	0.00	0.00	0.00	0.00	0.00	0.00	0.25	0.00	0.00	0.00	0.00	0.00	0.00	0.238281	0.201172	1.310547	12.040000	-94.779999	6.860000	12.00	0.00	0.00	18.00	20.75	10.00	16.00	1.00	5.00	0.00	1.00	0.00	0.25	0.75	1.00	1.50	0.00	0.00	0.25	-0.198242	0.113281	0.908203	-8.400000	0.280000	0.210000	780.00	-0.30	-0.09
1.35	0.50	0.25	0.00	0.00	0.00	0.00	0.00	0.00	0.00	0.50	0.00	0.00	0.00	0.00	0.00	0.00	0.213379	0.221680	1.346191	19.530001	-103.459999	5.460000	13.00	0.00	0.00	18.25	20.75	10.00	15.75	1.00	5.00	0.00	1.00	0.00	0.25	0.75	1.00	1.50	0.00	0.00	0.00	-0.210449	0.137695	0.954102	-10.080000	1.470000	-0.070000	779.00	-0.31	-0.09
1.36	0.00	0.00	0.00	0.00	0.00	0.00	0.00	0.00	0.00	0.25	0.00	0.00	0.00	0.00	0.00	0.00	0.179688	0.227539	1.359863	27.860001	-111.720001	4.060000	3.00	0.00	0.00	18.50	20.50	10.00	15.75	0.75	5.25	0.00	1.00	0.00	0.25	0.75	1.25	1.25	0.00	0.00	0.25	-0.204102	0.142090	0.926270	-11.970000	2.870000	-0.350000	781.00	-0.30	-0.09
1.37	0.25	0.25	0.00	0.00	0.00	0.00	0.00	0.00	0.00	0.25	0.00	0.00	0.00	0.00	0.00	0.00	0.145020	0.222168	1.342773	36.889999	-119.070000	3.920000	7.00	0.00	0.00	18.50	20.25	10.00	15.75	1.00	4.75	0.00	1.25	0.00	0.25	0.75	1.25	1.25	0.00	0.00	0.25	-0.208984	0.134766	0.936035	-17.219999	7.560000	-0.770000	780.00	-0.30	-0.09
1.38	0.00	0.00	0.00	0.00	0.00	0.00	0.00	0.00	0.00	0.50	0.00	0.00	0.00	0.00	0.00	0.00	0.109375	0.204590	1.295410	44.939999	-124.879997	5.040000	5.00	0.00	0.00	18.00	20.25	10.00	15.50	1.00	5.00	0.00	1.00	0.00	0.25	1.00	1.25	1.75	0.00	0.00	0.25	-0.208984	0.134766	0.936035	-17.219999	7.560000	-0.770000	778.00	-0.30	-0.09
1.39	0.00	0.00	0.00	0.00	0.00	0.00	0.00	0.00	0.00	0.50	0.00	0.00	0.00	0.00	0.00	0.00	0.059082	0.166992	1.271973	50.470001	-127.470001	6.720000	5.00	0.00	0.00	18.25	20.00	10.00	15.75	1.00	5.00	0.00	1.25	0.00	0.50	1.00	1.25	1.50	0.00	0.00	0.50	-0.212402	0.125000	0.926758	-18.830000	9.100000	-0.910000	786.00	-0.30	-0.09
1.40	0.25	0.00	0.00	0.00	0.00	0.00	0.00	0.00	0.00	0.25	0.00	0.00	0.00	0.00	0.00	0.00	0.014648	0.115234	1.276367	52.779999	-128.589996	8.680000	5.00	0.00	0.00	18.00	19.75	10.00	15.50	1.00	5.00	0.00	1.25	0.00	0.50	1.00	1.00	2.00	0.00	0.00	0.50	-0.225098	0.130371	0.972168	-24.990000	11.760000	-1.750000	780.00	-0.29	-0.09
1.41	0.00	0.00	0.00	0.00	0.00	0.00	0.00	0.00	0.00	0.00	0.00	0.00	0.00	0.00	0.00	0.00	-0.019531	0.081543	1.301758	51.799999	-129.149994	10.150000	0.00	0.00	0.00	17.75	19.50	10.25	15.50	1.25	5.00	0.00	1.50	0.00	1.00	1.25	1.50	1.75	0.25	0.00	0.50	-0.250000	0.109863	0.995605	-19.600000	8.890000	-0.910000	798.00	-0.28	-0.09
1.42	0.50	0.00	0.00	0.00	0.00	0.00	0.00	0.00	0.00	0.25	0.00	0.00	0.00	0.00	0.00	0.00	-0.052246	0.060059	1.293457	48.650002	-129.990005	10.990000	8.00	0.00	0.00	17.25	19.25	10.00	15.25	1.25	5.00	0.00	1.50	0.00	0.75	1.25	1.50	2.00	0.25	0.25	0.75	-0.233887	0.119629	0.970703	-14.140000	6.230000	-0.140000	789.00	-0.28	-0.10
1.43	0.25	0.00	0.00	0.00	0.00	0.00	0.00	0.00	0.00	0.25	0.00	0.00	0.00	0.25	0.00	0.00	-0.085449	0.052246	1.254395	45.430000	-130.479996	11.340000	7.00	0.00	0.00	17.25	19.25	10.00	15.25	1.25	5.00	0.00	1.25	0.00	0.75	1.25	1.75	2.50	0.25	0.25	0.75	-0.230957	0.101074	0.940918	-11.900000	5.250000	0.140000	792.00	-0.28	-0.10
1.44	0.00	0.00	0.00	0.00	0.00	0.00	0.00	0.00	0.00	0.25	0.00	0.00	0.00	0.00	0.00	0.00	-0.134277	0.054199	1.208008	42.560001	-129.639999	11.410000	3.00	0.00	0.00	16.75	18.75	10.00	15.00	1.25	5.00	0.25	1.50	0.00	1.00	1.25	1.50	2.25	0.25	0.25	0.75	-0.225098	0.108887	0.943359	-10.360000	4.690000	0.280000	785.00	-0.27	-0.10
1.45	0.75	0.50	0.00	0.00	0.00	0.00	0.00	0.00	0.00	0.25	0.00	0.00	0.00	0.00	0.00	0.00	-0.229004	0.062500	1.186035	37.590000	-124.599998	11.480000	15.00	0.00	0.00	16.50	18.50	10.00	15.00	1.50	5.00	0.25	1.50	0.00	1.25	1.50	1.75	2.25	0.50	0.25	1.00	-0.224609	0.114258	0.941895	-9.240000	4.270000	0.140000	794.00	-0.26	-0.09
1.46	0.00	0.50	0.00	0.00	0.00	0.00	0.00	0.00	0.00	0.25	0.00	0.00	0.00	0.00	0.00	0.00	-0.229004	0.062500	1.186035	37.590000	-124.599998	11.480000	7.00	0.00	0.00	16.25	18.25	10.00	14.75	1.50	5.00	0.25	1.75	0.25	1.25	1.75	2.00	2.50	1.00	0.50	0.75	-0.229980	0.110840	0.941406	-7.840000	4.200000	-0.070000	806.00	-0.25	-0.09
1.47	0.00	0.00	0.00	0.00	0.00	0.00	0.00	0.00	0.00	0.25	0.00	0.00	0.00	0.00	0.00	0.00	-0.310547	0.025391	1.084473	31.219999	-119.910004	10.290000	3.00	0.00	0.00	16.00	17.75	9.75	14.50	1.50	5.25	0.25	1.75	0.75	1.25	1.50	2.00	3.00	0.75	0.50	1.00	-0.226074	0.128906	0.951172	-7.560000	4.690000	-0.420000	804.00	-0.24	-0.10
1.48	0.25	0.00	0.00	0.00	0.00	0.00	0.00	0.00	0.00	0.00	0.00	0.00	0.00	0.00	0.00	0.00	-0.345215	0.027832	1.031250	29.400000	-115.779999	9.100000	3.00	0.00	0.00	15.50	17.25	9.75	14.25	1.50	5.25	0.25	2.00	0.50	1.50	2.00	2.00	3.00	1.25	0.25	1.00	-0.231445	0.110352	0.957520	-8.330000	5.390000	-0.770000	801.00	-0.24	-0.10
1.49	0.50	0.25	0.00	0.00	0.00	0.00	0.00	0.00	0.00	0.25	0.00	0.00	0.00	0.25	0.00	0.00	-0.365723	0.020508	0.982910	29.610001	-111.370003	7.630000	12.00	0.00	0.00	14.75	16.75	9.75	14.00	1.75	5.25	0.25	2.25	0.75	1.50	2.00	2.00	3.50	1.50	0.75	1.50	-0.241699	0.109375	0.947754	-9.240000	5.810000	-0.980000	810.00	-0.22	-0.10
1.50	0.25	0.00	0.00	0.00	0.00	0.00	0.00	0.00	0.00	0.00	0.00	0.00	0.00	0.00	0.00	0.00	-0.395508	-0.008301	0.946777	31.360001	-106.260002	6.090000	3.00	0.00	0.00	14.00	16.00	9.50	13.75	1.75	5.00	0.25	2.25	0.75	2.00	2.25	2.25	3.50	1.75	0.75	1.50	-0.230957	0.122559	0.945312	-10.360000	6.300000	-1.260000	800.00	-0.21	-0.10
1.51	0.00	0.00	0.00	0.00	0.00	0.00	0.00	0.00	0.00	0.25	0.00	0.00	0.00	0.00	0.00	0.00	-0.446777	-0.035645	0.936523	31.500000	-101.500000	4.200000	3.00	0.00	0.00	13.25	15.25	9.25	13.50	2.00	5.25	0.50	2.50	1.25	2.25	2.75	2.75	4.00	2.00	0.75	1.75	-0.244141	0.106445	0.963867	-11.900000	6.930000	-1.750000	820.00	-0.19	-0.10
1.52	0.00	0.75	0.00	0.00	0.00	0.00	0.00	0.00	0.00	0.50	0.00	0.00	0.00	0.00	0.00	0.00	-0.493164	-0.042480	0.883789	28.280001	-96.809998	1.400000	12.00	0.00	0.00	12.50	14.50	9.25	13.00	2.00	5.00	0.50	2.50	1.50	2.25	2.50	3.00	4.50	2.50	0.75	2.00	-0.247070	0.097168	0.966797	-12.250000	7.000000	-2.030000	811.00	-0.17	-0.10
1.53	0.00	0.00	0.00	0.00	0.00	0.00	0.00	0.00	0.00	0.25	0.00	0.00	0.00	0.00	0.00	0.00	-0.527832	-0.035645	0.798828	24.990000	-91.000000	-2.240000	3.00	0.00	0.00	11.50	13.75	9.00	12.75	2.25	5.00	0.50	2.75	1.75	2.75	3.00	3.25	5.00	2.75	1.00	2.00	-0.237793	0.104492	0.960938	-12.110000	6.720000	-2.030000	820.00	-0.15	-0.10
1.54	0.75	0.00	0.00	0.00	0.00	0.00	0.00	0.00	0.00	0.25	0.00	0.00	0.00	0.00	0.00	0.00	-0.576660	-0.023926	0.722168	24.360001	-83.090004	-7.070000	10.00	0.00	0.00	10.50	12.75	8.50	12.00	2.25	5.00	0.75	3.00	2.25	3.25	3.50	3.50	5.00	3.00	1.25	2.25	-0.245117	0.106934	0.973633	-12.320000	6.580000	-2.100000	820.00	-0.13	-0.10
1.55	0.25	0.25	0.00	0.00	0.00	0.00	0.00	0.00	0.00	0.25	0.00	0.00	0.00	0.00	0.00	0.00	-0.624512	-0.015137	0.668945	26.880001	-74.199997	-13.160000	7.00	0.00	0.00	9.75	12.00	8.25	11.50	2.25	4.75	0.75	3.00	2.75	3.50	4.00	3.75	5.00	3.50	1.25	2.75	-0.251465	0.100586	0.983887	-13.230000	6.930000	-2.240000	818.00	-0.11	-0.10
1.56	0.00	0.25	0.00	0.00	0.00	0.00	0.00	0.00	0.00	0.25	0.00	0.00	0.00	0.00	0.00	0.00	-0.654785	-0.029785	0.635742	31.150000	-65.099998	-19.670000	5.00	0.00	0.00	8.50	10.75	8.00	11.00	2.25	4.50	1.00	3.25	3.50	4.00	4.50	4.50	5.50	3.75	1.50	3.00	-0.255371	0.105469	0.969727	-13.790000	7.420000	-2.310000	829.00	-0.08	-0.10
1.57	0.00	0.00	0.00	0.00	0.00	0.00	0.00	0.00	0.00	0.25	0.00	0.00	0.00	0.00	0.00	0.00	-0.664551	-0.042969	0.615723	34.299999	-55.860001	-25.830000	3.00	0.00	0.00	7.50	9.75	7.50	10.25	2.25	4.00	1.00	3.50	4.25	4.50	5.50	4.75	6.00	4.50	1.75	3.25	-0.259766	0.110352	0.962402	-13.650000	8.330000	-2.240000	837.00	-0.05	-0.09
1.58	0.00	0.00	0.00	0.00	0.00	0.00	0.00	0.00	0.00	0.25	0.00	0.00	0.00	0.25	0.00	0.00	-0.676270	-0.057129	0.602539	35.279999	-46.480000	-30.799999	5.00	0.00	0.00	6.75	8.75	7.00	9.75	2.00	3.75	1.50	3.50	5.00	5.75	7.25	6.25	6.25	5.25	1.75	4.00	-0.256348	0.099121	0.961914	-12.600000	9.240000	-2.030000	881.00	-0.02	-0.09
1.59	0.25	0.25	0.00	0.00	0.00	0.00	0.00	0.00	0.00	0.25	0.00	0.00	0.00	0.00	0.00	0.00	-0.695312	-0.069336	0.586426	33.529999	-37.380001	-33.670002	7.00	0.00	0.00	5.75	7.75	6.50	9.00	2.00	3.25	1.75	3.25	5.75	6.25	7.50	6.75	7.00	5.75	2.00	5.00	-0.261719	0.088867	0.972656	-10.850000	10.710000	-1.400000	883.00	0.01	-0.09
1.60	0.50	0.50	0.00	0.00	0.00	0.00	0.00	0.00	0.00	0.25	0.00	0.00	0.00	0.00	0.00	0.00	-0.704102	-0.056641	0.568848	27.440001	-27.930000	-33.880001	12.00	0.00	0.00	5.00	6.50	5.50	8.00	1.75	2.75	2.00	3.25	6.50	7.75	8.25	7.50	7.00	6.25	2.25	5.25	-0.261719	0.088867	0.968750	-8.470000	12.600000	-0.770000	887.00	0.04	-0.08
1.61	0.25	0.25	0.00	0.00	0.00	0.00	0.00	0.00	0.00	0.25	0.00	0.00	0.00	0.00	0.00	0.00	-0.718750	-0.004883	0.550293	17.920000	-17.850000	-31.920000	7.00	0.00	0.00	4.25	5.75	4.75	7.50	1.75	2.50	2.25	3.25	7.50	8.25	9.00	8.00	7.75	7.00	2.50	5.75	-0.270996	0.096191	0.964355	-6.930000	18.900000	-0.630000	909.00	0.07	-0.08
1.62	0.00	0.25	0.00	0.00	0.00	0.00	0.00	0.00	0.00	0.50	0.00	0.00	0.00	0.00	0.00	0.00	-0.744629	0.061523	0.533691	9.940000	-6.720000	-28.000000	8.00	0.00	0.00	3.25	5.00	4.00	6.50	1.25	1.75	2.50	3.00	8.25	8.75	9.25	8.25	7.75	7.75	2.75	6.25	-0.276367	0.094238	0.966309	-6.300000	22.750000	-0.420000	891.00	0.10	-0.07
1.63	0.25	0.00	0.00	0.00	0.00	0.00	0.00	0.00	0.00	0.25	0.00	0.00	0.00	0.00	0.00	0.00	-0.771973	0.115234	0.511719	5.460000	4.550000	-22.469999	5.00	0.00	0.00	2.50	3.75	3.00	5.50	1.25	1.25	2.75	2.75	9.00	9.25	9.50	8.50	8.00	8.25	3.00	6.25	-0.303711	0.097656	0.958984	-5.320000	26.950001	-0.350000	874.00	0.12	-0.06
1.64	0.00	0.25	0.00	0.00	0.00	0.00	0.00	0.00	0.25	0.25	0.00	0.00	0.00	0.00	0.00	0.00	-0.808105	0.144531	0.522949	3.780000	15.750000	-15.610000	8.00	0.00	0.00	1.75	2.75	2.25	4.75	0.75	0.75	3.00	2.50	9.50	9.75	10.00	8.75	8.00	9.00	3.25	6.75	-0.291016	0.102539	0.982910	-3.220000	32.270000	-0.490000	860.00	0.15	-0.06
1.65	0.00	0.00	0.00	0.00	0.00	0.00	0.00	0.00	0.00	0.25	0.00	0.00	0.00	0.00	0.00	0.00	-0.857422	0.149414	0.525391	3.220000	26.740000	-7.490000	3.00	0.00	0.00	1.25	2.25	1.50	2.75	0.75	0.25	3.25	2.25	10.25	10.25	10.25	9.00	8.25	9.75	3.50	6.75	-0.198730	0.011230	0.966309	2.170000	41.020000	-0.210000	846.00	0.18	-0.05
1.66	0.25	0.25	0.25	0.00	0.00	0.00	0.00	0.00	0.00	0.00	0.00	0.00	0.00	0.00	0.00	0.00	-0.969238	0.146484	0.510742	-0.980000	50.259998	11.480000	8.00	0.00	0.00	1.25	1.50	1.00	2.00	0.50	0.25	3.25	2.00	11.00	10.75	10.50	9.50	8.25	10.25	3.75	7.00	-0.289062	0.049805	0.946777	3.850000	55.790001	-3.570000	850.00	0.20	-0.04
1.67	0.00	0.00	0.00	0.00	0.00	0.00	0.00	0.00	0.00	0.25	0.00	0.00	0.00	0.00	0.00	0.00	-0.969238	0.146484	0.510742	-0.980000	50.259998	11.480000	3.00	0.00	0.00	0.75	1.25	1.00	1.25	0.50	0.25	3.50	1.50	11.25	10.75	10.50	9.50	8.25	11.00	4.25	7.00	-0.303223	0.108398	1.033203	4.550000	73.849998	-3.570000	846.00	0.21	-0.03
1.68	0.00	0.00	0.00	0.00	0.00	0.00	0.00	0.00	0.00	0.25	0.00	0.00	0.00	0.50	0.00	0.00	-1.083984	0.129395	0.547363	-9.730000	77.910004	31.710001	7.00	0.00	0.00	0.75	0.75	1.00	1.50	0.25	0.00	3.25	1.25	12.00	11.00	10.75	9.50	8.00	11.75	4.50	7.25	-0.312012	0.113281	0.979980	2.940000	84.000000	-3.010000	854.00	0.22	-0.02
1.69	0.00	0.00	0.00	0.00	0.00	0.00	0.00	0.00	0.00	0.25	0.00	0.00	0.00	0.00	0.00	0.00	-1.130371	0.113281	0.587402	-16.730000	92.050003	40.880001	3.00	0.00	0.00	0.50	0.25	0.75	0.50	0.25	0.25	3.25	1.00	12.50	11.25	10.50	9.50	8.00	12.75	5.00	7.00	-0.345703	0.089355	0.983398	2.730000	93.169998	-3.710000	851.00	0.24	-0.02
1.70	0.25	0.50	0.25	0.00	0.00	0.00	0.00	0.00	0.00	0.00	0.00	0.00	0.00	0.00	0.00	0.00	6.421387	2.644043	1.369629	-22.469999	118.300003	40.529999	10.00	0.00	0.00	0.25	0.75	0.25	0.50	0.00	0.00	3.25	0.75	13.00	11.50	10.75	9.75	7.75	13.00	5.00	7.00	-0.353027	0.084473	0.985352	1.260000	105.209999	-4.340000	852.00	0.25	-0.01
1.71	1.25	1.75	0.00	0.50	0.00	0.00	0.00	0.00	0.00	0.00	0.00	0.00	0.00	0.00	0.00	0.00	0.862793	1.126465	1.365723	-36.680000	57.330002	45.290001	35.00	0.00	0.00	0.25	0.00	0.25	0.00	0.00	0.00	3.25	0.75	13.25	11.75	10.75	9.50	7.75	13.75	5.00	7.00	-0.382812	0.085449	0.990723	-0.420000	118.860001	-4.410000	850.00	0.26	-0.01
1.72	1.25	2.50	0.50	0.75	0.00	0.00	0.00	0.00	0.00	0.00	0.00	0.00	0.00	0.00	0.00	0.00	0.692871	0.078613	-0.231445	-71.190002	45.430000	24.290001	50.00	0.00	0.00	0.00	0.00	0.00	0.00	0.00	0.00	3.00	0.50	13.50	11.75	10.50	9.50	7.25	14.25	5.25	7.00	-0.435547	0.125000	0.948242	-0.700000	131.880005	-4.200000	840.00	0.26	-0.00
1.73	2.25	3.75	0.50	1.25	0.00	0.00	0.00	0.00	0.00	0.00	0.00	0.00	0.00	0.00	0.00	0.00	0.052734	-0.598633	-0.594238	-133.910004	114.239998	-9.240000	77.00	-0.38	-0.08	0.00	0.00	0.00	0.00	0.00	0.00	3.00	0.25	13.75	11.75	10.50	9.00	7.00	15.00	5.25	7.00	-0.426270	0.091797	1.029785	-4.060000	147.770004	-4.760000	838.00	0.27	0.00
1.74	2.50	4.50	0.75	1.25	0.00	0.00	0.00	0.00	0.00	0.00	0.00	0.00	0.00	0.00	0.00	0.00	-0.169922	-0.068848	0.898926	-163.869995	181.089996	-26.809999	89.00	-0.38	-0.07	0.00	0.00	0.00	0.00	0.00	0.00	2.75	0.25	13.50	11.75	10.00	8.75	6.50	15.50	5.25	6.75	-0.463867	0.079590	1.061035	-7.490000	163.729996	-6.160000	822.00	0.27	0.01
1.75	3.75	5.25	0.50	1.25	0.00	0.00	0.00	0.00	0.00	0.00	0.00	0.00	0.00	0.00	0.00	0.00	-0.341309	-0.030273	1.803223	-128.589996	186.899994	-18.480000	106.00	-0.39	-0.06	0.00	0.00	0.00	0.00	0.00	0.00	2.75	0.00	13.25	11.50	9.75	8.50	6.00	16.00	5.25	7.00	-0.496582	0.063477	1.103516	-12.040000	178.080002	-6.860000	808.00	0.27	0.01
1.76	4.50	6.75	0.75	1.50	0.00	0.00	0.00	0.00	0.00	0.00	0.00	0.00	0.00	0.00	0.00	0.00	-0.295410	-0.217285	1.411621	-76.440002	161.839996	-6.930000	134.00	-0.39	-0.06	0.00	0.00	0.00	0.00	0.00	0.00	2.75	0.00	13.00	11.25	9.25	8.00	5.25	16.50	5.00	6.75	-0.535156	0.074707	1.121582	-17.150000	192.080002	-7.210000	786.00	0.27	0.02
1.77	6.00	8.75	1.25	2.00	0.00	0.00	0.00	0.00	0.00	0.00	0.00	0.00	0.00	0.00	0.00	0.00	-0.061523	-0.281250	0.895508	-39.200001	154.000000	-4.760000	179.00	-0.38	-0.06	0.00	0.00	0.00	0.00	0.00	0.00	2.75	0.00	12.00	11.00	8.75	7.50	4.50	16.50	5.50	6.75	-0.577637	0.224121	1.248535	-20.790001	202.020004	-7.700000	758.00	0.28	0.02
1.78	7.75	10.75	1.25	2.50	0.00	0.00	0.00	0.00	0.00	0.00	0.00	0.00	0.00	0.00	0.00	0.00	-0.090820	-0.347168	0.979004	-15.610000	162.960007	-11.550000	221.00	-0.39	-0.06	0.00	0.00	0.00	0.00	0.00	0.00	2.75	0.00	11.25	10.50	8.00	6.50	4.00	17.00	5.25	6.75	-0.560059	0.152344	1.058105	-26.530001	212.380005	-11.060000	722.00	0.28	0.03
1.79	9.25	13.50	1.50	3.25	0.00	0.00	0.00	0.00	0.00	0.00	0.00	0.00	0.00	0.00	0.00	0.00	-0.276855	-0.248047	1.290527	1.960000	165.619995	-22.469999	272.00	-0.39	-0.06	0.00	0.00	0.00	0.00	0.00	0.00	2.75	0.00	10.25	10.00	7.25	5.25	3.00	17.25	5.25	6.50	-0.622559	0.117188	1.080078	-31.850000	222.880005	-16.940001	675.00	0.28	0.04
1.80	12.25	17.25	1.75	3.75	0.00	0.00	0.00	0.00	0.00	0.00	0.00	0.00	0.00	0.00	0.00	0.00	-0.305664	-0.027344	1.627930	22.610001	160.089996	-30.730000	346.00	-0.39	-0.06	0.00	0.00	0.00	0.00	0.00	0.00	2.50	0.00	9.25	9.25	5.50	4.50	2.25	17.50	5.25	6.00	-0.729492	0.133301	1.203125	-44.660000	232.750000	-23.730000	617.00	0.29	0.05
1.81	15.25	21.00	2.25	5.00	0.00	0.00	0.00	0.00	0.00	0.00	0.00	0.00	0.00	0.00	0.00	0.00	-0.339355	0.283691	1.537109	30.170000	150.009995	-35.279999	431.00	-0.39	-0.06	0.00	0.00	0.00	0.00	0.00	0.00	2.25	0.00	8.00	8.75	4.50	3.50	1.50	17.50	5.00	5.75	-0.986328	0.076660	1.515137	-62.790001	250.669998	-33.110001	560.00	0.30	0.06
1.82	17.00	23.75	2.75	6.75	0.00	0.00	0.00	0.00	0.00	0.00	0.00	0.00	0.00	0.00	0.00	0.00	-0.362305	0.611816	1.356445	34.509998	144.830002	-26.180000	499.00	-0.38	-0.06	0.00	0.00	0.00	0.00	0.00	0.00	2.25	0.00	7.50	8.00	3.75	2.50	1.25	16.75	4.75	5.25	-0.915039	0.249512	1.787109	-64.820000	258.230011	-33.459999	513.00	0.30	0.07
1.83	19.25	25.50	3.00	7.75	0.00	0.00	0.00	0.00	0.00	0.00	0.00	0.00	0.00	0.00	0.00	0.00	-0.377441	0.498047	1.438477	34.860001	141.960007	-8.610000	552.00	-0.38	-0.06	0.00	0.00	0.00	0.00	0.00	0.00	1.75	0.00	6.50	7.50	3.00	2.00	0.75	16.50	4.00	4.75	-0.822754	0.265137	1.384766	-66.849998	275.730011	-42.980000	457.00	0.31	0.08
1.84	20.75	26.75	3.50	8.50	0.00	0.00	0.00	0.00	0.00	0.00	0.00	0.00	0.00	0.00	0.00	0.00	-0.365723	0.223145	1.397949	26.389999	132.649994	2.030000	593.00	-0.38	-0.06	0.00	0.00	0.00	0.00	0.00	0.00	1.50	0.00	5.75	6.50	2.25	1.50	0.25	15.75	3.75	4.00	-1.063965	0.312988	1.509277	-69.440002	291.619995	-54.529999	402.00	0.31	0.09
1.85	22.25	28.00	4.00	9.25	0.25	0.50	0.00	0.25	0.00	0.00	0.00	0.00	0.00	0.00	0.00	0.00	-0.321289	0.058594	1.261719	15.890000	122.220001	2.800000	646.00	-0.38	-0.06	0.00	0.00	0.00	0.00	0.00	0.00	1.00	0.00	5.00	6.00	1.50	1.50	0.00	14.75	3.25	3.50	-1.159668	0.346191	1.391113	-72.379997	305.339996	-67.480003	353.00	0.32	0.09
1.86	23.00	29.00	4.50	9.75	0.25	0.50	0.00	0.00	0.00	0.00	0.00	0.00	0.00	0.00	0.00	0.00	-0.273438	0.123047	1.153809	5.530000	112.980003	-0.980000	670.00	-0.38	-0.06	0.00	0.00	0.00	0.00	0.00	0.00	0.75	0.00	4.00	4.75	1.75	1.25	0.25	13.00	3.00	3.00	-1.263672	0.500000	1.809570	-60.760002	324.100006	-84.349998	305.00	0.32	0.08
1.87	23.75	29.25	5.25	10.25	0.25	1.00	0.00	0.00	0.00	0.00	0.00	0.00	0.00	0.00	0.00	0.00	-0.248535	0.166504	1.064453	0.980000	105.699997	-1.960000	700.00	-0.37	-0.06	0.00	0.00	0.00	0.00	0.00	0.00	0.25	0.00	3.00	4.25	1.75	1.50	0.00	11.75	2.50	3.00	-1.176758	0.286133	1.583984	-45.500000	326.829987	-94.010002	264.00	0.33	0.07
1.88	25.75	29.50	6.00	11.00	0.50	0.75	0.00	0.00	0.00	0.00	0.00	0.00	0.00	0.00	0.00	0.00	-0.271973	0.083496	1.050781	-0.210000	97.790001	-1.820000	739.00	-0.37	-0.05	0.00	0.00	0.00	0.00	0.00	0.00	0.00	0.00	2.50	3.75	1.50	1.00	0.25	9.75	2.00	2.75	-1.167480	0.145996	1.689941	-49.700001	328.579987	-102.340004	219.00	0.33	0.06
1.89	25.50	30.75	6.50	12.00	0.50	1.25	0.00	0.25	0.00	0.00	0.00	0.00	0.00	0.00	0.00	0.00	-0.329102	0.554199	1.134766	-26.600000	69.440002	-4.340000	774.00	-0.37	-0.06	0.00	0.00	0.00	0.00	0.00	0.00	0.00	0.00	2.00	3.25	1.50	1.25	0.25	8.50	1.50	2.00	-1.229492	0.305176	1.816895	-64.190002	321.510010	-107.239998	190.00	0.32	0.06
1.90	25.50	31.00	7.00	12.75	0.50	1.50	0.00	0.25	0.00	0.00	0.00	0.25	0.00	0.00	0.00	0.00	-0.327148	0.122070	0.917480	-25.340000	52.920002	-1.400000	796.00	-0.36	-0.06	0.00	0.00	0.00	0.00	0.00	0.00	0.00	0.00	1.50	2.75	1.50	1.00	0.25	6.75	1.50	1.25	-0.891602	0.438477	1.878906	-75.040001	310.380005	-109.970001	157.00	0.32	0.05
1.91	27.25	31.00	7.25	13.25	0.50	1.50	0.00	0.50	0.00	0.00	0.25	0.50	0.00	0.00	0.00	0.00	-0.241211	0.107422	1.047852	-26.320000	49.840000	-1.260000	831.00	-0.36	-0.06	0.00	0.00	0.00	0.00	0.00	0.00	0.00	0.00	1.25	2.75	1.50	1.00	0.00	5.50	1.00	0.75	-0.954102	0.298340	1.237305	-80.919998	293.369995	-112.279999	133.00	0.32	0.06
1.92	27.00	31.75	7.50	13.50	0.50	1.75	0.00	0.25	0.00	0.25	0.00	0.25	0.00	0.00	0.00	0.00	-0.273438	0.098145	1.005371	-21.559999	42.000000	-1.470000	837.00	-0.36	-0.06	0.00	0.25	0.00	0.00	0.00	0.00	0.00	0.00	1.00	2.25	1.25	1.00	0.00	3.50	0.75	0.50	-0.386719	0.320312	0.919922	-85.260002	273.350006	-116.340004	103.00	0.29	0.04
1.93	28.25	31.50	7.75	14.00	0.75	2.00	0.00	0.25	0.00	0.25	0.00	0.50	0.00	0.00	0.00	0.00	-0.262695	0.102539	0.973145	-17.290001	36.820000	-1.470000	864.00	-0.36	-0.06	0.50	0.25	0.00	0.00	0.00	0.00	0.00	0.00	0.75	1.50	1.00	1.00	0.25	2.00	0.50	0.25	-0.013184	0.521484	1.486328	-76.230003	245.630005	-112.980003	80.00	0.22	0.01
1.94	27.25	32.00	8.25	14.25	0.75	2.00	0.00	0.50	0.00	0.50	0.50	0.25	0.00	0.00	0.00	0.00	-0.272461	0.115234	1.006348	-13.720000	31.430000	-1.330000	876.00	-0.35	-0.06	0.25	0.25	0.00	0.00	0.00	0.00	0.00	0.00	0.50	1.50	0.50	0.00	0.00	1.00	0.25	0.00	0.424805	0.553223	1.358887	-61.320000	207.199997	-108.639999	43.00	0.00	0.00
1.95	28.00	32.75	8.25	14.25	0.75	2.50	0.00	0.50	0.00	0.50	0.25	0.50	0.25	0.00	0.00	0.00	-0.270996	0.117188	0.979004	-9.520000	24.710001	-1.260000	898.00	-0.35	-0.06	0.25	0.75	0.00	0.00	0.00	0.00	0.00	0.00	0.50	1.25	0.75	0.00	0.00	0.75	0.00	0.00	-0.059570	0.736328	1.127441	-58.240002	174.229996	-89.459999	43.00	0.00	0.00
1.96	27.50	32.25	8.25	14.75	0.75	2.50	0.00	0.50	0.00	0.50	0.50	0.75	0.00	0.00	0.00	0.00	-0.273926	0.114746	0.975586	-6.370000	19.600000	-0.980000	897.00	-0.35	-0.07	0.00	0.00	0.00	0.00	0.00	0.00	0.00	0.00	0.00	1.25	0.75	0.25	0.00	0.50	0.25	0.00	0.361328	0.721191	2.147949	-32.619999	94.220001	-59.570000	30.00	0.00	0.00
1.97	27.75	32.00	8.00	15.00	0.75	2.50	0.00	0.50	0.00	0.50	0.25	0.75	0.25	0.00	0.00	0.00	-0.274902	0.120117	0.961426	-4.200000	15.400000	-0.700000	897.00	-0.35	-0.07	0.25	0.25	0.00	0.00	0.00	0.00	0.00	0.00	0.25	1.25	0.75	0.00	0.00	0.50	0.00	0.00	0.448730	0.472656	1.514648	-35.279999	-69.019997	-2.800000	33.00	0.00	0.00
1.98	27.75	31.50	8.00	14.75	0.75	2.50	0.00	0.50	0.00	0.50	0.25	0.75	0.00	0.00	0.00	0.00	-0.269043	0.120117	0.952637	-3.150000	13.300000	-0.560000	887.00	-0.35	-0.06	0.25	0.25	0.00	0.00	0.00	0.00	0.00	0.00	0.00	1.00	0.25	0.25	0.00	0.50	0.00	0.00	0.448730	0.472656	1.514648	-35.279999	-69.019997	-2.800000	25.00	0.00	0.00
1.99	26.50	32.00	8.50	15.00	1.00	2.50	0.00	0.75	0.00	0.50	0.25	0.50	0.25	0.25	0.00	0.00	-0.270508	0.124023	0.948730	-2.870000	11.620000	-0.630000	895.00	-0.34	-0.07	0.00	0.00	0.00	0.00	0.00	0.00	0.00	0.00	0.00	1.00	0.25	0.25	0.00	0.25	0.00	0.00	0.356934	0.428223	1.220703	-48.580002	-120.750000	19.320000	18.00	0.00	0.00
2.00	26.75	31.75	8.00	15.00	0.75	2.75	0.00	0.50	0.00	0.25	0.25	0.75	0.50	0.75	0.00	0.00	-0.264648	0.123535	0.936035	-3.080000	10.640000	-0.770000	893.00	-0.34	-0.07	0.00	0.00	0.00	0.00	0.00	0.00	0.00	0.00	0.00	1.00	0.50	0.00	0.00	0.25	0.00	0.00	0.291016	0.399902	0.970703	-54.040001	-151.270004	35.840000	18.00	0.00	0.00
2.01	26.25	31.00	8.25	15.00	0.75	2.50	0.00	0.75	0.00	0.25	0.50	0.50	0.25	0.25	0.00	0.00	-0.265625	0.122559	0.933594	-3.780000	10.010000	-0.980000	878.00	-0.34	-0.07	0.00	0.25	0.00	0.00	0.00	0.00	0.00	0.00	0.00	0.75	0.50	0.00	0.00	0.00	0.00	0.00	0.208984	0.331543	0.720703	-43.049999	-177.940002	56.209999	15.00	0.00	0.00
2.02	26.00	30.75	8.00	14.50	0.75	2.75	0.00	0.50	0.25	0.75	0.25	0.25	0.25	0.00	0.00	0.00	-0.264648	0.119629	0.923828	-4.900000	10.640000	-1.400000	865.00	-0.34	-0.07	0.25	0.00	0.00	0.25	0.00	0.00	0.00	0.00	0.00	0.75	0.25	0.00	0.00	0.25	0.00	0.00	0.140625	0.305176	0.663086	-35.840000	-181.300003	60.970001	18.00	0.00	0.00
2.03	25.75	30.25	8.25	14.75	0.75	2.50	0.00	0.50	0.00	0.75	0.50	0.25	0.25	0.00	0.00	0.00	-0.257812	0.122070	0.925293	-6.160000	11.690000	-1.610000	860.00	-0.34	-0.07	0.00	0.00	0.00	0.00	0.00	0.00	0.00	0.00	0.00	0.50	0.25	0.00	0.00	0.25	0.00	0.00	0.104004	0.284668	0.666016	-31.010000	-182.000000	64.050003	10.00	0.00	0.00
2.04	25.50	30.00	8.00	14.75	0.75	3.00	0.00	0.50	0.00	0.75	0.50	0.50	0.25	0.25	0.00	0.00	-0.259277	0.119141	0.918457	-7.560000	13.020000	-2.100000	862.00	-0.34	-0.07	0.25	0.25	0.00	0.00	0.00	0.00	0.00	0.00	0.00	0.50	0.25	0.00	0.00	0.00	0.00	0.00	0.080078	0.266602	0.712891	-28.559999	-183.610001	66.010002	13.00	0.00	0.00
2.05	24.75	29.50	8.00	14.25	0.75	2.75	0.00	0.50	0.00	0.75	0.25	0.75	0.25	0.25	0.00	0.00	-0.263672	0.120605	0.908691	-9.030000	14.420000	-2.450000	842.00	-0.34	-0.07	0.00	0.00	0.00	0.00	0.00	0.00	0.00	0.00	0.00	0.50	0.25	0.00	0.00	0.00	0.00	0.00	0.056152	0.263184	0.806152	-26.880001	-189.000000	67.550003	8.00	0.00	0.00
2.06	24.00	28.75	7.75	14.50	0.75	2.75	0.00	0.75	0.25	0.75	0.75	0.50	0.25	0.50	0.00	0.00	-0.257324	0.120605	0.900879	-11.130000	16.660000	-2.800000	839.00	-0.33	-0.07	0.00	0.00	0.00	0.00	0.00	0.00	0.00	0.00	0.00	0.75	0.25	0.00	0.00	0.00	0.00	0.00	0.033691	0.281250	0.937988	-23.799999	-200.339996	69.440002	10.00	0.00	0.00
2.07	23.50	28.25	8.00	14.25	1.00	3.25	0.00	0.75	0.00	1.00	0.75	0.75	0.50	0.25	0.00	0.00	-0.256348	0.116699	0.886230	-14.000000	19.320000	-3.080000	839.00	-0.33	-0.07	0.00	0.00	0.00	0.00	0.00	0.00	0.00	0.00	0.00	0.25	0.00	0.00	0.00	0.00	0.00	0.00	0.014648	0.281250	1.070801	-19.040001	-218.680008	71.820000	3.00	0.00	0.00
2.08	23.50	27.50	8.00	14.25	1.00	3.00	0.00	0.75	0.25	0.75	0.50	0.50	0.50	0.00	0.00	0.00	-0.260742	0.103516	0.916992	-15.750000	21.770000	-3.430000	823.00	-0.33	-0.07	0.00	0.00	0.00	0.00	0.00	0.00	0.00	0.00	0.00	0.50	0.00	0.00	0.00	0.00	0.00	0.00	-0.057617	0.282227	1.183105	-13.090000	-243.250000	74.690002	5.00	0.00	0.00
2.09	23.25	27.25	8.00	13.75	0.75	3.00	0.25	0.75	0.25	1.00	1.25	0.75	1.00	0.25	0.00	0.00	-0.278809	0.105469	0.932129	-11.900000	19.600000	-3.430000	833.00	-0.32	-0.07	0.00	0.25	0.00	0.00	0.00	0.00	0.00	0.00	0.00	0.50	0.25	0.00	0.00	0.00	0.00	0.00	-0.158691	0.280762	1.193848	-8.260000	-268.799988	77.840004	10.00	0.00	0.00
2.10	22.00	26.25	8.25	13.25	1.00	3.50	0.25	0.75	0.25	1.25	1.25	1.25	1.00	0.50	0.00	0.00	-0.286133	0.104004	0.939941	-9.240000	17.360001	-3.290000	827.00	-0.31	-0.07	0.00	0.00	0.00	0.00	0.00	0.00	0.00	0.00	0.00	0.25	0.00	0.00	0.00	0.00	0.00	0.00	-0.274902	0.287109	1.173340	-5.530000	-290.850006	80.430000	3.00	0.00	0.00
2.11	21.50	25.75	7.75	13.75	1.00	3.50	0.25	1.00	0.50	1.00	1.25	2.00	1.25	0.50	0.00	0.00	-0.282227	0.105957	0.941406	-7.420000	15.400000	-3.150000	831.00	-0.30	-0.08	0.00	0.00	0.00	0.00	0.00	0.00	0.00	0.00	0.00	0.25	0.00	0.00	0.00	0.00	0.00	0.00	-0.372559	0.294434	1.150391	-2.520000	-305.899994	82.599998	3.00	0.00	0.00
2.12	21.00	25.00	8.00	13.00	1.00	3.75	0.25	1.25	0.75	1.75	1.75	1.50	1.50	0.25	0.25	0.00	-0.281738	0.107910	0.935059	-6.370000	14.280000	-2.870000	834.00	-0.28	-0.08	0.00	0.00	0.00	0.25	0.00	0.00	0.00	0.00	0.00	0.25	0.00	0.00	0.00	0.00	0.00	0.00	-0.442871	0.294434	1.140625	1.470000	-312.899994	84.559998	5.00	0.00	0.00
2.13	20.50	24.00	7.75	13.00	1.00	3.50	0.25	1.25	0.50	1.75	1.50	1.75	1.75	0.50	0.25	0.25	-0.289551	0.097656	0.932129	-5.390000	13.510000	-2.800000	816.00	-0.28	-0.08	0.00	0.00	0.00	0.00	0.00	0.00	0.00	0.00	0.00	0.00	0.00	0.00	0.00	0.00	0.00	0.00	-0.493164	0.285156	1.151367	6.090000	-314.160004	85.750000	0.00	0.00	0.00
2.14	19.25	23.25	7.75	12.50	1.25	4.25	0.25	1.50	0.75	2.00	1.75	2.00	1.75	0.75	0.00	0.25	-0.289551	0.105469	0.937988	-4.760000	12.950000	-2.660000	816.00	-0.27	-0.08	0.00	0.00	0.00	0.00	0.00	0.00	0.00	0.00	0.00	0.25	0.00	0.00	0.00	0.00	0.00	0.00	-0.541016	0.280273	1.185059	11.130000	-312.269989	85.750000	3.00	0.00	0.00
2.15	18.75	22.25	7.75	12.50	1.25	4.25	0.25	1.75	1.00	2.00	2.00	2.50	1.75	0.75	0.25	0.25	-0.290039	0.106445	0.937500	-4.340000	12.600000	-2.590000	820.00	-0.26	-0.08	0.00	0.00	0.00	0.00	0.00	0.00	0.00	0.00	0.00	0.25	0.00	0.00	0.00	0.00	0.00	0.00	-0.583496	0.278320	1.243652	17.219999	-310.029999	84.489998	3.00	0.00	0.00
2.16	17.25	21.25	7.50	12.00	1.25	4.25	0.50	2.00	1.25	2.00	2.00	2.50	2.25	1.00	0.25	0.25	-0.289551	0.104492	0.928711	-4.060000	12.600000	-2.520000	804.00	-0.24	-0.09	0.00	0.00	0.00	0.00	0.00	0.00	0.00	0.00	0.00	0.00	0.00	0.00	0.00	0.00	0.00	0.00	-0.615234	0.296875	1.299316	24.360001	-308.769989	83.230003	0.00	0.00	0.00
2.17	16.50	20.25	7.50	11.50	1.50	4.25	0.50	2.25	1.25	2.50	2.00	2.50	2.50	1.25	0.25	0.25	-0.298828	0.098145	0.931152	-3.920000	12.740000	-2.590000	798.00	-0.23	-0.09	0.00	0.00	0.00	0.00	0.00	0.00	0.00	0.00	0.00	0.00	0.00	0.00	0.00	0.00	0.00	0.00	-0.662109	0.178223	1.374023	23.870001	-307.929993	82.320000	0.00	0.00	0.00
2.18	15.50	18.75	7.50	11.25	1.50	4.50	0.50	2.50	1.25	2.50	2.25	3.00	2.75	1.50	0.50	0.50	-0.318848	0.121582	0.942383	-3.850000	12.950000	-2.380000	793.00	-0.21	-0.09	0.00	0.00	0.00	0.00	0.00	0.00	0.00	0.00	0.00	0.25	0.00	0.00	0.00	0.00	0.00	0.00	-0.685547	0.333008	1.421875	26.320000	-304.360016	81.480003	3.00	0.00	0.00
2.19	14.25	17.75	7.00	10.75	1.50	4.50	0.50	2.50	1.25	2.75	2.75	3.25	3.00	1.75	0.50	0.50	-0.294434	0.101074	0.932129	-3.220000	13.510000	-2.310000	775.00	-0.20	-0.10	0.00	0.00	0.00	0.00	0.00	0.00	0.00	0.00	0.00	0.25	0.00	0.00	0.00	0.00	0.00	0.00	-0.703613	0.363770	1.479004	34.020000	-302.049988	80.360001	3.00	0.00	0.00
2.20	13.25	16.25	7.00	10.25	1.50	4.50	0.75	2.75	1.50	2.75	3.00	3.50	3.50	1.75	0.50	0.50	-0.291504	0.105957	0.915527	-3.150000	14.070000	-2.310000	766.00	-0.18	-0.10	0.00	0.00	0.00	0.00	0.00	0.00	0.00	0.00	0.00	0.25	0.00	0.00	0.00	0.00	0.00	0.00	-0.741699	0.374023	1.519043	43.540001	-299.320007	79.660004	3.00	0.00	0.00
2.21	11.50	14.50	6.50	9.50	1.50	4.50	0.75	3.25	1.75	2.75	3.25	3.50	3.75	2.00	0.50	0.50	-0.298340	0.093262	0.942383	-3.080000	14.490000	-2.310000	736.00	-0.16	-0.10	0.00	0.25	0.00	0.00	0.00	0.00	0.00	0.00	0.00	0.25	0.00	0.00	0.00	0.00	0.00	0.00	-0.816895	0.359863	1.684570	59.779999	-290.709991	77.840004	5.00	0.00	0.00
2.22	9.75	13.00	6.50	9.25	1.50	4.50	0.75	4.00	2.00	3.25	3.75	4.00	4.75	2.25	0.50	0.75	-0.305664	0.101562	0.931152	-2.450000	14.910000	-2.240000	743.00	-0.13	-0.11	0.00	0.25	0.00	0.00	0.00	0.00	0.00	0.00	0.00	0.00	0.00	0.00	0.00	0.00	0.00	0.00	-0.855957	0.332031	1.798340	64.889999	-286.860016	75.739998	2.00	0.00	0.00
2.23	8.75	11.00	6.00	8.75	1.50	4.50	1.00	4.50	2.25	3.25	4.00	5.00	5.25	2.50	0.75	0.75	-0.304199	0.106934	0.931152	-1.680000	15.260000	-2.030000	741.00	-0.10	-0.12	0.00	0.00	0.00	0.00	0.00	0.00	0.00	0.00	0.00	0.00	0.00	0.00	0.00	0.00	0.00	0.00	-0.923828	0.328613	1.900879	68.320000	-283.570007	73.639999	0.00	0.00	0.00
2.24	7.50	9.50	5.50	8.25	1.50	4.50	1.00	5.00	2.50	3.75	4.75	5.25	5.50	2.75	0.75	1.00	-0.307129	0.100098	0.934082	-1.470000	15.330000	-1.890000	735.00	-0.08	-0.12	0.00	0.00	0.00	0.00	0.00	0.00	0.00	0.00	0.00	0.00	0.00	0.00	0.00	0.00	0.00	0.00	-0.987793	0.311035	2.000488	72.029999	-281.190002	69.510002	0.00	0.00	0.00
2.25	6.50	8.25	5.00	7.75	1.50	4.00	1.00	5.25	2.75	4.00	5.75	6.00	6.00	3.25	1.00	1.00	-0.290039	0.115234	0.922852	-1.400000	15.680000	-1.820000	736.00	-0.05	-0.13	0.00	0.00	0.00	0.00	0.00	0.00	0.00	0.00	0.00	0.00	0.00	0.00	0.00	0.00	0.00	0.00	-1.085449	0.291992	2.105469	76.720001	-278.670013	64.680000	0.00	0.00	0.00
2.26	5.75	7.25	4.75	7.00	1.25	4.25	1.25	5.50	3.25	5.00	6.75	6.75	6.50	3.25	1.00	1.00	-0.309570	0.103027	0.936035	-1.400000	16.379999	-1.960000	755.00	-0.02	-0.13	0.00	0.00	0.00	0.00	0.00	0.00	0.00	0.00	0.00	0.00	0.00	0.00	0.00	0.00	0.00	0.00	-1.216797	0.270020	2.234863	82.669998	-277.200012	58.799999	0.00	0.00	0.00
2.27	5.00	6.50	4.00	6.50	1.25	3.75	1.50	5.75	3.25	5.00	7.50	7.50	6.75	3.50	1.00	1.25	-0.302734	0.102539	0.928223	-1.680000	17.290001	-2.100000	750.00	0.00	-0.13	0.00	0.00	0.00	0.00	0.00	0.00	0.00	0.00	0.00	0.00	0.00	0.00	0.00	0.00	0.00	0.00	-1.395996	0.250000	2.325195	89.250000	-279.019989	52.360001	0.00	0.00	0.00
2.28	4.25	5.75	3.25	5.75	1.25	3.50	1.75	6.00	4.25	6.00	8.00	8.00	7.25	3.75	1.00	1.50	-0.318359	0.097168	0.926270	-2.730000	18.410000	-2.170000	766.00	0.03	-0.13	0.00	0.00	0.00	0.00	0.00	0.00	0.00	0.00	0.00	0.00	0.00	0.00	0.00	0.00	0.00	0.00	-1.603027	0.218750	2.406250	94.430000	-285.880005	45.080002	0.00	0.00	0.00
2.29	3.25	5.00	3.00	5.25	1.25	3.00	2.25	6.00	4.75	6.75	8.50	8.25	7.50	4.25	1.25	1.75	-0.310547	0.102539	0.925293	-4.970000	20.090000	-2.520000	775.00	0.05	-0.12	0.00	0.00	0.00	0.00	0.00	0.00	0.00	0.00	0.00	0.00	0.00	0.00	0.00	0.00	0.00	0.00	-1.830566	0.182617	2.338379	94.500000	-298.549988	36.750000	0.00	0.00	0.00
2.30	2.75	4.00	2.50	3.75	1.00	2.50	2.75	6.00	5.25	7.50	9.00	8.50	7.75	5.00	1.50	1.75	-0.320801	0.092773	0.916504	-8.190000	23.799999	-3.990000	771.00	0.09	-0.11	0.00	0.75	0.00	0.00	0.00	0.00	0.00	0.00	0.00	0.00	0.00	0.00	0.00	0.00	0.00	0.00	-2.050293	0.175293	2.087891	90.790001	-313.110016	26.600000	7.00	0.00	0.00
2.31	1.50	3.25	2.00	3.25	0.75	2.00	3.25	6.00	6.25	8.00	9.75	9.25	8.00	5.25	1.75	1.75	-0.317383	0.091797	0.937500	-8.190000	26.740000	-5.110000	781.00	0.11	-0.10	0.00	0.00	0.00	0.00	0.00	0.00	0.00	0.00	0.00	0.00	0.00	0.00	0.00	0.00	0.00	0.00	-2.237793	0.159668	1.663086	94.570000	-319.970001	14.350000	0.00	0.00	0.00
2.32	1.50	2.00	1.50	3.00	0.75	1.50	3.50	6.00	7.50	8.75	10.25	9.50	8.25	5.50	2.00	2.00	-0.372070	0.126953	0.939453	-6.510000	30.380001	-5.950000	800.00	0.13	-0.09	0.00	0.00	0.00	0.00	0.00	0.00	0.00	0.00	0.00	0.25	0.00	0.00	0.00	0.00	0.00	0.00	-2.336426	0.040039	1.119629	121.169998	-309.750000	3.430000	3.00	0.00	0.00
2.33	0.75	1.75	1.00	1.75	0.50	1.00	3.75	5.75	7.75	9.00	10.50	10.00	8.50	6.50	2.25	2.00	-0.325195	0.147461	0.913086	-3.290000	34.090000	-6.370000	789.00	0.16	-0.09	0.00	0.00	0.00	0.00	0.00	0.00	0.00	0.00	0.00	0.00	0.00	0.00	0.00	0.00	0.00	0.00	-2.534668	-0.264648	0.722168	175.630005	-286.160004	-3.850000	0.00	0.00	0.00
2.34	0.25	1.00	1.00	1.75	0.25	0.75	4.00	5.75	8.50	9.75	11.25	10.75	8.75	7.25	2.25	2.25	-0.327148	0.135254	0.944824	-0.420000	38.080002	-8.960000	819.00	0.18	-0.08	0.00	0.00	0.00	0.00	0.00	0.00	0.00	0.00	0.00	0.00	0.00	0.00	0.00	0.00	0.00	0.00	-2.918945	-0.602539	0.408203	227.570007	-256.130005	-14.000000	0.00	0.00	0.00
2.35	0.25	0.75	0.50	1.00	0.25	0.75	4.50	5.50	8.75	10.00	11.50	10.75	9.00	7.50	2.25	2.25	-0.305176	0.033691	1.016602	0.770000	56.840000	-6.930000	819.00	0.19	-0.07	0.00	0.00	0.00	0.00	0.00	0.00	0.00	0.00	0.00	0.00	0.00	0.00	0.00	0.00	0.00	0.00	-3.327637	-0.961914	0.166016	242.270004	-224.279999	-27.790001	0.00	0.00	0.00
2.36	0.25	0.75	0.00	0.75	0.00	0.50	4.50	5.25	9.50	10.75	12.00	11.25	8.75	8.00	2.75	2.50	-0.363770	0.079102	0.928711	5.530000	80.220001	-7.350000	838.00	0.20	-0.07	0.00	0.00	0.00	0.00	0.00	0.00	0.00	0.00	0.00	0.50	0.00	0.00	0.00	0.00	0.00	0.00	-3.678711	-1.354980	-0.209961	218.470001	-192.710007	-37.170002	5.00	0.00	0.00
2.37	0.25	0.00	0.00	0.00	0.00	0.25	4.75	5.00	10.00	11.25	12.25	11.25	9.00	8.25	2.75	2.75	-0.377441	0.092285	0.946777	5.250000	93.309998	-6.790000	841.00	0.21	-0.06	0.00	0.25	0.00	0.00	0.00	0.00	0.00	0.00	0.00	0.25	0.00	0.00	0.00	0.00	0.00	0.00	-3.499512	-1.586914	-0.667969	53.340000	-95.550003	-65.099998	5.00	0.00	0.00
2.38	0.00	0.00	0.25	0.50	0.00	0.25	4.75	4.50	10.50	11.50	12.50	11.50	8.50	8.75	3.00	2.50	-0.397949	0.081543	0.944336	5.390000	104.230003	-5.180000	854.00	0.21	-0.05	0.00	0.00	0.00	0.00	0.00	0.00	0.00	0.00	0.00	0.25	0.25	0.00	0.00	0.00	0.00	0.00	-3.499512	-1.586914	-0.667969	53.340000	-95.550003	-65.099998	5.00	0.00	0.00
2.39	0.00	0.00	0.00	0.50	0.00	0.50	5.00	4.25	10.75	12.00	12.25	11.50	8.50	9.00	3.00	3.25	-0.406250	0.072266	0.916504	6.440000	116.550003	-3.710000	866.00	0.22	-0.05	0.00	0.00	0.00	0.00	0.00	0.00	0.00	0.00	0.00	0.00	0.00	0.00	0.00	0.00	0.00	0.00	-3.068848	-1.216309	-0.442871	-57.470001	-29.120001	-93.590004	0.00	0.00	0.00
2.40	0.00	0.00	0.00	0.00	0.00	0.00	4.75	3.50	11.50	12.25	12.75	12.00	8.50	9.25	3.25	3.00	-0.444824	0.079102	0.932129	8.260000	130.410004	-2.030000	866.00	0.23	-0.04	0.00	0.00	0.00	0.00	0.00	0.00	0.00	0.00	0.00	0.00	0.00	0.00	0.00	0.00	0.00	0.00	1.897461	1.854004	1.258789	-186.759995	70.209999	-129.570007	0.00	0.00	0.00
2.41	0.00	0.00	0.00	0.00	0.00	0.25	4.75	3.25	12.00	12.50	12.75	11.50	8.25	9.50	3.75	3.00	-0.456055	0.104492	0.942871	10.710000	147.630005	-1.260000	874.00	0.23	-0.03	1.00	1.25	0.25	0.75	0.00	0.00	0.00	0.00	0.00	0.00	0.00	0.00	0.00	0.00	0.00	0.00	1.450195	0.967773	2.516113	-214.619995	64.050003	-95.410004	33.00	0.00	0.00
2.42	0.00	0.00	0.00	0.00	0.00	0.00	4.75	3.00	12.25	13.00	12.50	11.50	7.75	9.75	3.75	3.00	-0.489258	0.104980	0.943359	12.810000	166.529999	-1.820000	872.00	0.23	-0.03	2.25	3.50	0.75	2.25	0.00	0.00	0.00	0.00	0.00	0.00	0.00	0.00	0.00	0.00	0.00	0.00	-0.015137	0.577148	0.694336	-189.770004	61.250000	-73.989998	89.00	-0.36	-0.09
2.43	0.00	0.25	0.00	0.00	0.00	0.00	4.50	2.50	12.25	12.75	12.50	11.25	7.75	10.00	4.00	3.00	-0.532715	0.092285	0.979004	13.720000	187.320007	-2.520000	862.00	0.23	-0.02	3.00	5.25	1.00	3.00	0.00	0.00	0.00	0.00	0.00	0.00	0.00	0.00	0.00	0.00	0.00	0.00	0.109375	-0.067871	-0.531250	-234.290009	83.510002	-77.699997	123.00	-0.37	-0.09
2.44	0.00	0.00	0.00	0.00	0.00	0.00	4.50	2.50	12.25	13.00	12.25	11.25	7.25	10.25	4.50	3.25	-0.577148	0.115234	1.015137	15.820000	206.639999	-2.100000	864.00	0.24	-0.02	6.00	7.50	1.25	4.75	0.00	0.00	0.00	0.00	0.00	0.00	0.00	0.00	0.00	0.00	0.00	0.00	0.059082	0.718262	0.759766	-278.320007	139.509995	-67.900002	197.00	-0.37	-0.08
2.45	0.00	0.00	0.00	0.00	0.00	0.00	4.25	2.50	12.00	12.50	11.50	10.25	6.75	10.50	4.75	3.00	-0.624023	0.115723	1.036621	18.270000	223.369995	-3.990000	832.00	0.24	-0.02	7.75	9.50	2.00	5.50	0.00	0.00	0.00	0.00	0.00	0.00	0.00	0.00	0.00	0.00	0.00	0.00	-0.354004	0.709473	1.250000	-210.279999	164.360001	-14.910000	250.00	-0.37	-0.07
2.46	0.00	0.00	0.00	0.00	0.00	0.00	3.75	2.25	11.50	12.50	11.00	9.75	6.50	10.75	5.00	3.50	-0.694824	0.152344	1.162598	19.040001	238.979996	-7.560000	809.00	0.24	-0.02	11.25	12.50	2.75	6.25	0.00	0.00	0.00	0.00	0.00	0.00	0.00	0.00	0.00	0.00	0.00	0.00	-0.383789	-0.015625	1.237793	-127.260002	174.369995	32.340000	331.00	-0.37	-0.06
2.47	0.00	0.00	0.00	0.00	0.00	0.00	3.50	2.50	10.75	11.75	10.25	9.00	6.25	10.75	5.00	3.75	-0.677734	0.178711	1.263184	21.770000	251.649994	-10.990000	775.00	0.24	-0.02	15.00	15.75	3.50	8.00	0.00	0.00	0.00	0.00	0.00	0.00	0.00	0.00	0.00	0.00	0.00	0.00	-0.231445	-0.328125	1.118164	-85.540001	200.059998	45.360001	427.00	-0.37	-0.05
2.48	0.00	0.00	0.00	0.00	0.00	0.00	3.00	2.25	10.25	11.25	8.75	8.00	5.75	11.00	5.25	3.75	-0.996094	0.102539	1.405273	28.350000	295.610016	-9.660000	726.00	0.25	-0.02	17.75	18.00	4.50	9.00	0.00	0.00	0.00	0.00	0.00	0.00	0.00	0.00	0.00	0.00	0.00	0.00	-0.409180	-0.702637	1.714355	-52.570000	219.169998	38.430000	498.00	-0.37	-0.05
2.49	0.00	0.00	0.00	0.00	0.00	0.00	2.50	2.00	9.25	10.50	8.00	7.00	5.25	11.00	5.50	4.25	-0.996094	0.102539	1.405273	28.350000	295.610016	-9.660000	676.00	0.26	-0.02	19.75	19.75	6.00	9.75	0.00	0.00	0.00	0.00	0.00	0.00	0.00	0.00	0.00	0.00	0.00	0.00	-0.546387	-0.731934	2.087402	-18.270000	212.169998	14.420000	560.00	-0.37	-0.05
2.50	0.00	0.00	0.00	0.00	0.00	0.00	2.25	1.75	8.25	9.25	6.25	6.00	4.75	10.50	5.50	4.00	-1.125488	0.196289	1.650879	33.320000	321.720001	-6.720000	604.00	0.26	-0.01	21.00	20.75	7.25	10.75	0.00	0.00	0.00	0.00	0.00	0.00	0.00	0.00	0.00	0.00	0.00	0.00	-0.485840	-0.085938	1.956543	16.940001	193.059998	-6.790000	607.00	-0.37	-0.05
2.51	0.00	0.00	0.00	0.00	0.00	0.00	1.75	1.25	7.50	8.75	5.25	4.50	3.75	10.50	5.75	4.00	-1.277832	0.361816	1.682129	43.680000	349.510010	-5.180000	541.00	0.27	0.00	21.50	21.00	8.00	11.75	0.00	0.00	0.00	0.00	0.00	0.00	0.00	0.00	0.00	0.00	0.00	0.00	-0.426270	0.319824	1.648438	30.660000	170.660004	-10.850000	634.00	-0.36	-0.05
2.52	0.00	0.00	0.00	0.00	0.00	0.00	1.00	0.50	6.75	7.75	3.50	4.25	2.75	9.75	5.25	3.00	-1.216797	0.640625	1.761230	19.320000	397.250000	-45.220001	452.00	0.28	0.01	21.25	21.50	8.25	12.25	0.25	0.75	0.00	0.25	0.00	0.00	0.00	0.00	0.50	0.00	0.00	0.00	-0.340820	0.390137	1.430664	33.670002	150.639999	-0.630000	663.00	-0.35	-0.06
2.53	0.00	0.00	0.00	0.00	0.25	0.00	1.00	0.00	6.25	7.00	3.00	2.75	1.50	9.25	4.75	2.50	-1.627930	0.646973	1.615234	27.860001	420.769989	-65.660004	388.00	0.29	0.05	20.75	21.25	8.50	13.00	0.25	0.75	0.00	0.25	0.00	0.00	0.00	0.50	0.50	0.00	0.00	0.00	-0.256348	0.104004	1.206543	29.680000	133.910004	5.460000	672.00	-0.35	-0.06
2.54	0.00	0.00	0.00	0.00	0.00	0.25	0.50	0.00	5.25	5.50	2.50	2.75	1.25	8.75	4.25	2.00	-1.168945	0.644043	2.061523	51.730000	431.690002	-81.340004	332.00	0.30	0.04	20.00	21.00	9.00	13.50	0.25	1.50	0.00	0.50	0.00	0.00	0.00	0.50	0.50	0.00	0.00	0.00	-0.213379	0.052734	1.068359	24.920000	123.410004	1.260000	685.00	-0.34	-0.07
2.55	0.00	0.25	0.00	0.00	0.00	0.00	0.25	0.00	4.00	5.25	2.00	2.50	0.50	8.00	4.00	1.75	-1.509766	0.557129	2.041504	72.519997	437.709991	-89.320000	284.00	0.30	0.04	20.00	20.75	9.50	14.00	0.50	1.50	0.00	0.50	0.00	0.00	0.00	0.75	0.75	0.00	0.00	0.00	-0.229980	0.192871	1.042480	21.910000	117.040001	-4.270000	701.00	-0.34	-0.07
2.56	0.00	0.00	0.00	0.00	0.00	0.00	0.25	0.00	2.75	5.00	1.50	2.50	0.25	7.50	3.00	1.25	-1.521484	0.585449	2.175781	81.690002	420.489990	-96.320000	238.00	0.31	0.04	19.75	20.75	9.75	14.50	0.75	2.25	0.00	0.75	0.00	0.00	0.00	0.75	1.00	0.00	0.00	0.00	-0.249512	0.280762	1.049805	19.250000	111.930000	-3.570000	724.00	-0.33	-0.07
2.57	0.00	0.00	0.00	0.00	0.00	0.00	0.00	0.00	3.25	4.25	1.50	1.75	0.50	5.25	1.75	0.75	-0.932617	0.564453	2.390625	83.230003	388.220001	-111.300003	192.00	0.30	0.05	19.50	20.75	10.00	14.75	0.50	2.75	0.00	0.75	0.00	0.00	0.50	1.00	1.25	0.00	0.00	0.00	-0.553223	0.156738	1.167480	-16.309999	71.959999	3.290000	740.00	-0.32	-0.08
2.58	0.25	0.00	0.00	0.00	0.00	0.00	0.00	0.00	2.25	3.50	1.75	1.50	0.25	5.00	1.25	0.25	-1.004395	0.364258	1.710938	81.690002	347.130005	-124.389999	162.00	0.29	0.06	19.50	20.50	10.50	15.25	0.75	3.00	0.00	0.75	0.00	0.00	0.50	1.00	1.50	0.00	0.00	0.00	-0.229004	0.120605	1.027832	-27.440001	45.290001	3.500000	756.00	-0.32	-0.08
2.59	0.00	0.00	0.00	0.00	0.00	0.00	0.00	0.00	2.25	3.25	1.00	1.50	0.50	3.00	0.50	0.25	-0.073242	0.407715	1.732422	77.699997	296.239990	-133.699997	126.00	0.28	0.05	19.50	20.50	10.50	15.25	0.75	3.25	0.00	1.00	0.00	0.00	0.50	1.25	1.50	0.00	0.00	0.00	-0.202148	0.153809	1.042480	-26.530001	29.960001	0.560000	765.00	-0.31	-0.08
2.60	0.25	0.00	0.00	0.00	0.00	0.00	0.00	0.00	1.00	1.75	0.50	0.50	0.00	1.25	0.25	0.00	0.576172	0.354004	2.154297	65.800003	240.309998	-138.809998	58.00	0.25	0.08	19.75	20.25	10.75	15.50	0.75	3.25	0.00	1.25	0.00	0.25	0.50	1.25	2.00	0.00	0.00	0.00	-0.276367	0.179199	1.052734	-24.710001	22.610001	0.560000	782.00	-0.31	-0.08
2.61	0.00	0.00	0.00	0.00	0.00	0.00	0.00	0.00	0.50	1.75	0.50	0.50	0.00	1.00	0.25	0.00	0.597656	0.393555	0.793457	53.480000	195.789993	-145.320007	46.00	0.00	0.00	19.50	20.00	10.75	15.25	1.00	4.00	0.00	1.00	0.00	0.25	0.75	1.25	2.25	0.00	0.00	0.00	-0.213379	0.135254	0.994141	-17.430000	11.970000	1.470000	786.00	-0.30	-0.08
2.62	0.00	0.25	0.00	0.00	0.00	0.00	0.00	0.00	0.50	1.50	0.25	0.25	0.00	0.50	0.00	0.00	-0.115723	0.724609	3.144043	22.330000	113.610001	-135.589996	34.00	0.00	0.00	18.75	19.75	10.50	15.25	1.00	4.25	0.00	1.25	0.00	0.50	0.75	1.50	2.00	0.00	0.00	0.00	-0.205078	0.146973	0.957520	-13.790000	9.730000	1.610000	783.00	-0.30	-0.09
2.63	0.25	0.25	0.00	0.00	0.00	0.00	0.00	0.00	1.00	2.00	0.00	0.25	0.00	1.00	0.00	0.00	0.815430	0.579590	2.411621	14.490000	7.070000	-114.029999	50.00	0.00	0.00	18.25	19.50	10.50	15.00	1.00	4.25	0.00	1.75	0.00	0.25	1.00	1.50	2.50	0.00	0.00	0.00	-0.212891	0.131836	0.971680	-10.990000	8.960000	2.030000	785.00	-0.29	-0.09
2.64	0.25	0.25	0.00	0.00	0.00	0.00	0.00	0.00	0.75	1.75	0.75	0.25	0.00	0.25	0.25	0.00	0.586914	0.417480	1.929199	-12.180000	-85.120003	-85.330002	48.00	0.00	0.00	17.50	19.00	10.25	14.75	0.75	4.75	0.00	1.50	0.00	0.50	1.00	1.50	2.25	0.00	0.00	0.00	-0.215820	0.128906	0.958496	-7.070000	7.770000	2.380000	766.00	-0.29	-0.09
2.65	0.00	0.00	0.00	0.00	0.00	0.00	0.00	0.00	0.50	1.25	0.25	0.25	0.00	0.00	0.00	0.00	0.435059	0.337402	1.403320	-49.279999	-144.059998	-58.590000	25.00	0.00	0.00	17.00	18.50	10.00	14.50	0.75	4.75	0.00	1.75	0.00	0.75	1.00	1.50	2.50	0.25	0.00	0.25	-0.214355	0.143066	0.964355	-4.830000	7.420000	2.380000	763.00	-0.28	-0.10
2.66	0.50	0.25	0.00	0.00	0.00	0.00	0.00	0.00	0.00	1.00	0.50	0.00	0.00	0.25	0.00	0.00	0.399414	0.323242	0.996582	-75.599998	-175.419998	-38.220001	25.00	0.00	0.00	16.50	18.00	9.75	14.50	1.00	5.00	0.00	2.00	0.25	0.75	1.50	1.50	3.00	0.00	0.00	0.25	-0.226074	0.127441	0.948730	-3.290000	7.000000	2.520000	770.00	-0.27	-0.10
2.67	0.00	0.00	0.00	0.00	0.00	0.00	0.00	0.00	0.75	1.00	0.50	0.25	0.00	0.25	0.00	0.00	0.331055	0.308105	0.734863	-89.389999	-188.860001	-24.290001	30.00	0.00	0.00	15.50	17.25	9.75	14.00	1.00	5.00	0.00	2.00	0.00	0.75	1.25	1.50	3.75	0.00	0.00	0.50	-0.218262	0.140137	0.941406	-1.750000	6.370000	2.520000	749.00	-0.27	-0.11
2.68	0.25	0.25	0.00	0.00	0.00	0.00	0.00	0.00	0.25	1.00	0.25	0.00	0.00	0.00	0.00	0.00	0.295898	0.310059	0.587402	-92.400002	-191.589996	-14.980000	21.00	0.00	0.00	14.75	16.75	9.50	13.75	1.00	5.00	0.00	2.25	0.00	0.75	1.50	2.00	3.25	0.00	0.00	0.50	-0.224609	0.140625	0.933594	-0.420000	5.670000	2.380000	739.00	-0.26	-0.11
2.69	0.00	0.25	0.00	0.00	0.00	0.00	0.00	0.00	0.25	0.50	0.25	0.00	0.00	0.00	0.00	0.00	0.259277	0.311523	0.501953	-87.080002	-188.300003	-8.050000	13.00	0.00	0.00	13.75	16.00	9.00	13.50	1.00	5.00	0.00	2.25	0.00	0.50	1.75	1.75	3.75	0.25	0.00	0.75	-0.222168	0.139648	0.956055	0.280000	5.040000	2.170000	718.00	-0.25	-0.12
2.70	0.00	0.00	0.00	0.00	0.00	0.00	0.00	0.00	0.25	0.75	0.00	0.25	0.00	0.25	0.00	0.00	0.221191	0.315430	0.523926	-78.610001	-183.119995	-1.750000	16.00	0.00	0.00	13.00	15.50	8.75	13.50	1.00	5.25	0.00	2.75	0.00	1.25	1.75	2.00	4.25	0.25	0.00	0.75	-0.215820	0.145996	0.952148	0.840000	4.620000	1.680000	728.00	-0.24	-0.12
2.71	0.00	0.25	0.00	0.00	0.00	0.00	0.00	0.00	0.00	0.75	0.25	0.00	0.00	0.00	0.00	0.00	0.183594	0.300781	0.602051	-71.400002	-180.110001	3.990000	13.00	0.00	0.00	12.00	15.00	8.50	13.00	1.00	5.25	0.00	2.75	0.00	0.75	1.50	2.00	4.50	0.25	0.00	1.00	-0.229004	0.038574	0.810059	-0.070000	4.970000	1.260000	701.00	-0.24	-0.13
2.72	0.00	0.00	0.00	0.00	0.00	0.00	0.00	0.00	0.25	0.25	0.25	0.00	0.00	0.00	0.00	0.00	0.164062	0.311523	0.722168	-67.620003	-181.580002	9.800000	8.00	0.00	0.00	11.25	14.25	8.25	12.75	1.00	5.50	0.00	3.25	0.00	1.00	1.75	2.50	5.00	0.25	0.25	1.25	-0.213867	0.148926	0.934082	0.840000	4.900000	1.190000	710.00	-0.22	-0.14
2.73	0.00	0.00	0.00	0.00	0.00	0.00	0.00	0.00	0.00	0.50	0.00	0.00	0.00	0.00	0.00	0.00	0.094238	0.363770	0.983887	-66.570000	-201.389999	24.570000	5.00	0.00	0.00	10.50	13.75	8.25	12.50	1.00	6.00	0.00	3.50	0.00	1.25	1.75	2.50	5.25	0.00	0.50	1.25	-0.222168	0.131348	0.940430	1.050000	5.530000	0.980000	709.00	-0.21	-0.14
2.74	0.00	0.00	0.00	0.00	0.00	0.00	0.00	0.00	0.00	0.50	0.25	0.00	0.00	0.00	0.00	0.00	0.043457	0.389648	1.118164	-67.410004	-219.589996	33.459999	8.00	0.00	0.00	9.75	13.00	8.00	12.25	1.00	6.00	0.00	3.75	0.00	1.25	2.00	3.00	5.50	0.50	0.25	1.50	-0.225586	0.142090	0.946289	2.100000	6.440000	1.050000	706.00	-0.19	-0.15
2.75	0.00	0.00	0.00	0.00	0.00	0.00	0.00	0.00	0.50	0.25	0.00	0.00	0.00	0.00	0.00	0.00	-0.032227	0.438477	1.226562	-66.010002	-242.550003	42.209999	9.00	0.00	0.00	9.00	12.25	7.75	12.00	1.00	6.00	0.00	4.25	0.00	1.50	2.25	3.00	5.75	0.50	0.50	1.50	-0.231934	0.149902	0.954590	2.380000	7.210000	0.910000	703.00	-0.18	-0.16
2.76	0.00	0.00	0.00	0.00	0.00	0.00	0.00	0.00	0.25	0.75	0.00	0.00	0.00	0.00	0.00	0.00	-0.104980	0.482910	1.280762	-61.459999	-267.820007	50.049999	11.00	0.00	0.00	8.75	11.50	7.50	11.75	1.00	6.00	0.00	5.00	0.25	1.25	2.50	3.25	6.50	0.75	0.25	2.00	-0.242676	0.147461	0.953613	1.470000	7.700000	0.420000	714.00	-0.17	-0.16
2.77	0.00	0.00	0.00	0.00	0.00	0.00	0.00	0.00	0.00	0.50	0.00	0.00	0.00	0.00	0.00	0.00	-0.201660	0.481445	1.269531	-54.670002	-292.110016	56.700001	5.00	0.00	0.00	8.00	10.75	7.25	11.50	1.00	6.00	0.00	5.50	0.25	1.75	3.00	3.50	7.00	0.75	0.50	2.00	-0.234375	0.148438	0.961426	-0.000000	7.630000	-0.070000	722.00	-0.15	-0.17
2.78	0.00	0.25	0.00	0.00	0.00	0.00	0.00	0.00	0.25	0.25	0.00	0.00	0.00	0.00	0.00	0.00	-0.311523	0.486816	1.241699	-47.810001	-311.640015	62.090000	8.00	0.00	0.00	7.25	10.25	7.00	11.00	1.25	6.00	0.00	5.50	0.75	1.75	3.00	4.00	7.50	1.00	0.50	2.50	-0.233887	0.153320	0.953125	-1.750000	7.280000	-0.630000	725.00	-0.13	-0.17
2.79	0.00	0.00	0.00	0.00	0.00	0.00	0.00	0.00	0.00	0.50	0.00	0.00	0.00	0.00	0.00	0.00	-0.401855	0.485840	1.218262	-41.580002	-323.329987	65.870003	5.00	0.00	0.00	7.25	9.50	6.75	10.75	1.25	6.00	0.00	6.00	0.25	1.75	3.25	4.25	7.75	1.25	0.50	2.50	-0.242188	0.145996	0.954590	-4.830000	6.440000	-1.610000	723.00	-0.12	-0.18
2.80	0.00	0.00	0.00	0.00	0.00	0.00	0.00	0.00	0.00	0.25	0.00	0.00	0.00	0.00	0.00	0.00	-0.496094	0.464844	1.255371	-35.349998	-330.260010	69.300003	3.00	0.00	0.00	6.75	9.25	6.50	10.25	1.25	6.00	0.25	6.25	0.50	2.00	3.50	4.75	8.00	1.25	0.50	2.50	-0.245117	0.145996	0.954590	-4.830000	6.440000	-1.610000	731.00	-0.11	-0.18
2.81	0.00	0.00	0.00	0.00	0.00	0.00	0.00	0.00	0.00	0.25	0.00	0.00	0.00	0.00	0.00	0.00	-0.556152	0.441406	1.331543	-29.960001	-333.970001	72.449997	3.00	0.00	0.00	6.25	8.50	6.25	10.00	1.25	5.75	0.00	6.50	0.75	2.25	3.75	5.50	8.25	1.50	1.00	3.00	-0.221191	0.156738	0.938477	-4.760000	5.320000	-1.400000	739.00	-0.09	-0.18
2.82	0.00	0.00	0.00	0.00	0.00	0.00	0.00	0.00	0.00	0.25	0.00	0.00	0.00	0.00	0.00	0.00	-0.572266	0.348145	1.342773	-25.200001	-336.980011	73.290001	3.00	0.00	0.00	6.00	8.00	6.00	9.75	1.25	5.75	0.00	6.75	1.00	2.25	4.25	6.25	8.75	1.75	1.00	3.00	-0.241211	0.148926	0.952637	-3.920000	5.110000	-1.050000	753.00	-0.07	-0.18
2.83	0.00	0.00	0.00	0.00	0.00	0.00	0.00	0.00	0.25	0.25	0.00	0.00	0.00	0.00	0.00	0.00	-0.677246	0.453613	1.497559	-19.460001	-337.470001	73.430000	6.00	0.00	0.00	5.50	7.50	5.75	9.25	1.50	5.75	0.00	7.00	0.50	2.50	5.25	7.25	9.00	1.75	0.75	3.25	-0.251465	0.146484	0.951660	-3.640000	5.530000	-0.980000	760.00	-0.06	-0.19
2.84	0.00	0.00	0.00	0.00	0.00	0.00	0.00	0.00	0.00	0.50	0.00	0.00	0.00	0.00	0.00	0.00	-0.693359	0.460449	1.616699	-11.200000	-340.200012	72.379997	5.00	0.00	0.00	5.00	7.00	5.25	8.75	1.25	5.75	0.25	7.25	0.50	2.75	6.25	7.75	9.25	2.25	1.00	3.50	-0.231445	0.147461	0.961426	-3.570000	6.370000	-1.050000	773.00	-0.04	-0.19
2.85	0.00	0.00	0.00	0.00	0.00	0.00	0.00	0.00	0.00	0.25	0.00	0.00	0.00	0.00	0.00	0.00	-0.751953	0.442383	1.722656	1.750000	-345.450012	70.769997	3.00	0.00	0.00	4.50	6.50	5.00	8.25	1.00	5.50	0.25	7.25	1.25	3.00	7.00	8.25	9.50	2.25	1.00	4.50	-0.250488	0.150391	0.948730	-4.130000	7.700000	-0.980000	782.00	-0.02	-0.19
2.86	0.00	0.25	0.00	0.00	0.00	0.00	0.00	0.00	0.00	0.50	0.00	0.00	0.00	0.00	0.00	0.00	-0.806641	0.413086	1.866211	12.740000	-350.489990	68.669998	8.00	0.00	0.00	3.75	5.75	4.50	8.00	1.25	5.25	0.25	7.50	1.25	3.25	7.75	8.50	10.00	2.50	1.25	4.75	-0.252441	0.143555	0.954102	-5.040000	9.170000	-1.330000	787.00	-0.00	-0.19
2.87	0.00	0.00	0.00	0.00	0.00	0.00	0.00	0.00	0.00	0.25	0.00	0.00	0.00	0.00	0.00	0.00	-0.860840	0.383301	2.019043	19.950001	-356.720001	66.570000	3.00	0.00	0.00	3.00	5.25	4.00	7.50	1.25	5.00	0.25	7.50	1.50	3.75	8.25	9.00	10.25	2.75	1.25	4.75	-0.255371	0.142090	0.959961	-5.600000	10.220000	-1.470000	784.00	0.02	-0.20
2.88	0.00	0.00	0.00	0.00	0.00	0.00	0.00	0.00	0.00	0.25	0.00	0.00	0.00	0.00	0.00	0.00	-0.925293	0.368652	2.227539	25.549999	-364.279999	63.420002	3.00	0.00	0.00	3.00	4.25	3.50	6.50	1.00	4.75	0.25	7.50	1.75	4.00	8.75	9.25	10.50	3.25	1.25	5.25	-0.257812	0.140137	0.955078	-6.440000	11.620000	-1.540000	775.00	0.04	-0.19
2.89	0.00	0.25	0.00	0.00	0.00	0.00	0.00	0.00	0.00	0.25	0.00	0.00	0.00	0.00	0.00	0.00	-1.006836	0.356934	2.444824	32.900002	-372.679993	59.080002	5.00	0.00	0.00	2.50	4.00	3.25	5.75	1.00	4.00	0.25	7.50	2.25	4.50	9.25	9.75	11.00	3.50	1.75	5.75	-0.257324	0.137695	0.964355	-7.420000	13.090000	-1.610000	786.00	0.06	-0.19
2.90	0.00	0.00	0.00	0.00	0.00	0.00	0.00	0.00	0.00	0.25	0.00	0.00	0.00	0.00	0.00	0.00	-1.144043	0.370605	2.695312	41.650002	-382.269989	54.040001	3.00	0.00	0.00	2.00	2.50	2.00	5.25	1.00	3.50	0.50	7.50	2.50	5.25	9.75	10.25	11.25	3.75	1.75	6.00	-0.254395	0.144043	0.972656	-9.170000	15.540000	-2.170000	773.00	0.09	-0.19
2.91	0.00	0.00	0.00	0.00	0.00	0.00	0.00	0.00	0.00	0.25	0.00	0.00	0.00	0.00	0.00	0.00	-1.370605	0.393555	2.902344	49.490002	-392.489990	48.650002	3.00	0.00	0.00	1.50	2.25	2.00	4.50	0.75	2.75	0.50	7.25	3.00	6.50	10.25	10.75	11.25	4.50	2.00	6.25	-0.267090	0.166504	0.970215	-11.690000	19.389999	-3.500000	783.00	0.11	-0.18
2.92	0.00	0.00	0.00	0.00	0.00	0.00	0.00	0.00	0.00	0.00	0.00	0.00	0.00	0.00	0.00	0.00	-1.609863	0.350586	2.834961	65.800003	-402.570007	45.709999	0.00	0.00	0.00	1.50	1.25	2.00	3.25	0.75	2.25	0.50	6.75	3.50	7.25	10.75	11.00	11.75	5.00	2.25	6.50	-0.270996	0.171387	0.994629	-12.180000	22.750000	-5.320000	782.00	0.13	-0.17
2.93	0.00	0.00	0.00	0.00	0.00	0.00	0.00	0.00	0.00	0.25	0.00	0.00	0.00	0.00	0.00	0.00	-1.997070	0.232910	2.882812	99.050003	-409.010010	40.740002	3.00	0.00	0.00	1.00	1.25	1.00	2.50	0.50	1.50	0.50	6.50	4.00	8.00	11.25	11.50	11.75	6.00	2.50	6.75	-0.272949	0.139648	0.966309	-10.150000	25.620001	-5.460000	780.00	0.16	-0.16
2.94	0.00	0.00	0.00	0.00	0.00	0.00	0.00	0.00	0.00	0.25	0.00	0.00	0.00	0.00	0.00	0.00	-2.679688	0.002930	2.405273	140.350006	-397.040009	22.820000	3.00	0.00	0.00	1.00	1.25	1.25	1.75	0.25	1.50	0.50	6.25	4.75	8.50	11.75	11.75	12.00	6.75	2.75	7.25	-0.277344	0.167480	0.970703	-6.440000	28.840000	-5.110000	804.00	0.17	-0.15
2.95	0.00	0.00	0.00	0.00	0.00	0.00	0.00	0.00	0.00	0.25	0.00	0.00	0.00	0.00	0.00	0.00	-2.869629	-0.125488	1.823242	147.630005	-372.610016	11.200000	3.00	0.00	0.00	0.75	1.00	0.75	1.25	0.25	0.75	0.50	6.00	5.75	9.00	12.25	12.25	12.00	7.50	3.25	7.50	-0.279297	0.160156	0.999512	1.610000	37.730000	-5.950000	818.00	0.19	-0.14
2.96	0.00	0.00	0.00	0.00	0.00	0.00	0.00	0.00	0.00	0.25	0.00	0.00	0.00	0.00	0.00	0.00	-3.211426	-0.392578	1.275391	174.649994	-341.670013	-1.400000	3.00	0.00	0.00	0.25	0.50	0.25	0.50	0.25	0.75	0.75	5.75	6.25	9.50	12.50	12.50	12.25	8.25	3.25	7.75	-0.297852	0.088867	0.983887	6.300000	49.139999	-8.120000	822.00	0.21	-0.14
2.97	0.00	0.00	0.00	0.00	0.00	0.00	0.00	0.00	0.00	0.25	0.00	0.00	0.00	0.00	0.00	0.00	-3.620605	-0.747070	0.779785	211.539993	-304.500000	-17.360001	3.00	0.00	0.00	0.00	0.25	0.25	0.50	0.00	0.50	0.50	5.50	7.50	9.75	13.00	12.75	12.25	9.00	3.50	8.00	-0.346191	0.127930	0.956543	3.290000	84.840004	-4.690000	841.00	0.22	-0.13
2.98	0.00	0.00	0.00	0.00	0.00	0.00	0.00	0.00	0.00	0.00	0.00	0.00	0.00	0.00	0.00	0.00	-4.253906	-1.146973	0.187988	225.259995	-264.809998	-37.590000	0.00	0.00	0.00	0.00	0.00	0.25	0.50	0.00	0.50	0.50	5.00	7.75	10.25	13.00	13.00	12.00	9.50	3.75	8.00	-0.346191	0.127930	0.956543	3.290000	84.840004	-4.690000	847.00	0.22	-0.12
2.99	0.00	0.00	0.00	0.00	0.00	0.00	0.00	0.00	0.00	0.00	0.00	0.00	0.00	0.00	0.00	0.00	-5.057129	-1.399902	-0.544434	201.110001	-223.160004	-54.529999	0.00	0.00	0.00	0.00	0.00	0.00	0.00	0.00	0.25	0.50	4.25	8.25	10.50	13.25	13.25	12.00	10.50	4.00	8.25	-0.333984	0.102051	0.968262	3.500000	96.320000	-4.550000	851.00	0.24	-0.11
3.00	0.00	0.00	0.00	0.00	0.00	0.00	0.00	0.00	0.00	0.50	0.00	0.00	0.00	0.00	0.00	0.00	-5.282227	-1.630859	-1.074219	140.979996	-165.550003	-64.959999	5.00	0.00	0.00	0.00	0.00	0.00	0.25	0.00	0.00	0.50	4.00	8.50	11.00	13.50	13.25	11.75	11.25	4.50	8.25	-0.374023	0.126465	0.970215	4.200000	110.529999	-4.060000	868.00	0.24	-0.10
3.01	0.00	0.00	0.00	0.00	0.00	0.00	0.00	0.00	0.00	0.50	0.00	0.00	0.00	0.00	0.00	0.00	-4.600098	-1.681641	-1.070801	43.889999	-84.699997	-82.529999	5.00	0.00	0.00	0.00	0.00	0.00	0.00	0.00	0.00	0.50	3.75	9.00	11.00	13.75	13.50	11.75	12.25	4.75	8.25	-0.399902	0.132324	0.973145	7.350000	140.000000	-1.400000	885.00	0.24	-0.10
3.02	0.00	0.00	0.00	0.00	0.00	0.00	0.00	0.00	0.00	0.50	0.00	0.00	0.00	0.00	0.00	0.00	-3.749023	-1.240234	-0.523438	-74.059998	0.700000	-105.769997	5.00	0.00	0.00	0.00	0.00	0.00	0.00	0.00	0.00	0.50	3.25	8.75	11.25	13.75	13.50	11.50	12.75	5.00	8.50	-0.410645	0.150879	0.995605	12.180000	156.729996	-0.840000	882.00	0.25	-0.09
3.03	0.00	0.00	0.00	0.00	0.00	0.00	0.00	0.00	0.00	0.25	0.00	0.00	0.00	0.00	0.00	0.00	-3.022461	-0.532715	0.334961	-163.940002	70.070000	-115.360001	3.00	0.00	0.00	0.00	0.00	0.00	0.00	0.00	0.00	0.50	2.50	9.25	11.50	13.75	13.50	11.25	13.25	5.00	8.50	-0.437500	0.172363	1.020020	16.870001	176.259995	-1.820000	882.00	0.25	-0.08
3.04	1.00	1.25	0.00	0.00	0.00	0.00	0.00	0.00	0.00	0.25	0.00	0.00	0.00	0.00	0.00	0.00	0.496582	0.280273	5.889160	-200.690002	315.839996	-106.330002	24.00	0.00	0.00	0.00	0.00	0.00	0.00	0.00	0.00	0.50	2.25	9.25	11.50	13.50	13.25	10.75	14.25	5.25	8.25	-0.503418	0.161621	1.062500	19.670000	198.240005	-3.640000	879.00	0.26	-0.08
3.05	2.00	3.25	0.75	1.00	0.25	0.00	0.00	0.00	0.00	0.00	0.00	0.00	0.00	0.00	0.00	0.00	1.160156	1.622070	-0.671875	-160.930008	175.979996	-72.239998	73.00	-0.37	-0.06	0.00	0.00	0.00	0.00	0.00	0.00	0.50	2.25	9.00	11.25	13.25	13.00	10.00	14.50	5.50	8.25	-0.559570	0.173828	1.151367	19.460001	224.419998	-6.160000	866.00	0.26	-0.08
3.06	3.50	5.25	1.00	1.50	0.00	0.00	0.00	0.00	0.00	0.00	0.00	0.00	0.00	0.00	0.00	0.00	0.426758	0.730469	-0.240234	-162.330002	129.779999	-32.900002	112.00	-0.38	-0.06	0.00	0.00	0.00	0.00	0.00	0.00	0.50	2.00	8.75	11.00	12.50	12.25	9.25	15.50	5.50	8.25	-0.630859	0.216309	1.294434	16.309999	251.020004	-10.850000	842.00	0.26	-0.07
3.07	6.00	8.75	1.00	2.50	0.00	0.00	0.00	0.00	0.00	0.00	0.00	0.00	0.00	0.00	0.00	0.00	0.003906	0.849121	-0.005371	-171.430008	177.380005	-0.070000	181.00	-0.38	-0.07	0.00	0.00	0.00	0.00	0.00	0.00	0.50	2.00	8.00	10.50	11.75	11.50	8.75	16.00	6.00	8.25	-0.694336	0.289551	1.487793	11.130000	276.010010	-18.480000	817.00	0.27	-0.07
3.08	9.00	13.50	1.50	3.25	0.00	0.00	0.00	0.00	0.00	0.00	0.00	0.00	0.00	0.00	0.00	0.00	-0.401855	0.676270	1.344238	-124.669998	212.240005	47.670002	270.00	-0.39	-0.06	0.00	0.00	0.00	0.00	0.00	0.00	0.50	2.00	7.50	9.75	10.75	10.50	8.00	16.50	6.25	8.25	-0.711426	0.188965	1.440430	3.290000	300.230011	-25.690001	782.00	0.27	-0.06
3.09	13.75	18.75	1.25	4.25	0.00	0.00	0.00	0.00	0.00	0.00	0.00	0.00	0.00	0.00	0.00	0.00	-0.599121	-0.239258	1.475098	-49.840000	222.460007	86.239998	375.00	-0.39	-0.06	0.00	0.00	0.00	0.00	0.00	0.00	0.50	1.75	6.50	8.75	9.50	9.25	7.00	16.75	6.25	8.00	-0.930664	0.117188	1.572266	0.280000	325.989990	-25.690001	720.00	0.28	-0.06
3.10	18.00	23.75	2.00	5.00	0.00	0.00	0.00	0.00	0.00	0.00	0.00	0.00	0.00	0.00	0.00	0.00	-0.435059	-1.103027	1.578613	-31.500000	240.380005	81.199997	482.00	-0.39	-0.05	0.00	0.00	0.00	0.00	0.00	0.00	0.50	1.50	5.50	7.75	8.25	8.00	6.00	16.75	6.25	7.75	-1.320312	0.346680	2.126465	-4.200000	355.179993	-25.900000	656.00	0.28	-0.05
3.11	22.00	27.50	2.75	5.75	0.00	0.00	0.00	0.00	0.00	0.00	0.00	0.00	0.00	0.00	0.00	0.00	-0.546875	-1.086426	2.204590	-18.059999	247.869995	44.029999	575.00	-0.39	-0.05	0.00	0.00	0.00	0.00	0.00	0.00	0.25	1.00	4.25	7.00	6.75	7.00	5.00	16.00	6.00	6.75	-1.228027	0.549805	2.280762	-0.490000	377.089996	-30.940001	571.00	0.29	-0.05
3.12	25.50	29.75	3.25	6.50	0.00	0.00	0.00	0.00	0.00	0.00	0.00	0.00	0.00	0.00	0.00	0.00	-0.614746	-0.657227	2.148438	-5.460000	229.949997	5.810000	645.00	-0.39	-0.05	0.00	0.00	0.00	0.00	0.00	0.00	0.25	0.50	3.50	6.00	5.25	5.50	3.50	14.75	5.50	6.00	-1.085449	0.584961	1.969727	-14.210000	398.089996	-46.830002	479.00	0.30	-0.03
3.13	26.75	31.75	3.75	8.00	0.00	0.00	0.00	0.00	0.00	0.00	0.00	0.00	0.00	0.00	0.00	0.00	-0.388672	0.312500	1.714844	4.270000	205.029999	-12.110000	699.00	-0.39	-0.05	0.00	0.00	0.00	0.00	0.00	0.00	0.00	0.00	2.00	4.75	4.25	4.25	2.25	13.25	4.75	5.50	-1.070312	0.741699	2.326660	-29.610001	423.149994	-74.900002	377.00	0.32	-0.03
3.14	28.00	32.25	4.75	8.50	0.25	0.00	0.00	0.00	0.00	0.00	0.00	0.00	0.00	0.00	0.00	0.00	-0.388672	0.584961	1.714844	9.660000	182.699997	-3.080000	736.00	-0.38	-0.05	0.00	0.00	0.00	0.00	0.00	0.00	0.00	0.00	1.25	3.75	3.50	3.50	1.75	11.50	4.00	4.75	-1.335449	0.877441	2.203125	-26.950001	450.309998	-95.760002	310.00	0.32	-0.03
3.15	28.00	32.25	5.00	9.25	0.25	0.25	0.00	0.00	0.00	0.00	0.00	0.00	0.00	0.00	0.00	0.00	-0.231934	-0.266113	1.228027	4.550000	149.449997	8.050000	749.00	-0.38	-0.05	0.00	0.00	0.00	0.00	0.00	0.00	0.00	0.00	1.00	3.50	2.50	3.00	1.25	9.75	3.25	4.00	-1.593750	0.626953	1.852051	-10.010000	458.920013	-111.300003	257.00	0.32	-0.02
3.16	28.25	33.25	5.50	9.75	0.25	0.00	0.00	0.00	0.00	0.00	0.00	0.00	0.00	0.00	0.00	0.00	-0.228027	-0.092773	1.115234	6.440000	140.419998	-7.070000	770.00	-0.38	-0.05	0.00	0.00	0.00	0.00	0.00	0.00	0.00	0.00	0.75	2.75	2.50	2.50	1.25	8.25	2.50	3.25	-1.472656	0.752441	2.543945	-2.730000	463.820007	-119.489998	216.00	0.32	-0.03
3.17	29.25	33.75	6.25	10.75	0.25	0.50	0.00	0.00	0.00	0.00	0.00	0.00	0.00	0.00	0.00	0.00	-0.251953	0.278809	1.122070	6.230000	134.889999	-14.700000	809.00	-0.38	-0.05	0.00	0.00	0.00	0.00	0.00	0.00	0.00	0.00	0.50	2.75	2.25	2.50	0.75	6.50	1.75	2.25	-1.015625	0.864746	2.682617	-3.850000	452.130005	-130.059998	178.00	0.31	-0.03
3.18	29.75	33.50	7.00	11.50	0.50	0.50	0.00	0.00	0.00	0.00	0.00	0.00	0.00	0.00	0.00	0.00	-0.250977	0.317383	1.109863	0.070000	129.990005	-10.150000	831.00	-0.37	-0.05	0.00	0.00	0.00	0.00	0.00	0.00	0.00	0.00	0.25	2.25	2.25	2.25	1.25	4.75	1.25	1.25	-1.190430	0.568848	2.043945	-9.100000	432.179993	-138.110001	145.00	0.30	-0.06
3.19	30.00	33.25	7.50	12.25	0.50	0.75	0.00	0.00	0.00	0.00	0.00	0.25	0.00	0.00	0.00	0.00	-0.269043	0.099121	1.089355	-7.700000	125.020004	-5.390000	851.00	-0.37	-0.05	0.00	0.00	0.00	0.25	0.00	0.00	0.00	0.00	0.50	2.00	2.00	1.75	1.00	2.50	0.50	0.50	0.021484	0.776855	1.669434	-15.540000	399.910004	-143.430008	107.00	0.26	-0.06
3.20	31.25	32.25	8.25	12.50	0.75	0.75	0.00	0.25	0.00	0.25	0.00	0.25	0.00	0.00	0.00	0.00	-0.251953	0.018066	1.045410	-13.230000	121.309998	-7.700000	875.00	-0.36	-0.05	0.00	0.50	0.00	0.00	0.00	0.00	0.00	0.50	0.25	1.50	1.25	1.00	0.75	1.00	0.50	0.25	1.340820	0.552734	2.502441	55.299999	218.330002	-140.210007	76.00	0.20	-0.12
3.21	30.25	33.00	8.50	13.00	0.50	1.00	0.00	0.25	0.00	0.00	0.00	0.25	0.00	0.00	0.00	0.00	-0.249023	0.071777	0.955566	-16.799999	119.629997	-12.530000	877.00	-0.37	-0.05	0.50	0.50	0.00	0.00	0.00	0.00	0.00	0.00	0.25	1.00	1.00	1.00	0.50	0.50	0.25	0.25	-0.236816	0.937988	3.443848	85.190002	162.750000	-134.680008	57.00	0.14	-0.09
3.22	30.00	32.25	8.75	13.50	0.75	1.00	0.00	0.00	0.00	0.25	0.25	0.25	0.00	0.00	0.00	0.00	-0.393066	0.614746	1.477051	-46.410000	110.879997	-11.620000	880.00	-0.36	-0.05	0.50	0.25	0.00	0.00	0.00	0.00	0.00	0.00	0.00	1.00	1.00	0.75	0.25	0.25	0.00	0.00	1.117676	0.597168	2.966309	86.590004	32.970001	-118.440002	41.00	0.00	0.00
3.23	29.50	31.75	9.25	13.25	0.75	1.00	0.25	0.25	0.00	0.50	0.00	0.25	0.00	0.00	0.00	0.00	-0.344238	0.139648	1.056152	-54.040001	93.940002	-8.540000	881.00	-0.36	-0.05	0.00	0.25	0.00	0.25	0.00	0.00	0.00	0.00	0.00	1.00	0.75	0.50	0.25	0.50	0.00	0.00	1.081543	0.405762	2.157227	45.150002	-86.099998	-88.059998	35.00	0.00	0.00
3.24	29.00	30.75	9.50	13.00	1.00	1.25	0.00	0.25	0.00	0.50	0.25	0.50	0.00	0.00	0.00	0.00	-0.239258	0.081543	1.043945	-61.250000	85.470001	-8.260000	873.00	-0.35	-0.05	0.25	0.50	0.25	0.00	0.00	0.00	0.00	0.00	0.00	1.00	0.75	1.00	0.00	0.50	0.25	0.00	0.623535	0.375977	1.732910	-12.670000	-162.750000	-54.040001	46.00	0.00	0.00
3.25	28.75	30.00	9.75	12.75	1.00	1.25	0.25	0.25	0.50	0.75	0.75	0.50	0.00	0.00	0.00	0.00	-0.321777	0.070312	1.142578	-52.430000	66.919998	-7.140000	882.00	-0.34	-0.04	0.00	0.00	0.00	0.00	0.00	0.00	0.00	0.00	0.00	0.75	0.75	0.50	0.25	0.25	0.00	0.00	0.539062	0.408203	1.466309	-55.160000	-204.889999	-27.440001	25.00	0.00	0.00
3.26	28.00	29.25	9.50	12.50	1.25	1.50	0.25	0.25	0.25	1.25	0.75	0.75	0.00	0.25	0.00	0.00	-0.315918	0.042969	1.081543	-39.340000	44.730000	-6.160000	874.00	-0.33	-0.05	0.25	0.25	0.00	0.00	0.00	0.00	0.00	0.25	0.00	0.75	0.50	0.50	0.25	0.25	0.00	0.00	0.521973	0.464844	1.190918	-67.900002	-232.820007	-5.810000	31.00	0.00	0.00
3.27	27.50	28.75	9.50	12.50	1.25	1.25	0.25	0.25	0.50	1.50	0.75	1.00	0.25	0.50	0.00	0.00	-0.292969	0.047852	1.015625	-26.740000	29.400000	-5.460000	874.00	-0.33	-0.04	0.00	0.00	0.00	0.00	0.00	0.00	0.00	0.00	0.00	0.75	0.50	0.50	0.25	0.00	0.00	0.00	0.460449	0.463379	1.041992	-56.139999	-254.869995	10.640000	20.00	0.00	0.00
3.28	26.50	27.75	9.50	11.75	1.25	1.50	0.50	0.25	0.75	1.25	1.00	0.75	0.25	0.75	0.00	0.00	-0.295410	0.077148	0.973145	-18.480000	20.299999	-4.760000	856.00	-0.32	-0.04	0.00	0.25	0.00	0.00	0.00	0.00	0.00	0.00	0.00	0.75	0.50	0.25	0.00	0.00	0.00	0.00	0.384277	0.437012	0.903320	-32.270000	-270.619995	22.820000	18.00	0.00	0.00
3.29	25.75	26.75	9.50	11.50	1.50	1.50	0.50	0.50	0.75	1.50	1.00	0.75	0.25	1.00	0.00	0.00	-0.298828	0.066406	0.958984	-14.630000	15.820000	-3.990000	847.00	-0.31	-0.04	0.25	0.00	0.00	0.00	0.00	0.00	0.00	0.00	0.00	0.75	0.50	0.25	0.00	0.00	0.00	0.00	0.308105	0.376953	0.837402	-7.490000	-279.440002	32.759998	18.00	0.00	0.00
3.30	24.75	26.00	9.25	11.25	1.25	1.25	0.50	0.50	1.50	1.75	1.00	1.00	0.25	1.00	0.00	0.00	-0.281250	0.069824	0.941406	-12.600000	13.790000	-3.850000	834.00	-0.30	-0.04	0.00	0.25	0.00	0.00	0.00	0.00	0.00	0.00	0.00	0.50	0.50	0.25	0.00	0.00	0.00	0.00	0.198242	0.313477	0.864746	8.330000	-284.269989	42.000000	15.00	0.00	0.00
3.31	24.00	25.00	9.25	10.75	1.50	1.25	0.50	0.50	1.25	1.75	1.00	1.00	0.25	1.00	0.00	0.00	-0.294922	0.072754	0.941895	-11.620000	13.160000	-3.850000	811.00	-0.30	-0.04	0.00	0.25	0.00	0.00	0.00	0.00	0.00	0.00	0.00	0.50	0.25	0.25	0.00	0.00	0.00	0.00	0.125000	0.251953	0.928223	11.270000	-289.450012	50.820000	13.00	0.00	0.00
3.32	23.25	23.75	9.00	10.25	1.50	1.25	0.50	0.75	1.25	2.00	1.25	1.00	0.25	1.25	0.00	0.00	-0.280273	0.074707	0.923340	-11.970000	13.160000	-3.920000	795.00	-0.29	-0.04	0.00	0.50	0.00	0.00	0.00	0.00	0.00	0.00	0.00	0.25	0.25	0.00	0.00	0.00	0.00	0.00	0.053711	0.213379	0.979492	4.900000	-297.709991	59.709999	10.00	0.00	0.00
3.33	22.00	22.75	9.25	9.75	1.50	1.00	0.75	0.25	1.75	2.25	1.50	1.00	0.25	1.00	0.00	0.00	-0.291992	0.063477	0.925293	-11.900000	13.160000	-3.920000	773.00	-0.28	-0.03	0.00	0.00	0.00	0.00	0.00	0.00	0.00	0.00	0.00	0.50	0.00	0.25	0.00	0.00	0.00	0.00	-0.016602	0.207520	1.042480	-4.130000	-308.070007	68.879997	8.00	0.00	0.00
3.34	21.00	21.25	9.00	9.75	1.75	1.25	0.75	0.50	2.00	2.25	1.50	1.25	0.50	1.25	0.25	0.00	-0.298828	0.059082	0.953613	-10.920000	13.510000	-3.570000	768.00	-0.27	-0.03	0.00	0.25	0.00	0.00	0.00	0.00	0.00	0.00	0.00	0.25	0.25	0.00	0.00	0.00	0.00	0.00	-0.105469	0.201172	1.079590	-10.080000	-319.269989	77.279999	8.00	0.00	0.00
3.35	20.25	20.25	8.75	9.25	1.50	1.25	1.00	0.75	2.00	2.25	1.50	1.25	0.50	1.50	0.25	0.00	-0.298828	0.047363	0.953613	-10.990000	14.000000	-3.570000	750.00	-0.26	-0.03	0.25	0.00	0.00	0.00	0.00	0.00	0.00	0.00	0.00	0.25	0.25	0.00	0.00	0.00	0.00	0.00	-0.186523	0.189453	1.098145	-11.060000	-330.049988	83.019997	8.00	0.00	0.00
3.36	19.00	19.00	8.50	9.00	1.50	1.25	1.00	0.50	2.25	2.50	1.75	1.25	0.75	2.00	0.25	0.00	-0.306152	0.049805	0.940430	-10.220000	14.910000	-3.570000	731.00	-0.24	-0.03	0.00	0.00	0.00	0.00	0.00	0.00	0.00	0.00	0.00	0.25	0.25	0.25	0.00	0.00	0.00	0.00	-0.275391	0.178711	1.137207	-6.860000	-339.290009	84.840004	8.00	0.00	0.00
3.37	17.75	17.50	8.25	8.75	1.75	1.00	1.00	0.50	2.75	3.00	1.75	1.50	0.50	1.75	0.25	0.00	-0.303711	0.058594	0.932617	-10.220000	14.700000	-3.780000	709.00	-0.23	-0.02	0.00	0.25	0.00	0.00	0.00	0.00	0.00	0.00	0.00	0.25	0.25	0.00	0.00	0.00	0.00	0.00	-0.354004	0.162598	1.173828	2.170000	-346.429993	83.510002	8.00	0.00	0.00
3.38	16.75	16.25	8.25	8.25	1.50	1.25	1.00	0.50	2.50	3.00	1.75	1.50	0.75	2.00	0.25	0.00	-0.298828	0.055664	0.923828	-10.220000	14.980000	-4.060000	683.00	-0.22	-0.02	0.00	0.00	0.00	0.00	0.00	0.00	0.00	0.00	0.00	0.00	0.00	0.25	0.00	0.00	0.00	0.00	-0.405273	0.136230	1.247070	13.580000	-351.750000	79.800003	3.00	0.00	0.00
3.39	15.75	15.00	8.00	8.00	1.75	1.25	1.50	0.50	2.75	3.00	1.75	1.75	1.00	2.25	0.25	0.25	-0.305176	0.050293	0.935059	-10.010000	15.120000	-4.340000	677.00	-0.21	-0.02	0.00	0.00	0.00	0.00	0.00	0.00	0.00	0.00	0.00	0.25	0.00	0.00	0.00	0.00	0.00	0.00	-0.469727	0.106934	1.336426	26.320000	-355.459991	73.639999	3.00	0.00	0.00
3.40	14.25	13.75	7.75	7.75	1.75	1.00	2.00	0.50	4.00	3.50	2.25	2.00	0.75	2.25	0.50	0.25	-0.295898	0.056641	0.919922	-9.870000	15.470000	-4.480000	679.00	-0.17	-0.01	0.00	0.00	0.00	0.00	0.00	0.00	0.00	0.00	0.00	0.00	0.00	0.25	0.00	0.00	0.00	0.00	-0.599609	0.031250	1.552734	47.950001	-361.339996	56.490002	3.00	0.00	0.00
3.41	13.25	12.50	7.50	7.50	2.00	1.00	2.25	0.75	3.25	3.00	2.25	2.25	1.00	2.75	0.50	0.25	-0.314941	0.047852	0.930176	-10.010000	16.170000	-4.970000	656.00	-0.17	-0.01	0.00	0.00	0.00	0.00	0.00	0.00	0.00	0.00	0.00	0.00	0.00	0.00	0.00	0.00	0.00	0.00	-0.645996	0.043457	1.672363	58.310001	-366.170013	47.180000	0.00	0.00	0.00
3.42	12.00	11.00	7.25	6.75	1.75	0.75	2.75	0.75	4.75	4.00	2.50	2.00	1.25	2.75	0.75	0.50	-0.299805	0.049316	0.917480	-10.290000	16.870001	-5.320000	657.00	-0.13	-0.00	0.25	0.00	0.00	0.00	0.00	0.00	0.00	0.00	0.00	0.00	0.00	0.00	0.00	0.00	0.00	0.00	-0.716797	0.021484	1.783691	64.400002	-370.790009	39.270000	3.00	0.00	0.00
3.43	10.75	10.25	7.00	6.50	1.75	1.00	3.25	0.75	5.25	4.25	3.00	2.25	1.25	3.25	0.75	0.25	-0.313477	0.041504	0.931641	-9.730000	17.080000	-5.250000	662.00	-0.10	0.00	0.00	0.25	0.00	0.00	0.00	0.00	0.00	0.00	0.00	0.00	0.00	0.00	0.00	0.00	0.00	0.00	-0.801758	0.037598	1.853027	64.680000	-372.959991	33.880001	2.00	0.00	0.00
3.44	9.50	8.75	6.75	6.25	1.75	1.00	3.75	0.75	5.75	5.50	3.25	3.00	1.50	3.75	0.75	0.50	-0.311523	0.044922	0.936523	-9.100000	17.360001	-5.250000	675.00	-0.07	0.01	0.00	0.75	0.00	0.00	0.00	0.00	0.00	0.00	0.00	0.00	0.00	0.00	0.00	0.00	0.00	0.00	-0.863770	0.094238	1.940430	63.700001	-372.190002	31.219999	7.00	0.00	0.00
3.45	8.25	7.75	6.25	5.50	1.75	1.00	4.25	0.75	7.00	6.50	3.75	3.00	1.75	4.25	0.75	0.50	-0.312500	0.046875	0.927734	-9.100000	17.990000	-5.600000	685.00	-0.03	0.02	0.00	0.00	0.00	0.00	0.00	0.00	0.00	0.00	0.00	0.25	0.00	0.00	0.00	0.00	0.00	0.00	-0.930176	0.129395	2.057617	65.940002	-369.250000	30.940001	3.00	0.00	0.00
3.46	7.25	6.75	6.00	5.00	1.75	1.00	4.75	0.50	8.00	7.50	4.75	3.50	2.00	4.50	0.75	0.75	-0.315918	0.039062	0.927734	-8.540000	18.410000	-5.810000	706.00	-0.00	0.03	0.00	0.25	0.00	0.00	0.00	0.00	0.00	0.00	0.00	0.00	0.00	0.00	0.00	0.00	0.00	0.00	-1.039062	0.175293	2.258789	70.769997	-365.260010	32.759998	2.00	0.00	0.00
3.47	6.50	6.00	5.25	4.75	1.75	1.00	5.00	1.00	8.75	8.00	5.75	3.50	2.00	5.00	1.25	0.75	-0.320801	0.044922	0.931152	-8.050000	19.250000	-5.880000	726.00	0.03	0.03	0.00	0.00	0.00	0.00	0.00	0.25	0.00	0.00	0.00	0.00	0.00	0.00	0.00	0.00	0.00	0.00	-1.207031	0.196289	2.544434	75.110001	-362.739990	37.590000	3.00	0.00	0.00
3.48	5.50	5.25	5.00	4.00	1.75	0.50	5.50	0.75	9.25	8.50	7.00	4.25	2.25	5.50	1.00	0.75	-0.318848	0.043945	0.934570	-7.700000	20.090000	-6.230000	733.00	0.05	0.03	0.00	0.00	0.00	0.00	0.00	0.00	0.00	0.00	0.00	0.00	0.00	0.00	0.00	0.00	0.00	0.00	-1.472168	0.204102	2.820312	75.180000	-365.679993	46.410000	0.00	0.00	0.00
3.49	4.50	5.00	4.25	3.50	1.75	0.75	5.75	1.00	10.00	9.25	7.75	5.00	2.50	6.00	1.50	1.00	-0.326172	0.041504	0.930664	-7.000000	21.910000	-6.790000	763.00	0.08	0.03	0.00	0.00	0.00	0.00	0.00	0.00	0.00	0.00	0.00	0.00	0.00	0.00	0.00	0.00	0.00	0.00	-1.819336	0.201172	3.035645	69.930000	-372.959991	58.380001	0.00	0.00	0.00
3.50	4.00	3.75	3.50	2.50	1.50	0.50	6.25	1.00	10.75	9.75	8.25	5.75	2.75	6.75	1.50	1.00	-0.329102	0.049316	0.937988	-5.670000	24.150000	-7.560000	766.00	0.11	0.03	0.00	0.25	0.00	0.00	0.00	0.00	0.00	0.00	0.00	0.00	0.00	0.00	0.00	0.00	0.00	0.00	-2.199707	0.187988	3.074219	65.309998	-382.829987	70.769997	2.00	0.00	0.00
3.51	3.25	2.50	2.75	2.00	1.25	0.25	6.50	0.75	11.50	10.50	8.50	6.00	3.00	8.00	1.75	1.00	-0.297363	0.050293	0.959961	-5.110000	27.090000	-8.400000	766.00	0.14	0.04	0.00	0.00	0.00	0.00	0.00	0.00	0.00	0.00	0.00	0.00	0.00	0.00	0.00	0.00	0.00	0.00	-2.575684	0.199707	2.841797	60.760002	-391.860016	79.660004	0.00	0.00	0.00
3.52	2.50	2.25	2.50	1.50	1.00	0.25	6.50	0.75	12.25	11.25	9.00	7.00	3.00	8.25	2.00	1.25	-0.314941	0.034180	0.936035	-6.580000	32.340000	-9.310000	784.00	0.16	0.04	0.00	0.00	0.00	0.00	0.00	0.00	0.00	0.00	0.00	0.00	0.00	0.00	0.00	0.00	0.00	0.00	-2.942871	0.250977	2.371582	49.700001	-394.450012	81.970001	0.00	0.00	0.00
3.53	1.25	2.00	2.00	1.00	0.75	0.00	7.00	1.00	13.25	11.75	9.50	7.00	3.25	8.75	2.25	1.50	-0.364746	0.053711	0.938477	-7.280000	37.029999	-10.500000	798.00	0.18	0.04	0.00	0.00	0.00	0.00	0.00	0.00	0.00	0.00	0.00	0.00	0.00	0.00	0.00	0.00	0.00	0.00	-3.251465	0.299316	1.767090	46.619999	-380.170013	79.940002	0.00	0.00	0.00
3.54	1.00	1.25	1.25	0.75	0.75	0.25	7.00	0.50	14.00	12.25	9.75	7.25	3.00	9.00	2.50	1.25	-0.312012	0.023926	0.832520	-8.820000	43.680000	-10.710000	794.00	0.20	0.05	0.00	0.00	0.00	0.00	0.00	0.00	0.00	0.00	0.00	0.00	0.00	0.00	0.00	0.00	0.00	0.00	-3.396484	0.175781	1.025879	68.180000	-346.220001	78.610001	0.00	0.00	0.00
3.55	1.00	1.00	0.75	0.00	0.25	0.00	7.25	0.50	14.75	13.00	10.25	7.50	3.00	9.50	2.75	1.50	-0.373047	0.052246	0.959961	-4.480000	82.599998	-9.800000	807.00	0.21	0.06	0.00	0.00	0.00	0.00	0.00	0.00	0.00	0.00	0.00	0.00	0.00	0.00	0.00	0.00	0.00	0.00	-3.584473	-0.216309	0.387695	113.330002	-300.230011	77.139999	0.00	0.00	0.00
3.56	0.50	0.50	0.50	0.25	0.50	0.00	7.25	0.75	15.25	13.25	10.50	7.75	3.25	10.00	2.75	1.50	-0.373047	0.052246	0.959961	-4.480000	82.599998	-9.800000	824.00	0.22	0.06	0.00	0.00	0.00	0.00	0.00	0.00	0.00	0.00	0.00	0.00	0.00	0.00	0.00	0.00	0.00	0.00	-4.117188	-0.769531	-0.023438	165.270004	-249.759995	68.739998	0.00	0.00	0.00
3.57	0.50	0.75	0.75	0.00	0.25	0.00	7.25	0.25	16.00	14.00	10.25	7.75	2.75	10.50	3.00	1.50	-0.415527	0.017578	0.948730	-5.600000	116.129997	-7.070000	834.00	0.23	0.07	0.00	0.25	0.00	0.00	0.00	0.00	0.00	0.00	0.00	0.00	0.00	0.00	0.00	0.00	0.00	0.00	-4.916016	-1.465820	-0.437012	191.940002	-198.660004	50.820000	2.00	0.00	0.00
3.58	0.75	0.25	0.50	0.25	0.25	0.00	7.25	0.25	16.75	14.25	10.50	7.50	2.75	10.75	3.25	1.50	-0.430664	0.018555	0.942383	-9.030000	132.789993	-4.830000	849.00	0.23	0.07	0.00	0.00	0.00	0.00	0.00	0.00	0.00	0.00	0.00	0.00	0.00	0.00	0.00	0.00	0.00	0.00	-5.289551	-2.057129	-0.950684	164.360001	-140.000000	26.740000	0.00	0.00	0.00
3.59	0.00	0.00	0.00	0.00	0.25	0.00	7.25	0.00	17.25	14.75	10.50	7.50	2.50	11.00	3.00	1.50	-0.475098	0.010254	0.959961	-19.460001	157.850006	-3.500000	836.00	0.24	0.08	0.00	0.00	0.00	0.00	0.00	0.00	0.00	0.00	0.00	0.00	0.25	0.00	0.00	0.00	0.00	0.00	-4.750977	-2.223633	-1.256348	61.250000	-63.840000	-13.440001	3.00	0.00	0.00
3.60	0.00	0.00	0.00	0.00	0.00	0.00	7.00	0.00	17.50	15.00	10.25	7.25	2.00	11.50	3.75	1.50	-0.492188	0.005859	0.990234	-23.870001	177.589996	-2.730000	838.00	0.25	0.08	0.50	0.75	0.00	0.00	0.00	0.00	0.00	0.00	0.00	0.00	0.00	0.00	0.00	0.00	0.00	0.00	-2.729980	0.215332	4.905762	-138.250000	200.270004	-142.940002	12.00	0.00	0.00
3.61	0.00	0.00	0.00	0.00	0.00	0.00	7.00	0.00	17.75	15.25	10.00	7.00	1.75	11.50	3.75	1.25	-0.523926	0.018066	1.046387	-27.650000	198.940002	-3.430000	835.00	0.25	0.08	1.75	2.25	0.75	1.50	0.00	0.00	0.00	0.00	0.00	0.00	0.00	0.00	0.00	0.00	0.00	0.00	2.178711	0.677246	-0.075195	-105.349998	198.169998	-142.729996	64.00	-0.36	-0.07
3.62	0.00	0.00	0.00	0.00	0.00	0.00	6.75	0.00	17.75	15.00	9.75	6.50	1.25	11.75	4.00	1.25	-0.577148	0.019043	1.046875	-34.509998	223.509995	-6.860000	821.00	0.25	0.09	3.25	4.75	1.50	3.25	0.25	0.00	0.00	0.00	0.00	0.00	0.00	0.00	0.00	0.00	0.00	0.00	0.777832	0.272461	0.886719	-164.430008	165.270004	-147.630005	132.00	-0.35	-0.08
3.63	0.00	0.25	0.00	0.00	0.00	0.00	6.75	0.00	17.25	15.00	9.50	6.00	1.00	11.50	4.50	1.25	-0.645020	-0.025879	1.088379	-44.799999	247.029999	-11.970000	810.00	0.25	0.09	6.25	7.25	1.75	4.50	0.00	0.00	0.00	0.00	0.00	0.00	0.00	0.00	0.00	0.00	0.00	0.00	-0.258789	0.838379	-0.151367	-225.750000	180.389999	-145.110001	200.00	-0.37	-0.07
3.64	0.00	0.00	0.00	0.00	0.00	0.00	6.50	0.00	17.25	14.75	9.00	5.50	0.50	12.00	4.50	1.25	-0.701172	0.134766	1.169922	-49.000000	269.079987	-16.170000	791.00	0.25	0.10	8.75	10.00	2.25	5.50	0.00	0.00	0.00	0.00	0.00	0.00	0.00	0.00	0.00	0.00	0.00	0.00	-0.652832	1.674805	0.997070	-216.440002	242.830002	-87.500000	268.00	-0.37	-0.06
3.65	0.00	0.00	0.00	0.00	0.00	0.00	6.50	0.00	16.25	14.00	8.00	4.75	0.00	12.00	4.25	1.25	-0.728516	0.121582	1.136719	-46.410000	290.220001	-23.660000	744.00	0.25	0.11	12.75	13.75	3.50	8.00	0.00	0.00	0.00	0.00	0.00	0.00	0.00	0.00	0.00	0.00	0.00	0.00	-0.733398	1.012207	1.760742	-118.020004	273.420013	3.990000	385.00	-0.37	-0.06
3.66	0.00	0.00	0.00	0.00	0.00	0.00	6.00	0.00	15.25	13.25	7.75	4.00	0.00	12.25	4.00	1.25	-0.827148	0.068359	1.219727	-46.759998	315.070007	-34.860001	705.00	0.26	0.11	17.25	17.25	4.50	9.00	0.00	0.00	0.00	0.00	0.00	0.00	0.00	0.00	0.00	0.00	0.00	0.00	-0.501465	-0.213867	2.315430	-48.439999	285.320007	57.820000	486.00	-0.37	-0.05
3.67	0.00	0.00	0.00	0.00	0.00	0.00	5.75	0.00	13.75	12.00	6.00	3.25	0.00	12.00	3.75	1.25	-1.009766	-0.195312	1.463379	-44.240002	341.179993	-43.750000	637.00	0.26	0.12	20.25	19.75	6.75	10.25	0.00	0.00	0.00	0.00	0.00	0.00	0.00	0.00	0.00	0.00	0.00	0.00	-0.650391	-0.955078	2.445801	-15.260000	281.890015	55.650002	579.00	-0.37	-0.04
3.68	0.00	0.00	0.00	0.00	0.00	0.00	5.25	0.00	12.25	10.75	4.50	2.00	0.00	12.00	3.75	1.00	-1.434082	-0.303711	2.130371	-46.689999	366.660004	-41.650002	567.00	0.26	0.13	22.25	21.00	8.25	11.25	0.00	0.75	0.00	0.00	0.00	0.00	0.00	0.25	0.00	0.00	0.00	0.00	-0.794434	-0.809570	2.407227	21.350000	261.519989	25.690001	650.00	-0.36	-0.05
3.69	0.00	0.00	0.00	0.00	0.00	0.00	4.75	0.00	10.50	9.75	3.25	2.25	0.00	11.75	3.50	0.75	-1.513672	0.229004	2.571777	-47.180000	390.600006	-27.370001	509.00	0.27	0.13	23.00	21.25	9.00	12.25	0.00	0.25	0.00	0.25	0.00	0.00	0.00	0.50	0.50	0.00	0.00	0.00	-0.565918	0.069824	1.955078	36.889999	228.479996	-3.220000	685.00	-0.35	-0.05
3.70	0.00	0.00	0.00	0.00	0.00	0.00	3.75	0.00	9.00	8.50	2.25	1.50	0.00	11.25	3.00	0.50	-1.476074	0.482910	1.894531	-37.730000	416.149994	-31.360001	432.00	0.27	0.13	21.75	20.75	9.50	13.25	0.25	0.50	0.00	0.25	0.00	0.00	0.00	0.75	0.25	0.00	0.00	0.00	-0.404785	0.555176	1.493652	39.970001	198.660004	-1.680000	690.00	-0.35	-0.05
3.71	0.00	0.00	0.00	0.00	0.00	0.00	2.75	0.00	7.75	7.75	1.75	1.00	0.00	10.25	2.50	0.75	-1.688965	0.729980	1.997070	-14.630000	445.690002	-48.580002	370.00	0.28	0.13	20.75	20.50	10.00	13.75	0.25	1.25	0.00	0.50	0.00	0.00	0.00	0.75	0.75	0.00	0.00	0.00	-0.322754	0.226074	1.163574	36.820000	178.850006	11.340000	704.00	-0.34	-0.06
