# time	left pressure 1[N/cm²]	left pressure 2[N/cm²]	left pressure 3[N/cm²]	left pressure 4[N/cm²]	left pressure 5[N/cm²]	left pressure 6[N/cm²]	left pressure 7[N/cm²]	left pressure 8[N/cm²]	left pressure 9[N/cm²]	left pressure 10[N/cm²]	left pressure 11[N/cm²]	left pressure 12[N/cm²]	left pressure 13[N/cm²]	left pressure 14[N/cm²]	left pressure 15[N/cm²]	left pressure 16[N/cm²]	left acceleration X[g]	left acceleration Y[g]	left acceleration Z[g]	left angular X[dps]	left angular Y[dps]	left angular Z[dps]	left total force[N]	left center of pressure X[%]	left center of pressure Y[%]	right pressure 1[N/cm²]	right pressure 2[N/cm²]	right pressure 3[N/cm²]	right pressure 4[N/cm²]	right pressure 5[N/cm²]	right pressure 6[N/cm²]	right pressure 7[N/cm²]	right pressure 8[N/cm²]	right pressure 9[N/cm²]	right pressure 10[N/cm²]	right pressure 11[N/cm²]	right pressure 12[N/cm²]	right pressure 13[N/cm²]	right pressure 14[N/cm²]	right pressure 15[N/cm²]	right pressure 16[N/cm²]	right acceleration X[g]	right acceleration Y[g]	right acceleration Z[g]	right angular X[dps]	right angular Y[dps]	right angular Z[dps]	right total force[N]	right center of pressure X[%]	right center of pressure Y[%]
0.00																										1.25	0.25	1.25	0.50	3.25	2.25	3.75	7.00	1.75	2.75	2.25	4.00	9.00	2.50	2.00	6.25	-0.133789	0.104004	0.973633	-4.060000	-0.070000	-0.420000	578.00	0.10	-0.16
0.01																										1.25	0.50	1.25	0.50	3.00	2.25	3.75	7.00	1.75	2.75	2.50	4.00	9.00	2.25	2.00	6.25	-0.130371	0.100098	0.977051	-4.130000	-0.280000	-0.350000	578.00	0.10	-0.16
0.02	1.50	1.25	2.00	0.50	3.75	0.50	2.75	5.00	3.00	3.00	1.75	2.75	6.75	3.00	1.00	3.25	-0.169922	0.084473	0.964355	-2.730000	4.550000	0.980000	490.00	0.08	-0.10	1.25	0.50	1.25	0.50	3.25	2.25	3.75	7.00	1.75	3.25	2.00	4.00	9.25	2.25	1.75	6.25	-0.127930	0.107422	0.976074	-4.060000	-0.140000	-0.350000	581.00	0.10	-0.16
0.03	1.00	1.00	2.00	0.00	3.75	0.50	2.75	5.00	2.75	2.75	2.00	3.00	6.75	3.25	0.75	3.25	-0.171875	0.089844	0.955566	-2.520000	4.480000	0.910000	475.00	0.09	-0.10	1.00	0.75	1.00	0.50	3.25	2.25	3.75	7.00	2.00	2.75	2.50	3.75	9.25	2.50	1.75	6.00	-0.127930	0.102539	0.987305	-4.060000	0.070000	-0.420000	579.00	0.10	-0.16
0.04	0.75	0.00	2.00	0.00	3.50	0.00	2.75	4.75	2.75	3.00	1.75	2.50	6.50	3.25	0.75	3.50	-0.169434	0.083008	0.958008	-2.660000	4.830000	0.770000	442.00	0.11	-0.10	0.75	0.50	0.50	0.50	3.00	2.00	3.75	7.00	1.75	3.00	2.25	3.75	9.00	2.25	2.00	6.25	-0.127930	0.099121	0.972656	-3.640000	0.490000	-0.210000	558.00	0.11	-0.16
0.05	0.50	0.00	1.50	0.00	3.50	0.25	3.00	4.75	2.75	2.75	2.00	2.75	6.75	3.50	0.75	3.50	-0.169922	0.080566	0.951660	-2.800000	4.760000	0.840000	448.00	0.12	-0.10	0.75	0.50	1.25	0.75	3.25	2.25	3.75	7.00	1.75	2.75	2.50	4.00	9.25	2.50	1.50	6.25	-0.127930	0.099121	0.972656	-3.640000	0.490000	-0.210000	578.00	0.10	-0.16
0.06																										1.00	0.50	1.25	0.50	3.25	2.00	3.75	7.00	1.75	3.00	2.50	4.00	9.25	2.50	2.00	6.25	-0.127441	0.099121	0.967773	-3.220000	0.350000	-0.140000	583.00	0.10	-0.16
0.07	0.75	0.00	1.50	0.25	3.25	0.25	2.75	4.75	2.75	2.75	2.25	2.50	6.75	3.50	0.75	3.50	-0.171387	0.083008	0.959473	-2.800000	4.760000	0.840000	447.00	0.12	-0.10	0.50	0.50	0.75	0.75	3.00	2.00	3.75	7.00	1.75	2.75	2.50	4.00	9.00	2.50	1.75	6.25	-0.130371	0.102539	0.976074	-2.940000	0.490000	-0.280000	563.00	0.11	-0.16
0.08	0.00	0.00	1.25	0.00	3.50	0.00	3.00	4.50	2.75	2.75	2.00	2.75	6.50	3.25	0.50	3.25	-0.169434	0.082031	0.958496	-2.380000	4.760000	0.910000	423.00	0.13	-0.10	0.00	0.00	1.25	0.75	2.75	1.75	3.75	6.75	1.50	2.75	2.25	3.75	8.75	2.50	1.50	6.25	-0.133301	0.104980	0.973145	-3.080000	0.700000	-0.350000	534.00	0.11	-0.17
0.09	0.25	0.00	1.50	0.00	3.50	0.00	2.75	4.50	2.75	2.75	2.00	2.50	6.75	3.50	0.75	2.75	-0.170410	0.081543	0.955078	-2.170000	4.830000	0.980000	427.00	0.13	-0.10	1.00	0.50	1.25	0.50	2.75	2.00	3.75	7.00	1.75	2.75	2.50	3.75	9.50	2.50	1.75	6.25	-0.127441	0.106445	0.975098	-3.010000	0.980000	-0.280000	571.00	0.10	-0.16
0.10	0.00	0.00	0.00	0.00	3.00	0.00	2.75	3.25	1.50	2.00	1.25	1.75	5.75	2.50	0.00	2.50	-0.173340	0.081543	0.962402	-2.310000	4.900000	0.910000	306.00	0.13	-0.11	1.00	0.50	1.00	0.50	3.00	2.00	3.75	7.00	1.75	2.75	2.25	4.00	9.25	2.75	2.00	6.25	-0.136719	0.102051	0.978027	-2.940000	1.190000	-0.420000	574.00	0.11	-0.16
0.11	0.00	0.00	0.00	0.00	2.75	0.00	2.75	3.25	1.75	2.00	1.25	1.75	6.00	2.50	0.25	2.75	-0.173340	0.083008	0.959961	-2.170000	4.970000	0.980000	314.00	0.14	-0.11	1.00	0.50	1.00	0.50	3.00	2.00	3.75	7.00	2.00	3.25	2.25	4.00	9.50	2.25	2.00	6.25	-0.130371	0.104492	0.975098	-2.940000	1.260000	-0.630000	581.00	0.11	-0.16
0.12	0.00	0.00	0.00	0.00	2.50	0.00	2.75	3.25	1.50	2.00	1.00	1.75	5.75	2.50	0.00	2.75	-0.172363	0.085449	0.954590	-2.030000	4.690000	0.910000	299.00	0.14	-0.11	0.75	0.50	1.25	0.50	3.00	2.00	3.75	6.75	2.00	3.00	2.50	4.00	9.50	2.75	2.00	6.25	-0.131348	0.105469	0.976562	-3.080000	1.400000	-0.560000	581.00	0.11	-0.16
0.13	0.00	0.00	0.00	0.00	2.75	0.00	2.75	3.25	1.75	2.25	1.25	1.75	5.50	2.50	0.00	2.75	-0.172363	0.085449	0.958984	-2.380000	5.110000	0.770000	309.00	0.14	-0.10	0.75	0.50	1.00	0.50	3.00	2.25	3.75	7.00	1.75	2.75	2.50	3.75	9.50	2.75	1.75	6.25	-0.131348	0.102539	0.979004	-3.220000	1.330000	-0.490000	573.00	0.11	-0.16
0.14	0.00	0.00	0.00	0.00	2.75	0.00	2.75	3.00	1.50	2.00	1.25	1.75	6.00	2.50	0.00	2.50	-0.170898	0.085938	0.953125	-2.380000	5.110000	0.910000	301.00	0.14	-0.11	0.75	0.50	1.00	0.75	3.00	2.00	3.75	6.75	1.50	2.75	2.25	4.00	9.50	2.75	1.75	6.50	-0.131836	0.103027	0.968750	-3.430000	1.050000	-0.420000	567.00	0.11	-0.16
0.15	0.00	0.00	0.00	0.00	2.50	0.00	2.75	3.25	1.00	2.00	1.25	1.75	5.75	2.50	0.00	2.75	-0.173828	0.086426	0.954590	-2.380000	4.970000	0.840000	295.00	0.14	-0.12	0.50	0.50	1.00	0.50	3.00	2.00	3.75	6.75	1.75	3.00	2.25	4.00	9.50	2.50	1.75	6.25	-0.131348	0.102051	0.968262	-3.570000	1.050000	-0.420000	564.00	0.11	-0.16
0.16	0.00	0.00	0.00	0.00	2.50	0.00	3.00	3.50	1.25	2.25	1.25	1.75	6.00	3.00	0.00	3.00	-0.167480	0.084473	0.955566	-2.170000	5.040000	0.980000	318.00	0.14	-0.12	1.00	0.25	1.00	0.50	3.00	1.75	4.00	6.75	1.75	2.75	2.25	4.00	9.50	2.75	2.00	6.50	-0.134766	0.105469	0.975098	-3.710000	0.910000	-0.420000	572.00	0.11	-0.16
0.17	0.00	0.00	0.00	0.00	2.50	0.00	2.75	3.25	1.50	2.00	1.25	1.75	5.75	2.75	0.00	2.75	-0.174316	0.074707	0.952637	-1.610000	4.900000	1.120000	304.00	0.14	-0.11	0.50	0.50	1.25	0.50	2.75	1.50	3.75	6.75	2.25	3.00	2.25	4.00	9.50	2.75	2.00	6.50	-0.134766	0.101562	0.978027	-3.850000	0.910000	-0.490000	572.00	0.12	-0.15
0.18	0.00	0.00	0.00	0.00	2.50	0.00	3.00	3.00	1.50	2.25	1.50	2.00	5.75	2.50	0.00	2.75	-0.174805	0.078613	0.959961	-1.610000	4.970000	1.120000	310.00	0.14	-0.11	0.75	0.75	1.25	0.50	2.75	1.75	4.00	6.75	1.75	2.75	2.50	4.00	9.25	2.50	2.00	6.25	-0.136230	0.105469	0.971680	-4.060000	0.840000	-0.490000	571.00	0.11	-0.16
0.19	0.00	0.00	0.00	0.00	2.75	0.00	3.00	3.25	1.75	2.25	1.50	2.00	6.00	2.75	0.00	3.00	-0.173828	0.083008	0.954590	-1.820000	4.970000	1.120000	327.00	0.14	-0.11	1.00	0.25	1.00	0.50	2.75	1.75	4.00	6.75	2.00	3.00	2.25	4.00	9.25	2.75	1.75	6.50	-0.133789	0.103516	0.978027	-4.270000	0.560000	-0.420000	570.00	0.11	-0.15
0.20	0.00	0.00	0.00	0.00	2.50	0.00	3.00	3.25	1.50	2.25	1.25	2.00	6.00	3.00	0.00	3.00	-0.173828	0.084473	0.954102	-2.380000	4.760000	1.050000	320.00	0.15	-0.11	1.00	0.25	1.00	0.50	3.00	1.75	4.00	6.75	1.75	2.50	2.50	4.00	9.50	2.75	1.75	6.50	-0.134766	0.105957	0.979980	-4.200000	0.700000	-0.350000	569.00	0.11	-0.16
0.21	0.00	0.00	0.00	0.00	2.50	0.00	2.75	3.25	1.75	2.00	1.50	1.75	6.25	2.50	0.00	3.00	-0.167969	0.083496	0.957520	-2.380000	4.690000	1.190000	314.00	0.14	-0.12	0.75	0.50	0.75	0.25	3.00	1.75	4.00	7.00	1.75	3.00	2.25	4.00	9.25	3.00	2.00	6.25	-0.130371	0.102051	0.972656	-3.780000	0.350000	-0.140000	571.00	0.12	-0.16
0.22	0.00	0.00	0.00	0.00	2.75	0.00	3.00	3.25	1.50	2.25	1.50	2.00	6.00	2.75	0.25	3.00	-0.170410	0.087402	0.958008	-2.380000	4.410000	1.050000	326.00	0.14	-0.11	0.75	0.50	0.75	0.50	2.75	1.75	4.00	6.75	1.75	2.75	2.50	4.00	9.50	3.00	1.75	6.75	-0.131348	0.103516	0.970703	-3.990000	0.420000	-0.140000	569.00	0.12	-0.16
0.23	0.00	0.00	0.00	0.00	2.50	0.00	3.00	3.50	1.50	2.25	1.50	2.25	6.00	3.00	0.00	3.00	-0.173828	0.079102	0.960938	-2.590000	4.480000	0.910000	330.00	0.15	-0.11	1.00	0.50	1.00	0.50	2.75	1.50	4.00	6.75	1.75	3.00	2.25	3.75	9.25	3.00	1.75	6.50	-0.133789	0.103516	0.975586	-4.410000	0.490000	-0.350000	565.00	0.11	-0.15
0.24	0.00	0.00	0.00	0.00	2.50	0.00	2.75	3.25	1.50	2.50	1.50	2.25	6.25	3.00	0.00	3.00	-0.167969	0.082031	0.953125	-2.660000	4.410000	1.050000	327.00	0.15	-0.12	0.75	0.75	1.00	0.50	2.75	1.50	4.00	6.75	1.75	3.00	2.25	3.75	9.25	3.00	1.75	6.50	-0.136719	0.097656	0.974609	-4.690000	0.560000	-0.280000	565.00	0.11	-0.15
0.25	0.00	0.00	0.00	0.00	2.50	0.00	3.00	3.50	1.75	2.25	1.50	2.25	6.25	3.00	0.00	3.25	-0.175781	0.080566	0.954102	-2.870000	4.690000	0.980000	337.00	0.15	-0.11	1.00	0.50	1.00	0.50	3.00	1.50	4.00	6.75	1.75	2.75	2.25	4.00	9.50	2.75	1.75	6.50	-0.138672	0.103027	0.975586	-4.620000	0.490000	-0.000000	569.00	0.11	-0.16
0.26	0.00	0.00	0.00	0.00	2.50	0.00	3.00	3.50	1.50	2.25	1.50	2.25	6.00	2.50	0.00	3.00	-0.171387	0.084473	0.959473	-2.870000	4.760000	1.120000	325.00	0.14	-0.12	0.75	0.50	1.25	0.25	2.75	1.50	4.00	7.00	1.25	2.75	2.25	3.75	9.25	3.25	2.00	6.50	-0.133789	0.100098	0.979980	-4.480000	0.350000	0.070000	562.00	0.11	-0.16
0.27	0.00	0.00	0.00	0.00	2.50	0.00	2.75	3.50	1.50	2.50	1.75	2.00	6.00	2.75	0.00	3.25	-0.171387	0.079102	0.958496	-2.800000	4.550000	1.330000	328.00	0.15	-0.12	1.00	0.50	0.75	0.50	3.00	1.50	4.00	6.75	2.00	3.00	2.25	3.75	9.25	3.00	2.00	6.50	-0.132324	0.102051	0.979492	-4.340000	0.000000	0.210000	572.00	0.11	-0.15
0.28	0.00	0.00	0.00	0.00	2.50	0.00	3.00	3.50	1.75	2.50	1.50	2.25	6.25	2.50	0.25	3.25	-0.177246	0.081543	0.957031	-2.730000	4.480000	1.330000	338.00	0.15	-0.12	1.00	0.00	1.00	0.50	3.00	1.25	4.00	6.75	1.75	2.75	2.25	3.75	9.25	3.00	2.00	6.50	-0.139648	0.099121	0.977051	-4.060000	-0.280000	0.350000	560.00	0.12	-0.15
0.29	0.00	0.00	0.00	0.00	2.75	0.00	3.00	3.50	2.00	2.50	1.50	2.25	6.00	2.75	0.00	3.00	-0.165039	0.079590	0.957520	-2.450000	3.990000	1.470000	341.00	0.14	-0.11	0.75	0.50	1.00	0.25	2.75	1.75	4.00	6.75	2.25	3.00	2.25	3.75	9.25	2.75	2.00	6.25	-0.139648	0.102051	0.978516	-3.780000	-0.420000	0.560000	569.00	0.12	-0.15
0.30	0.00	0.00	0.00	0.00	2.50	0.00	2.75	3.50	1.75	2.25	1.75	2.50	6.25	2.50	0.00	3.50	-0.170410	0.080078	0.953125	-2.170000	3.640000	1.470000	336.00	0.15	-0.12	1.00	0.25	1.25	0.50	3.00	1.50	4.00	6.75	1.75	3.00	2.25	3.75	9.25	3.00	1.75	6.25	-0.134766	0.101562	0.975098	-3.360000	-0.910000	0.700000	567.00	0.11	-0.15
0.31	0.00	0.00	0.00	0.00	2.75	0.00	3.00	3.50	1.75	2.50	1.50	2.00	6.25	2.50	0.25	3.25	-0.170410	0.088379	0.961914	-2.240000	3.640000	1.260000	339.00	0.14	-0.11	0.75	0.50	1.00	0.50	3.00	1.75	4.00	6.75	1.50	2.75	2.00	3.75	9.25	3.00	1.75	6.25	-0.130859	0.099609	0.977051	-3.010000	-1.470000	0.840000	558.00	0.11	-0.16
0.32	0.00	0.00	0.00	0.00	2.50	0.00	3.00	3.75	1.50	2.25	1.75	2.25	6.50	2.50	0.50	3.25	-0.169922	0.083008	0.953125	-2.870000	3.500000	1.330000	344.00	0.15	-0.13	1.00	0.50	1.25	0.25	3.00	1.50	4.00	6.75	1.75	2.50	2.25	3.50	9.25	2.50	1.50	6.25	-0.134766	0.104980	0.974609	-3.150000	-2.450000	1.260000	551.00	0.10	-0.15
0.33	1.25	0.75	2.00	0.25	5.00	0.75	3.50	6.00	3.50	3.75	2.75	3.75	8.75	4.25	1.50	4.00	-0.170898	0.083008	0.952637	-3.290000	3.500000	1.400000	606.00	0.10	-0.10	1.00	0.50	1.00	0.25	3.00	1.75	4.00	6.75	1.50	2.75	2.00	3.50	9.25	2.50	1.50	6.00	-0.134766	0.104980	0.974609	-3.150000	-2.450000	1.260000	546.00	0.10	-0.16
0.34	1.50	0.50	1.50	0.00	3.75	0.00	3.25	5.25	2.25	2.75	1.75	3.00	8.25	4.00	1.25	4.25	-0.174316	0.081543	0.955078	-3.570000	3.500000	1.330000	499.00	0.11	-0.11	1.00	0.50	1.25	0.75	3.25	1.50	4.00	6.75	1.50	2.50	2.00	3.25	9.00	2.25	1.50	6.00	-0.129395	0.097656	0.977051	-3.360000	-3.430000	1.190000	544.00	0.09	-0.16
0.35	1.50	0.50	2.25	0.75	4.75	0.75	3.50	6.25	3.50	3.50	2.75	3.50	8.50	3.75	0.75	3.50	-0.168945	0.079590	0.962402	-3.850000	3.220000	1.470000	592.00	0.09	-0.10	1.00	0.50	1.00	0.50	3.00	1.75	4.00	6.75	1.00	2.75	2.00	3.50	9.25	2.25	1.50	5.75	-0.133789	0.101562	0.972168	-3.500000	-3.780000	1.190000	538.00	0.10	-0.16
0.36	0.00	0.00	0.50	0.00	4.00	0.00	3.25	5.50	2.25	3.00	2.00	2.50	8.00	3.00	0.50	3.50	-0.173828	0.082520	0.953125	-3.920000	3.150000	1.540000	447.00	0.13	-0.13	1.00	0.50	1.25	0.50	3.25	2.00	4.00	6.75	1.75	2.25	1.75	3.25	9.25	2.00	1.50	5.75	-0.135254	0.103027	0.975098	-3.570000	-3.990000	1.260000	544.00	0.09	-0.16
0.37	0.00	0.00	0.25	0.00	3.75	0.00	3.25	5.25	2.25	2.75	2.00	2.75	8.00	2.50	0.25	3.50	-0.172852	0.083496	0.960449	-3.990000	2.870000	1.610000	429.00	0.13	-0.13	1.25	0.50	1.25	0.50	3.25	2.00	4.00	6.75	1.50	2.25	1.75	3.25	9.00	2.00	1.25	5.50	-0.130859	0.100586	0.977051	-3.640000	-4.060000	1.400000	536.00	0.08	-0.16
0.38	1.00	0.75	1.75	0.00	4.75	0.00	3.50	6.00	3.00	3.25	2.25	2.75	8.00	3.00	0.75	3.50	-0.169922	0.077637	0.962402	-3.920000	2.870000	1.820000	525.00	0.10	-0.10	0.75	0.25	1.25	0.75	3.50	2.00	4.00	7.00	1.00	2.00	1.50	3.00	8.75	1.75	1.25	5.50	-0.136719	0.101562	0.982422	-3.290000	-3.920000	1.610000	518.00	0.08	-0.17
0.39	1.00	1.00	2.25	0.75	5.00	0.75	3.75	6.50	3.25	3.50	3.00	3.75	8.50	3.50	1.00	4.00	-0.172852	0.083008	0.958496	-3.780000	2.940000	1.960000	608.00	0.09	-0.11	1.50	0.75	1.25	0.75	3.50	2.25	4.00	6.75	1.50	2.00	1.75	2.75	8.75	1.75	1.25	5.25	-0.139160	0.096680	0.982910	-2.940000	-3.920000	1.890000	536.00	0.07	-0.16
0.40	1.00	0.75	2.25	0.75	5.25	0.50	3.50	6.50	3.25	3.50	2.75	3.25	8.50	3.25	1.00	3.25	-0.170410	0.082031	0.954102	-3.570000	2.940000	2.030000	586.00	0.09	-0.11	1.50	0.50	1.75	0.75	3.50	2.00	4.00	7.00	1.00	2.00	1.50	2.75	8.75	1.75	1.25	5.25	-0.135254	0.096191	0.967773	-2.590000	-4.410000	2.380000	531.00	0.07	-0.16
0.41	0.00	0.00	0.25	0.00	4.00	0.00	3.50	5.25	1.50	2.50	1.50	2.00	7.75	2.25	0.50	3.25	-0.165527	0.079590	0.954590	-3.290000	2.450000	2.100000	405.00	0.12	-0.13	1.50	0.75	1.75	1.00	3.75	2.50	4.25	6.75	1.25	2.00	1.50	2.75	8.75	1.50	1.25	5.00	-0.110840	0.094238	0.947266	-3.360000	-4.900000	2.310000	545.00	0.06	-0.15
0.42	1.50	1.00	2.50	1.25	5.25	1.25	3.75	6.25	2.00	2.50	1.75	3.00	7.50	2.00	0.25	3.25	-0.161621	0.088379	0.936035	-3.430000	1.470000	2.100000	539.00	0.04	-0.12	1.25	0.75	1.75	1.00	4.00	2.50	4.25	7.00	1.50	2.00	1.50	2.75	8.75	1.50	1.50	5.25	-0.099121	0.107910	0.957031	-5.180000	-5.250000	1.540000	557.00	0.06	-0.15
0.43	0.00	0.00	0.25	0.00	4.25	0.00	3.50	5.75	1.75	2.75	2.00	2.50	7.75	2.00	0.25	3.25	-0.159180	0.087891	0.955078	-4.410000	0.840000	1.890000	429.00	0.12	-0.14	1.25	0.50	1.00	0.50	4.75	4.00	4.25	7.25	1.00	2.25	1.25	3.50	8.50	1.75	1.25	5.00	-0.101562	0.108887	0.971191	-8.680000	-3.850000	0.280000	568.00	0.06	-0.16
0.44	0.00	0.00	1.00	0.00	4.50	0.00	3.50	5.50	1.75	2.75	2.00	2.50	7.75	2.00	0.25	3.00	-0.165527	0.088379	0.960449	-4.970000	1.120000	1.540000	436.00	0.11	-0.13	1.25	0.50	1.00	0.25	4.25	1.75	4.25	7.00	1.25	2.00	2.00	3.25	8.50	2.00	1.25	5.25	-0.116211	0.097168	0.987305	-9.730000	-2.100000	-0.490000	538.00	0.08	-0.15
0.45	0.00	0.00	0.50	0.00	4.50	0.00	3.75	6.75	3.00	3.50	2.50	2.50	7.50	2.00	0.00	3.00	-0.159668	0.083496	0.969727	-4.970000	2.380000	1.330000	481.00	0.11	-0.12	1.25	0.50	1.75	0.75	5.00	2.50	4.25	7.00	1.25	1.75	1.50	3.25	8.75	1.50	1.00	5.25	-0.117188	0.095703	0.996582	-8.400000	-0.700000	-0.560000	557.00	0.06	-0.15
0.46	0.50	0.50	2.00	0.00	5.00	0.50	3.75	6.25	2.50	3.00	2.25	2.75	8.25	2.75	0.50	3.50	-0.166016	0.075684	0.965332	-4.200000	3.780000	1.120000	524.00	0.09	-0.12	0.75	0.50	1.50	0.50	4.50	2.00	4.25	7.00	1.75	2.50	2.00	3.25	8.75	2.00	1.25	5.25	-0.121582	0.097656	0.985352	-4.200000	1.750000	-0.700000	562.00	0.08	-0.15
0.47	0.75	0.00	1.75	0.50	5.25	1.00	3.75	6.25	2.75	3.50	2.75	3.50	8.75	3.50	1.00	3.75	-0.165527	0.083008	0.972168	-2.870000	5.040000	1.120000	576.00	0.10	-0.11	0.75	0.50	1.50	0.75	4.75	2.50	4.25	7.25	1.75	2.50	2.00	3.25	9.00	2.50	1.75	5.50	-0.128418	0.099121	0.987305	-2.800000	2.520000	-0.770000	593.00	0.08	-0.15
0.48	0.75	0.00	1.50	0.00	5.00	0.25	3.75	6.25	2.75	3.00	2.50	3.00	8.25	3.25	0.75	3.50	-0.165039	0.085449	0.965820	-1.680000	5.880000	1.190000	529.00	0.11	-0.11	1.00	0.50	1.50	0.75	5.00	2.75	4.25	7.25	2.00	2.75	2.00	3.50	9.00	2.50	1.75	5.75	-0.126465	0.101074	0.985840	-1.960000	3.080000	-0.980000	612.00	0.08	-0.14
0.49	0.25	0.00	1.00	0.00	4.75	0.00	3.75	6.00	2.00	2.50	1.75	2.25	7.50	2.00	0.00	3.25	-0.166504	0.088867	0.959473	-0.420000	7.140000	1.190000	445.00	0.10	-0.12	1.00	1.00	1.75	1.00	5.00	2.25	4.25	7.25	2.00	2.75	1.75	3.00	8.75	1.75	1.00	5.25	-0.130371	0.099121	0.977539	-1.050000	3.430000	-0.770000	588.00	0.06	-0.14
0.50	0.25	0.00	1.50	0.00	5.00	1.25	3.75	6.75	2.75	3.25	2.50	3.25	8.50	3.50	1.00	3.50	-0.165039	0.079102	0.955078	-0.000000	7.070000	1.260000	557.00	0.11	-0.12	0.50	0.75	1.75	0.75	4.50	2.25	4.25	7.00	1.50	2.00	1.50	2.75	8.50	1.75	1.00	5.25	-0.124512	0.100098	0.981445	-0.490000	3.360000	-0.420000	543.00	0.07	-0.15
0.51	1.50	1.00	2.50	0.75	5.25	1.25	3.50	5.75	2.00	2.75	2.00	3.00	8.00	2.50	0.25	3.25	-0.167480	0.085449	0.960938	0.070000	6.860000	1.330000	536.00	0.05	-0.12	1.25	0.50	1.50	0.50	4.50	2.25	4.25	7.25	1.50	2.25	1.50	2.75	9.00	1.75	1.25	5.25	-0.127930	0.097168	0.974121	-0.490000	3.290000	-0.350000	557.00	0.07	-0.15
0.52	0.00	0.00	0.50	0.00	4.25	0.00	3.50	5.50	1.25	2.25	1.50	2.25	7.75	2.25	0.00	2.75	-0.166992	0.078613	0.950684	-0.280000	6.510000	1.190000	403.00	0.11	-0.14	1.00	0.75	1.25	0.50	4.50	2.25	4.25	7.00	1.50	2.25	1.50	2.75	9.00	2.00	1.00	5.25	-0.125000	0.101562	0.980957	-0.910000	2.940000	-0.420000	549.00	0.07	-0.15
0.53	0.00	0.00	0.50	0.00	4.00	0.00	3.50	5.50	1.50	2.25	1.50	2.00	7.50	2.00	0.25	2.75	-0.173340	0.080078	0.954102	-0.840000	6.090000	1.260000	399.00	0.11	-0.14	1.00	0.50	0.75	0.25	4.00	1.50	4.25	7.25	1.50	1.75	1.25	2.50	8.75	2.50	1.50	5.50	-0.133789	0.100098	0.969727	-1.120000	2.520000	-0.140000	525.00	0.09	-0.15
0.54	0.00	0.00	0.00	0.00	3.75	0.00	3.50	5.25	1.25	2.00	1.25	2.25	7.25	2.00	0.00	2.75	-0.171875	0.083008	0.956543	-1.260000	5.530000	1.190000	374.00	0.11	-0.14	1.25	0.50	1.25	0.00	4.25	2.00	4.25	7.00	1.50	2.00	1.25	2.75	9.25	2.00	1.00	5.25	-0.136719	0.100098	0.964844	-1.470000	1.750000	-0.000000	534.00	0.08	-0.15
0.55	0.00	0.00	0.50	0.00	4.00	0.00	3.50	5.50	1.50	2.50	1.75	2.25	7.50	2.00	0.00	2.75	-0.172852	0.086426	0.957520	-1.470000	5.040000	1.190000	405.00	0.11	-0.14	0.75	0.50	1.25	0.75	4.25	2.00	4.25	7.00	1.25	2.00	1.25	2.75	9.25	1.75	1.25	5.25	-0.133789	0.101562	0.971191	-2.030000	0.630000	0.210000	535.00	0.08	-0.16
0.56	0.25	0.00	1.25	0.50	5.00	0.75	3.75	6.25	2.75	3.00	2.50	3.50	8.50	3.00	1.00	3.50	-0.169434	0.076660	0.950195	-1.330000	4.130000	1.330000	541.00	0.11	-0.12	1.25	0.50	1.25	0.50	4.25	1.75	4.25	7.25	1.25	1.75	1.50	2.50	9.00	2.00	1.00	5.25	-0.126465	0.103516	0.972168	-2.590000	-0.210000	0.350000	533.00	0.07	-0.16
0.57	1.25	1.00	2.50	0.50	5.00	1.00	3.75	6.25	2.75	3.00	2.25	3.25	8.25	3.00	0.75	3.25	-0.169434	0.085449	0.954590	-2.170000	3.570000	1.400000	569.00	0.07	-0.11	1.00	0.50	1.50	0.75	4.00	2.00	4.25	7.00	1.25	2.00	1.25	2.75	9.25	1.75	1.00	5.25	-0.128418	0.100586	0.976562	-3.710000	-1.540000	0.490000	535.00	0.07	-0.16
0.58	0.00	0.00	0.50	0.00	4.00	0.00	3.50	5.50	1.75	2.50	1.75	2.50	7.50	1.75	0.00	3.00	-0.166016	0.082520	0.954590	-3.150000	3.010000	1.540000	410.00	0.11	-0.14	1.25	0.50	1.25	0.75	4.00	2.25	4.25	7.00	1.00	1.75	1.50	2.75	9.00	1.75	1.25	5.25	-0.131348	0.096680	0.962891	-4.270000	-2.240000	0.700000	534.00	0.07	-0.16
0.59	0.00	0.00	0.50	0.00	4.00	0.00	3.50	5.50	1.25	1.75	1.25	2.00	7.50	1.75	0.00	2.75	-0.165039	0.085938	0.948242	-4.690000	3.080000	1.540000	382.00	0.10	-0.15	0.50	0.00	1.50	0.50	5.25	2.75	4.25	7.25	2.00	2.75	2.25	3.75	9.75	2.75	1.25	5.50	-0.109375	0.102051	0.954590	-4.200000	-3.010000	0.840000	610.00	0.09	-0.15
0.60	0.00	0.00	0.75	0.00	4.75	0.00	3.50	6.00	1.75	2.25	1.50	2.25	7.50	1.75	0.00	3.00	-0.162109	0.085938	0.956055	-5.110000	2.870000	1.470000	422.00	0.10	-0.14	0.75	0.75	1.50	0.50	4.50	1.50	4.25	7.00	2.25	2.75	2.25	4.00	10.00	3.00	2.50	5.50	-0.125488	0.111328	0.970215	-6.580000	-3.500000	0.350000	617.00	0.10	-0.14
0.61	1.00	1.00	2.75	1.00	5.25	1.25	3.75	6.75	3.00	3.25	2.50	3.25	8.50	3.00	1.00	3.75	-0.168457	0.085938	0.962891	-5.250000	3.010000	1.260000	607.00	0.07	-0.11	0.75	0.50	1.75	0.50	4.75	2.25	4.25	7.25	1.25	1.75	1.25	2.50	9.00	1.75	1.00	5.00	-0.125488	0.099609	0.982422	-7.910000	-3.150000	-0.210000	538.00	0.07	-0.16
0.62	2.00	1.25	2.75	0.75	5.25	1.25	3.75	6.75	3.00	3.00	2.50	3.50	8.75	3.00	1.00	3.75	-0.170898	0.078613	0.964355	-5.320000	3.430000	1.190000	620.00	0.06	-0.11	1.25	0.00	0.50	0.50	5.00	2.25	4.25	7.00	0.75	2.00	1.25	2.25	9.00	2.00	1.00	5.00	-0.125488	0.095703	0.980957	-7.420000	-2.380000	-0.140000	518.00	0.07	-0.16
0.63	2.00	1.75	2.75	1.25	5.50	1.50	3.75	6.75	3.25	3.25	2.50	3.25	8.75	3.00	1.00	3.75	-0.168945	0.075195	0.970703	-4.620000	3.710000	1.260000	640.00	0.06	-0.11	1.25	0.75	1.50	0.75	4.75	2.50	4.75	7.75	2.25	2.75	1.50	2.75	9.25	2.00	1.00	5.50	-0.117676	0.095703	0.983887	-6.790000	-1.890000	-0.000000	605.00	0.07	-0.14
0.64	1.75	1.50	2.75	1.00	5.50	1.50	3.75	6.75	3.00	3.25	2.50	3.25	8.75	3.25	1.00	3.75	-0.172852	0.076172	0.962402	-3.780000	4.130000	1.260000	631.00	0.06	-0.11	1.25	1.50	3.00	1.50	5.75	3.25	4.75	7.50	1.25	1.75	1.00	2.50	9.25	2.00	1.00	5.00	-0.119141	0.102051	0.984863	-6.020000	-1.330000	-0.140000	619.00	0.03	-0.14
0.65	2.00	1.25	3.00	1.25	5.25	1.25	3.75	7.00	3.25	3.00	2.75	3.50	8.75	3.25	0.75	3.75	-0.165527	0.080566	0.962891	-2.520000	4.970000	1.330000	639.00	0.06	-0.11	1.25	0.75	1.25	0.25	5.25	2.50	4.50	7.50	0.75	1.75	1.25	2.50	8.50	2.25	0.75	5.00	-0.123535	0.094727	0.984863	-5.460000	-0.560000	-0.210000	545.00	0.06	-0.15
0.66	1.75	2.00	3.00	1.25	5.25	1.50	3.75	6.75	2.75	3.25	2.75	3.00	8.75	3.25	1.00	3.75	-0.168457	0.082520	0.964844	-1.750000	5.390000	1.330000	635.00	0.06	-0.11	0.25	0.25	0.75	0.00	4.75	1.75	4.50	7.25	1.00	2.00	1.25	2.25	8.75	2.25	1.00	5.00	-0.123047	0.095215	0.987305	-4.410000	0.000000	0.070000	509.00	0.09	-0.16
0.67	2.00	1.50	2.75	1.25	5.25	1.50	3.75	6.75	3.00	3.00	2.50	3.25	8.50	3.25	1.00	3.75	-0.168457	0.083496	0.959961	-1.190000	5.530000	1.540000	628.00	0.06	-0.11	0.00	0.00	0.50	0.00	4.75	1.75	4.50	7.25	1.00	2.00	1.25	2.50	8.75	2.75	1.50	5.25	-0.124512	0.094238	0.985840	-3.360000	0.700000	0.070000	515.00	0.10	-0.16
0.68	1.75	1.75	3.00	1.00	5.25	1.25	3.75	6.75	2.75	3.25	2.50	3.50	8.75	3.25	1.00	3.75	-0.166504	0.078613	0.959961	-0.980000	5.600000	1.470000	630.00	0.06	-0.11	2.50	1.75	2.50	1.75	5.75	3.25	4.75	8.00	2.25	2.75	2.25	3.50	9.50	3.50	2.00	5.50	-0.125000	0.094727	0.989258	-2.380000	0.980000	0.210000	724.00	0.05	-0.13
0.69	1.75	2.00	2.75	1.25	5.25	1.00	3.75	6.75	3.25	3.00	2.25	3.50	8.50	3.25	1.00	3.75	-0.166504	0.081055	0.953613	-1.120000	5.390000	1.470000	628.00	0.06	-0.11	2.50	1.25	2.50	1.75	5.75	3.50	4.75	7.75	2.25	2.25	1.75	3.00	9.00	2.50	1.00	5.25	-0.127441	0.096191	0.987305	-1.330000	1.050000	0.140000	673.00	0.04	-0.13
0.70	2.00	1.50	2.75	1.00	5.25	1.25	3.75	6.75	3.00	3.00	2.50	3.25	8.75	3.00	1.00	3.75	-0.170410	0.082031	0.954590	-1.540000	4.830000	1.610000	622.00	0.06	-0.11	0.00	0.25	0.75	0.25	5.00	2.00	4.50	7.50	1.50	2.00	1.25	2.50	8.75	2.25	1.50	5.25	-0.134277	0.095215	0.987793	1.050000	0.350000	0.280000	536.00	0.09	-0.15
0.71	1.75	1.50	2.75	1.00	5.25	1.50	3.75	6.75	2.50	3.00	2.50	3.25	8.50	3.00	0.75	3.50	-0.172363	0.077148	0.959473	-1.330000	3.990000	1.680000	609.00	0.06	-0.12	0.00	0.25	0.75	0.25	4.75	2.00	4.50	7.25	1.25	1.75	1.25	2.75	9.25	2.50	1.00	5.00	-0.134277	0.104980	0.981934	2.030000	-0.140000	0.560000	526.00	0.09	-0.16
0.72	1.50	1.50	2.75	1.50	5.25	1.50	3.75	6.75	2.75	3.00	2.50	3.25	8.50	3.00	1.00	3.75	-0.173828	0.080566	0.967285	-0.980000	3.430000	1.750000	620.00	0.06	-0.12	0.00	0.00	0.75	0.00	4.75	3.25	4.75	7.25	1.00	1.50	0.75	2.00	8.75	1.75	0.75	4.75	-0.129395	0.101074	0.981445	2.100000	-0.840000	0.910000	502.00	0.08	-0.16
0.73	1.75	1.75	2.75	1.25	5.50	1.50	3.75	6.75	2.75	3.00	2.50	3.00	8.50	2.50	1.00	3.50	-0.161621	0.078613	0.962402	-1.050000	3.010000	2.030000	616.00	0.05	-0.12	0.25	0.00	1.25	0.75	4.75	1.50	4.50	7.25	1.00	1.25	0.75	2.25	8.75	1.50	0.50	4.00	-0.146484	0.102051	0.998047	2.800000	-1.330000	1.470000	486.00	0.07	-0.16
0.74	1.75	2.25	3.00	1.25	5.50	1.50	3.75	7.00	2.50	2.75	2.25	3.00	8.50	2.50	0.50	3.50	-0.177246	0.082031	0.960449	-0.840000	2.380000	2.380000	613.00	0.04	-0.12	1.75	0.75	1.50	1.00	5.00	2.25	4.50	7.25	0.75	1.00	0.75	2.00	8.50	1.25	0.50	3.50	-0.170410	0.099609	1.004395	6.790000	-3.220000	2.310000	511.00	0.03	-0.15
0.75	1.75	1.25	3.25	1.50	5.50	1.75	3.75	7.00	2.75	2.50	2.50	3.00	8.25	2.25	0.50	3.25	-0.182617	0.082520	0.966797	0.910000	1.820000	2.800000	610.00	0.04	-0.12	1.75	0.75	2.00	1.00	5.00	2.50	4.50	7.25	0.75	0.75	0.50	1.25	8.50	1.00	0.50	3.00	-0.145508	0.103027	0.982910	9.870000	-4.900000	3.710000	501.00	0.01	-0.15
0.76	2.25	2.00	3.50	2.00	5.75	2.00	3.75	7.00	2.50	2.50	2.00	2.75	8.50	1.75	0.50	3.00	-0.177734	0.072266	0.962402	2.310000	1.190000	3.430000	622.00	0.02	-0.12	1.25	0.75	2.50	1.00	5.00	2.50	4.25	7.00	0.25	0.50	0.25	1.25	8.00	1.00	0.50	2.25	-0.131348	0.114746	0.970703	9.800000	-6.020000	4.900000	471.00	0.00	-0.16
0.77	2.75	2.25	4.25	2.25	5.50	2.25	3.75	7.00	2.00	2.25	1.50	2.75	8.25	1.75	0.25	2.50	-0.170898	0.085938	0.948242	2.450000	0.140000	3.990000	618.00	-0.00	-0.12	2.25	1.00	2.50	1.50	5.00	3.00	4.50	7.00	0.25	0.75	0.00	1.25	7.75	0.75	0.25	2.00	-0.122559	0.108887	0.965332	8.610000	-6.860000	5.390000	492.00	-0.02	-0.15
0.78	3.00	2.50	4.25	3.00	5.75	2.50	3.50	7.50	2.00	2.00	1.50	2.00	8.00	1.50	0.25	2.25	-0.167480	0.090820	0.943848	0.490000	-1.610000	4.270000	625.00	-0.02	-0.13	2.75	1.00	2.50	1.50	5.00	2.75	4.25	6.75	0.25	0.50	0.00	0.75	7.50	0.50	0.00	1.75	-0.111816	0.114258	0.964844	5.880000	-6.300000	4.690000	468.00	-0.04	-0.15
0.79	3.50	2.75	5.00	3.50	6.00	2.75	3.50	7.25	1.75	2.00	1.25	2.25	8.00	1.25	0.25	2.00	-0.170410	0.089844	0.942871	-2.030000	-3.570000	4.340000	643.00	-0.04	-0.12	2.50	1.00	3.00	2.00	5.25	3.00	4.50	6.75	0.00	0.50	0.00	0.75	7.00	0.50	0.25	1.25	-0.103027	0.122559	0.973145	3.500000	-5.670000	3.850000	479.00	-0.04	-0.14
0.80	4.50	3.75	5.75	4.75	6.25	3.25	3.50	7.50	1.75	1.75	0.75	2.00	7.50	1.00	0.25	1.50	-0.160156	0.087402	0.956543	-4.900000	-6.790000	4.340000	680.00	-0.07	-0.12	3.75	1.50	3.50	2.25	5.25	3.25	4.25	6.75	0.00	0.25	0.00	0.75	6.25	0.25	0.00	0.75	-0.112793	0.120605	0.975098	2.100000	-4.970000	3.150000	488.00	-0.08	-0.13
0.81	5.25	4.75	6.50	5.25	6.50	4.25	3.50	7.25	1.00	1.75	0.00	1.75	7.50	1.00	0.00	1.50	-0.160645	0.088379	0.975098	-4.690000	-6.930000	4.270000	700.00	-0.09	-0.12	3.75	1.50	3.75	2.75	5.25	3.25	4.50	6.50	0.00	0.25	0.00	0.50	5.50	0.25	0.25	0.75	-0.125977	0.129395	0.976074	1.260000	-5.390000	2.730000	490.00	-0.08	-0.12
0.82	5.75	5.25	7.50	6.00	6.50	4.50	3.75	7.25	1.50	1.50	0.50	1.50	6.75	0.75	0.00	1.25	-0.148438	0.091797	0.969238	-3.990000	-6.160000	4.270000	735.00	-0.10	-0.11	4.00	1.75	4.25	3.00	5.25	3.00	4.25	6.25	0.00	0.25	0.00	0.25	5.00	0.25	0.00	0.50	-0.115723	0.125000	0.978027	0.560000	-5.740000	2.660000	481.00	-0.10	-0.11
0.83	7.00	5.75	8.00	7.00	7.00	4.75	3.50	7.50	1.25	1.25	0.50	1.25	6.50	0.75	0.00	0.75	-0.147461	0.091797	0.977539	-2.730000	-4.620000	3.920000	767.00	-0.12	-0.11	4.75	2.25	4.75	3.50	5.25	3.25	4.25	6.00	0.00	0.25	0.00	0.50	4.25	0.25	0.00	0.00	-0.112305	0.115234	0.976074	0.140000	-5.180000	2.800000	499.00	-0.12	-0.10
0.84	8.25	7.00	8.25	7.50	7.00	5.00	3.50	7.25	1.00	1.25	0.00	0.75	6.00	0.50	0.00	0.75	-0.154785	0.082031	0.980469	-0.630000	-2.800000	3.780000	779.00	-0.15	-0.10	5.25	2.50	5.00	3.75	5.50	3.00	4.25	5.75	0.00	0.00	0.00	0.00	3.25	0.00	0.00	0.00	-0.114258	0.123535	0.982910	0.980000	-4.690000	2.800000	489.00	-0.14	-0.09
0.85	9.50	7.75	8.50	8.25	7.00	5.25	3.50	7.25	1.25	1.25	0.00	1.00	5.75	0.50	0.00	0.50	-0.145996	0.076172	0.985840	2.590000	-1.120000	3.780000	818.00	-0.15	-0.10	5.50	2.25	5.25	3.75	5.50	3.00	4.25	5.50	0.00	0.00	0.00	0.25	2.50	0.00	0.00	0.00	-0.104980	0.124512	0.975098	1.610000	-3.920000	2.730000	484.00	-0.14	-0.08
0.86	10.25	8.50	9.00	8.50	7.00	5.25	3.50	7.00	1.00	1.25	0.00	0.50	5.50	0.25	0.00	0.50	-0.144531	0.080566	0.978516	6.300000	0.210000	3.780000	825.00	-0.17	-0.10	5.50	2.50	5.25	4.00	5.25	2.50	4.25	5.25	0.00	0.00	0.00	0.50	2.00	0.00	0.00	0.00	-0.104004	0.121094	0.970703	1.190000	-2.660000	2.660000	474.00	-0.15	-0.07
0.87	11.25	8.75	9.25	8.75	7.00	5.50	3.50	7.00	0.75	0.75	0.00	0.50	5.50	0.25	0.00	0.50	-0.150879	0.080566	0.978027	9.800000	1.400000	3.710000	839.00	-0.18	-0.10	5.75	2.75	5.50	4.25	5.25	2.75	4.00	5.00	0.00	0.00	0.00	0.00	1.50	0.00	0.00	0.00	-0.096191	0.127930	0.979004	0.980000	-1.610000	2.450000	470.00	-0.16	-0.07
0.88	12.00	9.25	9.25	8.75	7.00	5.50	3.50	7.00	1.00	1.00	0.00	0.50	5.00	0.25	0.00	0.50	-0.142090	0.087891	0.977539	12.740000	2.450000	3.640000	854.00	-0.18	-0.09	5.75	3.00	5.50	4.25	5.25	2.25	4.25	4.75	0.00	0.00	0.00	0.25	1.25	0.00	0.00	0.00	-0.098145	0.116699	0.959473	1.050000	-1.120000	2.380000	467.00	-0.16	-0.06
0.89	12.50	9.50	9.50	9.00	6.75	5.50	3.50	7.00	0.50	1.00	0.00	0.50	4.75	0.25	0.00	0.25	-0.150879	0.093262	0.969727	15.050000	3.080000	3.430000	854.00	-0.19	-0.09	5.75	3.00	5.25	4.00	5.00	2.25	4.00	4.50	0.00	0.00	0.00	0.00	1.50	0.00	0.00	0.00	-0.105469	0.113770	0.952637	0.630000	-0.910000	1.960000	449.00	-0.17	-0.06
0.90	13.00	9.75	9.50	9.00	6.50	5.50	3.50	7.00	0.50	0.50	0.00	0.25	4.50	0.00	0.00	0.25	-0.148926	0.096191	0.963379	16.520000	3.710000	3.360000	846.00	-0.20	-0.09	5.75	3.25	5.75	4.25	5.25	2.25	4.25	4.25	0.00	0.00	0.00	0.00	1.25	0.00	0.00	0.00	-0.109375	0.107422	0.966309	0.210000	-1.400000	1.820000	461.00	-0.17	-0.05
0.91	13.25	10.00	9.50	9.25	6.50	5.75	3.25	7.00	0.25	0.50	0.00	0.50	4.75	0.25	0.00	0.00	-0.158203	0.058594	0.992676	17.710001	4.410000	3.220000	856.00	-0.20	-0.10	6.00	3.25	5.75	4.50	5.00	2.00	4.25	4.00	0.00	0.00	0.00	0.00	1.00	0.00	0.00	0.00	-0.118652	0.115723	0.966797	-0.210000	-1.890000	1.680000	454.00	-0.18	-0.04
0.92	13.75	10.25	9.50	9.50	6.50	5.50	3.50	7.00	0.00	0.50	0.00	0.25	4.50	0.25	0.00	0.25	-0.140625	0.110352	0.958008	17.990000	3.430000	2.450000	861.00	-0.20	-0.09	6.25	3.25	5.75	4.50	5.25	2.00	4.25	3.50	0.00	0.00	0.00	0.00	1.00	0.00	0.00	0.00	-0.115234	0.108398	0.973145	-1.120000	-2.590000	1.260000	452.00	-0.18	-0.04
0.93	14.25	10.75	9.75	9.50	6.25	5.75	3.50	6.75	0.25	0.75	0.00	0.25	3.50	0.00	0.00	0.00	-0.145020	0.113281	0.969727	17.360001	2.240000	2.170000	864.00	-0.21	-0.09	6.25	3.50	5.75	4.50	5.00	2.00	4.25	3.50	0.00	0.00	0.00	0.00	0.75	0.00	0.00	0.00	-0.115234	0.108398	0.973145	-1.120000	-2.590000	1.260000	449.00	-0.18	-0.04
0.94	14.25	10.75	9.75	9.50	6.25	5.75	3.25	6.75	0.00	0.50	0.00	0.50	4.25	0.00	0.00	0.25	-0.144531	0.105957	0.962402	16.379999	2.170000	1.610000	865.00	-0.21	-0.09	6.50	3.75	6.50	5.00	5.25	2.00	4.25	3.25	0.00	0.00	0.00	0.00	0.25	0.00	0.00	0.00	-0.114746	0.114258	0.982422	0.210000	-3.710000	1.190000	464.00	-0.19	-0.03
0.95	14.50	10.50	9.75	9.50	6.00	5.75	3.25	6.75	0.00	0.50	0.00	0.25	4.00	0.00	0.00	0.00	-0.139648	0.119141	0.949707	13.440001	3.570000	0.770000	855.00	-0.21	-0.09	6.50	3.75	6.50	5.00	5.00	2.00	4.25	3.25	0.00	0.00	0.00	0.00	0.75	0.00	0.00	0.00	-0.112793	0.121582	0.980957	1.470000	-4.060000	1.120000	466.00	-0.19	-0.03
0.96	12.25	8.75	8.25	8.25	5.50	5.00	3.25	6.00	0.00	0.00	0.00	0.00	0.50	0.00	0.00	0.00	-0.127441	0.123047	0.956543	11.410000	4.760000	0.560000	710.00	-0.23	-0.08	7.00	3.75	6.50	5.00	5.00	2.00	4.25	3.50	0.00	0.00	0.00	0.00	0.50	0.00	0.00	0.00	-0.103516	0.118164	0.977051	2.310000	-4.410000	1.050000	473.00	-0.19	-0.03
0.97	14.50	10.75	9.75	9.75	6.00	5.75	3.25	6.50	0.00	0.25	0.00	0.25	3.00	0.00	0.00	0.00	-0.136230	0.134277	0.941406	8.960000	6.020000	0.210000	844.00	-0.22	-0.09	7.00	4.25	6.50	5.25	5.25	2.25	4.00	3.50	0.00	0.00	0.00	0.00	0.75	0.00	0.00	0.00	-0.105957	0.121582	0.973145	2.800000	-4.340000	0.980000	485.00	-0.20	-0.04
0.98	14.25	10.75	9.75	9.50	5.75	5.75	3.25	6.75	0.00	0.50	0.00	0.00	3.50	0.00	0.00	0.00	-0.133301	0.137207	0.938965	5.810000	7.840000	0.000000	844.00	-0.22	-0.09	7.25	4.25	6.75	5.25	5.00	2.50	4.00	3.50	0.00	0.00	0.00	0.00	0.75	0.00	0.00	0.00	-0.105469	0.128418	0.964355	2.310000	-3.780000	0.910000	491.00	-0.20	-0.04
0.99	14.00	10.75	9.50	9.50	5.50	5.50	3.25	6.75	0.00	0.50	0.00	0.25	3.25	0.00	0.00	0.00	-0.134277	0.139160	0.942871	2.170000	9.940000	-0.210000	833.00	-0.22	-0.09	7.50	4.75	6.75	5.25	5.25	2.50	4.00	3.50	0.00	0.00	0.00	0.00	0.75	0.00	0.00	0.00	-0.104980	0.127930	0.968262	1.260000	-3.220000	0.700000	502.00	-0.20	-0.04
1.00	12.75	8.50	8.00	8.50	5.50	5.25	3.25	6.50	0.00	0.50	0.00	0.00	3.00	0.00	0.00	0.25	-0.132324	0.128418	0.917969	-1.890000	12.180000	-0.630000	755.00	-0.21	-0.09	7.75	4.75	7.25	5.50	5.25	2.75	4.00	3.50	0.00	0.00	0.00	0.00	1.00	0.00	0.00	0.00	-0.108887	0.125977	0.967773	0.140000	-3.290000	0.700000	519.00	-0.20	-0.04
1.01	13.25	9.75	9.25	9.00	5.25	5.50	3.25	6.50	0.25	0.50	0.00	0.00	3.50	0.00	0.00	0.00	-0.116699	0.148438	0.921387	-8.540000	16.100000	-1.400000	801.00	-0.21	-0.09	8.25	5.00	7.25	5.50	5.25	2.75	4.00	3.75	0.00	0.00	0.00	0.00	1.00	0.00	0.00	0.00	-0.104492	0.124023	0.949707	-1.330000	-3.080000	0.490000	532.00	-0.20	-0.04
1.02	12.25	9.25	9.00	9.00	5.50	4.50	3.25	6.50	0.00	0.50	0.00	0.50	3.50	0.00	0.00	0.00	-0.128418	0.135254	0.925781	-14.980000	19.740000	-2.310000	775.00	-0.21	-0.09	8.50	5.25	7.75	6.00	5.50	3.25	4.00	4.00	0.00	0.00	0.00	0.00	1.25	0.00	0.00	0.00	-0.104980	0.125977	0.958984	-3.360000	-2.520000	0.210000	564.00	-0.20	-0.05
1.03	11.25	8.75	8.75	8.25	5.25	5.00	3.25	6.50	0.00	0.75	0.00	0.50	4.00	0.00	0.00	0.00	-0.144043	0.117188	0.958984	-18.340000	21.629999	-3.220000	757.00	-0.20	-0.10	9.25	5.25	8.00	6.50	5.50	3.25	4.00	4.25	0.00	0.00	0.00	0.00	1.50	0.00	0.00	0.00	-0.115234	0.125977	0.962402	-5.320000	-2.170000	-0.070000	588.00	-0.20	-0.05
1.04	9.50	8.00	8.00	7.75	5.25	4.75	3.25	6.75	0.50	0.75	0.00	0.75	4.50	0.00	0.00	0.50	-0.132812	0.111816	0.926758	-18.549999	22.889999	-4.760000	734.00	-0.18	-0.10	9.75	5.75	8.25	6.75	5.75	3.75	4.25	4.50	0.00	0.00	0.00	0.00	1.50	0.00	0.00	0.00	-0.113281	0.124512	0.962402	-6.650000	-2.590000	-0.140000	622.00	-0.20	-0.05
1.05	8.25	6.50	7.50	6.75	5.00	4.25	3.25	7.00	0.25	1.25	0.00	1.25	5.00	0.00	0.00	0.25	-0.122559	0.113770	0.994141	-18.129999	24.360001	-6.370000	693.00	-0.16	-0.11	10.50	6.00	9.00	7.50	6.00	4.00	4.25	4.75	0.00	0.50	0.25	0.00	1.25	0.00	0.00	0.00	-0.114258	0.123047	0.965820	-7.840000	-3.570000	0.140000	668.00	-0.20	-0.05
1.06	6.50	5.25	6.25	5.25	4.50	2.50	3.25	6.75	0.50	1.25	0.25	1.25	5.50	0.00	0.00	0.50	-0.111816	0.085938	1.027344	-11.620000	25.270000	-7.840000	609.00	-0.13	-0.12	12.00	6.75	9.25	8.00	6.25	4.50	4.25	5.25	0.50	0.75	0.00	0.00	1.75	0.00	0.25	0.50	-0.104004	0.115234	0.955566	-13.300000	-5.670000	0.490000	736.00	-0.20	-0.06
1.07	5.25	3.75	5.25	3.25	3.75	2.50	3.25	6.75	0.50	1.50	0.00	1.25	6.25	0.00	0.00	0.75	-0.187012	0.105469	1.057129	1.120000	28.700001	-8.610000	543.00	-0.10	-0.13	14.75	8.00	9.25	8.75	7.25	5.25	4.75	5.50	0.50	0.75	0.50	1.25	3.25	0.25	0.00	0.75	-0.110840	0.116211	0.952637	-17.219999	-6.860000	0.560000	858.00	-0.19	-0.06
1.08	4.00	2.75	4.75	2.25	3.25	1.75	3.00	6.50	1.25	1.00	1.00	2.00	6.50	0.25	0.25	1.50	-0.066406	0.236328	1.125977	19.600000	33.320000	-13.510000	514.00	-0.05	-0.13	18.75	9.50	9.75	11.25	8.00	7.00	4.75	6.75	1.50	1.25	0.25	1.00	3.75	0.75	1.00	1.00	-0.111816	0.098633	0.968750	-21.840000	-8.750000	0.420000	1041.00	-0.18	-0.07
1.09	3.00	2.75	3.75	1.50	2.75	1.25	3.00	5.75	1.00	1.25	0.75	2.25	6.50	0.25	0.00	1.75	-0.054199	0.559570	1.454102	81.690002	128.869995	-36.680000	455.00	-0.04	-0.14	21.50	12.50	13.25	12.50	8.50	8.25	5.00	7.25	1.00	1.25	0.75	1.00	4.50	1.25	1.00	1.00	-0.109863	0.109863	0.977051	-24.850000	-10.500000	0.280000	1204.00	-0.19	-0.07
1.10	2.50	2.00	3.25	1.50	2.50	0.50	3.00	4.75	0.00	1.00	0.25	1.75	5.25	0.00	0.00	2.00	-0.037109	0.465332	1.752441	88.900002	190.820007	-62.439999	366.00	-0.05	-0.14	23.00	10.50	10.75	13.25	9.25	9.00	5.00	7.50	1.50	1.25	0.50	1.00	5.00	1.25	1.50	1.00	-0.100098	0.102051	0.987793	-24.990000	-13.860000	0.140000	1216.00	-0.18	-0.07
1.11	0.25	0.00	1.75	0.25	2.00	0.00	2.75	3.00	0.00	0.75	0.25	1.50	4.25	0.00	0.00	1.50	-0.317871	0.458984	1.711426	45.570000	240.940002	-75.809998	224.00	0.04	-0.14	25.00	15.75	15.00	14.75	9.75	9.25	5.00	8.00	1.50	1.50	0.75	1.00	5.50	1.25	1.25	1.00	-0.086426	0.126953	0.992676	-22.120001	-16.450001	-0.000000	1386.00	-0.20	-0.07
1.12	1.50	1.00	2.00	0.00	1.75	0.00	2.75	1.75	0.00	0.50	0.00	0.75	2.25	0.00	0.00	1.25	-0.289551	0.553223	1.899902	19.250000	283.149994	-92.610001	190.00	-0.04	-0.06	26.75	17.25	16.00	15.50	10.50	9.75	5.00	8.25	1.50	1.50	0.50	1.00	6.00	1.25	1.25	1.00	-0.088379	0.117676	1.001465	-19.110001	-16.309999	-0.420000	1463.00	-0.20	-0.07
1.13	0.50	0.00	1.25	0.00	1.75	0.00	2.75	1.00	0.00	0.50	0.00	0.00	1.00	0.00	0.00	0.75	-0.169922	0.551270	1.627930	-7.840000	310.799988	-116.690002	123.00	-0.01	0.02	28.00	18.00	15.75	15.25	11.00	10.25	5.00	8.25	1.25	1.50	0.75	1.25	6.25	1.25	1.00	1.00	-0.074707	0.119141	0.990723	-17.080000	-13.930000	-1.050000	1492.00	-0.20	-0.07
1.14	1.00	0.75	1.75	0.25	2.00	0.00	2.75	0.25	0.00	0.75	0.00	0.00	0.75	0.00	0.00	0.25	-0.406738	0.503906	1.497559	-42.070000	331.660004	-133.770004	134.00	-0.07	0.07	28.00	19.25	16.75	16.50	11.75	11.00	5.25	8.50	1.75	1.50	0.75	1.00	6.75	1.50	1.50	1.00	-0.068848	0.119141	0.991211	-15.820000	-10.780000	-1.680000	1575.00	-0.20	-0.07
1.15	1.00	0.25	1.50	0.25	2.00	0.00	2.75	0.25	0.25	0.25	0.00	0.00	0.00	0.00	0.00	0.25	-0.505859	1.000488	2.110840	-66.290001	355.670013	-145.529999	116.00	-0.07	0.11	28.50	19.25	16.75	16.25	12.25	11.25	5.25	8.75	1.75	1.50	0.75	1.50	7.00	1.50	1.25	1.00	-0.075684	0.113770	1.004395	-14.980000	-7.070000	-2.030000	1597.00	-0.20	-0.07
1.16	1.25	1.25	2.00	0.25	2.00	0.00	3.00	0.00	0.00	0.50	0.00	0.00	0.00	0.00	0.00	0.00	0.163086	0.890625	2.736816	-90.019997	329.140015	-157.360001	133.00	-0.12	0.11	28.25	19.50	17.00	16.75	12.75	11.50	5.25	8.75	1.75	1.75	0.75	1.50	7.50	1.50	1.25	1.00	-0.076172	0.102539	1.014648	-13.020000	-3.990000	-2.310000	1622.00	-0.19	-0.07
1.17	1.00	0.75	1.75	0.50	2.25	0.00	3.25	0.00	0.00	0.25	0.00	0.00	0.00	0.00	0.00	0.00	0.652344	1.229004	1.666992	-93.590004	285.110016	-160.930008	130.00	-0.10	0.12	28.75	18.75	17.00	16.50	12.75	11.75	5.25	9.00	1.75	1.75	0.75	1.50	7.50	1.75	1.25	1.25	-0.076172	0.098145	1.003418	-7.770000	0.700000	-2.030000	1628.00	-0.19	-0.07
1.18	1.50	1.25	1.75	0.75	2.00	0.00	3.25	0.00	0.00	0.25	0.00	0.00	0.00	0.00	0.00	0.00	2.162598	2.005859	2.316895	-100.099998	237.860001	-142.800003	140.00	-0.13	0.10	28.00	18.50	16.75	16.50	13.00	11.75	5.25	9.00	1.75	1.75	0.75	1.50	7.75	1.50	1.50	1.00	-0.069336	0.099609	0.988770	-5.460000	3.010000	-2.310000	1618.00	-0.19	-0.08
1.19	1.50	1.00	1.75	0.50	2.00	0.00	3.25	0.00	0.00	0.25	0.00	0.00	0.00	0.00	0.00	0.00	1.934082	2.083008	1.988281	-49.279999	158.899994	-81.690002	135.00	-0.12	0.11	27.00	17.50	16.50	16.00	12.75	12.00	5.25	9.25	1.75	1.75	1.00	1.50	8.25	1.75	1.25	1.75	-0.078613	0.104980	0.995117	-4.480000	5.460000	-2.380000	1603.00	-0.18	-0.08
1.20	0.75	0.25	1.25	0.00	1.75	0.00	3.00	0.00	0.00	0.50	0.00	0.00	0.00	0.00	0.00	0.00	3.068848	1.973633	1.659180	6.930000	59.779999	-27.090000	102.00	-0.06	0.15	25.75	16.25	15.75	15.25	12.75	11.75	5.50	9.25	2.00	1.75	1.00	1.75	8.50	1.75	1.25	1.50	-0.086426	0.102539	1.003418	-3.290000	7.560000	-2.310000	1567.00	-0.18	-0.08
1.21	0.50	0.00	1.00	0.00	1.75	0.00	3.00	0.00	0.00	0.25	0.00	0.00	0.00	0.00	0.00	0.00	2.614746	1.519043	1.069336	41.160000	2.520000	19.600000	91.00	-0.04	0.17	24.50	14.75	15.50	15.00	12.75	11.50	5.25	9.25	2.00	2.00	1.00	1.75	8.75	1.75	1.25	1.50	-0.081055	0.108398	0.982910	-2.520000	9.100000	-2.450000	1530.00	-0.17	-0.08
1.22	1.00	0.50	1.50	0.00	1.75	0.00	3.00	0.00	0.00	0.00	0.00	0.00	0.00	0.00	0.00	0.00	2.604004	1.076660	0.627930	55.930000	-23.450001	48.299999	105.00	-0.10	0.15	23.00	13.25	14.75	14.00	12.50	11.00	5.25	9.25	2.00	2.00	1.00	2.00	9.00	2.00	1.25	1.75	-0.082031	0.104004	0.983398	-3.290000	10.710000	-2.800000	1477.00	-0.16	-0.08
1.23	0.50	0.00	0.50	0.00	1.75	0.00	3.00	0.00	0.00	0.25	0.00	0.00	0.00	0.00	0.00	0.00	2.485840	0.926758	0.897949	74.480003	-38.849998	63.700001	85.00	-0.02	0.17	20.50	11.25	14.00	12.75	12.25	11.00	5.50	9.25	2.25	2.25	1.25	2.00	9.25	2.00	1.50	1.75	-0.080078	0.100586	0.983398	-4.760000	12.180000	-3.220000	1420.00	-0.15	-0.08
1.24	1.00	1.00	1.50	0.25	2.00	0.00	3.25	0.00	0.00	0.50	0.00	0.00	0.00	0.00	0.00	0.00	2.249023	0.379883	1.300293	111.860001	-97.650002	80.849998	126.00	-0.09	0.12	19.00	9.25	13.25	12.00	12.00	10.75	5.50	9.25	2.00	2.50	1.50	2.25	9.75	2.00	1.50	2.00	-0.083008	0.092773	0.962891	-6.580000	12.950000	-3.640000	1370.00	-0.13	-0.09
1.25	0.50	0.00	1.00	0.00	1.75	0.00	3.00	0.00	0.00	0.00	0.00	0.00	0.00	0.00	0.00	0.00	1.993652	0.152344	1.385254	114.730003	-129.990005	90.790001	88.00	-0.05	0.17	16.75	8.25	12.25	10.50	11.75	10.25	5.50	9.25	2.25	2.50	1.25	2.50	9.75	2.25	1.75	2.25	-0.085938	0.093262	0.972656	-8.540000	13.370000	-4.200000	1305.00	-0.12	-0.09
1.26	0.75	0.25	1.00	0.00	2.00	0.00	3.00	0.00	0.00	0.00	0.00	0.00	0.00	0.00	0.00	0.00	1.670898	0.023438	1.434570	110.949997	-156.240005	100.239998	97.00	-0.07	0.16	15.00	7.25	11.50	9.50	11.50	10.00	5.50	9.25	2.50	3.00	1.75	2.75	10.25	2.50	1.75	2.75	-0.099609	0.095215	0.976562	-8.890000	12.250000	-4.480000	1276.00	-0.10	-0.09
1.27	0.50	0.25	0.75	0.00	1.75	0.00	3.00	0.00	0.00	0.25	0.00	0.00	0.00	0.00	0.00	0.00	1.312500	-0.026367	1.539551	107.590004	-175.490005	108.779999	91.00	-0.04	0.16	13.00	6.50	10.75	9.00	11.50	9.75	5.50	9.50	2.75	3.25	1.75	3.00	10.50	2.25	2.00	2.75	-0.097168	0.091797	0.969238	-9.520000	11.200000	-4.480000	1244.00	-0.09	-0.10
1.28	1.00	0.75	1.25	0.25	2.00	0.00	3.00	0.00	0.00	0.00	0.00	0.00	0.00	0.00	0.00	0.00	0.978027	-0.027344	1.658203	107.099998	-189.139999	118.510002	111.00	-0.11	0.13	11.00	6.00	10.00	8.25	11.25	9.50	5.50	9.50	2.75	3.75	2.25	3.50	10.75	2.75	2.00	3.50	-0.098145	0.082520	0.960938	-8.400000	10.500000	-4.620000	1221.00	-0.07	-0.10
1.29	0.50	0.50	1.50	0.00	1.75	0.00	3.00	0.00	0.00	0.00	0.00	0.00	0.00	0.00	0.00	0.00	0.626953	0.045898	1.899414	110.040001	-199.710007	129.149994	99.00	-0.08	0.15	9.25	5.50	9.00	7.50	11.00	9.50	5.75	9.50	3.25	4.25	2.75	3.75	11.00	3.25	2.25	4.25	-0.098145	0.082520	0.960938	-8.400000	10.500000	-4.620000	1212.00	-0.05	-0.10
1.30	0.75	0.50	1.25	0.00	2.00	0.00	3.25	0.00	0.00	0.25	0.00	0.00	0.00	0.00	0.00	0.00	0.285156	0.044434	2.192383	104.650002	-214.410004	142.520004	109.00	-0.07	0.15	8.50	5.25	8.75	7.00	11.00	9.25	5.75	9.50	3.75	5.75	3.25	4.25	11.50	3.25	2.25	5.00	-0.108398	0.083496	0.975586	-6.650000	10.500000	-5.670000	1234.00	-0.03	-0.10
1.31	1.25	0.50	1.25	0.00	2.00	0.00	3.00	0.00	0.00	0.00	0.00	0.00	0.00	0.00	0.00	0.00	-0.038574	0.031250	2.256836	84.559998	-235.899994	155.889999	108.00	-0.10	0.14	8.00	4.75	8.00	6.50	10.75	9.00	5.75	9.75	4.25	7.00	4.00	4.75	11.75	3.50	2.75	5.50	-0.105469	0.078125	0.966797	-5.390000	10.920000	-5.880000	1255.00	-0.01	-0.10
1.32	1.00	0.25	1.25	0.00	1.75	0.00	3.00	0.00	0.00	0.25	0.00	0.00	0.00	0.00	0.00	0.00	-0.407715	0.073242	2.179688	57.189999	-254.520004	163.380005	102.00	-0.07	0.15	7.25	4.25	7.50	6.00	10.50	8.75	5.75	9.75	4.75	7.75	5.50	6.00	12.25	4.25	3.25	6.50	-0.118652	0.059570	0.987793	-2.870000	11.970000	-6.300000	1294.00	0.01	-0.10
1.33	1.00	0.75	1.50	0.00	2.00	0.00	3.00	0.00	0.00	0.00	0.00	0.00	0.00	0.00	0.00	0.00	-0.787598	0.131836	1.968262	32.549999	-263.829987	160.580002	111.00	-0.10	0.14	6.75	3.75	6.75	5.50	10.00	8.75	5.75	10.00	5.50	8.50	6.50	7.00	13.00	4.75	3.75	7.75	-0.114258	0.078613	0.970215	1.050000	13.930000	-6.300000	1334.00	0.03	-0.11
1.34	1.25	0.50	1.25	0.25	1.75	0.00	3.25	0.00	0.00	0.00	0.00	0.00	0.00	0.00	0.00	0.00	-1.086426	0.231445	1.761230	12.110000	-261.730011	146.930008	112.00	-0.10	0.14	6.25	3.50	6.25	5.25	9.75	8.50	5.75	10.00	6.00	9.00	7.50	7.75	13.25	5.50	4.25	8.75	-0.083984	0.079102	1.000977	5.040000	16.450001	-7.000000	1364.00	0.04	-0.11
1.35	1.00	0.25	1.00	0.00	2.00	0.00	3.00	0.00	0.00	0.00	0.00	0.00	0.00	0.00	0.00	0.00	-1.263672	0.434570	1.633301	-2.170000	-251.440002	128.940002	99.00	-0.08	0.15	5.75	3.25	5.75	4.50	9.25	8.50	5.75	10.25	6.75	9.75	8.00	8.00	14.00	6.25	4.75	9.75	-0.090332	0.090332	1.003418	8.610000	19.879999	-8.050000	1393.00	0.06	-0.11
1.36	0.75	0.25	1.00	0.00	2.00	0.00	3.25	0.00	0.00	0.00	0.00	0.00	0.00	0.00	0.00	0.00	-1.413086	0.638672	1.541016	-9.380000	-238.630005	115.989998	101.00	-0.06	0.16	5.25	3.00	5.25	4.00	8.50	8.00	5.75	10.25	7.25	10.50	8.50	8.50	14.50	7.00	5.25	10.75	-0.108887	0.071777	1.008301	12.110000	24.360001	-9.170000	1408.00	0.08	-0.10
1.37	0.50	0.75	1.00	0.00	1.75	0.00	3.25	0.00	0.00	0.00	0.00	0.00	0.00	0.00	0.00	0.00	-1.605957	0.812500	1.443359	-10.990000	-227.149994	113.820000	100.00	-0.07	0.15	5.00	3.00	5.00	3.75	7.75	7.75	5.50	10.25	7.75	10.75	9.00	9.00	15.00	7.50	6.00	12.00	-0.107422	0.090332	1.024414	17.080000	28.770000	-9.870000	1430.00	0.09	-0.11
1.38	0.25	0.75	1.25	0.00	2.00	0.00	3.00	0.00	0.00	0.00	0.00	0.00	0.00	0.00	0.00	0.00	-2.272949	0.841309	1.047363	2.660000	-202.580002	143.500000	99.00	-0.07	0.14	5.00	3.00	4.25	3.25	7.00	7.50	5.50	10.25	8.00	11.50	9.50	9.25	15.50	8.25	6.75	13.25	-0.112793	0.091797	1.012207	22.610001	33.599998	-11.130000	1451.00	0.10	-0.11
1.39	0.75	0.25	1.25	0.00	2.00	0.00	3.00	0.00	0.00	0.00	0.00	0.00	0.00	0.00	0.00	0.00	-2.681152	0.706543	0.823242	8.190000	-182.350006	166.740005	100.00	-0.08	0.15	4.25	2.75	4.00	3.00	6.25	7.25	5.25	10.25	8.25	11.75	9.75	9.75	16.25	8.75	7.75	14.50	-0.115234	0.069824	1.058594	34.020000	40.250000	-12.040000	1464.00	0.11	-0.11
1.40	1.00	0.25	1.00	0.00	2.00	0.00	3.00	0.00	0.00	0.00	0.00	0.00	0.00	0.00	0.00	0.00	-3.086426	0.513184	0.605469	12.250000	-158.059998	187.180008	99.00	-0.08	0.15	4.25	2.25	3.50	1.75	5.75	7.25	5.00	10.25	8.25	11.75	10.00	10.25	16.50	9.25	8.25	15.75	-0.100586	0.077637	1.093262	47.880001	51.170002	-12.110000	1456.00	0.13	-0.11
1.41	1.25	0.25	1.25	0.00	1.75	0.00	3.25	0.00	0.00	0.00	0.00	0.00	0.00	0.00	0.00	0.00	-3.485352	0.273926	0.388184	14.140000	-130.550003	196.559998	106.00	-0.09	0.16	2.25	1.25	3.00	2.25	5.25	7.00	4.75	9.75	8.25	12.25	9.50	10.00	15.75	8.75	8.00	15.75	-0.158691	0.114258	1.140137	64.820000	69.790001	-13.370000	1385.00	0.14	-0.12
1.42	1.50	0.00	1.00	0.25	2.00	0.00	3.00	0.00	0.00	0.00	0.00	0.00	0.00	0.00	0.00	0.00	-3.782715	0.058594	0.168945	10.080000	-101.220001	188.930008	106.00	-0.09	0.15	1.75	0.75	1.50	0.75	3.25	5.50	4.25	9.00	7.25	11.25	9.50	10.00	15.50	9.25	8.50	17.00	-0.209961	0.159180	1.224121	116.059998	104.790001	-17.639999	1265.00	0.17	-0.13
1.43	1.00	0.50	1.00	0.00	2.00	0.00	3.00	0.00	0.00	0.00	0.00	0.00	0.00	0.00	0.00	0.00	-3.987793	-0.063965	0.002930	3.780000	-71.540001	162.119995	102.00	-0.09	0.15	2.25	1.75	2.75	2.25	4.00	7.00	4.25	9.50	8.00	12.25	10.75	11.00	17.25	11.25	10.25	18.75	-0.190918	0.168457	1.294434	137.130005	127.959999	-19.950001	1463.00	0.15	-0.12
1.44	1.25	0.50	1.00	0.25	1.75	0.00	3.00	0.00	0.00	0.00	0.00	0.00	0.00	0.00	0.00	0.00	-4.142090	-0.117676	-0.120605	3.780000	-44.380001	118.790001	105.00	-0.10	0.14	3.00	1.00	2.25	2.00	3.50	6.75	4.00	9.25	7.50	12.00	10.00	11.00	16.25	11.50	10.75	20.00	-0.227051	0.220215	1.228516	137.619995	148.259995	-23.170000	1425.00	0.16	-0.12
1.45	1.00	0.75	1.25	0.00	2.00	0.00	3.00	0.00	0.00	0.00	0.00	0.00	0.00	0.00	0.00	0.00	-4.278320	-0.375488	-0.211426	13.930000	-17.500000	65.029999	108.00	-0.10	0.14	1.25	0.75	0.75	0.50	2.25	5.50	3.75	8.25	6.50	11.00	9.75	10.25	15.75	10.50	9.75	19.75	-0.239258	0.229492	1.277344	127.330002	174.440002	-25.549999	1251.00	0.19	-0.13
1.46	1.75	1.00	1.50	0.50	2.00	0.00	3.00	0.00	0.00	0.00	0.00	0.00	0.00	0.00	0.00	0.00	-5.156738	-1.202148	-1.253906	-0.630000	79.309998	-17.010000	128.00	-0.14	0.11	1.25	0.50	1.00	0.75	2.00	5.50	3.50	8.00	6.50	11.50	9.50	10.25	15.50	11.00	10.50	20.25	-0.290527	0.285156	1.170410	101.570000	206.500000	-28.490000	1260.00	0.19	-0.13
1.47	2.25	1.75	2.00	1.00	2.00	0.00	3.00	0.00	0.00	0.00	0.00	0.00	0.00	0.00	0.00	0.00	-2.491699	-0.505859	0.219727	-91.209999	191.729996	-104.160004	153.00	-0.17	0.08	1.25	0.50	0.75	0.50	1.75	5.25	3.50	8.00	6.00	10.75	9.25	10.00	15.00	11.25	10.75	20.75	-0.306152	0.386719	1.209473	94.220001	239.820007	-37.450001	1230.00	0.19	-0.13
1.48	3.75	3.50	3.00	2.00	2.25	0.00	3.00	0.00	0.00	0.00	0.00	0.00	0.00	0.00	0.00	0.00	-0.121582	1.183594	2.729492	-167.020004	216.440002	-124.739998	215.00	-0.22	0.05	1.25	0.25	1.00	0.50	1.25	5.25	3.50	7.50	5.75	10.75	9.00	9.75	14.25	11.25	11.00	20.75	-0.245605	0.479004	1.363281	86.660004	264.179993	-49.980000	1203.00	0.20	-0.13
1.49	7.25	6.25	4.50	4.50	2.25	0.00	3.00	0.00	0.00	0.00	0.00	0.00	0.25	0.00	0.00	0.00	1.443848	1.802246	2.118164	-129.149994	120.120003	-81.970001	333.00	-0.27	0.01	1.00	0.50	1.25	0.50	1.25	5.00	3.50	7.25	5.50	10.50	9.00	9.50	13.75	11.50	11.25	20.50	-0.268555	0.538086	1.274414	72.800003	279.230011	-64.190002	1188.00	0.20	-0.13
1.50	9.50	9.00	5.25	5.50	2.00	0.00	2.75	0.00	0.00	0.00	0.00	0.00	0.00	0.00	0.00	0.00	0.850586	0.378418	-1.051758	-112.629997	74.900002	-27.510000	397.00	-0.29	-0.00	1.00	0.50	1.00	0.25	1.25	4.25	3.25	7.25	5.50	10.50	8.50	9.00	13.00	11.25	11.25	19.75	-0.378418	0.332520	1.368652	39.410000	294.350006	-77.699997	1144.00	0.20	-0.13
1.51	12.75	11.50	6.75	8.00	2.00	0.25	3.00	0.50	0.00	0.00	0.00	0.00	0.25	0.00	0.00	0.00	0.010742	-0.630371	-0.515625	-94.360001	196.419998	-16.379999	525.00	-0.30	-0.02	1.00	0.25	0.50	0.25	0.75	4.00	3.25	6.50	5.25	10.50	8.25	8.50	12.00	11.00	11.00	18.75	-0.382324	0.598145	1.525391	21.980000	329.769989	-91.559998	1081.00	0.21	-0.12
1.52	18.00	14.50	9.25	10.00	2.75	5.00	3.25	3.50	0.00	0.00	0.00	0.00	0.50	0.00	0.00	0.00	-1.523926	2.086914	5.352051	-116.550003	345.799988	-31.920000	791.00	-0.27	-0.06	0.75	0.00	0.75	0.00	0.75	3.00	3.50	6.00	5.00	10.25	8.25	8.00	11.25	10.25	10.75	17.00	-0.704102	0.951660	1.521973	-13.090000	411.459991	-145.180008	1020.00	0.22	-0.12
1.53	17.50	14.50	10.00	10.25	3.25	4.75	3.00	3.50	0.00	0.00	0.00	0.00	0.75	0.00	0.00	0.00	-1.523926	-0.612305	5.352051	-181.789993	219.660004	-13.580000	799.00	-0.27	-0.06	1.00	0.25	0.50	0.00	0.75	2.00	3.50	5.25	4.50	10.00	7.75	7.75	10.25	9.50	10.00	14.25	-0.704102	0.951660	1.521973	-13.090000	411.459991	-145.180008	938.00	0.22	-0.11
1.54	21.50	16.50	11.75	11.75	5.00	7.25	3.50	5.75	0.00	0.00	0.00	0.00	2.50	0.00	0.00	0.00	0.233398	0.276855	0.233887	-93.099998	10.850000	-17.920000	1017.00	-0.25	-0.07	0.25	0.25	0.00	0.00	0.25	1.25	3.50	4.00	3.00	9.50	7.50	7.00	9.00	8.00	8.50	10.75	-0.839355	1.130371	2.410645	-31.080000	490.279999	-217.139999	785.00	0.23	-0.11
1.55	14.50	12.50	9.50	9.50	5.00	6.00	3.25	5.50	0.00	0.00	0.00	0.00	1.00	0.00	0.00	0.00	-0.189941	0.040039	1.430176	-120.750000	32.340000	-11.550000	806.00	-0.24	-0.08	0.00	0.00	0.00	0.00	0.25	0.50	3.50	2.00	2.00	8.50	6.00	5.00	7.00	6.00	6.50	7.75	-1.152832	1.377930	3.274902	-49.840000	505.959991	-242.690002	594.00	0.24	-0.09
1.56	15.00	12.75	10.00	9.75	5.75	6.50	3.50	6.25	0.00	0.00	0.00	0.00	2.50	0.00	0.00	0.00	-0.353027	0.051270	1.442383	-134.050003	20.930000	-8.820000	869.00	-0.23	-0.08	0.00	0.00	0.00	0.00	0.00	0.00	3.25	0.50	1.25	7.50	4.00	3.50	4.25	4.75	5.00	5.25	-1.469238	1.646484	3.915527	-81.199997	519.609985	-248.990005	424.00	0.25	-0.05
1.57	23.75	17.25	13.75	12.50	8.00	8.75	3.75	8.00	0.25	0.25	0.00	0.00	5.00	0.00	0.00	0.25	-0.176270	0.048828	1.108398	-113.610001	7.630000	-9.240000	1210.00	-0.23	-0.08	0.00	0.00	0.00	0.00	0.00	0.00	3.50	0.00	0.25	5.00	2.00	2.00	1.50	2.25	3.00	2.75	-1.454102	1.537598	4.407715	-88.830002	490.559998	-255.080002	250.00	0.24	-0.01
1.58	24.50	17.50	14.25	12.75	8.75	8.75	4.00	8.25	0.00	0.50	0.00	0.25	5.00	0.00	0.00	0.25	-0.141113	0.139648	1.106934	-80.080002	-1.680000	-7.350000	1250.00	-0.23	-0.08	0.00	0.00	0.00	0.00	0.00	0.00	3.50	0.25	0.00	3.00	1.25	1.00	1.00	1.00	1.75	1.50	-0.578613	1.705566	4.289551	-89.250000	483.630005	-263.899994	169.00	0.21	0.01
1.59	24.75	17.75	14.00	13.00	9.25	8.75	4.00	8.25	0.50	0.50	0.00	0.25	5.25	0.00	0.00	0.25	-0.155273	0.093750	1.074707	-47.320000	-5.880000	-3.780000	1270.00	-0.23	-0.08	0.00	0.00	0.00	0.00	0.00	0.00	3.75	0.00	0.00	2.25	1.00	1.00	0.00	0.75	1.25	1.25	0.024414	1.676758	3.660156	-121.169998	486.640015	-292.600006	139.00	0.20	0.07
1.60	24.50	17.50	14.25	13.00	9.50	9.00	4.00	8.50	0.50	0.75	0.00	0.25	5.50	0.00	0.00	0.25	-0.149902	0.049316	1.069336	-25.830000	-2.870000	-2.100000	1283.00	-0.23	-0.08	0.00	0.00	0.00	0.00	0.00	0.00	4.00	0.00	0.00	1.00	0.50	0.50	0.00	0.25	0.75	0.50	1.403809	2.261719	4.024902	-173.809998	437.149994	-293.160004	103.00	0.16	0.13
1.61	24.50	17.50	14.25	12.75	9.50	9.00	4.25	8.50	0.25	0.50	0.00	0.50	5.25	0.00	0.00	0.25	-0.146484	0.057129	1.035645	-9.660000	2.450000	-0.490000	1279.00	-0.23	-0.08	0.00	0.00	0.00	0.00	0.25	0.00	4.00	0.00	0.00	0.75	0.25	0.25	0.00	0.00	0.25	0.00	-0.001465	4.427734	3.356445	-167.160004	315.910004	-252.070007	86.00	0.11	0.18
1.62	24.00	17.25	14.00	12.75	9.50	9.00	4.00	8.75	0.25	1.00	0.00	0.25	5.50	0.25	0.00	0.25	-0.119629	0.056641	0.983398	0.630000	7.560000	1.050000	1275.00	-0.22	-0.08	0.50	0.00	0.00	0.00	0.00	0.00	4.00	0.00	0.00	0.50	0.00	0.00	0.00	0.00	0.00	0.00	2.782715	4.736328	7.052246	-53.619999	150.639999	-132.860001	77.00	0.06	0.22
1.63	23.50	17.00	13.50	12.50	9.50	9.00	4.00	8.75	0.50	0.75	0.00	0.50	5.75	0.00	0.00	0.25	-0.107910	0.073730	0.977539	6.020000	10.010000	1.890000	1261.00	-0.22	-0.08	0.25	0.25	0.00	0.00	0.25	0.00	4.00	0.00	0.00	0.75	0.00	0.00	0.00	0.00	0.00	0.00	3.162109	1.947754	2.941406	-30.170000	-85.959999	-28.770000	83.00	0.06	0.20
1.64	22.75	16.50	13.25	12.25	9.25	9.00	4.00	8.75	0.25	0.75	0.00	0.50	5.75	0.00	0.00	0.25	-0.106934	0.080566	0.993164	8.750000	13.300000	2.450000	1235.00	-0.22	-0.09	0.00	0.00	0.00	0.00	0.25	0.00	4.00	0.00	0.00	0.25	0.00	0.00	0.00	0.00	0.00	0.00	2.658203	1.506836	2.569336	-76.300003	-194.949997	22.400000	72.00	0.08	0.23
1.65	21.75	15.75	12.75	12.00	9.00	9.00	4.00	8.75	0.75	0.75	0.00	0.25	6.00	0.25	0.00	0.25	-0.108398	0.088379	0.976074	10.150000	17.500000	2.380000	1213.00	-0.21	-0.09	0.50	0.25	0.25	0.00	0.00	0.00	4.00	0.00	0.00	0.25	0.00	0.00	0.00	0.00	0.00	0.00	2.545410	1.520508	1.462402	-105.279999	-234.360001	45.990002	80.00	0.02	0.21
1.66	20.00	14.75	12.25	11.75	8.75	8.75	4.00	8.75	0.25	0.75	0.00	0.50	6.25	0.25	0.00	0.25	-0.115234	0.084473	0.963379	10.780000	21.210001	2.030000	1166.00	-0.21	-0.09	0.25	0.25	0.25	0.00	0.25	0.00	3.75	0.00	0.00	0.50	0.00	0.00	0.00	0.00	0.00	0.00	2.030273	1.625977	1.488770	1.470000	-289.519989	58.660000	79.00	0.04	0.20
1.67	18.50	13.75	11.75	11.00	8.50	8.75	3.75	8.50	0.25	0.75	0.00	0.50	6.25	0.00	0.00	0.00	-0.113770	0.092285	0.969727	10.710000	24.080000	1.610000	1109.00	-0.21	-0.10	0.25	0.00	0.00	0.00	0.00	0.00	4.00	0.00	0.00	0.00	0.00	0.00	0.00	0.00	0.00	0.00	1.771484	1.230469	1.535156	65.309998	-324.730011	70.070000	69.00	0.06	0.24
1.68	17.00	12.50	11.00	10.50	7.75	8.50	3.75	8.50	0.25	0.50	0.00	0.75	6.50	0.00	0.00	0.50	-0.124512	0.095703	0.969727	10.850000	26.250000	0.840000	1058.00	-0.20	-0.10	0.00	0.00	0.00	0.00	0.00	0.00	4.00	0.00	0.00	0.00	0.00	0.00	0.00	0.00	0.00	0.00	1.435059	0.953613	1.577148	95.059998	-353.500000	88.269997	66.00	0.08	0.24
1.69	15.00	11.50	10.25	9.75	7.50	8.25	3.75	8.50	0.50	0.75	0.00	0.50	6.25	0.00	0.00	0.50	-0.110352	0.103516	0.934570	5.460000	28.280001	-1.050000	1002.00	-0.19	-0.10	0.00	0.00	0.00	0.00	0.00	0.00	4.00	0.00	0.00	0.00	0.00	0.00	0.00	0.00	0.00	0.00	1.124512	0.786133	1.587891	99.820000	-374.500000	111.440002	66.00	0.08	0.24
1.70	12.75	10.25	9.50	9.25	7.00	7.75	3.75	8.25	0.50	1.00	0.00	0.50	6.25	0.00	0.00	0.50	-0.116211	0.099609	0.942871	-0.210000	28.070000	-2.170000	936.00	-0.18	-0.11	0.00	0.00	0.00	0.00	0.00	0.00	3.75	0.00	0.00	0.00	0.00	0.00	0.00	0.00	0.00	0.00	0.829590	0.653809	1.591309	98.139999	-389.899994	135.240005	62.00	0.08	0.24
1.71	11.25	8.75	9.00	8.50	6.50	7.50	3.75	8.25	0.75	1.00	0.00	0.50	6.50	0.50	0.00	0.50	-0.116699	0.075195	0.951172	-4.060000	26.950001	-2.940000	890.00	-0.16	-0.11	0.00	0.00	0.25	0.00	0.00	0.00	4.00	0.00	0.00	0.00	0.00	0.00	0.00	0.00	0.00	0.00	0.547363	0.533691	1.631836	100.309998	-400.610016	155.750000	69.00	0.07	0.24
1.72	9.50	7.75	8.25	7.75	6.50	7.00	3.75	8.25	0.75	1.25	0.00	1.00	6.50	0.00	0.00	0.75	-0.139160	0.070312	0.955078	-4.060000	24.500000	-3.430000	842.00	-0.15	-0.12	0.00	0.25	0.00	0.00	0.00	0.00	4.00	0.00	0.00	0.00	0.00	0.00	0.00	0.00	0.00	0.00	0.260742	0.390137	1.698242	107.379997	-407.610016	171.570007	68.00	0.06	0.23
1.73	8.25	6.75	7.50	7.00	6.00	6.50	3.75	8.25	1.00	1.00	0.25	1.00	7.25	0.25	0.00	0.75	-0.135254	0.053711	0.946777	-2.450000	22.680000	-3.710000	800.00	-0.14	-0.12	0.00	0.00	0.00	0.00	0.00	0.00	3.75	0.00	0.00	0.00	0.00	0.00	0.00	0.00	0.00	0.00	-0.013184	0.219238	1.801758	112.279999	-411.250000	181.930008	62.00	0.08	0.24
1.74	6.50	6.00	6.75	5.75	5.75	6.25	3.75	8.25	0.75	1.50	0.50	1.75	7.75	0.25	0.00	1.00	-0.143555	0.072266	0.954102	-0.770000	21.070000	-3.920000	763.00	-0.11	-0.13	0.25	0.00	0.00	0.00	0.00	0.00	3.75	0.00	0.00	0.00	0.00	0.00	0.00	0.00	0.00	0.00	-0.196777	0.100586	1.885742	110.949997	-412.720001	187.460007	65.00	0.06	0.24
1.75	6.00	5.00	6.25	5.00	5.75	5.50	3.75	8.50	1.25	1.75	0.75	1.75	8.50	0.50	0.00	1.25	-0.148438	0.082520	0.943848	1.890000	19.740000	-4.690000	751.00	-0.09	-0.13	0.00	0.00	0.00	0.00	0.00	0.00	3.75	0.00	0.00	0.00	0.00	0.00	0.00	0.00	0.00	0.00	-0.349609	0.032227	2.056641	102.900002	-414.190002	184.869995	62.00	0.08	0.24
1.76	5.00	4.50	5.50	3.00	5.50	5.50	3.50	8.50	1.00	2.00	1.25	2.50	9.25	0.50	0.00	1.75	-0.122559	0.106934	0.968750	4.130000	19.600000	-5.810000	718.00	-0.06	-0.15	0.25	0.00	0.00	0.00	0.00	0.00	3.75	0.00	0.00	0.00	0.00	0.00	0.00	0.00	0.00	0.00	-0.473145	0.045898	2.223145	92.610001	-418.179993	174.369995	65.00	0.06	0.24
1.77	4.25	3.25	5.00	2.75	5.00	5.00	3.50	8.75	1.50	2.75	1.75	3.25	9.75	0.75	0.50	2.50	-0.163086	0.113281	0.967285	6.230000	20.650000	-7.420000	727.00	-0.03	-0.15	0.00	0.00	0.00	0.00	0.00	0.00	3.75	0.00	0.00	0.00	0.00	0.00	0.00	0.00	0.00	0.00	-0.558594	0.062500	2.387207	84.279999	-425.179993	159.110001	62.00	0.08	0.24
1.78	3.50	2.25	4.50	2.50	4.75	5.00	3.50	8.50	0.75	2.75	2.25	3.25	9.25	0.50	0.50	3.50	-0.163086	0.099121	0.970703	9.730000	22.960001	-9.310000	686.00	-0.02	-0.16	0.00	0.00	0.00	0.00	0.00	0.00	3.75	0.00	0.00	0.00	0.00	0.00	0.00	0.00	0.00	0.00	-0.704590	0.131836	2.617188	78.610001	-429.730011	125.650002	62.00	0.08	0.24
1.79	2.00	2.25	3.75	1.25	4.50	4.50	3.50	8.75	3.00	3.50	4.00	6.00	11.00	1.50	1.25	4.50	-0.152344	0.121582	0.969727	15.540000	26.389999	-11.200000	773.00	0.05	-0.16	0.00	0.00	0.00	0.00	0.00	0.00	3.75	0.00	0.00	0.00	0.00	0.00	0.00	0.00	0.00	0.00	-0.826660	0.227051	2.750977	76.790001	-422.869995	114.449997	62.00	0.08	0.24
1.80	0.00	0.00	0.25	0.00	2.75	0.00	3.00	7.75	2.00	3.50	3.50	6.00	10.50	1.00	0.75	5.00	-0.145996	0.093750	0.971680	23.170000	32.900002	-12.880000	539.00	0.13	-0.19	0.00	0.00	0.00	0.00	0.00	0.00	3.75	0.00	0.00	0.00	0.00	0.00	0.00	0.00	0.00	0.00	-1.060059	0.414551	2.852051	72.660004	-411.320007	110.320000	62.00	0.08	0.24
1.81	0.00	0.00	0.00	0.00	2.75	0.75	3.00	8.25	3.25	5.00	5.75	7.25	11.50	1.50	1.50	6.75	-0.154785	0.094238	0.964355	30.309999	37.240002	-14.770000	661.00	0.15	-0.18	0.00	0.00	0.00	0.00	0.00	0.00	3.75	0.00	0.00	0.00	0.00	0.00	0.00	0.00	0.00	0.00	-1.356445	0.781738	3.180664	65.519997	-400.260010	110.180000	62.00	0.08	0.24
1.82	0.25	0.50	1.00	0.00	3.00	2.00	3.00	8.75	5.25	7.00	7.50	8.00	13.00	3.00	2.50	7.75	-0.178711	0.082520	0.983887	37.520000	41.230000	-15.610000	833.00	0.15	-0.15	0.00	0.00	0.00	0.00	0.00	0.00	3.75	0.00	0.00	0.00	0.00	0.00	0.00	0.00	0.00	0.00	-1.643555	1.113770	3.402832	68.809998	-396.690002	118.580002	62.00	0.08	0.24
1.83	0.00	0.00	0.00	0.00	2.25	0.75	3.00	9.25	5.75	8.00	8.00	8.25	13.00	3.75	3.00	8.75	-0.175293	0.139648	1.010254	49.139999	48.090000	-17.360001	843.00	0.18	-0.15	0.00	0.00	0.00	0.00	0.00	0.00	3.75	0.00	0.00	0.00	0.00	0.00	0.00	0.00	0.00	0.00	-2.039062	1.291016	3.535645	82.669998	-397.809998	137.410004	62.00	0.08	0.24
1.84	0.50	0.25	0.75	0.00	2.50	2.75	3.00	9.50	7.00	8.50	8.75	9.75	15.00	6.25	4.25	10.00	-0.201172	0.189453	1.028320	78.330002	68.250000	-22.469999	1005.00	0.17	-0.14	0.00	0.00	0.00	0.00	0.00	0.00	3.75	0.00	0.00	0.00	0.00	0.00	0.00	0.00	0.00	0.00	-2.588379	1.344238	3.490234	97.230003	-398.579987	165.830002	62.00	0.08	0.24
1.85	0.00	0.00	0.50	0.00	2.00	2.00	2.50	9.25	7.50	8.75	9.25	10.50	16.00	7.50	6.50	12.50	-0.247559	0.203613	0.965820	87.220001	80.080002	-26.880001	1052.00	0.19	-0.15	0.00	0.00	0.00	0.00	0.00	0.00	3.75	0.00	0.00	0.00	0.00	0.00	0.00	0.00	0.00	0.00	-3.219238	1.218750	3.271484	104.720001	-395.570007	203.139999	62.00	0.08	0.24
1.86	0.00	0.00	0.50	0.50	2.00	2.50	2.50	9.50	8.00	9.25	9.75	11.00	16.75	8.50	7.25	14.00	-0.223145	0.196289	1.013672	84.139999	91.840004	-31.290001	1126.00	0.20	-0.15	0.00	0.00	0.00	0.00	0.00	0.00	3.75	0.00	0.00	0.00	0.00	0.00	0.00	0.00	0.00	0.00	-4.541504	0.672852	3.085449	92.820000	-388.920013	245.630005	62.00	0.08	0.24
1.87	0.25	0.00	0.25	0.00	1.50	2.50	2.25	9.50	8.00	9.50	10.25	11.75	17.00	9.25	8.00	15.75	-0.254883	0.213867	1.079102	82.320000	104.650002	-34.860001	1156.00	0.20	-0.15	0.00	0.00	0.00	0.00	0.00	0.00	3.75	0.00	0.00	0.00	0.00	0.00	0.00	0.00	0.00	0.00	-4.824219	0.663086	1.967285	78.190002	-350.209991	287.559998	62.00	0.08	0.24
1.88	0.00	0.25	0.50	0.00	1.50	2.50	2.25	9.25	8.25	9.75	10.75	12.00	17.50	10.50	8.75	17.00	-0.295410	0.241699	1.131836	83.510002	118.930000	-36.750000	1201.00	0.21	-0.14	0.00	0.00	0.00	0.00	0.00	0.00	3.75	0.00	0.00	0.00	0.00	0.00	0.00	0.00	0.00	0.00	-6.933105	-0.000977	0.706055	30.730000	-241.990005	336.350006	62.00	0.08	0.24
1.89	0.00	0.00	0.25	0.00	1.50	2.25	2.00	9.25	8.50	10.00	11.00	12.50	17.75	11.50	9.75	18.00	-0.312988	0.253906	1.231445	84.279999	141.889999	-37.799999	1233.00	0.22	-0.14	0.00	0.00	0.00	0.00	0.00	0.00	3.75	0.00	0.00	0.00	0.00	0.00	0.00	0.00	0.00	0.00	-6.933105	-0.000977	0.706055	30.730000	-241.990005	336.350006	62.00	0.08	0.24
1.90	0.00	0.00	0.25	0.50	1.25	2.25	2.00	9.25	8.25	10.00	11.00	12.75	17.75	12.00	10.00	18.75	-0.326172	0.247559	1.467773	78.610001	171.639999	-38.990002	1247.00	0.22	-0.14	0.00	0.00	0.00	0.00	0.00	0.00	3.75	0.00	0.00	0.00	0.00	0.00	0.00	0.00	0.00	0.00	-9.187988	-1.099121	-1.439453	100.730003	-114.940002	203.210007	62.00	0.08	0.24
1.91	0.00	0.00	0.00	0.00	1.00	1.50	2.00	8.75	8.25	10.00	11.00	12.75	17.50	12.75	10.75	19.50	-0.398926	0.425293	1.312988	83.580002	204.820007	-41.860001	1236.00	0.23	-0.14	0.00	0.00	0.00	0.00	0.00	0.00	3.75	0.00	0.00	0.00	0.00	0.00	0.00	0.00	0.00	0.00	-8.370117	-1.671875	-1.232422	88.620003	17.360001	105.489998	62.00	0.08	0.24
1.92	0.00	0.00	0.00	0.00	1.00	1.25	2.00	8.75	8.00	10.00	11.00	12.50	16.25	13.00	11.00	19.75	-0.400391	0.315430	1.475586	94.290001	244.369995	-48.160000	1221.00	0.23	-0.14	0.50	0.00	0.50	0.00	0.50	0.00	3.75	0.00	0.00	0.00	0.00	0.00	0.00	0.00	0.00	0.00	-9.050781	-1.845703	0.608398	-11.690000	191.800003	29.190001	79.00	0.00	0.21
1.93	0.00	0.00	0.00	0.00	0.75	1.00	2.00	8.25	8.25	10.00	11.25	12.25	16.25	13.75	11.50	19.75	-0.352051	0.278809	1.501953	97.019997	289.940002	-52.570000	1223.00	0.24	-0.13	2.50	1.25	1.25	0.50	0.50	0.00	3.75	0.00	0.00	0.00	0.00	0.00	0.00	0.00	0.00	0.00	-1.655273	-0.831055	-0.380371	-77.629997	384.019989	-47.880001	130.00	-0.14	0.13
1.94	0.00	0.50	0.00	0.00	1.00	0.75	2.25	8.25	8.25	10.25	11.00	12.00	15.75	13.75	12.00	19.50	-0.345703	0.346191	1.520508	90.930000	339.989990	-60.200001	1229.00	0.23	-0.13	5.50	4.25	2.50	2.00	0.75	0.00	3.50	0.25	0.00	0.00	0.00	0.00	0.00	0.25	0.25	0.25	0.483398	0.669434	3.941895	-79.800003	420.070007	-93.590004	237.00	-0.22	0.04
1.95	0.00	0.00	0.00	0.00	0.50	1.00	2.25	7.75	8.50	10.25	11.00	11.75	14.75	13.25	11.75	19.00	-0.325195	0.455566	1.593262	81.059998	388.010010	-74.410004	1193.00	0.24	-0.12	11.25	10.75	5.25	4.50	0.50	0.00	3.50	0.25	0.00	0.00	0.00	0.25	0.25	0.00	0.00	0.00	-0.291992	0.774414	2.394043	-137.550003	280.980011	-66.150002	427.00	-0.29	0.00
1.96	0.00	0.00	0.00	0.00	0.75	0.25	2.25	7.50	8.00	10.25	10.75	11.25	13.75	12.75	11.75	17.50	-0.398438	0.511230	1.423340	71.120003	430.500000	-92.470001	1144.00	0.24	-0.12	19.25	16.50	7.25	5.50	0.25	0.00	3.50	0.00	0.00	0.00	0.00	0.00	0.00	0.00	0.00	0.00	-1.567871	0.157715	3.000000	-149.520004	295.399994	-52.709999	599.00	-0.33	0.01
1.97	0.00	0.00	0.25	0.00	1.00	0.00	2.50	6.50	7.75	10.00	10.75	10.50	12.50	11.25	11.25	14.75	-0.335938	0.435547	1.051758	55.439999	493.360016	-113.959999	1072.00	0.24	-0.11	20.50	18.00	8.75	8.75	0.75	0.00	3.50	0.50	0.00	0.00	0.00	0.00	0.25	0.00	0.00	0.00	-0.850098	-0.153320	2.660156	-102.690002	367.360016	-42.980000	702.00	-0.32	-0.01
1.98	0.00	0.00	0.00	0.00	1.00	0.00	2.50	3.75	6.75	9.50	10.25	9.75	11.25	9.25	9.50	11.25	-1.637207	1.785156	3.418457	2.170000	626.500000	-161.559998	918.00	0.24	-0.10	27.75	24.00	12.50	11.50	1.50	1.25	3.75	0.75	0.00	0.00	0.00	0.00	0.50	0.00	0.00	0.00	-0.330566	-0.314453	3.736816	-67.830002	354.690002	-44.170002	958.00	-0.32	-0.02
1.99	0.00	0.00	0.00	0.00	1.00	0.00	2.50	2.75	5.75	8.50	9.00	8.75	9.75	7.00	7.25	7.75	-2.082520	1.806641	4.444336	32.970001	659.190002	-157.430008	768.00	0.24	-0.09	30.25	26.00	15.00	14.50	3.25	4.00	4.25	2.75	0.00	0.00	0.00	0.00	1.50	0.00	0.00	0.00	-0.755859	0.404297	2.844238	-67.900002	302.959991	-68.459999	1177.00	-0.30	-0.04
2.00	0.00	0.00	0.00	0.00	0.75	0.00	2.50	1.25	5.00	7.50	7.75	7.25	7.75	5.00	5.25	5.50	-2.373535	1.270020	4.647461	49.910000	667.520020	-154.770004	612.00	0.24	-0.08	32.00	26.75	18.00	16.25	6.00	7.00	4.25	2.75	0.00	0.00	0.00	0.00	1.75	0.00	0.00	0.00	-0.725098	0.715332	2.729004	-116.059998	194.180008	-47.459999	1333.00	-0.29	-0.04
2.01	0.00	0.00	0.00	0.00	1.00	0.00	2.75	0.50	3.50	5.00	5.50	5.50	5.00	2.75	3.25	3.00	-1.913574	1.071289	5.515625	102.690002	655.200012	-164.500000	427.00	0.23	-0.06	28.75	25.50	17.50	16.75	8.00	7.75	4.50	6.50	0.00	0.00	0.00	0.25	2.50	0.50	1.00	0.25	-0.406738	0.688477	1.459473	-177.169998	101.989998	-17.150000	1411.00	-0.26	-0.06
2.02	0.00	0.00	0.25	0.00	0.75	0.00	2.75	0.00	1.25	3.00	3.25	4.00	3.50	0.75	1.50	2.25	-1.103516	1.253418	4.955566	111.300003	615.929993	-198.520004	263.00	0.20	-0.07	37.25	30.50	22.00	20.00	10.25	9.50	5.00	7.75	1.00	0.75	0.50	1.00	4.25	0.75	1.25	1.00	-0.136719	-0.099121	1.372559	-122.080002	27.160000	-6.720000	1792.00	-0.24	-0.06
2.03	0.00	0.00	0.00	0.00	1.00	0.00	2.75	0.00	0.75	2.25	2.25	2.50	2.25	0.75	0.75	0.75	0.413086	1.678711	3.873047	88.199997	562.239990	-233.729996	189.00	0.18	-0.03	39.25	31.50	23.00	20.25	11.25	10.00	5.00	8.00	1.25	1.00	0.25	1.00	4.75	1.00	1.25	1.00	-0.062012	0.289062	1.135742	-73.080002	14.210000	-5.740000	1872.00	-0.24	-0.06
2.04	0.00	0.00	0.75	0.00	1.25	0.00	3.00	0.00	0.00	2.00	1.00	1.00	1.00	0.25	0.00	0.25	1.937500	2.024414	5.527344	102.410004	485.660004	-252.070007	133.00	0.10	0.05	38.50	30.75	22.75	20.25	11.75	10.25	5.25	8.25	1.50	1.00	0.50	1.25	5.00	1.25	1.25	1.00	-0.093750	0.253906	1.151367	-42.000000	13.300000	-0.700000	1884.00	-0.24	-0.06
2.05	0.50	0.00	0.50	0.00	1.25	0.00	3.00	0.00	0.00	1.50	1.50	0.75	0.25	0.00	0.00	0.25	0.062012	2.339355	1.751465	142.240005	297.079987	-341.320007	123.00	0.07	0.07	37.25	29.75	22.25	19.75	11.50	10.00	5.25	8.25	1.25	1.00	0.50	1.00	4.75	1.25	1.50	1.25	-0.062988	-0.010254	1.068848	-19.950001	13.790000	0.140000	1838.00	-0.24	-0.06
2.06	1.00	0.00	0.50	0.00	1.25	0.00	3.25	0.00	0.50	1.50	0.75	0.50	0.00	0.25	0.00	0.25	3.062988	2.736816	4.797852	107.730003	34.720001	-305.130005	128.00	0.05	0.12	36.00	28.50	21.50	19.25	11.25	10.00	5.25	8.00	1.50	1.25	0.50	1.25	5.25	1.50	1.25	1.25	-0.053711	0.111816	1.007324	-3.080000	10.710000	-2.380000	1802.00	-0.23	-0.06
2.07	0.00	0.00	0.00	0.00	1.25	0.00	3.00	0.00	0.25	2.00	0.50	0.50	0.00	0.00	0.00	0.25	2.258789	1.401367	3.486328	36.400002	-118.440002	-193.970001	104.00	0.11	0.12	34.25	27.25	20.75	18.50	11.00	9.75	5.25	8.25	1.25	1.25	0.75	1.25	5.25	1.25	1.50	1.00	-0.034180	0.182617	0.985352	1.890000	12.320000	-1.610000	1748.00	-0.23	-0.06
2.08	0.25	0.00	0.50	0.00	1.25	0.00	3.00	0.00	0.50	1.50	0.75	0.50	0.00	0.00	0.00	0.00	1.777344	1.228516	2.773926	-81.480003	-185.149994	-116.480003	112.00	0.08	0.13	32.00	25.25	19.50	17.50	10.75	9.50	5.25	8.25	1.75	1.25	0.50	1.50	5.50	1.25	1.25	1.25	-0.027344	0.101074	1.003906	2.870000	16.870001	-1.400000	1677.00	-0.22	-0.06
2.09	0.25	0.00	0.25	0.00	1.25	0.00	3.25	0.00	0.50	1.25	0.50	0.00	0.00	0.00	0.00	0.00	1.920898	1.771973	1.940918	-134.399994	-220.290009	-46.200001	101.00	0.07	0.16	29.50	23.00	18.50	16.50	10.00	9.25	5.00	8.00	1.50	1.25	0.50	1.25	5.50	1.25	1.25	1.25	-0.017578	0.097656	0.995117	6.860000	21.139999	-3.080000	1576.00	-0.22	-0.07
2.10	0.00	0.00	1.00	0.00	1.25	0.00	3.25	0.00	0.00	1.00	0.25	0.00	0.00	0.00	0.00	0.00	1.743164	1.744141	1.827637	-133.419998	-248.220001	10.710000	95.00	0.03	0.16	26.00	19.75	16.50	15.00	9.50	9.00	5.00	8.00	1.50	1.50	0.50	1.00	5.50	1.00	1.50	1.25	-0.023926	0.143555	0.984863	9.170000	26.740000	-3.500000	1452.00	-0.20	-0.07
2.11	0.00	0.00	0.50	0.00	1.50	0.00	3.25	0.00	0.25	1.00	0.00	0.00	0.00	0.00	0.00	0.00	1.546387	1.477539	1.648926	-74.059998	-280.489990	47.180000	93.00	0.04	0.18	22.00	16.25	14.75	13.25	8.75	8.75	5.00	8.00	1.00	1.00	0.50	1.25	5.25	0.75	0.50	1.00	-0.028320	0.135254	0.994141	8.960000	32.759998	-3.710000	1290.00	-0.20	-0.08
2.12	0.00	0.00	0.50	0.00	1.25	0.00	3.00	0.00	0.00	1.25	0.00	0.25	0.00	0.00	0.00	0.00	1.303711	1.136230	1.549316	-11.900000	-312.410004	70.559998	88.00	0.05	0.15	13.75	10.50	12.00	9.75	7.00	6.75	4.75	7.50	0.25	1.25	0.00	0.25	4.50	0.00	0.00	0.25	-0.031250	0.122070	0.989258	10.150000	35.840000	-4.690000	957.00	-0.19	-0.08
2.13	0.00	0.00	0.50	0.00	1.25	0.00	3.25	0.00	0.00	0.50	0.00	0.00	0.00	0.00	0.00	0.00	0.762695	0.528320	1.561523	60.130001	-373.519989	100.730003	80.00	0.03	0.18	11.00	7.50	9.00	8.25	6.00	6.50	4.50	7.50	0.00	0.25	0.00	0.25	5.00	0.50	1.00	1.25	-0.024414	0.121094	0.965820	10.570000	39.060001	-5.880000	833.00	-0.16	-0.10
2.14	0.50	0.00	0.25	0.00	1.25	0.00	3.00	0.00	0.25	0.75	0.00	0.00	0.00	0.00	0.00	0.00	0.493652	0.362793	1.588379	73.290001	-400.399994	113.400002	85.00	0.02	0.18	8.25	6.00	7.75	6.75	5.25	6.00	4.50	7.25	0.00	0.50	0.00	0.50	5.25	0.00	0.25	0.25	-0.025391	0.130859	0.955078	5.950000	41.580002	-7.560000	724.00	-0.16	-0.11
2.15	0.25	0.00	0.25	0.00	1.25	0.00	3.00	0.00	0.00	0.75	0.00	0.00	0.00	0.00	0.00	0.00	0.268066	0.208008	1.518555	80.150002	-422.170013	124.879997	79.00	0.03	0.18	6.50	4.75	6.50	5.50	4.75	5.50	4.50	7.25	0.00	0.50	0.00	0.50	6.00	0.25	0.00	0.25	-0.080078	0.149902	0.993164	0.560000	41.720001	-10.780000	656.00	-0.14	-0.12
2.16	0.25	0.00	0.50	0.00	1.25	0.00	3.00	0.00	0.00	0.75	0.00	0.00	0.00	0.00	0.00	0.00	0.085938	0.072266	1.462402	85.610001	-436.239990	134.610001	82.00	0.02	0.17	5.50	3.25	5.50	4.75	3.75	5.00	4.50	7.25	0.00	0.75	0.00	0.75	6.50	0.25	0.00	0.25	-0.086914	0.134277	0.958008	-0.210000	39.130001	-13.580000	600.00	-0.11	-0.13
2.17	0.25	0.00	0.75	0.00	1.25	0.00	3.00	0.00	0.25	0.75	0.00	0.00	0.00	0.00	0.00	0.00	-0.151367	-0.008301	1.498047	90.580002	-442.330017	141.889999	88.00	0.02	0.18	4.75	2.25	4.75	2.75	3.00	4.25	4.50	7.25	0.00	0.75	0.00	1.00	7.00	0.25	0.25	1.00	-0.101562	0.187500	1.021484	0.560000	37.240002	-17.500000	546.00	-0.08	-0.14
2.18	0.25	0.00	0.50	0.00	1.25	0.00	3.00	0.00	0.00	0.50	0.00	0.00	0.00	0.00	0.00	0.00	-0.361816	-0.088379	1.571777	88.059998	-443.869995	146.089996	79.00	0.01	0.18	3.50	1.50	3.25	2.25	2.75	3.25	4.25	7.00	0.25	0.75	0.00	1.25	7.75	0.50	0.00	1.50	-0.020996	0.189941	1.040527	2.590000	38.290001	-19.600000	493.00	-0.05	-0.15
2.19	0.00	0.00	0.50	0.00	1.25	0.00	3.00	0.00	0.00	0.25	0.00	0.00	0.00	0.00	0.00	0.00	-0.514648	-0.080566	1.604980	76.230003	-444.500000	148.119995	73.00	0.02	0.19	2.75	0.25	2.75	1.75	2.25	2.25	4.25	7.00	0.50	1.25	0.50	1.75	9.00	0.50	0.50	2.75	-0.129883	0.113770	1.001953	14.490000	44.520000	-21.350000	487.00	0.01	-0.17
2.20	0.25	0.00	0.25	0.00	1.25	0.00	3.00	0.00	0.00	0.25	0.00	0.00	0.00	0.00	0.00	0.00	-0.601562	-0.020020	1.725586	59.570000	-442.399994	148.050003	73.00	0.01	0.19	2.00	1.25	2.00	1.50	2.00	2.00	4.25	7.00	0.50	1.50	0.75	2.50	10.00	0.75	0.75	4.25	-0.143066	0.129883	1.012207	21.490000	49.490002	-22.680000	509.00	0.03	-0.18
2.21	0.00	0.00	0.75	0.00	1.00	0.00	3.00	0.00	0.00	0.50	0.00	0.00	0.00	0.00	0.00	0.00	-0.672363	0.085938	1.867676	44.310001	-439.739990	146.369995	76.00	0.02	0.18	1.75	1.00	1.75	1.00	1.75	2.00	4.25	7.00	0.50	2.00	1.25	3.50	10.50	1.25	1.25	5.50	-0.108398	0.163086	0.946777	28.350000	50.959999	-23.940001	537.00	0.06	-0.19
2.22	0.00	0.00	0.75	0.00	1.25	0.00	3.00	0.00	0.00	0.50	0.00	0.00	0.00	0.00	0.00	0.00	-0.689941	0.209473	2.077637	34.650002	-439.390015	145.320007	79.00	0.01	0.18	0.00	0.75	1.25	0.50	1.50	1.75	4.00	7.00	0.75	2.50	2.25	4.50	11.25	1.50	2.00	7.75	-0.145020	0.145508	1.042480	33.320000	51.590000	-26.389999	556.00	0.12	-0.20
2.23	0.00	0.00	0.50	0.00	1.25	0.00	3.00	0.00	0.00	0.50	0.00	0.00	0.00	0.00	0.00	0.00	-0.756836	0.409180	2.422852	31.780001	-443.380005	147.210007	76.00	0.02	0.18	0.50	0.50	1.25	0.50	1.50	1.75	4.00	7.00	1.50	3.25	3.00	6.50	12.00	2.50	2.75	9.25	-0.158691	0.176758	0.943359	39.970001	50.820000	-28.910000	644.00	0.14	-0.19
2.24	0.00	0.00	0.25	0.00	1.25	0.00	3.00	0.00	0.00	0.25	0.00	0.00	0.00	0.00	0.00	0.00	-0.895996	0.605957	2.836426	33.110001	-452.970001	158.059998	70.00	0.03	0.19	1.00	0.50	1.00	1.25	1.00	2.00	3.75	7.25	1.75	4.25	4.25	8.00	12.75	3.75	4.00	11.00	-0.189453	0.314453	1.096191	51.240002	50.330002	-34.860001	742.00	0.15	-0.18
2.25	0.00	0.00	0.25	0.25	1.25	0.25	3.25	0.00	0.00	0.25	0.00	0.00	0.00	0.00	0.00	0.00	-1.102539	0.715332	3.219727	31.639999	-464.660004	183.680008	80.00	0.01	0.16	0.00	0.50	1.00	0.25	1.00	1.75	3.75	7.50	2.25	6.00	5.50	8.50	13.50	5.00	5.00	12.75	-0.189453	0.314453	1.096191	51.240002	50.330002	-34.860001	808.00	0.18	-0.17
2.26	0.00	0.00	0.50	0.00	1.50	0.00	3.00	0.00	0.00	0.25	0.00	0.00	0.00	0.00	0.00	0.00	-1.426758	0.777344	3.504395	24.430000	-476.209991	222.740005	76.00	0.01	0.18	0.50	0.25	0.25	0.50	0.75	2.00	3.50	7.50	2.50	7.25	7.00	9.00	14.25	6.50	6.25	14.50	-0.181152	0.344238	1.164062	83.790001	76.300003	-56.209999	887.00	0.19	-0.17
2.27	0.25	0.00	0.25	0.00	1.00	0.00	3.00	0.00	0.00	0.50	0.00	0.00	0.00	0.00	0.00	0.00	-2.581543	0.937012	3.841797	10.850000	-493.500000	303.730011	73.00	0.03	0.19	0.00	0.25	0.50	0.00	0.50	2.00	3.25	7.50	3.00	7.75	7.75	9.50	14.75	7.75	8.00	16.25	-0.235352	0.334473	1.101562	95.620003	90.370003	-64.680000	945.00	0.21	-0.17
2.28	0.00	0.00	0.25	0.00	1.50	0.00	3.00	0.00	0.00	0.25	0.00	0.00	0.00	0.00	0.00	0.00	-3.351074	0.969238	3.851074	-24.360001	-500.149994	324.239990	73.00	0.02	0.18	0.25	0.25	0.50	0.50	0.50	2.00	3.00	7.50	3.25	8.00	8.25	10.00	15.25	8.75	8.75	17.50	-0.232910	0.257812	1.162598	100.870003	105.489998	-71.400002	998.00	0.21	-0.16
2.29	0.50	0.00	0.50	0.00	1.25	0.00	3.00	0.00	0.00	0.25	0.00	0.00	0.00	0.00	0.00	0.00	-4.154785	1.027344	3.551270	-50.259998	-497.769989	330.119995	79.00	-0.01	0.18	0.00	0.25	0.00	0.25	0.25	2.25	2.75	7.50	3.50	8.25	8.75	10.50	15.50	9.50	9.50	19.00	-0.253418	0.275391	1.180176	102.550003	120.540001	-74.199997	1027.00	0.22	-0.17
2.30	0.00	0.00	0.75	0.00	1.00	0.00	3.00	0.00	0.00	0.25	0.00	0.00	0.00	0.00	0.00	0.00	-4.967773	1.074219	3.051758	-74.129997	-481.040009	315.209991	73.00	0.01	0.19	0.00	0.25	0.00	0.50	0.00	2.25	2.75	7.50	3.50	8.25	9.00	10.75	15.75	10.25	10.50	20.50	-0.291992	0.354004	1.145996	106.959999	137.410004	-77.769997	1062.00	0.22	-0.17
2.31	0.25	1.00	0.25	0.00	1.25	0.00	3.00	0.00	0.00	0.25	0.00	0.00	0.00	0.00	0.00	0.00	-5.980469	1.400391	2.251465	-117.389999	-451.149994	273.000000	83.00	-0.04	0.14	0.00	0.25	0.00	0.50	0.00	2.50	2.75	7.50	3.75	8.50	9.00	11.00	15.75	11.00	11.25	21.50	-0.292969	0.382324	1.211426	109.760002	160.369995	-83.300003	1096.00	0.23	-0.16
2.32	0.00	0.00	0.25	0.00	1.50	0.00	3.25	0.00	0.00	0.00	0.00	0.00	0.00	0.00	0.00	0.00	-6.803711	1.910645	0.940430	-145.250000	-402.570007	203.000000	75.00	0.02	0.19	0.50	0.25	0.00	0.25	0.00	2.25	2.75	7.25	3.75	8.50	9.00	11.00	15.75	11.50	11.75	22.25	-0.344238	0.398926	1.261719	110.320000	185.850006	-90.510002	1106.00	0.23	-0.16
2.33	0.00	0.25	0.50	0.00	1.25	0.00	3.00	0.00	0.00	0.00	0.00	0.00	0.00	0.00	0.00	0.00	-8.575195	2.334961	-0.487793	-87.150002	-343.000000	106.610001	73.00	-0.01	0.18	0.00	0.25	0.00	0.50	0.00	2.25	2.75	7.25	4.00	8.50	9.00	11.00	15.50	12.00	12.50	23.00	-0.360840	0.489258	1.301758	114.449997	209.020004	-101.150002	1122.00	0.23	-0.16
2.34	0.25	0.00	0.50	0.00	1.50	0.00	3.00	0.25	0.00	0.00	0.00	0.00	0.00	0.00	0.00	0.00	-10.468750	1.790527	-1.687012	103.459999	-263.619995	6.370000	80.00	-0.01	0.15	0.00	0.25	0.00	0.00	0.00	2.25	3.00	7.00	3.75	8.75	9.00	11.00	15.25	12.50	13.25	23.00	-0.316895	0.415039	1.354980	112.840004	236.669998	-112.910004	1127.00	0.24	-0.15
2.35	0.25	0.00	0.75	0.00	1.50	0.00	3.00	0.00	0.00	0.00	0.00	0.00	0.00	0.00	0.00	0.00	-9.514160	-0.214844	-1.727051	274.750000	-128.660004	-56.070000	79.00	-0.02	0.18	0.00	0.00	0.00	0.25	0.00	2.25	3.00	7.00	3.75	8.75	9.25	10.50	15.00	12.25	13.50	23.50	-0.329590	0.287598	1.483398	102.620003	269.220001	-122.010002	1125.00	0.24	-0.15
2.36	0.00	0.00	0.50	0.00	1.50	0.00	3.25	0.00	0.00	0.00	0.00	0.00	0.00	0.00	0.00	0.00	-8.215332	-1.687988	-0.444824	218.470001	28.630001	-78.750000	78.00	0.01	0.19	0.00	0.00	0.00	0.00	0.00	2.00	3.25	6.75	3.50	8.75	9.25	10.50	14.75	12.00	14.00	23.25	-0.313965	0.197266	1.278320	84.769997	308.000000	-123.900002	1115.00	0.24	-0.15
2.37	1.00	0.25	1.25	0.00	1.75	0.00	3.00	0.00	0.00	0.00	0.00	0.00	0.00	0.00	0.00	0.00	-8.899902	-1.434082	0.179199	17.150000	126.699997	-69.860001	99.00	-0.08	0.16	0.00	0.00	0.00	0.00	0.00	2.00	3.25	6.25	3.25	8.75	9.00	10.25	14.00	11.50	14.00	22.75	-0.331055	0.297363	1.493652	79.519997	356.440002	-123.900002	1083.00	0.24	-0.15
2.38	3.50	3.25	2.50	1.75	2.25	0.00	3.00	0.00	0.00	0.00	0.00	0.00	0.00	0.00	0.00	0.00	1.716797	-0.030273	0.098145	-11.900000	275.170013	-76.090004	200.00	-0.22	0.05	0.00	0.00	0.00	0.00	0.00	1.00	3.50	6.00	3.50	8.75	9.25	10.00	13.75	10.50	13.75	21.50	-0.587891	1.042969	1.170410	62.090000	464.170013	-155.539993	1053.00	0.25	-0.14
2.39	11.25	9.25	5.25	4.75	2.00	0.00	2.75	0.00	0.00	0.00	0.00	0.00	0.00	0.00	0.00	0.00	1.071289	0.666504	1.518555	-89.110001	294.279999	-80.080002	411.00	-0.30	0.01	0.00	0.00	0.00	0.00	0.00	1.25	3.50	5.50	2.25	8.75	10.00	9.75	13.25	9.00	12.75	19.00	-0.896973	1.363281	1.907227	62.650002	517.299988	-184.660004	990.00	0.24	-0.15
2.40	18.50	14.50	7.25	7.50	1.50	0.00	2.75	0.00	0.00	0.00	0.00	0.00	0.00	0.00	0.00	0.00	-0.137207	2.455566	-0.363281	-158.759995	275.519989	-33.320000	597.00	-0.32	-0.00	0.00	0.00	0.00	0.00	0.00	0.50	3.50	3.75	1.25	7.50	8.75	8.75	12.25	7.25	10.50	15.50	-1.053711	1.732910	2.646973	62.930000	551.179993	-215.110001	825.00	0.24	-0.15
2.41	21.75	17.75	8.25	9.00	1.50	0.00	2.75	0.25	0.00	0.00	0.00	0.00	0.00	0.00	0.00	0.00	-1.328613	0.996094	1.390625	-124.879997	437.920013	22.889999	701.00	-0.33	-0.01	0.00	0.00	0.00	0.00	0.00	0.00	3.75	2.25	1.50	7.00	7.50	7.75	10.25	6.00	8.75	11.25	-1.800293	2.544922	3.470703	67.970001	570.289978	-237.790009	695.00	0.25	-0.13
2.42	25.00	20.50	10.00	11.00	1.75	2.25	2.75	1.25	0.00	0.00	0.00	0.25	0.00	0.00	0.00	0.00	-2.035645	-0.934082	4.634277	-21.700001	513.659973	72.940002	860.00	-0.32	-0.03	1.25	1.00	0.75	0.00	0.00	0.00	3.50	1.25	0.75	4.50	5.00	5.50	8.50	3.50	6.00	7.50	-2.110840	2.542969	3.933594	95.690002	558.179993	-247.800003	520.00	0.20	-0.12
2.43	26.50	21.50	12.50	13.00	3.50	8.00	3.00	4.75	0.00	0.00	0.00	0.50	0.50	0.00	0.00	0.00	-1.399414	0.979492	5.620605	33.670002	417.059998	-59.849998	1101.00	-0.28	-0.06	0.00	0.00	0.00	0.00	0.00	0.00	3.50	0.50	0.00	2.50	2.25	3.50	7.25	1.50	3.75	5.00	-1.746582	2.087891	4.631348	141.539993	528.220032	-290.079987	315.00	0.23	-0.14
2.44	23.75	20.25	13.00	13.50	5.25	10.00	3.50	8.00	0.00	0.00	0.00	0.75	2.75	0.00	0.00	0.00	-0.997559	1.165527	2.591797	-65.239998	234.779999	-39.619999	1201.00	-0.25	-0.09	0.00	0.00	0.00	0.00	0.00	0.00	3.50	0.50	0.00	1.25	0.50	2.25	4.75	0.00	2.25	2.50	-0.599609	2.395996	4.088379	182.139999	487.899994	-345.380005	197.00	0.19	-0.12
2.45	26.25	21.00	14.75	14.25	6.75	11.25	3.50	9.00	0.00	0.00	0.00	1.00	4.75	0.00	0.00	0.00	-0.647461	0.554688	2.550781	-161.839996	121.800003	-3.710000	1338.00	-0.24	-0.09	0.00	0.00	0.00	0.00	0.00	0.00	3.50	0.50	0.00	0.50	0.25	1.50	3.00	0.00	1.00	1.25	0.005859	1.997070	3.676270	197.889999	456.119995	-410.269989	139.00	0.16	-0.08
2.46	22.75	18.50	13.25	13.00	7.50	10.75	3.50	9.25	0.00	0.00	0.25	0.75	3.25	0.00	0.00	0.00	-0.274902	-0.473145	1.700684	-153.020004	48.790001	-6.720000	1233.00	-0.23	-0.09	0.00	0.25	0.25	0.00	0.00	0.00	4.00	0.25	0.00	0.00	0.00	1.00	0.00	0.00	0.75	0.50	2.022461	2.292480	4.243164	181.580002	365.679993	-466.200012	99.00	0.10	0.09
2.47	16.25	14.75	11.00	11.00	6.75	9.50	3.50	9.00	0.00	0.00	0.00	0.50	6.00	0.00	0.00	0.00	-0.146484	-0.066406	0.995605	-92.260002	14.560000	-13.510000	1062.00	-0.21	-0.11	0.00	0.00	0.00	0.00	0.00	0.00	4.00	0.00	0.00	1.00	0.50	1.25	0.75	0.75	1.50	1.25	0.674805	1.939453	3.839355	254.240005	210.000000	-565.460022	136.00	0.19	0.04
2.48	19.50	17.00	14.00	13.75	8.25	11.50	3.75	10.25	0.00	0.25	0.00	1.25	6.75	0.00	0.00	0.50	-0.212402	0.412109	1.022461	-63.490002	12.740000	-6.230000	1280.00	-0.21	-0.11	0.75	0.50	0.50	0.00	0.00	0.00	4.00	0.00	0.00	0.50	0.00	0.25	0.00	0.00	0.00	0.00	1.753418	4.545898	8.058105	168.559998	23.450001	-502.600006	94.00	0.00	0.17
2.49	23.25	18.25	14.00	13.50	8.75	11.75	3.75	10.25	0.00	0.50	0.00	1.50	7.00	0.00	0.00	0.25	-0.114746	0.213867	0.978516	-61.670002	15.750000	-3.150000	1347.00	-0.21	-0.11	0.00	0.00	0.00	0.00	0.00	0.00	4.00	0.00	0.25	0.75	0.25	0.50	0.00	0.00	0.50	0.25	1.590820	2.345703	2.931152	-169.889999	-283.429993	-155.960007	94.00	0.14	0.15
2.50	23.25	17.75	13.75	13.25	9.25	11.50	4.00	10.25	0.25	0.75	0.25	1.25	7.25	0.00	0.00	0.50	-0.106934	-0.007324	1.044434	-56.209999	13.440001	-6.020000	1353.00	-0.21	-0.10	0.00	0.00	0.00	0.00	0.00	0.00	4.00	0.00	0.00	0.50	0.00	0.25	0.00	0.00	0.50	0.25	1.887207	2.687012	1.663086	-252.139999	-304.149994	-33.459999	82.00	0.12	0.18
2.51	22.50	17.00	13.50	13.00	9.25	11.50	4.00	10.25	0.25	1.00	0.25	1.50	7.50	0.00	0.00	0.25	-0.122070	0.127930	1.020508	-35.770000	9.310000	-6.720000	1338.00	-0.20	-0.10	0.00	0.00	0.00	0.00	0.00	0.00	4.00	0.00	0.00	0.50	0.00	0.00	0.00	0.00	0.50	0.25	1.849121	2.778320	1.391602	-245.000000	-310.029999	56.209999	79.00	0.12	0.20
2.52	21.25	16.00	13.00	12.50	9.50	11.00	4.25	10.25	0.50	1.00	0.00	1.25	7.50	0.00	0.00	0.50	-0.103516	0.142090	0.978027	-24.639999	11.760000	-4.480000	1302.00	-0.20	-0.10	0.00	0.00	0.00	0.00	0.00	0.00	4.00	0.00	0.00	0.50	0.25	0.25	0.00	0.00	0.50	0.25	1.643555	2.645996	1.258789	-150.080002	-317.799988	116.410004	85.00	0.13	0.17
2.53	20.00	15.00	12.25	12.00	9.50	10.75	4.25	10.00	0.50	1.00	0.25	1.50	7.50	0.00	0.00	0.50	-0.132812	0.089355	1.008789	-21.700001	15.610000	-3.710000	1261.00	-0.19	-0.10	0.00	0.00	0.00	0.00	0.00	0.00	4.00	0.00	0.00	0.25	0.00	0.00	0.00	0.00	0.00	0.00	1.386719	2.008789	1.215332	-49.420002	-333.690002	162.680008	69.00	0.09	0.24
2.54	18.25	13.50	11.75	11.50	9.25	10.00	4.00	10.00	0.75	1.00	0.50	1.25	7.50	0.00	0.00	0.50	-0.104004	0.062988	0.990723	-16.100000	19.320000	-3.920000	1202.00	-0.19	-0.11	0.00	0.00	0.00	0.00	0.00	0.00	4.00	0.00	0.00	0.00	0.00	0.00	0.00	0.00	0.25	0.00	1.073730	1.482910	1.371094	19.809999	-349.369995	197.050003	69.00	0.09	0.23
2.55	16.75	12.50	11.00	10.75	9.00	9.75	4.00	9.75	0.50	1.00	0.25	1.50	7.25	0.00	0.00	0.50	-0.104492	0.071289	0.993164	-9.380000	23.520000	-3.290000	1141.00	-0.18	-0.11	0.00	0.00	0.00	0.00	0.00	0.00	4.00	0.00	0.00	0.00	0.00	0.00	0.00	0.00	0.00	0.00	0.838379	0.998535	1.396973	51.099998	-362.390015	219.660004	66.00	0.08	0.24
2.56	15.00	11.00	10.50	10.00	8.75	9.25	4.00	9.50	0.75	1.00	0.50	1.50	7.25	0.00	0.00	0.50	-0.112305	0.061523	0.978027	-3.640000	27.230000	-2.800000	1084.00	-0.17	-0.11	0.00	0.00	0.00	0.00	0.00	0.00	4.00	0.00	0.00	0.00	0.00	0.00	0.00	0.00	0.00	0.00	0.631348	0.678223	1.461426	61.670002	-373.100006	228.970001	66.00	0.08	0.24
2.57	13.25	9.50	9.50	9.25	8.25	9.00	4.00	9.50	1.00	1.25	0.50	1.50	7.50	0.00	0.00	0.75	-0.119141	0.057129	0.974609	2.660000	29.330000	-1.960000	1029.00	-0.16	-0.11	0.00	0.00	0.00	0.00	0.00	0.00	3.75	0.00	0.00	0.00	0.00	0.00	0.00	0.00	0.00	0.00	0.451660	0.482910	1.507324	70.910004	-384.160004	225.119995	62.00	0.08	0.24
2.58	11.25	8.50	8.75	8.75	7.75	8.50	3.75	9.25	0.75	1.25	0.50	1.75	7.50	0.00	0.00	0.75	-0.100098	0.072754	0.977051	12.110000	31.290001	-1.050000	960.00	-0.15	-0.12	0.00	0.00	0.00	0.00	0.00	0.00	3.75	0.00	0.00	0.00	0.00	0.00	0.00	0.00	0.00	0.00	0.267090	0.349609	1.639160	84.419998	-396.200012	211.539993	62.00	0.08	0.24
2.59	9.25	7.75	8.50	8.00	7.25	8.25	3.75	9.25	0.75	1.00	0.25	1.75	7.75	0.00	0.00	0.75	-0.104492	0.106934	0.965820	14.350000	32.270000	-2.170000	906.00	-0.14	-0.13	0.00	0.00	0.00	0.00	0.00	0.00	3.75	0.00	0.00	0.00	0.00	0.00	0.00	0.00	0.00	0.00	0.104492	0.266113	1.851562	104.230003	-412.089996	191.660004	62.00	0.08	0.24
2.60	7.75	6.50	7.50	7.00	6.50	7.75	3.75	9.25	1.00	1.25	0.50	2.00	8.00	0.00	0.00	0.50	-0.142090	0.105469	0.962402	14.980000	33.389999	-3.500000	850.00	-0.12	-0.14	0.00	0.00	0.00	0.00	0.00	0.00	3.75	0.00	0.00	0.00	0.00	0.00	0.00	0.00	0.00	0.00	-0.045898	0.205566	2.060547	124.879997	-432.670013	169.680008	62.00	0.08	0.24
2.61	6.75	5.25	6.75	5.50	6.25	6.75	3.50	9.00	1.00	1.25	1.00	2.50	8.25	0.00	0.00	0.75	-0.180664	0.092773	0.937012	14.980000	34.860001	-5.040000	791.00	-0.10	-0.14	0.00	0.00	0.00	0.00	0.00	0.00	3.75	0.00	0.00	0.00	0.00	0.00	0.00	0.00	0.00	0.00	-0.200684	0.127441	2.235840	138.669998	-453.529999	148.259995	62.00	0.08	0.24
2.62	5.50	3.50	5.25	4.25	5.50	5.00	3.50	8.50	0.50	1.00	1.00	2.50	8.50	0.00	0.00	1.25	-0.146973	0.086426	0.941406	15.540000	34.580002	-6.720000	683.00	-0.08	-0.15	0.00	0.00	0.00	0.00	0.00	0.00	3.75	0.00	0.00	0.00	0.00	0.00	0.00	0.00	0.00	0.00	-0.538086	0.071289	2.318359	139.509995	-480.130005	121.449997	62.00	0.08	0.24
2.63	0.25	0.00	2.25	0.00	3.75	2.75	3.25	9.00	0.00	0.50	0.00	2.00	8.00	0.00	0.00	0.75	-0.150391	0.099121	0.928711	17.290001	33.670002	-9.240000	420.00	0.01	-0.22	0.00	0.00	0.00	0.00	0.00	0.00	3.75	0.00	0.00	0.00	0.00	0.00	0.00	0.00	0.00	0.00	-0.619629	0.136719	2.394043	135.520004	-481.040009	117.599998	62.00	0.08	0.24
2.64	0.75	0.00	0.75	0.00	3.25	1.75	3.25	8.00	0.00	0.50	0.75	2.75	8.75	0.00	0.00	1.00	-0.105469	0.115723	0.945801	22.400000	34.509998	-11.550000	399.00	0.04	-0.23	0.00	0.00	0.00	0.00	0.00	0.00	3.75	0.00	0.00	0.00	0.00	0.00	0.00	0.00	0.00	0.00	-0.652832	0.217773	2.528320	136.149994	-475.860016	117.320000	62.00	0.08	0.24
2.65	0.00	0.00	0.00	0.00	2.75	1.00	3.25	8.00	0.00	1.25	1.50	4.00	9.50	0.00	0.00	2.50	-0.105469	0.053711	1.035156	34.860001	42.700001	-12.880000	414.00	0.08	-0.24	0.00	0.00	0.00	0.00	0.00	0.00	3.75	0.00	0.00	0.00	0.00	0.00	0.00	0.00	0.00	0.00	-0.677246	0.261230	2.770020	143.850006	-468.299988	119.629997	62.00	0.08	0.24
2.66	0.00	0.00	0.25	0.00	2.25	1.00	3.25	8.75	2.25	2.75	3.00	6.25	11.00	0.25	0.50	4.25	-0.170898	0.118164	0.958984	47.810001	51.520000	-16.030001	548.00	0.12	-0.21	0.00	0.00	0.00	0.00	0.00	0.00	3.75	0.00	0.00	0.00	0.00	0.00	0.00	0.00	0.00	0.00	-0.814453	0.290527	3.101074	156.100006	-463.470001	123.480003	62.00	0.08	0.24
2.67	0.00	0.00	1.00	0.00	2.50	1.75	3.25	8.50	1.75	3.00	4.00	7.75	12.00	1.00	1.50	6.50	-0.157715	0.156738	0.945801	58.170002	57.820000	-19.320000	631.00	0.13	-0.21	0.00	0.00	0.00	0.00	0.00	0.00	3.75	0.00	0.00	0.00	0.00	0.00	0.00	0.00	0.00	0.00	-1.083984	0.352051	3.403320	167.580002	-460.250000	132.860001	62.00	0.08	0.24
2.68	0.25	0.50	0.75	0.00	2.25	2.00	3.00	8.50	2.50	3.75	6.00	8.25	13.00	1.25	2.00	7.75	-0.159668	0.188477	0.987305	62.790001	62.439999	-24.570000	704.00	0.14	-0.20	0.00	0.00	0.00	0.00	0.00	0.00	3.50	0.00	0.00	0.00	0.00	0.00	0.00	0.00	0.00	0.00	-1.460449	0.403809	3.781738	171.080002	-453.600006	152.180008	58.00	0.08	0.24
2.69	0.00	0.00	0.50	0.00	2.00	2.25	2.75	8.50	3.50	5.50	7.50	9.00	13.75	3.00	3.50	9.25	-0.170410	0.230957	0.983887	66.779999	69.019997	-30.940001	799.00	0.16	-0.19	0.00	0.00	0.00	0.00	0.00	0.00	3.75	0.00	0.00	0.00	0.00	0.00	0.00	0.00	0.00	0.00	-1.928223	0.437500	4.036621	157.919998	-444.570007	181.649994	62.00	0.08	0.24
2.70	0.00	0.00	0.25	0.00	1.75	1.75	2.75	8.50	4.50	6.75	8.00	9.75	14.50	4.75	5.25	10.50	-0.237793	0.275391	0.995117	58.240002	83.790001	-42.490002	880.00	0.18	-0.17	0.00	0.00	0.00	0.00	0.00	0.00	3.75	0.00	0.00	0.00	0.00	0.00	0.00	0.00	0.00	0.00	-2.440918	0.487793	4.026855	126.000000	-432.390015	216.440002	62.00	0.08	0.24
2.71	0.00	0.00	0.00	0.00	2.00	2.00	2.50	8.25	6.00	7.75	8.75	10.25	15.50	6.50	6.50	12.25	-0.237793	0.275391	0.995117	58.240002	83.790001	-42.490002	972.00	0.20	-0.16	0.00	0.00	0.00	0.00	0.00	0.00	3.75	0.00	0.00	0.00	0.00	0.00	0.00	0.00	0.00	0.00	-3.095703	0.623535	3.751953	89.180000	-416.149994	248.220001	62.00	0.08	0.24
2.72	0.00	0.00	0.00	0.00	1.75	1.75	2.25	8.50	6.75	8.25	9.25	10.75	15.75	8.25	7.25	13.75	-0.259766	0.362793	1.006348	60.480000	92.400002	-54.740002	1030.00	0.21	-0.15	0.00	0.00	0.00	0.00	0.00	0.00	3.75	0.00	0.00	0.00	0.00	0.00	0.00	0.00	0.00	0.00	-3.900391	0.700684	3.284668	64.050003	-394.869995	271.739990	62.00	0.08	0.24
2.73	0.00	0.00	0.50	0.00	1.25	2.25	2.00	8.25	7.75	8.50	9.75	11.25	16.00	9.50	8.00	15.00	-0.305176	0.359375	1.167969	61.389999	119.980003	-80.709999	1087.00	0.21	-0.14	0.00	0.00	0.00	0.00	0.00	0.00	3.75	0.00	0.00	0.00	0.00	0.00	0.00	0.00	0.00	0.00	-4.872559	0.680176	2.669922	54.529999	-367.010010	289.100006	62.00	0.08	0.24
2.74	0.00	0.00	0.00	0.00	1.75	2.00	1.75	8.25	8.00	9.00	10.00	11.50	15.75	10.75	9.00	16.25	-0.339844	0.340820	1.301758	59.290001	137.130005	-88.269997	1123.00	0.22	-0.14	0.00	0.00	0.00	0.00	0.00	0.00	3.75	0.00	0.00	0.00	0.00	0.00	0.00	0.00	0.00	0.00	-7.152344	0.232910	0.422852	30.520000	-243.669998	322.700012	62.00	0.08	0.24
2.75	0.00	0.00	0.00	0.50	1.50	2.00	2.00	8.00	8.25	9.00	10.25	11.50	15.75	12.00	9.50	16.75	-0.343262	0.233398	1.295410	66.500000	158.619995	-89.949997	1153.00	0.22	-0.13	0.00	0.00	0.00	0.00	0.00	0.00	3.75	0.00	0.00	0.00	0.00	0.00	0.00	0.00	0.00	0.00	-9.197266	0.068848	-0.636230	66.150002	-167.720001	294.910004	62.00	0.08	0.24
2.76	0.00	0.00	0.00	0.00	1.00	1.50	1.75	8.00	8.50	9.25	10.25	11.50	15.50	13.00	10.25	17.25	-0.381348	0.161133	1.453125	72.169998	194.389999	-85.610001	1155.00	0.23	-0.13	0.00	0.00	0.00	0.00	0.00	0.00	3.50	0.00	0.00	0.00	0.00	0.00	0.00	0.00	0.00	0.00	-9.133789	-0.928711	-1.221191	110.110001	-61.320000	241.639999	58.00	0.08	0.24
2.77	0.00	0.00	0.00	0.00	1.25	1.50	2.00	7.75	8.75	9.25	10.25	11.50	15.25	13.75	10.75	17.25	-0.388672	0.091797	1.601562	74.410004	239.680008	-79.379997	1172.00	0.23	-0.12	0.00	0.00	0.00	0.00	0.00	0.00	3.75	0.00	0.00	0.00	0.00	0.00	0.00	0.00	0.00	0.00	-7.914551	-1.187500	-0.408691	88.480003	67.550003	179.690002	62.00	0.08	0.24
2.78	0.25	0.00	0.00	0.00	1.25	1.50	2.25	7.50	8.75	9.25	10.25	11.25	14.75	14.25	11.25	17.00	-0.382324	0.070801	1.701660	72.309998	291.690002	-72.800003	1176.00	0.23	-0.12	0.75	0.25	0.00	0.00	0.25	0.00	3.50	0.00	0.00	0.00	0.00	0.00	0.00	0.00	0.00	0.00	-10.169922	-0.645508	-0.962891	22.190001	145.600006	131.600006	72.00	-0.00	0.20
2.79	0.25	0.00	0.25	0.00	1.00	0.00	2.25	7.25	8.75	9.25	10.25	11.00	14.00	14.25	11.50	16.25	-0.303223	0.220703	2.001953	63.139999	352.730011	-70.209999	1143.00	0.24	-0.11	2.25	1.00	1.25	0.50	0.50	0.00	3.50	0.00	0.00	0.00	0.00	0.00	0.00	0.00	0.00	0.00	-0.115723	-1.515137	-2.221680	48.299999	318.220001	55.510002	120.00	-0.14	0.13
2.80	0.00	0.00	0.00	0.00	1.00	0.50	2.50	6.50	8.75	9.50	10.00	10.75	13.00	14.25	11.25	15.50	-0.309082	0.560547	1.652344	42.209999	419.720001	-79.519997	1115.00	0.24	-0.10	6.00	6.00	3.50	2.25	0.25	0.00	3.50	0.00	0.00	0.00	0.00	0.00	0.00	0.00	0.00	0.00	0.256348	-0.582520	2.920898	-49.490002	442.260010	-43.680000	259.00	-0.26	0.04
2.81	0.00	0.00	0.00	0.00	1.00	0.00	2.50	6.00	8.50	9.25	10.00	10.00	11.75	13.25	11.00	13.25	-0.554688	0.839844	1.852051	20.719999	499.309998	-102.690002	1048.00	0.24	-0.10	13.25	12.25	5.50	5.25	0.50	0.00	3.50	1.00	0.50	0.00	0.25	1.00	1.75	0.50	1.00	0.50	0.021484	1.257812	2.728027	-130.759995	356.720001	-40.740002	541.00	-0.24	-0.03
2.82	0.00	0.00	0.00	0.00	1.00	0.25	2.50	5.00	7.75	9.00	9.75	9.50	10.75	11.50	10.00	10.75	-0.473145	0.632812	-0.072754	14.910000	578.340027	-137.830002	960.00	0.24	-0.09	21.25	21.50	9.50	9.75	0.75	0.00	3.50	1.00	0.00	0.00	0.00	0.00	1.75	0.00	0.25	0.25	-1.541992	0.145020	2.362305	-108.290001	365.470001	-18.620001	794.00	-0.31	-0.03
2.83	0.00	0.00	0.00	0.00	1.00	0.00	2.50	2.50	6.75	8.75	9.25	8.75	9.50	8.75	8.50	7.75	-0.374512	0.554688	2.470215	-35.139999	655.270020	-156.309998	812.00	0.25	-0.08	26.25	30.00	13.25	13.00	1.25	4.00	3.75	3.25	0.00	0.00	0.00	1.00	1.25	0.00	0.00	0.00	-1.164062	-0.191895	3.351562	-72.590004	483.350006	-25.129999	1119.00	-0.30	-0.06
2.84	0.00	0.00	0.00	0.00	0.75	0.00	2.50	1.00	5.75	7.75	8.00	7.50	7.50	6.00	6.00	5.75	-0.958984	1.041016	4.041992	-17.219999	701.750000	-172.759995	645.00	0.25	-0.07	32.00	28.75	16.00	16.75	2.75	8.00	4.00	6.00	0.00	0.00	0.00	0.75	1.50	0.00	0.00	0.25	-0.842285	-0.525391	6.456543	-21.559999	506.660004	-43.330002	1366.00	-0.28	-0.07
2.85	0.00	0.00	0.00	0.00	0.75	0.50	2.75	0.25	4.25	5.75	6.00	5.75	5.50	3.25	4.50	3.75	-2.630371	1.697754	4.842773	48.509998	710.429993	-172.970001	481.00	0.23	-0.06	37.00	28.25	17.75	18.00	5.25	9.75	4.50	7.75	0.00	0.00	0.25	1.50	3.75	0.25	0.00	0.25	-0.869141	0.921875	1.960449	-201.740005	166.809998	-30.799999	1577.00	-0.26	-0.07
2.86	0.00	0.00	0.00	0.00	0.75	0.00	2.75	0.25	2.75	4.00	4.00	4.50	4.75	1.25	2.25	2.25	-1.838867	1.255859	5.732910	127.540001	707.210022	-165.479996	337.00	0.21	-0.07	31.75	30.00	18.75	18.25	7.00	10.75	4.75	8.75	0.00	0.00	0.25	1.25	4.75	0.00	0.00	0.50	-0.344238	-0.500000	1.979980	-214.410004	83.300003	-8.680000	1610.00	-0.25	-0.08
2.87	0.00	0.00	0.00	0.00	1.00	0.00	2.75	0.00	1.00	2.25	2.50	2.50	2.25	0.25	1.00	1.00	-1.254395	1.034180	5.457520	161.350006	672.210022	-197.330002	196.00	0.18	-0.03	28.50	26.00	18.75	19.25	8.75	12.75	5.00	9.25	0.25	0.00	0.75	2.00	5.75	0.00	0.25	0.75	-0.140137	-0.254883	1.473633	-149.520004	45.290001	-8.750000	1634.00	-0.23	-0.09
2.88	0.00	0.00	0.50	0.00	1.00	0.00	3.00	0.00	1.25	1.25	1.25	1.25	1.00	0.25	0.00	0.50	2.200195	2.039062	5.284180	112.139999	553.419983	-248.080002	143.00	0.13	0.06	33.50	26.75	19.75	20.00	8.75	13.25	5.00	9.00	0.00	0.00	0.00	1.50	6.50	0.50	0.25	0.50	-0.146484	0.320312	1.105957	-75.529999	18.410000	-6.930000	1713.00	-0.24	-0.08
2.89	0.00	0.00	0.50	0.00	1.25	0.00	3.25	0.00	0.00	1.25	1.00	1.00	0.00	0.00	0.00	0.50	1.950684	-1.783203	7.741211	140.979996	338.239990	-320.529999	115.00	0.09	0.08	28.75	22.75	19.25	17.00	8.25	11.25	5.00	9.25	0.00	0.25	0.25	1.50	6.75	0.75	1.00	1.50	-0.092773	0.329590	1.046387	-43.820000	13.370000	-1.400000	1576.00	-0.22	-0.09
2.90	0.25	0.00	0.75	0.00	1.25	0.00	3.25	0.00	0.25	1.50	0.50	0.75	0.00	0.00	0.00	0.00	2.735840	2.222656	6.451172	129.779999	14.140000	-314.160004	116.00	0.06	0.12	26.25	22.00	17.25	16.50	8.25	11.25	5.00	9.50	0.00	0.25	0.25	1.75	8.00	0.50	0.50	2.00	-0.018066	0.021484	1.055176	-31.290001	16.170000	-2.170000	1524.00	-0.21	-0.10
2.91	0.00	0.00	0.00	0.25	1.50	0.00	3.00	0.00	0.00	1.25	0.50	0.25	0.00	0.00	0.00	0.25	2.826172	1.055176	4.041016	35.700001	-171.850006	-225.680008	95.00	0.07	0.12	24.00	20.25	16.25	14.75	8.00	11.25	5.00	9.75	0.00	0.50	0.50	2.00	8.50	0.00	0.25	1.25	-0.100586	0.083008	1.055176	-6.930000	10.150000	-4.340000	1450.00	-0.21	-0.10
2.92	0.25	0.00	0.50	0.00	1.25	0.00	3.25	0.00	0.00	1.25	0.25	0.25	0.00	0.00	0.00	0.00	1.766113	1.233398	3.087402	-122.150002	-252.000000	-132.720001	97.00	0.04	0.15	27.00	20.75	13.75	16.50	8.00	13.00	5.00	10.75	1.50	1.50	1.25	2.75	9.50	0.50	0.50	1.00	-0.025879	0.232422	0.982422	5.180000	9.310000	-3.290000	1582.00	-0.19	-0.10
2.93	0.00	0.00	0.25	0.00	1.25	0.00	3.25	0.00	0.25	1.25	0.25	0.25	0.00	0.00	0.00	0.00	1.812012	1.615723	2.324707	-202.229996	-292.809998	-57.820000	95.00	0.08	0.16	22.75	19.50	17.00	16.75	8.75	13.25	5.00	9.75	0.00	0.75	0.00	2.00	9.50	0.00	1.00	1.50	-0.031738	0.181641	1.027344	3.150000	15.680000	-3.010000	1511.00	-0.20	-0.11
2.94	0.50	0.00	0.50	0.00	1.75	0.00	3.25	0.00	0.25	1.00	0.00	0.25	0.00	0.00	0.00	0.00	1.646973	1.897949	1.929688	-211.960007	-321.440002	2.520000	104.00	0.02	0.16	16.50	11.50	11.00	12.00	7.25	11.00	5.00	9.75	0.25	0.75	0.25	2.50	9.50	0.50	0.75	1.50	-0.046875	0.135254	1.034668	6.370000	21.350000	-4.620000	1199.00	-0.16	-0.12
2.95	0.50	0.00	0.75	0.00	1.25	0.00	3.25	0.00	0.25	1.00	0.00	0.00	0.00	0.00	0.00	0.00	1.324219	1.632324	1.768066	-158.899994	-356.089996	40.740002	98.00	0.01	0.17	15.00	10.50	11.00	12.00	6.50	10.25	5.00	9.75	0.25	1.00	0.75	2.75	10.00	0.00	0.50	1.25	-0.040039	0.163086	0.997559	10.010000	25.690001	-5.250000	1161.00	-0.16	-0.13
2.96	0.25	0.00	0.75	0.00	1.25	0.00	3.25	0.00	0.25	0.75	0.00	0.00	0.00	0.00	0.00	0.00	1.015625	1.372559	1.631348	-88.550003	-388.850006	61.880001	93.00	0.02	0.18	12.00	8.50	9.75	9.75	5.75	9.50	4.75	9.75	0.00	0.50	0.50	2.50	10.25	0.00	0.50	1.25	-0.037598	0.140625	1.013184	11.760000	28.840000	-5.460000	1030.00	-0.14	-0.14
2.97	0.50	0.00	0.50	0.00	1.25	0.00	3.25	0.00	0.00	1.25	0.00	0.00	0.00	0.00	0.00	0.00	0.701172	1.002930	1.652832	-34.230000	-417.829987	76.019997	94.00	0.02	0.17	9.25	6.75	8.50	8.50	5.00	9.00	4.75	9.50	0.00	0.25	0.25	2.50	10.50	0.00	0.50	1.50	-0.036133	0.126465	1.007324	15.330000	30.940001	-6.440000	930.00	-0.13	-0.15
2.98	0.75	0.25	0.75	0.00	1.50	0.00	3.25	0.00	0.00	0.50	0.00	0.00	0.00	0.00	0.00	0.00	0.390625	0.754883	1.676270	-4.060000	-443.450012	86.449997	97.00	-0.04	0.16	7.50	5.50	7.25	7.25	4.25	8.50	4.50	9.50	0.00	0.25	0.25	2.75	10.50	0.00	0.50	2.00	-0.064941	0.147949	0.995605	17.360001	33.740002	-8.400000	854.00	-0.11	-0.16
2.99	0.00	0.00	0.75	0.00	1.25	0.00	3.00	0.00	0.00	0.50	0.00	0.00	0.00	0.00	0.00	0.00	0.140625	0.616699	1.657715	6.440000	-462.700012	93.029999	79.00	0.01	0.18	6.00	3.75	6.00	6.00	3.00	8.00	4.50	9.25	0.00	0.75	0.25	2.75	10.75	0.00	0.50	2.00	-0.047363	0.181641	0.977539	16.870001	35.700001	-9.520000	772.00	-0.08	-0.17
3.00	0.50	0.00	0.75	0.00	1.25	0.00	3.25	0.00	0.00	0.50	0.00	0.00	0.00	0.00	0.00	0.00	-0.021484	0.541992	1.600098	10.290000	-476.000000	95.129997	89.00	-0.01	0.18	5.00	2.75	4.75	4.50	2.50	7.25	4.25	8.25	0.25	0.25	0.25	3.00	10.75	0.00	0.75	2.50	-0.066895	0.165527	1.014648	23.379999	35.770000	-10.150000	688.00	-0.06	-0.18
3.01	0.00	0.00	0.75	0.00	1.50	0.00	3.25	0.00	0.00	0.75	0.00	0.00	0.00	0.00	0.00	0.00	-0.161621	0.499512	1.556152	20.090000	-483.209991	93.870003	89.00	0.02	0.17	3.75	2.00	3.50	3.50	1.75	6.50	4.25	9.25	0.00	0.50	0.00	3.25	11.00	0.00	0.50	2.50	-0.088379	0.181152	0.999512	29.330000	34.930000	-12.250000	637.00	-0.04	-0.21
3.02	0.50	0.25	0.50	0.00	1.50	0.00	3.00	0.00	0.00	0.50	0.00	0.00	0.00	0.00	0.00	0.00	-0.483398	0.373535	1.806641	60.549999	-479.290009	85.959999	87.00	-0.02	0.16	3.00	1.25	2.50	3.00	1.50	5.75	4.25	9.00	0.00	0.25	0.25	3.50	11.25	0.00	0.25	3.25	-0.071777	0.206543	1.194336	40.529999	43.049999	-15.120000	593.00	-0.02	-0.22
3.03	0.00	0.00	0.75	0.75	1.25	0.00	3.00	0.00	0.00	0.50	0.00	0.00	0.00	0.00	0.00	0.00	-0.626953	0.331543	2.050293	72.590004	-475.929993	80.919998	88.00	-0.02	0.14	2.50	1.00	2.00	1.50	1.00	5.25	4.00	8.75	0.00	0.75	0.50	4.75	11.75	0.00	0.50	3.75	-0.031738	0.185547	1.041016	55.510002	51.380001	-18.129999	575.00	0.02	-0.23
3.04	0.50	0.00	0.75	0.00	1.25	0.00	3.25	0.00	0.00	0.50	0.00	0.00	0.00	0.00	0.00	0.00	-0.740723	0.333008	2.214355	74.410004	-479.010010	80.919998	89.00	-0.01	0.18	1.50	0.75	3.25	3.00	1.00	4.50	4.00	8.50	0.00	0.00	0.75	6.25	11.75	0.00	0.50	4.75	-0.104492	0.209961	1.000488	64.120003	59.010002	-22.190001	599.00	0.02	-0.23
3.05	0.00	0.00	0.75	0.00	1.25	0.00	3.25	0.00	0.00	0.50	0.00	0.00	0.00	0.00	0.00	0.00	-0.853027	0.382324	2.432129	73.779999	-486.709991	83.510002	83.00	0.02	0.18	1.25	0.25	1.00	0.75	0.75	3.75	4.00	8.25	0.00	0.25	0.75	5.50	12.00	0.00	1.00	5.50	-0.098145	0.249512	0.973145	66.290001	67.340004	-26.040001	527.00	0.07	-0.25
3.06	0.00	0.00	0.25	0.00	1.50	0.00	3.00	0.00	0.00	0.50	0.00	0.00	0.00	0.00	0.00	0.00	-0.916504	0.456055	2.675781	74.620003	-495.040009	87.220001	76.00	0.03	0.18	0.50	0.50	0.25	0.50	0.50	3.25	4.00	4.75	0.25	0.50	1.50	7.75	12.50	0.00	1.00	7.25	-0.107910	0.233887	1.007812	69.160004	75.040001	-32.200001	498.00	0.11	-0.25
3.07	0.25	0.00	0.75	0.00	1.25	0.00	3.25	0.00	0.00	0.25	0.00	0.00	0.00	0.00	0.00	0.00	-0.934082	0.546875	3.078125	80.080002	-504.559998	94.150002	83.00	-0.01	0.18	0.25	1.00	1.50	0.25	0.00	3.25	4.00	8.25	0.00	1.00	1.75	7.50	13.00	0.50	2.25	9.25	-0.130859	0.270020	0.896973	67.830002	80.849998	-37.099998	602.00	0.11	-0.25
3.08	0.25	0.00	0.50	0.00	1.50	0.00	3.25	0.00	0.00	0.50	0.00	0.00	0.00	0.00	0.00	0.00	-1.192383	0.651367	3.442871	88.550003	-519.750000	104.930000	86.00	0.01	0.18	0.75	0.00	0.00	0.25	0.00	2.75	3.75	8.00	0.00	0.75	2.00	8.00	13.75	0.25	2.25	9.75	-0.153320	0.295410	0.990723	66.290001	85.540001	-42.630001	579.00	0.13	-0.27
3.09	0.75	0.25	0.50	0.00	1.50	0.00	3.00	0.00	0.00	0.25	0.00	0.00	0.00	0.00	0.00	0.00	-1.631348	0.751465	3.676270	103.739998	-536.479980	119.840004	87.00	-0.04	0.16	0.00	0.00	0.00	0.25	0.00	3.00	3.50	7.75	0.00	0.75	3.00	8.50	14.00	0.75	3.25	11.25	-0.199219	0.312012	0.929688	74.830002	85.120003	-52.080002	609.00	0.15	-0.27
3.10	0.00	0.00	0.25	0.00	1.25	0.00	3.00	0.00	0.00	0.25	0.00	0.00	0.00	0.00	0.00	0.00	-2.179199	0.800781	3.759277	123.690002	-546.210022	137.970001	70.00	0.03	0.19	0.00	0.00	0.00	0.00	0.00	2.25	3.50	8.00	0.00	1.25	4.00	9.25	15.00	2.75	5.00	13.00	-0.207520	0.355957	1.014160	67.199997	90.720001	-55.650002	686.00	0.18	-0.25
3.11	0.25	0.00	0.50	0.00	1.25	0.00	3.00	0.00	0.00	0.50	0.00	0.00	0.00	0.00	0.00	0.00	-2.737305	0.754883	3.746094	142.169998	-542.429993	162.680008	79.00	0.01	0.18	0.00	0.00	0.00	0.00	0.00	2.50	3.25	7.75	0.00	2.00	7.50	10.00	15.50	2.50	6.00	14.75	-0.200195	0.464844	1.048340	66.919998	97.650002	-64.680000	762.00	0.18	-0.24
3.12	0.50	0.00	0.50	0.00	1.25	0.00	3.25	0.00	0.00	0.50	0.00	0.00	0.00	0.00	0.00	0.00	-3.358887	0.656250	3.727051	153.089996	-527.729980	192.009995	86.00	-0.00	0.18	0.00	0.00	0.00	0.00	0.00	2.25	3.00	7.75	0.25	2.25	7.50	11.00	15.75	4.50	8.25	16.75	-0.307129	0.500000	1.044434	82.110001	103.459999	-77.629997	831.00	0.20	-0.23
3.13	0.25	0.00	0.50	0.00	1.50	0.00	3.00	0.00	0.00	0.25	0.00	0.00	0.00	0.00	0.00	0.00	-4.171875	0.505859	3.559082	150.710007	-507.149994	220.360001	79.00	-0.00	0.18	0.00	0.00	0.00	0.00	0.00	2.75	3.00	7.75	0.25	2.50	8.00	10.75	16.00	5.50	8.25	17.75	-0.360352	0.505859	1.030273	103.250000	111.720001	-92.540001	861.00	0.20	-0.22
3.14	0.50	0.00	0.75	0.00	1.25	0.00	3.25	0.00	0.00	0.25	0.00	0.00	0.00	0.00	0.00	0.00	-5.125488	0.392090	3.175293	127.330002	-477.959991	239.750000	86.00	-0.02	0.18	0.00	0.00	0.00	0.25	0.00	2.75	3.00	8.00	0.00	3.00	8.25	11.00	16.50	6.75	9.00	19.00	-0.327637	0.475098	1.021973	123.970001	119.279999	-105.980003	908.00	0.21	-0.22
3.15	0.00	0.00	0.75	0.25	1.75	0.00	3.00	0.00	0.00	0.25	0.00	0.00	0.00	0.00	0.00	0.00	-6.026855	0.370605	2.183105	84.910004	-431.269989	245.839996	85.00	-0.01	0.16	0.00	0.00	0.00	0.25	0.00	3.00	3.00	8.00	0.50	3.50	8.75	11.25	16.75	7.75	10.00	20.25	-0.310059	0.371094	1.219238	125.090004	133.000000	-116.480003	963.00	0.21	-0.21
3.16	0.25	0.00	1.00	0.00	1.50	0.00	3.00	0.00	0.00	0.25	0.00	0.00	0.00	0.00	0.00	0.00	-9.301758	0.557129	-0.528809	45.220001	-358.610016	234.500000	85.00	-0.02	0.17	0.00	0.00	0.00	0.00	0.00	2.75	3.25	7.75	1.00	3.75	8.75	11.50	16.25	8.25	11.75	22.00	-0.320801	0.404785	1.229492	120.120003	155.259995	-123.900002	1000.00	0.22	-0.20
3.17	0.25	0.00	0.75	0.00	1.25	0.00	3.00	0.00	0.00	0.00	0.00	0.00	0.00	0.00	0.00	0.00	-10.559570	0.261230	-1.420410	154.910004	-187.880005	111.790001	76.00	-0.02	0.18	0.75	0.75	0.50	1.25	0.25	4.25	3.50	8.25	3.00	7.00	10.25	12.75	17.00	10.25	13.25	22.00	-0.373047	0.376465	1.340332	114.590004	186.339996	-129.220001	1211.00	0.20	-0.17
3.18	0.00	0.00	0.50	0.00	1.75	0.00	3.00	0.00	0.00	0.00	0.00	0.00	0.00	0.00	0.00	0.00	-8.701172	-1.164062	-1.370605	195.369995	-45.290001	68.529999	76.00	-0.00	0.18	0.00	0.00	0.00	0.00	0.00	2.75	3.25	7.50	1.25	5.75	9.25	11.50	16.50	9.50	12.75	22.75	-0.376465	0.258789	1.494141	105.489998	226.660004	-131.039993	1058.00	0.23	-0.19
3.19	0.50	0.00	1.00	0.00	1.50	0.00	3.00	0.00	0.00	0.25	0.00	0.00	0.00	0.00	0.00	0.00	-6.958008	-1.188477	-0.074219	98.349998	89.389999	75.459999	88.00	-0.04	0.17	0.00	0.00	0.00	0.00	0.00	2.75	3.50	7.50	1.25	6.25	9.50	11.75	16.25	9.50	13.25	23.00	-0.455566	0.234863	1.710938	90.300003	270.339996	-126.349998	1078.00	0.23	-0.18
3.20	1.25	0.50	1.00	0.00	1.75	0.00	3.00	0.00	0.00	0.00	0.00	0.00	0.00	0.00	0.00	0.00	-13.062500	2.171875	-3.434570	-36.610001	114.870003	91.279999	102.00	-0.10	0.15	0.00	0.00	0.00	0.00	0.00	2.50	3.50	7.50	1.50	6.75	9.50	11.50	16.00	9.50	13.75	23.00	-0.493164	0.588379	1.612305	85.680000	382.619995	-120.820000	1085.00	0.23	-0.18
3.21	4.75	3.25	3.25	1.50	2.00	0.00	3.00	0.00	0.00	0.00	0.00	0.00	0.00	0.00	0.00	0.00	-0.745605	-0.026367	-2.918945	31.010000	276.079987	55.930000	218.00	-0.23	0.06	0.00	0.00	0.00	0.00	0.00	2.25	3.50	7.00	1.50	6.50	9.75	11.25	15.25	9.00	13.75	22.25	-0.493164	0.588379	1.612305	85.680000	382.619995	-120.820000	1055.00	0.23	-0.18
3.22	13.25	10.75	5.25	5.50	1.75	0.00	2.75	0.00	0.00	0.00	0.00	0.00	0.00	0.00	0.00	0.00	-0.854492	1.387695	2.729980	-83.650002	405.579987	-13.440001	454.00	-0.31	0.00	0.00	0.00	0.00	0.00	0.00	3.00	3.75	7.50	3.00	7.75	10.50	12.00	14.75	8.25	13.25	20.50	-0.807617	1.377441	1.974609	97.230003	497.559998	-162.050003	1101.00	0.22	-0.17
3.23	21.25	17.25	8.25	8.50	1.50	0.00	2.75	0.50	0.00	0.00	0.00	0.00	0.00	0.00	0.00	0.00	-0.740234	0.823242	3.263184	-125.090004	463.820007	-9.100000	688.00	-0.33	-0.01	0.00	0.00	0.00	0.00	0.00	1.50	3.75	5.75	1.25	5.75	9.50	10.50	13.75	6.75	11.75	17.25	-0.997070	1.689453	2.404297	95.129997	551.950012	-191.800003	918.00	0.23	-0.17
3.24	25.50	20.50	9.75	10.00	1.75	0.75	2.75	1.00	0.00	0.00	0.00	0.00	0.00	0.00	0.00	0.00	-2.057129	-0.828125	4.255371	-48.369999	544.390015	18.200001	826.00	-0.33	-0.02	0.00	0.00	0.00	0.00	0.00	0.25	3.50	5.25	0.50	4.25	8.50	10.25	13.50	5.25	9.25	13.75	-1.813477	2.292480	3.743164	105.910004	592.270020	-218.610001	783.00	0.23	-0.19
3.25	26.75	22.00	12.25	12.75	2.75	7.00	3.00	3.50	0.00	0.00	0.00	0.50	0.00	0.00	0.00	0.25	-2.297363	-0.791016	5.558105	73.849998	622.510010	4.900000	1058.00	-0.29	-0.06	0.00	0.00	0.00	0.00	0.00	0.00	3.75	2.00	2.00	5.00	8.00	8.50	11.00	5.00	7.75	9.50	-2.135742	2.273438	4.647949	138.250000	607.950012	-226.029999	666.00	0.24	-0.14
3.26	24.50	21.00	13.50	13.75	5.25	9.75	3.25	7.75	0.00	0.00	0.00	0.75	2.25	0.00	0.00	0.00	-2.079102	0.916504	7.791504	26.740000	498.260010	-38.570000	1210.00	-0.26	-0.09	0.00	0.00	0.00	0.00	0.00	0.00	3.50	1.00	0.00	2.50	3.75	6.25	9.00	2.75	5.25	6.75	-1.855957	2.191406	4.807617	155.330002	583.729980	-244.160004	428.00	0.23	-0.16
3.27	25.75	20.50	15.00	14.50	6.75	11.50	3.50	9.50	0.00	0.00	0.00	1.00	5.25	0.00	0.00	0.00	-1.290527	1.091309	2.399902	-95.340004	239.259995	-34.020000	1349.00	-0.24	-0.10	0.00	0.00	0.00	0.00	0.00	1.00	3.75	1.75	1.50	2.00	3.25	6.00	8.25	2.50	5.00	5.50	-0.885742	2.378906	4.391602	160.160004	547.609985	-298.059998	444.00	0.21	-0.14
3.28	25.00	19.25	14.75	14.00	7.75	11.75	3.50	10.00	0.00	0.00	0.00	1.25	6.00	0.00	0.00	0.25	-0.396973	0.419922	1.435547	-170.940002	83.019997	-9.100000	1354.00	-0.23	-0.10	0.00	0.00	0.75	0.25	0.00	0.00	3.75	1.75	0.75	0.00	2.00	4.50	6.50	0.50	2.50	3.00	-0.091309	2.878906	4.535645	176.680008	532.000000	-352.869995	301.00	0.17	-0.16
3.29	24.00	18.25	14.50	13.75	8.50	12.00	3.75	10.50	0.00	0.00	0.00	1.25	6.75	0.00	0.00	0.25	-0.228516	-0.530273	1.294922	-156.029999	25.549999	-11.340000	1358.00	-0.22	-0.10	0.75	0.00	0.00	0.00	0.00	0.00	3.75	0.25	0.00	0.00	0.00	1.50	1.75	0.00	0.25	2.50	0.876953	2.808594	4.533203	197.960007	496.019989	-412.089996	126.00	0.11	-0.03
3.30	23.75	18.00	14.75	14.25	9.25	12.25	4.00	10.75	0.00	0.25	0.25	1.75	8.50	0.00	0.00	0.50	-0.197266	0.055176	1.178223	-109.760002	3.780000	-14.140000	1411.00	-0.21	-0.11	0.00	0.00	0.50	0.25	0.00	0.25	4.25	0.50	0.75	0.25	1.00	2.25	1.25	0.00	0.25	0.00	3.007324	1.228516	5.437500	253.470001	364.559998	-474.950012	156.00	0.11	0.01
3.31	24.00	18.00	14.50	14.00	9.75	12.25	4.00	10.75	0.00	0.50	0.50	2.00	8.50	0.00	0.00	0.50	-0.083008	0.136719	1.028320	-61.670002	5.460000	-1.540000	1423.00	-0.21	-0.11	0.00	0.00	0.00	0.00	0.00	0.00	4.00	0.00	0.00	0.25	0.00	0.50	0.00	0.00	0.00	0.25	-0.337891	3.445801	1.847168	263.410004	142.520004	-561.820007	76.00	0.10	0.18
3.32	24.00	17.75	14.75	13.75	10.25	12.25	4.25	10.75	0.25	1.00	0.50	2.00	8.50	0.00	0.00	0.75	-0.104004	-0.019043	1.101562	-43.680000	7.140000	-4.060000	1441.00	-0.20	-0.10	0.00	0.00	0.00	0.00	0.00	0.00	4.00	0.00	0.00	0.00	0.00	0.25	0.00	0.00	0.00	0.00	3.253906	2.582520	5.149902	153.509995	-117.250000	-437.850006	69.00	0.09	0.22
3.33	23.50	17.50	14.50	13.75	10.25	12.25	4.25	10.75	0.50	0.75	0.25	1.75	8.50	0.00	0.00	0.50	-0.104980	0.116211	1.020996	-18.270000	8.120000	-2.100000	1423.00	-0.20	-0.10	0.00	0.00	0.00	0.00	0.00	0.00	4.00	0.00	0.00	0.00	0.00	0.25	0.00	0.00	0.25	0.25	1.870605	1.839844	3.105957	-11.830000	-252.419998	-239.540009	73.00	0.10	0.20
3.34	22.75	16.75	14.25	13.50	10.25	12.00	4.50	10.75	0.25	0.75	0.25	1.75	8.50	0.00	0.00	0.50	-0.086914	0.114258	1.002930	-10.570000	13.370000	0.490000	1399.00	-0.20	-0.11	0.00	0.00	0.00	0.00	0.00	0.00	4.00	0.00	0.00	0.00	0.00	0.25	0.00	0.25	0.00	0.25	1.552246	2.525879	1.652832	-229.250000	-311.010010	29.889999	73.00	0.10	0.21
3.35	22.25	16.50	13.75	13.00	10.00	11.50	4.25	10.50	0.50	0.75	0.25	1.75	8.25	0.00	0.00	0.50	-0.108398	0.058105	0.987793	-8.190000	17.080000	-1.050000	1363.00	-0.20	-0.10	0.00	0.00	0.00	0.00	0.00	0.00	4.00	0.00	0.00	0.00	0.00	0.25	0.00	0.00	0.25	0.00	1.446777	2.268066	1.574219	-207.130005	-323.470001	113.680000	72.00	0.10	0.21
3.36	21.00	15.75	13.50	12.75	9.75	11.50	4.25	10.50	0.50	1.00	0.25	1.75	8.25	0.00	0.00	0.50	-0.068359	0.058594	0.959473	-4.690000	19.110001	-2.450000	1335.00	-0.19	-0.11	0.00	0.00	0.00	0.00	0.00	0.00	4.00	0.00	0.00	0.00	0.00	0.00	0.00	0.00	0.00	0.00	1.228516	2.116211	1.473145	-145.389999	-348.880005	166.320007	66.00	0.08	0.24
3.37	19.75	14.50	12.75	12.00	9.75	11.00	4.25	10.50	0.50	0.75	0.00	1.75	8.25	0.00	0.00	0.75	-0.077637	0.051270	0.968750	-0.420000	20.930000	-2.730000	1280.00	-0.19	-0.11	0.00	0.00	0.00	0.00	0.00	0.00	4.00	0.00	0.00	0.00	0.00	0.25	0.00	0.25	0.00	0.00	1.058105	1.677734	1.535645	-79.519997	-379.890015	198.309998	71.00	0.10	0.22
3.38	18.25	13.50	11.75	11.50	9.25	10.75	4.00	10.25	0.50	0.75	0.25	1.75	8.50	0.00	0.00	0.75	-0.058594	0.081543	0.974609	3.220000	23.799999	-3.710000	1222.00	-0.18	-0.11	0.00	0.00	0.00	0.00	0.00	0.00	4.00	0.00	0.00	0.00	0.00	0.00	0.00	0.00	0.00	0.00	0.777832	1.289062	1.590820	-28.070000	-412.510010	214.130005	66.00	0.08	0.24
3.39	16.00	12.00	11.25	10.75	9.00	10.25	4.25	10.25	0.25	0.75	0.50	2.25	8.50	0.00	0.00	1.00	-0.080078	0.098145	0.979492	4.760000	27.510000	-4.200000	1168.00	-0.17	-0.12	0.00	0.00	0.00	0.00	0.00	0.00	3.75	0.00	0.00	0.00	0.00	0.00	0.00	0.00	0.00	0.00	0.527344	0.972656	1.585449	4.200000	-439.739990	217.139999	62.00	0.08	0.24
3.40	14.00	10.25	10.00	9.75	8.50	9.75	4.00	10.00	0.50	0.50	0.25	2.00	9.00	0.00	0.00	1.00	-0.086426	0.093750	0.979004	6.930000	30.660000	-4.200000	1080.00	-0.16	-0.13	0.00	0.00	0.00	0.00	0.00	0.00	4.00	0.00	0.00	0.00	0.00	0.00	0.00	0.00	0.00	0.00	0.346680	0.674316	1.578125	23.450001	-460.250000	209.789993	66.00	0.08	0.24
3.41	11.25	8.75	9.25	9.00	7.75	9.25	3.75	10.00	0.50	0.75	0.25	2.25	9.00	0.25	0.00	0.75	-0.096680	0.097656	0.979004	7.980000	33.180000	-3.640000	1004.00	-0.15	-0.13	0.00	0.00	0.00	0.00	0.00	0.00	4.00	0.00	0.00	0.00	0.00	0.00	0.00	0.00	0.00	0.00	0.190430	0.471191	1.720215	39.619999	-478.730011	193.970001	66.00	0.08	0.24
3.42	9.25	7.50	8.50	8.00	7.25	8.75	3.75	9.75	0.50	1.25	0.50	2.50	9.25	0.00	0.00	0.75	-0.100098	0.101562	0.964844	7.560000	34.720001	-3.640000	943.00	-0.13	-0.14	0.00	0.00	0.00	0.00	0.00	0.00	3.75	0.00	0.00	0.00	0.00	0.00	0.00	0.00	0.00	0.00	-0.000000	0.360840	1.780273	58.590000	-497.700012	172.479996	62.00	0.08	0.24
3.43	7.75	6.25	7.75	6.75	6.75	8.00	3.75	9.75	0.75	1.00	0.50	2.75	9.50	0.00	0.00	1.00	-0.098633	0.105957	0.953125	5.810000	34.650002	-4.410000	881.00	-0.11	-0.15	0.00	0.00	0.00	0.00	0.00	0.00	3.75	0.00	0.00	0.00	0.00	0.00	0.00	0.00	0.00	0.00	-0.191406	0.184082	1.725098	79.449997	-509.600006	148.259995	62.00	0.08	0.24
3.44	6.25	5.25	6.75	5.75	6.50	7.50	3.75	9.50	0.75	1.25	1.00	3.25	9.75	0.25	0.00	1.25	-0.156250	0.111328	0.945801	2.800000	34.299999	-5.950000	838.00	-0.09	-0.15	0.00	0.00	0.00	0.00	0.00	0.00	3.75	0.00	0.00	0.00	0.00	0.00	0.00	0.00	0.00	0.00	-0.324707	0.062988	1.771973	100.519997	-508.059998	122.360001	62.00	0.08	0.24
3.45	5.25	4.50	6.00	4.50	5.75	6.50	3.75	9.25	0.75	1.25	1.25	3.50	9.75	0.25	0.25	1.75	-0.121582	0.121094	0.932617	-0.420000	34.509998	-8.890000	781.00	-0.07	-0.16	0.00	0.00	0.00	0.00	0.00	0.00	4.00	0.00	0.00	0.00	0.00	0.00	0.00	0.00	0.00	0.00	-0.525879	-0.031250	2.134766	108.150002	-484.890015	79.379997	66.00	0.08	0.24
3.46	4.25	2.25	5.00	3.00	5.50	5.75	3.75	8.75	1.75	2.00	1.75	4.25	10.00	0.50	0.00	1.75	-0.120605	0.109863	0.957520	-3.360000	36.189999	-11.760000	736.00	-0.03	-0.15	0.00	0.00	0.00	0.00	0.00	0.00	4.00	0.00	0.00	0.00	0.00	0.00	0.00	0.00	0.00	0.00	-0.531250	0.077637	2.263672	101.150002	-476.000000	74.410004	66.00	0.08	0.24
3.47	3.50	2.75	4.50	1.75	5.00	5.00	3.50	8.50	2.00	2.25	2.00	4.75	10.00	0.75	0.50	3.00	-0.122559	0.099121	1.034668	4.410000	44.310001	-20.440001	718.00	-0.01	-0.16	0.00	0.00	0.00	0.00	0.00	0.00	3.75	0.00	0.00	0.00	0.00	0.00	0.00	0.00	0.00	0.00	-0.512207	0.189941	2.463379	96.040001	-469.630005	82.669998	62.00	0.08	0.24
3.48	0.00	0.00	0.25	0.00	2.75	0.00	3.25	7.00	0.75	1.50	1.75	3.75	9.00	0.25	0.00	2.50	-0.138184	0.068359	1.083008	24.080000	60.060001	-25.059999	399.00	0.10	-0.21	0.00	0.00	0.00	0.00	0.00	0.00	4.00	0.00	0.00	0.00	0.00	0.00	0.00	0.00	0.00	0.00	-0.456055	0.308105	2.704590	95.410004	-463.890015	98.910004	66.00	0.08	0.24
3.49	0.00	0.00	0.00	0.50	3.50	0.75	3.00	7.75	3.00	3.50	3.75	6.50	10.25	1.75	1.25	4.50	-0.166016	0.133789	1.036621	46.900002	78.330002	-24.219999	590.00	0.13	-0.18	0.00	0.00	0.00	0.00	0.00	0.00	3.75	0.00	0.00	0.00	0.00	0.00	0.00	0.00	0.00	0.00	-0.462891	0.408203	3.026855	101.919998	-461.230011	119.349998	62.00	0.08	0.24
3.50	0.25	0.00	1.75	0.75	3.00	0.75	2.75	6.00	2.75	3.25	4.00	7.25	10.75	3.00	2.25	6.00	-0.243652	0.101074	1.055664	72.379997	93.449997	-25.129999	620.00	0.14	-0.16	0.00	0.00	0.00	0.00	0.00	0.00	4.00	0.00	0.00	0.00	0.00	0.00	0.00	0.00	0.00	0.00	-0.650391	0.426758	3.298828	112.489998	-463.610016	144.830002	66.00	0.08	0.24
3.51	0.25	0.00	1.00	0.00	3.00	1.00	3.00	7.25	5.00	4.75	5.25	7.50	11.00	4.25	2.75	7.25	-0.316406	0.158691	1.076660	86.519997	103.389999	-24.990000	723.00	0.16	-0.14	0.00	0.00	0.00	0.00	0.00	0.00	3.75	0.00	0.00	0.00	0.00	0.00	0.00	0.00	0.00	0.00	-1.000488	0.437500	3.466309	111.230003	-464.730011	173.250000	62.00	0.08	0.24
3.52	0.00	0.00	0.25	0.00	2.25	0.00	2.75	6.25	5.00	5.00	6.50	8.00	11.50	5.50	3.75	8.25	-0.247559	0.201660	1.078125	84.139999	112.279999	-27.790001	726.00	0.19	-0.14	0.00	0.00	0.00	0.00	0.00	0.00	3.75	0.00	0.00	0.00	0.00	0.00	0.00	0.00	0.00	0.00	-1.449219	0.596191	3.601074	94.709999	-456.190002	197.259995	62.00	0.08	0.24
3.53	0.00	0.00	0.00	0.00	2.00	0.00	2.50	5.75	5.25	5.75	7.75	8.50	12.00	7.00	5.25	9.00	-0.242676	0.231445	1.068359	75.250000	122.639999	-32.549999	780.00	0.21	-0.13	0.00	0.00	0.00	0.00	0.00	0.00	4.00	0.00	0.00	0.00	0.00	0.00	0.00	0.00	0.00	0.00	-1.881836	0.783691	3.685547	77.769997	-439.739990	216.930008	66.00	0.08	0.24
3.54	0.00	0.00	0.00	0.00	1.25	0.00	2.25	6.00	5.75	6.25	7.75	8.75	12.00	8.00	6.00	10.00	-0.265137	0.313965	1.042969	64.540001	130.199997	-39.759998	810.00	0.22	-0.13	0.00	0.00	0.00	0.00	0.00	0.00	3.75	0.00	0.00	0.00	0.00	0.00	0.00	0.00	0.00	0.00	-2.388184	0.977539	3.791992	63.000000	-419.720001	232.190002	62.00	0.08	0.24
3.55	0.00	0.00	0.50	0.25	1.50	0.75	2.25	5.75	6.75	7.50	8.50	9.00	12.75	8.75	6.75	11.00	-0.325195	0.406250	1.081543	61.810001	140.839996	-52.009998	896.00	0.22	-0.12	0.00	0.00	0.00	0.00	0.00	0.00	3.75	0.00	0.00	0.00	0.00	0.00	0.00	0.00	0.00	0.00	-3.470215	0.399902	4.633789	24.360001	-379.260010	241.639999	62.00	0.08	0.24
3.56	0.00	0.00	0.00	0.00	1.50	0.25	2.25	5.50	7.50	7.50	8.50	9.50	13.00	10.00	7.25	12.00	-0.352539	0.473633	1.092773	57.049999	154.979996	-66.150002	919.00	0.23	-0.11	0.00	0.00	0.00	0.00	0.00	0.00	3.75	0.00	0.00	0.00	0.00	0.00	0.00	0.00	0.00	0.00	-4.692383	1.750977	3.111328	73.080002	-383.459991	258.089996	62.00	0.08	0.24
3.57	0.25	0.00	1.00	1.25	1.50	0.00	2.00	5.75	7.50	8.25	8.75	9.75	12.75	10.75	8.00	12.50	-0.334473	0.390137	1.119629	55.650002	166.880005	-81.480003	976.00	0.22	-0.11	0.00	0.00	0.00	0.00	0.25	0.00	4.25	0.75	1.00	0.75	0.25	0.75	0.75	0.75	1.00	0.25	-4.692383	1.750977	3.111328	73.080002	-383.459991	258.089996	147.00	0.15	0.07
3.58	0.00	0.00	0.25	0.00	1.50	0.50	2.00	5.50	7.75	8.25	8.75	10.00	12.75	11.75	8.50	12.75	-0.343750	0.316895	1.228027	60.760002	175.490005	-95.550003	974.00	0.23	-0.11	0.00	0.00	0.00	0.00	0.00	0.00	3.75	0.00	0.00	0.00	0.00	0.00	0.00	0.00	0.00	0.00	-7.271973	-0.444336	0.104004	77.629997	-248.360001	308.980011	62.00	0.08	0.24
3.59	0.25	0.00	0.00	0.00	1.50	0.25	2.25	5.75	8.50	8.50	9.00	9.75	12.50	12.50	9.00	13.00	-0.337402	0.189941	1.306641	65.029999	190.050003	-103.949997	1005.00	0.24	-0.10	0.00	0.00	0.00	0.25	1.00	0.50	4.25	0.75	0.50	0.75	0.75	1.00	1.00	0.50	1.00	0.50	-8.851074	-0.140625	-0.378418	71.470001	-143.220001	265.510010	168.00	0.12	0.02
3.60	0.00	0.00	0.00	0.00	1.25	0.00	2.25	5.50	8.75	8.75	9.25	9.75	12.25	13.00	9.25	13.00	-0.378906	0.136230	1.405762	52.639999	218.470001	-104.090004	1006.00	0.24	-0.09	1.50	1.00	1.25	0.75	0.75	0.50	4.00	0.75	0.75	0.75	0.75	0.75	0.50	0.50	1.00	0.50	-8.662109	-0.850098	-0.439453	108.989998	-60.619999	177.660004	205.00	0.01	0.03
3.61	0.00	0.00	0.00	0.00	1.25	0.00	2.25	5.50	8.75	8.75	9.25	9.50	11.75	13.50	10.25	12.50	-0.367676	0.035645	1.474609	38.920002	256.200012	-98.699997	1012.00	0.24	-0.09	1.00	0.00	0.50	0.00	0.00	0.00	3.75	0.00	0.00	0.00	0.00	0.00	0.00	0.00	0.00	0.00	-7.608398	-1.183105	-0.081543	93.169998	19.950001	87.150002	79.00	-0.02	0.21
3.62	0.00	0.00	0.25	0.00	1.00	0.00	2.50	5.25	9.00	9.25	9.25	9.25	11.00	13.75	10.00	12.00	-0.511230	0.239746	1.705078	10.920000	352.519989	-94.570000	1007.00	0.25	-0.08	1.50	0.25	0.75	0.00	0.25	0.00	3.75	0.00	0.00	0.00	0.00	0.00	0.00	0.00	0.00	0.00	-11.013184	-1.482422	0.642090	15.820000	141.820007	17.990000	93.00	-0.06	0.19
3.63	0.25	0.00	0.75	0.00	1.00	0.00	2.50	5.00	9.00	9.25	9.00	9.00	10.75	13.75	10.00	11.00	-0.222168	0.300293	1.045410	-27.790001	415.589996	-100.239998	998.00	0.24	-0.08	3.25	1.75	1.50	1.00	0.25	0.00	3.50	0.00	0.00	0.00	0.00	0.00	0.00	0.00	0.00	0.00	-4.603027	-1.342773	-0.468750	-72.379997	327.950012	-80.779999	145.00	-0.18	0.10
3.64	0.00	0.00	0.00	0.00	1.00	0.00	2.50	4.00	8.75	9.25	9.00	8.50	10.00	13.00	9.50	9.75	0.233398	0.262207	2.075684	-65.730003	486.920013	-93.379997	933.00	0.25	-0.07	17.25	13.25	8.00	5.50	0.50	0.00	3.75	0.25	0.00	0.00	0.00	0.00	0.00	0.00	0.00	0.00	-1.253906	1.714844	3.351074	-126.980003	427.980011	-140.839996	564.00	-0.31	0.01
3.65	0.00	0.00	0.00	0.00	0.75	0.00	2.75	2.50	8.00	9.00	8.75	8.00	8.75	11.00	8.50	7.50	-0.864258	1.058594	3.316895	-57.189999	543.270020	-105.699997	832.00	0.25	-0.06	22.00	21.00	8.50	9.00	0.25	0.00	3.50	0.50	0.00	0.00	0.00	0.00	0.25	0.00	0.25	0.25	1.433105	2.247559	3.767090	-127.889999	352.380005	-73.919998	748.00	-0.32	-0.02
3.66	0.00	0.00	0.25	0.00	1.00	0.00	2.50	1.25	7.50	8.25	8.25	7.25	8.00	9.00	7.25	5.75	-0.849121	0.859375	3.038086	-27.719999	565.599976	-151.970001	732.00	0.25	-0.05	36.00	32.25	13.75	13.75	1.25	2.25	3.75	1.50	0.25	0.00	0.00	0.50	0.25	0.25	0.00	0.00	-1.467773	0.314453	2.396484	-126.699997	396.130005	-29.330000	1207.00	-0.32	-0.03
3.67	0.00	0.00	0.00	0.00	0.75	0.00	2.50	0.75	6.25	7.50	7.50	5.75	6.25	6.50	5.00	3.25	-1.679688	1.147461	3.854492	2.450000	592.130005	-157.710007	585.00	0.25	-0.04	32.50	29.00	14.00	14.50	2.25	5.00	4.00	3.75	0.25	0.00	0.00	0.25	1.25	0.00	0.00	0.00	-1.400879	-0.287598	6.108398	-35.700001	569.729980	-14.210000	1238.00	-0.30	-0.05
