# time	left pressure 1[N/cm²]	left pressure 2[N/cm²]	left pressure 3[N/cm²]	left pressure 4[N/cm²]	left pressure 5[N/cm²]	left pressure 6[N/cm²]	left pressure 7[N/cm²]	left pressure 8[N/cm²]	left pressure 9[N/cm²]	left pressure 10[N/cm²]	left pressure 11[N/cm²]	left pressure 12[N/cm²]	left pressure 13[N/cm²]	left pressure 14[N/cm²]	left pressure 15[N/cm²]	left pressure 16[N/cm²]	left acceleration X[g]	left acceleration Y[g]	left acceleration Z[g]	left angular X[dps]	left angular Y[dps]	left angular Z[dps]	left total force[N]	left center of pressure X[%]	left center of pressure Y[%]	right pressure 1[N/cm²]	right pressure 2[N/cm²]	right pressure 3[N/cm²]	right pressure 4[N/cm²]	right pressure 5[N/cm²]	right pressure 6[N/cm²]	right pressure 7[N/cm²]	right pressure 8[N/cm²]	right pressure 9[N/cm²]	right pressure 10[N/cm²]	right pressure 11[N/cm²]	right pressure 12[N/cm²]	right pressure 13[N/cm²]	right pressure 14[N/cm²]	right pressure 15[N/cm²]	right pressure 16[N/cm²]	right acceleration X[g]	right acceleration Y[g]	right acceleration Z[g]	right angular X[dps]	right angular Y[dps]	right angular Z[dps]	right total force[N]	right center of pressure X[%]	right center of pressure Y[%]
0.00																										8.00	4.50	6.25	5.25	2.25	2.50	1.00	1.00	1.75	1.25	1.25	1.00	0.50	0.75	0.50	0.00	-0.265137	0.069336	0.925293	-2.800000	-6.510000	1.890000	489.00	-0.18	-0.03
0.01																										8.00	4.50	6.25	5.00	2.25	2.25	1.00	0.75	1.75	1.25	1.25	1.00	0.50	1.25	1.00	0.00	-0.260742	0.075195	0.927734	-2.730000	-6.510000	1.960000	490.00	-0.16	-0.02
0.02	4.25	2.50	2.50	1.75	0.25	0.00	0.25	0.00	0.50	0.25	0.50	0.25	0.00	0.25	0.50	0.00	-0.298340	0.040039	0.934570	-2.100000	1.190000	0.350000	173.00	-0.23	0.01	8.00	4.50	6.25	5.25	2.25	2.50	1.00	0.75	1.75	1.00	1.25	1.00	0.50	1.00	0.50	0.25	-0.262695	0.069824	0.926758	-2.800000	-6.440000	1.820000	486.00	-0.18	-0.03
0.03	4.25	2.50	2.25	1.50	0.00	0.00	0.50	0.00	0.25	0.50	0.00	0.25	0.00	0.25	0.25	0.00	-0.296387	0.041992	0.935059	-2.170000	1.190000	0.280000	158.00	-0.25	0.01																									
0.04	4.50	2.50	2.50	1.75	0.00	0.00	0.50	0.25	0.25	0.25	0.25	0.50	0.00	0.25	0.50	0.00	-0.292480	0.039062	0.935059	-2.030000	1.050000	0.280000	178.00	-0.23	-0.01	8.00	4.50	6.00	5.25	2.25	2.50	1.00	0.75	1.75	1.25	1.25	1.00	0.50	0.75	0.50	0.25	-0.266113	0.076172	0.928223	-2.940000	-6.440000	1.750000	483.00	-0.18	-0.03
0.05	4.25	2.50	2.50	2.25	0.25	0.00	0.50	0.00	0.50	0.25	0.25	0.25	0.00	0.50	0.50	0.00	-0.292969	0.034180	0.934082	-1.890000	0.770000	0.420000	184.00	-0.22	0.01	7.75	4.50	6.00	5.00	2.50	2.50	1.00	0.75	1.50	1.25	1.25	1.25	0.25	1.00	0.50	0.25	-0.258301	0.076172	0.927246	-3.010000	-6.300000	1.750000	479.00	-0.17	-0.03
0.06	5.25	2.75	2.50	2.00	0.25	0.00	0.25	0.00	0.25	0.25	0.25	0.00	0.00	0.25	0.50	0.00	-0.291992	0.040039	0.929688	-1.680000	0.910000	0.490000	182.00	-0.27	0.01	8.00	4.50	6.25	5.00	2.50	2.25	1.00	0.75	1.50	1.25	1.25	1.00	0.75	1.00	0.75	0.25	-0.262207	0.069336	0.929199	-3.080000	-6.300000	1.680000	488.00	-0.17	-0.03
0.07																										8.00	4.50	6.25	5.00	2.00	2.25	1.00	0.75	1.75	1.25	1.25	0.75	0.75	1.25	0.75	0.25	-0.261719	0.076172	0.924316	-3.080000	-6.090000	1.680000	484.00	-0.17	-0.02
0.08	4.50	2.50	2.50	2.25	0.25	0.00	0.50	0.00	0.25	0.50	0.25	0.25	0.00	0.25	0.50	0.00	-0.295410	0.039062	0.930176	-1.820000	1.260000	0.210000	184.00	-0.24	0.00	8.00	4.50	6.25	5.00	2.25	2.25	1.00	1.00	1.75	1.00	1.25	1.00	0.25	1.00	0.75	0.25	-0.257812	0.066406	0.925781	-3.080000	-6.020000	1.820000	485.00	-0.17	-0.02
0.09	5.00	2.75	2.75	2.00	0.25	0.00	0.50	0.00	0.25	0.25	0.50	0.25	0.00	0.25	0.00	0.00	-0.290527	0.039551	0.930176	-1.890000	1.260000	0.210000	186.00	-0.27	0.01	8.25	4.50	6.25	5.00	2.50	2.00	1.00	0.75	1.75	1.25	1.25	1.00	0.25	0.75	0.75	0.25	-0.261719	0.063965	0.925293	-3.150000	-6.090000	1.820000	484.00	-0.18	-0.02
0.10	4.25	1.75	2.25	1.75	0.25	0.00	0.25	0.00	0.00	0.50	0.25	0.25	0.00	0.25	1.00	0.00	-0.293457	0.043945	0.936035	-1.960000	1.260000	0.280000	160.00	-0.22	-0.00	8.00	4.25	6.25	5.00	2.25	2.00	1.00	0.75	1.75	1.25	1.25	1.00	0.50	1.00	0.75	0.00	-0.260742	0.067383	0.921875	-3.290000	-6.090000	1.680000	478.00	-0.17	-0.02
0.11	4.50	2.50	2.50	1.75	0.25	0.00	0.50	0.25	0.50	0.50	0.25	0.25	0.00	0.25	0.50	0.00	-0.297852	0.042969	0.934082	-2.030000	1.260000	0.350000	186.00	-0.22	0.01	8.25	4.25	6.00	5.00	2.25	2.00	1.00	0.75	2.25	1.00	1.25	1.25	0.50	1.00	0.50	0.00	-0.258789	0.066895	0.925781	-3.220000	-5.880000	1.610000	483.00	-0.17	-0.02
0.12	5.00	2.75	2.50	1.50	0.25	0.00	0.50	0.25	0.25	0.50	0.25	0.50	0.00	0.00	0.50	0.00	-0.297852	0.043945	0.931641	-2.170000	1.330000	0.280000	188.00	-0.24	-0.00	8.00	4.25	6.50	5.00	2.25	2.00	1.00	0.75	1.50	1.00	1.50	1.25	0.50	1.25	0.75	0.00	-0.260742	0.069336	0.929688	-3.220000	-5.880000	1.680000	483.00	-0.17	-0.02
0.13	4.75	2.50	2.75	2.00	0.25	0.00	0.50	0.50	0.25	0.50	0.50	0.50	0.00	0.25	0.75	0.00	-0.292480	0.040527	0.937500	-2.240000	1.260000	0.140000	205.00	-0.21	-0.02	8.00	4.00	6.25	5.00	2.25	2.00	1.00	0.75	2.00	1.25	1.25	1.00	0.50	0.75	0.75	0.00	-0.264160	0.070801	0.928711	-3.220000	-5.600000	1.680000	477.00	-0.17	-0.02
0.14	4.75	2.50	2.50	2.00	0.25	0.00	0.50	0.25	0.50	0.50	0.50	0.25	0.00	0.00	0.50	0.00	-0.293945	0.042969	0.940918	-2.310000	1.260000	0.140000	193.00	-0.22	-0.00	8.00	4.25	6.25	4.75	2.25	2.00	1.00	0.75	1.50	1.25	1.25	1.25	0.50	0.75	0.50	0.00	-0.261230	0.068359	0.929688	-3.080000	-5.530000	1.610000	468.00	-0.18	-0.02
0.15	5.00	3.50	2.75	2.25	0.00	0.00	0.50	0.00	0.25	0.25	0.25	0.25	0.00	0.25	0.25	0.00	-0.291504	0.042480	0.931641	-2.380000	1.260000	0.280000	195.00	-0.27	-0.00	8.00	4.00	6.25	4.75	2.25	2.00	1.00	0.75	2.00	1.25	1.25	1.25	0.50	0.75	0.50	0.00	-0.270508	0.068359	0.925781	-2.940000	-5.460000	1.750000	473.00	-0.17	-0.02
0.16	4.50	2.75	2.75	2.25	0.25	0.00	0.50	0.25	0.50	0.25	0.25	0.25	0.00	0.00	0.00	0.00	-0.297363	0.040039	0.932129	-2.590000	1.330000	0.350000	186.00	-0.26	-0.00	8.00	4.00	6.25	5.00	2.25	2.00	1.00	0.75	2.00	1.25	1.25	1.25	0.25	1.00	1.00	0.25	-0.262207	0.066406	0.930176	-2.800000	-5.460000	1.820000	485.00	-0.16	-0.02
0.17	4.75	2.75	2.50	2.25	0.25	0.00	0.50	0.00	0.25	0.25	0.50	0.25	0.00	0.25	0.50	0.00	-0.292480	0.045898	0.932617	-2.590000	1.190000	0.210000	190.00	-0.24	-0.00	8.25	4.00	6.00	4.50	2.00	2.00	1.00	0.75	2.00	1.00	1.25	1.00	0.50	1.25	0.75	0.00	-0.267578	0.071289	0.923828	-2.800000	-5.600000	1.820000	469.00	-0.16	-0.01
0.18	5.00	2.75	2.75	2.25	0.25	0.00	0.50	0.25	0.50	0.25	0.50	0.25	0.00	0.00	0.25	0.00	-0.294922	0.045410	0.936035	-2.660000	1.190000	0.280000	199.00	-0.25	-0.00	8.00	4.00	6.25	4.75	2.25	2.00	1.25	0.75	1.50	1.00	1.25	1.00	0.75	1.25	0.75	0.25	-0.266113	0.069824	0.920410	-2.800000	-5.530000	1.820000	476.00	-0.16	-0.02
0.19	5.00	3.00	2.75	2.00	0.25	0.00	0.50	0.00	0.50	0.25	0.25	0.25	0.00	0.50	1.00	0.00	-0.291016	0.041992	0.928711	-2.800000	1.470000	0.280000	205.00	-0.22	0.01	8.25	4.00	6.25	4.50	2.00	1.75	1.00	0.75	2.00	1.25	1.25	1.25	0.50	1.00	0.75	0.25	-0.259277	0.068359	0.926270	-2.940000	-5.600000	1.750000	474.00	-0.16	-0.01
0.20	5.00	2.75	3.00	2.25	0.25	0.00	0.50	0.00	0.00	0.25	0.25	0.25	0.00	0.25	0.25	0.00	-0.298340	0.040039	0.934570	-2.660000	1.470000	0.140000	189.00	-0.27	0.00	8.25	4.00	6.25	4.50	2.00	2.00	1.00	0.75	1.75	1.25	1.50	1.00	0.75	1.00	0.50	0.25	-0.265137	0.065918	0.928711	-3.010000	-5.530000	1.610000	473.00	-0.17	-0.02
0.21	4.75	2.75	3.00	2.25	0.25	0.00	0.50	0.00	0.50	0.50	0.25	0.00	0.00	0.00	0.25	0.00	-0.299316	0.043457	0.935547	-2.590000	1.610000	0.140000	191.00	-0.26	0.01	8.00	4.00	6.25	4.25	2.00	1.75	1.00	0.75	2.00	1.25	1.50	1.00	0.50	1.50	0.50	0.00	-0.262695	0.062012	0.929688	-3.080000	-5.600000	1.680000	468.00	-0.16	-0.01
0.22	4.75	2.75	3.00	2.00	0.25	0.00	0.50	0.25	0.50	0.50	0.25	0.50	0.00	0.00	0.25	0.00	-0.286621	0.039551	0.932129	-2.520000	1.680000	0.140000	199.00	-0.24	-0.00	8.00	3.75	6.25	4.50	2.25	1.75	1.25	0.75	1.75	1.25	1.25	1.25	0.50	1.00	0.50	0.00	-0.270508	0.063965	0.924316	-3.010000	-5.460000	1.680000	467.00	-0.16	-0.01
0.23	5.00	3.00	3.00	2.00	0.25	0.00	0.50	0.25	0.50	0.25	0.50	0.25	0.00	0.50	0.50	0.00	-0.294434	0.039062	0.934570	-2.450000	1.820000	0.210000	210.00	-0.23	0.00	8.00	3.75	6.25	4.25	2.00	1.75	1.00	0.50	1.75	1.25	1.25	1.25	0.50	1.00	0.50	0.00	-0.263184	0.065918	0.930664	-3.150000	-5.530000	1.750000	452.00	-0.17	-0.01
0.24	4.50	2.50	2.50	2.25	0.25	0.00	0.50	0.00	0.50	0.50	0.25	0.25	0.00	0.25	0.75	0.00	-0.293945	0.040527	0.937012	-2.170000	2.100000	0.070000	191.00	-0.22	0.01	7.75	3.50	6.00	4.25	2.00	1.50	1.00	0.50	2.00	1.25	1.50	1.00	0.25	1.00	0.50	0.00	-0.262207	0.070312	0.921875	-3.150000	-5.670000	1.750000	440.00	-0.16	-0.00
0.25	5.00	3.00	3.00	2.25	0.25	0.00	0.50	0.50	0.50	0.50	0.25	0.50	0.00	0.00	0.00	0.00	-0.293945	0.040527	0.937012	-2.170000	2.100000	0.070000	209.00	-0.25	-0.01	7.75	3.50	6.25	4.00	2.00	1.50	1.00	0.75	2.25	1.25	1.25	1.00	0.50	1.00	0.25	0.00	-0.267090	0.067383	0.927246	-3.150000	-5.670000	1.820000	445.00	-0.16	-0.00
0.26	5.00	2.75	2.75	2.25	0.25	0.00	0.50	0.50	0.75	0.50	0.25	0.25	0.00	0.50	0.25	0.00	-0.291504	0.041992	0.931152	-1.960000	2.240000	0.140000	212.00	-0.22	0.00	8.00	3.50	6.00	4.25	2.25	1.50	1.00	0.75	1.75	1.25	1.50	1.00	0.50	1.00	0.50	0.00	-0.265137	0.073242	0.918945	-3.080000	-5.600000	1.820000	450.00	-0.16	-0.01
0.27	4.50	2.75	3.00	2.25	0.25	0.00	0.50	0.25	0.25	0.50	0.50	0.25	0.00	0.50	0.75	0.00	-0.299316	0.044434	0.936523	-1.890000	2.240000	0.070000	206.00	-0.21	-0.01	8.00	3.75	6.25	4.50	2.25	1.75	1.25	0.75	1.50	1.25	1.25	1.25	0.50	1.25	0.50	0.00	-0.268555	0.065918	0.925293	-2.940000	-5.460000	1.820000	466.00	-0.16	-0.01
0.28	4.75	2.75	3.00	2.25	0.25	0.00	0.50	0.50	0.50	0.50	0.50	0.50	0.00	0.25	0.50	0.00	-0.297363	0.039551	0.933105	-1.820000	2.170000	0.140000	216.00	-0.21	-0.01	8.00	3.75	6.25	4.25	2.00	1.50	1.25	0.75	2.00	1.50	1.50	1.25	0.50	1.00	0.25	0.00	-0.267578	0.067871	0.926758	-2.800000	-5.530000	1.890000	464.00	-0.16	-0.01
0.29	4.50	2.75	2.75	2.00	0.25	0.00	0.50	0.25	0.50	0.50	0.25	0.50	0.00	0.25	0.25	0.00	-0.303223	0.040527	0.935547	-1.960000	2.170000	0.280000	195.00	-0.23	-0.00	7.75	3.50	6.00	4.25	2.00	1.75	1.25	0.50	2.25	1.25	1.25	1.25	0.50	1.00	0.50	0.00	-0.270996	0.064941	0.929199	-2.870000	-5.460000	1.750000	455.00	-0.15	-0.00
0.30	5.00	2.75	3.00	2.25	0.25	0.00	0.50	0.25	0.50	0.50	0.25	0.00	0.00	0.25	0.50	0.00	-0.292969	0.038086	0.933594	-1.890000	2.030000	0.280000	205.00	-0.24	0.01	8.00	3.50	6.25	4.00	2.00	1.75	1.25	1.00	2.25	1.25	1.50	1.00	0.25	1.00	0.50	0.00	-0.271973	0.068359	0.925781	-2.870000	-5.460000	1.820000	464.00	-0.15	-0.00
0.31	4.75	2.50	3.00	2.25	0.25	0.00	0.50	0.25	0.25	0.50	0.50	0.25	0.00	0.25	0.50	0.00	-0.295898	0.043457	0.936035	-2.030000	2.170000	0.070000	201.00	-0.23	-0.00	7.75	3.50	6.25	4.25	2.00	1.50	1.25	0.75	1.75	1.50	1.50	1.25	0.50	1.25	0.00	0.00	-0.270020	0.064941	0.926270	-2.800000	-5.670000	1.750000	454.00	-0.16	-0.01
0.32	4.75	2.50	2.50	2.25	0.25	0.00	0.50	0.50	0.50	0.50	0.25	0.00	0.00	0.25	0.25	0.00	-0.294922	0.041992	0.931641	-2.100000	2.170000	0.070000	193.00	-0.24	-0.00	7.75	3.00	6.00	4.00	2.00	1.75	1.25	0.75	2.00	1.25	1.50	1.25	0.50	1.00	0.00	0.00	-0.264160	0.068359	0.925781	-2.800000	-5.810000	1.820000	443.00	-0.16	-0.00
0.33	4.75	2.75	3.00	2.00	0.25	0.00	0.50	0.25	0.50	0.50	0.50	0.25	0.00	0.00	0.50	0.00	-0.296875	0.044922	0.934082	-2.100000	2.240000	0.140000	202.00	-0.23	-0.00	8.00	3.50	6.25	4.00	2.00	1.50	1.25	1.00	1.75	1.50	1.50	1.25	0.50	0.75	0.50	0.00	-0.261230	0.064453	0.924805	-2.870000	-5.600000	1.820000	460.00	-0.16	-0.01
0.34	4.50	3.00	2.75	2.25	0.25	0.00	0.50	0.00	0.75	0.75	0.50	0.25	0.00	0.25	0.50	0.00	-0.300293	0.042969	0.938477	-2.030000	2.170000	0.140000	207.00	-0.21	0.01	7.75	3.50	6.25	4.00	2.00	1.50	1.25	0.75	2.25	1.50	1.50	1.00	0.50	1.00	0.25	0.00	-0.266113	0.071289	0.925293	-2.940000	-5.530000	1.820000	456.00	-0.15	0.00
0.35	4.75	2.75	2.75	2.25	0.25	0.00	0.50	0.00	0.50	0.50	0.50	0.50	0.00	0.50	0.75	0.00	-0.297852	0.041992	0.932129	-2.100000	2.240000	0.140000	209.00	-0.20	0.00	7.75	3.25	6.25	4.00	2.00	1.50	1.25	0.75	2.00	1.50	1.75	1.25	0.50	1.25	0.25	0.00	-0.266602	0.068359	0.927734	-3.010000	-5.670000	1.820000	458.00	-0.15	-0.00
0.36	4.50	2.75	3.00	2.00	0.25	0.00	0.50	0.50	0.75	0.25	0.50	0.25	0.00	0.50	1.00	0.00	-0.300293	0.044922	0.937500	-2.310000	2.240000	0.210000	216.00	-0.19	-0.00	7.75	3.25	6.00	4.25	2.00	1.50	1.25	0.50	2.25	1.25	1.50	1.25	0.50	1.00	0.25	0.00	-0.270020	0.069824	0.924805	-2.870000	-5.880000	1.820000	449.00	-0.15	0.00
0.37	4.50	2.25	3.00	2.00	0.25	0.00	0.50	0.00	0.75	0.50	0.25	0.25	0.00	0.00	0.25	0.00	-0.300293	0.045410	0.933105	-2.380000	2.310000	0.210000	186.00	-0.23	0.02	7.75	3.25	6.00	4.00	2.00	1.50	1.25	0.75	2.00	1.50	1.50	1.25	0.50	1.00	0.25	0.25	-0.268066	0.070312	0.921875	-2.730000	-6.020000	1.820000	451.00	-0.15	-0.00
0.38	4.00	2.25	2.75	2.00	0.25	0.00	0.50	0.50	0.50	0.50	0.25	0.50	0.00	0.75	0.75	0.00	-0.295410	0.043457	0.933594	-2.660000	2.170000	0.140000	199.00	-0.18	-0.01	7.50	3.25	6.00	4.00	2.00	1.50	1.25	0.75	2.00	1.50	1.50	1.25	0.50	1.00	0.50	0.00	-0.268066	0.064941	0.922363	-2.730000	-6.160000	1.820000	449.00	-0.15	-0.01
0.39	4.25	2.50	3.00	2.25	0.25	0.00	0.50	0.25	0.75	0.75	0.50	0.50	0.00	0.75	0.75	0.00	-0.295410	0.043457	0.933594	-2.660000	2.170000	0.140000	217.00	-0.17	0.00	7.50	3.25	6.00	4.00	2.00	1.50	1.25	0.75	1.75	1.25	1.50	1.25	0.50	1.25	0.00	0.00	-0.263672	0.063965	0.930664	-2.730000	-6.160000	1.820000	438.00	-0.16	-0.01
0.40	4.00	2.25	2.50	2.00	0.25	0.25	0.50	0.00	0.50	0.50	0.50	0.75	0.00	0.25	0.50	0.00	-0.301758	0.040039	0.936035	-2.730000	2.100000	0.140000	188.00	-0.19	-0.01	7.50	3.25	6.00	4.00	2.00	1.50	1.25	0.75	2.00	1.50	1.50	1.25	0.50	0.75	0.25	0.00	-0.267578	0.070312	0.925293	-2.660000	-6.370000	1.890000	444.00	-0.15	-0.01
0.41	4.25	2.50	2.75	2.00	0.25	0.00	0.50	0.25	0.75	0.25	0.50	0.25	0.00	0.50	0.75	0.00	-0.300781	0.043945	0.930664	-2.660000	1.820000	0.140000	199.00	-0.19	0.01	7.50	3.25	6.00	4.00	2.00	1.50	1.25	0.75	2.00	1.50	1.75	1.00	0.50	1.00	0.25	0.00	-0.266602	0.068359	0.929199	-2.590000	-6.510000	1.820000	446.00	-0.15	-0.00
0.42	4.25	2.50	2.75	2.25	0.25	0.00	0.50	0.00	0.50	0.75	0.50	0.25	0.00	0.50	0.50	0.00	-0.300293	0.042480	0.933105	-2.660000	1.680000	0.280000	197.00	-0.20	0.01	7.75	3.25	6.00	4.00	2.25	1.50	1.25	0.75	2.00	1.50	1.25	1.25	0.75	1.00	0.00	0.25	-0.265137	0.062012	0.924805	-2.590000	-6.440000	1.820000	450.00	-0.15	-0.01
0.43	4.25	2.25	3.00	2.00	0.25	0.00	0.50	0.00	0.50	0.50	0.25	0.25	0.00	0.50	1.00	0.00	-0.299316	0.042480	0.929688	-2.590000	1.540000	0.140000	194.00	-0.19	0.01	7.50	3.00	5.75	3.75	2.25	1.50	1.25	0.75	2.00	1.50	1.50	1.25	0.50	1.00	0.25	0.00	-0.268555	0.066406	0.929199	-2.380000	-6.510000	1.960000	440.00	-0.15	-0.00
0.44	4.75	2.25	3.00	2.25	0.25	0.00	0.50	0.00	0.75	0.75	0.75	0.50	0.00	0.50	1.00	0.00	-0.300293	0.044434	0.930664	-2.520000	1.470000	0.280000	220.00	-0.17	0.01	7.50	3.00	5.75	4.00	2.00	1.50	1.25	0.75	2.00	1.50	1.75	1.25	0.75	1.00	0.25	0.00	-0.270020	0.069824	0.929688	-2.240000	-6.790000	2.030000	446.00	-0.14	-0.01
0.45	4.50	2.50	2.75	2.00	0.25	0.00	0.50	0.00	0.50	0.25	0.50	0.25	0.00	0.75	1.00	0.00	-0.295898	0.038086	0.928711	-2.520000	1.470000	0.280000	199.00	-0.19	0.01	7.50	3.25	5.75	4.00	1.75	1.50	1.25	0.75	2.25	1.25	2.00	1.00	0.50	1.00	0.50	0.25	-0.267578	0.068359	0.928711	-2.100000	-7.210000	2.100000	448.00	-0.14	-0.00
0.46	4.00	2.25	2.50	2.00	0.25	0.00	0.75	0.25	0.50	0.75	0.25	0.25	0.00	0.25	0.75	0.00	-0.294434	0.041016	0.934570	-2.380000	1.330000	0.280000	191.00	-0.19	0.01	7.25	3.25	6.00	4.00	2.00	1.50	1.25	0.75	2.25	1.50	1.75	1.25	0.25	1.00	0.50	0.25	-0.268066	0.067871	0.929688	-2.100000	-7.490000	2.170000	452.00	-0.14	-0.00
0.47	4.00	2.50	3.00	2.25	0.25	0.00	0.50	0.25	0.75	0.50	0.50	0.50	0.00	0.50	0.75	0.00	-0.299316	0.035645	0.934082	-2.240000	1.190000	0.350000	208.00	-0.18	-0.00	7.50	3.25	5.75	3.75	2.00	1.25	1.25	0.50	2.00	1.25	1.50	1.25	0.50	1.25	0.00	0.00	-0.267090	0.066895	0.925293	-1.960000	-7.840000	2.170000	428.00	-0.15	0.00
0.48	4.50	2.50	2.50	2.25	0.25	0.00	0.50	0.00	0.50	0.50	0.50	0.50	0.00	0.50	0.75	0.00	-0.296875	0.040039	0.929688	-2.380000	1.330000	0.350000	200.00	-0.19	0.00	7.25	3.00	5.75	3.75	2.00	1.50	1.00	0.75	2.00	1.50	1.50	1.25	0.50	1.00	0.50	0.00	-0.268555	0.070312	0.925781	-1.960000	-7.910000	2.170000	432.00	-0.14	-0.01
0.49	4.50	2.50	2.75	2.00	0.25	0.00	0.50	0.25	0.50	0.50	0.50	0.25	0.00	0.50	0.50	0.00	-0.295898	0.039551	0.936523	-2.380000	1.190000	0.350000	198.00	-0.21	0.00	7.25	3.00	6.00	3.75	2.00	1.50	1.25	0.75	2.00	1.50	1.50	1.25	0.75	1.00	0.25	0.00	-0.266113	0.064941	0.920898	-1.960000	-7.980000	2.170000	440.00	-0.14	-0.01
0.50	4.25	2.25	2.75	2.25	0.25	0.00	0.50	0.00	0.75	0.75	0.50	0.25	0.00	0.75	0.25	0.00	-0.301758	0.041992	0.933105	-2.380000	1.260000	0.350000	197.00	-0.19	0.02	7.50	3.25	5.75	4.00	2.00	1.50	1.25	0.50	1.75	1.50	1.50	1.25	0.75	1.00	0.25	0.25	-0.261719	0.070312	0.925293	-1.890000	-7.910000	2.240000	438.00	-0.15	-0.01
0.51	4.00	2.50	2.75	2.00	0.25	0.00	0.50	0.00	0.75	0.50	0.50	0.25	0.00	0.50	0.75	0.00	-0.297852	0.038574	0.938965	-2.450000	1.260000	0.420000	194.00	-0.19	0.01	7.25	3.25	5.75	4.00	2.00	1.50	1.25	0.50	2.25	1.25	1.50	1.00	0.50	1.25	0.75	0.00	-0.263184	0.067383	0.921387	-1.890000	-7.840000	2.240000	442.00	-0.14	0.00
0.52	4.25	2.50	2.75	2.00	0.25	0.00	0.75	0.00	0.50	0.50	0.50	0.25	0.00	0.75	1.00	0.00	-0.300293	0.039062	0.929199	-2.520000	1.260000	0.350000	203.00	-0.17	0.02	7.50	3.25	5.75	4.00	2.00	1.50	1.25	0.75	2.00	1.50	1.50	1.25	0.75	1.25	0.75	0.00	-0.263184	0.066406	0.922852	-1.890000	-7.700000	2.240000	454.00	-0.14	-0.01
0.53	4.25	2.50	2.75	1.75	0.25	0.00	0.50	0.25	0.50	0.50	0.25	0.25	0.00	0.50	1.00	0.25	-0.300781	0.038086	0.932129	-2.520000	1.190000	0.350000	196.00	-0.18	0.00	7.25	3.25	5.75	4.00	2.00	1.75	1.00	0.75	1.75	1.50	1.25	1.00	0.50	1.00	0.50	0.00	-0.265625	0.065918	0.923340	-1.820000	-7.490000	2.240000	431.00	-0.16	-0.01
0.54	4.00	2.50	2.50	2.25	0.25	0.00	0.75	0.00	0.75	0.50	0.25	0.25	0.00	0.25	0.25	0.00	-0.298340	0.041504	0.937988	-2.450000	1.190000	0.140000	187.00	-0.21	0.02	7.50	3.00	5.75	3.75	2.00	1.75	1.25	0.75	1.75	1.25	1.50	1.25	0.75	1.25	0.50	0.25	-0.268555	0.068359	0.923828	-1.890000	-7.420000	2.240000	443.00	-0.14	-0.01
0.55	4.25	2.50	2.25	2.00	0.25	0.00	0.50	0.00	0.75	0.50	0.25	0.25	0.00	0.50	0.50	0.00	-0.299805	0.038574	0.937500	-2.590000	1.050000	0.140000	184.00	-0.20	0.02	7.50	3.25	6.00	3.75	2.00	1.75	1.25	0.75	2.00	1.25	1.50	1.25	0.50	1.00	0.75	0.25	-0.263672	0.070312	0.930176	-1.890000	-7.560000	2.170000	451.00	-0.14	-0.01
0.56	4.00	2.50	3.00	2.00	0.25	0.00	0.50	0.25	1.00	0.75	0.25	0.25	0.00	0.50	0.50	0.00	-0.299805	0.038574	0.931152	-2.730000	0.980000	0.210000	203.00	-0.18	0.02	7.50	3.00	5.75	4.00	2.00	1.50	1.00	0.75	2.00	1.50	1.50	1.00	0.75	1.00	0.50	0.25	-0.271973	0.067383	0.926758	-1.890000	-7.420000	2.170000	440.00	-0.14	-0.01
0.57	4.50	2.50	2.75	2.00	0.25	0.00	0.50	0.00	0.75	0.50	0.50	0.25	0.00	0.50	0.75	0.00	-0.300781	0.041992	0.936035	-2.800000	0.840000	0.280000	200.00	-0.19	0.02	7.25	3.25	5.75	4.00	2.00	1.75	1.00	1.00	1.75	1.50	1.50	1.50	0.75	1.00	0.75	0.25	-0.265625	0.065430	0.919922	-1.820000	-7.350000	2.240000	453.00	-0.14	-0.02
0.58	4.50	2.50	2.50	2.25	0.25	0.00	0.50	0.00	0.75	0.50	0.50	0.50	0.00	0.50	1.00	0.00	-0.300293	0.043945	0.931641	-2.730000	0.770000	0.350000	207.00	-0.18	0.01	7.25	3.25	6.00	4.00	2.00	1.50	1.00	0.75	2.00	1.25	1.50	1.25	0.75	1.25	0.50	0.25	-0.268066	0.068359	0.923828	-1.750000	-7.490000	2.170000	445.00	-0.14	-0.01
0.59	4.50	2.50	2.50	2.00	0.25	0.00	0.50	0.00	0.50	0.50	0.25	0.25	0.00	0.25	0.50	0.00	-0.298828	0.038086	0.929688	-2.730000	0.630000	0.280000	184.00	-0.23	0.01	7.50	3.25	6.00	4.00	2.00	1.75	1.00	0.75	2.00	1.25	1.50	1.50	0.50	1.25	0.50	0.00	-0.263184	0.068848	0.922852	-1.750000	-7.350000	2.170000	451.00	-0.15	-0.01
0.60	4.50	2.50	3.00	2.00	0.25	0.00	0.50	0.25	0.50	0.50	0.25	0.50	0.00	0.75	0.50	0.00	-0.295410	0.045410	0.932129	-2.940000	0.560000	0.350000	204.00	-0.20	0.00	7.50	3.00	5.75	3.75	2.00	1.75	1.25	1.00	1.25	1.25	1.25	1.25	0.75	0.75	0.50	0.00	-0.265625	0.070801	0.923340	-1.750000	-7.350000	2.170000	430.00	-0.16	-0.02
0.61	4.25	2.50	2.75	1.75	0.25	0.00	0.50	0.00	0.25	0.50	0.50	0.50	0.00	0.25	0.50	0.00	-0.297363	0.037109	0.928223	-2.940000	0.560000	0.350000	184.00	-0.22	0.00	7.25	3.25	5.75	4.00	2.00	1.75	1.00	0.75	1.75	1.25	1.50	1.25	0.50	0.75	0.75	0.00	-0.261719	0.071289	0.931641	-1.890000	-7.350000	2.170000	435.00	-0.15	-0.02
0.62	4.25	2.50	3.00	2.00	0.25	0.00	0.50	0.00	0.50	0.25	0.50	0.50	0.00	0.75	0.25	0.00	-0.298340	0.041992	0.932129	-3.010000	0.350000	0.280000	193.00	-0.21	0.01	7.50	3.25	5.75	4.00	2.00	1.50	1.00	0.75	2.00	1.25	1.25	1.50	0.75	1.50	0.75	0.00	-0.265625	0.071289	0.925781	-1.960000	-7.280000	2.100000	449.00	-0.14	-0.01
0.63	4.75	2.75	2.50	2.00	0.25	0.00	0.50	0.00	0.50	0.50	0.25	0.25	0.00	0.50	0.25	0.00	-0.293457	0.043945	0.936523	-2.800000	0.280000	0.210000	190.00	-0.23	0.01	7.75	3.50	6.00	4.00	2.25	1.75	1.00	1.00	2.00	1.25	1.25	1.25	0.75	1.25	0.75	0.25	-0.263184	0.071777	0.926270	-1.890000	-7.210000	2.170000	465.00	-0.15	-0.02
0.64	4.75	2.50	2.50	2.00	0.25	0.00	0.50	0.00	0.50	0.50	0.00	0.25	0.00	0.50	0.50	0.00	-0.295898	0.039062	0.934570	-2.800000	0.140000	0.420000	187.00	-0.23	0.02	7.50	3.50	6.00	4.00	2.00	2.00	1.00	0.75	1.50	1.25	1.50	1.50	0.50	1.25	0.50	0.25	-0.259766	0.073730	0.925781	-2.030000	-7.350000	2.170000	450.00	-0.15	-0.02
0.65	4.25	2.75	3.00	2.00	0.25	0.00	0.50	0.25	0.50	0.25	0.25	0.25	0.00	0.50	0.25	0.00	-0.295898	0.036621	0.929688	-2.870000	0.210000	0.560000	191.00	-0.23	0.00	7.50	3.25	6.00	4.00	2.00	2.00	1.00	0.75	2.00	1.25	1.50	1.50	0.75	1.25	0.75	0.00	-0.263184	0.075684	0.926270	-2.030000	-7.070000	2.100000	460.00	-0.14	-0.02
0.66	4.50	2.75	2.50	1.75	0.25	0.00	0.50	0.00	0.25	0.50	0.25	0.25	0.00	0.25	0.25	0.00	-0.296875	0.038574	0.927246	-2.870000	0.350000	0.420000	177.00	-0.25	0.01	7.50	3.50	6.00	4.25	2.00	1.75	1.00	1.00	2.00	1.25	1.50	1.25	0.50	1.00	0.75	0.00	-0.266113	0.074707	0.926270	-2.030000	-7.070000	2.170000	459.00	-0.15	-0.02
0.67	4.25	2.75	2.50	1.50	0.00	0.00	0.50	0.00	0.25	0.50	0.50	0.25	0.00	0.50	0.50	0.00	-0.299805	0.040039	0.932129	-2.800000	0.420000	0.420000	176.00	-0.22	0.01	7.50	3.50	6.00	4.00	2.25	1.75	1.00	0.75	2.00	1.25	1.25	1.25	0.50	1.25	0.50	0.25	-0.263672	0.070312	0.933594	-2.030000	-6.930000	2.170000	452.00	-0.15	-0.01
0.68	4.50	2.75	3.00	2.25	0.25	0.00	0.50	0.00	0.50	0.50	0.50	0.00	0.00	0.25	0.50	0.00	-0.297363	0.036621	0.939453	-2.590000	0.490000	0.420000	197.00	-0.23	0.01	7.75	3.50	6.00	4.25	2.25	2.00	1.00	0.75	1.50	1.25	1.25	1.25	0.75	1.00	0.75	0.25	-0.262695	0.067871	0.921875	-2.170000	-6.930000	2.170000	457.00	-0.16	-0.02
0.69	4.75	2.50	2.75	1.75	0.25	0.00	0.50	0.00	0.25	0.25	0.25	0.25	0.00	0.25	0.75	0.00	-0.296387	0.035645	0.926758	-2.520000	0.770000	0.280000	184.00	-0.24	0.01	7.50	3.25	5.75	4.00	2.25	1.75	1.00	0.75	1.50	1.25	1.50	1.25	0.75	1.00	0.75	0.00	-0.266113	0.072266	0.921875	-2.170000	-6.860000	2.100000	443.00	-0.15	-0.02
0.70	4.50	2.50	2.50	2.00	0.25	0.00	0.50	0.00	0.50	0.25	0.25	0.00	0.00	0.25	0.50	0.00	-0.296387	0.038086	0.926758	-2.450000	0.980000	0.210000	178.00	-0.24	0.02	7.75	3.25	5.75	4.25	2.25	2.00	1.00	1.00	2.00	1.25	1.50	1.25	0.75	1.00	0.50	0.25	-0.261719	0.072266	0.924316	-2.310000	-6.930000	2.170000	463.00	-0.15	-0.02
0.71	4.75	2.75	3.00	2.00	0.25	0.00	0.50	0.00	0.50	0.25	0.25	0.00	0.00	0.25	0.25	0.00	-0.295410	0.037109	0.930664	-2.380000	0.980000	0.280000	187.00	-0.26	0.02	7.75	3.50	6.00	4.50	2.00	2.00	1.00	0.75	1.75	1.25	1.25	1.25	0.75	1.00	0.75	0.00	-0.265625	0.068359	0.922363	-2.310000	-6.860000	2.030000	459.00	-0.16	-0.02
0.72	4.75	2.50	2.25	2.00	0.00	0.00	0.50	0.00	0.25	0.50	0.25	0.25	0.00	0.50	0.50	0.00	-0.299805	0.036621	0.933594	-2.310000	0.980000	0.210000	179.00	-0.23	0.01	7.75	3.25	6.00	4.00	2.25	1.75	1.00	1.00	1.00	1.25	1.50	1.25	0.50	1.25	0.50	0.00	-0.264648	0.065918	0.926758	-2.450000	-6.790000	2.030000	443.00	-0.16	-0.02
0.73	4.75	3.00	2.75	2.50	0.25	0.00	0.50	0.00	0.50	0.25	0.25	0.00	0.00	0.00	0.50	0.00	-0.292480	0.036133	0.932617	-2.240000	1.050000	0.280000	194.00	-0.26	0.00	7.75	3.50	5.75	4.25	2.25	2.00	1.00	1.00	2.00	1.25	1.50	1.25	0.50	1.00	0.75	0.25	-0.263672	0.068359	0.927246	-2.380000	-6.860000	2.030000	467.00	-0.15	-0.02
0.74	4.75	2.75	3.00	2.00	0.00	0.00	0.50	0.00	0.25	0.50	0.25	0.00	0.00	0.25	0.25	0.00	-0.293945	0.037109	0.930664	-2.240000	1.120000	0.210000	183.00	-0.26	0.01	7.75	3.25	6.00	4.00	2.00	2.00	1.00	1.00	2.00	1.25	1.50	1.50	0.75	0.75	0.75	0.00	-0.263672	0.067871	0.923828	-2.590000	-6.650000	2.100000	462.00	-0.15	-0.02
0.75	4.75	2.75	3.00	2.25	0.25	0.00	0.50	0.00	0.50	0.50	0.25	0.25	0.00	0.25	0.75	0.00	-0.295410	0.042480	0.933594	-2.170000	1.120000	0.350000	203.00	-0.22	0.01	7.50	3.25	6.00	4.25	2.00	2.00	1.00	0.75	1.75	1.25	1.50	1.25	0.75	1.25	0.75	0.25	-0.268066	0.070801	0.931152	-2.590000	-6.720000	2.100000	457.00	-0.15	-0.02
0.76	4.75	2.75	3.00	2.25	0.25	0.00	0.50	0.00	0.50	0.50	0.50	0.25	0.00	0.50	0.75	0.00	-0.298828	0.040527	0.932129	-2.100000	0.980000	0.280000	209.00	-0.21	0.01	8.00	3.25	6.00	4.25	2.00	2.00	1.00	0.75	2.00	1.25	1.25	1.50	0.75	1.25	0.75	0.25	-0.265137	0.066895	0.923340	-2.450000	-6.510000	2.100000	467.00	-0.15	-0.02
0.77	4.75	2.50	2.75	1.75	0.25	0.00	0.50	0.00	0.50	0.50	0.25	0.25	0.00	0.25	0.50	0.00	-0.298340	0.042969	0.928711	-2.240000	1.050000	0.280000	187.00	-0.23	0.02	8.00	3.50	6.00	4.25	2.00	1.75	1.00	1.00	2.00	1.25	1.25	1.25	0.50	1.00	0.75	0.25	-0.265137	0.066406	0.927246	-2.590000	-6.510000	2.030000	463.00	-0.15	-0.02
0.78	4.50	3.00	3.00	2.00	0.00	0.00	0.50	0.00	0.50	0.50	0.25	0.25	0.00	0.25	0.75	0.00	-0.292480	0.042480	0.936035	-2.310000	1.120000	0.210000	196.00	-0.22	0.01	8.00	3.50	5.75	4.50	2.25	2.00	1.00	0.75	1.75	1.25	1.25	1.25	0.75	1.25	1.00	0.25	-0.270508	0.071777	0.927734	-2.660000	-6.580000	2.030000	470.00	-0.15	-0.02
0.79	4.50	2.50	2.75	2.00	0.00	0.00	0.50	0.00	0.50	0.25	0.00	0.25	0.00	0.25	0.00	0.00	-0.295898	0.037109	0.929199	-2.240000	0.770000	0.420000	172.00	-0.27	0.02	7.75	3.50	6.00	4.25	2.00	2.00	1.00	0.75	2.00	1.25	1.50	1.25	0.75	1.25	0.50	0.00	-0.264648	0.071777	0.923828	-2.730000	-6.720000	2.170000	462.00	-0.15	-0.01
0.80	4.75	2.75	3.00	1.75	0.25	0.00	0.50	0.00	0.50	0.50	0.25	0.00	0.00	0.00	0.75	0.00	-0.298828	0.041992	0.932129	-2.170000	0.700000	0.490000	191.00	-0.24	0.02	8.00	3.25	5.75	4.25	2.25	1.75	1.00	0.75	1.75	1.25	1.50	1.25	0.75	1.00	1.25	0.00	-0.268066	0.066406	0.924805	-2.660000	-6.790000	1.960000	462.00	-0.15	-0.02
0.81	4.50	3.00	2.75	2.00	0.00	0.00	0.50	0.00	0.50	0.50	0.00	0.25	0.00	0.50	0.50	0.00	-0.291504	0.039062	0.935547	-2.240000	0.840000	0.350000	189.00	-0.23	0.01	7.75	3.25	6.00	4.25	2.00	2.00	1.00	1.00	1.25	1.25	1.50	1.25	0.75	1.00	0.75	0.00	-0.268066	0.069336	0.923828	-2.660000	-6.930000	1.890000	453.00	-0.16	-0.03
0.82	4.75	2.50	3.00	1.75	0.00	0.00	0.50	0.00	0.25	0.50	0.25	0.00	0.00	0.00	0.25	0.00	-0.300293	0.033691	0.931641	-2.310000	0.700000	0.420000	175.00	-0.27	0.02	8.00	3.50	6.00	4.25	2.00	2.00	1.00	0.75	2.25	1.25	1.50	1.25	0.50	1.00	0.50	0.00	-0.265137	0.071289	0.929199	-2.660000	-6.860000	2.030000	464.00	-0.15	-0.01
0.83	5.00	2.50	2.75	2.00	0.25	0.00	0.50	0.00	0.25	0.50	0.25	0.00	0.00	0.25	0.75	0.00	-0.289551	0.036133	0.934570	-2.380000	0.700000	0.420000	190.00	-0.24	0.01	8.00	3.50	6.25	4.50	2.00	1.75	1.00	0.75	2.00	1.25	1.50	1.25	0.75	0.75	0.75	0.00	-0.258789	0.070801	0.932129	-2.660000	-6.860000	2.030000	467.00	-0.16	-0.02
0.84	5.00	2.75	2.75	2.00	0.25	0.00	0.50	0.25	0.00	0.25	0.00	0.25	0.00	0.00	0.00	0.00	-0.295898	0.038574	0.932129	-2.380000	0.630000	0.420000	178.00	-0.30	-0.01	8.25	3.50	6.00	4.50	2.00	2.00	1.00	1.00	1.25	1.25	1.50	1.50	0.75	1.25	1.00	0.00	-0.263672	0.075684	0.927734	-2.800000	-6.860000	1.960000	474.00	-0.15	-0.03
0.85	5.00	3.00	2.75	1.75	0.25	0.00	0.50	0.00	0.25	0.50	0.75	0.00	0.00	0.00	0.25	0.00	-0.290527	0.035645	0.936523	-2.310000	0.630000	0.350000	190.00	-0.26	0.01	8.25	3.50	6.00	4.50	2.25	1.75	1.00	0.75	2.00	1.25	1.25	1.25	0.50	1.00	0.75	0.00	-0.270020	0.067383	0.931641	-2.660000	-7.000000	1.960000	467.00	-0.16	-0.01
0.86	5.00	2.75	3.00	2.00	0.00	0.00	0.50	0.00	0.50	0.50	0.25	0.00	0.00	0.25	0.50	0.00	-0.298340	0.036621	0.932129	-2.240000	0.840000	0.350000	193.00	-0.24	0.02	8.00	3.50	6.00	4.25	2.00	2.00	1.00	0.75	1.50	1.25	1.25	1.25	0.75	1.50	0.50	0.00	-0.263672	0.071289	0.927246	-2.730000	-7.070000	2.100000	457.00	-0.16	-0.02
0.87	5.00	3.00	3.00	2.00	0.00	0.00	0.50	0.00	0.25	0.50	0.25	0.00	0.00	0.00	0.50	0.00	-0.294922	0.038086	0.931641	-2.240000	0.700000	0.350000	190.00	-0.27	0.01	8.00	3.75	5.75	4.25	2.25	2.00	1.00	0.75	1.75	1.25	1.50	1.25	0.75	1.00	0.75	0.00	-0.265137	0.069824	0.925781	-2.730000	-7.140000	2.030000	465.00	-0.16	-0.02
0.88	5.00	3.00	3.00	2.00	0.25	0.00	0.50	0.00	0.25	0.25	0.25	0.00	0.00	0.25	0.00	0.00	-0.296875	0.037598	0.934082	-2.240000	0.770000	0.280000	186.00	-0.29	0.01	8.00	3.50	6.00	4.50	2.25	2.00	1.00	0.75	1.75	1.25	1.25	1.25	0.75	1.50	0.25	0.00	-0.260254	0.069336	0.923828	-2.800000	-6.930000	2.030000	464.00	-0.16	-0.02
0.89	5.00	3.00	3.00	1.75	0.25	0.00	0.50	0.00	0.25	0.25	0.25	0.25	0.00	0.25	0.00	0.00	-0.295410	0.037598	0.933594	-2.030000	0.630000	0.350000	186.00	-0.28	0.01	8.00	3.50	6.00	4.25	2.00	2.00	1.00	0.75	1.75	1.25	1.50	1.00	0.75	1.00	0.50	0.25	-0.270020	0.073730	0.921875	-2.730000	-6.790000	1.820000	457.00	-0.16	-0.02
0.90	5.00	2.50	2.75	2.00	0.00	0.00	0.50	0.00	0.25	0.50	0.00	0.25	0.00	0.50	0.75	0.00	-0.297363	0.041504	0.939941	-2.030000	0.910000	0.210000	189.00	-0.23	0.01	8.25	3.75	6.25	4.50	2.00	2.00	1.00	1.00	1.75	1.00	1.25	1.25	0.75	1.00	0.75	0.25	-0.266602	0.072266	0.922363	-2.730000	-6.930000	1.890000	475.00	-0.16	-0.02
0.91	5.00	3.00	3.00	1.75	0.00	0.00	0.50	0.00	0.25	0.25	0.00	0.00	0.00	0.00	0.25	0.00	-0.292480	0.039062	0.932129	-2.240000	1.190000	0.280000	177.00	-0.30	0.02	8.25	3.75	6.25	4.25	2.00	1.75	1.00	0.75	2.00	1.25	1.25	1.25	0.75	0.75	0.75	0.00	-0.262695	0.075684	0.922363	-2.730000	-6.860000	1.960000	466.00	-0.16	-0.01
0.92	5.00	3.50	3.00	2.50	0.25	0.00	0.50	0.00	0.50	0.25	0.25	0.25	0.00	0.25	0.50	0.00	-0.293945	0.039551	0.935547	-2.100000	0.910000	0.350000	212.00	-0.25	-0.00	8.25	3.25	6.25	4.50	2.00	2.00	1.00	0.75	1.75	1.00	1.50	1.25	0.75	0.75	0.75	0.00	-0.264648	0.074219	0.925781	-2.730000	-6.790000	2.030000	463.00	-0.16	-0.02
0.93	5.25	3.00	2.75	2.50	0.25	0.00	0.50	0.00	0.25	0.50	0.25	0.00	0.00	0.25	0.25	0.00	-0.299805	0.037109	0.932617	-2.100000	0.910000	0.350000	199.00	-0.27	0.01	8.25	3.75	6.25	4.25	2.25	1.75	1.00	1.00	1.50	1.25	1.25	1.25	0.75	1.25	0.75	0.25	-0.266602	0.071777	0.931641	-2.870000	-6.860000	2.030000	473.00	-0.16	-0.02
0.94	5.00	3.00	3.25	2.25	0.25	0.00	0.50	0.00	0.50	0.50	0.50	0.25	0.00	0.25	0.50	0.00	-0.297363	0.033691	0.933594	-2.240000	1.050000	0.280000	212.00	-0.23	0.01	8.25	4.00	6.00	4.50	2.00	2.00	1.00	0.75	1.75	1.00	1.25	1.25	0.50	0.75	1.00	0.00	-0.261230	0.068359	0.931641	-2.940000	-6.930000	2.030000	466.00	-0.17	-0.02
0.95	5.25	3.00	3.25	2.25	0.25	0.00	0.50	0.00	0.25	0.50	0.25	0.00	0.00	0.75	0.00	0.00	-0.296875	0.036133	0.929688	-2.380000	1.050000	0.350000	204.00	-0.26	0.02	8.25	3.75	6.50	4.25	2.00	2.00	1.00	0.75	1.50	1.25	1.25	1.25	0.50	0.75	0.50	0.00	-0.262207	0.068359	0.928223	-2.870000	-6.860000	2.030000	459.00	-0.17	-0.02
0.96	5.00	3.00	3.25	2.00	0.25	0.00	0.50	0.00	0.25	0.25	0.25	0.00	0.00	0.25	0.50	0.00	-0.296875	0.040527	0.935547	-2.310000	0.840000	0.280000	196.00	-0.26	0.01	8.00	3.75	6.50	4.25	2.00	2.00	1.00	0.75	1.50	1.25	1.25	1.25	0.50	1.00	0.75	0.00	-0.264648	0.070801	0.922363	-2.800000	-7.000000	1.960000	462.00	-0.17	-0.02
0.97	5.25	3.25	2.75	2.75	0.25	0.00	0.50	0.00	0.25	0.25	0.25	0.00	0.00	0.25	0.25	0.00	-0.295410	0.034668	0.937012	-2.170000	0.770000	0.350000	202.00	-0.28	-0.00	8.25	3.75	6.50	4.50	2.00	2.00	1.00	0.75	1.75	1.00	1.25	1.25	0.50	1.00	0.50	0.00	-0.261230	0.071289	0.927734	-2.870000	-6.930000	1.960000	466.00	-0.17	-0.02
0.98	5.25	3.50	2.75	2.25	0.00	0.00	0.50	0.00	0.25	0.25	0.25	0.00	0.00	0.50	0.00	0.00	-0.299805	0.035156	0.935059	-2.240000	0.630000	0.420000	194.00	-0.28	0.01	8.50	3.75	6.25	4.50	2.00	1.75	1.00	0.75	1.75	1.00	1.25	1.00	0.50	1.25	0.50	0.00	-0.264160	0.071777	0.925293	-2.870000	-7.070000	1.960000	462.00	-0.17	-0.01
0.99	5.25	3.50	3.00	2.00	0.00	0.00	0.50	0.00	0.25	0.50	0.25	0.00	0.00	0.00	0.25	0.00	-0.300781	0.040527	0.932129	-2.380000	0.700000	0.420000	195.00	-0.28	0.01	8.50	4.00	6.50	4.25	2.00	1.75	1.00	0.75	1.50	1.25	1.25	1.25	0.75	1.00	0.50	0.00	-0.259766	0.066895	0.925781	-2.870000	-6.930000	1.960000	467.00	-0.17	-0.02
1.00	5.50	3.25	3.00	2.50	0.00	0.00	0.50	0.00	0.50	0.50	0.25	0.00	0.00	0.00	0.50	0.00	-0.295898	0.035645	0.932617	-2.380000	0.770000	0.420000	209.00	-0.26	0.01	8.25	4.00	6.50	4.50	2.00	1.75	1.00	0.75	1.50	1.00	1.25	1.00	0.25	1.00	0.75	0.00	-0.264160	0.071777	0.927734	-2.870000	-6.930000	1.820000	459.00	-0.18	-0.01
1.01	5.50	3.25	2.75	2.50	0.00	0.00	0.50	0.00	0.25	0.25	0.00	0.25	0.00	0.00	0.00	0.00	-0.295898	0.035156	0.934570	-2.310000	0.700000	0.210000	193.00	-0.30	-0.00	8.50	3.75	6.50	4.50	2.00	1.75	1.00	0.75	1.50	1.25	1.25	1.00	0.50	1.25	0.75	0.00	-0.265137	0.069824	0.922852	-2.800000	-6.930000	1.890000	468.00	-0.17	-0.01
1.02	5.50	3.50	3.00	2.00	0.25	0.00	0.50	0.00	0.25	0.25	0.25	0.00	0.00	0.25	0.25	0.00	-0.292969	0.035156	0.936035	-2.310000	0.630000	0.350000	201.00	-0.28	0.01	8.50	4.00	6.50	4.50	2.00	2.00	0.75	1.00	1.75	1.25	1.25	1.25	0.75	1.00	0.75	0.00	-0.260254	0.070801	0.930176	-2.660000	-6.580000	1.960000	481.00	-0.17	-0.02
1.03	5.50	3.50	3.00	2.50	0.25	0.25	0.50	0.00	0.50	0.50	0.00	0.25	0.00	0.50	0.50	0.00	-0.293457	0.036621	0.934570	-2.310000	0.630000	0.420000	224.00	-0.25	0.00	8.75	4.00	6.50	4.50	2.00	1.75	1.00	0.75	1.50	1.00	1.25	1.00	0.50	1.00	1.00	0.00	-0.265137	0.068359	0.923828	-2.730000	-6.720000	1.960000	471.00	-0.17	-0.01
1.04	5.75	3.50	3.00	2.25	0.00	0.00	0.50	0.00	0.25	0.25	0.00	0.25	0.00	0.00	0.50	0.00	-0.292480	0.038574	0.931152	-2.240000	0.770000	0.350000	205.00	-0.28	0.00	8.50	3.75	6.50	4.50	2.00	1.75	1.00	0.75	1.50	1.25	1.00	1.25	0.50	0.75	0.75	0.00	-0.258301	0.069336	0.927734	-2.660000	-6.860000	2.030000	463.00	-0.18	-0.02
1.05	5.50	3.25	3.00	2.25	0.00	0.00	0.50	0.00	0.00	0.50	0.00	0.00	0.00	0.00	0.25	0.00	-0.293457	0.032715	0.933105	-2.100000	0.840000	0.350000	192.00	-0.30	0.00	8.75	3.75	6.50	4.50	2.00	1.75	1.00	0.75	1.50	1.25	1.25	1.00	0.50	1.00	0.50	0.00	-0.267578	0.069336	0.927246	-2.590000	-6.930000	1.960000	465.00	-0.18	-0.01
1.06	5.50	3.25	3.00	2.25	0.00	0.00	0.50	0.00	0.50	0.75	0.25	0.00	0.00	0.25	0.75	0.00	-0.290527	0.033203	0.932129	-2.030000	1.050000	0.280000	215.00	-0.24	0.01	8.75	4.00	6.50	4.50	2.00	1.75	1.00	0.75	1.50	1.25	1.00	1.00	0.50	1.00	0.50	0.00	-0.266113	0.070801	0.928223	-2.660000	-6.790000	2.030000	465.00	-0.18	-0.01
1.07	5.50	3.25	3.00	2.25	0.00	0.25	0.25	0.00	0.25	0.25	0.25	0.25	0.00	0.25	0.50	0.00	-0.292480	0.042969	0.933105	-2.240000	1.190000	0.280000	203.00	-0.27	-0.01	8.75	3.75	6.75	4.50	2.00	2.00	1.00	0.75	1.50	1.00	1.25	1.00	0.50	0.75	0.50	0.00	-0.266602	0.069824	0.929688	-2.730000	-6.860000	1.960000	466.00	-0.18	-0.01
1.08	5.50	3.25	3.25	2.50	0.25	0.00	0.50	0.00	0.25	0.50	0.25	0.25	0.00	0.00	0.25	0.00	-0.297852	0.040039	0.937500	-2.240000	1.120000	0.420000	212.00	-0.27	0.00	8.75	3.75	6.50	4.50	2.00	1.75	0.75	0.75	1.75	1.25	1.25	1.00	0.50	1.00	0.75	0.00	-0.261230	0.076660	0.927246	-2.800000	-6.790000	1.960000	468.00	-0.17	-0.01
1.09	5.50	3.75	3.00	2.75	0.00	0.00	0.50	0.00	0.25	0.25	0.25	0.25	0.00	0.00	0.25	0.00	-0.295410	0.046387	0.933594	-2.170000	1.050000	0.350000	211.00	-0.29	-0.01	8.75	3.75	6.75	4.50	2.25	2.00	1.00	0.75	2.00	1.00	1.25	1.25	0.50	1.25	0.75	0.00	-0.261230	0.069824	0.928711	-2.800000	-6.790000	1.960000	488.00	-0.16	-0.01
1.10	5.50	3.25	3.00	2.25	0.25	0.00	0.25	0.00	0.00	0.25	0.25	0.00	0.00	0.00	0.00	0.00	-0.294922	0.035645	0.928711	-2.100000	1.050000	0.420000	188.00	-0.32	-0.00	8.50	4.00	6.50	4.50	2.00	1.75	1.00	0.75	1.75	1.25	1.00	1.00	0.50	1.00	0.75	0.00	-0.265137	0.068848	0.928711	-2.800000	-6.650000	1.960000	469.00	-0.17	-0.01
1.11	5.75	3.25	3.25	2.25	0.25	0.00	0.50	0.00	0.50	0.25	0.25	0.00	0.00	0.00	0.50	0.00	-0.293457	0.037109	0.936523	-2.030000	1.050000	0.420000	213.00	-0.27	0.01	8.75	3.75	6.50	4.75	2.00	1.75	1.00	0.50	1.50	1.25	1.25	1.25	0.50	1.00	0.50	0.25	-0.265625	0.066406	0.925781	-2.800000	-6.650000	2.030000	469.00	-0.18	-0.01
1.12	5.75	3.50	3.00	2.25	0.25	0.00	0.50	0.00	0.50	0.50	0.50	0.00	0.00	0.00	0.00	0.00	-0.290039	0.037598	0.932129	-2.030000	1.120000	0.280000	212.00	-0.28	0.01	8.75	3.75	6.50	4.75	2.00	2.00	1.00	0.50	1.50	1.00	1.25	1.25	0.50	1.00	0.75	0.00	-0.263672	0.066406	0.922852	-2.730000	-6.790000	1.890000	470.00	-0.18	-0.01
1.13	5.50	3.50	3.50	2.50	0.25	0.00	0.50	0.00	0.25	0.25	0.25	0.00	0.00	0.25	0.75	0.00	-0.298340	0.038086	0.937988	-2.030000	1.190000	0.350000	221.00	-0.26	0.00	9.00	3.75	6.50	4.50	2.00	2.00	1.00	0.75	1.75	1.25	1.00	1.25	0.50	1.00	0.75	0.00	-0.260254	0.069824	0.929199	-2.660000	-6.720000	1.960000	478.00	-0.17	-0.01
1.14	5.75	3.50	3.00	2.50	0.25	0.00	0.50	0.00	0.25	0.25	0.25	0.00	0.00	0.00	0.50	0.00	-0.295410	0.035645	0.935059	-2.100000	1.190000	0.280000	211.00	-0.28	0.00	8.75	4.00	6.75	4.75	2.00	1.75	1.00	0.75	1.75	1.00	1.00	1.25	0.50	0.75	1.00	0.00	-0.265625	0.071289	0.927246	-2.660000	-6.720000	2.030000	479.00	-0.18	-0.01
1.15	5.50	3.25	3.50	2.50	0.00	0.00	0.50	0.00	0.25	0.25	0.25	0.00	0.00	0.00	0.00	0.00	-0.294922	0.038574	0.929688	-2.100000	1.190000	0.210000	203.00	-0.30	0.01	8.75	3.75	6.50	4.50	2.00	1.75	1.00	0.50	1.50	1.00	1.25	1.25	0.25	1.25	0.75	0.00	-0.260742	0.069824	0.922363	-2.730000	-6.790000	1.960000	464.00	-0.17	-0.01
1.16	5.75	3.50	3.25	2.50	0.25	0.00	0.50	0.00	0.25	0.25	0.25	0.00	0.00	0.00	0.00	0.00	-0.297852	0.035645	0.932617	-2.240000	1.120000	0.280000	208.00	-0.30	0.01	8.75	3.75	6.50	4.50	2.00	2.00	1.00	0.75	1.50	1.00	1.25	1.00	0.25	0.75	0.75	0.25	-0.259766	0.068359	0.921387	-2.800000	-6.650000	2.030000	465.00	-0.18	-0.01
1.17	5.75	3.50	3.25	2.00	0.00	0.00	0.50	0.00	0.00	0.25	0.00	0.00	0.00	0.25	0.50	0.00	-0.300293	0.037109	0.940430	-2.170000	1.050000	0.350000	200.00	-0.29	0.01	8.50	3.75	6.75	4.25	2.00	1.75	0.75	0.75	1.75	1.25	1.00	1.00	0.75	1.00	0.50	0.25	-0.259766	0.068359	0.921387	-2.800000	-6.650000	2.030000	462.00	-0.17	-0.01
1.18	5.75	3.50	3.50	2.00	0.25	0.00	0.25	0.00	0.25	0.25	0.25	0.00	0.00	0.00	0.00	0.00	-0.298828	0.037598	0.932617	-2.170000	0.840000	0.420000	201.00	-0.31	0.01	8.75	4.00	6.50	4.50	2.00	2.00	1.00	0.75	1.75	1.25	1.25	1.25	0.50	0.50	0.75	0.00	-0.261719	0.072754	0.924316	-2.800000	-6.790000	1.960000	476.00	-0.18	-0.02
1.19	5.75	3.75	3.25	2.50	0.25	0.00	0.50	0.00	0.50	0.25	0.00	0.00	0.00	0.00	0.50	0.00	-0.289551	0.038086	0.932617	-2.170000	0.910000	0.420000	218.00	-0.28	0.01	8.75	3.75	6.75	4.50	2.00	1.75	1.00	0.75	1.50	1.00	1.25	1.00	0.25	1.00	0.75	0.00	-0.260742	0.068359	0.921387	-2.870000	-6.860000	1.960000	466.00	-0.18	-0.01
1.20	5.75	3.75	3.25	2.25	0.00	0.00	0.50	0.00	0.25	0.25	0.25	0.00	0.00	0.25	0.50	0.00	-0.291992	0.034180	0.930664	-2.240000	0.980000	0.420000	213.00	-0.28	0.01	8.50	4.00	6.50	4.50	1.75	2.00	1.00	0.75	1.50	1.00	1.25	1.25	0.25	1.00	0.75	0.25	-0.262695	0.072266	0.926758	-2.870000	-7.070000	2.030000	467.00	-0.17	-0.02
1.21	6.00	3.75	3.25	2.25	0.00	0.00	0.50	0.00	0.25	0.50	0.00	0.00	0.00	0.00	0.00	0.00	-0.292480	0.032227	0.928711	-2.240000	0.910000	0.420000	208.00	-0.31	0.01	9.00	3.75	6.50	4.75	2.25	2.00	1.00	0.50	1.75	1.00	1.25	1.25	0.50	0.75	0.50	0.00	-0.261719	0.068359	0.930176	-2.870000	-6.930000	1.960000	475.00	-0.18	-0.01
1.22	6.25	3.25	3.25	2.50	0.25	0.00	0.50	0.00	0.50	0.25	0.25	0.00	0.00	0.00	0.50	0.00	-0.292969	0.039062	0.933105	-2.170000	0.630000	0.420000	222.00	-0.27	0.01	8.75	4.00	6.75	4.75	2.00	1.75	1.00	0.75	1.50	1.00	1.00	1.00	0.50	1.00	0.75	0.00	-0.258789	0.069824	0.925293	-2.940000	-7.070000	2.100000	471.00	-0.18	-0.01
1.23	5.75	4.00	3.25	2.50	0.25	0.00	0.25	0.00	0.50	0.25	0.25	0.00	0.00	0.25	0.25	0.00	-0.294434	0.039062	0.938477	-2.310000	0.770000	0.420000	219.00	-0.28	0.00	8.75	4.00	6.75	4.50	2.00	1.75	1.00	0.75	2.00	1.00	1.25	1.00	0.50	0.75	0.75	0.00	-0.266602	0.073730	0.925781	-2.870000	-7.000000	2.100000	476.00	-0.18	-0.01
1.24	5.75	3.75	3.50	2.50	0.00	0.00	0.25	0.00	0.00	0.25	0.25	0.25	0.00	0.00	0.50	0.00	-0.295410	0.037109	0.934570	-2.450000	0.840000	0.490000	212.00	-0.30	-0.01	9.00	4.00	6.50	4.50	2.00	1.75	1.00	0.50	1.50	1.00	1.25	0.75	0.50	1.00	0.75	0.00	-0.264160	0.069824	0.929199	-2.940000	-7.070000	2.100000	463.00	-0.18	-0.01
1.25	6.00	4.25	3.50	2.75	0.00	0.00	0.50	0.00	0.00	0.50	0.25	0.00	0.00	0.00	0.25	0.00	-0.295410	0.042480	0.927246	-2.380000	0.560000	0.560000	225.00	-0.30	-0.01	9.00	4.00	6.50	4.50	2.00	1.75	0.75	0.50	1.25	1.25	1.25	1.00	0.25	0.50	0.50	0.00	-0.265625	0.073242	0.928223	-3.010000	-7.350000	2.100000	450.00	-0.20	-0.01
1.26	6.25	4.25	3.50	2.75	0.25	0.00	0.25	0.00	0.50	0.25	0.25	0.00	0.00	0.00	0.50	0.00	-0.296875	0.039551	0.933105	-2.450000	0.420000	0.350000	235.00	-0.29	-0.00	9.00	4.00	6.75	4.75	1.75	1.75	0.75	0.75	1.50	0.75	1.00	1.00	0.25	0.75	0.50	0.00	-0.277344	0.071289	0.936523	-3.080000	-7.700000	2.100000	455.00	-0.20	-0.01
1.27	6.25	4.00	3.50	2.75	0.25	0.00	0.50	0.00	0.50	0.25	0.50	0.25	0.00	0.25	0.50	0.00	-0.287598	0.038574	0.934570	-2.520000	0.420000	0.350000	246.00	-0.26	0.00	8.75	4.25	7.00	4.50	2.00	1.75	0.75	0.50	1.50	1.00	1.00	1.00	0.25	0.75	0.50	0.00	-0.268066	0.066895	0.935547	-3.080000	-8.120000	2.100000	457.00	-0.20	-0.01
1.28	6.75	4.50	3.75	3.00	0.25	0.00	0.50	0.00	0.50	0.25	0.25	0.00	0.00	0.25	0.25	0.00	-0.296387	0.037109	0.926758	-2.590000	0.280000	0.350000	255.00	-0.29	0.00	9.25	4.25	6.75	4.50	2.00	1.50	0.75	0.75	1.00	1.00	0.75	0.75	0.25	0.50	0.50	0.00	-0.266602	0.072266	0.926270	-3.360000	-8.470000	2.100000	444.00	-0.22	-0.01
1.29	6.50	4.25	3.75	3.00	0.00	0.00	0.25	0.00	0.25	0.00	0.00	0.00	0.00	0.25	0.25	0.00	-0.295410	0.037598	0.937988	-2.590000	0.210000	0.420000	231.00	-0.32	-0.00	9.50	4.75	6.75	4.50	1.75	1.75	0.75	0.50	1.25	0.75	1.00	0.75	0.25	0.50	0.50	0.00	-0.260742	0.067871	0.920898	-3.430000	-8.890000	2.240000	452.00	-0.22	-0.01
1.30	7.00	4.75	3.75	3.00	0.25	0.25	0.50	0.00	0.25	0.25	0.00	0.00	0.00	0.00	0.00	0.00	-0.295410	0.041504	0.937988	-2.450000	-0.070000	0.560000	251.00	-0.32	-0.00	9.25	4.50	6.75	4.75	2.00	1.75	0.75	0.50	0.75	0.75	1.00	0.75	0.25	0.75	0.75	0.00	-0.255371	0.071777	0.924316	-3.570000	-8.750000	2.100000	451.00	-0.22	-0.02
1.31	7.75	4.75	3.75	3.25	0.00	0.00	0.50	0.00	0.25	0.25	0.00	0.00	0.00	0.25	0.50	0.00	-0.297363	0.042480	0.933105	-2.380000	-0.770000	0.630000	266.00	-0.30	-0.00	9.75	5.00	7.00	4.75	1.75	1.50	0.75	0.50	1.00	0.75	1.00	1.00	0.25	0.50	0.25	0.00	-0.262207	0.072754	0.930664	-3.780000	-8.330000	1.890000	458.00	-0.23	-0.01
1.32	7.75	5.00	4.00	3.25	0.25	0.25	0.25	0.00	0.25	0.25	0.00	0.00	0.00	0.25	0.25	0.00	-0.295410	0.040039	0.935547	-2.240000	-1.120000	0.560000	271.00	-0.31	-0.01	9.50	5.00	6.75	5.00	1.75	1.75	0.75	0.50	0.75	0.75	0.75	0.75	0.25	0.75	0.50	0.00	-0.266602	0.070801	0.931152	-3.990000	-7.910000	1.750000	453.00	-0.23	-0.02
1.33	8.50	5.00	4.25	3.75	0.25	0.00	0.25	0.00	0.00	0.25	0.25	0.00	0.00	0.00	0.25	0.00	-0.299316	0.041992	0.937500	-2.100000	-1.470000	0.630000	284.00	-0.32	-0.01	9.50	5.00	6.75	4.75	1.75	1.50	0.75	0.50	1.00	0.75	0.75	0.75	0.25	0.25	0.25	0.00	-0.263184	0.065918	0.929688	-4.130000	-7.910000	1.750000	442.00	-0.24	-0.01
1.34	9.00	5.50	4.00	3.75	0.25	0.00	0.25	0.25	0.25	0.00	0.00	0.00	0.00	0.25	0.25	0.00	-0.298828	0.039551	0.940918	-2.030000	-1.890000	0.770000	297.00	-0.32	-0.01	9.75	5.25	6.75	4.75	1.75	1.50	0.75	0.50	1.25	0.75	0.75	0.50	0.25	0.50	0.50	0.00	-0.265137	0.063477	0.926270	-4.480000	-7.770000	1.540000	455.00	-0.23	-0.01
1.35	9.25	5.25	4.25	3.75	0.25	0.00	0.25	0.00	0.25	0.00	0.00	0.00	0.00	0.50	0.00	0.00	-0.298340	0.036621	0.942383	-1.750000	-2.310000	0.700000	295.00	-0.33	0.00	9.75	5.25	6.75	4.50	1.75	1.00	0.75	0.25	1.00	0.75	0.75	0.50	0.25	0.50	0.25	0.00	-0.260742	0.067871	0.928223	-4.620000	-7.770000	1.400000	433.00	-0.24	-0.00
1.36	9.50	5.50	4.75	3.75	0.25	0.00	0.25	0.00	0.00	0.25	0.00	0.00	0.00	0.00	0.00	0.00	-0.289551	0.033203	0.939453	-1.680000	-2.450000	0.840000	302.00	-0.34	-0.00	10.00	5.25	7.00	4.75	1.75	1.50	0.50	0.50	1.00	0.75	0.50	0.50	0.00	0.25	0.50	0.00	-0.257812	0.064941	0.930176	-4.760000	-7.910000	1.330000	444.00	-0.25	-0.01
1.37	10.00	5.75	4.50	3.75	0.25	0.00	0.25	0.00	0.00	0.00	0.00	0.00	0.00	0.00	0.00	0.00	-0.288086	0.038574	0.940430	-1.680000	-2.520000	0.840000	304.00	-0.35	-0.00	9.75	5.25	6.75	4.75	1.75	1.25	0.75	0.50	0.75	0.50	0.50	0.25	0.00	0.25	0.25	0.00	-0.262207	0.063965	0.931641	-4.760000	-8.190000	1.330000	426.00	-0.26	-0.01
1.38	10.25	5.75	4.75	4.00	0.25	0.00	0.25	0.00	0.00	0.25	0.00	0.00	0.00	0.25	0.00	0.00	-0.289062	0.039551	0.936035	-1.680000	-2.520000	0.770000	320.00	-0.34	-0.00	9.75	5.50	6.75	4.50	1.75	1.25	0.50	0.50	1.25	0.50	0.75	0.25	0.00	0.25	0.25	0.00	-0.262695	0.066895	0.931641	-4.690000	-8.120000	1.400000	432.00	-0.25	-0.01
1.39	10.75	6.25	4.25	4.00	0.25	0.00	0.25	0.00	0.00	0.00	0.00	0.00	0.00	0.00	0.00	0.00	-0.303711	0.035156	0.937012	-2.030000	-2.170000	0.490000	319.00	-0.35	-0.01	10.25	5.75	7.00	4.75	1.50	1.25	0.75	0.50	0.50	0.50	0.50	0.50	0.00	0.25	0.25	0.00	-0.255859	0.066406	0.920898	-4.690000	-8.260000	1.470000	437.00	-0.27	-0.01
1.40	11.50	6.75	5.00	4.25	0.25	0.00	0.25	0.00	0.25	0.00	0.00	0.00	0.00	0.25	0.00	0.00	-0.291504	0.041016	0.931641	-3.010000	-1.960000	0.140000	354.00	-0.34	-0.00	10.25	5.75	6.75	4.75	1.75	1.25	0.50	0.50	0.50	0.25	0.50	0.50	0.00	0.25	0.50	0.00	-0.260254	0.064453	0.922852	-4.760000	-8.120000	1.540000	432.00	-0.27	-0.02
1.41	11.75	7.00	5.00	4.25	0.25	0.00	0.00	0.00	0.00	0.00	0.00	0.00	0.00	0.00	0.00	0.00	-0.295898	0.047363	0.940430	-4.200000	-2.100000	-0.140000	349.00	-0.36	-0.01	10.50	5.75	7.00	4.75	1.50	1.00	0.50	0.25	0.25	0.25	0.50	0.25	0.00	0.25	0.25	0.00	-0.257324	0.070801	0.923340	-4.620000	-8.050000	1.540000	418.00	-0.29	-0.01
1.42	12.00	7.50	5.25	4.50	0.25	0.00	0.00	0.00	0.00	0.25	0.00	0.00	0.00	0.00	0.00	0.00	-0.292480	0.039551	0.939453	-6.230000	-2.870000	-0.420000	367.00	-0.35	-0.01	10.50	5.75	6.75	4.75	1.50	1.25	0.50	0.25	0.50	0.50	0.50	0.25	0.00	0.50	0.00	0.00	-0.263184	0.065430	0.926758	-4.620000	-7.980000	1.540000	424.00	-0.28	-0.01
1.43	12.50	8.00	5.00	4.75	0.25	0.00	0.00	0.00	0.00	0.00	0.00	0.00	0.00	0.00	0.00	0.00	-0.299316	0.036133	0.937500	-7.630000	-3.080000	-0.420000	375.00	-0.36	-0.02	10.50	5.75	6.75	4.50	1.25	1.00	0.50	0.25	0.50	0.50	0.50	0.25	0.00	0.25	0.50	0.00	-0.259277	0.061035	0.926758	-4.690000	-7.980000	1.680000	418.00	-0.27	-0.01
1.44	13.00	7.75	5.00	5.00	0.25	0.00	0.00	0.00	0.00	0.00	0.00	0.00	0.00	0.25	0.00	0.00	-0.283691	0.035156	0.937500	-8.960000	-3.010000	-0.840000	385.00	-0.35	-0.01	10.50	5.75	6.75	4.75	1.50	1.25	0.50	0.25	0.25	0.50	0.50	0.25	0.00	0.50	0.00	0.00	-0.254883	0.067871	0.925781	-4.340000	-7.840000	1.820000	420.00	-0.28	-0.01
1.45	13.25	8.25	5.25	4.50	0.25	0.00	0.00	0.00	0.00	0.00	0.00	0.00	0.00	0.00	0.00	0.00	-0.279785	0.037109	0.937500	-10.220000	-2.940000	-0.980000	388.00	-0.36	-0.01	10.75	5.75	6.75	4.75	1.50	1.25	0.50	0.25	0.25	0.25	0.50	0.25	0.00	0.00	0.00	0.00	-0.254883	0.067871	0.925781	-4.340000	-7.840000	1.820000	415.00	-0.30	-0.01
1.46	13.75	8.00	5.25	5.00	0.25	0.00	0.00	0.00	0.00	0.00	0.00	0.00	0.00	0.00	0.00	0.00	-0.285156	0.030273	0.941406	-11.200000	-2.800000	-1.050000	398.00	-0.36	-0.01	10.75	5.75	6.75	4.75	1.50	1.00	0.50	0.25	0.25	0.25	0.50	0.25	0.00	0.25	0.25	0.00	-0.252441	0.063965	0.928223	-4.340000	-7.630000	1.820000	417.00	-0.29	-0.01
1.47	13.75	8.50	5.25	4.75	0.25	0.00	0.00	0.00	0.00	0.00	0.00	0.00	0.00	0.00	0.00	0.00	-0.275391	0.027832	0.933105	-11.760000	-2.590000	-1.050000	400.00	-0.36	-0.01	10.50	6.00	6.75	4.50	1.25	0.25	0.50	0.25	0.50	0.25	0.25	0.25	0.00	0.00	0.25	0.00	-0.257324	0.062988	0.926270	-4.270000	-7.630000	1.890000	399.00	-0.29	-0.00
1.48	13.50	8.50	5.25	4.75	0.25	0.00	0.00	0.00	0.00	0.00	0.00	0.00	0.00	0.00	0.00	0.00	-0.270508	0.032227	0.933105	-11.900000	-1.960000	-0.910000	397.00	-0.36	-0.01	11.00	6.00	6.75	4.75	1.25	1.00	0.50	0.25	0.25	0.50	0.50	0.25	0.00	0.25	0.25	0.00	-0.254395	0.061523	0.926270	-3.990000	-7.350000	1.960000	423.00	-0.29	-0.01
1.49	14.50	8.75	5.25	4.75	0.25	0.00	0.00	0.00	0.00	0.00	0.00	0.00	0.00	0.00	0.00	0.00	-0.277832	0.029785	0.928711	-11.830000	-1.190000	-0.770000	412.00	-0.36	-0.01	10.75	6.25	7.00	4.50	1.50	1.00	0.50	0.25	0.25	0.25	0.50	0.25	0.00	0.00	0.00	0.00	-0.257324	0.053711	0.928711	-3.920000	-7.280000	2.100000	417.00	-0.30	-0.01
1.50	14.25	8.75	5.25	4.75	0.25	0.00	0.00	0.00	0.00	0.00	0.00	0.00	0.00	0.00	0.00	0.00	-0.276367	0.022949	0.928711	-11.550000	0.070000	-0.910000	409.00	-0.36	-0.01	11.00	6.00	7.00	4.50	1.25	1.25	0.50	0.25	0.25	0.25	0.25	0.25	0.00	0.25	0.00	0.00	-0.257324	0.062988	0.927734	-3.640000	-7.420000	2.170000	417.00	-0.30	-0.01
1.51	14.25	8.75	5.25	4.75	0.25	0.00	0.00	0.00	0.25	0.25	0.00	0.00	0.00	0.00	0.00	0.00	-0.271973	0.013672	0.932617	-11.060000	1.610000	-1.120000	416.00	-0.35	-0.01	11.00	6.50	6.75	4.75	1.50	1.00	0.50	0.25	0.00	0.25	0.25	0.25	0.00	0.00	0.25	0.00	-0.260742	0.059570	0.925293	-3.430000	-7.420000	2.240000	419.00	-0.30	-0.02
1.52	14.50	8.75	5.25	4.50	0.25	0.00	0.00	0.00	0.00	0.00	0.00	0.00	0.00	0.00	0.00	0.00	-0.274414	0.018066	0.931641	-10.640000	3.080000	-1.400000	409.00	-0.36	-0.01	11.25	6.50	6.75	4.75	1.25	1.00	0.50	0.25	0.50	0.25	0.25	0.00	0.00	0.00	0.00	0.00	-0.260742	0.062012	0.928223	-3.220000	-7.490000	2.240000	421.00	-0.30	-0.01
1.53	14.00	9.00	5.25	4.75	0.25	0.00	0.25	0.00	0.25	0.00	0.00	0.00	0.00	0.00	0.00	0.00	-0.276367	0.022461	0.922363	-10.500000	4.340000	-1.680000	417.00	-0.35	-0.01	11.00	6.50	7.00	4.75	1.25	1.25	0.50	0.25	0.25	0.25	0.00	0.00	0.00	0.00	0.25	0.00	-0.255371	0.059082	0.927734	-2.940000	-7.490000	2.240000	420.00	-0.31	-0.01
1.54	14.00	8.75	5.25	4.25	0.25	0.00	0.25	0.00	0.00	0.00	0.00	0.00	0.00	0.00	0.00	0.00	-0.264160	0.008789	0.903809	-8.960000	5.390000	-1.610000	404.00	-0.36	-0.01	11.00	6.50	7.00	5.00	1.25	0.75	0.50	0.25	0.50	0.25	0.25	0.25	0.00	0.25	0.00	0.00	-0.259277	0.062988	0.929199	-2.870000	-7.630000	2.450000	426.00	-0.30	-0.01
1.55	14.25	8.50	5.50	4.00	0.25	0.00	0.25	0.00	0.00	0.00	0.00	0.00	0.00	0.00	0.00	0.00	-0.248535	0.004883	0.895508	-5.180000	7.560000	-1.680000	404.00	-0.36	-0.00	11.00	6.75	6.75	4.50	1.25	0.50	0.50	0.25	0.25	0.25	0.50	0.25	0.00	0.00	0.00	0.00	-0.254883	0.064453	0.924316	-2.590000	-7.630000	2.590000	413.00	-0.30	-0.01
1.56	13.25	8.25	5.25	4.00	0.25	0.00	0.25	0.00	0.00	0.00	0.00	0.00	0.00	0.00	0.00	0.00	-0.250000	0.006836	0.906738	0.350000	10.360000	-1.680000	385.00	-0.36	-0.00	11.00	6.75	7.00	5.00	1.25	0.75	0.50	0.25	0.25	0.00	0.25	0.00	0.00	0.00	0.25	0.00	-0.263184	0.062500	0.931641	-2.450000	-7.770000	2.660000	420.00	-0.31	-0.01
1.57	12.75	7.75	5.00	3.75	0.25	0.00	0.50	0.00	0.25	0.25	0.00	0.00	0.00	0.00	0.00	0.00	-0.266113	0.008301	0.918945	4.620000	12.460000	-1.750000	379.00	-0.34	0.00	11.50	6.75	7.00	5.00	1.25	0.75	0.25	0.25	0.25	0.25	0.00	0.25	0.00	0.00	0.00	0.00	-0.262207	0.061035	0.927246	-2.450000	-7.840000	2.660000	421.00	-0.32	-0.01
1.58	11.75	7.25	5.00	3.25	0.25	0.00	0.50	0.00	0.25	0.25	0.00	0.00	0.00	0.00	0.00	0.00	-0.270508	0.011230	0.925781	7.280000	14.280000	-1.750000	354.00	-0.34	0.01	11.75	7.25	6.75	5.00	1.25	0.75	0.25	0.00	0.00	0.25	0.25	0.25	0.00	0.00	0.00	0.00	-0.257812	0.061035	0.930664	-2.660000	-7.840000	2.800000	421.00	-0.32	-0.01
1.59	10.75	6.75	4.75	3.00	0.25	0.00	0.75	0.00	0.25	0.25	0.00	0.00	0.00	0.00	0.00	0.00	-0.284668	0.032227	0.960938	6.650000	16.100000	-1.750000	334.00	-0.33	0.01	11.75	7.50	7.50	5.00	1.50	0.75	0.50	0.25	0.25	0.25	0.25	0.00	0.00	0.00	0.00	0.00	-0.261230	0.065918	0.924805	-2.940000	-7.980000	2.870000	447.00	-0.31	-0.01
1.60	9.25	6.00	4.25	2.75	0.25	0.00	0.75	0.00	0.50	0.00	0.00	0.00	0.00	0.00	0.00	0.00	-0.291992	0.042480	0.960449	1.190000	18.270000	-2.170000	298.00	-0.32	0.01	12.50	7.50	7.25	5.25	1.50	1.00	0.50	0.25	0.25	0.25	0.25	0.25	0.00	0.00	0.00	0.00	-0.263672	0.059082	0.918945	-3.010000	-8.330000	3.220000	463.00	-0.31	-0.01
1.61	8.00	5.25	3.00	2.00	0.00	0.00	1.00	0.00	0.50	0.25	0.00	0.00	0.00	0.50	0.00	0.00	-0.323730	0.033203	0.953613	-1.820000	19.110001	-3.220000	257.00	-0.30	0.02	13.00	8.25	7.50	5.50	1.50	1.25	0.50	0.25	0.25	0.25	0.25	0.00	0.00	0.00	0.00	0.00	-0.273926	0.062500	0.922363	-3.010000	-8.680000	3.500000	484.00	-0.31	-0.01
1.62	6.00	3.75	2.75	1.25	0.00	0.00	1.00	0.00	0.50	0.25	0.25	0.00	0.00	0.00	0.00	0.00	-0.299316	0.087402	0.948730	-2.870000	19.389999	-6.650000	201.00	-0.28	0.04	13.50	8.75	7.50	6.25	1.75	1.25	0.50	0.25	0.00	0.25	0.25	0.00	0.00	0.00	0.00	0.00	-0.278320	0.062500	0.918945	-2.940000	-10.010000	4.270000	505.00	-0.32	-0.02
1.63	4.75	2.50	1.50	1.00	0.00	0.00	1.00	0.00	1.00	0.25	0.00	0.00	0.00	0.25	0.00	0.00	-0.466797	0.294922	1.008301	-19.530001	32.060001	-18.340000	159.00	-0.23	0.06	15.00	10.00	8.00	6.75	1.75	1.50	0.50	0.25	0.50	0.25	0.25	0.25	0.00	0.00	0.00	0.00	-0.274414	0.066895	0.920898	-3.430000	-10.640000	4.690000	565.00	-0.31	-0.02
1.64	3.25	2.00	1.75	0.25	0.00	0.00	0.75	0.00	0.50	0.25	0.00	0.00	0.00	0.25	0.00	0.00	-0.229004	0.062500	1.455566	-35.209999	51.029999	-32.830002	116.00	-0.24	0.07	15.50	11.00	8.25	7.00	2.00	1.75	0.50	0.00	0.00	0.25	0.25	0.25	0.00	0.00	0.00	0.00	-0.268555	0.060059	0.925781	-3.640000	-10.850000	5.320000	583.00	-0.32	-0.02
1.65	2.50	1.25	1.00	0.25	0.00	0.00	0.75	0.00	0.75	0.50	0.00	0.00	0.00	0.00	0.00	0.00	-0.339844	0.138672	1.338867	-55.860001	100.099998	-42.070000	93.00	-0.18	0.09	16.50	11.75	8.50	7.50	2.00	2.00	0.50	0.50	0.00	0.25	0.25	0.00	0.00	0.00	0.00	0.00	-0.266113	0.059082	0.935547	-3.850000	-10.780000	5.880000	623.00	-0.32	-0.03
1.66	2.25	1.00	0.50	0.25	0.00	0.00	0.25	0.00	0.50	0.00	0.00	0.00	0.00	0.25	0.00	0.00	-0.361328	0.164062	1.505371	-59.849998	133.839996	-45.430000	64.00	-0.24	0.07	17.50	12.75	8.75	8.25	2.00	2.25	0.75	0.25	0.00	0.00	0.25	0.00	0.00	0.00	0.00	0.00	-0.253418	0.063477	0.934082	-3.500000	-9.870000	6.160000	659.00	-0.32	-0.03
1.67	2.00	0.75	0.75	0.25	0.00	0.00	0.25	0.00	0.25	0.00	0.00	0.00	0.00	0.00	0.00	0.00	-0.354492	0.060059	1.668945	-73.080002	150.009995	-48.299999	55.00	-0.29	0.07	18.00	13.75	8.75	8.75	2.25	2.50	0.75	0.50	0.00	0.00	0.25	0.00	0.00	0.00	0.00	0.00	-0.239258	0.061035	0.938477	-3.080000	-9.240000	6.370000	694.00	-0.32	-0.03
1.68	1.25	0.50	0.75	0.00	0.00	0.00	0.00	0.00	0.00	0.00	0.00	0.00	0.00	0.00	0.00	0.00	-0.300781	0.131836	1.741211	-101.500000	156.029999	-47.320000	31.00	0.00	0.00	18.50	14.75	9.00	8.75	2.25	2.50	0.75	0.50	0.00	0.25	0.25	0.00	0.00	0.00	0.00	0.00	-0.237305	0.055664	0.935547	-2.520000	-8.680000	6.300000	718.00	-0.32	-0.03
1.69	1.25	0.50	0.50	0.00	0.00	0.00	0.00	0.00	0.00	0.00	0.00	0.00	0.00	0.00	0.00	0.00	-0.094727	0.082031	1.894531	-128.100006	150.500000	-42.630001	28.00	0.00	0.00	18.75	14.75	9.00	9.00	2.25	2.75	0.75	0.50	0.00	0.25	0.25	0.00	0.00	0.00	0.00	0.00	-0.248535	0.059082	0.935059	-1.960000	-7.980000	6.300000	727.00	-0.32	-0.04
1.70	1.25	0.50	0.50	0.00	0.00	0.00	0.00	0.00	0.00	0.00	0.00	0.00	0.00	0.00	0.00	0.00	0.861816	0.234375	2.089355	-173.460007	126.910004	-43.470001	28.00	0.00	0.00	19.00	15.50	9.25	9.25	2.25	3.00	0.75	0.50	0.25	0.00	0.00	0.00	0.00	0.00	0.00	0.00	-0.244629	0.068359	0.940430	-1.610000	-6.790000	6.370000	746.00	-0.32	-0.04
1.71	1.00	0.00	0.50	0.00	0.00	0.00	0.00	0.00	0.00	0.00	0.00	0.00	0.00	0.00	0.00	0.00	1.201660	0.120117	2.014160	-193.759995	89.040001	-49.349998	19.00	0.00	0.00	19.50	16.00	9.25	9.50	2.50	3.00	0.75	0.50	0.00	0.00	0.00	0.25	0.00	0.00	0.00	0.00	-0.244629	0.065918	0.937012	-1.610000	-6.160000	6.300000	764.00	-0.32	-0.04
1.72	1.00	0.25	0.00	0.25	0.00	0.00	0.00	0.00	0.00	0.00	0.00	0.00	0.00	0.00	0.00	0.00	1.369629	0.851562	2.002930	-124.180000	51.730000	-34.790001	18.00	0.00	0.00	19.50	15.50	9.25	9.25	2.00	3.00	0.75	0.50	0.00	0.00	0.00	0.00	0.00	0.00	0.00	0.00	-0.243652	0.062012	0.932129	-1.680000	-5.320000	6.160000	745.00	-0.33	-0.04
1.73	1.00	0.25	0.25	0.00	0.00	0.00	0.00	0.00	0.00	0.00	0.00	0.00	0.00	0.00	0.00	0.00	1.596191	0.689941	1.410645	-36.189999	15.120000	-21.280001	18.00	0.00	0.00	19.50	15.75	9.00	9.25	2.25	3.00	0.75	0.50	0.00	0.00	0.25	0.00	0.00	0.00	0.00	0.00	-0.239258	0.054199	0.937988	-1.610000	-4.830000	6.160000	751.00	-0.33	-0.04
1.74	0.00	0.50	0.25	0.25	0.00	0.00	0.00	0.00	0.00	0.00	0.00	0.00	0.00	0.00	0.00	0.00	1.602539	0.474609	1.105469	9.660000	-28.630001	7.700000	12.00	0.00	0.00	19.50	15.75	9.00	9.50	2.00	3.00	0.75	0.50	0.00	0.00	0.00	0.00	0.00	0.00	0.00	0.00	-0.238281	0.061523	0.936035	-1.260000	-4.130000	5.950000	748.00	-0.33	-0.04
1.75	0.25	0.00	0.00	0.00	0.00	0.00	0.00	0.00	0.00	0.00	0.00	0.00	0.00	0.00	0.00	0.00	1.621582	0.441406	1.172852	9.660000	-28.630001	7.700000	3.00	0.00	0.00	19.00	15.50	8.75	9.25	2.00	3.00	0.75	0.50	0.00	0.00	0.25	0.25	0.00	0.00	0.00	0.00	-0.235352	0.055664	0.934570	-1.260000	-3.780000	5.460000	739.00	-0.32	-0.04
1.76	0.50	0.25	0.00	0.00	0.00	0.00	0.00	0.00	0.00	0.00	0.00	0.00	0.00	0.00	0.00	0.00	1.596680	0.311523	1.179688	39.410000	-74.269997	34.160000	9.00	0.00	0.00	18.75	15.25	9.00	9.25	2.00	3.00	0.75	0.50	0.25	0.00	0.00	0.00	0.00	0.00	0.00	0.00	-0.241211	0.067871	0.929199	-1.960000	-3.710000	3.850000	734.00	-0.32	-0.04
1.77	0.50	0.25	0.00	0.00	0.00	0.00	0.00	0.00	0.00	0.00	0.00	0.00	0.00	0.00	0.00	0.00	1.512695	0.089355	1.100098	64.959999	-98.000000	42.209999	9.00	0.00	0.00	18.25	15.00	8.75	9.00	2.00	2.75	0.50	0.25	0.00	0.00	0.00	0.00	0.00	0.00	0.00	0.00	-0.243164	0.062012	0.922852	-2.170000	-3.850000	3.150000	702.00	-0.33	-0.04
1.78	0.00	0.50	0.00	0.00	0.00	0.00	0.00	0.00	0.00	0.00	0.00	0.00	0.00	0.00	0.00	0.00	1.373047	-0.138184	1.070801	74.550003	-116.830002	46.759998	6.00	0.00	0.00	18.00	14.50	8.75	9.00	1.75	2.75	0.75	0.50	0.00	0.00	0.00	0.00	0.00	0.00	0.25	0.00	-0.248535	0.063477	0.927734	-2.660000	-4.130000	2.520000	702.00	-0.32	-0.04
1.79	0.50	0.00	0.00	0.00	0.00	0.00	0.00	0.00	0.00	0.00	0.00	0.00	0.00	0.00	0.00	0.00	1.255859	-0.291016	1.080566	71.470001	-130.830002	47.670002	6.00	0.00	0.00	17.50	14.25	8.50	8.75	2.00	2.75	0.50	0.50	0.00	0.00	0.25	0.00	0.00	0.00	0.00	0.00	-0.253418	0.064453	0.924805	-3.290000	-4.200000	2.030000	686.00	-0.33	-0.04
1.80	0.50	0.00	0.00	0.00	0.00	0.00	0.00	0.00	0.00	0.00	0.00	0.00	0.00	0.00	0.00	0.00	1.115723	-0.421387	1.135254	66.010002	-142.729996	44.869999	6.00	0.00	0.00	17.00	13.75	8.50	8.75	1.75	2.50	0.50	0.25	0.25	0.00	0.00	0.25	0.00	0.00	0.00	0.00	-0.256836	0.062988	0.928711	-3.710000	-4.410000	1.540000	667.00	-0.33	-0.04
1.81	0.25	0.00	0.00	0.00	0.00	0.00	0.00	0.00	0.00	0.00	0.00	0.00	0.00	0.00	0.00	0.00	0.970215	-0.539062	1.174805	61.250000	-153.440002	38.290001	3.00	0.00	0.00	17.50	13.75	8.50	8.50	1.75	2.50	0.50	0.25	0.00	0.00	0.00	0.00	0.00	0.00	0.00	0.00	-0.257324	0.065918	0.920410	-3.920000	-4.480000	1.190000	663.00	-0.33	-0.04
1.82	0.00	0.00	0.00	0.00	0.00	0.00	0.00	0.00	0.00	0.00	0.00	0.00	0.00	0.00	0.00	0.00	0.799316	-0.620117	1.149414	53.549999	-160.789993	29.049999	0.00	0.00	0.00	17.00	13.50	8.25	8.50	1.75	2.50	0.50	0.50	0.00	0.00	0.00	0.00	0.00	0.00	0.00	0.00	-0.255371	0.067383	0.927246	-4.060000	-5.040000	1.120000	655.00	-0.33	-0.04
1.83	0.00	0.00	0.00	0.00	0.00	0.00	0.00	0.00	0.00	0.00	0.00	0.00	0.00	0.00	0.00	0.00	0.622559	-0.649902	1.110840	41.299999	-163.029999	19.950001	0.00	0.00	0.00	17.25	13.25	8.25	8.25	1.25	2.50	0.50	0.25	0.00	0.00	0.00	0.00	0.00	0.00	0.00	0.00	-0.250977	0.061035	0.920410	-3.850000	-5.530000	1.050000	641.00	-0.33	-0.04
1.84	0.00	0.00	0.00	0.00	0.00	0.00	0.00	0.00	0.00	0.00	0.00	0.00	0.00	0.00	0.00	0.00	0.457031	-0.622070	1.130859	27.090000	-159.949997	12.810000	0.00	0.00	0.00	16.75	13.00	8.25	8.50	1.75	2.50	0.50	0.50	0.00	0.00	0.00	0.00	0.00	0.00	0.00	0.00	-0.258789	0.062012	0.917969	-3.570000	-5.950000	1.120000	646.00	-0.33	-0.04
1.85	0.25	0.00	0.00	0.00	0.00	0.00	0.00	0.00	0.00	0.00	0.00	0.00	0.00	0.00	0.00	0.00	0.291504	-0.517578	1.229004	15.050000	-153.509995	8.400000	3.00	0.00	0.00	17.00	12.75	8.25	8.25	1.75	2.25	0.75	0.50	0.00	0.00	0.00	0.00	0.00	0.00	0.00	0.00	-0.256836	0.057617	0.918457	-3.220000	-6.440000	1.260000	644.00	-0.33	-0.03
1.86	0.00	0.00	0.00	0.00	0.00	0.00	0.00	0.00	0.00	0.00	0.00	0.00	0.00	0.00	0.00	0.00	0.167480	-0.429199	1.284668	6.090000	-145.669998	7.420000	0.00	0.00	0.00	16.75	12.75	8.50	8.25	1.75	2.25	0.50	0.50	0.00	0.00	0.00	0.00	0.00	0.00	0.00	0.00	-0.242676	0.058594	0.911133	-2.590000	-6.720000	1.400000	640.00	-0.33	-0.04
1.87	0.00	0.00	0.00	0.00	0.00	0.00	0.00	0.00	0.00	0.00	0.00	0.00	0.00	0.00	0.00	0.00	-0.010254	-0.320801	1.430176	1.400000	-136.990005	10.010000	0.00	0.00	0.00	16.75	12.50	8.25	8.00	1.75	2.50	0.75	0.50	0.25	0.25	0.25	0.00	0.00	0.00	0.00	0.00	-0.252441	0.059570	0.925293	-2.170000	-6.300000	1.330000	649.00	-0.32	-0.03
1.88	0.25	0.00	0.00	0.00	0.00	0.00	0.00	0.00	0.00	0.00	0.00	0.00	0.00	0.00	0.00	0.00	-0.172852	-0.214844	1.582031	0.490000	-130.479996	15.680000	3.00	0.00	0.00	16.50	12.25	8.50	8.00	2.00	2.50	0.75	0.50	0.00	0.25	0.00	0.00	0.00	0.00	0.00	0.00	-0.256836	0.062500	0.929199	-2.240000	-6.370000	1.470000	642.00	-0.32	-0.03
1.89	0.00	0.00	0.00	0.00	0.00	0.00	0.00	0.00	0.00	0.00	0.00	0.00	0.00	0.00	0.00	0.00	-0.492188	-0.012695	1.929199	10.290000	-137.619995	32.830002	0.00	0.00	0.00	16.75	12.25	8.50	8.00	2.25	2.25	0.75	0.50	0.00	0.00	0.25	0.00	0.00	0.00	0.00	0.00	-0.256836	0.055664	0.925293	-2.310000	-6.370000	1.470000	646.00	-0.32	-0.03
1.90	0.00	0.00	0.00	0.00	0.00	0.00	0.00	0.00	0.00	0.00	0.00	0.00	0.00	0.00	0.00	0.00	-0.632812	0.064453	1.927734	16.590000	-151.339996	42.070000	0.00	0.00	0.00	16.50	12.00	8.50	8.00	2.25	2.75	0.75	0.50	0.25	0.25	0.25	0.00	0.00	0.00	0.00	0.00	-0.241211	0.057617	0.915527	-2.170000	-5.670000	1.330000	653.00	-0.31	-0.03
1.91	0.00	0.00	0.00	0.00	0.00	0.00	0.00	0.00	0.00	0.00	0.00	0.00	0.00	0.00	0.00	0.00	-0.763184	0.099609	1.815918	17.150000	-165.690002	50.610001	0.00	0.00	0.00	16.50	11.75	8.50	8.00	2.25	3.00	1.00	0.50	0.50	0.25	0.25	0.25	0.00	0.00	0.00	0.00	-0.240723	0.054199	0.914551	-1.750000	-5.110000	1.260000	665.00	-0.30	-0.03
1.92	0.00	0.00	0.00	0.00	0.00	0.00	0.00	0.00	0.00	0.00	0.00	0.00	0.00	0.00	0.00	0.00	-0.873047	0.113281	1.681152	9.590000	-177.380005	57.189999	0.00	0.00	0.00	16.00	11.75	8.75	8.00	2.75	3.25	1.00	0.75	0.50	0.25	0.25	0.25	0.00	0.00	0.00	0.00	-0.233887	0.055176	0.920410	-1.330000	-3.990000	1.190000	677.00	-0.30	-0.03
1.93	0.00	0.00	0.00	0.00	0.00	0.00	0.00	0.00	0.00	0.00	0.00	0.00	0.00	0.00	0.00	0.00	-0.935547	0.132324	1.530273	-0.000000	-186.619995	61.950001	0.00	0.00	0.00	15.75	11.25	8.50	7.75	2.75	3.25	1.00	0.75	0.50	0.25	0.50	0.50	0.00	0.00	0.50	0.00	-0.249023	0.059082	0.923828	-0.700000	-2.730000	1.190000	674.00	-0.28	-0.03
1.94	0.00	0.00	0.00	0.00	0.00	0.00	0.00	0.00	0.00	0.00	0.00	0.00	0.00	0.00	0.00	0.00	-0.985352	0.162109	1.377441	-2.590000	-193.059998	65.379997	0.00	0.00	0.00	15.50	11.00	8.50	8.00	2.75	3.50	1.25	0.75	0.75	0.50	0.50	0.25	0.00	0.50	0.50	0.00	-0.239258	0.057617	0.912598	-0.070000	-1.330000	1.400000	688.00	-0.27	-0.03
1.95	0.00	0.00	0.00	0.00	0.00	0.00	0.00	0.00	0.00	0.00	0.00	0.00	0.00	0.00	0.00	0.00	-1.033203	0.153809	1.218750	5.110000	-194.809998	67.830002	0.00	0.00	0.00	15.00	10.25	8.25	7.75	3.00	3.50	1.25	1.00	1.25	0.50	0.75	0.50	0.00	0.25	0.50	0.00	-0.242676	0.063965	0.907715	0.420000	0.070000	1.470000	687.00	-0.26	-0.03
1.96	0.00	0.00	0.00	0.00	0.00	0.00	0.00	0.00	0.00	0.00	0.00	0.00	0.00	0.00	0.00	0.00	-1.050293	0.110352	1.026367	17.639999	-191.169998	69.300003	0.00	0.00	0.00	14.25	9.75	8.25	7.75	3.00	4.00	1.50	1.25	1.25	0.75	1.00	0.75	0.00	0.50	0.50	0.00	-0.246094	0.064941	0.915039	0.420000	1.540000	1.190000	699.00	-0.24	-0.03
1.97	0.00	0.00	0.00	0.00	0.00	0.00	0.00	0.00	0.00	0.00	0.00	0.00	0.00	0.00	0.00	0.00	-1.237305	0.085938	0.892578	26.530001	-182.630005	68.879997	0.00	0.00	0.00	13.50	8.75	8.00	7.50	3.50	3.75	1.75	1.25	2.00	1.00	1.25	1.00	0.25	0.75	0.75	0.00	-0.262695	0.060059	0.916504	-0.000000	2.660000	0.770000	709.00	-0.21	-0.03
1.98	0.00	0.00	0.00	0.00	0.00	0.00	0.00	0.00	0.00	0.00	0.00	0.00	0.00	0.00	0.00	0.00	-1.438965	0.005859	0.726562	33.250000	-170.660004	64.959999	0.00	0.00	0.00	12.75	8.25	8.00	7.00	3.50	4.25	2.25	1.25	2.25	1.25	1.50	1.25	0.50	1.25	0.75	0.00	-0.253906	0.061523	0.921875	-0.840000	3.570000	0.560000	724.00	-0.19	-0.02
1.99	0.00	0.00	0.00	0.00	0.00	0.00	0.00	0.00	0.00	0.00	0.00	0.00	0.00	0.00	0.00	0.00	-1.678711	-0.046387	0.471191	35.279999	-154.630005	54.810001	0.00	0.00	0.00	11.75	7.25	7.75	6.75	4.00	4.25	2.75	1.75	2.75	1.50	1.50	1.50	0.75	1.50	1.25	0.00	-0.269043	0.072266	0.932617	-1.680000	4.550000	0.490000	745.00	-0.16	-0.02
2.00	0.00	0.00	0.00	0.00	0.00	0.00	0.00	0.00	0.00	0.00	0.00	0.00	0.00	0.00	0.00	0.00	-1.960938	-0.094727	0.222168	34.020000	-134.539993	37.939999	0.00	0.00	0.00	11.00	6.50	7.50	6.50	4.25	4.25	3.25	2.00	4.00	2.00	2.00	2.00	1.00	1.75	1.50	0.25	-0.270508	0.059082	0.933105	-2.100000	5.740000	0.420000	785.00	-0.12	-0.02
2.01	0.00	0.00	0.00	0.00	0.00	0.00	0.00	0.00	0.00	0.00	0.00	0.00	0.00	0.00	0.00	0.00	-2.238281	-0.133789	-0.025879	35.279999	-109.340004	15.960000	0.00	0.00	0.00	9.50	5.75	7.25	6.00	4.25	4.50	4.00	2.25	4.75	2.50	2.50	2.25	1.50	2.25	2.00	0.25	-0.277344	0.065430	0.931152	-2.240000	7.000000	0.560000	814.00	-0.09	-0.02
2.02	0.00	0.00	0.00	0.00	0.00	0.00	0.00	0.00	0.00	0.00	0.00	0.00	0.00	0.00	0.00	0.00	-2.333496	-0.193359	-0.255859	40.250000	-76.440002	-8.260000	0.00	0.00	0.00	8.75	5.00	6.50	5.50	4.25	4.50	4.50	2.50	5.25	3.00	3.00	2.75	1.75	2.50	2.25	0.50	-0.275391	0.060547	0.937012	-2.800000	9.100000	0.490000	829.00	-0.06	-0.02
2.03	0.00	0.00	0.00	0.00	0.00	0.00	0.00	0.00	0.00	0.00	0.00	0.00	0.00	0.00	0.00	0.00	-2.160156	-0.248535	-0.395020	39.900002	-33.880001	-31.360001	0.00	0.00	0.00	7.75	4.00	6.25	5.25	4.25	4.25	5.00	2.50	6.50	3.25	4.50	3.00	2.25	3.00	2.50	0.25	-0.282227	0.065918	0.934082	-3.360000	11.480000	0.420000	861.00	-0.03	-0.01
2.04	0.00	0.00	0.00	0.00	0.00	0.00	0.00	0.00	0.00	0.00	0.00	0.00	0.00	0.00	0.00	0.00	-1.880859	-0.226074	-0.265625	24.219999	14.630000	-51.939999	0.00	0.00	0.00	6.75	3.50	5.50	4.25	4.00	3.75	5.25	2.75	7.50	4.75	5.25	3.50	2.50	3.50	2.75	0.50	-0.285645	0.071289	0.930176	-7.560000	17.710001	-0.280000	882.00	0.01	-0.00
2.05	0.00	0.00	0.00	0.00	0.00	0.00	0.00	0.00	0.00	0.00	0.00	0.00	0.00	0.00	0.00	0.00	-1.503906	0.041992	0.339844	-17.780001	90.160004	-75.599998	0.00	0.00	0.00	6.25	2.25	5.00	3.25	3.50	3.00	5.50	2.75	8.00	5.25	6.00	4.25	2.75	4.25	3.25	1.00	-0.313477	0.061035	0.939453	-9.240000	20.020000	-0.000000	883.00	0.05	0.00
2.06	0.00	0.00	0.00	0.00	0.00	0.00	0.00	0.00	0.00	0.00	0.00	0.00	0.00	0.00	0.00	0.00	-1.430176	0.162598	0.498535	-29.889999	112.559998	-77.699997	0.00	0.00	0.00	5.00	1.75	4.00	2.50	3.25	2.50	6.00	2.75	8.75	6.25	6.50	5.25	3.25	5.00	3.75	0.75	-0.289551	0.068848	0.930176	-9.240000	22.680000	0.560000	898.00	0.08	0.00
2.07	0.00	0.00	0.00	0.00	0.00	0.00	0.00	0.00	0.00	0.00	0.00	0.00	0.00	0.00	0.00	0.00	-1.401367	0.273438	0.601074	-38.849998	127.680000	-73.220001	0.00	0.00	0.00	3.75	1.75	3.50	2.00	2.75	2.00	6.25	2.50	9.00	7.00	7.25	5.50	3.50	5.25	4.00	1.00	-0.307129	0.048340	0.936035	-9.590000	27.650000	0.630000	892.00	0.11	0.01
2.08	0.00	0.00	0.00	0.00	0.00	0.00	0.00	0.00	0.00	0.00	0.00	0.00	0.00	0.00	0.00	0.00	-1.410645	0.396484	0.703613	-46.970001	138.389999	-62.230000	0.00	0.00	0.00	3.25	1.00	2.25	1.00	1.75	1.25	6.50	2.25	9.75	7.50	7.50	6.00	3.75	5.75	4.50	1.00	-0.280762	0.071777	0.957520	-9.800000	35.420002	-0.630000	866.00	0.14	0.01
2.09	0.00	0.00	0.00	0.00	0.00	0.00	0.00	0.00	0.00	0.00	0.00	0.00	0.00	0.00	0.00	0.00	-1.406250	0.476074	0.772461	-52.430000	143.850006	-44.590000	0.00	0.00	0.00	2.50	1.00	1.75	1.25	1.25	0.50	6.50	1.75	10.50	8.00	8.00	6.25	3.75	6.50	5.00	1.50	-0.312500	0.035156	0.998047	-7.770000	47.670002	-3.780000	872.00	0.17	0.02
2.10	0.00	0.00	0.00	0.00	0.00	0.00	0.00	0.00	0.00	0.00	0.00	0.00	0.00	0.00	0.00	0.00	-1.445801	0.543457	0.817871	-54.180000	144.550003	-23.590000	0.00	0.00	0.00	2.25	0.50	1.50	1.00	0.75	0.25	6.75	1.50	11.25	8.25	8.25	6.25	3.75	7.50	5.00	1.50	-0.295410	0.079102	1.016602	-3.220000	65.099998	-6.020000	875.00	0.18	0.03
2.11	1.50	0.75	0.00	0.50	0.00	0.00	0.00	0.00	0.00	0.00	0.00	0.00	0.00	0.00	0.00	0.00	0.242676	-0.165039	3.527344	-1.890000	241.220001	2.100000	33.00	0.00	0.00	1.75	0.50	0.75	0.75	0.50	0.00	6.75	1.00	11.75	8.50	8.50	6.75	3.75	8.00	5.00	1.50	-0.318359	0.074219	1.067383	0.630000	90.860001	-7.700000	866.00	0.20	0.04
2.12	3.50	1.75	0.75	0.25	0.00	0.00	0.00	0.00	0.00	0.00	0.00	0.00	0.00	0.00	0.00	0.00	0.954102	0.564941	2.168945	-58.240002	152.320007	-3.780000	76.00	-0.38	0.02	1.00	0.25	1.00	0.25	0.25	0.00	6.75	0.75	12.25	8.75	8.75	6.75	3.25	8.25	5.25	1.50	-0.375488	0.069336	1.045898	3.080000	118.370003	-9.660000	857.00	0.22	0.04
2.13	4.75	3.50	1.00	0.75	0.00	0.00	0.00	0.00	0.00	0.00	0.00	0.00	0.00	0.00	0.00	0.00	0.292480	0.486816	-0.712402	-13.510000	80.080002	17.360001	121.00	-0.38	-0.01	1.25	0.50	1.00	0.25	0.25	0.00	6.50	0.50	12.75	9.00	9.00	6.75	2.75	8.75	5.00	1.75	-0.389648	0.049805	1.083984	0.630000	144.970001	-10.710000	867.00	0.22	0.05
2.14	5.75	5.00	1.25	1.00	0.00	0.00	0.00	0.00	0.00	0.00	0.00	0.00	0.00	0.00	0.00	0.00	-0.290527	-0.249023	-0.374512	3.780000	172.619995	37.869999	156.00	-0.38	-0.02	0.75	0.00	0.25	0.00	0.25	0.00	6.50	0.25	13.00	9.25	9.00	6.50	2.25	9.00	5.25	1.75	-0.414062	0.066895	1.088379	-5.810000	172.619995	-11.270000	841.00	0.24	0.06
2.15	8.00	5.50	1.50	1.25	0.00	0.00	0.00	0.00	0.00	0.00	0.00	0.00	0.00	0.00	0.00	0.00	-0.498535	-0.044434	1.753906	6.160000	247.520004	41.930000	196.00	-0.38	-0.01	0.50	0.00	0.00	0.00	0.00	0.00	6.25	0.00	13.00	9.25	9.00	6.50	1.75	9.25	5.00	2.00	-0.465332	0.090820	1.115723	-12.390000	198.800003	-12.950000	819.00	0.25	0.06
2.16	10.00	7.00	2.00	1.75	0.00	0.00	0.00	0.00	0.00	0.00	0.00	0.00	0.00	0.00	0.00	0.00	-0.935547	-0.509766	2.606445	14.560000	208.320007	37.730000	251.00	-0.38	-0.01	0.00	0.00	0.25	0.00	0.00	0.00	6.25	0.00	13.00	9.25	9.00	6.25	1.25	9.50	5.00	2.25	-0.483887	0.077637	1.092285	-19.389999	223.649994	-15.750000	812.00	0.25	0.07
2.17	12.00	8.75	2.75	2.25	0.00	0.00	0.00	0.00	0.00	0.00	0.00	0.00	0.00	0.00	0.00	0.00	-0.728516	-0.561035	1.599609	11.760000	157.360001	14.910000	311.00	-0.38	-0.01	0.25	0.25	0.00	0.00	0.00	0.00	6.00	0.00	12.75	9.00	8.75	6.00	1.00	10.00	5.25	2.50	-0.523926	0.038574	1.152832	-25.760000	248.570007	-18.059999	803.00	0.25	0.07
2.18	14.25	9.75	3.25	3.00	0.00	0.00	0.00	0.00	0.00	0.00	0.00	0.00	0.00	0.00	0.00	0.00	-0.395996	-0.216797	1.218750	10.850000	148.190002	-6.930000	367.00	-0.38	-0.01	0.00	0.00	0.00	0.00	0.00	0.00	5.75	0.00	12.50	9.00	8.75	5.50	1.00	10.00	5.00	3.00	-0.577148	0.054688	1.151855	-32.480000	270.480011	-19.250000	783.00	0.26	0.07
2.19	15.00	10.75	4.00	3.50	0.00	0.00	0.00	0.00	0.00	0.00	0.00	0.00	0.00	0.00	0.00	0.00	-0.351074	0.090820	1.459473	21.280001	144.199997	-11.130000	404.00	-0.38	-0.01	0.00	0.00	0.00	0.00	0.00	0.00	5.50	0.00	11.75	8.50	8.25	5.00	0.50	10.25	5.00	3.25	-0.629883	0.048828	1.171387	-35.910000	288.820007	-19.879999	747.00	0.26	0.07
2.20	15.75	11.75	4.00	5.00	0.00	0.00	0.00	0.00	0.00	0.00	0.00	0.00	0.00	0.00	0.00	0.00	-0.452637	0.134277	1.342285	21.980000	123.550003	0.770000	444.00	-0.37	-0.02	0.00	0.00	0.00	0.00	0.00	0.00	5.50	0.00	11.25	8.00	7.75	4.75	0.75	10.25	4.00	3.50	-0.839355	0.069336	1.407715	-33.529999	315.489990	-21.280001	715.00	0.26	0.07
2.21	16.75	12.25	5.00	5.25	0.00	0.00	0.00	0.00	0.00	0.00	0.00	0.00	0.00	0.00	0.00	0.00	-0.471191	0.058594	1.350586	17.290001	113.540001	3.430000	478.00	-0.37	-0.02	0.00	0.00	0.00	0.00	0.00	0.00	5.00	0.00	10.25	7.25	6.75	3.50	0.75	10.25	3.50	3.00	-1.039551	0.138184	1.685547	-28.910000	325.570007	-22.330000	644.00	0.26	0.08
2.22	17.25	13.00	5.50	5.50	0.00	0.00	0.00	0.00	0.00	0.00	0.00	0.00	0.00	0.00	0.00	0.00	-0.440918	-0.030762	1.289062	11.550000	99.889999	0.840000	503.00	-0.37	-0.02	0.00	0.00	0.00	0.00	0.00	0.00	4.75	0.00	9.00	6.25	6.00	2.50	0.50	10.00	2.75	3.00	-1.271973	0.225098	1.958496	-17.920000	333.619995	-22.610001	571.00	0.26	0.09
2.23	18.00	13.75	6.00	7.00	0.25	0.00	0.00	0.00	0.00	0.00	0.00	0.00	0.00	0.00	0.00	0.00	-0.609863	0.053711	1.633301	13.650000	96.669998	-0.700000	550.00	-0.37	-0.03	0.00	0.00	0.00	0.00	0.00	0.00	3.75	0.00	8.25	5.25	5.00	2.25	0.25	9.75	1.75	2.25	-1.429199	0.236328	2.199219	-7.560000	339.850006	-24.710001	490.00	0.26	0.10
2.24	19.00	14.50	6.75	7.50	0.25	0.00	0.00	0.00	0.00	0.00	0.00	0.00	0.00	0.00	0.00	0.00	-0.573242	0.081055	1.346680	33.040001	36.820000	-0.140000	587.00	-0.36	-0.03	0.00	0.00	0.00	0.00	0.00	0.00	3.00	0.00	7.50	4.25	3.75	1.75	0.50	9.25	1.25	1.50	-1.322754	0.245117	1.988770	2.940000	345.589996	-27.020000	417.00	0.27	0.11
2.25	19.75	15.00	7.75	7.75	0.25	0.00	0.00	0.00	0.00	0.00	0.00	0.00	0.00	0.00	0.00	0.00	-0.281738	0.038574	0.850586	20.510000	12.110000	-0.490000	619.00	-0.36	-0.02	0.00	0.00	0.00	0.00	0.00	0.00	2.00	0.00	6.25	3.25	2.75	1.50	0.25	8.50	0.75	1.25	-1.074219	0.097168	1.918457	10.430000	355.390015	-30.799999	334.00	0.28	0.12
2.26	20.00	15.75	8.00	8.00	0.50	0.00	0.00	0.00	0.00	0.00	0.00	0.00	0.00	0.00	0.00	0.00	-0.291016	0.024902	1.051270	8.820000	7.000000	-0.070000	640.00	-0.36	-0.02	0.00	0.00	0.00	0.00	0.00	0.00	1.25	0.00	5.00	2.50	2.50	1.00	0.00	7.75	0.75	0.50	-1.032715	-0.046875	1.934570	0.700000	366.519989	-38.779999	267.00	0.29	0.13
2.27	20.75	15.75	8.00	8.25	0.50	0.00	0.25	0.00	0.25	0.00	0.00	0.00	0.00	0.00	0.00	0.00	-0.297852	0.036621	0.916016	4.060000	4.130000	-0.070000	661.00	-0.36	-0.02	0.00	0.00	0.00	0.00	0.00	0.00	0.75	0.00	3.75	2.00	1.75	1.00	0.00	6.25	0.25	0.50	-0.997070	0.025391	2.194336	-19.740000	380.170013	-43.680000	201.00	0.29	0.12
2.28	20.50	16.00	8.00	8.50	0.50	0.00	0.25	0.00	0.00	0.00	0.00	0.00	0.00	0.00	0.00	0.00	-0.294434	0.033203	0.971680	1.820000	3.080000	0.210000	660.00	-0.36	-0.02	0.00	0.00	0.00	0.00	0.00	0.00	0.25	0.00	2.75	1.75	1.50	1.00	0.00	4.75	0.25	0.00	-0.984375	0.346680	2.605957	-25.900000	385.559998	-41.439999	152.00	0.29	0.11
2.29	21.00	16.50	8.25	8.25	0.50	0.25	0.25	0.00	0.00	0.00	0.00	0.00	0.00	0.00	0.00	0.00	-0.283203	0.020508	0.940918	1.190000	2.520000	0.770000	675.00	-0.36	-0.02	0.00	0.00	0.00	0.00	0.00	0.00	0.00	0.00	1.00	1.00	1.25	0.75	0.00	1.50	0.25	0.00	-0.490723	0.390625	2.393066	-17.639999	381.640015	-39.830002	72.00	0.28	0.04
2.30	20.75	16.25	8.25	8.50	0.50	0.50	0.25	0.00	0.00	0.00	0.00	0.00	0.00	0.50	0.00	0.00	-0.281250	0.022461	0.945312	1.750000	2.030000	1.120000	681.00	-0.35	-0.02	0.00	0.00	0.00	0.00	0.00	0.00	0.00	0.00	0.50	0.50	0.50	0.25	0.00	0.50	0.00	0.00	0.152832	0.233398	2.161133	-4.340000	339.709991	-36.470001	29.00	0.00	0.00
2.31	21.25	16.50	8.50	8.75	0.50	0.75	0.25	0.25	0.00	0.00	0.00	0.00	0.00	0.00	0.00	0.00	-0.274902	0.033203	0.950195	2.730000	2.240000	1.470000	699.00	-0.35	-0.03	0.00	0.00	0.00	0.00	0.00	0.00	0.00	0.00	0.50	0.50	0.25	0.00	0.00	0.00	0.00	0.00	1.328125	0.397949	2.259766	-3.640000	266.140015	-35.560001	17.00	0.00	0.00
2.32	21.00	16.50	8.50	8.75	0.50	0.50	0.25	0.00	0.00	0.00	0.00	0.00	0.00	0.00	0.00	0.00	-0.263184	0.035645	0.934082	4.200000	2.380000	2.030000	688.00	-0.36	-0.03	0.00	0.00	0.00	0.00	0.00	0.00	0.00	0.00	0.00	0.75	0.00	0.00	0.00	0.00	0.00	0.00	1.922363	0.479980	3.944824	-7.770000	-19.460001	-19.180000	9.00	0.00	0.00
2.33	20.75	16.50	8.50	8.75	0.50	0.75	0.25	0.25	0.00	0.00	0.00	0.00	0.00	0.25	0.00	0.00	-0.275391	0.035156	0.941895	5.600000	2.870000	2.310000	695.00	-0.35	-0.03	0.00	0.00	0.00	0.00	0.00	0.00	0.00	0.00	0.25	0.50	0.00	0.00	0.00	0.25	0.00	0.00	1.922363	0.479980	3.944824	-7.770000	-19.460001	-19.180000	13.00	0.00	0.00
2.34	20.50	16.75	8.50	9.00	0.50	0.75	0.25	0.25	0.00	0.00	0.00	0.00	0.00	0.00	0.00	0.00	-0.270020	0.049316	0.948242	6.440000	4.060000	2.100000	696.00	-0.35	-0.03	0.00	0.00	0.00	0.00	0.00	0.00	0.00	0.00	0.00	0.50	0.00	0.00	0.00	0.00	0.00	0.00	1.867188	0.424316	2.115723	-23.379999	-128.729996	-1.190000	6.00	0.00	0.00
2.35	20.00	16.50	8.25	8.75	0.50	1.00	0.25	0.00	0.25	0.25	0.00	0.00	0.00	0.00	0.00	0.00	-0.271484	0.052734	0.944336	5.530000	4.200000	2.030000	686.00	-0.35	-0.03	0.00	0.00	0.00	0.00	0.00	0.25	0.00	0.00	0.00	0.25	0.25	0.00	0.00	0.00	0.00	0.00	1.435547	0.356934	1.337402	-9.100000	-180.740005	20.440001	9.00	0.00	0.00
2.36	20.00	16.25	8.25	8.75	0.50	0.50	0.25	0.25	0.00	0.00	0.25	0.00	0.00	0.00	0.00	0.00	-0.274902	0.051270	0.929199	4.200000	4.340000	1.820000	677.00	-0.35	-0.03	0.00	0.00	0.00	0.00	0.00	0.00	0.00	0.00	0.00	0.00	0.00	0.00	0.00	0.00	0.00	0.00	1.297363	0.230957	1.499023	22.610001	-192.360001	21.350000	0.00	0.00	0.00
2.37	19.50	16.00	8.25	8.75	0.50	1.50	0.25	0.50	0.00	0.25	0.25	0.25	0.00	0.00	0.00	0.00	-0.258301	0.051758	0.924316	2.800000	4.480000	1.400000	692.00	-0.34	-0.04	0.00	0.00	0.00	0.00	0.00	0.00	0.00	0.00	0.00	0.00	0.00	0.00	0.00	0.00	0.00	0.00	1.187988	0.035645	1.765625	50.119999	-217.839996	18.270000	0.00	0.00	0.00
2.38	19.25	15.50	8.25	8.75	0.50	1.50	0.25	0.50	0.00	0.00	0.25	0.25	0.00	0.00	0.00	0.00	-0.247070	0.051758	0.918457	1.470000	4.690000	1.120000	680.00	-0.34	-0.04	0.00	0.00	0.00	0.00	0.00	0.00	0.00	0.00	0.00	0.00	0.00	0.00	0.00	0.00	0.00	0.00	1.055176	-0.121582	1.894531	62.369999	-256.829987	12.460000	0.00	0.00	0.00
2.39	18.75	15.75	8.00	8.75	0.50	1.50	0.25	0.50	0.00	0.00	0.25	0.25	0.00	0.00	0.00	0.00	-0.253906	0.052246	0.915039	0.490000	5.600000	0.840000	674.00	-0.34	-0.04	0.00	0.00	0.00	0.00	0.00	0.00	0.00	0.00	0.00	0.00	0.00	0.00	0.00	0.00	0.00	0.00	0.857910	-0.210449	1.871582	59.430000	-300.790009	5.390000	0.00	0.00	0.00
2.40	18.25	15.25	8.00	8.50	0.50	2.25	0.25	0.75	0.25	0.25	0.25	0.25	0.00	0.25	0.00	0.00	-0.266113	0.045410	0.928223	-0.840000	6.790000	0.420000	683.00	-0.33	-0.04	0.00	0.00	0.00	0.00	0.00	0.00	0.00	0.00	0.00	0.25	0.00	0.00	0.00	0.00	0.00	0.00	0.619629	-0.250488	1.727539	51.240002	-339.220001	-2.240000	3.00	0.00	0.00
2.41	18.25	15.00	8.00	8.50	0.75	1.75	0.50	0.75	0.00	0.25	0.25	0.25	0.00	0.00	0.00	0.00	-0.276367	0.049805	0.932129	-2.100000	7.770000	-0.210000	675.00	-0.33	-0.04	0.00	0.00	0.00	0.00	0.00	0.00	0.00	0.00	0.00	0.00	0.00	0.00	0.00	0.00	0.00	0.00	0.358887	-0.245117	1.578613	46.549999	-367.640015	-11.340000	0.00	0.00	0.00
2.42	17.75	14.75	8.00	8.50	0.50	2.00	0.50	1.00	0.50	0.25	0.50	0.25	0.00	0.00	0.00	0.00	-0.279297	0.045898	0.943848	-2.870000	8.190000	-0.630000	681.00	-0.32	-0.04	0.00	0.00	0.00	0.00	0.00	0.00	0.00	0.00	0.00	0.00	0.00	0.00	0.00	0.00	0.00	0.00	0.140625	-0.252441	1.433105	49.279999	-384.929993	-22.540001	0.00	0.00	0.00
2.43	17.25	14.25	8.00	8.50	0.50	2.25	0.50	0.75	0.50	0.50	0.50	0.25	0.00	0.25	0.50	0.00	-0.277344	0.048340	0.931641	-2.940000	8.400000	-1.260000	680.00	-0.31	-0.04	0.00	0.00	0.00	0.00	0.00	0.00	0.00	0.00	0.00	0.00	0.00	0.00	0.00	0.00	0.00	0.00	-0.047852	-0.267578	1.347168	59.010002	-391.929993	-34.299999	0.00	0.00	0.00
2.44	16.50	14.00	8.00	8.25	0.75	2.25	0.75	1.00	0.75	0.25	0.50	0.50	0.00	0.00	0.75	0.00	-0.270996	0.047363	0.924805	-3.640000	9.100000	-1.680000	682.00	-0.29	-0.04	0.00	0.00	0.00	0.00	0.00	0.00	0.00	0.00	0.00	0.00	0.00	0.00	0.00	0.00	0.25	0.00	-0.216309	-0.307129	1.303223	70.629997	-391.510010	-44.520000	3.00	0.00	0.00
2.45	16.25	13.50	8.00	8.25	0.75	2.75	0.75	1.25	0.50	0.75	0.75	0.75	0.00	0.50	0.75	0.00	-0.269531	0.050781	0.923340	-5.250000	10.710000	-2.800000	698.00	-0.28	-0.05	0.00	0.00	0.00	0.00	0.00	0.00	0.00	0.00	0.00	0.00	0.00	0.00	0.00	0.00	0.00	0.00	-0.364258	-0.348633	1.324219	78.959999	-385.700012	-52.570000	0.00	0.00	0.00
2.46	16.00	13.00	7.75	8.25	0.75	2.50	1.00	1.25	0.75	0.75	0.50	0.50	0.00	0.50	0.50	0.00	-0.278320	0.052734	0.927734	-6.860000	11.970000	-3.710000	681.00	-0.28	-0.04	0.00	0.00	0.00	0.00	0.00	0.00	0.00	0.00	0.00	0.00	0.00	0.00	0.00	0.00	0.00	0.00	-0.453125	-0.420898	1.428223	78.959999	-376.250000	-59.849998	0.00	0.00	0.00
2.47	15.25	12.50	7.50	8.00	0.75	2.00	1.25	1.50	1.00	1.00	0.75	0.75	0.00	0.75	0.75	0.00	-0.287598	0.050293	0.930176	-7.700000	12.600000	-3.920000	681.00	-0.26	-0.04	0.00	0.00	0.00	0.00	0.00	0.00	0.00	0.00	0.00	0.00	0.00	0.00	0.00	0.00	0.00	0.00	-0.540527	-0.430176	1.563965	71.889999	-367.570007	-66.570000	0.00	0.00	0.00
2.48	15.00	12.00	7.50	8.00	0.75	2.50	1.75	1.00	1.50	1.00	0.75	0.75	0.00	0.75	0.50	0.00	-0.282715	0.041504	0.926270	-7.840000	12.740000	-4.200000	684.00	-0.25	-0.03	0.00	0.00	0.00	0.00	0.00	0.00	0.00	0.00	0.00	0.00	0.00	0.00	0.00	0.00	0.00	0.00	-0.635254	-0.415527	1.691406	61.599998	-361.059998	-72.169998	0.00	0.00	0.00
2.49	14.25	11.25	7.75	7.75	1.00	2.25	2.00	1.50	1.75	1.25	0.75	1.00	0.00	1.00	1.00	0.00	-0.293945	0.042969	0.926758	-6.930000	12.600000	-3.920000	699.00	-0.23	-0.03	0.00	0.00	0.00	0.00	0.00	0.00	0.00	0.00	0.00	0.00	0.00	0.00	0.00	0.00	0.00	0.00	-0.855957	-0.264648	1.801758	48.720001	-352.029999	-77.209999	0.00	0.00	0.00
2.50	13.75	10.75	7.75	7.50	1.00	2.50	2.75	1.00	2.50	1.25	1.00	1.00	0.00	1.50	0.75	0.00	-0.287598	0.028809	0.930176	-4.410000	12.460000	-3.150000	708.00	-0.21	-0.01	0.00	0.00	0.00	0.00	0.00	0.00	0.00	0.00	0.00	0.00	0.00	0.00	0.00	0.00	0.00	0.00	-0.928711	-0.168457	1.794922	44.520000	-344.260010	-74.269997	0.00	0.00	0.00
2.51	13.00	9.75	7.50	7.50	1.25	2.25	3.00	1.75	2.50	1.50	1.25	1.25	0.00	1.50	1.25	0.25	-0.299805	0.042480	0.926270	-3.430000	12.740000	-2.870000	720.00	-0.18	-0.02	0.00	0.00	0.00	0.00	0.00	0.00	0.00	0.00	0.00	0.00	0.00	0.00	0.00	0.00	0.00	0.00	-0.978516	-0.082520	1.799316	37.799999	-332.360016	-67.480003	0.00	0.00	0.00
2.52	12.50	9.25	7.50	7.25	1.25	2.00	3.50	1.75	3.50	1.75	1.50	1.50	0.00	1.50	1.50	0.25	-0.302246	0.036133	0.945312	-3.150000	13.090000	-2.730000	739.00	-0.16	-0.01	0.00	0.00	0.00	0.00	0.00	0.00	0.00	0.00	0.00	0.00	0.00	0.00	0.00	0.00	0.00	0.00	-1.017090	-0.002930	1.810059	30.380001	-316.329987	-59.150002	0.00	0.00	0.00
2.53	11.50	8.50	7.00	7.25	1.25	1.75	4.00	1.25	3.75	2.00	1.75	1.50	0.00	2.00	1.50	0.25	-0.313965	0.036133	0.946289	-2.800000	13.020000	-2.590000	724.00	-0.14	0.00	0.00	0.00	0.00	0.00	0.00	0.00	0.00	0.00	0.00	0.00	0.00	0.00	0.00	0.00	0.00	0.00	-1.042480	0.062012	1.828613	21.770000	-296.730011	-50.750000	0.00	0.00	0.00
2.54	10.75	7.75	7.00	6.50	1.25	2.25	4.25	2.00	4.50	2.25	1.75	1.50	0.25	2.50	1.75	0.50	-0.310547	0.044434	0.942871	-2.730000	12.740000	-2.170000	748.00	-0.11	0.00	0.00	0.00	0.00	0.00	0.00	0.00	0.00	0.00	0.00	0.00	0.00	0.00	0.00	0.00	0.00	0.00	-1.070312	0.132324	1.890137	11.340000	-274.959991	-42.630001	0.00	0.00	0.00
2.55	9.75	7.25	6.75	6.25	1.25	1.75	4.50	2.00	5.25	2.75	2.25	1.75	0.75	3.00	2.00	0.25	-0.309570	0.029785	0.935547	-2.170000	12.600000	-1.750000	761.00	-0.08	0.00	0.00	0.00	0.00	0.00	0.00	0.00	0.00	0.00	0.00	0.00	0.00	0.00	0.00	0.00	0.00	0.00	-1.127441	0.205566	1.982422	0.280000	-253.399994	-32.619999	0.00	0.00	0.00
2.56	9.00	6.75	6.50	6.00	1.25	2.00	5.00	1.75	6.00	3.25	2.50	1.75	0.75	2.75	2.25	0.50	-0.304688	0.040527	0.929199	-1.960000	13.020000	-1.540000	770.00	-0.06	0.01	0.00	0.00	0.00	0.00	0.00	0.00	0.00	0.00	0.00	0.00	0.00	0.00	0.00	0.00	0.00	0.00	-1.202637	0.324707	2.105957	-8.750000	-235.899994	-17.570000	0.00	0.00	0.00
2.57	8.00	5.75	6.00	5.50	1.25	1.75	5.25	2.00	7.00	3.50	2.75	2.00	1.00	4.00	2.50	0.75	-0.308594	0.040039	0.933105	-2.660000	14.980000	-1.820000	784.00	-0.03	0.02	0.00	0.00	0.00	0.00	0.00	0.00	0.00	0.00	0.00	0.00	0.00	0.00	0.00	0.00	0.00	0.00	-1.329102	0.501953	2.270996	-10.570000	-224.699997	4.130000	0.00	0.00	0.00
2.58	7.25	5.25	5.75	5.25	1.25	1.25	5.25	2.00	7.50	4.00	3.00	2.50	0.75	3.75	2.75	0.75	-0.312012	0.036133	0.941406	-3.430000	17.570000	-2.240000	778.00	-0.01	0.02	0.00	0.00	0.00	0.00	0.00	0.00	0.00	0.00	0.00	0.00	0.00	0.00	0.00	0.00	0.00	0.00	-1.537109	0.661133	2.539551	1.750000	-225.470001	33.740002	0.00	0.00	0.00
2.59	6.00	4.75	5.25	4.75	1.25	1.75	5.50	2.00	8.00	5.00	3.75	2.75	1.75	5.00	3.50	1.00	-0.318848	0.034180	0.956543	-3.780000	19.879999	-2.240000	821.00	0.03	0.02	0.00	0.00	0.00	0.00	0.00	0.00	0.00	0.00	0.00	0.00	0.00	0.00	0.00	0.00	0.00	0.00	-1.755371	0.746582	2.780273	30.450001	-248.779999	69.160004	0.00	0.00	0.00
2.60	5.25	3.25	4.75	3.50	1.00	0.75	5.75	2.00	8.50	5.75	4.75	3.00	1.75	5.00	4.00	1.00	-0.317871	0.042480	0.939453	-4.340000	23.100000	-2.100000	800.00	0.07	0.03	0.00	0.00	0.00	0.00	0.00	0.00	0.00	0.00	0.00	0.00	0.00	0.00	0.00	0.00	0.00	0.00	-1.967285	0.656738	2.749512	80.290001	-293.579987	111.440002	0.00	0.00	0.00
2.61	4.00	2.75	3.75	2.75	1.00	0.75	6.00	2.25	9.25	6.50	5.25	3.25	1.75	5.25	4.25	1.50	-0.320801	0.041992	0.948242	-4.690000	27.860001	-2.170000	804.00	0.10	0.03	0.00	0.00	0.00	0.00	0.00	0.00	0.00	0.00	0.00	0.00	0.00	0.00	0.00	0.00	0.00	0.00	-2.435547	0.243652	2.554688	138.880005	-343.980011	159.250000	0.00	0.00	0.00
2.62	2.50	1.75	3.00	2.25	0.75	0.00	6.25	2.25	9.75	7.25	6.00	3.75	2.00	6.25	4.75	1.25	-0.371094	0.056641	0.957031	-4.410000	33.110001	-3.150000	799.00	0.14	0.04	0.00	0.00	0.00	0.00	0.00	0.00	0.00	0.00	0.00	0.00	0.00	0.00	0.00	0.00	0.00	0.00	-3.025879	0.021973	2.041016	156.169998	-378.700012	200.479996	0.00	0.00	0.00
2.63	2.00	1.25	2.25	1.25	0.50	0.00	6.25	1.50	10.50	7.75	6.75	4.00	2.50	6.75	5.00	1.50	-0.292480	0.016602	0.935547	-6.930000	37.380001	-2.730000	793.00	0.17	0.04	0.00	0.00	0.00	0.00	0.00	0.00	0.00	0.00	0.00	0.00	0.00	0.00	0.00	0.00	0.00	0.00	-3.569824	-0.008789	1.128418	124.949997	-384.929993	225.050003	0.00	0.00	0.00
2.64	1.00	0.75	1.25	1.50	0.25	0.00	6.50	1.50	11.50	8.00	7.25	5.00	2.75	7.50	5.25	1.50	-0.335449	0.092773	0.979980	-6.580000	46.130001	-2.870000	817.00	0.20	0.04	0.00	0.00	0.00	0.00	0.00	0.00	0.00	0.00	0.00	0.00	0.00	0.00	0.00	0.00	0.00	0.00	-5.511230	-0.333496	-0.824219	136.009995	-323.959991	174.789993	0.00	0.00	0.00
2.65	1.00	0.75	1.25	1.25	0.25	0.00	6.50	0.75	12.00	8.25	7.50	5.00	2.50	8.00	5.50	2.00	-0.384277	0.033691	0.971191	0.490000	77.699997	-4.130000	823.00	0.21	0.05	0.00	0.00	0.00	0.00	0.00	0.00	0.00	0.00	0.00	0.00	0.00	0.00	0.00	0.00	0.00	0.00	-5.555176	-0.694824	-1.515137	226.869995	-247.869995	105.699997	0.00	0.00	0.00
2.66	0.50	0.25	1.00	0.50	0.25	0.00	6.50	0.50	12.50	8.75	7.75	5.50	2.50	8.25	5.75	2.00	-0.389648	0.022949	0.974121	1.610000	97.019997	-2.310000	823.00	0.23	0.06	0.00	0.00	0.00	0.00	0.00	0.00	0.00	0.00	0.00	0.00	0.00	0.00	0.00	0.00	0.00	0.00	-4.844238	-1.130371	-1.854980	261.309998	-137.550003	50.330002	0.00	0.00	0.00
2.67	0.75	0.50	1.00	0.75	0.00	0.00	6.75	0.00	13.25	8.75	8.00	5.50	2.25	8.75	5.50	2.00	-0.399902	0.015137	1.017578	0.350000	119.840004	0.070000	838.00	0.22	0.07	0.00	0.00	0.00	0.00	0.00	0.00	0.00	0.00	0.00	0.00	0.00	0.00	0.00	0.00	0.00	0.00	-3.771973	-1.309082	-1.554199	184.100006	-12.460000	17.639999	0.00	0.00	0.00
2.68	0.25	0.25	0.25	0.25	0.00	0.00	6.50	0.00	13.75	9.25	8.25	5.75	1.75	9.00	5.75	2.25	-0.432129	0.021484	1.023438	-3.500000	147.139999	1.890000	831.00	0.24	0.07	0.00	0.00	0.00	0.00	0.00	0.00	0.00	0.00	0.00	0.00	0.00	0.00	0.00	0.00	0.00	0.00	-2.957520	-0.920410	-0.757812	32.480000	94.849998	5.880000	0.00	0.00	0.00
2.69	0.50	0.00	0.50	0.00	0.00	0.00	6.50	0.00	14.25	9.25	8.25	5.75	1.50	9.00	6.00	2.00	-0.446777	0.038574	1.035645	-10.500000	176.820007	1.750000	838.00	0.24	0.08	0.50	0.00	0.00	0.00	0.00	0.00	0.00	0.00	0.00	0.00	0.00	0.00	0.00	0.00	0.00	0.00	-3.507812	-0.753906	0.173828	-150.639999	242.970001	13.020000	6.00	0.00	0.00
2.70	0.00	0.00	0.00	0.00	0.00	0.00	6.50	0.00	14.25	9.50	8.25	5.75	1.00	9.75	6.00	2.75	-0.498047	0.064453	1.120605	-16.799999	202.369995	-0.980000	835.00	0.25	0.08	2.00	1.00	0.00	0.00	0.00	0.00	0.00	0.00	0.00	0.00	0.00	0.00	0.00	0.00	0.00	0.00	0.003418	0.312988	0.260254	-216.790009	323.540009	-4.900000	36.00	0.00	0.00
2.71	0.00	0.00	0.00	0.00	0.00	0.00	6.25	0.00	14.25	9.50	8.25	5.50	0.50	10.00	6.25	2.75	-0.537109	0.078613	1.109375	-22.960001	228.199997	-5.250000	828.00	0.26	0.08	5.50	2.75	0.75	0.50	0.00	0.00	0.00	0.00	0.00	0.00	0.00	0.00	0.00	0.00	0.00	0.00	-0.099121	0.144043	2.758301	-167.860001	312.130005	15.750000	115.00	-0.39	0.02
2.72	0.00	0.00	0.00	0.00	0.00	0.00	6.25	0.00	14.50	9.75	8.25	5.50	0.00	10.25	6.00	2.75	-0.580078	0.097656	1.152832	-29.750000	256.549988	-11.270000	830.00	0.26	0.09	8.75	5.75	1.50	0.75	0.00	0.00	0.00	0.00	0.00	0.00	0.00	0.00	0.00	0.00	0.00	0.00	-0.147461	-0.117188	1.448730	-87.639999	264.040009	53.549999	202.00	-0.39	0.00
2.73	0.00	0.00	0.00	0.00	0.00	0.00	6.25	0.00	14.25	9.50	8.25	5.25	0.00	10.75	6.25	3.75	-0.643555	0.095703	1.219727	-38.080002	286.160004	-18.059999	834.00	0.26	0.08	11.25	7.75	2.50	2.00	0.00	0.00	0.00	0.00	0.00	0.00	0.00	0.00	0.00	0.00	0.00	0.00	-0.598633	-0.649414	1.324219	-20.090000	283.500000	74.410004	284.00	-0.38	-0.01
2.74	0.00	0.00	0.00	0.00	0.00	0.00	6.00	0.00	13.75	9.50	8.00	5.00	0.00	10.75	6.25	3.75	-0.715820	0.089355	1.286621	-46.619999	317.309998	-24.850000	815.00	0.26	0.08	13.25	9.75	3.25	2.50	0.00	0.00	0.00	0.00	0.00	0.00	0.00	0.00	0.00	0.00	0.00	0.00	-1.005859	-1.320312	2.194336	16.870001	318.079987	63.840000	348.00	-0.38	-0.01
2.75	0.00	0.00	0.00	0.00	0.00	0.00	6.00	0.00	13.25	9.00	7.50	4.75	0.50	11.00	5.75	4.50	-0.876465	0.121582	1.396484	-53.410000	349.510010	-32.340000	798.00	0.26	0.08	15.25	11.75	4.00	3.25	0.00	0.00	0.00	0.00	0.00	0.00	0.00	0.00	0.00	0.00	0.00	0.00	-1.121094	-1.218750	2.882812	32.410000	290.989990	14.350000	415.00	-0.38	-0.01
2.76	0.00	0.00	0.00	0.00	0.00	0.00	5.75	0.00	12.00	8.25	6.75	4.25	0.50	11.25	5.75	4.75	-1.072266	0.213867	1.718262	-53.830002	379.750000	-41.580002	753.00	0.27	0.08	16.25	13.50	5.25	4.25	0.00	0.00	0.00	0.00	0.00	0.00	0.00	0.00	0.00	0.00	0.00	0.00	-0.793945	-0.149902	2.287109	30.730000	236.669998	-36.959999	476.00	-0.37	-0.02
2.77	0.00	0.00	0.00	0.00	0.00	0.00	5.25	0.00	10.50	7.50	5.50	3.50	0.50	11.50	5.50	4.75	-1.354004	0.255859	2.097656	-43.959999	404.809998	-49.279999	686.00	0.27	0.08	16.75	13.75	5.50	5.25	0.25	0.00	0.00	0.00	0.00	0.00	0.00	0.00	0.00	0.00	0.00	0.00	-0.570312	0.857422	1.703613	37.939999	207.550003	-40.599998	505.00	-0.37	-0.02
2.78	0.00	0.00	0.00	0.00	0.00	0.00	4.75	0.00	9.00	6.00	4.25	2.75	0.50	11.25	4.50	4.00	-1.757324	0.168945	2.617188	-18.760000	423.079987	-47.040001	590.00	0.27	0.09	16.75	14.00	6.00	5.75	0.25	0.00	0.00	0.00	0.00	0.00	0.00	0.00	0.00	0.00	0.00	0.00	-0.449219	0.198242	1.416504	28.139999	186.410004	14.000000	521.00	-0.37	-0.02
2.79	0.00	0.00	0.00	0.00	0.00	0.00	3.75	0.00	7.75	4.75	3.00	2.00	0.00	10.50	3.25	3.00	-1.767578	0.174805	2.699707	12.320000	435.610016	-33.670002	477.00	0.28	0.11	17.25	14.25	6.75	6.75	0.25	0.25	0.00	0.00	0.00	0.00	0.25	0.00	0.00	0.00	0.00	0.00	-0.407715	-0.208008	1.448730	22.049999	175.350006	10.430000	559.00	-0.36	-0.03
2.80	0.00	0.00	0.00	0.00	0.00	0.00	2.50	0.00	5.75	3.25	2.00	1.75	0.00	9.00	2.25	1.75	-1.439453	-0.298828	2.569824	62.230000	443.940002	-7.210000	353.00	0.28	0.11	17.75	14.75	7.75	7.75	0.75	0.75	0.00	0.25	0.00	0.00	0.25	0.25	0.00	0.00	0.00	0.00	-0.493164	0.254395	1.748047	13.790000	160.020004	-5.810000	618.00	-0.35	-0.04
2.81	0.00	0.00	0.00	0.00	0.00	0.00	1.50	0.00	4.75	2.25	1.50	1.25	0.00	7.75	1.75	1.00	-1.326172	-0.402832	3.072266	39.689999	451.920013	-11.480000	271.00	0.29	0.12	18.00	15.25	8.25	8.25	1.00	1.50	0.00	0.25	0.00	0.25	0.50	0.25	0.00	0.00	0.00	0.00	-0.458984	0.513672	1.148438	-25.830000	106.470001	-5.810000	659.00	-0.34	-0.04
2.82	0.00	0.00	0.00	0.00	0.00	0.00	0.75	0.00	3.00	1.75	1.25	0.75	0.00	6.00	0.50	0.00	-1.129883	-0.295410	3.494629	8.890000	447.299988	-10.920000	174.00	0.30	0.13	18.25	15.50	8.50	8.50	1.25	2.00	0.00	0.50	0.00	0.00	0.50	0.25	0.00	0.00	0.00	0.00	-0.460938	0.096680	1.314941	-58.869999	76.230003	-0.140000	683.00	-0.33	-0.04
2.83	0.00	0.00	0.00	0.00	0.00	0.00	0.50	0.00	2.00	1.75	0.75	0.75	0.00	3.00	0.50	0.00	-0.160156	-0.177246	3.641113	-24.990000	444.360016	-10.570000	118.00	0.28	0.11	18.25	15.50	8.75	8.75	1.50	2.00	0.25	0.50	0.00	0.25	0.50	0.50	0.00	0.75	0.00	0.00	-0.304688	-0.035156	1.157715	-47.180000	40.180000	-1.890000	711.00	-0.32	-0.04
2.84	0.00	0.00	0.00	0.00	0.00	0.00	0.25	0.00	0.75	1.25	0.25	0.00	0.00	1.00	0.00	0.00	1.280273	-0.096680	3.336914	-67.970001	425.040009	-9.870000	45.00	0.00	0.00	18.50	15.50	9.00	8.75	1.75	2.25	0.25	0.50	0.00	0.25	0.50	0.25	0.00	0.25	0.00	0.00	-0.296387	0.079102	1.008789	-18.900000	7.770000	-2.590000	716.00	-0.32	-0.04
2.85	0.00	0.00	0.00	0.00	0.00	0.00	0.00	0.00	0.50	0.50	0.00	0.00	0.00	0.00	0.00	0.00	1.711426	-0.160645	1.930176	-136.289993	329.910004	-5.530000	14.00	0.00	0.00	19.25	15.00	9.25	9.00	1.75	2.50	0.25	0.50	0.00	0.50	0.75	0.50	0.00	0.50	0.00	0.00	-0.270020	0.119629	0.961426	-10.010000	-3.570000	-0.000000	742.00	-0.31	-0.04
2.86	0.00	0.00	0.00	0.00	0.00	0.00	0.00	0.00	0.25	0.75	0.25	0.00	0.00	0.00	0.25	0.00	1.091309	0.333496	5.950195	-136.639999	175.139999	5.810000	19.00	0.00	0.00	18.50	15.25	9.25	9.00	2.00	2.50	0.50	0.50	0.50	0.50	0.75	0.50	0.00	0.25	0.00	0.00	-0.253906	0.068359	0.964355	-8.610000	-5.600000	0.980000	748.00	-0.31	-0.04
2.87	0.00	0.00	0.00	0.00	0.00	0.00	0.00	0.00	0.25	0.75	0.25	0.00	0.00	0.25	0.00	0.00	2.070801	0.467773	3.714355	-87.989998	-4.550000	34.860001	19.00	0.00	0.00	18.75	15.25	9.00	9.00	1.75	2.50	0.50	0.50	0.00	0.50	0.50	0.50	0.00	0.25	0.00	0.00	-0.250000	0.089844	0.949219	-6.790000	-5.740000	1.400000	734.00	-0.32	-0.04
2.88	0.00	0.00	0.00	0.00	0.00	0.00	0.00	0.00	0.25	0.50	0.25	0.00	0.00	0.00	0.00	0.00	1.377930	0.346191	2.493164	-66.010002	-128.449997	59.920002	13.00	0.00	0.00	18.00	14.75	9.00	8.75	2.00	2.50	0.50	0.50	0.25	0.50	0.75	0.50	0.00	0.25	0.00	0.00	-0.259277	0.077148	0.944824	-4.900000	-5.180000	2.170000	726.00	-0.31	-0.04
2.89	0.00	0.00	0.00	0.00	0.00	0.00	0.00	0.00	0.25	0.50	0.25	0.00	0.00	0.00	0.00	0.00	1.232422	0.164551	1.537598	-61.320000	-179.830002	80.080002	13.00	0.00	0.00	17.75	14.50	8.75	8.75	1.75	2.50	0.50	0.50	0.25	0.50	0.75	0.25	0.00	0.25	0.00	0.00	-0.245605	0.084961	0.941406	-2.800000	-4.620000	2.870000	710.00	-0.31	-0.04
2.90	0.00	0.00	0.00	0.00	0.00	0.00	0.00	0.00	0.25	0.50	0.25	0.00	0.00	0.00	0.00	0.00	1.070801	0.024902	1.175781	-62.650002	-192.009995	89.529999	13.00	0.00	0.00	17.25	14.25	8.75	8.50	1.75	2.50	0.50	0.50	0.00	0.50	0.50	0.25	0.00	0.25	0.00	0.00	-0.254883	0.089355	0.939941	-0.700000	-4.130000	3.500000	691.00	-0.31	-0.04
2.91	0.00	0.00	0.00	0.00	0.00	0.00	0.00	0.00	0.00	0.25	0.00	0.00	0.00	0.00	0.00	0.00	0.970703	-0.062988	1.148438	-56.000000	-197.820007	86.870003	3.00	0.00	0.00	16.75	13.75	8.50	8.25	1.50	2.25	0.50	0.50	0.25	0.50	0.50	0.50	0.00	0.25	0.00	0.00	-0.257812	0.094238	0.933594	0.630000	-3.500000	3.780000	673.00	-0.31	-0.04
2.92	0.00	0.00	0.00	0.00	0.00	0.00	0.00	0.00	0.00	0.25	0.00	0.00	0.00	0.00	0.00	0.00	0.827637	-0.229004	1.267090	-35.209999	-210.910004	75.389999	3.00	0.00	0.00	15.50	12.75	8.25	8.00	1.50	2.50	0.25	0.50	0.00	0.25	0.50	0.50	0.00	0.00	0.00	0.00	-0.245605	0.096191	0.935547	0.910000	-3.010000	3.290000	629.00	-0.32	-0.05
2.93	0.00	0.00	0.00	0.00	0.00	0.00	0.00	0.00	0.00	0.25	0.00	0.00	0.00	0.00	0.00	0.00	0.655762	-0.441895	1.393555	-11.480000	-233.869995	54.740002	3.00	0.00	0.00	15.50	12.50	8.00	8.00	1.25	2.00	0.25	0.50	0.00	0.50	0.50	0.25	0.00	0.25	0.00	0.00	-0.239746	0.100586	0.923828	0.420000	-2.730000	2.450000	616.00	-0.32	-0.04
2.94	0.00	0.00	0.00	0.00	0.00	0.00	0.00	0.00	0.00	0.25	0.00	0.00	0.00	0.00	0.00	0.00	0.252441	-0.676758	1.583984	1.960000	-298.059998	-4.200000	3.00	0.00	0.00	14.75	11.75	7.75	7.75	1.50	2.00	0.25	0.50	0.00	0.50	0.50	0.50	0.00	0.50	0.00	0.00	-0.243652	0.099121	0.921875	-0.700000	-2.590000	1.330000	601.00	-0.31	-0.04
2.95	0.00	0.00	0.00	0.00	0.00	0.00	0.00	0.00	0.00	0.25	0.00	0.00	0.00	0.00	0.00	0.00	0.046387	-0.635254	1.530273	-3.430000	-332.429993	-36.680000	3.00	0.00	0.00	14.25	11.25	7.50	7.50	1.25	2.00	0.25	0.50	0.25	0.50	0.50	0.50	0.00	0.25	0.00	0.00	-0.237793	0.102539	0.926270	-1.890000	-2.240000	0.490000	580.00	-0.31	-0.04
2.96	0.00	0.00	0.00	0.00	0.00	0.00	0.00	0.00	0.00	0.00	0.00	0.00	0.00	0.00	0.00	0.00	-0.145508	-0.535156	1.403320	-6.020000	-360.010010	-65.870003	0.00	0.00	0.00	13.25	10.50	7.50	7.25	1.25	1.75	0.25	0.25	0.00	0.25	0.75	0.50	0.00	0.00	0.00	0.00	-0.249023	0.093750	0.921875	-2.730000	-2.100000	-0.140000	542.00	-0.31	-0.04
2.97	0.00	0.00	0.00	0.00	0.00	0.00	0.00	0.00	0.00	0.00	0.00	0.00	0.00	0.00	0.00	0.00	-0.323242	-0.441406	1.273438	-0.770000	-376.950012	-88.480003	0.00	0.00	0.00	13.25	9.50	7.50	6.75	1.00	2.00	0.25	0.50	0.00	0.25	0.50	0.50	0.00	0.25	0.00	0.00	-0.244629	0.099609	0.923340	-3.290000	-1.820000	-0.350000	529.00	-0.31	-0.04
2.98	0.00	0.00	0.00	0.00	0.00	0.00	0.00	0.00	0.00	0.00	0.00	0.00	0.00	0.00	0.00	0.00	-0.477051	-0.388184	1.173340	10.010000	-384.929993	-104.930000	0.00	0.00	0.00	12.25	9.00	7.00	6.75	1.00	1.50	0.25	0.50	0.00	0.50	0.50	0.50	0.00	0.00	0.00	0.00	-0.242676	0.101074	0.909180	-3.920000	-1.750000	-0.420000	498.00	-0.31	-0.04
2.99	0.00	0.00	0.00	0.00	0.00	0.00	0.00	0.00	0.00	0.00	0.00	0.00	0.00	0.00	0.00	0.00	-0.582520	-0.361328	1.100098	22.469999	-386.049988	-116.410004	0.00	0.00	0.00	11.50	8.25	7.00	6.25	1.25	1.75	0.25	0.50	0.25	0.25	0.75	0.25	0.00	0.25	0.00	0.00	-0.243652	0.094238	0.913086	-4.270000	-1.400000	-0.490000	484.00	-0.30	-0.04
3.00	0.00	0.00	0.00	0.00	0.00	0.00	0.00	0.00	0.00	0.00	0.00	0.00	0.00	0.00	0.00	0.00	-0.670898	-0.358887	1.096191	31.010000	-380.519989	-123.830002	0.00	0.00	0.00	11.25	7.75	6.50	6.25	1.00	1.50	0.25	0.50	0.25	0.50	1.00	0.50	0.00	0.00	0.00	0.00	-0.266113	0.097168	0.907715	-4.340000	-1.260000	-0.420000	469.00	-0.29	-0.04
3.01	0.00	0.00	0.00	0.00	0.00	0.00	0.00	0.00	0.00	0.00	0.00	0.00	0.00	0.00	0.00	0.00	-0.750000	-0.346680	1.140137	31.850000	-371.769989	-127.050003	0.00	0.00	0.00	11.00	7.25	6.50	6.00	1.00	1.50	0.25	0.50	0.25	0.75	0.75	0.50	0.25	0.00	0.00	0.00	-0.242188	0.085449	0.910645	-4.340000	-0.770000	-0.350000	460.00	-0.29	-0.04
3.02	0.00	0.00	0.00	0.00	0.00	0.00	0.00	0.00	0.00	0.00	0.00	0.00	0.00	0.00	0.00	0.00	-0.852539	-0.326172	1.216309	28.210001	-361.829987	-126.419998	0.00	0.00	0.00	10.00	7.00	6.50	5.75	1.50	1.25	0.50	0.50	0.50	0.75	0.75	0.75	0.00	0.25	0.25	0.00	-0.257812	0.091797	0.913574	-3.850000	0.000000	-0.420000	459.00	-0.26	-0.03
3.03	0.00	0.00	0.00	0.00	0.00	0.00	0.00	0.00	0.00	0.00	0.00	0.00	0.00	0.00	0.00	0.00	-0.936035	-0.284668	1.306152	23.940001	-353.360016	-123.620003	0.00	0.00	0.00	10.25	6.50	6.50	5.75	1.25	1.50	0.50	0.50	0.50	0.75	1.00	0.75	0.25	0.25	0.00	0.00	-0.261230	0.092773	0.900879	-3.360000	0.770000	-0.910000	459.00	-0.26	-0.03
3.04	0.00	0.00	0.00	0.00	0.00	0.00	0.00	0.00	0.00	0.00	0.00	0.00	0.00	0.00	0.00	0.00	-1.021484	-0.228516	1.393066	19.180000	-346.850006	-118.580002	0.00	0.00	0.00	9.75	6.25	6.50	5.50	1.25	1.50	0.75	0.50	1.00	0.75	1.00	0.75	0.50	0.25	0.50	0.00	-0.258301	0.091797	0.906250	-3.430000	1.400000	-1.330000	468.00	-0.23	-0.03
3.05	0.00	0.00	0.00	0.00	0.00	0.00	0.00	0.00	0.00	0.00	0.00	0.00	0.00	0.00	0.00	0.00	-1.106445	-0.169434	1.427246	14.840000	-340.549988	-109.480003	0.00	0.00	0.00	9.25	6.00	6.25	5.50	1.50	1.50	1.00	0.75	1.00	1.00	1.00	1.25	0.25	0.50	0.00	0.00	-0.260254	0.090332	0.901367	-4.410000	2.450000	-1.750000	471.00	-0.22	-0.03
3.06	0.00	0.00	0.00	0.00	0.00	0.00	0.00	0.00	0.00	0.00	0.00	0.00	0.00	0.00	0.00	0.00	-1.164062	-0.096680	1.450684	10.500000	-332.290009	-97.580002	0.00	0.00	0.00	9.00	5.25	6.25	5.25	1.50	1.50	1.00	0.75	1.75	1.25	1.50	1.25	0.25	0.75	0.75	0.00	-0.253906	0.097168	0.895508	-6.300000	3.780000	-2.590000	490.00	-0.18	-0.02
3.07	0.00	0.00	0.00	0.00	0.00	0.00	0.00	0.00	0.00	0.00	0.00	0.00	0.00	0.00	0.00	0.00	-1.184082	-0.025391	1.514160	10.010000	-321.510010	-83.440002	0.00	0.00	0.00	9.00	5.25	6.50	5.25	1.75	1.75	1.50	0.75	2.25	1.50	1.75	1.75	0.50	1.75	0.75	0.25	-0.255859	0.094727	0.909668	-8.960000	5.250000	-3.640000	543.00	-0.15	-0.01
3.08	0.00	0.00	0.00	0.00	0.00	0.00	0.00	0.00	0.00	0.00	0.00	0.00	0.00	0.00	0.00	0.00	-1.198730	-0.001953	1.621094	12.740000	-309.190002	-67.970001	0.00	0.00	0.00	9.00	5.25	6.50	5.25	2.00	1.75	1.75	0.75	2.50	1.75	1.75	1.75	1.00	1.50	0.75	0.00	-0.256836	0.082520	0.927734	-13.160000	6.090000	-5.180000	559.00	-0.14	-0.01
3.09	0.00	0.00	0.00	0.00	0.00	0.00	0.00	0.00	0.00	0.00	0.00	0.00	0.00	0.00	0.00	0.00	-1.211914	0.007812	1.775879	15.680000	-296.869995	-52.920002	0.00	0.00	0.00	8.75	4.50	6.50	5.00	2.25	1.75	2.50	1.25	3.75	2.25	2.25	2.00	1.25	2.00	1.00	0.25	-0.262695	0.082031	0.927246	-13.650000	6.440000	-5.320000	618.00	-0.10	-0.00
3.10	0.00	0.00	0.00	0.00	0.00	0.00	0.00	0.00	0.00	0.00	0.00	0.00	0.00	0.00	0.00	0.00	-1.281250	0.045898	2.209473	17.219999	-284.059998	-25.480000	0.00	0.00	0.00	8.50	4.00	6.25	4.25	2.50	1.50	3.50	1.00	5.00	2.75	3.00	2.75	1.50	2.25	1.25	0.25	-0.270508	0.076172	0.930664	-14.140000	7.910000	-5.250000	662.00	-0.06	0.01
3.11	0.00	0.00	0.00	0.00	0.00	0.00	0.00	0.00	0.00	0.00	0.00	0.00	0.00	0.00	0.00	0.00	-1.409180	0.083008	2.428711	15.330000	-289.799988	-11.550000	0.00	0.00	0.00	8.00	3.50	6.00	4.00	2.50	1.50	4.25	1.25	5.75	3.25	3.50	2.75	1.75	3.25	1.75	0.25	-0.278809	0.067383	0.934570	-13.510000	9.590000	-4.900000	705.00	-0.03	0.02
3.12	0.00	0.00	0.00	0.00	0.00	0.00	0.00	0.00	0.00	0.00	0.00	0.00	0.00	0.00	0.00	0.00	-1.581055	0.155762	2.506836	13.370000	-302.119995	4.480000	0.00	0.00	0.00	7.50	2.50	6.00	2.75	2.75	1.25	5.00	1.25	7.25	4.50	4.25	3.25	2.00	3.50	2.00	0.50	-0.283203	0.073730	0.934570	-12.670000	12.110000	-4.620000	749.00	0.02	0.03
3.13	0.00	0.00	0.00	0.00	0.00	0.00	0.00	0.00	0.00	0.00	0.00	0.00	0.00	0.00	0.00	0.00	-1.789062	0.257812	2.453125	11.270000	-318.570007	23.520000	0.00	0.00	0.00	6.75	2.00	5.50	2.75	2.50	1.50	5.25	1.25	8.00	5.50	5.50	4.00	2.25	4.75	2.50	0.75	-0.287109	0.079102	0.933594	-11.970000	15.400000	-4.410000	805.00	0.05	0.03
3.14	0.00	0.00	0.00	0.00	0.00	0.00	0.00	0.00	0.00	0.00	0.00	0.00	0.00	0.00	0.00	0.00	-2.035156	0.364746	2.331543	8.260000	-333.899994	45.500000	0.00	0.00	0.00	5.75	1.50	5.00	2.00	2.25	1.00	5.75	1.25	8.75	6.25	6.25	5.00	2.50	5.25	3.00	0.75	-0.285645	0.088867	0.930664	-11.270000	19.950001	-5.040000	826.00	0.08	0.03
3.15	0.00	0.00	0.00	0.00	0.00	0.00	0.00	0.00	0.00	0.00	0.00	0.00	0.00	0.00	0.00	0.00	-2.258789	0.405762	2.191895	6.510000	-343.209991	69.510002	0.00	0.00	0.00	5.25	1.00	4.25	1.50	2.00	0.75	6.00	1.25	9.25	7.00	7.00	5.50	2.75	5.75	3.25	0.75	-0.287109	0.085449	0.933594	-10.010000	25.690001	-6.090000	840.00	0.11	0.03
3.16	0.00	0.00	0.00	0.00	0.00	0.00	0.00	0.00	0.00	0.00	0.00	0.00	0.00	0.00	0.00	0.00	-2.530762	0.338379	1.900879	13.020000	-345.869995	96.180000	0.00	0.00	0.00	2.25	0.75	2.75	0.75	1.50	0.25	6.25	1.25	10.00	7.50	7.50	5.75	3.50	6.75	3.25	1.00	-0.322266	0.088379	0.939453	-7.840000	32.480000	-7.770000	808.00	0.16	0.03
3.17	0.00	0.00	0.00	0.00	0.00	0.00	0.00	0.00	0.00	0.00	0.00	0.00	0.00	0.00	0.00	0.00	-3.036621	0.110840	1.569824	40.320000	-342.369995	128.520004	0.00	0.00	0.00	2.75	0.25	2.00	0.50	1.00	0.25	6.50	1.25	10.75	8.00	8.00	6.50	3.50	7.75	4.00	1.25	-0.321289	0.092285	0.933594	-6.020000	39.549999	-9.730000	848.00	0.18	0.04
3.18	0.00	0.00	0.00	0.00	0.00	0.00	0.00	0.00	0.00	0.00	0.00	0.00	0.00	0.00	0.00	0.00	-3.854492	-0.098633	1.072266	44.660000	-327.880005	145.529999	0.00	0.00	0.00	2.25	0.25	1.00	0.00	0.50	0.00	6.50	1.00	11.75	8.50	8.50	6.75	3.75	8.25	4.25	1.25	-0.313477	0.083008	0.964844	-6.090000	46.689999	-9.870000	850.00	0.20	0.04
3.19	0.00	0.00	0.00	0.00	0.00	0.00	0.00	0.00	0.00	0.00	0.00	0.00	0.00	0.00	0.00	0.00	-5.354004	-0.165039	0.261719	30.240000	-306.320007	129.360001	0.00	0.00	0.00	1.50	0.25	0.75	0.00	0.50	0.00	6.75	0.75	12.50	8.75	9.00	7.25	3.50	8.75	4.75	1.50	-0.331543	0.020020	0.950684	-2.660000	60.970001	-10.010000	875.00	0.22	0.04
3.20	0.00	0.00	0.00	0.00	0.00	0.00	0.00	0.00	0.00	0.00	0.00	0.00	0.00	0.00	0.00	0.00	-6.781738	-0.223145	-1.093750	53.200001	-277.619995	69.650002	0.00	0.00	0.00	0.75	0.00	0.75	0.00	0.00	0.00	6.75	0.50	13.00	9.25	9.25	7.50	3.75	9.25	4.75	1.75	-0.367676	0.061035	1.046875	7.910000	115.779999	-8.820000	881.00	0.23	0.05
3.21	0.00	0.00	0.00	0.00	0.00	0.00	0.00	0.00	0.00	0.00	0.00	0.00	0.00	0.00	0.00	0.00	-6.588379	-0.120605	-2.353027	115.010002	-198.800003	-3.570000	0.00	0.00	0.00	0.50	0.00	0.25	0.00	0.25	0.00	6.75	0.50	13.75	9.50	9.50	7.50	3.50	9.75	5.00	1.75	-0.367676	0.061035	1.046875	7.910000	115.779999	-8.820000	898.00	0.24	0.05
3.22	0.00	0.00	0.00	0.00	0.00	0.00	0.00	0.00	0.00	0.00	0.00	0.00	0.00	0.00	0.00	0.00	-5.067383	-0.253418	-2.762695	141.119995	-54.810001	-60.900002	0.00	0.00	0.00	0.00	0.00	0.00	0.00	0.00	0.00	6.50	0.25	14.00	10.00	9.75	7.50	3.25	10.25	5.25	2.25	-0.367676	0.034180	1.076172	3.430000	145.250000	-7.350000	899.00	0.25	0.05
3.23	1.00	0.25	0.25	0.00	0.00	0.00	0.00	0.00	0.00	0.00	0.00	0.00	0.00	0.00	0.00	0.00	-5.527344	-0.208008	-0.694824	122.709999	202.789993	-34.090000	18.00	0.00	0.00	0.25	0.00	0.00	0.00	0.00	0.00	6.50	0.00	14.50	10.00	10.00	7.75	2.75	10.75	5.25	2.50	-0.456055	0.058594	1.130371	-5.110000	202.860001	-2.240000	913.00	0.25	0.06
3.24	2.75	2.25	0.75	0.50	0.00	0.00	0.00	0.00	0.00	0.00	0.00	0.00	0.00	0.00	0.00	0.00	0.539062	-0.340820	-1.633301	-42.840000	368.690002	-9.380000	75.00	-0.38	-0.01	0.00	0.00	0.00	0.00	0.00	0.00	6.50	0.00	14.50	10.25	10.25	7.50	2.75	11.25	5.25	2.50	-0.482422	0.076660	1.150391	-10.780000	237.790009	-3.150000	918.00	0.25	0.06
3.25	5.00	4.25	0.75	1.50	0.00	0.00	0.00	0.00	0.00	0.00	0.00	0.00	0.00	0.00	0.00	0.00	-0.323242	0.583008	2.610352	23.870001	338.519989	57.119999	139.00	-0.38	-0.03	0.00	0.00	0.00	0.00	0.00	0.00	6.25	0.00	14.25	10.50	10.25	7.50	2.00	11.25	5.25	3.00	-0.538574	0.111816	1.178223	-17.010000	278.390015	-7.700000	908.00	0.25	0.06
3.26	9.00	7.00	1.50	1.50	0.00	0.00	0.00	0.00	0.00	0.00	0.00	0.00	0.00	0.00	0.00	0.00	-0.994141	-0.231934	1.700195	59.220001	279.579987	76.580002	228.00	-0.39	-0.01	0.00	0.00	0.00	0.00	0.00	0.00	6.00	0.00	14.00	10.25	10.25	7.25	2.00	11.75	5.25	3.25	-0.596191	0.145020	1.204590	-23.870001	316.329987	-15.400000	900.00	0.26	0.06
3.27	12.75	9.25	2.75	2.25	0.00	0.00	0.00	0.00	0.00	0.00	0.00	0.00	0.00	0.00	0.00	0.00	-1.181641	-0.368164	1.718262	12.810000	298.130005	58.590000	326.00	-0.38	-0.01	0.00	0.00	0.00	0.00	0.00	0.00	5.75	0.00	13.50	10.00	10.00	6.75	2.00	11.75	5.00	4.25	-0.670410	0.184570	1.237793	-30.799999	348.600006	-24.570000	879.00	0.26	0.06
3.28	15.75	11.25	3.25	4.00	0.00	0.00	0.00	0.00	0.00	0.00	0.00	0.00	0.00	0.00	0.00	0.00	-1.232422	-0.498047	2.846191	16.730000	306.950012	48.369999	415.00	-0.38	-0.02	0.00	0.00	0.00	0.00	0.00	0.00	5.75	0.00	12.75	9.50	9.50	6.25	1.50	11.75	5.00	4.75	-0.802734	0.194824	1.353516	-34.090000	376.950012	-34.369999	846.00	0.26	0.06
3.29	17.50	12.75	4.50	4.25	0.00	0.00	0.00	0.00	0.00	0.00	0.00	0.00	0.00	0.00	0.00	0.00	-0.979980	-0.776855	2.703125	30.940001	260.679993	28.770000	473.00	-0.38	-0.01	0.00	0.00	0.00	0.00	0.00	0.00	5.25	0.00	11.75	8.75	8.75	5.75	1.50	11.75	4.50	4.50	-0.968750	0.164062	1.599609	-33.180000	401.940002	-42.070000	789.00	0.26	0.06
3.30	19.50	14.00	5.25	5.00	0.00	0.00	0.00	0.00	0.00	0.00	0.00	0.00	0.00	0.00	0.00	0.00	-0.718750	-0.275391	1.877930	37.660000	216.720001	1.890000	532.00	-0.37	-0.01	0.00	0.00	0.00	0.00	0.00	0.00	5.00	0.00	10.00	8.00	8.00	5.00	1.75	12.00	3.75	4.50	-1.286133	0.257324	1.938965	-30.309999	417.130005	-48.160000	724.00	0.26	0.06
3.31	19.00	14.50	5.75	5.75	0.00	0.00	0.00	0.00	0.00	0.00	0.00	0.00	0.00	0.00	0.00	0.00	-0.579590	0.072266	1.611816	50.330002	201.740005	-10.990000	548.00	-0.37	-0.02	0.00	0.00	0.00	0.00	0.00	0.00	4.50	0.00	9.00	6.75	6.75	3.50	1.50	11.75	2.50	4.00	-1.749512	0.311523	2.478027	-21.210001	427.209991	-50.330002	626.00	0.26	0.07
3.32	19.25	15.00	7.00	7.25	0.25	0.00	0.00	0.00	0.00	0.00	0.00	0.00	0.00	0.25	0.00	0.00	-0.568848	0.246094	1.632812	54.110001	191.240005	-8.960000	598.00	-0.36	-0.02	0.00	0.00	0.00	0.00	0.00	0.00	3.50	0.00	8.00	5.50	5.25	2.75	1.25	11.00	1.75	3.00	-2.104004	0.383789	3.038086	-10.010000	439.179993	-50.259998	522.00	0.27	0.08
3.33	19.00	15.50	8.00	7.75	0.25	0.25	0.00	0.00	0.00	0.00	0.00	0.00	0.00	0.50	0.00	0.00	-0.560059	0.313965	1.746582	61.040001	187.880005	2.170000	626.00	-0.36	-0.03	0.00	0.00	0.00	0.00	0.00	0.00	2.50	0.00	6.75	4.00	4.00	2.25	1.00	9.75	1.00	2.25	-1.698730	0.434570	2.646973	7.910000	453.809998	-48.020000	415.00	0.27	0.09
3.34	20.00	15.75	8.50	8.50	0.50	1.00	0.00	0.00	0.00	0.00	0.00	0.00	0.00	1.00	0.00	0.00	-0.554199	0.167969	2.303711	43.959999	163.309998	3.640000	676.00	-0.34	-0.03	0.00	0.00	0.00	0.00	0.00	0.00	1.50	0.00	5.25	3.50	3.00	2.00	0.75	8.75	0.50	1.50	-1.519531	0.065430	2.796387	27.580000	466.760010	-52.500000	328.00	0.28	0.09
3.35	20.00	15.75	9.25	8.75	0.75	1.25	0.25	0.25	0.00	0.00	0.00	0.00	0.00	0.75	0.00	0.00	-0.545410	0.116211	1.113281	13.860000	63.139999	-3.850000	703.00	-0.34	-0.03	0.00	0.00	0.00	0.00	0.00	0.00	0.75	0.00	4.50	2.50	2.50	1.75	0.50	7.25	0.50	0.50	-1.232910	0.070801	2.848633	14.140000	481.600006	-64.820000	256.00	0.29	0.09
3.36	20.75	16.25	9.50	9.25	1.00	1.50	0.25	0.50	0.25	0.25	0.00	0.25	0.00	1.25	0.00	0.00	-0.323242	0.175781	1.018066	-3.150000	18.690001	-4.830000	754.00	-0.32	-0.03	0.00	0.00	0.00	0.00	0.00	0.00	0.25	0.00	2.50	2.25	2.00	1.50	0.25	5.25	0.00	0.00	-1.103027	0.705566	3.485352	-2.240000	494.760010	-67.690002	171.00	0.29	0.08
3.37	20.75	16.25	9.75	9.25	1.00	2.00	0.25	0.50	0.50	0.50	0.25	0.25	0.00	1.25	0.00	0.00	-0.344238	-0.010742	0.983887	-9.590000	5.880000	-3.850000	774.00	-0.31	-0.03	0.00	0.00	0.00	0.00	0.00	0.00	0.00	0.00	1.25	1.50	1.25	0.75	0.25	1.50	0.00	0.00	0.937012	0.307129	3.219727	38.709999	443.170013	-60.689999	81.00	0.27	0.04
3.38	21.50	16.50	10.00	9.50	1.00	1.75	0.50	0.75	0.50	0.25	0.25	0.00	0.00	1.50	0.00	0.00	-0.337402	0.045410	0.979004	-10.360000	1.820000	-3.010000	794.00	-0.31	-0.03	0.00	0.00	0.00	0.00	0.00	0.00	0.00	0.00	0.25	0.75	0.25	0.25	0.00	0.75	0.00	0.00	1.531250	0.052246	2.973145	40.529999	317.799988	-59.080002	27.00	0.00	0.00
3.39	21.25	17.00	10.00	9.50	1.25	2.00	0.50	1.00	0.50	0.25	0.25	0.00	0.00	1.50	0.00	0.00	-0.307129	0.069336	0.976562	-10.430000	1.190000	-1.680000	808.00	-0.31	-0.03	0.00	0.00	0.00	0.00	0.00	0.00	0.00	0.00	0.50	0.75	0.50	0.50	0.00	0.00	0.00	0.00	0.759277	0.561035	3.738281	-34.230000	195.580002	-50.889999	30.00	0.00	0.00
3.40	21.50	17.25	10.00	9.75	1.00	2.00	0.50	1.00	0.50	0.50	0.50	0.00	0.00	1.50	0.25	0.00	-0.276367	0.037109	0.956543	-10.850000	2.310000	-1.680000	823.00	-0.31	-0.03	0.00	0.00	0.00	0.00	0.00	0.00	0.00	0.00	0.00	0.75	0.25	0.00	0.00	0.00	0.00	0.00	2.109863	0.794434	5.041016	-47.110001	-36.049999	-22.190001	12.00	0.00	0.00
3.41	21.25	16.50	10.00	9.50	1.25	2.00	0.50	0.25	0.50	0.50	0.25	0.25	0.00	1.25	0.00	0.00	-0.266113	0.024414	0.937988	-10.150000	2.870000	-1.400000	792.00	-0.31	-0.03	0.00	0.25	0.00	0.00	0.00	0.00	0.00	0.00	0.00	0.75	0.00	0.00	0.00	0.25	0.00	0.00	1.803223	0.581543	2.659180	-73.360001	-196.419998	10.640000	15.00	0.00	0.00
3.42	21.00	17.00	9.75	9.25	1.25	1.75	0.50	1.00	1.00	0.50	0.25	0.25	0.00	1.50	0.00	0.00	-0.263184	0.031738	0.937988	-8.820000	3.920000	-1.190000	809.00	-0.30	-0.03	0.00	0.00	0.00	0.00	0.00	0.00	0.00	0.00	0.00	0.25	0.00	0.00	0.00	0.25	0.00	0.00	1.195801	0.509766	2.032227	-81.129997	-258.579987	27.790001	6.00	0.00	0.00
3.43	20.00	16.00	9.50	9.50	1.00	1.75	0.75	0.50	0.75	0.50	0.50	0.25	0.00	1.50	0.00	0.00	-0.264648	0.024414	0.947754	-7.000000	5.320000	-0.350000	777.00	-0.30	-0.03	0.00	0.00	0.00	0.00	0.00	0.00	0.00	0.00	0.00	0.25	0.00	0.00	0.00	0.00	0.00	0.00	1.220703	0.531738	1.481934	-46.619999	-273.000000	33.459999	3.00	0.00	0.00
3.44	19.75	15.50	9.50	9.00	1.25	2.25	0.75	0.75	1.00	0.50	0.25	0.25	0.00	1.25	0.00	0.00	-0.270020	0.019531	0.947754	-4.900000	6.930000	0.700000	774.00	-0.30	-0.03	0.00	0.00	0.00	0.00	0.00	0.00	0.00	0.00	0.00	0.25	0.00	0.00	0.00	0.00	0.00	0.00	0.994141	0.326660	1.421387	1.400000	-284.690002	29.610001	3.00	0.00	0.00
3.45	18.75	15.00	9.25	9.00	1.00	1.50	0.75	0.25	1.00	0.50	0.25	0.25	0.00	1.25	0.00	0.00	-0.270020	0.030762	0.943359	-3.570000	8.400000	1.260000	731.00	-0.30	-0.02	0.00	0.00	0.00	0.00	0.00	0.00	0.00	0.00	0.00	0.00	0.00	0.00	0.00	0.00	0.00	0.00	0.789062	0.131348	1.549805	46.900002	-303.869995	19.809999	0.00	0.00	0.00
3.46	18.25	14.25	9.25	8.50	1.00	1.00	0.75	0.75	0.75	0.50	0.50	0.25	0.00	1.00	0.25	0.00	-0.278320	0.040527	0.952148	-3.010000	9.240000	0.980000	712.00	-0.30	-0.02	0.00	0.00	0.00	0.00	0.00	0.00	0.00	0.00	0.00	0.00	0.00	0.00	0.00	0.00	0.00	0.00	0.621094	-0.101562	1.616699	73.919998	-331.799988	9.380000	0.00	0.00	0.00
3.47	17.50	13.75	8.75	8.50	1.00	1.00	0.75	0.75	0.75	0.25	0.50	0.25	0.00	1.00	0.00	0.00	-0.284668	0.036621	0.947754	-2.800000	9.310000	0.420000	684.00	-0.30	-0.03	0.00	0.00	0.00	0.00	0.00	0.00	0.00	0.00	0.00	0.00	0.00	0.00	0.00	0.00	0.00	0.00	0.390137	-0.236328	1.639160	76.790001	-362.600006	-1.120000	0.00	0.00	0.00
3.48	16.50	13.00	8.50	8.25	0.75	1.00	0.75	0.50	1.00	0.25	0.25	0.25	0.00	1.00	0.00	0.00	-0.283203	0.038086	0.934082	-3.430000	9.170000	-0.280000	650.00	-0.30	-0.02	0.00	0.00	0.00	0.00	0.00	0.00	0.00	0.00	0.00	0.00	0.00	0.00	0.00	0.00	0.00	0.00	0.185547	-0.306152	1.636230	62.090000	-390.600006	-11.270000	0.00	0.00	0.00
3.49	15.75	12.50	8.25	7.75	0.75	1.00	0.75	0.50	1.00	0.50	0.50	0.25	0.00	0.75	0.00	0.00	-0.272461	0.043945	0.928711	-4.550000	9.170000	-0.980000	629.00	-0.30	-0.02	0.00	0.00	0.00	0.00	0.00	0.00	0.00	0.00	0.00	0.00	0.00	0.00	0.00	0.00	0.00	0.00	0.017090	-0.316895	1.571289	49.000000	-413.910004	-20.580000	0.00	0.00	0.00
3.50	15.25	11.75	8.00	7.75	0.75	1.25	0.75	0.75	1.00	0.50	0.50	0.50	0.00	0.50	0.50	0.00	-0.274902	0.038574	0.937012	-6.020000	9.310000	-1.680000	626.00	-0.28	-0.03	0.00	0.00	0.00	0.00	0.00	0.00	0.00	0.00	0.00	0.00	0.00	0.00	0.00	0.00	0.00	0.00	-0.208496	-0.305664	1.470215	43.820000	-431.410004	-30.799999	0.00	0.00	0.00
3.51	14.50	11.25	8.00	7.50	0.75	1.25	1.00	0.50	1.25	0.75	0.25	0.50	0.00	1.00	0.25	0.00	-0.266113	0.031250	0.921387	-7.490000	9.520000	-2.450000	614.00	-0.27	-0.02	0.00	0.00	0.00	0.00	0.00	0.00	0.00	0.00	0.00	0.00	0.00	0.00	0.00	0.00	0.00	0.00	-0.378906	-0.312012	1.347656	52.009998	-440.649994	-41.369999	0.00	0.00	0.00
3.52	13.75	10.25	7.75	7.00	0.75	0.75	1.00	0.50	1.25	0.75	0.50	0.25	0.00	1.00	0.00	0.00	-0.276367	0.031738	0.921875	-9.240000	10.430000	-2.870000	574.00	-0.27	-0.01	0.00	0.00	0.00	0.00	0.00	0.00	0.00	0.00	0.00	0.00	0.00	0.00	0.00	0.00	0.00	0.00	-0.570312	-0.406738	1.212891	88.340004	-432.179993	-60.060001	0.00	0.00	0.00
3.53	13.25	9.75	7.75	7.00	0.75	0.75	1.25	0.50	1.25	0.75	0.50	0.00	0.00	0.75	0.00	0.00	-0.280762	0.024902	0.917969	-11.130000	11.620000	-3.290000	561.00	-0.27	-0.01	0.00	0.00	0.00	0.00	0.00	0.00	0.00	0.00	0.00	0.00	0.00	0.00	0.00	0.00	0.00	0.00	-0.648926	-0.472656	1.279785	96.110001	-417.480011	-64.959999	0.00	0.00	0.00
3.54	12.50	9.00	7.50	6.75	0.75	0.00	1.75	0.50	1.50	1.00	0.50	0.25	0.00	1.00	0.50	0.00	-0.273926	0.018066	0.904297	-13.930000	13.160000	-4.200000	555.00	-0.25	0.00	0.00	0.00	0.00	0.00	0.00	0.00	0.00	0.00	0.00	0.00	0.00	0.00	0.00	0.00	0.00	0.00	-0.737305	-0.492676	1.424316	90.650002	-400.610016	-66.570000	0.00	0.00	0.00
3.55	12.00	8.75	7.50	6.50	0.75	0.75	2.25	0.50	1.75	1.25	0.50	0.25	0.00	1.00	0.00	0.00	-0.278809	0.030762	0.921875	-15.120000	14.140000	-5.110000	562.00	-0.24	0.00	0.00	0.00	0.00	0.00	0.00	0.00	0.00	0.00	0.00	0.00	0.00	0.00	0.00	0.00	0.00	0.00	-0.820312	-0.468750	1.565918	77.349998	-385.209991	-64.610001	0.00	0.00	0.00
3.56	11.25	8.00	7.50	6.00	0.75	0.75	2.75	0.25	2.25	1.25	0.75	0.50	0.00	1.50	0.00	0.00	-0.282227	0.031250	0.917480	-15.750000	14.700000	-6.090000	562.00	-0.21	0.02	0.00	0.00	0.00	0.00	0.00	0.00	0.00	0.00	0.00	0.00	0.00	0.00	0.00	0.00	0.00	0.00	-0.888672	-0.406250	1.703125	63.420002	-374.640015	-59.639999	0.00	0.00	0.00
3.57	11.00	7.75	7.25	5.75	0.75	0.25	3.25	0.50	2.75	1.25	0.75	0.50	0.00	1.25	0.25	0.00	-0.281738	0.018555	0.929688	-15.960000	14.770000	-6.860000	565.00	-0.20	0.03	0.00	0.00	0.00	0.00	0.00	0.00	0.00	0.00	0.00	0.00	0.00	0.00	0.00	0.00	0.00	0.00	-0.959473	-0.322266	1.765625	50.259998	-368.130005	-51.799999	0.00	0.00	0.00
3.58	10.50	7.50	7.25	5.75	0.75	0.75	4.00	1.00	3.50	1.75	0.75	0.50	0.00	1.75	0.75	0.00	-0.282715	0.015137	0.920410	-15.400000	14.770000	-7.350000	614.00	-0.16	0.03	0.00	0.00	0.00	0.00	0.00	0.00	0.00	0.00	0.00	0.00	0.00	0.00	0.00	0.00	0.00	0.00	-0.980957	-0.224609	1.783691	35.209999	-361.339996	-40.810001	0.00	0.00	0.00
3.59	9.75	6.75	7.00	5.50	1.00	0.25	4.50	1.00	4.25	2.00	1.00	0.75	0.00	2.25	1.75	0.00	-0.297363	0.010254	0.917480	-14.000000	14.420000	-7.280000	634.00	-0.12	0.04	0.00	0.00	0.00	0.00	0.00	0.00	0.00	0.00	0.00	0.00	0.00	0.00	0.00	0.00	0.00	0.00	-0.989746	-0.113281	1.803223	21.559999	-351.890015	-27.160000	0.00	0.00	0.00
3.60	9.75	6.25	7.00	5.25	1.00	0.50	5.00	0.75	5.50	2.50	1.25	0.75	0.00	2.75	1.00	0.25	-0.287598	0.004883	0.919434	-12.320000	14.560000	-6.650000	659.00	-0.10	0.05	0.00	0.00	0.00	0.00	0.00	0.00	0.00	0.00	0.00	0.00	0.00	0.00	0.00	0.00	0.00	0.00	-1.025391	-0.019043	1.849609	11.970000	-338.029999	-12.740000	0.00	0.00	0.00
3.61	8.75	5.75	7.00	4.75	1.00	0.25	5.25	0.75	6.75	2.75	1.75	1.00	0.00	3.50	1.50	0.00	-0.308105	-0.000977	0.929199	-10.290000	15.890000	-5.950000	680.00	-0.06	0.06	0.00	0.00	0.00	0.00	0.00	0.00	0.00	0.00	0.00	0.00	0.00	0.00	0.00	0.00	0.00	0.00	-1.072266	0.073730	1.909180	6.440000	-320.529999	1.820000	0.00	0.00	0.00
3.62	7.75	5.25	6.75	4.50	1.25	0.75	5.50	0.75	7.50	3.25	1.50	1.00	0.00	4.25	1.50	0.50	-0.313477	0.006348	0.935547	-8.680000	17.570000	-5.110000	696.00	-0.04	0.07	0.00	0.00	0.00	0.00	0.00	0.00	0.00	0.00	0.00	0.00	0.00	0.00	0.00	0.00	0.00	0.00	-1.175781	0.164551	1.984375	2.380000	-301.420013	16.730000	0.00	0.00	0.00
3.63	7.00	4.50	6.25	4.00	1.25	0.00	5.75	0.75	8.25	4.00	2.25	1.25	0.00	5.00	1.50	0.25	-0.320801	0.004883	0.932617	-7.280000	19.530001	-4.200000	699.00	-0.00	0.08	0.00	0.00	0.00	0.00	0.00	0.00	0.00	0.00	0.00	0.00	0.00	0.00	0.00	0.00	0.00	0.00	-1.333496	0.231445	2.132324	-0.280000	-283.079987	32.619999	0.00	0.00	0.00
3.64	6.00	3.75	5.75	3.00	1.00	0.00	6.00	1.00	9.00	4.75	2.25	1.50	0.25	5.25	2.00	0.25	-0.314453	0.002441	0.948242	-6.090000	22.190001	-4.270000	700.00	0.03	0.08	0.00	0.00	0.00	0.00	0.00	0.00	0.00	0.00	0.00	0.00	0.00	0.00	0.00	0.00	0.00	0.00	-1.515625	0.267578	2.334961	-3.010000	-271.110016	49.490002	0.00	0.00	0.00
3.65	4.75	2.75	5.50	2.75	1.00	0.00	6.25	1.00	9.50	6.00	3.00	1.75	0.25	5.75	2.75	0.75	-0.324219	0.012207	0.937012	-5.530000	25.760000	-5.110000	725.00	0.07	0.08	0.00	0.00	0.00	0.00	0.00	0.00	0.00	0.00	0.00	0.00	0.00	0.00	0.00	0.00	0.00	0.00	-1.715332	0.326172	2.523438	-6.370000	-269.920013	67.830002	0.00	0.00	0.00
3.66	3.75	2.00	4.75	2.25	1.00	0.00	6.50	0.75	10.50	6.50	3.50	2.25	0.50	6.75	2.75	0.75	-0.326172	0.006836	0.946289	-4.970000	29.750000	-6.020000	735.00	0.10	0.09	0.00	0.00	0.00	0.00	0.00	0.00	0.00	0.00	0.00	0.00	0.00	0.00	0.00	0.00	0.00	0.00	-2.197754	0.378906	2.703613	16.730000	-314.089996	118.020004	0.00	0.00	0.00
3.67	2.75	1.25	3.50	1.50	0.75	0.00	6.50	1.00	11.25	7.25	4.75	2.25	0.25	7.50	3.50	1.00	-0.338379	0.017090	0.946777	-3.710000	34.650002	-7.420000	742.00	0.15	0.09	0.00	0.00	0.00	0.00	0.00	0.00	0.00	0.00	0.00	0.00	0.00	0.00	0.00	0.00	0.00	0.00	-2.666016	0.206543	2.726074	48.020000	-352.309998	148.190002	0.00	0.00	0.00
3.68	2.50	0.75	2.75	0.75	0.50	0.00	6.75	0.75	12.00	7.75	5.25	2.50	0.75	8.00	4.50	0.75	-0.315430	-0.009277	0.938477	-4.130000	41.650002	-8.960000	758.00	0.17	0.10	0.00	0.00	0.00	0.00	0.00	0.00	0.00	0.00	0.00	0.00	0.00	0.00	0.00	0.00	0.00	0.00	-3.255371	0.131348	2.368652	60.340000	-385.910004	173.250000	0.00	0.00	0.00
3.69	1.50	1.00	2.25	1.25	0.50	0.00	6.75	0.00	12.75	8.00	6.25	3.00	0.75	8.75	5.00	1.25	-0.350586	-0.025391	0.970215	-3.990000	49.420002	-8.750000	786.00	0.19	0.09	0.00	0.00	0.00	0.00	0.00	0.00	0.00	0.00	0.00	0.00	0.00	0.00	0.00	0.00	0.00	0.00	-3.910645	0.254395	1.483398	51.380001	-403.829987	185.639999	0.00	0.00	0.00
3.70	0.75	0.25	1.75	0.50	0.25	0.00	6.75	0.00	13.50	8.50	6.75	3.00	0.75	9.25	5.00	1.75	-0.360840	0.007324	0.996582	2.520000	75.949997	-8.120000	781.00	0.22	0.10	0.00	0.00	0.00	0.00	0.00	0.00	0.00	0.00	0.00	0.00	0.00	0.00	0.00	0.00	0.00	0.00	-5.346191	0.400879	0.237793	78.260002	-396.200012	178.149994	0.00	0.00	0.00
3.71	1.00	0.25	1.50	0.25	0.25	0.00	6.75	0.00	14.00	8.75	7.00	3.50	1.00	9.50	5.50	2.00	-0.397461	0.000977	0.994141	3.640000	97.580002	-7.490000	811.00	0.23	0.10	0.00	0.00	0.00	0.00	0.00	0.00	0.00	0.00	0.00	0.00	0.00	0.00	0.00	0.00	0.00	0.00	-7.015137	-0.101562	-1.125488	195.509995	-371.630005	142.169998	0.00	0.00	0.00
3.72	0.75	0.00	1.50	0.00	0.25	0.00	6.75	0.00	14.50	9.00	7.25	3.75	0.25	10.25	5.75	1.75	-0.416504	-0.038574	1.055664	1.960000	124.320000	-5.390000	820.00	0.23	0.10	0.00	0.00	0.00	0.00	0.00	0.00	0.00	0.00	0.00	0.00	0.00	0.00	0.00	0.00	0.00	0.00	-6.805176	-0.742188	-2.224121	327.110016	-283.989990	92.959999	0.00	0.00	0.00
3.73	0.50	0.00	0.50	0.00	0.00	0.00	6.75	0.00	15.00	9.25	7.50	3.75	0.00	10.75	6.00	2.50	-0.443848	-0.056152	1.041504	-3.920000	154.350006	-1.050000	825.00	0.25	0.10	0.00	0.00	0.00	0.00	0.00	0.00	0.00	0.00	0.00	0.00	0.00	0.00	0.00	0.00	0.00	0.00	-5.381348	-1.470215	-2.558105	332.290009	-133.139999	51.099998	0.00	0.00	0.00
