# time	left pressure 1[N/cm²]	left pressure 2[N/cm²]	left pressure 3[N/cm²]	left pressure 4[N/cm²]	left pressure 5[N/cm²]	left pressure 6[N/cm²]	left pressure 7[N/cm²]	left pressure 8[N/cm²]	left pressure 9[N/cm²]	left pressure 10[N/cm²]	left pressure 11[N/cm²]	left pressure 12[N/cm²]	left pressure 13[N/cm²]	left pressure 14[N/cm²]	left pressure 15[N/cm²]	left pressure 16[N/cm²]	left acceleration X[g]	left acceleration Y[g]	left acceleration Z[g]	left angular X[dps]	left angular Y[dps]	left angular Z[dps]	left total force[N]	left center of pressure X[%]	left center of pressure Y[%]	right pressure 1[N/cm²]	right pressure 2[N/cm²]	right pressure 3[N/cm²]	right pressure 4[N/cm²]	right pressure 5[N/cm²]	right pressure 6[N/cm²]	right pressure 7[N/cm²]	right pressure 8[N/cm²]	right pressure 9[N/cm²]	right pressure 10[N/cm²]	right pressure 11[N/cm²]	right pressure 12[N/cm²]	right pressure 13[N/cm²]	right pressure 14[N/cm²]	right pressure 15[N/cm²]	right pressure 16[N/cm²]	right acceleration X[g]	right acceleration Y[g]	right acceleration Z[g]	right angular X[dps]	right angular Y[dps]	right angular Z[dps]	right total force[N]	right center of pressure X[%]	right center of pressure Y[%]
0.00	0.50	0.00	1.25	0.50	1.00	0.00	0.50	0.25	0.25	0.00	0.00	0.00	0.00	1.00	0.00	0.00	-0.233398	0.059082	0.948730	-9.660000	-15.050000	-8.050000	59.00	-0.07	0.07																									
0.01	0.00	0.00	1.25	0.25	1.25	0.00	0.50	0.25	0.75	0.00	0.00	0.00	0.25	1.25	0.00	0.00	-0.169434	0.060059	0.963867	-7.070000	-9.450000	-7.280000	64.00	0.03	0.08																									
0.02	0.25	0.00	1.50	0.00	1.25	0.00	0.50	0.25	0.50	0.00	0.00	0.00	0.25	1.25	0.00	0.00	-0.219238	0.075684	0.966309	-4.690000	-5.460000	-5.040000	64.00	-0.00	0.09																									
0.03	0.00	0.00	1.25	0.25	1.00	0.00	0.50	0.50	0.50	0.00	0.25	0.00	0.50	1.75	0.00	0.00	-0.242676	0.076172	0.961914	-2.660000	1.050000	-3.780000	71.00	0.05	0.03																									
0.04	0.50	0.00	1.50	0.00	1.00	0.00	0.50	0.25	0.50	0.00	0.25	0.00	0.50	1.25	0.00	0.00	-0.224609	0.069336	0.959961	-1.120000	6.720000	-2.660000	68.00	0.00	0.07																									
0.05	0.25	0.25	1.25	0.25	1.00	0.00	0.50	0.50	0.50	0.00	0.00	0.00	0.25	1.50	0.25	0.00	-0.213867	0.066895	0.956543	0.070000	9.870000	-1.470000	72.00	0.01	0.04																									
0.06	0.00	0.25	0.75	0.00	1.00	0.00	0.50	0.25	0.75	0.00	0.00	0.00	0.50	1.50	0.00	0.00	-0.226562	0.067871	0.958496	0.770000	12.110000	0.420000	60.00	0.08	0.07																									
0.07	0.00	0.00	0.75	0.00	0.75	0.00	0.50	0.50	1.00	0.25	0.00	0.00	0.50	1.75	0.00	0.00	-0.232422	0.077148	0.959473	1.260000	14.420000	1.680000	67.00	0.12	0.07																									
0.08	0.00	0.00	0.75	0.00	0.75	0.00	0.50	0.50	0.75	0.00	0.25	0.00	0.50	1.25	0.00	0.00	-0.229004	0.082520	0.950195	1.890000	16.030001	1.820000	59.00	0.09	0.04																									
0.09	0.00	0.00	0.50	0.00	0.50	0.00	0.50	0.25	0.75	0.00	0.25	0.00	0.75	1.25	0.25	0.00	-0.243164	0.091309	0.950195	2.660000	16.870001	0.420000	55.00	0.15	0.04																									
0.10	0.00	0.00	0.50	0.00	0.50	0.00	0.50	0.50	0.50	0.00	0.25	0.00	0.50	1.75	0.00	0.00	-0.232910	0.089355	0.948730	2.660000	16.030001	-0.700000	55.00	0.14	0.03																									
0.11	0.00	0.00	0.50	0.00	0.50	0.00	0.25	0.50	0.50	0.00	0.00	0.00	0.75	1.50	0.00	0.00	-0.238281	0.080078	0.932129	2.030000	14.420000	-1.470000	48.00	0.00	0.00																									
0.12	0.00	0.00	0.00	0.00	0.25	0.00	0.50	0.25	0.50	0.00	0.25	0.00	0.50	1.75	0.25	0.00	-0.239258	0.087891	0.942871	1.330000	12.950000	-1.960000	45.00	0.00	0.00																									
0.13	0.00	0.00	0.25	0.00	0.25	0.00	0.25	0.25	0.50	0.00	0.25	0.00	0.75	1.50	0.25	0.00	-0.237793	0.087891	0.944336	0.840000	12.250000	-2.450000	44.00	0.00	0.00																									
0.14	0.00	0.00	0.00	0.00	0.25	0.00	0.25	0.25	0.50	0.00	0.25	0.00	0.50	1.75	0.25	0.00	-0.238770	0.084473	0.935059	0.070000	10.640000	-2.660000	41.00	0.00	0.00																									
0.15	0.00	0.00	0.00	0.00	0.25	0.00	0.25	0.25	0.75	0.00	0.25	0.00	0.75	2.25	0.00	0.00	-0.227051	0.081055	0.939941	-1.050000	7.630000	-2.660000	48.00	0.00	0.00																									
0.16	0.00	0.00	0.00	0.00	0.00	0.00	0.25	0.25	0.75	0.25	0.50	0.00	0.75	2.00	0.25	0.00	-0.236328	0.086914	0.944336	-1.960000	5.320000	-2.100000	51.00	0.27	0.03																									
0.17	0.00	0.00	0.25	0.00	0.00	0.00	0.25	0.50	1.00	0.00	0.25	0.00	0.50	2.00	0.25	0.00	-0.241211	0.085449	0.946777	-2.450000	4.550000	-1.330000	54.00	0.23	0.04																									
0.18	0.00	0.00	0.00	0.00	0.00	0.00	0.25	0.25	1.25	0.00	0.25	0.00	0.75	2.00	0.25	0.00	-0.239746	0.076172	0.943848	-2.800000	4.340000	-1.120000	53.00	0.27	0.06																									
0.19	0.00	0.00	0.00	0.00	0.00	0.00	0.50	0.25	1.25	0.25	0.25	0.00	1.00	2.00	0.25	0.00	-0.237793	0.074707	0.946777	-2.940000	3.710000	-1.120000	61.00	0.25	0.06																									
0.20	0.00	0.00	0.25	0.00	0.25	0.00	0.50	0.25	1.50	0.50	0.25	0.00	0.75	2.00	0.25	0.00	-0.233887	0.082520	0.948242	-3.010000	2.450000	-0.980000	70.00	0.22	0.08																									
0.21	0.00	0.00	0.00	0.00	0.00	0.00	0.25	0.25	1.75	0.50	0.50	0.00	1.00	2.50	0.25	0.00	-0.231445	0.083984	0.942871	-3.010000	1.330000	-0.980000	73.00	0.27	0.07																									
0.22	0.00	0.00	0.00	0.00	0.25	0.00	0.50	0.25	2.00	0.50	0.50	0.00	0.75	2.50	0.25	0.00	-0.230469	0.079102	0.954102	-2.800000	1.400000	-1.330000	81.00	0.25	0.10	0.75	0.50	2.00	2.00	5.75	3.00	2.00	5.00	5.00	3.25	2.25	2.25	5.50	5.00	0.75	1.50	-0.165527	0.096680	0.979004	-3.710000	-5.530000	1.890000	512.00	0.07	-0.07
0.23	0.00	0.00	0.25	0.00	0.25	0.00	0.50	0.50	1.75	0.50	0.50	0.00	1.00	2.75	0.25	0.00	-0.234863	0.089844	0.949219	-2.660000	2.940000	-1.610000	89.00	0.22	0.06	0.75	0.50	2.00	1.75	5.75	3.25	2.00	5.00	5.25	3.25	2.00	2.25	5.50	5.00	0.75	1.50	-0.166992	0.088379	0.980469	-2.730000	-4.480000	1.750000	512.00	0.08	-0.07
0.24	0.00	0.00	0.00	0.00	0.00	0.00	0.50	0.25	1.50	0.50	0.75	0.00	1.00	3.00	0.50	0.00	-0.234863	0.083496	0.948242	-2.310000	4.270000	-1.750000	83.00	0.27	0.06	0.75	0.75	2.00	2.00	5.75	3.00	2.00	5.25	5.00	3.00	2.00	2.25	6.00	4.75	0.75	1.50	-0.172363	0.087891	0.976562	-1.610000	-3.290000	2.310000	515.00	0.07	-0.08
0.25	0.00	0.00	0.00	0.00	0.25	0.00	0.50	0.25	2.25	0.75	0.75	0.00	1.00	3.25	0.25	0.00	-0.229492	0.079590	0.952148	-2.170000	5.390000	-1.750000	98.00	0.26	0.09	0.75	0.75	2.00	1.75	5.75	3.25	2.00	5.25	5.25	3.00	2.25	2.50	6.00	4.75	0.50	1.25	-0.161621	0.097168	0.977539	-0.490000	-1.820000	2.870000	519.00	0.07	-0.08
0.26	0.00	0.00	0.00	0.00	0.00	0.00	0.50	0.50	2.25	1.00	0.75	0.00	1.25	3.00	0.25	0.00	-0.234863	0.080078	0.942871	-2.100000	5.950000	-1.540000	102.00	0.25	0.06	0.75	0.25	1.50	1.75	5.50	2.75	2.00	5.50	5.25	2.75	2.00	2.25	6.00	4.50	0.75	1.50	-0.169922	0.098145	0.977539	0.490000	-0.140000	3.010000	499.00	0.08	-0.08
0.27	0.00	0.00	0.00	0.00	0.00	0.00	0.50	0.25	2.25	1.00	0.75	0.00	1.25	3.25	0.25	0.00	-0.232422	0.083984	0.954590	-1.960000	5.950000	-1.260000	100.00	0.27	0.08	0.75	0.50	1.50	1.50	5.25	2.75	2.00	5.25	5.00	3.25	2.25	2.25	6.25	4.50	0.75	1.50	-0.163086	0.098633	0.980957	1.190000	1.470000	3.080000	498.00	0.08	-0.08
0.28	0.00	0.00	0.00	0.00	0.00	0.00	0.50	0.25	2.50	1.00	0.75	0.00	1.25	3.25	0.50	0.25	-0.232910	0.083008	0.957031	-1.470000	7.630000	-0.980000	107.00	0.27	0.08	0.75	0.25	1.50	1.25	5.00	2.50	2.00	5.25	5.00	3.25	2.25	2.50	6.25	4.75	0.50	1.50	-0.161133	0.100586	0.971680	2.030000	2.870000	2.940000	490.00	0.09	-0.08
0.29	0.00	0.00	0.00	0.00	0.00	0.00	0.50	0.25	2.75	1.00	1.00	0.00	1.00	3.50	0.50	0.25	-0.235840	0.079590	0.950684	0.070000	13.790000	-0.980000	113.00	0.27	0.09	0.75	0.50	1.25	1.50	4.50	2.50	1.75	5.25	5.00	3.25	2.50	2.75	6.25	4.50	0.75	1.50	-0.173340	0.103027	0.985352	2.450000	3.850000	3.010000	489.00	0.09	-0.09
0.30	0.00	0.00	0.00	0.00	0.00	0.00	0.50	0.50	3.00	1.25	1.00	0.00	1.00	3.50	0.50	0.25	-0.238770	0.083008	0.947754	0.070000	13.790000	-0.980000	123.00	0.26	0.08	0.75	0.25	1.25	1.25	4.25	2.00	1.75	5.25	5.00	3.50	2.75	2.75	6.25	4.50	0.75	1.50	-0.173340	0.099121	0.983398	2.730000	4.760000	3.010000	481.00	0.10	-0.09
0.31	0.00	0.00	0.00	0.00	0.00	0.00	0.50	0.00	2.75	1.25	1.25	0.00	1.25	3.75	0.25	0.25	-0.236816	0.082520	0.940918	1.750000	17.710001	-0.630000	116.00	0.28	0.10	0.50	0.50	0.75	0.75	3.50	1.75	1.50	5.00	5.00	3.25	2.50	2.50	6.25	4.75	0.75	1.50	-0.169922	0.105469	0.977051	2.870000	5.740000	2.870000	445.00	0.12	-0.09
0.32	0.00	0.00	0.00	0.00	0.00	0.00	0.50	0.25	3.50	1.25	1.25	0.00	1.25	3.75	0.50	0.25	-0.239258	0.083008	0.953613	2.310000	19.250000	-0.350000	133.00	0.27	0.09	0.50	0.00	0.75	1.00	3.00	1.50	1.50	5.00	5.00	3.50	2.50	2.75	6.25	4.75	0.75	1.50	-0.172363	0.109863	0.975586	3.220000	7.070000	2.940000	440.00	0.13	-0.09
0.33	0.00	0.00	0.00	0.00	0.00	0.00	0.25	0.00	3.75	1.50	1.25	0.00	1.00	4.00	0.50	0.25	-0.238281	0.083496	0.958496	3.080000	21.980000	0.070000	131.00	0.29	0.12	0.75	0.00	0.50	0.50	2.75	1.25	1.50	4.75	5.00	3.25	2.75	2.75	6.25	4.75	0.75	1.75	-0.181641	0.103027	0.964844	3.220000	7.070000	2.870000	427.00	0.14	-0.09
0.34	0.00	0.00	0.00	0.00	0.00	0.00	0.25	0.00	3.75	1.50	1.25	0.00	1.25	3.75	0.25	0.25	-0.248047	0.082031	0.947754	4.060000	25.410000	0.700000	128.00	0.28	0.11	0.00	0.00	0.50	0.25	2.00	0.75	1.25	4.75	5.00	3.50	3.00	3.00	6.75	5.00	0.75	1.50	-0.173340	0.105469	0.971191	3.150000	6.790000	3.080000	412.00	0.16	-0.10
0.35	0.00	0.00	0.00	0.00	0.00	0.00	0.25	0.00	3.50	1.50	1.25	0.00	1.00	3.75	0.25	0.25	-0.254883	0.076172	0.939941	4.760000	28.139999	1.330000	123.00	0.28	0.11	0.25	0.00	0.25	0.25	2.00	0.50	1.25	4.75	4.75	3.50	3.00	3.00	6.50	5.00	1.00	1.75	-0.178223	0.104004	0.967285	3.430000	7.000000	3.010000	407.00	0.17	-0.10
0.36	0.00	0.00	0.00	0.00	0.00	0.00	0.25	0.00	3.50	1.50	1.00	0.00	1.00	3.50	0.50	0.25	-0.252441	0.087402	0.946289	4.760000	29.540001	1.820000	121.00	0.29	0.11	0.25	0.00	0.00	0.00	1.50	0.25	1.25	4.25	5.00	3.75	3.50	3.00	6.50	5.25	0.75	1.75	-0.180176	0.106934	0.979492	3.570000	7.350000	3.080000	397.00	0.18	-0.09
0.37	0.00	0.00	0.00	0.00	0.00	0.00	0.25	0.00	4.00	1.50	1.50	0.00	1.00	4.00	0.25	0.25	-0.252930	0.091797	0.947754	4.270000	30.660000	1.960000	134.00	0.28	0.12	0.00	0.00	0.00	0.00	1.00	0.50	1.25	4.25	5.00	3.75	3.50	3.25	6.75	5.25	0.75	1.75	-0.183594	0.109375	0.971680	3.850000	7.560000	3.080000	396.00	0.19	-0.10
0.38	0.00	0.00	0.00	0.00	0.00	0.00	0.25	0.00	3.75	1.50	1.00	0.00	1.00	3.75	0.25	0.25	-0.264648	0.088867	0.938477	3.780000	31.010000	1.750000	123.00	0.29	0.12	0.00	0.00	0.00	0.00	1.00	0.25	1.25	4.00	5.00	4.00	3.75	3.50	7.00	5.50	1.00	1.75	-0.181152	0.112793	0.970215	3.920000	7.420000	2.940000	404.00	0.20	-0.09
0.39	0.00	0.00	0.00	0.00	0.00	0.00	0.25	0.00	3.75	1.25	1.25	0.00	0.75	3.75	0.25	0.25	-0.262207	0.087402	0.939453	3.080000	29.889999	1.470000	121.00	0.29	0.13	0.00	0.00	0.00	0.00	0.75	0.25	1.00	3.75	5.00	4.00	3.75	3.50	6.75	5.50	0.75	1.75	-0.191895	0.109863	0.965820	3.780000	6.440000	2.800000	389.00	0.20	-0.09
0.40	0.00	0.00	0.00	0.00	0.00	0.00	0.25	0.00	3.25	1.50	1.00	0.00	1.00	3.75	0.50	0.25	-0.268555	0.093750	0.931152	2.590000	26.880001	1.190000	120.00	0.29	0.11	0.00	0.00	0.00	0.00	0.50	0.25	1.00	3.75	5.00	4.25	4.25	3.75	7.00	5.75	0.75	1.75	-0.185059	0.109863	0.960449	3.290000	5.530000	2.520000	401.00	0.20	-0.09
0.41	0.00	0.00	0.00	0.00	0.00	0.00	0.00	0.00	3.50	1.50	1.00	0.00	1.00	3.75	0.50	0.25	-0.276367	0.094238	0.926758	1.540000	22.400000	0.840000	119.00	0.30	0.11	0.00	0.00	0.00	0.00	0.50	0.00	1.00	3.75	5.00	4.25	4.25	3.75	7.25	5.75	0.75	2.00	-0.187012	0.110840	0.962402	3.080000	4.620000	2.380000	402.00	0.21	-0.10
0.42	0.00	0.00	0.00	0.00	0.00	0.00	0.00	0.00	3.25	1.25	1.25	0.00	0.75	3.75	0.25	0.25	-0.270508	0.101562	0.919922	0.140000	16.799999	0.210000	111.00	0.30	0.12	0.00	0.00	0.00	0.00	0.50	0.00	1.00	3.75	5.00	4.25	4.25	4.00	7.50	5.75	0.75	1.75	-0.188477	0.110840	0.967773	2.520000	3.500000	2.450000	405.00	0.21	-0.10
0.43	0.00	0.00	0.00	0.00	0.00	0.00	0.00	0.00	3.25	1.25	1.50	0.00	0.75	3.75	0.50	0.25	-0.274414	0.094727	0.916992	-1.120000	10.150000	-0.280000	116.00	0.30	0.11	0.25	0.00	0.00	0.00	0.50	0.00	1.00	3.75	5.00	4.50	5.00	4.25	7.50	5.75	1.00	1.75	-0.194824	0.115234	0.965820	1.750000	2.310000	2.520000	424.00	0.21	-0.10
0.44	0.00	0.00	0.00	0.00	0.00	0.00	0.25	0.00	3.25	1.25	1.25	0.00	0.75	3.25	0.50	0.25	-0.270996	0.093262	0.924805	-2.310000	3.220000	-0.700000	113.00	0.29	0.11	0.00	0.00	0.00	0.00	0.25	0.00	1.00	3.75	5.50	4.25	5.25	4.50	7.50	5.75	0.75	1.75	-0.186523	0.119141	0.963379	1.190000	1.120000	2.450000	425.00	0.21	-0.10
0.45	0.00	0.00	0.00	0.00	0.00	0.00	0.25	0.00	3.50	1.25	1.25	0.00	0.75	3.75	0.50	0.25	-0.274902	0.096191	0.926270	-3.780000	-2.730000	-1.120000	121.00	0.29	0.12	0.00	0.00	0.00	0.00	0.25	0.00	1.00	3.50	5.25	4.75	6.00	4.50	7.50	6.00	0.75	1.75	-0.188965	0.122559	0.966797	0.630000	0.210000	2.170000	433.00	0.21	-0.09
0.46	0.00	0.00	0.00	0.00	0.00	0.00	0.25	0.00	2.75	1.25	1.00	0.00	1.00	3.25	0.25	0.25	-0.270996	0.091797	0.925781	-5.250000	-8.260000	-1.330000	104.00	0.28	0.10	0.00	0.00	0.00	0.00	0.25	0.00	1.00	3.50	5.50	4.50	6.25	4.50	7.75	6.00	1.00	2.00	-0.194336	0.109375	0.964355	0.070000	-0.420000	2.030000	443.00	0.22	-0.10
0.47	0.00	0.00	0.00	0.00	0.00	0.00	0.25	0.00	3.00	1.50	1.25	0.00	1.00	3.75	0.25	0.00	-0.263184	0.087402	0.932129	-6.510000	-13.720000	-1.120000	115.00	0.29	0.11	0.00	0.00	0.00	0.00	0.25	0.00	1.00	3.50	5.50	5.00	6.25	5.00	7.75	5.75	1.00	1.75	-0.194824	0.110352	0.962891	-0.140000	-1.190000	1.890000	450.00	0.21	-0.10
0.48	0.00	0.00	0.00	0.00	0.00	0.00	0.25	0.00	3.25	1.50	1.50	0.00	1.00	3.50	0.25	0.00	-0.266113	0.091797	0.937988	-7.560000	-17.990000	-0.980000	119.00	0.28	0.11	0.00	0.00	0.00	0.00	0.25	0.00	1.00	3.75	5.50	4.50	6.50	5.25	7.75	6.00	1.25	2.00	-0.197754	0.114746	0.963867	-0.280000	-1.820000	1.960000	460.00	0.21	-0.10
0.49	0.00	0.00	0.00	0.00	0.00	0.00	0.25	0.00	2.50	1.25	1.25	0.00	1.00	3.75	0.25	0.25	-0.248047	0.092773	0.942383	-8.330000	-19.809999	-1.190000	107.00	0.29	0.10	0.00	0.00	0.00	0.00	0.25	0.00	1.00	3.75	5.50	4.75	6.50	5.50	7.75	6.00	1.00	2.25	-0.187988	0.111328	0.961426	-0.280000	-2.030000	2.100000	464.00	0.21	-0.10
0.50	0.00	0.00	0.00	0.00	0.00	0.00	0.25	0.00	3.50	1.75	1.25	0.00	1.00	3.50	0.25	0.25	-0.250488	0.091309	0.949707	-8.540000	-16.799999	-1.750000	123.00	0.28	0.11	0.00	0.00	0.00	0.00	0.00	0.00	1.00	4.00	5.50	4.75	6.50	5.50	8.00	5.75	1.00	2.00	-0.195801	0.114258	0.965820	-0.000000	-1.540000	1.960000	463.00	0.21	-0.11
0.51	0.00	0.00	0.00	0.00	0.00	0.00	0.50	0.00	3.50	1.75	1.25	0.00	1.00	4.00	0.25	0.00	-0.250000	0.091309	0.957031	-8.540000	-16.799999	-1.750000	130.00	0.28	0.12	0.00	0.00	0.00	0.00	0.00	0.00	1.00	4.00	5.50	5.25	7.00	5.50	8.00	6.00	1.00	2.00	-0.195801	0.114258	0.965820	-0.000000	-1.540000	1.960000	476.00	0.21	-0.10
0.52	0.00	0.00	0.00	0.00	0.00	0.00	0.50	0.00	4.00	1.75	1.50	0.00	1.25	4.00	0.25	0.00	-0.238770	0.087402	0.957031	-7.070000	-10.500000	-2.170000	141.00	0.28	0.12	0.00	0.00	0.00	0.00	0.00	0.00	1.00	3.75	5.50	5.00	7.00	6.25	8.25	6.00	1.00	2.00	-0.190918	0.108887	0.969727	0.490000	0.070000	2.310000	480.00	0.22	-0.11
0.53	0.00	0.00	0.00	0.00	0.00	0.00	0.50	0.25	4.00	1.50	1.25	0.00	1.00	4.25	0.25	0.25	-0.237793	0.083496	0.955078	-6.020000	-7.350000	-2.100000	141.00	0.27	0.11	0.00	0.00	0.00	0.00	0.00	0.00	1.00	3.50	5.25	5.50	7.50	6.00	8.25	6.00	1.25	2.00	-0.193359	0.116211	0.969238	1.120000	1.260000	2.380000	483.00	0.22	-0.11
0.54	0.00	0.00	0.00	0.00	0.00	0.00	0.50	0.00	4.25	1.75	1.50	0.00	1.25	3.75	0.50	0.25	-0.243164	0.080566	0.956055	-4.970000	-3.990000	-2.170000	146.00	0.28	0.11	0.00	0.00	0.00	0.00	0.00	0.00	1.00	3.75	5.50	5.50	7.75	6.50	8.25	6.00	1.00	2.25	-0.197754	0.117188	0.973145	1.750000	2.380000	2.380000	497.00	0.22	-0.11
0.55	0.00	0.00	0.00	0.00	0.00	0.00	0.50	0.00	4.25	1.75	1.50	0.00	1.25	4.00	0.50	0.25	-0.233887	0.082031	0.956055	-3.920000	-0.560000	-1.890000	149.00	0.28	0.11	0.00	0.00	0.00	0.00	0.00	0.00	1.00	3.75	5.50	5.50	7.75	6.75	8.50	6.25	1.00	2.00	-0.195312	0.125488	0.969238	2.450000	3.990000	2.240000	502.00	0.22	-0.11
0.56	0.00	0.00	0.00	0.00	0.00	0.00	0.50	0.25	4.25	1.75	1.25	0.00	1.00	3.75	0.25	0.25	-0.237305	0.079590	0.948242	-3.010000	2.590000	-1.680000	143.00	0.27	0.11	0.00	0.00	0.00	0.00	0.00	0.00	0.75	3.50	5.25	5.25	7.75	7.00	8.50	6.00	1.00	2.00	-0.198730	0.117676	0.970703	3.080000	5.320000	2.100000	489.00	0.22	-0.11
0.57	0.00	0.00	0.00	0.00	0.00	0.00	0.50	0.25	4.00	1.75	1.50	0.00	1.25	4.25	0.25	0.25	-0.234863	0.082031	0.955566	-2.310000	5.180000	-1.330000	149.00	0.27	0.10	0.00	0.00	0.00	0.00	0.00	0.00	0.75	3.50	5.25	5.25	8.00	7.00	8.50	6.00	1.00	2.25	-0.197266	0.117676	0.972656	3.780000	5.880000	1.470000	493.00	0.22	-0.12
0.58	0.00	0.00	0.00	0.00	0.00	0.00	0.50	0.00	4.00	1.75	1.50	0.00	1.00	4.00	0.50	0.25	-0.234375	0.085449	0.954590	-1.540000	7.350000	-1.050000	143.00	0.28	0.12	0.00	0.00	0.00	0.00	0.00	0.00	0.75	3.50	5.25	5.75	8.00	7.50	8.50	6.00	1.00	2.00	-0.200684	0.123047	0.973145	4.270000	6.860000	1.260000	502.00	0.22	-0.11
0.59	0.00	0.00	0.00	0.00	0.00	0.00	0.50	0.00	4.25	1.75	1.25	0.00	1.25	4.00	0.25	0.25	-0.236816	0.078125	0.947266	-1.050000	9.450000	-0.980000	143.00	0.28	0.12	0.00	0.00	0.00	0.00	0.00	0.00	0.75	3.00	5.00	6.00	8.00	7.50	8.50	6.00	1.00	2.00	-0.199707	0.125977	0.968262	5.110000	9.170000	1.540000	494.00	0.22	-0.11
0.60	0.00	0.00	0.00	0.00	0.00	0.00	0.50	0.25	4.25	1.75	1.25	0.00	1.00	4.00	0.25	0.25	-0.238281	0.088379	0.951172	-0.630000	10.920000	-0.910000	145.00	0.27	0.11	0.00	0.00	0.00	0.00	0.00	0.00	0.75	3.00	5.25	5.75	8.50	7.75	8.50	6.00	1.00	2.25	-0.206055	0.129395	0.968262	6.650000	12.110000	1.610000	504.00	0.22	-0.11
0.61	0.00	0.00	0.00	0.00	0.00	0.00	0.50	0.00	4.25	1.75	1.25	0.00	1.00	4.00	0.25	0.25	-0.237793	0.088379	0.953613	-0.210000	12.320000	-1.050000	141.00	0.28	0.13	0.00	0.00	0.00	0.00	0.00	0.00	0.75	2.75	5.25	5.75	8.25	8.00	8.75	6.25	1.00	2.25	-0.215820	0.125488	0.964355	7.910000	15.120000	1.820000	504.00	0.22	-0.11
0.62	0.00	0.00	0.00	0.00	0.00	0.00	0.50	0.00	4.00	1.75	1.25	0.00	1.00	4.00	0.25	0.25	-0.241211	0.082031	0.942383	-0.070000	13.160000	-1.190000	138.00	0.28	0.13	0.00	0.00	0.00	0.00	0.00	0.00	0.50	3.00	4.75	5.50	8.25	8.00	8.75	6.00	0.75	2.25	-0.207031	0.124023	0.965820	8.680000	17.430000	2.240000	491.00	0.22	-0.12
0.63	0.00	0.00	0.00	0.00	0.00	0.00	0.50	0.00	3.75	1.50	1.25	0.00	1.25	3.75	0.25	0.25	-0.238281	0.086914	0.947266	0.070000	12.600000	-1.190000	132.00	0.28	0.11	0.00	0.00	0.00	0.00	0.00	0.00	0.50	2.50	5.00	5.25	8.25	8.00	8.75	6.00	1.00	2.25	-0.216797	0.124512	0.966797	8.610000	17.920000	2.590000	486.00	0.23	-0.12
0.64	0.00	0.00	0.00	0.00	0.00	0.00	0.50	0.00	3.75	1.75	1.25	0.00	1.00	3.75	0.25	0.25	-0.243652	0.083496	0.942871	-0.280000	11.340000	-0.980000	132.00	0.28	0.12	0.00	0.00	0.00	0.00	0.00	0.00	0.50	2.25	5.00	5.50	8.50	8.00	8.75	6.00	1.00	2.25	-0.212891	0.122070	0.955078	7.980000	17.850000	2.940000	488.00	0.23	-0.11
0.65	0.00	0.00	0.00	0.00	0.00	0.00	0.50	0.25	4.00	1.75	1.25	0.00	1.00	3.75	0.25	0.25	-0.242676	0.085938	0.939453	-1.050000	9.450000	-0.980000	140.00	0.27	0.11	0.00	0.00	0.00	0.00	0.00	0.00	0.50	2.25	5.00	5.50	8.50	8.00	8.75	6.00	1.00	2.25	-0.220215	0.135742	0.956543	6.860000	17.010000	3.150000	488.00	0.23	-0.11
0.66	0.00	0.00	0.00	0.00	0.00	0.00	0.50	0.00	3.75	1.50	1.25	0.00	1.00	4.00	0.50	0.25	-0.238770	0.081055	0.939941	-2.100000	6.790000	-1.050000	135.00	0.28	0.12	0.00	0.00	0.00	0.00	0.00	0.00	0.50	2.25	5.00	5.25	8.75	8.00	8.50	5.75	1.00	2.25	-0.221680	0.141113	0.955566	5.250000	15.190001	3.430000	483.00	0.23	-0.12
0.67	0.00	0.00	0.00	0.00	0.00	0.00	0.50	0.00	3.75	1.50	1.00	0.00	0.75	4.00	0.25	0.25	-0.241211	0.084961	0.941406	-3.080000	3.500000	-1.050000	127.00	0.28	0.14	0.00	0.00	0.00	0.00	0.00	0.00	0.50	2.25	4.75	5.25	8.50	8.00	8.75	5.75	0.75	2.25	-0.227051	0.133789	0.942383	4.060000	12.250000	3.150000	477.00	0.23	-0.12
0.68	0.00	0.00	0.00	0.00	0.00	0.00	0.50	0.00	3.75	1.50	1.00	0.00	1.00	4.00	0.50	0.25	-0.240723	0.081055	0.942871	-4.200000	0.140000	-0.910000	132.00	0.28	0.12	0.00	0.00	0.00	0.00	0.00	0.00	0.50	2.00	4.75	5.25	8.75	8.00	8.75	6.00	0.75	2.25	-0.224121	0.143555	0.938965	2.380000	8.680000	2.800000	478.00	0.23	-0.12
0.69	0.00	0.00	0.00	0.00	0.00	0.00	0.50	0.00	3.75	1.50	1.00	0.00	1.00	3.50	0.25	0.25	-0.237305	0.083008	0.940918	-5.250000	-3.640000	-0.630000	125.00	0.28	0.13	0.00	0.00	0.00	0.00	0.00	0.00	0.50	2.00	5.00	5.50	8.75	8.00	8.75	6.00	0.75	2.25	-0.228516	0.137207	0.944824	0.630000	5.040000	2.520000	484.00	0.23	-0.11
0.70	0.00	0.00	0.00	0.00	0.00	0.00	0.50	0.25	3.75	1.50	1.00	0.00	0.75	4.00	0.50	0.25	-0.239746	0.080078	0.942871	-6.160000	-6.090000	-0.560000	134.00	0.28	0.12	0.00	0.00	0.00	0.00	0.00	0.00	0.50	2.00	4.75	5.50	8.75	8.25	8.75	5.75	0.75	2.25	-0.226562	0.140625	0.937500	-1.120000	1.400000	2.030000	481.00	0.23	-0.12
0.71	0.00	0.00	0.00	0.00	0.00	0.00	0.50	0.25	3.50	1.25	1.25	0.00	1.00	4.00	0.25	0.25	-0.235840	0.084473	0.937500	-6.580000	-7.490000	-0.630000	130.00	0.27	0.10	0.00	0.00	0.00	0.00	0.00	0.00	0.50	2.00	4.75	5.50	8.50	8.25	8.75	6.00	1.00	2.00	-0.233887	0.134766	0.941406	-2.940000	-2.940000	1.610000	482.00	0.23	-0.12
0.72	0.00	0.00	0.00	0.00	0.00	0.00	0.75	0.25	3.75	1.75	1.00	0.00	1.00	4.00	0.25	0.25	-0.233398	0.080078	0.948730	-6.720000	-7.630000	-0.280000	140.00	0.27	0.12	0.00	0.00	0.00	0.00	0.00	0.00	0.50	1.75	5.00	5.50	8.75	8.25	8.75	6.00	1.00	2.25	-0.229004	0.138184	0.941895	-5.880000	-11.550000	1.960000	485.00	0.23	-0.11
0.73	0.00	0.00	0.00	0.00	0.25	0.00	0.75	0.25	3.75	1.50	1.25	0.00	1.25	4.00	0.25	0.25	-0.227539	0.075684	0.948242	-6.650000	-7.070000	-0.140000	145.00	0.26	0.10	0.00	0.00	0.00	0.00	0.00	0.00	0.50	2.00	5.00	5.50	8.75	8.25	8.75	5.75	1.00	2.25	-0.228516	0.128418	0.939941	-6.930000	-15.330000	2.240000	487.00	0.23	-0.11
0.74	0.00	0.00	0.00	0.00	0.50	0.00	0.75	0.25	4.00	2.00	1.00	0.00	1.25	4.00	0.25	0.25	-0.223145	0.072754	0.951660	-6.510000	-5.810000	-0.140000	153.00	0.25	0.11	0.00	0.00	0.00	0.00	0.00	0.00	0.50	1.75	4.75	6.25	8.75	8.25	8.75	6.00	1.00	2.25	-0.221680	0.128418	0.950684	-7.840000	-18.200001	2.590000	490.00	0.23	-0.11
0.75	0.00	0.00	0.25	0.00	0.50	0.00	0.75	0.50	4.00	1.75	1.25	0.00	1.25	3.50	0.25	0.25	-0.223145	0.078613	0.956543	-6.300000	-4.340000	-0.350000	155.00	0.23	0.09	0.00	0.00	0.00	0.00	0.00	0.00	0.50	2.25	5.00	6.00	9.00	8.50	8.75	6.00	1.00	2.25	-0.220215	0.138184	0.955566	-8.680000	-20.020000	2.870000	503.00	0.23	-0.11
0.76	0.00	0.00	0.50	0.00	0.75	0.00	0.75	0.50	4.00	1.75	1.25	0.00	1.25	3.75	0.25	0.25	-0.220703	0.072754	0.953125	-5.950000	-3.290000	-0.420000	163.00	0.22	0.09	0.00	0.00	0.00	0.00	0.00	0.00	0.50	2.25	5.00	6.25	9.00	8.50	9.00	6.00	1.25	2.25	-0.220215	0.129883	0.954102	-9.240000	-21.000000	2.520000	511.00	0.23	-0.12
0.77	0.00	0.00	0.50	0.00	1.00	0.00	1.00	0.50	4.00	1.50	1.00	0.00	1.25	4.00	0.50	0.25	-0.223145	0.073242	0.952637	-5.180000	-1.750000	-0.490000	169.00	0.21	0.10	0.00	0.00	0.00	0.00	0.00	0.00	0.75	2.75	5.00	6.25	9.00	8.50	9.00	6.00	1.00	2.25	-0.222656	0.135254	0.964844	-9.380000	-20.299999	2.170000	520.00	0.22	-0.12
0.78	0.00	0.00	0.50	0.00	0.75	0.00	1.00	0.50	4.00	2.00	1.25	0.00	1.25	3.75	0.50	0.25	-0.225098	0.069824	0.958984	-4.340000	0.070000	-0.560000	172.00	0.22	0.09	0.00	0.00	0.00	0.00	0.00	0.00	0.75	2.75	5.25	6.50	9.00	8.50	9.00	6.00	1.00	2.50	-0.212402	0.130859	0.964844	-9.170000	-18.480000	1.890000	527.00	0.22	-0.11
0.79	0.00	0.00	0.50	0.00	0.75	0.00	1.00	0.75	4.25	1.75	1.50	0.00	1.25	4.00	0.50	0.25	-0.218750	0.073242	0.957520	-3.430000	2.380000	-0.840000	181.00	0.22	0.08	0.00	0.00	0.00	0.00	0.00	0.00	0.75	2.75	5.25	6.75	9.25	8.50	9.25	6.25	1.00	2.50	-0.212402	0.132324	0.968750	-8.470000	-16.100000	1.330000	536.00	0.22	-0.11
0.80	0.00	0.00	0.50	0.00	1.00	0.00	1.00	0.75	4.25	2.00	1.25	0.00	1.50	4.00	0.50	0.25	-0.221680	0.070312	0.956543	-2.310000	4.480000	-0.840000	186.00	0.21	0.08	0.00	0.00	0.00	0.00	0.00	0.00	0.50	2.75	5.25	6.75	9.25	8.50	9.00	6.25	1.00	2.50	-0.213867	0.123535	0.969238	-7.280000	-13.300000	0.980000	530.00	0.23	-0.11
0.81	0.00	0.00	0.50	0.00	1.00	0.00	1.00	0.75	4.50	1.75	1.50	0.00	1.25	3.75	0.50	0.25	-0.211914	0.067383	0.960938	-1.470000	6.860000	-0.980000	185.00	0.21	0.08	0.00	0.00	0.00	0.00	0.00	0.00	0.75	2.75	5.25	6.50	9.25	8.50	9.00	6.25	1.00	2.25	-0.215332	0.125000	0.969727	-5.810000	-10.500000	0.840000	530.00	0.22	-0.11
0.82	0.00	0.00	0.25	0.00	1.00	0.00	1.00	0.50	4.25	2.00	1.25	0.00	1.25	3.75	0.50	0.25	-0.209473	0.067871	0.958984	-0.630000	8.960000	-0.980000	175.00	0.22	0.09	0.25	0.00	0.00	0.00	0.00	0.00	0.75	3.00	5.25	6.75	9.00	8.50	9.00	6.00	1.00	2.25	-0.212402	0.120605	0.972168	-4.480000	-7.700000	1.190000	534.00	0.22	-0.11
0.83	0.00	0.00	0.25	0.00	0.75	0.00	1.00	0.50	4.50	2.25	1.50	0.00	1.50	3.75	0.50	0.25	-0.214844	0.077148	0.958496	0.350000	10.430000	-0.980000	183.00	0.23	0.09	0.00	0.00	0.00	0.00	0.00	0.00	0.75	3.00	5.25	6.75	9.00	8.50	9.00	6.25	0.75	2.50	-0.205566	0.122070	0.973633	-3.290000	-5.040000	1.470000	533.00	0.22	-0.11
0.84	0.00	0.00	0.25	0.00	0.50	0.00	1.00	0.50	4.25	2.00	1.50	0.00	1.50	3.75	0.50	0.00	-0.214355	0.070801	0.955566	0.770000	12.180000	-1.470000	173.00	0.23	0.09	0.00	0.00	0.00	0.00	0.00	0.00	0.75	2.75	5.25	6.50	9.00	8.50	9.00	6.00	1.00	2.25	-0.209473	0.121582	0.974609	-2.240000	-2.660000	1.820000	525.00	0.22	-0.11
0.85	0.00	0.00	0.25	0.00	0.25	0.00	0.75	0.50	4.25	2.00	1.50	0.00	1.25	3.75	0.50	0.25	-0.216797	0.078613	0.956543	1.050000	13.230000	-1.470000	166.00	0.24	0.09	0.00	0.00	0.00	0.00	0.00	0.00	0.75	2.75	5.00	6.25	9.00	8.50	9.00	6.00	1.00	2.25	-0.201172	0.127441	0.965332	-1.190000	-0.700000	2.170000	520.00	0.22	-0.12
0.86	0.00	0.00	0.00	0.00	0.50	0.00	0.75	0.50	4.25	2.00	1.25	0.00	1.25	4.00	0.50	0.25	-0.220703	0.077637	0.947754	1.330000	13.440001	-1.470000	165.00	0.25	0.09	0.00	0.00	0.00	0.00	0.00	0.00	0.75	2.50	5.00	6.50	8.75	8.50	9.00	5.75	1.00	2.25	-0.209961	0.124512	0.964844	-0.560000	0.770000	2.380000	514.00	0.22	-0.11
0.87	0.00	0.00	0.25	0.00	0.25	0.00	0.75	0.50	4.50	2.00	1.25	0.00	1.50	3.75	0.50	0.25	-0.224609	0.073242	0.947266	1.330000	13.790000	-1.610000	169.00	0.24	0.09	0.00	0.00	0.00	0.00	0.00	0.00	0.50	2.50	5.00	6.25	9.00	8.25	9.00	6.00	1.00	2.25	-0.209473	0.128418	0.965820	-0.140000	1.470000	2.450000	509.00	0.23	-0.12
0.88	0.00	0.00	0.00	0.00	0.25	0.00	0.75	0.50	4.50	2.00	1.50	0.00	1.25	4.00	0.50	0.25	-0.218262	0.074707	0.951660	1.190000	13.860000	-1.540000	169.00	0.25	0.09	0.00	0.00	0.00	0.00	0.00	0.00	0.50	2.75	4.75	6.25	8.75	8.25	8.75	5.75	0.75	2.25	-0.203125	0.127930	0.960938	-0.350000	1.400000	2.380000	500.00	0.22	-0.12
0.89	0.00	0.00	0.00	0.00	0.25	0.00	0.75	0.25	4.25	2.00	1.25	0.00	1.25	4.00	0.25	0.25	-0.227051	0.079590	0.954102	1.050000	14.490000	-1.610000	156.00	0.26	0.11	0.00	0.00	0.00	0.00	0.00	0.00	0.50	2.75	4.25	5.75	8.75	8.25	8.75	5.75	0.75	2.25	-0.210449	0.127930	0.956055	-0.840000	0.490000	2.170000	489.00	0.22	-0.13
0.90	0.00	0.00	0.25	0.00	0.25	0.00	0.75	0.25	4.50	2.00	1.25	0.00	1.50	4.25	0.25	0.25	-0.225586	0.077148	0.951660	0.630000	14.490000	-1.610000	167.00	0.25	0.10	0.00	0.00	0.00	0.00	0.00	0.00	0.50	2.50	4.50	5.75	8.50	8.25	8.75	5.75	1.00	2.00	-0.213379	0.126953	0.958008	-1.680000	-1.190000	2.240000	487.00	0.22	-0.12
0.91	0.00	0.00	0.00	0.00	0.25	0.00	0.75	0.25	4.00	2.00	1.50	0.00	1.25	4.25	0.50	0.25	-0.229492	0.078613	0.952148	0.210000	13.720000	-1.400000	160.00	0.26	0.10	0.00	0.00	0.00	0.00	0.00	0.00	0.50	2.75	4.50	5.50	8.50	8.00	8.75	5.50	0.75	2.00	-0.208984	0.134277	0.951660	-3.150000	-3.640000	1.960000	481.00	0.22	-0.13
0.92	0.00	0.00	0.00	0.00	0.25	0.00	0.75	0.25	4.50	2.00	1.25	0.00	1.25	4.25	0.25	0.25	-0.235352	0.080566	0.944336	-0.490000	12.110000	-0.980000	162.00	0.26	0.11	0.00	0.00	0.00	0.00	0.00	0.00	0.50	2.75	4.25	5.50	8.50	8.00	8.50	5.25	0.75	2.25	-0.209961	0.131836	0.956543	-6.510000	-10.500000	1.680000	474.00	0.22	-0.13
0.93	0.00	0.00	0.00	0.00	0.00	0.00	0.75	0.25	4.25	2.25	1.00	0.00	1.00	4.00	0.50	0.25	-0.225586	0.082520	0.942383	-1.400000	8.540000	-1.120000	154.00	0.27	0.12	0.00	0.00	0.00	0.00	0.00	0.00	0.50	2.75	4.25	5.25	8.25	8.00	8.50	5.25	0.75	2.00	-0.215820	0.129883	0.953613	-8.330000	-14.280000	1.610000	468.00	0.22	-0.13
0.94	0.00	0.00	0.00	0.00	0.25	0.00	0.50	0.25	4.75	2.00	1.25	0.00	1.00	4.25	0.25	0.25	-0.227539	0.083496	0.947266	-1.820000	7.210000	-1.610000	159.00	0.26	0.12	0.00	0.00	0.00	0.00	0.00	0.00	0.75	2.75	4.25	5.25	8.00	8.00	8.50	5.25	0.75	2.00	-0.216797	0.125488	0.955078	-9.870000	-17.360001	1.400000	469.00	0.22	-0.13
0.95	0.00	0.00	0.25	0.00	0.00	0.00	0.75	0.25	4.50	2.00	1.25	0.00	1.00	4.00	0.50	0.25	-0.236816	0.075684	0.942871	-2.170000	5.740000	-1.890000	160.00	0.26	0.12	0.00	0.00	0.00	0.00	0.00	0.00	0.75	3.00	3.75	5.00	8.00	7.75	8.50	5.25	0.50	2.00	-0.208496	0.125977	0.968262	-10.500000	-18.900000	1.400000	458.00	0.21	-0.14
0.96	0.00	0.00	0.00	0.00	0.00	0.00	0.75	0.25	4.75	1.75	1.25	0.00	1.00	4.00	0.50	0.25	-0.231445	0.079102	0.942871	-2.590000	4.550000	-1.960000	158.00	0.27	0.12	0.00	0.00	0.00	0.00	0.00	0.00	0.75	3.25	3.75	4.25	7.75	7.75	8.50	5.00	0.75	1.75	-0.207031	0.117676	0.959961	-10.640000	-19.809999	1.820000	451.00	0.21	-0.14
0.97	0.00	0.00	0.25	0.00	0.25	0.00	0.75	0.25	4.75	2.00	1.25	0.00	1.00	4.00	0.50	0.25	-0.230469	0.080566	0.947266	-3.080000	3.570000	-1.890000	166.00	0.25	0.12	0.00	0.00	0.00	0.00	0.00	0.00	0.75	3.25	3.75	4.25	7.75	7.50	8.25	4.75	0.50	1.75	-0.211426	0.115234	0.959961	-10.220000	-20.719999	2.520000	441.00	0.21	-0.14
0.98	0.00	0.00	0.25	0.00	0.25	0.00	0.75	0.00	4.50	1.75	1.25	0.00	1.00	3.75	0.25	0.25	-0.233398	0.072266	0.952637	-3.360000	3.220000	-1.680000	152.00	0.25	0.13	0.00	0.00	0.00	0.00	0.00	0.00	0.75	3.50	3.50	4.00	7.50	7.50	8.25	4.50	0.50	1.75	-0.192871	0.124512	0.962402	-9.590000	-21.559999	2.870000	434.00	0.21	-0.15
0.99	0.00	0.00	0.25	0.00	0.25	0.00	0.75	0.25	4.50	1.50	1.25	0.00	0.75	4.25	0.25	0.25	-0.230469	0.078613	0.956055	-3.430000	3.430000	-1.540000	155.00	0.25	0.13	0.00	0.00	0.00	0.00	0.00	0.00	0.75	3.75	3.50	4.00	7.25	7.25	8.25	4.50	0.50	1.75	-0.186035	0.125488	0.968262	-8.960000	-21.629999	2.590000	433.00	0.20	-0.15
1.00	0.00	0.00	0.25	0.00	0.25	0.00	0.75	0.25	4.50	1.75	1.00	0.00	0.75	4.00	0.25	0.00	-0.229492	0.079102	0.955566	-3.500000	3.850000	-1.470000	151.00	0.25	0.14	0.00	0.00	0.00	0.00	0.25	0.00	1.00	4.25	3.50	3.50	6.75	7.00	8.00	4.25	0.50	1.75	-0.181641	0.122559	0.973633	-8.260000	-20.580000	1.960000	430.00	0.20	-0.15
1.01	0.00	0.00	0.25	0.00	0.25	0.00	0.75	0.25	4.25	1.50	1.00	0.00	0.75	3.75	0.25	0.00	-0.232422	0.077148	0.959473	-3.500000	3.570000	-1.120000	143.00	0.25	0.13	0.00	0.00	0.00	0.00	0.25	0.00	1.00	4.75	3.50	3.25	6.75	7.00	8.00	4.00	0.50	1.75	-0.182617	0.127441	0.971680	-7.910000	-18.340000	1.260000	433.00	0.19	-0.16
1.02	0.00	0.00	0.00	0.00	0.50	0.00	0.75	0.25	4.00	1.25	0.50	0.00	0.75	3.75	0.25	0.00	-0.228516	0.080078	0.948730	-3.710000	3.430000	-0.700000	132.00	0.25	0.14	0.00	0.00	0.00	0.00	0.50	0.00	1.00	4.75	3.50	3.25	6.25	6.75	8.00	4.50	0.75	1.50	-0.184082	0.117188	0.971680	-7.630000	-16.309999	0.700000	433.00	0.19	-0.15
1.03	0.00	0.00	0.00	0.00	0.50	0.00	0.75	0.25	3.75	1.25	0.50	0.00	0.75	3.50	0.25	0.00	-0.230469	0.076172	0.950684	-3.850000	3.290000	-0.420000	127.00	0.25	0.14	0.00	0.00	0.00	0.00	0.75	0.25	1.00	5.00	3.25	3.75	6.50	6.75	8.00	4.25	0.50	1.75	-0.171875	0.117188	0.981934	-6.790000	-14.140000	0.350000	443.00	0.18	-0.16
1.04	0.00	0.00	0.25	0.00	0.50	0.00	0.75	0.00	3.50	1.25	0.50	0.00	0.75	3.50	0.00	0.00	-0.227051	0.078613	0.946777	-4.130000	3.430000	-0.560000	120.00	0.24	0.15	0.00	0.00	0.25	0.50	0.75	0.25	1.00	5.25	3.25	3.50	6.50	6.50	8.00	4.00	0.50	1.75	-0.174316	0.112305	0.979980	-5.810000	-11.410000	-0.070000	448.00	0.17	-0.16
1.05	0.00	0.00	0.25	0.00	0.50	0.00	0.75	0.25	3.00	1.00	0.50	0.00	0.50	3.00	0.25	0.00	-0.292969	0.039551	0.962891	-3.850000	2.380000	-0.210000	111.00	0.23	0.14	0.00	0.00	0.25	0.25	0.75	0.00	1.00	5.25	3.50	3.50	6.25	6.75	8.00	3.75	0.75	1.75	-0.181152	0.110352	0.979004	-4.760000	-8.750000	0.070000	446.00	0.18	-0.16
1.06	0.00	0.00	0.50	0.00	0.75	0.00	0.75	0.00	3.00	0.75	0.50	0.00	0.50	3.00	0.25	0.25	-0.229004	0.078125	0.952637	-3.850000	1.610000	-0.630000	111.00	0.22	0.15	0.00	0.00	0.00	0.00	0.75	0.50	1.00	5.25	3.50	3.75	6.25	6.75	8.00	4.25	0.50	1.75	-0.175781	0.112793	0.990723	-3.780000	-5.880000	0.630000	451.00	0.18	-0.16
1.07	0.00	0.00	0.50	0.00	0.75	0.00	0.75	0.25	3.00	1.00	0.25	0.00	0.75	3.25	0.00	0.00	-0.210449	0.066895	0.947754	-4.060000	1.120000	-0.840000	115.00	0.21	0.13	0.00	0.00	0.00	0.25	0.75	0.25	1.00	5.50	3.25	3.25	6.25	6.50	8.00	4.00	0.50	1.50	-0.178223	0.107910	0.983398	-2.660000	-2.940000	1.120000	440.00	0.17	-0.17
1.08	0.00	0.25	0.75	0.00	1.00	0.00	0.75	0.00	2.75	0.50	0.25	0.00	0.50	3.00	0.50	0.00	-0.220215	0.076172	0.947266	-4.130000	0.980000	-1.260000	112.00	0.19	0.14	0.25	0.00	0.00	0.00	0.75	0.25	1.00	5.25	3.25	3.25	5.75	6.50	8.00	4.00	0.75	1.75	-0.179688	0.108887	0.987305	-1.540000	-0.490000	1.890000	435.00	0.18	-0.16
1.09	0.00	0.00	0.75	0.00	1.00	0.00	0.75	0.25	2.75	0.75	0.00	0.00	0.50	2.50	0.25	0.00	-0.216309	0.071289	0.951660	-4.200000	0.350000	-1.540000	107.00	0.18	0.14	0.00	0.00	0.00	0.00	0.75	0.00	1.00	5.25	3.25	3.00	6.00	6.25	8.00	4.00	0.75	1.75	-0.184570	0.111328	0.974121	-0.700000	1.470000	2.660000	427.00	0.18	-0.16
1.10	0.00	0.00	1.00	0.00	1.00	0.00	0.75	0.25	2.50	0.50	0.25	0.00	0.50	2.50	0.00	0.00	-0.216797	0.077637	0.956543	-3.990000	0.980000	-1.890000	103.00	0.16	0.13	0.00	0.00	0.00	0.00	0.50	0.00	1.00	5.00	3.00	3.25	5.50	6.25	8.00	3.75	0.50	1.50	-0.182129	0.116211	0.977539	-0.000000	3.080000	3.010000	408.00	0.18	-0.17
1.11	0.00	0.00	1.00	0.00	1.25	0.00	0.75	0.00	2.50	0.50	0.00	0.00	0.25	2.50	0.00	0.00	-0.219727	0.074219	0.955566	-3.570000	2.170000	-2.240000	98.00	0.15	0.17	0.00	0.00	0.00	0.00	0.25	0.25	1.00	5.00	3.00	3.00	5.50	6.25	8.00	3.75	0.50	1.50	-0.186035	0.111816	0.969238	0.140000	4.270000	3.080000	406.00	0.18	-0.17
1.12	0.25	0.00	1.00	0.25	1.25	0.00	0.75	0.25	2.50	0.75	0.25	0.00	0.50	2.75	0.25	0.00	-0.221680	0.074707	0.954102	-3.220000	3.640000	-2.100000	119.00	0.14	0.12	0.00	0.00	0.00	0.00	0.50	0.00	1.00	5.00	3.00	2.50	5.25	6.50	7.75	3.50	0.50	1.25	-0.180664	0.118652	0.964355	-0.070000	4.130000	3.010000	395.00	0.18	-0.17
1.13	0.00	0.25	1.25	0.25	1.25	0.00	0.75	0.25	2.00	0.50	0.00	0.00	0.75	2.50	0.25	0.00	-0.217285	0.069336	0.951660	-2.800000	4.690000	-1.890000	110.00	0.12	0.10	0.00	0.00	0.00	0.00	0.25	0.00	0.75	4.50	2.75	2.75	5.25	6.25	7.75	3.75	0.75	1.50	-0.188965	0.112305	0.965820	-0.350000	3.290000	2.660000	383.00	0.19	-0.17
1.14	0.00	0.00	0.75	0.00	1.25	0.00	0.75	0.00	2.00	0.25	0.25	0.00	0.25	2.50	0.25	0.00	-0.214355	0.069824	0.954102	-1.960000	6.650000	-1.540000	91.00	0.17	0.15	0.00	0.00	0.00	0.00	0.00	0.00	0.75	4.75	2.75	2.50	5.25	6.25	7.75	3.50	0.75	1.25	-0.193848	0.124023	0.966309	-0.840000	1.960000	2.380000	378.00	0.19	-0.18
1.15	0.25	0.00	1.00	0.25	1.25	0.00	0.75	0.25	2.00	0.50	0.00	0.00	0.50	2.25	0.25	0.00	-0.218750	0.074219	0.949219	-1.470000	7.420000	-1.400000	103.00	0.12	0.11	0.00	0.00	0.00	0.00	0.25	0.00	0.75	4.50	2.75	2.50	5.00	5.75	7.75	3.50	0.50	1.50	-0.189941	0.120117	0.957031	-1.400000	0.210000	2.170000	368.00	0.19	-0.18
1.16	0.00	0.00	1.00	0.00	1.00	0.00	0.75	0.25	1.75	0.25	0.25	0.00	0.25	2.50	0.25	0.00	-0.229004	0.071777	0.953613	-1.190000	7.630000	-0.980000	91.00	0.15	0.13	0.00	0.00	0.00	0.00	0.25	0.00	0.75	4.50	2.75	2.50	4.75	5.75	7.75	3.25	0.50	1.50	-0.184082	0.122559	0.956055	-2.170000	-1.750000	1.960000	363.00	0.18	-0.18
1.17	0.00	0.00	1.25	0.00	1.25	0.00	0.75	0.25	1.75	0.25	0.00	0.00	0.00	2.25	0.25	0.00	-0.216797	0.073242	0.951660	-1.050000	7.630000	-0.840000	90.00	0.12	0.14	0.00	0.00	0.00	0.00	0.25	0.00	0.75	4.25	2.75	2.00	4.75	5.75	7.50	3.50	0.50	1.50	-0.192383	0.123047	0.957520	-3.010000	-3.780000	1.820000	354.00	0.19	-0.18
1.18	0.00	0.00	1.25	0.50	1.25	0.00	0.75	0.25	1.75	0.25	0.00	0.00	0.25	2.00	0.00	0.00	-0.223145	0.072266	0.949219	-1.120000	7.490000	-0.630000	93.00	0.08	0.11	0.00	0.00	0.25	0.00	0.50	0.00	0.75	4.25	2.50	2.00	4.50	5.50	7.75	3.25	0.25	1.50	-0.192871	0.117676	0.960449	-3.570000	-5.950000	1.470000	349.00	0.18	-0.18
1.19	0.00	0.00	1.00	0.00	1.25	0.00	0.75	0.25	1.75	0.25	0.00	0.00	0.25	2.50	0.00	0.00	-0.205566	0.068359	0.960938	-1.120000	7.140000	-0.420000	89.00	0.13	0.14	0.00	0.00	0.00	0.00	0.25	0.00	0.75	4.50	2.50	2.50	4.50	5.50	7.75	3.25	0.50	1.50	-0.187500	0.113770	0.966309	-3.850000	-7.980000	1.400000	355.00	0.18	-0.18
1.20	0.00	0.00	1.25	0.25	1.25	0.00	0.75	0.25	1.25	0.00	0.00	0.00	0.00	2.00	0.00	0.00	-0.214355	0.073242	0.954102	-1.260000	6.930000	-0.700000	79.00	0.07	0.13	0.00	0.00	0.00	0.00	0.50	0.00	1.00	4.75	2.25	2.25	4.25	5.50	7.75	3.25	0.50	1.25	-0.186523	0.114746	0.967285	-4.060000	-9.310000	1.960000	355.00	0.18	-0.18
1.21	0.25	0.25	1.25	0.50	1.25	0.00	0.75	0.25	1.25	0.25	0.00	0.00	0.25	2.25	0.00	0.00	-0.206543	0.047852	0.954590	-1.470000	6.720000	-0.770000	93.00	0.05	0.10	0.00	0.00	0.00	0.00	0.50	0.25	1.00	5.00	2.50	2.25	4.50	5.50	7.75	3.50	0.50	1.25	-0.187500	0.118652	0.968750	-4.340000	-9.940000	2.100000	370.00	0.17	-0.18
1.22	0.25	0.00	1.50	0.25	1.25	0.00	0.75	0.25	1.25	0.00	0.00	0.00	0.25	1.50	0.00	0.00	-0.217773	0.073242	0.950684	-1.680000	5.880000	-1.050000	82.00	0.03	0.11	0.00	0.00	0.00	0.00	0.50	0.25	1.00	5.00	2.50	2.25	4.00	5.50	7.75	3.25	0.50	1.50	-0.185059	0.118652	0.974121	-4.550000	-10.290000	1.750000	364.00	0.17	-0.18
1.23	0.25	0.25	1.25	0.25	1.50	0.00	0.75	0.00	1.25	0.00	0.00	0.00	0.25	2.25	0.00	0.00	-0.219238	0.073242	0.954102	-2.030000	4.830000	-1.120000	87.00	0.06	0.13	0.00	0.00	0.00	0.00	0.50	0.25	1.00	5.25	2.75	2.25	4.25	5.25	7.75	3.50	0.75	1.25	-0.178711	0.122559	0.974121	-4.900000	-10.290000	1.610000	374.00	0.17	-0.18
1.24	0.25	0.00	1.50	0.50	1.50	0.00	0.75	0.25	1.25	0.00	0.00	0.00	0.25	2.50	0.00	0.00	-0.214844	0.078125	0.952148	-2.240000	3.990000	-1.400000	96.00	0.05	0.10	0.00	0.00	0.00	0.25	0.75	0.25	1.00	5.50	2.50	2.00	4.00	5.25	7.75	3.25	0.25	1.25	-0.180664	0.117188	0.977539	-4.830000	-10.430000	1.750000	368.00	0.16	-0.19
1.25	0.00	0.00	1.25	0.25	1.25	0.00	0.75	0.25	1.00	0.00	0.00	0.00	0.25	2.00	0.00	0.00	-0.219727	0.073730	0.953613	-2.450000	3.850000	-1.610000	78.00	0.07	0.11	0.00	0.00	0.00	0.25	1.00	1.25	1.00	5.50	2.75	2.00	4.00	5.25	7.75	3.25	0.50	1.50	-0.177246	0.110840	0.974609	-4.760000	-10.430000	1.750000	389.00	0.15	-0.18
1.26	0.25	0.25	1.50	0.75	1.50	0.00	0.75	0.25	1.25	0.00	0.00	0.00	0.25	1.75	0.00	0.00	-0.213379	0.076660	0.958008	-2.590000	3.500000	-1.890000	95.00	0.01	0.08	0.00	0.00	0.00	0.50	1.00	0.75	1.00	5.75	2.50	2.00	3.75	5.00	7.75	3.25	0.50	1.50	-0.183594	0.116211	0.975586	-4.760000	-10.430000	2.030000	381.00	0.15	-0.19
1.27	0.50	0.00	1.75	0.50	1.50	0.00	0.75	0.25	1.25	0.00	0.00	0.00	0.00	1.50	0.00	0.00	-0.216797	0.074219	0.954102	-2.590000	3.640000	-2.030000	91.00	-0.01	0.11	0.25	0.00	0.50	0.75	1.25	1.00	1.25	5.75	2.50	2.00	3.50	5.00	7.75	3.25	0.25	1.50	-0.182617	0.116211	0.973145	-4.830000	-10.080000	2.100000	396.00	0.13	-0.18
1.28	0.25	0.50	1.75	0.50	1.50	0.00	0.75	0.00	1.25	0.00	0.00	0.00	0.00	2.00	0.00	0.00	-0.220703	0.066895	0.955566	-2.380000	3.850000	-2.100000	93.00	0.00	0.12	0.00	0.00	0.50	0.75	1.25	1.00	1.25	5.75	2.25	2.25	3.25	5.00	7.75	3.25	0.50	1.25	-0.180176	0.117676	0.983398	-4.970000	-9.940000	2.170000	391.00	0.13	-0.18
1.29	0.50	0.50	1.50	0.50	1.50	0.00	0.75	0.25	1.25	0.00	0.00	0.00	0.25	2.00	0.00	0.00	-0.215820	0.066895	0.948730	-2.380000	4.130000	-2.030000	99.00	0.00	0.09	0.25	0.00	0.50	1.00	1.50	1.50	1.25	6.00	2.25	1.75	3.00	4.75	7.75	3.00	0.50	1.00	-0.177246	0.105957	0.974609	-5.180000	-9.800000	2.170000	395.00	0.12	-0.19
1.30	0.25	0.25	1.75	0.50	1.50	0.00	0.75	0.25	1.00	0.00	0.00	0.00	0.00	1.75	0.00	0.00	-0.216309	0.071289	0.953125	-2.240000	4.410000	-1.960000	90.00	-0.01	0.10	0.25	0.00	0.75	1.00	1.75	1.75	1.25	6.00	2.25	1.50	2.75	4.50	7.50	3.00	0.25	1.25	-0.185547	0.113281	0.975586	-5.250000	-10.010000	2.240000	392.00	0.11	-0.19
1.31	0.00	0.25	1.75	0.25	1.50	0.00	0.75	0.25	1.25	0.00	0.00	0.00	0.00	1.75	0.25	0.00	-0.216797	0.071289	0.951660	-2.240000	4.830000	-1.890000	90.00	0.04	0.11	0.25	0.25	0.75	1.25	2.00	2.00	1.50	6.00	2.25	1.50	2.75	4.50	7.50	2.75	0.25	1.25	-0.170898	0.108887	0.977051	-4.900000	-10.010000	2.730000	404.00	0.09	-0.18
1.32	0.25	0.00	1.75	0.50	1.75	0.00	0.75	0.25	1.00	0.00	0.00	0.00	0.25	1.75	0.00	0.00	-0.210938	0.075195	0.954590	-1.890000	5.250000	-1.470000	92.00	0.01	0.09	0.50	0.25	1.25	1.25	2.00	2.50	1.25	6.25	2.25	1.75	2.75	4.25	7.75	3.00	0.25	1.25	-0.167480	0.114746	0.973633	-4.830000	-9.730000	2.730000	422.00	0.09	-0.18
1.33	0.50	0.25	2.00	0.50	1.50	0.00	0.75	0.25	0.75	0.00	0.00	0.00	0.00	2.00	0.00	0.00	-0.210938	0.075195	0.954590	-1.890000	5.250000	-1.470000	94.00	-0.02	0.10	0.25	0.25	1.25	1.75	2.25	3.00	1.25	6.25	2.00	1.50	2.50	4.00	7.50	2.75	0.25	1.25	-0.159180	0.114258	0.980469	-4.760000	-9.520000	2.240000	417.00	0.07	-0.19
1.34	0.25	0.25	1.75	0.50	1.75	0.00	0.75	0.25	1.00	0.00	0.00	0.00	0.25	2.00	0.25	0.00	-0.217773	0.069824	0.958008	-1.820000	5.460000	-1.260000	99.00	0.02	0.08	0.25	0.50	1.00	1.75	2.25	3.00	1.50	6.25	2.00	1.50	2.50	3.75	7.50	2.75	0.50	1.00	-0.168457	0.110352	0.974121	-4.620000	-8.820000	1.890000	419.00	0.07	-0.18
1.35	0.50	0.50	2.00	0.50	1.75	0.00	0.75	0.25	1.00	0.00	0.00	0.00	0.00	2.00	0.00	0.00	-0.216309	0.075195	0.951660	-1.610000	5.950000	-1.190000	102.00	-0.03	0.09	0.75	0.25	1.50	2.25	2.50	3.50	1.50	6.50	2.00	1.50	2.50	4.00	7.50	2.50	0.25	1.25	-0.169922	0.112305	0.986328	-4.270000	-8.330000	1.540000	445.00	0.05	-0.18
1.36	0.25	0.75	1.75	0.50	1.50	0.00	0.75	0.25	1.25	0.00	0.00	0.00	0.00	1.75	0.00	0.00	-0.213867	0.071289	0.951172	-1.330000	7.070000	-1.050000	97.00	-0.02	0.09	0.50	0.25	1.50	2.50	2.75	3.75	1.50	6.75	1.75	1.50	2.25	3.50	7.50	2.50	0.25	1.25	-0.164551	0.111328	0.981445	-3.990000	-7.420000	1.540000	443.00	0.05	-0.19
1.37	0.00	0.00	1.50	0.75	1.50	0.00	0.75	0.25	1.00	0.00	0.00	0.00	0.25	1.75	0.00	0.00	-0.215820	0.069824	0.951172	-1.330000	6.930000	-1.190000	87.00	0.02	0.08	0.50	0.75	1.25	2.50	2.75	4.00	1.50	6.75	1.75	1.00	2.25	3.50	7.50	2.50	0.25	1.00	-0.165039	0.112305	0.979492	-3.640000	-6.440000	1.540000	441.00	0.04	-0.19
1.38	0.25	0.25	1.75	0.50	1.50	0.00	0.75	0.25	1.00	0.00	0.00	0.00	0.00	2.00	0.00	0.00	-0.214844	0.070312	0.951172	-1.400000	6.720000	-1.540000	92.00	0.00	0.10	0.50	1.00	1.50	2.50	3.00	4.00	1.50	6.50	1.75	1.25	2.00	3.50	7.50	2.25	0.25	1.25	-0.170410	0.109375	0.982422	-3.360000	-5.530000	1.470000	444.00	0.03	-0.19
1.39	0.25	0.25	1.75	0.75	1.50	0.00	0.75	0.25	1.25	0.00	0.00	0.00	0.25	2.00	0.00	0.00	-0.217285	0.071777	0.949707	-1.400000	6.510000	-1.470000	100.00	0.01	0.09	0.75	0.50	1.50	2.25	3.00	3.75	1.50	6.75	1.75	1.00	2.25	3.25	7.50	2.50	0.25	1.00	-0.165039	0.115234	0.979492	-3.010000	-4.830000	1.680000	438.00	0.04	-0.19
1.40	0.25	0.50	1.75	0.75	1.50	0.00	0.75	0.25	1.25	0.00	0.00	0.00	0.25	2.00	0.25	0.00	-0.217285	0.071777	0.958008	-1.470000	6.790000	-1.610000	105.00	0.01	0.08	0.50	0.50	1.50	2.75	3.00	4.25	1.50	6.75	2.00	1.00	2.00	3.25	7.25	2.50	0.50	1.00	-0.162109	0.114258	0.971191	-2.730000	-4.060000	1.750000	448.00	0.04	-0.19
1.41	0.25	0.25	1.75	0.75	1.50	0.00	0.75	0.25	1.00	0.00	0.00	0.00	0.25	2.00	0.25	0.00	-0.215332	0.069824	0.954590	-1.400000	6.860000	-1.610000	99.00	0.01	0.08	0.50	0.75	1.75	2.75	2.75	4.25	1.50	6.50	1.50	1.00	1.75	3.25	7.25	2.50	0.00	1.00	-0.170898	0.114746	0.975098	-2.660000	-3.500000	2.030000	432.00	0.03	-0.19
1.42	0.25	0.00	1.50	0.75	1.50	0.00	0.75	0.25	1.00	0.00	0.00	0.00	0.25	2.00	0.25	0.00	-0.215332	0.070312	0.958008	-1.260000	6.860000	-1.470000	94.00	0.03	0.08	0.50	1.00	1.50	2.75	3.00	4.50	1.50	6.75	1.75	1.00	2.00	3.00	7.25	2.50	0.50	1.25	-0.173828	0.106445	0.978516	-2.520000	-3.290000	2.170000	451.00	0.03	-0.19
1.43	0.25	0.00	1.50	0.50	1.50	0.00	0.75	0.25	1.25	0.00	0.00	0.00	0.25	2.25	0.25	0.00	-0.216309	0.074707	0.953613	-1.050000	6.860000	-1.400000	97.00	0.05	0.10	0.75	0.25	1.50	2.50	3.00	4.25	1.75	6.75	1.75	1.00	1.75	3.25	7.25	2.50	0.25	1.00	-0.169922	0.105957	0.974609	-2.450000	-3.290000	2.240000	441.00	0.03	-0.18
1.44	0.25	0.25	1.50	0.50	1.50	0.00	0.75	0.25	1.25	0.00	0.00	0.00	0.25	1.75	0.00	0.00	-0.220703	0.072266	0.954590	-1.260000	6.860000	-1.330000	92.00	0.02	0.09	0.75	0.50	1.50	2.75	3.00	4.25	1.50	6.50	1.75	0.75	1.75	3.00	7.25	2.25	0.50	1.00	-0.166504	0.116211	0.977051	-2.660000	-3.150000	2.030000	433.00	0.03	-0.19
1.45	0.25	0.25	1.50	0.75	1.50	0.00	0.75	0.25	1.25	0.00	0.00	0.00	0.00	1.75	0.25	0.00	-0.214355	0.067383	0.953613	-1.330000	6.790000	-1.190000	95.00	0.01	0.09	0.50	0.75	1.75	2.75	3.00	4.50	1.50	6.50	1.50	0.75	2.00	2.75	7.25	2.25	0.50	1.00	-0.174316	0.113281	0.975098	-2.730000	-3.360000	1.960000	435.00	0.02	-0.19
1.46	0.25	0.25	1.50	0.50	1.50	0.00	0.75	0.00	1.25	0.25	0.00	0.00	0.50	2.00	0.25	0.00	-0.216309	0.073730	0.954590	-1.260000	6.790000	-1.260000	98.00	0.05	0.10	0.25	0.50	1.50	2.75	3.25	5.00	1.50	6.50	1.50	1.00	1.50	2.75	7.00	2.25	0.25	1.00	-0.171387	0.108398	0.983887	-2.800000	-3.570000	1.960000	428.00	0.02	-0.19
1.47	0.50	0.25	1.75	0.50	1.50	0.00	0.75	0.25	1.50	0.00	0.00	0.00	0.25	2.00	0.00	0.00	-0.218262	0.074707	0.953125	-1.120000	6.650000	-1.050000	103.00	0.01	0.10	0.75	0.75	1.75	2.75	3.00	4.50	1.75	6.50	1.75	0.75	1.50	2.75	7.25	2.25	0.50	1.00	-0.159668	0.108398	0.973633	-3.010000	-3.990000	1.820000	440.00	0.02	-0.18
1.48	0.25	0.25	1.50	0.75	1.50	0.00	0.75	0.25	0.75	0.00	0.00	0.00	0.25	2.25	0.25	0.00	-0.218262	0.071289	0.953613	-1.260000	6.720000	-1.120000	95.00	0.02	0.07	0.75	0.75	2.00	3.00	3.25	4.50	1.50	6.50	1.25	0.75	1.75	2.75	7.00	2.25	0.25	1.00	-0.162598	0.108887	0.976074	-3.150000	-4.130000	1.820000	436.00	0.01	-0.19
1.49	0.25	0.25	1.50	0.50	1.50	0.00	0.75	0.25	0.75	0.00	0.00	0.00	0.00	2.00	0.00	0.00	-0.213867	0.073242	0.949219	-1.470000	6.440000	-1.330000	86.00	0.00	0.10	0.75	1.00	2.00	3.00	3.50	4.75	1.50	6.50	1.50	1.00	1.50	2.50	7.00	2.25	0.25	1.00	-0.165039	0.116211	0.973633	-3.290000	-4.200000	1.750000	444.00	0.01	-0.18
1.50	0.00	0.25	1.25	0.25	1.50	0.00	0.75	0.25	1.25	0.00	0.00	0.00	0.25	1.75	0.00	0.00	-0.215332	0.075684	0.948730	-1.680000	6.160000	-1.400000	84.00	0.05	0.10	1.00	0.75	2.00	2.75	3.50	4.75	1.50	6.50	1.50	0.75	1.50	2.50	6.75	2.50	0.25	1.00	-0.166992	0.108398	0.976074	-3.290000	-4.060000	1.400000	439.00	0.01	-0.18
1.51	0.25	0.25	1.75	0.50	1.50	0.00	0.75	0.25	1.50	0.00	0.00	0.00	0.25	2.25	0.25	0.00	-0.215820	0.075684	0.951172	-1.680000	6.090000	-1.540000	105.00	0.04	0.10	0.75	1.00	2.00	3.00	3.50	4.75	1.75	6.50	1.25	0.75	1.25	2.50	6.75	2.00	0.25	1.00	-0.166992	0.108398	0.976074	-3.290000	-4.060000	1.400000	435.00	0.00	-0.18
1.52	0.25	0.25	1.25	0.50	1.25	0.00	0.75	0.25	1.25	0.00	0.00	0.00	0.00	2.00	0.25	0.00	-0.219727	0.075195	0.954590	-1.610000	6.300000	-1.470000	89.00	0.05	0.10	0.75	0.75	1.75	3.25	3.50	5.00	1.75	6.50	1.25	1.00	1.50	2.75	6.75	2.25	0.25	0.75	-0.167480	0.104980	0.977539	-2.800000	-3.920000	1.680000	444.00	0.01	-0.18
1.53	0.50	0.25	1.50	0.50	1.50	0.00	0.75	0.25	1.25	0.00	0.00	0.00	0.25	2.00	0.00	0.00	-0.213379	0.074219	0.959961	-1.610000	6.440000	-1.470000	97.00	0.01	0.10	0.75	0.75	1.50	3.00	4.00	4.75	1.75	6.50	1.25	0.75	1.50	2.75	6.75	2.00	0.25	1.00	-0.164062	0.109375	0.987305	-2.590000	-3.710000	1.750000	438.00	0.01	-0.19
1.54	0.25	0.25	1.50	0.75	1.50	0.00	0.75	0.25	1.25	0.00	0.00	0.00	0.25	2.00	0.00	0.00	-0.216309	0.076172	0.957031	-1.540000	6.580000	-1.470000	97.00	0.02	0.09	1.00	1.00	2.00	3.00	3.75	5.00	1.75	6.50	1.25	0.75	1.25	2.50	6.75	2.25	0.50	1.00	-0.164551	0.111328	0.975586	-2.380000	-3.360000	1.680000	448.00	0.00	-0.18
1.55	0.25	0.25	1.25	0.25	1.25	0.00	0.75	0.25	1.25	0.00	0.00	0.00	0.50	2.25	0.00	0.00	-0.217773	0.079590	0.951660	-1.540000	6.580000	-1.470000	90.00	0.06	0.09	0.75	0.75	2.00	3.00	3.75	5.00	1.50	6.50	1.25	0.75	1.50	2.50	6.75	2.25	0.00	1.00	-0.165039	0.112305	0.977539	-2.240000	-3.080000	1.680000	436.00	0.00	-0.19
1.56	0.25	0.25	1.50	0.25	1.50	0.00	0.75	0.25	1.25	0.25	0.00	0.00	0.25	2.25	0.00	0.00	-0.214355	0.075195	0.949707	-1.540000	6.440000	-1.330000	96.00	0.05	0.11	0.75	1.00	2.00	3.25	4.00	5.00	1.75	6.50	1.50	0.50	1.75	2.50	6.75	2.25	0.25	0.75	-0.167969	0.106445	0.976562	-2.240000	-2.940000	1.610000	453.00	0.00	-0.18
1.57	0.25	0.25	1.50	0.50	1.50	0.00	0.75	0.25	1.50	0.00	0.00	0.00	0.25	2.25	0.25	0.00	-0.212402	0.071289	0.951660	-1.750000	5.950000	-1.400000	102.00	0.05	0.10	0.75	0.75	1.75	3.00	3.75	5.00	1.50	6.50	1.50	0.50	1.25	2.25	6.75	2.00	0.25	1.00	-0.166992	0.114258	0.984863	-2.170000	-2.730000	1.750000	430.00	0.00	-0.19
1.58	0.00	0.25	1.50	0.25	1.50	0.00	0.75	0.25	1.00	0.00	0.00	0.00	0.25	2.00	0.00	0.00	-0.211914	0.068359	0.954102	-1.750000	5.880000	-1.400000	86.00	0.04	0.10	0.75	0.75	2.00	3.25	3.75	5.00	1.75	6.50	1.25	0.75	1.50	2.50	6.75	2.25	0.25	1.00	-0.170410	0.109375	0.977539	-2.170000	-2.940000	1.540000	446.00	0.00	-0.18
1.59	0.00	0.00	1.50	0.50	1.50	0.00	0.75	0.25	1.50	0.00	0.00	0.00	0.25	1.75	0.00	0.00	-0.212891	0.078125	0.951172	-1.680000	6.020000	-1.400000	91.00	0.05	0.11	0.75	1.00	2.00	2.75	3.75	4.75	1.75	6.50	1.25	0.75	1.50	2.25	6.75	2.25	0.25	1.00	-0.168457	0.109863	0.981934	-2.100000	-3.010000	1.610000	437.00	0.00	-0.18
1.60	0.00	0.00	1.50	0.75	1.25	0.00	0.75	0.25	1.50	0.00	0.00	0.00	0.25	1.75	0.00	0.00	-0.213379	0.072266	0.956543	-1.680000	5.950000	-1.400000	91.00	0.04	0.10	0.75	0.75	2.00	3.25	3.75	5.00	1.50	6.50	1.25	0.50	1.50	2.50	6.75	2.00	0.25	1.00	-0.165039	0.109375	0.981934	-2.030000	-2.870000	1.750000	437.00	-0.00	-0.19
1.61	0.25	0.25	1.50	0.25	1.50	0.00	0.75	0.25	1.50	0.00	0.00	0.00	0.25	2.25	0.25	0.00	-0.214355	0.067871	0.952637	-1.680000	5.810000	-1.330000	100.00	0.06	0.11	0.75	1.00	1.75	3.25	4.00	4.75	1.50	6.25	1.25	0.50	1.25	2.50	6.75	2.00	0.25	1.00	-0.160645	0.109375	0.983398	-2.030000	-2.660000	1.680000	430.00	-0.00	-0.19
1.62	0.25	0.50	1.50	0.50	1.50	0.00	0.75	0.25	1.50	0.25	0.00	0.00	0.25	2.00	0.00	0.00	-0.213867	0.073730	0.955566	-1.470000	5.740000	-1.190000	102.00	0.03	0.09	0.75	1.00	2.00	3.00	3.75	4.75	1.50	6.25	1.50	0.75	1.25	2.25	6.50	2.25	0.25	1.00	-0.169922	0.105469	0.972168	-1.890000	-2.450000	1.820000	431.00	0.00	-0.18
1.63	0.25	0.00	1.50	0.50	1.50	0.00	0.75	0.25	1.50	0.25	0.00	0.00	0.25	2.00	0.00	0.00	-0.217773	0.068848	0.949707	-1.470000	6.160000	-1.190000	98.00	0.05	0.11	1.00	1.00	1.75	3.25	3.75	5.00	1.50	6.50	1.25	0.50	1.50	2.50	6.75	2.25	0.25	0.75	-0.164062	0.106445	0.977539	-1.960000	-2.450000	1.680000	440.00	-0.00	-0.19
1.64	0.25	0.25	1.50	0.50	1.75	0.00	0.75	0.25	1.25	0.00	0.00	0.00	0.25	2.25	0.25	0.00	-0.219727	0.071289	0.949707	-1.610000	6.580000	-1.190000	102.00	0.04	0.09	0.75	0.50	2.00	3.00	3.75	5.00	1.50	6.25	1.25	0.50	1.25	2.50	6.75	2.00	0.00	1.00	-0.172363	0.108887	0.977051	-2.100000	-2.730000	1.750000	423.00	-0.00	-0.19
1.65	0.25	0.25	1.25	0.50	1.50	0.00	0.75	0.25	1.75	0.25	0.00	0.00	0.25	2.00	0.00	0.00	-0.220215	0.069824	0.948730	-1.610000	6.580000	-1.260000	101.00	0.05	0.11	0.75	1.00	2.00	3.25	3.75	4.75	1.50	6.25	1.25	0.50	1.50	2.25	6.75	1.75	0.25	1.00	-0.165527	0.107910	0.976562	-2.170000	-2.730000	1.540000	428.00	-0.01	-0.19
1.66	0.25	0.00	1.25	0.50	1.25	0.00	0.75	0.25	1.75	0.25	0.00	0.00	0.25	2.25	0.00	0.00	-0.217773	0.073730	0.950684	-1.470000	6.230000	-1.050000	98.00	0.08	0.12	0.75	0.75	1.50	3.00	3.75	5.00	1.50	6.50	1.25	0.50	1.50	2.25	7.00	2.00	0.25	1.00	-0.164062	0.111328	0.975586	-2.100000	-2.730000	1.470000	428.00	0.00	-0.19
1.67	0.25	0.00	1.25	0.50	1.50	0.00	0.75	0.25	1.50	0.25	0.00	0.00	0.25	2.25	0.00	0.00	-0.218262	0.070312	0.955078	-1.680000	6.440000	-1.260000	97.00	0.07	0.11	0.75	1.00	2.00	3.00	3.75	4.50	1.50	6.25	1.25	0.50	1.25	2.25	6.75	2.00	0.25	1.00	-0.170410	0.110352	0.980957	-2.170000	-3.080000	1.540000	422.00	-0.00	-0.19
1.68	0.25	0.00	1.50	0.50	1.50	0.00	0.75	0.25	1.25	0.25	0.00	0.00	0.25	2.00	0.25	0.00	-0.214844	0.073730	0.956055	-1.750000	6.510000	-1.400000	97.00	0.05	0.10	0.75	0.50	1.75	3.25	3.75	4.75	1.50	6.25	1.50	0.75	1.50	2.25	6.75	2.00	0.25	1.00	-0.173340	0.113281	0.975098	-2.240000	-3.220000	1.470000	429.00	0.01	-0.18
1.69	0.00	0.25	1.50	1.00	1.50	0.00	0.75	0.50	1.75	0.00	0.00	0.00	0.25	2.00	0.25	0.00	-0.211914	0.072754	0.951660	-1.750000	6.580000	-1.470000	110.00	0.04	0.07	0.75	0.75	1.75	3.00	3.75	4.75	1.50	6.50	1.25	0.75	1.50	2.25	6.75	2.00	0.25	1.00	-0.168457	0.117188	0.979492	-2.240000	-3.360000	1.540000	429.00	0.00	-0.19
1.70	0.25	0.00	1.25	0.25	1.50	0.00	0.75	0.25	1.50	0.25	0.00	0.00	0.25	2.00	0.25	0.00	-0.218262	0.071777	0.949219	-1.610000	6.160000	-1.260000	95.00	0.08	0.11	0.75	0.75	1.75	2.75	3.75	4.50	1.50	6.50	1.25	0.50	1.50	2.50	7.00	2.00	0.25	1.00	-0.164551	0.110840	0.979492	-2.240000	-3.290000	1.610000	426.00	0.01	-0.19
1.71	0.25	0.00	1.25	0.50	1.50	0.00	1.00	0.25	1.75	0.50	0.00	0.00	0.25	2.00	0.00	0.00	-0.215820	0.071777	0.955078	-1.540000	5.950000	-1.190000	105.00	0.07	0.12	0.75	0.50	1.75	3.00	4.00	4.75	1.50	6.50	1.25	0.75	1.25	2.25	6.75	2.25	0.25	1.00	-0.165527	0.109863	0.979004	-2.310000	-2.940000	1.610000	429.00	0.01	-0.18
1.72	0.00	0.00	1.50	0.25	1.50	0.00	0.75	0.50	1.50	0.25	0.00	0.00	0.25	2.25	0.00	0.00	-0.215820	0.067871	0.949707	-1.610000	6.020000	-1.190000	98.00	0.08	0.10	0.75	0.50	1.75	2.50	3.75	5.00	1.50	6.50	1.50	0.50	1.50	2.50	7.00	2.25	0.50	1.00	-0.169922	0.107422	0.979004	-2.310000	-2.940000	1.540000	434.00	0.02	-0.19
1.73	0.25	0.00	1.25	0.50	1.50	0.00	0.75	0.25	1.75	0.25	0.00	0.00	0.50	2.00	0.25	0.00	-0.211914	0.069336	0.954102	-1.680000	6.020000	-1.120000	103.00	0.08	0.10	1.00	0.75	2.00	3.25	3.75	4.75	1.50	6.50	1.25	0.50	1.50	2.50	6.75	2.25	0.25	1.00	-0.169922	0.111328	0.977051	-2.310000	-3.010000	1.610000	439.00	-0.00	-0.18
1.74	0.25	0.00	1.50	0.75	1.50	0.00	0.75	0.25	1.50	0.25	0.00	0.00	0.25	2.25	0.25	0.00	-0.218262	0.069824	0.956055	-1.680000	5.880000	-1.120000	105.00	0.06	0.09	0.75	1.00	1.75	3.25	3.75	4.75	1.50	6.50	1.50	0.75	1.50	2.25	6.75	2.25	0.25	1.00	-0.166016	0.112793	0.979980	-2.170000	-3.010000	1.540000	439.00	0.00	-0.18
1.75	0.25	0.25	1.50	0.25	1.50	0.00	1.00	0.50	1.75	0.25	0.00	0.00	0.25	2.50	0.25	0.00	-0.214355	0.074707	0.955078	-1.610000	5.880000	-1.190000	115.00	0.07	0.10	0.75	1.00	1.75	3.00	3.75	5.00	1.50	6.50	1.50	0.75	1.50	2.50	6.75	2.25	0.25	1.00	-0.167480	0.108398	0.978027	-2.170000	-2.940000	1.610000	442.00	0.01	-0.18
1.76	0.25	0.00	1.50	0.25	1.50	0.00	0.75	0.25	1.75	0.25	0.00	0.00	0.50	2.00	0.00	0.00	-0.218750	0.073242	0.955566	-1.610000	5.740000	-1.190000	101.00	0.07	0.11	0.75	0.75	2.00	2.75	3.75	4.75	1.50	6.50	1.25	0.75	1.25	2.50	6.75	2.00	0.00	0.75	-0.173340	0.109375	0.972656	-2.240000	-2.800000	1.610000	425.00	-0.00	-0.19
1.77	0.00	0.25	1.25	0.25	1.50	0.00	1.00	0.25	1.50	0.25	0.00	0.00	0.25	2.75	0.00	0.00	-0.213867	0.069824	0.952148	-1.680000	5.530000	-1.050000	102.00	0.09	0.12	0.75	0.75	1.75	2.75	3.50	4.75	1.50	6.25	1.25	0.75	1.25	2.25	7.00	2.00	0.25	1.00	-0.166016	0.107422	0.974609	-2.100000	-2.590000	1.680000	419.00	0.01	-0.19
1.78	0.25	0.25	1.25	0.50	1.50	0.00	1.00	0.50	1.50	0.25	0.00	0.00	0.50	2.50	0.00	0.00	-0.213379	0.069824	0.956543	-1.890000	5.320000	-1.190000	111.00	0.06	0.08	1.00	1.25	1.50	3.00	3.75	4.50	1.50	6.50	1.50	0.50	1.50	2.50	7.00	2.25	0.25	1.00	-0.173340	0.111328	0.976562	-2.170000	-2.590000	1.750000	438.00	0.00	-0.19
1.79	0.25	0.50	1.50	0.50	1.50	0.00	1.00	0.50	2.00	0.25	0.00	0.00	0.50	2.50	0.00	0.00	-0.213867	0.071289	0.953613	-1.890000	5.110000	-1.330000	123.00	0.06	0.09	0.75	0.75	1.75	2.75	3.75	4.75	1.50	6.50	1.25	0.50	1.25	2.25	6.75	2.00	0.25	1.00	-0.168457	0.111328	0.978516	-2.100000	-2.520000	1.680000	421.00	0.00	-0.19
1.80	0.25	0.25	1.50	0.25	1.50	0.00	1.00	0.50	1.75	0.25	0.00	0.00	0.50	2.25	0.00	0.00	-0.214844	0.071777	0.954590	-1.960000	5.110000	-1.470000	113.00	0.06	0.09	0.50	1.00	1.75	2.75	3.50	4.75	1.50	6.50	1.50	0.75	1.25	2.75	7.25	2.25	0.25	0.75	-0.173340	0.110840	0.976562	-2.030000	-2.520000	1.820000	434.00	0.01	-0.19
1.81	0.50	0.00	1.75	0.25	1.50	0.00	1.00	0.50	1.75	0.50	0.25	0.00	0.50	2.25	0.25	0.00	-0.210938	0.076172	0.954102	-1.960000	5.040000	-1.330000	123.00	0.07	0.09	0.50	1.00	1.50	2.50	3.75	4.25	1.50	6.50	1.50	0.75	1.25	2.50	7.00	2.50	0.25	1.00	-0.166016	0.111328	0.973145	-1.960000	-2.590000	1.750000	425.00	0.02	-0.19
1.82	0.25	0.00	1.50	0.50	1.75	0.00	1.00	0.50	1.75	0.25	0.25	0.00	0.50	2.25	0.25	0.00	-0.213379	0.075195	0.951660	-1.960000	5.110000	-1.190000	121.00	0.07	0.08	0.75	0.75	1.75	2.75	3.75	4.00	1.50	6.25	1.50	0.50	1.50	2.50	6.75	2.00	0.50	1.00	-0.166992	0.114258	0.979492	-2.100000	-2.730000	1.750000	420.00	0.01	-0.18
1.83	0.25	0.25	1.50	0.50	1.50	0.00	1.00	0.50	2.00	0.50	0.00	0.00	0.50	2.25	0.00	0.00	-0.210938	0.068359	0.953613	-1.750000	5.180000	-1.260000	121.00	0.06	0.09	0.75	0.75	1.50	2.75	3.50	4.75	1.50	6.50	1.50	0.75	1.50	2.50	6.75	2.00	0.25	1.00	-0.168945	0.115234	0.979980	-2.100000	-2.590000	1.610000	426.00	0.01	-0.19
1.84	0.25	0.25	1.75	0.75	1.25	0.00	1.00	0.50	1.75	0.25	0.00	0.00	0.25	2.50	0.25	0.00	-0.212402	0.071777	0.955078	-1.820000	5.740000	-1.540000	121.00	0.05	0.09	0.75	0.75	1.75	3.00	3.50	4.25	1.75	6.50	1.50	0.75	1.50	2.50	7.00	2.25	0.50	1.00	-0.169922	0.113281	0.976074	-2.170000	-2.590000	1.680000	437.00	0.02	-0.18
1.85	0.25	0.25	1.50	0.50	1.75	0.00	1.00	0.50	2.00	0.50	0.00	0.00	0.50	2.50	0.25	0.00	-0.212891	0.067871	0.957031	-1.680000	5.530000	-1.260000	129.00	0.07	0.09	0.75	0.75	1.50	2.75	3.50	4.50	1.50	6.50	1.25	0.75	1.25	2.50	7.00	2.50	0.25	1.00	-0.167480	0.111328	0.979004	-2.310000	-2.870000	1.610000	424.00	0.01	-0.19
1.86	0.25	0.25	1.50	0.25	1.50	0.00	1.00	0.50	1.75	0.50	0.25	0.00	0.50	2.75	0.25	0.00	-0.213379	0.071777	0.953613	-1.610000	5.530000	-1.190000	125.00	0.09	0.09	0.50	0.50	1.50	2.25	3.50	4.25	1.50	6.25	1.25	0.75	1.50	2.50	7.00	2.50	0.25	0.75	-0.165039	0.107422	0.978027	-2.310000	-2.940000	1.750000	409.00	0.02	-0.19
1.87	0.25	0.00	1.75	0.50	1.75	0.00	1.00	0.50	2.00	0.50	0.25	0.00	0.50	2.50	0.25	0.00	-0.210449	0.070312	0.955566	-1.680000	5.810000	-1.120000	132.00	0.08	0.09	0.75	0.75	1.75	2.75	3.50	4.25	1.50	6.50	1.50	0.50	1.50	2.50	7.00	2.25	0.50	1.00	-0.168457	0.112793	0.980469	-2.310000	-3.010000	1.610000	428.00	0.02	-0.19
1.88	0.25	0.25	1.75	0.75	2.00	0.00	1.00	0.50	2.00	0.25	0.00	0.00	0.50	2.50	0.25	0.00	-0.210449	0.072266	0.953125	-1.610000	5.600000	-1.120000	134.00	0.05	0.08	0.75	0.50	1.50	3.00	3.50	4.25	1.50	6.50	1.50	0.75	1.25	2.50	7.00	2.00	0.25	0.75	-0.167969	0.110840	0.977539	-2.310000	-2.940000	1.610000	420.00	0.01	-0.19
1.89	0.25	0.25	1.50	0.50	1.75	0.00	1.00	0.50	2.00	0.50	0.25	0.00	0.50	2.50	0.25	0.00	-0.209473	0.071777	0.953613	-1.540000	5.250000	-1.120000	131.00	0.07	0.08	0.50	0.50	1.50	2.25	3.25	4.25	1.50	6.50	1.50	0.75	1.25	2.50	6.75	2.00	0.25	1.00	-0.172852	0.112305	0.976074	-2.310000	-2.800000	1.540000	405.00	0.02	-0.19
1.90	0.25	0.50	1.50	1.00	1.75	0.00	1.00	0.50	1.75	0.25	0.25	0.00	0.50	2.50	0.25	0.00	-0.215332	0.075195	0.948242	-1.680000	5.530000	-1.190000	133.00	0.04	0.06	0.75	0.75	1.50	2.50	3.75	4.25	1.50	6.50	1.50	0.75	1.50	2.50	7.00	2.25	0.25	1.00	-0.169922	0.111816	0.976074	-2.310000	-2.660000	1.540000	425.00	0.02	-0.18
1.91	0.25	0.25	1.75	0.75	2.00	0.00	1.00	0.50	1.50	0.50	0.25	0.00	0.50	2.50	0.00	0.00	-0.206543	0.068848	0.955078	-1.680000	5.740000	-1.260000	130.00	0.04	0.07	0.75	0.75	1.50	2.75	3.50	4.00	1.50	6.25	1.50	0.75	1.25	2.25	7.00	2.25	0.25	1.00	-0.163086	0.112305	0.980957	-2.240000	-2.450000	1.610000	413.00	0.01	-0.18
1.92	0.25	0.00	1.50	0.50	1.75	0.00	1.00	0.50	2.25	0.50	0.25	0.00	0.50	2.50	0.00	0.00	-0.213379	0.070312	0.952148	-1.750000	5.880000	-1.400000	130.00	0.08	0.09	0.50	0.50	1.50	2.50	3.50	4.00	1.50	6.25	1.50	0.75	1.25	2.25	7.00	2.25	0.25	1.00	-0.167480	0.107422	0.978027	-2.310000	-2.800000	1.400000	406.00	0.02	-0.19
1.93	0.25	0.25	1.75	0.50	1.75	0.00	1.00	0.50	2.00	0.50	0.25	0.00	0.50	2.25	0.25	0.00	-0.216797	0.074707	0.952637	-1.750000	6.020000	-1.470000	132.00	0.06	0.08	0.75	0.75	1.50	2.25	3.50	4.00	1.50	6.50	1.50	0.75	1.25	2.50	6.75	2.25	0.25	1.00	-0.164551	0.109863	0.976074	-2.310000	-2.730000	1.470000	412.00	0.02	-0.18
1.94	0.00	0.25	1.75	0.50	1.75	0.00	1.00	0.50	2.25	0.25	0.50	0.00	0.50	2.50	0.00	0.00	-0.213379	0.070312	0.948730	-1.750000	6.160000	-1.470000	132.00	0.07	0.09	0.75	0.75	1.50	2.50	3.50	4.00	1.50	6.50	1.50	0.75	1.50	2.50	6.75	2.25	0.25	0.75	-0.173340	0.113770	0.980957	-2.240000	-2.660000	1.540000	416.00	0.02	-0.18
1.95	0.25	0.50	1.75	0.50	1.75	0.00	1.00	0.50	2.25	0.50	0.00	0.00	0.50	2.50	0.25	0.00	-0.210449	0.071777	0.958984	-1.750000	6.020000	-1.540000	137.00	0.06	0.09	0.50	0.75	1.50	2.25	3.25	4.00	1.50	6.25	1.50	0.75	1.50	2.50	7.00	2.25	0.25	0.75	-0.174316	0.114258	0.980957	-2.240000	-2.660000	1.470000	407.00	0.02	-0.19
1.96	0.25	0.25	1.50	0.75	1.75	0.25	1.00	0.50	1.75	0.25	0.25	0.00	0.50	2.50	0.00	0.00	-0.206055	0.069336	0.952637	-1.610000	6.370000	-1.540000	128.00	0.05	0.07	0.75	0.50	1.50	2.75	3.25	3.75	1.50	6.25	1.50	0.50	1.50	2.25	7.00	2.00	0.00	1.00	-0.173340	0.104492	0.984375	-2.310000	-2.660000	1.540000	401.00	0.01	-0.19
1.97	0.25	0.25	1.75	0.50	1.75	0.00	1.00	0.50	2.25	0.50	0.50	0.00	0.50	2.75	0.00	0.00	-0.209961	0.074707	0.959473	-1.610000	6.300000	-1.330000	139.00	0.07	0.09	0.25	0.25	1.25	2.75	3.25	4.00	1.50	6.25	1.50	0.75	1.50	2.50	6.75	2.25	0.25	1.00	-0.171387	0.109375	0.979004	-2.310000	-2.660000	1.610000	401.00	0.03	-0.19
1.98	0.00	0.25	1.50	0.75	1.75	0.25	1.00	0.50	2.00	0.50	0.25	0.00	0.50	2.25	0.25	0.00	-0.209961	0.067383	0.956055	-1.540000	6.440000	-1.330000	132.00	0.07	0.07	0.75	0.75	1.50	2.25	3.25	3.75	1.50	6.25	1.25	0.50	1.25	2.50	6.75	2.00	0.25	1.25	-0.169434	0.109863	0.979980	-2.240000	-2.520000	1.680000	396.00	0.02	-0.19
1.99	0.25	0.50	1.75	0.75	1.75	0.00	1.00	0.50	2.00	0.50	0.25	0.00	0.50	2.25	0.00	0.00	-0.214355	0.077637	0.956055	-1.540000	6.580000	-1.470000	134.00	0.04	0.07	0.50	0.50	1.50	2.50	3.25	4.00	1.50	6.25	1.50	0.75	1.50	2.50	6.75	2.25	0.25	1.00	-0.171875	0.113281	0.972656	-2.450000	-2.590000	1.610000	406.00	0.02	-0.19
2.00	0.25	0.00	1.50	0.50	1.50	0.50	1.00	0.50	2.00	0.50	0.25	0.00	0.50	2.25	0.00	0.00	-0.212891	0.066406	0.957031	-1.540000	6.650000	-1.330000	127.00	0.07	0.07	0.50	0.25	1.50	2.25	3.00	4.00	1.50	6.25	1.25	0.75	1.25	2.50	7.00	2.25	0.25	1.00	-0.168457	0.106934	0.975586	-2.380000	-2.730000	1.750000	395.00	0.03	-0.19
2.01	0.00	0.50	1.75	0.75	1.75	0.00	1.00	0.50	2.00	0.25	0.25	0.00	0.50	2.50	0.25	0.00	-0.210938	0.069336	0.952637	-1.540000	6.650000	-1.330000	134.00	0.06	0.07	0.50	0.25	1.25	2.25	3.00	4.00	1.50	6.25	1.50	0.75	1.25	2.50	6.75	2.00	0.25	0.75	-0.170410	0.110352	0.978516	-2.240000	-2.800000	1.680000	390.00	0.03	-0.19
2.02	0.25	0.00	1.75	0.75	1.75	0.25	1.00	0.50	1.75	0.25	0.25	0.00	0.50	2.25	0.00	0.00	-0.205566	0.076172	0.953613	-1.470000	6.510000	-1.470000	127.00	0.04	0.07	0.50	0.50	1.50	2.25	3.00	3.75	1.25	6.25	1.50	0.75	1.25	2.50	7.00	2.25	0.25	1.00	-0.166992	0.111816	0.975586	-2.380000	-2.660000	1.470000	394.00	0.03	-0.19
2.03	0.25	0.25	1.50	0.75	1.75	0.00	1.00	0.50	2.00	0.50	0.25	0.00	0.50	2.75	0.25	0.00	-0.212402	0.073730	0.953613	-1.540000	6.580000	-1.540000	136.00	0.07	0.08	0.75	0.50	1.50	2.00	3.00	3.75	1.25	6.00	1.50	0.75	1.25	2.25	6.75	2.00	0.25	1.00	-0.168945	0.109375	0.979980	-2.380000	-2.730000	1.610000	383.00	0.02	-0.19
2.04	0.25	0.00	1.50	0.50	1.50	0.00	1.00	0.50	2.25	0.50	0.25	0.00	0.50	2.50	0.00	0.00	-0.209473	0.070801	0.952637	-1.610000	6.580000	-1.470000	127.00	0.09	0.10	0.75	0.50	1.50	2.00	3.00	3.50	1.25	6.00	1.50	0.75	1.25	2.25	6.75	2.00	0.25	1.00	-0.166504	0.109863	0.970215	-2.520000	-2.520000	1.540000	380.00	0.02	-0.19
2.05	0.25	0.50	1.50	0.50	1.50	0.00	1.00	0.50	2.25	0.50	0.25	0.00	0.50	2.50	0.00	0.00	-0.212891	0.075195	0.957520	-1.540000	6.860000	-1.400000	132.00	0.07	0.09	0.50	0.75	1.25	2.00	3.00	3.50	1.25	6.00	1.00	0.75	1.25	2.25	6.75	2.00	0.00	1.00	-0.165039	0.111328	0.976562	-2.520000	-2.450000	1.610000	368.00	0.02	-0.20
2.06	0.25	0.00	1.50	0.75	1.75	0.00	1.00	0.50	2.50	0.50	0.25	0.00	0.50	2.50	0.00	0.00	-0.206055	0.074707	0.949707	-1.540000	7.140000	-1.610000	136.00	0.08	0.09	0.50	0.25	1.25	2.00	3.00	2.75	1.25	6.00	1.50	0.75	1.50	2.25	6.75	2.25	0.00	1.00	-0.167480	0.108887	0.976074	-2.590000	-2.380000	1.680000	366.00	0.04	-0.19
2.07	0.25	0.25	1.50	0.25	1.75	0.00	1.00	0.50	2.00	0.50	0.25	0.00	0.50	2.75	0.25	0.00	-0.212891	0.073242	0.950684	-1.540000	7.000000	-1.540000	131.00	0.09	0.09	0.50	0.75	1.50	2.25	3.00	3.50	1.25	6.00	1.25	0.50	1.50	2.25	6.75	2.25	0.25	1.00	-0.169434	0.112305	0.974609	-2.730000	-2.380000	1.610000	381.00	0.02	-0.19
2.08	0.00	0.00	1.75	0.75	1.75	0.00	1.00	0.50	2.25	0.50	0.25	0.00	0.50	2.25	0.00	0.00	-0.211426	0.075684	0.955566	-1.400000	6.790000	-1.400000	130.00	0.07	0.09	0.75	0.25	1.25	2.00	3.00	3.25	1.25	6.00	1.50	0.75	1.00	2.50	6.50	2.00	0.50	1.00	-0.171387	0.108398	0.974121	-2.660000	-2.520000	1.610000	373.00	0.03	-0.19
2.09	0.25	0.25	1.50	0.50	1.50	0.00	1.00	0.50	2.00	0.50	0.25	0.00	0.50	2.75	0.50	0.00	-0.206543	0.065918	0.955566	-1.540000	7.000000	-1.400000	133.00	0.09	0.08	0.50	0.25	1.00	2.25	2.75	3.25	1.25	6.00	1.50	0.75	1.25	2.25	6.50	2.25	0.25	1.00	-0.172363	0.106934	0.977051	-2.450000	-2.590000	1.610000	367.00	0.04	-0.19
2.10	0.25	0.25	1.50	0.25	1.75	0.00	1.00	0.25	2.00	0.50	0.25	0.00	0.50	2.75	0.25	0.00	-0.212891	0.077637	0.956055	-1.680000	7.210000	-1.610000	127.00	0.09	0.10	0.50	0.75	1.25	1.75	3.00	3.00	1.25	5.75	1.25	0.50	1.50	2.50	6.50	2.25	0.25	1.00	-0.170410	0.111328	0.976074	-2.450000	-2.590000	1.540000	364.00	0.03	-0.19
2.11	0.25	0.50	1.75	0.75	1.75	0.00	1.00	0.50	2.00	0.75	0.25	0.00	0.50	2.75	0.25	0.00	-0.215820	0.068359	0.954102	-1.470000	7.210000	-1.470000	144.00	0.06	0.07	0.25	0.50	1.50	2.25	2.75	3.25	1.25	6.00	1.25	0.75	1.25	2.50	6.50	2.25	0.25	0.75	-0.173828	0.111328	0.976074	-2.450000	-2.590000	1.540000	370.00	0.03	-0.19
2.12	0.25	0.25	1.50	0.25	1.50	0.00	1.00	0.50	2.00	0.75	0.00	0.00	0.50	2.50	0.25	0.00	-0.212891	0.069336	0.961914	-1.470000	6.790000	-1.330000	126.00	0.09	0.09	0.50	0.50	1.25	2.25	2.75	2.75	1.25	6.00	1.50	0.75	1.25	2.25	6.50	2.25	0.25	1.00	-0.175293	0.110352	0.975586	-2.590000	-2.730000	1.610000	367.00	0.03	-0.19
2.13	0.25	0.50	1.50	0.50	1.50	0.00	1.00	0.50	2.25	0.50	0.25	0.00	0.50	2.75	0.00	0.00	-0.212402	0.072266	0.954102	-1.470000	6.650000	-1.400000	134.00	0.07	0.09	0.25	0.50	1.25	2.00	2.75	3.25	1.25	6.00	1.25	0.75	1.50	2.25	6.50	2.25	0.25	1.00	-0.167969	0.105957	0.977051	-2.590000	-3.010000	1.610000	366.00	0.04	-0.20
2.14	0.25	0.25	1.50	0.50	1.75	0.00	1.00	0.50	2.25	0.75	0.25	0.00	0.50	2.50	0.25	0.00	-0.214355	0.070312	0.952148	-1.400000	6.790000	-1.330000	137.00	0.08	0.09	0.75	0.75	1.25	2.00	2.75	3.25	1.25	5.75	1.25	0.50	1.25	2.25	6.50	2.50	0.00	0.75	-0.167480	0.108398	0.977539	-2.520000	-2.870000	1.680000	363.00	0.02	-0.19
2.15	0.25	0.25	1.25	0.25	1.50	0.00	1.00	0.25	2.25	0.75	0.25	0.00	0.75	2.75	0.25	0.00	-0.214355	0.071289	0.956055	-1.330000	6.860000	-1.330000	129.00	0.11	0.10	0.75	0.50	1.50	2.00	2.75	3.00	1.25	6.00	1.25	0.50	1.50	2.25	6.25	2.25	0.25	1.00	-0.173340	0.109375	0.974609	-2.380000	-2.730000	1.680000	367.00	0.03	-0.19
2.16	0.00	0.00	1.25	0.25	1.75	0.00	1.00	0.50	2.50	0.50	0.25	0.00	0.75	2.75	0.00	0.00	-0.216797	0.070801	0.954102	-1.260000	7.070000	-1.330000	129.00	0.12	0.10	0.50	0.75	1.25	2.25	2.75	3.00	1.25	6.00	1.25	0.50	1.25	2.25	6.25	2.25	0.25	1.00	-0.169434	0.113770	0.975586	-2.380000	-2.730000	1.610000	364.00	0.03	-0.19
2.17	0.00	0.00	1.50	0.25	1.50	0.00	1.00	0.50	2.25	0.50	0.50	0.00	0.50	2.75	0.25	0.00	-0.210938	0.073242	0.954590	-1.190000	7.350000	-1.330000	129.00	0.12	0.10	0.50	0.50	1.25	2.00	2.75	3.00	1.25	5.75	1.25	0.25	1.25	2.00	6.25	2.25	0.25	0.75	-0.169922	0.106445	0.975586	-2.450000	-3.010000	1.470000	348.00	0.03	-0.19
2.18	0.25	0.25	1.25	0.25	1.50	0.00	1.00	0.50	2.75	0.75	0.00	0.00	0.50	2.75	0.25	0.00	-0.211426	0.069336	0.953613	-1.260000	7.350000	-1.260000	135.00	0.11	0.11	0.50	0.75	1.50	2.00	2.75	2.75	1.25	5.75	1.25	0.75	1.25	2.00	6.25	2.25	0.25	1.00	-0.166992	0.106934	0.976562	-2.380000	-2.870000	1.330000	357.00	0.03	-0.19
2.19	0.25	0.00	1.25	0.50	1.50	0.00	1.00	0.50	2.50	0.75	0.25	0.00	0.50	2.75	0.25	0.00	-0.209961	0.071777	0.949707	-1.190000	7.420000	-1.330000	135.00	0.11	0.10	0.50	0.25	1.25	2.00	2.75	3.00	1.25	5.75	1.50	0.50	1.25	2.00	6.50	2.25	0.25	0.75	-0.168457	0.116211	0.979004	-2.310000	-2.800000	1.540000	354.00	0.03	-0.19
2.20	0.00	0.25	1.25	0.25	1.50	0.00	1.00	0.50	2.50	0.75	0.50	0.00	0.75	2.75	0.25	0.00	-0.214355	0.074219	0.956543	-1.050000	7.560000	-1.470000	136.00	0.12	0.09	0.50	0.25	1.25	2.00	2.75	2.75	1.25	5.75	1.50	0.50	1.25	2.00	6.25	2.25	0.25	0.75	-0.169434	0.109375	0.973145	-2.310000	-2.660000	1.610000	349.00	0.04	-0.19
2.21	0.00	0.00	1.25	0.25	1.50	0.00	1.00	0.50	2.50	0.75	0.25	0.00	0.50	3.00	0.25	0.00	-0.214844	0.071777	0.952148	-1.050000	7.630000	-1.400000	132.00	0.14	0.11	0.75	0.50	1.25	2.25	2.50	2.75	1.25	5.75	1.50	0.75	1.25	2.50	6.25	2.25	0.25	0.75	-0.166992	0.109375	0.980957	-2.240000	-2.660000	1.680000	362.00	0.03	-0.18
2.22	0.00	0.25	1.00	0.25	1.50	0.00	1.00	0.50	2.75	0.75	0.25	0.00	0.50	3.00	0.25	0.00	-0.215820	0.067871	0.954590	-0.980000	7.770000	-1.470000	134.00	0.14	0.10	0.75	0.25	1.25	2.00	2.75	2.75	1.25	5.75	1.25	0.50	1.50	2.00	6.25	2.25	0.25	1.00	-0.170410	0.105957	0.974609	-2.240000	-2.660000	1.680000	352.00	0.03	-0.19
2.23	0.00	0.00	1.00	0.25	1.25	0.00	1.00	0.50	2.75	0.75	0.50	0.00	0.75	2.50	0.25	0.00	-0.213867	0.073242	0.955078	-1.050000	7.840000	-1.540000	130.00	0.15	0.09	0.75	0.75	1.25	1.50	2.50	2.75	1.25	5.50	1.50	0.50	1.25	2.25	6.25	2.25	0.25	0.75	-0.165039	0.109375	0.981445	-2.100000	-2.660000	1.680000	347.00	0.03	-0.18
2.24	0.25	0.25	1.25	0.00	1.25	0.00	1.00	0.50	3.00	0.75	0.50	0.00	0.75	2.50	0.25	0.00	-0.218750	0.069824	0.951172	-0.980000	7.840000	-1.400000	138.00	0.13	0.10	0.50	0.25	1.25	1.50	2.75	2.75	1.25	5.75	1.25	0.75	1.25	2.25	6.25	2.00	0.25	0.75	-0.169922	0.106934	0.974121	-2.170000	-2.730000	1.750000	343.00	0.04	-0.19
2.25	0.25	0.00	0.75	0.00	1.50	0.00	1.00	0.50	2.50	0.75	0.25	0.00	0.75	2.75	0.00	0.00	-0.215820	0.069824	0.954102	-1.190000	7.420000	-1.330000	123.00	0.14	0.11	0.50	0.00	1.00	1.75	2.50	2.75	1.25	5.75	1.50	0.50	1.25	2.50	6.25	2.50	0.50	0.75	-0.165039	0.117188	0.977539	-2.170000	-2.590000	1.750000	348.00	0.05	-0.19
2.26	0.00	0.00	1.00	0.25	1.25	0.00	1.00	0.50	3.00	1.00	0.50	0.00	0.50	3.00	0.25	0.00	-0.217285	0.075195	0.958008	-1.260000	7.490000	-1.330000	138.00	0.16	0.11	0.50	0.25	1.00	1.50	2.50	2.50	1.25	5.75	1.50	0.50	1.25	2.25	6.50	2.50	0.25	1.00	-0.170898	0.107422	0.979004	-2.170000	-2.520000	1.680000	344.00	0.05	-0.19
2.27	0.00	0.00	1.00	0.25	1.25	0.00	1.00	0.50	3.25	1.00	0.50	0.00	0.75	3.00	0.25	0.00	-0.209961	0.073242	0.953613	-0.980000	7.560000	-1.260000	143.00	0.16	0.10	0.75	0.25	1.25	1.75	2.25	3.00	1.25	5.75	1.50	0.50	1.25	2.25	6.00	2.25	0.25	1.00	-0.173828	0.113770	0.982422	-2.170000	-2.520000	1.750000	348.00	0.04	-0.19
2.28	0.00	0.00	0.75	0.00	1.25	0.00	1.00	0.50	3.00	1.00	0.50	0.00	0.75	3.00	0.25	0.00	-0.220215	0.072266	0.955078	-0.980000	8.050000	-1.400000	134.00	0.18	0.11	0.25	0.25	1.00	1.75	2.50	2.75	1.25	5.75	1.25	0.50	1.50	2.25	6.25	2.25	0.25	0.75	-0.170410	0.108887	0.978027	-2.240000	-2.520000	1.750000	340.00	0.05	-0.20
2.29	0.00	0.00	1.00	0.00	1.25	0.00	1.00	0.50	3.25	1.00	0.50	0.00	0.75	3.25	0.25	0.00	-0.217285	0.073730	0.951172	-0.840000	8.470000	-1.470000	143.00	0.17	0.11	0.50	0.25	0.75	2.00	2.50	2.50	1.25	5.75	1.50	0.50	1.50	2.00	6.25	2.25	0.25	1.00	-0.174316	0.108887	0.976074	-2.170000	-2.590000	1.820000	342.00	0.05	-0.19
2.30	0.00	0.00	0.75	0.00	1.25	0.00	1.00	0.50	3.25	1.00	0.50	0.00	0.75	3.00	0.25	0.00	-0.221680	0.071289	0.951660	-0.770000	8.610000	-1.470000	138.00	0.18	0.11	0.50	0.25	1.25	2.00	2.50	2.25	1.25	5.75	1.50	0.75	1.25	2.25	6.25	2.25	0.25	1.00	-0.167969	0.106934	0.979980	-2.170000	-2.520000	1.820000	347.00	0.04	-0.19
2.31	0.00	0.00	0.75	0.00	1.00	0.00	1.00	0.50	3.75	1.00	0.75	0.00	0.75	3.25	0.25	0.00	-0.218262	0.071777	0.954102	-0.560000	8.260000	-1.400000	146.00	0.19	0.12	0.50	0.25	0.75	1.75	2.50	2.25	1.25	5.75	1.25	0.75	1.50	2.25	6.25	2.25	0.25	1.00	-0.173828	0.107910	0.975586	-2.100000	-2.380000	1.680000	338.00	0.05	-0.19
2.32	0.00	0.00	0.50	0.00	1.00	0.00	1.00	0.50	3.75	1.25	0.50	0.00	0.75	3.25	0.25	0.00	-0.218262	0.074707	0.953125	-0.560000	8.260000	-1.400000	143.00	0.20	0.12	0.50	0.50	1.00	1.75	2.50	2.50	1.25	5.75	1.50	0.75	1.25	2.25	6.25	2.25	0.50	0.75	-0.170410	0.110840	0.978516	-2.100000	-2.660000	1.680000	348.00	0.05	-0.19
2.33	0.00	0.00	0.50	0.00	1.25	0.00	1.00	0.50	3.75	1.25	0.75	0.00	1.00	3.50	0.25	0.00	-0.216797	0.070801	0.956055	-0.770000	8.540000	-1.400000	153.00	0.20	0.11	0.25	0.25	1.00	1.50	2.50	2.25	1.25	5.75	1.25	0.50	1.50	2.25	6.00	2.25	0.25	0.75	-0.167480	0.113281	0.978516	-2.100000	-2.660000	1.820000	330.00	0.05	-0.19
2.34	0.00	0.00	0.75	0.00	1.00	0.00	1.00	0.50	3.75	1.25	0.75	0.00	1.00	3.25	0.50	0.00	-0.214844	0.072266	0.959473	-0.770000	8.610000	-1.330000	154.00	0.20	0.10	0.25	0.25	0.75	1.50	2.50	2.25	1.25	5.75	1.25	0.75	1.25	2.25	6.25	2.25	0.25	1.00	-0.165039	0.103027	0.979980	-2.100000	-2.660000	1.750000	330.00	0.06	-0.20
2.35	0.00	0.00	0.75	0.00	0.75	0.00	1.00	0.50	3.75	1.25	0.75	0.00	0.75	3.50	0.25	0.00	-0.212891	0.074219	0.956543	-0.700000	8.470000	-1.470000	148.00	0.20	0.12	0.50	0.25	1.00	1.75	2.50	2.25	1.25	5.75	1.75	0.75	1.50	2.50	6.25	2.50	0.50	0.75	-0.165527	0.109863	0.979980	-2.030000	-2.520000	1.820000	354.00	0.06	-0.18
2.36	0.00	0.00	0.75	0.00	0.75	0.00	1.00	0.50	3.75	1.25	0.75	0.00	1.00	3.75	0.25	0.00	-0.219727	0.072754	0.951660	-0.770000	8.400000	-1.470000	152.00	0.20	0.11	0.25	0.25	1.00	1.75	2.50	2.25	1.50	5.75	1.50	0.75	1.50	2.50	6.50	2.50	0.25	1.00	-0.168457	0.111816	0.977539	-2.030000	-2.310000	1.750000	353.00	0.06	-0.18
2.37	0.00	0.00	0.50	0.00	0.75	0.00	1.00	0.25	3.75	1.25	0.75	0.00	0.75	4.00	0.50	0.00	-0.212891	0.078125	0.953613	-0.840000	8.190000	-1.540000	148.00	0.23	0.13	0.75	0.50	1.25	1.25	2.50	2.50	1.25	5.75	1.50	0.75	1.50	2.50	6.50	2.50	0.25	1.25	-0.172363	0.112793	0.983398	-1.960000	-2.310000	1.750000	358.00	0.05	-0.18
2.38	0.00	0.00	0.50	0.25	0.75	0.00	1.00	0.25	4.25	1.50	1.00	0.00	1.00	3.50	0.25	0.25	-0.222656	0.073730	0.949707	-0.910000	8.260000	-1.610000	160.00	0.21	0.11	0.50	0.50	0.75	1.50	2.50	2.25	1.50	5.75	1.50	0.75	1.50	2.50	6.50	2.50	0.50	1.00	-0.175781	0.108887	0.983398	-2.030000	-2.240000	1.820000	355.00	0.06	-0.18
2.39	0.00	0.00	0.25	0.00	0.75	0.00	1.00	0.50	4.25	1.75	1.00	0.00	0.75	4.00	0.25	0.25	-0.217773	0.071777	0.953125	-0.910000	8.400000	-1.610000	163.00	0.23	0.12	0.25	0.00	1.00	1.25	2.25	2.25	1.25	5.75	1.75	0.75	1.75	2.50	6.25	2.25	0.25	1.00	-0.169922	0.106934	0.978027	-2.030000	-2.310000	1.890000	340.00	0.07	-0.19
2.40	0.00	0.00	0.50	0.00	0.75	0.00	1.00	0.25	4.25	1.50	0.75	0.00	1.00	4.00	0.25	0.25	-0.220215	0.075684	0.951172	-0.770000	8.260000	-1.540000	159.00	0.22	0.13	0.50	0.00	0.75	1.25	2.50	2.00	1.25	5.75	1.75	1.00	1.50	2.50	6.50	2.50	0.25	1.00	-0.170410	0.110840	0.978516	-2.100000	-2.380000	1.820000	344.00	0.07	-0.18
2.41	0.00	0.00	0.25	0.00	0.75	0.00	1.00	0.25	4.50	1.50	0.75	0.00	1.00	4.00	0.50	0.00	-0.218750	0.072754	0.954102	-0.770000	8.050000	-1.470000	160.00	0.24	0.13	0.25	0.00	0.75	1.25	2.25	2.00	1.25	5.75	1.75	0.75	1.50	2.50	6.50	2.75	0.50	1.00	-0.172363	0.109863	0.977051	-1.960000	-1.960000	1.890000	341.00	0.08	-0.18
2.42	0.00	0.00	0.50	0.00	0.50	0.00	1.00	0.25	4.50	2.00	1.00	0.00	1.00	4.25	0.50	0.00	-0.217773	0.075195	0.953613	-0.770000	8.190000	-1.400000	170.00	0.24	0.13	0.50	0.00	0.75	1.25	2.25	2.25	1.25	5.75	1.50	0.75	1.75	2.75	6.50	2.50	0.25	1.00	-0.173828	0.108887	0.978027	-1.820000	-1.960000	1.960000	343.00	0.07	-0.19
2.43	0.00	0.00	0.25	0.00	0.50	0.00	0.75	0.25	5.00	1.75	0.75	0.00	1.00	4.00	0.50	0.25	-0.222168	0.079102	0.950195	-0.910000	8.260000	-1.400000	164.00	0.25	0.13	0.50	0.00	0.75	1.00	2.25	2.00	1.25	5.75	1.50	0.75	1.75	2.50	6.50	2.50	0.25	1.00	-0.170410	0.112793	0.977051	-1.680000	-1.890000	1.820000	335.00	0.07	-0.19
2.44	0.00	0.00	0.50	0.00	0.50	0.00	0.75	0.50	5.00	1.50	1.00	0.00	1.00	4.50	0.50	0.25	-0.223633	0.078613	0.953613	-0.700000	8.260000	-1.540000	175.00	0.24	0.12	0.25	0.00	0.50	1.50	2.25	1.75	1.25	5.75	1.75	1.00	1.50	2.75	6.75	2.75	0.25	1.00	-0.174316	0.108887	0.970215	-1.680000	-1.750000	1.820000	343.00	0.08	-0.19
2.45	0.00	0.00	0.50	0.00	0.50	0.00	1.00	0.25	5.00	2.00	1.25	0.00	1.25	4.25	0.25	0.25	-0.216309	0.072266	0.949707	-0.770000	8.470000	-1.540000	180.00	0.23	0.12	0.25	0.00	0.75	1.50	2.25	2.00	1.25	5.75	1.75	1.00	1.75	2.50	6.75	2.50	0.50	1.00	-0.171387	0.109863	0.976074	-1.610000	-1.680000	1.890000	349.00	0.08	-0.19
2.46	0.00	0.00	0.25	0.00	0.50	0.00	0.75	0.25	4.75	2.00	1.00	0.00	1.00	4.25	0.25	0.25	-0.218750	0.077637	0.950684	-0.700000	8.540000	-1.610000	166.00	0.25	0.13	0.25	0.00	0.75	1.00	2.00	1.75	1.25	5.50	1.75	1.00	1.50	3.00	7.00	2.75	0.25	1.25	-0.170410	0.115234	0.978027	-1.680000	-1.540000	1.890000	340.00	0.09	-0.19
2.47	0.00	0.00	0.75	0.00	0.25	0.00	1.00	0.50	5.25	2.00	1.00	0.00	1.00	4.25	0.50	0.25	-0.219727	0.073730	0.948242	-0.770000	8.750000	-1.750000	185.00	0.23	0.12	0.25	0.00	0.50	1.00	2.00	1.75	1.25	5.50	1.75	1.00	2.00	2.75	6.75	2.75	0.25	1.00	-0.172852	0.113281	0.979980	-1.680000	-1.540000	1.890000	336.00	0.09	-0.19
2.48	0.00	0.00	0.25	0.00	0.50	0.00	0.75	0.25	5.25	2.00	1.00	0.00	1.00	4.50	0.50	0.25	-0.222656	0.074219	0.947754	-0.770000	8.540000	-1.750000	177.00	0.25	0.13	0.25	0.00	0.75	1.00	2.00	1.75	1.25	5.50	2.00	1.00	2.00	2.75	7.00	2.75	0.25	1.25	-0.173828	0.113281	0.976074	-1.750000	-1.400000	1.960000	346.00	0.09	-0.18
2.49	0.00	0.00	0.25	0.00	0.25	0.00	0.75	0.50	5.00	2.00	1.25	0.00	1.00	4.50	0.50	0.25	-0.226562	0.070801	0.953125	-0.770000	8.680000	-1.680000	177.00	0.25	0.11	0.25	0.00	0.75	0.75	2.00	1.75	1.25	5.50	2.00	1.25	1.75	2.75	7.00	2.50	0.25	1.00	-0.176270	0.111328	0.976074	-1.820000	-1.120000	1.960000	339.00	0.09	-0.18
2.50	0.00	0.00	0.00	0.00	0.50	0.00	0.75	0.50	5.25	2.00	1.00	0.00	1.25	4.75	0.50	0.25	-0.228027	0.075195	0.956055	-0.700000	8.680000	-1.820000	182.00	0.25	0.11	0.25	0.00	0.50	1.00	2.00	1.50	1.25	5.50	1.75	1.25	2.00	2.75	7.00	3.00	0.25	1.00	-0.182129	0.107422	0.970215	-1.680000	-1.050000	1.960000	340.00	0.10	-0.18
2.51	0.00	0.00	0.25	0.00	0.50	0.00	0.75	0.25	5.25	2.50	1.25	0.00	1.00	4.50	0.25	0.25	-0.222656	0.067871	0.951172	-0.630000	8.610000	-1.820000	182.00	0.25	0.13	0.25	0.00	0.50	0.75	1.75	1.50	1.25	5.50	2.00	1.25	2.00	3.00	7.25	3.00	0.50	1.25	-0.172363	0.111328	0.970215	-1.610000	-1.050000	2.030000	347.00	0.11	-0.18
2.52	0.00	0.00	0.00	0.00	0.25	0.00	0.75	0.25	5.25	2.25	1.25	0.00	1.25	4.50	0.50	0.25	-0.226074	0.076172	0.948730	-0.700000	9.030000	-1.890000	179.00	0.26	0.12	0.00	0.00	0.50	0.50	1.50	1.25	1.25	5.75	2.00	1.25	2.00	3.00	7.25	3.00	0.50	1.00	-0.174805	0.109863	0.978027	-1.680000	-1.260000	1.960000	338.00	0.12	-0.19
2.53	0.00	0.00	0.00	0.00	0.50	0.00	0.75	0.50	5.50	2.25	1.25	0.00	1.25	4.75	0.75	0.25	-0.228027	0.072754	0.951172	-0.770000	9.170000	-1.680000	193.00	0.26	0.11	0.25	0.00	0.25	0.75	1.50	1.25	1.25	5.50	2.00	1.25	2.00	2.75	7.25	3.00	0.50	1.25	-0.179688	0.109375	0.970215	-2.030000	-1.400000	1.820000	336.00	0.11	-0.19
2.54	0.00	0.00	0.00	0.00	0.25	0.00	0.75	0.25	5.50	2.50	1.25	0.00	1.25	5.00	0.75	0.25	-0.226562	0.073730	0.949707	-0.700000	8.820000	-1.610000	192.00	0.27	0.12	0.25	0.25	0.50	1.00	1.50	1.00	1.25	5.75	2.25	1.25	2.00	3.00	7.25	3.00	0.50	1.25	-0.174805	0.114258	0.979980	-1.960000	-1.330000	1.890000	351.00	0.11	-0.18
2.55	0.00	0.00	0.00	0.00	0.25	0.00	0.75	0.25	5.50	2.25	1.25	0.00	1.25	5.00	0.50	0.25	-0.225586	0.078125	0.954102	-0.770000	8.680000	-1.470000	186.00	0.27	0.12	0.25	0.00	0.25	0.75	1.50	1.25	1.25	5.50	2.00	1.25	2.00	3.00	7.50	3.25	0.25	1.25	-0.177246	0.114258	0.978516	-1.750000	-1.190000	1.820000	340.00	0.12	-0.19
2.56	0.00	0.00	0.00	0.00	0.25	0.00	0.75	0.25	5.50	2.50	1.50	0.00	1.25	5.00	0.50	0.25	-0.227051	0.083496	0.954590	-0.910000	8.540000	-1.330000	192.00	0.27	0.12	0.00	0.00	0.25	0.75	1.50	1.00	1.25	5.50	2.25	1.25	2.00	3.00	7.25	3.00	0.25	1.25	-0.176758	0.115234	0.973633	-1.680000	-0.980000	1.820000	334.00	0.12	-0.18
2.57	0.00	0.00	0.00	0.00	0.25	0.00	0.75	0.25	5.75	2.75	1.25	0.00	1.25	5.00	0.25	0.25	-0.229492	0.078125	0.942383	-0.840000	8.400000	-1.470000	192.00	0.26	0.13	0.25	0.00	0.25	0.50	1.25	0.75	1.25	5.50	2.25	1.25	2.50	3.25	7.25	3.25	0.25	1.00	-0.181152	0.115234	0.975098	-1.610000	-1.050000	1.750000	337.00	0.13	-0.18
2.58	0.00	0.00	0.00	0.00	0.00	0.00	0.75	0.50	5.50	2.50	1.50	0.00	1.00	4.75	0.75	0.25	-0.228027	0.073730	0.951660	-0.910000	8.400000	-1.470000	191.00	0.27	0.11	0.25	0.00	0.25	0.75	1.50	1.00	1.25	5.50	2.25	1.25	2.00	3.00	7.50	3.50	0.50	1.25	-0.180176	0.112305	0.964844	-1.610000	-0.980000	1.820000	345.00	0.12	-0.18
2.59	0.00	0.00	0.00	0.00	0.25	0.00	0.75	0.25	5.50	2.75	1.25	0.00	1.00	5.00	0.50	0.25	-0.226562	0.074707	0.953125	-0.910000	8.470000	-1.540000	189.00	0.27	0.13	0.00	0.00	0.00	0.25	1.25	1.00	1.25	5.50	2.00	1.25	2.00	3.25	7.50	3.50	0.25	1.25	-0.175781	0.110840	0.972656	-1.540000	-0.910000	1.960000	329.00	0.14	-0.19
2.60	0.00	0.00	0.00	0.00	0.25	0.00	0.75	0.25	5.75	2.50	1.50	0.00	1.25	5.00	0.50	0.25	-0.221191	0.076660	0.952148	-0.980000	8.330000	-1.470000	195.00	0.27	0.12	0.00	0.00	0.00	0.50	1.25	0.75	1.25	5.50	2.25	1.50	2.00	2.75	7.50	3.50	0.50	1.25	-0.179199	0.111328	0.971191	-1.470000	-0.770000	1.750000	332.00	0.14	-0.18
2.61	0.00	0.00	0.00	0.00	0.25	0.00	0.75	0.25	6.25	2.75	1.50	0.00	1.25	5.00	0.75	0.25	-0.230469	0.075195	0.949707	-0.980000	8.470000	-1.680000	207.00	0.27	0.12	0.00	0.00	0.25	0.50	1.00	0.75	1.00	5.50	2.25	1.25	2.50	3.25	7.50	3.25	0.25	1.25	-0.183105	0.109863	0.974609	-1.400000	-0.490000	1.750000	331.00	0.14	-0.19
2.62	0.00	0.00	0.00	0.00	0.00	0.00	0.75	0.25	6.25	2.50	1.50	0.00	1.00	5.00	0.50	0.25	-0.229004	0.072754	0.954590	-0.840000	8.610000	-1.680000	196.00	0.27	0.13	0.00	0.00	0.00	0.25	1.00	0.50	1.25	5.25	2.25	1.50	2.25	3.00	7.50	3.75	0.50	1.50	-0.182617	0.110352	0.973633	-1.400000	-0.420000	1.820000	329.00	0.15	-0.18
2.63	0.00	0.00	0.00	0.00	0.00	0.00	0.75	0.25	6.25	2.75	1.50	0.00	1.25	5.25	0.25	0.25	-0.225098	0.078125	0.949707	-0.700000	9.030000	-1.750000	201.00	0.27	0.13	0.25	0.00	0.00	0.00	1.00	0.75	1.00	5.25	2.25	1.00	2.50	3.25	7.25	3.75	0.50	1.50	-0.174805	0.114258	0.979004	-1.470000	-0.560000	1.960000	325.00	0.15	-0.18
2.64	0.00	0.00	0.00	0.00	0.00	0.00	0.75	0.25	6.50	3.00	1.50	0.00	1.25	5.25	0.75	0.50	-0.229492	0.073730	0.948242	-0.630000	9.240000	-1.680000	213.00	0.27	0.12	0.00	0.00	0.00	0.00	1.00	0.75	1.00	5.25	2.25	1.25	2.25	3.25	7.50	4.00	0.75	1.25	-0.178223	0.108398	0.975586	-1.610000	-0.560000	1.960000	328.00	0.16	-0.18
2.65	0.00	0.00	0.00	0.00	0.25	0.00	0.75	0.25	6.50	2.75	1.75	0.00	1.00	5.50	0.50	0.50	-0.225098	0.078613	0.951660	-0.560000	9.380000	-1.540000	213.00	0.27	0.13	0.00	0.00	0.00	0.00	0.75	0.50	1.00	5.25	2.00	1.25	2.25	3.25	7.50	4.00	0.50	1.25	-0.182617	0.117676	0.971191	-1.540000	-0.630000	1.820000	317.00	0.16	-0.19
2.66	0.00	0.00	0.00	0.00	0.00	0.00	0.75	0.00	6.75	3.00	1.50	0.00	1.25	5.50	0.50	0.25	-0.227539	0.073730	0.947266	-0.700000	9.310000	-1.470000	211.00	0.28	0.14	0.00	0.00	0.00	0.25	0.50	0.25	1.00	5.00	2.25	1.25	2.25	3.50	7.50	4.00	0.25	1.25	-0.178223	0.115234	0.974121	-1.540000	-0.560000	1.820000	314.00	0.16	-0.19
2.67	0.00	0.00	0.00	0.00	0.00	0.00	0.75	0.00	6.75	3.00	1.75	0.00	1.00	5.25	0.50	0.25	-0.228516	0.084473	0.950684	-0.980000	9.030000	-1.400000	209.00	0.28	0.14	0.00	0.00	0.00	0.00	0.75	0.25	1.00	5.00	2.50	1.50	2.25	3.50	7.50	4.00	0.25	1.25	-0.180664	0.110840	0.983398	-1.400000	-0.630000	1.820000	320.00	0.16	-0.18
2.68	0.00	0.00	0.00	0.00	0.00	0.00	0.75	0.00	7.25	3.25	1.75	0.00	1.25	5.50	0.50	0.25	-0.228516	0.078125	0.950195	-1.120000	8.680000	-1.400000	223.00	0.28	0.14	0.00	0.00	0.00	0.00	0.75	0.25	1.00	5.25	2.50	1.50	2.25	3.50	7.50	4.25	0.75	1.25	-0.182617	0.112793	0.969238	-1.470000	-0.630000	1.750000	331.00	0.17	-0.18
2.69	0.00	0.00	0.00	0.00	0.25	0.00	0.75	0.25	7.00	2.75	1.75	0.00	1.25	5.75	0.75	0.50	-0.229492	0.073730	0.955566	-1.120000	8.960000	-1.540000	227.00	0.27	0.13	0.00	0.00	0.25	0.00	0.50	0.25	1.00	5.25	2.25	1.50	2.50	3.75	7.50	4.25	0.75	1.50	-0.182617	0.117188	0.976562	-1.540000	-0.490000	1.680000	334.00	0.17	-0.18
2.70	0.00	0.00	0.00	0.00	0.00	0.00	0.75	0.25	7.25	3.25	1.75	0.00	1.25	5.75	0.50	0.25	-0.234375	0.076172	0.953613	-1.120000	9.590000	-1.680000	229.00	0.27	0.13	0.00	0.00	0.00	0.00	0.25	0.00	1.00	5.00	2.25	1.50	2.75	3.50	7.50	4.00	0.75	1.50	-0.181152	0.118652	0.973145	-1.610000	-0.490000	1.820000	320.00	0.18	-0.18
2.71	0.00	0.00	0.00	0.00	0.00	0.00	0.75	0.25	7.25	3.00	1.75	0.00	1.25	6.00	0.75	0.25	-0.237793	0.075684	0.948730	-1.050000	9.870000	-1.540000	231.00	0.28	0.13	0.00	0.00	0.00	0.25	0.50	0.00	1.00	5.25	2.50	1.25	2.50	3.75	7.50	4.25	0.50	1.25	-0.181152	0.115234	0.973633	-1.470000	-0.420000	1.820000	328.00	0.17	-0.18
2.72	0.00	0.00	0.00	0.00	0.00	0.00	0.75	0.00	7.50	3.25	2.00	0.00	1.25	6.25	0.50	0.25	-0.230957	0.076172	0.944336	-0.910000	9.730000	-1.470000	235.00	0.28	0.14	0.00	0.00	0.00	0.00	0.50	0.00	1.00	5.00	2.25	1.50	2.75	3.75	7.50	4.25	0.50	1.25	-0.185059	0.111816	0.973145	-1.400000	-0.350000	1.890000	323.00	0.17	-0.18
2.73	0.00	0.00	0.00	0.00	0.00	0.00	0.75	0.25	7.50	3.00	1.75	0.00	1.00	6.50	0.75	0.25	-0.239258	0.077637	0.949219	-0.630000	9.450000	-1.330000	236.00	0.28	0.14	0.00	0.00	0.00	0.00	0.50	0.00	1.00	4.75	2.75	1.25	2.50	3.75	7.50	4.25	0.50	1.25	-0.180664	0.114258	0.971680	-1.400000	-0.280000	1.820000	321.00	0.18	-0.17
2.74	0.00	0.00	0.00	0.00	0.00	0.00	0.75	0.00	7.50	3.25	1.50	0.00	1.25	6.50	0.75	0.25	-0.237793	0.081055	0.954590	-0.770000	9.520000	-1.190000	234.00	0.28	0.14	0.00	0.00	0.00	0.00	0.50	0.00	1.00	5.00	2.25	1.50	2.75	3.75	7.50	4.50	0.50	1.50	-0.181152	0.118164	0.971680	-1.260000	-0.140000	1.820000	327.00	0.18	-0.18
2.75	0.00	0.00	0.00	0.00	0.00	0.00	0.75	0.25	7.25	3.25	1.50	0.00	1.25	6.50	0.75	0.50	-0.234863	0.073730	0.943848	-0.700000	9.730000	-1.260000	236.00	0.28	0.13	0.00	0.00	0.00	0.00	0.25	0.00	1.00	4.50	2.25	1.50	2.50	3.75	7.50	4.50	0.50	1.25	-0.181152	0.114258	0.970215	-1.400000	-0.140000	1.820000	313.00	0.18	-0.17
2.76	0.00	0.00	0.00	0.00	0.00	0.00	0.75	0.00	7.25	3.25	1.75	0.00	1.25	7.00	0.50	0.50	-0.233887	0.076660	0.947754	-0.770000	9.660000	-1.190000	237.00	0.28	0.14	0.00	0.00	0.00	0.00	0.25	0.00	1.00	4.75	2.25	1.75	2.50	3.75	7.50	5.00	0.50	1.50	-0.187012	0.113770	0.978027	-1.540000	-0.140000	1.820000	325.00	0.18	-0.17
2.77	0.00	0.00	0.00	0.00	0.00	0.00	0.75	0.25	7.50	3.25	1.75	0.00	1.00	7.00	0.75	0.50	-0.236328	0.079102	0.948730	-0.770000	9.520000	-1.260000	244.00	0.28	0.14	0.00	0.00	0.00	0.00	0.25	0.00	1.00	4.75	2.50	1.50	2.50	3.75	7.50	4.75	0.50	1.50	-0.178711	0.115234	0.974121	-1.400000	-0.070000	1.750000	323.00	0.18	-0.17
2.78	0.00	0.00	0.00	0.00	0.00	0.00	0.75	0.00	7.50	3.25	2.00	0.00	1.00	6.75	0.75	0.25	-0.232910	0.081055	0.946289	-0.910000	9.100000	-1.260000	240.00	0.28	0.14	0.00	0.00	0.00	0.00	0.25	0.00	1.00	4.50	2.50	1.75	2.75	3.75	7.75	4.75	0.50	1.50	-0.183105	0.116699	0.970215	-1.330000	-0.140000	1.890000	327.00	0.19	-0.17
2.79	0.00	0.00	0.00	0.00	0.00	0.00	0.50	0.00	7.75	3.25	1.50	0.00	1.25	7.00	0.50	0.25	-0.236816	0.078613	0.951660	-0.910000	8.400000	-1.330000	235.00	0.29	0.15	0.00	0.00	0.00	0.00	0.00	0.00	1.00	4.50	2.50	1.75	2.75	4.00	7.50	5.00	0.75	1.50	-0.192383	0.116211	0.976562	-1.260000	-0.070000	1.750000	329.00	0.19	-0.17
2.80	0.00	0.00	0.00	0.00	0.00	0.00	0.50	0.00	7.75	3.50	2.00	0.00	1.25	7.50	0.75	0.50	-0.233887	0.078613	0.952148	-0.770000	8.400000	-1.470000	252.00	0.29	0.14	0.00	0.00	0.00	0.00	0.25	0.00	1.00	4.25	2.50	1.50	2.75	4.00	7.50	4.75	0.50	1.25	-0.185059	0.112305	0.971680	-1.260000	-0.210000	1.750000	319.00	0.19	-0.17
2.81	0.00	0.00	0.00	0.00	0.00	0.00	0.75	0.00	7.75	3.50	2.00	0.00	1.25	7.50	0.50	0.25	-0.241699	0.076172	0.947754	-0.630000	8.260000	-1.540000	251.00	0.28	0.14	0.00	0.00	0.00	0.00	0.25	0.00	1.00	4.25	2.75	1.50	2.75	4.00	7.50	4.75	0.75	1.50	-0.191406	0.117676	0.976562	-1.400000	-0.350000	1.820000	327.00	0.19	-0.16
2.82	0.00	0.00	0.00	0.00	0.00	0.00	0.50	0.00	7.75	3.50	1.75	0.00	1.50	7.25	0.50	0.50	-0.235840	0.078613	0.944336	-0.840000	7.490000	-1.610000	246.00	0.29	0.14	0.00	0.00	0.00	0.00	0.00	0.00	1.00	4.25	2.25	1.50	2.75	3.75	7.75	5.00	1.00	1.50	-0.186035	0.113281	0.969727	-1.470000	-0.490000	1.820000	322.00	0.19	-0.17
2.83	0.00	0.00	0.00	0.00	0.00	0.00	0.50	0.00	7.75	3.50	2.00	0.00	1.25	7.50	0.75	0.50	-0.233398	0.082031	0.945312	-1.610000	6.860000	-1.540000	252.00	0.29	0.14	0.00	0.00	0.00	0.00	0.25	0.00	1.00	4.25	2.50	1.50	3.00	4.00	7.75	5.00	0.50	1.50	-0.182617	0.118164	0.966797	-1.470000	-0.630000	1.680000	328.00	0.19	-0.16
2.84	0.00	0.00	0.00	0.00	0.00	0.00	0.75	0.25	7.50	3.50	2.00	0.00	1.25	7.50	0.75	0.50	-0.235840	0.079102	0.945312	-2.170000	6.230000	-1.540000	256.00	0.28	0.13	0.00	0.00	0.00	0.00	0.00	0.00	1.00	4.00	2.50	1.75	3.00	4.00	7.75	5.00	0.50	1.50	-0.188477	0.115234	0.966309	-1.540000	-0.700000	1.750000	324.00	0.20	-0.16
2.85	0.00	0.00	0.00	0.00	0.00	0.00	0.50	0.00	7.50	3.50	2.00	0.00	1.25	7.75	0.75	0.25	-0.236328	0.080566	0.946777	-2.380000	5.880000	-1.610000	249.00	0.29	0.14	0.00	0.00	0.00	0.00	0.00	0.00	1.00	4.00	2.50	2.00	3.00	4.00	7.75	5.00	0.50	1.50	-0.188965	0.115723	0.974609	-1.470000	-0.770000	1.890000	326.00	0.20	-0.16
2.86	0.00	0.00	0.00	0.00	0.00	0.00	0.75	0.00	7.50	3.75	2.00	0.00	1.25	7.75	0.50	0.50	-0.238770	0.075195	0.950684	-2.310000	5.740000	-1.750000	254.00	0.28	0.14	0.00	0.00	0.00	0.00	0.00	0.00	0.75	4.00	2.50	1.50	3.00	4.00	7.75	5.00	0.75	1.50	-0.186523	0.118164	0.972656	-1.470000	-0.700000	1.750000	320.00	0.20	-0.17
2.87	0.00	0.00	0.00	0.00	0.00	0.00	0.75	0.00	7.75	3.50	2.00	0.00	1.00	7.75	0.75	0.25	-0.236328	0.079590	0.951660	-2.380000	5.880000	-1.890000	254.00	0.29	0.15	0.00	0.00	0.00	0.00	0.25	0.00	1.00	3.75	2.50	1.75	3.00	4.25	7.75	5.25	0.50	1.50	-0.190918	0.115723	0.973145	-1.400000	-0.420000	1.680000	327.00	0.20	-0.16
2.88	0.00	0.00	0.00	0.00	0.00	0.00	0.75	0.00	7.75	3.50	1.75	0.00	1.50	8.25	1.00	0.25	-0.235352	0.080078	0.945801	-2.310000	6.580000	-1.960000	263.00	0.29	0.14	0.00	0.00	0.00	0.00	0.25	0.00	0.75	3.75	2.75	1.75	3.25	4.25	7.75	5.25	0.75	1.50	-0.186035	0.116211	0.973145	-1.190000	-0.280000	1.750000	332.00	0.20	-0.16
2.89	0.00	0.00	0.00	0.00	0.00	0.00	0.75	0.00	7.75	3.50	1.75	0.00	1.00	8.25	0.75	0.25	-0.242676	0.083984	0.956543	-2.380000	7.280000	-1.820000	256.00	0.29	0.15	0.00	0.00	0.00	0.00	0.00	0.00	0.75	3.75	2.75	1.75	3.25	4.25	8.00	5.25	0.75	1.50	-0.183594	0.114258	0.974121	-1.190000	-0.280000	1.890000	332.00	0.20	-0.16
2.90	0.00	0.00	0.00	0.00	0.00	0.00	0.75	0.00	7.75	3.75	2.00	0.00	1.00	8.50	0.75	0.50	-0.238770	0.074707	0.949707	-3.220000	7.280000	-1.540000	264.00	0.29	0.14	0.00	0.00	0.00	0.00	0.00	0.00	1.00	3.50	2.50	1.50	3.25	4.50	7.75	5.50	0.50	1.50	-0.188477	0.115234	0.969727	-1.190000	-0.280000	1.820000	326.00	0.20	-0.16
2.91	0.00	0.00	0.00	0.00	0.00	0.00	0.75	0.25	7.75	3.50	2.00	0.00	1.25	8.75	0.75	0.50	-0.233887	0.079590	0.952148	-3.640000	7.210000	-1.540000	270.00	0.29	0.13	0.00	0.00	0.00	0.00	0.00	0.00	0.75	3.75	2.50	2.00	3.25	4.25	7.75	5.50	0.50	1.50	-0.189941	0.113770	0.967285	-1.330000	-0.210000	1.750000	328.00	0.20	-0.16
2.92	0.00	0.00	0.00	0.00	0.00	0.00	0.75	0.00	8.00	3.50	1.75	0.00	1.00	9.00	0.75	0.50	-0.234863	0.078125	0.956055	-3.430000	8.330000	-1.890000	267.00	0.29	0.15	0.00	0.00	0.00	0.00	0.00	0.00	1.00	3.75	2.50	2.00	3.50	4.50	7.75	5.50	0.75	1.75	-0.188965	0.120117	0.964844	-1.330000	-0.420000	1.750000	341.00	0.20	-0.16
2.93	0.00	0.00	0.00	0.00	0.00	0.00	0.75	0.00	8.25	3.50	2.00	0.00	1.25	9.50	0.75	0.50	-0.242188	0.074219	0.948242	-2.940000	9.870000	-2.170000	279.00	0.29	0.14	0.00	0.00	0.00	0.00	0.00	0.00	0.75	3.50	2.50	1.75	3.25	4.50	7.75	5.50	0.50	1.50	-0.188965	0.122070	0.968750	-1.750000	-0.910000	1.750000	325.00	0.20	-0.16
2.94	0.00	0.00	0.00	0.00	0.00	0.00	0.75	0.00	7.75	3.50	1.75	0.00	1.25	9.75	0.75	0.50	-0.246094	0.072754	0.948242	-2.310000	11.550000	-2.240000	272.00	0.29	0.14	0.00	0.00	0.00	0.00	0.00	0.00	0.75	3.25	2.50	1.75	3.25	4.25	7.75	5.50	1.00	1.75	-0.192871	0.119629	0.968262	-1.960000	-1.190000	1.610000	325.00	0.21	-0.15
2.95	0.00	0.00	0.00	0.00	0.00	0.00	0.75	0.00	8.00	3.50	1.75	0.00	1.25	9.75	0.75	0.25	-0.240234	0.072266	0.947266	-1.680000	13.020000	-2.240000	274.00	0.29	0.15	0.00	0.00	0.00	0.00	0.00	0.00	0.75	3.25	2.75	1.75	3.25	4.50	7.75	5.75	0.75	1.50	-0.190918	0.121582	0.976074	-1.820000	-1.190000	1.540000	329.00	0.21	-0.15
2.96	0.00	0.00	0.00	0.00	0.00	0.00	0.75	0.00	8.00	3.75	2.00	0.00	1.25	10.00	0.75	0.50	-0.242676	0.073242	0.944336	-0.840000	14.140000	-2.030000	282.00	0.29	0.14	0.00	0.00	0.00	0.00	0.00	0.00	0.75	3.25	2.50	1.75	3.25	4.50	7.75	6.00	0.75	1.75	-0.200195	0.134766	0.976074	-1.960000	-1.190000	1.400000	329.00	0.21	-0.15
2.97	0.00	0.00	0.00	0.00	0.00	0.00	0.50	0.00	8.00	3.50	1.75	0.00	1.00	10.25	1.00	0.50	-0.245117	0.070801	0.948730	-0.210000	15.330000	-1.820000	276.00	0.30	0.15	0.00	0.00	0.00	0.00	0.00	0.00	0.75	3.25	2.50	1.50	3.25	4.50	7.75	5.75	0.75	1.50	-0.189941	0.117676	0.965332	-1.890000	-1.050000	1.330000	323.00	0.21	-0.16
2.98	0.00	0.00	0.00	0.00	0.00	0.00	0.50	0.00	8.00	3.50	2.00	0.00	1.25	10.25	1.00	0.50	-0.248047	0.073730	0.943359	0.280000	16.309999	-1.540000	281.00	0.30	0.14	0.00	0.00	0.00	0.00	0.00	0.00	0.75	3.00	2.50	1.75	3.25	4.50	7.75	6.25	0.75	1.50	-0.190918	0.111328	0.968262	-1.820000	-0.910000	1.330000	326.00	0.22	-0.15
2.99	0.00	0.00	0.00	0.00	0.00	0.00	0.50	0.00	8.00	3.50	1.75	0.00	1.00	10.50	1.00	0.25	-0.248047	0.069824	0.948730	0.700000	17.219999	-1.330000	277.00	0.30	0.15	0.00	0.00	0.00	0.00	0.00	0.00	0.75	3.25	2.50	1.75	3.50	4.25	7.75	6.25	0.50	1.50	-0.190430	0.121094	0.979004	-1.820000	-1.050000	1.540000	327.00	0.21	-0.15
3.00	0.00	0.00	0.00	0.00	0.00	0.00	0.50	0.00	8.00	3.50	1.75	0.00	1.25	10.75	1.00	0.25	-0.251953	0.080566	0.947754	0.700000	17.920000	-1.050000	281.00	0.30	0.14	0.00	0.00	0.00	0.00	0.00	0.00	0.75	3.25	2.50	2.00	3.50	4.50	7.75	6.25	0.75	1.50	-0.191406	0.114746	0.969727	-1.820000	-1.260000	1.680000	335.00	0.21	-0.15
3.01	0.00	0.00	0.00	0.00	0.00	0.00	0.50	0.00	8.00	3.25	1.75	0.00	1.00	10.50	1.00	0.50	-0.251953	0.080566	0.947754	0.700000	17.920000	-1.050000	276.00	0.30	0.15	0.00	0.00	0.00	0.00	0.00	0.00	0.75	3.00	2.75	1.50	3.25	4.50	8.00	6.25	0.75	1.50	-0.194824	0.117188	0.965820	-1.750000	-1.190000	1.680000	329.00	0.22	-0.15
3.02	0.00	0.00	0.00	0.00	0.00	0.00	0.50	0.00	8.00	3.25	1.75	0.00	1.00	10.75	1.00	0.50	-0.257324	0.073730	0.945801	0.700000	18.129999	-1.190000	278.00	0.30	0.15	0.00	0.00	0.00	0.00	0.00	0.00	0.75	3.00	2.50	1.75	3.25	4.75	7.75	6.25	0.50	1.50	-0.194824	0.116211	0.963379	-1.750000	-1.190000	1.750000	326.00	0.21	-0.15
3.03	0.00	0.00	0.00	0.00	0.00	0.00	0.50	0.00	8.00	3.50	1.75	0.00	1.00	10.50	1.00	0.50	-0.256836	0.079102	0.937500	0.630000	16.730000	-1.330000	278.00	0.30	0.15	0.00	0.00	0.00	0.00	0.00	0.00	0.75	3.00	2.75	1.50	3.50	4.75	8.00	6.50	0.75	1.75	-0.198242	0.118164	0.964844	-1.750000	-1.190000	1.750000	338.00	0.22	-0.15
3.04	0.00	0.00	0.00	0.00	0.00	0.00	0.50	0.00	8.00	3.50	1.75	0.00	1.00	10.75	1.00	0.50	-0.262207	0.078613	0.938477	0.350000	15.050000	-1.400000	280.00	0.30	0.15	0.00	0.00	0.00	0.00	0.00	0.00	0.75	2.75	2.75	1.75	3.50	4.50	7.75	6.50	0.50	1.75	-0.195312	0.119141	0.968750	-1.750000	-1.120000	1.750000	329.00	0.22	-0.14
3.05	0.00	0.00	0.00	0.00	0.00	0.00	0.50	0.00	8.00	3.50	1.50	0.00	1.00	10.75	1.00	0.25	-0.251953	0.083984	0.937012	-0.140000	12.880000	-1.540000	276.00	0.30	0.15	0.00	0.00	0.00	0.00	0.00	0.00	0.75	3.00	2.75	1.75	3.50	4.50	7.75	6.50	0.50	1.75	-0.196289	0.119629	0.966309	-1.890000	-1.050000	1.680000	333.00	0.22	-0.14
3.06	0.00	0.00	0.00	0.00	0.00	0.00	0.50	0.00	8.00	3.25	1.75	0.00	1.00	10.50	1.00	0.50	-0.259277	0.079590	0.937012	-0.840000	10.640000	-1.680000	276.00	0.30	0.15	0.00	0.00	0.00	0.00	0.00	0.00	0.75	3.00	2.75	1.50	3.50	4.75	7.75	6.50	0.50	1.75	-0.194824	0.121094	0.970215	-2.030000	-1.120000	1.610000	333.00	0.22	-0.14
3.07	0.00	0.00	0.00	0.00	0.00	0.00	0.50	0.00	7.75	3.25	1.75	0.00	0.75	10.75	1.00	0.25	-0.256836	0.079590	0.931641	-1.540000	8.260000	-1.680000	271.00	0.30	0.15	0.00	0.00	0.00	0.00	0.00	0.00	0.75	3.00	2.75	1.75	3.25	4.75	7.75	6.50	0.75	1.50	-0.196289	0.123047	0.967285	-2.030000	-1.400000	1.680000	334.00	0.22	-0.14
3.08	0.00	0.00	0.00	0.00	0.00	0.00	0.50	0.00	8.00	3.50	1.50	0.00	1.25	10.75	1.00	0.50	-0.262695	0.082520	0.937500	-2.380000	6.230000	-1.820000	280.00	0.30	0.15	0.00	0.00	0.00	0.00	0.00	0.00	0.75	3.00	2.75	1.75	3.75	4.75	8.00	6.50	0.75	1.75	-0.195801	0.115723	0.968750	-1.960000	-1.540000	1.750000	343.00	0.22	-0.14
3.09	0.00	0.00	0.00	0.00	0.00	0.00	0.50	0.00	8.00	3.50	1.75	0.00	1.00	11.00	1.00	0.25	-0.260742	0.077148	0.939453	-2.940000	4.690000	-1.750000	281.00	0.30	0.15	0.00	0.00	0.00	0.00	0.00	0.00	0.75	2.75	3.00	1.75	3.50	4.75	7.75	6.50	0.50	1.75	-0.196777	0.118652	0.969727	-2.170000	-1.890000	1.750000	335.00	0.22	-0.14
3.10	0.00	0.00	0.00	0.00	0.00	0.00	0.50	0.00	8.00	3.75	1.50	0.00	1.00	10.75	1.00	0.25	-0.258301	0.073242	0.942383	-3.430000	3.920000	-1.890000	279.00	0.30	0.15	0.00	0.00	0.00	0.00	0.00	0.00	0.75	2.75	2.50	2.00	3.25	4.75	8.00	6.75	0.75	1.50	-0.189453	0.112793	0.970215	-2.310000	-2.100000	1.680000	334.00	0.22	-0.14
3.11	0.00	0.00	0.00	0.00	0.00	0.00	0.50	0.00	8.00	3.50	1.25	0.00	0.50	11.00	1.00	0.50	-0.255371	0.081543	0.942871	-3.780000	2.870000	-1.750000	273.00	0.31	0.16	0.00	0.00	0.00	0.00	0.00	0.00	0.75	2.75	2.75	1.50	3.50	4.50	7.75	6.75	0.75	1.75	-0.198730	0.118652	0.966309	-2.310000	-2.170000	1.750000	331.00	0.22	-0.14
3.12	0.00	0.00	0.00	0.00	0.00	0.00	0.50	0.00	8.00	3.50	1.50	0.00	1.00	11.25	1.00	0.50	-0.259277	0.076660	0.939453	-3.850000	2.870000	-1.820000	282.00	0.31	0.15	0.00	0.00	0.00	0.00	0.00	0.00	0.75	3.00	2.75	1.75	3.25	4.50	7.75	6.75	0.50	1.50	-0.194336	0.115723	0.964844	-2.240000	-2.240000	1.820000	331.00	0.22	-0.14
3.13	0.00	0.00	0.00	0.00	0.00	0.00	0.50	0.00	8.00	3.25	1.50	0.00	1.00	11.25	1.00	0.50	-0.255859	0.073242	0.945801	-3.850000	3.360000	-1.820000	279.00	0.31	0.15	0.00	0.00	0.00	0.00	0.00	0.00	0.75	3.00	2.75	1.75	3.25	4.50	7.75	6.75	0.50	1.50	-0.198242	0.116699	0.971680	-2.030000	-1.960000	1.750000	331.00	0.22	-0.14
3.14	0.00	0.00	0.00	0.00	0.00	0.00	0.50	0.00	8.25	3.50	1.50	0.00	0.75	11.25	1.00	0.25	-0.256348	0.076660	0.949707	-3.920000	3.220000	-1.610000	282.00	0.31	0.16	0.00	0.00	0.00	0.00	0.00	0.00	0.75	2.75	2.75	1.75	3.50	4.75	7.75	6.75	0.75	1.75	-0.198730	0.118652	0.969727	-1.890000	-1.610000	1.680000	336.00	0.22	-0.14
3.15	0.00	0.00	0.00	0.00	0.00	0.00	0.50	0.00	8.25	3.75	1.50	0.00	0.75	11.50	0.75	0.50	-0.255371	0.076172	0.944824	-3.780000	3.710000	-1.680000	285.00	0.30	0.16	0.00	0.00	0.00	0.00	0.00	0.00	0.75	2.75	2.25	1.75	3.50	4.50	7.75	7.25	0.75	1.50	-0.200684	0.116699	0.972656	-1.750000	-1.260000	1.750000	330.00	0.22	-0.14
3.16	0.00	0.00	0.00	0.00	0.00	0.00	0.50	0.00	8.25	3.75	1.50	0.00	1.00	11.50	1.00	0.50	-0.258301	0.078125	0.946777	-3.430000	4.340000	-1.750000	290.00	0.30	0.15	0.00	0.00	0.00	0.00	0.00	0.00	0.75	2.75	2.50	2.00	3.25	4.50	7.75	7.25	0.75	1.75	-0.198730	0.113281	0.969238	-1.540000	-0.980000	1.960000	335.00	0.22	-0.13
3.17	0.00	0.00	0.00	0.00	0.00	0.00	0.50	0.00	8.25	3.50	1.50	0.00	0.75	11.75	0.75	0.50	-0.250977	0.080566	0.948242	-3.080000	5.320000	-1.680000	285.00	0.31	0.16	0.00	0.00	0.00	0.00	0.00	0.00	0.75	2.75	2.50	1.75	3.75	4.50	7.75	7.00	0.75	1.75	-0.201660	0.117676	0.964844	-1.330000	-0.700000	1.890000	335.00	0.22	-0.14
3.18	0.00	0.00	0.00	0.00	0.00	0.00	0.50	0.00	8.25	3.50	1.50	0.00	0.75	11.75	1.00	0.25	-0.256836	0.072754	0.945312	-2.520000	6.930000	-1.820000	286.00	0.31	0.16	0.00	0.00	0.00	0.00	0.00	0.00	0.75	2.75	2.50	1.75	3.75	5.00	7.75	7.25	0.75	1.75	-0.197754	0.120605	0.969727	-1.260000	-0.280000	1.960000	343.00	0.22	-0.14
3.19	0.00	0.00	0.00	0.00	0.00	0.00	0.50	0.00	8.25	3.50	1.50	0.00	0.75	12.00	1.00	0.25	-0.256836	0.081543	0.941895	-1.820000	8.540000	-1.890000	288.00	0.31	0.16	0.00	0.00	0.00	0.00	0.00	0.00	0.75	2.50	2.75	1.75	3.50	4.75	7.75	7.25	0.75	1.75	-0.196777	0.120605	0.966309	-0.980000	0.350000	1.890000	337.00	0.23	-0.13
3.20	0.00	0.00	0.00	0.00	0.00	0.00	0.50	0.00	8.25	3.75	1.50	0.00	0.50	11.50	1.00	0.50	-0.256836	0.076660	0.943359	-1.260000	10.430000	-2.030000	286.00	0.31	0.16	0.00	0.00	0.00	0.00	0.00	0.00	0.75	2.50	2.50	1.75	3.50	4.75	7.75	7.25	0.75	1.75	-0.205566	0.115234	0.979980	-0.700000	1.050000	1.890000	333.00	0.23	-0.13
3.21	0.00	0.00	0.00	0.00	0.00	0.00	0.50	0.00	8.25	3.50	1.50	0.00	0.75	11.75	1.00	0.25	-0.259766	0.074219	0.943848	-0.980000	12.040000	-1.890000	286.00	0.31	0.16	0.00	0.00	0.00	0.00	0.00	0.00	0.75	2.50	2.50	1.75	3.75	5.00	8.00	7.50	1.00	1.75	-0.199707	0.121094	0.971191	-0.070000	2.100000	1.890000	346.00	0.23	-0.14
3.22	0.00	0.00	0.00	0.00	0.00	0.00	0.50	0.00	8.25	3.50	1.25	0.00	0.75	11.75	0.75	0.50	-0.258301	0.076172	0.939453	-0.770000	13.650000	-1.820000	282.00	0.31	0.16	0.00	0.00	0.00	0.00	0.00	0.00	0.75	2.50	2.50	1.75	3.75	5.00	7.75	7.50	0.75	1.75	-0.199707	0.116211	0.967773	0.350000	3.150000	1.750000	341.00	0.23	-0.13
3.23	0.00	0.00	0.00	0.00	0.00	0.00	0.50	0.00	8.25	3.50	1.50	0.00	0.50	11.75	1.00	0.25	-0.259766	0.077637	0.945312	-0.350000	14.770000	-1.680000	284.00	0.31	0.16	0.00	0.00	0.00	0.00	0.00	0.00	0.75	2.25	2.50	1.75	3.75	5.00	8.00	7.50	1.00	1.75	-0.201660	0.122070	0.969238	0.770000	4.060000	1.750000	342.00	0.23	-0.13
3.24	0.00	0.00	0.00	0.00	0.00	0.00	0.50	0.00	8.25	3.50	1.50	0.00	1.00	11.75	1.00	0.50	-0.256836	0.076660	0.943359	-0.140000	15.890000	-1.470000	289.00	0.31	0.15	0.00	0.00	0.00	0.00	0.00	0.00	0.75	2.50	2.75	1.50	4.00	5.00	8.00	7.25	1.00	1.75	-0.204590	0.125488	0.965820	1.050000	4.760000	1.820000	347.00	0.23	-0.13
3.25	0.00	0.00	0.00	0.00	0.00	0.00	0.50	0.00	8.00	3.75	1.50	0.00	0.75	11.75	1.00	0.50	-0.265625	0.076172	0.939941	-0.210000	16.940001	-1.050000	287.00	0.31	0.15	0.00	0.00	0.00	0.00	0.00	0.00	0.75	2.25	2.50	1.75	4.00	5.00	7.75	7.50	0.75	1.50	-0.207520	0.125977	0.956543	1.260000	5.180000	1.820000	338.00	0.23	-0.13
3.26	0.00	0.00	0.00	0.00	0.00	0.00	0.50	0.00	8.25	3.50	1.50	0.00	0.50	12.00	1.00	0.25	-0.264648	0.075684	0.941406	0.070000	16.940001	-1.190000	286.00	0.31	0.16	0.00	0.00	0.00	0.00	0.00	0.00	0.50	2.00	2.75	1.75	4.00	5.00	7.75	7.75	0.75	1.75	-0.205566	0.121582	0.968262	1.470000	5.320000	1.890000	337.00	0.24	-0.13
3.27	0.00	0.00	0.00	0.00	0.00	0.00	0.50	0.00	8.00	3.50	1.25	0.00	0.50	12.00	0.75	0.25	-0.262207	0.072754	0.930664	-0.000000	16.100000	-1.190000	277.00	0.31	0.17	0.00	0.00	0.00	0.00	0.00	0.00	0.50	2.25	2.50	1.75	3.75	5.00	8.00	7.50	0.75	2.00	-0.204102	0.127441	0.969238	1.120000	4.760000	1.890000	337.00	0.23	-0.14
3.28	0.00	0.00	0.00	0.00	0.00	0.00	0.50	0.00	8.25	3.25	1.25	0.00	0.75	11.75	1.00	0.25	-0.267090	0.076660	0.930664	0.210000	14.980000	-1.260000	281.00	0.31	0.16	0.00	0.00	0.00	0.00	0.00	0.00	0.50	2.00	2.50	1.75	3.75	5.00	7.75	7.50	1.00	1.75	-0.211914	0.126465	0.960938	1.330000	5.110000	2.030000	332.00	0.24	-0.13
3.29	0.00	0.00	0.00	0.00	0.00	0.00	0.25	0.00	8.25	3.50	1.50	0.00	0.75	11.75	0.75	0.25	-0.275879	0.070801	0.934570	0.140000	14.490000	-1.400000	280.00	0.31	0.16	0.00	0.00	0.00	0.00	0.00	0.00	0.50	2.00	2.50	1.50	4.00	5.00	7.75	7.50	0.75	1.50	-0.208496	0.125000	0.961426	1.330000	5.530000	2.030000	328.00	0.23	-0.13
3.30	0.00	0.00	0.00	0.00	0.00	0.00	0.25	0.00	8.00	3.50	1.50	0.00	0.75	11.50	1.00	0.25	-0.270508	0.076660	0.931152	0.280000	13.020000	-1.470000	277.00	0.31	0.16	0.00	0.00	0.00	0.00	0.00	0.00	0.50	2.00	2.50	1.75	4.00	5.00	7.75	7.25	1.00	1.75	-0.211426	0.133301	0.955566	1.190000	5.180000	2.030000	333.00	0.23	-0.13
3.31	0.00	0.00	0.00	0.00	0.00	0.00	0.25	0.00	8.00	3.50	1.50	0.00	0.50	11.50	0.75	0.50	-0.270508	0.083008	0.932129	0.140000	11.550000	-1.470000	273.00	0.31	0.16	0.00	0.00	0.00	0.00	0.00	0.00	0.50	2.00	2.50	1.75	4.00	5.00	7.75	7.50	0.75	1.75	-0.213379	0.124023	0.958008	-0.000000	2.660000	2.170000	332.00	0.23	-0.13
3.32	0.00	0.00	0.00	0.00	0.00	0.00	0.25	0.00	8.25	3.50	1.25	0.00	0.25	11.50	0.75	0.50	-0.271973	0.080566	0.931152	-0.210000	9.240000	-1.400000	272.00	0.31	0.17	0.00	0.00	0.00	0.00	0.00	0.00	0.50	1.75	2.25	1.75	4.00	5.00	7.75	7.75	0.75	1.75	-0.208984	0.122559	0.953613	-0.700000	0.770000	2.240000	327.00	0.24	-0.13
3.33	0.00	0.00	0.00	0.00	0.00	0.00	0.25	0.00	8.00	3.50	1.50	0.00	0.75	11.50	1.00	0.25	-0.270996	0.078125	0.933594	-0.350000	6.790000	-1.330000	277.00	0.31	0.16	0.00	0.00	0.00	0.00	0.00	0.00	0.50	2.00	2.50	1.50	4.00	5.25	8.00	7.50	0.75	1.75	-0.211914	0.130371	0.950195	-1.330000	-0.910000	2.240000	334.00	0.23	-0.14
3.34	0.00	0.00	0.00	0.00	0.00	0.00	0.50	0.00	8.00	3.50	1.50	0.00	0.75	11.25	1.00	0.25	-0.273926	0.080078	0.932129	-0.490000	4.130000	-1.260000	278.00	0.31	0.16	0.00	0.00	0.00	0.00	0.00	0.00	0.50	1.75	2.50	2.00	3.75	5.25	8.00	7.50	0.75	1.50	-0.211426	0.125977	0.953613	-2.100000	-2.870000	2.240000	332.00	0.24	-0.13
3.35	0.00	0.00	0.00	0.00	0.00	0.00	0.50	0.00	8.25	3.50	1.50	0.00	0.50	11.50	1.00	0.25	-0.270508	0.081055	0.939941	-0.700000	2.590000	-1.400000	282.00	0.31	0.16	0.00	0.00	0.00	0.00	0.00	0.00	0.50	1.75	2.50	1.75	4.00	5.25	7.75	7.50	0.75	1.75	-0.214844	0.124023	0.954590	-2.870000	-4.690000	2.100000	331.00	0.24	-0.13
3.36	0.00	0.00	0.00	0.00	0.00	0.00	0.50	0.00	8.00	3.50	1.50	0.00	0.75	11.50	1.00	0.50	-0.268066	0.079102	0.945312	-1.190000	1.330000	-1.540000	282.00	0.31	0.16	0.00	0.00	0.00	0.00	0.00	0.00	0.50	1.75	2.50	1.75	4.25	5.25	7.75	7.75	0.75	1.75	-0.212891	0.127441	0.955078	-3.430000	-5.880000	1.960000	336.00	0.24	-0.13
3.37	0.00	0.00	0.00	0.00	0.00	0.00	0.25	0.00	8.25	3.75	1.50	0.00	1.00	11.50	1.00	0.25	-0.265625	0.086914	0.940918	-2.030000	0.700000	-1.610000	285.00	0.31	0.15	0.00	0.00	0.00	0.00	0.00	0.00	0.50	1.75	2.25	2.00	4.25	5.00	8.00	7.75	0.75	1.75	-0.211914	0.127930	0.960938	-3.570000	-6.650000	1.680000	335.00	0.24	-0.13
3.38	0.00	0.00	0.00	0.00	0.00	0.00	0.25	0.00	8.00	3.75	1.50	0.00	0.75	11.50	1.00	0.25	-0.265625	0.082520	0.943359	-2.450000	0.420000	-1.750000	279.00	0.31	0.16	0.00	0.00	0.00	0.00	0.00	0.00	0.50	2.00	2.75	2.00	4.25	5.00	8.00	7.75	0.75	1.75	-0.217285	0.128418	0.956543	-3.640000	-6.930000	1.680000	345.00	0.24	-0.13
3.39	0.00	0.00	0.00	0.00	0.00	0.00	0.50	0.00	8.25	3.50	1.50	0.00	0.75	11.50	1.00	0.25	-0.269531	0.073242	0.948730	-2.520000	1.050000	-1.820000	284.00	0.31	0.16	0.00	0.00	0.00	0.00	0.00	0.00	0.50	2.00	2.50	1.75	4.25	5.50	7.75	8.00	0.50	2.00	-0.216309	0.119629	0.957031	-3.430000	-6.930000	1.680000	343.00	0.24	-0.13
3.40	0.00	0.00	0.00	0.00	0.00	0.00	0.50	0.00	8.00	3.50	1.50	0.00	0.75	11.25	1.00	0.25	-0.263672	0.077637	0.941406	-2.450000	1.890000	-1.680000	278.00	0.31	0.16	0.00	0.00	0.00	0.00	0.00	0.00	0.50	2.00	2.75	2.00	4.25	5.25	8.00	8.00	0.75	2.00	-0.211426	0.122559	0.969727	-3.010000	-6.300000	1.820000	351.00	0.24	-0.13
3.41	0.00	0.00	0.00	0.00	0.00	0.00	0.50	0.00	8.00	3.50	1.25	0.00	0.75	11.50	0.75	0.50	-0.258301	0.078125	0.941895	-2.380000	2.590000	-1.470000	277.00	0.31	0.16	0.00	0.00	0.00	0.00	0.00	0.00	0.50	2.00	2.50	2.00	4.00	5.25	8.00	8.00	1.00	2.00	-0.212891	0.125000	0.962402	-2.450000	-5.460000	2.030000	348.00	0.24	-0.13
3.42	0.00	0.00	0.00	0.00	0.00	0.00	0.25	0.00	8.00	3.50	1.50	0.00	0.75	11.25	0.75	0.25	-0.266113	0.081055	0.945312	-2.170000	2.940000	-1.120000	272.00	0.31	0.16	0.00	0.00	0.00	0.00	0.00	0.00	0.50	2.00	2.50	2.00	4.25	5.75	8.00	8.00	1.00	1.75	-0.207520	0.124512	0.961914	-1.820000	-3.920000	2.310000	354.00	0.24	-0.13
3.43	0.00	0.00	0.00	0.00	0.00	0.00	0.50	0.00	8.25	3.50	1.50	0.00	0.75	11.25	0.75	0.25	-0.266113	0.074707	0.939453	-2.310000	3.780000	-1.050000	279.00	0.30	0.16	0.00	0.00	0.00	0.00	0.00	0.00	0.50	2.00	2.50	2.00	4.25	5.50	8.00	8.00	1.00	2.00	-0.206543	0.126953	0.968750	-0.910000	-2.100000	2.310000	353.00	0.24	-0.13
3.44	0.00	0.00	0.00	0.00	0.00	0.00	0.50	0.00	8.25	3.75	1.50	0.00	0.75	11.25	1.00	0.50	-0.262207	0.071777	0.942871	-2.170000	4.620000	-0.910000	286.00	0.30	0.16	0.00	0.00	0.00	0.00	0.00	0.00	0.50	2.00	2.75	2.00	4.50	5.50	8.00	8.00	1.00	2.00	-0.208008	0.128418	0.958984	-0.420000	-0.490000	2.380000	359.00	0.24	-0.13
3.45	0.00	0.00	0.00	0.00	0.00	0.00	0.50	0.00	8.00	3.50	1.50	0.00	0.75	11.25	1.00	0.25	-0.266113	0.079590	0.941895	-1.890000	5.880000	-0.980000	278.00	0.31	0.16	0.00	0.00	0.00	0.00	0.00	0.00	0.50	2.00	2.50	2.00	4.25	5.50	8.00	8.00	1.00	2.00	-0.212891	0.128418	0.965820	0.280000	1.050000	2.380000	353.00	0.24	-0.13
3.46	0.00	0.00	0.00	0.00	0.00	0.00	0.50	0.00	8.00	3.50	1.50	0.00	0.75	11.25	1.00	0.50	-0.258789	0.074219	0.936523	-1.260000	8.120000	-1.330000	280.00	0.31	0.16	0.00	0.00	0.00	0.00	0.00	0.00	0.50	2.25	2.50	2.00	4.25	6.00	8.00	8.00	1.00	2.25	-0.216309	0.128418	0.963379	0.910000	2.450000	2.380000	363.00	0.23	-0.14
3.47	0.00	0.00	0.00	0.00	0.00	0.00	0.50	0.00	8.00	3.75	1.50	0.00	0.75	11.25	1.00	0.50	-0.261230	0.078613	0.941895	-1.050000	9.100000	-1.540000	282.00	0.31	0.15	0.00	0.00	0.00	0.00	0.00	0.00	0.50	2.00	2.50	2.00	4.50	6.00	8.25	8.00	0.75	2.00	-0.212402	0.126953	0.967773	1.260000	3.570000	2.380000	360.00	0.24	-0.14
3.48	0.00	0.00	0.00	0.00	0.00	0.00	0.50	0.00	8.00	3.75	1.50	0.00	0.75	11.25	1.00	0.25	-0.268555	0.078613	0.949219	-0.910000	9.940000	-1.680000	281.00	0.31	0.16	0.00	0.00	0.00	0.00	0.00	0.00	0.50	1.75	2.50	2.00	4.50	6.25	8.00	8.25	1.00	2.00	-0.220703	0.124023	0.963379	1.540000	4.340000	2.310000	362.00	0.24	-0.13
3.49	0.00	0.00	0.00	0.00	0.00	0.00	0.50	0.00	8.00	3.50	1.50	0.00	0.75	11.25	0.75	0.50	-0.264160	0.075684	0.945312	-0.770000	10.990000	-1.750000	277.00	0.31	0.16	0.00	0.00	0.00	0.00	0.00	0.00	0.50	2.00	2.50	1.75	4.50	6.00	8.25	8.25	1.00	2.00	-0.213867	0.127441	0.961426	1.890000	4.830000	2.240000	363.00	0.24	-0.13
3.50	0.00	0.00	0.00	0.00	0.00	0.00	0.50	0.00	8.00	3.50	1.50	0.00	0.75	11.00	0.75	0.25	-0.264160	0.076172	0.940918	-0.770000	12.250000	-1.750000	274.00	0.30	0.16	0.00	0.00	0.00	0.00	0.00	0.00	0.50	2.00	2.50	2.00	4.50	6.50	8.25	8.00	0.75	2.00	-0.214355	0.127930	0.957031	2.100000	5.110000	2.170000	366.00	0.23	-0.14
3.51	0.00	0.00	0.00	0.00	0.00	0.00	0.50	0.00	8.25	3.50	1.50	0.00	0.75	11.25	1.00	0.50	-0.269043	0.077637	0.938965	-0.560000	13.020000	-1.750000	283.00	0.31	0.16	0.00	0.00	0.00	0.00	0.00	0.00	0.50	2.00	2.50	2.00	5.25	6.75	8.25	8.00	1.00	2.00	-0.222168	0.131348	0.952148	2.520000	5.110000	2.170000	379.00	0.24	-0.14
3.52	0.00	0.00	0.00	0.00	0.00	0.00	0.50	0.00	8.25	3.75	1.50	0.00	0.75	11.25	1.00	0.50	-0.269043	0.073730	0.943359	-0.490000	13.300000	-1.540000	286.00	0.30	0.16	0.00	0.00	0.00	0.00	0.00	0.00	0.50	2.00	2.50	2.00	5.00	7.00	8.25	8.00	1.00	2.25	-0.218262	0.130371	0.952637	2.450000	4.480000	2.170000	380.00	0.24	-0.14
3.53	0.00	0.00	0.00	0.00	0.00	0.00	0.50	0.00	8.00	3.50	1.75	0.00	0.75	11.25	0.50	0.25	-0.272461	0.073242	0.939453	-0.420000	14.070000	-1.540000	276.00	0.30	0.16	0.00	0.00	0.00	0.00	0.00	0.00	0.50	1.75	2.50	2.00	5.25	7.00	8.50	8.00	1.00	2.00	-0.213379	0.126465	0.956055	2.380000	3.850000	2.240000	380.00	0.24	-0.14
3.54	0.00	0.00	0.00	0.00	0.00	0.00	0.25	0.00	8.25	3.25	1.50	0.00	0.75	11.25	1.00	0.25	-0.271484	0.082031	0.940430	-0.490000	15.260000	-1.680000	275.00	0.31	0.16	0.00	0.00	0.00	0.00	0.00	0.00	0.50	1.75	2.50	2.00	5.50	7.00	8.25	7.75	1.00	2.00	-0.223145	0.132324	0.953125	1.890000	3.220000	2.450000	378.00	0.24	-0.14
3.55	0.00	0.00	0.00	0.00	0.00	0.00	0.25	0.00	8.25	3.25	1.50	0.00	0.75	11.25	1.00	0.50	-0.276367	0.079590	0.938477	-0.280000	15.680000	-2.030000	277.00	0.31	0.16	0.00	0.00	0.00	0.00	0.00	0.00	0.50	2.00	2.50	1.75	5.50	7.00	8.50	7.75	1.00	2.00	-0.219727	0.137695	0.953125	1.260000	2.310000	2.450000	382.00	0.23	-0.14
3.56	0.00	0.00	0.00	0.00	0.00	0.00	0.25	0.00	8.00	3.75	1.75	0.00	0.75	11.00	1.00	0.50	-0.277832	0.074707	0.937500	-0.280000	14.630000	-1.960000	279.00	0.31	0.15	0.00	0.00	0.00	0.00	0.00	0.00	0.50	2.25	2.25	2.00	5.75	7.00	8.25	7.50	1.00	2.00	-0.222168	0.134766	0.952637	0.770000	0.980000	2.450000	383.00	0.23	-0.15
3.57	0.00	0.00	0.00	0.00	0.00	0.00	0.25	0.00	8.00	3.50	1.50	0.00	1.00	11.25	1.00	0.25	-0.276855	0.072754	0.925293	-0.350000	12.530000	-1.540000	277.00	0.31	0.15	0.00	0.00	0.00	0.00	0.00	0.00	0.50	1.75	2.25	1.75	5.75	7.00	8.50	7.25	1.00	2.00	-0.225586	0.132324	0.948242	0.210000	-0.210000	2.450000	373.00	0.23	-0.15
3.58	0.00	0.00	0.00	0.00	0.00	0.00	0.25	0.00	8.00	3.25	1.50	0.00	0.75	11.00	1.00	0.25	-0.282227	0.075195	0.934082	-0.350000	10.500000	-1.400000	270.00	0.31	0.16	0.00	0.00	0.00	0.00	0.00	0.00	0.50	2.00	2.25	1.75	5.75	7.50	8.50	7.75	1.00	2.00	-0.228027	0.136230	0.948730	-0.490000	-1.540000	2.380000	386.00	0.23	-0.15
3.59	0.00	0.00	0.00	0.00	0.00	0.00	0.25	0.00	8.00	3.50	1.50	0.00	1.00	11.00	0.75	0.50	-0.275391	0.070801	0.933105	-0.560000	9.310000	-1.400000	273.00	0.31	0.15	0.00	0.00	0.00	0.00	0.00	0.00	0.50	2.00	2.25	1.75	5.75	7.50	8.50	7.50	1.00	2.00	-0.228027	0.132324	0.950684	-1.260000	-3.010000	2.450000	384.00	0.23	-0.15
3.60	0.00	0.00	0.00	0.00	0.00	0.00	0.25	0.00	8.00	3.50	1.50	0.00	0.75	11.25	1.00	0.25	-0.277832	0.075684	0.932617	-0.770000	8.050000	-0.910000	275.00	0.31	0.16	0.00	0.00	0.00	0.00	0.00	0.00	0.50	2.00	2.00	2.00	6.00	7.50	8.50	7.50	1.00	2.25	-0.224609	0.136719	0.948730	-1.750000	-3.850000	2.380000	387.00	0.23	-0.15
3.61	0.00	0.00	0.00	0.00	0.00	0.00	0.25	0.00	8.00	3.25	1.50	0.00	0.75	11.00	0.75	0.50	-0.281250	0.080566	0.926758	-0.910000	6.510000	-0.630000	269.00	0.31	0.16	0.00	0.00	0.00	0.00	0.00	0.00	0.50	2.00	2.25	2.00	6.00	7.50	8.50	7.50	0.75	2.00	-0.227539	0.140137	0.953613	-2.240000	-4.690000	2.310000	387.00	0.23	-0.15
3.62	0.00	0.00	0.00	0.00	0.00	0.00	0.25	0.00	8.00	3.75	1.75	0.00	0.75	11.25	1.00	0.25	-0.278320	0.079102	0.936523	-1.050000	4.970000	-0.630000	280.00	0.31	0.15	0.00	0.00	0.00	0.00	0.00	0.00	0.50	2.00	2.50	2.00	6.50	7.50	8.75	7.50	1.00	2.25	-0.223145	0.133301	0.951660	-2.520000	-5.250000	2.240000	401.00	0.23	-0.15
3.63	0.00	0.00	0.00	0.00	0.00	0.00	0.25	0.00	8.00	3.75	1.75	0.00	0.75	11.00	0.50	0.50	-0.276367	0.080566	0.943359	-1.190000	4.060000	-0.770000	274.00	0.31	0.15	0.00	0.00	0.00	0.00	0.00	0.00	0.50	2.00	2.25	2.00	6.50	7.50	8.75	7.25	0.75	2.00	-0.218262	0.137207	0.957520	-2.730000	-5.600000	2.310000	392.00	0.23	-0.15
3.64	0.00	0.00	0.00	0.00	0.00	0.00	0.25	0.00	8.00	3.75	1.75	0.00	0.75	11.25	1.00	0.25	-0.273926	0.085938	0.937988	-1.470000	3.290000	-1.540000	280.00	0.31	0.15	0.00	0.00	0.00	0.00	0.00	0.00	0.50	2.25	2.50	2.25	6.50	7.75	8.75	7.50	0.75	2.25	-0.222168	0.137207	0.955078	-3.220000	-6.090000	2.240000	408.00	0.23	-0.15
3.65	0.00	0.00	0.00	0.00	0.00	0.00	0.25	0.00	8.00	3.50	1.50	0.00	1.00	11.00	1.00	0.25	-0.273926	0.085938	0.937988	-1.470000	3.290000	-1.540000	275.00	0.31	0.15	0.00	0.00	0.00	0.00	0.00	0.00	0.50	2.00	2.25	2.00	6.50	7.75	8.75	7.25	0.75	2.25	-0.219238	0.134766	0.955566	-3.360000	-6.510000	2.240000	396.00	0.23	-0.15
3.66	0.00	0.00	0.00	0.00	0.00	0.00	0.25	0.00	8.25	3.75	1.75	0.00	0.75	11.00	1.00	0.50	-0.269531	0.085938	0.940430	-1.680000	3.500000	-1.960000	282.00	0.31	0.15	0.00	0.00	0.00	0.00	0.00	0.00	0.50	2.25	2.25	2.50	6.50	7.75	8.75	7.25	0.75	2.25	-0.220215	0.136230	0.954590	-3.500000	-6.580000	2.240000	405.00	0.23	-0.15
3.67	0.00	0.00	0.00	0.00	0.00	0.00	0.25	0.00	8.00	3.50	1.50	0.00	0.75	11.00	1.00	0.25	-0.271484	0.073242	0.939941	-1.610000	4.060000	-2.030000	273.00	0.31	0.16	0.00	0.00	0.00	0.00	0.00	0.00	0.50	2.25	2.50	2.00	7.00	7.75	8.75	7.25	1.00	2.00	-0.222656	0.138672	0.954590	-3.710000	-6.860000	2.100000	410.00	0.23	-0.15
3.68	0.00	0.00	0.00	0.00	0.00	0.00	0.25	0.00	8.00	3.75	1.50	0.00	0.75	11.00	1.00	0.25	-0.274414	0.072754	0.938477	-1.540000	4.270000	-1.820000	275.00	0.31	0.16	0.00	0.00	0.00	0.00	0.00	0.00	0.50	2.50	2.50	2.00	6.75	7.75	8.75	7.25	0.75	2.25	-0.220215	0.136719	0.951172	-3.780000	-6.720000	2.100000	409.00	0.23	-0.16
3.69	0.00	0.00	0.00	0.00	0.00	0.00	0.25	0.00	8.00	3.75	1.75	0.00	0.75	11.00	0.75	0.25	-0.273438	0.072754	0.941406	-1.470000	4.550000	-1.260000	275.00	0.31	0.15	0.00	0.00	0.00	0.00	0.00	0.00	0.50	2.50	2.50	2.00	7.00	7.75	8.75	7.25	1.00	2.25	-0.221191	0.135742	0.959961	-3.570000	-6.160000	1.890000	415.00	0.23	-0.15
3.70	0.00	0.00	0.00	0.00	0.00	0.00	0.25	0.00	8.00	3.75	1.50	0.00	0.75	10.75	1.00	0.25	-0.270996	0.078613	0.939941	-1.610000	5.040000	-0.840000	273.00	0.31	0.15	0.00	0.00	0.00	0.00	0.00	0.00	0.50	2.25	2.75	2.00	7.00	7.75	8.75	7.25	0.75	2.00	-0.215820	0.128418	0.965332	-2.800000	-4.480000	2.030000	410.00	0.23	-0.15
3.71	0.00	0.00	0.00	0.00	0.00	0.00	0.25	0.00	8.25	3.75	2.00	0.00	0.75	11.00	1.00	0.25	-0.270020	0.075684	0.945801	-2.100000	6.300000	-0.770000	284.00	0.31	0.15	0.00	0.00	0.00	0.00	0.00	0.00	0.50	2.50	2.25	2.00	7.25	7.75	8.75	7.25	0.75	2.25	-0.219238	0.130859	0.962402	-2.310000	-3.360000	2.170000	411.00	0.23	-0.16
3.72	0.00	0.00	0.00	0.00	0.00	0.00	0.25	0.00	8.25	3.75	1.75	0.00	0.75	11.00	1.00	0.25	-0.270508	0.083496	0.943848	-1.960000	7.700000	-0.770000	281.00	0.31	0.15	0.00	0.00	0.00	0.00	0.00	0.00	0.50	2.25	2.50	2.00	7.00	8.00	8.75	7.25	0.75	2.25	-0.220703	0.136230	0.962891	-1.680000	-2.170000	2.170000	411.00	0.23	-0.15
3.73	0.00	0.00	0.00	0.00	0.00	0.00	0.25	0.00	8.25	3.75	1.50	0.00	0.75	11.00	0.75	0.25	-0.277832	0.081055	0.938965	-1.820000	9.100000	-0.910000	276.00	0.31	0.16	0.00	0.00	0.00	0.00	0.00	0.00	0.50	2.50	2.50	2.25	7.25	7.75	8.75	7.25	1.00	2.25	-0.220215	0.137695	0.962891	-1.190000	-1.120000	2.170000	420.00	0.23	-0.15
3.74	0.00	0.00	0.00	0.00	0.00	0.00	0.25	0.00	8.00	4.00	1.50	0.00	0.75	11.25	1.00	0.50	-0.275391	0.081055	0.943848	-1.680000	9.940000	-1.260000	281.00	0.31	0.15	0.00	0.00	0.00	0.00	0.00	0.00	0.50	2.25	2.50	2.25	7.25	8.00	8.75	7.25	1.00	2.25	-0.218750	0.132812	0.962402	-0.770000	-0.070000	2.170000	419.00	0.23	-0.15
3.75	0.00	0.00	0.00	0.00	0.00	0.00	0.25	0.00	8.25	3.50	1.75	0.00	0.75	11.00	0.75	0.50	-0.275879	0.079590	0.937500	-1.610000	10.220000	-1.750000	277.00	0.31	0.15	0.00	0.00	0.00	0.00	0.00	0.00	0.50	2.50	2.25	2.00	7.25	7.75	8.75	7.25	0.75	2.50	-0.219727	0.136719	0.960938	-0.490000	0.770000	2.310000	413.00	0.23	-0.16
3.76	0.00	0.00	0.00	0.00	0.00	0.00	0.25	0.00	8.00	3.75	1.50	0.00	0.75	11.00	1.00	0.50	-0.277832	0.083496	0.941406	-1.540000	10.080000	-1.890000	276.00	0.31	0.15	0.00	0.00	0.00	0.00	0.00	0.00	0.50	2.25	2.50	1.75	7.25	7.75	9.00	7.25	1.00	2.25	-0.222168	0.136230	0.953125	-0.000000	1.540000	2.310000	413.00	0.23	-0.16
3.77	0.00	0.00	0.00	0.00	0.00	0.00	0.25	0.00	8.25	3.75	2.00	0.00	1.00	11.00	1.00	0.25	-0.280762	0.081055	0.937988	-1.680000	10.080000	-2.030000	286.00	0.30	0.15	0.00	0.00	0.00	0.00	0.00	0.00	0.50	2.25	2.50	2.00	7.25	8.00	8.75	7.25	1.00	2.25	-0.220215	0.134277	0.955566	0.420000	2.590000	2.240000	416.00	0.23	-0.15
3.78	0.00	0.00	0.00	0.00	0.00	0.00	0.25	0.00	8.25	3.50	1.50	0.00	0.75	11.00	1.00	0.25	-0.279297	0.079590	0.940918	-1.820000	10.290000	-2.170000	276.00	0.31	0.16	0.00	0.00	0.00	0.00	0.00	0.00	0.50	2.25	2.25	2.25	7.50	7.75	8.75	7.25	1.00	2.25	-0.221680	0.132812	0.951660	0.630000	3.290000	2.030000	415.00	0.23	-0.15
3.79	0.00	0.00	0.00	0.00	0.00	0.00	0.25	0.00	8.25	3.50	1.50	0.00	0.75	11.25	1.00	0.25	-0.278320	0.080566	0.934570	-1.890000	10.360000	-2.310000	278.00	0.31	0.16	0.00	0.00	0.00	0.00	0.00	0.00	0.50	2.00	2.50	2.00	7.50	8.00	8.75	7.25	1.00	2.25	-0.223633	0.140625	0.953125	0.770000	3.360000	2.100000	415.00	0.23	-0.15
3.80	0.00	0.00	0.00	0.00	0.00	0.00	0.25	0.00	8.00	3.75	1.50	0.00	0.75	11.00	1.00	0.25	-0.277344	0.072754	0.930664	-1.610000	9.660000	-2.240000	275.00	0.31	0.16	0.00	0.00	0.00	0.00	0.00	0.00	0.50	2.25	2.25	2.00	7.50	8.25	9.00	7.25	1.00	2.50	-0.227539	0.138672	0.956055	0.630000	3.220000	2.170000	422.00	0.23	-0.16
3.81	0.00	0.00	0.00	0.00	0.00	0.00	0.25	0.00	8.00	3.50	1.50	0.00	0.75	11.00	0.75	0.25	-0.275391	0.075684	0.934082	-1.400000	9.310000	-1.890000	270.00	0.31	0.16	0.00	0.00	0.00	0.00	0.00	0.00	0.50	2.25	2.50	2.00	7.50	8.25	8.75	7.25	0.75	2.50	-0.226562	0.142578	0.949707	0.560000	2.660000	2.170000	420.00	0.23	-0.15
3.82	0.00	0.00	0.00	0.00	0.00	0.00	0.25	0.00	8.00	3.50	1.50	0.00	0.75	11.00	1.00	0.50	-0.281250	0.076660	0.935547	-1.540000	9.240000	-1.540000	274.00	0.31	0.15	0.00	0.00	0.00	0.00	0.00	0.00	0.50	2.25	2.00	2.00	7.50	8.00	8.75	7.25	1.00	2.25	-0.224609	0.139160	0.952148	0.630000	2.450000	1.960000	412.00	0.23	-0.16
3.83	0.00	0.00	0.00	0.00	0.00	0.00	0.25	0.00	8.25	3.75	1.50	0.00	0.75	11.00	0.75	0.25	-0.280762	0.076172	0.934082	-1.540000	9.170000	-1.330000	276.00	0.31	0.16	0.00	0.00	0.00	0.00	0.00	0.00	0.25	2.00	2.00	2.25	7.50	8.00	8.75	7.25	1.00	2.25	-0.228027	0.134277	0.952148	0.630000	2.030000	1.890000	407.00	0.23	-0.16
3.84	0.00	0.00	0.00	0.00	0.00	0.00	0.25	0.00	8.25	3.50	1.75	0.00	0.75	11.00	0.75	0.25	-0.276367	0.080566	0.936035	-1.540000	8.750000	-1.050000	276.00	0.31	0.16	0.00	0.00	0.00	0.00	0.00	0.00	0.50	2.00	2.25	2.00	7.50	8.00	8.75	7.00	1.00	2.25	-0.228027	0.137695	0.946777	0.140000	0.840000	2.030000	410.00	0.23	-0.16
3.85	0.00	0.00	0.00	0.00	0.00	0.00	0.25	0.00	8.00	3.75	1.75	0.00	0.75	11.00	0.75	0.50	-0.278320	0.073730	0.935547	-1.400000	8.470000	-1.050000	276.00	0.31	0.15	0.00	0.00	0.00	0.00	0.00	0.00	0.25	2.00	2.00	2.00	7.50	8.00	8.75	7.25	0.75	2.25	-0.232422	0.134766	0.943848	-0.700000	-0.560000	2.170000	402.00	0.23	-0.16
