# time	left pressure 1[N/cm²]	left pressure 2[N/cm²]	left pressure 3[N/cm²]	left pressure 4[N/cm²]	left pressure 5[N/cm²]	left pressure 6[N/cm²]	left pressure 7[N/cm²]	left pressure 8[N/cm²]	left pressure 9[N/cm²]	left pressure 10[N/cm²]	left pressure 11[N/cm²]	left pressure 12[N/cm²]	left pressure 13[N/cm²]	left pressure 14[N/cm²]	left pressure 15[N/cm²]	left pressure 16[N/cm²]	left acceleration X[g]	left acceleration Y[g]	left acceleration Z[g]	left angular X[dps]	left angular Y[dps]	left angular Z[dps]	left total force[N]	left center of pressure X[%]	left center of pressure Y[%]	right pressure 1[N/cm²]	right pressure 2[N/cm²]	right pressure 3[N/cm²]	right pressure 4[N/cm²]	right pressure 5[N/cm²]	right pressure 6[N/cm²]	right pressure 7[N/cm²]	right pressure 8[N/cm²]	right pressure 9[N/cm²]	right pressure 10[N/cm²]	right pressure 11[N/cm²]	right pressure 12[N/cm²]	right pressure 13[N/cm²]	right pressure 14[N/cm²]	right pressure 15[N/cm²]	right pressure 16[N/cm²]	right acceleration X[g]	right acceleration Y[g]	right acceleration Z[g]	right angular X[dps]	right angular Y[dps]	right angular Z[dps]	right total force[N]	right center of pressure X[%]	right center of pressure Y[%]
0.00																										9.50	11.00	8.25	9.75	1.75	1.50	0.50	0.50	3.75	3.00	2.75	2.50	2.75	3.50	0.75	1.75	-0.209961	0.064453	0.969727	-2.380000	-2.870000	1.960000	656.00	-0.13	-0.05
0.01																										9.75	11.00	8.25	10.00	1.75	1.50	0.50	0.25	3.25	3.25	2.25	2.25	2.75	3.25	0.75	1.50	-0.206543	0.064941	0.964355	-2.380000	-2.800000	1.960000	642.00	-0.14	-0.05
0.02	2.00	1.50	1.00	0.75	0.25	0.00	0.00	0.00	1.00	1.00	0.00	0.25	0.00	1.25	0.25	0.00	-0.276367	0.056152	0.939453	-1.820000	6.510000	-1.540000	96.00	-0.08	0.05	9.75	11.00	8.25	9.75	1.75	1.50	0.50	0.50	3.50	3.25	2.50	2.50	2.75	3.25	0.75	1.50	-0.203613	0.062500	0.966309	-2.380000	-2.800000	1.960000	652.00	-0.14	-0.05
0.03	2.00	1.50	0.75	0.75	0.25	0.00	0.00	0.00	1.00	1.00	0.25	0.25	0.00	1.00	0.00	0.00	-0.273438	0.055176	0.933105	-1.890000	6.440000	-1.610000	91.00	-0.09	0.04	9.75	10.75	8.25	9.75	1.75	1.50	0.50	0.25	3.50	3.00	2.75	2.50	2.75	3.25	0.75	1.50	-0.214355	0.062012	0.965820	-2.240000	-2.940000	1.960000	646.00	-0.14	-0.05
0.04	2.00	1.50	1.00	0.50	0.25	0.00	0.00	0.00	0.50	1.25	0.25	0.25	0.00	0.75	0.25	0.00	-0.274414	0.050781	0.937988	-1.890000	6.370000	-1.470000	88.00	-0.11	0.03	10.00	11.00	8.25	9.75	1.75	1.25	0.50	0.50	3.75	3.25	2.75	2.25	2.75	3.25	0.75	1.75	-0.209473	0.059082	0.968750	-2.170000	-2.940000	2.100000	656.00	-0.14	-0.04
0.05	2.00	1.50	1.25	0.75	0.25	0.00	0.00	0.00	0.75	1.00	0.25	0.00	0.00	1.00	0.00	0.00	-0.276367	0.052734	0.939941	-1.890000	6.160000	-1.400000	91.00	-0.13	0.05	9.75	11.00	8.25	9.75	1.75	1.50	0.50	0.50	3.50	3.25	2.50	2.00	2.75	3.00	0.75	1.50	-0.207031	0.064941	0.964844	-2.240000	-2.940000	2.100000	644.00	-0.14	-0.05
0.06	2.00	1.50	1.00	1.25	0.25	0.00	0.00	0.00	1.25	1.00	0.00	0.00	0.00	1.00	0.25	0.00	-0.280762	0.055664	0.933594	-1.750000	6.230000	-1.470000	100.00	-0.10	0.04	9.75	11.00	8.25	9.75	1.75	1.50	0.50	0.50	3.50	3.25	2.75	2.25	2.75	3.25	0.50	1.50	-0.209473	0.064941	0.964844	-2.170000	-2.870000	2.170000	649.00	-0.14	-0.05
0.07																										9.75	11.00	8.25	10.00	1.75	1.50	0.50	0.50	3.50	3.50	2.50	2.50	2.75	3.25	0.75	1.50	-0.211914	0.068359	0.965820	-2.240000	-3.010000	2.100000	657.00	-0.14	-0.05
0.08	2.00	1.50	1.00	0.50	0.25	0.00	0.00	0.00	0.50	1.00	0.00	0.25	0.00	1.00	0.25	0.00	-0.280762	0.055664	0.933594	-1.750000	6.230000	-1.470000	85.00	-0.11	0.03	9.75	10.75	8.25	10.00	1.50	1.75	0.50	0.25	3.75	3.25	2.75	2.00	2.75	3.00	0.75	1.75	-0.205566	0.061523	0.969727	-2.240000	-3.080000	1.960000	648.00	-0.14	-0.05
0.09																										9.75	11.25	8.25	10.00	1.75	1.25	0.50	0.25	3.50	3.25	2.75	2.25	2.75	3.25	0.75	1.50	-0.207520	0.062988	0.967285	-2.310000	-3.080000	1.890000	650.00	-0.14	-0.05
0.10	2.25	1.25	1.00	0.25	0.00	0.00	0.00	0.00	0.75	1.25	0.00	0.25	0.00	1.00	0.25	0.00	-0.280762	0.055664	0.942383	-1.750000	6.370000	-1.470000	85.00	-0.08	0.06	9.75	11.25	8.50	10.00	1.75	1.25	0.50	0.25	3.75	3.25	2.50	2.25	2.75	3.25	0.75	1.75	-0.205566	0.063965	0.962402	-2.170000	-2.870000	1.960000	655.00	-0.14	-0.04
0.11	2.00	1.50	1.00	0.75	0.25	0.00	0.00	0.00	0.75	1.00	0.25	0.25	0.00	1.00	0.00	0.00	-0.274414	0.056152	0.943848	-1.680000	6.370000	-1.540000	91.00	-0.11	0.03	10.00	11.25	8.25	10.00	1.75	1.50	0.50	0.50	3.75	3.25	2.75	2.25	2.75	3.25	0.75	1.50	-0.205566	0.060059	0.966797	-2.170000	-3.010000	2.030000	663.00	-0.14	-0.05
0.12	1.75	1.50	1.25	0.50	0.25	0.00	0.00	0.00	0.75	1.00	0.25	0.25	0.00	1.25	0.00	0.00	-0.281738	0.051270	0.940918	-1.750000	6.580000	-1.610000	90.00	-0.09	0.04	9.75	11.25	8.50	10.00	1.75	1.50	0.50	0.25	3.50	3.25	2.75	2.25	3.00	3.25	0.75	1.50	-0.205566	0.066406	0.965820	-2.170000	-3.010000	2.100000	658.00	-0.14	-0.05
0.13	2.00	1.25	1.00	0.50	0.25	0.00	0.00	0.00	0.75	1.00	0.00	0.25	0.00	0.75	0.25	0.00	-0.273926	0.047852	0.945801	-1.680000	6.300000	-1.470000	83.00	-0.10	0.05	10.00	11.50	8.25	10.00	1.50	1.50	0.50	0.50	3.50	3.25	2.75	2.25	2.75	3.25	0.75	1.50	-0.206055	0.061035	0.971680	-2.240000	-3.010000	2.100000	659.00	-0.14	-0.05
0.14	2.25	1.25	0.75	0.50	0.25	0.00	0.00	0.00	0.75	1.25	0.25	0.25	0.00	0.75	0.25	0.00	-0.279785	0.048340	0.932129	-1.820000	6.300000	-1.400000	88.00	-0.09	0.04	9.75	11.25	8.50	10.00	1.75	1.50	0.50	0.50	3.50	3.25	2.75	2.25	2.75	3.00	0.75	1.50	-0.202637	0.062012	0.967285	-2.170000	-2.870000	2.100000	657.00	-0.14	-0.05
0.15	2.25	0.75	0.75	0.50	0.25	0.00	0.00	0.00	0.75	1.00	0.00	0.25	0.00	1.00	0.00	0.00	-0.276855	0.051270	0.942383	-1.680000	6.090000	-1.470000	78.00	-0.09	0.07	10.00	11.25	8.50	10.00	1.75	1.50	0.50	0.50	3.50	3.25	2.75	2.50	2.75	3.00	0.75	1.75	-0.209961	0.065918	0.968750	-2.170000	-2.870000	2.170000	664.00	-0.14	-0.05
0.16	2.00	1.25	1.25	0.25	0.25	0.00	0.00	0.00	1.25	0.75	0.25	0.25	0.00	1.25	0.00	0.00	-0.278809	0.046875	0.942871	-1.680000	5.950000	-1.400000	92.00	-0.07	0.08	10.00	11.50	8.50	10.00	1.75	1.50	0.50	0.50	3.50	3.25	2.75	2.50	3.00	3.25	0.75	1.75	-0.204102	0.068359	0.965332	-2.170000	-2.940000	2.170000	671.00	-0.14	-0.05
0.17	2.00	1.25	1.00	0.50	0.25	0.00	0.00	0.00	0.75	1.00	0.25	0.00	0.00	1.00	0.25	0.00	-0.277832	0.054199	0.936523	-1.750000	5.950000	-1.470000	86.00	-0.09	0.05	9.75	11.25	8.50	10.00	1.75	1.50	0.50	0.50	3.50	3.00	2.75	2.25	2.75	3.25	1.00	1.75	-0.210449	0.064453	0.971680	-2.310000	-2.940000	2.170000	661.00	-0.14	-0.05
0.18	2.00	1.50	1.00	0.75	0.25	0.00	0.00	0.00	0.50	1.00	0.00	0.25	0.00	1.00	0.25	0.00	-0.278320	0.046387	0.949219	-1.750000	6.090000	-1.540000	87.00	-0.12	0.03	10.25	11.50	8.50	10.00	1.75	1.50	0.50	0.50	3.50	3.25	2.50	2.50	2.75	3.25	0.75	1.50	-0.212891	0.062012	0.964355	-2.240000	-2.870000	2.170000	667.00	-0.14	-0.05
0.19	2.00	1.50	1.25	0.50	0.50	0.00	0.00	0.00	0.50	1.00	0.25	0.00	0.00	1.00	0.00	0.00	-0.275391	0.054199	0.941406	-1.680000	5.950000	-1.400000	87.00	-0.13	0.05	10.25	11.50	8.50	10.00	1.75	1.50	0.50	0.25	3.50	3.25	2.75	2.25	2.75	3.25	0.75	1.50	-0.213379	0.069824	0.971680	-2.380000	-2.940000	2.100000	663.00	-0.14	-0.05
0.20	2.00	1.25	1.25	0.50	0.25	0.00	0.00	0.00	1.00	1.00	0.25	0.25	0.00	1.00	0.25	0.00	-0.279785	0.056641	0.935059	-1.540000	5.950000	-1.400000	94.00	-0.08	0.05	10.25	11.25	8.50	10.25	1.75	1.25	0.50	0.50	3.50	3.25	3.00	2.50	3.00	3.25	0.75	1.75	-0.205566	0.064941	0.974609	-2.310000	-2.870000	2.170000	673.00	-0.14	-0.05
0.21	2.00	1.25	1.25	1.00	0.25	0.00	0.00	0.00	0.75	1.25	0.00	0.25	0.00	1.50	0.00	0.00	-0.276855	0.055664	0.942871	-1.400000	5.880000	-1.400000	98.00	-0.09	0.04	10.25	11.50	8.25	10.00	1.75	1.50	0.50	0.50	3.75	3.25	2.50	2.50	3.25	3.25	0.75	1.50	-0.206543	0.057617	0.959961	-2.310000	-2.940000	2.170000	672.00	-0.14	-0.05
0.22	2.00	1.50	1.50	1.25	0.25	0.00	0.00	0.00	0.75	1.00	0.25	0.25	0.00	1.00	0.00	0.00	-0.270996	0.056152	0.935547	-1.610000	6.230000	-1.540000	102.00	-0.13	0.02	10.25	11.75	8.50	10.00	1.75	1.50	0.50	0.25	3.75	3.25	2.75	2.25	2.75	3.25	0.75	1.50	-0.214844	0.060547	0.963379	-2.310000	-3.150000	2.240000	669.00	-0.14	-0.04
0.23	2.00	1.50	1.25	0.50	0.25	0.00	0.00	0.00	0.50	1.00	0.25	0.00	0.00	1.25	0.00	0.00	-0.284180	0.050293	0.935547	-1.610000	6.230000	-1.470000	87.00	-0.12	0.05	10.00	11.50	8.50	10.25	1.75	1.25	0.50	0.50	3.75	3.00	2.75	2.50	2.75	3.25	0.50	1.75	-0.208496	0.069336	0.963867	-2.380000	-3.080000	2.240000	666.00	-0.14	-0.05
0.24	2.00	1.50	1.00	0.75	0.25	0.00	0.00	0.00	0.75	1.00	0.25	0.00	0.00	1.00	0.25	0.00	-0.278320	0.053223	0.943359	-1.540000	6.300000	-1.470000	91.00	-0.11	0.04	10.00	11.50	8.50	10.00	1.75	1.25	0.50	0.25	3.75	3.25	2.75	2.25	2.75	3.00	0.75	1.50	-0.205566	0.064453	0.969238	-2.240000	-3.080000	2.100000	659.00	-0.14	-0.04
0.25	1.75	1.50	1.00	1.00	0.25	0.00	0.00	0.00	0.50	1.25	0.00	0.25	0.00	1.25	0.25	0.00	-0.276855	0.052734	0.938965	-1.540000	6.230000	-1.470000	92.00	-0.09	0.02	10.25	11.75	8.25	10.50	1.75	1.50	0.50	0.50	3.50	3.25	2.75	2.25	3.00	3.25	0.75	1.50	-0.208984	0.064941	0.965332	-2.310000	-3.080000	2.100000	674.00	-0.14	-0.05
0.26	1.75	1.25	1.25	0.50	0.25	0.00	0.00	0.00	1.25	0.75	0.25	0.25	0.00	1.00	0.00	0.00	-0.272949	0.048340	0.937500	-1.470000	6.160000	-1.540000	90.00	-0.08	0.06	10.25	11.75	8.50	10.25	1.75	1.50	0.50	0.50	3.50	3.25	2.75	2.50	2.75	3.00	0.75	1.50	-0.204590	0.062988	0.963867	-2.310000	-3.080000	2.170000	673.00	-0.14	-0.05
0.27	2.00	1.50	1.00	0.25	0.00	0.00	0.00	0.00	0.75	1.00	0.00	0.00	0.00	1.00	0.00	0.00	-0.277344	0.050781	0.940918	-1.470000	6.020000	-1.400000	77.00	-0.12	0.07	10.00	11.50	8.75	10.25	1.75	1.50	0.50	0.50	3.75	3.25	2.50	2.25	2.75	3.00	0.75	1.50	-0.210449	0.066406	0.968750	-2.450000	-3.010000	2.100000	668.00	-0.14	-0.05
0.28	1.75	1.50	1.00	0.00	0.00	0.00	0.00	0.00	0.50	1.00	0.25	0.00	0.00	1.00	0.00	0.00	-0.276367	0.048340	0.939941	-1.470000	5.950000	-1.470000	71.00	-0.11	0.06	10.25	11.75	8.75	10.50	1.75	1.50	0.50	0.50	3.50	3.00	2.75	2.50	3.00	3.25	0.50	1.50	-0.206543	0.068359	0.964355	-2.380000	-3.080000	2.100000	677.00	-0.15	-0.05
0.29	1.75	1.75	0.75	0.75	0.25	0.00	0.00	0.00	1.00	1.00	0.00	0.25	0.00	0.75	0.00	0.00	-0.274414	0.054688	0.936035	-1.470000	5.950000	-1.540000	86.00	-0.12	0.03	10.00	11.75	8.50	10.25	1.75	1.75	0.50	0.25	3.50	3.25	3.00	2.25	2.75	3.25	0.75	1.50	-0.204590	0.064941	0.968262	-2.310000	-2.940000	2.170000	671.00	-0.14	-0.05
0.30	1.75	1.25	1.00	0.50	0.25	0.00	0.00	0.00	0.50	1.00	0.25	0.00	0.00	0.75	0.00	0.00	-0.276855	0.054688	0.937988	-1.470000	5.950000	-1.680000	75.00	-0.13	0.04	10.25	11.50	8.50	10.50	1.75	1.50	0.50	0.50	3.75	3.25	2.75	2.50	2.75	3.25	0.50	1.50	-0.212402	0.063477	0.967773	-2.310000	-2.940000	2.240000	676.00	-0.14	-0.05
0.31	2.00	1.50	0.50	0.25	0.00	0.00	0.00	0.00	0.75	1.00	0.00	0.25	0.00	1.00	0.25	0.00	-0.281250	0.050781	0.941406	-1.540000	5.880000	-1.400000	77.00	-0.08	0.05	10.25	12.00	8.50	10.75	1.50	1.75	0.50	0.50	3.75	3.25	2.75	2.25	2.75	3.25	0.75	1.50	-0.210938	0.066406	0.970215	-2.310000	-3.080000	2.170000	683.00	-0.14	-0.05
0.32	2.25	1.50	0.75	0.75	0.25	0.00	0.00	0.00	0.75	1.00	0.00	0.25	0.00	0.75	0.00	0.00	-0.274902	0.052246	0.940918	-1.680000	5.880000	-1.470000	86.00	-0.14	0.04	9.75	12.00	8.75	10.50	1.75	1.50	0.50	0.50	3.75	3.25	2.50	2.50	2.50	3.00	1.00	1.75	-0.205566	0.064453	0.959473	-2.240000	-3.080000	2.170000	678.00	-0.14	-0.05
0.33	2.25	1.50	1.25	0.50	0.25	0.25	0.00	0.00	0.75	1.25	0.00	0.00	0.00	1.00	0.00	0.00	-0.274414	0.051270	0.939453	-1.680000	5.950000	-1.470000	93.00	-0.13	0.05	10.50	11.75	8.75	10.50	1.75	1.25	0.50	0.25	3.75	3.25	2.75	2.25	2.75	3.25	0.75	1.50	-0.209961	0.068359	0.964844	-2.310000	-3.150000	2.100000	677.00	-0.14	-0.04
0.34	2.00	1.25	1.50	0.50	0.25	0.00	0.00	0.00	0.50	1.00	0.00	0.50	0.00	1.25	0.25	0.00	-0.276367	0.053711	0.939941	-1.610000	6.020000	-1.540000	93.00	-0.09	0.04	10.50	12.00	8.75	10.75	1.75	1.50	0.50	0.25	3.50	3.25	2.75	2.25	2.75	3.25	0.75	1.50	-0.210938	0.062988	0.965820	-2.310000	-3.080000	2.240000	681.00	-0.15	-0.05
0.35	2.00	1.50	1.00	0.50	0.25	0.00	0.00	0.00	0.75	1.25	0.25	0.25	0.00	0.75	0.25	0.00	-0.276855	0.052246	0.937988	-1.610000	6.090000	-1.470000	91.00	-0.09	0.04	10.25	11.75	8.75	10.50	1.75	1.75	0.50	0.50	3.75	3.25	2.75	2.25	2.75	3.25	0.75	1.50	-0.210449	0.063477	0.973145	-2.240000	-2.940000	2.170000	684.00	-0.14	-0.05
0.36	2.00	1.50	1.25	0.75	0.25	0.00	0.00	0.00	0.50	1.25	0.25	0.00	0.00	0.50	0.00	0.00	-0.276855	0.050293	0.936035	-1.610000	5.950000	-1.540000	86.00	-0.16	0.03	10.50	11.75	8.50	10.75	1.75	1.50	0.50	0.50	3.75	3.25	2.50	2.50	2.75	3.25	0.75	1.50	-0.203613	0.067383	0.968262	-2.310000	-2.940000	2.310000	683.00	-0.14	-0.05
0.37	2.00	1.75	1.50	0.50	0.25	0.00	0.00	0.00	0.50	1.00	0.00	0.25	0.00	1.00	0.00	0.00	-0.274414	0.049805	0.937500	-1.680000	5.950000	-1.540000	90.00	-0.15	0.04	10.50	11.75	8.75	10.50	1.75	1.50	0.50	0.50	3.75	3.25	2.50	2.50	3.00	3.00	0.75	1.50	-0.208496	0.066895	0.967285	-2.310000	-2.940000	2.240000	683.00	-0.15	-0.05
0.38	2.00	1.50	1.00	0.75	0.25	0.00	0.00	0.00	0.75	1.00	0.00	0.00	0.00	1.00	0.00	0.00	-0.275879	0.053711	0.940918	-1.680000	5.950000	-1.540000	85.00	-0.13	0.05	10.25	11.75	8.75	11.00	1.75	1.50	0.50	0.50	3.50	3.50	2.75	2.50	2.75	3.25	0.75	1.50	-0.209961	0.064941	0.967773	-2.170000	-2.940000	2.310000	688.00	-0.14	-0.05
0.39	2.00	1.50	1.00	0.50	0.25	0.00	0.00	0.00	0.75	1.00	0.25	0.25	0.00	1.00	0.00	0.00	-0.273926	0.051270	0.939453	-1.610000	5.810000	-1.470000	88.00	-0.11	0.04	10.25	11.75	8.50	10.75	1.75	1.50	0.50	0.50	3.75	3.25	2.75	2.50	2.50	3.25	0.75	1.50	-0.210938	0.063965	0.964844	-2.240000	-3.010000	2.240000	681.00	-0.14	-0.05
0.40	2.00	1.25	0.75	0.75	0.25	0.00	0.00	0.00	0.75	1.00	0.00	0.25	0.00	1.00	0.25	0.00	-0.271973	0.048828	0.936523	-1.680000	5.950000	-1.470000	86.00	-0.09	0.04	10.75	11.75	8.50	10.75	1.75	1.50	0.50	0.50	3.50	3.00	2.75	2.25	2.75	3.25	0.75	1.50	-0.204590	0.070312	0.960449	-2.310000	-3.080000	2.170000	680.00	-0.15	-0.05
0.41	1.75	1.50	1.00	0.25	0.25	0.00	0.00	0.00	1.00	1.00	0.25	0.00	0.00	1.25	0.00	0.00	-0.269531	0.049805	0.943359	-1.680000	5.810000	-1.540000	85.00	-0.07	0.07	10.50	11.75	8.75	10.75	1.75	1.50	0.50	0.50	3.50	3.25	2.75	2.25	2.75	3.25	0.75	1.50	-0.210938	0.065430	0.963867	-2.310000	-2.940000	2.240000	683.00	-0.15	-0.05
0.42	2.00	1.50	1.00	0.75	0.25	0.00	0.00	0.00	0.75	0.75	0.00	0.00	0.00	1.00	0.00	0.00	-0.273438	0.054199	0.933105	-1.680000	6.020000	-1.610000	83.00	-0.14	0.05	10.75	11.75	8.50	10.75	1.75	1.50	0.50	0.25	3.50	3.25	2.75	2.50	2.75	3.25	0.75	1.50	-0.206055	0.063477	0.966797	-2.240000	-3.010000	2.240000	682.00	-0.15	-0.05
0.43	1.75	1.00	0.75	0.50	0.25	0.00	0.00	0.00	0.50	1.25	0.25	0.25	0.00	0.75	0.25	0.00	-0.278809	0.046875	0.937012	-1.610000	5.950000	-1.400000	78.00	-0.07	0.03	10.50	12.00	8.50	10.75	1.75	1.25	0.50	0.50	3.50	3.25	2.75	2.50	2.75	3.25	0.75	1.75	-0.207031	0.067871	0.965332	-2.310000	-3.010000	2.240000	684.00	-0.14	-0.05
0.44	1.75	1.50	1.00	0.50	0.00	0.00	0.00	0.00	0.50	1.00	0.00	0.25	0.00	0.75	0.25	0.00	-0.276367	0.048828	0.940918	-1.610000	5.740000	-1.470000	77.00	-0.12	0.03	10.75	12.00	8.50	10.75	1.75	1.25	0.50	0.50	3.75	3.25	2.75	2.25	2.75	3.25	0.50	1.50	-0.207520	0.073242	0.968750	-2.310000	-3.150000	2.240000	683.00	-0.15	-0.05
0.45	2.00	1.25	1.00	0.25	0.25	0.00	0.00	0.00	0.25	1.00	0.00	0.25	0.00	1.00	0.00	0.00	-0.279785	0.050293	0.937500	-1.610000	5.670000	-1.610000	74.00	-0.13	0.04	10.75	11.75	8.50	11.00	1.50	1.25	0.50	0.25	3.75	3.75	2.50	2.50	2.75	3.00	0.75	1.75	-0.202637	0.063477	0.961426	-2.450000	-3.150000	2.240000	684.00	-0.14	-0.05
0.46	2.00	1.25	0.75	0.50	0.25	0.00	0.00	0.00	0.75	1.25	0.00	0.00	0.00	1.00	0.00	0.00	-0.271973	0.052246	0.939453	-1.610000	5.740000	-1.540000	80.00	-0.10	0.06	10.75	12.00	8.75	11.00	1.75	1.50	0.50	0.50	3.75	3.25	2.75	2.50	2.75	3.25	0.75	1.50	-0.202637	0.066895	0.965820	-2.450000	-3.010000	2.100000	696.00	-0.15	-0.05
0.47	2.25	1.25	1.00	0.75	0.25	0.00	0.00	0.00	0.75	1.00	0.00	0.00	0.00	0.75	0.50	0.00	-0.274902	0.051270	0.935547	-1.540000	5.880000	-1.400000	89.00	-0.11	0.05	10.75	11.75	8.50	10.75	1.75	1.25	0.50	0.50	3.75	3.25	2.50	2.50	2.75	3.25	0.75	1.50	-0.207520	0.062988	0.964844	-2.450000	-3.150000	2.240000	683.00	-0.15	-0.05
0.48	1.75	1.75	1.00	0.50	0.25	0.00	0.00	0.00	0.75	0.75	0.00	0.00	0.00	1.00	0.00	0.00	-0.274902	0.052734	0.937500	-1.470000	5.950000	-1.540000	80.00	-0.14	0.05	10.50	12.00	8.50	10.75	1.75	1.50	0.50	0.75	3.75	3.00	2.75	2.50	2.50	3.50	0.75	1.50	-0.209473	0.065430	0.960938	-2.520000	-3.080000	2.240000	689.00	-0.14	-0.05
0.49	2.00	1.00	1.00	0.50	0.25	0.00	0.00	0.00	0.75	1.00	0.00	0.00	0.00	0.50	0.00	0.00	-0.274902	0.049805	0.939941	-1.400000	6.020000	-1.540000	74.00	-0.14	0.06	10.75	12.50	8.75	10.75	1.75	1.75	0.50	0.50	3.50	3.25	2.75	2.50	3.00	3.00	0.50	1.50	-0.204590	0.065918	0.964844	-2.450000	-3.080000	2.170000	695.00	-0.15	-0.05
0.50	2.25	1.00	1.00	0.75	0.25	0.00	0.00	0.00	0.75	1.00	0.00	0.00	0.00	0.75	0.00	0.00	-0.275879	0.046875	0.937500	-1.470000	6.090000	-1.470000	81.00	-0.14	0.06	10.75	12.50	8.75	10.75	1.75	1.50	0.50	0.25	3.75	3.25	2.75	2.25	3.00	3.00	0.75	1.75	-0.205566	0.065918	0.971191	-2.450000	-2.940000	2.240000	693.00	-0.15	-0.05
0.51	1.75	1.00	1.00	0.50	0.25	0.00	0.00	0.00	0.50	1.00	0.00	0.25	0.00	0.75	0.00	0.00	-0.270996	0.055664	0.933594	-1.260000	6.300000	-1.470000	73.00	-0.12	0.04	10.75	12.25	8.75	10.75	1.75	1.50	0.50	0.50	3.50	3.00	2.50	2.50	3.00	3.25	0.75	1.75	-0.208496	0.068359	0.965332	-2.450000	-2.940000	2.240000	691.00	-0.15	-0.05
0.52	2.00	1.75	1.00	0.25	0.25	0.00	0.00	0.00	0.50	1.00	0.00	0.00	0.00	1.00	0.00	0.00	-0.270996	0.055664	0.933594	-1.260000	6.300000	-1.470000	79.00	-0.15	0.05	10.50	12.75	8.75	10.75	1.75	1.75	0.50	0.25	3.75	3.25	2.75	2.25	2.75	3.25	0.75	1.50	-0.206543	0.067383	0.967285	-2.520000	-3.010000	2.170000	694.00	-0.15	-0.05
0.53	2.25	1.25	1.25	0.50	0.25	0.00	0.00	0.00	0.50	1.25	0.00	0.00	0.00	1.00	0.00	0.00	-0.272461	0.054688	0.940430	-1.400000	6.300000	-1.400000	85.00	-0.14	0.06	10.50	12.25	8.75	10.75	1.75	1.50	0.50	0.50	3.75	3.25	2.75	2.50	2.75	3.25	0.25	1.50	-0.209473	0.066895	0.969238	-2.450000	-2.940000	2.030000	688.00	-0.15	-0.05
0.54	2.00	1.50	0.75	0.25	0.25	0.00	0.00	0.00	0.50	1.00	0.25	0.00	0.00	0.75	0.00	0.00	-0.278809	0.050781	0.939941	-1.400000	6.230000	-1.470000	74.00	-0.14	0.05	10.50	12.25	8.50	10.75	1.75	1.50	0.50	0.50	3.50	3.50	2.75	2.50	3.00	3.00	0.50	1.75	-0.205078	0.068359	0.968262	-2.450000	-3.010000	2.170000	689.00	-0.15	-0.05
0.55	2.00	1.75	1.25	0.50	0.25	0.00	0.00	0.00	0.50	1.00	0.00	0.25	0.00	0.75	0.00	0.00	-0.280273	0.051270	0.945312	-1.400000	6.020000	-1.470000	85.00	-0.16	0.03	11.00	12.50	8.50	10.75	1.75	1.25	0.50	0.50	3.75	3.50	2.75	2.25	2.75	3.00	0.75	1.50	-0.205566	0.062500	0.959473	-2.520000	-3.010000	2.240000	693.00	-0.15	-0.05
0.56	2.00	1.00	1.00	0.75	0.25	0.00	0.00	0.00	0.75	1.25	0.00	0.00	0.00	1.00	0.00	0.00	-0.276367	0.054688	0.941895	-1.470000	6.020000	-1.470000	83.00	-0.10	0.06	10.75	12.25	8.75	10.75	1.75	1.25	0.50	0.50	3.75	3.25	2.75	2.25	3.00	3.25	0.50	1.50	-0.205078	0.061035	0.970703	-2.520000	-3.010000	2.170000	690.00	-0.15	-0.05
0.57	1.75	1.50	0.75	0.75	0.25	0.00	0.00	0.00	0.50	1.00	0.00	0.50	0.00	0.75	0.00	0.00	-0.270996	0.051270	0.934570	-1.330000	5.880000	-1.400000	80.00	-0.13	0.01	10.75	12.25	8.75	10.75	1.75	1.50	0.50	0.25	3.50	3.25	2.75	2.25	2.75	3.00	0.75	1.75	-0.204590	0.065430	0.969727	-2.520000	-3.080000	2.100000	685.00	-0.15	-0.05
0.58	2.00	1.25	1.00	0.50	0.25	0.00	0.00	0.00	0.75	1.00	0.00	0.25	0.00	1.00	0.00	0.00	-0.280273	0.047852	0.938477	-1.400000	5.950000	-1.330000	83.00	-0.11	0.05	10.75	12.00	8.75	10.75	1.75	1.50	0.50	0.50	3.25	3.00	2.50	2.25	2.75	3.25	0.50	1.50	-0.210938	0.067383	0.965332	-2.520000	-3.080000	2.170000	677.00	-0.16	-0.05
0.59	2.00	1.00	1.00	0.75	0.25	0.00	0.00	0.00	0.50	0.75	0.00	0.00	0.00	0.75	0.00	0.00	-0.275879	0.051270	0.937500	-1.400000	5.880000	-1.330000	73.00	-0.16	0.05	10.75	12.50	8.75	10.75	1.75	1.75	0.50	0.50	3.50	3.00	2.75	2.50	3.00	3.50	0.50	1.50	-0.204590	0.068359	0.962402	-2.380000	-2.940000	2.170000	697.00	-0.15	-0.05
0.60	2.00	1.50	1.00	0.50	0.25	0.00	0.00	0.00	0.25	0.75	0.00	0.25	0.00	1.00	0.25	0.00	-0.273438	0.054688	0.941406	-1.470000	6.020000	-1.400000	79.00	-0.14	0.02	10.75	13.00	8.75	10.75	1.50	1.25	0.50	0.50	3.25	3.50	2.75	2.25	2.50	3.25	0.75	1.75	-0.208984	0.060059	0.973145	-2.450000	-3.010000	2.170000	690.00	-0.15	-0.05
0.61	1.75	1.50	0.75	0.50	0.00	0.00	0.00	0.00	0.50	1.00	0.00	0.00	0.00	0.75	0.00	0.00	-0.273438	0.051270	0.943848	-1.470000	6.160000	-1.540000	69.00	-0.15	0.04	10.75	12.75	9.00	10.75	1.75	1.75	0.50	0.50	3.50	3.25	2.50	2.50	2.75	3.25	0.75	1.50	-0.208984	0.060059	0.973145	-2.450000	-3.010000	2.170000	700.00	-0.15	-0.05
0.62	2.00	1.25	0.75	0.75	0.25	0.00	0.00	0.00	0.75	1.00	0.00	0.00	0.00	0.75	0.25	0.00	-0.271973	0.049805	0.940430	-1.470000	6.300000	-1.470000	81.00	-0.12	0.05	10.50	12.50	9.00	10.75	1.50	1.50	0.50	0.50	3.50	3.25	2.75	2.25	3.00	3.25	0.50	1.50	-0.206055	0.065430	0.959473	-2.590000	-3.010000	2.170000	689.00	-0.15	-0.05
0.63	2.00	1.50	0.75	0.75	0.25	0.00	0.00	0.00	0.50	1.00	0.00	0.00	0.00	1.00	0.00	0.00	-0.273438	0.047852	0.941406	-1.260000	6.090000	-1.400000	79.00	-0.14	0.04	11.25	12.75	8.75	10.75	1.75	1.50	0.50	0.50	3.50	3.25	2.75	2.25	2.75	3.25	0.75	1.50	-0.206055	0.063965	0.957031	-2.730000	-3.150000	2.100000	700.00	-0.15	-0.05
0.64	2.00	1.50	1.00	0.75	0.50	0.00	0.00	0.00	0.75	1.25	0.25	0.25	0.00	1.00	0.00	0.00	-0.280273	0.046387	0.937988	-1.260000	6.510000	-1.400000	96.00	-0.10	0.04	10.75	13.25	9.00	10.50	1.75	1.50	0.50	0.50	3.50	3.25	2.50	2.25	2.75	3.00	0.50	1.50	-0.208496	0.066406	0.963867	-2.590000	-3.150000	2.100000	692.00	-0.16	-0.05
0.65	2.00	1.50	0.75	0.75	0.25	0.00	0.00	0.00	0.50	0.75	0.25	0.00	0.00	0.50	0.00	0.00	-0.270508	0.052246	0.940918	-1.400000	6.930000	-1.470000	75.00	-0.17	0.02	11.50	12.75	8.75	10.75	1.75	1.50	0.50	0.50	3.50	3.00	2.50	2.25	2.75	3.50	0.50	1.50	-0.205566	0.070801	0.968750	-2.520000	-3.150000	2.100000	697.00	-0.16	-0.05
0.66	2.00	1.75	1.00	0.50	0.25	0.00	0.00	0.00	0.50	1.00	0.00	0.00	0.00	1.00	0.00	0.00	-0.276855	0.050293	0.938477	-1.400000	6.790000	-1.470000	82.00	-0.15	0.04	11.25	12.75	9.00	10.75	1.75	1.50	0.50	0.25	3.50	3.00	2.50	2.25	3.00	3.00	0.75	1.50	-0.207031	0.066895	0.964844	-2.520000	-3.150000	2.170000	694.00	-0.16	-0.05
0.67	1.75	1.75	1.00	0.75	0.25	0.00	0.00	0.00	0.50	1.00	0.25	0.25	0.00	0.50	0.25	0.00	-0.277832	0.052246	0.938477	-1.400000	6.790000	-1.400000	85.00	-0.14	0.01	11.75	13.00	8.75	10.75	1.75	1.75	0.50	0.50	3.50	3.00	2.75	2.25	3.00	3.00	0.75	1.50	-0.205566	0.066406	0.968262	-2.660000	-3.080000	2.030000	707.00	-0.16	-0.05
0.68	2.00	1.50	1.00	0.50	0.25	0.00	0.00	0.00	0.75	0.75	0.00	0.25	0.00	0.75	0.00	0.00	-0.274902	0.049316	0.938477	-1.330000	6.860000	-1.470000	81.00	-0.14	0.04	11.50	12.75	9.00	10.75	1.75	1.75	0.50	0.50	3.75	3.50	2.50	2.50	2.50	3.25	1.00	1.75	-0.203613	0.064453	0.963379	-2.730000	-3.080000	2.030000	716.00	-0.15	-0.05
0.69	2.00	1.25	0.75	0.25	0.00	0.00	0.00	0.00	0.75	1.25	0.00	0.00	0.00	0.75	0.00	0.00	-0.272949	0.055176	0.937500	-1.400000	6.720000	-1.540000	73.00	-0.11	0.07	11.50	12.50	9.00	10.75	1.75	1.25	0.50	0.25	3.25	3.25	2.50	2.50	2.75	3.00	0.75	1.50	-0.208008	0.062012	0.966797	-2.730000	-3.080000	2.030000	691.00	-0.16	-0.05
0.70	2.00	1.75	1.00	0.50	0.25	0.00	0.00	0.00	0.75	1.00	0.25	0.25	0.00	1.00	0.00	0.00	-0.275879	0.047852	0.940430	-1.540000	6.790000	-1.540000	90.00	-0.11	0.04	11.25	12.50	9.00	10.75	1.75	1.50	0.50	0.50	3.50	3.25	2.50	2.25	2.75	3.25	0.75	1.50	-0.209961	0.057617	0.969727	-2.660000	-3.080000	2.170000	698.00	-0.15	-0.05
0.71	2.00	1.25	0.75	0.25	0.25	0.00	0.00	0.00	1.00	1.00	0.00	0.00	0.00	0.75	0.25	0.00	-0.274414	0.051758	0.937988	-1.470000	6.720000	-1.540000	79.00	-0.09	0.07	11.50	12.75	9.00	10.75	1.50	1.75	0.50	0.25	3.75	3.00	2.50	2.25	2.50	3.25	0.50	1.50	-0.203613	0.067871	0.969238	-2.660000	-2.940000	2.030000	695.00	-0.16	-0.04
0.72	2.00	1.50	1.00	0.50	0.25	0.00	0.00	0.00	0.75	0.75	0.25	0.25	0.00	0.75	0.00	0.00	-0.271484	0.051758	0.938965	-1.680000	6.790000	-1.540000	83.00	-0.13	0.04	11.50	12.75	9.25	10.75	1.50	1.25	0.50	0.50	3.50	3.00	2.50	2.25	2.75	3.25	0.75	1.50	-0.207520	0.062500	0.967773	-2.730000	-3.080000	2.100000	697.00	-0.16	-0.05
0.73	2.00	1.50	1.00	0.75	0.25	0.00	0.00	0.25	0.50	1.00	0.00	0.00	0.00	0.75	0.00	0.00	-0.271484	0.056641	0.942383	-1.680000	6.720000	-1.540000	84.00	-0.16	0.02	11.25	12.75	9.00	10.75	1.75	1.50	0.50	0.50	3.50	3.50	2.75	2.25	2.75	3.25	0.75	1.50	-0.206543	0.063965	0.964355	-2.660000	-3.010000	2.170000	705.00	-0.15	-0.05
0.74	2.00	1.50	1.00	0.75	0.25	0.00	0.00	0.00	0.75	1.00	0.00	0.00	0.00	1.25	0.00	0.00	-0.281250	0.048340	0.942383	-1.540000	6.440000	-1.400000	87.00	-0.12	0.05	11.75	12.75	9.00	10.75	1.75	1.25	0.50	0.25	3.25	3.25	2.75	2.25	2.75	3.25	1.00	1.50	-0.205078	0.065430	0.963379	-2.590000	-2.870000	2.170000	701.00	-0.16	-0.05
0.75	1.75	1.50	1.25	0.50	0.25	0.00	0.00	0.00	0.25	1.00	0.25	0.00	0.00	1.00	0.00	0.00	-0.275391	0.054688	0.945312	-1.540000	6.510000	-1.470000	79.00	-0.14	0.03	11.25	13.00	9.00	10.75	1.75	1.50	0.50	0.25	3.50	3.25	2.75	2.50	2.75	3.00	1.00	1.50	-0.205078	0.066406	0.966309	-2.660000	-3.080000	2.240000	704.00	-0.15	-0.05
0.76	2.25	1.50	1.00	0.50	0.25	0.00	0.00	0.00	0.50	1.00	0.00	0.00	0.00	0.50	0.00	0.00	-0.273438	0.052734	0.940918	-1.540000	6.300000	-1.470000	78.00	-0.18	0.04	11.75	12.75	8.75	10.75	1.75	1.50	0.50	0.50	3.50	3.25	2.75	2.25	2.50	3.25	0.75	1.50	-0.212402	0.063965	0.959961	-2.590000	-2.940000	2.170000	703.00	-0.16	-0.05
0.77	2.00	1.50	1.25	0.50	0.25	0.00	0.00	0.00	0.75	1.00	0.25	0.25	0.00	0.50	0.00	0.00	-0.270508	0.054688	0.933594	-1.540000	6.370000	-1.400000	86.00	-0.14	0.04	11.50	12.50	9.25	10.75	1.75	1.50	0.50	0.25	3.50	3.50	2.50	2.25	2.75	3.25	0.75	1.50	-0.208984	0.065430	0.966797	-2.590000	-3.010000	2.170000	702.00	-0.15	-0.04
0.78	2.00	1.50	1.00	0.50	0.25	0.00	0.00	0.00	1.00	0.75	0.00	0.00	0.00	0.75	0.00	0.00	-0.279785	0.047852	0.932617	-1.540000	6.440000	-1.540000	81.00	-0.14	0.06	11.25	12.50	9.00	10.75	1.75	1.50	0.50	0.50	3.50	3.00	2.75	2.25	2.75	3.00	0.75	1.75	-0.208984	0.067383	0.960938	-2.520000	-3.010000	2.170000	697.00	-0.15	-0.05
0.79	2.00	1.00	0.75	0.50	0.25	0.00	0.00	0.00	0.50	1.00	0.00	0.25	0.00	1.00	0.00	0.00	-0.273926	0.053223	0.939453	-1.610000	6.650000	-1.470000	75.00	-0.11	0.05	11.50	12.75	9.25	10.75	1.75	1.25	0.50	0.25	3.50	3.25	2.75	2.50	2.75	3.25	0.75	1.50	-0.208496	0.065430	0.964844	-2.590000	-3.010000	2.170000	704.00	-0.15	-0.05
0.80	1.75	1.25	0.75	0.75	0.25	0.00	0.00	0.00	0.50	1.00	0.25	0.25	0.00	1.25	0.25	0.00	-0.273926	0.051758	0.942383	-1.610000	6.860000	-1.610000	84.00	-0.07	0.03	11.50	12.75	9.00	10.75	1.75	1.50	0.50	0.25	3.50	3.25	2.75	2.25	3.00	3.00	0.75	1.50	-0.206055	0.060547	0.959961	-2.660000	-3.010000	2.100000	701.00	-0.16	-0.05
0.81	2.00	1.50	1.25	0.25	0.25	0.00	0.00	0.00	0.75	1.25	0.00	0.00	0.00	1.00	0.00	0.00	-0.277344	0.054199	0.940430	-1.400000	6.790000	-1.540000	85.00	-0.11	0.07	11.75	12.50	9.00	10.75	1.75	1.50	0.50	0.50	3.50	3.25	2.50	2.25	2.75	3.00	0.75	1.50	-0.209961	0.067871	0.959961	-2.660000	-3.080000	2.170000	701.00	-0.16	-0.05
0.82	2.25	1.50	0.75	0.50	0.25	0.00	0.00	0.00	0.50	1.00	0.25	0.25	0.00	0.50	0.00	0.00	-0.275879	0.050293	0.944336	-1.470000	6.370000	-1.400000	80.00	-0.15	0.03	11.75	12.50	9.00	11.00	1.75	1.75	0.50	0.50	3.50	3.25	2.50	2.25	2.50	3.25	0.75	1.50	-0.210449	0.069336	0.965820	-2.730000	-3.220000	2.100000	706.00	-0.16	-0.05
0.83	2.50	1.50	0.75	0.75	0.25	0.00	0.00	0.00	0.25	1.00	0.00	0.25	0.00	0.75	0.00	0.00	-0.275879	0.045410	0.946289	-1.540000	6.370000	-1.540000	82.00	-0.18	0.02	11.75	12.75	9.00	10.75	1.75	1.75	0.50	0.50	3.50	3.00	2.50	2.25	2.75	3.00	0.50	1.50	-0.208496	0.066406	0.964355	-3.010000	-2.940000	2.030000	701.00	-0.16	-0.05
0.84	2.00	1.50	1.00	0.50	0.25	0.00	0.00	0.00	0.50	0.75	0.00	0.25	0.00	1.00	0.00	0.00	-0.273926	0.051758	0.940430	-1.470000	6.650000	-1.680000	79.00	-0.14	0.04	11.50	13.00	9.00	10.75	1.75	1.25	0.50	0.25	3.50	3.00	2.75	2.25	2.75	3.00	0.75	1.50	-0.206543	0.061035	0.961426	-2.800000	-2.870000	2.240000	696.00	-0.16	-0.05
0.85	2.00	1.50	0.75	0.75	0.00	0.00	0.00	0.00	0.50	1.00	0.25	0.25	0.00	1.00	0.25	0.00	-0.277344	0.050781	0.937988	-1.540000	6.720000	-1.540000	84.00	-0.10	0.02	11.50	13.00	9.00	10.75	1.75	1.50	0.50	0.25	3.75	3.25	2.75	2.25	2.75	3.00	0.50	1.50	-0.213867	0.067383	0.963379	-2.870000	-3.080000	2.380000	702.00	-0.16	-0.04
0.86	2.00	1.50	1.00	0.50	0.25	0.00	0.00	0.00	0.75	1.00	0.00	0.25	0.25	1.00	0.00	0.00	-0.281250	0.050293	0.941895	-1.540000	6.370000	-1.470000	87.00	-0.11	0.03	11.75	12.75	9.00	10.75	1.75	1.75	0.50	0.50	3.75	3.00	2.50	2.25	2.50	3.25	0.50	1.50	-0.200195	0.060059	0.969727	-3.150000	-3.150000	2.240000	704.00	-0.16	-0.04
0.87	2.00	1.00	0.75	0.50	0.00	0.00	0.00	0.00	1.25	1.00	0.25	0.00	0.00	0.75	0.00	0.00	-0.274414	0.045898	0.940918	-1.610000	6.370000	-1.470000	80.00	-0.08	0.08	11.50	12.75	9.00	10.75	1.75	1.50	0.50	0.25	3.25	3.00	2.50	2.25	2.75	3.25	0.50	1.50	-0.213867	0.062988	0.976074	-3.220000	-3.150000	2.170000	690.00	-0.16	-0.05
0.88	1.75	1.50	1.25	0.50	0.25	0.00	0.00	0.00	0.50	1.00	0.25	0.25	0.00	1.25	0.00	0.00	-0.274414	0.053711	0.950195	-1.540000	6.300000	-1.470000	87.00	-0.10	0.04	12.00	13.00	9.00	10.75	1.75	1.50	0.50	0.50	3.50	3.00	2.75	2.00	2.50	3.25	0.50	1.50	-0.210938	0.060547	0.980957	-1.890000	-3.710000	2.520000	703.00	-0.16	-0.04
0.89	2.00	1.75	1.25	0.50	0.25	0.00	0.00	0.00	1.25	1.25	0.00	0.00	0.00	1.25	0.00	0.00	-0.270996	0.051758	0.938965	-1.680000	6.440000	-1.610000	99.00	-0.09	0.07	11.75	13.00	9.25	10.75	1.75	1.50	0.50	0.25	3.25	3.00	2.50	2.25	2.75	3.00	0.50	1.50	-0.210449	0.069824	0.963867	-0.420000	-4.270000	2.800000	696.00	-0.17	-0.05
0.90	2.00	1.50	0.75	0.75	0.25	0.00	0.00	0.00	0.75	1.00	0.00	0.25	0.00	0.75	0.25	0.00	-0.282227	0.051758	0.934082	-1.750000	6.230000	-1.610000	86.00	-0.11	0.03	12.00	13.00	9.25	10.75	1.50	1.25	0.50	0.50	3.00	3.00	2.50	2.00	2.50	3.00	0.50	1.50	-0.223633	0.053223	0.971191	1.330000	-5.460000	3.010000	689.00	-0.17	-0.05
0.91	2.00	1.75	1.25	0.50	0.00	0.00	0.00	0.00	0.75	1.25	0.00	0.50	0.00	0.75	0.25	0.00	-0.278320	0.049316	0.938477	-1.750000	6.300000	-1.610000	93.00	-0.11	0.03	12.75	13.25	9.50	11.25	1.75	1.50	0.50	0.50	2.50	2.75	2.25	2.25	2.50	3.00	0.75	1.50	-0.220703	0.069824	0.979004	4.130000	-7.140000	3.570000	706.00	-0.18	-0.05
0.92	2.00	1.25	1.25	0.75	0.25	0.00	0.00	0.00	0.50	1.00	0.25	0.00	0.00	1.00	0.00	0.00	-0.275879	0.049316	0.937012	-1.610000	6.160000	-1.470000	85.00	-0.13	0.04	13.50	14.25	9.50	11.25	1.75	1.50	0.50	0.25	2.25	2.50	2.25	2.00	2.50	2.75	0.50	1.25	-0.223633	0.075195	0.994141	7.420000	-8.610000	4.200000	705.00	-0.20	-0.05
0.93	2.25	1.50	1.25	0.75	0.25	0.00	0.00	0.00	0.50	1.00	0.00	0.00	0.00	1.00	0.00	0.00	-0.284180	0.050293	0.938477	-1.330000	6.160000	-1.330000	87.00	-0.16	0.04	14.00	14.50	9.75	11.75	1.50	1.25	0.50	0.25	2.00	2.25	1.75	1.75	2.25	2.75	0.50	1.00	-0.226074	0.083496	0.970703	9.240000	-8.820000	4.760000	698.00	-0.21	-0.05
0.94	2.00	1.75	1.50	0.75	0.25	0.00	0.00	0.00	0.75	1.25	0.25	0.25	0.00	0.75	0.00	0.00	-0.272461	0.052734	0.941406	-1.050000	6.230000	-1.190000	99.00	-0.13	0.03	15.00	15.25	9.75	12.00	1.50	1.25	0.25	0.25	1.75	2.00	1.50	1.75	1.75	2.50	0.25	1.00	-0.206055	0.082031	1.005371	7.980000	-9.520000	5.040000	696.00	-0.23	-0.05
0.95	2.00	1.50	1.00	0.50	0.25	0.00	0.00	0.00	0.50	1.00	0.00	0.25	0.00	0.75	0.00	0.00	-0.282227	0.051758	0.942871	-1.120000	6.020000	-1.260000	80.00	-0.15	0.03	15.75	16.25	10.25	12.25	1.50	1.50	0.25	0.00	1.25	1.75	1.50	1.50	2.00	2.25	0.50	0.75	-0.206055	0.084961	0.986328	6.930000	-10.220000	5.180000	710.00	-0.24	-0.05
0.96	2.00	1.50	1.00	0.50	0.25	0.00	0.00	0.00	0.75	1.00	0.00	0.25	0.00	0.75	0.00	0.00	-0.277832	0.050293	0.954102	-1.610000	5.250000	-1.330000	83.00	-0.13	0.04	16.25	16.75	10.50	12.50	1.50	1.25	0.25	0.25	1.00	2.00	1.25	1.50	1.25	1.75	0.25	0.50	-0.228027	0.080078	0.966797	5.740000	-10.640000	5.810000	708.00	-0.26	-0.05
0.97	2.00	1.25	1.25	0.50	0.25	0.00	0.00	0.00	0.50	1.00	0.00	0.25	0.00	0.75	0.00	0.00	-0.275391	0.048340	0.953125	-2.030000	4.060000	-1.330000	80.00	-0.14	0.04	18.25	17.50	10.75	12.75	1.25	1.25	0.25	0.25	1.00	1.50	1.25	1.25	1.50	1.75	0.25	0.50	-0.199707	0.077148	0.978027	5.180000	-10.780000	6.300000	733.00	-0.27	-0.05
0.98	1.75	1.50	1.00	0.75	0.25	0.00	0.00	0.00	0.75	1.00	0.00	0.00	0.00	0.00	0.00	0.00	-0.285645	0.052246	0.967285	-3.010000	2.940000	-1.470000	74.00	-0.18	0.03	19.00	18.50	10.75	13.25	1.50	1.50	0.25	0.25	0.50	1.25	1.25	1.25	1.00	1.25	0.00	0.25	-0.187012	0.079590	0.952637	5.740000	-10.990000	6.580000	739.00	-0.29	-0.05
0.99	1.75	1.75	1.00	0.50	0.25	0.00	0.00	0.00	0.50	0.75	0.00	0.00	0.00	0.75	0.00	0.00	-0.287598	0.051758	0.960449	-3.360000	1.330000	-1.540000	74.00	-0.17	0.04	19.75	19.00	11.00	13.75	1.25	1.50	0.25	0.00	0.50	1.25	1.00	1.25	1.00	1.50	0.00	0.25	-0.180176	0.076660	0.948730	6.510000	-9.940000	7.280000	753.00	-0.29	-0.05
1.00	1.75	0.75	1.00	0.50	0.00	0.00	0.00	0.00	0.50	1.00	0.00	0.00	0.00	0.50	0.00	0.00	-0.279297	0.051758	0.930176	-2.660000	0.140000	-1.610000	63.00	-0.14	0.06	20.75	19.50	11.00	14.00	1.25	1.25	0.00	0.00	0.25	1.25	1.00	1.25	1.00	1.00	0.25	0.25	-0.180176	0.076660	0.948730	6.510000	-9.940000	7.280000	759.00	-0.30	-0.05
1.01	2.25	1.25	1.25	0.50	0.25	0.00	0.00	0.00	0.25	0.75	0.00	0.00	0.00	0.25	0.00	0.00	-0.263184	0.046875	0.880371	-3.360000	-1.610000	-1.680000	70.00	-0.23	0.04	21.00	20.25	11.25	14.00	1.25	1.00	0.00	0.00	0.00	1.00	0.75	1.00	0.50	0.75	0.00	0.25	-0.200195	0.146484	0.875000	7.280000	-9.590000	7.840000	748.00	-0.32	-0.05
1.02	1.75	1.50	1.25	0.50	0.25	0.00	0.00	0.00	0.50	0.75	0.00	0.00	0.00	0.50	0.00	0.00	-0.270996	0.041016	0.950195	-4.690000	-4.760000	-1.470000	73.00	-0.18	0.04	21.75	21.00	11.25	14.50	1.25	1.50	0.00	0.00	0.25	1.00	1.00	1.00	0.50	0.50	0.00	0.00	-0.190430	0.074219	0.975098	10.710000	-10.640000	8.260000	776.00	-0.31	-0.05
1.03	2.25	1.25	0.75	1.00	0.00	0.00	0.00	0.00	0.25	0.50	0.00	0.00	0.00	0.25	0.00	0.00	-0.263672	0.046387	0.942871	-5.250000	-4.970000	-1.610000	65.00	-0.26	0.01	21.75	21.50	11.25	14.50	1.00	1.25	0.00	0.00	0.00	0.75	0.75	0.75	0.50	0.50	0.00	0.00	-0.170898	0.080566	0.914062	14.560000	-9.660000	10.500000	764.00	-0.32	-0.05
1.04	2.00	1.25	0.75	0.25	0.00	0.00	0.00	0.00	0.00	0.25	0.00	0.00	0.00	0.00	0.00	0.00	-0.265625	0.042969	0.938477	-5.390000	-4.130000	-1.680000	46.00	0.00	0.00	22.50	21.75	11.25	14.75	1.00	1.25	0.00	0.00	0.00	0.75	0.75	1.00	0.75	0.25	0.00	0.00	-0.183105	0.098145	0.911133	13.930000	-8.820000	10.640000	780.00	-0.32	-0.05
1.05	2.00	1.00	0.75	0.50	0.00	0.00	0.00	0.00	0.00	0.75	0.00	0.00	0.00	0.00	0.00	0.00	-0.268555	0.061035	0.958984	-6.510000	-4.410000	-1.820000	52.00	-0.27	0.01	22.50	22.25	11.25	15.00	1.00	1.50	0.00	0.00	0.00	0.75	0.75	0.75	0.25	0.25	0.00	0.00	-0.161133	0.145508	0.922363	14.420000	-8.470000	10.150000	783.00	-0.33	-0.05
1.06	1.50	1.25	0.50	0.00	0.00	0.00	0.00	0.00	0.00	0.25	0.00	0.00	0.00	0.00	0.00	0.00	-0.266602	0.064941	0.964844	-9.730000	-4.410000	-2.100000	35.00	0.00	0.00	23.00	22.75	11.25	15.00	1.00	1.50	0.00	0.00	0.00	0.50	0.50	0.75	0.75	0.25	0.00	0.00	-0.172852	0.067383	0.966309	14.000000	-7.980000	10.010000	792.00	-0.33	-0.06
1.07	1.25	0.50	0.50	0.25	0.00	0.00	0.00	0.00	0.00	0.50	0.00	0.00	0.00	0.00	0.00	0.00	-0.279297	0.072754	0.968262	-14.000000	-4.900000	-2.730000	31.00	0.00	0.00	22.75	22.50	11.00	15.25	1.00	1.50	0.00	0.00	0.00	0.50	0.50	0.75	0.50	0.25	0.00	0.00	-0.182617	0.075195	0.964844	15.400000	-7.700000	8.680000	785.00	-0.33	-0.06
1.08	1.50	0.50	0.25	0.00	0.00	0.00	0.00	0.00	0.00	0.00	0.00	0.00	0.00	0.00	0.00	0.00	-0.241211	0.197266	0.970703	-18.620001	-4.480000	-2.590000	23.00	0.00	0.00	22.75	23.00	11.00	15.50	0.75	1.75	0.00	0.00	0.00	0.50	0.75	0.75	0.50	0.00	0.00	0.00	-0.169922	0.107422	0.929199	14.560000	-7.350000	7.000000	793.00	-0.33	-0.06
1.09	1.50	0.25	0.00	0.00	0.00	0.00	0.00	0.00	0.00	0.25	0.00	0.00	0.00	0.00	0.00	0.00	-0.209473	0.319336	1.037598	-30.940001	-6.020000	-0.070000	20.00	0.00	0.00	22.75	23.00	10.75	15.50	0.75	1.75	0.00	0.25	0.00	0.75	0.75	1.00	0.50	0.00	0.00	0.00	-0.170410	0.115234	0.937988	10.290000	-5.740000	5.390000	799.00	-0.33	-0.06
1.10	1.00	0.50	0.00	0.00	0.00	0.00	0.00	0.00	0.00	0.25	0.00	0.00	0.00	0.00	0.00	0.00	-0.323730	0.272461	1.235840	-45.709999	-10.640000	7.280000	18.00	0.00	0.00	22.50	22.75	10.75	15.50	0.75	1.75	0.00	0.25	0.00	0.25	0.50	1.25	0.50	0.00	0.00	0.00	-0.178711	0.105469	0.946289	7.280000	-4.480000	4.200000	789.00	-0.33	-0.06
1.11	0.75	0.50	0.00	0.00	0.00	0.00	0.00	0.00	0.00	0.25	0.00	0.00	0.00	0.00	0.00	0.00	-0.318848	0.354980	1.176270	-60.900002	-19.950001	13.370000	15.00	0.00	0.00	22.25	22.75	10.75	15.50	0.75	2.00	0.00	0.25	0.00	0.50	0.75	1.00	0.75	0.00	0.00	0.00	-0.172363	0.107910	0.959473	5.250000	-3.780000	3.500000	794.00	-0.33	-0.06
1.12	1.00	0.00	0.00	0.00	0.00	0.00	0.00	0.00	0.00	0.00	0.00	0.00	0.00	0.00	0.00	0.00	-0.584961	0.501953	0.847656	-85.260002	-27.719999	28.000000	10.00	0.00	0.00	22.25	22.25	10.75	15.50	0.75	2.25	0.00	0.25	0.00	0.25	0.75	1.00	0.75	0.00	0.00	0.00	-0.174316	0.120117	0.962891	3.850000	-3.290000	3.080000	789.00	-0.33	-0.06
1.13	0.50	0.00	0.00	0.00	0.00	0.00	0.00	0.00	0.00	0.00	0.00	0.00	0.00	0.00	0.00	0.00	-0.584961	0.501953	0.847656	-85.260002	-27.719999	28.000000	5.00	0.00	0.00	22.25	22.50	10.50	15.75	0.75	2.50	0.00	0.25	0.00	0.50	1.00	1.25	1.00	0.00	0.00	0.25	-0.159668	0.123535	0.952637	4.550000	-4.480000	3.080000	806.00	-0.32	-0.07
1.14	0.50	0.25	0.00	0.00	0.00	0.00	0.00	0.00	0.00	0.00	0.00	0.00	0.00	0.00	0.00	0.00	-0.521484	0.537598	0.872070	-68.669998	-8.400000	40.950001	7.00	0.00	0.00	22.00	22.50	10.50	15.75	0.75	2.25	0.00	0.25	0.00	0.50	0.75	1.00	0.75	0.00	0.00	0.25	-0.192383	0.117188	0.997070	7.000000	-5.530000	3.500000	793.00	-0.32	-0.07
1.15	0.75	0.00	0.00	0.00	0.00	0.00	0.00	0.00	0.00	0.00	0.00	0.00	0.00	0.00	0.00	0.00	-0.410645	0.392090	0.899414	-23.940001	21.770000	67.970001	8.00	0.00	0.00	21.75	22.50	10.50	15.75	0.50	2.25	0.00	0.25	0.00	0.25	0.50	1.25	1.00	0.25	0.00	0.25	-0.197754	0.113770	0.980957	8.680000	-7.000000	3.430000	789.00	-0.32	-0.07
1.16	0.25	0.25	0.00	0.00	0.00	0.00	0.00	0.00	0.00	0.00	0.00	0.00	0.25	0.00	0.00	0.00	-0.397949	0.342285	1.029297	-24.010000	24.570000	78.260002	7.00	0.00	0.00	21.50	22.50	10.50	15.75	0.75	2.75	0.00	0.50	0.00	0.75	0.50	1.00	1.00	0.00	0.00	0.25	-0.229492	0.123535	1.023438	12.460000	-9.520000	3.850000	799.00	-0.32	-0.07
1.17	0.25	0.25	0.00	0.00	0.00	0.00	0.00	0.00	0.00	0.00	0.00	0.00	0.00	0.00	0.00	0.00	-0.318848	0.269531	1.037109	-30.380001	24.430000	88.690002	5.00	0.00	0.00	21.25	22.50	10.50	15.75	0.75	2.50	0.00	0.25	0.00	0.50	0.50	0.50	1.00	0.00	0.00	0.25	-0.176758	0.119141	0.975098	14.490000	-10.570000	4.200000	782.00	-0.33	-0.07
1.18	0.75	0.00	0.00	0.00	0.00	0.00	0.00	0.00	0.00	0.00	0.00	0.00	0.00	0.00	0.00	0.00	-0.265625	0.259766	0.997070	-38.920002	23.799999	98.000000	8.00	0.00	0.00	21.00	22.25	10.25	15.75	0.75	2.75	0.00	0.50	0.00	0.25	0.75	1.25	1.25	0.00	0.00	0.50	-0.149414	0.135742	0.897461	13.230000	-11.060000	3.850000	792.00	-0.32	-0.08
1.19	0.50	0.00	0.00	0.00	0.00	0.00	0.00	0.00	0.00	0.00	0.00	0.00	0.00	0.00	0.00	0.00	-0.220215	0.248047	0.935547	-44.170002	24.639999	105.910004	5.00	0.00	0.00	21.00	22.00	10.25	15.75	0.75	3.00	0.00	0.50	0.00	0.50	0.50	1.25	0.75	0.00	0.00	0.50	-0.156250	0.131348	0.929199	10.640000	-10.570000	3.360000	788.00	-0.32	-0.07
1.20	0.50	0.25	0.00	0.00	0.00	0.00	0.00	0.00	0.00	0.00	0.00	0.00	0.00	0.00	0.00	0.00	-0.180664	0.236328	0.912109	-43.820000	26.460001	111.790001	7.00	0.00	0.00	20.75	22.25	10.00	15.50	0.50	2.75	0.00	0.50	0.00	0.25	0.25	1.00	1.25	0.00	0.00	0.50	-0.158691	0.140137	0.923340	5.110000	-7.420000	2.240000	774.00	-0.32	-0.08
1.21	0.00	0.25	0.00	0.00	0.00	0.00	0.00	0.00	0.00	0.00	0.00	0.00	0.00	0.00	0.00	0.00	-0.135742	0.203613	0.946289	-39.759998	27.719999	114.379997	2.00	0.00	0.00	21.00	22.50	10.25	15.75	0.75	3.25	0.00	0.50	0.00	0.50	0.50	1.00	1.50	0.00	0.00	0.50	-0.158691	0.140137	0.923340	5.110000	-7.420000	2.240000	800.00	-0.32	-0.08
1.22	0.75	0.25	0.00	0.00	0.00	0.00	0.00	0.00	0.00	0.25	0.00	0.00	0.00	0.00	0.00	0.00	-0.086426	0.190918	0.989258	-34.299999	27.020000	113.610001	13.00	0.00	0.00	20.75	22.00	10.25	15.50	0.75	3.00	0.00	0.50	0.00	0.50	0.50	1.00	1.25	0.00	0.00	0.50	-0.166016	0.138672	0.933594	0.140000	-4.480000	1.400000	785.00	-0.32	-0.08
1.23	0.50	0.00	0.00	0.00	0.00	0.00	0.00	0.00	0.00	0.00	0.00	0.00	0.00	0.00	0.00	0.00	-0.036133	0.171387	1.020508	-29.190001	24.500000	109.760002	5.00	0.00	0.00	20.50	22.00	10.25	15.50	0.75	3.00	0.00	0.50	0.00	0.50	0.50	1.25	1.50	0.00	0.00	0.50	-0.173828	0.129883	0.955566	-3.220000	-3.150000	0.630000	787.00	-0.31	-0.08
1.24	1.00	0.25	0.00	0.00	0.00	0.00	0.00	0.00	0.00	0.00	0.00	0.00	0.00	0.00	0.00	0.00	0.013672	0.171875	1.023926	-24.500000	21.700001	103.739998	13.00	0.00	0.00	21.50	22.25	10.25	15.50	0.75	3.00	0.00	0.50	0.00	0.25	0.50	0.75	1.75	0.00	0.00	0.75	-0.174805	0.131348	0.962402	-3.640000	-3.080000	0.700000	795.00	-0.32	-0.08
1.25	0.50	0.25	0.00	0.00	0.00	0.00	0.00	0.00	0.00	0.25	0.00	0.00	0.00	0.00	0.00	0.00	0.064453	0.172363	1.024902	-20.230000	18.830000	96.110001	10.00	0.00	0.00	21.25	22.00	10.25	15.50	0.75	3.00	0.00	0.50	0.00	0.25	0.50	1.00	1.75	0.00	0.00	0.75	-0.183105	0.118164	0.983398	-2.310000	-3.850000	0.840000	793.00	-0.32	-0.08
1.26	0.50	0.00	0.00	0.00	0.00	0.00	0.00	0.00	0.00	0.00	0.00	0.00	0.00	0.00	0.00	0.00	0.108398	0.183594	1.010742	-15.120000	16.660000	87.430000	5.00	0.00	0.00	21.25	22.00	10.25	15.75	0.75	2.75	0.00	0.75	0.00	0.50	0.25	0.75	1.25	0.00	0.00	0.50	-0.181641	0.133301	0.991211	-0.700000	-4.830000	0.910000	788.00	-0.32	-0.07
1.27	0.75	0.00	0.00	0.00	0.00	0.00	0.00	0.00	0.00	0.00	0.00	0.00	0.00	0.00	0.00	0.00	0.171387	0.187012	1.008301	-8.610000	14.350000	78.260002	8.00	0.00	0.00	21.25	21.75	10.25	15.50	0.75	3.00	0.00	0.50	0.00	0.25	0.25	1.00	1.25	0.25	0.00	0.50	-0.182617	0.129395	0.988281	1.330000	-6.650000	1.120000	785.00	-0.32	-0.07
1.28	0.25	0.00	0.00	0.00	0.00	0.00	0.00	0.00	0.00	0.00	0.00	0.00	0.00	0.00	0.00	0.00	0.229004	0.205078	1.008789	0.140000	11.200000	69.230003	3.00	0.00	0.00	21.75	22.00	10.25	15.50	0.75	2.75	0.00	0.50	0.00	0.50	0.50	1.00	1.00	0.00	0.00	0.50	-0.177246	0.132812	0.983887	3.710000	-9.030000	1.400000	790.00	-0.32	-0.07
1.29	0.75	0.00	0.00	0.00	0.00	0.00	0.00	0.00	0.00	0.00	0.00	0.00	0.00	0.00	0.00	0.00	0.302734	0.177734	0.993164	11.340000	7.980000	60.970001	8.00	0.00	0.00	21.75	21.75	10.25	15.50	0.75	3.25	0.00	0.50	0.00	0.25	0.50	0.75	1.25	0.00	0.00	0.50	-0.166504	0.133301	0.952148	4.340000	-10.640000	1.260000	790.00	-0.32	-0.07
1.30	0.75	0.00	0.00	0.00	0.00	0.00	0.00	0.00	0.00	0.00	0.00	0.00	0.00	0.00	0.00	0.00	0.346191	0.134277	1.010742	21.770000	4.830000	53.549999	8.00	0.00	0.00	21.50	21.75	10.50	15.75	0.75	3.00	0.00	0.50	0.00	0.50	0.25	1.00	1.25	0.25	0.00	0.50	-0.165527	0.137695	0.936035	2.800000	-10.710000	1.050000	795.00	-0.32	-0.07
1.31	0.50	0.00	0.00	0.00	0.00	0.00	0.00	0.00	0.00	0.00	0.00	0.00	0.00	0.00	0.00	0.00	0.384277	0.103516	1.024902	27.510000	1.820000	46.340000	5.00	0.00	0.00	21.75	22.00	10.25	15.50	0.50	3.00	0.00	0.50	0.00	0.25	0.25	1.50	1.25	0.00	0.00	0.50	-0.162109	0.135254	0.940430	-0.420000	-9.100000	0.630000	792.00	-0.32	-0.07
1.32	0.75	0.00	0.00	0.00	0.00	0.00	0.00	0.00	0.00	0.00	0.00	0.00	0.00	0.00	0.00	0.00	0.411621	0.083496	1.046875	27.580000	-1.120000	40.389999	8.00	0.00	0.00	21.25	21.50	10.25	15.25	0.75	2.75	0.00	0.50	0.00	0.25	0.50	0.75	1.25	0.00	0.00	0.50	-0.159180	0.141602	0.937012	-3.290000	-7.210000	0.140000	775.00	-0.32	-0.07
1.33	0.50	0.25	0.00	0.00	0.00	0.00	0.00	0.00	0.00	0.25	0.00	0.00	0.00	0.00	0.00	0.00	0.411621	0.101562	1.097168	24.990000	-5.250000	35.770000	10.00	0.00	0.00	21.75	21.50	10.25	15.50	0.75	2.75	0.00	0.50	0.00	0.25	0.00	1.00	1.00	0.25	0.00	0.50	-0.161133	0.139648	0.935547	-6.090000	-4.690000	-0.350000	780.00	-0.32	-0.07
1.34	0.50	0.25	0.00	0.00	0.00	0.00	0.00	0.00	0.00	0.25	0.00	0.00	0.00	0.00	0.00	0.00	0.403320	0.124023	1.145508	24.150000	-10.780000	31.920000	10.00	0.00	0.00	21.75	21.50	10.25	15.25	0.75	2.75	0.00	0.50	0.00	0.00	0.50	1.00	1.50	0.00	0.00	0.50	-0.158691	0.136230	0.946777	-8.890000	-1.820000	-0.700000	782.00	-0.32	-0.07
1.35	0.25	0.00	0.00	0.00	0.00	0.00	0.00	0.00	0.00	0.00	0.00	0.00	0.00	0.00	0.00	0.00	0.382324	0.130371	1.199219	25.969999	-18.549999	28.559999	3.00	0.00	0.00	22.00	21.50	10.50	15.25	0.75	2.75	0.00	0.50	0.00	0.25	0.50	1.00	1.25	0.00	0.00	0.75	-0.167480	0.132812	0.958984	-10.780000	0.280000	-0.980000	789.00	-0.32	-0.07
1.36	0.75	0.00	0.00	0.00	0.00	0.00	0.00	0.00	0.00	0.00	0.00	0.00	0.00	0.00	0.00	0.00	0.359375	0.127930	1.236816	28.980000	-28.000000	25.690001	8.00	0.00	0.00	21.75	21.25	10.50	15.00	0.75	2.50	0.00	0.50	0.00	0.25	0.50	1.00	1.25	0.00	0.00	0.75	-0.167969	0.126953	0.950684	-11.690000	1.470000	-1.120000	779.00	-0.32	-0.07
1.37	0.75	0.00	0.00	0.00	0.00	0.00	0.00	0.00	0.00	0.00	0.00	0.00	0.00	0.00	0.00	0.00	0.301270	0.116211	1.207520	29.680000	-47.950001	21.420000	8.00	0.00	0.00	22.00	21.25	10.50	15.00	0.75	2.50	0.00	0.75	0.00	0.25	0.25	1.00	1.75	0.00	0.00	0.50	-0.171387	0.122070	0.959961	-12.110000	2.240000	-1.050000	786.00	-0.32	-0.07
1.38	0.25	0.00	0.00	0.00	0.00	0.00	0.00	0.00	0.00	0.00	0.00	0.00	0.00	0.00	0.00	0.00	0.263672	0.114258	1.157715	29.540001	-54.740002	20.160000	3.00	0.00	0.00	22.25	21.25	10.50	15.00	0.75	2.50	0.00	0.50	0.00	0.00	0.25	0.75	1.50	0.25	0.25	0.50	-0.170898	0.119629	0.975098	-11.480000	2.310000	-0.770000	782.00	-0.32	-0.07
1.39	1.00	0.00	0.00	0.00	0.00	0.00	0.00	0.00	0.00	0.00	0.00	0.00	0.00	0.00	0.00	0.00	0.220215	0.115234	1.124512	31.010000	-59.360001	19.180000	10.00	0.00	0.00	22.25	20.75	10.50	15.00	0.75	2.50	0.00	0.75	0.00	0.50	0.25	1.00	1.50	0.50	0.00	0.75	-0.168457	0.115723	0.959961	-10.640000	2.240000	-0.770000	790.00	-0.31	-0.07
1.40	0.25	0.00	0.00	0.00	0.00	0.00	0.00	0.00	0.00	0.00	0.00	0.00	0.00	0.00	0.00	0.00	0.178711	0.110352	1.111328	34.369999	-62.160000	18.549999	3.00	0.00	0.00	22.00	20.75	10.50	15.00	0.75	2.50	0.00	0.50	0.00	0.25	0.25	1.50	1.25	0.00	0.00	0.75	-0.163086	0.136719	0.951660	-10.220000	2.730000	-0.560000	779.00	-0.32	-0.07
1.41	0.50	0.00	0.00	0.00	0.00	0.00	0.00	0.00	0.00	0.00	0.00	0.00	0.00	0.00	0.00	0.00	0.148926	0.082031	1.099609	38.290001	-63.910000	18.200001	5.00	0.00	0.00	22.25	21.00	10.50	15.00	0.75	2.25	0.00	0.50	0.00	0.25	0.50	1.00	1.75	0.25	0.00	0.75	-0.177734	0.111328	0.977539	-8.890000	2.800000	-0.280000	785.00	-0.32	-0.07
1.42	0.50	0.00	0.00	0.00	0.00	0.00	0.00	0.00	0.00	0.00	0.00	0.00	0.00	0.00	0.00	0.00	0.113281	0.053223	1.093262	40.670002	-64.680000	18.200001	5.00	0.00	0.00	22.25	20.75	10.50	15.00	0.75	2.25	0.00	0.75	0.00	0.50	0.50	0.75	2.25	0.75	0.25	0.75	-0.167969	0.121094	0.944824	-7.980000	4.340000	-0.560000	798.00	-0.30	-0.07
1.43	0.25	0.00	0.00	0.00	0.00	0.00	0.00	0.00	0.00	0.00	0.00	0.00	0.00	0.00	0.00	0.00	0.088867	0.023926	1.095215	40.810001	-64.610001	18.270000	3.00	0.00	0.00	22.00	20.75	10.50	14.75	1.00	2.25	0.00	0.50	0.00	0.50	0.50	1.25	1.50	0.50	0.25	1.00	-0.166992	0.113770	0.941406	-8.960000	5.460000	-0.770000	790.00	-0.31	-0.07
1.44	0.25	0.00	0.00	0.00	0.00	0.00	0.00	0.00	0.00	0.00	0.00	0.00	0.00	0.00	0.00	0.00	0.057129	0.008301	1.112793	39.410000	-64.610001	18.340000	3.00	0.00	0.00	21.75	20.25	10.50	14.50	0.75	2.50	0.00	0.50	0.00	0.75	0.50	1.00	2.00	0.75	0.25	1.00	-0.171875	0.115723	0.954102	-10.150000	5.880000	-1.120000	786.00	-0.30	-0.07
1.45	0.50	0.00	0.00	0.00	0.00	0.00	0.00	0.00	0.00	0.00	0.00	0.00	0.00	0.00	0.00	0.00	0.031738	-0.004883	1.132812	37.099998	-65.309998	18.760000	5.00	0.00	0.00	21.50	20.25	10.50	14.25	1.00	2.25	0.00	0.75	0.00	0.75	0.75	1.00	2.00	0.75	0.25	1.25	-0.172363	0.118164	0.945312	-14.280000	7.280000	-2.100000	789.00	-0.30	-0.07
1.46	0.25	0.00	0.00	0.00	0.00	0.00	0.00	0.00	0.00	0.25	0.00	0.00	0.00	0.00	0.00	0.00	0.018066	-0.006348	1.131836	33.740002	-66.360001	19.460001	5.00	0.00	0.00	21.50	20.00	10.50	14.25	1.00	2.50	0.25	0.75	0.00	0.75	0.75	1.00	2.00	1.00	0.25	1.25	-0.187012	0.122559	0.944336	-19.250000	8.400000	-2.940000	795.00	-0.29	-0.07
1.47	0.25	0.00	0.00	0.00	0.00	0.00	0.00	0.00	0.00	0.00	0.00	0.00	0.00	0.00	0.00	0.00	0.017090	0.003906	1.147461	29.680000	-68.389999	20.440001	3.00	0.00	0.00	21.00	19.75	10.50	14.25	1.25	2.00	0.00	0.75	0.25	1.00	0.75	1.25	2.25	1.25	0.50	1.25	-0.187988	0.106445	0.951172	-23.590000	8.820000	-3.640000	796.00	-0.28	-0.07
1.48	0.25	0.00	0.00	0.00	0.00	0.00	0.00	0.00	0.00	0.25	0.00	0.00	0.00	0.00	0.00	0.00	0.014160	0.019043	1.137695	25.900000	-70.139999	21.420000	5.00	0.00	0.00	21.00	19.25	10.75	14.25	1.00	2.00	0.00	0.75	0.25	1.25	0.75	1.50	2.25	1.25	0.50	1.25	-0.196289	0.107422	0.947266	-25.480000	8.680000	-4.130000	797.00	-0.28	-0.07
1.49	0.25	0.00	0.00	0.00	0.00	0.00	0.00	0.00	0.00	0.00	0.00	0.00	0.00	0.00	0.00	0.00	0.003906	0.019531	1.104980	22.960001	-71.610001	22.820000	3.00	0.00	0.00	20.75	19.00	10.75	13.75	1.25	2.00	0.25	0.75	0.25	1.50	1.00	1.50	2.50	1.50	0.50	1.50	-0.195312	0.103027	0.980469	-25.270000	7.980000	-4.130000	804.00	-0.27	-0.06
1.50	0.25	0.00	0.00	0.00	0.00	0.00	0.00	0.00	0.00	0.00	0.00	0.00	0.00	0.00	0.00	0.00	0.002441	0.023926	1.087891	20.230000	-71.820000	23.590000	3.00	0.00	0.00	20.25	18.75	10.50	13.75	1.25	2.00	0.25	0.75	1.00	1.75	1.25	1.75	2.50	1.50	0.75	1.50	-0.189453	0.083008	0.979492	-23.870001	7.350000	-4.060000	814.00	-0.25	-0.06
1.51	0.50	0.00	0.00	0.00	0.00	0.00	0.00	0.00	0.00	0.00	0.00	0.00	0.00	0.00	0.00	0.00	0.013184	0.034668	1.074707	19.250000	-72.169998	24.360001	5.00	0.00	0.00	20.00	18.25	10.50	13.50	1.50	1.75	0.25	1.00	0.75	2.00	1.25	1.50	2.50	1.75	0.75	1.75	-0.185547	0.091797	0.977051	-22.400000	6.650000	-4.130000	808.00	-0.25	-0.06
1.52	0.25	0.00	0.00	0.00	0.00	0.00	0.00	0.00	0.00	0.00	0.00	0.00	0.00	0.00	0.00	0.00	0.035156	0.043945	1.062012	19.600000	-72.519997	24.850000	3.00	0.00	0.00	19.50	17.75	10.50	13.25	1.25	2.00	0.25	0.75	1.25	2.00	1.25	1.75	3.00	1.75	0.75	1.75	-0.181152	0.084961	0.953613	-19.950001	6.930000	-3.990000	805.00	-0.24	-0.06
1.53	0.50	0.25	0.00	0.00	0.00	0.00	0.00	0.00	0.00	0.00	0.00	0.00	0.00	0.00	0.00	0.00	0.039062	0.039062	1.057129	20.860001	-73.220001	25.340000	7.00	0.00	0.00	18.75	17.25	10.25	13.00	1.50	2.00	0.25	0.75	1.25	2.00	1.50	2.00	3.00	2.00	1.00	2.00	-0.199219	0.062500	0.982910	-16.590000	6.790000	-3.850000	802.00	-0.23	-0.06
1.54	0.00	0.00	0.00	0.00	0.00	0.00	0.00	0.00	0.00	0.00	0.00	0.00	0.00	0.00	0.00	0.00	0.036621	0.019043	1.037109	21.490000	-73.849998	24.920000	0.00	0.00	0.00	18.25	16.50	10.25	12.50	1.75	1.75	0.50	0.75	1.75	2.50	1.50	2.00	3.50	2.25	1.00	2.25	-0.203613	0.080566	0.982422	-14.280000	6.160000	-3.640000	808.00	-0.21	-0.06
1.55	0.50	0.00	0.00	0.00	0.00	0.00	0.00	0.00	0.00	0.00	0.00	0.00	0.00	0.00	0.00	0.00	0.031250	0.005371	0.982422	18.830000	-73.360001	22.120001	5.00	0.00	0.00	17.00	16.00	10.00	12.25	1.75	1.75	0.50	1.00	2.25	2.75	1.75	2.25	3.75	2.50	1.00	2.50	-0.202148	0.099121	0.971680	-14.350000	6.370000	-3.640000	808.00	-0.20	-0.06
1.56	0.50	0.00	0.00	0.00	0.00	0.00	0.00	0.00	0.00	0.00	0.00	0.00	0.00	0.00	0.00	0.00	0.031250	0.005371	0.982422	18.830000	-73.360001	22.120001	5.00	0.00	0.00	16.25	15.00	9.75	11.75	1.75	1.75	0.50	0.75	2.75	3.00	2.00	2.25	3.75	2.50	1.25	2.75	-0.207520	0.092285	0.994629	-17.080000	5.600000	-4.130000	795.00	-0.18	-0.06
1.57	0.50	0.00	0.00	0.00	0.00	0.00	0.00	0.00	0.00	0.00	0.00	0.00	0.00	0.00	0.00	0.00	0.039062	-0.003906	0.956055	17.639999	-72.169998	19.879999	5.00	0.00	0.00	15.50	14.00	9.50	11.50	1.75	1.75	0.75	0.75	3.50	3.75	2.00	2.50	4.25	3.00	1.25	3.00	-0.206055	0.083008	0.960938	-18.200001	5.740000	-4.410000	807.00	-0.16	-0.05
1.58	0.50	0.25	0.00	0.00	0.00	0.00	0.00	0.00	0.00	0.00	0.00	0.00	0.00	0.00	0.00	0.00	-0.004883	-0.007812	0.984375	17.290001	-71.120003	13.510000	7.00	0.00	0.00	14.25	13.25	9.25	11.00	1.75	1.25	0.75	1.00	4.25	4.00	2.50	2.75	4.25	3.25	1.75	3.00	-0.141602	0.099609	0.843750	-19.809999	6.440000	-4.830000	804.00	-0.14	-0.05
1.59	0.50	0.00	0.00	0.00	0.00	0.00	0.00	0.00	0.00	0.00	0.00	0.00	0.00	0.00	0.00	0.00	-0.022949	-0.025879	0.998047	18.620001	-72.239998	9.590000	5.00	0.00	0.00	13.00	12.25	8.75	10.50	2.00	1.75	0.75	1.00	5.50	4.75	2.75	2.75	4.50	3.75	1.75	3.50	-0.214355	0.054199	1.001465	-19.740000	6.930000	-5.460000	815.00	-0.11	-0.05
1.60	1.00	0.00	0.00	0.00	0.00	0.00	0.00	0.00	0.00	0.00	0.00	0.00	0.00	0.00	0.00	0.00	-0.048828	-0.037109	0.953125	18.270000	-74.269997	5.180000	10.00	0.00	0.00	11.75	11.50	8.50	10.00	1.75	1.25	1.00	1.00	7.00	5.75	3.00	3.00	5.00	4.25	1.75	3.50	-0.223633	0.046875	1.013184	-19.040001	9.170000	-5.320000	827.00	-0.08	-0.04
1.61	0.50	0.00	0.00	0.00	0.00	0.00	0.00	0.00	0.00	0.00	0.00	0.00	0.00	0.00	0.00	0.00	-0.099121	-0.040527	0.895020	17.150000	-75.180000	0.770000	5.00	0.00	0.00	10.25	10.25	8.25	9.50	2.00	1.25	1.00	0.75	7.50	7.25	3.25	3.25	4.50	4.75	1.75	4.00	-0.223633	0.046875	1.013184	-19.040001	9.170000	-5.320000	820.00	-0.05	-0.03
1.62	0.50	0.00	0.25	0.00	0.00	0.00	0.00	0.00	0.00	0.00	0.00	0.00	0.00	0.00	0.00	0.00	-0.180176	-0.042480	0.835938	16.520000	-73.919998	-3.500000	8.00	0.00	0.00	9.00	9.25	7.75	8.75	1.75	1.00	1.25	0.75	8.25	8.00	4.00	3.50	5.00	5.25	2.00	4.75	-0.227539	0.044922	0.984375	-16.590000	10.010000	-5.110000	826.00	-0.02	-0.03
1.63	0.50	0.00	0.00	0.00	0.00	0.00	0.00	0.00	0.00	0.00	0.00	0.00	0.00	0.00	0.00	0.00	-0.254883	-0.051270	0.798828	16.379999	-70.769997	-7.910000	5.00	0.00	0.00	7.75	8.00	7.25	8.25	1.75	0.75	1.50	0.75	9.25	8.50	5.00	4.25	5.25	5.75	2.25	4.75	-0.303711	0.061035	0.992676	-17.710001	13.160000	-6.020000	837.00	0.01	-0.02
1.64	0.50	0.25	0.00	0.00	0.00	0.00	0.00	0.00	0.00	0.00	0.00	0.00	0.00	0.00	0.00	0.00	-0.306152	-0.072754	0.762207	16.450001	-66.919998	-12.110000	7.00	0.00	0.00	6.75	7.00	6.50	7.50	1.50	0.50	1.50	0.75	10.25	9.25	5.75	4.00	5.25	6.25	2.50	5.00	-0.143555	0.103516	0.921875	-17.150000	14.910000	-6.160000	830.00	0.04	-0.02
1.65	0.50	0.25	0.00	0.00	0.00	0.00	0.00	0.00	0.00	0.00	0.00	0.00	0.00	0.00	0.00	0.00	-0.343750	-0.098145	0.725586	14.000000	-62.790001	-15.820000	7.00	0.00	0.00	5.50	6.00	6.00	6.75	1.50	0.25	1.75	0.50	11.00	9.75	6.75	4.50	5.25	7.00	2.75	5.25	-0.257812	0.047852	0.972656	-16.799999	16.030001	-7.350000	833.00	0.07	-0.01
1.66	0.50	0.00	0.00	0.00	0.00	0.00	0.00	0.00	0.00	0.00	0.00	0.00	0.00	0.00	0.00	0.00	-0.389160	-0.109375	0.666992	9.590000	-57.959999	-18.620001	5.00	0.00	0.00	4.75	5.25	5.25	6.00	1.25	0.00	2.00	0.50	12.00	10.25	7.25	4.75	5.50	7.25	2.75	5.25	-0.240234	0.088379	0.994141	-15.820000	17.780001	-8.750000	830.00	0.09	-0.00
1.67	0.50	0.00	0.00	0.00	0.00	0.00	0.00	0.00	0.00	0.00	0.00	0.00	0.00	0.00	0.00	0.00	-0.437988	-0.098633	0.624023	4.130000	-51.099998	-20.510000	5.00	0.00	0.00	3.75	4.75	4.50	5.50	1.00	0.00	2.25	0.50	13.00	11.00	7.75	4.75	5.50	8.00	3.25	5.50	-0.235352	0.032227	1.132812	-17.430000	21.629999	-11.410000	842.00	0.12	0.00
1.68	0.50	0.00	0.00	0.00	0.00	0.00	0.00	0.00	0.00	0.25	0.00	0.00	0.00	0.00	0.00	0.00	-0.485352	-0.077148	0.578125	-0.980000	-42.139999	-21.840000	8.00	0.00	0.00	2.75	3.25	4.00	5.00	1.00	0.00	2.25	0.25	13.75	11.50	8.00	5.00	5.75	8.00	3.50	5.50	-0.208984	0.049805	0.965332	-19.389999	25.480000	-14.700000	828.00	0.14	0.01
1.69	0.50	0.25	0.00	0.00	0.00	0.00	0.00	0.00	0.00	0.00	0.00	0.00	0.00	0.00	0.00	0.00	-0.534668	-0.061035	0.567871	-4.550000	-31.920000	-22.120001	7.00	0.00	0.00	2.50	3.00	3.25	4.00	0.75	0.00	2.25	0.25	14.75	12.00	8.00	5.25	5.50	8.50	3.50	5.50	-0.222168	0.083496	0.974609	-19.740000	30.100000	-17.430000	824.00	0.16	0.01
1.70	0.50	0.00	0.00	0.00	0.00	0.00	0.00	0.00	0.00	0.00	0.00	0.00	0.00	0.00	0.00	0.00	-0.570801	-0.065918	0.577637	-8.190000	-21.280001	-21.490000	5.00	0.00	0.00	2.25	2.75	2.50	3.25	0.75	0.00	2.25	0.00	15.50	12.25	8.25	5.00	5.75	9.25	3.50	5.75	-0.312012	0.137695	0.981934	-5.740000	32.759998	-29.750000	821.00	0.18	0.02
1.71	0.50	0.50	0.00	0.00	0.00	0.00	0.00	0.00	0.00	0.00	0.00	0.00	0.00	0.00	0.00	0.00	-0.604980	-0.088379	0.625488	-12.460000	-12.740000	-19.950001	10.00	0.00	0.00	1.75	2.00	2.50	2.00	0.50	0.00	2.25	0.00	16.25	12.75	8.25	5.00	5.50	9.50	4.00	6.00	-0.240723	-0.083008	1.085938	-10.780000	49.070000	-20.580000	814.00	0.20	0.03
1.72	0.50	0.00	0.00	0.00	0.00	0.00	0.00	0.00	0.00	0.00	0.00	0.00	0.00	0.00	0.00	0.00	-0.642578	-0.098633	0.670410	-19.389999	-7.350000	-18.059999	5.00	0.00	0.00	1.50	1.50	2.25	1.75	0.50	0.00	2.25	0.00	16.50	13.25	8.25	5.00	5.25	10.25	4.50	6.00	-0.108887	-0.182617	1.148438	-7.770000	60.410000	-15.750000	819.00	0.21	0.04
1.73	0.50	0.00	0.00	0.00	0.00	0.00	0.00	0.00	0.00	0.00	0.00	0.00	0.00	0.00	0.00	0.00	-0.702637	-0.090820	0.636230	-26.250000	-3.500000	-15.750000	5.00	0.00	0.00	1.00	1.50	1.50	1.50	0.50	0.00	2.50	0.00	17.25	13.50	8.25	4.50	5.00	10.75	5.00	6.00	-0.266113	0.020020	1.040527	-7.210000	72.590004	-11.760000	821.00	0.22	0.04
1.74	0.75	0.00	0.00	0.00	0.00	0.00	0.00	0.00	0.00	0.25	0.00	0.00	0.00	0.00	0.00	0.00	-0.812500	-0.059570	0.580078	-31.780001	3.010000	-12.600000	10.00	0.00	0.00	1.25	1.25	1.50	1.00	0.50	0.00	2.50	0.00	17.75	14.00	8.00	4.25	5.00	11.50	5.25	6.25	-0.319824	-0.008789	1.037598	-5.460000	86.309998	-9.310000	833.00	0.23	0.05
1.75	0.50	0.00	0.00	0.00	0.00	0.00	0.00	0.00	0.00	0.25	0.00	0.00	0.00	0.00	0.00	0.00	-0.906738	-0.015625	0.502441	-36.049999	13.930000	-8.610000	8.00	0.00	0.00	1.00	0.75	1.50	1.00	0.25	0.00	2.75	0.00	18.25	14.25	8.00	4.00	5.00	12.25	5.50	6.50	-0.304688	0.012695	1.020508	-6.020000	100.309998	-6.370000	843.00	0.24	0.05
1.76	0.50	0.25	0.00	0.00	0.00	0.00	0.00	0.00	0.00	0.00	0.00	0.00	0.00	0.00	0.00	0.00	-1.001953	0.024414	0.462402	-38.220001	27.650000	-2.520000	7.00	0.00	0.00	0.75	1.00	1.25	0.50	0.25	0.00	2.75	0.00	18.50	14.75	7.75	3.75	4.25	13.00	6.00	6.50	-0.326660	0.020996	1.048828	-6.370000	114.870003	-3.990000	843.00	0.25	0.06
1.77	0.25	0.00	0.00	0.00	0.00	0.00	0.00	0.00	0.00	0.25	0.00	0.00	0.00	0.00	0.00	0.00	-1.097168	0.041992	0.469727	-38.920002	43.330002	6.230000	5.00	0.00	0.00	1.00	0.50	1.00	0.50	0.25	0.00	3.00	0.00	19.00	15.00	7.50	3.25	4.25	14.25	6.00	6.50	-0.384766	0.033203	1.111816	-9.030000	128.800003	-3.990000	854.00	0.25	0.07
1.78	1.00	1.00	0.00	0.00	0.00	0.00	0.00	0.00	0.00	0.25	0.00	0.00	0.00	0.00	0.00	0.00	-1.104980	0.029297	0.484375	-41.860001	59.360001	16.870001	22.00	0.00	0.00	0.50	0.25	1.00	0.00	0.25	0.00	3.00	0.00	19.25	15.00	6.75	2.50	3.25	14.75	6.25	6.75	-0.386230	0.041992	1.030273	-12.950000	144.270004	-5.110000	828.00	0.26	0.08
1.79	2.00	1.75	0.50	0.00	0.00	0.00	0.00	0.00	0.00	0.00	0.00	0.00	0.00	0.00	0.00	0.00	0.765625	0.130859	1.354980	-79.519997	147.070007	-14.350000	42.00	0.00	0.00	0.50	0.25	1.00	0.00	0.25	0.00	3.25	0.00	19.75	15.00	5.50	2.00	2.75	15.75	6.50	6.75	-0.412598	0.030762	1.045898	-18.969999	160.160004	-6.860000	827.00	0.27	0.09
1.80	2.75	2.50	0.50	0.50	0.00	0.00	0.00	0.00	0.00	0.00	0.00	0.00	0.00	0.00	0.00	0.00	0.722656	0.147949	0.696777	-105.980003	123.760002	-25.340000	63.00	-0.39	-0.02	0.25	0.50	0.75	0.25	0.25	0.00	3.25	0.00	20.00	15.00	4.50	1.50	2.00	16.50	6.50	6.75	-0.427734	0.032715	1.065430	-28.139999	178.430008	-8.470000	814.00	0.27	0.10
1.81	3.00	3.25	0.75	0.50	0.00	0.00	0.00	0.00	0.00	0.00	0.00	0.00	0.00	0.00	0.00	0.00	-0.045410	0.137695	0.224121	-127.750000	149.940002	-29.889999	75.00	-0.38	-0.03	0.25	0.00	0.50	0.00	0.00	0.00	3.50	0.00	19.75	14.75	3.25	1.25	1.50	17.25	6.50	6.75	-0.495117	0.049805	1.072754	-51.799999	214.479996	-12.600000	785.00	0.28	0.11
1.82	3.75	4.50	0.75	1.25	0.00	0.00	0.00	0.00	0.00	0.00	0.00	0.00	0.00	0.00	0.00	0.00	-0.266602	0.464355	0.768555	-117.459999	194.389999	-15.260000	102.00	-0.38	-0.05	0.00	0.00	0.50	0.00	0.00	0.00	4.00	0.00	19.50	14.50	2.50	0.25	1.00	17.75	7.00	6.50	-0.495117	0.049805	1.072754	-51.799999	214.479996	-12.600000	770.00	0.28	0.13
1.83	5.50	5.00	1.50	1.50	0.00	0.00	0.00	0.00	0.00	0.00	0.00	0.00	0.00	0.00	0.00	0.00	-0.393555	0.288574	1.696777	-69.580002	206.360001	17.639999	136.00	-0.38	-0.03	0.00	0.00	0.75	0.00	0.00	0.00	4.25	0.00	19.25	14.00	1.50	0.25	0.75	18.50	6.75	6.50	-0.639160	-0.010742	0.942871	-76.650002	249.899994	-20.370001	759.00	0.28	0.13
1.84	7.25	6.75	1.25	1.50	0.00	0.00	0.00	0.00	0.00	0.00	0.00	0.00	0.00	0.00	0.00	0.00	-0.406738	-0.020996	1.791992	-16.730000	181.089996	43.259998	168.00	-0.39	-0.03	0.00	0.25	0.50	0.00	0.25	0.00	4.50	0.00	18.75	13.75	1.00	0.00	0.25	19.00	6.50	6.25	-0.617676	0.033691	1.149902	-95.760002	268.170013	-26.530001	744.00	0.28	0.14
1.85	9.00	8.75	2.00	2.25	0.00	0.00	0.00	0.00	0.00	0.00	0.00	0.00	0.00	0.00	0.00	0.00	-0.388672	-0.363281	1.437500	18.410000	157.289993	49.560001	221.00	-0.38	-0.03	0.00	0.00	0.50	0.00	0.00	0.00	4.50	0.00	17.50	13.00	1.00	0.00	0.00	19.50	6.50	6.00	-0.679688	0.071289	1.163574	-105.139999	287.070007	-31.780001	715.00	0.29	0.14
1.86	11.75	11.25	2.50	3.00	0.00	0.00	0.00	0.00	0.00	0.00	0.00	0.00	0.00	0.00	0.00	0.00	-0.388184	-0.617188	1.433105	29.820000	151.479996	34.720001	286.00	-0.38	-0.03	0.00	0.00	0.25	0.00	0.00	0.00	4.75	0.00	15.75	12.00	0.25	0.00	0.00	20.25	6.25	5.50	-0.780273	0.117676	1.186523	-106.470001	300.230011	-40.529999	676.00	0.29	0.14
1.87	15.25	15.00	3.50	4.00	0.00	0.00	0.00	0.00	0.00	0.00	0.00	0.00	0.00	0.00	0.00	0.00	-0.428711	-0.365234	1.594238	34.790001	143.430008	11.130000	379.00	-0.38	-0.03	0.00	0.00	0.00	0.00	0.00	0.00	4.75	0.00	13.75	11.00	0.00	0.00	0.00	20.25	6.00	5.00	-0.948242	0.116211	1.415527	-110.739998	312.549988	-55.160000	629.00	0.30	0.14
1.88	17.75	16.75	4.25	5.00	0.00	0.00	0.00	0.00	0.00	0.00	0.00	0.00	0.00	0.00	0.00	0.00	-0.434082	0.111816	1.592773	41.930000	126.980003	-1.540000	440.00	-0.38	-0.03	0.00	0.00	0.25	0.00	0.00	0.00	4.50	0.00	11.00	9.75	0.00	0.00	0.00	20.25	5.50	4.50	-1.203613	0.000000	1.470703	-116.550003	324.589996	-73.500000	571.00	0.30	0.14
1.89	20.00	19.00	5.75	5.75	0.00	0.00	0.00	0.00	0.00	0.00	0.00	0.00	0.00	0.00	0.00	0.00	-0.347656	0.387695	1.378418	40.810001	110.599998	1.330000	509.00	-0.38	-0.03	0.00	0.00	0.00	0.00	0.00	0.00	3.75	0.00	8.75	8.50	0.00	0.00	0.00	19.50	4.50	3.25	-1.371094	0.031738	2.051758	-123.340004	330.260010	-89.250000	491.00	0.30	0.14
1.90	22.00	21.00	6.50	6.75	0.25	0.00	0.00	0.00	0.00	0.00	0.00	0.00	0.00	0.00	0.00	0.00	-0.248535	0.380859	1.151367	30.240000	101.709999	13.300000	570.00	-0.37	-0.03	0.00	0.00	0.00	0.00	0.00	0.00	3.00	0.00	7.50	7.50	0.00	0.00	0.00	18.25	4.00	3.00	-1.442383	0.544922	2.010742	-119.419998	337.049988	-104.230003	435.00	0.31	0.14
1.91	23.25	21.50	7.25	7.50	0.00	0.00	0.00	0.00	0.00	0.00	0.00	0.00	0.00	0.00	0.00	0.00	-0.235840	0.115723	1.063965	19.320000	97.650002	21.770000	602.00	-0.37	-0.03	0.00	0.00	0.00	0.00	0.00	0.00	2.25	0.00	6.25	6.25	0.00	0.00	0.00	15.75	3.50	2.75	-1.692871	0.177734	1.766602	-98.980003	340.200012	-119.279999	367.00	0.31	0.14
1.92	25.00	23.25	7.75	8.50	0.25	0.00	0.00	0.00	0.00	0.00	0.00	0.00	0.00	0.00	0.00	0.00	-0.236816	-0.029785	0.977051	11.690000	96.389999	19.670000	655.00	-0.37	-0.03	0.00	0.00	0.00	0.00	0.00	0.00	1.50	0.00	5.00	5.00	0.25	0.00	0.00	13.25	2.75	2.50	-1.229004	0.419922	1.831543	-110.250000	330.399994	-139.509995	298.00	0.32	0.13
1.93	26.00	24.25	8.50	9.00	0.25	0.50	0.00	0.00	0.00	0.00	0.00	0.00	0.00	0.00	0.00	0.00	-0.232910	0.048340	0.937012	6.370000	97.790001	13.230000	694.00	-0.37	-0.03	0.00	0.00	0.00	0.00	0.00	0.00	1.00	0.00	4.25	4.00	0.25	0.00	0.00	10.50	2.25	2.25	-1.191895	0.590820	1.957031	-127.330002	316.540009	-154.979996	240.00	0.32	0.13
1.94	27.00	24.25	8.75	9.25	0.50	0.50	0.00	0.00	0.00	0.00	0.25	0.00	0.00	0.00	0.00	0.00	-0.229492	0.155273	0.928711	2.240000	100.800003	10.360000	715.00	-0.37	-0.03	0.00	0.00	0.50	0.00	0.00	0.00	0.50	0.00	3.25	3.75	0.25	0.00	0.00	8.25	1.50	1.50	-1.001953	0.748535	1.816406	-118.580002	290.989990	-162.960007	191.00	0.30	0.13
1.95	28.00	25.50	9.50	10.50	0.50	1.00	0.00	0.25	0.00	0.00	0.00	0.00	0.00	0.00	0.00	0.00	-0.412598	0.154785	1.467285	-3.430000	107.029999	11.200000	766.00	-0.36	-0.04	0.00	0.00	0.25	0.00	0.00	0.00	0.25	0.00	2.50	3.00	0.25	0.00	0.00	6.50	1.00	0.75	-0.923340	0.847168	1.642578	-106.050003	279.230011	-165.479996	143.00	0.31	0.14
1.96	28.50	25.25	10.00	10.50	0.75	1.00	0.00	0.25	0.00	0.25	0.25	0.00	0.00	0.00	0.00	0.00	-0.443359	0.009277	1.371582	-17.290001	89.529999	8.750000	782.00	-0.36	-0.03	0.50	0.00	0.25	0.00	0.00	0.00	0.25	0.00	2.25	2.75	0.25	0.00	0.00	4.75	0.75	0.75	-0.631348	0.576172	1.879395	-95.830002	249.830002	-161.350006	125.00	0.27	0.13
1.97	28.75	26.00	10.50	11.25	1.00	1.00	0.00	0.50	0.00	0.25	0.25	0.25	0.00	0.00	0.00	0.00	-0.358887	-0.051758	1.096680	-22.120001	71.470001	3.780000	815.00	-0.35	-0.04	0.25	0.75	0.50	0.50	0.00	0.00	0.25	0.00	1.75	2.50	0.50	0.00	0.00	2.25	0.50	0.25	0.006348	0.612305	1.940918	-103.599998	203.070007	-149.029999	104.00	0.16	0.09
1.98	29.75	25.75	11.00	11.50	1.00	1.25	0.00	0.25	0.00	0.50	0.25	0.25	0.25	0.00	0.00	0.00	-0.313477	0.080566	1.090332	-17.360001	53.900002	0.840000	835.00	-0.35	-0.04	0.50	0.75	0.50	0.00	0.00	0.00	0.25	0.00	1.00	2.00	0.00	0.00	0.00	1.75	0.00	0.00	-0.160645	1.412598	1.354492	-150.990005	158.339996	-110.949997	70.00	0.12	0.12
1.99	29.75	25.50	11.25	11.25	1.00	1.00	0.00	0.25	0.25	0.75	0.50	0.75	0.00	0.00	0.00	0.00	-0.318359	0.077637	1.019531	-12.320000	39.830002	0.280000	841.00	-0.34	-0.03	0.50	0.50	0.75	0.00	0.00	0.00	0.00	0.00	0.75	1.50	0.25	0.00	0.00	1.75	0.00	0.00	0.620605	1.773438	2.586914	-189.070007	13.720000	123.970001	61.00	0.11	0.11
2.00	29.25	25.50	11.50	12.00	1.00	1.25	0.25	0.25	0.25	1.00	0.00	0.75	0.00	0.00	0.00	0.00	-0.298340	0.075195	0.994141	-6.230000	22.610001	-0.630000	851.00	-0.34	-0.03	0.25	0.75	0.25	0.00	0.00	0.00	0.00	0.00	1.00	1.50	0.00	0.00	0.00	1.50	0.25	0.00	0.620605	1.773438	2.586914	-189.070007	13.720000	123.970001	56.00	0.16	0.11
2.01	29.25	25.25	11.75	12.00	1.00	1.50	0.25	0.25	0.50	1.00	0.50	0.50	0.25	0.00	0.00	0.00	-0.302246	0.077148	0.986328	-3.920000	17.920000	-0.980000	862.00	-0.33	-0.03	0.50	0.50	0.25	0.00	0.00	0.00	0.00	0.00	0.50	1.75	0.00	0.00	0.00	1.00	0.25	0.00	0.457031	1.197266	1.929688	-177.240005	-82.879997	207.690002	48.00	0.00	0.00
2.02	29.25	25.00	11.50	12.50	1.00	1.75	0.25	0.25	0.50	1.00	0.50	0.50	0.25	0.00	0.00	0.00	-0.279297	0.087891	0.961426	-1.820000	13.790000	-0.980000	866.00	-0.33	-0.04	0.00	0.25	0.00	0.00	0.00	0.00	0.00	0.00	0.25	1.50	0.00	0.00	0.00	1.00	0.00	0.00	0.401367	0.659668	1.216309	-148.330002	-161.839996	252.559998	30.00	0.00	0.00
2.03	28.50	24.75	11.25	12.25	1.00	1.50	0.25	0.50	0.25	0.75	0.75	0.75	0.25	0.00	0.00	0.00	-0.286621	0.092773	0.957031	-0.700000	11.130000	-0.980000	850.00	-0.33	-0.04	0.25	0.50	0.25	0.00	0.00	0.00	0.00	0.00	0.50	1.00	0.00	0.00	0.00	0.50	0.00	0.00	0.398438	0.456543	1.031250	-111.090004	-169.750000	238.770004	31.00	0.00	0.00
2.04	28.00	24.50	11.50	12.25	1.00	1.50	0.25	0.50	0.25	1.00	0.50	0.50	0.25	0.00	0.00	0.00	-0.290527	0.093750	0.946289	0.070000	9.450000	-1.120000	843.00	-0.33	-0.04	0.00	0.25	0.00	0.00	0.00	0.00	0.00	0.00	0.00	1.00	0.00	0.00	0.00	0.50	0.00	0.00	0.376953	0.320801	0.979492	-68.459999	-171.919998	214.059998	17.00	0.00	0.00
2.05	27.50	23.75	11.50	11.75	1.00	1.75	0.00	0.50	0.00	0.75	0.50	0.75	0.25	0.25	0.00	0.00	-0.282227	0.096191	0.940430	0.210000	8.470000	-1.400000	823.00	-0.33	-0.04	0.00	0.25	0.00	0.00	0.00	0.00	0.00	0.00	0.25	1.00	0.00	0.00	0.00	0.75	0.00	0.00	0.372559	0.195312	1.033203	-33.670002	-175.279999	184.800003	22.00	0.00	0.00
2.06	27.25	23.75	11.00	12.00	1.00	1.75	0.00	0.50	0.25	0.75	0.50	0.50	0.25	0.00	0.00	0.00	-0.285645	0.094238	0.939453	0.350000	7.770000	-1.610000	816.00	-0.34	-0.04	0.25	0.25	0.25	0.00	0.00	0.00	0.00	0.00	0.25	1.00	0.00	0.00	0.00	0.50	0.00	0.00	0.361816	0.117676	1.125977	-16.030001	-185.570007	155.470001	26.00	0.00	0.00
2.07	26.75	23.00	10.75	11.75	1.00	1.50	0.25	0.50	0.00	1.00	0.75	0.50	0.25	0.25	0.00	0.00	-0.273926	0.087402	0.937012	1.120000	7.490000	-1.820000	804.00	-0.33	-0.04	0.25	0.00	0.00	0.00	0.00	0.00	0.00	0.00	0.25	0.75	0.00	0.00	0.00	0.50	0.00	0.00	0.334961	0.083984	1.277344	-16.940001	-203.559998	129.289993	18.00	0.00	0.00
2.08	26.00	22.50	10.50	11.25	1.00	1.75	0.25	0.25	0.00	0.75	0.75	0.50	0.25	0.00	0.00	0.00	-0.278320	0.090332	0.928711	2.170000	7.140000	-2.030000	777.00	-0.33	-0.04	0.25	0.00	0.50	0.00	0.00	0.00	0.00	0.00	0.00	0.50	0.00	0.00	0.00	0.50	0.00	0.00	0.271973	0.118164	1.381348	-30.450001	-228.339996	106.750000	18.00	0.00	0.00
2.09	25.50	22.25	10.50	11.00	1.00	2.00	0.00	0.50	0.25	1.00	0.25	0.75	0.25	0.50	0.00	0.00	-0.275391	0.092285	0.928711	2.870000	7.560000	-2.310000	778.00	-0.33	-0.04	0.25	0.25	0.00	0.00	0.00	0.00	0.00	0.00	0.00	0.50	0.00	0.00	0.00	0.50	0.00	0.00	0.196289	0.225586	1.423828	-46.759998	-257.529999	88.620003	14.00	0.00	0.00
2.10	24.75	21.75	10.25	11.25	1.00	1.50	0.00	0.50	0.25	1.00	0.50	0.50	0.50	0.00	0.00	0.00	-0.277344	0.093750	0.921387	3.010000	8.050000	-2.660000	758.00	-0.33	-0.04	0.50	0.50	0.50	0.00	0.00	0.00	0.00	0.00	0.00	0.50	0.00	0.00	0.00	0.00	0.00	0.00	0.088867	0.367188	1.394531	-55.439999	-286.860016	75.180000	21.00	0.00	0.00
2.11	24.75	21.25	10.25	11.00	1.00	1.75	0.00	0.50	0.25	1.00	0.75	0.75	0.50	0.00	0.00	0.00	-0.276855	0.099609	0.919922	2.380000	9.240000	-3.010000	758.00	-0.33	-0.04	0.00	0.50	0.50	0.00	0.00	0.00	0.00	0.00	0.00	0.50	0.00	0.00	0.00	0.00	0.00	0.00	-0.028320	0.467773	1.312012	-52.920002	-311.220001	65.379997	15.00	0.00	0.00
2.12	24.00	20.50	9.75	10.50	1.00	2.00	0.25	0.50	0.00	1.50	1.00	1.00	0.25	0.25	0.00	0.00	-0.277344	0.104004	0.919922	1.820000	10.430000	-3.220000	746.00	-0.32	-0.04	0.25	0.25	0.25	0.00	0.00	0.00	0.00	0.00	0.00	0.25	0.00	0.00	0.00	0.25	0.00	0.00	-0.154297	0.532715	1.220703	-44.380001	-328.019989	58.170002	12.00	0.00	0.00
2.13	23.75	20.00	10.00	10.50	1.00	2.00	0.25	0.75	0.50	1.00	0.75	0.75	0.50	0.25	0.00	0.00	-0.270508	0.109863	0.905273	0.560000	11.690000	-3.290000	744.00	-0.31	-0.04	0.25	0.25	0.00	0.00	0.00	0.00	0.00	0.00	0.00	0.50	0.00	0.00	0.00	0.25	0.00	0.00	-0.250488	0.589355	1.146484	-34.930000	-337.190002	54.250000	12.00	0.00	0.00
2.14	22.75	19.50	9.75	10.00	1.00	1.75	0.25	0.75	0.50	1.25	1.00	1.00	0.50	0.00	0.25	0.00	-0.266602	0.107422	0.915527	-1.120000	12.740000	-3.290000	726.00	-0.31	-0.04	0.25	0.00	0.00	0.00	0.00	0.00	0.00	0.00	0.00	0.50	0.00	0.00	0.00	0.00	0.00	0.00	-0.314941	0.632324	1.099121	-27.299999	-340.690002	53.480000	8.00	0.00	0.00
2.15	22.00	18.50	9.50	9.75	1.25	2.00	0.25	0.75	0.25	1.25	1.25	0.75	0.75	0.25	0.25	0.00	-0.275879	0.108887	0.917480	-2.520000	13.720000	-3.430000	710.00	-0.30	-0.04	0.25	0.25	0.25	0.00	0.00	0.00	0.00	0.00	0.00	0.50	0.00	0.00	0.00	0.00	0.00	0.00	-0.390137	0.684570	1.081543	-20.299999	-339.570007	55.650002	13.00	0.00	0.00
2.16	21.50	18.00	9.50	9.75	1.00	2.00	0.25	0.75	0.50	1.25	1.00	1.00	1.00	0.00	0.25	0.00	-0.283691	0.104980	0.917969	-3.570000	14.070000	-3.500000	701.00	-0.30	-0.05	0.00	0.00	0.00	0.00	0.00	0.00	0.00	0.00	0.00	0.50	0.00	0.00	0.00	0.00	0.00	0.00	-0.440918	0.742188	1.116211	-11.060000	-334.950012	59.500000	5.00	0.00	0.00
2.17	20.75	17.00	9.50	9.50	1.00	2.00	0.25	0.75	0.25	1.50	1.00	1.25	1.00	0.50	0.00	0.00	-0.293945	0.102539	0.926758	-3.850000	14.000000	-3.360000	685.00	-0.29	-0.05	0.00	0.25	0.25	0.00	0.00	0.00	0.00	0.00	0.00	0.50	0.00	0.00	0.00	0.25	0.00	0.00	-0.489258	0.778320	1.163086	2.450000	-328.929993	65.099998	12.00	0.00	0.00
2.18	20.00	16.50	9.25	9.50	1.25	2.25	0.25	0.75	0.50	1.50	1.75	1.25	0.75	0.50	0.25	0.00	-0.282715	0.098633	0.925293	-3.850000	13.580000	-3.150000	687.00	-0.28	-0.05	0.00	0.25	0.25	0.00	0.00	0.00	0.00	0.00	0.00	0.00	0.00	0.00	0.00	0.00	0.00	0.00	-0.600098	0.852539	1.238770	18.480000	-323.399994	73.220001	5.00	0.00	0.00
2.19	20.00	15.50	9.25	9.25	1.25	2.25	0.25	1.00	0.75	1.75	1.50	1.25	1.25	0.75	0.25	0.00	-0.325195	0.063477	0.937500	-3.430000	12.040000	-2.800000	688.00	-0.27	-0.05	0.25	0.50	0.25	0.00	0.00	0.00	0.00	0.00	0.00	0.00	0.00	0.00	0.00	0.00	0.00	0.00	-0.576172	0.833984	1.355957	23.100000	-315.700012	84.000000	10.00	0.00	0.00
2.20	19.25	14.75	9.00	9.00	1.25	2.25	0.25	1.00	0.50	2.00	1.50	1.50	1.50	0.75	0.50	0.00	-0.325195	0.063477	0.937500	-3.430000	12.040000	-2.800000	675.00	-0.26	-0.05	0.00	0.00	0.00	0.00	0.00	0.00	0.00	0.00	0.00	0.25	0.00	0.00	0.00	0.25	0.00	0.00	-0.685059	0.850098	1.503418	59.849998	-301.420013	99.120003	5.00	0.00	0.00
2.21	18.00	14.25	9.25	8.75	1.50	2.25	0.25	1.00	0.75	2.00	1.50	1.75	1.50	0.75	0.50	0.00	-0.282715	0.101562	0.915039	-3.780000	13.580000	-2.800000	666.00	-0.25	-0.05	0.00	0.00	0.25	0.00	0.00	0.00	0.00	0.00	0.25	0.25	0.00	0.00	0.00	0.00	0.00	0.00	-0.685059	0.850098	1.503418	59.849998	-301.420013	99.120003	9.00	0.00	0.00
2.22	17.50	13.75	9.00	8.75	1.50	2.50	0.50	1.25	0.75	2.25	1.75	1.75	1.75	1.00	0.50	0.25	-0.280273	0.103027	0.913574	-5.460000	14.840000	-3.220000	675.00	-0.24	-0.05	0.00	0.25	0.00	0.00	0.00	0.00	0.00	0.00	0.00	0.00	0.00	0.00	0.00	0.00	0.00	0.00	-0.734375	0.769531	1.638672	80.500000	-295.679993	102.970001	2.00	0.00	0.00
2.23	16.75	12.75	8.75	8.25	1.75	2.75	0.50	1.50	1.00	2.50	2.00	2.00	2.00	1.75	0.50	0.25	-0.284668	0.104492	0.908691	-7.000000	16.309999	-3.850000	678.00	-0.22	-0.05	0.00	0.00	0.25	0.00	0.00	0.00	0.00	0.00	0.00	0.25	0.00	0.00	0.00	0.25	0.00	0.00	-0.837402	0.652344	1.954102	95.269997	-288.890015	109.900002	8.00	0.00	0.00
2.24	15.50	11.25	8.75	8.00	1.75	2.75	0.50	1.50	1.75	2.75	2.50	2.50	2.50	1.75	0.50	0.50	-0.286621	0.104980	0.922852	-9.030000	18.340000	-4.060000	678.00	-0.19	-0.05	0.25	0.25	0.25	0.00	0.00	0.00	0.00	0.00	0.00	0.50	0.00	0.00	0.00	0.00	0.00	0.00	-0.892578	0.609375	2.121094	93.519997	-287.980011	113.050003	13.00	0.00	0.00
2.25	14.25	10.25	8.50	7.75	1.75	3.00	0.75	1.75	1.75	3.00	2.75	2.75	2.75	2.25	1.00	0.50	-0.283203	0.100586	0.925293	-10.640000	19.950001	-4.340000	680.00	-0.16	-0.06	0.00	0.00	0.25	0.00	0.00	0.00	0.00	0.00	0.00	0.50	0.00	0.00	0.00	0.00	0.00	0.00	-0.992188	0.576172	2.251465	89.669998	-289.239990	115.150002	8.00	0.00	0.00
2.26	13.50	8.75	8.00	7.50	1.75	2.75	1.00	2.00	2.25	3.50	3.50	3.50	3.25	2.50	1.00	0.50	-0.299316	0.094238	0.939941	-11.690000	21.210001	-4.200000	689.00	-0.13	-0.06	0.00	0.00	0.00	0.00	0.00	0.00	0.00	0.00	0.00	0.00	0.00	0.00	0.00	0.00	0.00	0.00	-1.079102	0.521484	2.311035	92.889999	-291.549988	116.970001	0.00	0.00	0.00
2.27	11.50	8.00	7.75	7.00	2.00	2.75	1.25	2.25	3.25	4.00	4.00	4.00	3.75	3.50	1.00	0.75	-0.323242	0.085449	0.942871	-11.760000	21.910000	-4.130000	706.00	-0.10	-0.06	0.00	0.00	0.25	0.00	0.00	0.00	0.00	0.00	0.00	0.00	0.00	0.00	0.00	0.00	0.00	0.00	-1.217285	0.462891	2.516602	108.220001	-292.809998	116.690002	3.00	0.00	0.00
2.28	9.50	7.25	7.25	6.50	2.00	2.75	1.50	2.25	3.75	4.50	4.50	5.00	4.00	4.25	1.50	0.75	-0.321289	0.083496	0.948730	-11.410000	22.330000	-3.640000	713.00	-0.06	-0.06	0.00	0.25	0.25	0.00	0.00	0.00	0.00	0.00	0.00	0.25	0.00	0.00	0.00	0.00	0.00	0.00	-1.392090	0.437500	2.728516	131.669998	-297.010010	114.239998	8.00	0.00	0.00
2.29	8.50	6.25	6.75	5.75	2.00	2.25	2.25	2.75	4.50	5.75	6.50	5.75	5.25	5.00	1.50	1.00	-0.320801	0.083008	0.936035	-10.360000	23.660000	-3.360000	763.00	-0.01	-0.06	0.00	0.25	0.00	0.00	0.00	0.00	0.00	0.00	0.00	0.00	0.00	0.00	0.00	0.00	0.00	0.00	-1.626465	0.421387	2.962402	155.119995	-309.049988	111.510002	2.00	0.00	0.00
2.30	7.25	5.50	6.25	5.25	2.00	2.25	2.50	2.75	5.25	6.75	7.50	6.50	5.25	5.00	1.75	1.50	-0.324219	0.077637	0.941895	-8.400000	24.990000	-3.570000	780.00	0.02	-0.06	0.00	0.00	0.00	0.00	0.00	0.00	0.00	0.00	0.00	0.25	0.00	0.00	0.00	0.25	0.00	0.00	-1.939941	0.386719	3.135742	163.449997	-331.660004	109.270004	5.00	0.00	0.00
2.31	5.75	4.75	5.50	4.25	2.00	2.00	3.00	2.75	6.50	7.75	8.25	7.25	6.00	6.50	2.25	1.75	-0.334961	0.079590	0.935547	-6.650000	26.740000	-3.710000	811.00	0.06	-0.05	0.25	0.25	0.00	0.00	0.00	0.00	0.00	0.00	0.00	0.00	0.00	0.00	0.00	0.00	0.00	0.00	-2.225586	0.303711	2.994629	149.449997	-360.920013	106.750000	5.00	0.00	0.00
2.32	5.00	3.50	4.50	3.50	1.50	1.75	3.50	3.25	7.75	8.25	8.75	7.75	6.50	7.00	2.25	1.75	-0.343262	0.086426	0.937012	-5.810000	29.260000	-4.200000	820.00	0.09	-0.04	0.00	0.50	0.00	0.00	0.00	0.00	0.00	0.00	0.00	0.00	0.00	0.00	0.00	0.00	0.00	0.00	-2.493164	0.223145	2.496094	120.050003	-384.019989	100.169998	5.00	0.00	0.00
2.33	3.50	2.75	3.50	2.25	1.25	1.00	3.75	3.50	8.25	9.00	9.50	8.25	6.75	8.00	2.50	2.00	-0.343262	0.097168	0.937988	-5.250000	33.040001	-5.040000	812.00	0.12	-0.04	0.00	0.25	0.25	0.00	0.00	0.00	0.00	0.00	0.00	0.00	0.00	0.00	0.00	0.00	0.00	0.00	-2.798340	0.032715	1.873047	102.480003	-387.450012	85.889999	5.00	0.00	0.00
2.34	2.50	1.50	3.00	2.00	1.00	0.75	4.25	3.50	9.00	9.50	10.00	8.75	7.25	8.25	3.00	2.25	-0.355469	0.110352	0.936523	-4.830000	38.920002	-7.210000	823.00	0.15	-0.04	0.25	0.00	0.25	0.00	0.00	0.00	0.00	0.00	0.00	0.00	0.00	0.00	0.00	0.00	0.00	0.00	-3.161133	-0.164551	1.039551	120.680000	-368.410004	65.519997	5.00	0.00	0.00
2.35	1.75	1.50	2.00	1.00	0.75	0.50	4.75	3.00	9.75	10.00	10.50	9.25	7.50	9.00	3.25	2.50	-0.334473	0.091797	0.958984	-4.900000	46.759998	-9.800000	825.00	0.18	-0.03	0.00	0.00	0.25	0.00	0.00	0.00	0.00	0.00	0.00	0.25	0.00	0.00	0.00	0.00	0.00	0.00	-3.761719	-0.490234	0.310547	156.169998	-331.589996	33.459999	5.00	0.00	0.00
2.36	1.25	0.25	1.00	1.00	0.50	0.50	5.00	3.00	10.50	10.50	11.00	9.75	7.50	9.25	4.25	3.00	-0.364746	0.020508	1.042480	-3.850000	57.750000	-13.720000	839.00	0.20	-0.03	0.25	0.00	0.00	0.00	0.00	0.00	0.00	0.00	0.00	0.25	0.00	0.00	0.00	0.00	0.00	0.00	-4.648438	-0.937012	-0.385254	201.740005	-282.450012	1.890000	5.00	0.00	0.00
2.37	0.75	1.00	0.50	0.50	0.25	0.00	5.25	3.00	11.25	11.50	11.50	10.00	7.50	9.75	4.75	3.25	-0.331055	0.042969	0.992676	-2.310000	77.000000	-15.470000	865.00	0.21	-0.03	0.25	0.25	0.25	0.00	0.00	0.00	0.00	0.00	0.00	0.25	0.00	0.00	0.00	0.00	0.00	0.00	-5.411621	-1.491211	-1.023438	236.600006	-223.300003	-5.880000	10.00	0.00	0.00
2.38	1.00	0.50	0.50	0.50	0.50	0.50	5.25	2.50	12.00	12.00	11.75	10.00	7.25	10.50	5.25	3.25	-0.383301	0.081055	0.994629	-2.030000	106.050003	-14.490000	890.00	0.22	-0.02	0.00	0.00	0.00	0.00	0.00	0.00	0.00	0.00	0.00	0.75	0.00	0.00	0.00	0.25	0.00	0.00	-5.204102	-2.052246	-1.328613	192.990005	-141.680008	-8.750000	10.00	0.00	0.00
2.39	0.25	0.00	0.50	0.00	0.00	0.00	5.50	2.00	13.00	13.00	11.75	10.00	6.75	11.00	6.00	3.25	-0.396484	0.083984	0.976562	-3.290000	131.529999	-14.420000	889.00	0.24	-0.00	0.25	0.50	0.00	0.00	0.00	0.00	0.00	0.00	0.00	0.50	0.00	0.00	0.00	0.00	0.00	0.00	-4.236328	-2.083496	-1.255371	48.790001	-42.630001	-33.880001	12.00	0.00	0.00
2.40	0.25	0.00	0.25	0.00	0.00	0.25	5.50	1.75	13.75	13.25	11.75	10.00	6.50	11.50	6.00	3.25	-0.431152	0.057129	0.966797	-4.480000	150.080002	-13.930000	900.00	0.24	0.00	0.00	0.00	0.00	0.00	0.00	0.00	0.00	0.00	0.00	0.00	0.00	0.00	0.00	0.00	0.00	0.00	-3.455566	-1.445312	-0.543457	-128.589996	49.630001	-65.519997	0.00	0.00	0.00
2.41	0.25	0.00	0.00	0.00	0.00	0.00	5.50	1.25	14.25	13.75	12.00	9.75	6.50	12.25	6.50	3.75	-0.475586	0.060059	0.954102	-4.550000	167.229996	-11.550000	913.00	0.25	0.01	0.00	0.25	0.00	0.00	0.00	0.00	0.00	0.00	0.00	0.00	0.00	0.00	0.00	0.00	0.00	0.00	-2.881348	-0.687500	0.424805	-253.610001	120.400002	-75.110001	2.00	0.00	0.00
2.42	0.00	0.00	0.00	0.00	0.00	0.00	5.75	1.25	14.75	14.25	11.75	9.75	6.25	12.50	6.75	3.50	-0.569824	0.108398	0.980469	-7.840000	214.899994	-11.340000	924.00	0.25	0.01	0.00	0.00	0.25	0.00	0.00	0.00	0.00	0.00	0.00	0.00	0.00	0.00	0.00	0.00	0.00	0.00	-1.959961	0.375977	1.546387	-261.380005	160.020004	-34.230000	3.00	0.00	0.00
2.43	0.00	0.00	0.00	0.00	0.00	0.00	5.50	1.25	15.00	14.00	11.50	9.50	5.75	12.50	6.75	3.75	-0.578125	0.064941	1.018066	-9.660000	242.270004	-12.110000	913.00	0.25	0.02	1.00	1.75	0.75	1.25	0.25	0.00	0.00	0.00	0.00	0.00	0.00	0.00	0.00	0.00	0.00	0.00	4.205078	0.075195	5.355469	-179.550003	326.549988	-27.510000	51.00	-0.34	-0.07
2.44	0.25	0.00	0.00	0.00	0.00	0.00	5.50	0.75	15.00	14.00	11.25	9.00	5.50	13.00	7.00	3.75	-0.642578	0.103027	1.098145	-7.910000	265.510010	-14.000000	905.00	0.25	0.03	3.25	4.75	1.75	3.25	0.25	0.00	0.00	0.00	0.00	0.00	0.00	0.00	0.00	0.00	0.00	0.00	1.895508	0.939453	-1.313965	-157.220001	88.690002	-23.450001	135.00	-0.35	-0.07
2.45	0.00	0.00	0.00	0.00	0.00	0.00	5.25	1.00	14.75	14.00	10.75	9.00	5.25	13.00	7.00	3.75	-0.677246	0.072754	1.157715	-3.500000	286.089996	-14.840000	891.00	0.25	0.02	7.00	8.00	2.50	4.25	0.25	0.00	0.00	0.00	0.00	0.00	0.00	0.00	0.00	0.00	0.00	0.00	0.374023	0.064453	-2.034668	-232.540009	84.279999	-36.959999	223.00	-0.36	-0.05
2.46	0.00	0.00	0.00	0.00	0.00	0.00	5.25	0.75	13.75	13.50	10.00	8.50	5.00	13.00	7.25	4.25	-0.792480	0.077637	1.302246	2.310000	305.410004	-12.600000	859.00	0.26	0.02	9.75	11.25	2.75	5.50	0.00	0.00	0.00	0.00	0.00	0.00	0.00	0.00	0.00	0.00	0.00	0.00	-0.630371	0.319824	0.122070	-294.630005	229.389999	-33.740002	295.00	-0.37	-0.06
2.47	0.00	0.00	0.00	0.00	0.00	0.00	4.75	1.00	12.75	12.75	9.25	7.75	4.50	13.00	7.00	4.50	-0.873535	0.115234	1.331543	10.920000	325.709991	-10.360000	813.00	0.26	0.02	14.50	15.00	3.50	6.50	0.00	0.00	0.00	0.00	0.00	0.00	0.00	0.00	0.00	0.00	0.00	0.00	-0.958984	1.027832	2.059570	-193.550003	301.910004	34.720001	398.00	-0.37	-0.05
2.48	0.00	0.00	0.00	0.00	0.00	0.00	4.25	0.75	11.50	11.75	8.00	6.75	3.75	13.25	7.25	4.50	-1.135254	0.172363	1.481445	25.059999	350.489990	-10.920000	750.00	0.27	0.03	19.25	18.50	6.00	8.50	0.00	0.00	0.00	0.00	0.00	0.00	0.00	0.00	0.00	0.00	0.00	0.00	-0.973145	-0.682617	2.958984	-66.639999	284.549988	100.169998	530.00	-0.37	-0.04
2.49	0.00	0.00	0.00	0.00	0.00	0.00	3.75	0.50	10.00	10.50	6.50	6.00	3.00	13.25	7.25	5.00	-1.307129	0.178223	1.734863	39.900002	378.070007	-9.100000	678.00	0.27	0.03	22.75	20.75	7.25	9.50	0.00	0.00	0.00	0.00	0.00	0.00	0.00	0.00	0.00	0.00	0.00	0.00	-0.736328	-1.529297	2.256348	-15.470000	267.750000	82.949997	612.00	-0.37	-0.04
2.50	0.00	0.00	0.00	0.00	0.00	0.00	3.00	0.25	8.50	9.50	5.00	4.75	2.25	12.75	7.25	4.50	-1.500488	0.266602	2.116211	56.139999	403.970001	-6.440000	591.00	0.28	0.04	23.50	21.75	8.25	10.75	0.25	0.00	0.00	0.00	0.00	0.00	0.00	0.00	0.00	0.00	0.00	0.00	-0.680664	-1.086914	2.113281	4.270000	258.790009	30.660000	656.00	-0.37	-0.04
2.51	0.00	0.00	0.00	0.00	0.00	0.00	2.50	0.00	7.75	8.50	2.50	3.25	1.50	12.25	7.00	4.00	-1.561035	0.163574	2.315918	55.299999	431.970001	-10.290000	501.00	0.29	0.06	24.00	22.25	8.75	11.50	0.00	0.00	0.00	0.00	0.00	0.00	0.00	0.00	0.00	0.00	0.00	0.00	-0.681152	-0.141113	2.143555	28.420000	226.449997	-6.930000	677.00	-0.37	-0.04
2.52	0.00	0.00	0.00	0.00	0.00	0.00	1.50	0.00	6.50	7.75	2.00	2.25	0.50	11.25	6.50	3.25	-1.615234	0.662109	2.223145	42.209999	468.089996	-24.219999	419.00	0.30	0.07	23.75	22.00	9.25	12.25	0.25	0.00	0.00	0.00	0.00	0.00	0.00	0.00	0.00	0.00	0.00	0.00	-0.445312	0.499512	1.710938	42.840000	184.660004	-8.400000	689.00	-0.36	-0.04
2.53	0.00	0.00	0.00	0.00	0.00	0.00	1.00	0.00	5.00	6.75	1.25	2.00	0.75	10.00	5.75	2.50	-1.619629	0.979492	2.405762	72.309998	494.410004	-45.009998	351.00	0.31	0.06	23.00	21.75	9.75	12.75	0.25	0.00	0.00	0.00	0.00	0.00	0.00	0.00	0.00	0.00	0.00	0.00	-0.292969	0.322754	1.296387	38.430000	154.559998	4.900000	690.00	-0.36	-0.04
2.54	0.00	0.00	0.00	0.00	0.00	0.00	0.25	0.00	4.75	5.00	0.75	1.50	0.25	8.75	4.75	2.00	-1.756348	0.684082	2.147949	104.370003	503.440002	-66.080002	279.00	0.32	0.07	22.75	21.75	10.25	13.50	0.50	0.50	0.00	0.00	0.00	0.00	0.00	0.50	0.00	0.00	0.00	0.00	-0.232422	0.060547	1.095215	29.400000	139.789993	9.030000	714.00	-0.35	-0.05
2.55	0.00	0.00	0.00	0.00	0.00	0.00	0.00	0.00	3.50	4.50	1.25	1.25	0.00	7.50	3.75	1.25	-1.843262	0.567871	3.227539	115.919998	500.290009	-79.590004	229.00	0.32	0.07	22.25	21.75	10.50	14.00	0.50	1.00	0.00	0.25	0.00	0.00	0.00	0.25	0.00	0.00	0.00	0.00	-0.248047	0.058594	1.032715	21.910000	133.490005	3.360000	724.00	-0.35	-0.05
2.56	0.00	0.00	0.00	0.00	0.00	0.00	0.00	0.00	2.50	4.25	1.00	1.25	0.00	5.75	2.75	0.75	-1.514160	0.575195	3.000977	103.110001	463.330017	-104.930000	183.00	0.32	0.06	21.75	21.25	11.00	14.50	0.50	1.00	0.00	0.25	0.00	0.00	0.00	0.75	1.00	0.00	0.00	0.00	-0.517578	0.388184	2.225098	-5.670000	129.850006	-2.800000	739.00	-0.34	-0.06
2.57	0.00	0.00	0.00	0.00	0.00	0.00	0.00	0.00	2.50	3.50	1.25	1.00	0.00	3.50	1.50	0.00	-0.953125	0.518555	2.548828	76.580002	416.920013	-125.860001	138.00	0.30	0.08	21.50	21.25	11.50	14.75	0.50	1.25	0.00	0.25	0.00	0.00	0.00	0.75	0.75	0.00	0.00	0.00	-0.507324	0.306641	1.416992	-26.740000	88.129997	7.210000	746.00	-0.34	-0.06
2.58	0.50	0.00	0.00	0.00	0.00	0.00	0.00	0.00	1.25	2.50	0.75	0.75	0.00	1.25	0.75	0.00	0.092773	0.646484	2.758301	77.209999	337.049988	-133.210007	82.00	0.24	0.06	21.50	21.00	11.75	15.00	0.75	1.50	0.00	0.50	0.00	0.25	0.25	1.00	0.75	0.00	0.00	0.00	-0.290527	0.041504	1.129395	-37.520000	56.420002	8.120000	766.00	-0.33	-0.06
2.59	0.50	0.25	0.00	0.00	0.00	0.00	0.00	0.00	1.25	1.75	0.25	0.50	0.00	1.00	0.25	0.00	0.942383	0.337891	2.525879	62.160000	250.320007	-140.000000	61.00	0.19	0.09	21.25	20.75	11.75	15.00	1.00	1.50	0.25	0.50	0.00	0.50	0.50	1.00	1.00	0.00	0.00	0.00	-0.273438	0.183105	1.154297	-34.299999	35.000000	2.800000	775.00	-0.32	-0.06
2.60	0.50	0.00	0.00	0.00	0.00	0.00	0.00	0.00	0.25	1.00	0.00	0.50	0.00	0.75	0.25	0.00	0.292969	0.967285	1.139648	32.480000	208.949997	-138.110001	33.00	0.00	0.00	20.75	20.75	12.00	15.00	1.00	1.75	0.25	0.50	0.00	0.50	0.75	1.00	1.00	0.25	0.00	0.00	-0.257324	0.081055	1.032715	-24.639999	14.700000	2.450000	780.00	-0.31	-0.06
2.61	0.50	0.00	0.00	0.00	0.00	0.00	0.00	0.00	0.50	1.50	0.25	0.00	0.00	0.75	0.25	0.00	0.431152	0.958008	3.739746	5.880000	99.820000	-98.910004	39.00	0.00	0.00	20.75	20.00	11.75	14.75	1.25	1.75	0.00	0.50	0.00	0.50	0.50	1.00	1.00	0.00	0.00	0.00	-0.257324	0.081055	1.032715	-24.639999	14.700000	2.450000	762.00	-0.32	-0.06
2.62	0.25	0.00	0.00	0.00	0.00	0.00	0.00	0.00	0.75	1.25	0.00	0.25	0.00	0.25	0.00	0.00	0.670410	0.530762	2.021973	-41.439999	-103.389999	-21.840000	30.00	0.00	0.00	20.00	19.75	11.50	14.75	1.00	2.00	0.25	0.50	0.00	0.75	0.50	1.00	1.00	0.25	0.00	0.00	-0.224609	0.107422	1.010742	-19.389999	9.800000	1.820000	757.00	-0.31	-0.06
2.63	0.25	0.00	0.00	0.00	0.00	0.00	0.00	0.00	1.00	1.25	0.25	0.00	0.00	0.25	0.25	0.00	0.548340	0.465820	1.477539	-60.830002	-153.229996	1.190000	36.00	0.00	0.00	19.75	19.25	11.25	14.50	1.00	1.75	0.25	0.50	0.25	0.75	0.50	1.25	1.00	0.25	0.00	0.00	-0.218750	0.112793	0.979492	-10.710000	5.250000	1.610000	748.00	-0.31	-0.06
2.64	0.25	0.00	0.00	0.00	0.00	0.00	0.00	0.00	0.50	1.00	0.00	0.00	0.00	0.25	0.00	0.00	0.545898	0.405273	1.069824	-57.610001	-179.479996	13.580000	22.00	0.00	0.00	19.00	18.75	11.00	14.00	1.00	1.75	0.00	0.75	0.00	1.00	1.00	1.00	1.00	0.25	0.00	0.00	-0.205078	0.120605	0.933105	-7.070000	4.760000	1.960000	729.00	-0.31	-0.06
2.65	0.25	0.00	0.00	0.00	0.00	0.00	0.00	0.00	0.50	1.25	0.25	0.00	0.00	0.00	0.00	0.00	0.490723	0.338379	0.854492	-41.790001	-194.389999	17.990000	25.00	0.00	0.00	17.75	18.00	10.75	13.75	1.00	2.25	0.25	0.50	0.25	0.75	1.00	1.25	1.25	0.50	0.00	0.00	-0.191406	0.125000	0.881348	-4.410000	5.950000	2.660000	717.00	-0.30	-0.07
2.66	0.25	0.00	0.00	0.00	0.00	0.00	0.00	0.00	1.00	1.25	0.00	0.00	0.00	0.00	0.00	0.00	0.434082	0.285156	0.738281	-21.000000	-202.369995	17.430000	29.00	0.00	0.00	16.75	17.50	10.25	13.50	1.00	2.25	0.25	0.75	0.00	0.75	1.00	1.25	1.50	0.50	0.00	0.25	-0.202637	0.104492	0.940430	-1.330000	6.720000	3.080000	698.00	-0.29	-0.07
2.67	0.00	0.00	0.00	0.00	0.00	0.00	0.00	0.00	0.25	1.25	0.00	0.00	0.00	0.00	0.00	0.00	0.371582	0.221680	0.683105	-0.280000	-206.919998	14.980000	16.00	0.00	0.00	16.00	16.75	10.00	13.25	1.00	2.25	0.25	0.75	0.00	1.25	1.00	1.25	1.75	0.50	0.00	0.25	-0.191406	0.111816	0.965332	1.610000	7.560000	3.570000	685.00	-0.28	-0.07
2.68	0.25	0.00	0.00	0.00	0.00	0.00	0.00	0.00	0.00	1.00	0.00	0.00	0.00	0.00	0.00	0.00	0.305664	0.172363	0.707520	15.960000	-211.119995	11.830000	13.00	0.00	0.00	14.75	16.00	9.50	13.00	1.00	2.25	0.25	1.00	0.00	1.00	1.00	1.50	2.00	0.50	0.00	0.50	-0.198242	0.114258	0.995117	3.430000	7.700000	4.060000	664.00	-0.28	-0.08
2.69	0.00	0.00	0.00	0.00	0.00	0.00	0.00	0.00	0.00	1.25	0.00	0.00	0.00	0.00	0.00	0.00	0.247070	0.111328	0.829102	24.219999	-218.470001	9.170000	13.00	0.00	0.00	13.00	15.00	9.25	12.50	1.00	2.25	0.25	1.25	0.00	1.00	1.25	1.50	2.25	0.50	0.25	0.75	-0.233887	0.077148	0.959961	5.040000	7.700000	3.710000	641.00	-0.26	-0.09
2.70	0.25	0.00	0.00	0.00	0.00	0.00	0.00	0.00	0.00	1.00	0.00	0.00	0.00	0.00	0.00	0.00	0.190430	0.077637	0.960938	24.080000	-231.350006	8.330000	13.00	0.00	0.00	12.00	14.50	9.00	12.00	0.75	2.50	0.25	1.25	0.00	1.25	1.50	1.50	2.75	0.50	0.00	1.00	-0.237793	0.122070	0.964355	5.460000	6.790000	3.220000	626.00	-0.25	-0.10
2.71	0.50	0.00	0.00	0.00	0.00	0.00	0.00	0.00	0.00	0.50	0.00	0.00	0.00	0.00	0.00	0.00	0.109375	0.098145	1.100586	16.379999	-249.899994	10.360000	10.00	0.00	0.00	11.00	13.75	8.50	11.75	1.00	2.75	0.25	1.50	0.00	1.25	1.25	1.75	3.00	0.50	0.00	1.00	-0.231445	0.067383	0.840332	4.550000	6.370000	2.450000	612.00	-0.24	-0.10
2.72	0.00	0.00	0.00	0.00	0.00	0.00	0.00	0.00	0.50	0.75	0.00	0.00	0.00	0.00	0.00	0.00	0.020508	0.130371	1.192871	3.850000	-271.250000	15.680000	14.00	0.00	0.00	10.00	12.50	8.00	11.50	1.00	2.75	0.00	1.50	0.25	1.25	1.50	1.75	3.25	0.75	0.25	1.25	-0.224121	0.150879	0.945312	5.530000	5.530000	1.680000	592.00	-0.23	-0.11
2.73	0.25	0.00	0.00	0.00	0.00	0.00	0.00	0.00	0.00	0.75	0.00	0.00	0.00	0.00	0.00	0.00	-0.067383	0.173828	1.224121	-10.290000	-292.670013	23.590000	10.00	0.00	0.00	9.00	12.00	7.75	11.00	1.00	3.00	0.00	1.75	0.25	1.50	1.50	2.00	3.50	0.75	0.25	1.75	-0.243164	0.166992	0.962402	6.650000	4.900000	1.400000	586.00	-0.21	-0.12
2.74	0.25	0.00	0.00	0.00	0.00	0.00	0.00	0.00	0.00	0.50	0.00	0.00	0.00	0.00	0.00	0.00	-0.168457	0.216309	1.229004	-21.910000	-311.290009	32.130001	8.00	0.00	0.00	8.50	11.00	7.50	10.50	1.00	3.00	0.00	2.00	0.25	1.25	1.75	2.00	4.00	1.00	0.25	1.50	-0.229980	0.132324	0.943359	7.630000	4.550000	1.540000	572.00	-0.20	-0.12
2.75	0.25	0.00	0.00	0.00	0.00	0.00	0.00	0.00	0.25	1.00	0.00	0.00	0.00	0.00	0.00	0.00	-0.250488	0.270020	1.233398	-26.180000	-326.339996	40.040001	16.00	0.00	0.00	7.75	10.50	7.00	10.50	1.00	2.75	0.00	2.25	0.00	1.25	1.75	2.25	4.50	1.00	0.25	1.75	-0.225586	0.132324	0.944336	8.400000	5.040000	2.240000	560.00	-0.19	-0.13
2.76	0.00	0.00	0.00	0.00	0.00	0.00	0.00	0.00	0.00	0.75	0.00	0.00	0.00	0.00	0.00	0.00	-0.323242	0.286133	1.250977	-22.750000	-337.820007	46.689999	8.00	0.00	0.00	7.25	9.75	6.75	9.75	0.75	3.00	0.00	2.50	0.25	1.50	2.00	2.25	5.00	1.00	0.25	2.25	-0.224609	0.138184	1.009277	10.360000	6.090000	3.150000	556.00	-0.17	-0.14
2.77	0.00	0.00	0.00	0.00	0.00	0.00	0.00	0.00	0.00	0.50	0.00	0.00	0.00	0.00	0.00	0.00	-0.385742	0.281738	1.266602	-15.050000	-347.059998	52.009998	5.00	0.00	0.00	6.50	9.25	6.50	9.50	1.00	3.00	0.00	3.00	0.25	1.50	2.00	2.50	5.25	1.25	0.25	2.25	-0.240234	0.128906	0.935059	11.200000	7.070000	3.570000	556.00	-0.16	-0.15
2.78	0.00	0.00	0.00	0.00	0.00	0.00	0.00	0.00	0.00	0.25	0.00	0.00	0.00	0.00	0.00	0.00	-0.441406	0.223633	1.315918	-8.540000	-354.339996	56.070000	3.00	0.00	0.00	5.75	8.50	6.25	9.25	1.00	3.25	0.00	3.50	0.25	1.75	2.00	3.00	5.50	1.25	0.25	2.75	-0.238770	0.150879	0.920898	11.410000	7.840000	3.850000	559.00	-0.14	-0.16
2.79	0.00	0.00	0.00	0.00	0.00	0.00	0.00	0.00	0.00	0.25	0.00	0.00	0.00	0.00	0.00	0.00	-0.519043	0.149414	1.359375	-6.300000	-360.010010	59.080002	3.00	0.00	0.00	5.50	8.00	5.75	9.00	1.00	3.25	0.00	4.50	0.25	1.75	2.50	3.25	6.50	1.25	0.50	2.50	-0.229492	0.158691	0.929688	9.730000	8.820000	3.290000	576.00	-0.12	-0.17
2.80	0.00	0.00	0.00	0.00	0.00	0.00	0.00	0.00	0.00	0.50	0.00	0.00	0.00	0.00	0.00	0.00	-0.622070	0.171875	1.434570	-8.680000	-364.000000	60.060001	5.00	0.00	0.00	5.25	7.50	5.50	8.50	1.00	3.25	0.25	5.00	0.50	2.00	2.75	4.00	7.00	1.50	0.75	3.00	-0.206055	0.150879	0.952148	7.070000	9.800000	1.820000	600.00	-0.09	-0.17
2.81	0.00	0.00	0.00	0.00	0.00	0.00	0.00	0.00	0.00	0.50	0.00	0.00	0.00	0.00	0.00	0.00	-0.561035	0.139648	1.576172	-21.629999	-365.470001	61.599998	5.00	0.00	0.00	4.75	7.00	5.00	8.50	1.00	3.25	0.00	5.50	0.75	2.00	2.75	4.25	8.00	1.75	1.00	3.25	-0.222168	0.165039	0.951172	2.590000	10.430000	0.420000	609.00	-0.07	-0.18
2.82	0.00	0.00	0.00	0.00	0.00	0.00	0.00	0.00	0.00	0.25	0.00	0.00	0.00	0.00	0.00	0.00	-0.671875	0.284668	1.659180	-12.740000	-370.860016	59.290001	3.00	0.00	0.00	4.25	6.25	5.00	8.00	1.00	3.00	0.25	5.75	1.00	2.50	3.75	5.00	8.00	2.25	1.00	4.00	-0.222168	0.165039	0.951172	-1.470000	11.130000	-1.190000	632.00	-0.04	-0.18
2.83	0.00	0.00	0.00	0.00	0.00	0.00	0.00	0.00	0.00	0.50	0.00	0.00	0.00	0.00	0.00	0.00	-0.760742	0.212891	1.901367	21.629999	-384.579987	49.630001	5.00	0.00	0.00	3.75	6.00	4.75	7.75	1.00	2.75	0.25	6.00	1.00	2.75	4.25	5.75	8.50	2.50	1.00	5.00	-0.223633	0.134766	0.966309	-7.210000	11.480000	-3.920000	648.00	-0.02	-0.18
2.84	0.00	0.00	0.00	0.00	0.00	0.00	0.00	0.25	0.00	0.00	0.00	0.00	0.00	0.00	0.00	0.00	-0.838867	0.179199	2.103516	31.710001	-392.209991	45.080002	4.00	0.00	0.00	3.50	5.25	4.25	7.50	1.00	2.25	0.25	6.50	1.50	3.25	5.25	7.00	8.75	3.00	1.25	5.50	-0.253418	0.147949	0.963379	-10.290000	12.530000	-5.110000	679.00	0.01	-0.18
2.85	0.00	0.00	0.00	0.00	0.00	0.00	0.00	0.00	0.00	0.25	0.00	0.00	0.00	0.00	0.00	0.00	-0.912598	0.174316	2.345703	34.369999	-401.730011	41.650002	3.00	0.00	0.00	3.00	5.00	4.25	6.75	1.00	2.50	0.25	6.25	2.00	3.50	6.25	7.75	9.00	4.00	1.75	6.00	-0.253418	0.152832	0.949707	-13.860000	13.370000	-6.510000	709.00	0.03	-0.17
2.86	0.00	0.00	0.00	0.00	0.00	0.00	0.00	0.00	0.00	0.25	0.00	0.00	0.00	0.00	0.00	0.00	-1.003418	0.199219	2.564941	31.500000	-412.860016	39.270000	3.00	0.00	0.00	3.00	4.00	4.00	6.00	1.00	2.00	0.50	6.50	2.50	4.00	7.75	8.25	9.50	4.75	2.25	6.50	-0.266602	0.143555	0.944824	-16.450001	14.770000	-7.490000	742.00	0.06	-0.17
2.87	0.00	0.00	0.00	0.00	0.00	0.00	0.00	0.00	0.00	0.00	0.00	0.00	0.00	0.00	0.00	0.00	-1.136719	0.263184	2.804199	26.250000	-423.850006	37.730000	0.00	0.00	0.00	2.50	3.75	3.75	5.25	1.00	1.50	0.50	6.25	3.00	5.00	8.50	8.75	9.50	6.00	2.25	7.00	-0.274902	0.135742	0.951172	-17.010000	17.080000	-7.840000	758.00	0.08	-0.16
2.88	0.00	0.00	0.00	0.00	0.00	0.00	0.00	0.00	0.00	0.00	0.00	0.00	0.00	0.00	0.00	0.00	-1.330078	0.321289	3.098145	21.210001	-434.070007	35.490002	0.00	0.00	0.00	2.25	2.50	3.25	4.50	1.00	1.25	0.50	6.25	4.50	6.50	9.00	9.00	10.00	7.00	2.75	7.50	-0.280273	0.137695	0.972656	-14.350000	21.420000	-7.420000	791.00	0.12	-0.14
2.89	0.00	0.00	0.00	0.00	0.00	0.00	0.00	0.00	0.00	0.00	0.00	0.00	0.00	0.00	0.00	0.00	-1.686035	0.429688	3.270996	16.379999	-443.869995	30.590000	0.00	0.00	0.00	2.00	2.25	2.50	3.00	0.75	0.75	0.75	6.25	5.50	8.00	9.75	9.75	10.25	8.00	3.25	8.00	-0.269531	0.117188	0.983398	-9.940000	26.950001	-7.070000	820.00	0.15	-0.13
2.90	0.00	0.00	0.00	0.00	0.00	0.00	0.00	0.00	0.00	0.00	0.00	0.00	0.00	0.00	0.00	0.00	-2.061035	0.449219	3.320801	29.750000	-454.019989	24.430000	0.00	0.00	0.00	1.00	1.75	2.00	2.00	0.50	0.75	0.75	6.00	6.50	8.25	10.25	10.25	10.50	8.75	3.75	8.50	-0.246094	0.153809	0.847168	-5.460000	34.720001	-6.790000	825.00	0.17	-0.12
2.91	0.00	0.00	0.00	0.00	0.00	0.00	0.00	0.00	0.00	0.00	0.00	0.00	0.00	0.00	0.00	0.00	-2.650879	0.464355	3.224609	63.700001	-457.450012	11.410000	0.00	0.00	0.00	1.00	1.00	1.50	1.50	0.25	0.25	0.75	5.75	7.50	8.75	10.75	10.75	10.75	9.75	4.50	9.00	-0.307129	0.139160	0.998535	-0.280000	42.000000	-6.510000	845.00	0.20	-0.11
2.92	0.00	0.00	0.00	0.00	0.00	0.00	0.00	0.00	0.00	0.00	0.00	0.00	0.00	0.00	0.00	0.00	-3.162598	0.429688	2.820312	98.699997	-446.529999	-8.190000	0.00	0.00	0.00	0.50	1.00	1.00	1.00	0.25	0.00	0.75	5.75	8.00	9.25	11.25	11.25	10.75	10.50	5.25	9.50	-0.307129	0.091797	1.018066	6.230000	54.599998	-6.370000	865.00	0.21	-0.11
2.93	0.00	0.00	0.00	0.00	0.00	0.00	0.00	0.00	0.00	0.25	0.00	0.00	0.00	0.00	0.00	0.00	-3.533203	0.315430	1.919922	144.059998	-413.980011	-30.730000	3.00	0.00	0.00	0.25	0.50	0.75	0.25	0.00	0.00	0.75	5.25	8.25	9.50	11.50	11.50	11.00	11.75	6.00	9.75	-0.303223	0.085449	1.041504	9.030000	76.160004	-4.060000	870.00	0.23	-0.10
2.94	0.00	0.00	0.00	0.00	0.00	0.00	0.00	0.00	0.00	0.25	0.00	0.00	0.00	0.00	0.00	0.00	-3.958008	-0.083496	0.957031	233.100006	-368.339996	-48.790001	3.00	0.00	0.00	0.25	0.25	0.50	0.00	0.00	0.25	0.75	5.00	9.00	10.00	11.75	11.75	11.00	12.75	6.50	10.00	-0.357422	0.163574	1.023438	9.170000	99.330002	-2.240000	896.00	0.24	-0.10
2.95	0.00	0.00	0.00	0.00	0.00	0.00	0.00	0.00	0.00	0.00	0.00	0.00	0.00	0.00	0.00	0.00	-4.693359	-0.649902	0.312012	334.179993	-312.549988	-56.139999	0.00	0.00	0.00	0.25	0.00	0.50	0.00	0.00	0.00	0.75	4.25	9.50	10.50	12.00	12.00	11.25	13.75	6.75	10.50	-0.341309	0.125977	0.988770	8.890000	121.029999	-1.050000	913.00	0.25	-0.09
2.96	0.25	0.00	0.00	0.00	0.00	0.00	0.00	0.00	0.00	0.25	0.00	0.00	0.00	0.00	0.00	0.00	-5.909180	-1.426758	-0.458496	372.399994	-248.570007	-48.790001	5.00	0.00	0.00	0.00	0.00	0.50	0.00	0.00	0.00	0.75	3.25	10.00	10.75	12.25	12.50	11.00	14.75	7.00	10.50	-0.368652	0.135742	1.067871	10.360000	145.600006	-0.910000	921.00	0.25	-0.08
2.97	0.25	0.00	0.00	0.00	0.00	0.00	0.00	0.00	0.00	0.00	0.00	0.00	0.00	0.00	0.00	0.00	-6.788086	-2.085938	-1.232910	302.610016	-175.839996	-29.540001	3.00	0.00	0.00	0.00	0.00	0.25	0.00	0.00	0.00	0.75	3.00	10.25	10.75	12.50	12.50	10.75	15.75	7.00	11.00	-0.414551	0.106934	1.011230	13.720000	172.970001	-0.350000	930.00	0.26	-0.07
2.98	0.00	0.00	0.00	0.00	0.00	0.00	0.00	0.00	0.00	0.25	0.00	0.00	0.00	0.00	0.00	0.00	-6.290039	-2.421875	-1.557129	136.919998	-82.809998	-25.969999	3.00	0.00	0.00	0.00	0.00	0.25	0.00	0.00	0.00	0.50	2.50	10.50	11.00	12.50	12.50	10.50	16.50	7.75	11.25	-0.455566	0.101074	1.085449	18.969999	200.899994	1.610000	938.00	0.26	-0.07
2.99	0.00	0.00	0.00	0.00	0.00	0.00	0.00	0.00	0.25	0.50	0.00	0.00	0.00	0.00	0.00	0.00	-5.023438	-1.906250	-1.074707	-54.529999	24.500000	-52.009998	8.00	0.00	0.00	0.00	0.00	0.00	0.00	0.00	0.00	0.50	2.25	10.25	11.00	12.25	12.50	10.25	17.25	7.75	11.50	-0.560547	0.174805	1.169922	33.459999	256.760010	4.340000	931.00	0.27	-0.07
3.00	0.00	0.00	0.00	0.00	0.00	0.00	0.00	0.00	0.00	0.25	0.00	0.00	0.00	0.00	0.00	0.00	-4.019043	-0.907715	0.190918	-188.440002	116.199997	-79.519997	3.00	0.00	0.00	0.00	0.00	0.00	0.00	0.00	0.00	0.50	2.25	9.75	10.75	12.00	12.00	9.75	17.75	8.25	11.50	-0.560547	0.174805	1.169922	33.459999	256.760010	4.340000	919.00	0.27	-0.07
3.01	1.00	1.00	0.00	0.00	0.25	0.00	0.00	0.00	0.00	0.00	0.00	0.00	0.00	0.00	0.00	0.00	-2.112305	0.191895	1.413574	-222.669998	164.990005	-78.959999	22.00	0.00	0.00	0.00	0.00	0.00	0.00	0.00	0.00	0.50	2.25	9.00	10.25	11.25	11.50	9.25	18.25	8.50	11.50	-0.588867	0.218750	1.180176	40.110001	282.799988	1.540000	893.00	0.27	-0.07
3.02	3.00	4.25	0.75	1.00	0.00	0.00	0.00	0.00	0.00	0.00	0.00	0.00	0.00	0.00	0.00	0.00	1.783203	-0.044922	6.451660	-184.169998	278.459991	-29.610001	90.00	-0.38	-0.05	0.00	0.00	0.00	0.00	0.00	0.00	0.50	2.75	8.00	9.50	10.25	10.75	8.50	18.50	8.75	12.00	-0.869141	0.347656	1.700195	42.560001	340.269989	-11.690000	862.00	0.27	-0.07
3.03	6.25	8.00	1.25	2.75	0.00	0.00	0.00	0.00	0.00	0.00	0.00	0.00	0.00	0.00	0.00	0.00	0.239258	-0.552734	-1.834961	-261.730011	142.869995	-2.310000	182.00	-0.38	-0.06	0.00	0.00	0.00	0.00	0.00	0.00	0.50	2.25	7.00	8.50	8.75	9.50	7.75	18.75	9.00	11.75	-0.953125	0.318848	1.849609	31.360001	372.610016	-21.629999	799.00	0.28	-0.06
3.04	9.25	13.25	1.75	3.75	0.00	0.00	0.00	0.00	0.00	0.00	0.00	0.00	0.00	0.00	0.00	0.00	0.239258	-0.552734	-1.834961	-261.730011	142.869995	-2.310000	278.00	-0.38	-0.06	0.00	0.00	0.00	0.00	0.00	0.00	0.25	2.00	5.75	7.75	7.50	8.00	6.50	18.75	8.75	11.50	-1.307617	0.485840	2.234375	17.570000	410.549988	-32.689999	724.00	0.29	-0.06
3.05	16.25	20.75	2.50	4.75	0.00	0.00	0.00	0.00	0.00	0.00	0.00	0.00	0.00	0.00	0.00	0.00	-1.145996	-0.624023	3.279297	-160.649994	306.880005	37.660000	439.00	-0.39	-0.05	0.00	0.00	0.00	0.00	0.00	0.00	0.25	1.00	4.25	6.50	5.00	6.50	5.50	18.25	8.50	10.75	-1.441895	0.610352	2.703613	15.330000	446.110016	-44.099998	614.00	0.30	-0.05
3.06	23.25	26.25	3.25	5.50	0.00	0.00	0.00	0.00	0.00	0.00	0.00	0.00	0.00	0.00	0.00	0.00	-0.850098	-1.144043	2.549805	-54.599998	275.869995	43.889999	579.00	-0.39	-0.04	0.00	0.00	0.00	0.00	0.00	0.00	0.25	0.75	3.00	5.00	3.50	5.00	3.75	17.00	7.75	9.25	-1.488770	0.360352	2.696777	-1.330000	475.580017	-58.380001	505.00	0.31	-0.04
3.07	27.50	29.50	3.75	6.75	0.00	0.00	0.00	0.00	0.00	0.00	0.00	0.00	0.00	0.00	0.00	0.00	-0.693359	-0.903809	2.167969	-13.930000	266.279999	18.270000	672.00	-0.39	-0.04	0.00	0.00	0.00	0.00	0.00	0.00	0.00	0.00	1.75	4.00	2.00	3.50	2.50	15.25	7.00	8.00	-1.656250	0.746094	2.776367	-38.920002	513.590027	-76.230003	391.00	0.34	-0.03
3.08	28.50	30.75	4.75	7.75	0.00	0.00	0.00	0.00	0.00	0.00	0.00	0.00	0.00	0.00	0.00	0.00	-0.549805	-0.133301	2.214355	6.930000	245.350006	-8.050000	716.00	-0.38	-0.04	0.00	0.00	0.00	0.00	0.00	0.00	0.00	0.00	1.00	2.50	1.50	3.00	1.50	13.00	5.75	6.50	-1.501953	1.131836	3.122559	-43.189999	549.080017	-98.840004	306.00	0.34	-0.03
3.09	30.50	31.25	5.50	8.50	0.00	0.00	0.00	0.00	0.00	0.00	0.00	0.00	0.00	0.00	0.00	0.00	-0.383789	0.680664	1.637207	11.200000	214.199997	-11.130000	758.00	-0.38	-0.04	0.00	0.00	0.00	0.00	0.00	0.00	0.00	0.00	0.50	2.00	1.50	2.25	0.75	11.00	5.00	5.75	-1.388672	1.188965	2.750977	-22.330000	575.539978	-119.209999	251.00	0.35	-0.02
3.10	30.75	32.50	6.00	9.25	0.00	0.00	0.00	0.00	0.00	0.00	0.00	0.00	0.00	0.00	0.00	0.00	-0.245605	0.540039	1.269531	6.860000	197.539993	6.230000	786.00	-0.38	-0.04	0.00	0.00	0.00	0.00	0.00	0.00	0.00	0.00	0.50	2.25	1.00	1.75	0.50	9.00	4.25	4.75	-1.285156	1.245117	3.496094	-1.890000	567.070007	-131.600006	210.00	0.35	-0.02
3.11	31.50	33.00	7.25	9.75	0.25	0.00	0.00	0.00	0.00	0.00	0.00	0.00	0.00	0.00	0.00	0.00	-0.301758	-0.131348	1.273926	4.410000	187.180008	15.960000	820.00	-0.38	-0.04	0.00	0.00	0.00	0.00	0.00	0.00	0.00	0.00	0.50	2.00	1.25	1.50	0.75	6.75	2.75	3.00	-1.119141	1.107422	2.270996	4.060000	539.210022	-143.570007	165.00	0.33	-0.02
3.12	31.50	33.75	8.00	10.75	0.00	0.25	0.00	0.00	0.00	0.00	0.00	0.00	0.00	0.00	0.00	0.00	-0.306641	-0.285156	1.180176	4.620000	178.710007	3.290000	847.00	-0.38	-0.04	0.00	0.25	0.25	0.00	0.00	0.00	0.00	0.00	0.25	1.75	1.00	1.50	0.75	5.00	1.50	1.75	-0.246094	1.379883	2.986328	15.120000	477.049988	-148.820007	127.00	0.30	-0.03
3.13	32.25	34.00	8.75	11.50	0.25	0.50	0.00	0.00	0.00	0.00	0.00	0.00	0.00	0.00	0.00	0.00	-0.333008	0.150879	1.122070	1.610000	171.779999	-12.110000	879.00	-0.37	-0.04	0.00	0.25	0.50	0.00	0.00	0.00	0.00	0.00	0.25	1.25	0.75	1.25	0.25	2.00	0.50	0.75	1.334961	1.176270	3.011719	55.510002	369.809998	-147.350006	74.00	0.23	-0.04
3.14	33.25	33.75	9.50	13.00	0.50	0.50	0.00	0.25	0.00	0.00	0.00	0.00	0.00	0.00	0.00	0.00	-0.286133	0.347656	1.228516	-1.610000	166.740005	-12.530000	918.00	-0.37	-0.04	0.50	0.75	0.75	0.25	0.00	0.00	0.00	0.00	0.00	1.00	0.25	0.75	0.25	1.25	0.50	0.50	1.854004	0.545410	2.482422	81.410004	242.339996	-155.960007	65.00	0.07	-0.04
3.15	34.25	34.00	10.25	13.50	0.50	0.25	0.00	0.00	0.00	0.00	0.00	0.00	0.00	0.00	0.00	0.00	-0.308594	0.194824	1.258789	-4.690000	157.009995	-6.440000	938.00	-0.37	-0.04	0.50	0.75	0.25	0.00	0.00	0.00	0.00	0.00	0.25	1.00	0.25	0.50	0.00	1.00	0.00	0.00	-0.468262	1.269531	4.729004	81.830002	170.520004	-150.850006	45.00	0.00	0.00
3.16	34.25	33.25	11.25	13.75	0.75	1.00	0.00	0.25	0.00	0.00	0.00	0.25	0.00	0.00	0.00	0.00	-0.337402	-0.187500	1.329102	-10.360000	147.559998	-7.490000	962.00	-0.36	-0.04	0.50	0.50	0.25	0.25	0.00	0.00	0.00	0.00	0.00	0.50	0.00	0.25	0.00	0.75	0.50	0.00	1.437012	0.688965	3.476074	73.360001	-11.620000	-115.709999	35.00	0.00	0.00
3.17	33.75	32.50	11.75	14.00	0.75	1.00	0.25	0.00	0.00	0.00	0.00	0.25	0.00	0.00	0.00	0.00	-0.546387	0.579102	1.488281	-34.230000	119.629997	-14.490000	959.00	-0.36	-0.04	0.25	0.25	0.25	0.00	0.00	0.00	0.00	0.00	0.00	0.75	0.00	0.50	0.00	1.00	0.00	0.00	1.293457	0.496094	2.296387	15.890000	-161.699997	-70.840004	29.00	0.00	0.00
3.18	32.50	31.50	11.75	13.75	0.75	1.00	0.00	0.25	0.00	0.25	0.25	0.25	0.00	0.00	0.00	0.00	-0.382812	0.063965	1.221680	-40.320000	86.239998	-8.120000	939.00	-0.36	-0.04	0.25	0.50	0.25	0.00	0.00	0.00	0.00	0.00	0.00	0.75	0.00	0.00	0.00	0.50	0.25	0.00	0.498535	0.428711	1.941895	-54.320000	-236.669998	-32.830002	25.00	0.00	0.00
3.19	31.75	30.25	11.50	13.50	0.75	0.75	0.00	0.00	0.00	0.50	0.50	0.50	0.00	0.00	0.00	0.00	-0.274902	0.039062	1.097168	-36.610001	61.459999	-5.670000	916.00	-0.35	-0.04	0.25	0.50	0.00	0.00	0.00	0.00	0.00	0.00	0.00	0.50	0.00	0.25	0.00	0.50	0.00	0.00	0.478516	0.463867	1.462891	-94.779999	-268.029999	-7.910000	19.00	0.00	0.00
3.20	31.25	29.75	11.75	13.00	1.00	1.00	0.00	0.25	0.00	0.75	0.50	0.25	0.00	0.00	0.00	0.00	-0.295410	0.093262	1.033203	-29.049999	41.369999	-6.370000	912.00	-0.35	-0.04	0.25	0.00	0.50	0.00	0.00	0.00	0.00	0.00	0.00	0.50	0.00	0.25	0.00	0.75	0.00	0.00	0.434082	0.502930	1.014648	-84.279999	-292.809998	15.190001	22.00	0.00	0.00
3.21	30.25	28.25	11.25	12.50	1.00	0.75	0.00	0.00	0.00	0.75	0.75	0.50	0.00	0.00	0.00	0.00	-0.295410	0.080566	1.018555	-23.520000	29.960001	-5.320000	876.00	-0.35	-0.04	0.25	0.25	0.00	0.00	0.00	0.00	0.00	0.00	0.00	0.25	0.00	0.00	0.00	0.75	0.00	0.00	0.434082	0.502930	1.014648	-84.279999	-292.809998	15.190001	14.00	0.00	0.00
3.22	29.00	27.50	11.00	12.25	1.00	0.75	0.25	0.25	0.25	1.25	0.50	0.50	0.00	0.00	0.00	0.00	-0.275391	0.053711	0.977051	-18.270000	23.030001	-4.340000	864.00	-0.34	-0.04	0.00	0.25	0.00	0.00	0.00	0.00	0.00	0.00	0.00	0.50	0.00	0.00	0.00	0.50	0.00	0.00	0.360352	0.451172	0.991699	-55.790001	-303.309998	19.180000	12.00	0.00	0.00
3.23	27.75	26.50	11.00	11.50	1.00	0.75	0.25	0.25	0.00	1.25	0.50	0.50	0.00	0.00	0.25	0.00	-0.279785	0.089844	0.974609	-10.570000	18.059999	-3.990000	833.00	-0.34	-0.04	0.00	0.25	0.25	0.00	0.00	0.00	0.00	0.00	0.00	0.50	0.00	0.00	0.00	0.50	0.00	0.00	0.201172	0.289551	1.000000	-6.370000	-327.880005	24.710001	15.00	0.00	0.00
3.24	26.50	24.75	10.50	10.50	1.00	0.75	0.25	0.25	0.00	1.00	0.50	0.25	0.00	0.00	0.00	0.00	-0.279785	0.089844	0.974609	-10.570000	18.059999	-3.990000	779.00	-0.34	-0.03	0.00	0.50	0.25	0.00	0.00	0.00	0.00	0.00	0.00	0.25	0.00	0.00	0.00	0.25	0.00	0.00	0.068848	0.236328	1.022949	3.780000	-338.450012	28.700001	12.00	0.00	0.00
3.25	25.25	22.75	9.75	10.25	1.00	0.50	0.25	0.25	0.25	1.25	0.50	0.50	0.00	0.25	0.00	0.00	-0.234863	0.086426	0.836914	-9.590000	17.920000	-3.990000	745.00	-0.33	-0.03	0.00	0.00	0.00	0.00	0.00	0.00	0.00	0.00	0.00	0.25	0.00	0.00	0.00	0.25	0.00	0.00	-0.035156	0.212402	1.074707	7.070000	-346.429993	34.160000	5.00	0.00	0.00
3.26	24.00	21.00	9.50	9.75	1.00	0.75	0.25	0.25	0.50	1.50	0.75	0.50	0.00	0.25	0.00	0.00	-0.249023	0.072266	0.912109	-10.220000	19.040001	-4.270000	719.00	-0.32	-0.03	0.00	0.75	0.25	0.00	0.00	0.00	0.00	0.00	0.00	0.50	0.00	0.00	0.00	0.00	0.00	0.00	-0.129395	0.214844	1.167969	7.980000	-353.429993	40.250000	15.00	0.00	0.00
3.27	21.75	19.75	9.25	9.25	1.25	0.75	0.25	0.25	0.75	1.50	0.75	0.75	0.00	0.50	0.00	0.00	-0.283203	0.078613	0.958984	-11.900000	20.090000	-4.690000	687.00	-0.31	-0.03	0.00	0.00	0.25	0.00	0.00	0.00	0.00	0.00	0.00	0.00	0.00	0.00	0.00	0.00	0.00	0.00	-0.227539	0.220703	1.263672	9.170000	-360.920013	46.619999	3.00	0.00	0.00
3.28	20.25	18.00	9.00	8.75	1.00	0.50	0.25	0.25	0.75	1.25	0.75	0.75	0.00	0.75	0.25	0.00	-0.270508	0.080566	0.925293	-13.020000	20.719999	-5.110000	643.00	-0.31	-0.03	0.00	0.25	0.25	0.00	0.00	0.00	0.00	0.00	0.00	0.00	0.00	0.00	0.00	0.00	0.00	0.00	-0.316406	0.220215	1.389160	10.150000	-369.809998	52.849998	5.00	0.00	0.00
3.29	18.75	16.50	8.75	8.50	1.25	0.75	0.50	0.25	1.25	1.75	1.00	0.75	0.25	0.50	0.25	0.00	-0.282715	0.079102	0.946777	-14.140000	20.510000	-5.180000	632.00	-0.29	-0.02	0.00	0.25	0.00	0.00	0.00	0.00	0.00	0.00	0.00	0.25	0.00	0.00	0.00	0.00	0.00	0.00	-0.383301	0.215332	1.505859	9.450000	-381.220001	58.380001	5.00	0.00	0.00
3.30	17.00	14.75	8.25	8.00	1.00	0.75	0.50	0.25	1.00	2.00	1.00	0.75	0.25	1.00	0.00	0.00	-0.287109	0.066406	0.946777	-14.560000	19.809999	-5.040000	585.00	-0.28	-0.02	0.25	0.00	0.00	0.00	0.00	0.00	0.00	0.00	0.00	0.25	0.00	0.00	0.00	0.00	0.00	0.00	-0.449219	0.206055	1.542969	6.930000	-394.100006	61.950001	5.00	0.00	0.00
3.31	16.00	13.00	8.25	7.50	1.25	0.75	0.50	0.25	1.50	2.00	1.25	1.00	0.25	1.00	0.25	0.00	-0.274414	0.063965	0.929688	-13.860000	19.110001	-4.970000	570.00	-0.26	-0.02	0.25	0.00	0.00	0.00	0.00	0.00	0.00	0.00	0.00	0.25	0.00	0.00	0.00	0.25	0.00	0.00	-0.541016	0.231445	1.544434	6.230000	-404.670013	62.720001	7.00	0.00	0.00
3.32	14.00	11.75	7.75	7.25	1.25	0.50	0.75	0.50	1.75	2.25	1.50	1.00	0.50	1.00	0.25	0.00	-0.289551	0.042969	0.925781	-12.390000	19.040001	-4.760000	545.00	-0.24	-0.02	0.25	0.00	0.00	0.00	0.00	0.00	0.00	0.00	0.00	0.00	0.00	0.00	0.00	0.00	0.00	0.00	-0.662109	0.247070	1.531250	10.710000	-409.570007	61.670002	3.00	0.00	0.00
3.33	13.00	10.00	7.50	7.00	1.25	0.50	0.75	0.25	2.00	2.25	1.50	1.00	0.50	1.25	0.25	0.00	-0.286133	0.050293	0.947266	-11.200000	19.530001	-4.900000	515.00	-0.22	-0.01	0.00	0.25	0.00	0.00	0.00	0.00	0.00	0.00	0.00	0.00	0.00	0.00	0.00	0.00	0.00	0.00	-0.675293	0.286133	1.576172	14.700000	-409.010010	60.130001	2.00	0.00	0.00
3.34	11.25	9.25	7.25	6.50	1.25	0.75	1.00	0.25	2.75	2.75	1.75	1.50	0.75	1.75	0.50	0.00	-0.293945	0.071289	0.932617	-11.130000	20.230000	-4.900000	520.00	-0.18	-0.01	0.25	0.50	0.50	0.00	0.00	0.00	0.00	0.00	0.00	0.00	0.00	0.00	0.00	0.00	0.00	0.00	-0.746094	0.332520	1.609863	28.630001	-406.769989	57.820000	13.00	0.00	0.00
3.35	9.75	8.25	6.50	6.00	1.50	0.50	1.50	0.25	3.25	3.00	2.25	1.75	0.75	2.25	0.75	0.25	-0.303223	0.059082	0.939941	-12.600000	22.049999	-5.530000	514.00	-0.14	-0.00	0.00	0.00	0.00	0.00	0.00	0.00	0.00	0.00	0.00	0.25	0.00	0.00	0.00	0.00	0.00	0.00	-0.796875	0.316895	1.702637	44.869999	-401.799988	56.139999	3.00	0.00	0.00
3.36	8.75	7.50	6.50	5.50	1.50	0.50	2.00	0.50	4.00	3.75	2.25	2.00	1.00	2.75	0.50	0.25	-0.310547	0.041504	0.917969	-14.630000	24.500000	-6.650000	527.00	-0.11	0.00	0.00	0.25	0.00	0.00	0.00	0.00	0.00	0.00	0.00	0.00	0.00	0.00	0.00	0.00	0.00	0.00	-0.828613	0.297852	1.816895	59.220001	-396.269989	56.000000	2.00	0.00	0.00
3.37	7.75	6.75	6.00	5.00	1.50	1.00	2.75	0.50	5.25	4.00	3.00	2.25	1.25	3.00	0.75	0.25	-0.318359	0.040039	0.951172	-15.190001	25.969999	-7.420000	552.00	-0.07	0.01	0.00	0.00	0.25	0.00	0.00	0.00	0.00	0.00	0.00	0.00	0.00	0.00	0.00	0.00	0.00	0.00	-0.866211	0.277344	1.948730	69.370003	-391.510010	57.750000	3.00	0.00	0.00
3.38	6.75	6.00	5.50	4.50	1.50	0.25	3.25	0.50	6.50	5.75	3.50	2.25	1.50	3.50	0.75	0.50	-0.298828	0.051270	0.932129	-13.510000	26.110001	-7.420000	571.00	-0.02	0.03	0.00	0.00	0.00	0.00	0.00	0.00	0.00	0.00	0.00	0.00	0.00	0.00	0.00	0.00	0.00	0.00	-0.937012	0.279297	2.109375	76.230003	-386.610016	61.040001	0.00	0.00	0.00
3.39	6.00	5.25	5.00	4.25	1.25	0.50	4.00	0.50	7.75	6.75	4.00	3.00	1.75	4.75	1.25	0.75	-0.305176	0.056641	0.941895	-10.850000	26.250000	-7.070000	618.00	0.02	0.03	0.00	0.00	0.00	0.00	0.00	0.00	0.00	0.00	0.00	0.00	0.00	0.00	0.00	0.00	0.00	0.00	-1.027344	0.288086	2.338867	82.180000	-381.429993	65.870003	0.00	0.00	0.00
3.40	5.25	4.50	5.00	4.00	1.25	0.25	4.50	0.50	8.50	7.75	5.50	3.25	2.00	5.25	1.25	1.00	-0.292480	0.053223	0.937988	-8.540000	27.230000	-7.140000	652.00	0.05	0.04	0.00	0.25	0.00	0.00	0.00	0.00	0.00	0.00	0.00	0.00	0.00	0.00	0.00	0.00	0.00	0.00	-1.171875	0.317383	2.654297	87.500000	-379.890015	73.290001	2.00	0.00	0.00
3.41	4.50	3.50	4.25	2.75	1.25	0.75	5.00	1.00	9.50	8.25	7.00	4.00	2.50	6.00	1.50	1.00	-0.328613	0.043945	0.939453	-7.420000	28.770000	-7.560000	689.00	0.09	0.03	0.00	0.00	0.00	0.00	0.00	0.00	0.00	0.00	0.00	0.00	0.00	0.00	0.00	0.00	0.00	0.00	-1.368652	0.339355	2.990723	90.860001	-384.720001	83.930000	0.00	0.00	0.00
3.42	3.50	2.75	3.50	2.50	1.25	0.50	5.50	0.75	10.50	9.00	7.75	5.00	2.75	7.50	2.00	1.25	-0.331543	0.057129	0.934570	-6.510000	30.799999	-7.700000	722.00	0.12	0.04	0.00	0.00	0.00	0.00	0.00	0.00	0.00	0.00	0.00	0.00	0.00	0.00	0.00	0.00	0.00	0.00	-2.152832	0.377930	3.544922	90.090004	-418.459991	105.980003	0.00	0.00	0.00
3.43	2.75	2.25	2.75	1.00	1.00	0.25	5.75	0.75	11.25	10.00	8.25	5.50	3.00	8.50	2.25	1.75	-0.337402	0.049316	0.916016	-4.410000	34.230000	-7.980000	730.00	0.16	0.04	0.00	0.00	0.00	0.00	0.00	0.00	0.00	0.00	0.00	0.00	0.00	0.00	0.00	0.00	0.00	0.00	-2.602051	0.325195	3.413574	89.949997	-441.420013	111.160004	0.00	0.00	0.00
3.44	2.00	1.50	2.50	1.00	0.75	0.25	6.25	0.50	12.00	10.50	9.00	6.50	3.50	9.00	2.50	2.00	-0.342285	0.048828	0.931152	-2.660000	38.570000	-7.910000	760.00	0.18	0.04	0.00	0.00	0.25	0.00	0.00	0.00	0.00	0.00	0.00	0.00	0.00	0.00	0.00	0.00	0.00	0.00	-3.131836	0.317383	2.968750	79.099998	-454.440002	105.349998	3.00	0.00	0.00
3.45	1.25	0.75	1.00	0.25	0.50	0.00	6.25	0.75	13.00	11.25	9.50	7.25	3.75	10.00	2.75	2.25	-0.363770	0.053711	0.927246	-1.890000	44.450001	-7.770000	767.00	0.21	0.04	0.00	0.00	0.00	0.00	0.00	0.00	0.00	0.00	0.00	0.00	0.00	0.00	0.00	0.00	0.00	0.00	-3.640137	0.330078	2.289551	65.029999	-444.429993	88.410004	0.00	0.00	0.00
3.46	0.50	1.00	0.75	0.25	0.25	0.00	6.50	0.75	14.00	12.00	10.00	7.50	3.75	10.50	3.50	2.50	-0.315918	0.002441	0.953613	-1.610000	52.080002	-8.540000	802.00	0.22	0.04	0.00	0.00	0.00	0.00	0.00	0.00	0.00	0.00	0.00	0.00	0.00	0.00	0.00	0.25	0.00	0.00	-4.006348	0.216797	1.435059	73.849998	-409.570007	64.889999	2.00	0.00	0.00
3.47	0.50	0.25	0.50	0.25	0.25	0.00	6.75	0.50	14.75	12.75	10.25	8.00	4.50	11.25	3.75	3.00	-0.349609	0.046875	0.999023	-0.700000	69.860001	-9.030000	836.00	0.23	0.04	0.00	0.50	0.25	0.00	0.00	0.00	0.00	0.00	0.00	0.00	0.00	0.00	0.00	0.00	0.00	0.00	-4.334473	-0.069824	0.486328	115.220001	-357.350006	33.880001	7.00	0.00	0.00
3.48	0.50	0.50	0.00	0.00	0.00	0.00	6.75	0.50	15.50	13.25	10.75	7.75	4.50	12.00	5.00	3.00	-0.405273	0.038574	0.979004	0.280000	120.330002	-9.870000	865.00	0.24	0.05	0.00	0.00	0.00	0.00	0.00	0.00	0.00	0.00	0.00	0.00	0.00	0.00	0.00	0.00	0.00	0.00	-5.049805	-0.529297	-0.148926	183.539993	-298.829987	-4.270000	0.00	0.00	0.00
3.49	0.50	0.00	0.00	0.00	0.00	0.00	7.00	0.00	16.00	13.75	10.50	8.00	4.25	12.50	5.50	3.25	-0.408691	0.019531	1.001953	-1.890000	143.220001	-10.570000	877.00	0.25	0.05	0.00	0.25	0.25	0.00	0.00	0.00	0.00	0.00	0.00	0.00	0.00	0.00	0.00	0.00	0.00	0.00	-6.141113	-1.210449	-0.746094	248.080002	-236.669998	-34.439999	5.00	0.00	0.00
3.50	0.00	0.00	0.00	0.00	0.00	0.25	7.00	0.00	17.00	14.25	10.50	8.00	3.75	13.00	5.75	3.00	-0.462402	0.010742	1.024902	-6.650000	171.430008	-10.080000	894.00	0.25	0.06	0.00	0.00	0.00	0.00	0.00	0.00	0.00	0.00	0.00	0.25	0.00	0.00	0.00	0.00	0.00	0.00	-6.621582	-1.894531	-1.238281	246.259995	-160.229996	-46.340000	3.00	0.00	0.00
3.51	0.00	0.00	0.00	0.00	0.00	0.00	6.75	0.00	17.50	14.75	10.50	7.75	3.25	13.50	6.00	3.25	-0.493164	0.019043	1.032715	-17.430000	208.809998	-8.540000	900.00	0.26	0.06	0.25	0.00	0.00	0.00	0.00	0.00	0.00	0.00	0.00	0.00	0.00	0.00	0.00	0.00	0.00	0.00	-5.742188	-2.315918	-1.430664	121.379997	-63.139999	-71.820000	3.00	0.00	0.00
3.52	0.00	0.00	0.00	0.00	0.00	0.00	6.75	0.00	17.75	14.75	10.25	7.75	3.00	13.50	6.25	3.00	-0.533203	-0.012207	1.051758	-22.820000	240.100006	-7.000000	900.00	0.26	0.07	0.00	0.00	0.00	0.00	0.00	0.00	0.00	0.00	0.00	0.00	0.00	0.00	0.00	0.25	0.00	0.00	-4.608887	-1.748535	-0.763184	-86.660004	33.529999	-116.760002	2.00	0.00	0.00
3.53	0.00	0.00	0.00	0.00	0.00	0.25	6.75	0.00	18.00	15.00	10.00	7.50	2.75	13.75	6.25	3.50	-0.605469	-0.034180	1.106445	-28.350000	267.890015	-5.250000	906.00	0.26	0.07	0.00	0.00	0.25	0.00	0.00	0.00	0.00	0.00	0.00	0.00	0.00	0.00	0.00	0.00	0.00	0.00	-3.830078	-0.680664	0.483887	-253.610001	116.970001	-141.889999	3.00	0.00	0.00
3.54	0.00	0.00	0.00	0.00	0.00	0.00	6.50	0.00	17.75	15.00	9.50	7.25	2.25	14.50	6.25	3.75	-0.660156	0.018555	1.141113	-33.950001	295.679993	-5.390000	892.00	0.26	0.07	0.75	1.25	0.50	1.00	0.25	0.00	0.00	0.00	0.00	0.00	0.00	0.00	0.00	0.00	0.00	0.00	0.721680	1.008789	1.523926	-315.980011	167.089996	-131.180008	39.00	0.00	0.00
3.55	0.00	0.00	0.00	0.00	0.00	0.00	6.50	0.00	17.25	14.75	9.00	6.50	2.25	14.75	6.50	4.25	-0.732422	0.080078	1.251465	-37.450001	322.000000	-7.980000	877.00	0.26	0.07	3.25	4.75	1.75	2.75	0.25	0.00	0.00	0.00	0.00	0.00	0.00	0.00	0.00	0.00	0.00	0.00	3.337891	2.094238	4.946777	-228.970001	184.869995	-68.250000	130.00	-0.35	-0.07
3.56	0.00	0.00	0.00	0.00	0.00	0.00	6.50	0.00	16.50	14.25	8.25	6.00	2.00	14.50	6.50	4.75	-0.834961	0.167480	1.358398	-34.860001	344.890015	-13.510000	847.00	0.26	0.08	7.00	8.00	2.25	4.25	0.25	0.00	0.00	0.00	0.00	0.00	0.00	0.00	0.00	0.00	0.00	0.00	0.709473	1.479004	-0.526855	-169.680008	83.930000	-38.220001	221.00	-0.36	-0.06
3.57	0.00	0.00	0.00	0.00	0.00	0.00	6.00	0.00	15.00	13.25	7.25	5.50	1.75	15.00	6.50	5.00	-1.017578	0.064941	1.545898	-30.170000	369.179993	-21.910000	797.00	0.27	0.08	11.25	11.25	3.25	5.25	0.00	0.00	0.00	0.00	0.00	0.00	0.00	0.00	0.00	0.00	0.00	0.00	-0.191406	0.227539	-2.083984	-265.649994	179.830002	-12.950000	314.00	-0.37	-0.05
3.58	0.00	0.00	0.00	0.00	0.00	0.00	5.75	0.00	13.25	11.75	5.50	4.75	1.50	15.00	6.75	5.00	-1.426758	-0.120117	1.756348	-33.670002	397.110016	-29.330000	729.00	0.27	0.08	15.50	15.25	3.75	6.25	0.00	0.00	0.00	0.00	0.00	0.00	0.00	0.00	0.00	0.00	0.00	0.00	-1.031738	1.125000	1.547852	-278.040009	336.070007	40.180000	411.00	-0.37	-0.04
3.59	0.00	0.00	0.00	0.00	0.00	0.00	5.25	0.00	11.00	10.50	3.75	4.00	1.00	15.25	6.75	4.75	-1.461426	0.194824	2.103027	-35.349998	425.179993	-30.940001	650.00	0.28	0.08	20.50	19.25	6.25	8.25	0.00	0.00	0.00	0.00	0.00	0.00	0.00	0.00	0.00	0.00	0.00	0.00	-1.159180	0.273438	3.375488	-125.300003	348.110016	133.770004	550.00	-0.37	-0.04
3.60	0.00	0.00	0.00	0.00	0.00	0.00	4.50	0.00	9.75	9.50	2.50	3.00	0.50	15.00	6.50	4.00	-1.418457	0.391113	2.209473	-6.930000	449.399994	-28.280001	575.00	0.28	0.09	23.50	21.50	7.25	9.25	0.00	0.00	0.00	0.00	0.00	0.00	0.00	0.00	0.00	0.00	0.00	0.00	-0.747559	-1.863770	2.138184	7.700000	284.130005	91.419998	623.00	-0.37	-0.04
3.61	0.00	0.00	0.00	0.00	0.00	0.00	3.50	0.00	8.00	8.25	1.00	2.50	0.25	13.75	6.00	3.50	-1.679688	0.191895	2.292480	24.780001	478.869995	-30.309999	482.00	0.29	0.10	25.00	22.75	8.25	10.25	0.00	0.00	0.00	0.00	0.00	0.00	0.00	0.00	0.00	0.00	0.00	0.00	-0.747559	-1.863770	2.138184	7.700000	284.130005	91.419998	673.00	-0.37	-0.04
3.62	0.00	0.00	0.00	0.00	0.00	0.00	2.50	0.00	7.00	7.50	0.75	1.75	0.00	12.00	5.50	3.00	-2.037598	0.516113	2.610840	35.349998	513.940002	-44.660000	410.00	0.30	0.10	25.50	23.25	9.25	11.00	0.25	0.00	0.00	0.00	0.00	0.00	0.00	0.00	0.00	0.00	0.00	0.00	-0.454590	-1.014648	2.343262	27.790001	275.170013	18.480000	705.00	-0.37	-0.03
3.63	0.00	0.00	0.00	0.00	0.00	0.00	1.25	0.00	5.50	6.00	0.75	1.00	0.00	10.50	4.75	2.25	-1.921387	0.718750	3.012207	66.570000	534.239990	-67.620003	323.00	0.31	0.10	25.50	23.00	10.00	12.25	0.25	0.00	0.00	0.00	0.00	0.00	0.00	0.25	0.00	0.00	0.00	0.00	-0.388672	0.703613	1.485352	50.680000	208.740005	-0.490000	727.00	-0.36	-0.04
3.64	0.00	0.00	0.00	0.00	0.00	0.00	0.50	0.00	4.25	4.75	0.25	1.00	0.00	8.75	3.25	1.75	-1.931641	0.473145	2.653320	82.529999	541.869995	-103.180000	244.00	0.32	0.10	25.25	22.75	10.75	12.75	0.25	0.00	0.00	0.00	0.00	0.00	0.00	0.00	0.25	0.00	0.00	0.00	-0.303711	0.131836	1.356934	36.119999	191.800003	14.280000	735.00	-0.36	-0.04
3.65	0.00	0.00	0.00	0.00	0.00	0.00	0.25	0.00	3.50	4.25	0.50	0.75	0.00	7.25	2.50	1.00	-1.701660	0.850586	3.643066	71.050003	522.619995	-122.779999	200.00	0.32	0.10	24.50	22.25	11.25	13.50	0.50	0.75	0.25	0.25	0.00	0.00	0.00	0.50	0.50	0.00	0.00	0.00	-0.323730	-0.236328	1.259277	24.219999	174.300003	6.580000	763.00	-0.35	-0.05
3.66	0.25	0.00	0.00	0.00	0.00	0.00	0.00	0.00	2.50	3.75	0.75	1.00	0.00	4.50	1.50	0.25	-1.361816	0.958008	3.033691	67.690002	485.100006	-142.729996	148.00	0.29	0.09	24.50	22.25	12.00	14.25	0.50	0.75	0.00	0.25	0.00	0.00	0.00	0.25	0.50	0.00	0.00	0.00	-0.306152	0.005859	1.233887	17.150000	157.289993	-11.830000	773.00	-0.35	-0.05
3.67	0.25	0.50	0.00	0.00	0.00	0.00	0.00	0.00	2.00	2.75	0.50	0.25	0.00	2.75	0.50	0.00	0.033203	0.998047	3.406250	45.360001	418.040009	-156.940002	98.00	0.25	0.11	24.25	21.50	12.75	14.50	0.75	0.75	0.25	0.50	0.00	0.00	0.00	0.50	0.50	0.00	0.00	0.00	-0.471680	0.576172	1.809082	10.570000	142.520004	-18.620001	788.00	-0.34	-0.05
3.68	0.50	0.00	0.00	0.00	0.00	0.00	0.25	0.00	1.50	1.75	0.00	0.00	0.00	1.25	0.25	0.00	1.332520	0.654297	3.381836	30.170000	296.519989	-159.740005	60.00	0.22	0.16	23.75	21.00	13.00	14.75	0.75	2.25	0.25	0.50	0.00	0.00	0.00	1.00	1.00	0.00	0.00	0.00	-0.470215	0.307617	1.486816	-18.830000	90.860001	-3.220000	809.00	-0.33	-0.05
3.69	0.50	0.00	0.00	0.00	0.00	0.00	0.00	0.00	1.00	1.75	0.00	0.00	0.00	1.00	0.25	0.00	0.040527	1.306152	4.009277	-61.459999	85.820000	-99.750000	48.00	0.00	0.00	23.50	20.25	13.25	14.50	1.00	1.00	0.00	0.50	0.00	0.25	0.25	1.00	1.25	0.00	0.00	0.00	-0.255371	0.058105	1.049316	-34.650002	55.439999	-0.840000	793.00	-0.33	-0.05
3.70	0.25	0.00	0.00	0.00	0.00	0.00	0.00	0.00	0.75	1.50	0.00	0.00	0.00	1.00	0.00	0.00	1.157715	0.924805	3.277832	-67.340004	-39.480000	-54.110001	37.00	0.00	0.00	23.50	19.75	13.50	14.50	1.25	1.50	0.00	0.50	0.00	0.50	0.50	1.00	1.00	0.50	0.00	0.00	-0.201172	0.145020	1.120117	-32.970001	37.450001	-4.550000	806.00	-0.32	-0.05
