# time	left pressure 1[N/cm²]	left pressure 2[N/cm²]	left pressure 3[N/cm²]	left pressure 4[N/cm²]	left pressure 5[N/cm²]	left pressure 6[N/cm²]	left pressure 7[N/cm²]	left pressure 8[N/cm²]	left pressure 9[N/cm²]	left pressure 10[N/cm²]	left pressure 11[N/cm²]	left pressure 12[N/cm²]	left pressure 13[N/cm²]	left pressure 14[N/cm²]	left pressure 15[N/cm²]	left pressure 16[N/cm²]	left acceleration X[g]	left acceleration Y[g]	left acceleration Z[g]	left angular X[dps]	left angular Y[dps]	left angular Z[dps]	left total force[N]	left center of pressure X[%]	left center of pressure Y[%]	right pressure 1[N/cm²]	right pressure 2[N/cm²]	right pressure 3[N/cm²]	right pressure 4[N/cm²]	right pressure 5[N/cm²]	right pressure 6[N/cm²]	right pressure 7[N/cm²]	right pressure 8[N/cm²]	right pressure 9[N/cm²]	right pressure 10[N/cm²]	right pressure 11[N/cm²]	right pressure 12[N/cm²]	right pressure 13[N/cm²]	right pressure 14[N/cm²]	right pressure 15[N/cm²]	right pressure 16[N/cm²]	right acceleration X[g]	right acceleration Y[g]	right acceleration Z[g]	right angular X[dps]	right angular Y[dps]	right angular Z[dps]	right total force[N]	right center of pressure X[%]	right center of pressure Y[%]
0.00																										3.75	5.75	5.75	8.00	5.50	6.25	1.50	4.25	2.25	1.75	2.00	1.75	3.75	2.00	0.25	0.50	-0.123047	0.058594	0.987305	-2.940000	-0.140000	1.750000	601.00	-0.10	-0.11
0.01																										3.75	5.75	5.75	8.00	5.25	6.00	1.50	4.25	2.25	1.75	1.75	1.75	3.75	1.75	0.25	0.25	-0.120605	0.062012	0.987793	-3.150000	-0.350000	1.750000	590.00	-0.11	-0.11
0.02																										3.50	5.50	5.75	7.75	5.25	6.25	1.50	4.50	2.50	1.75	2.00	1.75	3.75	2.00	0.25	0.50	-0.114746	0.056641	0.985840	-3.220000	-0.490000	1.540000	598.00	-0.10	-0.11
0.03																										3.50	5.25	5.50	7.75	5.25	6.00	1.50	4.00	2.50	1.75	1.75	1.75	3.50	1.75	0.25	0.50	-0.116211	0.060547	0.987305	-3.290000	-0.560000	1.330000	576.00	-0.10	-0.10
0.04	1.50	2.00	2.00	3.50	2.25	1.25	0.50	0.75	1.00	1.00	1.25	0.75	0.75	1.00	0.25	0.00	-0.182129	0.040527	0.965332	-3.150000	5.250000	-1.820000	214.00	-0.09	-0.07	3.25	5.25	5.50	7.50	5.00	5.75	1.50	4.25	2.25	2.00	2.00	1.75	3.75	2.00	0.25	0.75	-0.124512	0.060547	0.985840	-3.220000	-0.630000	1.260000	576.00	-0.09	-0.11
0.05	1.25	2.25	2.00	3.50	2.25	1.25	0.50	0.75	1.25	1.00	1.25	0.75	1.00	1.25	0.00	0.00	-0.183594	0.040527	0.958984	-3.640000	5.180000	-2.170000	219.00	-0.08	-0.07	3.00	5.25	5.25	7.50	5.25	5.75	1.50	4.25	2.25	1.50	2.25	1.75	3.75	2.00	0.25	0.75	-0.119141	0.056152	0.982422	-3.220000	-0.770000	1.190000	571.00	-0.09	-0.11
0.06	1.25	2.25	2.25	3.50	2.50	1.25	0.50	0.75	1.00	0.75	1.25	0.50	1.00	1.50	0.00	0.00	-0.174805	0.031250	0.963379	-3.920000	5.250000	-2.380000	218.00	-0.09	-0.06	3.00	5.00	5.25	7.50	5.25	5.75	1.50	4.25	2.50	1.75	2.00	1.75	3.75	2.00	0.25	0.50	-0.121094	0.055664	0.990723	-3.290000	-0.910000	1.190000	571.00	-0.09	-0.11
0.07																										2.75	5.00	5.25	7.25	5.00	5.50	1.50	4.00	2.50	2.00	2.00	2.00	3.75	2.25	0.25	0.50	-0.122559	0.055664	0.991211	-3.220000	-1.120000	1.190000	564.00	-0.08	-0.11
0.08	1.25	2.25	2.50	3.50	2.50	1.25	0.75	0.75	1.00	1.00	1.25	0.75	1.00	1.50	0.00	0.25	-0.172363	0.028809	0.960449	-3.360000	4.830000	-1.750000	231.00	-0.08	-0.06	2.75	4.75	5.25	7.25	5.00	5.50	1.50	4.00	2.50	1.75	2.25	2.00	3.75	2.00	0.50	0.75	-0.124023	0.054688	0.991699	-3.010000	-1.050000	1.190000	563.00	-0.08	-0.11
0.09	1.25	2.25	2.25	3.50	2.50	1.50	0.75	0.75	1.25	1.00	1.25	0.75	1.25	1.25	0.00	0.25	-0.179199	0.025391	0.958496	-3.010000	5.040000	-1.750000	234.00	-0.08	-0.06	2.75	4.50	5.00	7.00	5.00	5.50	1.75	4.25	2.50	1.75	2.00	2.00	4.00	2.25	0.50	0.50	-0.121582	0.060547	0.991699	-2.800000	-0.980000	1.260000	563.00	-0.07	-0.11
0.10	1.50	2.25	2.25	3.75	2.50	1.25	0.75	1.00	1.25	1.00	1.25	1.00	1.25	1.25	0.25	0.00	-0.178711	0.025879	0.963379	-2.730000	5.530000	-1.680000	245.00	-0.08	-0.07	2.75	4.50	5.00	7.00	5.00	5.50	1.75	4.25	2.50	1.75	2.00	2.00	3.75	2.00	0.25	0.50	-0.126465	0.058594	0.986328	-2.590000	-0.980000	1.400000	556.00	-0.08	-0.11
0.11	1.50	2.25	2.25	3.50	2.50	1.50	0.75	1.00	1.50	1.00	1.25	0.75	1.00	1.75	0.25	0.00	-0.174805	0.029785	0.957031	-2.380000	5.460000	-1.400000	247.00	-0.07	-0.05	2.50	4.50	4.75	6.75	5.00	5.25	1.50	4.00	2.50	1.75	2.00	1.75	4.00	2.00	0.25	0.50	-0.126953	0.051270	0.994629	-2.450000	-1.120000	1.470000	537.00	-0.08	-0.11
0.12	1.25	2.50	2.50	3.75	2.75	1.25	0.75	0.75	1.25	1.00	1.25	0.75	1.00	1.75	0.00	0.00	-0.176758	0.029785	0.961426	-2.030000	5.600000	-1.330000	243.00	-0.08	-0.05	2.50	4.25	4.75	6.75	4.75	5.50	1.50	4.25	2.50	2.00	2.00	1.75	3.75	2.00	0.50	0.50	-0.128418	0.057129	0.985840	-2.450000	-1.260000	1.470000	542.00	-0.07	-0.11
0.13	1.25	2.75	2.25	3.75	2.75	1.50	0.75	1.00	1.50	1.00	1.25	0.75	1.00	1.50	0.00	0.00	-0.174805	0.029297	0.958008	-1.960000	5.740000	-1.330000	250.00	-0.08	-0.06	2.25	4.00	4.75	6.50	4.75	5.25	1.75	4.25	2.50	2.00	2.25	1.75	3.75	2.25	0.25	0.50	-0.129395	0.054688	0.988770	-2.590000	-1.540000	1.470000	537.00	-0.07	-0.11
0.14	1.50	2.50	2.50	3.50	2.75	1.50	0.75	1.00	1.00	1.00	1.50	0.75	1.00	1.75	0.25	0.00	-0.177734	0.029785	0.963379	-1.890000	5.810000	-1.330000	251.00	-0.08	-0.06	2.50	4.25	4.75	6.25	5.00	5.25	1.75	4.25	2.25	1.75	2.00	1.75	3.75	2.50	0.50	0.50	-0.124512	0.062500	0.987305	-2.590000	-1.750000	1.470000	539.00	-0.07	-0.11
0.15	1.50	2.25	2.00	3.75	2.75	1.75	0.75	1.00	1.50	1.00	1.25	0.75	1.25	1.50	0.25	0.00	-0.176758	0.030762	0.958984	-2.170000	5.810000	-1.330000	253.00	-0.07	-0.06	2.25	4.00	4.75	6.25	5.00	5.00	1.50	4.00	2.50	1.75	2.00	1.75	3.75	2.00	0.25	0.50	-0.124512	0.054199	0.994141	-2.660000	-1.890000	1.330000	520.00	-0.07	-0.11
0.16	1.75	2.25	2.50	3.75	2.75	1.50	0.75	1.00	1.50	1.00	1.50	0.75	1.50	2.00	0.25	0.25	-0.176758	0.030762	0.958984	-2.170000	5.810000	-1.330000	269.00	-0.06	-0.06	2.25	4.25	4.75	6.25	4.75	5.00	1.75	4.00	2.50	1.75	2.00	2.00	4.00	2.25	0.50	0.75	-0.121582	0.055664	0.986328	-2.800000	-1.750000	1.260000	534.00	-0.06	-0.11
0.17	1.50	2.50	2.50	3.75	3.00	1.75	0.75	1.00	1.75	1.00	1.25	0.75	1.25	1.75	0.00	0.00	-0.178223	0.037109	0.962891	-2.310000	5.950000	-1.400000	266.00	-0.08	-0.05	2.25	3.25	4.50	6.25	4.75	5.50	1.75	3.75	2.50	2.00	2.00	2.00	3.75	2.25	0.50	0.50	-0.127441	0.058105	0.990234	-2.730000	-1.750000	0.910000	523.00	-0.06	-0.10
0.18	1.50	2.75	2.25	3.75	3.00	1.75	0.75	1.00	1.50	1.25	1.25	0.75	1.50	1.50	0.25	0.25	-0.178223	0.026367	0.963379	-2.450000	5.880000	-1.470000	269.00	-0.07	-0.07	2.25	3.75	4.25	6.25	4.75	5.00	1.75	3.75	2.50	2.00	2.00	2.00	3.75	2.00	0.25	0.50	-0.132812	0.056152	0.992676	-2.940000	-1.750000	0.910000	514.00	-0.06	-0.10
0.19	1.25	2.75	2.50	4.00	3.00	1.75	0.75	1.00	1.75	1.25	1.50	0.75	1.50	1.50	0.25	0.00	-0.177246	0.031250	0.964844	-2.450000	5.950000	-1.400000	277.00	-0.07	-0.06	2.25	3.50	4.00	6.00	4.75	4.75	1.75	4.00	2.50	2.00	2.00	2.00	3.75	2.25	0.25	0.75	-0.128418	0.051758	0.990234	-2.940000	-1.680000	0.910000	511.00	-0.06	-0.10
0.20	1.50	2.50	2.75	4.00	3.00	2.00	0.75	1.00	2.00	1.25	1.50	1.00	1.25	1.75	0.25	0.25	-0.175781	0.030273	0.963867	-2.520000	5.950000	-1.330000	290.00	-0.06	-0.06	2.25	4.00	4.25	6.00	4.50	5.00	1.75	3.75	2.25	2.00	2.00	2.00	3.75	2.00	0.25	0.50	-0.129395	0.053711	0.986328	-2.940000	-1.960000	0.910000	508.00	-0.07	-0.11
0.21	1.50	2.75	2.75	4.25	3.00	2.00	0.75	1.25	1.75	1.25	1.25	0.75	1.25	1.75	0.25	0.00	-0.180176	0.024414	0.966797	-2.520000	6.090000	-1.330000	288.00	-0.08	-0.06	2.25	3.50	4.00	5.75	4.50	5.00	1.75	3.75	2.50	1.75	2.00	2.00	3.75	2.50	0.50	0.50	-0.129395	0.054688	0.989258	-2.870000	-2.100000	1.050000	505.00	-0.05	-0.10
0.22	1.50	2.50	2.75	4.00	3.50	2.00	0.75	1.25	1.75	1.00	1.50	1.00	1.50	1.50	0.50	0.00	-0.177246	0.025391	0.963867	-2.240000	6.090000	-1.260000	294.00	-0.07	-0.07	2.25	3.50	4.25	5.75	4.75	4.50	1.75	3.50	2.50	2.00	1.75	2.00	3.75	2.25	0.25	0.50	-0.126465	0.052734	0.987793	-2.660000	-2.240000	1.330000	497.00	-0.06	-0.10
0.23	1.50	2.75	2.75	3.75	3.50	1.75	0.75	1.25	2.00	1.00	1.50	1.00	1.50	2.00	0.25	0.00	-0.174316	0.031738	0.960938	-2.030000	5.880000	-1.120000	296.00	-0.06	-0.06	2.25	3.75	3.75	5.75	4.50	4.25	1.75	3.50	2.25	1.75	2.00	1.75	3.50	2.25	0.25	0.50	-0.125000	0.057617	0.989746	-2.590000	-2.240000	1.400000	480.00	-0.06	-0.10
0.24	1.50	2.25	2.50	4.00	3.50	2.00	1.00	1.25	2.00	1.00	1.50	0.75	1.25	1.75	0.00	0.00	-0.175781	0.031738	0.961914	-1.820000	5.600000	-0.980000	288.00	-0.07	-0.05	2.00	3.00	3.75	5.75	4.50	4.25	1.75	3.50	2.50	2.00	2.00	1.75	3.75	2.50	0.25	0.50	-0.125977	0.055664	0.991211	-2.450000	-2.380000	1.540000	481.00	-0.05	-0.10
0.25	1.50	2.50	2.75	4.00	3.50	2.00	1.00	1.25	2.00	1.00	1.50	1.00	1.50	2.25	0.25	0.00	-0.180176	0.029297	0.960449	-1.750000	5.600000	-1.050000	305.00	-0.06	-0.05	2.00	3.50	3.75	5.50	4.50	4.25	1.75	3.50	2.50	2.25	1.75	2.00	3.50	2.25	0.50	0.50	-0.128906	0.052734	0.986328	-2.450000	-2.660000	1.680000	484.00	-0.05	-0.10
0.26	1.50	2.50	2.75	4.00	3.50	2.00	1.00	1.25	2.00	1.25	1.25	1.00	1.25	2.00	0.00	0.00	-0.177734	0.032715	0.966309	-1.820000	5.740000	-1.190000	298.00	-0.07	-0.05	2.00	3.00	4.00	5.50	4.75	3.50	2.00	3.50	2.50	1.75	2.00	1.75	3.75	2.25	0.25	0.50	-0.127441	0.055664	0.988281	-2.520000	-2.870000	1.820000	474.00	-0.05	-0.09
0.27	1.50	2.75	3.00	4.00	3.50	2.25	1.00	1.00	2.00	1.25	1.75	1.00	1.00	1.75	0.00	0.25	-0.181152	0.025879	0.962402	-1.750000	5.740000	-1.190000	304.00	-0.07	-0.05	2.00	3.00	4.00	5.50	4.50	4.25	1.75	3.25	2.50	1.75	1.75	1.50	3.50	2.25	0.25	0.50	-0.125977	0.055664	0.994141	-2.590000	-3.080000	1.960000	465.00	-0.05	-0.09
0.28	1.75	2.75	2.75	4.00	3.50	2.25	1.00	1.25	2.25	1.50	1.50	0.75	1.25	1.75	0.25	0.00	-0.179199	0.028809	0.963379	-1.820000	5.600000	-1.260000	312.00	-0.07	-0.05	2.00	3.25	3.75	5.50	4.50	4.00	1.75	3.25	2.25	1.75	1.75	1.75	3.75	2.00	0.25	0.25	-0.129883	0.056641	0.984375	-2.520000	-3.220000	1.960000	460.00	-0.06	-0.10
0.29	1.75	2.75	2.75	4.50	3.50	2.00	1.00	1.25	2.00	1.50	1.50	1.00	1.25	1.75	0.25	0.25	-0.174805	0.032227	0.964844	-1.750000	5.600000	-1.190000	316.00	-0.07	-0.06	2.00	3.00	3.50	5.25	4.75	4.25	1.75	3.25	2.25	1.75	2.00	1.75	3.50	2.25	0.50	0.50	-0.130859	0.054688	0.991211	-2.660000	-3.360000	1.820000	464.00	-0.05	-0.10
0.30	1.50	2.50	2.75	4.00	3.75	2.25	1.00	1.25	2.00	1.25	1.50	0.75	1.50	2.00	0.25	0.00	-0.170898	0.037598	0.958984	-1.750000	5.880000	-1.260000	308.00	-0.06	-0.05	2.00	3.25	3.75	5.50	4.50	4.00	1.75	3.25	2.25	1.75	1.75	1.75	3.50	2.00	0.50	0.50	-0.126465	0.059570	0.987305	-2.800000	-3.500000	1.890000	461.00	-0.05	-0.10
0.31	1.50	2.75	2.75	4.25	3.75	2.25	1.00	1.25	2.00	1.50	1.50	0.75	1.25	2.00	0.25	0.00	-0.173828	0.029297	0.962891	-1.680000	5.810000	-1.120000	314.00	-0.07	-0.05	2.00	3.25	3.75	5.50	4.50	4.00	1.75	3.00	2.25	2.00	1.75	1.50	3.25	2.00	0.25	0.50	-0.128906	0.056152	0.987305	-2.940000	-3.640000	1.820000	453.00	-0.06	-0.09
0.32	1.75	3.00	3.00	4.25	4.00	2.25	1.00	1.25	2.50	1.25	1.50	1.00	1.50	1.50	0.25	0.25	-0.176270	0.025391	0.966309	-1.750000	5.810000	-1.190000	330.00	-0.07	-0.05	1.75	3.25	3.75	5.25	4.25	4.00	1.75	3.25	2.25	1.75	1.75	1.75	3.75	2.00	0.25	0.50	-0.128418	0.053711	0.992188	-2.870000	-3.710000	1.890000	453.00	-0.05	-0.10
0.33	1.50	2.75	2.50	4.00	3.75	2.25	1.00	1.25	2.00	1.25	1.50	1.00	1.50	2.00	0.25	0.25	-0.174805	0.029785	0.959961	-1.890000	5.810000	-1.120000	312.00	-0.06	-0.06	2.00	3.25	3.50	5.50	4.50	3.75	1.75	3.00	2.25	1.75	1.75	1.50	3.25	2.25	0.25	0.50	-0.128906	0.055176	0.990234	-3.010000	-3.850000	1.960000	447.00	-0.06	-0.09
0.34	1.25	3.00	3.25	4.50	4.00	2.25	1.00	1.25	2.00	1.00	1.50	0.75	1.50	1.75	0.25	0.25	-0.176758	0.032715	0.957031	-1.750000	5.880000	-0.980000	321.00	-0.08	-0.06	2.00	3.25	4.00	5.25	4.75	3.75	1.75	3.25	2.25	1.75	1.75	1.50	3.25	2.25	0.50	0.50	-0.123047	0.051270	0.982422	-2.940000	-3.920000	1.820000	459.00	-0.06	-0.09
0.35	1.75	2.75	3.00	4.25	3.75	2.25	1.00	1.25	2.25	1.25	1.50	0.75	1.50	1.75	0.25	0.25	-0.171875	0.027344	0.963379	-1.680000	5.950000	-0.910000	321.00	-0.07	-0.05	2.00	3.25	3.75	5.50	4.75	3.25	1.75	3.00	2.25	1.50	1.50	1.50	3.25	2.00	0.50	0.50	-0.125977	0.057617	0.986816	-2.870000	-3.850000	1.960000	442.00	-0.06	-0.09
0.36	1.75	2.50	3.00	4.00	4.00	2.25	1.00	1.25	2.00	1.25	1.50	0.75	1.25	2.00	0.25	0.00	-0.178223	0.029297	0.962891	-1.540000	6.090000	-0.980000	314.00	-0.07	-0.05	2.00	3.25	4.00	5.50	4.75	3.75	1.75	3.00	2.00	1.50	1.50	1.50	3.25	2.00	0.50	0.25	-0.122070	0.057617	0.988770	-2.800000	-3.780000	1.890000	446.00	-0.07	-0.09
0.37	1.75	2.75	3.00	4.25	4.00	2.25	0.75	1.25	1.75	1.25	1.50	0.75	1.25	1.75	0.50	0.25	-0.170410	0.030762	0.963379	-1.400000	6.090000	-0.980000	314.00	-0.08	-0.06	2.25	3.25	3.75	5.25	4.75	3.75	1.75	2.75	2.25	1.50	1.75	1.50	3.50	1.75	0.25	0.25	-0.123047	0.057129	0.981445	-2.730000	-3.710000	2.030000	442.00	-0.07	-0.09
0.38	1.50	3.00	3.00	4.50	4.00	2.25	1.00	1.25	2.25	1.25	1.25	1.00	1.25	1.75	0.25	0.00	-0.172363	0.030762	0.961426	-1.400000	6.090000	-0.980000	323.00	-0.07	-0.05	2.00	2.75	3.50	5.25	4.50	3.50	1.75	3.00	2.25	1.75	1.50	1.50	3.50	2.25	0.25	0.50	-0.126953	0.055664	0.990723	-2.800000	-3.640000	2.100000	436.00	-0.05	-0.09
0.39	1.50	2.50	3.00	4.50	4.00	2.25	1.00	1.25	2.00	1.50	1.50	0.75	1.25	1.75	0.25	0.25	-0.175293	0.027832	0.963867	-1.470000	6.300000	-0.980000	319.00	-0.07	-0.05	2.25	3.50	3.50	5.50	4.75	4.00	1.75	3.00	2.00	1.75	1.75	1.25	3.25	2.00	0.25	0.50	-0.125000	0.057617	0.984863	-2.520000	-3.430000	2.030000	449.00	-0.07	-0.09
0.40	1.75	3.25	3.00	4.50	4.00	2.25	0.75	1.25	1.75	1.25	1.50	0.75	1.25	1.75	0.50	0.25	-0.178223	0.029785	0.963867	-1.540000	6.230000	-0.980000	322.00	-0.08	-0.06	2.00	3.50	4.00	5.50	4.50	3.75	1.75	3.00	2.50	1.50	1.75	1.25	3.25	2.25	0.25	0.50	-0.126953	0.050781	0.987305	-2.520000	-3.360000	1.890000	453.00	-0.06	-0.09
0.41	1.50	2.75	3.00	4.50	4.00	2.25	1.00	1.25	1.75	1.25	1.25	0.75	1.25	1.75	0.25	0.00	-0.172852	0.030273	0.962402	-1.610000	6.300000	-1.050000	312.00	-0.08	-0.06	2.00	3.25	3.50	5.50	4.50	3.75	1.50	2.75	2.00	2.00	1.75	1.50	3.25	2.00	0.25	0.50	-0.127441	0.058105	0.990234	-2.520000	-3.360000	1.890000	436.00	-0.06	-0.09
0.42	2.00	3.00	3.00	4.25	4.25	2.25	1.00	1.25	1.50	1.00	1.25	0.75	1.25	1.75	0.25	0.00	-0.171875	0.033203	0.966309	-1.610000	6.230000	-1.260000	313.00	-0.09	-0.06	2.00	3.25	4.00	5.50	4.75	3.50	1.75	2.75	2.25	1.50	1.50	1.25	3.25	1.75	0.50	0.50	-0.121094	0.055664	0.986328	-2.590000	-3.360000	1.960000	439.00	-0.07	-0.09
0.43	1.50	3.00	3.00	4.50	4.25	2.25	1.00	1.00	2.00	1.25	1.50	1.00	1.25	1.75	0.50	0.25	-0.174316	0.030273	0.959961	-1.540000	5.950000	-1.120000	325.00	-0.07	-0.05	2.25	3.25	3.75	5.75	4.75	3.50	1.75	3.00	2.50	1.75	1.75	1.50	3.25	2.00	0.25	0.50	-0.127441	0.053223	0.987305	-2.590000	-3.360000	1.890000	456.00	-0.06	-0.09
0.44	1.75	2.75	3.00	4.50	4.00	2.25	1.00	1.25	2.00	1.25	1.25	1.00	1.25	1.75	0.25	0.25	-0.174316	0.025391	0.961914	-1.680000	6.090000	-1.050000	321.00	-0.08	-0.06	2.25	3.00	3.50	5.50	4.50	3.75	1.75	3.00	2.00	1.50	1.50	1.50	3.00	2.00	0.00	0.50	-0.123535	0.052734	0.985840	-2.730000	-3.360000	1.750000	432.00	-0.07	-0.09
0.45	1.75	3.25	2.50	4.25	4.00	2.00	1.00	1.00	2.00	1.25	1.25	0.75	1.25	1.75	0.25	0.25	-0.174316	0.025391	0.963379	-1.610000	5.880000	-0.910000	308.00	-0.08	-0.05	2.00	3.25	3.75	5.50	4.75	3.75	1.75	3.00	2.25	1.50	1.50	1.50	2.75	2.25	0.50	0.50	-0.122559	0.055176	0.990234	-2.660000	-3.220000	1.680000	445.00	-0.06	-0.09
0.46	1.50	3.00	3.00	4.50	4.25	2.50	1.00	1.25	1.75	1.00	1.50	1.00	1.25	1.75	0.00	0.00	-0.171875	0.030762	0.961426	-1.470000	5.810000	-0.910000	319.00	-0.09	-0.06	2.25	3.00	3.75	5.50	4.75	3.75	1.75	2.75	2.00	1.50	1.50	1.50	3.50	2.00	0.00	0.50	-0.124023	0.053711	0.981445	-2.520000	-3.290000	1.750000	438.00	-0.07	-0.09
0.47	1.50	2.75	3.25	4.25	4.25	2.25	1.00	1.00	1.75	1.25	1.50	0.75	1.25	2.00	0.25	0.00	-0.175293	0.028809	0.957520	-1.470000	5.880000	-0.980000	315.00	-0.08	-0.05	2.25	3.00	3.75	5.25	5.00	4.00	1.75	2.75	2.25	1.75	1.75	1.50	2.75	2.00	0.25	0.50	-0.122559	0.055664	0.986816	-2.520000	-3.290000	1.750000	445.00	-0.06	-0.08
0.48	1.75	3.00	3.00	4.75	4.25	2.25	1.00	1.25	1.75	1.25	1.50	0.75	1.25	1.75	0.25	0.00	-0.175293	0.027832	0.960449	-1.400000	6.020000	-0.980000	324.00	-0.09	-0.06	2.25	3.50	3.75	5.50	5.00	3.50	1.75	2.75	2.25	1.50	1.50	1.25	3.25	2.00	0.25	0.50	-0.124512	0.058594	0.987793	-2.450000	-3.220000	1.820000	443.00	-0.07	-0.08
0.49	1.75	2.75	3.00	4.50	4.25	2.25	0.75	1.00	1.75	1.00	1.50	0.75	1.25	2.00	0.00	0.25	-0.175293	0.028320	0.965820	-1.400000	5.880000	-0.980000	310.00	-0.09	-0.05	2.00	3.25	3.75	5.50	4.75	3.50	1.75	2.75	2.25	1.75	1.50	1.25	3.25	2.00	0.25	0.50	-0.121582	0.056152	0.986328	-2.520000	-3.150000	1.750000	438.00	-0.06	-0.08
0.50	1.75	2.75	3.25	4.75	4.25	2.50	0.75	1.25	2.00	1.25	1.50	0.75	1.25	2.00	0.25	0.25	-0.172852	0.032715	0.963867	-1.260000	5.880000	-0.910000	331.00	-0.08	-0.06	2.00	3.50	3.75	5.25	4.75	3.50	1.75	2.75	2.25	1.50	1.50	1.50	3.00	1.75	0.25	0.25	-0.125977	0.053223	0.987305	-2.590000	-3.010000	1.890000	432.00	-0.07	-0.09
0.51	2.00	2.75	2.75	4.50	4.25	2.25	0.75	1.25	1.75	1.25	1.25	1.00	1.25	1.50	0.25	0.00	-0.172852	0.030273	0.959473	-1.400000	6.090000	-0.980000	313.00	-0.09	-0.06	2.25	3.25	3.75	5.50	5.00	3.75	1.75	2.75	2.25	1.50	1.75	1.25	3.25	2.25	0.25	0.50	-0.125977	0.053711	0.991699	-2.310000	-2.940000	1.820000	449.00	-0.06	-0.08
0.52	1.75	3.00	3.00	4.75	4.25	2.00	1.00	1.25	1.75	1.25	1.50	0.75	1.25	2.00	0.25	0.00	-0.176270	0.029785	0.965820	-1.470000	6.020000	-1.050000	324.00	-0.08	-0.05	2.00	3.50	3.75	5.50	4.75	3.75	1.75	2.75	2.25	1.50	1.50	1.50	3.25	2.00	0.25	0.50	-0.130371	0.051270	0.991699	-2.310000	-2.940000	1.750000	444.00	-0.07	-0.09
0.53	1.75	3.00	3.25	4.50	4.25	2.25	0.75	1.00	1.75	1.25	1.50	0.75	1.25	1.50	0.25	0.25	-0.170898	0.027832	0.963867	-1.680000	6.160000	-1.050000	316.00	-0.09	-0.06	2.25	3.50	3.75	5.50	5.00	3.00	1.75	3.00	2.25	1.75	1.75	1.50	3.25	2.00	0.25	0.50	-0.126953	0.059082	0.988770	-2.310000	-3.080000	1.610000	450.00	-0.06	-0.09
0.54	1.75	3.00	3.00	4.25	4.25	2.25	0.75	1.00	1.75	1.25	1.25	0.75	1.25	1.75	0.00	0.00	-0.181641	0.028320	0.964844	-1.820000	6.090000	-1.050000	306.00	-0.09	-0.05	2.25	3.25	3.75	5.50	4.75	3.50	1.75	2.75	2.50	1.50	1.75	1.50	3.25	2.00	0.25	0.50	-0.122559	0.059570	0.990234	-2.380000	-3.150000	1.750000	447.00	-0.06	-0.08
0.55	1.75	3.00	3.00	4.75	4.25	2.25	1.00	1.00	2.00	1.25	1.25	1.00	1.25	1.75	0.25	0.00	-0.171387	0.030762	0.968262	-1.750000	6.160000	-1.050000	324.00	-0.08	-0.05	2.00	3.25	3.75	5.25	5.00	3.75	1.75	2.75	2.25	1.75	1.75	1.50	3.25	2.00	0.25	0.50	-0.122559	0.057129	0.992188	-2.450000	-3.080000	1.820000	446.00	-0.06	-0.09
0.56	2.00	3.25	3.25	4.50	4.25	2.50	0.75	1.00	1.75	1.25	1.25	0.75	1.25	2.00	0.25	0.00	-0.177734	0.031738	0.960449	-1.680000	6.160000	-1.190000	324.00	-0.09	-0.05	2.25	3.00	3.50	5.50	4.75	3.25	1.75	3.00	2.25	1.75	1.50	1.50	3.50	2.00	0.25	0.50	-0.124023	0.058594	0.986328	-2.520000	-3.080000	1.680000	442.00	-0.06	-0.09
0.57	2.00	3.25	2.75	4.50	4.25	2.50	0.75	1.25	2.00	1.25	1.25	0.75	1.25	1.75	0.25	0.00	-0.170410	0.027832	0.959961	-1.610000	6.090000	-1.190000	323.00	-0.09	-0.06	2.00	3.50	3.75	5.50	5.00	3.75	1.75	2.75	2.25	1.50	1.50	1.50	3.25	2.25	0.50	0.25	-0.124512	0.052734	0.983398	-2.520000	-3.150000	1.680000	450.00	-0.06	-0.09
0.58	1.75	3.25	3.25	4.50	4.25	2.25	0.75	1.00	1.75	1.25	1.50	1.00	1.25	1.50	0.25	0.00	-0.171875	0.027832	0.962891	-1.470000	6.090000	-1.120000	320.00	-0.09	-0.06	2.00	3.50	3.50	5.50	5.00	3.75	1.75	2.75	2.50	1.50	1.75	1.50	3.00	2.00	0.25	0.50	-0.123535	0.058594	0.988770	-2.450000	-3.150000	1.750000	447.00	-0.06	-0.08
0.59	1.75	3.00	3.25	4.50	4.25	2.50	0.75	1.00	1.75	1.00	1.50	1.00	1.25	1.75	0.00	0.00	-0.179688	0.025391	0.964355	-1.540000	6.230000	-1.120000	317.00	-0.09	-0.06	2.00	3.25	3.50	5.25	5.00	3.25	1.75	2.75	2.00	1.50	1.50	1.25	3.25	2.00	0.25	0.50	-0.122559	0.047363	0.983887	-2.450000	-3.010000	1.890000	427.00	-0.07	-0.09
0.60	1.75	3.00	3.00	4.75	4.25	2.50	0.75	1.25	2.00	1.25	1.50	1.00	1.00	1.50	0.00	0.00	-0.175781	0.033203	0.963379	-1.540000	6.160000	-1.050000	322.00	-0.09	-0.06	2.00	3.00	3.75	5.25	5.00	3.50	1.75	3.00	2.00	1.50	1.50	1.50	3.50	2.00	0.00	0.50	-0.124512	0.051758	0.989746	-2.380000	-2.940000	1.750000	436.00	-0.06	-0.09
0.61	1.75	3.00	3.00	5.00	4.25	2.50	1.00	1.25	1.50	1.25	1.50	0.75	1.50	1.50	0.25	0.25	-0.166504	0.035156	0.959961	-1.540000	6.510000	-1.260000	328.00	-0.09	-0.07	2.00	3.25	3.75	5.25	5.00	3.75	1.75	3.00	2.00	1.50	1.50	1.50	3.25	2.00	0.25	0.50	-0.122559	0.056152	0.987793	-2.450000	-2.730000	1.750000	442.00	-0.07	-0.09
0.62	2.00	3.00	3.25	4.75	4.25	2.50	0.75	1.25	1.75	1.00	1.25	1.00	1.00	1.75	0.25	0.00	-0.175781	0.029785	0.963379	-1.470000	6.510000	-1.260000	324.00	-0.10	-0.06	1.75	3.25	3.75	5.50	5.00	3.75	1.75	3.00	2.25	1.50	1.25	1.25	3.50	2.00	0.25	0.50	-0.126953	0.056152	0.992676	-2.450000	-2.730000	1.820000	442.00	-0.06	-0.09
0.63	1.75	3.25	3.25	4.75	4.25	2.25	1.00	1.00	1.75	1.00	1.50	0.50	1.25	1.75	0.25	0.25	-0.176270	0.028320	0.962402	-1.540000	6.440000	-1.190000	322.00	-0.09	-0.05	2.00	3.00	3.50	5.50	4.75	3.75	1.75	2.75	2.50	1.75	1.50	1.75	3.00	2.00	0.25	0.50	-0.132324	0.052246	0.988281	-2.380000	-2.660000	1.820000	442.00	-0.06	-0.08
0.64	1.75	2.75	3.25	4.75	4.50	2.25	0.75	1.25	1.75	1.00	1.25	0.75	1.50	2.00	0.25	0.25	-0.177246	0.032715	0.968750	-1.610000	6.370000	-1.120000	324.00	-0.09	-0.06	2.25	3.25	3.75	5.50	5.00	3.75	1.75	2.75	2.50	1.50	1.50	1.25	3.25	2.00	0.00	0.50	-0.128906	0.054199	0.992188	-2.450000	-2.590000	1.750000	445.00	-0.07	-0.08
0.65	1.50	3.00	3.00	4.75	4.25	2.25	1.00	1.00	1.75	1.00	1.50	1.00	1.25	1.50	0.00	0.25	-0.174805	0.031738	0.959961	-1.610000	6.580000	-1.260000	315.00	-0.09	-0.06	2.00	3.25	3.50	5.50	4.75	3.50	1.75	3.00	2.25	1.50	1.75	1.50	3.25	1.75	0.25	0.25	-0.126465	0.058594	0.990723	-2.450000	-2.730000	1.820000	439.00	-0.06	-0.09
0.66	1.75	3.00	3.25	4.75	4.50	2.50	0.75	1.00	1.75	1.00	1.50	0.75	1.25	1.75	0.25	0.00	-0.171387	0.032227	0.962402	-1.540000	6.510000	-1.260000	323.00	-0.09	-0.06	1.75	3.00	3.75	5.25	5.00	3.50	1.75	3.00	2.25	1.75	1.75	1.50	3.25	2.00	0.25	0.50	-0.123535	0.057617	0.987305	-2.520000	-2.800000	1.750000	443.00	-0.06	-0.09
0.67	1.75	3.00	3.00	4.50	4.25	2.25	0.75	1.25	1.75	1.25	1.50	0.75	1.00	2.00	0.25	0.25	-0.174805	0.030762	0.961426	-1.470000	6.370000	-1.260000	319.00	-0.08	-0.06	2.25	3.00	3.75	5.25	5.00	3.50	1.75	3.00	2.50	1.75	1.75	1.50	3.25	2.25	0.25	0.50	-0.134766	0.055176	0.986328	-2.380000	-2.590000	1.750000	453.00	-0.05	-0.08
0.68	1.50	3.00	3.25	4.75	4.25	2.50	0.75	1.00	2.00	1.25	1.25	0.75	1.00	1.25	0.25	0.00	-0.176270	0.027344	0.960449	-1.540000	6.160000	-1.050000	314.00	-0.10	-0.06	1.75	3.00	3.50	5.50	4.75	3.50	1.75	3.00	2.25	1.50	1.50	1.50	3.25	2.00	0.25	0.50	-0.128906	0.054199	0.992188	-2.380000	-2.520000	1.750000	435.00	-0.06	-0.09
0.69	1.75	2.75	3.00	4.50	4.25	2.00	0.75	1.00	1.75	1.25	1.50	1.00	1.25	1.50	0.00	0.25	-0.179199	0.027344	0.962891	-1.610000	6.510000	-1.120000	308.00	-0.09	-0.06	2.00	3.25	3.75	5.50	4.75	3.25	1.75	2.75	2.00	1.75	1.75	1.25	3.00	2.00	0.25	0.25	-0.125977	0.053711	0.996094	-2.380000	-2.380000	1.820000	432.00	-0.07	-0.08
0.70	1.50	3.00	3.25	4.50	4.25	2.25	0.75	1.25	1.75	1.25	1.25	1.00	1.00	2.00	0.25	0.00	-0.168945	0.035645	0.967773	-1.680000	6.650000	-1.330000	318.00	-0.08	-0.06	1.75	3.00	3.50	5.50	5.00	3.50	1.75	2.75	2.25	1.75	1.50	1.50	3.00	2.00	0.50	0.50	-0.122559	0.055664	0.989258	-2.310000	-2.590000	1.890000	437.00	-0.06	-0.09
0.71	1.75	3.00	3.25	4.75	4.25	2.50	0.75	1.00	1.75	1.50	1.50	0.75	1.25	2.00	0.25	0.25	-0.171387	0.030762	0.963379	-1.330000	6.230000	-1.120000	329.00	-0.08	-0.06	2.00	3.25	3.50	5.50	5.00	3.75	1.75	2.75	2.25	1.75	1.75	1.50	3.50	2.00	0.25	0.50	-0.128418	0.052734	0.992676	-2.310000	-2.660000	1.750000	449.00	-0.06	-0.09
0.72	1.75	3.00	3.25	4.75	4.25	2.25	0.75	1.25	2.00	1.00	1.25	0.75	1.25	2.00	0.25	0.25	-0.173828	0.030762	0.964355	-1.330000	6.160000	-1.050000	325.00	-0.09	-0.06	2.00	3.00	3.50	5.25	5.00	3.50	1.75	3.00	2.25	1.75	1.75	1.75	3.00	2.25	0.25	0.75	-0.126465	0.058105	0.984863	-2.450000	-2.660000	1.820000	446.00	-0.05	-0.09
0.73	1.75	3.00	3.25	4.50	4.50	2.25	1.00	1.25	2.00	1.00	1.25	0.75	1.25	1.50	0.25	0.00	-0.172363	0.026855	0.966797	-1.540000	6.370000	-1.120000	323.00	-0.09	-0.05	2.00	3.25	3.50	5.25	5.00	3.50	1.75	3.00	2.25	1.75	1.75	1.50	3.50	2.25	0.25	0.50	-0.129395	0.053711	0.988281	-2.520000	-2.730000	1.960000	449.00	-0.05	-0.09
0.74	1.75	3.00	3.25	4.50	4.25	2.25	1.00	1.25	1.75	1.25	1.50	0.75	1.25	1.75	0.25	0.00	-0.174805	0.032715	0.963867	-1.540000	6.370000	-1.190000	325.00	-0.09	-0.05	2.00	3.00	3.50	5.50	5.00	3.75	1.75	3.00	2.25	1.75	1.50	1.50	3.25	2.00	0.25	0.50	-0.128906	0.056641	0.986328	-2.450000	-2.800000	1.890000	445.00	-0.06	-0.09
0.75	2.00	2.75	3.00	4.50	4.25	2.25	0.75	1.00	1.75	1.25	1.50	0.75	1.25	2.00	0.25	0.25	-0.175781	0.030762	0.963379	-1.540000	6.440000	-1.260000	318.00	-0.08	-0.05	2.00	3.25	3.25	5.25	5.00	3.75	1.75	3.00	2.50	1.75	1.50	1.50	3.50	2.25	0.25	0.50	-0.128418	0.049316	0.996582	-2.450000	-2.870000	1.820000	450.00	-0.05	-0.09
0.76	2.00	2.75	3.00	4.50	4.25	2.25	0.75	1.25	2.25	1.25	1.25	1.00	1.25	2.00	0.00	0.25	-0.177246	0.035156	0.965820	-1.610000	6.580000	-1.400000	326.00	-0.08	-0.05	1.75	3.25	3.50	5.25	5.00	3.50	1.75	3.00	2.25	1.75	1.75	1.50	3.25	2.00	0.25	0.50	-0.126953	0.052734	0.981934	-2.450000	-2.940000	1.890000	442.00	-0.06	-0.09
0.77	2.00	2.75	3.25	4.75	4.25	2.25	0.75	1.00	1.75	1.25	1.25	0.75	1.25	1.75	0.25	0.25	-0.171387	0.029297	0.963379	-1.540000	6.580000	-1.330000	319.00	-0.09	-0.05	2.00	3.25	3.50	5.25	5.25	3.50	1.75	2.75	2.25	1.50	1.75	1.50	3.75	2.00	0.25	0.50	-0.123047	0.053223	0.987305	-2.520000	-2.870000	1.890000	445.00	-0.06	-0.09
0.78	1.75	2.75	3.25	4.75	4.50	2.25	1.00	1.25	1.75	1.00	1.50	0.75	1.25	1.75	0.25	0.00	-0.174316	0.030273	0.969238	-1.610000	6.440000	-1.190000	325.00	-0.09	-0.06	2.00	3.00	3.50	5.50	5.00	3.50	1.75	3.00	2.25	1.50	1.75	1.50	3.50	2.00	0.25	0.50	-0.125488	0.049805	0.987793	-2.660000	-2.940000	1.680000	445.00	-0.06	-0.09
0.79	1.75	3.00	3.00	4.75	4.25	2.25	0.75	1.00	2.00	1.25	1.25	0.75	1.25	1.75	0.25	0.25	-0.182129	0.028809	0.963379	-1.470000	6.300000	-1.260000	319.00	-0.09	-0.05	1.75	3.25	3.50	5.25	5.00	3.50	1.75	3.00	2.25	1.50	2.00	1.25	3.25	2.25	0.25	0.25	-0.125488	0.049805	0.987793	-2.520000	-3.010000	1.680000	440.00	-0.06	-0.09
0.80	1.75	3.00	3.25	4.50	4.50	2.50	1.00	1.25	2.00	1.25	1.25	0.75	1.25	2.00	0.00	0.25	-0.181152	0.030762	0.963379	-1.540000	6.160000	-1.190000	332.00	-0.09	-0.05	1.75	2.75	3.50	5.25	5.00	3.25	1.75	2.75	2.25	1.50	1.75	1.75	3.25	2.00	0.25	0.50	-0.130371	0.053223	0.989746	-2.450000	-3.150000	1.960000	431.00	-0.05	-0.09
0.81	2.00	2.75	3.25	4.50	4.25	2.50	0.75	1.25	1.75	1.25	1.50	1.00	1.25	1.25	0.25	0.00	-0.177246	0.026855	0.958496	-1.610000	6.160000	-1.260000	322.00	-0.09	-0.06	2.00	3.00	3.25	5.25	5.00	3.50	1.75	2.75	2.25	1.75	1.75	1.50	3.25	2.00	0.25	0.50	-0.125977	0.052246	0.991211	-2.380000	-3.220000	1.890000	436.00	-0.05	-0.09
0.82	1.75	3.25	3.25	4.75	4.50	2.50	1.00	1.25	2.00	1.25	1.25	0.75	1.25	1.75	0.00	0.00	-0.180176	0.027832	0.965332	-1.470000	6.090000	-1.190000	333.00	-0.09	-0.05	2.00	3.00	3.50	5.25	5.00	3.50	1.75	2.75	2.25	1.50	1.75	1.50	3.50	2.25	0.00	0.50	-0.123535	0.048828	0.989258	-2.310000	-3.150000	1.890000	438.00	-0.06	-0.09
0.83	2.00	3.25	3.00	4.75	4.50	2.50	1.00	1.25	2.00	1.25	1.25	1.00	1.25	1.75	0.25	0.00	-0.180664	0.028809	0.967773	-1.400000	5.880000	-1.120000	338.00	-0.09	-0.06	2.25	3.00	3.50	5.25	4.75	3.50	1.75	2.75	2.25	1.50	1.50	1.50	3.25	2.25	0.25	0.25	-0.129883	0.051270	0.988281	-2.240000	-3.150000	1.960000	434.00	-0.06	-0.08
0.84	2.00	3.00	3.25	4.75	4.50	2.50	1.00	1.25	1.75	1.25	1.50	0.75	1.25	1.75	0.25	0.00	-0.177246	0.021973	0.968750	-0.980000	5.600000	-1.120000	335.00	-0.09	-0.06	2.00	3.25	3.75	5.25	5.00	3.50	1.75	2.75	2.25	1.50	1.50	1.50	3.25	2.25	0.25	0.75	-0.135254	0.058594	0.994141	-1.960000	-3.500000	2.030000	442.00	-0.06	-0.08
0.85	1.75	3.00	3.25	4.75	4.50	2.50	0.75	1.00	1.50	1.00	1.25	0.75	1.25	1.50	0.00	0.00	-0.175293	0.031250	0.961426	-0.420000	5.040000	-1.050000	312.00	-0.11	-0.06	2.00	3.00	3.50	5.25	5.00	3.50	1.75	2.75	2.00	1.75	1.50	1.50	3.00	2.00	0.25	0.50	-0.130859	0.054688	0.990723	-1.750000	-3.920000	2.100000	431.00	-0.06	-0.09
0.86	2.00	3.00	3.50	4.75	4.50	2.25	0.75	1.25	1.50	1.25	1.25	0.75	1.00	1.75	0.00	0.25	-0.181152	0.025391	0.960938	-0.000000	4.690000	-0.840000	322.00	-0.10	-0.06	2.00	3.25	3.75	5.25	5.25	3.50	1.75	2.75	2.25	1.75	1.50	1.25	3.25	2.00	0.25	0.50	-0.133789	0.053711	0.986328	-1.400000	-4.270000	2.170000	441.00	-0.06	-0.08
0.87	1.75	3.00	3.25	4.75	4.50	2.50	0.75	1.00	1.75	1.00	1.25	0.50	1.25	1.25	0.00	0.00	-0.169922	0.031738	0.962402	0.140000	4.550000	-0.560000	310.00	-0.11	-0.06	1.75	3.25	3.50	5.50	5.00	3.50	1.75	2.75	2.25	1.50	1.50	1.50	3.00	1.75	0.00	0.50	-0.127930	0.054688	0.981934	-1.330000	-4.620000	2.310000	429.00	-0.07	-0.09
0.88	1.75	3.25	3.25	5.00	4.50	2.75	0.75	1.25	1.25	1.00	1.25	0.75	1.50	1.75	0.25	0.00	-0.171387	0.033203	0.962891	0.210000	4.270000	-0.350000	327.00	-0.11	-0.07	2.00	3.00	3.50	5.25	5.00	3.50	1.75	2.75	1.75	1.50	1.50	1.50	3.25	1.75	0.50	0.25	-0.129395	0.057617	0.984863	-1.470000	-4.690000	2.100000	426.00	-0.07	-0.09
0.89	2.00	3.50	3.50	5.25	4.75	2.75	0.75	1.25	1.75	1.00	1.25	0.75	1.25	1.50	0.00	0.00	-0.169922	0.028320	0.961426	0.420000	3.850000	-0.070000	340.00	-0.11	-0.06	2.50	3.50	3.50	5.75	5.00	3.75	1.75	2.75	1.75	1.25	1.50	1.25	2.75	1.75	0.25	0.25	-0.126953	0.052734	0.994629	-1.750000	-4.620000	2.100000	432.00	-0.09	-0.09
0.90	2.25	3.50	3.25	5.00	4.75	2.75	0.75	1.25	1.50	1.00	1.00	0.75	1.00	1.50	0.00	0.00	-0.182617	0.027344	0.970703	0.630000	3.920000	-0.280000	329.00	-0.12	-0.06	2.00	3.25	3.75	5.50	5.00	3.50	1.75	2.50	1.75	1.50	1.25	1.25	3.00	1.75	0.00	0.25	-0.135254	0.048828	0.997559	-1.470000	-4.760000	2.240000	417.00	-0.08	-0.09
0.91	2.00	3.75	3.75	5.25	4.75	3.25	0.75	1.25	1.50	1.00	1.25	0.75	1.00	1.00	0.00	0.00	-0.182617	0.027832	0.973633	1.120000	3.780000	-0.140000	341.00	-0.13	-0.07	2.00	3.25	3.50	5.50	5.00	3.50	1.50	2.50	1.50	1.25	1.25	1.25	2.50	1.50	0.25	0.25	-0.132812	0.064941	0.991699	-0.910000	-5.600000	2.520000	401.00	-0.09	-0.09
0.92	2.00	3.75	3.50	5.25	4.75	3.00	0.75	1.25	1.25	1.00	1.25	0.50	1.00	1.25	0.00	0.00	-0.175781	0.038574	0.965332	1.890000	3.150000	0.210000	331.00	-0.13	-0.07	2.50	3.25	3.75	5.75	4.75	3.50	1.50	2.50	1.75	1.25	1.50	1.25	2.50	1.50	0.00	0.00	-0.125977	0.061523	0.990234	-0.910000	-6.370000	2.730000	411.00	-0.09	-0.09
0.93	2.50	4.00	3.50	5.25	4.75	3.25	0.75	1.25	1.25	0.75	1.25	0.75	1.00	1.25	0.00	0.00	-0.184570	0.033691	0.967285	2.100000	2.240000	0.490000	342.00	-0.14	-0.07	2.25	3.50	3.75	5.75	5.00	3.50	1.50	2.25	1.50	1.00	1.25	1.00	2.25	1.50	0.00	0.00	-0.124023	0.055664	0.995117	-1.050000	-6.650000	2.730000	396.00	-0.11	-0.08
0.94	2.50	4.25	4.00	5.50	4.75	3.25	0.75	1.25	1.25	1.00	1.25	0.75	1.00	1.25	0.00	0.00	-0.178711	0.029297	0.971680	2.450000	1.890000	0.560000	355.00	-0.14	-0.07	2.25	3.75	3.75	5.75	4.75	3.50	1.50	2.25	1.25	1.00	1.25	1.00	2.25	1.00	0.25	0.25	-0.122070	0.058594	0.991699	-0.840000	-7.000000	2.800000	392.00	-0.11	-0.09
0.95	2.50	4.50	4.00	5.50	4.75	3.50	0.75	1.25	0.75	0.75	1.00	0.75	1.25	1.25	0.00	0.00	-0.175781	0.036621	0.964844	3.010000	1.330000	0.560000	350.00	-0.15	-0.08	2.50	3.75	4.00	6.00	4.75	3.50	1.50	2.25	1.50	1.00	1.00	1.00	2.50	1.25	0.00	0.25	-0.120117	0.051758	0.982910	-0.840000	-7.070000	2.800000	403.00	-0.11	-0.09
0.96	2.75	4.50	4.25	6.25	5.00	3.75	0.50	1.25	0.25	0.75	1.00	0.50	0.75	1.00	0.00	0.00	-0.181641	0.035156	0.965820	3.150000	1.260000	0.700000	350.00	-0.18	-0.09	2.50	4.00	4.00	5.75	4.75	3.50	1.25	2.00	1.25	1.00	1.00	0.75	2.00	1.25	0.00	0.00	-0.118164	0.056641	0.986328	-0.980000	-6.650000	2.730000	383.00	-0.13	-0.08
0.97	2.75	5.00	4.50	6.75	5.00	4.00	0.50	1.25	0.75	0.50	1.00	0.50	1.00	0.50	0.00	0.00	-0.175293	0.039062	0.972168	3.290000	1.050000	0.560000	367.00	-0.18	-0.09	2.75	4.25	4.00	6.00	4.75	3.50	1.25	2.00	1.25	1.00	0.75	0.75	2.25	0.75	0.00	0.25	-0.118164	0.056641	0.986328	-0.980000	-6.650000	2.730000	387.00	-0.14	-0.09
0.98	3.25	5.25	4.75	6.75	5.00	4.25	0.50	1.25	0.50	0.50	1.00	0.50	0.75	0.50	0.00	0.00	-0.159668	0.037598	0.966309	3.150000	1.330000	0.490000	375.00	-0.20	-0.09	3.00	4.50	4.00	6.00	4.75	3.25	1.25	2.00	1.00	0.75	1.00	0.75	1.75	1.00	0.25	0.00	-0.110352	0.055176	0.982422	-0.910000	-6.440000	2.800000	385.00	-0.14	-0.09
0.99	3.25	5.50	4.75	7.25	5.00	4.25	0.50	1.25	0.50	0.75	1.00	0.50	0.75	0.50	0.00	0.00	-0.160156	0.045410	0.964355	2.590000	1.540000	0.280000	385.00	-0.20	-0.09	2.75	4.50	4.25	6.00	4.50	3.25	1.25	1.75	1.00	0.50	0.75	1.00	1.50	1.00	0.00	0.00	-0.116211	0.051758	0.987305	-0.910000	-5.390000	2.520000	372.00	-0.15	-0.08
1.00	3.50	5.50	5.00	7.50	5.00	4.50	0.50	1.25	0.25	0.75	0.75	0.50	0.75	0.00	0.00	0.00	-0.158691	0.044922	0.961426	2.100000	2.170000	0.070000	386.00	-0.21	-0.10	2.75	5.00	4.00	6.25	4.50	3.25	1.25	1.75	0.75	1.00	1.00	0.75	1.25	1.00	0.00	0.00	-0.114746	0.055664	0.985840	-0.840000	-4.830000	2.450000	376.00	-0.15	-0.09
1.01	3.50	6.00	5.25	7.75	5.00	4.50	0.50	1.50	0.50	0.25	0.75	0.50	0.75	0.50	0.00	0.00	-0.160156	0.040527	0.958008	1.890000	3.010000	-0.210000	402.00	-0.21	-0.10	3.00	4.75	4.50	5.75	4.25	3.25	1.25	1.75	1.00	0.75	1.00	0.75	1.75	1.00	0.00	0.25	-0.111328	0.052246	0.976074	-1.050000	-4.200000	2.520000	380.00	-0.15	-0.08
1.02	3.50	6.00	5.00	7.75	5.00	4.50	0.50	1.50	0.25	0.50	0.75	0.50	1.00	0.50	0.00	0.00	-0.151855	0.036621	0.959473	0.980000	4.480000	-0.490000	401.00	-0.21	-0.10	3.00	5.00	4.50	6.50	4.50	3.25	1.25	1.75	1.00	0.75	0.75	0.75	1.50	1.00	0.00	0.25	-0.109375	0.061523	0.980957	-1.400000	-3.640000	2.380000	388.00	-0.16	-0.08
1.03	3.75	6.25	5.00	7.75	5.00	4.50	0.50	1.25	0.50	0.50	0.75	0.50	0.75	0.75	0.00	0.00	-0.152344	0.039062	0.957031	0.140000	5.460000	-0.770000	405.00	-0.21	-0.09	3.00	5.00	4.25	6.25	4.50	3.25	1.25	1.50	1.00	0.75	0.75	0.75	1.50	0.75	0.00	0.00	-0.117188	0.056641	0.975586	-1.610000	-3.220000	2.380000	376.00	-0.16	-0.08
1.04	4.00	6.00	5.25	7.75	5.00	4.75	0.50	1.25	0.75	0.50	0.75	0.25	0.75	0.75	0.00	0.00	-0.151855	0.041504	0.954590	-0.980000	6.230000	-0.980000	412.00	-0.20	-0.09	3.00	5.00	4.50	7.00	4.50	3.25	1.25	1.75	1.00	0.50	1.00	0.75	2.00	0.75	0.00	0.00	-0.101562	0.057617	0.972656	-2.100000	-3.010000	2.240000	395.00	-0.16	-0.09
1.05	4.00	6.50	5.50	7.75	5.00	4.50	0.50	1.50	0.50	0.50	0.75	0.50	1.00	0.75	0.00	0.00	-0.155273	0.042480	0.958496	-2.100000	7.070000	-1.330000	422.00	-0.21	-0.09	3.00	5.00	4.50	6.50	4.50	3.00	1.25	1.75	0.50	1.00	0.75	0.50	1.75	1.00	0.00	0.00	-0.112305	0.062012	0.984375	-2.660000	-2.100000	1.960000	380.00	-0.16	-0.09
1.06	3.75	6.50	5.50	7.75	5.25	4.50	0.50	1.50	0.50	0.50	1.00	0.75	0.75	0.50	0.00	0.00	-0.160645	0.040039	0.964355	-2.730000	7.490000	-1.470000	423.00	-0.20	-0.09	3.00	5.00	4.25	6.50	4.25	3.00	1.25	1.50	0.75	0.75	1.00	0.50	1.50	0.75	0.00	0.00	-0.113281	0.054199	0.983887	-2.870000	-1.750000	1.890000	370.00	-0.17	-0.08
1.07	3.75	6.50	5.50	7.75	5.00	4.75	0.50	1.25	0.50	0.75	0.75	0.50	0.75	0.25	0.00	0.00	-0.162598	0.045410	0.959473	-3.010000	7.770000	-1.610000	414.00	-0.21	-0.09	3.00	4.75	4.50	7.50	4.50	3.00	1.25	1.75	0.75	0.75	0.75	0.50	1.75	1.00	0.00	0.25	-0.115234	0.054199	0.986816	-2.800000	-1.680000	2.030000	391.00	-0.16	-0.09
1.08	3.50	6.50	5.25	8.00	5.00	4.25	0.50	1.25	0.75	0.50	1.00	0.25	1.00	0.50	0.00	0.00	-0.174316	0.040039	0.970215	-3.220000	8.190000	-1.610000	411.00	-0.20	-0.09	3.00	5.00	4.25	7.00	4.25	3.25	1.25	1.50	1.00	0.50	0.75	0.75	1.50	0.75	0.00	0.00	-0.130859	0.052734	0.996094	-2.590000	-1.680000	2.030000	379.00	-0.17	-0.09
1.09	3.75	6.50	5.50	7.75	5.00	4.50	0.50	1.50	0.50	0.75	1.00	0.50	1.00	0.75	0.00	0.00	-0.175781	0.036133	0.972168	-2.380000	7.840000	-1.610000	424.00	-0.20	-0.09	3.00	5.00	4.00	6.75	4.25	3.00	1.25	1.75	1.00	1.00	1.00	0.75	1.25	0.75	0.00	0.00	-0.125977	0.059570	0.982910	-2.030000	-1.960000	2.030000	380.00	-0.16	-0.08
1.10	3.75	6.25	5.50	7.75	5.00	4.50	0.50	1.25	0.75	0.75	1.00	0.50	1.00	0.50	0.00	0.00	-0.164062	0.042969	0.961426	-1.540000	6.860000	-1.400000	419.00	-0.20	-0.09	3.00	4.75	4.00	6.25	4.50	3.00	1.25	1.75	1.00	0.75	0.75	0.75	1.75	1.25	0.00	0.00	-0.116699	0.056152	0.983398	-2.100000	-2.380000	2.030000	378.00	-0.15	-0.08
1.11	3.75	6.25	5.50	7.75	5.00	4.50	0.50	1.25	0.50	0.75	0.75	0.50	1.00	0.50	0.00	0.00	-0.164551	0.041504	0.960449	-1.750000	6.580000	-1.400000	414.00	-0.20	-0.09	3.00	4.50	4.25	6.50	4.50	3.25	1.25	1.50	0.75	0.75	1.00	0.50	1.75	1.00	0.25	0.00	-0.120605	0.059570	0.983398	-2.450000	-2.660000	1.960000	377.00	-0.15	-0.08
1.12	3.50	6.25	5.50	7.75	5.00	4.50	0.50	1.25	0.50	0.50	1.00	0.75	0.75	0.75	0.00	0.00	-0.166504	0.039551	0.963379	-2.310000	6.720000	-1.400000	414.00	-0.20	-0.09	2.75	4.75	4.25	6.75	4.50	3.00	1.25	1.75	1.00	0.75	0.75	0.50	1.75	1.00	0.00	0.00	-0.118164	0.063477	0.988281	-2.870000	-2.940000	1.960000	379.00	-0.16	-0.08
1.13	3.50	6.25	5.50	7.50	5.00	4.25	0.50	1.25	0.50	0.50	0.75	0.25	0.75	0.75	0.00	0.00	-0.167969	0.043457	0.965820	-2.660000	6.860000	-1.470000	400.00	-0.21	-0.09	2.75	4.50	4.50	7.00	4.75	3.00	1.25	1.75	1.25	0.75	1.00	0.50	1.75	1.25	0.00	0.25	-0.116699	0.055176	0.986816	-3.290000	-3.150000	1.960000	394.00	-0.15	-0.08
1.14	3.75	6.25	5.25	7.75	5.00	4.25	0.50	1.25	0.50	0.75	0.75	0.50	0.75	0.75	0.00	0.00	-0.159668	0.040039	0.964355	-2.800000	6.860000	-1.470000	408.00	-0.20	-0.09	3.00	5.00	4.25	6.75	4.25	3.25	1.25	1.75	0.75	0.50	0.75	0.50	2.00	1.25	0.25	0.00	-0.120117	0.059082	0.994141	-3.430000	-3.220000	2.100000	385.00	-0.16	-0.09
1.15	3.50	6.00	5.25	7.75	5.00	4.25	0.50	1.25	0.50	0.50	1.00	0.50	0.75	0.75	0.00	0.00	-0.166504	0.039551	0.962402	-3.220000	7.420000	-1.610000	403.00	-0.20	-0.09	3.00	4.75	4.50	6.75	4.25	3.25	1.25	1.75	1.25	0.75	1.00	0.75	1.75	1.25	0.00	0.00	-0.118164	0.054199	0.985352	-3.500000	-3.290000	2.100000	395.00	-0.15	-0.08
1.16	3.50	6.00	5.50	7.50	5.00	4.00	0.50	1.25	0.50	0.50	1.00	0.50	0.75	0.75	0.00	0.00	-0.166504	0.039551	0.964844	-3.220000	7.630000	-1.610000	400.00	-0.20	-0.09	3.00	5.00	4.00	7.00	4.50	3.00	1.25	1.75	1.00	0.75	1.00	0.75	1.75	1.00	0.00	0.00	-0.114258	0.053711	0.986816	-3.570000	-3.360000	2.030000	389.00	-0.15	-0.09
1.17	3.50	5.75	5.50	7.50	5.25	4.00	0.50	1.25	0.50	0.50	1.00	0.75	1.00	0.75	0.00	0.00	-0.163574	0.036621	0.962402	-3.430000	7.910000	-1.610000	406.00	-0.19	-0.09	3.00	4.75	4.25	6.75	4.50	3.25	1.25	1.75	1.25	1.00	0.75	0.75	1.75	1.00	0.00	0.00	-0.118652	0.056641	0.983887	-3.500000	-3.500000	2.030000	393.00	-0.15	-0.08
1.18	3.50	5.75	5.50	7.50	5.00	4.25	0.50	1.25	0.75	0.75	1.00	0.50	0.75	0.75	0.00	0.00	-0.165527	0.040039	0.967285	-3.640000	8.330000	-1.750000	407.00	-0.19	-0.08	3.00	5.00	4.50	6.75	4.50	3.25	1.25	1.75	1.00	0.75	1.00	0.50	1.75	1.25	0.00	0.00	-0.118164	0.055664	0.985352	-3.430000	-3.570000	2.030000	394.00	-0.15	-0.08
1.19	3.25	5.75	5.25	7.50	5.00	3.75	0.50	1.25	0.75	0.50	0.75	0.50	0.75	0.50	0.00	0.00	-0.160156	0.039551	0.968262	-3.640000	8.680000	-1.750000	389.00	-0.20	-0.09	3.00	5.00	4.25	7.00	4.50	3.50	1.25	1.75	1.00	0.75	0.75	0.75	2.25	1.25	0.25	0.25	-0.108887	0.051270	0.981934	-3.570000	-3.710000	1.960000	405.00	-0.15	-0.09
1.20	3.25	5.75	5.25	7.25	4.75	3.75	0.50	1.25	0.75	0.50	0.75	0.50	1.00	0.75	0.00	0.00	-0.163086	0.039551	0.967773	-3.710000	8.890000	-1.750000	387.00	-0.20	-0.09	3.00	4.50	4.75	6.75	4.75	3.75	1.25	2.00	1.00	0.75	1.00	1.00	1.75	1.25	0.00	0.25	-0.121582	0.055664	0.983887	-3.780000	-3.430000	1.890000	411.00	-0.14	-0.09
1.21	3.00	5.75	5.00	7.25	5.00	3.75	0.50	1.25	0.75	0.75	1.00	0.25	0.75	1.00	0.00	0.00	-0.164551	0.038086	0.968262	-3.850000	9.380000	-1.890000	387.00	-0.19	-0.08	3.25	5.00	4.50	7.00	4.75	3.50	1.25	2.00	1.25	0.75	1.00	0.75	2.00	1.25	0.00	0.00	-0.116211	0.056152	0.987793	-3.710000	-3.570000	1.820000	417.00	-0.15	-0.09
1.22	3.00	5.50	5.00	7.00	4.75	3.75	0.50	1.00	0.75	0.75	1.00	0.50	1.00	1.00	0.00	0.00	-0.165527	0.032227	0.965332	-3.850000	9.940000	-2.100000	381.00	-0.18	-0.08	3.25	5.00	4.75	7.00	4.75	3.75	1.25	2.00	1.25	1.00	1.00	0.75	2.00	1.25	0.00	0.00	-0.117188	0.052734	0.988281	-3.360000	-3.430000	1.960000	425.00	-0.15	-0.09
1.23	2.75	5.25	4.75	6.75	4.50	3.50	0.50	1.00	0.75	0.75	0.75	0.50	0.75	0.75	0.00	0.00	-0.164551	0.036621	0.965332	-3.990000	10.220000	-2.100000	358.00	-0.19	-0.08	3.25	5.00	4.75	7.00	5.00	3.75	1.25	2.00	1.25	0.75	1.25	0.75	1.75	1.50	0.25	0.00	-0.118652	0.053223	0.985840	-3.010000	-3.290000	2.170000	430.00	-0.14	-0.08
1.24	2.75	5.25	4.75	6.75	4.50	3.25	0.50	1.25	1.25	0.75	1.25	1.00	0.75	1.00	0.00	0.00	-0.163574	0.031738	0.960938	-3.710000	11.060000	-2.170000	378.00	-0.16	-0.08	3.00	5.00	4.75	7.25	5.00	4.00	1.25	2.25	1.25	1.00	1.00	1.00	2.25	1.25	0.00	0.25	-0.116699	0.056152	0.988770	-2.940000	-3.430000	2.240000	440.00	-0.14	-0.09
1.25	2.50	5.00	4.25	6.25	4.50	3.00	0.50	1.00	0.75	0.75	1.00	0.50	0.75	1.00	0.00	0.00	-0.170410	0.037598	0.964844	-3.780000	11.480000	-2.310000	341.00	-0.18	-0.08	3.00	5.25	4.75	7.00	5.00	4.00	1.25	2.00	1.25	1.00	1.25	0.75	2.00	1.25	0.00	0.25	-0.121094	0.060059	0.989258	-2.730000	-3.500000	2.170000	434.00	-0.14	-0.09
1.26	2.25	4.50	4.25	6.25	4.50	2.75	0.50	1.00	0.75	0.50	1.00	0.50	1.00	1.00	0.00	0.00	-0.169922	0.034180	0.965332	-3.710000	12.110000	-2.520000	331.00	-0.17	-0.08	3.25	5.25	4.75	7.50	5.00	4.00	1.25	2.25	1.25	1.00	1.25	1.00	2.00	1.25	0.50	0.50	-0.118652	0.052734	0.985352	-2.590000	-3.640000	2.240000	455.00	-0.14	-0.09
1.27	2.25	4.75	4.00	6.00	4.00	2.50	0.50	1.00	0.75	1.00	1.00	0.25	1.00	1.00	0.00	0.00	-0.165527	0.040527	0.964844	-3.500000	12.600000	-2.800000	322.00	-0.17	-0.08	3.50	5.25	5.00	7.50	5.25	4.25	1.25	2.50	1.50	1.00	0.75	0.75	2.25	1.25	0.00	0.00	-0.125488	0.053223	0.982422	-2.590000	-3.990000	2.310000	459.00	-0.15	-0.09
1.28	1.75	4.25	3.75	5.75	4.00	2.25	0.50	1.00	0.75	1.00	1.25	0.75	1.00	1.25	0.00	0.00	-0.157715	0.029785	0.958984	-3.360000	13.440001	-3.010000	314.00	-0.15	-0.08	3.50	5.00	5.25	7.50	5.25	4.25	1.25	2.50	1.25	1.00	1.25	1.00	2.25	1.25	0.00	0.25	-0.126953	0.050781	0.986328	-2.590000	-4.410000	2.450000	466.00	-0.14	-0.09
1.29	2.00	4.00	3.50	5.25	3.50	2.00	0.50	1.00	1.00	0.75	1.25	0.50	0.75	1.25	0.00	0.00	-0.171387	0.031250	0.965332	-3.080000	14.420000	-3.290000	294.00	-0.15	-0.07	3.50	5.25	5.25	7.75	5.25	4.25	1.50	2.50	1.75	0.75	1.00	1.00	2.50	1.50	0.00	0.25	-0.120605	0.050293	0.989746	-2.590000	-5.110000	2.590000	480.00	-0.14	-0.09
1.30	1.50	3.25	3.50	5.25	3.50	1.75	0.50	0.75	1.25	1.00	1.25	0.50	0.75	1.25	0.00	0.00	-0.156250	0.037109	0.973145	-2.870000	15.330000	-3.640000	281.00	-0.13	-0.06	3.75	5.50	5.25	8.00	5.50	4.75	1.50	2.50	1.25	1.00	1.25	1.00	2.25	1.25	0.25	0.25	-0.121582	0.055664	0.985352	-2.590000	-5.670000	2.660000	493.00	-0.14	-0.09
1.31	1.25	3.25	3.00	4.50	3.25	1.75	0.50	0.75	1.25	1.00	1.00	0.50	1.00	1.00	0.00	0.00	-0.166992	0.034668	0.968262	-2.660000	16.170000	-3.780000	259.00	-0.13	-0.07	3.75	5.75	5.75	8.00	5.50	5.00	1.50	2.75	1.50	1.25	1.00	1.00	2.25	1.25	0.25	0.25	-0.120605	0.054688	0.985840	-2.520000	-6.300000	2.520000	511.00	-0.14	-0.09
1.32	1.00	3.00	2.75	4.25	3.00	1.50	0.50	0.75	1.25	1.00	1.25	0.75	1.00	1.25	0.00	0.00	-0.155762	0.037109	0.971191	-2.170000	17.360001	-4.550000	251.00	-0.10	-0.07	4.00	5.75	5.75	8.50	5.75	5.00	1.50	3.00	1.25	1.25	1.50	1.00	2.50	1.50	0.00	0.25	-0.125977	0.056152	0.985352	-2.520000	-7.070000	2.590000	529.00	-0.14	-0.10
1.33	1.25	2.50	2.25	3.75	2.75	1.00	0.50	0.75	1.25	1.00	1.25	1.00	0.75	1.25	0.00	0.00	-0.162109	0.016602	0.960938	-1.540000	19.530001	-5.530000	230.00	-0.09	-0.06	4.50	6.25	6.25	8.50	6.00	5.50	1.50	3.00	1.75	1.25	1.25	1.00	2.50	1.50	0.00	0.00	-0.122070	0.051758	0.992188	-2.450000	-7.630000	2.730000	555.00	-0.15	-0.09
1.34	0.75	2.50	2.00	3.50	2.25	0.75	0.50	0.75	1.50	1.00	1.50	0.75	1.25	1.75	0.25	0.00	-0.122559	0.005859	0.975098	0.770000	23.170000	-8.330000	225.00	-0.05	-0.06	4.50	6.75	6.75	8.75	6.00	5.50	1.50	3.00	1.50	1.25	1.00	1.00	2.75	1.50	0.00	0.25	-0.124023	0.056641	0.992676	-2.590000	-8.260000	2.730000	566.00	-0.15	-0.09
1.35	0.75	1.75	1.75	3.00	2.00	0.75	0.50	0.75	1.25	1.00	1.25	0.75	1.00	1.50	0.00	0.00	-0.152344	0.045898	0.998535	3.640000	28.420000	-11.060000	195.00	-0.05	-0.06	5.00	7.25	7.00	9.00	6.25	6.00	1.75	3.00	1.75	1.25	1.25	1.00	2.75	1.25	0.00	0.00	-0.117676	0.057129	0.986816	-2.520000	-8.680000	2.800000	595.00	-0.15	-0.09
1.36	0.75	1.50	1.25	2.50	1.75	0.50	0.50	0.50	1.50	1.00	1.50	1.00	1.25	1.50	0.00	0.25	-0.147949	0.037598	1.017090	9.730000	41.930000	-12.180000	184.00	-0.01	-0.05	5.50	7.50	7.25	9.25	6.50	6.25	1.50	3.50	1.75	1.25	1.25	0.75	2.50	1.50	0.00	0.25	-0.110352	0.055664	0.990723	-2.590000	-8.960000	2.730000	616.00	-0.16	-0.09
1.37	0.50	1.50	1.25	2.50	1.50	0.50	0.25	0.50	1.25	1.25	1.25	0.75	1.00	1.50	0.00	0.00	-0.153809	0.035156	1.083008	13.650000	62.860001	-13.580000	165.00	-0.02	-0.06	6.00	8.25	7.25	9.75	6.75	6.75	1.75	3.50	1.50	1.00	1.25	1.00	2.75	1.50	0.00	0.50	-0.113281	0.056152	0.996094	-2.590000	-9.100000	2.870000	646.00	-0.16	-0.09
1.38	0.50	0.75	0.75	2.75	1.50	0.25	0.25	0.50	1.25	1.25	1.50	0.75	1.25	1.25	0.25	0.00	-0.164551	0.054688	1.096680	17.850000	92.330002	-15.680000	158.00	0.01	-0.07	6.50	8.75	7.75	9.75	7.00	7.00	1.75	3.50	1.75	1.00	1.00	0.75	2.50	1.25	0.50	0.25	-0.106445	0.059570	0.992188	-2.660000	-9.170000	2.800000	665.00	-0.17	-0.09
1.39	0.50	0.50	0.75	2.00	1.25	0.00	0.25	0.25	1.50	0.75	1.25	1.00	1.00	1.25	0.00	0.00	-0.140625	0.066895	1.217285	19.809999	119.000000	-18.270000	132.00	0.03	-0.04	7.00	9.25	8.00	10.00	7.00	7.00	1.75	3.75	1.75	1.25	1.25	1.00	2.50	1.50	0.25	0.25	-0.111328	0.055664	0.996094	-2.660000	-9.170000	2.730000	691.00	-0.17	-0.09
1.40	0.25	0.50	0.50	1.75	1.00	0.00	0.00	0.25	1.25	0.75	1.25	0.75	1.00	1.00	0.00	0.00	-0.195312	0.070801	1.243164	24.780001	143.500000	-22.469999	109.00	0.04	-0.06	7.50	9.50	8.25	10.00	7.50	7.50	1.75	3.75	1.50	1.25	1.00	1.25	2.50	1.75	0.25	0.25	-0.108887	0.055176	0.990234	-2.450000	-9.030000	2.870000	711.00	-0.17	-0.09
1.41	0.75	0.75	0.50	1.75	1.00	0.00	0.00	0.00	1.00	0.75	1.25	0.50	0.75	1.00	0.00	0.00	-0.165039	0.109375	1.168945	27.650000	170.100006	-26.880001	105.00	-0.00	-0.04	8.00	10.00	8.25	10.50	7.50	7.75	1.75	3.75	1.50	1.25	1.25	1.00	2.50	1.75	0.25	0.25	-0.106445	0.053223	0.988281	-2.170000	-8.820000	2.940000	729.00	-0.17	-0.09
1.42	0.00	0.50	0.50	1.25	0.75	0.00	0.00	0.00	0.50	1.00	1.25	0.50	0.75	1.25	0.00	0.00	-0.239258	0.107910	1.255859	26.530001	191.869995	-31.500000	85.00	0.06	-0.05	8.50	10.50	8.50	10.75	7.50	8.25	1.75	4.00	1.75	1.25	1.25	1.00	2.75	1.25	0.00	0.25	-0.099609	0.055176	0.990723	-1.960000	-8.470000	2.940000	752.00	-0.18	-0.09
1.43	0.25	0.50	0.25	1.75	0.75	0.00	0.00	0.00	0.50	0.75	1.00	0.50	0.50	1.00	0.00	0.00	-0.252930	0.173340	1.266113	20.299999	209.229996	-36.750000	80.00	0.01	-0.06	8.75	10.75	8.50	11.00	7.75	8.25	1.75	4.00	1.75	1.00	1.00	1.00	2.50	1.50	0.00	0.00	-0.101562	0.061035	0.985352	-1.820000	-8.050000	2.870000	756.00	-0.18	-0.09
1.44	0.00	0.25	0.50	1.50	0.50	0.00	0.00	0.00	0.50	0.50	0.75	0.50	0.00	0.75	0.00	0.00	-0.252930	0.163574	1.306152	19.950001	223.930008	-44.939999	61.00	0.01	-0.04	8.75	11.00	9.00	11.25	7.75	8.25	1.75	4.00	1.75	1.50	1.00	1.00	2.50	1.25	0.25	0.00	-0.098633	0.058105	0.991699	-1.680000	-7.560000	2.730000	772.00	-0.18	-0.09
1.45	0.25	0.25	0.25	1.75	0.75	0.00	0.00	0.00	0.25	0.25	0.50	0.50	0.00	0.00	0.00	0.00	-0.316406	0.341309	1.222656	28.280001	236.460007	-66.360001	52.00	-0.11	-0.09	9.25	11.75	9.00	11.25	7.75	8.50	2.00	4.00	1.50	1.25	1.25	1.00	2.75	1.25	0.00	0.25	-0.097656	0.053223	0.987793	-1.400000	-6.930000	2.660000	789.00	-0.19	-0.09
1.46	0.25	0.75	0.50	1.25	0.50	0.00	0.00	0.00	0.00	0.00	0.25	0.00	0.00	0.25	0.00	0.00	-0.245117	0.128906	1.428223	42.070000	229.669998	-78.050003	39.00	0.00	0.00	9.50	11.75	9.25	11.25	8.00	8.50	1.75	4.25	1.75	1.00	1.25	1.00	2.75	1.50	0.00	0.25	-0.092285	0.057617	0.984375	-1.190000	-6.160000	2.590000	800.00	-0.19	-0.09
1.47	0.00	0.75	0.50	1.75	0.75	0.00	0.00	0.00	0.25	0.00	0.00	0.00	0.00	0.00	0.00	0.00	0.292969	0.236816	1.489746	42.560001	216.580002	-84.629997	43.00	0.00	0.00	9.50	11.75	9.00	11.50	8.00	8.50	1.75	4.75	1.75	1.25	1.25	1.00	2.50	1.25	0.00	0.25	-0.092773	0.051758	0.990723	-0.980000	-4.970000	2.450000	805.00	-0.18	-0.09
1.48	0.00	1.00	0.25	1.50	0.75	0.00	0.00	0.00	0.00	0.00	0.00	0.00	0.00	0.00	0.00	0.00	0.613770	0.285156	2.033203	21.910000	169.750000	-87.709999	37.00	0.00	0.00	9.50	12.00	9.25	11.50	8.25	8.75	1.75	4.75	1.25	1.25	1.00	1.00	2.75	1.75	0.00	0.25	-0.100098	0.064453	0.992676	-0.910000	-4.060000	2.310000	813.00	-0.19	-0.09
1.49	0.00	0.50	0.25	1.25	0.75	0.00	0.00	0.00	0.00	0.00	0.00	0.00	0.00	0.00	0.00	0.00	1.015625	0.452148	2.353027	12.810000	93.309998	-75.459999	29.00	0.00	0.00	9.50	12.00	9.50	11.50	8.25	8.75	2.00	4.75	1.50	1.00	1.25	1.00	2.75	1.75	0.00	0.00	-0.093750	0.057617	0.984863	-0.770000	-3.220000	2.310000	822.00	-0.18	-0.09
1.50	0.00	0.50	0.25	1.25	0.75	0.00	0.00	0.00	0.00	0.00	0.25	0.00	0.00	0.00	0.00	0.00	1.062988	0.501953	1.531250	15.610000	21.980000	-58.939999	32.00	0.00	0.00	9.50	11.75	9.25	11.50	8.00	9.00	1.75	5.00	1.75	1.50	1.25	1.00	3.00	1.25	0.00	0.00	-0.094238	0.059082	0.989746	-0.770000	-2.100000	2.030000	823.00	-0.18	-0.10
1.51	0.00	0.50	0.50	1.00	0.50	0.00	0.00	0.00	0.25	0.00	0.00	0.00	0.00	0.00	0.00	0.00	0.953613	0.458984	0.869629	26.740000	-11.200000	-44.029999	30.00	0.00	0.00	9.25	11.75	9.25	11.50	8.25	9.00	2.00	5.00	2.00	1.25	1.00	1.25	3.25	1.25	0.00	0.25	-0.093750	0.060059	0.991211	-0.980000	-0.840000	1.820000	831.00	-0.18	-0.10
1.52	0.00	0.75	0.50	1.25	0.50	0.00	0.00	0.00	0.00	0.00	0.00	0.00	0.00	0.00	0.00	0.00	0.921875	0.397949	0.723145	36.540001	-16.030001	-31.780001	32.00	0.00	0.00	9.00	11.50	9.00	11.25	8.25	8.75	2.00	5.25	1.75	1.25	1.50	1.00	3.00	1.50	0.00	0.25	-0.096191	0.061035	0.989746	-1.260000	0.070000	1.680000	821.00	-0.17	-0.10
1.53	0.25	0.25	0.50	1.50	0.50	0.00	0.00	0.00	0.00	0.00	0.00	0.00	0.00	0.00	0.00	0.00	0.960938	0.370117	0.966797	41.860001	-20.580000	-20.370001	32.00	0.00	0.00	8.75	11.25	9.00	11.25	8.00	8.75	1.75	5.25	1.75	1.25	1.50	1.25	3.25	1.75	0.00	0.25	-0.100098	0.057129	0.990723	-1.610000	0.630000	1.540000	817.00	-0.17	-0.10
1.54	0.25	0.75	0.00	1.25	0.75	0.00	0.00	0.00	0.25	0.00	0.25	0.00	0.00	0.00	0.00	0.00	1.015625	0.304688	1.127441	46.340000	-38.709999	-7.070000	37.00	0.00	0.00	8.50	11.25	9.00	11.25	8.00	8.75	2.00	5.25	1.75	1.50	1.25	1.00	3.25	1.50	0.25	0.25	-0.096680	0.059570	0.986328	-2.030000	1.190000	1.330000	816.00	-0.17	-0.10
1.55	0.00	0.75	0.00	1.25	1.00	0.00	0.00	0.00	0.00	0.00	0.25	0.00	0.00	0.00	0.00	0.00	0.989258	0.204102	1.111328	50.820000	-63.560001	6.370000	34.00	0.00	0.00	8.25	10.75	8.50	11.00	8.00	8.75	2.00	5.25	1.75	1.25	1.50	1.25	3.50	1.75	0.00	0.25	-0.101562	0.059570	0.990723	-2.240000	1.470000	1.330000	804.00	-0.16	-0.10
1.56	0.00	0.50	0.00	1.00	0.75	0.00	0.00	0.00	0.00	0.00	0.25	0.00	0.25	0.00	0.00	0.00	0.907227	0.104004	1.055664	53.410000	-85.050003	18.620001	29.00	0.00	0.00	8.00	10.00	8.75	10.75	8.00	8.75	2.00	5.50	2.00	1.50	1.50	1.25	3.50	1.75	0.00	0.25	-0.104492	0.057129	0.993652	-2.100000	1.820000	1.120000	805.00	-0.16	-0.10
1.57	0.25	0.50	0.25	1.00	0.50	0.00	0.00	0.00	0.00	0.00	0.25	0.25	0.00	0.00	0.00	0.00	0.807129	0.007324	1.065430	52.779999	-101.849998	29.330000	32.00	0.00	0.00	7.75	10.25	8.75	10.75	8.00	8.75	2.00	5.50	2.00	1.50	1.50	1.50	3.50	1.75	0.00	0.50	-0.104492	0.057129	0.993652	-2.100000	1.820000	1.120000	808.00	-0.16	-0.10
1.58	0.00	1.00	0.25	0.75	0.50	0.00	0.00	0.00	0.00	0.00	0.00	0.00	0.00	0.00	0.00	0.00	0.696289	-0.062988	1.107422	49.490002	-116.620003	38.500000	26.00	0.00	0.00	7.50	9.50	8.50	10.50	8.00	8.50	2.00	5.75	2.25	1.75	1.75	1.50	3.75	1.50	0.25	0.25	-0.113281	0.059570	0.985840	-2.170000	1.820000	1.120000	804.00	-0.15	-0.10
1.59	0.25	0.75	0.25	0.75	0.75	0.00	0.00	0.00	0.00	0.00	0.25	0.00	0.00	0.00	0.00	0.00	0.580078	-0.129395	1.161621	44.590000	-129.990005	45.360001	31.00	0.00	0.00	7.00	9.50	8.50	10.50	8.00	8.75	2.25	6.00	2.00	2.00	1.75	1.50	3.75	1.75	0.00	0.50	-0.110352	0.059082	0.984863	-2.100000	1.540000	1.120000	810.00	-0.14	-0.10
1.60	0.00	0.00	0.00	1.00	0.50	0.00	0.00	0.00	0.00	0.00	0.00	0.00	0.00	0.00	0.00	0.00	0.457520	-0.185059	1.228027	38.709999	-142.589996	49.209999	16.00	0.00	0.00	7.00	8.75	8.25	10.25	8.00	8.75	2.25	6.00	2.25	1.75	1.75	1.75	4.00	2.00	0.25	0.50	-0.103027	0.054199	0.984375	-1.960000	1.190000	1.050000	807.00	-0.13	-0.10
1.61	0.00	0.50	0.00	0.75	0.75	0.00	0.00	0.00	0.00	0.00	0.00	0.00	0.00	0.00	0.00	0.00	0.328125	-0.224121	1.286621	32.130001	-154.000000	49.840000	21.00	0.00	0.00	6.75	8.75	8.25	10.00	8.00	8.50	2.25	6.00	2.25	1.75	2.00	1.75	4.25	2.00	0.25	0.50	-0.108398	0.055176	0.986328	-1.820000	1.330000	1.050000	804.00	-0.13	-0.10
1.62	0.00	0.25	0.25	0.75	0.50	0.00	0.00	0.00	0.00	0.00	0.00	0.00	0.00	0.00	0.00	0.00	0.201172	-0.244629	1.325195	24.150000	-163.869995	47.810001	19.00	0.00	0.00	6.25	8.50	8.00	10.00	8.00	8.50	2.25	6.25	2.50	2.00	2.00	1.75	4.75	2.25	0.25	0.50	-0.106934	0.057617	0.986816	-1.960000	1.680000	0.980000	810.00	-0.12	-0.11
1.63	0.00	0.75	0.00	0.75	0.50	0.00	0.00	0.00	0.00	0.00	0.00	0.00	0.00	0.00	0.00	0.00	0.061523	-0.233398	1.357422	15.400000	-172.899994	43.820000	21.00	0.00	0.00	6.25	8.25	8.00	9.75	8.00	8.50	2.25	6.50	2.50	2.00	2.00	1.75	4.50	2.25	0.00	0.50	-0.106934	0.058105	0.986328	-2.030000	2.170000	0.910000	804.00	-0.12	-0.11
1.64	0.00	0.25	0.25	0.75	0.50	0.00	0.00	0.00	0.00	0.00	0.00	0.00	0.00	0.00	0.00	0.00	-0.072754	-0.211426	1.358398	7.490000	-180.320007	38.080002	19.00	0.00	0.00	5.75	7.75	7.75	9.50	8.00	8.50	2.50	6.50	3.00	2.00	2.25	2.25	5.00	2.00	0.25	0.50	-0.112793	0.056641	0.987305	-1.960000	2.730000	0.560000	812.00	-0.11	-0.11
1.65	0.25	0.25	0.25	1.00	0.50	0.00	0.00	0.00	0.00	0.00	0.00	0.00	0.00	0.00	0.00	0.00	-0.307129	-0.125488	1.315430	-1.330000	-187.740005	22.120001	24.00	0.00	0.00	5.50	7.50	7.50	9.50	8.25	8.50	2.50	6.75	3.25	2.50	2.50	2.00	5.00	2.25	0.25	0.75	-0.107422	0.058594	0.986816	-1.960000	3.150000	0.420000	823.00	-0.10	-0.10
1.66	0.00	0.25	0.25	0.75	0.50	0.00	0.00	0.00	0.00	0.00	0.50	0.00	0.00	0.00	0.00	0.00	-0.396973	-0.065430	1.309082	-2.730000	-188.089996	13.300000	24.00	0.00	0.00	5.25	7.00	7.50	9.25	8.25	8.50	2.50	7.00	3.50	2.75	2.50	2.50	5.25	2.50	0.25	0.75	-0.104004	0.064453	0.980469	-1.960000	3.710000	0.350000	832.00	-0.09	-0.11
1.67	0.00	0.25	0.25	0.75	0.50	0.00	0.00	0.00	0.00	0.00	0.00	0.00	0.00	0.00	0.00	0.00	-0.475098	-0.005859	1.303711	-3.220000	-187.250000	5.390000	19.00	0.00	0.00	4.75	6.75	7.25	8.75	8.00	8.25	2.75	7.00	3.50	2.75	2.75	2.50	5.25	2.50	0.50	0.50	-0.115723	0.057617	0.994629	-2.100000	4.340000	0.140000	818.00	-0.08	-0.10
1.68	0.00	0.25	0.00	1.00	0.50	0.00	0.00	0.00	0.00	0.00	0.00	0.00	0.00	0.00	0.00	0.00	-0.556641	0.044922	1.263672	-3.500000	-185.009995	-1.610000	19.00	0.00	0.00	4.00	6.00	6.75	8.50	8.00	8.50	2.75	7.25	3.75	3.00	3.00	2.25	5.50	3.00	0.25	0.50	-0.112793	0.056641	0.992676	-1.960000	5.180000	-0.000000	811.00	-0.07	-0.11
1.69	0.00	0.25	0.25	0.75	0.50	0.00	0.00	0.00	0.00	0.00	0.00	0.00	0.00	0.00	0.00	0.00	-0.627441	0.081543	1.203613	-3.150000	-180.600006	-7.560000	19.00	0.00	0.00	3.50	5.75	6.25	8.25	8.00	8.50	3.00	7.50	4.25	3.50	3.25	3.25	6.00	3.50	0.50	0.75	-0.107910	0.065430	0.989746	-1.890000	6.370000	-0.140000	841.00	-0.05	-0.11
1.70	0.00	0.25	0.25	1.00	0.50	0.00	0.00	0.00	0.00	0.00	0.25	0.00	0.00	0.00	0.00	0.00	-0.687500	0.106934	1.164551	-1.820000	-173.949997	-13.160000	24.00	0.00	0.00	3.25	5.25	5.75	8.00	8.00	8.25	3.00	7.50	4.50	3.50	3.75	3.00	6.50	3.75	0.50	1.00	-0.121094	0.048828	0.994141	-1.610000	7.630000	-0.350000	836.00	-0.04	-0.11
1.71	0.00	0.25	0.00	0.75	0.75	0.00	0.00	0.00	0.00	0.00	0.25	0.00	0.00	0.00	0.00	0.00	-0.758789	0.117188	1.124512	-1.120000	-166.320007	-18.480000	21.00	0.00	0.00	2.75	5.00	5.25	7.50	7.75	8.25	3.25	7.50	5.50	3.75	4.00	3.25	6.75	4.25	0.50	1.00	-0.120117	0.062988	0.998535	-1.330000	9.100000	-0.560000	846.00	-0.02	-0.10
1.72	0.00	0.50	0.00	1.25	0.75	0.00	0.00	0.00	0.00	0.00	0.00	0.00	0.00	0.00	0.00	0.00	-0.877441	0.133301	1.064941	-1.050000	-156.940002	-22.120001	27.00	0.00	0.00	2.50	4.00	5.00	7.00	7.75	8.25	3.50	7.75	5.75	4.50	4.25	3.75	7.25	5.00	0.50	1.00	-0.120605	0.059570	0.991211	-1.120000	10.710000	-0.840000	863.00	-0.00	-0.10
1.73	0.00	0.50	0.00	0.75	0.50	0.00	0.00	0.00	0.00	0.00	0.00	0.00	0.00	0.00	0.00	0.00	-1.014160	0.144043	0.962402	-1.680000	-144.759995	-23.450001	18.00	0.00	0.00	2.25	3.75	4.50	6.50	7.50	8.00	3.50	7.75	6.50	5.25	5.50	4.00	7.75	5.50	0.75	1.25	-0.125000	0.061523	0.995605	-1.120000	12.390000	-0.980000	888.00	0.02	-0.10
1.74	0.00	0.00	0.00	0.75	0.50	0.00	0.00	0.00	0.00	0.00	0.25	0.00	0.00	0.00	0.00	0.00	-1.144531	0.147949	0.870605	-4.760000	-129.289993	-23.030001	16.00	0.00	0.00	1.50	3.25	3.50	5.75	7.00	7.75	3.75	7.75	6.75	6.00	6.50	4.75	8.00	6.25	0.75	1.25	-0.116699	0.060547	0.996094	-1.050000	14.210000	-1.330000	890.00	0.04	-0.09
1.75	0.00	0.50	0.25	0.75	0.50	0.00	0.00	0.00	0.00	0.00	0.25	0.00	0.00	0.00	0.00	0.00	-1.285645	0.156738	0.842285	-10.360000	-111.650002	-22.260000	24.00	0.00	0.00	1.50	2.50	3.25	5.50	6.75	7.50	3.75	7.75	7.50	7.50	7.50	5.00	8.25	6.75	1.00	1.50	-0.146484	0.072754	1.002930	-0.980000	16.870001	-2.030000	921.00	0.06	-0.09
1.76	0.00	0.50	0.00	0.50	0.25	0.00	0.00	0.00	0.00	0.00	0.00	0.00	0.00	0.00	0.00	0.00	-1.426758	0.167480	0.803711	-16.660000	-94.989998	-21.770000	13.00	0.00	0.00	1.50	2.50	2.50	5.00	6.25	7.25	3.75	7.75	7.75	7.75	7.75	5.75	8.50	7.25	0.75	1.75	-0.123535	0.090332	1.051758	-0.840000	19.530001	-2.940000	920.00	0.07	-0.09
1.77	0.00	0.25	0.00	0.75	0.50	0.00	0.00	0.00	0.00	0.00	0.00	0.00	0.00	0.00	0.00	0.00	-1.567871	0.183594	0.694336	-21.070000	-79.519997	-21.280001	16.00	0.00	0.00	1.00	2.50	2.25	5.00	5.75	7.00	4.00	7.75	8.25	8.50	8.50	7.00	8.75	7.75	0.75	2.00	-0.078613	0.040527	1.017090	-0.490000	22.680000	-3.220000	951.00	0.08	-0.09
1.78	0.25	0.25	0.00	0.75	0.50	0.00	0.00	0.00	0.00	0.00	0.00	0.00	0.00	0.00	0.00	0.00	-1.686035	0.198730	0.529297	-21.280001	-62.090000	-19.950001	19.00	0.00	0.00	1.00	2.00	1.75	4.25	5.00	6.25	4.00	7.75	8.75	8.75	9.00	7.50	9.00	8.50	1.00	2.00	-0.072754	0.001953	1.036621	0.490000	26.670000	-4.410000	947.00	0.10	-0.09
1.79	0.25	0.50	0.00	0.75	0.50	0.00	0.00	0.00	0.00	0.00	0.25	0.00	0.00	0.00	0.00	0.00	-1.789062	0.196777	0.411621	-19.389999	-39.900002	-15.610000	24.00	0.00	0.00	1.00	1.75	1.50	3.50	4.25	5.75	4.00	7.75	9.25	9.50	9.50	8.00	9.25	8.75	1.25	2.50	-0.119629	0.049316	1.043945	1.610000	36.680000	-6.790000	955.00	0.12	-0.08
1.80	0.00	0.50	0.25	0.75	0.50	0.00	0.00	0.00	0.00	0.00	0.25	0.00	0.00	0.00	0.00	0.00	-1.845215	0.184570	0.385742	-22.960001	-14.490000	-8.190000	24.00	0.00	0.00	0.50	1.00	1.25	2.75	3.50	5.25	3.75	7.50	9.75	9.75	10.00	8.50	9.50	9.50	1.00	2.75	-0.155762	0.051758	1.006836	3.360000	44.310001	-8.120000	937.00	0.14	-0.08
1.81	0.00	0.25	0.00	1.00	0.50	0.00	0.00	0.00	0.00	0.00	0.25	0.00	0.00	0.00	0.00	0.00	-1.858887	0.172852	0.421875	-34.230000	9.660000	1.050000	21.00	0.00	0.00	0.50	1.50	1.00	2.50	3.00	4.75	3.75	7.50	10.50	10.25	10.50	8.75	9.50	10.50	1.50	3.00	-0.155762	0.067383	1.042480	3.430000	53.830002	-9.170000	963.00	0.15	-0.08
1.82	0.00	0.50	0.00	0.75	0.50	0.00	0.00	0.00	0.00	0.00	0.00	0.00	0.00	0.00	0.00	0.00	-1.838379	0.139160	0.399902	-49.560001	31.639999	10.290000	18.00	0.00	0.00	0.50	1.25	1.00	2.00	2.50	4.00	3.50	7.00	11.00	10.75	11.00	9.00	9.50	11.50	1.75	3.25	-0.219727	0.055176	1.009766	4.620000	65.239998	-9.660000	963.00	0.16	-0.07
1.83	0.25	0.50	0.00	1.25	0.50	0.00	0.00	0.00	0.00	0.00	0.25	0.00	0.00	0.00	0.00	0.00	-1.775879	0.131836	0.367188	-58.869999	51.730000	16.870001	29.00	0.00	0.00	0.25	1.00	0.50	1.75	1.75	3.00	3.25	6.50	11.50	11.25	11.50	9.25	9.50	12.25	1.75	4.00	-0.155273	0.076172	1.117676	7.070000	77.209999	-8.890000	949.00	0.18	-0.06
1.84	0.25	0.75	0.50	1.25	0.75	0.00	0.00	0.00	0.00	0.00	0.00	0.00	0.00	0.00	0.00	0.00	-2.932129	-0.282227	0.019531	-73.919998	72.800003	21.490000	37.00	0.00	0.00	0.00	0.75	0.25	1.50	1.75	2.25	3.00	6.25	12.00	11.75	11.75	9.50	9.50	13.50	2.25	4.75	-0.226074	0.103027	1.026367	8.610000	89.250000	-8.120000	960.00	0.19	-0.06
1.85	0.75	1.50	0.75	1.50	0.75	0.00	0.00	0.00	0.00	0.00	0.00	0.00	0.00	0.00	0.00	0.00	-0.623047	0.158203	0.103027	-93.099998	132.509995	5.600000	55.00	-0.31	-0.07	0.50	1.00	0.25	1.25	1.25	1.75	2.75	5.75	12.50	12.00	12.25	9.75	9.50	14.50	2.25	5.25	-0.225098	0.084473	1.112305	10.010000	104.370003	-8.680000	971.00	0.20	-0.05
1.86	1.00	1.75	1.00	2.25	0.75	0.00	0.00	0.00	0.00	0.00	0.00	0.00	0.00	0.00	0.00	0.00	0.173828	0.021484	1.182129	-49.910000	88.059998	31.570000	71.00	-0.31	-0.08	0.00	0.50	0.00	1.00	1.00	1.50	2.50	5.25	12.75	12.25	12.50	10.00	9.25	15.50	2.75	5.50	-0.270508	0.071777	1.189453	12.180000	120.050003	-8.960000	962.00	0.22	-0.05
1.87	1.50	3.00	1.50	2.75	1.00	0.00	0.00	0.00	0.00	0.00	0.00	0.00	0.00	0.00	0.00	0.00	-0.081543	-0.687500	0.231934	-24.710001	99.120003	32.549999	101.00	-0.32	-0.07	0.00	0.75	0.00	0.75	0.75	1.00	2.00	4.50	12.75	12.50	12.75	10.25	9.25	16.75	2.75	5.75	-0.250000	0.080078	1.146484	15.330000	136.360001	-7.420000	955.00	0.23	-0.04
1.88	2.50	4.25	1.75	3.50	1.00	0.00	0.00	0.00	0.00	0.00	0.00	0.00	0.00	0.00	0.00	0.00	-0.099121	-0.590332	1.404297	-11.830000	140.490005	8.960000	134.00	-0.33	-0.07	0.25	0.00	0.00	0.50	0.75	1.00	1.75	3.75	12.75	12.50	12.75	10.00	8.75	17.50	3.00	6.00	-0.330078	0.125977	1.026855	19.180000	153.369995	-6.790000	936.00	0.24	-0.04
1.89	3.25	5.00	2.50	4.50	1.25	0.00	0.00	0.00	0.00	0.00	0.00	0.00	0.00	0.00	0.00	0.00	-0.321289	0.033691	1.316895	12.810000	136.639999	-8.820000	171.00	-0.33	-0.07	0.00	0.25	0.00	0.50	0.25	0.50	1.25	2.75	12.25	12.50	13.00	10.00	8.50	18.75	3.25	6.25	-0.264648	0.082031	1.135742	21.629999	168.839996	-8.120000	910.00	0.25	-0.03
1.90	3.75	6.50	2.75	4.75	1.25	0.00	0.00	0.00	0.00	0.00	0.00	0.00	0.00	0.00	0.00	0.00	-0.355469	0.482422	1.376465	20.370001	131.039993	-8.330000	195.00	-0.34	-0.07	0.00	0.00	0.00	0.00	0.25	0.25	1.00	2.00	12.00	12.25	12.75	10.00	8.25	19.25	3.50	6.25	-0.345215	0.141113	1.208496	18.620001	189.419998	-9.590000	881.00	0.26	-0.02
1.91	4.00	7.00	3.25	5.25	1.75	0.00	0.00	0.00	0.00	0.00	0.00	0.00	0.00	0.00	0.00	0.00	-0.344238	0.291016	1.454102	9.030000	119.629997	5.600000	219.00	-0.33	-0.07	0.00	0.00	0.00	0.25	0.25	0.25	0.75	1.00	11.75	12.25	12.50	10.00	7.75	20.25	4.00	6.25	-0.399414	0.116211	1.166016	12.320000	207.410004	-12.180000	868.00	0.27	-0.02
1.92	4.25	7.50	3.75	5.75	2.00	0.25	0.00	0.00	0.00	0.00	0.00	0.00	0.00	0.00	0.00	0.00	-0.295898	-0.123047	1.373535	-3.640000	96.599998	10.570000	243.00	-0.33	-0.07	0.00	0.00	0.00	0.00	0.25	0.00	0.50	0.75	11.25	12.00	12.25	9.75	7.25	21.00	3.75	6.25	-0.443359	0.143066	1.178711	6.370000	226.100006	-16.379999	840.00	0.27	-0.01
1.93	5.00	8.25	4.00	6.50	2.50	0.75	0.25	0.00	0.25	0.00	0.00	0.00	0.00	0.00	0.00	0.00	-0.305664	-0.081055	1.369629	-6.440000	70.349998	2.870000	286.00	-0.31	-0.06	0.00	0.00	0.00	0.00	0.25	0.00	0.50	0.25	10.75	11.50	12.00	9.25	6.50	21.25	4.50	6.00	-0.452148	0.121582	1.203613	-1.680000	245.419998	-20.020000	815.00	0.28	-0.01
1.94	5.75	8.75	4.75	7.50	2.75	1.00	0.25	0.00	0.50	0.25	0.25	0.00	0.25	0.00	0.00	0.00	-0.288086	0.078613	1.248047	-12.530000	42.490002	0.140000	334.00	-0.29	-0.06	0.00	0.25	0.00	0.00	0.25	0.00	0.25	0.25	10.00	11.25	11.75	9.00	6.00	21.50	4.25	5.75	-0.376953	0.141602	1.462402	-7.350000	266.700012	-24.010000	790.00	0.28	-0.01
1.95	5.75	9.50	5.75	8.25	3.25	1.50	0.50	0.00	0.50	0.50	0.50	0.00	0.00	0.00	0.00	0.00	-0.243164	0.084961	1.138184	-18.059999	19.950001	1.470000	378.00	-0.28	-0.06	0.00	0.00	0.00	0.00	0.25	0.00	0.00	0.00	9.25	10.75	11.00	8.50	5.25	21.50	4.25	5.25	-0.478516	0.208008	1.106934	-15.330000	284.899994	-28.000000	742.00	0.29	-0.00
1.96	6.75	10.00	6.50	8.75	4.00	2.00	0.50	0.25	0.75	0.50	0.50	0.00	0.25	0.00	0.00	0.00	-0.215820	0.043457	1.058105	-16.030001	5.040000	0.490000	430.00	-0.27	-0.06	0.00	0.00	0.00	0.00	0.25	0.00	0.00	0.00	8.25	10.00	10.50	8.00	4.50	20.75	4.00	4.50	-0.667480	0.369141	1.348145	-13.860000	298.690002	-36.400002	691.00	0.29	0.00
1.97	7.25	10.75	7.00	9.50	4.75	2.50	0.75	0.50	0.75	0.50	0.50	0.00	0.25	0.25	0.00	0.00	-0.200684	0.059082	0.999512	-10.850000	-1.680000	-0.490000	479.00	-0.26	-0.06	0.00	0.00	0.00	0.00	0.00	0.00	0.00	0.00	7.50	9.25	9.75	7.25	3.50	19.75	3.75	3.75	-0.643555	0.287109	1.538574	-16.450001	314.929993	-48.090000	631.00	0.29	0.01
1.98	7.50	11.50	7.75	9.75	5.00	3.00	0.75	0.50	0.75	0.75	0.75	0.25	0.50	0.25	0.00	0.00	-0.177246	0.039062	0.983887	-6.300000	-2.800000	-0.280000	518.00	-0.25	-0.06	0.00	0.00	0.00	0.00	0.25	0.00	0.00	0.00	6.50	8.50	8.75	6.25	3.00	18.25	3.25	2.75	-0.641602	0.391113	1.555176	-14.630000	330.959991	-56.420002	564.00	0.29	0.01
1.99	8.00	12.75	8.00	10.25	5.75	3.75	0.75	0.75	1.25	0.75	0.75	0.25	0.50	0.25	0.00	0.00	-0.160156	0.039062	0.972656	-2.870000	-2.100000	0.000000	570.00	-0.25	-0.06	0.00	0.00	0.00	0.00	0.00	0.25	0.00	0.00	5.25	7.75	7.75	5.00	1.75	16.00	2.50	2.00	-0.974121	0.496094	1.638184	-6.580000	363.160004	-68.040001	475.00	0.29	0.02
2.00	8.50	13.50	8.50	11.25	6.00	4.25	0.75	1.00	1.00	0.50	0.75	0.50	0.75	0.50	0.00	0.00	-0.155762	0.043457	0.973633	-0.700000	-1.610000	0.490000	611.00	-0.25	-0.07	0.00	0.50	0.00	0.00	0.00	0.00	0.00	0.00	4.00	6.00	6.25	3.75	1.50	13.25	1.75	1.25	-0.836426	0.597656	1.823730	37.170002	376.950012	-75.879997	375.00	0.29	0.02
2.01	9.00	13.75	8.50	11.75	6.25	4.75	0.75	1.00	0.75	0.75	0.75	0.25	0.75	0.50	0.00	0.00	-0.152832	0.038574	0.969238	0.070000	-1.120000	0.490000	629.00	-0.25	-0.07	0.00	0.00	0.00	0.00	0.00	0.50	0.00	0.00	3.00	4.75	4.50	2.75	1.50	10.00	1.25	1.00	-0.789551	0.405273	1.834961	87.570000	383.670013	-88.760002	287.00	0.29	0.02
2.02	9.50	15.00	9.00	12.25	6.50	5.75	0.75	1.25	1.25	1.00	1.00	0.50	0.75	0.50	0.00	0.00	-0.154297	0.041504	0.963379	0.420000	-0.420000	0.350000	689.00	-0.24	-0.07	0.00	0.00	0.00	0.00	0.00	0.25	0.25	0.00	2.00	3.50	3.25	2.00	1.00	7.50	0.75	0.50	-0.586426	0.133301	1.769531	104.440002	389.619995	-100.379997	207.00	0.29	0.03
2.03	9.75	15.25	9.25	12.75	6.75	6.00	0.75	1.50	1.25	0.75	1.00	0.50	1.00	0.75	0.00	0.00	-0.139648	0.038086	0.968750	0.770000	0.140000	0.490000	713.00	-0.24	-0.08	0.00	0.00	0.00	0.00	0.25	0.25	0.25	0.00	1.25	2.75	2.25	1.50	0.75	5.25	0.50	0.25	-0.591309	0.237793	1.873047	86.730003	392.350006	-116.410004	151.00	0.27	0.02
2.04	11.25	15.25	9.00	13.25	7.00	6.50	1.00	1.50	1.25	0.75	1.00	0.75	0.75	0.75	0.00	0.00	-0.137695	0.042969	0.966309	1.960000	2.100000	0.840000	744.00	-0.24	-0.07	0.00	0.00	0.00	0.00	0.25	0.25	0.25	0.00	1.25	2.00	1.50	1.25	0.50	2.75	0.25	0.25	-0.319336	0.331543	2.031738	75.110001	385.910004	-135.309998	107.00	0.25	0.02
2.05	9.75	16.25	9.75	13.50	7.25	7.25	1.00	1.75	1.25	1.00	1.00	0.50	1.00	0.50	0.00	0.00	-0.137695	0.042969	0.966309	1.960000	2.100000	0.840000	763.00	-0.24	-0.08	0.00	0.00	0.00	0.00	0.25	0.25	0.50	0.00	0.75	1.50	1.00	1.00	0.75	1.75	0.00	0.25	0.304688	0.340820	0.987793	56.279999	377.790009	-155.820007	82.00	0.22	-0.00
2.06	9.75	16.00	9.50	14.00	7.50	7.75	1.00	2.00	1.25	1.00	1.25	0.75	1.00	0.75	0.00	0.00	-0.133789	0.048828	0.959473	2.030000	3.010000	0.980000	783.00	-0.23	-0.08	0.25	0.00	0.00	0.00	0.25	0.50	0.50	0.00	0.75	1.50	1.00	0.75	0.75	1.25	0.00	0.00	0.051270	0.951660	3.089844	31.290001	297.920013	-152.389999	79.00	0.18	-0.00
2.07	9.75	15.75	9.50	14.00	7.50	7.75	1.00	2.25	1.25	1.00	1.25	0.50	1.25	1.00	0.00	0.00	-0.132324	0.052734	0.964355	1.680000	4.760000	0.560000	786.00	-0.23	-0.09	0.00	0.00	0.00	0.25	0.25	0.25	0.50	0.00	1.00	1.50	1.00	0.75	0.00	0.75	0.00	0.00	0.476562	1.233887	3.933105	49.420002	106.400002	-116.480003	69.00	0.19	0.04
2.08	10.25	15.50	9.50	13.75	7.50	8.00	1.00	2.25	1.50	1.25	1.00	0.75	1.50	1.00	0.00	0.25	-0.135254	0.065430	0.970215	0.840000	6.580000	-0.280000	798.00	-0.22	-0.08	0.00	0.00	0.00	0.00	0.25	0.25	0.50	0.00	0.50	1.00	1.00	0.00	0.50	0.75	0.00	0.00	0.886230	0.764160	2.752930	45.920002	-65.239998	-66.220001	51.00	0.19	0.03
2.09	9.50	15.75	9.50	13.75	7.75	8.50	1.25	2.50	1.50	1.00	1.50	1.00	1.50	0.75	0.00	0.00	-0.137207	0.056152	0.961426	0.280000	6.790000	-0.700000	810.00	-0.22	-0.09	0.00	0.00	0.00	0.00	0.25	0.25	0.50	0.00	0.50	0.75	0.50	0.25	0.75	0.75	0.00	0.00	0.571777	0.606934	1.541016	9.940000	-151.059998	-22.610001	48.00	0.00	0.00
2.10	9.25	15.00	9.50	13.50	7.75	8.50	1.25	2.75	1.75	1.25	1.50	1.00	1.25	1.00	0.00	0.00	-0.137695	0.051270	0.963379	-0.210000	7.210000	-1.330000	808.00	-0.21	-0.09	0.00	0.00	0.00	0.00	0.25	0.25	0.50	0.00	0.50	0.50	0.50	0.25	0.25	0.25	0.00	0.25	0.371582	0.543945	0.857422	-26.250000	-167.720001	10.710000	38.00	0.00	0.00
2.11	9.00	14.75	9.50	13.50	8.00	8.50	1.25	3.00	2.00	1.50	1.50	1.00	1.50	1.00	0.00	0.00	-0.137695	0.054199	0.971680	-0.630000	8.120000	-1.750000	817.00	-0.20	-0.09	0.00	0.00	0.00	0.00	0.50	0.25	0.50	0.00	0.00	0.50	0.50	0.00	0.25	0.50	0.00	0.00	0.363281	0.547852	0.614746	-39.689999	-157.360001	31.710001	33.00	0.00	0.00
2.12	8.75	14.25	9.50	13.25	8.00	9.00	1.25	3.50	2.25	1.25	1.50	1.00	1.50	1.50	0.00	0.00	-0.145996	0.043457	0.973145	-0.420000	9.100000	-2.030000	826.00	-0.20	-0.09	0.00	0.50	0.00	0.00	0.50	0.50	0.50	0.00	0.25	0.50	0.50	0.00	0.25	0.50	0.00	0.00	0.362305	0.517578	0.638672	-32.060001	-147.350006	45.150002	43.00	0.00	0.00
2.13	8.50	13.75	9.25	13.00	8.25	8.75	1.25	3.75	2.00	1.50	1.75	1.25	1.75	1.50	0.00	0.00	-0.144043	0.041504	0.971680	0.280000	9.450000	-2.030000	823.00	-0.19	-0.09	0.00	0.00	0.00	0.00	0.25	0.50	0.50	0.00	0.00	0.25	0.25	0.25	0.50	0.00	0.00	0.00	0.396973	0.455566	0.776855	-17.360001	-150.430008	55.580002	28.00	0.00	0.00
2.14	8.00	13.00	9.00	12.75	8.00	9.00	1.50	4.00	2.75	1.50	1.75	1.25	1.75	1.50	0.00	0.25	-0.146484	0.044922	0.975098	0.840000	9.730000	-1.890000	825.00	-0.18	-0.09	0.00	0.00	0.00	0.00	0.25	0.50	0.50	0.00	0.25	0.25	0.25	0.00	0.25	0.25	0.00	0.00	0.403320	0.383301	0.883301	-6.930000	-166.110001	64.959999	29.00	0.00	0.00
2.15	7.50	12.50	8.75	12.50	8.25	9.00	1.75	4.25	2.50	1.50	2.00	1.25	2.00	1.50	0.00	0.25	-0.144531	0.044434	0.968750	1.540000	10.080000	-1.960000	821.00	-0.17	-0.09	0.00	0.00	0.00	0.00	0.50	0.25	0.50	0.00	0.00	0.25	0.25	0.00	0.25	0.25	0.00	0.00	0.374023	0.312988	0.963379	-6.440000	-188.089996	73.639999	25.00	0.00	0.00
2.16	7.25	11.50	8.75	12.00	8.00	9.00	1.50	5.00	2.50	1.75	2.00	1.50	2.25	1.75	0.00	0.25	-0.140137	0.044922	0.963867	2.520000	10.010000	-1.820000	818.00	-0.16	-0.10	0.00	0.00	0.00	0.00	0.25	0.25	0.50	0.00	0.25	0.25	0.00	0.25	0.50	0.25	0.00	0.00	0.339844	0.273926	0.989258	-13.370000	-210.419998	81.900002	28.00	0.00	0.00
2.17	7.00	11.00	8.50	11.50	8.00	9.00	1.50	5.25	2.75	1.75	2.00	1.50	2.25	1.50	0.00	0.25	-0.143066	0.047363	0.964355	3.220000	10.220000	-1.750000	808.00	-0.16	-0.10	0.00	0.00	0.00	0.25	0.25	0.25	0.50	0.00	0.25	0.00	0.00	0.00	0.25	0.25	0.00	0.00	0.301270	0.277832	1.024902	-21.559999	-231.279999	89.180000	23.00	0.00	0.00
2.18	6.75	10.00	8.50	11.25	8.25	9.25	1.75	5.25	2.75	2.00	2.25	1.50	2.50	1.50	0.00	0.00	-0.146484	0.048340	0.964355	3.710000	10.570000	-1.820000	808.00	-0.15	-0.10	0.00	0.00	0.00	0.25	0.25	0.25	0.50	0.00	0.25	0.25	0.00	0.00	0.00	0.25	0.00	0.00	0.139160	0.301270	1.072266	-24.080000	-250.669998	95.340004	24.00	0.00	0.00
2.19	6.25	9.25	8.00	10.75	8.00	9.25	1.75	5.75	3.25	2.00	2.25	1.50	2.75	1.75	0.25	0.25	-0.151367	0.058594	0.974609	3.780000	11.130000	-1.960000	805.00	-0.13	-0.10	0.00	0.00	0.00	0.00	0.25	0.50	0.50	0.00	0.00	0.00	0.00	0.00	0.50	0.25	0.00	0.00	0.019043	0.302734	1.019531	-11.620000	-284.829987	106.400002	22.00	0.00	0.00
2.20	5.75	8.75	8.00	10.50	8.00	9.25	1.75	5.75	3.00	2.00	2.50	1.50	3.00	1.75	0.25	0.25	-0.143555	0.058105	0.962891	3.570000	10.920000	-2.170000	794.00	-0.13	-0.10	0.00	0.00	0.00	0.00	0.00	0.50	0.50	0.00	0.00	0.00	0.00	0.00	0.00	0.25	0.00	0.00	-0.088867	0.256348	0.964844	-4.480000	-292.880005	112.139999	15.00	0.00	0.00
2.21	5.25	8.50	7.50	10.00	8.00	9.25	1.75	6.00	3.00	2.25	2.75	2.00	3.00	1.50	0.25	0.50	-0.145020	0.050293	0.963867	3.220000	11.060000	-2.660000	789.00	-0.12	-0.11	0.00	0.00	0.00	0.75	0.25	0.25	0.50	0.00	0.25	0.00	0.00	0.00	0.25	0.25	0.00	0.00	-0.218262	0.208008	0.968262	-0.630000	-295.329987	118.580002	29.00	0.00	0.00
2.22	5.00	7.50	7.50	9.50	8.00	9.25	1.75	6.00	3.50	2.25	2.75	2.00	3.25	2.25	0.25	0.25	-0.140137	0.057129	0.967285	2.730000	11.690000	-2.940000	785.00	-0.11	-0.10	0.00	0.00	0.00	0.50	0.25	0.25	0.50	0.00	0.00	0.00	0.00	0.00	0.50	0.00	0.00	0.00	-0.358398	0.151855	1.010742	-0.000000	-296.380005	125.580002	23.00	0.00	0.00
2.23	4.50	7.25	7.00	9.00	8.00	9.50	1.75	6.25	3.50	2.75	2.75	2.00	3.50	1.75	0.25	0.25	-0.147949	0.056152	0.966309	2.380000	12.250000	-3.290000	777.00	-0.10	-0.11	0.00	0.00	0.00	0.00	0.25	0.00	0.50	0.00	0.25	0.00	0.00	0.00	0.25	0.25	0.00	0.00	-0.413574	0.097168	1.062012	-2.240000	-296.380005	130.410004	18.00	0.00	0.00
2.24	4.00	6.50	7.00	8.75	7.75	9.50	1.75	6.50	3.75	2.50	3.00	2.25	4.00	2.25	0.50	0.25	-0.137695	0.056152	0.961426	2.170000	12.670000	-3.570000	780.00	-0.09	-0.11	0.25	0.25	0.00	0.25	0.50	0.25	0.50	0.00	0.25	0.00	0.00	0.00	0.25	0.25	0.00	0.00	-0.445801	0.036621	1.157715	-4.480000	-294.420013	130.899994	31.00	0.00	0.00
2.25	4.00	6.00	6.50	8.25	7.75	9.25	2.00	6.50	4.00	3.00	3.25	2.50	4.50	2.25	0.50	0.50	-0.139160	0.056152	0.961914	2.310000	13.510000	-3.850000	785.00	-0.07	-0.11	0.00	0.00	0.00	0.00	0.25	0.25	0.50	0.00	0.00	0.00	0.00	0.00	0.00	0.50	0.00	0.00	-0.555176	0.051270	1.270996	-6.790000	-293.440002	127.820000	17.00	0.00	0.00
2.26	3.50	5.75	5.75	8.00	7.75	9.25	2.25	6.75	4.00	3.00	3.50	2.75	5.00	2.50	0.25	0.50	-0.145996	0.052246	0.958496	2.380000	14.350000	-4.200000	783.00	-0.06	-0.11	0.00	0.00	0.00	0.00	0.25	0.25	0.50	0.00	0.00	0.00	0.00	0.00	0.00	0.25	0.00	0.00	-0.577148	-0.059570	1.392090	-18.129999	-294.209991	121.099998	15.00	0.00	0.00
2.27	3.25	5.25	5.50	7.50	7.75	9.25	2.25	7.00	4.75	3.25	3.50	2.75	5.25	2.50	0.25	0.50	-0.150391	0.056641	0.967285	2.660000	15.120000	-4.480000	786.00	-0.05	-0.11	0.00	0.00	0.25	0.00	0.25	0.50	0.50	0.00	0.00	0.00	0.00	0.00	0.25	0.00	0.00	0.00	-0.646484	-0.007812	1.450684	-31.080000	-295.540009	111.020004	21.00	0.00	0.00
2.28	2.75	5.00	5.50	7.00	7.75	9.25	2.25	7.25	5.25	3.50	4.00	3.00	5.50	3.25	0.50	0.75	-0.157715	0.055664	0.967285	2.870000	15.680000	-4.480000	806.00	-0.03	-0.11	0.00	0.00	0.00	0.00	0.25	0.25	0.50	0.00	0.25	0.00	0.00	0.00	0.50	0.00	0.00	0.00	-0.693359	0.014160	1.536621	-39.830002	-295.329987	100.660004	21.00	0.00	0.00
2.29	2.50	4.25	5.00	6.50	7.50	9.00	2.50	7.25	5.50	3.75	4.00	3.50	5.75	3.50	0.50	0.75	-0.156738	0.053711	0.960938	2.940000	16.870001	-4.690000	799.00	-0.02	-0.10	0.00	0.00	0.00	0.00	0.25	0.50	0.50	0.00	0.00	0.00	0.00	0.00	0.00	0.00	0.00	0.00	-0.745605	0.047363	1.603027	-43.400002	-293.440002	90.300003	16.00	0.00	0.00
2.30	2.00	4.00	4.50	6.00	7.50	9.00	2.50	7.50	5.75	4.25	5.00	4.00	6.25	3.50	0.50	0.75	-0.161133	0.072266	0.964355	2.940000	17.850000	-5.110000	813.00	-0.00	-0.11	0.00	0.00	0.00	0.00	0.25	0.25	0.50	0.00	0.25	0.00	0.00	0.00	0.25	0.00	0.00	0.00	-0.788574	0.087402	1.660156	-41.439999	-289.029999	78.959999	18.00	0.00	0.00
2.31	2.00	3.75	4.00	5.75	7.25	8.75	2.50	7.50	6.00	4.50	5.25	4.25	6.50	3.75	0.75	0.75	-0.154785	0.064453	0.962891	2.870000	19.670000	-5.460000	815.00	0.01	-0.11	0.00	0.00	0.00	0.00	0.25	0.25	0.25	0.00	0.00	0.00	0.00	0.00	0.00	0.25	0.00	0.00	-0.823242	0.100098	1.739258	-36.470001	-283.290009	65.800003	11.00	0.00	0.00
2.32	1.50	3.25	3.50	5.50	7.00	8.50	2.75	7.75	6.75	5.00	6.25	5.00	6.75	4.25	0.75	1.00	-0.162598	0.067383	0.965820	2.870000	21.700001	-6.020000	840.00	0.03	-0.11	0.00	0.00	0.00	0.00	0.25	0.75	0.50	0.00	0.50	0.00	0.00	0.00	0.25	0.25	0.00	0.00	-0.858398	0.069336	1.815918	-32.340000	-277.269989	51.799999	29.00	0.00	0.00
2.33	1.50	2.75	3.25	5.00	6.75	8.25	2.75	7.75	7.25	6.25	6.75	5.25	7.00	5.00	0.75	1.00	-0.155762	0.063477	0.981445	2.870000	24.010000	-6.930000	858.00	0.04	-0.10	0.00	0.00	0.00	0.25	0.00	0.25	0.50	0.00	0.00	0.00	0.00	0.00	0.00	0.25	0.00	0.00	-0.903809	0.051270	1.872070	-32.060001	-272.230011	37.380001	15.00	0.00	0.00
2.34	1.50	2.50	2.50	5.00	6.50	8.00	2.75	7.75	7.75	6.25	7.50	5.75	7.50	5.25	1.00	1.25	-0.156250	0.070801	0.966309	3.150000	26.600000	-7.910000	872.00	0.06	-0.10	0.00	0.00	0.00	0.25	0.25	0.25	0.50	0.00	0.00	0.00	0.00	0.00	0.00	0.00	0.00	0.00	-0.961914	0.076660	1.879883	-32.480000	-267.049988	22.750000	16.00	0.00	0.00
2.35	1.25	2.50	2.25	4.75	6.00	7.75	2.75	7.75	8.25	7.25	8.00	6.75	7.75	5.50	1.00	1.50	-0.165039	0.078613	0.968262	3.920000	29.400000	-8.890000	894.00	0.07	-0.10	0.00	0.00	0.00	0.00	0.25	0.25	0.25	0.00	0.00	0.00	0.00	0.00	0.00	0.25	0.00	0.00	-1.078125	0.158691	1.922852	-27.719999	-261.730011	8.190000	11.00	0.00	0.00
2.36	0.75	2.50	2.00	4.25	5.50	7.25	3.00	7.75	8.75	8.00	8.50	7.25	8.00	6.25	1.25	1.50	-0.189453	0.076172	0.976074	4.340000	32.480000	-10.220000	910.00	0.09	-0.10	0.00	0.00	0.00	0.00	0.25	0.50	0.50	0.00	0.00	0.00	0.00	0.00	0.25	0.00	0.00	0.00	-1.230469	0.249512	1.942383	-16.240000	-258.160004	-5.390000	18.00	0.00	0.00
2.37	0.75	1.75	1.75	3.75	5.00	6.75	3.00	7.50	9.25	8.50	9.00	7.75	8.25	7.00	1.25	1.75	-0.155273	0.063477	0.969727	5.110000	36.119999	-11.620000	912.00	0.10	-0.09	0.00	0.00	0.00	0.00	0.25	0.25	0.50	0.00	0.25	0.00	0.00	0.00	0.00	0.25	0.00	0.00	-1.423340	0.337891	2.000977	-3.430000	-257.600006	-16.450001	18.00	0.00	0.00
2.38	1.00	1.50	1.50	3.50	4.50	6.50	3.00	7.50	9.50	8.75	9.50	8.25	8.75	7.75	1.25	2.00	-0.160156	0.046387	0.952637	8.120000	40.950001	-13.230000	927.00	0.11	-0.09	0.00	0.00	0.00	0.00	0.25	0.50	0.50	0.00	0.25	0.25	0.00	0.00	0.00	0.00	0.00	0.00	-1.795898	0.441406	1.833496	4.690000	-267.329987	-24.360001	22.00	0.00	0.00
2.39	0.75	1.25	1.00	3.00	4.00	5.75	3.00	7.50	10.00	9.25	10.25	8.50	9.00	8.50	1.50	2.25	-0.187012	0.081543	0.995117	9.730000	47.459999	-14.560000	932.00	0.13	-0.09	0.00	0.00	0.00	0.25	0.25	0.50	0.50	0.00	0.25	0.25	0.00	0.00	0.00	0.00	0.00	0.00	-1.969238	0.508301	1.455566	6.720000	-265.579987	-17.500000	24.00	0.00	0.00
2.40	0.75	1.00	1.00	2.75	3.50	5.25	2.75	7.50	10.25	9.50	10.75	9.00	9.25	9.00	1.75	2.50	-0.227051	0.084961	1.000000	11.970000	54.110001	-16.309999	939.00	0.14	-0.09	0.00	0.00	0.00	0.00	0.25	0.25	0.25	0.00	0.00	0.00	0.00	0.00	0.00	0.25	0.00	0.00	-2.261719	0.451660	1.022949	22.049999	-251.790009	-3.710000	11.00	0.00	0.00
2.41	0.50	0.75	1.00	2.75	2.75	5.00	2.75	7.25	10.75	10.00	11.50	9.50	9.50	9.75	2.00	3.00	-0.207520	0.069336	1.031250	13.370000	64.400002	-16.240000	958.00	0.15	-0.08	0.00	0.00	0.00	0.00	0.25	0.25	0.25	0.00	0.25	0.00	0.00	0.00	0.00	0.00	0.00	0.00	-2.974121	0.356445	0.552734	39.200001	-230.440002	5.040000	13.00	0.00	0.00
2.42	0.50	0.50	0.75	2.25	2.25	3.75	2.50	7.00	11.25	10.50	12.00	10.00	9.75	10.50	2.00	4.00	-0.239258	0.043945	1.036621	13.720000	76.090004	-14.910000	957.00	0.17	-0.08	0.00	0.00	0.00	0.00	0.25	0.25	0.50	0.00	0.00	0.00	0.00	0.00	0.00	0.00	0.00	0.00	-3.957031	0.272949	-0.089355	63.420002	-203.419998	6.860000	13.00	0.00	0.00
2.43	0.50	0.75	0.50	2.25	2.00	3.25	2.50	6.50	11.75	11.00	12.50	10.50	9.50	11.25	2.50	4.50	-0.196289	0.070801	1.008301	16.590000	88.550003	-13.370000	975.00	0.18	-0.07	0.00	0.00	0.00	0.00	0.50	0.25	0.50	0.00	0.25	0.00	0.00	0.00	0.25	0.00	0.00	0.00	-4.495605	-0.031738	-0.782715	92.400002	-158.690002	12.740000	21.00	0.00	0.00
2.44	0.00	0.25	0.00	2.00	1.50	2.25	2.00	6.50	11.75	11.00	13.25	10.75	9.75	12.00	2.25	4.75	-0.271973	0.062988	1.004883	22.820000	98.840004	-13.230000	951.00	0.20	-0.08	0.00	0.00	0.00	0.00	0.25	0.25	0.25	0.00	0.50	0.25	0.00	0.00	0.25	0.25	0.00	0.00	-4.388184	-0.289062	-1.122070	96.389999	-86.239998	25.969999	23.00	0.00	0.00
2.45	0.00	0.25	0.00	1.75	1.25	2.25	1.75	6.00	12.25	11.50	13.50	11.25	9.50	12.75	2.75	5.25	-0.262207	0.064941	1.064453	23.450001	111.580002	-11.760000	966.00	0.20	-0.07	0.00	0.00	0.00	0.25	0.25	0.00	0.25	0.00	0.25	0.00	0.00	0.00	0.00	0.00	0.00	0.00	-5.395508	-1.051758	-1.222168	51.660000	-4.970000	46.130001	13.00	0.00	0.00
2.46	0.00	0.25	0.25	1.25	1.25	1.25	1.50	5.50	12.50	11.75	13.75	11.25	9.50	13.75	3.00	5.50	-0.312988	0.067383	1.130371	25.830000	126.489998	-9.730000	962.00	0.21	-0.06	0.00	0.00	0.25	0.50	0.25	0.25	0.25	0.00	0.00	0.00	0.00	0.00	0.50	0.00	0.00	0.00	-3.287598	-0.880859	-1.192383	-87.639999	143.289993	58.240002	22.00	0.00	0.00
2.47	0.00	0.00	0.00	1.00	1.00	1.00	1.25	5.00	12.25	11.75	14.00	11.50	9.25	14.25	3.00	5.75	-0.301758	0.059570	1.133301	32.689999	143.430008	-7.910000	943.00	0.22	-0.06	0.25	1.00	0.25	1.25	0.50	0.00	0.25	0.00	0.00	0.00	0.00	0.00	0.25	0.00	0.00	0.00	-1.272949	0.398926	1.187988	-100.379997	234.220001	40.459999	40.00	0.00	0.00
2.48	0.00	0.00	0.00	0.75	0.75	1.00	1.00	4.75	12.50	12.00	14.25	11.50	9.00	15.00	3.50	5.75	-0.292969	0.065430	1.138672	33.320000	164.080002	-6.930000	948.00	0.23	-0.06	0.75	1.75	0.75	2.00	0.25	0.00	0.25	0.00	0.00	0.00	0.00	0.00	0.00	0.00	0.00	0.00	0.347168	-0.088379	2.777344	-76.720001	208.110001	49.349998	61.00	-0.30	-0.08
2.49	0.00	0.00	0.00	0.25	0.75	0.25	0.50	4.00	12.25	12.00	14.50	11.50	8.50	15.75	4.00	5.75	-0.367676	0.165527	1.040039	41.230000	176.820007	-11.690000	922.00	0.24	-0.05	2.50	3.50	1.75	3.00	0.25	0.00	0.50	0.00	0.00	0.00	0.00	0.00	0.00	0.00	0.00	0.00	0.922852	0.254883	1.694336	-103.599998	111.440002	53.970001	121.00	-0.32	-0.05
2.50	0.00	0.00	0.00	0.25	0.25	0.00	0.50	3.00	12.00	11.75	14.25	11.25	8.00	16.25	3.75	5.75	-0.427246	0.165039	1.253418	34.160000	235.690002	-18.830000	885.00	0.25	-0.04	6.00	7.75	2.75	4.50	0.75	0.00	0.50	0.00	0.00	0.00	0.00	0.00	0.50	0.00	0.00	0.00	0.060059	-0.830566	-0.010742	-67.900002	114.520004	47.880001	234.00	-0.33	-0.06
2.51	0.00	0.00	0.00	0.00	0.25	0.00	0.25	2.50	11.75	11.50	14.00	11.00	7.25	16.75	4.25	5.75	-0.528320	0.154297	1.278809	29.680000	260.049988	-23.379999	862.00	0.26	-0.04	9.25	10.25	3.75	6.00	0.75	0.00	0.50	0.00	0.00	0.00	0.00	0.00	0.25	0.00	0.00	0.00	-0.128906	-0.896484	1.264160	-23.590000	206.009995	30.590000	316.00	-0.34	-0.05
2.52	0.00	0.00	0.00	0.25	0.50	0.00	0.00	2.00	11.00	11.25	13.75	10.50	6.75	17.00	4.25	5.75	-0.603516	0.225098	1.347168	26.880001	285.390015	-28.700001	834.00	0.26	-0.04	12.75	13.25	6.50	8.25	1.00	0.00	0.50	0.00	0.00	0.00	0.00	0.25	0.50	0.00	0.00	0.00	-0.431641	-0.535156	2.208984	17.430000	222.740005	1.470000	442.00	-0.34	-0.05
2.53	0.00	0.00	0.00	0.00	0.25	0.00	0.00	1.25	10.25	10.25	13.25	10.00	6.25	16.50	4.25	5.25	-0.579590	0.145020	1.436035	20.510000	323.470001	-34.790001	775.00	0.27	-0.03	14.75	15.25	7.75	9.50	1.75	1.25	0.50	0.00	0.00	0.00	0.00	0.25	1.00	0.00	0.00	0.00	-0.585449	0.270020	1.941895	41.020000	193.199997	-22.049999	535.00	-0.33	-0.05
2.54	0.00	0.00	0.00	0.00	0.00	0.00	0.00	1.00	9.50	10.00	12.50	9.25	5.50	16.25	4.00	4.75	-0.738770	0.319336	1.491211	12.110000	352.799988	-39.480000	726.00	0.27	-0.03	16.50	16.00	8.75	10.50	2.50	2.00	0.50	0.50	0.25	0.00	0.00	0.50	0.75	0.25	0.00	0.00	-0.472656	0.666016	2.060547	36.259998	167.160004	-14.770000	612.00	-0.31	-0.05
2.55	0.00	0.00	0.00	0.00	0.25	0.00	0.00	1.00	8.25	9.00	11.50	8.50	4.50	15.25	3.75	3.75	-0.810547	0.440918	1.950684	27.230000	391.510010	-47.110001	658.00	0.27	-0.02	16.25	16.50	9.25	11.25	3.00	3.00	0.75	0.75	0.00	0.00	0.25	0.50	0.50	0.25	0.00	0.00	-0.496094	0.314453	2.008789	-16.379999	124.739998	1.680000	649.00	-0.31	-0.06
2.56	0.00	0.00	0.00	0.00	0.00	0.00	0.00	0.50	6.00	8.00	10.00	7.50	3.25	13.75	2.75	2.75	-0.898926	0.301270	2.269531	41.790001	417.200012	-54.180000	542.00	0.28	-0.02	16.25	16.25	9.75	11.50	4.00	4.00	0.75	0.75	0.25	0.00	0.50	0.50	1.00	0.25	0.00	0.00	-0.181641	-0.012695	1.246582	-37.450001	56.490002	5.740000	688.00	-0.29	-0.06
2.57	0.00	0.00	0.00	0.00	0.25	0.00	0.00	0.25	5.50	6.50	8.50	6.25	2.50	11.25	2.00	1.75	-0.850586	0.402832	2.461426	54.529999	452.899994	-55.650002	449.00	0.27	-0.01	16.00	16.25	9.75	12.00	4.50	5.00	0.75	1.25	0.50	0.50	0.50	0.25	1.25	0.00	0.00	0.00	-0.181641	-0.012695	1.246582	-37.450001	56.490002	5.740000	720.00	-0.28	-0.07
2.58	0.00	0.00	0.00	0.00	0.25	0.00	0.00	0.25	3.25	4.50	6.75	4.75	1.75	8.75	1.25	1.25	-0.955078	0.339844	2.398438	79.099998	466.339996	-54.389999	326.00	0.27	-0.02	15.75	16.25	10.00	12.25	5.00	5.25	1.00	1.50	0.25	0.75	0.50	0.50	1.25	0.25	0.00	0.00	-0.050293	0.085938	1.070312	-32.270000	39.480000	5.320000	743.00	-0.27	-0.07
2.59	0.00	0.00	0.00	0.00	0.25	0.00	0.00	0.00	2.50	3.00	5.00	3.25	1.50	6.00	0.75	0.75	-0.724609	0.384766	2.403320	120.959999	473.269989	-57.119999	229.00	0.27	-0.02	15.25	16.00	10.00	12.50	5.25	5.75	1.00	1.50	0.25	0.50	0.50	0.50	1.25	0.50	0.00	0.25	-0.154297	0.067383	1.048828	-19.530001	12.180000	5.950000	747.00	-0.27	-0.07
2.60	0.00	0.00	0.00	0.00	0.25	0.00	0.00	0.00	1.75	2.75	3.25	2.75	0.75	3.25	0.75	0.25	-0.538574	0.464355	2.481934	156.800003	472.570007	-67.059998	161.00	0.26	-0.02	15.00	16.50	10.25	12.75	5.50	6.25	1.00	2.00	1.00	0.50	0.75	0.25	1.50	0.50	0.00	0.00	-0.134766	0.070312	1.030762	-12.740000	5.110000	5.460000	781.00	-0.26	-0.07
2.61	0.00	0.00	0.00	0.00	0.50	0.00	0.00	0.00	1.25	2.25	2.50	2.00	0.75	2.00	0.25	0.25	-0.090332	0.386719	1.862793	178.360001	481.880005	-87.779999	120.00	0.24	-0.03	16.00	16.50	10.25	13.00	5.75	7.25	1.00	2.25	0.50	0.50	1.00	0.50	1.75	0.50	0.00	0.00	-0.106445	0.079102	0.989746	-11.130000	3.080000	4.620000	813.00	-0.26	-0.08
2.62	0.00	0.00	0.00	0.50	0.50	0.00	0.00	0.00	0.50	1.00	1.25	1.00	0.25	0.75	0.00	0.25	0.206543	0.171875	1.565918	167.089996	484.610016	-118.650002	61.00	0.17	-0.05	15.50	16.25	10.00	12.75	6.00	7.25	1.00	2.00	0.75	0.50	0.50	0.50	1.50	0.50	0.00	0.00	-0.110840	0.064453	1.017578	-10.780000	2.170000	3.570000	795.00	-0.26	-0.07
2.63	0.00	0.00	0.00	0.00	0.25	0.00	0.00	0.00	0.50	1.25	1.25	1.00	0.50	0.50	0.00	0.25	-0.529785	0.270508	0.729980	144.059998	499.170013	-154.210007	56.00	0.23	-0.06	15.50	16.25	10.25	13.00	6.00	7.50	1.25	2.75	0.50	0.50	0.75	0.75	1.75	0.75	0.00	0.00	-0.106934	0.062500	0.993164	-9.730000	1.610000	2.450000	824.00	-0.25	-0.08
2.64	0.00	0.25	0.00	0.00	0.50	0.00	0.00	0.00	0.50	1.00	1.50	1.00	0.25	0.50	0.00	0.00	-0.209473	0.602539	3.820801	82.949997	452.200012	-159.600006	57.00	0.18	-0.05	15.25	16.25	10.50	13.00	6.25	7.75	1.25	2.75	0.75	0.75	1.00	1.25	2.25	1.00	0.00	0.00	-0.097168	0.065430	0.979980	-9.170000	1.540000	1.540000	850.00	-0.24	-0.08
2.65	0.00	0.00	0.25	0.00	0.50	0.00	0.00	0.00	1.25	1.00	1.50	0.75	0.25	0.25	0.00	0.00	0.450195	0.773438	3.862305	20.580000	305.339996	-130.550003	63.00	0.19	0.02	14.75	15.75	10.50	12.75	6.50	8.00	1.25	3.00	0.75	1.00	1.00	1.00	2.00	1.00	0.00	0.25	-0.104492	0.060059	0.993652	-8.820000	2.030000	0.910000	846.00	-0.23	-0.08
2.66	0.00	0.00	0.00	0.00	0.50	0.00	0.00	0.00	0.25	1.00	1.25	0.50	0.00	0.00	0.00	0.00	1.110840	0.910156	3.610352	-57.119999	104.580002	-74.620003	38.00	0.00	0.00	14.50	15.50	10.25	13.00	6.50	8.25	1.25	3.00	1.00	1.25	1.00	1.25	2.50	1.00	0.00	0.25	-0.108398	0.054199	1.002441	-7.560000	2.450000	0.560000	857.00	-0.23	-0.08
2.67	0.00	0.00	0.00	0.00	0.50	0.00	0.00	0.00	0.50	0.75	1.00	0.50	0.25	0.00	0.00	0.00	0.870117	0.908691	2.732422	-101.639999	-68.040001	-14.490000	38.00	0.00	0.00	14.00	15.25	10.25	12.75	6.75	8.25	1.25	3.25	0.75	1.00	1.25	1.00	2.75	0.75	0.00	0.25	-0.109863	0.050781	0.996582	-5.250000	2.380000	0.490000	847.00	-0.23	-0.09
2.68	0.00	0.00	0.00	0.00	0.50	0.00	0.00	0.00	0.75	0.75	0.50	0.50	0.25	0.00	0.00	0.00	0.561035	0.541992	0.934082	-106.120003	-202.369995	39.410000	36.00	0.00	0.00	13.50	14.50	10.00	12.50	6.75	8.25	1.50	3.25	0.75	1.25	1.50	1.25	2.50	1.00	0.00	0.25	-0.099609	0.047363	0.988281	-3.150000	3.570000	0.700000	841.00	-0.22	-0.09
2.69	0.00	0.00	0.00	0.00	0.50	0.00	0.00	0.00	0.00	0.75	0.75	0.50	0.00	0.00	0.00	0.00	0.561035	0.541992	0.934082	-106.120003	-202.369995	39.410000	26.00	0.00	0.00	13.00	14.25	9.75	12.50	6.75	8.50	1.50	3.75	1.00	1.00	1.50	1.00	3.00	1.25	0.00	0.50	-0.104980	0.048340	0.996582	-1.120000	5.110000	1.330000	847.00	-0.21	-0.09
2.70	0.00	0.00	0.00	0.00	0.50	0.00	0.00	0.00	0.00	0.50	0.50	0.50	0.00	0.00	0.00	0.00	0.449707	0.463379	0.540527	-86.029999	-211.119995	37.590000	21.00	0.00	0.00	12.25	13.75	9.50	12.25	6.50	8.25	1.50	4.50	1.00	1.25	1.50	1.50	3.50	1.25	0.25	0.25	-0.110840	0.049805	0.987793	0.700000	6.090000	1.680000	849.00	-0.20	-0.10
2.71	0.00	0.00	0.00	0.00	0.50	0.00	0.00	0.00	0.00	0.50	0.50	0.50	0.00	0.00	0.00	0.00	0.330078	0.366211	0.473633	-45.360001	-207.270004	20.090000	21.00	0.00	0.00	11.50	12.75	9.50	12.00	6.50	8.25	1.50	4.25	1.25	1.25	1.75	1.50	3.25	1.25	0.00	0.25	-0.113770	0.060059	0.979980	1.750000	6.300000	1.960000	826.00	-0.19	-0.10
2.72	0.00	0.00	0.00	0.00	0.50	0.00	0.00	0.00	0.00	0.25	0.50	0.00	0.00	0.25	0.00	0.00	0.294434	0.312012	0.599609	-35.490002	-210.979996	15.960000	15.00	0.00	0.00	10.75	12.25	9.00	11.75	6.25	8.25	1.50	5.00	1.25	1.50	1.50	1.50	3.50	1.00	0.00	0.25	-0.103027	0.062012	0.982422	1.960000	6.090000	1.820000	814.00	-0.19	-0.10
2.73	0.00	0.00	0.00	0.00	0.50	0.00	0.00	0.00	0.00	0.25	0.25	0.00	0.00	0.00	0.00	0.00	0.250000	0.299805	0.780762	-37.730000	-221.479996	15.890000	11.00	0.00	0.00	10.00	11.75	9.00	11.50	6.25	8.25	1.50	5.25	1.25	1.25	1.75	2.00	3.50	1.25	0.00	0.25	-0.119629	0.065430	0.984375	1.540000	5.740000	1.330000	810.00	-0.18	-0.11
2.74	0.00	0.00	0.00	0.00	0.50	0.00	0.00	0.00	0.00	0.25	0.25	0.00	0.00	0.00	0.00	0.00	0.202637	0.324707	0.989258	-49.000000	-240.100006	19.950001	11.00	0.00	0.00	9.00	11.00	8.75	11.00	6.25	8.25	1.50	5.50	1.50	1.75	1.75	1.50	4.25	1.25	0.25	0.25	-0.115723	0.072754	0.975586	0.490000	5.040000	0.630000	801.00	-0.17	-0.11
2.75	0.00	0.00	0.00	0.00	0.50	0.00	0.00	0.00	0.00	0.00	0.50	0.00	0.00	0.00	0.00	0.00	0.154785	0.377930	1.127441	-62.439999	-266.209991	26.389999	11.00	0.00	0.00	8.75	10.25	8.50	11.00	6.25	8.25	1.75	5.75	1.50	1.75	2.00	1.75	4.25	1.25	0.25	0.50	-0.113281	0.067383	0.980957	-0.560000	4.340000	0.070000	803.00	-0.16	-0.11
2.76	0.00	0.00	0.00	0.00	0.25	0.00	0.00	0.00	0.00	0.00	0.50	0.00	0.00	0.00	0.00	0.00	0.053711	0.447266	1.165527	-70.139999	-294.489990	35.070000	8.00	0.00	0.00	8.25	9.50	8.25	10.50	6.25	8.25	1.75	6.00	1.75	1.75	2.00	2.25	4.50	1.50	0.00	0.50	-0.118652	0.066406	0.985840	-1.050000	3.990000	-0.490000	797.00	-0.15	-0.11
2.77	0.00	0.00	0.00	0.00	0.50	0.00	0.00	0.00	0.00	0.00	0.00	0.00	0.00	0.00	0.00	0.00	-0.054199	0.541992	1.135742	-68.389999	-320.040009	43.119999	5.00	0.00	0.00	7.75	9.00	8.25	10.25	6.25	8.25	1.75	6.25	1.75	2.00	2.25	2.00	5.00	1.25	0.25	0.50	-0.121094	0.064941	0.989258	-1.120000	3.850000	-0.980000	795.00	-0.14	-0.12
2.78	0.00	0.00	0.00	0.00	0.25	0.00	0.00	0.00	0.00	0.00	0.25	0.00	0.00	0.25	0.00	0.00	-0.168457	0.600098	1.061035	-59.150002	-338.940002	50.189999	7.00	0.00	0.00	7.25	8.25	7.75	10.00	6.50	8.00	2.00	6.50	2.00	2.00	2.25	2.25	5.00	1.50	0.25	0.50	-0.114258	0.055176	0.985840	-0.560000	3.780000	-1.120000	791.00	-0.13	-0.12
2.79	0.00	0.00	0.00	0.00	0.50	0.00	0.00	0.00	0.00	0.00	0.25	0.00	0.00	0.00	0.00	0.00	-0.355469	0.640625	0.969238	-45.779999	-348.950012	57.889999	8.00	0.00	0.00	6.75	7.75	7.75	9.50	6.25	8.25	2.00	6.75	2.00	2.25	2.75	2.00	5.50	1.25	0.25	0.50	-0.111816	0.065430	0.986328	0.490000	5.390000	-1.190000	786.00	-0.12	-0.12
2.80	0.00	0.00	0.00	0.25	0.50	0.00	0.00	0.00	0.00	0.00	0.25	0.00	0.00	0.00	0.00	0.00	-0.515137	0.631348	0.865723	-32.900002	-349.790009	66.709999	11.00	0.00	0.00	6.25	7.25	7.50	9.25	6.25	8.25	2.00	7.00	2.50	2.50	2.75	2.75	5.50	1.75	0.25	0.75	-0.125000	0.072266	0.994629	0.770000	6.370000	-1.470000	798.00	-0.10	-0.12
2.81	0.00	0.00	0.00	0.00	0.50	0.00	0.00	0.00	0.00	0.00	0.25	0.00	0.00	0.00	0.00	0.00	-0.577637	0.607910	0.885742	-19.879999	-341.880005	74.760002	8.00	0.00	0.00	5.50	6.50	7.00	9.00	6.25	8.00	2.00	7.00	2.25	2.50	3.00	2.75	5.75	1.75	0.25	0.75	-0.118652	0.058594	0.984863	0.840000	7.070000	-1.680000	773.00	-0.10	-0.13
2.82	0.00	0.00	0.00	0.00	0.50	0.00	0.00	0.00	0.00	0.00	0.00	0.00	0.00	0.00	0.00	0.00	-0.589355	0.448730	1.002930	-13.230000	-332.920013	83.370003	5.00	0.00	0.00	5.00	6.00	6.75	8.50	6.25	8.00	2.00	7.25	2.50	2.75	3.00	3.25	6.00	1.75	0.25	0.75	-0.138184	0.054688	0.983398	0.980000	7.560000	-1.960000	773.00	-0.08	-0.13
2.83	0.00	0.00	0.00	0.00	0.50	0.00	0.00	0.25	0.00	0.00	0.00	0.00	0.00	0.00	0.00	0.00	-0.678223	0.586914	1.235352	-17.360001	-325.850006	91.489998	9.00	0.00	0.00	4.50	5.75	6.50	8.00	6.00	8.00	2.25	7.50	3.00	3.00	3.25	3.50	6.75	2.00	0.25	0.75	-0.129883	0.064941	0.990723	0.980000	7.700000	-2.240000	785.00	-0.07	-0.13
2.84	0.00	0.00	0.00	0.00	0.50	0.00	0.00	0.00	0.00	0.00	0.00	0.00	0.00	0.00	0.00	0.00	-0.738770	0.595215	1.405273	-22.190001	-328.160004	97.720001	5.00	0.00	0.00	4.00	5.00	5.75	7.75	6.00	8.00	2.25	7.75	3.25	3.25	4.00	3.75	7.50	2.00	0.50	1.00	-0.128906	0.072754	0.980957	0.700000	8.190000	-2.450000	792.00	-0.05	-0.13
2.85	0.00	0.00	0.00	0.00	0.50	0.00	0.00	0.00	0.00	0.00	0.00	0.00	0.00	0.00	0.00	0.00	-0.782715	0.612305	1.488770	-25.480000	-334.110016	103.320000	5.00	0.00	0.00	3.25	4.50	5.50	7.25	6.00	8.00	2.25	7.75	3.25	3.50	4.00	3.75	7.75	2.50	0.50	1.00	-0.136719	0.064941	0.991699	0.770000	8.680000	-2.800000	780.00	-0.04	-0.13
2.86	0.00	0.00	0.00	0.00	0.50	0.00	0.00	0.00	0.00	0.00	0.00	0.00	0.00	0.00	0.00	0.00	-0.827148	0.641113	1.553223	-30.170000	-337.750000	109.550003	5.00	0.00	0.00	2.75	3.75	5.25	7.00	6.00	7.75	2.50	8.00	3.75	4.00	4.50	4.50	8.00	2.50	0.75	1.25	-0.113770	0.062012	0.982910	0.770000	9.450000	-3.430000	799.00	-0.02	-0.13
2.87	0.00	0.00	0.00	0.00	0.25	0.00	0.00	0.00	0.00	0.00	0.00	0.00	0.00	0.00	0.00	0.00	-0.906738	0.663086	1.653809	-30.870001	-337.049988	114.379997	3.00	0.00	0.00	2.50	3.75	4.75	6.50	5.75	7.75	2.50	8.00	4.00	4.25	5.25	4.75	8.00	3.00	0.50	1.25	-0.139160	0.062988	0.995117	1.120000	10.710000	-3.920000	800.00	-0.01	-0.13
2.88	0.00	0.00	0.00	0.00	0.50	0.00	0.00	0.00	0.00	0.00	0.00	0.00	0.00	0.00	0.00	0.00	-1.009766	0.666504	1.772949	-22.469999	-333.619995	115.919998	5.00	0.00	0.00	2.00	2.75	4.00	6.00	5.50	7.50	2.50	8.25	4.25	4.75	5.50	5.75	8.50	3.25	0.75	1.25	-0.157715	0.073730	0.992676	2.310000	11.830000	-4.340000	801.00	0.02	-0.14
2.89	0.00	0.00	0.00	0.00	0.50	0.00	0.00	0.00	0.00	0.00	0.00	0.00	0.00	0.00	0.00	0.00	-1.128906	0.646973	1.966309	-9.030000	-328.929993	112.279999	5.00	0.00	0.00	1.75	2.75	3.75	5.50	5.50	7.50	2.50	8.00	5.00	5.00	7.00	6.00	8.75	3.00	0.50	1.50	-0.129883	0.061523	1.000977	3.430000	12.950000	-3.710000	816.00	0.03	-0.13
2.90	0.00	0.00	0.00	0.00	0.50	0.00	0.00	0.00	0.00	0.00	0.00	0.00	0.00	0.00	0.00	0.00	-1.327637	0.594238	2.166016	4.200000	-328.790009	107.660004	5.00	0.00	0.00	1.50	2.75	3.25	5.00	5.25	7.50	2.75	8.25	5.00	6.00	7.75	7.25	9.25	3.50	1.00	1.50	-0.138672	0.067383	0.994629	4.900000	14.560000	-3.780000	853.00	0.05	-0.13
2.91	0.00	0.00	0.00	0.00	0.25	0.00	0.00	0.00	0.00	0.00	0.00	0.00	0.00	0.00	0.00	0.00	-1.615234	0.479980	2.368164	20.020000	-334.880005	101.360001	3.00	0.00	0.00	1.00	2.25	2.25	4.25	5.00	7.25	2.75	8.50	5.75	6.75	8.25	7.50	9.50	3.75	1.00	1.75	-0.148438	0.071777	0.990723	7.280000	16.030001	-4.130000	853.00	0.07	-0.13
2.92	0.00	0.00	0.00	0.00	0.50	0.00	0.00	0.00	0.00	0.00	0.00	0.00	0.00	0.00	0.00	0.00	-2.433594	0.125977	2.295410	67.690002	-347.690002	80.709999	5.00	0.00	0.00	1.00	2.00	2.25	4.50	4.50	7.00	2.50	8.50	6.25	7.50	8.75	8.25	9.75	4.25	1.00	2.00	-0.146973	0.057129	0.981445	9.450000	17.850000	-4.760000	877.00	0.08	-0.13
2.93	0.00	0.00	0.00	0.00	0.50	0.00	0.00	0.00	0.00	0.00	0.00	0.00	0.00	0.00	0.00	0.00	-2.778809	-0.073730	1.984863	72.519997	-340.829987	67.410004	5.00	0.00	0.00	1.00	2.00	1.75	4.00	4.25	7.00	2.50	8.75	6.25	8.25	9.25	8.75	10.25	4.50	1.00	2.25	-0.171387	0.074219	0.994141	11.270000	20.090000	-4.830000	893.00	0.09	-0.13
2.94	0.00	0.00	0.00	0.00	0.50	0.00	0.00	0.00	0.00	0.00	0.00	0.00	0.00	0.00	0.00	0.00	-2.944824	-0.188965	1.574219	54.250000	-320.250000	51.029999	5.00	0.00	0.00	0.75	1.25	1.50	3.25	3.75	6.75	2.50	8.50	7.00	8.50	10.25	9.25	10.50	5.25	1.00	2.75	-0.147461	0.089355	0.986328	12.880000	22.960001	-5.390000	900.00	0.11	-0.13
2.95	0.00	0.00	0.00	0.00	0.25	0.00	0.00	0.00	0.00	0.00	0.00	0.00	0.00	0.00	0.00	0.00	-2.969727	-0.211426	1.104492	19.740000	-287.630005	34.650002	3.00	0.00	0.00	0.75	1.25	1.00	3.00	3.25	6.50	2.50	8.75	7.25	9.00	10.50	9.75	11.00	5.75	1.25	3.25	-0.162598	0.089844	1.027832	14.070000	27.580000	-6.440000	917.00	0.12	-0.13
2.96	0.00	0.00	0.00	0.00	0.25	0.00	0.00	0.00	0.00	0.00	0.00	0.00	0.00	0.00	0.00	0.00	-3.146484	-0.089844	0.697754	-20.160000	-247.589996	20.370001	3.00	0.00	0.00	0.50	1.25	0.75	3.00	2.75	6.00	2.50	8.75	7.75	9.75	11.00	10.25	11.25	6.75	1.50	3.50	-0.176758	0.116699	1.029297	15.470000	34.580002	-7.420000	941.00	0.13	-0.13
2.97	0.00	0.00	0.00	0.00	0.25	0.00	0.00	0.00	0.00	0.00	0.00	0.00	0.00	0.00	0.00	0.00	-3.535156	0.262207	0.208984	-66.779999	-213.009995	-13.650000	3.00	0.00	0.00	0.25	1.00	0.75	2.50	2.25	5.50	2.25	8.50	8.25	10.00	11.75	10.50	11.50	7.25	1.75	4.50	-0.166992	0.098145	1.007812	17.710001	41.580002	-9.730000	946.00	0.14	-0.13
2.98	0.00	0.00	0.00	0.00	0.25	0.00	0.00	0.00	0.00	0.00	0.00	0.00	0.00	0.00	0.00	0.00	-4.421387	0.876953	-0.260254	-69.300003	-187.039993	-71.540001	3.00	0.00	0.00	0.50	1.25	0.50	2.25	1.75	5.00	2.00	8.50	8.50	10.50	12.25	11.25	12.00	7.75	1.75	5.00	-0.172852	0.087891	1.041992	18.830000	52.080002	-10.780000	963.00	0.15	-0.13
2.99	0.00	0.00	0.00	0.00	0.50	0.00	0.00	0.00	0.00	0.00	0.00	0.00	0.00	0.00	0.00	0.00	-4.700684	1.106445	-1.008301	31.639999	-149.380005	-113.750000	5.00	0.00	0.00	0.50	0.75	0.25	1.50	1.50	4.50	2.00	8.25	8.75	11.00	13.00	11.50	12.25	8.50	2.25	5.75	-0.201172	0.076660	1.102539	25.900000	76.440002	-8.470000	973.00	0.17	-0.12
3.00	0.00	0.00	0.00	0.00	0.50	0.00	0.00	0.00	0.00	0.00	0.00	0.00	0.00	0.00	0.00	0.00	-4.330078	0.618164	-1.388672	168.979996	-75.110001	-114.449997	5.00	0.00	0.00	0.25	0.75	0.00	1.50	1.00	4.00	1.75	8.25	9.00	11.50	13.00	12.00	12.25	9.00	2.25	6.25	-0.215332	0.128906	1.070312	32.480000	88.830002	-6.930000	973.00	0.18	-0.12
3.01	0.00	0.00	0.00	0.00	0.25	0.00	0.00	0.00	0.00	0.00	0.00	0.00	0.00	0.00	0.00	0.00	-3.653809	0.056152	-1.037109	216.790009	25.410000	-77.419998	3.00	0.00	0.00	0.00	0.25	0.00	1.50	1.00	3.25	1.50	8.00	9.25	11.75	13.75	12.50	12.50	9.50	2.50	6.75	-0.251465	0.110840	1.114746	40.599998	102.760002	-6.930000	981.00	0.19	-0.12
3.02	0.00	0.00	0.00	0.00	0.50	0.00	0.00	0.00	0.00	0.00	0.00	0.00	0.00	0.00	0.00	0.00	-2.995117	-0.253906	-0.194336	129.639999	117.320000	-13.300000	5.00	0.00	0.00	0.00	0.50	0.00	0.50	0.50	2.00	1.25	7.75	9.00	12.00	14.00	12.75	12.50	10.50	3.00	7.00	-0.279785	0.114746	1.141602	46.759998	122.150002	-6.580000	966.00	0.20	-0.12
3.03	0.00	0.00	0.00	0.00	0.50	0.00	0.00	0.00	0.00	0.00	0.00	0.00	0.00	0.00	0.00	0.00	-2.382812	0.050781	0.591309	-3.920000	172.479996	60.830002	5.00	0.00	0.00	0.00	0.25	0.00	0.25	0.50	2.25	1.00	7.25	8.75	12.00	14.50	12.75	12.50	11.00	3.25	7.50	-0.227051	0.100098	1.223633	50.750000	141.050003	-7.490000	963.00	0.21	-0.12
3.04	0.00	0.00	0.00	0.00	0.25	0.00	0.00	0.00	0.00	0.00	0.00	0.00	0.00	0.00	0.00	0.00	1.005859	1.657715	3.763184	-136.360001	265.860016	127.889999	3.00	0.00	0.00	0.00	0.00	0.00	0.25	0.25	1.25	0.75	6.75	8.50	12.00	14.50	13.00	12.25	12.00	3.50	7.75	-0.260254	0.145996	1.113281	44.380001	161.770004	-8.470000	946.00	0.22	-0.11
3.05	0.25	0.25	0.25	1.00	0.50	0.00	0.00	0.00	0.00	0.00	0.00	0.00	0.00	0.00	0.00	0.00	1.069824	1.102051	1.815430	-111.650002	183.119995	179.410004	24.00	0.00	0.00	0.00	0.00	0.00	0.50	0.25	1.00	0.50	6.00	8.00	11.75	14.25	13.00	12.25	12.50	3.75	8.00	-0.328125	0.187012	1.220703	41.580002	180.949997	-9.590000	927.00	0.22	-0.11
3.06	0.75	1.50	0.75	1.75	0.75	0.00	0.00	0.00	0.00	0.00	0.00	0.00	0.25	0.00	0.00	0.00	-0.324707	-0.810547	-0.055176	-116.059998	131.320007	192.639999	60.00	-0.29	-0.09	0.00	0.25	0.00	0.00	0.25	0.50	0.50	5.50	7.75	11.50	14.25	13.00	11.75	13.00	4.00	8.00	-0.373047	0.238770	1.267090	44.240002	204.470001	-13.300000	908.00	0.23	-0.11
3.07	1.75	3.50	1.25	3.00	0.75	0.00	0.00	0.00	0.00	0.00	0.00	0.00	0.00	0.00	0.00	0.00	0.058105	-1.312500	-0.093262	-162.960007	184.240005	152.949997	105.00	-0.33	-0.09	0.00	0.25	0.00	0.25	0.00	0.50	0.25	5.00	7.25	11.25	14.00	12.75	11.25	13.50	4.50	8.25	-0.391602	0.200195	1.326660	55.020000	229.809998	-22.469999	888.00	0.24	-0.11
3.08	4.00	7.25	2.25	5.25	0.75	0.00	0.00	0.00	0.00	0.00	0.00	0.00	0.00	0.00	0.00	0.00	0.581055	-2.150391	1.429199	-159.740005	220.570007	99.750000	199.00	-0.35	-0.08	0.00	0.00	0.00	0.00	0.25	0.25	0.00	3.75	6.50	10.50	13.50	12.50	11.00	13.50	4.50	8.00	-0.497070	0.334473	1.392578	47.180000	263.200012	-30.590000	831.00	0.25	-0.11
3.09	8.00	13.00	3.50	8.00	1.25	0.75	0.00	0.00	0.00	0.00	0.00	0.00	0.00	0.00	0.00	0.00	-0.234375	-2.236328	1.713379	-108.500000	232.889999	32.130001	351.00	-0.35	-0.08	0.00	0.00	0.00	0.00	0.00	0.00	0.00	3.25	5.50	10.00	12.75	12.00	10.25	13.25	4.50	8.00	-0.334473	0.347168	1.532227	49.349998	303.450012	-42.420002	778.00	0.25	-0.11
3.10	12.75	18.25	6.50	10.25	1.75	2.25	0.00	0.25	0.00	0.00	0.00	0.00	0.25	0.00	0.00	0.00	-0.845215	-0.418457	2.565430	-41.930000	242.619995	-41.860001	535.00	-0.34	-0.08	0.00	0.00	0.00	0.00	0.00	0.00	0.00	2.50	4.75	9.25	12.50	11.25	9.50	12.75	4.25	7.25	-0.470703	0.280273	1.727051	44.380001	334.739990	-48.720001	721.00	0.26	-0.11
3.11	15.75	21.00	8.25	13.25	2.75	4.00	0.00	0.50	0.00	0.00	0.25	0.00	0.50	0.00	0.00	0.00	-1.146973	1.414062	3.701660	-23.309999	211.050003	-42.000000	682.00	-0.33	-0.08	0.00	0.00	0.00	0.00	0.00	0.00	0.00	2.00	2.75	8.25	11.25	10.50	8.50	11.75	3.75	6.25	-0.458496	0.480469	1.755371	40.529999	383.880005	-53.689999	628.00	0.26	-0.12
3.12	18.00	22.00	9.25	14.00	4.00	4.75	0.25	0.50	0.00	0.00	0.25	0.00	0.50	0.00	0.00	0.00	-0.745117	0.249512	1.873535	-84.139999	122.849998	4.760000	760.00	-0.32	-0.07	0.00	0.00	0.00	0.00	0.25	0.25	0.00	1.50	2.25	7.25	10.25	9.50	7.75	9.75	3.25	5.25	-0.853516	0.415527	1.811035	69.580002	410.339996	-56.980000	554.00	0.25	-0.12
3.13	17.50	21.75	9.75	14.75	5.00	5.75	0.25	0.75	0.00	0.00	0.50	0.25	0.50	0.00	0.00	0.00	-0.132812	-0.065430	1.145996	-65.029999	64.050003	-5.880000	797.00	-0.31	-0.08	0.00	0.00	0.00	0.00	0.25	0.00	0.00	0.75	1.25	5.50	8.75	8.25	6.50	8.00	2.25	3.50	-0.764160	0.416992	2.637207	78.120003	433.580017	-58.799999	434.00	0.25	-0.13
3.14	16.75	21.25	10.00	14.75	5.50	6.75	0.25	1.00	0.00	0.00	0.50	0.25	0.75	0.00	0.00	0.00	-0.234863	0.256348	1.071777	-51.799999	54.950001	-1.470000	810.00	-0.30	-0.08	0.00	0.00	0.00	0.00	0.00	0.00	0.00	0.50	0.75	3.50	7.50	7.25	5.00	6.25	1.75	2.25	-0.581543	0.306152	2.550781	97.580002	451.640015	-60.130001	336.00	0.26	-0.14
3.15	16.50	21.00	10.00	14.75	5.75	7.00	0.50	1.25	0.25	0.25	0.50	0.50	0.75	0.25	0.00	0.00	-0.189941	-0.074219	1.116211	-42.980000	44.450001	4.760000	828.00	-0.29	-0.08	0.00	0.00	0.00	0.00	0.00	0.00	0.00	0.00	0.75	2.00	5.50	5.25	3.75	4.25	0.75	1.25	-0.589844	0.528809	2.313477	137.970001	466.619995	-59.639999	227.00	0.26	-0.13
3.16	15.75	20.50	10.00	15.25	6.00	7.75	0.50	1.50	0.00	0.25	1.00	0.50	0.75	0.00	0.00	0.00	-0.188965	-0.008789	1.064453	-21.420000	30.730000	3.150000	836.00	-0.28	-0.09	0.00	0.00	0.00	0.00	0.25	0.25	0.00	0.25	0.50	2.25	3.50	3.75	3.00	2.75	0.75	0.75	-0.137695	0.569824	2.627441	270.200012	480.830017	-76.650002	177.00	0.24	-0.14
3.17	15.00	20.25	10.00	15.25	6.50	8.25	0.75	2.00	0.25	0.75	0.75	0.75	1.00	0.00	0.00	0.00	-0.177246	0.144043	1.011719	-9.660000	19.389999	2.870000	859.00	-0.27	-0.09	0.00	0.00	0.00	0.00	0.25	0.50	0.25	0.25	0.75	1.50	2.50	2.75	2.25	1.50	0.25	0.50	-0.137695	0.569824	2.627441	270.200012	480.830017	-76.650002	134.00	0.21	-0.13
3.18	14.75	20.00	10.00	15.50	6.50	8.75	0.75	2.50	0.50	0.75	1.00	0.75	1.25	0.25	0.00	0.00	-0.141113	0.054688	0.987793	-9.100000	16.170000	2.940000	880.00	-0.26	-0.09	0.00	0.00	0.00	0.00	0.25	0.25	0.25	0.00	0.75	1.00	1.50	1.50	1.25	1.00	0.25	0.25	0.384766	0.041016	2.120605	314.510010	477.049988	-109.129997	84.00	0.22	-0.08
3.19	14.00	19.50	9.75	15.50	7.00	8.75	0.75	2.50	1.00	1.00	1.00	0.75	1.25	0.50	0.00	0.00	-0.141113	0.021973	0.986816	-6.720000	15.050000	1.330000	882.00	-0.25	-0.09	0.00	0.00	0.00	0.25	0.25	0.25	0.25	0.00	0.50	1.25	1.25	1.50	1.00	0.75	0.00	0.25	1.186523	-0.097656	4.671387	122.150002	239.330002	-167.649994	77.00	0.19	-0.09
3.20	13.50	18.75	10.00	15.25	7.00	9.50	0.75	3.25	1.00	1.00	1.25	1.00	1.50	0.50	0.00	0.00	-0.157227	0.069336	0.986328	-3.640000	13.860000	0.420000	897.00	-0.24	-0.10	0.00	0.00	0.00	0.00	0.50	0.25	0.25	0.00	0.25	1.00	1.25	1.25	0.75	0.50	0.00	0.25	1.257812	0.267090	4.015137	-1.820000	10.920000	-137.410004	64.00	0.18	-0.09
3.21	13.00	18.25	10.00	15.00	7.25	9.50	1.00	4.00	1.00	1.00	1.25	1.00	1.50	0.75	0.00	0.00	-0.151855	0.060547	0.984375	-3.010000	13.300000	-0.070000	904.00	-0.23	-0.10	0.00	0.00	0.00	0.00	0.25	0.25	0.25	0.00	0.25	1.25	0.75	1.00	1.00	0.50	0.00	0.25	1.172852	0.418945	2.378418	-77.559998	-139.229996	-102.199997	58.00	0.19	-0.10
3.22	12.50	18.00	9.75	15.25	7.50	10.00	1.00	4.50	1.25	1.25	1.50	1.00	2.00	0.75	0.00	0.00	-0.148926	0.059570	0.976562	-3.500000	13.300000	-0.910000	925.00	-0.22	-0.10	0.00	0.00	0.00	0.00	0.25	0.25	0.25	0.00	0.50	0.75	0.75	1.00	1.25	0.50	0.00	0.00	0.833008	0.405762	1.227051	-89.529999	-198.869995	-88.830002	57.00	0.19	-0.10
3.23	11.50	17.25	9.75	14.75	7.50	9.75	1.00	5.00	1.00	1.25	1.50	1.00	1.75	0.75	0.00	0.25	-0.149414	0.055664	0.978516	-3.780000	12.950000	-1.540000	903.00	-0.22	-0.11	0.00	0.00	0.00	0.00	0.25	0.25	0.25	0.00	0.00	0.50	0.50	0.75	1.00	0.50	0.00	0.00	0.642578	0.375488	0.709961	-62.720001	-203.699997	-90.160004	41.00	0.00	0.00
3.24	10.50	16.50	9.50	14.25	7.50	9.75	1.00	5.00	1.25	1.25	1.75	1.25	2.00	1.00	0.00	0.00	-0.138672	0.057129	0.974609	-3.640000	12.740000	-1.890000	889.00	-0.21	-0.11	0.00	0.00	0.00	0.00	0.25	0.50	0.25	0.00	0.25	0.50	0.50	0.25	0.50	0.25	0.00	0.00	0.597168	0.298340	0.550781	-32.549999	-194.949997	-92.750000	35.00	0.00	0.00
3.25	10.00	15.50	9.25	13.75	7.50	10.00	1.00	5.00	1.50	1.75	2.00	1.25	2.00	0.50	0.00	0.00	-0.136230	0.049805	0.973145	-3.500000	14.210000	-2.100000	876.00	-0.20	-0.11	0.00	0.00	0.00	0.25	0.25	0.25	0.25	0.00	0.25	0.25	0.50	0.25	0.50	0.25	0.00	0.00	0.562012	0.226074	0.601562	-14.490000	-194.250000	-88.129997	32.00	0.00	0.00
3.26	9.25	14.75	9.00	13.50	7.50	9.75	1.25	5.25	1.75	1.75	2.00	1.25	2.25	0.75	0.00	0.25	-0.152344	0.043945	0.974609	-3.010000	14.980000	-1.820000	870.00	-0.19	-0.11	0.00	0.00	0.00	0.00	0.25	0.50	0.50	0.00	0.25	0.25	0.25	0.25	0.75	0.50	0.00	0.00	0.514648	0.166016	0.699707	-16.520000	-202.720001	-75.529999	38.00	0.00	0.00
3.27	8.50	13.50	8.75	13.00	7.50	9.75	1.25	5.25	1.75	1.50	1.75	1.25	2.25	1.00	0.00	0.00	-0.151855	0.044922	0.972168	-1.750000	15.120000	-1.610000	838.00	-0.19	-0.11	0.00	0.00	0.00	0.00	0.25	0.50	0.25	0.00	0.50	0.50	0.25	0.00	0.50	0.00	0.00	0.00	0.481445	0.159668	0.826172	-35.000000	-216.229996	-57.189999	31.00	0.00	0.00
3.28	7.75	12.25	8.50	12.25	7.25	9.50	1.50	5.25	2.00	1.75	2.00	1.50	2.50	1.25	0.00	0.25	-0.151855	0.046875	0.961914	-0.770000	14.840000	-1.750000	823.00	-0.17	-0.11	0.00	0.00	0.00	0.00	0.25	0.25	0.50	0.00	0.00	0.25	0.25	0.00	0.00	0.50	0.00	0.00	0.430664	0.182129	0.983887	-59.500000	-233.660004	-36.049999	23.00	0.00	0.00
3.29	7.25	11.00	8.25	11.50	7.25	9.50	1.50	5.50	2.00	2.00	2.00	1.50	2.50	1.25	0.25	0.25	-0.151367	0.046875	0.961914	-0.070000	14.630000	-2.100000	804.00	-0.16	-0.11	0.00	0.00	0.00	0.00	0.25	0.00	0.50	0.00	0.25	0.00	0.50	0.00	0.25	0.25	0.00	0.00	0.365723	0.236328	1.131836	-80.639999	-256.130005	-14.700000	23.00	0.00	0.00
3.30	6.50	10.00	8.00	11.00	7.00	9.50	1.50	5.75	2.25	1.75	2.25	1.50	2.75	1.25	0.00	0.25	-0.148438	0.052246	0.958008	0.280000	14.140000	-2.170000	783.00	-0.15	-0.11	0.00	0.00	0.00	0.00	0.50	0.25	0.50	0.00	0.00	0.00	0.00	0.25	0.50	0.00	0.00	0.00	0.241211	0.295898	1.204590	-88.340004	-282.309998	3.220000	23.00	0.00	0.00
3.31	6.25	9.50	7.50	10.75	7.25	9.25	1.75	5.75	2.50	2.00	2.25	1.75	2.75	1.00	0.00	0.25	-0.149902	0.050293	0.961914	0.700000	13.720000	-2.240000	777.00	-0.14	-0.11	0.00	0.00	0.00	0.00	0.25	0.50	0.50	0.00	0.25	0.50	0.00	0.00	0.25	0.00	0.00	0.00	0.078613	0.340820	1.159668	-79.660004	-306.110016	14.630000	26.00	0.00	0.00
3.32	5.75	8.50	7.50	10.00	7.00	9.25	1.75	6.00	2.50	2.25	2.25	1.75	3.25	1.50	0.25	0.25	-0.154297	0.055176	0.961426	1.680000	13.300000	-2.450000	770.00	-0.13	-0.11	0.00	0.00	0.00	0.00	0.25	0.25	0.25	0.00	0.00	0.00	0.25	0.00	0.00	0.25	0.00	0.00	-0.081543	0.340820	1.094727	-62.020000	-322.420013	19.530001	14.00	0.00	0.00
3.33	5.25	7.75	7.00	9.50	7.25	9.25	1.75	6.25	2.75	2.50	2.50	2.00	3.25	1.50	0.25	0.25	-0.147461	0.057617	0.958984	1.680000	13.370000	-2.660000	764.00	-0.12	-0.11	0.00	0.00	0.00	0.25	0.00	0.25	0.25	0.00	0.00	0.50	0.00	0.25	0.25	0.25	0.00	0.00	-0.234375	0.329590	1.035156	-44.099998	-329.350006	21.490000	21.00	0.00	0.00
3.34	5.00	7.25	6.75	9.25	7.00	9.25	1.75	6.50	3.00	2.25	2.50	2.00	3.50	1.50	0.25	0.50	-0.146973	0.056152	0.960449	1.680000	13.930000	-3.150000	757.00	-0.11	-0.11	0.00	0.00	0.00	0.00	0.25	0.25	0.25	0.00	0.00	0.00	0.00	0.00	0.00	0.00	0.00	0.00	-0.385254	0.333008	1.055176	-32.060001	-329.209991	23.870001	9.00	0.00	0.00
3.35	4.50	6.75	6.50	8.75	7.00	9.25	1.75	6.50	3.25	2.50	2.75	2.25	3.75	1.75	0.25	0.25	-0.143066	0.059082	0.965820	1.540000	14.980000	-3.920000	753.00	-0.10	-0.11	0.00	0.00	0.00	0.00	0.25	0.50	0.25	0.00	0.25	0.00	0.00	0.00	0.50	0.00	0.00	0.00	-0.517090	0.375488	1.133789	-27.790001	-325.989990	28.910000	20.00	0.00	0.00
3.36	3.75	6.25	6.00	8.50	7.00	9.25	2.00	6.75	3.75	2.75	3.25	2.50	4.25	1.50	0.25	0.50	-0.151367	0.058594	0.960938	1.260000	16.520000	-4.550000	760.00	-0.08	-0.12	0.00	0.00	0.00	0.00	0.25	0.25	0.25	0.00	0.25	0.00	0.00	0.00	0.25	0.00	0.00	0.00	-0.626953	0.389160	1.207520	-26.950001	-323.190002	36.330002	15.00	0.00	0.00
3.37	3.50	5.75	5.75	7.75	7.25	9.50	2.25	7.00	3.75	3.00	3.50	2.75	4.75	1.75	0.25	0.50	-0.155273	0.058105	0.961914	1.260000	17.710001	-4.970000	769.00	-0.07	-0.12	0.00	0.00	0.00	0.00	0.25	0.50	0.50	0.00	0.00	0.00	0.00	0.00	0.25	0.00	0.00	0.00	-0.684082	0.410645	1.286621	-26.740000	-320.739990	43.610001	18.00	0.00	0.00
3.38	2.75	5.25	5.50	7.25	7.25	9.25	2.25	7.25	4.50	3.25	3.75	3.00	5.00	2.00	0.25	0.50	-0.160645	0.054199	0.962891	1.470000	18.690001	-5.530000	772.00	-0.05	-0.11	0.00	0.00	0.00	0.00	0.25	0.50	0.50	0.00	0.00	0.25	0.00	0.00	0.25	0.00	0.00	0.00	-0.887695	0.529785	1.477539	-20.510000	-317.029999	51.869999	21.00	0.00	0.00
3.39	2.50	4.75	5.00	7.00	7.25	9.25	2.50	7.50	4.75	3.50	4.00	3.50	5.50	2.50	0.50	0.75	-0.168457	0.056641	0.959473	1.820000	19.600000	-5.880000	790.00	-0.03	-0.12	0.00	0.00	0.00	0.00	0.25	0.50	0.25	0.00	0.25	0.00	0.00	0.00	0.25	0.00	0.00	0.00	-0.938477	0.602051	1.579102	-17.500000	-317.730011	59.500000	17.00	0.00	0.00
3.40	2.25	3.75	4.75	6.25	7.25	9.25	2.50	7.50	5.00	4.00	4.50	3.75	6.00	2.50	0.50	0.75	-0.165527	0.057129	0.965332	2.170000	20.790001	-6.370000	788.00	-0.02	-0.11	0.00	0.00	0.00	0.00	0.25	0.25	0.25	0.00	0.00	0.00	0.00	0.00	0.25	0.00	0.00	0.00	-0.987793	0.681641	1.648438	-18.760000	-318.709991	72.099998	11.00	0.00	0.00
3.41	2.00	3.75	4.25	6.00	7.00	9.00	2.75	7.75	5.75	4.50	5.00	4.00	6.50	2.75	0.50	0.75	-0.174316	0.061523	0.971191	2.520000	22.190001	-6.510000	809.00	-0.00	-0.11	0.00	0.00	0.00	0.00	0.25	0.25	0.50	0.00	0.25	0.00	0.00	0.00	0.00	0.00	0.00	0.00	-1.019531	0.750488	1.649414	-17.290001	-318.010010	87.500000	16.00	0.00	0.00
3.42	2.00	3.25	3.75	5.50	7.00	8.75	2.75	7.75	6.00	5.25	6.25	4.50	6.75	3.25	0.50	0.75	-0.167480	0.053711	0.966309	2.940000	23.940001	-6.580000	826.00	0.01	-0.11	0.00	0.00	0.00	0.00	0.25	0.50	0.25	0.00	0.00	0.00	0.00	0.00	0.25	0.00	0.00	0.00	-1.051270	0.771484	1.685547	-8.470000	-314.860016	101.570000	14.00	0.00	0.00
3.43	1.50	3.00	3.00	5.00	6.50	8.50	3.00	7.75	6.75	5.50	6.75	5.25	7.00	3.75	0.75	1.00	-0.169922	0.058105	0.963867	3.640000	26.040001	-7.000000	836.00	0.04	-0.11	0.00	0.00	0.00	0.00	0.25	0.50	0.50	0.00	0.25	0.00	0.00	0.00	0.00	0.00	0.00	0.00	-1.065918	0.713379	1.750000	8.960000	-311.010010	110.739998	19.00	0.00	0.00
3.44	1.25	2.75	2.75	5.00	6.25	8.25	3.00	8.00	7.50	6.50	7.75	6.00	7.50	3.75	0.75	1.00	-0.190430	0.059570	0.969727	4.690000	27.930000	-7.140000	870.00	0.05	-0.11	0.00	0.00	0.00	0.00	0.25	0.25	0.25	0.00	0.25	0.00	0.00	0.00	0.25	0.00	0.00	0.00	-1.131836	0.629883	1.875000	31.430000	-308.420013	113.889999	15.00	0.00	0.00
3.45	1.00	2.50	2.25	5.00	5.75	8.00	3.00	8.25	8.00	7.50	8.25	6.50	7.75	4.00	1.00	1.25	-0.194824	0.056152	0.971680	6.790000	30.100000	-7.210000	891.00	0.06	-0.11	0.00	0.00	0.00	0.00	0.00	0.25	0.25	0.00	0.50	0.00	0.00	0.00	0.00	0.25	0.00	0.00	-1.229492	0.493164	1.981445	49.980000	-308.070007	112.419998	15.00	0.00	0.00
3.46	1.00	2.50	2.00	4.25	5.50	7.75	3.00	8.25	8.25	8.00	8.50	7.00	8.00	4.75	1.00	1.25	-0.195312	0.056641	0.978027	9.100000	32.410000	-7.420000	899.00	0.07	-0.10	0.00	0.00	0.00	0.00	0.25	0.75	0.50	0.00	0.00	0.00	0.00	0.00	0.00	0.00	0.00	0.00	-1.390625	0.377930	2.010742	58.799999	-309.470001	107.660004	18.00	0.00	0.00
3.47	1.00	2.25	1.25	3.75	5.00	7.25	3.00	8.00	8.75	8.25	9.00	8.00	8.50	5.00	1.00	1.25	-0.199219	0.069336	0.974609	10.500000	35.630001	-7.420000	900.00	0.09	-0.10	0.00	0.00	0.00	0.00	0.25	0.25	0.25	0.00	0.00	0.00	0.00	0.00	0.25	0.00	0.00	0.00	-1.584961	0.302734	1.930664	62.230000	-308.630005	100.590004	11.00	0.00	0.00
3.48	1.00	1.50	1.50	3.25	4.50	7.00	3.00	8.25	9.00	8.75	9.75	8.25	9.00	5.50	1.25	1.50	-0.181641	0.077637	0.980469	12.320000	40.389999	-7.490000	917.00	0.10	-0.10	0.00	0.00	0.00	0.00	0.25	0.25	0.25	0.00	0.00	0.00	0.00	0.00	0.00	0.00	0.00	0.00	-1.798340	0.258301	1.782227	65.379997	-302.399994	90.930000	9.00	0.00	0.00
3.49	1.00	1.50	1.25	3.25	4.00	6.25	3.00	8.00	9.25	9.00	10.25	8.75	9.25	6.00	1.25	1.75	-0.199219	0.062988	0.960938	14.490000	45.920002	-8.120000	921.00	0.11	-0.10	0.00	0.00	0.00	0.00	0.25	0.50	0.25	0.00	0.25	0.00	0.00	0.00	0.25	0.25	0.00	0.00	-2.027832	0.231445	1.681152	66.709999	-289.450012	78.750000	20.00	0.00	0.00
3.50	0.75	1.00	1.00	3.00	3.25	5.75	2.75	8.00	9.50	9.50	11.00	9.25	9.50	6.50	1.25	2.00	-0.169434	0.078125	0.990723	17.710001	52.220001	-10.640000	920.00	0.13	-0.10	0.00	0.00	0.00	0.00	0.25	0.25	0.25	0.00	0.25	0.00	0.00	0.00	0.25	0.00	0.00	0.00	-2.132812	0.194824	1.483887	59.360001	-271.809998	65.379997	15.00	0.00	0.00
3.51	0.50	0.50	0.75	2.50	2.75	5.25	2.50	7.75	9.75	10.00	11.50	9.75	9.75	7.75	1.50	2.25	-0.192383	0.074707	1.004395	20.580000	61.740002	-12.320000	922.00	0.14	-0.10	0.00	0.00	0.00	0.00	0.25	0.00	0.25	0.00	0.00	0.00	0.00	0.00	0.50	0.00	0.00	0.00	-2.188477	0.179688	1.178711	46.480000	-249.410004	58.520000	11.00	0.00	0.00
3.52	0.50	0.50	0.50	2.50	2.50	5.00	2.50	7.75	10.00	10.25	12.00	10.25	10.25	8.25	1.50	2.50	-0.243164	0.072754	1.007324	22.260000	70.980003	-12.810000	940.00	0.15	-0.10	0.00	0.00	0.00	0.00	0.25	0.25	0.25	0.00	0.00	0.25	0.00	0.00	0.00	0.00	0.00	0.00	-2.478027	0.151367	0.809570	32.060001	-222.880005	59.290001	12.00	0.00	0.00
3.53	0.25	0.75	0.50	1.75	2.00	4.00	2.00	7.50	10.25	10.75	12.75	10.75	10.25	8.75	1.75	2.75	-0.189941	0.070801	1.044434	23.940001	82.389999	-11.760000	934.00	0.17	-0.10	0.00	0.00	0.00	0.00	0.25	0.25	0.25	0.00	0.00	0.00	0.00	0.00	0.00	0.00	0.00	0.00	-3.412598	0.271484	0.416992	8.470000	-199.009995	50.330002	9.00	0.00	0.00
3.54	0.50	0.75	0.50	1.75	1.50	3.25	2.00	7.25	10.50	11.00	13.00	11.25	10.75	9.50	2.00	3.50	-0.273926	0.129395	1.016602	30.870001	104.019997	-13.300000	950.00	0.17	-0.10	0.00	0.00	0.00	0.00	0.25	0.25	0.25	0.00	0.25	0.00	0.00	0.25	0.00	0.00	0.00	0.00	-4.265137	0.384277	-0.299805	25.760000	-174.020004	30.660000	15.00	0.00	0.00
3.55	0.25	0.25	0.00	1.25	1.00	3.00	1.50	6.75	10.75	11.25	13.50	11.75	10.50	10.25	2.00	4.00	-0.326660	0.083008	1.059570	37.240002	115.080002	-12.950000	932.00	0.19	-0.09	0.00	0.00	0.00	0.00	0.25	0.50	0.25	0.00	0.00	0.25	0.00	0.00	0.25	0.00	0.00	0.00	-4.402344	0.155762	-1.024414	96.879997	-122.220001	15.960000	17.00	0.00	0.00
3.56	0.25	0.50	0.00	1.25	1.00	2.00	1.25	6.50	10.75	11.50	14.00	12.00	10.75	10.75	2.25	4.50	-0.317871	0.048340	1.122070	43.400002	133.350006	-10.500000	938.00	0.20	-0.09	0.00	0.50	0.00	0.00	0.50	0.00	0.25	0.00	0.25	0.25	0.00	0.00	0.00	0.00	0.00	0.00	-3.998047	-1.678711	-0.512207	15.470000	124.949997	43.400002	20.00	0.00	0.00
3.57	0.00	0.25	0.00	1.25	0.75	1.50	1.00	6.25	10.75	11.75	14.50	12.25	10.50	11.75	2.50	5.00	-0.321777	0.082031	1.134766	46.480000	153.160004	-8.400000	940.00	0.21	-0.09	0.00	0.00	0.00	0.25	0.25	0.00	0.25	0.00	0.00	0.25	0.00	0.25	0.50	0.00	0.00	0.00	-3.998047	-1.678711	-0.512207	15.470000	124.949997	43.400002	19.00	0.00	0.00
3.58	0.00	0.25	0.00	0.50	0.50	1.75	0.75	5.75	10.50	11.50	14.50	12.50	10.25	12.25	2.75	5.25	-0.333984	0.111328	1.081055	43.889999	171.430008	-6.440000	923.00	0.22	-0.09	0.25	0.25	0.75	0.75	0.25	0.00	0.25	0.00	0.00	0.00	0.00	0.00	0.25	0.00	0.00	0.00	-0.021973	-0.025879	2.028809	-126.349998	226.169998	64.400002	30.00	0.00	0.00
3.59	0.00	0.00	0.00	0.75	0.50	0.50	0.50	5.25	10.25	11.75	14.75	12.25	10.00	13.00	3.25	5.50	-0.404297	0.148926	1.111328	46.970001	190.889999	-7.070000	908.00	0.23	-0.08	1.25	1.50	1.00	2.50	0.50	0.00	0.25	0.00	0.00	0.00	0.00	0.00	0.25	0.00	0.00	0.00	0.163086	0.208008	2.201660	-81.830002	192.710007	70.840004	77.00	-0.28	-0.08
3.60	0.00	0.25	0.00	0.25	0.25	0.25	0.25	5.00	10.00	11.50	14.75	12.25	9.75	13.75	3.00	5.75	-0.487793	0.213379	1.103027	53.970001	214.690002	-10.150000	889.00	0.23	-0.08	3.25	5.00	2.00	4.25	0.75	0.00	0.50	0.00	0.00	0.00	0.00	0.00	0.50	0.00	0.00	0.00	0.015625	-1.111816	-0.003906	-68.180000	145.110001	64.540001	169.00	-0.31	-0.07
3.61	0.00	0.00	0.00	0.00	0.25	0.50	0.00	4.25	9.50	11.25	14.50	12.25	9.50	14.00	3.25	6.00	-0.437012	0.185059	1.304199	57.889999	240.729996	-15.540000	864.00	0.24	-0.08	8.00	9.25	3.75	6.00	0.75	0.25	0.25	0.00	0.00	0.00	0.00	0.25	0.50	0.00	0.00	0.00	-0.083984	-1.574219	0.723633	-43.820000	238.279999	31.710001	297.00	-0.33	-0.06
3.62	0.00	0.00	0.00	0.00	0.25	0.00	0.00	3.75	8.75	11.00	14.00	12.00	8.75	14.25	3.75	5.75	-0.531250	0.169434	1.314941	52.709999	266.700012	-19.389999	830.00	0.25	-0.08	11.50	12.75	6.75	8.75	1.50	1.00	0.50	0.00	0.00	0.00	0.00	0.25	1.00	0.00	0.00	0.00	-0.769531	-0.235840	3.269531	19.950001	295.750000	-16.590000	454.00	-0.32	-0.06
3.63	0.00	0.00	0.00	0.00	0.25	0.00	0.00	3.25	8.00	10.25	13.75	11.25	8.00	14.25	3.75	5.75	-0.656738	0.301270	1.379395	55.369999	304.989990	-25.129999	788.00	0.25	-0.07	14.50	14.75	8.75	10.50	2.75	3.00	0.75	0.75	0.00	0.00	0.00	0.00	1.25	0.00	0.00	0.00	-1.369629	0.913574	4.303223	31.150000	239.610001	-30.730000	595.00	-0.31	-0.06
3.64	0.00	0.00	0.00	0.00	0.00	0.00	0.00	2.50	7.00	9.50	12.75	10.50	7.00	14.25	3.75	5.50	-0.608398	0.296387	1.611328	59.220001	338.309998	-35.560001	724.00	0.26	-0.07	15.75	15.50	9.75	11.25	4.75	4.50	0.75	0.75	0.00	0.00	0.00	0.25	1.00	0.50	0.00	0.00	-0.799316	0.766602	2.073730	-32.689999	112.419998	-7.140000	677.00	-0.29	-0.06
3.65	0.00	0.00	0.00	0.00	0.00	0.00	0.00	2.00	5.50	8.75	11.50	9.25	6.25	13.25	3.25	5.25	-0.620117	0.390625	2.433105	58.310001	390.250000	-41.720001	641.00	0.26	-0.07	15.75	16.00	10.00	11.75	5.50	5.00	0.75	1.00	0.00	0.00	0.00	0.25	1.25	1.00	0.00	0.00	-0.046387	-0.153809	1.094238	-72.379997	58.590000	10.220000	714.00	-0.28	-0.06
3.66	0.00	0.00	0.00	0.00	0.00	0.00	0.00	1.50	3.75	7.25	10.00	8.00	5.50	11.75	2.75	4.25	-0.985352	0.457520	2.473145	76.860001	433.160004	-45.779999	536.00	0.26	-0.08	15.50	15.50	10.00	11.75	6.00	5.25	1.00	1.75	0.25	0.00	0.25	0.50	1.25	1.25	0.00	0.00	-0.079590	-0.195801	1.178223	-54.320000	46.619999	2.590000	741.00	-0.27	-0.06
3.67	0.00	0.00	0.00	0.00	0.00	0.00	0.00	1.00	2.75	5.00	8.25	6.75	4.25	10.00	2.00	2.75	-0.970215	0.394043	2.799805	99.120003	467.880005	-47.670002	419.00	0.27	-0.08	14.75	15.25	10.00	12.00	6.25	6.00	1.00	1.75	0.00	0.25	0.00	0.25	1.50	1.50	0.00	0.00	-0.178223	0.210449	1.054199	-35.630001	36.610001	0.210000	743.00	-0.26	-0.07
3.68	0.00	0.00	0.00	0.00	0.00	0.00	0.00	0.75	1.50	3.25	6.25	5.00	3.00	7.50	1.50	2.00	-0.572266	0.455566	2.879883	129.080002	489.649994	-52.500000	300.00	0.27	-0.09	14.50	15.00	10.25	12.25	6.50	6.50	1.00	2.00	0.50	0.25	0.25	0.50	2.00	2.00	0.00	0.00	-0.219238	0.029785	1.136719	-27.930000	17.990000	5.320000	776.00	-0.25	-0.07
3.69	0.00	0.00	0.00	0.00	0.00	0.00	0.00	0.25	1.00	2.25	4.25	3.50	2.25	5.25	1.00	0.75	-0.607910	0.732910	2.477539	174.509995	507.640015	-58.799999	201.00	0.27	-0.08	14.00	14.75	10.25	12.00	6.75	7.00	1.00	2.25	0.75	0.50	0.25	0.50	2.00	1.75	0.00	0.00	-0.079102	-0.021973	1.005859	-14.980000	6.300000	3.850000	781.00	-0.24	-0.07
3.70	0.00	0.00	0.00	0.00	0.50	0.00	0.00	0.25	0.75	2.00	2.75	3.00	1.75	3.00	0.25	0.50	-0.284180	0.745117	2.653320	251.160004	513.799988	-71.959999	146.00	0.24	-0.09	13.75	14.50	10.25	12.00	7.25	7.50	1.25	2.75	0.75	0.25	0.50	0.75	2.25	2.00	0.00	0.00	-0.106934	0.086426	1.012207	-7.140000	2.870000	3.080000	806.00	-0.23	-0.08
3.71	0.00	0.00	0.00	0.00	0.25	0.00	0.00	0.00	0.50	1.75	2.00	1.75	1.00	1.75	0.00	0.25	0.084961	0.544434	2.242676	338.170013	520.169983	-96.669998	92.00	0.24	-0.07	13.25	14.00	10.25	12.00	7.50	7.75	1.25	3.00	0.75	0.50	0.75	1.00	2.25	2.50	0.00	0.00	-0.096680	0.068359	0.995117	-6.580000	1.680000	2.660000	817.00	-0.22	-0.08
3.72	0.00	0.00	0.00	0.50	0.25	0.25	0.00	0.00	0.50	1.00	1.25	1.25	0.75	0.50	0.00	0.25	-0.018555	-0.048828	1.671387	325.149994	490.489990	-197.680008	66.00	0.16	-0.11	12.75	13.75	10.25	12.25	7.75	8.00	1.25	3.25	0.75	0.75	0.75	1.00	2.75	2.75	0.00	0.25	-0.076660	0.059082	0.978516	-7.560000	1.330000	1.330000	832.00	-0.21	-0.08
