# time	left pressure 1[N/cm²]	left pressure 2[N/cm²]	left pressure 3[N/cm²]	left pressure 4[N/cm²]	left pressure 5[N/cm²]	left pressure 6[N/cm²]	left pressure 7[N/cm²]	left pressure 8[N/cm²]	left pressure 9[N/cm²]	left pressure 10[N/cm²]	left pressure 11[N/cm²]	left pressure 12[N/cm²]	left pressure 13[N/cm²]	left pressure 14[N/cm²]	left pressure 15[N/cm²]	left pressure 16[N/cm²]	left acceleration X[g]	left acceleration Y[g]	left acceleration Z[g]	left angular X[dps]	left angular Y[dps]	left angular Z[dps]	left total force[N]	left center of pressure X[%]	left center of pressure Y[%]	right pressure 1[N/cm²]	right pressure 2[N/cm²]	right pressure 3[N/cm²]	right pressure 4[N/cm²]	right pressure 5[N/cm²]	right pressure 6[N/cm²]	right pressure 7[N/cm²]	right pressure 8[N/cm²]	right pressure 9[N/cm²]	right pressure 10[N/cm²]	right pressure 11[N/cm²]	right pressure 12[N/cm²]	right pressure 13[N/cm²]	right pressure 14[N/cm²]	right pressure 15[N/cm²]	right pressure 16[N/cm²]	right acceleration X[g]	right acceleration Y[g]	right acceleration Z[g]	right angular X[dps]	right angular Y[dps]	right angular Z[dps]	right total force[N]	right center of pressure X[%]	right center of pressure Y[%]
0.00																										16.75	12.50	9.50	9.50	5.50	5.25	2.00	4.50	2.50	2.50	2.25	2.00	5.50	3.25	0.75	0.50	-0.163086	0.100586	0.960938	-3.640000	0.560000	-0.210000	988.00	-0.16	-0.07
0.01																										16.75	13.25	9.75	9.50	5.25	5.00	2.00	4.75	2.75	2.50	2.25	2.00	5.50	3.25	1.00	0.50	-0.154785	0.104004	0.954102	-3.570000	0.980000	-0.070000	1003.00	-0.16	-0.07
0.03	0.00	0.00	0.00	0.00	0.00	0.00	0.00	0.00	0.00	0.00	0.00	0.00	0.00	0.00	0.00	0.00	-0.318359	0.212402	1.158203	26.040001	-111.650002	51.520000	0.00	0.00	0.00	17.25	13.25	9.75	9.50	5.25	5.25	2.00	4.50	2.50	2.50	2.25	1.75	5.50	3.25	0.50	0.75	-0.152344	0.098633	0.958496	-3.570000	1.190000	-0.140000	997.00	-0.16	-0.07
0.04	0.00	0.00	0.00	0.00	0.00	0.00	0.00	0.00	0.00	0.25	0.00	0.00	0.00	0.00	0.00	0.00	-0.312988	0.207520	1.172363	32.200001	-113.330002	40.950001	3.00	0.00	0.00																									
0.05	0.00	0.25	0.00	0.00	0.00	0.00	0.00	0.00	0.00	0.00	0.00	0.00	0.00	0.00	0.00	0.00	-0.306641	0.199707	1.177734	38.920002	-115.639999	32.270000	3.00	0.00	0.00	17.50	13.25	9.75	9.50	5.50	5.00	2.00	4.50	2.50	2.25	2.25	1.75	5.50	3.25	0.75	1.00	-0.155273	0.100586	0.960449	-3.780000	1.820000	-0.490000	1001.00	-0.16	-0.07
0.06	0.50	0.00	0.00	0.00	0.00	0.00	0.00	0.00	0.00	0.00	0.00	0.00	0.00	0.00	0.00	0.00	-0.312012	0.184570	1.174805	45.150002	-117.739998	25.690001	6.00	0.00	0.00	17.50	13.00	9.75	9.50	5.50	5.00	2.00	4.50	2.50	2.50	2.00	2.00	5.50	3.25	0.75	0.50	-0.157715	0.096191	0.965820	-3.710000	1.890000	-0.420000	999.00	-0.16	-0.07
0.07	0.00	0.00	0.00	0.00	0.00	0.00	0.00	0.00	0.00	0.00	0.00	0.00	0.00	0.00	0.00	0.00	-0.322754	0.176270	1.164551	49.910000	-118.650002	21.280001	0.00	0.00	0.00	17.00	12.50	10.00	9.25	5.50	5.00	2.00	4.50	2.50	2.50	2.25	2.00	5.50	3.25	0.50	0.50	-0.154297	0.100586	0.958984	-3.500000	1.680000	-0.210000	988.00	-0.16	-0.07
0.08	0.00	0.50	0.00	0.00	0.00	0.00	0.00	0.00	0.00	0.00	0.00	0.00	0.00	0.00	0.00	0.00	-0.328125	0.173828	1.136719	52.709999	-117.529999	18.969999	5.00	0.00	0.00	17.00	12.50	9.75	9.25	5.50	5.00	2.00	4.50	2.50	2.25	2.25	2.00	5.50	3.25	0.50	0.50	-0.161133	0.102051	0.957520	-3.220000	1.680000	-0.210000	982.00	-0.16	-0.07
0.09	0.00	0.25	0.00	0.00	0.00	0.00	0.00	0.00	0.00	0.00	0.00	0.00	0.00	0.00	0.00	0.00	-0.334961	0.167480	1.095703	54.810001	-114.730003	18.549999	3.00	0.00	0.00	17.25	12.25	9.75	9.25	5.75	5.00	2.00	4.50	2.75	2.50	2.25	2.00	5.50	3.00	0.75	0.75	-0.161133	0.102051	0.957520	-3.220000	1.680000	-0.210000	994.00	-0.16	-0.07
0.10	0.00	0.00	0.00	0.00	0.00	0.00	0.00	0.00	0.00	0.00	0.00	0.00	0.00	0.00	0.00	0.00	-0.340820	0.158691	1.028320	56.279999	-108.989998	19.600000	0.00	0.00	0.00	16.75	12.00	9.75	9.00	5.75	5.00	2.00	4.50	2.50	2.25	2.25	2.00	5.50	3.50	0.75	0.50	-0.159180	0.099609	0.958008	-2.800000	1.820000	-0.140000	980.00	-0.16	-0.07
0.11	0.00	0.00	0.00	0.00	0.00	0.00	0.00	0.00	0.00	0.00	0.00	0.00	0.00	0.00	0.00	0.00	-0.357910	0.141602	0.956543	57.470001	-100.590004	22.330000	0.00	0.00	0.00	16.75	12.00	9.75	9.25	6.00	5.00	2.00	4.75	2.50	2.50	2.25	2.00	5.50	3.25	0.75	0.25	-0.153809	0.101562	0.959961	-2.590000	1.820000	-0.070000	989.00	-0.16	-0.07
0.12	0.00	0.25	0.00	0.00	0.00	0.00	0.00	0.00	0.00	0.00	0.00	0.00	0.00	0.00	0.00	0.00	-0.373535	0.124512	0.895996	57.260002	-88.550003	26.250000	3.00	0.00	0.00	16.75	12.00	9.50	9.25	5.75	5.00	2.00	4.50	2.50	2.25	2.25	2.00	5.50	3.50	0.75	0.50	-0.151855	0.098633	0.959961	-2.590000	1.820000	-0.070000	980.00	-0.16	-0.07
0.13	0.00	0.00	0.00	0.00	0.00	0.00	0.00	0.00	0.00	0.00	0.00	0.00	0.00	0.00	0.00	0.00	-0.395508	0.122559	0.860352	56.420002	-74.059998	30.590000	0.00	0.00	0.00	16.25	12.00	9.75	9.25	5.75	5.00	2.00	4.50	2.75	2.50	2.25	2.00	5.75	3.50	0.75	0.50	-0.154785	0.104492	0.954102	-2.520000	1.750000	-0.070000	986.00	-0.15	-0.07
0.14	0.00	0.00	0.00	0.00	0.00	0.00	0.00	0.00	0.00	0.00	0.00	0.00	0.00	0.00	0.00	0.00	-0.409668	0.138672	0.859375	56.700001	-58.869999	35.420002	0.00	0.00	0.00	16.00	11.50	9.75	9.25	6.00	5.00	2.00	5.00	2.50	2.50	2.25	2.00	5.75	3.50	1.00	0.50	-0.155273	0.102539	0.965332	-2.660000	1.680000	-0.140000	988.00	-0.15	-0.07
0.15	0.00	0.00	0.00	0.00	0.00	0.00	0.00	0.00	0.00	0.00	0.00	0.00	0.00	0.00	0.00	0.00	-0.437988	0.159668	0.902344	58.730000	-44.029999	41.020000	0.00	0.00	0.00	16.00	11.25	9.50	8.75	5.75	4.75	2.00	4.75	2.50	2.50	2.50	1.75	5.75	3.50	1.00	0.50	-0.157715	0.096191	0.954102	-2.660000	1.330000	-0.140000	967.00	-0.15	-0.07
0.16	0.00	0.00	0.00	0.00	0.00	0.00	0.00	0.00	0.00	0.00	0.00	0.00	0.00	0.00	0.00	0.00	-0.456543	0.176758	0.991211	61.320000	-32.270000	47.529999	0.00	0.00	0.00	15.75	11.00	9.25	9.00	6.25	4.75	2.00	4.75	2.75	2.50	2.50	2.25	5.75	3.50	0.75	0.75	-0.157227	0.102539	0.956543	-2.520000	1.050000	-0.140000	975.00	-0.14	-0.07
0.17	0.00	0.00	0.00	0.00	0.00	0.00	0.00	0.00	0.00	0.25	0.00	0.00	0.00	0.00	0.00	0.00	-0.513672	0.209961	1.093750	64.400002	-21.070000	63.000000	3.00	0.00	0.00	15.50	10.75	9.75	9.00	6.25	5.00	2.00	5.00	2.50	2.50	2.50	2.00	6.00	3.50	1.00	0.75	-0.155273	0.098145	0.958008	-2.310000	0.980000	-0.070000	982.00	-0.14	-0.07
0.18	0.00	0.00	0.00	0.00	0.00	0.00	0.00	0.00	0.00	0.00	0.00	0.00	0.00	0.00	0.00	0.00	-0.559082	0.226074	1.084961	66.500000	-19.879999	71.610001	0.00	0.00	0.00	16.00	10.50	9.75	9.00	6.00	5.00	2.00	5.00	2.50	2.50	2.50	2.25	6.25	3.75	0.75	0.50	-0.160156	0.104492	0.957520	-2.240000	0.980000	-0.140000	985.00	-0.14	-0.07
0.19	0.00	0.00	0.00	0.00	0.00	0.00	0.00	0.00	0.00	0.00	0.00	0.00	0.00	0.00	0.00	0.00	-0.614258	0.240723	1.070801	69.720001	-19.180000	80.010002	0.00	0.00	0.00	15.50	10.25	9.50	8.75	6.00	5.00	2.25	5.00	2.50	2.75	2.50	2.25	6.25	3.50	0.75	0.75	-0.158203	0.099121	0.958984	-2.310000	1.260000	-0.350000	977.00	-0.14	-0.07
0.20	0.00	0.00	0.00	0.00	0.00	0.00	0.00	0.00	0.00	0.00	0.00	0.00	0.00	0.00	0.00	0.00	-0.676270	0.238281	1.055176	73.989998	-19.250000	87.989998	0.00	0.00	0.00	15.25	10.00	9.50	8.75	6.25	5.00	2.25	5.25	2.75	2.50	2.50	2.25	6.25	3.75	1.25	0.25	-0.154785	0.100098	0.962402	-2.170000	1.330000	-0.350000	985.00	-0.13	-0.07
0.21	0.00	0.00	0.00	0.00	0.00	0.00	0.00	0.00	0.00	0.00	0.00	0.00	0.00	0.00	0.00	0.00	-0.767090	0.219238	1.046387	79.379997	-20.020000	95.410004	0.00	0.00	0.00	15.00	9.75	9.50	8.75	6.25	5.00	2.25	5.25	2.75	2.75	2.50	2.50	6.50	3.75	1.00	0.75	-0.153809	0.108398	0.962891	-2.100000	1.680000	-0.490000	988.00	-0.13	-0.07
0.22	0.00	0.00	0.00	0.00	0.00	0.00	0.00	0.00	0.00	0.00	0.00	0.00	0.00	0.00	0.00	0.00	-0.842285	0.188965	1.039551	84.980003	-23.100000	102.830002	0.00	0.00	0.00	14.75	9.50	9.50	8.50	6.25	5.00	2.25	5.25	3.00	2.75	2.75	2.50	6.75	3.75	1.00	0.75	-0.157227	0.101562	0.958008	-2.100000	2.030000	-0.630000	988.00	-0.12	-0.07
0.23	0.25	0.75	0.25	0.25	0.00	0.00	0.00	0.00	0.00	0.00	0.00	0.00	0.00	0.00	0.00	0.00	-0.938965	0.120117	0.985352	90.860001	-28.700001	110.739998	16.00	0.00	0.00	14.25	9.25	9.25	8.50	6.25	5.00	2.50	5.25	3.00	2.75	2.75	2.25	7.00	3.75	1.00	1.00	-0.157715	0.104492	0.955566	-2.450000	2.450000	-0.840000	982.00	-0.12	-0.07
0.24	0.00	0.00	0.00	0.00	0.00	0.00	0.00	0.00	0.00	0.00	0.00	0.00	0.00	0.00	0.00	0.00	-1.078613	0.021973	0.924316	97.930000	-34.650002	119.840004	0.00	0.00	0.00	14.00	9.00	9.25	8.25	6.50	4.75	2.25	5.25	3.25	2.75	2.75	2.75	7.00	4.00	1.25	0.75	-0.152832	0.102051	0.958984	-2.660000	2.870000	-1.050000	983.00	-0.11	-0.07
0.25	0.00	0.00	0.00	0.00	0.00	0.00	0.00	0.00	0.00	0.00	0.00	0.00	0.00	0.00	0.00	0.00	-1.270508	-0.080566	0.833008	97.720001	-40.180000	127.400002	0.00	0.00	0.00	13.75	8.75	9.00	8.25	6.25	5.00	2.50	5.25	3.25	2.75	3.00	2.75	7.25	4.00	1.00	0.75	-0.147461	0.104004	0.957520	-3.150000	2.940000	-1.050000	981.00	-0.11	-0.07
0.26	0.00	0.00	0.00	0.00	0.00	0.00	0.00	0.00	0.00	0.00	0.00	0.00	0.00	0.00	0.00	0.00	-1.489258	-0.154297	0.739258	89.949997	-46.549999	131.809998	0.00	0.00	0.00	13.25	8.25	8.75	8.00	6.25	4.75	2.50	5.50	3.00	3.00	3.00	2.75	7.25	4.00	1.25	0.75	-0.157227	0.105957	0.955566	-3.290000	2.940000	-1.260000	967.00	-0.10	-0.08
0.27	0.00	0.00	0.00	0.00	0.00	0.00	0.00	0.00	0.25	0.00	0.00	0.00	0.00	0.00	0.00	0.00	-1.777832	-0.178711	0.636719	78.400002	-57.049999	134.539993	4.00	0.00	0.00	12.75	8.00	8.75	7.75	6.25	4.75	2.50	5.50	3.00	3.00	3.25	3.00	7.75	4.25	1.25	1.00	-0.154785	0.098633	0.956055	-3.500000	3.220000	-1.330000	970.00	-0.09	-0.08
0.28	0.00	0.00	0.00	0.00	0.00	0.00	0.00	0.00	0.00	0.00	0.00	0.00	0.00	0.00	0.00	0.00	-2.039062	-0.250488	0.449219	62.580002	-69.160004	131.949997	0.00	0.00	0.00	12.50	7.75	8.75	7.75	6.50	4.75	2.75	5.50	3.75	3.25	3.50	3.50	8.00	4.50	1.25	1.00	-0.154785	0.105469	0.955566	-3.640000	3.570000	-1.470000	999.00	-0.08	-0.07
0.29	0.00	0.00	0.00	0.00	0.00	0.00	0.00	0.00	0.00	0.00	0.00	0.00	0.00	0.00	0.00	0.00	-2.152832	-0.342285	0.158203	45.430000	-74.690002	119.840004	0.00	0.00	0.00	12.00	7.25	8.75	7.50	6.50	4.75	3.00	5.75	3.75	3.25	3.25	3.50	8.25	4.75	1.25	1.00	-0.156738	0.102539	0.959473	-3.780000	3.920000	-1.610000	995.00	-0.08	-0.07
0.30	0.00	0.00	0.00	0.00	0.00	0.00	0.00	0.00	0.00	0.00	0.00	0.00	0.00	0.00	0.00	0.00	-2.087891	-0.434082	-0.155762	32.830002	-63.139999	98.559998	0.00	0.00	0.00	11.50	7.00	8.25	7.25	6.50	4.75	3.00	5.75	3.75	3.25	3.75	3.75	8.25	4.75	1.25	1.00	-0.154785	0.100586	0.957031	-3.640000	4.620000	-1.750000	987.00	-0.07	-0.08
0.31	0.00	2.25	0.00	0.00	0.00	0.00	0.00	0.00	0.00	0.00	0.00	0.00	0.00	0.00	0.00	0.00	-1.944824	-1.021484	-0.427734	-19.389999	50.189999	29.680000	23.00	0.00	0.00	10.50	6.50	8.50	7.00	6.50	4.75	3.25	5.75	4.25	3.75	4.00	4.00	8.75	5.00	1.50	1.00	-0.154297	0.104980	0.958984	-3.570000	5.460000	-1.890000	1003.00	-0.05	-0.08
0.32	0.25	0.75	0.00	0.00	0.00	0.00	0.00	0.00	0.00	0.00	0.00	0.00	0.00	0.00	0.00	0.00	-1.944824	-1.021484	-0.427734	-19.389999	50.189999	29.680000	10.00	0.00	0.00	9.75	6.00	8.00	6.75	6.25	4.75	3.25	6.00	4.50	4.25	4.25	4.25	9.25	5.25	1.50	1.00	-0.162598	0.111328	0.959961	-3.360000	8.190000	-2.730000	1004.00	-0.04	-0.08
0.33	1.00	1.50	0.00	0.00	0.00	0.00	0.00	0.00	0.00	0.00	0.00	0.00	0.00	0.00	0.00	0.00	-0.049805	0.316406	1.687012	-84.000000	185.710007	-51.520000	26.00	0.00	0.00	9.25	6.00	7.75	6.25	6.25	4.25	3.50	6.00	5.00	4.00	4.25	4.50	9.25	5.50	1.50	1.25	-0.162598	0.111328	0.959961	-3.360000	8.190000	-2.730000	998.00	-0.03	-0.07
0.34	2.00	3.75	0.50	0.75	0.00	0.00	0.00	0.00	0.00	0.00	0.00	0.00	0.00	0.00	0.00	0.00	-0.258789	0.216797	2.785156	-98.070000	176.539993	-56.560001	76.00	-0.39	-0.07	8.75	5.50	7.50	6.00	6.25	4.00	3.50	6.00	5.00	4.25	5.25	5.00	9.50	5.50	1.50	1.25	-0.155273	0.107910	0.963867	-2.940000	12.530000	-4.200000	1001.00	-0.02	-0.08
0.35	3.75	5.50	1.25	2.00	0.00	0.00	0.00	0.00	0.00	0.00	0.00	0.00	0.00	0.00	0.00	0.00	-0.191406	-0.062988	1.642090	-63.840000	132.020004	-37.939999	137.00	-0.37	-0.06	8.00	5.25	7.00	5.50	6.00	3.50	3.75	6.00	5.50	5.50	5.50	5.25	9.75	5.75	1.75	1.50	-0.159668	0.107422	0.979492	-2.590000	16.030001	-4.900000	1009.00	-0.00	-0.07
0.36	5.25	6.25	2.00	3.50	0.00	0.00	0.00	0.00	0.00	0.00	0.00	0.00	0.00	0.00	0.00	0.00	-0.523926	-0.042969	1.360840	1.260000	135.169998	-21.910000	189.00	-0.36	-0.06	7.00	4.25	6.75	5.00	5.75	3.00	3.50	5.75	5.75	5.50	6.50	5.75	9.75	6.25	2.00	1.75	-0.166016	0.116699	0.992188	-2.520000	20.580000	-5.670000	991.00	0.02	-0.07
0.37	6.75	7.50	3.00	4.75	0.00	0.00	0.00	0.00	0.00	0.00	0.00	0.00	0.00	0.00	0.00	0.00	-0.507324	-0.344727	0.851074	20.790001	155.539993	-27.020000	245.00	-0.36	-0.06	6.50	3.50	6.25	4.25	5.25	2.25	3.50	5.75	6.25	6.25	7.00	6.00	9.75	6.75	2.00	2.00	-0.203613	0.121582	0.986328	-1.890000	24.150000	-7.000000	978.00	0.04	-0.07
0.38	8.00	8.75	4.75	5.75	0.00	0.50	0.00	0.25	0.00	0.00	0.00	0.25	0.00	0.00	0.00	0.00	-0.299316	1.032715	1.344727	-42.070000	112.489998	-27.299999	319.00	-0.34	-0.06	5.75	2.75	5.75	3.50	4.75	1.75	3.50	5.50	6.75	6.75	7.50	6.25	10.00	7.00	2.25	2.00	-0.178223	0.140625	0.997559	-1.050000	28.350000	-8.750000	960.00	0.06	-0.07
0.39	9.00	9.25	5.25	6.75	0.25	1.00	0.00	0.50	0.00	0.00	0.00	0.25	0.00	0.00	0.00	0.00	-0.289062	0.203613	1.265137	-43.470001	68.529999	-9.450000	366.00	-0.33	-0.07	5.25	2.25	5.00	2.50	4.00	1.00	3.25	5.25	7.00	7.25	7.75	6.75	9.75	7.25	2.50	2.25	-0.176270	0.055176	1.020996	-4.060000	38.150002	-12.950000	924.00	0.09	-0.06
0.40	9.25	9.75	5.75	7.75	0.50	1.50	0.00	1.00	0.00	0.00	0.25	0.50	0.50	0.00	0.00	0.00	-0.427246	0.160645	1.063477	-49.000000	70.910004	-4.620000	420.00	-0.31	-0.08	4.00	2.00	4.25	2.25	3.00	0.75	2.75	4.50	7.25	7.50	8.00	6.75	9.50	7.50	2.50	2.25	-0.117676	0.148438	1.095703	-2.870000	44.869999	-17.080000	869.00	0.11	-0.06
0.41	9.75	10.25	6.50	8.00	0.75	1.75	0.00	1.25	0.00	0.00	0.25	0.50	0.75	0.25	0.00	0.00	-0.240234	0.131348	1.287598	-55.020000	73.500000	-1.750000	457.00	-0.30	-0.08	3.25	1.25	3.00	1.75	2.00	0.25	2.25	3.75	7.50	7.75	8.25	6.75	9.50	8.00	2.25	2.00	-0.138184	0.082031	1.049316	-3.780000	58.450001	-21.490000	803.00	0.14	-0.06
0.42	10.00	10.50	6.50	8.25	0.75	1.75	0.00	1.75	0.00	0.00	0.50	0.75	1.25	0.25	0.00	0.00	-0.303711	0.079590	1.131836	-50.259998	49.209999	-2.520000	485.00	-0.28	-0.09	2.75	1.25	2.50	1.25	1.50	0.25	1.75	3.00	7.50	8.00	8.25	6.50	9.00	8.25	2.25	2.25	-0.083008	0.111816	1.294922	-0.630000	77.910004	-20.580000	757.00	0.15	-0.05
0.43	10.25	10.50	7.25	8.25	0.75	2.25	0.00	1.75	0.25	0.25	0.50	0.75	1.25	0.50	0.00	0.00	-0.291504	0.158691	0.994141	-40.320000	36.400002	-2.170000	511.00	-0.27	-0.09	2.00	1.25	1.75	1.25	0.75	0.00	0.75	2.00	7.50	7.75	8.00	6.25	8.50	8.50	2.25	2.25	-0.213379	0.098145	1.040039	16.100000	100.940002	-26.180000	683.00	0.18	-0.05
0.44	10.25	10.75	7.25	8.25	0.75	2.50	0.00	2.00	0.00	0.50	0.75	1.00	1.75	0.50	0.00	0.00	-0.252441	0.166504	1.034180	-34.369999	30.870001	1.470000	531.00	-0.26	-0.10	1.75	0.50	1.50	0.75	0.50	0.00	0.25	1.50	7.50	7.75	8.00	6.25	8.00	8.75	2.50	1.75	-0.248047	0.214844	1.106934	27.299999	128.169998	-28.980000	642.00	0.20	-0.05
0.45	10.25	10.50	7.25	8.25	1.00	2.25	0.00	2.25	0.25	0.50	1.00	1.00	1.50	0.75	0.00	0.00	-0.252441	0.136230	1.013672	-28.490000	24.219999	2.310000	539.00	-0.25	-0.09	1.00	0.75	1.00	1.00	0.25	0.00	0.00	1.00	7.00	7.75	7.75	5.50	7.50	9.00	2.25	2.00	-0.308105	-0.049316	1.354004	29.190001	162.330002	-35.279999	595.00	0.21	-0.05
0.46	10.00	10.50	7.25	8.50	1.00	2.50	0.00	2.25	0.25	0.75	0.50	0.75	1.75	1.00	0.00	0.00	-0.243164	0.160645	0.969727	-22.889999	19.320000	2.310000	541.00	-0.25	-0.09	1.00	0.50	1.00	0.75	0.25	0.00	0.00	0.75	6.75	7.50	7.50	5.25	6.50	8.75	2.25	1.75	-0.331055	0.148926	1.272949	3.360000	189.210007	-38.360001	560.00	0.22	-0.04
0.47	10.00	10.75	7.25	8.50	1.00	2.50	0.00	2.25	0.25	0.50	1.00	1.00	1.75	0.75	0.00	0.00	-0.250488	0.160645	0.954102	-19.320000	16.309999	2.240000	547.00	-0.25	-0.10	1.00	0.50	0.00	0.50	0.00	0.00	0.00	0.50	6.25	7.50	7.25	4.75	5.50	9.00	2.50	1.50	-0.356934	0.139160	1.125000	-5.950000	195.580002	-38.920002	516.00	0.24	-0.03
0.48	10.00	10.50	7.25	8.50	0.75	2.50	0.00	2.00	0.00	0.75	1.00	0.75	1.75	1.00	0.25	0.00	-0.234375	0.146973	0.937988	-17.080000	12.600000	1.050000	539.00	-0.25	-0.09	0.25	0.50	0.25	0.25	0.00	0.00	0.00	0.50	6.00	6.75	7.00	4.25	4.25	8.75	2.25	1.25	-0.458984	0.016602	1.218262	-3.290000	205.380005	-40.810001	468.00	0.25	-0.02
0.49	10.00	10.75	7.25	8.50	1.25	2.50	0.00	2.50	0.00	0.75	0.75	1.00	2.00	1.00	0.25	0.00	-0.227051	0.144531	0.929199	-17.710001	11.340000	0.350000	558.00	-0.24	-0.10	0.00	0.50	0.00	0.25	0.00	0.00	0.00	0.50	5.50	6.50	6.25	4.00	2.75	8.50	2.00	0.75	-0.459473	0.035156	0.985840	-5.110000	210.070007	-40.389999	419.00	0.26	-0.00
0.50	10.00	10.50	7.25	8.75	1.00	3.00	0.00	2.50	0.25	0.75	0.75	0.75	2.00	1.00	0.00	0.00	-0.227051	0.129395	0.924805	-19.879999	10.150000	-0.210000	559.00	-0.25	-0.10	0.00	0.25	0.00	0.00	0.00	0.00	0.00	0.25	5.00	6.25	6.00	3.50	2.25	8.00	1.75	0.75	-0.490234	0.194824	1.080566	-8.470000	213.360001	-40.389999	378.00	0.27	0.01
0.51	10.00	10.50	7.25	8.50	1.25	3.25	0.00	2.50	0.25	1.00	0.75	0.75	2.25	1.25	0.25	0.00	-0.225586	0.126465	0.927734	-22.120001	8.610000	-0.770000	572.00	-0.23	-0.10	0.00	0.00	0.00	0.00	0.00	0.00	0.00	0.00	4.25	5.75	5.75	3.25	1.75	7.50	1.75	0.25	-0.458008	0.160645	1.061523	-7.490000	217.839996	-43.400002	337.00	0.28	0.01
0.52	10.00	10.75	7.50	9.25	1.25	3.25	0.00	2.50	0.25	1.25	1.00	1.00	2.00	1.25	0.25	0.00	-0.234375	0.120605	0.932129	-23.240000	6.370000	-0.770000	593.00	-0.23	-0.10	0.00	0.00	0.00	0.00	0.00	0.00	0.00	0.00	3.00	5.25	5.25	3.25	0.75	7.00	1.50	0.00	-0.462891	0.173828	1.138184	-10.570000	220.710007	-46.619999	289.00	0.28	0.02
0.53	13.25	12.25	8.50	9.25	1.50	4.00	0.00	3.25	0.50	1.25	1.00	1.50	3.25	1.50	0.50	0.00	-0.234375	0.119629	0.941406	-22.889999	3.920000	-0.700000	708.00	-0.22	-0.10	0.00	0.00	0.00	0.00	0.00	0.00	0.00	0.00	2.25	4.50	4.75	3.00	0.75	6.25	1.00	0.00	-0.709473	0.265137	1.373047	1.120000	215.600006	-46.689999	249.00	0.28	0.01
0.54	13.25	12.25	8.75	9.50	1.50	4.25	0.00	3.50	0.25	1.50	1.00	1.25	3.50	1.75	0.25	0.00	-0.239258	0.116211	0.930664	-21.210001	1.540000	-0.350000	719.00	-0.22	-0.10	0.00	0.00	0.00	0.00	0.00	0.00	0.00	0.00	1.75	4.50	4.25	2.50	0.50	5.75	1.00	0.00	-0.623047	0.183105	0.983398	4.830000	213.850006	-48.509998	223.00	0.28	0.01
0.55	13.25	12.50	8.75	9.50	1.50	4.50	0.25	3.75	0.50	1.25	1.50	1.00	3.75	1.75	0.25	0.00	-0.236816	0.115723	0.939941	-19.950001	0.210000	0.000000	739.00	-0.22	-0.10	0.00	0.00	0.00	0.00	0.00	0.00	0.00	0.00	1.00	4.00	3.75	2.00	0.50	5.25	0.25	0.00	-0.578613	0.285645	1.053711	8.190000	214.059998	-52.849998	182.00	0.28	0.01
0.56	14.00	12.50	9.00	9.75	1.75	4.25	0.25	4.00	0.75	1.75	1.50	1.50	4.00	2.00	0.25	0.25	-0.238281	0.117188	0.941895	-19.040001	-1.050000	0.000000	779.00	-0.20	-0.10	0.00	0.00	0.00	0.00	0.00	0.00	0.00	0.00	0.75	3.25	3.25	2.00	0.00	4.00	0.50	0.00	-0.629395	0.281738	1.120117	19.040001	212.449997	-58.590000	151.00	0.28	0.00
0.57	14.25	13.00	9.00	10.00	1.75	4.50	0.25	4.25	0.75	1.75	1.50	1.50	4.75	2.50	0.50	0.25	-0.236328	0.120605	0.949219	-18.059999	-1.680000	-0.070000	812.00	-0.20	-0.10	0.00	0.00	0.00	0.00	0.00	0.00	0.00	0.00	0.25	3.25	3.00	2.00	0.00	3.50	0.50	0.00	-0.759277	0.332031	1.432129	45.920002	189.490005	-66.220001	136.00	0.28	-0.02
0.58	14.50	13.25	9.50	10.00	2.00	5.00	0.25	4.75	0.75	2.00	1.50	1.50	4.75	2.50	0.50	0.25	-0.237793	0.116699	0.943359	-17.360001	-2.100000	-0.210000	843.00	-0.19	-0.10	0.00	0.00	0.00	0.00	0.00	0.00	0.00	0.00	0.50	2.50	2.00	1.50	0.00	2.25	0.00	0.00	-0.658691	0.363770	1.113281	53.619999	176.119995	-73.709999	97.00	0.27	-0.00
0.59	15.25	13.25	9.50	10.25	2.25	5.25	0.50	5.00	1.00	2.00	1.75	1.50	5.25	2.75	0.50	0.25	-0.230469	0.107910	0.942383	-16.870001	-2.450000	-0.210000	882.00	-0.19	-0.10	0.00	0.00	0.00	0.00	0.00	0.00	0.00	0.00	0.00	2.25	2.00	1.50	0.00	2.25	0.00	0.00	-0.530273	0.463379	1.012207	61.250000	169.119995	-83.090004	87.00	0.27	-0.03
0.60	15.75	13.75	9.75	10.50	2.50	5.25	0.50	5.50	1.25	2.25	1.75	1.50	5.25	2.75	0.25	0.50	-0.236816	0.107422	0.957520	-15.890000	-3.150000	-0.490000	915.00	-0.19	-0.10	0.00	0.00	0.00	0.00	0.00	0.00	0.00	0.00	0.00	1.75	1.50	1.25	0.00	1.00	0.00	0.00	-0.530762	0.384277	1.035645	69.440002	154.419998	-92.750000	61.00	0.25	-0.05
0.61	16.25	14.25	10.00	10.75	2.50	5.50	0.75	5.50	1.50	2.00	1.75	1.75	5.50	3.00	0.25	0.25	-0.237305	0.105469	0.956055	-14.840000	-3.430000	-0.700000	946.00	-0.19	-0.10	0.00	0.00	0.00	0.00	0.00	0.00	0.00	0.00	0.00	1.25	1.00	1.00	0.00	0.50	0.00	0.00	-0.511230	0.322754	1.041504	63.700001	136.289993	-104.930000	42.00	0.00	0.00
0.62	16.50	14.25	10.25	11.00	2.75	5.75	0.75	6.00	1.75	2.25	1.75	1.75	5.75	3.25	0.75	0.50	-0.236328	0.104980	0.952637	-13.790000	-3.500000	-0.840000	988.00	-0.18	-0.10	0.00	0.00	0.00	0.00	0.00	0.00	0.00	0.00	0.00	1.00	0.75	0.25	0.00	0.00	0.00	0.00	-0.364746	0.329590	0.935059	63.700001	117.949997	-115.430000	23.00	0.00	0.00
0.63	17.00	14.75	10.50	11.00	2.75	5.75	0.75	6.00	2.00	2.50	2.00	2.00	5.50	3.50	0.25	0.75	-0.232422	0.097168	0.953125	-11.200000	-2.240000	-0.630000	1009.00	-0.18	-0.09	0.00	0.00	0.00	0.00	0.00	0.00	0.00	0.00	0.00	0.50	0.50	0.00	0.00	0.00	0.00	0.00	0.198242	0.291016	1.206055	58.310001	99.470001	-127.540001	11.00	0.00	0.00
0.64	17.00	15.00	10.75	11.25	3.00	6.00	1.00	6.00	2.00	2.50	2.00	1.75	5.75	3.50	0.25	0.75	-0.231934	0.099121	0.956543	-9.940000	-1.400000	-0.420000	1027.00	-0.18	-0.09	0.00	0.00	0.00	0.00	0.00	0.00	0.00	0.00	0.00	0.00	0.00	0.00	0.00	0.00	0.00	0.00	0.471680	0.166992	1.741699	44.170002	58.799999	-135.869995	0.00	0.00	0.00
0.65	16.50	13.50	10.75	11.25	3.25	6.50	1.00	6.25	2.00	2.25	2.00	2.00	6.00	3.50	0.50	0.50	-0.228516	0.098633	0.959961	-8.820000	-0.350000	-0.210000	1023.00	-0.17	-0.10	0.00	0.00	0.00	0.00	0.00	0.00	0.00	0.00	0.00	0.00	0.25	0.00	0.00	0.00	0.00	0.00	0.099609	0.500977	1.371094	32.759998	16.730000	-135.449997	3.00	0.00	0.00
0.66	17.75	15.25	10.75	11.25	3.50	6.25	1.00	6.25	2.00	2.75	2.00	2.00	6.25	4.00	0.50	0.75	-0.239258	0.099121	0.958984	-7.700000	1.050000	0.070000	1069.00	-0.17	-0.09	0.00	0.25	0.00	0.00	0.00	0.00	0.00	0.00	0.00	0.00	0.00	0.00	0.00	0.00	0.00	0.00	0.545410	0.312988	1.371094	23.660000	-24.430000	-126.980003	3.00	0.00	0.00
0.67	17.50	15.00	11.00	11.50	3.75	6.75	1.25	6.50	2.50	2.75	2.25	2.25	6.25	4.00	0.50	0.50	-0.228516	0.090820	0.955566	-6.440000	2.590000	0.420000	1099.00	-0.16	-0.09	0.00	0.25	0.00	0.00	0.00	0.00	0.00	0.00	0.00	0.00	0.25	0.00	0.00	0.00	0.00	0.00	0.285645	0.290527	0.941406	24.219999	-56.560001	-119.279999	5.00	0.00	0.00
0.68	17.50	14.75	10.75	11.25	3.75	6.75	1.25	6.25	2.50	2.50	2.25	2.00	6.25	4.00	0.50	0.75	-0.229492	0.094727	0.962402	-5.460000	4.550000	0.700000	1082.00	-0.16	-0.09	0.00	0.00	0.00	0.00	0.00	0.00	0.00	0.00	0.00	0.00	0.00	0.00	0.00	0.00	0.00	0.00	0.261230	0.255859	0.676270	24.290001	-68.250000	-113.330002	0.00	0.00	0.00
0.69	17.00	14.50	10.75	11.25	3.75	6.50	1.25	6.50	2.75	2.50	2.25	2.50	6.25	4.00	0.50	0.75	-0.230469	0.095215	0.958496	-4.690000	6.440000	0.840000	1084.00	-0.16	-0.09	0.00	0.00	0.00	0.00	0.00	0.00	0.00	0.00	0.00	0.00	0.00	0.00	0.00	0.00	0.00	0.00	0.234863	0.209961	0.596191	30.940001	-71.750000	-108.150002	0.00	0.00	0.00
0.70	17.00	14.75	10.50	11.25	3.50	6.50	1.25	6.50	2.75	2.75	2.25	2.00	6.25	3.75	0.75	0.50	-0.230957	0.094238	0.957031	-4.270000	8.190000	0.840000	1077.00	-0.16	-0.09	0.00	0.00	0.00	0.00	0.00	0.00	0.00	0.00	0.00	0.00	0.00	0.00	0.00	0.00	0.00	0.00	0.228027	0.167480	0.672363	46.900002	-78.330002	-96.949997	0.00	0.00	0.00
0.71	16.25	14.25	10.25	11.00	3.50	6.50	1.25	6.25	2.25	2.75	2.25	2.25	6.00	4.00	0.50	0.75	-0.233398	0.088379	0.950684	-4.060000	9.450000	0.910000	1047.00	-0.16	-0.09	0.00	0.00	0.00	0.00	0.00	0.00	0.00	0.00	0.00	0.00	0.00	0.00	0.00	0.00	0.00	0.00	0.239746	0.135254	0.733887	50.259998	-86.239998	-89.320000	0.00	0.00	0.00
0.72	16.25	14.25	10.25	10.75	3.75	6.50	1.00	6.25	2.50	2.75	2.50	2.50	6.25	4.25	0.50	0.75	-0.233887	0.094238	0.943359	-3.850000	10.080000	0.980000	1057.00	-0.15	-0.09	0.00	0.00	0.00	0.00	0.00	0.00	0.00	0.00	0.00	0.00	0.00	0.00	0.00	0.00	0.00	0.00	0.246094	0.119141	0.760742	52.290001	-96.320000	-80.639999	0.00	0.00	0.00
0.73	15.75	13.75	9.50	10.00	3.50	6.25	1.25	6.25	2.75	2.75	2.25	2.25	6.25	4.00	0.50	0.75	-0.223145	0.100098	0.947754	-3.710000	10.290000	0.980000	1022.00	-0.15	-0.09	0.00	0.00	0.00	0.00	0.00	0.00	0.00	0.00	0.00	0.00	0.00	0.00	0.00	0.00	0.00	0.00	0.215332	0.093750	0.756348	57.049999	-106.750000	-73.150002	0.00	0.00	0.00
0.74	12.50	13.25	10.00	10.00	3.50	6.00	1.25	6.25	2.75	3.00	2.50	2.25	6.25	4.50	0.50	0.75	-0.235352	0.094727	0.939941	-3.710000	10.430000	0.770000	994.00	-0.13	-0.10	0.00	0.00	0.00	0.00	0.00	0.00	0.00	0.00	0.00	0.00	0.00	0.00	0.00	0.00	0.00	0.00	0.176270	0.054199	0.760254	64.400002	-116.340004	-67.340004	0.00	0.00	0.00
0.75	14.75	13.25	10.00	10.50	3.75	6.25	1.25	6.25	2.75	2.75	2.50	2.50	6.25	4.00	0.75	1.00	-0.235352	0.095215	0.942383	-3.640000	10.290000	0.420000	1031.00	-0.14	-0.09	0.00	0.00	0.00	0.00	0.00	0.00	0.00	0.00	0.00	0.00	0.00	0.00	0.00	0.00	0.00	0.00	0.133789	-0.007324	0.797852	70.910004	-124.599998	-63.000000	0.00	0.00	0.00
0.76	14.75	13.00	9.75	10.25	4.00	6.00	1.25	6.25	3.00	2.75	2.50	2.50	6.50	4.00	0.50	0.75	-0.234863	0.099121	0.943848	-3.710000	10.010000	0.210000	1024.00	-0.14	-0.09	0.00	0.00	0.00	0.00	0.00	0.00	0.00	0.00	0.00	0.00	0.00	0.00	0.00	0.00	0.00	0.00	0.084961	-0.049805	0.845215	73.080002	-132.300003	-58.869999	0.00	0.00	0.00
0.77	14.25	12.75	9.75	10.25	4.00	6.00	1.25	6.00	3.00	3.00	2.75	2.50	6.50	4.50	0.75	1.00	-0.237793	0.089355	0.948242	-3.710000	8.330000	0.140000	1026.00	-0.13	-0.09	0.00	0.00	0.00	0.00	0.00	0.00	0.00	0.00	0.00	0.00	0.00	0.00	0.00	0.00	0.00	0.00	0.041016	-0.060059	0.885742	71.190002	-139.440002	-54.810001	0.00	0.00	0.00
0.78	14.00	12.25	9.50	10.00	4.00	5.75	1.25	6.00	3.00	3.00	2.75	2.75	6.25	4.25	0.50	1.00	-0.231445	0.095703	0.942383	-3.640000	7.280000	0.210000	1005.00	-0.13	-0.09	0.00	0.00	0.00	0.00	0.00	0.00	0.00	0.00	0.00	0.00	0.00	0.00	0.00	0.00	0.00	0.00	0.006348	-0.058105	0.926758	69.440002	-146.509995	-50.049999	0.00	0.00	0.00
0.79	13.75	12.00	9.50	10.00	3.75	6.00	1.25	6.00	3.50	3.00	2.50	2.50	6.75	4.50	0.75	0.75	-0.235840	0.093262	0.942383	-3.850000	6.440000	0.070000	1009.00	-0.13	-0.09	0.00	0.00	0.00	0.00	0.00	0.00	0.00	0.00	0.00	0.00	0.00	0.00	0.00	0.00	0.00	0.00	-0.037598	-0.051270	0.960449	70.349998	-152.529999	-44.799999	0.00	0.00	0.00
0.80	13.75	12.00	9.50	10.00	4.25	6.00	1.50	6.00	3.50	3.00	2.75	2.75	6.75	4.50	0.75	0.75	-0.234863	0.087402	0.947754	-3.990000	5.320000	0.070000	1025.00	-0.12	-0.09	0.00	0.00	0.00	0.00	0.00	0.00	0.00	0.00	0.00	0.00	0.00	0.00	0.00	0.00	0.00	0.00	-0.092285	-0.053223	0.999512	73.430000	-157.639999	-38.500000	0.00	0.00	0.00
0.81	13.25	12.25	9.50	10.00	4.00	6.00	1.75	6.25	3.25	3.00	2.50	2.50	7.25	4.25	0.75	1.00	-0.244141	0.092773	0.947266	-3.990000	4.200000	0.140000	1022.00	-0.12	-0.09	0.00	0.00	0.00	0.00	0.00	0.00	0.00	0.00	0.00	0.00	0.00	0.00	0.00	0.00	0.00	0.00	-0.153320	-0.061035	1.031738	75.040001	-161.419998	-30.380001	0.00	0.00	0.00
0.82	13.00	12.00	9.25	9.75	4.00	6.00	1.75	6.25	3.50	3.25	3.00	2.75	7.25	4.25	0.75	0.75	-0.238770	0.084961	0.948730	-3.850000	3.500000	0.280000	1024.00	-0.12	-0.09	0.00	0.00	0.00	0.00	0.00	0.00	0.00	0.00	0.00	0.00	0.00	0.00	0.00	0.00	0.00	0.00	-0.283691	-0.017090	1.102051	73.080002	-164.779999	-7.560000	0.00	0.00	0.00
0.83	13.00	11.75	9.50	10.00	4.50	6.00	2.00	6.50	3.75	3.00	2.75	3.00	7.25	4.75	0.75	1.00	-0.239746	0.094727	0.943848	-3.500000	2.870000	0.490000	1049.00	-0.11	-0.09	0.00	0.00	0.00	0.00	0.00	0.00	0.00	0.00	0.00	0.00	0.00	0.00	0.00	0.00	0.00	0.00	-0.348633	0.013672	1.115234	70.699997	-164.919998	7.840000	0.00	0.00	0.00
0.84	13.50	12.00	9.50	10.00	4.50	6.00	2.00	6.50	4.00	2.75	3.00	3.00	7.50	4.75	0.50	1.00	-0.234863	0.091797	0.945801	-3.150000	2.800000	0.490000	1060.00	-0.11	-0.09	0.00	0.00	0.00	0.00	0.00	0.00	0.00	0.00	0.00	0.00	0.00	0.00	0.00	0.00	0.00	0.00	-0.395020	0.051270	1.119629	66.220001	-163.589996	25.270000	0.00	0.00	0.00
0.85	13.25	10.75	9.50	9.75	4.00	5.50	2.00	7.25	5.00	4.50	4.00	4.25	9.00	6.00	1.50	1.75	-0.230957	0.088867	0.944336	-3.150000	3.290000	0.490000	1144.00	-0.07	-0.09	0.00	0.00	0.00	0.00	0.00	0.00	0.00	0.00	0.00	0.00	0.00	0.00	0.00	0.00	0.00	0.00	-0.422363	0.083008	1.118652	61.459999	-160.930008	44.799999	0.00	0.00	0.00
0.86	16.25	13.75	10.75	11.25	5.75	7.75	2.75	7.75	5.25	4.50	4.50	4.75	9.25	6.00	1.75	2.25	-0.231445	0.091797	0.949219	-2.940000	3.640000	0.420000	1333.00	-0.09	-0.09	0.00	0.00	0.00	0.00	0.00	0.00	0.00	0.00	0.00	0.00	0.00	0.00	0.00	0.00	0.00	0.00	-0.438477	0.109375	1.129883	57.750000	-156.100006	64.750000	0.00	0.00	0.00
0.87	16.25	14.00	11.00	11.00	6.00	7.75	3.00	7.75	5.25	4.50	4.50	4.75	9.25	6.25	1.75	2.00	-0.235840	0.094727	0.949219	-2.590000	3.780000	0.350000	1343.00	-0.09	-0.08	0.00	0.00	0.00	0.00	0.00	0.00	0.00	0.00	0.00	0.00	0.00	0.00	0.00	0.00	0.00	0.00	-0.453125	0.101562	1.168945	55.720001	-151.059998	83.790001	0.00	0.00	0.00
0.88	15.75	13.50	10.75	11.00	5.75	7.75	2.75	7.75	5.50	5.25	4.50	5.00	9.50	6.00	2.00	2.00	-0.232422	0.095703	0.948730	-2.380000	4.060000	0.210000	1340.00	-0.08	-0.09	0.00	0.00	0.00	0.00	0.00	0.00	0.00	0.00	0.00	0.00	0.00	0.00	0.00	0.00	0.00	0.00	-0.482422	0.055176	1.193359	53.200001	-145.460007	100.379997	0.00	0.00	0.00
0.89	15.50	13.25	10.75	11.00	5.75	7.75	3.00	8.00	5.50	5.25	4.75	5.00	9.50	6.25	2.00	2.25	-0.230469	0.095703	0.952637	-2.310000	4.550000	0.140000	1350.00	-0.08	-0.09	0.00	0.00	0.00	0.00	0.00	0.00	0.00	0.00	0.00	0.00	0.00	0.00	0.00	0.00	0.00	0.00	-0.520508	0.008789	1.220703	48.650002	-139.160004	113.680000	0.00	0.00	0.00
0.90	15.25	13.25	10.50	10.75	6.00	8.00	3.00	7.75	6.00	5.25	5.25	5.50	9.75	6.50	2.00	2.25	-0.232910	0.093262	0.956543	-2.170000	5.110000	0.140000	1366.00	-0.07	-0.09	0.00	0.00	0.00	0.00	0.00	0.00	0.00	0.00	0.00	0.00	0.00	0.00	0.00	0.00	0.00	0.00	-0.567871	-0.023438	1.242188	42.139999	-132.300003	123.410004	0.00	0.00	0.00
0.91	15.25	13.00	10.50	10.75	5.75	8.00	3.25	8.00	6.00	5.50	5.00	5.75	9.75	6.25	2.00	2.25	-0.231445	0.092773	0.952637	-2.450000	6.090000	-0.140000	1370.00	-0.07	-0.09	0.00	0.00	0.00	0.00	0.00	0.00	0.00	0.00	0.00	0.00	0.00	0.00	0.00	0.00	0.00	0.00	-0.605957	-0.033691	1.250488	33.950001	-124.739998	130.690002	0.00	0.00	0.00
0.92	14.75	12.75	10.50	10.75	6.00	7.75	3.25	8.00	6.00	6.00	5.50	5.50	10.00	6.50	2.00	2.00	-0.236816	0.090820	0.949707	-2.450000	6.090000	-0.140000	1373.00	-0.07	-0.09	0.00	0.00	0.00	0.00	0.00	0.00	0.00	0.00	0.00	0.00	0.00	0.00	0.00	0.00	0.00	0.00	-0.696289	-0.014160	1.342773	18.340000	-107.590004	140.350006	0.00	0.00	0.00
0.93	14.25	12.50	10.25	10.75	6.00	8.00	3.25	8.00	6.25	5.75	5.25	6.25	10.00	6.50	2.00	2.25	-0.235840	0.093262	0.947266	-2.940000	5.740000	0.420000	1373.00	-0.06	-0.09	0.00	0.00	0.00	0.00	0.00	0.00	0.00	0.00	0.00	0.00	0.00	0.00	0.00	0.00	0.00	0.00	-0.696289	-0.014160	1.342773	18.340000	-107.590004	140.350006	0.00	0.00	0.00
0.94	14.75	12.75	10.25	10.50	6.25	8.00	3.50	8.00	6.25	5.75	5.75	6.25	10.00	6.75	2.25	2.00	-0.231934	0.092285	0.950195	-3.150000	5.390000	0.770000	1395.00	-0.06	-0.08	0.00	0.00	0.00	0.00	0.00	0.00	0.00	0.00	0.00	0.00	0.00	0.00	0.00	0.00	0.00	0.00	-0.787109	-0.052734	1.487305	-7.210000	-96.669998	146.580002	0.00	0.00	0.00
0.95	14.50	12.50	10.50	10.50	6.25	7.75	3.50	8.00	6.50	6.00	5.75	6.50	10.25	6.75	2.25	2.50	-0.235352	0.096680	0.953613	-3.430000	5.250000	0.630000	1404.00	-0.06	-0.08	0.00	0.00	0.00	0.00	0.00	0.00	0.00	0.00	0.00	0.00	0.00	0.00	0.00	0.00	0.00	0.00	-0.835938	-0.039551	1.513672	-23.520000	-96.879997	148.119995	0.00	0.00	0.00
0.96	14.25	12.50	10.25	10.50	6.00	7.75	3.50	8.00	6.75	6.25	5.75	6.75	10.25	7.00	2.00	2.25	-0.235840	0.098145	0.952637	-3.710000	5.740000	0.490000	1402.00	-0.05	-0.08	0.00	0.00	0.00	0.00	0.00	0.00	0.00	0.00	0.00	0.00	0.00	0.00	0.00	0.00	0.00	0.00	-0.884277	-0.000977	1.501953	-36.189999	-99.959999	148.470001	0.00	0.00	0.00
0.97	14.00	12.50	10.25	10.50	6.25	7.75	3.75	8.00	6.75	6.50	6.25	6.75	10.50	6.75	2.25	2.50	-0.240723	0.095215	0.956055	-3.500000	6.230000	0.420000	1420.00	-0.05	-0.08	0.00	0.00	0.00	0.00	0.00	0.00	0.00	0.00	0.00	0.00	0.00	0.00	0.00	0.00	0.00	0.00	-0.929688	0.034668	1.427246	-41.720001	-104.860001	147.350006	0.00	0.00	0.00
0.98	14.25	12.25	10.25	10.25	6.25	7.75	3.75	8.00	7.00	6.50	6.50	7.00	10.25	6.75	2.00	2.25	-0.240723	0.089844	0.955078	-2.870000	6.300000	0.560000	1419.00	-0.05	-0.08	0.00	0.00	0.00	0.00	0.00	0.00	0.00	0.00	0.00	0.00	0.00	0.00	0.00	0.00	0.00	0.00	-0.975098	0.042480	1.316406	-39.480000	-108.849998	144.759995	0.00	0.00	0.00
0.99	13.75	12.00	10.00	10.25	6.25	7.75	4.00	8.25	6.75	6.50	6.25	7.00	10.50	6.75	2.00	2.50	-0.239746	0.094238	0.951172	-2.380000	6.230000	0.700000	1414.00	-0.05	-0.09	0.00	0.00	0.00	0.00	0.00	0.00	0.00	0.00	0.00	0.00	0.00	0.00	0.00	0.00	0.00	0.00	-0.998047	0.011230	1.180176	-32.830002	-110.110001	140.699997	0.00	0.00	0.00
1.00	13.75	12.00	10.00	10.25	6.25	7.75	3.75	8.00	6.75	6.75	6.25	7.25	9.75	5.75	1.00	2.50	-0.238281	0.094727	0.947754	-2.240000	5.810000	0.980000	1384.00	-0.06	-0.09	0.00	0.00	0.00	0.00	0.00	0.00	0.00	0.00	0.00	0.00	0.00	0.00	0.00	0.00	0.00	0.00	-1.014648	-0.041016	1.048828	-26.809999	-107.169998	134.539993	0.00	0.00	0.00
1.01	12.25	10.00	9.00	9.25	5.50	7.00	3.75	8.00	6.00	6.00	5.75	6.25	9.75	6.00	1.75	2.00	-0.245117	0.095703	0.952148	-2.940000	5.180000	1.120000	1276.00	-0.04	-0.09	0.00	0.00	0.00	0.00	0.00	0.00	0.00	0.00	0.00	0.00	0.00	0.00	0.00	0.00	0.00	0.00	-1.018066	-0.095215	0.918457	-23.940001	-100.309998	125.860001	0.00	0.00	0.00
1.02	10.75	11.50	8.75	10.25	6.25	7.75	3.50	8.00	7.00	7.00	7.00	7.25	10.00	5.50	1.75	2.25	-0.245605	0.105469	0.955566	-4.200000	4.620000	1.120000	1347.00	-0.04	-0.09	0.00	0.00	0.00	0.00	0.00	0.00	0.00	0.00	0.00	0.00	0.00	0.00	0.00	0.00	0.00	0.00	-1.025391	-0.115234	0.816895	-22.680000	-90.440002	114.660004	0.00	0.00	0.00
1.03	14.50	12.50	10.50	10.50	6.00	7.75	3.75	8.00	7.00	6.25	6.50	7.00	10.00	6.25	2.00	2.25	-0.255371	0.092773	0.950195	-5.180000	2.590000	0.910000	1418.00	-0.06	-0.08	0.00	0.00	0.00	0.00	0.00	0.00	0.00	0.00	0.00	0.00	0.00	0.00	0.00	0.00	0.00	0.00	-1.040527	-0.134766	0.751465	-20.020000	-79.029999	100.519997	0.00	0.00	0.00
1.04	15.00	12.75	10.75	10.75	6.25	7.75	3.75	7.75	6.25	6.25	5.75	6.50	9.75	6.25	2.00	2.00	-0.249512	0.087891	0.947754	-5.740000	-0.000000	1.120000	1402.00	-0.06	-0.08	0.00	0.00	0.00	0.00	0.00	0.00	0.00	0.00	0.00	0.00	0.00	0.00	0.00	0.00	0.00	0.00	-1.062988	-0.183594	0.698242	-12.600000	-67.690002	82.320000	0.00	0.00	0.00
1.05	16.25	13.00	10.75	11.00	6.25	7.25	3.50	7.75	6.50	6.00	5.75	6.25	8.75	5.50	1.50	1.75	-0.252441	0.090820	0.953613	-5.880000	-1.750000	1.190000	1386.00	-0.08	-0.08	0.00	0.00	0.00	0.00	0.00	0.00	0.00	0.00	0.00	0.00	0.00	0.00	0.00	0.00	0.00	0.00	-1.046875	-0.266113	0.678711	-0.420000	-58.660000	59.920002	0.00	0.00	0.00
1.06	13.00	13.25	10.00	11.00	6.25	8.00	3.50	7.50	5.75	6.00	5.75	6.00	9.25	5.75	1.50	0.75	-0.239746	0.084961	0.947266	-6.090000	-2.170000	0.770000	1335.00	-0.07	-0.09	0.00	0.00	0.00	0.00	0.00	0.00	0.00	0.00	0.00	0.00	0.00	0.00	0.00	0.00	0.00	0.00	-0.771484	-0.514648	0.636719	16.379999	-39.619999	13.650000	0.00	0.00	0.00
1.07	16.75	14.25	11.25	10.25	6.00	7.75	3.25	7.50	6.00	6.00	5.50	5.75	8.75	5.50	2.00	1.50	-0.235352	0.083008	0.956055	-5.880000	-1.260000	0.420000	1385.00	-0.08	-0.08	0.00	0.00	0.00	0.00	0.00	0.00	0.00	0.00	0.00	0.00	0.00	0.00	0.00	0.00	0.00	0.00	-0.572754	-0.553711	0.644043	3.920000	-25.760000	-1.540000	0.00	0.00	0.00
1.08	16.50	13.25	10.25	10.50	5.25	7.00	2.75	7.00	5.75	5.50	4.50	5.00	7.75	4.50	0.50	0.50	-0.221191	0.087402	0.956543	-5.670000	-0.350000	-0.210000	1257.00	-0.10	-0.08	0.00	0.00	0.00	0.00	0.00	0.00	0.00	0.00	0.00	0.00	0.00	0.00	0.00	0.00	0.00	0.00	-0.370605	-0.445312	0.703125	-20.510000	-10.640000	-10.640000	0.00	0.00	0.00
1.09	15.50	13.50	10.25	10.50	5.50	6.75	2.75	6.50	4.75	5.50	4.25	4.00	7.50	4.75	0.75	0.50	-0.223633	0.085938	0.950195	-5.740000	0.980000	-1.120000	1214.00	-0.10	-0.08	0.00	0.00	0.00	0.00	0.00	0.00	0.00	0.00	0.00	0.00	0.00	0.00	0.00	0.00	0.00	0.00	-0.205566	-0.263672	0.777832	-45.920002	1.960000	-14.420000	0.00	0.00	0.00
1.10	16.50	14.25	12.00	11.75	5.25	7.25	2.75	6.00	5.00	5.00	3.75	3.25	7.00	3.75	0.50	0.25	-0.215332	0.082031	0.929199	-5.880000	2.100000	-1.960000	1229.00	-0.13	-0.07	0.00	0.00	0.00	0.00	0.00	0.00	0.00	0.00	0.00	0.00	0.00	0.00	0.00	0.00	0.00	0.00	-0.075684	-0.069336	0.884277	-60.970001	9.450000	-14.700000	0.00	0.00	0.00
1.11	17.00	13.75	11.00	10.75	5.50	6.75	2.75	5.75	4.75	4.75	3.75	3.25	6.75	4.00	0.50	0.00	-0.205078	0.083008	0.919434	-6.090000	3.150000	-2.520000	1190.00	-0.13	-0.07	0.00	0.00	0.00	0.00	0.00	0.00	0.00	0.00	0.00	0.00	0.00	0.00	0.00	0.00	0.00	0.00	0.020996	0.092285	0.972168	-61.250000	9.240000	-12.600000	0.00	0.00	0.00
1.12	17.25	14.25	10.75	10.75	5.50	6.50	2.75	5.75	4.50	4.75	3.50	3.25	6.75	3.75	0.25	0.25	-0.188477	0.098633	0.936523	-6.160000	4.130000	-2.800000	1182.00	-0.13	-0.07	0.00	0.00	0.00	0.00	0.00	0.00	0.00	0.00	0.00	0.00	0.00	0.00	0.00	0.00	0.00	0.00	0.069824	0.195801	1.038574	-50.400002	1.330000	-8.680000	0.00	0.00	0.00
1.13	17.00	14.00	10.75	10.50	5.50	6.50	3.00	5.75	4.50	4.75	3.50	3.25	6.75	3.75	0.50	0.25	-0.225098	0.091309	0.953125	-6.160000	5.040000	-3.150000	1180.00	-0.13	-0.07	0.00	0.00	0.00	0.00	0.00	0.00	0.00	0.00	0.00	0.00	0.00	0.00	0.00	0.00	0.00	0.00	0.059082	0.239258	1.106934	-34.860001	-12.390000	-3.080000	0.00	0.00	0.00
1.14	17.00	13.75	10.75	10.50	5.50	6.25	3.00	5.75	4.75	5.00	3.75	3.25	6.75	3.75	0.50	0.25	-0.225586	0.079102	0.947266	-6.160000	5.740000	-2.800000	1184.00	-0.12	-0.07	0.00	0.00	0.00	0.00	0.00	0.00	0.00	0.00	0.00	0.00	0.00	0.00	0.00	0.00	0.00	0.00	0.023926	0.239746	1.163574	-21.420000	-29.750000	4.900000	0.00	0.00	0.00
1.15	17.00	13.50	10.50	10.25	5.25	6.25	3.25	5.75	4.75	5.00	3.75	3.50	6.50	3.75	0.50	0.00	-0.227539	0.083984	0.945801	-6.020000	6.020000	-2.380000	1176.00	-0.12	-0.06	0.00	0.00	0.00	0.00	0.00	0.00	0.00	0.00	0.00	0.00	0.00	0.00	0.00	0.00	0.00	0.00	0.003418	0.180664	1.150879	-16.100000	-47.250000	15.260000	0.00	0.00	0.00
1.16	16.75	13.50	10.75	10.25	5.50	6.00	3.25	5.50	5.00	5.00	3.50	3.50	7.50	5.00	1.50	1.00	-0.226562	0.083496	0.949707	-6.160000	6.370000	-2.170000	1211.00	-0.11	-0.06	0.00	0.00	0.00	0.00	0.00	0.00	0.00	0.00	0.00	0.00	0.00	0.00	0.00	0.00	0.00	0.00	-0.049805	0.126953	1.110840	-19.460001	-62.230000	26.880001	0.00	0.00	0.00
1.17	19.00	15.00	11.50	10.00	5.50	6.00	3.50	5.50	5.00	5.25	3.75	3.50	6.75	3.75	0.50	0.25	-0.232910	0.080566	0.959473	-6.160000	6.580000	-1.960000	1233.00	-0.13	-0.06	0.00	0.00	0.00	0.00	0.00	0.00	0.00	0.00	0.00	0.00	0.00	0.00	0.00	0.00	0.00	0.00	-0.175293	0.041504	0.896973	-33.040001	-80.290001	44.799999	0.00	0.00	0.00
1.18	18.50	12.75	10.25	9.75	5.50	5.75	3.50	5.50	5.25	5.25	4.00	3.50	7.25	4.50	1.50	0.50	-0.234375	0.080566	0.954590	-6.090000	6.720000	-1.750000	1214.00	-0.11	-0.06	0.00	0.00	0.00	0.00	0.00	0.00	0.00	0.00	0.00	0.00	0.00	0.00	0.00	0.00	0.00	0.00	-0.264160	-0.032715	0.766113	-35.420002	-80.989998	46.830002	0.00	0.00	0.00
1.19	13.75	12.00	11.25	9.75	5.75	6.50	4.00	5.75	5.50	5.50	3.75	4.25	7.25	4.00	0.50	0.00	-0.236816	0.087891	0.956055	-5.250000	7.000000	-1.400000	1183.00	-0.10	-0.06	0.00	0.00	0.00	0.00	0.00	0.00	0.00	0.00	0.00	0.00	0.00	0.00	0.00	0.00	0.00	0.00	-0.364258	-0.129883	0.641113	-36.610001	-75.320000	42.349998	0.00	0.00	0.00
1.20	16.00	12.50	10.25	10.00	6.50	6.25	4.00	6.00	5.50	7.25	5.00	4.75	6.75	4.00	1.50	1.00	-0.236816	0.087891	0.956055	-5.250000	7.000000	-1.400000	1267.00	-0.09	-0.06	0.00	0.00	0.00	0.00	0.00	0.00	0.00	0.00	0.00	0.00	0.00	0.00	0.00	0.00	0.00	0.00	-0.464355	-0.215820	0.536133	-37.939999	-63.840000	31.639999	0.00	0.00	0.00
1.21	18.75	13.00	10.00	9.75	5.50	5.50	4.25	6.25	6.00	6.00	4.25	4.50	7.75	4.00	1.00	0.25	-0.231445	0.082031	0.949707	-5.110000	7.140000	-1.400000	1265.00	-0.10	-0.06	0.00	0.00	0.00	0.00	0.00	0.00	0.00	0.00	0.00	0.00	0.00	0.00	0.00	0.00	0.00	0.00	-0.549805	-0.261230	0.467773	-39.970001	-47.950001	15.330000	0.00	0.00	0.00
1.22	14.25	14.00	10.75	9.25	6.00	5.75	4.25	5.75	6.25	6.75	4.25	4.50	7.25	4.75	0.75	0.25	-0.233398	0.083008	0.952148	-5.250000	7.000000	-0.840000	1240.00	-0.09	-0.06	0.00	0.00	0.00	0.00	0.00	0.00	0.00	0.00	0.00	0.00	0.00	0.00	0.00	0.00	0.00	0.00	-0.605957	-0.261230	0.428223	-42.070000	-29.260000	-4.760000	0.00	0.00	0.00
1.23	16.00	12.25	10.25	9.50	5.25	5.75	4.00	5.50	6.00	6.50	4.00	4.00	7.50	5.00	0.75	0.25	-0.234375	0.072266	0.940918	-5.320000	6.930000	-0.560000	1211.00	-0.09	-0.05	0.00	0.00	0.00	0.00	0.00	0.00	0.00	0.00	0.00	0.00	0.00	0.00	0.00	0.00	0.00	0.00	-0.645996	-0.196777	0.451172	-41.790001	-10.290000	-24.639999	0.00	0.00	0.00
1.24	14.75	12.50	10.00	9.25	5.75	5.00	4.25	5.25	6.25	6.50	4.25	5.00	8.25	5.25	1.75	1.00	-0.222656	0.076172	0.945312	-5.250000	6.650000	-0.350000	1234.00	-0.07	-0.06	0.00	0.00	0.00	0.00	0.00	0.00	0.00	0.00	0.00	0.00	0.00	0.00	0.00	0.00	0.00	0.00	-0.670410	-0.095215	0.518066	-37.939999	6.160000	-40.740002	0.00	0.00	0.00
1.25	15.25	11.75	9.50	9.25	5.75	5.25	4.50	5.25	6.00	6.75	4.25	4.25	7.50	4.75	1.00	0.25	-0.229980	0.074219	0.944824	-4.690000	6.580000	-0.210000	1199.00	-0.08	-0.05	0.00	0.00	0.00	0.00	0.00	0.00	0.00	0.00	0.00	0.00	0.00	0.00	0.00	0.00	0.00	0.00	-0.698730	0.003418	0.622559	-30.590000	18.200001	-51.170002	0.00	0.00	0.00
1.26	18.00	13.50	11.50	10.00	6.50	6.00	5.00	6.25	7.50	7.50	5.75	5.00	8.00	4.75	0.75	0.50	-0.230957	0.072754	0.937988	-3.430000	6.860000	0.070000	1383.00	-0.08	-0.05	0.00	0.00	0.00	0.00	0.00	0.00	0.00	0.00	0.00	0.00	0.00	0.00	0.00	0.00	0.00	0.00	-0.715820	0.072266	0.670410	-22.260000	25.620001	-56.349998	0.00	0.00	0.00
1.27	16.25	12.50	9.75	9.00	5.75	5.25	4.75	5.75	6.75	7.50	5.25	4.75	8.50	5.00	1.00	0.50	-0.229004	0.066895	0.940918	-1.540000	7.140000	0.560000	1280.00	-0.07	-0.05	0.00	0.00	0.00	0.00	0.00	0.00	0.00	0.00	0.00	0.00	0.00	0.00	0.00	0.00	0.00	0.00	-0.745605	0.128418	0.659180	-17.010000	31.010000	-58.660000	0.00	0.00	0.00
1.28	14.00	11.00	9.75	9.00	5.75	5.25	5.00	6.00	7.00	7.50	5.50	5.00	8.50	5.00	1.00	1.25	-0.219238	0.073730	0.952148	-0.770000	8.960000	0.910000	1261.00	-0.06	-0.06	0.00	0.00	0.00	0.00	0.00	0.00	0.00	0.00	0.00	0.00	0.00	0.00	0.00	0.00	0.00	0.00	-0.845215	0.153809	0.513672	-6.580000	48.299999	-63.070000	0.00	0.00	0.00
1.29	14.75	11.50	10.25	9.50	6.75	6.00	5.25	6.25	7.25	7.75	6.25	6.00	8.75	5.25	1.00	1.00	-0.221680	0.076660	0.950195	-0.560000	11.900000	0.490000	1346.00	-0.06	-0.06	0.00	0.00	0.00	0.00	0.00	0.00	0.00	0.00	0.00	0.00	0.00	0.00	0.00	0.00	0.00	0.00	-0.845215	0.153809	0.513672	-6.580000	48.299999	-63.070000	0.00	0.00	0.00
1.30	11.00	9.50	9.00	8.50	5.50	4.75	5.00	6.25	8.25	8.50	7.50	7.50	10.25	6.50	2.25	2.00	-0.236816	0.067871	0.948730	-0.070000	15.680000	-0.140000	1322.00	-0.01	-0.06	0.00	0.00	0.00	0.00	0.00	0.00	0.00	0.00	0.00	0.00	0.00	0.00	0.00	0.00	0.00	0.00	-0.894531	0.588379	0.480469	70.699997	104.230003	-87.779999	0.00	0.00	0.00
1.31	13.25	10.25	9.75	8.75	6.00	5.75	5.50	7.25	8.50	8.75	8.00	8.00	10.50	7.00	2.75	2.00	-0.235352	0.084961	0.965820	0.700000	19.320000	-0.980000	1441.00	-0.02	-0.06	0.25	0.25	0.00	0.00	0.00	0.00	0.00	0.00	0.00	0.00	0.00	0.00	0.00	0.00	0.00	0.00	0.209473	-0.035645	0.374512	89.529999	138.320007	-91.419998	5.00	0.00	0.00
1.32	11.25	9.25	8.75	8.50	6.00	5.00	5.25	7.00	8.75	9.00	8.25	8.25	10.75	7.50	2.50	2.25	-0.200195	0.085938	0.979980	0.700000	23.590000	-2.100000	1394.00	-0.00	-0.07	0.75	0.50	0.00	0.00	0.00	0.00	0.00	0.00	0.00	0.00	0.00	0.00	0.00	0.00	0.00	0.00	0.096191	0.252930	1.077637	60.830002	153.020004	-96.180000	14.00	0.00	0.00
1.33	8.50	7.50	7.75	6.75	5.00	4.50	5.25	6.75	8.25	8.75	8.00	7.75	10.25	7.00	2.00	1.50	-0.247559	0.091309	0.969238	0.770000	28.420000	-3.220000	1252.00	0.02	-0.07	2.25	1.00	0.25	0.25	0.00	0.00	0.00	0.00	0.00	0.00	0.00	0.00	0.00	0.00	0.00	0.00	0.065918	0.558594	0.973633	57.119999	138.809998	-93.940002	42.00	0.00	0.00
1.34	7.00	6.75	7.25	6.25	4.25	2.75	5.25	6.25	8.50	9.00	8.25	8.50	10.50	7.75	2.00	1.25	-0.274414	0.047852	0.953125	0.700000	33.599998	-4.340000	1203.00	0.04	-0.06	2.75	1.25	0.50	0.25	0.00	0.00	0.00	0.00	0.00	0.00	0.00	0.00	0.00	0.00	0.00	0.00	-0.182129	0.633789	0.875000	96.669998	137.339996	-75.879997	53.00	-0.38	0.02
1.35	6.25	6.00	6.50	5.50	4.00	1.75	5.25	6.00	8.75	9.50	8.75	8.50	10.50	8.25	2.25	2.00	-0.271973	0.112305	0.979004	0.840000	39.340000	-5.040000	1176.00	0.06	-0.06	3.75	1.75	1.25	0.50	0.00	0.00	0.00	0.00	0.00	0.00	0.00	0.00	0.00	0.00	0.00	0.00	-0.364258	0.788574	1.074707	132.089996	166.110001	-48.230000	81.00	-0.37	0.02
1.36	5.25	5.50	5.75	5.00	3.00	1.25	5.00	5.50	9.00	10.00	9.00	8.75	10.75	9.00	2.75	1.75	-0.265625	0.154297	0.915527	0.070000	54.250000	-11.410000	1143.00	0.08	-0.06	5.00	3.25	2.75	1.50	0.75	0.00	0.25	0.00	0.00	0.00	0.00	0.00	0.00	0.00	0.00	0.00	-0.222656	0.418945	1.029785	88.690002	218.610001	-41.650002	154.00	-0.33	0.01
1.37	5.00	5.00	5.25	4.25	2.00	0.50	5.00	5.00	9.25	10.00	9.25	9.00	10.75	9.75	2.75	2.50	-0.253906	0.027832	0.991211	-3.150000	71.540001	-14.140000	1111.00	0.10	-0.05	6.00	4.50	4.00	2.75	1.25	0.00	0.25	0.25	0.25	0.00	0.00	0.00	0.00	0.50	0.00	0.00	-0.125977	-0.151367	1.134277	6.510000	44.099998	-3.640000	226.00	-0.30	-0.00
1.38	3.50	4.00	4.25	3.00	1.50	0.75	4.50	3.50	9.50	10.25	9.50	9.00	10.25	10.50	2.75	2.25	-0.294434	0.053711	0.952637	7.420000	98.699997	-14.910000	1031.00	0.12	-0.04	7.50	5.75	5.25	3.50	1.50	0.25	0.50	0.25	0.00	0.00	0.25	0.25	0.00	0.50	0.00	0.00	-0.910156	-0.144531	1.692383	-37.380001	-8.820000	-1.260000	293.00	-0.30	-0.01
1.39	3.00	4.00	3.50	3.00	0.75	0.25	3.75	2.25	9.50	10.50	9.75	8.75	9.75	11.00	3.00	2.25	-0.345215	0.121582	1.017090	23.240000	132.649994	-17.430000	974.00	0.14	-0.04	8.75	6.50	5.50	3.50	1.25	0.00	0.25	0.50	0.25	0.25	0.25	0.25	0.00	0.25	0.00	0.00	-0.407227	0.088867	1.205078	-43.470001	4.410000	-6.720000	315.00	-0.30	-0.01
1.40	3.00	2.50	3.75	2.00	0.50	0.00	2.75	1.50	9.75	10.75	9.75	8.75	9.00	12.00	3.00	2.50	-0.395020	0.162109	1.320801	36.820000	197.190002	-21.139999	925.00	0.16	-0.03	8.75	6.50	5.50	3.50	1.50	0.00	0.25	0.25	0.25	0.25	0.25	0.00	0.00	0.75	0.00	0.00	-0.104980	0.122559	1.045410	-16.240000	-0.280000	-0.210000	316.00	-0.30	-0.00
1.41	1.75	2.50	2.25	2.00	0.75	0.00	2.00	1.25	9.75	10.75	9.50	8.50	7.75	12.50	3.25	2.25	-0.386719	0.141113	1.374512	18.059999	252.419998	-30.240000	867.00	0.18	-0.02	8.75	7.00	5.50	3.75	1.50	0.25	0.50	0.50	0.00	0.25	0.25	0.25	0.00	0.75	0.00	0.00	-0.091309	0.005371	0.898438	-5.040000	2.940000	1.540000	335.00	-0.29	-0.02
1.42	2.00	2.50	2.25	2.25	0.50	0.00	1.00	1.00	9.50	10.50	9.25	7.75	6.25	13.25	3.25	2.25	-0.493164	0.190430	1.367676	-7.490000	291.970001	-39.970001	824.00	0.18	-0.02	9.25	7.00	5.50	3.50	1.50	0.00	0.25	0.50	0.00	0.50	0.50	0.25	0.00	0.75	0.00	0.00	-0.224121	0.145996	0.916504	-4.060000	-2.030000	2.660000	336.00	-0.29	-0.01
1.43	1.50	2.00	1.25	2.25	0.50	0.00	0.50	0.50	9.50	10.50	9.00	7.50	4.25	13.50	3.00	1.50	-0.549316	0.231445	1.434570	-37.730000	310.309998	-50.119999	755.00	0.20	-0.00	10.25	7.50	5.75	4.25	1.75	0.25	0.50	0.50	0.00	0.50	0.50	0.50	0.00	0.75	0.00	0.00	-0.157715	0.103027	0.937500	-9.520000	-5.880000	2.170000	377.00	-0.28	-0.02
1.44	1.50	2.25	1.50	2.50	0.00	0.75	0.00	0.25	9.25	10.25	8.50	5.75	2.00	13.50	2.75	1.00	-0.508789	0.120117	1.513672	-63.209999	328.510010	-58.380001	695.00	0.20	0.02	11.75	8.50	6.50	5.00	2.00	0.50	0.50	0.50	0.00	0.50	0.50	0.25	0.25	0.75	0.00	0.00	-0.176758	0.097656	0.938965	-13.300000	-10.360000	0.560000	428.00	-0.29	-0.02
1.45	1.25	2.50	1.25	1.25	0.25	0.00	0.00	0.25	8.75	10.00	8.00	4.75	0.00	13.25	2.50	0.75	-0.772461	0.146973	1.245605	-86.309998	361.200012	-65.169998	618.00	0.21	0.04	13.50	9.75	7.50	5.50	2.25	0.50	0.50	0.75	0.25	0.50	0.50	0.50	0.00	0.75	0.00	0.00	-0.205566	0.126465	0.963867	-15.050000	-13.860000	-0.350000	490.00	-0.29	-0.02
1.46	1.25	2.25	1.00	0.50	0.00	0.00	0.00	0.25	8.25	9.25	7.00	3.00	0.00	12.75	2.00	0.00	-0.639648	0.272949	1.858398	-90.790001	376.600006	-72.379997	538.00	0.22	0.06	15.25	11.50	8.25	6.00	2.25	0.50	0.50	0.75	0.25	0.75	0.50	0.75	0.25	1.00	0.00	0.00	-0.205566	0.110840	0.961426	-14.770000	-15.820000	-0.490000	553.00	-0.29	-0.02
1.47	0.25	1.75	0.50	0.50	0.00	0.25	0.00	0.00	7.50	8.75	5.75	2.00	0.00	11.75	1.75	0.00	-0.673340	0.148438	1.632812	-101.360001	393.190002	-79.660004	460.00	0.24	0.08	17.50	13.75	9.25	7.25	2.25	1.00	0.75	1.00	0.00	0.75	0.50	0.50	0.75	1.00	0.25	0.00	-0.192871	0.087891	0.972168	-12.600000	-17.080000	-0.140000	643.00	-0.29	-0.03
1.48	0.50	2.00	0.75	0.00	0.00	0.25	0.00	0.00	6.00	8.25	4.75	1.75	0.00	10.50	1.25	0.00	-1.028320	0.269531	1.775879	-108.360001	411.600006	-86.239998	404.00	0.23	0.08	19.50	16.00	9.50	8.00	2.75	1.25	0.75	1.25	0.50	0.75	0.50	0.50	0.50	1.25	0.25	0.00	-0.185547	0.097168	0.975098	-9.940000	-17.360001	0.490000	721.00	-0.29	-0.03
1.49	0.25	1.50	0.25	0.25	0.00	0.25	0.00	0.00	5.25	7.50	4.00	1.50	0.00	9.00	0.75	0.00	-0.805176	-0.133789	1.942383	-104.930000	418.040009	-98.980003	343.00	0.24	0.08	21.00	17.75	10.25	8.75	3.00	1.50	0.75	1.25	0.50	0.75	0.50	0.50	0.75	1.25	0.50	0.00	-0.177734	0.105469	0.973145	-7.770000	-16.450001	1.120000	785.00	-0.29	-0.03
1.50	0.50	1.75	0.25	0.75	0.25	0.00	0.00	0.00	4.25	6.50	3.25	1.00	0.00	7.50	0.25	0.00	-1.811035	0.244141	4.107910	-53.270000	369.739990	-79.519997	294.00	0.21	0.07	22.75	19.25	11.00	9.50	3.00	1.75	0.75	1.25	0.50	0.75	0.75	0.50	1.00	1.00	0.25	0.00	-0.172363	0.101074	0.960449	-6.510000	-15.540000	1.470000	841.00	-0.29	-0.04
1.51	0.50	1.75	0.75	0.00	0.00	0.00	0.00	0.00	2.50	5.25	1.50	0.75	0.00	5.50	0.00	0.00	-1.288086	0.335449	2.325195	-74.620003	326.690002	-89.110001	205.00	0.19	0.08	24.25	20.75	11.50	9.75	3.25	2.00	0.75	1.50	0.50	1.00	0.75	0.75	1.00	1.25	0.25	0.00	-0.170410	0.099609	0.969238	-6.090000	-14.210000	1.400000	900.00	-0.29	-0.04
1.52	0.75	2.00	0.50	0.50	0.00	0.00	0.00	0.00	1.50	3.75	1.75	0.75	0.00	2.25	0.00	0.00	0.173340	0.784180	1.868164	-140.210007	218.190002	-106.470001	154.00	0.10	0.03	25.00	22.00	11.75	10.50	3.50	2.00	0.75	1.50	0.50	1.00	0.75	0.75	0.75	1.25	0.50	0.00	-0.150879	0.096680	0.971191	-4.620000	-10.010000	1.470000	937.00	-0.29	-0.04
1.53	1.00	1.75	0.25	0.00	0.50	0.00	0.00	0.00	0.75	2.50	1.00	0.00	0.00	0.50	0.00	0.00	0.773438	1.017090	1.280273	-188.580002	183.539993	-102.760002	93.00	0.01	0.03	26.25	22.50	12.00	11.25	3.75	2.50	0.75	1.50	0.50	1.00	1.00	0.75	1.00	1.00	0.25	0.25	-0.150879	0.096680	0.971191	-4.620000	-10.010000	1.470000	979.00	-0.29	-0.04
1.54	1.00	0.50	0.00	0.00	0.00	0.00	0.00	0.00	0.00	2.00	0.75	0.00	0.00	0.00	0.00	0.00	1.333984	2.239258	1.993652	-194.809998	160.369995	-74.550003	48.00	0.00	0.00	26.75	23.25	12.50	11.25	3.75	2.50	0.75	1.75	0.50	1.00	0.75	0.75	1.25	1.25	0.25	0.00	-0.158691	0.097168	0.977539	-2.310000	-5.180000	1.400000	1002.00	-0.29	-0.04
1.55	1.25	0.75	0.75	0.50	0.25	0.25	0.00	0.00	0.25	2.00	0.75	0.00	0.00	0.00	0.00	0.00	0.265625	2.284668	2.886719	-75.599998	111.580002	-6.160000	78.00	-0.07	0.01	26.50	23.75	12.25	11.75	4.25	2.75	0.75	2.00	0.50	1.00	1.00	1.00	1.75	1.25	0.25	0.00	-0.156250	0.103516	0.964844	-1.610000	-3.290000	1.120000	1031.00	-0.28	-0.05
1.56	1.00	1.25	1.00	0.00	0.00	0.00	0.00	0.00	0.25	1.50	0.50	0.00	0.00	0.00	0.00	0.00	1.424805	1.088867	1.336914	-19.950001	31.920000	47.040001	62.00	-0.11	0.03	26.75	24.00	12.75	11.75	4.25	3.00	0.75	2.00	0.50	1.25	0.75	0.75	1.50	1.25	0.50	0.00	-0.155273	0.102539	0.961426	-1.260000	-1.960000	0.490000	1043.00	-0.29	-0.05
1.57	1.25	1.50	0.75	0.25	0.00	0.00	0.00	0.00	0.00	1.75	0.50	0.00	0.00	0.00	0.00	0.00	0.658203	0.869629	0.933594	-33.529999	3.990000	82.669998	67.00	-0.14	-0.00	26.75	23.75	12.50	12.00	4.25	2.75	1.00	2.00	0.50	0.75	1.25	1.00	1.50	1.25	0.25	0.00	-0.145508	0.104492	0.957520	-1.260000	-0.700000	-0.140000	1042.00	-0.28	-0.05
1.58	1.25	1.50	1.00	0.50	0.25	0.00	0.00	0.25	0.00	1.50	0.50	0.00	0.00	0.00	0.00	0.00	0.829102	0.888184	0.706055	-55.860001	3.500000	104.440002	77.00	-0.16	-0.03	26.50	23.25	12.50	12.00	4.25	3.25	1.00	2.00	0.50	1.00	1.25	1.00	1.75	1.25	0.25	0.00	-0.139648	0.102051	0.957031	-2.030000	0.070000	-0.980000	1045.00	-0.28	-0.05
1.59	1.00	1.25	0.75	1.00	0.75	0.00	0.00	0.00	0.00	1.00	0.75	0.00	0.00	0.00	0.00	0.00	0.805176	0.915527	0.993164	-41.160000	-2.380000	113.190002	74.00	-0.16	-0.03	26.00	22.75	12.75	11.75	4.75	3.25	1.00	2.25	0.75	1.25	1.25	0.75	2.00	1.50	0.25	0.00	-0.148438	0.110352	0.958496	-3.080000	0.770000	-1.610000	1053.00	-0.27	-0.05
1.60	0.75	1.25	0.75	0.25	0.00	0.00	0.00	0.00	0.25	1.50	0.25	0.00	0.00	0.00	0.00	0.00	0.856934	0.700684	1.197266	-9.870000	-25.549999	111.160004	57.00	-0.11	0.01	25.25	22.50	12.50	11.75	5.00	3.50	1.00	2.50	0.50	1.25	1.25	1.00	2.25	1.25	0.75	0.00	-0.150391	0.104004	0.958984	-3.640000	1.050000	-2.100000	1054.00	-0.27	-0.05
1.61	1.25	1.00	0.50	0.00	0.00	0.00	0.00	0.00	0.25	1.75	0.50	0.00	0.00	0.00	0.00	0.00	0.803711	0.491211	1.208984	9.940000	-56.980000	102.620003	59.00	-0.08	0.03	25.00	21.25	10.50	10.50	5.00	3.50	1.00	2.50	0.50	1.25	1.25	1.25	2.25	1.25	0.50	0.00	-0.157715	0.101074	0.949219	-3.920000	1.190000	-2.030000	999.00	-0.26	-0.05
1.62	1.25	1.00	0.00	1.50	0.00	0.25	0.00	0.00	0.00	1.25	0.25	0.00	0.00	0.00	0.00	0.00	0.701172	0.392090	1.138672	13.370000	-87.010002	90.230003	62.00	-0.18	-0.07	24.50	21.75	12.25	11.50	5.00	3.50	1.25	2.75	1.00	1.50	1.50	1.25	2.75	1.50	0.50	0.00	-0.157227	0.102051	0.963379	-3.570000	1.330000	-1.610000	1060.00	-0.25	-0.05
1.63	0.75	1.25	0.50	0.75	0.00	0.50	0.00	0.00	0.00	1.25	0.25	0.00	0.00	0.00	0.00	0.00	0.610840	0.366699	1.072754	11.340000	-112.770004	77.209999	59.00	-0.16	-0.06	23.50	20.75	12.00	11.25	5.00	3.75	1.25	2.75	0.75	1.50	1.50	1.25	3.25	1.50	0.50	0.25	-0.158691	0.095703	0.965820	-2.590000	2.240000	-1.120000	1038.00	-0.25	-0.06
1.64	0.00	0.00	0.00	0.00	0.00	0.00	0.00	0.00	0.00	0.75	0.00	0.00	0.00	0.00	0.00	0.00	0.509277	0.386230	1.071289	13.580000	-135.589996	65.029999	9.00	0.00	0.00	23.00	20.00	11.75	11.00	5.25	3.75	1.25	3.00	1.00	1.75	1.75	1.25	3.50	1.75	0.50	0.25	-0.156250	0.098145	0.963867	-1.540000	3.010000	-0.630000	1040.00	-0.24	-0.06
1.65	1.00	1.25	0.00	1.25	0.00	0.50	0.00	0.00	0.00	1.00	0.25	0.00	0.00	0.00	0.00	0.00	0.424805	0.392090	1.107422	20.020000	-157.919998	54.880001	59.00	-0.20	-0.09	22.00	19.25	11.50	10.75	5.00	3.75	1.25	3.25	1.25	1.75	1.75	1.25	4.00	1.75	0.75	0.25	-0.159180	0.100098	0.972168	-0.560000	3.920000	-0.420000	1028.00	-0.23	-0.06
1.66	0.50	1.00	0.25	0.50	0.00	0.25	0.00	0.00	0.00	1.00	0.25	0.00	0.00	0.00	0.00	0.00	0.336914	0.411621	1.152344	26.880001	-179.970001	48.369999	42.00	0.00	0.00	21.25	18.00	11.25	10.50	5.25	4.00	1.25	3.50	1.25	1.75	1.75	1.75	4.75	1.75	0.75	0.25	-0.148438	0.101562	0.959961	1.120000	5.460000	-0.840000	1023.00	-0.22	-0.07
1.67	0.75	0.75	0.50	0.75	0.00	0.25	0.00	0.00	0.00	0.75	0.25	0.00	0.00	0.00	0.00	0.00	0.179688	0.441895	1.176270	38.150002	-221.130005	50.889999	45.00	0.00	0.00	20.25	16.75	10.75	10.00	5.25	4.00	1.50	3.75	1.50	1.75	2.00	1.50	5.00	2.00	0.50	0.00	-0.158203	0.100586	0.964355	1.260000	5.950000	-1.400000	1000.00	-0.21	-0.07
1.68	0.75	0.25	0.25	1.25	0.00	0.50	0.00	0.00	0.00	1.25	0.00	0.00	0.00	0.00	0.00	0.00	0.090332	0.457031	1.176758	42.840000	-237.930008	58.380001	49.00	0.00	0.00	19.50	15.25	10.25	9.75	5.25	4.00	1.50	4.00	1.25	2.25	2.25	1.75	5.50	2.25	0.75	0.25	-0.160645	0.106934	0.964844	1.400000	6.580000	-1.610000	990.00	-0.19	-0.07
1.69	0.75	1.00	0.50	0.50	0.00	0.25	0.00	0.00	0.00	1.00	0.00	0.00	0.00	0.00	0.00	0.00	-0.007812	0.433594	1.185059	47.950001	-251.369995	67.550003	45.00	0.00	0.00	17.75	13.50	9.75	9.25	5.25	4.00	1.50	4.00	1.50	2.50	2.50	2.00	6.00	2.25	0.75	0.25	-0.157715	0.105957	0.949707	1.470000	7.280000	-1.750000	958.00	-0.18	-0.07
1.70	0.50	0.75	0.25	0.50	0.00	0.25	0.00	0.00	0.00	0.75	0.00	0.00	0.00	0.00	0.00	0.00	-0.100586	0.394043	1.203613	54.110001	-261.519989	76.370003	34.00	0.00	0.00	16.25	11.75	9.25	9.00	5.25	4.00	1.50	4.75	1.75	2.75	2.50	2.50	6.25	2.50	0.75	0.25	-0.151855	0.108887	0.968750	1.190000	8.260000	-2.100000	943.00	-0.16	-0.08
1.71	0.25	1.25	0.00	0.75	0.00	0.25	0.00	0.00	0.00	0.75	0.00	0.00	0.00	0.00	0.00	0.00	-0.195312	0.344238	1.238281	59.920002	-268.100006	83.090004	36.00	0.00	0.00	15.00	9.75	9.00	8.25	5.00	3.75	1.75	5.00	2.00	2.75	2.75	2.75	7.00	2.75	0.50	0.50	-0.159180	0.105957	0.958984	0.560000	9.450000	-2.450000	917.00	-0.14	-0.08
1.72	0.75	1.25	0.75	0.25	0.00	0.00	0.00	0.00	0.00	0.50	0.00	0.00	0.00	0.00	0.00	0.00	-0.272461	0.297363	1.306152	65.169998	-271.600006	87.570000	39.00	0.00	0.00	12.75	8.50	8.50	7.75	5.00	3.75	1.75	5.25	2.00	2.75	3.00	3.00	7.75	2.75	1.00	0.50	-0.164062	0.108887	0.949219	0.070000	10.290000	-2.730000	889.00	-0.12	-0.09
1.73	0.50	1.25	0.50	0.50	0.00	0.00	0.00	0.00	0.00	0.75	0.00	0.00	0.00	0.00	0.00	0.00	-0.348633	0.254395	1.399902	68.739998	-273.769989	90.790001	39.00	0.00	0.00	11.00	7.50	8.00	7.25	5.00	3.75	2.00	5.25	2.50	3.00	3.25	3.50	8.00	2.75	1.00	1.00	-0.154785	0.117676	0.952148	-0.490000	11.270000	-3.500000	875.00	-0.09	-0.09
1.74	0.00	0.00	0.00	0.00	0.00	0.00	0.00	0.00	0.00	0.25	0.00	0.00	0.00	0.00	0.00	0.00	-0.435059	0.224121	1.531250	71.190002	-276.989990	92.680000	3.00	0.00	0.00	9.50	6.50	7.50	6.50	4.75	3.50	2.25	5.50	3.25	3.25	3.75	3.50	8.75	3.25	1.25	1.25	-0.151855	0.111328	0.958984	-1.120000	12.460000	-4.130000	871.00	-0.06	-0.09
1.75	0.00	0.25	0.00	0.00	0.00	0.00	0.00	0.00	0.00	0.75	0.00	0.00	0.00	0.00	0.00	0.00	-0.499023	0.208496	1.628906	72.870003	-281.540009	93.519997	11.00	0.00	0.00	8.25	5.75	7.25	6.00	4.75	3.00	2.25	5.25	3.00	3.50	4.00	4.50	9.50	3.25	1.25	1.50	-0.136230	0.109375	0.973145	-1.470000	13.790000	-5.250000	852.00	-0.04	-0.10
1.76	1.00	1.00	0.25	0.25	0.00	0.00	0.00	0.00	0.00	0.50	0.00	0.00	0.00	0.00	0.00	0.00	-0.579102	0.195312	1.731445	75.040001	-286.579987	93.730003	33.00	0.00	0.00	7.50	5.25	6.75	5.25	4.25	3.00	2.50	5.75	4.00	3.75	5.00	4.75	9.75	3.75	1.25	2.00	-0.161621	0.112305	0.965820	-1.960000	16.240000	-6.090000	871.00	-0.02	-0.10
1.77	0.00	0.00	0.00	0.25	0.00	0.00	0.00	0.00	0.00	0.25	0.00	0.00	0.00	0.00	0.00	0.00	-0.654785	0.177734	1.814941	78.680000	-291.410004	93.379997	6.00	0.00	0.00	6.75	4.50	6.25	4.25	4.00	2.50	2.50	5.75	4.25	4.00	6.00	6.00	10.25	4.25	1.50	2.25	-0.181152	0.095703	0.961426	-1.470000	20.650000	-7.840000	874.00	0.01	-0.10
1.78	0.00	0.00	0.00	0.00	0.00	0.00	0.00	0.00	0.00	0.25	0.00	0.00	0.00	0.00	0.00	0.00	-0.713379	0.157227	1.916016	82.110001	-294.980011	92.260002	3.00	0.00	0.00	6.00	3.50	5.50	3.50	3.75	2.00	2.75	5.75	5.00	5.50	7.00	6.75	10.50	4.75	1.75	2.75	-0.178223	0.085449	0.967285	-0.490000	22.680000	-8.470000	894.00	0.04	-0.10
1.79	0.00	0.50	0.00	0.25	0.00	0.00	0.00	0.00	0.00	0.75	0.00	0.00	0.00	0.00	0.00	0.00	-0.841797	0.136719	2.079102	80.220001	-299.110016	89.320000	17.00	0.00	0.00	5.25	2.75	5.00	3.00	3.25	1.50	2.75	5.75	5.50	6.50	7.75	7.75	10.75	5.50	2.00	3.50	-0.163086	0.131836	0.971191	0.630000	25.969999	-9.170000	909.00	0.07	-0.09
1.80	0.00	0.25	0.50	0.00	0.00	0.00	0.00	0.00	0.00	0.25	0.00	0.00	0.00	0.00	0.00	0.00	-0.841797	0.136719	2.079102	80.220001	-299.110016	89.320000	11.00	0.00	0.00	4.75	2.00	4.00	2.25	2.75	1.00	2.75	5.50	6.00	7.25	8.25	8.00	11.00	6.00	2.50	4.25	-0.149414	0.168945	0.995117	1.680000	30.030001	-11.060000	900.00	0.10	-0.09
1.81	0.00	0.00	0.00	0.00	0.00	0.00	0.00	0.00	0.00	0.25	0.00	0.00	0.00	0.00	0.00	0.00	-0.966797	0.152832	2.130859	74.340004	-299.600006	88.690002	3.00	0.00	0.00	3.50	1.50	3.00	1.75	2.25	0.50	2.50	5.50	6.50	7.75	8.50	8.25	11.25	6.75	2.75	4.75	-0.104492	0.133789	1.000977	-0.350000	36.610001	-13.300000	880.00	0.13	-0.09
1.82	0.00	0.00	0.00	0.00	0.00	0.00	0.00	0.00	0.00	0.25	0.00	0.00	0.00	0.00	0.00	0.00	-1.086914	0.159668	2.147949	75.949997	-295.119995	88.900002	3.00	0.00	0.00	3.00	1.25	2.25	1.50	2.00	0.50	2.50	5.25	7.25	8.25	9.00	8.75	11.50	7.50	3.25	5.25	-0.184570	0.125977	1.001953	-2.730000	44.869999	-15.680000	898.00	0.15	-0.09
1.83	0.00	0.00	0.00	0.00	0.00	0.00	0.00	0.00	0.00	0.50	0.00	0.00	0.00	0.00	0.00	0.00	-1.265137	0.122070	2.104980	90.370003	-292.040009	85.889999	6.00	0.00	0.00	2.25	1.25	2.25	1.50	1.50	0.25	2.25	5.00	7.75	8.50	9.50	8.75	11.50	8.00	3.50	5.50	-0.227051	0.148438	0.929199	-0.210000	58.310001	-15.050000	897.00	0.16	-0.09
1.84	0.00	0.00	0.00	0.00	0.00	0.00	0.00	0.00	0.00	0.50	0.00	0.00	0.00	0.00	0.00	0.00	-1.537109	0.092773	2.085938	110.389999	-283.920013	79.800003	6.00	0.00	0.00	1.50	0.25	1.50	1.00	1.25	0.25	2.00	4.75	8.00	9.00	9.75	9.25	11.75	9.00	4.25	6.50	-0.207031	0.092285	0.982910	3.150000	67.900002	-15.260000	897.00	0.19	-0.09
1.85	0.00	0.00	0.00	0.00	0.00	0.00	0.00	0.00	0.00	0.00	0.00	0.00	0.00	0.00	0.00	0.00	-1.925781	0.064941	2.149902	130.130005	-272.510010	74.410004	0.00	0.00	0.00	1.25	0.75	1.50	1.00	1.00	0.25	1.75	4.25	8.25	9.50	10.25	9.25	11.50	10.00	5.00	7.25	-0.226562	0.102539	0.988770	6.230000	76.160004	-15.190001	918.00	0.20	-0.09
1.86	0.00	0.00	0.00	0.00	0.00	0.00	0.00	0.00	0.00	0.50	0.00	0.00	0.00	0.00	0.00	0.00	-2.362793	0.025391	2.192383	136.850006	-263.339996	72.309998	6.00	0.00	0.00	1.25	0.75	1.00	1.00	0.75	0.00	1.25	3.75	8.50	9.75	10.50	9.75	11.75	11.25	5.00	7.75	-0.266602	0.097656	0.975098	10.360000	83.650002	-14.910000	922.00	0.21	-0.09
1.87	0.00	0.00	0.00	0.00	0.00	0.00	0.00	0.00	0.00	0.00	0.00	0.00	0.00	0.00	0.00	0.00	-2.825195	-0.016602	2.002441	124.250000	-260.049988	73.570000	0.00	0.00	0.00	1.00	0.50	0.50	0.50	0.25	0.00	0.75	3.00	8.75	10.00	11.00	10.00	11.75	12.00	5.50	8.25	-0.263184	0.104980	0.986328	15.960000	92.330002	-14.560000	908.00	0.23	-0.08
1.88	0.00	0.00	0.00	0.00	0.00	0.00	0.00	0.00	0.00	0.25	0.00	0.00	0.00	0.00	0.00	0.00	-3.335449	-0.046387	1.449219	94.080002	-261.239990	76.300003	3.00	0.00	0.00	0.50	0.50	0.75	0.75	0.25	0.00	0.50	2.50	8.75	10.25	11.25	10.00	11.75	13.25	6.00	8.75	-0.297363	0.126953	1.018066	22.049999	106.120003	-15.190001	922.00	0.24	-0.08
1.89	0.00	0.00	0.00	0.00	0.00	0.00	0.00	0.00	0.00	0.25	0.00	0.00	0.00	0.00	0.00	0.00	-3.897461	-0.185059	0.506836	61.670002	-256.480011	80.080002	3.00	0.00	0.00	0.75	0.50	0.50	0.50	0.25	0.00	0.00	2.25	9.00	10.75	11.50	10.25	11.50	14.50	6.75	9.00	-0.305176	0.091797	1.090332	27.299999	126.840004	-17.360001	941.00	0.25	-0.08
1.90	0.00	0.00	0.00	0.00	0.00	0.00	0.00	0.00	0.00	0.00	0.00	0.00	0.00	0.00	0.00	0.00	-4.729980	-0.395508	-0.484375	48.509998	-236.040009	83.090004	0.00	0.00	0.00	0.00	0.50	0.00	0.25	0.00	0.00	0.00	1.75	9.00	10.75	11.50	10.25	11.25	15.50	7.25	9.50	-0.355469	0.135742	1.036621	28.139999	166.740005	-21.070000	927.00	0.26	-0.07
1.91	0.00	0.00	0.00	0.00	0.00	0.00	0.00	0.00	0.00	0.00	0.00	0.00	0.00	0.00	0.00	0.00	-5.911133	-0.654297	-1.326660	50.470001	-195.229996	83.230003	0.00	0.00	0.00	0.00	0.25	0.00	0.25	0.00	0.00	0.00	1.50	9.25	11.25	11.75	10.25	11.00	16.50	7.75	9.50	-0.359375	0.090820	1.100098	23.870001	185.009995	-22.260000	946.00	0.27	-0.07
1.92	0.50	0.75	0.50	0.75	0.00	0.25	0.00	0.00	0.00	0.25	0.00	0.00	0.00	0.00	0.00	0.00	-5.832520	-1.048828	-2.071777	39.900002	-112.559998	74.340004	34.00	0.00	0.00	0.00	0.00	0.00	0.00	0.00	0.00	0.00	1.25	9.25	11.25	11.75	10.25	10.75	17.25	8.00	9.75	-0.416016	0.105957	1.065430	20.580000	200.550003	-22.190001	945.00	0.28	-0.06
1.93	0.00	0.00	0.00	0.00	0.00	0.00	0.00	0.00	0.00	0.25	0.00	0.00	0.00	0.00	0.00	0.00	-4.702148	-1.275391	-1.972656	5.250000	7.490000	57.119999	3.00	0.00	0.00	0.00	0.00	0.00	0.00	0.00	0.00	0.00	1.00	9.25	11.25	11.75	10.25	10.50	18.00	8.25	10.00	-0.413086	0.132812	1.124023	16.309999	209.509995	-22.820000	950.00	0.28	-0.06
1.94	0.00	0.00	0.00	0.00	0.00	0.00	0.00	0.00	0.00	0.00	0.00	0.00	0.00	0.00	0.00	0.00	-3.683105	-1.021484	-1.068359	-33.599998	123.410004	32.900002	0.00	0.00	0.00	0.00	0.00	0.00	0.00	0.00	0.00	0.00	1.00	9.00	11.25	11.75	10.25	10.25	18.25	8.50	10.00	-0.462891	0.194824	1.101074	10.850000	219.449997	-26.110001	949.00	0.28	-0.06
1.95	1.75	2.50	2.00	0.00	0.00	0.00	0.00	0.00	0.00	0.00	0.00	0.00	0.00	0.00	0.00	0.00	1.991211	2.386230	-0.377441	-46.270000	198.100006	-8.470000	69.00	-0.36	0.00	0.00	0.00	0.00	0.00	0.00	0.00	0.00	0.50	8.75	11.25	11.75	10.00	10.00	19.00	8.50	10.50	-0.500977	0.183105	1.049316	10.080000	237.509995	-32.759998	942.00	0.28	-0.05
1.96	2.75	5.25	0.50	0.50	0.00	0.00	0.00	0.00	0.00	0.00	0.00	0.00	0.00	0.00	0.00	0.00	1.263672	-0.623047	1.893066	-80.220001	103.110001	-40.880001	96.00	-0.39	-0.06	0.00	0.00	0.00	0.00	0.00	0.00	0.00	0.75	8.75	11.25	11.75	10.00	9.50	19.00	8.75	10.25	-0.541504	0.185059	1.094727	10.360000	260.890015	-40.529999	943.00	0.28	-0.05
1.97	4.75	8.00	0.75	1.25	0.00	0.00	0.00	0.00	0.00	0.00	0.00	0.00	0.00	0.00	0.00	0.00	-0.118164	-0.838379	0.811523	-134.050003	71.959999	-81.129997	158.00	-0.39	-0.06	0.00	0.00	0.00	0.00	0.00	0.00	0.00	0.75	8.50	11.25	11.50	9.75	9.00	18.75	8.50	10.25	-0.598633	0.211426	1.304199	10.710000	283.850006	-45.430000	923.00	0.28	-0.05
1.98	7.50	9.50	1.50	2.75	0.00	0.00	0.00	0.00	0.00	0.00	0.00	0.00	0.00	0.00	0.00	0.00	-0.871094	-0.783691	0.767090	-165.550003	179.479996	-122.080002	232.00	-0.38	-0.05	0.00	0.00	0.00	0.00	0.00	0.00	0.00	0.75	8.00	11.00	11.25	9.25	8.50	18.50	8.50	10.00	-0.647949	0.188477	1.148926	9.030000	312.410004	-49.630001	896.00	0.29	-0.05
1.99	9.75	11.50	3.00	5.00	0.00	0.00	0.00	0.00	0.00	0.00	0.00	0.00	0.00	0.00	0.00	0.00	-1.052246	0.357422	1.931152	-167.789993	272.440002	-161.279999	323.00	-0.37	-0.05	0.00	0.00	0.00	0.00	0.00	0.00	0.00	0.50	7.50	10.75	11.00	9.00	8.00	17.75	8.00	9.50	-0.708496	0.208496	1.131348	3.220000	341.320007	-56.349998	856.00	0.29	-0.05
2.00	12.75	13.25	5.00	7.50	0.25	0.00	0.00	0.00	0.00	0.00	0.00	0.00	0.00	0.00	0.00	0.00	-0.723145	1.258301	3.476074	-123.760002	265.019989	-135.589996	432.00	-0.36	-0.05	0.00	0.00	0.00	0.00	0.00	0.00	0.00	0.50	6.25	10.25	10.75	8.50	7.50	17.00	7.75	8.75	-0.815430	0.291504	1.297852	3.780000	365.959991	-63.279999	805.00	0.29	-0.05
2.01	14.25	14.25	6.00	8.50	0.00	0.00	0.00	0.00	0.00	0.00	0.00	0.00	0.00	0.00	0.00	0.00	-0.632324	0.919922	1.252441	-85.400002	225.610001	-75.599998	480.00	-0.36	-0.05	0.00	0.00	0.00	0.00	0.00	0.00	0.00	0.50	5.25	9.25	9.75	7.75	6.50	15.25	7.00	7.50	-1.561523	0.236816	2.659180	34.860001	394.380005	-58.939999	717.00	0.29	-0.05
2.02	15.50	14.50	7.75	9.00	0.25	1.50	0.00	0.50	0.00	0.00	0.00	0.25	0.00	0.00	0.00	0.00	-0.539062	2.786133	-0.582031	-42.070000	240.240005	-20.650000	556.00	-0.34	-0.05	0.00	0.00	0.00	0.00	0.00	0.00	0.00	0.25	3.25	8.00	8.75	6.75	5.50	13.00	5.75	6.00	-1.827148	0.170410	2.026367	46.340000	413.279999	-55.299999	594.00	0.29	-0.06
2.03	15.25	14.75	8.50	9.25	0.50	2.50	0.00	1.00	0.00	0.00	0.00	0.25	0.25	0.00	0.00	0.00	-0.461914	-0.325684	0.974121	-101.360001	236.600006	9.870000	593.00	-0.33	-0.06	0.00	0.00	0.00	0.00	0.00	0.00	0.00	0.25	1.50	7.00	7.50	5.25	4.00	11.00	4.50	4.25	-1.676270	0.570801	3.427734	62.299999	431.410004	-44.869999	468.00	0.29	-0.06
2.04	15.75	14.75	8.75	9.75	0.75	3.75	0.00	2.00	0.00	0.00	0.00	0.75	0.75	0.00	0.00	0.00	-0.355957	-0.162109	1.513184	-121.169998	160.160004	2.870000	653.00	-0.31	-0.08	0.00	0.00	0.00	0.00	0.00	0.00	0.00	0.00	1.25	5.50	5.75	4.50	3.00	9.00	3.00	1.75	-1.376465	-0.123535	3.156250	81.690002	446.739990	-47.880001	355.00	0.29	-0.05
2.05	17.00	16.00	9.75	10.00	1.00	5.00	0.00	3.25	0.25	0.00	0.50	1.25	2.50	0.25	0.25	0.00	-0.351562	-0.051270	1.437012	-84.840004	93.590004	-9.030000	770.00	-0.27	-0.10	0.00	0.00	0.00	0.00	0.00	0.00	0.00	0.00	0.50	4.50	4.75	3.50	1.75	7.25	1.50	0.75	-1.450684	-0.034668	2.802734	75.879997	458.429993	-53.900002	259.00	0.29	-0.04
2.06	19.50	16.50	10.00	10.50	1.25	5.50	0.00	4.00	0.00	0.25	0.50	1.25	2.75	0.75	0.00	0.00	-0.267578	0.270020	1.038086	-65.169998	64.750000	-7.840000	838.00	-0.27	-0.09	0.00	0.00	0.00	0.00	0.00	0.00	0.00	0.00	0.25	4.00	3.75	3.00	1.75	5.50	0.75	0.00	-0.547363	-0.072266	2.884277	61.810001	461.019989	-59.010002	203.00	0.28	-0.05
2.07	19.50	16.75	10.50	11.00	1.50	5.75	0.00	5.00	0.00	1.00	0.75	1.50	4.00	0.75	0.25	0.00	-0.235840	0.200195	1.035156	-56.630001	55.230000	0.420000	904.00	-0.25	-0.10	0.00	0.00	0.00	0.00	0.00	0.50	0.00	0.00	0.00	3.00	3.00	2.25	1.75	2.75	0.50	0.00	-0.362305	0.742676	2.666016	51.520000	445.549988	-63.490002	148.00	0.24	-0.10
2.08	19.50	16.25	10.00	10.75	1.50	6.25	0.00	5.25	0.00	0.50	1.00	1.50	4.75	0.75	0.00	0.00	-0.248047	0.108887	1.084473	-53.060001	41.720001	0.700000	901.00	-0.25	-0.11	0.00	0.00	0.00	0.00	0.00	0.00	0.00	0.00	0.00	2.50	2.50	2.00	2.50	0.75	0.00	0.00	0.123535	0.696289	2.519043	70.000000	394.450012	-62.650002	111.00	0.23	-0.16
2.09	17.75	15.50	9.50	10.50	1.25	6.25	0.00	5.25	0.25	0.75	1.00	1.50	5.00	0.75	0.25	0.00	-0.242676	0.168457	0.999023	-43.820000	26.250000	-0.910000	873.00	-0.24	-0.12	0.00	0.00	0.00	0.00	0.00	0.00	0.00	0.00	0.00	0.50	0.75	0.00	0.00	0.00	0.00	0.00	1.014160	0.718750	2.771484	70.629997	314.299988	-63.209999	14.00	0.00	0.00
2.10	17.00	15.25	9.25	10.50	1.75	6.25	0.00	5.50	0.00	0.75	1.00	1.50	5.00	0.75	0.00	0.00	-0.204102	0.138184	0.970703	-27.230000	14.070000	-0.560000	863.00	-0.24	-0.12	0.00	0.00	0.00	0.00	0.00	0.00	0.00	0.00	0.00	0.25	0.25	0.00	0.00	0.00	0.00	0.00	1.592773	-0.823242	3.173828	64.540001	238.419998	-77.629997	6.00	0.00	0.00
2.11	17.00	15.25	9.50	10.50	1.50	6.75	0.00	6.00	0.25	1.25	1.25	1.75	5.50	1.25	0.00	0.25	-0.187012	0.150879	0.947754	-22.260000	12.530000	-1.400000	903.00	-0.22	-0.12	0.00	0.00	0.00	0.00	0.00	0.00	0.00	0.00	0.00	0.25	0.50	0.00	0.00	0.00	0.00	0.00	0.245605	1.531738	4.455566	36.540001	212.309998	-89.110001	9.00	0.00	0.00
2.12	17.25	15.00	9.75	10.50	1.75	7.00	0.00	6.25	0.25	1.25	1.25	1.75	6.00	1.50	0.00	0.25	-0.197266	0.153320	0.949219	-21.000000	12.740000	-2.380000	924.00	-0.21	-0.12	0.00	0.00	0.00	0.00	0.00	0.00	0.00	0.00	0.00	0.50	0.50	0.00	0.00	0.00	0.00	0.00	1.336914	0.349609	2.542480	-96.459999	-129.919998	-10.990000	11.00	0.00	0.00
2.13	17.50	15.50	9.75	11.00	2.00	7.25	0.00	6.75	0.25	1.50	1.50	2.00	6.50	1.25	0.25	0.00	-0.209473	0.135742	0.949707	-20.299999	12.950000	-3.430000	964.00	-0.21	-0.13	0.00	0.00	0.00	0.00	0.00	0.00	0.00	0.00	0.00	0.00	0.25	0.00	0.00	0.00	0.00	0.00	1.336914	0.349609	2.542480	-96.459999	-129.919998	-10.990000	3.00	0.00	0.00
2.14	17.50	15.00	9.75	10.50	2.00	7.00	0.25	6.75	0.25	1.50	1.50	2.25	6.75	1.50	0.50	0.00	-0.206055	0.132324	0.953125	-18.830000	13.370000	-3.710000	965.00	-0.20	-0.12	0.00	0.00	0.00	0.00	0.00	0.00	0.00	0.00	0.00	0.00	0.00	0.00	0.00	0.00	0.00	0.00	0.710449	0.354004	1.287598	-162.820007	-228.899994	8.960000	0.00	0.00	0.00
2.15	16.75	14.50	9.50	10.50	2.00	7.00	0.25	6.75	0.50	1.75	2.00	2.25	6.75	1.25	0.50	0.00	-0.213867	0.119141	0.956543	-15.680000	13.650000	-3.430000	958.00	-0.19	-0.13	0.00	0.00	0.00	0.00	0.00	0.00	0.00	0.00	0.00	0.00	0.00	0.00	0.00	0.00	0.00	0.00	0.690918	0.442383	0.901367	-145.389999	-236.809998	5.600000	0.00	0.00	0.00
2.16	16.25	13.50	9.50	10.00	2.00	7.25	0.25	7.25	0.50	2.25	1.75	2.50	7.75	1.75	0.50	0.00	-0.217285	0.117188	0.955566	-12.600000	14.700000	-3.150000	967.00	-0.18	-0.13	0.00	0.00	0.00	0.00	0.00	0.00	0.00	0.00	0.00	0.00	0.00	0.00	0.00	0.00	0.00	0.00	0.568359	0.445801	0.817383	-117.879997	-240.029999	-3.920000	0.00	0.00	0.00
2.17	15.50	13.50	9.00	10.00	2.25	7.00	0.25	7.25	0.50	2.00	2.25	2.75	8.00	1.50	0.75	0.00	-0.216309	0.126953	0.954102	-10.080000	15.960000	-2.660000	961.00	-0.17	-0.14	0.00	0.00	0.00	0.00	0.00	0.00	0.00	0.00	0.00	0.00	0.00	0.00	0.00	0.00	0.00	0.00	0.450195	0.437988	0.934082	-85.400002	-248.149994	-13.650000	0.00	0.00	0.00
2.18	14.25	12.75	8.75	9.75	2.00	6.75	0.25	7.50	0.75	2.25	2.25	3.00	8.25	1.50	0.50	0.25	-0.226074	0.108887	0.957520	-7.560000	16.660000	-1.750000	942.00	-0.16	-0.14	0.00	0.00	0.00	0.00	0.00	0.00	0.00	0.00	0.00	0.00	0.00	0.00	0.00	0.00	0.00	0.00	0.359375	0.374023	1.076660	-60.270000	-263.549988	-20.230000	0.00	0.00	0.00
2.19	13.75	12.00	8.50	9.50	2.00	6.75	0.50	7.50	1.25	2.25	2.50	3.25	8.50	1.75	0.25	0.00	-0.216797	0.124023	0.958008	-4.830000	16.450001	-0.910000	940.00	-0.15	-0.14	0.00	0.00	0.00	0.00	0.00	0.00	0.00	0.00	0.00	0.00	0.00	0.00	0.00	0.00	0.00	0.00	0.258301	0.305176	1.215332	-50.889999	-285.950012	-23.870001	0.00	0.00	0.00
2.20	12.00	11.00	8.25	9.25	2.00	6.50	0.50	7.50	1.00	2.50	2.50	3.50	9.25	1.75	0.75	0.00	-0.216797	0.122559	0.949707	-3.080000	16.870001	-0.700000	916.00	-0.14	-0.15	0.00	0.00	0.00	0.00	0.00	0.00	0.00	0.00	0.00	0.00	0.00	0.00	0.00	0.00	0.00	0.00	0.115723	0.296387	1.304688	-53.900002	-312.200012	-26.530001	0.00	0.00	0.00
2.21	11.50	10.25	8.00	9.00	2.00	6.50	0.50	7.50	1.25	2.75	3.00	4.00	9.50	2.25	0.75	0.50	-0.210449	0.131348	0.952148	-2.380000	17.500000	-1.470000	925.00	-0.12	-0.15	0.00	0.00	0.00	0.00	0.00	0.00	0.00	0.00	0.00	0.00	0.00	0.00	0.00	0.00	0.00	0.00	-0.047363	0.331543	1.302246	-57.260002	-337.540009	-29.820000	0.00	0.00	0.00
2.22	10.00	9.75	7.75	8.50	2.00	6.00	0.50	7.75	1.75	3.00	3.00	4.75	9.75	2.25	0.50	0.50	-0.228027	0.142090	0.956543	-3.080000	18.340000	-2.800000	910.00	-0.10	-0.15	0.00	0.00	0.00	0.00	0.00	0.00	0.00	0.00	0.00	0.00	0.00	0.00	0.00	0.00	0.00	0.00	-0.203613	0.369629	1.261230	-53.130001	-358.540009	-34.509998	0.00	0.00	0.00
2.23	9.25	9.00	7.50	8.25	2.00	6.00	0.75	7.75	2.00	3.25	3.50	4.75	10.00	2.50	1.00	0.25	-0.221191	0.129883	0.941895	-3.780000	18.340000	-4.480000	913.00	-0.09	-0.15	0.00	0.00	0.00	0.00	0.00	0.00	0.00	0.00	0.00	0.00	0.00	0.00	0.00	0.00	0.00	0.00	-0.334961	0.394043	1.177734	-41.650002	-372.959991	-41.930000	0.00	0.00	0.00
2.24	8.50	8.50	7.25	8.25	1.75	5.75	0.50	7.75	2.00	3.25	3.50	5.50	10.25	2.75	0.75	0.75	-0.235840	0.116699	0.950684	-3.850000	18.059999	-5.530000	900.00	-0.08	-0.15	0.00	0.00	0.00	0.00	0.00	0.00	0.00	0.00	0.00	0.00	0.00	0.00	0.00	0.00	0.00	0.00	-0.463867	0.415039	1.114258	-24.780001	-381.290009	-50.750000	0.00	0.00	0.00
2.25	7.75	7.50	6.50	7.75	1.75	5.75	0.75	7.75	2.25	3.75	3.75	6.00	10.50	2.75	1.00	1.00	-0.233398	0.124023	0.952148	-3.710000	17.780001	-5.670000	895.00	-0.06	-0.16	0.00	0.00	0.00	0.00	0.00	0.00	0.00	0.00	0.00	0.00	0.00	0.00	0.00	0.00	0.00	0.00	-0.590332	0.402832	1.063477	-6.300000	-384.160004	-59.010002	0.00	0.00	0.00
2.26	7.75	7.25	6.00	7.25	1.75	5.50	0.75	7.75	2.50	3.75	5.00	6.75	10.75	2.50	0.50	1.25	-0.244629	0.119629	0.944824	-2.520000	18.690001	-5.390000	900.00	-0.05	-0.16	0.00	0.00	0.00	0.00	0.00	0.00	0.00	0.00	0.00	0.00	0.00	0.00	0.00	0.00	0.00	0.00	-0.770508	0.436523	1.041016	20.020000	-376.390015	-62.650002	0.00	0.00	0.00
2.27	6.50	6.75	6.25	7.00	2.00	5.00	0.75	7.75	2.75	4.00	6.00	7.50	10.75	3.25	1.00	1.50	-0.243164	0.115234	0.946777	-2.100000	19.740000	-4.620000	919.00	-0.03	-0.16	0.00	0.00	0.00	0.00	0.00	0.00	0.00	0.00	0.00	0.00	0.00	0.00	0.00	0.00	0.00	0.00	-0.845215	0.528320	1.132812	24.780001	-367.850006	-57.610001	0.00	0.00	0.00
2.28	6.25	6.50	5.00	6.00	1.75	5.25	0.75	7.50	3.25	3.75	6.25	7.75	11.25	3.50	1.25	1.50	-0.247559	0.122070	0.949219	-1.890000	20.790001	-3.780000	902.00	-0.01	-0.16	0.00	0.00	0.00	0.00	0.00	0.00	0.00	0.00	0.00	0.00	0.00	0.00	0.00	0.00	0.00	0.00	-0.877441	0.613770	1.204590	28.070000	-360.290009	-47.740002	0.00	0.00	0.00
2.29	5.50	5.50	5.25	6.00	1.50	4.50	0.75	7.50	4.00	4.25	7.25	8.00	11.25	3.25	1.25	2.00	-0.241211	0.123047	0.944824	-1.260000	22.400000	-3.360000	906.00	0.01	-0.15	0.00	0.00	0.00	0.00	0.00	0.00	0.00	0.00	0.00	0.00	0.00	0.00	0.00	0.00	0.00	0.00	-0.913574	0.743652	1.343262	32.900002	-354.269989	-33.880001	0.00	0.00	0.00
2.30	5.25	5.25	5.00	4.75	1.25	3.50	1.00	7.75	4.25	5.50	7.50	8.25	11.75	4.50	1.25	2.25	-0.249023	0.120117	0.945312	-0.490000	23.870001	-3.570000	917.00	0.03	-0.15	0.00	0.00	0.00	0.00	0.00	0.00	0.00	0.00	0.00	0.00	0.00	0.00	0.00	0.00	0.00	0.00	-0.919434	0.856445	1.425781	43.400002	-349.929993	-15.750000	0.00	0.00	0.00
2.31	2.50	5.25	5.00	4.50	1.25	4.00	1.00	7.50	5.00	6.00	7.75	8.50	11.75	5.00	1.50	2.25	-0.253906	0.133301	0.933105	0.490000	24.990000	-4.410000	914.00	0.06	-0.15	0.00	0.00	0.00	0.00	0.00	0.00	0.00	0.00	0.00	0.00	0.00	0.00	0.00	0.00	0.00	0.00	-0.930664	0.951660	1.522949	61.180000	-345.660004	5.250000	0.00	0.00	0.00
2.32	3.50	4.75	3.50	4.00	1.00	2.75	0.75	7.50	5.25	6.50	8.25	9.00	12.25	5.25	2.25	2.50	-0.235840	0.141602	0.945801	1.960000	25.690001	-5.670000	912.00	0.07	-0.15	0.00	0.00	0.00	0.00	0.00	0.00	0.00	0.00	0.00	0.00	0.00	0.00	0.00	0.00	0.00	0.00	-0.995605	0.994141	1.621094	87.220001	-340.339996	28.070000	0.00	0.00	0.00
2.33	2.50	3.75	3.50	3.25	1.00	2.00	0.75	7.50	5.25	7.50	8.75	9.00	12.25	5.75	2.00	3.25	-0.258301	0.157715	0.936035	4.410000	26.950001	-8.330000	896.00	0.10	-0.14	0.00	0.00	0.00	0.00	0.00	0.00	0.00	0.00	0.00	0.00	0.00	0.00	0.00	0.00	0.00	0.00	-1.079102	0.953125	1.705078	118.790001	-333.410004	52.360001	0.00	0.00	0.00
2.34	3.00	2.75	2.50	3.00	0.75	1.50	0.75	7.50	6.00	8.00	9.25	9.50	12.75	6.50	2.00	3.25	-0.269531	0.129395	0.960449	7.630000	29.750000	-13.650000	907.00	0.11	-0.14	0.00	0.00	0.00	0.00	0.00	0.00	0.00	0.00	0.00	0.00	0.00	0.00	0.00	0.00	0.00	0.00	-1.168945	0.876465	1.841797	145.949997	-323.610016	77.629997	0.00	0.00	0.00
2.35	3.25	3.50	2.25	3.25	0.75	1.75	0.75	7.50	6.50	8.25	9.50	10.00	12.75	7.50	2.50	3.75	-0.293457	0.091309	0.934570	7.070000	37.730000	-11.970000	957.00	0.12	-0.13	0.00	0.00	0.00	0.00	0.00	0.00	0.00	0.00	0.00	0.00	0.00	0.00	0.00	0.00	0.00	0.00	-1.250000	0.766602	2.049805	159.600006	-312.059998	103.669998	0.00	0.00	0.00
2.36	2.00	2.50	2.25	2.00	0.50	1.25	0.75	7.00	7.50	8.50	9.75	10.25	12.75	8.00	3.00	4.00	-0.282715	0.119141	0.952637	6.090000	46.410000	-8.050000	935.00	0.15	-0.12	0.00	0.00	0.00	0.00	0.00	0.00	0.00	0.00	0.00	0.00	0.00	0.00	0.00	0.00	0.00	0.00	-1.336426	0.662598	2.297363	165.479996	-302.470001	126.910004	0.00	0.00	0.00
2.37	1.50	2.00	3.00	3.25	0.75	0.00	0.50	6.25	7.50	8.75	10.00	10.25	12.75	8.50	2.75	4.25	-0.304199	0.111816	0.952637	7.490000	53.830002	-6.020000	929.00	0.15	-0.12	0.00	0.00	0.00	0.00	0.00	0.00	0.00	0.00	0.00	0.00	0.00	0.00	0.00	0.00	0.00	0.00	-1.848633	0.417969	2.708984	197.050003	-306.600006	158.059998	0.00	0.00	0.00
2.38	2.00	2.25	2.00	2.50	0.25	0.75	0.50	6.25	8.00	9.25	10.25	10.50	12.75	9.00	3.25	4.50	-0.293945	0.110352	0.950195	10.640000	60.970001	-3.990000	950.00	0.16	-0.12	0.00	0.00	0.00	0.00	0.00	0.00	0.00	0.00	0.00	0.00	0.00	0.00	0.00	0.00	0.00	0.00	-2.180664	0.113770	2.783203	201.669998	-317.100006	168.910004	0.00	0.00	0.00
2.39	1.25	2.75	1.25	2.25	0.25	0.25	0.25	5.50	8.00	9.50	10.50	11.00	13.00	10.00	4.00	5.50	-0.310059	0.127441	0.948242	14.910000	68.949997	-0.910000	949.00	0.18	-0.12	0.00	0.00	0.00	0.00	0.00	0.00	0.00	0.00	0.00	0.00	0.00	0.00	0.00	0.00	0.00	0.00	-2.515137	-0.154785	2.657227	171.289993	-328.089996	177.240005	0.00	0.00	0.00
2.40	1.50	1.75	1.00	1.75	0.25	0.50	0.25	5.50	8.50	10.00	11.25	11.25	13.00	10.75	3.75	5.50	-0.361816	0.140137	0.898438	20.790001	78.820000	1.260000	964.00	0.19	-0.11	0.00	0.00	0.00	0.00	0.00	0.00	0.00	0.00	0.00	0.00	0.00	0.00	0.00	0.00	0.00	0.00	-2.883789	-0.239258	2.326660	111.650002	-334.040009	180.529999	0.00	0.00	0.00
2.41	1.50	2.25	1.25	2.00	0.25	0.00	0.00	5.25	8.75	10.25	11.25	11.50	13.25	11.75	5.00	5.75	-0.348145	0.145996	0.978516	25.129999	106.120003	2.030000	998.00	0.19	-0.11	0.00	0.00	0.00	0.00	0.00	0.00	0.00	0.00	0.00	0.00	0.00	0.00	0.00	0.00	0.00	0.00	-3.104492	-0.130859	1.691406	48.580002	-327.320007	174.229996	0.00	0.00	0.00
2.42	1.50	2.75	0.50	1.25	0.00	0.00	0.00	4.50	8.75	10.50	11.75	11.75	13.25	12.75	5.00	6.25	-0.356445	0.172363	0.990723	27.020000	117.180000	-0.210000	993.00	0.20	-0.10	0.00	0.00	0.00	0.00	0.00	0.00	0.00	0.00	0.00	0.00	0.00	0.00	0.00	0.00	0.00	0.00	-3.246582	0.060059	0.992188	9.730000	-303.940002	155.119995	0.00	0.00	0.00
2.43	1.75	0.00	1.50	0.25	0.50	0.00	0.00	3.75	9.00	10.75	12.00	11.75	13.25	13.50	5.25	6.00	-0.382812	0.171387	0.956055	28.210001	131.880005	-3.290000	979.00	0.22	-0.09	0.00	0.00	0.00	0.00	0.00	0.00	0.00	0.00	0.00	0.00	0.00	0.00	0.00	0.00	0.00	0.00	-3.593750	0.184570	0.102539	8.400000	-269.220001	124.809998	0.00	0.00	0.00
2.44	1.25	1.50	1.00	1.25	0.00	0.00	0.00	2.75	9.00	11.00	12.00	11.75	13.00	14.25	5.75	6.25	-0.409668	0.153320	0.977539	25.410000	148.399994	-6.370000	987.00	0.22	-0.09	0.00	0.00	0.00	0.00	0.00	0.00	0.00	0.00	0.00	0.00	0.00	0.00	0.00	0.00	0.00	0.00	-4.966797	-0.193359	-0.721680	95.970001	-237.020004	96.320000	0.00	0.00	0.00
2.45	1.00	1.25	0.50	0.75	0.00	0.00	0.00	2.25	9.25	11.25	12.00	11.75	12.75	14.75	6.00	6.50	-0.439453	0.151855	0.998535	23.940001	166.039993	-7.350000	974.00	0.23	-0.08	0.00	0.00	0.00	0.00	0.00	0.00	0.00	0.00	0.00	0.00	0.00	0.00	0.00	0.00	0.00	0.00	-6.511719	-0.992676	-0.837402	231.770004	-197.399994	87.570000	0.00	0.00	0.00
2.46	1.50	0.00	0.25	1.00	0.00	0.00	0.00	1.75	9.25	11.25	12.25	11.75	12.50	15.50	6.25	6.50	-0.453125	0.176270	1.003906	22.960001	181.020004	-7.840000	969.00	0.24	-0.07	0.00	0.00	0.00	0.00	0.00	0.00	0.00	0.00	0.00	0.00	0.00	0.00	0.00	0.00	0.00	0.00	-5.801270	-2.250000	-1.760254	235.619995	-96.809998	68.529999	0.00	0.00	0.00
2.47	1.00	1.00	0.25	0.50	0.00	0.00	0.00	1.25	9.25	11.50	12.00	11.75	12.25	16.25	6.50	6.50	-0.473145	0.172363	1.074707	20.930000	193.690002	-8.750000	967.00	0.25	-0.07	0.75	0.50	0.00	0.00	0.00	0.00	0.00	0.00	0.00	0.00	0.00	0.00	0.00	0.00	0.00	0.00	-5.133301	-2.266602	-1.442871	60.970001	112.000000	45.150002	14.00	0.00	0.00
2.48	1.00	1.25	0.50	0.50	0.00	0.25	0.00	1.00	9.00	11.50	12.00	11.50	11.75	16.25	6.25	6.75	-0.521973	0.246094	1.043945	19.110001	205.800003	-12.250000	959.00	0.24	-0.07	2.50	1.75	0.50	0.25	0.00	0.00	0.00	0.00	0.00	0.00	0.00	0.00	0.00	0.00	0.00	0.00	-1.785156	-2.032227	-1.673828	-115.430000	258.369995	-38.920002	55.00	-0.39	0.00
2.49	0.75	2.25	0.25	0.00	0.00	0.00	0.00	1.00	9.00	11.50	12.00	11.50	11.00	16.75	6.50	6.50	-0.546875	0.290039	1.075195	13.510000	224.210007	-20.440001	953.00	0.25	-0.06	5.00	3.75	1.00	0.75	0.00	0.00	0.00	0.00	0.00	0.00	0.00	0.00	0.00	0.00	0.00	0.00	-0.345703	-0.083496	1.933594	-177.940002	353.709991	-109.620003	116.00	-0.38	-0.01
2.50	0.50	0.50	0.25	0.75	0.00	0.25	0.00	1.00	9.00	11.75	11.75	11.25	10.25	17.00	6.75	6.50	-0.575684	0.344727	1.074219	5.670000	248.850006	-33.670002	939.00	0.26	-0.06	9.50	8.75	1.75	1.25	0.00	0.00	0.00	0.00	0.00	0.00	0.00	0.00	0.00	0.00	0.00	0.00	-0.036133	0.205078	2.637207	-33.880001	146.089996	-63.349998	232.00	-0.39	-0.02
2.51	0.50	1.00	0.50	0.50	0.00	0.00	0.00	1.00	8.75	11.50	11.50	10.75	9.25	17.25	6.75	6.25	-0.680176	0.355957	1.138672	-2.310000	280.839996	-49.910000	918.00	0.26	-0.05	17.75	16.00	3.75	4.00	0.00	0.00	0.00	0.00	0.00	0.00	0.00	0.00	0.00	0.00	0.00	0.00	-0.680664	-0.876465	0.688965	31.010000	152.039993	-66.919998	456.00	-0.38	-0.03
2.52	2.00	1.25	1.25	2.00	0.50	1.75	0.00	2.00	9.75	12.25	12.25	11.00	9.00	19.50	7.50	6.50	-0.708984	0.388672	1.157715	-10.920000	316.119995	-63.209999	1071.00	0.22	-0.05	23.00	21.00	5.75	7.00	0.25	0.00	0.00	0.00	0.00	0.00	0.00	0.00	0.00	0.00	0.00	0.00	-0.964844	-0.259277	1.896484	7.770000	307.440002	-135.169998	629.00	-0.38	-0.03
2.53	1.75	1.75	0.25	0.00	0.00	0.25	0.00	0.75	8.00	11.00	11.00	9.50	6.75	16.50	6.00	5.50	-0.882812	0.332520	1.383301	-22.120001	351.470001	-74.340004	849.00	0.24	-0.04	26.25	23.25	8.75	8.75	0.75	0.50	0.00	0.25	0.00	0.00	0.00	0.00	0.00	0.00	0.00	0.00	-0.829102	1.565430	2.985840	14.630000	319.339996	-135.100006	762.00	-0.36	-0.03
2.54	0.75	1.00	0.75	0.50	0.25	0.50	0.00	0.75	7.25	10.25	10.25	8.75	5.75	15.50	5.75	5.00	-1.036621	0.354492	1.498535	-29.889999	386.820007	-81.830002	787.00	0.25	-0.04	28.00	24.25	10.00	10.25	0.75	1.50	0.00	0.75	0.00	0.00	0.00	0.50	0.75	0.00	0.00	0.00	-1.185547	1.319336	4.483398	-89.809998	234.220001	-54.670002	858.00	-0.35	-0.04
2.55	0.50	0.00	0.50	0.00	0.00	0.25	0.00	0.25	6.25	9.25	9.25	8.00	4.25	14.00	5.25	3.50	-1.312012	0.435059	1.729004	-29.680000	423.850006	-85.750000	663.00	0.27	-0.02	28.00	25.25	11.25	12.00	1.25	3.00	0.00	2.00	0.00	0.00	0.25	0.75	1.75	0.00	0.00	0.00	-1.217285	0.280273	4.089355	-152.600006	175.839996	2.800000	964.00	-0.33	-0.06
2.56	0.25	0.75	0.00	0.00	0.00	0.00	0.00	0.00	5.00	8.50	8.25	6.50	3.50	11.50	3.75	1.50	-2.061035	0.095215	2.523926	16.940001	474.250000	-74.690002	540.00	0.27	-0.02	27.50	24.75	11.75	12.50	1.50	3.75	0.00	2.75	0.00	0.00	0.50	0.75	2.75	0.00	0.00	0.00	-0.187988	-0.188477	1.972168	-173.949997	153.300003	14.630000	1002.00	-0.31	-0.07
2.57	0.25	1.00	0.00	0.00	0.00	0.25	0.00	0.00	3.25	7.75	7.50	5.50	2.00	9.25	2.75	0.50	-2.136230	0.218750	3.711914	57.119999	481.110016	-63.420002	439.00	0.26	-0.02	26.75	24.25	11.75	12.75	1.75	4.25	0.25	3.50	0.00	0.50	0.75	1.50	3.50	0.25	0.00	0.00	-0.104004	-0.167969	1.261719	-134.539993	90.720001	1.610000	1044.00	-0.29	-0.08
2.58	0.00	0.00	0.00	0.00	0.00	0.50	0.00	0.00	2.25	6.75	5.75	4.25	0.75	7.50	1.75	0.00	-1.712402	0.138672	3.085449	79.449997	469.420013	-63.910000	327.00	0.27	-0.01	27.25	24.00	12.25	13.50	2.25	5.00	0.25	5.00	0.00	0.50	1.00	1.50	4.75	0.25	0.00	0.00	-0.328613	0.236816	1.269043	-101.709999	56.980000	-5.390000	1117.00	-0.28	-0.09
2.59	0.00	0.00	0.00	0.00	0.00	0.00	0.00	0.00	2.00	5.50	4.75	3.50	1.50	6.00	0.50	0.00	-1.059082	0.192383	3.421387	81.620003	452.410004	-74.129997	261.00	0.27	-0.01	27.50	24.75	13.25	13.75	2.25	5.25	0.25	5.50	0.00	0.75	1.25	1.75	5.00	0.50	0.25	0.00	-0.289551	0.219727	1.165527	-76.510002	37.590000	-1.330000	1170.00	-0.27	-0.09
2.60	0.00	0.75	0.50	0.00	0.00	0.50	0.00	0.00	1.00	4.75	4.00	2.75	1.50	3.00	0.25	0.00	-0.471680	0.634277	3.190918	66.709999	435.330017	-82.669998	210.00	0.20	-0.05	27.25	24.50	13.50	14.50	2.75	5.75	0.25	6.00	0.00	1.00	1.25	1.75	5.75	0.50	0.25	0.00	-0.202637	0.068848	1.111816	-52.849998	18.690001	-2.030000	1207.00	-0.26	-0.10
2.61	0.50	0.50	0.50	1.25	0.00	0.00	0.00	0.00	0.75	4.00	2.25	1.75	0.25	0.75	0.25	0.00	0.471680	0.764648	2.348633	25.340000	387.940002	-94.150002	146.00	0.12	-0.04	28.75	25.50	13.75	14.50	2.75	6.25	0.50	6.00	0.25	1.00	1.75	1.75	6.00	0.75	0.25	0.00	-0.163086	0.165527	0.993164	-20.230000	2.240000	-3.220000	1261.00	-0.26	-0.09
2.62	0.25	0.50	0.25	0.00	0.00	0.00	0.00	0.00	0.00	2.50	1.25	0.50	0.00	0.25	0.00	0.00	1.137207	0.270996	2.704590	-3.150000	344.119995	-106.400002	62.00	0.13	-0.02	28.00	25.25	13.75	14.50	3.00	6.25	0.50	6.25	0.00	1.25	1.50	2.00	6.25	0.75	0.00	0.00	-0.138672	0.129395	0.997070	-13.300000	1.960000	-2.310000	1256.00	-0.25	-0.10
2.63	0.00	0.00	0.00	0.00	0.00	0.00	0.00	0.00	0.00	1.75	1.00	0.25	0.00	0.00	0.00	0.00	0.724609	0.143066	2.844727	-36.119999	269.079987	-110.809998	34.00	0.00	0.00	28.00	24.75	14.00	14.50	3.00	6.50	0.50	6.25	0.00	1.25	1.50	2.00	6.50	0.75	0.25	0.00	-0.134766	0.142578	0.971680	-8.260000	2.450000	-2.450000	1262.00	-0.25	-0.10
2.64	0.00	0.50	0.00	0.00	0.00	0.00	0.00	0.00	0.00	1.75	1.00	0.25	0.00	0.00	0.00	0.00	0.058594	1.231934	5.917480	-63.209999	200.619995	-95.830002	39.00	0.00	0.00	27.25	24.25	13.75	14.50	3.00	6.50	0.50	6.50	0.25	1.50	1.75	2.00	6.75	0.75	0.25	0.00	-0.121582	0.144531	0.957520	-5.390000	4.200000	-2.170000	1261.00	-0.24	-0.10
2.65	0.00	0.00	0.00	0.00	0.00	0.00	0.00	0.00	0.00	1.25	1.00	0.00	0.00	0.00	0.00	0.00	1.640625	0.698242	3.232910	-80.290001	7.770000	-61.180000	26.00	0.00	0.00	26.75	23.75	13.25	14.00	3.00	6.75	0.50	6.50	0.25	1.50	2.00	2.50	7.25	1.00	0.50	0.00	-0.114746	0.126465	0.978516	-3.220000	7.210000	-1.540000	1260.00	-0.24	-0.10
2.66	0.00	0.00	0.00	0.00	0.00	0.00	0.00	0.00	0.00	1.00	0.50	0.25	0.00	0.00	0.00	0.00	1.017090	0.646973	2.229004	-101.500000	-136.639999	-25.340000	20.00	0.00	0.00	25.75	22.50	12.75	13.50	2.75	6.75	0.75	6.75	0.25	1.50	2.00	2.25	7.50	0.75	0.25	0.00	-0.135742	0.134766	0.977539	-0.350000	10.080000	-0.210000	1223.00	-0.23	-0.11
2.67	0.00	0.00	0.00	0.00	0.00	0.00	0.00	0.00	0.00	1.00	0.50	0.00	0.00	0.00	0.00	0.00	0.676758	0.402832	1.253418	-114.029999	-183.750000	-5.390000	17.00	0.00	0.00	24.25	21.25	12.25	13.25	2.75	6.75	0.50	6.75	0.25	1.75	2.00	2.50	8.25	0.75	0.25	0.00	-0.118164	0.129395	0.977539	2.240000	12.600000	0.700000	1193.00	-0.22	-0.11
2.68	0.00	0.50	0.00	0.00	0.00	0.25	0.00	0.25	1.00	1.50	1.00	0.25	0.50	0.00	0.25	0.00	0.757812	0.585449	0.635254	-104.790001	-197.680008	9.450000	65.00	0.16	-0.04	22.50	19.50	11.50	12.75	2.75	6.75	0.50	6.75	0.50	2.00	2.00	2.50	8.50	0.75	0.25	0.00	-0.131348	0.144043	0.965332	3.570000	14.630000	0.630000	1150.00	-0.21	-0.12
2.69	0.00	1.00	0.25	0.25	0.00	0.25	0.00	0.25	0.50	1.50	1.00	0.50	0.00	0.25	0.00	0.00	0.660645	0.531250	0.438477	-91.209999	-194.250000	17.639999	67.00	0.06	-0.06	19.75	17.75	10.50	12.00	2.50	6.50	0.50	7.00	0.25	1.75	2.25	2.75	8.75	1.00	0.50	0.00	-0.140625	0.146973	0.976562	3.850000	16.379999	0.070000	1085.00	-0.20	-0.13
2.70	1.00	0.75	0.25	0.00	0.00	0.25	0.00	0.00	0.25	1.75	0.75	0.25	0.00	0.25	0.00	0.00	0.479492	0.415039	0.724609	-45.220001	-192.360001	21.629999	62.00	0.00	0.00	17.75	15.50	9.75	11.00	2.25	6.50	0.50	7.00	0.25	2.00	2.25	3.00	9.25	0.75	0.50	0.00	-0.135742	0.150879	0.955566	3.430000	17.290001	-0.280000	1023.00	-0.19	-0.13
2.71	0.00	0.75	0.25	0.00	0.00	0.25	0.00	0.25	0.50	1.50	0.75	0.00	0.00	0.75	0.00	0.00	0.419922	0.296387	0.907715	-36.889999	-206.639999	24.850000	57.00	0.11	-0.00	16.00	13.50	9.00	10.25	2.25	6.25	0.75	7.00	0.50	1.75	2.50	3.00	9.50	0.75	0.25	0.00	-0.111328	0.145020	0.966309	2.310000	18.549999	-0.910000	970.00	-0.18	-0.14
2.72	0.00	1.00	0.25	0.50	0.00	0.00	0.00	0.25	0.50	1.25	0.50	0.25	0.00	0.25	0.00	0.00	0.355957	0.256348	1.048828	-39.200001	-227.710007	28.350000	56.00	0.02	-0.05	14.00	11.50	8.50	9.25	2.00	6.00	0.75	7.00	0.50	2.00	2.50	3.25	10.00	1.00	0.50	0.00	-0.127930	0.166504	0.958008	-1.400000	21.280001	-5.880000	918.00	-0.15	-0.14
2.73	0.25	1.75	0.25	0.00	0.00	0.25	0.00	0.00	0.75	1.25	0.50	0.50	0.00	0.25	0.25	0.00	0.267578	0.258301	1.125000	-44.029999	-252.070007	31.639999	68.00	0.02	-0.02	11.75	9.25	8.00	8.75	1.75	5.75	0.75	7.00	0.50	2.25	2.75	3.75	10.25	1.00	0.50	0.00	-0.127930	0.166504	0.958008	-1.400000	21.280001	-5.880000	866.00	-0.13	-0.15
2.74	0.50	0.75	0.25	0.50	0.25	0.25	0.00	0.25	0.50	1.25	0.50	0.00	0.00	0.25	0.25	0.00	0.177246	0.272949	1.146973	-42.910000	-277.269989	34.090000	65.00	-0.00	-0.02	10.25	8.00	7.50	8.00	1.75	5.50	0.75	7.00	0.50	2.00	2.75	3.75	10.50	1.25	0.25	0.00	-0.151367	0.161133	0.947754	-5.110000	20.719999	-10.640000	817.00	-0.12	-0.16
2.75	0.25	0.75	0.25	0.25	0.00	0.25	0.00	0.25	0.75	1.25	0.50	0.25	0.00	0.50	0.25	0.00	0.072754	0.266113	1.131836	-33.950001	-301.070007	34.860001	65.00	0.07	-0.01	9.25	7.00	7.00	7.25	1.75	5.25	0.75	7.00	0.75	2.25	3.00	4.25	10.50	1.25	0.50	0.00	-0.154785	0.127930	0.968262	-4.200000	20.230000	-10.920000	796.00	-0.10	-0.16
2.76	0.50	1.00	0.25	0.50	0.00	0.00	0.00	0.25	0.50	1.00	0.25	0.25	0.00	0.25	0.00	0.00	-0.033691	0.223145	1.126465	-21.770000	-322.279999	32.900002	56.00	-0.04	-0.03	8.25	6.00	6.25	6.75	1.50	5.00	0.75	7.00	0.75	2.50	3.25	4.50	10.75	1.25	0.50	0.00	-0.157227	0.131836	0.958008	-2.590000	19.740000	-10.430000	764.00	-0.09	-0.17
2.77	0.50	0.25	0.25	0.25	0.00	0.50	0.00	0.25	0.25	1.25	0.25	0.25	0.00	0.25	0.25	0.00	-0.162598	0.166504	1.114258	-10.780000	-340.480011	27.090000	53.00	0.03	-0.05	7.25	5.50	5.75	6.00	1.50	5.00	0.75	7.00	1.00	2.75	3.50	5.50	11.25	1.50	0.50	0.25	-0.176270	0.125488	0.954102	-1.120000	19.389999	-8.820000	762.00	-0.06	-0.17
2.78	0.50	1.00	0.25	0.25	0.00	0.50	0.00	0.50	0.50	1.00	0.00	0.25	0.25	0.50	0.25	0.00	-0.272949	0.136719	1.115234	-0.140000	-354.130005	18.129999	67.00	-0.01	-0.07	6.50	5.00	5.25	5.50	1.50	4.50	0.75	7.00	0.75	3.00	3.75	6.25	11.50	1.50	0.75	0.25	-0.167480	0.132324	0.959961	0.070000	20.230000	-7.350000	747.00	-0.05	-0.18
2.79	0.25	1.00	0.25	0.25	0.00	0.25	0.00	0.25	0.50	1.00	0.25	0.25	0.25	0.50	0.25	0.00	-0.356934	0.090820	1.107910	6.720000	-363.089996	7.700000	60.00	0.03	-0.05	6.25	4.00	5.00	5.00	1.25	4.00	0.75	7.00	1.00	3.00	4.25	7.25	11.75	1.50	0.75	0.50	-0.175293	0.146484	0.959961	1.470000	21.139999	-6.860000	740.00	-0.03	-0.18
2.80	0.25	0.75	0.25	0.25	0.00	0.50	0.00	0.25	0.50	1.00	0.25	0.00	0.00	0.50	0.00	0.00	-0.436523	0.073730	1.124512	9.590000	-366.940002	-3.780000	53.00	0.00	-0.03	5.25	2.75	4.00	4.00	1.00	3.50	0.75	7.00	1.25	3.00	5.00	7.75	12.00	1.50	0.50	1.00	-0.175293	0.150879	0.960449	2.520000	21.420000	-7.210000	704.00	0.00	-0.19
2.81	0.50	1.00	0.25	0.25	0.00	0.25	0.00	0.00	0.50	0.75	0.00	0.00	0.00	0.25	0.00	0.00	-0.507812	0.134766	1.153809	13.580000	-367.010010	-14.280000	43.00	0.00	0.00	4.50	2.25	3.00	3.25	1.00	2.50	0.75	7.00	1.25	3.25	6.00	8.00	12.25	1.75	0.50	1.50	-0.161621	0.152344	0.953125	2.870000	22.330000	-7.560000	682.00	0.03	-0.20
2.82	0.50	1.00	0.25	0.00	0.00	0.25	0.00	0.00	0.25	0.75	0.00	0.00	0.00	0.50	0.00	0.00	-0.564453	0.230469	1.302246	20.580000	-365.329987	-21.840000	38.00	0.00	0.00	3.75	2.25	2.75	2.75	0.75	2.25	0.50	7.00	1.75	3.75	7.00	8.50	12.50	2.00	0.75	1.25	-0.168945	0.176758	0.953613	4.060000	23.870001	-10.430000	690.00	0.06	-0.20
2.83	0.25	0.75	0.25	0.50	0.00	0.25	0.00	0.50	0.75	1.00	0.25	0.25	0.25	0.75	0.00	0.00	-0.623047	0.286133	1.410156	29.750000	-367.010010	-26.040001	68.00	0.04	-0.05	2.50	1.50	2.00	2.25	0.75	1.50	0.50	7.00	2.00	3.75	7.75	9.00	13.00	2.25	0.75	2.00	-0.142090	0.223145	0.957520	8.470000	26.389999	-19.040001	674.00	0.09	-0.21
2.84	0.25	0.75	0.50	0.00	0.00	0.50	0.00	0.00	0.50	1.00	0.00	0.25	0.00	0.25	0.00	0.00	-0.729004	0.397461	1.722656	45.009998	-372.820007	-18.830000	46.00	0.00	0.00	2.25	1.25	2.00	2.00	0.50	1.50	0.50	6.75	2.75	4.25	8.25	9.50	13.25	2.75	1.25	2.50	-0.217773	0.131348	0.963867	6.440000	29.889999	-24.360001	702.00	0.11	-0.20
2.85	0.25	0.50	0.25	0.25	0.00	0.50	0.00	0.25	0.50	0.75	0.00	0.25	0.00	0.25	0.00	0.00	-0.798340	0.463379	1.883789	54.250000	-376.739990	-8.190000	45.00	0.00	0.00	2.00	1.25	1.25	1.75	0.50	1.25	0.25	6.50	3.00	4.75	8.75	9.75	13.50	3.00	1.25	3.00	-0.208008	0.133301	0.955566	2.100000	35.420002	-21.980000	702.00	0.12	-0.20
2.86	0.25	0.75	0.00	0.00	0.00	0.00	0.00	0.25	0.00	0.75	0.00	0.00	0.50	0.00	0.00	0.00	-0.888184	0.502441	2.052246	71.330002	-379.750000	4.410000	28.00	0.00	0.00	1.50	1.00	1.00	1.75	0.50	1.00	0.25	6.50	3.75	5.75	9.25	10.00	13.75	3.75	1.50	4.00	-0.204102	0.145996	0.966797	0.980000	43.889999	-19.809999	736.00	0.14	-0.19
2.87	0.00	0.00	0.00	0.00	0.00	0.00	0.00	0.00	0.00	0.25	0.00	0.00	0.00	0.00	0.00	0.00	-1.008301	0.455566	2.269043	94.430000	-380.940002	17.500000	3.00	0.00	0.00	1.25	0.75	1.00	1.25	0.25	0.50	0.00	6.00	4.50	7.00	9.75	10.50	13.75	4.25	1.75	4.25	-0.220703	0.124023	0.972168	1.120000	48.160000	-18.340000	749.00	0.16	-0.17
2.88	0.00	0.00	0.00	0.00	0.00	0.00	0.00	0.00	0.00	0.00	0.00	0.00	0.00	0.00	0.00	0.00	-1.159668	0.408691	2.561523	117.389999	-381.010010	29.750000	0.00	0.00	0.00	1.50	0.75	1.00	1.25	0.25	0.50	0.00	6.00	5.00	7.75	10.25	10.75	13.75	5.00	2.50	5.00	-0.229980	0.116699	0.970703	1.750000	53.200001	-15.680000	796.00	0.17	-0.16
2.89	0.00	0.00	0.00	0.00	0.00	0.00	0.00	0.00	0.00	0.00	0.00	0.00	0.00	0.00	0.00	0.00	-1.382324	0.375000	2.903320	132.649994	-382.899994	41.720001	0.00	0.00	0.00	1.25	0.50	0.25	1.00	0.00	0.25	0.00	5.75	5.75	8.25	10.50	11.00	14.00	5.75	2.50	5.25	-0.251953	0.115234	0.970703	4.270000	59.779999	-13.020000	801.00	0.19	-0.16
2.90	0.00	0.00	0.00	0.00	0.00	0.00	0.00	0.00	0.00	0.00	0.00	0.00	0.00	0.00	0.00	0.00	-1.686035	0.373535	3.205566	137.410004	-388.779999	53.549999	0.00	0.00	0.00	1.00	0.50	0.50	1.00	0.00	0.25	0.00	5.25	6.50	8.75	11.00	11.25	14.00	6.50	3.00	5.50	-0.266602	0.141602	0.974121	8.400000	67.690002	-10.640000	832.00	0.20	-0.15
2.91	0.00	0.00	0.00	0.00	0.00	0.00	0.00	0.00	0.00	0.00	0.00	0.00	0.00	0.00	0.00	0.00	-2.094727	0.440918	3.289062	137.059998	-397.880005	64.330002	0.00	0.00	0.00	1.00	0.50	0.50	0.75	0.00	0.50	0.00	5.00	7.25	9.50	11.50	12.00	15.00	7.50	3.25	6.25	-0.273438	0.152832	0.973145	14.980000	77.699997	-10.080000	888.00	0.20	-0.14
2.92	0.00	0.00	0.00	0.00	0.00	0.00	0.00	0.00	0.00	0.00	0.00	0.00	0.00	0.00	0.00	0.00	-2.587891	0.524902	3.138184	138.880005	-404.110016	73.500000	0.00	0.00	0.00	0.25	0.25	0.00	0.75	0.00	0.00	0.00	4.50	7.50	9.75	11.75	12.00	14.25	8.25	3.75	6.50	-0.287109	0.134766	0.995117	20.650000	88.760002	-10.640000	873.00	0.22	-0.13
2.93	0.00	0.00	0.00	0.00	0.00	0.00	0.00	0.00	0.00	0.00	0.00	0.00	0.00	0.00	0.00	0.00	-3.163086	0.604980	2.830078	142.520004	-403.480011	78.120003	0.00	0.00	0.00	0.25	0.25	0.25	0.75	0.00	0.00	0.00	3.50	7.75	10.25	12.25	12.00	14.25	9.00	4.50	7.25	-0.307129	0.144043	1.001465	22.540001	98.209999	-11.620000	894.00	0.23	-0.12
2.94	0.00	0.00	0.00	0.00	0.00	0.00	0.00	0.00	0.00	0.00	0.00	0.00	0.00	0.00	0.00	0.00	-3.743652	0.643066	2.192871	148.259995	-394.589996	76.090004	0.00	0.00	0.00	0.00	0.25	0.00	0.50	0.00	0.00	0.00	3.25	8.00	10.50	12.50	12.25	14.25	10.00	5.00	7.50	-0.313477	0.172363	0.964355	22.889999	107.449997	-13.230000	910.00	0.24	-0.12
2.95	0.00	0.00	0.00	0.00	0.00	0.00	0.00	0.00	0.00	0.00	0.00	0.00	0.00	0.00	0.00	0.00	-4.185059	0.230469	1.179688	204.680008	-366.380005	89.529999	0.00	0.00	0.00	0.00	0.50	0.00	0.50	0.00	0.00	0.00	2.75	8.00	11.00	12.75	12.25	14.00	11.00	5.25	8.00	-0.331055	0.161621	0.999023	20.860001	117.879997	-14.840000	925.00	0.24	-0.11
2.96	0.00	0.00	0.00	0.00	0.00	0.00	0.00	0.00	0.00	0.00	0.00	0.00	0.00	0.00	0.00	0.00	-5.163086	-0.640625	0.111328	288.679993	-315.630005	134.820007	0.00	0.00	0.00	0.00	0.50	0.00	0.00	0.00	0.00	0.00	2.00	8.25	11.00	12.75	12.25	13.75	12.25	5.75	8.00	-0.375000	0.178223	1.037598	15.540000	149.660004	-19.740000	925.00	0.25	-0.10
2.97	0.00	0.00	0.00	0.00	0.00	0.00	0.00	0.00	0.00	0.00	0.00	0.00	0.00	0.00	0.00	0.00	-7.780273	-1.421387	-0.351562	292.040009	-244.580002	173.600006	0.00	0.00	0.00	0.00	0.25	0.00	0.25	0.00	0.00	0.00	2.00	8.25	11.50	13.00	12.25	13.50	13.25	6.25	8.25	-0.375000	0.178223	1.037598	15.540000	149.660004	-19.740000	949.00	0.25	-0.10
2.98	0.00	0.00	0.00	0.00	0.00	0.00	0.00	0.00	0.00	0.00	0.00	0.00	0.00	0.00	0.00	0.00	-8.090820	-2.164551	-2.432617	147.070007	-162.050003	159.600006	0.00	0.00	0.00	0.00	0.00	0.00	0.00	0.00	0.00	0.00	1.25	8.50	11.75	13.00	12.25	13.25	14.00	6.50	8.50	-0.416992	0.142578	1.021484	8.890000	178.570007	-22.190001	946.00	0.26	-0.09
2.99	0.00	0.25	0.00	0.00	0.00	0.00	0.00	0.00	0.00	0.00	0.00	0.00	0.00	0.00	0.00	0.00	-6.704102	-1.658203	-2.721680	-19.879999	-33.670002	84.209999	3.00	0.00	0.00	0.00	0.00	0.00	0.00	0.00	0.00	0.00	1.25	8.50	11.75	13.25	12.25	12.75	15.00	7.25	8.50	-0.457520	0.183105	1.026367	4.410000	188.440002	-22.820000	962.00	0.27	-0.08
3.00	0.25	2.00	0.25	0.50	0.00	0.00	0.00	0.00	0.00	0.00	0.00	0.00	0.00	0.00	0.00	0.00	1.632324	-0.692383	-0.237305	-114.379997	260.959991	-54.950001	32.00	0.00	0.00	0.00	0.00	0.00	0.00	0.00	0.00	0.00	1.25	8.50	12.00	13.00	12.00	12.25	15.75	7.25	8.25	-0.464844	0.201172	1.068848	1.260000	202.089996	-25.129999	960.00	0.27	-0.08
3.01	3.00	3.25	0.00	1.25	0.00	0.00	0.00	0.00	0.00	0.00	0.00	0.00	0.00	0.00	0.00	0.00	0.313477	-0.108398	3.200195	-186.550003	310.100006	-87.849998	82.00	-0.39	-0.06	0.00	0.00	0.00	0.00	0.00	0.00	0.00	1.00	8.50	12.00	13.00	11.75	11.75	16.50	7.75	8.50	-0.507812	0.219727	1.037598	0.490000	221.270004	-29.750000	962.00	0.27	-0.07
3.02	5.00	6.00	0.00	0.50	0.00	0.00	0.00	0.00	0.00	0.00	0.00	0.00	0.00	0.00	0.00	0.00	-0.120605	0.754883	2.692383	-146.580002	201.740005	-55.790001	123.00	-0.40	-0.04	0.00	0.00	0.00	0.00	0.00	0.00	0.00	0.75	8.50	12.00	13.00	11.50	11.00	16.75	7.75	8.50	-0.560059	0.250977	1.120117	0.420000	244.860001	-36.889999	951.00	0.27	-0.07
3.03	7.00	9.00	1.00	1.75	0.00	0.00	0.00	0.00	0.00	0.00	0.00	0.00	0.00	0.00	0.00	0.00	-0.522949	-0.069824	1.223633	-49.490002	157.360001	-11.200000	203.00	-0.39	-0.05	0.00	0.00	0.00	0.00	0.00	0.00	0.00	0.75	8.50	12.25	13.00	11.25	10.50	17.25	8.00	8.25	-0.588379	0.270020	1.063477	-0.350000	270.829987	-46.340000	952.00	0.28	-0.06
3.04	9.75	11.00	2.00	3.75	0.00	0.00	0.00	0.00	0.00	0.00	0.00	0.00	0.00	0.00	0.00	0.00	-1.116699	-1.283691	0.425781	-45.709999	240.660004	-38.150002	290.00	-0.38	-0.05	0.00	0.00	0.00	0.00	0.00	0.00	0.00	0.75	8.25	12.00	12.75	11.00	9.75	17.00	7.75	7.75	-0.619629	0.324707	1.125977	-3.570000	303.100006	-58.590000	924.00	0.28	-0.06
3.05	12.00	13.00	3.50	5.50	0.00	0.00	0.00	0.00	0.00	0.00	0.00	0.00	0.00	0.00	0.00	0.00	-0.733887	0.224121	2.798340	-55.230000	325.010010	-94.779999	375.00	-0.37	-0.05	0.00	0.00	0.00	0.00	0.00	0.00	0.00	0.50	7.75	11.75	12.25	10.50	9.00	16.75	7.50	7.25	-0.764160	0.295410	1.248535	-10.920000	336.700012	-72.169998	884.00	0.28	-0.05
3.06	14.25	13.25	5.25	7.50	0.00	0.00	0.00	0.00	0.00	0.00	0.00	0.00	0.00	0.00	0.00	0.00	-0.787598	0.334961	3.565918	-17.360001	284.970001	-90.580002	449.00	-0.36	-0.04	0.00	0.00	0.00	0.00	0.00	0.00	0.00	0.50	7.00	11.25	12.00	9.75	8.25	16.25	7.00	6.25	-0.821777	0.345703	1.346191	-19.389999	369.179993	-84.209999	832.00	0.28	-0.05
3.07	14.25	14.00	6.75	8.25	0.00	0.00	0.00	0.00	0.00	0.00	0.00	0.00	0.25	0.00	0.00	0.00	-0.735840	0.479492	1.687012	-13.790000	224.070007	-77.209999	486.00	-0.36	-0.05	0.00	0.00	0.00	0.00	0.00	0.00	0.00	0.50	6.00	10.50	11.00	9.00	7.50	15.50	6.50	5.25	-1.059082	0.435547	1.441895	-22.960001	400.470001	-95.620003	764.00	0.28	-0.05
3.08	14.50	14.25	7.50	8.50	0.25	1.00	0.00	0.50	0.00	0.00	0.00	0.00	0.00	0.00	0.00	0.00	-1.048828	1.738770	3.607422	-5.250000	220.290009	-55.090000	524.00	-0.35	-0.05	0.00	0.00	0.00	0.00	0.00	0.00	0.00	0.00	4.50	9.25	10.00	8.25	6.50	13.75	5.50	3.00	-1.582520	0.513184	2.281250	-15.120000	424.690002	-101.430000	649.00	0.28	-0.05
3.09	14.75	14.25	7.75	9.00	0.50	2.50	0.00	1.50	0.00	0.00	0.00	0.25	0.75	0.00	0.00	0.00	-0.398926	0.373047	1.328125	-44.730000	193.479996	-7.420000	584.00	-0.32	-0.07	0.00	0.00	0.00	0.00	0.00	0.00	0.00	0.00	3.00	8.25	8.75	7.50	5.25	11.75	3.50	1.50	-1.820312	0.677734	2.166016	4.200000	440.089996	-100.660004	531.00	0.28	-0.05
3.10	14.75	14.25	8.25	9.50	0.50	3.50	0.00	2.50	0.00	0.00	0.00	0.75	2.50	0.25	0.00	0.00	-0.531738	-0.017578	1.661621	-91.349998	162.610001	5.880000	649.00	-0.29	-0.10	0.00	0.00	0.00	0.00	0.00	0.00	0.00	0.00	1.75	7.25	8.00	6.00	3.50	9.25	2.25	0.50	-1.784180	0.639160	3.256836	52.150002	469.559998	-98.910004	416.00	0.27	-0.05
3.11	16.25	14.75	9.00	10.00	0.75	4.75	0.00	3.50	0.25	0.00	0.25	1.75	5.25	1.75	0.75	0.75	-0.434082	-0.061035	2.113770	-91.769997	118.160004	-4.060000	791.00	-0.23	-0.11	0.00	0.00	0.00	0.00	0.00	0.00	0.00	0.00	1.00	5.75	6.50	5.00	3.00	7.25	1.50	0.00	-1.462891	0.272949	2.919434	79.800003	468.230011	-101.430000	325.00	0.27	-0.06
3.12	18.25	16.50	10.00	10.50	1.25	5.50	0.00	5.75	0.00	0.50	0.50	1.50	4.75	0.75	0.25	0.00	-0.255859	0.213867	0.922852	-76.930000	72.800003	-11.270000	880.00	-0.25	-0.12	0.00	0.00	0.00	0.00	0.00	0.00	0.00	0.00	0.50	5.00	4.75	5.00	2.00	5.50	0.75	0.00	-0.979492	0.369629	3.427734	83.510002	454.160004	-111.510002	255.00	0.27	-0.07
3.13	19.75	16.50	10.25	10.75	1.50	6.00	0.00	6.25	0.00	0.50	0.75	1.50	5.00	1.00	0.00	0.00	-0.283691	0.262695	1.165039	-81.269997	71.750000	-7.770000	925.00	-0.24	-0.11	0.00	0.00	0.00	0.00	0.00	0.00	0.00	0.00	0.75	4.00	3.50	3.00	2.25	2.75	0.75	0.00	-0.335449	0.423340	3.131348	105.139999	429.730011	-112.629997	186.00	0.26	-0.08
3.14	20.00	16.50	10.50	11.00	1.75	6.25	0.00	6.50	0.00	0.50	0.75	1.25	5.75	1.25	0.25	0.25	-0.260254	0.081055	1.175293	-94.290001	56.840000	-7.000000	955.00	-0.24	-0.12	0.00	0.00	0.00	0.00	0.25	0.00	0.00	0.00	0.00	2.50	1.75	1.75	0.00	0.50	0.25	0.00	0.224121	0.582520	2.639160	117.459999	373.730011	-116.410004	79.00	0.23	-0.07
3.15	20.00	16.25	10.75	11.25	2.00	6.50	0.00	6.50	0.00	0.75	0.75	1.50	6.00	1.50	0.25	0.25	-0.249023	0.160156	1.000977	-52.220001	17.010000	-5.740000	975.00	-0.23	-0.12	0.00	0.00	0.00	0.00	0.00	0.00	0.00	0.00	0.00	0.75	0.75	0.50	0.00	0.00	0.00	0.00	1.228516	0.377441	3.376465	106.889999	298.619995	-122.360001	23.00	0.00	0.00
3.16	19.75	16.25	10.75	11.00	2.00	6.50	0.00	6.75	0.25	1.00	1.00	1.75	6.00	1.50	0.50	0.00	-0.209473	0.121582	0.999512	-36.680000	13.440001	-3.570000	987.00	-0.22	-0.12	0.00	0.00	0.00	0.00	0.00	0.00	0.00	0.00	0.00	0.50	0.50	0.25	0.00	0.00	0.00	0.00	0.897949	-0.966797	2.843750	67.620003	212.660004	-144.830002	14.00	0.00	0.00
3.17	19.50	16.50	10.75	11.00	2.25	6.50	0.00	6.75	0.25	1.00	1.25	1.50	6.00	1.75	0.50	0.00	-0.218750	0.123535	0.981934	-27.860001	12.180000	-3.500000	992.00	-0.22	-0.11	0.00	0.00	0.00	0.00	0.00	0.00	0.00	0.00	0.00	0.50	0.50	0.25	0.00	0.00	0.00	0.00	0.148926	1.687012	5.936035	-3.080000	165.970001	-129.220001	14.00	0.00	0.00
3.18	19.00	16.25	10.75	11.00	2.25	6.25	0.25	6.75	0.00	1.50	1.25	1.75	6.00	1.75	0.25	0.00	-0.215332	0.115234	0.972656	-21.420000	11.270000	-2.870000	987.00	-0.22	-0.11	0.00	0.00	0.00	0.00	0.00	0.00	0.00	0.00	0.00	0.50	0.50	0.00	0.00	0.00	0.00	0.00	1.721680	0.485352	3.388184	-76.440002	-26.460001	-66.430000	11.00	0.00	0.00
3.19	19.25	16.00	10.50	10.75	2.25	6.25	0.25	6.50	0.25	1.50	1.00	2.00	6.00	2.25	0.50	0.00	-0.215820	0.110840	0.964844	-16.940001	11.060000	-2.310000	988.00	-0.21	-0.11	0.00	0.00	0.00	0.00	0.00	0.00	0.00	0.00	0.00	0.25	0.50	0.25	0.00	0.00	0.00	0.00	1.182617	0.591797	2.309082	-129.430008	-168.419998	-18.129999	11.00	0.00	0.00
3.20	19.25	15.75	10.50	10.75	2.25	6.50	0.25	6.50	0.25	1.75	1.25	1.50	6.00	2.00	0.00	0.00	-0.207031	0.118652	0.961426	-13.860000	11.620000	-1.820000	980.00	-0.22	-0.11	0.00	0.00	0.00	0.00	0.00	0.00	0.00	0.00	0.00	0.50	0.25	0.00	0.00	0.00	0.00	0.00	0.658691	0.585449	1.460938	-159.529999	-218.470001	5.180000	9.00	0.00	0.00
3.21	18.75	15.50	10.25	10.75	2.25	6.25	0.25	6.50	0.25	1.75	1.50	1.75	6.00	1.75	0.50	0.00	-0.206543	0.118164	0.956543	-11.620000	12.390000	-1.400000	975.00	-0.21	-0.11	0.00	0.00	0.00	0.00	0.00	0.00	0.00	0.00	0.00	0.25	0.25	0.00	0.00	0.00	0.00	0.00	0.707031	0.652344	0.611816	-106.610001	-232.119995	21.280001	6.00	0.00	0.00
3.22	18.25	15.00	10.25	10.50	2.25	6.25	0.25	6.25	0.50	1.75	1.25	2.50	6.00	2.00	0.50	0.00	-0.206055	0.117188	0.960938	-10.010000	13.300000	-0.980000	969.00	-0.20	-0.11	0.00	0.00	0.00	0.00	0.00	0.00	0.00	0.00	0.00	0.25	0.00	0.00	0.00	0.00	0.00	0.00	0.512207	0.604980	0.743164	-60.060001	-234.360001	17.780001	3.00	0.00	0.00
3.23	17.75	15.00	10.00	10.25	2.25	6.00	0.25	6.00	0.25	2.00	1.50	1.75	6.00	2.00	0.50	0.00	-0.206543	0.112793	0.949707	-8.680000	14.000000	-0.770000	944.00	-0.20	-0.11	0.00	0.00	0.00	0.00	0.00	0.00	0.00	0.00	0.00	0.00	0.25	0.00	0.00	0.00	0.00	0.00	0.435547	0.469727	0.932129	-23.379999	-245.979996	17.570000	3.00	0.00	0.00
3.24	17.25	14.25	9.75	10.00	2.25	5.75	0.50	6.00	0.50	2.00	1.50	2.00	6.25	2.00	0.25	0.00	-0.208984	0.108887	0.947754	-7.700000	14.070000	-0.770000	932.00	-0.20	-0.11	0.00	0.00	0.00	0.00	0.00	0.00	0.00	0.00	0.00	0.00	0.00	0.00	0.00	0.00	0.00	0.00	0.409180	0.306641	1.134766	-11.480000	-266.350006	20.299999	0.00	0.00	0.00
3.25	16.75	14.00	9.50	10.00	2.25	5.75	0.25	6.00	0.50	1.75	1.50	1.50	6.00	1.75	0.50	0.00	-0.214355	0.102051	0.944824	-6.930000	14.140000	-1.050000	906.00	-0.20	-0.11	0.00	0.00	0.00	0.00	0.00	0.00	0.00	0.00	0.00	0.00	0.00	0.00	0.00	0.00	0.00	0.00	0.298828	0.249023	1.324219	-20.090000	-294.279999	24.219999	0.00	0.00	0.00
3.26	16.00	13.50	9.25	9.75	2.25	5.75	0.50	5.75	0.50	2.00	1.50	2.00	6.00	2.00	0.50	0.00	-0.222168	0.107910	0.953125	-6.300000	13.790000	-1.190000	897.00	-0.19	-0.11	0.00	0.00	0.00	0.00	0.00	0.00	0.00	0.00	0.00	0.00	0.00	0.00	0.00	0.00	0.00	0.00	0.137207	0.256836	1.359863	-33.250000	-325.779999	27.230000	0.00	0.00	0.00
3.27	15.50	12.75	9.25	9.50	2.25	5.50	0.25	5.75	1.00	2.00	1.75	2.00	6.00	2.00	0.50	0.00	-0.213379	0.109375	0.948730	-5.530000	12.600000	-1.960000	884.00	-0.18	-0.11	0.00	0.00	0.00	0.00	0.00	0.00	0.00	0.00	0.00	0.00	0.00	0.00	0.00	0.00	0.00	0.00	0.012695	0.296875	1.286133	-37.450001	-353.570007	26.110001	0.00	0.00	0.00
3.28	15.25	12.50	9.00	9.50	2.25	5.25	0.50	5.75	0.75	2.25	1.75	2.25	6.25	2.00	0.25	0.00	-0.213379	0.109375	0.948730	-5.530000	12.600000	-1.960000	878.00	-0.18	-0.11	0.00	0.00	0.00	0.00	0.00	0.00	0.00	0.00	0.00	0.00	0.00	0.00	0.00	0.00	0.00	0.00	-0.138184	0.308105	1.211914	-27.650000	-374.220001	21.139999	0.00	0.00	0.00
3.29	14.75	12.00	9.00	9.25	2.25	5.25	0.50	5.75	1.00	2.25	2.00	2.00	6.00	2.25	0.50	0.00	-0.214355	0.107422	0.946777	-5.250000	12.600000	-2.170000	871.00	-0.17	-0.11	0.00	0.00	0.00	0.00	0.00	0.00	0.00	0.00	0.00	0.00	0.00	0.00	0.00	0.00	0.00	0.00	-0.286133	0.286133	1.154785	-8.890000	-387.380005	13.230000	0.00	0.00	0.00
3.30	14.00	11.75	8.75	9.00	2.00	5.00	0.50	5.75	1.50	2.50	1.75	2.25	6.50	1.75	0.50	0.00	-0.210449	0.114258	0.943359	-5.110000	12.600000	-2.800000	858.00	-0.17	-0.11	0.00	0.00	0.00	0.00	0.00	0.00	0.00	0.00	0.00	0.00	0.00	0.00	0.00	0.00	0.00	0.00	-0.409668	0.240723	1.154297	9.520000	-394.730011	3.360000	0.00	0.00	0.00
3.31	13.75	11.25	8.75	8.75	2.25	5.00	0.75	5.75	1.25	2.25	1.75	3.00	6.25	1.75	0.25	0.25	-0.206543	0.102539	0.939453	-5.390000	12.670000	-3.220000	853.00	-0.16	-0.11	0.00	0.00	0.00	0.00	0.00	0.00	0.00	0.00	0.00	0.00	0.00	0.00	0.00	0.00	0.00	0.00	-0.528320	0.196777	1.167969	23.379999	-397.950012	-5.460000	0.00	0.00	0.00
3.32	13.00	10.50	8.50	8.75	2.25	5.00	0.75	5.75	1.25	2.75	2.25	2.75	6.75	2.25	0.00	0.00	-0.213379	0.103516	0.943848	-5.530000	13.020000	-3.500000	847.00	-0.15	-0.11	0.00	0.00	0.00	0.00	0.00	0.00	0.00	0.00	0.00	0.00	0.00	0.00	0.00	0.00	0.00	0.00	-0.734863	0.230469	1.202148	31.430000	-395.290009	-14.420000	0.00	0.00	0.00
3.33	12.25	10.00	8.25	8.50	2.25	5.00	0.75	5.75	1.75	2.75	2.25	3.00	7.50	2.00	0.50	0.25	-0.222656	0.104980	0.946777	-5.040000	13.300000	-3.780000	850.00	-0.14	-0.12	0.00	0.00	0.00	0.00	0.00	0.00	0.00	0.00	0.00	0.00	0.00	0.00	0.00	0.00	0.00	0.00	-0.734863	0.230469	1.202148	31.430000	-395.290009	-14.420000	0.00	0.00	0.00
3.34	11.50	9.25	8.00	8.25	2.25	5.00	1.00	6.00	1.75	3.00	2.75	3.00	7.75	2.25	0.50	0.25	-0.232910	0.099121	0.936523	-4.270000	13.930000	-3.990000	849.00	-0.12	-0.12	0.00	0.00	0.00	0.00	0.00	0.00	0.00	0.00	0.00	0.00	0.00	0.00	0.00	0.00	0.00	0.00	-0.817383	0.337891	1.331543	29.889999	-383.459991	-9.450000	0.00	0.00	0.00
3.35	10.50	8.75	7.75	8.00	2.25	4.25	1.00	6.00	2.50	3.25	3.00	3.75	8.25	2.50	0.75	0.50	-0.233398	0.111816	0.940918	-3.780000	14.770000	-4.550000	854.00	-0.10	-0.12	0.00	0.00	0.00	0.00	0.00	0.00	0.00	0.00	0.00	0.00	0.00	0.00	0.00	0.00	0.00	0.00	-0.869629	0.437012	1.411621	29.120001	-376.880005	0.210000	0.00	0.00	0.00
3.36	9.75	8.25	7.50	7.75	2.25	4.50	1.00	6.25	2.50	3.75	3.50	4.50	9.00	2.75	0.75	0.50	-0.242676	0.104004	0.934082	-3.360000	15.470000	-4.970000	871.00	-0.08	-0.12	0.00	0.00	0.00	0.00	0.00	0.00	0.00	0.00	0.00	0.00	0.00	0.00	0.00	0.00	0.00	0.00	-0.868164	0.562500	1.562500	35.209999	-372.190002	15.610000	0.00	0.00	0.00
3.37	9.00	7.75	7.25	7.25	2.25	4.25	1.25	6.25	3.25	4.25	4.50	5.50	9.50	3.25	0.75	0.50	-0.223145	0.103027	0.946289	-3.220000	17.080000	-5.390000	899.00	-0.06	-0.12	0.00	0.00	0.00	0.00	0.00	0.00	0.00	0.00	0.00	0.00	0.00	0.00	0.00	0.00	0.00	0.00	-0.898438	0.621094	1.731445	46.830002	-369.390015	33.180000	0.00	0.00	0.00
3.38	7.75	7.25	6.50	6.75	2.25	4.00	1.25	6.50	3.75	4.75	4.75	6.25	10.00	4.25	1.00	1.00	-0.229492	0.116699	0.952148	-2.450000	19.460001	-6.370000	910.00	-0.03	-0.12	0.00	0.00	0.00	0.00	0.00	0.00	0.00	0.00	0.00	0.00	0.00	0.00	0.00	0.00	0.00	0.00	-0.960449	0.618652	1.900391	63.630001	-367.640015	51.450001	0.00	0.00	0.00
3.39	7.25	6.50	6.25	6.25	2.00	3.00	1.25	6.50	4.50	5.25	5.75	7.25	10.25	4.25	1.00	1.25	-0.255859	0.094238	0.952148	-1.610000	22.330000	-6.860000	916.00	-0.01	-0.12	0.00	0.00	0.00	0.00	0.00	0.00	0.00	0.00	0.00	0.00	0.00	0.00	0.00	0.00	0.00	0.00	-1.011719	0.545898	2.063477	82.879997	-365.399994	68.949997	0.00	0.00	0.00
3.40	6.50	5.75	6.00	5.75	2.00	3.50	1.50	6.75	5.00	6.75	7.25	7.75	10.75	5.75	1.25	1.50	-0.244629	0.098145	0.954590	-0.770000	25.270000	-6.650000	975.00	0.02	-0.11	0.00	0.00	0.00	0.00	0.00	0.00	0.00	0.00	0.00	0.00	0.00	0.00	0.00	0.00	0.00	0.00	-1.080566	0.432617	2.199707	99.470001	-361.690002	83.720001	0.00	0.00	0.00
3.41	6.00	5.00	5.50	4.75	1.75	2.50	1.50	6.75	6.00	7.75	8.00	8.00	11.25	6.50	1.50	2.00	-0.245117	0.109863	0.950684	0.210000	28.840000	-5.320000	983.00	0.05	-0.11	0.00	0.00	0.00	0.00	0.00	0.00	0.00	0.00	0.00	0.00	0.00	0.00	0.00	0.00	0.00	0.00	-1.182129	0.370117	2.365234	115.430000	-355.880005	93.660004	0.00	0.00	0.00
3.42	5.75	5.00	5.50	4.50	1.50	1.75	1.75	6.75	7.00	8.00	8.50	8.75	11.75	7.25	1.50	2.00	-0.247070	0.117676	0.963867	2.450000	32.900002	-5.740000	1013.00	0.06	-0.10	0.00	0.00	0.00	0.00	0.00	0.00	0.00	0.00	0.00	0.00	0.00	0.00	0.00	0.00	0.00	0.00	-1.326660	0.259766	2.572266	131.460007	-350.559998	98.139999	0.00	0.00	0.00
3.43	5.00	4.00	4.50	3.75	1.50	1.75	1.75	6.75	7.50	8.50	8.75	9.25	12.00	8.25	1.50	3.00	-0.266602	0.137695	1.005859	2.310000	37.869999	-7.700000	1012.00	0.09	-0.10	0.00	0.00	0.00	0.00	0.00	0.00	0.00	0.00	0.00	0.00	0.00	0.00	0.00	0.00	0.00	0.00	-1.554688	0.109375	2.807129	144.619995	-348.739990	96.809998	0.00	0.00	0.00
3.44	4.25	3.50	3.50	2.50	1.00	1.75	1.75	6.50	7.75	9.00	9.50	9.50	12.25	9.00	2.50	3.00	-0.243164	0.172852	0.995605	4.130000	51.170002	-11.970000	1003.00	0.11	-0.10	0.00	0.00	0.00	0.00	0.00	0.00	0.00	0.00	0.00	0.00	0.00	0.00	0.00	0.00	0.00	0.00	-1.866699	-0.022949	2.963379	149.100006	-354.200012	92.260002	0.00	0.00	0.00
3.45	2.75	3.50	3.25	2.50	1.00	0.75	1.75	6.25	8.25	9.50	10.00	10.00	12.50	10.00	2.75	3.50	-0.320801	0.005371	0.946289	8.960000	63.349998	-12.600000	1009.00	0.14	-0.10	0.00	0.00	0.00	0.00	0.00	0.00	0.00	0.00	0.00	0.00	0.00	0.00	0.00	0.00	0.00	0.00	-2.272949	-0.103516	2.861816	140.839996	-363.019989	88.690002	0.00	0.00	0.00
3.46	3.00	2.50	2.25	1.50	0.50	0.75	1.25	5.75	8.75	10.00	10.25	10.50	12.50	10.75	3.25	3.50	-0.285645	0.115234	0.991699	14.070000	76.300003	-9.800000	989.00	0.16	-0.09	0.00	0.00	0.00	0.00	0.00	0.00	0.00	0.00	0.00	0.00	0.00	0.00	0.00	0.00	0.00	0.00	-3.135254	0.001465	2.092773	81.900002	-360.360016	88.340004	0.00	0.00	0.00
3.47	2.25	1.75	2.75	2.50	0.50	0.25	1.00	5.25	9.00	10.25	10.75	10.50	13.00	12.25	3.25	4.25	-0.306641	0.113281	0.985840	21.629999	92.050003	-8.610000	1008.00	0.17	-0.09	0.00	0.00	0.00	0.00	0.00	0.00	0.00	0.00	0.00	0.00	0.00	0.00	0.00	0.00	0.00	0.00	-3.424805	0.250488	1.449707	45.920002	-337.190002	88.199997	0.00	0.00	0.00
3.48	1.50	2.75	1.75	1.75	0.50	0.50	0.75	4.75	9.00	10.75	11.00	10.75	12.75	13.00	4.00	5.00	-0.387207	0.104492	0.942871	40.529999	113.470001	-7.910000	1008.00	0.18	-0.09	0.00	0.00	0.00	0.00	0.00	0.00	0.00	0.00	0.00	0.00	0.00	0.00	0.00	0.00	0.00	0.00	-3.637695	0.344238	0.197754	42.560001	-300.089996	81.900002	0.00	0.00	0.00
3.49	1.75	2.25	1.50	1.75	0.00	0.00	0.50	3.75	9.50	11.25	11.25	11.00	12.50	14.25	4.50	5.00	-0.351562	0.105957	1.047852	44.240002	144.970001	-7.490000	1003.00	0.20	-0.08	0.00	0.00	0.00	0.00	0.00	0.00	0.00	0.00	0.00	0.00	0.00	0.00	0.00	0.00	0.00	0.00	-4.845215	-0.209961	-0.445312	159.880005	-257.250000	87.150002	0.00	0.00	0.00
3.50	2.00	2.25	1.25	1.50	0.25	0.00	0.25	3.00	9.50	11.25	11.50	11.25	12.25	15.25	5.25	5.50	-0.393066	0.105469	1.044434	42.000000	168.070007	-6.090000	1011.00	0.21	-0.07	0.00	0.00	0.00	0.00	0.00	0.00	0.00	0.00	0.00	0.00	0.00	0.00	0.00	0.00	0.00	0.00	-6.837891	-1.080566	-0.675293	275.519989	-210.070007	108.010002	0.00	0.00	0.00
3.51	3.25	2.50	0.25	0.75	0.00	0.00	0.00	2.25	9.75	11.50	11.75	11.25	12.00	16.00	5.75	5.50	-0.400391	0.122559	0.987305	33.810001	189.770004	-4.550000	1006.00	0.21	-0.06	0.00	0.00	0.00	0.00	0.00	0.00	0.00	0.00	0.00	0.00	0.00	0.00	0.00	0.00	0.00	0.00	-6.368164	-2.341797	-1.771973	236.600006	-106.680000	103.879997	0.00	0.00	0.00
3.52	1.50	2.25	0.75	1.25	0.00	0.25	0.00	1.00	9.50	11.75	11.75	11.00	11.75	17.00	6.00	5.75	-0.442871	0.145996	1.054199	27.930000	212.029999	-4.690000	986.00	0.23	-0.06	0.00	0.00	0.00	0.00	0.00	0.00	0.00	0.00	0.00	0.00	0.00	0.00	0.00	0.00	0.00	0.00	-4.524902	-2.316895	-1.699707	63.700001	25.549999	68.180000	0.00	0.00	0.00
3.53	1.00	2.25	0.75	1.25	0.00	0.25	0.00	1.00	9.75	11.75	11.75	11.25	11.25	17.50	6.25	5.75	-0.436523	0.129395	1.158203	19.600000	233.940002	-5.810000	989.00	0.23	-0.06	0.25	0.25	0.00	0.00	0.00	0.00	0.00	0.00	0.00	0.00	0.00	0.00	0.00	0.00	0.00	0.00	-6.998047	-1.212891	-0.151855	-115.989998	108.220001	-6.860000	5.00	0.00	0.00
3.54	1.25	2.50	0.75	1.25	0.00	0.00	0.00	1.25	9.75	12.00	11.50	11.25	10.50	18.50	6.50	6.00	-0.482910	0.242676	1.186523	16.100000	249.619995	-9.940000	1003.00	0.23	-0.05	2.50	1.25	0.00	0.00	0.00	0.00	0.00	0.00	0.00	0.00	0.00	0.00	0.00	0.00	0.00	0.00	0.407227	-0.877441	-0.260742	-128.240005	255.290009	-60.900002	41.00	0.00	0.00
3.55	0.75	1.50	1.00	0.75	0.00	0.25	0.00	0.75	9.50	11.75	11.75	10.50	9.75	19.00	6.75	6.00	-0.544922	0.277344	1.143555	12.460000	266.140015	-18.900000	967.00	0.25	-0.04	5.50	4.25	0.75	0.50	0.00	0.00	0.00	0.00	0.00	0.00	0.00	0.00	0.00	0.00	0.00	0.00	0.280762	0.185059	3.775879	-115.639999	260.959991	-82.809998	120.00	-0.39	-0.01
3.56	0.75	1.75	0.50	1.00	0.00	0.25	0.00	0.25	9.25	11.75	11.50	10.50	8.75	19.00	6.75	5.75	-0.581543	0.254883	1.106934	3.640000	292.179993	-31.010000	940.00	0.25	-0.04	10.50	9.25	1.50	1.25	0.00	0.00	0.00	0.00	0.00	0.00	0.00	0.00	0.00	0.00	0.00	0.00	-0.194336	0.100098	1.941895	-97.720001	134.050003	-64.120003	245.00	-0.39	-0.02
3.57	0.75	1.25	0.25	0.25	0.00	0.00	0.00	0.50	9.00	11.75	11.25	10.00	7.75	19.00	6.75	5.50	-0.652344	0.257812	1.184082	-6.790000	324.869995	-44.450001	901.00	0.26	-0.03	18.00	16.25	2.75	3.00	0.00	0.00	0.00	0.00	0.00	0.00	0.00	0.00	0.00	0.00	0.00	0.00	-0.780273	-0.693848	1.141602	-23.870001	209.089996	-84.769997	437.00	-0.39	-0.02
3.58	0.50	2.75	0.50	0.25	0.50	0.25	0.00	0.25	9.25	11.75	10.75	9.50	7.00	18.75	6.50	5.25	-0.650879	0.333008	1.126953	-15.190001	356.440002	-55.650002	900.00	0.25	-0.03	23.00	21.00	5.00	5.00	0.00	0.00	0.00	0.00	0.00	0.00	0.00	0.00	0.00	0.00	0.00	0.00	-0.670410	0.513184	2.759766	-37.099998	313.670013	-125.790001	593.00	-0.38	-0.03
3.59	2.25	3.25	1.50	0.50	0.00	0.50	0.00	0.50	8.00	11.00	10.25	8.50	5.25	18.00	6.25	5.00	-0.910645	0.308594	1.338379	-25.129999	389.480011	-68.110001	870.00	0.22	-0.02	26.50	23.50	7.75	7.50	0.25	0.00	0.00	0.00	0.00	0.00	0.00	0.00	0.00	0.00	0.00	0.00	-0.666504	1.081055	2.876953	4.900000	276.149994	-105.139999	724.00	-0.37	-0.03
3.60	0.50	1.50	0.25	1.25	0.00	0.75	0.00	0.00	7.00	10.00	9.50	7.75	4.25	17.00	5.50	3.50	-1.448242	0.493652	2.071777	-30.030001	448.839996	-86.590004	741.00	0.25	-0.02	27.75	24.75	9.00	9.00	0.50	0.25	0.00	0.00	0.00	0.00	0.00	0.00	0.00	0.00	0.00	0.00	-0.746582	0.841309	1.688477	1.820000	212.589996	-67.340004	790.00	-0.37	-0.03
3.61	0.50	0.75	0.50	0.00	0.00	0.75	0.00	0.00	5.75	9.25	8.50	7.50	0.25	15.25	5.00	1.50	-1.887207	0.494629	2.390625	-3.500000	465.709991	-83.090004	610.00	0.27	0.01	28.50	25.50	9.50	10.25	0.50	0.75	0.00	0.00	0.00	0.00	0.00	0.25	0.00	0.00	0.00	0.00	-0.220215	0.679199	1.253906	0.280000	206.639999	-34.509998	836.00	-0.36	-0.03
3.62	0.25	1.50	0.25	0.25	0.00	0.25	0.00	0.00	4.75	8.25	7.75	5.50	1.25	13.00	3.00	0.50	-1.939941	0.600098	2.667480	10.920000	491.399994	-85.610001	511.00	0.26	0.01	28.00	25.00	10.25	11.00	0.75	1.75	0.00	0.75	0.00	0.00	0.00	0.50	0.25	0.00	0.00	0.00	0.199707	0.776855	0.627930	-70.209999	158.410004	-6.860000	876.00	-0.35	-0.04
3.63	0.00	1.25	0.00	0.00	0.00	0.25	0.00	0.00	2.75	7.50	6.25	3.75	0.75	10.50	2.00	0.00	-2.061035	0.335938	3.455566	59.990002	496.089996	-77.000000	382.00	0.26	0.01	27.75	25.00	11.00	11.75	1.25	3.00	0.00	1.50	0.00	0.00	0.25	0.75	1.50	0.00	0.00	0.00	-0.788086	0.036621	3.250977	-117.110001	134.050003	-3.850000	942.00	-0.33	-0.06
3.64	0.00	0.25	0.25	0.00	0.00	0.25	0.00	0.00	1.75	6.50	5.25	3.25	0.25	8.25	0.75	0.00	-1.645020	0.191895	3.134766	83.370003	489.160004	-80.639999	293.00	0.27	0.02	27.75	24.75	11.75	12.50	1.50	3.75	0.00	2.25	0.00	0.00	0.50	1.00	1.50	0.00	0.00	0.00	-0.250977	0.090332	1.445312	-131.250000	105.559998	-5.530000	988.00	-0.32	-0.07
3.65	0.50	0.75	0.00	0.00	0.00	0.25	0.00	0.00	1.25	5.50	3.75	3.00	0.00	6.50	0.50	0.75	-0.986816	0.359863	3.402832	71.190002	474.670013	-93.800003	245.00	0.24	0.00	28.50	25.00	12.50	13.25	1.75	4.50	0.25	2.75	0.00	0.50	0.75	1.25	2.75	0.25	0.00	0.00	-0.173828	0.137207	1.147461	-116.900002	68.459999	-6.580000	1067.00	-0.30	-0.07
3.66	0.00	0.50	0.25	0.00	0.00	0.00	0.00	0.00	0.75	3.75	3.00	1.75	0.00	3.75	0.50	0.00	-0.479980	0.493652	3.589355	62.580002	451.989990	-102.550003	157.00	0.25	0.01	28.75	25.50	13.25	13.75	2.25	5.00	0.25	3.50	0.00	0.50	0.75	1.25	3.25	0.25	0.25	0.00	-0.196777	0.224121	1.078613	-106.680000	46.619999	-6.580000	1122.00	-0.29	-0.08
3.67	0.00	0.25	0.25	0.00	0.00	0.00	0.00	0.00	0.00	3.00	1.25	0.75	0.00	0.50	0.25	0.00	0.621094	0.721191	2.882812	22.190001	384.369995	-105.910004	70.00	0.21	-0.02	29.25	25.25	13.50	14.25	2.50	5.25	0.25	4.00	0.00	0.75	1.00	1.25	4.50	0.50	0.25	0.00	-0.172852	0.125488	1.105957	-79.519997	36.470001	-4.480000	1168.00	-0.28	-0.08
3.68	0.25	0.75	0.25	0.25	0.00	0.00	0.00	0.00	0.00	2.00	1.00	0.00	0.00	0.25	0.00	0.00	0.834473	0.346680	3.437500	-11.690000	279.579987	-103.040001	53.00	0.06	-0.02	29.50	25.50	14.00	14.25	2.50	5.50	0.25	4.75	0.00	0.75	1.25	1.50	5.00	0.25	0.25	0.00	-0.174316	0.086914	1.094727	-52.709999	25.410000	-5.320000	1203.00	-0.28	-0.09
3.69	0.00	0.00	0.00	0.00	0.00	0.00	0.00	0.00	0.00	1.25	0.50	0.00	0.00	0.00	0.00	0.00	0.738281	0.045410	1.020996	-54.320000	199.500000	-119.070000	20.00	0.00	0.00	29.00	25.25	14.00	14.25	3.00	5.75	0.25	5.00	0.00	1.25	1.50	1.50	5.00	0.50	0.00	0.00	-0.140137	0.199707	1.005371	-37.660000	16.170000	-4.690000	1216.00	-0.27	-0.09
