# time	left pressure 1[N/cm²]	left pressure 2[N/cm²]	left pressure 3[N/cm²]	left pressure 4[N/cm²]	left pressure 5[N/cm²]	left pressure 6[N/cm²]	left pressure 7[N/cm²]	left pressure 8[N/cm²]	left pressure 9[N/cm²]	left pressure 10[N/cm²]	left pressure 11[N/cm²]	left pressure 12[N/cm²]	left pressure 13[N/cm²]	left pressure 14[N/cm²]	left pressure 15[N/cm²]	left pressure 16[N/cm²]	left acceleration X[g]	left acceleration Y[g]	left acceleration Z[g]	left angular X[dps]	left angular Y[dps]	left angular Z[dps]	left total force[N]	left center of pressure X[%]	left center of pressure Y[%]	right pressure 1[N/cm²]	right pressure 2[N/cm²]	right pressure 3[N/cm²]	right pressure 4[N/cm²]	right pressure 5[N/cm²]	right pressure 6[N/cm²]	right pressure 7[N/cm²]	right pressure 8[N/cm²]	right pressure 9[N/cm²]	right pressure 10[N/cm²]	right pressure 11[N/cm²]	right pressure 12[N/cm²]	right pressure 13[N/cm²]	right pressure 14[N/cm²]	right pressure 15[N/cm²]	right pressure 16[N/cm²]	right acceleration X[g]	right acceleration Y[g]	right acceleration Z[g]	right angular X[dps]	right angular Y[dps]	right angular Z[dps]	right total force[N]	right center of pressure X[%]	right center of pressure Y[%]
0.00																										1.25	1.25	0.75	0.50	1.50	0.25	2.25	4.25	5.50	5.00	5.00	4.50	8.50	5.75	1.50	5.00	-0.199219	0.083008	0.958496	-9.030000	8.960000	-0.070000	596.00	0.16	-0.09
0.02	4.25	4.75	4.00	5.25	2.00	5.00	1.00	3.50	3.25	4.50	0.75	1.50	6.00	2.00	0.25	1.00	-0.227539	0.020020	0.957520	-6.370000	3.430000	0.280000	573.00	-0.06	-0.11	1.25	1.25	0.75	0.50	1.25	0.00	2.00	3.25	5.50	5.00	4.75	4.25	8.00	5.75	1.50	5.00	-0.189453	0.054688	0.961914	-7.420000	8.960000	-1.050000	558.00	0.17	-0.08
0.03	4.50	4.75	4.75	5.00	1.75	5.00	1.00	3.50	3.25	4.50	0.50	1.25	6.25	1.75	0.50	1.25	-0.230469	0.021973	0.947754	-5.250000	2.940000	0.770000	578.00	-0.06	-0.10	1.25	1.25	1.00	0.25	1.25	0.00	2.25	3.00	5.75	5.00	5.00	4.25	8.00	5.75	1.00	5.00	-0.189453	0.054688	0.961914	-7.420000	8.960000	-1.050000	559.00	0.17	-0.07
0.04	4.75	5.00	4.50	5.25	2.00	5.00	1.00	3.75	3.25	4.50	0.50	1.50	6.25	2.00	0.25	1.00	-0.220215	0.018555	0.957031	-3.360000	1.750000	1.750000	591.00	-0.06	-0.11	1.25	1.25	1.00	0.25	1.25	0.25	2.25	2.50	5.75	5.00	5.00	4.00	7.75	6.00	1.25	5.00	-0.172852	0.023926	0.958984	-6.650000	9.030000	-0.420000	554.00	0.17	-0.06
0.05	4.75	4.75	4.75	5.75	1.75	5.25	1.00	3.75	3.00	4.50	0.50	1.75	6.50	2.25	0.50	1.25	-0.218262	0.028809	0.958496	-2.940000	1.190000	1.890000	606.00	-0.06	-0.11	1.00	1.25	0.75	0.25	1.00	0.00	2.00	2.25	6.00	5.25	4.75	4.00	7.75	6.00	1.25	4.75	-0.179688	0.062012	0.962891	-5.670000	9.450000	-0.840000	536.00	0.18	-0.06
0.06	4.75	4.75	4.75	5.50	2.50	5.50	1.00	3.75	3.75	4.75	1.00	1.25	6.25	2.25	0.25	1.25	-0.226562	0.028809	0.926270	-3.150000	0.840000	1.610000	623.00	-0.06	-0.10	1.00	1.25	0.75	0.25	1.00	0.00	2.00	2.25	6.00	5.25	5.00	3.75	7.50	6.25	1.25	4.75	-0.172363	0.095703	0.970215	-5.600000	9.660000	-0.350000	536.00	0.18	-0.06
0.07	4.75	5.00	4.50	5.50	2.50	5.00	1.00	4.00	3.50	4.50	1.00	1.50	6.50	2.50	0.50	1.50	-0.227051	0.036133	0.953613	-3.710000	0.420000	1.260000	627.00	-0.05	-0.10	1.25	1.25	0.50	0.50	0.75	0.00	2.00	2.00	6.00	5.00	4.75	3.50	7.50	6.00	1.25	4.75	-0.172363	0.060547	0.974609	-4.900000	10.010000	-0.280000	520.00	0.18	-0.06
0.08	5.00	5.00	4.75	5.50	2.25	5.25	1.00	3.75	4.00	4.75	1.00	1.50	6.50	2.25	0.25	1.25	-0.229004	0.032227	0.958008	-4.690000	0.140000	0.700000	632.00	-0.05	-0.10	1.00	1.25	0.75	0.25	1.00	0.00	2.00	2.00	6.00	5.00	4.50	3.50	7.25	6.00	1.00	4.75	-0.167480	0.089844	0.977051	-4.340000	10.290000	-0.280000	513.00	0.18	-0.05
0.09	5.00	5.25	4.50	5.50	2.50	5.25	1.00	3.50	3.75	5.50	1.25	1.50	6.25	2.25	0.50	1.25	-0.223633	0.035645	0.957520	-5.670000	-0.070000	0.210000	638.00	-0.05	-0.10	0.75	1.25	0.75	0.50	0.75	0.00	2.00	1.75	6.00	5.00	4.50	3.50	7.00	6.00	1.25	4.75	-0.174316	0.064453	0.977539	-4.270000	10.640000	-0.350000	506.00	0.19	-0.05
0.10	5.00	5.25	4.50	5.50	2.75	5.25	1.00	3.75	4.00	5.00	0.75	1.50	6.25	2.50	0.50	1.25	-0.222656	0.031250	0.955078	-6.300000	-0.420000	-0.070000	640.00	-0.05	-0.09	0.75	1.00	0.75	0.50	0.75	0.00	2.00	1.75	6.00	5.00	4.25	3.25	6.75	6.25	1.00	4.50	-0.180664	0.060059	0.971191	-5.040000	10.920000	-0.630000	493.00	0.19	-0.04
0.11	5.25	5.25	5.00	5.75	3.00	5.25	1.00	4.00	4.00	5.25	1.00	1.75	6.50	2.00	0.50	1.25	-0.238770	0.034668	0.959961	-6.930000	-0.770000	-0.350000	665.00	-0.06	-0.10	0.75	1.00	0.50	0.50	0.75	0.00	2.00	1.50	6.00	5.00	4.25	3.00	6.50	6.25	0.75	4.50	-0.181641	0.072266	0.979980	-5.600000	12.460000	-1.400000	478.00	0.19	-0.04
0.12	5.25	5.25	5.00	5.75	3.25	5.25	1.00	4.00	3.50	5.25	1.00	1.50	6.50	2.25	0.25	1.25	-0.216309	0.028809	0.953125	-7.420000	-1.190000	-0.490000	658.00	-0.06	-0.10	1.25	1.25	1.00	0.25	0.50	0.00	1.75	1.50	6.25	4.75	4.00	2.75	6.25	6.25	0.75	4.25	-0.179688	0.072266	0.978027	-6.230000	14.910000	-2.380000	473.00	0.18	-0.03
0.13	5.25	5.25	5.00	5.75	3.25	5.50	1.25	4.00	4.00	5.25	1.00	1.50	6.50	2.25	0.50	1.50	-0.224609	0.017090	0.951660	-7.420000	-1.470000	-0.560000	676.00	-0.05	-0.09	1.00	1.00	0.75	0.25	0.50	0.00	1.75	1.50	6.00	4.50	3.75	2.50	5.75	6.25	1.00	4.25	-0.187500	0.078613	0.979980	-6.510000	17.500000	-2.870000	451.00	0.19	-0.03
0.14	5.50	5.25	5.25	6.00	3.75	5.50	1.25	4.25	4.25	5.25	1.00	1.75	6.50	2.50	0.50	1.25	-0.217773	0.021973	0.959473	-7.280000	-1.540000	-0.490000	703.00	-0.05	-0.09	1.00	1.25	0.75	0.25	0.50	0.00	1.75	1.25	6.00	4.50	3.50	2.50	5.50	6.00	0.75	4.00	-0.186523	0.063477	0.988281	-6.650000	21.210001	-3.500000	437.00	0.19	-0.02
0.15	5.50	5.50	5.25	6.00	3.75	5.50	1.25	4.25	4.25	5.25	1.00	1.75	7.50	3.00	1.25	2.25	-0.218750	0.019043	0.956055	-7.070000	-1.890000	-0.420000	734.00	-0.04	-0.10	0.75	1.00	0.50	0.25	0.50	0.00	1.75	1.25	6.00	4.50	3.25	2.25	5.00	6.00	0.50	3.75	-0.197754	0.061523	1.010254	-5.880000	35.139999	-4.830000	414.00	0.19	-0.01
0.16	6.75	6.25	6.50	7.50	6.00	7.25	1.50	4.25	5.25	6.75	1.75	3.00	8.00	3.75	1.50	2.50	-0.216797	0.020508	0.951660	-6.650000	-2.310000	-0.280000	911.00	-0.04	-0.09	1.25	1.25	0.75	0.25	0.25	0.00	1.50	1.25	6.00	4.25	3.00	2.00	5.00	6.00	0.50	3.50	-0.215820	0.071289	1.039551	-5.530000	48.020000	-5.740000	408.00	0.18	-0.01
0.17	7.75	6.75	7.00	7.50	6.25	7.50	1.75	5.50	5.75	7.00	2.25	3.00	8.00	3.75	1.75	2.50	-0.211426	0.018066	0.960938	-6.300000	-3.010000	-0.140000	983.00	-0.04	-0.08	1.00	1.25	0.50	0.00	0.50	0.00	1.50	1.25	6.00	4.00	2.75	1.50	4.25	6.00	0.50	3.50	-0.217773	0.073242	1.083008	-8.190000	65.379997	-7.280000	384.00	0.19	0.00
0.18	8.25	6.75	7.25	8.00	6.75	7.75	1.75	5.75	5.75	7.00	2.00	2.75	8.00	2.75	0.75	1.00	-0.181152	-0.062012	0.949219	-6.020000	-3.500000	0.070000	975.00	-0.06	-0.08	1.00	1.25	0.75	0.00	0.25	0.00	1.25	1.00	5.75	3.75	2.50	1.25	3.25	6.00	0.25	3.00	-0.246094	0.069824	1.208496	-13.860000	83.300003	-8.820000	348.00	0.19	0.02
0.19	7.50	6.00	6.50	7.75	6.00	7.00	1.50	5.50	5.00	6.00	1.75	1.75	7.50	2.25	0.50	1.50	-0.207520	0.018555	0.948730	-5.320000	-4.340000	0.000000	875.00	-0.07	-0.09	0.75	1.00	0.50	0.00	0.50	0.00	1.25	1.25	5.75	3.50	2.00	1.25	3.00	5.75	0.25	2.75	-0.247070	0.051270	1.162109	-23.660000	101.709999	-10.360000	332.00	0.19	0.02
0.20	7.75	6.25	6.75	8.25	7.25	7.75	2.25	5.75	5.00	6.25	1.50	2.75	8.25	2.25	1.00	1.50	-0.207031	0.016113	0.954102	-5.040000	-4.690000	-0.070000	954.00	-0.06	-0.09	0.75	1.00	0.50	0.00	0.25	0.00	1.25	1.25	5.50	3.25	1.75	1.00	2.75	5.50	0.00	2.50	-0.246094	0.030762	1.168457	-37.939999	115.570000	-11.200000	308.00	0.19	0.02
0.21	7.50	6.00	6.50	8.00	7.25	8.00	2.25	6.00	5.75	7.00	2.25	3.00	8.75	4.00	1.50	2.50	-0.204590	0.020020	0.956055	-4.900000	-4.830000	-0.070000	1013.00	-0.04	-0.09	0.75	1.00	0.50	0.25	0.25	0.00	1.00	1.25	5.25	3.25	1.75	1.00	2.75	5.50	0.00	2.00	-0.262207	0.048828	1.165039	-47.810001	126.699997	-11.760000	300.00	0.18	0.02
0.22	10.25	8.25	8.00	8.75	7.75	8.25	2.25	6.25	5.75	7.00	2.00	3.25	8.50	4.00	1.50	2.50	-0.203613	0.012695	0.959473	-4.970000	-4.760000	-0.140000	1105.00	-0.06	-0.08	0.50	1.00	0.50	0.25	0.25	0.00	1.00	1.25	5.25	3.00	1.50	1.00	2.25	5.00	0.00	1.75	-0.301270	0.074707	1.214355	-58.310001	134.960007	-12.950000	281.00	0.18	0.03
0.23	11.25	8.50	8.25	8.75	8.00	8.50	2.50	6.25	5.75	6.75	2.25	3.00	8.50	4.00	1.50	2.50	-0.203613	0.015137	0.961426	-4.760000	-4.830000	-0.210000	1129.00	-0.07	-0.08	0.75	1.00	0.25	0.00	0.25	0.00	1.00	1.25	5.00	2.50	1.50	1.00	2.00	4.75	0.00	1.50	-0.249512	-0.001465	1.277832	-72.730003	141.820007	-14.700000	262.00	0.18	0.03
0.24	11.75	8.75	8.75	9.00	8.50	8.25	2.25	5.75	5.50	6.75	1.25	2.25	8.50	2.75	1.25	2.25	-0.201660	0.018555	0.965820	-4.550000	-4.340000	-0.210000	1098.00	-0.09	-0.08	1.00	1.00	0.50	0.25	0.00	0.00	1.00	1.00	4.50	2.25	1.50	1.00	2.00	4.00	0.00	1.75	-0.355469	-0.031250	1.415527	-92.889999	143.430008	-15.470000	249.00	0.17	0.02
0.25	12.25	9.00	8.75	9.25	8.75	8.75	2.75	6.25	5.75	7.00	2.25	3.50	8.75	4.00	1.75	2.75	-0.199707	0.017578	0.963867	-4.200000	-3.710000	-0.070000	1189.00	-0.07	-0.08	0.75	0.75	0.50	0.00	0.25	0.00	1.00	1.00	3.75	2.50	1.50	0.75	2.25	3.50	0.00	1.50	-0.270508	-0.093262	1.538086	-132.860001	134.610001	-13.860000	229.00	0.17	0.01
0.26	13.25	9.25	8.75	9.50	9.00	8.75	2.75	6.75	6.00	7.00	2.50	3.50	8.75	4.00	1.50	2.75	-0.198242	0.016602	0.974609	-3.780000	-2.520000	-0.070000	1221.00	-0.07	-0.08	0.75	1.00	0.25	0.25	0.00	0.00	1.00	1.00	3.25	2.00	1.25	0.75	1.75	2.50	0.00	2.00	-0.254395	-0.154297	1.598633	-187.110001	119.279999	-4.620000	201.00	0.15	-0.00
0.27	13.50	9.75	9.00	9.75	9.00	9.00	2.75	6.75	6.00	7.00	2.25	3.25	8.75	4.25	1.50	2.75	-0.198242	0.022461	0.967773	-3.220000	-1.330000	0.070000	1234.00	-0.08	-0.08	1.00	1.00	0.50	0.25	0.00	0.00	1.00	1.25	3.00	2.00	1.50	1.00	2.25	1.75	0.00	2.00	-0.235352	-0.141602	1.584961	-243.809998	98.139999	12.670000	211.00	0.13	-0.04
0.28	14.00	9.75	9.25	9.75	9.25	9.25	3.00	6.75	5.75	6.75	2.00	3.00	8.75	3.75	1.50	2.75	-0.198242	0.019043	0.964355	-2.870000	-0.210000	0.210000	1236.00	-0.08	-0.08	0.75	1.00	0.50	0.25	0.00	0.00	1.00	1.25	2.50	2.00	1.25	1.00	1.75	1.00	0.00	2.00	-0.239258	0.109375	1.322754	-313.529999	53.130001	55.299999	187.00	0.12	-0.05
0.29	14.50	10.00	9.50	9.75	9.50	9.25	2.75	6.75	6.00	7.00	2.25	3.25	8.75	4.00	1.50	2.75	-0.190430	0.013184	0.964844	-2.590000	0.980000	0.210000	1261.00	-0.08	-0.07	0.75	1.00	0.00	0.00	0.25	0.00	1.00	1.00	1.75	1.50	1.25	1.00	2.00	0.75	0.00	2.25	0.115723	0.731934	1.116699	-306.179993	30.309999	84.209999	162.00	0.12	-0.07
0.30	15.25	10.25	9.50	10.00	9.75	9.25	3.00	6.75	6.00	7.00	2.25	3.50	9.00	4.25	1.50	2.75	-0.187500	0.025391	0.968750	-2.590000	2.240000	0.280000	1290.00	-0.08	-0.07	0.75	1.25	0.25	0.25	0.25	0.00	1.25	1.00	1.25	1.50	1.25	1.00	2.25	0.75	0.00	2.25	0.271973	1.718262	0.834473	-254.940002	9.030000	135.729996	170.00	0.10	-0.09
0.31	15.00	10.25	9.50	9.75	9.50	9.25	3.00	7.00	5.75	7.25	2.25	3.75	8.75	4.00	1.50	2.25	-0.187500	0.017578	0.972168	-2.520000	3.500000	0.210000	1280.00	-0.08	-0.08	0.75	1.25	0.50	0.50	0.00	0.00	1.25	1.25	1.00	1.50	1.25	1.00	2.50	0.75	0.00	2.00	0.227539	1.597656	0.674316	-159.669998	-8.050000	220.990005	174.00	0.08	-0.11
0.32	14.75	10.00	9.25	9.75	9.75	9.50	3.00	6.75	6.00	7.00	2.25	3.50	8.75	4.00	1.75	2.75	-0.194824	0.018066	0.965332	-2.380000	4.620000	0.140000	1277.00	-0.08	-0.07	0.50	1.00	0.25	0.00	0.00	0.00	1.25	1.25	1.00	1.25	1.00	1.00	2.25	0.50	0.00	2.00	0.245605	1.381836	0.794922	-71.889999	-30.100000	292.739990	149.00	0.11	-0.11
0.33	14.75	10.00	9.25	9.75	9.75	9.25	3.00	6.75	6.25	7.00	2.50	3.50	9.00	3.75	1.50	2.75	-0.192383	0.018066	0.968262	-2.170000	5.670000	0.140000	1277.00	-0.08	-0.07	1.00	1.25	0.00	0.25	0.25	0.00	1.00	1.00	0.75	1.25	1.25	1.00	2.50	0.75	0.00	2.00	0.057129	0.774414	0.571777	-39.060001	-46.130001	341.040009	156.00	0.08	-0.12
0.34	14.50	10.25	9.25	9.75	9.75	9.25	3.00	6.75	6.25	7.00	2.25	3.75	8.75	4.00	1.75	2.50	-0.193848	0.013672	0.960938	-1.400000	7.140000	0.490000	1278.00	-0.08	-0.07	0.50	1.00	0.50	0.00	0.25	0.00	1.25	1.00	0.75	1.25	1.00	0.75	2.50	1.00	0.00	1.75	-0.017578	0.494629	0.506348	-41.020000	-47.529999	373.869995	150.00	0.10	-0.10
0.35	14.50	9.75	9.25	9.75	9.50	9.25	2.75	6.75	6.00	7.00	2.50	3.50	8.75	4.00	1.50	2.50	-0.189941	0.013184	0.954590	-1.260000	7.840000	0.490000	1260.00	-0.08	-0.08	0.00	0.00	0.00	0.00	0.00	0.00	1.00	0.00	0.00	0.25	0.00	0.00	0.00	0.00	0.00	0.00	0.003906	0.348145	0.468750	-60.270000	-44.240002	393.399994	19.00	0.00	0.00
0.36	14.25	9.75	9.00	9.75	9.25	9.25	2.75	6.75	6.00	7.00	2.25	3.25	8.75	4.25	1.50	2.50	-0.195801	0.024902	0.957520	-1.190000	8.330000	0.490000	1247.00	-0.08	-0.08	0.00	0.00	0.00	0.25	0.00	0.00	1.00	0.00	0.00	0.00	0.00	0.00	0.00	0.00	0.00	0.00	0.060547	0.299316	0.598633	-76.790001	-52.570000	405.929993	19.00	0.00	0.00
0.37	13.75	9.50	9.00	9.50	9.50	9.25	3.00	6.75	6.25	7.00	2.50	3.75	9.00	3.75	1.50	2.50	-0.197266	0.018555	0.960938	-1.190000	8.610000	0.350000	1253.00	-0.08	-0.08	0.00	0.00	0.00	0.50	0.00	0.00	1.00	0.00	0.00	0.00	0.00	0.00	0.00	0.00	0.00	0.00	0.060547	0.299316	0.598633	-76.790001	-52.570000	405.929993	22.00	0.00	0.00
0.38	13.50	9.50	9.00	9.25	9.25	9.00	2.75	6.75	6.25	7.25	2.50	3.75	8.75	4.00	1.50	2.50	-0.198730	0.021484	0.956543	-1.260000	8.470000	0.350000	1240.00	-0.07	-0.08	0.00	0.00	0.00	0.00	0.00	0.00	1.00	0.00	0.00	0.00	0.00	0.00	0.00	0.00	0.00	0.00	0.053711	0.236816	0.663574	-69.510002	-63.700001	401.869995	16.00	0.00	0.00
0.39	13.00	9.25	9.00	9.25	9.25	9.00	2.75	6.75	6.25	7.25	2.25	3.50	9.00	4.00	1.75	2.75	-0.202148	0.014648	0.956055	-1.400000	8.050000	0.350000	1233.00	-0.07	-0.08	0.00	0.00	0.00	0.00	0.00	0.00	1.00	0.00	0.00	0.00	0.00	0.00	0.00	0.00	0.00	0.00	0.042480	0.156250	0.699219	-58.520000	-77.559998	392.000000	16.00	0.00	0.00
0.40	13.50	9.25	8.75	9.25	9.25	9.00	2.75	6.75	6.25	7.25	2.50	3.75	9.00	4.00	1.50	2.75	-0.208008	0.020508	0.965332	-1.610000	7.420000	0.210000	1238.00	-0.07	-0.08	0.00	0.00	0.00	0.25	0.00	0.00	1.00	0.00	0.00	0.00	0.00	0.00	0.00	0.00	0.00	0.00	-0.000488	-0.019531	0.722656	-43.049999	-100.800003	357.000000	19.00	0.00	0.00
0.41	13.00	9.00	8.75	9.25	9.25	9.00	2.75	6.75	6.25	7.25	2.50	3.50	8.75	4.00	1.50	2.75	-0.198242	0.013672	0.955078	-1.750000	6.720000	0.210000	1225.00	-0.07	-0.08	0.00	0.00	0.00	0.00	0.00	0.00	1.00	0.00	0.00	0.00	0.00	0.00	0.00	0.00	0.00	0.00	-0.009766	-0.059082	0.753906	-36.119999	-108.849998	332.779999	16.00	0.00	0.00
0.42	12.75	9.25	8.75	9.25	9.25	9.00	2.75	6.75	6.25	7.25	2.50	3.50	9.00	3.75	1.50	2.75	-0.204590	0.019043	0.959473	-2.030000	6.160000	0.280000	1225.00	-0.07	-0.08	0.00	0.00	0.00	0.00	0.00	0.00	1.00	0.00	0.00	0.00	0.00	0.00	0.00	0.00	0.00	0.00	-0.003418	-0.077148	0.812012	-27.230000	-116.199997	304.360016	16.00	0.00	0.00
0.43	12.75	9.00	8.75	9.25	9.25	8.75	2.75	6.75	6.25	7.25	2.50	3.75	9.00	4.25	1.50	3.00	-0.202637	0.016602	0.957520	-2.380000	5.320000	0.210000	1228.00	-0.07	-0.08	0.00	0.00	0.00	0.25	0.00	0.00	1.00	0.00	0.00	0.00	0.00	0.00	0.00	0.00	0.00	0.00	-0.001953	-0.077637	0.904297	-16.240000	-122.849998	273.070007	19.00	0.00	0.00
0.44	13.00	9.00	8.75	9.00	9.00	9.00	2.75	6.75	6.25	7.25	2.50	3.75	9.00	3.75	1.75	2.75	-0.200684	0.017578	0.959961	-2.520000	4.480000	0.210000	1225.00	-0.07	-0.08	0.00	0.00	0.00	0.25	0.00	0.00	1.00	0.00	0.00	0.00	0.00	0.00	0.00	0.00	0.00	0.00	-0.002441	-0.065430	1.002930	-6.370000	-128.520004	240.169998	19.00	0.00	0.00
0.45	12.75	9.00	8.75	9.25	9.00	8.75	2.75	6.75	6.50	7.00	2.50	3.50	9.00	4.00	1.75	2.75	-0.204590	0.018066	0.959961	-2.730000	3.920000	0.140000	1222.00	-0.07	-0.08	0.00	0.00	0.00	0.25	0.00	0.00	1.00	0.00	0.00	0.00	0.00	0.00	0.00	0.00	0.00	0.00	0.003418	-0.064941	1.104980	-4.690000	-135.100006	207.059998	19.00	0.00	0.00
0.46	12.50	9.25	9.00	9.25	9.50	9.00	2.75	6.75	6.25	7.50	2.75	3.75	9.00	4.25	1.50	3.00	-0.199707	0.018555	0.958496	-2.800000	3.360000	0.210000	1243.00	-0.07	-0.08	0.00	0.00	0.00	0.00	0.00	0.00	1.00	0.00	0.00	0.00	0.00	0.00	0.00	0.00	0.00	0.00	-0.035645	-0.022461	1.197754	-14.630000	-144.339996	173.880005	16.00	0.00	0.00
0.47	12.50	9.25	9.00	9.00	9.25	9.00	2.75	7.00	6.25	7.00	2.50	3.75	9.00	4.25	1.50	3.00	-0.203125	0.016113	0.964844	-2.870000	2.940000	0.210000	1232.00	-0.07	-0.08	0.00	0.00	0.00	0.25	0.00	0.00	1.00	0.00	0.00	0.00	0.00	0.00	0.00	0.00	0.00	0.00	-0.077637	0.071289	1.189941	-29.120001	-153.300003	140.000000	19.00	0.00	0.00
0.48	13.00	9.25	8.75	9.25	9.50	9.25	3.00	7.00	6.50	7.25	2.50	3.75	9.00	4.00	1.50	2.50	-0.200195	0.015137	0.961914	-2.870000	2.730000	0.140000	1249.00	-0.07	-0.08	0.00	0.00	0.00	0.00	0.00	0.00	1.00	0.00	0.00	0.00	0.00	0.00	0.00	0.00	0.00	0.00	-0.133301	0.236328	1.170410	-39.689999	-159.110001	105.349998	16.00	0.00	0.00
0.49	13.00	9.00	9.00	9.25	9.50	9.00	3.00	7.00	6.25	7.00	2.50	3.75	9.00	4.00	1.75	2.50	-0.202637	0.021973	0.965332	-2.660000	2.870000	0.140000	1243.00	-0.07	-0.08	0.00	0.00	0.00	0.25	0.00	0.00	1.00	0.00	0.00	0.00	0.00	0.00	0.00	0.00	0.00	0.00	-0.187988	0.432617	1.152344	-39.619999	-162.680008	71.050003	19.00	0.00	0.00
0.50	12.75	9.25	9.00	9.25	9.75	9.25	3.00	7.00	6.50	7.25	2.50	3.75	9.00	4.00	1.75	2.75	-0.201172	0.013184	0.959473	-2.660000	2.940000	0.070000	1257.00	-0.07	-0.08	0.00	0.00	0.00	0.00	0.00	0.00	1.00	0.00	0.00	0.00	0.00	0.00	0.00	0.00	0.00	0.00	-0.263184	0.564941	1.074707	-28.770000	-163.660004	39.619999	16.00	0.00	0.00
0.51	13.25	9.00	9.00	9.00	9.75	9.25	3.00	7.00	6.25	7.25	2.50	3.75	9.00	4.00	1.75	2.75	-0.198730	0.017090	0.966309	-2.380000	3.080000	0.140000	1253.00	-0.07	-0.08	0.00	0.00	0.00	0.50	0.00	0.00	1.25	0.00	0.00	0.00	0.00	0.00	0.00	0.00	0.00	0.00	-3.212891	-0.800781	0.880371	-74.830002	-39.200001	-19.460001	27.00	0.00	0.00
0.52	13.00	9.00	9.00	9.25	9.75	9.25	3.00	7.00	6.50	7.25	2.50	3.75	9.00	4.25	1.50	2.75	-0.195801	0.019531	0.969238	-2.170000	3.570000	0.350000	1256.00	-0.07	-0.08	0.00	0.00	0.00	1.00	0.50	0.00	1.25	0.00	0.00	0.00	0.00	0.00	0.00	0.00	0.00	0.00	-4.423828	0.483887	0.381836	-36.820000	5.390000	5.530000	39.00	0.00	0.00
0.53	12.75	9.00	9.00	9.00	9.75	9.00	3.00	7.00	6.50	7.25	2.75	3.75	9.00	4.25	1.75	3.00	-0.197754	0.020508	0.973145	-1.960000	5.110000	0.490000	1255.00	-0.06	-0.08	0.00	0.00	0.00	0.75	0.75	0.00	1.50	0.00	0.00	0.00	0.00	0.00	0.00	0.00	0.00	0.00	-4.936035	-0.632812	0.075195	-39.830002	25.760000	14.070000	43.00	0.00	0.00
0.54	13.00	9.00	9.00	9.00	9.75	9.00	3.00	7.00	6.50	7.25	2.75	3.75	9.00	4.00	1.75	3.00	-0.199219	0.016113	0.969727	-1.610000	6.440000	0.630000	1255.00	-0.07	-0.08	0.50	0.00	0.00	0.50	1.00	0.00	1.50	0.00	0.00	0.00	0.00	0.00	0.00	0.00	0.00	0.00	-0.723145	-0.085938	1.532227	-30.450001	8.400000	-8.750000	48.00	0.00	0.00
0.55	12.75	9.00	9.00	9.00	9.50	9.25	3.00	7.00	6.25	7.25	2.50	3.75	9.00	4.00	1.75	2.75	-0.195312	0.016113	0.963379	-1.470000	7.560000	0.770000	1245.00	-0.07	-0.08	0.25	0.00	0.00	0.75	1.00	0.00	1.50	0.00	0.00	0.00	0.00	0.00	0.00	0.00	0.00	0.00	-0.038574	0.093262	0.977539	2.310000	-15.960000	-6.020000	49.00	0.00	0.00
0.56	12.25	8.75	8.75	9.00	9.50	9.00	2.75	6.75	6.50	7.25	2.75	3.75	9.00	4.25	1.75	3.00	-0.202637	0.019043	0.959473	-1.260000	8.190000	0.840000	1232.00	-0.06	-0.08	0.00	0.00	0.00	0.75	1.00	0.00	1.50	0.00	0.00	0.00	0.00	0.00	0.00	0.00	0.00	0.00	0.135254	0.022949	0.766602	6.860000	-9.730000	2.870000	46.00	0.00	0.00
0.57	11.75	8.50	8.50	8.75	9.25	8.75	2.75	6.75	6.50	7.25	2.50	4.00	9.00	4.25	1.75	2.50	-0.201172	0.015625	0.956543	-1.120000	8.750000	0.910000	1209.00	-0.06	-0.08	0.25	0.00	0.00	0.75	1.25	0.00	1.50	0.00	0.25	0.00	0.00	0.00	0.00	0.00	0.00	0.00	-0.017090	0.034180	0.990723	3.710000	-1.750000	-1.680000	55.00	-0.05	0.11
0.58	11.50	8.50	8.50	8.75	9.00	8.75	3.00	6.75	6.50	7.25	2.75	3.75	9.00	4.25	1.75	2.50	-0.203125	0.020020	0.967285	-0.770000	9.380000	0.980000	1208.00	-0.06	-0.08	0.25	0.00	0.25	1.25	1.50	0.00	1.75	0.00	0.50	0.00	0.00	0.00	0.25	0.00	0.00	0.00	-0.202148	0.064941	1.015625	-0.910000	-2.240000	-1.820000	77.00	-0.05	0.08
0.59	11.25	8.25	8.50	8.50	9.00	8.75	2.75	6.75	6.50	7.25	2.50	4.00	9.00	4.00	1.50	2.75	-0.199219	0.017090	0.958496	-0.280000	10.150000	1.120000	1191.00	-0.06	-0.08	0.50	0.00	0.50	0.75	1.50	0.00	1.75	0.00	0.50	0.00	0.00	0.00	0.00	0.00	0.00	0.00	-0.232422	0.083984	0.998047	-3.360000	-2.590000	-0.140000	75.00	-0.06	0.12
0.60	10.50	8.25	8.25	8.50	8.50	8.50	2.75	6.50	6.50	7.25	2.50	3.75	9.00	4.25	1.75	2.75	-0.197266	0.018066	0.965332	-0.000000	10.850000	1.120000	1169.00	-0.05	-0.08	0.00	0.00	0.00	0.50	1.25	0.00	2.00	0.00	0.50	0.00	0.00	0.00	0.00	0.00	0.00	0.00	-0.179688	0.048828	0.990234	-2.030000	-1.190000	0.840000	61.00	0.01	0.16
0.61	9.75	8.00	8.00	8.25	8.50	8.50	2.50	6.50	6.25	7.25	2.75	3.75	9.00	4.25	1.75	2.75	-0.204102	0.024414	0.960938	0.280000	11.340000	1.120000	1147.00	-0.05	-0.08	0.00	0.00	0.00	0.75	1.50	0.00	2.00	0.00	0.75	0.00	0.00	0.00	0.25	0.00	0.00	0.00	-0.144531	0.051270	0.939453	0.070000	0.910000	1.050000	73.00	0.01	0.12
0.62	8.50	6.75	7.25	7.75	8.25	7.75	2.50	6.50	6.50	7.25	2.75	3.75	8.75	4.00	1.75	2.75	-0.202148	0.022461	0.957520	0.140000	11.340000	0.980000	1092.00	-0.04	-0.08	0.00	0.00	0.00	0.75	1.50	0.00	2.00	0.00	1.00	0.00	0.00	0.00	0.75	0.00	0.00	0.00	-0.136230	0.050293	0.988770	1.330000	1.750000	0.910000	81.00	0.03	0.10
0.63	7.50	6.50	6.75	7.25	8.00	8.25	2.00	5.50	5.75	6.75	2.00	3.75	8.25	4.00	1.50	2.75	-0.208496	0.023438	0.965332	-0.000000	10.850000	0.910000	1012.00	-0.04	-0.09	0.00	0.00	0.00	0.75	1.50	0.00	1.75	0.00	1.00	0.25	0.00	0.00	0.25	0.00	0.00	0.00	-0.182617	0.045410	0.974121	1.120000	2.310000	0.840000	75.00	0.03	0.12
0.64	8.75	7.50	7.50	8.00	7.75	7.50	2.00	5.75	6.50	7.25	2.50	3.25	9.00	4.25	1.75	2.75	-0.207031	0.024902	0.953125	-0.280000	10.500000	0.700000	1075.00	-0.04	-0.08	0.00	0.00	0.00	0.75	1.25	0.00	1.75	0.00	1.00	0.00	0.00	0.00	0.75	0.00	0.00	0.00	-0.167480	0.065430	0.963867	0.840000	3.850000	0.490000	74.00	0.04	0.09
0.65	8.25	7.50	7.50	7.75	7.00	7.75	2.25	5.50	5.25	6.50	1.75	2.50	8.25	3.00	0.50	2.00	-0.206055	0.022949	0.956543	-0.770000	9.870000	0.490000	979.00	-0.07	-0.08	0.00	0.00	0.00	0.50	1.25	0.00	2.00	0.25	1.00	0.25	0.00	0.00	1.00	0.00	0.00	0.00	-0.162109	0.047363	0.969727	0.070000	3.220000	0.210000	85.00	0.06	0.07
0.66	8.25	7.25	7.50	8.00	6.75	7.75	2.00	6.25	6.50	7.50	2.75	3.75	9.00	4.50	1.50	2.75	-0.206543	0.027344	0.954102	-1.330000	9.170000	0.350000	1077.00	-0.04	-0.09	0.00	0.00	0.00	0.50	1.25	0.00	2.00	0.00	1.00	0.25	0.00	0.00	1.25	0.00	0.00	0.00	-0.169434	0.071777	0.966309	-1.050000	2.590000	-0.210000	83.00	0.07	0.08
0.67	7.75	6.25	7.25	7.50	6.25	7.00	1.75	5.50	5.25	6.25	1.75	2.50	8.50	2.25	0.25	1.50	-0.208984	0.031738	0.958496	-1.890000	8.190000	0.140000	915.00	-0.06	-0.09	0.00	0.00	0.00	0.75	1.25	0.00	2.00	0.25	1.25	0.50	0.00	0.00	1.00	0.00	0.00	0.00	-0.166504	0.069336	0.961914	-2.870000	1.400000	-0.630000	94.00	0.06	0.07
0.68	6.75	6.25	6.75	7.75	7.25	8.00	2.25	6.25	6.50	7.25	2.50	3.75	9.00	4.00	1.50	3.00	-0.209473	0.026367	0.956543	-2.450000	7.420000	0.070000	1042.00	-0.03	-0.09	0.00	0.00	0.00	0.50	1.25	0.00	2.00	0.25	1.25	0.50	0.00	0.00	1.00	0.00	0.00	0.00	-0.162598	0.074707	0.990723	-4.830000	0.140000	-1.050000	91.00	0.07	0.08
0.69	7.75	7.00	7.00	7.75	7.25	7.75	2.25	6.25	6.75	7.50	2.75	3.50	8.75	4.25	1.75	3.00	-0.210449	0.018066	0.957031	-2.800000	6.580000	0.000000	1070.00	-0.03	-0.08	0.00	0.00	0.00	0.25	1.50	0.00	2.00	0.25	1.25	0.25	0.00	0.00	0.75	0.00	0.00	0.00	-0.166992	0.054199	0.959961	-6.230000	-0.350000	-1.470000	86.00	0.07	0.10
0.70	7.75	7.00	7.00	7.75	7.00	7.75	2.25	6.25	6.75	7.50	3.00	3.75	9.00	4.25	1.50	2.75	-0.213867	0.023926	0.955078	-3.150000	5.950000	-0.070000	1071.00	-0.03	-0.08	0.00	0.00	0.00	0.50	1.50	0.00	2.00	0.25	1.50	0.25	0.00	0.00	1.25	0.00	0.00	0.00	-0.170898	0.066895	0.962402	-6.580000	-0.980000	-1.400000	97.00	0.07	0.07
0.71	7.75	7.00	7.00	7.75	7.00	7.75	2.25	6.25	6.50	7.50	2.75	3.75	9.00	4.00	1.50	3.00	-0.209473	0.021973	0.956055	-3.220000	5.390000	0.070000	1064.00	-0.03	-0.09	0.00	0.00	0.00	0.75	1.50	0.00	2.00	0.25	1.25	0.25	0.25	0.00	1.50	0.25	0.00	0.25	-0.165527	0.047363	0.961914	-6.440000	-1.750000	-0.770000	106.00	0.07	0.03
0.72	7.50	6.50	6.50	6.25	6.00	6.75	1.75	5.25	5.50	7.25	2.25	3.50	8.75	3.75	1.25	2.50	-0.209473	0.021973	0.958984	-3.290000	5.110000	0.070000	947.00	-0.03	-0.09	0.00	0.00	0.00	1.00	1.75	0.00	2.00	0.25	1.25	0.50	0.00	0.00	1.25	0.25	0.00	0.00	-0.162598	0.055664	0.969238	-6.090000	-2.590000	-0.210000	108.00	0.05	0.05
0.73	6.50	5.75	5.75	6.50	5.75	6.50	1.75	5.25	5.75	7.25	2.75	3.25	8.50	3.75	1.00	2.50	-0.212891	0.015625	0.963379	-3.220000	4.900000	0.210000	917.00	-0.02	-0.09	0.25	0.00	0.50	1.00	1.75	0.00	2.25	0.50	1.50	0.50	0.00	0.00	1.50	0.00	0.00	0.00	-0.162598	0.055664	0.969238	-6.090000	-2.590000	-0.210000	129.00	0.03	0.04
0.74	7.00	6.25	6.50	7.50	6.75	7.75	2.25	6.25	6.25	7.25	2.50	3.75	8.75	4.25	1.50	2.50	-0.211914	0.021973	0.959961	-2.940000	4.900000	0.280000	1023.00	-0.03	-0.09	0.00	0.00	0.25	1.00	2.00	0.00	2.00	0.50	1.50	0.25	0.00	0.00	1.50	0.00	0.00	0.25	-0.159668	0.027832	0.965820	-6.230000	-2.660000	-0.140000	120.00	0.04	0.02
0.75	7.75	7.50	6.75	7.50	6.75	7.75	2.00	6.25	6.75	6.75	1.50	3.25	8.75	3.50	1.50	2.50	-0.212402	0.019043	0.954102	-2.660000	4.620000	0.280000	1021.00	-0.04	-0.09	0.00	0.00	0.50	0.75	2.00	0.00	2.25	0.50	1.50	0.50	0.00	0.00	1.50	0.00	0.00	0.00	-0.159668	0.053223	0.962402	-6.230000	-2.660000	-0.000000	126.00	0.04	0.04
0.76	7.00	6.50	6.50	7.00	6.50	7.50	2.25	6.00	6.50	7.25	2.50	3.50	8.75	4.00	1.75	2.25	-0.214355	0.022949	0.959961	-2.520000	4.480000	0.490000	1009.00	-0.02	-0.08	0.25	0.00	0.25	1.00	2.00	0.00	2.25	0.50	1.75	0.50	0.00	0.00	1.50	0.00	0.00	0.00	-0.148926	0.049316	0.971191	-5.530000	-1.750000	0.070000	132.00	0.04	0.04
0.77	7.00	6.50	6.25	7.25	6.25	7.50	2.00	6.25	6.25	7.25	2.75	3.75	8.75	4.25	1.75	2.75	-0.209473	0.020508	0.955566	-2.240000	4.480000	0.560000	1014.00	-0.02	-0.09	0.00	0.25	0.25	1.00	2.25	0.00	2.25	0.50	1.75	0.50	0.00	0.00	1.50	0.00	0.00	0.00	-0.148926	0.050781	0.969727	-4.970000	-1.470000	0.140000	135.00	0.03	0.04
0.78	7.50	7.00	7.00	7.50	6.75	7.50	2.25	6.25	6.50	7.50	2.75	3.75	8.75	4.00	1.50	2.75	-0.210938	0.023926	0.953125	-2.170000	4.550000	0.630000	1048.00	-0.03	-0.09	0.50	0.00	0.50	1.00	2.25	0.00	2.25	0.50	1.50	0.25	0.00	0.00	1.25	0.00	0.00	0.00	-0.160156	0.053711	0.974609	-4.550000	-0.770000	0.140000	132.00	0.00	0.05
0.79	7.50	6.75	7.00	7.75	6.50	7.00	2.00	6.00	6.00	7.00	2.25	3.50	8.50	3.50	1.25	2.50	-0.209473	0.025391	0.961426	-2.170000	4.690000	0.630000	999.00	-0.04	-0.09	0.50	0.25	0.50	1.25	2.25	0.00	2.25	0.50	1.50	0.25	0.00	0.00	1.75	0.00	0.00	0.25	-0.156250	0.054199	0.969238	-4.270000	-0.070000	0.140000	144.00	-0.00	0.02
0.80	6.25	6.00	5.50	6.50	5.75	7.25	2.00	5.75	6.00	7.00	2.50	3.25	8.25	2.50	0.75	2.25	-0.208984	0.023438	0.952148	-2.310000	4.760000	0.630000	915.00	-0.03	-0.09	0.50	0.00	0.75	1.25	2.25	0.00	2.25	0.50	1.75	0.50	0.00	0.00	1.75	0.00	0.00	0.25	-0.152344	0.049805	0.969727	-3.710000	0.420000	0.140000	151.00	0.01	0.03
0.81	6.25	5.75	6.25	7.00	6.00	6.75	1.75	5.75	5.50	7.00	2.25	2.75	8.00	3.00	0.75	2.25	-0.209961	0.021973	0.951172	-2.450000	4.830000	0.560000	907.00	-0.04	-0.09	0.50	0.00	0.50	1.25	2.25	0.00	2.25	0.75	1.75	0.50	0.00	0.00	1.50	0.00	0.00	0.00	-0.154785	0.060547	0.970215	-2.940000	0.980000	0.140000	148.00	0.01	0.03
0.82	6.00	5.75	5.25	6.50	5.50	6.75	1.75	5.25	5.25	6.50	2.00	2.50	8.00	2.75	0.75	2.00	-0.211426	0.026367	0.955078	-2.520000	4.830000	0.420000	852.00	-0.04	-0.09	0.50	0.00	0.25	1.25	2.25	0.00	2.25	0.25	1.75	0.50	0.00	0.00	1.50	0.00	0.00	0.25	-0.154297	0.049805	0.964844	-2.450000	1.470000	0.280000	138.00	0.02	0.05
0.83	6.25	6.00	5.75	6.50	5.75	6.50	1.75	5.25	5.25	6.25	1.50	2.25	8.00	2.25	0.50	1.50	-0.206055	0.024414	0.954102	-2.940000	4.830000	0.350000	842.00	-0.05	-0.09	0.50	0.00	0.75	1.25	2.25	0.00	2.25	0.50	1.50	0.50	0.00	0.00	1.50	0.00	0.00	0.25	-0.151367	0.048828	0.971191	-1.960000	2.030000	0.140000	145.00	0.00	0.03
0.84	6.25	6.00	5.75	6.50	5.50	6.50	1.75	5.25	5.25	6.25	1.75	2.25	8.00	2.50	0.25	1.50	-0.210938	0.022461	0.960449	-3.150000	5.040000	0.350000	841.00	-0.05	-0.09	0.75	0.25	0.75	1.25	2.25	0.00	2.25	0.75	1.50	0.50	0.00	0.00	1.25	0.00	0.00	0.00	-0.154785	0.057129	0.967285	-1.470000	2.170000	0.210000	151.00	-0.02	0.03
0.85	6.00	6.00	5.75	6.50	5.50	6.50	1.75	5.25	5.25	6.25	1.75	2.50	8.00	2.75	0.50	1.50	-0.210449	0.022949	0.957520	-3.150000	5.110000	0.350000	847.00	-0.04	-0.09	0.75	0.25	0.50	1.25	2.25	0.00	2.25	0.50	1.25	0.50	0.00	0.00	1.25	0.00	0.00	0.00	-0.149902	0.052246	0.962402	-1.470000	2.240000	0.070000	140.00	-0.02	0.04
0.86	6.25	5.75	5.75	6.50	5.50	6.50	1.75	5.25	5.25	6.25	1.50	2.50	8.00	2.50	0.50	1.75	-0.214355	0.026855	0.967773	-3.150000	4.970000	0.280000	843.00	-0.04	-0.09	1.00	0.25	0.25	1.25	2.50	0.00	2.25	0.75	1.50	0.25	0.00	0.00	1.50	0.00	0.00	0.25	-0.153809	0.062012	0.970703	-1.260000	2.030000	0.140000	151.00	-0.02	0.02
0.87	5.75	5.75	5.25	6.00	5.25	6.25	1.75	5.00	5.00	6.25	1.50	2.00	7.75	2.25	0.50	1.75	-0.211914	0.020508	0.956055	-3.080000	4.760000	0.490000	801.00	-0.04	-0.09	0.25	0.25	0.75	1.25	2.25	0.00	2.25	0.75	1.25	0.50	0.00	0.00	1.25	0.00	0.00	0.25	-0.156250	0.062012	0.960938	-1.890000	1.540000	0.210000	143.00	-0.01	0.02
0.88	5.75	5.50	5.00	5.75	5.25	6.00	1.75	5.00	5.25	6.00	1.25	2.00	8.00	2.50	0.50	1.50	-0.213379	0.019531	0.958496	-2.940000	4.690000	0.490000	791.00	-0.04	-0.09	0.25	0.25	1.00	1.00	2.25	0.00	2.25	0.50	1.50	0.25	0.00	0.00	1.50	0.00	0.00	0.00	-0.150391	0.054688	0.968262	-2.310000	1.120000	0.070000	140.00	-0.01	0.04
0.89	5.50	5.50	5.25	6.00	5.25	6.25	1.75	5.00	5.25	6.25	1.50	2.25	8.00	2.25	0.25	1.50	-0.212402	0.025391	0.957520	-2.870000	4.620000	0.700000	800.00	-0.04	-0.09	0.75	0.25	0.50	1.25	2.25	0.00	2.25	0.50	1.50	0.50	0.00	0.00	2.00	0.00	0.00	0.00	-0.152344	0.059570	0.963379	-2.730000	0.770000	-0.210000	150.00	-0.01	0.02
0.90	5.50	5.25	5.25	5.75	5.25	6.00	1.75	5.00	5.00	6.25	1.50	2.25	7.75	2.50	0.25	1.75	-0.209961	0.020508	0.960449	-2.870000	4.550000	0.770000	790.00	-0.04	-0.09	0.75	0.25	0.50	1.00	2.25	0.00	2.25	0.75	1.50	0.25	0.00	0.00	1.75	0.00	0.00	0.25	-0.151367	0.057617	0.959473	-3.220000	0.350000	-0.350000	148.00	-0.00	0.01
0.91	5.25	5.25	5.00	6.00	5.25	6.00	1.75	5.00	5.00	6.50	2.00	3.25	8.75	4.00	1.50	2.25	-0.209473	0.020508	0.958496	-2.800000	4.410000	0.700000	848.00	-0.01	-0.10	0.25	0.00	0.75	1.25	2.50	0.00	2.25	0.50	1.50	0.50	0.00	0.00	1.75	0.00	0.00	0.25	-0.154297	0.060059	0.965820	-3.640000	0.000000	-0.490000	147.00	0.01	0.02
0.92	6.00	5.75	5.50	6.25	5.50	6.25	1.75	5.25	6.25	7.50	2.50	3.25	8.25	2.50	0.75	2.00	-0.212891	0.020996	0.956543	-2.730000	4.410000	0.630000	887.00	-0.02	-0.09	0.75	0.25	0.50	1.25	2.50	0.00	2.25	0.75	1.25	0.25	0.00	0.00	1.75	0.00	0.00	0.25	-0.148926	0.056641	0.966309	-3.990000	-0.210000	-0.420000	150.00	-0.02	0.00
0.93	5.50	5.50	5.00	5.50	5.25	6.00	1.75	5.00	5.75	6.00	1.50	2.00	8.00	2.50	0.25	1.75	-0.213379	0.018066	0.961914	-2.520000	4.690000	0.840000	794.00	-0.03	-0.09	0.75	0.25	1.00	1.50	2.50	0.00	2.25	0.75	1.25	0.50	0.00	0.00	2.00	0.00	0.00	0.25	-0.153809	0.049316	0.970703	-4.340000	-0.140000	-0.350000	165.00	-0.03	-0.00
0.94	6.00	5.75	5.00	5.75	5.50	6.25	1.50	5.25	5.50	6.25	1.50	3.00	8.50	3.00	1.00	2.00	-0.213379	0.023926	0.958984	-2.450000	4.900000	0.770000	841.00	-0.03	-0.09	0.50	0.50	0.75	1.25	2.50	0.25	2.25	0.75	1.50	0.50	0.00	0.00	1.75	0.00	0.00	0.25	-0.168457	0.040039	0.970703	-4.480000	0.210000	-0.490000	162.00	-0.01	0.00
0.95	6.00	6.00	5.50	6.25	5.75	6.25	1.50	5.00	5.50	6.25	1.50	2.50	8.00	2.25	0.50	1.50	-0.213379	0.027832	0.956543	-2.310000	4.970000	0.840000	828.00	-0.04	-0.09	0.75	0.25	0.75	1.25	2.50	0.25	2.50	0.75	1.50	0.50	0.00	0.00	1.75	0.25	0.00	0.25	-0.147949	0.048828	0.971680	-4.340000	0.980000	-0.490000	169.00	-0.01	0.02
0.96	5.75	5.50	5.25	5.75	5.25	6.25	1.50	5.25	5.25	6.25	1.25	2.25	8.00	2.50	0.50	1.75	-0.204102	0.025879	0.951660	-2.170000	5.320000	0.910000	804.00	-0.04	-0.09	0.75	0.25	0.75	1.50	2.50	0.00	2.25	0.75	1.50	0.25	0.00	0.00	2.25	0.00	0.00	0.50	-0.154297	0.054199	0.968750	-4.130000	1.190000	-0.350000	166.00	-0.01	-0.01
0.97	5.75	5.75	5.25	6.25	5.50	6.25	1.75	5.00	5.25	6.25	1.50	2.25	8.00	2.75	0.75	1.25	-0.212402	0.023926	0.960938	-1.960000	5.180000	0.770000	821.00	-0.04	-0.09	0.75	0.25	0.75	1.00	2.50	0.00	2.50	0.75	1.75	0.50	0.00	0.00	1.75	0.25	0.00	0.25	-0.149414	0.057129	0.964844	-3.990000	1.400000	-0.210000	167.00	0.01	0.03
0.98	5.75	5.75	5.25	6.25	5.25	6.25	1.50	5.00	5.50	6.00	1.50	2.25	8.00	2.25	0.50	1.50	-0.212402	0.025391	0.953613	-2.030000	5.250000	0.840000	808.00	-0.04	-0.09	0.50	0.50	0.50	1.25	2.50	0.00	2.50	0.75	1.75	0.75	0.00	0.00	1.75	0.00	0.00	0.50	-0.145508	0.053711	0.969727	-3.640000	1.960000	-0.350000	168.00	0.01	0.02
0.99	5.75	6.00	5.50	6.00	5.50	6.00	1.50	5.00	5.25	6.00	1.50	2.50	8.00	2.50	0.50	2.50	-0.213379	0.021484	0.960449	-2.030000	5.250000	0.770000	818.00	-0.04	-0.09	0.75	0.50	1.00	1.00	2.50	0.00	2.25	0.75	1.50	0.50	0.00	0.00	2.00	0.00	0.00	0.25	-0.150391	0.059570	0.972168	-3.430000	2.450000	-0.420000	165.00	-0.02	0.01
1.00	6.25	5.50	5.00	5.75	5.50	6.00	1.50	5.00	5.25	6.00	1.50	2.00	8.00	2.25	1.00	1.50	-0.208984	0.024414	0.955566	-2.170000	5.320000	0.630000	802.00	-0.04	-0.09	0.75	0.25	0.50	1.25	2.50	0.00	2.25	0.75	1.50	0.75	0.00	0.00	1.50	0.25	0.00	0.25	-0.148926	0.056641	0.965332	-3.080000	2.940000	-0.140000	160.00	0.00	0.02
1.01	6.00	5.75	5.50	6.25	5.25	6.00	1.50	5.00	5.25	6.25	1.50	2.25	8.00	2.50	0.25	1.50	-0.214355	0.030762	0.950195	-2.450000	5.180000	0.560000	810.00	-0.04	-0.09	0.75	0.25	0.50	1.25	2.50	0.00	2.25	0.75	1.50	0.50	0.00	0.00	1.75	0.25	0.00	0.50	-0.152832	0.057129	0.963379	-3.150000	3.150000	-0.280000	161.00	0.00	0.01
1.02	6.00	5.75	5.50	6.25	5.25	6.00	1.50	5.00	5.25	6.25	1.50	2.25	8.00	2.50	0.25	1.50	-0.213379	0.018555	0.952148	-2.800000	5.180000	0.420000	810.00	-0.04	-0.09	0.50	0.25	0.75	1.25	2.50	0.00	2.25	0.75	1.75	0.50	0.00	0.00	2.00	0.00	0.00	0.25	-0.156738	0.054199	0.964844	-3.220000	3.150000	-0.280000	163.00	0.00	0.01
1.03	5.75	5.75	5.25	6.00	5.25	6.00	1.50	5.00	5.25	6.50	1.50	2.25	8.00	2.25	0.00	1.50	-0.214355	0.022461	0.956543	-3.010000	4.900000	0.350000	799.00	-0.04	-0.09	0.75	0.25	0.50	1.25	2.50	0.25	2.25	0.75	1.75	0.50	0.00	0.00	2.00	0.00	0.00	0.25	-0.154297	0.048340	0.960449	-3.220000	3.010000	-0.140000	166.00	-0.00	0.01
1.04	5.75	5.75	5.50	6.00	5.25	6.00	1.50	5.00	5.25	6.25	1.50	2.25	8.00	2.50	0.25	1.50	-0.209961	0.022949	0.953613	-3.080000	4.690000	0.350000	804.00	-0.04	-0.09	0.00	0.75	0.75	1.25	2.50	0.00	2.50	0.75	1.75	0.50	0.00	0.00	1.75	0.00	0.00	0.25	-0.152832	0.058105	0.960938	-3.360000	2.800000	-0.140000	164.00	0.00	0.01
1.05	5.75	5.50	5.50	6.25	5.25	6.00	1.50	5.00	5.25	6.25	1.25	2.00	7.75	2.50	0.50	1.50	-0.218262	0.023438	0.959473	-3.080000	4.620000	0.280000	799.00	-0.04	-0.09	0.75	0.25	0.75	1.00	2.50	0.00	2.50	0.75	1.75	0.50	0.00	0.00	1.50	0.00	0.00	0.25	-0.152832	0.060059	0.961914	-3.430000	2.520000	-0.210000	162.00	-0.00	0.04
1.06	5.75	5.75	5.25	6.25	5.25	6.00	1.50	5.00	5.25	6.25	1.50	2.25	8.00	2.50	0.75	1.75	-0.214355	0.021484	0.955078	-3.080000	4.480000	0.350000	811.00	-0.04	-0.09	0.50	0.50	0.50	1.00	2.50	0.25	2.50	0.50	1.75	0.75	0.00	0.00	1.75	0.00	0.00	0.25	-0.150391	0.056152	0.965332	-3.570000	2.170000	-0.140000	163.00	0.01	0.03
1.07	5.75	5.75	5.50	6.00	5.25	6.00	1.50	5.00	5.25	6.25	1.25	2.00	8.00	2.50	0.50	1.50	-0.214844	0.016113	0.957031	-3.080000	4.270000	0.420000	801.00	-0.04	-0.09	0.75	0.25	0.75	1.25	2.50	0.00	2.25	0.50	1.50	0.50	0.00	0.00	1.75	0.25	0.00	0.25	-0.150879	0.052734	0.956055	-3.850000	1.750000	-0.000000	158.00	-0.01	0.03
1.08	5.75	5.75	5.25	6.00	5.50	6.00	1.50	5.00	5.25	6.50	1.50	2.00	8.00	2.50	0.50	1.50	-0.212402	0.020020	0.959961	-3.080000	3.850000	0.490000	807.00	-0.04	-0.09	0.75	0.25	0.75	1.00	2.50	0.00	2.25	0.50	1.75	0.50	0.00	0.00	1.75	0.00	0.00	0.25	-0.153320	0.056152	0.968262	-3.990000	1.260000	0.210000	156.00	-0.00	0.03
1.09	5.75	5.75	5.25	6.25	5.25	6.00	1.50	5.00	5.00	6.00	1.25	2.00	8.00	2.50	0.50	1.75	-0.213867	0.018555	0.958984	-3.010000	3.850000	0.630000	796.00	-0.04	-0.09	0.75	0.00	0.75	1.00	2.50	0.00	2.50	0.75	1.75	0.50	0.00	0.00	1.25	0.00	0.00	0.25	-0.149902	0.051270	0.958008	-4.200000	0.980000	0.070000	157.00	0.00	0.05
1.10	6.00	5.75	5.50	6.00	5.25	6.00	1.50	5.00	5.00	6.25	1.50	2.25	8.00	2.50	0.50	1.50	-0.213867	0.017090	0.957520	-3.010000	3.640000	0.560000	806.00	-0.04	-0.09	0.75	0.25	0.75	1.25	2.50	0.00	2.25	0.50	1.75	0.50	0.00	0.00	1.75	0.25	0.00	0.50	-0.154297	0.051758	0.964355	-4.200000	0.910000	0.070000	163.00	0.00	0.03
1.11	5.75	6.00	5.75	6.25	5.25	6.00	1.50	4.75	5.00	6.25	1.50	2.25	8.00	2.25	0.25	1.50	-0.216797	0.024902	0.958008	-2.940000	3.570000	0.560000	802.00	-0.05	-0.09	1.00	0.25	0.75	1.25	2.50	0.00	2.50	0.75	1.50	0.25	0.00	0.00	1.50	0.00	0.00	0.25	-0.154785	0.053223	0.960938	-4.200000	0.700000	0.070000	162.00	-0.02	0.03
1.12	6.00	6.00	5.50	6.25	5.50	6.25	1.50	5.00	5.00	6.25	1.25	2.25	8.00	2.25	0.25	1.50	-0.216309	0.017578	0.957520	-2.940000	3.710000	0.560000	810.00	-0.05	-0.09	0.75	0.25	0.50	1.25	2.50	0.00	2.50	0.75	1.75	0.25	0.00	0.00	1.50	0.00	0.00	0.00	-0.152832	0.056152	0.961426	-4.200000	0.700000	0.140000	158.00	-0.01	0.03
1.13	6.00	5.75	5.50	6.25	5.50	6.25	1.50	5.00	5.00	6.25	1.50	2.25	8.00	2.50	0.25	1.50	-0.210938	0.019531	0.955078	-2.870000	3.710000	0.770000	812.00	-0.05	-0.09	0.75	0.25	0.75	1.25	2.50	0.00	2.25	0.50	1.50	0.50	0.00	0.00	1.25	0.00	0.00	0.00	-0.160645	0.057617	0.969727	-4.200000	0.770000	-0.070000	149.00	-0.02	0.04
1.14	6.00	6.00	5.50	6.25	5.50	6.00	1.50	5.00	5.25	6.00	1.50	2.00	8.00	2.50	0.50	1.50	-0.208008	0.023926	0.958008	-2.800000	3.850000	0.630000	812.00	-0.05	-0.09	1.00	0.25	1.00	1.25	2.50	0.00	2.25	0.75	1.50	0.25	0.00	0.00	1.25	0.00	0.00	0.25	-0.150391	0.053223	0.963379	-4.060000	0.700000	-0.070000	158.00	-0.03	0.03
1.15	6.00	6.00	5.50	6.25	5.50	6.25	1.50	5.00	5.00	6.25	1.25	2.00	8.00	2.50	0.50	1.75	-0.215332	0.022461	0.959961	-2.800000	3.920000	0.560000	813.00	-0.05	-0.09	1.25	0.50	1.00	1.25	2.75	0.00	2.50	0.50	1.75	0.25	0.00	0.00	1.25	0.00	0.00	0.25	-0.147949	0.056152	0.967285	-4.130000	0.490000	0.070000	170.00	-0.04	0.05
1.16	6.00	5.75	5.50	6.50	5.50	6.00	1.50	5.00	5.00	6.00	1.25	2.00	8.00	2.25	0.50	1.75	-0.207031	0.019531	0.958984	-2.520000	3.640000	0.700000	806.00	-0.05	-0.09	1.25	0.25	0.75	1.25	2.75	0.25	2.50	0.50	1.50	0.25	0.00	0.00	1.50	0.00	0.00	0.50	-0.156250	0.059082	0.962891	-4.270000	0.490000	-0.070000	168.00	-0.03	0.03
1.17	6.25	6.00	5.50	6.25	5.50	6.00	1.50	5.00	5.00	6.00	1.25	2.00	8.00	2.25	0.25	1.50	-0.211426	0.020020	0.960449	-2.520000	3.710000	0.700000	804.00	-0.05	-0.09	1.00	0.25	1.25	1.50	2.75	0.25	2.50	0.50	1.75	0.25	0.00	0.00	1.25	0.00	0.00	0.25	-0.147949	0.047852	0.968262	-4.270000	0.630000	-0.210000	174.00	-0.04	0.04
1.18	6.25	6.00	5.75	6.25	5.50	6.25	1.50	5.25	5.00	6.25	1.50	2.25	8.00	2.25	0.50	1.25	-0.213867	0.019043	0.956543	-2.590000	3.920000	0.770000	824.00	-0.05	-0.09	1.25	0.50	1.25	1.25	2.50	0.25	2.50	0.50	1.75	0.25	0.00	0.00	1.00	0.00	0.00	0.25	-0.148438	0.056641	0.969238	-4.200000	0.700000	-0.070000	171.00	-0.05	0.05
1.19	6.00	5.75	5.50	6.25	5.50	6.00	1.50	5.00	5.00	6.00	1.50	2.00	8.00	2.50	0.50	1.50	-0.207520	0.025391	0.959473	-2.660000	3.990000	0.770000	806.00	-0.05	-0.09	1.25	0.25	1.25	1.50	2.75	0.25	2.50	0.50	1.50	0.25	0.00	0.00	1.25	0.00	0.00	0.25	-0.145996	0.051758	0.970215	-4.130000	0.770000	-0.000000	173.00	-0.05	0.04
1.20	6.25	6.00	5.75	6.25	5.50	6.25	1.50	5.00	5.00	6.25	1.25	2.25	8.00	2.25	0.50	1.50	-0.204590	0.021973	0.959473	-2.590000	3.990000	0.770000	818.00	-0.05	-0.09	1.25	0.50	1.00	1.50	2.75	0.25	2.50	0.50	1.75	0.25	0.00	0.00	1.00	0.00	0.00	0.00	-0.150879	0.054688	0.972656	-4.130000	0.980000	-0.210000	172.00	-0.05	0.05
1.21	6.25	6.00	5.75	6.25	5.50	6.00	1.50	5.00	5.00	6.00	1.25	1.75	8.00	3.00	0.50	1.50	-0.216309	0.021973	0.958008	-2.520000	4.130000	0.770000	814.00	-0.05	-0.09	1.00	0.50	1.25	1.25	2.75	0.25	2.50	0.50	1.50	0.50	0.00	0.00	1.25	0.00	0.00	0.00	-0.149414	0.048828	0.967285	-3.920000	1.260000	-0.140000	171.00	-0.04	0.04
1.22	6.25	6.00	5.50	6.25	5.50	6.25	1.50	5.00	5.00	6.00	1.00	2.00	8.00	2.50	0.50	1.50	-0.210449	0.022461	0.958984	-2.520000	4.480000	0.630000	809.00	-0.05	-0.09	1.25	0.25	1.25	1.50	2.75	0.25	2.50	0.50	1.50	0.00	0.00	0.00	1.00	0.00	0.00	0.25	-0.148438	0.052246	0.965332	-3.850000	1.400000	-0.070000	168.00	-0.06	0.04
1.23	6.25	6.00	5.50	6.25	5.50	6.25	1.50	5.00	5.00	6.00	1.25	2.00	7.75	2.25	0.25	1.50	-0.205566	0.019043	0.954102	-2.520000	4.410000	0.630000	804.00	-0.05	-0.09	1.50	0.50	1.00	1.50	2.75	0.25	2.50	0.50	1.75	0.50	0.00	0.00	1.25	0.00	0.00	0.00	-0.144043	0.050781	0.964844	-3.570000	1.610000	-0.140000	180.00	-0.05	0.04
1.24	6.25	6.00	5.75	6.50	5.50	6.25	1.50	5.00	5.00	5.75	1.25	2.25	7.75	2.50	0.25	1.25	-0.205078	0.022461	0.961914	-2.590000	4.620000	0.630000	811.00	-0.06	-0.09	1.25	0.50	1.00	2.00	2.75	0.00	2.50	0.50	1.50	0.00	0.00	0.00	0.75	0.00	0.00	0.25	-0.146973	0.047363	0.970703	-3.640000	1.540000	-0.070000	168.00	-0.07	0.04
1.25	6.00	5.75	5.50	6.50	5.50	6.00	1.50	5.00	5.00	5.75	1.25	2.00	7.75	2.50	0.50	1.75	-0.209473	0.022949	0.951660	-2.660000	4.620000	0.630000	803.00	-0.05	-0.09	1.00	0.50	1.25	1.50	2.75	0.00	2.50	0.50	1.50	0.25	0.00	0.00	1.00	0.00	0.00	0.00	-0.151367	0.051270	0.968750	-3.920000	1.680000	-0.070000	166.00	-0.05	0.05
1.26	6.25	6.00	5.75	6.25	5.50	6.00	1.50	5.00	5.00	5.75	1.25	2.25	7.75	2.00	0.50	1.25	-0.211426	0.023438	0.956543	-2.660000	4.550000	0.630000	803.00	-0.06	-0.09	1.50	0.50	1.00	1.50	2.75	0.25	2.50	0.50	1.50	0.00	0.00	0.00	1.00	0.00	0.00	0.00	-0.153320	0.054688	0.965820	-3.850000	1.750000	-0.140000	169.00	-0.07	0.04
1.27	6.00	6.00	5.75	6.25	5.50	6.25	1.50	5.00	5.00	5.75	1.25	1.75	8.00	2.50	0.25	1.50	-0.211426	0.024414	0.954590	-2.450000	4.340000	0.630000	803.00	-0.05	-0.09	1.50	0.50	1.50	1.75	3.00	0.25	2.50	0.25	1.25	0.00	0.00	0.00	0.75	0.00	0.00	0.00	-0.148438	0.048340	0.964355	-3.920000	1.750000	-0.280000	171.00	-0.09	0.05
1.28	6.00	6.00	5.50	6.25	5.50	6.25	1.50	5.00	5.00	5.75	1.25	2.00	8.00	2.00	0.25	1.50	-0.208008	0.022949	0.957031	-2.520000	4.270000	0.700000	799.00	-0.05	-0.09	1.25	0.75	1.25	1.50	2.75	0.25	2.50	0.50	1.25	0.00	0.00	0.00	0.75	0.00	0.00	0.00	-0.153320	0.043945	0.968750	-3.850000	1.470000	-0.140000	165.00	-0.08	0.04
1.29	6.50	6.00	5.75	6.50	5.50	6.25	1.50	5.00	5.00	5.75	1.25	2.00	7.75	2.25	0.25	1.50	-0.208496	0.022949	0.960449	-2.520000	4.340000	0.700000	810.00	-0.06	-0.09	1.50	0.75	1.25	1.50	2.75	0.25	2.50	0.50	1.00	0.00	0.00	0.00	0.50	0.00	0.00	0.25	-0.151367	0.057129	0.966309	-3.920000	1.470000	-0.070000	164.00	-0.10	0.04
1.30	6.50	6.00	5.50	6.50	5.75	6.25	1.50	5.00	5.00	5.75	1.50	2.00	8.00	2.50	0.50	1.50	-0.210449	0.018555	0.956055	-2.660000	4.480000	0.560000	821.00	-0.05	-0.09	1.75	0.50	1.25	1.75	2.75	0.00	2.50	0.50	1.25	0.00	0.00	0.00	0.50	0.00	0.00	0.00	-0.150391	0.050781	0.964844	-3.920000	1.260000	-0.000000	166.00	-0.09	0.06
1.31	6.25	6.00	5.50	6.25	5.50	6.25	1.50	5.00	5.00	5.75	1.50	2.25	7.75	2.25	0.50	1.50	-0.206543	0.021973	0.958008	-2.730000	4.480000	0.560000	810.00	-0.05	-0.09	1.50	0.75	1.25	1.75	3.00	0.25	2.50	0.50	1.50	0.00	0.00	0.00	0.75	0.00	0.00	0.00	-0.149902	0.048828	0.965820	-3.990000	1.190000	-0.070000	178.00	-0.09	0.04
1.32	6.50	6.00	6.25	6.25	5.50	6.25	1.50	5.00	5.00	5.50	1.25	2.00	7.75	2.25	0.50	1.50	-0.208008	0.023926	0.954102	-2.730000	4.340000	0.630000	813.00	-0.06	-0.09	1.50	0.75	1.50	1.50	2.75	0.00	2.50	0.50	1.50	0.00	0.00	0.00	0.50	0.00	0.00	0.00	-0.148438	0.041504	0.968750	-3.990000	1.260000	-0.070000	169.00	-0.09	0.06
1.33	6.25	6.00	6.00	6.50	5.50	6.25	1.50	5.00	4.75	5.75	1.25	2.00	7.75	2.00	0.50	1.50	-0.208496	0.020508	0.949707	-2.800000	4.340000	0.630000	807.00	-0.06	-0.09	1.75	1.00	1.50	1.50	3.00	0.25	2.75	0.50	1.00	0.00	0.00	0.00	0.75	0.00	0.00	0.00	-0.153320	0.049316	0.966309	-4.060000	0.980000	-0.000000	180.00	-0.10	0.04
1.34	6.50	6.00	5.75	6.50	5.50	6.25	1.50	5.00	5.00	5.75	1.25	2.25	7.75	2.25	0.25	1.50	-0.212402	0.022461	0.956543	-2.800000	4.340000	0.630000	813.00	-0.06	-0.09	2.00	0.75	1.50	1.50	3.00	0.00	2.50	0.25	1.25	0.00	0.00	0.00	0.75	0.00	0.00	0.00	-0.144043	0.052246	0.969238	-4.130000	0.910000	-0.070000	173.00	-0.10	0.06
1.35	6.50	6.00	5.75	6.25	5.50	6.25	1.50	5.00	4.75	5.75	1.25	1.75	8.00	2.25	0.50	1.25	-0.213379	0.022461	0.961914	-2.800000	4.200000	0.630000	805.00	-0.06	-0.09	2.00	0.75	1.50	1.50	3.00	0.25	2.50	0.25	1.25	0.00	0.00	0.00	0.75	0.00	0.00	0.00	-0.147461	0.047852	0.968750	-4.060000	0.630000	-0.000000	176.00	-0.10	0.06
1.36	6.50	6.00	6.25	6.50	5.50	6.25	1.50	5.00	5.00	5.75	1.00	1.75	7.75	2.00	0.50	1.50	-0.215332	0.023926	0.952148	-2.730000	4.130000	0.700000	811.00	-0.06	-0.09	1.75	1.00	1.50	1.00	3.00	0.00	2.50	0.50	1.00	0.00	0.00	0.00	0.50	0.00	0.00	0.00	-0.154785	0.037598	0.976562	-4.200000	0.630000	-0.000000	165.00	-0.11	0.06
1.37	6.50	6.00	6.00	6.50	5.50	6.25	1.50	5.00	5.00	5.75	1.25	2.00	8.00	2.00	0.50	1.50	-0.214355	0.016113	0.953125	-2.870000	4.130000	0.560000	816.00	-0.06	-0.09	2.00	1.00	1.75	2.00	3.00	0.00	2.50	0.25	1.25	0.00	0.00	0.00	0.25	0.00	0.00	0.00	-0.146973	0.043945	0.961426	-3.920000	0.980000	0.070000	180.00	-0.12	0.07
1.38	6.75	6.00	6.25	6.50	5.50	6.00	1.50	5.00	4.75	5.50	1.25	1.75	7.75	2.25	0.50	1.25	-0.210938	0.023926	0.959961	-2.730000	3.990000	0.630000	808.00	-0.06	-0.09	2.25	1.00	1.75	1.50	3.00	0.00	2.50	0.25	1.00	0.00	0.00	0.00	0.50	0.00	0.00	0.00	-0.154297	0.047363	0.967773	-3.780000	1.120000	0.070000	175.00	-0.13	0.06
1.39	6.50	6.25	6.25	6.50	5.50	6.25	1.50	5.00	5.00	5.50	1.25	1.75	7.75	2.00	0.25	1.50	-0.209473	0.022461	0.965820	-2.730000	4.130000	0.700000	811.00	-0.06	-0.09	2.25	0.75	1.50	1.75	3.00	0.25	2.50	0.25	1.00	0.00	0.00	0.00	0.25	0.00	0.00	0.00	-0.153809	0.047852	0.967773	-3.780000	1.120000	0.140000	173.00	-0.13	0.06
1.40	6.50	6.00	6.25	6.50	5.50	6.25	1.50	5.00	5.00	6.00	1.25	2.00	8.00	2.25	0.50	1.50	-0.210938	0.029297	0.960449	-2.730000	4.060000	0.630000	824.00	-0.06	-0.09	2.25	1.00	1.75	1.75	3.00	0.25	2.50	0.25	1.00	0.00	0.00	0.00	0.25	0.00	0.00	0.00	-0.150879	0.053711	0.967773	-3.710000	1.260000	-0.000000	179.00	-0.13	0.06
1.41	6.75	6.00	6.00	6.50	5.75	6.25	1.50	5.00	5.00	5.75	1.00	2.00	7.75	2.50	0.00	1.25	-0.216309	0.020996	0.960449	-2.800000	4.270000	0.490000	814.00	-0.06	-0.09	2.50	1.00	1.50	2.00	3.00	0.25	2.50	0.50	1.00	0.00	0.00	0.00	0.25	0.00	0.00	0.00	-0.144531	0.051758	0.972656	-3.640000	1.400000	-0.000000	186.00	-0.13	0.05
1.42	6.50	6.00	6.25	6.50	5.50	6.25	1.50	5.00	5.00	5.75	1.00	1.75	8.00	2.25	0.50	1.50	-0.212402	0.022461	0.959961	-2.800000	4.410000	0.630000	816.00	-0.06	-0.09	2.00	0.75	1.50	1.75	2.75	0.25	2.50	0.25	1.00	0.00	0.00	0.00	0.25	0.00	0.00	0.00	-0.150391	0.049805	0.967285	-3.360000	1.330000	-0.000000	167.00	-0.12	0.06
1.43	6.75	6.00	6.25	6.50	5.50	6.25	1.50	5.00	5.00	5.75	1.25	2.00	7.75	2.25	0.50	1.50	-0.207031	0.020508	0.960938	-2.870000	4.410000	0.630000	822.00	-0.06	-0.09	2.25	1.00	2.00	2.00	2.75	0.00	2.50	0.50	1.25	0.00	0.00	0.00	0.75	0.00	0.00	0.00	-0.149414	0.057129	0.969727	-3.500000	1.400000	-0.070000	191.00	-0.12	0.04
1.44	6.75	6.00	6.25	6.50	5.50	6.25	1.50	5.00	4.75	5.75	1.00	1.75	7.75	1.75	0.50	1.25	-0.206055	0.022461	0.962891	-2.800000	4.270000	0.630000	807.00	-0.07	-0.09	2.50	1.00	1.50	2.00	3.25	0.50	2.50	0.50	1.00	0.00	0.00	0.00	0.50	0.00	0.00	0.00	-0.145508	0.050781	0.962891	-3.500000	1.330000	-0.070000	194.00	-0.13	0.04
1.45	6.75	6.25	6.25	6.50	5.50	6.25	1.50	5.00	4.75	5.50	1.00	2.00	7.75	2.25	0.25	1.50	-0.209961	0.021973	0.954102	-2.590000	3.990000	0.700000	812.00	-0.07	-0.09	2.25	1.00	2.00	2.00	3.00	0.25	2.50	0.25	1.00	0.00	0.00	0.00	0.00	0.00	0.00	0.00	-0.149414	0.047852	0.970703	-3.640000	1.190000	-0.000000	183.00	-0.14	0.06
1.46	7.00	6.25	6.25	6.50	5.50	6.25	1.50	5.00	4.75	5.50	1.25	1.50	7.75	2.00	0.25	1.50	-0.207031	0.020508	0.959473	-2.520000	4.060000	0.770000	810.00	-0.07	-0.09	2.75	1.25	1.75	2.25	3.00	0.25	2.50	0.25	1.00	0.00	0.00	0.00	0.25	0.00	0.00	0.00	-0.151855	0.047363	0.963379	-3.570000	1.260000	0.070000	193.00	-0.15	0.05
1.47	6.75	6.00	6.50	6.50	5.50	6.25	1.50	5.00	5.00	5.50	0.75	1.75	7.75	2.25	0.50	1.00	-0.206543	0.019043	0.962402	-2.590000	4.270000	0.770000	811.00	-0.07	-0.09	2.25	1.25	1.75	1.75	3.00	0.25	2.50	0.50	0.75	0.00	0.00	0.00	0.00	0.00	0.00	0.00	-0.142578	0.049805	0.968262	-3.500000	1.120000	0.280000	180.00	-0.15	0.05
1.48	6.75	6.00	6.50	6.50	5.50	6.25	1.50	5.00	4.50	5.50	1.00	1.75	7.75	2.25	0.25	1.25	-0.205078	0.027832	0.952637	-2.730000	4.200000	0.700000	805.00	-0.07	-0.09	3.25	1.00	1.75	2.25	3.00	0.25	2.50	0.50	1.00	0.00	0.00	0.00	0.00	0.00	0.00	0.00	-0.151855	0.051758	0.965820	-3.570000	1.330000	0.140000	198.00	-0.15	0.05
1.49	6.75	6.25	6.50	6.50	5.50	6.25	1.50	5.00	4.50	5.50	1.00	1.75	7.75	2.25	0.50	1.25	-0.207520	0.023926	0.960449	-2.730000	4.130000	0.560000	810.00	-0.07	-0.09	2.50	1.25	2.25	2.25	3.00	0.25	2.50	0.25	0.50	0.00	0.00	0.00	0.00	0.00	0.00	0.00	-0.149902	0.054199	0.964355	-3.640000	1.050000	0.070000	187.00	-0.17	0.05
1.50	7.00	6.25	6.25	6.75	5.50	6.25	1.50	5.00	4.50	5.50	1.25	2.00	7.75	2.25	0.50	1.25	-0.210938	0.023926	0.949707	-2.870000	3.990000	0.630000	819.00	-0.07	-0.09	2.75	1.25	2.00	2.00	3.00	0.25	2.50	0.25	0.50	0.00	0.00	0.00	0.00	0.00	0.00	0.00	-0.152832	0.052734	0.966797	-3.570000	0.910000	0.140000	184.00	-0.17	0.05
1.51	7.00	6.25	6.25	6.75	5.50	6.25	1.50	5.00	4.75	5.75	1.00	1.75	7.75	2.25	0.50	1.25	-0.212891	0.023438	0.956543	-2.940000	3.920000	0.630000	820.00	-0.07	-0.09	2.50	1.25	2.25	2.00	3.00	0.25	2.50	0.25	1.00	0.00	0.00	0.00	0.00	0.00	0.00	0.00	-0.150879	0.051270	0.968750	-3.360000	0.840000	0.140000	191.00	-0.15	0.06
1.52	7.25	6.25	6.25	7.00	5.75	6.25	1.50	5.00	4.75	5.50	1.00	1.75	7.75	2.25	0.50	1.25	-0.205078	0.017090	0.963867	-2.800000	4.200000	0.700000	826.00	-0.07	-0.09	2.50	1.50	1.75	2.00	3.00	0.25	2.50	0.25	0.50	0.00	0.00	0.00	0.25	0.00	0.00	0.00	-0.149902	0.050293	0.974609	-3.220000	0.910000	0.140000	183.00	-0.16	0.04
1.53	7.00	6.25	6.50	7.00	5.50	6.25	1.50	5.00	4.50	5.50	1.00	2.00	7.75	2.00	0.25	1.25	-0.210938	0.019531	0.956543	-2.450000	4.200000	0.770000	817.00	-0.07	-0.09	3.00	1.50	2.00	2.00	3.00	0.00	2.50	0.25	0.75	0.00	0.00	0.00	0.00	0.00	0.00	0.00	-0.141113	0.045898	0.967773	-3.150000	1.120000	0.210000	189.00	-0.17	0.06
1.54	7.00	6.25	6.50	7.00	5.50	6.25	1.50	5.00	4.75	5.25	1.00	2.00	7.75	2.00	0.50	1.50	-0.208008	0.015625	0.958984	-2.240000	4.340000	0.840000	822.00	-0.07	-0.09	3.00	1.50	2.00	2.00	3.00	0.25	2.50	0.25	0.50	0.00	0.00	0.00	0.00	0.00	0.00	0.00	-0.155273	0.049805	0.965332	-3.080000	1.050000	0.350000	189.00	-0.18	0.05
1.55	7.25	6.25	6.50	7.00	5.50	6.25	1.50	5.00	4.75	5.50	1.00	1.75	7.75	2.00	0.50	1.25	-0.208984	0.020508	0.953125	-1.890000	4.340000	0.980000	823.00	-0.07	-0.09	2.75	1.25	2.25	2.25	3.00	0.00	2.50	0.25	0.75	0.00	0.00	0.00	0.00	0.00	0.00	0.00	-0.147949	0.049316	0.965332	-3.150000	1.120000	0.280000	190.00	-0.16	0.06
1.56	7.25	6.25	6.50	6.75	5.75	6.50	1.50	5.00	4.75	5.25	0.75	2.00	7.75	2.25	0.00	1.25	-0.208008	0.019531	0.960449	-1.820000	4.270000	1.050000	820.00	-0.07	-0.09	3.25	1.25	2.25	2.25	3.00	0.25	2.50	0.25	0.50	0.00	0.00	0.00	0.00	0.00	0.00	0.00	-0.146484	0.044434	0.967773	-3.150000	1.400000	0.210000	195.00	-0.18	0.05
1.57	7.50	6.50	6.50	7.00	5.75	6.25	1.50	5.00	4.50	5.50	1.00	1.75	7.75	2.00	0.50	1.25	-0.208496	0.027832	0.958008	-1.960000	4.060000	0.980000	828.00	-0.08	-0.09	3.00	1.50	2.25	2.00	3.00	0.00	2.50	0.25	0.25	0.00	0.00	0.00	0.00	0.00	0.00	0.00	-0.147461	0.045898	0.967285	-3.360000	1.400000	0.140000	185.00	-0.19	0.05
1.58	7.00	6.00	6.50	7.00	5.50	6.25	1.50	5.00	4.50	5.25	1.00	1.75	7.75	2.00	0.50	1.25	-0.207520	0.017578	0.962402	-2.170000	4.130000	0.980000	812.00	-0.07	-0.09	3.25	1.50	2.25	2.25	3.00	0.25	2.50	0.25	0.25	0.00	0.00	0.00	0.00	0.00	0.00	0.00	-0.152832	0.046387	0.967285	-3.430000	1.470000	0.140000	194.00	-0.19	0.04
1.59	7.50	6.25	6.50	7.00	5.50	6.25	1.50	4.75	4.25	5.25	1.00	1.75	7.75	2.00	0.50	1.25	-0.211914	0.020996	0.959473	-2.030000	4.130000	0.980000	812.00	-0.08	-0.09	3.25	1.25	2.25	2.25	3.00	0.25	2.50	0.25	0.50	0.00	0.00	0.00	0.00	0.00	0.00	0.00	-0.152344	0.054688	0.975098	-3.220000	1.330000	-0.000000	195.00	-0.18	0.05
1.60	7.50	6.50	6.50	7.25	5.75	6.25	1.50	5.00	4.75	5.00	1.00	1.50	7.75	2.00	0.25	1.00	-0.208496	0.024902	0.957520	-1.680000	4.200000	0.910000	822.00	-0.08	-0.09	3.25	1.00	2.25	2.25	3.00	0.25	2.50	0.25	0.25	0.00	0.00	0.00	0.25	0.00	0.00	0.00	-0.147461	0.045410	0.966309	-2.870000	1.120000	0.140000	191.00	-0.18	0.04
1.61	7.75	6.25	6.50	7.25	5.75	6.75	1.50	5.00	4.00	5.00	1.00	2.00	7.75	2.25	0.25	1.25	-0.209473	0.021484	0.957031	-1.330000	4.060000	0.980000	827.00	-0.08	-0.10	3.50	1.50	2.25	2.50	3.00	0.25	2.50	0.25	0.50	0.00	0.00	0.00	0.00	0.00	0.00	0.00	-0.158203	0.043945	0.970703	-2.800000	1.190000	0.070000	204.00	-0.19	0.05
1.62	7.75	6.25	6.75	7.25	5.50	6.75	1.50	5.00	4.00	5.25	0.75	2.00	7.75	2.00	0.50	1.50	-0.208496	0.022949	0.956055	-1.190000	3.990000	0.980000	829.00	-0.08	-0.10	3.25	1.50	2.25	2.25	3.00	0.00	2.50	0.25	0.25	0.00	0.00	0.00	0.00	0.00	0.00	0.00	-0.147461	0.042480	0.968750	-2.590000	1.190000	0.070000	191.00	-0.19	0.05
1.63	7.75	6.50	6.50	7.25	5.50	6.50	1.50	5.00	4.25	5.25	1.00	1.75	7.50	2.00	0.25	1.50	-0.205078	0.022949	0.958496	-1.190000	4.130000	1.120000	824.00	-0.08	-0.09	2.75	1.50	2.25	2.25	3.00	0.25	2.50	0.25	0.25	0.00	0.00	0.00	0.00	0.00	0.00	0.00	-0.150879	0.048828	0.962402	-2.590000	1.330000	0.210000	189.00	-0.18	0.04
1.64	7.75	6.50	6.50	7.50	5.50	6.50	1.50	5.00	4.00	5.25	1.00	1.75	7.75	2.00	0.25	1.25	-0.200195	0.027344	0.946777	-1.260000	3.850000	1.120000	824.00	-0.08	-0.10	3.50	1.75	2.25	2.25	3.00	0.50	2.50	0.00	0.25	0.00	0.00	0.00	0.00	0.00	0.00	0.00	-0.144043	0.050293	0.956055	-2.730000	1.330000	0.280000	198.00	-0.20	0.05
1.65	8.00	6.25	6.50	7.50	5.50	6.75	1.50	5.00	4.25	5.25	1.00	2.00	7.75	2.25	0.50	1.25	-0.205078	0.022461	0.955566	-1.750000	3.990000	1.050000	839.00	-0.08	-0.09	3.25	1.75	2.00	2.25	3.00	0.50	2.50	0.25	0.50	0.00	0.00	0.00	0.00	0.00	0.00	0.00	-0.140137	0.046875	0.958496	-3.150000	1.190000	0.210000	200.00	-0.18	0.04
1.66	7.75	6.50	6.50	7.25	5.50	6.75	1.50	5.00	4.50	5.00	1.00	2.00	7.75	2.25	0.50	1.25	-0.207520	0.020020	0.960938	-2.030000	4.480000	0.840000	836.00	-0.08	-0.09	3.25	1.25	2.25	2.50	3.00	0.25	2.50	0.25	0.25	0.00	0.00	0.00	0.00	0.00	0.00	0.00	-0.137695	0.050293	0.960938	-3.500000	1.260000	-0.070000	195.00	-0.19	0.04
1.67	7.75	6.50	6.50	7.50	5.75	6.50	1.50	5.00	4.50	5.25	1.00	1.75	7.75	2.00	0.25	1.50	-0.207520	0.023438	0.962891	-2.450000	5.320000	0.700000	836.00	-0.08	-0.09	2.75	1.25	2.25	2.00	3.00	0.50	2.50	0.25	0.25	0.00	0.00	0.00	0.00	0.00	0.00	0.00	-0.145996	0.049316	0.965332	-3.640000	1.610000	-0.140000	186.00	-0.18	0.04
1.68	7.75	6.50	6.50	7.25	5.75	6.50	1.50	5.00	4.00	5.25	1.25	1.75	7.75	2.00	0.50	1.25	-0.205566	0.024414	0.952637	-2.310000	5.390000	0.560000	830.00	-0.08	-0.09	2.75	1.25	2.25	2.25	3.00	0.25	2.50	0.25	0.25	0.00	0.00	0.00	0.00	0.00	0.00	0.00	-0.152344	0.044434	0.967285	-3.570000	2.030000	-0.280000	186.00	-0.18	0.05
1.69	7.50	6.25	6.00	6.75	5.25	6.75	1.50	5.00	4.00	5.25	0.75	1.75	7.75	2.25	0.50	1.50	-0.207031	0.024902	0.949219	-2.380000	5.180000	0.560000	807.00	-0.08	-0.10	3.00	1.25	2.25	2.25	3.00	0.25	2.50	0.25	0.50	0.00	0.00	0.00	0.00	0.00	0.00	0.00	-0.146973	0.046875	0.965820	-3.640000	2.380000	-0.350000	192.00	-0.18	0.05
1.70	7.50	6.25	6.50	7.50	5.75	6.75	1.50	5.00	4.25	5.75	1.00	2.00	7.75	2.25	0.25	1.25	-0.207031	0.029785	0.959473	-2.800000	5.250000	0.420000	839.00	-0.08	-0.09	2.75	1.50	2.00	2.25	2.75	0.25	2.50	0.25	0.25	0.00	0.00	0.00	0.00	0.00	0.00	0.00	-0.149414	0.049316	0.966797	-3.150000	2.380000	-0.210000	182.00	-0.18	0.04
1.71	7.25	6.25	6.50	7.25	5.25	6.75	1.50	5.00	4.50	5.50	1.00	2.00	7.75	2.25	0.25	1.25	-0.209473	0.028809	0.958496	-3.710000	5.460000	0.210000	828.00	-0.07	-0.09	2.75	1.25	2.00	1.75	3.00	0.25	2.50	0.25	0.25	0.00	0.00	0.00	0.00	0.00	0.00	0.00	-0.151367	0.045898	0.969727	-3.220000	2.100000	-0.210000	177.00	-0.18	0.05
1.72	7.25	6.25	6.50	7.25	5.50	6.50	1.50	5.00	4.50	5.50	1.00	1.75	7.75	2.25	0.00	1.50	-0.213379	0.020020	0.952637	-4.130000	5.460000	0.070000	824.00	-0.08	-0.09	2.50	1.25	1.75	1.75	2.75	0.25	2.50	0.25	0.25	0.00	0.00	0.00	0.25	0.00	0.00	0.00	-0.154297	0.046875	0.970215	-3.220000	1.960000	-0.280000	170.00	-0.17	0.04
1.73	7.00	6.25	6.25	7.50	5.75	6.50	1.50	5.00	4.50	5.50	1.25	1.75	7.75	2.00	0.50	1.25	-0.208496	0.023926	0.963379	-3.990000	5.250000	0.140000	829.00	-0.07	-0.09	3.00	1.25	2.00	2.00	3.00	0.25	2.50	0.25	0.25	0.00	0.00	0.00	0.00	0.00	0.00	0.00	-0.146973	0.054199	0.964844	-3.430000	1.820000	-0.210000	183.00	-0.18	0.05
1.74	7.25	6.25	6.50	7.25	5.50	6.50	1.50	5.00	4.50	5.50	1.00	2.00	7.75	2.25	0.50	1.25	-0.206543	0.027832	0.958496	-3.850000	5.110000	0.280000	831.00	-0.07	-0.09	2.75	1.25	1.75	1.75	3.00	0.00	2.50	0.25	0.25	0.00	0.00	0.00	0.00	0.00	0.00	0.00	-0.143066	0.045410	0.965820	-3.640000	1.540000	-0.210000	171.00	-0.17	0.06
1.75	7.25	6.25	6.25	7.25	5.75	6.25	1.50	5.00	4.75	5.50	1.00	2.00	7.75	2.25	0.25	1.50	-0.208496	0.021973	0.955566	-3.850000	5.040000	0.140000	830.00	-0.07	-0.09	2.75	1.00	1.75	2.00	3.00	0.25	2.50	0.25	0.50	0.00	0.00	0.00	0.00	0.00	0.00	0.00	-0.153320	0.044434	0.966309	-3.710000	1.470000	-0.210000	178.00	-0.16	0.06
1.76	6.25	5.75	5.50	6.50	5.50	6.25	1.50	5.00	4.50	5.75	1.50	2.00	7.75	2.50	0.50	1.25	-0.213379	0.019531	0.955566	-3.990000	4.900000	0.140000	801.00	-0.05	-0.09	2.75	1.00	1.75	1.75	3.00	0.00	2.50	0.25	0.25	0.00	0.00	0.00	0.00	0.00	0.00	0.00	-0.149902	0.050293	0.973633	-3.850000	1.470000	-0.210000	168.00	-0.17	0.06
1.77	7.25	6.00	6.25	6.75	5.75	6.25	1.50	5.00	4.50	5.50	1.00	1.75	7.75	2.25	0.50	1.25	-0.210938	0.021973	0.953125	-4.130000	4.550000	0.140000	817.00	-0.07	-0.09	2.50	1.25	1.50	1.75	3.00	0.00	2.50	0.25	0.25	0.00	0.00	0.00	0.00	0.00	0.00	0.00	-0.151367	0.050781	0.974121	-3.990000	1.260000	-0.140000	165.00	-0.17	0.06
1.78	7.00	6.00	6.25	6.75	5.75	6.25	1.50	5.00	4.50	5.50	1.00	2.00	7.75	2.00	0.25	1.25	-0.209961	0.018066	0.964844	-3.850000	3.920000	0.280000	811.00	-0.07	-0.09	2.50	1.25	2.00	2.00	3.00	0.25	2.50	0.25	0.25	0.00	0.00	0.00	0.00	0.00	0.00	0.00	-0.151855	0.047363	0.970703	-3.710000	1.050000	0.070000	177.00	-0.17	0.05
1.79	7.00	6.25	6.50	7.00	5.75	6.25	1.50	5.00	4.50	5.50	1.00	1.75	7.75	2.50	0.50	1.50	-0.211426	0.019043	0.959473	-3.220000	3.570000	0.490000	826.00	-0.07	-0.09	2.50	1.25	2.00	1.75	3.00	0.25	2.50	0.50	0.50	0.00	0.00	0.00	0.00	0.00	0.00	0.00	-0.152344	0.049805	0.974609	-3.010000	1.260000	-0.000000	182.00	-0.16	0.05
1.80	7.00	6.00	6.25	7.00	5.75	6.75	1.50	5.00	4.50	5.50	1.00	2.00	7.75	2.50	0.25	1.25	-0.207031	0.019531	0.963379	-2.590000	3.710000	0.700000	825.00	-0.07	-0.09	2.50	1.25	1.50	2.00	3.00	0.25	2.50	0.25	0.50	0.00	0.00	0.00	0.00	0.00	0.00	0.00	-0.149414	0.051270	0.972656	-2.590000	1.190000	0.210000	175.00	-0.16	0.05
1.81	7.25	6.25	6.25	7.00	5.75	6.50	1.50	5.00	4.25	5.50	1.00	2.00	7.50	2.00	0.50	1.50	-0.213379	0.014160	0.958984	-1.260000	3.430000	1.120000	821.00	-0.07	-0.09	2.75	1.25	1.75	1.75	3.00	0.25	2.50	0.25	0.25	0.00	0.00	0.00	0.00	0.00	0.00	0.00	-0.149414	0.051758	0.962402	-2.590000	1.260000	0.210000	174.00	-0.17	0.05
1.82	7.00	6.00	6.25	7.00	5.75	6.50	1.50	5.25	4.25	5.25	1.25	1.75	7.50	2.25	0.25	1.25	-0.211914	0.020020	0.951660	0.770000	2.800000	1.750000	815.00	-0.07	-0.09	2.50	1.00	1.75	2.00	3.00	0.00	2.50	0.25	0.00	0.00	0.00	0.00	0.25	0.00	0.00	0.00	-0.148926	0.045410	0.967773	-2.520000	1.330000	0.210000	167.00	-0.17	0.04
1.83	6.50	6.25	7.25	7.75	6.75	8.00	1.75	6.25	5.50	6.75	2.00	3.00	8.50	3.75	1.25	2.25	-0.214844	0.020508	0.962402	1.820000	2.170000	1.960000	982.00	-0.04	-0.09	2.50	1.25	2.00	2.25	3.00	0.25	2.50	0.25	0.00	0.00	0.00	0.00	0.00	0.00	0.00	0.00	-0.151367	0.049316	0.972168	-1.890000	1.260000	0.560000	177.00	-0.18	0.04
1.84	8.50	7.75	7.25	8.00	6.75	8.00	1.75	6.25	5.25	6.75	2.25	3.25	8.50	3.75	1.50	2.25	-0.215820	0.019531	0.963867	3.500000	1.540000	2.380000	1028.00	-0.05	-0.09	3.00	1.50	1.75	2.00	2.75	0.25	2.50	0.25	0.00	0.00	0.00	0.00	0.00	0.00	0.00	0.00	-0.154297	0.052246	0.976074	-1.680000	1.330000	0.700000	176.00	-0.19	0.04
1.85	8.75	7.75	7.50	8.25	6.75	8.00	1.75	6.50	5.25	7.00	1.75	3.25	8.50	3.50	1.25	2.25	-0.211426	0.019531	0.958984	4.760000	0.980000	2.800000	1033.00	-0.06	-0.09	2.75	1.50	2.00	2.25	2.75	0.25	2.25	0.25	0.00	0.00	0.00	0.00	0.00	0.00	0.00	0.00	-0.159180	0.045898	0.974609	-1.540000	1.190000	0.700000	175.00	-0.20	0.03
1.86	7.75	6.75	6.75	7.75	6.00	7.50	1.50	5.50	3.75	5.50	0.75	2.00	8.00	2.00	0.50	1.25	-0.211914	0.020996	0.967285	5.950000	0.420000	3.150000	863.00	-0.08	-0.10	2.75	1.50	2.00	2.25	2.75	0.25	2.25	0.25	0.00	0.00	0.00	0.00	0.00	0.00	0.00	0.00	-0.154785	0.057129	0.974121	-1.190000	1.260000	0.910000	175.00	-0.20	0.03
1.87	8.00	7.00	6.75	7.75	6.00	7.50	1.25	5.75	3.25	5.50	0.75	1.75	8.00	2.00	0.50	1.25	-0.220215	0.020996	0.976562	7.910000	-0.770000	3.710000	859.00	-0.09	-0.11	3.00	1.25	2.25	2.00	2.75	0.25	2.50	0.25	0.00	0.00	0.00	0.00	0.00	0.00	0.00	0.00	-0.182617	0.055176	0.972656	-0.840000	1.330000	0.980000	179.00	-0.19	0.05
1.88	8.25	7.50	7.00	8.00	6.00	7.75	1.25	5.75	3.00	5.50	0.75	1.75	8.00	1.75	0.50	1.00	-0.216797	0.033691	0.998047	10.360000	-1.960000	4.200000	868.00	-0.10	-0.11	3.25	1.25	2.00	2.25	3.00	0.25	2.25	0.25	0.00	0.00	0.00	0.00	0.00	0.00	0.00	0.00	-0.159180	0.059082	0.988770	-0.210000	0.910000	1.540000	181.00	-0.20	0.04
1.89	8.75	7.75	7.00	8.25	6.00	8.00	1.00	5.75	3.00	5.25	1.00	1.75	7.75	1.75	0.50	1.00	-0.197754	0.038574	0.967285	14.070000	-3.570000	4.760000	876.00	-0.10	-0.11	3.00	1.25	2.00	2.00	2.75	0.00	2.25	0.00	0.00	0.00	0.00	0.00	0.00	0.00	0.00	0.00	-0.162598	0.060547	0.979980	-0.140000	0.560000	2.030000	165.00	-0.20	0.06
1.90	9.25	7.75	7.00	8.25	5.75	8.00	1.00	6.00	3.00	5.25	0.50	2.00	7.75	1.50	0.50	1.00	-0.194824	0.035156	0.966797	17.710001	-4.480000	5.460000	878.00	-0.11	-0.11	3.25	1.50	1.75	2.25	2.50	0.00	2.25	0.00	0.00	0.00	0.00	0.00	0.00	0.00	0.00	0.00	-0.139648	0.051758	0.978516	0.070000	0.210000	2.170000	167.00	-0.21	0.05
1.91	10.75	8.50	7.00	8.50	6.00	8.25	1.00	6.00	3.00	5.25	0.50	2.00	7.75	1.25	0.50	1.00	-0.230957	0.046387	0.958496	20.790001	-5.250000	6.160000	909.00	-0.12	-0.11	2.75	1.50	1.75	2.00	2.50	0.00	2.00	0.00	0.00	0.00	0.00	0.00	0.00	0.00	0.00	0.00	-0.143555	0.049805	0.973633	0.560000	-0.490000	2.380000	154.00	-0.21	0.05
1.92	9.50	8.25	7.25	8.75	5.75	8.50	0.75	6.00	2.00	5.25	1.50	3.00	8.25	2.25	0.50	1.00	-0.208984	0.044434	0.955078	22.889999	-5.880000	5.880000	917.00	-0.11	-0.12	3.00	1.50	1.50	2.00	2.25	0.00	2.00	0.00	0.00	0.00	0.00	0.00	0.00	0.00	0.00	0.00	-0.143555	0.052246	0.973145	1.400000	-0.910000	1.820000	151.00	-0.21	0.05
1.93	9.75	8.50	7.25	8.75	5.50	8.75	1.00	6.75	4.00	6.25	1.75	3.25	8.00	1.50	0.50	1.00	-0.190918	0.064941	0.982910	24.500000	-6.510000	5.530000	975.00	-0.09	-0.11	3.50	1.25	1.50	2.00	2.25	0.00	2.00	0.00	0.00	0.00	0.00	0.00	0.00	0.00	0.00	0.00	-0.136230	0.058105	0.983398	2.380000	-1.190000	1.680000	154.00	-0.22	0.05
1.94	11.50	9.50	8.00	9.75	6.25	9.50	1.00	6.75	3.75	5.25	0.75	2.00	7.50	1.50	0.25	1.25	-0.181641	0.066895	0.952148	23.799999	-6.650000	4.550000	997.00	-0.12	-0.11	3.00	1.25	1.50	2.00	2.00	0.00	2.00	0.00	0.00	0.00	0.00	0.00	0.00	0.00	0.00	0.00	-0.142090	0.050781	0.976074	2.240000	-1.470000	1.890000	146.00	-0.21	0.05
1.95	9.75	8.75	7.50	9.00	5.50	8.75	0.75	6.00	2.25	5.25	0.75	2.00	7.75	1.25	0.50	1.00	-0.181641	0.066895	0.952148	23.799999	-6.650000	4.550000	900.00	-0.12	-0.12	2.75	1.25	1.50	1.75	1.75	0.00	2.00	0.00	0.00	0.00	0.00	0.00	0.00	0.00	0.00	0.00	-0.142090	0.057129	0.970215	1.820000	-2.240000	1.820000	137.00	-0.21	0.05
1.96	10.75	9.00	7.50	9.00	5.25	8.75	0.50	6.00	1.75	5.00	1.00	2.25	7.75	1.25	0.50	1.00	-0.186523	0.071289	0.958496	21.840000	-7.000000	3.710000	902.00	-0.13	-0.12	2.75	1.25	1.50	2.00	2.00	0.00	2.00	0.00	0.00	0.00	0.00	0.00	0.00	0.00	0.00	0.00	-0.143555	0.060059	0.971680	1.540000	-2.870000	1.750000	143.00	-0.21	0.05
1.97	11.25	9.25	7.50	9.50	5.25	9.00	0.50	6.00	2.00	5.00	0.75	2.00	7.75	1.25	0.50	1.00	-0.179688	0.077148	0.947754	20.930000	-7.070000	3.290000	917.00	-0.13	-0.12	3.00	1.50	1.75	1.75	1.75	0.00	1.75	0.00	0.00	0.00	0.00	0.00	0.00	0.00	0.00	0.00	-0.137207	0.038086	1.005371	0.490000	-4.340000	1.400000	141.00	-0.23	0.05
1.98	10.75	9.50	7.50	9.50	5.00	9.00	0.50	6.00	2.25	5.00	0.75	2.25	7.50	1.25	0.25	1.25	-0.178711	0.068848	0.937500	18.620001	-5.390000	3.080000	914.00	-0.13	-0.12	3.00	1.25	1.50	2.00	1.75	0.00	1.75	0.00	0.00	0.00	0.00	0.00	0.00	0.00	0.00	0.00	-0.150879	0.057129	0.984375	-0.700000	-6.930000	1.190000	139.00	-0.22	0.04
1.99	11.50	9.50	7.75	9.50	4.75	9.00	0.50	6.00	2.25	5.00	1.00	2.50	7.50	1.00	0.50	1.00	-0.184570	0.068359	0.939453	17.219999	-4.270000	2.940000	927.00	-0.13	-0.12	3.00	1.50	1.50	1.50	1.75	0.00	1.75	0.00	0.00	0.00	0.00	0.00	0.00	0.00	0.00	0.00	-0.148438	0.063477	0.967285	-1.820000	-8.330000	1.190000	135.00	-0.22	0.05
2.00	11.50	9.50	7.50	9.50	5.00	9.25	0.50	6.25	2.25	5.00	1.00	2.25	7.75	1.25	0.25	1.00	-0.167480	0.075195	0.948730	15.540000	-2.730000	2.730000	933.00	-0.13	-0.12	3.00	1.25	1.50	1.75	1.75	0.00	1.75	0.00	0.00	0.00	0.00	0.00	0.00	0.00	0.00	0.00	-0.145020	0.061523	0.975098	-2.310000	-8.610000	1.400000	136.00	-0.22	0.05
2.01	12.00	9.75	7.75	9.50	4.75	9.25	0.50	6.50	2.50	5.00	1.00	2.25	7.75	1.00	0.25	1.00	-0.176270	0.085938	0.962891	13.160000	-0.630000	2.380000	947.00	-0.13	-0.12	3.00	1.50	1.25	2.00	1.75	0.00	1.75	0.00	0.00	0.00	0.00	0.00	0.00	0.00	0.00	0.00	-0.157715	0.071289	1.006348	-2.590000	-10.430000	2.030000	138.00	-0.23	0.04
2.02	11.75	9.75	7.50	9.50	4.50	9.50	0.50	6.50	2.50	5.00	0.75	2.25	7.50	1.00	0.50	1.00	-0.155762	0.085938	0.936523	10.080000	1.400000	1.820000	939.00	-0.13	-0.12	3.25	1.75	1.25	1.75	1.50	0.00	1.75	0.00	0.00	0.00	0.00	0.00	0.00	0.00	0.00	0.00	-0.166504	0.064941	1.011719	-3.150000	-14.700000	2.380000	137.00	-0.23	0.04
2.03	11.50	9.75	7.50	9.75	4.50	9.50	0.50	6.75	2.50	5.00	1.00	2.50	8.00	1.25	0.25	1.00	-0.160156	0.095703	0.922852	5.880000	4.900000	1.540000	953.00	-0.13	-0.13	3.25	1.75	1.50	1.75	1.75	0.00	1.50	0.00	0.00	0.00	0.00	0.00	0.00	0.00	0.00	0.00	-0.144531	0.057617	0.979980	-3.640000	-17.990000	2.590000	139.00	-0.24	0.04
2.04	11.25	9.50	7.50	9.75	4.50	9.50	0.50	6.75	2.25	5.00	1.00	2.25	8.00	1.00	0.25	1.00	-0.174805	0.086426	0.954590	0.980000	8.400000	0.980000	939.00	-0.13	-0.13	3.50	1.75	1.50	2.25	1.75	0.00	1.75	0.00	0.00	0.00	0.00	0.00	0.00	0.00	0.00	0.00	-0.127930	0.068359	0.972168	-4.550000	-18.340000	2.870000	152.00	-0.24	0.03
2.05	11.25	9.50	7.25	9.50	4.50	9.50	0.50	7.00	2.75	5.00	1.25	2.75	7.75	1.25	0.50	1.00	-0.172363	0.093262	0.944824	-3.150000	11.270000	0.420000	956.00	-0.12	-0.13	3.75	1.75	1.50	2.50	1.75	0.00	1.75	0.00	0.00	0.00	0.00	0.00	0.00	0.00	0.00	0.00	-0.126465	0.058594	0.978027	-4.830000	-17.010000	2.940000	158.00	-0.24	0.03
2.06	10.75	9.25	7.25	9.50	4.50	9.50	0.50	7.00	2.25	5.00	1.00	2.50	8.00	1.00	0.25	1.25	-0.178223	0.091797	0.966309	-6.440000	13.440001	0.000000	933.00	-0.13	-0.13	4.25	2.00	1.75	2.25	1.75	0.00	1.75	0.00	0.00	0.00	0.00	0.00	0.00	0.00	0.00	0.00	-0.124512	0.049316	0.964844	-4.480000	-16.100000	2.940000	166.00	-0.25	0.04
2.07	10.50	9.00	7.25	9.25	4.25	9.25	0.50	7.25	2.00	5.00	1.25	2.50	8.00	1.25	0.50	1.00	-0.181152	0.087891	0.950684	-8.190000	14.420000	-0.490000	926.00	-0.12	-0.14	4.50	2.25	1.50	2.50	1.75	0.00	1.50	0.00	0.00	0.00	0.00	0.00	0.00	0.00	0.00	0.00	-0.124023	0.060547	0.955078	-3.220000	-14.560000	3.080000	168.00	-0.26	0.02
2.08	9.75	8.75	7.00	9.00	4.00	9.25	0.50	7.50	2.25	5.00	1.50	2.25	8.00	1.00	0.50	1.00	-0.176270	0.105469	0.942871	-9.870000	15.680000	-1.120000	911.00	-0.12	-0.14	4.50	2.25	2.25	2.50	1.75	0.00	1.50	0.00	0.00	0.00	0.00	0.00	0.00	0.00	0.00	0.00	-0.109375	0.055664	0.957520	-3.010000	-13.510000	2.940000	177.00	-0.26	0.03
2.09	9.25	8.50	6.75	8.75	4.00	9.25	0.50	7.25	2.00	5.00	1.25	2.25	8.00	0.75	0.75	1.00	-0.174316	0.095215	0.947266	-12.670000	18.200001	-1.610000	887.00	-0.12	-0.14	5.00	2.75	2.00	2.75	2.00	0.00	1.50	0.00	0.00	0.00	0.00	0.00	0.00	0.00	0.00	0.00	-0.103027	0.051758	0.937012	-2.940000	-11.620000	2.870000	190.00	-0.27	0.02
2.10	8.50	8.00	6.50	8.50	3.75	9.00	0.50	7.50	2.25	5.00	1.00	2.50	8.00	1.25	0.75	1.00	-0.169922	0.093750	0.950195	-15.400000	21.210001	-2.030000	874.00	-0.11	-0.14	5.00	3.00	2.50	3.00	2.00	0.00	1.50	0.00	0.00	0.00	0.00	0.00	0.00	0.00	0.00	0.00	-0.100586	0.054688	0.950195	-2.240000	-9.380000	2.660000	202.00	-0.27	0.02
2.11	7.75	7.75	6.25	8.00	3.50	8.75	0.50	7.50	2.00	5.25	1.00	2.25	8.25	1.25	0.50	1.00	-0.176758	0.084961	0.973145	-19.040001	28.139999	-3.500000	844.00	-0.10	-0.15	5.75	3.25	2.75	3.50	2.00	0.00	1.50	0.00	0.00	0.00	0.00	0.00	0.00	0.00	0.00	0.00	-0.105957	0.050293	0.936035	-2.240000	-7.840000	2.450000	222.00	-0.28	0.01
2.12	7.00	6.50	5.75	7.50	3.00	8.25	0.50	7.25	2.75	5.25	2.00	3.50	9.00	2.00	0.75	0.75	-0.181641	0.086426	0.980957	-19.389999	31.780001	-4.270000	847.00	-0.07	-0.15	6.00	3.75	3.25	4.00	2.50	0.25	1.50	0.00	0.00	0.00	0.00	0.00	0.00	0.00	0.00	0.00	-0.109863	0.063477	0.943359	-2.800000	-6.300000	2.380000	251.00	-0.28	0.00
2.13	6.75	6.50	5.50	7.25	2.50	8.00	0.75	7.00	2.75	5.25	1.50	2.50	8.00	2.75	1.50	2.25	-0.220703	0.047363	0.980957	-17.430000	34.930000	-5.600000	826.00	-0.06	-0.14	6.50	4.50	4.00	4.50	2.75	0.50	1.50	0.00	0.00	0.00	0.00	0.00	0.00	0.00	0.00	0.00	-0.110352	0.055176	0.939941	-3.990000	-4.900000	2.240000	285.00	-0.28	-0.00
2.14	7.00	6.75	6.00	7.50	3.00	8.00	0.50	6.75	2.75	5.25	1.75	4.00	8.50	2.00	1.50	2.25	-0.083496	0.083984	1.021973	-11.410000	38.639999	-6.720000	857.00	-0.06	-0.14	7.50	5.50	4.50	5.00	3.00	0.75	1.50	0.00	0.00	0.00	0.00	0.00	0.00	0.00	0.00	0.00	-0.114746	0.058105	0.957031	-5.600000	-3.220000	1.960000	325.00	-0.29	-0.01
2.15	6.75	6.75	5.75	7.50	2.50	7.75	0.75	7.00	5.00	6.75	3.00	3.75	9.00	2.50	2.00	2.25	-0.081055	0.064941	1.093750	1.960000	49.840000	-12.460000	926.00	-0.03	-0.13	9.00	6.50	5.25	6.50	3.50	1.25	1.50	0.00	0.00	0.00	0.00	0.00	0.00	0.00	0.00	0.00	-0.110840	0.046387	0.978516	-7.210000	-2.100000	1.400000	391.00	-0.29	-0.02
2.16	5.75	6.75	6.00	7.50	2.50	7.25	0.75	6.25	4.25	6.75	2.50	3.50	8.50	0.75	1.00	1.00	-0.194824	0.084961	1.086426	27.160000	85.750000	-20.299999	840.00	-0.05	-0.13	11.25	7.50	5.75	7.50	4.25	1.75	1.50	0.00	0.00	0.00	0.00	0.00	0.00	0.00	0.00	0.00	-0.117188	0.050781	0.995117	-8.190000	-1.890000	0.630000	459.00	-0.29	-0.02
2.17	6.00	5.50	5.00	6.50	1.25	6.25	0.50	5.75	2.50	6.75	2.25	3.25	9.00	2.25	0.50	0.75	-0.221191	0.261719	1.347656	64.260002	147.139999	-23.450001	747.00	-0.05	-0.14	13.00	8.75	6.75	8.25	5.00	2.25	1.50	0.00	0.00	0.00	0.00	0.00	0.00	0.00	0.00	0.00	-0.124512	0.060059	1.011719	-8.610000	-3.150000	0.350000	528.00	-0.30	-0.02
2.18	5.00	5.75	5.50	6.25	1.00	6.25	0.50	4.50	2.25	6.50	2.25	2.25	7.75	2.00	1.75	1.50	-0.070801	0.307129	1.700684	75.669998	219.520004	-36.820000	704.00	-0.04	-0.13	15.50	10.00	7.75	9.00	5.50	2.50	1.75	0.00	0.00	0.00	0.00	0.00	0.00	0.00	0.00	0.00	-0.117676	0.052246	1.009277	-8.330000	-6.510000	-0.070000	603.00	-0.30	-0.02
2.19	5.00	5.25	5.00	5.75	1.00	6.00	0.25	4.00	2.50	5.75	1.50	2.50	7.50	0.75	0.50	1.00	-0.132324	0.470215	1.922852	76.090004	254.100006	-51.450001	630.00	-0.06	-0.14	17.25	11.50	8.50	9.75	6.25	3.25	1.75	0.25	0.00	0.00	0.00	0.00	0.00	0.00	0.00	0.00	-0.110352	0.045410	1.005859	-7.840000	-6.440000	-0.000000	678.00	-0.30	-0.02
2.20	4.75	5.00	4.25	5.50	0.50	5.25	0.25	3.75	1.75	5.50	1.75	2.25	7.00	1.25	0.00	0.75	-0.192871	0.751953	2.031738	98.349998	247.589996	-71.680000	572.00	-0.06	-0.14	18.50	12.75	9.25	10.50	6.50	3.50	1.75	0.25	0.00	0.00	0.00	0.00	0.00	0.00	0.00	0.00	-0.096680	0.048828	0.978516	-7.350000	-5.880000	-0.070000	729.00	-0.30	-0.02
2.21	5.00	5.25	4.75	5.75	0.75	5.50	0.25	4.00	2.00	5.50	1.25	1.75	7.00	0.75	0.25	0.50	0.243652	0.897461	1.844238	134.050003	225.540009	-104.580002	586.00	-0.08	-0.14	19.75	13.75	9.50	11.25	7.00	4.25	1.75	0.25	0.00	0.00	0.00	0.00	0.00	0.00	0.00	0.00	-0.092773	0.053223	0.986816	-6.790000	-4.480000	-0.210000	780.00	-0.30	-0.03
2.22	4.25	2.25	4.75	5.50	0.75	5.25	0.25	3.75	2.25	5.25	1.00	2.00	6.50	0.75	0.00	0.75	0.855957	1.192383	2.081055	163.100006	186.339996	-112.559998	532.00	-0.06	-0.14	20.25	15.00	10.00	12.00	7.25	4.50	1.75	0.25	0.00	0.00	0.00	0.00	0.00	0.00	0.00	0.00	-0.093262	0.047852	0.983398	-5.740000	-2.520000	-0.420000	820.00	-0.30	-0.03
2.23	4.50	5.00	4.50	6.00	0.75	5.25	0.25	4.25	2.00	5.25	0.75	2.00	6.00	1.00	0.25	0.50	0.823242	0.706543	1.809082	123.059998	131.110001	-78.959999	566.00	-0.08	-0.14	20.50	15.50	10.25	12.25	7.50	5.00	1.75	0.25	0.00	0.00	0.00	0.00	0.00	0.00	0.00	0.00	-0.093262	0.056641	0.974609	-4.900000	-0.070000	-0.840000	842.00	-0.30	-0.03
2.24	4.25	4.50	3.75	5.75	0.75	5.25	0.25	3.75	1.75	5.50	0.75	1.50	6.00	0.75	0.25	0.75	1.182617	0.696289	1.698242	-13.720000	69.720001	-45.990002	530.00	-0.07	-0.14	21.25	16.50	10.50	12.50	7.50	5.00	1.75	0.50	0.00	0.00	0.00	0.00	0.00	0.00	0.00	0.00	-0.095215	0.046875	0.985840	-3.640000	2.310000	-1.050000	871.00	-0.30	-0.04
2.25	3.75	4.50	3.75	5.25	0.75	5.25	0.25	3.75	2.50	5.50	1.25	1.75	6.25	1.25	0.50	1.00	0.998047	1.016113	1.104492	-82.879997	25.969999	-16.100000	549.00	-0.05	-0.14	21.25	16.25	10.25	12.75	7.75	5.00	1.75	0.50	0.00	0.00	0.00	0.00	0.00	0.00	0.00	0.00	-0.106445	0.046875	1.001465	-1.400000	3.990000	-1.050000	872.00	-0.30	-0.04
2.26	3.50	5.00	4.00	5.00	0.75	5.25	0.25	3.75	2.50	5.25	1.25	1.75	6.25	0.75	0.75	1.25	1.030273	0.729004	0.743652	8.120000	1.400000	-13.160000	549.00	-0.05	-0.14	21.50	15.75	10.50	12.75	7.75	5.25	1.75	0.25	0.00	0.00	0.00	0.00	0.00	0.00	0.00	0.00	-0.104492	0.062500	0.993164	0.700000	4.340000	-0.840000	871.00	-0.30	-0.03
2.27	4.00	5.00	4.75	5.75	0.75	5.75	0.50	4.25	2.50	5.75	1.50	2.25	6.50	1.50	0.50	0.75	1.032227	0.363281	0.928223	49.209999	-12.530000	-18.900000	609.00	-0.05	-0.13	21.00	15.50	10.25	12.50	7.75	5.25	1.75	0.50	0.00	0.00	0.00	0.00	0.00	0.00	0.00	0.00	-0.101074	0.054688	0.978516	1.820000	4.900000	-0.420000	861.00	-0.30	-0.04
2.28	4.75	5.50	5.00	6.00	1.25	5.75	0.50	4.50	3.75	6.00	2.00	2.50	7.00	2.50	1.50	1.50	0.993164	0.131348	1.001465	48.580002	-32.270000	-19.180000	697.00	-0.03	-0.12	20.25	15.00	10.25	12.25	7.50	5.00	1.75	0.50	0.00	0.00	0.00	0.00	0.00	0.00	0.00	0.00	-0.101074	0.056641	0.973633	1.820000	5.810000	-0.560000	839.00	-0.30	-0.03
2.29	4.50	5.00	4.75	5.75	0.75	5.25	0.25	4.00	2.25	5.50	0.25	1.75	6.50	0.75	0.25	0.25	0.912598	0.067871	0.961426	31.360001	-52.990002	-16.940001	561.00	-0.08	-0.14	20.00	14.75	9.75	12.00	7.50	5.25	1.75	0.50	0.00	0.00	0.00	0.00	0.00	0.00	0.00	0.00	-0.097656	0.055664	0.967285	1.120000	7.210000	-0.980000	827.00	-0.30	-0.04
2.30	3.75	3.75	3.50	5.00	0.50	4.75	0.25	3.50	1.75	5.25	1.00	1.75	6.00	1.00	0.25	0.75	0.833496	0.051758	0.896484	24.850000	-70.209999	-16.520000	497.00	-0.06	-0.14	19.25	14.00	9.75	11.75	7.50	5.00	1.75	0.50	0.00	0.00	0.00	0.00	0.00	0.00	0.00	0.00	-0.102051	0.050293	0.965332	-0.070000	8.260000	-1.050000	805.00	-0.29	-0.03
2.31	3.75	5.00	4.50	5.25	0.50	5.25	0.25	3.50	2.00	5.25	0.50	1.25	5.75	0.75	0.00	0.50	0.769043	-0.021973	0.887207	29.049999	-83.370003	-18.690001	514.00	-0.08	-0.14	19.00	13.50	9.50	11.25	7.50	5.25	1.75	0.50	0.00	0.00	0.00	0.00	0.00	0.00	0.00	0.00	-0.095703	0.059570	0.947754	-2.310000	10.220000	-2.030000	791.00	-0.29	-0.03
2.32	4.75	5.00	4.75	5.50	0.75	5.50	0.25	3.75	2.25	5.25	1.25	1.75	6.50	0.75	0.50	0.50	0.691406	-0.094238	0.927246	32.340000	-94.849998	-21.139999	572.00	-0.07	-0.13	18.00	13.00	9.50	11.00	7.50	5.00	2.00	0.50	0.00	0.00	0.00	0.00	0.00	0.00	0.00	0.00	-0.102051	0.050781	0.958008	-4.550000	11.620000	-2.450000	773.00	-0.29	-0.03
2.33	4.75	5.00	4.00	5.25	0.50	5.25	0.25	3.75	2.00	5.00	0.50	1.75	6.00	0.75	0.50	0.50	0.620117	-0.119629	0.981934	29.540001	-105.910004	-22.190001	534.00	-0.08	-0.14	17.75	12.25	9.25	10.75	7.50	5.00	2.00	0.50	0.00	0.00	0.00	0.00	0.00	0.00	0.00	0.00	-0.112305	0.055664	0.966797	-6.440000	12.180000	-2.870000	757.00	-0.29	-0.03
2.34	4.50	5.00	4.50	5.50	0.75	5.25	0.25	3.75	2.25	5.00	0.75	1.50	6.25	1.00	0.25	0.50	0.547363	-0.055664	1.090820	25.969999	-119.910004	-20.370001	549.00	-0.08	-0.13	17.25	11.75	9.00	10.50	7.50	5.00	2.00	0.75	0.00	0.00	0.00	0.00	0.00	0.00	0.00	0.00	-0.112793	0.048828	0.967773	-7.490000	12.180000	-3.150000	744.00	-0.28	-0.03
2.35	4.75	5.00	4.75	5.50	0.50	5.25	0.25	3.75	2.00	5.00	1.25	1.25	6.25	0.75	0.25	0.50	0.474609	-0.006836	1.125977	24.360001	-135.520004	-15.890000	549.00	-0.08	-0.13	16.50	11.00	8.75	10.00	7.50	5.00	2.00	1.00	0.00	0.00	0.00	0.00	0.00	0.00	0.00	0.00	-0.111328	0.047363	0.966797	-7.700000	12.110000	-3.570000	723.00	-0.28	-0.03
2.36	4.25	5.25	4.75	5.50	0.75	5.25	0.25	3.50	2.00	5.00	0.50	1.50	5.75	1.00	0.25	0.50	0.377441	0.001953	1.098145	22.820000	-149.869995	-9.310000	536.00	-0.09	-0.13	16.25	10.25	8.75	10.00	7.50	5.00	2.25	1.00	0.00	0.00	0.00	0.00	0.00	0.00	0.00	0.00	-0.118164	0.057617	0.963867	-7.490000	11.760000	-3.640000	717.00	-0.28	-0.03
2.37	5.00	5.00	4.50	5.50	0.75	5.25	0.25	3.75	2.00	5.00	0.50	1.50	6.00	1.25	0.50	0.50	0.282227	0.022461	1.041992	18.340000	-158.830002	-1.750000	551.00	-0.08	-0.13	15.50	9.75	8.75	9.75	7.75	5.25	2.25	1.25	0.00	0.00	0.00	0.00	0.00	0.00	0.00	0.00	-0.108887	0.034180	0.972168	-7.070000	11.690000	-3.710000	711.00	-0.27	-0.03
2.38	4.50	5.00	4.25	5.50	0.50	5.25	0.50	3.75	2.00	4.75	0.75	1.00	6.25	0.75	0.25	0.50	0.177734	0.054688	0.990234	11.690000	-161.139999	6.090000	533.00	-0.08	-0.14	14.75	9.50	8.50	9.50	8.00	5.25	2.25	1.50	0.00	0.00	0.00	0.00	0.25	0.00	0.00	0.00	-0.116211	0.043945	0.962402	-5.670000	10.990000	-4.060000	703.00	-0.26	-0.04
2.39	5.00	5.00	4.25	5.50	0.50	5.25	0.25	3.75	2.50	5.00	0.75	1.50	6.00	1.00	0.00	0.75	0.075195	0.083984	0.981934	5.110000	-158.059998	14.490000	548.00	-0.08	-0.13	14.25	9.00	8.50	9.25	8.25	5.50	2.50	1.75	0.00	0.00	0.00	0.00	0.25	0.00	0.00	0.00	-0.123535	0.062012	1.008789	-3.430000	9.240000	-4.060000	704.00	-0.26	-0.04
2.40	4.50	5.00	4.50	5.50	0.75	5.25	0.25	3.50	1.75	5.00	0.75	1.25	6.25	1.00	0.25	0.75	-0.122559	0.099609	1.086426	-6.510000	-145.949997	31.219999	536.00	-0.08	-0.14	13.50	8.50	8.25	9.00	8.50	5.75	2.75	1.75	0.00	0.00	0.00	0.00	0.25	0.00	0.00	0.00	-0.121094	0.048828	0.963379	-2.380000	7.070000	-3.780000	694.00	-0.25	-0.04
2.41	5.00	5.25	4.50	5.50	0.50	5.25	0.25	4.00	2.00	4.75	0.25	1.50	6.00	1.00	0.25	0.50	-0.214844	0.076172	1.138184	-15.050000	-138.180008	39.060001	544.00	-0.09	-0.14	12.50	8.25	8.00	9.00	8.50	6.00	2.75	2.25	0.00	0.00	0.00	0.00	0.25	0.00	0.00	0.00	-0.124023	0.075195	0.979004	-1.820000	5.460000	-3.220000	688.00	-0.25	-0.05
2.42	4.75	5.00	4.50	5.50	0.50	5.25	0.25	3.75	2.25	5.00	0.50	1.50	6.25	1.00	0.00	0.50	-0.297852	0.069824	1.271484	-24.010000	-131.389999	46.340000	543.00	-0.08	-0.13	12.00	7.00	7.50	8.75	8.50	6.00	2.75	2.75	0.00	0.00	0.00	0.00	1.00	0.00	0.00	0.00	-0.119141	0.066406	0.972168	-1.610000	4.340000	-3.290000	677.00	-0.23	-0.05
2.43	5.00	5.25	4.25	5.75	0.50	5.25	0.25	4.00	2.00	5.00	0.50	1.50	6.00	1.00	0.50	0.50	-0.369629	0.082031	1.427734	-29.400000	-129.149994	53.060001	552.00	-0.08	-0.14	10.75	7.00	7.50	8.50	8.75	6.25	3.00	3.00	0.50	0.00	0.00	0.00	1.00	0.00	0.00	0.00	-0.122070	0.066406	0.958984	-3.290000	2.520000	-3.430000	681.00	-0.22	-0.05
2.44	4.25	5.00	4.50	5.50	0.50	5.50	0.25	4.00	2.00	5.00	0.75	1.75	6.50	0.75	0.25	0.50	-0.409668	0.144043	1.622559	-25.620001	-134.259995	59.849998	550.00	-0.08	-0.14	11.75	7.75	8.25	9.00	10.25	8.00	3.50	3.50	2.25	1.25	0.25	0.00	1.75	0.00	0.25	0.00	-0.106934	0.052734	0.963867	-4.620000	3.360000	-3.990000	822.00	-0.19	-0.05
2.45	4.50	5.25	4.50	5.25	0.75	5.50	0.25	3.75	2.25	4.75	0.25	1.50	6.25	1.00	0.25	0.25	-0.455078	0.166504	1.705566	-13.860000	-148.330002	66.500000	541.00	-0.08	-0.13	11.50	7.00	7.00	7.50	9.00	7.00	3.25	4.00	0.75	0.00	0.00	0.00	1.75	0.00	0.00	0.00	-0.131348	0.056152	0.969727	-4.550000	3.990000	-4.270000	715.00	-0.21	-0.06
2.46	4.75	5.00	4.50	5.50	0.50	5.50	0.25	3.75	1.50	5.00	0.75	1.25	6.00	1.00	0.25	0.50	-0.530762	0.125977	1.642090	-0.910000	-165.759995	72.169998	536.00	-0.09	-0.14	7.50	5.50	7.00	7.50	9.75	7.50	3.75	5.00	2.50	0.75	1.00	1.25	3.25	0.25	0.25	0.50	-0.140137	0.058105	0.978027	-3.710000	5.250000	-3.570000	776.00	-0.14	-0.07
2.47	4.50	4.75	4.00	5.50	0.50	5.25	0.25	3.75	2.00	4.50	0.50	1.25	5.75	1.00	0.25	0.50	-0.641602	0.058105	1.524414	6.020000	-178.080002	75.809998	518.00	-0.08	-0.14	7.00	5.00	6.75	6.00	8.75	7.50	4.00	4.75	2.00	1.00	0.25	0.75	5.25	0.25	0.25	0.50	-0.106445	0.060059	0.985840	-3.080000	7.420000	-3.500000	732.00	-0.13	-0.08
2.48	4.75	5.00	4.75	5.50	0.50	5.00	0.25	3.75	2.00	4.50	0.50	1.00	6.00	1.00	0.25	0.25	-0.760742	0.007812	1.357422	3.990000	-180.880005	77.000000	527.00	-0.09	-0.13	6.50	3.50	5.75	6.50	9.50	7.00	3.75	6.25	2.75	2.25	1.50	1.75	5.25	0.50	0.00	0.50	-0.122559	0.062988	0.981934	-1.330000	10.360000	-3.430000	779.00	-0.09	-0.09
2.49	4.50	5.00	4.25	5.50	0.75	5.50	0.25	4.00	2.25	4.50	0.50	1.25	5.75	1.25	0.25	0.25	-0.891602	0.005859	1.228516	-4.550000	-174.369995	75.320000	538.00	-0.08	-0.13	5.75	3.50	4.00	5.00	8.75	7.00	3.75	5.75	2.50	1.50	1.00	1.00	5.00	0.75	0.25	1.25	-0.139648	0.051270	0.985840	0.350000	13.230000	-3.150000	695.00	-0.09	-0.09
2.50	4.50	5.00	4.50	5.50	0.50	5.50	0.25	3.75	2.00	4.50	0.25	1.25	5.75	1.25	0.25	0.75	-1.022949	0.020020	1.123047	-14.700000	-161.350006	70.629997	530.00	-0.09	-0.14	4.75	2.75	3.25	4.25	8.25	6.25	3.75	6.00	2.75	2.00	1.25	1.25	5.75	1.25	0.00	0.75	-0.108398	0.029297	0.979980	2.520000	16.520000	-2.730000	668.00	-0.06	-0.09
2.51	4.75	5.00	4.25	5.50	0.50	5.25	0.25	4.00	2.25	5.00	0.50	1.00	6.00	1.25	0.50	0.50	-1.155273	0.048340	0.981445	-25.059999	-143.570007	62.790001	544.00	-0.08	-0.13	3.75	2.00	2.50	3.50	7.75	6.50	4.00	6.00	3.50	2.25	2.00	1.25	6.25	2.00	1.00	1.50	-0.128906	0.056641	0.998535	4.200000	20.090000	-2.520000	682.00	-0.02	-0.09
2.52	4.50	5.00	4.50	5.50	0.75	5.25	0.25	3.75	2.00	5.00	0.75	1.25	6.00	0.75	0.25	0.50	-1.316895	0.053223	0.806641	-34.230000	-121.169998	52.849998	538.00	-0.08	-0.13	4.75	2.50	3.00	2.25	8.00	6.25	3.75	6.00	4.25	3.00	2.00	2.25	6.75	2.50	0.25	1.25	-0.121094	0.044922	0.965332	5.810000	23.450001	-1.960000	715.00	-0.01	-0.08
2.53	5.00	5.00	4.50	5.50	0.50	5.25	0.25	3.75	1.75	4.75	0.25	1.50	6.25	1.50	0.25	0.25	-1.495605	0.030273	0.647949	-40.810001	-95.059998	41.650002	539.00	-0.09	-0.14	2.25	1.00	1.75	2.25	6.00	4.75	3.50	6.00	5.00	3.50	2.25	2.75	7.00	2.75	0.50	1.75	-0.284180	0.088379	1.007324	7.140000	26.600000	-1.750000	646.00	0.04	-0.09
2.54	4.50	5.00	4.75	5.50	0.75	5.50	0.25	3.75	1.75	4.75	0.75	1.00	6.00	1.50	0.25	0.25	-1.853516	0.058594	0.495605	-34.230000	-45.360001	20.650000	540.00	-0.09	-0.13	1.50	0.75	1.00	2.25	4.75	4.00	3.50	5.75	5.75	4.25	3.00	3.25	7.50	3.75	0.75	2.25	-0.101562	0.063477	1.012207	7.350000	29.680000	-1.960000	651.00	0.08	-0.09
2.55	5.00	5.00	4.50	5.50	0.50	5.50	0.25	3.75	2.50	4.75	0.50	1.25	6.00	1.25	0.25	0.50	-1.853516	0.058594	0.495605	-34.230000	-45.360001	20.650000	550.00	-0.08	-0.13	0.50	0.50	0.25	2.00	3.50	2.25	3.25	5.25	6.25	5.75	3.75	3.75	8.00	4.75	1.25	3.00	0.176270	0.269531	1.087402	9.240000	33.670002	-1.750000	640.00	0.13	-0.08
2.56	4.75	5.00	4.50	5.50	0.50	5.50	0.25	3.75	2.00	5.00	0.75	0.75	6.00	1.00	0.25	0.25	-2.140625	-0.077637	0.291504	5.110000	-29.260000	11.830000	536.00	-0.09	-0.13	0.00	0.25	0.00	1.25	2.25	1.25	3.00	5.00	7.00	7.50	5.25	4.75	8.25	5.50	1.00	3.50	0.037109	0.168945	0.987793	11.620000	38.080002	-2.380000	653.00	0.17	-0.08
2.57	4.25	5.00	4.25	5.50	0.50	5.50	0.25	3.75	1.75	4.50	0.75	1.00	6.00	0.75	0.25	0.25	-2.293945	-0.268066	0.034668	19.389999	-19.879999	10.290000	518.00	-0.09	-0.14	0.00	0.00	0.00	1.50	1.50	0.50	2.75	3.75	7.50	8.25	5.75	5.00	8.50	6.50	1.25	4.25	-0.114746	0.098145	1.108887	14.140000	45.430000	-4.340000	654.00	0.19	-0.07
2.58	4.75	5.25	4.25	5.75	0.50	5.25	0.25	4.00	2.25	4.75	0.50	1.25	6.00	1.00	0.00	0.50	-2.353516	-0.429688	-0.201172	13.580000	4.900000	7.770000	542.00	-0.09	-0.14	0.00	0.00	0.00	1.25	1.00	0.25	2.50	2.50	8.00	8.75	7.00	5.75	8.50	7.50	2.00	5.00	-0.162109	0.076172	1.046875	19.950001	61.320000	-7.210000	675.00	0.21	-0.05
2.59	4.75	5.00	4.50	5.50	0.50	5.25	0.25	4.00	2.00	4.75	0.50	1.25	6.25	1.00	0.50	0.50	-2.273926	-0.413086	-0.229492	-8.890000	44.240002	2.730000	544.00	-0.08	-0.14	0.00	0.00	0.00	0.75	0.75	0.00	2.25	1.50	8.25	9.00	7.75	6.50	8.50	8.00	2.00	5.25	-0.194336	0.073730	1.082031	24.850000	76.650002	-8.960000	673.00	0.23	-0.05
2.60	4.50	5.00	4.50	5.50	0.50	5.25	0.25	4.00	2.00	4.75	0.75	1.25	6.00	1.25	0.25	0.75	-2.114746	-0.263184	-0.008789	-31.360001	86.730003	-3.990000	542.00	-0.08	-0.14	0.00	0.00	0.00	1.00	0.50	0.00	2.00	0.50	8.50	9.75	8.00	6.75	8.25	8.75	2.25	5.50	-0.218750	0.078125	1.039062	28.559999	93.660004	-10.990000	679.00	0.24	-0.04
2.61	5.00	5.25	4.75	5.50	0.50	5.50	0.25	3.75	2.00	4.75	0.25	1.25	5.75	0.75	0.25	0.50	1.833496	0.706543	0.216309	-33.459999	135.029999	-14.910000	538.00	-0.10	-0.13	0.00	0.00	0.00	1.00	0.50	0.00	1.75	0.25	8.75	10.25	8.00	7.25	8.25	9.50	2.50	6.25	-0.221680	0.138184	1.099121	27.930000	123.550003	-13.370000	700.00	0.24	-0.04
2.62	5.00	5.25	4.50	5.50	0.50	5.25	0.50	4.00	2.00	4.50	0.50	1.75	5.75	0.75	0.50	0.25	1.625000	0.329590	2.223145	-46.830002	187.740005	-18.270000	548.00	-0.09	-0.13	0.00	0.00	0.00	1.00	0.25	0.00	1.50	0.00	9.00	10.50	8.25	7.25	8.00	10.25	3.00	6.25	-0.225098	0.092773	1.167480	21.350000	152.110001	-17.010000	708.00	0.25	-0.03
2.63	5.50	5.50	4.75	5.75	0.75	5.25	0.25	4.00	2.25	4.75	0.50	1.50	6.00	1.25	0.25	0.50	0.613281	0.615723	2.378906	-39.619999	132.440002	-13.440001	570.00	-0.09	-0.13	0.00	0.00	0.00	0.75	0.00	0.00	1.50	0.00	9.25	10.75	8.25	7.00	7.50	11.00	3.25	6.50	-0.269531	0.088379	1.102051	10.220000	174.580002	-18.549999	712.00	0.26	-0.02
2.64	5.75	5.50	5.25	5.75	0.75	5.25	0.50	4.00	2.50	4.75	0.25	1.00	6.25	1.00	0.00	0.50	-0.048340	0.009277	1.024414	-28.559999	84.349998	-6.580000	575.00	-0.10	-0.12	0.00	0.00	0.00	0.50	0.00	0.00	1.25	0.00	9.25	11.25	8.25	7.00	7.00	11.75	3.25	6.25	-0.313477	0.099121	1.145996	0.420000	195.860001	-20.440001	711.00	0.26	-0.02
2.65	5.50	5.75	4.75	5.75	0.75	5.50	0.50	4.25	3.00	4.50	0.00	1.50	6.00	1.50	0.25	0.50	0.025391	0.117676	-0.216797	-49.770000	101.570000	-12.040000	588.00	-0.09	-0.12	0.00	0.00	0.00	0.50	0.00	0.00	1.00	0.00	9.25	11.50	8.25	6.50	6.00	12.50	3.25	6.00	-0.321289	0.125488	1.195801	-9.730000	210.770004	-23.030001	700.00	0.27	-0.01
2.66	7.00	6.25	5.25	6.25	1.25	5.50	0.50	4.75	3.50	5.25	1.50	2.50	7.00	2.25	1.25	1.50	-0.256836	0.317871	0.810547	-48.720001	163.100006	-6.510000	715.00	-0.06	-0.12	0.00	0.00	0.00	0.75	0.00	0.00	1.00	0.00	9.50	11.75	8.00	6.00	5.25	13.00	3.25	6.00	-0.349609	0.132324	1.187012	-18.830000	225.050003	-26.460001	699.00	0.27	0.00
2.67	9.00	8.25	5.75	7.50	1.50	6.00	0.50	5.00	3.75	5.00	1.25	1.75	6.25	2.00	0.50	1.50	-0.221191	0.093750	1.690430	-37.029999	177.940002	6.650000	763.00	-0.10	-0.11	0.00	0.00	0.00	0.75	0.00	0.00	0.75	0.00	9.25	11.75	7.75	5.50	4.25	13.00	3.00	5.50	-0.457520	0.154297	1.274902	-44.799999	250.250000	-34.650002	667.00	0.27	0.01
2.68	10.75	9.25	6.25	7.75	1.75	6.25	0.75	4.75	3.75	6.25	1.75	3.00	7.00	2.25	1.50	1.50	-0.289551	-0.181152	1.770996	-25.760000	150.080002	8.400000	863.00	-0.09	-0.10	0.00	0.00	0.00	0.25	0.00	0.00	0.75	0.00	9.25	11.75	7.75	5.00	2.75	13.00	2.75	5.25	-0.448242	0.120117	1.049805	-52.990002	265.860016	-40.740002	637.00	0.28	0.03
2.69	13.00	10.25	6.75	8.00	2.00	6.25	0.75	4.75	3.75	6.25	2.00	3.25	7.50	2.25	1.25	1.50	-0.291992	-0.253418	1.174316	-26.110001	121.800003	-5.250000	918.00	-0.10	-0.10	0.00	0.00	0.00	0.25	0.00	0.00	0.75	0.00	9.25	12.00	7.25	4.00	1.00	13.25	2.50	4.25	-0.485840	0.115234	1.101562	-64.820000	278.880005	-47.389999	600.00	0.28	0.05
2.70	13.50	10.75	6.50	8.00	1.50	5.25	0.50	3.50	2.25	5.25	1.00	1.75	6.25	1.00	0.50	0.75	-0.346680	0.218750	1.769531	-5.880000	113.889999	-20.510000	785.00	-0.15	-0.10	0.00	0.00	0.00	0.50	0.00	0.00	0.75	0.00	9.00	12.00	6.75	3.00	0.50	12.75	2.25	3.00	-0.547363	0.158203	1.058594	-75.459999	292.600006	-54.180000	562.00	0.28	0.07
2.71	13.50	11.00	6.50	8.00	1.75	5.25	0.50	4.00	2.25	5.50	0.25	2.00	6.50	1.25	0.25	0.75	-0.335449	0.208008	1.518066	-6.440000	83.230003	-15.050000	798.00	-0.15	-0.10	0.00	0.00	0.00	0.25	0.00	0.00	0.50	0.00	8.75	11.75	5.75	2.25	0.00	12.50	1.75	1.25	-0.621094	0.198242	1.132324	-89.529999	304.149994	-64.260002	505.00	0.28	0.09
2.72	13.00	11.25	7.75	8.50	2.00	5.75	0.50	3.75	2.25	5.25	1.00	2.00	6.25	1.50	0.50	0.75	-0.228516	0.166016	1.258789	-10.500000	64.959999	-7.840000	829.00	-0.15	-0.10	0.00	0.00	0.00	0.50	0.00	0.00	0.50	0.00	8.50	11.50	5.00	1.50	0.00	11.75	1.00	0.00	-0.718750	0.250488	1.151367	-96.180000	316.470001	-77.349998	462.00	0.28	0.11
2.73	12.75	10.75	7.25	8.50	2.25	6.00	0.50	4.00	2.25	5.25	1.00	2.25	6.25	1.00	0.25	0.75	-0.179688	0.032715	1.153320	-8.120000	56.070000	-3.640000	821.00	-0.15	-0.10	0.00	0.00	0.00	0.00	0.00	0.00	0.50	0.00	7.75	10.75	4.25	1.00	0.00	11.00	0.50	0.00	-0.930176	0.299805	1.312012	-107.169998	323.329987	-92.120003	409.00	0.28	0.12
2.74	16.00	12.50	8.00	9.25	2.50	6.25	0.50	4.50	2.25	5.50	1.25	2.25	6.50	1.50	0.50	1.00	-0.188477	0.011719	1.140137	-3.220000	47.250000	-5.740000	925.00	-0.16	-0.10	0.00	0.00	0.00	0.50	0.00	0.00	0.50	0.00	6.75	10.00	3.25	0.50	0.00	9.75	0.00	0.00	-1.066406	0.250488	1.480957	-115.080002	325.220001	-108.220001	358.00	0.27	0.12
2.75	16.50	12.75	8.25	9.50	2.75	6.75	0.50	4.50	2.50	5.50	1.00	2.00	6.75	1.25	0.50	0.75	-0.178711	0.081055	1.046387	1.890000	37.380001	-7.630000	944.00	-0.16	-0.09	0.00	0.00	0.00	0.25	0.00	0.00	0.50	0.00	6.00	9.50	2.75	0.50	0.00	8.50	0.00	0.00	-1.264648	0.134277	1.708984	-122.500000	319.130005	-121.940002	321.00	0.28	0.13
2.76	16.50	13.00	8.50	9.75	3.00	6.75	0.75	4.25	2.75	5.25	1.25	2.25	6.75	1.25	0.75	0.75	-0.152832	0.148926	0.992188	2.870000	32.900002	-6.230000	965.00	-0.16	-0.09	0.00	0.00	0.00	0.25	0.00	0.00	0.75	0.00	5.25	8.50	2.00	0.25	0.00	7.25	0.00	0.00	-1.322754	-0.029785	1.870605	-114.520004	311.570007	-118.860001	280.00	0.27	0.13
2.77	17.00	13.25	8.75	9.75	3.25	7.25	0.75	4.75	2.25	5.00	0.75	2.00	6.75	1.50	0.50	0.75	-0.162109	0.112305	0.972656	-1.190000	33.389999	-4.130000	975.00	-0.17	-0.09	0.00	0.00	0.00	0.00	0.00	0.00	0.75	0.00	5.00	7.75	1.50	0.00	0.00	6.00	0.00	0.00	-1.383789	0.062988	2.042480	-112.980003	306.320007	-114.800003	245.00	0.28	0.15
2.78	17.50	13.25	8.75	10.00	3.25	7.25	0.75	4.25	2.75	5.50	1.25	2.00	6.75	1.75	0.50	0.75	-0.138672	0.064453	0.932617	-4.550000	35.980000	-2.520000	996.00	-0.16	-0.09	0.00	0.00	0.00	0.25	0.00	0.00	0.75	0.00	3.75	7.00	0.75	0.00	0.00	5.00	0.00	0.00	-1.193359	0.181152	2.127441	-137.970001	280.000000	-128.240005	204.00	0.27	0.14
2.79	18.00	13.50	9.25	10.50	3.75	7.50	0.75	4.50	2.75	5.25	1.00	2.25	7.00	1.25	0.50	0.75	-0.157227	0.099121	0.945801	-5.390000	40.670002	-2.380000	1024.00	-0.17	-0.09	0.00	0.00	0.00	0.00	0.00	0.00	1.00	0.00	3.25	5.50	0.50	0.00	0.00	2.25	0.00	0.00	-1.045410	0.092285	2.125488	-174.649994	258.579987	-137.199997	152.00	0.25	0.16
2.80	18.00	13.75	9.25	10.50	4.25	7.75	0.75	5.00	3.00	5.50	0.75	2.00	6.75	1.50	0.50	0.75	-0.187012	0.058594	1.062500	-4.970000	43.330002	-2.940000	1044.00	-0.17	-0.09	0.00	0.00	0.00	0.25	0.00	0.00	1.00	0.00	2.50	4.00	0.25	0.00	0.00	0.25	0.00	0.00	-0.507324	0.160156	2.169922	-219.240005	238.419998	-138.110001	106.00	0.21	0.15
2.81	18.00	13.75	9.25	10.75	4.50	8.00	0.75	5.00	2.75	5.25	1.25	2.00	7.00	1.25	0.50	1.00	-0.189941	0.112305	1.027344	-8.540000	36.959999	-2.380000	1054.00	-0.17	-0.09	0.00	0.00	0.00	0.25	0.00	0.00	1.00	0.00	2.00	2.75	0.00	0.00	0.00	0.00	0.00	0.00	-0.469727	-0.242676	2.343750	-286.019989	217.000000	-126.840004	79.00	0.19	0.17
2.82	18.25	14.00	9.25	11.00	5.00	8.00	0.75	5.00	2.25	5.25	1.00	2.50	7.25	1.75	0.75	0.75	-0.175781	0.045410	0.984375	-8.890000	27.790001	0.700000	1073.00	-0.17	-0.09	0.00	0.00	0.00	0.00	0.00	0.00	1.25	0.00	0.75	1.75	0.00	0.00	0.00	0.00	0.00	0.00	0.326172	1.014648	2.004883	-393.679993	198.940002	-101.290001	51.00	0.18	0.18
2.83	18.00	14.00	9.50	11.00	4.75	8.25	0.75	5.25	2.50	5.50	1.00	2.50	7.00	1.25	0.75	1.00	-0.175781	0.045410	0.984375	-8.890000	27.790001	0.700000	1078.00	-0.16	-0.09	0.00	0.00	0.00	0.25	0.00	0.00	1.25	0.00	0.75	1.50	0.00	0.00	0.00	0.00	0.00	0.00	0.477051	0.935059	1.784180	-500.570007	181.020004	17.150000	51.00	0.15	0.16
2.84	17.50	13.75	9.50	11.00	5.00	8.50	0.75	5.25	2.75	5.25	1.25	2.25	7.25	1.50	0.50	1.00	-0.177734	0.076660	0.962891	-7.140000	25.480000	0.490000	1078.00	-0.16	-0.09	0.00	0.00	0.00	0.25	0.00	0.00	1.00	0.00	0.50	1.00	0.00	0.00	0.00	0.00	0.00	0.00	0.844238	1.879395	3.103027	-458.360016	77.980003	139.649994	38.00	0.00	0.00
2.85	17.75	13.75	9.50	11.25	5.25	8.75	1.00	5.50	2.75	5.50	1.25	2.50	7.50	1.50	0.50	1.00	-0.176758	0.061523	0.955078	-8.960000	26.670000	0.630000	1107.00	-0.16	-0.10	0.00	0.00	0.00	0.25	0.00	0.00	1.25	0.00	0.00	1.00	0.00	0.00	0.00	0.00	0.00	0.00	0.801270	1.552246	2.123535	-393.959991	-35.490002	221.970001	35.00	0.00	0.00
2.86	17.25	13.25	9.25	11.25	5.50	9.00	1.00	5.75	2.75	5.50	1.25	2.75	7.50	1.75	0.50	1.00	-0.181641	0.108887	0.958008	-11.060000	25.129999	0.770000	1108.00	-0.15	-0.10	0.00	0.00	0.00	0.25	0.00	0.00	1.25	0.00	0.00	0.75	0.00	0.00	0.00	0.00	0.00	0.00	0.582520	1.232422	1.684082	-309.190002	-113.959999	270.059998	32.00	0.00	0.00
2.87	16.00	13.00	9.00	11.00	5.75	9.25	1.00	6.25	3.00	5.50	1.25	2.75	7.75	1.50	0.50	1.25	-0.199219	0.083008	0.958496	-13.020000	23.379999	0.420000	1105.00	-0.15	-0.10	0.00	0.00	0.00	0.25	0.00	0.00	1.00	0.00	0.00	0.25	0.00	0.00	0.00	0.00	0.00	0.00	0.363770	0.890137	1.269531	-234.990005	-147.419998	294.559998	22.00	0.00	0.00
2.88	15.50	12.75	9.50	11.75	5.75	9.50	1.00	6.75	2.50	5.50	1.75	3.00	8.00	1.50	1.00	1.00	-0.182129	0.070312	0.975098	-13.930000	21.840000	0.070000	1131.00	-0.14	-0.11	0.00	0.00	0.00	0.25	0.00	0.00	1.25	0.00	0.00	0.25	0.00	0.00	0.00	0.00	0.00	0.00	0.318848	0.558105	1.083984	-185.710007	-155.119995	297.570007	26.00	0.00	0.00
2.89	15.25	12.25	9.50	10.50	6.25	9.75	1.00	7.25	2.50	6.75	1.25	3.00	8.25	1.50	0.25	1.50	-0.203125	0.076660	0.958984	-14.070000	18.830000	-0.700000	1131.00	-0.14	-0.11	0.00	0.00	0.00	0.25	0.00	0.00	1.00	0.00	0.00	0.00	0.00	0.00	0.00	0.00	0.00	0.00	0.327637	0.289551	1.062012	-149.940002	-155.190002	284.619995	19.00	0.00	0.00
2.90	14.75	11.50	8.75	10.50	6.25	10.00	1.00	7.50	2.00	6.00	2.00	2.75	8.75	2.00	0.50	1.00	-0.212402	0.082031	0.986328	-12.670000	15.750000	-1.540000	1115.00	-0.13	-0.12	0.00	0.00	0.00	0.25	0.00	0.00	1.25	0.00	0.00	0.00	0.00	0.00	0.00	0.00	0.00	0.00	0.312500	0.124512	1.182129	-125.510002	-160.580002	261.239990	24.00	0.00	0.00
2.91	14.00	10.75	8.75	10.25	6.50	10.25	1.25	8.00	1.50	6.25	2.00	3.00	9.00	2.00	0.25	2.25	-0.208496	0.089355	0.980469	-10.640000	13.720000	-1.680000	1120.00	-0.12	-0.12	0.00	0.00	0.00	0.00	0.00	0.00	1.00	0.00	0.00	0.00	0.00	0.00	0.00	0.00	0.00	0.00	0.340820	-0.008789	1.227051	-101.849998	-195.930008	194.880005	16.00	0.00	0.00
2.92	13.00	10.50	8.50	10.00	6.50	10.25	1.25	8.00	2.25	6.50	1.50	3.50	9.50	1.25	0.25	1.75	-0.208496	0.058105	0.971191	-8.540000	12.180000	-2.170000	1108.00	-0.12	-0.12	0.00	0.00	0.00	0.00	0.00	0.00	1.00	0.00	0.00	0.00	0.00	0.00	0.00	0.00	0.00	0.00	0.331543	-0.005371	1.084473	-86.800003	-216.440002	155.610001	16.00	0.00	0.00
2.93	14.75	11.25	8.75	10.75	7.50	11.50	1.50	8.75	2.25	7.00	2.50	3.25	10.00	2.00	0.00	1.50	-0.220703	0.061523	0.969727	-6.090000	10.920000	-2.450000	1213.00	-0.12	-0.12	0.00	0.00	0.00	0.25	0.00	0.00	1.25	0.00	0.00	0.00	0.00	0.00	0.00	0.00	0.00	0.00	0.298828	0.003418	0.959961	-64.610001	-229.809998	113.050003	24.00	0.00	0.00
2.94	10.00	9.00	7.75	9.25	6.75	10.25	1.25	8.75	2.00	6.50	2.50	3.75	10.50	1.75	0.25	2.00	-0.213867	0.066406	0.973145	-3.220000	10.010000	-2.520000	1083.00	-0.09	-0.14	0.00	0.00	0.00	0.25	0.00	0.00	1.25	0.00	0.00	0.00	0.00	0.00	0.00	0.00	0.00	0.00	0.259766	-0.028320	0.855469	-35.770000	-234.710007	70.559998	24.00	0.00	0.00
2.95	10.25	8.50	7.50	9.25	6.50	11.00	1.50	9.00	2.00	6.25	2.50	4.50	10.75	1.75	0.25	2.00	-0.234375	0.054688	0.974121	-0.490000	10.150000	-2.520000	1100.00	-0.09	-0.14	0.00	0.00	0.00	0.00	0.00	0.00	1.00	0.00	0.00	0.00	0.00	0.00	0.00	0.00	0.00	0.00	0.220703	-0.055664	0.852539	-12.460000	-233.660004	31.010000	16.00	0.00	0.00
2.96	8.00	7.75	7.25	8.50	6.25	10.00	1.25	9.25	2.50	6.50	3.00	4.25	10.75	1.75	0.25	2.25	-0.223145	0.064941	0.969727	1.470000	11.060000	-2.800000	1054.00	-0.07	-0.15	0.00	0.00	0.00	0.25	0.00	0.00	1.00	0.00	0.00	0.00	0.00	0.00	0.00	0.00	0.00	0.00	0.201172	-0.072266	0.917480	-1.470000	-231.699997	-3.500000	19.00	0.00	0.00
2.97	7.75	7.50	6.50	8.25	6.00	10.00	1.25	9.50	2.25	7.00	3.50	5.00	11.00	2.00	0.25	2.50	-0.225586	0.070312	0.956543	3.080000	12.950000	-2.870000	1061.00	-0.06	-0.15	0.00	0.00	0.00	0.25	0.00	0.00	1.00	0.00	0.00	0.00	0.00	0.00	0.00	0.00	0.00	0.00	0.158691	-0.038086	1.061035	-0.280000	-234.710007	-30.940001	19.00	0.00	0.00
2.98	7.25	7.00	6.25	7.75	5.75	10.00	1.25	9.75	3.25	7.50	3.75	5.50	11.25	2.00	0.25	2.50	-0.225586	0.067871	0.991699	4.130000	15.050000	-2.660000	1073.00	-0.05	-0.15	0.00	0.00	0.00	0.25	0.00	0.00	1.25	0.00	0.00	0.00	0.00	0.00	0.00	0.00	0.00	0.00	0.121094	0.031250	1.189941	-4.060000	-245.770004	-50.330002	24.00	0.00	0.00
2.99	7.25	7.00	6.25	7.50	5.75	9.75	1.25	10.00	3.75	7.75	4.00	6.50	12.00	2.50	0.00	2.75	-0.243652	0.070312	0.963867	4.900000	17.570000	-3.010000	1106.00	-0.04	-0.15	0.00	0.00	0.00	0.00	0.00	0.00	1.00	0.00	0.00	0.00	0.00	0.00	0.00	0.00	0.00	0.00	0.073730	0.149902	1.226562	-5.950000	-261.660004	-62.790001	16.00	0.00	0.00
3.00	6.50	6.50	6.00	7.50	5.00	9.75	1.25	9.75	3.25	7.50	5.00	7.00	11.75	2.25	0.50	3.25	-0.254883	0.084961	0.960449	5.740000	22.540001	-2.660000	1088.00	-0.03	-0.16	0.00	0.00	0.00	0.25	0.00	0.00	1.00	0.00	0.00	0.00	0.00	0.00	0.00	0.00	0.00	0.00	0.020020	0.277344	1.256348	0.490000	-277.690002	-68.809998	19.00	0.00	0.00
3.01	6.00	6.25	5.75	7.25	4.75	9.25	1.25	10.00	2.75	7.75	6.25	7.50	12.25	2.00	0.25	3.50	-0.248535	0.066895	0.977539	6.090000	24.360001	-2.660000	1085.00	-0.02	-0.16	0.00	0.00	0.00	0.25	0.00	0.00	1.25	0.00	0.00	0.00	0.00	0.00	0.00	0.00	0.00	0.00	-0.042969	0.357910	1.298828	16.100000	-291.339996	-69.160004	24.00	0.00	0.00
3.02	5.75	6.00	5.50	7.00	4.00	9.00	1.00	9.75	3.75	7.75	7.25	7.75	12.50	2.50	0.75	3.75	-0.229004	0.075195	0.982422	7.280000	26.320000	-2.800000	1096.00	-0.00	-0.16	0.00	0.00	0.00	0.25	0.00	0.00	1.25	0.00	0.00	0.00	0.00	0.00	0.00	0.00	0.00	0.00	-0.100586	0.375000	1.360352	34.509998	-302.470001	-64.120003	24.00	0.00	0.00
3.03	5.50	5.75	5.50	6.75	3.25	8.75	1.00	9.75	4.00	8.00	7.75	8.00	12.75	2.50	0.50	4.25	-0.228027	0.058594	0.962891	8.680000	28.350000	-2.660000	1094.00	0.00	-0.16	0.00	0.00	0.00	0.00	0.00	0.00	1.00	0.00	0.00	0.00	0.00	0.00	0.00	0.00	0.00	0.00	-0.250488	0.361328	1.523438	51.520000	-319.059998	-42.070000	16.00	0.00	0.00
3.04	5.50	6.00	5.50	6.50	2.75	8.50	1.00	9.50	4.25	8.00	8.25	8.50	13.00	2.75	0.50	4.00	-0.246582	0.070801	0.955566	10.780000	30.660000	-2.940000	1098.00	0.01	-0.16	0.00	0.00	0.00	0.00	0.00	0.00	1.00	0.00	0.00	0.00	0.00	0.00	0.00	0.00	0.00	0.00	-0.325684	0.378906	1.609375	48.720001	-325.220001	-27.650000	16.00	0.00	0.00
3.05	5.25	5.75	5.25	7.50	3.00	8.75	1.00	9.50	5.25	8.75	9.25	9.00	13.00	2.50	0.50	4.25	-0.254395	0.081543	0.953613	14.140000	32.549999	-3.220000	1147.00	0.02	-0.16	0.00	0.00	0.00	0.25	0.00	0.00	1.00	0.00	0.00	0.00	0.00	0.00	0.00	0.00	0.00	0.00	-0.404297	0.416016	1.701660	45.920002	-329.980011	-13.230000	19.00	0.00	0.00
3.06	6.00	6.25	5.75	7.50	2.50	8.00	1.00	9.75	6.00	9.00	9.75	9.75	14.25	4.25	1.75	6.00	-0.249512	0.095215	0.972656	18.760000	35.279999	-4.620000	1237.00	0.03	-0.15	0.00	0.00	0.00	0.00	0.00	0.00	1.00	0.00	0.00	0.00	0.00	0.00	0.00	0.00	0.00	0.00	-0.482910	0.432617	1.789062	49.490002	-332.989990	-1.330000	16.00	0.00	0.00
3.07	6.00	6.25	5.50	7.25	2.25	8.25	1.00	9.50	5.75	9.00	10.00	10.25	14.75	4.00	2.00	5.75	-0.251953	0.078125	0.962402	23.520000	39.619999	-4.410000	1235.00	0.03	-0.15	0.00	0.00	0.00	0.25	0.00	0.00	1.25	0.00	0.00	0.00	0.00	0.00	0.00	0.00	0.00	0.00	-0.575195	0.406738	1.860352	59.430000	-334.040009	6.650000	24.00	0.00	0.00
3.08	5.75	6.25	5.75	7.25	2.25	8.00	0.75	9.25	6.25	9.50	10.50	10.50	14.75	4.25	2.00	6.50	-0.254883	0.083008	0.951172	28.490000	44.380001	-3.500000	1252.00	0.04	-0.15	0.00	0.00	0.00	0.00	0.00	0.00	1.00	0.00	0.00	0.00	0.00	0.00	0.00	0.00	0.00	0.00	-0.685547	0.334473	1.945801	72.309998	-331.309998	10.010000	16.00	0.00	0.00
3.09	5.75	6.25	5.50	7.25	2.00	7.75	0.75	9.00	6.25	9.50	10.50	10.50	14.00	3.25	2.25	6.50	-0.265625	0.100586	0.957520	32.130001	45.570000	-3.430000	1226.00	0.04	-0.15	0.00	0.00	0.00	0.00	0.00	0.00	1.25	0.00	0.00	0.00	0.00	0.00	0.00	0.00	0.00	0.00	-0.796387	0.271484	2.069824	85.190002	-324.940002	8.890000	21.00	0.00	0.00
3.10	5.75	5.50	5.25	6.00	1.25	6.25	0.50	8.00	6.25	9.75	11.00	10.25	14.00	3.00	1.25	6.00	-0.258789	0.103516	0.972656	32.200001	46.759998	-3.640000	1142.00	0.05	-0.15	0.00	0.00	0.00	0.25	0.00	0.00	1.00	0.00	0.00	0.00	0.00	0.00	0.00	0.00	0.00	0.00	-0.953125	0.212891	2.265625	96.669998	-318.920013	5.320000	19.00	0.00	0.00
3.11	5.25	5.50	4.25	6.00	1.00	6.25	0.50	8.25	6.00	9.50	11.50	10.25	13.75	4.25	2.00	6.25	-0.286133	0.110840	0.955566	29.610001	53.900002	-3.850000	1143.00	0.06	-0.15	0.00	0.00	0.00	0.25	0.00	0.00	1.00	0.00	0.00	0.00	0.00	0.00	0.00	0.00	0.00	0.00	-1.096191	0.108887	2.388672	104.440002	-316.329987	2.100000	19.00	0.00	0.00
3.12	4.75	5.50	4.50	6.00	1.00	6.25	0.25	7.50	5.25	9.50	11.00	10.75	13.75	3.50	1.25	6.00	-0.289551	0.113281	0.944336	30.309999	62.790001	-5.040000	1097.00	0.05	-0.16	0.00	0.00	0.00	0.25	0.00	0.00	1.00	0.00	0.00	0.00	0.00	0.00	0.00	0.00	0.00	0.00	-1.260254	-0.039062	2.433594	107.309998	-317.170013	2.380000	19.00	0.00	0.00
3.13	4.50	5.25	4.75	6.00	0.75	6.00	0.25	6.75	5.25	9.75	11.25	11.00	13.75	3.25	1.50	6.25	-0.304199	0.124023	0.979980	31.500000	74.970001	-5.740000	1086.00	0.06	-0.16	0.00	0.00	0.00	0.25	0.00	0.00	1.00	0.00	0.00	0.00	0.00	0.00	0.00	0.00	0.00	0.00	-1.462402	-0.299805	2.424805	110.599998	-317.799988	7.350000	19.00	0.00	0.00
3.14	5.00	3.75	4.75	5.75	0.50	5.75	0.25	6.50	5.50	10.00	11.50	10.75	13.75	3.50	1.50	6.50	-0.356445	0.150391	0.906250	25.270000	99.959999	-8.120000	1074.00	0.07	-0.15	0.00	0.00	0.00	0.00	0.00	0.00	1.00	0.00	0.00	0.00	0.00	0.00	0.00	0.00	0.00	0.00	-2.077637	-0.825684	2.303223	123.480003	-311.500000	21.000000	16.00	0.00	0.00
3.15	4.25	5.25	4.50	5.75	0.75	5.75	0.00	6.25	5.50	10.00	11.75	11.25	13.75	4.25	2.00	6.50	-0.338379	0.124023	0.932129	20.299999	108.570000	-8.960000	1094.00	0.07	-0.15	0.00	0.00	0.00	0.00	0.00	0.00	1.00	0.00	0.00	0.00	0.00	0.00	0.00	0.00	0.00	0.00	-2.439941	-0.979980	2.319336	126.629997	-306.040009	30.309999	16.00	0.00	0.00
3.16	4.25	5.00	4.50	6.00	0.50	5.75	0.00	5.75	6.50	10.25	11.75	11.25	13.50	5.00	2.50	6.75	-0.375977	0.133301	0.925293	16.590000	114.800003	-8.820000	1112.00	0.08	-0.14	0.00	0.00	0.00	0.00	0.00	0.00	1.00	0.00	0.00	0.00	0.00	0.00	0.00	0.00	0.00	0.00	-2.812500	-0.993652	2.160645	107.660004	-299.320007	41.509998	16.00	0.00	0.00
3.17	3.50	5.00	4.75	6.00	0.50	6.00	0.00	5.50	6.25	10.50	12.00	11.50	13.25	5.50	2.25	7.00	-0.364258	0.141113	0.952637	11.550000	121.660004	-8.960000	1111.00	0.08	-0.14	0.00	0.00	0.00	0.00	0.00	0.00	1.00	0.00	0.00	0.00	0.00	0.00	0.00	0.00	0.00	0.00	-3.207520	-0.822754	1.641113	61.040001	-288.190002	48.299999	16.00	0.00	0.00
3.18	5.50	5.25	4.75	6.00	0.75	5.75	0.00	5.25	6.50	10.75	12.25	11.50	13.00	6.25	2.50	7.00	-0.390625	0.131836	0.934570	8.610000	129.779999	-9.380000	1149.00	0.08	-0.13	0.00	0.00	0.00	0.25	0.00	0.00	1.00	0.00	0.00	0.00	0.00	0.00	0.00	0.00	0.00	0.00	-3.674316	-0.556152	0.808594	6.790000	-267.399994	42.209999	19.00	0.00	0.00
3.19	4.75	5.25	4.25	5.75	0.75	5.75	0.00	5.00	6.50	11.00	12.25	11.50	13.00	7.50	3.00	7.25	-0.434082	0.140137	1.004395	8.890000	139.440002	-10.990000	1149.00	0.09	-0.13	0.00	0.00	0.00	0.25	0.00	0.00	1.00	0.00	0.00	0.00	0.00	0.00	0.00	0.00	0.00	0.00	-4.186035	-0.244629	-0.197754	-19.180000	-233.029999	16.379999	19.00	0.00	0.00
3.20	4.50	5.25	4.75	5.50	0.50	5.75	0.00	5.00	7.00	11.25	12.50	11.50	12.75	8.00	3.25	7.25	-0.442383	0.115234	1.021973	4.480000	148.610001	-11.830000	1164.00	0.09	-0.12	0.00	0.00	0.00	0.00	0.00	0.00	1.00	0.00	0.00	0.00	0.00	0.00	0.00	0.00	0.00	0.00	-4.669922	-0.069824	-0.992188	15.960000	-183.750000	-21.139999	16.00	0.00	0.00
3.21	4.50	5.00	4.75	5.75	0.75	5.50	0.00	5.00	7.25	11.50	12.50	11.75	12.25	8.25	3.25	7.50	-0.444336	0.115234	0.981445	2.800000	158.970001	-11.970000	1173.00	0.10	-0.12	0.00	0.00	0.00	0.25	0.00	0.00	1.25	0.00	0.00	0.25	0.00	0.00	0.00	0.00	0.00	0.00	-4.781738	-0.240234	-1.328613	97.650002	-124.110001	-45.220001	26.00	0.00	0.00
3.22	4.25	5.00	4.75	5.75	0.50	5.75	0.00	5.00	7.00	12.00	12.75	11.75	12.25	9.00	3.50	7.50	-0.479492	0.111328	0.958496	1.330000	170.380005	-11.130000	1185.00	0.10	-0.12	0.00	0.00	0.00	0.00	0.00	0.00	1.00	0.00	0.00	0.00	0.00	0.00	0.00	0.00	0.00	0.00	-4.557617	-0.705566	-1.281738	158.199997	-57.889999	-41.299999	16.00	0.00	0.00
3.23	4.75	5.25	4.75	5.50	0.50	5.75	0.00	4.75	7.50	11.75	12.75	11.50	11.75	9.25	3.75	7.75	-0.507324	0.159668	1.009766	0.420000	183.539993	-11.130000	1189.00	0.10	-0.11	0.00	0.00	0.00	0.25	0.00	0.00	1.25	0.00	0.00	0.00	0.00	0.00	0.00	0.00	0.00	0.00	-4.079102	-1.090332	-0.840332	148.680008	15.050000	-18.969999	24.00	0.00	0.00
3.24	4.50	5.25	5.00	5.75	0.50	5.50	0.00	5.00	7.75	12.00	12.75	11.50	11.50	9.75	4.00	7.50	-0.544922	0.165527	1.028809	-1.540000	198.729996	-13.160000	1204.00	0.10	-0.11	0.00	0.00	0.00	0.00	0.00	0.00	1.00	0.00	0.00	0.00	0.00	0.00	0.00	0.00	0.00	0.00	-3.479980	-1.098145	-0.097656	75.809998	83.650002	5.880000	16.00	0.00	0.00
3.25	4.25	5.00	5.00	6.00	0.25	5.50	0.00	5.00	7.50	12.00	12.50	11.25	11.00	10.00	3.75	7.75	-0.567871	0.170410	0.997070	-0.770000	216.930008	-16.100000	1185.00	0.10	-0.11	0.00	0.00	0.00	0.00	0.00	0.00	1.00	0.00	0.00	0.00	0.00	0.00	0.00	0.00	0.00	0.00	-1.044922	0.172363	2.310547	-14.630000	163.309998	-7.980000	16.00	0.00	0.00
3.26	4.50	5.50	5.00	5.75	0.75	6.00	0.00	5.25	8.25	12.50	12.50	11.25	10.50	11.00	5.00	7.75	-0.607422	0.195312	1.096680	-0.910000	238.490005	-20.370001	1242.00	0.10	-0.10	0.00	0.00	0.00	0.25	0.00	0.00	1.00	0.00	0.00	0.00	0.00	0.00	0.00	0.00	0.00	0.00	0.746582	0.465820	1.748047	-24.080000	198.589996	-15.680000	19.00	0.00	0.00
3.27	4.50	5.00	4.50	5.75	0.25	5.50	0.00	4.75	7.25	12.00	12.25	10.75	10.00	11.00	4.75	7.50	-0.673828	0.202637	1.140625	-1.190000	262.850006	-25.690001	1172.00	0.11	-0.10	1.25	1.00	0.00	0.75	0.00	0.00	1.00	0.00	0.00	0.00	0.00	0.00	0.00	0.00	0.00	0.00	0.325195	-0.143555	0.629395	-54.740002	99.260002	-15.190001	50.00	0.00	0.00
3.28	3.75	4.50	4.00	5.50	0.50	5.75	0.00	5.00	6.50	12.00	12.00	10.50	9.50	11.00	4.50	7.25	-0.719727	0.199219	1.167969	-0.070000	290.429993	-31.500000	1134.00	0.11	-0.11	3.00	2.50	0.50	1.50	0.25	0.00	1.25	0.00	0.00	0.00	0.00	0.00	0.00	0.00	0.00	0.00	0.095703	0.135254	0.242676	-83.019997	132.930008	-31.010000	107.00	-0.28	0.01
3.29	4.50	5.00	4.00	5.25	0.00	5.25	0.00	4.50	6.25	11.50	11.75	10.00	9.00	11.00	4.50	7.00	-0.805176	0.220215	1.339355	1.540000	322.630005	-36.820000	1101.00	0.11	-0.10	5.50	5.25	1.00	3.00	0.25	0.00	1.00	0.00	0.00	0.00	0.00	0.00	0.00	0.00	0.00	0.00	-0.312988	0.243164	1.117676	-77.209999	200.130005	-34.160000	183.00	-0.33	-0.03
3.30	3.25	4.00	4.00	5.25	0.00	5.25	0.00	4.50	5.75	10.75	11.50	9.75	8.75	11.00	4.00	6.75	-1.173340	0.355957	1.483887	20.299999	405.230011	-44.310001	1045.00	0.11	-0.11	9.00	8.00	2.50	5.25	0.50	0.00	1.25	0.00	0.00	0.00	0.00	0.00	0.00	0.00	0.00	0.00	-0.515137	0.100098	1.571289	-82.879997	261.029999	-31.360001	302.00	-0.33	-0.03
3.31	4.25	5.00	4.75	5.50	0.25	5.50	0.00	4.75	5.00	10.00	10.50	8.75	8.25	10.00	3.00	5.75	-1.694824	0.355957	1.838379	34.369999	440.160004	-42.910000	1015.00	0.08	-0.11	13.00	10.25	5.00	8.00	1.25	0.25	1.25	0.00	0.00	0.00	0.00	0.25	0.00	0.00	0.00	0.00	-1.064453	0.249512	3.658203	-72.379997	294.070007	-27.510000	449.00	-0.33	-0.03
3.32	4.75	5.00	5.00	5.75	0.25	5.75	0.00	4.50	4.00	9.50	9.50	8.25	8.25	9.25	2.00	5.00	-1.909180	0.641113	2.186035	38.500000	465.570007	-40.389999	966.00	0.07	-0.11	16.00	12.75	7.50	9.75	2.50	1.50	1.50	0.25	0.00	0.00	0.00	0.00	0.25	0.00	0.00	0.00	-0.399902	-0.010254	2.382324	-84.489998	222.740005	-23.030001	597.00	-0.32	-0.03
3.33	4.50	5.00	5.00	5.75	0.25	5.25	0.00	4.25	4.00	8.75	8.50	7.75	8.00	8.50	1.25	4.25	-1.913086	0.655762	2.478516	69.510002	489.089996	-32.759998	905.00	0.06	-0.11	17.00	13.75	9.00	10.50	3.25	2.50	1.75	0.50	0.00	0.00	0.00	0.00	0.25	0.00	0.00	0.00	-0.344238	0.136230	1.453125	-80.150002	171.430008	-18.830000	675.00	-0.31	-0.04
3.34	4.00	5.00	5.00	5.50	0.25	5.50	0.00	4.25	3.25	8.25	8.00	7.00	8.00	7.50	0.25	3.00	-1.715332	0.516602	2.804199	101.779999	496.860016	-34.580002	840.00	0.04	-0.12	17.75	13.75	9.25	11.25	5.00	3.75	2.00	0.75	0.00	0.00	0.00	0.00	0.25	0.00	0.00	0.00	-0.207520	0.160645	2.080566	-79.870003	165.130005	-11.830000	739.00	-0.30	-0.04
3.35	4.25	4.75	4.50	5.50	0.25	5.25	0.00	4.25	2.75	8.00	7.25	6.25	7.50	6.50	0.25	2.75	-1.753906	0.506348	3.006348	123.620003	493.360016	-35.279999	789.00	0.03	-0.13	17.50	13.25	9.50	11.50	5.75	4.75	2.25	1.25	0.00	0.00	0.00	0.00	0.25	0.00	0.00	0.00	-0.238281	0.027344	1.515137	-90.230003	108.570000	-2.310000	771.00	-0.29	-0.04
3.36	4.25	5.25	5.00	5.50	0.25	5.50	0.00	4.25	2.25	7.75	5.75	5.75	7.50	5.50	0.25	2.25	-1.541992	0.376465	3.349609	133.630005	487.970001	-44.730000	758.00	0.01	-0.13	16.75	12.50	9.75	11.50	6.50	5.00	2.50	1.50	0.00	0.00	0.00	0.00	0.75	0.00	0.00	0.00	-0.208008	0.005371	1.147461	-63.980000	56.910000	-2.240000	783.00	-0.27	-0.04
3.37	3.00	4.00	4.00	5.25	0.00	5.25	0.00	4.25	3.25	7.50	5.00	4.50	7.50	4.00	0.25	1.50	-1.259277	0.162109	3.080566	128.800003	481.320007	-56.420002	680.00	0.02	-0.13	16.25	11.75	9.50	11.25	7.00	6.25	2.75	2.00	0.50	0.00	0.00	0.00	1.25	0.00	0.00	0.00	-0.144531	0.060059	1.069824	-35.980000	30.450001	-1.750000	809.00	-0.26	-0.05
3.38	3.25	4.25	4.00	5.25	0.25	5.25	0.00	4.00	2.25	7.50	4.50	4.50	7.50	2.75	0.00	1.50	-0.554199	0.432129	3.202637	107.730003	453.670013	-67.129997	649.00	0.00	-0.14	15.25	11.25	9.50	11.25	7.50	6.75	3.00	2.25	0.50	0.25	0.00	0.00	1.75	0.00	0.00	0.00	-0.163574	0.069824	1.046875	-21.280001	15.260000	-1.190000	820.00	-0.25	-0.05
3.39	4.25	5.00	4.50	5.75	0.25	5.25	0.00	4.00	1.25	6.25	3.00	3.25	7.00	2.00	0.00	1.25	0.340332	0.343262	3.374023	118.160004	415.869995	-73.290001	607.00	-0.04	-0.15	14.50	10.25	9.25	10.75	8.00	7.50	3.25	3.00	0.75	0.25	0.00	0.00	2.25	0.00	0.00	0.00	-0.147949	0.084961	0.983887	-9.800000	0.280000	-0.770000	832.00	-0.23	-0.06
3.40	4.25	5.25	4.50	5.50	0.50	5.25	0.00	4.25	1.50	6.25	2.25	3.25	7.00	1.75	0.25	1.00	0.786621	-0.211914	2.394531	138.809998	362.809998	-90.160004	608.00	-0.05	-0.15	13.75	9.25	9.00	10.50	8.25	7.50	3.25	3.50	1.00	0.25	0.25	0.25	2.50	0.00	0.00	0.00	-0.147461	0.046875	0.999023	-7.210000	-0.070000	-0.770000	831.00	-0.22	-0.06
3.41	4.00	5.00	4.50	5.25	0.25	5.50	0.00	3.75	1.50	6.50	2.50	3.25	7.00	1.75	0.00	1.00	1.258789	0.118652	2.392090	56.630001	278.670013	-101.989998	594.00	-0.04	-0.15	12.25	8.75	8.50	9.75	8.25	7.50	3.50	3.75	0.75	0.50	0.25	0.50	3.00	0.00	0.00	0.25	-0.145508	0.032715	1.002441	-4.970000	1.190000	-1.260000	810.00	-0.20	-0.07
3.42	4.50	5.25	4.25	5.75	0.25	5.25	0.00	4.00	1.25	6.00	2.00	2.50	6.75	1.25	0.00	1.00	1.106445	0.199219	3.822754	-18.900000	80.150002	-83.160004	576.00	-0.06	-0.15	10.75	8.00	8.25	9.50	8.25	7.50	3.50	4.25	1.25	0.50	0.25	0.25	3.50	0.00	0.00	0.00	-0.141113	0.057617	1.002441	-1.820000	3.640000	-0.980000	796.00	-0.19	-0.08
3.43	4.75	5.25	4.25	5.75	0.25	5.50	0.25	3.00	1.75	5.75	1.75	3.00	6.75	1.75	0.00	1.00	0.700195	0.195801	2.144531	-125.650002	-204.119995	-37.869999	581.00	-0.06	-0.14	9.50	7.25	7.50	9.00	8.25	7.25	3.50	4.75	1.50	0.50	0.50	0.25	3.75	0.00	0.00	0.50	-0.122559	0.056641	0.978516	0.700000	6.510000	-0.630000	776.00	-0.17	-0.08
3.44	4.50	5.00	4.50	5.50	0.25	5.50	0.00	4.00	1.50	5.75	1.75	2.25	6.50	1.50	0.00	1.00	0.454102	0.195801	2.144531	-125.650002	-204.119995	-37.869999	571.00	-0.06	-0.15	8.25	6.50	6.75	8.00	8.00	7.25	3.50	5.00	1.75	0.75	0.50	0.50	4.50	0.00	0.00	0.50	-0.130371	0.063965	0.981445	1.890000	9.030000	-0.910000	751.00	-0.16	-0.09
3.45	4.00	5.00	4.50	5.50	0.25	5.50	0.25	4.00	0.50	5.75	1.75	2.00	6.50	1.50	0.00	1.00	0.285156	0.383789	1.082031	-132.860001	-300.019989	-42.000000	552.00	-0.07	-0.16	7.25	5.75	6.25	7.50	7.75	7.00	3.50	5.25	1.75	1.00	0.75	0.50	4.75	0.00	0.00	0.50	-0.126953	0.066895	0.975098	2.660000	10.850000	-1.260000	726.00	-0.14	-0.09
3.46	3.50	5.25	4.50	5.75	0.50	5.50	0.25	2.75	0.75	5.50	1.50	2.00	6.50	2.00	0.00	1.00	0.189941	0.365234	0.787598	-101.570000	-304.500000	-52.220001	537.00	-0.07	-0.15	7.25	5.25	5.50	6.75	7.50	6.75	3.50	5.50	2.00	1.00	1.00	0.75	5.00	0.00	0.00	0.50	-0.119141	0.053711	0.975586	3.500000	13.090000	-1.610000	713.00	-0.13	-0.10
3.47	4.50	5.00	4.75	5.50	0.25	5.50	0.00	4.00	0.75	5.50	1.25	2.25	6.50	1.25	0.00	1.00	0.133789	0.295898	0.595215	-69.160004	-298.549988	-63.700001	553.00	-0.08	-0.16	5.50	4.25	4.75	5.75	7.00	6.25	3.25	5.50	2.50	1.25	1.00	0.75	5.25	0.00	0.00	0.75	-0.124023	0.060059	0.979004	4.480000	15.120000	-1.750000	659.00	-0.11	-0.10
3.48	3.75	5.00	4.75	5.50	0.25	5.50	0.00	3.75	0.75	5.50	1.00	2.00	6.50	1.25	0.00	1.00	0.077637	0.194336	0.589844	-49.139999	-290.220001	-74.410004	534.00	-0.08	-0.16	4.50	3.00	3.50	5.00	6.25	5.75	3.25	5.50	2.50	1.50	1.25	1.25	5.50	0.00	0.00	1.00	-0.130859	0.056152	0.968262	6.020000	16.590000	-1.470000	612.00	-0.08	-0.11
3.49	4.00	5.00	4.25	5.50	0.50	5.25	0.25	3.50	0.00	5.25	0.75	2.25	6.50	1.25	0.00	0.75	0.022949	0.084961	0.661133	-41.930000	-282.869995	-84.000000	516.00	-0.09	-0.16	3.50	2.25	2.50	4.00	5.75	5.50	3.00	5.50	2.75	1.75	1.50	1.25	6.00	0.25	0.00	1.00	-0.140625	0.066406	0.972656	6.790000	18.129999	-1.540000	572.00	-0.05	-0.12
3.50	3.75	5.00	4.50	5.75	0.50	5.25	0.25	3.75	0.50	5.50	1.00	1.75	6.25	1.25	0.00	0.75	-0.004395	0.065918	0.829102	-47.040001	-281.049988	-91.489998	528.00	-0.08	-0.16	3.00	1.75	1.50	3.25	5.00	5.00	3.00	5.50	3.00	1.75	1.50	1.25	6.25	0.25	0.00	1.25	-0.172852	0.069824	0.970703	7.210000	21.350000	-2.030000	532.00	-0.03	-0.12
3.51	4.25	5.00	4.75	5.50	0.25	5.25	0.25	4.00	0.75	5.25	1.00	2.00	6.25	1.50	0.00	0.75	0.009766	0.116211	0.988770	-57.260002	-289.869995	-94.500000	541.00	-0.08	-0.15	1.75	1.25	1.00	2.50	4.00	3.75	2.75	5.50	3.50	2.00	1.75	1.75	6.50	0.50	0.50	1.75	-0.145020	0.082520	0.971680	7.140000	22.820000	-2.520000	499.00	0.02	-0.13
3.52	4.25	5.00	4.25	5.50	0.50	5.25	0.00	4.50	0.75	5.25	1.00	1.75	6.25	1.50	0.00	0.75	-0.007324	0.207031	1.125000	-63.700001	-310.660004	-91.070000	539.00	-0.08	-0.16	1.25	1.00	0.75	2.25	3.25	3.00	2.75	5.25	3.75	2.50	2.25	2.00	6.75	0.75	0.50	1.75	-0.144043	0.084473	0.996094	7.840000	22.960001	-2.380000	485.00	0.05	-0.13
3.53	4.00	5.00	4.50	5.50	0.50	5.50	0.25	3.75	1.00	5.25	0.75	1.75	6.50	1.50	0.00	0.75	-0.095703	0.296387	1.192383	-60.970001	-338.239990	-81.970001	537.00	-0.08	-0.15	0.75	0.25	0.25	2.00	2.50	2.25	2.50	5.25	3.75	2.75	2.75	2.00	7.25	1.00	0.75	2.25	-0.200684	0.144043	0.974609	9.870000	23.590000	-2.590000	462.00	0.08	-0.14
3.54	4.25	5.00	4.50	5.75	0.50	5.50	0.25	3.75	0.75	5.25	1.00	1.75	6.25	1.50	0.00	0.75	-0.204102	0.366699	1.193848	-47.950001	-364.209991	-68.669998	540.00	-0.08	-0.15	0.00	0.25	0.00	1.25	1.75	1.75	2.50	5.00	4.50	3.25	3.25	2.50	7.25	1.25	0.75	2.75	-0.165039	0.030273	0.954590	12.740000	25.059999	-3.290000	456.00	0.12	-0.13
3.55	4.50	5.00	4.25	5.50	0.25	5.25	0.25	3.50	0.75	5.00	0.75	1.75	6.25	1.75	0.00	0.75	-0.305664	0.388672	1.158691	-27.860001	-382.619995	-53.549999	523.00	-0.08	-0.15	0.00	0.25	0.00	1.25	1.25	1.00	2.25	4.75	4.75	3.50	3.75	3.00	7.75	1.50	1.00	3.50	-0.183105	0.145020	0.975586	16.030001	26.180000	-3.500000	465.00	0.14	-0.13
3.56	3.75	5.00	4.50	5.50	0.25	5.50	0.25	4.00	0.50	5.00	0.75	1.25	6.25	1.50	0.00	1.00	-0.398438	0.391602	1.159668	-5.460000	-392.980011	-37.170002	519.00	-0.09	-0.16	0.00	0.00	0.00	0.75	0.75	0.50	2.00	4.25	5.00	4.00	4.25	3.50	7.75	1.75	1.50	3.75	-0.153809	0.102051	0.983398	20.299999	26.320000	-4.270000	462.00	0.17	-0.12
3.57	4.25	5.25	4.50	5.50	0.25	5.50	0.25	4.00	0.00	5.00	1.00	1.50	6.25	1.50	0.00	0.50	-0.485840	0.372070	1.168945	15.610000	-397.110016	-20.020000	522.00	-0.09	-0.16	0.00	0.00	0.00	0.75	0.50	0.00	2.00	3.75	5.00	4.50	5.50	4.00	8.25	2.25	2.00	4.00	-0.155762	0.084961	0.987305	26.740000	30.730000	-6.720000	487.00	0.19	-0.12
3.58	3.75	5.00	4.75	5.50	0.25	5.50	0.25	4.25	0.75	5.25	0.75	1.75	6.00	2.00	0.00	0.75	-0.574219	0.337402	1.265625	30.799999	-399.000000	-4.130000	539.00	-0.08	-0.15	0.00	0.00	0.00	1.00	0.25	0.00	1.75	3.25	5.00	4.75	6.50	4.50	8.25	2.50	2.25	5.00	-0.179688	0.083496	0.992676	31.360001	36.259998	-7.700000	506.00	0.20	-0.12
3.59	4.25	5.00	4.50	5.50	0.50	5.50	0.25	4.25	0.00	5.00	1.25	1.75	6.25	1.25	0.00	0.25	-0.759277	0.248047	1.508301	50.680000	-399.980011	22.540001	529.00	-0.09	-0.16	0.00	0.00	0.00	1.00	0.25	0.00	1.75	2.75	5.25	5.25	7.25	5.00	8.75	3.00	2.50	5.00	-0.186035	0.098633	0.981934	34.090000	38.430000	-7.630000	534.00	0.21	-0.11
3.60	4.25	5.00	4.25	5.25	0.25	5.50	0.25	4.00	0.50	5.00	0.75	1.75	6.00	1.50	0.00	0.75	-0.858398	0.193848	1.656250	56.000000	-400.119995	32.549999	520.00	-0.09	-0.16	0.00	0.00	0.00	0.50	0.00	0.00	1.50	2.00	5.00	6.00	7.75	5.50	9.00	3.00	2.75	5.25	-0.185059	0.084961	0.976074	34.720001	42.490002	-7.350000	531.00	0.22	-0.11
3.61	4.00	4.75	3.75	5.50	0.25	5.50	0.25	4.00	0.25	5.00	0.75	1.50	6.00	1.75	0.00	0.50	-0.975586	0.162598	1.844727	59.360001	-401.309998	39.480000	506.00	-0.08	-0.16	0.00	0.00	0.00	0.50	0.00	0.00	1.50	1.50	5.25	6.50	8.00	6.50	9.25	3.50	3.25	5.50	-0.208496	0.112793	0.987793	34.930000	48.230000	-6.930000	561.00	0.23	-0.11
3.62	4.00	5.00	4.25	5.50	0.25	5.50	0.00	3.75	0.50	4.75	0.75	1.50	6.25	1.25	0.00	0.50	-1.119141	0.160156	2.043945	60.689999	-404.809998	45.009998	505.00	-0.09	-0.16	0.00	0.00	0.00	0.25	0.00	0.00	1.25	1.25	5.25	6.75	8.50	7.25	9.50	3.75	3.25	6.00	-0.206055	0.105469	1.001465	35.560001	57.540001	-6.860000	574.00	0.24	-0.11
3.63	4.00	5.00	4.50	5.75	0.25	5.50	0.25	4.00	0.50	4.75	0.50	1.50	6.00	1.50	0.00	0.75	-1.299805	0.198242	2.251953	61.740002	-410.829987	51.660000	518.00	-0.09	-0.16	0.00	0.00	0.00	0.50	0.00	0.00	1.25	1.00	5.25	7.00	8.50	7.50	9.50	4.00	3.50	6.50	-0.232910	0.127930	1.001465	35.209999	79.940002	-7.700000	587.00	0.24	-0.11
3.64	4.25	5.00	3.75	5.25	0.25	5.25	0.25	3.25	0.50	4.75	0.50	1.50	6.00	1.50	0.00	0.75	-1.513184	0.280273	2.405273	65.029999	-417.899994	60.549999	490.00	-0.09	-0.15	0.00	0.00	0.00	0.50	0.00	0.00	1.25	0.50	5.25	7.50	8.75	7.75	9.50	4.50	4.25	7.25	-0.262207	0.114746	1.058594	32.759998	92.400002	-9.170000	608.00	0.24	-0.10
3.65	4.00	5.00	4.50	5.50	0.25	5.25	0.25	4.00	0.75	4.50	0.50	1.50	6.00	1.25	0.00	0.75	-1.744141	0.337891	2.488281	72.309998	-423.149994	71.120003	510.00	-0.09	-0.16	0.00	0.00	0.00	0.50	0.00	0.00	1.25	0.25	5.25	7.75	9.00	8.00	9.50	5.00	4.25	7.50	-0.260254	0.142578	0.995605	29.049999	102.830002	-10.360000	619.00	0.25	-0.10
3.66	4.00	5.00	4.25	5.50	0.25	5.25	0.25	3.75	0.00	4.75	0.50	1.25	6.25	1.00	0.00	0.75	-1.984863	0.325684	2.582520	86.519997	-425.529999	82.599998	492.00	-0.10	-0.17	0.00	0.00	0.00	0.50	0.00	0.00	1.25	0.00	5.25	7.75	9.25	8.25	9.50	5.25	4.50	7.75	-0.280762	0.130371	1.001465	25.059999	111.090004	-11.270000	627.00	0.25	-0.10
3.67	4.00	4.75	4.00	5.50	0.25	5.50	0.25	4.25	0.75	5.00	0.75	1.50	6.00	1.00	0.00	0.25	-2.348633	0.248535	2.750488	104.300003	-425.320007	91.070000	512.00	-0.09	-0.16	0.00	0.00	0.00	0.50	0.00	0.00	1.25	0.00	5.50	8.00	9.50	8.25	9.50	5.50	5.00	8.00	-0.291992	0.155762	0.993652	21.210001	116.830002	-11.970000	646.00	0.25	-0.10
3.68	3.50	5.00	4.75	5.50	0.25	5.25	0.25	3.50	0.25	4.75	0.50	1.75	6.25	1.00	0.25	0.50	-2.781738	0.138672	2.756348	114.379997	-422.100006	92.820000	499.00	-0.09	-0.16	0.00	0.00	0.00	0.00	0.00	0.00	1.25	0.00	5.50	8.00	9.50	8.50	9.50	6.25	5.00	8.50	-0.303711	0.149902	0.969238	18.200001	121.730003	-13.790000	652.00	0.26	-0.09
3.69	4.25	5.00	4.50	5.25	0.50	5.25	0.25	4.00	0.25	5.00	0.75	1.75	6.25	1.00	0.00	0.50	-3.172363	0.026855	2.459961	121.309998	-412.230011	89.529999	516.00	-0.09	-0.16	0.00	0.00	0.00	0.25	0.00	0.00	1.00	0.00	5.50	8.25	9.75	8.50	9.50	6.50	5.00	8.75	-0.333984	0.152344	0.979980	13.510000	125.230003	-15.330000	661.00	0.26	-0.09
3.70	3.75	4.50	4.50	5.50	0.25	5.50	0.25	3.75	0.00	5.00	0.75	1.75	6.00	1.50	0.00	0.75	-3.613770	-0.098633	1.971680	137.410004	-389.339996	82.110001	504.00	-0.09	-0.16	0.00	0.00	0.00	0.25	0.00	0.00	1.00	0.00	6.00	8.50	10.00	8.75	9.50	7.25	5.50	9.00	-0.348633	0.145508	0.959961	11.410000	128.660004	-16.450001	691.00	0.26	-0.09
3.71	4.00	5.00	4.75	5.50	0.25	5.00	0.00	3.50	0.00	4.75	0.75	1.75	6.25	1.25	0.00	0.75	-4.466797	-0.160645	1.967773	168.630005	-345.450012	77.000000	498.00	-0.10	-0.16	0.00	0.00	0.00	0.25	0.00	0.00	1.00	0.00	6.25	8.75	10.00	8.75	9.25	7.75	5.75	9.00	-0.380859	0.144531	1.004883	8.610000	133.630005	-17.710001	702.00	0.26	-0.08
