# time	left pressure 1[N/cm²]	left pressure 2[N/cm²]	left pressure 3[N/cm²]	left pressure 4[N/cm²]	left pressure 5[N/cm²]	left pressure 6[N/cm²]	left pressure 7[N/cm²]	left pressure 8[N/cm²]	left pressure 9[N/cm²]	left pressure 10[N/cm²]	left pressure 11[N/cm²]	left pressure 12[N/cm²]	left pressure 13[N/cm²]	left pressure 14[N/cm²]	left pressure 15[N/cm²]	left pressure 16[N/cm²]	left acceleration X[g]	left acceleration Y[g]	left acceleration Z[g]	left angular X[dps]	left angular Y[dps]	left angular Z[dps]	left total force[N]	left center of pressure X[%]	left center of pressure Y[%]	right pressure 1[N/cm²]	right pressure 2[N/cm²]	right pressure 3[N/cm²]	right pressure 4[N/cm²]	right pressure 5[N/cm²]	right pressure 6[N/cm²]	right pressure 7[N/cm²]	right pressure 8[N/cm²]	right pressure 9[N/cm²]	right pressure 10[N/cm²]	right pressure 11[N/cm²]	right pressure 12[N/cm²]	right pressure 13[N/cm²]	right pressure 14[N/cm²]	right pressure 15[N/cm²]	right pressure 16[N/cm²]	right acceleration X[g]	right acceleration Y[g]	right acceleration Z[g]	right angular X[dps]	right angular Y[dps]	right angular Z[dps]	right total force[N]	right center of pressure X[%]	right center of pressure Y[%]
0.00																										1.50	0.50	1.75	0.75	4.75	5.00	5.00	5.50	10.25	7.25	5.50	3.50	6.50	8.75	5.00	2.00	-0.177246	0.033203	0.956543	-2.310000	-9.100000	3.150000	969.00	0.14	-0.03
0.01																										2.00	0.50	1.50	1.00	5.00	5.25	4.75	5.50	10.00	7.25	5.50	3.25	6.50	8.75	5.00	2.25	-0.175293	0.037109	0.952637	-2.520000	-8.750000	3.150000	972.00	0.13	-0.03
0.02																										2.00	1.00	2.00	1.00	5.00	5.25	5.00	5.50	10.00	7.25	5.25	3.25	6.25	8.75	5.00	2.00	-0.174316	0.034668	0.952148	-2.800000	-8.470000	3.220000	981.00	0.13	-0.03
0.03																										2.50	0.50	2.00	0.75	5.00	5.25	5.00	5.50	10.00	7.00	5.25	3.25	6.25	8.75	5.00	2.00	-0.173340	0.035156	0.958984	-3.500000	-8.260000	3.220000	975.00	0.13	-0.02
0.04																										2.50	0.50	1.75	1.00	5.25	5.25	4.75	5.25	10.00	7.00	5.25	3.25	6.25	8.75	5.00	2.00	-0.180664	0.027344	0.955078	-3.780000	-8.400000	3.150000	969.00	0.13	-0.02
0.05																										2.00	0.75	2.25	1.25	5.00	5.25	4.75	5.25	9.75	7.00	5.00	2.75	6.25	8.50	5.00	2.00	-0.179688	0.035156	0.959473	-4.060000	-8.050000	3.150000	957.00	0.12	-0.03
0.06																										2.50	0.50	2.25	1.25	5.25	5.50	4.75	5.25	9.75	6.75	5.00	2.75	6.00	8.50	4.75	1.75	-0.183105	0.028809	0.968750	-3.920000	-7.070000	3.220000	956.00	0.12	-0.02
0.07																										2.50	0.75	2.25	1.00	5.25	5.25	4.50	5.25	9.75	6.50	4.50	2.75	6.00	8.25	4.75	1.75	-0.176270	0.036133	0.969238	-3.500000	-5.250000	3.500000	936.00	0.12	-0.02
0.08																										2.25	1.00	2.25	1.25	5.00	5.00	4.50	5.00	9.50	6.25	4.50	2.50	5.75	8.25	4.50	1.50	-0.172852	0.034668	0.967285	-2.940000	-3.220000	3.360000	911.00	0.12	-0.02
0.09																										2.25	0.50	2.25	1.25	5.00	5.00	4.25	5.00	9.50	6.25	3.75	2.25	5.75	8.00	4.25	1.50	-0.183105	0.024414	0.961426	-2.450000	-1.680000	3.150000	882.00	0.12	-0.02
0.10																										2.25	0.25	1.50	1.00	4.50	4.75	4.00	5.00	9.25	6.00	3.75	2.00	5.75	8.00	4.00	1.50	-0.173340	0.028320	0.950195	-1.960000	-0.420000	3.080000	839.00	0.12	-0.02
0.11																										2.25	0.75	2.00	1.00	4.25	4.50	4.00	4.50	9.25	6.00	3.50	2.00	5.50	7.75	3.75	1.25	-0.173340	0.031250	0.948242	-1.400000	0.140000	2.940000	822.00	0.12	-0.02
0.12																										2.00	0.50	2.00	0.75	4.25	4.00	3.75	4.25	9.00	5.75	3.25	1.75	5.50	7.75	3.75	1.25	-0.178711	0.027344	0.954590	-0.770000	0.700000	2.800000	784.00	0.13	-0.01
0.13	2.50	1.25	2.75	2.25	0.75	3.25	0.25	2.25	1.25	1.25	0.25	0.00	2.50	1.50	0.25	0.00	-0.247559	0.100586	0.960449	-6.930000	-1.190000	-0.490000	291.00	-0.08	-0.11	2.00	0.50	1.50	0.75	3.75	3.75	3.50	4.00	9.00	5.75	3.00	1.50	5.25	7.50	3.50	1.25	-0.180664	0.029297	0.953613	-0.280000	0.770000	2.730000	744.00	0.13	-0.01
0.14	2.25	1.00	2.25	2.00	0.75	2.75	0.25	3.00	1.75	1.50	0.25	0.25	2.50	2.00	0.00	0.00	-0.262207	0.030762	0.963867	-3.990000	0.350000	0.560000	298.00	-0.04	-0.11	2.00	0.75	1.75	0.75	3.50	3.25	3.25	4.00	8.75	5.50	3.00	1.50	5.25	7.50	3.00	1.25	-0.187988	0.033203	0.948242	-0.070000	0.350000	2.660000	723.00	0.13	-0.01
0.15	1.75	1.00	2.00	1.50	0.75	3.50	0.50	3.00	1.50	1.50	0.50	0.50	3.25	2.00	0.25	0.00	-0.248535	0.099609	0.941895	0.840000	-0.140000	2.450000	310.00	-0.02	-0.13	2.00	0.50	1.75	0.50	3.50	3.25	3.25	3.50	8.75	5.25	2.50	1.25	5.00	7.25	3.00	1.25	-0.186035	0.030762	0.944336	0.070000	-0.210000	2.520000	690.00	0.13	0.00
0.16	0.50	1.00	1.75	1.50	0.75	3.25	0.50	3.75	1.50	1.75	0.25	0.25	3.00	2.25	0.50	0.25	-0.248535	0.099609	0.941895	0.840000	-0.140000	2.450000	303.00	0.01	-0.14	1.50	0.50	1.00	0.50	3.25	3.25	3.00	3.50	8.75	5.25	2.50	1.25	5.00	7.00	2.75	1.00	-0.190430	0.024902	0.947266	0.140000	-1.050000	2.310000	659.00	0.14	-0.00
0.17	1.00	0.75	1.50	1.00	0.75	3.00	0.50	4.25	1.75	1.75	0.75	0.50	4.50	2.25	0.50	0.00	-0.238770	0.088379	0.946289	0.770000	-0.910000	1.470000	329.00	0.03	-0.16	1.50	0.75	1.50	0.50	3.00	3.00	3.00	3.25	8.50	5.25	2.25	1.25	5.00	6.75	2.50	1.00	-0.187500	0.032227	0.945312	-0.000000	-3.220000	2.590000	644.00	0.13	-0.00
0.18	1.00	0.75	1.75	1.25	0.75	3.50	0.50	4.75	2.25	2.00	0.75	0.75	5.25	2.50	0.50	0.25	-0.241699	0.089355	0.934570	0.560000	-2.730000	0.420000	377.00	0.04	-0.16	1.75	0.50	1.50	0.50	3.00	2.75	2.75	3.00	8.25	5.00	2.00	1.00	5.00	6.75	2.50	0.75	-0.185547	0.028320	0.947266	-0.210000	-4.130000	2.870000	618.00	0.13	0.00
0.19	0.50	0.50	1.25	1.00	0.75	3.75	0.50	5.00	2.25	2.00	1.25	0.75	5.50	2.75	0.50	0.25	-0.238281	0.081543	0.936035	-0.280000	-4.550000	-0.490000	378.00	0.06	-0.17	2.00	0.25	1.50	0.50	3.00	2.75	2.75	3.00	8.25	4.75	2.00	1.00	4.75	6.50	2.50	0.75	-0.188477	0.032715	0.941895	-0.420000	-4.690000	3.150000	610.00	0.13	0.01
0.20	1.00	0.50	1.25	1.00	0.75	4.25	0.50	5.25	2.50	2.25	1.25	0.75	5.50	3.25	0.75	0.50	-0.238770	0.074219	0.944824	-1.330000	-5.460000	-0.560000	412.00	0.06	-0.16	1.25	0.50	1.00	0.50	2.75	2.75	2.50	2.75	8.25	4.75	1.75	1.25	4.50	6.25	2.50	0.75	-0.189453	0.036133	0.953125	-0.560000	-5.250000	3.220000	579.00	0.14	0.00
0.21	1.25	0.50	1.50	1.25	0.75	4.25	0.50	5.25	2.50	2.25	1.00	0.75	6.00	3.25	1.00	0.50	-0.231934	0.071289	0.942383	-2.030000	-6.090000	-0.210000	426.00	0.05	-0.16	1.50	0.50	1.50	0.75	2.75	2.50	2.50	2.75	8.00	4.25	1.75	1.00	4.75	6.00	2.00	0.50	-0.189941	0.036621	0.951660	-0.630000	-5.460000	3.430000	568.00	0.13	0.00
0.22	1.00	0.75	1.50	1.25	1.00	5.00	0.50	5.50	2.75	2.25	1.25	1.00	6.25	3.50	0.75	0.25	-0.234863	0.073242	0.948730	-2.660000	-6.370000	0.210000	454.00	0.05	-0.16	1.75	0.50	1.25	0.50	2.75	2.50	2.50	2.50	8.00	4.25	1.75	0.75	4.00	6.25	2.25	0.50	-0.185547	0.037109	0.941406	-0.980000	-5.810000	3.500000	554.00	0.13	0.02
0.23	1.25	0.75	1.75	1.50	1.00	5.00	0.50	5.75	3.00	2.75	1.25	1.00	6.50	4.50	1.00	0.50	-0.227539	0.077637	0.947754	-3.150000	-6.300000	0.000000	496.00	0.06	-0.15	1.50	0.50	1.50	0.50	2.75	2.50	2.25	2.50	8.00	4.50	1.50	0.75	4.00	6.00	2.00	0.50	-0.175293	0.034668	0.948242	-1.330000	-6.440000	3.290000	545.00	0.13	0.02
0.24	1.50	0.75	1.75	1.75	1.00	5.25	0.75	5.75	3.50	2.75	1.50	1.25	7.00	4.25	1.00	0.25	-0.213867	0.075195	0.946777	-3.570000	-6.230000	-0.350000	525.00	0.06	-0.14	2.00	0.50	1.75	0.50	2.50	2.50	2.25	2.50	8.00	4.00	1.50	0.75	4.00	6.25	2.00	0.75	-0.186523	0.031738	0.945801	-1.540000	-6.650000	3.220000	549.00	0.12	0.02
0.25	1.50	1.00	2.00	2.00	1.25	5.25	0.75	6.00	3.00	3.00	1.50	1.50	7.50	4.75	1.00	0.50	-0.222168	0.070801	0.948242	-3.570000	-6.160000	-0.210000	553.00	0.05	-0.15	1.75	0.50	1.50	0.50	2.75	2.50	2.25	2.50	8.00	4.25	1.50	0.75	4.00	6.00	1.75	0.50	-0.187500	0.034180	0.956543	-1.470000	-6.510000	3.010000	541.00	0.13	0.02
0.26	1.25	0.50	2.25	2.00	1.25	5.50	0.75	6.25	3.50	3.25	1.75	1.50	7.50	5.00	1.25	0.50	-0.229980	0.070801	0.953613	-2.870000	-5.460000	0.070000	575.00	0.06	-0.14	1.50	0.50	1.25	0.50	2.50	2.25	2.00	2.25	8.00	4.00	1.50	0.75	3.75	6.00	1.75	0.50	-0.185059	0.033203	0.950195	-1.120000	-6.230000	3.080000	514.00	0.14	0.02
0.27	1.25	0.75	2.50	1.50	1.25	5.75	0.75	6.25	3.75	3.25	1.75	1.75	7.50	5.25	1.25	0.75	-0.225586	0.073242	0.958496	-1.750000	-3.150000	0.770000	589.00	0.07	-0.14	2.00	0.50	1.50	0.25	2.50	2.25	2.25	2.25	8.00	4.00	1.50	0.75	3.75	5.75	1.75	0.50	-0.185059	0.031738	0.956055	-0.840000	-5.740000	3.010000	522.00	0.13	0.02
0.28	1.00	0.75	2.50	1.50	1.25	5.75	0.75	6.75	3.75	3.75	1.75	1.75	7.75	5.50	2.00	0.75	-0.224121	0.074219	0.949707	-1.540000	-2.240000	0.840000	616.00	0.08	-0.14	1.50	0.50	1.25	0.25	2.25	2.25	2.00	2.25	7.75	4.00	1.25	0.75	3.75	5.75	1.75	0.50	-0.191406	0.028320	0.955078	-0.490000	-5.180000	2.870000	498.00	0.14	0.02
0.29	1.25	1.25	2.75	1.75	1.25	5.75	0.75	7.00	4.00	3.50	2.00	2.00	8.25	5.50	2.00	0.75	-0.223145	0.071289	0.958496	-1.470000	-1.400000	0.840000	648.00	0.07	-0.14	1.50	0.25	1.50	0.25	2.25	2.25	2.00	2.25	7.75	3.75	1.25	0.50	3.75	5.75	1.50	0.75	-0.188965	0.035156	0.951660	-0.210000	-4.480000	2.590000	490.00	0.14	0.02
0.30	1.75	1.00	2.25	1.75	1.25	5.75	0.75	7.25	4.50	3.75	2.00	1.75	8.25	5.50	1.75	0.75	-0.234863	0.077637	0.959473	-1.470000	-0.840000	0.630000	654.00	0.07	-0.14	1.25	0.25	1.00	0.25	2.00	2.25	2.00	2.25	7.75	4.00	1.50	0.75	4.00	5.50	1.50	0.50	-0.188477	0.035645	0.953613	-0.000000	-3.850000	2.310000	485.00	0.15	0.02
0.31	1.25	0.50	2.25	1.75	1.25	6.00	0.75	7.50	4.25	4.00	2.00	1.75	8.00	5.50	1.75	1.00	-0.227051	0.073730	0.954590	-1.680000	-0.210000	0.560000	648.00	0.08	-0.14	1.25	0.25	1.25	0.25	2.00	2.00	1.75	2.25	7.75	3.75	1.50	0.50	4.00	5.50	1.75	0.50	-0.199219	0.040039	0.949219	0.070000	-3.430000	2.170000	478.00	0.15	0.02
0.32	1.75	1.00	2.50	2.00	1.25	6.00	0.75	7.50	4.50	4.00	2.00	2.25	8.25	6.00	2.25	0.75	-0.228516	0.071289	0.955566	-1.960000	0.420000	0.560000	689.00	0.07	-0.14	1.50	0.50	0.75	0.25	2.00	1.75	1.75	2.25	7.50	3.50	1.25	0.75	3.75	5.50	1.50	0.50	-0.190918	0.035156	0.951660	0.350000	-3.080000	2.030000	461.00	0.14	0.02
0.33	1.25	0.75	2.50	2.00	1.50	6.00	1.00	7.50	4.50	4.25	2.25	2.00	8.50	6.00	1.75	1.00	-0.219238	0.075195	0.951172	-2.240000	0.840000	0.490000	689.00	0.08	-0.14	1.25	0.00	0.75	0.25	2.00	2.00	1.75	2.25	7.50	3.25	1.25	0.75	3.75	5.25	1.75	0.25	-0.193359	0.041016	0.949707	0.490000	-2.870000	2.030000	451.00	0.15	0.02
0.34	1.50	0.75	2.25	1.25	1.50	6.00	1.00	7.75	4.50	4.75	2.50	2.25	8.75	6.50	2.25	0.75	-0.225586	0.069336	0.948730	-2.240000	0.770000	0.630000	708.00	0.09	-0.13	1.00	0.00	0.75	0.25	1.75	1.75	1.75	2.00	7.50	3.50	1.25	0.50	3.75	5.50	1.50	0.50	-0.197754	0.039062	0.944824	0.490000	-2.800000	1.960000	438.00	0.16	0.02
0.35	1.50	1.00	2.50	1.75	1.50	6.00	1.00	7.50	5.00	4.75	2.50	2.00	9.00	6.25	2.50	1.00	-0.219727	0.074707	0.945801	-2.730000	0.840000	0.560000	725.00	0.08	-0.13	0.75	0.00	0.50	0.25	1.75	1.75	1.50	2.25	7.50	3.25	1.25	0.50	3.75	5.50	1.50	0.50	-0.198242	0.037109	0.949707	0.560000	-2.730000	2.030000	429.00	0.17	0.02
0.36	1.25	1.00	2.25	1.50	1.50	6.25	1.00	7.50	5.25	4.75	2.25	2.00	8.75	6.50	2.00	1.00	-0.219727	0.073730	0.952637	-3.220000	0.840000	0.560000	713.00	0.09	-0.13	1.00	0.00	0.75	0.25	1.50	1.75	1.50	2.00	7.50	3.25	1.25	0.75	3.50	5.50	1.50	0.50	-0.200684	0.044922	0.951660	0.350000	-2.730000	2.030000	428.00	0.16	0.02
0.37	1.25	1.25	2.50	1.75	1.50	6.00	1.00	7.50	5.25	4.75	2.50	2.25	9.00	6.75	2.25	1.00	-0.228027	0.074219	0.947266	-3.360000	0.630000	0.490000	734.00	0.09	-0.13	0.50	0.00	0.50	0.00	1.50	1.50	1.50	2.00	7.50	3.00	1.25	0.75	3.75	5.25	1.50	0.50	-0.203613	0.043945	0.957520	0.280000	-2.660000	1.750000	409.00	0.18	0.02
0.38	1.25	1.00	2.50	1.75	1.50	6.25	1.00	7.50	5.25	4.75	2.50	2.00	9.00	6.75	2.00	1.00	-0.225098	0.071289	0.951172	-3.360000	0.280000	0.630000	728.00	0.09	-0.13	1.00	0.00	0.75	0.00	1.25	1.75	1.50	2.00	7.25	3.00	1.00	0.75	3.75	5.50	1.25	0.50	-0.203613	0.044434	0.949219	0.350000	-2.520000	1.260000	411.00	0.17	0.02
0.39	1.50	1.25	2.75	2.25	1.50	6.25	1.00	7.75	5.25	5.00	2.25	2.00	9.00	7.00	2.50	1.00	-0.223633	0.071289	0.950195	-3.290000	0.070000	0.840000	757.00	0.08	-0.12	0.50	0.00	0.50	0.00	1.50	1.75	1.25	1.75	7.50	3.00	1.00	0.75	3.75	5.00	1.25	0.25	-0.203125	0.043457	0.950195	0.210000	-2.450000	1.190000	393.00	0.18	0.02
0.40	1.50	1.00	2.50	2.25	1.50	6.25	1.00	7.75	5.50	5.00	2.50	2.00	8.75	7.00	2.50	0.75	-0.228516	0.073730	0.948242	-3.080000	-0.070000	0.980000	754.00	0.08	-0.12	0.50	0.00	0.25	0.00	1.25	1.50	1.25	2.00	7.50	2.75	1.00	0.75	3.75	5.00	1.50	0.25	-0.201172	0.041504	0.946777	-0.070000	-2.660000	1.330000	387.00	0.19	0.02
0.41	1.75	1.00	3.00	2.25	1.50	6.25	1.00	7.75	5.25	5.25	2.50	2.00	9.25	7.00	2.25	1.00	-0.220215	0.072754	0.953125	-2.870000	-0.070000	1.050000	767.00	0.08	-0.12	0.25	0.00	0.50	0.00	1.25	1.50	1.25	2.00	7.25	2.75	1.00	0.75	3.50	5.00	1.25	0.50	-0.205078	0.034668	0.950684	-0.280000	-2.870000	1.540000	380.00	0.18	0.02
0.42	1.75	1.25	2.75	2.00	1.75	6.25	1.00	7.75	5.50	5.00	2.50	2.00	9.00	7.00	2.75	1.00	-0.221680	0.071289	0.953613	-2.520000	-0.210000	1.120000	771.00	0.08	-0.12	0.25	0.00	0.75	0.00	1.00	1.50	1.25	1.75	7.25	2.75	1.00	0.50	3.50	5.00	1.25	0.25	-0.204102	0.039062	0.947266	-0.560000	-3.080000	1.890000	370.00	0.18	0.03
0.43	2.00	1.00	2.75	2.25	1.50	6.25	1.00	8.00	5.75	5.00	2.50	2.00	9.00	6.75	2.00	1.00	-0.217285	0.072266	0.955566	-2.310000	-0.280000	1.190000	768.00	0.08	-0.12	0.50	0.00	0.25	0.00	1.25	1.25	1.25	1.75	7.25	2.50	1.00	0.75	3.50	5.00	1.25	0.25	-0.205078	0.041016	0.944824	-0.980000	-3.290000	2.170000	367.00	0.19	0.03
0.44	1.75	1.25	3.00	2.50	1.75	6.75	1.00	8.00	5.75	5.00	2.50	2.00	9.00	7.25	2.25	1.25	-0.217773	0.073730	0.946777	-2.030000	-0.490000	1.190000	793.00	0.08	-0.12	0.00	0.25	0.50	0.00	1.00	1.25	1.00	1.50	7.00	2.50	0.75	0.50	3.50	5.00	1.00	0.25	-0.203613	0.038574	0.946777	-1.330000	-3.640000	2.380000	341.00	0.19	0.03
0.45	2.00	0.75	3.25	2.75	1.75	6.50	1.00	8.00	5.50	5.25	2.50	2.25	9.25	7.25	2.25	1.00	-0.216797	0.070312	0.947754	-2.030000	-0.490000	1.260000	798.00	0.07	-0.12	0.50	0.00	0.25	0.00	1.00	1.25	1.00	1.50	6.75	2.50	1.00	0.50	3.25	5.00	1.25	0.25	-0.210938	0.042969	0.949707	-1.540000	-3.780000	2.590000	341.00	0.19	0.03
0.46	2.00	1.25	3.25	2.25	1.75	6.75	1.00	8.25	5.50	5.25	2.50	2.25	9.25	7.00	2.50	0.75	-0.218262	0.074219	0.947266	-2.240000	-0.630000	1.190000	803.00	0.07	-0.12	0.25	0.00	0.00	0.00	0.75	1.00	1.00	1.50	6.75	2.00	0.75	0.25	3.25	4.50	1.00	0.25	-0.213867	0.040039	0.952148	-1.610000	-2.800000	2.870000	307.00	0.20	0.04
0.47	2.25	1.25	3.25	3.00	1.75	6.75	1.00	8.25	5.75	5.25	2.50	2.00	9.25	7.50	2.50	1.00	-0.218262	0.075195	0.946777	-2.240000	-0.910000	1.120000	824.00	0.07	-0.12	0.00	0.00	0.25	0.00	0.75	1.00	1.00	1.50	6.50	2.00	0.75	0.25	3.00	4.25	0.75	0.25	-0.205078	0.042480	0.952148	-1.540000	-2.170000	2.870000	295.00	0.20	0.04
0.48	2.50	1.50	3.75	2.75	2.00	7.00	1.00	8.25	5.75	5.50	2.50	2.00	9.25	7.50	2.00	1.00	-0.216309	0.071289	0.948730	-2.100000	-1.470000	1.120000	836.00	0.06	-0.12	0.00	0.00	0.00	0.00	0.75	1.00	1.00	1.25	6.00	1.75	0.50	0.25	2.75	4.00	0.50	0.00	-0.204590	0.043457	0.959473	-1.540000	-1.260000	2.800000	264.00	0.20	0.04
0.49	2.50	1.75	3.50	3.25	1.75	7.00	1.25	8.25	5.75	5.75	2.50	2.25	9.25	7.50	2.50	1.00	-0.214844	0.072266	0.943848	-2.170000	-1.820000	0.910000	856.00	0.06	-0.12	0.25	0.00	0.00	0.00	0.75	1.00	0.75	1.25	6.00	1.75	0.25	0.50	2.50	3.75	0.50	0.25	-0.200684	0.046875	0.953125	-1.400000	-0.070000	2.730000	259.00	0.20	0.04
0.50	2.75	1.50	4.00	3.50	2.00	7.50	1.25	8.50	6.00	5.50	2.75	2.00	9.75	7.50	2.75	1.25	-0.214844	0.068848	0.940918	-2.170000	-2.100000	1.120000	891.00	0.06	-0.12	0.50	0.00	0.00	0.00	0.50	0.50	0.75	1.25	5.75	1.75	0.25	0.25	2.50	3.50	0.50	0.00	-0.203125	0.047363	0.958008	-1.540000	1.330000	2.310000	241.00	0.20	0.05
0.51	2.50	1.75	4.00	3.25	2.00	7.50	1.00	8.50	6.25	5.75	2.75	2.25	9.75	7.50	2.75	1.00	-0.210449	0.065918	0.950684	-1.750000	-2.870000	1.260000	892.00	0.06	-0.12	0.00	0.00	0.25	0.00	0.50	0.50	0.75	1.00	5.50	1.25	0.25	0.25	2.25	3.00	0.25	0.00	-0.195312	0.050781	0.954590	-1.960000	3.080000	2.100000	213.00	0.20	0.06
0.52	3.00	1.75	4.50	3.75	2.25	7.75	1.00	8.50	6.00	6.00	3.00	2.25	10.00	7.50	2.50	1.25	-0.210449	0.076172	0.937012	-1.260000	-3.430000	1.470000	921.00	0.05	-0.12	0.25	0.00	0.00	0.00	0.50	0.50	0.50	0.75	5.25	1.50	0.25	0.00	1.75	2.50	0.25	0.25	-0.202148	0.049805	0.958496	-0.980000	5.740000	1.400000	191.00	0.21	0.08
0.53	3.00	2.00	4.50	4.00	2.50	8.25	1.25	8.75	6.00	6.00	2.75	2.50	10.25	7.50	2.75	1.00	-0.219238	0.065430	0.954590	-1.120000	-3.570000	1.610000	950.00	0.05	-0.12	0.50	0.00	0.00	0.00	0.25	0.50	0.50	0.50	5.00	1.00	0.25	0.00	1.50	2.25	0.25	0.00	-0.213867	0.040527	0.979492	-0.140000	8.470000	0.770000	169.00	0.20	0.10
0.54	3.25	2.25	4.75	4.50	2.75	8.50	1.25	9.00	6.25	6.00	3.00	2.50	10.50	7.75	2.75	1.25	-0.210938	0.070312	0.946777	-0.700000	-3.780000	1.890000	991.00	0.04	-0.12	0.00	0.00	0.00	0.00	0.25	0.25	0.50	0.50	4.50	1.00	0.25	0.00	1.25	2.00	0.00	0.00	-0.210938	0.055664	0.965332	0.840000	11.830000	0.140000	144.00	0.22	0.11
0.55	3.50	2.25	4.50	4.50	2.75	8.75	1.25	9.00	6.25	6.00	3.25	2.50	10.75	7.75	3.00	1.00	-0.220703	0.096191	0.899414	-0.210000	-3.640000	2.030000	1001.00	0.04	-0.12	0.25	0.00	0.25	0.00	0.00	0.25	0.50	0.50	3.75	1.00	0.25	0.00	1.50	1.75	0.25	0.00	-0.205566	0.056641	0.971680	1.680000	14.980000	-1.120000	138.00	0.20	0.08
0.56	3.25	2.25	5.00	4.75	3.00	9.00	1.50	9.50	6.25	6.00	3.25	2.75	11.00	7.75	2.75	1.50	-0.208984	0.070312	0.977539	0.210000	-3.430000	1.960000	1034.00	0.04	-0.12	0.00	0.00	0.00	0.00	0.25	0.00	0.25	0.25	3.50	0.75	0.00	0.00	1.00	1.25	0.00	0.00	-0.211426	0.060547	0.967773	2.170000	18.270000	-2.520000	99.00	0.23	0.13
0.57	3.50	2.50	5.25	4.75	3.00	9.25	1.25	9.50	6.25	6.25	3.25	3.00	11.00	8.00	2.75	1.50	-0.216309	0.077637	0.951172	0.420000	-3.290000	2.030000	1051.00	0.04	-0.12	0.00	0.00	0.00	0.00	0.25	0.00	0.25	0.25	2.75	0.50	0.00	0.00	1.25	1.25	0.00	0.00	-0.216797	0.081543	0.970703	4.130000	21.210001	-6.230000	87.00	0.23	0.09
0.58	3.75	2.50	5.25	5.00	3.00	9.50	1.50	9.75	6.50	6.25	3.50	3.25	11.25	7.75	3.00	1.50	-0.203125	0.074219	0.956543	0.420000	-2.940000	1.890000	1083.00	0.04	-0.12	0.00	0.00	0.00	0.00	0.00	0.00	0.25	0.00	2.50	0.50	0.00	0.00	0.75	1.00	0.00	0.00	-0.212891	0.085449	0.975098	6.440000	23.940001	-12.320000	68.00	0.26	0.15
0.59	3.75	2.25	5.25	5.25	3.25	10.00	1.50	10.00	6.50	6.25	3.25	3.25	11.50	7.75	3.00	1.25	-0.213867	0.073730	0.949707	0.420000	-2.520000	1.610000	1095.00	0.04	-0.12	0.25	0.00	0.00	0.00	0.00	0.00	0.25	0.00	1.75	0.00	0.00	0.00	0.75	0.75	0.00	0.00	-0.199707	0.106445	0.981934	10.570000	25.900000	-21.000000	50.00	0.21	0.13
0.60	3.75	2.50	5.50	5.25	3.25	10.00	1.50	10.00	6.75	6.50	3.50	3.25	11.50	8.00	2.75	1.75	-0.205566	0.076172	0.951172	0.420000	-2.520000	1.470000	1114.00	0.04	-0.12	0.00	0.00	0.00	0.00	0.00	0.00	0.25	0.00	1.50	0.25	0.00	0.00	0.75	0.50	0.00	0.00	-0.197754	0.134766	0.965820	20.370001	27.230000	-42.980000	44.00	0.00	0.00
0.61	4.00	2.75	5.25	5.25	3.25	10.00	1.50	10.00	6.50	6.50	3.50	3.25	11.75	8.00	2.75	1.25	-0.211426	0.082520	0.952637	0.070000	-1.960000	1.400000	1112.00	0.03	-0.12	0.25	0.00	0.00	0.00	0.00	0.00	0.00	0.00	1.00	0.25	0.00	0.00	0.25	0.50	0.00	0.00	-0.197754	0.134766	0.965820	20.370001	27.230000	-42.980000	29.00	0.00	0.00
0.62	4.25	2.75	5.50	5.25	3.50	10.25	1.75	10.25	6.50	6.50	3.75	3.25	12.00	8.00	3.25	1.75	-0.210938	0.075195	0.958008	-0.210000	-1.470000	1.330000	1149.00	0.04	-0.12	0.50	0.00	0.00	0.00	0.00	0.00	0.00	0.00	0.75	0.00	0.00	0.00	0.00	0.25	0.00	0.00	-0.174805	0.138184	1.003418	31.290001	23.590000	-64.680000	20.00	0.00	0.00
0.63	4.25	2.75	5.75	5.50	3.50	10.50	1.50	10.25	6.50	6.50	3.75	3.50	12.00	8.00	3.25	1.50	-0.206543	0.073242	0.946777	-0.420000	-1.120000	1.330000	1156.00	0.03	-0.12	0.25	0.00	0.00	0.00	0.00	0.00	0.00	0.00	0.50	0.00	0.00	0.00	0.00	0.25	0.00	0.00	-0.319824	0.167480	1.080078	40.110001	17.080000	-72.029999	13.00	0.00	0.00
0.64	4.25	3.25	5.25	5.50	3.50	10.50	1.75	10.75	6.75	6.75	3.75	3.75	12.00	8.00	3.00	1.75	-0.207031	0.075195	0.951660	-0.350000	-0.910000	1.330000	1177.00	0.03	-0.13	0.00	0.00	0.00	0.00	0.00	0.00	0.00	0.00	0.00	0.00	0.00	0.00	0.00	0.25	0.00	0.00	-0.293457	0.222656	1.343262	44.869999	5.880000	-75.250000	3.00	0.00	0.00
0.65	4.50	3.25	5.75	5.50	3.50	10.75	1.75	10.50	6.75	7.00	3.75	3.75	12.25	8.00	3.25	2.00	-0.209961	0.081055	0.956543	-0.350000	-0.560000	1.120000	1196.00	0.03	-0.12	0.25	0.00	0.00	0.00	0.00	0.00	0.00	0.00	0.00	0.00	0.00	0.00	0.00	0.00	0.00	0.00	-0.248047	0.250000	1.542969	32.619999	-21.840000	-70.070000	3.00	0.00	0.00
0.66	4.00	3.00	5.50	5.50	3.50	10.75	1.75	10.75	6.50	6.75	4.00	3.75	12.50	8.25	3.50	2.00	-0.211914	0.074707	0.956055	-0.490000	-0.070000	0.980000	1193.00	0.04	-0.13	0.25	0.00	0.00	0.00	0.00	0.00	0.00	0.00	0.00	0.00	0.00	0.00	0.25	0.00	0.00	0.00	-0.228027	0.240234	1.221191	10.010000	-49.560001	-58.939999	6.00	0.00	0.00
0.67	4.25	3.00	5.75	5.75	3.75	10.75	1.75	10.75	6.75	6.75	4.00	4.00	12.50	8.25	3.75	2.00	-0.203613	0.082520	0.958984	-0.630000	0.070000	1.120000	1216.00	0.04	-0.13	0.00	0.00	0.00	0.00	0.00	0.00	0.00	0.00	0.00	0.00	0.00	0.00	0.00	0.00	0.00	0.00	-0.251953	0.249512	0.820312	-2.800000	-61.040001	-48.020000	0.00	0.00	0.00
0.68	4.25	3.25	5.75	5.75	3.50	11.00	1.75	11.00	6.75	6.75	4.50	3.75	12.50	8.25	3.00	2.00	-0.209961	0.080566	0.954590	-0.910000	0.210000	1.050000	1217.00	0.03	-0.13	1.00	0.00	0.00	0.00	0.00	0.00	0.00	0.00	0.00	0.00	0.00	0.00	0.00	0.00	0.00	0.00	-0.260742	0.235352	0.605957	1.400000	-55.860001	-40.180000	12.00	0.00	0.00
0.69	4.50	3.25	5.75	5.75	3.75	11.00	1.75	10.75	6.75	7.00	4.50	4.00	12.75	8.25	3.25	2.00	-0.205566	0.083984	0.948730	-1.120000	0.420000	0.980000	1231.00	0.03	-0.13	0.00	0.00	0.00	0.00	0.00	0.00	0.00	0.00	0.00	0.00	0.00	0.00	0.00	0.00	0.00	0.00	-0.256836	0.204590	0.653320	12.180000	-45.290001	-35.000000	0.00	0.00	0.00
0.70	4.50	3.50	5.75	6.00	3.75	11.00	1.75	11.25	6.75	7.00	4.50	4.00	12.50	8.25	3.75	1.75	-0.203613	0.075684	0.957031	-1.120000	0.560000	1.050000	1248.00	0.03	-0.13	0.25	0.25	0.00	0.00	0.00	0.00	0.00	0.00	0.00	0.00	0.00	0.00	0.00	0.00	0.00	0.00	-0.229980	0.186035	0.773438	17.290001	-38.430000	-29.960001	6.00	0.00	0.00
0.71	4.25	3.25	5.75	6.00	3.75	11.00	1.75	11.00	7.00	7.00	4.50	4.00	12.75	8.00	3.50	2.00	-0.206055	0.080566	0.958496	-0.980000	0.700000	1.120000	1240.00	0.03	-0.13	0.00	0.00	0.00	0.00	0.00	0.00	0.00	0.00	0.00	0.00	0.00	0.00	0.00	0.00	0.00	0.00	-0.202637	0.173828	0.849121	14.700000	-37.450001	-23.660000	0.00	0.00	0.00
0.72	4.50	3.50	5.75	5.75	3.75	11.00	1.75	11.00	6.75	7.25	4.50	4.00	12.75	8.25	3.50	2.00	-0.206055	0.083984	0.954102	-1.400000	1.260000	1.050000	1244.00	0.03	-0.13	0.00	0.00	0.25	0.00	0.00	0.00	0.00	0.00	0.00	0.00	0.00	0.00	0.00	0.25	0.00	0.00	-0.174805	0.172852	0.832520	11.060000	-39.480000	-16.309999	6.00	0.00	0.00
0.73	4.75	3.25	6.00	5.75	3.75	11.25	1.75	11.00	6.50	7.00	4.50	4.00	12.75	8.25	3.25	2.00	-0.203613	0.082520	0.956055	-1.540000	1.540000	0.980000	1241.00	0.03	-0.13	0.25	0.25	0.00	0.00	0.00	0.00	0.00	0.00	0.00	0.00	0.00	0.00	0.00	0.00	0.00	0.00	-0.159668	0.160645	0.786621	10.710000	-41.369999	-8.750000	6.00	0.00	0.00
0.74	4.50	3.50	5.75	6.00	3.75	11.00	1.75	11.00	6.75	6.75	4.50	4.00	12.50	8.25	2.75	2.00	-0.204102	0.081543	0.949707	-1.890000	1.820000	0.910000	1229.00	0.03	-0.13	0.00	0.00	0.00	0.00	0.00	0.00	0.00	0.00	0.00	0.00	0.00	0.00	0.00	0.00	0.00	0.00	-0.149902	0.142578	0.782715	12.670000	-41.580002	-1.610000	0.00	0.00	0.00
0.75	4.50	3.25	5.75	5.75	3.75	11.00	1.75	11.00	6.75	7.00	4.50	4.00	12.75	8.25	3.25	2.00	-0.205566	0.078125	0.955566	-2.240000	2.100000	0.840000	1235.00	0.03	-0.13	0.75	0.00	0.00	0.00	0.00	0.00	0.00	0.00	0.00	0.00	0.00	0.00	0.00	0.00	0.00	0.00	-0.142578	0.074219	0.769531	12.600000	-42.490002	11.970000	9.00	0.00	0.00
0.76	4.50	3.50	6.00	6.00	3.75	11.25	1.75	10.75	6.50	6.75	4.25	3.75	12.50	8.00	3.00	2.00	-0.208008	0.081055	0.956055	-2.520000	2.240000	0.700000	1222.00	0.03	-0.13	0.25	0.00	0.00	0.00	0.00	0.00	0.00	0.00	0.00	0.00	0.00	0.00	0.00	0.00	0.00	0.00	-0.147461	0.064453	0.753906	11.130000	-42.349998	17.500000	3.00	0.00	0.00
0.77	4.50	3.75	5.75	6.00	3.75	11.25	1.75	11.00	6.75	6.75	4.00	3.75	12.50	8.00	3.25	1.75	-0.208008	0.081055	0.954590	-2.590000	1.960000	0.630000	1228.00	0.03	-0.13	0.00	0.00	0.25	0.00	0.00	0.00	0.00	0.00	0.00	0.00	0.00	0.00	0.00	0.00	0.00	0.00	-0.145996	0.043945	0.751465	10.430000	-41.369999	22.120001	3.00	0.00	0.00
0.78	5.00	3.75	6.25	6.00	3.75	11.00	1.75	10.75	6.50	6.75	4.25	3.75	12.50	8.25	3.50	1.75	-0.206543	0.080566	0.954590	-2.800000	2.100000	0.630000	1238.00	0.03	-0.12	0.00	0.00	0.25	0.00	0.00	0.00	0.00	0.00	0.00	0.00	0.00	0.00	0.00	0.00	0.00	0.00	-0.136719	0.035645	0.739258	9.310000	-40.040001	25.549999	3.00	0.00	0.00
0.79	4.75	3.75	6.25	6.00	3.75	11.25	1.75	10.75	6.50	6.75	4.25	4.00	12.50	8.00	3.50	2.00	-0.207520	0.082031	0.950684	-2.800000	1.960000	0.700000	1240.00	0.03	-0.13	0.25	0.00	0.00	0.00	0.00	0.00	0.00	0.00	0.00	0.00	0.00	0.00	0.00	0.00	0.00	0.00	-0.122559	0.034180	0.720703	7.420000	-37.939999	28.000000	3.00	0.00	0.00
0.80	4.75	3.75	6.00	6.25	3.75	11.25	1.75	10.75	6.50	6.50	4.25	3.75	12.25	8.00	3.00	1.75	-0.209473	0.082520	0.955566	-2.870000	1.750000	0.560000	1224.00	0.02	-0.13	0.00	0.00	0.00	0.00	0.00	0.00	0.00	0.00	0.00	0.00	0.00	0.00	0.00	0.00	0.00	0.00	-0.104980	0.033691	0.664062	5.740000	-34.090000	29.469999	0.00	0.00	0.00
0.81	5.25	4.00	6.25	6.00	3.75	11.25	1.75	10.75	6.75	6.50	4.25	3.50	12.00	8.00	3.00	1.75	-0.204590	0.077148	0.950195	-2.870000	1.470000	0.630000	1231.00	0.02	-0.12	0.50	0.00	0.00	0.00	0.00	0.00	0.00	0.00	0.00	0.00	0.00	0.00	0.00	0.00	0.00	0.00	-0.088379	0.054199	0.649902	5.460000	-28.420000	30.240000	6.00	0.00	0.00
0.82	5.25	4.00	6.50	6.25	3.75	11.25	1.75	10.75	6.50	6.50	4.00	3.50	12.00	8.00	3.25	1.75	-0.205078	0.077148	0.954590	-2.870000	1.190000	0.630000	1234.00	0.02	-0.12	0.50	0.00	0.00	0.00	0.00	0.00	0.00	0.00	0.00	0.00	0.00	0.00	0.00	0.00	0.00	0.00	-0.091309	0.077148	0.644531	6.930000	-21.840000	30.870001	6.00	0.00	0.00
0.83	5.00	3.75	6.50	6.25	3.75	11.25	1.75	10.75	6.50	6.50	4.00	3.50	12.00	8.00	3.00	1.50	-0.206543	0.076172	0.950684	-2.870000	0.910000	0.560000	1223.00	0.02	-0.12	0.00	0.00	0.00	0.00	0.00	0.00	0.00	0.00	0.00	0.00	0.00	0.00	0.00	0.00	0.00	0.00	-0.093750	0.102051	0.545898	11.200000	-14.280000	31.500000	0.00	0.00	0.00
0.84	5.25	4.00	6.50	6.25	3.75	11.25	1.50	10.75	6.25	6.50	3.75	3.50	12.00	7.75	3.00	1.50	-0.211426	0.081543	0.949707	-2.800000	0.560000	0.630000	1215.00	0.01	-0.13	0.25	0.00	0.25	0.00	0.00	0.00	0.00	0.00	0.00	0.00	0.00	0.00	0.00	0.00	0.00	0.00	-0.113281	0.124512	0.385742	17.850000	-1.120000	31.010000	6.00	0.00	0.00
0.85	5.50	4.00	6.75	6.25	3.75	11.25	1.50	10.50	6.50	6.25	4.00	3.50	11.75	7.75	2.75	1.75	-0.201172	0.083496	0.951660	-2.800000	0.210000	0.560000	1217.00	0.01	-0.12	0.25	0.00	0.00	0.00	0.00	0.00	0.00	0.00	0.00	0.00	0.00	0.00	0.00	0.00	0.00	0.00	-0.142090	0.110352	0.270996	22.610001	21.420000	29.680000	3.00	0.00	0.00
0.86	5.50	4.50	7.00	6.75	3.75	11.25	1.50	10.75	6.50	6.25	3.75	3.25	11.75	7.75	2.75	1.75	-0.201172	0.083496	0.953125	-2.800000	0.210000	0.560000	1230.00	0.01	-0.12	0.50	0.00	0.00	0.00	0.00	0.00	0.00	0.00	0.00	0.00	0.00	0.00	0.00	0.00	0.00	0.00	-0.341309	-0.397949	0.149902	-80.919998	85.190002	33.810001	6.00	0.00	0.00
0.87	5.75	4.50	7.00	7.00	4.00	11.25	1.50	10.50	6.25	6.25	3.50	3.00	11.50	7.75	3.00	1.75	-0.200684	0.071777	0.951172	-2.800000	0.210000	0.630000	1226.00	0.00	-0.12	1.25	0.25	0.75	0.00	0.25	0.00	0.25	0.25	0.25	0.00	0.00	0.00	0.00	0.50	0.00	0.00	-0.182617	-0.802246	2.015625	-208.389999	110.809998	-11.550000	50.00	0.00	0.00
0.88	5.50	4.25	7.00	7.00	4.00	11.25	1.50	10.50	6.25	6.25	3.75	3.25	11.50	8.00	2.75	1.75	-0.205566	0.086914	0.949219	-3.010000	0.350000	0.700000	1226.00	0.01	-0.12	2.25	0.50	1.00	0.50	0.50	0.00	0.25	0.00	0.75	0.00	0.00	0.00	0.25	0.50	0.00	0.00	-0.993164	-0.842285	1.894043	-120.330002	18.830000	-30.799999	84.00	-0.17	0.07
0.89	5.75	4.75	7.25	7.00	4.00	11.50	1.50	10.50	6.25	6.25	3.75	3.25	11.50	7.75	2.75	1.75	-0.206543	0.074707	0.952148	-3.150000	0.490000	0.560000	1238.00	0.00	-0.12	3.00	0.50	1.00	0.50	1.00	0.25	0.25	0.25	1.50	0.00	0.00	0.00	0.25	1.00	0.00	0.00	-0.209961	-0.187012	0.895996	-33.320000	-14.560000	-12.040000	124.00	-0.11	0.07
0.90	6.00	4.75	7.50	7.50	4.00	11.50	1.50	10.50	6.25	6.00	3.75	3.00	11.50	7.75	3.25	1.75	-0.203125	0.077148	0.955078	-3.220000	0.840000	0.560000	1251.00	-0.00	-0.12	3.25	0.75	1.75	0.75	1.00	0.50	0.50	0.25	2.00	0.25	0.00	0.00	0.25	1.00	0.00	0.00	-0.112305	-0.086914	0.977051	-7.490000	-21.910000	6.370000	162.00	-0.11	0.07
0.91	6.00	5.00	7.50	7.50	4.00	11.50	1.50	10.50	6.25	6.00	3.50	3.00	11.25	7.75	3.25	1.50	-0.205566	0.078613	0.960449	-3.360000	2.100000	0.560000	1247.00	-0.00	-0.12	3.25	0.75	1.50	0.75	1.00	0.25	0.50	0.25	2.50	0.25	0.00	0.00	0.50	1.00	0.00	0.00	-0.167480	0.058594	0.969238	-9.170000	-15.190001	5.600000	166.00	-0.08	0.08
0.92	6.00	5.25	7.50	7.25	4.00	11.25	1.50	10.25	6.00	6.00	3.50	3.00	11.25	7.75	2.75	1.50	-0.205566	0.080078	0.965332	-3.570000	3.850000	0.490000	1228.00	-0.01	-0.12	2.75	0.75	1.50	0.50	1.00	0.50	0.50	0.50	2.75	0.00	0.00	0.00	0.75	1.25	0.00	0.00	-0.185059	0.037598	0.963379	-9.030000	-11.340000	2.240000	170.00	-0.05	0.06
0.93	5.75	4.50	7.50	7.00	3.75	11.25	1.50	10.25	6.00	5.75	3.50	3.00	11.00	7.75	2.75	1.50	-0.208984	0.072754	0.961426	-3.780000	5.460000	0.280000	1205.00	-0.00	-0.12	2.75	0.75	1.25	0.50	1.25	0.50	0.50	0.75	3.00	0.25	0.00	0.00	1.00	1.50	0.00	0.00	-0.213867	0.055664	0.968262	-7.770000	-9.380000	1.330000	187.00	-0.03	0.05
0.94	5.75	4.50	7.00	7.00	3.75	11.00	1.50	9.75	6.00	6.00	3.25	2.75	10.75	7.75	2.75	1.50	-0.208984	0.077148	0.957031	-3.990000	6.720000	0.070000	1180.00	-0.00	-0.12	2.50	0.75	1.25	0.50	1.25	0.50	0.75	0.50	3.75	0.25	0.00	0.00	1.00	2.00	0.25	0.00	-0.218262	0.016113	0.959473	-6.230000	-7.700000	1.400000	203.00	0.01	0.08
0.95	5.50	4.50	7.25	7.00	3.75	10.75	1.50	9.75	6.00	6.00	3.00	2.50	10.50	7.50	2.50	1.50	-0.208008	0.076660	0.959961	-4.060000	7.980000	-0.140000	1162.00	-0.00	-0.12	1.50	0.50	1.00	0.50	1.00	0.50	0.75	0.75	3.50	0.25	0.00	0.00	1.00	2.00	0.00	0.00	-0.229004	0.000977	0.957031	-3.430000	-8.050000	3.010000	179.00	0.04	0.07
0.96	5.25	4.50	7.00	6.75	3.50	10.50	1.25	9.50	5.75	5.75	3.00	2.50	10.25	7.50	2.75	1.00	-0.206543	0.078613	0.959961	-4.060000	8.610000	-0.210000	1127.00	-0.00	-0.12	2.50	0.25	1.25	0.25	1.00	0.75	0.75	0.75	3.75	0.25	0.00	0.00	1.25	2.00	0.25	0.00	-0.210938	0.033203	0.946777	-0.630000	-9.100000	4.620000	202.00	0.03	0.07
0.97	5.25	3.75	6.75	6.50	3.50	10.25	1.50	9.50	5.75	5.75	2.75	2.25	10.00	7.50	2.50	1.25	-0.214355	0.074707	0.955566	-3.990000	9.450000	-0.350000	1103.00	0.00	-0.12	2.25	0.25	1.25	0.50	1.00	0.75	0.75	0.75	4.00	0.50	0.00	0.00	1.25	1.75	0.25	0.00	-0.201172	0.047852	0.938965	0.140000	-10.220000	4.970000	206.00	0.04	0.06
0.98	5.25	4.00	6.50	6.25	3.25	10.00	1.25	9.25	5.75	5.50	2.50	2.25	10.00	7.50	2.50	1.25	-0.201660	0.058105	0.929688	-3.850000	10.500000	-0.490000	1078.00	0.00	-0.12	1.50	0.25	1.25	0.50	1.00	1.00	0.75	1.00	4.00	0.50	0.00	0.00	1.50	2.00	0.00	0.00	-0.199219	0.048340	0.943848	-0.140000	-11.200000	4.690000	207.00	0.05	0.04
0.99	5.00	3.50	6.50	6.25	3.25	9.75	1.25	9.00	5.50	5.50	2.25	2.00	9.50	7.00	2.50	1.00	-0.209961	0.071777	0.952148	-3.570000	10.220000	-0.490000	1039.00	-0.00	-0.12	1.75	0.50	1.25	0.50	1.00	1.00	0.75	1.25	4.25	0.25	0.25	0.00	1.50	2.25	0.00	0.00	-0.203125	0.047363	0.949219	-0.770000	-12.040000	3.990000	224.00	0.05	0.04
1.00	4.75	3.25	6.25	6.00	3.00	9.50	1.25	8.75	5.50	5.25	2.50	2.00	9.50	7.00	2.50	1.25	-0.208984	0.069824	0.937988	-3.220000	9.170000	-0.560000	1017.00	0.00	-0.12	2.50	0.50	1.25	0.50	1.25	1.50	0.75	1.25	4.25	0.50	0.00	0.00	1.50	2.25	0.00	0.00	-0.202148	0.036133	0.946289	-2.030000	-13.440001	3.710000	243.00	0.02	0.03
1.01	4.75	3.00	6.25	6.00	3.00	9.25	1.25	8.75	5.50	5.25	2.50	1.75	9.25	6.75	2.25	0.75	-0.213867	0.069824	0.947754	-3.080000	7.840000	-0.560000	997.00	0.00	-0.12	2.50	0.50	1.00	0.75	1.25	1.50	0.75	1.50	4.25	0.75	0.00	0.00	1.75	2.25	0.25	0.00	-0.202148	0.036133	0.946289	-2.030000	-13.440001	3.710000	256.00	0.03	0.02
1.02	4.75	3.00	6.00	5.75	2.75	9.00	1.25	8.50	5.50	5.50	2.25	1.75	9.00	7.00	2.25	1.00	-0.215820	0.072266	0.937988	-2.520000	5.670000	-0.280000	980.00	0.01	-0.11	2.50	0.50	1.25	0.75	1.25	1.50	0.75	1.25	4.25	0.50	0.00	0.00	2.00	2.50	0.25	0.00	-0.197754	0.039062	0.942383	-2.380000	-13.930000	3.850000	257.00	0.03	0.02
1.03	4.25	2.50	6.00	5.75	3.00	9.00	1.00	8.50	5.25	5.00	2.25	1.50	9.00	6.75	2.25	1.00	-0.215332	0.075195	0.947266	-2.240000	4.830000	-0.070000	952.00	0.01	-0.12	3.00	0.75	1.50	1.00	1.50	1.75	0.75	1.75	4.25	0.50	0.00	0.00	2.00	2.25	0.25	0.00	-0.191406	0.043945	0.945801	-2.660000	-14.140000	3.570000	286.00	-0.00	0.00
1.04	4.25	2.75	6.00	5.50	2.75	9.00	1.00	8.25	5.25	5.25	2.25	1.75	8.75	7.00	2.25	1.25	-0.217773	0.071777	0.945801	-2.030000	3.990000	0.280000	951.00	0.01	-0.12	3.25	0.75	1.75	0.75	1.50	2.00	0.75	1.75	4.25	0.50	0.00	0.00	2.00	2.50	0.25	0.00	-0.187500	0.043945	0.955078	-3.150000	-14.070000	3.220000	294.00	-0.00	0.00
1.05	3.75	2.50	5.75	5.50	2.75	8.75	1.00	8.00	5.25	5.25	2.25	1.50	8.75	6.75	2.25	0.50	-0.224609	0.072754	0.949219	-1.750000	3.360000	0.420000	921.00	0.01	-0.11	3.50	0.75	1.75	0.75	1.75	2.00	0.75	1.75	4.50	0.75	0.00	0.00	2.00	2.75	0.00	0.00	-0.192871	0.036133	0.961914	-3.500000	-13.440001	3.080000	307.00	-0.00	0.01
1.06	3.75	2.50	5.75	5.50	2.75	8.75	1.00	8.25	5.00	5.00	2.25	1.50	8.75	6.50	2.00	0.75	-0.215820	0.073242	0.944336	-1.750000	3.010000	0.420000	914.00	0.01	-0.12	3.75	0.75	2.00	1.25	1.75	2.25	1.00	1.75	4.75	0.50	0.25	0.25	2.25	3.00	0.25	0.00	-0.187988	0.039551	0.956543	-3.290000	-11.970000	3.080000	343.00	-0.00	0.00
1.07	4.00	2.50	5.50	5.50	2.75	8.75	1.00	8.00	5.00	5.00	2.00	1.50	8.50	6.50	2.25	1.00	-0.218750	0.075195	0.956543	-1.820000	2.870000	0.420000	908.00	0.01	-0.12	3.75	1.00	2.00	1.50	2.00	2.50	1.00	2.00	5.00	0.75	0.25	0.00	2.25	2.75	0.25	0.00	-0.189941	0.040039	0.953613	-3.150000	-11.270000	3.220000	362.00	-0.01	-0.00
1.08	3.75	2.50	5.75	5.25	2.50	8.50	1.00	8.00	5.00	4.75	1.75	1.50	8.50	6.50	2.00	1.00	-0.215332	0.077148	0.947754	-1.960000	2.590000	0.350000	889.00	0.01	-0.12	4.50	1.00	2.00	1.50	2.00	2.50	1.00	2.25	4.75	0.75	0.25	0.00	2.25	2.75	0.25	0.00	-0.189453	0.043457	0.960449	-2.940000	-10.430000	3.360000	372.00	-0.02	-0.01
1.09	4.00	2.75	5.75	5.25	2.50	8.50	1.00	7.75	5.00	4.75	2.00	1.50	8.25	6.25	1.75	1.00	-0.216309	0.076660	0.953125	-1.960000	2.520000	0.350000	886.00	0.00	-0.12	4.25	1.00	2.25	1.50	2.25	2.75	1.00	2.25	4.75	0.50	0.00	0.25	2.50	3.00	0.25	0.00	-0.186523	0.041992	0.952148	-2.870000	-9.660000	3.290000	380.00	-0.02	-0.01
1.10	3.50	2.25	5.75	5.25	2.50	8.50	1.00	8.00	5.00	4.75	2.00	1.50	8.25	6.25	2.00	0.75	-0.225098	0.076172	0.951660	-1.960000	2.380000	0.490000	880.00	0.01	-0.12	4.75	1.25	2.75	1.75	2.25	2.75	1.00	2.25	5.00	0.75	0.25	0.00	2.50	3.00	0.00	0.00	-0.184082	0.039551	0.952637	-2.870000	-8.890000	3.360000	403.00	-0.04	-0.01
1.11	3.50	2.25	5.50	5.25	2.50	8.50	1.00	7.75	5.00	4.50	2.00	1.25	8.25	6.00	1.25	0.75	-0.225586	0.073242	0.952148	-2.100000	2.940000	0.420000	854.00	0.00	-0.12	4.75	1.25	2.25	1.75	2.25	3.00	1.00	2.25	5.00	0.75	0.25	0.00	2.50	3.00	0.00	0.00	-0.191895	0.038086	0.956543	-2.590000	-8.470000	3.500000	400.00	-0.03	-0.01
1.12	3.75	2.00	5.50	5.25	2.50	8.25	1.00	7.75	4.75	4.50	2.00	1.25	8.25	6.00	1.75	0.50	-0.225586	0.070801	0.955078	-2.030000	3.080000	0.490000	852.00	0.00	-0.12	5.00	1.25	2.75	1.75	2.25	3.00	1.00	2.25	5.00	0.75	0.25	0.00	2.25	3.00	0.25	0.00	-0.184082	0.032715	0.946289	-2.520000	-7.840000	3.710000	410.00	-0.04	-0.00
1.13	3.75	2.50	5.50	5.25	2.25	8.25	0.75	7.50	4.75	4.25	1.75	1.25	8.00	6.00	2.00	0.50	-0.219238	0.072754	0.949219	-1.750000	3.220000	0.700000	839.00	0.00	-0.12	5.00	1.00	2.50	1.75	2.25	3.00	1.00	2.50	5.00	0.75	0.25	0.00	2.50	3.00	0.25	0.00	-0.187988	0.036621	0.951660	-2.380000	-7.490000	3.640000	411.00	-0.03	-0.01
1.14	3.75	2.50	5.50	5.25	2.25	8.25	0.75	7.50	4.50	4.00	1.75	1.25	7.75	5.75	1.75	0.50	-0.224609	0.070801	0.946777	-1.540000	3.500000	0.700000	824.00	-0.01	-0.12	5.00	1.25	2.50	2.00	2.25	3.25	1.00	2.50	4.75	0.75	0.25	0.25	2.50	3.25	0.00	0.00	-0.191895	0.037598	0.962891	-2.170000	-7.280000	3.570000	419.00	-0.04	-0.02
1.15	3.25	2.50	5.50	5.00	2.25	8.00	0.75	7.50	4.50	4.00	1.50	1.00	7.75	5.75	2.00	0.50	-0.226562	0.071289	0.952148	-1.400000	3.780000	0.910000	808.00	-0.00	-0.12	5.00	1.25	2.75	2.00	2.50	3.25	1.00	2.50	5.00	0.75	0.00	0.25	2.50	3.00	0.25	0.00	-0.185059	0.040039	0.950195	-2.170000	-7.140000	3.640000	427.00	-0.04	-0.02
1.16	3.50	2.25	5.50	5.25	2.25	8.00	0.75	7.25	4.25	3.75	1.75	1.00	7.50	5.75	1.75	0.75	-0.227051	0.075684	0.954590	-0.910000	4.130000	0.980000	799.00	-0.00	-0.12	5.25	1.25	2.75	2.00	2.25	3.25	1.00	2.50	5.00	0.75	0.00	0.00	2.50	2.75	0.00	0.00	-0.185547	0.037109	0.947754	-2.100000	-7.140000	3.640000	418.00	-0.05	-0.01
1.17	4.50	2.25	5.50	5.25	2.25	8.00	0.75	7.00	4.00	3.50	1.50	1.00	7.50	5.50	1.50	0.25	-0.221680	0.077148	0.951660	-0.770000	3.920000	1.120000	788.00	-0.02	-0.12	5.00	1.25	3.00	2.00	2.25	3.25	1.00	2.50	5.00	0.75	0.25	0.25	2.50	2.75	0.25	0.00	-0.191895	0.041504	0.949219	-2.240000	-7.070000	3.640000	428.00	-0.04	-0.02
1.18	3.75	2.50	5.50	5.25	2.25	7.75	0.75	6.75	3.75	3.25	1.50	0.75	7.25	5.25	1.50	0.50	-0.224121	0.075195	0.951172	-0.700000	3.430000	0.840000	760.00	-0.02	-0.12	5.00	1.25	3.00	2.00	2.25	3.50	1.00	2.50	5.25	0.75	0.25	0.00	2.50	2.75	0.50	0.00	-0.185059	0.043457	0.949219	-2.310000	-7.280000	3.570000	435.00	-0.04	-0.02
1.19	3.50	2.25	5.25	5.50	2.00	8.00	0.75	6.75	3.50	3.25	1.25	0.75	7.00	5.25	1.50	0.50	-0.218262	0.074219	0.944336	-0.560000	3.010000	0.840000	744.00	-0.02	-0.13	5.00	1.25	3.00	2.00	2.50	3.50	1.00	2.75	5.00	0.75	0.25	0.25	2.50	3.25	0.25	0.00	-0.187500	0.038574	0.951172	-2.450000	-7.490000	3.430000	444.00	-0.04	-0.02
1.20	3.75	2.75	5.50	5.25	2.00	8.00	0.75	6.75	3.50	3.25	1.25	0.75	6.75	5.00	1.50	0.25	-0.215332	0.068848	0.941895	-0.420000	2.520000	0.840000	746.00	-0.03	-0.12	5.25	1.25	3.25	2.00	2.50	3.50	1.00	2.50	5.25	0.75	0.00	0.25	2.75	2.50	0.25	0.00	-0.184082	0.037598	0.954102	-2.730000	-7.770000	3.360000	442.00	-0.05	-0.02
1.21	4.00	2.25	5.50	5.25	2.00	7.75	0.50	6.50	3.25	2.75	1.00	0.75	6.50	5.00	1.50	0.50	-0.219727	0.076660	0.951660	-0.490000	1.820000	0.910000	718.00	-0.03	-0.13	5.25	1.50	3.25	2.00	2.50	3.75	1.00	2.50	5.00	0.75	0.25	0.00	2.75	3.00	0.50	0.00	-0.186035	0.041504	0.953613	-2.800000	-7.770000	3.360000	452.00	-0.04	-0.02
1.22	4.00	2.50	5.50	5.50	2.00	7.75	0.75	6.50	3.00	2.50	1.00	0.75	6.50	4.75	1.25	0.50	-0.221191	0.075684	0.945312	-0.350000	1.610000	0.910000	715.00	-0.04	-0.13	5.50	1.25	3.25	2.00	2.25	3.50	1.00	2.50	5.00	0.75	0.25	0.00	2.50	3.00	0.25	0.00	-0.186523	0.037598	0.956543	-2.800000	-7.770000	3.290000	440.00	-0.05	-0.01
1.23	4.00	2.50	5.50	5.50	1.75	7.75	0.75	6.50	3.00	2.50	1.00	0.50	6.25	4.50	1.00	0.50	-0.220703	0.074707	0.953125	-0.280000	1.610000	0.910000	701.00	-0.04	-0.13	5.25	1.25	3.50	2.00	2.50	3.75	1.00	2.75	5.00	0.75	0.25	0.00	2.75	2.75	0.25	0.00	-0.185547	0.037598	0.949707	-2.660000	-7.560000	3.220000	451.00	-0.05	-0.02
1.24	4.25	2.75	5.75	5.50	1.75	7.75	0.75	6.50	2.50	2.50	0.75	0.50	6.25	4.50	1.00	0.25	-0.222168	0.077148	0.942871	-0.350000	1.820000	0.840000	697.00	-0.05	-0.13	5.50	1.50	3.50	2.25	2.50	3.75	1.00	2.75	5.00	0.75	0.25	0.00	2.50	2.75	0.00	0.00	-0.181152	0.036621	0.957520	-2.590000	-7.420000	3.360000	455.00	-0.06	-0.02
1.25	4.25	3.00	5.75	5.50	1.75	7.75	0.50	6.50	2.75	2.50	1.00	0.75	6.25	4.75	1.00	0.25	-0.224609	0.078613	0.946777	-0.280000	1.960000	0.910000	708.00	-0.05	-0.13	5.50	1.50	3.50	2.25	2.75	3.75	1.00	2.75	5.00	0.75	0.25	0.25	2.75	2.75	0.25	0.00	-0.182129	0.037109	0.956543	-2.520000	-7.280000	3.430000	467.00	-0.05	-0.03
1.26	4.25	2.25	5.50	5.25	1.75	7.75	0.50	6.25	2.50	2.25	1.00	0.50	6.25	4.25	1.25	0.25	-0.229004	0.070312	0.952148	-0.210000	2.100000	1.050000	677.00	-0.05	-0.13	5.50	1.50	3.50	2.50	2.50	4.00	1.00	2.50	5.00	0.75	0.25	0.00	2.75	3.00	0.25	0.00	-0.182617	0.034180	0.956543	-2.450000	-7.140000	3.500000	465.00	-0.06	-0.02
1.27	4.75	2.75	5.50	5.50	1.75	7.75	0.50	6.25	2.50	2.25	0.75	0.50	6.25	4.25	1.25	0.25	-0.224609	0.081543	0.955078	-0.490000	2.170000	0.840000	689.00	-0.06	-0.13	5.50	1.50	3.25	2.25	2.50	3.75	1.00	2.50	5.00	0.75	0.25	0.00	2.50	3.00	0.25	0.00	-0.192871	0.042480	0.952637	-2.310000	-6.930000	3.430000	453.00	-0.05	-0.02
1.28	4.75	2.75	5.50	5.50	1.75	7.75	0.50	6.25	2.50	2.00	0.75	0.75	6.00	3.75	1.00	0.25	-0.225098	0.077148	0.951660	-0.840000	2.170000	0.910000	678.00	-0.06	-0.14	5.50	1.25	3.50	2.25	2.75	4.00	1.00	2.75	5.25	0.75	0.25	0.25	2.50	2.75	0.25	0.00	-0.185547	0.034180	0.959961	-2.240000	-7.000000	3.430000	469.00	-0.05	-0.02
1.29	4.50	2.75	5.50	5.25	1.75	7.50	0.50	6.00	2.00	2.00	0.75	0.50	6.00	4.00	1.25	0.25	-0.224121	0.082520	0.948730	-1.330000	2.100000	0.770000	658.00	-0.06	-0.14	5.75	1.50	3.75	2.50	2.75	4.00	1.00	2.75	5.25	0.75	0.25	0.00	2.50	3.00	0.00	0.00	-0.187500	0.042480	0.948242	-2.170000	-6.790000	3.430000	477.00	-0.06	-0.02
1.30	4.75	2.75	5.75	5.50	1.75	7.50	0.50	6.00	2.25	1.75	0.75	0.50	6.00	4.00	1.00	0.25	-0.229980	0.078125	0.956543	-1.610000	2.100000	0.560000	666.00	-0.07	-0.13	5.50	1.50	3.50	2.50	2.75	4.00	1.00	2.75	5.00	0.75	0.25	0.00	2.25	3.00	0.25	0.00	-0.183594	0.041016	0.950684	-2.100000	-6.650000	3.430000	468.00	-0.06	-0.02
1.31	4.50	3.00	5.75	5.25	1.75	7.50	0.50	6.00	2.00	1.75	0.75	0.50	6.00	3.50	0.75	0.25	-0.221680	0.074707	0.947754	-1.960000	2.170000	0.420000	650.00	-0.07	-0.14	5.75	1.75	3.50	2.50	2.75	4.25	1.00	2.50	5.00	0.75	0.25	0.25	2.50	2.75	0.50	0.00	-0.179199	0.039062	0.956055	-2.170000	-6.720000	3.360000	479.00	-0.06	-0.02
1.32	4.50	3.00	5.50	5.50	1.50	7.50	0.50	6.00	2.25	1.75	0.75	0.50	5.50	3.75	0.75	0.25	-0.224609	0.076172	0.954590	-1.960000	2.240000	0.420000	648.00	-0.07	-0.14	5.75	1.75	3.50	2.75	2.75	4.00	1.00	2.75	5.00	0.50	0.25	0.00	2.50	2.75	0.25	0.00	-0.179688	0.040527	0.949707	-2.310000	-6.720000	3.360000	474.00	-0.07	-0.03
1.33	4.75	2.75	5.75	5.50	1.50	7.25	0.50	5.75	2.00	1.75	0.75	0.25	5.50	3.75	0.50	0.25	-0.229492	0.081543	0.947754	-1.960000	2.380000	0.490000	634.00	-0.08	-0.13	6.00	1.75	3.50	2.50	2.75	4.00	1.00	2.75	5.00	0.75	0.25	0.25	2.50	2.75	0.50	0.00	-0.179688	0.040527	0.949707	-2.310000	-6.720000	3.360000	483.00	-0.06	-0.03
1.34	5.00	3.25	5.75	5.50	1.50	7.25	0.50	5.50	2.25	1.75	0.75	0.50	5.25	3.50	1.00	0.25	-0.254395	0.077148	0.936523	-1.890000	2.450000	0.490000	646.00	-0.08	-0.13	6.00	1.50	3.75	2.50	2.75	4.00	1.00	2.50	5.00	0.75	0.25	0.00	2.50	2.50	0.00	0.00	-0.191895	0.036621	0.954102	-2.310000	-6.930000	3.430000	467.00	-0.07	-0.02
1.35	5.00	2.75	5.50	5.50	1.50	7.50	0.50	5.75	1.75	1.75	0.75	0.50	5.50	3.50	0.50	0.25	-0.224121	0.079102	0.940430	-1.610000	2.170000	0.490000	633.00	-0.08	-0.14	6.00	1.50	3.75	2.50	2.75	4.00	1.00	2.50	5.00	0.75	0.00	0.00	2.50	3.00	0.25	0.00	-0.187012	0.038574	0.950195	-2.380000	-6.650000	3.430000	472.00	-0.06	-0.02
1.36	5.00	2.75	5.75	5.50	1.50	7.25	0.50	5.50	2.00	1.75	0.50	0.50	5.25	3.50	1.00	0.50	-0.223145	0.077637	0.938965	-1.750000	2.030000	0.560000	635.00	-0.08	-0.13	5.75	1.75	3.75	2.50	2.75	4.00	1.00	2.75	5.00	1.00	0.00	0.00	2.50	2.75	0.25	0.00	-0.194824	0.036621	0.950195	-2.520000	-6.860000	3.220000	477.00	-0.06	-0.02
1.37	5.00	3.00	5.75	5.50	1.50	7.25	0.50	5.75	1.75	1.75	0.75	0.00	5.50	3.75	0.75	0.00	-0.221680	0.078613	0.944824	-1.820000	1.820000	0.630000	634.00	-0.08	-0.13	6.00	2.00	4.00	2.50	2.50	4.00	1.00	2.75	5.25	0.75	0.25	0.00	2.50	3.00	0.00	0.00	-0.187500	0.040527	0.952148	-2.380000	-6.720000	3.220000	486.00	-0.07	-0.02
1.38	5.00	3.25	5.75	5.50	1.50	7.00	0.50	5.25	2.00	1.25	0.50	0.25	5.00	3.50	0.75	0.25	-0.228516	0.079590	0.946289	-1.610000	1.540000	0.630000	616.00	-0.09	-0.13	5.75	1.75	4.00	2.75	2.75	4.25	1.00	2.75	5.00	1.00	0.50	0.00	2.50	2.75	0.25	0.00	-0.186035	0.034180	0.955566	-2.450000	-6.720000	3.360000	493.00	-0.06	-0.03
1.39	4.75	3.25	5.75	5.50	1.50	7.00	0.50	5.50	1.50	1.50	0.50	0.25	5.25	3.00	0.75	0.00	-0.232422	0.078613	0.947266	-1.610000	1.540000	0.630000	609.00	-0.10	-0.14	6.00	1.75	4.00	2.75	2.50	4.25	1.00	2.50	5.00	0.75	0.25	0.00	2.50	3.00	0.25	0.00	-0.181641	0.036133	0.955566	-2.380000	-6.790000	3.430000	485.00	-0.07	-0.02
1.40	5.00	3.00	5.75	5.50	1.50	7.00	0.50	5.50	1.50	1.50	0.50	0.00	5.25	3.25	0.75	0.00	-0.227051	0.081055	0.949707	-1.750000	1.750000	0.770000	608.00	-0.10	-0.13	6.00	1.75	3.50	2.50	2.75	4.25	1.00	2.75	4.75	0.75	0.25	0.00	2.50	2.75	0.25	0.00	-0.185059	0.034668	0.952637	-2.520000	-6.860000	3.220000	476.00	-0.07	-0.03
1.41	5.00	3.00	5.75	5.50	1.50	7.00	0.50	5.50	1.75	1.50	0.25	0.50	5.25	3.50	1.00	0.00	-0.226562	0.079590	0.941406	-1.820000	1.680000	0.770000	621.00	-0.09	-0.13	6.00	1.75	4.00	2.75	2.50	4.00	1.00	2.50	5.00	0.75	0.50	0.00	2.50	2.75	0.25	0.00	-0.186523	0.036133	0.955566	-2.520000	-6.790000	3.290000	482.00	-0.07	-0.02
1.42	5.00	3.25	5.75	5.50	1.50	7.25	0.25	5.50	1.75	1.50	0.50	0.25	5.25	3.25	0.50	0.00	-0.229004	0.078613	0.949219	-1.890000	1.610000	0.700000	614.00	-0.10	-0.14	6.00	1.75	3.75	2.50	2.75	4.25	1.00	2.50	5.00	0.75	0.25	0.00	2.50	2.75	0.25	0.00	-0.188477	0.033203	0.951660	-2.660000	-6.930000	3.290000	479.00	-0.07	-0.02
1.43	5.00	3.25	5.75	5.50	1.50	7.00	0.50	5.50	1.50	1.50	0.50	0.25	5.00	3.25	0.75	0.00	-0.231445	0.081543	0.940430	-2.030000	1.610000	0.560000	612.00	-0.10	-0.13	6.00	2.00	3.50	2.75	2.50	4.25	1.00	2.50	5.25	1.00	0.25	0.25	2.25	2.75	0.00	0.00	-0.184570	0.043945	0.955078	-2.590000	-6.930000	3.360000	483.00	-0.07	-0.02
1.44	5.25	3.25	5.75	5.75	1.50	7.00	0.50	5.25	1.25	1.25	0.50	0.25	5.00	3.00	1.00	0.00	-0.225586	0.077637	0.943359	-2.240000	1.540000	0.560000	607.00	-0.10	-0.14	6.25	2.00	3.50	2.75	2.75	4.00	1.00	2.50	5.00	0.50	0.25	0.00	2.50	2.75	0.25	0.00	-0.186035	0.029785	0.960449	-2.590000	-6.860000	3.360000	478.00	-0.07	-0.02
1.45	5.25	3.25	5.75	5.75	1.50	7.00	0.50	5.25	1.50	1.75	0.50	0.25	4.25	3.25	1.00	0.00	-0.228027	0.077637	0.946289	-2.380000	1.540000	0.560000	612.00	-0.10	-0.13	6.25	2.00	4.00	2.75	2.75	4.25	1.00	2.50	5.00	0.75	0.00	0.25	2.50	2.50	0.00	0.00	-0.192383	0.034668	0.959473	-2.520000	-6.790000	3.430000	486.00	-0.08	-0.02
1.46	5.00	3.25	5.75	5.50	1.50	6.75	0.50	5.25	1.50	1.50	0.50	0.25	5.00	3.50	0.75	0.25	-0.219238	0.078613	0.952148	-2.520000	1.610000	0.420000	608.00	-0.09	-0.13	6.25	1.75	4.25	2.75	2.75	4.00	1.00	2.75	5.00	1.00	0.25	0.00	2.50	2.75	0.25	0.00	-0.187500	0.039551	0.953125	-2.520000	-6.790000	3.500000	496.00	-0.07	-0.02
1.47	5.25	3.25	5.75	5.50	1.50	6.75	0.50	5.25	1.50	1.25	0.50	0.00	4.75	3.25	1.00	0.25	-0.226074	0.078125	0.944824	-2.520000	1.610000	0.490000	603.00	-0.10	-0.13	6.25	1.75	4.00	2.75	2.50	4.25	1.00	2.50	5.00	1.00	0.00	0.00	2.50	2.75	0.00	0.00	-0.186035	0.037598	0.948242	-2.590000	-6.790000	3.430000	482.00	-0.08	-0.02
1.48	5.50	3.25	5.75	5.75	1.50	7.00	0.50	5.25	1.75	1.50	0.50	0.00	4.75	3.25	0.50	0.00	-0.230469	0.075684	0.948730	-2.380000	1.610000	0.560000	612.00	-0.10	-0.13	6.25	2.00	4.00	3.00	2.75	4.25	1.00	2.50	5.00	0.50	0.25	0.00	2.25	2.75	0.25	0.00	-0.186523	0.034668	0.953125	-2.520000	-6.720000	3.430000	489.00	-0.08	-0.02
1.49	5.25	3.50	5.75	5.50	1.50	6.75	0.50	5.00	1.75	1.25	0.50	0.25	4.50	2.75	0.75	0.25	-0.226562	0.077637	0.954590	-2.450000	1.750000	0.560000	598.00	-0.11	-0.13	6.25	2.25	4.00	3.00	2.75	4.25	1.00	2.50	5.00	0.75	0.00	0.25	2.50	2.75	0.25	0.00	-0.187500	0.040039	0.954102	-2.520000	-6.440000	3.430000	497.00	-0.08	-0.02
1.50	5.00	3.00	5.75	5.75	1.50	6.50	0.50	5.00	1.50	1.50	0.25	0.25	4.25	3.00	0.75	0.25	-0.225098	0.079590	0.947754	-2.380000	1.750000	0.490000	585.00	-0.10	-0.13	6.50	2.25	4.25	3.00	2.75	4.50	1.00	2.50	5.00	0.75	0.25	0.00	2.25	2.50	0.50	0.00	-0.186523	0.039062	0.954102	-2.450000	-6.440000	3.500000	505.00	-0.08	-0.02
1.51	5.25	3.25	5.75	5.75	1.50	6.50	0.25	5.25	1.25	1.25	0.50	0.25	4.50	3.00	0.75	0.00	-0.230469	0.077637	0.949707	-2.240000	1.750000	0.630000	588.00	-0.11	-0.13	6.50	2.00	4.25	3.00	2.75	4.25	1.00	2.50	5.00	0.75	0.00	0.00	2.25	2.50	0.25	0.00	-0.188477	0.040527	0.953125	-2.520000	-6.440000	3.500000	493.00	-0.09	-0.02
1.52	5.50	3.25	5.75	5.50	1.50	6.75	0.50	5.00	1.50	1.25	0.00	0.25	4.00	3.25	0.50	0.00	-0.238770	0.083496	0.956543	-1.960000	2.240000	0.560000	583.00	-0.11	-0.12	6.50	2.25	4.00	3.00	2.75	4.00	1.00	2.50	5.00	0.75	0.25	0.00	2.25	2.50	0.00	0.00	-0.184570	0.037109	0.955566	-2.380000	-5.950000	3.500000	489.00	-0.09	-0.02
1.53	5.50	3.75	6.00	5.75	1.50	6.50	0.25	5.00	1.25	1.25	0.25	0.00	3.50	2.75	0.50	0.00	-0.235840	0.077148	0.945801	-1.470000	3.220000	0.700000	573.00	-0.13	-0.13	6.75	2.25	4.75	3.25	2.75	4.00	1.00	2.50	5.00	0.75	0.25	0.00	2.25	2.25	0.00	0.00	-0.192871	0.034180	0.958496	-1.960000	-5.670000	3.570000	503.00	-0.10	-0.02
1.54	5.50	3.75	6.00	5.75	1.25	6.50	0.25	4.75	1.25	1.00	0.25	0.25	3.50	2.50	0.50	0.00	-0.232910	0.097168	0.943848	-1.540000	4.060000	0.420000	563.00	-0.13	-0.13	7.00	2.75	4.25	3.25	2.75	4.25	1.00	2.25	4.50	0.50	0.00	0.00	2.00	2.25	0.00	0.00	-0.189941	0.039551	0.965332	-1.400000	-5.250000	3.570000	487.00	-0.11	-0.02
1.55	5.75	4.00	6.00	5.75	1.50	6.50	0.25	4.75	1.00	1.00	0.25	0.25	2.75	2.50	0.25	0.00	-0.237305	0.075195	0.956543	-0.560000	3.850000	0.700000	557.00	-0.15	-0.12	7.50	2.75	4.75	3.50	2.75	4.25	1.00	2.25	4.50	0.50	0.00	0.00	2.00	2.25	0.00	0.00	-0.192383	0.035645	0.964355	-0.910000	-4.690000	3.640000	503.00	-0.12	-0.02
1.56	6.00	4.25	6.00	5.75	1.50	6.50	0.25	4.25	1.00	1.00	0.00	0.25	2.75	2.50	0.00	0.00	-0.237305	0.076172	0.968750	1.470000	3.850000	0.980000	548.00	-0.16	-0.12	7.50	3.00	5.00	3.75	2.75	4.25	0.75	2.25	3.75	0.50	0.00	0.00	1.50	2.00	0.00	0.00	-0.201172	0.034668	0.960449	-0.070000	-4.410000	3.710000	488.00	-0.14	-0.03
1.57	6.75	4.50	6.25	6.00	1.50	6.25	0.25	3.75	1.00	1.00	0.25	0.00	1.75	2.00	0.25	0.00	-0.245117	0.065918	0.956055	3.360000	3.010000	0.980000	542.00	-0.17	-0.10	8.00	3.25	5.00	3.75	2.50	4.25	0.75	2.00	3.75	0.25	0.00	0.00	1.50	1.75	0.25	0.00	-0.188477	0.046875	0.952148	0.560000	-3.780000	3.920000	487.00	-0.15	-0.03
1.58	7.25	4.75	6.50	6.00	1.25	6.50	0.25	3.75	0.75	0.75	0.00	0.00	1.75	1.75	0.00	0.00	-0.236816	0.075684	0.952148	4.550000	1.610000	1.260000	538.00	-0.19	-0.11	8.75	3.75	5.00	3.75	2.25	4.00	0.75	1.75	3.50	0.25	0.00	0.00	1.50	1.50	0.00	0.00	-0.186523	0.046387	0.948730	0.630000	-3.360000	3.780000	481.00	-0.17	-0.02
1.59	8.25	5.00	6.75	6.25	1.25	6.50	0.25	3.00	0.50	0.50	0.00	0.00	1.50	1.75	0.00	0.00	-0.232422	0.082520	0.952148	4.970000	-0.070000	1.190000	537.00	-0.21	-0.10	9.25	3.75	5.00	4.00	2.25	3.75	0.50	1.75	3.50	0.25	0.00	0.00	1.25	1.50	0.00	0.00	-0.188965	0.039551	0.952148	0.280000	-3.080000	3.640000	480.00	-0.17	-0.02
1.60	8.75	5.25	7.00	6.50	1.25	6.50	0.25	2.75	0.25	0.50	0.00	0.00	1.25	1.75	0.00	0.00	-0.210938	0.082520	0.934570	4.830000	-3.990000	0.490000	541.00	-0.22	-0.09	9.50	4.00	5.00	4.25	2.25	3.75	0.75	1.50	3.25	0.25	0.00	0.00	1.00	1.50	0.00	0.00	-0.193848	0.042480	0.950684	-0.280000	-3.010000	3.430000	483.00	-0.18	-0.02
1.61	9.50	5.75	7.50	6.50	1.50	6.50	0.00	2.50	0.25	0.50	0.00	0.00	0.75	1.50	0.00	0.00	-0.225586	0.096680	0.930664	4.340000	-4.550000	0.910000	549.00	-0.24	-0.09	9.75	4.50	5.25	4.25	2.25	3.50	0.75	1.50	3.00	0.25	0.00	0.00	1.00	1.25	0.00	0.00	-0.192383	0.035645	0.953125	-0.490000	-3.150000	3.360000	485.00	-0.19	-0.02
1.62	10.50	6.00	7.50	6.75	1.50	6.50	0.25	2.00	0.25	0.25	0.00	0.00	0.50	1.50	0.00	0.00	-0.230469	0.082031	0.966309	3.430000	-4.340000	1.750000	558.00	-0.25	-0.07	10.25	5.00	5.25	4.25	2.00	3.50	0.50	1.25	3.00	0.00	0.00	0.00	0.75	1.00	0.00	0.00	-0.194824	0.041992	0.958496	0.210000	-2.870000	3.360000	476.00	-0.21	-0.02
1.63	11.00	6.50	8.00	7.25	1.50	6.50	0.00	1.50	0.00	0.25	0.00	0.00	0.75	1.25	0.00	0.00	-0.244141	0.068848	0.996582	5.320000	-6.020000	2.240000	565.00	-0.26	-0.08	10.75	5.25	5.25	4.00	2.00	3.25	0.50	1.00	2.50	0.00	0.00	0.00	1.00	1.00	0.00	0.00	-0.192383	0.040039	0.964844	1.050000	-2.870000	3.570000	469.00	-0.22	-0.02
1.64	11.75	7.75	8.25	7.50	1.50	6.50	0.00	1.75	0.00	0.50	0.00	0.00	1.00	1.25	0.00	0.00	-0.273438	0.072266	1.045410	11.830000	-11.480000	3.080000	605.00	-0.26	-0.08	11.50	5.50	5.25	4.25	2.00	3.00	0.50	1.00	2.50	0.00	0.00	0.00	0.50	1.00	0.00	0.00	-0.192383	0.042969	0.954590	1.750000	-2.940000	3.640000	476.00	-0.23	-0.01
1.65	12.75	8.25	8.50	7.75	1.50	6.75	0.00	1.75	0.00	0.25	0.00	0.00	0.25	1.00	0.00	0.00	-0.257812	0.048340	1.044434	19.950001	-18.480000	4.410000	619.00	-0.28	-0.07	11.25	5.50	5.25	4.00	2.00	2.75	0.50	1.00	2.25	0.00	0.00	0.00	0.50	0.75	0.00	0.00	-0.201660	0.041504	0.955566	1.960000	-3.150000	3.570000	460.00	-0.24	-0.01
1.66	13.50	8.75	8.50	8.25	1.25	6.50	0.00	1.75	0.00	0.00	0.00	0.00	0.25	0.75	0.00	0.00	-0.240234	0.066895	1.002441	26.530001	-25.340000	5.670000	629.00	-0.29	-0.07	11.25	5.50	5.25	4.00	1.75	2.75	0.50	0.75	2.00	0.00	0.00	0.00	0.50	0.75	0.00	0.00	-0.199707	0.041016	0.948730	2.380000	-3.220000	3.570000	448.00	-0.25	-0.01
1.67	14.25	9.75	8.75	8.25	1.50	6.75	0.00	1.50	0.00	0.00	0.00	0.00	0.25	0.75	0.00	0.00	-0.200195	0.106934	0.931641	28.210001	-28.139999	6.230000	654.00	-0.29	-0.07	11.25	5.50	5.00	4.00	1.75	2.25	0.25	0.75	1.50	0.00	0.00	0.00	0.25	0.75	0.00	0.00	-0.194824	0.041992	0.938477	2.520000	-3.500000	3.640000	423.00	-0.26	-0.01
1.68	14.75	10.50	8.75	8.50	1.50	6.75	0.00	1.50	0.00	0.00	0.00	0.00	0.00	0.75	0.00	0.00	-0.197266	0.125977	0.932129	26.600000	-27.719999	6.160000	669.00	-0.30	-0.07	11.25	5.50	5.00	3.75	1.50	2.50	0.25	0.75	1.50	0.00	0.00	0.00	0.25	0.50	0.00	0.00	-0.188477	0.046387	0.943359	2.170000	-3.990000	3.430000	417.00	-0.27	-0.01
1.69	15.50	11.00	9.00	8.75	1.25	6.75	0.00	1.25	0.00	0.00	0.00	0.00	0.00	0.00	0.00	0.00	-0.219727	0.103516	0.977051	25.270000	-27.580000	6.090000	675.00	-0.31	-0.07	11.00	5.50	5.00	3.50	1.50	2.25	0.25	0.75	1.50	0.00	0.00	0.00	0.25	0.25	0.00	0.00	-0.198242	0.034668	0.947754	1.750000	-4.550000	3.220000	405.00	-0.27	-0.01
1.70	16.25	11.75	9.00	9.00	1.25	7.00	0.00	1.25	0.00	0.00	0.00	0.00	0.00	0.50	0.00	0.00	-0.203125	0.090332	0.977539	25.340000	-29.260000	5.880000	705.00	-0.31	-0.07	11.25	5.50	5.00	3.25	1.50	2.00	0.25	0.50	1.00	0.00	0.00	0.00	0.00	0.50	0.00	0.00	-0.203125	0.038574	0.954102	2.310000	-5.040000	3.010000	389.00	-0.29	-0.00
1.71	16.75	12.25	9.00	8.75	1.25	7.00	0.00	1.25	0.00	0.00	0.00	0.00	0.00	0.50	0.00	0.00	-0.181641	0.139648	0.912109	24.290001	-29.469999	5.530000	713.00	-0.31	-0.07	11.00	5.50	5.00	3.50	1.25	1.75	0.25	0.25	1.25	0.00	0.00	0.00	0.25	0.25	0.00	0.00	-0.193848	0.052246	0.945801	2.800000	-5.880000	2.660000	382.00	-0.29	-0.00
1.72	16.75	12.75	9.00	9.25	1.25	7.25	0.00	1.00	0.00	0.00	0.00	0.00	0.00	0.00	0.00	0.00	-0.183105	0.192383	0.898438	20.090000	-26.180000	5.180000	719.00	-0.31	-0.07	10.75	5.50	5.00	3.50	1.50	1.50	0.25	0.25	0.75	0.00	0.00	0.00	0.00	0.25	0.00	0.00	-0.195801	0.061523	0.940430	2.800000	-6.230000	2.660000	369.00	-0.30	-0.00
1.73	17.25	13.00	9.50	9.25	1.25	7.00	0.00	1.00	0.00	0.00	0.00	0.00	0.00	0.00	0.00	0.00	-0.187500	0.150879	0.939941	12.740000	-23.379999	4.270000	731.00	-0.32	-0.07	10.75	5.25	4.75	3.00	1.25	1.50	0.25	0.25	0.50	0.00	0.00	0.00	0.00	0.25	0.00	0.00	-0.191895	0.058105	0.939941	2.100000	-6.020000	2.800000	349.00	-0.31	-0.00
1.74	18.00	13.75	9.50	9.50	1.25	7.25	0.00	1.00	0.00	0.00	0.00	0.00	0.00	0.00	0.00	0.00	-0.183105	0.118164	0.957520	8.540000	-22.469999	3.780000	755.00	-0.32	-0.07	10.50	5.25	4.50	3.25	1.25	1.25	0.25	0.25	1.00	0.00	0.00	0.00	0.25	0.25	0.00	0.00	-0.189941	0.055176	0.935547	1.190000	-6.300000	2.870000	353.00	-0.29	-0.00
1.75	18.00	14.00	9.50	9.50	1.25	7.25	0.00	0.75	0.00	0.00	0.00	0.00	0.25	0.00	0.00	0.00	-0.150391	0.138672	0.910156	5.390000	-19.460001	2.730000	756.00	-0.32	-0.07	10.50	5.00	4.50	3.25	1.25	1.25	0.00	0.25	0.50	0.00	0.00	0.00	0.00	0.50	0.00	0.00	-0.187988	0.061523	0.927734	-0.280000	-6.300000	2.800000	338.00	-0.31	-0.00
1.76	18.50	14.25	9.50	9.50	1.25	7.25	0.00	1.00	0.00	0.00	0.00	0.00	0.00	0.00	0.00	0.00	-0.134277	0.139648	0.877441	3.150000	-15.610000	2.520000	767.00	-0.32	-0.06	10.75	5.00	4.50	3.25	1.25	1.25	0.25	0.25	0.50	0.00	0.00	0.00	0.00	0.25	0.00	0.00	-0.191895	0.062500	0.928223	-2.380000	-5.670000	2.800000	343.00	-0.31	-0.00
1.77	18.50	14.25	9.75	9.75	1.25	7.25	0.00	1.25	0.00	0.00	0.00	0.00	0.00	0.00	0.00	0.00	-0.119141	0.125000	0.857422	0.980000	-10.150000	2.030000	778.00	-0.32	-0.07	10.50	5.00	4.25	3.00	1.25	1.25	0.25	0.25	1.00	0.00	0.00	0.00	0.00	0.50	0.00	0.00	-0.193848	0.053711	0.931641	-4.410000	-5.040000	2.590000	344.00	-0.29	0.01
1.78	18.25	14.75	9.50	9.75	1.25	7.25	0.00	0.50	0.00	0.00	0.00	0.00	0.00	0.00	0.00	0.00	-0.119141	0.120605	0.849609	-0.700000	-3.570000	1.260000	764.00	-0.32	-0.06	10.50	4.75	4.25	2.75	1.25	1.25	0.25	0.25	0.75	0.00	0.00	0.00	0.00	0.25	0.00	0.00	-0.202148	0.044922	0.949707	-5.460000	-5.670000	2.590000	331.00	-0.30	0.01
1.79	18.25	14.75	9.75	9.75	1.25	7.25	0.00	0.50	0.00	0.00	0.00	0.00	0.00	0.00	0.00	0.00	-0.110352	0.123535	0.860352	-2.100000	3.640000	0.350000	767.00	-0.32	-0.06	10.00	4.75	4.25	2.75	1.00	1.25	0.25	0.25	0.75	0.00	0.00	0.00	0.25	0.50	0.00	0.00	-0.199707	0.051758	0.943359	-5.250000	-5.950000	2.520000	327.00	-0.29	0.00
1.80	18.75	15.00	9.75	10.00	1.25	7.50	0.00	0.50	0.00	0.00	0.00	0.00	0.00	0.00	0.00	0.00	-0.157715	0.130371	0.949707	-2.380000	9.030000	-0.350000	782.00	-0.32	-0.06	10.50	5.00	4.25	2.75	1.00	1.00	0.25	0.25	0.50	0.00	0.00	0.00	0.00	0.50	0.00	0.00	-0.203125	0.044434	0.958984	-5.040000	-6.160000	2.730000	326.00	-0.31	0.00
1.81	18.75	14.75	9.75	10.00	1.25	7.50	0.00	0.50	0.00	0.00	0.00	0.00	0.00	0.00	0.00	0.00	-0.249512	0.132324	1.131836	-0.490000	5.810000	0.070000	780.00	-0.32	-0.06	10.25	5.00	4.75	2.75	1.00	1.00	0.25	0.25	0.75	0.00	0.00	0.00	0.00	0.50	0.00	0.00	-0.205566	0.042480	0.954102	-3.780000	-6.720000	2.870000	334.00	-0.30	0.01
1.82	19.00	15.25	9.75	10.00	1.25	7.50	0.00	0.75	0.00	0.00	0.00	0.00	0.00	0.00	0.00	0.00	-0.243652	0.154785	1.109863	0.630000	-4.410000	0.910000	793.00	-0.32	-0.06	10.25	5.00	4.50	3.25	1.00	1.25	0.25	0.25	0.75	0.00	0.00	0.00	0.00	0.50	0.00	0.00	-0.213379	0.037109	0.966797	-1.960000	-7.490000	3.080000	340.00	-0.30	0.00
1.83	18.75	15.00	9.75	10.00	1.25	7.25	0.00	0.75	0.00	0.00	0.00	0.00	0.00	0.00	0.00	0.00	-0.160645	0.145996	0.933594	0.770000	-10.780000	2.380000	784.00	-0.32	-0.06	10.50	5.00	4.25	3.25	1.25	1.25	0.25	0.25	0.50	0.00	0.00	0.00	0.00	0.25	0.00	0.00	-0.211426	0.048340	0.949707	0.840000	-8.330000	3.220000	337.00	-0.31	-0.00
1.84	18.50	15.25	9.75	10.00	1.00	7.25	0.00	0.50	0.00	0.00	0.00	0.00	0.00	0.00	0.00	0.00	-0.138184	0.124512	0.902344	-0.140000	-9.730000	2.660000	775.00	-0.32	-0.06	11.00	5.25	4.50	3.00	1.00	1.25	0.25	0.25	0.25	0.00	0.00	0.00	0.00	0.50	0.00	0.00	-0.197266	0.053223	0.950684	1.890000	-9.100000	3.360000	341.00	-0.31	-0.00
1.85	19.00	15.00	9.75	9.75	1.25	7.50	0.00	0.50	0.00	0.00	0.00	0.00	0.00	0.00	0.00	0.00	-0.138672	0.135742	0.938965	-1.680000	-6.930000	1.540000	782.00	-0.32	-0.06	11.25	5.50	4.75	3.25	1.25	1.25	0.25	0.25	0.50	0.00	0.00	0.00	0.00	0.25	0.00	0.00	-0.203613	0.049316	0.942383	1.540000	-9.520000	3.220000	358.00	-0.31	-0.00
1.86	18.75	15.00	9.50	9.75	1.00	7.25	0.00	0.50	0.00	0.00	0.00	0.00	0.00	0.00	0.00	0.00	-0.169922	0.134766	0.990723	-2.240000	-5.670000	0.980000	769.00	-0.32	-0.06	11.50	5.75	4.50	3.25	1.25	1.25	0.00	0.25	0.75	0.00	0.00	0.00	0.00	0.50	0.00	0.00	-0.179199	0.047852	0.942871	0.770000	-9.800000	2.870000	363.00	-0.31	-0.00
1.87	19.00	14.75	9.50	10.00	1.00	7.25	0.00	0.75	0.00	0.00	0.00	0.00	0.00	0.00	0.00	0.00	-0.161621	0.132324	0.956543	-2.940000	-6.230000	1.120000	777.00	-0.32	-0.06	11.50	5.75	4.50	3.25	1.25	1.50	0.00	0.25	0.50	0.00	0.00	0.00	0.00	0.25	0.00	0.00	-0.189941	0.061035	0.934082	-0.210000	-9.450000	2.730000	359.00	-0.32	-0.01
1.88	19.00	14.75	9.50	9.75	1.00	7.25	0.00	0.25	0.00	0.00	0.00	0.00	0.00	0.00	0.00	0.00	-0.139648	0.128906	0.911133	-3.850000	-5.250000	0.980000	765.00	-0.33	-0.06	11.50	6.25	4.75	3.25	1.25	1.25	0.25	0.25	0.00	0.00	0.00	0.00	0.00	0.25	0.00	0.00	-0.189941	0.060059	0.931641	-1.960000	-8.540000	2.660000	362.00	-0.33	-0.01
1.89	18.50	14.50	9.25	9.75	1.00	7.00	0.00	0.25	0.00	0.00	0.00	0.00	0.00	0.00	0.00	0.00	-0.161621	0.131348	0.898926	-5.670000	0.630000	0.560000	749.00	-0.33	-0.06	12.25	6.25	5.00	3.50	1.25	1.25	0.25	0.50	0.00	0.00	0.00	0.00	0.00	0.25	0.00	0.00	-0.190918	0.058594	0.921387	-3.990000	-7.770000	2.520000	382.00	-0.32	-0.01
1.90	18.25	14.75	9.25	9.75	1.00	7.00	0.00	0.50	0.00	0.00	0.00	0.00	0.00	0.00	0.00	0.00	-0.161621	0.131348	0.898926	-5.670000	0.630000	0.560000	754.00	-0.32	-0.06	12.25	6.50	5.00	3.75	1.50	1.25	0.25	0.50	0.25	0.00	0.00	0.00	0.00	0.00	0.00	0.00	-0.189941	0.060059	0.940430	-6.440000	-6.860000	2.310000	393.00	-0.32	-0.01
1.91	18.25	14.50	9.00	9.50	1.00	7.00	0.00	0.25	0.00	0.00	0.00	0.00	0.00	0.00	0.00	0.00	-0.146973	0.119629	0.933105	-6.860000	5.110000	0.140000	740.00	-0.33	-0.06	12.50	6.50	5.25	3.75	1.25	1.50	0.25	0.25	0.50	0.00	0.00	0.00	0.00	0.25	0.00	0.00	-0.191895	0.050293	0.945312	-7.910000	-7.070000	2.170000	401.00	-0.32	-0.01
1.92	17.75	14.00	9.00	9.50	1.00	6.75	0.00	0.25	0.00	0.00	0.00	0.00	0.00	0.00	0.00	0.00	-0.139160	0.115234	0.914062	-6.860000	7.770000	-0.280000	725.00	-0.33	-0.06	13.00	6.25	5.25	3.75	1.50	1.50	0.25	0.50	0.50	0.00	0.00	0.00	0.00	0.50	0.00	0.00	-0.193848	0.050781	0.938965	-10.220000	-7.560000	1.960000	415.00	-0.31	-0.01
1.93	18.25	14.00	9.00	9.25	1.00	6.50	0.00	0.25	0.00	0.00	0.00	0.00	0.00	0.00	0.00	0.00	-0.085449	0.097168	0.778809	-5.460000	12.390000	-0.700000	724.00	-0.33	-0.06	12.75	6.75	5.25	4.00	1.50	2.00	0.25	0.50	1.00	0.00	0.00	0.00	0.00	0.25	0.00	0.00	-0.184570	0.049316	0.928223	-10.220000	-7.560000	1.960000	432.00	-0.30	-0.01
1.94	17.50	13.50	8.75	9.25	0.75	6.50	0.00	0.50	0.00	0.00	0.00	0.00	0.00	0.00	0.00	0.00	0.002930	0.083008	0.621094	-3.150000	24.990000	-1.610000	708.00	-0.32	-0.06	13.00	6.75	5.25	4.25	1.75	2.00	0.50	0.50	1.00	0.00	0.00	0.00	0.25	0.75	0.00	0.00	-0.180664	0.051270	0.927734	-13.160000	-10.640000	1.610000	454.00	-0.28	-0.01
1.95	16.75	12.75	8.75	9.00	1.00	6.50	0.00	0.50	0.00	0.00	0.00	0.00	0.00	0.00	0.00	0.00	-0.014648	0.083496	0.604980	-2.660000	45.080002	-4.340000	690.00	-0.32	-0.06	13.00	6.75	5.50	4.25	1.75	2.25	0.50	0.75	1.75	0.00	0.00	0.00	0.25	0.50	0.00	0.00	-0.192871	0.036133	0.947754	-14.630000	-13.090000	1.470000	475.00	-0.27	-0.01
1.96	16.00	12.00	8.50	9.00	1.00	6.50	0.00	0.50	0.00	0.00	0.00	0.00	0.00	0.00	0.00	0.00	-0.023438	0.106445	0.604980	-3.360000	67.690002	-7.140000	669.00	-0.32	-0.06	13.25	7.00	5.50	4.50	2.25	2.50	0.50	1.00	2.00	0.00	0.00	0.00	0.50	0.75	0.00	0.00	-0.200195	0.027832	0.955078	-14.350000	-15.610000	1.680000	507.00	-0.26	-0.01
1.97	14.75	11.25	8.25	8.75	1.00	6.75	0.00	1.25	0.00	0.00	0.00	0.00	0.00	0.00	0.00	0.00	-0.321777	0.350586	1.031250	-43.610001	69.090004	-13.300000	656.00	-0.31	-0.07	13.25	7.00	5.75	4.75	2.75	3.00	0.75	1.25	2.50	0.25	0.00	0.00	1.00	1.25	0.00	0.00	-0.188965	0.028809	0.950195	-13.650000	-18.059999	1.960000	557.00	-0.23	-0.01
1.98	13.25	9.50	8.00	8.50	1.00	6.75	0.00	1.25	0.00	0.00	0.00	0.00	0.00	0.00	0.00	0.00	-0.213867	0.141602	0.831543	-57.260002	67.269997	-8.820000	611.00	-0.30	-0.08	13.50	7.00	6.00	5.00	3.00	3.50	0.75	1.25	3.25	0.00	0.00	0.00	1.00	1.25	0.00	0.00	-0.191895	0.019531	0.950684	-12.670000	-19.879999	2.170000	585.00	-0.22	-0.01
1.99	11.00	8.25	7.25	7.75	1.00	6.75	0.00	2.00	0.00	0.50	0.00	0.00	0.75	0.00	0.00	0.00	-0.176270	0.092285	0.917480	-69.090004	70.769997	-9.310000	577.00	-0.28	-0.10	13.25	7.25	6.25	5.00	3.25	3.75	0.75	1.50	3.50	0.25	0.00	0.00	1.25	1.75	0.00	0.00	-0.190918	0.024902	0.951660	-11.550000	-21.139999	2.450000	614.00	-0.21	-0.01
2.00	9.00	6.50	6.50	6.75	1.25	6.50	0.25	2.50	0.25	0.75	0.00	0.00	0.75	0.75	0.00	0.00	-0.270020	0.117188	1.158203	-91.070000	66.709999	-13.370000	538.00	-0.24	-0.10	13.50	7.25	6.25	5.50	3.50	4.50	1.00	2.00	4.00	0.25	0.00	0.00	1.50	1.75	0.00	0.00	-0.186035	0.026367	0.955566	-10.500000	-21.980000	2.730000	661.00	-0.20	-0.02
2.01	7.00	5.50	5.50	6.00	1.00	6.00	0.25	2.75	0.50	0.75	0.25	0.25	2.25	0.75	0.00	0.00	-0.340332	-0.054199	1.122070	-50.750000	26.250000	-10.850000	499.00	-0.21	-0.12	14.00	7.75	6.75	5.75	4.25	5.25	1.00	2.25	4.00	0.25	0.00	0.00	1.75	2.00	0.00	0.00	-0.187500	0.041016	0.965332	-9.870000	-21.840000	2.940000	711.00	-0.20	-0.03
2.02	5.00	3.75	4.25	4.50	0.75	5.50	0.25	2.75	0.75	1.00	0.25	0.25	2.75	1.25	0.50	0.00	-0.248047	0.243164	1.081543	-28.420000	12.950000	-9.100000	433.00	-0.15	-0.13	13.75	7.50	7.00	6.25	5.00	6.00	1.25	2.75	4.50	0.50	0.00	0.00	1.75	2.00	0.25	0.00	-0.190918	0.028320	0.961914	-9.240000	-21.070000	2.870000	763.00	-0.18	-0.03
2.03	3.50	2.50	3.00	3.50	0.75	5.25	0.25	2.75	1.25	1.25	0.50	0.50	3.75	1.75	0.25	0.25	-0.209961	0.093262	1.077148	-19.389999	22.680000	-12.740000	398.00	-0.09	-0.14	13.75	8.00	7.50	6.50	5.50	6.50	1.25	3.50	4.75	0.75	0.50	0.00	2.00	2.25	0.25	0.00	-0.182129	0.042480	0.968750	-8.610000	-20.020000	2.940000	823.00	-0.17	-0.04
2.04	2.00	1.75	2.50	2.75	0.75	5.00	0.25	2.50	1.50	1.50	0.75	0.50	4.00	2.25	0.75	0.25	-0.505859	0.005371	1.028809	-13.580000	36.189999	-14.490000	371.00	-0.04	-0.14	14.50	8.25	7.50	6.75	5.75	7.00	1.25	3.75	5.25	0.75	0.25	0.00	2.50	2.25	0.00	0.00	-0.179199	0.029785	0.964355	-8.050000	-18.620001	2.940000	860.00	-0.17	-0.04
2.05	2.00	1.50	2.25	1.75	0.50	3.50	0.00	2.50	1.75	1.50	1.00	0.75	4.50	2.50	0.50	0.50	-0.174805	0.014648	1.144531	17.360001	91.349998	-11.060000	341.00	-0.00	-0.14	14.50	8.25	7.75	7.25	6.50	7.25	1.25	4.50	5.50	1.00	0.25	0.00	2.50	2.50	0.00	0.00	-0.174805	0.033691	0.961426	-7.350000	-17.010000	3.010000	906.00	-0.16	-0.04
2.06	1.00	1.25	1.25	1.00	0.25	2.75	0.00	2.00	1.50	1.50	1.00	0.50	4.25	2.75	0.75	0.25	-0.294434	0.072266	1.372070	11.900000	166.039993	-7.910000	275.00	0.05	-0.14	14.75	8.75	8.00	7.25	6.50	7.50	1.50	4.75	5.50	1.00	0.50	0.25	2.75	3.00	0.50	0.00	-0.178223	0.028320	0.963379	-6.860000	-15.680000	3.080000	950.00	-0.15	-0.04
2.07	0.75	0.50	0.75	1.00	0.25	2.50	0.00	1.75	1.75	1.50	0.75	0.75	4.00	3.50	0.75	0.25	-0.257324	0.128906	1.399414	5.460000	196.350006	-9.870000	258.00	0.09	-0.12	14.75	8.75	8.00	7.50	6.75	7.75	1.50	5.00	5.75	0.75	0.50	0.25	3.00	3.00	0.25	0.00	-0.166992	0.023926	0.969238	-6.230000	-14.210000	3.080000	965.00	-0.16	-0.05
2.08	0.25	0.00	1.00	1.00	0.00	1.75	0.00	1.00	1.75	1.75	1.00	0.50	3.25	3.00	0.75	0.50	-0.344727	0.138184	1.497070	3.710000	221.970001	-13.090000	215.00	0.13	-0.10	14.75	8.50	8.00	8.00	7.25	8.00	1.50	5.25	6.00	1.00	0.50	0.25	3.25	3.25	0.25	0.00	-0.171387	0.024414	0.955078	-4.830000	-11.690000	3.220000	995.00	-0.15	-0.05
2.09	0.00	0.00	0.75	0.00	0.00	0.50	0.00	0.50	1.25	1.25	0.75	0.25	2.50	3.50	0.75	0.75	-0.393066	0.124512	1.600098	1.470000	243.740005	-16.520000	149.00	0.22	-0.05	14.75	8.50	8.00	8.00	7.25	8.25	1.75	5.25	6.00	1.25	0.50	0.50	3.25	3.25	0.25	0.00	-0.171875	0.027832	0.965332	-3.990000	-10.710000	3.360000	1009.00	-0.15	-0.05
2.10	0.00	0.00	0.50	0.00	0.00	1.00	0.00	0.75	1.00	1.25	0.50	0.00	1.25	3.00	0.75	0.00	-0.471191	0.098145	1.510254	-2.450000	259.350006	-16.870001	123.00	0.19	-0.04	14.75	8.75	8.00	7.75	7.50	8.25	1.75	5.50	5.75	1.00	0.50	0.25	3.25	3.00	0.50	0.00	-0.166992	0.029297	0.956543	-3.360000	-9.660000	3.500000	1007.00	-0.15	-0.05
2.11	0.00	0.00	0.00	0.00	0.00	0.25	0.00	0.25	1.00	1.00	0.25	0.00	0.75	2.75	0.50	0.00	-0.600098	0.156250	1.617188	-5.670000	264.390015	-17.360001	81.00	0.28	0.04	14.25	8.50	8.00	8.00	7.50	8.50	2.00	5.50	6.50	1.00	0.50	0.25	3.50	3.25	0.25	0.00	-0.171387	0.023926	0.964844	-2.730000	-8.820000	3.500000	1023.00	-0.14	-0.05
2.12	0.00	0.00	0.25	0.00	0.00	0.25	0.00	0.00	0.75	0.75	0.25	0.00	0.25	1.75	0.00	0.00	-0.557129	0.229004	1.518066	-18.200001	261.239990	-18.059999	51.00	0.24	0.09	14.50	8.50	8.00	7.75	7.75	8.50	1.75	5.50	6.50	1.25	0.75	0.50	3.50	3.00	0.50	0.00	-0.170410	0.030273	0.960449	-2.170000	-8.120000	3.570000	1031.00	-0.14	-0.05
2.13	0.00	0.00	0.50	0.00	0.00	0.25	0.00	0.00	0.50	0.50	0.00	0.00	0.00	0.75	0.00	0.00	-0.499512	0.218750	1.386719	-36.259998	257.390015	-21.420000	32.00	0.00	0.00	14.00	8.25	8.00	7.75	7.75	8.75	1.75	5.75	7.00	1.25	0.50	0.50	3.50	3.75	0.25	0.00	-0.168457	0.026367	0.960449	-1.820000	-7.420000	3.640000	1039.00	-0.13	-0.05
2.14	0.00	0.00	0.25	0.00	0.00	0.00	0.00	0.00	0.25	0.25	0.00	0.00	0.00	0.00	0.00	0.00	-0.317871	0.354004	1.368164	-45.150002	244.300003	-25.270000	10.00	0.00	0.00	14.50	8.25	8.00	8.00	7.75	8.75	1.75	5.75	6.75	1.25	0.50	0.50	3.50	3.50	0.50	0.00	-0.166016	0.029297	0.959961	-1.750000	-7.140000	3.710000	1046.00	-0.13	-0.05
2.15	0.00	0.00	0.25	0.00	0.00	0.25	0.00	0.00	0.00	0.25	0.00	0.00	0.00	0.00	0.00	0.00	0.454102	0.402832	1.545898	-33.529999	215.880005	-27.930000	10.00	0.00	0.00	14.25	8.00	8.00	7.75	7.75	8.75	2.00	5.75	7.00	1.25	0.50	0.50	3.75	3.50	0.50	0.00	-0.166992	0.024902	0.957520	-1.680000	-6.930000	3.640000	1047.00	-0.13	-0.05
2.16	0.25	0.00	0.00	0.00	0.00	0.00	0.00	0.00	0.00	0.25	0.00	0.00	0.00	0.00	0.00	0.00	1.159180	0.500488	1.761719	-2.450000	169.750000	-28.840000	6.00	0.00	0.00	13.75	8.00	8.00	7.75	7.50	8.50	2.00	5.75	7.50	1.25	0.50	0.25	3.75	3.50	0.50	0.00	-0.164551	0.030762	0.955078	-1.470000	-6.510000	3.570000	1039.00	-0.13	-0.04
2.17	0.00	0.00	0.25	0.25	0.00	0.00	0.00	0.00	0.00	0.25	0.00	0.00	0.00	0.00	0.00	0.00	1.499512	0.411621	2.624023	15.050000	88.059998	-31.010000	10.00	0.00	0.00	13.25	7.50	7.75	7.75	7.75	8.50	1.75	5.75	7.50	1.25	1.00	0.50	4.00	3.75	0.25	0.00	-0.162109	0.029297	0.952148	-1.260000	-6.160000	3.430000	1034.00	-0.12	-0.05
2.18	0.00	0.00	0.25	0.00	0.00	0.00	0.00	0.00	0.00	0.50	0.00	0.00	0.00	0.00	0.00	0.00	1.342285	0.292969	1.810059	17.639999	-1.190000	-23.799999	10.00	0.00	0.00	13.00	7.25	7.75	7.50	7.50	8.75	2.00	6.00	7.50	1.25	0.75	0.50	4.25	3.50	0.50	0.00	-0.161133	0.028809	0.957031	-1.190000	-6.160000	3.500000	1034.00	-0.12	-0.05
2.19	0.00	0.00	0.00	0.00	0.00	0.00	0.00	0.00	0.25	0.25	0.00	0.00	0.00	0.00	0.00	0.00	1.196289	0.108398	1.034180	1.680000	-54.320000	-16.240000	7.00	0.00	0.00	12.50	7.00	7.75	7.50	7.50	8.75	2.00	6.00	7.50	1.25	1.00	0.25	4.25	3.50	0.50	0.00	-0.170898	0.022461	0.962402	-1.400000	-6.230000	3.500000	1025.00	-0.11	-0.05
2.20	0.00	0.00	0.25	0.00	0.00	0.00	0.00	0.00	0.00	0.25	0.00	0.00	0.00	0.00	0.00	0.00	1.042480	0.101562	0.760254	-12.950000	-72.940002	-13.300000	6.00	0.00	0.00	12.00	6.25	7.50	7.50	7.50	8.75	2.00	6.00	7.50	1.50	0.75	0.75	4.25	3.50	0.50	0.00	-0.165039	0.026367	0.956543	-1.470000	-6.370000	3.360000	1014.00	-0.11	-0.05
2.21	0.00	0.00	0.00	0.00	0.00	0.00	0.00	0.00	0.00	0.25	0.00	0.00	0.00	0.00	0.00	0.00	1.028320	0.018555	0.958008	0.770000	-90.370003	-18.340000	3.00	0.00	0.00	12.00	6.50	7.50	7.25	7.50	9.00	2.00	6.00	7.50	1.50	1.00	0.50	4.25	3.50	0.75	0.00	-0.165039	0.026367	0.956543	-1.470000	-6.370000	3.360000	1020.00	-0.11	-0.05
2.22	0.00	0.00	0.00	0.00	0.00	0.00	0.00	0.00	0.00	0.25	0.00	0.00	0.00	0.00	0.00	0.00	0.979492	-0.047852	1.058105	6.930000	-109.480003	-23.450001	3.00	0.00	0.00	11.75	6.25	7.50	7.00	7.50	9.00	2.00	6.25	7.50	1.50	1.00	0.50	4.50	3.50	0.50	0.00	-0.169434	0.027832	0.950195	-1.470000	-6.720000	3.220000	1014.00	-0.10	-0.05
2.23	0.00	0.00	0.00	0.00	0.00	0.00	0.00	0.00	0.00	0.25	0.00	0.00	0.00	0.00	0.00	0.00	0.883789	-0.092285	1.142090	7.770000	-132.930008	-28.210001	3.00	0.00	0.00	10.75	5.75	7.25	7.00	7.75	9.00	2.00	6.25	7.75	1.75	1.00	0.75	4.75	3.75	0.00	0.00	-0.161133	0.029297	0.949707	-1.400000	-7.420000	3.220000	1006.00	-0.10	-0.05
2.24	0.00	0.00	0.00	0.00	0.00	0.00	0.00	0.00	0.00	0.25	0.00	0.00	0.00	0.00	0.00	0.00	0.751953	-0.098633	1.103027	4.970000	-154.699997	-32.549999	3.00	0.00	0.00	10.25	5.00	7.25	6.75	7.75	9.25	2.25	6.25	7.75	1.75	1.50	0.75	4.75	4.00	0.75	0.00	-0.156738	0.012207	0.961914	-1.330000	-7.700000	3.290000	1014.00	-0.08	-0.05
2.25	0.00	0.00	0.00	0.00	0.00	0.00	0.00	0.00	0.00	0.25	0.00	0.00	0.00	0.00	0.00	0.00	0.593262	-0.077148	1.041016	3.290000	-171.289993	-36.400002	3.00	0.00	0.00	9.75	5.25	7.00	6.75	7.75	9.25	2.25	6.25	7.75	1.75	1.25	1.00	5.00	4.00	0.75	0.00	-0.163574	0.044434	0.959473	-1.400000	-7.700000	3.150000	1010.00	-0.08	-0.06
2.26	0.00	0.00	0.00	0.00	0.00	0.00	0.00	0.00	0.00	0.00	0.00	0.00	0.00	0.00	0.00	0.00	0.441406	-0.039551	0.979492	6.090000	-182.070007	-38.500000	0.00	0.00	0.00	9.75	5.00	7.00	6.50	7.75	9.50	2.50	6.50	8.00	1.75	1.50	1.00	5.25	4.25	0.75	0.00	-0.160645	0.023926	0.952148	-1.400000	-7.630000	3.150000	1028.00	-0.07	-0.06
2.27	0.00	0.00	0.00	0.00	0.00	0.00	0.00	0.00	0.00	0.25	0.00	0.00	0.00	0.00	0.00	0.00	0.279297	-0.029785	0.936523	15.470000	-187.180008	-38.220001	3.00	0.00	0.00	9.25	4.75	6.75	6.50	8.00	9.75	2.50	6.50	8.00	2.00	1.75	1.00	5.50	4.25	0.75	0.00	-0.158691	0.028809	0.956055	-1.330000	-7.630000	3.080000	1031.00	-0.07	-0.06
2.28	0.00	0.00	0.00	0.00	0.00	0.00	0.00	0.00	0.00	0.25	0.00	0.00	0.00	0.00	0.00	0.00	0.132812	-0.026855	0.922852	28.210001	-187.669998	-35.070000	3.00	0.00	0.00	9.00	4.00	6.75	6.25	8.00	9.75	2.75	6.50	8.00	2.25	1.50	1.00	5.50	4.50	1.00	0.25	-0.167969	0.035156	0.955078	-1.260000	-7.700000	3.150000	1028.00	-0.06	-0.06
2.29	0.00	0.00	0.00	0.00	0.00	0.00	0.00	0.00	0.00	0.00	0.00	0.00	0.00	0.00	0.00	0.00	-0.015137	-0.041504	0.946777	40.040001	-184.100006	-28.980000	0.00	0.00	0.00	8.50	4.00	6.50	6.00	8.00	10.00	2.75	6.75	8.00	2.25	2.00	1.25	5.75	4.75	1.00	0.25	-0.159668	0.027344	0.951172	-1.050000	-7.630000	3.360000	1038.00	-0.05	-0.06
2.30	0.00	0.00	0.00	0.00	0.00	0.00	0.00	0.00	0.00	0.25	0.00	0.00	0.00	0.00	0.00	0.00	-0.144531	-0.060547	1.020020	47.250000	-177.800003	-21.139999	3.00	0.00	0.00	8.00	3.50	6.25	6.00	8.00	10.00	2.75	6.75	8.00	2.50	2.00	1.50	6.00	4.75	1.00	0.25	-0.156250	0.026855	0.944336	-0.700000	-7.840000	3.290000	1031.00	-0.04	-0.06
2.31	0.00	0.00	0.00	0.00	0.00	0.00	0.00	0.00	0.00	0.25	0.00	0.00	0.00	0.00	0.00	0.00	-0.250488	-0.074219	1.124512	48.230000	-172.130005	-12.460000	3.00	0.00	0.00	7.75	3.25	6.25	5.75	8.00	10.25	3.00	7.00	8.25	2.75	2.25	1.50	6.25	5.00	1.25	0.50	-0.162598	0.029785	0.954590	-0.350000	-7.420000	3.360000	1054.00	-0.04	-0.06
2.32	0.00	0.00	0.00	0.00	0.00	0.00	0.00	0.00	0.00	0.25	0.00	0.00	0.00	0.00	0.00	0.00	-0.335938	-0.052734	1.196777	45.290001	-168.000000	-3.710000	3.00	0.00	0.00	7.25	3.00	6.00	5.50	8.00	10.25	3.25	7.00	8.25	2.75	2.50	2.00	6.25	5.00	1.25	0.25	-0.162109	0.030273	0.963867	0.210000	-6.860000	3.640000	1051.00	-0.03	-0.06
2.33	0.00	0.00	0.00	0.00	0.00	0.00	0.00	0.00	0.00	0.25	0.00	0.00	0.00	0.00	0.00	0.00	-0.416504	-0.021484	1.252441	43.119999	-164.360001	4.480000	3.00	0.00	0.00	6.75	2.50	5.50	5.50	8.00	10.25	3.25	7.25	8.50	3.00	3.00	2.00	6.50	5.25	1.25	0.50	-0.160156	0.032715	0.953613	0.770000	-6.160000	3.640000	1057.00	-0.02	-0.07
2.34	0.00	0.00	0.00	0.00	0.00	0.00	0.00	0.00	0.00	0.00	0.00	0.00	0.00	0.00	0.00	0.00	-0.514648	0.005371	1.306641	43.400002	-161.490005	12.320000	0.00	0.00	0.00	6.50	2.25	5.50	5.25	8.00	10.50	3.25	7.25	8.50	3.25	3.00	2.25	6.75	5.00	1.50	0.50	-0.155762	0.034668	0.957031	1.190000	-5.320000	3.500000	1061.00	-0.01	-0.07
2.35	0.00	0.00	0.00	0.00	0.00	0.00	0.00	0.00	0.00	0.25	0.00	0.00	0.00	0.00	0.00	0.00	-0.630371	0.006348	1.319336	41.650002	-159.460007	19.530001	3.00	0.00	0.00	6.25	2.00	5.25	5.00	7.75	10.25	3.25	7.25	8.75	3.50	3.25	2.50	7.00	5.50	1.50	0.25	-0.163086	0.035645	0.959473	1.680000	-4.270000	3.570000	1061.00	-0.00	-0.07
2.36	0.00	0.00	0.00	0.00	0.00	0.00	0.00	0.00	0.00	0.25	0.00	0.00	0.00	0.00	0.00	0.00	-0.820801	0.011719	1.301270	24.710001	-155.889999	30.520000	3.00	0.00	0.00	5.50	1.75	5.00	4.75	7.75	10.50	3.50	7.50	8.75	3.50	3.50	2.50	7.25	5.50	1.75	0.75	-0.166016	0.035645	0.952148	1.890000	-3.360000	3.780000	1067.00	0.01	-0.07
2.37	0.00	0.00	0.00	0.00	0.00	0.00	0.00	0.00	0.00	0.25	0.00	0.00	0.00	0.00	0.00	0.00	-0.866699	0.017578	1.279297	14.910000	-154.490005	34.160000	3.00	0.00	0.00	5.25	1.50	4.25	3.25	7.50	10.25	3.50	7.50	8.75	4.50	3.75	2.75	7.50	5.75	1.75	0.75	-0.167969	0.043945	0.958008	2.450000	-2.030000	3.570000	1049.00	0.02	-0.07
2.38	0.00	0.00	0.00	0.00	0.00	0.00	0.00	0.00	0.00	0.00	0.00	0.00	0.00	0.00	0.00	0.00	-0.895996	0.015625	1.270508	5.740000	-154.139999	36.400002	0.00	0.00	0.00	4.00	1.25	3.75	3.25	7.25	10.25	3.75	7.50	9.00	5.00	4.25	3.25	7.50	5.50	1.75	0.50	-0.171387	0.031738	0.954590	2.870000	-1.120000	3.360000	1043.00	0.04	-0.07
2.39	0.00	0.00	0.00	0.00	0.00	0.00	0.00	0.00	0.00	0.25	0.00	0.00	0.00	0.00	0.00	0.00	-0.919922	0.006348	1.289551	-2.590000	-156.729996	37.869999	3.00	0.00	0.00	3.50	1.25	2.75	3.00	7.00	10.00	3.75	7.50	9.00	5.25	5.25	3.50	7.75	6.00	2.00	0.75	-0.167480	0.036621	0.956055	3.150000	-0.560000	3.430000	1045.00	0.05	-0.07
2.40	0.00	0.00	0.00	0.00	0.00	0.00	0.00	0.00	0.00	0.25	0.00	0.00	0.00	0.00	0.00	0.00	-0.950195	-0.005859	1.238770	-8.330000	-162.680008	38.920002	3.00	0.00	0.00	3.00	1.25	2.75	2.75	6.75	10.00	4.00	7.50	9.25	5.25	5.50	3.75	8.00	5.75	2.25	1.00	-0.169922	0.040039	0.959961	3.290000	0.490000	3.360000	1052.00	0.06	-0.08
2.41	0.00	0.00	0.00	0.00	0.00	0.00	0.00	0.00	0.00	0.25	0.00	0.00	0.00	0.00	0.00	0.00	-0.989746	-0.019043	1.113770	-11.270000	-167.789993	39.689999	3.00	0.00	0.00	2.50	1.00	2.00	2.25	6.50	9.75	3.75	7.75	9.50	5.75	6.00	4.00	8.00	6.25	2.25	1.00	-0.168457	0.043457	0.956543	2.940000	1.890000	3.150000	1045.00	0.07	-0.08
2.42	0.00	0.00	0.00	0.00	0.00	0.00	0.00	0.00	0.00	0.00	0.00	0.00	0.00	0.00	0.00	0.00	-1.048828	-0.042969	0.977539	-14.140000	-168.070007	40.529999	0.00	0.00	0.00	1.75	0.50	1.50	2.00	6.25	9.50	4.00	7.50	9.75	6.25	6.50	5.00	8.25	6.50	2.25	1.25	-0.171875	0.034180	0.949219	2.520000	3.500000	2.940000	1049.00	0.09	-0.08
2.43	0.00	0.00	0.00	0.00	0.00	0.00	0.00	0.00	0.00	0.25	0.00	0.00	0.00	0.00	0.00	0.00	-1.147461	-0.058105	0.882324	-18.830000	-163.589996	41.650002	3.00	0.00	0.00	2.00	0.75	1.50	2.00	5.75	9.25	4.25	7.75	9.75	6.50	7.00	5.25	8.50	6.50	2.50	1.25	-0.170898	0.043945	0.971191	2.520000	4.970000	2.800000	1072.00	0.09	-0.08
2.44	0.00	0.00	0.00	0.00	0.00	0.00	0.00	0.00	0.00	0.25	0.00	0.00	0.00	0.00	0.00	0.00	-1.247070	-0.050781	0.777832	-25.480000	-156.520004	41.650002	3.00	0.00	0.00	1.25	0.75	1.25	1.50	5.50	8.75	4.25	7.50	10.00	7.00	7.25	5.50	8.75	7.25	2.50	1.25	-0.159668	0.024414	0.966309	3.500000	7.280000	2.800000	1065.00	0.11	-0.08
2.45	0.00	0.00	0.00	0.00	0.00	0.00	0.00	0.00	0.00	0.25	0.00	0.00	0.00	0.00	0.00	0.00	-1.333008	-0.020020	0.649414	-31.360001	-146.160004	38.990002	3.00	0.00	0.00	1.50	0.50	1.00	1.25	5.25	8.50	4.25	7.75	10.25	7.25	7.50	6.00	9.00	7.50	2.75	1.50	-0.161133	0.041504	0.964844	7.070000	11.970000	3.570000	1083.00	0.12	-0.08
2.46	0.00	0.00	0.00	0.00	0.00	0.00	0.00	0.00	0.00	0.25	0.00	0.00	0.00	0.00	0.00	0.00	-1.409668	0.043457	0.544922	-34.930000	-131.949997	33.670002	3.00	0.00	0.00	1.00	0.50	1.00	1.00	5.00	8.50	4.25	7.75	10.50	7.50	7.75	6.50	9.00	7.50	2.75	1.50	-0.159668	0.055176	0.978516	10.640000	17.360001	3.220000	1087.00	0.12	-0.08
2.47	0.00	0.00	0.00	0.00	0.00	0.00	0.00	0.00	0.00	0.00	0.00	0.00	0.00	0.00	0.00	0.00	-1.476562	0.087891	0.482910	-35.980000	-115.150002	26.180000	0.00	0.00	0.00	1.00	0.50	0.75	0.75	4.50	8.25	4.25	7.50	10.75	7.75	8.25	6.75	9.25	7.75	3.25	1.75	-0.165527	0.038086	0.979980	11.690000	24.639999	3.080000	1095.00	0.13	-0.08
2.48	0.00	0.00	0.00	0.00	0.00	0.00	0.00	0.00	0.00	0.25	0.00	0.00	0.00	0.00	0.00	0.00	-1.527832	0.136719	0.418457	-33.810001	-97.370003	17.150000	3.00	0.00	0.00	1.25	0.25	1.00	0.75	4.00	7.75	4.25	7.50	11.00	7.75	8.50	7.25	9.50	8.00	3.50	1.75	-0.179199	0.042969	0.987793	13.370000	32.549999	3.360000	1108.00	0.14	-0.07
2.49	0.00	0.00	0.00	0.00	0.00	0.00	0.00	0.00	0.00	0.25	0.00	0.00	0.00	0.00	0.00	0.00	-1.575684	0.170410	0.364746	-27.930000	-79.099998	7.630000	3.00	0.00	0.00	0.25	0.25	0.50	0.75	3.75	7.50	4.25	7.25	11.25	8.25	8.75	7.25	9.75	8.25	3.50	2.00	-0.192871	0.033203	0.991211	16.240000	41.860001	4.060000	1097.00	0.15	-0.08
2.50	0.00	0.00	0.00	0.00	0.00	0.00	0.00	0.00	0.00	0.25	0.00	0.00	0.00	0.00	0.00	0.00	-1.653320	0.187012	0.297852	-19.110001	-59.709999	-1.470000	3.00	0.00	0.00	0.25	0.00	0.50	0.75	3.25	7.25	4.50	7.25	11.75	8.50	9.00	7.50	10.00	8.75	3.75	2.00	-0.201660	0.038086	0.996094	20.090000	51.799999	4.900000	1117.00	0.16	-0.07
2.51	0.00	0.00	0.00	0.00	0.00	0.00	0.00	0.00	0.00	0.25	0.00	0.00	0.00	0.25	0.00	0.00	-1.740723	0.145996	0.231934	-1.470000	-17.010000	-17.850000	6.00	0.00	0.00	0.00	0.00	0.25	0.25	3.00	6.75	4.25	7.00	11.75	8.50	9.25	7.75	10.25	8.75	4.00	2.00	-0.204102	0.052246	1.006836	22.960001	61.459999	5.460000	1097.00	0.17	-0.07
2.52	0.00	0.00	0.00	0.00	0.00	0.00	0.00	0.00	0.00	0.00	0.00	0.00	0.00	0.00	0.00	0.00	-1.756836	0.129883	0.228516	2.240000	5.320000	-25.059999	0.00	0.00	0.00	0.75	0.00	0.00	0.50	2.50	6.25	4.25	7.00	11.75	9.00	9.50	8.00	10.25	9.25	4.25	2.25	-0.239746	0.063477	1.022949	25.340000	83.860001	6.300000	1116.00	0.17	-0.07
2.53	0.00	0.00	0.50	0.00	0.00	0.00	0.00	0.00	0.00	0.00	0.00	0.00	0.00	0.00	0.00	0.00	-3.124023	-1.004883	0.635254	-3.220000	22.820000	-28.910000	7.00	0.00	0.00	0.00	0.00	0.00	0.25	2.50	6.00	4.25	6.75	12.25	9.00	9.75	8.00	10.25	9.50	4.50	2.25	-0.254883	0.067871	1.043945	26.600000	96.529999	6.160000	1112.00	0.18	-0.07
2.54	1.00	0.50	0.25	0.25	0.00	0.00	0.00	0.00	0.00	0.00	0.00	0.00	0.00	0.00	0.00	0.00	1.226562	-0.111816	-0.511230	-47.740002	120.260002	-15.820000	25.00	0.00	0.00	0.25	0.00	0.00	0.00	1.75	5.50	4.00	6.50	12.50	9.25	9.75	8.25	10.00	9.75	4.25	2.25	-0.278809	0.062988	1.024902	26.320000	107.800003	5.600000	1094.00	0.18	-0.06
2.55	2.00	1.50	1.00	0.75	0.00	0.00	0.00	0.00	0.00	0.00	0.00	0.00	0.00	0.00	0.00	0.00	0.287109	-0.222656	1.712402	-43.259998	131.180008	-19.040001	65.00	-0.36	-0.02	0.00	0.00	0.00	0.00	1.75	5.25	4.00	6.25	12.75	9.25	10.25	8.25	10.00	10.00	4.75	2.50	-0.294922	0.090820	1.024414	24.710001	120.120003	4.970000	1103.00	0.19	-0.06
2.56	3.75	2.50	1.75	1.25	0.00	0.00	0.00	0.00	0.00	0.00	0.00	0.00	0.00	0.00	0.00	0.00	-0.008301	-0.105469	0.445801	-43.259998	120.120003	-28.139999	114.00	-0.36	-0.01	0.00	0.00	0.00	0.00	1.25	4.75	4.00	5.75	12.75	9.25	10.00	8.25	9.75	10.25	5.00	2.50	-0.307129	0.103516	1.055664	22.049999	132.089996	3.710000	1081.00	0.20	-0.06
2.57	5.50	3.75	2.25	1.75	0.00	0.00	0.00	0.00	0.00	0.00	0.00	0.00	0.00	0.00	0.00	0.00	0.177246	0.042480	0.472168	-43.330002	172.479996	-29.750000	162.00	-0.36	-0.01	0.00	0.00	0.00	0.00	1.00	4.00	3.75	5.50	13.00	9.25	10.00	8.25	9.75	10.50	5.00	2.75	-0.342285	0.105957	1.029297	19.389999	142.520004	1.890000	1067.00	0.20	-0.05
2.58	6.25	5.00	3.50	1.75	0.00	0.00	0.00	0.00	0.00	0.00	0.00	0.00	0.00	0.00	0.00	0.00	0.007812	0.190430	0.917969	-40.599998	212.029999	-23.870001	202.00	-0.36	-0.01	0.00	0.00	0.00	0.00	0.75	3.25	3.75	5.25	13.00	9.25	10.00	8.00	9.50	11.00	5.00	3.00	-0.367188	0.128418	1.042480	14.840000	151.130005	-0.910000	1050.00	0.21	-0.05
2.59	7.75	5.00	3.00	2.00	0.00	0.00	0.00	0.00	0.00	0.00	0.00	0.00	0.00	0.00	0.00	0.00	-0.289062	0.373535	1.002930	-19.320000	239.889999	-3.360000	217.00	-0.37	-0.00	0.00	0.00	0.00	0.00	0.75	2.50	3.75	5.00	13.00	9.25	10.00	8.00	9.25	11.50	5.00	3.00	-0.411621	0.115723	1.021973	10.640000	160.649994	-3.570000	1039.00	0.22	-0.04
2.60	8.25	5.25	4.00	2.00	0.00	0.00	0.00	0.00	0.00	0.00	0.00	0.00	0.00	0.00	0.00	0.00	-0.520020	0.095215	1.633301	10.780000	253.330002	21.840000	240.00	-0.36	0.00	0.00	0.00	0.00	0.00	0.50	2.00	3.75	4.75	13.00	9.25	10.00	7.75	9.00	11.75	5.25	3.00	-0.424316	0.102051	1.041504	6.090000	171.009995	-5.950000	1024.00	0.22	-0.04
2.61	9.25	5.50	4.50	2.25	0.00	0.00	0.00	0.00	0.25	0.25	0.00	0.00	0.00	0.00	0.00	0.00	-0.639648	-0.400879	1.801758	39.619999	231.070007	36.259998	272.00	-0.35	0.01	0.00	0.00	0.00	0.00	0.50	1.50	3.75	4.25	13.00	9.00	9.75	7.50	8.75	12.25	5.25	3.25	-0.438965	0.122070	1.082031	2.030000	182.070007	-8.400000	1003.00	0.23	-0.03
2.62	10.25	5.75	5.25	3.50	0.25	0.25	0.00	0.00	0.25	0.25	0.00	0.00	0.00	0.00	0.00	0.00	-0.707520	-0.606445	1.786621	68.949997	192.220001	31.639999	320.00	-0.34	-0.00	0.00	0.00	0.00	0.00	0.25	1.00	3.75	3.50	12.75	9.00	9.50	7.25	8.25	12.50	5.25	3.50	-0.490234	0.128418	1.138672	-6.020000	194.529999	-11.060000	969.00	0.24	-0.02
2.63	11.75	7.00	5.50	3.75	0.50	0.25	0.00	0.00	0.00	0.50	0.00	0.00	0.00	0.50	0.00	0.00	-0.633789	-0.359375	1.655762	91.139999	158.339996	12.460000	366.00	-0.33	-0.00	0.00	0.00	0.00	0.00	0.00	0.75	4.00	3.00	12.50	8.75	9.00	6.50	7.75	12.75	5.00	3.25	-0.550781	0.159180	1.219727	-15.960000	209.789993	-14.350000	927.00	0.24	-0.01
2.64	12.50	7.75	6.00	5.00	0.50	0.50	0.00	0.00	0.50	0.50	0.00	0.00	0.00	0.00	0.00	0.00	-0.516113	0.480469	1.583496	78.190002	131.529999	-11.270000	413.00	-0.33	-0.01	0.00	0.00	0.00	0.00	0.00	0.50	4.25	2.50	12.25	8.50	8.75	6.00	7.25	12.75	5.00	3.25	-0.600586	0.176758	1.309082	-24.990000	226.520004	-17.290001	898.00	0.24	0.00
2.65	12.50	8.25	7.50	5.50	0.75	1.75	0.25	0.00	0.75	0.75	0.00	0.00	0.00	0.50	0.00	0.00	-0.459473	0.048340	0.517578	-9.170000	12.600000	3.150000	481.00	-0.30	-0.01	0.00	0.00	0.00	0.00	0.00	0.25	4.25	2.00	12.00	8.25	8.00	5.50	7.00	12.75	4.50	3.00	-0.620605	0.223145	1.367676	-35.139999	243.740005	-22.400000	852.00	0.25	0.01
2.66	13.25	8.25	7.50	5.50	0.75	1.25	0.25	0.50	1.00	1.00	0.00	0.00	0.00	1.25	0.00	0.00	-0.246094	-0.059082	1.098145	-24.710001	-5.320000	-3.640000	508.00	-0.28	-0.01	0.00	0.00	0.00	0.00	0.00	0.00	4.25	1.75	11.50	7.75	7.50	4.75	6.50	12.75	4.25	2.75	-0.838379	0.349121	1.538574	-60.340000	274.610016	-39.340000	805.00	0.25	0.02
2.67	13.50	8.75	8.00	6.00	1.00	2.25	0.50	1.00	1.50	1.25	0.00	0.00	0.00	2.00	0.00	0.00	-0.212891	0.181152	0.883789	-24.570000	-11.620000	-2.730000	578.00	-0.25	-0.01	0.00	0.00	0.00	0.00	0.00	0.50	4.25	1.25	11.00	7.50	6.75	4.25	6.00	12.25	4.00	2.50	-0.877441	0.385742	1.598145	-66.080002	285.110016	-53.200001	761.00	0.25	0.03
2.68	14.25	9.25	8.75	6.00	1.25	2.75	0.50	1.00	1.75	1.00	0.00	0.00	0.50	2.50	0.00	0.00	-0.277832	0.042969	1.000000	-22.469999	-16.030001	-2.730000	624.00	-0.25	-0.01	0.00	0.00	0.00	0.00	0.00	0.00	4.00	1.00	10.50	7.00	6.00	3.50	5.50	11.75	3.25	2.25	-0.966309	0.451172	1.816406	-75.599998	292.110016	-68.250000	691.00	0.25	0.04
2.69	14.75	9.50	9.25	6.25	1.25	2.75	0.50	1.00	2.25	1.50	0.00	0.00	0.25	3.25	0.00	0.00	-0.236816	0.062988	0.950684	-21.420000	-15.050000	-3.850000	662.00	-0.23	-0.00	0.00	0.00	0.00	0.00	0.00	0.00	3.75	0.75	9.75	6.50	5.50	2.50	5.00	10.75	3.00	2.00	-0.993164	0.299805	1.844727	-82.180000	294.559998	-81.620003	625.00	0.26	0.05
2.70	15.75	9.75	9.50	6.75	1.50	3.25	0.75	1.25	2.75	1.75	0.00	0.00	0.75	3.75	0.00	0.00	-0.276367	0.033203	0.967773	-18.620001	-14.490000	-4.060000	727.00	-0.22	-0.01	0.00	0.00	0.00	0.00	0.00	0.00	3.25	0.25	9.25	5.75	4.25	2.00	4.75	9.75	2.25	1.50	-1.074707	0.332520	2.062012	-90.230003	290.290009	-89.669998	543.00	0.26	0.06
2.71	16.75	10.00	10.00	7.25	1.50	3.25	0.75	1.50	3.00	2.00	0.50	0.00	1.25	4.75	0.00	0.00	-0.233887	0.061523	0.947754	-16.590000	-12.880000	-3.920000	788.00	-0.20	-0.01	0.00	0.00	0.00	0.00	0.00	0.00	2.50	0.25	8.75	5.00	3.00	1.50	3.25	8.50	2.00	0.75	-0.879883	0.227051	1.875488	-92.820000	281.119995	-94.570000	454.00	0.26	0.08
2.72	17.00	10.25	10.25	7.00	1.75	3.25	1.00	1.50	3.75	2.25	0.00	0.00	1.50	5.25	0.00	0.00	-0.231445	0.046875	0.960449	-15.540000	-11.900000	-4.200000	818.00	-0.19	-0.00	0.00	0.00	0.00	0.00	0.00	0.00	1.75	0.00	8.00	4.00	2.00	1.25	2.50	7.50	1.50	0.25	-0.616211	0.306641	1.772461	-100.590004	276.570007	-97.090004	369.00	0.27	0.10
2.73	16.75	10.50	10.50	7.50	2.25	3.75	1.00	2.00	4.25	2.25	0.25	0.00	1.25	5.50	0.00	0.00	-0.221191	0.034180	0.953125	-14.350000	-11.270000	-3.990000	861.00	-0.18	-0.00	0.00	0.00	0.00	0.00	0.00	0.00	1.25	0.00	7.25	3.00	1.25	0.75	1.50	5.75	1.00	0.00	-0.358887	0.358398	1.557617	-110.040001	279.790009	-98.209999	284.00	0.27	0.13
2.74	18.00	10.75	10.50	7.75	2.50	4.25	1.25	2.00	4.50	2.50	0.25	0.00	1.75	6.50	0.00	0.00	-0.230469	0.031738	0.952637	-12.670000	-10.990000	-3.010000	919.00	-0.17	-0.00	0.00	0.00	0.00	0.00	0.00	0.00	0.75	0.00	5.25	2.00	0.50	0.50	1.00	3.50	0.00	0.00	-0.011719	0.393066	1.314941	-110.389999	292.040009	-98.769997	179.00	0.26	0.15
2.75	18.00	10.50	11.00	7.75	2.75	4.50	1.25	2.25	5.25	3.00	0.25	0.00	1.50	7.50	0.00	0.00	-0.209961	0.023926	0.964844	-10.850000	-10.570000	-1.680000	959.00	-0.16	0.00	0.00	0.00	0.00	0.00	0.00	0.00	0.50	0.00	3.50	1.25	0.25	0.25	1.00	1.75	0.00	0.00	0.134277	0.369141	0.786133	-103.180000	317.100006	-102.620003	114.00	0.25	0.13
2.76	17.50	10.50	10.75	8.00	2.75	4.75	1.50	2.50	5.50	3.25	0.25	0.00	2.25	7.75	0.00	0.00	-0.227051	0.013184	0.959473	-8.750000	-9.940000	-0.490000	983.00	-0.15	-0.00	0.00	0.00	0.00	0.00	0.00	0.00	0.25	0.00	1.75	1.25	0.25	0.00	0.50	0.75	0.00	0.00	-0.151855	0.758789	1.041016	-102.550003	350.700012	-107.520004	63.00	0.25	0.13
2.77	17.25	10.50	11.00	7.75	3.25	5.00	1.75	2.75	6.25	3.75	0.50	0.25	2.50	8.00	0.25	0.00	-0.218750	0.028320	0.962891	-7.210000	-7.980000	0.560000	1031.00	-0.13	-0.00	0.25	0.00	0.00	0.00	0.00	0.00	0.25	0.00	1.50	1.00	0.25	0.00	0.25	0.75	0.00	0.00	0.109375	1.040039	3.438965	-51.170002	261.029999	-93.449997	57.00	0.22	0.15
2.78	17.00	10.25	11.00	7.75	3.50	5.00	2.00	3.00	6.50	4.00	0.25	0.25	2.25	8.25	0.50	0.00	-0.215820	0.025391	0.956543	-6.300000	-5.950000	1.050000	1044.00	-0.13	0.00	0.00	0.00	0.00	0.00	0.00	0.00	0.25	0.00	1.00	1.00	0.00	0.00	0.00	0.50	0.00	0.00	0.379395	0.859863	3.400879	-8.400000	108.709999	-66.010002	38.00	0.00	0.00
2.79	17.00	10.00	10.75	7.75	3.50	5.25	2.25	3.25	7.00	4.75	0.25	0.25	3.00	8.50	0.50	0.00	-0.226074	0.036621	0.958008	-5.810000	-4.270000	1.120000	1078.00	-0.12	-0.00	0.00	0.00	0.00	0.00	0.00	0.00	0.00	0.00	1.00	1.00	0.25	0.00	0.00	0.00	0.00	0.00	0.519043	0.479980	2.508789	-32.270000	-20.440001	-37.450001	31.00	0.00	0.00
2.80	16.50	9.50	10.75	7.75	3.75	5.25	2.50	3.50	7.50	5.25	0.75	0.25	2.50	8.75	0.75	0.00	-0.223145	0.049316	0.955566	-5.530000	-2.240000	0.420000	1099.00	-0.10	0.00	0.00	0.00	0.00	0.00	0.00	0.00	0.00	0.00	0.75	0.75	0.25	0.00	0.25	0.25	0.00	0.00	0.557129	0.374512	1.587891	-91.209999	-93.519997	-16.520000	29.00	0.00	0.00
2.81	16.50	9.75	10.75	8.00	3.75	5.50	2.50	3.75	7.50	5.50	0.75	0.50	3.25	9.00	0.50	0.00	-0.225098	0.043457	0.960449	-5.180000	-1.540000	0.140000	1127.00	-0.10	-0.00	0.00	0.00	0.00	0.00	0.00	0.00	0.00	0.00	1.00	0.75	0.00	0.00	0.00	0.50	0.00	0.00	0.439941	0.555664	0.743164	-114.870003	-129.360001	-0.350000	30.00	0.00	0.00
2.82	16.25	10.00	10.75	7.75	4.00	5.50	2.75	3.75	7.75	5.75	0.75	0.25	3.25	9.00	1.00	0.00	-0.219238	0.039551	0.955078	-4.900000	-0.630000	-0.210000	1141.00	-0.10	-0.00	0.25	0.00	0.00	0.00	0.00	0.00	0.00	0.00	0.50	0.50	0.25	0.00	0.00	0.00	0.00	0.00	0.371582	0.565918	0.649902	-75.599998	-135.100006	-1.330000	20.00	0.00	0.00
2.83	16.25	9.75	11.25	8.00	4.00	5.50	2.75	4.00	8.00	6.25	0.75	0.25	3.25	9.25	0.75	0.00	-0.219238	0.043945	0.959473	-4.480000	0.140000	-0.350000	1162.00	-0.09	-0.00	0.00	0.00	0.00	0.00	0.00	0.00	0.00	0.00	0.50	0.50	0.00	0.00	0.00	0.00	0.00	0.00	0.300781	0.477051	0.635254	-33.599998	-140.979996	-3.850000	14.00	0.00	0.00
2.84	16.25	9.75	11.00	8.00	4.00	5.50	2.75	4.00	8.00	6.25	0.75	0.50	4.00	9.00	0.50	0.00	-0.217773	0.037109	0.958496	-4.480000	1.330000	-0.560000	1164.00	-0.09	-0.01	0.00	0.00	0.00	0.00	0.00	0.00	0.00	0.00	0.25	0.50	0.00	0.00	0.00	0.00	0.00	0.00	0.259277	0.402344	0.671875	-9.170000	-146.789993	-5.250000	10.00	0.00	0.00
2.85	16.00	9.50	10.75	8.00	4.00	5.50	2.75	4.25	8.25	6.75	1.00	0.50	4.00	9.25	0.50	0.00	-0.211426	0.035645	0.962402	-4.690000	2.590000	-0.770000	1175.00	-0.09	-0.01	0.00	0.00	0.00	0.00	0.00	0.00	0.00	0.00	0.50	0.50	0.00	0.00	0.00	0.00	0.00	0.00	0.229980	0.376953	0.743652	-4.060000	-153.860001	-2.940000	14.00	0.00	0.00
2.86	16.00	9.25	10.75	7.75	4.00	5.50	3.00	4.00	8.50	6.75	0.75	0.50	3.75	9.25	0.75	0.00	-0.216797	0.031250	0.960938	-4.480000	3.570000	-0.770000	1170.00	-0.08	-0.00	0.00	0.00	0.00	0.00	0.00	0.00	0.00	0.00	0.25	0.25	0.00	0.00	0.00	0.00	0.00	0.00	0.209473	0.408691	0.808594	-9.870000	-163.309998	3.920000	7.00	0.00	0.00
2.87	15.75	9.00	10.75	7.75	4.00	5.50	3.00	3.50	8.50	6.75	0.75	0.25	3.75	9.50	0.50	0.00	-0.221680	0.037109	0.958008	-4.130000	4.340000	-0.490000	1152.00	-0.08	0.00	0.00	0.00	0.00	0.00	0.00	0.00	0.00	0.00	0.25	0.25	0.00	0.00	0.00	0.00	0.00	0.00	0.200684	0.474121	0.862793	-16.030001	-175.000000	14.700000	7.00	0.00	0.00
2.88	15.75	9.00	10.50	7.50	4.00	5.50	3.00	3.50	8.50	7.00	0.75	0.25	3.00	9.25	0.75	0.00	-0.218750	0.037598	0.958496	-3.850000	4.830000	-0.210000	1141.00	-0.08	0.01	0.25	0.00	0.00	0.00	0.00	0.00	0.00	0.00	0.00	0.25	0.00	0.00	0.00	0.00	0.00	0.00	0.199707	0.541992	0.938965	-16.240000	-188.789993	28.420000	6.00	0.00	0.00
2.89	15.50	8.75	10.50	7.50	4.00	5.25	3.00	3.25	8.50	7.25	0.75	0.25	3.25	9.25	1.00	0.00	-0.222656	0.034180	0.958496	-3.570000	5.110000	0.140000	1136.00	-0.08	0.01	0.00	0.00	0.00	0.00	0.00	0.00	0.00	0.00	0.25	0.00	0.00	0.00	0.00	0.00	0.00	0.00	0.181641	0.583008	0.992188	-10.710000	-204.889999	44.029999	4.00	0.00	0.00
2.90	15.25	8.75	10.25	7.50	4.00	5.25	3.25	3.50	8.50	7.50	1.00	0.25	2.75	9.25	0.75	0.00	-0.229980	0.024414	0.953613	-2.940000	5.110000	0.350000	1137.00	-0.08	0.01	0.25	0.00	0.00	0.00	0.00	0.00	0.00	0.00	0.25	0.00	0.00	0.00	0.00	0.00	0.00	0.00	0.144531	0.598145	1.050293	-1.750000	-222.529999	60.549999	7.00	0.00	0.00
2.91	15.00	8.75	10.25	7.50	4.00	5.00	3.00	3.25	8.50	7.25	0.75	0.25	2.75	9.00	0.50	0.00	-0.219727	0.026367	0.959961	-2.450000	5.320000	0.490000	1109.00	-0.08	0.01	0.00	0.00	0.00	0.00	0.00	0.00	0.00	0.00	0.00	0.00	0.00	0.00	0.00	0.00	0.00	0.00	0.089844	0.600098	1.101074	6.580000	-240.729996	77.349998	0.00	0.00	0.00
2.92	15.25	8.50	10.25	7.50	3.75	5.25	3.00	3.00	8.75	7.50	0.75	0.25	3.25	8.75	0.50	0.00	-0.218262	0.029785	0.947754	-1.960000	5.180000	0.630000	1115.00	-0.08	0.01	0.00	0.00	0.00	0.00	0.00	0.00	0.00	0.00	0.00	0.00	0.00	0.00	0.00	0.25	0.00	0.00	0.013184	0.596191	1.119629	13.580000	-258.160004	93.870003	3.00	0.00	0.00
2.93	15.00	8.50	10.25	7.25	3.75	5.00	3.00	3.00	8.50	7.25	1.00	0.25	3.00	8.75	0.75	0.00	-0.214355	0.028809	0.957031	-0.910000	4.270000	0.980000	1102.00	-0.08	0.01	0.00	0.00	0.00	0.00	0.00	0.00	0.00	0.00	0.00	0.00	0.00	0.00	0.00	0.00	0.00	0.00	-0.140625	0.566406	1.122559	21.490000	-273.420013	109.900002	0.00	0.00	0.00
2.94	14.50	8.50	10.00	7.50	3.75	5.25	3.00	3.50	8.50	7.25	0.75	0.25	3.00	8.75	0.50	0.00	-0.213867	0.029785	0.955566	0.840000	2.660000	1.330000	1102.00	-0.08	0.01	0.00	0.00	0.00	0.00	0.00	0.00	0.00	0.00	0.00	0.00	0.00	0.00	0.00	0.00	0.00	0.00	-0.296387	0.486816	1.068359	33.670002	-285.459991	123.760002	0.00	0.00	0.00
2.95	14.75	8.25	10.25	7.00	3.50	5.25	3.00	3.75	8.50	7.25	0.75	0.25	2.75	8.50	0.75	0.00	-0.213867	0.029785	0.955566	0.840000	2.660000	1.330000	1098.00	-0.08	0.01	0.00	0.00	0.00	0.00	0.00	0.00	0.00	0.00	0.00	0.00	0.00	0.00	0.00	0.00	0.00	0.00	-0.447754	0.300293	0.960449	46.549999	-285.110016	133.630005	0.00	0.00	0.00
2.96	14.25	8.25	10.00	7.50	3.50	5.25	2.75	3.50	8.25	7.25	1.00	0.25	3.75	8.50	0.50	0.00	-0.222168	0.027832	0.953613	3.150000	0.980000	1.960000	1092.00	-0.08	0.00	0.00	0.00	0.00	0.00	0.00	0.00	0.00	0.00	0.00	0.00	0.00	0.00	0.00	0.00	0.00	0.00	-0.471680	0.198730	1.012695	49.490002	-277.899994	129.710007	0.00	0.00	0.00
2.97	14.00	8.25	9.75	7.50	3.50	5.50	2.75	3.75	8.25	7.00	1.00	0.50	3.25	8.25	0.50	0.00	-0.225098	0.026855	0.946289	4.970000	-0.210000	2.590000	1086.00	-0.08	-0.00	0.00	0.00	0.00	0.00	0.00	0.00	0.00	0.00	0.00	0.00	0.00	0.00	0.00	0.00	0.00	0.00	-0.501465	0.144043	1.163574	52.360001	-273.279999	120.470001	0.00	0.00	0.00
2.98	13.50	8.00	9.75	7.50	3.50	5.75	2.50	4.25	7.75	6.75	0.75	0.25	3.75	8.00	0.50	0.00	-0.224609	0.029785	0.955078	7.840000	-2.100000	3.430000	1071.00	-0.08	-0.01	0.25	0.00	0.00	0.00	0.00	0.00	0.00	0.00	0.00	0.00	0.00	0.00	0.00	0.00	0.00	0.00	-0.532715	0.127930	1.319336	56.209999	-273.140015	107.870003	3.00	0.00	0.00
2.99	13.25	8.00	10.00	7.75	3.50	6.25	2.25	5.00	7.50	6.50	0.75	0.50	3.75	7.75	0.25	0.00	-0.227051	0.026855	0.955566	11.550000	-4.200000	4.480000	1080.00	-0.08	-0.02	0.00	0.00	0.00	0.00	0.00	0.00	0.00	0.00	0.00	0.00	0.00	0.00	0.00	0.00	0.00	0.00	-0.562988	0.125977	1.446777	61.389999	-275.660004	93.309998	0.00	0.00	0.00
3.00	13.25	8.25	9.75	7.75	3.50	6.75	2.00	5.25	7.00	6.00	0.75	0.25	5.00	7.50	0.50	0.00	-0.231934	0.031738	0.949219	15.120000	-5.600000	5.600000	1082.00	-0.09	-0.03	0.00	0.00	0.00	0.00	0.00	0.00	0.00	0.00	0.00	0.00	0.00	0.00	0.00	0.00	0.00	0.00	-0.605469	0.109863	1.545410	66.150002	-278.670013	78.400002	0.00	0.00	0.00
3.01	12.50	8.00	9.50	8.00	3.50	7.75	1.75	5.75	6.25	5.50	0.75	0.50	5.00	6.75	0.50	0.00	-0.212891	0.039062	0.956055	17.990000	-6.090000	6.440000	1066.00	-0.09	-0.05	0.00	0.00	0.00	0.00	0.00	0.00	0.00	0.00	0.00	0.00	0.00	0.00	0.00	0.00	0.00	0.00	-0.643066	0.113281	1.596191	71.050003	-280.559998	64.190002	0.00	0.00	0.00
3.02	12.50	8.00	9.50	8.00	3.25	8.25	1.50	6.25	5.75	5.25	0.75	0.50	5.25	6.25	0.75	0.00	-0.209961	0.045410	0.960449	20.370001	-6.090000	6.790000	1063.00	-0.10	-0.06	0.00	0.00	0.00	0.00	0.00	0.00	0.00	0.00	0.00	0.00	0.00	0.00	0.00	0.00	0.00	0.00	-0.709961	0.133789	1.645508	78.120003	-279.230011	51.029999	0.00	0.00	0.00
3.03	12.25	8.00	9.25	8.25	3.25	9.00	1.25	7.50	5.25	4.50	0.75	0.75	6.25	5.75	0.50	0.25	-0.223145	0.043945	0.963379	22.610001	-5.810000	7.140000	1078.00	-0.10	-0.08	0.00	0.00	0.00	0.00	0.00	0.00	0.00	0.00	0.00	0.00	0.00	0.00	0.00	0.00	0.00	0.00	-0.770996	0.179199	1.705078	90.230003	-274.329987	39.480000	0.00	0.00	0.00
3.04	11.50	7.75	9.25	8.50	3.00	9.75	1.00	8.00	4.75	3.75	0.50	0.50	6.75	5.25	0.50	0.00	-0.194336	0.055176	0.975098	24.430000	-4.690000	7.560000	1055.00	-0.11	-0.09	0.00	0.00	0.00	0.00	0.00	0.00	0.00	0.00	0.00	0.00	0.00	0.00	0.00	0.00	0.00	0.00	-0.834473	0.221680	1.872070	107.520004	-268.170013	30.100000	0.00	0.00	0.00
3.05	11.50	7.75	9.00	8.50	3.25	10.50	0.75	8.75	4.00	3.25	0.75	0.75	7.50	5.00	1.00	0.00	-0.215332	0.058594	0.954102	25.270000	-3.150000	7.490000	1074.00	-0.11	-0.11	0.00	0.00	0.00	0.00	0.00	0.00	0.00	0.00	0.00	0.00	0.00	0.00	0.00	0.00	0.00	0.00	-0.928223	0.224121	2.074219	124.599998	-265.369995	23.730000	0.00	0.00	0.00
3.06	11.00	7.75	8.75	8.50	2.75	11.00	0.75	9.25	3.50	3.00	0.75	0.75	7.75	4.00	0.25	0.00	-0.198730	0.067871	0.943359	24.010000	-1.330000	7.210000	1045.00	-0.12	-0.12	0.00	0.00	0.00	0.00	0.00	0.00	0.00	0.00	0.00	0.00	0.00	0.00	0.00	0.00	0.00	0.00	-1.036621	0.180176	2.180176	133.910004	-266.140015	19.110001	0.00	0.00	0.00
3.07	10.75	7.25	8.50	8.50	2.75	11.25	0.50	9.75	3.00	3.00	0.75	1.00	8.75	3.50	0.50	0.25	-0.190430	0.100098	0.929199	20.719999	-0.420000	6.160000	1047.00	-0.11	-0.14	0.00	0.00	0.00	0.00	0.00	0.00	0.00	0.00	0.00	0.00	0.00	0.00	0.00	0.00	0.00	0.00	-1.171387	0.147949	2.158691	134.190002	-266.839996	14.420000	0.00	0.00	0.00
3.08	10.25	7.25	8.50	8.50	2.75	11.75	0.50	10.25	2.50	2.50	0.75	1.00	9.00	3.00	0.50	0.00	-0.196289	0.089844	0.926270	17.500000	-0.630000	5.040000	1038.00	-0.12	-0.15	0.00	0.00	0.00	0.00	0.00	0.00	0.00	0.00	0.00	0.00	0.00	0.00	0.00	0.00	0.00	0.00	-1.315430	0.132812	2.096191	132.229996	-264.320007	9.380000	0.00	0.00	0.00
3.09	9.75	7.25	8.00	8.50	2.75	12.25	0.50	10.75	2.75	2.75	0.75	1.25	10.75	2.75	0.75	0.00	-0.186523	0.103516	0.933105	9.800000	-1.260000	2.730000	1069.00	-0.11	-0.16	0.00	0.00	0.00	0.00	0.00	0.00	0.00	0.00	0.00	0.00	0.00	0.00	0.00	0.00	0.00	0.00	-1.466797	0.102539	2.049805	133.630005	-259.700012	4.550000	0.00	0.00	0.00
3.10	9.50	7.00	8.00	8.50	2.50	12.25	0.50	11.25	3.00	3.00	1.00	1.50	11.25	3.00	0.75	0.25	-0.186523	0.103516	0.933105	9.800000	-1.260000	2.730000	1092.00	-0.10	-0.16	0.00	0.00	0.00	0.00	0.00	0.00	0.00	0.00	0.00	0.00	0.00	0.00	0.00	0.00	0.00	0.00	-1.833496	-0.123535	1.906738	144.970001	-253.610001	-1.960000	0.00	0.00	0.00
3.11	9.00	6.50	7.75	8.25	2.75	12.75	0.75	11.75	2.75	3.25	1.25	1.50	12.25	2.75	0.50	0.50	-0.187988	0.097656	0.936523	3.150000	-1.400000	0.420000	1105.00	-0.09	-0.17	0.00	0.00	0.00	0.00	0.00	0.00	0.00	0.00	0.00	0.00	0.00	0.00	0.00	0.00	0.00	0.00	-2.048340	-0.333008	1.699219	144.830002	-253.470001	-3.710000	0.00	0.00	0.00
3.12	8.75	6.00	7.75	8.00	2.75	12.75	0.75	11.75	3.00	3.50	1.50	2.00	12.50	3.00	1.00	0.50	-0.197754	0.094238	0.938965	-0.630000	-0.490000	-0.980000	1121.00	-0.08	-0.17	0.00	0.00	0.00	0.00	0.00	0.00	0.00	0.00	0.00	0.00	0.00	0.00	0.00	0.00	0.00	0.00	-2.264160	-0.602539	1.366699	135.380005	-251.860001	-5.250000	0.00	0.00	0.00
3.13	7.25	5.50	7.25	7.75	2.75	12.75	0.75	12.00	3.50	4.25	2.00	2.50	13.00	3.25	1.00	0.75	-0.201172	0.099121	0.943359	-3.990000	1.330000	-2.450000	1131.00	-0.06	-0.17	0.00	0.00	0.00	0.00	0.00	0.00	0.00	0.00	0.00	0.00	0.00	0.00	0.00	0.00	0.00	0.00	-2.530762	-0.884277	0.930176	116.900002	-244.020004	-9.240000	0.00	0.00	0.00
3.14	7.50	5.25	7.00	7.75	2.75	12.50	1.00	12.00	4.25	4.75	2.25	3.25	13.75	3.75	1.75	1.00	-0.201172	0.096191	0.938965	-7.000000	3.360000	-3.710000	1183.00	-0.04	-0.16	0.00	0.00	0.00	0.00	0.00	0.00	0.00	0.00	0.00	0.00	0.00	0.00	0.00	0.00	0.00	0.00	-2.859863	-1.143066	0.467773	93.519997	-227.570007	-18.200001	0.00	0.00	0.00
3.15	7.00	5.00	6.75	7.50	3.00	12.25	1.00	12.00	4.75	5.75	3.25	4.00	14.25	4.00	1.75	1.00	-0.211426	0.086914	0.947266	-9.310000	5.950000	-4.760000	1218.00	-0.03	-0.16	0.00	0.00	0.00	0.00	0.00	0.00	0.00	0.00	0.50	0.00	0.00	0.00	0.00	0.00	0.00	0.00	-3.228516	-1.333984	0.049316	69.370003	-203.699997	-32.830002	8.00	0.00	0.00
3.16	6.25	3.75	6.25	6.75	3.00	12.00	1.25	12.00	5.75	6.75	4.00	4.50	14.75	4.50	2.25	1.00	-0.194824	0.088379	0.947754	-10.080000	7.700000	-5.460000	1240.00	-0.00	-0.15	0.00	0.00	0.00	0.00	0.00	0.00	0.00	0.00	0.50	0.00	0.00	0.00	0.00	0.00	0.00	0.00	-3.585938	-1.448242	-0.266113	46.060001	-173.250000	-51.450001	8.00	0.00	0.00
3.17	5.50	3.50	6.00	6.25	3.00	11.50	1.75	12.00	6.50	7.25	5.25	5.75	15.00	5.25	2.50	1.50	-0.211426	0.083984	0.962402	-9.730000	9.800000	-5.880000	1286.00	0.02	-0.15	0.00	0.00	0.00	0.00	0.00	0.00	0.00	0.00	0.00	0.00	0.00	0.00	0.00	0.00	0.00	0.00	-3.745605	-1.440430	-0.443848	18.270000	-136.570007	-72.099998	0.00	0.00	0.00
3.18	5.25	3.25	5.50	5.50	3.00	11.00	2.00	11.75	7.00	7.75	6.25	6.50	15.50	5.50	3.00	1.75	-0.205078	0.077637	0.963867	-9.170000	12.460000	-6.300000	1309.00	0.04	-0.14	0.00	0.00	0.00	0.00	0.00	0.00	0.00	0.00	0.25	0.00	0.00	0.00	0.00	0.00	0.00	0.00	-3.645996	-1.254883	-0.468750	-17.150000	-94.849998	-91.419998	4.00	0.00	0.00
3.19	4.25	2.50	4.50	5.00	3.00	10.50	2.50	11.75	7.50	8.25	7.25	7.00	15.75	6.75	3.50	2.25	-0.241211	0.062500	0.959961	-8.610000	15.400000	-6.790000	1328.00	0.06	-0.14	0.00	0.00	0.00	0.00	0.00	0.00	0.00	0.00	0.25	0.00	0.00	0.00	0.00	0.00	0.00	0.00	-3.336426	-0.937012	-0.382324	-51.730000	-50.259998	-103.040001	4.00	0.00	0.00
3.20	3.25	2.25	4.25	4.00	2.75	10.00	2.75	11.50	8.25	8.75	7.75	7.50	16.00	7.75	4.25	2.50	-0.199707	0.089844	0.967773	-8.820000	20.090000	-6.930000	1341.00	0.08	-0.13	0.00	0.00	0.00	0.00	0.00	0.00	0.00	0.00	0.00	0.00	0.00	0.00	0.00	0.00	0.00	0.00	-2.920410	-0.604980	-0.202148	-74.269997	-7.140000	-100.379997	0.00	0.00	0.00
3.21	2.25	1.25	3.00	3.00	2.50	9.25	3.00	11.00	8.75	9.25	8.00	7.75	16.50	8.50	4.50	2.75	-0.207031	0.074219	0.972656	-8.400000	25.129999	-7.560000	1308.00	0.11	-0.13	0.00	0.00	0.00	0.00	0.00	0.00	0.00	0.00	0.00	0.00	0.00	0.00	0.00	0.00	0.00	0.00	-2.500488	-0.394531	0.023926	-83.860001	31.990000	-81.830002	0.00	0.00	0.00
3.22	1.50	0.75	2.50	2.00	2.25	8.75	3.25	10.75	9.25	9.75	8.50	8.00	17.00	9.25	5.00	3.25	-0.198730	0.075195	0.959473	-9.730000	32.130001	-9.170000	1309.00	0.13	-0.13	1.25	0.25	0.00	0.00	0.00	0.00	0.00	0.00	0.00	0.00	0.00	0.00	0.00	0.00	0.00	0.00	-0.142578	-0.378906	2.256836	-85.610001	67.199997	-51.380001	18.00	0.00	0.00
3.23	0.75	0.75	2.00	2.00	1.75	8.25	3.50	10.50	10.00	10.25	9.00	8.25	17.25	10.00	5.25	3.50	-0.219727	0.074707	0.991211	-7.700000	39.060001	-10.430000	1322.00	0.14	-0.12	3.25	1.00	0.50	0.25	0.00	0.00	0.00	0.00	0.00	0.00	0.00	0.00	0.00	0.00	0.00	0.00	2.893555	0.984375	1.867188	-101.570000	102.340004	-21.629999	61.00	-0.38	0.04
3.24	0.75	0.50	1.25	1.50	1.75	7.75	3.50	10.00	10.25	10.50	9.50	8.50	17.25	10.75	5.75	3.75	-0.214844	0.010254	0.953613	1.470000	56.209999	-9.310000	1319.00	0.15	-0.12	5.25	2.50	0.75	1.00	0.00	0.00	0.00	0.00	0.00	0.00	0.00	0.00	0.00	0.00	0.00	0.00	-0.002930	-0.151855	-0.468750	-219.309998	170.869995	-69.090004	116.00	-0.38	0.00
3.25	0.50	0.50	1.00	0.75	1.50	7.00	3.50	9.50	10.75	11.00	9.75	8.50	17.00	11.75	5.75	4.00	-0.251953	0.091309	1.019531	9.520000	75.599998	-9.030000	1307.00	0.17	-0.11	6.50	3.75	1.50	1.25	0.00	0.00	0.00	0.00	0.00	0.00	0.00	0.00	0.00	0.00	0.00	0.00	-0.009277	0.360840	1.386719	-219.589996	238.350006	-60.270000	158.00	-0.38	-0.00
3.26	0.50	0.25	0.75	0.75	1.25	6.50	3.50	9.00	11.50	11.50	10.00	9.00	17.00	12.50	6.00	4.50	-0.290527	0.061523	1.096191	16.450001	125.090004	-10.290000	1323.00	0.18	-0.10	9.25	6.25	2.00	2.00	0.00	0.00	0.00	0.00	0.00	0.00	0.00	0.00	0.00	0.00	0.00	0.00	-0.729980	-0.191895	1.302246	-146.369995	247.029999	-17.150000	236.00	-0.38	-0.01
3.27	0.25	0.50	0.75	0.75	1.00	6.00	3.50	8.50	11.75	11.75	10.25	8.75	16.75	13.50	6.25	5.00	-0.305664	0.053711	1.124512	14.070000	151.899994	-9.450000	1325.00	0.18	-0.10	11.75	8.25	2.75	2.75	0.25	0.25	0.00	0.00	0.00	0.00	0.00	0.00	0.00	0.00	0.00	0.00	-0.609863	-0.542480	1.760742	-104.090004	253.889999	-0.350000	316.00	-0.37	-0.02
3.28	0.00	0.00	0.25	0.25	1.00	5.50	3.25	8.00	12.00	12.00	10.50	9.00	16.25	14.00	7.25	5.00	-0.316895	0.057617	1.152832	10.780000	176.960007	-7.770000	1309.00	0.20	-0.09	13.00	9.75	3.50	3.25	0.00	0.50	0.00	0.00	0.00	0.00	0.00	0.00	0.00	0.00	0.00	0.00	-0.456055	-0.493652	1.515625	-81.410004	251.020004	-11.410000	364.00	-0.37	-0.02
3.29	0.00	0.00	0.00	0.00	0.75	5.00	3.25	7.50	12.50	12.25	10.75	8.75	16.25	14.75	7.50	5.50	-0.357910	0.084961	1.144043	6.860000	201.110001	-7.700000	1308.00	0.21	-0.08	14.25	10.25	4.00	4.50	0.25	1.25	0.00	0.00	0.00	0.00	0.00	0.00	0.00	0.00	0.00	0.00	-0.555664	0.117188	1.477539	-59.150002	255.779999	-22.680000	422.00	-0.36	-0.03
3.30	0.00	0.00	0.00	0.00	0.50	4.00	3.00	7.00	12.25	12.50	10.75	8.75	15.75	15.25	7.75	5.75	-0.400879	0.060059	1.152344	3.990000	224.699997	-8.820000	1282.00	0.22	-0.08	14.25	11.00	5.00	6.25	1.00	2.75	0.00	0.75	0.00	0.00	0.00	0.00	0.00	0.00	0.00	0.00	-1.257812	0.294434	4.365723	-253.820007	226.660004	-43.259998	509.00	-0.33	-0.05
3.31	0.00	0.00	0.00	0.00	0.50	3.25	3.00	6.00	12.25	12.50	10.75	8.50	15.25	15.75	7.75	6.25	-0.443848	0.048828	1.198730	2.380000	248.149994	-8.260000	1254.00	0.22	-0.07	14.75	10.75	5.25	6.50	1.25	3.25	0.00	0.75	0.25	0.00	0.00	0.00	0.50	0.00	0.00	0.00	-1.010742	-0.404785	1.345215	-150.850006	87.290001	-2.380000	538.00	-0.32	-0.06
3.32	0.00	0.00	0.00	0.00	0.25	2.25	3.25	5.50	12.00	12.50	10.75	8.50	14.75	15.75	7.75	6.50	-0.471191	0.043945	1.210449	-0.280000	273.420013	-7.070000	1226.00	0.23	-0.07	15.00	10.75	5.25	6.75	1.50	3.75	0.25	1.00	1.00	0.25	0.00	0.00	0.50	0.25	0.00	0.00	-0.126465	-0.439941	1.200684	-50.820000	0.420000	5.950000	581.00	-0.30	-0.05
3.33	0.00	0.00	0.00	0.00	0.25	1.75	3.25	5.00	11.75	12.50	10.50	8.50	14.50	15.75	8.00	7.00	-0.545898	0.062012	1.236816	-1.960000	300.510010	-5.460000	1207.00	0.24	-0.06	14.50	10.50	5.50	7.00	1.75	4.25	0.50	1.50	1.50	0.25	0.00	0.00	1.00	0.25	0.00	0.00	-0.188477	0.333984	0.902832	-28.980000	-14.770000	2.940000	615.00	-0.27	-0.05
3.34	0.00	0.00	0.00	0.00	0.00	1.00	3.25	3.75	11.50	12.25	10.50	8.25	14.00	15.50	8.00	7.00	-0.548340	0.088867	1.352051	-2.660000	328.440002	-4.620000	1153.00	0.24	-0.06	13.75	10.25	5.50	6.75	1.75	4.50	0.75	1.50	1.50	0.50	0.00	0.00	1.00	0.25	0.00	0.00	-0.260742	-0.020996	0.974609	-22.889999	-15.960000	5.460000	610.00	-0.26	-0.05
3.35	0.00	0.00	0.00	0.00	0.00	0.75	3.25	3.50	10.75	11.75	10.25	8.25	13.50	15.25	7.75	7.50	-0.684570	0.058594	1.454102	-2.310000	358.750000	-4.690000	1117.00	0.25	-0.06	14.00	10.00	5.50	7.00	2.00	5.00	1.00	1.75	2.75	0.75	0.00	0.00	1.50	1.00	0.00	0.00	-0.178711	0.036133	0.918945	-17.990000	-20.370001	4.900000	668.00	-0.23	-0.05
3.36	0.00	0.00	0.00	0.00	0.00	1.00	3.25	3.25	10.00	11.00	9.75	8.00	13.00	14.75	7.50	7.50	-0.793945	0.071289	1.748535	4.830000	389.970001	-2.660000	1072.00	0.25	-0.06	13.75	10.00	5.75	7.25	2.50	5.00	1.00	2.00	3.00	0.75	0.00	0.00	1.50	0.75	0.00	0.00	-0.248047	0.079102	0.952637	-17.080000	-23.379999	3.710000	684.00	-0.23	-0.05
3.37	0.00	0.00	0.00	0.00	0.00	0.50	3.00	2.25	9.00	10.25	9.00	7.50	12.50	13.75	7.25	7.25	-0.995117	0.218750	2.132812	4.830000	418.110016	-0.700000	982.00	0.25	-0.06	14.00	10.00	6.25	7.25	3.00	5.75	1.25	2.25	3.75	1.00	0.00	0.00	2.00	1.25	0.00	0.00	-0.189941	0.067871	0.943359	-17.500000	-23.100000	1.960000	744.00	-0.21	-0.04
3.38	0.00	0.00	0.00	0.00	0.00	0.75	2.75	2.25	8.00	9.25	8.00	7.00	11.75	12.75	6.25	6.50	-1.565430	0.245117	2.681152	5.320000	434.420013	1.540000	899.00	0.25	-0.06	14.00	9.75	6.50	7.50	3.25	6.00	1.50	2.50	4.25	1.25	0.25	0.00	2.25	1.75	0.00	0.00	-0.192383	0.039551	0.962891	-17.639999	-23.240000	0.700000	785.00	-0.19	-0.04
3.39	0.00	0.00	0.00	0.00	0.00	0.00	2.25	2.00	7.50	8.50	7.50	6.25	11.00	11.50	5.50	6.00	-1.527344	0.018555	2.521973	-6.790000	440.369995	-0.840000	809.00	0.25	-0.06	14.75	10.00	6.75	7.50	4.00	6.25	1.50	2.50	4.75	1.50	0.25	0.00	2.25	2.00	0.00	0.00	-0.202637	0.008789	0.991699	-16.100000	-22.049999	1.120000	827.00	-0.18	-0.03
3.40	0.00	0.00	0.00	0.00	0.00	0.50	1.50	0.75	6.50	7.75	6.00	5.25	10.00	10.00	4.50	5.00	-1.643066	-0.009277	2.850098	-17.639999	434.070007	0.070000	679.00	0.26	-0.06	14.50	9.75	7.00	7.50	4.75	6.75	1.50	3.25	5.25	1.50	0.50	0.00	2.00	2.00	0.00	0.00	-0.181641	0.016113	0.968750	-9.030000	-17.080000	2.730000	863.00	-0.18	-0.04
3.41	0.00	0.00	0.00	0.00	0.00	0.00	1.00	0.50	5.50	6.75	4.25	3.50	8.50	8.00	3.25	3.50	-0.550293	0.139160	2.365723	-5.390000	373.380005	13.930000	526.00	0.26	-0.05	14.25	9.75	7.00	7.50	5.25	6.75	2.00	3.50	5.50	1.50	0.50	0.25	2.50	2.50	0.25	0.00	-0.182129	0.016602	0.960938	-6.370000	-15.050000	3.570000	901.00	-0.16	-0.04
3.42	0.00	0.00	0.00	0.00	0.00	0.25	0.50	0.00	4.50	5.50	2.25	2.00	7.00	6.50	1.25	1.50	0.153320	0.300781	2.288574	5.530000	364.980011	18.340000	367.00	0.26	-0.03	13.75	9.50	7.00	7.75	5.75	7.00	2.00	4.00	5.50	1.50	0.50	0.25	2.50	2.50	0.25	0.00	-0.176758	0.027344	0.963867	-3.990000	-13.720000	4.550000	914.00	-0.16	-0.04
3.43	0.00	0.00	0.00	0.00	0.00	0.00	0.25	0.25	3.25	4.50	1.50	1.50	5.00	3.50	0.75	0.50	0.541504	0.415527	2.016113	53.549999	367.850006	19.670000	253.00	0.25	-0.04	13.50	9.00	7.00	7.50	5.75	7.75	2.25	4.75	5.75	1.75	0.75	0.25	3.00	2.50	0.50	0.00	-0.176270	0.026367	0.954102	-2.170000	-12.740000	4.970000	948.00	-0.14	-0.05
3.44	0.00	0.00	0.00	0.00	0.00	0.00	0.00	0.00	2.25	3.25	0.75	0.75	2.50	1.25	0.25	0.50	0.676270	-0.380859	1.238281	128.869995	388.149994	-4.830000	139.00	0.25	-0.02	13.25	8.75	7.00	7.50	5.75	7.75	2.25	5.25	6.25	2.00	0.75	0.25	3.00	2.75	0.50	0.25	-0.181641	0.040527	0.953125	-1.050000	-12.530000	4.900000	967.00	-0.13	-0.05
3.45	0.00	0.00	0.00	0.00	0.00	0.00	0.00	0.00	2.00	3.00	0.75	1.00	1.50	0.50	0.00	0.50	0.425781	-0.275879	2.245605	178.430008	403.130005	-94.220001	114.00	0.24	-0.01	12.75	8.75	6.75	7.50	6.00	8.00	2.25	5.25	6.25	2.25	0.75	0.50	3.75	2.75	0.50	0.00	-0.184082	0.041992	0.961914	-0.280000	-12.180000	4.550000	976.00	-0.13	-0.05
3.46	0.00	0.00	0.00	0.00	0.00	0.00	0.25	0.00	1.50	2.75	0.75	0.50	1.25	0.00	0.25	0.00	1.184082	-0.540527	4.750488	178.289993	222.669998	-153.300003	94.00	0.23	0.01	12.25	8.50	6.75	7.50	6.00	8.25	2.50	5.50	6.75	2.00	1.00	0.50	4.00	3.00	0.25	0.00	-0.178223	0.042480	0.961914	0.280000	-11.340000	4.060000	989.00	-0.12	-0.05
3.47	0.00	0.00	0.00	0.00	0.00	0.00	0.00	0.00	1.25	2.50	0.50	0.25	1.00	0.00	0.00	0.25	1.332031	-0.745117	3.661133	106.680000	14.070000	-167.440002	72.00	0.23	0.01	11.75	8.25	7.00	7.50	6.00	8.50	2.50	5.50	6.75	2.00	1.00	0.50	4.00	3.50	0.25	0.25	-0.175781	0.049316	0.964355	0.420000	-10.220000	3.710000	993.00	-0.11	-0.05
3.48	0.00	0.00	0.00	0.00	0.00	0.00	0.00	0.00	1.25	2.25	0.50	0.50	0.25	0.00	0.00	0.00	0.932129	-0.518555	2.479492	-19.950001	-127.889999	-162.820007	63.00	0.24	0.05	11.50	7.50	6.75	7.25	6.00	8.50	2.50	5.75	7.00	2.25	1.00	0.50	4.25	3.50	0.25	0.25	-0.178223	0.042480	0.962891	0.140000	-9.030000	3.360000	990.00	-0.11	-0.05
3.49	0.00	0.00	0.00	0.00	0.00	0.00	0.00	0.00	1.25	2.25	0.50	0.25	0.25	0.50	0.25	0.00	0.671387	-0.017578	1.412109	-121.870003	-185.430008	-154.139999	68.00	0.26	0.07	11.00	7.50	6.50	7.25	6.00	8.75	2.50	5.75	6.75	2.25	1.00	0.75	4.50	3.50	0.25	0.25	-0.171387	0.052246	0.958984	-0.840000	-8.120000	3.010000	985.00	-0.10	-0.06
3.50	0.00	0.00	0.00	0.00	0.00	0.00	0.00	0.00	0.75	2.25	0.75	0.25	0.00	0.00	0.00	0.25	0.558105	0.392578	0.934570	-149.240005	-188.580002	-144.270004	54.00	0.24	0.05	10.75	7.00	6.75	7.25	6.50	8.75	2.50	6.00	7.00	2.25	1.00	0.75	4.50	3.50	0.50	0.25	-0.165039	0.052734	0.956055	-1.680000	-7.770000	2.800000	998.00	-0.10	-0.06
3.51	0.00	0.00	0.00	0.00	0.00	0.00	0.00	0.00	0.25	1.25	0.25	0.25	0.00	0.00	0.00	0.25	0.540039	0.565430	0.832031	-120.330002	-176.820007	-131.949997	27.00	0.00	0.00	10.25	6.50	6.75	7.25	6.50	9.00	2.50	6.00	7.50	2.50	1.25	0.75	4.75	3.75	0.50	0.25	-0.164062	0.040039	0.957520	-2.310000	-7.560000	2.660000	1009.00	-0.09	-0.06
3.52	0.00	0.00	0.00	0.00	0.00	0.00	0.00	0.00	0.25	1.50	0.50	0.25	0.25	0.00	0.25	0.00	0.547852	0.556152	0.927246	-77.139999	-172.479996	-119.139999	38.00	0.00	0.00	10.00	6.50	6.50	6.75	6.50	8.75	2.75	6.00	7.50	2.50	1.25	0.75	4.75	3.75	0.50	0.25	-0.163574	0.041992	0.953613	-2.590000	-6.650000	2.590000	997.00	-0.08	-0.05
3.53	0.00	0.00	0.00	0.00	0.00	0.25	0.00	0.00	0.25	1.75	0.25	0.50	0.00	0.00	0.00	0.25	0.509277	0.495117	1.068359	-51.590000	-180.389999	-107.379997	40.00	0.00	0.00	9.50	6.00	6.50	6.50	6.50	8.75	2.75	6.00	7.50	2.50	1.25	1.00	5.00	3.75	0.25	0.25	-0.163574	0.041992	0.953613	-2.590000	-6.650000	2.590000	984.00	-0.08	-0.06
3.54	0.00	0.00	0.00	0.00	0.00	0.00	0.00	0.00	0.25	1.25	0.00	0.25	0.00	0.00	0.00	0.00	0.449707	0.474121	1.170898	-53.340000	-197.190002	-95.900002	23.00	0.00	0.00	9.00	5.50	6.25	6.50	6.25	9.00	3.00	6.00	8.00	2.75	1.75	1.00	5.00	4.00	0.25	0.25	-0.165039	0.034668	0.956543	-2.310000	-6.370000	2.730000	994.00	-0.07	-0.05
3.55	0.00	0.00	0.00	0.00	0.00	0.00	0.00	0.00	0.25	1.00	0.25	0.25	0.00	0.00	0.25	0.25	0.361328	0.533203	1.250000	-74.690002	-218.119995	-83.230003	27.00	0.00	0.00	8.75	5.25	6.00	6.25	6.50	9.25	3.00	6.00	7.75	3.00	1.75	0.75	5.25	4.50	0.50	0.25	-0.163574	0.031738	0.959961	-1.190000	-5.670000	3.080000	994.00	-0.06	-0.05
3.56	0.00	0.00	0.00	0.00	0.00	0.00	0.00	0.00	0.50	0.75	0.25	0.00	0.00	0.00	0.00	0.00	0.227539	0.778320	1.300293	-112.139999	-262.079987	-50.959999	20.00	0.00	0.00	8.25	4.75	6.00	6.00	6.25	9.00	3.00	6.25	8.00	3.00	1.75	1.00	5.25	4.50	0.75	0.25	-0.168457	0.033203	0.953613	-0.350000	-5.180000	3.150000	988.00	-0.05	-0.05
3.57	0.00	0.00	0.00	0.00	0.00	0.00	0.00	0.00	0.25	0.75	0.00	0.00	0.00	0.00	0.00	0.00	0.134766	0.861328	1.308594	-106.050003	-280.839996	-33.529999	13.00	0.00	0.00	7.75	4.00	5.75	5.75	6.50	9.00	3.00	6.25	8.00	3.25	1.75	1.25	5.50	4.50	0.75	0.50	-0.165527	0.036133	0.953125	0.280000	-4.900000	3.150000	980.00	-0.04	-0.06
3.58	0.00	0.00	0.00	0.00	0.00	0.00	0.00	0.00	0.00	0.75	0.00	0.00	0.00	0.00	0.00	0.00	0.008789	0.878906	1.302734	-86.309998	-296.589996	-17.080000	9.00	0.00	0.00	7.25	3.50	5.50	5.50	6.50	9.25	3.25	6.50	8.00	3.25	2.00	1.25	5.75	4.50	0.75	0.25	-0.172363	0.044434	0.958496	0.630000	-4.830000	3.080000	978.00	-0.04	-0.06
3.59	0.00	0.00	0.00	0.00	0.00	0.00	0.00	0.00	0.00	1.00	0.00	0.00	0.00	0.00	0.25	0.25	-0.118164	0.858398	1.300293	-62.790001	-308.980011	-3.080000	17.00	0.00	0.00	7.00	3.00	5.50	5.00	6.25	9.25	3.25	6.50	8.00	3.50	2.25	1.50	5.75	5.00	0.75	0.50	-0.168945	0.055176	0.954102	0.980000	-4.620000	2.870000	976.00	-0.02	-0.06
3.60	0.00	0.00	0.00	0.00	0.00	0.00	0.00	0.00	0.25	0.75	0.00	0.00	0.00	0.00	0.00	0.00	-0.253906	0.822266	1.296875	-42.770000	-317.869995	8.680000	13.00	0.00	0.00	6.25	2.50	5.25	5.00	6.25	9.25	3.00	6.50	8.00	3.50	2.25	1.50	6.00	5.00	0.50	0.50	-0.162598	0.038086	0.946777	1.050000	-4.550000	2.940000	953.00	-0.02	-0.06
3.61	0.00	0.00	0.00	0.00	0.00	0.00	0.00	0.00	0.00	0.75	0.00	0.00	0.00	0.00	0.25	0.00	-0.415527	0.810547	1.267090	-28.559999	-323.750000	19.040001	12.00	0.00	0.00	5.75	2.00	5.00	4.50	6.00	9.00	3.25	6.75	8.25	4.00	2.50	1.50	6.00	5.00	0.75	0.25	-0.173340	0.048340	0.949707	1.190000	-4.550000	3.010000	948.00	-0.01	-0.06
3.62	0.00	0.00	0.00	0.00	0.00	0.00	0.00	0.00	0.00	0.50	0.00	0.00	0.00	0.00	0.00	0.00	-0.542480	0.807129	1.364746	-20.299999	-326.410004	28.840000	6.00	0.00	0.00	5.75	2.00	4.50	3.75	6.00	9.50	3.25	6.75	8.25	4.50	3.00	1.75	6.25	5.00	0.75	0.50	-0.169922	0.051270	0.950684	1.470000	-4.410000	3.010000	958.00	0.00	-0.06
3.63	0.00	0.00	0.00	0.00	0.00	0.00	0.00	0.00	0.00	0.50	0.00	0.00	0.00	0.00	0.00	0.00	-0.626465	0.770020	1.339844	-9.590000	-327.809998	37.240002	6.00	0.00	0.00	5.50	1.75	4.25	3.75	5.75	9.50	3.25	6.75	8.50	4.75	3.00	2.00	6.50	5.00	0.75	0.50	-0.169922	0.047852	0.954590	1.820000	-4.270000	2.870000	959.00	0.01	-0.06
3.64	0.00	0.00	0.00	0.00	0.00	0.00	0.00	0.00	0.00	0.50	0.00	0.00	0.00	0.00	0.00	0.00	-0.702148	0.775879	1.391602	5.530000	-326.970001	42.209999	6.00	0.00	0.00	5.25	1.25	3.25	3.25	5.75	9.25	3.25	7.00	8.50	5.00	3.50	2.00	6.75	5.25	1.25	0.50	-0.170410	0.036133	0.956543	2.030000	-4.200000	2.730000	952.00	0.03	-0.06
3.65	0.00	0.00	0.00	0.00	0.00	0.00	0.00	0.00	0.00	0.50	0.00	0.00	0.00	0.00	0.00	0.00	-0.740234	0.722656	1.415039	20.930000	-322.630005	43.189999	6.00	0.00	0.00	4.00	1.25	3.25	3.00	5.75	9.50	3.50	7.00	8.75	5.25	3.50	2.50	7.00	5.25	1.25	0.75	-0.171387	0.036133	0.948242	2.520000	-3.990000	2.940000	958.00	0.04	-0.07
3.66	0.00	0.00	0.00	0.00	0.00	0.00	0.00	0.00	0.00	0.50	0.00	0.00	0.00	0.00	0.00	0.00	-0.778320	0.699219	1.478516	35.910000	-316.610016	43.400002	6.00	0.00	0.00	4.25	1.25	2.75	2.75	5.75	9.50	3.50	7.25	8.75	5.50	4.25	2.50	7.25	5.25	1.25	0.50	-0.176270	0.041992	0.958008	3.290000	-3.500000	3.010000	970.00	0.04	-0.07
3.67	0.00	0.00	0.00	0.00	0.00	0.00	0.00	0.00	0.00	0.25	0.00	0.00	0.00	0.00	0.00	0.00	-0.808105	0.684082	1.523438	47.599998	-309.049988	44.799999	3.00	0.00	0.00	3.75	0.75	2.50	2.50	5.50	9.50	3.50	7.25	8.75	5.75	4.50	3.00	7.50	5.50	1.00	1.00	-0.173828	0.051758	0.950684	4.060000	-3.010000	2.870000	966.00	0.05	-0.07
3.68	0.00	0.00	0.00	0.00	0.00	0.00	0.00	0.00	0.00	0.50	0.00	0.00	0.00	0.00	0.00	0.00	-0.835938	0.679199	1.601562	55.860001	-299.739990	47.180000	6.00	0.00	0.00	2.25	0.75	2.00	2.00	5.25	9.50	3.50	7.50	9.00	6.00	5.25	3.50	7.75	5.50	1.50	0.75	-0.163574	0.043457	0.947754	4.900000	-2.380000	2.310000	965.00	0.07	-0.08
3.69	0.00	0.00	0.00	0.00	0.00	0.00	0.00	0.00	0.00	0.25	0.00	0.00	0.00	0.00	0.00	0.00	-0.848633	0.672852	1.727051	64.750000	-290.360016	50.680000	3.00	0.00	0.00	2.50	0.50	1.50	2.00	5.00	9.50	3.50	7.50	9.25	6.25	5.75	3.75	8.25	5.75	1.25	0.75	-0.156738	0.054199	0.956055	6.930000	-0.910000	1.820000	976.00	0.08	-0.08
3.70	0.00	0.00	0.00	0.00	0.00	0.00	0.00	0.00	0.00	0.25	0.00	0.00	0.00	0.00	0.00	0.00	-0.916504	0.674316	2.056152	88.620003	-277.410004	61.180000	3.00	0.00	0.00	1.50	0.50	1.50	1.50	5.00	9.50	3.75	7.75	9.25	6.75	6.25	5.00	8.50	6.00	1.50	1.00	-0.172852	0.064941	0.952148	8.190000	0.140000	1.750000	1005.00	0.09	-0.09
3.71	0.00	0.00	0.00	0.00	0.00	0.00	0.00	0.00	0.00	0.25	0.00	0.00	0.00	0.00	0.00	0.00	-1.024902	0.674805	2.232422	102.269997	-273.420013	67.900002	3.00	0.00	0.00	1.25	0.50	1.00	1.50	4.50	9.50	3.75	7.75	9.25	7.00	6.75	5.25	8.75	6.25	1.50	1.00	-0.174805	0.056152	0.953125	9.660000	1.820000	1.820000	1006.00	0.10	-0.09
3.72	0.00	0.00	0.00	0.00	0.00	0.00	0.00	0.00	0.00	0.00	0.00	0.00	0.00	0.00	0.00	0.00	-1.222168	0.677246	2.356445	117.879997	-270.130005	74.620003	0.00	0.00	0.00	0.75	0.25	0.25	1.50	4.00	9.25	3.75	8.00	9.50	7.25	7.50	6.00	9.00	6.50	2.00	1.00	-0.167480	0.039551	0.963379	11.410000	4.480000	2.030000	1019.00	0.12	-0.09
3.73	0.00	0.00	0.00	0.00	0.00	0.00	0.00	0.00	0.00	0.00	0.00	0.00	0.00	0.00	0.00	0.00	-1.471680	0.701172	2.481445	136.220001	-267.540009	81.059998	0.00	0.00	0.00	0.75	0.50	0.50	1.00	3.75	9.50	3.75	8.00	9.50	7.75	7.75	6.25	9.50	6.75	2.00	1.25	-0.162109	0.051758	0.966797	14.630000	9.590000	2.170000	1040.00	0.12	-0.09
3.74	0.00	0.00	0.00	0.00	0.00	0.00	0.00	0.00	0.00	0.00	0.00	0.00	0.00	0.00	0.00	0.00	-1.768066	0.708984	2.571289	155.119995	-267.679993	86.870003	0.00	0.00	0.00	1.00	0.25	0.25	1.00	3.50	9.00	4.00	8.25	9.75	7.75	8.00	6.75	9.75	7.00	2.00	1.50	-0.178711	0.059570	0.979492	15.260000	15.890000	2.380000	1057.00	0.12	-0.09
3.75	0.00	0.00	0.00	0.00	0.00	0.00	0.00	0.00	0.00	0.00	0.00	0.00	0.00	0.00	0.00	0.00	-2.033203	0.703613	2.580566	172.899994	-271.600006	90.019997	0.00	0.00	0.00	0.50	0.25	0.25	0.75	3.00	9.25	4.00	8.00	10.25	8.00	8.25	7.25	10.25	7.50	2.25	1.75	-0.169434	0.062500	0.984375	16.590000	23.100000	2.380000	1075.00	0.14	-0.09
3.76	0.00	0.00	0.00	0.00	0.00	0.00	0.00	0.00	0.00	0.00	0.00	0.00	0.00	0.00	0.00	0.00	-2.348145	0.662109	2.574707	189.559998	-279.860016	90.370003	0.00	0.00	0.00	0.00	0.00	0.25	0.75	2.75	9.00	4.00	8.00	10.50	8.25	8.75	7.50	10.75	7.75	2.50	2.00	-0.185059	0.063477	0.987793	19.879999	31.219999	2.310000	1088.00	0.14	-0.10
