# time	left pressure 1[N/cm²]	left pressure 2[N/cm²]	left pressure 3[N/cm²]	left pressure 4[N/cm²]	left pressure 5[N/cm²]	left pressure 6[N/cm²]	left pressure 7[N/cm²]	left pressure 8[N/cm²]	left pressure 9[N/cm²]	left pressure 10[N/cm²]	left pressure 11[N/cm²]	left pressure 12[N/cm²]	left pressure 13[N/cm²]	left pressure 14[N/cm²]	left pressure 15[N/cm²]	left pressure 16[N/cm²]	left acceleration X[g]	left acceleration Y[g]	left acceleration Z[g]	left angular X[dps]	left angular Y[dps]	left angular Z[dps]	left total force[N]	left center of pressure X[%]	left center of pressure Y[%]	right pressure 1[N/cm²]	right pressure 2[N/cm²]	right pressure 3[N/cm²]	right pressure 4[N/cm²]	right pressure 5[N/cm²]	right pressure 6[N/cm²]	right pressure 7[N/cm²]	right pressure 8[N/cm²]	right pressure 9[N/cm²]	right pressure 10[N/cm²]	right pressure 11[N/cm²]	right pressure 12[N/cm²]	right pressure 13[N/cm²]	right pressure 14[N/cm²]	right pressure 15[N/cm²]	right pressure 16[N/cm²]	right acceleration X[g]	right acceleration Y[g]	right acceleration Z[g]	right angular X[dps]	right angular Y[dps]	right angular Z[dps]	right total force[N]	right center of pressure X[%]	right center of pressure Y[%]
0.00	3.00	2.25	2.75	3.00	1.25	0.75	1.50	2.50	5.25	5.00	5.25	4.75	7.00	6.50	1.75	1.75	-0.275879	0.092285	0.926758	-1.890000	6.300000	0.840000	620.00	0.10	-0.07																									
0.01	2.25	2.00	3.25	3.00	1.25	0.75	1.50	2.50	5.25	5.00	5.00	4.75	7.25	7.00	1.50	1.75	-0.279297	0.088379	0.940430	-1.890000	6.370000	0.700000	616.00	0.11	-0.07																									
0.02	2.75	3.25	2.75	2.75	1.25	0.50	1.50	2.50	5.50	5.50	5.50	5.25	7.50	6.75	2.00	2.00	-0.277832	0.084473	0.940918	-1.960000	6.440000	0.770000	651.00	0.10	-0.07																									
0.03	2.75	2.50	1.50	3.25	1.25	0.75	1.25	2.50	5.25	5.50	5.25	5.00	7.50	7.00	1.75	1.75	-0.283203	0.089844	0.934082	-1.960000	6.300000	0.840000	621.00	0.11	-0.07																									
0.04	3.00	2.50	2.75	2.75	1.50	1.00	1.50	2.25	5.25	5.25	5.25	5.00	7.50	6.75	2.00	1.50	-0.280273	0.089844	0.937988	-2.030000	5.810000	1.120000	635.00	0.10	-0.07																									
0.05	2.50	2.75	2.75	3.00	1.50	0.75	1.50	2.75	5.25	5.25	5.75	5.00	7.50	7.25	2.25	1.50	-0.280273	0.089844	0.937988	-2.030000	5.810000	1.120000	654.00	0.11	-0.07																									
0.06	2.75	3.00	2.75	2.75	1.25	0.50	1.50	2.25	5.25	5.75	5.50	5.00	7.50	7.00	1.50	1.75	-0.278320	0.088379	0.934570	-2.170000	5.460000	1.260000	635.00	0.10	-0.06																									
0.07	3.00	3.50	3.25	3.00	1.50	0.50	1.50	2.50	5.25	5.25	5.50	5.25	7.75	7.25	1.75	1.75	-0.279297	0.093750	0.931152	-2.380000	4.480000	1.470000	664.00	0.09	-0.07	2.25	0.50	1.00	0.50	1.00	0.00	1.00	1.25	3.00	3.00	3.25	3.50	7.00	5.00	1.25	2.00	-0.211914	0.102539	0.952148	-3.430000	-0.490000	0.420000	391.00	0.15	-0.08
0.08	3.25	2.75	3.00	3.25	1.25	0.75	1.25	2.50	5.50	5.50	5.50	4.50	7.75	7.25	2.00	2.00	-0.282227	0.088379	0.932617	-2.450000	3.990000	1.610000	657.00	0.10	-0.07	1.50	0.25	1.25	0.50	1.00	0.00	1.00	1.25	3.00	3.00	3.25	3.75	6.75	5.00	1.00	1.75	-0.214355	0.101074	0.945801	-3.640000	-0.770000	0.350000	379.00	0.16	-0.08
0.09	2.50	3.00	2.75	3.25	1.25	0.75	1.50	2.25	5.50	5.50	5.75	5.00	7.75	7.25	2.00	1.75	-0.275879	0.085449	0.935059	-2.590000	3.640000	1.470000	655.00	0.11	-0.07	1.75	0.50	1.25	0.75	1.25	0.00	1.00	1.50	3.00	2.75	3.50	3.75	7.00	5.00	1.25	1.75	-0.213379	0.100098	0.953613	-3.850000	-0.910000	0.350000	400.00	0.15	-0.09
0.10	3.25	3.50	2.75	3.00	1.25	0.75	1.25	2.50	5.50	5.50	5.75	5.00	7.50	7.25	2.00	1.50	-0.280762	0.089844	0.928223	-2.730000	3.220000	1.400000	662.00	0.10	-0.07	1.50	0.50	1.50	0.75	1.00	0.00	1.00	1.50	3.00	3.00	3.50	3.75	6.75	5.00	1.50	1.75	-0.213867	0.099121	0.948242	-3.850000	-0.980000	0.350000	401.00	0.15	-0.08
0.11	3.00	3.25	2.50	2.50	1.25	0.75	1.50	2.25	5.50	5.75	5.75	4.50	7.50	7.25	1.75	1.50	-0.281250	0.092773	0.931152	-2.660000	3.010000	1.330000	642.00	0.10	-0.06	2.00	0.50	1.50	0.75	1.25	0.00	1.00	1.50	3.00	3.00	3.50	3.50	6.75	5.00	1.25	2.00	-0.216797	0.095215	0.946289	-3.780000	-1.330000	0.490000	405.00	0.14	-0.08
0.12	3.00	2.50	2.75	2.75	1.25	0.75	1.50	2.50	5.50	5.50	5.50	5.00	7.75	7.00	1.75	1.75	-0.281738	0.086426	0.931152	-2.660000	2.800000	1.400000	646.00	0.11	-0.07	2.00	0.50	1.50	0.50	1.25	0.00	1.00	1.50	2.75	3.25	3.25	3.50	6.75	5.00	0.75	1.50	-0.211426	0.098145	0.951660	-3.710000	-1.260000	0.630000	390.00	0.14	-0.08
0.13	3.25	3.00	3.00	3.25	1.25	0.75	1.25	2.50	5.50	5.75	6.00	5.00	7.75	7.25	1.75	1.50	-0.278809	0.092773	0.934082	-2.800000	2.800000	1.330000	668.00	0.10	-0.07	1.75	0.50	1.25	0.50	1.25	0.00	1.00	1.50	3.25	3.00	3.50	3.75	6.75	5.00	1.25	1.75	-0.211426	0.099609	0.949707	-3.570000	-1.260000	0.700000	401.00	0.15	-0.08
0.14	2.75	2.75	2.75	3.00	1.25	0.75	1.50	2.75	5.50	5.75	6.25	4.50	7.75	7.00	1.75	1.50	-0.281250	0.087891	0.940918	-2.940000	3.080000	1.260000	657.00	0.10	-0.07	1.75	0.50	1.25	0.50	1.25	0.00	1.25	1.50	2.75	3.25	3.25	4.00	6.50	5.00	1.25	1.75	-0.209961	0.098633	0.954102	-3.710000	-1.400000	0.770000	399.00	0.15	-0.08
0.15	2.75	3.00	2.75	2.75	1.25	0.75	1.50	2.50	5.50	5.50	5.75	4.75	7.75	7.00	2.00	1.50	-0.277832	0.089844	0.935547	-2.940000	3.290000	1.330000	650.00	0.10	-0.07	2.00	0.50	1.50	0.50	1.00	0.00	1.00	1.25	3.25	3.00	3.25	3.50	6.50	5.00	1.25	1.75	-0.209473	0.101562	0.948242	-3.570000	-1.260000	0.770000	392.00	0.15	-0.07
0.16	2.75	3.25	3.25	3.25	1.50	0.75	1.50	2.50	5.50	5.75	5.75	5.00	7.75	7.00	1.75	2.00	-0.281738	0.088867	0.940918	-2.940000	3.360000	1.330000	673.00	0.10	-0.07	2.00	0.50	1.75	0.75	1.25	0.00	1.00	1.25	3.00	3.00	3.50	3.75	6.50	5.00	1.25	1.50	-0.210938	0.099121	0.953125	-3.500000	-1.330000	0.770000	402.00	0.14	-0.07
0.17	3.25	2.50	2.75	3.00	1.50	1.00	1.50	2.50	5.50	5.50	6.25	5.25	7.75	7.00	1.75	1.50	-0.284668	0.091797	0.938477	-2.940000	2.940000	1.330000	668.00	0.10	-0.07	2.25	0.75	1.25	0.50	1.50	0.00	1.25	1.50	2.75	3.00	3.50	3.25	6.50	5.00	1.25	1.50	-0.201660	0.100098	0.951172	-3.430000	-1.330000	0.910000	400.00	0.13	-0.07
0.18	3.25	3.00	2.75	3.00	1.25	0.75	1.50	2.75	5.50	5.75	6.00	5.00	7.50	7.00	2.00	1.50	-0.274902	0.084961	0.934570	-3.010000	2.730000	1.260000	669.00	0.10	-0.07	2.00	0.50	1.75	0.75	1.25	0.00	1.00	1.25	3.00	3.25	3.25	3.50	6.50	5.00	1.25	1.25	-0.202637	0.098633	0.951172	-3.360000	-1.400000	0.840000	397.00	0.14	-0.07
0.19	3.00	3.50	3.00	3.00	1.50	0.75	1.50	2.50	5.25	5.75	6.25	5.00	7.75	7.00	1.75	1.50	-0.283691	0.088379	0.939453	-3.150000	2.660000	1.260000	672.00	0.09	-0.07	2.00	0.50	1.75	0.75	1.25	0.00	1.25	1.50	2.75	3.00	3.50	3.50	6.50	5.00	1.00	1.50	-0.208008	0.098633	0.951172	-3.360000	-1.330000	0.840000	400.00	0.13	-0.07
0.20	3.25	3.50	3.50	3.25	1.50	1.00	1.50	2.25	5.25	5.75	6.75	5.00	8.00	7.00	2.00	1.50	-0.276855	0.085938	0.940918	-3.080000	2.380000	1.330000	693.00	0.09	-0.07	1.75	0.75	1.50	1.25	1.25	0.00	1.25	1.25	3.00	3.25	3.25	3.75	6.50	5.00	1.00	1.50	-0.204590	0.106445	0.949707	-3.360000	-1.120000	0.910000	405.00	0.13	-0.07
0.21	3.50	3.50	3.25	3.00	1.50	0.75	1.50	2.50	5.25	5.75	6.25	5.00	7.75	7.00	1.50	1.50	-0.279297	0.090820	0.938477	-3.080000	2.310000	1.260000	678.00	0.09	-0.07	2.25	0.75	1.50	0.75	1.25	0.00	1.25	1.25	3.00	3.25	3.50	3.75	6.50	4.75	1.00	1.25	-0.201660	0.100586	0.947754	-3.290000	-1.050000	0.840000	404.00	0.13	-0.07
0.22	3.25	3.50	3.25	3.25	1.50	1.25	1.50	2.75	5.50	5.75	6.25	5.00	8.00	7.00	2.00	1.50	-0.271973	0.092773	0.936523	-3.080000	2.520000	1.120000	699.00	0.09	-0.07	2.00	0.75	1.50	0.75	1.25	0.00	1.25	1.25	3.25	3.25	3.25	3.50	6.50	5.00	1.00	1.25	-0.200684	0.099121	0.955566	-3.290000	-0.770000	0.630000	401.00	0.14	-0.06
0.23	3.25	3.00	3.25	3.50	1.50	1.25	1.50	2.75	5.75	5.75	6.50	5.00	7.75	6.75	1.75	1.75	-0.278320	0.093750	0.941406	-3.080000	2.520000	1.120000	698.00	0.09	-0.07	2.00	0.75	1.50	0.50	1.25	0.00	1.25	1.25	3.00	3.25	3.50	3.50	6.25	4.75	1.00	1.50	-0.198242	0.107422	0.954590	-3.220000	-0.560000	0.560000	395.00	0.14	-0.07
0.24	3.25	3.50	3.50	3.50	1.50	1.00	1.50	2.75	5.50	5.75	6.25	5.00	7.75	6.75	1.75	1.50	-0.276367	0.092285	0.943359	-3.150000	2.870000	1.050000	695.00	0.08	-0.07	2.25	0.50	1.50	0.75	1.25	0.00	1.25	1.50	3.25	3.00	3.25	3.50	6.50	4.75	1.25	1.50	-0.205566	0.096680	0.955566	-3.220000	-0.350000	0.420000	405.00	0.13	-0.07
0.25	3.50	3.50	3.25	3.25	1.50	0.75	1.50	2.75	5.50	5.75	6.25	5.00	7.75	7.00	2.00	1.50	-0.277344	0.097168	0.934082	-3.080000	3.290000	0.980000	694.00	0.09	-0.07	2.25	0.75	1.50	0.75	1.25	0.00	1.25	1.50	3.00	3.25	3.50	3.75	6.50	4.75	1.00	1.50	-0.206543	0.104004	0.944824	-3.080000	-0.140000	0.420000	410.00	0.13	-0.07
0.26	3.25	3.50	3.25	3.00	1.50	0.75	1.50	2.50	5.50	5.75	6.50	5.00	7.75	6.75	1.75	1.50	-0.272461	0.088867	0.937012	-2.940000	3.640000	1.050000	682.00	0.09	-0.07	2.25	0.75	1.50	0.50	1.25	0.00	1.25	1.50	3.00	3.00	3.50	3.50	6.25	4.75	1.00	1.50	-0.204590	0.096191	0.949707	-3.150000	0.280000	0.280000	399.00	0.13	-0.07
0.27	3.00	3.50	3.75	3.25	1.75	1.25	1.50	2.50	5.50	5.75	6.25	5.00	7.75	6.75	1.75	1.75	-0.273926	0.085449	0.942383	-2.660000	3.990000	1.120000	696.00	0.08	-0.07	2.25	0.50	1.75	1.00	1.25	0.00	1.25	1.25	3.25	3.00	3.50	3.50	6.50	5.00	1.25	1.50	-0.207031	0.104004	0.953125	-3.150000	0.630000	0.210000	412.00	0.13	-0.06
0.28	4.00	4.00	3.25	3.75	1.75	1.00	1.50	2.75	5.75	5.50	6.25	5.00	7.75	7.00	2.00	1.25	-0.273438	0.091309	0.942871	-2.660000	4.620000	1.120000	716.00	0.08	-0.07	2.25	0.50	1.50	0.75	1.25	0.00	1.25	1.50	3.00	3.00	3.50	3.50	6.50	4.75	1.00	1.50	-0.205566	0.103027	0.953125	-3.080000	0.630000	0.210000	402.00	0.13	-0.07
0.29	3.00	3.25	3.50	3.00	1.50	1.00	1.50	2.75	5.50	6.00	6.25	4.50	7.75	6.75	1.50	1.75	-0.270020	0.083008	0.933594	-2.660000	5.110000	1.120000	679.00	0.09	-0.07	2.00	0.50	1.75	0.75	1.25	0.00	1.25	1.50	3.25	3.25	3.50	3.25	6.25	5.00	1.25	1.25	-0.203125	0.104492	0.950684	-3.010000	0.980000	0.070000	407.00	0.14	-0.06
0.30	3.25	3.50	3.50	3.25	1.50	1.00	1.75	2.75	5.50	6.00	6.25	4.75	7.75	7.00	1.75	1.50	-0.277832	0.084961	0.936523	-2.590000	5.600000	1.260000	698.00	0.09	-0.06	2.25	0.25	1.75	0.75	1.50	0.00	1.25	1.50	3.00	3.00	3.50	3.50	6.25	4.75	1.00	1.25	-0.205078	0.100098	0.945312	-3.010000	1.190000	-0.210000	401.00	0.13	-0.07
0.31	3.50	3.25	3.50	3.50	1.75	1.00	1.50	2.50	5.25	5.75	6.00	5.00	8.00	7.00	1.50	1.50	-0.275879	0.090332	0.935547	-2.450000	5.670000	1.260000	690.00	0.08	-0.07	2.00	0.50	1.75	0.75	1.50	0.00	1.25	1.25	3.00	3.00	3.25	3.50	6.50	4.50	1.00	1.25	-0.207520	0.102051	0.953125	-3.080000	1.330000	-0.000000	394.00	0.13	-0.07
0.32	3.50	3.50	3.50	3.50	1.50	1.25	1.50	2.75	5.50	6.00	6.00	5.00	7.75	7.00	1.75	1.25	-0.273438	0.085938	0.939941	-2.310000	5.530000	1.260000	702.00	0.08	-0.07	2.25	0.50	1.75	1.00	1.50	0.00	1.25	1.25	3.00	3.25	3.25	3.50	6.25	4.75	1.00	1.50	-0.206543	0.098633	0.947754	-3.080000	1.330000	-0.140000	404.00	0.12	-0.06
0.33	3.00	3.50	3.50	3.25	1.50	1.00	1.50	2.50	5.50	5.75	6.00	5.00	8.00	7.00	1.75	1.25	-0.278320	0.086914	0.938965	-2.310000	5.530000	1.190000	685.00	0.09	-0.07	2.75	0.75	2.00	1.00	1.25	0.00	1.25	1.25	3.25	3.25	3.50	3.75	6.50	4.75	1.00	1.25	-0.205566	0.101074	0.953613	-3.150000	1.260000	-0.210000	422.00	0.12	-0.06
0.34	3.50	3.75	3.25	3.50	1.50	1.00	1.50	2.50	5.50	5.75	6.00	5.00	8.00	7.00	1.75	1.25	-0.277344	0.091797	0.937500	-2.310000	5.600000	1.190000	693.00	0.08	-0.07	2.00	0.75	1.50	0.75	1.50	0.00	1.25	1.25	3.25	3.25	3.50	3.50	6.50	4.50	1.00	1.25	-0.208008	0.102051	0.958496	-3.220000	1.330000	-0.280000	403.00	0.13	-0.07
0.35	3.25	3.50	3.25	3.00	1.50	1.00	1.50	2.50	5.50	6.25	6.25	5.00	7.75	7.00	1.75	1.50	-0.279297	0.097168	0.936523	-2.310000	5.670000	1.120000	690.00	0.09	-0.06	2.25	0.50	1.50	1.00	1.00	0.00	1.00	1.25	3.00	3.25	3.50	3.50	6.25	4.75	1.25	1.25	-0.206055	0.099121	0.948730	-3.150000	1.050000	-0.210000	395.00	0.13	-0.07
0.36	3.50	3.50	3.50	3.25	1.50	1.00	1.50	2.50	5.50	6.00	6.00	4.75	8.00	7.00	1.50	1.50	-0.276367	0.085938	0.939453	-2.310000	6.020000	1.050000	690.00	0.08	-0.06	2.25	0.75	1.75	0.50	1.25	0.00	1.25	1.25	3.00	3.00	3.50	3.50	6.50	4.75	1.00	1.50	-0.202637	0.105957	0.948730	-3.360000	0.770000	-0.070000	400.00	0.13	-0.07
0.37	3.50	3.25	3.50	3.25	1.50	1.25	1.50	2.50	5.50	5.75	6.00	5.00	7.75	6.75	1.75	1.50	-0.279785	0.087891	0.940430	-2.170000	6.230000	0.980000	688.00	0.08	-0.07	2.50	0.75	1.75	0.75	1.25	0.00	1.25	1.50	3.00	3.00	3.50	3.50	6.50	4.75	1.00	1.25	-0.202148	0.101562	0.948730	-3.290000	0.560000	-0.000000	408.00	0.12	-0.07
0.38	3.25	2.50	3.25	3.25	1.50	1.00	1.50	2.50	5.50	5.75	6.25	4.75	7.75	6.75	1.75	1.50	-0.272949	0.092773	0.935059	-2.170000	6.160000	1.050000	672.00	0.09	-0.06	2.25	0.75	2.00	1.00	1.25	0.00	1.25	1.50	3.00	3.00	3.25	3.50	6.25	4.75	1.00	1.50	-0.207031	0.105469	0.949707	-3.290000	0.280000	-0.000000	408.00	0.12	-0.07
0.39	3.00	3.50	3.50	3.25	1.50	0.50	1.50	2.50	5.50	5.75	6.25	5.00	7.75	7.00	1.50	1.50	-0.283203	0.088867	0.939941	-2.170000	5.950000	1.050000	679.00	0.09	-0.06	2.25	0.75	1.50	0.75	1.50	0.00	1.25	1.50	3.00	3.25	3.50	3.50	6.50	4.75	0.75	1.50	-0.204102	0.103516	0.953613	-3.430000	0.210000	-0.000000	407.00	0.12	-0.07
0.40	3.50	3.75	3.25	3.00	1.50	0.75	1.50	2.25	5.50	5.75	6.25	5.00	8.00	7.00	1.50	1.50	-0.273438	0.087402	0.939941	-2.240000	5.670000	1.190000	682.00	0.09	-0.06	2.00	0.75	1.75	1.00	1.25	0.00	1.25	1.50	3.25	3.25	3.50	3.50	6.50	5.00	1.25	1.50	-0.202148	0.098633	0.947754	-3.360000	0.140000	0.140000	419.00	0.13	-0.07
0.41	3.50	3.25	3.00	3.25	1.50	0.75	1.50	2.50	5.50	5.75	6.25	4.50	7.75	7.00	1.50	1.25	-0.279297	0.087402	0.933105	-2.170000	5.600000	1.260000	671.00	0.09	-0.06	2.00	0.50	1.50	1.00	1.25	0.00	1.25	1.50	3.25	3.25	3.50	3.25	6.25	4.50	1.00	1.25	-0.206543	0.099121	0.951660	-3.360000	-0.070000	0.140000	399.00	0.13	-0.07
0.42	3.00	3.50	2.75	3.25	1.50	0.50	1.50	2.50	5.50	5.50	6.25	5.00	7.75	7.00	1.75	1.50	-0.275879	0.093262	0.939453	-2.170000	5.390000	1.400000	669.00	0.10	-0.07	2.50	0.50	1.75	0.75	1.25	0.00	1.25	1.50	3.25	3.25	3.25	3.25	6.25	4.75	0.75	1.25	-0.203613	0.102539	0.944336	-3.360000	-0.280000	0.210000	401.00	0.12	-0.06
0.43	3.25	3.25	3.25	3.00	1.50	1.00	1.50	2.50	5.50	5.75	6.00	4.75	7.75	7.00	1.75	1.25	-0.278809	0.090820	0.937988	-2.520000	5.250000	1.330000	674.00	0.09	-0.06	2.00	0.75	1.75	0.75	1.50	0.00	1.25	1.25	3.25	3.00	3.50	3.50	6.50	4.75	1.00	1.00	-0.205078	0.109375	0.956543	-3.500000	-0.700000	0.350000	404.00	0.13	-0.06
0.44	3.25	3.00	3.25	3.50	1.50	0.75	1.50	2.50	5.50	5.50	6.00	4.50	7.75	6.75	1.50	1.50	-0.278809	0.090332	0.932617	-2.730000	4.830000	1.330000	665.00	0.09	-0.06	2.50	0.75	1.75	0.50	1.50	0.00	1.25	1.25	3.00	3.00	3.50	3.25	6.25	4.50	1.00	1.25	-0.204102	0.098145	0.950195	-3.640000	-0.910000	0.420000	397.00	0.12	-0.06
0.45	3.25	3.25	3.50	3.25	1.50	1.00	1.50	2.50	5.50	5.25	6.00	5.00	8.00	7.00	1.50	1.50	-0.280273	0.091797	0.942871	-2.940000	4.270000	1.190000	679.00	0.09	-0.07	2.75	0.75	2.00	0.75	1.50	0.00	1.25	1.25	3.25	3.25	3.50	3.50	6.25	4.50	1.00	1.25	-0.199707	0.094727	0.958008	-3.640000	-0.910000	0.350000	415.00	0.11	-0.06
0.46	3.25	3.50	3.25	3.00	1.50	0.75	1.50	2.75	5.50	5.50	6.00	4.75	8.00	6.75	1.75	1.25	-0.282227	0.088379	0.934082	-3.010000	3.640000	1.260000	675.00	0.09	-0.07	2.50	0.75	2.00	1.00	1.50	0.00	1.25	1.50	3.00	3.25	3.50	3.50	6.00	4.75	1.00	1.25	-0.200195	0.104004	0.954102	-3.640000	-0.700000	0.350000	416.00	0.11	-0.06
0.47	3.50	3.00	3.50	3.75	1.75	1.00	1.50	2.50	5.25	6.00	5.75	4.50	8.00	6.75	1.50	1.25	-0.273926	0.089355	0.940430	-3.150000	3.430000	1.050000	680.00	0.08	-0.07	2.50	0.75	1.75	0.75	1.50	0.00	1.25	1.50	3.25	3.25	3.50	3.50	6.25	4.50	1.00	1.25	-0.200195	0.097656	0.950684	-3.430000	-0.490000	0.280000	413.00	0.12	-0.06
0.48	3.00	3.50	3.00	3.50	1.50	0.75	1.50	2.50	5.25	5.75	6.00	4.75	7.75	7.00	1.75	1.25	-0.274902	0.087891	0.940918	-3.150000	3.360000	1.120000	670.00	0.09	-0.07	2.50	0.75	2.00	0.50	1.50	0.00	1.25	1.25	3.25	3.25	3.50	3.50	6.25	4.75	1.00	1.25	-0.201660	0.100098	0.959961	-3.430000	-0.210000	0.280000	411.00	0.12	-0.06
0.49	3.25	3.50	3.50	3.00	1.50	1.00	1.50	2.25	5.50	5.75	6.00	4.75	7.75	7.00	1.50	1.50	-0.271484	0.091309	0.942871	-3.150000	3.360000	1.120000	674.00	0.09	-0.06	2.25	0.50	1.75	1.00	1.50	0.00	1.25	1.50	3.25	3.25	3.25	3.25	6.25	4.50	1.25	1.00	-0.198242	0.102051	0.949707	-3.080000	0.000000	0.350000	406.00	0.12	-0.06
0.50	3.25	3.75	3.25	3.25	1.50	0.75	1.50	2.25	5.50	6.00	5.75	4.75	7.75	7.00	1.75	1.50	-0.273926	0.087402	0.944336	-3.150000	3.850000	1.050000	677.00	0.09	-0.06	2.50	0.50	2.00	0.50	1.50	0.00	1.25	1.50	3.25	3.00	3.50	3.25	6.25	4.75	1.00	1.25	-0.199707	0.096191	0.949219	-3.010000	0.420000	0.350000	407.00	0.12	-0.06
0.51	3.25	3.50	3.25	3.25	1.50	0.75	1.50	2.75	5.50	5.75	5.75	4.75	7.75	7.00	1.75	1.25	-0.276367	0.091309	0.942383	-3.080000	3.990000	0.980000	678.00	0.09	-0.07	2.25	0.75	2.00	1.00	1.50	0.00	1.25	1.25	3.25	3.25	3.50	3.50	6.25	4.50	1.00	1.25	-0.202148	0.100586	0.950684	-2.940000	0.700000	0.420000	412.00	0.12	-0.06
0.52	3.50	3.25	3.50	3.25	1.50	0.75	1.50	2.50	5.25	5.75	6.25	4.50	7.75	6.75	1.75	1.50	-0.274902	0.089844	0.937988	-3.080000	4.270000	1.050000	676.00	0.08	-0.06	2.50	0.50	1.75	0.75	1.50	0.00	1.25	1.25	3.25	3.00	3.25	3.50	6.25	4.75	1.00	1.25	-0.201660	0.104492	0.950195	-2.870000	0.630000	0.490000	403.00	0.12	-0.06
0.53	3.50	3.75	3.25	3.50	1.50	1.25	1.50	2.25	5.25	5.75	6.00	4.50	7.75	7.00	1.75	1.25	-0.279785	0.088867	0.939453	-3.010000	4.270000	1.120000	681.00	0.08	-0.06	2.50	0.75	2.00	0.75	1.50	0.00	1.25	1.50	3.25	3.25	3.50	3.50	6.50	4.75	1.00	1.25	-0.202637	0.101562	0.948242	-2.870000	0.840000	0.210000	421.00	0.12	-0.06
0.54	3.50	3.50	3.00	3.25	1.50	0.75	1.50	2.50	5.25	5.75	6.25	4.75	7.75	7.00	1.75	1.50	-0.280273	0.090820	0.928711	-3.080000	4.270000	1.190000	677.00	0.09	-0.07	2.25	0.75	2.00	0.75	1.50	0.00	1.25	1.25	3.25	3.00	3.50	3.50	6.50	4.50	1.00	1.00	-0.203125	0.100098	0.951172	-2.870000	0.700000	0.140000	407.00	0.12	-0.06
0.55	3.50	3.25	3.25	3.00	1.50	1.00	1.50	2.50	5.25	5.75	6.00	4.75	7.75	7.00	1.75	1.50	-0.274414	0.091309	0.940918	-3.080000	3.920000	1.260000	675.00	0.09	-0.07	2.50	0.75	2.00	0.75	1.50	0.00	1.25	1.25	3.00	3.00	3.50	3.50	6.50	4.50	1.00	1.25	-0.201172	0.103027	0.947266	-2.870000	0.420000	0.140000	408.00	0.12	-0.07
0.56	2.75	3.50	3.25	3.25	1.50	1.00	1.50	2.50	5.25	5.50	6.00	4.75	7.75	6.75	1.50	1.50	-0.274414	0.087891	0.941406	-3.150000	3.780000	1.260000	664.00	0.09	-0.07	2.75	1.00	1.75	0.75	1.50	0.00	1.25	1.25	3.25	3.00	3.50	3.50	6.50	4.50	1.00	1.25	-0.202637	0.106445	0.954590	-3.010000	0.210000	0.140000	414.00	0.11	-0.06
0.57	3.75	3.25	3.25	3.00	1.50	1.00	1.50	2.50	5.50	5.75	6.00	4.50	7.75	6.75	1.50	1.50	-0.277344	0.087402	0.939941	-3.150000	3.710000	1.190000	673.00	0.08	-0.06	2.50	0.75	2.00	1.00	1.50	0.00	1.25	1.50	3.25	3.00	3.50	3.50	6.50	4.50	0.75	1.25	-0.202637	0.104492	0.954590	-3.080000	0.070000	0.070000	416.00	0.11	-0.07
0.58	3.50	3.50	3.50	3.25	1.75	1.25	1.50	2.50	5.50	5.50	5.75	4.50	7.75	6.75	1.75	1.25	-0.273926	0.088379	0.934082	-3.150000	3.920000	1.190000	681.00	0.08	-0.06	2.50	0.75	1.75	0.75	1.50	0.00	1.25	1.50	3.25	3.25	3.25	3.50	6.50	4.75	1.00	1.25	-0.200195	0.105957	0.947266	-3.080000	0.140000	-0.070000	415.00	0.12	-0.06
0.59	3.25	4.00	3.75	3.50	1.50	1.50	1.50	2.25	5.25	5.50	5.75	4.75	7.75	6.75	1.50	1.25	-0.272949	0.090332	0.942871	-3.290000	4.200000	1.120000	681.00	0.07	-0.07	2.50	0.75	2.00	0.50	1.50	0.00	1.25	1.50	3.25	3.25	3.50	3.75	6.50	4.75	1.00	1.25	-0.201660	0.102539	0.948242	-3.150000	0.070000	0.070000	421.00	0.12	-0.06
0.60	3.50	3.50	3.25	3.50	1.50	1.00	1.50	2.25	5.50	5.75	6.00	4.25	7.75	6.75	1.50	1.50	-0.273438	0.084473	0.937012	-3.010000	4.130000	1.260000	672.00	0.08	-0.06	2.50	1.00	2.00	0.75	1.50	0.00	1.25	1.50	3.25	3.25	3.50	3.25	6.50	4.50	1.00	1.50	-0.202148	0.099121	0.954102	-3.150000	0.000000	0.140000	420.00	0.11	-0.07
0.61	3.25	3.75	3.75	3.25	1.50	0.75	1.50	2.25	5.50	5.50	5.75	4.50	7.50	6.75	1.50	1.25	-0.277344	0.089844	0.940918	-2.870000	4.200000	1.190000	665.00	0.08	-0.06	2.50	0.75	2.25	1.00	1.50	0.00	1.25	1.50	3.25	3.25	3.50	3.50	6.50	4.50	1.00	1.00	-0.197754	0.100098	0.950684	-3.150000	0.000000	0.140000	423.00	0.11	-0.06
0.62	3.25	3.25	3.50	3.25	1.50	1.25	1.50	2.50	5.50	5.50	5.75	4.25	7.75	6.75	1.50	1.25	-0.274902	0.083984	0.934570	-2.800000	4.620000	1.260000	667.00	0.08	-0.06	2.50	0.75	2.00	0.75	1.50	0.00	1.25	1.50	3.25	3.25	3.50	3.50	6.25	4.75	0.75	1.75	-0.199219	0.101562	0.953125	-2.940000	0.000000	0.140000	419.00	0.12	-0.06
0.63	3.50	3.75	3.50	3.50	1.50	0.75	1.50	2.25	5.50	5.50	6.00	4.50	7.50	6.50	1.50	1.25	-0.275879	0.085938	0.942871	-2.800000	4.760000	1.190000	669.00	0.08	-0.06	2.75	0.50	2.00	0.75	1.50	0.00	1.25	1.50	3.25	3.25	3.75	3.75	6.50	4.75	1.00	1.25	-0.198730	0.099121	0.947754	-2.800000	0.280000	0.210000	427.00	0.12	-0.06
0.64	3.50	3.00	3.50	3.00	1.50	0.75	1.50	2.50	5.25	5.25	5.75	4.50	7.50	6.75	1.75	1.25	-0.276367	0.087402	0.934082	-2.940000	4.550000	1.330000	655.00	0.08	-0.06	2.75	0.75	2.00	1.00	1.50	0.00	1.25	1.50	3.50	3.25	3.75	3.75	6.50	4.75	0.75	1.25	-0.203125	0.103516	0.952637	-2.800000	0.630000	0.210000	433.00	0.11	-0.06
0.65	4.00	3.25	3.50	3.25	1.50	1.00	1.50	2.50	5.50	5.50	5.50	4.25	7.50	6.75	1.50	1.25	-0.277344	0.092773	0.939941	-3.150000	4.270000	1.260000	667.00	0.08	-0.06	2.75	0.75	2.00	0.75	1.50	0.00	1.25	1.50	3.25	3.25	3.50	3.75	6.50	4.50	1.25	1.50	-0.198730	0.099121	0.955566	-2.520000	1.050000	0.140000	429.00	0.12	-0.07
0.66	3.75	3.25	3.25	3.50	1.50	1.00	1.50	2.25	5.25	5.25	5.75	4.25	7.50	7.00	1.75	1.50	-0.273926	0.088867	0.936035	-3.360000	4.130000	0.910000	663.00	0.08	-0.06	2.75	0.50	2.00	1.00	1.50	0.00	1.25	1.50	3.25	3.50	3.75	3.75	6.50	4.75	1.00	1.25	-0.202148	0.102539	0.949707	-2.590000	1.610000	-0.000000	433.00	0.12	-0.06
0.67	3.50	3.50	3.50	3.50	1.50	1.25	1.50	2.00	5.50	5.25	5.50	4.25	7.50	6.75	1.50	1.00	-0.273438	0.085449	0.941406	-3.430000	4.340000	0.770000	657.00	0.07	-0.06	2.75	0.75	2.00	0.75	1.50	0.00	1.25	1.50	3.25	3.25	3.50	3.75	6.50	4.50	0.75	1.50	-0.204590	0.100098	0.953613	-2.660000	2.100000	-0.140000	423.00	0.11	-0.07
0.68	3.50	3.50	3.50	3.50	1.50	1.00	1.50	2.25	5.25	5.25	5.50	4.50	7.50	6.75	1.50	1.25	-0.270996	0.084473	0.938477	-3.430000	4.480000	0.840000	659.00	0.08	-0.06	2.75	0.75	2.00	1.00	1.50	0.00	1.25	1.50	3.25	3.25	3.50	3.50	6.75	4.50	1.00	1.50	-0.202148	0.098633	0.950195	-2.380000	2.730000	-0.490000	428.00	0.11	-0.07
0.69	3.75	4.00	3.50	3.50	1.50	1.00	1.50	2.50	5.50	5.00	5.50	4.25	7.50	6.75	1.50	1.25	-0.274902	0.084473	0.939453	-3.360000	4.760000	0.980000	669.00	0.07	-0.06	2.75	0.75	1.75	0.75	1.50	0.00	1.25	1.50	3.25	3.00	3.50	3.50	6.50	4.50	1.00	1.25	-0.205078	0.103027	0.949219	-2.450000	2.800000	-0.560000	416.00	0.11	-0.07
0.70	3.50	3.75	3.50	3.25	1.50	1.00	1.50	2.25	5.50	5.25	5.75	4.25	7.50	6.75	1.25	1.50	-0.272949	0.088867	0.937988	-3.080000	4.830000	1.120000	661.00	0.08	-0.06	2.75	0.75	2.00	0.75	1.25	0.00	1.25	1.50	3.00	3.50	3.50	3.50	6.75	4.75	1.00	1.25	-0.199219	0.108398	0.947754	-2.450000	2.800000	-0.630000	422.00	0.12	-0.07
0.71	3.75	3.75	3.50	3.25	1.75	1.00	1.50	2.25	5.25	5.00	5.75	4.00	7.25	6.75	1.50	1.25	-0.277344	0.089355	0.934570	-3.080000	5.040000	1.260000	656.00	0.07	-0.06	2.25	0.50	2.00	0.75	1.50	0.00	1.25	1.50	3.25	3.25	3.50	3.75	6.75	4.50	1.00	1.50	-0.198730	0.101562	0.953125	-2.310000	2.660000	-0.630000	420.00	0.12	-0.07
0.72	3.50	3.25	3.50	3.25	1.50	0.75	1.50	2.00	5.50	5.00	5.75	4.50	7.00	6.75	1.50	1.25	-0.276855	0.090820	0.936035	-3.080000	4.970000	1.190000	645.00	0.08	-0.05	2.50	0.75	2.00	0.75	1.50	0.00	1.25	1.50	3.25	3.25	3.75	3.50	7.00	4.75	1.25	1.50	-0.204102	0.101074	0.955566	-2.450000	2.310000	-0.490000	433.00	0.12	-0.07
0.73	3.75	3.75	3.50	3.25	1.50	1.00	1.50	2.25	5.50	5.00	5.50	4.25	7.25	7.00	1.50	1.50	-0.279297	0.085449	0.937500	-3.150000	5.040000	0.980000	661.00	0.07	-0.06	2.50	0.50	1.75	1.00	1.50	0.00	1.25	1.50	3.50	3.50	3.75	3.75	6.75	4.75	1.00	1.50	-0.203125	0.102539	0.948730	-2.520000	1.610000	-0.280000	434.00	0.13	-0.07
0.74	3.50	3.75	3.75	3.25	1.75	1.00	1.50	2.00	5.25	5.00	5.75	4.25	7.00	6.75	1.50	1.25	-0.277344	0.085449	0.942871	-3.150000	5.040000	0.840000	653.00	0.07	-0.06	2.50	0.50	1.75	0.50	1.50	0.00	1.25	1.50	3.25	3.25	3.75	3.75	6.75	4.50	1.25	1.50	-0.204590	0.102539	0.946289	-2.590000	1.050000	-0.210000	422.00	0.13	-0.07
0.75	3.50	3.50	3.50	3.00	1.75	0.75	1.50	2.00	5.25	5.25	5.50	4.00	7.00	6.75	1.50	1.25	-0.275391	0.089355	0.940430	-3.290000	5.530000	0.770000	639.00	0.08	-0.05	2.50	0.75	1.50	1.00	1.50	0.00	1.25	1.50	3.25	3.25	3.75	3.75	6.50	4.75	1.00	1.50	-0.203125	0.100098	0.953125	-2.730000	0.700000	-0.070000	425.00	0.12	-0.07
0.76	3.75	3.25	3.50	3.50	1.50	0.50	1.50	2.00	5.25	5.00	5.75	4.00	7.00	6.75	1.50	1.25	-0.272461	0.090332	0.943848	-3.290000	5.810000	0.980000	639.00	0.08	-0.05	2.50	0.75	2.00	0.75	1.50	0.00	1.25	1.50	3.50	3.25	3.75	4.00	6.75	4.75	1.00	1.25	-0.203613	0.101074	0.957520	-2.730000	0.490000	-0.280000	435.00	0.12	-0.07
0.77	3.25	3.25	3.75	3.25	1.50	1.00	1.50	2.00	5.50	5.25	5.75	3.75	7.00	6.75	1.25	1.25	-0.275879	0.086426	0.941406	-3.150000	6.230000	1.050000	640.00	0.08	-0.05	2.75	0.75	1.50	0.50	1.50	0.00	1.25	1.50	3.25	3.50	3.75	3.75	7.00	5.00	1.00	1.75	-0.202637	0.100098	0.948242	-2.660000	0.350000	-0.350000	433.00	0.13	-0.07
0.78	3.50	3.50	3.75	3.25	1.50	1.25	1.50	2.00	5.25	5.00	5.50	4.25	6.75	6.75	1.50	1.00	-0.276367	0.089844	0.945312	-3.080000	6.580000	1.050000	644.00	0.07	-0.05	2.50	0.50	1.50	0.75	1.50	0.00	1.25	1.50	3.25	3.25	3.75	3.75	6.75	4.75	1.00	1.75	-0.202637	0.102539	0.952148	-2.520000	0.350000	-0.350000	423.00	0.13	-0.07
0.79	3.25	3.25	3.25	3.25	1.50	0.75	1.50	2.00	5.25	5.00	5.50	4.00	6.75	6.75	1.50	1.00	-0.273438	0.089844	0.934570	-2.870000	6.930000	1.120000	623.00	0.08	-0.05	2.25	0.50	2.00	0.75	1.50	0.00	1.25	1.50	3.50	3.75	3.75	4.00	7.00	5.00	1.25	1.50	-0.202637	0.104004	0.949707	-2.310000	0.560000	-0.350000	445.00	0.13	-0.07
0.80	3.00	3.50	3.50	3.00	1.50	1.00	1.50	1.75	5.25	4.75	5.50	4.00	6.75	6.75	1.50	1.25	-0.276367	0.088379	0.936035	-2.450000	7.490000	1.050000	621.00	0.08	-0.05	2.50	0.75	1.75	1.00	1.50	0.00	1.25	1.75	3.50	3.50	4.00	4.25	7.25	4.50	1.00	1.50	-0.202148	0.101562	0.947754	-1.680000	0.000000	0.140000	452.00	0.12	-0.08
0.81	3.25	3.25	3.25	3.00	1.25	0.75	1.50	2.00	5.50	5.00	5.50	3.75	6.50	6.75	1.50	1.25	-0.276367	0.088379	0.936035	-2.450000	7.490000	1.050000	617.00	0.08	-0.05	2.50	0.75	2.00	0.75	1.50	0.00	1.25	1.75	3.50	3.50	4.00	4.00	7.25	4.75	1.00	1.75	-0.198730	0.103027	0.948242	-1.680000	-0.140000	0.070000	453.00	0.12	-0.07
0.82	3.00	3.25	3.25	3.25	1.50	0.75	1.50	2.00	5.25	5.25	5.75	3.75	6.50	6.50	1.50	1.25	-0.276855	0.089844	0.930664	-2.030000	7.630000	1.050000	620.00	0.08	-0.05	2.75	0.75	1.75	0.75	1.50	0.00	1.25	1.75	3.50	3.50	4.00	4.25	7.75	4.75	1.50	1.75	-0.201172	0.100586	0.954590	-1.610000	-0.420000	0.070000	466.00	0.13	-0.08
0.83	3.00	3.25	3.00	3.25	1.50	0.50	1.50	2.00	5.25	4.75	5.75	3.75	6.50	6.50	1.50	1.00	-0.281250	0.085938	0.933594	-1.890000	7.490000	1.120000	607.00	0.08	-0.05	2.50	0.75	2.00	0.50	1.50	0.00	1.25	1.75	3.25	3.50	4.25	4.00	7.50	4.75	1.25	2.00	-0.200684	0.104492	0.950195	-1.680000	-0.490000	0.070000	456.00	0.13	-0.08
0.84	2.25	3.00	3.00	3.25	1.50	0.50	1.25	1.75	5.25	5.25	5.75	4.00	6.50	6.75	1.75	1.25	-0.281738	0.087402	0.934082	-1.820000	7.280000	1.050000	603.00	0.10	-0.05	2.50	0.50	2.00	0.75	1.50	0.00	1.25	1.75	3.25	3.75	4.00	4.25	7.75	5.00	1.00	1.50	-0.202637	0.102539	0.948730	-1.540000	-0.070000	-0.070000	458.00	0.13	-0.08
0.85	3.25	3.25	3.00	3.00	1.50	0.75	1.25	1.75	5.25	4.75	5.50	4.00	6.50	6.75	1.50	1.00	-0.279785	0.094238	0.944336	-2.030000	6.790000	1.050000	604.00	0.08	-0.05	2.50	0.50	1.75	0.75	1.50	0.00	1.25	2.00	3.50	3.75	4.25	4.50	7.75	5.00	1.00	1.75	-0.201660	0.108887	0.952637	-1.470000	0.140000	-0.140000	470.00	0.13	-0.08
0.86	3.00	3.50	3.25	2.75	1.25	0.75	1.50	1.75	5.25	4.75	5.50	3.75	6.25	6.50	1.50	1.25	-0.282227	0.090332	0.937500	-2.240000	6.580000	1.050000	599.00	0.08	-0.05	2.50	0.75	2.00	1.00	1.50	0.00	1.25	2.00	3.25	3.50	4.25	4.50	8.00	5.00	1.00	1.50	-0.201172	0.104004	0.954102	-1.540000	0.420000	-0.140000	473.00	0.12	-0.09
0.87	3.00	3.50	3.25	3.25	1.25	0.75	1.50	1.75	5.25	5.00	5.25	3.50	6.50	6.75	1.25	1.00	-0.277344	0.089844	0.939453	-2.450000	6.300000	0.980000	602.00	0.08	-0.05	2.50	1.25	2.00	0.75	1.25	0.00	1.25	2.00	3.25	3.50	4.25	4.50	7.75	5.00	1.25	1.50	-0.205566	0.101074	0.950195	-1.470000	0.490000	-0.070000	473.00	0.12	-0.09
0.88	3.25	3.50	3.00	3.00	1.25	0.75	1.25	2.00	5.25	4.75	5.50	3.50	6.25	6.75	1.50	1.00	-0.277344	0.094727	0.937500	-2.800000	6.300000	0.910000	599.00	0.08	-0.05	2.50	0.75	1.75	0.75	1.50	0.00	1.25	2.00	3.25	3.75	4.25	4.75	8.25	4.75	1.25	2.00	-0.202148	0.104980	0.951660	-1.540000	0.490000	-0.000000	479.00	0.13	-0.09
0.89	3.25	3.25	2.75	3.00	1.25	0.50	1.25	1.50	5.50	5.00	5.25	4.00	6.25	6.50	1.50	1.00	-0.283691	0.088379	0.937500	-2.870000	6.020000	0.770000	590.00	0.09	-0.05	2.75	0.75	2.00	0.75	1.50	0.00	1.25	2.00	3.25	3.75	4.50	4.75	8.25	4.75	1.00	1.75	-0.202637	0.103516	0.947266	-1.400000	0.140000	0.070000	483.00	0.12	-0.09
0.90	2.75	2.75	3.25	2.75	1.25	0.50	1.25	1.50	5.25	4.75	5.25	4.00	6.25	6.50	1.50	1.25	-0.281250	0.085449	0.937988	-3.150000	5.880000	0.630000	577.00	0.09	-0.05	2.25	0.75	1.75	0.75	1.25	0.00	1.25	2.25	3.25	3.75	4.25	5.00	8.50	4.75	1.00	2.00	-0.199219	0.106445	0.949219	-1.330000	-0.210000	0.280000	479.00	0.13	-0.10
0.91	2.75	2.75	3.00	3.00	1.25	0.50	1.25	1.75	5.25	5.00	5.00	3.75	6.25	6.50	1.50	1.00	-0.284180	0.080566	0.938477	-3.150000	5.530000	0.700000	577.00	0.09	-0.05	2.75	0.75	1.75	1.00	1.75	0.00	1.25	2.25	3.50	3.75	4.50	5.00	8.50	4.75	1.25	2.25	-0.201172	0.105469	0.948242	-1.330000	-0.420000	0.350000	505.00	0.12	-0.10
0.92	3.00	2.75	3.00	2.75	1.00	0.75	1.25	1.50	5.50	4.75	5.25	3.50	6.00	6.50	1.50	1.00	-0.275391	0.087891	0.929688	-3.220000	5.040000	0.840000	571.00	0.09	-0.04	2.75	0.75	2.25	1.00	1.50	0.25	1.25	2.25	3.25	3.75	4.75	5.00	8.75	4.75	1.00	1.75	-0.201660	0.108887	0.945312	-1.540000	-0.490000	0.420000	507.00	0.12	-0.10
0.93	3.00	3.00	3.00	3.00	1.25	0.50	1.25	1.50	5.25	4.75	5.25	3.50	6.25	6.75	1.50	1.00	-0.278809	0.085938	0.939941	-3.360000	4.690000	1.050000	577.00	0.09	-0.04	2.50	0.75	2.50	0.75	1.75	0.00	1.25	2.25	3.25	3.75	4.75	5.00	8.75	5.00	1.25	2.00	-0.204102	0.105469	0.944336	-1.750000	-1.260000	0.700000	511.00	0.12	-0.09
0.94	3.00	3.00	2.75	2.50	1.50	0.50	1.25	1.75	5.25	4.75	5.00	3.25	6.25	6.75	1.25	1.00	-0.285156	0.086426	0.932129	-3.500000	4.480000	1.190000	567.00	0.09	-0.04	2.75	0.50	2.25	0.75	1.50	0.00	1.25	2.50	3.25	3.75	4.75	5.25	8.75	5.00	1.25	2.00	-0.201172	0.108398	0.951172	-1.750000	-1.890000	0.910000	512.00	0.13	-0.10
0.95	3.25	3.00	2.75	2.75	1.25	0.50	1.25	1.75	5.00	5.00	5.00	3.50	6.00	6.50	1.25	1.00	-0.274902	0.087891	0.932129	-3.430000	4.130000	1.330000	567.00	0.09	-0.05	2.75	0.75	2.00	1.00	1.75	0.00	1.25	2.25	3.50	3.75	4.75	5.25	8.75	4.75	1.25	2.25	-0.195801	0.107422	0.947754	-1.960000	-1.540000	0.700000	516.00	0.12	-0.10
0.96	2.75	2.75	3.00	3.00	1.25	0.50	1.25	1.25	5.50	4.75	5.00	3.25	6.00	6.75	1.25	1.00	-0.283203	0.086426	0.938965	-3.500000	3.990000	1.400000	561.00	0.09	-0.04	2.75	1.00	2.25	1.00	1.75	0.00	1.25	2.50	3.25	3.75	4.75	5.50	9.00	4.75	1.00	2.50	-0.193848	0.108398	0.953613	-1.820000	-0.700000	0.630000	526.00	0.12	-0.10
0.97	3.25	3.25	3.00	3.25	1.25	0.50	1.50	1.50	5.25	5.00	5.00	3.25	6.00	6.50	1.25	1.00	-0.277832	0.091797	0.938477	-3.500000	3.850000	1.190000	579.00	0.08	-0.04	2.75	1.00	2.25	1.00	1.50	0.25	1.25	2.50	3.25	3.75	5.00	5.25	9.00	4.75	1.25	2.00	-0.199707	0.101074	0.954590	-1.610000	0.000000	0.700000	526.00	0.12	-0.10
0.98	3.25	3.00	2.75	2.75	1.25	0.50	1.25	1.50	5.25	4.50	5.00	3.50	6.00	6.50	1.25	1.00	-0.276367	0.086914	0.932617	-3.360000	3.920000	0.980000	561.00	0.09	-0.04	3.25	1.00	2.25	1.00	1.75	0.00	1.25	2.50	3.50	3.75	5.00	5.50	9.00	5.00	1.25	1.75	-0.202637	0.110840	0.957031	-1.680000	0.140000	0.770000	539.00	0.11	-0.10
0.99	3.00	3.25	3.25	3.00	1.25	0.50	1.50	1.25	5.25	4.75	5.00	3.50	5.75	6.50	1.25	0.75	-0.276855	0.086426	0.939941	-3.290000	4.060000	0.910000	569.00	0.08	-0.04	2.75	0.75	2.25	1.00	1.75	0.00	1.25	2.50	3.25	4.00	5.00	5.75	9.00	4.50	1.25	2.00	-0.193848	0.109863	0.947266	-1.820000	-0.070000	0.770000	530.00	0.12	-0.10
1.00	3.25	3.25	3.25	3.00	1.25	0.75	1.25	1.50	5.25	4.75	4.75	3.25	6.00	6.50	1.00	0.75	-0.281250	0.087891	0.932617	-3.220000	3.990000	0.910000	568.00	0.07	-0.04	2.75	0.75	2.25	1.00	1.75	0.25	1.25	2.50	3.25	3.75	5.00	5.75	9.00	4.75	1.25	2.00	-0.194824	0.109863	0.946777	-1.960000	-0.350000	0.770000	532.00	0.12	-0.11
1.01	3.25	3.25	3.25	2.75	1.50	0.75	1.50	1.75	5.00	4.25	4.75	3.25	5.75	6.25	1.25	1.00	-0.280273	0.081543	0.932617	-3.290000	3.920000	0.980000	567.00	0.07	-0.04	2.75	1.00	2.25	1.00	1.75	0.25	1.25	2.50	3.25	4.00	5.00	5.75	9.00	5.00	1.25	2.00	-0.205566	0.105469	0.953125	-2.310000	-0.770000	0.910000	540.00	0.12	-0.10
1.02	3.00	3.25	3.25	2.50	1.25	0.75	1.50	1.50	5.25	4.75	4.75	3.50	5.75	6.50	1.25	0.75	-0.276855	0.085938	0.936035	-3.290000	3.920000	0.980000	567.00	0.08	-0.04	3.25	0.75	2.25	1.00	1.75	0.25	1.25	2.75	3.25	3.75	5.00	5.75	9.00	4.75	1.25	2.00	-0.199219	0.111328	0.954102	-2.660000	-0.910000	0.840000	542.00	0.11	-0.11
1.03	3.00	3.00	3.25	3.00	1.25	0.25	1.50	1.50	5.25	4.75	4.75	3.25	5.75	6.25	1.25	0.75	-0.275391	0.087402	0.936523	-3.150000	3.850000	1.190000	559.00	0.08	-0.04	3.00	1.00	2.50	1.00	1.75	0.00	1.25	2.75	3.25	3.75	5.25	5.75	9.25	4.75	1.25	2.00	-0.195312	0.110352	0.951172	-2.730000	-0.630000	0.910000	547.00	0.11	-0.11
1.04	2.75	3.25	3.00	3.00	1.50	0.50	1.50	1.50	5.00	4.50	4.75	3.25	5.75	6.50	1.25	1.00	-0.279297	0.077637	0.933105	-3.150000	3.920000	1.120000	559.00	0.08	-0.04	3.00	0.75	2.25	1.00	1.75	0.00	1.25	2.50	3.50	3.75	5.25	5.75	9.25	4.50	1.25	2.00	-0.195801	0.114258	0.955078	-2.730000	0.630000	0.770000	538.00	0.12	-0.10
1.05	4.00	3.50	3.50	2.75	1.25	0.75	1.25	1.25	5.25	4.75	4.75	3.00	6.00	6.50	1.50	0.75	-0.279785	0.085938	0.937988	-3.010000	4.130000	0.980000	578.00	0.07	-0.03	3.00	0.75	2.25	0.75	1.75	0.25	1.25	2.75	3.25	3.75	5.25	6.00	9.25	4.50	1.00	2.25	-0.194336	0.107422	0.954590	-2.730000	1.330000	0.560000	541.00	0.12	-0.11
1.06	3.50	3.25	3.00	2.75	1.25	0.75	1.50	1.75	5.25	4.75	4.50	3.25	5.75	6.25	1.25	0.75	-0.277832	0.084473	0.943359	-2.800000	4.340000	1.050000	569.00	0.07	-0.04	2.75	1.00	2.50	1.00	1.75	0.25	1.25	2.75	3.25	3.75	5.25	5.75	9.00	4.75	1.25	1.75	-0.187012	0.104980	0.958496	-2.730000	2.170000	0.280000	543.00	0.11	-0.11
1.07	3.00	3.00	3.25	3.25	1.25	0.75	1.25	1.75	5.00	4.50	4.50	3.25	5.75	6.25	1.00	0.75	-0.272949	0.083008	0.939941	-2.660000	4.760000	0.910000	556.00	0.07	-0.05	2.50	0.75	2.25	0.75	1.50	0.25	1.25	2.50	3.00	4.00	5.25	6.00	9.25	4.75	1.50	2.00	-0.198242	0.112305	0.956543	-2.800000	2.590000	0.140000	534.00	0.13	-0.11
1.08	3.25	3.25	3.25	2.75	1.25	0.75	1.25	1.25	5.25	4.75	4.50	3.25	5.75	6.25	1.25	1.00	-0.276367	0.084961	0.940430	-2.520000	5.040000	0.840000	558.00	0.08	-0.04	3.25	0.50	2.25	1.00	1.75	0.25	1.25	2.75	3.50	3.75	5.25	5.75	9.25	4.75	1.25	2.00	-0.197266	0.109375	0.949219	-3.080000	3.080000	-0.210000	548.00	0.12	-0.10
1.09	3.25	2.75	3.25	2.75	1.50	0.75	1.50	1.25	5.25	4.75	4.75	3.00	5.75	6.25	1.25	0.75	-0.281738	0.083008	0.936035	-2.380000	5.530000	0.980000	559.00	0.08	-0.03	3.25	0.75	2.25	1.00	1.50	0.25	1.25	2.75	3.25	3.75	5.25	6.00	9.25	4.50	1.25	2.00	-0.197266	0.107910	0.948730	-3.150000	2.940000	-0.280000	545.00	0.11	-0.11
1.10	3.00	3.25	3.00	3.50	1.25	0.50	1.50	1.50	5.25	4.75	4.50	2.75	5.75	6.25	1.25	0.75	-0.278809	0.084473	0.936523	-2.310000	5.810000	1.050000	559.00	0.07	-0.04	2.50	0.75	2.00	1.00	1.50	0.00	1.25	2.50	3.25	3.75	5.25	6.00	9.25	4.75	1.00	2.00	-0.192871	0.107910	0.949219	-3.290000	2.870000	-0.350000	526.00	0.13	-0.11
1.11	3.25	3.00	3.00	2.75	1.25	0.75	1.25	1.50	5.25	4.75	4.50	3.25	5.75	6.50	1.00	0.75	-0.279297	0.090332	0.936523	-2.240000	5.950000	1.050000	555.00	0.08	-0.04	2.50	0.75	2.00	1.00	1.75	0.25	1.25	2.50	3.25	3.50	5.25	6.00	9.25	5.00	1.25	1.50	-0.199707	0.104980	0.949707	-3.360000	2.870000	-0.490000	531.00	0.12	-0.11
1.12	3.25	3.75	3.25	3.00	1.25	0.25	1.25	1.50	5.25	4.50	4.25	3.25	5.75	6.25	1.25	0.75	-0.284668	0.087891	0.933105	-2.380000	5.950000	1.120000	557.00	0.07	-0.04	2.50	1.00	1.75	1.00	1.50	0.00	1.25	2.50	3.00	3.75	5.25	6.00	9.25	4.50	1.00	2.00	-0.203125	0.104980	0.954102	-3.570000	2.730000	-0.420000	519.00	0.12	-0.12
1.13	3.25	3.00	3.25	3.00	1.25	0.50	1.50	1.25	5.25	4.75	4.25	3.25	5.75	6.25	1.25	1.00	-0.276367	0.084473	0.936523	-2.450000	5.600000	1.260000	557.00	0.08	-0.03	2.50	0.50	2.00	0.75	1.50	0.00	1.25	2.50	3.25	3.75	5.25	6.00	9.00	5.00	1.25	1.75	-0.197754	0.103027	0.949707	-3.710000	2.940000	-0.560000	521.00	0.13	-0.11
1.14	3.25	3.25	3.25	2.75	1.50	0.75	1.50	1.25	5.25	4.75	4.50	3.25	5.75	6.25	1.25	0.75	-0.280273	0.088867	0.936523	-2.590000	5.180000	1.120000	564.00	0.07	-0.03	2.50	0.75	2.00	1.00	1.50	0.25	1.25	2.25	3.25	3.75	5.25	6.50	9.25	5.00	1.50	2.25	-0.201660	0.110840	0.954102	-3.710000	2.590000	-0.490000	540.00	0.13	-0.11
1.15	2.75	3.00	3.50	3.00	1.25	0.25	1.25	1.75	5.25	4.50	4.50	3.25	5.75	6.50	1.25	0.75	-0.280273	0.089844	0.936523	-2.730000	4.690000	1.050000	556.00	0.08	-0.04	2.50	0.75	1.75	1.00	1.50	0.00	1.25	2.50	3.50	3.75	5.50	6.25	9.00	5.00	1.25	2.25	-0.195312	0.112793	0.949219	-3.920000	1.820000	-0.140000	536.00	0.13	-0.11
1.16	3.25	3.50	3.25	2.75	1.25	1.00	1.25	1.50	5.25	4.75	4.50	3.50	5.75	6.25	1.25	0.75	-0.274414	0.087402	0.938477	-3.010000	4.620000	0.840000	569.00	0.07	-0.04	2.50	0.75	1.75	0.75	1.50	0.00	1.25	2.50	3.50	4.00	5.50	6.25	9.00	5.00	1.00	2.00	-0.195312	0.105469	0.947266	-3.850000	1.610000	-0.140000	532.00	0.13	-0.11
1.17	3.00	2.75	3.00	2.75	1.25	0.50	1.25	1.50	5.25	4.50	4.50	3.00	5.75	6.50	1.25	1.00	-0.273926	0.083984	0.935059	-3.080000	4.480000	0.840000	545.00	0.09	-0.04	2.25	0.50	1.75	1.00	1.50	0.00	1.25	2.25	3.50	3.75	5.50	6.25	9.00	5.00	1.00	2.25	-0.198730	0.109863	0.956543	-3.850000	1.540000	-0.280000	524.00	0.14	-0.11
1.18	3.50	3.25	3.25	3.00	1.25	0.50	1.50	1.50	5.25	5.00	4.25	3.25	5.75	6.25	1.25	1.00	-0.277832	0.084961	0.938965	-3.150000	4.690000	0.700000	569.00	0.07	-0.04	2.50	0.75	1.75	1.00	1.50	0.25	1.25	2.25	3.75	4.00	5.75	6.25	9.25	5.00	1.25	2.00	-0.200195	0.106934	0.943359	-3.850000	1.400000	-0.420000	545.00	0.13	-0.10
1.19	3.25	3.25	3.25	3.00	1.25	0.50	1.50	1.00	5.25	4.50	4.25	3.00	5.75	6.25	1.25	1.00	-0.277344	0.085449	0.943359	-3.220000	4.900000	0.770000	549.00	0.07	-0.03	2.50	1.00	2.00	0.75	1.75	0.00	1.25	2.50	3.50	4.00	5.50	6.25	9.00	5.00	1.25	2.25	-0.197266	0.103516	0.952637	-3.850000	1.260000	-0.560000	545.00	0.13	-0.10
1.20	2.50	3.00	3.00	3.00	1.25	0.50	1.25	1.50	5.25	4.75	4.50	3.00	5.75	6.25	1.25	1.00	-0.283203	0.085449	0.935547	-3.010000	4.900000	0.840000	545.00	0.09	-0.04	2.25	0.75	2.00	0.75	1.50	0.00	1.25	2.25	3.50	4.00	5.50	6.25	9.00	5.00	1.50	2.00	-0.199707	0.107910	0.952148	-3.920000	1.330000	-0.700000	533.00	0.14	-0.10
1.21	3.25	2.75	3.25	3.00	1.25	0.50	1.50	1.50	5.25	4.75	4.50	3.25	5.75	6.50	1.25	1.00	-0.279297	0.081543	0.936035	-2.940000	5.040000	0.910000	564.00	0.08	-0.04	2.50	0.75	2.00	1.00	1.50	0.00	1.25	2.25	3.50	3.75	5.75	6.50	9.25	5.00	1.00	2.00	-0.197754	0.108887	0.950195	-3.850000	1.190000	-0.630000	539.00	0.13	-0.11
1.22	3.50	3.25	3.00	3.00	1.25	0.50	1.50	1.25	5.50	5.00	4.75	3.25	5.75	6.50	1.00	1.00	-0.284180	0.085938	0.943359	-2.870000	5.320000	0.980000	571.00	0.08	-0.03	2.75	0.75	2.00	1.00	1.50	0.00	1.25	2.50	3.75	4.00	5.75	6.25	9.25	5.00	1.25	2.25	-0.202637	0.106934	0.951660	-3.780000	1.260000	-0.490000	554.00	0.13	-0.10
1.23	3.25	3.25	3.00	2.75	1.25	0.50	1.50	1.50	5.25	4.75	4.50	3.25	5.75	6.50	1.50	0.75	-0.275879	0.086914	0.937500	-2.800000	5.320000	0.980000	564.00	0.08	-0.04	2.50	1.00	2.00	0.75	1.50	0.00	1.25	2.50	3.50	4.00	6.00	6.50	9.00	5.00	1.25	2.50	-0.199707	0.104980	0.953613	-3.640000	1.190000	-0.280000	552.00	0.13	-0.11
1.24	3.00	3.00	3.00	2.75	1.50	0.75	1.50	1.50	5.25	5.00	4.50	3.50	5.75	6.50	1.50	0.75	-0.281250	0.090332	0.936523	-2.800000	5.460000	0.910000	570.00	0.08	-0.04	2.25	0.75	2.00	1.00	1.75	0.00	1.25	2.25	3.75	3.75	5.75	6.25	9.00	5.00	1.25	2.00	-0.198730	0.107422	0.950684	-3.640000	1.120000	-0.140000	540.00	0.13	-0.10
1.25	3.00	3.25	3.00	3.00	1.25	0.50	1.25	1.25	5.25	4.75	4.75	3.50	5.75	6.50	1.25	0.75	-0.276367	0.087891	0.938965	-2.730000	5.460000	0.910000	559.00	0.08	-0.04	2.50	0.75	1.75	1.00	1.50	0.00	1.25	2.25	3.75	4.00	6.00	6.25	9.25	5.00	1.25	2.25	-0.199219	0.105957	0.952637	-3.780000	1.330000	-0.070000	546.00	0.14	-0.10
1.26	3.00	3.25	2.75	2.50	1.25	0.50	1.50	1.50	5.25	5.00	4.50	3.25	6.00	6.50	1.25	0.75	-0.279297	0.083496	0.938477	-2.660000	5.600000	0.980000	557.00	0.09	-0.04	2.50	0.75	2.00	0.75	1.50	0.00	1.25	2.25	3.75	4.00	5.75	6.25	9.25	5.00	1.25	2.00	-0.199219	0.110840	0.953613	-3.640000	1.470000	-0.280000	542.00	0.14	-0.10
1.27	3.00	2.75	3.00	2.75	1.50	0.50	1.25	1.50	5.25	5.00	4.50	3.25	5.75	6.50	1.25	1.00	-0.285645	0.081055	0.935547	-2.730000	5.600000	0.840000	556.00	0.09	-0.04	2.50	0.75	2.25	1.00	1.50	0.00	1.25	2.25	3.75	4.00	6.00	6.25	9.00	5.00	1.25	2.00	-0.199707	0.105957	0.944824	-3.640000	1.540000	-0.210000	549.00	0.13	-0.10
1.28	3.00	2.75	2.75	2.75	1.25	0.50	1.50	1.25	5.25	4.75	4.50	3.25	6.00	6.50	1.00	1.00	-0.283203	0.081055	0.936035	-2.730000	5.530000	0.840000	547.00	0.09	-0.04	2.50	0.50	2.00	0.75	1.50	0.00	1.25	2.25	4.00	4.00	6.00	6.25	9.00	5.00	1.25	2.25	-0.204590	0.103516	0.945312	-3.710000	1.820000	-0.350000	545.00	0.14	-0.10
1.29	3.00	3.00	3.00	2.50	1.25	0.75	1.25	1.50	5.25	5.00	4.75	3.25	5.75	6.50	1.50	0.75	-0.280762	0.082031	0.933594	-2.660000	5.460000	0.910000	560.00	0.09	-0.04	2.25	0.75	1.50	1.00	1.50	0.00	1.25	2.25	3.75	4.00	6.00	6.25	9.25	5.00	1.75	2.00	-0.194824	0.110840	0.944824	-3.640000	1.470000	-0.280000	545.00	0.14	-0.10
1.30	3.25	3.50	3.00	3.00	1.25	0.50	1.50	1.50	5.25	4.75	4.75	3.25	6.00	6.50	1.50	1.25	-0.282227	0.088379	0.931641	-2.660000	5.250000	0.910000	578.00	0.08	-0.04	2.50	0.75	1.75	0.75	1.50	0.00	1.25	2.25	3.75	4.00	6.00	6.50	9.00	5.00	1.25	2.25	-0.198242	0.107422	0.953125	-3.710000	1.540000	-0.420000	544.00	0.14	-0.10
1.31	3.00	3.00	2.75	2.50	1.25	0.75	1.25	1.75	5.25	4.75	4.75	3.25	5.75	6.75	1.50	0.75	-0.278809	0.083008	0.935059	-2.590000	5.110000	0.980000	561.00	0.09	-0.04	2.50	0.75	1.75	0.50	1.50	0.00	1.25	2.25	4.00	4.25	6.00	6.50	9.00	5.25	1.50	2.00	-0.201172	0.111328	0.944824	-3.640000	1.400000	-0.140000	551.00	0.15	-0.10
1.32	3.00	3.25	3.25	2.75	1.25	0.75	1.50	1.50	5.25	5.00	4.50	3.25	6.00	6.50	1.25	0.75	-0.281250	0.086914	0.934570	-2.660000	5.110000	1.050000	569.00	0.08	-0.04	2.25	0.75	2.00	1.00	1.50	0.00	1.25	2.00	3.75	4.25	6.25	6.25	9.00	5.25	1.50	2.00	-0.203125	0.106445	0.955566	-3.640000	1.400000	-0.210000	550.00	0.14	-0.10
1.33	3.00	3.00	3.25	2.75	1.25	0.50	1.50	1.50	5.25	5.00	5.00	3.50	6.00	6.50	1.50	1.00	-0.276367	0.087402	0.932129	-2.660000	5.110000	0.980000	577.00	0.09	-0.04	2.50	1.00	1.75	1.00	1.50	0.00	1.25	2.25	3.75	4.00	6.00	6.25	9.00	5.25	1.25	2.00	-0.202148	0.106934	0.949219	-3.640000	1.400000	-0.210000	547.00	0.14	-0.10
1.34	3.00	3.00	3.25	3.00	1.25	0.75	1.25	1.75	5.50	5.00	4.75	3.50	6.00	6.50	1.50	1.25	-0.279297	0.085938	0.937500	-2.520000	4.760000	1.050000	585.00	0.08	-0.04	2.50	0.75	1.75	0.25	1.75	0.00	1.25	2.25	3.75	4.25	6.00	6.25	9.25	5.25	1.50	2.25	-0.205078	0.109375	0.957520	-3.640000	1.330000	-0.140000	548.00	0.15	-0.10
1.35	3.25	3.00	3.25	3.00	1.25	0.25	1.50	1.50	5.25	5.00	4.75	3.25	6.00	6.75	1.50	0.75	-0.290039	0.084961	0.938965	-2.450000	4.690000	1.260000	575.00	0.08	-0.04	2.50	0.75	1.75	1.00	1.50	0.00	1.25	2.25	3.75	4.00	6.00	6.25	9.00	5.25	1.50	2.00	-0.197754	0.104492	0.949219	-3.570000	1.330000	-0.140000	548.00	0.14	-0.10
1.36	2.75	3.00	3.25	3.25	1.25	0.75	1.50	1.50	5.25	5.00	4.75	3.50	6.00	6.75	1.25	1.00	-0.283691	0.086426	0.940918	-2.520000	4.550000	1.260000	580.00	0.08	-0.04	2.25	0.50	2.00	1.00	1.50	0.00	1.50	2.00	4.00	4.25	6.25	6.25	9.00	5.25	1.50	2.25	-0.202148	0.105957	0.947266	-3.500000	1.260000	-0.140000	556.00	0.15	-0.09
1.37	3.25	3.25	2.75	2.75	1.25	0.75	1.25	1.50	5.25	5.00	4.75	3.75	5.75	6.75	1.75	1.00	-0.285156	0.084961	0.938477	-2.520000	4.480000	1.260000	578.00	0.09	-0.04	2.25	0.75	2.25	1.00	1.50	0.00	1.25	2.25	3.75	4.00	6.25	6.25	9.00	5.25	1.50	2.00	-0.201172	0.107910	0.947266	-3.570000	1.190000	-0.210000	554.00	0.14	-0.10
1.38	3.25	3.00	2.75	2.75	1.25	0.50	1.50	1.50	5.25	4.75	4.75	3.25	5.75	6.50	1.50	1.00	-0.277832	0.080566	0.936035	-2.590000	4.410000	1.330000	563.00	0.09	-0.04	2.50	0.75	1.75	1.00	1.50	0.00	1.25	2.00	4.00	4.00	6.50	6.25	9.00	5.50	1.50	2.25	-0.203613	0.105957	0.949707	-3.640000	1.190000	-0.280000	557.00	0.14	-0.10
1.39	3.00	3.00	3.00	2.50	1.25	0.75	1.25	1.25	5.25	5.00	5.00	3.75	6.00	6.50	1.50	1.00	-0.278320	0.082520	0.937500	-2.660000	4.270000	1.260000	568.00	0.09	-0.04	2.25	0.75	2.00	0.75	1.75	0.00	1.25	2.00	3.75	4.00	6.25	6.25	9.00	5.25	1.25	2.25	-0.202148	0.104492	0.951660	-3.640000	1.190000	-0.420000	545.00	0.14	-0.10
1.40	2.75	2.75	3.00	3.00	1.50	0.50	1.50	1.50	5.50	5.00	4.75	3.75	6.00	6.50	1.25	1.00	-0.279785	0.085938	0.936523	-2.520000	3.990000	1.330000	575.00	0.09	-0.04	2.25	0.75	1.75	0.75	1.75	0.00	1.25	2.25	4.00	4.00	6.25	6.25	9.00	5.25	1.50	2.25	-0.203613	0.105469	0.955078	-3.640000	1.050000	-0.070000	553.00	0.14	-0.10
1.41	3.25	3.00	3.25	3.00	1.50	0.75	1.25	1.50	5.25	4.75	4.50	3.25	6.00	6.50	1.25	1.00	-0.282715	0.085938	0.940430	-2.590000	3.850000	1.470000	570.00	0.08	-0.04	2.50	0.75	2.00	0.75	1.50	0.00	1.25	2.00	3.75	4.00	6.00	6.25	9.00	5.50	1.50	2.00	-0.201172	0.101074	0.948730	-3.570000	1.190000	-0.140000	546.00	0.14	-0.09
1.42	3.00	3.25	3.00	2.75	1.25	0.00	1.50	1.50	5.50	5.00	4.75	3.25	6.00	6.75	1.50	1.00	-0.278320	0.090332	0.936523	-2.590000	3.710000	1.400000	571.00	0.09	-0.03	2.50	0.75	2.00	1.00	1.50	0.00	1.25	2.00	3.75	4.25	6.25	6.25	9.00	5.50	1.50	2.00	-0.205566	0.103516	0.951660	-3.640000	1.050000	-0.000000	555.00	0.14	-0.09
1.43	3.00	3.50	3.00	3.00	1.25	0.50	1.50	1.75	5.25	5.00	4.75	3.25	6.00	6.50	1.25	1.25	-0.280273	0.086426	0.940918	-2.520000	3.570000	1.400000	579.00	0.08	-0.04	2.50	0.75	1.75	0.75	1.50	0.00	1.25	2.00	4.00	4.25	6.25	6.25	8.75	5.25	1.50	2.00	-0.200195	0.104492	0.953125	-3.640000	0.910000	0.140000	548.00	0.14	-0.09
1.44	3.25	3.25	3.00	3.00	1.50	0.50	1.25	1.50	5.25	4.75	4.75	3.50	6.00	6.50	1.50	1.25	-0.281738	0.083984	0.937988	-2.450000	3.430000	1.400000	577.00	0.08	-0.04	2.50	0.75	2.00	1.00	1.50	0.00	1.25	2.00	4.00	4.00	6.25	6.00	8.75	5.25	1.50	2.00	-0.210938	0.103027	0.945801	-3.780000	0.910000	-0.000000	548.00	0.14	-0.09
1.45	3.00	3.00	3.25	3.25	1.25	0.75	1.25	1.50	5.25	5.00	4.75	3.25	6.00	6.50	1.25	1.00	-0.280762	0.086426	0.935059	-2.450000	3.290000	1.400000	573.00	0.08	-0.04	2.50	0.75	1.75	0.75	1.50	0.00	1.25	2.25	4.00	4.25	6.00	6.00	8.75	5.50	1.50	2.00	-0.201660	0.104004	0.954590	-3.780000	1.050000	-0.070000	548.00	0.14	-0.09
1.46	3.25	3.00	3.00	3.00	1.25	0.75	1.50	1.50	5.25	5.25	4.75	3.25	6.00	6.50	1.25	1.00	-0.284668	0.087402	0.935059	-2.590000	3.500000	1.470000	577.00	0.08	-0.04	2.00	1.00	1.75	0.75	1.75	0.00	1.50	2.00	3.75	4.25	6.25	6.00	8.75	5.50	1.25	2.00	-0.197754	0.104492	0.954590	-3.780000	0.840000	-0.140000	545.00	0.14	-0.09
1.47	3.00	3.00	3.25	2.50	1.50	0.50	1.25	1.50	5.25	5.00	4.75	3.75	6.25	6.75	1.25	1.00	-0.277344	0.083984	0.938477	-2.520000	3.780000	1.470000	575.00	0.09	-0.04	2.50	0.75	1.75	0.50	1.50	0.00	1.25	2.00	4.00	4.25	6.00	5.75	8.75	5.25	1.50	2.00	-0.201172	0.106934	0.949707	-3.850000	0.840000	-0.140000	536.00	0.15	-0.09
1.48	3.25	3.00	3.25	2.75	1.25	0.75	1.50	1.50	5.25	5.00	5.00	3.75	6.00	6.50	1.50	0.75	-0.281738	0.089844	0.932617	-2.380000	3.780000	1.540000	584.00	0.08	-0.04	2.50	0.75	1.75	1.00	1.50	0.00	1.25	2.00	4.00	4.25	6.25	5.75	8.75	5.25	1.25	2.00	-0.206055	0.107910	0.948242	-3.780000	0.700000	-0.000000	542.00	0.14	-0.09
1.49	3.00	2.75	3.00	2.75	1.25	0.50	1.50	1.50	5.25	5.00	4.75	3.25	6.00	6.50	1.50	1.00	-0.280273	0.084473	0.937500	-2.380000	3.430000	1.610000	566.00	0.09	-0.04	2.50	0.75	2.25	0.75	1.50	0.00	1.25	2.00	4.00	4.00	6.25	6.00	8.75	5.25	1.50	1.75	-0.200684	0.101562	0.948242	-3.850000	0.700000	0.070000	546.00	0.14	-0.09
1.50	3.25	3.25	3.50	3.00	1.50	1.25	1.50	1.75	5.50	5.00	4.75	3.50	6.25	6.50	1.50	1.00	-0.276367	0.088379	0.932129	-2.520000	3.570000	1.540000	608.00	0.07	-0.04	2.50	0.75	1.75	0.75	1.75	0.00	1.50	2.00	4.00	4.00	6.00	5.75	8.50	5.25	1.25	2.00	-0.202148	0.104492	0.951172	-3.780000	0.560000	0.070000	538.00	0.14	-0.09
1.51	3.50	3.25	3.25	3.00	1.25	0.50	1.50	1.75	5.25	5.00	4.75	3.75	6.25	6.50	1.25	1.00	-0.280273	0.081055	0.937012	-2.520000	3.640000	1.400000	592.00	0.08	-0.04	2.25	0.75	1.75	1.00	1.50	0.00	1.50	2.00	4.00	4.00	6.25	5.50	8.50	5.25	1.25	1.75	-0.195312	0.105469	0.945801	-3.850000	0.560000	0.140000	534.00	0.14	-0.09
1.52	3.25	3.25	3.25	2.75	1.50	0.75	1.50	2.00	5.00	5.00	5.00	3.75	6.25	6.75	1.50	1.00	-0.282715	0.083984	0.939453	-2.450000	3.570000	1.400000	601.00	0.08	-0.05	2.25	0.50	2.00	0.50	1.50	0.00	1.50	2.00	3.75	4.25	6.00	5.75	8.50	5.25	1.25	2.00	-0.200684	0.104492	0.950195	-3.780000	0.630000	0.140000	529.00	0.15	-0.09
1.53	3.00	2.75	3.00	3.00	1.50	0.75	1.50	1.50	5.25	5.00	5.00	3.75	6.25	6.50	1.50	1.00	-0.278320	0.088867	0.937988	-2.380000	3.500000	1.400000	586.00	0.09	-0.04	2.25	0.75	1.75	0.75	1.50	0.00	1.25	2.00	3.75	4.00	6.00	5.50	8.75	5.25	1.25	2.00	-0.196777	0.107422	0.956543	-3.710000	0.560000	0.280000	524.00	0.14	-0.09
1.54	3.25	3.25	3.00	3.50	1.25	0.75	1.50	1.75	5.25	5.00	4.75	3.50	6.00	6.50	1.50	1.00	-0.281250	0.085449	0.936035	-2.380000	3.430000	1.540000	593.00	0.08	-0.05	2.50	0.50	2.00	1.00	1.50	0.00	1.50	2.00	4.00	4.00	5.75	5.50	8.50	5.25	1.50	1.75	-0.198730	0.101074	0.955078	-3.570000	0.560000	0.210000	534.00	0.14	-0.08
1.55	3.00	3.00	3.00	3.00	1.50	0.75	1.50	1.75	5.25	4.75	4.75	3.75	6.25	6.50	1.25	0.75	-0.284180	0.084961	0.930664	-2.450000	3.360000	1.540000	582.00	0.08	-0.05	2.50	1.00	1.75	0.75	1.75	0.00	1.50	2.00	4.00	4.25	6.00	5.50	8.50	5.00	1.25	2.00	-0.199219	0.106934	0.946289	-3.500000	0.420000	0.350000	538.00	0.14	-0.09
1.56	3.25	3.25	3.25	2.75	1.25	0.75	1.50	2.00	5.25	5.00	5.00	3.75	6.00	6.50	1.25	1.00	-0.277832	0.087402	0.940918	-2.450000	3.220000	1.540000	594.00	0.08	-0.05	2.50	0.75	1.75	1.00	1.50	0.00	1.50	2.00	3.75	4.25	6.00	5.50	8.50	5.25	1.00	1.75	-0.200684	0.103516	0.954102	-3.570000	0.350000	0.280000	530.00	0.14	-0.09
1.57	3.25	3.75	3.00	3.25	1.50	0.75	1.50	1.50	5.25	5.00	4.75	3.50	6.00	6.50	1.50	1.00	-0.273926	0.087402	0.936523	-2.450000	3.360000	1.540000	593.00	0.07	-0.04	2.50	0.75	2.00	1.00	1.50	0.00	1.50	1.75	3.75	4.00	5.75	5.25	8.50	5.25	1.25	2.00	-0.198730	0.104004	0.950684	-3.570000	0.420000	0.140000	525.00	0.14	-0.08
1.58	3.50	3.25	3.25	3.25	1.50	0.50	1.50	1.75	5.25	5.00	4.75	3.75	6.25	6.50	1.25	0.75	-0.277832	0.086914	0.939453	-2.590000	3.360000	1.540000	596.00	0.07	-0.04	2.50	1.00	1.75	1.00	1.50	0.00	1.50	2.00	4.00	4.00	5.75	5.25	8.50	5.25	1.25	1.75	-0.199219	0.104980	0.948242	-3.430000	0.420000	0.140000	530.00	0.13	-0.08
1.59	3.00	3.25	3.50	3.25	1.25	0.75	1.50	1.50	5.25	4.75	5.00	3.50	6.50	6.25	1.50	1.25	-0.276855	0.083496	0.939453	-2.590000	3.430000	1.470000	593.00	0.08	-0.05	2.50	0.75	2.00	1.00	1.75	0.00	1.50	2.00	4.00	4.00	6.00	5.25	8.25	5.00	1.00	1.75	-0.200684	0.104492	0.948242	-3.430000	0.280000	0.140000	529.00	0.13	-0.08
1.60	3.25	3.50	3.25	3.25	1.50	0.75	1.50	1.75	5.25	5.00	4.75	3.75	6.00	6.25	1.25	1.00	-0.274902	0.085449	0.936035	-2.520000	3.290000	1.400000	596.00	0.07	-0.05	2.75	0.75	2.25	1.00	1.50	0.00	1.50	1.75	3.75	4.00	5.75	5.25	8.50	5.25	1.25	1.50	-0.198730	0.102051	0.953125	-3.500000	0.490000	-0.070000	528.00	0.13	-0.08
1.61	2.75	3.50	3.25	3.25	1.25	0.50	1.50	1.75	5.25	4.75	4.75	3.50	6.00	6.25	1.25	1.00	-0.278809	0.086426	0.935547	-2.730000	3.500000	1.400000	578.00	0.08	-0.05	2.75	0.50	2.00	1.00	1.50	0.00	1.25	1.75	3.75	3.75	5.75	5.25	8.50	5.00	1.25	1.75	-0.198730	0.102539	0.947754	-3.570000	0.420000	-0.070000	514.00	0.13	-0.09
1.62	3.75	3.75	3.75	3.25	1.50	0.50	1.50	2.00	5.25	5.00	4.75	3.50	6.25	6.25	1.25	1.00	-0.273926	0.083984	0.940430	-2.730000	3.640000	1.260000	611.00	0.06	-0.05	2.50	0.75	1.75	1.00	1.75	0.00	1.50	2.00	3.75	4.00	5.75	5.25	8.50	5.25	1.25	1.00	-0.199219	0.103516	0.956543	-3.500000	0.560000	-0.070000	523.00	0.13	-0.08
1.63	3.00	3.75	3.50	3.25	1.50	0.50	1.50	2.00	5.25	4.75	5.00	3.50	6.25	6.25	1.50	1.00	-0.273438	0.088867	0.941895	-2.800000	3.640000	1.260000	602.00	0.07	-0.05	2.50	0.75	2.00	1.00	1.50	0.00	1.50	1.75	3.75	4.00	5.75	5.25	8.25	5.00	1.25	1.25	-0.195801	0.107422	0.954590	-3.430000	0.560000	-0.000000	515.00	0.13	-0.08
1.64	3.75	3.00	3.50	3.50	1.25	1.25	1.50	2.50	5.25	5.00	4.75	3.00	6.25	6.25	1.25	1.00	-0.271484	0.085449	0.939941	-2.800000	3.710000	1.260000	612.00	0.06	-0.05	2.75	0.50	2.00	0.50	1.75	0.00	1.50	1.75	3.75	3.75	6.00	5.25	8.25	5.25	1.00	1.75	-0.197754	0.105469	0.951660	-3.220000	0.770000	-0.000000	515.00	0.14	-0.08
1.65	3.50	3.25	3.75	3.50	1.50	1.00	1.50	2.00	5.25	5.00	4.75	4.00	6.25	6.25	1.25	1.00	-0.274902	0.087402	0.937988	-2.660000	3.710000	1.400000	618.00	0.07	-0.05	2.50	0.75	1.75	0.75	1.50	0.00	1.50	1.75	3.75	4.00	5.75	5.25	8.25	5.25	1.00	1.75	-0.200684	0.104492	0.952148	-3.150000	0.630000	0.280000	512.00	0.14	-0.08
1.66	3.75	3.50	3.50	3.25	1.50	0.75	1.50	2.00	5.25	5.00	5.00	3.50	6.00	6.25	1.25	1.00	-0.276367	0.087402	0.941895	-2.660000	3.850000	1.190000	609.00	0.06	-0.05	2.75	0.75	2.00	0.75	1.50	0.00	1.50	1.75	3.75	4.00	5.75	5.00	8.25	5.25	1.00	1.25	-0.197754	0.103027	0.952148	-3.150000	0.770000	0.210000	512.00	0.13	-0.08
1.67	3.25	3.50	3.75	3.00	1.50	0.50	1.50	1.75	5.25	5.00	5.00	3.25	6.00	6.50	1.50	1.00	-0.273438	0.087891	0.938965	-2.660000	4.060000	1.260000	598.00	0.07	-0.04	2.75	1.00	2.00	1.25	1.75	0.00	1.25	1.75	3.75	4.00	5.75	5.00	8.25	5.25	1.00	1.50	-0.201172	0.103516	0.953613	-3.150000	0.980000	0.070000	521.00	0.12	-0.08
1.68	3.75	3.75	3.25	3.25	1.50	0.75	1.50	2.00	5.25	4.75	4.75	3.50	6.00	6.25	1.25	1.00	-0.267578	0.088867	0.942871	-2.590000	4.340000	1.260000	602.00	0.06	-0.05	2.50	0.75	2.00	1.00	1.50	0.00	1.50	2.00	3.75	4.00	5.75	5.25	8.25	5.25	0.75	1.25	-0.198242	0.105469	0.956543	-3.150000	0.980000	0.070000	516.00	0.13	-0.08
1.69	3.75	3.25	3.75	3.25	1.50	0.75	1.50	2.00	5.25	4.75	4.75	3.50	6.25	6.25	1.50	0.75	-0.267578	0.088867	0.942871	-2.590000	4.340000	1.260000	607.00	0.06	-0.05	2.75	0.75	2.25	0.75	1.50	0.00	1.50	2.00	3.75	3.75	5.50	5.00	8.25	5.25	1.00	1.25	-0.205078	0.098145	0.947754	-3.150000	0.910000	-0.070000	513.00	0.13	-0.08
1.70	3.50	4.00	3.50	3.50	1.50	1.00	1.50	1.75	5.25	5.00	5.00	3.50	6.00	6.25	1.50	1.00	-0.274414	0.092773	0.936035	-2.590000	4.480000	1.260000	616.00	0.06	-0.05	3.00	1.00	2.00	1.00	1.75	0.00	1.50	1.75	3.75	4.00	5.75	5.00	8.25	5.00	1.25	1.50	-0.200195	0.105469	0.953613	-3.150000	0.910000	-0.000000	525.00	0.12	-0.08
1.71	3.75	3.50	3.50	3.00	1.50	0.75	1.50	2.00	5.25	4.75	4.75	3.50	6.00	6.25	1.25	1.00	-0.270508	0.085938	0.937500	-2.520000	4.550000	1.260000	600.00	0.06	-0.04	2.75	0.50	2.25	0.75	1.75	0.00	1.25	1.75	3.75	4.00	5.75	5.25	8.25	5.25	1.25	1.25	-0.201172	0.102051	0.952148	-3.220000	0.840000	-0.000000	517.00	0.13	-0.08
1.72	3.50	3.50	3.75	3.25	1.50	1.25	1.50	1.75	5.25	5.00	4.50	3.75	6.00	6.25	1.25	0.75	-0.273926	0.090332	0.941895	-2.590000	4.620000	1.260000	606.00	0.06	-0.05	2.75	0.75	2.00	1.00	1.50	0.00	1.25	1.75	3.75	4.00	5.75	5.00	8.25	5.25	1.25	1.75	-0.196289	0.101074	0.948242	-3.150000	0.770000	-0.000000	517.00	0.13	-0.08
1.73	3.50	3.75	3.75	3.25	1.50	0.75	1.50	2.00	5.25	4.75	4.75	3.75	6.25	6.25	1.25	1.00	-0.274414	0.084961	0.940430	-2.660000	4.760000	1.120000	611.00	0.06	-0.05	2.75	0.50	2.25	0.75	1.50	0.00	1.50	1.75	3.75	3.75	5.75	5.00	8.25	5.25	1.25	1.50	-0.202148	0.106445	0.952148	-3.010000	0.700000	-0.000000	514.00	0.13	-0.08
1.74	3.50	3.75	3.50	3.50	1.50	0.75	1.50	2.00	5.25	4.75	4.75	3.50	6.25	6.25	1.25	1.00	-0.276367	0.086426	0.937988	-2.590000	4.760000	1.190000	608.00	0.06	-0.05	2.75	1.00	2.25	1.00	1.50	0.00	1.25	1.75	4.00	3.75	5.75	5.25	8.25	5.25	1.00	1.25	-0.196777	0.104980	0.952637	-3.010000	0.770000	0.070000	520.00	0.12	-0.08
1.75	3.50	4.00	3.50	3.50	1.50	1.00	1.50	1.75	5.25	4.75	4.75	3.25	6.00	6.25	1.50	1.00	-0.275391	0.088379	0.934082	-2.590000	4.620000	1.190000	607.00	0.06	-0.05	2.25	1.00	2.25	1.25	1.50	0.00	1.50	1.75	3.75	3.75	5.75	5.00	8.25	5.00	1.25	1.50	-0.196289	0.099121	0.948730	-2.940000	0.700000	0.070000	517.00	0.13	-0.08
1.76	3.25	3.75	3.50	3.00	1.50	0.75	1.50	1.75	5.25	4.50	4.75	3.00	6.00	6.25	1.25	1.00	-0.279297	0.090820	0.935547	-2.870000	4.830000	1.190000	584.00	0.07	-0.04	2.50	1.00	1.75	0.75	1.75	0.00	1.25	1.75	3.75	4.00	5.75	5.00	8.25	5.25	1.00	1.50	-0.196289	0.105469	0.954590	-3.010000	0.700000	-0.000000	509.00	0.13	-0.08
1.77	4.00	3.25	3.50	3.25	1.50	1.00	1.50	2.00	5.25	4.75	4.50	3.50	6.25	6.25	1.50	1.00	-0.271973	0.080566	0.940430	-2.940000	4.830000	1.190000	609.00	0.06	-0.05	2.50	1.00	1.75	0.75	1.50	0.00	1.25	1.75	3.75	4.00	5.50	5.00	8.25	5.25	1.00	1.50	-0.199707	0.099121	0.948730	-2.940000	0.630000	0.070000	503.00	0.13	-0.08
1.78	3.75	3.50	3.75	3.25	1.50	1.25	1.50	2.00	5.25	4.75	4.75	3.25	6.00	6.25	1.25	1.00	-0.274902	0.084961	0.939453	-2.870000	4.970000	1.190000	609.00	0.06	-0.05	3.00	0.50	1.75	1.25	1.75	0.00	1.50	1.75	3.75	3.75	5.50	5.00	8.25	5.25	1.25	1.50	-0.201660	0.098633	0.955078	-2.870000	0.700000	0.140000	517.00	0.13	-0.08
1.79	3.50	3.50	3.75	3.25	1.50	1.25	1.50	1.50	5.25	4.75	4.75	3.50	6.50	6.25	1.25	1.00	-0.278320	0.084961	0.934570	-2.590000	4.550000	1.330000	605.00	0.06	-0.05	3.25	0.50	2.00	1.00	1.50	0.00	1.50	1.75	4.00	4.00	5.50	5.00	8.25	5.00	1.00	1.75	-0.194336	0.111328	0.951660	-2.940000	0.560000	0.280000	519.00	0.13	-0.08
1.80	3.50	3.50	3.75	3.25	1.50	0.75	1.50	1.75	5.25	4.75	4.50	3.75	6.00	6.25	1.00	1.00	-0.280762	0.087402	0.935059	-2.520000	4.690000	1.260000	596.00	0.06	-0.04	2.50	0.75	2.25	1.00	1.75	0.00	1.25	2.00	3.75	3.75	5.50	5.25	8.25	5.00	1.00	1.50	-0.203125	0.107910	0.950684	-3.010000	0.560000	0.280000	515.00	0.13	-0.09
1.81	3.50	3.75	3.75	3.25	1.50	0.75	1.50	1.75	5.25	4.75	4.50	3.75	6.25	6.25	1.50	1.00	-0.277832	0.090820	0.934570	-2.590000	4.760000	1.330000	607.00	0.06	-0.05	2.75	1.00	2.25	1.00	1.75	0.00	1.50	1.75	3.75	3.50	5.25	5.00	8.25	5.25	1.00	1.50	-0.197266	0.107422	0.956543	-2.870000	0.420000	0.350000	514.00	0.12	-0.08
1.82	3.75	4.00	3.75	3.50	1.75	1.25	1.50	2.00	5.25	5.00	4.75	3.50	6.25	6.25	1.25	0.75	-0.277832	0.087891	0.937012	-2.660000	4.410000	1.260000	627.00	0.05	-0.05	2.75	0.50	2.00	1.00	1.75	0.00	1.25	1.75	3.75	3.75	5.75	5.25	8.25	5.25	1.25	1.50	-0.200195	0.105469	0.949219	-2.800000	0.350000	0.420000	516.00	0.13	-0.08
1.83	3.50	3.50	3.50	3.25	1.50	1.00	1.50	1.75	5.25	4.75	4.50	3.25	6.00	6.25	1.25	1.00	-0.281738	0.087402	0.939453	-2.590000	4.130000	1.260000	593.00	0.06	-0.04	2.75	0.75	2.25	1.25	1.75	0.00	1.50	1.75	3.75	4.00	5.75	5.25	8.25	5.00	1.00	1.75	-0.201660	0.099609	0.944336	-2.660000	-0.070000	0.490000	527.00	0.12	-0.08
1.84	3.50	3.75	4.00	3.50	1.50	0.75	1.50	2.00	5.25	4.50	4.50	3.25	6.00	6.00	1.25	1.00	-0.273926	0.088379	0.938477	-2.240000	4.270000	1.400000	601.00	0.05	-0.05	2.75	1.00	2.25	1.00	1.75	0.00	1.25	2.00	3.75	4.00	5.75	5.25	8.50	5.25	1.25	1.75	-0.204102	0.095703	0.951172	-2.170000	-0.420000	0.700000	535.00	0.12	-0.09
1.85	3.75	3.75	3.25	3.25	1.50	1.00	1.50	1.75	5.25	4.50	4.50	3.25	6.00	6.00	1.00	1.00	-0.276855	0.080078	0.949707	-1.260000	4.060000	1.260000	587.00	0.06	-0.05	3.25	1.00	2.25	1.00	1.75	0.00	1.50	2.00	3.75	3.75	5.50	5.00	8.50	5.25	1.00	1.75	-0.201172	0.096680	0.939941	-1.750000	-0.910000	1.120000	533.00	0.12	-0.08
1.86	4.00	4.00	4.00	3.50	1.50	0.75	1.25	1.75	5.00	4.50	4.25	3.50	6.00	6.00	1.25	0.75	-0.271973	0.094727	0.940430	-1.120000	4.340000	1.190000	596.00	0.05	-0.05	2.75	1.00	2.00	1.00	1.75	0.25	1.50	2.00	4.00	3.75	5.50	5.25	8.50	5.00	1.00	1.25	-0.203125	0.101074	0.951172	-1.540000	-1.750000	1.750000	528.00	0.12	-0.08
1.87	3.75	4.25	3.75	3.50	1.50	1.00	1.25	1.50	5.00	4.25	4.25	3.00	5.75	5.75	1.00	0.75	-0.282227	0.087402	0.938965	-1.400000	3.920000	1.260000	575.00	0.04	-0.04	2.75	1.00	2.50	1.00	1.75	0.00	1.50	2.00	3.50	4.00	5.50	5.25	8.50	5.00	1.00	1.25	-0.198242	0.107422	0.951660	-1.470000	-2.520000	2.030000	527.00	0.12	-0.08
1.88	4.00	3.50	3.75	3.50	1.50	0.75	1.25	1.75	4.75	4.00	4.25	2.75	5.75	5.50	0.75	0.75	-0.280273	0.093262	0.946289	-1.470000	3.080000	1.260000	557.00	0.04	-0.05	3.00	1.25	2.00	1.00	1.75	0.00	1.50	2.25	3.75	4.00	5.75	5.25	8.50	5.00	1.00	1.50	-0.200195	0.102539	0.950195	-1.260000	-4.830000	2.800000	538.00	0.12	-0.09
1.89	3.75	3.75	3.50	3.25	1.50	0.75	1.25	1.75	4.00	4.00	4.00	2.50	5.50	5.25	0.75	0.50	-0.284668	0.090332	0.944824	-1.190000	2.170000	1.540000	528.00	0.03	-0.05	3.25	1.25	2.50	1.25	1.75	0.00	1.50	2.25	3.75	3.75	5.75	5.25	8.75	5.00	1.00	1.50	-0.198730	0.092285	0.957520	-0.630000	-6.370000	3.290000	550.00	0.11	-0.09
1.90	4.25	4.00	4.00	3.25	1.50	0.75	1.00	1.50	3.75	3.75	3.50	2.25	5.25	5.00	0.75	0.25	-0.281250	0.092285	0.938965	-1.260000	1.190000	1.960000	513.00	0.01	-0.05	3.50	1.00	2.75	1.00	2.00	0.25	1.50	2.25	3.25	3.50	5.50	5.25	8.75	5.00	1.00	1.25	-0.200684	0.100586	0.950684	0.140000	-7.840000	3.990000	542.00	0.10	-0.09
1.91	4.25	4.75	4.25	4.00	1.50	0.50	1.00	1.25	3.25	3.75	3.50	2.25	4.50	5.00	0.75	0.25	-0.287598	0.087891	0.947266	-0.910000	0.210000	2.240000	511.00	-0.00	-0.04	3.50	1.50	2.50	1.25	2.00	0.50	1.50	2.75	3.25	3.75	5.50	5.25	8.75	4.75	1.00	1.25	-0.198730	0.103027	0.955566	0.350000	-9.730000	4.970000	559.00	0.09	-0.10
1.92	5.00	4.75	4.25	4.25	1.50	0.50	1.00	1.25	3.00	3.25	3.25	2.25	3.75	4.00	0.75	0.25	-0.295898	0.076172	0.945801	0.560000	-1.260000	2.590000	494.00	-0.03	-0.04	4.00	1.25	3.00	1.50	2.00	0.25	1.50	2.75	3.00	3.50	5.25	5.25	8.75	4.25	1.25	1.25	-0.193848	0.095703	0.952148	-0.700000	-10.570000	5.110000	557.00	0.08	-0.10
1.93	5.00	5.00	4.75	4.25	1.75	0.75	1.00	1.25	2.50	3.25	3.00	1.75	3.25	3.50	0.25	0.00	-0.302246	0.071777	0.956055	2.590000	-3.430000	2.450000	476.00	-0.06	-0.04	4.25	1.75	3.25	1.75	2.25	0.50	1.50	2.75	3.00	3.25	5.00	5.00	8.75	4.00	0.50	1.25	-0.196289	0.116211	0.955566	-1.190000	-11.690000	4.830000	557.00	0.06	-0.10
1.94	5.75	5.00	5.00	4.25	1.50	0.75	0.75	1.50	1.75	2.75	2.50	1.50	2.75	3.00	0.25	0.00	-0.301270	0.091309	0.959961	6.090000	-6.300000	3.290000	450.00	-0.09	-0.05	5.00	1.75	3.75	1.75	2.50	0.75	1.50	3.00	2.50	3.00	4.75	4.50	8.50	4.00	1.00	1.00	-0.205566	0.105957	0.958496	-1.610000	-13.230000	5.110000	565.00	0.04	-0.10
1.95	5.75	5.25	5.25	5.00	1.75	0.75	0.75	1.00	1.25	2.50	2.50	1.25	2.25	2.25	0.50	0.00	-0.290527	0.076660	0.968262	11.200000	-9.240000	3.990000	438.00	-0.11	-0.05	5.25	2.00	4.25	2.25	2.50	1.00	1.50	2.75	2.00	2.75	4.00	4.25	8.50	3.50	1.00	0.50	-0.212402	0.106934	0.962402	-1.260000	-15.260000	5.740000	552.00	0.02	-0.10
1.96	6.75	5.75	5.75	5.00	1.75	1.00	0.75	1.00	0.75	2.00	2.25	1.25	1.75	2.25	0.25	0.00	-0.279785	0.034668	0.987793	22.680000	-12.810000	5.950000	440.00	-0.15	-0.05	5.50	2.50	5.00	2.50	2.75	1.00	1.50	2.75	1.50	2.50	4.00	4.00	8.00	3.00	1.00	0.50	-0.193359	0.117676	0.963867	-0.420000	-16.590000	6.510000	553.00	-0.00	-0.10
1.97	7.25	6.25	6.00	5.25	1.50	1.00	0.50	0.75	1.00	1.25	2.00	1.25	1.50	1.25	0.25	0.00	-0.267090	0.091309	0.955566	24.080000	-14.700000	7.140000	426.00	-0.18	-0.05	6.25	2.75	5.00	3.25	2.75	1.50	1.50	3.00	1.25	2.50	3.50	3.75	8.00	2.50	0.75	0.25	-0.198730	0.092285	0.961914	0.210000	-16.940001	7.350000	562.00	-0.03	-0.11
1.98	8.50	7.00	6.25	5.50	1.50	0.75	0.50	1.00	0.50	1.00	1.75	1.25	1.25	1.75	0.25	0.00	-0.256348	0.109863	0.971191	26.880001	-16.309999	7.140000	445.00	-0.20	-0.05	6.50	3.50	5.25	3.75	2.75	1.75	1.25	3.00	1.25	2.25	3.25	3.50	7.75	2.00	0.75	0.50	-0.156250	0.107910	0.969727	0.350000	-15.330000	7.560000	566.00	-0.05	-0.11
1.99	9.50	8.00	7.25	5.75	1.75	0.75	0.50	0.75	0.75	0.75	1.00	1.00	0.75	1.50	0.25	0.00	-0.208008	0.115234	0.959473	33.459999	-20.299999	10.150000	462.00	-0.23	-0.03	7.25	4.00	5.50	4.25	2.75	1.75	1.25	2.75	0.75	2.00	3.00	3.25	7.25	1.75	1.00	0.00	-0.144531	0.125488	0.970215	0.700000	-8.470000	6.020000	562.00	-0.07	-0.11
2.00	10.25	8.75	7.25	6.00	1.50	1.00	0.50	0.75	0.75	1.00	1.25	0.75	0.75	1.00	0.25	0.00	-0.208008	0.115234	0.959473	33.459999	-20.299999	10.150000	479.00	-0.24	-0.04	8.00	4.75	5.75	4.50	2.75	1.75	1.25	2.75	0.75	2.00	3.00	3.25	7.25	1.75	0.50	0.25	-0.146484	0.117676	0.967285	0.770000	-4.620000	4.830000	580.00	-0.09	-0.10
2.01	11.25	9.00	7.75	6.25	1.50	1.25	0.25	0.75	0.75	1.00	1.25	0.75	1.00	0.25	0.25	0.00	-0.250000	0.082520	0.956055	24.430000	-21.910000	8.470000	497.00	-0.25	-0.04	8.25	5.00	5.75	5.00	2.75	2.00	1.25	2.75	0.75	2.00	2.75	3.00	6.75	2.00	0.25	0.00	-0.148438	0.119141	0.953613	0.910000	-0.770000	4.130000	582.00	-0.10	-0.10
2.02	12.50	9.75	7.75	6.75	1.25	1.00	0.50	0.50	0.00	1.00	0.75	0.50	0.50	0.75	0.25	0.00	-0.266113	0.064941	1.014648	18.620001	-22.120001	5.810000	499.00	-0.28	-0.03	8.25	5.00	5.75	4.50	2.50	2.00	1.00	2.75	0.75	2.00	2.75	3.00	6.75	1.50	0.50	0.00	-0.145996	0.121582	0.952148	0.910000	3.290000	3.360000	567.00	-0.10	-0.11
2.03	13.00	10.25	8.00	7.50	1.00	0.75	0.25	1.00	0.75	1.00	0.75	0.50	0.75	0.75	0.25	0.00	-0.251465	0.068848	1.000000	13.230000	-24.920000	2.940000	533.00	-0.27	-0.04	8.00	5.00	5.50	4.50	2.50	2.00	1.00	2.50	0.75	2.00	2.75	3.00	6.50	1.50	0.75	0.00	-0.135254	0.122070	0.958984	0.700000	7.910000	1.680000	557.00	-0.10	-0.10
2.04	13.75	11.25	8.25	7.75	1.25	1.00	0.25	0.25	0.25	0.25	0.75	0.50	0.75	0.75	0.25	0.00	-0.240723	0.077637	1.003418	6.930000	-30.240000	-0.420000	535.00	-0.29	-0.04	7.75	4.50	5.25	4.25	2.25	1.75	1.00	2.25	0.50	2.00	2.75	3.00	6.25	1.25	0.50	0.25	-0.133301	0.125488	0.959961	0.210000	13.160000	-0.280000	523.00	-0.10	-0.10
2.05	14.75	11.75	8.50	8.00	1.50	1.25	0.25	0.50	0.25	0.25	0.50	0.50	0.75	0.25	0.25	0.00	-0.229492	0.055176	0.945312	7.980000	-34.439999	-3.710000	560.00	-0.30	-0.04	6.75	3.50	4.50	3.75	2.00	1.25	1.00	2.25	0.50	2.00	3.00	3.00	6.50	1.25	0.50	0.00	-0.130371	0.127441	0.959961	-0.140000	19.600000	-2.660000	482.00	-0.08	-0.11
2.06	15.75	12.75	8.50	8.50	1.25	0.75	0.25	0.50	0.50	0.25	0.25	0.00	1.00	0.75	0.00	0.25	-0.210449	0.081055	0.888184	11.340000	-34.090000	-7.000000	579.00	-0.31	-0.04	6.25	2.75	3.50	2.50	2.00	0.75	1.00	2.25	0.75	2.00	3.00	3.25	6.75	1.25	0.50	0.25	-0.119629	0.139160	0.991211	-0.490000	27.510000	-5.110000	446.00	-0.05	-0.11
2.07	17.00	13.50	8.75	8.75	1.25	1.25	0.50	0.75	0.25	0.25	0.25	0.25	0.50	0.75	0.25	0.00	-0.212891	0.148438	0.919922	16.170000	-33.250000	-8.260000	617.00	-0.31	-0.04	5.25	1.75	2.75	2.00	1.25	0.25	1.00	2.00	0.75	2.25	3.00	3.25	7.00	1.50	0.50	0.00	-0.176758	0.136230	1.005859	0.350000	36.889999	-8.400000	396.00	-0.01	-0.12
2.08	17.50	14.25	9.25	9.00	1.25	1.00	0.50	0.50	0.25	0.00	0.50	0.00	0.50	0.50	0.25	0.00	-0.206055	0.147949	0.878418	18.969999	-31.990000	-7.910000	627.00	-0.32	-0.03	4.00	1.00	1.75	1.00	1.00	0.00	0.75	1.75	0.75	2.25	3.25	3.25	7.00	1.00	0.50	0.25	-0.203125	0.224609	1.056152	3.010000	46.480000	-9.520000	336.00	0.03	-0.14
2.09	18.50	15.00	9.50	9.25	1.25	1.00	0.50	0.50	0.75	0.25	0.25	0.25	0.50	0.50	0.25	0.00	-0.166504	0.157227	0.844238	19.530001	-26.740000	-7.560000	662.00	-0.31	-0.03	2.75	0.75	0.75	1.00	0.50	0.00	0.50	1.25	1.00	2.25	3.25	3.25	7.00	1.25	0.50	0.00	0.057129	0.259277	1.219238	-0.280000	65.379997	-18.200001	293.00	0.08	-0.15
2.10	19.50	16.00	9.75	9.50	1.25	1.50	0.50	0.50	0.50	0.25	0.25	0.00	0.75	0.25	0.50	0.00	-0.187988	0.190918	0.916992	17.780001	-21.559999	-6.860000	692.00	-0.31	-0.04	2.25	1.00	0.25	0.50	0.25	0.00	0.25	0.75	1.00	2.25	3.25	3.50	6.25	1.25	0.00	0.00	-0.221680	0.103027	1.055664	22.750000	116.129997	-27.930000	252.00	0.10	-0.16
2.11	20.00	16.50	10.00	9.75	1.50	1.50	0.50	0.50	0.75	0.25	0.50	0.25	0.50	0.50	0.25	0.00	-0.219238	0.214355	0.970703	15.610000	-19.670000	-5.250000	718.00	-0.31	-0.03	1.50	0.25	0.00	0.50	0.00	0.00	0.00	0.25	0.75	2.00	2.75	3.00	5.75	1.00	0.25	0.25	-0.466797	0.366211	1.097168	48.230000	168.839996	-30.309999	197.00	0.14	-0.18
2.12	21.25	16.75	10.25	10.00	1.50	1.50	0.25	0.50	0.50	0.25	0.50	0.00	1.00	0.50	0.25	0.00	-0.184570	0.195801	0.904297	13.230000	-18.129999	-3.640000	735.00	-0.31	-0.04	1.00	0.25	0.00	0.00	0.00	0.00	0.00	0.00	0.75	2.00	3.00	3.00	4.75	0.75	0.25	0.00	-0.253418	0.015625	1.712891	43.959999	246.540009	-49.279999	171.00	0.17	-0.17
2.13	22.00	17.50	10.50	10.50	1.25	2.00	0.50	0.75	0.50	0.25	0.50	0.00	0.50	0.75	0.25	0.00	-0.139648	0.204102	0.894531	9.730000	-13.440001	-2.800000	769.00	-0.31	-0.04	1.25	0.25	0.00	0.00	0.00	0.00	0.00	0.00	0.25	1.75	2.75	2.75	2.75	0.75	0.25	0.00	-0.358398	0.267578	1.128418	23.520000	251.930008	-49.000000	139.00	0.15	-0.15
2.14	22.50	18.00	10.75	10.50	1.25	1.75	0.50	0.50	0.50	0.25	0.25	0.25	0.50	0.50	0.25	0.25	-0.145996	0.208496	0.892090	4.970000	-8.610000	-2.100000	775.00	-0.32	-0.03	0.75	0.25	0.00	0.00	0.00	0.00	0.00	0.00	0.00	1.50	2.50	2.50	2.50	0.50	0.25	0.00	-0.282227	0.196777	1.769043	11.200000	252.419998	-52.009998	117.00	0.16	-0.18
2.15	22.50	18.25	11.00	10.75	1.50	2.25	0.25	0.50	0.75	0.00	0.50	0.25	0.75	0.50	0.25	0.00	-0.127930	0.206543	0.842773	-5.250000	6.510000	-0.770000	793.00	-0.31	-0.04	0.75	0.00	0.00	0.00	0.00	0.00	0.00	0.00	0.00	1.50	2.25	2.50	1.50	0.25	0.00	0.00	-0.267578	0.390137	1.645508	22.750000	234.639999	-54.320000	97.00	0.16	-0.16
2.16	23.25	18.75	11.25	11.00	1.50	2.25	0.50	0.75	0.25	0.25	0.50	0.25	0.75	0.50	0.25	0.00	-0.136230	0.186035	0.865234	-9.800000	14.910000	-0.350000	816.00	-0.32	-0.04	0.75	0.25	0.00	0.00	0.00	0.00	0.00	0.00	0.00	1.25	1.75	2.50	0.50	0.25	0.00	0.00	0.209473	0.281738	1.567383	24.780001	213.080002	-65.590004	81.00	0.14	-0.14
2.17	23.75	18.75	11.25	11.00	1.50	2.50	0.50	0.50	0.75	0.25	0.50	0.00	0.75	0.50	0.00	0.00	-0.161133	0.167480	0.931152	-13.370000	20.860001	-0.280000	822.00	-0.32	-0.03	0.75	0.00	0.00	0.00	0.00	0.00	0.00	0.00	0.00	1.00	1.50	1.75	0.50	0.25	0.25	0.00	0.791016	0.372559	1.890625	24.710001	183.539993	-69.019997	67.00	0.15	-0.12
2.18	23.50	18.75	11.50	11.25	1.50	2.00	0.50	0.75	0.75	0.25	0.50	0.00	1.00	0.75	0.25	0.00	-0.190430	0.158203	0.998535	-13.650000	22.400000	-0.490000	831.00	-0.31	-0.04	1.25	0.25	0.00	0.00	0.00	0.00	0.00	0.00	0.00	1.00	1.00	1.00	0.25	0.00	0.00	0.00	1.458496	0.577148	1.917480	15.260000	133.000000	-53.970001	53.00	0.03	-0.07
2.19	23.50	19.00	11.50	11.25	1.75	2.75	0.50	1.00	1.00	0.25	0.25	0.25	1.00	0.75	0.00	0.25	-0.195312	0.158203	0.976562	-14.700000	21.420000	-0.770000	852.00	-0.30	-0.04	0.75	0.00	0.00	0.00	0.00	0.00	0.00	0.00	0.00	0.75	0.75	1.00	0.00	0.00	0.00	0.00	1.485840	0.919922	1.594727	4.620000	64.889999	-15.400000	37.00	0.00	0.00
2.20	24.00	19.00	11.50	11.25	1.75	3.00	0.50	0.75	0.50	0.25	0.50	0.25	0.75	0.75	0.25	0.25	-0.178223	0.161621	0.957031	-16.730000	21.910000	-1.050000	852.00	-0.31	-0.04	0.25	0.00	0.00	0.00	0.00	0.00	0.00	0.00	0.00	0.75	0.75	1.00	0.00	0.00	0.00	0.00	1.645508	0.387207	1.377930	-2.380000	14.700000	11.340000	32.00	0.00	0.00
2.21	23.25	18.75	11.50	11.25	1.75	2.75	0.50	1.00	0.50	0.50	0.25	0.50	0.50	0.75	0.25	0.00	-0.190430	0.164551	0.980469	-18.129999	22.260000	-1.120000	842.00	-0.31	-0.04	0.75	0.25	0.00	0.00	0.00	0.00	0.00	0.00	0.00	0.75	0.75	0.75	0.00	0.00	0.00	0.00	1.333496	0.271973	1.061035	-9.170000	-23.520000	31.500000	37.00	0.00	0.00
2.22	23.25	18.50	11.50	11.25	1.75	2.75	0.50	0.75	0.75	0.25	0.50	0.25	0.75	0.75	0.25	0.00	-0.211914	0.156738	0.982422	-18.760000	21.490000	-0.910000	838.00	-0.31	-0.04	0.50	0.25	0.00	0.00	0.00	0.00	0.00	0.00	0.00	0.50	0.75	0.75	0.00	0.00	0.00	0.00	1.275391	0.071777	0.875000	-7.140000	-44.660000	38.360001	31.00	0.00	0.00
2.23	23.00	18.75	11.50	11.00	2.00	2.75	0.50	0.75	0.50	0.50	0.50	0.50	0.25	0.75	0.00	0.25	-0.217285	0.147949	0.979980	-18.340000	19.809999	-0.560000	834.00	-0.31	-0.04	0.75	0.00	0.00	0.00	0.00	0.00	0.00	0.00	0.00	0.50	0.75	1.00	0.00	0.00	0.00	0.00	1.166504	-0.037109	0.967773	-2.310000	-60.619999	35.209999	34.00	0.00	0.00
2.24	23.00	18.50	11.25	11.00	2.00	2.75	0.50	0.75	0.50	0.75	0.50	0.50	0.75	0.75	0.25	0.00	-0.216309	0.144531	0.959473	-17.080000	18.059999	-0.070000	837.00	-0.30	-0.04	0.00	0.00	0.00	0.00	0.00	0.00	0.00	0.00	0.00	0.75	0.50	1.00	0.00	0.00	0.00	0.00	1.023438	-0.128418	1.198242	-7.070000	-101.290001	22.469999	26.00	0.00	0.00
2.25	22.50	18.25	11.25	11.25	2.00	2.75	0.50	1.00	0.50	0.50	0.50	0.25	0.75	0.50	0.25	0.00	-0.211426	0.133789	0.955078	-16.170000	17.150000	0.350000	828.00	-0.31	-0.04	0.50	0.00	0.00	0.00	0.00	0.00	0.00	0.00	0.00	0.50	0.50	1.00	0.00	0.25	0.00	0.00	0.886230	-0.146484	1.218750	-9.170000	-123.760002	16.100000	31.00	0.00	0.00
2.26	22.50	18.25	11.25	11.00	2.00	2.50	0.50	1.00	1.00	0.50	0.50	0.25	0.75	0.75	0.50	0.25	-0.202148	0.134766	0.941406	-16.100000	17.219999	0.490000	836.00	-0.30	-0.04	0.50	0.25	0.00	0.00	0.00	0.00	0.00	0.00	0.00	0.75	0.50	0.75	0.00	0.00	0.00	0.00	0.727051	-0.180176	1.188965	-9.450000	-143.220001	8.820000	31.00	0.00	0.00
2.27	22.25	18.00	11.25	11.00	2.25	2.75	0.50	1.00	0.75	0.75	0.75	0.50	0.50	1.00	0.50	0.00	-0.213379	0.124023	0.946289	-15.610000	17.500000	0.490000	840.00	-0.29	-0.04	0.50	0.00	0.00	0.00	0.00	0.00	0.00	0.00	0.00	0.25	0.75	0.50	0.00	0.00	0.00	0.00	0.555176	-0.185547	1.176270	-10.150000	-157.639999	0.070000	23.00	0.00	0.00
2.28	22.25	18.00	11.25	10.75	2.25	2.50	0.50	1.00	0.50	0.75	0.50	0.25	1.25	1.00	0.50	0.00	-0.221680	0.126465	0.951660	-15.260000	17.430000	0.560000	832.00	-0.29	-0.04	0.25	0.00	0.00	0.00	0.00	0.00	0.00	0.00	0.00	0.00	0.25	0.25	0.00	0.00	0.00	0.00	0.413574	-0.171875	1.183105	-11.130000	-168.000000	-9.030000	9.00	0.00	0.00
2.29	22.25	17.75	11.25	11.00	2.00	2.25	0.50	0.75	0.75	0.75	0.75	0.25	0.50	1.00	0.25	0.00	-0.220215	0.123047	0.956055	-15.190001	16.870001	0.770000	819.00	-0.30	-0.03	0.25	0.00	0.00	0.00	0.00	0.00	0.00	0.00	0.00	0.00	0.50	0.50	0.00	0.00	0.00	0.00	0.252930	-0.131348	1.271973	-11.270000	-176.119995	-17.080000	14.00	0.00	0.00
2.30	22.00	17.50	11.25	10.75	2.00	2.75	0.50	1.00	0.75	0.50	0.75	0.25	1.00	0.75	0.50	0.25	-0.215820	0.115723	0.946289	-15.890000	15.540000	0.560000	824.00	-0.29	-0.04	0.00	0.00	0.00	0.00	0.00	0.00	0.00	0.00	0.00	0.00	0.00	0.25	0.00	0.00	0.00	0.00	0.143066	-0.072754	1.351074	-8.820000	-183.889999	-21.350000	3.00	0.00	0.00
2.31	21.75	17.50	11.00	11.00	2.00	2.25	0.50	1.00	0.50	0.75	0.75	0.50	0.75	1.00	0.25	0.00	-0.216309	0.111816	0.942871	-17.290001	14.840000	0.140000	813.00	-0.29	-0.04	0.25	0.25	0.00	0.00	0.00	0.00	0.00	0.00	0.00	0.00	0.00	0.00	0.00	0.00	0.00	0.00	0.032227	-0.018066	1.480469	-3.850000	-194.250000	-21.700001	5.00	0.00	0.00
2.32	21.75	18.00	11.25	11.00	2.25	2.75	0.50	0.75	0.75	0.75	0.50	0.75	0.75	1.25	0.25	0.00	-0.209961	0.113281	0.937500	-19.389999	14.140000	-0.140000	832.00	-0.29	-0.04	0.00	0.00	0.00	0.00	0.00	0.00	0.00	0.00	0.00	0.00	0.00	0.25	0.00	0.00	0.00	0.00	-0.080566	0.033203	1.523438	1.680000	-205.309998	-19.320000	3.00	0.00	0.00
2.33	21.75	17.75	11.25	11.00	2.00	2.50	0.50	1.00	0.75	1.00	1.00	0.50	1.25	0.75	0.25	0.25	-0.219238	0.111328	0.947754	-21.210001	13.510000	-0.420000	835.00	-0.29	-0.04	0.25	0.00	0.00	0.00	0.00	0.00	0.00	0.00	0.00	0.00	0.00	0.25	0.00	0.00	0.00	0.00	-0.212891	0.081055	1.518066	6.580000	-215.110001	-16.520000	6.00	0.00	0.00
2.34	21.75	18.00	11.25	11.00	2.25	2.75	0.75	0.75	0.50	0.75	0.75	0.25	0.75	1.00	0.50	0.25	-0.214844	0.109863	0.943848	-22.680000	12.740000	-0.630000	832.00	-0.29	-0.04	0.00	0.00	0.00	0.00	0.00	0.00	0.00	0.00	0.00	0.00	0.00	0.25	0.00	0.00	0.00	0.00	-0.338379	0.135254	1.487305	12.040000	-220.639999	-13.930000	3.00	0.00	0.00
2.35	21.50	17.75	11.25	11.00	2.25	3.00	0.75	1.00	0.75	1.25	0.75	0.75	1.00	1.00	0.50	0.25	-0.221191	0.110352	0.944336	-24.010000	12.320000	-0.980000	851.00	-0.28	-0.04	0.25	0.00	0.00	0.00	0.00	0.00	0.00	0.00	0.00	0.00	0.00	0.00	0.00	0.00	0.00	0.00	-0.528320	0.172852	1.413574	21.910000	-216.580002	-5.110000	3.00	0.00	0.00
2.36	21.50	17.75	11.25	11.00	2.50	3.00	0.75	1.00	0.75	1.25	0.75	0.50	1.00	1.25	0.50	0.00	-0.215332	0.107422	0.945312	-24.920000	11.760000	-1.470000	852.00	-0.28	-0.04	0.75	0.00	0.00	0.00	0.00	0.00	0.00	0.00	0.00	0.00	0.00	0.00	0.00	0.00	0.00	0.00	-0.596680	0.190918	1.389160	22.889999	-207.619995	2.240000	8.00	0.00	0.00
2.37	21.50	17.50	11.50	11.00	2.75	3.00	0.75	1.25	1.00	1.25	1.00	0.50	1.00	1.00	0.25	0.25	-0.218750	0.106934	0.945801	-24.990000	10.920000	-1.750000	862.00	-0.28	-0.04	0.00	0.00	0.00	0.00	0.00	0.00	0.00	0.00	0.00	0.00	0.00	0.00	0.00	0.00	0.00	0.00	-0.655273	0.196289	1.353516	20.719999	-195.580002	13.090000	0.00	0.00	0.00
2.38	21.50	17.50	11.25	11.25	2.75	3.00	0.75	1.25	1.00	1.50	1.25	0.50	1.00	1.50	0.50	0.00	-0.214355	0.099609	0.937988	-24.780001	10.010000	-1.960000	874.00	-0.27	-0.04	0.00	0.00	0.00	0.00	0.00	0.00	0.00	0.00	0.00	0.00	0.00	0.00	0.00	0.00	0.00	0.00	-0.701660	0.200195	1.312012	16.660000	-181.369995	26.880001	0.00	0.00	0.00
2.39	21.25	17.25	11.50	11.00	2.75	3.25	1.00	1.25	0.50	1.25	1.25	0.50	1.25	1.25	0.25	0.00	-0.211914	0.094727	0.929688	-25.129999	10.080000	-2.450000	863.00	-0.27	-0.04	0.50	0.00	0.00	0.00	0.00	0.00	0.00	0.00	0.00	0.00	0.00	0.00	0.00	0.00	0.00	0.00	-0.764160	0.183594	1.259277	11.130000	-165.199997	42.910000	6.00	0.00	0.00
2.40	21.00	17.00	11.50	11.25	2.75	3.50	1.00	1.25	1.25	1.50	1.00	0.50	1.00	1.50	0.50	0.00	-0.211426	0.088867	0.927734	-24.500000	10.150000	-3.010000	877.00	-0.26	-0.04	0.00	0.00	0.00	0.00	0.00	0.00	0.00	0.00	0.00	0.00	0.00	0.00	0.00	0.00	0.00	0.00	-0.823730	0.167969	1.222656	5.600000	-148.330002	59.920002	0.00	0.00	0.00
2.41	21.25	17.00	11.25	11.00	3.25	3.50	1.00	1.50	1.25	1.75	1.50	0.75	1.00	1.50	0.50	0.00	-0.203613	0.084961	0.934570	-23.799999	11.200000	-3.920000	896.00	-0.25	-0.04	0.25	0.00	0.00	0.00	0.00	0.00	0.00	0.00	0.00	0.00	0.00	0.00	0.00	0.00	0.00	0.00	-0.899414	0.149414	1.188965	1.610000	-132.160004	76.930000	3.00	0.00	0.00
2.42	20.75	16.75	11.50	11.00	3.25	3.75	1.25	1.50	1.50	2.00	1.50	0.75	1.25	2.00	0.50	0.00	-0.225586	0.085938	0.946777	-21.350000	12.670000	-4.690000	911.00	-0.24	-0.04	0.00	0.00	0.00	0.00	0.00	0.00	0.00	0.00	0.00	0.00	0.00	0.00	0.00	0.00	0.00	0.00	-0.968750	0.104004	1.223633	-3.150000	-118.930000	92.750000	0.00	0.00	0.00
2.43	20.25	16.50	11.25	11.00	3.50	3.75	1.50	1.50	2.00	2.25	1.50	0.75	1.75	2.50	0.50	0.00	-0.228027	0.078125	0.936035	-18.830000	13.650000	-5.110000	926.00	-0.23	-0.04	0.00	0.00	0.00	0.00	0.00	0.00	0.00	0.00	0.00	0.00	0.00	0.00	0.00	0.00	0.00	0.00	-1.020996	0.020996	1.222656	-13.860000	-110.250000	106.959999	0.00	0.00	0.00
2.44	19.75	16.25	11.00	10.75	4.25	3.50	2.25	2.00	2.75	2.50	2.00	0.75	1.75	2.50	0.75	0.00	-0.207520	0.076172	0.928223	-17.080000	15.540000	-5.600000	961.00	-0.21	-0.03	0.25	0.00	0.00	0.00	0.00	0.00	0.00	0.00	0.00	0.00	0.00	0.00	0.00	0.00	0.00	0.00	-1.055176	-0.010254	1.085449	-34.509998	-106.120003	117.459999	3.00	0.00	0.00
2.45	19.25	15.75	11.00	10.75	5.00	3.50	2.75	2.25	2.75	3.00	2.00	1.00	2.25	3.00	0.75	0.00	-0.230469	0.103027	0.993164	-17.150000	9.800000	-7.350000	989.00	-0.19	-0.03	0.00	0.00	0.00	0.00	0.00	0.00	0.00	0.00	0.00	0.00	0.00	0.00	0.00	0.00	0.00	0.00	-1.097656	0.110840	0.893066	-66.779999	-103.389999	117.529999	0.00	0.00	0.00
2.46	18.75	15.25	10.75	10.50	5.00	4.00	3.50	2.50	3.50	3.00	2.50	1.00	2.75	3.25	0.50	0.00	-0.269043	0.055176	0.964355	-15.890000	9.240000	-7.210000	1016.00	-0.18	-0.03	0.00	0.00	0.00	0.00	0.00	0.00	0.00	0.00	0.00	0.00	0.00	0.00	0.00	0.00	0.00	0.00	-1.244629	0.258301	0.705566	-85.260002	-100.660004	106.750000	0.00	0.00	0.00
2.47	16.75	14.50	11.25	10.25	5.25	3.50	4.25	2.50	4.75	3.75	2.75	1.75	3.25	4.25	0.75	0.25	-0.250000	0.081543	0.956543	-14.490000	9.310000	-5.390000	1054.00	-0.15	-0.02	0.00	0.00	0.00	0.00	0.00	0.00	0.00	0.00	0.00	0.00	0.00	0.00	0.00	0.00	0.00	0.00	-1.454102	0.311035	0.482422	-69.580002	-99.190002	85.190002	0.00	0.00	0.00
2.48	16.00	13.00	9.75	9.75	5.25	4.00	5.00	4.00	6.50	5.00	4.50	2.25	5.25	6.50	1.50	1.25	-0.245117	0.071777	0.975586	-13.930000	11.620000	-4.200000	1169.00	-0.09	-0.03	0.50	0.00	0.00	0.00	0.00	0.00	0.00	0.00	0.00	0.00	0.00	0.00	0.00	0.00	0.00	0.00	-2.152344	0.170898	0.050293	20.790001	-86.590004	4.620000	6.00	0.00	0.00
2.49	15.50	13.25	9.75	9.50	5.50	3.50	5.25	4.00	6.50	5.50	4.00	2.75	6.00	7.00	2.00	1.25	-0.256836	0.066895	0.970215	-13.090000	15.540000	-3.430000	1187.00	-0.08	-0.03	0.00	0.00	0.00	0.00	0.00	0.00	0.00	0.00	0.00	0.00	0.00	0.00	0.00	0.00	0.00	0.00	-2.325195	-0.058594	-0.146973	59.500000	-67.550003	-30.520000	0.00	0.00	0.00
2.50	14.00	12.00	9.25	9.00	5.25	4.50	5.50	4.25	8.25	7.75	6.00	4.00	7.75	7.75	2.00	1.25	-0.257812	0.064941	0.967285	-12.180000	20.230000	-2.870000	1274.00	-0.04	-0.03	0.25	0.00	0.00	0.00	0.00	0.00	0.00	0.00	0.00	0.00	0.00	0.00	0.00	0.00	0.00	0.00	-3.579102	-0.229980	-0.605469	49.209999	-42.910000	-49.490002	3.00	0.00	0.00
2.51	16.50	12.75	10.75	9.75	6.25	5.00	5.75	4.75	9.00	8.25	7.00	5.00	8.25	8.50	2.50	1.50	-0.241699	0.076172	0.989746	-10.850000	25.480000	-2.800000	1426.00	-0.04	-0.03	1.00	0.00	0.00	0.00	0.00	0.00	0.00	0.00	0.00	0.00	0.00	0.00	0.00	0.00	0.00	0.00	-2.375488	-0.535645	-1.240234	33.110001	43.680000	-59.010002	11.00	0.00	0.00
2.52	14.25	10.75	10.00	9.00	6.25	4.00	6.00	4.75	9.50	8.75	7.50	5.75	8.75	9.50	2.25	1.75	-0.265625	0.087402	0.985352	-9.730000	31.080000	-3.290000	1394.00	-0.02	-0.03	1.50	0.75	0.25	0.00	0.00	0.00	0.00	0.00	0.00	0.00	0.00	0.00	0.00	0.00	0.00	0.00	-0.483887	-0.338867	0.074707	21.840000	158.899994	-90.019997	28.00	0.00	0.00
2.53	11.50	9.50	9.25	8.25	6.00	3.50	6.25	4.25	10.25	9.50	8.00	6.25	8.75	10.50	3.00	1.75	-0.265625	0.061035	0.984375	-9.520000	37.660000	-4.760000	1368.00	0.01	-0.03	2.50	1.00	0.50	0.00	0.00	0.00	0.00	0.00	0.00	0.00	0.00	0.00	0.00	0.00	0.00	0.00	-0.079102	0.026855	1.566406	7.280000	208.110001	-116.480003	44.00	0.00	0.00
2.54	9.50	8.25	8.50	7.75	5.25	3.25	6.25	4.00	11.25	10.25	8.50	7.25	9.00	12.00	3.50	2.00	-0.255371	0.052734	0.992676	-9.100000	43.889999	-5.250000	1365.00	0.04	-0.02	3.50	1.50	0.75	0.50	0.00	0.00	0.25	0.00	0.00	0.00	0.00	0.00	0.00	0.00	0.00	0.00	0.378906	0.446777	2.411621	-11.200000	150.710007	-124.809998	74.00	-0.35	0.03
2.55	6.25	6.50	6.50	5.75	3.25	0.75	6.00	2.00	10.25	9.75	8.25	6.75	8.25	11.25	2.50	1.25	-0.263672	0.047363	0.963379	-6.720000	52.360001	-6.090000	1113.00	0.07	-0.01	5.00	2.50	1.25	0.50	0.00	0.00	0.00	0.00	0.00	0.00	0.00	0.00	0.00	0.00	0.00	0.00	0.350098	0.698730	1.918945	-21.980000	66.709999	-117.809998	103.00	-0.38	0.02
2.56	6.00	5.50	5.75	5.75	3.25	1.25	6.00	1.50	11.50	10.75	8.75	6.75	8.00	13.00	3.25	1.75	-0.279785	0.078613	1.154785	-8.960000	64.540001	-4.340000	1148.00	0.09	0.00	6.00	4.25	1.50	0.50	0.00	0.00	0.00	0.00	0.00	0.00	0.00	0.00	0.00	0.00	0.00	0.00	0.114258	0.735840	0.646973	3.780000	16.450001	-94.500000	135.00	-0.38	0.00
2.57	5.50	5.25	5.50	5.50	2.25	0.00	5.75	0.50	11.25	10.75	8.75	6.75	7.50	13.50	3.00	1.50	-0.292480	0.060547	0.957520	-14.910000	87.290001	-2.800000	1079.00	0.10	0.01	8.25	6.75	2.25	1.00	0.00	0.00	0.00	0.00	0.00	0.00	0.00	0.00	0.00	0.00	0.00	0.00	-0.144531	0.537598	0.397461	19.950001	38.290001	-72.029999	201.00	-0.38	-0.01
2.58	4.75	5.00	4.75	4.50	1.25	0.00	5.50	0.50	11.50	11.25	8.75	7.00	7.50	16.50	3.00	1.00	-0.330566	0.092285	1.104004	-1.680000	114.449997	-7.350000	1067.00	0.13	0.02	12.25	9.00	2.75	1.75	0.00	0.00	0.00	0.00	0.00	0.00	0.00	0.00	0.00	0.00	0.00	0.00	-0.147461	0.776367	1.057129	41.720001	93.660004	-53.340000	284.00	-0.38	-0.01
2.59	5.00	5.00	4.75	5.00	1.75	0.25	5.00	0.25	11.50	11.25	9.00	6.50	6.25	17.00	3.00	1.50	-0.413574	0.163086	1.185547	8.190000	224.979996	-19.670000	1066.00	0.12	0.02	15.25	12.50	3.75	3.00	0.00	0.00	0.00	0.00	0.00	0.00	0.00	0.25	0.00	0.00	0.00	0.00	-0.369141	0.145020	1.950684	44.939999	123.620003	-23.379999	383.00	-0.38	-0.02
2.60	4.25	3.50	3.25	2.50	1.25	0.00	3.75	0.00	11.50	11.25	8.50	5.75	4.00	16.00	3.25	1.00	-0.413574	0.187012	1.420898	-9.520000	274.890015	-24.920000	915.00	0.16	0.04	19.25	16.50	5.00	4.75	0.25	0.00	0.00	0.00	0.00	0.00	0.00	0.00	0.00	0.00	0.00	0.00	-0.208496	0.187012	1.079102	48.720001	121.239998	-20.090000	505.00	-0.38	-0.02
2.61	3.50	3.25	3.25	2.75	1.00	0.00	2.75	0.25	11.25	11.25	8.25	4.75	1.75	16.25	3.25	0.75	-0.509766	0.154297	1.293945	-40.529999	289.029999	-33.740002	854.00	0.16	0.05	21.25	19.00	6.00	7.00	0.50	0.00	0.00	0.00	0.00	0.00	0.00	0.25	0.25	0.00	0.00	0.00	-0.185059	0.134277	1.135254	53.410000	121.029999	-19.530001	600.00	-0.37	-0.03
2.62	3.00	3.25	2.00	2.50	0.75	0.25	1.75	0.00	11.00	11.00	7.75	3.50	0.00	16.00	3.00	0.50	-0.546875	0.160156	1.498535	-63.630001	299.110016	-43.959999	759.00	0.18	0.07	23.00	20.75	7.25	8.25	0.50	0.25	0.00	0.00	0.00	0.00	0.00	0.50	0.00	0.00	0.00	0.00	-0.152344	0.182617	1.191406	59.080002	116.410004	-20.790001	671.00	-0.36	-0.03
2.63	2.50	3.00	2.25	2.75	0.50	0.00	1.50	0.00	10.75	10.75	7.00	2.00	0.00	16.25	2.50	0.00	-0.676270	0.164551	1.250000	-88.059998	323.750000	-56.630001	708.00	0.18	0.08	24.00	22.50	8.00	9.25	0.75	0.75	0.00	0.25	0.00	0.00	0.00	0.50	0.25	0.00	0.00	0.00	-0.174805	0.221191	1.153320	65.870003	107.449997	-20.230000	737.00	-0.36	-0.04
2.64	2.00	2.50	2.25	1.75	0.75	0.25	1.25	0.00	10.00	10.25	6.25	1.25	0.00	15.50	2.00	0.00	-0.858887	0.298340	1.788574	-108.150002	345.799988	-70.419998	641.00	0.19	0.09	25.00	23.50	8.75	10.25	0.75	1.50	0.00	0.25	0.00	0.00	0.00	0.25	0.75	0.00	0.00	0.00	-0.036621	0.868164	1.076172	9.800000	66.849998	-13.020000	790.00	-0.35	-0.05
2.65	2.75	2.75	2.00	2.50	0.50	0.00	1.25	0.00	9.25	9.75	5.25	1.00	0.00	14.50	1.50	0.00	-0.722656	0.169922	1.612793	-107.169998	354.899994	-79.730003	606.00	0.17	0.09	25.00	24.25	9.25	11.25	1.00	2.25	0.25	0.75	0.00	0.00	0.00	1.00	1.00	0.00	0.00	0.25	-0.388184	0.303711	1.256836	-4.130000	45.920002	-2.100000	853.00	-0.33	-0.06
2.66	2.00	3.25	2.00	0.50	0.50	0.00	1.25	0.50	9.25	9.50	4.25	0.25	0.00	15.00	2.00	0.00	-1.003418	0.152832	1.952637	-110.459999	368.690002	-90.230003	575.00	0.19	0.10	26.00	24.75	9.50	11.75	1.00	3.00	0.25	1.00	0.00	0.00	0.25	1.00	1.50	0.00	0.00	0.00	-0.191895	0.240234	1.389160	-24.780001	44.730000	1.260000	897.00	-0.33	-0.06
2.67	2.25	1.50	1.50	0.75	0.25	0.00	1.00	0.00	6.50	8.00	3.25	0.25	0.00	10.75	0.25	0.00	-1.276367	0.308105	2.864746	-111.930000	365.679993	-95.129997	414.00	0.18	0.12	26.25	25.25	10.00	12.75	1.00	3.75	0.25	1.50	0.00	0.00	0.50	1.25	2.00	0.00	0.00	0.00	-0.161621	0.134766	1.152344	-24.639999	27.160000	0.140000	951.00	-0.32	-0.07
2.68	2.25	2.00	2.25	1.25	0.25	0.00	0.75	0.00	5.50	7.25	3.00	0.25	0.00	9.25	0.25	0.00	-1.129883	-0.323242	2.579590	-110.879997	347.829987	-102.900002	390.00	0.14	0.10	26.75	25.50	10.00	13.25	1.00	4.25	0.25	2.00	0.00	0.25	0.50	1.25	2.25	0.00	0.00	0.00	-0.165039	0.242676	1.009277	-17.920000	16.170000	-1.610000	985.00	-0.31	-0.08
2.69	1.75	1.75	1.00	1.25	0.00	0.25	0.25	0.00	5.00	6.25	2.75	0.75	0.00	7.75	0.00	0.00	-1.170410	0.963379	3.207031	-147.770004	330.610016	-105.070000	326.00	0.16	0.09	26.50	25.75	10.50	13.75	1.00	4.75	0.25	2.25	0.00	0.25	0.50	1.25	2.50	0.00	0.25	0.00	-0.131348	0.251953	0.971680	-13.650000	13.230000	0.070000	1012.00	-0.31	-0.08
2.70	2.00	2.00	1.25	1.50	0.25	0.25	0.00	0.00	3.00	5.00	2.00	0.00	0.00	5.50	0.25	0.00	-0.796875	0.671387	2.043457	-131.320007	305.059998	-100.660004	258.00	0.09	0.07	27.50	26.50	10.50	14.00	1.00	5.00	0.25	2.25	0.00	0.00	0.50	1.50	2.75	0.25	0.25	0.00	-0.136230	0.205566	0.993164	-12.740000	11.480000	0.910000	1041.00	-0.31	-0.08
2.71	0.00	0.25	0.00	0.00	0.00	0.00	0.00	0.00	2.25	3.75	1.75	0.25	0.00	2.25	0.00	0.00	-0.514648	0.768066	1.984863	-134.190002	273.559998	-110.320000	121.00	0.26	0.10	27.75	26.25	10.75	14.25	1.00	5.25	0.25	2.75	0.00	0.25	0.75	1.50	3.25	0.00	0.25	0.00	-0.115723	0.213379	0.978516	-12.600000	9.030000	0.420000	1067.00	-0.30	-0.08
2.72	1.50	2.25	1.00	2.00	0.00	0.25	0.00	0.00	1.50	2.50	1.25	0.00	0.00	1.00	0.00	0.00	0.127930	0.707031	1.841797	-150.360001	229.880005	-94.080002	152.00	-0.05	0.00	27.50	26.50	11.00	14.50	1.00	5.50	0.25	3.00	0.00	0.50	0.75	1.50	3.25	0.25	0.25	0.00	-0.123047	0.209961	0.977051	-14.140000	9.030000	0.910000	1085.00	-0.29	-0.09
2.73	2.25	2.00	2.00	1.25	0.25	0.25	0.25	0.00	0.50	2.25	0.75	0.00	0.00	0.50	0.50	0.25	0.414062	1.195801	1.711426	-147.070007	195.440002	-81.970001	148.00	-0.10	0.01	28.00	27.00	11.00	15.00	1.00	6.00	0.25	3.25	0.00	0.25	0.75	1.25	3.75	0.25	0.25	0.00	-0.126953	0.193359	1.001465	-12.530000	8.680000	1.120000	1111.00	-0.29	-0.09
2.74	1.75	1.75	1.25	1.50	0.25	0.00	0.25	0.00	0.75	1.75	0.75	0.00	0.00	0.50	0.00	0.00	0.353027	2.578125	0.711426	-123.970001	177.449997	-1.190000	122.00	-0.11	0.01	27.75	26.75	11.00	15.00	1.25	6.25	0.25	3.25	0.00	0.25	1.00	1.75	3.75	0.25	0.50	0.00	-0.131836	0.192871	0.991699	-8.890000	7.490000	1.260000	1123.00	-0.29	-0.09
2.75	0.25	0.25	0.00	0.25	0.00	0.00	0.00	0.00	0.75	1.75	1.00	0.00	0.00	0.25	0.00	0.00	0.901367	1.067871	1.414551	-18.549999	34.299999	127.750000	53.00	0.15	0.05	27.75	26.75	10.75	15.00	1.00	6.50	0.25	3.50	0.00	0.25	0.75	1.75	4.25	0.25	0.25	0.00	-0.136230	0.203613	0.987793	-5.110000	6.510000	1.540000	1123.00	-0.29	-0.09
2.76	0.75	0.00	0.00	0.25	0.00	0.00	0.00	0.00	0.25	1.50	0.75	0.00	0.00	0.25	0.00	0.00	0.674805	0.878418	1.095215	-41.230000	5.530000	160.440002	43.00	0.00	0.00	27.50	26.25	11.00	15.00	1.00	6.50	0.25	3.50	0.00	0.25	0.75	1.75	4.75	0.25	0.50	0.25	-0.126465	0.192871	0.988770	-1.890000	5.740000	1.470000	1127.00	-0.28	-0.10
2.77	1.50	1.50	1.00	1.00	0.00	0.25	0.00	0.00	0.50	1.50	0.50	0.00	0.00	0.00	0.00	0.00	0.776855	0.653809	0.687988	-32.759998	-7.280000	175.699997	89.00	-0.15	-0.01	27.00	26.00	10.75	15.00	1.00	6.50	0.25	3.75	0.00	0.50	1.00	1.75	4.25	0.25	0.25	0.00	-0.124023	0.197266	0.979492	1.050000	4.410000	1.190000	1117.00	-0.28	-0.10
2.78	0.25	0.00	0.50	0.00	0.00	0.00	0.00	0.00	0.00	1.00	0.50	0.00	0.00	0.00	0.00	0.00	0.689941	0.446777	0.803223	-3.640000	-12.740000	172.690002	26.00	0.00	0.00	26.75	25.50	10.50	14.75	1.00	7.00	0.25	3.75	0.00	0.50	0.75	1.75	4.25	0.25	0.25	0.00	-0.116211	0.207031	0.952148	2.030000	4.060000	0.490000	1106.00	-0.28	-0.10
2.79	0.00	0.00	0.00	0.00	0.00	0.00	0.00	0.00	0.25	1.00	0.25	0.00	0.00	0.00	0.00	0.00	0.718750	0.155273	0.957520	20.860001	-22.960001	157.149994	18.00	0.00	0.00	26.00	25.00	10.50	14.50	1.00	7.00	0.25	3.75	0.00	0.50	0.75	1.75	4.25	0.50	0.00	0.25	-0.100586	0.207520	0.928711	0.210000	4.970000	-0.280000	1090.00	-0.28	-0.10
2.80	0.25	0.25	0.00	0.25	0.00	0.00	0.00	0.00	0.00	0.75	0.25	0.00	0.00	0.00	0.00	0.00	0.696289	-0.035156	1.093262	32.759998	-40.599998	131.949997	20.00	0.00	0.00	25.25	24.25	10.00	14.25	1.00	7.00	0.25	4.00	0.00	0.50	1.00	1.75	4.75	0.25	0.25	0.00	-0.106934	0.204102	0.907227	-3.780000	6.790000	-1.330000	1076.00	-0.27	-0.10
2.81	0.25	0.50	0.25	0.00	0.00	0.00	0.00	0.00	0.00	0.50	0.00	0.00	0.00	0.00	0.00	0.00	0.625488	-0.141602	1.170410	36.889999	-64.330002	101.150002	17.00	0.00	0.00	24.75	23.75	10.00	14.00	1.00	7.00	0.25	4.00	0.00	0.50	1.00	1.75	5.25	0.50	0.25	0.00	-0.101074	0.211914	0.892578	-10.780000	9.940000	-2.310000	1069.00	-0.27	-0.11
2.82	0.00	0.25	0.00	0.00	0.00	0.00	0.00	0.00	0.00	0.50	0.25	0.00	0.00	0.00	0.00	0.00	0.552246	-0.181641	1.185547	40.040001	-90.860001	68.879997	11.00	0.00	0.00	24.00	23.25	9.75	14.25	1.00	7.25	0.25	4.25	0.00	0.50	1.00	1.50	5.25	0.50	0.50	0.00	-0.107910	0.215820	0.916016	-19.389999	14.490000	-2.870000	1063.00	-0.27	-0.11
2.83	0.00	0.25	0.00	0.00	0.00	0.00	0.00	0.00	0.00	0.50	0.25	0.00	0.00	0.00	0.00	0.00	0.444824	-0.195312	1.195312	42.070000	-117.389999	37.799999	11.00	0.00	0.00	23.75	22.50	9.50	13.75	1.00	7.25	0.25	4.75	0.00	0.50	1.00	1.75	5.50	0.50	0.25	0.00	-0.118652	0.202637	0.919434	-26.600000	18.620001	-3.360000	1054.00	-0.26	-0.11
2.84	0.00	0.25	0.00	0.00	0.00	0.00	0.00	0.00	0.00	0.50	0.00	0.00	0.00	0.00	0.00	0.00	0.355957	-0.161133	1.186035	42.070000	-143.500000	10.080000	8.00	0.00	0.00	23.00	21.75	9.50	13.75	1.00	7.50	0.50	5.00	0.00	1.00	1.25	1.75	5.75	0.50	0.50	0.00	-0.135742	0.191895	0.959473	-34.650002	22.260000	-3.360000	1063.00	-0.25	-0.11
2.85	0.00	0.00	0.00	0.00	0.00	0.00	0.00	0.00	0.00	0.50	0.00	0.00	0.00	0.00	0.00	0.00	0.265137	-0.081055	1.149902	41.369999	-167.440002	-12.530000	6.00	0.00	0.00	22.50	21.25	9.50	13.25	1.00	7.50	0.25	5.50	0.00	0.75	1.25	2.00	6.25	0.50	0.25	0.25	-0.153809	0.181641	0.990723	-35.209999	22.400000	-3.220000	1054.00	-0.25	-0.12
2.86	0.00	0.50	0.00	0.00	0.00	0.00	0.00	0.00	0.00	0.50	0.00	0.00	0.00	0.00	0.00	0.00	0.173340	0.010742	1.127441	45.430000	-189.979996	-28.420000	11.00	0.00	0.00	21.50	20.25	9.25	13.00	1.25	7.50	0.50	5.50	0.00	0.75	1.50	1.75	6.50	0.50	0.25	0.00	-0.151855	0.173828	0.970215	-32.549999	20.650000	-3.220000	1035.00	-0.24	-0.12
2.87	0.00	0.00	0.25	0.00	0.00	0.00	0.00	0.00	0.00	0.50	0.00	0.00	0.00	0.00	0.00	0.00	0.096680	0.052246	1.059082	52.849998	-208.320007	-38.080002	9.00	0.00	0.00	21.25	19.50	9.00	13.00	1.25	7.50	0.50	5.75	0.00	1.00	1.50	2.25	7.00	0.75	0.25	0.00	-0.146484	0.166992	0.968262	-29.469999	19.110001	-3.010000	1041.00	-0.23	-0.12
2.88	0.00	0.25	0.00	0.00	0.00	0.00	0.00	0.00	0.00	0.00	0.25	0.00	0.00	0.00	0.00	0.00	0.008789	0.083984	1.016602	59.920002	-221.199997	-43.540001	5.00	0.00	0.00	20.75	18.75	9.00	12.50	1.25	7.50	0.50	6.00	0.00	1.00	1.50	2.25	7.25	0.50	0.25	0.00	-0.149414	0.158203	0.985840	-27.299999	16.450001	-2.870000	1026.00	-0.23	-0.13
2.89	0.00	0.50	0.00	0.25	0.00	0.00	0.00	0.00	0.00	0.25	0.25	0.00	0.00	0.00	0.00	0.00	-0.077637	0.102051	1.012695	66.290001	-229.809998	-45.500000	14.00	0.00	0.00	19.75	18.00	8.75	12.25	1.25	7.50	0.50	6.25	0.00	1.00	1.75	2.50	7.75	0.75	0.50	0.00	-0.157715	0.149902	0.989258	-23.030001	13.160000	-2.800000	1021.00	-0.22	-0.13
2.90	0.00	0.25	0.25	0.00	0.00	0.00	0.00	0.00	0.00	0.25	0.00	0.00	0.00	0.00	0.00	0.00	-0.247070	0.131348	1.104980	82.949997	-241.990005	-45.080002	8.00	0.00	0.00	19.75	17.25	8.75	12.00	1.25	7.50	0.50	6.25	0.25	1.25	1.50	2.25	8.00	0.75	0.25	0.00	-0.149414	0.164551	0.964355	-18.900000	10.990000	-2.940000	1010.00	-0.22	-0.13
2.91	0.00	0.00	0.25	0.00	0.00	0.00	0.00	0.00	0.00	0.25	0.00	0.00	0.00	0.00	0.00	0.00	-0.327148	0.128418	1.153320	89.459999	-247.660004	-43.189999	6.00	0.00	0.00	18.75	16.25	8.75	11.75	1.25	7.75	0.50	6.75	0.00	1.25	1.50	2.75	8.50	0.75	0.25	0.00	-0.149414	0.162109	0.961914	-16.309999	9.730000	-2.590000	1004.00	-0.21	-0.14
2.92	0.00	0.25	0.00	0.00	0.00	0.00	0.00	0.00	0.00	0.00	0.00	0.00	0.00	0.00	0.00	0.00	-0.388672	0.151855	1.185547	92.889999	-251.300003	-39.759998	3.00	0.00	0.00	18.25	15.50	8.50	11.25	1.25	7.75	0.50	6.75	0.00	1.25	1.75	2.75	9.00	0.50	0.50	0.00	-0.151855	0.147461	0.964844	-14.140000	9.030000	-2.520000	990.00	-0.20	-0.14
2.93	0.00	0.25	0.00	0.00	0.00	0.00	0.00	0.00	0.00	0.50	0.00	0.00	0.00	0.00	0.00	0.00	-0.439453	0.203125	1.227539	95.690002	-253.259995	-33.459999	8.00	0.00	0.00	17.50	14.75	8.25	11.25	1.25	7.75	0.50	7.00	0.00	1.50	2.00	3.00	9.50	1.00	0.50	0.00	-0.144043	0.147461	0.964355	-11.200000	8.050000	-2.520000	993.00	-0.19	-0.15
2.94	0.25	0.00	0.00	0.00	0.00	0.00	0.00	0.00	0.00	0.25	0.00	0.00	0.00	0.00	0.00	0.00	-0.492676	0.258789	1.286621	98.699997	-254.240005	-22.960001	6.00	0.00	0.00	16.50	13.75	8.25	10.50	1.50	8.00	0.50	7.25	0.00	1.50	2.25	3.25	10.00	0.75	0.50	0.00	-0.152832	0.154297	0.952148	-10.010000	7.910000	-2.520000	981.00	-0.18	-0.15
2.95	0.00	0.00	0.00	0.00	0.00	0.00	0.00	0.00	0.00	0.25	0.00	0.00	0.00	0.00	0.00	0.00	-0.507812	0.323730	1.321777	100.169998	-253.820007	-7.770000	3.00	0.00	0.00	16.00	12.50	8.00	10.25	1.50	7.75	0.50	7.50	0.00	1.50	2.00	3.50	10.25	1.00	0.50	0.00	-0.149414	0.150879	0.953125	-10.010000	8.470000	-2.800000	963.00	-0.17	-0.15
2.96	0.00	0.50	0.00	0.00	0.00	0.00	0.00	0.00	0.00	0.50	0.00	0.00	0.00	0.00	0.00	0.00	-0.538086	0.374512	1.393555	103.180000	-252.210007	11.340000	11.00	0.00	0.00	14.75	11.00	7.75	10.00	1.50	7.75	0.50	7.50	0.00	1.75	2.50	3.75	10.75	1.00	0.50	0.00	-0.145508	0.161133	0.942871	-12.250000	10.010000	-3.920000	944.00	-0.16	-0.16
2.97	0.00	0.25	0.00	0.00	0.00	0.00	0.00	0.00	0.00	0.00	0.00	0.00	0.00	0.00	0.00	0.00	-0.560547	0.392090	1.483398	109.830002	-250.600006	33.599998	3.00	0.00	0.00	14.00	9.75	7.50	9.50	1.75	7.75	0.50	7.75	0.25	2.00	2.50	4.25	11.00	1.00	0.50	0.00	-0.146484	0.150879	0.950684	-13.650000	10.780000	-4.620000	935.00	-0.14	-0.16
2.98	0.00	0.50	0.00	0.00	0.00	0.00	0.00	0.00	0.00	0.00	0.00	0.00	0.00	0.00	0.00	0.00	-0.610352	0.336426	1.595215	118.230003	-249.059998	56.700001	5.00	0.00	0.00	13.00	9.25	7.50	9.25	1.75	7.50	0.75	7.75	0.25	2.00	2.75	4.75	11.50	1.25	0.75	0.00	-0.145508	0.145508	0.948730	-14.840000	11.900000	-5.390000	935.00	-0.13	-0.16
2.99	0.00	0.00	0.00	0.00	0.00	0.00	0.00	0.00	0.00	0.00	0.00	0.00	0.00	0.00	0.00	0.00	-0.647949	0.245117	1.676270	121.870003	-246.399994	78.190002	0.00	0.00	0.00	11.50	8.00	7.00	8.75	1.75	7.50	0.75	7.75	0.25	2.00	2.75	5.75	12.00	1.50	0.75	0.25	-0.157227	0.147461	0.949707	-15.820000	13.020000	-6.230000	914.00	-0.11	-0.17
3.00	0.00	0.00	0.00	0.00	0.00	0.00	0.00	0.00	0.00	0.00	0.00	0.00	0.00	0.00	0.00	0.25	-0.701172	0.172852	1.747070	118.790001	-243.110001	98.559998	1.00	0.00	0.00	10.25	7.25	7.00	8.25	1.75	7.50	0.75	8.00	0.50	2.25	3.25	6.50	12.50	1.25	0.75	0.25	-0.172363	0.144043	0.974609	-14.210000	13.160000	-7.280000	914.00	-0.09	-0.18
3.01	0.25	0.00	0.00	0.00	0.00	0.00	0.00	0.00	0.00	0.00	0.00	0.00	0.00	0.00	0.00	0.00	-0.764160	0.096680	1.788574	111.020004	-239.470001	117.809998	3.00	0.00	0.00	9.50	6.50	6.75	7.75	2.00	7.25	1.00	8.00	0.50	2.50	3.50	7.50	12.75	1.50	1.00	0.50	-0.157227	0.158203	0.971680	-13.020000	11.760000	-9.450000	919.00	-0.07	-0.18
3.02	0.00	0.00	0.00	0.00	0.00	0.00	0.00	0.00	0.00	0.25	0.00	0.00	0.00	0.00	0.00	0.00	-0.831543	0.043945	1.812988	102.059998	-234.570007	135.029999	3.00	0.00	0.00	8.50	6.00	6.25	7.00	2.00	7.00	1.00	8.00	0.75	2.75	4.00	8.00	13.25	1.75	0.75	0.50	-0.140625	0.157715	0.957031	-13.440001	11.480000	-11.550000	907.00	-0.06	-0.18
3.03	0.00	0.00	0.00	0.00	0.00	0.00	0.00	0.00	0.00	0.00	0.00	0.00	0.00	0.00	0.00	0.00	-0.905762	0.001465	1.831055	92.820000	-228.619995	149.589996	0.00	0.00	0.00	8.00	5.50	6.00	6.75	2.00	6.75	1.25	8.00	0.75	3.00	4.25	8.50	13.50	2.00	0.75	1.00	-0.178711	0.138672	0.952148	-12.460000	11.340000	-12.740000	910.00	-0.04	-0.18
3.04	0.00	0.00	0.00	0.00	0.00	0.00	0.00	0.00	0.00	0.00	0.00	0.00	0.00	0.00	0.00	0.00	-1.046387	-0.024902	1.866211	83.650002	-220.990005	160.930008	0.00	0.00	0.00	7.25	5.00	5.75	6.00	2.00	6.75	1.25	8.00	1.25	3.25	6.25	9.00	14.00	2.50	1.25	1.25	-0.175781	0.131348	0.949707	-10.710000	12.250000	-12.880000	940.00	-0.02	-0.18
3.05	0.00	0.25	0.00	0.00	0.00	0.00	0.00	0.00	0.00	0.25	0.00	0.00	0.00	0.00	0.00	0.00	-1.149902	-0.115234	1.938965	73.220001	-209.369995	170.169998	5.00	0.00	0.00	6.50	4.25	5.25	5.50	2.00	6.50	1.25	8.00	1.75	3.75	7.50	9.50	14.50	2.75	1.25	1.75	-0.173828	0.119629	0.973145	-8.540000	14.560000	-12.040000	952.00	0.00	-0.18
3.06	0.00	0.00	0.00	0.00	0.00	0.00	0.00	0.00	0.00	0.25	0.00	0.00	0.00	0.00	0.00	0.00	-1.301270	-0.133301	1.924805	77.489998	-205.520004	165.550003	3.00	0.00	0.00	6.25	3.25	4.75	4.50	2.00	6.00	1.25	8.00	2.00	4.25	8.25	10.00	15.00	3.50	1.25	2.50	-0.179199	0.127930	0.973145	-6.370000	18.690001	-11.270000	954.00	0.03	-0.18
3.07	0.00	0.00	0.00	0.00	0.00	0.00	0.00	0.00	0.00	0.50	0.00	0.00	0.00	0.00	0.00	0.00	-1.512695	-0.119629	1.904785	86.519997	-200.059998	155.190002	6.00	0.00	0.00	5.50	2.50	4.00	3.50	1.75	5.50	1.50	8.00	2.75	5.50	8.75	10.75	15.25	3.50	1.75	3.25	-0.186523	0.166504	0.993652	-1.680000	30.240000	-12.670000	964.00	0.06	-0.17
3.08	0.25	0.00	0.50	0.50	0.00	0.00	0.00	0.00	0.00	0.25	0.00	0.00	0.00	0.00	0.00	0.00	-1.812500	-0.126953	2.000000	93.800003	-195.089996	142.100006	18.00	0.00	0.00	4.75	2.00	3.00	2.75	1.50	4.75	1.50	8.00	3.50	6.75	9.75	11.25	15.75	4.25	2.00	4.25	-0.175293	0.195801	0.987305	2.520000	37.099998	-17.360001	980.00	0.09	-0.17
3.09	0.00	0.00	0.00	0.00	0.00	0.00	0.00	0.00	0.00	0.00	0.00	0.00	0.00	0.00	0.00	0.00	-2.162598	-0.133301	2.015137	93.239998	-197.820007	129.779999	0.00	0.00	0.00	3.50	1.50	2.25	2.25	1.25	3.50	1.25	7.75	4.00	7.75	10.25	11.75	16.00	5.00	2.25	5.00	-0.157715	0.109375	0.995605	5.880000	47.110001	-24.639999	966.00	0.11	-0.17
3.10	0.00	0.00	0.00	0.00	0.00	0.00	0.00	0.00	0.00	0.25	0.00	0.00	0.00	0.00	0.00	0.00	-2.582031	-0.140625	1.778809	84.209999	-208.320007	120.400002	3.00	0.00	0.00	2.75	1.50	1.50	2.00	1.25	2.50	1.00	7.75	5.00	8.25	11.00	12.25	16.25	6.00	3.00	5.50	-0.203613	0.074707	1.012695	0.840000	67.059998	-20.650000	987.00	0.14	-0.16
3.11	0.00	0.50	0.00	0.00	0.00	0.00	0.00	0.00	0.00	0.00	0.00	0.00	0.00	0.00	0.00	0.00	-3.009277	-0.279297	1.176270	70.209999	-219.169998	115.570000	5.00	0.00	0.00	2.25	1.25	1.25	1.50	0.75	2.00	0.75	7.25	5.75	8.75	11.50	12.50	16.25	7.00	3.50	6.00	-0.203125	0.145020	1.020020	2.240000	85.959999	-19.600000	989.00	0.16	-0.16
3.12	0.00	0.00	0.00	0.00	0.00	0.00	0.00	0.00	0.25	0.25	0.00	0.00	0.00	0.00	0.25	0.00	-3.901367	-0.444336	0.480957	69.510002	-223.440002	114.099998	9.00	0.00	0.00	2.25	1.00	0.75	1.25	0.50	1.50	0.50	6.75	6.50	9.25	12.00	13.00	16.25	8.00	4.25	7.00	-0.242676	0.136230	1.008301	5.460000	102.690002	-19.250000	1007.00	0.18	-0.15
3.13	0.00	0.00	0.00	0.00	0.00	0.00	0.00	0.00	0.00	0.25	0.00	0.00	0.00	0.00	0.00	0.00	-5.313965	-0.593750	-0.395508	81.059998	-222.460007	104.720001	3.00	0.00	0.00	1.50	0.75	0.75	1.50	0.25	0.75	0.25	6.00	7.00	9.75	12.50	13.00	16.00	9.25	5.00	7.50	-0.248535	0.106934	1.016602	12.460000	119.209999	-18.270000	1010.00	0.19	-0.14
3.14	0.00	0.00	0.00	0.25	0.00	0.00	0.00	0.00	0.25	0.25	0.25	0.00	0.00	0.00	0.00	0.00	-5.625488	-0.915527	-1.514648	85.959999	-184.380005	76.790001	12.00	0.00	0.00	1.75	0.50	0.75	1.00	0.25	0.50	0.00	5.25	7.50	10.50	12.75	13.25	16.00	10.25	5.75	8.00	-0.319336	0.138672	1.074219	26.600000	142.520004	-16.030001	1027.00	0.21	-0.13
3.15	1.00	0.75	0.75	1.00	0.00	0.25	0.00	0.25	0.00	0.25	0.00	0.00	0.00	0.25	0.00	0.00	-4.784668	-1.249023	-2.047852	74.269997	-90.090004	39.410000	52.00	-0.24	-0.07	2.00	0.50	0.50	0.75	0.25	0.50	0.00	4.25	7.75	10.75	13.25	13.25	15.50	11.75	6.50	8.25	-0.312500	0.118652	1.103027	41.230000	169.680008	-17.150000	1039.00	0.22	-0.12
3.16	1.25	1.25	1.00	1.00	0.25	0.50	0.00	0.00	0.00	0.00	0.00	0.00	0.00	0.00	0.00	0.00	-3.692383	-1.333496	-1.732910	37.799999	36.400002	-8.680000	60.00	-0.32	-0.06	1.00	0.50	0.00	0.25	0.00	0.00	0.00	3.25	8.00	11.00	13.25	13.25	15.25	13.25	7.00	8.50	-0.348145	0.156738	1.025879	41.720001	199.149994	-18.900000	1015.00	0.24	-0.11
3.17	1.50	1.00	1.50	0.75	0.25	0.00	0.00	0.00	0.00	0.00	0.00	0.00	0.00	0.00	0.00	0.00	-2.288574	-0.742676	-0.459961	-14.350000	143.009995	-63.910000	57.00	-0.33	-0.00	1.00	0.25	0.00	0.25	0.00	0.00	0.00	2.50	8.25	11.25	13.50	13.25	14.75	14.75	7.50	8.75	-0.369629	0.175781	1.045898	30.799999	224.350006	-21.210001	1026.00	0.25	-0.10
3.18	3.00	4.25	1.50	2.00	0.00	0.00	0.00	0.00	0.00	0.00	0.00	0.00	0.00	0.00	0.00	0.00	1.002441	0.264160	3.850586	-42.840000	303.799988	-93.800003	119.00	-0.36	-0.06	0.50	0.25	0.00	0.00	0.00	0.00	0.00	2.00	8.00	11.50	13.50	13.00	14.00	15.75	8.00	8.50	-0.397461	0.202637	1.134277	26.950001	245.559998	-26.180000	1012.00	0.26	-0.09
3.19	3.25	5.00	0.50	1.25	0.00	0.00	0.00	0.00	0.00	0.00	0.00	0.00	0.00	0.00	0.00	0.00	-0.010254	0.344727	1.490723	-105.489998	46.060001	-80.430000	108.00	-0.39	-0.07	0.50	0.00	0.00	0.00	0.00	0.00	0.00	1.50	8.00	11.50	13.25	12.50	13.25	16.50	8.25	8.75	-0.482910	0.224609	1.157715	12.810000	280.000000	-37.939999	996.00	0.27	-0.08
3.20	5.00	5.75	0.75	1.25	0.00	0.00	0.00	0.00	0.00	0.00	0.00	0.00	0.00	0.00	0.00	0.00	-0.217773	-0.021973	0.840332	-107.730003	59.500000	-73.220001	139.00	-0.39	-0.04	0.00	0.00	0.00	0.00	0.00	0.00	0.00	1.50	7.75	11.50	13.00	12.25	12.25	17.00	8.25	8.50	-0.517090	0.213867	1.190918	4.620000	299.250000	-44.240002	975.00	0.27	-0.08
3.21	7.25	8.50	1.50	3.00	0.00	0.00	0.00	0.00	0.00	0.00	0.00	0.00	0.25	0.25	0.00	0.25	-0.728027	-0.516113	0.445312	-136.850006	143.080002	-95.550003	228.00	-0.36	-0.06	0.00	0.00	0.00	0.00	0.00	0.00	0.00	1.00	7.75	11.50	12.75	11.75	11.50	17.25	8.25	8.25	-0.578613	0.257812	1.313477	-0.280000	319.339996	-50.889999	952.00	0.27	-0.07
3.22	8.75	10.25	2.75	5.00	0.00	0.00	0.00	0.00	0.00	0.00	0.00	0.00	0.00	0.00	0.00	0.00	-0.660645	0.585449	2.717285	-142.589996	234.149994	-115.080002	296.00	-0.37	-0.06	0.00	0.00	0.00	0.00	0.00	0.00	0.00	1.00	7.50	11.25	12.50	11.25	10.50	17.00	8.25	8.00	-0.601562	0.277344	1.112793	-4.270000	344.750000	-59.500000	924.00	0.28	-0.07
3.23	11.25	12.25	3.25	5.25	0.00	0.00	0.00	0.00	0.00	0.00	0.00	0.00	0.00	0.00	0.00	0.00	-0.385254	0.705078	2.501465	-122.010002	216.020004	-85.540001	353.00	-0.37	-0.05	0.25	0.00	0.00	0.00	0.00	0.00	0.00	0.75	7.00	11.00	12.00	10.50	9.75	16.75	8.00	7.50	-0.701660	0.280762	1.187500	-7.210000	369.250000	-68.809998	883.00	0.28	-0.06
3.24	13.00	12.75	5.00	7.50	0.00	0.00	0.00	0.00	0.00	0.00	0.00	0.00	0.00	0.00	0.50	0.00	-0.438965	0.478516	1.203125	-94.150002	179.899994	-47.320000	432.00	-0.35	-0.05	0.00	0.00	0.00	0.00	0.00	0.00	0.00	0.50	6.00	10.50	11.25	9.50	8.75	16.00	7.50	6.50	-0.889648	0.271973	1.371582	-14.700000	384.790009	-77.419998	807.00	0.28	-0.06
3.25	14.00	13.25	6.25	8.00	0.25	0.75	0.00	0.00	0.00	0.00	0.00	0.00	0.25	0.00	0.00	0.00	-0.423340	0.314453	0.905273	-61.810001	187.949997	-22.330000	478.00	-0.35	-0.05	0.00	0.00	0.00	0.00	0.00	0.00	0.00	0.50	5.00	9.50	10.25	8.75	8.00	15.00	6.75	5.25	-1.166016	0.408691	1.573242	-15.610000	402.220001	-83.510002	729.00	0.28	-0.06
3.26	14.75	14.00	8.00	8.75	0.25	1.00	0.00	0.50	0.00	0.00	0.00	0.00	0.00	0.00	0.00	0.00	-0.297852	0.031250	1.364746	-29.820000	199.500000	-7.770000	534.00	-0.35	-0.05	0.00	0.00	0.00	0.00	0.00	0.00	0.00	0.50	3.25	8.50	9.25	8.00	6.75	13.00	6.00	3.25	-1.746094	0.306641	2.618164	3.850000	405.299988	-81.550003	622.00	0.28	-0.07
3.27	15.00	14.25	7.75	9.00	0.25	1.50	0.25	0.50	0.00	0.00	0.00	0.00	0.25	0.00	0.50	0.00	-0.275391	0.021973	0.919434	-76.090004	154.419998	-4.410000	557.00	-0.33	-0.05	0.00	0.00	0.00	0.00	0.00	0.00	0.00	0.00	2.25	7.50	8.25	7.00	6.00	11.25	4.50	1.00	-1.644043	0.254883	1.979004	5.530000	420.350006	-84.980003	511.00	0.28	-0.07
3.28	15.50	14.25	8.25	9.50	0.25	2.50	0.25	1.00	0.00	0.00	0.00	0.00	0.75	0.50	0.25	0.00	-0.458008	0.352051	1.204102	-63.980000	120.470001	-5.880000	602.00	-0.32	-0.06	0.00	0.00	0.00	0.00	0.00	0.00	0.00	0.00	1.00	6.50	7.25	5.75	4.50	9.25	3.50	0.50	-1.489258	0.338867	2.996094	38.080002	426.929993	-74.620003	409.00	0.28	-0.07
3.29	15.50	14.25	9.00	9.75	1.00	5.00	0.25	2.75	1.50	0.25	1.00	1.25	3.00	0.75	0.00	0.25	-0.210938	0.231934	1.458984	-57.750000	107.169998	-2.030000	754.00	-0.24	-0.09	0.00	0.00	0.00	0.00	0.00	0.00	0.00	0.00	0.75	5.25	5.50	5.00	3.50	7.25	2.00	0.00	-1.383789	0.267578	2.740234	42.279999	430.149994	-85.260002	314.00	0.27	-0.07
3.30	16.50	14.50	8.75	9.75	0.75	4.00	0.25	2.25	0.00	0.00	0.50	1.00	2.25	1.00	0.00	0.00	-0.378418	0.150391	1.470703	-66.500000	82.110001	-1.610000	702.00	-0.28	-0.08	0.00	0.00	0.00	0.00	0.00	0.00	0.00	0.00	0.25	4.50	4.25	4.00	2.50	5.75	1.25	0.00	-1.191406	0.398438	2.370117	43.820000	435.330017	-86.519997	241.00	0.27	-0.07
3.31	16.25	14.75	8.75	10.00	0.75	4.75	0.25	3.00	0.00	0.00	0.50	1.00	2.50	1.25	0.50	0.25	-0.251953	0.151855	1.024414	-63.560001	68.180000	-2.170000	738.00	-0.26	-0.09	0.00	0.00	0.00	0.00	0.00	0.00	0.00	0.00	0.00	3.25	3.25	3.25	2.25	4.00	1.00	0.00	-0.757812	0.351074	2.865723	40.740002	422.940002	-93.379997	181.00	0.27	-0.09
3.32	16.00	14.75	9.50	11.00	1.00	5.50	0.50	4.00	0.25	0.25	0.75	1.25	3.25	1.50	0.50	0.25	-0.211426	0.193848	1.002441	-70.910004	60.900002	-3.010000	811.00	-0.24	-0.10	0.00	0.00	0.00	0.00	0.50	0.00	0.00	0.50	0.00	2.25	2.00	3.00	3.25	3.00	0.75	0.00	0.161621	0.685547	1.674316	62.720001	356.860016	-89.879997	165.00	0.23	-0.15
3.33	20.25	16.75	10.25	11.25	1.25	5.75	0.25	4.50	0.50	0.25	1.00	1.25	4.00	1.75	0.50	0.00	-0.247559	0.121582	1.072754	-65.449997	34.860001	-3.290000	916.00	-0.24	-0.09	0.00	0.75	0.50	0.00	0.00	0.00	0.00	0.00	0.00	2.50	1.50	3.00	2.25	2.00	2.00	0.25	0.878906	0.518066	2.507324	68.180000	300.790009	-92.400002	158.00	0.22	-0.13
3.34	20.50	17.00	10.25	11.25	1.50	5.50	0.50	4.50	0.50	0.75	1.00	1.00	4.25	1.75	0.50	0.25	-0.220703	0.128418	1.021973	-53.689999	23.309999	-3.710000	932.00	-0.24	-0.09	1.50	1.00	0.75	0.00	0.50	1.00	0.25	0.75	0.00	2.00	1.50	1.25	0.00	0.25	0.75	0.00	0.358398	-0.922363	2.894531	76.510002	245.139999	-109.059998	136.00	0.01	-0.08
3.35	20.25	17.25	10.50	11.50	1.75	5.75	0.50	4.75	0.50	0.75	1.25	1.25	4.25	2.00	0.50	0.00	-0.209473	0.132812	0.982422	-43.119999	17.080000	-3.570000	954.00	-0.24	-0.09	2.00	0.75	1.25	0.75	0.75	0.75	0.25	0.75	1.25	2.25	2.00	2.25	1.75	1.25	1.75	1.25	-0.092285	1.472656	3.805176	32.619999	217.699997	-104.510002	237.00	0.08	-0.08
3.36	20.00	16.75	10.50	11.25	1.75	5.75	0.50	4.50	0.75	1.25	1.25	1.50	4.00	2.25	0.50	0.00	-0.209473	0.132324	0.970703	-35.980000	14.140000	-3.360000	951.00	-0.23	-0.09	1.50	1.00	1.25	0.75	0.50	1.00	0.25	0.75	1.50	2.00	1.75	2.25	1.75	1.25	1.75	1.00	1.530762	0.381348	3.347168	-59.990002	45.150002	-50.470001	230.00	0.08	-0.08
3.37	20.00	16.75	10.50	11.25	1.75	6.00	0.50	4.50	0.50	1.25	1.50	1.25	4.50	1.75	0.50	0.25	-0.209473	0.121582	0.965820	-30.030001	12.880000	-3.220000	952.00	-0.23	-0.09	1.75	1.00	1.00	0.75	0.75	1.00	0.25	0.75	1.25	2.00	1.75	1.75	1.25	1.25	1.75	1.00	1.274902	0.438965	2.607422	-117.669998	-107.730003	-0.280000	219.00	0.07	-0.07
3.38	19.75	16.25	10.50	11.50	1.50	5.75	0.50	4.75	0.75	1.25	1.25	1.50	4.75	2.00	0.50	0.25	-0.202148	0.118164	0.961914	-25.900000	12.740000	-3.430000	954.00	-0.22	-0.09	2.00	1.00	1.25	1.00	0.50	1.00	0.50	0.75	1.50	1.75	1.75	2.00	1.25	1.25	1.50	1.25	0.671875	0.484863	1.731445	-177.869995	-188.160004	27.090000	231.00	0.06	-0.07
3.39	19.25	16.25	10.50	11.00	1.75	5.75	0.75	4.50	1.00	1.25	1.75	1.25	5.00	2.00	0.75	0.00	-0.197266	0.118652	0.950195	-22.260000	13.300000	-3.150000	955.00	-0.22	-0.09	1.75	1.00	1.25	1.00	0.50	1.00	0.25	0.75	1.25	1.75	1.75	1.75	1.25	1.25	1.75	1.25	0.602539	0.503418	1.303223	-186.410004	-222.460007	42.209999	221.00	0.06	-0.08
3.40	19.00	15.75	10.25	11.00	2.00	5.75	0.75	4.50	1.00	1.75	2.00	1.25	4.75	2.25	0.50	0.25	-0.205078	0.108887	0.958984	-19.040001	13.930000	-2.870000	955.00	-0.21	-0.09	1.50	1.00	0.50	0.75	0.50	0.50	0.25	0.50	0.75	1.50	1.25	1.50	0.50	0.75	0.25	0.00	0.657715	0.536133	0.856445	-162.820007	-233.869995	43.820000	140.00	0.01	-0.06
3.41	18.25	15.50	10.00	10.75	2.00	5.75	0.75	4.75	0.75	1.50	2.00	1.50	5.00	2.25	0.50	0.25	-0.211426	0.110840	0.962402	-15.890000	14.140000	-2.450000	941.00	-0.21	-0.10	0.00	0.00	0.00	0.00	0.00	0.00	0.00	0.00	0.00	0.25	0.00	0.00	0.00	0.00	0.00	0.00	0.557129	0.520020	0.719238	-126.770004	-236.949997	34.720001	3.00	0.00	0.00
3.42	17.75	15.25	10.00	10.75	2.25	5.50	0.75	4.50	1.00	1.50	2.00	1.50	5.00	2.00	0.75	0.25	-0.212402	0.108398	0.953125	-13.370000	13.790000	-2.100000	932.00	-0.21	-0.09	0.00	0.00	0.00	0.00	0.00	0.00	0.00	0.00	0.00	0.00	0.00	0.25	0.00	0.00	0.00	0.00	0.398438	0.489746	0.808105	-84.559998	-241.779999	22.049999	3.00	0.00	0.00
3.43	17.25	14.75	9.75	10.50	2.00	5.50	0.75	4.50	1.00	2.25	2.00	1.75	5.25	2.25	0.50	0.25	-0.207520	0.107910	0.950195	-11.830000	13.720000	-1.960000	926.00	-0.20	-0.09	0.00	0.00	0.00	0.00	0.00	0.00	0.25	0.00	0.00	0.00	0.00	0.00	0.00	0.00	0.00	0.00	0.298340	0.369629	0.961914	-52.360001	-251.300003	11.970000	4.00	0.00	0.00
3.44	16.75	13.75	9.75	10.25	2.00	5.25	1.00	4.50	1.25	2.00	2.25	1.75	5.25	2.00	0.50	0.25	-0.210449	0.109375	0.958984	-10.640000	13.510000	-2.030000	909.00	-0.19	-0.09	0.00	0.00	0.00	0.00	0.00	0.00	0.00	0.00	0.00	0.00	0.00	0.00	0.00	0.00	0.00	0.00	0.092285	0.274902	1.246582	-48.650002	-290.360016	-1.050000	0.00	0.00	0.00
3.45	16.00	13.75	9.50	10.00	2.00	5.25	1.00	4.75	1.25	2.25	2.25	1.75	5.25	2.25	0.50	0.00	-0.218262	0.112305	0.954590	-9.870000	13.370000	-2.170000	903.00	-0.19	-0.09	0.00	0.00	0.00	0.00	0.00	0.00	0.00	0.00	0.00	0.00	0.00	0.00	0.00	0.00	0.00	0.00	-0.033691	0.334961	1.300781	-57.260002	-314.860016	-6.790000	0.00	0.00	0.00
3.46	15.75	13.25	9.25	10.00	2.25	5.00	1.00	4.75	1.50	2.25	2.50	2.00	5.25	2.25	0.50	0.25	-0.217773	0.107910	0.952148	-9.310000	12.880000	-2.520000	903.00	-0.18	-0.09	0.00	0.00	0.00	0.00	0.00	0.00	0.00	0.00	0.00	0.00	0.00	0.00	0.00	0.00	0.00	0.00	-0.159668	0.395996	1.294434	-56.630001	-338.100006	-12.460000	0.00	0.00	0.00
3.47	15.25	12.75	9.25	10.00	2.25	5.00	1.00	4.75	1.75	2.75	2.50	2.00	5.75	2.00	0.75	0.25	-0.217773	0.105469	0.941406	-8.750000	11.970000	-2.590000	907.00	-0.17	-0.09	0.00	0.00	0.00	0.00	0.00	0.00	0.00	0.00	0.00	0.00	0.00	0.00	0.00	0.00	0.00	0.00	-0.262695	0.438477	1.226562	-45.920002	-357.769989	-19.670000	0.00	0.00	0.00
3.48	14.50	12.50	9.00	9.75	2.25	5.25	1.25	5.00	1.75	2.75	3.00	2.00	5.75	2.50	0.50	0.50	-0.216309	0.104492	0.948242	-8.330000	10.920000	-2.660000	910.00	-0.16	-0.10	0.00	0.00	0.00	0.00	0.00	0.00	0.00	0.00	0.00	0.00	0.00	0.00	0.00	0.00	0.00	0.00	-0.394531	0.458008	1.145996	-27.930000	-372.399994	-27.650000	0.00	0.00	0.00
3.49	14.25	12.25	9.00	9.50	2.25	5.00	1.25	5.00	2.00	3.00	3.00	2.50	6.25	2.25	0.50	0.50	-0.217285	0.103027	0.943848	-7.560000	9.310000	-2.520000	913.00	-0.15	-0.10	0.00	0.00	0.00	0.00	0.00	0.00	0.00	0.00	0.00	0.00	0.00	0.00	0.00	0.00	0.00	0.00	-0.520508	0.453613	1.097168	-6.860000	-380.239990	-34.860001	0.00	0.00	0.00
3.50	13.75	11.75	9.00	9.25	2.25	5.00	1.50	4.75	2.50	3.00	3.25	2.50	6.25	2.25	0.50	0.50	-0.215332	0.095703	0.945801	-7.140000	9.100000	-2.660000	909.00	-0.14	-0.09	0.00	0.00	0.00	0.00	0.00	0.00	0.00	0.00	0.00	0.00	0.00	0.00	0.00	0.00	0.00	0.00	-0.620117	0.436035	1.067871	12.600000	-382.200012	-39.200001	0.00	0.00	0.00
3.51	13.00	11.50	8.50	9.25	2.25	5.00	1.75	5.25	2.75	3.25	3.50	2.75	6.75	2.50	0.75	0.50	-0.228027	0.099609	0.955566	-6.370000	8.960000	-2.520000	927.00	-0.13	-0.10	0.00	0.00	0.00	0.00	0.00	0.00	0.00	0.00	0.00	0.00	0.00	0.00	0.00	0.00	0.00	0.00	-0.678711	0.436035	1.037598	26.250000	-380.450012	-38.920002	0.00	0.00	0.00
3.52	12.75	11.00	8.50	9.00	2.50	5.00	2.00	5.25	3.00	3.50	3.50	3.00	7.50	2.75	0.75	0.50	-0.232422	0.095703	0.942383	-5.390000	9.240000	-2.100000	942.00	-0.12	-0.09	0.00	0.00	0.00	0.00	0.00	0.00	0.00	0.00	0.00	0.00	0.00	0.00	0.00	0.00	0.00	0.00	-0.797852	0.467285	1.088379	35.700001	-374.850006	-35.070000	0.00	0.00	0.00
3.53	11.75	10.50	8.25	8.75	2.50	5.00	2.00	5.50	3.25	4.00	3.75	3.50	7.75	3.00	0.75	0.50	-0.219238	0.099609	0.944336	-4.620000	9.940000	-1.960000	946.00	-0.10	-0.10	0.00	0.00	0.00	0.00	0.00	0.00	0.00	0.00	0.00	0.00	0.00	0.00	0.00	0.00	0.00	0.00	-0.877930	0.495605	1.153809	42.560001	-366.869995	-28.280001	0.00	0.00	0.00
3.54	11.25	9.75	8.00	8.50	2.50	5.00	2.25	5.75	3.50	4.00	4.00	4.00	8.25	2.75	0.50	0.75	-0.214844	0.094238	0.951172	-4.270000	11.270000	-2.170000	948.00	-0.09	-0.10	0.00	0.00	0.00	0.00	0.00	0.00	0.00	0.00	0.00	0.00	0.00	0.00	0.00	0.00	0.00	0.00	-0.942383	0.540527	1.246582	46.830002	-357.980011	-18.270000	0.00	0.00	0.00
3.55	10.25	9.25	8.00	8.50	2.50	4.50	2.50	6.00	4.00	4.50	5.00	4.25	9.00	3.50	0.75	1.00	-0.227539	0.099121	0.944336	-3.710000	12.460000	-2.660000	980.00	-0.07	-0.10	0.00	0.00	0.00	0.00	0.00	0.00	0.00	0.00	0.00	0.00	0.00	0.00	0.00	0.00	0.00	0.00	-0.955566	0.608398	1.347168	48.930000	-349.579987	-4.200000	0.00	0.00	0.00
3.56	9.25	8.50	7.75	8.25	2.50	4.50	2.75	6.25	5.00	4.75	5.75	5.50	9.50	4.00	1.00	1.00	-0.223145	0.105469	0.953125	-3.220000	14.350000	-3.570000	1016.00	-0.04	-0.10	0.00	0.00	0.00	0.00	0.00	0.00	0.00	0.00	0.00	0.00	0.00	0.00	0.00	0.00	0.00	0.00	-1.002930	0.738281	1.622070	64.120003	-338.239990	28.910000	0.00	0.00	0.00
3.57	8.25	8.25	7.25	7.75	2.50	4.25	3.25	6.25	5.25	5.75	6.50	6.50	9.75	4.75	0.75	1.00	-0.215820	0.089844	0.955566	-2.870000	16.520000	-3.850000	1036.00	-0.02	-0.10	0.00	0.00	0.00	0.00	0.00	0.00	0.00	0.00	0.00	0.00	0.00	0.00	0.00	0.00	0.00	0.00	-1.020508	0.748535	1.771484	80.360001	-335.440002	46.480000	0.00	0.00	0.00
3.58	7.75	7.75	7.00	7.50	2.50	3.75	3.25	6.50	5.75	6.75	7.50	7.50	10.25	5.00	1.25	1.50	-0.230957	0.095215	0.959961	-1.890000	19.460001	-3.990000	1075.00	-0.00	-0.10	0.00	0.00	0.00	0.00	0.00	0.00	0.00	0.00	0.00	0.00	0.00	0.00	0.00	0.00	0.00	0.00	-1.058105	0.724609	1.896973	96.809998	-332.920013	64.959999	0.00	0.00	0.00
3.59	7.25	7.25	6.75	7.25	2.25	3.25	3.50	6.75	6.25	7.50	7.75	7.50	10.75	5.25	1.00	1.50	-0.236328	0.094238	0.964844	-0.630000	23.100000	-4.060000	1080.00	0.01	-0.09	0.00	0.00	0.00	0.00	0.00	0.00	0.00	0.00	0.00	0.00	0.00	0.00	0.00	0.00	0.00	0.00	-1.120117	0.657715	2.033203	111.580002	-328.929993	83.440002	0.00	0.00	0.00
3.60	6.50	6.50	6.00	6.25	2.00	3.25	3.75	6.75	7.00	7.75	8.25	8.25	11.50	6.25	1.50	1.75	-0.230469	0.094238	0.963379	0.490000	26.950001	-3.290000	1096.00	0.03	-0.09	0.00	0.00	0.00	0.00	0.00	0.00	0.00	0.00	0.00	0.00	0.00	0.00	0.00	0.00	0.00	0.00	-1.210938	0.606934	2.200684	127.120003	-322.980011	99.750000	0.00	0.00	0.00
3.61	5.75	6.25	5.50	5.75	2.00	2.50	4.00	7.25	7.50	8.50	8.75	8.50	11.75	6.75	1.75	2.25	-0.243164	0.087891	0.969727	1.890000	31.010000	-2.450000	1113.00	0.05	-0.09	0.75	0.50	0.75	0.50	0.50	0.50	0.25	0.50	0.75	0.75	0.50	0.75	1.00	0.75	1.25	0.75	-1.348633	0.505859	2.402832	143.990005	-318.779999	112.419998	122.00	0.07	-0.08
3.62	5.50	5.75	4.75	5.75	1.50	1.75	4.00	7.00	8.00	8.75	9.25	9.00	12.00	7.75	2.25	2.50	-0.247559	0.115723	0.967285	3.850000	34.650002	-2.660000	1118.00	0.07	-0.09	1.25	0.50	0.75	1.00	0.75	0.75	0.25	0.50	0.75	0.75	0.50	1.00	1.00	1.00	1.25	0.75	-1.551270	0.381836	2.566895	160.720001	-319.690002	121.309998	145.00	0.04	-0.08
3.63	4.50	4.75	4.00	4.25	1.50	2.25	4.00	7.00	8.50	9.25	9.75	9.50	12.25	8.25	2.00	3.50	-0.281250	0.130859	0.956055	6.370000	38.150002	-4.480000	1109.00	0.09	-0.09	1.25	0.75	1.00	1.00	0.75	0.75	0.25	0.50	1.00	0.75	0.25	1.00	1.00	1.00	1.25	0.75	-1.836914	0.279297	2.624023	171.779999	-325.360016	127.820000	151.00	0.03	-0.07
3.64	4.00	4.50	3.25	3.75	1.00	1.25	3.75	6.75	8.75	9.75	10.25	10.00	12.75	9.00	2.75	3.75	-0.267090	0.133301	1.002441	8.540000	56.840000	-7.490000	1102.00	0.11	-0.09	1.50	0.75	1.00	0.75	0.50	0.75	0.25	0.50	1.00	0.75	0.50	1.00	1.00	1.00	1.25	0.75	-2.187988	0.166504	2.544434	171.990005	-330.399994	133.350006	151.00	0.03	-0.06
3.65	3.50	5.00	3.50	3.75	1.00	1.00	3.50	6.50	9.00	10.00	10.75	10.50	13.00	10.00	2.75	4.00	-0.280762	0.104004	0.972656	10.640000	72.519997	-7.560000	1125.00	0.12	-0.09	1.25	0.75	0.75	0.75	0.50	0.75	0.25	0.50	1.00	0.50	0.50	0.75	1.00	1.00	1.00	0.50	-2.576660	0.074219	2.323242	159.110001	-332.010010	138.180008	135.00	0.03	-0.06
3.66	2.75	3.25	2.75	3.00	0.75	0.50	3.25	6.25	9.00	10.50	11.25	10.75	12.75	11.25	3.50	4.50	-0.296387	0.109375	0.974609	15.820000	84.699997	-7.280000	1098.00	0.15	-0.08	1.25	0.50	0.50	0.75	0.75	0.75	0.25	0.50	1.00	0.75	0.50	1.00	0.75	1.00	1.00	1.00	-2.969238	0.029785	1.994629	128.589996	-328.230011	140.630005	138.00	0.05	-0.06
3.67	3.00	3.75	3.00	3.50	0.50	1.00	2.75	5.50	9.75	11.00	11.50	11.00	13.25	12.25	3.75	5.00	-0.319336	0.118652	0.958008	23.590000	99.889999	-7.280000	1139.00	0.15	-0.08	1.25	0.50	0.75	0.75	0.50	0.25	0.25	0.50	0.75	0.50	0.50	1.00	0.25	0.75	0.75	0.50	-3.227051	0.086426	1.535156	84.769997	-313.250000	134.750000	113.00	0.02	-0.05
3.68	2.50	0.00	1.75	3.25	0.25	0.25	2.25	5.00	10.00	11.25	12.00	11.25	13.25	13.25	4.00	5.25	-0.337402	0.098145	1.021484	36.119999	125.790001	-6.300000	1078.00	0.19	-0.08	0.75	0.25	0.25	0.25	0.25	0.00	0.25	0.00	0.50	0.00	0.00	0.00	0.00	0.00	0.00	0.00	-4.083984	-0.220215	-0.249023	123.059998	-259.070007	104.019997	31.00	0.00	0.00
3.69	2.50	2.75	1.50	2.75	0.25	0.50	1.75	3.75	10.25	11.75	12.00	11.50	13.00	14.00	5.00	5.25	-0.356445	0.109375	1.050781	42.000000	154.770004	-5.110000	1099.00	0.18	-0.07	0.00	0.00	0.00	0.00	0.00	0.00	0.00	0.00	0.00	0.00	0.00	0.00	0.00	0.00	0.00	0.00	-6.218750	-0.526367	-0.396973	248.220001	-231.979996	110.250000	0.00	0.00	0.00
3.70	2.50	2.25	1.25	2.50	0.25	0.25	1.50	2.75	10.25	11.75	12.25	11.75	12.75	15.25	5.25	5.75	-0.425293	0.134277	1.062988	42.630001	176.680008	-6.020000	1085.00	0.20	-0.07	0.00	0.00	0.00	0.00	0.00	0.00	0.00	0.00	0.00	0.00	0.00	0.00	0.00	0.00	0.00	0.00	-6.379883	-1.798340	-1.323730	263.269989	-158.270004	87.639999	0.00	0.00	0.00
3.71	2.25	1.75	1.00	2.50	0.25	0.00	1.00	1.50	10.25	12.00	12.50	11.50	12.50	16.25	5.50	5.75	-0.433105	0.142090	0.991699	35.910000	198.869995	-7.000000	1054.00	0.21	-0.06	0.00	0.00	0.00	0.00	0.00	0.00	0.00	0.00	0.00	0.00	0.00	0.00	0.00	0.00	0.00	0.00	-4.722656	-2.151367	-1.993164	159.460007	-42.490002	42.279999	0.00	0.00	0.00
3.72	1.75	1.75	1.75	1.75	0.00	0.00	0.50	1.50	10.50	12.25	12.25	11.75	11.75	17.00	5.75	5.75	-0.424805	0.164062	1.054688	29.680000	221.619995	-8.260000	1047.00	0.22	-0.05	0.00	0.00	0.00	0.00	0.00	0.00	0.00	0.00	0.00	0.00	0.00	0.00	0.00	0.00	0.00	0.00	-3.334473	-1.560547	-1.183105	13.930000	82.459999	-22.540001	0.00	0.00	0.00
3.73	2.00	2.00	1.25	1.75	0.25	0.00	0.25	1.00	10.50	12.25	12.50	11.50	11.50	17.75	6.00	5.75	-0.495117	0.160156	1.132812	20.860001	243.389999	-11.550000	1044.00	0.22	-0.05	0.00	0.00	0.00	0.00	0.00	0.00	0.00	0.00	0.00	0.00	0.00	0.00	0.00	0.00	0.00	0.00	-2.604980	-0.260742	0.227539	-49.630001	169.119995	-83.580002	0.00	0.00	0.00
3.74	1.25	2.25	0.75	1.50	0.00	0.25	0.00	1.00	10.25	12.25	12.25	11.25	10.50	18.25	6.75	6.25	-0.525879	0.260254	1.193359	16.240000	259.769989	-17.780001	1022.00	0.23	-0.05	1.00	0.25	0.00	0.00	0.00	0.00	0.00	0.00	0.00	0.00	0.00	0.00	0.00	0.00	0.00	0.00	-0.162598	0.801758	4.878418	-82.389999	321.579987	-64.680000	14.00	0.00	0.00
