# time	left pressure 1[N/cm²]	left pressure 2[N/cm²]	left pressure 3[N/cm²]	left pressure 4[N/cm²]	left pressure 5[N/cm²]	left pressure 6[N/cm²]	left pressure 7[N/cm²]	left pressure 8[N/cm²]	left pressure 9[N/cm²]	left pressure 10[N/cm²]	left pressure 11[N/cm²]	left pressure 12[N/cm²]	left pressure 13[N/cm²]	left pressure 14[N/cm²]	left pressure 15[N/cm²]	left pressure 16[N/cm²]	left acceleration X[g]	left acceleration Y[g]	left acceleration Z[g]	left angular X[dps]	left angular Y[dps]	left angular Z[dps]	left total force[N]	left center of pressure X[%]	left center of pressure Y[%]	right pressure 1[N/cm²]	right pressure 2[N/cm²]	right pressure 3[N/cm²]	right pressure 4[N/cm²]	right pressure 5[N/cm²]	right pressure 6[N/cm²]	right pressure 7[N/cm²]	right pressure 8[N/cm²]	right pressure 9[N/cm²]	right pressure 10[N/cm²]	right pressure 11[N/cm²]	right pressure 12[N/cm²]	right pressure 13[N/cm²]	right pressure 14[N/cm²]	right pressure 15[N/cm²]	right pressure 16[N/cm²]	right acceleration X[g]	right acceleration Y[g]	right acceleration Z[g]	right angular X[dps]	right angular Y[dps]	right angular Z[dps]	right total force[N]	right center of pressure X[%]	right center of pressure Y[%]
0.00	3.00	4.00	5.25	5.25	6.50	7.75	0.75	4.00	0.50	0.50	1.00	1.00	2.75	2.50	0.50	1.00	-0.181641	0.039551	0.955078	-1.400000	5.180000	-1.190000	501.00	-0.11	-0.12																									
0.01	2.75	4.00	5.50	5.50	6.50	8.00	0.75	4.25	0.50	0.50	1.00	1.00	2.50	2.50	0.75	1.00	-0.184082	0.040039	0.954102	-1.470000	5.390000	-1.120000	510.00	-0.11	-0.13	3.50	3.50	5.25	5.50	5.50	6.75	0.75	2.25	0.25	0.25	0.00	0.50	1.50	1.00	0.75	1.25	-0.147461	0.047852	0.974609	-3.500000	-3.360000	1.680000	414.00	-0.16	-0.11
0.02																										3.75	3.50	5.00	5.50	5.75	6.75	0.75	2.25	0.50	0.25	0.50	0.25	1.00	1.00	0.50	1.25	-0.144043	0.046875	0.973633	-3.290000	-3.220000	1.680000	416.00	-0.16	-0.10
0.03	3.00	3.75	5.25	5.50	6.50	8.00	0.75	4.25	0.75	0.50	1.00	1.00	2.75	2.25	0.50	1.00	-0.185547	0.046387	0.957520	-1.400000	5.530000	-1.120000	509.00	-0.11	-0.13	3.50	3.50	5.25	5.50	5.75	6.25	0.75	2.25	0.50	0.25	0.00	0.50	1.00	1.00	0.50	1.25	-0.146973	0.050293	0.975586	-3.150000	-3.220000	1.820000	408.00	-0.16	-0.10
0.04	3.00	4.00	5.25	5.25	6.50	8.00	0.75	4.25	0.25	0.75	1.25	1.00	3.00	2.50	0.50	1.00	-0.187988	0.042480	0.958496	-1.470000	5.600000	-1.120000	511.00	-0.11	-0.13	3.75	3.50	5.00	5.25	5.75	6.50	0.75	2.25	0.25	0.25	0.25	0.50	1.25	1.00	0.75	1.25	-0.146484	0.049805	0.982422	-2.870000	-3.360000	2.030000	412.00	-0.16	-0.10
0.05	3.00	4.00	5.50	5.50	6.75	8.00	0.75	4.50	0.25	0.50	1.00	1.00	2.75	2.75	0.50	1.00	-0.183594	0.041504	0.960449	-1.540000	5.250000	-1.190000	518.00	-0.11	-0.13	3.50	3.25	5.00	5.50	5.75	6.50	0.75	2.25	0.25	0.25	0.00	0.50	1.00	0.75	0.50	1.25	-0.148926	0.045898	0.977051	-2.730000	-3.430000	2.100000	400.00	-0.17	-0.10
0.06	3.00	3.75	5.50	5.25	6.50	8.25	0.75	4.50	0.50	0.50	1.00	1.00	3.00	2.50	0.50	1.25	-0.187012	0.045410	0.958008	-1.540000	4.900000	-1.190000	518.00	-0.11	-0.13	3.50	3.25	5.25	5.50	6.00	6.50	0.75	2.25	0.50	0.25	0.00	0.25	1.25	0.75	0.75	1.25	-0.144043	0.046875	0.979980	-2.590000	-3.360000	2.170000	411.00	-0.16	-0.10
0.07	2.75	4.25	5.50	5.25	6.75	8.25	0.75	4.75	0.25	0.75	1.00	0.75	2.75	2.50	0.50	1.25	-0.186035	0.041992	0.955078	-1.610000	5.180000	-1.190000	521.00	-0.11	-0.13	3.75	3.25	5.25	5.25	6.00	6.50	0.75	2.00	0.25	0.25	0.25	0.50	1.25	1.00	0.75	1.25	-0.147949	0.046875	0.981445	-2.520000	-3.360000	2.310000	411.00	-0.16	-0.10
0.08	3.00	3.50	5.25	5.50	7.00	8.50	0.75	4.75	0.50	0.75	1.00	1.00	3.00	2.50	0.50	1.00	-0.187500	0.043457	0.958496	-1.680000	5.180000	-1.190000	529.00	-0.11	-0.13	3.50	3.50	5.00	5.00	5.75	6.25	0.75	2.25	0.25	0.25	0.25	0.50	1.50	0.75	0.50	1.25	-0.149902	0.053223	0.980957	-2.520000	-3.290000	2.100000	401.00	-0.16	-0.11
0.09	2.75	4.00	5.25	5.50	7.00	8.50	0.75	5.00	0.00	0.50	1.25	0.75	3.00	2.75	0.75	1.25	-0.180664	0.040039	0.961426	-1.680000	5.670000	-1.190000	531.00	-0.11	-0.14	3.50	3.50	5.00	5.00	6.00	6.50	0.75	2.00	0.50	0.25	0.25	0.50	1.25	0.75	0.75	1.25	-0.146484	0.050781	0.983887	-2.590000	-3.150000	2.170000	406.00	-0.15	-0.10
0.10	2.75	4.25	5.50	5.50	7.00	8.50	1.00	4.75	0.50	0.50	1.00	0.75	3.00	2.25	0.75	1.25	-0.188477	0.042969	0.955566	-1.680000	6.160000	-1.260000	536.00	-0.11	-0.13	3.25	3.25	5.00	5.00	6.00	6.50	0.75	2.25	0.25	0.25	0.25	0.50	1.25	1.25	0.50	1.25	-0.148438	0.045898	0.981445	-2.520000	-3.290000	2.100000	404.00	-0.15	-0.10
0.11	2.75	4.00	5.50	5.25	7.00	8.50	0.75	4.75	0.25	0.50	1.00	1.25	2.75	2.50	1.00	1.00	-0.187988	0.042969	0.963379	-1.680000	6.580000	-1.260000	530.00	-0.11	-0.13	3.00	3.00	5.00	5.00	5.75	6.50	0.75	1.75	0.25	0.50	0.00	0.50	1.00	1.00	0.50	1.25	-0.149902	0.050293	0.980957	-2.450000	-3.150000	2.100000	384.00	-0.16	-0.10
0.12	2.75	3.50	5.50	5.25	7.00	8.50	0.75	5.00	0.25	0.50	1.25	1.00	3.00	2.25	0.50	1.00	-0.190430	0.039551	0.959961	-1.610000	6.440000	-1.120000	524.00	-0.11	-0.14	3.25	3.00	5.00	5.00	5.75	6.25	0.75	2.25	0.00	0.25	0.25	0.50	1.00	1.00	0.75	1.25	-0.149414	0.044434	0.982910	-2.380000	-3.150000	2.310000	391.00	-0.15	-0.10
0.13	2.75	3.75	5.50	5.50	7.00	8.50	0.75	5.00	0.25	0.50	1.00	1.00	2.75	2.75	0.50	1.00	-0.183105	0.039062	0.956543	-1.540000	6.230000	-0.980000	529.00	-0.11	-0.13	3.50	3.25	5.00	5.00	5.75	6.25	0.75	2.00	0.50	0.25	0.25	0.25	1.25	0.75	0.75	1.25	-0.147461	0.048828	0.979492	-2.380000	-3.150000	2.380000	396.00	-0.16	-0.10
0.14	2.75	4.00	5.50	5.50	7.00	8.50	0.75	4.75	0.25	0.25	1.00	1.00	2.75	2.00	0.75	1.00	-0.186035	0.040527	0.958008	-1.470000	6.090000	-0.980000	521.00	-0.12	-0.14	3.25	3.25	5.00	5.00	5.75	6.25	0.75	2.00	0.50	0.25	0.25	0.50	1.00	1.00	0.50	1.25	-0.143066	0.049805	0.979980	-2.310000	-3.080000	2.310000	393.00	-0.15	-0.10
0.15	3.00	3.75	5.50	5.50	7.00	8.75	0.75	4.75	0.25	0.50	0.75	1.00	2.75	2.25	0.50	1.00	-0.182617	0.038086	0.958496	-1.470000	6.090000	-1.050000	524.00	-0.12	-0.13	3.50	3.00	5.00	5.00	5.75	6.25	0.75	2.00	0.50	0.25	0.25	0.25	1.00	1.00	0.50	1.00	-0.147949	0.053223	0.983398	-2.240000	-3.010000	2.380000	390.00	-0.16	-0.09
0.16	3.00	4.00	5.50	5.50	7.00	8.75	0.75	4.75	0.50	0.25	1.25	1.00	3.00	2.50	0.50	1.25	-0.189941	0.047363	0.958008	-1.470000	6.020000	-1.120000	537.00	-0.11	-0.13	3.25	3.25	5.00	5.25	6.00	6.25	0.75	2.00	0.25	0.00	0.25	0.25	1.00	0.75	0.50	1.25	-0.140625	0.049316	0.981934	-2.100000	-3.010000	2.660000	388.00	-0.17	-0.10
0.17	3.00	3.75	5.75	5.50	7.00	8.50	0.75	4.75	0.50	0.50	1.00	1.00	3.00	2.50	0.75	1.25	-0.181641	0.038086	0.961914	-1.540000	6.090000	-1.050000	538.00	-0.11	-0.13	3.50	3.00	5.00	5.00	5.75	6.50	0.75	1.75	0.25	0.25	0.25	0.25	1.00	0.75	0.50	1.25	-0.143555	0.048340	0.976562	-2.030000	-3.010000	2.590000	385.00	-0.17	-0.10
0.18	2.75	4.00	5.75	5.50	7.25	8.75	0.75	5.00	0.25	0.50	1.00	1.00	2.75	2.50	0.75	1.00	-0.186523	0.040039	0.957031	-1.470000	6.020000	-0.910000	540.00	-0.11	-0.13	3.25	3.25	5.00	5.00	6.00	6.50	0.75	2.00	0.75	0.25	0.25	0.25	1.00	1.00	0.50	1.25	-0.150391	0.052246	0.981934	-2.100000	-3.150000	2.590000	400.00	-0.15	-0.09
0.19	3.00	4.00	5.75	5.50	7.25	9.00	0.75	5.00	0.25	0.50	0.75	0.75	3.00	2.50	0.75	1.00	-0.189453	0.042969	0.948242	-1.540000	5.880000	-0.980000	542.00	-0.12	-0.13	3.75	3.75	5.00	5.25	6.00	6.50	0.75	1.75	0.00	0.00	0.00	0.25	1.00	1.00	0.50	1.00	-0.145508	0.043457	0.981934	-2.170000	-3.360000	2.590000	392.00	-0.18	-0.10
0.20	2.75	4.00	5.75	5.50	7.25	8.75	0.75	5.00	0.25	0.25	1.00	0.75	2.75	2.75	0.75	1.00	-0.184082	0.042969	0.960938	-1.540000	5.880000	-0.980000	537.00	-0.11	-0.13	3.50	3.25	5.00	5.25	5.75	6.50	0.75	1.75	0.50	0.25	0.25	0.25	1.00	0.75	0.50	1.25	-0.148438	0.043945	0.983398	-2.310000	-3.430000	2.380000	393.00	-0.16	-0.09
0.21	3.00	4.00	5.75	5.50	7.25	8.75	0.75	4.75	0.25	0.25	0.75	1.00	2.75	2.50	0.75	1.00	-0.184570	0.043945	0.959961	-1.610000	6.090000	-1.120000	534.00	-0.12	-0.13	3.25	3.25	5.00	5.25	5.75	6.25	0.75	1.75	0.25	0.00	0.00	0.25	0.75	1.00	0.50	1.25	-0.146484	0.047363	0.979492	-2.310000	-3.360000	2.380000	379.00	-0.17	-0.09
0.22	3.00	3.75	5.75	5.25	7.25	8.75	0.75	5.00	0.25	0.50	1.00	0.75	2.75	2.50	0.75	1.00	-0.185059	0.042969	0.957031	-1.610000	6.020000	-1.120000	535.00	-0.11	-0.13	3.75	3.25	5.00	5.25	6.00	6.50	0.75	2.00	0.25	0.25	0.25	0.00	0.75	1.00	0.50	1.25	-0.148438	0.046875	0.979004	-2.450000	-3.360000	2.240000	396.00	-0.17	-0.09
0.23	3.00	4.00	5.75	5.50	7.25	9.00	0.75	5.00	0.00	0.50	1.00	1.00	3.00	2.25	0.75	1.00	-0.184570	0.042969	0.957031	-1.540000	6.020000	-1.050000	542.00	-0.12	-0.14	3.50	3.25	5.00	5.00	6.00	6.50	0.75	2.00	0.50	0.00	0.25	0.25	0.75	1.00	0.75	1.25	-0.142090	0.047363	0.984863	-2.450000	-3.430000	2.310000	397.00	-0.16	-0.09
0.24	2.75	4.00	5.75	5.50	7.50	9.00	0.75	5.00	0.50	0.50	1.00	1.00	2.75	2.25	0.75	1.25	-0.185059	0.040527	0.958984	-1.610000	6.090000	-1.050000	548.00	-0.11	-0.13	3.50	3.50	5.00	5.25	6.00	6.50	0.75	1.75	0.00	0.00	0.00	0.25	1.00	1.00	0.50	1.25	-0.150879	0.048828	0.981934	-2.380000	-3.290000	2.240000	388.00	-0.17	-0.10
0.25	2.75	4.25	5.75	5.50	7.25	9.00	0.75	5.00	0.50	0.50	1.00	1.00	2.75	2.50	0.50	1.00	-0.183594	0.039551	0.959961	-1.680000	5.390000	-0.980000	546.00	-0.11	-0.13	3.50	3.50	5.00	5.25	6.00	6.50	0.75	1.75	0.00	0.00	0.00	0.50	1.00	0.75	0.75	1.25	-0.142578	0.044922	0.982910	-2.380000	-3.290000	2.310000	391.00	-0.17	-0.10
0.26	3.00	4.00	6.00	5.50	7.50	9.00	0.75	5.00	0.25	0.50	1.00	1.00	2.75	2.75	0.50	1.00	-0.187988	0.042969	0.958984	-1.750000	4.970000	-1.050000	550.00	-0.12	-0.13	3.75	3.25	5.00	5.25	6.00	6.50	0.75	2.00	0.25	0.25	0.00	0.50	1.00	0.75	0.75	1.25	-0.148438	0.051758	0.983398	-2.310000	-3.220000	2.240000	401.00	-0.16	-0.10
0.27	2.75	4.00	6.00	5.50	7.50	9.00	0.75	5.00	0.50	0.50	0.75	1.00	3.00	2.50	0.50	1.00	-0.190430	0.036621	0.960938	-1.890000	4.900000	-1.260000	548.00	-0.11	-0.13	3.50	3.25	5.00	5.25	5.75	6.50	0.75	2.00	0.00	0.00	0.00	0.50	1.00	0.75	0.75	1.25	-0.146484	0.049805	0.984375	-2.590000	-3.290000	2.240000	390.00	-0.17	-0.10
0.28	3.00	3.75	5.75	5.25	7.50	9.00	0.75	5.00	0.50	0.50	1.00	1.00	3.00	2.50	0.75	1.00	-0.187012	0.041992	0.962891	-1.820000	5.110000	-1.330000	548.00	-0.11	-0.13	3.75	3.50	5.00	5.25	6.00	6.50	0.75	1.75	0.25	0.00	0.25	0.00	0.75	1.00	0.50	1.25	-0.145020	0.051758	0.987305	-2.660000	-3.360000	2.100000	392.00	-0.17	-0.09
0.29	2.75	4.00	6.00	5.50	7.75	9.00	0.75	5.00	0.25	0.50	1.00	1.00	3.00	2.75	0.50	1.00	-0.184570	0.041992	0.959473	-1.750000	5.040000	-1.190000	553.00	-0.11	-0.13	3.75	3.50	5.00	5.00	5.75	6.50	0.75	1.75	0.25	0.25	0.25	0.00	1.00	1.00	0.50	1.25	-0.144043	0.050781	0.984863	-2.800000	-3.290000	2.100000	391.00	-0.17	-0.09
0.30	3.00	4.00	6.00	5.50	7.50	9.00	0.75	5.00	0.50	0.50	1.00	1.25	2.75	2.75	0.50	1.00	-0.185059	0.038086	0.959961	-1.680000	4.620000	-1.050000	556.00	-0.11	-0.13	3.50	3.25	5.00	5.00	5.75	6.25	0.75	2.25	0.25	0.25	0.25	0.25	1.00	0.75	0.75	1.25	-0.148926	0.050781	0.989258	-2.800000	-3.360000	2.030000	394.00	-0.16	-0.10
0.31	2.75	3.75	5.75	5.50	7.75	9.00	1.00	5.00	0.00	0.75	1.00	1.00	3.25	2.75	0.50	1.00	-0.180176	0.039551	0.960938	-1.680000	4.620000	-1.120000	553.00	-0.11	-0.13	3.50	3.25	5.00	5.00	5.75	6.25	0.75	2.00	0.25	0.25	0.25	0.50	1.00	1.00	0.50	1.00	-0.140625	0.045410	0.983887	-2.660000	-3.360000	2.030000	391.00	-0.16	-0.10
0.32	2.75	3.75	6.00	5.50	7.75	9.25	0.75	5.25	0.25	0.75	1.25	1.25	3.00	2.50	0.75	1.00	-0.182129	0.046875	0.956543	-1.750000	4.970000	-1.260000	565.00	-0.11	-0.13	3.50	3.25	5.00	5.00	5.75	6.25	0.75	2.00	0.25	0.25	0.00	0.25	1.00	0.75	0.50	1.25	-0.147949	0.049805	0.985840	-2.730000	-3.290000	2.100000	385.00	-0.17	-0.10
0.33	2.75	3.75	6.00	5.50	7.75	9.25	1.00	5.25	0.50	0.50	1.00	1.25	3.25	2.50	0.75	1.25	-0.184570	0.037109	0.961914	-1.750000	5.320000	-1.260000	571.00	-0.10	-0.13	3.75	3.00	5.00	5.00	5.75	6.00	0.75	2.00	0.50	0.25	0.00	0.25	1.00	1.00	0.50	1.25	-0.148438	0.042969	0.983398	-2.660000	-3.220000	2.030000	388.00	-0.16	-0.09
0.34	2.75	3.75	5.75	5.25	8.00	9.25	1.00	5.25	0.25	0.50	1.00	1.25	3.00	2.75	0.75	1.25	-0.187988	0.041992	0.957520	-1.820000	5.320000	-1.120000	564.00	-0.10	-0.13	3.25	3.25	5.00	5.00	5.75	6.00	0.75	2.00	0.25	0.50	0.00	0.50	1.00	0.75	0.50	1.00	-0.145996	0.045898	0.982422	-2.660000	-3.220000	2.100000	384.00	-0.16	-0.10
0.35	2.75	4.00	5.75	5.50	8.00	9.25	0.75	5.25	0.50	0.50	1.25	1.25	3.00	3.00	0.75	1.25	-0.185059	0.045898	0.958496	-1.750000	5.040000	-1.120000	574.00	-0.10	-0.13	3.25	3.25	4.75	5.00	5.75	6.25	0.75	1.75	0.25	0.25	0.00	0.00	1.00	0.75	0.50	1.25	-0.152344	0.046387	0.981445	-2.800000	-3.290000	2.030000	374.00	-0.17	-0.10
0.36	2.75	4.00	6.00	5.25	7.75	9.50	1.00	5.50	0.25	0.50	1.25	1.00	3.00	2.75	0.50	1.25	-0.186523	0.038574	0.956055	-1.750000	4.830000	-1.190000	571.00	-0.11	-0.13	3.50	3.00	5.00	4.75	5.75	6.00	0.75	2.00	0.50	0.25	0.00	0.25	1.25	0.75	0.75	1.25	-0.151367	0.050781	0.981445	-2.800000	-3.010000	1.890000	386.00	-0.16	-0.09
0.37	3.00	4.25	5.75	5.50	8.00	9.50	0.75	5.25	0.50	0.75	1.00	1.25	3.25	2.25	0.75	1.25	-0.179199	0.041992	0.958496	-1.610000	4.690000	-1.190000	577.00	-0.11	-0.13	3.25	2.75	4.75	5.00	5.75	6.00	0.75	1.75	0.50	0.50	0.25	0.25	1.25	1.00	0.75	1.25	-0.144043	0.049316	0.984863	-2.730000	-2.870000	1.750000	384.00	-0.15	-0.09
0.38	2.75	3.50	6.00	5.25	8.00	9.50	1.00	5.50	0.25	0.75	1.25	1.50	3.25	3.00	0.50	1.25	-0.184570	0.038086	0.959473	-1.610000	4.550000	-1.260000	581.00	-0.10	-0.13	3.25	3.25	5.00	4.75	5.75	5.75	0.75	1.50	0.25	0.25	0.00	0.25	0.75	0.75	0.75	1.25	-0.143555	0.054688	0.987305	-2.870000	-2.870000	1.890000	367.00	-0.17	-0.09
0.39	2.75	4.00	6.00	5.25	8.00	9.75	1.00	5.75	0.50	0.75	1.25	1.25	3.25	2.75	0.75	1.00	-0.180176	0.044434	0.960938	-1.680000	4.200000	-1.190000	592.00	-0.10	-0.13	3.25	3.00	4.75	4.25	5.50	5.75	0.75	1.50	0.50	0.50	0.00	0.50	1.00	0.75	0.75	1.25	-0.145996	0.053711	0.986816	-3.080000	-2.940000	1.750000	365.00	-0.15	-0.09
0.40	2.75	3.75	6.00	5.50	8.00	9.75	1.00	5.75	0.50	0.75	1.00	1.00	3.50	3.00	0.75	1.25	-0.179688	0.040039	0.958984	-1.470000	3.850000	-1.330000	593.00	-0.10	-0.13	3.25	3.25	4.50	4.25	5.50	5.50	0.75	1.50	0.25	0.25	0.25	0.25	1.00	1.00	0.50	1.25	-0.148438	0.049316	0.976562	-3.220000	-2.940000	1.750000	355.00	-0.16	-0.09
0.41	2.50	3.75	6.00	5.25	8.25	10.25	1.00	5.75	0.50	0.75	1.25	1.25	3.75	3.00	0.75	1.25	-0.181641	0.040039	0.958008	-1.470000	3.850000	-1.330000	603.00	-0.09	-0.14	3.25	2.75	4.25	4.00	5.50	5.25	0.75	1.50	0.50	0.25	0.25	0.25	1.25	1.00	0.50	1.00	-0.149414	0.047363	0.989746	-3.290000	-2.730000	1.750000	346.00	-0.15	-0.08
0.42	2.50	3.75	6.00	5.50	8.25	10.25	1.00	5.75	0.50	0.75	1.25	1.50	3.75	3.00	0.75	1.25	-0.181152	0.041016	0.958008	-1.400000	3.570000	-1.470000	608.00	-0.09	-0.14	3.00	2.75	4.50	4.00	5.50	5.25	1.00	1.25	0.50	0.50	0.25	0.25	1.00	1.00	0.50	1.25	-0.134277	0.035645	1.010742	-3.150000	-2.590000	1.470000	348.00	-0.15	-0.07
0.43	2.75	3.00	6.00	5.50	8.25	10.25	1.00	6.00	0.50	0.75	1.25	1.50	3.75	2.75	0.75	1.25	-0.180176	0.039062	0.956055	-1.470000	3.150000	-1.400000	606.00	-0.09	-0.14	3.00	2.50	4.50	3.75	5.25	5.00	0.75	1.50	0.75	0.50	0.25	0.25	1.00	0.75	0.50	1.00	-0.148438	0.052246	0.982910	-3.150000	-2.520000	1.540000	338.00	-0.15	-0.08
0.44	2.50	3.75	5.75	5.50	8.50	10.75	1.00	6.25	0.75	0.75	1.50	1.50	4.00	3.25	0.50	1.25	-0.181641	0.040527	0.964355	-1.470000	3.010000	-1.470000	629.00	-0.09	-0.14	3.00	2.50	4.00	3.75	5.25	5.00	1.00	1.50	0.50	0.50	0.25	0.25	0.75	1.25	0.50	1.00	-0.144043	0.047852	0.982910	-2.940000	-2.030000	1.400000	335.00	-0.14	-0.07
0.45	2.50	3.75	5.75	5.50	8.25	11.00	1.00	6.25	0.50	0.75	1.50	1.50	4.25	3.00	0.75	1.50	-0.183105	0.041992	0.965332	-1.470000	3.080000	-1.470000	630.00	-0.09	-0.15	3.00	2.75	4.25	3.25	5.25	4.75	1.00	1.50	0.75	0.50	0.25	0.25	0.75	1.00	0.50	1.00	-0.144043	0.047852	0.982910	-2.940000	-2.030000	1.400000	333.00	-0.14	-0.07
0.46	2.50	4.00	5.75	5.25	8.50	11.50	1.00	6.75	0.50	1.00	1.25	1.50	4.50	3.00	0.75	1.25	-0.178711	0.043457	0.958008	-1.470000	3.080000	-1.470000	646.00	-0.09	-0.15	3.00	2.50	4.00	3.50	5.25	4.50	1.00	1.50	0.75	0.25	0.25	0.25	0.75	1.00	0.50	1.25	-0.142090	0.049805	0.980957	-3.010000	-1.610000	1.260000	326.00	-0.14	-0.07
0.47	2.50	3.50	6.00	5.50	8.75	11.75	1.00	6.75	0.75	1.00	1.75	1.75	4.50	2.75	0.75	1.50	-0.179688	0.044922	0.958984	-1.400000	3.080000	-1.470000	663.00	-0.08	-0.15	2.50	2.50	3.75	3.25	5.00	4.00	0.75	1.25	0.75	0.50	0.25	0.25	1.00	0.75	0.50	1.00	-0.151855	0.044922	0.987305	-3.080000	-1.470000	1.330000	301.00	-0.14	-0.07
0.48	2.50	3.75	5.75	5.25	8.50	11.75	1.00	7.00	0.75	1.00	1.50	1.50	5.00	3.00	0.75	1.50	-0.181641	0.036621	0.958984	-1.400000	3.290000	-1.540000	662.00	-0.08	-0.15	2.50	2.25	3.75	3.25	5.00	3.75	1.00	1.00	0.75	0.50	0.25	0.25	0.75	1.00	0.75	1.00	-0.148438	0.043945	0.981934	-3.010000	-1.260000	1.190000	299.00	-0.13	-0.06
0.49	2.50	3.50	5.50	5.25	8.50	12.00	1.00	7.25	0.75	1.25	1.75	1.75	5.25	3.25	0.75	1.50	-0.179199	0.044434	0.957520	-1.400000	3.500000	-1.400000	675.00	-0.07	-0.15	2.25	2.25	3.75	2.75	4.75	3.75	1.00	1.25	0.75	0.50	0.00	0.00	0.75	1.00	0.50	1.25	-0.147949	0.045898	0.981934	-2.940000	-1.190000	1.120000	285.00	-0.13	-0.06
0.50	2.50	3.50	5.75	5.25	8.75	12.00	1.00	7.25	0.50	1.00	1.75	1.75	5.25	3.25	0.75	1.50	-0.177734	0.040039	0.957031	-1.470000	3.570000	-1.330000	675.00	-0.08	-0.15	2.25	2.00	3.50	3.00	4.75	3.50	1.00	1.25	0.75	0.50	0.25	0.25	0.75	1.25	0.50	1.00	-0.152832	0.048828	0.978027	-3.010000	-1.120000	1.120000	286.00	-0.12	-0.06
0.51	2.50	3.50	5.50	5.00	8.50	12.00	1.00	7.50	1.25	1.00	2.00	2.00	5.50	3.25	1.00	1.50	-0.173340	0.040039	0.965332	-1.470000	3.850000	-1.260000	690.00	-0.07	-0.15	2.50	2.25	3.50	2.75	4.75	3.00	1.00	1.00	0.75	0.50	0.25	0.25	1.00	1.00	0.50	1.00	-0.144043	0.052246	0.977051	-2.940000	-1.050000	1.050000	279.00	-0.12	-0.05
0.52	2.50	3.25	5.50	5.25	8.50	12.50	1.00	7.50	1.00	1.00	1.75	2.00	5.75	3.50	0.75	1.50	-0.178711	0.040039	0.960938	-1.610000	4.130000	-1.190000	692.00	-0.07	-0.15	2.25	2.00	3.50	2.75	4.50	3.00	1.00	1.00	1.25	0.50	0.25	0.00	1.00	1.25	0.50	1.00	-0.152344	0.043945	0.979492	-2.870000	-1.050000	1.120000	278.00	-0.11	-0.04
0.53	2.00	3.75	5.50	5.00	8.50	12.75	1.00	7.50	1.00	1.00	2.00	2.25	6.00	3.00	1.00	1.75	-0.170410	0.041992	0.959961	-1.330000	3.990000	-0.980000	699.00	-0.06	-0.16	2.50	2.25	3.25	2.75	4.25	2.25	0.75	1.00	1.00	0.50	0.25	0.00	0.75	1.00	0.50	1.00	-0.151855	0.052734	0.976074	-2.940000	-1.120000	1.260000	257.00	-0.13	-0.04
0.54	2.25	3.75	5.50	5.00	8.50	13.00	1.00	7.75	1.00	1.25	2.00	2.25	5.75	3.50	0.75	1.75	-0.169922	0.040527	0.957520	-1.400000	4.130000	-0.910000	710.00	-0.06	-0.16	2.25	2.25	3.25	2.75	4.25	2.00	0.75	1.00	1.00	0.50	0.25	0.25	1.25	1.00	0.50	1.00	-0.148926	0.046875	0.983398	-2.940000	-1.400000	1.260000	259.00	-0.11	-0.05
0.55	2.50	3.25	5.50	5.00	8.75	13.00	1.00	7.75	1.00	1.25	2.00	2.50	6.25	3.50	1.00	1.75	-0.171875	0.044922	0.965332	-1.470000	4.410000	-1.050000	720.00	-0.06	-0.16	2.00	2.00	3.00	2.25	4.25	2.00	0.75	0.75	1.00	0.50	0.25	0.25	0.75	1.25	0.50	1.00	-0.150879	0.045410	0.979004	-2.730000	-1.470000	1.330000	240.00	-0.10	-0.04
0.56	2.00	3.25	5.00	5.00	8.50	12.75	1.00	8.00	1.00	1.25	2.00	2.25	6.00	3.75	0.75	1.75	-0.177246	0.039062	0.959473	-1.470000	4.620000	-0.980000	702.00	-0.06	-0.16	2.00	1.75	3.25	2.25	4.25	2.00	1.00	1.00	1.25	0.50	0.00	0.00	0.50	1.25	0.50	1.00	-0.150879	0.045410	0.977051	-2.730000	-1.610000	1.610000	244.00	-0.10	-0.02
0.57	2.00	3.50	5.25	5.00	8.50	13.00	1.00	8.00	0.75	1.25	2.00	2.50	6.25	3.50	1.00	1.75	-0.167969	0.039551	0.957031	-1.540000	4.900000	-1.120000	712.00	-0.06	-0.16	2.00	1.75	3.00	2.00	4.00	1.75	0.75	1.00	1.25	0.50	0.25	0.00	1.00	1.00	0.50	0.75	-0.156250	0.045410	0.985352	-2.730000	-1.750000	1.680000	232.00	-0.10	-0.03
0.58	2.25	3.75	5.00	4.75	8.25	13.00	1.00	8.00	1.25	1.25	2.00	2.50	6.25	3.25	1.00	1.75	-0.176758	0.039551	0.957520	-1.470000	5.040000	-0.980000	713.00	-0.06	-0.16	2.25	2.00	2.75	2.25	4.00	2.00	0.75	1.00	1.00	0.50	0.25	0.25	0.75	1.00	0.50	1.00	-0.154297	0.048828	0.983398	-2.730000	-2.030000	1.750000	239.00	-0.11	-0.04
0.59	2.00	3.50	5.00	4.75	8.50	12.75	1.00	8.25	1.00	1.50	2.25	2.50	6.25	3.50	1.00	1.75	-0.177734	0.041504	0.960938	-1.540000	5.460000	-0.980000	716.00	-0.05	-0.16	2.00	2.00	2.75	2.25	4.00	1.75	1.00	0.75	1.00	0.75	0.25	0.25	0.50	1.00	0.50	1.00	-0.147949	0.045410	0.980957	-2.660000	-2.380000	1.890000	234.00	-0.10	-0.03
0.60	2.00	3.25	5.00	4.75	8.50	13.25	1.00	8.25	1.00	1.50	2.00	2.50	6.50	3.50	1.00	1.75	-0.176270	0.041016	0.963867	-1.540000	5.670000	-0.910000	719.00	-0.05	-0.17	2.25	1.75	2.75	1.75	3.75	1.75	1.00	1.00	1.00	0.50	0.00	0.00	0.50	1.00	0.50	1.00	-0.151855	0.045410	0.985840	-2.590000	-2.800000	1.960000	222.00	-0.11	-0.02
0.61	2.00	3.50	5.00	5.00	8.50	13.00	1.00	8.00	1.00	1.25	2.25	2.50	6.25	4.00	1.00	1.75	-0.172363	0.040039	0.958496	-1.610000	5.810000	-0.840000	720.00	-0.05	-0.16	1.75	1.75	3.00	2.25	3.75	1.25	1.00	0.75	1.25	0.50	0.25	0.00	1.00	1.25	0.50	1.00	-0.150391	0.048828	0.979004	-2.520000	-3.290000	2.170000	228.00	-0.09	-0.02
0.62	2.00	3.25	4.75	4.50	8.50	12.75	1.00	8.00	0.75	1.50	2.00	2.50	6.25	3.75	1.25	1.75	-0.174316	0.042480	0.960449	-1.820000	5.880000	-0.910000	703.00	-0.05	-0.16	2.00	1.75	3.00	2.25	4.00	1.75	1.00	0.75	1.25	0.50	0.00	0.00	0.75	1.25	0.50	1.00	-0.148438	0.042480	0.985352	-2.450000	-3.430000	2.170000	234.00	-0.10	-0.02
0.63	2.25	3.50	4.75	4.75	8.50	13.00	1.00	8.00	1.00	1.25	2.25	2.50	6.25	3.50	1.00	1.75	-0.173340	0.041992	0.961914	-1.890000	5.810000	-0.980000	712.00	-0.05	-0.16	2.00	1.75	3.00	2.25	4.00	1.25	1.00	0.75	1.00	0.50	0.25	0.25	1.00	1.00	0.50	1.00	-0.149414	0.045898	0.981445	-2.520000	-3.640000	2.310000	230.00	-0.10	-0.03
0.64	2.25	3.25	4.75	4.25	8.50	12.75	1.00	8.00	1.25	1.25	2.00	2.50	6.25	3.50	1.00	1.75	-0.177246	0.043457	0.964844	-1.960000	5.950000	-0.980000	702.00	-0.05	-0.16	2.00	1.75	2.75	2.00	4.00	1.50	0.75	0.75	1.25	0.75	0.25	0.00	0.50	1.25	0.50	1.25	-0.156738	0.049805	0.983887	-2.450000	-3.780000	2.240000	226.00	-0.09	-0.02
0.65	2.00	3.50	5.00	4.75	8.50	12.75	1.00	8.00	1.00	1.50	2.00	2.50	6.25	3.50	1.25	1.75	-0.175293	0.040039	0.960938	-1.890000	5.740000	-0.980000	712.00	-0.05	-0.16	2.00	1.75	2.75	2.00	4.25	1.75	0.75	1.00	1.00	0.50	0.00	0.00	0.75	0.75	0.75	1.00	-0.155273	0.047363	0.975586	-2.450000	-3.920000	2.310000	226.00	-0.11	-0.04
0.66	2.00	3.50	5.00	4.75	8.50	12.75	1.00	8.00	1.00	1.50	2.00	2.50	6.25	3.75	1.00	1.75	-0.175781	0.043945	0.965332	-1.890000	6.020000	-0.980000	712.00	-0.05	-0.16	2.00	2.00	3.00	2.25	4.25	1.75	1.00	1.00	0.75	0.50	0.25	0.25	0.50	1.00	0.50	1.00	-0.147949	0.046387	0.974609	-2.450000	-4.130000	2.380000	237.00	-0.11	-0.04
0.67	2.00	3.00	4.50	4.75	8.50	12.75	1.00	8.00	1.50	1.50	2.25	2.25	6.25	3.50	1.00	1.75	-0.175293	0.041016	0.964844	-1.680000	6.160000	-0.840000	706.00	-0.05	-0.16	2.00	1.75	3.00	2.00	4.00	1.50	0.75	0.75	0.75	0.50	0.00	0.00	0.50	1.25	0.50	1.00	-0.146484	0.046387	0.981934	-2.380000	-4.200000	2.450000	216.00	-0.11	-0.02
0.68	2.00	3.75	4.75	4.75	8.50	12.75	1.00	7.75	1.25	1.25	2.00	2.25	6.25	3.50	1.00	1.75	-0.175293	0.041504	0.961914	-1.750000	6.720000	-0.700000	704.00	-0.05	-0.16	2.00	1.75	2.75	2.00	4.25	1.75	0.75	1.00	1.00	0.50	0.00	0.00	0.75	1.25	0.50	1.00	-0.153809	0.043457	0.984375	-2.240000	-4.410000	2.660000	228.00	-0.10	-0.03
0.69	2.25	3.25	4.75	4.50	8.50	12.50	1.00	7.75	1.25	1.50	2.00	2.25	6.25	3.75	1.00	1.75	-0.173340	0.038086	0.958008	-1.680000	7.490000	-0.700000	701.00	-0.05	-0.16	2.25	1.50	3.00	2.50	4.25	1.75	1.00	1.00	1.00	0.50	0.00	0.25	0.75	1.25	0.50	1.00	-0.147949	0.048828	0.975586	-2.030000	-4.550000	2.730000	243.00	-0.10	-0.03
0.70	2.25	3.25	4.75	4.50	8.50	12.25	1.00	7.75	0.75	1.25	1.75	2.25	6.25	3.25	1.00	1.75	-0.175293	0.041992	0.961914	-1.610000	8.050000	-0.560000	682.00	-0.06	-0.16	2.00	1.75	3.00	2.25	4.50	2.00	0.75	1.00	1.00	0.75	0.00	0.00	0.50	1.00	0.50	1.00	-0.150879	0.044922	0.986328	-1.890000	-4.830000	3.010000	237.00	-0.11	-0.03
0.71	2.25	3.25	4.75	4.75	8.25	12.00	1.00	7.50	1.00	1.00	2.00	1.75	6.00	3.25	1.00	1.50	-0.180176	0.043945	0.959473	-1.470000	8.750000	-0.350000	670.00	-0.06	-0.16	2.25	1.75	3.25	2.75	4.50	2.25	0.75	1.00	0.75	0.50	0.00	0.25	0.50	1.00	0.50	1.00	-0.150879	0.047852	0.983398	-1.470000	-5.110000	3.290000	247.00	-0.12	-0.04
0.72	2.25	3.25	4.75	4.75	8.25	11.75	1.00	7.50	1.00	1.00	1.75	1.75	5.75	3.25	0.75	1.75	-0.178223	0.041016	0.961426	-1.470000	9.520000	-0.350000	661.00	-0.06	-0.16	2.50	2.00	3.25	2.50	4.75	2.00	0.75	1.00	0.75	0.50	0.00	0.00	0.50	1.00	0.50	1.00	-0.148438	0.046387	0.977539	-1.260000	-5.530000	3.640000	247.00	-0.13	-0.04
0.73	2.25	3.50	5.00	4.75	8.25	11.50	1.00	7.25	0.75	1.25	1.50	1.75	5.75	3.25	0.75	1.75	-0.178223	0.042480	0.956055	-1.680000	10.220000	-0.420000	656.00	-0.07	-0.16	2.50	2.00	3.25	2.75	5.00	2.75	0.75	1.00	0.75	0.25	0.00	0.25	0.50	1.00	0.50	1.00	-0.146973	0.044922	0.984375	-1.050000	-5.740000	4.060000	261.00	-0.13	-0.05
0.74	2.00	3.25	5.00	5.00	8.25	11.50	1.00	7.00	0.75	0.75	1.50	1.50	5.50	3.25	1.00	1.50	-0.180664	0.048828	0.962891	-1.610000	10.500000	-0.420000	642.00	-0.07	-0.16	2.50	2.50	3.50	3.00	5.25	2.75	0.75	1.00	0.25	0.00	0.00	0.00	0.50	0.75	0.50	1.00	-0.147949	0.043457	0.983887	-0.700000	-5.740000	4.200000	260.00	-0.16	-0.06
0.75	2.50	3.75	5.00	5.00	8.25	11.50	1.00	7.00	0.75	0.75	1.50	1.50	5.25	2.75	0.75	1.50	-0.179688	0.041992	0.962891	-1.400000	10.150000	-0.210000	643.00	-0.08	-0.16	2.75	2.25	3.50	3.25	5.25	3.25	0.75	1.25	0.50	0.00	0.00	0.00	0.50	0.75	0.50	1.00	-0.151367	0.053223	0.983398	-0.490000	-5.390000	4.270000	275.00	-0.16	-0.06
0.76	2.25	4.00	5.00	5.25	8.50	11.25	1.00	6.75	0.50	0.75	1.25	1.25	5.00	3.00	0.75	1.50	-0.176758	0.036621	0.957031	-1.260000	10.220000	-0.210000	633.00	-0.08	-0.15	3.00	2.75	3.75	3.50	5.50	3.50	0.75	1.25	0.25	0.00	0.00	0.25	0.50	0.75	0.50	1.00	-0.147461	0.045898	0.985352	-0.490000	-5.110000	4.340000	293.00	-0.17	-0.07
0.77	2.75	4.25	5.75	5.50	8.25	11.25	1.00	6.50	0.50	0.50	1.25	1.50	4.50	2.50	0.50	1.25	-0.180176	0.036621	0.962402	-1.050000	10.710000	-0.140000	632.00	-0.10	-0.15	3.25	2.75	4.00	3.75	5.50	4.00	0.75	1.25	0.25	0.00	0.00	0.25	0.75	0.75	0.50	1.00	-0.146973	0.048340	0.979492	-0.280000	-4.620000	4.410000	309.00	-0.17	-0.07
0.78	2.75	4.25	6.00	5.75	8.50	11.00	0.75	6.50	0.00	0.50	1.25	0.75	4.25	2.50	0.75	1.25	-0.179688	0.043457	0.959473	-0.560000	11.620000	0.070000	620.00	-0.11	-0.15	3.25	3.00	4.00	4.25	5.50	4.75	0.75	1.00	0.00	0.00	0.00	0.00	0.25	0.75	0.25	1.00	-0.148438	0.047363	0.987305	0.210000	-3.990000	4.690000	308.00	-0.19	-0.07
0.79	3.25	4.25	6.25	6.00	8.25	10.75	0.75	6.25	0.25	0.50	1.00	1.00	3.75	2.50	0.50	1.00	-0.187500	0.041016	0.963867	-0.210000	12.390000	0.210000	616.00	-0.12	-0.14	3.25	3.50	4.25	4.75	5.50	5.00	0.50	1.25	0.00	0.00	0.00	0.00	0.50	0.50	0.25	0.75	-0.151855	0.056641	0.980957	1.050000	-3.430000	4.830000	322.00	-0.20	-0.09
0.80	3.25	5.00	6.25	6.00	8.25	10.75	0.75	6.00	0.25	0.25	0.75	1.00	3.75	2.00	0.50	0.75	-0.186035	0.040527	0.961914	0.420000	13.790000	0.700000	609.00	-0.13	-0.15	3.75	3.50	4.50	5.00	5.75	5.25	0.75	1.50	0.00	0.00	0.00	0.00	0.50	0.50	0.25	0.75	-0.143066	0.047852	0.983398	1.330000	-3.360000	5.110000	346.00	-0.20	-0.09
0.81	3.50	5.00	6.50	6.50	8.00	10.50	0.75	5.75	0.00	0.25	0.75	0.75	3.25	2.00	0.25	0.75	-0.186035	0.040527	0.961914	0.420000	13.790000	0.700000	597.00	-0.14	-0.14	3.75	3.50	4.75	5.25	5.50	5.50	0.75	1.50	0.00	0.00	0.00	0.00	0.25	0.50	0.50	0.75	-0.148438	0.049805	0.988770	1.750000	-3.150000	5.040000	352.00	-0.20	-0.09
0.82	4.00	5.00	6.50	6.75	8.00	10.25	0.75	5.50	0.25	0.25	0.50	0.75	3.00	2.00	0.50	0.75	-0.187988	0.044434	0.955566	0.770000	14.910000	0.770000	600.00	-0.14	-0.13	4.25	3.50	5.00	5.50	5.75	5.75	0.50	1.50	0.00	0.00	0.00	0.00	0.25	0.25	0.50	0.75	-0.147461	0.045410	0.987793	2.100000	-3.010000	4.690000	362.00	-0.21	-0.09
0.83	3.75	5.00	7.00	7.00	8.00	10.50	0.75	5.25	0.25	0.00	0.50	0.50	3.00	1.50	0.25	0.75	-0.185547	0.039062	0.961914	1.470000	15.610000	0.560000	592.00	-0.15	-0.14	4.50	3.75	4.75	5.50	5.75	6.25	0.50	1.50	0.00	0.00	0.00	0.00	0.50	0.00	0.00	0.75	-0.146973	0.055664	0.986816	2.520000	-2.870000	4.480000	364.00	-0.22	-0.09
0.84	4.25	5.00	7.00	7.50	8.00	10.25	0.75	5.25	0.00	0.00	0.75	0.75	2.50	1.75	0.25	0.75	-0.194336	0.046875	0.957031	2.660000	15.470000	0.350000	600.00	-0.16	-0.13	4.50	4.00	4.75	5.75	5.75	6.50	0.50	1.75	0.00	0.00	0.00	0.00	0.25	0.25	0.25	0.50	-0.149902	0.048340	0.996094	7.490000	-1.680000	4.410000	377.00	-0.22	-0.10
0.85	5.00	5.25	7.25	7.50	7.75	10.00	0.75	5.00	0.00	0.00	0.75	0.50	2.25	1.50	0.25	0.50	-0.195801	0.046875	0.955566	3.150000	15.260000	0.280000	595.00	-0.17	-0.13	5.00	4.25	5.00	6.00	5.50	7.00	0.50	1.75	0.00	0.00	0.00	0.00	0.25	0.50	0.25	0.75	-0.149902	0.048340	0.996094	7.490000	-1.680000	4.410000	396.00	-0.21	-0.10
0.86	5.25	5.50	7.50	7.75	7.75	10.25	0.75	5.00	0.00	0.25	0.50	0.50	1.75	1.25	0.25	0.50	-0.199707	0.045410	0.955078	3.570000	14.910000	0.280000	602.00	-0.18	-0.12	5.00	4.25	5.00	5.75	5.50	7.00	0.50	1.75	0.00	0.00	0.00	0.00	0.25	0.25	0.00	0.50	-0.150391	0.054199	0.982422	11.340000	-0.700000	4.340000	387.00	-0.22	-0.10
0.87	5.75	5.75	7.25	7.75	7.75	10.00	0.75	4.75	0.00	0.00	0.50	0.25	2.00	1.25	0.25	0.75	-0.191895	0.043945	0.953613	3.850000	14.210000	0.350000	598.00	-0.18	-0.12	5.25	4.50	5.00	6.00	5.25	7.50	0.50	1.50	0.00	0.00	0.00	0.00	0.25	0.25	0.25	0.50	-0.153320	0.062988	0.986328	13.160000	-0.980000	4.130000	397.00	-0.22	-0.10
0.88	5.50	5.75	7.50	8.25	7.75	10.00	0.75	4.75	0.00	0.00	0.50	0.25	2.00	1.25	0.25	0.50	-0.195801	0.045410	0.958984	3.990000	13.230000	0.350000	603.00	-0.18	-0.12	5.25	4.25	5.00	6.00	5.25	7.75	0.50	1.75	0.00	0.00	0.00	0.00	0.50	0.25	0.25	0.50	-0.146973	0.065430	0.986328	14.490000	-0.910000	4.130000	403.00	-0.22	-0.10
0.89	6.00	6.00	7.50	8.25	7.50	10.25	0.75	4.50	0.00	0.00	0.25	0.50	1.75	1.25	0.25	0.50	-0.198242	0.050781	0.956055	3.710000	12.460000	0.140000	604.00	-0.19	-0.12	5.50	4.75	5.00	6.25	5.25	7.75	0.50	1.75	0.00	0.00	0.00	0.00	0.25	0.25	0.25	0.50	-0.145996	0.062500	0.979980	15.120000	-1.330000	3.920000	411.00	-0.22	-0.10
0.90	6.50	6.25	7.50	8.50	7.50	10.25	0.75	4.50	0.00	0.00	0.50	0.25	1.75	1.25	0.25	0.50	-0.199707	0.047852	0.955566	2.940000	11.060000	0.210000	614.00	-0.19	-0.12	5.50	4.50	5.00	6.25	5.25	8.00	0.50	1.75	0.00	0.00	0.00	0.00	0.50	0.00	0.25	0.50	-0.152832	0.072754	0.988770	16.730000	-1.820000	3.640000	411.00	-0.22	-0.10
0.91	6.50	6.50	7.75	8.50	7.50	10.25	0.75	4.50	0.00	0.00	0.25	0.50	1.50	1.00	0.25	0.50	-0.202148	0.046387	0.958496	2.170000	10.080000	0.070000	615.00	-0.19	-0.12	5.50	4.25	5.00	6.50	5.00	8.25	0.50	2.00	0.00	0.00	0.00	0.00	0.50	0.25	0.00	0.25	-0.148926	0.073242	0.979980	13.510000	-2.170000	3.710000	414.00	-0.22	-0.11
0.92	7.00	6.75	7.75	8.75	7.25	10.00	0.50	4.50	0.25	0.00	0.25	0.25	1.75	1.25	0.00	0.50	-0.199219	0.047363	0.951660	1.470000	8.960000	-0.210000	619.00	-0.20	-0.12	5.50	4.75	4.75	6.25	5.00	8.25	0.50	1.75	0.00	0.00	0.00	0.00	0.25	0.00	0.00	0.50	-0.147949	0.080078	0.975098	11.340000	-2.380000	3.710000	406.00	-0.23	-0.11
0.93	6.75	7.00	7.75	9.00	7.50	10.25	0.50	4.25	0.00	0.00	0.25	0.25	1.50	1.00	0.00	0.50	-0.196777	0.052734	0.956055	0.490000	7.910000	-0.280000	615.00	-0.20	-0.12	5.25	5.00	5.00	6.50	5.00	8.25	0.50	1.75	0.00	0.00	0.00	0.00	0.50	0.25	0.00	0.25	-0.148438	0.080078	0.975586	9.170000	-2.310000	3.780000	414.00	-0.23	-0.11
0.94	7.50	7.00	7.75	9.25	7.25	10.25	0.75	4.25	0.00	0.00	0.25	0.25	1.75	1.00	0.25	0.50	-0.202148	0.051758	0.953125	-0.140000	7.420000	-0.350000	631.00	-0.20	-0.12	5.00	4.75	4.75	6.25	4.75	8.25	0.25	2.00	0.00	0.00	0.00	0.00	0.50	0.00	0.25	0.25	-0.153320	0.080078	0.986328	8.330000	-2.100000	3.710000	401.00	-0.23	-0.12
0.95	7.50	7.50	8.00	9.25	7.50	11.00	0.50	4.50	0.00	0.00	0.25	0.00	1.50	1.00	0.25	0.50	-0.197754	0.044922	0.955078	-0.910000	6.510000	-0.280000	645.00	-0.21	-0.12	5.00	4.25	4.50	6.00	4.75	8.25	0.50	2.00	0.00	0.00	0.00	0.00	0.25	0.00	0.25	0.25	-0.151367	0.082520	0.979492	9.030000	-2.030000	3.990000	393.00	-0.22	-0.11
0.96	7.50	7.75	8.00	9.50	7.50	10.75	0.50	4.25	0.00	0.00	0.25	0.25	1.75	0.75	0.25	0.50	-0.202148	0.049316	0.952148	-1.190000	6.230000	-0.420000	646.00	-0.21	-0.12	5.00	4.25	4.25	6.00	4.50	8.25	0.25	2.00	0.00	0.00	0.00	0.00	0.50	0.00	0.00	0.25	-0.148438	0.085449	0.993164	9.240000	-1.960000	3.710000	383.00	-0.23	-0.12
0.97	8.00	8.50	8.25	10.00	7.50	11.50	0.75	4.50	0.00	0.00	0.25	0.25	1.50	0.75	0.25	0.50	-0.199707	0.050781	0.957031	-1.750000	5.460000	-0.560000	680.00	-0.21	-0.12	4.50	3.75	4.00	5.75	4.25	8.25	0.25	2.25	0.00	0.00	0.00	0.00	0.50	0.00	0.00	0.25	-0.145996	0.085938	0.974609	9.380000	-1.960000	3.570000	369.00	-0.22	-0.13
0.98	8.25	8.75	8.25	10.50	7.50	11.50	0.50	4.50	0.00	0.00	0.25	0.25	1.75	1.00	0.25	0.50	-0.197754	0.051758	0.954590	-2.240000	4.480000	-0.560000	691.00	-0.21	-0.12	4.25	3.50	3.50	5.50	4.00	8.00	0.25	2.25	0.00	0.00	0.00	0.00	0.50	0.00	0.00	0.25	-0.137695	0.085938	0.970215	7.910000	-1.470000	3.150000	350.00	-0.22	-0.13
0.99	9.00	9.25	8.50	10.75	7.50	12.25	0.50	4.50	0.00	0.00	0.25	0.25	1.75	1.00	0.25	0.50	-0.200195	0.054688	0.957520	-2.870000	3.850000	-0.700000	717.00	-0.21	-0.12	4.00	2.75	3.25	5.25	3.50	8.00	0.25	2.00	0.00	0.00	0.00	0.00	0.50	0.00	0.00	0.25	-0.145020	0.092773	0.968262	3.640000	-0.210000	2.380000	326.00	-0.22	-0.14
1.00	9.25	10.00	8.75	11.50	7.75	13.00	0.50	4.75	0.00	0.00	0.25	0.25	1.50	0.75	0.00	0.50	-0.197754	0.048828	0.955078	-2.660000	3.500000	-0.630000	745.00	-0.22	-0.12	3.50	2.75	2.50	4.50	3.25	7.75	0.25	2.00	0.00	0.00	0.00	0.00	0.75	0.00	0.00	0.00	-0.138672	0.084473	0.965332	-1.190000	1.260000	1.680000	300.00	-0.21	-0.15
1.01	10.00	11.00	9.00	12.25	7.75	13.50	0.50	5.00	0.00	0.00	0.25	0.50	1.75	1.00	0.25	0.50	-0.200684	0.051758	0.957520	-2.170000	3.570000	-0.490000	792.00	-0.22	-0.12	3.00	2.00	2.50	4.25	3.00	7.50	0.25	2.25	0.00	0.00	0.00	0.00	0.25	0.25	0.00	0.00	-0.140137	0.087891	0.971191	-5.740000	2.100000	0.560000	281.00	-0.20	-0.15
1.02	11.00	12.25	9.25	13.25	8.00	14.75	0.50	5.00	0.00	0.00	0.25	0.25	1.75	0.75	0.25	0.50	-0.203613	0.047363	0.950195	-1.680000	3.430000	-0.490000	839.00	-0.23	-0.12	2.50	1.75	2.25	3.25	2.75	7.00	0.25	2.00	0.00	0.00	0.00	0.00	0.75	0.00	0.00	0.00	-0.128418	0.082520	0.960449	-10.220000	2.800000	-0.770000	250.00	-0.19	-0.15
1.03	12.00	13.25	9.75	14.00	8.50	15.25	0.50	5.25	0.00	0.00	0.50	0.25	2.00	0.75	0.25	0.50	-0.194336	0.055176	0.960938	-1.890000	2.450000	-0.630000	892.00	-0.23	-0.12	2.00	2.00	2.00	2.75	2.50	6.50	0.25	2.00	0.00	0.00	0.00	0.00	0.75	0.00	0.00	0.25	-0.145508	0.089355	0.973633	-16.660000	3.150000	-2.450000	232.00	-0.19	-0.16
1.04	13.00	13.75	10.00	15.00	8.50	16.25	0.50	5.25	0.00	0.00	0.50	0.50	1.50	0.75	0.25	0.50	-0.197754	0.050293	0.956055	-2.450000	1.470000	-0.770000	930.00	-0.23	-0.12	2.00	1.50	1.75	2.00	2.00	5.75	0.25	2.00	0.00	0.00	0.00	0.00	0.75	0.00	0.00	0.25	-0.128418	0.069824	0.983887	-23.520000	1.890000	-4.690000	203.00	-0.18	-0.16
1.05	14.75	14.75	10.50	15.75	8.75	17.00	0.50	5.50	0.00	0.00	0.00	0.25	2.00	0.75	0.00	0.50	-0.197754	0.045898	0.955078	-1.190000	2.380000	-0.770000	980.00	-0.24	-0.12	1.75	1.25	1.50	1.50	1.75	4.50	0.25	1.75	0.00	0.00	0.00	0.25	1.00	0.00	0.00	0.25	-0.128418	0.092285	0.995605	-28.280001	1.750000	-9.660000	174.00	-0.16	-0.17
1.06	15.00	16.25	11.00	16.75	9.00	18.00	0.50	5.75	0.00	0.00	0.00	0.50	2.00	0.50	0.25	0.50	-0.199219	0.048828	0.953613	-0.560000	2.590000	-0.630000	1033.00	-0.24	-0.12	1.50	1.00	1.25	1.50	1.25	3.25	0.25	1.50	0.00	0.00	0.00	0.00	1.00	0.00	0.00	0.25	-0.136719	0.084961	0.984375	-28.700001	1.890000	-13.860000	141.00	-0.17	-0.17
1.07	16.50	17.25	11.25	17.75	9.25	18.50	0.50	5.75	0.00	0.00	0.25	0.25	1.75	1.25	0.00	0.50	-0.192383	0.045898	0.959473	-0.420000	2.520000	-0.700000	1081.00	-0.24	-0.12	1.25	0.50	1.00	1.25	1.00	2.25	0.25	1.25	0.00	0.00	0.00	0.25	1.00	0.00	0.00	0.25	-0.152344	0.086914	1.020020	-31.780001	2.030000	-17.780001	113.00	-0.15	-0.17
1.08	17.25	18.50	11.75	18.25	9.25	19.25	0.50	6.00	0.00	0.00	0.25	0.25	2.25	0.75	0.00	0.50	-0.193848	0.054199	0.955566	-0.490000	2.800000	-0.770000	1124.00	-0.24	-0.12	0.75	0.50	0.75	0.75	0.75	1.50	0.25	1.00	0.00	0.00	0.00	0.25	0.75	0.00	0.00	0.25	-0.129395	0.073730	1.039062	-27.299999	9.450000	-21.000000	83.00	-0.13	-0.17
1.09	18.00	19.25	12.25	19.00	9.50	20.00	0.50	6.25	0.00	0.00	0.25	0.50	2.50	0.75	0.25	0.50	-0.188477	0.051270	0.955078	-0.630000	2.800000	-0.700000	1174.00	-0.24	-0.12	0.75	0.25	0.75	0.50	0.75	1.00	0.00	0.50	0.00	0.00	0.00	0.00	1.25	0.00	0.00	0.25	-0.104004	0.086914	1.064453	14.910000	60.060001	-21.000000	63.00	-0.13	-0.17
1.10	18.25	20.25	12.00	19.50	9.50	20.75	0.50	6.50	0.00	0.00	0.25	0.50	2.25	0.50	0.00	0.75	-0.181641	0.053223	0.955566	-1.820000	1.890000	-0.840000	1195.00	-0.24	-0.13	0.75	0.25	0.50	0.75	0.50	0.75	0.00	0.50	0.00	0.00	0.00	0.00	0.75	0.00	0.00	0.00	-0.119141	0.133301	1.091309	39.480000	95.269997	-23.379999	52.00	-0.17	-0.17
1.11	18.75	20.50	12.25	20.25	9.75	21.50	0.50	6.50	0.00	0.00	0.25	0.50	2.75	0.75	0.00	0.75	-0.181641	0.054688	0.952148	-3.290000	-0.000000	-0.910000	1231.00	-0.24	-0.13	0.50	0.50	0.25	0.50	0.25	0.75	0.00	0.25	0.00	0.00	0.00	0.00	0.50	0.00	0.00	0.00	-0.142090	0.146973	1.173828	43.750000	130.410004	-29.540001	37.00	0.00	0.00
1.12	18.25	20.25	12.75	20.25	9.75	21.75	0.75	7.00	0.00	0.00	0.25	0.50	3.00	0.75	0.25	0.75	-0.183594	0.053711	0.957031	-4.760000	-1.960000	-1.260000	1248.00	-0.24	-0.13	0.75	0.25	0.25	0.50	0.25	0.25	0.00	0.25	0.00	0.00	0.00	0.00	0.50	0.00	0.00	0.00	-0.113281	0.168945	1.306641	44.099998	154.630005	-38.290001	32.00	0.00	0.00
1.13	18.25	20.50	12.50	20.50	10.00	22.25	0.75	7.25	0.00	0.00	0.50	0.50	3.00	0.75	0.00	0.75	-0.187988	0.046875	0.958496	-4.970000	-2.100000	-1.470000	1262.00	-0.24	-0.13	0.75	0.50	0.75	0.25	0.25	0.00	0.00	0.00	0.00	0.00	0.00	0.00	0.00	0.00	0.00	0.00	-0.142578	0.172363	1.498047	45.220001	154.910004	-47.459999	26.00	0.00	0.00
1.14	18.00	20.50	12.75	20.50	10.25	22.75	0.75	7.50	0.00	0.00	0.50	0.75	3.25	0.75	0.25	0.75	-0.186035	0.051270	0.961426	-4.130000	-0.700000	-1.260000	1282.00	-0.23	-0.13	0.50	0.00	0.50	0.25	0.25	0.00	0.00	0.00	0.00	0.00	0.00	0.00	0.25	0.00	0.00	0.00	-0.072754	0.183594	1.237305	52.220001	155.259995	-57.470001	18.00	0.00	0.00
1.15	18.25	20.50	12.50	20.25	10.25	23.25	0.75	7.75	0.00	0.00	0.50	0.75	3.50	1.00	0.25	0.75	-0.182617	0.049316	0.954102	-3.150000	-0.140000	-0.980000	1293.00	-0.23	-0.13	0.50	0.00	0.50	0.00	0.25	0.00	0.00	0.00	0.00	0.00	0.00	0.00	0.00	0.00	0.00	0.00	-0.217773	0.260742	1.520508	64.050003	145.389999	-67.129997	13.00	0.00	0.00
1.16	17.50	20.25	12.75	20.75	10.25	23.75	0.75	7.75	0.00	0.00	0.50	0.75	3.50	0.00	0.00	0.75	-0.180664	0.048340	0.957520	-2.100000	0.770000	-0.910000	1285.00	-0.23	-0.14	0.50	0.50	0.50	0.00	0.25	0.00	0.00	0.00	0.00	0.00	0.00	0.00	0.00	0.00	0.00	0.00	0.223145	0.021484	1.381348	74.620003	137.059998	-78.330002	18.00	0.00	0.00
1.17	17.50	19.75	12.50	20.75	10.25	24.25	0.75	8.25	0.00	0.00	0.50	0.75	3.75	0.50	0.50	0.75	-0.188965	0.053711	0.958496	-0.840000	2.660000	-0.700000	1303.00	-0.22	-0.14	0.50	0.25	0.50	0.25	0.25	0.00	0.00	0.00	0.00	0.00	0.00	0.00	0.00	0.00	0.00	0.00	0.302246	0.089355	1.488770	66.150002	118.300003	-84.769997	19.00	0.00	0.00
1.18	16.50	19.50	12.00	20.75	10.00	24.75	0.75	8.50	0.00	0.00	0.25	0.75	3.75	0.75	0.25	0.75	-0.182617	0.051758	0.959473	-0.140000	3.780000	-0.490000	1288.00	-0.22	-0.14	0.50	0.25	0.25	0.00	0.25	0.00	0.00	0.00	0.00	0.00	0.00	0.00	0.00	0.00	0.00	0.00	0.550781	0.229980	1.375977	62.369999	97.370003	-82.739998	13.00	0.00	0.00
1.19	16.75	19.25	12.00	20.75	10.00	25.25	0.75	8.75	0.00	0.00	0.25	1.00	4.25	1.00	0.25	0.75	-0.181641	0.049316	0.961914	0.070000	4.060000	-0.420000	1306.00	-0.22	-0.14	0.50	0.00	0.25	0.25	0.25	0.00	0.00	0.00	0.00	0.00	0.00	0.00	0.00	0.00	0.00	0.00	0.518066	0.195312	1.197266	54.180000	74.830002	-78.959999	13.00	0.00	0.00
1.20	15.75	19.00	11.50	20.25	10.00	25.50	0.75	9.00	0.00	0.00	0.50	1.00	4.50	0.75	0.25	1.00	-0.177734	0.052734	0.963867	0.070000	3.430000	-0.490000	1293.00	-0.21	-0.15	0.50	0.50	0.25	0.00	0.25	0.00	0.00	0.00	0.00	0.00	0.00	0.00	0.00	0.00	0.00	0.00	0.753418	0.234375	1.448242	8.470000	47.529999	-75.599998	15.00	0.00	0.00
1.21	15.00	18.25	11.50	20.50	9.75	26.00	0.75	9.25	0.00	0.00	0.75	1.00	5.00	0.75	0.25	1.00	-0.179688	0.050781	0.960449	0.070000	3.150000	-0.420000	1295.00	-0.21	-0.15	0.50	0.25	0.50	0.25	0.25	0.00	0.00	0.00	0.00	0.00	0.00	0.00	0.00	0.00	0.00	0.00	0.692871	0.405762	1.315430	-19.670000	18.690001	-58.939999	19.00	0.00	0.00
1.22	14.00	17.75	11.00	20.00	9.50	26.75	0.75	9.75	0.00	0.00	1.00	1.00	5.25	1.00	0.25	0.75	-0.182129	0.055176	0.961914	0.490000	3.710000	-0.280000	1287.00	-0.20	-0.16	0.50	0.00	0.25	0.25	0.25	0.00	0.00	0.00	0.00	0.00	0.00	0.00	0.00	0.00	0.00	0.00	0.696289	0.474609	1.060547	-22.820000	-0.630000	-44.380001	13.00	0.00	0.00
1.23	12.75	16.75	10.50	19.75	9.50	27.00	0.75	10.00	0.00	0.00	0.75	1.25	5.50	0.75	0.25	1.00	-0.183105	0.051758	0.963379	0.980000	4.340000	0.070000	1265.00	-0.20	-0.16	0.25	0.00	0.25	0.00	0.25	0.00	0.00	0.00	0.00	0.00	0.00	0.00	0.00	0.00	0.00	0.00	0.657715	0.497070	0.948730	-9.240000	-13.650000	-35.349998	8.00	0.00	0.00
1.24	11.75	16.00	10.25	19.25	9.25	27.25	0.75	10.50	0.00	0.00	0.75	1.50	5.75	0.50	0.25	1.25	-0.176758	0.053711	0.958008	1.540000	4.480000	0.210000	1251.00	-0.19	-0.17	0.25	0.00	0.25	0.00	0.25	0.00	0.00	0.00	0.00	0.00	0.00	0.00	0.00	0.00	0.00	0.00	0.638672	0.445312	0.938477	6.860000	-22.469999	-28.559999	8.00	0.00	0.00
1.25	10.50	15.00	9.75	18.75	9.25	27.75	0.75	11.00	0.00	0.00	1.00	1.75	6.00	0.75	0.25	1.00	-0.180176	0.056641	0.961426	1.400000	3.990000	0.140000	1239.00	-0.18	-0.18	0.25	0.25	0.25	0.00	0.00	0.00	0.00	0.00	0.00	0.00	0.00	0.00	0.00	0.00	0.00	0.00	0.644531	0.398438	0.981934	14.840000	-31.570000	-21.559999	8.00	0.00	0.00
1.26	9.25	13.75	9.25	18.25	9.00	28.25	0.50	11.50	0.00	0.00	0.75	1.50	6.50	0.50	0.25	1.25	-0.177734	0.053223	0.958496	0.770000	3.080000	-0.210000	1208.00	-0.18	-0.19	0.50	0.00	0.25	0.00	0.00	0.00	0.00	0.00	0.00	0.00	0.00	0.00	0.00	0.00	0.00	0.00	0.601562	0.381348	1.034180	16.730000	-55.930000	-5.810000	8.00	0.00	0.00
1.27	8.50	12.50	9.00	17.50	9.00	28.50	0.75	12.00	0.00	0.00	1.00	1.75	6.75	0.75	0.25	1.25	-0.175293	0.057129	0.964844	0.420000	2.800000	-0.280000	1202.00	-0.17	-0.19	0.25	0.50	0.25	0.00	0.25	0.00	0.00	0.00	0.00	0.00	0.00	0.00	0.00	0.00	0.00	0.00	0.555176	0.361816	1.028809	19.460001	-68.250000	0.560000	13.00	0.00	0.00
1.28	7.75	11.50	8.75	17.25	8.75	29.25	0.75	12.50	0.00	0.25	1.25	1.75	6.75	0.50	0.50	1.25	-0.180176	0.054199	0.958008	0.070000	2.590000	-0.350000	1198.00	-0.16	-0.19	0.25	0.00	0.00	0.00	0.25	0.00	0.00	0.00	0.00	0.00	0.00	0.00	0.00	0.00	0.00	0.00	0.499023	0.344238	1.013184	21.910000	-78.680000	5.740000	5.00	0.00	0.00
1.29	7.25	10.50	8.50	16.50	8.50	29.50	0.75	13.00	0.00	0.00	1.25	1.75	7.25	0.75	0.25	1.25	-0.181152	0.050781	0.954102	-0.070000	2.450000	-0.350000	1181.00	-0.16	-0.20	0.25	0.00	0.00	0.00	0.25	0.00	0.00	0.00	0.00	0.00	0.00	0.00	0.00	0.00	0.00	0.00	0.446289	0.329102	1.018066	23.379999	-87.570000	10.290000	5.00	0.00	0.00
1.30	6.75	9.50	8.00	15.75	8.50	29.50	0.75	13.50	0.00	0.00	1.25	2.00	7.50	0.75	0.25	1.25	-0.177246	0.053711	0.954102	-0.140000	2.310000	-0.490000	1165.00	-0.15	-0.20	0.50	0.25	0.25	0.00	0.25	0.00	0.00	0.00	0.00	0.00	0.00	0.00	0.00	0.00	0.00	0.00	0.401367	0.315430	1.040039	24.570000	-94.849998	14.420000	13.00	0.00	0.00
1.31	6.25	8.75	7.75	15.25	8.50	30.00	0.75	13.75	0.00	0.25	1.50	2.50	7.75	1.00	0.75	1.25	-0.178223	0.057617	0.961426	-0.210000	1.960000	-0.490000	1174.00	-0.14	-0.20	0.25	0.00	0.00	0.00	0.25	0.00	0.00	0.00	0.00	0.00	0.00	0.00	0.00	0.00	0.00	0.00	0.370605	0.321289	1.096680	25.969999	-102.410004	18.410000	5.00	0.00	0.00
1.32	5.75	8.25	7.25	14.50	8.25	30.50	0.75	14.25	0.00	0.00	1.25	2.50	8.25	0.25	0.50	1.25	-0.179688	0.058105	0.959961	-0.210000	2.240000	-0.560000	1151.00	-0.14	-0.21	0.00	0.00	0.00	0.00	0.25	0.00	0.00	0.00	0.00	0.00	0.00	0.00	0.00	0.00	0.00	0.00	0.336914	0.314453	1.148926	26.809999	-110.949997	22.540001	3.00	0.00	0.00
1.33	5.25	7.25	6.75	13.75	8.00	30.25	0.75	14.50	0.00	0.25	1.50	2.75	8.50	0.75	0.50	1.25	-0.180664	0.058105	0.960449	-0.140000	2.660000	-0.560000	1136.00	-0.13	-0.22	0.25	0.25	0.25	0.00	0.25	0.00	0.00	0.00	0.00	0.00	0.00	0.00	0.00	0.00	0.00	0.00	0.299316	0.328613	1.203125	27.860001	-120.680000	27.299999	10.00	0.00	0.00
1.34	5.00	7.25	6.50	13.25	7.75	30.50	0.75	15.00	0.00	0.25	1.50	2.50	8.75	1.00	0.25	1.50	-0.177246	0.055176	0.961914	0.070000	2.730000	-0.280000	1133.00	-0.13	-0.22	0.25	0.25	0.00	0.00	0.00	0.00	0.00	0.00	0.00	0.00	0.00	0.00	0.00	0.00	0.00	0.00	0.250000	0.327148	1.211914	29.190001	-129.850006	31.920000	5.00	0.00	0.00
1.35	4.50	6.75	6.00	12.25	7.75	30.25	0.75	15.25	0.00	0.25	1.75	3.00	9.00	0.50	0.50	1.50	-0.175781	0.054688	0.958496	0.070000	2.800000	-0.210000	1116.00	-0.12	-0.23	0.25	0.00	0.25	0.00	0.25	0.00	0.00	0.00	0.00	0.00	0.00	0.00	0.00	0.00	0.00	0.00	0.179688	0.311035	1.219238	30.450001	-137.550003	36.259998	8.00	0.00	0.00
1.36	4.25	6.25	6.00	11.25	7.50	30.50	0.75	15.50	0.00	0.25	1.50	3.25	9.25	0.75	0.50	1.50	-0.176270	0.058594	0.958984	-0.140000	3.360000	0.000000	1106.00	-0.11	-0.23	0.25	0.00	0.00	0.00	0.25	0.00	0.00	0.00	0.00	0.00	0.00	0.00	0.00	0.00	0.00	0.00	0.139648	0.291016	1.217773	31.080000	-143.080002	40.250000	5.00	0.00	0.00
1.37	3.75	6.00	5.50	10.50	7.50	30.25	0.75	15.75	0.00	0.25	2.25	3.25	9.50	1.00	0.50	1.75	-0.172852	0.058594	0.951172	-0.140000	3.570000	0.140000	1099.00	-0.10	-0.23	0.50	0.25	0.00	0.00	0.25	0.00	0.00	0.00	0.00	0.00	0.00	0.00	0.00	0.00	0.00	0.00	0.089355	0.270996	1.235840	29.960001	-147.279999	43.119999	10.00	0.00	0.00
1.38	3.75	5.75	5.00	9.75	7.25	30.25	0.75	16.00	0.00	0.25	2.00	3.75	10.00	1.00	0.50	1.75	-0.174316	0.058105	0.961914	-0.280000	2.870000	0.210000	1091.00	-0.10	-0.24	0.00	0.25	0.00	0.25	0.25	0.00	0.00	0.00	0.00	0.00	0.00	0.00	0.00	0.00	0.00	0.00	0.043457	0.260742	1.267090	28.910000	-150.360001	44.869999	8.00	0.00	0.00
1.39	3.50	5.50	5.00	9.25	7.00	29.75	0.75	16.25	0.00	0.25	2.50	4.00	10.25	1.25	0.50	1.75	-0.176758	0.057617	0.953125	-0.560000	2.520000	-0.140000	1089.00	-0.09	-0.24	0.25	0.25	0.00	0.00	0.00	0.00	0.00	0.00	0.00	0.00	0.00	0.00	0.00	0.00	0.00	0.00	0.003418	0.249023	1.286133	28.350000	-153.789993	45.639999	5.00	0.00	0.00
1.40	3.25	5.50	4.25	8.75	6.75	29.75	0.75	16.50	0.00	0.50	2.50	4.50	10.75	1.25	0.75	1.75	-0.160645	0.050293	0.963379	-0.910000	1.820000	-0.490000	1088.00	-0.08	-0.24	0.00	0.00	0.00	0.00	0.00	0.00	0.00	0.00	0.00	0.00	0.00	0.00	0.00	0.00	0.00	0.00	-0.029297	0.223633	1.276367	26.950001	-156.309998	45.430000	0.00	0.00	0.00
1.41	3.00	5.25	4.00	8.50	6.50	29.00	0.75	16.75	0.00	0.75	2.75	4.75	11.25	1.25	0.50	2.00	-0.162598	0.055176	0.958984	-1.120000	1.820000	-0.910000	1081.00	-0.08	-0.25	0.25	0.00	0.00	0.00	0.00	0.00	0.00	0.00	0.00	0.00	0.00	0.00	0.00	0.00	0.00	0.00	-0.060059	0.209473	1.293457	24.500000	-158.270004	44.869999	3.00	0.00	0.00
1.42	2.75	5.25	3.75	7.75	6.50	28.75	0.75	16.75	0.00	1.00	3.00	5.50	11.50	1.50	0.75	2.00	-0.166992	0.062500	0.958984	-1.330000	1.820000	-1.260000	1085.00	-0.07	-0.25	0.25	0.00	0.00	0.00	0.00	0.00	0.00	0.00	0.00	0.00	0.00	0.00	0.00	0.00	0.00	0.00	-0.111816	0.185059	1.297363	21.559999	-159.039993	44.450001	3.00	0.00	0.00
1.43	2.75	5.00	3.50	7.50	6.00	28.00	0.75	16.75	0.00	1.00	3.50	6.00	12.00	1.00	1.00	2.25	-0.168457	0.060547	0.960938	-1.120000	2.100000	-1.610000	1078.00	-0.06	-0.25	0.25	0.00	0.00	0.00	0.00	0.00	0.00	0.00	0.00	0.00	0.00	0.00	0.00	0.00	0.00	0.00	-0.137695	0.176758	1.265625	16.940001	-159.110001	44.590000	3.00	0.00	0.00
1.44	2.25	5.00	3.25	7.00	5.75	27.25	0.75	16.75	0.00	1.00	3.75	6.75	12.25	1.50	0.75	2.25	-0.174316	0.061035	0.961426	-1.120000	2.380000	-1.680000	1068.00	-0.05	-0.25	0.00	0.00	0.25	0.00	0.00	0.00	0.00	0.00	0.00	0.00	0.00	0.00	0.00	0.00	0.00	0.00	-0.182129	0.187012	1.241699	10.220000	-157.919998	44.310001	3.00	0.00	0.00
1.45	2.50	4.75	3.00	6.50	5.75	26.50	0.75	17.00	0.25	1.25	4.75	7.25	12.75	1.50	0.75	2.50	-0.171387	0.063965	0.958984	-0.280000	3.360000	-1.680000	1083.00	-0.05	-0.25	0.25	0.00	0.00	0.00	0.00	0.00	0.00	0.00	0.00	0.00	0.00	0.00	0.00	0.00	0.00	0.00	-0.247559	0.250488	1.219727	3.150000	-153.580002	42.630001	3.00	0.00	0.00
1.46	2.00	4.25	2.75	6.25	5.50	25.75	0.75	17.00	0.00	1.50	5.50	7.75	13.25	1.75	0.75	2.50	-0.171387	0.063965	0.958984	-0.280000	3.360000	-1.680000	1076.00	-0.03	-0.25	0.25	0.00	0.00	0.00	0.00	0.00	0.00	0.00	0.00	0.00	0.00	0.00	0.00	0.00	0.00	0.00	-0.292480	0.294434	1.201172	2.730000	-151.619995	41.650002	3.00	0.00	0.00
1.47	2.25	4.25	2.75	6.00	5.00	25.00	0.75	16.75	0.25	1.75	6.25	8.00	13.50	1.50	1.00	2.75	-0.170410	0.060059	0.957520	0.210000	4.830000	-1.820000	1079.00	-0.03	-0.25	0.25	0.00	0.00	0.25	0.25	0.00	0.00	0.00	0.00	0.00	0.00	0.00	0.00	0.00	0.00	0.00	-0.324219	0.312988	1.134766	3.500000	-148.539993	41.299999	8.00	0.00	0.00
1.48	2.00	3.75	2.25	5.75	4.50	24.00	0.75	16.75	0.00	1.50	7.00	8.50	14.00	1.75	1.00	2.75	-0.165039	0.060059	0.955566	0.350000	5.250000	-1.680000	1061.00	-0.02	-0.26	0.25	0.00	0.00	0.00	0.25	0.00	0.00	0.00	0.00	0.00	0.00	0.00	0.00	0.00	0.00	0.00	-0.366211	0.337891	1.062988	5.390000	-143.500000	42.000000	5.00	0.00	0.00
1.49	2.00	3.75	2.00	5.25	4.00	23.00	0.75	16.75	0.00	2.00	7.75	9.00	14.50	2.25	1.25	3.00	-0.156738	0.054199	0.956055	0.490000	5.740000	-1.680000	1067.00	-0.01	-0.26	0.00	0.00	0.00	0.25	0.00	0.00	0.00	0.00	0.00	0.00	0.00	0.00	0.00	0.00	0.00	0.00	-0.395020	0.359863	0.991211	6.930000	-136.220001	43.889999	3.00	0.00	0.00
1.50	1.75	3.75	2.00	5.00	3.75	21.75	0.75	16.50	0.25	2.25	8.25	9.50	15.00	2.00	1.25	3.50	-0.163574	0.062500	0.963867	0.140000	6.160000	-1.750000	1063.00	0.00	-0.26	0.25	0.00	0.00	0.00	0.25	0.00	0.00	0.00	0.00	0.00	0.00	0.00	0.00	0.00	0.00	0.00	-0.421387	0.362305	0.939453	8.960000	-127.330002	46.830002	5.00	0.00	0.00
1.51	1.25	4.00	1.75	4.50	3.00	21.00	0.75	16.25	0.25	2.75	9.00	10.00	15.50	2.25	1.25	3.75	-0.165039	0.060059	0.965332	-0.980000	6.650000	-1.750000	1058.00	0.01	-0.26	0.00	0.25	0.00	0.00	0.00	0.00	0.00	0.00	0.00	0.00	0.00	0.00	0.00	0.00	0.00	0.00	-0.428711	0.360352	0.898438	12.320000	-118.300003	50.680000	2.00	0.00	0.00
1.52	1.25	3.75	1.75	4.50	2.50	19.25	0.75	16.00	0.50	3.25	9.75	10.50	16.00	2.75	1.25	3.75	-0.164551	0.059082	0.958496	-1.960000	7.490000	-2.450000	1057.00	0.02	-0.26	0.25	0.00	0.00	0.00	0.00	0.00	0.00	0.00	0.00	0.00	0.00	0.00	0.00	0.00	0.00	0.00	-0.443359	0.314941	0.884766	15.330000	-109.690002	54.880001	3.00	0.00	0.00
1.53	1.50	3.25	1.00	3.75	2.00	17.50	0.75	15.75	0.75	4.00	10.50	11.50	16.50	2.75	1.50	3.75	-0.159668	0.061035	0.967285	-2.800000	8.890000	-3.290000	1047.00	0.04	-0.25	0.25	0.25	0.00	0.00	0.00	0.00	0.00	0.00	0.00	0.00	0.00	0.00	0.00	0.00	0.00	0.00	-0.463867	0.272949	0.849609	18.549999	-101.849998	58.450001	5.00	0.00	0.00
1.54	1.25	2.50	1.00	3.50	2.00	15.50	1.00	15.25	1.25	5.25	11.25	12.00	17.00	3.00	1.50	4.00	-0.165039	0.063477	0.964844	-3.220000	11.060000	-4.550000	1049.00	0.06	-0.24	0.25	0.00	0.00	0.00	0.00	0.00	0.00	0.00	0.00	0.00	0.00	0.00	0.00	0.00	0.00	0.00	-0.506836	0.209473	0.841309	22.540001	-94.639999	60.200001	3.00	0.00	0.00
1.55	1.00	3.00	1.25	3.25	1.75	13.50	0.75	14.50	1.75	7.00	12.25	13.00	17.25	3.75	1.75	4.00	-0.169922	0.062500	0.971191	-2.450000	13.650000	-6.020000	1069.00	0.07	-0.23	0.25	0.00	0.25	0.00	0.00	0.00	0.00	0.00	0.00	0.00	0.00	0.00	0.00	0.00	0.00	0.00	-0.555664	0.109863	0.814453	25.549999	-86.099998	58.590000	5.00	0.00	0.00
1.56	0.75	2.50	1.00	3.00	1.25	12.00	1.00	13.75	2.50	8.25	13.00	13.50	17.50	4.50	2.00	4.50	-0.170898	0.065430	0.958496	-0.770000	17.219999	-7.560000	1076.00	0.09	-0.22	0.25	0.00	0.00	0.00	0.00	0.00	0.00	0.00	0.00	0.00	0.00	0.00	0.00	0.00	0.00	0.00	-0.626465	0.004395	0.825684	26.320000	-78.470001	53.900002	3.00	0.00	0.00
1.57	1.00	2.50	1.00	3.00	1.25	10.50	1.00	13.00	3.25	8.75	14.00	14.50	17.75	5.00	2.00	4.50	-0.152832	0.071777	1.012695	1.820000	21.980000	-9.450000	1094.00	0.10	-0.21	0.25	0.00	0.25	0.25	0.00	0.00	0.00	0.00	0.00	0.00	0.00	0.00	0.00	0.00	0.00	0.00	-0.709961	-0.087402	0.810547	25.059999	-70.279999	46.480000	8.00	0.00	0.00
1.58	1.25	2.25	0.75	2.50	1.00	9.50	1.00	12.25	4.25	9.50	14.75	14.75	17.75	6.25	2.00	4.75	-0.178711	0.067871	0.959961	10.290000	37.099998	-10.430000	1104.00	0.12	-0.20	0.00	0.00	0.00	0.00	0.00	0.00	0.00	0.00	0.00	0.00	0.00	0.00	0.00	0.00	0.00	0.00	-0.812988	-0.168945	0.743652	22.820000	-60.270000	37.380001	0.00	0.00	0.00
1.59	1.00	2.25	0.50	2.50	1.00	8.75	1.00	11.00	5.50	10.25	15.75	15.25	17.75	7.00	2.25	4.75	-0.194336	0.056641	0.964355	17.850000	49.840000	-10.430000	1120.00	0.13	-0.18	0.00	0.00	0.00	0.00	0.00	0.00	0.00	0.00	0.00	0.00	0.00	0.00	0.00	0.00	0.00	0.00	-0.954590	-0.267578	0.705078	18.480000	-48.090000	27.370001	0.00	0.00	0.00
1.60	0.75	2.50	0.75	2.25	0.75	8.25	1.00	10.25	7.00	11.00	16.50	16.00	17.50	8.00	2.50	4.75	-0.229004	0.070312	1.007324	33.880001	54.110001	-16.520000	1153.00	0.14	-0.17	0.00	0.00	0.00	0.00	0.25	0.00	0.00	0.00	0.00	0.00	0.00	0.00	0.00	0.00	0.00	0.00	-1.108398	-0.345703	0.654297	12.110000	-33.599998	17.570000	3.00	0.00	0.00
1.61	1.00	2.25	1.00	2.00	0.75	7.50	1.00	9.25	8.00	11.50	17.25	16.75	17.25	8.50	2.50	5.00	-0.214844	0.075684	0.973145	41.720001	78.959999	-13.020000	1167.00	0.15	-0.16	0.25	0.25	0.00	0.00	0.00	0.00	0.00	0.00	0.00	0.00	0.00	0.00	0.00	0.00	0.00	0.00	-1.296875	-0.412109	0.637207	4.060000	-16.799999	8.610000	5.00	0.00	0.00
1.62	1.00	2.25	0.50	2.00	0.75	7.00	1.25	8.50	8.75	12.25	18.00	16.75	16.75	9.00	2.50	4.75	-0.231445	0.075195	0.972168	49.630001	103.669998	-9.590000	1173.00	0.16	-0.15	0.25	0.00	0.00	0.00	0.00	0.00	0.00	0.00	0.00	0.00	0.00	0.00	0.00	0.00	0.00	0.00	-1.457520	-0.493652	0.590820	-6.650000	1.610000	1.050000	3.00	0.00	0.00
1.63	1.00	1.75	0.50	1.75	0.50	6.50	1.25	7.75	9.25	13.00	18.50	17.00	16.50	9.75	2.25	5.00	-0.261230	0.088867	0.976074	52.080002	129.779999	-7.980000	1171.00	0.17	-0.14	0.25	0.00	0.00	0.25	0.00	0.00	0.00	0.00	0.00	0.00	0.00	0.00	0.00	0.00	0.00	0.00	-1.579102	-0.500977	0.562500	-19.460001	22.960001	-6.370000	5.00	0.00	0.00
1.64	1.00	2.00	0.50	2.00	0.50	6.00	1.25	7.00	10.00	13.50	18.75	17.25	15.75	10.25	2.75	5.00	-0.294434	0.112793	1.016602	47.740002	161.699997	-8.680000	1182.00	0.17	-0.13	0.00	0.25	0.00	0.00	0.00	0.00	0.00	0.00	0.00	0.00	0.00	0.00	0.00	0.00	0.00	0.00	-1.716309	-0.422852	0.549316	-49.770000	70.840004	-20.580000	2.00	0.00	0.00
1.65	1.00	2.25	0.50	1.50	0.75	5.75	1.50	6.50	10.25	13.75	19.25	17.25	15.25	11.00	2.75	5.25	-0.314941	0.108887	1.108398	41.860001	192.990005	-10.080000	1190.00	0.17	-0.12	0.00	0.25	0.00	0.25	0.00	0.00	0.00	0.00	0.00	0.00	0.00	0.00	0.00	0.00	0.00	0.00	-0.327148	1.379395	0.613281	-49.770000	70.840004	-20.580000	5.00	0.00	0.00
1.66	1.00	2.00	0.50	1.50	0.50	5.00	1.75	5.75	10.50	14.25	19.50	17.25	14.50	11.50	2.75	5.25	-0.402344	0.117676	1.050293	26.880001	254.940002	-11.270000	1178.00	0.18	-0.11	0.75	0.75	0.25	0.25	0.25	0.00	0.00	0.00	0.00	0.00	0.00	0.00	0.00	0.00	0.00	0.00	0.665039	0.409180	1.259766	-28.910000	155.050003	-61.180000	23.00	0.00	0.00
1.67	0.75	1.75	0.50	1.50	0.50	4.00	2.00	5.25	10.75	14.75	19.75	16.75	13.50	12.00	2.75	5.25	-0.402344	0.117676	1.050293	26.880001	254.940002	-11.270000	1160.00	0.19	-0.10	1.25	1.25	0.50	0.75	0.25	0.00	0.00	0.00	0.00	0.00	0.00	0.00	0.00	0.00	0.00	0.00	0.870117	0.513672	1.685059	-30.030001	130.830002	-74.340004	41.00	0.00	0.00
1.68	0.50	1.50	0.50	1.00	0.50	3.50	2.50	4.50	10.75	14.75	19.75	16.75	12.50	12.50	2.75	5.25	-0.489746	0.115234	1.130859	19.809999	300.160004	-14.280000	1136.00	0.20	-0.09	2.25	3.25	1.00	1.25	0.25	0.00	0.00	0.00	0.00	0.00	0.00	0.00	0.00	0.00	0.00	0.00	0.154297	0.497070	0.279785	-52.150002	78.470001	-74.480003	81.00	-0.36	-0.05
1.69	0.75	2.25	0.50	0.50	0.25	2.50	2.75	3.75	10.75	14.75	19.75	16.50	11.25	12.75	2.75	5.25	-0.543457	0.113281	1.091797	18.620001	324.100006	-16.379999	1107.00	0.20	-0.08	4.50	7.00	1.50	2.00	0.50	0.00	0.00	0.00	0.00	0.00	0.00	0.00	0.00	0.00	0.00	0.00	-0.039551	0.784668	-0.229492	-41.509998	127.959999	-62.090000	155.00	-0.37	-0.06
1.70	0.75	1.75	0.50	0.75	0.50	2.00	3.00	3.00	10.25	14.75	19.50	15.75	10.00	13.00	2.75	5.50	-0.565430	0.135742	1.065918	18.690001	351.049988	-18.760000	1071.00	0.21	-0.07	8.75	9.75	1.75	3.50	0.50	0.00	0.00	0.00	0.00	0.00	0.00	0.00	0.00	0.00	0.00	0.00	-0.234375	0.772461	0.850586	-21.700001	229.040009	-38.639999	244.00	-0.37	-0.05
1.71	0.75	1.75	0.25	1.00	0.50	1.25	3.25	2.25	10.00	14.50	19.25	15.50	9.00	13.00	2.75	5.50	-0.621094	0.149902	1.118164	18.690001	380.660004	-22.820000	1035.00	0.21	-0.06	12.00	12.00	2.50	5.50	0.50	0.00	0.00	0.00	0.00	0.00	0.00	0.00	0.00	0.00	0.00	0.00	-0.247070	0.569824	2.540039	-40.459999	266.279999	-16.940001	328.00	-0.37	-0.05
1.72	0.50	1.50	0.25	0.50	0.25	1.25	3.25	2.25	9.00	14.00	18.75	15.00	8.25	13.00	2.75	5.50	-0.677734	0.184082	1.173340	15.610000	414.959991	-29.610001	986.00	0.22	-0.06	15.00	14.00	3.50	8.00	0.75	1.25	0.00	0.00	0.00	0.00	0.00	0.00	0.00	0.00	0.00	0.00	-0.366211	0.170898	2.747559	-54.950001	217.559998	-3.290000	433.00	-0.36	-0.06
1.73	0.25	1.00	0.25	0.00	0.25	0.75	3.25	1.50	8.25	12.75	17.75	14.50	7.25	13.25	2.50	5.50	-0.830566	0.235352	1.230957	6.440000	452.690002	-39.060001	909.00	0.23	-0.05	16.25	14.25	4.50	9.00	1.00	2.50	0.00	0.00	0.00	0.00	0.00	0.00	0.00	0.00	0.00	0.00	-0.249512	-0.089844	1.961426	-37.939999	169.050003	-2.730000	486.00	-0.35	-0.06
1.74	0.50	1.25	0.00	0.25	0.25	0.50	3.00	1.25	7.00	11.50	15.75	13.00	6.50	13.25	2.25	5.25	-1.024902	0.167969	1.321289	-9.310000	485.799988	-46.759998	827.00	0.23	-0.05	16.75	14.75	5.50	9.75	1.00	4.50	0.00	0.00	0.00	0.00	0.00	0.25	0.00	0.00	0.00	0.00	-0.070312	0.033203	1.360352	-8.820000	136.080002	-9.380000	540.00	-0.34	-0.07
1.75	0.25	0.25	0.00	0.00	0.00	0.25	2.75	1.00	5.00	9.50	13.25	11.25	5.50	13.50	2.00	4.50	-1.546387	0.183105	1.640137	-16.730000	499.239990	-46.130001	695.00	0.25	-0.05	16.75	15.00	6.75	11.00	1.75	6.75	0.00	0.50	0.00	0.00	0.00	0.00	0.00	0.00	0.00	0.00	-0.068359	0.179688	1.128906	10.360000	121.029999	-13.720000	608.00	-0.32	-0.08
1.76	0.25	0.50	0.00	0.00	0.00	0.25	2.00	0.50	2.50	8.25	10.75	9.50	4.75	13.25	1.25	3.50	-2.293457	0.340332	2.267090	-5.600000	502.809998	-34.090000	566.00	0.25	-0.05	17.75	15.75	8.00	12.00	2.00	8.25	0.00	1.00	0.00	0.00	0.00	0.25	0.00	0.00	0.00	0.00	-0.118652	0.343750	1.527344	-4.900000	120.959999	-13.090000	679.00	-0.31	-0.08
1.77	0.50	0.00	0.25	0.00	0.00	0.00	1.50	0.50	1.50	6.00	9.25	8.00	3.75	12.00	1.00	2.50	-2.907227	0.687012	2.776855	34.160000	511.910004	-11.410000	461.00	0.25	-0.06	18.25	16.00	8.25	12.75	2.50	9.50	0.00	1.25	0.00	0.00	0.00	0.25	0.25	0.00	0.00	0.00	-0.142090	0.353027	1.124512	-24.360001	94.639999	-0.700000	723.00	-0.31	-0.09
1.78	0.25	0.00	0.00	0.00	0.00	0.00	1.25	0.00	1.25	4.25	7.75	6.75	2.75	10.75	1.25	2.25	-2.407227	0.163086	2.758789	73.010002	517.580017	-3.290000	375.00	0.27	-0.05	19.00	16.50	9.00	13.75	2.75	11.00	0.25	1.75	0.00	0.00	0.00	0.25	0.25	0.00	0.00	0.25	-0.123047	0.084473	1.080078	-28.280001	80.779999	9.030000	786.00	-0.30	-0.09
1.79	0.25	0.00	0.00	0.00	0.00	0.00	0.75	0.00	0.75	3.50	6.25	5.75	2.25	9.75	1.00	1.75	-1.796387	0.513184	2.624512	88.199997	516.599976	-8.610000	309.00	0.27	-0.05	20.00	17.50	9.75	14.50	3.75	12.25	0.25	2.25	0.00	0.00	0.50	0.50	0.50	0.00	0.00	0.25	-0.102539	0.057129	1.227051	-30.520000	68.180000	4.900000	865.00	-0.29	-0.09
1.80	0.25	0.00	0.00	0.00	0.00	0.00	0.50	0.00	0.25	2.50	5.00	5.00	2.00	8.25	0.75	1.50	-1.891113	0.560547	3.041992	110.180000	487.549988	-8.750000	248.00	0.27	-0.06	20.75	17.50	10.25	15.25	4.50	13.50	0.25	2.75	0.00	0.00	0.25	0.75	0.50	0.00	0.00	0.25	-0.144531	0.168945	1.127930	-27.650000	49.209999	-0.000000	916.00	-0.28	-0.10
1.81	0.00	0.00	0.00	0.00	0.00	0.00	0.25	0.00	0.00	2.50	4.00	4.25	1.75	5.75	0.50	0.75	-1.270508	0.399902	3.405273	112.770004	450.309998	-22.120001	190.00	0.27	-0.08	21.25	18.00	10.75	15.50	5.00	14.50	0.25	3.25	0.00	0.00	0.00	0.75	0.50	0.00	0.00	0.00	-0.129395	0.154297	1.024902	-27.299999	37.380001	1.470000	954.00	-0.28	-0.10
1.82	0.00	0.00	0.00	0.00	0.00	0.00	0.00	0.25	0.25	1.75	2.75	3.00	1.50	2.00	0.25	0.50	-0.399902	0.317871	3.976562	118.510002	400.610016	-39.900002	121.00	0.24	-0.13	22.00	18.50	11.00	16.25	5.25	15.25	0.25	4.00	0.00	0.00	0.50	1.00	0.50	0.00	0.25	0.50	-0.112305	0.107910	1.045898	-27.930000	30.590000	1.960000	1013.00	-0.27	-0.10
1.83	0.00	0.00	0.00	0.00	0.00	0.00	0.00	0.00	0.00	1.25	2.00	2.25	1.25	1.00	0.00	0.25	0.909668	0.002930	3.694336	80.220001	284.549988	-62.510002	78.00	0.24	-0.16	22.50	18.75	11.50	16.50	5.75	16.00	0.25	4.50	0.00	0.00	0.25	0.50	1.00	0.00	0.00	0.25	-0.125000	0.126465	1.041992	-24.430000	20.790001	0.700000	1042.00	-0.27	-0.10
1.84	0.00	0.25	0.00	0.00	0.00	0.00	0.00	0.00	0.25	1.00	2.00	2.00	1.00	0.25	0.00	0.25	2.354004	-0.751953	1.030762	146.369995	254.309998	-76.790001	70.00	0.20	-0.16	22.25	18.75	11.50	16.50	6.25	16.75	0.25	5.50	0.00	0.00	0.50	1.00	1.00	0.00	0.00	0.50	-0.118164	0.142578	1.003906	-23.590000	11.970000	0.910000	1078.00	-0.26	-0.11
1.85	0.00	0.00	0.00	0.00	0.00	0.00	0.00	0.00	0.00	1.25	2.00	1.75	0.75	0.25	0.00	0.25	2.354004	0.682617	4.271484	31.850000	100.029999	-105.279999	62.00	0.23	-0.16	22.25	18.25	11.50	16.75	6.25	17.50	0.25	6.25	0.00	0.00	0.25	0.75	1.50	0.00	0.00	0.25	-0.120117	0.118164	1.020508	-18.059999	2.170000	2.170000	1093.00	-0.26	-0.12
1.86	0.00	0.00	0.00	0.00	0.00	0.00	0.00	0.00	0.00	0.75	2.00	1.00	0.75	0.00	0.00	0.00	1.388672	0.373535	3.428223	-10.360000	-102.340004	-88.830002	46.00	0.00	0.00	21.75	18.50	11.25	17.25	6.50	18.25	0.25	7.00	0.00	0.00	0.50	0.75	1.25	0.00	0.00	0.50	-0.127441	0.113281	1.013184	-9.450000	-2.170000	2.450000	1117.00	-0.25	-0.12
1.87	0.00	0.00	0.00	0.00	0.00	0.00	0.00	0.00	0.00	1.00	1.50	1.00	0.25	0.00	0.00	0.25	0.998047	0.361328	2.242188	-13.720000	-204.470001	-72.940002	40.00	0.00	0.00	20.75	18.25	11.25	16.75	6.50	18.75	0.25	7.50	0.00	0.00	0.50	0.75	1.75	0.00	0.00	0.50	-0.127441	0.128906	1.013672	0.910000	-5.180000	3.150000	1116.00	-0.25	-0.13
1.88	0.00	0.25	0.00	0.00	0.00	0.00	0.00	0.00	0.00	0.50	1.00	0.75	0.50	0.00	0.00	0.00	0.702148	0.294922	1.383789	-20.860001	-264.179993	-65.870003	30.00	0.00	0.00	19.75	17.50	10.75	16.50	6.50	19.00	0.25	8.00	0.00	0.00	0.50	1.25	2.25	0.00	0.00	0.50	-0.123047	0.123047	0.998047	10.570000	-7.280000	4.130000	1111.00	-0.24	-0.13
1.89	0.00	0.00	0.00	0.00	0.00	0.00	0.00	0.00	0.00	0.50	1.00	0.75	0.50	0.00	0.00	0.00	0.586914	0.363281	1.243652	-11.830000	-284.269989	-67.059998	28.00	0.00	0.00	17.75	16.50	10.50	16.50	6.25	19.75	0.25	8.50	0.00	0.00	0.50	1.25	2.50	0.00	0.00	0.75	-0.124512	0.136230	0.991211	17.570000	-7.980000	4.690000	1095.00	-0.23	-0.14
1.90	0.00	0.00	0.00	0.00	0.00	0.00	0.00	0.00	0.00	0.50	1.00	0.50	0.25	0.00	0.00	0.00	0.464844	0.334961	1.213379	7.630000	-306.179993	-64.610001	23.00	0.00	0.00	16.00	16.00	9.75	16.00	6.00	19.75	0.25	9.00	0.00	0.00	0.50	1.25	2.75	0.00	0.25	0.75	-0.122559	0.141113	0.988770	21.139999	-7.560000	5.460000	1068.00	-0.22	-0.15
1.91	0.00	0.00	0.00	0.00	0.00	0.00	0.00	0.00	0.00	0.75	1.00	0.25	0.00	0.00	0.00	0.00	0.370117	0.203613	1.234863	29.400000	-328.510010	-54.810001	21.00	0.00	0.00	13.75	15.00	9.25	15.50	5.75	20.25	0.25	9.50	0.00	0.00	0.75	1.25	3.25	0.00	0.00	0.50	-0.112793	0.140625	0.974121	21.280001	-6.650000	6.020000	1037.00	-0.22	-0.16
1.92	0.00	0.00	0.00	0.00	0.00	0.00	0.00	0.00	0.00	0.25	1.00	0.25	0.00	0.00	0.00	0.00	0.250000	0.100098	1.245117	38.290001	-348.600006	-42.349998	16.00	0.00	0.00	12.00	14.00	8.75	15.25	5.50	20.25	0.25	9.75	0.00	0.00	0.75	1.25	3.75	0.00	0.00	0.75	-0.113281	0.142578	0.965332	18.340000	-5.740000	5.950000	1009.00	-0.21	-0.17
1.93	0.00	0.00	0.00	0.00	0.00	0.00	0.00	0.00	0.00	0.25	1.00	0.00	0.00	0.00	0.00	0.00	0.127930	0.051270	1.259766	35.910000	-366.100006	-30.380001	13.00	0.00	0.00	10.00	12.25	8.00	14.25	5.25	20.25	0.25	10.25	0.00	0.25	0.50	1.25	4.25	0.00	0.00	0.75	-0.109375	0.155273	0.955566	11.550000	-3.990000	5.250000	962.00	-0.20	-0.18
1.94	0.00	0.00	0.00	0.00	0.00	0.00	0.00	0.00	0.00	0.00	0.50	0.00	0.00	0.00	0.00	0.00	0.029297	0.057129	1.325684	32.480000	-382.690002	-20.230000	5.00	0.00	0.00	8.50	10.75	7.50	13.50	5.00	20.25	0.25	10.50	0.00	0.25	0.75	1.50	5.00	0.00	0.00	0.75	-0.105469	0.152832	0.953613	1.820000	-1.470000	3.990000	931.00	-0.18	-0.19
1.95	0.00	0.00	0.00	0.00	0.00	0.00	0.00	0.00	0.00	0.25	0.50	0.00	0.00	0.00	0.00	0.00	-0.057129	0.093262	1.373535	32.830002	-398.299988	-14.560000	8.00	0.00	0.00	7.50	9.50	7.00	12.75	4.75	20.25	0.25	10.75	0.00	0.00	0.75	1.50	5.00	0.00	0.00	0.75	-0.109375	0.148438	0.956543	-8.680000	1.330000	3.010000	894.00	-0.18	-0.20
1.96	0.00	0.00	0.00	0.00	0.00	0.00	0.00	0.00	0.00	0.00	0.50	0.00	0.00	0.00	0.00	0.00	-0.173340	0.119629	1.449707	36.330002	-412.369995	-14.350000	5.00	0.00	0.00	6.50	8.50	6.00	12.25	4.50	20.00	0.25	11.00	0.00	0.25	1.00	1.75	5.50	0.00	0.00	1.00	-0.104004	0.148438	0.972168	-17.639999	3.080000	1.750000	870.00	-0.16	-0.21
1.97	0.00	0.00	0.00	0.00	0.00	0.00	0.00	0.00	0.00	0.00	0.25	0.00	0.00	0.00	0.00	0.00	-0.349609	0.136230	1.567383	41.860001	-421.820007	-18.760000	3.00	0.00	0.00	5.50	7.50	5.50	11.25	4.50	19.75	0.25	11.00	0.00	0.00	0.75	1.75	5.50	0.00	0.00	1.00	-0.108887	0.144043	0.959961	-25.690001	4.130000	0.420000	826.00	-0.16	-0.22
1.98	0.00	0.00	0.00	0.00	0.00	0.00	0.00	0.00	0.00	0.00	0.25	0.00	0.00	0.00	0.00	0.00	-0.525879	0.165527	1.672852	49.700001	-425.179993	-25.480000	3.00	0.00	0.00	5.00	7.00	5.25	10.75	4.50	19.50	0.25	11.25	0.00	0.25	1.00	2.00	6.25	0.00	0.25	1.00	-0.117676	0.133789	0.963867	-36.259998	4.620000	-0.140000	826.00	-0.14	-0.22
1.99	0.00	0.00	0.00	0.00	0.00	0.00	0.25	0.00	0.00	0.00	0.25	0.00	0.00	0.00	0.00	0.00	-0.745117	0.207031	1.766602	61.320000	-426.019989	-30.520000	6.00	0.00	0.00	4.25	6.25	4.75	10.00	4.50	19.50	0.25	11.25	0.00	0.50	1.50	2.00	6.75	0.00	0.00	1.50	-0.117676	0.120605	0.975586	-46.340000	4.340000	-0.840000	809.00	-0.13	-0.23
2.00	0.00	0.00	0.00	0.00	0.00	0.00	0.00	0.00	0.00	0.00	0.50	0.00	0.00	0.00	0.00	0.00	-0.978516	0.154785	1.587891	78.820000	-425.670013	-33.529999	5.00	0.00	0.00	3.75	5.75	4.25	9.75	4.50	19.00	0.50	11.50	0.00	0.75	1.00	2.25	7.50	0.00	0.00	1.50	-0.117188	0.114258	0.990723	-54.740002	3.150000	-1.260000	800.00	-0.12	-0.23
2.01	0.00	0.00	0.00	0.00	0.00	0.00	0.00	0.00	0.00	0.00	0.25	0.00	0.00	0.00	0.00	0.00	-1.069336	0.053711	1.581543	97.440002	-419.510010	-37.240002	3.00	0.00	0.00	3.50	5.25	4.25	8.75	4.75	18.75	0.50	11.50	0.00	0.50	1.25	2.25	7.50	0.00	0.00	1.50	-0.119141	0.110352	0.980469	-62.510002	-0.210000	-2.100000	782.00	-0.12	-0.23
2.02	0.00	0.00	0.00	0.00	0.00	0.00	0.00	0.00	0.00	0.00	0.25	0.00	0.00	0.00	0.00	0.00	-1.157715	-0.020020	1.609375	101.779999	-404.179993	-39.060001	3.00	0.00	0.00	3.00	5.00	3.75	8.50	4.75	18.50	0.50	11.50	0.00	0.75	1.75	2.75	8.00	0.00	0.25	1.75	-0.124512	0.099121	0.980469	-67.269997	-3.080000	-2.730000	785.00	-0.10	-0.24
2.03	0.00	0.00	0.00	0.00	0.00	0.00	0.00	0.00	0.00	0.00	0.25	0.00	0.00	0.00	0.00	0.00	-1.152344	-0.048828	1.678711	94.290001	-387.519989	-37.660000	3.00	0.00	0.00	3.00	4.50	3.25	8.00	5.00	18.00	0.50	11.75	0.00	1.00	2.00	3.25	8.25	0.00	0.50	2.25	-0.120605	0.093262	1.001953	-68.389999	-3.080000	-3.220000	788.00	-0.09	-0.24
2.04	0.00	0.00	0.00	0.00	0.00	0.00	0.00	0.00	0.00	0.00	0.00	0.00	0.00	0.00	0.00	0.00	-1.151855	-0.015625	1.770020	81.830002	-373.170013	-35.630001	0.00	0.00	0.00	2.75	4.50	3.50	7.50	5.25	17.50	0.75	11.50	0.25	1.00	2.50	3.75	8.50	0.00	0.50	2.50	-0.119629	0.085449	1.025391	-59.220001	-5.460000	-4.760000	798.00	-0.08	-0.23
2.05	0.00	0.00	0.00	0.00	0.00	0.00	0.00	0.00	0.00	0.00	0.25	0.00	0.00	0.00	0.00	0.00	-1.194824	0.060059	1.816895	73.779999	-360.429993	-33.740002	3.00	0.00	0.00	2.50	4.25	3.00	7.00	5.25	16.75	0.75	11.25	0.50	1.50	3.00	4.00	8.75	0.00	0.75	2.75	-0.110352	0.052734	1.002930	-31.850000	-14.000000	-8.050000	792.00	-0.06	-0.23
2.06	0.00	0.00	0.00	0.00	0.00	0.00	0.00	0.00	0.00	0.00	0.00	0.00	0.00	0.00	0.00	0.00	-1.219727	0.105469	1.789551	71.050003	-346.920013	-32.340000	0.00	0.00	0.00	2.50	3.75	2.75	6.75	5.25	15.75	1.00	11.00	0.75	1.75	3.75	4.75	8.75	0.00	1.00	3.00	-0.129883	0.073730	0.988770	-21.000000	-11.480000	-7.560000	797.00	-0.05	-0.22
2.07	0.00	0.00	0.00	0.00	0.00	0.00	0.00	0.00	0.00	0.00	0.00	0.00	0.00	0.00	0.00	0.00	-1.208008	0.175293	1.766113	68.180000	-329.910004	-30.660000	0.00	0.00	0.00	2.50	3.25	2.75	5.75	5.50	14.75	1.00	10.75	1.00	2.25	4.50	5.00	8.75	0.25	1.25	3.25	-0.135254	0.061523	0.993164	-18.620001	-8.540000	-6.580000	794.00	-0.03	-0.22
2.08	0.00	0.00	0.00	0.00	0.00	0.00	0.00	0.00	0.00	0.00	0.00	0.00	0.00	0.00	0.00	0.00	-1.144043	0.259766	1.780762	64.330002	-311.989990	-26.180000	0.00	0.00	0.00	2.25	3.00	2.50	5.50	5.25	13.25	1.25	10.25	1.50	3.00	6.25	6.00	8.75	0.50	1.50	3.50	-0.128906	0.054688	0.997559	-17.990000	-5.880000	-5.880000	810.00	-0.01	-0.20
2.09	0.00	0.00	0.00	0.00	0.00	0.00	0.00	0.00	0.00	0.00	0.00	0.00	0.00	0.00	0.00	0.00	-1.089355	0.389648	1.849609	64.330002	-296.380005	-18.760000	0.00	0.00	0.00	2.25	3.00	2.00	5.00	5.25	12.00	1.50	9.75	2.75	4.50	7.50	7.00	8.75	1.00	1.50	3.75	-0.132324	0.049805	0.996094	-16.100000	-3.850000	-5.600000	843.00	0.02	-0.19
2.10	0.00	0.00	0.00	0.00	0.00	0.00	0.00	0.00	0.00	0.00	0.00	0.00	0.00	0.00	0.00	0.00	-1.159668	0.417969	1.951660	87.919998	-271.040009	-2.660000	0.00	0.00	0.00	2.00	2.50	2.75	4.00	5.00	10.75	1.75	9.25	3.75	5.50	8.25	7.50	8.75	1.75	1.75	4.25	-0.124023	0.053223	1.000488	-13.720000	-1.820000	-5.040000	862.00	0.04	-0.17
2.11	0.00	0.00	0.00	0.00	0.00	0.00	0.00	0.00	0.00	0.00	0.00	0.00	0.00	0.00	0.00	0.00	-1.300293	0.368164	1.973633	98.769997	-261.170013	4.900000	0.00	0.00	0.00	2.25	2.25	1.75	3.75	4.50	9.75	2.00	9.00	5.75	7.75	9.25	8.00	8.75	2.00	2.25	4.50	-0.124512	0.052734	0.999023	-11.270000	0.560000	-4.550000	906.00	0.07	-0.15
2.12	0.00	0.00	0.00	0.00	0.00	0.00	0.00	0.00	0.00	0.00	0.00	0.00	0.00	0.00	0.00	0.00	-1.464844	0.347656	1.903809	105.489998	-253.259995	14.490000	0.00	0.00	0.00	2.00	2.25	1.75	3.75	4.00	8.75	2.25	8.50	7.00	8.50	10.00	8.50	8.50	2.75	2.25	5.00	-0.125977	0.055664	1.000488	-8.400000	3.150000	-4.270000	927.00	0.08	-0.13
2.13	0.00	0.00	0.00	0.00	0.00	0.00	0.00	0.00	0.00	0.00	0.00	0.00	0.00	0.00	0.00	0.00	-1.583496	0.283691	1.879883	119.000000	-247.029999	27.719999	0.00	0.00	0.00	1.75	2.50	1.50	3.25	3.50	8.00	2.50	8.25	7.75	9.50	10.75	8.75	8.50	3.25	2.50	5.00	-0.130371	0.045898	0.993652	-5.040000	5.950000	-3.710000	943.00	0.10	-0.12
2.14	0.00	0.00	0.00	0.00	0.00	0.00	0.00	0.00	0.00	0.00	0.00	0.00	0.00	0.00	0.00	0.00	-1.708008	0.062500	1.874023	146.509995	-242.550003	46.060001	0.00	0.00	0.00	1.50	2.00	1.25	2.75	2.75	7.25	2.75	7.75	8.75	10.25	11.50	9.25	8.50	4.25	2.75	5.25	-0.124023	0.045410	0.998047	-1.890000	9.730000	-2.870000	953.00	0.12	-0.11
2.15	0.00	0.00	0.00	0.00	0.00	0.00	0.00	0.00	0.00	0.00	0.00	0.00	0.00	0.00	0.00	0.00	-1.945312	-0.241699	1.840332	168.979996	-239.889999	68.320000	0.00	0.00	0.00	1.25	1.50	1.00	2.50	2.25	6.50	2.75	7.50	9.50	11.00	12.25	9.75	8.75	4.50	2.50	5.25	-0.124023	0.051758	0.991211	0.910000	13.510000	-2.170000	956.00	0.13	-0.11
2.16	0.00	0.00	0.00	0.00	0.00	0.00	0.00	0.00	0.00	0.00	0.00	0.00	0.00	0.00	0.00	0.00	-2.294922	-0.492676	1.731934	170.729996	-235.690002	92.889999	0.00	0.00	0.00	1.50	2.00	1.25	2.00	1.75	5.50	2.75	7.25	10.00	11.75	13.25	10.50	9.00	5.25	3.00	5.50	-0.138184	0.045410	0.983887	2.940000	15.820000	-1.540000	988.00	0.14	-0.10
2.17	0.00	0.00	0.00	0.00	0.00	0.00	0.00	0.00	0.00	0.00	0.00	0.00	0.00	0.00	0.00	0.00	-2.825195	-0.704590	1.421387	151.690002	-226.800003	118.580002	0.00	0.00	0.00	1.25	1.25	1.00	2.25	1.25	5.00	2.50	7.00	10.50	12.25	14.00	11.25	9.25	5.50	3.00	5.50	-0.145020	0.039551	0.991211	4.970000	18.200001	0.070000	992.00	0.15	-0.10
2.18	0.00	0.00	0.00	0.00	0.00	0.00	0.00	0.00	0.00	0.00	0.00	0.00	0.00	0.00	0.00	0.00	-3.481934	-0.789551	0.871582	116.340004	-211.820007	140.000000	0.00	0.00	0.00	1.25	1.50	1.00	2.25	1.25	4.75	2.50	6.50	11.25	13.00	14.75	11.75	9.75	6.25	3.25	5.50	-0.139648	0.053711	0.992188	9.870000	27.230000	2.590000	1028.00	0.16	-0.09
2.19	0.00	0.00	0.00	0.00	0.00	0.00	0.00	0.00	0.00	0.00	0.00	0.00	0.00	0.00	0.00	0.00	-4.337891	-0.748535	0.250488	82.809998	-188.160004	143.990005	0.00	0.00	0.00	1.25	1.75	0.50	2.25	1.00	4.25	2.50	6.25	11.75	13.50	15.75	12.50	10.25	6.75	3.50	5.75	-0.159180	0.061523	0.979004	14.350000	37.029999	3.500000	1055.00	0.17	-0.09
2.20	0.00	0.00	0.00	0.00	0.00	0.00	0.00	0.00	0.00	0.00	0.00	0.00	0.00	0.00	0.00	0.00	-5.102051	-0.801758	-0.335938	87.360001	-143.710007	128.309998	0.00	0.00	0.00	1.00	1.25	0.50	1.50	1.00	3.50	2.50	6.00	12.50	14.00	16.25	13.25	10.25	7.25	3.75	6.25	-0.138184	0.078613	0.934082	20.860001	44.939999	5.810000	1066.00	0.18	-0.09
2.21	0.00	0.00	0.00	0.00	0.00	0.00	0.00	0.00	0.00	0.00	0.00	0.00	0.00	0.00	0.00	0.00	-5.112305	-1.253418	-0.853516	106.190002	-66.010002	96.389999	0.00	0.00	0.00	0.75	1.25	0.75	2.00	1.00	2.75	2.25	5.50	13.00	14.50	17.25	13.75	10.50	8.00	3.50	6.00	-0.160645	0.068848	1.004395	28.910000	62.090000	3.990000	1084.00	0.18	-0.08
2.22	0.00	0.00	0.00	0.00	0.00	0.00	0.00	0.00	0.00	0.00	0.00	0.00	0.00	0.00	0.00	0.00	-4.676270	-1.776855	-0.917969	84.349998	33.599998	52.080002	0.00	0.00	0.00	1.25	1.25	0.75	1.75	1.00	2.50	2.25	5.25	14.00	15.00	18.00	14.25	10.75	8.75	3.50	6.25	-0.149902	0.087402	1.019043	37.099998	80.849998	-0.140000	1121.00	0.19	-0.07
2.23	0.00	0.00	0.00	0.00	0.00	0.00	0.00	0.00	0.00	0.00	0.00	0.00	0.00	0.00	0.00	0.00	-4.061523	-1.925293	-0.551270	-1.260000	132.580002	7.140000	0.00	0.00	0.00	1.00	1.25	0.50	1.75	0.75	1.75	2.00	4.75	14.50	15.50	18.50	14.75	10.75	9.50	3.75	6.00	0.029297	0.134766	0.993164	44.869999	93.800003	-1.190000	1123.00	0.20	-0.07
2.24	0.00	0.00	0.00	0.00	0.00	0.00	0.00	0.00	0.00	0.00	0.00	0.00	0.00	0.00	0.00	0.00	-3.598145	-1.559570	0.322266	-118.790001	208.669998	-22.190001	0.00	0.00	0.00	1.00	1.25	0.50	1.75	0.75	1.50	2.00	4.00	15.25	16.25	19.00	15.00	10.50	10.75	3.75	6.50	-0.203613	0.089844	1.100098	41.720001	136.009995	-3.570000	1146.00	0.20	-0.06
2.25	0.25	0.25	0.00	0.00	0.00	0.00	0.00	0.00	0.00	0.00	0.00	0.00	0.00	0.00	0.00	0.00	0.132812	-0.880371	6.701172	-163.100006	409.500000	-47.320000	5.00	0.00	0.00	1.00	1.00	0.75	1.00	0.50	1.50	2.00	3.25	15.75	16.50	19.25	15.25	10.25	11.75	3.75	6.50	-0.283691	0.098145	1.214355	23.450001	229.040009	-10.150000	1145.00	0.21	-0.05
2.26	1.00	1.25	0.25	0.25	0.00	0.00	0.00	0.00	0.00	0.00	0.00	0.00	0.00	0.00	0.00	0.00	1.324707	1.188965	3.870117	-161.699997	314.160004	-42.560001	27.00	0.00	0.00	1.00	1.25	0.50	1.50	0.50	1.00	1.75	2.75	16.25	16.75	19.50	15.25	10.00	13.00	4.25	6.25	-0.319336	0.110352	1.167480	14.770000	265.160004	-15.470000	1157.00	0.22	-0.05
2.27	2.00	4.00	1.00	1.00	0.00	0.00	0.00	0.00	0.00	0.00	0.00	0.00	0.00	0.00	0.00	0.00	0.066895	1.221680	2.210449	-100.870003	137.759995	-8.610000	80.00	-0.37	-0.07	1.00	1.50	0.50	1.50	0.75	1.00	1.75	2.25	16.50	17.00	19.50	15.00	9.75	14.25	4.50	6.50	-0.345703	0.127441	1.161133	6.090000	291.690002	-19.530001	1170.00	0.22	-0.04
2.28	6.75	10.50	1.00	1.25	0.00	0.00	0.00	0.00	0.00	0.00	0.00	0.00	0.00	0.00	0.00	0.00	-0.397461	0.120117	-0.561523	-94.849998	191.800003	30.730000	191.00	-0.39	-0.06	1.00	1.75	0.75	1.25	0.50	1.00	1.75	2.00	16.75	17.25	19.50	15.00	9.25	15.25	5.00	6.75	-0.400879	0.123535	1.149902	-0.070000	316.119995	-23.520000	1183.00	0.22	-0.03
2.29	11.75	17.50	2.00	2.75	0.25	0.00	0.00	0.00	0.00	0.00	0.00	0.00	0.00	0.00	0.00	0.00	-0.397461	0.120117	-0.561523	-94.849998	191.800003	30.730000	338.00	-0.39	-0.05	1.00	1.25	0.50	0.50	0.50	0.75	1.75	1.75	16.50	17.50	19.25	14.50	9.00	16.00	5.00	7.00	-0.454102	0.106934	1.144531	-2.240000	346.850006	-27.860001	1157.00	0.23	-0.03
2.30	16.75	20.25	2.50	5.25	0.25	0.00	0.00	0.00	0.00	0.00	0.00	0.00	0.00	0.00	0.00	0.00	-0.686035	0.093750	1.168945	-92.540001	358.329987	44.029999	448.00	-0.38	-0.05	1.00	1.50	0.50	1.00	0.25	0.50	2.00	1.50	16.00	17.25	19.00	14.50	8.50	16.25	5.00	6.75	-0.483887	0.133789	1.115234	-7.840000	377.860016	-31.920000	1144.00	0.23	-0.03
2.31	21.25	24.00	4.00	8.25	0.50	1.00	0.00	0.00	0.00	0.00	0.25	0.00	0.00	0.00	0.00	0.00	-0.834961	-0.653809	3.286133	-80.500000	284.480011	24.080000	595.00	-0.37	-0.05	1.00	2.00	0.25	0.50	0.25	0.50	2.00	1.25	15.25	17.00	18.50	14.00	8.25	16.75	5.00	7.00	-0.559570	0.137695	1.175293	-15.400000	413.769989	-37.939999	1117.00	0.23	-0.03
2.32	25.25	25.75	5.75	10.50	1.25	2.25	0.25	0.25	0.00	0.00	0.25	0.00	0.00	0.00	0.00	0.00	-0.438965	-0.206543	1.998535	-40.810001	219.869995	-2.170000	726.00	-0.36	-0.05	0.50	1.00	0.50	0.75	0.50	0.50	2.25	1.25	14.00	16.50	18.00	13.50	7.75	16.50	4.50	6.75	-0.668457	0.183594	1.183594	-25.969999	453.739990	-46.200001	1070.00	0.24	-0.03
2.33	24.25	25.75	8.00	12.75	2.00	4.50	0.25	0.50	0.00	0.00	0.25	0.25	0.00	0.25	0.00	0.00	-0.233887	0.275391	1.092285	-0.490000	189.139999	-9.380000	807.00	-0.34	-0.06	0.75	1.00	0.00	0.25	0.25	0.00	2.25	1.00	12.00	15.25	17.00	12.75	6.75	17.25	4.50	6.50	-0.809082	0.202148	1.357910	-37.380001	489.929993	-57.820000	988.00	0.25	-0.02
2.34	25.75	26.75	9.25	16.00	3.00	7.75	0.25	0.75	0.00	0.00	0.50	0.25	0.00	0.50	0.00	0.00	-0.294434	0.083008	1.944336	-28.770000	198.589996	-4.410000	936.00	-0.32	-0.07	0.50	0.00	0.00	0.75	0.00	0.00	2.00	0.50	9.75	13.25	14.75	11.50	6.00	17.50	3.75	6.00	-1.189941	0.216797	1.549805	-50.119999	517.369995	-67.269997	866.00	0.26	-0.02
2.35	26.75	27.50	10.25	18.25	4.25	9.25	0.25	1.25	0.00	0.00	0.25	0.25	0.50	0.50	0.00	0.00	-0.256836	0.192383	1.235840	-60.970001	154.770004	3.010000	1029.00	-0.31	-0.08	0.00	0.00	0.00	0.00	0.00	0.00	1.75	0.25	7.50	11.00	12.00	10.00	4.50	17.25	3.00	5.00	-1.832031	0.171875	2.042480	-62.020000	533.260010	-64.050003	719.00	0.27	-0.01
2.36	28.00	28.00	12.25	19.50	6.00	11.00	0.50	1.75	0.00	0.00	0.25	0.25	0.50	1.00	0.00	0.25	-0.262695	-0.058105	1.229004	-66.989998	114.660004	-0.280000	1137.00	-0.30	-0.08	0.00	0.00	0.00	0.00	0.00	0.00	1.25	0.00	5.25	8.75	10.00	8.50	3.25	16.00	2.25	3.75	-2.812012	0.503418	2.994629	-43.119999	542.010010	-43.259998	582.00	0.28	-0.01
2.37	29.25	28.25	13.75	20.75	6.75	12.75	0.50	2.00	0.00	0.00	0.50	0.50	0.75	1.00	0.00	0.00	-0.247070	0.090332	1.239258	-71.400002	76.160004	-7.910000	1220.00	-0.29	-0.08	0.00	0.00	0.00	0.00	0.00	0.00	0.75	0.00	3.50	7.00	8.00	7.50	2.50	13.00	1.25	3.25	-3.113770	0.331055	3.717773	7.770000	565.880005	-29.330000	456.00	0.28	-0.02
2.38	30.00	28.75	14.75	21.25	7.25	13.50	0.50	2.25	0.00	0.00	0.50	0.50	0.75	1.00	0.00	0.25	-0.272949	0.137207	1.072266	-74.550003	43.470001	-7.350000	1268.00	-0.29	-0.08	0.25	0.00	0.00	0.00	0.00	0.00	0.25	0.00	2.25	5.25	6.75	6.00	2.25	10.00	1.25	2.75	-2.453613	0.377930	3.317383	33.740002	574.559998	-43.119999	357.00	0.28	-0.04
2.39	31.25	29.00	15.50	22.00	7.75	14.25	0.50	2.50	0.00	0.00	0.50	0.25	1.00	1.25	0.00	0.25	-0.233887	0.082031	1.043945	-69.019997	23.170000	-4.200000	1319.00	-0.29	-0.08	0.50	0.25	0.00	0.00	0.00	0.00	0.25	0.00	1.50	4.25	5.00	5.00	2.50	7.75	1.25	2.50	-2.027344	0.812500	3.722168	43.750000	553.000000	-60.760002	295.00	0.26	-0.05
2.40	31.75	29.00	15.75	22.00	8.00	14.75	0.50	2.50	0.00	0.00	0.25	0.25	1.00	1.00	0.00	0.00	-0.217773	0.066895	0.996582	-51.799999	8.680000	-3.850000	1329.00	-0.29	-0.08	0.25	0.00	0.25	0.00	0.00	0.00	0.00	0.00	1.50	3.25	4.00	4.00	1.75	5.00	0.75	1.75	-1.525879	0.954102	3.804199	53.410000	509.529999	-71.120003	218.00	0.26	-0.06
2.41	32.50	29.25	16.50	22.25	8.50	15.25	0.50	2.75	0.00	0.00	0.50	0.50	1.00	1.00	0.00	0.25	-0.223145	0.083984	0.972656	-35.630001	2.100000	-3.220000	1372.00	-0.29	-0.08	0.50	0.25	0.00	0.00	0.00	0.00	0.00	0.00	1.00	2.50	2.75	2.50	1.50	2.00	0.50	1.50	-0.169922	0.953613	4.613281	52.500000	433.369995	-88.690002	145.00	0.23	-0.08
2.42	32.00	28.75	16.50	22.00	8.75	15.75	0.75	2.75	0.00	0.00	0.50	0.50	1.00	1.50	0.00	0.25	-0.201660	0.062988	0.961426	-25.969999	-0.210000	-2.170000	1375.00	-0.28	-0.08	0.25	0.25	0.00	0.00	0.00	0.00	0.00	0.00	0.25	1.50	1.75	1.50	0.50	0.50	0.50	1.00	1.668457	0.756348	4.621094	52.570000	324.730011	-112.699997	77.00	0.22	-0.11
2.43	31.25	28.25	16.00	22.25	9.00	16.50	0.75	3.50	0.00	0.00	0.50	0.50	1.00	0.75	0.00	0.50	-0.196289	0.053711	0.958008	-21.420000	-2.520000	-2.310000	1377.00	-0.28	-0.08	0.00	0.25	0.00	0.00	0.00	0.00	0.00	0.00	0.25	1.75	2.00	2.00	0.50	0.50	0.50	0.75	2.341309	1.445801	4.347656	20.090000	225.330002	-111.510002	84.00	0.23	-0.12
2.44	30.00	27.75	16.00	21.75	9.25	17.25	0.75	4.00	0.00	0.00	0.50	0.50	1.25	0.75	0.00	0.25	-0.205566	0.062012	0.964355	-15.890000	-3.920000	-2.170000	1374.00	-0.28	-0.09	0.00	0.00	0.00	0.00	0.00	0.00	0.00	0.00	0.25	1.50	1.75	1.50	0.50	0.50	0.50	0.75	2.341309	1.445801	4.347656	20.090000	225.330002	-111.510002	71.00	0.26	-0.11
2.45	29.00	26.75	15.75	21.25	9.00	17.75	0.75	4.75	0.00	0.25	0.50	0.50	1.25	0.75	0.00	0.50	-0.212891	0.071289	0.967773	-7.910000	-2.450000	-1.400000	1364.00	-0.27	-0.09	0.00	0.00	0.00	0.00	0.00	0.00	0.00	0.00	0.25	1.75	1.50	1.25	0.00	0.00	0.25	0.25	1.128418	0.834961	2.572266	-25.969999	-217.490005	-28.350000	54.00	0.24	-0.08
2.46	26.75	25.75	15.00	21.00	8.75	18.50	0.75	5.25	0.00	0.00	0.75	0.75	1.50	0.50	0.00	0.50	-0.211426	0.061523	0.967285	2.030000	0.770000	-0.280000	1336.00	-0.27	-0.10	0.00	0.00	0.00	0.00	0.00	0.00	0.00	0.00	0.25	1.00	1.25	1.25	0.00	0.00	0.25	0.25	0.873535	0.751953	2.066406	-35.070000	-269.850006	-4.550000	44.00	0.00	0.00
2.47	24.50	24.75	14.00	20.50	8.50	19.25	0.75	5.75	0.00	0.00	0.75	0.75	1.75	0.50	0.00	0.50	-0.199707	0.066895	0.958496	8.820000	2.660000	0.770000	1302.00	-0.26	-0.11	0.00	0.00	0.00	0.00	0.00	0.00	0.00	0.00	0.00	0.75	1.00	0.75	0.00	0.00	0.00	0.25	0.752930	0.620605	1.432617	-19.530001	-292.250000	16.870001	28.00	0.00	0.00
2.48	22.25	23.00	12.75	20.00	8.50	19.75	0.75	6.25	0.00	0.00	0.75	0.50	2.00	0.50	0.00	0.50	-0.183105	0.061523	0.960449	12.600000	3.640000	1.540000	1256.00	-0.25	-0.12	0.00	0.00	0.00	0.00	0.00	0.00	0.00	0.00	0.00	1.00	1.00	0.50	0.00	0.00	0.00	0.00	0.629395	0.512695	1.266113	-5.460000	-303.730011	31.430000	26.00	0.00	0.00
2.49	19.00	21.25	11.50	19.25	8.00	20.25	0.50	6.75	0.00	0.00	0.75	0.75	2.00	0.50	0.00	0.75	-0.209961	0.085938	0.972168	18.549999	5.110000	2.380000	1192.00	-0.24	-0.13	0.00	0.00	0.00	0.00	0.00	0.00	0.00	0.00	0.00	0.75	0.75	0.50	0.00	0.00	0.00	0.25	0.527344	0.395996	1.271973	3.290000	-321.510010	40.180000	22.00	0.00	0.00
2.50	15.75	19.25	10.25	18.00	7.50	20.50	0.50	7.25	0.00	0.00	1.00	0.75	2.50	0.25	0.25	0.75	-0.205078	0.090820	0.954590	24.780001	6.230000	4.270000	1124.00	-0.23	-0.14	0.00	0.00	0.00	0.00	0.00	0.00	0.00	0.00	0.00	0.75	0.50	0.25	0.00	0.00	0.00	0.00	0.435059	0.281738	1.264160	9.730000	-342.160004	46.689999	16.00	0.00	0.00
2.51	12.75	17.25	9.25	17.00	7.00	20.25	0.50	7.75	0.00	0.00	0.75	0.75	2.75	0.25	0.00	0.75	-0.205078	0.090820	0.954590	24.780001	6.230000	4.270000	1049.00	-0.22	-0.15	0.00	0.00	0.00	0.00	0.00	0.00	0.00	0.00	0.00	0.50	0.50	0.50	0.00	0.00	0.00	0.00	0.332031	0.173828	1.322266	14.490000	-363.369995	50.189999	16.00	0.00	0.00
2.52	10.25	15.00	8.50	15.25	6.50	20.50	0.50	8.25	0.00	0.00	1.00	1.00	3.00	0.00	0.00	0.75	-0.179199	0.083008	0.946289	15.470000	6.300000	3.780000	985.00	-0.21	-0.16	0.00	0.00	0.00	0.00	0.00	0.00	0.00	0.00	0.00	0.50	0.25	0.25	0.00	0.00	0.00	0.00	0.208984	0.106934	1.216309	18.969999	-384.720001	50.889999	10.00	0.00	0.00
2.53	8.50	12.25	7.75	13.50	6.00	20.25	0.50	8.50	0.00	0.00	0.75	1.00	3.50	0.50	0.00	0.75	-0.185547	0.112305	0.936523	5.810000	5.460000	2.520000	916.00	-0.19	-0.17	0.00	0.00	0.00	0.00	0.00	0.00	0.00	0.00	0.00	0.25	0.25	0.00	0.00	0.00	0.00	0.00	0.071777	0.062500	1.120605	19.180000	-398.790009	48.439999	5.00	0.00	0.00
2.54	7.00	10.25	6.75	12.00	5.75	20.25	0.50	8.75	0.00	0.00	0.75	1.00	3.75	0.25	0.00	0.75	-0.180664	0.088867	0.935059	-5.390000	3.570000	0.420000	855.00	-0.18	-0.18	0.00	0.00	0.00	0.00	0.00	0.00	0.00	0.00	0.00	0.00	0.25	0.00	0.00	0.00	0.00	0.00	-0.048340	0.029297	1.072754	18.760000	-403.619995	42.349998	3.00	0.00	0.00
2.55	6.00	8.75	6.25	10.75	5.50	20.00	0.50	9.00	0.00	0.25	1.00	1.00	4.00	0.25	0.00	0.75	-0.171387	0.088379	0.945801	-19.670000	1.050000	-2.310000	817.00	-0.17	-0.19	0.00	0.00	0.00	0.00	0.00	0.00	0.00	0.00	0.00	0.25	0.00	0.00	0.00	0.00	0.00	0.00	-0.183105	0.028320	1.084961	21.629999	-402.220001	32.970001	3.00	0.00	0.00
2.56	5.25	7.25	5.75	9.50	5.50	19.75	0.50	9.25	0.00	0.00	1.00	1.25	5.00	0.25	0.25	1.00	-0.171387	0.084961	0.948730	-32.689999	-2.380000	-4.760000	790.00	-0.15	-0.20	0.00	0.00	0.00	0.00	0.00	0.00	0.00	0.00	0.00	0.00	0.25	0.00	0.00	0.00	0.00	0.00	-0.294922	0.022949	1.179199	26.880001	-399.839996	20.930000	3.00	0.00	0.00
2.57	4.50	6.50	5.25	8.50	5.25	19.75	0.75	9.75	0.00	0.00	1.25	1.00	5.50	0.25	0.25	1.00	-0.243652	0.088867	0.947754	-40.320000	-8.750000	-6.580000	772.00	-0.14	-0.21	0.00	0.00	0.00	0.00	0.00	0.00	0.00	0.00	0.00	0.00	0.00	0.00	0.00	0.00	0.00	0.00	-0.411621	0.046387	1.286621	32.200001	-398.720001	9.030000	0.00	0.00	0.00
2.58	3.75	5.75	4.75	7.75	5.00	19.50	0.75	10.00	0.00	0.25	1.00	1.50	6.00	0.25	0.00	1.25	-0.182129	0.065918	0.963379	-34.860001	-13.440001	-6.930000	750.00	-0.13	-0.22	0.00	0.00	0.00	0.00	0.00	0.00	0.00	0.00	0.00	0.00	0.00	0.00	0.00	0.00	0.00	0.00	-0.523926	0.076660	1.391602	34.580002	-399.209991	-1.470000	0.00	0.00	0.00
2.59	3.25	5.75	4.00	7.25	5.00	19.25	0.75	10.50	0.00	0.25	1.25	2.25	6.50	0.25	0.25	1.25	-0.260742	0.122070	0.963379	-26.320000	-14.770000	-6.720000	754.00	-0.12	-0.22	0.00	0.00	0.00	0.00	0.00	0.00	0.00	0.00	0.00	0.00	0.00	0.00	0.00	0.00	0.00	0.00	-0.644531	0.101562	1.511230	33.810001	-400.959991	-10.220000	0.00	0.00	0.00
2.60	3.00	5.00	4.00	6.75	4.75	18.75	0.75	10.75	0.00	0.50	1.75	2.25	7.00	0.75	0.50	1.50	-0.201660	0.056152	0.966309	-14.350000	-11.200000	-6.300000	755.00	-0.10	-0.22	0.00	0.00	0.00	0.00	0.00	0.00	0.00	0.00	0.00	0.00	0.00	0.00	0.00	0.00	0.00	0.00	-0.761719	0.172852	1.614746	32.340000	-402.429993	-16.730000	0.00	0.00	0.00
2.61	2.50	4.75	3.75	6.00	4.50	18.25	0.75	11.00	0.00	1.00	2.25	2.75	7.50	1.00	0.50	1.75	-0.184570	0.063477	0.958984	-9.450000	-8.470000	-4.760000	755.00	-0.08	-0.23	0.00	0.25	0.00	0.00	0.00	0.00	0.00	0.00	0.00	0.00	0.00	0.00	0.00	0.00	0.00	0.00	-0.812988	0.445312	1.672363	9.800000	-395.360016	-13.370000	2.00	0.00	0.00
2.62	2.25	4.50	3.00	5.75	4.50	17.50	0.75	11.00	0.00	1.00	2.50	3.25	8.00	0.75	0.75	2.00	-0.171875	0.062012	0.960938	-7.980000	-7.070000	-3.990000	745.00	-0.07	-0.23	0.00	0.00	0.00	0.00	0.00	0.00	0.00	0.00	0.00	0.00	0.00	0.00	0.00	0.00	0.00	0.00	-0.812988	0.445312	1.672363	9.800000	-395.360016	-13.370000	0.00	0.00	0.00
2.63	2.25	4.25	2.50	5.25	4.25	17.00	0.75	11.25	0.25	1.00	3.25	4.00	8.50	1.25	0.75	2.25	-0.176270	0.062500	0.953125	-7.280000	-6.160000	-4.760000	756.00	-0.05	-0.24	0.00	0.00	0.00	0.00	0.00	0.00	0.00	0.00	0.00	0.00	0.00	0.00	0.00	0.00	0.00	0.00	-0.855469	0.502930	1.809570	44.660000	-402.290009	-21.910000	0.00	0.00	0.00
2.64	1.75	4.00	2.50	4.75	3.75	16.00	0.75	11.25	0.25	1.75	4.00	5.25	9.00	1.75	0.75	2.50	-0.161133	0.058105	0.962402	-7.000000	-5.040000	-6.020000	766.00	-0.03	-0.24	0.00	0.00	0.00	0.00	0.00	0.00	0.00	0.00	0.00	0.00	0.00	0.00	0.00	0.00	0.00	0.00	-0.933594	0.383789	1.836914	69.160004	-402.709991	-26.250000	0.00	0.00	0.00
2.65	1.75	3.00	2.00	4.00	3.50	14.50	1.00	11.00	0.75	2.25	5.75	6.25	9.50	2.25	1.00	2.75	-0.172363	0.056152	0.965332	-6.860000	-2.380000	-7.210000	777.00	-0.00	-0.23	0.00	0.00	0.00	0.00	0.00	0.00	0.00	0.00	0.00	0.00	0.00	0.00	0.00	0.00	0.00	0.00	-0.987305	0.489258	2.008789	62.790001	-390.250000	-14.140000	0.00	0.00	0.00
2.66	1.50	3.00	1.50	3.50	3.00	13.00	1.00	10.75	1.25	3.00	7.75	7.50	10.00	2.50	1.00	3.00	-0.175781	0.062012	0.958008	-6.230000	0.770000	-8.190000	794.00	0.03	-0.22	0.00	0.00	0.00	0.00	0.00	0.00	0.00	0.00	0.00	0.00	0.00	0.00	0.00	0.00	0.00	0.00	-1.005371	0.625000	2.119629	49.770000	-381.429993	1.050000	0.00	0.00	0.00
2.67	1.50	2.50	1.50	3.00	2.50	11.00	1.00	10.25	2.00	4.00	8.50	8.25	10.75	3.00	1.25	3.00	-0.178711	0.057129	0.960938	-5.320000	4.200000	-9.310000	799.00	0.05	-0.21	0.00	0.00	0.00	0.00	0.00	0.00	0.00	0.00	0.00	0.00	0.00	0.00	0.00	0.00	0.00	0.00	-1.019043	0.794434	2.275391	47.529999	-374.360016	19.250000	0.00	0.00	0.00
2.68	1.25	1.00	1.50	3.00	2.00	9.50	1.00	10.00	2.75	6.00	9.75	9.00	11.25	3.75	1.50	3.50	-0.178711	0.057129	0.968262	-3.150000	7.980000	-10.570000	824.00	0.08	-0.20	0.00	0.00	0.00	0.00	0.00	0.00	0.00	0.00	0.00	0.00	0.00	0.00	0.00	0.00	0.00	0.00	-1.065918	0.920410	2.450684	61.740002	-371.420013	38.849998	0.00	0.00	0.00
2.69	1.00	1.75	1.25	2.75	1.25	8.25	1.00	9.50	3.25	7.75	11.00	10.00	12.00	4.75	1.75	4.00	-0.179199	0.062012	0.972168	-0.280000	12.950000	-11.620000	862.00	0.10	-0.19	0.00	0.00	0.00	0.00	0.00	0.00	0.00	0.00	0.00	0.00	0.00	0.00	0.00	0.00	0.00	0.00	-1.153320	0.947754	2.530762	90.790001	-372.890015	58.450001	0.00	0.00	0.00
2.70	0.75	1.75	1.00	2.00	1.00	7.25	1.00	9.00	5.00	8.50	12.00	11.00	12.50	5.25	2.00	4.00	-0.174805	0.054199	0.974609	3.430000	18.620001	-13.370000	891.00	0.12	-0.17	0.00	0.00	0.00	0.00	0.00	0.00	0.00	0.00	0.00	0.00	0.00	0.00	0.00	0.00	0.00	0.00	-1.352051	0.855469	2.544434	124.809998	-375.970001	75.949997	0.00	0.00	0.00
2.71	0.75	1.25	1.00	2.00	0.75	6.50	1.00	8.50	7.25	9.50	13.25	12.00	12.75	6.25	2.25	4.25	-0.195312	0.069336	0.955078	18.129999	42.000000	-14.280000	946.00	0.14	-0.15	0.00	0.00	0.00	0.00	0.00	0.00	0.00	0.00	0.00	0.00	0.00	0.00	0.00	0.00	0.00	0.00	-1.623535	0.666504	2.423340	153.020004	-374.920013	89.320000	0.00	0.00	0.00
2.72	0.75	1.00	1.00	2.25	0.50	5.75	1.00	8.00	8.50	10.25	14.50	12.75	13.25	7.50	2.50	4.25	-0.195312	0.069336	0.955078	18.129999	42.000000	-14.280000	990.00	0.16	-0.14	0.00	0.00	0.00	0.00	0.00	0.00	0.00	0.00	0.00	0.00	0.00	0.00	0.00	0.00	0.00	0.00	-1.862793	0.420410	2.256836	180.460007	-367.079987	101.080002	0.00	0.00	0.00
2.73	1.00	1.00	1.00	2.00	0.50	5.50	1.00	7.50	9.25	11.25	15.50	13.75	13.25	8.50	2.50	4.75	-0.223145	0.088379	0.975098	39.970001	76.019997	-12.530000	1032.00	0.16	-0.13	0.00	0.00	0.00	0.00	0.00	0.00	0.00	0.00	0.00	0.00	0.00	0.00	0.00	0.00	0.00	0.00	-2.198730	-0.015625	2.233887	209.160004	-351.329987	115.360001	0.00	0.00	0.00
2.74	0.75	1.00	0.25	1.75	0.25	4.75	1.25	6.75	10.25	12.00	16.50	14.50	13.00	9.00	2.75	4.75	-0.238281	0.090820	0.973145	52.220001	105.349998	-13.440001	1044.00	0.18	-0.12	0.00	0.00	0.00	0.00	0.00	0.00	0.00	0.00	0.00	0.00	0.00	0.00	0.00	0.00	0.00	0.00	-2.698242	-0.453125	2.240234	210.770004	-326.690002	129.919998	0.00	0.00	0.00
2.75	1.00	1.00	0.50	1.50	0.00	4.25	1.25	6.25	11.00	12.75	17.50	15.00	13.00	10.00	2.75	5.00	-0.253906	0.086914	1.006836	54.599998	134.750000	-15.190001	1074.00	0.18	-0.11	0.00	0.00	0.00	0.00	0.00	0.00	0.00	0.00	0.00	0.00	0.00	0.00	0.00	0.00	0.00	0.00	-3.236816	-0.817383	1.929688	184.589996	-293.299988	144.059998	0.00	0.00	0.00
2.76	0.75	1.25	0.50	1.75	0.00	4.00	1.25	5.75	11.75	13.25	18.25	15.75	13.00	10.75	3.00	5.25	-0.289551	0.089355	1.024414	48.020000	170.029999	-17.150000	1108.00	0.19	-0.10	0.00	0.00	0.00	0.00	0.00	0.00	0.00	0.00	0.00	0.00	0.00	0.00	0.00	0.00	0.00	0.00	-3.807129	-0.937500	1.125488	138.669998	-253.750000	152.529999	0.00	0.00	0.00
2.77	0.50	1.25	0.25	2.00	0.00	3.25	1.25	5.50	12.25	14.00	19.00	16.25	12.50	11.75	3.25	5.25	-0.324219	0.092773	1.056641	36.680000	204.750000	-17.430000	1127.00	0.20	-0.10	0.00	0.00	0.00	0.00	0.00	0.00	0.00	0.00	0.00	0.00	0.00	0.00	0.00	0.00	0.00	0.00	-4.726074	-0.872559	0.604492	95.269997	-212.589996	142.240005	0.00	0.00	0.00
2.78	0.75	1.50	0.50	1.75	0.00	3.00	1.25	5.25	13.00	14.50	19.50	16.50	12.25	12.50	3.25	5.75	-0.366699	0.083496	1.037109	26.460001	238.490005	-15.680000	1156.00	0.20	-0.09	0.00	0.00	0.00	0.00	0.00	0.00	0.00	0.00	0.00	0.00	0.00	0.00	0.00	0.00	0.00	0.00	-5.493164	-0.925781	0.132812	92.400002	-157.500000	110.599998	0.00	0.00	0.00
2.79	0.75	1.50	0.50	1.75	0.00	2.50	1.50	4.75	13.25	15.00	20.00	16.75	11.75	13.50	4.50	5.75	-0.388672	0.085938	1.083984	20.580000	269.429993	-13.580000	1180.00	0.21	-0.08	0.00	0.00	0.00	0.00	0.00	0.00	0.00	0.00	0.00	0.00	0.00	0.00	0.00	0.00	0.00	0.00	-5.494141	-1.069824	-0.344727	95.129997	-84.000000	60.549999	0.00	0.00	0.00
2.80	0.75	1.25	0.75	1.75	0.25	2.00	2.00	4.00	13.25	15.50	20.25	16.75	11.25	14.00	4.25	6.00	-0.464355	0.103027	1.150391	18.620001	299.390015	-13.510000	1180.00	0.21	-0.07	0.00	0.00	0.00	0.00	0.00	0.00	0.00	0.00	0.00	0.00	0.00	0.00	0.00	0.00	0.00	0.00	-4.977539	-1.177734	-0.412109	76.580002	2.590000	5.600000	0.00	0.00	0.00
2.81	0.50	1.25	0.25	1.50	0.00	2.00	2.25	3.50	13.25	15.75	20.75	16.75	10.50	14.50	4.50	6.25	-0.483887	0.136719	1.142578	16.379999	330.049988	-15.680000	1172.00	0.22	-0.07	0.50	0.25	0.25	0.00	0.00	0.00	0.00	0.00	0.00	0.00	0.00	0.00	0.00	0.00	0.00	0.00	-5.500488	-0.590820	-0.158691	27.860001	82.879997	-40.040001	10.00	0.00	0.00
2.82	0.50	1.00	0.25	1.50	0.25	1.50	2.75	3.00	13.25	16.00	20.75	16.75	9.75	14.50	5.25	6.50	-0.544922	0.147461	1.149414	14.910000	366.450012	-20.860001	1173.00	0.22	-0.06	1.25	1.25	0.75	1.00	0.25	0.00	0.00	0.00	0.00	0.00	0.00	0.00	0.00	0.00	0.00	0.00	-4.173340	-1.452637	-1.305176	-16.730000	332.570007	24.780001	47.00	0.00	0.00
2.83	0.50	1.50	0.25	1.25	0.00	1.50	3.00	2.75	12.50	16.00	20.75	16.25	9.00	14.25	5.25	6.50	-0.557617	0.128418	1.188477	13.300000	410.690002	-28.070000	1148.00	0.22	-0.06	4.50	7.50	1.00	1.50	0.25	0.00	0.00	0.00	0.00	0.25	0.00	0.00	0.00	0.00	0.00	0.00	-1.744629	-0.281250	-0.135254	-186.479996	364.420013	6.930000	149.00	-0.37	-0.06
2.84	0.25	1.00	0.50	0.75	0.00	0.75	3.50	2.50	11.25	15.50	20.50	16.00	8.25	14.25	5.00	6.50	-0.695312	0.118652	1.265137	10.430000	459.690002	-35.490002	1098.00	0.23	-0.05	19.75	19.00	2.75	5.25	0.50	0.00	0.00	0.00	0.00	0.25	0.50	0.25	0.00	0.00	0.00	0.00	0.801270	0.930176	2.434570	-191.169998	340.619995	1.400000	484.00	-0.37	-0.04
2.85	0.50	1.50	0.00	0.75	0.00	1.00	3.50	2.00	10.25	14.75	19.50	15.25	7.25	14.00	4.75	6.75	-0.797852	0.218750	1.296387	5.320000	516.250000	-42.980000	1043.00	0.23	-0.05	25.50	21.25	6.00	8.50	0.50	0.00	0.00	0.00	0.00	0.00	0.25	0.25	0.00	0.00	0.00	0.00	-1.273926	-1.114258	2.017090	-98.980003	521.010010	14.560000	630.00	-0.37	-0.03
2.86	0.50	0.75	0.00	0.00	0.00	0.25	3.25	1.50	8.50	13.00	17.50	13.50	6.25	14.00	4.25	6.25	-0.916504	0.228027	1.377930	-10.710000	569.590027	-55.020000	911.00	0.24	-0.04	27.25	21.00	8.25	11.00	1.00	2.50	0.00	0.25	0.00	0.00	0.50	0.25	0.00	0.00	0.00	0.00	-1.312988	0.495605	6.817383	-149.100006	470.399994	-12.320000	738.00	-0.35	-0.04
2.87	0.00	0.25	0.00	0.25	0.00	0.00	3.00	0.25	6.00	10.50	14.00	11.25	5.25	14.50	3.75	5.75	-1.469727	0.184082	1.761719	-39.900002	604.030029	-63.349998	747.00	0.26	-0.04	26.50	19.75	9.75	11.75	2.00	4.25	0.00	0.25	0.00	0.25	0.50	0.25	0.00	0.00	0.25	0.00	-0.491699	-0.133789	2.459961	-90.860001	267.190002	1.330000	779.00	-0.33	-0.04
2.88	0.00	0.00	0.00	0.00	0.00	0.00	2.25	0.50	3.25	8.25	11.00	9.00	3.50	14.25	3.00	4.50	-2.644043	0.131348	2.937988	-33.810001	621.390015	-54.670002	588.00	0.27	-0.04	24.25	18.00	10.25	12.25	2.75	6.50	0.00	0.50	0.00	0.50	0.75	0.50	0.00	0.00	0.00	0.50	-0.040039	0.219727	0.748047	-41.090000	195.300003	13.160000	795.00	-0.31	-0.05
2.89	0.00	0.25	0.00	0.00	0.00	0.00	1.75	0.25	1.75	5.50	8.75	7.50	2.50	12.50	2.25	3.00	-3.897461	0.646484	3.847168	-12.390000	640.010010	-30.100000	452.00	0.27	-0.04	23.00	16.75	11.25	13.25	5.25	8.50	0.25	1.25	0.00	0.50	0.75	0.75	0.50	0.00	0.25	0.25	-0.080566	-0.107910	1.439941	-40.459999	240.520004	11.690000	865.00	-0.29	-0.06
2.90	0.00	0.25	0.00	0.00	0.00	0.00	1.25	0.25	1.00	3.75	6.50	5.75	2.00	11.00	2.25	2.50	-3.230469	0.487793	3.665039	36.330002	668.080017	-8.260000	354.00	0.27	-0.04	22.75	16.00	12.75	14.00	7.00	10.25	0.25	2.00	0.00	0.75	0.75	1.00	0.50	0.00	0.00	0.50	-0.294922	0.138672	1.821289	-115.290001	206.570007	3.080000	934.00	-0.28	-0.07
2.91	0.25	0.25	0.00	0.00	0.00	0.00	0.75	0.00	1.00	3.00	5.00	5.00	1.50	9.75	1.25	2.00	-2.252930	0.765137	3.835449	75.949997	671.020020	-20.370001	286.00	0.27	-0.03	23.25	15.75	14.00	14.50	8.50	11.50	0.50	2.50	0.25	0.75	0.75	1.00	1.00	0.00	0.25	0.75	-0.348145	0.023926	1.521973	-189.979996	92.400002	-0.280000	1010.00	-0.26	-0.07
2.92	0.50	0.00	0.25	0.00	0.00	0.00	0.50	0.00	1.00	2.75	4.00	4.25	1.50	7.00	1.00	1.00	-2.256348	1.109863	4.187012	107.379997	640.640015	-41.790001	233.00	0.26	-0.03	24.00	16.00	14.50	15.00	9.50	12.00	0.50	2.75	0.75	0.75	1.00	1.00	1.00	0.00	0.00	0.75	-0.196289	0.015137	1.183594	-146.860001	15.540000	-2.030000	1058.00	-0.26	-0.07
2.93	0.25	0.00	0.00	0.00	0.00	0.00	0.00	0.00	1.00	1.75	3.00	2.50	1.25	2.00	0.50	0.50	0.946289	0.707520	5.739258	105.699997	431.480011	-108.989998	128.00	0.25	-0.08	24.75	15.50	15.25	15.00	10.25	12.50	0.75	2.75	0.25	0.50	1.00	1.00	1.25	0.00	0.25	1.00	-0.177246	0.071777	1.026367	-64.400002	-5.950000	-2.520000	1084.00	-0.26	-0.07
2.94	0.00	0.00	0.00	0.00	0.00	0.00	0.00	0.00	0.00	1.00	1.75	1.50	0.50	1.75	0.25	0.50	1.610352	0.748047	3.280762	74.970001	332.920013	-116.830002	69.00	0.27	-0.09	25.75	16.00	15.50	15.00	11.00	12.75	0.75	3.00	0.50	1.00	0.50	1.00	1.00	0.00	0.00	0.75	-0.140137	0.039062	1.013184	-23.730000	-8.890000	0.490000	1113.00	-0.26	-0.06
2.95	0.00	0.00	0.00	0.00	0.00	0.00	0.00	0.00	0.00	1.25	2.00	1.75	1.00	0.75	0.25	0.25	3.113281	1.598633	4.393066	-20.160000	188.720001	-73.989998	71.00	0.24	-0.15	26.00	16.25	16.00	15.25	11.50	13.00	0.75	3.00	0.75	0.75	1.00	0.75	1.25	0.00	0.25	1.00	-0.152832	0.047852	0.989746	-10.640000	-9.730000	0.910000	1144.00	-0.25	-0.06
2.96	0.00	0.00	0.00	0.00	0.00	0.00	0.00	0.00	0.25	0.75	1.75	1.25	0.50	0.00	0.25	0.25	1.627441	1.261230	4.688965	-117.320000	-70.769997	-6.580000	51.00	0.23	-0.14	26.25	16.25	16.00	15.25	11.75	13.50	0.75	3.00	0.25	1.00	1.00	0.75	0.75	0.00	0.25	1.00	-0.132812	0.046387	0.997559	-7.560000	-9.730000	1.960000	1147.00	-0.26	-0.06
2.97	0.00	0.00	0.00	0.00	0.00	0.00	0.00	0.00	0.00	1.00	1.75	1.00	0.25	0.00	0.00	0.25	1.005371	0.632812	2.611328	-109.059998	-232.680008	37.029999	43.00	0.00	0.00	26.00	16.25	16.00	15.25	12.25	13.75	0.75	3.25	0.25	1.00	0.75	0.75	1.00	0.00	0.00	0.75	-0.130371	0.032715	0.990234	-6.020000	-9.310000	2.520000	1152.00	-0.26	-0.06
2.98	0.00	0.00	0.00	0.00	0.00	0.00	0.00	0.00	0.00	1.00	1.25	1.00	0.00	0.00	0.00	0.00	0.526367	0.226562	1.875488	-118.370003	-270.690002	33.320000	34.00	0.00	0.00	25.50	16.00	15.75	15.25	12.25	14.00	0.75	3.50	0.75	0.75	0.75	0.75	1.25	0.25	0.25	1.00	-0.109375	0.037109	0.994629	-4.550000	-8.890000	2.800000	1160.00	-0.25	-0.07
2.99	0.00	0.00	0.00	0.00	0.00	0.00	0.00	0.00	0.00	0.50	1.50	0.50	0.25	0.00	0.00	0.00	0.462402	0.209473	1.387207	-97.300003	-274.890015	10.290000	28.00	0.00	0.00	24.50	15.50	15.25	15.00	12.00	14.50	1.00	3.75	0.50	0.75	0.75	1.00	1.25	0.00	0.25	1.25	-0.121094	0.036621	0.986816	-2.870000	-8.470000	3.080000	1146.00	-0.25	-0.07
3.00	0.00	0.00	0.00	0.00	0.00	0.00	0.00	0.00	0.00	0.50	1.00	0.75	0.00	0.00	0.00	0.00	0.412598	0.240723	1.338867	-57.400002	-282.940002	-24.500000	24.00	0.00	0.00	23.00	14.75	14.75	14.75	11.75	15.00	1.00	5.00	0.50	0.75	1.00	1.00	1.50	0.00	0.25	1.00	-0.119629	0.031738	0.993652	-1.400000	-8.540000	3.780000	1140.00	-0.24	-0.08
3.01	0.00	0.00	0.00	0.00	0.00	0.00	0.00	0.00	0.00	0.50	1.00	0.50	0.00	0.00	0.00	0.00	0.390625	0.076172	1.465332	-8.330000	-311.640015	-54.880001	21.00	0.00	0.00	20.25	13.75	13.75	14.75	11.25	15.25	0.75	5.75	0.50	0.75	1.25	1.25	1.25	0.00	0.50	1.25	-0.114258	0.042969	0.991211	1.960000	-7.980000	4.970000	1103.00	-0.23	-0.09
3.02	0.00	0.00	0.00	0.00	0.00	0.00	0.00	0.00	0.00	0.50	1.00	0.25	0.00	0.00	0.00	0.00	0.307617	-0.130859	1.501953	33.740002	-351.119995	-72.590004	18.00	0.00	0.00	17.75	12.75	12.75	13.75	10.75	15.50	0.75	6.50	0.25	0.75	1.00	1.25	2.00	0.00	0.25	1.50	-0.114258	0.042969	0.991211	1.960000	-7.980000	4.970000	1054.00	-0.22	-0.10
3.03	0.00	0.00	0.00	0.00	0.00	0.00	0.00	0.00	0.00	0.25	1.00	0.00	0.25	0.00	0.00	0.00	0.168945	-0.307129	1.477539	47.459999	-383.110016	-79.379997	15.00	0.00	0.00	14.25	11.00	11.50	13.00	10.25	15.75	0.75	7.50	0.50	1.00	1.25	1.25	2.50	0.00	0.50	1.50	-0.103516	0.041504	0.998535	3.500000	-7.070000	5.530000	1007.00	-0.20	-0.12
3.04	0.00	0.00	0.00	0.00	0.00	0.00	0.00	0.00	0.00	0.25	0.50	0.25	0.00	0.00	0.00	0.00	0.034180	-0.400391	1.377930	33.529999	-404.040009	-77.279999	10.00	0.00	0.00	11.25	9.75	10.25	12.25	9.50	16.00	0.75	8.00	0.25	1.00	1.25	1.75	3.50	0.00	0.25	1.50	-0.125977	0.045410	0.994629	4.970000	-4.830000	6.020000	953.00	-0.18	-0.14
3.05	0.00	0.00	0.00	0.00	0.00	0.00	0.00	0.00	0.00	0.25	0.50	0.00	0.00	0.00	0.00	0.00	-0.085938	-0.308594	1.248047	9.730000	-417.059998	-68.669998	8.00	0.00	0.00	8.50	8.25	8.75	11.00	8.50	15.75	0.75	8.50	0.25	0.75	1.50	2.00	3.75	0.00	0.25	1.75	-0.115723	0.044922	1.000000	6.510000	-1.050000	6.650000	880.00	-0.17	-0.15
3.06	0.00	0.00	0.00	0.00	0.00	0.00	0.00	0.00	0.00	0.25	0.25	0.00	0.00	0.00	0.00	0.00	-0.198242	-0.138672	1.181152	-10.710000	-423.570007	-59.500000	5.00	0.00	0.00	6.50	7.25	7.75	10.00	7.75	15.75	0.75	9.00	0.25	1.00	1.75	2.00	5.00	0.00	0.25	1.50	-0.115723	0.049316	0.986328	4.760000	0.140000	6.160000	842.00	-0.15	-0.17
3.07	0.00	0.00	0.00	0.00	0.00	0.00	0.00	0.00	0.00	0.25	0.25	0.00	0.00	0.00	0.00	0.00	-0.225098	0.012207	1.187500	-16.309999	-426.860016	-51.310001	5.00	0.00	0.00	5.25	6.00	6.50	9.00	7.00	15.25	0.75	9.25	0.25	1.00	1.75	2.50	5.25	0.00	0.00	1.50	-0.113281	0.060547	0.993164	0.840000	0.280000	4.340000	788.00	-0.13	-0.18
3.08	0.00	0.00	0.00	0.00	0.00	0.00	0.00	0.00	0.00	0.00	0.25	0.00	0.00	0.00	0.00	0.00	-0.219727	0.120117	1.193848	-5.810000	-430.290009	-42.910000	3.00	0.00	0.00	4.00	5.50	5.25	8.00	6.25	14.50	0.75	9.25	0.25	1.00	2.00	2.25	5.50	0.00	0.50	1.50	-0.096191	0.069336	0.983887	-3.290000	-0.420000	1.260000	736.00	-0.12	-0.19
3.09	0.00	0.00	0.00	0.00	0.00	0.00	0.00	0.00	0.00	0.00	0.25	0.00	0.00	0.00	0.00	0.00	-0.260254	0.124512	1.330566	10.570000	-433.089996	-36.610001	3.00	0.00	0.00	3.00	4.50	5.00	7.50	5.75	13.75	0.75	9.25	0.50	1.50	2.25	2.50	5.50	0.00	0.25	1.75	-0.106445	0.062500	0.988770	-7.910000	-2.030000	-2.030000	707.00	-0.10	-0.20
3.10	0.00	0.00	0.00	0.00	0.00	0.00	0.00	0.00	0.00	0.00	0.25	0.00	0.00	0.00	0.00	0.00	-0.376465	0.112305	1.509277	28.420000	-436.380005	-34.580002	3.00	0.00	0.00	2.50	4.00	4.25	6.75	5.25	13.00	0.75	9.25	0.75	1.75	2.75	2.75	5.50	0.00	0.25	1.75	-0.133301	0.049805	0.992676	-8.610000	-3.500000	-4.410000	681.00	-0.08	-0.20
3.11	0.00	0.00	0.00	0.00	0.00	0.00	0.00	0.00	0.00	0.00	0.00	0.00	0.00	0.00	0.00	0.00	-0.473633	0.096191	1.695801	42.490002	-439.250000	-39.480000	0.00	0.00	0.00	2.50	3.50	3.75	6.00	5.00	12.25	0.75	9.00	1.00	1.75	3.00	3.00	5.50	0.00	0.25	1.50	-0.127930	0.055176	0.986816	-8.470000	-4.690000	-5.040000	655.00	-0.07	-0.20
3.12	0.00	0.00	0.00	0.00	0.00	0.00	0.00	0.00	0.00	0.00	0.00	0.00	0.00	0.00	0.00	0.00	-0.634277	0.132324	1.885742	55.510002	-441.910004	-50.540001	0.00	0.00	0.00	2.00	3.00	3.00	5.75	4.50	11.75	0.75	9.00	1.00	2.00	3.25	3.25	5.75	0.00	0.00	1.75	-0.124512	0.043457	0.995117	-8.820000	-5.530000	-4.270000	632.00	-0.06	-0.21
3.13	0.00	0.00	0.00	0.00	0.00	0.00	0.00	0.00	0.00	0.00	0.00	0.00	0.00	0.00	0.00	0.00	-0.850586	0.172852	2.024902	71.750000	-445.760010	-65.309998	0.00	0.00	0.00	1.75	3.00	2.75	5.25	4.25	11.00	1.00	8.75	1.25	2.50	3.50	3.75	5.75	0.25	0.50	2.00	-0.125000	0.042969	0.994629	-8.960000	-5.600000	-3.010000	635.00	-0.04	-0.20
3.14	0.00	0.00	0.00	0.00	0.00	0.00	0.00	0.00	0.00	0.00	0.00	0.00	0.00	0.00	0.00	0.00	-1.081543	0.195801	2.020996	95.550003	-449.049988	-80.639999	0.00	0.00	0.00	1.50	2.75	2.50	4.50	4.00	10.00	1.00	8.50	1.50	3.00	4.25	4.00	6.00	0.00	0.50	2.00	-0.113770	0.048828	0.994629	-9.450000	-4.760000	-2.170000	621.00	-0.02	-0.20
3.15	0.00	0.00	0.00	0.00	0.00	0.00	0.00	0.00	0.00	0.00	0.00	0.00	0.00	0.00	0.00	0.00	-1.376465	0.202637	2.131836	138.809998	-439.179993	-101.150002	0.00	0.00	0.00	1.50	2.50	2.25	3.75	3.75	9.25	1.25	8.00	2.25	3.75	5.25	4.50	6.25	0.25	0.75	2.25	-0.121094	0.045898	1.001953	-9.940000	-3.430000	-1.610000	635.00	0.00	-0.18
3.16	0.00	0.00	0.00	0.00	0.00	0.00	0.00	0.00	0.00	0.00	0.00	0.00	0.00	0.00	0.00	0.00	-1.507812	0.250977	2.245605	147.839996	-430.010010	-98.070000	0.00	0.00	0.00	1.50	2.00	2.00	3.50	3.50	8.50	1.50	7.75	2.75	4.25	6.75	4.75	5.75	0.25	0.75	2.75	-0.119629	0.037598	0.994141	-9.800000	-1.400000	-1.120000	642.00	0.02	-0.17
3.17	0.00	0.00	0.00	0.00	0.00	0.00	0.00	0.00	0.00	0.00	0.00	0.00	0.00	0.00	0.00	0.00	-1.568848	0.307129	2.268066	147.770004	-420.489990	-81.690002	0.00	0.00	0.00	1.50	2.00	1.75	2.75	3.25	7.75	1.75	7.50	3.75	5.75	7.75	5.25	6.25	0.50	1.00	2.75	-0.122559	0.038574	0.990234	-9.520000	-0.070000	-0.700000	674.00	0.05	-0.15
3.18	0.00	0.00	0.00	0.00	0.00	0.00	0.00	0.00	0.00	0.00	0.00	0.00	0.00	0.00	0.00	0.00	-1.490234	0.421875	2.269043	131.600006	-406.350006	-53.200001	0.00	0.00	0.00	1.00	1.00	1.75	2.25	3.00	6.75	1.75	7.00	5.00	7.25	8.25	6.00	6.50	0.75	1.25	3.00	-0.123047	0.041992	0.988770	-8.960000	0.840000	-1.120000	686.00	0.08	-0.14
3.19	0.00	0.00	0.00	0.00	0.00	0.00	0.00	0.00	0.00	0.00	0.00	0.00	0.00	0.00	0.00	0.00	-1.403809	0.613281	2.349121	108.570000	-387.799988	-19.250000	0.00	0.00	0.00	1.25	1.25	1.50	2.25	2.50	6.00	2.25	6.50	6.00	8.25	9.00	6.75	6.25	1.25	1.50	3.00	-0.122070	0.042969	0.991699	-8.190000	2.170000	-1.890000	718.00	0.10	-0.12
3.20	0.00	0.00	0.00	0.00	0.00	0.00	0.00	0.00	0.00	0.00	0.00	0.00	0.00	0.00	0.00	0.00	-1.428711	0.800293	2.547852	103.110001	-371.350006	17.010000	0.00	0.00	0.00	1.25	1.25	1.50	1.75	2.50	5.25	2.50	6.00	7.75	9.00	9.50	7.25	6.25	2.00	1.50	3.50	-0.127441	0.041016	0.994141	-6.860000	3.500000	-2.730000	751.00	0.11	-0.10
3.21	0.00	0.00	0.00	0.00	0.00	0.00	0.00	0.00	0.00	0.00	0.00	0.00	0.00	0.00	0.00	0.00	-1.579590	0.907715	2.736328	126.840004	-365.610016	56.770000	0.00	0.00	0.00	1.25	1.00	1.50	1.50	2.00	5.00	2.75	5.75	8.50	9.75	10.50	7.75	6.50	3.00	1.75	3.50	-0.127930	0.036621	0.990723	-5.040000	4.690000	-3.570000	785.00	0.13	-0.09
3.22	0.00	0.00	0.00	0.00	0.00	0.00	0.00	0.00	0.00	0.00	0.00	0.00	0.00	0.00	0.00	0.00	-1.918457	0.833008	2.953125	156.729996	-369.809998	96.320000	0.00	0.00	0.00	1.00	1.00	1.00	1.75	1.75	3.75	3.00	5.25	9.50	10.75	11.25	8.25	6.75	4.00	2.25	4.00	-0.127930	0.044922	0.999023	-2.730000	7.280000	-4.200000	814.00	0.15	-0.08
3.23	0.00	0.00	0.00	0.00	0.00	0.00	0.00	0.00	0.00	0.00	0.00	0.00	0.00	0.00	0.00	0.00	-2.602539	0.713867	3.076660	168.000000	-374.360016	136.149994	0.00	0.00	0.00	1.00	1.00	0.75	1.25	1.50	3.00	3.00	5.00	10.50	11.25	12.00	8.75	6.75	5.50	2.00	4.25	-0.125000	0.050781	0.995605	-0.210000	11.200000	-5.390000	834.00	0.17	-0.06
3.24	0.00	0.00	0.00	0.00	0.00	0.00	0.00	0.00	0.00	0.00	0.00	0.00	0.00	0.00	0.00	0.00	-3.333984	0.642578	2.621582	165.130005	-371.839996	178.009995	0.00	0.00	0.00	1.00	0.75	1.00	1.75	1.25	2.50	3.00	4.50	11.75	12.25	12.75	9.25	7.25	6.50	2.25	4.75	-0.141113	0.046875	0.991211	2.450000	15.680000	-7.350000	883.00	0.17	-0.06
3.25	0.00	0.00	0.00	0.00	0.00	0.00	0.00	0.00	0.00	0.00	0.00	0.00	0.00	0.00	0.00	0.00	-3.952637	0.466797	1.818848	177.169998	-353.149994	221.830002	0.00	0.00	0.00	1.00	0.75	0.75	0.50	0.75	1.75	3.00	3.75	12.50	13.00	13.75	10.00	7.50	7.25	2.50	5.00	-0.141602	0.018555	1.017578	12.670000	36.189999	-6.300000	890.00	0.20	-0.05
3.26	0.00	0.00	0.00	0.00	0.00	0.00	0.00	0.00	0.00	0.00	0.00	0.00	0.00	0.00	0.00	0.00	-4.695312	0.094238	1.050781	195.860001	-308.070007	263.200012	0.00	0.00	0.00	1.25	1.00	0.50	1.50	0.75	1.75	3.00	3.75	13.75	13.75	14.50	10.25	7.50	8.00	2.75	5.25	-0.152344	0.046875	1.020996	21.629999	47.950001	-5.810000	948.00	0.19	-0.04
3.27	0.00	0.00	0.00	0.00	0.00	0.00	0.00	0.00	0.00	0.00	0.00	0.00	0.00	0.00	0.00	0.00	-5.291992	-0.277344	0.487305	187.669998	-243.110001	290.500000	0.00	0.00	0.00	1.00	0.25	0.75	1.00	0.50	1.00	2.75	3.00	14.50	14.50	15.50	11.00	7.75	9.00	3.00	5.50	-0.157715	0.050293	1.019531	33.810001	66.989998	-3.710000	960.00	0.21	-0.03
3.28	0.00	0.00	0.00	0.00	0.00	0.00	0.00	0.00	0.00	0.00	0.00	0.00	0.00	0.00	0.00	0.00	-5.492676	-0.581543	-0.122559	155.750000	-172.130005	301.070007	0.00	0.00	0.00	0.75	0.25	0.75	1.50	0.50	1.00	2.75	3.00	15.50	15.00	16.25	11.50	7.75	9.75	3.25	5.75	-0.228027	0.041016	1.077148	43.959999	99.820000	-2.660000	1005.00	0.21	-0.03
3.29	0.00	0.00	0.00	0.00	0.00	0.00	0.00	0.00	0.00	0.00	0.00	0.00	0.00	0.00	0.00	0.00	-5.579590	-0.889648	-0.400391	117.250000	-100.800003	294.070007	0.00	0.00	0.00	1.00	0.25	0.50	1.25	0.50	0.50	2.50	2.25	16.25	15.50	17.00	12.00	8.00	11.25	3.50	6.00	-0.186523	0.068359	1.146973	40.670002	154.559998	-4.340000	1028.00	0.22	-0.02
3.30	0.00	0.00	0.00	0.00	0.00	0.00	0.00	0.00	0.00	0.00	0.00	0.00	0.00	0.00	0.00	0.00	-5.658691	-1.170898	-0.254883	85.820000	-28.559999	262.010010	0.00	0.00	0.00	1.00	0.75	0.50	1.25	0.25	0.50	2.25	2.00	16.75	16.00	17.50	12.50	8.00	12.75	3.50	6.00	-0.245117	0.088867	1.113281	29.190001	211.889999	-7.700000	1058.00	0.22	-0.02
3.31	0.00	0.00	0.00	0.00	0.00	0.00	0.00	0.00	0.00	0.00	0.00	0.00	0.00	0.00	0.00	0.00	-5.277344	-1.373535	-0.034180	71.820000	39.759998	209.440002	0.00	0.00	0.00	1.00	0.75	0.50	1.25	0.50	0.75	2.00	2.00	17.25	16.25	18.00	12.50	7.75	13.75	4.50	6.50	-0.276855	0.079102	1.117676	15.400000	256.829987	-14.000000	1093.00	0.23	-0.02
3.32	0.00	0.00	0.00	0.00	0.00	0.00	0.00	0.00	0.00	0.00	0.00	0.00	0.00	0.00	0.00	0.00	-4.590820	-1.523438	0.044922	57.540001	99.190002	148.539993	0.00	0.00	0.00	0.75	0.75	0.25	0.75	0.25	0.75	1.75	1.75	17.75	16.75	18.25	13.00	7.50	15.00	5.00	6.75	-0.302246	0.075684	1.156738	6.650000	287.700012	-18.549999	1107.00	0.24	-0.02
3.33	0.50	0.50	0.25	0.00	0.00	0.00	0.00	0.00	0.00	0.00	0.00	0.00	0.00	0.00	0.00	0.00	-7.746094	-1.508301	-0.276855	10.220000	150.990005	87.919998	13.00	0.00	0.00	0.75	1.00	0.25	1.00	0.50	0.50	1.75	1.75	17.75	17.00	18.25	13.00	7.50	16.25	5.25	7.00	-0.350098	0.068359	1.161621	4.060000	310.589996	-20.510000	1129.00	0.24	-0.02
3.34	2.00	4.25	0.75	0.75	0.00	0.00	0.00	0.00	0.00	0.00	0.00	0.00	0.00	0.00	0.00	0.00	4.406738	-2.409180	0.126953	111.930000	357.630005	86.309998	76.00	-0.38	-0.07	1.00	0.75	0.50	1.25	0.25	0.50	1.75	1.50	17.50	17.00	18.50	13.00	7.75	16.75	5.50	7.25	-0.397461	0.104980	1.215820	3.360000	336.910004	-23.799999	1138.00	0.24	-0.02
3.35	16.50	27.50	1.50	2.75	0.00	0.00	0.00	0.00	0.00	0.50	1.00	0.50	0.00	0.00	0.00	0.00	1.632324	-0.558594	1.246094	-32.549999	303.309998	6.370000	492.00	-0.37	-0.06	0.75	1.00	0.25	0.75	0.25	0.25	1.50	1.25	17.25	17.00	18.25	12.75	7.00	17.75	6.00	7.50	-0.441895	0.156250	1.196289	-1.820000	370.790009	-29.820000	1119.00	0.25	-0.01
3.36	27.25	37.25	2.50	5.75	0.00	0.00	0.00	0.00	0.00	0.00	0.75	0.00	0.00	0.00	0.00	0.00	-1.658203	-1.298340	0.292480	58.799999	494.970001	-18.900000	724.00	-0.39	-0.05	0.50	1.00	0.25	0.75	0.00	0.25	1.75	1.25	17.00	17.00	18.00	12.50	6.50	18.50	6.25	7.75	-0.550293	0.221680	1.210938	-9.380000	409.500000	-42.840000	1115.00	0.25	-0.01
3.37	29.00	38.25	4.25	11.00	0.25	0.50	0.00	0.00	0.00	0.00	1.00	0.75	0.00	0.00	0.00	0.00	-1.510254	1.215332	5.898926	-38.849998	582.470032	-76.650002	847.00	-0.37	-0.06	0.25	1.00	0.00	0.75	0.25	0.25	1.75	0.75	16.00	16.75	17.25	12.25	5.50	19.00	6.00	7.75	-0.615723	0.243652	1.218262	-20.440001	453.459991	-62.230000	1072.00	0.25	-0.00
3.38	29.25	37.75	7.25	18.75	0.50	4.75	0.00	0.25	0.00	0.00	1.25	0.75	0.00	0.00	0.00	0.00	-1.264160	0.346680	5.097168	3.710000	444.500000	-45.290001	1019.00	-0.35	-0.08	0.25	0.75	0.00	0.50	0.00	0.00	2.00	0.75	14.25	15.75	16.25	11.50	5.50	19.50	5.75	7.75	-0.750000	0.179688	1.302734	-32.410000	502.320007	-81.550003	1015.00	0.26	-0.00
3.39	26.75	36.00	8.50	22.00	1.50	9.00	0.00	1.00	0.00	0.00	1.25	0.75	0.25	0.00	0.00	0.00	-0.546387	0.289551	2.680176	9.030000	321.230011	-39.970001	1097.00	-0.32	-0.10	0.25	0.50	0.00	0.00	0.00	0.00	2.25	0.50	11.75	13.75	14.25	10.50	4.00	19.75	5.50	7.25	-1.027832	0.268555	1.667969	-45.920002	553.489990	-91.489998	906.00	0.27	0.00
3.40	23.25	33.75	9.00	23.50	2.25	12.75	0.00	2.25	0.00	0.00	1.00	1.00	0.75	0.00	0.00	0.00	-0.331543	0.732910	1.539551	-36.610001	221.199997	-25.760000	1135.00	-0.31	-0.12	0.00	0.00	0.00	0.00	0.00	0.00	2.00	0.00	8.75	11.25	12.00	9.25	2.75	20.00	4.75	6.25	-1.585938	0.632812	1.702148	-47.670002	598.150024	-95.830002	763.00	0.28	0.01
3.41	22.00	32.75	9.75	24.75	4.00	16.25	0.25	5.00	0.00	0.00	1.00	1.50	1.50	0.00	0.00	0.00	-0.318359	0.291016	1.153809	-80.570000	185.430008	-4.200000	1249.00	-0.28	-0.13	0.00	0.00	0.00	0.00	0.00	0.00	1.75	0.00	6.75	9.00	10.00	8.00	1.75	18.25	3.25	5.00	-3.418945	0.821289	4.170898	90.370003	653.030029	-65.730003	630.00	0.28	0.01
3.42	21.75	32.50	10.75	26.00	5.25	19.25	0.25	6.25	0.00	0.00	1.25	1.00	1.75	0.00	0.00	0.25	-0.304199	0.010254	1.671387	-114.239998	162.680008	-0.560000	1336.00	-0.27	-0.14	0.00	0.00	0.00	0.00	0.00	0.00	1.25	0.00	5.00	7.25	8.00	6.50	1.75	15.00	2.00	4.25	-3.418945	0.821289	4.170898	90.370003	653.030029	-65.730003	499.00	0.28	0.01
3.43	23.00	32.25	12.25	26.50	6.25	20.25	0.25	6.75	0.00	0.25	1.25	1.25	2.50	0.00	0.00	0.25	-0.311035	0.088867	1.359863	-112.000000	109.340004	-9.800000	1410.00	-0.26	-0.13	0.00	0.00	0.00	0.00	0.00	0.00	0.75	0.00	3.00	5.00	6.25	4.75	1.50	11.75	1.75	3.50	-3.278809	0.074219	4.176758	108.570000	661.989990	-80.779999	369.00	0.29	-0.00
3.44	24.50	31.75	13.00	27.00	7.00	21.00	0.50	6.75	0.00	0.25	1.50	1.00	2.50	0.00	0.00	0.50	-0.250977	0.218262	1.062988	-99.959999	72.309998	-12.110000	1456.00	-0.26	-0.13	0.00	0.00	0.00	0.00	0.00	0.00	0.25	0.00	2.00	4.00	4.75	3.75	1.50	8.50	1.50	2.75	-2.373535	0.837891	5.037109	106.260002	628.460022	-118.720001	277.00	0.29	-0.02
3.45	24.25	31.25	13.75	26.75	7.75	21.25	0.50	7.25	0.00	0.25	1.25	1.25	2.75	0.00	0.00	0.50	-0.201172	0.114746	1.082520	-110.180000	57.119999	-9.240000	1475.00	-0.26	-0.13	0.00	0.00	0.00	0.00	0.00	0.00	0.00	0.00	2.00	3.25	3.50	3.00	1.50	5.00	1.00	2.00	-0.552246	1.933594	4.478516	16.379999	429.799988	-149.520004	205.00	0.28	-0.03
3.46	24.75	30.25	14.25	26.00	8.50	21.25	0.50	7.50	0.25	0.50	1.25	1.50	3.00	0.00	0.00	0.50	-0.200684	0.086914	1.063477	-116.760002	36.330002	-9.170000	1491.00	-0.25	-0.13	0.00	0.00	0.00	0.00	0.00	0.00	0.00	0.00	1.00	2.25	2.50	2.25	0.75	1.50	0.50	1.50	2.287109	0.843750	5.230469	40.810001	296.029999	-175.559998	119.00	0.26	-0.07
3.47	25.00	29.50	14.75	25.50	9.25	21.25	0.75	7.50	0.00	0.75	1.25	1.25	3.25	0.00	0.00	0.50	-0.228027	0.106934	1.031738	-103.250000	13.860000	-8.260000	1498.00	-0.25	-0.12	0.00	0.00	0.00	0.00	0.00	0.00	0.00	0.00	1.00	2.25	1.75	1.50	0.50	1.00	0.75	0.75	2.245117	0.344727	0.001465	24.360001	281.329987	-148.470001	95.00	0.27	-0.04
3.48	24.00	28.25	15.00	25.00	10.00	21.00	0.75	7.50	0.25	0.75	1.00	1.25	3.50	0.25	0.00	0.75	-0.198730	0.086426	0.991699	-83.510002	0.420000	-6.090000	1485.00	-0.25	-0.12	0.00	0.00	0.00	0.00	0.00	0.00	0.00	0.00	0.75	2.25	2.00	1.25	0.50	0.75	0.25	0.75	2.100586	2.139648	5.316895	-24.430000	82.040001	-81.620003	85.00	0.25	-0.05
3.49	23.00	27.00	14.75	24.00	10.50	20.50	0.75	7.50	0.25	0.75	1.25	1.25	3.00	0.25	0.00	0.75	-0.176270	0.074219	0.997559	-64.050003	-7.630000	-4.550000	1448.00	-0.24	-0.12	0.00	0.00	0.00	0.00	0.00	0.00	0.00	0.00	0.75	2.25	1.50	1.75	0.50	0.50	0.25	0.75	1.236816	1.556152	3.725098	-16.940001	-135.100006	-23.870001	83.00	0.25	-0.07
3.50	21.75	25.00	14.00	22.50	11.00	20.25	0.75	7.75	0.50	1.00	1.25	1.25	3.25	0.00	0.00	0.50	-0.185059	0.068848	0.996582	-37.099998	-10.220000	-4.060000	1403.00	-0.24	-0.12	0.00	0.00	0.00	0.00	0.00	0.00	0.00	0.00	0.50	1.75	1.50	1.00	0.00	0.25	0.25	0.50	0.937500	1.334961	2.320801	41.580002	-222.040009	22.820000	59.00	0.25	-0.05
3.51	19.00	22.00	13.25	20.75	10.75	19.75	1.00	7.75	0.50	0.75	1.50	1.50	3.50	0.00	0.25	0.75	-0.183105	0.062500	0.966309	-17.639999	-6.650000	-3.500000	1324.00	-0.23	-0.12	0.00	0.00	0.00	0.00	0.00	0.00	0.00	0.00	0.75	1.50	1.50	1.00	0.50	0.00	0.25	0.50	0.873047	0.875000	1.688965	65.590004	-247.449997	49.000000	61.00	0.24	-0.07
3.52	16.25	19.50	12.00	19.00	10.75	19.00	1.00	7.75	0.50	1.25	1.50	1.25	3.50	0.00	0.00	0.75	-0.176758	0.059082	0.964355	-9.870000	-2.800000	-2.520000	1231.00	-0.22	-0.13	0.00	0.00	0.00	0.00	0.00	0.00	0.00	0.00	0.25	1.50	1.50	1.00	0.00	0.00	0.25	0.25	0.776367	0.570801	1.480957	93.800003	-264.459991	70.000000	49.00	0.00	0.00
3.53	12.50	15.75	10.50	17.00	10.25	18.50	1.00	8.00	0.75	1.25	1.50	1.75	3.75	0.25	0.25	0.75	-0.165527	0.056641	0.965820	-5.670000	0.910000	-2.030000	1127.00	-0.20	-0.14	0.00	0.00	0.00	0.00	0.00	0.00	0.00	0.00	0.25	1.25	1.50	0.50	0.25	0.00	0.25	0.25	0.721680	0.172852	1.477539	110.180000	-283.220001	86.239998	43.00	0.00	0.00
3.54	9.00	12.50	9.25	14.25	9.50	17.50	1.00	8.00	1.00	1.50	1.75	1.75	4.00	0.50	0.00	0.75	-0.163086	0.051758	0.967773	-4.200000	3.080000	-1.680000	1008.00	-0.17	-0.14	0.00	0.00	0.00	0.00	0.00	0.00	0.00	0.00	0.00	1.00	1.00	0.50	0.25	0.00	0.25	0.00	0.673340	-0.150879	1.569336	111.440002	-306.390015	101.430000	31.00	0.00	0.00
3.55	7.25	9.50	7.75	11.75	9.00	16.00	1.00	8.00	1.00	1.50	2.00	1.75	4.00	0.25	0.25	0.75	-0.175293	0.067383	0.964844	-4.270000	6.650000	-1.400000	899.00	-0.16	-0.15	0.00	0.00	0.00	0.00	0.00	0.00	0.00	0.00	0.50	1.25	1.25	0.75	0.00	0.00	0.00	0.00	0.578613	-0.395508	1.474121	101.290001	-331.660004	117.250000	41.00	0.00	0.00
3.56	5.50	7.50	7.00	9.50	8.25	14.50	1.00	7.75	1.00	1.50	2.25	2.25	4.75	0.00	0.25	0.75	-0.175293	0.067383	0.964844	-4.270000	6.650000	-1.400000	814.00	-0.14	-0.16	0.00	0.00	0.00	0.00	0.00	0.00	0.00	0.00	0.25	1.25	0.75	0.50	0.00	0.00	0.00	0.00	0.409180	-0.549805	1.330566	82.669998	-352.029999	130.550003	29.00	0.00	0.00
3.57	4.25	6.25	5.75	8.00	7.75	12.75	1.00	7.50	1.25	1.75	2.25	2.25	5.00	0.50	0.25	0.75	-0.185547	0.051270	0.946289	-6.160000	7.210000	-1.890000	743.00	-0.12	-0.16	0.00	0.00	0.00	0.00	0.00	0.00	0.00	0.00	0.00	0.50	0.75	0.50	0.00	0.00	0.00	0.00	0.278809	-0.623047	1.198730	64.260002	-363.579987	138.809998	18.00	0.00	0.00
3.58	3.25	5.25	5.00	6.50	7.25	10.75	1.00	7.25	1.50	2.00	2.50	2.75	5.00	0.25	0.25	1.00	-0.142090	-0.018066	0.968750	-6.720000	6.790000	-3.150000	680.00	-0.09	-0.16	0.00	0.00	0.00	0.00	0.00	0.00	0.00	0.00	0.25	0.75	0.50	0.25	0.00	0.00	0.00	0.00	0.194336	-0.676758	1.125488	50.820000	-368.059998	139.649994	19.00	0.00	0.00
3.59	2.50	4.50	4.50	5.75	6.50	9.25	1.25	7.00	1.75	2.50	3.00	2.75	5.00	0.25	0.50	1.00	-0.173828	0.071289	0.955566	-6.860000	6.090000	-5.320000	644.00	-0.07	-0.16	0.00	0.00	0.00	0.00	0.00	0.00	0.00	0.00	0.25	0.50	0.75	0.25	0.00	0.00	0.00	0.00	0.145508	-0.727051	1.166504	45.009998	-372.540009	131.600006	19.00	0.00	0.00
3.60	2.00	4.00	3.75	4.50	5.75	8.25	1.25	6.50	1.75	2.75	3.25	2.75	5.00	0.75	0.25	1.00	-0.178223	0.092773	0.961426	-6.300000	6.510000	-8.470000	592.00	-0.05	-0.15	0.00	0.00	0.00	0.00	0.00	0.00	0.00	0.00	0.00	0.75	0.50	0.25	0.00	0.00	0.00	0.00	0.085449	-0.782715	1.225098	45.080002	-380.940002	115.010002	16.00	0.00	0.00
3.61	1.75	3.25	3.25	3.75	5.25	7.25	1.25	6.00	3.00	3.25	3.50	3.00	5.00	0.25	0.50	1.00	-0.173828	0.065430	0.961426	-5.320000	7.140000	-10.780000	570.00	-0.03	-0.14	0.00	0.00	0.00	0.00	0.00	0.00	0.00	0.00	0.00	0.50	0.25	0.50	0.00	0.00	0.00	0.00	-0.011719	-0.842285	1.378906	48.720001	-392.489990	92.889999	13.00	0.00	0.00
3.62	1.50	2.50	2.75	3.25	4.50	6.00	1.25	5.75	3.75	3.50	4.00	3.25	5.25	0.75	0.75	1.00	-0.179688	0.081055	0.962891	-4.410000	8.330000	-11.200000	553.00	0.01	-0.13	0.00	0.00	0.00	0.00	0.00	0.00	0.00	0.00	0.00	0.25	0.25	0.25	0.00	0.00	0.00	0.00	-0.103027	-0.883301	1.460449	49.000000	-405.510010	70.419998	8.00	0.00	0.00
3.63	1.25	2.25	2.50	2.75	4.25	5.25	1.25	5.25	4.75	4.00	4.75	3.25	5.25	1.25	0.75	1.25	-0.187012	0.047363	0.959961	-3.360000	9.450000	-10.010000	553.00	0.03	-0.12	0.00	0.00	0.00	0.00	0.00	0.00	0.00	0.00	0.00	0.25	0.25	0.00	0.00	0.00	0.00	0.00	-0.209473	-0.864746	1.576172	38.990002	-416.570007	50.540001	5.00	0.00	0.00
3.64	1.50	2.25	2.50	2.25	3.50	4.50	1.50	5.00	5.25	5.25	5.25	3.25	5.00	1.75	0.75	1.25	-0.188965	0.010742	0.956543	-3.220000	9.380000	-8.050000	561.00	0.05	-0.10	0.25	0.00	0.00	0.00	0.00	0.00	0.00	0.00	0.00	0.00	0.50	0.00	0.00	0.00	0.00	0.00	-0.321777	-0.764648	1.682617	20.299999	-423.920013	34.509998	8.00	0.00	0.00
3.65	1.25	2.00	2.00	2.50	3.50	3.25	1.75	4.75	7.00	6.50	6.50	3.50	5.25	2.25	0.75	1.25	-0.172363	0.071777	0.949707	-3.080000	8.190000	-6.230000	597.00	0.08	-0.07	0.00	0.00	0.00	0.00	0.00	0.00	0.00	0.00	0.00	0.25	0.25	0.00	0.00	0.00	0.00	0.00	-0.467285	-0.470703	1.949707	-8.330000	-428.820007	13.230000	5.00	0.00	0.00
3.66	1.25	1.50	1.75	1.75	3.00	3.00	2.00	4.25	8.25	7.75	7.25	3.75	5.25	2.50	1.00	1.50	-0.185059	0.054199	0.947754	-2.940000	7.840000	-5.250000	616.00	0.11	-0.06	0.00	0.00	0.00	0.00	0.00	0.00	0.00	0.00	0.00	0.00	0.00	0.00	0.00	0.00	0.00	0.00	-0.500488	-0.348145	2.174316	-11.900000	-432.459991	5.950000	0.00	0.00	0.00
3.67	0.50	1.50	1.75	1.25	2.50	2.25	2.25	4.00	9.25	8.25	8.00	4.25	5.25	3.25	1.00	1.50	-0.186035	0.043945	0.967285	-2.240000	8.680000	-5.110000	626.00	0.13	-0.04	0.00	0.00	0.00	0.00	0.00	0.00	0.00	0.00	0.00	0.25	0.00	0.00	0.00	0.00	0.00	0.00	-0.537598	-0.233398	2.328613	-14.490000	-439.320007	1.470000	3.00	0.00	0.00
3.68	0.75	1.00	1.50	1.25	2.25	2.00	2.75	3.50	10.00	8.75	8.50	4.75	5.00	4.25	1.00	1.75	-0.162598	0.074707	0.948730	-1.120000	10.360000	-6.160000	649.00	0.15	-0.03	0.25	0.00	0.00	0.00	0.00	0.00	0.00	0.00	0.00	0.00	0.00	0.00	0.00	0.00	0.00	0.00	-0.617188	-0.101562	2.473145	-18.270000	-449.330017	-0.700000	3.00	0.00	0.00
