# time	left pressure 1[N/cm²]	left pressure 2[N/cm²]	left pressure 3[N/cm²]	left pressure 4[N/cm²]	left pressure 5[N/cm²]	left pressure 6[N/cm²]	left pressure 7[N/cm²]	left pressure 8[N/cm²]	left pressure 9[N/cm²]	left pressure 10[N/cm²]	left pressure 11[N/cm²]	left pressure 12[N/cm²]	left pressure 13[N/cm²]	left pressure 14[N/cm²]	left pressure 15[N/cm²]	left pressure 16[N/cm²]	left acceleration X[g]	left acceleration Y[g]	left acceleration Z[g]	left angular X[dps]	left angular Y[dps]	left angular Z[dps]	left total force[N]	left center of pressure X[%]	left center of pressure Y[%]	right pressure 1[N/cm²]	right pressure 2[N/cm²]	right pressure 3[N/cm²]	right pressure 4[N/cm²]	right pressure 5[N/cm²]	right pressure 6[N/cm²]	right pressure 7[N/cm²]	right pressure 8[N/cm²]	right pressure 9[N/cm²]	right pressure 10[N/cm²]	right pressure 11[N/cm²]	right pressure 12[N/cm²]	right pressure 13[N/cm²]	right pressure 14[N/cm²]	right pressure 15[N/cm²]	right pressure 16[N/cm²]	right acceleration X[g]	right acceleration Y[g]	right acceleration Z[g]	right angular X[dps]	right angular Y[dps]	right angular Z[dps]	right total force[N]	right center of pressure X[%]	right center of pressure Y[%]
0.00																										7.75	8.75	7.50	8.75	2.00	1.75	0.75	0.75	3.25	3.25	2.50	2.00	2.00	3.50	0.75	1.75	-0.246582	0.082520	0.953125	-2.450000	-3.360000	2.030000	592.00	-0.12	-0.04
0.01																										7.75	9.00	7.50	8.75	2.00	1.75	0.75	1.00	3.50	2.75	2.50	2.00	2.25	3.25	1.00	1.75	-0.247559	0.083984	0.957520	-2.450000	-3.360000	2.030000	599.00	-0.12	-0.05
0.02	2.50	2.50	2.00	1.25	0.50	0.00	0.00	0.00	0.75	1.50	0.25	0.50	0.25	1.75	0.50	0.00	-0.297363	0.071777	0.935059	-1.400000	6.230000	-1.470000	146.00	-0.10	0.01	8.25	9.25	7.50	9.00	2.00	1.50	0.75	0.75	3.00	3.00	2.50	2.00	2.25	3.50	1.00	1.50	-0.243652	0.081055	0.960449	-2.520000	-3.360000	2.030000	600.00	-0.12	-0.05
0.03	2.75	2.25	1.75	1.50	0.50	0.00	0.00	0.00	1.00	1.50	0.25	0.25	0.25	1.75	0.50	0.00	-0.297852	0.067871	0.935547	-1.400000	6.230000	-1.330000	147.00	-0.09	0.02	8.00	9.25	7.50	9.00	1.75	1.75	0.75	0.75	3.25	3.00	2.50	2.00	2.25	3.50	0.75	1.50	-0.244141	0.080566	0.956543	-2.520000	-3.500000	2.030000	598.00	-0.12	-0.05
0.04	2.75	2.50	1.75	2.00	0.50	0.00	0.00	0.00	0.75	1.25	0.25	0.25	0.25	2.00	0.50	0.00	-0.302246	0.066895	0.933594	-1.400000	6.160000	-1.470000	151.00	-0.11	0.00	8.00	9.00	7.50	9.25	2.00	1.75	0.75	0.75	3.50	2.75	2.50	2.00	2.25	3.50	1.00	1.75	-0.244141	0.080566	0.956543	-2.520000	-3.500000	2.030000	606.00	-0.12	-0.05
0.05	3.00	2.25	2.25	1.75	0.50	0.00	0.00	0.00	0.50	1.25	0.00	0.50	0.50	1.75	0.50	0.00	-0.297852	0.068848	0.935547	-1.400000	6.160000	-1.470000	151.00	-0.13	-0.00	8.25	9.25	7.50	9.25	2.00	1.50	0.75	0.75	3.25	3.00	2.50	2.00	2.50	3.50	0.75	1.50	-0.246094	0.082031	0.962402	-2.590000	-3.430000	2.030000	605.00	-0.12	-0.05
0.06																										8.25	9.25	7.50	9.00	2.00	1.50	0.75	0.75	3.00	3.00	2.25	2.00	2.25	3.50	0.75	1.75	-0.242676	0.083008	0.955566	-2.590000	-3.290000	2.030000	596.00	-0.13	-0.05
0.07	2.50	2.00	1.75	1.25	0.75	0.00	0.00	0.00	1.00	1.50	0.25	0.25	0.00	1.75	0.25	0.00	-0.301758	0.070312	0.932129	-1.330000	6.230000	-1.540000	137.00	-0.09	0.04	8.50	9.25	7.50	9.25	2.00	1.50	0.75	0.50	3.00	3.00	2.25	2.00	2.00	3.25	1.00	1.50	-0.242188	0.082520	0.961426	-2.590000	-3.290000	2.030000	594.00	-0.13	-0.04
0.08	2.75	2.25	2.25	1.50	0.50	0.00	0.00	0.00	0.75	1.50	0.00	0.25	0.50	1.75	0.50	0.00	-0.296387	0.067871	0.929199	-1.610000	6.090000	-1.470000	149.00	-0.11	0.01	8.50	9.50	7.75	9.25	2.00	1.75	0.75	0.75	3.00	3.00	2.50	1.75	2.00	3.50	1.00	1.75	-0.246094	0.085938	0.957031	-2.590000	-3.500000	2.030000	609.00	-0.13	-0.05
0.09	2.75	2.00	2.00	1.50	0.50	0.00	0.00	0.00	0.50	1.50	0.25	0.25	0.50	1.75	0.50	0.00	-0.297852	0.069824	0.932129	-1.610000	6.090000	-1.400000	143.00	-0.10	0.00	8.50	9.50	7.75	9.25	1.75	1.50	0.75	0.75	3.25	2.75	2.50	1.75	2.00	3.25	1.00	1.50	-0.245605	0.079102	0.964355	-2.520000	-3.640000	2.030000	601.00	-0.13	-0.04
0.10	2.50	2.00	1.75	1.75	0.50	0.00	0.00	0.00	1.00	1.25	0.25	0.25	0.50	2.00	0.50	0.00	-0.298828	0.069824	0.934082	-1.540000	6.160000	-1.400000	146.00	-0.08	0.01	9.00	9.75	7.75	9.25	2.00	1.75	0.75	0.75	3.00	2.75	2.75	1.75	2.25	3.00	0.75	1.75	-0.242676	0.078613	0.958984	-2.450000	-3.780000	2.100000	612.00	-0.14	-0.05
0.11	2.75	2.25	2.00	1.25	0.50	0.00	0.00	0.00	0.25	1.25	0.25	0.50	0.25	1.75	0.50	0.00	-0.296387	0.069824	0.929688	-1.540000	6.230000	-1.470000	137.00	-0.12	-0.00	8.75	9.75	8.00	9.25	2.00	1.75	0.75	0.50	2.75	2.75	2.25	1.50	2.25	3.25	0.75	1.50	-0.248535	0.086426	0.961426	-2.450000	-3.990000	2.100000	598.00	-0.14	-0.05
0.12	2.75	2.25	2.00	1.50	0.50	0.00	0.00	0.00	1.00	1.50	0.25	0.25	0.50	1.75	0.25	0.00	-0.300781	0.067871	0.929199	-1.610000	6.230000	-1.400000	149.00	-0.10	0.01	9.25	10.00	8.00	9.50	1.75	1.50	0.75	0.75	3.00	2.75	2.25	1.75	1.75	3.00	0.75	1.50	-0.242676	0.081055	0.951660	-2.520000	-4.200000	2.170000	606.00	-0.15	-0.04
0.13	2.75	2.50	1.75	1.75	0.50	0.00	0.00	0.00	0.50	1.50	0.00	0.25	0.25	1.75	0.50	0.00	-0.294922	0.069336	0.932129	-1.470000	6.020000	-1.470000	143.00	-0.12	0.00	9.50	10.25	8.00	9.50	1.75	1.50	0.75	0.75	2.75	2.75	2.00	1.50	1.75	3.00	0.75	1.50	-0.240234	0.081055	0.958008	-2.660000	-4.130000	2.240000	603.00	-0.15	-0.04
0.14	2.75	1.75	1.75	1.50	0.50	0.00	0.00	0.00	0.50	1.25	0.25	0.50	0.50	1.75	0.50	0.00	-0.300781	0.068359	0.924805	-1.260000	5.810000	-1.260000	138.00	-0.10	-0.00	9.75	10.50	8.25	9.75	2.00	1.75	0.75	0.50	2.75	2.50	2.25	1.50	1.75	3.00	0.75	1.50	-0.239258	0.088867	0.961914	-2.870000	-4.200000	2.170000	615.00	-0.16	-0.04
0.15	2.75	2.50	2.00	1.50	0.50	0.00	0.00	0.00	0.50	1.50	0.50	0.25	0.50	2.00	0.50	0.00	-0.303711	0.072266	0.936035	-1.330000	5.950000	-1.190000	152.00	-0.10	-0.00	10.25	10.75	8.25	9.75	1.75	1.75	0.75	0.75	2.75	2.75	2.25	1.50	1.75	3.00	0.75	1.50	-0.239746	0.084961	0.958984	-3.010000	-4.340000	2.310000	626.00	-0.16	-0.04
0.16	2.75	2.25	2.25	1.75	0.50	0.00	0.00	0.00	0.75	1.25	0.25	0.25	0.25	1.50	0.50	0.00	-0.299805	0.067383	0.937500	-1.540000	6.370000	-1.400000	147.00	-0.13	0.01	10.00	10.75	8.25	10.00	1.75	1.75	0.75	0.50	2.75	2.50	2.00	1.50	1.75	2.75	0.75	1.25	-0.241211	0.079102	0.958984	-2.940000	-4.410000	2.310000	614.00	-0.17	-0.04
0.17	2.75	1.75	1.75	1.75	0.50	0.00	0.00	0.00	0.50	1.25	0.25	0.50	0.25	1.50	0.75	0.00	-0.293457	0.065430	0.936523	-1.400000	6.230000	-1.470000	139.00	-0.10	-0.00	10.25	11.00	8.50	9.75	1.75	2.00	0.75	0.75	2.25	2.50	2.00	1.50	1.75	3.00	0.75	1.25	-0.242188	0.082031	0.965332	-2.870000	-4.480000	2.380000	621.00	-0.17	-0.05
0.18	2.75	2.00	1.75	1.75	0.50	0.00	0.00	0.00	0.50	1.25	0.25	0.25	0.50	2.25	0.50	0.00	-0.293457	0.069336	0.930664	-1.400000	6.020000	-1.400000	145.00	-0.10	0.00	11.00	11.25	8.50	10.00	1.75	1.75	0.75	0.50	2.50	2.25	2.00	1.25	1.75	2.75	1.00	1.25	-0.247070	0.082520	0.954102	-2.730000	-4.620000	2.380000	625.00	-0.18	-0.04
0.19	2.75	2.50	2.00	1.75	0.50	0.00	0.00	0.00	0.75	1.50	0.25	0.50	0.50	1.75	0.25	0.00	-0.298340	0.069336	0.930664	-1.400000	5.950000	-1.470000	154.00	-0.11	-0.00	11.50	11.25	8.50	10.00	1.75	1.50	0.75	0.75	2.50	2.75	2.00	1.25	1.50	2.75	0.50	1.25	-0.242188	0.085449	0.958008	-2.730000	-4.760000	2.310000	629.00	-0.18	-0.04
0.20	2.75	2.50	2.25	1.75	0.50	0.00	0.00	0.00	0.50	1.25	0.25	0.25	0.25	1.50	0.50	0.00	-0.296387	0.074707	0.932129	-1.470000	5.950000	-1.470000	146.00	-0.14	-0.00	11.50	11.75	8.50	10.00	1.75	1.75	0.75	0.50	2.25	2.50	1.75	1.25	1.50	2.75	0.75	1.25	-0.240723	0.087891	0.953125	-2.660000	-4.760000	2.240000	627.00	-0.19	-0.04
0.21	2.75	2.25	2.00	1.75	0.50	0.00	0.00	0.00	0.75	1.25	0.50	0.25	0.25	2.00	0.50	0.00	-0.295410	0.068848	0.937500	-1.470000	5.880000	-1.540000	151.00	-0.10	0.01	11.50	11.75	8.75	10.50	2.00	1.50	0.75	0.50	2.25	2.25	1.75	1.50	1.50	2.50	0.75	1.25	-0.237305	0.081055	0.955078	-2.730000	-4.830000	2.310000	633.00	-0.19	-0.04
0.22	2.75	2.50	2.25	1.50	0.25	0.00	0.00	0.00	0.75	1.25	0.25	0.50	0.50	1.75	0.50	0.00	-0.291992	0.071289	0.929199	-1.540000	5.670000	-1.470000	151.00	-0.11	-0.00	12.00	12.00	8.50	10.25	1.75	1.25	0.75	0.50	2.25	2.25	2.00	1.25	1.50	2.50	0.75	1.25	-0.239258	0.085938	0.954590	-2.940000	-4.550000	2.240000	630.00	-0.19	-0.04
0.23	2.75	2.50	2.00	1.50	0.50	0.00	0.00	0.00	0.75	1.50	0.00	0.50	0.25	1.75	0.50	0.00	-0.295410	0.069336	0.936035	-1.470000	5.670000	-1.400000	149.00	-0.11	0.01	12.00	12.25	9.00	10.25	1.75	1.50	0.50	0.50	2.25	2.25	1.75	1.50	1.50	2.25	0.75	1.25	-0.239746	0.082031	0.947266	-2.940000	-4.340000	2.100000	634.00	-0.20	-0.05
0.24	3.00	2.25	2.00	1.75	0.50	0.00	0.00	0.00	0.50	1.25	0.25	0.50	0.50	1.75	0.25	0.00	-0.296875	0.069824	0.933594	-1.750000	5.670000	-1.540000	148.00	-0.13	-0.01	12.50	12.25	9.00	10.50	1.75	1.75	0.75	0.50	2.25	2.00	1.75	1.50	1.50	2.50	0.75	1.25	-0.243652	0.081055	0.958984	-2.870000	-4.130000	2.170000	648.00	-0.20	-0.04
0.25	2.75	2.25	2.00	1.50	0.50	0.00	0.00	0.00	0.75	1.25	0.00	0.25	0.50	2.00	0.25	0.00	-0.296875	0.063965	0.935547	-1.680000	5.740000	-1.540000	143.00	-0.12	0.01	12.75	12.00	9.00	10.50	1.75	1.75	0.75	0.50	2.25	2.00	1.50	1.25	1.50	2.50	0.75	1.00	-0.242676	0.074707	0.957520	-2.800000	-3.990000	2.240000	642.00	-0.20	-0.04
0.26	3.00	2.50	2.00	1.75	0.25	0.00	0.00	0.00	0.50	1.25	0.00	0.50	0.25	1.50	0.50	0.00	-0.293945	0.064941	0.928223	-1.750000	5.530000	-1.540000	143.00	-0.14	-0.00	12.75	12.50	8.75	10.50	1.75	1.50	0.50	0.50	1.75	2.25	1.75	1.25	1.50	2.50	0.75	1.25	-0.242676	0.080078	0.956543	-2.590000	-3.780000	2.170000	637.00	-0.20	-0.05
0.27	2.75	2.25	2.00	1.50	0.50	0.00	0.00	0.00	0.50	1.50	0.25	0.25	0.25	1.25	0.25	0.00	-0.295898	0.071289	0.929688	-1.540000	5.530000	-1.610000	136.00	-0.14	0.00	12.75	12.50	9.00	10.50	1.75	1.50	0.75	0.50	2.00	2.25	2.00	1.00	1.25	2.50	0.75	1.25	-0.242188	0.079590	0.955566	-2.450000	-3.640000	2.310000	645.00	-0.20	-0.04
0.28	2.75	2.50	2.25	1.50	0.50	0.00	0.00	0.00	0.75	1.25	0.00	0.25	0.50	1.25	0.25	0.00	-0.296387	0.070801	0.928223	-1.610000	5.460000	-1.540000	142.00	-0.15	0.00	12.75	12.75	9.00	10.50	1.75	1.75	0.75	0.50	2.25	2.25	1.75	1.50	1.50	2.50	0.75	1.00	-0.239258	0.078613	0.966797	-2.310000	-3.640000	2.240000	657.00	-0.20	-0.04
0.29	3.00	2.50	2.00	1.75	0.25	0.00	0.00	0.00	0.75	1.25	0.25	0.25	0.25	1.50	0.50	0.00	-0.297363	0.066406	0.933594	-1.820000	5.530000	-1.540000	147.00	-0.13	0.00	13.00	12.75	9.00	10.50	1.75	1.75	0.75	0.50	2.00	2.25	1.75	1.25	1.25	2.50	0.50	1.25	-0.239258	0.078613	0.966797	-2.310000	-3.640000	2.240000	650.00	-0.20	-0.04
0.30	2.75	2.25	2.00	1.75	0.50	0.00	0.00	0.00	0.50	1.25	0.00	0.25	0.25	1.25	0.00	0.00	-0.297852	0.071289	0.933105	-2.030000	5.670000	-1.470000	131.00	-0.17	0.00	13.25	12.75	9.00	10.50	1.75	1.50	0.50	0.50	2.00	2.25	1.75	1.25	1.25	2.50	0.75	1.25	-0.238281	0.081543	0.954590	-2.730000	-3.500000	2.030000	649.00	-0.20	-0.04
0.31	2.75	2.00	2.00	1.25	0.50	0.00	0.00	0.00	0.75	1.25	0.00	0.25	0.50	1.50	0.25	0.00	-0.289551	0.071289	0.929688	-1.960000	5.740000	-1.470000	134.00	-0.12	0.02	13.00	12.50	9.25	10.50	1.75	1.50	0.50	0.50	2.00	2.25	2.00	1.25	1.50	2.50	0.75	1.25	-0.235352	0.083496	0.954102	-2.590000	-3.150000	1.960000	651.00	-0.20	-0.04
0.32	2.75	2.25	1.75	1.50	0.50	0.00	0.00	0.00	0.75	1.50	0.25	0.25	0.25	1.75	0.50	0.00	-0.296875	0.068848	0.925781	-2.030000	6.230000	-1.400000	144.00	-0.10	0.01	12.75	12.50	9.25	10.50	1.75	1.75	0.75	0.75	2.00	2.25	1.75	1.25	1.50	2.50	0.75	1.25	-0.235352	0.079590	0.954102	-2.520000	-3.080000	1.890000	657.00	-0.20	-0.04
0.33	2.75	2.25	2.25	1.50	0.50	0.00	0.00	0.00	1.00	1.25	0.25	0.50	0.00	1.75	0.25	0.00	-0.292480	0.070312	0.928223	-1.960000	6.580000	-1.540000	148.00	-0.11	0.02	12.50	12.50	9.00	10.50	1.75	1.50	0.75	0.50	2.00	2.25	1.75	1.25	1.50	2.75	0.75	1.00	-0.244141	0.080078	0.954590	-2.450000	-2.940000	2.030000	645.00	-0.20	-0.04
0.34	2.75	2.25	2.00	1.50	0.50	0.00	0.00	0.00	0.25	1.25	0.25	0.25	0.25	1.50	0.25	0.00	-0.299316	0.066895	0.941406	-1.890000	6.720000	-1.470000	133.00	-0.15	-0.00	12.75	12.50	9.00	10.75	1.50	1.50	0.75	0.50	2.25	2.50	2.00	1.25	1.50	2.50	0.75	1.25	-0.232910	0.080566	0.947754	-2.450000	-2.870000	1.960000	656.00	-0.19	-0.04
0.35	3.00	1.75	1.75	1.50	0.50	0.00	0.00	0.00	0.75	1.50	0.00	0.50	0.25	1.50	0.25	0.00	-0.287598	0.070312	0.933105	-1.610000	6.790000	-1.470000	137.00	-0.12	0.02	12.50	12.25	9.00	10.50	1.75	1.50	0.75	0.50	2.00	2.25	1.75	1.25	1.50	2.50	1.00	1.25	-0.230957	0.079102	0.949707	-2.170000	-2.660000	1.890000	645.00	-0.20	-0.04
0.36	2.50	2.25	1.75	1.75	0.25	0.00	0.00	0.00	0.75	1.50	0.00	0.25	0.50	2.50	0.25	0.00	-0.295410	0.068359	0.935059	-1.680000	7.000000	-1.540000	144.00	-0.09	0.01	12.25	12.00	9.00	10.50	1.75	1.50	0.75	0.50	2.25	2.25	1.75	1.25	2.00	2.75	0.75	1.25	-0.235352	0.079102	0.956543	-2.100000	-2.380000	1.820000	647.00	-0.19	-0.04
0.37	2.25	2.25	1.75	1.50	0.50	0.00	0.00	0.00	0.75	1.25	0.25	0.00	0.50	1.75	0.50	0.00	-0.296875	0.064941	0.938477	-1.540000	6.580000	-1.400000	135.00	-0.10	0.01	12.00	12.00	9.00	10.50	1.75	1.50	0.75	0.50	2.50	2.00	2.00	1.50	1.75	3.00	0.75	1.50	-0.235352	0.079102	0.965332	-2.240000	-2.380000	1.680000	652.00	-0.18	-0.04
0.38	3.00	2.50	1.75	1.25	0.50	0.00	0.00	0.00	0.50	1.25	0.00	0.50	0.50	1.50	0.50	0.00	-0.296875	0.065918	0.938477	-1.470000	6.300000	-1.330000	140.00	-0.13	-0.00	11.75	11.75	9.00	10.25	1.75	1.50	0.75	0.75	2.50	2.50	1.50	1.50	1.75	3.00	0.75	1.50	-0.243164	0.081055	0.964844	-2.240000	-2.100000	1.680000	648.00	-0.18	-0.04
0.39	2.75	1.75	1.75	1.50	0.50	0.00	0.00	0.00	0.75	1.25	0.00	0.00	0.25	1.75	0.25	0.00	-0.298340	0.066406	0.932129	-1.540000	6.440000	-1.330000	129.00	-0.12	0.03	11.50	11.50	8.75	10.50	1.75	1.50	0.75	0.50	2.50	2.50	2.00	1.50	1.75	3.25	1.00	1.50	-0.245117	0.082031	0.960449	-2.310000	-2.100000	1.680000	649.00	-0.17	-0.04
0.40	2.50	2.25	1.75	1.75	0.50	0.00	0.00	0.00	0.25	1.50	0.25	0.25	0.25	1.75	0.50	0.00	-0.295898	0.068848	0.934082	-1.540000	6.230000	-1.330000	137.00	-0.12	-0.01	11.25	11.25	8.75	10.25	1.75	1.75	0.75	0.50	2.50	2.50	2.00	1.50	1.75	3.25	1.00	1.25	-0.244141	0.084473	0.964355	-2.380000	-2.030000	1.750000	643.00	-0.17	-0.04
0.41	2.50	2.25	2.00	1.50	0.50	0.00	0.00	0.00	0.50	1.25	0.00	0.50	0.50	1.75	0.25	0.00	-0.293945	0.074707	0.930664	-1.610000	6.160000	-1.260000	138.00	-0.12	-0.00	11.00	11.25	8.75	10.25	2.00	1.50	0.75	0.75	2.75	2.50	2.00	1.75	1.75	3.50	1.25	1.50	-0.243164	0.083984	0.960449	-2.450000	-2.030000	1.610000	656.00	-0.16	-0.04
0.42	2.75	2.00	2.00	1.25	0.25	0.00	0.00	0.00	0.50	1.25	0.00	0.50	0.25	2.00	0.50	0.00	-0.294434	0.067383	0.927246	-1.680000	6.160000	-1.330000	135.00	-0.10	0.01	10.75	11.00	8.75	10.25	1.75	1.75	0.75	0.75	3.00	2.50	2.00	1.75	2.00	3.75	1.00	1.50	-0.240723	0.083984	0.964355	-2.450000	-2.100000	1.680000	656.00	-0.15	-0.04
0.43	2.50	2.25	2.00	1.75	0.50	0.00	0.00	0.00	0.25	1.25	0.00	0.25	0.25	1.50	0.25	0.00	-0.294434	0.067383	0.927246	-1.680000	6.160000	-1.330000	130.00	-0.15	-0.00	10.50	11.00	8.50	10.00	1.75	1.50	0.75	0.50	2.50	2.75	2.00	1.50	2.00	3.75	1.00	1.50	-0.241699	0.083496	0.966309	-2.590000	-1.960000	1.680000	635.00	-0.16	-0.04
0.44	2.75	2.00	1.50	1.25	0.50	0.00	0.00	0.00	0.75	1.50	0.25	0.50	0.50	1.50	0.25	0.00	-0.297852	0.067383	0.930176	-1.680000	6.370000	-1.470000	136.00	-0.10	0.00	10.50	10.75	8.50	10.00	1.75	1.50	0.75	0.75	2.75	2.50	2.00	1.50	1.75	3.75	1.25	1.50	-0.243164	0.078613	0.963379	-2.730000	-1.960000	1.680000	638.00	-0.15	-0.04
0.45	2.50	2.25	1.75	1.50	0.50	0.00	0.00	0.00	0.50	1.50	0.00	0.25	0.00	1.25	0.50	0.00	-0.297363	0.069336	0.929688	-1.470000	6.300000	-1.470000	129.00	-0.13	0.01	10.00	10.50	8.50	10.00	1.75	1.50	0.75	0.75	3.25	2.50	2.00	1.50	2.00	3.75	1.00	1.50	-0.238281	0.087891	0.957520	-2.730000	-2.030000	1.680000	636.00	-0.15	-0.04
0.46	2.25	2.00	2.00	1.50	0.50	0.00	0.00	0.00	0.75	1.50	0.00	0.25	0.25	1.75	0.50	0.00	-0.291992	0.065430	0.930664	-1.470000	6.510000	-1.470000	136.00	-0.09	0.02	9.75	10.25	8.50	10.00	2.00	1.75	0.75	0.75	3.50	2.75	2.00	1.75	2.00	4.25	1.25	1.75	-0.243164	0.083008	0.963379	-2.730000	-2.100000	1.680000	654.00	-0.13	-0.04
0.47	2.75	2.25	1.75	1.50	0.25	0.00	0.00	0.00	0.50	1.25	0.25	0.25	0.00	1.50	0.50	0.00	-0.289551	0.066406	0.935547	-1.400000	6.790000	-1.400000	131.00	-0.13	0.01	9.75	10.25	8.25	10.00	1.75	1.50	1.00	0.75	3.25	2.75	2.00	1.50	2.00	3.75	1.00	1.50	-0.239746	0.083008	0.957520	-3.010000	-2.170000	1.610000	635.00	-0.14	-0.04
0.48	2.50	2.25	1.75	1.50	0.50	0.00	0.00	0.00	0.75	1.25	0.25	0.25	0.25	2.00	0.25	0.00	-0.297363	0.066406	0.926270	-1.400000	6.930000	-1.330000	138.00	-0.10	0.01	9.50	10.00	8.25	9.75	2.00	1.75	0.75	0.75	3.50	2.75	2.25	1.75	2.00	4.00	1.00	1.75	-0.240234	0.076172	0.949219	-3.220000	-2.170000	1.610000	641.00	-0.13	-0.04
0.49	2.50	2.25	1.75	1.25	0.50	0.00	0.00	0.00	0.50	1.25	0.00	0.50	0.25	1.75	0.25	0.00	-0.294922	0.066895	0.939941	-1.470000	6.860000	-1.400000	130.00	-0.12	0.01	9.50	10.00	8.25	9.75	1.75	1.50	1.00	0.75	3.50	2.50	2.00	1.50	2.25	4.25	1.25	1.75	-0.245117	0.084473	0.967285	-2.940000	-1.890000	1.470000	638.00	-0.13	-0.04
0.50	2.50	2.00	1.75	1.25	0.50	0.00	0.00	0.00	0.50	1.25	0.00	0.25	0.25	1.50	0.25	0.00	-0.296875	0.063965	0.933594	-1.470000	6.860000	-1.470000	123.00	-0.13	0.01	9.50	10.00	8.25	9.75	2.00	1.75	1.00	0.75	3.75	3.00	2.25	1.75	2.00	4.50	1.25	1.75	-0.242676	0.077637	0.962891	-3.010000	-1.890000	1.540000	658.00	-0.12	-0.04
0.51	2.75	2.50	1.75	1.50	0.25	0.00	0.00	0.00	0.50	1.25	0.25	0.50	0.25	1.25	0.50	0.00	-0.292969	0.067871	0.932129	-1.540000	6.930000	-1.470000	136.00	-0.13	-0.01	9.50	9.75	8.00	9.50	2.00	1.50	1.00	0.75	3.75	3.00	2.00	1.75	2.00	4.25	1.25	1.75	-0.241699	0.080566	0.960449	-2.940000	-1.890000	1.540000	642.00	-0.12	-0.03
0.52	2.75	2.50	1.75	1.50	0.50	0.00	0.00	0.00	0.50	1.25	0.00	0.25	0.25	1.75	0.25	0.00	-0.295898	0.064941	0.937012	-1.680000	7.070000	-1.540000	135.00	-0.14	0.01	9.00	9.75	8.00	9.50	2.00	1.50	1.00	0.75	3.50	3.25	2.50	1.75	2.25	4.25	1.25	2.00	-0.239258	0.083008	0.960938	-2.800000	-1.890000	1.540000	645.00	-0.12	-0.04
0.53	2.50	2.50	2.00	1.75	0.50	0.00	0.00	0.00	0.50	1.50	0.50	0.25	0.50	1.75	0.50	0.00	-0.295410	0.071289	0.929688	-1.680000	6.790000	-1.400000	150.00	-0.11	-0.01	8.75	9.50	8.00	9.50	1.75	1.50	1.00	0.75	3.75	3.00	2.25	1.75	2.25	4.50	1.25	1.75	-0.241699	0.076660	0.961426	-2.660000	-2.030000	1.610000	636.00	-0.12	-0.04
0.54	2.50	2.25	2.00	1.75	0.50	0.00	0.00	0.00	0.75	1.50	0.25	0.25	0.25	2.00	0.50	0.00	-0.297852	0.068848	0.935547	-1.750000	6.790000	-1.470000	149.00	-0.10	0.01	8.75	9.50	8.00	9.50	1.75	1.50	1.00	0.50	3.75	3.00	2.25	2.00	2.25	4.75	1.25	2.00	-0.242188	0.084961	0.952637	-2.800000	-2.170000	1.610000	639.00	-0.11	-0.04
0.55	2.50	2.00	2.00	1.50	0.50	0.00	0.00	0.00	0.75	1.25	0.00	0.25	0.50	2.00	0.50	0.00	-0.294434	0.063965	0.935547	-1.750000	6.650000	-1.400000	141.00	-0.09	0.01	8.75	9.50	8.00	9.50	1.75	1.50	1.00	0.50	4.25	3.25	2.25	1.75	2.00	5.00	1.50	1.75	-0.247559	0.079590	0.958496	-2.800000	-2.240000	1.610000	646.00	-0.11	-0.03
0.56	3.00	1.50	2.00	1.50	0.50	0.00	0.00	0.00	0.50	1.50	0.25	0.50	0.25	1.75	0.25	0.00	-0.299316	0.072754	0.926270	-1.750000	7.000000	-1.470000	139.00	-0.11	0.01	8.50	9.50	8.00	9.25	2.00	1.50	1.00	0.75	3.75	3.00	2.25	1.50	2.50	4.75	1.25	1.75	-0.246094	0.082520	0.953125	-2.730000	-2.450000	1.750000	635.00	-0.11	-0.04
0.57	2.75	2.25	1.75	1.25	0.50	0.25	0.00	0.00	0.50	1.25	0.00	0.50	0.50	1.50	0.50	0.00	-0.291016	0.065430	0.930664	-1.610000	6.860000	-1.330000	138.00	-0.12	-0.01	8.25	9.25	7.75	9.25	2.00	1.50	1.00	0.75	4.00	2.75	2.50	1.75	2.50	5.25	1.50	2.00	-0.246582	0.083008	0.951660	-2.800000	-2.520000	1.750000	642.00	-0.10	-0.04
0.58	2.75	2.25	1.75	1.25	0.50	0.00	0.00	0.00	0.50	1.25	0.25	0.25	0.50	2.00	0.25	0.00	-0.298340	0.065918	0.933105	-1.750000	7.280000	-1.540000	137.00	-0.11	0.01	8.25	9.00	8.00	9.25	1.75	1.50	1.00	0.75	4.00	2.50	2.25	1.75	2.00	5.25	1.25	2.00	-0.242188	0.077148	0.954590	-3.010000	-2.520000	1.680000	628.00	-0.11	-0.03
0.59	3.00	1.75	2.00	1.25	0.50	0.00	0.00	0.00	0.75	1.50	0.25	0.00	0.25	1.75	0.25	0.00	-0.294922	0.068359	0.931641	-1.680000	7.210000	-1.540000	136.00	-0.11	0.03	8.25	9.00	7.75	9.25	2.00	1.50	1.00	0.75	4.00	3.25	2.50	1.75	2.25	5.25	1.50	1.75	-0.242676	0.081543	0.955566	-3.010000	-2.520000	1.610000	641.00	-0.10	-0.03
0.60	2.75	2.50	1.75	1.25	0.25	0.00	0.00	0.00	0.50	1.25	0.25	0.25	0.50	2.00	0.50	0.00	-0.293945	0.068359	0.934082	-1.610000	6.930000	-1.540000	139.00	-0.11	0.00	8.25	9.00	7.75	9.25	1.75	1.50	1.00	1.00	4.25	3.25	2.25	2.00	2.25	5.25	1.50	1.75	-0.240234	0.078125	0.955566	-3.220000	-2.310000	1.540000	646.00	-0.09	-0.03
0.61	2.75	2.25	1.75	1.75	0.25	0.00	0.00	0.00	0.75	1.50	0.00	0.25	0.50	2.00	0.25	0.00	-0.294922	0.063965	0.938477	-1.470000	6.930000	-1.470000	143.00	-0.11	0.01	8.00	9.00	7.75	9.00	2.00	1.50	1.00	0.75	4.25	3.25	2.50	2.00	2.25	5.25	1.50	2.00	-0.245117	0.076660	0.958496	-3.360000	-2.030000	1.470000	643.00	-0.09	-0.03
0.62	2.75	2.25	1.75	1.50	0.50	0.00	0.00	0.00	0.75	1.25	0.25	0.25	0.25	1.75	0.50	0.00	-0.305176	0.064941	0.930176	-1.540000	6.930000	-1.400000	141.00	-0.11	0.01	8.00	8.75	7.75	9.00	2.00	1.25	1.00	0.75	4.50	3.25	2.50	1.75	2.25	5.50	1.50	2.00	-0.250488	0.078125	0.957520	-3.430000	-1.960000	1.400000	641.00	-0.09	-0.03
0.63	2.50	2.50	1.75	1.25	0.50	0.00	0.00	0.00	0.75	1.50	0.25	0.25	0.50	1.75	0.50	0.00	-0.296387	0.064941	0.928223	-1.540000	6.860000	-1.330000	143.00	-0.09	0.01	7.75	8.75	7.50	9.00	2.00	1.50	1.00	0.75	4.50	3.25	2.25	1.75	2.00	5.75	1.25	2.00	-0.242188	0.079590	0.959473	-3.570000	-1.890000	1.400000	633.00	-0.09	-0.03
0.64	2.50	2.25	1.75	1.25	0.50	0.00	0.00	0.00	0.75	1.50	0.25	0.50	0.50	1.75	0.50	0.00	-0.296387	0.066406	0.929688	-1.400000	6.720000	-1.400000	143.00	-0.08	0.00	7.50	8.50	7.50	9.00	1.75	1.25	1.00	0.75	4.25	3.50	2.50	2.00	2.50	5.75	1.25	2.00	-0.249023	0.081543	0.961426	-3.500000	-1.890000	1.540000	632.00	-0.08	-0.03
0.65	2.50	2.00	2.00	1.25	0.50	0.00	0.00	0.00	0.50	1.25	0.00	0.50	0.50	1.75	0.50	0.00	-0.296387	0.070312	0.934082	-1.400000	6.580000	-1.470000	135.00	-0.10	0.00	7.50	8.50	7.50	8.75	1.75	1.25	1.00	0.75	4.75	3.25	2.50	1.75	2.50	5.50	1.50	2.00	-0.245605	0.077637	0.962402	-3.360000	-2.030000	1.750000	631.00	-0.08	-0.03
0.66	2.50	2.25	1.75	1.25	0.50	0.00	0.00	0.00	0.50	1.50	0.25	0.50	0.50	1.75	0.50	0.00	-0.300781	0.066406	0.930664	-1.540000	6.510000	-1.400000	140.00	-0.09	-0.00	7.25	8.50	7.50	8.75	1.75	1.25	1.00	0.75	4.50	3.25	2.50	2.00	2.50	5.50	1.50	2.00	-0.250488	0.073242	0.957031	-3.220000	-2.030000	1.680000	627.00	-0.08	-0.03
0.67	2.75	2.00	1.75	1.50	0.50	0.00	0.00	0.00	0.75	1.50	0.25	0.25	0.25	1.75	0.50	0.00	-0.296387	0.071289	0.936035	-1.470000	6.230000	-1.400000	141.00	-0.10	0.02	7.25	8.25	7.50	8.75	2.00	1.25	1.00	0.75	5.00	3.25	2.50	1.75	2.50	5.50	1.50	2.25	-0.244629	0.082520	0.954102	-3.010000	-2.170000	1.610000	633.00	-0.07	-0.03
0.68	2.50	2.00	2.00	1.75	0.50	0.00	0.00	0.00	0.75	1.50	0.25	0.25	0.25	1.75	0.50	0.00	-0.301758	0.070801	0.932129	-1.400000	6.230000	-1.400000	144.00	-0.10	0.01	7.25	8.25	7.25	8.75	1.75	1.50	1.25	0.75	5.00	3.50	2.75	1.75	2.50	5.75	1.50	2.00	-0.241699	0.079102	0.962402	-2.870000	-2.380000	1.820000	640.00	-0.07	-0.03
0.69	2.50	2.50	1.50	1.50	0.50	0.00	0.00	0.00	0.75	1.50	0.50	0.50	0.00	1.75	0.50	0.00	-0.295898	0.067871	0.931152	-1.470000	6.370000	-1.400000	144.00	-0.09	0.01	7.25	8.25	7.25	8.75	2.00	1.50	1.25	0.75	4.75	3.50	2.50	1.75	2.25	5.75	1.50	2.00	-0.242188	0.076660	0.959473	-2.870000	-2.520000	1.750000	635.00	-0.07	-0.03
0.70	2.50	2.00	2.00	1.25	0.50	0.00	0.00	0.00	0.75	1.50	0.25	0.25	0.50	2.00	0.50	0.00	-0.294922	0.067383	0.931152	-1.260000	6.230000	-1.260000	143.00	-0.08	0.02	7.25	8.00	7.25	8.50	1.75	1.50	1.00	1.00	5.00	3.25	2.50	2.00	2.25	6.00	1.50	2.00	-0.246582	0.080078	0.959473	-2.800000	-2.660000	1.750000	633.00	-0.07	-0.03
0.71	2.50	2.00	2.00	1.50	0.25	0.00	0.00	0.00	1.00	1.50	0.25	0.25	0.25	2.00	0.50	0.00	-0.297363	0.070312	0.933105	-1.190000	6.370000	-1.330000	144.00	-0.08	0.02	7.00	8.00	7.25	8.50	1.75	1.50	1.00	0.75	5.00	3.50	2.50	1.75	2.25	6.00	1.50	2.00	-0.244629	0.076172	0.957031	-2.730000	-2.730000	1.820000	626.00	-0.07	-0.02
0.72	2.75	2.25	2.00	1.50	0.50	0.00	0.00	0.00	1.00	1.25	0.00	0.75	0.25	2.00	0.50	0.00	-0.295898	0.067871	0.933594	-1.330000	6.510000	-1.330000	152.00	-0.09	0.01	7.00	8.00	7.00	8.50	1.75	1.50	1.00	0.75	5.00	3.25	2.50	1.75	2.25	5.75	1.50	2.00	-0.246094	0.078125	0.950684	-2.800000	-2.800000	1.820000	619.00	-0.07	-0.03
0.73	2.50	2.25	1.75	1.25	0.50	0.00	0.00	0.00	0.75	1.50	0.25	0.25	0.00	2.25	0.50	0.00	-0.297852	0.063477	0.933594	-1.330000	6.510000	-1.470000	140.00	-0.08	0.03	7.00	8.00	7.25	8.50	1.75	1.25	1.00	0.75	4.50	3.25	2.75	1.75	2.50	5.75	1.50	2.00	-0.247559	0.080078	0.956543	-2.800000	-2.870000	1.820000	617.00	-0.07	-0.03
0.74	3.00	1.75	2.00	1.50	0.50	0.00	0.00	0.00	0.75	1.50	0.25	0.50	0.25	2.00	0.75	0.00	-0.294434	0.069824	0.935547	-1.260000	6.440000	-1.400000	152.00	-0.08	0.02	7.00	8.00	7.25	8.50	1.75	1.25	1.00	0.75	5.00	3.25	2.50	1.75	2.25	5.75	1.25	2.00	-0.248535	0.078125	0.955566	-2.730000	-3.010000	1.960000	616.00	-0.07	-0.02
0.75	2.75	2.25	2.00	1.75	0.50	0.00	0.00	0.00	1.00	1.25	0.25	0.00	0.25	2.00	0.50	0.00	-0.302734	0.069336	0.937012	-1.400000	6.370000	-1.470000	149.00	-0.10	0.02	7.00	8.25	7.25	8.50	1.75	1.50	1.00	0.75	4.75	3.25	2.50	2.00	2.50	5.75	1.50	2.00	-0.248535	0.073242	0.957031	-2.240000	-3.360000	2.030000	625.00	-0.07	-0.03
0.76	2.75	2.25	2.00	1.75	0.50	0.00	0.00	0.00	0.75	1.50	0.25	0.50	0.25	1.75	0.50	0.00	-0.297852	0.066895	0.937500	-1.540000	6.370000	-1.540000	152.00	-0.10	0.00	7.00	8.25	7.25	8.50	2.00	1.50	1.00	0.75	4.50	3.00	2.50	2.00	2.25	5.50	1.25	2.00	-0.252441	0.084473	0.969727	-1.050000	-4.200000	2.450000	615.00	-0.08	-0.03
0.77	2.50	2.25	2.00	1.50	0.50	0.00	0.00	0.00	0.75	1.50	0.25	0.50	0.25	1.50	0.50	0.00	-0.303223	0.067383	0.943848	-1.750000	6.020000	-1.470000	144.00	-0.10	0.00	7.25	8.25	7.25	8.75	1.75	1.25	1.00	0.75	4.25	3.00	2.25	1.75	2.25	5.50	1.50	1.75	-0.250000	0.072754	0.960449	0.560000	-5.250000	2.800000	608.00	-0.08	-0.03
0.78	2.75	2.50	2.00	1.25	0.50	0.00	0.00	0.00	0.75	1.50	0.50	0.00	0.25	2.00	0.25	0.00	-0.314453	0.066895	0.962402	-2.030000	5.390000	-1.540000	145.00	-0.11	0.02	7.75	8.75	7.50	9.00	1.75	1.25	1.00	0.75	4.00	2.75	2.00	1.75	2.25	5.25	1.00	1.75	-0.258301	0.085449	0.961914	2.730000	-7.280000	3.290000	607.00	-0.10	-0.03
0.79	2.75	2.25	2.00	1.50	0.50	0.00	0.00	0.00	0.75	1.50	0.00	0.25	0.00	1.50	0.50	0.00	-0.320801	0.062012	0.952148	-0.070000	0.910000	-1.330000	140.00	-0.12	0.02	9.00	9.50	8.00	9.50	2.00	1.50	0.75	0.75	3.50	2.50	2.25	1.75	2.50	5.25	1.00	1.50	-0.257812	0.083496	0.970703	4.970000	-10.010000	3.920000	634.00	-0.12	-0.04
0.80	3.25	2.25	2.25	1.75	0.50	0.00	0.00	0.00	0.75	1.25	0.00	0.25	0.25	1.50	0.25	0.00	-0.311523	0.083008	0.933594	-0.070000	-1.890000	-1.540000	147.00	-0.15	0.02	10.00	10.50	8.50	10.25	2.00	1.50	0.75	0.75	2.75	2.50	2.00	1.50	2.00	4.75	1.00	1.50	-0.253906	0.080566	0.971680	6.370000	-12.180000	4.760000	644.00	-0.15	-0.04
0.81	3.25	2.75	1.75	1.50	0.50	0.00	0.00	0.00	0.00	1.00	0.25	0.75	0.00	1.25	0.25	0.00	-0.313965	0.081543	1.072754	1.050000	-2.660000	-1.820000	135.00	-0.18	-0.02	11.25	11.50	9.00	10.75	1.75	1.75	0.75	0.75	2.25	2.25	1.75	1.25	2.00	4.50	1.00	1.25	-0.249512	0.090332	0.967773	7.980000	-13.370000	5.670000	659.00	-0.17	-0.04
0.82	3.25	2.50	2.00	1.50	0.50	0.00	0.00	0.00	0.50	1.25	0.00	0.25	0.00	1.00	0.25	0.00	-0.312988	0.063965	0.933594	0.420000	-9.870000	-2.100000	134.00	-0.18	0.01	12.75	12.75	9.50	11.25	1.75	1.75	0.50	1.00	2.00	2.00	1.75	1.00	1.75	4.00	1.00	1.00	-0.246582	0.078613	0.973633	10.010000	-13.720000	6.790000	681.00	-0.19	-0.05
0.83	3.00	2.50	1.75	1.50	0.50	0.00	0.00	0.00	0.25	1.00	0.00	0.00	0.25	0.75	0.50	0.00	-0.306641	0.062500	0.970215	-3.570000	-13.440001	-2.380000	123.00	-0.20	-0.01	13.75	13.75	10.00	11.75	1.75	2.00	0.50	0.75	1.50	1.75	1.50	1.25	1.75	3.50	0.75	0.75	-0.234863	0.092285	0.965332	11.270000	-13.300000	7.700000	693.00	-0.21	-0.05
0.84	3.00	2.25	1.75	1.25	0.25	0.00	0.00	0.00	0.00	0.75	0.00	0.00	0.00	1.00	0.25	0.00	-0.280762	0.066895	0.950684	-8.960000	-14.630000	-2.520000	107.00	-0.23	0.01	14.75	14.75	10.25	12.25	1.75	2.00	0.25	0.75	1.00	1.75	1.25	1.00	1.75	3.25	0.75	1.00	-0.231934	0.093750	0.959473	11.900000	-12.040000	8.120000	704.00	-0.23	-0.05
0.85	2.75	2.25	1.25	1.25	0.25	0.00	0.00	0.00	0.00	0.50	0.00	0.00	0.00	0.50	0.25	0.00	-0.275391	0.083496	1.036621	-11.130000	-13.650000	-2.380000	92.00	-0.26	-0.01	15.75	15.75	10.25	12.75	1.75	2.00	0.25	0.75	1.00	1.50	1.25	1.25	1.25	2.75	0.75	1.00	-0.233398	0.091309	0.966797	11.970000	-11.340000	8.190000	721.00	-0.24	-0.06
0.86	2.25	2.00	1.50	0.50	0.25	0.00	0.00	0.00	0.00	0.50	0.00	0.00	0.00	0.75	0.25	0.00	-0.278320	0.090820	0.971680	-12.530000	-13.370000	-1.610000	81.00	-0.23	0.01	16.50	16.50	10.50	13.00	1.50	2.00	0.25	0.75	0.75	1.50	1.00	1.00	1.25	2.25	0.50	0.75	-0.237793	0.094238	0.968262	12.460000	-11.130000	8.470000	722.00	-0.26	-0.06
0.87	2.25	1.75	1.25	0.50	0.00	0.00	0.00	0.00	0.00	0.75	0.00	0.00	0.00	0.50	0.00	0.00	-0.278809	0.116211	0.991699	-14.630000	-14.210000	0.000000	71.00	-0.25	0.02	17.75	17.50	10.75	13.50	1.25	2.25	0.25	0.50	0.50	1.25	1.00	0.75	1.50	2.25	0.50	0.75	-0.241211	0.127930	0.911621	13.580000	-11.410000	9.240000	742.00	-0.27	-0.06
0.88	2.00	1.25	0.75	0.50	0.00	0.00	0.00	0.00	0.00	0.50	0.00	0.00	0.00	0.50	0.00	0.00	-0.343262	0.147461	1.170898	-24.920000	-20.230000	4.620000	56.00	-0.25	0.02	18.50	18.50	10.75	14.00	1.50	2.25	0.00	0.75	0.25	1.00	1.00	0.75	1.25	1.50	0.25	0.50	-0.249023	0.111816	0.966797	16.100000	-12.460000	9.800000	749.00	-0.29	-0.06
0.89	1.50	1.00	0.50	0.00	0.00	0.00	0.00	0.00	0.00	0.50	0.00	0.00	0.00	0.25	0.00	0.00	-0.357910	0.138184	1.156250	-41.650002	-23.940001	1.260000	38.00	0.00	0.00	19.50	19.25	11.00	14.25	1.25	2.75	0.00	0.75	0.25	1.00	0.75	0.75	0.75	1.00	0.25	0.50	-0.230957	0.135254	0.974609	20.650000	-14.560000	11.900000	763.00	-0.30	-0.06
0.90	1.25	0.50	0.25	0.00	0.00	0.00	0.00	0.00	0.00	0.50	0.00	0.00	0.00	0.25	0.00	0.00	-0.288086	0.169434	1.037598	-65.519997	-23.240000	-6.930000	28.00	0.00	0.00	20.25	19.75	11.25	14.50	1.00	2.75	0.00	0.75	0.00	1.00	0.75	1.00	1.00	0.75	0.25	0.25	-0.212891	0.112305	0.977539	25.760000	-18.969999	12.460000	776.00	-0.30	-0.07
0.91	0.75	0.25	0.25	0.00	0.00	0.00	0.00	0.00	0.00	0.25	0.00	0.00	0.00	0.25	0.00	0.00	-0.421387	0.261719	0.976562	-89.110001	-15.750000	-14.070000	18.00	0.00	0.00	21.00	20.50	11.25	15.00	1.25	2.75	0.00	0.75	0.00	0.75	0.75	1.00	0.75	0.75	0.25	0.25	-0.195312	0.139160	0.917480	24.500000	-20.930000	12.390000	794.00	-0.30	-0.06
0.92	0.75	0.00	0.00	0.00	0.00	0.00	0.00	0.00	0.00	0.75	0.00	0.00	0.00	0.25	0.00	0.00	-0.499512	0.366211	0.902832	-103.529999	3.080000	-12.320000	18.00	0.00	0.00	22.00	21.25	11.25	15.00	1.25	2.75	0.00	0.50	0.00	0.50	0.75	0.75	0.75	0.25	0.00	0.00	-0.229980	0.136230	0.960938	30.520000	-16.870001	11.830000	794.00	-0.32	-0.06
0.93	0.75	0.50	0.25	0.00	0.00	0.00	0.00	0.00	0.00	0.50	0.00	0.00	0.00	0.50	0.00	0.00	-0.332031	0.534180	0.852051	-88.760002	32.130001	0.420000	25.00	0.00	0.00	22.25	21.75	11.25	15.00	1.00	2.50	0.00	0.50	0.00	0.50	0.50	0.50	0.50	0.25	0.00	0.00	-0.178223	0.141602	0.936523	18.830000	-15.890000	10.920000	789.00	-0.33	-0.06
0.94	0.75	0.50	0.25	0.00	0.00	0.00	0.00	0.00	0.00	0.50	0.00	0.00	0.00	0.00	0.25	0.00	-0.168945	0.593262	0.882324	-67.480003	47.180000	13.020000	23.00	0.00	0.00	22.75	22.00	11.25	15.00	1.00	2.50	0.00	0.50	0.00	0.50	0.50	0.50	0.25	0.25	0.00	0.00	-0.187012	0.119629	0.924316	6.790000	-15.050000	8.960000	794.00	-0.33	-0.06
0.95	0.50	0.00	0.25	0.00	0.00	0.00	0.00	0.00	0.00	0.25	0.00	0.00	0.00	0.25	0.00	0.00	-0.112793	0.593750	1.026855	-42.490002	51.029999	24.500000	13.00	0.00	0.00	23.00	22.00	11.25	15.25	1.00	2.50	0.00	0.50	0.00	0.25	0.50	0.50	0.25	0.25	0.00	0.00	-0.154297	0.084473	0.852539	-4.060000	-9.100000	5.040000	797.00	-0.33	-0.06
0.96	0.50	0.50	0.00	0.00	0.00	0.00	0.00	0.00	0.00	0.50	0.00	0.00	0.00	0.00	0.00	0.00	-0.026855	0.525391	1.050293	-22.680000	51.099998	36.750000	15.00	0.00	0.00	23.50	22.00	11.25	15.00	0.75	1.75	0.00	0.50	0.00	0.25	0.25	0.50	0.25	0.00	0.00	0.00	-0.166992	0.113281	0.914062	-15.190001	-0.700000	0.700000	783.00	-0.34	-0.06
0.97	0.50	0.50	0.00	0.00	0.00	0.00	0.00	0.00	0.00	0.25	0.00	0.00	0.00	0.00	0.00	0.00	0.064941	0.467773	1.050293	-17.570000	50.540001	48.580002	12.00	0.00	0.00	23.75	22.00	11.25	15.00	1.00	2.25	0.00	0.25	0.00	0.25	0.25	0.25	0.25	0.00	0.00	0.00	-0.218750	0.109863	0.985840	-18.200001	1.750000	-1.330000	788.00	-0.34	-0.05
0.98	0.50	0.25	0.00	0.00	0.00	0.00	0.00	0.00	0.00	0.25	0.00	0.00	0.00	0.00	0.00	0.00	0.185547	0.449219	1.058105	-22.610001	50.400002	59.779999	10.00	0.00	0.00	24.00	22.00	11.25	15.00	1.00	2.00	0.00	0.25	0.00	0.50	0.50	0.50	0.00	0.00	0.00	0.00	-0.214844	0.104004	0.974609	-16.100000	0.420000	-1.470000	793.00	-0.34	-0.05
0.99	0.75	0.50	0.00	0.00	0.00	0.00	0.00	0.00	0.00	0.25	0.00	0.00	0.00	0.00	0.00	0.00	0.324707	0.468262	1.072266	-28.559999	49.209999	69.580002	15.00	0.00	0.00	23.75	22.00	11.25	14.75	1.00	1.50	0.00	0.25	0.00	0.50	0.50	0.50	0.00	0.00	0.00	0.00	-0.217773	0.123535	0.973633	-13.370000	-1.750000	-1.400000	782.00	-0.34	-0.05
1.00	0.75	0.25	0.25	0.00	0.00	0.00	0.00	0.00	0.00	0.25	0.00	0.00	0.00	0.00	0.00	0.00	0.465820	0.481934	1.142090	-29.960001	45.500000	76.930000	15.00	0.00	0.00	23.75	21.75	11.00	14.75	1.00	1.75	0.00	0.50	0.00	0.25	0.25	0.50	0.25	0.00	0.00	0.00	-0.218262	0.108887	0.990723	-10.500000	-3.850000	-1.260000	781.00	-0.34	-0.05
1.01	1.25	0.75	0.25	0.00	0.00	0.00	0.00	0.00	0.00	0.25	0.00	0.00	0.00	0.00	0.00	0.00	0.620605	0.450195	1.148438	-22.049999	37.170002	82.529999	25.00	0.00	0.00	24.25	22.00	11.50	14.50	1.00	1.25	0.00	0.25	0.00	0.50	0.25	0.50	0.00	0.00	0.00	0.00	-0.229004	0.105957	0.998047	-6.510000	-7.840000	-1.050000	782.00	-0.34	-0.05
1.02	0.50	0.25	0.00	0.00	0.00	0.00	0.00	0.00	0.00	0.25	0.00	0.00	0.00	0.00	0.00	0.00	0.735840	0.122070	1.237305	17.920000	7.210000	91.559998	10.00	0.00	0.00	24.50	21.75	11.25	14.50	0.75	1.25	0.00	0.25	0.00	0.25	0.00	0.25	0.00	0.00	0.00	0.00	-0.226074	0.104980	1.003906	-1.820000	-12.880000	-0.770000	769.00	-0.35	-0.05
1.03	0.75	0.25	0.25	0.00	0.00	0.00	0.00	0.00	0.00	0.25	0.00	0.00	0.00	0.00	0.00	0.00	0.735840	0.122070	1.237305	17.920000	7.210000	91.559998	15.00	0.00	0.00	24.25	22.00	11.50	14.25	0.75	1.25	0.00	0.00	0.00	0.25	0.00	0.25	0.00	0.00	0.00	0.00	-0.212891	0.113281	0.947266	-0.420000	-15.050000	-0.980000	765.00	-0.35	-0.04
1.04	0.50	0.00	0.25	0.00	0.00	0.00	0.00	0.00	0.00	0.50	0.00	0.00	0.00	0.00	0.00	0.00	0.741699	0.023438	1.267578	22.889999	-7.490000	88.410004	13.00	0.00	0.00	24.50	22.00	11.50	14.25	0.75	1.00	0.00	0.00	0.00	0.25	0.25	0.25	0.00	0.00	0.00	0.00	-0.192383	0.113770	0.934082	-2.030000	-13.860000	-1.540000	768.00	-0.35	-0.04
1.05	0.50	0.25	0.00	0.00	0.00	0.00	0.00	0.00	0.00	0.50	0.00	0.00	0.00	0.25	0.00	0.00	0.702148	-0.038086	1.277344	19.670000	-21.629999	82.320000	15.00	0.00	0.00	24.75	21.75	11.50	14.00	1.00	0.75	0.00	0.25	0.00	0.50	0.00	0.00	0.00	0.00	0.00	0.00	-0.193848	0.113281	0.927734	-4.760000	-10.850000	-2.450000	766.00	-0.35	-0.04
1.06	0.50	0.75	0.00	0.00	0.00	0.00	0.00	0.00	0.00	0.00	0.00	0.00	0.00	0.25	0.00	0.00	0.578613	-0.061035	1.290527	13.300000	-48.650002	64.190002	14.00	0.00	0.00	25.25	21.75	11.50	14.00	0.75	1.00	0.00	0.00	0.00	0.00	0.00	0.00	0.00	0.00	0.00	0.00	-0.197266	0.105957	0.924316	-7.630000	-7.490000	-3.220000	763.00	-0.35	-0.04
1.07	0.50	0.25	0.00	0.00	0.00	0.00	0.00	0.00	0.00	0.00	0.00	0.00	0.00	0.00	0.00	0.00	0.578613	-0.061035	1.290527	13.300000	-48.650002	64.190002	7.00	0.00	0.00	25.25	21.50	11.50	14.00	0.75	0.75	0.00	0.00	0.00	0.00	0.00	0.00	0.00	0.00	0.00	0.00	-0.193359	0.114258	0.905762	-11.410000	-2.870000	-4.340000	758.00	-0.35	-0.04
1.08	0.75	0.25	0.00	0.00	0.00	0.00	0.00	0.00	0.00	0.25	0.00	0.00	0.00	0.00	0.00	0.00	0.494141	-0.057129	1.278320	15.050000	-61.040001	52.360001	13.00	0.00	0.00	25.50	21.75	11.75	13.75	1.00	0.75	0.00	0.25	0.00	0.25	0.00	0.25	0.00	0.00	0.00	0.00	-0.191406	0.119141	0.906250	-14.700000	3.150000	-5.040000	774.00	-0.35	-0.04
1.09	0.75	0.25	0.00	0.00	0.00	0.00	0.00	0.00	0.00	0.50	0.00	0.00	0.00	0.00	0.00	0.00	0.303711	-0.024902	1.220215	25.340000	-79.940002	26.320000	15.00	0.00	0.00	25.25	21.50	11.50	13.75	1.00	0.75	0.25	0.25	0.00	0.50	0.25	0.00	0.00	0.00	0.00	0.00	-0.204102	0.132812	0.977051	-17.219999	7.490000	-4.690000	773.00	-0.34	-0.04
1.10	0.50	1.00	0.00	0.00	0.00	0.00	0.00	0.00	0.00	0.25	0.00	0.00	0.00	0.00	0.00	0.00	0.204102	-0.014160	1.193359	31.500000	-85.680000	14.000000	17.00	0.00	0.00	26.00	21.50	11.75	13.50	1.00	0.50	0.00	0.25	0.00	0.25	0.00	0.25	0.00	0.00	0.00	0.00	-0.195801	0.088379	0.954102	-15.400000	6.790000	-4.130000	772.00	-0.35	-0.04
1.11	0.25	0.50	0.00	0.00	0.00	0.00	0.00	0.00	0.00	0.25	0.00	0.00	0.00	0.25	0.00	0.00	0.116211	-0.003906	1.172363	36.610001	-89.040001	3.220000	12.00	0.00	0.00	26.00	21.50	12.00	13.50	1.00	0.75	0.00	0.25	0.00	0.50	0.25	0.00	0.00	0.00	0.00	0.00	-0.199219	0.113770	0.964355	-13.860000	6.860000	-3.920000	780.00	-0.35	-0.04
1.12	0.50	0.00	0.00	0.00	0.00	0.00	0.00	0.00	0.00	0.00	0.00	0.00	0.00	0.00	0.00	0.00	0.040527	0.002441	1.172852	39.900002	-91.070000	-5.180000	5.00	0.00	0.00	26.25	21.50	12.00	13.25	1.25	0.50	0.00	0.00	0.00	0.50	0.25	0.00	0.00	0.00	0.00	0.00	-0.211914	0.112793	0.977051	-12.530000	6.230000	-2.590000	776.00	-0.35	-0.03
1.13	0.75	0.25	0.00	0.00	0.00	0.00	0.00	0.00	0.00	0.00	0.00	0.00	0.00	0.25	0.00	0.00	-0.031738	0.014160	1.159668	42.139999	-92.330002	-10.640000	12.00	0.00	0.00	26.00	21.75	12.00	13.25	1.00	0.75	0.00	0.25	0.00	0.75	0.25	0.25	0.00	0.00	0.00	0.00	-0.215820	0.106445	0.957520	-11.480000	5.880000	-1.890000	785.00	-0.34	-0.04
1.14	0.50	0.00	0.25	0.00	0.00	0.00	0.00	0.00	0.00	0.25	0.00	0.00	0.00	0.00	0.00	0.00	-0.097656	0.014160	1.119629	43.189999	-92.889999	-13.020000	11.00	0.00	0.00	25.75	21.25	12.00	13.25	1.25	0.50	0.00	0.25	0.00	0.75	0.25	0.00	0.00	0.00	0.00	0.00	-0.209961	0.109863	0.952637	-10.290000	5.810000	-1.610000	775.00	-0.34	-0.03
1.15	0.25	0.00	0.00	0.00	0.00	0.00	0.00	0.00	0.00	0.25	0.00	0.00	0.00	0.00	0.00	0.00	-0.157715	0.022461	1.053711	42.209999	-91.840004	-12.390000	5.00	0.00	0.00	25.50	21.00	12.00	13.00	1.25	0.50	0.00	0.25	0.00	0.75	0.25	0.00	0.25	0.00	0.00	0.00	-0.208984	0.101562	0.963379	-10.010000	5.530000	-1.190000	769.00	-0.34	-0.03
1.16	0.50	0.50	0.50	0.00	0.00	0.00	0.00	0.00	0.00	0.25	0.00	0.00	0.00	0.00	0.00	0.00	-0.217773	0.022461	0.990723	39.410000	-88.830002	-9.520000	18.00	0.00	0.00	25.50	21.00	12.00	13.00	1.25	0.75	0.00	0.25	0.25	1.00	0.25	0.25	0.00	0.25	0.00	0.00	-0.208496	0.110352	0.926758	-10.850000	5.600000	-0.980000	780.00	-0.33	-0.03
1.17	0.25	0.00	0.50	0.00	0.00	0.00	0.00	0.00	0.00	0.00	0.00	0.00	0.00	0.00	0.00	0.00	-0.266113	0.023926	0.951172	36.259998	-84.070000	-5.180000	8.00	0.00	0.00	25.50	20.50	12.00	13.00	1.25	0.75	0.25	0.25	0.00	1.00	0.50	0.25	0.25	0.25	0.00	0.00	-0.219238	0.113770	0.947754	-11.830000	5.880000	-1.470000	781.00	-0.33	-0.03
1.18	0.50	0.00	0.00	0.00	0.00	0.00	0.00	0.00	0.00	0.00	0.00	0.00	0.00	0.00	0.00	0.00	-0.301270	0.013184	0.896973	32.270000	-78.540001	-0.490000	5.00	0.00	0.00	24.75	20.50	12.25	13.00	1.50	1.00	0.00	0.50	0.00	1.25	0.50	0.25	0.00	0.50	0.00	0.00	-0.224121	0.106445	0.943359	-12.670000	5.180000	-1.750000	784.00	-0.33	-0.04
1.19	0.50	0.00	0.25	0.00	0.00	0.00	0.00	0.00	0.00	0.50	0.00	0.00	0.00	0.00	0.00	0.00	-0.332031	0.017578	0.865234	27.230000	-72.449997	3.640000	13.00	0.00	0.00	24.50	20.00	12.00	12.75	1.50	0.50	0.25	0.50	0.25	1.50	0.75	0.50	0.00	0.75	0.00	0.00	-0.212891	0.087402	0.976074	-13.650000	4.830000	-2.240000	783.00	-0.32	-0.03
1.20	0.75	0.00	0.25	0.00	0.00	0.00	0.00	0.00	0.00	0.50	0.00	0.00	0.00	0.00	0.00	0.00	-0.358887	-0.001465	0.824219	22.540001	-66.639999	7.490000	16.00	0.00	0.00	24.00	19.50	12.00	12.50	1.50	0.50	0.25	0.25	0.25	2.00	0.75	0.75	0.25	0.75	0.25	0.00	-0.215332	0.097168	0.953613	-14.350000	4.970000	-2.450000	779.00	-0.31	-0.03
1.21	0.50	0.00	0.00	0.00	0.00	0.00	0.00	0.00	0.00	0.25	0.00	0.00	0.00	0.00	0.00	0.00	-0.385742	-0.003906	0.788086	17.990000	-60.410000	10.430000	8.00	0.00	0.00	23.25	19.25	11.75	12.50	1.75	1.00	0.50	0.50	0.50	2.00	0.75	0.75	0.50	1.00	0.25	0.00	-0.218262	0.084473	0.946777	-15.890000	5.460000	-2.520000	790.00	-0.30	-0.03
1.22	0.25	0.00	0.25	0.00	0.00	0.00	0.00	0.00	0.00	0.00	0.00	0.00	0.00	0.00	0.00	0.00	-0.415527	0.001465	0.764648	15.120000	-54.599998	12.810000	5.00	0.00	0.00	23.00	18.50	12.00	12.50	1.75	1.00	0.50	0.50	0.75	2.00	1.25	0.75	0.75	1.00	0.50	0.25	-0.205566	0.078613	0.896484	-17.710001	7.000000	-3.080000	798.00	-0.28	-0.03
1.23	0.25	0.00	0.00	0.00	0.00	0.00	0.00	0.00	0.00	0.50	0.00	0.00	0.00	0.00	0.00	0.00	-0.434570	-0.004883	0.733398	13.510000	-48.509998	14.630000	8.00	0.00	0.00	22.25	18.00	11.75	12.00	2.00	1.00	0.50	0.50	1.25	2.50	1.25	1.00	0.75	1.25	0.50	0.50	-0.208984	0.069336	0.930176	-19.460001	9.380000	-4.130000	798.00	-0.27	-0.03
1.24	0.50	0.00	0.00	0.25	0.00	0.00	0.00	0.00	0.00	0.25	0.00	0.00	0.00	0.00	0.00	0.00	-0.458496	0.007324	0.712891	12.950000	-42.349998	16.030001	11.00	0.00	0.00	21.00	17.00	11.50	11.75	2.00	1.00	0.75	0.50	1.50	3.00	1.50	1.00	1.25	1.75	0.75	0.75	-0.229980	0.065430	0.952148	-21.280001	12.670000	-5.530000	798.00	-0.25	-0.03
1.25	0.50	0.00	0.25	0.00	0.00	0.00	0.00	0.00	0.00	0.25	0.00	0.00	0.00	0.00	0.00	0.00	-0.473145	-0.010742	0.683105	13.160000	-36.119999	17.219999	11.00	0.00	0.00	20.00	16.25	11.25	11.50	2.25	1.25	1.00	0.75	2.25	3.50	1.75	1.00	1.75	2.25	0.75	1.00	-0.236816	0.045898	0.985352	-21.070000	15.400000	-6.160000	815.00	-0.22	-0.03
1.26	0.50	0.25	0.00	0.00	0.00	0.00	0.00	0.00	0.00	0.50	0.00	0.00	0.00	0.00	0.00	0.00	-0.493164	-0.017578	0.691406	12.880000	-30.520000	18.480000	13.00	0.00	0.00	18.75	15.25	11.00	11.25	2.25	1.00	1.25	0.50	2.75	4.00	2.25	1.50	2.25	2.75	1.00	1.00	-0.238281	0.065918	0.959961	-17.780001	15.680000	-5.880000	819.00	-0.20	-0.03
1.27	0.50	0.25	0.00	0.00	0.00	0.00	0.00	0.00	0.00	0.00	0.00	0.00	0.00	0.00	0.00	0.00	-0.508789	-0.023438	0.685547	11.620000	-25.410000	19.530001	7.00	0.00	0.00	17.50	14.25	10.50	10.75	2.50	1.00	1.75	0.75	3.75	5.75	2.25	2.00	2.50	3.00	1.25	1.50	-0.231934	0.072754	0.945312	-14.560000	14.210000	-5.460000	846.00	-0.16	-0.02
1.28	0.50	0.00	0.00	0.00	0.00	0.00	0.00	0.00	0.00	0.25	0.00	0.00	0.00	0.00	0.00	0.00	-0.524414	-0.023438	0.665527	9.100000	-20.860001	20.230000	8.00	0.00	0.00	15.75	13.00	10.00	10.25	2.50	1.00	2.25	1.00	4.75	7.25	3.00	2.25	3.00	3.50	1.25	1.50	-0.272461	0.059082	0.957520	-10.920000	13.860000	-5.880000	864.00	-0.13	-0.02
1.29	0.50	0.25	0.00	0.00	0.00	0.00	0.00	0.00	0.00	0.25	0.00	0.00	0.00	0.00	0.00	0.00	-0.564941	-0.014160	0.652832	6.580000	-16.520000	20.510000	10.00	0.00	0.00	13.00	11.50	9.50	9.50	2.50	1.00	2.75	1.00	6.00	8.00	3.75	2.50	3.25	4.25	1.50	2.00	-0.269531	0.044922	0.931152	-10.920000	13.860000	-5.880000	864.00	-0.09	-0.01
1.30	0.75	0.25	0.00	0.00	0.00	0.00	0.00	0.00	0.00	0.25	0.00	0.00	0.00	0.00	0.00	0.00	-0.667969	-0.010254	0.614746	2.870000	-9.660000	20.790001	13.00	0.00	0.00	10.50	9.75	8.75	9.25	2.50	1.00	3.00	1.00	7.50	8.75	4.50	3.00	3.75	5.25	1.50	2.00	-0.280762	0.043945	1.041992	-7.350000	17.290001	-5.530000	868.00	-0.05	-0.01
1.31	0.50	0.00	0.00	0.00	0.00	0.00	0.00	0.00	0.00	0.00	0.00	0.00	0.00	0.00	0.00	0.00	-0.723145	-0.009277	0.570801	0.280000	-5.390000	21.139999	5.00	0.00	0.00	8.25	8.50	7.50	8.25	2.25	1.00	3.50	1.25	8.00	9.50	6.25	4.00	4.50	6.00	2.00	2.50	-0.259766	0.061523	0.911133	-5.600000	20.650000	-5.530000	881.00	-0.00	-0.01
1.32	0.50	0.00	0.00	0.00	0.00	0.00	0.00	0.00	0.00	0.25	0.00	0.00	0.00	0.25	0.00	0.00	-0.787598	0.000977	0.536621	-3.150000	0.700000	21.629999	10.00	0.00	0.00	6.50	7.25	6.75	7.75	2.00	0.75	3.75	1.00	8.75	10.25	7.50	4.50	5.00	6.75	2.25	2.75	-0.273926	0.052734	0.999023	-4.060000	24.360001	-5.180000	883.00	0.03	-0.01
1.33	0.50	0.00	0.00	0.00	0.00	0.00	0.00	0.00	0.00	0.00	0.00	0.00	0.00	0.00	0.00	0.00	-0.842773	0.020508	0.560059	-7.000000	7.350000	22.610001	5.00	0.00	0.00	5.25	6.00	5.75	6.50	1.50	0.50	4.00	1.00	9.50	11.00	8.00	5.50	5.00	7.50	2.75	3.50	-0.278320	0.076172	1.016602	-2.870000	29.120001	-4.480000	879.00	0.07	-0.01
1.34	0.75	0.00	0.00	0.00	0.00	0.00	0.00	0.00	0.00	0.50	0.00	0.00	0.00	0.00	0.00	0.00	-0.903809	0.042969	0.586426	-10.010000	12.880000	23.940001	13.00	0.00	0.00	4.00	5.00	4.50	5.75	1.25	0.25	4.25	1.00	10.50	12.00	8.75	6.50	5.25	8.00	3.00	4.00	-0.324707	0.070312	0.982910	-1.330000	35.209999	-2.940000	886.00	0.10	-0.01
1.35	0.50	0.25	0.00	0.00	0.00	0.00	0.00	0.00	0.00	0.50	0.00	0.00	0.00	0.00	0.00	0.00	-0.965332	0.081055	0.573242	-11.410000	17.010000	25.620001	13.00	0.00	0.00	3.25	3.75	3.50	4.50	1.00	0.00	4.50	1.00	11.25	12.50	9.25	7.25	5.50	8.75	3.25	4.50	-0.331055	0.017578	1.006836	-0.700000	41.930000	0.700000	883.00	0.14	-0.00
1.36	0.25	0.25	0.00	0.00	0.00	0.00	0.00	0.00	0.00	0.00	0.00	0.00	0.00	0.00	0.00	0.00	-0.992188	0.116211	0.512695	-11.900000	21.980000	28.210001	5.00	0.00	0.00	2.75	3.00	2.50	4.00	0.75	0.00	4.50	0.75	12.00	13.25	9.50	7.50	5.50	9.50	3.50	5.00	-0.286621	0.024902	1.030762	-0.210000	53.760002	4.270000	882.00	0.16	0.00
1.37	0.75	0.00	0.00	0.00	0.00	0.00	0.00	0.00	0.00	0.25	0.00	0.00	0.00	0.00	0.00	0.00	-1.020020	0.151367	0.436035	-13.090000	29.750000	32.340000	10.00	0.00	0.00	2.00	2.25	2.00	2.00	0.50	0.00	4.50	0.50	12.50	13.75	9.50	7.75	5.75	10.00	3.75	5.00	-0.296875	0.141602	1.097656	1.890000	75.809998	3.850000	857.00	0.19	0.01
1.38	0.75	0.00	0.00	0.00	0.00	0.00	0.00	0.00	0.00	0.00	0.00	0.00	0.00	0.00	0.00	0.00	-1.013672	0.231934	0.198730	-18.760000	38.849998	38.570000	8.00	0.00	0.00	1.50	1.75	1.75	1.50	0.50	0.00	4.25	0.25	13.00	14.25	10.00	8.00	5.50	10.75	4.00	5.25	-0.430664	0.085938	0.991211	5.040000	100.099998	-0.700000	859.00	0.20	0.01
1.39	1.25	1.25	0.50	0.25	0.00	0.00	0.00	0.00	0.00	0.00	0.00	0.00	0.00	0.00	0.00	0.00	0.053711	-0.264160	-0.207031	-74.340004	102.550003	60.900002	33.00	0.00	0.00	1.50	1.50	1.00	1.00	0.25	0.00	4.25	0.00	13.50	14.50	10.00	7.75	5.50	11.25	4.50	5.25	-0.339844	0.065918	1.020996	3.920000	118.230003	-3.220000	852.00	0.22	0.02
1.40	2.25	2.50	0.75	0.75	0.00	0.00	0.00	0.00	0.00	0.50	0.00	0.00	0.00	0.00	0.00	0.00	0.632324	0.214355	1.034180	-88.690002	144.759995	54.040001	68.00	-0.33	-0.03	1.00	1.00	0.75	1.00	0.25	0.00	4.25	0.00	14.00	15.00	9.75	7.75	5.00	12.00	4.50	5.50	-0.368652	0.025391	1.034180	-1.890000	137.199997	-3.780000	852.00	0.23	0.03
1.41	4.00	4.00	1.00	1.50	0.00	0.00	0.00	0.00	0.00	0.00	0.00	0.00	0.00	0.00	0.00	0.00	0.319336	-0.025879	1.215820	-71.750000	139.020004	60.410000	106.00	-0.38	-0.04	0.75	0.75	0.75	0.50	0.00	0.00	4.00	0.00	14.25	15.00	9.50	7.25	4.75	12.50	5.00	5.25	-0.389160	0.056641	1.045410	-9.380000	156.100006	-5.110000	836.00	0.24	0.03
1.42	6.75	5.50	2.00	2.25	0.25	0.00	0.00	0.00	0.00	0.00	0.00	0.00	0.00	0.00	0.00	0.00	-0.247559	-0.384277	1.263184	-42.560001	152.110001	66.010002	170.00	-0.37	-0.02	0.75	0.25	0.25	0.00	0.00	0.00	3.75	0.00	14.50	15.25	9.00	6.75	3.75	13.50	5.00	5.25	-0.430664	0.075195	1.066406	-21.139999	174.440002	-7.210000	812.00	0.26	0.05
1.43	9.00	8.00	3.00	2.50	0.25	0.00	0.00	0.00	0.00	0.00	0.00	0.00	0.00	0.00	0.00	0.00	-0.658203	-0.788086	1.543457	-15.820000	181.020004	61.250000	230.00	-0.37	-0.02	0.50	0.25	0.25	0.00	0.00	0.00	3.75	0.00	14.75	15.25	8.50	5.75	3.00	13.50	5.00	5.25	-0.460449	0.071289	1.093262	-36.330002	193.270004	-9.730000	791.00	0.26	0.06
1.44	11.00	9.50	3.75	3.50	0.25	0.00	0.00	0.00	0.00	0.00	0.00	0.00	0.00	0.00	0.00	0.00	-0.849121	-0.777344	2.336914	4.550000	178.850006	39.200001	284.00	-0.37	-0.02	0.25	0.00	0.25	0.00	0.00	0.00	3.75	0.00	14.50	14.75	7.75	4.00	2.00	14.00	5.25	5.00	-0.479004	0.112305	1.152832	-54.459999	210.000000	-14.490000	748.00	0.27	0.07
1.45	12.25	10.25	4.25	4.00	0.25	0.00	0.00	0.00	0.00	0.00	0.00	0.00	0.00	0.00	0.00	0.00	-0.693848	-0.486328	2.067871	12.390000	132.160004	9.100000	315.00	-0.37	-0.02	0.25	0.00	0.00	0.00	0.00	0.00	3.75	0.00	14.25	14.50	7.00	3.25	0.75	14.50	5.00	4.50	-0.552734	0.109863	1.185547	-73.500000	223.860001	-19.600000	711.00	0.27	0.09
1.46	12.50	10.50	4.50	4.00	0.50	0.00	0.00	0.00	0.00	0.00	0.00	0.00	0.00	0.00	0.00	0.00	-0.340332	-0.006348	1.210938	14.280000	90.650002	-11.130000	326.00	-0.37	-0.02	0.25	0.00	0.00	0.00	0.00	0.00	3.75	0.00	13.75	13.75	5.50	1.50	0.00	14.75	4.75	4.25	-0.599609	0.108398	1.281250	-92.889999	240.660004	-26.460001	654.00	0.28	0.11
1.47	14.00	11.50	5.00	4.75	0.50	0.00	0.00	0.00	0.00	0.00	0.00	0.00	0.00	0.00	0.00	0.00	-0.140625	0.309082	0.790039	16.590000	80.779999	-11.620000	364.00	-0.37	-0.02	0.00	0.00	0.00	0.00	0.00	0.00	3.50	0.00	12.50	12.75	4.25	1.00	0.00	15.00	4.50	3.50	-0.652832	0.230469	1.319336	-109.270004	253.960007	-39.060001	598.00	0.28	0.12
1.48	15.25	12.50	5.25	5.25	0.50	0.00	0.00	0.00	0.00	0.00	0.00	0.00	0.00	0.00	0.00	0.00	-0.126953	0.264160	0.831055	18.760000	86.590004	-1.190000	395.00	-0.37	-0.02	0.00	0.00	0.00	0.00	0.00	0.00	3.25	0.00	11.00	11.50	2.75	0.00	0.00	15.25	4.25	3.00	-0.802246	0.214844	1.346191	-122.570000	266.420013	-58.450001	532.00	0.29	0.13
1.49	16.50	13.75	6.25	5.50	0.50	0.00	0.00	0.00	0.00	0.25	0.00	0.25	0.25	0.25	0.00	0.00	-0.231934	0.079590	0.929688	19.879999	92.680000	5.810000	442.00	-0.35	-0.02	0.00	0.00	0.00	0.00	0.00	0.00	3.00	0.00	9.25	10.25	2.00	0.00	0.00	15.00	3.50	2.50	-1.020996	0.119629	1.981934	-154.770004	289.660004	-87.220001	472.00	0.29	0.14
1.50	18.00	14.50	7.50	6.25	0.75	0.25	0.00	0.00	0.00	1.00	0.25	0.50	0.25	0.25	0.00	0.00	-0.519043	-0.017090	1.780273	10.780000	86.309998	-0.140000	506.00	-0.33	-0.02	0.00	0.00	0.00	0.00	0.00	0.00	2.50	0.00	7.75	9.00	1.25	0.00	0.00	13.75	2.75	1.75	-1.258301	0.475586	1.709473	-144.199997	301.910004	-92.190002	401.00	0.29	0.14
1.51	19.75	16.25	8.25	7.00	0.75	0.00	0.00	0.00	0.00	0.50	0.25	0.50	0.25	0.75	0.00	0.00	-0.287598	0.214355	0.949219	-3.570000	50.820000	-3.710000	553.00	-0.34	-0.02	0.00	0.00	0.00	0.00	0.00	0.25	2.00	0.00	6.75	8.00	1.00	0.00	0.00	12.50	2.25	1.25	-1.240723	0.524902	1.606445	-116.410004	314.720001	-106.889999	352.00	0.29	0.14
1.52	22.00	17.25	9.00	7.75	1.00	0.25	0.00	0.00	0.00	1.00	0.25	0.25	0.25	0.75	0.50	0.00	-0.305664	0.121094	1.091309	-12.460000	41.790001	-1.540000	615.00	-0.33	-0.02	0.00	0.00	0.00	0.00	0.00	0.00	1.50	0.00	5.50	7.25	0.75	0.00	0.00	10.50	2.00	1.25	-1.178711	0.429199	1.794434	-107.239998	318.500000	-132.509995	295.00	0.30	0.14
1.53	23.75	18.50	9.75	8.25	1.00	0.00	0.00	0.00	0.25	1.25	0.50	0.25	0.25	0.50	0.25	0.00	-0.322754	0.075195	1.011230	-15.120000	28.420000	-2.100000	660.00	-0.33	-0.02	0.00	0.00	0.00	0.00	0.00	0.00	1.00	0.00	4.50	5.75	0.75	0.00	0.00	9.00	1.75	1.25	-1.326172	0.504883	2.182129	-111.300003	317.100006	-150.710007	243.00	0.30	0.13
1.54	24.75	19.75	10.00	9.00	1.25	0.25	0.25	0.00	0.50	1.00	0.25	0.50	0.25	1.25	0.25	0.00	-0.309570	0.080078	1.012207	-12.670000	19.530001	-2.030000	709.00	-0.32	-0.02	0.00	0.00	0.00	0.00	0.00	0.00	0.50	0.00	3.00	5.00	1.00	0.00	0.00	7.25	1.25	0.75	-1.177734	0.568359	2.241211	-129.990005	305.690002	-168.910004	188.00	0.31	0.12
1.55	25.75	19.75	10.50	9.25	1.25	0.25	0.25	0.00	0.25	1.25	0.50	0.50	0.25	1.00	0.25	0.00	-0.303711	0.108887	0.965332	-11.200000	15.190001	-1.540000	727.00	-0.32	-0.02	0.00	0.00	0.00	0.00	0.00	0.00	0.25	0.00	2.50	4.00	0.50	0.00	0.00	5.75	1.00	0.50	-1.015137	0.626465	2.122070	-149.029999	285.809998	-179.690002	145.00	0.31	0.13
1.56	26.50	21.00	11.25	9.50	1.25	0.50	0.25	0.00	0.75	1.25	0.50	0.75	0.25	1.25	0.50	0.00	-0.296875	0.078125	0.970703	-9.870000	11.900000	-1.260000	774.00	-0.31	-0.02	0.00	0.00	0.00	0.00	0.00	0.00	0.25	0.00	1.75	3.50	0.75	0.00	0.00	4.00	0.50	0.00	-0.729492	0.700684	2.039062	-151.339996	260.470001	-181.580002	110.00	0.30	0.13
1.57	27.00	21.25	11.25	9.50	1.50	0.50	0.25	0.25	0.25	1.75	0.75	0.75	0.25	1.25	0.50	0.00	-0.288574	0.070312	0.944824	-7.140000	10.360000	-1.260000	790.00	-0.31	-0.02	0.00	0.25	0.00	0.00	0.00	0.00	0.00	0.00	1.75	2.75	0.75	0.00	0.00	2.00	0.25	0.00	-0.202148	0.812988	1.895020	-157.430008	225.540009	-178.639999	81.00	0.27	0.12
1.58	28.25	21.75	12.00	9.75	1.25	0.50	0.25	0.00	0.75	1.50	0.50	0.75	0.50	1.50	0.50	0.00	-0.273438	0.095215	0.926758	-3.220000	10.080000	-0.700000	817.00	-0.31	-0.02	0.25	0.50	0.00	0.00	0.00	0.00	0.00	0.00	0.75	2.00	0.50	0.00	0.00	1.00	0.25	0.00	0.307617	0.783691	1.541504	-168.350006	174.229996	-163.449997	54.00	0.19	0.08
1.59	28.50	22.00	11.75	9.75	1.25	0.50	0.25	0.25	0.00	1.25	0.75	0.50	0.50	1.50	0.50	0.00	-0.286133	0.072266	0.954590	-0.840000	9.380000	-0.420000	811.00	-0.32	-0.02	0.50	0.50	0.00	0.00	0.00	0.00	0.00	0.00	0.75	2.00	0.25	0.00	0.00	0.50	0.00	0.00	0.314941	2.734863	2.649902	-190.259995	105.000000	-102.199997	47.00	0.00	0.00
1.60	27.50	22.25	11.75	10.00	1.25	1.00	0.25	0.00	0.25	1.75	0.50	0.75	0.25	1.50	0.25	0.25	-0.285156	0.067871	0.954102	0.840000	9.030000	-0.210000	812.00	-0.31	-0.02	0.25	0.75	0.00	0.00	0.00	0.00	0.00	0.00	0.50	1.75	0.25	0.00	0.00	0.50	0.00	0.00	0.751465	1.961914	3.167969	-149.449997	24.990000	13.370000	41.00	0.00	0.00
1.61	27.50	22.75	11.75	10.00	1.25	0.50	0.25	0.00	1.00	1.75	0.75	1.00	0.50	1.75	0.50	0.00	-0.280762	0.080566	0.946777	1.820000	9.030000	-0.280000	832.00	-0.30	-0.02	0.50	0.75	0.00	0.00	0.00	0.00	0.00	0.00	0.00	1.75	0.00	0.00	0.00	0.00	0.00	0.00	1.091309	1.776367	2.328125	-93.449997	-71.330002	104.160004	30.00	0.00	0.00
1.62	27.50	22.75	12.00	10.25	1.25	0.50	0.25	0.25	0.50	1.75	0.50	0.50	0.50	1.25	0.50	0.00	-0.293457	0.082520	0.953613	2.310000	8.680000	-0.210000	823.00	-0.31	-0.02	0.50	0.50	0.00	0.00	0.00	0.00	0.00	0.00	0.00	1.50	0.50	0.00	0.00	0.25	0.00	0.00	0.802246	1.246094	1.522461	-83.720001	-140.279999	169.960007	33.00	0.00	0.00
1.63	27.25	22.25	12.00	10.00	1.50	0.75	0.25	0.25	0.75	1.50	0.75	1.00	0.50	1.00	0.50	0.00	-0.289062	0.089844	0.943359	2.030000	8.610000	-0.210000	825.00	-0.31	-0.02	0.25	0.50	0.00	0.00	0.00	0.00	0.00	0.00	0.25	1.50	0.25	0.00	0.00	0.25	0.00	0.00	0.737793	1.034668	1.145508	-83.860001	-164.220001	206.570007	31.00	0.00	0.00
1.64	26.75	22.25	11.50	10.00	1.50	0.50	0.25	0.25	0.75	1.50	1.00	0.75	0.25	1.50	0.25	0.00	-0.289551	0.111328	0.930664	1.120000	8.890000	-0.770000	811.00	-0.31	-0.02	0.25	0.25	0.00	0.00	0.00	0.00	0.00	0.00	0.25	1.25	0.25	0.00	0.00	0.25	0.00	0.00	0.743164	0.835938	0.893066	-69.300003	-165.690002	218.540009	26.00	0.00	0.00
1.65	26.00	21.75	11.25	10.00	1.00	0.50	0.25	0.00	0.50	1.50	0.75	0.75	0.50	1.50	0.75	0.25	-0.290527	0.082520	0.934082	-0.350000	8.890000	-1.120000	789.00	-0.30	-0.02	0.25	0.25	0.00	0.00	0.00	0.00	0.00	0.00	0.25	1.25	0.25	0.00	0.00	0.00	0.00	0.00	0.730957	0.654297	0.900391	-34.299999	-164.009995	213.149994	24.00	0.00	0.00
1.66	25.75	21.25	11.25	9.75	1.25	0.75	0.25	0.25	0.75	2.00	0.75	0.75	0.50	1.25	0.50	0.00	-0.280762	0.084473	0.939941	-2.030000	9.380000	-1.470000	791.00	-0.30	-0.02	0.25	0.50	0.00	0.00	0.00	0.00	0.00	0.00	0.25	1.25	0.25	0.00	0.00	0.00	0.00	0.00	0.684082	0.456543	1.052734	7.630000	-167.020004	195.860001	26.00	0.00	0.00
1.67	25.25	21.25	11.00	9.75	1.50	0.50	0.25	0.00	0.75	2.00	0.75	1.00	0.50	1.50	0.50	0.00	-0.272461	0.080078	0.908203	-2.310000	9.660000	-1.680000	784.00	-0.30	-0.02	0.25	0.00	0.00	0.00	0.00	0.00	0.00	0.00	0.25	1.00	0.25	0.00	0.00	0.00	0.00	0.00	0.657715	0.254883	1.166016	38.080002	-177.940002	171.850006	19.00	0.00	0.00
1.68	25.00	20.75	11.25	9.50	1.50	1.00	0.25	0.00	1.25	1.25	0.75	0.75	0.50	1.50	0.50	0.00	-0.275391	0.082031	0.930664	-2.450000	9.870000	-1.820000	778.00	-0.30	-0.02	0.25	0.00	0.00	0.00	0.00	0.00	0.00	0.00	0.00	1.00	0.00	0.00	0.00	0.00	0.00	0.00	0.598633	0.127441	1.290039	52.150002	-195.020004	145.669998	13.00	0.00	0.00
1.69	24.75	20.50	10.75	9.50	1.50	0.50	0.25	0.25	0.75	1.50	1.25	1.00	0.75	1.25	0.50	0.00	-0.282715	0.090332	0.927734	-2.100000	10.500000	-1.820000	770.00	-0.30	-0.03	0.25	0.00	0.00	0.00	0.00	0.00	0.00	0.00	0.00	1.00	0.00	0.00	0.00	0.00	0.00	0.00	0.397949	0.065430	1.440918	47.599998	-237.790009	100.870003	13.00	0.00	0.00
1.70	24.25	20.25	11.00	9.50	1.50	0.75	0.25	0.25	0.50	1.75	1.00	0.75	0.50	1.25	0.50	0.00	-0.276855	0.063965	0.924316	-1.400000	10.290000	-1.750000	760.00	-0.30	-0.03	0.25	0.25	0.00	0.00	0.00	0.00	0.00	0.00	0.00	0.75	0.25	0.00	0.00	0.00	0.00	0.00	0.278809	0.091309	1.495605	40.529999	-261.869995	84.840004	15.00	0.00	0.00
1.71	23.75	19.75	10.75	9.25	1.50	0.75	0.25	0.00	0.75	1.75	0.75	1.00	0.50	1.25	0.50	0.00	-0.276855	0.063965	0.924316	-1.400000	10.290000	-1.750000	744.00	-0.30	-0.02	0.25	0.25	0.00	0.00	0.00	0.00	0.00	0.00	0.00	1.00	0.00	0.00	0.00	0.00	0.00	0.00	0.162598	0.132812	1.497070	36.259998	-285.179993	73.220001	15.00	0.00	0.00
1.72	23.50	19.00	10.75	9.25	1.50	0.75	0.25	0.25	1.25	1.75	1.00	1.00	0.75	1.25	0.50	0.25	-0.280273	0.087402	0.907715	0.980000	11.060000	-1.960000	751.00	-0.28	-0.02	0.25	0.00	0.00	0.00	0.00	0.00	0.00	0.00	0.00	0.75	0.00	0.00	0.00	0.00	0.00	0.00	0.053223	0.188477	1.482910	36.470001	-305.480011	66.010002	10.00	0.00	0.00
1.73	22.75	18.75	10.50	9.25	1.25	1.00	0.25	0.25	1.00	1.75	1.25	1.00	0.50	1.75	0.50	0.25	-0.283691	0.076660	0.947266	0.700000	11.480000	-2.170000	740.00	-0.28	-0.02	0.25	0.00	0.00	0.00	0.00	0.00	0.00	0.00	0.00	0.75	0.00	0.00	0.00	0.00	0.00	0.00	-0.055176	0.229980	1.440918	41.230000	-320.320007	62.299999	10.00	0.00	0.00
1.74	22.75	18.25	10.25	9.25	1.25	0.75	0.25	0.50	1.75	2.25	1.25	1.25	0.75	1.50	0.75	0.25	-0.291504	0.087402	0.924805	-0.070000	11.900000	-2.730000	754.00	-0.27	-0.02	0.00	0.25	0.00	0.00	0.00	0.00	0.00	0.00	0.00	0.75	0.00	0.00	0.00	0.00	0.00	0.00	-0.157715	0.266113	1.439941	48.790001	-329.140015	61.389999	10.00	0.00	0.00
1.75	21.25	17.50	10.25	9.00	1.50	1.00	0.50	0.50	1.00	2.00	1.25	1.00	0.75	1.50	0.50	0.25	-0.296875	0.096191	0.899902	0.140000	12.110000	-3.080000	720.00	-0.27	-0.03	0.25	0.50	0.00	0.00	0.00	0.00	0.00	0.00	0.00	1.00	0.00	0.00	0.00	0.00	0.00	0.00	-0.259766	0.280762	1.458984	57.119999	-332.220001	62.930000	18.00	0.00	0.00
1.76	20.75	16.75	10.00	8.75	1.50	1.25	0.50	0.50	0.75	2.50	1.25	1.50	1.00	1.75	1.00	0.25	-0.301758	0.098145	0.913086	-0.280000	12.180000	-3.080000	722.00	-0.26	-0.03	0.00	0.25	0.00	0.00	0.00	0.00	0.00	0.00	0.00	0.75	0.00	0.00	0.00	0.00	0.00	0.00	-0.343262	0.188965	1.490723	63.209999	-333.339996	66.779999	10.00	0.00	0.00
1.77	19.25	16.00	9.75	8.75	1.75	1.00	0.50	0.50	1.25	2.25	1.50	1.50	1.00	2.00	0.75	0.25	-0.297852	0.074219	0.944824	-0.840000	12.390000	-3.220000	703.00	-0.25	-0.03	0.25	0.25	0.00	0.00	0.00	0.00	0.00	0.00	0.00	0.50	0.00	0.00	0.00	0.00	0.00	0.00	-0.429688	0.339844	1.575195	67.690002	-330.820007	70.629997	10.00	0.00	0.00
1.78	18.50	15.25	9.50	8.75	1.75	1.25	0.50	0.50	1.50	2.75	1.75	1.75	1.25	2.00	0.75	0.50	-0.297363	0.090332	0.919922	-1.680000	13.230000	-3.500000	705.00	-0.23	-0.03	0.25	0.75	0.00	0.25	0.00	0.00	0.00	0.00	0.00	0.75	0.00	0.00	0.00	0.00	0.00	0.00	-0.501953	0.368652	1.621582	76.510002	-328.299988	75.180000	20.00	0.00	0.00
1.79	17.75	14.25	9.50	8.50	2.00	1.25	0.75	0.50	1.75	3.00	2.00	1.75	1.25	2.25	0.75	0.50	-0.273926	0.086914	0.906250	-2.240000	14.070000	-3.850000	703.00	-0.22	-0.03	0.25	0.25	0.00	0.25	0.00	0.00	0.00	0.00	0.00	0.50	0.00	0.00	0.00	0.00	0.00	0.00	-0.580566	0.368652	1.707520	87.500000	-323.470001	80.849998	13.00	0.00	0.00
1.80	16.75	13.00	9.00	8.25	1.75	1.75	0.75	0.75	2.00	3.00	2.25	2.25	1.75	2.75	0.75	0.50	-0.290039	0.081055	0.926758	-3.220000	15.260000	-4.480000	699.00	-0.19	-0.03	0.25	0.00	0.00	0.00	0.00	0.00	0.00	0.00	0.00	0.50	0.00	0.00	0.00	0.00	0.00	0.00	-0.663086	0.358887	1.822266	96.739998	-315.910004	86.730003	8.00	0.00	0.00
1.81	15.50	12.00	9.00	8.00	2.00	1.50	0.75	1.00	2.50	3.50	2.50	2.25	1.75	3.00	1.00	0.75	-0.279297	0.084473	0.907227	-4.620000	17.150000	-4.830000	698.00	-0.17	-0.03	0.25	0.50	0.00	0.25	0.00	0.00	0.00	0.00	0.00	0.25	0.00	0.00	0.00	0.00	0.00	0.00	-0.738281	0.337402	1.970215	102.410004	-308.980011	92.120003	13.00	0.00	0.00
1.82	14.00	10.50	8.75	7.50	2.25	1.75	1.25	1.00	3.00	3.50	3.00	2.75	2.25	3.25	1.00	0.75	-0.292969	0.075684	0.928223	-6.230000	19.530001	-5.320000	697.00	-0.14	-0.03	0.00	0.00	0.00	0.00	0.00	0.00	0.00	0.00	0.00	0.25	0.00	0.00	0.00	0.00	0.00	0.00	-0.838867	0.339844	2.089355	106.050003	-303.170013	97.160004	3.00	0.00	0.00
1.83	12.25	9.00	8.25	7.00	2.00	1.25	1.50	1.00	2.75	4.00	3.50	3.00	2.50	3.75	1.25	0.75	-0.297852	0.088867	0.911621	-8.050000	21.910000	-5.740000	669.00	-0.12	-0.03	0.25	0.00	0.00	0.00	0.00	0.00	0.00	0.00	0.00	0.25	0.00	0.00	0.00	0.00	0.00	0.00	-0.930664	0.330566	2.183594	109.550003	-297.920013	101.639999	5.00	0.00	0.00
1.84	10.50	8.25	7.50	6.25	2.00	1.50	2.00	1.00	4.75	6.00	4.75	3.50	3.00	4.75	1.25	0.75	-0.306641	0.086914	0.934570	-9.800000	24.219999	-6.580000	716.00	-0.06	-0.02	0.00	0.00	0.00	0.00	0.00	0.00	0.00	0.00	0.00	0.50	0.00	0.00	0.00	0.00	0.00	0.00	-1.037109	0.330566	2.280273	115.360001	-291.130005	105.279999	5.00	0.00	0.00
1.85	8.75	7.00	7.25	5.75	2.00	1.25	2.50	1.25	5.75	6.75	5.50	4.25	3.25	5.25	1.50	1.00	-0.313965	0.080566	0.936523	-9.940000	26.250000	-7.140000	733.00	-0.02	-0.02	0.00	0.00	0.00	0.00	0.00	0.00	0.00	0.00	0.00	0.50	0.00	0.00	0.00	0.00	0.00	0.00	-1.154297	0.317383	2.345215	122.360001	-282.100006	107.520004	5.00	0.00	0.00
1.86	7.25	6.00	6.50	5.25	2.00	1.00	3.25	1.50	7.25	7.50	7.00	5.00	3.75	6.00	1.75	1.25	-0.325684	0.076172	0.944824	-8.680000	28.630001	-6.930000	773.00	0.02	-0.01	0.25	0.00	0.00	0.00	0.00	0.00	0.00	0.00	0.00	0.25	0.00	0.00	0.00	0.00	0.00	0.00	-1.311523	0.311035	2.467773	128.800003	-271.950012	107.730003	5.00	0.00	0.00
1.87	6.25	5.25	6.00	4.75	1.75	1.00	3.75	1.50	8.00	8.50	7.75	5.75	4.75	6.75	2.00	1.50	-0.329590	0.077637	0.950684	-6.230000	30.730000	-6.720000	805.00	0.05	-0.01	0.00	0.25	0.00	0.00	0.00	0.00	0.00	0.00	0.00	0.25	0.00	0.00	0.00	0.00	0.00	0.00	-1.525879	0.304199	2.680664	131.740005	-263.549988	105.070000	5.00	0.00	0.00
1.88	5.00	4.50	5.00	3.75	1.75	0.75	4.25	1.50	9.00	8.75	8.25	6.75	5.00	8.00	2.50	1.75	-0.340332	0.066406	0.942383	-4.410000	33.599998	-6.510000	818.00	0.09	-0.01	0.00	0.25	0.00	0.00	0.00	0.00	0.00	0.00	0.00	0.25	0.00	0.00	0.00	0.00	0.00	0.00	-2.145508	0.291016	2.937012	119.419998	-279.299988	96.110001	5.00	0.00	0.00
1.89	3.75	3.25	4.00	3.25	1.50	0.50	4.75	1.50	9.50	9.50	9.00	7.50	5.50	8.25	2.75	2.00	-0.332520	0.068848	0.945801	-2.730000	37.099998	-6.020000	820.00	0.12	-0.01	0.00	0.00	0.00	0.00	0.00	0.00	0.00	0.00	0.00	0.00	0.00	0.00	0.00	0.00	0.00	0.00	-2.480957	0.303223	2.713867	104.580002	-306.670013	90.440002	0.00	0.00	0.00
1.90	2.75	2.50	3.00	2.50	1.00	0.50	5.00	1.50	10.25	10.25	9.50	8.00	6.00	9.00	3.25	2.25	-0.355957	0.080566	0.936523	-1.540000	41.650002	-6.300000	827.00	0.15	-0.01	0.00	0.00	0.00	0.00	0.00	0.00	0.00	0.00	0.00	0.25	0.00	0.00	0.00	0.00	0.00	0.00	-2.687012	0.273438	2.133789	103.809998	-332.429993	85.470001	3.00	0.00	0.00
1.91	2.00	2.25	2.25	1.75	0.75	0.50	5.50	1.25	11.00	10.75	10.00	8.25	6.50	9.50	4.00	2.50	-0.364746	0.096191	0.937500	-1.050000	46.900002	-6.790000	842.00	0.17	-0.00	0.25	0.00	0.00	0.00	0.00	0.00	0.00	0.00	0.00	0.25	0.00	0.00	0.00	0.00	0.00	0.00	-2.879883	-0.072266	1.476562	142.380005	-344.119995	87.290001	5.00	0.00	0.00
1.92	1.50	1.50	1.75	0.75	0.50	0.25	5.75	1.50	11.75	11.50	10.50	8.75	6.50	9.75	4.75	2.50	-0.324219	0.050293	0.989746	-2.590000	63.139999	-9.520000	854.00	0.20	0.00	0.00	0.25	0.00	0.00	0.00	0.00	0.00	0.00	0.00	0.25	0.00	0.00	0.00	0.00	0.00	0.00	-3.515625	-0.538574	0.834473	205.029999	-338.519989	93.099998	5.00	0.00	0.00
1.93	1.00	0.75	1.25	0.25	0.50	0.00	5.75	1.25	12.50	12.25	11.00	9.25	6.75	10.50	5.25	3.25	-0.374023	0.103027	1.016113	-1.680000	86.379997	-10.220000	870.00	0.22	0.00	0.00	0.00	0.00	0.00	0.00	0.00	0.00	0.00	0.00	0.25	0.00	0.00	0.00	0.00	0.00	0.00	-4.406738	-1.000977	-0.000488	239.540009	-312.130005	88.900002	3.00	0.00	0.00
1.94	0.75	0.50	0.75	0.75	0.00	0.25	6.00	1.25	13.50	12.75	11.25	9.50	6.50	11.00	5.75	3.25	-0.401367	0.095703	0.994629	-0.420000	115.360001	-11.970000	897.00	0.22	0.01	0.25	0.00	0.00	0.00	0.00	0.00	0.00	0.00	0.00	0.50	0.00	0.00	0.00	0.00	0.00	0.00	-5.161133	-1.543457	-0.963379	241.009995	-257.880005	77.139999	8.00	0.00	0.00
1.95	0.50	0.25	0.25	0.25	0.00	0.00	6.00	0.75	14.25	13.50	11.50	9.50	6.50	11.75	6.25	3.75	-0.440430	0.078613	0.984375	-1.750000	136.850006	-13.860000	906.00	0.24	0.02	0.25	0.00	0.00	0.00	0.00	0.00	0.00	0.00	0.00	0.50	0.00	0.00	0.00	0.00	0.00	0.00	-5.229004	-1.977539	-1.531250	199.710007	-173.250000	55.439999	8.00	0.00	0.00
1.96	0.75	0.00	0.25	0.00	0.00	0.00	6.25	0.50	15.00	14.25	11.50	9.50	6.00	12.50	6.50	3.75	-0.449219	0.063477	0.968750	-3.990000	157.639999	-13.440001	925.00	0.24	0.03	0.25	0.25	0.00	0.00	0.00	0.00	0.00	0.00	0.00	0.50	0.00	0.00	0.00	0.00	0.00	0.00	-4.654785	-2.156250	-1.523438	97.790001	-66.500000	11.270000	10.00	0.00	0.00
1.97	0.00	0.00	0.25	0.00	0.00	0.00	6.00	0.50	15.25	14.50	11.25	9.25	6.00	12.75	6.75	4.00	-0.479492	0.043457	0.973145	-7.350000	182.279999	-10.080000	921.00	0.25	0.03	0.25	0.25	0.00	0.00	0.00	0.00	0.00	0.00	0.00	0.50	0.00	0.00	0.00	0.00	0.00	0.00	-3.859375	-1.773926	-0.906738	-44.240002	35.490002	-38.990002	10.00	0.00	0.00
1.98	0.25	0.00	0.00	0.00	0.00	0.00	6.00	0.25	16.00	15.00	11.25	9.25	5.50	13.25	7.25	3.75	-0.521484	0.107910	1.001953	-12.390000	211.820007	-7.980000	935.00	0.25	0.03	0.00	0.00	0.00	0.00	0.00	0.00	0.00	0.00	0.00	0.50	0.00	0.00	0.00	0.00	0.00	0.00	-3.235840	-1.086426	0.060547	-167.440002	115.010002	-65.590004	5.00	0.00	0.00
1.99	0.00	0.00	0.00	0.00	0.00	0.00	6.00	0.00	16.00	15.25	11.00	8.75	5.50	13.25	7.00	3.75	-0.548340	0.044434	1.036133	-15.680000	237.229996	-8.610000	921.00	0.26	0.04	0.25	0.25	0.00	0.00	0.00	0.00	0.00	0.00	0.00	0.25	0.00	0.00	0.00	0.00	0.00	0.00	-2.797852	-0.487305	0.971191	-235.619995	161.000000	-62.090000	7.00	0.00	0.00
2.00	0.25	0.00	0.00	0.00	0.00	0.00	6.00	0.25	16.00	15.25	10.75	8.75	5.25	13.50	7.25	4.00	-0.617188	0.079590	1.026367	-18.410000	262.640015	-10.850000	929.00	0.25	0.04	0.50	0.50	0.00	0.50	0.00	0.00	0.00	0.00	0.00	0.25	0.00	0.00	0.00	0.00	0.00	0.00	-2.111328	0.015137	1.625977	-245.979996	174.020004	-40.389999	18.00	0.00	0.00
2.01	0.00	0.00	0.00	0.00	0.00	0.00	6.00	0.00	15.75	15.00	10.50	8.50	5.00	13.50	7.25	4.50	-0.665039	0.080078	1.126953	-19.809999	286.089996	-13.930000	912.00	0.26	0.04	1.75	3.00	0.75	2.00	0.00	0.00	0.00	0.00	0.00	0.25	0.00	0.00	0.00	0.00	0.00	0.00	4.384277	-0.092285	7.517090	-159.250000	400.049988	-76.300003	79.00	-0.34	-0.08
2.02	0.00	0.00	0.00	0.00	0.00	0.00	5.75	0.00	15.00	14.75	10.00	7.75	4.25	14.00	7.25	4.25	-0.711914	0.121582	1.174805	-17.990000	306.809998	-16.450001	879.00	0.26	0.04	3.75	5.50	1.25	3.00	0.00	0.00	0.00	0.00	0.00	0.00	0.00	0.00	0.00	0.00	0.00	0.00	2.251465	0.719238	0.373047	-132.580002	98.209999	-56.070000	136.00	-0.37	-0.08
2.03	0.00	0.00	0.00	0.00	0.00	0.00	5.50	0.00	14.25	13.75	9.25	7.50	4.00	14.00	7.25	5.00	-0.932129	0.103027	1.407227	-9.590000	325.850006	-16.590000	846.00	0.26	0.04	7.00	8.75	1.75	5.00	0.00	0.00	0.00	0.00	0.00	0.00	0.00	0.00	0.00	0.00	0.00	0.00	-0.161133	-0.555176	-1.886230	-215.529999	0.070000	-73.849998	227.00	-0.37	-0.07
2.04	0.00	0.00	0.00	0.00	0.00	0.00	5.25	0.25	12.50	12.75	8.00	6.50	3.50	14.25	7.50	5.00	-1.062012	0.134766	1.511719	-2.030000	347.410004	-21.139999	790.00	0.27	0.04	10.50	11.50	2.50	5.75	0.00	0.00	0.00	0.00	0.00	0.00	0.00	0.00	0.00	0.00	0.00	0.00	-0.419434	-0.744141	-0.000488	-347.760010	138.949997	-118.440002	305.00	-0.37	-0.06
2.05	0.00	0.00	0.00	0.00	0.00	0.00	4.75	0.00	11.25	11.50	6.50	5.75	2.75	14.00	7.50	5.00	-1.351562	0.066895	1.718262	1.120000	371.980011	-26.600000	717.00	0.27	0.05	15.50	15.75	3.50	7.50	0.00	0.00	0.00	0.00	0.00	0.00	0.00	0.00	0.00	0.00	0.00	0.00	-0.751465	1.012207	1.983887	-319.410004	213.220001	-101.010002	427.00	-0.37	-0.05
2.06	0.00	0.00	0.00	0.00	0.00	0.00	4.25	0.00	9.50	10.25	4.75	5.00	2.25	14.25	7.25	4.50	-1.384766	0.165527	1.997559	3.080000	396.269989	-27.160000	639.00	0.28	0.05	20.00	19.00	5.00	8.50	0.00	0.00	0.00	0.00	0.00	0.00	0.00	0.00	0.00	0.00	0.00	0.00	-0.580078	0.744629	2.288574	-174.089996	207.619995	-14.490000	531.00	-0.37	-0.04
2.07	0.00	0.00	0.00	0.00	0.00	0.00	3.50	0.00	8.50	9.00	3.25	3.25	1.00	13.25	6.75	4.00	-1.413574	0.195312	2.062988	15.610000	418.110016	-24.920000	540.00	0.29	0.07	22.75	20.75	6.25	9.50	0.00	0.00	0.00	0.00	0.00	0.00	0.00	0.00	0.00	0.00	0.00	0.00	-0.448242	0.042969	1.387207	-63.420002	210.070007	48.860001	600.00	-0.37	-0.04
2.08	0.00	0.00	0.00	0.00	0.00	0.00	2.50	0.00	7.50	8.25	1.75	2.25	0.75	12.75	6.25	3.25	-1.687500	0.327148	2.017090	22.960001	447.929993	-32.900002	462.00	0.30	0.08	23.50	21.75	7.25	10.25	0.00	0.00	0.00	0.00	0.00	0.00	0.00	0.00	0.00	0.00	0.00	0.00	-0.505859	-0.593262	1.841797	-13.510000	230.580002	64.889999	637.00	-0.37	-0.04
2.09	0.00	0.00	0.00	0.00	0.00	0.00	1.75	0.00	5.75	7.00	1.00	1.50	0.50	11.00	5.50	2.50	-1.834473	0.723633	2.152344	39.830002	477.679993	-52.009998	370.00	0.30	0.08	23.75	22.25	8.00	11.00	0.00	0.00	0.00	0.00	0.00	0.00	0.00	0.00	0.00	0.00	0.00	0.00	-0.359863	-0.449707	1.551270	24.920000	173.389999	-1.820000	661.00	-0.37	-0.04
2.10	0.00	0.00	0.00	0.00	0.00	0.00	0.75	0.00	5.25	6.25	1.25	1.50	0.25	9.50	4.75	2.00	-1.681152	0.750977	2.303711	77.419998	480.760010	-72.940002	318.00	0.31	0.08	24.25	22.50	8.50	11.75	0.00	0.00	0.00	0.00	0.00	0.00	0.00	0.00	0.00	0.00	0.00	0.00	-0.180176	0.202637	1.110840	37.310001	154.279999	-19.530001	682.00	-0.37	-0.04
2.11	0.00	0.00	0.00	0.00	0.00	0.00	0.25	0.00	3.75	5.00	1.00	1.25	0.00	8.25	3.50	1.25	-1.625488	0.486328	2.172852	100.169998	481.880005	-96.599998	242.00	0.32	0.08	23.75	22.00	9.00	12.75	0.00	0.00	0.00	0.00	0.00	0.00	0.00	0.00	0.00	0.00	0.00	0.00	-0.178223	0.390137	1.064453	41.090000	151.199997	-15.400000	689.00	-0.36	-0.04
2.12	0.00	0.00	0.00	0.00	0.00	0.00	0.25	0.00	2.50	4.25	1.25	1.00	0.00	6.75	3.00	0.75	-1.341309	0.685059	3.173828	104.580002	462.839996	-111.230003	197.00	0.32	0.07	23.50	22.00	9.50	13.00	0.25	0.25	0.00	0.25	0.00	0.00	0.00	0.00	0.00	0.00	0.00	0.00	-0.257812	0.285156	1.106445	37.380001	148.119995	-6.510000	704.00	-0.36	-0.05
2.13	0.00	0.00	0.00	0.00	0.00	0.00	0.00	0.00	2.25	4.00	1.00	1.25	0.00	5.25	1.75	0.50	-0.383301	0.597168	2.639160	88.480003	387.450012	-142.660004	161.00	0.31	0.07	23.00	22.00	10.00	13.75	0.25	0.25	0.00	0.00	0.00	0.00	0.00	0.25	0.00	0.00	0.00	0.00	-0.280273	0.127930	1.122070	29.610001	141.750000	-3.850000	711.00	-0.36	-0.05
2.14	0.00	0.00	0.00	0.00	0.00	0.00	0.00	0.00	1.25	3.50	0.75	1.00	0.25	2.75	1.00	0.50	0.489258	0.545410	2.761230	88.480003	387.450012	-142.660004	110.00	0.29	0.04	23.00	21.50	10.50	14.50	0.00	0.75	0.00	0.00	0.00	0.00	0.00	0.25	0.00	0.00	0.00	0.00	-0.332031	0.116211	1.329102	21.700001	133.419998	-6.090000	723.00	-0.35	-0.05
2.15	0.00	0.00	0.00	0.00	0.00	0.00	0.00	0.00	1.25	2.00	0.25	0.50	0.00	1.50	0.75	0.00	0.816406	0.434082	2.083008	60.480000	244.020004	-142.660004	66.00	0.29	0.08	22.50	21.25	10.75	14.50	0.75	1.00	0.00	0.50	0.00	0.00	0.00	0.50	0.25	0.00	0.00	0.00	-0.474121	0.538086	1.509277	-19.320000	89.250000	-14.630000	742.00	-0.34	-0.05
2.16	0.50	0.25	0.00	0.00	0.00	0.00	0.00	0.00	1.25	2.25	0.25	0.25	0.00	1.25	0.50	0.00	-0.214355	1.031738	2.833008	20.370001	189.139999	-125.370003	68.00	0.21	0.10	22.00	21.00	11.25	14.75	0.75	1.00	0.00	0.50	0.00	0.25	0.50	0.50	0.50	0.00	0.00	0.00	-0.348145	0.158691	1.050781	-23.870001	50.330002	-2.520000	753.00	-0.33	-0.06
2.17	0.25	0.00	0.00	0.00	0.00	0.00	0.00	0.00	0.50	1.75	0.00	0.25	0.00	0.75	0.25	0.00	0.868164	0.561035	3.095703	-7.350000	58.099998	-83.650002	39.00	0.00	0.00	22.50	20.50	11.50	14.50	0.75	1.50	0.00	0.50	0.00	0.25	0.50	0.75	0.50	0.00	0.00	0.00	-0.235352	0.080078	1.091797	-27.370001	34.720001	0.420000	761.00	-0.33	-0.06
2.18	0.50	0.00	0.00	0.00	0.00	0.00	0.00	0.00	0.75	2.00	0.00	0.25	0.00	0.75	0.25	0.00	0.707031	0.632324	2.109863	-36.540001	-63.279999	-46.689999	47.00	0.00	0.00	21.75	20.50	11.25	15.00	0.75	2.00	0.00	0.25	0.00	0.75	0.50	1.00	0.75	0.00	0.00	0.00	-0.275391	0.133789	1.088867	-24.080000	20.860001	-1.330000	768.00	-0.32	-0.06
2.19	0.25	0.25	0.25	0.00	0.00	0.00	0.00	0.00	0.00	1.75	0.00	0.25	0.00	0.25	0.00	0.00	0.522949	0.465332	1.838867	-72.379997	-152.039993	-14.980000	31.00	0.00	0.00	21.75	20.00	11.25	14.75	0.50	1.50	0.00	0.25	0.00	0.75	0.25	0.75	0.50	0.00	0.00	0.00	-0.251953	0.121582	1.026367	-21.070000	11.830000	-1.050000	745.00	-0.33	-0.06
2.20	0.25	0.50	0.00	0.00	0.00	0.00	0.00	0.00	0.00	1.50	0.25	0.00	0.00	0.00	0.00	0.00	0.441406	0.407715	1.426270	-83.440002	-200.619995	6.930000	25.00	0.00	0.00	21.25	19.75	11.50	15.00	0.75	1.75	0.00	0.50	0.00	1.00	0.75	0.75	0.75	0.00	0.00	0.00	-0.222168	0.107910	1.017578	-18.059999	7.980000	-0.280000	762.00	-0.32	-0.06
2.21	0.50	0.25	0.00	0.00	0.00	0.00	0.00	0.00	0.25	1.50	0.00	0.00	0.00	0.00	0.00	0.00	0.403809	0.413574	1.030762	-72.940002	-225.190002	19.600000	26.00	0.00	0.00	20.50	19.25	11.00	14.25	0.75	1.50	0.00	0.50	0.00	0.75	0.75	0.50	0.75	0.25	0.00	0.00	-0.208496	0.094727	0.987793	-14.070000	5.390000	-0.350000	730.00	-0.32	-0.06
2.22	0.25	0.00	0.00	0.00	0.00	0.00	0.00	0.25	1.00	1.25	0.00	0.00	0.00	0.00	0.00	0.00	0.340332	0.361328	0.804688	-52.779999	-233.729996	26.389999	32.00	0.00	0.00	20.00	18.75	11.00	14.00	0.75	1.75	0.00	0.50	0.00	0.50	0.75	1.00	0.50	0.00	0.00	0.00	-0.221191	0.098633	0.999512	-10.150000	3.850000	-0.560000	719.00	-0.32	-0.06
2.23	0.25	0.00	0.00	0.00	0.00	0.00	0.00	0.00	0.25	1.50	0.00	0.00	0.00	0.00	0.00	0.00	0.280273	0.308105	0.662598	-31.290001	-232.399994	30.450001	21.00	0.00	0.00	19.25	18.25	10.75	14.00	0.75	1.75	0.00	0.50	0.00	1.00	1.00	0.50	0.50	0.25	0.00	0.00	-0.216309	0.108887	0.971191	-6.860000	2.590000	-0.350000	708.00	-0.31	-0.06
2.24	0.25	0.00	0.00	0.00	0.00	0.00	0.00	0.00	0.00	1.00	0.25	0.00	0.00	0.00	0.00	0.00	0.242188	0.263672	0.617676	-15.190001	-226.240005	33.320000	16.00	0.00	0.00	18.50	17.75	10.50	13.25	1.00	2.00	0.00	0.50	0.00	0.75	0.75	0.50	0.75	0.25	0.00	0.00	-0.212402	0.108887	0.956543	-4.480000	2.240000	-0.000000	687.00	-0.31	-0.06
2.25	0.00	0.00	0.00	0.00	0.00	0.00	0.00	0.00	0.00	1.00	0.00	0.00	0.00	0.00	0.00	0.00	0.179688	0.221191	0.650879	-6.650000	-220.290009	36.049999	10.00	0.00	0.00	18.00	17.25	10.25	13.25	1.00	1.50	0.00	0.50	0.00	0.75	1.00	1.00	0.75	0.50	0.00	0.00	-0.194336	0.107910	0.920898	-3.780000	2.590000	0.210000	679.00	-0.31	-0.06
2.26	0.50	0.00	0.00	0.00	0.00	0.00	0.00	0.00	0.00	1.00	0.00	0.00	0.00	0.00	0.00	0.00	0.132812	0.196777	0.784180	-5.880000	-217.910004	39.410000	16.00	0.00	0.00	17.00	16.75	9.75	13.00	0.75	1.50	0.00	0.50	0.00	0.75	0.75	0.75	1.00	0.25	0.00	0.00	-0.207520	0.125488	0.918457	-4.060000	3.430000	-0.000000	648.00	-0.31	-0.07
2.27	0.25	0.25	0.00	0.00	0.00	0.00	0.00	0.00	0.00	1.25	0.00	0.00	0.00	0.00	0.00	0.00	0.096680	0.175293	0.917480	-12.250000	-222.110001	43.470001	18.00	0.00	0.00	16.25	16.25	9.75	12.75	1.00	2.00	0.25	0.75	0.00	1.25	1.00	0.50	1.00	0.50	0.25	0.00	-0.204590	0.102539	0.933105	-3.430000	4.410000	0.210000	659.00	-0.29	-0.06
2.28	0.25	0.00	0.00	0.00	0.00	0.00	0.00	0.00	0.00	0.75	0.00	0.00	0.00	0.25	0.00	0.00	0.079102	0.168457	1.046387	-23.030001	-233.729996	48.509998	13.00	0.00	0.00	15.75	15.75	9.50	12.25	1.25	1.50	0.00	0.75	0.00	0.75	1.00	0.75	1.25	0.75	0.25	0.25	-0.211914	0.112793	0.939941	-3.150000	5.740000	-0.280000	637.00	-0.29	-0.07
2.29	0.25	0.00	0.00	0.00	0.00	0.00	0.00	0.00	0.00	1.00	0.00	0.00	0.00	0.25	0.00	0.00	0.023926	0.207520	1.136230	-32.900002	-251.020004	53.410000	15.00	0.00	0.00	14.50	15.00	9.00	12.00	0.75	2.00	0.00	0.75	0.00	1.25	1.00	1.00	1.50	1.00	0.25	0.25	-0.203613	0.111328	0.925293	-2.450000	5.880000	-0.910000	621.00	-0.28	-0.07
2.30	0.00	0.00	0.00	0.00	0.00	0.00	0.00	0.00	0.25	0.75	0.00	0.00	0.00	0.00	0.00	0.00	-0.035156	0.246094	1.168945	-37.099998	-271.179993	57.470001	11.00	0.00	0.00	13.50	14.50	9.00	11.75	1.00	2.00	0.25	1.00	0.25	1.50	1.25	1.00	1.50	0.75	0.50	0.75	-0.211426	0.101074	0.954102	-2.100000	6.230000	-1.470000	626.00	-0.26	-0.07
2.31	0.00	0.00	0.00	0.00	0.00	0.00	0.00	0.25	0.00	0.75	0.00	0.00	0.00	0.00	0.00	0.00	-0.114258	0.272949	1.183594	-34.299999	-291.339996	59.920002	12.00	0.00	0.00	13.00	14.00	8.50	11.50	1.00	2.25	0.25	1.00	0.50	1.50	1.25	1.25	2.00	1.00	0.50	0.50	-0.217773	0.113281	0.938965	-2.310000	7.000000	-1.960000	621.00	-0.25	-0.08
2.32	0.00	0.25	0.00	0.00	0.00	0.00	0.00	0.00	0.00	0.75	0.00	0.00	0.00	0.00	0.00	0.00	-0.210938	0.279785	1.173828	-25.549999	-308.839996	60.689999	10.00	0.00	0.00	12.00	13.25	8.50	11.00	1.25	2.00	0.25	1.25	0.50	1.50	1.50	1.25	2.25	0.75	0.75	0.75	-0.226074	0.110352	0.945312	-2.940000	7.770000	-2.730000	609.00	-0.24	-0.08
2.33	0.00	0.00	0.00	0.00	0.00	0.00	0.00	0.00	0.00	0.75	0.00	0.00	0.00	0.00	0.00	0.00	-0.297363	0.275391	1.205566	-13.300000	-322.769989	60.480000	8.00	0.00	0.00	10.75	12.50	8.25	11.00	1.25	2.25	0.25	1.25	0.25	1.75	1.75	1.50	2.75	1.50	0.50	1.25	-0.214844	0.112305	0.954590	-3.290000	9.100000	-2.940000	604.00	-0.22	-0.09
2.34	0.00	0.00	0.00	0.00	0.00	0.00	0.00	0.25	0.25	0.75	0.00	0.00	0.00	0.00	0.00	0.00	-0.384766	0.264160	1.256836	-0.420000	-333.059998	59.430000	15.00	0.00	0.00	10.25	11.75	8.00	10.50	1.25	2.25	0.25	1.25	0.50	1.75	1.75	2.00	2.75	1.25	0.50	1.00	-0.227539	0.100098	0.940430	-2.730000	10.220000	-3.080000	589.00	-0.21	-0.09
2.35	0.25	0.00	0.00	0.00	0.00	0.00	0.00	0.00	0.00	1.00	0.00	0.00	0.00	0.00	0.00	0.00	-0.518555	0.199707	1.458008	16.590000	-348.390015	55.580002	13.00	0.00	0.00	9.50	10.75	8.00	10.25	1.00	2.25	0.25	1.50	0.50	2.00	2.25	1.75	3.25	1.50	0.75	1.25	-0.223633	0.098633	0.934570	-1.330000	11.130000	-3.220000	586.00	-0.19	-0.09
2.36	0.25	0.00	0.00	0.00	0.00	0.00	0.00	0.00	0.00	0.75	0.00	0.00	0.00	0.00	0.00	0.00	-0.578125	0.169922	1.592285	16.170000	-356.160004	52.849998	10.00	0.00	0.00	9.00	10.00	7.50	9.75	1.25	2.25	0.25	2.00	1.00	2.25	2.25	2.50	3.75	2.00	0.75	1.75	-0.238770	0.125977	0.960938	-0.210000	11.830000	-3.360000	602.00	-0.16	-0.10
2.37	0.00	0.00	0.00	0.00	0.00	0.00	0.00	0.00	0.00	0.50	0.00	0.00	0.00	0.00	0.00	0.00	-0.659668	0.186035	1.729004	10.990000	-364.070007	50.610001	5.00	0.00	0.00	8.50	9.50	7.50	9.50	1.25	2.25	0.25	1.75	1.25	2.50	2.75	2.75	4.50	2.25	1.00	1.75	-0.248047	0.112793	0.949707	0.070000	12.250000	-3.430000	610.00	-0.14	-0.10
2.38	0.50	0.00	0.00	0.00	0.00	0.00	0.00	0.00	0.00	0.50	0.00	0.00	0.00	0.00	0.00	0.00	-0.741699	0.222168	1.829102	8.260000	-373.660004	49.209999	10.00	0.00	0.00	7.50	8.75	6.75	9.00	1.25	2.50	0.25	2.25	1.50	3.00	3.25	3.00	5.00	2.25	1.25	2.00	-0.235840	0.119629	0.967285	-0.560000	12.180000	-3.570000	614.00	-0.11	-0.11
2.39	0.25	0.00	0.00	0.00	0.00	0.00	0.00	0.00	0.25	0.50	0.00	0.00	0.00	0.00	0.00	0.00	-0.808105	0.229980	1.903809	10.640000	-381.920013	48.230000	11.00	0.00	0.00	6.75	8.25	6.50	8.75	1.50	2.00	0.50	2.50	1.50	3.00	3.50	3.50	5.25	2.75	1.25	2.50	-0.249023	0.100586	0.956543	-1.400000	11.760000	-4.340000	618.00	-0.09	-0.11
2.40	0.00	0.00	0.00	0.00	0.00	0.00	0.00	0.00	0.00	0.50	0.00	0.00	0.00	0.00	0.00	0.00	-0.874023	0.247070	1.998047	17.219999	-388.779999	47.670002	5.00	0.00	0.00	6.25	7.50	6.25	8.25	1.50	2.25	0.50	2.75	1.50	3.75	4.00	4.00	6.00	3.25	1.50	3.00	-0.249023	0.112793	0.960938	-2.380000	11.620000	-4.620000	639.00	-0.06	-0.12
2.41	0.25	0.00	0.00	0.00	0.00	0.00	0.00	0.00	0.00	0.25	0.00	0.00	0.00	0.00	0.00	0.00	-0.959961	0.233398	2.174316	25.690001	-393.959991	47.599998	5.00	0.00	0.00	5.75	6.75	5.75	7.75	1.50	2.00	0.50	3.00	2.50	4.00	5.50	4.75	6.75	3.75	1.50	3.25	-0.241699	0.110840	0.972168	-3.010000	12.180000	-5.180000	668.00	-0.03	-0.11
2.42	0.00	0.00	0.00	0.00	0.00	0.00	0.00	0.00	0.00	0.25	0.00	0.00	0.00	0.00	0.00	0.00	-1.050293	0.224609	2.406250	33.740002	-399.350006	48.160000	3.00	0.00	0.00	5.00	6.00	5.25	7.25	1.25	1.75	0.75	3.00	3.25	4.75	7.00	6.25	7.50	4.75	2.00	4.25	-0.248047	0.115234	0.974609	-4.410000	14.420000	-5.740000	716.00	0.02	-0.11
2.43	0.25	0.00	0.00	0.00	0.00	0.00	0.00	0.00	0.00	0.50	0.00	0.00	0.00	0.00	0.00	0.00	-1.164062	0.233887	2.655273	38.430000	-405.790009	49.349998	8.00	0.00	0.00	3.75	5.25	4.50	6.25	1.50	1.50	0.75	3.25	4.25	6.00	8.00	7.25	8.00	5.50	2.25	5.00	-0.273438	0.107910	0.978516	-6.580000	17.920000	-6.370000	745.00	0.06	-0.11
2.44	0.00	0.00	0.00	0.00	0.00	0.00	0.00	0.00	0.00	0.50	0.00	0.00	0.00	0.00	0.00	0.00	-1.341797	0.280273	2.913574	41.509998	-412.720001	51.869999	5.00	0.00	0.00	3.50	4.25	4.25	5.75	1.50	1.25	0.75	3.25	5.00	7.75	8.50	8.00	8.25	6.25	2.75	5.50	-0.251953	0.117676	0.976562	-7.770000	22.120001	-6.930000	780.00	0.08	-0.10
2.45	0.25	0.00	0.25	0.00	0.00	0.00	0.00	0.00	0.00	0.25	0.00	0.00	0.00	0.00	0.00	0.00	-1.684082	0.282227	3.132812	44.029999	-419.720001	55.580002	8.00	0.00	0.00	3.00	3.50	3.25	4.25	1.00	1.00	1.00	3.00	6.25	8.50	9.00	8.50	8.50	7.25	2.75	6.00	-0.287598	0.106934	0.980469	-8.330000	27.020000	-7.630000	780.00	0.12	-0.09
2.46	0.00	0.00	0.00	0.00	0.00	0.00	0.00	0.00	0.00	0.25	0.00	0.00	0.00	0.00	0.00	0.00	-2.138672	0.248047	3.336914	49.560001	-428.399994	57.889999	3.00	0.00	0.00	2.25	2.75	2.25	3.25	0.75	0.75	1.00	3.00	7.50	9.00	9.75	9.00	8.75	8.25	3.50	6.25	-0.277344	0.129395	0.983398	-8.120000	33.459999	-8.260000	792.00	0.15	-0.08
2.47	0.00	0.00	0.00	0.00	0.00	0.00	0.00	0.00	0.00	0.50	0.00	0.00	0.00	0.00	0.00	0.00	-2.654785	0.228027	3.308105	53.900002	-437.640015	55.369999	5.00	0.00	0.00	1.75	1.75	1.50	2.25	0.50	0.50	1.25	2.75	8.25	9.75	10.25	9.50	9.00	9.00	4.00	6.50	-0.301270	0.118652	0.972168	-6.230000	41.509998	-9.030000	797.00	0.18	-0.08
2.48	0.00	0.00	0.00	0.00	0.00	0.00	0.00	0.00	0.00	0.25	0.00	0.00	0.00	0.00	0.00	0.00	-3.134766	0.254395	2.947266	51.660000	-439.390015	46.340000	3.00	0.00	0.00	1.50	2.00	1.25	1.50	0.50	0.25	1.50	2.25	9.00	10.25	10.75	9.75	9.00	9.75	4.25	6.75	-0.187988	0.007812	1.191406	-4.200000	48.230000	-9.520000	812.00	0.20	-0.07
2.49	0.00	0.00	0.00	0.00	0.00	0.00	0.00	0.00	0.00	0.50	0.00	0.00	0.00	0.00	0.00	0.00	-3.489258	0.261230	2.141113	54.180000	-422.380005	31.639999	5.00	0.00	0.00	1.00	1.00	0.75	1.25	0.25	0.25	1.75	2.00	9.75	11.00	11.00	10.25	9.00	11.00	5.00	7.00	-0.303711	0.101074	1.057617	5.390000	75.459999	-11.130000	832.00	0.22	-0.06
2.50	0.00	0.00	0.00	0.00	0.00	0.00	0.00	0.00	0.00	0.75	0.00	0.00	0.00	0.00	0.00	0.00	-3.798828	0.078613	1.136719	96.250000	-387.450012	13.160000	8.00	0.00	0.00	0.75	0.25	0.75	0.25	0.00	0.00	1.75	1.50	10.50	11.25	11.25	10.50	9.25	12.25	5.50	7.25	-0.320312	0.112793	1.021973	4.130000	97.300003	-10.920000	836.00	0.24	-0.05
2.51	0.00	0.00	0.00	0.00	0.00	0.00	0.00	0.00	0.00	0.25	0.00	0.00	0.00	0.00	0.00	0.00	-4.326172	-0.389648	0.310547	188.300003	-341.600006	-11.130000	3.00	0.00	0.00	0.75	0.75	0.25	0.25	0.00	0.00	1.75	1.25	11.50	12.00	11.50	10.50	9.00	13.00	5.75	7.25	-0.348633	0.093750	0.990234	1.680000	112.559998	-11.130000	861.00	0.24	-0.04
2.52	0.25	0.00	0.00	0.00	0.00	0.00	0.00	0.00	0.00	0.75	0.00	0.25	0.00	0.00	0.00	0.00	-5.218262	-1.011719	-0.357910	286.299988	-288.540009	-33.950001	13.00	0.00	0.00	0.00	0.25	0.00	0.00	0.00	0.00	1.75	1.00	12.00	12.50	11.75	10.50	8.50	13.75	6.25	7.50	-0.361328	0.118652	0.956055	-1.190000	125.860001	-10.640000	862.00	0.26	-0.03
2.53	0.00	0.00	0.00	0.00	0.00	0.00	0.00	0.00	0.00	0.50	0.00	0.00	0.00	0.00	0.00	0.00	-6.312988	-1.699219	-1.000488	321.510010	-229.880005	-39.200001	5.00	0.00	0.00	0.00	0.00	0.00	0.00	0.00	0.00	1.75	0.50	12.75	12.75	11.50	10.50	8.50	15.00	6.50	7.50	-0.405273	0.073730	1.005371	-4.480000	141.820007	-9.380000	876.00	0.27	-0.02
2.54	0.50	0.00	0.00	0.00	0.00	0.00	0.00	0.00	0.00	0.50	0.00	0.00	0.00	0.00	0.00	0.00	-6.335449	-2.376953	-1.610352	247.869995	-147.070007	-38.360001	10.00	0.00	0.00	0.00	0.00	0.00	0.00	0.00	0.00	1.75	0.50	13.25	13.00	11.50	10.50	8.00	15.75	6.50	7.50	-0.422363	0.067871	0.998047	-7.560000	161.279999	-7.630000	887.00	0.27	-0.02
2.55	0.00	0.00	0.00	0.00	0.00	0.00	0.00	0.00	0.00	0.75	0.00	0.00	0.00	0.00	0.00	0.00	-5.279785	-2.553223	-1.558594	68.669998	-40.110001	-64.400002	8.00	0.00	0.00	0.00	0.00	0.00	0.00	0.00	0.00	1.75	0.25	13.50	13.50	11.50	10.25	7.75	16.25	7.00	7.50	-0.454590	0.073242	1.026855	-10.080000	182.839996	-5.600000	896.00	0.27	-0.01
2.56	0.25	0.25	0.00	0.00	0.00	0.00	0.00	0.00	0.00	0.50	0.00	0.00	0.00	0.00	0.00	0.00	-3.299316	-0.551758	0.915039	-248.220001	134.680008	-134.190002	10.00	0.00	0.00	0.00	0.00	0.00	0.00	0.00	0.00	1.75	0.00	13.50	13.50	11.25	10.00	7.50	16.50	7.25	7.75	-0.489746	0.126465	1.073730	-10.850000	206.919998	-5.670000	891.00	0.27	-0.01
2.57	1.00	0.75	0.25	0.25	0.00	0.00	0.00	0.00	0.00	0.25	0.00	0.00	0.00	0.00	0.00	0.00	2.676270	-0.440918	5.308594	-198.449997	342.790009	-157.009995	25.00	0.00	0.00	0.00	0.00	0.00	0.00	0.00	0.00	1.50	0.00	13.00	13.50	11.25	9.75	6.75	17.25	7.50	7.75	-0.540039	0.160156	1.053711	-14.910000	233.520004	-9.660000	881.00	0.28	-0.00
2.58	2.75	4.00	1.00	1.25	0.25	0.00	0.00	0.00	0.00	0.25	0.00	0.00	0.00	0.00	0.00	0.00	0.918457	1.301758	-0.218262	-173.250000	168.000000	-140.630005	96.00	-0.35	-0.05	0.00	0.00	0.00	0.00	0.00	0.00	1.75	0.00	12.50	13.50	10.75	9.25	6.25	17.50	7.50	7.50	-0.601562	0.176270	1.152832	-21.210001	262.920013	-16.590000	864.00	0.28	0.00
2.59	6.25	8.00	1.25	2.50	0.00	0.00	0.00	0.00	0.00	0.00	0.00	0.00	0.00	0.00	0.00	0.00	0.200684	0.140625	-1.063965	-227.500000	122.080002	-119.840004	180.00	-0.38	-0.06	0.00	0.00	0.00	0.00	0.00	0.00	1.75	0.00	11.75	13.00	10.00	8.50	5.25	17.75	7.25	7.50	-0.658203	0.220215	1.386230	-28.910000	293.369995	-24.639999	824.00	0.28	0.01
2.60	9.25	13.00	2.00	3.50	0.00	0.00	0.00	0.00	0.00	0.00	0.00	0.00	0.00	0.00	0.00	0.00	-0.515625	0.924316	-0.233398	-270.480011	240.729996	-94.220001	276.00	-0.38	-0.06	0.00	0.00	0.00	0.00	0.00	0.00	1.75	0.00	10.25	12.00	9.00	7.50	3.75	18.25	7.75	7.75	-0.767578	0.276855	1.556641	-38.709999	323.610016	-35.560001	771.00	0.29	0.01
2.61	16.50	20.00	2.75	5.00	0.00	0.00	0.00	0.00	0.00	0.00	0.00	0.00	0.00	0.00	0.00	0.00	-1.071289	1.116211	2.086914	-158.899994	304.779999	-16.730000	440.00	-0.38	-0.05	0.00	0.00	0.00	0.00	0.00	0.00	1.75	0.00	8.75	11.00	7.75	6.00	2.75	18.75	7.50	7.50	-1.003906	0.246094	1.612793	-47.950001	354.269989	-50.959999	703.00	0.29	0.02
2.62	23.25	26.00	3.75	7.00	0.00	0.00	0.00	0.00	0.00	0.25	0.00	0.00	0.00	0.00	0.00	0.00	-1.179199	-0.159180	2.884766	-36.959999	302.679993	57.119999	601.00	-0.38	-0.04	0.00	0.00	0.00	0.00	0.00	0.00	1.50	0.00	7.50	9.75	6.00	4.25	1.75	18.50	7.50	6.75	-1.423828	0.139160	1.995605	-56.560001	385.070007	-65.449997	618.00	0.30	0.03
2.63	27.50	29.75	4.25	8.00	0.00	0.00	0.00	0.00	0.00	0.00	0.00	0.00	0.00	0.00	0.00	0.00	-0.967285	-0.845215	2.741699	-0.350000	284.480011	59.430000	694.00	-0.38	-0.04	0.00	0.00	0.00	0.00	0.00	0.00	1.25	0.00	5.75	8.50	4.00	3.00	0.25	17.50	6.75	6.00	-1.467773	0.393066	2.726562	-60.760002	413.140015	-70.629997	511.00	0.31	0.05
2.64	29.50	31.50	6.75	9.25	0.25	0.00	0.00	0.00	0.00	0.00	0.00	0.00	0.00	0.00	0.00	0.00	-0.815918	-0.806641	2.380371	6.020000	258.579987	30.309999	775.00	-0.38	-0.04	0.00	0.00	0.00	0.00	0.00	0.00	0.75	0.00	4.50	7.50	2.75	2.00	0.00	16.25	6.00	5.00	-1.526855	0.517090	2.516602	-60.549999	441.420013	-81.340004	427.00	0.32	0.06
2.65	30.00	32.25	7.25	9.50	0.00	0.00	0.00	0.00	0.00	0.00	0.00	0.00	0.00	0.00	0.00	0.00	-0.579102	0.006836	1.868652	4.270000	222.250000	3.640000	792.00	-0.38	-0.04	0.00	0.00	0.00	0.00	0.00	0.00	0.50	0.00	3.00	6.00	2.00	1.00	0.00	14.00	5.50	4.25	-1.729004	0.796875	2.639160	-52.639999	478.239990	-102.269997	341.00	0.33	0.06
2.66	30.00	31.75	7.75	10.25	0.25	0.00	0.00	0.00	0.00	0.00	0.00	0.00	0.00	0.00	0.00	0.00	-0.295410	0.448730	1.283203	9.870000	195.649994	5.250000	804.00	-0.38	-0.04	0.00	0.00	0.00	0.00	0.00	0.00	0.00	0.00	2.25	4.50	1.75	0.75	0.00	11.00	4.25	3.50	-1.535156	0.808105	2.727539	-18.549999	508.200012	-119.209999	260.00	0.34	0.05
2.67	31.00	31.75	8.50	11.50	0.50	0.00	0.00	0.00	0.00	0.00	0.00	0.00	0.00	0.00	0.00	0.00	-0.249023	0.020020	1.032715	16.940001	186.619995	15.260000	840.00	-0.37	-0.04	0.00	0.00	0.00	0.00	0.00	0.00	0.00	0.00	1.50	3.75	1.50	1.00	0.00	9.00	3.50	2.75	-1.458496	0.476074	3.112305	10.010000	516.039978	-141.889999	213.00	0.34	0.04
2.68	30.25	32.00	9.25	13.25	0.25	0.50	0.00	0.00	0.00	0.00	0.00	0.25	0.00	0.00	0.00	0.00	-0.274414	-0.225098	1.027832	25.200001	184.800003	10.990000	867.00	-0.37	-0.05	0.00	0.00	0.00	0.00	0.00	0.00	0.00	0.00	1.25	3.50	1.50	1.00	0.00	7.00	2.50	1.75	-1.457031	0.778809	3.429688	-15.260000	504.910004	-162.050003	174.00	0.33	0.04
2.69	30.75	32.50	10.00	13.75	0.75	0.50	0.00	0.00	0.00	0.25	0.00	0.00	0.00	0.00	0.00	0.00	-0.269043	0.041016	0.977051	29.889999	183.470001	-1.750000	896.00	-0.37	-0.04	0.00	0.00	0.00	0.00	0.00	0.00	0.00	0.00	0.75	3.00	1.50	0.75	0.00	5.25	1.50	0.75	-0.263672	1.228027	2.921387	-31.639999	434.839996	-187.250000	129.00	0.32	0.05
2.70	31.75	31.75	10.75	15.25	0.75	1.25	0.25	0.00	0.00	0.00	0.00	0.25	0.25	0.00	0.00	0.00	-0.472656	0.235840	1.211914	28.770000	183.470001	-7.280000	939.00	-0.36	-0.05	0.00	0.00	0.00	0.25	0.00	0.00	0.00	0.00	0.50	2.75	1.25	0.50	0.00	2.50	0.75	0.50	0.982910	1.190430	2.785645	-27.860001	370.860016	-184.520004	88.00	0.28	0.03
2.71	31.00	31.50	11.50	15.50	1.00	1.50	0.00	0.25	0.00	0.50	0.25	0.75	0.50	0.00	0.00	0.00	-0.624023	0.614258	1.568848	-14.280000	136.360001	-5.740000	960.00	-0.35	-0.05	0.50	0.50	0.00	0.00	0.00	0.00	0.00	0.00	0.25	1.50	0.50	0.00	0.00	1.00	0.50	0.25	1.088867	0.975586	2.118164	-22.260000	277.339996	-176.190002	49.00	0.00	0.00
2.72	30.75	30.75	11.75	15.75	1.00	1.75	0.00	0.50	0.00	0.75	0.25	1.00	0.75	0.25	0.00	0.00	-0.415039	-0.035156	1.018066	-30.660000	86.800003	-1.470000	972.00	-0.34	-0.05	0.50	0.25	0.00	0.00	0.00	0.00	0.00	0.00	0.25	1.25	0.50	0.00	0.00	1.00	0.25	0.00	-0.169434	1.451660	3.283691	-32.130001	216.229996	-147.770004	40.00	0.00	0.00
2.73	30.25	30.00	12.25	15.75	1.00	2.00	0.00	0.75	0.00	1.50	0.75	1.00	0.50	0.50	0.50	0.00	-0.255371	0.143066	1.119629	-29.610001	64.540001	-2.590000	991.00	-0.32	-0.05	0.25	0.50	0.00	0.00	0.00	0.00	0.00	0.00	0.25	1.00	0.75	0.00	0.00	0.50	0.50	0.00	1.152832	0.909668	3.467285	-19.670000	61.810001	-97.230003	38.00	0.00	0.00
2.74	30.00	29.25	12.50	15.75	1.25	2.00	0.25	0.50	0.25	1.50	1.25	1.25	1.00	0.75	0.25	0.00	-0.330078	0.094727	1.033691	-28.210001	30.170000	-3.990000	1002.00	-0.31	-0.05	0.25	0.75	0.00	0.00	0.00	0.00	0.00	0.00	0.00	1.25	0.25	0.00	0.00	0.50	0.25	0.00	1.287598	0.780273	2.666504	-23.660000	-90.720001	-50.470001	32.00	0.00	0.00
2.75	29.00	28.50	12.75	15.25	1.50	2.25	0.25	0.75	0.25	1.50	1.00	1.25	1.00	1.25	0.50	0.00	-0.330078	0.094727	1.033691	-28.210001	30.170000	-3.990000	995.00	-0.31	-0.05	0.50	0.25	0.00	0.00	0.00	0.00	0.00	0.00	0.00	1.25	0.50	0.00	0.00	0.25	0.25	0.00	0.669922	0.705566	2.072266	-49.139999	-194.460007	-8.960000	30.00	0.00	0.00
2.76	28.25	27.25	12.25	15.00	1.50	2.25	0.25	0.50	0.75	1.75	1.50	1.50	1.00	1.00	0.50	0.00	-0.298340	0.054199	0.978027	-23.170000	22.469999	-3.710000	979.00	-0.30	-0.05	0.25	0.00	0.00	0.00	0.00	0.00	0.00	0.00	0.00	1.00	0.00	0.00	0.00	0.50	0.25	0.00	0.553711	0.641113	1.597168	-60.689999	-248.639999	22.400000	20.00	0.00	0.00
2.77	27.25	26.25	12.00	14.25	1.50	2.25	0.25	0.50	0.75	2.00	1.25	1.25	1.00	1.25	0.50	0.00	-0.289551	0.084473	0.963867	-18.059999	18.549999	-3.640000	948.00	-0.29	-0.05	0.25	0.75	0.00	0.00	0.00	0.00	0.00	0.00	0.00	1.00	0.25	0.00	0.00	0.25	0.25	0.00	0.525879	0.559082	1.177734	-57.049999	-275.450012	43.680000	27.00	0.00	0.00
2.78	25.75	25.00	11.50	13.50	1.50	2.25	0.25	0.75	0.75	2.25	1.50	1.50	1.25	1.50	0.25	0.00	-0.261230	0.084961	0.965332	-10.850000	15.820000	-3.080000	920.00	-0.29	-0.05	0.25	0.00	0.00	0.00	0.00	0.00	0.00	0.00	0.00	1.00	0.25	0.00	0.00	0.00	0.25	0.00	0.435547	0.479980	0.985840	-44.799999	-290.010010	56.910000	18.00	0.00	0.00
2.79	24.50	23.50	11.25	13.00	1.25	1.75	0.50	0.75	1.25	1.75	1.25	1.50	1.25	1.50	0.25	0.25	-0.269043	0.114258	0.848145	-7.350000	16.309999	-2.520000	881.00	-0.28	-0.05	0.25	0.50	0.00	0.00	0.00	0.00	0.00	0.00	0.00	1.00	0.00	0.00	0.00	0.00	0.25	0.00	0.357422	0.410645	0.860352	-29.330000	-297.149994	64.400002	20.00	0.00	0.00
2.80	22.25	21.25	10.50	12.00	1.50	1.75	0.25	0.50	1.00	2.25	1.50	1.75	1.25	1.00	0.50	0.50	-0.290527	0.081543	0.946289	-6.160000	16.030001	-2.520000	820.00	-0.27	-0.05	0.00	0.00	0.00	0.00	0.00	0.00	0.00	0.00	0.00	0.75	0.00	0.00	0.00	0.25	0.25	0.00	0.292969	0.330566	0.791504	-15.470000	-299.739990	68.180000	13.00	0.00	0.00
2.81	20.75	19.25	10.25	11.50	1.50	2.00	0.25	0.75	1.50	2.00	1.50	1.50	1.50	1.50	0.50	0.25	-0.310059	0.091797	0.942871	-4.340000	15.820000	-2.520000	790.00	-0.26	-0.05	0.25	0.00	0.00	0.00	0.00	0.00	0.00	0.00	0.00	1.00	0.00	0.00	0.00	0.25	0.00	0.00	0.213867	0.261719	0.832520	-5.880000	-301.070007	69.160004	15.00	0.00	0.00
2.82	18.50	17.25	9.50	10.50	1.25	1.75	0.25	0.75	1.50	2.50	1.75	1.75	1.50	2.00	0.50	0.25	-0.284180	0.071777	0.964355	-2.310000	16.100000	-1.960000	739.00	-0.24	-0.05	0.25	0.00	0.00	0.00	0.00	0.00	0.00	0.00	0.00	0.75	0.25	0.00	0.00	0.00	0.00	0.00	0.154785	0.180664	0.952637	-1.050000	-306.459991	68.250000	13.00	0.00	0.00
2.83	16.75	15.75	9.00	10.00	1.50	1.75	0.50	0.75	1.25	2.25	1.75	1.50	1.50	1.75	0.75	0.25	-0.289062	0.091309	0.937500	-2.590000	15.960000	-2.310000	694.00	-0.24	-0.05	0.25	0.00	0.00	0.00	0.00	0.00	0.00	0.00	0.00	0.75	0.00	0.00	0.00	0.00	0.00	0.00	0.080566	0.135742	1.086426	0.280000	-318.079987	66.709999	10.00	0.00	0.00
2.84	15.00	14.00	8.50	9.25	1.25	1.50	0.50	0.50	1.50	2.50	1.75	1.75	1.75	2.25	0.50	0.50	-0.303711	0.096680	0.923340	-2.100000	16.030001	-2.660000	650.00	-0.22	-0.04	0.25	0.25	0.00	0.00	0.00	0.00	0.00	0.00	0.00	0.50	0.00	0.00	0.00	0.00	0.25	0.00	0.001465	0.120605	1.196289	-0.910000	-333.899994	65.870003	13.00	0.00	0.00
2.85	13.00	12.25	8.25	8.50	1.50	0.75	0.50	0.75	2.00	2.75	1.75	2.00	1.75	2.25	0.75	0.25	-0.255859	0.144531	0.891602	-3.080000	16.379999	-2.940000	614.00	-0.19	-0.04	0.50	0.00	0.00	0.00	0.00	0.00	0.00	0.00	0.00	0.75	0.00	0.00	0.00	0.00	0.00	0.00	-0.097656	0.129395	1.250000	-1.400000	-351.049988	66.150002	13.00	0.00	0.00
2.86	11.00	10.75	7.75	8.00	1.25	1.50	0.50	0.50	2.00	2.50	2.00	2.00	1.75	2.25	0.75	0.50	-0.317871	0.084961	0.919434	-3.850000	16.379999	-3.220000	571.00	-0.18	-0.05	0.00	0.75	0.00	0.00	0.00	0.00	0.00	0.00	0.00	0.50	0.00	0.00	0.00	0.00	0.00	0.00	-0.217773	0.172363	1.282227	-0.910000	-366.170013	67.690002	12.00	0.00	0.00
2.87	9.50	8.75	7.00	7.50	1.25	1.50	0.50	1.00	2.00	3.00	2.25	2.25	2.00	2.25	0.75	0.50	-0.288086	0.091309	0.922852	-4.550000	16.660000	-3.640000	544.00	-0.15	-0.05	0.00	0.25	0.00	0.00	0.00	0.00	0.00	0.00	0.00	0.75	0.00	0.00	0.00	0.00	0.25	0.00	-0.322266	0.214844	1.336914	1.050000	-378.279999	70.139999	13.00	0.00	0.00
2.88	8.75	7.50	6.75	7.00	1.50	1.25	0.50	0.75	2.50	3.00	2.25	2.25	2.00	2.50	0.75	0.75	-0.309570	0.086914	0.903809	-4.480000	17.639999	-4.060000	523.00	-0.13	-0.04	0.25	0.50	0.00	0.00	0.00	0.00	0.00	0.00	0.00	0.75	0.00	0.00	0.00	0.00	0.00	0.00	-0.479980	0.289062	1.384277	11.060000	-394.660004	72.029999	15.00	0.00	0.00
2.89	7.50	7.25	6.50	6.25	1.50	1.25	0.75	0.75	2.50	3.25	2.50	2.00	2.00	2.50	1.00	0.50	-0.306152	0.082031	0.906738	-4.130000	18.549999	-4.130000	504.00	-0.11	-0.04	0.00	0.75	0.00	0.00	0.00	0.00	0.00	0.00	0.00	0.75	0.00	0.00	0.00	0.00	0.00	0.00	-0.584961	0.324219	1.457520	21.000000	-398.369995	69.930000	15.00	0.00	0.00
2.90	7.00	6.25	6.00	6.00	1.50	1.00	0.75	0.75	3.00	3.25	2.75	2.75	2.25	2.75	0.75	0.75	-0.306641	0.086914	0.898438	-4.200000	19.460001	-3.990000	499.00	-0.09	-0.04	0.25	0.00	0.00	0.00	0.00	0.00	0.00	0.00	0.00	0.50	0.00	0.00	0.00	0.00	0.00	0.00	-0.626953	0.319824	1.507812	33.180000	-399.350006	67.199997	8.00	0.00	0.00
2.91	5.75	5.75	5.50	5.50	1.25	1.00	0.75	0.75	2.75	3.75	3.25	2.75	2.75	3.50	1.00	0.75	-0.336426	0.078125	0.916992	-4.760000	21.139999	-4.270000	488.00	-0.06	-0.05	0.00	0.00	0.00	0.00	0.00	0.00	0.00	0.00	0.00	0.00	0.00	0.00	0.00	0.00	0.00	0.00	-0.690430	0.367188	1.574707	50.119999	-398.649994	62.580002	0.00	0.00	0.00
2.92	5.50	5.50	5.00	5.25	1.25	0.75	1.00	1.00	3.50	4.00	4.00	3.50	2.75	3.75	1.00	0.75	-0.291016	0.106934	0.918457	-5.040000	22.260000	-4.270000	510.00	-0.03	-0.04	0.25	0.75	0.00	0.00	0.00	0.00	0.00	0.00	0.00	0.25	0.00	0.00	0.00	0.00	0.00	0.00	-0.770020	0.357422	1.718750	67.690002	-396.549988	57.820000	12.00	0.00	0.00
2.93	5.00	5.00	5.00	5.00	1.25	0.75	1.00	1.00	4.25	4.50	4.25	4.00	3.00	4.25	1.00	1.00	-0.303711	0.085449	0.929199	-5.040000	23.240000	-4.830000	528.00	-0.01	-0.04	0.25	0.00	0.00	0.00	0.00	0.00	0.00	0.00	0.00	0.25	0.00	0.00	0.00	0.00	0.00	0.00	-0.845215	0.349121	1.843750	82.669998	-394.239990	55.020000	5.00	0.00	0.00
2.94	4.00	4.25	4.50	4.25	1.25	0.75	1.25	1.00	5.00	5.50	5.50	4.25	3.25	4.50	1.50	1.00	-0.314941	0.068359	0.922363	-4.830000	24.360001	-5.110000	546.00	0.04	-0.03	0.25	0.00	0.00	0.00	0.00	0.00	0.00	0.00	0.00	0.25	0.00	0.00	0.00	0.00	0.00	0.00	-0.904297	0.344238	1.961914	93.239998	-391.160004	54.389999	5.00	0.00	0.00
2.95	3.75	3.25	3.75	3.25	1.00	0.75	1.50	1.25	5.25	6.25	6.75	5.00	3.75	5.00	1.25	1.25	-0.323242	0.088379	0.924805	-4.200000	25.129999	-5.390000	559.00	0.07	-0.04	0.25	0.00	0.00	0.00	0.00	0.00	0.00	0.00	0.00	0.00	0.00	0.00	0.00	0.00	0.00	0.00	-0.971680	0.349121	2.131348	101.919998	-387.940002	56.349998	3.00	0.00	0.00
2.96	3.00	3.25	3.50	3.00	1.25	0.50	2.00	1.25	6.75	7.50	7.75	5.75	5.00	5.50	2.00	1.25	-0.308105	0.084961	0.900879	-3.710000	26.389999	-5.250000	628.00	0.10	-0.03	0.25	0.00	0.00	0.00	0.00	0.00	0.00	0.00	0.00	0.00	0.00	0.00	0.00	0.00	0.00	0.00	-1.078613	0.355469	2.374023	110.180000	-383.739990	60.270000	3.00	0.00	0.00
2.97	2.50	2.25	3.00	2.25	1.25	1.00	2.75	1.25	8.00	8.25	8.25	6.50	5.00	6.50	2.25	1.50	-0.329102	0.079590	0.925293	-4.200000	28.420000	-5.180000	666.00	0.13	-0.02	0.00	0.00	0.00	0.00	0.00	0.00	0.00	0.00	0.00	0.50	0.00	0.00	0.00	0.00	0.00	0.00	-1.213867	0.356934	2.671875	117.809998	-379.820007	66.150002	5.00	0.00	0.00
2.98	2.00	2.00	2.50	2.00	1.00	0.50	3.25	1.50	8.50	8.75	9.00	7.50	5.50	7.50	2.50	1.75	-0.323730	0.107910	0.932129	-5.670000	31.920000	-5.670000	701.00	0.15	-0.02	0.25	0.00	0.00	0.00	0.00	0.00	0.00	0.00	0.00	0.25	0.00	0.00	0.00	0.00	0.00	0.00	-1.416016	0.339844	2.972168	124.180000	-378.630005	73.570000	5.00	0.00	0.00
2.99	1.75	1.50	1.50	1.25	0.75	0.25	3.50	1.50	9.25	9.25	9.50	8.00	6.00	8.25	2.50	2.00	-0.435059	-0.008301	0.964844	-6.300000	38.639999	-8.120000	710.00	0.18	-0.02	0.00	0.00	0.00	0.00	0.00	0.00	0.00	0.00	0.00	0.00	0.00	0.00	0.00	0.00	0.00	0.00	-1.788086	0.335449	3.292480	131.389999	-380.940002	81.410004	0.00	0.00	0.00
3.00	1.25	0.75	1.75	1.00	0.75	0.25	4.00	1.25	10.00	10.00	10.00	8.50	6.25	9.00	2.75	2.25	-0.348633	0.062988	0.929688	-5.600000	42.420002	-7.700000	742.00	0.19	-0.01	0.00	0.00	0.00	0.00	0.00	0.00	0.00	0.00	0.00	0.00	0.00	0.00	0.00	0.00	0.00	0.00	-2.257812	0.275879	3.604980	139.160004	-388.779999	87.989998	0.00	0.00	0.00
3.01	0.75	0.25	1.25	0.75	0.50	0.00	4.75	1.50	10.75	10.50	10.75	9.00	6.75	9.50	3.25	2.50	-0.364258	0.066895	0.930664	-4.200000	47.320000	-7.770000	777.00	0.21	-0.01	0.25	0.50	0.00	0.00	0.00	0.00	0.00	0.00	0.00	0.25	0.00	0.00	0.00	0.00	0.00	0.00	-2.734375	0.194336	3.654785	139.229996	-404.459991	91.000000	10.00	0.00	0.00
3.02	0.75	0.75	0.50	0.25	0.00	0.00	4.75	1.25	11.25	11.50	11.25	9.25	6.75	10.00	4.00	2.50	-0.366699	0.047363	0.956543	-2.940000	56.420002	-8.120000	796.00	0.22	-0.01	0.00	0.00	0.00	0.00	0.00	0.00	0.00	0.00	0.00	0.00	0.00	0.00	0.00	0.00	0.00	0.00	-3.159668	0.129395	3.276855	124.040001	-423.640015	86.379997	0.00	0.00	0.00
3.03	0.25	0.00	0.25	0.25	0.25	0.25	5.25	1.00	12.25	11.75	11.75	10.00	7.00	10.50	4.75	3.50	-0.375488	0.092285	0.966797	-1.400000	73.919998	-6.860000	839.00	0.24	-0.00	0.00	0.00	0.00	0.00	0.00	0.00	0.00	0.00	0.00	0.25	0.00	0.00	0.00	0.00	0.00	0.00	-3.365234	0.097168	2.428711	118.930000	-428.470001	74.480003	3.00	0.00	0.00
3.04	0.50	0.00	0.50	0.00	0.00	0.00	5.25	1.00	13.00	12.50	12.00	9.75	6.75	11.00	5.25	3.50	-0.410156	0.091309	0.968262	-0.420000	91.980003	-7.840000	861.00	0.24	0.00	0.00	0.00	0.00	0.00	0.00	0.00	0.00	0.00	0.00	0.00	0.00	0.00	0.00	0.00	0.00	0.00	-3.684082	-0.198242	1.509277	171.149994	-413.839996	62.580002	0.00	0.00	0.00
3.05	0.00	0.00	0.00	0.00	0.00	0.25	5.50	1.00	13.50	13.00	12.25	9.75	6.50	11.75	5.50	3.75	-0.419434	0.059082	0.974121	-1.120000	107.940002	-9.940000	879.00	0.25	0.01	0.00	0.00	0.00	0.00	0.00	0.00	0.00	0.00	0.00	0.00	0.00	0.00	0.00	0.00	0.00	0.00	-4.445312	-0.642090	0.721191	261.940002	-381.360016	42.349998	0.00	0.00	0.00
3.06	0.00	0.00	0.00	0.00	0.00	0.00	5.50	1.00	14.25	13.50	12.25	10.00	6.50	12.00	6.00	4.00	-0.389160	-0.018555	0.940918	-2.380000	127.190002	-11.410000	903.00	0.25	0.01	0.00	0.00	0.00	0.00	0.00	0.00	0.00	0.00	0.00	0.25	0.00	0.00	0.00	0.00	0.00	0.00	-5.521484	-1.257812	-0.128906	328.510010	-333.059998	9.730000	3.00	0.00	0.00
3.07	0.25	0.00	0.00	0.00	0.00	0.00	5.75	0.50	15.00	14.00	12.50	10.00	5.75	12.75	6.00	4.50	-0.464355	0.045898	0.996582	-4.760000	150.149994	-10.080000	922.00	0.25	0.02	0.25	0.00	0.00	0.00	0.00	0.00	0.00	0.00	0.00	0.25	0.00	0.00	0.00	0.00	0.00	0.00	-6.616211	-1.955566	-1.156738	356.720001	-267.610016	-9.450000	5.00	0.00	0.00
3.08	0.00	0.00	0.00	0.00	0.00	0.00	5.75	0.50	15.50	14.50	12.25	9.75	5.75	12.75	6.50	4.50	-0.476074	0.006836	0.979004	-8.890000	178.919998	-7.140000	931.00	0.25	0.02	0.00	0.00	0.00	0.00	0.00	0.00	0.00	0.00	0.00	0.50	0.00	0.00	0.00	0.00	0.00	0.00	-6.490234	-2.633789	-1.571289	291.970001	-170.380005	-24.360001	5.00	0.00	0.00
3.09	0.00	0.00	0.00	0.00	0.00	0.00	5.75	0.25	15.75	14.75	12.00	9.50	5.50	13.50	6.75	5.00	-0.518066	-0.003906	0.985840	-9.100000	205.240005	-0.980000	937.00	0.26	0.03	0.25	0.00	0.00	0.00	0.00	0.00	0.00	0.00	0.00	0.25	0.00	0.00	0.00	0.00	0.00	0.00	-4.090332	-2.010742	-0.627930	-130.059998	50.889999	-124.599998	5.00	0.00	0.00
3.10	0.00	0.00	0.00	0.00	0.00	0.00	5.75	0.00	16.00	14.75	12.00	9.50	5.50	13.50	6.75	5.25	-0.562500	0.031250	1.008789	-7.980000	231.839996	4.340000	938.00	0.26	0.03	0.00	0.75	0.00	0.00	0.00	0.00	0.00	0.00	0.00	0.25	0.00	0.00	0.00	0.00	0.00	0.00	-3.317871	-0.884277	0.743164	-297.429993	130.270004	-147.699997	10.00	0.00	0.00
3.11	0.00	0.00	0.00	0.00	0.00	0.00	5.75	0.00	16.00	14.75	11.75	9.25	5.00	14.00	7.00	5.25	-0.634766	0.069336	1.044434	-7.980000	260.890015	5.600000	935.00	0.26	0.03	0.50	1.00	0.00	0.50	0.00	0.00	0.00	0.00	0.00	0.00	0.00	0.00	0.00	0.00	0.00	0.00	3.993652	3.527832	8.551758	-364.559998	339.989990	-170.380005	20.00	0.00	0.00
3.12	0.00	0.00	0.00	0.00	0.00	0.25	5.50	0.00	15.50	14.50	11.50	9.00	4.75	14.00	7.00	5.25	-0.684082	0.124512	1.086426	-9.310000	289.450012	1.540000	918.00	0.26	0.03	2.50	3.50	0.75	2.75	0.00	0.00	0.00	0.00	0.00	0.00	0.00	0.00	0.00	0.00	0.00	0.00	3.713379	1.929688	-0.785156	-242.059998	116.620003	-119.000000	97.00	-0.36	-0.09
3.13	0.00	0.00	0.00	0.00	0.00	0.00	5.50	0.00	14.75	14.25	10.75	8.50	4.00	14.25	7.25	5.50	-0.777832	0.132812	1.228516	-7.560000	314.929993	-4.410000	889.00	0.26	0.04	6.25	7.50	1.25	4.50	0.00	0.00	0.00	0.00	0.00	0.00	0.00	0.00	0.00	0.00	0.00	0.00	0.613281	0.419434	-1.078613	-261.519989	85.889999	-90.440002	197.00	-0.37	-0.07
3.14	0.00	0.00	0.00	0.00	0.00	0.00	5.25	0.00	13.50	13.00	9.75	7.50	3.50	14.25	7.25	5.50	-0.904785	0.107910	1.441895	-2.940000	340.059998	-8.400000	831.00	0.27	0.04	9.50	10.50	2.25	5.50	0.00	0.00	0.00	0.00	0.00	0.00	0.00	0.00	0.00	0.00	0.00	0.00	-0.459961	-0.033691	-0.769531	-336.000000	217.210007	-83.930000	280.00	-0.37	-0.06
3.15	0.00	0.00	0.00	0.00	0.00	0.00	5.00	0.00	11.75	11.75	8.50	6.25	3.00	14.75	7.50	5.50	-1.160645	0.050781	1.576660	-2.940000	367.360016	-12.670000	767.00	0.27	0.04	14.50	14.75	3.00	7.50	0.00	0.00	0.00	0.00	0.00	0.00	0.00	0.00	0.00	0.00	0.00	0.00	-1.076172	0.975586	1.725586	-309.190002	330.399994	-31.360001	402.00	-0.37	-0.05
3.16	0.00	0.00	0.00	0.00	0.00	0.00	4.50	0.00	10.25	10.50	6.75	5.25	2.50	14.50	7.25	5.25	-1.519043	0.067871	1.897949	-7.630000	398.230011	-15.890000	688.00	0.28	0.05	19.75	18.75	4.50	8.75	0.00	0.00	0.00	0.00	0.00	0.00	0.00	0.00	0.00	0.00	0.00	0.00	-1.094727	0.098145	3.580566	-154.699997	335.089996	54.810001	523.00	-0.37	-0.04
3.17	0.00	0.00	0.00	0.00	0.00	0.00	3.75	0.00	8.75	9.50	4.75	4.00	1.50	14.00	7.00	5.00	-1.561035	0.287598	2.144531	-3.500000	426.510010	-16.940001	595.00	0.28	0.06	23.50	21.75	6.50	10.00	0.00	0.00	0.00	0.00	0.00	0.00	0.00	0.00	0.00	0.00	0.00	0.00	-0.957031	-1.255371	2.715820	-47.950001	296.940002	81.199997	626.00	-0.37	-0.04
3.18	0.00	0.00	0.00	0.00	0.00	0.00	2.75	0.00	7.50	8.25	3.50	2.75	0.75	12.50	6.50	4.00	-1.656250	0.089844	2.460938	2.030000	452.410004	-19.250000	494.00	0.29	0.07	25.00	22.50	8.00	11.00	0.00	0.00	0.00	0.00	0.00	0.00	0.00	0.00	0.00	0.00	0.00	0.00	-0.770996	-1.246094	2.222168	-16.450001	279.510010	45.849998	676.00	-0.37	-0.04
3.19	0.00	0.00	0.00	0.00	0.00	0.00	2.00	0.00	6.25	7.50	2.00	2.00	0.75	11.00	5.50	3.00	-2.150391	0.148926	2.531738	-16.030001	485.239990	-25.760000	406.00	0.30	0.07	24.50	22.25	8.75	11.75	0.00	0.00	0.00	0.00	0.00	0.00	0.00	0.00	0.00	0.00	0.00	0.00	-0.622070	-0.483887	2.209961	3.850000	253.470001	2.380000	685.00	-0.37	-0.04
3.20	0.00	0.00	0.00	0.00	0.00	0.00	1.00	0.00	4.25	6.00	2.00	1.50	0.00	9.50	4.75	2.50	-1.931641	0.780273	2.339844	-1.540000	515.970032	-68.320000	314.00	0.31	0.07	24.50	22.50	9.25	12.25	0.00	0.00	0.00	0.00	0.00	0.00	0.00	0.00	0.00	0.00	0.00	0.00	-0.459961	0.458008	1.673828	19.110001	213.289993	-10.920000	698.00	-0.36	-0.04
3.21	0.25	0.00	0.00	0.00	0.00	0.00	0.25	0.00	3.50	5.25	1.50	1.50	0.25	8.25	3.75	1.75	-1.521484	1.072266	3.121582	17.990000	505.610016	-87.080002	260.00	0.31	0.06	23.75	22.00	10.00	12.75	0.25	0.00	0.00	0.00	0.00	0.00	0.00	0.00	0.00	0.00	0.00	0.00	-0.279297	0.351074	1.201172	26.530001	187.949997	1.750000	703.00	-0.36	-0.04
3.22	0.00	0.00	0.00	0.00	0.00	0.00	0.00	0.00	2.50	4.25	1.25	1.50	0.25	6.50	2.75	1.00	-1.206543	1.059570	3.035645	43.540001	478.730011	-99.190002	198.00	0.31	0.05	23.25	21.25	10.50	13.50	0.50	0.50	0.00	0.00	0.00	0.00	0.00	0.25	0.00	0.00	0.00	0.00	-0.232422	-0.003906	1.091309	25.340000	177.449997	7.840000	715.00	-0.35	-0.04
3.23	0.00	0.00	0.00	0.00	0.00	0.00	0.00	0.00	2.25	4.00	1.25	1.00	0.25	4.25	1.75	0.75	-0.626465	0.927246	2.881348	72.099998	450.799988	-111.860001	156.00	0.30	0.06	23.00	20.75	11.25	14.00	0.50	1.00	0.00	0.25	0.00	0.00	0.00	0.50	0.50	0.00	0.00	0.00	-0.248535	-0.045898	1.031738	24.780001	170.309998	0.210000	738.00	-0.34	-0.05
3.24	0.00	0.00	0.00	0.00	0.00	0.00	0.00	0.00	2.00	3.50	1.00	1.00	0.00	2.50	1.00	0.00	0.457520	0.816895	2.859375	91.139999	385.910004	-123.059998	115.00	0.29	0.07	23.00	20.25	11.75	14.50	0.75	1.50	0.00	0.25	0.00	0.00	0.25	0.50	0.75	0.00	0.00	0.00	-0.692871	-0.123047	2.904785	10.080000	170.940002	-11.060000	757.00	-0.34	-0.05
3.25	0.25	0.00	0.00	0.00	0.00	0.00	0.00	0.00	0.75	2.25	0.75	0.75	0.25	1.75	0.75	0.25	1.041016	0.350586	2.333008	104.160004	311.079987	-138.039993	78.00	0.27	0.02	22.50	19.75	12.25	14.75	1.00	1.25	0.00	0.50	0.00	0.50	0.50	1.00	1.00	0.25	0.00	0.00	-0.796875	0.630859	1.851562	-4.410000	94.779999	-9.450000	777.00	-0.32	-0.05
3.26	0.50	0.25	0.00	0.25	0.00	0.00	0.00	0.00	0.75	2.00	0.50	0.00	0.00	0.50	0.25	0.25	-0.008789	0.893066	2.875000	93.519997	251.229996	-158.759995	54.00	0.15	0.06	22.00	19.25	12.50	14.75	1.25	1.75	0.00	0.75	0.00	0.75	0.75	1.25	1.25	0.50	0.00	0.00	-0.332520	0.083496	1.022461	-18.900000	40.670002	-2.940000	794.00	-0.31	-0.06
3.27	0.50	0.25	0.00	0.00	0.00	0.00	0.00	0.00	0.75	1.50	0.00	0.25	0.00	0.25	0.50	0.00	0.596680	0.670410	3.552246	73.220001	101.360001	-143.009995	43.00	0.00	0.00	21.50	19.00	12.75	14.75	1.25	2.25	0.00	0.75	0.00	0.75	1.00	1.00	1.75	1.00	0.25	0.00	-0.243652	0.129883	1.123047	-22.540001	19.809999	-3.360000	806.00	-0.30	-0.06
3.28	0.25	0.25	0.00	0.00	0.00	0.00	0.00	0.00	0.50	1.25	0.50	0.00	0.50	0.50	0.25	0.00	0.948730	0.929688	2.384277	28.770000	-54.880001	-114.520004	41.00	0.00	0.00	21.00	18.50	12.75	14.50	1.50	2.50	0.25	0.75	0.00	1.00	1.00	0.75	1.75	1.00	0.00	0.00	-0.248535	0.127441	1.038574	-24.430000	4.760000	-2.940000	800.00	-0.29	-0.06
3.29	0.25	0.25	0.00	0.00	0.00	0.00	0.00	0.00	0.00	1.50	0.00	0.00	0.00	0.50	0.50	0.00	0.583496	0.458008	2.149902	-38.150002	-175.210007	-77.980003	30.00	0.00	0.00	21.25	18.25	12.50	14.25	1.50	2.25	0.25	0.75	0.00	1.00	0.75	1.00	1.75	1.25	0.50	0.00	-0.206055	0.105469	0.942383	-20.299999	3.290000	-2.380000	800.00	-0.29	-0.06
3.30	0.25	0.25	0.00	0.00	0.00	0.00	0.00	0.00	0.00	1.50	0.00	0.00	0.25	0.50	0.25	0.00	0.455566	0.427246	1.687012	-85.680000	-236.809998	-47.459999	30.00	0.00	0.00	20.75	17.50	12.50	14.25	1.50	2.25	0.25	0.75	0.25	1.00	1.00	1.00	2.00	1.50	0.25	0.25	-0.232910	0.121094	1.024414	-16.450001	3.080000	-2.310000	797.00	-0.28	-0.06
3.31	0.50	0.75	0.00	0.00	0.00	0.00	0.00	0.00	0.00	1.50	0.00	0.00	0.00	0.00	0.25	0.00	0.411133	0.483887	1.123047	-101.570000	-262.850006	-28.000000	30.00	0.00	0.00	19.75	17.00	12.25	13.75	1.50	2.25	0.25	0.75	0.25	1.00	1.00	1.25	1.75	1.50	0.25	0.50	-0.220215	0.131836	0.962891	-12.810000	3.780000	-1.960000	775.00	-0.28	-0.06
3.32	0.25	0.00	0.00	0.00	0.00	0.00	0.00	0.00	0.25	1.00	0.00	0.00	0.00	0.00	0.25	0.00	0.367676	0.494629	0.789551	-91.489998	-271.250000	-16.309999	19.00	0.00	0.00	19.25	16.25	12.00	13.25	1.50	2.00	0.25	0.75	0.25	1.25	1.00	1.25	1.50	1.50	0.50	0.50	-0.216309	0.102539	0.947754	-10.920000	4.340000	-1.610000	755.00	-0.27	-0.05
3.33	0.00	0.00	0.00	0.00	0.00	0.00	0.00	0.00	0.00	1.25	0.00	0.00	0.00	0.00	0.00	0.00	0.309082	0.500488	0.557617	-63.420002	-266.980011	-8.820000	13.00	0.00	0.00	18.25	15.25	11.50	13.00	1.50	2.00	0.25	0.75	0.25	1.25	1.25	1.00	2.00	1.75	0.50	0.50	-0.200195	0.113770	1.018066	-9.170000	5.250000	-0.980000	734.00	-0.26	-0.06
3.34	0.00	0.00	0.00	0.00	0.00	0.00	0.00	0.00	0.00	1.00	0.00	0.00	0.00	0.25	0.00	0.00	0.267578	0.466797	0.463867	-29.260000	-255.639999	-2.520000	13.00	0.00	0.00	17.00	14.75	11.25	12.50	1.50	2.00	0.25	1.00	0.50	1.25	1.25	1.25	2.00	1.75	0.75	0.50	-0.203613	0.123047	0.897949	-7.420000	5.740000	-0.490000	720.00	-0.25	-0.06
3.35	0.50	0.00	0.00	0.00	0.00	0.00	0.00	0.00	0.00	1.00	0.00	0.00	0.00	0.00	0.00	0.00	0.229004	0.409668	0.497559	1.330000	-242.899994	3.850000	16.00	0.00	0.00	16.25	13.50	10.75	12.00	1.50	2.00	0.25	0.75	0.50	1.50	1.25	1.25	2.00	1.50	0.75	0.75	-0.233398	0.091797	0.963379	-6.510000	6.090000	-0.420000	688.00	-0.25	-0.06
3.36	0.25	0.00	0.00	0.25	0.00	0.00	0.00	0.00	0.00	1.00	0.00	0.00	0.00	0.00	0.00	0.00	0.175293	0.338867	0.666504	21.350000	-235.270004	11.550000	16.00	0.00	0.00	14.75	12.75	10.25	11.50	1.50	2.00	0.25	1.00	0.50	1.25	1.25	1.25	2.00	1.75	0.50	0.75	-0.229004	0.111816	0.959473	-6.300000	6.230000	-0.630000	655.00	-0.24	-0.06
3.37	0.50	0.00	0.00	0.00	0.00	0.00	0.00	0.00	0.00	1.25	0.00	0.00	0.00	0.00	0.25	0.00	0.124512	0.273926	0.875977	26.530001	-237.160004	21.559999	21.00	0.00	0.00	14.25	11.50	10.00	11.00	1.50	1.75	0.25	0.75	0.75	1.50	1.25	1.25	2.00	2.00	0.50	0.75	-0.213379	0.105469	0.954590	-6.230000	6.160000	-0.840000	632.00	-0.23	-0.06
3.38	0.75	0.00	0.00	0.00	0.00	0.00	0.00	0.00	0.25	0.75	0.00	0.00	0.00	0.00	0.00	0.00	0.012695	0.243652	1.170410	0.280000	-266.630005	48.160000	19.00	0.00	0.00	13.00	11.00	9.50	10.50	1.50	1.25	0.25	0.75	0.75	1.75	1.50	1.25	2.50	2.25	1.00	1.00	-0.223633	0.099121	0.988281	-6.510000	6.020000	-1.120000	616.00	-0.21	-0.06
3.39	0.00	0.25	0.00	0.00	0.00	0.00	0.00	0.00	0.00	1.00	0.00	0.00	0.00	0.25	0.00	0.00	0.012695	0.243652	1.170410	0.280000	-266.630005	48.160000	15.00	0.00	0.00	12.00	10.25	9.25	10.00	1.75	2.00	0.25	1.00	0.75	1.75	1.50	1.75	2.25	2.50	0.75	1.25	-0.213379	0.084473	0.968750	-7.350000	6.160000	-1.680000	609.00	-0.20	-0.06
3.40	0.00	0.00	0.00	0.00	0.00	0.00	0.00	0.00	0.00	1.00	0.00	0.00	0.00	0.25	0.00	0.00	-0.068359	0.257324	1.245605	-15.470000	-286.720001	61.389999	13.00	0.00	0.00	10.75	9.50	9.00	9.75	1.75	1.75	0.25	1.00	1.00	1.50	1.75	1.75	2.50	2.50	0.75	1.25	-0.209473	0.100586	0.984375	-7.910000	7.350000	-2.450000	587.00	-0.19	-0.07
3.41	0.00	0.00	0.00	0.00	0.00	0.00	0.00	0.00	0.00	0.75	0.00	0.00	0.00	0.00	0.00	0.00	-0.242188	0.293945	1.304688	-21.980000	-328.019989	78.190002	8.00	0.00	0.00	9.75	9.00	8.50	9.25	1.50	1.25	0.25	1.00	1.00	2.25	1.75	2.00	3.00	2.75	1.00	1.25	-0.237305	0.106934	0.960938	-9.100000	8.750000	-3.290000	572.00	-0.17	-0.07
3.42	0.00	0.00	0.00	0.00	0.00	0.00	0.00	0.00	0.00	1.00	0.00	0.00	0.00	0.00	0.00	0.00	-0.332520	0.303711	1.306641	-14.280000	-345.100006	80.709999	10.00	0.00	0.00	9.00	8.50	8.00	8.75	1.50	1.25	0.50	1.00	1.50	2.25	2.25	1.75	2.50	3.00	1.00	1.50	-0.234863	0.082031	0.976074	-11.550000	9.940000	-3.920000	560.00	-0.15	-0.06
3.43	0.25	0.00	0.00	0.00	0.00	0.00	0.00	0.00	0.00	0.25	0.00	0.00	0.00	0.00	0.00	0.00	-0.419434	0.284668	1.305664	-2.310000	-357.980011	80.919998	5.00	0.00	0.00	8.25	7.75	7.75	8.50	1.50	1.25	0.50	1.25	1.75	2.50	2.25	2.00	3.00	3.25	1.25	1.50	-0.225098	0.127930	0.916504	-12.040000	11.690000	-4.410000	562.00	-0.13	-0.06
3.44	0.00	0.00	0.00	0.00	0.00	0.00	0.00	0.00	0.00	0.75	0.00	0.00	0.00	0.00	0.00	0.00	-0.501953	0.241211	1.336914	9.730000	-366.170013	79.239998	8.00	0.00	0.00	7.75	7.25	7.50	8.25	1.75	1.25	0.50	1.00	2.00	3.00	2.50	2.50	2.75	3.25	1.25	1.75	-0.247559	0.087402	0.965820	-11.410000	12.600000	-4.200000	561.00	-0.11	-0.06
3.45	0.25	0.00	0.00	0.00	0.00	0.00	0.00	0.00	0.00	0.50	0.00	0.00	0.00	0.00	0.00	0.00	-0.577637	0.164551	1.449707	18.410000	-371.700012	77.000000	8.00	0.00	0.00	7.00	6.50	7.00	7.75	1.75	1.00	0.50	1.00	2.25	3.00	2.75	2.50	3.25	4.00	1.25	1.75	-0.214844	0.116211	0.940430	-10.080000	13.160000	-3.430000	549.00	-0.09	-0.06
3.46	0.00	0.00	0.00	0.00	0.00	0.00	0.00	0.00	0.00	0.50	0.00	0.00	0.00	0.00	0.00	0.00	-0.649902	0.196289	1.581055	21.210001	-376.110016	73.639999	5.00	0.00	0.00	6.25	6.00	6.75	7.50	1.75	1.00	0.50	1.00	2.75	3.25	3.00	2.75	3.75	4.50	1.25	2.00	-0.242676	0.090332	0.976074	-8.820000	13.300000	-3.010000	556.00	-0.06	-0.06
3.47	0.25	0.00	0.00	0.00	0.00	0.00	0.00	0.00	0.00	0.50	0.00	0.00	0.00	0.00	0.00	0.00	-0.705078	0.175781	1.715820	18.620001	-382.130005	70.070000	8.00	0.00	0.00	5.50	5.75	6.25	6.75	1.50	1.00	0.50	1.25	3.25	3.75	3.50	3.25	4.25	5.00	1.25	2.25	-0.294922	0.081055	0.979980	-7.000000	13.720000	-2.660000	565.00	-0.03	-0.06
3.48	0.00	0.00	0.00	0.00	0.00	0.00	0.00	0.00	0.00	0.25	0.00	0.00	0.00	0.00	0.00	0.00	-0.775391	0.216309	1.845215	18.760000	-388.570007	67.550003	3.00	0.00	0.00	5.00	5.25	5.75	6.25	1.50	0.75	0.75	1.00	4.00	4.25	3.75	3.25	4.25	5.50	1.50	2.25	-0.260742	0.100586	0.960449	-6.020000	14.490000	-2.730000	566.00	-0.01	-0.05
3.49	0.00	0.00	0.00	0.00	0.00	0.00	0.00	0.00	0.00	0.50	0.00	0.25	0.00	0.00	0.00	0.00	-0.827148	0.217773	1.979980	22.049999	-395.709991	66.080002	8.00	0.00	0.00	3.75	4.50	5.00	5.50	1.25	0.50	0.75	1.00	5.00	4.75	4.25	3.75	4.50	6.00	1.75	2.50	-0.260742	0.107910	0.964355	-4.830000	18.340000	-3.780000	563.00	0.04	-0.05
3.50	0.00	0.00	0.00	0.00	0.00	0.00	0.00	0.00	0.00	0.25	0.00	0.00	0.00	0.00	0.00	0.00	-0.904785	0.229980	2.137695	28.070000	-403.899994	65.800003	3.00	0.00	0.00	3.50	4.00	4.75	5.25	1.25	0.50	0.75	1.00	5.50	5.50	5.00	4.00	4.75	7.25	2.25	2.75	-0.288086	0.090820	0.982422	-5.110000	21.000000	-4.480000	595.00	0.06	-0.04
3.51	0.00	0.00	0.00	0.00	0.00	0.00	0.00	0.00	0.00	0.25	0.00	0.00	0.00	0.00	0.00	0.00	-0.984863	0.223633	2.352051	35.139999	-413.000000	66.150002	3.00	0.00	0.00	3.00	2.75	3.75	4.75	1.00	0.50	1.00	1.00	6.50	6.75	6.50	4.50	5.00	8.00	2.50	3.25	-0.262207	0.098633	0.971680	-5.600000	24.360001	-5.320000	623.00	0.11	-0.03
3.52	0.25	0.00	0.00	0.00	0.00	0.00	0.00	0.00	0.00	0.50	0.00	0.00	0.00	0.00	0.00	0.00	-1.079102	0.244141	2.608887	42.490002	-422.660004	67.480003	8.00	0.00	0.00	2.25	2.50	3.25	3.25	1.00	0.25	1.00	1.00	7.75	8.00	7.75	5.00	5.25	8.75	2.75	4.00	-0.257324	0.092285	0.966309	-6.370000	28.770000	-6.020000	652.00	0.14	-0.03
3.53	0.25	0.00	0.00	0.00	0.00	0.00	0.00	0.00	0.00	0.25	0.00	0.00	0.00	0.00	0.00	0.00	-1.231934	0.282227	2.929688	46.410000	-432.529999	69.720001	5.00	0.00	0.00	2.00	2.00	2.50	2.25	0.75	0.00	1.50	1.00	8.75	8.75	8.25	5.50	5.50	9.50	3.25	5.00	-0.299316	0.103516	0.942871	-5.950000	33.459999	-6.580000	678.00	0.17	-0.02
3.54	0.00	0.00	0.00	0.00	0.00	0.00	0.00	0.00	0.00	0.50	0.00	0.00	0.00	0.00	0.00	0.00	-1.518555	0.375977	3.194824	45.920002	-442.330017	73.570000	5.00	0.00	0.00	1.75	1.75	1.75	2.25	0.75	0.00	1.50	0.75	9.50	9.50	8.75	7.00	5.50	11.00	3.75	5.50	-0.374512	0.131348	1.003906	-4.970000	38.150002	-8.260000	720.00	0.19	-0.02
3.55	0.00	0.00	0.00	0.00	0.00	0.00	0.00	0.00	0.00	0.00	0.00	0.00	0.00	0.00	0.00	0.00	-1.909668	0.356445	3.383789	52.290001	-452.899994	79.449997	0.00	0.00	0.00	1.75	1.00	1.25	1.50	0.25	0.00	1.75	1.00	10.75	10.25	9.00	7.50	5.75	12.00	4.00	6.00	-0.331543	0.081543	1.001953	-2.380000	45.220001	-8.400000	750.00	0.21	-0.01
3.56	0.00	0.00	0.00	0.00	0.00	0.00	0.00	0.00	0.00	0.25	0.00	0.00	0.00	0.00	0.00	0.00	-2.495605	0.304688	3.491211	68.879997	-461.510010	79.029999	3.00	0.00	0.00	1.00	1.00	1.00	0.75	0.25	0.00	2.00	0.75	11.75	10.75	9.50	8.00	6.00	13.75	5.00	6.50	-0.310547	0.084473	1.008789	0.560000	55.790001	-8.610000	790.00	0.24	-0.01
3.57	0.25	0.00	0.00	0.00	0.00	0.00	0.00	0.00	0.00	0.50	0.00	0.00	0.00	0.00	0.00	0.00	-3.063477	0.270020	3.312500	79.590004	-464.380005	70.000000	8.00	0.00	0.00	0.75	0.75	0.75	0.50	0.00	0.00	2.25	0.50	12.50	11.50	9.75	8.25	6.25	14.50	5.50	6.75	-0.312500	0.071777	1.027832	1.890000	73.290001	-7.910000	815.00	0.25	0.00
3.58	0.25	0.25	0.00	0.00	0.00	0.00	0.00	0.00	0.00	0.25	0.00	0.00	0.00	0.00	0.00	0.00	-3.474121	0.306152	2.822266	81.970001	-443.450012	53.060001	7.00	0.00	0.00	0.75	0.25	0.75	0.75	0.00	0.00	2.25	0.50	13.25	12.00	10.00	8.50	6.25	15.75	6.25	7.00	-0.352539	0.096191	0.982910	1.960000	89.389999	-7.560000	853.00	0.25	0.00
3.59	0.25	0.00	0.00	0.00	0.00	0.00	0.00	0.00	0.00	0.25	0.00	0.00	0.00	0.00	0.00	0.00	-3.839355	0.116211	1.655762	100.449997	-411.670013	28.420000	5.00	0.00	0.00	0.75	0.50	0.00	0.25	0.00	0.00	2.25	0.25	14.25	12.50	10.00	8.25	6.00	16.75	6.50	7.50	-0.356934	0.094238	0.999023	0.210000	101.919998	-8.260000	865.00	0.26	0.01
3.60	0.00	0.00	0.00	0.25	0.00	0.00	0.00	0.00	0.00	0.50	0.00	0.00	0.00	0.00	0.00	0.00	-4.312500	-0.267578	0.725098	176.680008	-364.910004	-2.870000	8.00	0.00	0.00	0.25	0.25	0.00	0.00	0.00	0.00	2.25	0.00	14.75	13.00	10.25	8.50	5.75	17.50	7.25	7.50	-0.375977	0.090332	1.038086	-2.520000	116.620003	-9.380000	880.00	0.27	0.02
3.61	0.00	0.00	0.00	0.00	0.00	0.00	0.00	0.00	0.00	0.25	0.00	0.00	0.00	0.00	0.00	0.00	-4.848633	-0.883301	0.070801	275.660004	-307.089996	-38.990002	3.00	0.00	0.00	0.25	0.00	0.00	0.00	0.00	0.00	2.25	0.00	15.50	13.25	10.00	8.50	5.50	18.25	7.50	7.50	-0.412598	0.107910	1.025391	-5.880000	132.789993	-10.570000	895.00	0.28	0.02
3.62	0.00	0.00	0.00	0.00	0.00	0.00	0.00	0.00	0.00	0.75	0.00	0.00	0.00	0.00	0.00	0.00	-6.530273	-2.180664	-1.025879	264.179993	-176.470001	-65.379997	8.00	0.00	0.00	0.00	0.00	0.00	0.00	0.00	0.00	2.00	0.00	15.75	13.75	10.00	8.25	5.00	19.00	7.75	7.75	-0.414551	0.078125	1.033691	-11.480000	152.110001	-11.900000	900.00	0.28	0.03
3.63	0.25	0.00	0.00	0.00	0.00	0.00	0.00	0.00	0.00	0.50	0.00	0.00	0.00	0.00	0.00	0.00	-6.037109	-2.385742	-1.399414	110.809998	-88.970001	-67.199997	8.00	0.00	0.00	0.00	0.00	0.00	0.00	0.00	0.00	2.00	0.00	16.00	14.25	10.00	8.00	5.00	19.75	7.75	8.00	-0.445801	0.052246	1.058105	-16.940001	173.740005	-11.620000	914.00	0.28	0.03
3.64	0.00	0.00	0.00	0.00	0.00	0.00	0.00	0.00	0.00	0.25	0.00	0.00	0.00	0.00	0.00	0.00	-4.999023	-1.798340	-1.055176	-77.139999	13.440001	-88.480003	3.00	0.00	0.00	0.00	0.00	0.00	0.00	0.00	0.00	1.75	0.00	16.00	14.25	9.75	7.75	4.25	20.50	8.25	8.00	-0.466797	0.031250	1.057617	-20.930000	195.649994	-8.680000	910.00	0.29	0.03
3.65	0.25	0.00	0.00	0.00	0.00	0.00	0.00	0.00	0.00	0.50	0.00	0.00	0.00	0.00	0.00	0.00	-4.020508	-0.815430	0.061523	-203.000000	105.279999	-107.870003	8.00	0.00	0.00	0.00	0.00	0.00	0.00	0.00	0.00	2.00	0.00	15.50	14.50	9.50	7.50	3.25	20.50	8.00	8.00	-0.529785	0.036621	1.085938	-24.080000	218.889999	-6.090000	893.00	0.29	0.04
3.66	1.25	1.50	0.50	0.50	0.00	0.00	0.00	0.00	0.00	0.25	0.00	0.00	0.00	0.00	0.00	0.00	0.991211	-0.825684	5.476562	-162.330002	397.459991	-135.029999	40.00	0.00	0.00	0.00	0.00	0.00	0.00	0.00	0.00	2.00	0.00	15.00	14.25	9.00	7.25	3.25	21.00	8.25	8.00	-0.577148	0.067383	1.142578	-28.210001	245.770004	-6.440000	883.00	0.29	0.04
3.67	3.25	5.00	1.00	1.75	0.00	0.00	0.00	0.00	0.00	0.00	0.00	0.00	0.00	0.00	0.00	0.00	0.395020	0.672852	-0.670898	-183.050003	207.619995	-138.529999	110.00	-0.37	-0.07	0.00	0.00	0.00	0.00	0.00	0.00	2.00	0.00	14.00	14.25	8.50	6.25	2.75	21.00	8.50	8.00	-0.673828	0.216797	1.334961	-38.849998	300.649994	-17.360001	852.00	0.29	0.04
3.68	6.75	9.25	1.50	2.75	0.00	0.00	0.00	0.00	0.00	0.00	0.00	0.00	0.00	0.00	0.00	0.00	0.055176	0.283691	-0.465332	-249.690002	148.889999	-122.290001	202.00	-0.38	-0.06	0.00	0.00	0.00	0.00	0.00	0.00	2.00	0.00	12.50	13.25	8.00	5.00	1.50	21.25	8.50	8.00	-0.673828	0.216797	1.334961	-38.849998	300.649994	-17.360001	795.00	0.30	0.05
3.69	11.50	16.00	2.50	4.00	0.00	0.00	0.00	0.00	0.00	0.00	0.00	0.00	0.00	0.00	0.00	0.00	-0.857910	0.640137	0.158203	-276.709991	259.209991	-93.940002	338.00	-0.38	-0.06	0.00	0.00	0.00	0.00	0.00	0.00	2.00	0.00	10.50	12.25	6.50	3.50	1.00	21.00	8.75	7.75	-1.186035	0.111816	1.773438	-59.920002	359.380005	-41.509998	722.00	0.30	0.06
