# time	left pressure 1[N/cm²]	left pressure 2[N/cm²]	left pressure 3[N/cm²]	left pressure 4[N/cm²]	left pressure 5[N/cm²]	left pressure 6[N/cm²]	left pressure 7[N/cm²]	left pressure 8[N/cm²]	left pressure 9[N/cm²]	left pressure 10[N/cm²]	left pressure 11[N/cm²]	left pressure 12[N/cm²]	left pressure 13[N/cm²]	left pressure 14[N/cm²]	left pressure 15[N/cm²]	left pressure 16[N/cm²]	left acceleration X[g]	left acceleration Y[g]	left acceleration Z[g]	left angular X[dps]	left angular Y[dps]	left angular Z[dps]	left total force[N]	left center of pressure X[%]	left center of pressure Y[%]	right pressure 1[N/cm²]	right pressure 2[N/cm²]	right pressure 3[N/cm²]	right pressure 4[N/cm²]	right pressure 5[N/cm²]	right pressure 6[N/cm²]	right pressure 7[N/cm²]	right pressure 8[N/cm²]	right pressure 9[N/cm²]	right pressure 10[N/cm²]	right pressure 11[N/cm²]	right pressure 12[N/cm²]	right pressure 13[N/cm²]	right pressure 14[N/cm²]	right pressure 15[N/cm²]	right pressure 16[N/cm²]	right acceleration X[g]	right acceleration Y[g]	right acceleration Z[g]	right angular X[dps]	right angular Y[dps]	right angular Z[dps]	right total force[N]	right center of pressure X[%]	right center of pressure Y[%]
0.00																										6.50	7.75	7.75	9.25	4.50	4.25	1.00	0.75	3.00	3.50	5.25	3.00	3.50	3.50	1.50	2.00	-0.146484	0.074707	0.977051	-2.520000	-2.870000	1.820000	698.00	-0.08	-0.07
0.01																										6.50	7.75	7.75	9.25	4.50	4.50	1.00	1.00	2.75	3.50	5.25	3.00	4.00	3.50	1.25	2.00	-0.152832	0.069336	0.979492	-2.520000	-3.010000	1.890000	703.00	-0.08	-0.07
0.02																										6.50	7.75	7.75	9.50	4.25	4.50	1.00	0.75	2.75	3.50	5.50	3.25	3.75	3.50	1.50	2.00	-0.145508	0.072754	0.977539	-2.520000	-2.940000	1.820000	705.00	-0.08	-0.07
0.03																										6.50	8.00	7.75	9.25	4.25	4.25	1.00	1.00	3.00	3.50	5.25	3.25	3.25	3.25	1.25	2.00	-0.146484	0.072266	0.981445	-2.590000	-3.150000	1.750000	697.00	-0.08	-0.07
0.04																										6.50	8.00	8.00	9.25	4.50	4.75	1.00	0.75	2.75	3.25	5.75	3.00	3.50	3.25	1.50	2.00	-0.145020	0.074219	0.987305	-2.660000	-3.080000	1.750000	706.00	-0.08	-0.07
0.05	0.75	1.00	0.75	1.50	0.50	0.00	1.25	0.25	0.25	0.00	0.00	0.00	0.25	0.75	0.00	0.25	-0.250488	0.051270	0.930664	-1.190000	6.090000	-1.190000	83.00	-0.11	0.00	7.00	8.00	7.75	9.50	4.25	4.75	1.00	0.75	2.75	3.25	5.50	3.25	3.50	3.25	1.25	1.75	-0.145996	0.066895	0.985840	-2.520000	-3.150000	1.820000	704.00	-0.09	-0.07
0.06	0.50	1.00	0.75	1.25	0.50	0.00	1.50	0.25	0.25	0.25	0.00	0.00	0.00	0.75	0.00	0.25	-0.252441	0.053223	0.926758	-0.980000	6.230000	-1.120000	82.00	-0.08	0.03	7.00	8.25	8.25	9.50	4.75	4.50	1.00	0.75	3.00	3.50	5.50	2.50	3.50	3.50	1.25	2.00	-0.145996	0.066895	0.985840	-2.520000	-3.150000	1.820000	716.00	-0.09	-0.06
0.07	0.50	1.50	0.50	1.25	0.50	0.00	1.50	0.25	0.50	0.00	0.00	0.00	0.25	0.50	0.00	0.25	-0.253418	0.044434	0.933594	-0.840000	6.300000	-1.190000	85.00	-0.09	0.01	7.00	8.25	8.25	9.75	4.75	4.50	1.00	1.00	2.75	3.25	5.75	3.00	3.50	3.25	1.25	2.00	-0.152832	0.069824	0.979980	-2.590000	-3.080000	1.960000	723.00	-0.09	-0.07
0.08																										7.25	8.25	8.25	9.75	4.75	4.75	1.00	1.00	2.75	3.00	5.25	3.00	3.50	3.25	1.25	2.00	-0.148438	0.076660	0.974121	-2.660000	-3.150000	1.960000	720.00	-0.10	-0.07
0.09	0.75	1.25	0.75	1.00	0.50	0.00	1.25	0.25	0.50	0.00	0.00	0.00	0.25	0.25	0.00	0.25	-0.257812	0.049805	0.938965	-0.420000	5.810000	-0.980000	79.00	-0.12	0.02	7.25	8.25	8.25	9.50	5.00	4.25	1.00	1.00	3.00	3.50	5.25	2.75	3.50	3.25	1.25	2.00	-0.148926	0.071777	0.985840	-2.660000	-3.290000	1.890000	720.00	-0.09	-0.06
0.10	0.75	1.25	2.00	0.75	0.75	0.00	1.25	0.00	0.75	0.00	0.00	0.00	0.25	0.25	0.00	0.25	-0.257812	0.049805	0.938965	-0.420000	5.810000	-0.980000	92.00	-0.12	0.06	7.25	8.50	8.25	9.75	4.75	4.75	1.00	1.00	2.50	3.25	5.25	2.25	3.50	3.25	1.25	1.75	-0.148926	0.068359	0.982910	-2.660000	-3.290000	1.820000	712.00	-0.10	-0.07
0.11	0.50	1.50	0.75	1.25	0.50	0.00	1.50	0.00	0.25	0.00	0.00	0.00	0.25	0.25	0.00	0.25	-0.257812	0.048340	0.942383	-0.280000	5.810000	-1.050000	78.00	-0.13	0.02	7.75	8.50	8.50	9.75	4.75	4.50	1.00	0.75	2.75	3.00	5.00	2.50	3.25	3.00	1.25	1.75	-0.150391	0.069824	0.980469	-2.730000	-3.360000	1.890000	710.00	-0.11	-0.06
0.12	0.75	1.00	0.75	1.25	0.75	0.00	1.50	0.25	0.50	0.25	0.00	0.00	0.25	0.25	0.00	0.25	-0.253418	0.050293	0.936523	-0.140000	6.020000	-1.050000	89.00	-0.09	0.03	7.50	8.75	8.25	9.75	4.75	4.50	1.00	1.00	2.75	3.50	4.75	2.75	3.25	3.00	1.25	2.00	-0.145996	0.071289	0.983887	-2.800000	-3.220000	1.890000	718.00	-0.10	-0.07
0.13	1.00	1.25	1.00	1.25	0.75	0.00	1.50	0.25	0.50	0.25	0.00	0.00	0.25	0.25	0.00	0.25	-0.256348	0.051758	0.936523	-0.070000	6.020000	-0.980000	96.00	-0.12	0.03	7.50	8.75	8.25	9.75	4.75	4.50	1.00	0.75	3.00	3.00	5.00	2.50	3.00	3.25	1.25	1.75	-0.149902	0.068359	0.983887	-2.800000	-3.080000	1.750000	710.00	-0.10	-0.06
0.14	0.75	1.50	0.75	1.50	0.50	0.00	1.50	0.25	0.50	0.00	0.00	0.00	0.25	0.50	0.00	0.00	-0.254395	0.048828	0.940430	-0.070000	6.020000	-1.050000	91.00	-0.12	0.02	8.00	9.00	8.75	10.00	5.00	4.75	1.00	1.00	3.00	3.00	4.75	2.75	3.25	3.25	1.50	1.75	-0.150879	0.070801	0.981934	-2.800000	-3.150000	1.750000	740.00	-0.11	-0.06
0.15	0.75	1.00	0.75	1.25	0.50	0.00	1.50	0.25	0.25	0.00	0.00	0.00	0.25	0.25	0.00	0.25	-0.254883	0.050293	0.939941	-0.140000	6.230000	-0.980000	80.00	-0.12	0.01	8.00	8.75	8.50	10.00	4.50	4.25	1.00	0.75	2.75	3.00	4.75	2.50	3.25	3.25	1.25	1.75	-0.145508	0.071289	0.985352	-2.730000	-3.080000	1.750000	712.00	-0.11	-0.06
0.16	0.75	1.25	1.00	1.00	0.50	0.25	1.50	0.25	0.25	0.00	0.00	0.00	0.25	0.25	0.00	0.25	-0.247559	0.050781	0.938965	-0.350000	6.370000	-0.980000	85.00	-0.13	0.01	7.75	9.00	8.50	10.00	5.00	4.25	1.00	0.75	2.50	2.75	4.75	2.25	3.00	3.00	1.25	1.75	-0.147461	0.072754	0.983887	-2.870000	-3.080000	1.610000	704.00	-0.12	-0.06
0.17	1.00	1.75	0.75	1.50	0.50	0.00	1.50	0.00	0.25	0.00	0.00	0.00	0.25	0.50	0.00	0.25	-0.253418	0.049805	0.939941	-0.770000	6.090000	-1.190000	91.00	-0.15	0.02	8.00	8.75	8.50	10.00	5.00	4.50	1.00	0.75	2.75	3.00	4.75	2.50	2.75	3.25	1.50	1.75	-0.145996	0.068359	0.983398	-2.870000	-3.150000	1.680000	718.00	-0.11	-0.06
0.18	0.75	1.25	0.75	1.25	0.50	0.00	1.50	0.00	0.25	0.00	0.00	0.00	0.25	0.25	0.00	0.25	-0.252441	0.049805	0.939453	-0.980000	5.950000	-1.330000	78.00	-0.13	0.03	8.00	9.25	8.50	10.00	5.00	4.25	1.00	0.75	2.75	3.00	4.50	2.25	3.00	3.00	1.00	1.75	-0.149414	0.070801	0.977051	-2.940000	-3.150000	1.750000	710.00	-0.12	-0.06
0.19	0.75	1.50	0.75	1.25	0.50	0.00	1.50	0.25	0.00	0.00	0.00	0.00	0.25	0.50	0.00	0.25	-0.253906	0.054688	0.937988	-1.050000	6.160000	-1.400000	83.00	-0.14	-0.00	8.00	9.25	8.50	10.00	5.00	4.25	1.00	0.50	2.50	3.00	4.75	2.25	3.00	3.00	1.00	1.75	-0.146973	0.068848	0.980957	-2.870000	-3.150000	1.610000	705.00	-0.12	-0.06
0.20	1.00	1.50	0.75	1.50	0.50	0.00	1.50	0.25	0.25	0.25	0.00	0.00	0.25	0.25	0.00	0.25	-0.252441	0.052734	0.940918	-1.190000	6.020000	-1.190000	93.00	-0.14	0.00	8.00	9.25	8.75	10.25	5.00	4.25	1.00	0.75	2.75	2.75	4.50	2.25	3.25	3.00	1.25	1.75	-0.147949	0.069336	0.983887	-2.940000	-3.290000	1.680000	718.00	-0.12	-0.06
0.21	0.50	1.50	0.75	1.50	0.50	0.00	1.50	0.25	0.25	0.00	0.00	0.00	0.25	0.50	0.00	0.25	-0.250000	0.054688	0.941406	-1.260000	6.160000	-1.330000	87.00	-0.12	-0.00	8.25	9.25	8.75	10.25	5.00	4.50	1.00	0.75	2.75	2.75	4.25	2.00	2.75	3.00	1.00	1.50	-0.145508	0.071777	0.984375	-2.940000	-3.360000	1.610000	709.00	-0.13	-0.06
0.22	0.75	1.50	1.00	1.50	0.50	0.00	1.50	0.00	0.25	0.00	0.00	0.00	0.50	0.25	0.00	0.25	-0.251953	0.048340	0.940918	-1.260000	6.230000	-1.400000	88.00	-0.14	0.01	8.25	9.25	8.75	10.25	5.25	4.50	1.00	0.75	3.00	3.00	4.50	2.25	3.00	3.00	1.00	1.50	-0.147949	0.074219	0.982910	-2.870000	-3.290000	1.680000	725.00	-0.12	-0.06
0.23	0.75	1.00	0.75	1.25	0.50	0.00	1.50	0.00	0.25	0.00	0.00	0.00	0.25	0.25	0.00	0.25	-0.245605	0.054688	0.934570	-1.400000	6.370000	-1.470000	76.00	-0.12	0.04	8.25	9.00	9.00	10.25	5.00	4.00	1.00	0.75	2.75	2.50	4.50	2.25	2.75	3.00	1.00	1.75	-0.151367	0.073242	0.988281	-2.870000	-3.290000	1.680000	708.00	-0.12	-0.06
0.24	1.00	1.25	0.75	1.25	0.50	0.00	1.50	0.25	0.25	0.00	0.00	0.00	0.25	0.50	0.00	0.00	-0.252441	0.054199	0.943359	-1.540000	6.440000	-1.400000	86.00	-0.13	0.02	8.25	9.00	9.00	10.00	5.00	4.25	1.00	0.75	2.75	3.00	4.00	2.25	3.00	2.75	1.25	1.75	-0.150391	0.069824	0.986328	-3.010000	-3.150000	1.610000	711.00	-0.12	-0.06
0.25	0.75	1.25	1.25	1.50	0.75	0.00	1.50	0.25	0.25	0.00	0.00	0.00	0.25	0.75	0.00	0.25	-0.247070	0.056152	0.940430	-1.750000	6.580000	-1.540000	98.00	-0.12	0.02	8.25	9.50	8.75	10.00	5.25	4.50	1.00	0.50	2.75	2.75	4.25	2.00	3.00	3.25	1.00	1.75	-0.150879	0.068848	0.985840	-2.870000	-3.220000	1.680000	713.00	-0.12	-0.06
0.26	0.75	1.50	0.75	1.50	0.50	0.00	1.50	0.25	0.50	0.00	0.00	0.00	0.25	0.00	0.25	0.25	-0.249512	0.051758	0.944824	-1.540000	6.160000	-1.400000	91.00	-0.12	0.00	8.50	9.25	8.75	10.25	5.25	4.25	1.00	0.75	2.50	2.75	4.25	2.00	2.75	3.00	1.25	1.75	-0.150879	0.067383	0.985352	-2.940000	-3.220000	1.750000	713.00	-0.13	-0.06
0.27	0.75	1.00	0.75	1.50	0.75	0.25	1.50	0.25	0.50	0.00	0.00	0.00	0.25	0.50	0.00	0.00	-0.250000	0.052734	0.943848	-1.540000	6.160000	-1.400000	92.00	-0.11	0.02	8.50	9.25	8.75	10.00	5.25	4.25	1.00	0.50	2.50	2.75	4.50	2.25	2.75	3.00	1.25	1.75	-0.145996	0.075195	0.981934	-2.870000	-3.150000	1.750000	711.00	-0.12	-0.06
0.28	0.75	1.25	0.75	1.25	0.50	0.25	1.75	0.00	0.50	0.00	0.00	0.00	0.25	0.25	0.00	0.25	-0.253906	0.054688	0.937500	-1.540000	6.440000	-1.540000	88.00	-0.11	0.04	8.25	9.00	8.75	10.25	5.25	4.00	1.00	0.75	3.00	3.00	4.25	1.75	2.75	3.25	1.25	1.50	-0.144043	0.066895	0.977539	-2.870000	-3.150000	1.750000	712.00	-0.12	-0.05
0.29	0.75	1.00	1.00	1.50	0.50	0.00	1.50	0.00	0.25	0.00	0.00	0.00	0.50	0.25	0.00	0.25	-0.251953	0.053223	0.938477	-1.330000	6.090000	-1.330000	84.00	-0.13	0.02	8.75	9.50	8.75	10.25	5.25	4.00	1.00	0.75	2.50	3.00	4.25	2.00	2.75	3.00	1.25	1.75	-0.143555	0.069824	0.985840	-2.870000	-3.080000	1.680000	717.00	-0.13	-0.06
0.30	0.75	1.25	0.75	1.50	0.75	0.25	1.50	0.25	0.25	0.00	0.00	0.00	0.25	0.50	0.00	0.25	-0.250977	0.052734	0.943848	-1.120000	5.810000	-1.190000	93.00	-0.12	-0.00	8.50	9.50	9.00	10.25	5.00	4.00	1.00	0.75	2.75	2.75	4.25	2.00	2.75	3.00	1.00	1.75	-0.148438	0.071777	0.982422	-2.940000	-3.080000	1.750000	713.00	-0.13	-0.06
0.31	1.00	1.00	0.75	1.25	0.50	0.00	1.50	0.25	0.00	0.25	0.00	0.00	0.25	0.25	0.00	0.25	-0.255859	0.052246	0.939941	-1.120000	5.880000	-1.190000	82.00	-0.13	0.01	8.50	9.50	8.75	10.00	5.25	4.00	1.00	0.75	2.75	2.75	4.25	2.00	2.75	3.00	1.25	1.75	-0.145020	0.067383	0.974121	-2.940000	-3.080000	1.680000	713.00	-0.12	-0.06
0.32	1.00	1.50	0.75	1.25	0.50	0.25	1.50	0.00	0.25	0.00	0.00	0.00	0.50	1.00	0.00	0.25	-0.253418	0.052246	0.940430	-1.260000	6.230000	-1.400000	95.00	-0.10	0.02	8.25	9.50	9.00	10.25	5.25	3.75	1.00	0.75	2.75	2.75	4.00	2.00	2.75	3.00	1.25	1.75	-0.146484	0.075684	0.987305	-2.940000	-3.010000	1.820000	710.00	-0.13	-0.06
0.33	0.75	1.00	0.75	1.25	0.50	0.00	1.50	0.00	0.25	0.00	0.00	0.00	0.25	0.50	0.00	0.25	-0.254883	0.045410	0.948730	-1.190000	6.370000	-1.400000	78.00	-0.11	0.04	8.50	9.50	9.00	10.25	5.25	4.00	1.00	0.75	2.75	2.75	4.00	2.00	2.75	3.00	1.00	1.75	-0.151367	0.071777	0.982910	-2.870000	-3.080000	1.890000	713.00	-0.13	-0.06
0.34	0.75	1.25	1.25	1.25	0.75	0.00	1.75	0.25	0.25	0.25	0.00	0.00	0.25	0.50	0.00	0.25	-0.253418	0.051270	0.942383	-1.120000	6.230000	-1.470000	99.00	-0.11	0.03	8.50	9.50	9.00	10.25	5.25	4.00	1.00	0.50	3.00	2.75	4.00	2.00	2.50	3.00	1.25	1.75	-0.153320	0.067383	0.980957	-2.940000	-3.080000	1.890000	713.00	-0.13	-0.05
0.35	0.75	1.50	0.75	1.50	0.50	0.25	1.50	0.25	0.25	0.25	0.00	0.00	0.25	0.50	0.00	0.25	-0.252441	0.047363	0.940918	-1.190000	6.160000	-1.330000	95.00	-0.12	-0.00	8.50	9.50	9.00	10.25	5.25	4.00	1.00	0.75	2.75	2.50	4.00	1.75	2.50	3.00	1.25	1.75	-0.150879	0.071777	0.983887	-3.010000	-3.290000	1.820000	708.00	-0.13	-0.05
0.36	0.75	1.25	0.75	1.25	0.50	0.25	1.50	0.25	0.25	0.00	0.00	0.00	0.25	0.50	0.00	0.25	-0.255371	0.054199	0.935547	-1.120000	6.300000	-1.330000	87.00	-0.11	0.01	8.50	9.50	9.00	10.25	5.25	4.00	1.00	0.50	3.00	2.75	4.25	2.00	2.25	3.00	1.00	1.75	-0.149414	0.069336	0.982910	-3.080000	-3.290000	1.750000	711.00	-0.13	-0.05
0.37	0.75	1.00	0.75	1.75	0.50	0.00	1.50	0.00	0.25	0.00	0.00	0.00	0.25	0.25	0.00	0.00	-0.253906	0.050293	0.936035	-1.120000	6.160000	-1.330000	80.00	-0.14	0.02	8.75	9.25	9.00	10.25	5.25	3.75	1.00	0.75	2.75	2.50	3.75	1.75	2.25	3.00	1.25	1.75	-0.153320	0.067383	0.984863	-2.940000	-3.220000	1.750000	701.00	-0.13	-0.05
0.38	1.00	1.00	0.75	1.50	0.75	0.25	1.75	0.25	0.75	0.00	0.00	0.00	0.50	0.25	0.00	0.25	-0.250488	0.046875	0.938477	-0.910000	5.950000	-1.400000	103.00	-0.09	0.02	8.75	9.50	9.00	10.25	5.00	4.00	1.00	0.50	2.75	2.50	3.75	1.50	2.25	3.00	1.25	1.50	-0.148926	0.071777	0.983398	-3.010000	-3.150000	1.750000	695.00	-0.14	-0.05
0.39	1.00	1.25	1.00	1.50	0.75	0.25	1.50	0.00	0.00	0.00	0.00	0.00	0.25	0.50	0.00	0.25	-0.249512	0.054688	0.938477	-0.980000	5.880000	-1.400000	91.00	-0.15	0.01	9.00	9.50	9.00	10.25	5.25	4.00	1.00	0.50	2.75	2.50	3.50	1.75	2.25	3.25	1.00	1.75	-0.147949	0.070801	0.982910	-3.010000	-3.080000	1.680000	702.00	-0.14	-0.05
0.40	0.75	1.25	1.25	1.75	0.50	0.25	1.75	0.25	0.25	0.00	0.00	0.00	0.50	0.25	0.00	0.25	-0.250488	0.053711	0.940430	-1.050000	5.880000	-1.260000	102.00	-0.13	-0.01	9.00	10.00	9.00	10.50	5.25	3.75	1.00	0.50	2.75	2.50	3.75	1.50	2.25	3.00	1.25	1.50	-0.145508	0.066406	0.979980	-3.080000	-3.010000	1.820000	705.00	-0.14	-0.05
0.41	0.75	1.50	1.00	1.50	0.50	0.00	1.75	0.00	0.75	0.25	0.00	0.00	0.50	0.25	0.00	0.25	-0.249023	0.052734	0.940430	-0.840000	5.600000	-1.190000	101.00	-0.10	0.03	9.25	9.75	9.00	10.50	5.25	3.75	1.00	0.50	2.75	2.50	3.50	1.25	2.50	3.00	1.00	1.50	-0.149414	0.071289	0.985352	-3.080000	-3.080000	1.820000	700.00	-0.14	-0.05
0.42	1.00	1.00	1.00	1.25	0.75	0.00	1.75	0.00	0.00	0.25	0.00	0.00	0.50	0.25	0.00	0.25	-0.255371	0.059082	0.942871	-0.770000	5.670000	-1.190000	90.00	-0.12	0.03	9.25	10.00	9.25	10.50	5.25	3.75	1.00	0.50	2.75	2.50	3.25	1.75	2.25	2.75	1.00	1.75	-0.151855	0.068848	0.983887	-3.010000	-3.010000	1.820000	705.00	-0.14	-0.05
0.43	1.25	1.25	1.00	1.25	0.75	0.00	1.50	0.00	0.25	0.00	0.00	0.00	0.50	0.50	0.00	0.25	-0.250000	0.056152	0.939453	-0.700000	5.600000	-1.190000	93.00	-0.13	0.03	9.25	10.00	9.25	10.50	5.25	3.75	1.00	0.50	2.50	2.25	3.25	1.25	2.25	3.00	1.00	1.50	-0.145508	0.064453	0.979004	-3.080000	-2.940000	1.820000	694.00	-0.15	-0.05
0.44	1.00	1.75	1.00	1.75	0.75	0.25	1.75	0.00	0.25	0.00	0.00	0.00	0.50	0.50	0.00	0.25	-0.250488	0.052246	0.941406	-0.630000	5.670000	-1.260000	107.00	-0.14	0.01	9.50	10.00	9.25	10.50	5.25	3.75	1.00	0.50	2.75	2.50	3.25	1.25	2.50	2.75	1.00	1.50	-0.152344	0.073730	0.979492	-3.150000	-2.870000	1.750000	703.00	-0.15	-0.05
0.45	1.00	2.00	1.00	1.75	0.50	0.25	1.75	0.25	0.25	0.00	0.00	0.00	0.25	0.25	0.00	0.25	-0.250488	0.051758	0.941895	-0.700000	5.810000	-1.120000	107.00	-0.16	-0.01	9.50	10.00	9.25	10.50	5.25	3.75	1.00	0.50	2.25	2.00	3.25	1.25	2.25	2.75	1.00	1.25	-0.147949	0.065430	0.988770	-3.080000	-2.800000	1.750000	688.00	-0.16	-0.05
0.46	1.00	1.50	0.75	1.75	0.75	0.00	1.75	0.00	0.25	0.00	0.00	0.00	0.25	0.50	0.00	0.25	-0.250488	0.049805	0.942871	-0.980000	5.810000	-1.330000	98.00	-0.13	0.02	9.50	10.50	9.25	10.50	5.25	4.00	1.00	0.50	2.50	2.25	2.75	1.25	2.00	2.75	1.00	1.25	-0.148438	0.065430	0.979004	-3.150000	-2.730000	1.680000	693.00	-0.16	-0.05
0.47	0.75	1.50	1.00	1.75	0.50	0.25	1.75	0.25	0.25	0.50	0.00	0.00	0.25	0.50	0.00	0.25	-0.251953	0.056152	0.945801	-1.120000	5.530000	-1.260000	107.00	-0.11	0.00	10.50	10.50	9.50	10.75	5.25	3.75	1.00	0.50	2.50	2.00	2.75	1.25	1.75	2.75	1.00	1.50	-0.144531	0.062500	0.983887	-3.220000	-2.800000	1.750000	703.00	-0.17	-0.04
0.48	1.00	1.50	0.75	1.50	0.50	0.25	1.75	0.25	0.00	0.25	0.00	0.00	0.25	0.25	0.00	0.25	-0.243164	0.050781	0.942871	-1.120000	5.390000	-1.120000	96.00	-0.14	-0.00	10.50	10.75	9.50	11.00	5.25	3.75	1.00	0.75	2.75	2.00	2.75	1.25	2.00	2.75	1.00	1.25	-0.147949	0.067871	0.985840	-3.430000	-2.800000	1.750000	716.00	-0.16	-0.05
0.49	1.25	1.00	1.00	1.75	1.00	0.25	1.75	0.00	0.25	0.00	0.00	0.00	0.25	0.50	0.00	0.25	-0.252930	0.048828	0.939941	-1.190000	5.740000	-1.190000	104.00	-0.13	0.03	10.75	10.75	9.75	11.00	5.25	3.50	1.00	0.50	2.75	2.00	2.50	0.75	1.75	2.75	0.75	1.25	-0.148926	0.062988	0.983398	-3.360000	-2.730000	1.750000	702.00	-0.17	-0.04
0.50	0.75	1.50	1.00	1.50	0.50	0.00	1.75	0.00	0.25	0.00	0.00	0.00	0.25	0.50	0.00	0.25	-0.245605	0.055176	0.943359	-1.120000	5.950000	-1.260000	92.00	-0.13	0.03	10.75	10.75	9.50	11.00	5.25	3.75	1.00	0.25	2.50	2.00	2.25	1.00	1.75	2.50	0.75	1.25	-0.148926	0.072754	0.981445	-3.500000	-2.800000	1.680000	693.00	-0.18	-0.04
0.51	1.00	1.50	1.00	1.75	0.75	0.25	1.75	0.00	0.00	0.00	0.00	0.00	0.50	0.25	0.00	0.25	-0.248047	0.056152	0.941406	-1.120000	5.530000	-1.260000	100.00	-0.16	-0.00	11.50	11.25	9.75	11.00	5.25	3.50	1.00	0.50	2.50	1.75	2.25	0.75	2.00	2.25	0.75	1.00	-0.148926	0.063965	0.981445	-3.640000	-2.870000	1.680000	703.00	-0.19	-0.04
0.52	1.00	1.25	1.00	1.50	0.75	0.00	1.75	0.00	0.00	0.00	0.00	0.00	0.25	0.50	0.00	0.25	-0.248047	0.054688	0.943359	-1.120000	5.460000	-1.190000	92.00	-0.14	0.03	11.50	11.25	10.00	11.00	5.00	3.50	1.00	0.25	2.25	1.75	2.25	1.00	1.50	2.25	0.75	1.00	-0.145508	0.065918	0.984375	-3.710000	-2.940000	1.680000	694.00	-0.19	-0.04
0.53	1.00	1.00	1.00	1.25	0.75	0.00	1.75	0.25	0.00	0.00	0.00	0.00	0.50	0.75	0.00	0.25	-0.251953	0.052246	0.939453	-1.190000	5.740000	-1.260000	95.00	-0.11	0.02	11.75	11.25	10.00	11.00	5.25	3.50	1.00	0.25	2.25	1.75	2.25	0.75	1.75	2.25	0.75	1.00	-0.146484	0.068848	0.979492	-3.710000	-3.080000	1.540000	699.00	-0.19	-0.04
0.54	0.75	1.50	0.75	1.25	0.75	0.00	1.75	0.00	0.25	0.00	0.00	0.00	0.50	0.50	0.00	0.25	-0.248535	0.053711	0.942383	-1.120000	6.020000	-1.400000	92.00	-0.11	0.03	12.00	11.50	10.25	11.25	5.25	3.25	1.00	0.25	2.75	1.75	2.00	0.75	1.25	2.25	0.75	0.75	-0.147461	0.064453	0.975586	-3.780000	-2.940000	1.540000	705.00	-0.19	-0.03
0.55	0.75	1.50	1.00	1.50	0.75	0.00	1.75	0.00	0.00	0.00	0.00	0.00	0.50	0.25	0.00	0.25	-0.250000	0.050781	0.940918	-1.260000	6.230000	-1.400000	92.00	-0.15	0.01	12.00	11.50	10.25	11.25	5.25	3.50	1.00	0.50	2.00	1.75	2.00	0.50	1.50	2.25	0.50	0.75	-0.145020	0.066406	0.979004	-3.710000	-2.940000	1.610000	698.00	-0.20	-0.04
0.56	0.75	1.50	1.00	1.50	0.75	0.25	1.75	0.25	0.25	0.00	0.00	0.00	0.25	0.00	0.00	0.25	-0.250000	0.054688	0.946777	-1.470000	6.370000	-1.470000	97.00	-0.15	0.00	12.75	11.50	10.25	11.25	5.25	3.50	1.00	0.50	2.25	1.75	2.00	0.50	1.25	2.00	0.50	0.75	-0.154785	0.065918	0.981445	-3.780000	-2.800000	1.540000	705.00	-0.21	-0.04
0.57	1.00	1.25	1.00	1.75	0.50	0.25	1.75	0.25	0.50	0.00	0.00	0.00	0.50	0.25	0.00	0.25	-0.248047	0.058105	0.945312	-1.610000	6.510000	-1.470000	105.00	-0.12	0.00	13.00	12.00	10.25	11.50	5.25	3.00	1.00	0.50	2.50	1.75	1.75	0.50	1.50	2.00	0.50	0.50	-0.145996	0.067383	0.979004	-3.570000	-2.800000	1.400000	711.00	-0.21	-0.03
0.58	1.25	2.25	0.75	2.00	0.75	0.00	1.75	0.00	0.25	0.00	0.00	0.00	0.25	0.25	0.00	0.25	-0.244141	0.052734	0.942383	-1.750000	6.720000	-1.470000	108.00	-0.17	0.01	13.00	12.25	10.25	11.50	5.25	3.50	1.00	0.25	2.50	1.75	2.00	0.50	1.25	2.00	0.25	0.50	-0.150879	0.066406	0.984375	-3.570000	-2.660000	1.610000	713.00	-0.21	-0.03
0.59	1.00	1.50	1.00	1.75	0.75	0.00	1.75	0.25	0.25	0.25	0.00	0.00	0.25	0.25	0.00	0.25	-0.246582	0.052246	0.945801	-1.890000	6.860000	-1.610000	105.00	-0.14	0.01	13.75	12.50	10.75	11.50	5.25	3.25	1.00	0.25	2.25	1.50	1.75	0.25	1.00	1.75	0.50	0.50	-0.150391	0.064941	0.982910	-3.640000	-2.380000	1.610000	713.00	-0.22	-0.03
0.60	1.25	1.25	1.00	1.75	0.50	0.25	1.75	0.00	0.25	0.00	0.00	0.00	0.25	0.25	0.00	0.25	-0.247559	0.055176	0.943848	-1.750000	6.650000	-1.400000	98.00	-0.15	0.02	13.50	12.00	10.50	11.75	5.50	3.00	1.00	0.50	2.75	1.75	1.50	0.50	1.00	1.75	0.50	0.50	-0.148438	0.062988	0.982910	-3.710000	-2.380000	1.540000	719.00	-0.21	-0.03
0.61	1.25	1.25	1.00	1.75	0.75	0.00	1.75	0.00	0.50	0.00	0.00	0.00	0.25	0.25	0.00	0.25	-0.252441	0.052734	0.950195	-1.680000	6.650000	-1.470000	102.00	-0.14	0.04	14.25	13.00	10.75	11.75	5.25	3.25	1.00	0.25	2.25	1.75	1.50	0.50	1.25	1.50	0.00	0.25	-0.145996	0.062500	0.982910	-3.710000	-2.310000	1.540000	722.00	-0.23	-0.03
0.62	0.75	1.50	1.00	1.25	0.50	0.00	1.75	0.00	0.25	0.00	0.00	0.00	0.50	0.50	0.00	0.25	-0.242188	0.052246	0.945312	-1.540000	6.720000	-1.470000	92.00	-0.11	0.03	14.50	13.00	10.75	11.50	5.25	3.25	1.00	0.25	2.25	1.50	1.50	0.50	0.75	1.50	0.25	0.25	-0.142090	0.065918	0.981934	-3.780000	-2.310000	1.400000	717.00	-0.23	-0.03
0.63	1.00	1.50	1.00	1.50	0.50	0.25	1.75	0.00	0.25	0.00	0.00	0.00	0.25	0.00	0.00	0.25	-0.250488	0.057617	0.937988	-1.470000	6.720000	-1.330000	93.00	-0.16	0.02	14.75	13.25	10.75	12.00	5.50	3.00	1.00	0.25	2.50	1.75	1.50	0.50	0.75	1.25	0.25	0.25	-0.142578	0.065430	0.982422	-3.780000	-2.380000	1.470000	731.00	-0.23	-0.03
0.64	1.00	1.75	1.00	1.25	0.75	0.25	1.75	0.25	0.25	0.00	0.00	0.00	0.25	0.50	0.00	0.25	-0.245117	0.053711	0.944336	-1.470000	6.790000	-1.330000	104.00	-0.13	0.01	15.25	13.00	11.00	12.00	5.25	2.75	1.00	0.25	2.50	1.75	1.50	0.50	0.75	1.50	0.25	0.25	-0.145020	0.066406	0.982422	-3.710000	-2.660000	1.470000	734.00	-0.23	-0.03
0.65	1.00	1.50	0.75	1.75	0.75	0.25	1.75	0.00	0.25	0.00	0.00	0.00	0.00	0.75	0.00	0.25	-0.252441	0.058594	0.936523	-1.470000	6.930000	-1.330000	100.00	-0.13	0.03	15.00	13.50	11.00	12.00	5.25	3.25	1.00	0.25	2.25	1.75	1.25	0.25	1.00	1.25	0.25	0.25	-0.143555	0.064941	0.980957	-3.570000	-2.940000	1.610000	733.00	-0.24	-0.03
0.66	1.00	1.50	1.00	1.75	0.75	0.00	1.75	0.00	0.50	0.00	0.00	0.00	0.25	0.25	0.00	0.50	-0.246582	0.055176	0.945312	-1.470000	6.860000	-1.400000	103.00	-0.13	0.03	15.00	13.50	11.00	11.75	5.50	3.00	1.00	0.00	2.25	1.75	1.50	0.25	0.75	1.25	0.25	0.25	-0.144043	0.063477	0.975586	-3.430000	-3.150000	1.540000	726.00	-0.24	-0.03
0.67	1.50	1.50	0.75	1.25	0.75	0.25	1.75	0.00	0.25	0.00	0.00	0.00	0.25	0.50	0.00	0.25	-0.250488	0.056641	0.947754	-1.470000	7.070000	-1.400000	100.00	-0.14	0.03	15.25	13.75	11.00	11.75	5.50	3.00	1.00	0.50	2.50	1.75	1.50	0.25	1.00	1.25	0.25	0.25	-0.150391	0.062012	0.980957	-3.290000	-3.080000	1.540000	744.00	-0.23	-0.03
0.68	1.00	1.50	0.75	1.75	0.75	0.25	1.75	0.25	0.50	0.00	0.00	0.00	0.50	0.50	0.00	0.25	-0.249023	0.059082	0.945801	-1.400000	7.140000	-1.400000	109.00	-0.11	0.00	15.50	13.75	11.25	11.75	5.25	3.00	1.00	0.25	2.25	1.50	1.50	0.50	0.75	1.25	0.25	0.25	-0.152344	0.063965	0.983887	-3.220000	-3.150000	1.470000	738.00	-0.24	-0.03
0.69	1.00	1.25	1.00	1.50	0.75	0.00	1.75	0.25	0.25	0.00	0.00	0.00	0.25	0.25	0.00	0.25	-0.248535	0.054199	0.945312	-1.470000	7.140000	-1.400000	97.00	-0.13	0.02	15.75	13.75	11.25	11.75	5.50	2.75	1.00	0.25	2.00	1.50	1.25	0.25	0.75	1.25	0.25	0.25	-0.149902	0.063477	0.986328	-3.220000	-3.080000	1.540000	732.00	-0.24	-0.03
0.70	1.25	1.25	1.00	1.75	0.75	0.25	1.75	0.00	0.25	0.00	0.00	0.00	0.25	0.50	0.00	0.25	-0.249023	0.057129	0.948242	-1.470000	7.350000	-1.540000	103.00	-0.14	0.03	15.50	14.00	11.25	11.75	5.50	3.25	1.00	0.25	2.50	1.75	1.50	0.25	0.75	1.25	0.25	0.25	-0.149414	0.063965	0.976074	-3.080000	-3.150000	1.680000	749.00	-0.24	-0.03
0.71	1.00	1.25	0.75	1.50	0.75	0.00	1.75	0.00	0.50	0.00	0.00	0.00	0.00	0.50	0.00	0.25	-0.247559	0.052246	0.942871	-1.470000	7.770000	-1.680000	94.00	-0.12	0.06	16.00	13.75	11.25	11.75	5.50	2.75	1.00	0.25	2.50	1.75	1.50	0.25	0.75	1.00	0.00	0.00	-0.152344	0.059570	0.989258	-2.870000	-3.080000	1.750000	740.00	-0.24	-0.02
0.72	1.00	1.50	1.00	1.50	0.50	0.25	1.75	0.00	0.25	0.00	0.00	0.00	0.25	0.25	0.00	0.25	-0.241699	0.054199	0.943848	-1.470000	7.560000	-1.400000	95.00	-0.15	0.02	16.00	14.25	11.25	12.00	5.50	3.00	1.00	0.00	2.25	2.00	1.50	0.50	0.50	1.00	0.25	0.00	-0.151367	0.062988	0.980469	-2.870000	-3.080000	1.750000	749.00	-0.24	-0.02
0.73	1.00	1.50	0.75	1.50	0.50	0.00	1.75	0.25	0.00	0.00	0.00	0.00	0.25	0.25	0.00	0.00	-0.249512	0.053223	0.946777	-1.400000	7.560000	-1.400000	89.00	-0.16	0.01	15.75	14.00	11.25	12.00	5.50	3.00	1.00	0.00	2.50	1.75	1.50	0.25	0.50	0.75	0.00	0.00	-0.145996	0.062988	0.978516	-2.520000	-2.870000	1.890000	737.00	-0.25	-0.02
0.74	1.00	1.50	1.00	1.50	0.50	0.00	1.75	0.25	0.25	0.00	0.00	0.00	0.00	0.50	0.00	0.25	-0.250000	0.054199	0.948242	-1.330000	7.560000	-1.470000	96.00	-0.14	0.03	15.50	14.00	11.25	12.00	5.50	2.75	1.00	0.25	2.50	1.75	1.50	0.25	0.50	0.75	0.25	0.00	-0.160156	0.062500	0.977539	-2.170000	-2.240000	1.960000	738.00	-0.24	-0.02
0.75	0.75	1.75	0.75	1.25	0.50	0.00	1.75	0.25	0.00	0.25	0.00	0.00	0.25	0.25	0.00	0.25	-0.245605	0.052246	0.943359	-1.470000	7.770000	-1.540000	90.00	-0.14	0.00	15.75	14.00	11.25	12.00	5.50	3.00	1.00	0.25	2.25	1.75	1.50	0.25	0.50	0.75	0.25	0.00	-0.147461	0.059082	0.975586	-1.330000	-1.680000	2.380000	740.00	-0.25	-0.03
0.76	0.75	1.50	1.00	1.25	0.75	0.25	1.75	0.00	0.00	0.00	0.00	0.00	0.00	0.00	0.00	0.25	-0.252930	0.049805	0.948730	-1.190000	7.770000	-1.470000	85.00	-0.17	0.03	16.00	14.50	11.50	12.25	5.50	3.00	1.00	0.25	2.00	2.00	1.25	0.25	0.50	0.75	0.25	0.00	-0.153320	0.065430	0.987305	-0.560000	-1.120000	2.660000	750.00	-0.25	-0.03
0.77	1.00	1.50	1.00	1.75	0.50	0.00	1.75	0.00	0.00	0.00	0.00	0.00	0.50	0.25	0.00	0.25	-0.248535	0.059570	0.947754	-0.560000	7.840000	-1.260000	94.00	-0.16	0.00	16.75	15.00	11.25	12.25	5.50	3.00	1.00	0.25	2.00	2.00	1.00	0.25	0.50	0.50	0.00	0.00	-0.153809	0.062012	0.990723	-0.280000	-0.910000	2.800000	752.00	-0.26	-0.03
0.78	1.00	1.25	0.75	1.25	0.50	0.00	1.75	0.00	0.25	0.00	0.00	0.00	0.25	0.25	0.00	0.25	-0.246094	0.054199	0.946777	-0.140000	7.980000	-1.120000	85.00	-0.13	0.04	17.25	15.00	11.75	12.50	5.50	3.00	1.00	0.50	2.00	1.25	1.00	0.00	0.25	0.50	0.25	0.00	-0.148438	0.061035	0.981445	-0.000000	-0.980000	2.940000	759.00	-0.26	-0.03
0.79	1.00	1.25	0.75	1.50	0.50	0.00	1.75	0.25	0.25	0.00	0.00	0.00	0.00	0.25	0.00	0.25	-0.258301	0.053223	0.946777	0.700000	8.260000	-0.980000	89.00	-0.14	0.03	17.50	15.25	11.75	12.50	5.50	3.00	1.00	0.00	1.50	1.25	0.75	0.00	0.25	0.50	0.00	0.25	-0.148926	0.062988	0.979980	0.700000	-0.700000	3.010000	746.00	-0.27	-0.03
0.80	1.00	1.25	1.00	1.50	0.50	0.00	1.75	0.00	0.00	0.00	0.00	0.00	0.00	0.25	0.00	0.00	-0.259277	0.051270	0.950684	2.520000	9.030000	-0.560000	84.00	-0.17	0.04	18.50	15.75	12.00	13.00	5.25	3.00	1.00	0.25	1.50	1.25	1.00	0.00	0.25	0.25	0.00	0.00	-0.151855	0.059082	0.977051	0.840000	-0.350000	3.220000	770.00	-0.28	-0.03
0.81	1.00	0.75	0.75	1.25	0.50	0.25	1.75	0.00	0.00	0.00	0.00	0.00	0.00	0.25	0.00	0.00	-0.257812	0.062012	0.945801	7.770000	11.620000	0.560000	76.00	-0.15	0.05	19.25	16.25	12.25	13.00	5.50	3.00	1.00	0.00	1.25	1.25	0.75	0.00	0.25	0.25	0.00	0.00	-0.146484	0.067383	0.984863	0.630000	-0.490000	3.150000	778.00	-0.28	-0.03
0.82	1.50	1.25	0.75	1.50	0.50	0.00	1.75	0.00	0.00	0.00	0.00	0.00	0.00	0.00	0.00	0.00	-0.255859	0.057617	0.958984	10.010000	11.830000	0.770000	84.00	-0.20	0.04	19.50	16.75	12.25	13.25	5.25	3.00	1.00	0.25	1.00	1.25	0.75	0.00	0.25	0.50	0.00	0.00	-0.144531	0.061035	0.979492	0.140000	-0.490000	3.220000	788.00	-0.28	-0.03
0.83	0.75	1.50	0.75	1.50	0.50	0.00	1.50	0.00	0.00	0.00	0.00	0.00	0.00	0.25	0.00	0.00	-0.252441	0.060547	0.944336	12.040000	11.550000	0.910000	77.00	-0.18	0.02	20.25	17.00	12.50	13.75	5.50	3.00	1.00	0.25	0.50	1.25	0.50	0.00	0.50	0.00	0.00	0.00	-0.146484	0.067383	0.978027	-0.280000	-0.770000	2.940000	797.00	-0.29	-0.03
0.84	1.00	1.50	1.00	1.50	0.50	0.00	1.50	0.00	0.00	0.00	0.00	0.00	0.00	0.00	0.00	0.00	-0.251465	0.062988	0.948730	11.900000	10.920000	0.770000	80.00	-0.21	0.02	20.50	17.50	12.50	13.50	5.25	3.25	1.00	0.00	0.50	0.75	0.50	0.00	0.25	0.25	0.00	0.00	-0.146973	0.062988	0.972168	-0.630000	-1.050000	2.660000	793.00	-0.30	-0.03
0.85	0.75	1.50	1.00	1.75	0.50	0.00	1.50	0.00	0.00	0.00	0.00	0.00	0.00	0.00	0.00	0.00	-0.241211	0.068359	0.929199	10.990000	10.430000	0.140000	80.00	-0.20	0.01	21.00	17.75	12.50	13.75	5.25	3.25	0.75	0.25	0.75	0.75	0.25	0.00	0.25	0.00	0.00	0.00	-0.146973	0.064941	0.979980	-1.120000	-1.750000	2.590000	802.00	-0.30	-0.03
0.86	1.00	1.50	0.75	1.50	0.50	0.00	1.50	0.00	0.00	0.00	0.00	0.00	0.00	0.00	0.00	0.00	-0.246094	0.071289	0.934082	8.610000	9.380000	-0.420000	77.00	-0.20	0.02	21.25	18.00	12.75	14.00	5.50	3.50	1.00	0.25	0.50	0.75	0.50	0.00	0.25	0.25	0.00	0.00	-0.162109	0.057129	0.982910	-1.050000	-1.680000	2.800000	823.00	-0.30	-0.04
0.87	0.75	1.50	0.75	1.50	0.50	0.00	1.50	0.00	0.00	0.00	0.00	0.00	0.00	0.00	0.00	0.00	-0.248535	0.077148	0.930664	5.530000	8.820000	-0.770000	75.00	-0.20	0.02	21.75	18.25	13.00	14.25	5.50	3.50	0.75	0.00	0.50	0.75	0.50	0.00	0.25	0.25	0.00	0.00	-0.146973	0.064941	0.984375	-0.910000	-1.330000	2.730000	828.00	-0.30	-0.03
0.88	0.50	1.50	0.75	1.25	0.50	0.00	1.50	0.00	0.00	0.00	0.00	0.00	0.00	0.00	0.00	0.00	-0.243652	0.078613	0.928711	2.100000	8.960000	-1.610000	69.00	-0.19	0.03	22.25	18.75	13.00	14.50	5.50	3.50	0.75	0.00	0.25	0.50	0.50	0.00	0.25	0.00	0.00	0.00	-0.161621	0.060547	0.983887	0.210000	-0.280000	2.940000	833.00	-0.31	-0.04
0.89	0.50	1.75	0.50	1.50	0.50	0.00	1.50	0.00	0.00	0.00	0.00	0.00	0.00	0.25	0.00	0.00	-0.250000	0.071777	0.933105	-0.840000	9.100000	-2.240000	74.00	-0.18	0.01	23.00	19.00	13.25	14.75	5.25	3.50	0.75	0.25	0.25	0.75	0.25	0.00	0.25	0.00	0.00	0.00	-0.162109	0.068359	0.980957	2.520000	2.240000	3.710000	849.00	-0.31	-0.04
0.90	0.75	1.50	0.75	1.00	0.50	0.00	1.50	0.00	0.00	0.00	0.00	0.00	0.00	0.00	0.00	0.00	-0.254883	0.068848	0.942871	-2.660000	9.310000	-2.590000	69.00	-0.19	0.04	23.00	19.25	13.25	15.00	5.25	3.50	0.75	0.25	0.25	0.50	0.00	0.00	0.25	0.00	0.00	0.00	-0.148926	0.063965	0.986816	3.010000	3.010000	3.920000	849.00	-0.31	-0.04
0.91	0.00	1.25	0.50	1.25	0.50	0.00	1.50	0.00	0.00	0.00	0.00	0.00	0.00	0.00	0.00	0.00	-0.260254	0.074219	0.942383	-2.590000	9.240000	-2.590000	59.00	-0.15	0.02	23.25	19.75	13.25	14.75	5.25	3.75	0.75	0.00	0.25	0.50	0.00	0.00	0.25	0.25	0.00	0.00	-0.144043	0.060059	0.980957	3.150000	2.660000	3.710000	855.00	-0.31	-0.04
0.92	0.75	1.25	0.50	1.25	0.50	0.00	1.50	0.00	0.00	0.00	0.00	0.00	0.00	0.00	0.00	0.00	-0.260254	0.076172	0.945801	-2.100000	9.450000	-2.590000	67.00	-0.18	0.03	24.00	20.00	13.25	15.25	5.25	3.50	0.75	0.00	0.00	0.50	0.25	0.00	0.00	0.00	0.00	0.00	-0.151855	0.065918	0.979004	3.080000	1.400000	3.010000	863.00	-0.32	-0.04
0.93	0.50	1.25	0.50	1.50	0.50	0.00	1.50	0.00	0.00	0.00	0.00	0.00	0.00	0.00	0.00	0.00	-0.253418	0.070801	0.938965	-1.960000	9.520000	-2.590000	67.00	-0.18	0.02	24.25	20.25	13.75	15.25	5.25	3.75	0.75	0.25	0.00	0.50	0.00	0.00	0.00	0.00	0.00	0.00	-0.154297	0.065918	0.980957	4.410000	1.890000	3.080000	877.00	-0.32	-0.04
0.94	0.25	0.75	0.50	0.75	0.25	0.00	1.50	0.00	0.00	0.00	0.00	0.00	0.00	0.00	0.00	0.00	-0.257812	0.070801	0.937500	-2.380000	10.080000	-3.080000	49.00	0.00	0.00	25.00	20.50	13.75	15.50	5.50	3.75	0.75	0.25	0.00	0.50	0.00	0.00	0.00	0.00	0.00	0.00	-0.155762	0.072266	0.978516	5.670000	2.170000	3.150000	892.00	-0.32	-0.04
0.95	0.50	1.25	0.50	0.75	0.25	0.00	1.50	0.00	0.00	0.00	0.00	0.00	0.00	0.25	0.00	0.00	-0.250000	0.069824	0.939453	-3.010000	9.940000	-3.150000	58.00	-0.14	0.06	24.75	20.75	13.75	15.50	5.25	3.75	0.75	0.00	0.00	0.25	0.00	0.00	0.00	0.00	0.00	0.00	-0.155273	0.069336	0.977051	6.510000	0.840000	2.870000	883.00	-0.32	-0.04
0.96	0.25	0.75	0.25	0.75	0.25	0.00	1.25	0.00	0.00	0.00	0.00	0.00	0.00	0.00	0.00	0.00	-0.260742	0.067871	0.943848	-3.290000	9.800000	-3.290000	42.00	0.00	0.00	25.75	21.00	14.00	15.75	5.25	3.50	0.75	0.25	0.00	0.25	0.00	0.00	0.00	0.00	0.00	0.00	-0.152832	0.072754	0.983887	6.650000	-0.140000	3.010000	902.00	-0.32	-0.04
0.97	0.00	0.50	0.75	1.00	0.25	0.00	1.25	0.00	0.00	0.00	0.00	0.00	0.00	0.00	0.00	0.00	-0.261719	0.072266	0.942871	-3.360000	9.450000	-3.220000	46.00	0.00	0.00	25.00	20.75	13.75	15.50	5.25	3.75	0.75	0.00	0.00	0.25	0.00	0.00	0.00	0.00	0.00	0.00	-0.156250	0.074707	0.974121	6.230000	-0.490000	2.940000	886.00	-0.32	-0.04
0.98	0.25	0.75	0.25	1.00	0.00	0.00	1.25	0.00	0.00	0.00	0.00	0.00	0.00	0.00	0.00	0.00	-0.253418	0.072754	0.940430	-3.780000	9.310000	-3.220000	42.00	0.00	0.00	25.50	21.25	14.00	15.75	5.00	3.75	0.75	0.25	0.00	0.00	0.00	0.00	0.00	0.00	0.00	0.00	-0.157227	0.073730	0.979492	5.670000	-0.980000	2.870000	899.00	-0.32	-0.04
0.99	0.25	0.25	0.25	0.75	0.25	0.00	1.25	0.00	0.00	0.00	0.00	0.00	0.00	0.00	0.00	0.00	-0.260254	0.073730	0.939453	-4.690000	9.310000	-3.080000	38.00	0.00	0.00	25.50	21.00	13.75	15.50	5.25	3.75	0.75	0.25	0.00	0.25	0.00	0.00	0.00	0.00	0.00	0.00	-0.164062	0.080078	0.986328	6.720000	-1.190000	2.730000	897.00	-0.32	-0.04
1.00	0.25	0.25	0.25	0.75	0.25	0.00	1.25	0.00	0.00	0.00	0.00	0.00	0.00	0.00	0.00	0.00	-0.263672	0.071777	0.940918	-5.670000	9.730000	-3.220000	38.00	0.00	0.00	25.25	21.00	13.75	15.50	5.25	3.75	0.75	0.00	0.00	0.00	0.00	0.00	0.00	0.00	0.00	0.00	-0.158691	0.078125	0.976562	7.910000	-1.050000	2.800000	888.00	-0.32	-0.04
1.01	0.25	0.25	0.50	0.50	0.00	0.00	1.25	0.00	0.00	0.00	0.00	0.00	0.00	0.00	0.00	0.00	-0.217773	0.096680	0.967285	-6.650000	9.870000	-2.800000	35.00	0.00	0.00	26.25	21.50	14.00	15.75	5.00	3.75	0.75	0.25	0.00	0.00	0.00	0.00	0.00	0.00	0.00	0.00	-0.154297	0.083984	0.973145	7.560000	-1.190000	2.730000	909.00	-0.32	-0.04
1.02	0.00	0.50	0.50	1.00	0.25	0.00	1.25	0.00	0.00	0.00	0.00	0.00	0.00	0.00	0.00	0.00	-0.263672	0.062988	0.944824	-7.210000	10.080000	-3.500000	43.00	0.00	0.00	26.00	21.50	14.25	15.75	5.25	4.00	0.75	0.25	0.00	0.25	0.00	0.00	0.00	0.00	0.00	0.00	-0.158203	0.087402	0.974609	6.300000	-1.680000	2.660000	918.00	-0.32	-0.04
1.03	0.00	0.50	0.00	0.25	0.25	0.00	1.25	0.00	0.00	0.00	0.00	0.00	0.00	0.00	0.00	0.00	-0.278320	0.062500	0.939453	-6.370000	9.870000	-3.990000	29.00	0.00	0.00	26.75	22.00	14.00	16.00	5.25	3.75	0.75	0.00	0.00	0.25	0.00	0.00	0.00	0.00	0.00	0.00	-0.156250	0.082031	0.973633	5.600000	-2.030000	2.520000	923.00	-0.32	-0.04
1.04	0.00	0.25	0.75	0.25	0.25	0.00	1.25	0.00	0.00	0.00	0.00	0.00	0.00	0.00	0.00	0.00	-0.266602	0.060547	0.935547	-5.950000	9.450000	-4.340000	35.00	0.00	0.00	26.50	22.00	14.25	16.25	5.00	3.75	0.75	0.00	0.00	0.25	0.00	0.00	0.00	0.00	0.00	0.00	-0.157227	0.085938	0.975098	5.390000	-2.310000	2.590000	924.00	-0.32	-0.04
1.05	0.00	0.75	0.25	0.50	0.00	0.00	1.25	0.00	0.00	0.00	0.00	0.00	0.00	0.00	0.00	0.00	-0.263672	0.071289	0.937012	-7.770000	10.710000	-4.830000	34.00	0.00	0.00	26.75	22.00	14.00	16.00	5.00	4.00	0.75	0.00	0.00	0.00	0.00	0.00	0.00	0.00	0.00	0.00	-0.160645	0.086426	0.983398	5.460000	-2.450000	2.730000	921.00	-0.33	-0.04
1.06	0.00	1.00	0.00	0.00	0.00	0.00	1.25	0.00	0.00	0.00	0.00	0.00	0.00	0.00	0.00	0.00	-0.284668	0.054688	0.922852	-9.100000	10.920000	-4.900000	28.00	0.00	0.00	26.75	22.00	14.00	16.00	5.25	4.00	0.75	0.00	0.00	0.00	0.00	0.00	0.00	0.00	0.00	0.00	-0.156250	0.089355	0.970215	5.040000	-2.660000	2.520000	924.00	-0.33	-0.04
1.07	0.00	0.50	0.25	0.75	0.00	0.00	1.25	0.00	0.00	0.00	0.00	0.00	0.00	0.00	0.00	0.00	-0.321289	0.100586	0.941406	-9.240000	11.200000	-4.620000	35.00	0.00	0.00	26.25	22.00	14.00	15.75	5.00	3.75	0.75	0.00	0.00	0.00	0.00	0.00	0.00	0.00	0.00	0.00	-0.160645	0.091797	0.967285	3.570000	-2.660000	2.450000	910.00	-0.33	-0.04
1.08	0.00	0.25	0.25	0.50	0.00	0.00	1.25	0.00	0.00	0.00	0.00	0.00	0.00	0.00	0.00	0.00	-0.342773	0.083984	0.914062	-9.380000	11.620000	-3.920000	30.00	0.00	0.00	26.75	21.75	14.25	16.00	5.00	4.00	0.75	0.25	0.00	0.00	0.00	0.00	0.00	0.00	0.00	0.00	-0.152344	0.092773	0.964844	1.890000	-2.800000	2.240000	925.00	-0.32	-0.04
1.09	0.00	0.50	0.00	0.25	0.00	0.00	1.25	0.00	0.00	0.00	0.00	0.00	0.00	0.00	0.00	0.00	-0.388184	0.092773	0.906738	-9.870000	11.830000	-1.540000	26.00	0.00	0.00	26.75	22.25	14.25	16.25	5.25	4.00	0.75	0.25	0.00	0.00	0.00	0.00	0.00	0.00	0.00	0.00	-0.161621	0.089355	0.972168	0.840000	-2.940000	2.030000	935.00	-0.32	-0.04
1.10	0.00	0.25	0.25	0.25	0.00	0.00	1.25	0.00	0.00	0.00	0.00	0.00	0.00	0.00	0.00	0.00	-0.451172	0.110840	0.899902	-11.340000	13.230000	2.520000	27.00	0.00	0.00	26.50	22.25	14.25	16.00	5.00	4.00	0.75	0.25	0.00	0.25	0.00	0.00	0.00	0.00	0.00	0.00	-0.156738	0.095703	0.967285	0.490000	-3.010000	1.890000	930.00	-0.32	-0.04
1.11	0.00	0.25	0.00	0.50	0.00	0.00	1.25	0.00	0.00	0.00	0.00	0.00	0.00	0.00	0.00	0.00	-0.500977	0.093750	0.950195	-13.020000	16.450001	8.050000	27.00	0.00	0.00	26.50	22.00	14.00	16.00	5.00	3.75	0.75	0.00	0.00	0.00	0.00	0.00	0.00	0.00	0.00	0.00	-0.156738	0.099609	0.967285	-0.770000	-2.870000	1.960000	916.00	-0.33	-0.04
1.12	0.00	0.00	0.00	0.25	0.00	0.00	1.00	0.00	0.00	0.00	0.00	0.00	0.00	0.00	0.00	0.00	-0.533691	0.158691	0.913574	-1.890000	22.820000	13.510000	18.00	0.00	0.00	27.00	22.00	14.25	16.25	5.25	4.00	0.75	0.00	0.00	0.25	0.00	0.00	0.00	0.00	0.00	0.00	-0.161621	0.090820	0.982422	-2.240000	-3.010000	1.960000	934.00	-0.32	-0.04
1.13	0.00	0.25	0.00	0.25	0.00	0.00	1.00	0.00	0.00	0.00	0.00	0.00	0.00	0.00	0.00	0.00	-0.531738	0.075684	0.912598	7.070000	26.040001	17.430000	20.00	0.00	0.00	27.00	21.75	14.25	16.25	5.25	3.75	0.75	0.00	0.00	0.25	0.00	0.00	0.00	0.00	0.00	0.00	-0.162109	0.092773	0.972168	-2.520000	-2.940000	1.890000	929.00	-0.32	-0.04
1.14	0.00	0.25	0.00	0.50	0.00	0.00	1.00	0.00	0.00	0.00	0.00	0.00	0.00	0.00	0.00	0.00	-0.567383	0.039062	0.870605	8.050000	29.680000	21.070000	23.00	0.00	0.00	26.50	22.25	14.25	16.00	5.00	3.75	0.50	0.00	0.00	0.00	0.00	0.00	0.00	0.00	0.00	0.00	-0.157715	0.096191	0.965820	-3.080000	-2.940000	1.750000	917.00	-0.33	-0.04
1.15	0.00	0.25	0.25	0.50	0.00	0.00	1.00	0.00	0.00	0.00	0.00	0.00	0.00	0.00	0.00	0.00	-0.575684	0.010742	0.875977	4.480000	34.720001	23.730000	26.00	0.00	0.00	26.75	22.00	14.25	16.00	5.00	4.00	0.75	0.00	0.25	0.00	0.00	0.00	0.00	0.00	0.00	0.00	-0.156250	0.093262	0.960938	-3.920000	-2.870000	1.680000	927.00	-0.32	-0.04
1.16	0.00	0.00	0.25	0.50	0.00	0.00	1.00	0.00	0.00	0.00	0.00	0.00	0.00	0.00	0.00	0.00	-0.575195	0.024414	0.893555	2.590000	39.340000	24.430000	23.00	0.00	0.00	26.75	22.00	14.25	16.00	5.00	4.00	0.75	0.00	0.00	0.00	0.00	0.00	0.00	0.00	0.00	0.00	-0.162598	0.093750	0.965820	-5.880000	-2.520000	1.540000	924.00	-0.33	-0.04
1.17	0.00	0.50	0.00	0.25	0.00	0.00	1.00	0.00	0.00	0.00	0.00	0.00	0.00	0.00	0.00	0.00	-0.571777	0.003906	0.887695	4.060000	42.700001	22.330000	22.00	0.00	0.00	26.50	22.00	14.25	16.00	5.00	4.25	0.75	0.25	0.00	0.00	0.00	0.00	0.00	0.00	0.00	0.00	-0.155762	0.096680	0.963867	-8.400000	-2.100000	1.330000	928.00	-0.32	-0.04
1.18	0.00	0.00	0.00	0.25	0.00	0.00	1.00	0.00	0.00	0.00	0.00	0.00	0.00	0.00	0.00	0.00	-0.573730	-0.019043	0.870605	5.250000	45.990002	18.340000	18.00	0.00	0.00	26.00	21.75	14.00	15.75	5.00	3.75	0.75	0.25	0.00	0.25	0.00	0.00	0.00	0.00	0.00	0.00	-0.156738	0.089844	0.972168	-11.340000	-2.170000	1.120000	912.00	-0.32	-0.04
1.19	0.00	0.25	0.00	0.25	0.00	0.00	1.00	0.00	0.00	0.00	0.00	0.00	0.00	0.00	0.00	0.00	-0.550781	-0.013672	0.872070	3.920000	49.700001	13.650000	20.00	0.00	0.00	26.50	21.75	14.25	16.00	5.25	4.00	0.75	0.25	0.00	0.00	0.00	0.00	0.00	0.00	0.00	0.00	-0.157227	0.094727	0.965820	-14.000000	-2.590000	0.980000	925.00	-0.32	-0.04
1.20	0.00	0.25	0.25	0.25	0.00	0.00	1.00	0.00	0.00	0.00	0.00	0.00	0.00	0.00	0.00	0.00	-0.534668	0.008789	0.871582	2.660000	52.570000	8.820000	23.00	0.00	0.00	26.75	21.50	14.25	16.00	5.25	4.25	0.75	0.25	0.00	0.00	0.00	0.00	0.25	0.00	0.00	0.00	-0.165039	0.086914	0.972656	-15.610000	-3.080000	0.910000	930.00	-0.32	-0.04
1.21	0.00	1.00	0.25	0.25	0.00	0.00	1.00	0.00	0.00	0.00	0.00	0.00	0.00	0.00	0.00	0.00	-0.468262	0.011230	0.871094	-1.470000	55.580002	-0.560000	30.00	0.00	0.00	26.25	21.50	14.00	16.00	5.50	4.00	0.75	0.00	0.00	0.25	0.00	0.00	0.00	0.00	0.00	0.00	-0.166016	0.079590	0.974609	-16.309999	-3.570000	0.840000	919.00	-0.32	-0.04
1.22	0.00	0.00	0.25	0.00	0.00	0.00	1.00	0.00	0.00	0.00	0.00	0.00	0.00	0.00	0.00	0.00	-0.468262	0.011230	0.871094	-1.470000	55.580002	-0.560000	18.00	0.00	0.00	26.75	21.25	14.25	16.00	5.50	4.00	0.75	0.00	0.00	0.00	0.00	0.00	0.00	0.00	0.00	0.00	-0.164551	0.083496	0.978516	-16.030001	-4.270000	0.840000	922.00	-0.32	-0.04
1.23	0.00	0.25	0.25	0.50	0.00	0.00	1.00	0.00	0.00	0.00	0.00	0.00	0.00	0.00	0.00	0.00	-0.334473	0.055176	0.913086	-7.770000	55.720001	-9.310000	26.00	0.00	0.00	26.25	21.50	14.25	15.75	5.50	4.25	0.75	0.25	0.00	0.25	0.00	0.00	0.25	0.00	0.00	0.00	-0.163086	0.081055	0.976074	-15.400000	-5.250000	0.840000	928.00	-0.32	-0.04
1.24	0.00	0.25	0.00	0.25	0.00	0.00	1.00	0.00	0.00	0.00	0.00	0.00	0.00	0.00	0.00	0.00	-0.280762	0.113770	0.877930	-8.260000	54.320000	-11.760000	20.00	0.00	0.00	26.00	21.00	14.00	16.00	5.50	4.00	0.75	0.25	0.00	0.25	0.00	0.00	0.00	0.00	0.00	0.00	-0.162109	0.081543	0.979980	-14.560000	-5.740000	0.910000	916.00	-0.32	-0.04
1.25	0.00	0.00	0.00	0.25	0.00	0.00	1.25	0.00	0.00	0.00	0.00	0.00	0.00	0.00	0.00	0.00	-0.229492	0.153809	0.875488	-11.270000	52.920002	-10.850000	22.00	0.00	0.00	25.50	21.00	14.00	15.75	5.75	4.00	0.75	0.25	0.00	0.25	0.00	0.00	0.00	0.00	0.00	0.00	-0.166992	0.069824	0.984375	-11.690000	-6.440000	0.910000	911.00	-0.32	-0.04
1.26	0.00	0.00	0.00	0.25	0.00	0.00	1.00	0.00	0.00	0.00	0.00	0.00	0.00	0.00	0.00	0.00	-0.122559	0.204590	0.921387	-16.870001	51.310001	-7.140000	18.00	0.00	0.00	25.50	20.75	14.00	15.75	5.50	4.00	0.75	0.00	0.00	0.50	0.00	0.00	0.00	0.00	0.00	0.00	-0.159668	0.073730	0.978516	-10.150000	-6.720000	1.050000	904.00	-0.32	-0.04
1.27	0.00	0.25	0.00	0.25	0.00	0.00	1.00	0.00	0.00	0.00	0.00	0.00	0.00	0.00	0.00	0.00	-0.002441	0.209473	0.996094	-19.879999	46.200001	-2.870000	20.00	0.00	0.00	25.25	20.50	14.00	15.50	5.75	3.75	0.75	0.25	0.00	0.25	0.00	0.00	0.50	0.00	0.00	0.00	-0.153320	0.070312	0.976562	-9.800000	-6.790000	1.050000	902.00	-0.32	-0.04
1.28	0.00	0.00	0.00	0.25	0.00	0.00	1.00	0.00	0.00	0.00	0.00	0.00	0.00	0.00	0.00	0.00	0.089844	0.169434	1.011230	-13.790000	37.450001	-1.960000	18.00	0.00	0.00	24.75	20.50	13.75	15.25	5.75	4.00	0.75	0.50	0.00	0.50	0.00	0.00	0.00	0.00	0.00	0.00	-0.156250	0.078125	0.974609	-7.210000	-7.140000	0.910000	896.00	-0.32	-0.04
1.29	0.00	0.25	0.00	0.00	0.00	0.00	1.00	0.00	0.00	0.00	0.00	0.00	0.00	0.00	0.00	0.00	0.194336	0.057617	1.038574	-4.620000	27.719999	-6.790000	17.00	0.00	0.00	25.25	20.00	13.50	15.25	5.75	3.75	0.75	0.00	0.25	0.75	0.00	0.00	0.00	0.00	0.00	0.00	-0.156250	0.078125	0.974609	-7.210000	-7.140000	0.910000	890.00	-0.32	-0.03
1.30	0.00	0.00	0.00	0.00	0.00	0.00	1.00	0.00	0.00	0.00	0.00	0.00	0.00	0.00	0.00	0.00	0.316895	-0.007324	1.086426	-1.890000	17.219999	-12.810000	15.00	0.00	0.00	24.75	20.00	13.50	15.25	5.75	4.00	0.75	0.25	0.25	0.50	0.00	0.00	0.00	0.00	0.00	0.00	-0.156250	0.069336	0.975586	-7.210000	-7.700000	0.910000	888.00	-0.31	-0.04
1.31	0.00	0.00	0.00	0.25	0.00	0.00	1.00	0.00	0.00	0.00	0.25	0.00	0.00	0.00	0.00	0.00	0.344238	-0.019531	1.136719	-2.310000	5.390000	-18.129999	21.00	0.00	0.00	24.25	19.50	13.50	15.00	6.00	4.00	0.75	0.50	0.25	0.75	0.00	0.00	0.25	0.25	0.25	0.00	-0.147461	0.066895	0.974609	-7.840000	-10.080000	0.840000	892.00	-0.31	-0.04
1.32	0.00	0.00	0.00	0.25	0.00	0.00	1.00	0.00	0.25	0.00	0.00	0.00	0.00	0.00	0.00	0.00	-0.318359	0.017090	0.919922	3.430000	-4.620000	-22.190001	21.00	0.00	0.00	24.00	19.50	13.50	15.00	6.00	4.25	0.75	0.25	0.50	0.75	0.25	0.00	0.50	0.25	0.25	0.00	-0.152344	0.068359	0.976074	-8.260000	-11.620000	0.420000	896.00	-0.30	-0.04
1.33	0.00	0.50	0.00	0.25	0.00	0.00	1.00	0.00	0.00	0.00	0.00	0.00	0.25	0.00	0.00	0.25	-0.430176	-0.009277	1.007324	-0.140000	-1.960000	-20.160000	26.00	0.00	0.00	23.00	19.00	13.50	14.75	6.00	4.00	1.00	0.25	0.75	1.00	0.25	0.00	0.50	0.25	0.00	0.00	-0.152832	0.058594	0.977051	-8.680000	-12.180000	0.280000	883.00	-0.30	-0.03
1.34	0.00	0.00	0.00	0.00	0.00	0.00	1.00	0.00	0.00	0.00	0.00	0.25	0.25	0.25	0.00	0.25	-0.433594	0.028809	0.968262	-4.340000	3.990000	-14.770000	23.00	0.00	0.00	22.25	18.25	13.25	14.50	6.00	4.00	1.00	0.25	1.00	1.00	0.50	0.00	0.75	0.25	0.25	0.25	-0.144043	0.070312	0.979492	-8.260000	-12.320000	0.280000	875.00	-0.29	-0.04
1.35	0.00	0.25	0.00	0.25	0.00	0.00	1.00	0.00	0.25	0.25	0.25	0.25	0.25	0.75	0.00	0.25	-0.405762	0.022461	0.959961	0.210000	8.120000	-10.780000	41.00	0.00	0.00	21.50	17.75	13.00	14.25	6.25	4.25	0.75	0.25	1.00	1.25	0.25	0.00	0.50	0.50	0.25	0.25	-0.145508	0.066895	0.983887	-7.490000	-11.760000	0.420000	859.00	-0.29	-0.03
1.36	0.00	0.00	0.00	0.00	0.00	0.00	1.00	0.00	0.00	0.25	0.25	0.25	0.50	0.50	0.00	0.25	-0.380859	-0.003418	0.937500	4.550000	12.180000	-6.580000	33.00	0.00	0.00	20.75	17.00	12.75	14.00	6.25	4.25	0.75	0.25	1.25	1.25	0.50	0.00	1.00	0.50	0.25	0.25	-0.151855	0.061035	0.979980	-6.090000	-10.430000	0.560000	849.00	-0.28	-0.04
1.37	0.00	0.00	0.00	0.25	0.00	0.00	1.00	0.00	0.50	0.25	0.50	0.75	0.50	0.75	0.00	0.25	-0.388184	0.020508	0.946777	4.410000	18.129999	-0.980000	52.00	0.18	0.01	19.75	16.25	12.50	13.75	6.25	4.25	0.75	0.50	1.50	1.75	0.75	0.25	1.00	0.75	0.50	0.25	-0.151855	0.065918	0.987305	-4.550000	-8.960000	0.630000	848.00	-0.26	-0.04
1.38	0.00	0.00	0.00	0.25	0.00	0.00	1.00	0.00	0.50	0.50	0.50	0.75	0.50	1.00	0.00	0.25	-0.388672	0.048828	0.926758	6.510000	24.360001	1.890000	57.00	0.19	0.02	18.75	15.50	12.00	13.25	6.25	4.25	1.00	0.50	2.00	2.25	1.00	0.50	1.25	1.25	0.50	0.50	-0.155762	0.061523	0.982422	-3.220000	-7.140000	0.840000	848.00	-0.24	-0.03
1.39	0.00	0.00	0.00	0.00	0.00	0.00	1.00	0.00	0.50	0.50	1.00	1.00	0.75	1.25	0.00	0.50	-0.397949	0.048340	0.919434	8.400000	28.910000	2.940000	68.00	0.22	-0.01	17.00	14.50	11.75	12.75	6.00	4.00	1.00	0.50	2.00	2.25	1.25	0.50	1.50	1.25	0.75	0.75	-0.149414	0.061523	0.985352	-1.680000	-4.690000	1.260000	816.00	-0.23	-0.04
1.40	0.00	0.25	0.00	0.50	0.00	0.00	1.00	0.00	0.75	0.50	1.50	1.25	0.75	1.25	0.25	0.50	-0.398438	0.063477	0.920898	9.660000	33.110001	3.010000	89.00	0.18	-0.03	15.25	13.50	11.00	12.00	5.75	3.75	1.00	0.25	2.25	2.50	1.50	0.75	1.50	1.50	0.75	0.75	-0.150879	0.060547	0.989258	-0.000000	-1.820000	1.610000	776.00	-0.22	-0.04
1.41	0.00	0.25	0.00	0.00	0.00	0.00	1.00	0.00	1.00	1.00	1.75	1.50	0.75	1.50	0.25	0.50	-0.391602	0.062012	0.903320	10.500000	37.029999	2.450000	100.00	0.22	-0.01	13.00	12.00	10.25	11.50	5.50	3.75	0.75	0.50	2.50	3.00	2.00	1.00	1.75	1.75	0.75	1.00	-0.147949	0.065918	0.985352	1.540000	1.190000	1.890000	745.00	-0.19	-0.04
1.42	0.00	0.00	0.00	0.00	0.00	0.00	1.00	0.00	1.25	1.50	2.25	2.50	1.25	2.00	0.25	0.75	-0.402344	0.071289	0.896484	10.990000	39.410000	1.470000	132.00	0.24	-0.04	11.50	11.00	9.75	10.75	5.25	3.00	1.00	0.50	2.50	3.00	2.25	1.00	2.00	2.25	1.00	1.25	-0.157227	0.080566	0.999512	3.220000	4.270000	2.100000	712.00	-0.17	-0.04
1.43	0.00	0.25	0.00	0.00	0.00	0.00	1.00	0.00	1.75	2.00	3.25	2.25	1.50	2.25	0.50	0.75	-0.421875	0.060059	0.916504	8.610000	42.139999	-0.560000	160.00	0.23	-0.03	9.25	9.25	9.00	10.00	4.75	2.00	1.00	0.25	2.75	3.25	2.75	1.50	2.50	2.50	1.00	1.25	-0.145508	0.070312	0.987793	5.040000	7.910000	1.750000	659.00	-0.14	-0.04
1.44	0.00	0.00	0.00	0.50	0.00	0.00	1.00	0.00	1.75	2.25	3.75	3.00	1.50	2.75	0.50	0.75	-0.419922	0.063477	0.894531	7.630000	45.779999	-0.840000	184.00	0.23	-0.04	7.25	8.00	8.00	9.25	3.75	1.75	0.75	0.50	3.00	4.25	3.50	1.75	2.50	2.75	1.50	1.25	-0.145996	0.083984	0.997070	6.930000	13.090000	1.120000	625.00	-0.11	-0.04
1.45	0.00	0.00	0.00	0.00	0.00	0.00	1.00	0.00	2.25	2.75	5.75	4.00	1.75	3.00	0.50	1.00	-0.433105	0.053223	0.896973	7.490000	47.810001	-0.770000	227.00	0.24	-0.05	6.00	6.50	6.75	8.00	3.25	1.00	0.75	0.25	3.00	4.50	4.00	2.00	2.50	3.25	1.50	1.50	-0.156250	0.083008	0.989746	8.120000	19.879999	-0.140000	569.00	-0.07	-0.04
1.46	0.00	0.25	0.00	0.00	0.00	0.00	1.00	0.00	2.50	3.25	7.25	4.50	2.00	3.50	0.75	1.25	-0.442383	0.057617	0.861328	9.030000	47.180000	0.000000	269.00	0.24	-0.05	3.75	5.25	5.50	6.75	2.50	0.50	0.75	0.25	3.75	5.00	5.25	2.00	2.75	3.50	1.50	1.75	-0.118652	0.068359	1.003418	7.560000	27.719999	-1.400000	527.00	-0.02	-0.04
1.47	0.00	0.00	0.00	0.00	0.00	0.00	1.00	0.00	2.75	4.25	8.00	5.50	2.50	4.25	1.00	1.50	-0.449707	0.057617	0.863770	10.500000	44.869999	1.260000	314.00	0.25	-0.06	2.75	3.75	4.00	5.50	1.75	0.00	0.75	0.00	3.75	6.25	6.25	2.50	2.50	4.00	1.50	1.50	-0.158691	0.067383	1.028320	6.300000	37.029999	-3.080000	484.00	0.04	-0.03
1.48	0.00	0.00	0.00	0.00	0.00	0.00	1.00	0.00	3.50	6.00	8.50	6.75	2.75	5.00	1.00	1.75	-0.440918	0.059570	0.850586	11.760000	41.790001	3.010000	370.00	0.25	-0.05	1.50	2.50	2.50	3.50	1.00	0.00	0.50	0.25	4.25	7.00	6.50	2.50	2.25	4.50	1.50	1.75	-0.187012	0.113770	1.039062	1.960000	46.619999	-5.950000	433.00	0.11	-0.02
1.49	0.00	0.00	0.00	0.00	0.00	0.00	1.00	0.00	4.00	7.25	9.50	7.75	3.25	5.50	1.00	1.75	-0.455078	0.058105	0.840332	13.300000	37.310001	4.690000	419.00	0.25	-0.05	1.00	2.00	1.50	3.00	0.75	0.00	0.50	0.00	4.75	7.75	7.00	2.50	2.00	5.50	1.75	1.50	-0.156738	0.222656	1.098145	-15.470000	70.349998	-15.190001	427.00	0.15	-0.01
1.50	0.00	0.00	0.00	0.00	0.00	0.00	1.00	0.00	4.75	8.00	10.25	8.50	4.00	5.50	1.50	2.00	-0.451660	0.071777	0.842773	14.560000	31.990000	6.230000	466.00	0.25	-0.05	0.75	1.00	1.25	2.00	0.75	0.00	0.25	0.00	5.25	8.00	7.00	2.00	1.75	5.75	1.75	1.75	-0.131348	-0.088867	1.313965	-45.990002	99.050003	-19.040001	403.00	0.18	0.01
1.51	0.00	0.00	0.00	0.00	0.00	0.00	1.00	0.00	5.00	8.50	11.00	9.50	5.00	6.75	1.25	2.25	-0.455566	0.073730	0.826660	16.520000	25.270000	7.350000	511.00	0.25	-0.06	0.50	0.50	1.00	1.50	0.25	0.00	0.00	0.25	5.25	8.00	6.00	1.50	1.00	5.75	1.75	1.50	-0.247070	0.123535	1.274902	-42.910000	165.550003	-24.990000	359.00	0.21	0.02
1.52	0.00	0.00	0.00	0.00	0.00	0.00	1.00	0.00	5.50	9.00	11.50	10.50	6.00	7.50	1.50	2.25	-0.467773	0.073242	0.840820	17.570000	17.639999	8.190000	556.00	0.25	-0.06	0.25	0.75	1.00	1.50	0.25	0.00	0.00	0.00	5.25	7.75	5.00	1.00	0.50	6.50	1.75	1.25	-0.347656	0.147461	1.230469	-69.580002	217.139999	-34.720001	337.00	0.22	0.05
1.53	0.00	0.00	0.00	0.00	0.00	0.00	1.00	0.00	6.25	9.75	12.25	11.25	6.75	8.00	1.50	2.75	-0.461426	0.093750	0.844727	16.590000	13.160000	9.100000	603.00	0.25	-0.06	0.25	0.50	0.50	0.75	0.25	0.75	0.00	0.00	5.50	7.75	3.75	0.50	0.25	6.50	2.00	0.75	-0.389160	0.134277	1.325195	-81.480003	240.800003	-41.860001	312.00	0.23	0.07
1.54	0.00	0.00	0.00	0.00	0.00	0.00	1.00	0.00	6.50	10.25	13.00	12.25	7.25	8.50	1.75	3.00	-0.460938	0.092773	0.846680	15.260000	9.240000	8.330000	642.00	0.25	-0.07	0.00	0.75	0.25	1.00	0.25	0.00	0.00	0.00	5.75	7.25	2.75	0.25	0.00	6.50	1.50	0.75	-0.417480	0.107422	1.350098	-93.379997	257.320007	-48.090000	281.00	0.24	0.09
1.55	0.00	0.00	0.00	0.00	0.00	0.00	1.25	0.00	6.75	10.75	13.50	13.00	7.75	8.75	2.00	3.25	-0.458008	0.111816	0.837891	13.370000	4.690000	7.070000	678.00	0.25	-0.07	0.00	0.50	0.25	0.75	0.00	0.00	0.00	0.00	5.50	6.75	1.75	0.25	0.00	6.00	1.00	0.25	-0.458496	0.134766	1.346680	-104.160004	271.600006	-54.250000	242.00	0.25	0.11
1.56	0.00	0.00	0.00	0.00	0.00	0.00	1.25	0.00	7.50	11.25	14.25	13.75	8.25	9.25	2.00	3.75	-0.463379	0.113770	0.856445	10.500000	0.420000	5.180000	720.00	0.25	-0.07	0.00	0.00	0.50	0.25	0.00	0.00	0.00	0.00	5.25	5.50	1.50	0.00	0.00	5.50	0.75	0.00	-0.543457	0.153809	1.531738	-112.840004	278.179993	-63.279999	205.00	0.27	0.14
1.57	0.00	0.00	0.00	0.00	0.00	0.00	1.25	0.00	7.75	11.75	14.75	14.50	9.00	9.50	2.25	4.00	-0.460449	0.112305	0.843750	7.770000	-2.590000	2.940000	755.00	0.25	-0.07	0.00	0.50	0.00	0.25	0.25	0.00	0.00	0.00	4.75	4.50	1.00	0.00	0.00	5.00	0.25	0.00	-0.581055	0.243164	1.422852	-117.320000	278.670013	-73.010002	175.00	0.26	0.14
1.58	0.00	0.00	0.00	0.00	0.00	0.00	1.25	0.00	8.00	12.25	15.25	15.50	9.25	9.75	2.00	4.25	-0.463867	0.104492	0.863281	5.880000	-4.830000	1.400000	782.00	0.25	-0.07	0.00	0.25	0.25	0.50	0.25	0.00	0.00	0.00	3.50	4.00	1.00	0.00	0.00	2.75	0.00	0.00	-0.445312	0.422852	1.637207	-93.379997	259.769989	-83.370003	135.00	0.22	0.13
1.59	0.00	0.00	0.00	0.00	0.00	0.00	1.25	0.00	8.00	12.50	15.75	16.00	9.75	10.25	2.50	4.50	-0.457520	0.104492	0.869629	4.760000	-5.320000	0.560000	810.00	0.25	-0.07	0.00	0.25	0.25	0.50	0.25	0.00	0.25	0.00	2.50	3.25	1.00	0.00	0.00	1.25	0.00	0.00	-0.520020	0.501953	1.616699	-54.459999	228.199997	-94.290001	105.00	0.19	0.11
1.60	0.00	0.00	0.00	0.00	0.00	0.00	1.25	0.00	8.25	12.75	16.00	16.50	10.25	10.50	2.25	4.75	-0.452148	0.103027	0.879883	3.850000	-4.690000	0.000000	829.00	0.25	-0.08	0.00	1.00	0.00	1.00	0.25	0.25	0.25	0.00	2.00	2.75	0.75	0.00	0.00	0.50	0.00	0.00	0.912598	0.604980	1.910645	-32.759998	185.850006	-108.500000	96.00	0.10	0.05
1.61	0.00	0.00	0.00	0.00	0.00	0.00	1.25	0.00	8.75	13.25	16.50	16.75	10.50	11.00	2.50	4.75	-0.457031	0.106445	0.893555	1.190000	-1.610000	-0.280000	858.00	0.25	-0.07	0.00	0.50	0.00	0.50	0.25	0.00	0.50	0.00	1.50	2.00	0.25	0.00	0.00	0.00	0.00	0.00	1.406250	0.920898	2.160645	-19.530001	106.540001	-104.720001	63.00	0.12	0.10
1.62	0.00	0.00	0.00	0.00	0.00	0.00	1.25	0.00	8.75	13.50	16.75	17.00	10.75	11.25	2.50	4.75	-0.451660	0.113281	0.882324	-1.050000	2.310000	-1.050000	870.00	0.25	-0.07	0.00	0.50	0.25	0.25	0.50	0.00	0.50	0.00	1.25	2.00	0.25	0.00	0.00	0.00	0.00	0.00	2.059570	1.504883	1.767578	-11.690000	38.639999	-76.580002	63.00	0.10	0.10
1.63	0.00	0.00	0.00	0.00	0.00	0.00	1.25	0.00	8.75	14.00	16.75	17.25	10.75	11.75	2.75	5.00	-0.457520	0.117188	0.893066	-2.730000	5.460000	-2.310000	886.00	0.25	-0.07	0.00	0.75	0.00	0.75	0.25	0.00	0.50	0.00	0.75	1.75	0.25	0.00	0.00	0.00	0.00	0.00	1.540039	1.268066	1.408691	3.150000	9.170000	-26.040001	56.00	0.04	0.05
1.64	0.00	0.00	0.00	0.00	0.00	0.00	1.25	0.00	9.00	14.25	16.75	17.25	10.75	12.00	2.75	5.25	-0.461426	0.114258	0.895508	-5.950000	13.160000	-4.410000	896.00	0.25	-0.07	0.25	1.00	0.00	0.50	0.25	0.00	0.50	0.00	0.50	2.00	0.50	0.00	0.00	0.00	0.00	0.00	1.396484	1.011719	0.987793	17.570000	-6.300000	14.490000	60.00	0.03	0.03
1.65	0.00	0.00	0.00	0.00	0.00	0.00	1.25	0.00	9.25	14.50	17.00	17.25	10.50	12.75	3.00	5.00	-0.461914	0.104980	0.900391	-8.120000	18.900000	-5.670000	910.00	0.25	-0.07	0.00	0.75	0.25	0.50	0.00	0.50	0.25	0.00	0.75	1.75	0.50	0.00	0.00	0.00	0.00	0.00	1.392578	0.797852	1.279785	38.639999	-23.590000	39.689999	58.00	0.04	0.01
1.66	0.00	0.00	0.00	0.00	0.00	0.00	1.25	0.00	9.25	14.50	17.00	17.25	10.25	13.00	3.00	5.25	-0.461426	0.106934	0.907227	-10.220000	24.920000	-7.000000	911.00	0.25	-0.07	0.25	0.25	0.25	0.00	0.50	0.00	0.25	0.00	0.75	1.50	0.50	0.00	0.00	0.00	0.00	0.00	1.359375	0.464355	1.364746	58.170002	-48.580002	52.570000	48.00	0.00	0.00
1.67	0.00	0.00	0.00	0.00	0.00	0.00	1.00	0.00	9.75	14.75	17.00	17.00	10.00	13.50	3.25	5.25	-0.471191	0.104004	0.895508	-11.830000	30.590000	-8.540000	918.00	0.26	-0.06	0.25	0.50	0.00	0.50	0.25	0.00	0.25	0.00	0.75	1.25	0.25	0.00	0.00	0.00	0.00	0.00	1.217773	0.218262	1.396973	64.889999	-75.110001	55.720001	45.00	0.00	0.00
1.68	0.00	0.00	0.00	0.00	0.00	0.00	1.25	0.00	9.75	14.75	16.75	16.75	9.50	14.00	3.25	5.25	-0.469238	0.095703	0.887207	-13.300000	36.049999	-9.660000	917.00	0.26	-0.06	0.25	0.25	0.25	0.00	0.25	0.00	0.50	0.00	0.75	1.00	0.25	0.00	0.00	0.00	0.00	0.00	1.068848	0.087891	1.422363	66.430000	-100.449997	52.709999	41.00	0.00	0.00
1.69	0.00	0.00	0.00	0.00	0.00	0.00	1.00	0.00	10.00	15.25	16.75	16.25	9.25	14.25	3.25	5.00	-0.477539	0.091797	0.891602	-14.560000	41.790001	-10.430000	915.00	0.26	-0.05	0.00	0.50	0.25	0.50	0.25	0.00	0.50	0.00	0.75	1.25	0.25	0.00	0.00	0.00	0.00	0.00	0.912598	0.006836	1.446777	70.980003	-124.459999	45.990002	49.00	0.00	0.00
1.70	0.00	0.00	0.00	0.00	0.00	0.00	1.00	0.00	10.25	15.25	16.50	16.00	8.75	14.75	3.25	5.25	-0.480469	0.093262	0.882324	-15.750000	48.160000	-10.920000	914.00	0.26	-0.05	0.25	0.75	0.25	0.00	0.25	0.00	0.25	0.00	0.75	1.25	0.25	0.00	0.00	0.00	0.00	0.00	0.747559	-0.030762	1.459961	75.180000	-146.020004	38.639999	44.00	0.00	0.00
1.71	0.00	0.00	0.00	0.00	0.00	0.00	1.00	0.00	10.50	15.50	16.25	15.50	8.25	15.00	3.25	5.00	-0.491211	0.082520	0.882324	-16.520000	53.689999	-11.480000	908.00	0.26	-0.04	0.00	0.50	0.25	0.00	0.50	0.00	0.50	0.00	0.25	1.00	0.25	0.00	0.00	0.00	0.00	0.00	0.590332	-0.008301	1.492188	75.459999	-164.570007	33.740002	37.00	0.00	0.00
1.72	0.00	0.00	0.00	0.00	0.00	0.00	1.00	0.00	10.75	15.50	16.25	15.25	8.00	15.25	3.50	5.00	-0.495117	0.082520	0.871094	-17.010000	57.750000	-11.830000	912.00	0.26	-0.04	0.00	0.25	0.00	0.00	0.25	0.00	0.50	0.00	0.25	1.00	0.00	0.00	0.00	0.00	0.00	0.00	0.257812	0.144531	1.510254	73.150002	-193.899994	34.369999	26.00	0.00	0.00
1.73	0.00	0.00	0.00	0.00	0.00	0.00	1.00	0.00	10.75	15.75	15.75	14.75	7.50	15.50	3.75	5.00	-0.500000	0.080566	0.857910	-16.940001	59.920002	-11.900000	904.00	0.26	-0.03	0.00	0.50	0.00	0.25	0.25	0.00	0.50	0.00	0.25	0.75	0.00	0.00	0.00	0.00	0.00	0.00	0.069824	0.208008	1.510254	73.430000	-204.119995	40.670002	29.00	0.00	0.00
1.74	0.00	0.00	0.00	0.00	0.00	0.00	1.00	0.00	11.25	16.00	15.75	14.25	7.00	15.50	3.75	4.75	-0.514648	0.073730	0.844238	-16.799999	60.200001	-11.620000	902.00	0.26	-0.03	0.25	0.50	0.00	0.00	0.50	0.00	0.50	0.00	0.25	0.75	0.00	0.00	0.00	0.00	0.00	0.00	-0.121582	0.257812	1.494629	72.940002	-210.699997	49.700001	31.00	0.00	0.00
1.75	0.00	0.00	0.00	0.00	0.00	0.00	1.00	0.00	11.25	15.75	15.75	14.00	6.50	15.75	3.50	4.75	-0.514648	0.069336	0.835938	-16.309999	59.290001	-11.130000	892.00	0.26	-0.02	0.00	0.50	0.00	0.00	0.25	0.00	0.25	0.00	0.50	1.00	0.00	0.00	0.00	0.00	0.00	0.00	-0.306152	0.297363	1.473633	72.519997	-213.149994	60.619999	28.00	0.00	0.00
1.76	0.00	0.00	0.00	0.00	0.00	0.00	1.00	0.00	11.25	15.75	15.50	13.75	6.00	16.25	3.75	4.50	-0.519531	0.061523	0.819336	-15.540000	57.400002	-10.500000	888.00	0.27	-0.02	0.25	0.25	0.00	0.00	0.25	0.00	0.50	0.00	0.25	0.25	0.00	0.00	0.00	0.00	0.00	0.00	-0.458496	0.312012	1.424805	72.099998	-212.100006	72.590004	21.00	0.00	0.00
1.77	0.00	0.00	0.00	0.00	0.00	0.00	0.75	0.00	11.50	15.75	15.25	13.25	6.00	16.50	3.75	4.75	-0.520508	0.054199	0.815430	-14.350000	54.740002	-9.660000	883.00	0.27	-0.02	0.00	0.00	0.25	0.00	0.50	0.00	0.25	0.00	0.50	0.50	0.00	0.00	0.00	0.00	0.00	0.00	-0.599609	0.308105	1.388184	70.629997	-207.619995	85.470001	24.00	0.00	0.00
1.78	0.00	0.00	0.00	0.00	0.00	0.00	0.75	0.00	11.75	16.00	15.25	13.00	5.50	16.50	3.75	4.50	-0.535645	0.061035	0.805664	-13.230000	51.590000	-8.680000	881.00	0.27	-0.01	0.00	0.00	0.00	0.00	0.25	0.00	0.50	0.00	0.00	0.50	0.00	0.00	0.00	0.00	0.00	0.00	-0.714355	0.294922	1.333008	68.599998	-201.039993	98.419998	16.00	0.00	0.00
1.79	0.00	0.00	0.00	0.00	0.00	0.00	0.75	0.00	12.00	16.00	15.00	12.75	5.25	17.00	3.75	4.75	-0.541992	0.061035	0.801270	-12.250000	48.090000	-8.260000	882.00	0.27	-0.01	0.00	0.25	0.00	0.25	0.25	0.25	0.25	0.00	0.00	0.25	0.00	0.00	0.00	0.00	0.00	0.00	-0.842285	0.255371	1.236816	66.500000	-193.339996	109.830002	17.00	0.00	0.00
1.80	0.00	0.00	0.00	0.00	0.00	0.00	0.75	0.00	12.00	16.25	15.00	12.50	5.25	17.00	4.25	4.50	-0.541992	0.055664	0.790527	-11.270000	43.820000	-8.050000	886.00	0.27	-0.01	0.00	0.25	0.00	0.00	0.50	0.00	0.50	0.00	0.00	0.50	0.00	0.00	0.00	0.00	0.00	0.00	-0.987305	0.160156	1.133789	68.669998	-183.680008	116.550003	21.00	0.00	0.00
1.81	0.00	0.00	0.00	0.00	0.00	0.00	0.75	0.00	12.25	16.25	15.00	12.25	4.75	17.25	4.25	4.50	-0.548828	0.055664	0.796387	-10.990000	39.689999	-7.700000	884.00	0.27	-0.00	0.25	0.50	0.25	0.50	0.25	0.00	0.25	0.00	0.00	0.50	0.00	0.00	0.00	0.00	0.00	0.00	-1.168945	-0.050293	1.135254	79.940002	-172.059998	114.660004	27.00	0.00	0.00
1.82	0.00	0.00	0.00	0.00	0.00	0.00	0.75	0.00	12.25	16.50	14.75	12.00	4.75	17.50	4.50	4.50	-0.551758	0.051270	0.799316	-11.480000	36.540001	-7.490000	887.00	0.27	-0.00	0.00	0.25	0.50	0.00	0.25	0.00	0.50	0.00	0.00	0.50	0.00	0.00	0.00	0.00	0.00	0.00	-1.368164	-0.337402	1.168945	86.449997	-161.070007	102.970001	23.00	0.00	0.00
1.83	0.00	0.00	0.00	0.00	0.00	0.00	0.75	0.00	12.50	16.50	15.00	11.75	4.50	17.75	4.50	4.50	-0.563965	0.058105	0.795898	-12.180000	34.020000	-7.490000	890.00	0.27	0.00	0.00	0.00	0.00	0.00	0.25	0.00	0.50	0.00	0.50	0.50	0.00	0.00	0.00	0.00	0.00	0.00	-1.585449	-0.535645	1.184082	78.540001	-155.399994	82.110001	22.00	0.00	0.00
1.84	0.00	0.00	0.00	0.00	0.00	0.00	0.75	0.00	12.75	16.75	14.75	11.50	4.00	18.00	4.50	4.50	-0.567383	0.051270	0.796875	-12.740000	32.200001	-7.700000	888.00	0.27	0.01	0.00	0.25	0.00	0.25	0.25	0.00	0.25	0.00	0.00	0.50	0.00	0.00	0.00	0.00	0.00	0.00	-1.793945	-0.643555	1.025391	61.599998	-153.229996	53.830002	17.00	0.00	0.00
1.85	0.00	0.00	0.00	0.00	0.00	0.00	0.75	0.00	12.75	17.00	14.75	11.50	4.00	18.50	4.75	4.50	-0.572266	0.057129	0.808594	-15.330000	31.780001	-8.820000	898.00	0.27	0.01	0.00	0.50	0.00	0.00	0.25	0.00	0.50	0.00	0.00	0.50	0.00	0.00	0.00	0.00	0.00	0.00	-2.009277	-0.692871	0.732422	45.009998	-146.720001	21.070000	20.00	0.00	0.00
1.86	0.00	0.00	0.00	0.00	0.00	0.00	0.75	0.00	13.00	17.00	14.50	11.25	3.50	18.75	4.75	4.75	-0.581543	0.055664	0.816406	-17.430000	34.090000	-10.290000	895.00	0.28	0.01	0.00	0.50	0.00	0.75	0.25	0.00	0.50	0.00	0.25	0.50	0.00	0.00	0.00	0.00	0.00	0.00	-2.197266	-0.685059	0.462891	31.010000	-131.880005	-11.130000	32.00	0.00	0.00
1.87	0.00	0.00	0.00	0.00	0.00	0.00	0.75	0.00	13.25	17.25	14.50	10.75	3.25	19.00	5.00	4.50	-0.590820	0.050293	0.839844	-19.600000	38.500000	-12.250000	897.00	0.28	0.02	0.00	0.50	0.00	0.50	0.25	0.00	0.25	0.00	0.00	0.25	0.00	0.00	0.00	0.00	0.00	0.00	-2.300293	-0.580566	0.291016	20.160000	-111.160004	-38.709999	19.00	0.00	0.00
1.88	0.00	0.00	0.00	0.00	0.00	0.00	0.75	0.00	13.50	17.50	14.25	10.50	3.25	19.25	5.25	4.75	-0.607910	0.051270	0.848145	-21.840000	44.939999	-14.350000	903.00	0.28	0.02	0.00	0.50	0.00	0.25	0.25	0.00	0.25	0.00	0.25	0.25	0.00	0.00	0.00	0.00	0.00	0.00	-2.388672	-0.405762	0.216797	16.450001	-69.090004	-70.910004	20.00	0.00	0.00
1.89	0.00	0.00	0.00	0.00	0.00	0.00	0.75	0.00	13.75	17.50	14.25	10.00	2.75	20.00	5.50	4.75	-0.609863	0.047852	0.848145	-23.309999	53.480000	-16.450001	906.00	0.28	0.02	0.00	0.50	0.00	0.50	0.00	0.00	0.50	0.00	0.00	0.25	0.00	0.00	0.00	0.00	0.00	0.00	-2.388672	-0.405762	0.216797	16.450001	-69.090004	-70.910004	20.00	0.00	0.00
1.90	0.00	0.00	0.00	0.00	0.00	0.00	0.50	0.00	14.00	17.75	14.00	9.50	2.75	20.25	5.75	4.75	-0.622070	0.038086	0.864258	-24.639999	63.490002	-18.200001	905.00	0.28	0.03	0.00	0.75	0.00	0.00	0.25	0.00	0.25	0.00	0.25	0.50	0.00	0.00	0.00	0.00	0.00	0.00	-2.391602	-0.445312	0.144531	17.990000	-48.650002	-76.860001	22.00	0.00	0.00
1.91	0.00	0.00	0.00	0.00	0.00	0.00	0.50	0.00	14.25	17.75	13.75	9.25	2.50	20.50	6.00	5.00	-0.632812	0.024414	0.863281	-24.639999	76.019997	-19.250000	907.00	0.28	0.03	0.00	0.50	0.00	0.00	0.25	0.00	0.50	0.00	0.00	0.25	0.00	0.00	0.00	0.00	0.00	0.00	-2.289062	-0.492676	0.196777	15.050000	-26.320000	-77.769997	18.00	0.00	0.00
1.92	0.00	0.00	0.00	0.00	0.00	0.00	0.50	0.00	14.25	18.25	13.50	8.75	2.25	20.75	6.00	5.00	-0.639648	0.014160	0.857422	-23.309999	90.510002	-20.090000	904.00	0.28	0.03	0.00	1.00	0.00	0.25	0.50	0.00	0.50	0.00	0.00	0.25	0.00	0.00	0.00	0.00	0.00	0.00	-1.858398	-0.394531	0.366211	2.590000	0.420000	-70.349998	28.00	0.00	0.00
1.93	0.00	0.00	0.00	0.00	0.00	0.00	0.50	0.00	14.50	18.25	13.25	8.25	2.00	21.00	6.25	5.25	-0.658203	0.010254	0.887207	-21.559999	107.449997	-20.370001	903.00	0.29	0.04	0.00	0.50	0.25	0.25	0.25	0.00	0.25	0.00	0.00	0.00	0.00	0.00	0.00	0.00	0.00	0.00	-1.215332	-0.761230	1.066406	-115.010002	59.500000	-48.090000	17.00	0.00	0.00
1.94	0.00	0.00	0.00	0.00	0.00	0.00	0.50	0.00	14.50	18.50	13.00	8.00	1.75	21.00	6.50	5.50	-0.670410	0.025391	0.871094	-21.000000	126.910004	-20.580000	903.00	0.29	0.04	0.25	1.25	0.50	0.75	0.25	0.00	0.25	0.00	0.00	0.00	0.00	0.00	0.00	0.00	0.00	0.00	-0.079102	1.150879	0.634766	-128.520004	80.989998	-45.360001	34.00	0.00	0.00
1.95	0.00	0.00	0.00	0.00	0.00	0.00	0.50	0.00	15.00	19.00	13.25	7.75	2.00	21.75	7.00	5.50	-0.685059	0.016113	0.849121	-20.510000	147.910004	-22.330000	928.00	0.29	0.04	1.25	2.25	0.75	1.50	0.25	0.00	0.25	0.00	0.00	0.00	0.00	0.00	0.00	0.00	0.00	0.00	0.132324	0.603516	0.966309	-100.379997	70.840004	-4.200000	65.00	-0.32	-0.06
1.96	0.00	0.00	0.00	0.00	0.00	0.00	0.50	0.00	14.75	19.00	13.25	7.25	1.50	21.00	6.75	5.50	-0.712402	0.013672	0.861328	-20.020000	172.410004	-24.219999	906.00	0.29	0.04	3.00	5.50	1.50	4.00	0.50	0.00	0.25	0.00	0.00	0.00	0.00	0.00	0.00	0.00	0.00	0.00	-0.462402	-0.124512	1.395508	-60.270000	104.580002	33.320000	152.00	-0.34	-0.08
1.97	0.00	0.00	0.00	0.00	0.00	0.00	0.25	0.00	14.50	18.75	12.75	6.75	1.50	21.00	6.75	5.50	-0.757812	0.009277	0.929688	-21.559999	203.630005	-26.600000	886.00	0.29	0.04	8.75	9.75	2.75	7.75	0.50	0.00	0.25	0.00	0.00	0.00	0.00	0.00	0.00	0.00	0.00	0.00	-0.460449	-0.371582	2.028809	-58.799999	148.190002	23.450001	305.00	-0.35	-0.07
1.98	0.00	0.00	0.00	0.00	0.00	0.00	0.25	0.00	14.50	18.75	12.50	6.25	1.25	20.75	7.00	5.25	-0.805664	0.036621	0.948730	-28.000000	241.149994	-31.920000	875.00	0.29	0.05	12.50	12.50	4.75	9.00	0.25	0.00	0.50	0.00	0.00	0.00	0.00	0.00	0.00	0.00	0.00	0.00	-0.395508	-0.138672	2.062500	-38.709999	134.470001	10.640000	406.00	-0.35	-0.05
1.99	0.00	0.00	0.00	0.00	0.00	0.00	0.25	0.00	14.25	18.25	12.25	5.50	1.25	20.25	6.75	5.00	-0.852051	0.061035	0.989746	-38.150002	285.809998	-41.299999	848.00	0.29	0.05	15.00	14.25	6.75	9.75	1.00	0.50	0.50	0.00	0.00	0.00	0.00	0.00	0.00	0.00	0.00	0.00	-0.213867	0.083984	1.041504	-22.750000	103.739998	1.820000	493.00	-0.34	-0.04
2.00	0.00	0.00	0.00	0.00	0.00	0.00	0.25	0.00	13.50	17.50	11.75	5.00	0.75	19.75	6.75	5.00	-0.984375	0.028320	1.204590	-54.110001	336.489990	-52.500000	811.00	0.29	0.05	17.00	15.25	8.00	10.50	1.25	0.75	0.50	0.00	0.00	0.00	0.00	0.00	0.00	0.00	0.00	0.00	-0.177734	0.335938	0.850098	-9.590000	106.260002	7.840000	550.00	-0.34	-0.04
2.01	0.00	0.00	0.00	0.00	0.00	0.00	0.25	0.00	12.00	15.75	10.75	3.75	0.75	19.25	6.25	4.50	-1.296387	0.040527	1.530762	-74.830002	389.899994	-65.870003	737.00	0.30	0.06	18.00	16.50	9.00	11.50	1.50	1.50	0.75	0.00	0.00	0.00	0.00	0.00	0.00	0.00	0.00	0.00	-0.340820	-0.030762	1.803711	-84.559998	79.029999	2.870000	609.00	-0.34	-0.04
2.02	0.00	0.00	0.00	0.00	0.00	0.00	0.50	0.00	10.00	13.75	9.75	2.50	0.25	18.75	5.50	3.75	-1.744629	0.036621	1.850098	-96.809998	439.110016	-80.430000	650.00	0.30	0.07	19.50	17.25	9.75	12.25	1.75	1.50	0.50	0.00	0.00	0.00	0.25	0.00	0.00	0.00	0.00	0.00	-0.301758	-0.054199	1.192871	-86.940002	18.410000	-1.820000	649.00	-0.34	-0.04
2.03	0.00	0.00	0.00	0.00	0.00	0.00	0.75	0.00	8.00	12.00	8.00	1.75	0.25	17.50	4.50	3.00	-2.602539	-0.455566	2.355469	-111.860001	465.360016	-97.440002	558.00	0.30	0.07	20.50	18.25	10.50	12.75	2.00	2.00	0.75	0.25	0.00	0.25	0.00	0.25	0.00	0.00	0.00	0.50	-0.194336	0.077637	1.024414	-70.070000	-14.630000	-0.560000	704.00	-0.33	-0.04
2.04	0.00	0.00	0.00	0.00	0.00	0.00	0.75	0.00	7.25	10.75	6.50	1.25	0.00	15.50	2.75	2.00	-2.764160	-0.053711	2.473145	-154.979996	472.290009	-112.840004	471.00	0.30	0.09	21.75	18.75	11.25	13.75	2.25	3.00	0.75	0.25	0.00	0.25	0.00	0.00	0.25	0.00	0.00	0.50	-0.239258	0.011230	1.152832	-53.970001	-29.330000	0.980000	754.00	-0.32	-0.05
2.05	0.00	0.00	0.00	0.00	0.00	0.00	0.75	0.00	6.25	9.50	5.00	1.25	0.00	13.25	1.75	1.50	-2.069336	0.547852	2.557617	-62.930000	434.420013	-101.290001	397.00	0.30	0.09	22.50	19.25	11.50	14.00	2.50	3.00	0.75	0.25	0.00	0.50	0.00	0.00	0.50	0.00	0.00	0.75	-0.205078	0.059570	1.004395	-24.290001	-27.020000	0.700000	781.00	-0.32	-0.05
2.06	0.00	0.00	0.00	0.00	0.00	0.00	0.75	0.00	4.75	8.25	4.50	0.75	0.00	10.75	1.25	0.75	-2.069336	0.547852	2.557617	-62.930000	434.420013	-101.290001	323.00	0.29	0.10	22.25	19.25	12.00	14.25	2.75	3.75	0.75	0.50	0.00	0.50	0.00	0.25	0.50	0.00	0.00	1.00	-0.176270	0.064453	0.988770	-11.200000	-20.790001	1.680000	805.00	-0.31	-0.05
2.07	0.00	0.00	0.00	0.00	0.00	0.00	1.00	0.00	4.00	7.25	3.25	0.75	0.00	7.25	0.50	0.75	-0.160156	0.502930	2.876465	-20.370001	311.779999	-139.160004	256.00	0.28	0.10	22.25	19.25	12.00	14.75	3.50	3.75	0.75	0.50	0.50	0.75	0.25	0.00	1.00	0.00	0.25	1.00	-0.158203	0.060547	0.977539	-6.930000	-16.450001	2.730000	835.00	-0.30	-0.05
2.08	0.00	0.50	0.25	0.00	0.00	0.00	1.00	0.00	2.25	5.50	2.25	0.75	0.00	3.00	0.00	0.50	1.121582	0.604492	2.144531	-61.810001	239.119995	-154.070007	169.00	0.23	0.08	21.75	19.25	12.00	14.50	3.50	4.75	0.75	1.00	0.50	0.25	0.50	0.25	1.25	0.00	0.25	1.25	-0.160645	0.062012	0.983887	-3.500000	-13.370000	3.220000	849.00	-0.29	-0.06
2.09	0.00	0.00	0.00	0.00	0.00	0.00	1.00	0.00	1.75	3.75	1.75	0.25	0.00	1.25	0.25	0.25	5.183594	4.163574	3.828125	-102.900002	96.529999	-131.320007	113.00	0.24	0.10	21.25	19.00	12.25	14.75	3.50	5.00	0.75	1.00	0.50	0.75	0.25	0.50	1.50	0.00	0.25	1.50	-0.170410	0.066406	0.978516	-0.980000	-10.850000	3.570000	859.00	-0.29	-0.06
2.10	0.00	0.00	0.00	0.00	0.00	0.00	1.00	0.00	1.50	3.75	2.00	0.50	0.00	1.00	0.25	0.25	-0.129395	2.354980	5.533691	-52.290001	-107.169998	-21.910000	112.00	0.24	0.08	20.50	18.75	11.75	14.75	3.50	5.25	0.75	0.75	0.50	0.75	0.50	0.50	2.00	0.00	0.50	1.50	-0.156250	0.068359	0.979004	0.700000	-9.660000	3.990000	852.00	-0.28	-0.07
2.11	0.00	0.00	0.00	0.00	0.00	0.00	1.00	0.00	1.50	3.25	1.50	0.25	0.00	0.25	0.00	0.00	1.025391	1.342285	1.320801	-50.540001	-180.669998	61.599998	89.00	0.22	0.10	19.50	18.25	11.75	14.50	3.75	6.00	0.75	1.25	0.75	0.75	0.50	0.75	2.75	0.25	0.25	2.00	-0.163574	0.064941	0.982910	2.310000	-7.910000	3.990000	867.00	-0.26	-0.07
2.12	0.00	0.00	0.00	0.00	0.00	0.00	1.00	0.00	1.25	2.25	1.50	0.50	0.00	0.25	0.00	0.00	0.419434	1.035645	1.143066	-68.459999	-159.809998	102.900002	78.00	0.21	0.09	18.75	17.25	11.25	14.00	3.50	6.25	1.00	1.75	1.00	1.00	1.00	1.00	2.75	0.00	0.25	2.25	-0.166992	0.074707	0.986328	4.410000	-3.780000	3.920000	863.00	-0.25	-0.08
2.13	0.00	0.00	0.00	0.25	0.00	0.00	1.00	0.00	0.50	2.25	1.25	0.25	0.00	0.25	0.00	0.00	0.556152	1.046875	1.587402	-70.699997	-147.979996	118.860001	66.00	0.18	0.07	16.50	16.50	10.50	14.00	3.25	6.50	0.75	1.75	1.00	1.00	1.00	1.25	3.25	0.00	0.50	2.75	-0.163574	0.069824	0.982422	5.950000	-1.680000	4.060000	833.00	-0.24	-0.09
2.14	0.00	0.25	0.00	0.25	0.00	0.00	1.00	0.00	0.25	2.00	1.25	0.25	0.00	0.00	0.00	0.00	0.817383	0.967773	1.803711	-39.689999	-180.389999	115.709999	60.00	0.15	0.04	14.50	15.25	10.25	13.25	3.50	6.50	1.00	2.00	0.75	1.00	1.25	1.25	4.00	0.00	0.50	3.00	-0.163086	0.072754	0.981445	7.560000	0.490000	4.200000	808.00	-0.22	-0.10
2.15	0.00	0.00	0.00	0.00	0.00	0.25	1.00	0.00	0.00	1.50	1.00	0.50	0.00	0.25	0.00	0.00	0.608887	0.751953	1.831543	5.810000	-229.250000	105.840004	51.00	0.17	0.03	13.00	14.25	9.50	12.75	3.25	6.75	1.00	2.50	1.00	1.25	1.25	1.75	4.50	0.25	0.50	3.50	-0.161133	0.071777	0.983887	8.820000	2.240000	4.270000	797.00	-0.20	-0.11
2.16	0.00	0.25	0.00	0.00	0.00	0.00	1.00	0.00	0.25	1.50	1.00	0.25	0.00	0.00	0.00	0.00	0.540039	0.551758	1.696777	42.070000	-270.690002	97.790001	49.00	0.00	0.00	10.75	12.50	8.75	12.25	2.75	6.50	1.00	2.50	1.00	1.25	1.50	2.00	5.00	0.50	0.75	3.50	-0.165527	0.073242	0.983398	9.870000	3.710000	4.340000	750.00	-0.18	-0.12
2.17	0.00	0.00	0.00	0.25	0.00	0.00	1.00	0.00	0.00	1.00	0.75	0.00	0.00	0.25	0.00	0.00	0.377930	0.413574	1.668945	55.650002	-302.820007	95.480003	38.00	0.00	0.00	9.50	11.25	8.00	11.50	2.75	6.75	0.75	3.00	1.00	1.25	1.75	2.25	5.25	0.25	1.00	4.50	-0.160645	0.077148	0.980469	10.780000	4.620000	4.410000	729.00	-0.16	-0.13
2.18	0.00	0.00	0.00	0.00	0.00	0.00	1.00	0.00	0.50	1.00	0.00	0.00	0.00	0.00	0.00	0.00	0.272949	0.340820	1.677734	50.820000	-329.839996	99.400002	32.00	0.00	0.00	8.00	10.00	7.50	10.50	2.50	6.50	1.00	3.25	1.00	1.75	2.00	2.75	6.25	0.00	0.75	4.75	-0.161133	0.084961	0.972656	10.920000	5.110000	3.990000	706.00	-0.14	-0.14
2.19	0.00	0.25	0.00	0.00	0.00	0.00	1.00	0.00	0.00	1.00	0.25	0.00	0.00	0.00	0.00	0.00	0.139648	0.311035	1.651855	34.650002	-355.179993	106.959999	30.00	0.00	0.00	6.50	9.00	6.25	10.00	2.25	6.00	1.00	3.50	1.00	1.75	2.50	3.25	7.00	0.25	1.00	5.25	-0.152344	0.087891	0.968750	10.080000	5.180000	3.080000	682.00	-0.11	-0.15
2.20	0.00	0.00	0.00	0.00	0.00	0.00	1.00	0.00	0.00	0.50	0.25	0.00	0.00	0.00	0.00	0.00	-0.030273	0.313965	1.606445	15.750000	-378.910004	113.330002	23.00	0.00	0.00	5.00	8.00	6.00	9.25	2.00	5.75	0.75	4.25	1.00	2.00	3.00	4.00	7.75	0.50	1.00	5.75	-0.167480	0.095703	0.972656	8.050000	4.970000	1.960000	675.00	-0.09	-0.17
2.21	0.00	0.00	0.00	0.00	0.00	0.00	1.00	0.00	0.00	0.00	0.25	0.00	0.00	0.00	0.00	0.00	-0.204590	0.345703	1.484375	2.730000	-399.279999	115.430000	18.00	0.00	0.00	4.25	6.75	5.25	8.75	2.00	5.50	0.75	4.50	1.00	2.00	3.25	4.50	8.00	0.50	1.50	5.75	-0.175293	0.096191	0.973633	6.090000	4.900000	1.120000	659.00	-0.06	-0.18
2.22	0.00	0.00	0.00	0.00	0.00	0.00	1.00	0.00	0.00	0.25	0.00	0.00	0.00	0.00	0.00	0.00	-0.396484	0.363281	1.370117	-1.680000	-412.579987	110.389999	18.00	0.00	0.00	3.50	6.00	4.75	7.75	1.75	5.00	0.75	4.75	1.50	2.50	4.50	5.75	8.50	1.25	1.50	6.00	-0.170410	0.101074	0.979492	3.570000	4.830000	0.140000	673.00	-0.03	-0.18
2.23	0.00	0.25	0.00	0.00	0.00	0.00	1.00	0.00	0.00	0.00	0.25	0.00	0.00	0.00	0.00	0.00	-0.547363	0.372559	1.304688	3.010000	-418.110016	98.910004	20.00	0.00	0.00	2.50	5.25	3.25	7.00	1.50	3.75	0.75	4.75	1.00	2.75	6.25	6.75	8.75	1.00	1.75	6.50	-0.202148	0.109863	0.976074	0.700000	5.320000	-0.630000	645.00	0.01	-0.19
2.24	0.00	0.25	0.00	0.00	0.00	0.00	1.00	0.00	0.00	0.25	0.00	0.00	0.00	0.00	0.00	0.00	-0.711426	0.385742	1.273926	13.160000	-417.760010	82.529999	20.00	0.00	0.00	1.50	3.25	2.50	6.25	1.50	2.75	0.75	4.50	2.00	3.75	8.00	7.75	9.00	1.25	1.75	6.50	-0.180176	0.105957	0.972656	-1.890000	6.370000	-1.540000	642.00	0.06	-0.18
2.25	0.00	0.00	0.00	0.00	0.00	0.00	1.00	0.00	0.00	0.00	0.00	0.00	0.00	0.00	0.00	0.00	-0.835938	0.400879	1.307617	25.760000	-415.239990	61.110001	15.00	0.00	0.00	1.50	3.25	2.75	5.50	1.25	1.75	0.75	4.25	2.50	4.50	8.75	8.00	9.25	1.75	2.00	6.75	-0.174805	0.096680	0.961426	-4.200000	7.560000	-2.520000	654.00	0.08	-0.17
2.26	0.00	0.00	0.00	0.25	0.00	0.00	1.00	0.00	0.00	0.00	0.00	0.00	0.00	0.00	0.00	0.00	-0.984863	0.422852	1.351074	49.560001	-410.760010	35.630001	18.00	0.00	0.00	0.75	2.75	1.25	4.50	1.25	1.50	0.75	3.50	2.75	6.25	9.50	8.25	9.25	2.00	2.25	7.00	-0.187988	0.091797	0.999512	-6.580000	7.910000	-3.430000	638.00	0.12	-0.17
2.27	0.00	0.00	0.00	0.25	0.00	0.00	1.00	0.00	0.00	0.00	0.00	0.00	0.00	0.00	0.00	0.00	-1.244629	0.423828	1.323730	80.150002	-401.940002	8.190000	18.00	0.00	0.00	0.25	1.50	1.50	3.25	0.75	0.50	0.75	3.25	3.50	7.75	10.25	8.75	9.25	3.00	2.50	7.00	-0.104492	-0.025391	0.964844	-8.330000	8.050000	-4.900000	640.00	0.16	-0.15
2.28	0.00	0.00	0.00	0.00	0.00	0.00	1.00	0.00	0.00	0.00	0.00	0.00	0.00	0.00	0.00	0.00	-1.804199	0.414062	1.379883	122.430000	-373.519989	-30.030001	15.00	0.00	0.00	0.25	1.25	0.75	2.00	1.00	0.50	0.75	3.00	4.25	8.50	11.00	9.25	9.50	3.75	2.50	7.25	-0.190430	0.110840	0.978027	-9.030000	8.820000	-8.330000	655.00	0.18	-0.14
2.29	0.00	0.00	0.00	0.00	0.00	0.00	1.00	0.00	0.00	0.00	0.00	0.00	0.00	0.00	0.00	0.00	-2.069824	0.412109	1.261719	121.029999	-352.309998	-29.750000	15.00	0.00	0.00	0.25	0.75	0.75	1.50	0.50	0.00	0.75	2.50	5.50	9.25	11.50	9.50	9.50	4.75	3.00	7.00	-0.190430	0.110840	0.978027	-9.030000	8.820000	-8.330000	671.00	0.20	-0.12
2.30	0.00	0.00	0.00	0.25	0.00	0.00	1.00	0.00	0.25	0.00	0.00	0.00	0.00	0.00	0.00	0.00	-2.367188	0.394531	1.187988	113.330002	-325.850006	-18.270000	21.00	0.00	0.00	0.00	1.00	0.25	1.25	0.50	0.00	0.50	2.25	6.50	10.00	12.25	10.00	9.75	6.25	3.00	7.25	-0.186035	0.106934	0.982910	-7.490000	10.850000	-11.410000	705.00	0.22	-0.11
2.31	0.00	0.00	0.00	0.00	0.00	0.00	1.00	0.00	0.00	0.00	0.00	0.00	0.00	0.00	0.00	0.00	-2.605957	0.360352	1.139160	113.750000	-294.630005	-0.210000	15.00	0.00	0.00	0.00	0.25	0.00	1.25	0.00	0.00	0.50	2.25	7.25	10.75	12.75	10.25	9.75	7.75	3.50	7.50	-0.197754	0.080078	0.978027	-10.010000	23.309999	-14.490000	735.00	0.23	-0.10
2.32	0.00	0.00	0.00	0.50	0.00	0.00	1.00	0.00	0.00	0.00	0.00	0.00	0.00	0.00	0.00	0.00	-2.837402	0.170898	1.040039	125.930000	-264.600006	20.160000	21.00	0.00	0.00	0.00	0.25	0.00	1.00	0.00	0.00	0.25	2.00	7.75	11.50	13.25	10.50	9.75	9.00	4.00	7.50	-0.210449	0.070801	0.994629	-9.800000	29.120001	-15.050000	762.00	0.24	-0.09
2.33	0.00	0.00	0.00	0.00	0.00	0.00	1.00	0.00	0.00	0.00	0.00	0.00	0.00	0.00	0.00	0.00	-3.095215	-0.130371	0.842773	142.380005	-233.240005	39.549999	15.00	0.00	0.00	0.00	0.00	0.25	0.75	0.00	0.00	0.25	1.50	8.50	12.00	13.75	10.75	9.75	11.00	4.75	7.75	-0.204102	0.099121	0.975586	-6.020000	46.130001	-12.740000	802.00	0.25	-0.08
2.34	0.00	0.00	0.00	0.00	0.00	0.00	1.00	0.00	0.00	0.00	0.00	0.00	0.00	0.00	0.00	0.00	-3.321289	-0.639648	0.662109	155.539993	-196.000000	56.630001	15.00	0.00	0.00	0.00	0.00	0.00	0.25	0.00	0.00	0.25	1.25	9.00	12.75	14.25	11.00	9.50	12.50	5.25	7.75	-0.226562	0.088867	1.032715	-4.200000	64.680000	-12.880000	828.00	0.26	-0.07
2.35	0.00	0.25	0.00	0.00	0.00	0.00	1.00	0.00	0.00	0.00	0.00	0.00	0.00	0.00	0.00	0.00	-3.419922	-1.188477	0.633789	152.460007	-156.940002	68.739998	17.00	0.00	0.00	0.00	0.25	0.00	0.50	0.00	0.00	0.00	1.00	9.25	13.25	14.50	11.25	9.25	14.00	5.50	8.00	-0.235352	0.070312	1.048340	-5.670000	83.860001	-13.370000	853.00	0.26	-0.06
2.36	0.00	0.25	0.00	0.00	0.00	0.00	1.00	0.00	0.00	0.00	0.00	0.00	0.00	0.00	0.00	0.00	-3.529785	-1.647949	0.732910	132.860001	-126.840004	71.959999	17.00	0.00	0.00	0.00	0.00	0.00	0.25	0.00	0.00	0.00	0.75	9.75	13.75	14.75	11.25	9.25	15.50	6.00	8.25	-0.236816	0.061035	1.078613	-10.290000	104.930000	-13.020000	878.00	0.27	-0.05
2.37	0.00	0.00	0.00	0.00	0.00	0.00	1.00	0.00	0.00	0.00	0.00	0.00	0.00	0.00	0.00	0.00	-3.556641	-1.932617	0.593750	101.080002	-110.879997	62.650002	15.00	0.00	0.00	0.00	0.00	0.00	1.00	0.00	0.00	0.00	1.00	10.25	14.00	15.00	11.25	9.25	16.50	6.50	8.25	-0.276367	0.090332	1.081543	-15.820000	128.729996	-12.600000	916.00	0.26	-0.05
2.38	0.00	0.00	0.00	0.00	0.00	0.00	1.00	0.00	0.00	0.00	0.00	0.00	0.00	0.00	0.00	0.00	-3.679688	-2.101074	0.303223	62.230000	-95.129997	42.070000	15.00	0.00	0.00	0.00	0.00	0.00	0.25	0.00	0.00	0.00	0.75	10.50	14.25	14.75	11.00	9.00	17.50	6.75	8.50	-0.302246	0.085938	1.092773	-16.870001	154.630005	-13.720000	915.00	0.27	-0.04
2.39	0.00	0.50	0.00	0.25	0.00	0.00	1.00	0.00	0.00	0.00	0.00	0.00	0.00	0.00	0.00	0.00	-3.661133	-1.996094	-0.063965	26.740000	-72.239998	15.540000	22.00	0.00	0.00	0.00	0.00	0.00	0.25	0.00	0.00	0.00	0.50	11.00	14.50	14.75	11.00	8.50	18.50	7.50	8.50	-0.334961	0.077148	1.126465	-16.309999	178.639999	-14.910000	932.00	0.28	-0.04
2.40	0.00	0.25	0.00	0.25	0.00	0.00	0.75	0.00	0.00	0.00	0.00	0.00	0.00	0.00	0.00	0.00	-4.640625	-3.125977	-0.800781	-114.379997	20.650000	2.100000	16.00	0.00	0.00	0.00	0.00	0.00	0.00	0.00	0.00	0.00	0.50	11.25	14.75	14.75	10.75	8.50	19.00	7.50	8.50	-0.391113	0.044922	1.136719	-14.420000	202.440002	-16.379999	937.00	0.28	-0.03
2.41	0.25	0.25	0.00	0.25	0.00	0.00	0.75	0.00	0.00	0.00	0.00	0.00	0.00	0.00	0.00	0.00	-5.115723	-1.725098	-1.011230	-221.410004	87.849998	-17.150000	19.00	0.00	0.00	0.00	0.00	0.00	0.00	0.00	0.00	0.00	0.50	11.50	15.00	14.50	10.75	8.25	19.00	7.50	8.75	-0.395508	0.066895	1.147461	-10.430000	229.740005	-15.820000	939.00	0.28	-0.03
2.42	0.50	1.50	0.25	0.25	0.00	0.00	0.75	0.00	0.00	0.00	0.00	0.00	0.00	0.00	0.00	0.00	-2.935059	-1.143066	0.074219	-252.210007	152.529999	-32.130001	36.00	0.00	0.00	0.00	0.00	0.00	0.00	0.00	0.00	0.00	0.75	11.00	15.00	14.50	10.50	7.75	19.25	7.75	8.50	-0.435547	0.089355	1.152344	-8.540000	258.720001	-17.290001	933.00	0.28	-0.03
2.43	3.00	4.25	1.25	3.00	0.25	0.00	1.00	0.00	0.00	0.00	0.00	0.00	0.00	0.00	0.00	0.00	-2.140625	0.383301	3.320801	-139.229996	229.460007	-12.950000	135.00	-0.30	-0.04	0.00	0.00	0.00	0.00	0.00	0.00	0.00	0.50	10.75	15.00	14.25	10.00	7.50	19.00	7.75	8.25	-0.447754	0.077148	1.222656	-8.120000	297.079987	-19.740000	912.00	0.28	-0.03
2.44	7.75	8.50	3.50	5.50	0.75	0.25	1.00	0.00	0.00	0.00	0.00	0.00	0.00	0.00	0.00	0.00	-0.632324	-0.567871	2.950195	-29.049999	150.919998	-3.710000	284.00	-0.33	-0.04	0.00	0.00	0.00	0.00	0.00	0.00	0.00	0.00	10.00	14.75	14.00	9.50	6.25	18.75	8.00	8.00	-0.525391	0.096680	1.312988	-9.800000	342.720001	-22.260000	873.00	0.29	-0.02
2.45	10.50	11.25	5.00	7.00	1.00	0.50	1.00	0.00	0.00	0.00	0.00	0.00	0.00	0.00	0.00	0.00	-0.243652	0.333496	0.934082	9.170000	76.440002	-23.520000	376.00	-0.33	-0.04	0.00	0.00	0.00	0.00	0.00	0.00	0.00	0.00	9.50	14.25	13.50	8.50	5.50	18.50	7.75	7.75	-0.564453	0.130859	1.297852	-20.020000	396.619995	-28.000000	833.00	0.29	-0.02
2.46	12.50	12.25	5.50	7.75	1.00	0.75	1.00	0.00	0.00	0.00	0.00	0.25	0.00	0.00	0.00	0.00	-0.150879	0.870605	0.760742	-73.360001	83.300003	-12.670000	425.00	-0.33	-0.04	0.00	0.00	0.00	0.00	0.00	0.00	0.00	0.00	8.50	13.00	12.25	7.75	3.75	18.00	7.25	7.00	-0.726074	0.128418	1.573730	-40.110001	454.860016	-36.889999	757.00	0.29	-0.01
2.47	12.25	12.00	6.50	7.75	1.25	0.75	1.25	0.00	0.00	0.25	0.25	0.00	0.00	0.00	0.00	0.00	-0.393555	0.144043	1.835449	-154.419998	85.820000	-6.300000	441.00	-0.32	-0.03	0.00	0.00	0.00	0.00	0.00	0.00	0.00	0.00	7.00	11.50	10.75	6.25	2.50	17.25	6.75	6.50	-0.897461	0.279785	1.632324	-60.619999	505.820007	-45.920002	665.00	0.30	-0.00
2.48	13.50	11.75	7.75	8.75	1.50	1.25	1.25	0.00	0.00	0.50	0.50	0.25	0.00	0.00	0.00	0.00	-0.309570	-0.181152	1.280762	-163.240005	26.040001	-8.890000	492.00	-0.31	-0.03	0.00	0.00	0.00	0.00	0.00	0.00	0.00	0.00	5.50	10.00	9.00	4.50	1.25	15.75	6.00	5.50	-1.299316	0.372559	1.970215	-67.690002	533.960022	-60.270000	556.00	0.30	0.01
2.49	14.00	12.50	8.25	9.00	2.00	1.25	1.50	0.00	0.25	0.50	0.50	0.25	0.25	0.00	0.00	0.00	-0.300293	0.021484	0.930176	-34.860001	-44.450001	-5.040000	528.00	-0.30	-0.03	0.00	0.00	0.00	0.00	0.00	0.00	0.00	0.00	4.75	8.50	7.75	2.75	1.25	13.75	4.50	4.25	-2.224609	0.353027	3.125000	-43.330002	542.359985	-66.639999	459.00	0.30	0.02
2.50	14.75	13.00	9.00	9.25	2.50	1.50	1.50	0.25	0.50	1.00	0.75	0.50	0.50	0.00	0.00	0.00	-0.236328	0.014648	0.951172	-19.460001	-38.290001	-2.240000	579.00	-0.28	-0.03	0.00	0.00	0.00	0.00	0.00	0.00	0.00	0.00	3.75	7.75	5.75	1.75	0.50	11.00	2.75	2.75	-2.459961	0.705078	3.187988	-34.020000	536.130005	-74.410004	350.00	0.30	0.04
2.51	14.50	13.25	9.75	10.00	2.75	2.25	2.00	0.50	0.50	0.75	1.00	1.00	0.75	0.50	0.00	0.25	-0.212402	0.041016	0.967773	-14.210000	-31.850000	-2.170000	631.00	-0.26	-0.04	0.00	0.00	0.00	0.00	0.00	0.00	0.25	0.00	2.50	6.00	4.25	1.75	0.50	8.50	2.25	1.75	-1.919922	0.692383	3.167969	14.210000	520.659973	-64.540001	272.00	0.30	0.03
2.52	16.00	13.75	10.25	10.25	3.50	2.50	2.00	0.50	1.25	1.00	1.50	1.00	1.00	0.75	0.00	0.50	-0.220703	0.033691	0.963867	-10.220000	-24.080000	-1.750000	693.00	-0.25	-0.03	0.00	0.00	0.00	0.00	0.00	0.00	0.00	0.00	2.25	5.00	3.25	1.25	0.00	5.75	1.25	0.75	0.039551	1.177734	3.226074	147.139999	423.079987	-113.120003	195.00	0.30	0.05
2.53	15.25	13.50	10.75	11.00	4.25	3.00	2.00	0.50	1.75	1.25	1.50	1.25	1.25	1.25	0.00	0.50	-0.199219	0.037109	0.973145	-5.040000	-16.030001	-0.490000	729.00	-0.23	-0.03	0.00	0.25	0.00	0.50	0.25	0.00	0.25	0.00	1.50	3.50	2.25	1.00	0.00	1.25	0.50	0.25	2.178223	1.007812	2.562500	198.029999	332.709991	-135.869995	122.00	0.21	0.02
2.54	15.00	14.00	10.75	11.25	4.75	3.75	2.00	1.00	1.50	1.25	2.00	1.50	1.50	2.00	0.25	0.75	-0.204102	0.033691	0.968262	-1.050000	-8.750000	0.770000	772.00	-0.22	-0.04	0.00	0.25	0.00	0.00	0.00	0.00	0.25	0.00	1.00	2.75	1.50	0.50	0.00	0.50	0.25	0.25	5.171387	1.935059	5.874023	129.149994	114.309998	-141.960007	77.00	0.23	0.03
2.55	14.50	13.50	11.00	11.75	5.00	3.75	2.25	0.75	2.00	1.50	2.25	2.00	2.00	2.00	0.25	1.00	-0.202637	0.034668	0.971191	1.470000	-2.450000	2.100000	796.00	-0.20	-0.04	0.00	0.00	0.25	0.00	0.00	0.00	0.25	0.00	0.75	2.50	1.75	0.25	0.00	0.25	0.00	0.00	1.352051	1.507324	4.614746	29.610001	-106.680000	-68.389999	65.00	0.21	0.05
2.56	13.50	13.00	10.75	11.75	5.25	4.50	2.25	0.75	2.25	1.75	2.75	2.25	2.50	2.25	0.50	1.25	-0.202637	0.043457	0.960938	5.040000	2.590000	3.150000	813.00	-0.18	-0.05	0.00	0.00	0.00	0.00	0.00	0.00	0.25	0.00	0.50	2.00	1.00	0.25	0.00	0.00	0.00	0.00	2.579102	0.618652	1.719727	-64.540001	-190.470001	2.310000	44.00	0.00	0.00
2.57	12.75	12.50	10.25	11.50	5.25	4.50	2.25	1.25	2.00	1.75	3.00	3.00	2.75	2.50	0.50	1.25	-0.182129	0.046387	0.956055	7.840000	6.440000	3.430000	812.00	-0.17	-0.06	0.00	0.00	0.00	0.00	0.00	0.00	0.50	0.00	0.50	1.75	1.00	0.25	0.00	0.00	0.00	0.00	1.471680	1.000977	1.044922	-84.559998	-168.490005	32.480000	45.00	0.00	0.00
2.58	10.75	11.50	9.50	10.75	5.25	4.25	2.50	1.25	2.50	2.25	3.75	3.75	3.75	2.25	0.50	1.50	-0.192383	0.053711	0.966309	9.030000	10.500000	2.940000	802.00	-0.14	-0.06	0.00	0.25	0.25	0.00	0.00	0.00	0.25	0.00	0.50	1.50	1.00	0.00	0.00	0.00	0.00	0.00	1.540039	1.278809	1.880371	-37.799999	-160.160004	40.180000	41.00	0.00	0.00
2.59	9.50	10.75	8.75	10.00	5.00	4.50	2.50	1.50	3.00	2.75	5.00	4.50	4.25	2.75	0.75	1.50	-0.196289	0.048340	0.965332	9.660000	14.350000	2.380000	813.00	-0.11	-0.07	0.00	0.25	0.00	0.25	0.00	0.00	0.25	0.00	0.25	0.75	0.75	0.00	0.00	0.00	0.00	0.00	1.665527	0.706055	2.131348	34.439999	-208.740005	38.080002	28.00	0.00	0.00
2.60	8.50	9.50	8.00	9.00	4.75	4.00	2.50	1.25	3.00	3.25	5.75	5.25	5.00	3.00	0.75	1.50	-0.193848	0.052734	0.966797	10.430000	17.850000	2.170000	790.00	-0.08	-0.07	0.00	0.25	0.00	0.00	0.00	0.00	0.25	0.00	0.50	1.00	0.75	0.00	0.00	0.00	0.00	0.00	1.257812	0.262695	2.151367	60.200001	-273.279999	31.710001	31.00	0.00	0.00
2.61	7.00	8.25	7.00	8.25	4.25	3.25	2.50	1.75	4.00	4.00	7.00	6.00	5.50	3.75	0.75	1.75	-0.200195	0.049805	0.966797	10.780000	21.840000	1.540000	791.00	-0.04	-0.07	0.00	0.25	0.00	0.00	0.00	0.00	0.25	0.00	0.00	1.00	0.25	0.00	0.00	0.00	0.00	0.00	0.995117	0.270996	2.147461	50.259998	-325.220001	30.660000	19.00	0.00	0.00
2.62	6.00	7.00	6.00	7.25	3.50	2.75	2.25	1.50	4.50	4.50	7.75	7.00	6.00	3.75	1.25	2.00	-0.196777	0.122559	0.986816	10.150000	25.690001	0.770000	767.00	-0.01	-0.07	0.00	0.00	0.00	0.00	0.00	0.00	0.25	0.00	0.00	0.75	0.50	0.00	0.00	0.00	0.00	0.00	0.716797	0.454590	2.156250	34.299999	-372.890015	37.939999	17.00	0.00	0.00
2.63	4.50	6.00	4.75	6.00	2.75	2.00	2.50	1.00	4.50	5.50	8.25	7.50	6.25	4.25	1.25	2.00	-0.199219	0.078613	0.966309	9.310000	29.680000	-0.140000	722.00	0.03	-0.07	0.00	0.25	0.00	0.00	0.00	0.00	0.25	0.00	0.00	0.50	0.00	0.00	0.00	0.00	0.00	0.00	0.414551	0.496582	2.062500	29.049999	-416.149994	48.650002	11.00	0.00	0.00
2.64	3.75	4.50	3.25	5.00	2.00	1.25	2.25	1.25	5.25	6.75	8.75	8.00	6.50	4.50	1.25	2.25	-0.201172	0.067383	0.965820	8.400000	35.980000	-1.610000	695.00	0.07	-0.07	0.00	0.00	0.00	0.00	0.25	0.00	0.25	0.00	0.00	0.50	0.00	0.00	0.00	0.00	0.00	0.00	0.099121	0.444336	1.840820	31.080000	-447.089996	58.939999	12.00	0.00	0.00
2.65	2.25	2.75	2.25	3.50	1.50	1.00	2.25	1.00	5.50	7.50	9.25	8.25	6.50	5.00	1.25	2.50	-0.209961	0.070801	0.953125	7.490000	40.950001	-3.360000	649.00	0.12	-0.07	0.00	0.50	0.00	0.00	0.00	0.00	0.25	0.00	0.00	0.25	0.00	0.00	0.00	0.00	0.00	0.00	-0.189941	0.436523	1.585449	39.900002	-458.290009	67.199997	11.00	0.00	0.00
2.66	1.50	2.00	1.50	2.25	1.00	0.25	2.00	0.50	5.25	8.00	9.75	8.50	6.50	5.25	1.25	2.50	-0.221680	0.060059	0.960938	5.390000	44.380001	-4.410000	599.00	0.15	-0.06	0.00	0.25	0.00	0.00	0.25	0.00	0.25	0.00	0.00	0.25	0.00	0.00	0.00	0.00	0.00	0.00	-0.407227	0.359863	1.600098	46.200001	-457.940002	72.379997	11.00	0.00	0.00
2.67	0.50	1.75	1.00	1.75	0.75	0.00	2.00	0.50	7.00	8.50	10.25	8.75	6.50	5.50	1.50	2.50	-0.236328	0.079102	0.961426	2.940000	47.040001	-5.040000	610.00	0.18	-0.05	0.00	0.00	0.25	0.25	0.00	0.00	0.25	0.00	0.00	0.25	0.00	0.00	0.00	0.00	0.00	0.00	-0.583984	0.349609	1.650391	52.639999	-450.170013	76.370003	12.00	0.00	0.00
2.68	0.50	1.50	0.25	1.50	0.50	0.00	2.00	0.50	7.75	8.75	10.75	9.25	6.50	6.50	1.50	2.50	-0.265137	0.048340	0.933105	-0.350000	49.560001	-5.670000	625.00	0.20	-0.05	0.00	0.25	0.00	0.00	0.00	0.00	0.25	0.00	0.00	0.00	0.00	0.00	0.00	0.00	0.00	0.00	-0.720215	0.356445	1.766602	56.910000	-439.040009	79.379997	6.00	0.00	0.00
2.69	0.00	0.75	0.00	0.75	0.25	0.00	2.00	0.00	8.00	9.25	11.00	9.50	6.25	7.50	1.75	2.75	-0.228027	0.122070	0.939941	-3.290000	47.250000	-6.230000	616.00	0.23	-0.04	0.00	0.25	0.00	0.00	0.00	0.00	0.50	0.00	0.00	0.00	0.00	0.00	0.00	0.00	0.00	0.00	-0.809570	0.475098	1.933594	61.250000	-427.070007	82.809998	10.00	0.00	0.00
2.70	0.00	0.50	0.25	0.50	0.00	0.00	1.75	0.00	8.25	9.75	11.50	9.50	6.25	8.25	1.75	3.00	-0.248535	0.073242	0.935547	-2.450000	65.379997	-7.980000	629.00	0.24	-0.03	0.00	0.00	0.00	0.00	0.00	0.00	0.25	0.00	0.00	0.00	0.00	0.00	0.00	0.00	0.00	0.00	-0.969727	0.492188	2.285645	66.709999	-417.130005	83.090004	4.00	0.00	0.00
2.71	0.00	0.25	0.25	0.75	0.00	0.00	1.50	0.00	8.75	10.00	11.75	9.50	6.00	9.00	1.75	3.00	-0.271484	0.060547	0.939941	-1.820000	71.260002	-8.190000	641.00	0.24	-0.03	0.00	0.00	0.00	0.00	0.00	0.00	0.25	0.00	0.00	0.00	0.00	0.00	0.00	0.00	0.00	0.00	-1.103516	0.597656	2.223145	75.389999	-407.329987	81.410004	4.00	0.00	0.00
2.72	0.00	0.00	0.25	0.75	0.00	0.00	1.50	0.25	9.00	10.50	12.00	9.50	5.75	10.00	2.00	3.25	-0.299805	0.057129	0.955078	-4.060000	74.129997	-9.170000	664.00	0.25	-0.03	0.00	0.00	0.00	0.00	0.00	0.00	0.25	0.00	0.00	0.00	0.00	0.00	0.00	0.00	0.00	0.00	-1.821289	0.735352	1.828125	94.360001	-375.130005	82.599998	4.00	0.00	0.00
2.73	0.00	0.00	0.00	0.50	0.00	0.00	1.50	0.00	9.25	10.75	12.25	9.75	5.50	11.00	2.50	3.50	-0.289062	0.057617	0.945801	-7.280000	76.090004	-9.870000	679.00	0.25	-0.02	0.00	0.25	0.00	0.00	0.00	0.00	0.25	0.00	0.00	0.00	0.00	0.00	0.00	0.00	0.00	0.00	-2.250977	0.671387	1.493164	107.239998	-343.980011	87.570000	6.00	0.00	0.00
2.74	0.00	0.00	0.00	0.50	0.00	0.00	1.25	0.00	9.75	11.50	12.50	9.75	5.50	12.00	2.50	3.50	-0.301758	0.068359	0.995605	-12.250000	78.050003	-11.200000	701.00	0.26	-0.02	0.00	0.25	0.00	0.00	0.00	0.00	0.50	0.00	0.00	0.00	0.00	0.00	0.00	0.00	0.00	0.00	-2.563965	0.401855	1.541016	138.600006	-308.489990	91.419998	10.00	0.00	0.00
2.75	0.00	0.00	0.00	0.00	0.00	0.00	1.25	0.00	10.00	11.75	12.75	10.00	5.50	12.75	2.50	4.00	-0.315430	0.048828	0.934082	-13.580000	79.449997	-12.530000	716.00	0.26	-0.01	0.00	0.00	0.00	0.00	0.00	0.00	0.25	0.00	0.00	0.00	0.00	0.00	0.00	0.00	0.00	0.00	-2.902344	-0.049805	1.642578	159.740005	-276.149994	98.279999	4.00	0.00	0.00
2.76	0.00	0.00	0.00	0.00	0.00	0.00	1.00	0.00	10.50	12.25	13.00	10.25	5.50	13.75	3.00	4.25	-0.333984	0.052246	0.934082	-13.370000	82.529999	-12.950000	744.00	0.27	-0.01	0.00	0.00	0.00	0.00	0.00	0.00	0.50	0.00	0.00	0.00	0.00	0.00	0.00	0.00	0.00	0.00	-3.093262	-0.472168	1.615723	132.720001	-255.360001	105.419998	8.00	0.00	0.00
2.77	0.00	0.00	0.00	0.25	0.00	0.00	1.00	0.25	11.25	13.00	13.50	10.50	5.50	15.00	3.25	4.25	-0.341797	0.037109	0.946289	-13.020000	87.150002	-12.670000	789.00	0.26	-0.01	0.00	0.00	0.00	0.00	0.00	0.00	0.25	0.00	0.00	0.00	0.00	0.00	0.00	0.00	0.00	0.00	-3.260742	-0.675781	1.357910	91.489998	-243.110001	102.199997	4.00	0.00	0.00
2.78	0.00	0.00	0.00	0.25	0.00	0.00	1.00	0.00	11.50	13.75	13.75	10.50	5.50	15.75	3.75	4.50	-0.369141	0.024902	0.953125	-12.250000	92.889999	-11.340000	812.00	0.27	-0.01	0.00	0.25	0.00	0.00	0.00	0.00	0.25	0.00	0.00	0.00	0.00	0.00	0.00	0.00	0.00	0.00	-3.548828	-0.847656	0.920898	71.820000	-228.479996	83.930000	6.00	0.00	0.00
2.79	0.00	0.00	0.00	0.25	0.00	0.00	0.75	0.25	11.75	14.00	14.00	10.75	5.50	16.25	4.25	4.75	-0.380371	0.032715	0.984863	-11.130000	102.199997	-9.730000	834.00	0.27	-0.01	0.00	0.25	0.00	0.00	0.00	0.00	0.25	0.00	0.00	0.00	0.00	0.00	0.00	0.00	0.00	0.00	-4.054199	-0.932617	0.484375	60.549999	-203.910004	58.799999	6.00	0.00	0.00
2.80	0.00	0.25	0.00	0.00	0.00	0.00	0.75	0.25	11.75	14.50	13.75	10.50	5.25	17.00	5.00	5.00	-0.400879	0.041016	1.014648	-10.220000	117.599998	-8.400000	847.00	0.27	-0.01	0.00	0.00	0.00	0.00	0.25	0.00	0.25	0.00	0.00	0.00	0.00	0.00	0.00	0.00	0.00	0.00	-4.395508	-1.366211	-0.085938	7.140000	-144.410004	46.689999	7.00	0.00	0.00
2.81	0.00	0.00	0.00	0.00	0.00	0.00	0.75	0.25	12.00	14.75	14.00	10.25	5.25	17.50	5.00	5.00	-0.417480	0.049316	0.990234	-11.690000	137.130005	-9.030000	855.00	0.27	-0.00	0.00	0.25	0.00	0.00	0.00	0.00	0.25	0.00	0.00	0.00	0.00	0.00	0.00	0.00	0.00	0.00	-4.726562	-0.758301	-0.414551	-50.330002	-87.360001	52.570000	6.00	0.00	0.00
2.82	0.00	0.00	0.00	0.00	0.00	0.00	0.75	0.00	12.25	15.50	13.75	10.25	5.00	18.00	5.25	5.25	-0.441895	0.050781	1.006836	-13.300000	157.850006	-11.760000	866.00	0.28	0.00	0.00	0.75	0.50	0.25	0.00	0.00	0.25	0.00	0.00	0.00	0.00	0.00	0.00	0.00	0.00	0.00	-4.972168	-0.793945	-0.494629	-63.139999	-27.510000	69.790001	19.00	0.00	0.00
2.83	0.00	0.00	0.00	0.00	0.00	0.00	0.50	0.00	12.50	15.75	13.75	10.00	4.50	18.75	5.25	5.50	-0.487305	0.057129	1.068848	-15.330000	179.899994	-14.420000	868.00	0.28	0.01	0.25	1.00	0.75	0.50	0.00	0.00	0.25	0.00	0.00	0.00	0.00	0.00	0.00	0.00	0.00	0.00	-5.696777	-1.185059	-0.706543	-79.239998	31.990000	81.970001	29.00	0.00	0.00
2.84	0.00	0.00	0.00	0.00	0.00	0.00	0.25	0.00	12.75	16.00	13.50	9.50	4.00	19.00	5.75	5.50	-0.517578	0.061523	1.113281	-19.040001	209.580002	-17.150000	866.00	0.28	0.01	1.25	2.50	1.00	1.50	0.00	0.00	0.25	0.00	0.00	0.00	0.00	0.00	0.00	0.00	0.00	0.00	-6.677734	-1.213379	-1.334961	-111.230003	101.430000	85.750000	67.00	-0.33	-0.06
2.85	0.00	0.00	0.00	0.00	0.00	0.00	0.25	0.00	13.00	16.25	13.00	8.75	3.25	19.50	6.00	5.50	-0.548828	0.069336	1.136719	-25.620001	246.190002	-21.840000	859.00	0.28	0.02	6.25	7.00	2.25	4.00	0.00	0.00	0.25	0.00	0.00	0.00	0.00	0.00	0.00	0.00	0.00	0.00	-1.681641	-2.158203	0.313477	-125.160004	233.729996	67.199997	202.00	-0.36	-0.05
2.86	0.00	0.00	0.00	0.00	0.00	0.00	0.25	0.00	13.00	16.50	12.50	7.75	2.50	19.50	6.00	5.50	-0.603516	0.096191	1.157715	-34.299999	286.929993	-30.100000	839.00	0.29	0.03	14.50	12.25	4.50	8.50	0.25	0.00	0.25	0.00	0.00	0.00	0.00	0.00	0.00	0.00	0.00	0.00	-0.732422	-0.750977	5.004395	-80.639999	319.410004	14.770000	413.00	-0.36	-0.04
2.87	0.00	0.00	0.00	0.00	0.00	0.00	0.25	0.00	13.00	16.00	11.75	6.50	2.00	19.50	6.00	5.25	-0.685059	0.116211	1.257812	-44.869999	332.010010	-41.230000	807.00	0.29	0.04	20.00	15.50	8.00	10.00	1.00	0.00	0.50	0.00	0.00	0.00	0.00	0.00	0.00	0.00	0.00	0.00	-0.555664	-0.871582	3.473633	-60.340000	191.729996	-31.920000	567.00	-0.35	-0.03
2.88	0.00	0.00	0.00	0.00	0.00	0.00	0.25	0.00	13.00	15.50	10.75	5.50	1.50	19.00	5.50	4.75	-0.743164	0.135742	1.251465	-60.410000	382.269989	-56.209999	764.00	0.29	0.05	22.00	16.75	9.25	10.75	1.50	0.50	0.50	0.00	0.00	0.00	0.00	0.00	0.00	0.00	0.00	0.00	-0.113770	1.090332	0.777344	-31.850000	204.470001	-7.700000	632.00	-0.35	-0.03
2.89	0.00	0.00	0.00	0.00	0.00	0.00	0.25	0.00	12.50	14.25	9.25	4.25	1.00	18.50	5.50	3.75	-1.079590	0.112793	1.823242	-116.690002	509.040009	-89.669998	702.00	0.29	0.06	22.00	16.75	11.00	12.00	1.75	1.25	0.50	0.00	0.00	0.00	0.00	0.00	0.00	0.00	0.00	0.00	-0.113770	1.090332	0.777344	-31.850000	204.470001	-7.700000	677.00	-0.34	-0.03
2.90	0.00	0.00	0.00	0.00	0.00	0.00	0.25	0.00	11.00	12.25	8.00	2.50	1.00	17.75	4.75	3.00	-1.079590	0.112793	1.823242	-116.690002	509.040009	-89.669998	611.00	0.30	0.07	21.75	16.00	12.00	12.75	2.50	2.25	0.75	0.25	0.00	0.00	0.25	0.00	0.25	0.00	0.00	0.00	-1.166504	-0.455566	5.533203	-201.110001	186.270004	0.630000	718.00	-0.32	-0.03
2.91	0.00	0.00	0.00	0.00	0.00	0.00	0.50	0.00	8.50	10.50	6.50	1.75	0.25	16.75	3.75	2.25	-2.817871	-0.397461	3.124023	-142.240005	565.179993	-102.620003	511.00	0.30	0.08	22.00	15.50	12.75	12.75	3.00	2.75	0.75	0.50	0.25	0.25	0.25	0.25	1.00	0.00	0.00	0.50	-0.487793	-0.160645	1.670898	-171.710007	29.190001	-9.450000	757.00	-0.31	-0.04
2.92	0.00	0.00	0.00	0.00	0.00	0.00	0.75	0.00	7.00	9.25	4.75	1.00	0.00	14.50	2.25	1.25	-2.789551	0.612793	3.436523	-181.509995	596.260010	-125.720001	413.00	0.30	0.10	21.75	15.75	13.25	13.50	4.25	3.25	0.75	0.50	0.50	0.75	0.50	0.00	1.50	0.00	0.00	0.50	-0.192871	0.077637	1.020020	-23.660000	-36.889999	-0.420000	802.00	-0.29	-0.04
2.93	0.00	0.00	0.00	0.00	0.00	0.00	0.75	0.00	5.75	8.00	3.50	1.00	0.00	11.75	1.25	0.75	-2.861816	2.044434	3.896484	-134.470001	573.159973	-133.559998	334.00	0.30	0.11	21.75	15.50	13.75	13.50	5.25	4.00	0.75	0.75	0.75	1.25	0.75	0.50	1.75	0.00	0.00	0.75	-0.167969	0.076172	0.990234	-10.920000	-25.620001	0.910000	848.00	-0.28	-0.04
2.94	0.00	0.00	0.00	0.00	0.00	0.00	0.75	0.00	5.00	6.50	2.50	0.50	0.00	8.75	0.50	0.50	-1.002441	1.542969	3.365723	-12.670000	514.780029	-151.130005	258.00	0.29	0.13	21.25	15.50	14.00	13.75	5.75	4.75	0.75	0.75	1.25	1.25	1.00	1.00	2.75	0.00	0.25	1.00	-0.162109	0.077148	0.987793	-4.130000	-17.780001	2.170000	890.00	-0.26	-0.05
2.95	0.00	0.00	0.00	0.00	0.00	0.00	0.75	0.00	3.50	5.00	2.25	0.75	0.00	4.75	0.50	0.50	-0.021973	1.481445	3.679688	62.580002	421.399994	-175.350006	189.00	0.27	0.10	21.00	15.00	13.75	14.00	6.25	5.00	1.00	1.25	1.25	1.50	1.50	1.00	3.25	0.25	0.25	1.50	-0.138184	0.074707	0.997559	0.140000	-12.670000	3.080000	919.00	-0.24	-0.05
2.96	0.00	0.00	0.00	0.00	0.00	0.00	1.00	0.00	2.75	3.75	1.50	0.25	0.00	1.50	0.00	0.25	5.128906	2.458496	4.007812	53.130001	267.470001	-188.580002	123.00	0.24	0.12	19.75	14.50	13.50	13.75	6.50	5.75	1.00	1.50	1.25	1.75	1.75	1.50	3.75	0.50	0.75	2.00	-0.145996	0.072266	0.991211	3.290000	-7.980000	3.570000	936.00	-0.22	-0.06
2.97	0.00	0.25	0.00	0.25	0.00	0.00	1.00	0.00	1.75	3.25	1.25	0.00	0.00	0.75	0.00	0.00	0.989746	2.227051	4.899414	16.379999	23.170000	-88.970001	96.00	0.20	0.11	18.25	12.75	13.25	13.25	6.50	6.00	1.00	1.75	1.75	2.00	2.25	2.00	4.50	0.75	0.50	2.25	-0.157227	0.085938	1.000488	6.510000	-3.290000	4.340000	929.00	-0.20	-0.07
2.98	0.00	0.00	0.00	0.00	0.00	0.00	1.00	0.00	1.50	2.75	1.25	0.00	0.00	0.75	0.00	0.00	1.906738	2.253418	2.539062	-17.150000	-119.139999	29.120001	83.00	0.23	0.13	17.00	12.75	12.50	12.75	6.25	6.50	1.00	2.00	1.75	2.00	2.25	2.50	5.00	0.25	0.75	2.50	-0.143066	0.081543	0.999512	9.870000	1.190000	5.320000	918.00	-0.19	-0.08
2.99	0.00	0.00	0.00	0.00	0.00	0.00	1.00	0.00	1.00	2.50	1.00	0.00	0.00	0.00	0.00	0.00	1.252930	1.494629	1.082520	-47.880001	-120.540001	113.889999	65.00	0.20	0.12	15.25	11.50	11.50	12.25	6.00	6.75	1.00	2.50	1.25	2.25	2.75	2.75	5.50	1.00	1.00	2.75	-0.141113	0.092285	0.988281	12.040000	4.830000	5.600000	898.00	-0.17	-0.09
3.00	0.00	0.00	0.00	0.00	0.00	0.00	1.00	0.00	1.00	2.00	1.25	0.00	0.00	0.00	0.00	0.00	1.065918	1.464355	1.813965	-40.389999	-107.660004	157.570007	62.00	0.20	0.11	12.50	10.25	10.50	11.25	5.50	6.50	1.00	3.00	1.50	2.25	3.25	3.75	6.25	1.00	1.00	3.00	-0.138184	0.095215	0.993164	13.090000	8.470000	5.040000	862.00	-0.15	-0.10
3.01	0.00	0.00	0.00	0.00	0.00	0.00	1.00	0.00	0.50	1.75	0.50	0.00	0.00	0.00	0.00	0.00	1.405273	0.926270	2.182617	19.600000	-144.199997	158.130005	45.00	0.00	0.00	10.00	9.25	9.25	10.75	5.00	6.00	1.00	3.00	1.25	2.75	4.00	4.00	7.25	1.25	1.00	3.25	-0.152344	0.099609	0.991699	13.090000	11.620000	4.410000	822.00	-0.12	-0.11
3.02	0.00	0.00	0.00	0.00	0.00	0.00	0.75	0.00	0.50	1.50	1.00	0.25	0.00	0.00	0.00	0.00	1.172363	0.430664	2.310059	84.840004	-210.490005	134.820007	47.00	0.00	0.00	8.25	8.00	8.00	9.50	4.25	5.50	1.00	2.75	1.75	2.75	5.25	4.00	7.25	1.00	1.00	3.25	-0.143555	0.111816	0.987793	11.900000	14.490000	3.150000	764.00	-0.10	-0.12
3.03	0.00	0.25	0.00	0.00	0.00	0.00	0.75	0.00	0.50	1.25	0.50	0.00	0.00	0.00	0.00	0.00	0.983398	0.055664	2.270508	124.040001	-273.000000	110.040001	38.00	0.00	0.00	6.50	7.00	7.00	8.50	3.50	4.75	1.00	2.50	1.50	3.25	6.25	5.00	7.50	1.50	1.00	4.25	-0.138672	0.114258	0.984375	10.430000	16.730000	1.540000	730.00	-0.06	-0.13
3.04	0.00	0.25	0.00	0.00	0.00	0.00	1.00	0.00	0.00	1.00	0.50	0.25	0.00	0.00	0.00	0.00	0.806641	-0.096191	2.141602	131.740005	-328.019989	94.150002	36.00	0.00	0.00	5.00	5.50	5.50	7.25	2.50	3.00	1.00	2.25	1.75	3.50	7.50	5.75	7.50	2.00	1.25	4.25	-0.138184	0.111328	0.978516	9.100000	18.830000	0.560000	670.00	-0.02	-0.13
3.05	0.00	0.00	0.00	0.00	0.00	0.25	1.00	0.00	0.25	0.75	0.50	0.25	0.00	0.00	0.00	0.00	0.555664	-0.047852	2.042969	123.900002	-373.799988	89.809998	37.00	0.00	0.00	3.00	4.25	4.50	6.25	2.00	1.75	0.75	1.75	2.25	4.25	8.00	6.50	8.00	1.75	1.25	4.25	-0.094238	0.133789	0.955566	7.350000	21.210001	-0.700000	615.00	0.03	-0.13
3.06	0.00	0.00	0.00	0.00	0.00	0.00	0.75	0.00	0.00	0.50	0.50	0.00	0.00	0.00	0.00	0.00	0.300781	-0.080566	1.911621	116.830002	-408.450012	94.080002	22.00	0.00	0.00	2.50	2.25	2.50	5.00	1.50	0.75	0.75	1.50	2.25	5.50	8.50	7.50	8.25	1.75	1.50	4.75	-0.169434	0.124023	0.956055	4.270000	23.379999	-2.240000	571.00	0.08	-0.14
3.07	0.00	0.00	0.00	0.00	0.00	0.00	0.75	0.00	0.00	0.50	0.50	0.00	0.00	0.00	0.00	0.00	0.084961	-0.165527	1.891113	116.059998	-433.580017	98.349998	22.00	0.00	0.00	1.25	2.00	1.50	3.00	1.00	0.25	0.75	1.00	3.25	6.75	9.00	7.75	8.25	2.25	1.75	5.00	-0.165527	0.113281	0.980957	1.540000	25.760000	-3.990000	547.00	0.14	-0.13
3.08	0.00	0.25	0.00	0.00	0.00	0.25	1.00	0.00	0.00	0.25	0.25	0.00	0.00	0.00	0.00	0.00	-0.173828	-0.282227	1.825684	119.139999	-451.429993	96.180000	25.00	0.00	0.00	0.50	1.00	0.75	2.00	0.75	0.00	0.75	0.75	3.25	8.00	9.75	8.25	8.25	3.00	1.50	5.25	-0.165039	0.110352	0.985352	-3.430000	27.510000	-5.250000	532.00	0.18	-0.12
3.09	0.00	0.00	0.00	0.00	0.00	0.00	0.75	0.00	0.25	0.00	0.00	0.00	0.00	0.00	0.00	0.00	-0.392090	-0.447754	1.779297	121.520004	-461.860016	85.750000	15.00	0.00	0.00	0.50	0.00	1.00	0.75	0.25	0.00	0.50	0.50	4.00	8.50	10.25	8.50	8.25	3.00	2.00	5.25	-0.216309	0.137207	0.955566	-6.650000	29.400000	-7.070000	527.00	0.21	-0.11
3.10	0.00	0.00	0.00	0.00	0.00	0.00	0.75	0.00	0.00	0.00	0.25	0.00	0.00	0.00	0.00	0.00	-0.558594	-0.519043	1.734863	115.500000	-462.910004	66.919998	14.00	0.00	0.00	0.25	0.25	0.00	1.00	0.25	0.00	0.50	0.50	4.75	9.00	10.75	8.75	8.50	3.75	2.00	5.25	-0.179688	0.082520	1.003906	-14.980000	36.610001	-9.870000	550.00	0.22	-0.11
3.11	0.00	0.00	0.00	0.00	0.00	0.00	0.75	0.00	0.00	0.00	0.25	0.00	0.00	0.00	0.00	0.00	-0.687988	-0.459961	1.757324	103.459999	-456.330017	42.840000	14.00	0.00	0.00	0.00	0.25	0.25	0.50	0.25	0.00	0.50	0.25	5.25	9.75	11.25	9.25	8.25	4.75	2.25	6.00	-0.179688	0.082520	1.003906	-14.980000	36.610001	-9.870000	579.00	0.24	-0.10
3.12	0.00	0.00	0.00	0.00	0.00	0.00	0.75	0.00	0.00	0.00	0.00	0.00	0.00	0.00	0.00	0.00	-0.938965	-0.317871	2.047363	99.330002	-444.709991	16.520000	11.00	0.00	0.00	0.25	0.00	0.25	0.50	0.00	0.00	0.25	0.00	6.00	10.25	11.75	9.50	8.25	6.25	2.50	5.75	-0.213867	0.108887	0.998047	-7.910000	64.680000	-8.330000	606.00	0.24	-0.08
3.13	0.00	0.00	0.00	0.00	0.00	0.00	0.75	0.00	0.00	0.00	0.00	0.00	0.00	0.00	0.00	0.00	-1.120117	-0.234375	2.168457	129.710007	-421.959991	-39.270000	11.00	0.00	0.00	0.00	0.00	0.00	0.00	0.00	0.00	0.25	0.25	6.75	11.00	12.00	9.50	8.00	8.00	3.00	6.00	-0.222168	0.103516	1.005859	-7.700000	71.050003	-9.030000	638.00	0.26	-0.07
3.14	0.00	0.00	0.00	0.00	0.00	0.00	1.00	0.00	0.00	0.00	0.00	0.00	0.00	0.00	0.00	0.00	-1.388184	-0.208984	2.130371	145.529999	-411.390015	-61.950001	15.00	0.00	0.00	0.00	0.00	0.00	0.25	0.00	0.00	0.25	0.50	7.25	11.50	12.50	10.00	8.00	8.75	3.25	6.00	-0.236328	0.107422	1.000488	-8.540000	79.099998	-10.360000	676.00	0.25	-0.07
3.15	0.00	0.00	0.00	0.00	0.00	0.00	0.75	0.00	0.00	0.00	0.00	0.00	0.00	0.00	0.00	0.00	-1.785156	-0.265625	1.921875	149.029999	-393.470001	-71.610001	11.00	0.00	0.00	0.00	0.50	0.25	0.00	0.00	0.00	0.25	0.25	7.75	12.25	12.75	10.00	8.00	10.50	4.75	6.25	-0.249512	0.082031	0.984863	-11.760000	89.250000	-11.130000	726.00	0.26	-0.06
3.16	0.00	0.00	0.00	0.00	0.00	0.00	1.00	0.00	0.00	0.00	0.00	0.00	0.00	0.00	0.00	0.00	-2.264160	-0.154785	1.604492	121.379997	-360.429993	-63.910000	15.00	0.00	0.00	0.00	0.00	0.00	0.00	0.00	0.00	0.00	0.25	8.25	12.75	13.00	10.25	8.00	12.00	5.25	6.50	-0.262695	0.081543	0.988770	-13.720000	96.320000	-11.060000	751.00	0.27	-0.05
3.17	0.00	0.25	0.00	0.00	0.00	0.00	1.00	0.00	0.00	0.00	0.00	0.00	0.00	0.00	0.00	0.00	-2.506836	0.146484	1.607422	90.860001	-317.519989	-41.720001	17.00	0.00	0.00	0.00	0.00	0.00	0.00	0.00	0.00	0.00	0.00	8.75	13.50	13.25	10.50	8.00	13.25	5.75	6.75	-0.286133	0.082031	1.006348	-14.210000	103.529999	-10.500000	784.00	0.27	-0.05
3.18	0.00	0.00	0.00	0.00	0.00	0.00	1.00	0.00	0.00	0.00	0.00	0.00	0.00	0.00	0.00	0.00	-2.736816	0.374512	1.739746	98.070000	-286.649994	-11.900000	15.00	0.00	0.00	0.25	0.00	0.00	0.00	0.00	0.00	0.00	0.25	9.25	14.00	13.75	10.50	8.00	14.50	6.50	6.75	-0.311523	0.075195	1.019043	-14.350000	111.650002	-9.870000	826.00	0.27	-0.04
3.19	0.00	0.00	0.00	0.00	0.00	0.00	0.75	0.00	0.00	0.00	0.00	0.00	0.00	0.00	0.00	0.00	-3.078125	0.020996	1.492188	136.570007	-266.489990	19.740000	11.00	0.00	0.00	0.00	0.00	0.00	0.00	0.00	0.00	0.00	0.25	9.50	14.75	14.00	10.75	8.00	16.00	7.00	7.00	-0.320801	0.086914	1.020508	-14.280000	123.340004	-9.310000	859.00	0.28	-0.04
3.20	0.00	0.00	0.00	0.00	0.00	0.25	0.75	0.00	0.00	0.00	0.00	0.00	0.00	0.00	0.00	0.00	-3.580566	-0.734863	1.049316	166.880005	-236.040009	50.959999	14.00	0.00	0.00	0.00	0.00	0.00	0.00	0.00	0.00	0.00	0.00	10.25	15.25	14.00	10.75	7.75	17.00	7.50	7.25	-0.357910	0.100098	1.069336	-13.580000	139.020004	-9.590000	883.00	0.28	-0.03
3.21	0.00	0.25	0.00	0.00	0.00	0.00	1.00	0.00	0.00	0.00	0.00	0.00	0.00	0.00	0.00	0.00	-3.921875	-1.463379	0.663574	154.559998	-190.539993	81.760002	17.00	0.00	0.00	0.00	0.50	0.00	0.00	0.00	0.00	0.00	0.00	10.75	15.75	14.00	10.50	7.50	18.00	7.75	7.50	-0.379883	0.096191	1.118652	-14.140000	160.369995	-10.640000	907.00	0.28	-0.03
3.22	0.00	0.00	0.00	0.00	0.00	0.00	1.00	0.00	0.00	0.00	0.00	0.00	0.00	0.00	0.00	0.00	-4.184570	-1.815430	0.508789	104.510002	-144.690002	106.750000	15.00	0.00	0.00	0.00	0.00	0.00	0.00	0.00	0.00	0.00	0.00	11.50	16.25	14.00	10.25	7.50	18.50	8.00	7.50	-0.404297	0.110840	1.126465	-16.940001	187.110001	-12.740000	922.00	0.28	-0.02
3.23	0.00	0.00	0.00	0.00	0.00	0.25	1.00	0.00	0.00	0.00	0.00	0.00	0.00	0.00	0.00	0.00	-4.339844	-1.891113	0.354004	51.380001	-108.849998	116.410004	18.00	0.00	0.00	0.00	0.00	0.00	0.00	0.00	0.00	0.00	0.00	11.75	16.50	14.00	10.25	7.00	19.25	8.25	7.50	-0.443848	0.114258	1.121094	-19.320000	216.930008	-16.030001	932.00	0.28	-0.02
3.24	0.00	0.00	0.25	0.00	0.00	0.00	0.75	0.00	0.00	0.00	0.00	0.00	0.00	0.00	0.00	0.00	-4.442383	-1.853516	-0.053223	13.370000	-83.370003	107.520004	14.00	0.00	0.00	0.00	0.00	0.00	0.00	0.00	0.00	0.00	0.00	11.75	16.75	13.75	9.75	6.25	19.75	8.50	7.50	-0.499512	0.108398	1.193359	-19.879999	248.080002	-20.299999	927.00	0.29	-0.01
3.25	0.00	0.00	0.00	0.00	0.00	0.00	0.75	0.00	0.00	0.00	0.00	0.00	0.00	0.00	0.00	0.00	-5.284668	-2.582520	-1.066406	-58.730000	-10.360000	95.269997	11.00	0.00	0.00	0.00	0.00	0.00	0.00	0.00	0.00	0.00	0.00	11.75	16.75	13.50	9.25	5.50	20.00	8.50	7.50	-0.502930	0.105469	1.228027	-22.820000	282.450012	-24.150000	915.00	0.29	-0.00
3.26	0.00	0.50	0.00	0.00	0.00	0.00	0.75	0.00	0.00	0.00	0.00	0.00	0.00	0.00	0.00	0.00	-5.688965	-2.117188	-1.416504	-135.240005	67.340004	74.550003	16.00	0.00	0.00	0.00	0.00	0.00	0.00	0.00	0.00	0.00	0.00	11.50	16.75	13.25	8.50	5.25	20.00	8.50	7.25	-0.560547	0.125000	1.205566	-24.219999	321.860016	-29.680000	898.00	0.29	-0.00
3.27	0.25	0.75	0.00	0.50	0.00	0.00	0.75	0.00	0.00	0.00	0.00	0.00	0.00	0.00	0.00	0.00	-5.680176	-1.996094	-1.106445	-182.699997	139.860001	51.450001	26.00	0.00	0.00	0.00	0.00	0.00	0.00	0.00	0.00	0.00	0.00	11.25	16.50	12.50	8.00	4.00	19.50	8.50	6.75	-0.589355	0.167480	1.243164	-38.080002	369.179993	-39.200001	861.00	0.29	0.01
3.28	2.25	3.50	0.50	2.00	0.00	0.00	0.75	0.00	0.00	0.00	0.00	0.00	0.00	0.00	0.00	0.00	-1.383789	-1.432617	0.057129	-253.190002	220.149994	16.170000	94.00	-0.31	-0.05	0.00	0.00	0.00	0.00	0.00	0.00	0.00	0.00	10.50	15.75	12.00	7.00	3.25	19.00	8.25	6.25	-0.676270	0.209473	1.239258	-55.580002	420.209991	-53.900002	811.00	0.29	0.01
3.29	11.00	12.25	3.75	7.50	0.50	0.00	0.75	0.00	0.00	0.00	0.00	0.25	0.00	0.00	0.00	0.00	-0.661621	-0.709473	3.752441	-163.729996	294.700012	10.150000	370.00	-0.34	-0.05	0.00	0.00	0.00	0.00	0.00	0.00	0.00	0.00	8.75	13.75	10.75	5.25	2.00	18.25	7.75	5.50	-0.938965	0.144531	1.771484	-74.199997	471.589996	-68.040001	710.00	0.30	0.02
3.30	20.25	19.25	8.25	10.25	1.00	0.50	1.00	0.00	0.00	0.00	0.00	0.00	0.00	0.00	0.00	0.00	-0.650879	-1.359375	3.204102	-88.900002	236.389999	-17.990000	623.00	-0.35	-0.03	0.00	0.00	0.00	0.00	0.00	0.00	0.00	0.00	6.50	11.50	9.00	3.25	1.00	17.00	6.75	4.50	-1.446289	-0.027832	2.248047	-88.970001	525.909973	-71.750000	582.00	0.31	0.03
3.31	24.00	21.25	10.00	12.25	1.50	1.00	1.00	0.00	0.00	0.00	0.25	0.00	0.00	0.00	0.00	0.00	-0.570801	0.530273	1.119629	-31.150000	206.990005	-51.099998	735.00	-0.34	-0.03	0.00	0.00	0.00	0.00	0.00	0.00	0.00	0.00	5.25	9.75	7.75	2.50	0.50	14.50	5.25	3.25	-2.813477	0.519043	3.572266	-106.260002	566.229980	-80.500000	478.00	0.31	0.04
3.32	24.50	20.25	11.50	13.00	1.50	2.50	1.25	0.00	0.00	0.25	0.50	0.25	0.00	0.00	0.00	0.00	-0.523926	0.144043	2.848145	-215.529999	107.239998	-17.290001	784.00	-0.33	-0.03	0.00	0.00	0.00	0.00	0.00	0.00	0.00	0.00	4.25	8.25	5.50	1.50	0.25	11.50	3.25	2.00	-2.806152	0.690430	4.125977	-58.029999	551.739990	-57.540001	360.00	0.31	0.05
3.33	23.75	19.25	12.50	13.00	2.25	2.00	1.25	0.00	0.25	0.50	0.50	0.50	0.00	0.00	0.00	0.00	-0.361816	0.144043	1.069824	-215.529999	107.239998	-17.290001	789.00	-0.32	-0.03	0.00	0.00	0.00	0.00	0.00	0.25	0.00	0.00	3.25	7.00	4.25	1.25	0.00	8.50	2.25	1.00	-1.475098	1.234863	3.974609	-15.540000	515.549988	-80.570000	277.00	0.30	0.06
3.34	24.00	18.50	13.50	13.00	3.00	2.25	1.50	0.00	0.25	0.75	0.50	0.25	0.25	0.00	0.00	0.00	-0.318359	-0.009277	1.023926	-47.950001	-43.610001	-11.410000	813.00	-0.31	-0.02	0.00	0.00	0.00	0.00	0.00	0.00	0.00	0.00	2.50	5.25	3.00	1.25	0.25	5.25	1.25	0.50	-0.143066	1.258301	4.106934	32.200001	453.600006	-105.489998	195.00	0.29	0.05
3.35	23.75	17.75	14.75	13.50	3.50	3.00	1.75	0.25	1.00	1.00	1.25	0.75	0.50	0.50	0.00	0.00	-0.243652	0.052246	0.977051	-25.059999	-38.080002	-8.050000	876.00	-0.28	-0.02	0.00	0.00	0.00	0.00	0.00	0.00	0.25	0.00	1.50	3.75	2.00	1.00	0.00	1.25	0.25	0.00	2.831543	1.404297	2.593750	65.239998	352.869995	-134.960007	107.00	0.25	0.05
3.36	23.50	18.00	15.50	13.75	4.50	3.00	1.75	0.25	1.75	1.25	1.25	1.00	0.75	1.25	0.00	0.00	-0.240723	0.023926	0.980469	-18.549999	-28.490000	-6.930000	922.00	-0.27	-0.02	0.25	0.25	0.00	0.00	0.00	0.00	0.25	0.00	1.25	2.75	1.50	0.75	0.00	0.75	0.25	0.00	6.213867	2.917969	7.138184	49.000000	116.059998	-144.199997	86.00	0.21	0.05
3.37	24.00	17.75	15.75	13.50	5.50	3.25	2.00	0.50	2.25	1.25	1.25	1.25	1.00	1.75	0.00	0.00	-0.216797	0.016113	0.962891	-13.230000	-19.530001	-5.180000	962.00	-0.25	-0.02	0.00	0.25	0.00	0.00	0.25	0.00	0.25	0.00	0.75	2.50	1.25	0.50	0.00	0.25	0.00	0.00	0.910645	1.897949	6.078125	43.610001	-125.440002	-100.660004	65.00	0.19	0.04
3.38	22.75	17.25	16.00	14.00	6.25	3.00	2.00	0.50	2.75	1.75	1.75	1.50	1.25	2.00	0.00	0.25	-0.199219	0.026855	0.967285	-8.820000	-10.920000	-3.360000	983.00	-0.24	-0.02	0.00	0.25	0.00	0.00	0.00	0.00	0.25	0.00	0.50	2.25	1.25	0.00	0.00	0.25	0.00	0.00	2.012695	0.149902	1.884766	-31.570000	-195.440002	-62.720001	51.00	0.20	0.05
3.39	23.25	16.25	15.50	13.25	6.50	4.00	2.00	0.50	3.25	1.75	2.25	1.75	1.50	2.25	0.25	0.25	-0.185059	0.026855	0.965820	-4.760000	-4.620000	-1.960000	1000.00	-0.22	-0.02	0.00	0.00	0.00	0.00	0.00	0.00	0.25	0.00	0.25	2.00	0.75	0.00	0.00	0.00	0.00	0.25	1.176270	1.150391	1.404785	-88.199997	-163.589996	-44.099998	37.00	0.00	0.00
3.40	22.25	16.25	16.00	13.50	6.75	3.75	2.25	0.75	4.50	2.25	2.75	1.75	2.00	3.50	0.25	0.50	-0.180176	0.020508	0.975586	-1.120000	0.630000	-0.840000	1049.00	-0.20	-0.01	0.00	0.25	0.00	0.00	0.00	0.00	0.25	0.00	0.50	1.75	0.75	0.00	0.00	0.00	0.00	0.00	1.399414	1.686523	2.182129	-72.309998	-164.360001	-19.670000	39.00	0.00	0.00
3.41	19.75	14.75	15.25	13.00	7.00	4.00	2.25	0.75	5.00	3.00	2.75	2.25	2.25	3.50	0.25	0.50	-0.181152	0.032715	0.960449	1.750000	5.880000	0.420000	1023.00	-0.18	-0.02	0.00	0.25	0.00	0.00	0.00	0.00	0.25	0.00	0.50	1.25	0.75	0.00	0.00	0.00	0.00	0.00	1.542480	1.254395	2.117676	-14.350000	-223.720001	4.410000	33.00	0.00	0.00
3.42	17.50	13.50	14.25	11.75	6.75	3.50	2.25	0.75	5.25	3.50	3.25	2.50	2.25	4.25	0.50	0.75	-0.185547	0.046875	0.969727	3.220000	10.570000	1.190000	982.00	-0.16	-0.01	0.00	0.25	0.00	0.00	0.00	0.00	0.25	0.00	0.00	1.25	0.50	0.00	0.00	0.00	0.00	0.00	1.029297	0.701660	1.959473	16.799999	-287.630005	18.830000	24.00	0.00	0.00
3.43	15.00	12.00	13.00	10.25	6.50	3.00	2.25	0.50	5.25	3.75	3.50	2.50	2.00	4.25	0.50	0.50	-0.169434	0.043457	0.979492	3.430000	14.070000	1.330000	901.00	-0.14	-0.01	0.00	0.00	0.00	0.00	0.00	0.00	0.25	0.00	0.25	0.75	0.25	0.00	0.00	0.00	0.00	0.00	0.777344	0.551270	1.614746	12.320000	-326.970001	26.740000	17.00	0.00	0.00
3.44	11.50	9.50	11.00	9.00	5.75	2.50	2.25	0.25	5.75	4.00	4.00	2.75	2.25	4.75	0.50	0.75	-0.171875	0.022949	0.975586	3.080000	17.360001	0.420000	813.00	-0.11	-0.00	0.00	0.00	0.00	0.00	0.00	0.00	0.25	0.00	0.00	0.75	0.00	0.00	0.00	0.00	0.00	0.00	0.571289	0.616211	1.586914	6.510000	-355.179993	32.830002	12.00	0.00	0.00
3.45	9.75	8.50	9.50	8.00	5.25	1.75	2.25	0.25	6.50	5.00	4.50	3.00	2.25	5.25	0.50	0.50	-0.181152	0.040527	0.965332	2.450000	21.559999	-0.070000	776.00	-0.07	0.00	0.00	0.00	0.00	0.00	0.00	0.00	0.25	0.00	0.00	0.75	0.00	0.00	0.00	0.00	0.00	0.00	0.382812	0.623535	1.597656	21.000000	-383.179993	38.500000	12.00	0.00	0.00
3.46	8.25	7.25	8.25	6.75	5.00	1.00	2.25	0.25	7.00	5.75	5.50	3.25	2.25	5.50	0.50	0.75	-0.193359	0.051758	0.971680	2.240000	26.670000	-0.630000	741.00	-0.04	0.01	0.00	0.00	0.00	0.00	0.00	0.00	0.25	0.00	0.00	0.50	0.00	0.00	0.00	0.00	0.00	0.00	0.212891	0.484863	1.583984	45.009998	-409.920013	44.520000	9.00	0.00	0.00
3.47	6.75	6.00	7.00	6.00	4.00	0.75	2.25	0.25	7.50	6.75	6.00	3.50	2.25	6.25	0.50	0.75	-0.198242	0.047363	0.968262	2.590000	32.619999	-1.190000	709.00	-0.00	0.01	0.00	0.00	0.00	0.00	0.00	0.00	0.25	0.00	0.00	0.25	0.00	0.00	0.00	0.00	0.00	0.00	-0.010742	0.366699	1.560059	62.790001	-430.570007	50.750000	6.00	0.00	0.00
3.48	5.50	5.25	5.75	4.75	3.25	0.50	2.25	0.00	8.00	7.50	7.00	3.75	2.00	7.25	0.75	1.00	-0.195801	0.046387	0.957520	1.890000	38.150002	-2.590000	685.00	0.04	0.02	0.00	0.00	0.00	0.00	0.00	0.00	0.25	0.00	0.00	0.25	0.00	0.00	0.00	0.00	0.00	0.00	-0.196289	0.316406	1.520020	74.830002	-442.610016	56.910000	6.00	0.00	0.00
3.49	4.00	5.00	4.75	3.00	2.50	0.25	2.25	0.00	8.25	7.75	7.75	3.75	2.25	7.25	1.00	1.00	-0.195801	0.041016	0.964844	1.960000	41.509998	-3.780000	644.00	0.07	0.03	0.00	0.00	0.00	0.00	0.00	0.00	0.25	0.00	0.00	0.00	0.00	0.00	0.00	0.00	0.00	0.00	-0.354492	0.305664	1.541016	84.209999	-447.299988	64.680000	4.00	0.00	0.00
3.50	3.00	2.50	3.00	2.25	2.25	0.00	2.00	0.25	8.75	8.50	8.25	4.25	2.00	8.00	1.00	1.00	-0.214355	0.051758	0.957520	3.360000	44.590000	-4.480000	607.00	0.13	0.03	0.00	0.25	0.00	0.00	0.00	0.00	0.50	0.00	0.00	0.25	0.00	0.00	0.00	0.00	0.00	0.00	-0.496582	0.334961	1.631836	90.650002	-446.320007	74.410004	12.00	0.00	0.00
3.51	1.50	2.00	2.00	1.75	1.75	0.25	2.00	0.00	9.00	8.75	8.50	5.00	2.25	8.75	1.00	1.00	-0.207520	0.055664	0.952148	5.670000	49.139999	-5.320000	588.00	0.17	0.03	0.00	0.00	0.00	0.00	0.00	0.00	0.50	0.00	0.00	0.25	0.00	0.00	0.00	0.00	0.00	0.00	-0.717773	0.493652	2.103027	96.739998	-437.500000	96.110001	10.00	0.00	0.00
3.52	1.00	1.25	1.50	1.25	1.00	0.00	1.75	0.00	9.25	9.25	9.25	5.25	2.25	9.25	1.25	1.25	-0.218262	0.043457	0.931152	4.620000	51.450001	-7.980000	578.00	0.20	0.03	0.25	0.25	0.00	0.00	0.00	0.00	0.50	0.00	0.00	0.25	0.00	0.00	0.00	0.00	0.00	0.00	-0.916016	0.616699	2.384277	101.430000	-435.820007	107.870003	15.00	0.00	0.00
3.53	0.25	0.75	0.75	1.00	1.00	0.00	1.50	0.00	9.25	9.75	9.50	5.75	2.25	10.00	1.25	1.25	-0.232910	0.061035	0.932617	2.730000	53.689999	-11.690000	570.00	0.22	0.03	0.00	0.00	0.00	0.00	0.00	0.00	0.25	0.00	0.00	0.00	0.00	0.00	0.00	0.00	0.00	0.00	-1.255371	0.704102	2.491211	108.639999	-437.149994	119.139999	4.00	0.00	0.00
3.54	0.25	0.50	0.25	0.75	0.25	0.00	1.50	0.00	9.50	10.00	10.00	6.25	2.50	11.00	1.50	1.50	-0.263184	0.061035	0.946289	2.730000	53.689999	-11.690000	582.00	0.24	0.03	0.25	0.00	0.00	0.00	0.00	0.00	0.25	0.00	0.00	0.00	0.00	0.00	0.00	0.00	0.00	0.00	-1.666992	0.730469	2.334961	114.800003	-433.369995	127.889999	6.00	0.00	0.00
3.55	0.00	0.25	0.25	0.50	0.00	0.00	1.50	0.00	9.75	10.50	10.25	6.75	2.50	11.50	1.50	1.75	-0.265625	-0.015625	0.999023	-15.190001	54.670002	-8.120000	594.00	0.25	0.03	0.00	0.00	0.00	0.00	0.00	0.00	0.25	0.00	0.00	0.00	0.00	0.00	0.00	0.00	0.00	0.00	-2.062012	0.724121	2.056152	123.410004	-416.220001	132.860001	4.00	0.00	0.00
3.56	0.00	0.25	0.25	0.50	0.00	0.00	1.25	0.00	10.00	11.00	10.75	7.50	2.75	12.50	2.00	1.75	-0.260254	0.023438	0.958008	-4.200000	73.290001	-8.470000	627.00	0.26	0.02	0.00	0.50	0.00	0.00	0.00	0.00	0.25	0.00	0.00	0.00	0.00	0.00	0.00	0.00	0.00	0.00	-2.412598	0.628906	1.763672	140.419998	-388.079987	133.559998	8.00	0.00	0.00
3.57	0.00	0.50	0.00	0.50	0.00	0.00	1.25	0.00	10.00	11.25	11.25	7.75	2.75	13.00	2.00	2.00	-0.284668	0.045410	0.971680	-1.330000	82.599998	-6.930000	643.00	0.26	0.02	0.00	0.00	0.00	0.00	0.00	0.00	0.50	0.00	0.00	0.00	0.00	0.00	0.00	0.00	0.00	0.00	-2.720215	0.359375	1.749023	175.490005	-354.339996	129.220001	8.00	0.00	0.00
3.58	0.00	0.00	0.00	0.50	0.00	0.00	1.00	0.00	10.25	11.75	11.50	8.00	3.00	13.75	2.50	2.00	-0.297363	0.030273	0.957031	-1.190000	87.639999	-7.420000	662.00	0.27	0.02	0.00	0.00	0.00	0.00	0.00	0.00	0.25	0.00	0.00	0.00	0.00	0.00	0.00	0.00	0.00	0.00	-3.110352	-0.088379	1.736328	189.979996	-318.500000	125.790001	4.00	0.00	0.00
3.59	0.00	0.00	0.00	0.00	0.00	0.00	1.00	0.00	10.50	12.25	11.75	8.50	3.25	14.50	2.50	2.50	-0.304688	0.041992	0.958984	-1.610000	94.919998	-8.190000	684.00	0.27	0.02	0.25	0.00	0.00	0.00	0.00	0.00	0.25	0.00	0.00	0.00	0.00	0.00	0.00	0.00	0.00	0.00	-3.266602	-0.394531	1.657227	155.960007	-288.049988	121.309998	6.00	0.00	0.00
3.60	0.00	0.00	0.00	0.00	0.00	0.00	1.00	0.00	10.75	13.00	12.00	9.00	3.50	15.25	2.75	2.50	-0.333008	0.041016	0.963379	-2.380000	103.669998	-8.400000	715.00	0.27	0.01	0.00	0.00	0.00	0.00	0.00	0.00	0.25	0.00	0.00	0.00	0.00	0.00	0.00	0.00	0.00	0.00	-3.593750	-0.407227	1.543457	115.849998	-266.070007	108.779999	4.00	0.00	0.00
3.61	0.00	0.25	0.00	0.00	0.00	0.00	0.75	0.00	11.00	13.25	12.50	9.00	3.75	15.75	3.00	2.75	-0.343262	0.046387	0.978027	-1.960000	113.470001	-8.190000	735.00	0.27	0.01	0.00	0.25	0.00	0.00	0.00	0.00	0.25	0.00	0.00	0.00	0.00	0.00	0.00	0.00	0.00	0.00	-3.661621	-1.121582	0.470703	58.029999	-217.979996	94.709999	6.00	0.00	0.00
3.62	0.00	0.00	0.00	0.00	0.00	0.00	0.75	0.25	11.25	14.00	13.00	9.50	4.00	16.50	3.50	3.50	-0.377930	0.052246	1.000977	-2.030000	125.090004	-7.770000	776.00	0.27	0.01	0.00	0.00	0.00	0.00	0.00	0.00	0.25	0.00	0.00	0.00	0.00	0.00	0.00	0.00	0.00	0.00	-4.324219	-0.617188	0.551758	22.820000	-183.960007	77.209999	4.00	0.00	0.00
3.63	0.00	0.25	0.00	0.00	0.00	0.00	0.75	0.25	11.50	14.50	13.25	9.75	4.25	17.25	4.00	4.00	-0.403809	0.046387	1.021973	-3.850000	141.889999	-8.540000	808.00	0.27	0.01	0.00	0.00	0.25	0.00	0.00	0.00	0.25	0.00	0.00	0.00	0.00	0.00	0.00	0.00	0.00	0.00	-4.752930	-0.926758	-0.135742	40.950001	-143.639999	64.400002	7.00	0.00	0.00
3.64	0.00	0.00	0.00	0.00	0.00	0.00	0.50	0.25	11.25	15.00	13.00	9.75	4.00	17.75	4.50	4.25	-0.425293	0.066406	1.027832	-6.020000	162.680008	-9.940000	810.00	0.28	0.01	0.00	0.50	0.00	0.25	0.00	0.00	0.25	0.00	0.00	0.00	0.00	0.00	0.25	0.00	0.00	0.00	-5.321289	-1.657227	-0.565918	36.119999	-84.349998	60.410000	13.00	0.00	0.00
3.65	0.00	0.00	0.00	0.00	0.00	0.00	0.50	0.00	11.50	15.25	13.00	9.25	3.50	17.75	4.75	4.50	-0.482910	0.059570	1.081543	-8.470000	185.850006	-12.740000	806.00	0.28	0.01	0.25	1.25	0.50	0.75	0.00	0.00	0.25	0.00	0.00	0.00	0.00	0.00	0.00	0.00	0.00	0.00	-5.927246	-1.910156	-0.784668	-37.799999	-13.650000	59.220001	32.00	0.00	0.00
3.66	0.00	0.00	0.00	0.00	0.00	0.00	0.25	0.00	11.75	15.75	12.75	9.00	3.00	18.25	5.25	4.75	-0.483887	0.065918	1.095215	-11.900000	211.539993	-15.820000	812.00	0.28	0.02	1.50	1.75	1.00	1.50	0.00	0.00	0.25	0.00	0.00	0.00	0.00	0.00	0.00	0.00	0.00	0.00	-7.435059	-1.627441	-1.456055	-116.270004	64.680000	55.090000	63.00	-0.32	-0.04
3.67	0.00	0.00	0.00	0.00	0.00	0.00	0.25	0.00	11.75	15.75	12.75	8.50	2.75	18.50	5.25	4.75	-0.535156	0.090332	1.130859	-17.990000	242.479996	-19.879999	807.00	0.28	0.02	7.75	7.50	1.75	4.25	0.00	0.00	0.25	0.00	0.00	0.00	0.00	0.00	0.00	0.00	0.00	0.00	-8.123535	-1.900391	-2.312012	-156.309998	176.750000	58.450001	219.00	-0.36	-0.05
3.68	0.00	0.00	0.00	0.00	0.00	0.00	0.25	0.00	11.75	16.00	12.50	8.00	2.25	18.25	5.50	4.75	-0.566406	0.103516	1.113770	-25.200001	278.880005	-26.809999	798.00	0.28	0.02	18.25	14.50	7.00	8.75	0.25	0.00	0.25	0.00	0.00	0.00	0.00	0.00	0.00	0.25	0.00	0.00	-0.605469	-1.420410	3.840332	-144.619995	389.970001	2.380000	505.00	-0.36	-0.03
3.69	0.00	0.00	0.00	0.00	0.00	0.00	0.25	0.00	11.75	16.00	11.75	7.25	2.25	18.50	5.50	4.75	-0.638672	0.117676	1.187500	-32.130001	317.940002	-36.889999	784.00	0.29	0.03	23.00	17.00	9.50	10.50	1.00	0.00	0.50	0.00	0.00	0.00	0.00	0.00	0.00	0.00	0.00	0.00	-0.592773	-0.600586	6.217773	-110.180000	314.649994	-41.790001	634.00	-0.35	-0.02
3.70	0.00	0.00	0.00	0.00	0.00	0.00	0.00	0.00	11.75	15.50	11.25	6.00	1.50	18.00	5.50	4.25	-0.701660	0.125000	1.232910	-41.650002	363.019989	-49.490002	743.00	0.29	0.04	25.00	17.50	11.00	11.25	1.50	0.25	0.50	0.00	0.00	0.00	0.00	0.00	0.00	0.00	0.00	0.00	-0.121582	1.377441	0.837891	-80.290001	223.300003	-20.090000	693.00	-0.35	-0.02
