# time	left pressure 1[N/cm²]	left pressure 2[N/cm²]	left pressure 3[N/cm²]	left pressure 4[N/cm²]	left pressure 5[N/cm²]	left pressure 6[N/cm²]	left pressure 7[N/cm²]	left pressure 8[N/cm²]	left pressure 9[N/cm²]	left pressure 10[N/cm²]	left pressure 11[N/cm²]	left pressure 12[N/cm²]	left pressure 13[N/cm²]	left pressure 14[N/cm²]	left pressure 15[N/cm²]	left pressure 16[N/cm²]	left acceleration X[g]	left acceleration Y[g]	left acceleration Z[g]	left angular X[dps]	left angular Y[dps]	left angular Z[dps]	left total force[N]	left center of pressure X[%]	left center of pressure Y[%]	right pressure 1[N/cm²]	right pressure 2[N/cm²]	right pressure 3[N/cm²]	right pressure 4[N/cm²]	right pressure 5[N/cm²]	right pressure 6[N/cm²]	right pressure 7[N/cm²]	right pressure 8[N/cm²]	right pressure 9[N/cm²]	right pressure 10[N/cm²]	right pressure 11[N/cm²]	right pressure 12[N/cm²]	right pressure 13[N/cm²]	right pressure 14[N/cm²]	right pressure 15[N/cm²]	right pressure 16[N/cm²]	right acceleration X[g]	right acceleration Y[g]	right acceleration Z[g]	right angular X[dps]	right angular Y[dps]	right angular Z[dps]	right total force[N]	right center of pressure X[%]	right center of pressure Y[%]
0.00																										0.00	0.00	0.00	0.00	0.00	0.00	0.00	0.00	0.00	0.00	0.00	0.00	0.00	0.00	0.00	0.00	-0.238281	0.165039	0.785645	-35.630001	-68.809998	317.239990	0.00	0.00	0.00
0.01																										0.00	0.00	0.00	0.00	0.00	0.00	0.00	0.00	0.00	0.00	0.00	0.00	0.00	0.00	0.00	0.00	-0.231445	0.084961	0.694824	-29.330000	-63.700001	315.000000	0.00	0.00	0.00
0.02	10.75	10.00	8.00	8.50	6.00	7.75	1.00	5.25	4.50	3.00	5.75	5.75	7.25	3.75	1.50	2.25	-0.269043	0.010254	0.942383	-3.150000	4.410000	0.700000	1054.00	-0.07	-0.10	0.00	0.00	0.00	0.00	0.00	0.00	0.00	0.00	0.00	0.00	0.00	0.00	0.00	0.00	0.00	0.00	-0.246094	0.026367	0.510254	-21.070000	-53.340000	306.040009	0.00	0.00	0.00
0.03	10.75	9.75	7.75	8.50	6.00	7.75	1.25	5.25	5.00	3.00	6.00	6.00	7.50	3.75	1.50	2.25	-0.260742	-0.006348	0.946289	-2.730000	4.690000	0.630000	1068.00	-0.07	-0.10	0.00	0.00	0.00	0.00	0.00	0.00	0.00	0.00	0.00	0.00	0.00	0.00	0.00	0.00	0.00	0.00	-0.279297	-0.022461	0.413574	-12.740000	-35.209999	290.429993	0.00	0.00	0.00
0.04	11.25	10.00	8.00	8.50	6.00	8.00	1.25	5.50	4.50	3.25	6.25	6.00	7.50	3.50	1.25	2.00	-0.263184	-0.004395	0.940430	-2.660000	4.690000	0.630000	1078.00	-0.07	-0.10	0.00	0.25	0.00	0.00	0.00	0.00	0.00	0.00	0.00	0.00	0.50	0.00	0.00	0.00	0.00	0.00	-2.643066	-0.499512	3.354980	-56.420002	101.849998	250.389999	8.00	0.00	0.00
0.05	10.75	10.00	7.75	8.50	6.00	8.00	1.25	5.50	4.75	3.00	6.50	6.75	7.50	3.75	1.00	2.00	-0.267578	0.000000	0.944336	-2.660000	4.620000	0.630000	1081.00	-0.07	-0.10	0.00	0.25	0.00	0.00	0.00	0.00	0.00	0.00	0.00	0.00	0.00	0.00	0.00	0.00	0.00	0.00	-3.520508	-1.665039	1.838379	-76.019997	99.400002	220.220001	3.00	0.00	0.00
0.06	10.75	10.00	7.75	8.50	6.00	8.00	1.00	5.75	5.00	3.00	6.50	6.50	7.50	3.75	1.25	2.25	-0.263672	0.004883	0.945312	-2.240000	4.620000	0.770000	1087.00	-0.07	-0.10	0.00	0.75	0.00	0.00	0.00	0.00	0.00	0.00	0.00	0.00	0.00	0.00	0.00	0.00	0.00	0.00	-1.824707	-0.589355	1.059570	-52.220001	54.810001	176.539993	8.00	0.00	0.00
0.07	10.75	9.75	7.75	8.50	6.00	8.00	1.25	5.75	4.75	3.00	6.25	6.50	7.75	4.00	1.50	2.25	-0.268066	0.000000	0.941406	-1.890000	5.040000	0.910000	1089.00	-0.06	-0.10	0.00	1.00	0.00	0.00	0.25	0.00	0.00	0.00	0.25	0.00	0.00	0.00	0.00	0.25	0.00	0.00	-1.079102	0.173340	1.744629	-13.020000	46.270000	8.260000	19.00	0.00	0.00
0.08	10.50	9.75	7.75	8.50	6.00	8.00	1.25	5.75	5.00	2.75	6.50	6.75	7.50	3.75	1.50	2.25	-0.268066	0.003906	0.944824	-1.680000	5.740000	0.840000	1088.00	-0.06	-0.10	0.00	0.75	0.25	0.25	0.50	0.00	0.00	0.00	0.25	0.25	0.25	0.00	0.00	0.25	0.00	0.00	-0.200195	0.200684	0.921875	-17.710001	25.760000	-6.860000	31.00	0.00	0.00
0.09	10.50	9.50	7.75	8.50	6.00	8.00	1.00	5.50	4.50	3.00	6.50	6.50	7.75	3.50	1.25	2.00	-0.263184	0.000977	0.946777	-1.750000	6.510000	0.840000	1066.00	-0.07	-0.11	0.00	1.25	0.50	0.50	0.75	0.00	0.00	0.00	0.50	0.50	0.50	0.25	0.00	0.50	0.00	0.00	-0.164551	0.045410	0.990234	-24.010000	22.540001	-4.480000	60.00	-0.05	-0.01
0.10	10.00	9.50	7.50	8.50	5.75	7.75	1.00	5.50	4.50	2.75	6.50	6.75	7.50	3.75	1.25	2.00	-0.259766	0.003418	0.945312	-1.750000	6.930000	0.840000	1051.00	-0.06	-0.11	0.00	1.25	1.00	0.50	1.00	0.00	0.25	0.00	1.00	0.75	0.75	0.25	0.00	0.50	0.50	0.00	-0.270508	0.044922	0.983887	-17.639999	17.710001	-4.900000	92.00	0.01	0.03
0.11	10.00	9.00	7.50	8.25	6.00	7.75	1.00	5.50	4.75	3.00	6.25	6.50	7.50	3.75	1.50	2.00	-0.267090	0.003906	0.946289	-1.890000	7.630000	0.840000	1050.00	-0.06	-0.11	0.00	1.25	0.75	0.75	1.25	0.00	0.25	0.00	1.25	0.75	0.75	0.75	0.00	1.25	0.00	0.00	-0.368164	0.091309	1.009766	-14.770000	10.220000	-4.690000	105.00	0.03	0.02
0.12	9.50	9.00	7.25	8.25	5.75	7.50	1.00	5.25	4.25	2.75	6.25	6.75	7.50	3.75	1.25	2.00	-0.302734	-0.011230	0.935059	-1.820000	8.400000	0.700000	1021.00	-0.06	-0.11	0.00	1.75	1.25	1.00	1.25	0.00	0.50	0.00	1.75	1.00	1.00	1.00	0.00	1.50	0.25	0.00	-0.282715	0.039551	1.000977	-12.460000	3.990000	-3.640000	144.00	0.03	0.03
0.13	9.00	8.75	7.00	8.00	5.50	7.50	1.00	5.25	4.50	2.75	6.25	6.50	7.50	3.75	1.50	2.00	-0.260742	0.007812	0.946777	-1.820000	9.030000	0.700000	1007.00	-0.06	-0.11	0.50	1.75	1.50	1.25	1.50	0.25	0.75	0.00	2.25	1.25	1.00	1.25	0.00	2.00	0.50	0.00	-0.273438	0.057617	0.966797	-7.980000	0.700000	-2.660000	187.00	0.04	0.03
0.14	9.00	8.50	7.00	7.75	5.25	7.25	0.75	5.00	4.50	2.75	6.25	6.25	7.50	3.25	1.25	2.00	-0.278320	-0.002930	0.942871	-1.890000	9.870000	0.630000	977.00	-0.06	-0.11	0.75	2.00	1.50	1.25	1.75	0.25	0.75	0.00	2.50	1.00	1.25	1.25	0.00	2.25	0.50	0.25	-0.284668	0.059570	0.968750	-5.530000	-0.840000	-1.890000	202.00	0.03	0.03
0.15	8.50	8.00	6.75	7.50	5.00	7.00	0.75	4.75	4.25	2.75	6.25	6.25	7.00	3.25	1.00	2.00	-0.270508	0.000000	0.942383	-1.400000	10.290000	0.840000	939.00	-0.06	-0.11	1.50	2.25	2.00	1.50	2.00	0.25	1.00	0.00	2.75	1.25	1.25	1.25	0.00	2.25	0.75	0.25	-0.284668	0.057129	0.953125	-4.760000	-1.750000	-1.540000	239.00	0.01	0.04
0.16	8.00	7.75	6.50	7.50	4.75	6.75	0.75	4.25	4.00	2.75	6.25	6.25	7.00	3.25	1.00	1.75	-0.273438	0.000488	0.945312	-0.980000	10.850000	0.910000	908.00	-0.05	-0.11	1.50	2.25	2.25	1.50	2.00	0.50	1.00	0.25	2.75	1.50	1.25	1.25	0.00	2.75	0.75	0.25	-0.281738	0.049316	0.950684	-4.620000	-2.100000	-1.190000	256.00	0.01	0.03
0.17	8.00	7.75	6.25	7.00	4.75	6.50	0.75	4.25	3.75	3.00	5.75	6.25	6.50	2.50	1.00	1.75	-0.274414	0.001465	0.942871	-0.700000	11.480000	0.910000	878.00	-0.06	-0.11	1.75	2.50	2.25	2.00	2.25	0.50	1.00	0.00	3.00	1.50	1.25	1.25	0.50	2.50	1.00	0.50	-0.271973	0.046387	0.945312	-3.990000	-2.380000	-0.560000	277.00	0.01	0.02
0.18	7.50	7.25	6.00	6.75	4.25	6.25	0.75	3.75	3.50	2.50	5.75	6.00	6.25	3.00	1.00	1.75	-0.276855	0.006836	0.937988	-0.350000	11.690000	0.980000	834.00	-0.06	-0.11	2.50	2.75	2.50	2.00	2.25	0.75	1.00	0.25	3.00	1.50	1.50	1.50	0.50	2.75	0.75	0.50	-0.267090	0.054688	0.948730	-2.520000	-2.590000	0.280000	303.00	-0.01	0.01
0.19	7.25	7.00	6.00	6.75	4.00	6.00	0.50	3.25	3.25	2.25	5.50	5.75	6.25	2.50	1.00	1.50	-0.278320	0.004395	0.936523	-0.070000	11.830000	0.910000	792.00	-0.06	-0.11	2.50	2.75	2.50	2.25	2.25	0.75	1.25	0.00	3.25	1.25	1.50	1.50	0.25	2.75	1.00	0.25	-0.273438	0.047852	0.944336	0.350000	-2.030000	1.330000	306.00	-0.01	0.03
0.20	7.00	6.75	5.50	6.25	3.75	5.75	0.50	3.00	3.25	2.50	5.50	5.50	6.00	2.50	1.00	1.50	-0.278809	0.006836	0.937988	0.140000	11.690000	0.980000	762.00	-0.06	-0.11	3.25	3.50	3.00	2.50	2.25	1.00	1.25	0.25	3.25	1.25	1.50	1.50	0.50	2.75	1.00	0.25	-0.270508	0.049805	0.940430	1.050000	-1.890000	1.470000	341.00	-0.04	0.01
0.21	7.00	6.50	5.50	6.00	3.50	5.50	0.50	3.00	3.00	2.25	5.25	5.50	6.00	2.50	1.00	1.50	-0.273926	0.001953	0.946777	0.280000	11.270000	1.120000	742.00	-0.06	-0.11	3.25	3.50	2.75	2.50	2.50	1.00	1.25	0.25	3.00	1.50	1.50	1.75	1.00	2.50	0.75	0.75	-0.270996	0.049316	0.939941	1.400000	-1.890000	1.680000	345.00	-0.03	-0.00
0.22	6.50	6.25	5.25	6.00	3.25	5.00	0.50	2.75	2.75	2.00	5.00	5.50	5.50	2.25	1.00	1.25	-0.281250	0.005371	0.940918	0.280000	10.780000	1.120000	699.00	-0.06	-0.11	3.75	3.75	3.00	3.00	2.50	1.00	1.00	0.25	3.25	1.25	1.75	1.75	0.75	2.50	1.25	0.50	-0.269043	0.049805	0.937500	1.260000	-2.170000	1.470000	364.00	-0.04	-0.00
0.23	6.75	6.25	5.25	5.75	3.00	5.00	0.25	2.00	2.75	2.00	5.00	5.25	5.50	2.00	1.00	1.25	-0.278320	0.002930	0.934570	0.350000	10.360000	1.190000	674.00	-0.06	-0.11	4.25	4.00	3.50	3.25	2.50	1.50	1.00	0.25	3.00	1.50	1.75	1.75	1.00	2.75	1.00	0.50	-0.271484	0.056641	0.941895	1.050000	-2.450000	1.260000	388.00	-0.06	-0.01
0.24	6.50	6.00	5.00	5.75	2.75	5.00	0.25	2.00	2.25	2.00	4.50	5.00	5.25	2.00	0.75	1.25	-0.283203	0.007812	0.928223	0.420000	10.010000	1.260000	642.00	-0.07	-0.11	5.00	4.50	3.50	3.75	2.75	1.50	1.00	0.25	3.00	1.50	1.75	2.00	1.00	2.75	1.25	0.50	-0.267090	0.054199	0.937500	0.770000	-2.450000	1.120000	416.00	-0.07	-0.02
0.25	6.25	5.75	5.00	5.50	2.75	4.50	0.25	1.75	2.25	1.75	4.25	4.75	5.25	1.75	0.75	1.25	-0.282715	0.010254	0.936035	0.280000	9.660000	1.260000	613.00	-0.07	-0.11	5.00	4.75	3.50	4.25	3.00	1.75	1.00	0.25	3.00	1.50	1.75	1.75	1.50	2.50	1.00	1.00	-0.261719	0.054199	0.941406	0.560000	-2.310000	0.840000	430.00	-0.08	-0.03
0.26	6.00	5.75	5.00	5.50	2.75	4.25	0.25	2.00	2.00	1.50	4.00	4.25	5.00	2.00	0.50	0.75	-0.278320	0.003418	0.932129	0.420000	9.100000	1.400000	590.00	-0.08	-0.11	5.00	5.25	4.00	4.25	3.00	1.75	1.00	0.50	3.00	1.50	2.00	2.00	1.75	3.00	1.25	1.00	-0.263672	0.053223	0.940430	0.350000	-2.030000	0.630000	461.00	-0.07	-0.03
0.27	6.25	5.75	4.50	5.50	2.25	4.00	0.25	1.75	2.00	1.50	3.75	4.25	4.00	1.25	0.50	0.75	-0.279785	0.010742	0.937988	0.560000	8.680000	1.610000	555.00	-0.09	-0.11	5.25	5.75	4.25	4.75	3.00	2.00	1.00	0.75	3.00	1.25	1.75	2.00	1.75	2.75	1.25	0.75	-0.265625	0.062012	0.939941	0.140000	-1.750000	0.630000	476.00	-0.09	-0.04
0.28	6.00	6.00	4.50	5.50	2.50	3.75	0.00	1.50	1.75	1.50	3.50	4.00	4.50	1.25	0.75	1.00	-0.279785	0.009277	0.936523	0.420000	8.330000	1.680000	546.00	-0.09	-0.12	5.75	5.75	4.50	5.00	3.00	2.00	1.00	0.50	3.00	1.50	1.75	2.25	1.75	2.50	1.50	0.50	-0.263672	0.058594	0.949219	-0.350000	-1.470000	0.490000	488.00	-0.09	-0.04
0.29	6.00	5.75	4.75	5.25	2.25	3.75	0.00	1.25	1.75	1.75	3.75	3.50	3.50	1.25	0.50	0.75	-0.277832	0.012695	0.936035	0.280000	7.980000	1.610000	522.00	-0.10	-0.10	5.75	6.25	4.50	5.00	3.00	2.25	1.00	0.50	3.00	1.50	1.75	2.25	1.75	2.50	1.25	0.50	-0.265625	0.057129	0.938477	-0.560000	-1.120000	0.560000	493.00	-0.10	-0.04
0.30	6.00	5.75	4.75	5.25	2.25	3.50	0.00	1.25	1.50	1.50	3.25	3.50	3.50	1.25	0.50	0.75	-0.281250	0.010254	0.937012	-0.140000	7.840000	1.470000	507.00	-0.11	-0.11	6.00	6.50	4.75	5.25	3.00	2.25	1.00	0.50	3.00	1.50	2.00	2.00	1.75	2.75	1.25	0.50	-0.260254	0.054688	0.941406	-0.770000	-0.840000	0.420000	507.00	-0.10	-0.04
0.31	6.00	5.50	4.50	5.50	2.25	3.25	0.00	1.00	1.50	1.50	3.00	3.25	3.50	1.00	0.50	0.75	-0.285156	0.010254	0.930664	-0.630000	7.350000	1.400000	489.00	-0.11	-0.10	6.25	6.75	4.50	5.50	3.00	2.25	0.75	0.50	2.75	1.25	2.00	2.25	1.75	2.50	1.25	1.00	-0.267578	0.060547	0.940918	-0.770000	-0.490000	0.490000	505.00	-0.11	-0.05
0.32	6.00	6.00	4.25	5.25	2.00	3.25	0.00	1.25	1.25	1.50	3.00	2.50	2.75	0.75	0.25	1.00	-0.285156	0.008789	0.937500	-1.190000	7.000000	1.260000	466.00	-0.13	-0.10	6.25	7.00	4.75	5.50	3.00	2.50	0.75	0.75	2.75	1.50	1.75	2.25	2.00	2.50	1.25	0.75	-0.264648	0.060059	0.942383	-0.560000	-0.140000	0.420000	519.00	-0.11	-0.05
0.33	6.00	6.00	4.50	5.25	2.00	3.00	0.00	1.00	1.25	1.25	2.50	2.75	2.25	1.25	0.50	0.50	-0.283203	0.011230	0.933594	-1.470000	6.650000	1.190000	457.00	-0.13	-0.09	6.25	7.25	5.00	5.50	3.25	2.50	0.75	0.50	2.50	1.50	1.75	2.25	2.00	2.50	1.25	0.50	-0.261230	0.062012	0.943848	-0.560000	0.070000	0.560000	518.00	-0.12	-0.05
0.34	6.25	6.00	4.50	5.25	2.00	3.00	0.00	1.00	1.25	1.25	2.50	2.50	2.25	0.75	0.25	0.50	-0.283691	0.014648	0.937988	-1.750000	6.300000	0.980000	449.00	-0.15	-0.09	7.25	7.75	4.75	6.00	3.25	2.50	0.75	0.50	2.75	1.25	2.00	2.00	1.75	2.50	1.00	0.50	-0.259766	0.061035	0.940918	-0.630000	0.420000	0.420000	533.00	-0.13	-0.05
0.35	6.25	6.00	4.25	5.00	2.00	3.00	0.00	1.00	1.50	1.00	2.25	2.50	2.25	1.00	0.50	0.50	-0.284668	0.012207	0.934570	-1.890000	6.020000	0.910000	446.00	-0.14	-0.09	7.25	8.00	5.00	6.25	3.00	2.50	0.75	0.50	2.50	1.25	1.75	2.00	2.00	2.50	1.25	0.50	-0.259766	0.062012	0.954590	-0.840000	0.770000	0.280000	537.00	-0.13	-0.05
0.36	6.50	6.00	4.75	5.25	2.00	2.75	0.00	1.00	1.00	1.25	2.25	2.25	2.00	1.00	0.50	0.50	-0.282715	0.006348	0.929688	-2.170000	5.390000	0.840000	445.00	-0.15	-0.09	7.75	8.50	5.00	6.00	3.00	2.75	0.75	0.75	2.50	1.25	1.50	2.00	2.25	2.50	1.00	0.50	-0.262695	0.055176	0.944336	-1.190000	1.260000	0.210000	549.00	-0.14	-0.05
0.37	6.50	6.00	4.50	5.50	2.00	2.75	0.00	1.00	1.25	1.00	2.25	2.25	1.75	1.00	0.50	0.50	-0.282715	0.008301	0.940918	-2.030000	5.110000	0.700000	444.00	-0.15	-0.09	7.75	8.50	5.00	6.25	3.00	2.75	0.50	0.50	2.50	1.75	1.75	2.00	1.50	2.50	0.75	0.75	-0.259766	0.062500	0.936035	-1.610000	1.260000	0.280000	544.00	-0.14	-0.05
0.38	6.50	6.25	4.50	5.00	2.00	2.75	0.00	0.75	1.00	1.25	1.50	2.00	0.75	0.75	0.25	0.50	-0.285156	0.013184	0.929199	-1.960000	4.900000	0.840000	409.00	-0.18	-0.07	8.00	8.50	5.00	6.50	3.00	2.75	0.50	0.50	2.50	1.25	1.75	2.00	2.00	2.25	1.00	0.50	-0.262695	0.060547	0.938965	-1.820000	1.400000	0.210000	548.00	-0.15	-0.05
0.39	7.00	6.50	4.75	5.25	2.00	2.50	0.00	0.75	1.00	0.75	1.75	1.75	1.50	0.75	0.25	0.50	-0.285156	0.009277	0.936035	-1.610000	4.690000	0.910000	422.00	-0.19	-0.08	8.25	9.00	5.00	6.25	3.00	2.75	0.50	0.75	2.25	1.00	1.75	2.00	2.25	2.50	1.00	0.50	-0.253906	0.060059	0.937500	-2.170000	1.400000	0.070000	555.00	-0.15	-0.06
0.40	6.75	6.50	4.50	5.25	2.00	2.50	0.00	0.75	1.25	1.00	2.00	2.00	1.25	0.75	0.25	0.50	-0.283203	0.011230	0.936523	-1.470000	4.550000	0.980000	426.00	-0.17	-0.08	8.00	8.75	4.75	6.50	2.75	3.00	0.75	0.75	2.25	1.25	1.75	2.00	1.75	2.25	1.25	0.75	-0.257324	0.063965	0.936035	-2.520000	1.330000	0.070000	554.00	-0.14	-0.06
0.41	7.25	6.50	4.75	5.50	1.75	2.50	0.00	1.00	1.00	1.25	2.00	1.75	1.25	0.75	0.25	0.25	-0.282227	0.012695	0.931152	-1.540000	4.340000	1.050000	434.00	-0.18	-0.08	8.25	8.75	5.00	6.50	3.00	2.75	0.50	0.50	2.50	1.25	1.50	2.25	2.25	2.25	1.00	0.25	-0.266113	0.062988	0.939941	-3.150000	1.190000	-0.070000	554.00	-0.15	-0.06
0.42	7.50	6.50	4.75	5.25	2.00	2.50	0.00	0.75	0.75	1.00	1.75	1.50	1.00	0.75	0.25	0.25	-0.281738	0.008789	0.932129	-1.540000	4.130000	1.050000	418.00	-0.20	-0.07	8.25	9.00	5.00	6.50	3.00	2.75	0.75	0.50	2.50	1.25	1.75	2.00	1.75	2.50	0.75	0.75	-0.264648	0.061523	0.943359	-3.780000	0.840000	-0.000000	558.00	-0.15	-0.05
0.43	7.75	6.75	5.00	5.50	1.75	2.75	0.00	0.75	0.50	1.00	1.75	1.75	0.75	0.75	0.25	0.25	-0.281738	0.013672	0.933594	-1.610000	3.920000	1.120000	426.00	-0.21	-0.08	8.25	9.00	5.00	6.50	3.00	2.75	0.50	0.75	2.50	1.25	1.50	2.00	1.75	2.50	1.00	0.75	-0.261230	0.064453	0.932617	-4.200000	0.280000	-0.280000	558.00	-0.15	-0.05
0.44	8.00	6.75	5.00	5.50	2.00	2.75	0.00	0.75	0.75	1.00	2.00	1.50	1.50	0.50	0.00	0.50	-0.279785	0.013672	0.935547	-1.820000	3.780000	1.120000	439.00	-0.20	-0.08	8.75	9.00	5.25	7.00	3.00	2.75	0.75	0.75	2.75	1.50	1.75	2.25	2.25	2.50	1.25	0.50	-0.261230	0.059570	0.931641	-4.270000	0.140000	-0.350000	595.00	-0.14	-0.05
0.45	8.00	7.25	5.00	5.50	2.00	2.75	0.00	0.75	0.75	1.00	1.50	1.50	1.25	0.50	0.25	0.25	-0.278320	0.010254	0.933594	-2.170000	3.850000	1.120000	437.00	-0.21	-0.07	8.50	9.25	5.00	7.25	3.00	2.75	0.75	0.50	2.50	1.00	1.75	2.00	2.25	2.50	1.25	0.50	-0.258789	0.059570	0.938965	-4.270000	0.210000	-0.420000	579.00	-0.15	-0.06
0.46	8.50	7.25	4.75	5.50	2.00	2.75	0.00	0.75	0.75	1.00	1.50	1.50	0.75	0.50	0.00	0.25	-0.287598	0.013184	0.938965	-2.380000	3.920000	1.190000	432.00	-0.22	-0.07	9.00	9.25	5.25	7.00	3.25	2.75	0.75	0.50	2.75	1.25	1.50	2.25	1.25	2.50	1.00	0.50	-0.259766	0.059082	0.940918	-4.270000	0.210000	-0.490000	582.00	-0.15	-0.04
0.47	8.25	7.50	5.00	5.50	2.00	2.50	0.00	0.75	0.50	0.75	1.75	1.25	1.25	0.75	0.25	0.25	-0.288086	0.011230	0.936035	-2.380000	4.270000	1.190000	435.00	-0.22	-0.07	9.25	9.50	5.50	7.00	3.25	2.75	0.75	0.75	3.00	1.25	1.50	2.00	2.00	2.75	1.00	0.50	-0.259277	0.057129	0.942871	-4.270000	0.210000	-0.490000	604.00	-0.15	-0.05
0.48	8.25	7.25	5.00	5.50	1.75	2.25	0.00	0.75	0.75	1.00	1.50	1.50	0.75	0.50	0.00	0.50	-0.281738	0.009766	0.937012	-2.310000	4.340000	1.190000	425.00	-0.22	-0.07	9.75	9.25	5.50	7.25	3.50	2.75	0.75	0.50	3.00	1.50	1.50	2.00	2.00	2.75	1.25	0.50	-0.263672	0.058105	0.938965	-4.200000	0.280000	-0.420000	615.00	-0.15	-0.04
0.49	8.50	7.50	5.00	5.50	2.00	2.50	0.00	0.50	0.50	1.00	1.25	1.50	0.75	0.50	0.25	0.25	-0.282715	0.015625	0.934082	-2.100000	4.480000	1.260000	427.00	-0.23	-0.07	9.50	9.50	5.50	7.00	3.25	2.75	0.75	0.50	3.00	1.50	1.50	2.00	2.00	3.00	1.25	0.50	-0.260254	0.055664	0.946289	-3.920000	0.350000	-0.420000	611.00	-0.15	-0.04
0.50	8.25	7.75	5.00	5.75	1.75	2.50	0.00	0.75	0.25	1.25	1.25	1.75	1.00	0.75	0.25	0.25	-0.288574	0.006836	0.940918	-2.100000	4.760000	1.260000	438.00	-0.22	-0.08	9.75	9.75	5.75	7.25	3.50	2.50	0.75	0.75	2.75	1.00	1.75	2.00	1.75	2.75	1.25	0.50	-0.258301	0.058594	0.945801	-3.780000	0.560000	-0.490000	615.00	-0.16	-0.05
0.51	8.75	7.75	5.00	5.50	2.00	2.50	0.00	0.50	0.50	1.00	1.25	1.25	0.50	0.50	0.25	0.25	-0.284668	0.010254	0.939941	-1.960000	5.110000	1.190000	427.00	-0.23	-0.06	10.00	9.75	5.75	7.00	3.50	2.50	0.75	0.50	3.00	1.25	1.50	2.00	2.25	3.00	1.50	0.50	-0.258789	0.058105	0.941895	-3.500000	0.700000	-0.490000	624.00	-0.15	-0.04
0.52	8.75	7.50	5.00	5.50	2.00	2.50	0.00	0.75	0.25	0.75	1.75	1.25	0.50	0.50	0.00	0.25	-0.282715	0.008789	0.939941	-1.960000	5.180000	1.190000	425.00	-0.24	-0.07	9.75	10.00	5.50	7.25	3.50	2.50	0.75	0.50	3.00	1.50	1.25	2.00	1.25	3.00	1.25	0.25	-0.260254	0.058105	0.937988	-3.360000	0.980000	-0.560000	610.00	-0.16	-0.04
0.53	8.75	7.75	5.00	5.75	1.75	2.25	0.00	0.50	0.25	0.75	1.50	1.50	1.00	0.75	0.00	0.00	-0.280762	0.013672	0.933594	-1.750000	5.040000	1.260000	426.00	-0.24	-0.07	10.50	10.00	5.75	7.50	3.50	2.75	0.75	0.50	3.25	1.50	1.50	2.25	2.00	3.00	1.50	0.50	-0.263184	0.062500	0.945801	-3.360000	1.190000	-0.420000	649.00	-0.15	-0.04
0.54	8.50	7.75	5.00	5.75	2.00	2.50	0.00	0.50	0.50	0.75	1.25	1.25	0.75	0.75	0.00	0.25	-0.286621	0.017090	0.938477	-1.750000	5.180000	1.190000	426.00	-0.24	-0.07	10.00	9.75	5.50	7.25	3.50	2.75	0.75	0.50	3.00	1.25	1.50	2.00	1.75	2.75	1.25	0.75	-0.262207	0.051270	0.946777	-3.220000	1.330000	-0.280000	619.00	-0.15	-0.04
0.55	8.75	7.75	4.75	5.50	1.75	2.25	0.00	0.25	0.25	0.75	1.25	1.25	0.25	0.50	0.00	0.00	-0.283691	0.015137	0.938965	-1.750000	5.040000	1.120000	401.00	-0.25	-0.06	10.25	9.75	5.75	7.25	3.50	2.50	0.75	0.50	3.00	1.25	1.75	2.00	1.50	2.75	1.00	0.50	-0.261230	0.059082	0.941895	-2.940000	1.540000	-0.140000	618.00	-0.16	-0.04
0.56	8.50	7.75	4.75	5.75	1.75	1.75	0.00	0.50	0.50	0.75	1.50	1.25	0.50	0.50	0.00	0.25	-0.279785	0.014160	0.935059	-1.890000	5.040000	1.050000	409.00	-0.24	-0.06	10.50	9.75	5.75	7.50	3.50	2.75	0.75	0.75	3.00	1.25	1.50	2.00	1.50	3.00	1.00	0.50	-0.262207	0.060059	0.943359	-2.940000	1.540000	-0.140000	630.00	-0.16	-0.04
0.57	8.50	7.75	5.00	5.50	1.75	2.50	0.00	0.50	0.25	0.75	1.25	1.25	1.00	0.25	0.25	0.25	-0.280273	0.008789	0.934082	-1.820000	4.970000	1.050000	417.00	-0.24	-0.07	10.25	9.75	5.75	7.25	3.25	2.50	0.50	0.50	2.75	1.50	1.50	1.75	1.50	2.75	1.25	0.25	-0.259277	0.061523	0.942383	-3.080000	1.610000	-0.210000	606.00	-0.16	-0.04
0.58	8.50	8.00	4.75	5.50	1.75	2.00	0.00	0.00	0.25	0.75	1.00	1.25	0.50	0.50	0.00	0.25	-0.283691	0.011719	0.931641	-1.890000	4.690000	1.050000	394.00	-0.26	-0.06	10.25	9.75	5.75	7.25	3.50	2.75	0.75	0.25	3.00	1.25	1.50	2.00	1.25	3.00	1.25	0.50	-0.256836	0.055664	0.941895	-3.290000	1.400000	-0.140000	617.00	-0.16	-0.03
0.59	8.50	8.00	5.00	5.50	1.75	2.50	0.00	0.50	0.50	1.00	1.25	1.25	0.50	0.50	0.00	0.25	-0.281738	0.016113	0.934082	-2.170000	4.760000	0.910000	421.00	-0.24	-0.07	10.75	9.75	5.75	7.25	3.50	2.50	0.50	0.25	3.00	1.25	1.50	2.00	1.50	2.75	1.25	0.50	-0.259766	0.060547	0.949707	-3.500000	1.400000	-0.140000	615.00	-0.16	-0.04
0.60	8.50	7.75	4.75	5.50	1.75	2.00	0.00	0.25	0.25	0.75	1.25	1.25	0.50	0.50	0.00	0.25	-0.284668	0.015137	0.936523	-2.170000	4.620000	0.980000	399.00	-0.25	-0.06	10.50	9.50	5.75	7.25	3.50	2.50	0.75	0.75	3.25	1.25	1.25	1.50	1.50	3.00	1.00	0.50	-0.265137	0.058105	0.940430	-3.570000	1.400000	-0.210000	617.00	-0.16	-0.03
0.61	8.75	8.00	4.75	5.50	1.75	2.00	0.00	0.50	0.50	0.50	1.25	1.00	0.25	0.25	0.25	0.00	-0.285156	0.012695	0.937500	-1.960000	4.480000	1.050000	403.00	-0.26	-0.06	10.25	9.75	5.75	7.25	3.25	2.25	0.75	0.25	3.00	1.25	1.50	1.75	1.25	2.75	1.25	0.50	-0.262695	0.059570	0.948730	-3.710000	1.470000	-0.280000	603.00	-0.16	-0.03
0.62	8.75	8.25	5.00	5.50	1.75	2.00	0.00	0.50	0.25	0.50	0.75	1.00	0.50	0.50	0.00	0.25	-0.281738	0.016602	0.939453	-1.680000	4.270000	1.050000	402.00	-0.26	-0.06	10.25	9.75	5.75	7.00	3.25	2.25	0.50	0.25	3.00	1.25	1.25	1.75	1.25	3.00	1.25	0.75	-0.259766	0.058594	0.947266	-3.640000	1.400000	-0.210000	596.00	-0.16	-0.03
0.63	9.25	8.25	5.00	5.50	1.75	2.25	0.00	0.25	0.75	0.75	1.00	1.00	0.50	0.25	0.00	0.00	-0.288574	0.020020	0.935547	-1.750000	4.130000	1.120000	416.00	-0.26	-0.05	10.75	9.50	5.75	7.00	3.25	2.25	0.50	0.50	2.75	1.25	1.25	1.50	1.00	2.75	1.25	0.50	-0.265137	0.058105	0.941406	-3.710000	1.330000	-0.210000	591.00	-0.17	-0.03
0.64	9.50	8.50	5.00	5.75	1.50	2.25	0.00	0.25	0.25	0.50	1.00	1.00	0.25	0.25	0.00	0.00	-0.289062	0.013672	0.935547	-1.680000	3.850000	1.120000	409.00	-0.28	-0.06	11.00	10.00	5.75	7.25	3.25	2.00	0.50	0.50	3.00	1.25	1.25	1.75	1.25	2.75	1.00	0.50	-0.260742	0.064941	0.943359	-3.850000	1.260000	-0.280000	605.00	-0.17	-0.03
0.65	9.50	8.50	5.00	5.75	1.75	2.00	0.00	0.25	0.50	1.00	1.00	0.75	0.00	0.50	0.00	0.25	-0.287109	0.016113	0.939453	-1.540000	3.850000	1.190000	417.00	-0.26	-0.05	10.75	10.00	5.75	7.00	3.25	2.00	0.50	0.50	2.75	1.00	1.25	1.50	1.25	2.75	1.00	0.50	-0.264648	0.054688	0.939941	-3.920000	1.260000	-0.280000	590.00	-0.18	-0.03
0.66	9.50	8.75	5.00	6.00	1.75	2.00	0.00	0.25	0.25	0.75	0.75	1.00	0.00	0.50	0.00	0.25	-0.279297	0.016113	0.938477	-1.120000	3.850000	1.330000	416.00	-0.27	-0.06	11.25	10.00	5.75	7.25	3.25	2.00	0.50	0.25	2.75	1.25	1.25	1.50	1.00	2.75	1.00	0.50	-0.267090	0.058594	0.939941	-3.780000	1.120000	-0.280000	595.00	-0.18	-0.03
0.67	9.75	8.75	5.00	6.00	1.75	2.00	0.00	0.25	0.50	0.75	1.00	0.75	0.25	0.25	0.00	0.25	-0.285156	0.020508	0.935547	-0.910000	3.920000	1.540000	422.00	-0.27	-0.05	11.00	10.25	5.75	7.00	3.25	2.00	0.50	0.25	2.75	1.25	1.25	1.50	0.75	2.50	1.00	0.50	-0.264160	0.055664	0.944824	-4.060000	0.910000	-0.070000	587.00	-0.18	-0.03
0.68	9.75	9.00	5.00	6.00	1.75	2.00	0.00	0.25	0.00	0.75	1.00	1.00	0.00	0.00	0.00	0.00	-0.278320	0.016113	0.932617	-0.840000	3.920000	1.610000	414.00	-0.29	-0.06	11.50	10.75	6.00	7.00	3.25	2.00	0.50	0.25	2.75	1.25	1.25	1.50	0.50	2.75	1.00	0.25	-0.265625	0.057617	0.938477	-3.990000	0.980000	-0.070000	599.00	-0.19	-0.02
0.69	10.00	9.00	5.00	6.00	1.75	2.25	0.00	0.25	0.25	0.50	1.00	0.75	0.00	0.25	0.00	0.00	-0.277344	0.016113	0.930176	-1.190000	4.060000	1.540000	420.00	-0.28	-0.06	11.50	10.50	6.00	7.00	3.25	2.00	0.50	0.25	3.00	1.00	1.25	1.25	0.75	3.00	1.25	0.50	-0.265137	0.055664	0.941895	-3.710000	0.910000	-0.000000	603.00	-0.18	-0.02
0.70	10.00	9.25	5.00	6.00	1.75	2.00	0.00	0.25	0.50	0.75	1.00	0.75	0.00	0.25	0.00	0.25	-0.281738	0.010742	0.940918	-1.260000	4.200000	1.540000	428.00	-0.28	-0.05	11.75	10.50	6.00	7.25	3.25	1.75	0.50	0.25	2.50	1.25	1.25	1.25	0.25	2.75	0.50	0.00	-0.263184	0.059082	0.941406	-3.640000	0.770000	-0.000000	583.00	-0.20	-0.02
0.71	10.00	9.50	5.00	6.00	1.75	2.25	0.00	0.25	0.00	0.50	0.75	0.75	0.00	0.25	0.00	0.00	-0.281738	0.014160	0.932617	-1.330000	4.200000	1.470000	419.00	-0.29	-0.06	12.25	10.75	6.00	7.25	3.00	1.75	0.50	0.25	3.00	1.00	1.00	1.25	0.50	2.50	0.75	0.25	-0.264648	0.058594	0.935547	-3.500000	0.700000	0.070000	594.00	-0.20	-0.02
0.72	10.50	9.50	5.00	6.25	1.75	2.25	0.00	0.25	0.25	0.75	0.75	1.00	0.00	0.25	0.00	0.25	-0.286133	0.017578	0.933594	-1.540000	4.060000	1.400000	438.00	-0.28	-0.06	12.75	10.75	6.00	7.00	3.25	1.75	0.50	0.25	2.75	1.00	1.00	1.00	1.00	2.50	1.00	0.25	-0.263184	0.056152	0.938965	-3.360000	0.840000	0.070000	601.00	-0.20	-0.02
0.73	10.25	9.25	5.00	6.25	1.75	2.25	0.00	0.00	0.00	0.75	1.00	0.50	0.00	0.00	0.00	0.00	-0.276855	0.017090	0.935547	-1.540000	3.850000	1.330000	419.00	-0.30	-0.05	11.75	11.00	6.25	7.25	3.00	1.75	0.50	0.00	2.50	1.00	1.00	0.75	0.75	2.50	1.00	0.50	-0.258789	0.054199	0.941406	-3.220000	0.910000	-0.000000	584.00	-0.20	-0.02
0.74	11.00	9.75	5.00	6.25	1.75	2.25	0.00	0.25	0.25	0.00	0.75	1.00	0.00	0.25	0.00	0.50	-0.286133	0.015137	0.932617	-1.680000	3.850000	1.400000	440.00	-0.29	-0.06	12.50	11.25	6.25	7.00	3.00	1.75	0.50	0.25	2.50	1.00	1.00	1.25	0.75	2.50	0.75	0.25	-0.251465	0.061523	0.940918	-3.220000	0.700000	0.070000	598.00	-0.21	-0.02
0.75	10.75	10.00	5.00	6.50	1.75	2.00	0.00	0.25	0.25	0.75	0.75	0.50	0.00	0.00	0.00	0.00	-0.280273	0.017090	0.933105	-1.750000	3.990000	1.330000	437.00	-0.30	-0.05	12.75	11.25	6.25	7.00	2.75	1.75	0.50	0.25	2.50	1.00	1.00	1.00	0.75	2.50	0.75	0.25	-0.260742	0.058105	0.936523	-3.430000	0.910000	-0.070000	594.00	-0.21	-0.02
0.76	11.25	10.00	5.00	6.50	1.75	2.25	0.00	0.00	0.00	0.25	1.00	0.75	0.00	0.00	0.00	0.00	-0.278320	0.016113	0.937012	-1.890000	4.060000	1.260000	438.00	-0.31	-0.06	12.50	11.75	6.00	7.00	3.00	1.50	0.50	0.00	2.75	1.25	1.00	1.25	0.00	2.50	0.75	0.25	-0.276855	0.045898	0.946777	-3.710000	0.980000	-0.210000	592.00	-0.21	-0.01
0.77	11.25	10.00	5.25	6.75	1.75	2.25	0.00	0.25	0.25	0.75	0.75	0.75	0.25	0.00	0.00	0.00	-0.274902	0.014160	0.928711	-2.100000	4.200000	1.190000	457.00	-0.29	-0.06	12.75	11.50	6.00	7.00	3.00	1.50	0.50	0.25	2.25	1.00	1.00	0.75	0.50	2.50	0.75	0.00	-0.263184	0.053711	0.940918	-3.430000	1.120000	-0.210000	584.00	-0.22	-0.02
0.78	11.50	10.00	5.00	6.75	1.75	2.25	0.00	0.25	0.25	0.50	0.75	1.00	0.00	0.25	0.00	0.00	-0.273926	0.012207	0.928711	-2.310000	4.270000	1.120000	456.00	-0.29	-0.06	12.75	11.50	6.00	7.00	3.00	1.25	0.50	0.25	2.50	0.75	0.75	1.00	0.50	2.25	0.50	0.25	-0.263672	0.056152	0.944336	-3.500000	1.120000	-0.210000	578.00	-0.22	-0.02
0.79	11.25	10.00	5.25	7.00	1.75	2.25	0.00	0.25	0.25	0.50	1.00	1.00	0.00	0.00	0.00	0.25	-0.278320	0.015625	0.930176	-2.590000	4.270000	1.120000	462.00	-0.29	-0.06	12.75	11.25	6.00	7.25	3.00	1.50	0.50	0.00	2.75	0.75	1.00	0.75	0.25	2.25	0.75	0.25	-0.260742	0.053711	0.944336	-3.430000	1.190000	-0.140000	581.00	-0.22	-0.01
0.80	11.50	10.00	5.00	6.75	1.75	2.25	0.00	0.25	0.00	0.75	0.75	1.00	0.00	0.25	0.00	0.25	-0.280762	0.018066	0.934082	-2.870000	4.340000	1.120000	457.00	-0.29	-0.06	12.75	11.50	6.25	7.25	3.00	1.25	0.50	0.00	2.50	0.75	0.75	1.00	0.50	2.50	0.75	0.25	-0.260742	0.054199	0.945312	-3.220000	1.120000	0.070000	585.00	-0.22	-0.02
0.81	11.75	10.25	5.00	7.00	1.75	2.50	0.00	0.50	0.00	0.75	0.75	1.00	0.00	0.00	0.00	0.00	-0.284668	0.018066	0.929199	-3.080000	4.550000	0.980000	469.00	-0.29	-0.06	12.75	11.50	6.25	7.25	3.00	1.50	0.50	0.00	2.50	0.75	0.75	1.00	0.25	2.25	1.00	0.25	-0.265137	0.057129	0.948730	-3.290000	1.260000	-0.000000	586.00	-0.22	-0.02
0.82	11.50	10.00	5.00	7.00	1.75	2.25	0.00	0.50	0.25	0.50	1.00	0.75	0.00	0.00	0.00	0.25	-0.281738	0.018066	0.931641	-3.220000	4.410000	0.980000	463.00	-0.29	-0.06	12.75	11.50	6.50	7.00	2.75	1.50	0.50	0.25	2.00	1.00	0.75	1.25	0.25	2.00	1.25	0.00	-0.266113	0.055176	0.941895	-3.360000	1.330000	-0.140000	585.00	-0.22	-0.02
0.83	11.50	10.00	5.25	7.25	1.75	2.50	0.00	0.25	0.50	1.00	0.50	0.50	0.00	0.50	0.00	0.25	-0.282227	0.020996	0.939941	-3.430000	4.480000	0.980000	473.00	-0.28	-0.05	13.25	11.25	6.25	7.25	3.00	1.25	0.50	0.00	2.25	1.00	0.75	1.00	0.00	2.50	0.75	0.25	-0.264160	0.053711	0.938965	-3.290000	1.400000	-0.210000	582.00	-0.22	-0.01
0.84	11.25	10.00	5.00	7.25	1.75	2.75	0.00	0.50	0.25	0.75	0.50	1.00	0.00	0.00	0.00	0.25	-0.284180	0.013672	0.936523	-3.500000	4.550000	1.050000	469.00	-0.29	-0.07	12.50	11.25	6.25	7.25	3.00	1.50	0.50	0.00	2.50	0.75	0.75	0.75	0.00	2.25	0.75	0.25	-0.263184	0.052246	0.939453	-3.150000	1.190000	0.070000	573.00	-0.22	-0.01
0.85	11.50	10.00	5.25	7.25	2.00	2.50	0.00	0.25	0.25	0.50	0.75	1.00	0.00	0.25	0.00	0.25	-0.285156	0.015625	0.937988	-3.640000	4.620000	0.910000	473.00	-0.29	-0.06	12.50	11.25	6.25	7.00	3.25	1.25	0.50	0.00	2.25	0.75	0.75	0.50	0.00	2.50	0.75	0.50	-0.263672	0.051270	0.943359	-3.290000	1.260000	-0.070000	567.00	-0.23	-0.01
0.86	11.00	10.25	5.25	7.00	2.00	2.50	0.00	0.25	0.50	1.25	1.00	1.00	0.50	0.25	0.00	0.00	-0.287598	0.014648	0.942383	-3.780000	4.760000	0.840000	485.00	-0.27	-0.06	12.25	11.50	6.25	7.00	2.75	1.50	0.50	0.00	2.25	1.00	0.75	0.75	0.25	2.25	0.75	0.25	-0.264648	0.059082	0.946777	-3.150000	1.260000	-0.070000	568.00	-0.22	-0.02
0.87	11.25	10.00	5.25	7.25	1.75	2.75	0.00	0.25	0.50	0.50	1.00	0.75	0.00	0.50	0.00	0.00	-0.276367	0.020508	0.939453	-3.780000	4.550000	0.910000	474.00	-0.28	-0.06	12.25	11.25	6.25	7.00	2.75	1.25	0.50	0.00	2.50	0.75	0.75	0.75	0.00	2.25	0.75	0.00	-0.264160	0.059570	0.940430	-3.220000	1.260000	-0.000000	559.00	-0.23	-0.01
0.88	11.25	10.00	5.25	7.25	1.75	2.75	0.00	0.50	0.50	0.75	0.75	1.00	0.00	0.25	0.25	0.25	-0.283203	0.019531	0.938965	-3.710000	4.410000	0.910000	484.00	-0.27	-0.06	12.50	11.50	6.25	7.00	3.00	1.25	0.50	0.00	2.25	1.25	0.50	0.50	0.00	2.25	0.50	0.00	-0.263184	0.052246	0.942383	-3.360000	1.120000	-0.070000	561.00	-0.23	-0.01
0.89	11.25	10.00	5.25	7.25	2.00	2.50	0.00	0.50	0.50	0.75	1.00	1.00	0.00	0.50	0.00	0.25	-0.281250	0.015137	0.936035	-3.640000	4.480000	0.980000	486.00	-0.27	-0.06	12.50	11.50	6.25	7.00	2.75	1.25	0.25	0.00	2.25	1.00	0.75	0.75	0.00	2.25	0.75	0.25	-0.264160	0.054688	0.938965	-3.430000	1.260000	-0.210000	561.00	-0.23	-0.01
0.90	11.25	10.00	5.00	7.25	2.00	3.00	0.00	0.25	0.00	0.50	0.75	1.00	0.50	0.25	0.00	0.00	-0.286621	0.012695	0.929688	-3.710000	4.480000	0.910000	473.00	-0.29	-0.07	12.50	11.25	6.25	7.00	2.75	1.25	0.50	0.00	2.25	1.00	0.75	0.75	0.25	2.25	0.50	0.00	-0.262695	0.056641	0.937500	-3.290000	1.400000	-0.210000	561.00	-0.23	-0.01
0.91	11.00	10.00	5.25	7.25	2.00	2.50	0.00	0.50	0.50	0.50	1.00	1.00	0.25	0.25	0.00	0.25	-0.283203	0.017090	0.934082	-3.780000	4.480000	0.840000	480.00	-0.27	-0.06	12.25	11.50	6.25	7.00	3.00	1.25	0.50	0.00	2.25	1.25	1.00	1.00	0.00	2.50	1.00	0.25	-0.268066	0.057129	0.938477	-3.430000	1.330000	-0.210000	579.00	-0.21	-0.01
0.92	11.00	10.00	5.25	7.25	1.75	2.75	0.00	0.50	0.25	0.75	1.25	1.25	0.50	0.25	0.00	0.25	-0.283203	0.014648	0.931641	-3.780000	4.620000	0.910000	488.00	-0.27	-0.07	12.75	11.25	6.25	7.00	2.75	1.25	0.50	0.00	2.25	1.00	1.00	0.75	0.25	2.25	0.75	0.50	-0.262207	0.053711	0.946777	-3.500000	1.330000	-0.210000	572.00	-0.22	-0.01
0.93	10.75	9.75	5.25	7.25	2.00	2.75	0.00	0.50	0.25	1.00	1.00	1.25	0.25	0.25	0.00	0.00	-0.279297	0.016602	0.933594	-3.780000	4.480000	0.910000	481.00	-0.27	-0.07	12.25	11.25	6.25	6.75	2.75	1.25	0.50	0.00	2.50	0.75	0.75	0.75	0.00	2.25	1.00	0.00	-0.261719	0.055664	0.938965	-3.290000	1.190000	-0.070000	559.00	-0.22	-0.01
0.94	11.50	9.75	5.25	7.00	2.00	2.75	0.00	0.50	0.25	0.50	1.00	1.00	0.25	0.25	0.00	0.25	-0.281738	0.011719	0.935059	-3.570000	4.550000	0.980000	480.00	-0.28	-0.06	12.50	11.00	6.25	7.00	2.75	1.25	0.50	0.00	2.25	0.75	0.75	0.75	0.00	2.00	0.75	0.00	-0.262207	0.056152	0.938965	-3.430000	1.120000	-0.070000	554.00	-0.23	-0.01
0.95	11.50	10.00	5.25	7.25	2.25	2.75	0.00	0.50	0.50	1.00	1.00	1.00	0.00	0.25	0.00	0.25	-0.282715	0.020996	0.937988	-3.430000	4.480000	0.980000	495.00	-0.27	-0.06	12.50	11.50	6.50	6.75	2.75	1.50	0.50	0.00	2.25	1.00	1.00	0.75	0.00	2.50	0.50	0.25	-0.264648	0.053223	0.940918	-3.080000	0.980000	-0.000000	571.00	-0.22	-0.01
0.96	11.50	9.75	5.25	7.25	2.00	2.50	0.00	0.50	0.75	0.75	1.25	1.00	0.00	0.00	0.00	0.25	-0.281738	0.017578	0.935059	-3.360000	4.550000	0.910000	488.00	-0.27	-0.06	12.25	11.25	6.25	7.00	2.75	1.25	0.50	0.00	2.25	0.75	1.00	0.75	0.25	2.50	0.75	0.25	-0.262695	0.054688	0.948730	-2.940000	1.050000	-0.000000	565.00	-0.22	-0.02
0.97	11.00	10.00	5.25	7.25	2.00	2.50	0.00	0.25	0.50	0.75	0.75	1.25	0.25	0.25	0.00	0.25	-0.282227	0.007812	0.946777	-2.520000	4.270000	0.980000	479.00	-0.27	-0.06	12.00	11.00	6.25	7.00	2.50	1.00	0.50	0.00	2.25	0.75	1.00	0.25	0.25	2.25	1.00	0.25	-0.266113	0.059082	0.941406	-2.940000	1.120000	-0.070000	548.00	-0.22	-0.01
0.98	11.00	10.00	5.25	7.00	1.75	2.75	0.00	0.50	0.00	0.75	1.25	1.00	0.00	0.25	0.00	0.25	-0.285156	0.014648	0.939453	-0.910000	3.920000	1.260000	473.00	-0.28	-0.07	12.50	11.50	6.50	7.00	2.75	1.25	0.50	0.00	2.50	0.75	0.75	0.75	0.00	2.25	0.75	0.00	-0.265625	0.052734	0.941895	-2.870000	1.050000	-0.000000	568.00	-0.23	-0.01
0.99	11.50	10.00	5.25	7.50	2.00	3.00	0.00	0.50	0.25	0.75	1.00	0.75	0.25	0.25	0.00	0.00	-0.280273	0.013184	0.929688	0.210000	3.920000	1.470000	490.00	-0.28	-0.06	12.75	11.00	6.25	6.75	2.75	1.25	0.50	0.25	2.25	1.00	0.75	1.00	0.25	2.25	0.50	0.25	-0.261230	0.056152	0.942383	-2.940000	1.050000	0.070000	567.00	-0.22	-0.02
1.00	11.75	9.75	5.25	7.25	2.00	3.00	0.00	0.50	0.25	0.75	1.00	1.00	0.25	0.25	0.00	0.25	-0.288086	0.008789	0.934082	0.350000	4.060000	1.470000	491.00	-0.28	-0.06	12.50	11.25	6.50	7.00	2.75	1.00	0.50	0.25	2.25	1.00	0.75	1.00	0.00	2.00	0.75	0.25	-0.263184	0.058594	0.937988	-2.940000	1.190000	-0.140000	568.00	-0.23	-0.02
1.01	11.75	10.25	5.50	7.50	1.75	3.00	0.00	0.50	0.25	0.75	0.75	0.75	0.00	0.25	0.00	0.25	-0.280273	0.015625	0.940918	0.140000	4.130000	1.470000	491.00	-0.29	-0.06	12.50	11.25	6.50	7.00	2.75	1.25	0.50	0.00	2.25	1.00	0.75	0.75	0.00	2.25	0.50	0.25	-0.261230	0.053223	0.946289	-3.080000	1.190000	-0.000000	563.00	-0.23	-0.01
1.02	11.75	10.25	5.25	7.50	2.00	2.75	0.00	0.50	0.00	0.50	0.75	1.00	0.00	0.25	0.00	0.00	-0.286133	0.018066	0.938477	-0.210000	4.340000	1.540000	483.00	-0.29	-0.07	12.25	11.00	6.25	7.00	2.75	1.25	0.25	0.00	2.25	1.00	0.75	0.75	0.00	2.50	0.75	0.25	-0.267578	0.054199	0.942383	-3.010000	1.120000	-0.070000	556.00	-0.22	-0.01
1.03	11.75	10.50	5.25	7.50	1.75	2.75	0.00	0.25	0.00	0.75	1.25	0.75	0.50	0.25	0.00	0.00	-0.282715	0.019043	0.932617	-0.350000	4.410000	1.470000	489.00	-0.29	-0.07	12.25	11.25	6.25	7.00	2.75	1.00	0.50	0.00	2.00	0.75	0.75	0.75	0.00	2.25	0.75	0.25	-0.263184	0.056152	0.944824	-2.870000	1.190000	-0.070000	551.00	-0.23	-0.01
1.04	11.75	10.50	5.25	7.75	2.00	3.25	0.00	0.25	0.50	0.50	0.75	0.75	0.50	0.25	0.00	0.00	-0.288086	0.012207	0.934082	-0.700000	4.200000	1.540000	500.00	-0.28	-0.06	12.00	11.00	6.25	7.00	2.75	1.00	0.50	0.00	2.25	0.75	0.75	0.75	0.00	2.25	0.50	0.25	-0.264160	0.051758	0.937012	-2.730000	1.190000	-0.000000	546.00	-0.23	-0.01
1.05	11.75	10.50	5.50	7.75	1.75	3.00	0.00	0.25	0.00	0.50	0.75	1.00	0.00	0.00	0.00	0.25	-0.278809	0.019531	0.939941	-0.980000	4.200000	1.400000	487.00	-0.30	-0.07	12.75	11.25	6.50	7.00	2.75	1.25	0.25	0.00	1.75	1.00	0.75	0.75	0.00	2.25	0.50	0.00	-0.259277	0.056641	0.944336	-2.660000	1.120000	-0.070000	553.00	-0.24	-0.02
1.06	12.25	11.00	5.25	7.75	1.75	3.00	0.00	0.50	0.25	0.75	0.75	1.00	0.25	0.25	0.00	0.00	-0.281738	0.019043	0.934082	-0.840000	4.340000	1.470000	508.00	-0.29	-0.07	12.50	11.25	6.50	7.00	2.50	1.25	0.50	0.00	2.25	0.50	0.75	0.75	0.00	2.00	0.75	0.00	-0.259277	0.056641	0.941895	-2.590000	0.980000	-0.000000	553.00	-0.24	-0.01
1.07	12.00	10.75	5.25	7.75	2.00	3.00	0.00	0.50	0.25	0.50	0.75	1.00	0.25	0.00	0.00	0.25	-0.281250	0.018066	0.940430	-0.350000	4.200000	1.610000	502.00	-0.29	-0.07	12.50	11.25	6.25	6.75	2.50	1.25	0.50	0.00	2.00	0.75	0.75	0.50	0.00	1.75	0.75	0.00	-0.260742	0.057617	0.943359	-2.380000	0.980000	0.070000	541.00	-0.24	-0.01
1.08	12.00	11.00	5.25	7.75	2.00	3.00	0.00	0.50	0.00	0.50	0.75	1.00	0.00	0.25	0.00	0.25	-0.286621	0.020996	0.938477	-0.560000	4.200000	1.470000	501.00	-0.29	-0.07	12.50	10.75	6.25	7.00	2.75	1.00	0.50	0.00	1.75	0.50	0.75	0.50	0.00	2.00	0.50	0.25	-0.269531	0.057129	0.945312	-2.520000	0.980000	0.070000	534.00	-0.24	-0.01
1.09	12.50	11.00	5.25	7.75	2.00	2.75	0.00	0.50	0.00	0.75	0.50	1.00	0.00	0.25	0.00	0.25	-0.275879	0.014160	0.936523	-0.770000	4.200000	1.470000	504.00	-0.29	-0.06	13.00	11.25	6.25	7.00	2.50	1.00	0.25	0.00	2.00	0.75	0.75	1.00	0.00	2.00	0.75	0.00	-0.266113	0.053711	0.941895	-2.660000	1.050000	-0.000000	551.00	-0.24	-0.02
1.10	12.25	11.00	5.25	7.75	2.00	2.75	0.00	0.25	0.25	0.50	0.75	1.00	0.25	0.00	0.00	0.00	-0.281738	0.020020	0.935059	-1.050000	4.410000	1.540000	499.00	-0.29	-0.06	12.50	11.75	6.25	7.00	2.50	1.00	0.25	0.00	1.75	0.75	0.75	0.75	0.00	2.00	0.50	0.00	-0.262207	0.058105	0.940918	-2.590000	0.770000	0.140000	541.00	-0.25	-0.02
1.11	12.50	11.00	5.25	7.75	1.75	2.75	0.00	0.25	0.25	0.50	0.75	1.00	0.00	0.25	0.00	0.25	-0.285156	0.018555	0.932617	-1.330000	4.550000	1.540000	500.00	-0.29	-0.06	12.75	11.75	6.25	7.00	2.50	1.25	0.25	0.00	1.75	0.75	0.75	0.50	0.25	1.75	0.75	0.00	-0.265625	0.060059	0.939453	-2.730000	0.980000	-0.140000	547.00	-0.25	-0.02
1.12	12.50	11.00	5.50	7.75	1.75	3.00	0.00	0.25	0.25	0.50	0.75	0.75	0.50	0.00	0.00	0.25	-0.283203	0.016602	0.942871	-1.400000	4.550000	1.540000	506.00	-0.29	-0.06	13.50	12.25	6.50	6.75	2.50	1.00	0.25	0.00	1.75	0.50	0.75	0.75	0.50	2.00	0.25	0.00	-0.264160	0.054688	0.944336	-2.800000	0.980000	-0.210000	556.00	-0.25	-0.02
1.13	12.75	11.00	5.25	8.00	1.75	3.00	0.00	0.25	0.25	0.50	0.75	0.75	0.00	0.00	0.00	0.00	-0.283203	0.023926	0.936035	-1.330000	4.480000	1.400000	502.00	-0.30	-0.06	13.00	12.00	6.25	7.00	2.50	1.25	0.25	0.00	1.75	0.75	0.50	0.75	0.00	2.00	0.50	0.00	-0.261230	0.061035	0.938965	-2.800000	0.910000	-0.210000	549.00	-0.25	-0.02
1.14	12.50	11.25	5.25	8.00	1.75	3.00	0.00	0.25	0.25	0.50	0.75	1.00	0.25	0.00	0.00	0.25	-0.277344	0.026367	0.937012	-1.470000	4.410000	1.400000	509.00	-0.29	-0.07	12.75	11.75	6.50	7.00	2.50	1.00	0.25	0.00	1.75	0.75	0.50	1.00	0.00	1.75	0.75	0.25	-0.284180	0.050781	0.939453	-2.730000	0.980000	-0.070000	549.00	-0.25	-0.02
1.15	12.75	11.25	5.25	8.00	1.75	3.00	0.00	0.25	0.25	0.50	0.50	1.00	0.00	0.00	0.00	0.25	-0.275391	0.018066	0.931152	-1.890000	4.550000	1.330000	506.00	-0.30	-0.06	14.00	12.25	6.25	6.75	2.50	1.25	0.25	0.25	1.75	1.00	0.75	0.75	0.00	1.75	0.75	0.25	-0.261719	0.055176	0.939941	-2.870000	1.120000	-0.140000	572.00	-0.25	-0.02
1.16	12.75	11.50	5.25	7.75	1.75	2.75	0.00	0.25	0.25	0.50	0.75	1.00	0.00	0.25	0.00	0.00	-0.278809	0.023438	0.933594	-2.310000	4.620000	1.120000	507.00	-0.30	-0.06	13.75	12.00	6.25	7.25	2.50	1.25	0.25	0.00	1.75	0.75	0.75	0.75	0.00	2.00	0.75	0.25	-0.264160	0.057617	0.946777	-3.010000	1.050000	-0.070000	568.00	-0.25	-0.02
1.17	12.50	11.25	5.25	8.00	1.75	3.00	0.00	0.25	0.25	0.75	0.50	0.75	0.00	0.00	0.00	0.00	-0.278320	0.023438	0.931641	-2.800000	4.550000	0.910000	502.00	-0.30	-0.06	14.00	12.50	6.25	7.25	2.50	1.00	0.25	0.00	1.75	0.75	0.50	0.75	0.00	1.75	0.75	0.25	-0.263672	0.054688	0.945312	-3.080000	1.050000	-0.140000	568.00	-0.25	-0.02
1.18	13.00	11.50	5.50	8.00	1.75	2.75	0.00	0.25	0.25	0.50	0.75	0.75	0.00	0.00	0.00	0.00	-0.278809	0.031738	0.935059	-3.080000	4.760000	0.840000	510.00	-0.30	-0.06	14.00	12.25	6.25	7.50	2.50	1.00	0.25	0.25	2.00	0.75	0.50	1.00	0.00	2.00	0.25	0.25	-0.264160	0.050781	0.945312	-3.010000	0.980000	-0.070000	575.00	-0.25	-0.02
1.19	12.50	11.25	5.25	8.00	1.75	2.75	0.00	0.50	0.00	0.50	0.75	0.75	0.00	0.00	0.00	0.25	-0.278320	0.021484	0.938965	-3.220000	4.620000	0.840000	501.00	-0.30	-0.07	14.25	12.25	6.25	7.50	2.75	1.00	0.25	0.00	1.50	0.75	0.50	0.50	0.00	2.00	0.50	0.25	-0.266113	0.055664	0.948730	-2.940000	0.980000	0.070000	567.00	-0.26	-0.02
1.20	12.75	11.25	5.25	8.00	1.75	2.75	0.00	0.00	0.00	0.50	0.75	0.75	0.00	0.00	0.00	0.25	-0.285156	0.020996	0.938965	-3.360000	4.550000	0.840000	496.00	-0.31	-0.06	14.25	12.75	6.25	7.25	2.75	1.25	0.25	0.00	1.50	0.75	0.75	0.75	0.00	1.75	0.50	0.25	-0.265137	0.058105	0.942871	-2.940000	1.050000	-0.140000	576.00	-0.26	-0.02
1.21	12.50	11.00	5.25	8.00	1.75	2.75	0.00	0.50	0.00	0.50	0.75	1.00	0.00	0.00	0.00	0.00	-0.282227	0.016602	0.940918	-3.430000	4.620000	0.840000	500.00	-0.30	-0.07	13.75	12.50	6.25	7.25	2.50	1.25	0.25	0.00	1.75	0.50	0.50	0.75	0.00	2.25	0.75	0.00	-0.262207	0.058594	0.940918	-2.660000	0.560000	0.070000	568.00	-0.25	-0.02
1.22	12.25	11.25	5.25	8.00	1.75	3.00	0.00	0.25	0.25	0.75	0.75	0.75	0.00	0.00	0.00	0.25	-0.284180	0.017578	0.938965	-3.500000	4.620000	0.840000	504.00	-0.30	-0.06	14.25	12.75	6.25	7.25	2.50	1.00	0.25	0.00	1.75	0.75	0.50	0.75	0.00	1.75	0.50	0.00	-0.266602	0.059082	0.949219	-2.310000	0.490000	0.140000	569.00	-0.26	-0.02
1.23	13.00	11.25	5.25	8.00	1.75	3.00	0.00	0.50	0.00	0.75	1.00	0.75	0.00	0.25	0.00	0.25	-0.279297	0.017578	0.944824	-3.220000	4.550000	0.910000	518.00	-0.29	-0.07	14.75	12.75	6.25	7.25	2.50	1.00	0.25	0.00	1.50	0.75	0.50	0.50	0.00	1.75	0.50	0.25	-0.265137	0.051758	0.939453	-1.960000	0.490000	0.070000	569.00	-0.27	-0.02
1.24	12.25	11.25	5.25	8.00	1.75	2.75	0.00	0.25	0.00	0.75	0.75	1.00	0.00	0.25	0.00	0.00	-0.282715	0.022461	0.941895	-2.380000	4.340000	1.050000	501.00	-0.30	-0.06	14.25	12.50	6.25	7.75	2.50	1.00	0.25	0.00	1.25	0.75	0.50	0.50	0.00	1.75	0.75	0.00	-0.261230	0.057129	0.946289	-1.680000	0.490000	0.140000	565.00	-0.27	-0.02
1.25	12.50	11.25	5.25	8.00	1.75	3.00	0.00	0.00	0.00	0.75	0.75	1.00	0.00	0.00	0.00	0.00	-0.282715	0.023438	0.937012	-1.540000	4.270000	1.260000	500.00	-0.30	-0.06	14.50	12.75	6.25	7.50	2.50	1.00	0.25	0.00	1.75	0.75	0.75	0.50	0.00	1.75	0.50	0.00	-0.264160	0.056152	0.938965	-1.890000	0.420000	0.140000	575.00	-0.26	-0.02
1.26	13.00	11.25	5.25	8.00	1.75	2.75	0.00	0.25	0.00	0.50	0.75	0.75	0.00	0.00	0.00	0.00	-0.282227	0.021484	0.937012	-1.610000	4.550000	1.260000	501.00	-0.31	-0.06	14.25	12.75	6.25	7.50	2.50	1.25	0.25	0.00	1.50	0.50	0.50	0.75	0.00	1.50	0.50	0.00	-0.266113	0.056152	0.937500	-2.170000	0.560000	0.070000	566.00	-0.27	-0.02
1.27	12.75	11.25	5.25	8.00	1.75	3.00	0.00	0.25	0.00	0.50	0.75	1.00	0.25	0.25	0.00	0.25	-0.276367	0.024414	0.940918	-1.610000	4.550000	1.190000	510.00	-0.29	-0.07	14.25	13.00	6.25	7.75	2.50	1.25	0.25	0.00	1.50	0.25	0.75	0.50	0.00	1.50	0.75	0.00	-0.265137	0.056641	0.939941	-2.590000	0.630000	-0.000000	572.00	-0.27	-0.03
1.28	12.75	11.25	5.25	8.25	1.75	3.00	0.00	0.25	0.00	0.25	0.75	0.75	0.00	0.00	0.00	0.00	-0.278809	0.018066	0.931152	-1.680000	4.410000	1.330000	501.00	-0.31	-0.07	14.50	12.75	6.25	7.75	2.25	1.00	0.25	0.25	1.50	0.50	0.50	0.75	0.00	1.75	0.50	0.00	-0.260742	0.057617	0.939941	-2.520000	0.700000	0.070000	572.00	-0.27	-0.03
1.29	13.00	11.25	5.25	8.00	1.75	3.00	0.00	0.50	0.00	0.50	0.75	0.75	0.25	0.25	0.00	0.00	-0.276367	0.015137	0.932129	-1.750000	4.340000	1.330000	513.00	-0.30	-0.07	14.50	13.00	6.50	7.50	2.50	1.00	0.25	0.00	1.25	0.75	0.50	0.50	0.00	1.50	0.50	0.25	-0.248535	0.022949	0.942871	-2.100000	0.700000	-0.350000	569.00	-0.27	-0.02
1.30	12.75	11.25	5.25	8.00	1.75	3.00	0.00	0.25	0.25	0.25	0.75	0.75	0.00	0.00	0.00	0.00	-0.275391	0.026367	0.927246	-2.030000	4.550000	1.260000	502.00	-0.30	-0.06	14.50	13.00	6.25	7.50	2.50	1.25	0.25	0.00	1.50	0.50	0.75	0.50	0.00	1.75	0.50	0.00	-0.276855	0.063965	0.949707	-0.280000	0.140000	0.140000	574.00	-0.27	-0.02
1.31	13.00	11.25	5.25	8.25	1.75	3.00	0.00	0.25	0.00	0.75	0.50	0.75	0.00	0.00	0.00	0.00	-0.279297	0.019531	0.938965	-2.030000	4.550000	1.120000	507.00	-0.31	-0.06	15.25	13.25	6.25	7.50	2.25	0.75	0.25	0.00	1.25	0.50	0.50	0.50	0.00	1.50	0.25	0.00	-0.274414	0.061523	0.950684	2.100000	-0.770000	0.350000	564.00	-0.28	-0.02
1.32	13.25	11.50	5.25	8.00	1.75	2.75	0.00	0.25	0.00	0.50	0.75	1.00	0.00	0.00	0.00	0.00	-0.284668	0.024902	0.944336	-0.980000	4.270000	1.330000	509.00	-0.30	-0.06	15.25	13.75	6.25	7.75	2.25	0.75	0.00	0.00	1.00	0.50	0.50	0.50	0.00	1.50	0.25	0.00	-0.508301	-0.022461	0.866211	3.360000	-0.630000	-0.560000	564.00	-0.29	-0.03
1.33	13.00	11.50	5.25	8.25	1.75	2.75	0.00	0.25	0.00	0.50	0.75	0.50	0.00	0.00	0.00	0.00	-0.285645	0.018555	0.945312	0.770000	3.500000	1.540000	504.00	-0.31	-0.06	15.50	13.75	6.25	7.75	2.50	1.00	0.00	0.25	0.75	0.75	0.25	0.50	0.00	1.50	0.25	0.00	-0.262207	0.058594	0.915527	3.150000	-1.260000	0.350000	574.00	-0.29	-0.03
1.34	13.75	12.00	5.25	8.00	1.75	3.00	0.00	0.75	0.00	0.50	0.75	0.75	0.00	0.00	0.00	0.00	-0.280762	0.020508	0.937012	3.220000	2.240000	1.960000	529.00	-0.30	-0.07	15.25	14.25	6.25	7.75	2.25	1.00	0.00	0.00	0.75	0.50	0.50	0.25	0.00	1.25	0.50	0.00	-0.261719	0.056641	0.948242	1.750000	-1.260000	0.490000	567.00	-0.30	-0.03
1.35	14.00	12.00	5.25	8.50	1.75	3.00	0.00	0.25	0.00	0.50	0.75	0.50	0.00	0.00	0.00	0.00	-0.284180	0.019043	0.939453	4.130000	2.030000	2.170000	526.00	-0.31	-0.06	16.25	14.25	6.25	7.75	2.00	1.00	0.00	0.00	1.00	0.50	0.25	0.25	0.00	1.25	0.50	0.00	-0.295410	0.045410	0.936523	0.490000	-0.910000	0.210000	576.00	-0.30	-0.03
1.36	13.75	12.50	5.25	8.25	1.50	3.00	0.00	0.25	0.00	0.00	0.75	0.75	0.00	0.00	0.00	0.00	-0.253906	0.037598	0.936035	4.200000	2.240000	2.310000	520.00	-0.32	-0.07	16.00	13.75	6.50	8.00	2.25	0.75	0.00	0.25	0.75	0.50	0.25	0.25	0.00	1.25	0.00	0.00	-0.243164	0.092285	1.003418	0.280000	-1.050000	0.210000	569.00	-0.31	-0.03
1.37	14.25	12.50	5.25	8.50	1.50	3.00	0.00	0.25	0.00	0.50	0.50	0.75	0.00	0.00	0.00	0.00	-0.286133	0.016602	0.927734	4.130000	1.820000	2.310000	531.00	-0.31	-0.06	15.75	14.25	6.25	7.75	2.00	0.75	0.00	0.00	0.75	0.50	0.25	0.25	0.00	1.25	0.25	0.25	-0.264160	0.062988	0.947266	-0.140000	-0.840000	0.280000	562.00	-0.30	-0.03
1.38	14.25	12.75	5.50	8.75	1.50	3.50	0.00	0.25	0.00	0.25	0.50	0.75	0.00	0.00	0.00	0.00	-0.277832	0.028320	0.938965	4.340000	1.750000	2.240000	543.00	-0.32	-0.07	16.00	14.00	6.25	7.75	2.00	0.75	0.00	0.00	0.75	0.25	0.25	0.25	0.00	1.25	0.00	0.00	-0.256348	0.081543	0.940430	0.070000	-0.840000	0.420000	555.00	-0.31	-0.03
1.39	14.75	13.25	5.25	8.75	1.50	3.25	0.00	0.25	0.00	0.50	0.50	0.50	0.00	0.00	0.00	0.25	-0.282715	0.032715	0.960449	6.790000	0.700000	2.520000	549.00	-0.32	-0.06	16.00	14.25	6.25	7.75	1.75	0.75	0.00	0.00	0.50	0.00	0.50	0.50	0.00	1.25	0.00	0.00	-0.275879	0.070312	0.908691	2.310000	-2.030000	0.350000	554.00	-0.32	-0.03
1.40	15.25	13.75	5.50	9.00	1.50	3.50	0.00	0.00	0.00	0.00	0.75	1.00	0.00	0.00	0.00	0.00	-0.314453	0.031738	0.957031	10.150000	-0.770000	2.660000	566.00	-0.32	-0.07	16.25	14.50	6.25	7.50	1.75	0.75	0.00	0.00	0.50	0.25	0.00	0.25	0.00	1.00	0.00	0.00	-0.267090	0.054688	0.960449	2.730000	-2.660000	0.630000	548.00	-0.33	-0.03
1.41	15.75	14.00	5.50	9.00	1.50	3.50	0.00	0.00	0.00	0.00	0.50	0.50	0.00	0.00	0.00	0.00	-0.258301	-0.016113	0.948242	12.600000	-2.660000	2.590000	565.00	-0.33	-0.06	15.75	14.00	6.00	7.50	1.75	0.75	0.00	0.00	0.25	0.25	0.25	0.00	0.00	1.00	0.00	0.00	-0.038086	0.303223	0.987793	4.900000	-2.030000	-1.540000	531.00	-0.33	-0.03
1.42	16.25	14.50	5.50	9.25	1.50	3.75	0.00	0.00	0.00	0.25	0.25	0.00	0.00	0.00	0.00	0.00	-0.253906	0.049316	0.956543	13.370000	-4.270000	2.590000	576.00	-0.33	-0.06	16.25	14.00	6.00	7.50	1.75	0.75	0.00	0.00	0.25	0.25	0.00	0.00	0.00	0.75	0.00	0.00	-0.306152	0.043457	0.946777	6.160000	-5.460000	0.700000	531.00	-0.33	-0.03
1.43	16.50	14.75	5.25	9.25	1.25	3.25	0.00	0.00	0.00	0.00	0.25	0.25	0.00	0.00	0.00	0.00	-0.208984	0.006348	0.965332	13.860000	-5.670000	2.380000	570.00	-0.34	-0.06	16.00	14.00	5.75	7.25	1.50	0.75	0.00	0.00	0.25	0.00	0.00	0.00	0.00	0.75	0.00	0.00	-0.060059	0.281250	1.054199	8.610000	-5.460000	-0.630000	517.00	-0.34	-0.03
1.44	17.25	15.25	5.50	9.50	1.25	3.25	0.00	0.00	0.00	0.00	0.00	0.00	0.00	0.00	0.00	0.00	-0.235840	0.053223	0.995605	14.560000	-6.440000	2.380000	583.00	-0.34	-0.06	15.25	13.50	5.75	7.25	1.25	0.50	0.00	0.00	0.25	0.00	0.00	0.00	0.00	0.50	0.00	0.00	-0.266602	0.062012	0.926270	8.470000	-8.680000	0.840000	495.00	-0.34	-0.03
1.45	18.00	15.75	5.50	9.50	1.00	3.25	0.00	0.00	0.00	0.00	0.00	0.00	0.00	0.00	0.00	0.00	-0.279297	0.080566	1.001953	17.710001	-9.450000	2.520000	594.00	-0.35	-0.06	15.00	13.25	5.50	7.00	1.25	0.50	0.00	0.00	0.00	0.00	0.00	0.00	0.00	0.50	0.00	0.00	-0.270020	0.049805	0.942871	5.670000	-8.820000	1.890000	480.00	-0.35	-0.03
1.46	17.50	15.75	5.50	9.75	1.00	3.00	0.00	0.00	0.00	0.00	0.00	0.00	0.00	0.00	0.00	0.25	-0.268066	0.103516	1.070801	19.180000	-10.640000	2.590000	590.00	-0.35	-0.06	14.25	12.75	5.25	6.75	1.00	0.25	0.00	0.00	0.00	0.00	0.00	0.00	0.00	0.75	0.00	0.00	-0.242188	0.064453	0.931152	6.300000	-8.190000	1.750000	457.00	-0.35	-0.03
1.47	18.00	16.00	5.25	9.50	1.00	3.00	0.00	0.00	0.00	0.00	0.00	0.00	0.00	0.00	0.00	0.00	-0.265137	0.112305	1.053711	20.299999	-11.970000	2.170000	590.00	-0.35	-0.06	14.00	12.25	5.25	6.50	1.00	0.25	0.00	0.00	0.00	0.00	0.00	0.00	0.00	0.50	0.00	0.00	-0.252441	0.080566	0.951660	7.140000	-7.560000	1.540000	443.00	-0.35	-0.03
1.48	18.00	16.25	5.25	9.75	0.75	2.75	0.00	0.00	0.00	0.00	0.00	0.00	0.00	0.00	0.00	0.00	-0.352539	0.062500	0.927734	21.139999	-15.750000	1.890000	590.00	-0.35	-0.06	13.25	12.00	5.00	6.25	1.00	0.00	0.00	0.00	0.00	0.00	0.00	0.00	0.00	0.50	0.00	0.00	-0.260254	0.080566	0.963867	9.030000	-8.750000	1.610000	423.00	-0.35	-0.03
1.49	18.75	16.75	5.25	9.75	0.75	2.50	0.00	0.00	0.00	0.00	0.00	0.00	0.00	0.00	0.00	0.00	-0.211914	0.039062	0.976562	19.460001	-16.730000	1.610000	601.00	-0.35	-0.06	12.50	11.50	5.00	6.25	0.75	0.00	0.00	0.00	0.00	0.00	0.00	0.00	0.00	0.25	0.00	0.00	-0.254395	0.089355	0.959961	9.590000	-9.800000	1.540000	405.00	-0.35	-0.04
1.50	19.75	17.00	5.25	10.00	0.75	2.50	0.00	0.00	0.00	0.00	0.00	0.00	0.00	0.00	0.00	0.00	-0.270508	0.044434	0.969727	19.110001	-18.480000	1.260000	617.00	-0.35	-0.05	11.75	11.00	4.75	6.00	0.75	0.00	0.00	0.00	0.00	0.00	0.00	0.00	0.00	0.25	0.00	0.00	-0.256836	0.076172	0.932129	8.750000	-10.500000	1.610000	385.00	-0.35	-0.04
1.51	20.25	17.25	5.00	9.75	0.50	2.25	0.00	0.00	0.00	0.00	0.00	0.00	0.00	0.00	0.00	0.00	-0.267578	0.045410	0.945312	19.180000	-20.020000	0.700000	614.00	-0.36	-0.05	11.75	10.75	5.00	6.00	0.75	0.00	0.00	0.00	0.00	0.00	0.00	0.00	0.00	0.25	0.00	0.00	-0.239258	0.106445	0.909668	3.710000	-8.750000	1.330000	385.00	-0.35	-0.03
1.52	20.50	18.00	4.75	10.00	0.25	2.00	0.00	0.00	0.00	0.00	0.00	0.00	0.00	0.00	0.00	0.00	-0.236816	0.052734	0.912598	17.780001	-19.320000	-0.210000	618.00	-0.36	-0.05	11.25	10.50	4.75	6.00	0.50	0.00	0.00	0.00	0.00	0.00	0.00	0.00	0.00	0.00	0.00	0.00	-0.235840	0.099609	0.939941	0.420000	-6.860000	1.190000	369.00	-0.36	-0.04
1.53	20.25	17.75	4.75	10.00	0.00	2.00	0.00	0.00	0.00	0.00	0.00	0.00	0.00	0.00	0.00	0.00	-0.221680	0.049805	0.873047	14.210000	-16.940001	-1.330000	610.00	-0.36	-0.05	12.00	10.50	4.50	5.75	0.75	0.00	0.00	0.00	0.00	0.00	0.00	0.00	0.00	0.00	0.00	0.00	-0.267090	0.079102	0.974121	1.610000	-9.030000	0.910000	374.00	-0.36	-0.03
1.54	20.75	19.00	5.00	10.00	0.25	1.50	0.00	0.00	0.00	0.00	0.00	0.00	0.00	0.00	0.00	0.00	-0.222168	0.106934	0.887207	10.220000	-13.860000	-1.610000	628.00	-0.36	-0.05	12.00	10.50	4.75	5.75	0.50	0.00	0.00	0.00	0.00	0.00	0.00	0.00	0.00	0.00	0.00	0.00	-0.227051	0.120117	0.950195	1.260000	-9.660000	1.050000	374.00	-0.36	-0.03
1.55	20.50	18.25	5.00	10.00	0.25	2.00	0.00	0.00	0.00	0.00	0.00	0.00	0.00	0.00	0.00	0.00	-0.223145	0.113281	0.899414	1.190000	-7.840000	1.190000	623.00	-0.36	-0.05	12.75	11.50	4.50	5.75	0.75	0.00	0.00	0.00	0.00	0.00	0.00	0.00	0.00	0.50	0.00	0.00	-0.255371	0.093262	0.940430	-0.280000	-9.450000	1.400000	398.00	-0.35	-0.03
1.56	21.50	18.25	5.00	10.00	0.25	2.00	0.00	0.00	0.00	0.00	0.00	0.00	0.00	0.00	0.00	0.00	-0.230469	0.071289	0.949707	-1.330000	-6.090000	2.100000	635.00	-0.36	-0.05	13.25	11.25	5.00	5.75	0.50	0.00	0.00	0.00	0.00	0.00	0.00	0.00	0.00	0.25	0.00	0.00	-0.233398	0.103516	0.973633	-0.210000	-9.730000	1.610000	401.00	-0.36	-0.03
1.57	21.50	18.50	5.00	10.25	0.25	1.50	0.00	0.00	0.00	0.00	0.00	0.00	0.00	0.00	0.00	0.00	-0.228027	0.058594	0.954102	-2.590000	-6.160000	1.680000	634.00	-0.36	-0.05	13.75	13.00	5.00	6.00	0.50	0.00	0.00	0.00	0.00	0.00	0.00	0.00	0.00	0.00	0.00	0.00	-0.241699	0.097168	0.959961	-0.350000	-10.570000	1.540000	425.00	-0.36	-0.04
1.58	21.50	19.00	5.00	10.25	0.25	1.75	0.00	0.00	0.00	0.00	0.00	0.00	0.00	0.00	0.00	0.00	-0.220703	0.065430	0.902832	-3.570000	-5.320000	0.910000	642.00	-0.36	-0.05	14.50	13.75	4.75	6.00	0.50	0.00	0.00	0.00	0.00	0.00	0.00	0.00	0.00	0.25	0.00	0.00	-0.186523	0.095703	0.961914	-2.380000	-8.960000	0.840000	441.00	-0.36	-0.03
1.59	22.25	19.00	5.00	10.25	0.25	1.50	0.00	0.00	0.00	0.00	0.00	0.00	0.00	0.00	0.00	0.00	-0.213867	0.085449	0.879883	-4.340000	-2.240000	0.910000	648.00	-0.36	-0.05	15.50	14.75	5.00	6.25	0.50	0.00	0.00	0.00	0.00	0.00	0.00	0.00	0.00	0.00	0.00	0.00	-0.243164	0.080566	0.935547	-2.800000	-8.610000	1.400000	466.00	-0.37	-0.04
1.60	21.75	18.75	5.00	10.25	0.25	1.75	0.00	0.00	0.00	0.00	0.00	0.00	0.00	0.00	0.00	0.00	-0.210449	0.078125	0.870605	-5.530000	2.100000	1.190000	643.00	-0.36	-0.05	16.25	15.50	5.25	6.25	0.50	0.00	0.00	0.00	0.00	0.00	0.00	0.00	0.00	0.25	0.00	0.00	-0.230957	0.095215	0.944824	-2.310000	-7.490000	1.190000	487.00	-0.36	-0.03
1.61	21.50	18.50	4.50	10.00	0.25	1.25	0.00	0.00	0.00	0.00	0.00	0.00	0.00	0.00	0.00	0.00	-0.213867	0.067383	0.880859	-6.580000	6.440000	0.980000	622.00	-0.37	-0.05	17.25	16.75	5.25	6.50	0.50	0.00	0.00	0.00	0.00	0.00	0.00	0.00	0.00	0.25	0.00	0.00	-0.220703	0.085449	0.912598	-1.820000	-5.950000	1.190000	514.00	-0.37	-0.03
1.62	21.00	18.25	5.00	10.00	0.25	1.25	0.00	0.00	0.00	0.00	0.00	0.00	0.00	0.00	0.00	0.00	-0.217773	0.078125	0.880371	-7.980000	10.850000	0.770000	620.00	-0.36	-0.05	18.25	17.25	5.25	7.00	0.75	0.00	0.00	0.00	0.00	0.00	0.00	0.00	0.00	0.00	0.00	0.00	-0.217285	0.080078	0.902832	-1.400000	-3.780000	0.980000	537.00	-0.37	-0.04
1.63	20.75	18.25	4.75	10.00	0.25	1.25	0.00	0.00	0.00	0.00	0.00	0.00	0.00	0.00	0.00	0.00	-0.219238	0.084473	0.901367	-10.010000	14.980000	0.770000	614.00	-0.36	-0.05	18.75	18.25	5.25	7.50	0.75	0.00	0.00	0.00	0.00	0.00	0.00	0.00	0.00	0.25	0.00	0.00	-0.215332	0.071777	0.884277	-2.940000	3.360000	-0.140000	561.00	-0.37	-0.04
1.64	20.50	17.50	5.00	9.75	0.50	1.25	0.00	0.00	0.00	0.00	0.00	0.00	0.00	0.00	0.00	0.00	-0.249023	0.085449	1.074219	-14.560000	16.590000	0.980000	607.00	-0.36	-0.05	20.00	19.50	5.25	7.75	0.75	0.00	0.00	0.00	0.00	0.00	0.00	0.00	0.00	0.00	0.00	0.00	-0.219727	0.081055	0.899414	-4.970000	6.720000	-0.840000	589.00	-0.37	-0.04
1.65	19.50	17.00	4.50	9.75	0.50	1.00	0.00	0.00	0.00	0.00	0.00	0.00	0.00	0.00	0.00	0.00	-0.241211	0.072266	0.973145	-17.219999	14.280000	1.470000	582.00	-0.36	-0.05	20.75	20.00	5.50	8.25	1.00	0.00	0.00	0.00	0.00	0.00	0.00	0.00	0.00	0.25	0.00	0.00	-0.222656	0.083496	0.894531	-6.580000	9.310000	-1.260000	617.00	-0.37	-0.04
1.66	18.75	16.50	4.75	9.25	0.25	1.00	0.00	0.00	0.00	0.00	0.00	0.00	0.00	0.00	0.00	0.00	-0.229492	0.059082	0.930664	-20.090000	15.190001	1.330000	562.00	-0.36	-0.05	22.00	21.50	6.00	8.75	1.00	0.25	0.00	0.00	0.00	0.00	0.00	0.00	0.00	0.00	0.00	0.00	-0.234863	0.084473	0.954102	-7.280000	10.920000	-1.540000	659.00	-0.37	-0.04
1.67	17.75	15.75	3.75	9.00	0.25	1.25	0.00	0.00	0.00	0.00	0.00	0.00	0.00	0.00	0.00	0.00	-0.241211	0.075684	0.963867	-22.540001	16.940001	1.120000	531.00	-0.36	-0.05	23.50	22.75	6.00	9.00	1.25	0.50	0.00	0.00	0.00	0.00	0.00	0.00	0.00	0.25	0.00	0.00	-0.233887	0.085938	0.923340	-6.720000	11.340000	-1.750000	699.00	-0.36	-0.04
1.68	16.25	14.50	3.75	8.50	0.50	0.75	0.00	0.00	0.00	0.00	0.00	0.00	0.00	0.00	0.00	0.00	-0.236328	0.074219	0.956055	-25.059999	18.270000	1.190000	492.00	-0.36	-0.05	24.50	23.75	6.50	9.75	1.50	0.75	0.00	0.00	0.00	0.00	0.00	0.00	0.00	0.25	0.00	0.00	-0.237305	0.092773	0.920410	-6.300000	12.180000	-2.100000	742.00	-0.36	-0.04
1.69	14.00	13.25	2.75	7.75	0.00	0.50	0.00	0.00	0.00	0.00	0.00	0.00	0.00	0.00	0.00	0.00	-0.235352	0.072266	0.949707	-30.940001	22.540001	0.840000	424.00	-0.37	-0.06	25.00	24.50	6.50	10.50	1.50	1.00	0.00	0.00	0.00	0.00	0.00	0.00	0.00	0.50	0.00	0.00	-0.257324	0.084473	1.005859	-4.060000	12.180000	-1.680000	769.00	-0.36	-0.04
1.70	11.75	11.25	2.00	7.00	0.25	0.00	0.00	0.00	0.00	0.00	0.00	0.00	0.00	0.00	0.00	0.00	-0.232910	0.050293	0.931152	-34.580002	25.340000	0.770000	358.00	-0.37	-0.06	26.25	25.75	7.00	11.50	1.75	1.25	0.00	0.00	0.25	0.00	0.00	0.00	0.00	0.25	0.00	0.00	-0.259277	0.083496	0.978516	-1.960000	9.730000	-1.190000	821.00	-0.36	-0.04
1.71	8.75	9.50	1.75	5.75	0.00	0.25	0.00	0.00	0.00	0.00	0.00	0.00	0.00	0.00	0.00	0.00	-0.213867	0.050293	0.931641	-37.520000	28.070000	0.070000	288.00	-0.37	-0.07	27.75	27.00	7.50	12.50	1.75	1.75	0.00	0.00	0.00	0.00	0.25	0.00	0.00	0.50	0.00	0.00	-0.248047	0.098145	0.965820	-2.100000	8.190000	-0.980000	877.00	-0.35	-0.05
1.72	7.00	7.75	1.25	4.00	0.00	0.00	0.00	0.00	0.00	0.00	0.00	0.00	0.00	0.00	0.00	0.00	-0.167969	0.063965	0.901367	-41.230000	30.590000	-0.490000	220.00	-0.37	-0.06	28.75	28.00	8.00	12.75	2.00	2.00	0.00	0.00	0.00	0.00	0.00	0.25	0.00	0.25	0.00	0.00	-0.250977	0.097656	0.966309	-3.570000	7.490000	-0.910000	911.00	-0.36	-0.05
1.73	5.75	6.25	1.00	3.00	0.00	0.00	0.00	0.00	0.00	0.00	0.00	0.00	0.00	0.00	0.00	0.00	-0.123535	0.029785	0.923828	-43.189999	35.349998	-0.140000	176.00	-0.37	-0.06	29.50	28.75	8.50	13.50	2.25	2.25	0.00	0.00	0.25	0.25	0.00	0.25	0.00	0.50	0.00	0.00	-0.249512	0.092773	0.968262	-5.670000	7.000000	-0.840000	957.00	-0.35	-0.05
1.74	4.00	5.00	0.50	1.75	0.00	0.00	0.00	0.00	0.00	0.00	0.00	0.00	0.00	0.00	0.00	0.00	-0.047852	0.147461	1.021484	-41.790001	39.830002	-9.030000	123.00	-0.38	-0.06	30.25	29.25	8.75	14.00	2.50	2.50	0.00	0.00	0.25	0.00	0.25	0.50	0.00	0.50	0.00	0.00	-0.251465	0.099609	0.964355	-7.980000	6.860000	-0.840000	988.00	-0.35	-0.05
1.75	3.25	3.25	0.25	0.75	0.00	0.00	0.00	0.00	0.00	0.00	0.00	0.00	0.00	0.00	0.00	0.00	-0.269531	0.053223	1.244629	-67.830002	55.580002	-28.700001	82.00	-0.39	-0.04	31.00	30.00	9.00	14.50	2.50	2.50	0.00	0.00	0.25	0.25	0.25	0.50	0.00	0.75	0.00	0.00	-0.251465	0.091309	0.962891	-10.080000	6.020000	-0.980000	1018.00	-0.34	-0.05
1.76	2.00	2.25	0.25	0.50	0.00	0.50	0.00	0.00	0.00	0.00	0.00	0.00	0.00	0.00	0.00	0.00	0.042480	0.265625	1.381836	-55.930000	89.180000	-33.950001	60.00	-0.37	-0.07	31.00	29.75	9.25	14.75	2.75	3.00	0.00	0.00	0.50	0.25	0.50	0.25	0.00	0.75	0.25	0.00	-0.247559	0.091309	0.966309	-10.010000	5.460000	-0.910000	1037.00	-0.34	-0.05
1.77	1.25	2.00	0.00	0.00	0.00	0.00	0.00	0.00	0.00	0.00	0.00	0.00	0.00	0.00	0.00	0.00	0.088867	0.326172	1.387207	-43.119999	106.330002	-41.090000	34.00	0.00	0.00	31.00	30.00	9.25	15.00	2.75	3.00	0.00	0.00	0.75	0.25	0.25	0.25	0.00	0.75	0.00	0.00	-0.244629	0.088867	0.966309	-9.380000	4.970000	-0.980000	1041.00	-0.34	-0.05
1.78	1.25	1.50	0.00	0.25	0.00	0.00	0.00	0.00	0.00	0.00	0.00	0.00	0.00	0.00	0.00	0.00	0.180664	0.343750	1.394531	-18.059999	105.910004	-44.730000	32.00	0.00	0.00	30.50	29.75	9.25	14.75	3.00	3.25	0.00	0.00	0.75	0.25	0.25	0.00	0.00	0.50	0.00	0.00	-0.250977	0.078125	0.956543	-9.030000	4.410000	-0.770000	1030.00	-0.34	-0.05
1.79	1.00	1.75	0.00	0.25	0.00	0.25	0.00	0.00	0.00	0.00	0.00	0.00	0.00	0.00	0.00	0.00	0.340332	0.371582	1.496094	-1.890000	98.139999	-45.500000	35.00	0.00	0.00	30.50	29.25	9.25	15.00	3.00	3.00	0.00	0.00	0.50	0.25	0.50	0.50	0.00	0.50	0.25	0.00	-0.254883	0.081543	0.953125	-8.330000	4.200000	-0.770000	1033.00	-0.33	-0.05
1.80	0.50	1.25	0.25	0.00	0.00	0.00	0.00	0.00	0.00	0.00	0.00	0.00	0.00	0.00	0.00	0.00	0.451172	0.367188	1.480469	6.160000	86.029999	-43.400002	21.00	0.00	0.00	30.75	28.75	9.50	14.75	3.00	3.25	0.00	0.00	0.75	0.25	0.25	0.50	0.00	0.50	0.00	0.00	-0.252930	0.078125	0.954102	-6.440000	3.570000	-0.560000	1032.00	-0.34	-0.04
1.81	0.50	0.75	0.00	0.00	0.00	0.00	0.00	0.00	0.00	0.00	0.00	0.00	0.00	0.00	0.00	0.00	0.575195	0.367676	1.388184	6.370000	72.660004	-38.849998	13.00	0.00	0.00	30.50	30.00	9.50	15.00	3.00	3.25	0.00	0.00	0.50	0.00	0.25	0.25	0.00	0.50	0.00	0.00	-0.255859	0.082520	0.960938	-4.270000	2.590000	-0.490000	1035.00	-0.34	-0.05
1.82	0.00	1.50	0.00	0.00	0.00	0.00	0.00	0.00	0.00	0.00	0.00	0.00	0.00	0.00	0.00	0.00	0.659668	0.355957	1.283691	4.270000	59.779999	-32.200001	15.00	0.00	0.00	30.25	29.00	9.25	15.00	3.00	3.25	0.00	0.00	0.50	0.50	0.25	0.25	0.00	0.75	0.00	0.00	-0.253906	0.081055	0.952637	-2.870000	1.890000	-0.140000	1027.00	-0.34	-0.05
1.83	0.00	0.50	0.00	0.00	0.00	0.00	0.00	0.00	0.00	0.00	0.00	0.00	0.00	0.00	0.00	0.00	0.747070	0.326172	1.201172	6.160000	48.439999	-25.480000	5.00	0.00	0.00	30.25	29.00	9.25	14.75	2.75	3.50	0.00	0.00	0.25	0.50	0.50	0.25	0.00	0.75	0.00	0.00	-0.251953	0.076172	0.941895	-2.170000	1.400000	-0.000000	1024.00	-0.34	-0.05
1.84	0.00	0.75	0.00	0.00	0.00	0.00	0.00	0.00	0.00	0.00	0.00	0.00	0.00	0.00	0.00	0.00	0.838379	0.275879	1.182617	14.630000	37.450001	-20.160000	8.00	0.00	0.00	29.75	28.75	9.25	14.50	3.00	3.25	0.00	0.00	0.50	0.25	0.50	0.25	0.00	0.75	0.00	0.00	-0.250977	0.082520	0.958496	-1.610000	1.120000	0.140000	1013.00	-0.34	-0.05
1.85	0.00	0.50	0.00	0.00	0.00	0.00	0.00	0.00	0.00	0.00	0.00	0.00	0.00	0.00	0.00	0.00	0.865723	0.114746	1.201660	40.810001	12.180000	-15.750000	5.00	0.00	0.00	29.00	28.50	9.00	14.75	2.75	3.00	0.00	0.00	0.50	0.25	0.25	0.25	0.00	0.50	0.00	0.00	-0.255859	0.079102	0.945801	-1.260000	0.980000	0.070000	991.00	-0.34	-0.05
1.86	0.25	0.25	0.00	0.00	0.00	0.00	0.00	0.00	0.00	0.00	0.00	0.00	0.00	0.00	0.00	0.00	0.856934	0.030273	1.194824	49.490002	-2.310000	-15.680000	5.00	0.00	0.00	29.00	28.00	9.00	14.50	3.00	3.50	0.00	0.00	0.50	0.25	0.25	0.50	0.00	0.50	0.00	0.00	-0.254395	0.083008	0.950195	-1.330000	0.770000	0.280000	995.00	-0.34	-0.05
1.87	0.00	0.50	0.00	0.00	0.00	0.00	0.00	0.00	0.00	0.00	0.00	0.00	0.00	0.00	0.00	0.00	0.831543	-0.054199	1.167480	52.080002	-17.360001	-16.170000	5.00	0.00	0.00	28.75	28.00	9.00	14.50	2.75	3.25	0.00	0.00	0.00	0.25	0.25	0.25	0.00	0.75	0.00	0.00	-0.250000	0.079590	0.939453	-2.520000	1.260000	0.070000	978.00	-0.34	-0.05
1.88	0.00	0.75	0.00	0.00	0.00	0.00	0.00	0.00	0.00	0.00	0.00	0.00	0.00	0.00	0.00	0.00	0.783691	-0.119141	1.144531	49.630001	-30.730000	-16.799999	8.00	0.00	0.00	28.50	27.75	9.00	14.25	2.75	3.50	0.00	0.00	0.25	0.25	0.25	0.50	0.00	0.75	0.25	0.00	-0.253418	0.080566	0.941406	-3.010000	1.330000	0.210000	982.00	-0.33	-0.05
1.89	0.00	0.25	0.00	0.00	0.00	0.00	0.00	0.00	0.00	0.00	0.00	0.00	0.00	0.00	0.00	0.00	0.721191	-0.155273	1.128418	45.290001	-42.560001	-17.219999	3.00	0.00	0.00	28.25	27.50	8.75	14.50	2.75	3.50	0.00	0.00	0.25	0.25	0.25	0.25	0.00	0.50	0.00	0.25	-0.252930	0.077637	0.941895	-2.380000	1.050000	0.210000	970.00	-0.34	-0.05
1.90	0.00	0.25	0.00	0.00	0.00	0.00	0.00	0.00	0.00	0.00	0.00	0.00	0.00	0.00	0.00	0.00	0.657715	-0.157715	1.182617	42.349998	-53.900002	-17.290001	3.00	0.00	0.00	27.75	27.75	9.00	14.25	2.75	3.50	0.00	0.00	0.25	0.25	0.25	0.50	0.00	0.25	0.00	0.00	-0.246582	0.080566	0.943359	-1.680000	0.840000	0.350000	966.00	-0.34	-0.05
1.91	0.00	0.75	0.00	0.00	0.00	0.25	0.00	0.00	0.00	0.00	0.00	0.00	0.00	0.00	0.00	0.00	0.595215	-0.132812	1.226074	42.000000	-65.870003	-16.309999	11.00	0.00	0.00	27.50	27.50	8.75	14.25	2.75	3.25	0.00	0.00	0.25	0.25	0.25	0.50	0.00	0.50	0.00	0.00	-0.249512	0.081055	0.944336	-1.540000	0.770000	0.350000	957.00	-0.34	-0.05
1.92	0.00	0.50	0.00	0.00	0.00	0.00	0.00	0.00	0.00	0.00	0.00	0.00	0.00	0.00	0.00	0.00	0.541504	-0.117188	1.243164	43.470001	-78.050003	-14.210000	5.00	0.00	0.00	27.50	27.00	9.00	14.50	2.75	3.25	0.00	0.00	0.25	0.25	0.00	0.50	0.00	0.50	0.00	0.00	-0.253906	0.085449	0.938477	-2.240000	0.980000	0.210000	955.00	-0.34	-0.05
1.93	0.00	0.00	0.00	0.00	0.00	0.00	0.00	0.00	0.00	0.00	0.00	0.00	0.00	0.00	0.00	0.00	0.478516	-0.104004	1.228516	43.889999	-89.110001	-11.060000	0.00	0.00	0.00	27.75	27.25	9.00	14.50	2.75	3.75	0.00	0.00	0.00	0.25	0.50	0.50	0.00	0.50	0.00	0.00	-0.248535	0.078613	0.941406	-3.150000	1.330000	-0.000000	969.00	-0.34	-0.05
1.94	0.00	0.00	0.00	0.00	0.00	0.00	0.00	0.00	0.00	0.00	0.00	0.00	0.00	0.00	0.00	0.00	0.402832	-0.086426	1.197266	41.509998	-97.720001	-6.650000	0.00	0.00	0.00	27.50	27.00	9.00	14.25	2.75	3.50	0.00	0.00	0.25	0.25	0.50	0.25	0.00	0.75	0.00	0.00	-0.249023	0.082031	0.940430	-3.920000	1.330000	0.070000	960.00	-0.33	-0.05
1.95	0.00	0.00	0.00	0.00	0.00	0.00	0.00	0.00	0.00	0.00	0.00	0.00	0.00	0.00	0.00	0.00	0.320312	-0.064941	1.176270	35.840000	-103.250000	-1.190000	0.00	0.00	0.00	27.50	26.75	8.75	14.25	2.75	3.75	0.00	0.00	0.25	0.00	0.25	0.25	0.00	0.50	0.00	0.00	-0.247559	0.081055	0.926758	-4.970000	1.750000	0.140000	950.00	-0.34	-0.05
1.96	0.00	0.00	0.00	0.00	0.00	0.00	0.00	0.00	0.00	0.00	0.00	0.00	0.00	0.00	0.00	0.00	0.226562	-0.048340	1.173828	27.440001	-105.910004	4.690000	0.00	0.00	0.00	27.00	27.00	8.75	14.25	2.75	3.50	0.00	0.00	0.50	0.25	0.50	0.50	0.00	0.50	0.00	0.00	-0.249023	0.080078	0.942871	-5.320000	2.170000	-0.000000	956.00	-0.33	-0.05
1.97	0.00	0.25	0.00	0.00	0.00	0.00	0.00	0.00	0.00	0.00	0.00	0.00	0.00	0.00	0.00	0.00	0.125000	-0.037598	1.151367	17.080000	-105.699997	10.220000	3.00	0.00	0.00	27.25	26.50	9.00	14.50	3.00	3.50	0.00	0.00	0.50	0.50	0.25	0.50	0.00	0.25	0.00	0.00	-0.250000	0.082031	0.936523	-5.880000	2.590000	-0.210000	960.00	-0.33	-0.05
1.98	0.00	0.00	0.00	0.00	0.00	0.00	0.00	0.00	0.00	0.00	0.00	0.00	0.00	0.00	0.00	0.00	0.018555	-0.038574	1.104980	6.230000	-102.059998	15.050000	0.00	0.00	0.00	27.25	26.25	9.25	14.25	3.00	3.75	0.00	0.00	0.25	0.50	0.50	0.50	0.00	0.50	0.00	0.00	-0.248047	0.084473	0.925781	-6.720000	2.730000	-0.350000	962.00	-0.33	-0.05
1.99	0.00	0.00	0.00	0.00	0.00	0.00	0.00	0.00	0.00	0.00	0.00	0.00	0.00	0.00	0.00	0.00	-0.152832	-0.026855	1.112793	-12.250000	-87.639999	22.680000	0.00	0.00	0.00	26.50	26.25	9.00	14.50	3.00	3.75	0.00	0.00	0.50	0.50	0.50	0.50	0.00	0.50	0.00	0.00	-0.250488	0.083008	0.944824	-9.380000	3.360000	-0.700000	957.00	-0.33	-0.05
2.00	0.00	0.25	0.00	0.00	0.00	0.00	0.00	0.00	0.00	0.00	0.00	0.00	0.00	0.00	0.00	0.00	-0.226074	0.020996	1.372559	-13.160000	-84.139999	26.040001	3.00	0.00	0.00	27.25	25.75	9.25	14.50	3.50	4.25	0.00	0.00	0.75	0.50	0.75	0.50	0.00	0.50	0.00	0.00	-0.244629	0.074707	0.921387	-10.990000	3.780000	-0.980000	982.00	-0.32	-0.05
2.01	0.25	0.25	0.00	0.00	0.00	0.00	0.00	0.00	0.00	0.00	0.00	0.00	0.00	0.00	0.00	0.00	-0.276855	0.060547	1.592285	-7.140000	-89.669998	29.610001	5.00	0.00	0.00	26.25	25.75	9.25	14.75	3.50	4.25	0.00	0.25	0.50	0.50	0.75	0.75	0.00	0.50	0.00	0.00	-0.242188	0.071289	0.933105	-12.460000	4.060000	-1.050000	978.00	-0.32	-0.05
2.02	0.00	0.00	0.00	0.00	0.00	0.00	0.00	0.00	0.00	0.00	0.00	0.00	0.00	0.00	0.00	0.00	-0.289551	0.049316	1.635254	2.730000	-105.629997	31.920000	0.00	0.00	0.00	26.25	25.25	9.25	14.50	3.75	4.75	0.00	0.25	0.75	0.50	0.75	0.75	0.00	0.75	0.00	0.00	-0.253906	0.073730	0.937012	-13.720000	4.270000	-1.190000	984.00	-0.31	-0.05
2.03	0.00	0.00	0.00	0.00	0.00	0.00	0.00	0.00	0.00	0.00	0.00	0.00	0.00	0.00	0.00	0.00	-0.341309	0.038574	1.532227	11.340000	-123.410004	32.200001	0.00	0.00	0.00	26.00	25.00	9.75	14.50	4.25	5.00	0.25	0.25	1.00	0.50	1.00	0.75	0.00	1.00	0.00	0.00	-0.251953	0.070801	0.940430	-14.630000	4.480000	-1.400000	1007.00	-0.30	-0.05
2.04	0.00	0.00	0.00	0.00	0.00	0.00	0.00	0.00	0.00	0.00	0.00	0.00	0.00	0.00	0.00	0.00	-0.380859	0.007324	1.322754	17.570000	-135.800003	30.870001	0.00	0.00	0.00	25.50	24.50	9.75	14.50	4.75	5.25	0.25	0.50	1.00	0.75	1.00	1.00	0.00	0.75	0.25	0.00	-0.251465	0.069824	0.942383	-14.700000	3.920000	-1.540000	1016.00	-0.30	-0.05
2.05	0.00	0.00	0.00	0.00	0.00	0.00	0.00	0.00	0.00	0.00	0.00	0.00	0.00	0.00	0.00	0.00	-0.421387	-0.025391	1.110840	19.670000	-139.300003	27.930000	0.00	0.00	0.00	24.50	24.25	10.00	14.50	5.50	5.00	0.25	0.50	1.00	0.75	1.25	1.00	0.25	0.75	0.50	0.25	-0.253906	0.066406	0.939941	-14.560000	3.360000	-1.470000	1020.00	-0.29	-0.05
2.06	0.00	0.00	0.00	0.00	0.00	0.25	0.00	0.00	0.00	0.00	0.00	0.00	0.00	0.00	0.00	0.00	-0.441895	-0.037109	0.963379	17.990000	-134.820007	24.290001	3.00	0.00	0.00	24.00	23.50	10.25	14.25	5.75	5.75	0.25	0.50	1.00	1.00	1.25	1.25	0.50	1.00	0.50	0.25	-0.254395	0.065918	0.949219	-13.720000	2.730000	-1.330000	1030.00	-0.28	-0.05
2.07	0.00	0.00	0.00	0.00	0.00	0.00	0.00	0.00	0.00	0.00	0.00	0.00	0.00	0.00	0.00	0.00	-0.461426	-0.041504	0.897461	14.280000	-125.300003	20.160000	0.00	0.00	0.00	23.50	22.75	10.00	14.25	6.25	6.00	0.25	0.50	1.25	1.25	1.25	1.25	0.50	1.00	0.50	0.00	-0.256836	0.061523	0.939453	-13.230000	2.170000	-1.470000	1027.00	-0.28	-0.05
2.08	0.00	0.00	0.00	0.00	0.00	0.00	0.00	0.00	0.00	0.00	0.00	0.00	0.00	0.00	0.00	0.00	-0.464355	-0.033203	0.863281	9.940000	-114.239998	15.190001	0.00	0.00	0.00	22.75	21.75	10.25	14.00	6.75	6.00	0.50	0.75	1.50	1.00	1.50	1.50	1.00	1.25	0.50	0.25	-0.249023	0.064941	0.938477	-13.160000	1.400000	-1.470000	1038.00	-0.26	-0.05
2.09	0.00	0.25	0.00	0.00	0.00	0.00	0.00	0.00	0.00	0.00	0.00	0.00	0.00	0.00	0.00	0.00	-0.482910	-0.027832	0.843750	6.020000	-102.970001	9.870000	3.00	0.00	0.00	21.75	21.00	10.25	13.75	7.25	6.50	0.50	1.00	1.50	1.50	1.75	1.50	1.00	1.25	0.50	0.50	-0.248535	0.060059	0.937988	-14.000000	0.980000	-1.610000	1042.00	-0.25	-0.06
2.10	0.00	0.00	0.00	0.00	0.00	0.00	0.00	0.00	0.00	0.00	0.00	0.00	0.00	0.00	0.00	0.00	-0.511719	-0.045410	0.827637	2.240000	-92.820000	4.200000	0.00	0.00	0.00	20.25	20.00	10.75	13.75	7.50	6.75	0.75	1.00	2.00	1.50	2.00	2.00	1.25	1.50	0.75	0.50	-0.250000	0.059082	0.943848	-15.400000	0.630000	-1.820000	1055.00	-0.23	-0.06
2.11	0.00	0.00	0.00	0.00	0.00	0.00	0.00	0.00	0.00	0.00	0.00	0.00	0.00	0.00	0.00	0.00	-0.536133	-0.071289	0.795410	-0.560000	-83.300003	-1.960000	0.00	0.00	0.00	21.75	20.75	12.50	13.00	8.00	6.75	1.00	2.00	2.50	2.25	2.50	2.75	2.75	2.25	2.00	1.25	-0.244629	0.060059	0.940430	-16.870001	0.910000	-2.380000	1188.00	-0.20	-0.06
2.12	0.00	0.00	0.00	0.00	0.00	0.00	0.00	0.00	0.00	0.00	0.00	0.00	0.00	0.00	0.00	0.00	-0.579102	-0.050293	0.844238	0.700000	-76.300003	-8.260000	0.00	0.00	0.00	25.75	22.75	13.00	16.50	9.75	8.75	2.25	2.50	5.00	2.75	3.75	3.50	4.00	3.50	2.50	2.00	-0.247070	0.054199	0.941895	-16.240000	1.190000	-2.520000	1474.00	-0.18	-0.05
2.13	0.00	0.00	0.00	0.00	0.00	0.00	0.00	0.00	0.00	0.00	0.00	0.00	0.00	0.00	0.00	0.00	-0.614746	-0.018066	0.906250	8.540000	-73.150002	-14.140000	0.00	0.00	0.00	24.00	21.50	12.75	16.00	10.00	8.75	2.75	2.75	5.75	3.25	4.25	4.25	4.50	3.75	2.75	2.00	-0.252441	0.050781	0.949219	-14.980000	1.890000	-2.520000	1488.00	-0.16	-0.05
2.14	0.00	0.00	0.00	0.00	0.00	0.00	0.00	0.00	0.00	0.00	0.00	0.00	0.00	0.00	0.00	0.00	-0.669434	0.013672	0.928223	37.869999	-78.889999	-22.469999	0.00	0.00	0.00	22.00	19.25	12.50	15.00	10.25	8.75	3.50	2.75	6.50	3.75	5.50	4.75	5.00	4.25	3.00	2.00	-0.270996	0.050293	0.937500	-12.950000	2.730000	-2.380000	1492.00	-0.13	-0.05
2.15	0.00	0.00	0.00	0.00	0.00	0.00	0.00	0.00	0.00	0.00	0.00	0.00	0.00	0.00	0.00	0.00	-0.689453	-0.019043	0.828613	45.430000	-83.370003	-24.290001	0.00	0.00	0.00	18.75	16.75	11.75	14.25	10.50	8.75	4.00	3.00	7.50	4.00	7.00	5.75	5.50	4.75	3.25	2.50	-0.266113	0.049316	0.932617	-10.990000	3.920000	-2.380000	1488.00	-0.10	-0.05
2.16	0.00	0.00	0.00	0.00	0.00	0.00	0.00	0.00	0.00	0.00	0.00	0.00	0.00	0.00	0.00	0.00	-0.726074	-0.054199	0.663574	42.070000	-83.930000	-23.870001	0.00	0.00	0.00	16.75	14.00	11.00	13.25	10.50	8.75	5.00	3.50	8.25	4.50	7.75	6.75	6.00	5.00	3.75	3.00	-0.130371	0.046387	0.939941	-9.520000	5.110000	-2.310000	1494.00	-0.07	-0.05
2.17	0.00	0.00	0.00	0.00	0.00	0.00	0.00	0.00	0.00	0.00	0.00	0.00	0.00	0.00	0.00	0.00	-0.769531	-0.051758	0.510254	28.840000	-77.980003	-21.139999	0.00	0.00	0.00	13.00	11.25	10.25	11.75	10.75	8.50	5.25	3.50	8.75	5.50	8.50	7.75	6.25	5.75	4.00	3.00	-0.273926	0.054199	0.960449	-8.400000	7.420000	-2.310000	1452.00	-0.04	-0.05
2.18	0.00	0.00	0.00	0.00	0.00	0.25	0.00	0.00	0.00	0.00	0.00	0.00	0.00	0.00	0.00	0.00	-0.826660	-0.029785	0.445312	11.200000	-66.709999	-15.890000	3.00	0.00	0.00	9.75	9.00	9.50	10.50	10.25	8.50	5.75	3.75	9.50	6.50	9.25	8.25	7.00	6.25	4.50	3.50	-0.274414	0.044922	0.938477	-7.140000	10.010000	-2.520000	1431.00	-0.01	-0.05
2.19	0.00	0.00	0.00	0.00	0.00	0.00	0.00	0.00	0.00	0.00	0.00	0.00	0.00	0.00	0.00	0.00	-0.862793	0.016113	0.445312	-6.650000	-53.410000	-9.310000	0.00	0.00	0.00	8.25	7.25	8.25	9.25	10.00	8.25	6.25	4.00	10.25	7.50	9.75	8.75	7.75	6.75	5.00	4.00	-0.256348	0.063477	0.943848	-6.230000	12.880000	-2.380000	1427.00	0.02	-0.05
2.20	0.00	0.00	0.00	0.00	0.00	0.00	0.00	0.00	0.00	0.00	0.00	0.00	0.00	0.00	0.00	0.00	-0.903320	0.084961	0.451660	-18.969999	-42.070000	-1.750000	0.00	0.00	0.00	6.75	6.25	7.50	8.00	9.50	7.75	6.50	4.00	11.25	8.00	10.50	9.25	8.25	7.25	5.25	4.50	-0.268555	0.061523	0.938477	-6.300000	16.590000	-3.080000	1417.00	0.04	-0.05
2.21	0.00	0.00	0.00	0.00	0.00	0.25	0.00	0.00	0.00	0.00	0.00	0.00	0.00	0.00	0.00	0.00	-0.956055	0.138672	0.433105	-23.309999	-31.920000	6.440000	3.00	0.00	0.00	5.50	5.50	6.25	7.00	8.50	7.00	7.00	4.25	11.75	8.75	11.00	9.75	8.75	7.50	5.50	4.75	-0.258789	0.047363	0.945801	-6.090000	20.860001	-3.780000	1399.00	0.06	-0.05
2.22	0.00	0.00	0.00	0.00	0.00	0.00	0.00	0.00	0.00	0.00	0.00	0.00	0.00	0.00	0.00	0.00	-1.005371	0.160156	0.355469	-21.070000	-19.740000	14.630000	0.00	0.00	0.00	4.00	4.50	5.50	5.75	7.25	5.25	7.00	3.00	11.00	8.25	10.75	9.25	8.25	7.00	5.00	4.00	-0.277344	0.042969	0.938965	-5.390000	24.500000	-3.780000	1246.00	0.08	-0.04
2.23	0.00	0.00	0.00	0.00	0.00	0.00	0.00	0.00	0.00	0.00	0.00	0.00	0.00	0.00	0.00	0.00	-1.050781	0.148926	0.323242	-18.690001	-4.480000	21.420000	0.00	0.00	0.00	0.00	2.00	3.00	2.75	5.25	4.00	7.50	3.00	11.50	8.75	11.25	9.75	8.75	7.25	5.00	4.75	-0.261230	0.054199	0.939453	-4.410000	32.410000	-4.270000	1114.00	0.14	-0.04
2.24	0.00	0.00	0.00	0.00	0.00	0.00	0.00	0.00	0.00	0.00	0.00	0.00	0.00	0.00	0.00	0.00	-1.088379	0.118652	0.330566	-21.980000	11.900000	27.020000	0.00	0.00	0.00	0.00	1.75	2.00	1.75	4.00	2.75	7.50	2.50	12.25	9.25	11.75	10.25	9.00	7.50	5.25	5.00	-0.258301	0.047363	0.945801	-4.200000	37.170002	-4.550000	1086.00	0.17	-0.03
2.25	0.00	0.00	0.00	0.00	0.00	0.00	0.00	0.00	0.00	0.00	0.00	0.00	0.00	0.00	0.00	0.00	-1.099609	0.084473	0.357422	-30.309999	27.090000	30.520000	0.00	0.00	0.00	0.00	1.00	1.25	1.25	2.75	1.75	7.75	2.25	12.75	9.75	12.25	10.50	9.25	8.00	5.50	5.25	-0.254883	0.003906	0.914551	-5.880000	45.360001	-6.160000	1070.00	0.19	-0.03
2.26	0.25	0.50	0.00	0.00	0.00	0.00	0.00	0.00	0.00	0.00	0.00	0.00	0.00	0.00	0.00	0.00	-1.822754	0.226074	-0.703613	8.820000	140.070007	27.860001	8.00	0.00	0.00	0.00	1.00	1.25	2.00	3.00	1.25	7.75	3.00	15.50	10.75	13.00	10.75	9.25	8.25	6.00	5.50	-0.260254	0.033203	0.957520	-5.670000	58.029999	-7.140000	1160.00	0.19	-0.02
2.27	1.00	1.50	0.00	0.00	0.00	0.00	0.00	0.00	0.00	0.00	0.00	0.00	0.00	0.00	0.00	0.00	0.176758	-0.066406	-0.033691	4.620000	173.669998	16.870001	26.00	0.00	0.00	0.00	0.75	1.00	0.25	1.50	1.00	7.75	2.00	14.25	10.75	13.00	10.75	9.00	8.50	6.25	5.75	-0.337891	-0.012695	0.918945	-6.440000	71.190002	-7.490000	1082.00	0.21	-0.02
2.28	2.00	3.25	0.00	0.00	0.00	0.00	0.00	0.00	0.00	0.00	0.00	0.00	0.00	0.00	0.00	0.00	0.050781	0.121094	1.481445	-5.810000	194.880005	10.430000	55.00	-0.41	-0.05	0.00	0.75	0.00	0.75	1.25	0.50	7.75	1.25	16.25	11.25	13.25	11.00	9.00	9.00	6.75	6.25	-0.372559	-0.066406	0.851074	-6.440000	89.250000	-8.120000	1108.00	0.22	-0.01
2.29	2.50	5.00	0.00	0.25	0.00	0.00	0.00	0.00	0.00	0.00	0.00	0.00	0.00	0.00	0.00	0.00	-0.174316	-0.137207	0.703613	-33.389999	163.800003	-7.630000	82.00	-0.41	-0.07	0.00	0.50	0.50	0.25	1.00	0.75	7.75	1.00	14.50	11.25	13.25	10.75	8.75	9.25	6.75	6.25	-0.408203	-0.026855	0.904297	-10.500000	114.029999	-8.960000	1073.00	0.22	-0.01
2.30	4.25	5.75	0.00	0.75	0.00	0.00	0.00	0.00	0.00	0.00	0.00	0.00	0.00	0.00	0.00	0.00	-0.343750	0.029785	0.771973	-45.290001	180.669998	-13.860000	115.00	-0.40	-0.06	0.00	0.00	0.00	0.00	0.75	0.00	7.75	0.75	14.50	11.50	13.25	10.75	8.50	9.50	7.50	6.75	-0.402832	-0.009277	0.962402	-14.070000	143.009995	-10.290000	1057.00	0.24	-0.00
2.31	5.25	6.25	0.00	0.75	0.00	0.00	0.00	0.00	0.00	0.00	0.00	0.00	0.00	0.00	0.00	0.00	-0.451660	0.114746	1.500977	-46.619999	191.169998	-14.070000	131.00	-0.40	-0.05	0.00	1.00	1.25	1.00	1.25	0.00	7.50	1.50	17.25	12.75	14.50	11.75	9.00	11.25	8.50	7.50	-0.349121	0.062500	1.034180	-16.799999	170.309998	-12.180000	1225.00	0.22	-0.01
2.32	7.00	8.00	0.00	1.25	0.00	0.00	0.00	0.00	0.00	0.00	0.00	0.00	0.00	0.00	0.00	0.00	-0.521973	-0.010254	1.824219	-51.939999	179.970001	-14.280000	175.00	-0.40	-0.05	0.00	1.00	1.25	1.25	1.50	1.25	7.75	1.50	17.50	13.00	14.50	11.50	8.75	11.50	8.75	7.50	-0.344727	0.010742	1.000488	-23.379999	195.720001	-13.440001	1257.00	0.22	-0.01
2.33	9.00	10.00	0.00	2.00	0.00	0.00	0.00	0.00	0.00	0.00	0.00	0.00	0.00	0.00	0.00	0.00	-0.849609	-0.011719	1.904297	-54.040001	171.570007	-14.700000	227.00	-0.40	-0.05	0.00	0.75	1.50	1.25	1.25	1.25	7.75	1.50	17.50	13.00	14.25	11.50	8.50	11.75	9.00	7.50	-0.414062	-0.011230	1.019043	-27.020000	214.690002	-14.910000	1254.00	0.22	-0.00
2.34	11.25	11.50	0.50	3.50	0.00	0.00	0.00	0.00	0.00	0.00	0.00	0.00	0.00	0.00	0.00	0.00	-0.597656	0.081543	2.315918	-16.100000	184.029999	-1.400000	291.00	-0.39	-0.05	0.00	0.75	1.25	1.00	1.25	1.00	7.75	1.25	17.50	13.00	14.25	11.25	8.00	11.50	9.00	7.50	-0.462402	0.016113	1.009766	-34.369999	235.550003	-16.240000	1231.00	0.22	0.00
2.35	12.75	12.50	1.00	4.75	0.00	0.00	0.00	0.00	0.00	0.00	0.00	0.00	0.00	0.00	0.00	0.00	-0.524902	-0.156738	2.362305	-11.060000	148.820007	-0.770000	339.00	-0.38	-0.05	0.00	0.75	1.25	1.00	1.00	0.75	7.75	1.00	17.00	13.00	14.00	11.00	7.75	11.25	9.25	7.50	-0.497070	0.038086	1.117676	-55.720001	278.670013	-23.100000	1206.00	0.23	0.00
2.36	13.25	12.50	1.00	5.00	0.00	0.00	0.00	0.00	0.00	0.00	0.00	0.00	0.00	0.00	0.00	0.00	-0.334473	0.021484	1.608887	-8.400000	100.379997	-5.460000	348.00	-0.38	-0.05	0.00	0.75	1.00	0.50	1.00	0.75	7.75	1.00	16.75	12.75	13.75	10.75	7.50	11.25	9.50	7.75	-0.580078	0.015137	1.126953	-63.420002	296.730011	-28.490000	1187.00	0.23	0.00
2.37	13.25	12.50	1.50	5.00	0.00	0.00	0.00	0.00	0.00	0.00	0.00	0.00	0.00	0.00	0.00	0.00	-0.186523	0.034180	0.892578	0.420000	80.989998	-5.950000	354.00	-0.38	-0.05	0.00	0.75	1.25	0.75	1.00	0.50	7.50	1.00	16.00	12.25	13.25	10.50	7.25	11.00	9.50	7.75	-0.804199	-0.083984	1.008301	-63.840000	310.380005	-33.670002	1156.00	0.23	0.00
2.38	13.25	12.50	1.75	5.75	0.00	0.00	0.00	0.00	0.00	0.00	0.00	0.00	0.00	0.00	0.00	0.00	-0.129883	0.117188	0.735840	5.600000	85.889999	-5.390000	366.00	-0.38	-0.05	0.00	0.75	1.25	1.00	1.00	0.50	7.00	0.75	14.75	11.25	12.25	10.00	6.75	10.75	9.75	7.75	-0.833984	0.044922	1.402344	-59.920002	325.850006	-38.290001	1096.00	0.23	0.00
2.39	14.50	13.25	2.25	6.50	0.25	0.00	0.00	0.00	0.00	0.00	0.00	0.00	0.00	0.00	0.00	0.00	-0.152832	0.095703	0.812988	11.970000	94.639999	-2.940000	406.00	-0.37	-0.05	0.00	0.50	1.00	0.75	1.00	0.50	6.50	0.50	13.25	10.25	11.00	9.25	6.50	10.75	9.75	7.75	-1.081055	0.017090	1.716309	-52.360001	346.500000	-45.220001	1017.00	0.24	-0.00
2.40	16.00	14.00	3.00	7.75	0.25	0.50	0.00	0.00	0.00	0.00	0.00	0.00	0.00	0.00	0.00	0.00	-0.226562	0.034180	0.900391	17.780001	99.190002	-1.680000	460.00	-0.37	-0.05	0.00	0.50	0.75	0.50	0.75	0.00	5.50	0.00	11.25	8.75	9.75	8.50	6.50	11.00	9.75	7.50	-1.645996	0.046387	2.296387	-49.349998	375.619995	-49.700001	910.00	0.25	-0.00
2.41	17.25	15.25	3.75	8.50	0.50	1.00	0.00	0.00	0.00	0.00	0.00	0.00	0.00	0.00	0.00	0.00	-0.278320	0.042480	1.004395	19.180000	100.029999	-3.430000	514.00	-0.36	-0.05	0.00	0.50	0.25	0.00	0.50	0.50	5.25	0.00	9.50	7.75	8.50	7.50	4.00	9.50	8.50	7.00	-1.958984	0.065430	2.794434	-41.160000	412.299988	-46.270000	779.00	0.25	0.00
2.42	18.75	15.75	4.75	8.75	1.00	1.50	0.00	0.00	0.00	0.00	0.00	0.00	0.00	0.00	0.00	0.00	-0.380371	0.314453	1.322754	-18.480000	47.180000	-0.910000	563.00	-0.36	-0.05	0.00	0.00	0.50	0.00	0.00	0.00	4.00	0.00	7.00	5.00	6.25	5.25	2.25	8.50	7.25	5.00	-1.705078	0.014648	2.479980	-27.299999	445.760010	-42.980000	574.00	0.27	0.02
2.43	19.50	16.75	5.25	9.25	0.75	1.75	0.00	0.00	0.00	0.00	0.00	0.00	0.00	0.00	0.00	0.00	-0.259277	0.056152	0.707031	-27.860001	23.450001	-0.140000	594.00	-0.36	-0.05	0.00	0.00	0.00	0.00	0.00	0.00	3.00	0.00	5.75	4.00	4.75	4.25	2.50	7.50	6.50	3.75	-1.470215	0.163086	2.078125	-18.830000	469.980011	-46.900002	471.00	0.28	0.01
2.44	20.75	17.25	5.75	9.50	1.25	2.25	0.00	0.00	0.00	0.00	0.00	0.00	0.00	0.00	0.00	0.00	-0.313477	0.035156	1.155762	-34.580002	35.700001	-2.520000	634.00	-0.35	-0.05	0.00	0.00	0.00	0.00	0.00	0.00	1.75	0.00	5.00	3.50	4.25	3.75	1.50	6.50	6.00	2.75	-1.907227	-0.253418	1.974609	-14.350000	484.820007	-58.590000	392.00	0.28	0.01
2.45	22.00	17.75	6.75	9.75	1.25	3.00	0.00	0.00	0.00	0.00	0.00	0.00	0.00	0.00	0.00	0.00	-0.284668	0.040527	1.022461	-30.590000	29.680000	-2.870000	678.00	-0.35	-0.04	0.00	0.00	0.00	0.00	0.00	0.00	1.00	0.00	4.25	3.50	3.25	3.25	1.00	5.50	4.75	1.50	-1.822754	-0.138184	2.800781	-21.770000	462.980011	-66.989998	316.00	0.29	0.02
2.46	22.50	18.50	7.50	10.25	1.75	3.25	0.00	0.00	0.00	0.00	0.00	0.00	0.00	0.00	0.00	0.00	-0.269043	0.050293	0.998047	-25.900000	26.250000	-2.520000	715.00	-0.35	-0.04	0.00	0.00	0.00	0.00	0.00	0.00	0.50	0.00	3.00	3.00	2.75	2.25	0.00	3.75	3.00	0.50	-1.474609	0.379883	2.065430	-12.740000	448.769989	-70.000000	215.00	0.29	0.03
2.47	23.50	18.50	8.00	10.50	2.25	3.25	0.00	0.25	0.00	0.00	0.00	0.00	0.00	0.00	0.00	0.00	-0.273926	0.053223	0.986328	-23.660000	24.150000	-2.170000	746.00	-0.34	-0.04	0.00	0.00	0.00	0.00	0.00	0.00	0.25	0.00	1.25	2.75	2.25	1.50	0.00	1.50	1.50	0.00	0.018066	0.553711	2.766602	-13.930000	336.140015	-95.340004	127.00	0.27	0.01
2.48	24.00	18.75	8.50	10.75	2.50	4.00	0.00	0.00	0.00	0.50	0.25	0.25	0.00	0.00	0.00	0.00	-0.279297	0.041016	0.977539	-23.030001	21.910000	-2.170000	782.00	-0.33	-0.04	0.00	0.00	0.00	0.00	0.00	0.00	0.25	0.00	0.75	1.50	1.50	0.75	0.00	0.50	0.50	0.50	0.798828	0.691406	2.690918	-27.650000	288.049988	-105.910004	71.00	0.26	-0.00
2.49	21.25	17.25	8.00	10.00	2.25	3.50	0.00	0.00	0.00	0.25	0.50	0.50	0.00	0.00	0.00	0.00	-0.280273	0.043457	0.979980	-21.700001	19.320000	-1.820000	715.00	-0.33	-0.05	0.00	0.00	0.00	0.00	0.00	0.00	0.00	0.00	0.00	1.00	0.75	0.00	0.00	0.25	0.00	0.00	0.957520	0.821289	1.893066	-54.459999	236.669998	-107.870003	22.00	0.00	0.00
2.50	23.50	18.50	8.75	11.00	2.75	4.25	0.00	0.25	0.00	0.50	0.50	0.25	0.00	0.00	0.00	0.00	-0.271484	0.035156	0.955566	-19.879999	16.940001	-1.400000	793.00	-0.33	-0.05	0.00	0.00	0.00	0.00	0.00	0.00	0.00	0.00	0.00	0.25	0.25	0.00	0.00	0.00	0.00	0.00	0.016113	1.086426	0.759277	-53.480000	237.580002	-98.699997	6.00	0.00	0.00
2.51	23.75	18.75	8.75	10.75	3.25	4.25	0.00	0.50	0.00	0.00	0.00	0.75	0.00	0.00	0.00	0.00	-0.276367	0.034668	0.975098	-17.500000	15.120000	-0.910000	800.00	-0.33	-0.05	0.00	0.00	0.00	0.00	0.00	0.00	0.00	0.00	0.00	0.50	0.25	0.00	0.00	0.00	0.00	0.00	0.759277	1.540039	3.543457	-108.430000	132.300003	-63.770000	9.00	0.00	0.00
2.52	23.50	18.50	9.25	11.00	4.00	5.00	0.00	0.75	0.00	0.25	0.25	0.50	0.50	0.00	0.00	0.00	-0.274902	0.031250	0.961426	-14.980000	13.440001	-0.560000	833.00	-0.32	-0.05	0.00	0.00	0.00	0.00	0.00	0.00	0.00	0.00	0.00	0.25	0.25	0.00	0.00	0.00	0.00	0.00	1.500977	1.156738	3.375488	-53.480000	1.260000	-18.549999	6.00	0.00	0.00
2.53	23.25	18.50	9.25	11.00	4.00	5.25	0.00	0.75	0.00	0.50	0.75	0.75	0.00	0.00	0.00	0.00	-0.267578	0.025879	0.946289	-13.020000	12.040000	-0.350000	840.00	-0.31	-0.05	0.00	0.00	0.00	0.00	0.00	0.00	0.00	0.00	0.00	0.25	0.00	0.00	0.00	0.00	0.00	0.00	1.101562	0.979980	2.550293	-24.850000	-105.070000	6.720000	3.00	0.00	0.00
2.54	22.25	17.50	8.75	10.25	4.50	5.25	0.00	0.50	0.00	0.25	0.50	0.75	0.50	0.00	0.00	0.00	-0.270996	0.029297	0.944824	-11.900000	11.130000	-0.280000	804.00	-0.31	-0.05	0.00	0.00	0.00	0.00	0.00	0.00	0.00	0.00	0.00	0.25	0.00	0.00	0.00	0.00	0.00	0.00	0.862793	0.786621	2.095703	-17.500000	-182.699997	23.309999	3.00	0.00	0.00
2.55	22.50	18.00	9.50	11.00	5.00	5.50	0.00	1.25	0.00	0.75	0.50	1.00	0.75	0.00	0.00	0.00	-0.268066	0.033203	0.947754	-11.550000	10.220000	-0.350000	863.00	-0.30	-0.06	0.00	0.00	0.00	0.00	0.00	0.00	0.00	0.00	0.00	0.00	0.00	0.00	0.00	0.00	0.00	0.00	0.818848	0.630859	1.616211	-9.240000	-225.330002	34.369999	0.00	0.00	0.00
2.56	22.00	17.50	9.25	11.00	5.50	5.75	0.00	1.25	0.00	1.00	0.75	1.00	1.25	0.00	0.00	0.25	-0.269043	0.029785	0.939453	-11.620000	9.380000	-0.350000	870.00	-0.29	-0.06	0.00	0.00	0.00	0.00	0.00	0.00	0.00	0.00	0.00	0.00	0.00	0.00	0.00	0.00	0.00	0.00	0.724121	0.595215	1.385254	-3.500000	-247.520004	41.509998	0.00	0.00	0.00
2.57	21.00	16.75	9.50	10.75	5.50	6.00	0.00	1.50	0.25	1.00	1.25	1.00	1.25	0.00	0.25	0.25	-0.274414	0.025391	0.944824	-12.320000	8.260000	-0.700000	870.00	-0.28	-0.06	0.00	0.00	0.00	0.00	0.00	0.00	0.00	0.00	0.00	0.25	0.00	0.00	0.00	0.00	0.00	0.50	0.613770	0.543457	1.332520	1.470000	-264.950012	47.670002	6.00	0.00	0.00
2.58	20.25	16.25	9.25	10.75	5.75	6.00	0.00	1.75	0.50	1.00	1.50	1.50	1.50	0.00	0.25	0.50	-0.270996	0.026367	0.944824	-13.020000	6.860000	-1.050000	877.00	-0.26	-0.07	0.00	0.00	0.00	0.00	0.00	0.00	0.00	0.00	0.25	0.25	0.00	0.00	0.00	0.25	0.00	0.25	0.496582	0.511230	1.446289	11.130000	-286.160004	54.250000	10.00	0.00	0.00
2.59	19.75	15.75	9.50	10.25	6.25	6.50	0.00	2.00	0.75	1.25	1.75	1.75	2.50	0.25	0.25	0.25	-0.275879	0.017578	0.943359	-13.930000	4.480000	-1.330000	902.00	-0.25	-0.07	0.00	0.00	0.00	0.00	0.00	0.00	0.00	0.00	0.00	0.25	0.00	0.00	0.00	0.00	0.00	0.00	0.250000	0.400879	1.727539	33.810001	-351.959991	72.800003	3.00	0.00	0.00
2.60	18.75	15.00	9.25	10.50	6.50	6.50	0.25	2.00	0.75	1.25	1.75	1.75	3.00	0.50	0.50	0.50	-0.275879	0.017090	0.944824	-14.000000	3.850000	-1.470000	901.00	-0.23	-0.07	0.00	0.00	0.00	0.00	0.00	0.00	0.00	0.00	0.00	0.25	0.00	0.00	0.00	0.00	0.00	0.00	0.122070	0.334961	1.678223	34.090000	-388.989990	82.040001	3.00	0.00	0.00
2.61	17.50	14.25	9.25	10.00	6.50	7.25	0.25	2.75	0.75	1.75	2.25	2.25	3.00	0.75	0.50	0.25	-0.282227	0.017578	0.939453	-13.440001	3.500000	-1.680000	913.00	-0.22	-0.08	0.00	0.00	0.00	0.00	0.00	0.00	0.00	0.00	0.00	0.00	0.00	0.00	0.00	0.00	0.00	0.00	-0.041504	0.270508	1.592773	27.090000	-418.739990	89.320000	0.00	0.00	0.00
2.62	16.25	13.25	9.00	9.75	6.75	7.00	0.50	2.75	1.25	1.75	2.25	2.50	4.25	1.00	0.50	0.75	-0.275391	0.013672	0.952148	-12.320000	3.640000	-1.540000	914.00	-0.20	-0.08	0.00	0.00	0.00	0.00	0.00	0.00	0.00	0.00	0.00	0.00	0.00	0.00	0.00	0.00	0.00	0.00	-0.196289	0.209473	1.456055	16.940001	-437.010010	93.800003	0.00	0.00	0.00
2.63	15.50	12.50	8.75	9.25	6.75	7.00	0.75	3.00	1.50	1.75	2.75	3.00	4.75	1.25	0.75	1.00	-0.274902	0.011230	0.952148	-10.570000	4.550000	-1.400000	924.00	-0.18	-0.09	0.00	0.00	0.00	0.00	0.00	0.00	0.00	0.00	0.00	0.00	0.00	0.00	0.00	0.00	0.00	0.00	-0.312500	0.173340	1.278809	6.860000	-442.820007	95.269997	0.00	0.00	0.00
2.64	14.25	11.50	8.75	9.00	6.75	7.00	0.75	3.25	2.00	2.25	3.25	3.00	5.25	1.50	0.75	1.25	-0.284668	0.007324	0.942383	-9.240000	5.670000	-1.190000	928.00	-0.16	-0.09	0.00	0.00	0.00	0.00	0.00	0.00	0.00	0.00	0.00	0.00	0.00	0.00	0.00	0.00	0.00	0.00	-0.417480	0.145508	1.142090	0.770000	-438.269989	94.360001	0.00	0.00	0.00
2.65	13.25	10.00	8.25	8.75	6.75	7.00	1.00	3.75	2.25	2.50	3.75	4.00	5.50	1.75	1.00	1.25	-0.248047	0.020508	0.953613	-8.050000	6.440000	-1.120000	936.00	-0.13	-0.09	0.00	0.00	0.00	0.00	0.00	0.00	0.00	0.00	0.00	0.00	0.00	0.00	0.00	0.00	0.00	0.00	-0.501953	0.135254	1.142090	-2.730000	-426.720001	91.349998	0.00	0.00	0.00
2.66	11.75	9.25	8.25	8.25	6.75	6.75	1.25	3.50	2.50	2.75	4.50	4.50	5.75	2.00	1.25	1.50	-0.283691	0.003906	0.944824	-6.790000	6.860000	-0.980000	932.00	-0.11	-0.09	0.00	0.00	0.00	0.00	0.00	0.00	0.00	0.00	0.00	0.00	0.00	0.00	0.00	0.00	0.00	0.00	-0.556641	0.162109	1.240723	-3.080000	-413.910004	87.849998	0.00	0.00	0.00
2.67	10.25	8.50	8.00	8.00	6.50	6.50	1.25	4.00	3.50	2.75	5.25	4.75	6.25	2.25	1.25	1.75	-0.445312	-0.046387	0.935547	-5.950000	7.560000	-1.120000	938.00	-0.09	-0.09	0.00	0.00	0.00	0.00	0.00	0.00	0.00	0.00	0.00	0.00	0.00	0.00	0.00	0.00	0.00	0.00	-0.622070	0.208008	1.405762	-0.630000	-403.480011	85.820000	0.00	0.00	0.00
2.68	9.00	7.75	7.50	7.50	6.50	6.50	1.50	4.25	4.25	3.25	6.25	5.75	6.75	2.50	1.25	1.75	-0.546875	-0.079590	0.922363	-5.670000	9.240000	-1.540000	959.00	-0.06	-0.09	0.00	0.00	0.00	0.00	0.00	0.00	0.00	0.00	0.00	0.00	0.00	0.00	0.00	0.00	0.00	0.00	-0.686523	0.245605	1.563965	5.250000	-397.459991	85.750000	0.00	0.00	0.00
2.69	7.75	6.75	7.00	7.00	6.00	6.25	2.00	4.25	4.50	3.50	7.50	6.50	7.50	3.25	1.50	2.00	0.025391	0.027832	0.927734	-5.110000	9.800000	-1.820000	970.00	-0.03	-0.10	0.00	0.00	0.00	0.00	0.00	0.00	0.00	0.00	0.00	0.00	0.00	0.00	0.00	0.00	0.00	0.00	-0.802734	0.248047	1.566406	18.200001	-392.839996	86.940002	0.00	0.00	0.00
2.70	6.75	5.75	6.50	6.00	6.00	6.25	2.25	4.50	5.00	4.25	8.00	7.50	7.75	3.25	1.75	2.50	-0.355469	0.007812	0.965332	-4.550000	10.010000	-2.240000	980.00	-0.01	-0.10	0.00	0.00	0.00	0.00	0.00	0.00	0.00	0.00	0.00	0.00	0.00	0.00	0.00	0.00	0.00	0.00	-0.903320	0.234863	1.464355	39.549999	-380.730011	87.220001	0.00	0.00	0.00
2.71	6.25	5.25	6.00	5.50	5.75	6.00	2.75	4.50	5.25	4.50	8.25	7.75	8.25	4.00	2.25	2.50	-0.353027	0.007812	0.933105	-4.270000	11.410000	-2.520000	989.00	0.01	-0.09	0.00	0.00	0.00	0.00	0.00	0.00	0.00	0.00	0.00	0.00	0.00	0.00	0.00	0.00	0.00	0.00	-1.043945	0.164551	1.669922	93.660004	-324.589996	77.209999	0.00	0.00	0.00
2.72	5.25	4.75	5.75	5.00	5.25	5.75	3.25	4.50	5.75	5.50	8.75	8.00	8.50	4.50	2.00	2.75	-0.324707	-0.010742	0.927246	-3.780000	12.600000	-2.800000	996.00	0.03	-0.09	0.00	0.00	0.00	0.00	0.00	0.00	0.00	0.25	1.25	0.75	0.50	0.50	0.75	0.75	0.50	0.75	-1.172363	0.220703	2.343262	121.940002	-301.420013	70.699997	66.00	0.26	-0.04
2.73	4.75	3.75	5.00	4.00	5.00	5.50	3.75	4.75	6.50	6.00	9.25	8.25	9.00	4.75	2.50	2.75	-0.234863	0.026855	0.934570	-3.220000	13.580000	-2.660000	1003.00	0.05	-0.08	0.00	0.75	1.00	1.00	0.50	1.00	0.00	0.75	1.00	0.75	0.50	0.50	0.75	0.75	0.50	1.00	-1.347168	0.207520	3.026367	141.889999	-300.510010	70.070000	122.00	0.03	-0.11
2.74	3.75	2.75	4.25	3.00	4.25	5.25	4.00	4.50	7.50	6.75	9.75	8.75	9.50	5.00	2.50	3.25	-0.336914	0.079102	0.941895	-2.660000	15.750000	-2.450000	993.00	0.08	-0.08	0.00	0.00	0.00	0.00	0.00	0.25	0.00	0.50	1.25	0.50	0.50	0.50	1.00	1.25	0.00	0.00	-1.603516	0.112305	3.177734	142.940002	-320.320007	75.949997	67.00	0.21	-0.05
2.75	3.00	2.50	3.25	2.50	3.75	5.00	4.50	4.75	7.75	7.50	10.00	9.00	9.75	5.50	2.75	3.50	-0.313965	0.090332	0.943359	-3.080000	18.059999	-3.150000	996.00	0.10	-0.08	0.00	0.50	0.75	1.00	0.25	0.50	0.00	0.50	1.25	0.75	0.50	0.00	0.25	0.75	0.00	0.00	-1.932617	-0.009277	2.772949	125.930000	-338.309998	82.180000	85.00	0.02	-0.03
2.76	2.25	1.25	2.50	2.00	3.25	4.50	5.00	4.75	8.00	8.00	10.75	9.25	10.00	5.75	3.00	4.25	-0.301270	0.102539	0.951172	-3.570000	21.070000	-3.990000	989.00	0.13	-0.08	0.00	0.00	0.00	0.00	0.00	0.00	0.00	0.00	0.00	0.00	0.00	0.00	0.00	1.00	0.75	0.75	-2.244141	-0.132324	2.273926	99.050003	-337.399994	82.110001	22.00	0.00	0.00
2.77	1.75	1.00	1.25	1.75	2.25	3.75	5.00	4.50	8.50	8.25	11.00	9.75	10.25	6.00	3.25	4.25	-0.334473	0.126465	0.944824	-4.130000	24.150000	-4.830000	964.00	0.15	-0.08	0.00	0.25	0.00	0.00	0.00	0.00	0.00	0.00	0.00	0.00	0.00	0.00	0.00	0.00	0.00	0.00	-2.510742	-0.172852	2.041992	70.559998	-321.230011	73.010002	3.00	0.00	0.00
2.78	1.00	0.50	1.00	1.50	1.75	3.50	5.25	4.25	8.75	8.50	11.50	10.00	10.50	6.50	3.25	4.50	-0.269531	-0.014648	0.918457	-4.550000	26.740000	-5.530000	959.00	0.16	-0.08	0.00	0.50	0.25	0.00	0.00	0.00	0.00	0.00	0.00	0.00	0.00	0.00	0.00	0.00	0.00	0.00	-2.711914	-0.034180	1.986328	49.070000	-304.149994	58.099998	8.00	0.00	0.00
2.79	1.00	0.75	0.50	1.00	1.25	2.75	5.50	4.00	9.50	9.00	12.00	10.50	10.50	7.00	3.75	5.25	-0.291016	-0.186523	0.947266	-5.180000	28.910000	-5.810000	977.00	0.18	-0.07	0.00	0.50	0.50	0.75	0.25	0.50	0.00	0.50	1.25	0.75	0.50	0.25	0.25	1.00	0.50	0.50	-2.889648	0.096191	1.760254	41.930000	-292.739990	43.959999	93.00	0.09	-0.04
2.80	0.00	0.25	0.25	0.25	1.25	2.25	5.75	3.75	10.25	9.75	12.50	10.50	10.75	7.50	3.75	5.25	-0.308105	-0.005859	0.929688	-6.720000	31.500000	-5.320000	974.00	0.20	-0.06	0.00	0.25	0.00	0.25	0.00	0.00	0.00	0.00	0.00	0.00	0.00	0.00	0.00	0.00	0.00	0.00	-3.057129	0.095703	1.312988	47.670002	-281.679993	31.710001	6.00	0.00	0.00
2.81	0.00	0.25	0.75	0.00	0.75	2.25	6.25	3.50	11.00	10.25	12.75	10.75	10.75	7.75	4.00	5.50	-0.313477	-0.002441	0.933105	-8.190000	35.209999	-4.690000	1004.00	0.20	-0.05	0.00	0.00	0.00	0.00	0.00	0.00	0.00	0.00	0.25	0.00	0.00	0.00	0.00	0.75	0.00	0.00	-3.319336	-0.006348	0.964355	63.840000	-267.119995	22.260000	11.00	0.00	0.00
2.82	0.25	0.00	0.00	0.00	0.50	1.75	6.50	3.25	11.75	10.50	13.25	11.00	11.00	8.00	5.00	5.75	-0.311035	0.002441	0.937988	-7.910000	41.509998	-4.270000	1026.00	0.21	-0.05	0.00	0.00	0.00	0.00	0.00	0.00	0.00	0.00	0.50	0.25	0.00	0.00	0.00	0.50	0.25	0.00	-3.505371	-0.212891	0.607910	82.250000	-248.290009	20.440001	17.00	0.00	0.00
2.83	0.00	0.00	0.00	0.00	0.25	1.50	6.50	3.00	12.50	11.00	13.75	11.25	11.00	8.50	5.25	6.25	-0.333008	-0.006348	0.933594	-6.510000	48.439999	-4.130000	1049.00	0.22	-0.05	0.00	0.00	0.00	0.00	0.00	0.00	0.00	0.00	0.25	0.00	0.00	0.00	0.00	0.25	0.00	0.00	-3.977539	-0.583008	-0.486328	35.349998	-187.529999	29.260000	6.00	0.00	0.00
2.84	0.00	0.00	0.00	0.00	0.00	0.00	6.75	2.75	13.50	11.50	14.00	11.50	11.00	9.00	5.50	6.75	-0.338867	-0.007324	0.946777	-3.990000	56.910000	-4.060000	1064.00	0.23	-0.04	0.00	0.00	0.00	0.00	0.00	0.00	0.00	0.00	0.25	0.00	0.00	0.00	0.00	0.50	0.00	0.00	-4.042969	-0.575684	-0.984375	-14.490000	-140.419998	31.010000	8.00	0.00	0.00
2.85	0.00	0.00	0.00	0.00	0.00	1.00	6.75	2.50	14.00	11.75	14.25	11.50	11.25	9.50	6.00	7.00	-0.343262	-0.020020	0.961426	-1.540000	69.160004	-3.150000	1099.00	0.23	-0.04	0.00	0.00	0.00	0.00	0.00	0.00	0.00	0.00	0.25	0.00	0.00	0.00	0.00	0.00	0.00	0.00	-3.956055	-0.444336	-1.181641	-45.220001	-82.250000	28.910000	4.00	0.00	0.00
2.86	0.00	0.00	0.00	0.00	0.00	0.75	6.75	2.25	14.75	12.00	14.50	11.75	11.00	10.25	6.25	7.50	-0.357910	-0.008789	0.934570	0.070000	85.120003	-2.100000	1122.00	0.23	-0.03	0.00	0.00	0.00	0.00	0.00	0.00	0.00	0.00	0.00	0.00	0.00	0.00	0.00	0.00	0.00	0.00	-3.778320	-0.286621	-1.051758	-49.070000	-21.700001	25.620001	0.00	0.00	0.00
2.87	0.00	0.00	0.00	0.25	0.00	0.50	6.75	2.00	15.25	12.50	14.75	11.75	11.00	10.75	6.75	7.75	-0.379395	0.000488	0.940918	0.210000	104.090004	-1.680000	1145.00	0.24	-0.03	0.00	0.00	0.00	0.00	0.00	0.00	0.00	0.00	0.75	0.50	0.50	0.25	0.50	1.00	0.75	0.75	-3.545410	-0.165039	-0.719727	-38.290001	31.990000	23.870001	52.00	0.30	-0.02
2.88	0.00	0.00	0.00	0.00	0.00	0.25	6.75	2.00	15.50	12.75	15.00	12.00	10.75	11.25	7.00	8.25	-0.461914	-0.053223	0.937988	-4.340000	156.169998	-0.910000	1159.00	0.24	-0.02	0.00	0.75	1.25	1.00	0.25	0.00	0.00	0.00	0.00	0.00	0.00	0.00	0.00	0.00	0.00	0.00	-3.261719	-0.098145	-0.298828	-25.270000	74.199997	25.969999	38.00	0.00	0.00
2.89	0.00	0.00	0.00	0.00	0.00	0.00	6.75	1.75	15.75	13.00	15.25	11.75	10.50	11.75	7.25	8.25	-0.508789	0.007812	0.915039	-10.010000	193.199997	-0.490000	1164.00	0.24	-0.02	0.00	0.25	0.00	0.00	0.00	0.00	0.00	0.00	0.00	0.00	0.00	0.00	0.00	0.00	0.00	0.00	-1.075684	1.228027	4.704590	-66.919998	381.989990	61.180000	3.00	0.00	0.00
2.90	0.00	0.00	0.00	0.00	0.00	0.25	6.50	1.25	16.25	13.25	15.25	11.75	10.25	12.25	7.50	8.50	-0.485840	0.000488	0.940430	-15.960000	229.110001	-0.840000	1171.00	0.25	-0.01	0.00	1.25	0.00	0.00	0.00	0.00	0.00	0.00	0.00	0.00	0.00	0.00	0.00	0.00	0.00	0.00	1.533691	0.484375	-0.933105	-28.350000	282.519989	79.099998	13.00	0.00	0.00
2.91	0.00	0.00	0.00	0.00	0.00	0.00	6.25	1.25	16.00	13.50	15.50	11.50	10.00	12.50	7.75	9.00	-0.536621	-0.005371	0.957031	-23.520000	259.420013	-1.610000	1169.00	0.25	-0.01	3.00	3.75	1.50	1.50	0.25	0.00	0.00	0.00	0.00	0.00	0.00	0.00	0.00	0.00	0.00	0.00	0.159180	-0.311035	0.500000	-34.930000	215.809998	70.000000	111.00	-0.36	-0.04
2.92	0.00	0.00	0.00	0.00	0.00	0.00	6.25	0.75	16.25	13.25	15.25	11.50	9.50	12.50	8.00	9.00	-0.562012	0.000000	1.003906	-30.100000	287.140015	-2.030000	1157.00	0.25	-0.01	3.50	5.00	0.00	0.50	0.00	0.00	0.00	0.00	0.00	0.00	0.00	0.00	0.00	0.00	0.00	0.00	-0.409180	-0.689453	0.159668	-70.279999	240.100006	50.470001	96.00	-0.40	-0.06
2.93	0.00	0.00	0.00	0.00	0.00	0.00	6.00	0.50	16.00	13.25	15.25	11.25	9.00	12.75	8.25	9.25	-0.603027	0.004395	0.942383	-38.009998	310.869995	-3.220000	1144.00	0.25	-0.01	5.75	8.00	0.00	1.00	0.00	0.00	0.00	0.00	0.00	0.00	0.00	0.00	0.00	0.00	0.00	0.00	-0.628418	-0.189941	0.651367	-73.639999	266.559998	32.200001	158.00	-0.40	-0.06
2.94	0.00	0.00	0.00	0.00	0.00	0.00	5.75	0.25	15.50	13.25	15.25	10.75	8.50	12.50	8.25	9.50	-0.698730	0.015625	1.003418	-45.500000	328.790009	-7.350000	1117.00	0.26	-0.01	13.00	16.25	1.75	2.50	0.00	0.00	0.00	0.00	0.00	0.00	0.00	0.00	0.25	0.00	0.25	0.00	-0.864258	-0.675293	1.566406	-75.669998	279.230011	15.750000	367.00	-0.38	-0.05
2.95	0.00	0.00	0.00	0.00	0.00	0.00	5.50	0.50	14.75	12.75	14.75	10.25	8.50	12.25	8.50	9.75	-0.754395	0.017578	0.968262	-48.720001	345.799988	-12.110000	1091.00	0.26	-0.01	17.50	21.75	2.00	4.00	0.00	0.00	0.00	0.00	0.00	0.00	0.00	0.00	0.00	0.00	0.00	0.00	-1.411133	-0.457520	2.776855	25.480000	319.899994	-12.040000	489.00	-0.39	-0.05
2.96	0.00	0.00	0.00	0.00	0.00	0.00	5.25	0.50	13.50	12.25	14.25	10.00	8.25	12.25	8.75	10.00	-0.851074	-0.019043	1.067383	-43.680000	361.339996	-16.730000	1057.00	0.26	-0.02	22.75	23.75	2.50	7.50	0.25	0.25	0.00	0.00	0.00	0.00	0.00	0.00	0.00	0.00	0.00	0.00	-0.774902	-0.158203	3.351074	38.150002	262.779999	-35.980000	623.00	-0.38	-0.05
2.97	0.00	0.00	0.00	0.00	0.00	0.00	5.00	0.50	11.75	11.25	13.25	9.25	8.00	11.75	8.50	10.25	-1.103027	0.023438	1.395020	-24.430000	375.059998	-15.330000	988.00	0.26	-0.02	25.00	25.25	3.50	8.50	0.50	0.50	0.00	0.00	0.00	0.00	0.00	0.00	0.00	0.00	0.00	0.00	-0.444824	0.813477	1.853027	12.810000	168.630005	-33.810001	694.00	-0.38	-0.05
2.98	0.00	0.00	0.00	0.00	0.00	0.00	4.00	0.50	9.75	9.75	11.75	8.50	7.75	11.75	8.50	10.00	-1.503906	0.013184	1.853516	8.120000	395.220001	-6.510000	896.00	0.26	-0.03	26.75	25.25	4.50	9.75	0.75	1.00	0.00	0.00	0.00	0.00	0.00	0.00	0.00	0.00	0.00	0.00	-0.484863	0.549805	2.309570	-34.720001	113.190002	-10.990000	750.00	-0.37	-0.04
2.99	0.00	0.00	0.00	0.00	0.00	0.00	3.25	0.00	8.25	8.25	10.25	7.75	7.25	11.25	8.50	9.50	-2.409180	-0.022461	2.881348	36.610001	435.540009	8.190000	799.00	0.27	-0.03	26.25	25.25	5.25	9.50	1.00	1.00	0.00	0.00	0.00	0.00	0.00	0.00	0.00	0.00	0.00	0.00	-0.310059	-0.009766	1.448730	-47.250000	76.160004	-2.240000	753.00	-0.37	-0.04
3.00	0.00	0.00	0.00	0.00	0.00	0.00	2.50	0.00	7.25	7.25	8.75	6.75	6.75	10.00	7.75	8.50	-2.809082	0.181641	3.229004	61.250000	493.010010	29.400000	701.00	0.27	-0.04	26.75	25.25	6.00	10.50	1.50	1.50	0.00	0.00	0.00	0.00	0.00	0.25	0.00	0.00	0.00	0.00	-0.173828	-0.012207	0.937988	-48.860001	66.290001	-7.980000	795.00	-0.36	-0.04
3.01	0.00	0.00	0.00	0.00	0.00	0.00	1.50	0.00	6.25	6.00	8.00	5.75	5.75	9.00	7.00	7.75	-2.231934	0.401367	2.982422	99.540001	528.500000	40.250000	604.00	0.28	-0.04	27.75	25.75	7.00	11.25	1.75	2.00	0.00	0.00	0.00	0.00	0.00	0.25	0.00	0.25	0.00	0.00	-0.259277	0.180176	1.055664	-55.930000	66.989998	-11.410000	844.00	-0.36	-0.04
3.02	0.00	0.00	0.00	0.00	0.00	0.00	0.50	0.00	5.50	5.50	7.50	5.25	5.00	7.50	6.00	6.75	-2.539551	0.494141	2.792969	129.850006	542.989990	38.220001	521.00	0.28	-0.05	28.50	26.00	7.75	11.50	2.25	2.25	0.00	0.00	0.25	0.25	0.25	0.25	0.00	0.50	0.00	0.00	-0.317871	0.133789	1.135254	-55.650002	55.510002	-10.010000	887.00	-0.35	-0.04
3.03	0.00	0.00	0.00	0.00	0.00	0.00	0.25	0.00	5.00	5.00	6.00	4.50	3.25	6.00	5.25	5.50	-1.258301	-0.041504	3.849121	153.300003	530.109985	7.560000	432.00	0.28	-0.04	29.00	26.00	8.75	12.00	2.75	2.50	0.00	0.00	0.50	0.50	0.50	0.50	0.00	0.50	0.00	0.00	-0.259766	0.116211	0.999512	-59.779999	44.099998	-8.680000	932.00	-0.33	-0.04
3.04	0.00	0.00	0.00	0.00	0.00	0.00	0.00	0.00	3.00	4.75	5.25	3.25	1.50	4.25	3.25	3.00	-0.355957	0.010742	3.828613	139.300003	466.410004	-28.350000	303.00	0.28	-0.04	29.50	25.75	9.25	12.25	3.25	2.75	0.25	0.25	0.75	0.50	0.50	0.75	0.00	0.75	0.25	0.00	-0.261719	0.089844	1.033203	-56.279999	35.139999	-7.350000	973.00	-0.32	-0.04
3.05	0.00	0.00	0.25	0.00	0.00	0.00	0.00	0.00	1.00	3.50	4.00	2.75	0.00	2.00	1.50	1.25	0.623047	-0.125000	3.774902	116.410004	383.600006	-63.490002	178.00	0.26	-0.05	30.00	25.50	9.50	12.50	3.75	3.00	0.25	0.50	0.75	0.50	1.00	0.50	0.00	0.75	0.00	0.00	-0.259766	0.080566	1.003906	-47.880001	26.880001	-6.230000	996.00	-0.32	-0.04
3.06	0.00	0.00	0.00	0.00	0.00	0.00	0.00	0.00	1.25	2.25	3.25	2.00	0.00	0.75	0.50	1.25	1.751953	-0.261719	2.904297	94.989998	290.850006	-92.820000	124.00	0.26	-0.05	29.50	25.25	10.25	14.25	5.00	3.75	0.50	1.25	2.00	1.25	1.50	1.25	0.75	2.00	1.25	1.00	-0.255859	0.086914	0.994629	-40.459999	20.580000	-5.040000	1138.00	-0.27	-0.04
3.07	0.00	0.00	0.00	0.00	0.00	0.00	0.00	0.00	0.50	1.75	2.00	1.25	0.00	0.00	0.25	0.00	1.050293	-0.445312	-0.058105	99.889999	256.549988	-118.440002	67.00	0.24	-0.06	29.00	25.00	10.50	12.75	5.00	3.50	0.50	0.25	1.00	0.75	0.75	0.75	0.00	1.00	0.25	0.25	-0.252930	0.071777	0.985840	-28.980000	12.110000	-3.150000	1029.00	-0.30	-0.03
3.08	0.00	0.00	0.00	0.50	0.00	0.00	0.00	0.00	0.00	1.75	1.25	0.50	0.00	0.25	0.00	0.25	-0.053223	1.054688	5.767090	-39.689999	182.490005	-137.339996	50.00	0.00	0.00	28.25	24.25	10.50	12.50	5.50	3.50	0.50	0.25	1.00	1.00	0.75	1.00	0.25	1.25	0.50	0.25	-0.251953	0.062988	0.966797	-23.660000	9.800000	-2.380000	1029.00	-0.29	-0.03
3.09	0.00	0.00	0.00	0.00	0.00	0.25	0.00	0.00	0.25	1.25	1.00	0.25	0.00	0.00	0.00	0.00	1.995117	0.876953	4.195312	-3.640000	5.110000	-112.139999	35.00	0.00	0.00	27.00	23.75	10.75	12.25	6.00	3.75	0.50	0.50	1.25	1.00	1.00	1.00	0.00	1.25	0.50	0.25	-0.248535	0.054199	0.967773	-18.620001	7.630000	-1.470000	1027.00	-0.29	-0.03
3.10	0.00	0.00	0.00	0.00	0.00	0.00	0.00	0.00	0.00	1.00	1.25	0.50	0.00	0.00	0.00	0.00	1.229980	0.609863	3.052246	34.509998	-147.070007	-80.010002	31.00	0.00	0.00	26.00	23.00	10.50	12.00	6.75	4.50	0.75	0.25	2.25	1.75	1.25	1.00	0.00	1.50	0.50	0.50	-0.241699	0.049316	0.962891	-14.000000	6.370000	-0.770000	1049.00	-0.27	-0.03
3.11	0.00	0.00	0.00	0.00	0.00	0.00	0.00	0.00	0.00	0.75	1.00	0.50	0.00	0.00	0.00	0.00	0.738281	0.425781	2.368164	43.820000	-248.430008	-61.040001	26.00	0.00	0.00	24.75	21.75	10.25	11.75	6.25	4.00	0.50	0.50	1.50	1.00	1.50	1.25	0.25	1.25	0.50	0.50	-0.243652	0.050781	0.954590	-10.150000	5.880000	-0.210000	991.00	-0.27	-0.04
3.12	0.00	0.00	0.00	0.00	0.00	0.00	0.00	0.00	0.00	1.00	0.75	0.25	0.00	0.00	0.00	0.00	0.707031	0.362793	1.591797	37.869999	-297.709991	-48.509998	23.00	0.00	0.00	22.50	20.50	10.00	11.50	6.25	4.00	0.75	0.50	1.25	1.25	1.00	1.25	0.50	1.25	0.50	0.50	-0.245605	0.045898	0.956055	-7.280000	6.020000	-0.000000	947.00	-0.27	-0.04
3.13	0.00	0.00	0.00	0.00	0.00	0.00	0.00	0.00	0.00	0.75	0.50	0.00	0.00	0.00	0.00	0.00	0.655273	0.298340	1.304688	31.080000	-310.100006	-39.060001	14.00	0.00	0.00	21.00	19.25	9.75	11.25	6.25	4.25	0.75	0.50	1.50	1.00	1.50	1.50	0.50	1.25	0.50	0.25	-0.230957	0.054688	0.938477	-5.740000	5.950000	0.140000	922.00	-0.26	-0.04
3.14	0.00	0.00	0.00	0.00	0.00	0.00	0.00	0.00	0.00	0.75	0.00	0.00	0.00	0.00	0.00	0.00	0.517090	0.323242	1.177734	20.020000	-312.130005	-32.270000	9.00	0.00	0.00	19.75	18.25	9.25	10.50	6.25	4.00	0.75	0.50	1.25	1.25	1.50	1.25	0.75	1.25	0.25	0.50	-0.235840	0.050781	0.936523	-5.460000	6.160000	0.070000	877.00	-0.26	-0.04
3.15	0.00	0.00	0.00	0.00	0.00	0.00	0.00	0.00	0.00	0.75	0.25	0.00	0.00	0.00	0.00	0.00	0.370117	0.338867	1.164062	8.470000	-316.399994	-25.200001	11.00	0.00	0.00	17.50	16.75	9.00	10.00	6.25	4.25	0.75	0.50	1.75	1.25	1.50	1.50	0.50	1.25	0.50	0.75	-0.243652	0.048340	0.940918	-6.160000	6.440000	-0.280000	843.00	-0.24	-0.04
3.16	0.00	0.00	0.00	0.00	0.00	0.00	0.00	0.00	0.00	0.50	0.00	0.00	0.00	0.00	0.00	0.00	0.240234	0.368164	1.197754	2.170000	-326.619995	-15.820000	6.00	0.00	0.00	16.25	15.00	8.75	9.75	6.25	4.25	1.00	0.50	1.75	1.50	1.75	1.50	1.00	1.50	0.75	0.75	-0.249512	0.050781	0.937500	-7.140000	6.860000	-0.840000	825.00	-0.22	-0.04
3.17	0.00	0.00	0.00	0.00	0.00	0.00	0.00	0.00	0.00	0.00	0.00	0.00	0.00	0.00	0.00	0.00	0.077637	0.391113	1.271973	-1.260000	-342.649994	-4.970000	0.00	0.00	0.00	13.75	13.50	8.25	9.25	6.25	4.25	1.00	0.75	1.75	1.50	1.75	2.00	1.00	1.50	0.75	0.50	-0.254395	0.046387	0.942871	-7.910000	7.140000	-1.330000	778.00	-0.21	-0.05
3.18	0.00	0.00	0.00	0.00	0.00	0.00	0.00	0.00	0.00	0.25	0.00	0.00	0.00	0.00	0.00	0.00	-0.229980	0.372070	1.410645	-8.330000	-382.829987	18.620001	3.00	0.00	0.00	12.00	11.50	8.00	8.75	6.25	4.25	1.25	0.75	2.25	1.50	2.00	2.00	1.50	1.50	1.00	0.75	-0.240234	0.047363	0.938965	-8.400000	7.630000	-1.680000	752.00	-0.18	-0.05
3.19	0.00	0.00	0.00	0.00	0.00	0.00	0.00	0.00	0.00	0.25	0.00	0.00	0.00	0.00	0.00	0.00	-0.345215	0.361816	1.393555	-13.160000	-402.010010	29.190001	3.00	0.00	0.00	10.25	10.00	7.75	8.25	6.25	4.00	1.25	0.75	2.50	1.75	2.50	2.25	1.75	1.75	1.00	1.00	-0.244629	0.048340	0.943848	-7.630000	8.050000	-1.750000	726.00	-0.16	-0.05
3.20	0.00	0.00	0.00	0.00	0.00	0.00	0.00	0.00	0.00	0.00	0.00	0.00	0.00	0.00	0.00	0.00	-0.459473	0.354980	1.340332	-17.010000	-416.220001	38.290001	0.00	0.00	0.00	9.25	8.75	7.25	7.75	6.25	4.00	1.50	0.75	2.75	1.75	2.75	2.50	2.00	2.25	1.25	1.25	-0.247559	0.045410	0.937012	-7.280000	8.540000	-1.820000	715.00	-0.13	-0.04
3.21	0.00	0.00	0.00	0.00	0.00	0.00	0.00	0.00	0.00	0.00	0.00	0.00	0.00	0.00	0.00	0.00	-0.560547	0.349121	1.284668	-17.850000	-423.640015	46.060001	0.00	0.00	0.00	8.00	7.50	7.00	7.25	6.25	4.00	2.00	0.75	3.00	2.00	3.25	3.00	2.25	2.25	1.25	1.25	-0.256836	0.049805	0.940918	-7.000000	8.820000	-2.170000	708.00	-0.11	-0.04
3.22	0.00	0.00	0.00	0.00	0.00	0.00	0.00	0.00	0.00	0.00	0.00	0.00	0.00	0.00	0.00	0.00	-0.650879	0.355957	1.197754	-14.350000	-423.709991	52.849998	0.00	0.00	0.00	7.25	6.50	6.25	6.50	6.00	4.00	2.50	1.00	3.50	2.25	3.75	3.50	3.00	2.50	1.75	1.25	-0.253906	0.047852	0.941895	-6.720000	9.170000	-2.520000	717.00	-0.08	-0.04
3.23	0.00	0.00	0.00	0.00	0.00	0.25	0.00	0.00	0.00	0.00	0.00	0.00	0.00	0.00	0.00	0.00	-0.729980	0.349609	1.152832	-7.140000	-416.920013	58.590000	3.00	0.00	0.00	6.25	6.00	6.25	6.25	6.25	3.75	3.25	0.75	4.25	2.50	4.25	3.75	3.00	2.75	1.75	1.25	-0.252930	0.044922	0.937500	-6.650000	9.100000	-2.730000	730.00	-0.05	-0.03
3.24	0.00	0.00	0.00	0.00	0.00	0.00	0.00	0.00	0.00	0.00	0.00	0.00	0.00	0.00	0.00	0.00	-0.798828	0.329102	1.220703	3.220000	-405.160004	63.070000	0.00	0.00	0.00	5.75	5.25	6.00	5.75	6.25	3.50	3.75	1.00	5.00	2.50	5.50	4.50	3.25	3.00	2.00	1.75	-0.257324	0.047852	0.936035	-6.650000	9.170000	-3.220000	762.00	-0.02	-0.03
3.25	0.00	0.00	0.00	0.00	0.00	0.00	0.00	0.00	0.00	0.00	0.00	0.00	0.00	0.00	0.00	0.00	-0.869141	0.300293	1.361328	15.190001	-392.420013	65.870003	0.00	0.00	0.00	5.00	4.50	5.75	5.00	6.25	3.25	4.00	1.00	5.50	3.25	6.50	4.75	3.75	3.25	2.00	1.75	-0.255371	0.039551	0.936035	-6.510000	9.380000	-3.430000	772.00	0.00	-0.03
3.26	0.00	0.00	0.00	0.00	0.00	0.00	0.00	0.00	0.00	0.00	0.00	0.00	0.00	0.00	0.00	0.00	-0.942871	0.277832	1.453125	31.430000	-381.640015	67.340004	0.00	0.00	0.00	4.00	3.50	5.25	4.50	6.00	3.25	4.50	1.00	6.25	3.50	7.50	6.25	4.75	4.00	2.50	1.75	-0.260254	0.046875	0.935547	-6.230000	9.520000	-3.780000	808.00	0.04	-0.03
3.27	0.00	0.00	0.00	0.00	0.00	0.00	0.00	0.00	0.00	0.00	0.00	0.00	0.00	0.00	0.00	0.00	-1.002441	0.245605	1.568848	50.400002	-368.899994	67.480003	0.00	0.00	0.00	3.00	2.75	5.00	4.00	6.00	3.25	5.00	1.25	7.00	3.75	8.00	7.25	4.75	4.25	3.00	2.00	-0.256348	0.050293	0.939941	-5.740000	9.520000	-3.710000	833.00	0.06	-0.03
3.28	0.00	0.00	0.00	0.00	0.00	0.00	0.00	0.00	0.00	0.00	0.00	0.00	0.00	0.00	0.00	0.00	-1.048828	0.190430	1.681641	70.070000	-353.220001	66.010002	0.00	0.00	0.00	2.50	2.50	5.00	3.25	6.00	2.75	5.25	1.50	7.50	4.50	8.50	7.50	5.00	4.75	3.00	2.50	-0.266113	0.048828	0.935059	-5.390000	9.870000	-3.850000	852.00	0.08	-0.03
3.29	0.00	0.00	0.00	0.00	0.00	0.25	0.00	0.00	0.00	0.00	0.00	0.00	0.00	0.00	0.00	0.00	-1.124023	0.141602	1.979980	87.430000	-335.440002	61.670002	3.00	0.00	0.00	0.75	1.75	4.00	2.75	5.75	2.75	5.50	1.25	8.00	5.00	9.00	8.00	5.25	5.00	3.25	2.75	-0.351562	-0.010254	0.917480	-5.250000	10.990000	-4.900000	837.00	0.11	-0.03
3.30	0.00	0.00	0.00	0.00	0.00	0.00	0.00	0.00	0.00	0.00	0.00	0.00	0.00	0.00	0.00	0.00	-1.275879	0.122070	2.483398	100.940002	-322.769989	54.880001	0.00	0.00	0.00	0.50	2.00	4.00	2.50	5.50	2.50	5.75	1.25	8.50	6.00	9.50	8.25	5.75	5.50	3.75	3.50	-0.208496	0.012207	0.897949	-5.530000	10.990000	-5.180000	879.00	0.12	-0.03
3.31	0.00	0.00	0.00	0.00	0.00	0.00	0.00	0.00	0.00	0.00	0.00	0.00	0.00	0.00	0.00	0.00	-1.511719	0.162598	2.971680	106.190002	-325.220001	47.880001	0.00	0.00	0.00	0.00	1.75	3.25	2.00	5.00	2.25	6.25	1.50	9.00	6.75	10.00	8.50	6.00	5.75	4.00	3.75	-0.270996	0.093262	0.905273	-4.760000	12.670000	-4.760000	892.00	0.14	-0.03
3.32	0.00	0.00	0.00	0.00	0.00	0.00	0.00	0.00	0.00	0.00	0.00	0.00	0.00	0.00	0.00	0.00	-1.795898	0.304688	3.135742	104.370003	-340.899994	44.590000	0.00	0.00	0.00	0.00	1.25	3.00	1.50	5.00	2.25	6.50	1.50	9.75	7.75	10.50	9.00	6.25	6.25	4.00	4.00	-0.190430	-0.119141	0.941895	-3.990000	13.510000	-4.550000	924.00	0.16	-0.02
3.33	0.00	0.00	0.00	0.00	0.00	0.00	0.00	0.00	0.00	0.00	0.00	0.00	0.00	0.00	0.00	0.00	-2.389160	0.545410	2.538086	104.930000	-359.170013	57.189999	0.00	0.00	0.00	0.00	1.00	2.25	1.25	4.25	1.75	6.75	1.50	10.25	8.25	11.00	9.25	6.75	6.50	5.00	4.25	-0.169434	-0.105957	0.934570	-3.010000	15.190001	-4.270000	940.00	0.17	-0.02
3.34	0.00	0.00	0.00	0.00	0.00	0.00	0.00	0.00	0.00	0.00	0.00	0.00	0.00	0.00	0.00	0.00	-2.656738	0.543945	2.167480	105.629997	-350.350006	69.930000	0.00	0.00	0.00	0.00	1.25	2.00	1.25	4.00	1.50	7.00	1.75	10.75	8.50	11.50	9.75	7.25	7.00	5.00	4.75	-0.181152	-0.133301	0.922363	-2.310000	18.059999	-4.130000	976.00	0.18	-0.02
3.35	0.00	0.00	0.00	0.00	0.00	0.00	0.00	0.00	0.00	0.00	0.00	0.00	0.00	0.00	0.00	0.00	-2.856934	0.530762	1.867188	98.349998	-337.260010	84.349998	0.00	0.00	0.00	0.00	0.75	1.25	1.00	3.00	1.00	7.25	1.75	11.50	9.00	12.00	10.25	7.75	7.50	5.00	5.00	-0.163086	0.024414	1.014160	-2.240000	21.420000	-4.900000	983.00	0.19	-0.02
3.36	0.00	0.00	0.00	0.00	0.00	0.00	0.00	0.00	0.00	0.00	0.00	0.00	0.00	0.00	0.00	0.00	-3.102539	0.513672	1.646484	82.110001	-325.010010	99.050003	0.00	0.00	0.00	0.00	0.50	1.50	0.75	2.50	1.25	7.50	1.75	12.00	9.75	12.50	10.50	8.00	7.50	5.75	5.25	-0.169434	-0.098145	0.873047	-1.540000	28.070000	-5.740000	1019.00	0.20	-0.02
3.37	0.00	0.00	0.00	0.00	0.00	0.00	0.00	0.00	0.00	0.00	0.00	0.00	0.00	0.00	0.00	0.00	-3.406738	0.409668	1.318848	66.290001	-314.649994	109.970001	0.00	0.00	0.00	0.00	0.50	1.25	0.25	1.75	1.00	7.75	1.50	12.75	10.25	13.25	11.00	8.25	8.00	6.25	5.50	-0.270996	0.041992	0.956543	-1.750000	34.509998	-6.230000	1043.00	0.21	-0.02
3.38	0.00	0.00	0.00	0.00	0.00	0.00	0.00	0.00	0.00	0.00	0.00	0.00	0.00	0.00	0.00	0.00	-3.703613	0.267090	0.737793	61.040001	-298.269989	113.470001	0.00	0.00	0.00	0.00	0.25	0.75	0.25	1.50	0.25	8.00	1.50	13.25	11.00	13.75	11.50	8.25	8.25	6.50	6.00	-0.267578	0.037598	0.944336	-2.310000	43.119999	-6.580000	1062.00	0.22	-0.01
3.39	0.00	0.00	0.00	0.00	0.00	0.00	0.00	0.00	0.00	0.00	0.00	0.00	0.00	0.00	0.00	0.00	-4.038086	0.066895	0.082520	67.199997	-271.179993	108.500000	0.00	0.00	0.00	0.00	0.25	0.75	0.00	1.00	0.50	8.00	1.50	14.00	11.00	14.25	11.25	8.25	8.50	7.25	6.50	-0.270996	0.036133	0.968262	-1.050000	56.490002	-7.840000	1083.00	0.22	-0.01
3.40	0.00	0.00	0.00	0.00	0.00	0.00	0.00	0.00	0.00	0.00	0.00	0.00	0.00	0.00	0.00	0.00	-4.299316	-0.171875	-0.490234	87.150002	-228.619995	98.910004	0.00	0.00	0.00	0.00	0.00	0.00	0.25	0.75	0.50	7.75	1.25	16.50	12.50	15.50	12.50	9.00	9.75	7.25	7.00	-0.311035	0.033203	0.956055	-1.890000	71.610001	-7.910000	1166.00	0.23	-0.01
3.41	0.00	0.00	0.00	0.00	0.00	0.00	0.00	0.00	0.00	0.00	0.00	0.00	0.00	0.00	0.00	0.00	-4.544434	-0.479980	-0.857910	110.250000	-174.020004	88.480003	0.00	0.00	0.00	0.00	1.25	1.00	0.25	0.50	0.25	8.00	0.75	16.75	12.50	14.75	11.75	8.75	9.25	7.50	7.00	-0.336914	0.000977	0.952148	-2.800000	91.629997	-8.540000	1163.00	0.22	-0.00
3.42	0.00	0.00	0.00	0.00	0.00	0.25	0.00	0.00	0.00	0.00	0.00	0.00	0.00	0.00	0.00	0.00	-4.650879	-0.769531	-1.080078	113.400002	-115.360001	73.080002	3.00	0.00	0.00	0.00	0.00	0.00	0.00	0.50	0.00	8.00	0.75	15.25	12.25	15.00	11.75	8.50	9.25	7.50	8.00	-0.361816	0.083984	0.893555	-5.180000	120.190002	-10.010000	1115.00	0.24	-0.01
3.43	0.00	0.00	0.00	0.00	0.00	0.00	0.00	0.00	0.00	0.00	0.00	0.00	0.00	0.00	0.00	0.00	-4.499023	-0.913086	-1.136719	88.900002	-57.049999	51.939999	0.00	0.00	0.00	0.00	0.00	0.00	0.00	0.25	0.00	7.75	0.50	15.50	12.50	15.00	11.75	8.00	9.50	8.00	7.75	-0.256348	0.064941	1.321289	-13.230000	196.419998	-16.170000	1112.00	0.24	-0.00
3.44	0.00	0.00	0.00	0.00	0.00	0.00	0.00	0.00	0.00	0.00	0.00	0.00	0.00	0.00	0.00	0.00	-4.192383	-0.868652	-0.906738	51.310001	-0.140000	32.900002	0.00	0.00	0.00	0.00	0.00	0.00	0.00	0.25	0.00	7.75	0.25	15.75	12.75	15.00	11.50	7.75	9.75	8.25	7.75	-0.538086	0.060059	0.771484	-19.460001	235.550003	-20.370001	1114.00	0.25	0.00
3.45	1.00	1.00	0.00	0.00	0.00	0.00	0.00	0.00	0.00	0.00	0.00	0.00	0.00	0.00	0.00	0.00	-6.032715	-0.398926	1.141113	-77.139999	268.170013	49.279999	21.00	0.00	0.00	0.00	0.00	0.00	0.00	0.25	0.00	7.75	0.25	16.50	13.75	16.50	12.25	7.75	9.75	9.50	8.50	-0.428223	0.039551	1.097656	-25.969999	272.579987	-24.150000	1180.00	0.25	-0.00
3.46	2.75	5.00	0.00	0.25	0.00	0.00	0.00	0.00	0.00	0.00	0.00	0.00	0.00	0.00	0.00	0.00	0.613281	-0.462891	-0.796875	-139.930008	371.700012	40.180000	84.00	-0.41	-0.07	0.00	0.50	0.50	0.00	0.25	0.00	7.50	0.00	16.00	13.00	15.00	11.25	6.00	11.25	8.75	7.75	-0.557129	0.064453	1.018066	-37.240002	308.000000	-29.190001	1123.00	0.25	0.01
3.47	5.25	7.75	0.00	1.50	0.00	0.00	0.00	0.00	0.00	0.00	0.00	0.00	0.00	0.00	0.00	0.00	-0.693848	-0.579102	1.602051	-167.930008	272.019989	16.590000	155.00	-0.40	-0.07	0.00	0.25	0.25	0.00	0.25	0.00	7.50	0.00	15.75	13.00	14.75	11.00	5.50	10.50	8.75	7.75	-0.520020	0.012207	1.017090	-49.000000	342.230011	-34.230000	1097.00	0.25	0.01
3.48	8.00	8.75	0.00	1.50	0.00	0.00	0.00	0.00	0.00	0.00	0.00	0.00	0.00	0.00	0.00	0.00	-1.170898	-0.513672	0.970215	-153.089996	262.360016	12.880000	197.00	-0.40	-0.04	0.00	0.00	0.00	0.00	0.25	0.00	7.50	0.00	15.00	12.50	14.25	10.75	5.50	10.00	9.00	7.75	-0.666016	0.063477	1.150391	-53.619999	367.290009	-38.430000	1064.00	0.25	0.01
3.49	10.50	11.25	0.00	2.25	0.00	0.00	0.00	0.00	0.00	0.00	0.00	0.00	0.00	0.00	0.00	0.00	-1.233887	-0.524902	2.139648	-102.340004	311.640015	14.840000	259.00	-0.40	-0.05	0.00	0.00	0.00	0.00	0.00	0.00	7.00	0.00	13.50	12.00	13.50	10.50	5.25	9.75	9.25	8.00	-0.341309	-0.151855	1.651367	-35.560001	391.720001	-41.369999	1014.00	0.25	0.01
3.50	15.00	14.25	0.50	4.00	0.00	0.00	0.00	0.00	0.00	0.00	0.00	0.00	0.00	0.00	0.00	0.00	-2.255859	-1.010742	4.091309	-36.189999	334.809998	11.270000	367.00	-0.39	-0.04	0.00	0.00	0.00	0.00	0.00	0.00	6.25	0.00	11.50	10.25	12.25	9.75	4.75	9.50	9.25	8.25	-0.946289	0.165039	1.831543	9.100000	413.910004	-38.500000	925.00	0.26	-0.00
3.51	19.25	17.00	1.25	6.00	0.00	0.00	0.00	0.00	0.00	0.00	0.00	0.00	0.00	0.00	0.00	0.00	-1.115723	-0.509766	3.201660	22.610001	291.200012	-11.410000	476.00	-0.39	-0.04	0.00	0.00	0.00	0.00	0.00	0.00	5.50	0.00	9.25	9.00	11.50	9.75	6.50	11.25	10.50	9.00	-1.580078	0.223633	2.370117	64.470001	447.580017	-31.639999	909.00	0.26	-0.02
3.52	20.25	17.75	2.25	7.75	0.00	0.00	0.00	0.00	0.00	0.00	0.00	0.00	0.00	0.00	0.00	0.00	-0.522461	0.078613	2.139648	39.200001	211.330002	-28.980000	528.00	-0.38	-0.04	0.00	0.00	0.00	0.00	0.00	0.00	4.50	0.00	7.75	6.50	9.00	8.00	4.25	9.25	8.50	7.25	-2.574219	0.106445	3.678711	91.629997	500.010010	-17.010000	721.00	0.27	-0.01
3.53	20.00	17.50	3.25	8.75	0.00	0.25	0.00	0.00	0.00	0.00	0.00	0.00	0.00	0.00	0.00	0.00	-0.208008	0.563477	0.901367	34.090000	168.350006	-23.799999	550.00	-0.37	-0.05	0.00	0.00	0.00	0.00	0.00	0.00	3.00	0.00	6.25	4.75	7.50	6.75	3.75	8.25	7.75	6.00	-2.432129	0.001465	3.597168	105.279999	553.210022	-1.960000	593.00	0.27	-0.02
3.54	20.00	17.25	3.75	9.00	0.25	1.00	0.00	0.00	0.00	0.00	0.00	0.00	0.00	0.00	0.00	0.00	-0.165527	0.334473	0.458496	19.110001	177.380005	-8.190000	569.00	-0.37	-0.05	0.00	0.00	0.00	0.00	0.00	0.00	1.75	0.00	5.50	4.00	6.25	5.50	3.50	7.25	6.75	5.25	-1.751465	0.116211	2.890137	109.690002	582.119995	-5.320000	497.00	0.28	-0.03
3.55	22.50	18.50	6.25	10.00	0.75	3.25	0.00	0.25	0.00	0.00	0.00	0.25	0.00	0.00	0.00	0.00	-0.669434	0.091309	0.977539	-56.420002	120.400002	1.400000	692.00	-0.35	-0.05	0.00	0.00	0.00	0.00	0.00	0.00	1.00	0.00	4.50	3.50	5.00	4.75	2.75	6.25	6.00	3.75	-2.170410	0.798340	3.185547	171.360001	595.070007	-5.390000	408.00	0.28	-0.03
3.56	23.00	18.75	7.00	10.75	1.25	4.25	0.00	0.50	0.00	0.00	0.25	0.25	0.00	0.00	0.00	0.00	-0.259277	-0.065430	0.535645	-83.790001	78.470001	-4.480000	743.00	-0.34	-0.06	0.00	0.00	0.00	0.00	0.00	0.00	0.25	0.00	3.00	3.25	4.00	3.75	1.75	4.50	5.00	1.75	-1.319336	0.581543	4.573730	206.500000	551.109985	-26.389999	299.00	0.29	-0.04
3.57	23.50	19.00	7.75	11.00	2.00	5.25	0.00	1.25	0.00	0.00	0.50	0.75	0.00	0.00	0.00	0.00	-0.312012	0.151855	1.148926	-90.370003	77.910004	-9.100000	805.00	-0.32	-0.06	0.00	0.00	0.00	0.00	0.00	0.00	0.00	0.00	1.75	2.75	3.25	2.50	0.00	2.00	2.25	0.50	0.183105	0.322754	4.414551	231.000000	459.690002	-60.340000	170.00	0.28	-0.02
3.58	22.50	18.75	8.25	11.00	2.25	4.25	0.00	0.00	0.00	0.00	0.00	0.00	0.00	0.00	0.00	0.00	-0.426758	0.024414	1.277344	-81.690002	57.470001	-7.420000	754.00	-0.34	-0.05	0.00	0.00	0.50	0.00	0.00	0.00	0.00	0.00	0.50	2.00	1.75	1.50	0.00	0.75	0.50	0.25	1.703125	-0.009277	4.292480	230.509995	361.059998	-101.779999	88.00	0.22	-0.04
3.59	16.50	15.25	7.00	9.25	2.00	4.75	0.00	0.25	0.00	0.00	0.00	0.50	0.00	0.00	0.00	0.00	-0.289551	0.025391	1.021973	-66.919998	32.549999	-6.720000	627.00	-0.33	-0.06	0.00	0.00	0.00	0.00	0.00	0.00	0.00	0.00	0.00	1.25	1.00	0.50	0.00	0.25	0.00	0.00	1.916016	-0.164062	3.161133	185.500000	254.100006	-129.710007	34.00	0.00	0.00
3.60	16.00	14.75	7.50	9.75	3.25	5.50	0.00	0.50	0.00	0.50	0.25	1.00	0.50	0.00	0.00	0.00	-0.293457	0.034668	1.037598	-54.880001	18.830000	-5.740000	676.00	-0.30	-0.07	0.00	1.00	0.00	0.00	0.00	0.00	0.00	0.25	1.25	1.00	1.00	0.00	0.00	0.00	0.00	0.25	0.466309	0.915527	2.488281	140.139999	232.960007	-130.550003	56.00	0.11	0.01
3.61	23.50	18.50	9.25	11.50	5.00	7.25	0.00	2.50	0.00	1.00	1.25	2.00	3.75	0.00	0.00	0.25	-0.290527	0.037598	1.005859	-43.889999	9.940000	-4.760000	976.00	-0.26	-0.09	0.00	0.75	0.75	0.50	0.50	0.50	0.00	0.50	1.50	2.25	2.00	1.50	1.25	1.25	1.25	1.25	2.281738	0.811523	4.348145	14.070000	35.630001	-96.809998	175.00	0.15	-0.08
3.62	23.00	18.00	8.50	9.75	5.50	7.50	0.00	2.75	0.00	1.00	1.75	2.25	4.25	0.00	0.25	0.50	-0.309082	0.021973	0.985840	-33.389999	5.110000	-3.570000	966.00	-0.25	-0.09	0.00	1.00	0.75	0.75	0.50	0.50	0.25	0.50	1.25	1.25	1.50	1.50	1.50	0.00	0.00	0.75	1.896973	0.963867	3.554199	-9.380000	-145.880005	-45.360001	138.00	0.06	-0.11
3.63	22.00	17.25	9.50	11.50	6.00	7.75	0.00	3.25	0.50	0.75	1.75	2.50	4.50	0.50	0.50	0.75	-0.263672	0.018066	0.962402	-17.500000	2.730000	-1.890000	1017.00	-0.24	-0.09	0.00	0.00	0.00	0.00	0.00	0.00	0.00	0.00	1.00	1.75	1.75	1.50	1.25	1.00	0.50	1.25	1.026367	0.511230	2.594727	-41.299999	-254.029999	-16.379999	106.00	0.26	-0.08
3.64	21.00	16.50	9.50	11.00	6.25	8.00	0.00	4.00	0.25	1.50	2.25	2.50	5.25	0.25	0.50	0.50	-0.267578	0.015137	0.959473	-11.830000	3.360000	-0.910000	1024.00	-0.22	-0.10	0.00	0.00	0.00	0.00	0.00	0.00	0.00	0.00	0.00	0.25	0.00	0.00	0.00	0.00	0.00	0.00	1.012207	0.410645	1.741211	-53.200001	-303.519989	-2.450000	3.00	0.00	0.00
3.65	20.00	15.75	9.25	11.00	6.25	8.25	0.25	4.25	0.25	1.50	2.25	3.25	5.75	0.50	0.75	0.75	-0.278809	0.014160	0.951660	-7.420000	4.340000	0.000000	1033.00	-0.21	-0.10	0.00	0.00	0.00	0.00	0.00	0.00	0.00	0.00	0.00	0.25	0.25	0.00	0.00	0.00	0.00	0.00	0.848145	0.273926	1.269043	-50.049999	-314.089996	2.800000	6.00	0.00	0.00
3.66	18.50	14.75	9.00	10.50	6.50	8.00	0.25	4.50	0.75	1.75	2.50	3.50	6.00	0.50	0.50	0.50	-0.277832	0.017090	0.950195	-4.830000	5.670000	0.630000	1015.00	-0.20	-0.11	0.00	0.00	0.00	0.00	0.00	0.00	0.00	0.00	0.00	0.00	0.25	0.00	0.00	0.00	0.00	0.00	0.699707	0.279297	1.099121	-49.349998	-314.510010	2.100000	3.00	0.00	0.00
3.67	16.75	13.75	8.50	10.00	6.25	8.25	0.25	5.25	1.00	1.75	2.75	3.75	6.75	0.75	0.75	1.00	-0.266113	0.015137	0.944336	-3.640000	7.280000	0.840000	1010.00	-0.18	-0.12	0.00	0.00	0.00	0.25	0.25	0.50	0.00	0.25	1.00	1.00	1.00	0.75	0.75	0.75	0.75	0.75	0.476074	0.140137	1.326660	-35.770000	-336.070007	-2.030000	89.00	0.20	-0.08
3.68	15.25	12.75	8.25	9.75	6.25	8.00	0.25	5.25	1.00	1.75	3.25	4.50	7.25	1.25	0.75	1.00	-0.270508	0.023926	0.942871	-3.710000	9.170000	0.560000	998.00	-0.16	-0.12	0.00	0.00	0.00	0.00	0.00	0.00	0.00	0.00	0.50	0.25	0.00	0.00	0.00	0.00	0.00	0.25	0.253418	0.184570	1.380859	-16.870001	-358.049988	-0.350000	11.00	0.00	0.00
3.69	13.25	11.25	7.75	9.00	6.00	8.00	0.50	5.50	1.25	1.75	3.75	5.00	7.75	1.50	1.00	1.25	-0.270996	0.020508	0.940430	-4.970000	10.430000	-0.140000	977.00	-0.13	-0.13	0.00	0.00	0.00	0.00	0.00	0.00	0.00	0.00	0.00	0.25	0.00	0.00	0.00	0.00	0.00	0.00	0.112793	0.084473	1.361328	-3.990000	-378.350006	2.030000	3.00	0.00	0.00
