# time	left pressure 1[N/cm²]	left pressure 2[N/cm²]	left pressure 3[N/cm²]	left pressure 4[N/cm²]	left pressure 5[N/cm²]	left pressure 6[N/cm²]	left pressure 7[N/cm²]	left pressure 8[N/cm²]	left pressure 9[N/cm²]	left pressure 10[N/cm²]	left pressure 11[N/cm²]	left pressure 12[N/cm²]	left pressure 13[N/cm²]	left pressure 14[N/cm²]	left pressure 15[N/cm²]	left pressure 16[N/cm²]	left acceleration X[g]	left acceleration Y[g]	left acceleration Z[g]	left angular X[dps]	left angular Y[dps]	left angular Z[dps]	left total force[N]	left center of pressure X[%]	left center of pressure Y[%]	right pressure 1[N/cm²]	right pressure 2[N/cm²]	right pressure 3[N/cm²]	right pressure 4[N/cm²]	right pressure 5[N/cm²]	right pressure 6[N/cm²]	right pressure 7[N/cm²]	right pressure 8[N/cm²]	right pressure 9[N/cm²]	right pressure 10[N/cm²]	right pressure 11[N/cm²]	right pressure 12[N/cm²]	right pressure 13[N/cm²]	right pressure 14[N/cm²]	right pressure 15[N/cm²]	right pressure 16[N/cm²]	right acceleration X[g]	right acceleration Y[g]	right acceleration Z[g]	right angular X[dps]	right angular Y[dps]	right angular Z[dps]	right total force[N]	right center of pressure X[%]	right center of pressure Y[%]
0.00																										2.50	1.75	2.25	3.00	2.25	2.50	0.00	2.75	3.00	2.75	2.50	2.50	3.25	3.25	0.25	0.75	-0.214844	0.106934	0.962891	-2.520000	-3.220000	2.520000	377.00	0.02	-0.09
0.01																										2.50	1.25	2.25	3.00	2.25	2.50	0.00	2.50	3.25	3.00	2.50	2.50	3.25	3.25	0.25	0.75	-0.204102	0.103516	0.965820	-2.520000	-3.150000	2.520000	374.00	0.03	-0.09
0.02																										2.50	1.75	2.00	3.25	2.50	2.50	0.00	2.50	3.25	3.00	2.50	2.00	3.25	3.00	0.25	0.75	-0.213867	0.109863	0.965820	-2.590000	-3.080000	2.520000	374.00	0.01	-0.09
0.03																										2.50	2.00	2.25	3.00	2.50	2.25	0.00	2.50	3.00	3.00	2.75	2.50	3.50	3.25	0.25	0.75	-0.208008	0.105469	0.959473	-2.520000	-3.150000	2.520000	383.00	0.02	-0.09
0.04																										2.25	2.00	2.00	3.00	2.50	2.50	0.00	2.50	3.00	3.25	2.50	2.50	3.50	3.00	0.25	0.75	-0.208496	0.106445	0.964355	-2.380000	-3.010000	2.450000	378.00	0.02	-0.09
0.05																										2.50	1.50	2.25	3.00	2.50	2.25	0.00	2.50	3.00	3.00	2.50	2.25	3.50	3.00	0.25	0.75	-0.206543	0.104980	0.956543	-2.450000	-3.010000	2.520000	371.00	0.02	-0.09
0.06																										2.50	1.75	2.25	3.00	2.50	2.50	0.00	2.50	3.00	3.00	2.75	2.25	3.25	2.75	0.25	0.75	-0.213867	0.108398	0.962891	-2.590000	-3.080000	2.380000	374.00	0.01	-0.09
0.07																										2.50	1.50	2.25	3.25	2.50	2.50	0.00	2.50	3.00	3.25	2.75	2.25	3.50	3.25	0.25	0.75	-0.208984	0.104004	0.958008	-2.450000	-3.010000	2.450000	383.00	0.02	-0.09
0.08																										2.25	1.75	2.00	2.75	2.50	2.50	0.00	2.25	3.00	3.00	2.50	2.25	3.50	3.00	0.25	0.75	-0.214355	0.112305	0.959961	-2.450000	-2.940000	2.450000	364.00	0.02	-0.09
0.09																										2.50	1.50	2.00	2.75	2.50	2.50	0.00	2.75	3.00	3.25	2.75	2.25	3.50	3.00	0.50	1.00	-0.212402	0.104980	0.958496	-2.450000	-3.010000	2.380000	381.00	0.03	-0.09
0.10																										2.50	2.00	2.00	2.75	2.50	2.50	0.00	2.50	3.00	3.00	2.75	2.25	3.25	3.00	0.25	0.75	-0.208496	0.109375	0.963867	-2.590000	-3.150000	2.380000	373.00	0.02	-0.09
0.11																										2.50	1.50	2.00	3.00	2.50	2.25	0.00	2.50	3.00	3.00	2.75	2.25	3.25	3.00	0.25	0.75	-0.209473	0.108398	0.962402	-2.450000	-3.010000	2.450000	368.00	0.02	-0.09
0.12																										2.50	1.50	2.00	2.50	2.50	2.25	0.00	2.50	3.25	3.00	2.75	2.25	3.50	3.00	0.50	0.75	-0.210938	0.103516	0.961426	-2.450000	-3.010000	2.380000	371.00	0.03	-0.08
0.13																										2.50	1.50	1.75	2.75	2.50	2.25	0.00	2.50	3.00	3.25	2.50	2.25	3.25	3.25	0.25	0.75	-0.208008	0.104980	0.957520	-2.450000	-3.010000	2.450000	365.00	0.03	-0.09
0.14																										2.50	2.00	2.00	2.75	2.50	2.25	0.00	2.50	3.00	3.00	2.75	2.25	3.50	2.75	0.25	0.75	-0.213379	0.107422	0.965332	-2.450000	-3.080000	2.520000	370.00	0.02	-0.09
0.15																										2.25	1.50	2.00	3.00	2.25	2.25	0.00	2.50	3.50	3.25	2.75	2.50	3.75	3.25	0.25	0.75	-0.203125	0.109375	0.965332	-2.520000	-3.150000	2.520000	381.00	0.04	-0.09
0.16																										2.25	1.50	2.00	2.75	2.50	2.25	0.00	2.75	3.00	3.00	2.75	2.25	3.50	3.25	0.25	0.75	-0.210449	0.104492	0.962402	-2.590000	-3.220000	2.450000	371.00	0.03	-0.09
0.17																										2.50	1.75	1.75	2.75	2.50	2.00	0.00	2.50	3.25	3.00	2.50	2.50	3.50	3.25	0.25	0.75	-0.209961	0.102051	0.965820	-2.590000	-3.080000	2.310000	370.00	0.03	-0.09
0.18																										2.25	1.25	2.25	2.75	2.25	2.25	0.00	2.75	3.00	3.00	2.50	2.25	3.50	3.25	0.50	0.75	-0.213867	0.105957	0.962891	-2.590000	-3.150000	2.310000	369.00	0.03	-0.09
0.19																										2.25	1.50	1.75	3.00	2.50	2.00	0.00	2.50	3.00	3.25	2.75	2.50	3.00	3.00	0.25	0.75	-0.217285	0.106445	0.967285	-2.590000	-3.150000	2.380000	363.00	0.03	-0.09
0.20																										2.50	1.25	1.75	3.00	2.25	2.25	0.00	2.75	3.00	3.25	2.75	2.25	3.00	3.00	0.25	0.75	-0.210938	0.103516	0.956055	-2.520000	-3.150000	2.380000	365.00	0.03	-0.09
0.21																										2.25	1.50	2.00	2.75	2.25	2.25	0.00	2.50	3.25	3.00	2.75	2.25	3.25	2.75	0.25	0.75	-0.207520	0.106445	0.962891	-2.520000	-3.150000	2.520000	361.00	0.03	-0.09
0.22																										2.50	1.25	2.25	2.75	2.25	2.25	0.00	2.50	3.00	3.00	2.50	2.50	3.50	3.25	0.25	1.00	-0.209961	0.108887	0.968750	-2.520000	-3.150000	2.450000	369.00	0.03	-0.09
0.23																										2.25	1.75	2.00	2.75	2.25	2.00	0.00	2.50	3.25	3.00	2.75	2.25	3.50	3.00	0.00	0.75	-0.212891	0.105469	0.958984	-2.590000	-3.150000	2.450000	363.00	0.03	-0.09
0.24																										2.25	1.00	2.00	2.75	2.25	2.00	0.00	2.50	3.00	3.00	2.75	2.25	3.00	3.00	0.25	0.75	-0.211426	0.107422	0.961426	-2.520000	-3.150000	2.450000	351.00	0.03	-0.08
0.25																										2.25	1.75	2.00	2.50	2.25	2.25	0.00	2.50	3.25	3.25	2.75	2.50	3.50	3.25	0.25	1.00	-0.212402	0.110840	0.962402	-2.520000	-3.080000	2.450000	374.00	0.04	-0.09
0.26																										2.25	1.25	2.00	2.75	2.25	2.25	0.00	2.50	3.50	3.25	2.75	2.50	3.50	3.00	0.25	0.75	-0.211914	0.104004	0.966309	-2.520000	-3.080000	2.450000	372.00	0.04	-0.08
0.27																										2.25	1.50	2.00	2.75	2.50	2.00	0.00	2.50	3.50	3.00	2.50	2.25	3.25	3.00	0.25	0.75	-0.213379	0.110352	0.963867	-2.520000	-3.080000	2.380000	364.00	0.03	-0.08
0.28																										2.50	0.75	2.00	2.50	2.50	2.00	0.00	2.50	3.50	3.25	2.75	2.50	3.50	3.00	0.25	0.75	-0.206543	0.106445	0.968262	-2.520000	-3.150000	2.380000	367.00	0.04	-0.08
0.29																										2.50	1.25	2.00	2.75	2.25	2.25	0.00	2.50	3.50	3.25	2.75	2.25	3.50	3.00	0.25	0.75	-0.206543	0.106445	0.968262	-2.520000	-3.150000	2.380000	372.00	0.03	-0.08
0.30																										2.25	1.50	2.00	2.75	2.25	2.25	0.00	2.50	3.25	3.00	3.00	2.50	3.50	3.50	0.00	0.75	-0.208008	0.107910	0.963379	-2.380000	-3.080000	2.450000	373.00	0.03	-0.09
0.31																										2.25	1.50	2.00	2.50	2.25	2.00	0.00	2.50	3.00	3.00	2.75	2.50	3.50	3.00	0.25	0.75	-0.215332	0.106445	0.959473	-2.450000	-3.010000	2.450000	360.00	0.03	-0.09
0.32																										2.25	1.00	1.50	2.50	2.25	2.25	0.00	2.50	3.25	3.00	2.75	2.50	3.50	3.00	0.50	0.75	-0.214355	0.107910	0.958008	-2.520000	-3.150000	2.380000	358.00	0.05	-0.09
0.33																										2.00	1.50	1.75	2.75	2.25	2.00	0.00	2.50	3.25	3.00	2.75	2.50	3.25	2.75	0.25	1.00	-0.206543	0.104004	0.961914	-2.520000	-3.010000	2.450000	357.00	0.04	-0.09
0.34																										2.25	1.50	1.75	2.50	2.25	2.00	0.00	2.50	3.25	3.25	2.75	2.50	3.50	3.25	0.25	1.00	-0.210449	0.105469	0.964844	-2.520000	-3.220000	2.520000	366.00	0.04	-0.09
0.35																										2.25	1.00	1.75	2.50	2.50	2.25	0.00	2.50	3.50	3.00	2.75	2.50	3.75	3.25	0.25	1.00	-0.211426	0.104492	0.958984	-2.520000	-3.080000	2.450000	370.00	0.05	-0.09
0.36																										2.25	1.75	2.00	2.25	2.25	2.25	0.00	2.75	3.25	3.25	2.75	2.50	3.50	3.00	0.25	0.75	-0.213867	0.105469	0.960449	-2.520000	-3.080000	2.450000	372.00	0.03	-0.09
0.37																										2.25	1.50	2.00	2.75	2.25	2.25	0.00	2.50	3.25	3.25	3.00	2.50	3.25	3.25	0.25	1.00	-0.211914	0.102539	0.962402	-2.450000	-3.150000	2.450000	375.00	0.04	-0.09
0.38																										2.25	1.75	1.75	2.75	2.25	2.25	0.00	2.50	3.00	3.25	2.75	2.25	3.25	3.00	0.25	0.75	-0.212891	0.104980	0.959961	-2.450000	-3.150000	2.450000	362.00	0.03	-0.09
0.39																										2.25	1.25	2.25	2.50	2.25	2.25	0.00	2.50	3.00	3.25	3.00	2.25	3.25	3.00	0.25	0.75	-0.211914	0.104004	0.966797	-2.450000	-3.150000	2.450000	363.00	0.03	-0.09
0.40																										2.25	1.25	2.00	2.50	2.25	2.25	0.00	2.75	3.25	3.25	3.00	2.25	3.25	3.00	0.25	0.75	-0.209473	0.103516	0.969238	-2.520000	-3.150000	2.520000	367.00	0.04	-0.09
0.41																										2.25	1.50	2.00	2.50	2.25	2.25	0.00	2.50	3.00	3.00	2.75	2.50	3.50	3.25	0.25	0.75	-0.206543	0.106934	0.964844	-2.520000	-3.150000	2.450000	364.00	0.03	-0.09
0.42																										2.25	1.50	2.00	2.75	2.25	2.25	0.00	2.75	3.25	3.00	2.75	2.50	3.00	3.00	0.25	0.75	-0.205078	0.106934	0.966797	-2.520000	-3.080000	2.450000	368.00	0.03	-0.09
0.43																										2.25	1.50	1.75	2.00	2.25	2.00	0.00	2.50	3.25	3.00	2.75	2.25	3.50	3.00	0.50	0.75	-0.205566	0.109863	0.963867	-2.590000	-3.010000	2.450000	355.00	0.04	-0.09
0.44																										2.25	1.25	2.00	2.75	2.25	2.25	0.00	2.50	3.25	3.25	3.00	2.50	3.50	3.25	0.25	0.75	-0.208496	0.107422	0.961426	-2.520000	-3.150000	2.450000	373.00	0.04	-0.09
0.45																										2.25	1.50	2.00	2.75	2.25	2.25	0.00	2.50	3.25	3.25	3.00	2.25	3.50	3.25	0.25	0.75	-0.213867	0.107910	0.963867	-2.380000	-3.220000	2.450000	373.00	0.04	-0.09
0.46																										2.25	1.25	1.75	2.25	2.25	2.25	0.00	2.50	3.50	3.25	2.75	2.50	3.50	3.25	0.25	0.75	-0.208984	0.108887	0.962402	-2.520000	-3.150000	2.380000	366.00	0.05	-0.08
0.47																										2.50	1.50	2.00	2.75	2.50	2.25	0.00	2.50	3.50	3.25	2.75	2.50	3.25	3.00	0.25	0.75	-0.209473	0.105469	0.966309	-2.520000	-3.150000	2.450000	377.00	0.03	-0.08
0.48																										2.50	1.50	2.00	2.75	2.25	2.25	0.00	2.75	3.25	3.00	2.75	2.50	3.50	3.00	0.25	0.75	-0.213867	0.109863	0.968750	-2.520000	-3.220000	2.520000	375.00	0.03	-0.09
0.49																										2.00	1.25	1.75	2.75	2.25	2.25	0.00	2.50	3.25	3.25	2.75	2.50	3.50	3.00	0.25	0.75	-0.212402	0.108887	0.964844	-2.520000	-3.150000	2.380000	363.00	0.04	-0.09
0.50																										2.25	1.50	1.75	2.75	2.25	2.00	0.00	2.50	3.25	3.00	2.75	2.50	3.50	3.00	0.25	0.75	-0.208496	0.106445	0.961426	-2.520000	-3.150000	2.450000	363.00	0.04	-0.09
0.51																										2.25	1.50	2.00	2.50	2.25	2.25	0.00	2.50	3.50	3.25	2.75	2.25	3.25	3.00	0.25	0.75	-0.206543	0.108398	0.961914	-2.450000	-3.290000	2.450000	367.00	0.04	-0.08
0.52																										2.00	1.50	1.75	2.50	2.25	2.00	0.00	2.75	3.25	3.25	3.00	2.25	3.50	3.00	0.25	1.00	-0.211426	0.102539	0.961914	-2.520000	-3.150000	2.380000	365.00	0.04	-0.09
0.53																										2.25	1.50	2.00	2.75	2.25	2.25	0.00	2.75	3.50	3.50	2.75	2.25	3.00	3.00	0.25	0.75	-0.214844	0.106934	0.960938	-2.590000	-3.220000	2.450000	374.00	0.03	-0.08
0.54																										2.25	1.25	2.00	2.50	2.25	2.25	0.00	2.50	3.25	3.25	2.75	2.50	3.25	3.00	0.00	1.00	-0.208984	0.104980	0.955078	-2.590000	-3.220000	2.380000	362.00	0.04	-0.09
0.55																										2.25	1.50	2.00	2.75	2.25	2.00	0.00	2.50	3.25	3.25	3.00	2.25	3.25	3.25	0.25	1.00	-0.213867	0.110352	0.962891	-2.520000	-3.220000	2.520000	369.00	0.04	-0.08
0.56	1.50	1.25	2.50	2.00	1.75	1.50	0.50	1.00	1.75	2.00	2.75	4.25	3.75	4.75	0.25	0.75	-0.276367	0.110352	0.933594	-1.540000	6.440000	-1.330000	332.00	0.07	-0.09	2.00	1.25	2.00	2.25	2.25	2.25	0.00	2.75	3.25	3.25	2.75	2.50	3.25	3.00	0.50	1.00	-0.207520	0.106934	0.962891	-2.450000	-3.080000	2.450000	366.00	0.05	-0.09
0.57	1.75	1.00	2.25	1.75	2.00	1.25	0.50	1.00	1.75	2.00	2.75	4.25	3.75	4.75	0.00	0.75	-0.280762	0.105469	0.932617	-1.540000	6.440000	-1.260000	324.00	0.07	-0.08	2.25	1.25	1.75	2.75	2.25	2.25	0.00	2.50	3.50	3.25	2.50	2.50	3.50	3.25	0.25	0.75	-0.212891	0.110352	0.964355	-2.520000	-3.150000	2.450000	369.00	0.04	-0.08
0.58	1.50	1.25	2.25	1.75	1.75	1.50	0.50	1.00	2.00	1.75	3.25	4.25	3.75	4.50	0.25	0.75	-0.282227	0.102539	0.931641	-1.540000	6.510000	-1.260000	331.00	0.07	-0.09	2.50	1.50	1.75	2.50	2.25	2.25	0.00	2.75	3.50	3.50	3.00	2.50	3.50	3.25	0.50	0.75	-0.208496	0.104492	0.964844	-2.660000	-3.220000	2.380000	385.00	0.04	-0.09
0.59	1.75	1.25	2.50	1.75	1.75	1.50	0.50	1.00	1.50	2.00	2.75	4.00	3.75	4.75	0.25	0.75	-0.283691	0.104980	0.929688	-1.540000	6.510000	-1.260000	326.00	0.06	-0.08	2.25	1.25	2.00	2.50	2.25	2.25	0.00	2.75	3.25	3.25	2.75	2.50	3.50	3.00	0.25	0.75	-0.212891	0.104980	0.957520	-2.590000	-3.220000	2.450000	370.00	0.04	-0.09
0.60	1.75	1.25	2.25	2.25	1.75	1.50	0.50	1.00	1.50	2.00	3.00	4.25	3.75	4.50	0.25	0.75	-0.280762	0.105469	0.932617	-1.610000	6.510000	-1.260000	332.00	0.06	-0.09	2.25	1.50	2.00	2.75	2.25	2.25	0.00	2.75	3.25	3.25	3.00	2.25	3.00	3.25	0.25	0.75	-0.212402	0.109863	0.963867	-2.450000	-3.150000	2.520000	372.00	0.03	-0.08
0.61	1.50	1.25	2.50	1.75	1.75	1.50	0.50	0.75	1.75	2.00	2.75	4.25	3.75	4.50	0.25	1.00	-0.284668	0.109863	0.933105	-1.680000	6.510000	-1.260000	325.00	0.07	-0.08	2.25	1.50	2.25	3.00	2.25	2.25	0.00	2.50	3.00	3.50	2.75	2.50	3.25	3.00	0.25	1.00	-0.221191	0.106445	0.968262	-2.520000	-3.220000	2.520000	375.00	0.03	-0.09
0.62	1.75	1.00	2.50	2.00	1.50	1.50	0.25	1.00	1.75	2.00	3.00	4.25	3.75	4.75	0.25	0.75	-0.285645	0.107422	0.937012	-1.400000	6.300000	-1.190000	329.00	0.07	-0.09	2.25	1.50	2.00	2.50	2.25	2.25	0.00	2.75	3.25	3.25	3.00	2.25	3.50	3.00	0.50	0.75	-0.206543	0.102051	0.962891	-2.590000	-3.220000	2.520000	375.00	0.04	-0.09
0.63	1.50	1.25	2.25	1.50	1.75	1.50	0.50	1.00	1.75	2.00	3.00	4.25	3.75	4.50	0.50	0.75	-0.279785	0.107910	0.933594	-1.400000	6.300000	-1.400000	327.00	0.08	-0.09	2.25	1.50	1.75	2.50	2.25	2.25	0.00	2.50	3.00	3.50	3.00	2.50	3.25	3.00	0.25	1.00	-0.209473	0.104004	0.962402	-2.520000	-3.150000	2.520000	367.00	0.04	-0.09
0.64	1.50	1.00	2.50	2.00	1.75	1.25	0.50	1.00	1.75	2.00	2.75	4.25	3.75	4.50	0.50	1.00	-0.283203	0.111328	0.929688	-1.470000	6.440000	-1.400000	329.00	0.07	-0.09	2.25	1.50	1.75	2.75	2.25	2.25	0.00	2.50	3.25	3.25	2.75	2.50	3.50	3.25	0.50	1.00	-0.209473	0.108398	0.966797	-2.450000	-3.220000	2.450000	374.00	0.04	-0.09
0.65	1.50	1.00	2.25	2.00	1.75	1.50	0.50	1.00	1.75	2.00	2.75	4.25	3.75	4.50	0.50	0.75	-0.280273	0.106934	0.929688	-1.610000	6.370000	-1.260000	328.00	0.07	-0.09	2.50	1.75	2.00	2.75	2.25	2.25	0.00	2.50	3.25	3.25	2.75	2.50	3.50	3.00	0.25	0.75	-0.212891	0.111816	0.965820	-2.590000	-3.220000	2.380000	376.00	0.03	-0.09
0.66	1.50	1.25	2.25	2.00	1.75	1.50	0.50	0.75	1.75	1.75	2.75	4.25	3.75	4.50	0.25	0.75	-0.281250	0.105957	0.935059	-1.540000	6.300000	-1.260000	321.00	0.07	-0.09	2.25	1.25	1.75	2.00	2.25	2.25	0.00	2.75	3.25	3.25	2.75	2.75	3.50	3.25	0.25	0.75	-0.208008	0.109375	0.968750	-2.450000	-3.220000	2.380000	366.00	0.05	-0.09
0.67	1.75	1.00	2.25	1.75	1.75	1.25	0.50	1.00	1.75	2.00	3.00	4.25	3.75	4.75	0.25	0.75	-0.283691	0.105469	0.931152	-1.540000	6.370000	-1.260000	327.00	0.08	-0.08	2.25	1.50	2.00	2.75	2.50	2.25	0.00	2.50	3.50	3.00	2.75	2.50	3.25	3.25	0.25	1.00	-0.214355	0.106445	0.958008	-2.450000	-3.220000	2.380000	376.00	0.03	-0.08
0.68	1.75	1.00	2.25	2.00	1.75	1.50	0.50	1.00	1.75	2.00	2.75	4.00	3.75	4.50	0.25	0.75	-0.281738	0.110352	0.927246	-1.540000	6.510000	-1.260000	325.00	0.07	-0.08	2.00	1.25	2.00	2.75	2.25	2.25	0.00	2.50	3.50	3.50	2.75	2.25	3.50	3.25	0.25	0.75	-0.210449	0.105469	0.960449	-2.520000	-3.290000	2.450000	371.00	0.04	-0.08
0.69	1.50	1.00	2.25	1.75	1.75	1.50	0.50	1.00	2.00	2.00	2.75	4.50	3.75	5.00	0.25	0.75	-0.281738	0.106445	0.932129	-1.540000	6.440000	-1.260000	333.00	0.08	-0.08	2.00	1.50	2.00	2.25	2.25	2.50	0.00	2.75	3.25	3.00	3.00	2.50	3.25	3.00	0.50	0.75	-0.212402	0.112793	0.960938	-2.590000	-3.220000	2.380000	370.00	0.04	-0.09
0.70	1.75	1.25	2.25	1.75	1.75	1.50	0.50	0.75	1.75	2.00	2.75	4.00	4.00	4.50	0.25	0.50	-0.281738	0.107422	0.933105	-1.540000	6.510000	-1.260000	322.00	0.07	-0.08	2.50	1.50	1.75	3.00	2.25	2.25	0.00	2.75	3.25	3.25	3.00	2.50	3.25	3.00	0.25	0.75	-0.211914	0.102539	0.969727	-2.520000	-3.290000	2.380000	378.00	0.03	-0.09
0.71	1.50	1.00	2.25	1.50	1.75	1.50	0.50	1.00	1.75	2.25	2.75	4.25	3.75	4.50	0.25	0.75	-0.280762	0.104004	0.932617	-1.540000	6.300000	-1.260000	322.00	0.08	-0.08	2.00	1.50	2.00	3.00	2.25	2.25	0.00	2.50	3.00	3.25	2.75	2.25	3.75	3.00	0.25	0.75	-0.210449	0.104492	0.963867	-2.520000	-3.150000	2.450000	367.00	0.03	-0.10
0.72	1.75	1.00	2.25	1.75	1.75	1.50	0.50	1.00	1.75	2.00	3.00	4.25	3.50	4.75	0.25	0.75	-0.282715	0.108398	0.928711	-1.610000	6.440000	-1.400000	327.00	0.07	-0.08	2.00	1.25	1.75	2.75	2.25	2.25	0.00	2.50	3.50	3.25	3.00	2.25	3.50	3.00	0.25	0.75	-0.206055	0.108887	0.960938	-2.450000	-3.220000	2.520000	366.00	0.04	-0.09
0.73	2.00	1.00	2.25	1.50	1.75	1.50	0.50	1.00	1.75	2.00	2.75	4.25	3.75	4.50	0.25	0.75	-0.277344	0.110840	0.928223	-1.540000	6.510000	-1.330000	325.00	0.07	-0.08	2.25	2.00	2.00	2.50	2.25	2.50	0.00	2.50	3.00	3.00	2.75	2.50	3.25	3.00	0.25	1.00	-0.213379	0.110352	0.962891	-2.450000	-3.150000	2.450000	369.00	0.03	-0.09
0.74	1.75	1.25	2.50	1.75	1.75	1.50	0.50	1.00	2.00	2.00	2.75	4.25	3.75	4.50	0.50	0.75	-0.276855	0.109863	0.926270	-1.540000	6.580000	-1.400000	336.00	0.07	-0.08	2.50	1.50	1.75	2.75	2.25	2.25	0.00	2.75	3.00	3.25	2.75	2.50	3.25	3.00	0.25	0.75	-0.211914	0.106445	0.961426	-2.520000	-3.080000	2.520000	369.00	0.03	-0.09
0.75	1.75	1.00	2.50	2.25	1.75	1.50	0.50	1.00	1.75	1.75	3.00	4.00	3.75	4.50	0.00	0.75	-0.276855	0.104980	0.926270	-1.610000	6.440000	-1.470000	328.00	0.06	-0.09	2.25	1.50	1.75	2.75	2.25	2.25	0.00	2.50	3.25	3.50	3.00	2.25	3.50	3.25	0.25	1.00	-0.212891	0.104004	0.963867	-2.450000	-3.080000	2.450000	374.00	0.04	-0.09
0.76	1.75	1.00	2.25	1.50	1.75	1.50	0.50	1.00	1.75	2.00	3.00	4.25	3.75	4.50	0.25	0.75	-0.279785	0.113281	0.936523	-1.540000	6.370000	-1.260000	325.00	0.07	-0.08	2.25	1.50	1.50	2.75	2.25	2.00	0.00	2.50	3.25	3.50	2.75	2.75	3.25	3.00	0.25	1.00	-0.213867	0.101074	0.961914	-2.450000	-3.080000	2.380000	367.00	0.04	-0.09
0.77	1.75	1.00	2.00	1.75	1.75	1.25	0.50	0.75	1.75	2.00	2.75	4.25	3.50	4.75	0.25	0.75	-0.280762	0.108398	0.931641	-1.540000	6.370000	-1.400000	316.00	0.08	-0.08	2.50	1.50	1.75	2.50	2.25	2.25	0.00	2.75	3.25	3.25	2.75	2.50	3.75	3.25	0.25	0.75	-0.211426	0.104004	0.963867	-2.450000	-3.080000	2.450000	376.00	0.04	-0.09
0.78	1.50	1.00	2.50	1.75	1.75	1.25	0.50	0.75	2.00	2.00	2.75	4.25	3.75	3.75	0.50	0.75	-0.283691	0.104004	0.930664	-1.610000	6.230000	-1.400000	318.00	0.07	-0.08	2.25	1.50	1.75	2.75	2.25	2.25	0.00	2.75	3.25	3.25	2.75	2.50	3.25	3.00	0.25	0.75	-0.211914	0.106934	0.964355	-2.520000	-3.010000	2.450000	370.00	0.03	-0.09
0.79	1.50	1.50	2.50	1.75	1.75	1.25	0.50	0.75	1.75	2.00	3.00	4.25	3.75	4.50	0.25	0.75	-0.279297	0.105469	0.932617	-1.470000	6.300000	-1.260000	326.00	0.07	-0.08	2.25	1.50	2.00	2.50	2.25	2.25	0.00	2.50	3.25	3.25	3.00	2.50	3.50	3.00	0.50	1.00	-0.211426	0.106445	0.963867	-2.520000	-3.080000	2.380000	375.00	0.04	-0.09
0.80	1.75	0.25	2.50	1.75	1.50	1.50	0.50	1.00	1.75	2.00	2.75	4.25	3.75	4.50	0.25	0.75	-0.282715	0.108887	0.930664	-1.400000	6.300000	-1.400000	318.00	0.08	-0.08	2.25	1.00	1.75	2.75	2.25	2.25	0.00	2.50	3.25	3.50	2.75	2.50	3.50	3.25	0.25	0.75	-0.209473	0.103027	0.965332	-2.590000	-3.290000	2.520000	368.00	0.04	-0.09
0.81	1.75	1.00	2.50	2.00	1.75	1.50	0.50	1.00	1.75	1.75	3.00	4.25	3.75	4.50	0.25	0.75	-0.278809	0.106445	0.936523	-1.540000	6.580000	-1.330000	330.00	0.06	-0.09	2.25	1.50	1.75	2.50	2.50	2.25	0.00	2.50	3.25	3.25	2.75	2.25	3.50	3.25	0.25	0.75	-0.206543	0.107910	0.962891	-2.520000	-3.220000	2.520000	368.00	0.04	-0.08
0.82	1.75	1.25	2.50	1.75	1.75	1.25	0.50	1.00	2.00	2.00	2.75	4.25	3.75	4.50	0.00	0.50	-0.278809	0.104980	0.933105	-1.680000	6.580000	-1.400000	327.00	0.06	-0.08	2.25	1.50	2.00	2.75	2.25	2.25	0.00	2.50	3.25	3.50	2.75	2.50	3.25	3.25	0.50	0.75	-0.213867	0.105957	0.965820	-2.520000	-3.220000	2.450000	376.00	0.04	-0.08
0.83	1.50	1.00	2.50	1.75	1.75	1.50	0.50	0.75	1.75	2.00	3.00	4.25	3.75	4.25	0.25	0.75	-0.281250	0.106445	0.932617	-1.680000	6.650000	-1.470000	322.00	0.07	-0.08	2.00	1.25	2.00	2.50	2.25	2.50	0.00	2.50	3.25	3.25	2.50	2.50	3.25	3.00	0.25	1.00	-0.208984	0.104492	0.961426	-2.590000	-3.290000	2.450000	363.00	0.04	-0.09
0.84	1.50	0.75	2.50	1.75	1.75	1.50	0.25	0.75	1.50	2.00	3.00	4.25	3.75	4.75	0.25	0.50	-0.280762	0.106934	0.930664	-1.750000	6.580000	-1.330000	315.00	0.08	-0.09	2.25	1.75	2.00	2.50	2.50	2.25	0.00	2.50	3.00	3.00	2.75	2.25	3.25	3.25	0.25	1.00	-0.205078	0.108887	0.960938	-2.520000	-3.150000	2.450000	366.00	0.03	-0.09
0.85	1.50	1.00	2.00	2.00	1.75	1.50	0.50	0.75	1.75	2.00	2.50	4.25	3.75	4.50	0.25	0.75	-0.280273	0.111816	0.929688	-1.680000	6.580000	-1.330000	316.00	0.07	-0.09	2.25	1.75	2.00	2.75	2.25	2.25	0.00	2.50	3.00	3.25	2.75	2.25	3.50	3.00	0.25	0.75	-0.213379	0.099121	0.966309	-2.450000	-3.150000	2.380000	367.00	0.03	-0.09
0.86	1.50	0.75	2.25	1.75	1.75	1.50	0.50	1.00	1.75	2.00	2.75	4.00	3.75	4.50	0.25	0.75	-0.281738	0.107910	0.933105	-1.470000	6.510000	-1.330000	317.00	0.08	-0.08	2.25	1.50	2.00	2.75	2.25	2.25	0.00	2.75	3.25	3.25	2.75	2.50	3.25	3.00	0.25	0.75	-0.210938	0.104004	0.965820	-2.520000	-3.150000	2.450000	373.00	0.03	-0.09
0.87	1.75	1.00	2.25	2.00	1.75	1.50	0.50	1.00	1.50	2.00	2.50	4.00	3.75	4.50	0.25	0.75	-0.280273	0.112305	0.927246	-1.680000	6.860000	-1.400000	319.00	0.06	-0.09	2.25	1.25	2.00	2.75	2.25	2.25	0.00	2.50	3.00	3.00	2.75	2.75	3.50	3.50	0.25	1.00	-0.203125	0.102539	0.961914	-2.450000	-3.080000	2.520000	371.00	0.04	-0.09
0.88	1.50	1.00	2.50	2.00	1.75	1.50	0.50	0.75	1.75	2.00	2.75	4.25	3.75	4.50	0.25	0.75	-0.284180	0.107422	0.928223	-1.610000	6.650000	-1.400000	324.00	0.07	-0.08	2.25	1.50	1.75	2.75	2.25	2.25	0.00	2.50	3.25	3.00	2.50	2.50	3.25	3.25	0.25	0.75	-0.210938	0.104980	0.964844	-2.380000	-3.080000	2.450000	363.00	0.03	-0.09
0.89	1.75	1.00	2.25	1.75	1.50	1.50	0.50	0.75	1.50	2.00	2.75	4.25	3.75	4.75	0.25	0.75	-0.281738	0.106934	0.937012	-1.610000	6.720000	-1.400000	317.00	0.07	-0.08	2.25	1.50	2.00	3.00	2.25	2.25	0.00	2.50	3.00	3.25	2.75	2.25	3.25	3.00	0.25	0.75	-0.217285	0.105957	0.965332	-2.520000	-3.010000	2.450000	366.00	0.03	-0.09
0.90	1.75	0.75	2.50	1.75	1.75	1.50	0.50	1.00	1.75	1.75	2.75	4.25	3.75	4.50	0.25	0.75	-0.279297	0.110840	0.930176	-1.680000	6.580000	-1.330000	323.00	0.07	-0.08	2.25	1.50	2.00	2.75	2.25	2.50	0.00	2.75	3.00	3.25	2.75	2.25	3.50	3.25	0.25	0.75	-0.208008	0.106934	0.960938	-2.520000	-3.220000	2.520000	374.00	0.03	-0.09
0.91	1.50	1.25	2.25	1.75	1.75	1.25	0.50	0.75	1.75	1.50	2.75	4.00	3.75	4.75	0.25	0.75	-0.276367	0.107910	0.936523	-1.680000	6.510000	-1.330000	312.00	0.07	-0.08	2.25	1.75	1.75	2.75	2.25	2.50	0.00	2.75	3.00	3.00	2.75	2.25	3.25	3.00	0.25	0.75	-0.213867	0.110352	0.967773	-2.450000	-3.150000	2.450000	366.00	0.02	-0.10
0.92	1.50	1.00	2.50	2.00	1.75	1.25	0.50	1.00	1.75	1.75	2.75	4.25	3.75	4.75	0.25	0.75	-0.278809	0.107422	0.932129	-1.750000	6.440000	-1.400000	325.00	0.07	-0.08	2.25	1.50	2.00	2.75	2.25	2.25	0.00	2.50	3.25	3.00	2.75	2.25	3.50	3.00	0.25	1.00	-0.213379	0.102539	0.961914	-2.380000	-3.150000	2.450000	367.00	0.03	-0.09
0.93	1.75	1.00	2.25	2.00	1.75	1.50	0.50	0.75	1.50	2.00	2.75	4.00	3.75	4.50	0.25	0.75	-0.281738	0.109375	0.928223	-1.750000	6.440000	-1.330000	318.00	0.06	-0.08	2.50	1.50	2.00	2.25	2.25	2.25	0.00	2.75	3.25	3.25	2.75	2.25	3.25	3.25	0.00	0.75	-0.208984	0.105957	0.960938	-2.380000	-3.080000	2.450000	367.00	0.03	-0.08
0.94	1.50	1.00	2.25	2.00	1.75	1.50	0.50	1.00	1.75	1.75	2.75	4.00	3.50	4.25	0.25	0.75	-0.282715	0.109375	0.935547	-1.680000	6.370000	-1.330000	316.00	0.07	-0.09	2.25	1.75	2.00	2.75	2.25	2.25	0.00	2.75	3.25	3.25	2.75	2.25	3.25	3.25	0.50	0.75	-0.207520	0.106445	0.966309	-2.450000	-3.150000	2.380000	377.00	0.03	-0.09
0.95	1.75	0.75	2.50	2.00	1.75	1.75	0.50	1.00	1.75	1.75	2.75	4.00	3.75	4.50	0.25	0.75	-0.284180	0.105957	0.934082	-1.750000	6.230000	-1.330000	326.00	0.06	-0.09	2.00	1.50	2.00	3.00	2.25	2.25	0.00	2.50	3.00	3.00	2.75	2.50	3.50	3.00	0.25	0.75	-0.208984	0.108887	0.963379	-2.520000	-3.220000	2.310000	365.00	0.03	-0.10
0.96	1.50	1.00	2.25	1.75	1.75	1.50	0.50	0.75	1.50	2.00	2.75	3.75	3.50	4.25	0.25	0.75	-0.281738	0.108398	0.931641	-1.680000	6.160000	-1.330000	306.00	0.07	-0.08	2.50	1.50	2.00	3.00	2.25	2.50	0.00	2.50	3.00	3.00	2.75	2.50	3.00	2.75	0.25	0.75	-0.212891	0.105957	0.959961	-2.520000	-3.150000	2.450000	367.00	0.02	-0.09
0.97	1.75	1.25	2.50	1.75	1.75	1.50	0.50	1.00	1.50	1.75	2.50	4.00	3.75	4.50	0.25	0.75	-0.284668	0.108887	0.933105	-1.680000	6.020000	-1.330000	319.00	0.06	-0.09	2.50	1.50	2.00	3.00	2.50	2.25	0.00	2.75	3.25	3.00	2.75	2.25	3.25	3.00	0.00	0.75	-0.208496	0.111328	0.958496	-2.590000	-3.360000	2.520000	373.00	0.02	-0.09
0.98	1.75	0.75	2.25	1.75	1.75	1.50	0.50	0.75	1.50	2.00	2.75	4.00	3.75	4.50	0.00	0.75	-0.280762	0.104004	0.932129	-1.680000	6.090000	-1.400000	310.00	0.07	-0.08	2.25	1.75	2.00	2.50	2.50	2.50	0.00	2.75	3.00	3.25	2.75	2.25	3.25	3.00	0.25	0.75	-0.207520	0.110352	0.959961	-2.590000	-3.290000	2.520000	372.00	0.03	-0.09
0.99	1.75	1.25	2.50	2.00	1.75	1.50	0.50	0.75	1.50	2.00	2.75	4.00	3.50	4.75	0.25	0.75	-0.283203	0.110352	0.936035	-1.680000	6.160000	-1.330000	323.00	0.06	-0.08	2.25	1.50	2.00	2.75	2.50	2.25	0.00	2.50	3.25	3.00	2.75	2.25	3.25	2.75	0.25	0.75	-0.211426	0.105957	0.960449	-2.590000	-3.290000	2.450000	364.00	0.03	-0.09
1.00	1.75	1.00	2.50	1.75	1.75	1.25	0.50	1.00	1.75	2.00	2.75	3.75	3.50	4.00	0.25	0.75	-0.278320	0.107422	0.931152	-1.610000	6.300000	-1.400000	313.00	0.06	-0.08	2.25	1.50	2.00	3.00	2.25	2.25	0.00	2.50	3.25	3.25	2.50	2.25	3.50	3.00	0.25	0.75	-0.208496	0.106445	0.961426	-2.590000	-3.220000	2.450000	368.00	0.03	-0.09
1.01	1.75	1.25	2.25	1.75	1.75	1.50	0.50	1.00	1.75	2.00	2.75	4.00	3.50	4.75	0.00	0.50	-0.278809	0.110352	0.935547	-1.610000	6.230000	-1.330000	321.00	0.06	-0.08	2.25	1.50	2.00	3.25	2.25	2.25	0.00	2.75	3.25	3.00	2.75	2.25	3.50	3.25	0.25	1.00	-0.207520	0.104492	0.958984	-2.590000	-3.220000	2.450000	378.00	0.03	-0.09
1.02	1.75	1.00	2.25	1.75	1.75	1.50	0.50	1.00	1.75	2.00	2.75	4.00	3.50	4.25	0.25	0.75	-0.279785	0.112305	0.934082	-1.610000	6.440000	-1.400000	318.00	0.07	-0.08	2.50	1.50	2.00	2.75	2.50	2.25	0.00	2.75	3.00	3.00	2.75	2.25	3.50	3.00	0.50	1.00	-0.208008	0.105469	0.966797	-2.590000	-3.290000	2.520000	376.00	0.03	-0.09
1.03	1.50	1.25	2.50	1.75	1.75	1.50	0.50	1.00	1.75	2.00	2.50	3.75	3.50	4.25	0.25	0.75	-0.280273	0.107422	0.932617	-1.540000	6.230000	-1.190000	315.00	0.06	-0.08	2.25	1.50	2.25	2.75	2.25	2.50	0.00	2.50	3.00	3.00	2.50	2.25	3.50	3.25	0.25	1.00	-0.215820	0.106445	0.958984	-2.590000	-3.220000	2.450000	369.00	0.03	-0.09
1.04	1.75	1.00	2.50	1.75	1.75	1.25	0.50	0.75	1.50	1.75	2.50	4.00	3.50	4.25	0.25	0.75	-0.281250	0.107422	0.933105	-1.470000	6.090000	-1.190000	306.00	0.06	-0.08	2.25	1.50	2.00	2.75	2.50	2.25	0.00	2.50	3.00	3.25	2.50	2.50	3.50	3.00	0.25	0.75	-0.211426	0.105469	0.962402	-2.520000	-3.150000	2.450000	368.00	0.03	-0.09
1.05	1.50	1.00	2.25	2.00	1.75	1.50	0.50	0.75	1.50	1.75	2.50	4.00	3.50	4.50	0.25	0.75	-0.281250	0.106934	0.930176	-1.400000	6.230000	-1.260000	308.00	0.07	-0.08	2.50	1.75	2.00	2.75	2.50	2.50	0.00	2.75	3.25	3.00	2.50	2.25	3.25	3.25	0.25	0.75	-0.209473	0.104004	0.965332	-2.660000	-3.290000	2.450000	377.00	0.02	-0.09
1.06	1.75	1.00	2.25	2.00	1.75	1.50	0.50	1.00	1.75	1.50	2.75	3.75	3.50	4.50	0.25	0.75	-0.281250	0.107422	0.928223	-1.540000	6.440000	-1.260000	315.00	0.06	-0.08	2.25	1.75	2.00	3.00	2.25	2.25	0.00	2.50	3.00	3.00	2.75	2.25	3.25	3.25	0.25	0.75	-0.209961	0.102051	0.963867	-2.520000	-3.220000	2.380000	367.00	0.02	-0.09
1.07	1.50	1.00	2.50	2.00	1.75	1.50	0.50	0.75	1.50	1.75	2.50	3.75	3.75	4.25	0.25	0.75	-0.285156	0.107422	0.933594	-1.680000	6.370000	-1.260000	308.00	0.06	-0.09	2.50	1.50	2.00	2.50	2.50	2.25	0.00	2.50	3.00	3.25	2.75	2.50	3.25	3.00	0.25	0.75	-0.204590	0.103027	0.960449	-2.450000	-3.150000	2.450000	368.00	0.03	-0.09
1.08	1.50	0.75	2.50	2.00	1.75	1.25	0.50	0.75	1.75	2.00	2.50	4.00	3.50	4.25	0.25	0.50	-0.280273	0.108887	0.930176	-1.400000	6.230000	-1.190000	308.00	0.07	-0.08	2.25	1.25	2.00	3.00	2.50	2.50	0.00	2.50	2.75	3.00	2.75	2.50	3.25	3.00	0.25	0.75	-0.210938	0.104004	0.961914	-2.520000	-3.220000	2.380000	366.00	0.02	-0.09
1.09	1.75	1.25	2.50	2.00	1.75	1.50	0.25	1.00	1.75	1.75	2.25	4.00	3.50	4.25	0.25	0.75	-0.281250	0.105469	0.932129	-1.400000	6.160000	-1.260000	314.00	0.05	-0.09	2.50	1.50	2.00	2.75	2.25	2.25	0.00	2.50	3.00	3.00	2.75	2.50	3.25	3.25	0.25	0.75	-0.210938	0.104004	0.961914	-2.520000	-3.220000	2.380000	368.00	0.03	-0.09
1.10	1.75	1.25	2.50	1.75	1.75	1.50	0.50	0.75	1.50	1.75	2.50	4.00	3.50	4.50	0.25	0.75	-0.283203	0.110352	0.934570	-1.400000	6.300000	-1.260000	313.00	0.06	-0.08	2.25	1.50	2.25	2.75	2.25	2.25	0.00	2.50	3.00	3.00	2.50	2.25	3.25	3.00	0.25	0.75	-0.206543	0.101074	0.964844	-2.520000	-3.220000	2.450000	360.00	0.02	-0.09
1.11	1.75	1.25	2.25	2.00	1.50	1.25	0.50	0.75	1.75	1.75	2.50	4.00	3.50	4.25	0.25	0.75	-0.274902	0.111816	0.932617	-1.540000	6.440000	-1.400000	309.00	0.06	-0.08	2.50	1.75	2.00	2.75	2.50	2.50	0.00	2.75	3.00	3.00	2.50	2.25	3.25	3.00	0.25	0.75	-0.208984	0.104492	0.960449	-2.520000	-3.150000	2.380000	372.00	0.02	-0.09
1.12	1.50	0.75	2.50	2.00	1.75	1.50	0.50	0.75	1.50	1.75	2.50	4.00	3.50	4.50	0.25	0.75	-0.280762	0.104004	0.931641	-1.610000	6.650000	-1.400000	308.00	0.07	-0.08	2.25	1.75	1.75	2.75	2.50	2.50	0.00	2.75	3.25	3.25	2.75	2.25	3.25	3.00	0.25	0.75	-0.206543	0.105957	0.961426	-2.450000	-3.150000	2.450000	375.00	0.03	-0.09
1.13	1.75	1.25	2.50	1.75	1.50	1.50	0.50	0.75	1.50	1.75	2.25	4.00	3.50	4.50	0.25	0.75	-0.280762	0.105469	0.933594	-1.680000	6.650000	-1.330000	308.00	0.06	-0.08	2.25	1.50	2.25	3.00	2.50	2.50	0.00	2.75	3.00	3.00	2.75	2.25	3.50	3.00	0.25	0.75	-0.209961	0.104492	0.962402	-2.450000	-3.010000	2.520000	377.00	0.02	-0.09
1.14	1.75	1.00	2.50	2.00	1.75	1.25	0.50	0.75	1.50	1.50	2.50	3.50	3.75	4.50	0.00	0.75	-0.281250	0.105469	0.930176	-1.680000	6.580000	-1.260000	302.00	0.05	-0.08	2.50	1.75	2.00	3.00	2.25	2.25	0.00	2.75	3.25	3.25	2.75	2.50	3.25	3.00	0.25	0.75	-0.207520	0.109375	0.961426	-2.450000	-3.080000	2.380000	380.00	0.02	-0.09
1.15	2.00	1.25	2.50	2.25	1.75	1.50	0.50	1.00	1.75	1.75	2.50	3.75	3.25	4.25	0.25	0.75	-0.282227	0.105957	0.934082	-1.540000	6.370000	-1.190000	321.00	0.05	-0.08	2.50	1.50	2.00	3.00	2.25	2.50	0.00	2.50	3.00	3.00	2.50	2.25	3.25	2.75	0.25	0.75	-0.209473	0.105469	0.962402	-2.450000	-3.150000	2.380000	364.00	0.02	-0.09
1.16	1.75	1.50	2.50	1.75	1.75	1.50	0.50	0.75	1.75	1.75	2.50	3.75	3.50	4.25	0.25	0.75	-0.280762	0.105469	0.924805	-1.540000	6.510000	-1.400000	314.00	0.05	-0.08	2.50	1.75	2.25	2.75	2.25	2.25	0.00	2.50	2.75	3.00	2.50	2.00	3.00	3.00	0.25	0.75	-0.210938	0.111816	0.958984	-2.380000	-3.220000	2.520000	357.00	0.01	-0.09
1.17	2.00	1.00	2.50	2.25	1.75	1.50	0.50	1.00	1.50	1.75	2.25	3.75	3.75	4.50	0.00	0.75	-0.285156	0.106934	0.933105	-1.610000	6.650000	-1.330000	317.00	0.05	-0.09	2.50	1.50	2.00	2.50	2.50	2.50	0.00	2.50	3.00	3.00	2.50	2.00	3.00	3.00	0.25	0.75	-0.210938	0.105469	0.955566	-2.450000	-3.150000	2.520000	358.00	0.02	-0.08
1.18	1.75	0.75	2.50	1.75	1.75	1.50	0.50	0.75	1.25	2.00	2.25	4.00	3.50	4.50	0.25	0.75	-0.283203	0.105957	0.934570	-1.540000	6.580000	-1.260000	305.00	0.06	-0.08	2.25	2.00	2.25	2.75	2.25	2.50	0.00	2.50	2.75	3.00	2.75	2.25	3.50	2.75	0.25	0.75	-0.214355	0.110840	0.960449	-2.520000	-3.290000	2.380000	367.00	0.01	-0.10
1.19	1.75	1.25	2.50	1.75	1.75	1.25	0.50	0.75	1.50	1.75	2.50	3.75	3.50	4.25	0.25	0.75	-0.279297	0.105469	0.932129	-1.540000	6.510000	-1.190000	305.00	0.06	-0.08	2.25	1.50	2.00	2.75	2.25	2.50	0.00	2.75	3.00	3.00	2.75	2.50	3.50	3.25	0.00	0.75	-0.212891	0.105469	0.960449	-2.520000	-3.220000	2.450000	371.00	0.03	-0.10
1.20	1.75	1.25	2.50	2.25	1.75	2.00	0.50	0.75	1.50	1.75	2.50	3.50	3.50	4.25	0.25	0.75	-0.281250	0.107422	0.930176	-1.610000	6.370000	-1.190000	316.00	0.04	-0.08	2.50	1.75	2.25	2.75	2.50	2.25	0.00	2.75	3.00	3.00	2.50	2.25	3.25	3.00	0.25	0.75	-0.209961	0.106445	0.961426	-2.520000	-3.220000	2.520000	372.00	0.02	-0.09
1.21	1.75	1.00	2.50	2.00	1.75	1.50	0.50	0.75	1.25	2.00	2.50	3.75	3.50	4.25	0.25	0.75	-0.279785	0.109863	0.933105	-1.540000	6.510000	-1.190000	308.00	0.05	-0.08	2.25	1.50	2.00	3.00	2.50	2.50	0.00	2.50	2.75	3.00	2.50	2.25	3.50	3.00	0.25	0.75	-0.208984	0.105469	0.965332	-2.520000	-3.150000	2.520000	365.00	0.02	-0.10
1.22	2.00	1.25	2.25	2.00	1.75	1.50	0.50	0.75	1.50	1.75	2.50	4.00	3.25	4.00	0.25	0.50	-0.287598	0.108398	0.938477	-1.540000	6.510000	-1.190000	308.00	0.05	-0.08	2.50	1.50	1.75	2.75	2.25	2.25	0.00	2.75	3.00	3.00	2.75	2.25	3.00	2.75	0.25	0.75	-0.212891	0.107422	0.965820	-2.520000	-3.220000	2.520000	360.00	0.02	-0.09
1.23	1.75	1.25	2.50	2.00	1.75	1.50	0.50	0.75	1.25	1.75	2.25	4.00	3.25	4.25	0.25	0.75	-0.280762	0.105957	0.931152	-1.540000	6.440000	-1.120000	305.00	0.05	-0.08	2.50	1.50	2.00	3.25	2.50	2.75	0.00	2.50	3.00	3.00	2.75	2.00	3.00	3.00	0.25	0.75	-0.205078	0.100586	0.969238	-2.520000	-3.150000	2.380000	372.00	0.01	-0.09
1.24	1.75	1.00	2.75	2.25	1.75	1.50	0.50	0.75	1.25	1.75	2.25	3.75	3.50	4.00	0.25	0.50	-0.279297	0.107910	0.926270	-1.540000	6.580000	-1.260000	305.00	0.04	-0.09	2.50	1.75	2.00	2.75	2.50	2.25	0.00	2.50	2.75	3.00	2.75	2.25	3.00	3.00	0.25	0.75	-0.208984	0.104492	0.959473	-2.520000	-3.150000	2.590000	362.00	0.02	-0.09
1.25	2.00	1.25	2.50	2.00	1.75	1.50	0.50	1.00	1.25	1.75	2.50	3.75	3.50	4.00	0.25	0.50	-0.281250	0.106445	0.937988	-1.610000	6.860000	-1.470000	310.00	0.04	-0.09	2.50	1.25	2.00	3.00	2.25	2.50	0.00	2.50	3.00	3.00	2.75	2.25	3.50	3.00	0.25	1.00	-0.205566	0.103027	0.959961	-2.450000	-3.150000	2.590000	370.00	0.03	-0.09
1.26	2.00	1.00	2.25	2.25	1.75	1.25	0.25	0.75	1.25	1.75	2.25	3.75	3.25	4.00	0.00	0.50	-0.278320	0.106934	0.929688	-1.610000	6.650000	-1.330000	290.00	0.04	-0.09	2.50	1.75	2.00	3.25	2.50	2.50	0.00	2.50	2.75	3.00	2.25	2.25	3.25	3.00	0.25	0.50	-0.208008	0.104980	0.962891	-2.520000	-3.290000	2.590000	366.00	0.01	-0.09
1.27	2.00	1.00	2.50	2.25	1.75	1.50	0.50	0.75	1.50	1.50	2.25	3.75	3.50	4.25	0.00	0.50	-0.282227	0.110352	0.932617	-1.470000	6.440000	-1.260000	305.00	0.04	-0.08	2.50	1.50	2.00	3.00	2.50	2.50	0.00	2.75	3.00	2.75	2.50	2.00	3.50	3.00	0.25	0.75	-0.214355	0.104492	0.968750	-2.450000	-3.150000	2.520000	369.00	0.02	-0.09
1.28	2.00	1.00	2.50	2.00	1.50	1.50	0.50	0.75	1.75	1.50	2.50	3.75	3.50	4.25	0.00	0.50	-0.282227	0.106445	0.933594	-1.540000	6.510000	-1.330000	305.00	0.05	-0.08	2.50	1.75	2.25	3.00	2.50	2.50	0.00	2.50	2.75	2.75	2.50	2.00	3.25	3.00	0.50	0.75	-0.210449	0.106445	0.960938	-2.520000	-3.080000	2.450000	368.00	0.01	-0.09
1.29	1.75	1.50	2.75	2.00	1.75	1.25	0.50	0.75	1.50	1.75	2.25	3.50	3.25	4.00	0.00	0.75	-0.281738	0.113770	0.930664	-1.680000	6.650000	-1.400000	301.00	0.04	-0.08	2.75	1.75	2.25	3.00	2.25	2.75	0.00	2.50	2.75	3.00	2.75	2.25	3.25	2.75	0.25	0.75	-0.207520	0.104492	0.961426	-2.450000	-3.150000	2.520000	373.00	0.01	-0.09
1.30	2.00	1.25	2.50	2.00	1.75	1.75	0.50	0.75	1.50	1.50	2.25	3.50	3.25	4.00	0.50	0.75	-0.281250	0.104980	0.934570	-1.750000	6.580000	-1.470000	307.00	0.04	-0.08	2.75	2.00	2.25	3.25	2.50	2.50	0.00	2.50	3.00	3.00	2.50	2.00	3.50	2.75	0.25	0.75	-0.211426	0.106934	0.963379	-2.520000	-3.220000	2.520000	379.00	0.00	-0.09
1.31	2.00	1.00	2.75	1.75	1.75	1.50	0.50	0.75	1.25	1.75	2.25	3.50	3.25	4.25	0.00	0.50	-0.280273	0.102051	0.936035	-1.680000	6.650000	-1.330000	297.00	0.04	-0.07	2.50	1.75	2.50	3.00	2.25	2.50	0.00	2.75	2.75	3.00	2.50	2.25	3.25	3.00	0.25	0.75	-0.208496	0.108887	0.963379	-2.520000	-3.220000	2.520000	374.00	0.01	-0.09
1.32	2.00	1.25	2.50	2.00	1.75	1.50	0.50	0.75	1.25	1.50	2.25	3.50	3.25	4.00	0.25	0.75	-0.285645	0.106934	0.929688	-1.540000	6.510000	-1.330000	298.00	0.04	-0.08	2.75	1.75	2.25	3.50	2.25	2.50	0.00	2.50	3.00	3.00	2.25	2.25	3.50	3.00	0.25	0.75	-0.209473	0.105957	0.966309	-2.450000	-3.290000	2.450000	378.00	0.01	-0.09
1.33	2.00	1.25	2.50	2.00	1.75	1.50	0.50	0.75	1.50	1.50	2.25	3.50	3.50	4.00	0.25	0.50	-0.286621	0.106934	0.931152	-1.610000	6.510000	-1.260000	302.00	0.04	-0.08	2.75	1.50	2.25	3.00	2.50	2.25	0.00	2.75	2.75	2.75	2.50	2.25	3.25	3.00	0.25	0.75	-0.208496	0.111328	0.965820	-2.450000	-3.150000	2.520000	369.00	0.01	-0.09
1.34	2.00	1.25	2.75	2.25	2.00	1.25	0.50	0.75	1.50	2.00	2.25	3.75	3.25	4.00	0.25	0.75	-0.281250	0.105957	0.934570	-1.610000	6.510000	-1.260000	315.00	0.04	-0.08	2.75	2.00	2.25	3.25	2.50	2.50	0.00	2.50	3.00	3.00	2.25	2.25	3.25	3.00	0.25	0.75	-0.206055	0.108398	0.964844	-2.520000	-3.290000	2.380000	379.00	0.00	-0.09
1.35	2.00	1.25	2.50	2.25	1.75	1.50	0.50	1.00	1.50	1.75	2.25	3.50	3.25	4.50	0.25	0.50	-0.284668	0.105957	0.933105	-1.610000	6.580000	-1.330000	313.00	0.04	-0.08	2.50	2.25	2.50	3.00	2.50	2.50	0.00	2.50	2.75	2.75	2.50	2.00	3.25	2.75	0.25	0.75	-0.208008	0.110352	0.965820	-2.450000	-3.150000	2.450000	370.00	-0.00	-0.09
1.36	2.00	0.75	2.50	2.25	1.50	1.50	0.50	0.75	1.25	1.75	2.25	3.50	3.25	4.25	0.25	0.75	-0.286133	0.110840	0.933594	-1.610000	6.300000	-1.260000	298.00	0.05	-0.08	2.75	2.00	2.25	3.25	2.50	2.50	0.00	2.50	2.75	2.75	2.25	2.25	3.00	3.00	0.25	0.75	-0.210449	0.106445	0.961914	-2.450000	-3.010000	2.380000	370.00	-0.00	-0.09
1.37	2.00	1.00	2.50	2.00	1.75	1.50	0.50	0.75	1.25	1.50	2.25	3.75	3.25	4.25	0.00	0.50	-0.286133	0.110840	0.933594	-1.610000	6.300000	-1.260000	297.00	0.04	-0.08	2.50	1.75	2.25	3.25	2.50	2.50	0.00	2.50	3.00	2.50	2.50	2.00	3.25	3.00	0.25	0.75	-0.214355	0.105957	0.959473	-2.380000	-3.080000	2.520000	368.00	0.01	-0.09
1.38	2.00	1.50	2.75	2.25	2.00	1.25	0.50	1.00	1.25	1.75	2.25	3.50	3.50	4.00	0.25	0.50	-0.284668	0.111816	0.932129	-1.610000	6.440000	-1.330000	313.00	0.03	-0.08	2.75	1.50	2.25	3.50	2.50	2.50	0.00	2.50	3.00	2.75	2.25	2.00	3.00	2.75	0.25	0.50	-0.210938	0.107910	0.958984	-2.450000	-3.080000	2.520000	366.00	-0.00	-0.09
1.39	2.00	1.00	2.50	2.25	1.75	1.50	0.50	0.75	1.50	1.50	2.25	3.50	3.25	4.25	0.25	0.50	-0.283691	0.106445	0.929199	-1.680000	6.370000	-1.260000	303.00	0.04	-0.08	2.75	2.00	2.25	3.50	2.50	2.75	0.00	2.50	2.75	2.75	2.50	2.00	3.25	2.75	0.25	0.75	-0.208496	0.103027	0.962891	-2.450000	-3.010000	2.310000	376.00	-0.01	-0.09
1.40	2.00	1.50	2.75	2.25	1.75	1.50	0.50	0.75	1.50	1.50	2.25	3.50	3.25	4.00	0.25	0.50	-0.285156	0.104980	0.938965	-1.610000	6.300000	-1.330000	308.00	0.03	-0.08	2.50	1.75	2.25	3.25	2.50	2.50	0.00	2.50	2.75	2.75	2.25	2.25	3.25	2.75	0.25	0.75	-0.208984	0.106445	0.961914	-2.380000	-3.080000	2.450000	366.00	0.00	-0.09
1.41	2.00	1.00	2.75	2.25	1.75	1.50	0.50	0.75	1.50	1.75	2.25	3.25	3.25	4.00	0.00	0.75	-0.280762	0.109375	0.934082	-1.610000	6.160000	-1.330000	302.00	0.03	-0.07	2.75	1.75	2.50	3.25	2.25	2.50	0.00	2.75	2.75	3.00	2.25	2.25	3.00	3.00	0.25	0.75	-0.212891	0.104004	0.958984	-2.380000	-3.010000	2.450000	375.00	0.00	-0.09
1.42	2.00	1.25	2.75	2.25	1.75	1.50	0.50	1.00	1.25	1.75	2.00	3.50	3.25	3.75	0.00	0.50	-0.283203	0.108887	0.928711	-1.540000	6.370000	-1.330000	301.00	0.02	-0.09	2.75	1.75	2.25	3.25	2.50	2.75	0.00	2.50	2.75	2.75	2.00	2.00	3.00	2.75	0.25	0.75	-0.214355	0.107422	0.964844	-2.590000	-3.150000	2.590000	364.00	-0.00	-0.09
1.43	2.00	1.00	2.75	2.25	1.75	1.50	0.50	0.75	1.50	1.50	2.00	3.50	3.25	4.25	0.25	0.50	-0.281250	0.108398	0.930664	-1.540000	6.440000	-1.260000	303.00	0.04	-0.07	2.75	2.00	2.50	3.25	2.50	2.75	0.00	2.50	2.75	2.75	2.50	2.25	3.00	2.75	0.25	0.75	-0.208984	0.103516	0.958496	-2.520000	-3.220000	2.590000	376.00	-0.00	-0.09
1.44	2.00	1.50	2.75	2.50	1.75	1.50	0.50	1.00	1.25	1.50	2.25	3.50	3.25	4.25	0.25	0.75	-0.285645	0.105957	0.933594	-1.540000	6.440000	-1.260000	315.00	0.03	-0.09	3.00	2.00	2.25	3.50	2.50	3.00	0.00	2.50	2.75	2.75	2.50	1.50	3.00	2.75	0.25	0.75	-0.208496	0.104492	0.958984	-2.450000	-3.150000	2.450000	374.00	-0.01	-0.09
1.45	2.25	1.25	2.75	2.00	1.75	1.50	0.50	0.75	1.00	1.75	2.25	3.50	3.25	4.00	0.25	0.75	-0.277344	0.107422	0.932617	-1.400000	6.300000	-1.260000	303.00	0.03	-0.08	2.75	1.75	2.25	3.75	2.50	2.75	0.00	2.50	2.75	2.75	2.25	2.25	3.25	3.00	0.25	0.75	-0.211914	0.108887	0.957031	-2.520000	-3.150000	2.380000	379.00	-0.00	-0.10
1.46	2.00	1.50	3.00	2.50	1.75	1.50	0.50	0.75	1.25	1.75	2.00	3.50	3.25	4.00	0.00	0.50	-0.283691	0.104980	0.938477	-1.470000	6.160000	-1.190000	307.00	0.02	-0.08	2.75	1.75	2.25	3.50	2.50	2.75	0.00	2.50	2.75	2.75	2.25	2.00	3.25	3.00	0.25	0.75	-0.209473	0.109375	0.964844	-2.520000	-3.150000	2.520000	373.00	-0.00	-0.09
1.47	2.00	1.25	2.75	2.25	1.75	1.50	0.50	1.00	1.50	1.75	2.00	3.00	3.25	4.25	0.25	0.50	-0.280762	0.107910	0.933105	-1.540000	6.160000	-1.190000	306.00	0.03	-0.07	3.25	1.75	2.50	3.75	2.50	2.50	0.00	2.50	2.75	2.50	2.25	2.00	3.00	3.00	0.25	0.75	-0.210938	0.113770	0.957520	-2.450000	-3.150000	2.450000	376.00	-0.01	-0.09
1.48	2.00	1.25	2.75	2.00	1.75	1.75	0.50	0.75	1.00	1.50	2.00	3.50	3.25	4.00	0.25	0.75	-0.277832	0.108887	0.937988	-1.610000	6.440000	-1.330000	298.00	0.03	-0.09	3.00	2.00	2.50	3.50	2.50	2.75	0.00	2.50	2.75	2.75	2.25	2.00	3.00	2.75	0.25	0.75	-0.213379	0.103516	0.959473	-2.450000	-3.080000	2.520000	377.00	-0.01	-0.09
1.49	2.00	1.25	2.75	2.25	1.75	1.75	0.50	1.00	1.25	1.50	2.00	3.25	3.25	4.00	0.00	0.75	-0.278320	0.104492	0.933594	-1.680000	6.370000	-1.400000	302.00	0.02	-0.09	3.00	2.00	2.50	3.50	2.50	2.75	0.00	2.50	2.75	2.50	2.25	2.00	2.75	2.50	0.25	0.50	-0.209961	0.102051	0.962402	-2.450000	-3.010000	2.520000	368.00	-0.02	-0.09
1.50	2.25	1.50	2.75	2.25	2.00	1.50	0.50	0.75	1.25	1.25	1.75	3.25	3.00	4.00	0.25	0.50	-0.278809	0.108398	0.934570	-1.540000	6.160000	-1.260000	297.00	0.01	-0.07	2.75	2.00	2.50	3.25	2.50	2.75	0.00	2.50	2.75	2.75	2.25	2.00	2.75	2.75	0.25	0.50	-0.207031	0.103027	0.958496	-2.380000	-2.940000	2.450000	368.00	-0.01	-0.09
1.51	2.00	1.50	2.75	2.25	2.00	1.50	0.50	0.75	1.25	1.50	2.00	3.25	3.00	3.75	0.25	0.50	-0.281738	0.105469	0.925781	-1.610000	6.160000	-1.190000	298.00	0.02	-0.08	3.00	1.75	2.25	3.50	2.25	2.50	0.00	2.50	2.75	2.75	2.00	2.00	3.00	2.75	0.25	0.75	-0.208008	0.109375	0.959473	-2.380000	-3.080000	2.450000	363.00	-0.01	-0.09
1.52	2.25	1.25	2.75	2.25	1.75	1.50	0.50	0.75	1.25	1.25	2.00	3.25	3.25	4.25	0.00	0.50	-0.280762	0.105957	0.934082	-1.540000	6.300000	-1.400000	296.00	0.02	-0.08	2.75	2.00	2.25	3.75	2.25	2.50	0.00	2.25	2.50	2.75	2.25	2.00	2.75	2.75	0.25	0.75	-0.212402	0.107910	0.960449	-2.450000	-3.080000	2.450000	359.00	-0.01	-0.09
1.53	2.25	1.50	2.75	2.50	1.75	1.50	0.50	0.75	1.25	1.50	2.00	3.50	3.00	4.00	0.25	0.75	-0.281738	0.104980	0.934570	-1.540000	6.300000	-1.260000	306.00	0.02	-0.08	3.00	2.00	2.50	3.50	2.50	2.75	0.00	2.50	2.50	2.75	2.25	1.75	2.75	2.75	0.25	0.75	-0.211914	0.112305	0.959961	-2.450000	-3.080000	2.450000	368.00	-0.02	-0.09
1.54	2.25	1.50	3.00	2.25	2.00	1.50	0.25	0.75	1.25	1.50	2.00	3.25	3.25	4.25	0.00	0.50	-0.280273	0.108887	0.929688	-1.540000	6.580000	-1.400000	303.00	0.01	-0.08	3.00	2.00	2.25	3.75	2.50	2.75	0.00	2.50	2.50	2.50	2.00	2.00	3.00	2.75	0.25	0.75	-0.209473	0.107422	0.963379	-2.380000	-3.150000	2.590000	368.00	-0.02	-0.10
1.55	2.25	1.00	2.75	2.50	2.00	1.50	0.50	0.75	1.25	1.50	2.25	3.25	3.25	4.00	0.25	0.50	-0.280762	0.104492	0.932129	-1.470000	6.510000	-1.330000	305.00	0.02	-0.08	2.75	1.75	2.50	3.75	2.50	2.75	0.00	2.50	2.50	2.50	2.00	1.75	2.75	2.75	0.00	0.50	-0.211426	0.105957	0.960449	-2.310000	-3.150000	2.520000	357.00	-0.02	-0.09
1.56	2.25	1.50	2.75	2.50	1.75	1.50	0.50	0.75	1.00	1.50	2.00	3.25	3.00	4.00	0.50	0.50	-0.280762	0.107910	0.934570	-1.540000	6.650000	-1.260000	302.00	0.02	-0.08	3.00	2.00	2.75	3.50	2.50	2.75	0.00	2.25	2.50	2.75	2.00	2.25	2.50	3.00	0.25	0.75	-0.210449	0.104492	0.958984	-2.380000	-3.080000	2.450000	370.00	-0.02	-0.08
1.57	2.25	1.50	2.75	2.25	1.75	1.50	0.50	0.75	1.25	1.50	2.00	3.25	3.00	3.75	0.00	0.50	-0.278809	0.104492	0.934082	-1.470000	6.440000	-1.260000	295.00	0.01	-0.08	3.00	2.00	2.50	3.75	2.50	2.75	0.00	2.25	2.50	2.50	2.00	2.00	2.75	2.75	0.25	0.75	-0.208984	0.103027	0.968262	-2.310000	-3.150000	2.590000	365.00	-0.02	-0.09
1.58	2.00	1.25	2.75	2.50	2.00	1.50	0.50	0.75	1.25	1.50	2.00	3.25	3.00	3.75	0.25	0.50	-0.284180	0.106934	0.932617	-1.470000	6.510000	-1.330000	298.00	0.02	-0.08	3.00	2.25	2.50	4.00	2.50	2.50	0.00	2.50	2.50	2.25	2.00	1.75	3.00	3.00	0.50	0.50	-0.205078	0.106445	0.964844	-2.380000	-3.150000	2.520000	371.00	-0.02	-0.09
1.59	2.25	1.75	2.75	2.50	1.75	1.75	0.50	0.75	1.00	1.50	2.00	3.25	3.25	4.00	0.25	0.50	-0.281738	0.104004	0.936035	-1.540000	6.440000	-1.190000	306.00	0.01	-0.09	3.00	2.00	2.50	3.50	2.50	2.75	0.00	2.50	2.50	3.00	2.00	2.00	3.00	2.50	0.00	0.75	-0.210938	0.110352	0.968262	-2.380000	-3.010000	2.380000	369.00	-0.02	-0.09
1.60	2.50	1.75	2.75	2.25	1.75	1.50	0.50	0.75	1.25	1.50	2.00	3.00	3.00	4.00	0.00	0.50	-0.282715	0.105469	0.927246	-1.470000	6.300000	-1.260000	299.00	0.01	-0.07	3.00	2.25	2.25	3.75	2.50	2.75	0.00	2.50	2.50	2.50	1.75	1.75	3.00	2.75	0.25	0.75	-0.207520	0.104492	0.961914	-2.310000	-2.940000	2.450000	365.00	-0.02	-0.10
1.61	2.00	1.25	3.00	2.50	1.75	1.50	0.50	0.75	1.25	1.75	1.75	3.00	3.25	3.75	0.25	0.50	-0.282715	0.102051	0.925781	-1.470000	6.300000	-1.260000	298.00	0.02	-0.08	3.25	2.25	2.50	3.75	2.50	2.75	0.00	2.25	2.50	2.50	2.25	2.00	2.75	2.75	0.25	0.75	-0.211426	0.106445	0.961914	-2.380000	-3.010000	2.520000	372.00	-0.02	-0.09
1.62	2.25	1.50	2.75	2.50	2.00	1.75	0.50	0.75	1.25	1.50	2.00	3.25	3.25	4.00	0.00	0.50	-0.283691	0.104004	0.928711	-1.540000	6.230000	-1.330000	307.00	0.01	-0.08	3.00	2.25	2.50	3.75	2.50	2.50	0.00	2.50	2.25	2.50	2.00	2.00	3.00	2.50	0.25	0.50	-0.212891	0.108887	0.958496	-2.380000	-3.150000	2.590000	364.00	-0.03	-0.10
1.63	2.25	1.50	3.00	2.50	1.75	1.75	0.50	0.75	1.00	1.50	2.00	3.25	3.00	4.00	0.00	0.50	-0.279785	0.108398	0.934570	-1.540000	6.160000	-1.330000	302.00	0.01	-0.08	3.25	2.00	2.50	4.00	2.50	2.75	0.00	2.25	2.00	2.75	2.25	2.00	2.75	2.75	0.25	0.75	-0.208984	0.104980	0.965332	-2.450000	-3.080000	2.590000	369.00	-0.03	-0.09
1.64	2.50	1.75	3.00	2.50	2.00	1.75	0.50	0.75	1.25	1.50	1.75	3.25	3.25	3.75	0.25	0.50	-0.280273	0.109863	0.927246	-1.470000	6.090000	-1.260000	313.00	0.00	-0.08	3.25	2.00	2.50	4.00	2.50	2.75	0.00	2.25	2.25	2.50	2.00	1.75	2.75	2.75	0.25	0.75	-0.210449	0.111328	0.960938	-2.520000	-3.080000	2.450000	364.00	-0.03	-0.09
1.65	2.50	1.50	3.00	2.50	1.75	1.50	0.50	0.75	1.25	1.50	2.00	3.25	3.25	4.00	0.00	0.50	-0.279785	0.108887	0.935059	-1.400000	6.440000	-1.260000	307.00	0.01	-0.08	3.00	2.00	2.75	3.75	2.50	2.75	0.00	2.25	2.50	2.25	2.00	2.00	2.75	2.75	0.25	0.50	-0.208008	0.102051	0.965332	-2.520000	-3.150000	2.450000	364.00	-0.03	-0.09
1.66	2.50	1.50	3.00	2.25	1.75	1.50	0.50	0.75	1.25	1.50	1.75	3.00	3.25	3.75	0.25	0.50	-0.281250	0.110840	0.929688	-1.470000	6.580000	-1.260000	300.00	0.01	-0.07	3.00	2.25	2.75	3.75	2.50	2.50	0.00	2.25	2.50	2.50	2.00	1.75	2.75	2.50	0.25	0.75	-0.213379	0.108887	0.964355	-2.590000	-3.150000	2.380000	362.00	-0.03	-0.09
1.67	2.25	1.25	3.00	2.25	1.75	1.75	0.50	1.00	1.00	1.50	1.75	3.25	3.00	4.00	0.25	0.50	-0.282227	0.107910	0.933105	-1.540000	6.860000	-1.400000	301.00	0.01	-0.08	3.25	2.00	2.50	3.75	2.50	2.50	0.00	2.50	2.25	2.25	2.00	1.75	2.75	2.75	0.00	0.50	-0.220703	0.102051	0.962402	-2.660000	-3.360000	2.450000	356.00	-0.03	-0.09
1.68	2.50	1.50	3.00	2.75	1.75	1.50	0.50	1.00	0.75	1.50	2.00	3.50	3.00	4.00	0.00	0.75	-0.281250	0.104492	0.930664	-1.540000	6.790000	-1.400000	309.00	0.00	-0.09	3.00	2.75	2.50	3.75	2.25	2.75	0.00	2.25	2.50	2.50	2.00	2.00	2.75	2.75	0.25	0.50	-0.210449	0.104492	0.959473	-2.520000	-3.220000	2.380000	368.00	-0.03	-0.09
1.69	2.50	1.50	3.00	2.50	1.75	1.75	0.50	0.75	1.50	1.50	2.00	3.00	3.25	4.00	0.00	0.50	-0.284668	0.106934	0.930664	-1.610000	6.580000	-1.330000	311.00	0.01	-0.07	3.25	2.25	2.50	3.75	2.50	2.75	0.00	2.25	2.50	2.50	1.75	2.00	2.75	2.75	0.25	0.50	-0.208496	0.104492	0.959473	-2.520000	-3.220000	2.380000	366.00	-0.03	-0.09
1.70	2.50	1.25	3.00	2.25	1.75	1.75	0.50	0.75	1.00	1.50	2.00	3.00	3.00	3.75	0.00	0.50	-0.279297	0.107910	0.933594	-1.680000	6.510000	-1.260000	295.00	0.00	-0.08	3.25	2.00	2.50	3.25	2.50	2.50	0.00	2.00	2.50	2.50	2.00	2.00	2.75	2.50	0.25	0.75	-0.209473	0.107422	0.956543	-2.520000	-3.080000	2.450000	353.00	-0.02	-0.08
1.71	2.50	1.50	3.00	2.50	2.00	1.75	0.50	0.75	0.75	1.50	1.75	3.25	3.25	4.00	0.00	0.50	-0.281250	0.104492	0.930664	-1.750000	6.930000	-1.470000	304.00	-0.00	-0.08	3.25	2.00	2.50	4.00	2.50	2.75	0.00	2.50	2.50	2.50	2.00	2.00	2.75	2.75	0.25	0.50	-0.208496	0.108398	0.962402	-2.450000	-3.080000	2.450000	373.00	-0.03	-0.09
1.72	2.50	1.50	3.00	2.50	1.75	1.50	0.50	0.75	1.00	1.25	1.75	3.00	3.25	3.75	0.00	0.75	-0.278320	0.107422	0.926758	-1.610000	6.930000	-1.470000	295.00	-0.00	-0.08	3.25	2.25	2.75	3.75	2.50	2.75	0.00	2.25	2.25	2.25	2.00	1.75	2.75	2.75	0.25	0.75	-0.211426	0.105957	0.967773	-2.310000	-3.010000	2.520000	364.00	-0.03	-0.09
1.73	2.25	1.50	3.25	2.25	1.75	1.50	0.50	0.75	1.00	1.50	1.75	3.25	3.25	4.00	0.25	0.75	-0.278809	0.106934	0.933594	-1.540000	6.860000	-1.400000	303.00	0.01	-0.08	3.25	2.50	2.50	4.00	2.50	2.75	0.00	2.25	2.50	2.25	2.25	2.00	2.75	2.50	0.25	0.75	-0.211914	0.108398	0.968750	-2.310000	-3.010000	2.520000	373.00	-0.03	-0.09
1.74	2.50	1.50	3.00	2.50	2.00	1.50	0.50	0.75	1.25	1.25	2.00	3.00	3.25	4.00	0.25	0.50	-0.282227	0.108887	0.934570	-1.470000	6.650000	-1.330000	307.00	0.01	-0.07	3.00	2.25	2.50	4.00	2.25	2.75	0.00	2.25	2.00	2.25	1.75	1.75	2.50	2.50	0.25	0.50	-0.216309	0.107422	0.958008	-2.380000	-3.080000	2.450000	347.00	-0.04	-0.10
1.75	2.50	1.50	3.25	2.25	1.75	1.50	0.50	0.75	1.00	1.50	1.75	3.00	3.25	4.00	0.25	0.75	-0.286621	0.110840	0.930176	-1.470000	6.510000	-1.400000	303.00	0.01	-0.08	3.50	2.50	2.75	4.25	2.50	2.75	0.00	2.25	2.25	2.50	1.75	1.75	2.50	2.75	0.25	0.50	-0.213379	0.111328	0.961426	-2.310000	-3.080000	2.450000	371.00	-0.05	-0.09
1.76	2.50	1.25	3.25	2.75	1.75	1.50	0.50	0.75	1.00	1.50	1.75	3.25	3.25	4.00	0.25	0.75	-0.279297	0.104980	0.933105	-1.540000	6.440000	-1.260000	309.00	0.01	-0.08	3.25	2.25	2.75	3.75	2.50	2.50	0.00	2.25	2.25	2.50	1.75	2.00	2.50	2.50	0.00	0.50	-0.211426	0.104980	0.958496	-2.310000	-3.010000	2.380000	356.00	-0.04	-0.09
1.77	2.25	1.25	3.00	2.75	1.75	1.25	0.50	0.75	0.75	1.50	1.75	3.25	3.25	4.00	0.25	0.50	-0.280273	0.108887	0.929199	-1.610000	6.370000	-1.190000	296.00	0.01	-0.08	3.25	2.25	2.75	3.75	2.50	2.75	0.00	2.25	2.25	2.50	2.00	1.75	2.50	2.50	0.25	0.75	-0.204102	0.104980	0.957520	-2.310000	-3.010000	2.450000	362.00	-0.04	-0.09
1.78	2.50	1.50	3.00	2.75	2.00	1.75	0.50	0.75	1.25	1.50	1.75	3.00	3.00	4.00	0.25	0.50	-0.282227	0.113770	0.935547	-1.610000	6.300000	-1.330000	311.00	0.00	-0.07	3.25	2.25	2.50	4.00	2.50	2.75	0.00	2.25	2.25	2.50	1.75	1.50	2.75	2.25	0.25	0.50	-0.206055	0.103516	0.960938	-2.310000	-3.080000	2.450000	356.00	-0.04	-0.09
1.79	2.50	1.25	3.00	2.75	1.75	1.50	0.50	0.75	1.25	1.50	1.75	3.00	3.00	3.75	0.00	0.50	-0.282227	0.109375	0.934570	-1.680000	6.370000	-1.400000	298.00	0.00	-0.07	3.50	2.25	2.50	4.25	2.50	2.75	0.00	2.25	2.25	2.50	2.00	1.75	2.50	2.75	0.25	0.50	-0.207520	0.105957	0.964355	-2.380000	-3.220000	2.450000	368.00	-0.04	-0.09
1.80	2.50	1.75	3.00	3.00	2.00	1.50	0.50	0.75	1.25	1.50	2.00	3.25	3.00	4.00	0.00	0.50	-0.284668	0.106934	0.935547	-1.540000	6.160000	-1.260000	316.00	-0.00	-0.08	3.50	2.25	3.00	3.75	2.50	2.75	0.00	2.25	2.25	2.00	1.75	1.75	2.75	2.50	0.25	0.75	-0.211914	0.109863	0.964844	-2.450000	-3.080000	2.520000	362.00	-0.05	-0.09
1.81	2.25	1.50	3.00	2.50	2.00	1.75	0.50	0.75	1.25	1.50	1.75	3.00	3.00	3.75	0.00	0.50	-0.285156	0.109863	0.930176	-1.610000	6.160000	-1.260000	301.00	0.00	-0.08	3.50	2.25	2.50	4.00	2.50	2.75	0.00	2.25	2.25	2.00	1.75	2.00	2.50	2.75	0.25	0.75	-0.209473	0.104980	0.965332	-2.450000	-3.080000	2.380000	362.00	-0.04	-0.09
1.82	2.50	1.25	3.00	2.75	1.75	1.50	0.50	0.75	1.00	1.50	1.75	3.25	3.00	3.75	0.25	0.50	-0.279785	0.110352	0.931152	-1.610000	6.020000	-1.330000	300.00	0.00	-0.08	3.25	2.50	2.50	4.00	2.50	2.75	0.00	2.25	2.00	2.25	1.75	1.75	2.25	2.50	0.00	0.50	-0.210449	0.108887	0.960449	-2.380000	-3.080000	2.450000	350.00	-0.05	-0.09
1.83	2.25	1.75	3.00	2.75	2.00	1.75	0.50	0.75	1.00	1.50	1.75	3.00	3.00	4.25	0.00	0.50	-0.282715	0.104004	0.933105	-1.470000	6.020000	-1.400000	307.00	-0.00	-0.08	3.50	2.75	3.00	4.25	2.50	2.75	0.00	2.25	2.25	2.25	1.75	1.75	2.75	2.50	0.00	0.75	-0.208008	0.107422	0.965332	-2.380000	-3.080000	2.520000	372.00	-0.05	-0.09
1.84	2.50	1.50	3.00	2.50	1.75	1.50	0.50	0.75	0.75	1.25	1.75	3.00	3.00	3.75	0.25	0.50	-0.279297	0.106934	0.934082	-1.540000	6.090000	-1.330000	291.00	-0.00	-0.08	3.50	2.50	2.75	4.25	2.50	2.75	0.00	2.25	2.00	2.00	1.75	1.75	2.75	2.50	0.25	0.75	-0.210938	0.112305	0.960938	-2.450000	-3.220000	2.310000	364.00	-0.05	-0.10
1.85	2.50	1.75	3.00	2.50	2.00	1.75	0.50	0.75	1.00	1.50	1.50	2.75	3.00	3.50	0.00	0.50	-0.280762	0.107910	0.929199	-1.610000	6.020000	-1.260000	295.00	-0.02	-0.08	3.75	2.50	2.75	4.25	2.50	2.75	0.00	2.25	2.00	2.25	1.75	1.75	2.75	2.50	0.25	0.50	-0.210938	0.107910	0.958496	-2.590000	-3.360000	2.450000	368.00	-0.05	-0.09
1.86	2.50	1.50	3.00	2.50	1.75	1.50	0.50	0.75	1.25	1.25	1.75	3.25	3.25	4.25	0.25	0.50	-0.281738	0.107422	0.933105	-1.610000	6.230000	-1.400000	307.00	0.01	-0.08	3.50	2.50	2.75	4.25	2.50	2.75	0.00	2.25	1.75	2.50	1.75	1.75	2.50	2.75	0.25	0.50	-0.204590	0.108398	0.964844	-2.660000	-3.220000	2.380000	364.00	-0.05	-0.09
1.87	2.25	1.25	3.00	2.50	1.75	1.50	0.50	0.75	1.00	1.25	1.75	2.75	3.00	3.50	0.00	0.50	-0.282227	0.102539	0.925781	-1.610000	5.950000	-1.330000	282.00	-0.00	-0.08	3.75	2.50	3.00	4.25	2.50	3.00	0.00	2.25	1.75	2.25	1.75	1.75	2.50	2.50	0.25	0.50	-0.214355	0.104004	0.963379	-2.590000	-3.220000	2.450000	368.00	-0.06	-0.09
1.88	2.50	1.50	3.25	2.75	2.00	1.75	0.50	0.75	1.25	1.25	1.75	3.00	3.00	3.75	0.00	0.25	-0.281250	0.110840	0.932129	-1.470000	5.670000	-1.120000	305.00	-0.01	-0.07	3.25	2.50	2.75	4.25	2.50	3.00	0.00	2.25	2.25	2.50	1.75	1.75	2.75	2.50	0.25	0.50	-0.207031	0.104004	0.963867	-2.520000	-3.220000	2.380000	371.00	-0.05	-0.09
1.89	2.50	2.25	3.25	2.50	2.00	1.75	0.50	0.75	1.25	1.25	1.75	3.25	3.25	3.50	0.25	0.50	-0.283203	0.105469	0.929688	-1.470000	5.670000	-1.260000	316.00	-0.01	-0.08	3.75	2.25	2.75	4.25	2.75	2.75	0.00	2.25	2.25	2.25	1.75	1.75	2.75	2.25	0.00	0.50	-0.210938	0.104004	0.966309	-2.520000	-2.940000	2.450000	367.00	-0.06	-0.09
1.90	2.50	1.75	3.25	2.50	2.00	2.00	0.50	0.75	1.00	1.25	1.75	3.00	3.25	3.75	0.00	0.50	-0.282227	0.102539	0.934570	-1.470000	6.090000	-1.330000	307.00	-0.01	-0.08	3.50	2.50	2.75	4.00	2.50	2.75	0.00	2.25	2.00	2.25	1.75	1.50	2.50	2.50	0.25	0.50	-0.210938	0.110352	0.962402	-2.380000	-3.080000	2.380000	357.00	-0.05	-0.09
1.91	2.50	1.75	3.25	2.75	1.75	1.75	0.50	0.75	1.25	1.50	1.75	3.00	3.00	3.75	0.25	0.50	-0.282715	0.104980	0.926758	-1.470000	5.950000	-1.400000	311.00	-0.01	-0.08	3.75	2.25	2.75	4.25	2.50	2.75	0.00	2.00	2.25	2.00	1.75	1.75	2.50	2.50	0.25	0.75	-0.208008	0.108887	0.963379	-2.520000	-3.220000	2.310000	361.00	-0.05	-0.09
1.92	2.50	1.00	3.00	2.75	2.00	2.00	0.50	0.75	1.00	1.50	1.75	3.00	3.00	4.25	0.25	0.50	-0.282227	0.102051	0.930176	-1.400000	5.740000	-1.260000	308.00	0.01	-0.08	3.50	2.25	3.00	4.25	2.50	2.75	0.00	2.25	2.00	2.00	2.00	1.50	2.75	2.50	0.25	0.50	-0.209473	0.106934	0.964844	-2.590000	-3.290000	2.380000	363.00	-0.05	-0.09
1.93	2.50	1.75	3.25	2.25	2.00	2.00	0.50	0.75	1.50	1.50	1.75	3.00	3.00	4.00	0.00	0.50	-0.281250	0.103027	0.935059	-1.470000	5.600000	-1.190000	314.00	-0.00	-0.07	3.75	2.50	2.75	4.00	2.50	2.75	0.00	2.25	2.00	2.25	1.75	1.75	2.25	2.25	0.00	0.50	-0.212891	0.104004	0.961426	-2.590000	-3.150000	2.310000	356.00	-0.06	-0.09
1.94	2.50	1.50	3.00	2.75	1.75	1.50	0.50	0.75	1.25	1.50	1.50	3.25	3.00	4.00	0.25	0.50	-0.278809	0.106934	0.934082	-1.540000	5.880000	-1.330000	305.00	0.00	-0.07	3.50	2.25	2.75	4.25	2.50	2.75	0.00	2.50	2.00	2.25	1.75	1.75	2.50	2.50	0.00	0.75	-0.209961	0.106445	0.965820	-2.520000	-3.220000	2.240000	363.00	-0.05	-0.10
1.95	2.50	1.50	3.25	2.50	1.75	2.00	0.50	1.00	1.25	1.25	1.75	3.25	3.00	4.00	0.25	0.50	-0.282227	0.108398	0.933105	-1.680000	6.160000	-1.400000	315.00	0.00	-0.08	3.50	2.25	2.75	4.00	2.50	2.75	0.00	2.50	2.50	2.25	1.50	1.75	2.75	2.50	0.25	0.75	-0.207031	0.102539	0.965820	-2.590000	-3.150000	2.310000	369.00	-0.04	-0.09
1.96	2.25	1.25	3.25	2.50	1.75	1.75	0.50	0.75	1.00	1.50	1.75	3.00	3.25	3.50	0.25	0.50	-0.283203	0.105469	0.930664	-1.610000	6.160000	-1.330000	298.00	0.00	-0.08	3.50	2.75	2.50	4.00	2.50	2.75	0.00	2.25	2.25	2.25	1.75	1.75	2.25	2.50	0.00	0.50	-0.204590	0.110840	0.960938	-2.520000	-3.080000	2.450000	358.00	-0.05	-0.09
1.97	2.50	1.75	3.25	3.00	1.75	1.75	0.50	0.75	1.00	1.50	1.50	3.00	3.25	4.00	0.25	0.50	-0.282715	0.107422	0.928711	-1.540000	6.160000	-1.330000	312.00	-0.01	-0.08	3.25	2.00	2.50	3.75	2.50	2.75	0.00	2.25	2.00	2.25	1.75	1.75	2.50	2.50	0.25	0.50	-0.212402	0.110840	0.961914	-2.450000	-2.940000	2.380000	347.00	-0.04	-0.09
1.98	2.25	1.50	3.25	3.00	1.75	1.75	0.50	0.75	1.00	1.50	2.00	3.25	3.25	3.75	0.25	0.50	-0.278320	0.101562	0.929199	-1.540000	6.160000	-1.260000	313.00	-0.00	-0.09	3.50	2.00	2.75	4.00	2.25	2.75	0.00	2.25	2.00	2.25	2.00	1.75	2.50	2.50	0.25	0.75	-0.209473	0.107422	0.962402	-2.450000	-2.940000	2.450000	357.00	-0.04	-0.09
1.99	2.75	1.75	3.00	2.75	2.00	1.75	0.50	0.75	1.00	1.50	1.75	3.00	3.00	3.75	0.00	0.75	-0.280273	0.108887	0.931641	-1.470000	6.230000	-1.260000	309.00	-0.01	-0.08	3.50	2.25	2.50	3.75	2.50	2.75	0.00	2.25	2.25	2.50	1.75	2.00	2.50	2.50	0.00	0.75	-0.212402	0.104492	0.961914	-2.380000	-2.940000	2.450000	360.00	-0.04	-0.09
2.00	2.50	1.50	3.25	2.50	2.00	2.00	0.50	0.75	1.25	1.75	1.75	3.00	3.00	4.00	0.00	0.50	-0.282715	0.104492	0.928223	-1.610000	6.230000	-1.330000	313.00	-0.00	-0.07	3.25	2.50	2.75	4.00	2.50	2.50	0.00	2.00	2.00	2.25	1.75	1.50	2.75	2.50	0.25	0.50	-0.209961	0.104980	0.965332	-2.380000	-3.010000	2.450000	350.00	-0.05	-0.09
2.01	2.75	1.50	3.25	2.75	1.75	1.75	0.50	0.75	1.00	1.50	2.00	3.25	3.25	4.25	0.00	0.50	-0.283691	0.104492	0.930664	-1.540000	6.230000	-1.260000	317.00	-0.00	-0.08	3.25	2.50	2.75	4.00	2.50	2.75	0.00	2.25	2.25	2.25	1.75	2.00	2.75	2.50	0.00	0.75	-0.205566	0.109375	0.960938	-2.380000	-2.870000	2.380000	364.00	-0.04	-0.09
2.02	2.50	1.50	3.25	2.50	2.00	1.75	0.50	0.75	1.25	1.50	1.75	3.00	3.00	3.75	0.00	0.50	-0.283691	0.107422	0.940918	-1.540000	6.440000	-1.330000	306.00	-0.01	-0.07	3.50	2.00	2.50	3.75	2.50	2.75	0.00	2.25	2.50	2.25	1.75	1.50	2.75	2.75	0.25	0.75	-0.213867	0.106934	0.961914	-2.450000	-2.940000	2.310000	359.00	-0.03	-0.08
2.03	2.75	1.50	3.00	2.50	2.00	1.75	0.50	0.75	1.00	1.25	2.00	3.25	3.25	3.75	0.25	0.50	-0.279297	0.106445	0.931152	-1.470000	6.230000	-1.400000	310.00	-0.00	-0.08	3.25	2.00	2.50	3.75	2.50	2.75	0.00	2.25	2.00	2.50	1.75	1.75	2.50	2.50	0.00	0.50	-0.214355	0.107910	0.966309	-2.520000	-3.080000	2.450000	347.00	-0.04	-0.09
2.04	2.50	1.50	3.25	2.25	2.00	1.75	0.50	0.75	1.00	1.25	2.00	3.25	3.00	3.25	0.25	0.50	-0.282715	0.112305	0.933594	-1.400000	6.230000	-1.330000	301.00	-0.01	-0.08	3.50	2.50	2.50	4.00	2.50	2.75	0.00	2.00	2.00	2.50	1.75	1.50	2.50	2.50	0.25	0.50	-0.211426	0.105957	0.958008	-2.450000	-3.220000	2.450000	353.00	-0.05	-0.09
2.05	2.50	1.50	3.00	2.50	2.00	2.00	0.50	1.00	1.25	1.50	1.75	3.25	3.25	4.00	0.25	0.50	-0.280273	0.106934	0.932129	-1.470000	6.300000	-1.260000	319.00	0.00	-0.08	3.50	2.25	2.75	3.75	2.50	2.75	0.00	2.25	2.50	2.50	1.75	1.75	2.25	2.50	0.00	0.50	-0.211914	0.104980	0.958496	-2.520000	-3.010000	2.380000	359.00	-0.04	-0.08
2.06	2.50	1.50	3.25	2.75	2.00	1.75	0.25	1.00	1.25	1.50	1.75	3.25	3.25	4.00	0.25	0.50	-0.284668	0.108887	0.929688	-1.400000	6.090000	-1.260000	318.00	0.00	-0.08	3.50	2.25	2.75	3.75	2.50	2.50	0.00	2.25	2.00	2.25	2.00	2.00	2.75	2.50	0.25	0.75	-0.211426	0.106445	0.956055	-2.450000	-3.010000	2.310000	361.00	-0.04	-0.09
2.07	2.50	1.50	3.25	3.00	1.75	1.75	0.50	0.75	1.00	1.50	2.00	3.25	3.25	4.00	0.00	0.50	-0.281738	0.110840	0.928711	-1.540000	6.020000	-1.260000	315.00	-0.00	-0.08	3.25	2.50	2.50	3.75	2.50	2.75	0.00	2.00	2.00	2.25	1.75	1.75	2.50	2.50	0.00	0.50	-0.213867	0.112793	0.959961	-2.310000	-2.870000	2.450000	346.00	-0.05	-0.09
2.08	2.50	1.25	3.00	2.75	1.75	1.50	0.50	0.75	1.25	1.50	1.75	3.50	3.25	4.00	0.25	0.50	-0.280762	0.112793	0.934082	-1.610000	6.090000	-1.400000	310.00	0.01	-0.08	3.25	2.00	2.50	4.00	2.25	2.25	0.00	2.00	2.00	2.25	1.75	1.75	2.50	2.75	0.25	0.75	-0.208984	0.111328	0.961426	-2.310000	-2.940000	2.520000	342.00	-0.04	-0.09
2.09	2.50	1.50	3.00	3.00	2.00	1.75	0.50	1.00	0.75	1.50	1.75	3.25	3.50	4.00	0.25	0.50	-0.278320	0.109375	0.935547	-1.610000	6.230000	-1.400000	318.00	-0.00	-0.09	3.50	2.50	2.75	3.75	2.25	2.75	0.00	2.25	2.25	2.00	1.75	1.75	2.25	2.75	0.25	0.50	-0.211914	0.107910	0.961914	-2.380000	-2.870000	2.450000	355.00	-0.05	-0.09
2.10	2.50	1.50	3.00	2.75	2.00	1.75	0.50	0.75	1.00	1.50	2.00	3.50	3.25	3.75	0.25	0.50	-0.282715	0.104492	0.937012	-1.610000	6.230000	-1.470000	315.00	0.00	-0.09	3.25	2.25	2.50	3.75	2.50	2.50	0.00	2.25	2.00	2.25	1.50	1.75	2.50	2.50	0.25	0.75	-0.206055	0.106445	0.957031	-2.450000	-3.010000	2.310000	346.00	-0.04	-0.09
2.11	2.25	1.50	3.25	2.75	2.00	2.00	0.50	1.00	1.50	1.50	2.00	3.75	3.50	4.00	0.25	0.50	-0.276367	0.107422	0.935059	-1.540000	6.230000	-1.470000	336.00	0.01	-0.09	3.25	2.00	2.50	4.00	2.25	2.50	0.00	2.00	2.00	2.25	1.75	1.75	2.50	2.25	0.00	0.75	-0.214844	0.104980	0.962891	-2.520000	-3.150000	2.450000	337.00	-0.05	-0.09
2.12	2.50	1.50	3.25	2.25	2.00	2.00	0.50	0.75	1.00	1.75	2.00	3.25	3.25	4.00	0.00	0.75	-0.280273	0.108398	0.934570	-1.540000	6.300000	-1.400000	316.00	0.00	-0.08	3.25	2.25	2.75	3.75	2.50	2.50	0.00	2.25	2.00	2.25	1.75	1.50	2.75	2.50	0.25	0.50	-0.207031	0.104492	0.957520	-2.520000	-3.080000	2.310000	349.00	-0.04	-0.09
2.13	2.50	1.50	3.25	2.75	2.00	2.00	0.50	0.75	1.00	1.75	2.00	3.50	3.25	4.25	0.25	0.50	-0.283203	0.106445	0.938965	-1.540000	6.230000	-1.400000	328.00	0.01	-0.08	3.50	2.50	2.50	3.75	2.50	2.25	0.00	2.25	1.75	2.25	2.00	1.50	2.75	2.50	0.25	0.50	-0.209961	0.106934	0.964355	-2.520000	-3.010000	2.380000	348.00	-0.05	-0.09
2.14	2.25	1.50	3.25	2.75	2.00	1.75	0.50	0.75	1.25	1.75	2.00	3.50	3.50	4.00	0.25	0.75	-0.283203	0.111328	0.934570	-1.680000	6.300000	-1.470000	327.00	0.01	-0.08	3.25	1.75	2.50	3.75	2.25	2.50	0.00	2.00	2.00	2.00	1.75	1.75	2.50	2.50	0.25	0.75	-0.211914	0.104980	0.959961	-2.380000	-2.870000	2.450000	335.00	-0.04	-0.09
2.15	2.25	1.50	3.00	2.50	2.00	1.75	0.50	0.75	1.00	1.50	2.00	3.50	3.25	4.00	0.00	0.50	-0.284180	0.109375	0.930176	-1.610000	6.230000	-1.470000	310.00	0.01	-0.08	3.25	2.00	2.75	3.75	2.25	2.50	0.00	2.00	2.00	2.25	1.75	1.75	2.50	2.75	0.25	0.50	-0.212891	0.103027	0.963867	-2.450000	-2.940000	2.310000	343.00	-0.04	-0.09
2.16	2.50	1.75	3.00	2.75	1.75	2.00	0.50	1.00	1.25	1.75	2.25	3.50	3.25	4.00	0.00	0.50	-0.285156	0.105957	0.933105	-1.540000	6.160000	-1.400000	329.00	0.00	-0.09	3.25	2.25	2.75	3.75	2.50	2.25	0.00	2.00	2.00	2.50	1.75	1.75	2.50	2.50	0.00	0.50	-0.214844	0.104492	0.963379	-2.520000	-3.010000	2.380000	343.00	-0.04	-0.08
2.17	2.50	1.50	2.75	2.75	2.00	2.00	0.50	1.00	1.25	1.75	2.00	3.75	3.50	3.75	0.00	0.50	-0.276855	0.112305	0.934570	-1.470000	6.160000	-1.330000	327.00	0.01	-0.09	3.25	2.25	2.50	3.75	2.50	2.50	0.00	2.00	2.00	2.50	1.75	1.75	2.50	2.50	0.00	0.75	-0.208496	0.107910	0.959961	-2.520000	-2.940000	2.380000	344.00	-0.04	-0.09
2.18	2.25	1.50	3.00	2.75	2.00	2.00	0.25	1.00	1.25	1.50	2.00	3.50	3.25	4.25	0.00	0.75	-0.285156	0.111816	0.928223	-1.540000	6.160000	-1.400000	322.00	0.01	-0.09	3.25	2.00	2.50	3.50	2.25	2.25	0.00	2.00	2.00	2.25	1.75	2.00	2.25	2.50	0.00	0.50	-0.210938	0.105957	0.958008	-2.520000	-2.870000	2.310000	330.00	-0.04	-0.09
2.19	2.25	1.50	3.00	3.25	1.75	2.00	0.50	0.75	1.00	1.75	2.25	3.75	3.75	4.25	0.25	0.75	-0.283203	0.103516	0.937988	-1.470000	6.020000	-1.330000	336.00	0.01	-0.09	3.25	2.25	2.50	4.00	2.50	2.25	0.00	2.00	2.00	2.50	1.75	1.75	2.50	2.25	0.25	0.50	-0.210938	0.109863	0.963867	-2.450000	-2.940000	2.310000	344.00	-0.04	-0.09
2.20	2.25	1.50	3.00	2.75	2.00	2.00	0.50	1.00	1.25	1.50	2.25	3.75	3.50	4.25	0.25	0.50	-0.275879	0.104980	0.933594	-1.540000	5.950000	-1.190000	334.00	0.02	-0.09	3.50	2.00	2.50	3.25	2.25	2.25	0.00	2.00	2.00	2.25	1.75	1.50	2.50	2.50	0.00	0.50	-0.204590	0.107910	0.962402	-2.450000	-2.940000	2.310000	327.00	-0.04	-0.08
2.21	2.25	1.50	3.25	2.75	2.00	2.00	0.50	0.75	1.00	1.75	2.00	3.75	3.50	4.00	0.25	0.50	-0.275879	0.104980	0.933594	-1.540000	5.950000	-1.190000	328.00	0.01	-0.09	3.25	2.25	2.75	3.75	2.25	2.25	0.00	2.00	2.00	2.00	1.75	1.75	2.50	2.50	0.25	0.50	-0.215332	0.109863	0.959961	-2.450000	-3.010000	2.380000	338.00	-0.04	-0.09
2.22	2.25	1.75	3.25	2.50	2.00	2.25	0.25	1.00	1.25	1.50	2.00	3.75	3.50	4.00	0.25	0.50	-0.276855	0.111816	0.931641	-1.610000	5.880000	-1.190000	331.00	0.01	-0.09	3.25	2.25	2.50	3.75	2.25	2.50	0.00	2.00	2.00	2.50	1.50	1.50	2.50	2.50	0.00	0.50	-0.208984	0.110352	0.962402	-2.520000	-2.940000	2.450000	335.00	-0.05	-0.09
2.23	2.50	1.50	3.00	2.75	2.00	2.00	0.50	1.00	1.50	1.50	2.25	3.50	3.50	4.00	0.25	0.75	-0.278320	0.109375	0.931641	-1.610000	6.090000	-1.330000	337.00	0.01	-0.09	3.25	2.25	2.50	3.75	2.25	2.25	0.00	2.00	2.00	2.25	2.00	1.50	2.25	2.50	0.25	0.50	-0.212891	0.103516	0.967773	-2.520000	-3.010000	2.520000	335.00	-0.04	-0.08
2.24	2.00	1.50	3.25	2.75	2.00	2.00	0.50	1.00	1.50	1.75	2.25	3.75	3.75	3.75	0.25	0.50	-0.278809	0.107910	0.929199	-1.470000	6.160000	-1.330000	338.00	0.02	-0.09	3.25	2.00	2.50	3.75	2.25	2.25	0.00	2.00	2.00	2.50	1.75	1.50	2.50	2.50	0.25	0.50	-0.213867	0.108887	0.961914	-2.380000	-2.800000	2.520000	335.00	-0.04	-0.08
2.25	2.25	1.25	3.00	3.00	2.00	2.25	0.50	1.00	1.00	1.75	2.25	3.50	3.75	4.00	0.00	0.50	-0.281250	0.111328	0.930176	-1.540000	6.160000	-1.190000	332.00	0.01	-0.10	3.25	2.25	2.50	3.50	2.25	2.50	0.00	2.00	2.00	2.25	1.50	1.50	2.50	2.25	0.25	0.75	-0.211426	0.106934	0.958984	-2.310000	-2.800000	2.450000	332.00	-0.05	-0.09
2.26	2.50	1.50	3.00	2.75	1.75	2.00	0.50	1.00	1.25	1.50	2.25	3.75	3.50	4.25	0.25	0.75	-0.276855	0.105957	0.930664	-1.470000	6.090000	-1.260000	335.00	0.02	-0.09	3.25	1.75	2.50	3.75	2.25	2.00	0.00	2.00	2.00	2.25	1.75	1.75	2.25	2.50	0.25	0.25	-0.211426	0.109863	0.967773	-2.380000	-2.730000	2.450000	327.00	-0.04	-0.08
2.27	2.25	1.50	3.00	2.75	2.00	2.00	0.50	1.00	1.25	1.75	2.25	4.00	3.50	4.00	0.25	0.50	-0.279297	0.107910	0.929688	-1.610000	6.160000	-1.260000	337.00	0.02	-0.09	3.25	2.25	2.50	3.50	2.25	2.00	0.00	2.00	2.00	2.25	1.50	1.75	2.25	2.50	0.00	0.50	-0.208984	0.106934	0.967773	-2.380000	-2.800000	2.520000	325.00	-0.05	-0.08
2.28	2.50	1.50	3.25	2.50	2.00	2.25	0.50	1.00	1.25	1.50	2.25	3.75	3.75	4.25	0.25	0.75	-0.271973	0.106445	0.931641	-1.610000	6.230000	-1.330000	343.00	0.01	-0.09	3.00	2.00	2.25	3.25	2.25	2.00	0.00	1.75	2.25	2.00	1.75	1.75	2.50	2.50	0.25	0.50	-0.211426	0.105957	0.955078	-2.170000	-2.590000	2.450000	319.00	-0.03	-0.08
2.29	2.25	1.50	3.25	2.75	2.00	2.00	0.50	1.00	1.50	1.50	2.00	3.75	3.75	4.25	0.25	0.50	-0.275879	0.105469	0.934082	-1.610000	6.020000	-1.190000	340.00	0.02	-0.09	3.00	2.25	2.25	3.50	2.25	2.25	0.00	2.00	2.00	2.25	1.75	1.50	2.50	2.50	0.00	0.75	-0.213379	0.110840	0.956543	-2.100000	-2.450000	2.520000	326.00	-0.04	-0.09
2.30	2.25	1.50	3.25	3.00	2.00	2.00	0.50	1.00	1.25	1.50	2.25	3.75	3.75	4.00	0.25	0.75	-0.280273	0.104980	0.933105	-1.540000	5.670000	-1.190000	341.00	0.01	-0.09	3.25	2.25	2.50	3.50	2.25	2.00	0.00	2.00	2.00	2.00	1.50	1.75	2.50	2.50	0.25	0.50	-0.212891	0.110352	0.965332	-2.100000	-2.450000	2.450000	327.00	-0.04	-0.09
2.31	2.75	1.50	3.25	2.75	2.00	2.25	0.50	1.00	1.00	1.75	2.25	3.75	3.75	4.25	0.25	0.75	-0.280273	0.106934	0.934570	-1.610000	5.810000	-1.330000	348.00	0.01	-0.09	3.25	2.00	2.25	3.50	2.25	2.00	0.00	1.75	2.00	2.25	1.50	1.75	2.50	2.25	0.00	0.50	-0.211914	0.106934	0.962402	-2.100000	-2.590000	2.450000	316.00	-0.04	-0.08
2.32	2.50	1.50	3.25	3.00	2.00	2.25	0.50	1.00	1.25	1.50	2.25	3.50	3.75	4.00	0.25	0.75	-0.279785	0.107422	0.932129	-1.540000	6.160000	-1.400000	344.00	0.00	-0.09	3.25	2.25	2.25	3.50	2.25	2.00	0.00	1.75	2.00	2.25	1.50	1.75	2.25	2.25	0.00	0.50	-0.214844	0.109375	0.963867	-2.100000	-2.800000	2.520000	316.00	-0.05	-0.08
2.33	2.50	1.50	3.25	3.00	2.00	2.25	0.50	1.00	1.25	1.75	2.00	3.75	3.75	4.00	0.00	0.75	-0.284180	0.105469	0.926758	-1.470000	6.020000	-1.260000	344.00	0.00	-0.09	3.25	2.00	2.50	3.25	2.25	2.25	0.00	1.75	1.75	2.00	1.75	1.50	2.25	2.50	0.25	0.50	-0.212891	0.111328	0.958008	-2.170000	-2.800000	2.450000	315.00	-0.04	-0.08
2.34	2.50	1.50	3.50	3.00	2.00	2.50	0.50	1.00	1.50	1.50	2.50	4.00	3.75	4.25	0.25	0.75	-0.284668	0.108887	0.936035	-1.540000	5.740000	-1.120000	363.00	0.01	-0.09	3.25	2.25	2.50	3.25	2.25	2.25	0.00	2.00	1.50	2.25	1.50	1.25	2.25	2.50	0.25	0.50	-0.211426	0.106445	0.963379	-2.170000	-2.870000	2.450000	316.00	-0.05	-0.09
2.35	2.25	1.50	3.25	3.00	2.00	2.25	0.50	1.00	1.25	1.50	2.25	4.00	3.75	4.00	0.00	0.75	-0.279785	0.108398	0.931641	-1.400000	5.670000	-1.190000	344.00	0.01	-0.10	3.00	2.00	2.25	3.25	2.25	2.00	0.00	1.75	2.00	2.00	1.75	1.50	2.25	2.25	0.25	0.50	-0.208008	0.109375	0.958008	-2.240000	-2.800000	2.450000	308.00	-0.04	-0.08
2.36	2.50	1.75	3.25	2.75	2.00	2.50	0.25	1.00	1.50	1.75	2.25	4.00	3.75	4.25	0.25	0.75	-0.281738	0.113281	0.932129	-1.400000	5.950000	-1.260000	356.00	0.01	-0.09	3.00	2.00	2.25	3.50	2.00	2.25	0.00	1.75	1.75	2.25	1.50	1.50	2.50	2.50	0.25	0.50	-0.210449	0.108887	0.959473	-2.310000	-2.870000	2.520000	312.00	-0.04	-0.09
2.37	2.25	1.50	3.50	3.00	2.00	2.25	0.50	1.00	1.25	1.50	2.25	3.75	3.75	4.25	0.25	0.75	-0.273438	0.105957	0.939453	-1.470000	6.160000	-1.190000	349.00	0.01	-0.09	3.25	2.25	2.50	3.75	2.25	2.00	0.00	1.75	1.75	2.00	1.75	1.50	2.50	2.50	0.00	0.75	-0.208008	0.110352	0.964355	-2.240000	-3.010000	2.590000	321.00	-0.05	-0.09
2.38	2.75	1.50	3.00	3.00	1.75	2.50	0.50	1.00	1.25	1.75	2.25	3.75	3.75	4.00	0.25	0.75	-0.282227	0.111328	0.940430	-1.540000	6.300000	-1.260000	349.00	0.01	-0.10	3.25	1.75	2.50	3.50	2.25	2.00	0.00	1.75	1.75	2.25	1.50	1.75	2.50	2.50	0.25	0.50	-0.210938	0.109375	0.961426	-2.310000	-2.940000	2.450000	318.00	-0.04	-0.08
2.39	2.50	1.75	3.50	3.00	2.00	2.50	0.50	1.00	1.25	1.75	2.50	4.00	3.75	3.75	0.00	0.50	-0.282715	0.104980	0.932129	-1.610000	6.370000	-1.260000	356.00	-0.00	-0.10	3.25	2.00	2.50	3.50	2.25	2.25	0.00	1.75	2.00	2.00	2.00	1.50	2.50	2.25	0.25	0.50	-0.214844	0.105469	0.958496	-2.310000	-2.940000	2.520000	324.00	-0.04	-0.08
2.40	2.50	1.50	3.25	3.25	2.00	2.50	0.50	1.00	1.50	1.50	2.50	4.00	3.75	4.00	0.25	0.50	-0.273438	0.105469	0.931641	-1.540000	6.300000	-1.190000	359.00	0.01	-0.09	3.25	2.00	2.25	3.50	2.25	2.00	0.00	1.75	2.00	2.25	1.50	1.50	2.50	2.50	0.25	0.75	-0.213379	0.108398	0.960449	-2.380000	-3.010000	2.520000	319.00	-0.04	-0.08
2.41	2.50	1.50	3.25	2.50	2.00	2.25	0.50	1.25	1.25	1.75	2.50	4.25	3.75	4.00	0.00	0.50	-0.275879	0.107910	0.930664	-1.540000	6.370000	-1.120000	351.00	0.01	-0.10	3.25	1.75	2.50	3.50	2.00	2.00	0.00	1.75	1.50	2.25	1.50	1.50	2.25	2.25	0.25	0.75	-0.216309	0.107910	0.955566	-2.310000	-2.800000	2.380000	306.00	-0.05	-0.09
2.42	2.50	1.50	3.25	3.00	2.00	2.50	0.50	1.00	1.50	1.75	2.50	4.00	3.75	4.00	0.00	0.75	-0.279785	0.103027	0.937012	-1.610000	6.370000	-1.330000	358.00	0.01	-0.09	3.50	2.00	2.50	3.25	2.25	2.25	0.00	1.50	1.75	2.00	1.50	1.50	2.25	2.25	0.25	0.50	-0.214844	0.109863	0.962891	-2.310000	-2.870000	2.450000	309.00	-0.05	-0.08
2.43	2.50	1.50	3.50	2.75	2.00	2.50	0.50	1.00	1.25	1.75	2.50	4.00	4.00	4.00	0.25	0.50	-0.283203	0.107910	0.933594	-1.610000	6.230000	-1.260000	358.00	0.01	-0.09	3.25	2.25	2.50	3.25	2.25	2.00	0.00	1.75	1.75	2.00	1.50	1.50	2.25	2.25	0.00	0.50	-0.210938	0.108398	0.965332	-2.240000	-2.800000	2.520000	308.00	-0.05	-0.08
2.44	2.50	1.50	3.25	3.00	2.00	2.25	0.50	1.00	1.50	1.50	2.50	4.00	3.75	4.25	0.50	0.75	-0.278809	0.107910	0.931641	-1.610000	6.230000	-1.330000	360.00	0.02	-0.09	3.25	2.00	2.25	3.00	2.00	2.00	0.00	1.50	1.75	2.00	1.50	1.50	2.00	2.50	0.25	0.50	-0.208984	0.109863	0.967773	-2.240000	-2.730000	2.520000	296.00	-0.04	-0.08
2.45	2.50	1.75	3.25	3.00	2.00	2.50	0.50	1.00	1.50	1.75	2.50	4.00	3.75	4.25	0.25	0.75	-0.275879	0.107422	0.935059	-1.470000	6.090000	-1.400000	365.00	0.01	-0.09	3.25	2.00	2.25	3.50	2.25	2.00	0.00	1.75	1.50	2.25	1.50	1.50	2.25	2.25	0.25	0.50	-0.211426	0.111328	0.958496	-2.240000	-2.800000	2.590000	307.00	-0.05	-0.09
2.46	2.50	1.75	3.25	3.00	2.00	2.50	0.50	1.00	1.25	1.75	2.50	3.75	4.00	4.25	0.25	0.75	-0.279297	0.107422	0.936523	-1.540000	6.090000	-1.400000	361.00	0.01	-0.10	3.50	2.00	2.25	3.00	2.25	2.00	0.00	1.75	1.75	2.00	1.50	1.50	2.25	2.50	0.25	0.50	-0.213379	0.108887	0.964355	-2.380000	-3.010000	2.520000	307.00	-0.04	-0.08
2.47	2.50	1.50	3.25	3.00	2.00	2.50	0.50	1.00	1.50	1.75	2.50	4.25	4.00	3.75	0.25	0.75	-0.278809	0.111816	0.934082	-1.540000	6.230000	-1.400000	363.00	0.01	-0.10	3.00	2.00	2.25	3.75	2.00	2.00	0.00	1.75	1.75	2.00	1.50	1.25	2.25	2.25	0.00	0.50	-0.212402	0.110840	0.962402	-2.380000	-2.940000	2.450000	300.00	-0.05	-0.09
2.48	2.50	1.00	3.25	3.00	2.00	2.50	0.50	1.00	1.50	1.75	2.50	4.25	4.00	4.25	0.00	0.75	-0.276855	0.116699	0.938965	-1.400000	6.160000	-1.400000	360.00	0.02	-0.09	3.25	2.25	2.25	3.25	2.25	1.75	0.00	1.50	1.75	2.00	1.50	1.50	2.50	2.50	0.25	0.50	-0.208984	0.108887	0.959961	-2.450000	-3.010000	2.450000	305.00	-0.04	-0.08
2.49	2.25	1.75	3.25	2.75	2.00	2.50	0.50	1.25	1.50	1.75	2.50	4.00	4.00	4.50	0.25	0.75	-0.279785	0.106445	0.934570	-1.470000	6.090000	-1.260000	368.00	0.02	-0.10	3.00	1.75	2.50	3.25	2.25	2.00	0.00	1.75	1.50	2.00	1.50	1.75	2.00	2.25	0.00	0.50	-0.212891	0.107422	0.964844	-2.380000	-2.940000	2.450000	298.00	-0.05	-0.09
2.50	2.25	1.50	3.25	3.00	2.25	2.50	0.50	1.00	1.50	1.75	2.50	4.00	3.75	4.25	0.25	0.75	-0.281250	0.102539	0.934082	-1.540000	6.160000	-1.400000	363.00	0.02	-0.09	3.00	2.00	2.25	3.25	2.25	2.00	0.00	1.50	1.50	1.75	1.50	1.50	2.00	2.25	0.25	0.50	-0.213379	0.109375	0.965820	-2.450000	-3.010000	2.450000	291.00	-0.05	-0.08
2.51	2.50	1.50	3.25	3.00	2.00	2.75	0.50	1.00	1.50	1.75	2.50	4.25	4.00	4.50	0.25	0.75	-0.275879	0.105957	0.935059	-1.610000	6.510000	-1.400000	372.00	0.02	-0.09	3.00	2.00	2.25	3.25	2.25	2.00	0.00	1.50	1.75	2.00	1.50	1.50	2.25	2.50	0.25	0.50	-0.212891	0.111816	0.961914	-2.380000	-2.870000	2.380000	301.00	-0.04	-0.08
2.52	2.50	1.25	3.25	3.25	2.00	2.50	0.50	1.25	1.25	1.75	2.50	4.25	4.25	4.00	0.25	0.75	-0.276367	0.108887	0.935059	-1.610000	6.300000	-1.330000	368.00	0.01	-0.10	3.00	1.75	2.25	3.25	2.00	1.75	0.00	1.50	1.75	2.25	1.50	1.50	2.50	2.50	0.00	0.50	-0.215332	0.106934	0.964355	-2.310000	-2.870000	2.380000	295.00	-0.03	-0.08
2.53	2.50	1.50	3.25	3.00	2.00	2.75	0.50	1.25	1.25	1.75	2.75	4.50	4.00	4.00	0.25	0.75	-0.277832	0.109375	0.929199	-1.540000	6.300000	-1.330000	374.00	0.01	-0.11	3.25	2.00	2.25	3.25	2.25	2.00	0.00	1.75	1.75	2.00	1.50	1.50	2.25	2.50	0.25	0.50	-0.213867	0.109863	0.962402	-2.380000	-2.940000	2.380000	307.00	-0.04	-0.08
2.54	2.50	1.50	3.25	3.00	2.00	2.50	0.50	1.25	1.50	1.75	2.75	4.25	4.00	4.25	0.25	0.75	-0.276855	0.111328	0.929688	-1.610000	6.440000	-1.330000	374.00	0.02	-0.10	3.25	2.00	2.25	3.25	2.25	2.00	0.00	1.75	1.75	2.00	1.50	1.50	2.25	2.50	0.00	0.75	-0.216309	0.108398	0.958984	-2.380000	-2.870000	2.380000	306.00	-0.04	-0.08
2.55	2.50	1.25	3.25	3.00	2.25	2.75	0.50	1.25	1.25	1.75	2.50	4.50	4.00	4.25	0.25	0.75	-0.282227	0.105469	0.934570	-1.750000	6.720000	-1.540000	374.00	0.02	-0.10	3.25	2.00	2.25	3.25	2.25	2.00	0.00	1.75	1.50	2.00	1.50	1.25	2.25	2.25	0.25	0.75	-0.208496	0.113770	0.956543	-2.450000	-2.940000	2.380000	301.00	-0.05	-0.09
2.56	2.50	1.50	3.25	3.00	2.00	2.50	0.50	1.25	1.25	1.75	2.75	4.00	4.00	4.25	0.25	0.50	-0.277344	0.105957	0.927734	-1.680000	6.510000	-1.470000	366.00	0.01	-0.10	3.25	2.00	2.25	3.25	2.25	1.75	0.00	1.50	1.75	2.25	1.50	1.50	2.25	2.25	0.00	0.50	-0.210938	0.110840	0.962402	-2.520000	-3.010000	2.310000	299.00	-0.05	-0.08
2.57	2.25	1.50	3.25	2.75	2.00	2.50	0.50	1.25	1.50	1.75	2.75	4.25	4.25	4.25	0.25	0.75	-0.277344	0.108887	0.932129	-1.750000	6.370000	-1.260000	371.00	0.02	-0.10	3.25	2.25	2.25	3.00	2.25	2.00	0.00	1.75	1.75	2.00	1.50	1.50	2.25	2.25	0.00	0.50	-0.216309	0.108887	0.970215	-2.520000	-3.010000	2.380000	302.00	-0.05	-0.08
2.58	2.50	1.50	3.25	2.50	2.00	2.50	0.50	1.25	1.50	2.00	2.75	5.00	4.00	4.25	0.25	0.75	-0.276855	0.105469	0.928711	-1.680000	6.230000	-1.260000	379.00	0.03	-0.10	3.25	1.75	2.25	3.00	2.25	2.00	0.00	1.75	1.50	2.00	1.50	1.50	2.25	2.50	0.25	0.50	-0.209961	0.106934	0.962402	-2.590000	-3.010000	2.380000	299.00	-0.04	-0.08
2.59	2.50	1.50	3.00	3.25	2.00	2.75	0.50	1.00	1.25	1.75	2.75	4.75	4.50	4.00	0.25	0.75	-0.278320	0.105469	0.935059	-1.540000	6.300000	-1.400000	377.00	0.02	-0.11	3.25	2.00	2.50	3.00	2.00	1.75	0.00	1.75	1.50	2.00	1.50	1.75	2.00	2.50	0.00	0.50	-0.218262	0.108398	0.960449	-2.520000	-3.150000	2.380000	296.00	-0.05	-0.08
2.60	2.25	1.50	3.25	3.00	2.00	2.50	0.50	1.25	1.25	2.00	2.75	4.75	4.25	4.25	0.25	0.75	-0.270996	0.107910	0.937012	-1.540000	6.300000	-1.330000	378.00	0.02	-0.11	3.25	2.00	2.25	3.00	2.00	1.75	0.00	1.75	1.75	2.00	1.50	1.25	2.25	2.25	0.25	0.75	-0.209473	0.111328	0.955078	-2.520000	-3.010000	2.380000	296.00	-0.04	-0.08
2.61	2.50	1.75	2.75	2.50	2.00	2.50	0.50	1.25	1.50	2.00	2.75	4.75	4.50	3.75	0.25	0.75	-0.281250	0.106934	0.934082	-1.610000	6.230000	-1.330000	373.00	0.03	-0.11	3.00	2.00	2.25	3.00	2.25	1.75	0.00	1.50	1.50	2.00	1.50	1.75	2.50	2.50	0.00	0.50	-0.212402	0.108887	0.960938	-2.520000	-3.080000	2.380000	294.00	-0.04	-0.09
2.62	2.25	1.50	3.00	3.00	2.00	2.50	0.50	1.25	1.25	2.00	2.75	4.75	4.25	4.25	0.00	0.75	-0.281250	0.114258	0.933105	-1.610000	6.160000	-1.330000	373.00	0.02	-0.11	3.00	2.25	2.00	2.75	2.00	1.75	0.00	1.75	1.50	2.00	1.50	1.50	2.25	2.50	0.00	0.50	-0.218262	0.106934	0.955078	-2.520000	-2.940000	2.310000	287.00	-0.04	-0.09
2.63	2.25	1.50	3.25	3.00	2.00	2.75	0.50	1.00	1.50	1.75	3.00	4.75	4.75	4.00	0.25	0.75	-0.282715	0.111816	0.930176	-1.610000	6.230000	-1.400000	382.00	0.02	-0.11	3.00	2.00	2.00	2.75	2.00	1.75	0.00	1.50	1.50	2.00	1.50	1.25	2.25	2.25	0.00	0.50	-0.209473	0.107910	0.958496	-2.520000	-3.010000	2.310000	276.00	-0.04	-0.08
2.64	2.25	1.50	3.50	3.00	2.00	2.50	0.50	1.00	1.00	2.00	3.00	4.50	4.50	4.25	0.25	0.75	-0.275879	0.110352	0.937012	-1.610000	6.090000	-1.400000	376.00	0.02	-0.11	3.25	1.75	2.00	3.00	2.00	2.00	0.00	1.50	1.75	2.00	1.75	1.50	2.25	2.75	0.25	0.50	-0.207031	0.108887	0.961914	-2.450000	-2.940000	2.240000	298.00	-0.03	-0.08
2.65	2.00	1.75	3.25	3.00	2.00	2.75	0.50	1.25	1.50	1.75	3.00	5.00	4.50	4.50	0.25	0.75	-0.276855	0.105469	0.929199	-1.470000	6.020000	-1.330000	391.00	0.03	-0.11	3.25	2.00	2.00	2.75	2.00	1.75	0.00	1.75	1.75	2.00	1.50	1.25	2.25	2.50	0.00	0.75	-0.204102	0.110352	0.954590	-2.450000	-3.080000	2.310000	290.00	-0.04	-0.08
2.66	2.25	1.50	3.00	2.50	2.00	2.75	0.50	1.25	1.50	2.00	3.00	5.00	4.75	4.00	0.25	1.00	-0.282715	0.109375	0.934570	-1.610000	5.950000	-1.470000	384.00	0.03	-0.11	3.00	1.75	2.25	3.00	2.00	2.00	0.00	1.50	1.50	2.00	1.75	1.50	2.50	2.25	0.00	0.50	-0.213379	0.104492	0.960449	-2.520000	-3.080000	2.240000	290.00	-0.04	-0.09
2.67	2.25	1.25	3.25	3.00	2.00	2.50	0.50	1.25	1.50	1.75	2.75	5.00	4.75	4.25	0.00	0.75	-0.275391	0.110352	0.930664	-1.470000	5.950000	-1.330000	381.00	0.03	-0.11	3.00	2.00	2.00	2.75	2.00	1.50	0.00	1.50	1.75	2.00	1.50	1.50	2.25	2.50	0.00	0.50	-0.209961	0.111816	0.961426	-2.520000	-3.080000	2.450000	282.00	-0.03	-0.08
2.68	2.25	1.50	3.25	3.00	2.00	2.50	0.50	1.25	1.50	2.00	2.75	5.00	4.75	4.25	0.25	0.75	-0.278320	0.111816	0.933105	-1.470000	5.950000	-1.260000	388.00	0.03	-0.11	3.00	1.75	2.25	3.00	2.00	1.75	0.00	1.50	1.75	2.00	1.75	1.50	2.00	2.50	0.25	0.50	-0.214355	0.111328	0.961426	-2.520000	-3.080000	2.380000	291.00	-0.03	-0.07
2.69	2.25	1.50	3.00	3.00	2.25	2.50	0.50	1.25	1.75	2.00	3.00	5.00	4.75	4.25	0.25	0.75	-0.278809	0.105469	0.930176	-1.470000	6.090000	-1.190000	394.00	0.03	-0.11	3.00	2.00	2.25	3.25	2.00	1.75	0.00	1.75	1.75	2.00	1.50	1.25	2.25	2.25	0.00	0.50	-0.216309	0.108887	0.961426	-2.590000	-3.080000	2.310000	292.00	-0.05	-0.08
2.70	2.00	1.50	3.25	3.00	2.00	2.50	0.50	1.25	1.50	2.00	3.00	5.00	4.75	4.25	0.00	0.75	-0.280762	0.111328	0.929688	-1.470000	6.300000	-1.260000	386.00	0.03	-0.11	2.75	1.75	2.00	3.00	2.00	2.00	0.00	1.75	1.75	2.00	1.50	1.25	2.25	2.50	0.00	0.50	-0.208008	0.106934	0.959961	-2.660000	-3.220000	2.310000	286.00	-0.03	-0.08
2.71	2.25	1.50	3.25	2.75	2.00	2.50	0.50	1.25	1.75	2.00	2.75	5.25	5.00	4.00	0.25	0.75	-0.275391	0.109863	0.931641	-1.400000	6.090000	-1.330000	391.00	0.03	-0.11	3.00	2.00	2.25	3.25	2.00	2.00	0.00	1.75	1.75	2.25	1.50	1.25	2.25	2.50	0.25	0.50	-0.215332	0.102051	0.958008	-2.660000	-3.220000	2.310000	302.00	-0.04	-0.08
2.72	2.50	1.50	3.25	3.00	2.00	2.75	0.50	1.25	1.75	1.75	2.75	5.25	5.00	4.25	0.25	0.75	-0.283691	0.104980	0.932129	-1.400000	6.020000	-1.260000	399.00	0.03	-0.11	3.00	1.50	2.00	2.75	2.00	1.75	0.00	1.50	1.75	2.00	1.50	1.75	2.50	2.50	0.25	0.50	-0.208008	0.110352	0.959473	-2.660000	-3.080000	2.310000	287.00	-0.02	-0.08
2.73	2.25	1.50	3.25	3.00	2.00	2.50	0.50	1.25	1.50	2.00	3.00	5.00	5.00	4.00	0.25	0.75	-0.274902	0.110840	0.935059	-1.330000	6.160000	-1.330000	391.00	0.03	-0.11	3.00	1.75	2.25	3.25	2.00	1.75	0.00	1.50	2.00	2.00	1.50	1.50	2.25	2.50	0.25	0.50	-0.210938	0.104492	0.960938	-2.590000	-3.150000	2.380000	296.00	-0.03	-0.07
2.74	2.25	1.25	3.00	3.00	2.25	2.75	0.50	1.25	1.75	2.00	3.00	5.25	5.00	4.25	0.50	0.75	-0.277344	0.104492	0.935547	-1.400000	6.370000	-1.330000	402.00	0.04	-0.11	2.75	1.75	2.00	2.75	2.00	1.75	0.00	1.75	1.75	2.00	1.50	1.50	2.25	2.50	0.25	0.25	-0.213379	0.111816	0.964355	-2.660000	-3.150000	2.310000	285.00	-0.03	-0.08
2.75	2.25	1.50	3.00	2.75	2.00	2.50	0.50	1.25	1.25	2.00	3.00	5.25	5.00	4.50	0.25	0.75	-0.280762	0.108398	0.937500	-1.400000	6.300000	-1.190000	389.00	0.04	-0.11	3.00	1.75	2.00	2.75	2.00	1.75	0.00	1.50	2.00	2.00	1.50	1.50	2.00	2.50	0.25	0.50	-0.212402	0.103516	0.961914	-2.590000	-3.080000	2.380000	286.00	-0.03	-0.07
2.76	2.00	1.00	2.75	3.00	2.25	2.75	0.50	1.25	1.50	2.00	3.25	5.25	5.00	4.25	0.25	0.75	-0.280762	0.107422	0.932129	-1.400000	5.950000	-1.330000	391.00	0.04	-0.11	3.25	2.00	2.25	2.75	2.00	1.50	0.00	1.75	1.75	2.25	1.50	1.75	2.25	2.50	0.00	0.50	-0.215332	0.118164	0.960938	-2.520000	-3.080000	2.310000	296.00	-0.03	-0.08
2.77	2.00	1.50	3.00	2.75	2.00	2.75	0.50	1.25	1.25	2.00	3.00	5.50	5.25	4.00	0.25	0.75	-0.279785	0.104004	0.934082	-1.470000	6.020000	-1.330000	390.00	0.04	-0.12	2.75	1.75	2.25	3.00	2.00	1.75	0.00	1.75	1.75	2.00	1.50	1.75	2.00	2.50	0.25	0.50	-0.214844	0.112793	0.958984	-2.450000	-2.940000	2.310000	292.00	-0.03	-0.08
2.78	2.50	1.50	3.25	2.75	2.00	2.50	0.50	1.25	1.50	2.00	3.00	5.25	5.00	4.25	0.25	1.00	-0.278809	0.105957	0.934082	-1.540000	6.160000	-1.260000	397.00	0.03	-0.11	2.75	1.75	2.25	3.25	2.00	1.75	0.00	1.50	1.75	2.25	1.50	1.50	2.25	2.50	0.00	0.50	-0.215820	0.114258	0.969238	-2.450000	-3.010000	2.380000	291.00	-0.03	-0.08
2.79	2.00	1.00	3.25	2.75	2.00	2.75	0.50	1.25	1.50	2.00	3.00	5.25	5.00	4.25	0.25	0.75	-0.275879	0.110352	0.931152	-1.470000	6.440000	-1.260000	388.00	0.04	-0.11	3.00	1.75	2.00	3.25	2.00	1.50	0.00	1.50	1.75	2.00	1.50	1.50	2.25	2.50	0.25	0.50	-0.208008	0.111328	0.963867	-2.520000	-2.940000	2.450000	288.00	-0.03	-0.08
2.80	2.25	1.75	3.25	2.75	2.00	2.75	0.50	1.00	1.50	2.00	3.00	5.25	5.25	4.25	0.25	0.75	-0.279785	0.106934	0.936035	-1.400000	6.370000	-1.260000	396.00	0.03	-0.11	3.00	1.25	2.00	3.25	2.00	1.75	0.00	1.50	1.75	2.00	1.50	1.50	2.00	2.50	0.00	0.75	-0.212402	0.104980	0.962402	-2.590000	-2.940000	2.380000	282.00	-0.03	-0.08
2.81	2.25	1.50	3.25	2.50	2.00	2.50	0.50	1.25	1.50	2.25	3.25	5.50	5.25	4.25	0.25	0.75	-0.279297	0.107910	0.930664	-1.470000	6.370000	-1.400000	400.00	0.04	-0.11	2.75	1.75	2.00	3.00	2.00	1.75	0.00	1.75	1.75	2.00	1.75	1.25	2.50	2.25	0.25	0.50	-0.214844	0.110352	0.954590	-2.520000	-3.080000	2.240000	289.00	-0.03	-0.09
2.82	2.00	2.00	2.75	3.00	2.00	2.75	0.50	1.25	1.75	2.25	3.00	5.50	5.25	4.25	0.25	0.75	-0.273438	0.104004	0.935059	-1.540000	6.580000	-1.400000	405.00	0.04	-0.12	2.75	1.75	2.25	2.50	2.00	1.75	0.00	1.50	1.75	2.00	1.75	1.75	2.50	2.50	0.00	0.50	-0.212402	0.107910	0.962402	-2.590000	-3.080000	2.310000	287.00	-0.02	-0.08
2.83	2.00	1.50	3.25	3.00	2.00	2.75	0.50	1.00	1.75	2.25	3.25	5.50	5.25	4.25	0.25	0.75	-0.273926	0.111328	0.931152	-1.540000	6.510000	-1.330000	405.00	0.04	-0.11	2.75	2.00	2.00	3.25	2.00	1.50	0.00	1.75	1.50	2.00	1.50	1.75	2.25	2.50	0.25	0.50	-0.214355	0.108398	0.961914	-2.450000	-2.940000	2.380000	291.00	-0.03	-0.09
2.84	2.25	1.50	3.00	2.75	2.00	2.75	0.50	1.25	1.75	2.00	3.25	5.75	5.00	4.50	0.25	0.75	-0.280273	0.110840	0.933594	-1.470000	6.510000	-1.400000	406.00	0.04	-0.11	3.00	1.75	2.25	3.00	2.00	1.75	0.00	1.50	1.75	2.25	1.75	1.75	2.25	2.50	0.25	0.50	-0.210938	0.107422	0.959961	-2.450000	-3.010000	2.450000	298.00	-0.03	-0.08
2.85	2.25	1.50	3.00	2.50	2.00	2.75	0.50	1.25	1.75	2.00	3.00	5.50	5.25	4.50	0.25	0.75	-0.278320	0.110840	0.933105	-1.470000	6.510000	-1.260000	400.00	0.04	-0.11	2.75	2.00	2.00	2.75	1.75	1.75	0.00	1.25	1.75	2.00	1.50	1.50	2.00	2.25	0.25	0.50	-0.212891	0.108398	0.958496	-2.520000	-3.010000	2.450000	274.00	-0.03	-0.08
2.86	2.25	1.25	3.25	2.75	2.00	2.75	0.50	1.25	1.50	2.00	3.00	5.50	5.25	4.50	0.25	0.75	-0.274902	0.112305	0.934570	-1.470000	6.580000	-1.190000	400.00	0.04	-0.11	3.00	1.75	2.25	2.75	2.00	1.50	0.00	1.50	2.00	2.00	1.50	1.50	2.25	2.50	0.25	0.50	-0.214355	0.108398	0.961426	-2.520000	-3.080000	2.450000	288.00	-0.03	-0.07
2.87	2.25	1.50	3.25	3.00	2.00	2.75	0.50	1.25	1.75	2.00	3.25	5.50	5.25	4.25	0.25	0.75	-0.276855	0.105469	0.933594	-1.610000	6.440000	-1.400000	409.00	0.04	-0.11	2.50	1.50	2.25	2.75	2.00	1.50	0.00	1.50	1.75	2.00	1.50	1.50	2.50	2.50	0.25	0.50	-0.210938	0.111816	0.960938	-2.450000	-3.080000	2.380000	280.00	-0.02	-0.08
2.88	2.00	1.50	3.00	2.75	2.00	2.75	0.50	1.00	1.75	2.00	3.25	5.75	5.25	4.25	0.00	0.75	-0.278809	0.109375	0.932617	-1.610000	6.370000	-1.260000	397.00	0.04	-0.11	2.75	1.75	2.00	2.75	2.00	1.50	0.00	1.50	2.00	2.00	1.75	1.50	2.25	2.50	0.00	0.50	-0.214844	0.107910	0.962891	-2.450000	-3.010000	2.380000	283.00	-0.02	-0.07
2.89	2.00	1.25	3.00	2.75	2.00	2.50	0.50	1.25	1.50	2.00	3.25	5.50	5.25	4.25	0.50	0.75	-0.276367	0.108887	0.931152	-1.680000	6.440000	-1.330000	395.00	0.05	-0.12	2.75	1.50	2.00	3.00	2.00	1.50	0.00	1.75	1.75	2.00	1.75	1.50	2.50	2.50	0.25	0.50	-0.209961	0.108887	0.960449	-2.450000	-3.080000	2.450000	289.00	-0.02	-0.09
2.90	2.00	1.75	3.25	2.50	2.00	2.50	0.50	1.25	1.75	2.00	3.25	5.75	5.00	4.25	0.25	0.75	-0.277344	0.105957	0.929688	-1.680000	6.440000	-1.400000	401.00	0.04	-0.11	3.00	1.75	2.25	2.75	2.00	1.50	0.00	1.50	1.75	2.25	1.75	1.75	2.25	2.50	0.00	0.50	-0.216309	0.100098	0.963379	-2.590000	-3.150000	2.380000	290.00	-0.03	-0.08
2.91	2.00	1.75	3.00	2.50	2.00	2.50	0.50	1.00	1.50	2.00	3.00	5.75	5.00	4.50	0.25	1.00	-0.279785	0.106934	0.932617	-1.610000	6.300000	-1.330000	392.00	0.04	-0.11	2.75	2.00	2.00	3.00	2.00	1.50	0.00	1.50	1.75	2.00	1.50	1.50	2.50	2.50	0.00	0.50	-0.214355	0.107422	0.961914	-2.660000	-3.150000	2.450000	284.00	-0.03	-0.08
2.92	2.25	1.25	2.75	2.75	2.00	2.50	0.50	1.00	1.75	2.00	3.25	5.75	5.00	4.25	0.25	0.75	-0.279297	0.105469	0.937012	-1.750000	6.440000	-1.470000	392.00	0.05	-0.11	2.50	1.75	2.00	2.75	2.00	1.75	0.00	1.50	1.75	2.25	1.75	1.50	2.25	2.25	0.00	0.50	-0.211914	0.111328	0.961426	-2.590000	-3.150000	2.450000	280.00	-0.02	-0.08
2.93	1.75	1.50	3.00	2.50	2.00	2.75	0.50	1.00	1.50	1.75	3.25	5.50	5.00	4.00	0.25	0.75	-0.283691	0.109375	0.933594	-1.820000	6.650000	-1.470000	382.00	0.04	-0.12	2.75	1.75	2.25	2.50	2.00	2.00	0.00	1.75	1.75	2.00	1.75	1.50	2.50	2.50	0.00	0.50	-0.212891	0.106445	0.960938	-2.660000	-3.220000	2.450000	291.00	-0.03	-0.09
2.94	2.00	1.50	3.00	2.75	2.00	2.75	0.50	1.25	1.75	2.00	3.00	5.75	5.00	4.50	0.25	0.75	-0.271973	0.103027	0.934570	-1.680000	6.510000	-1.470000	401.00	0.04	-0.11	2.75	1.75	2.25	3.00	2.00	2.00	0.00	1.75	2.00	2.25	1.75	1.50	2.50	2.50	0.25	0.50	-0.210938	0.106445	0.965820	-2.660000	-3.290000	2.380000	305.00	-0.02	-0.08
2.95	2.00	1.25	3.00	2.75	2.00	2.75	0.50	1.25	1.50	2.00	3.50	5.75	5.25	4.50	0.25	0.75	-0.278809	0.105957	0.936035	-1.680000	6.650000	-1.470000	403.00	0.05	-0.12	3.00	1.75	2.00	2.75	2.00	1.75	0.00	1.75	1.75	2.00	1.75	1.50	2.50	2.50	0.00	0.50	-0.211914	0.106934	0.963867	-2.660000	-3.290000	2.310000	291.00	-0.03	-0.08
2.96	2.00	1.50	3.00	3.00	2.00	2.50	0.50	1.25	1.50	2.00	3.25	5.75	5.00	4.25	0.25	0.75	-0.272949	0.108398	0.932129	-1.750000	6.720000	-1.470000	398.00	0.04	-0.12	3.00	2.00	2.25	2.75	2.00	1.75	0.00	1.50	2.00	2.25	1.50	1.50	2.25	2.50	0.00	0.75	-0.210449	0.107910	0.962891	-2.800000	-3.220000	2.380000	295.00	-0.03	-0.07
2.97	2.00	1.00	3.00	2.50	2.00	2.50	0.50	1.25	1.75	2.00	3.00	5.50	5.00	4.25	0.25	0.75	-0.276855	0.108398	0.935547	-1.750000	6.860000	-1.470000	386.00	0.05	-0.11	2.75	1.75	2.00	2.75	2.00	1.75	0.00	1.75	1.75	2.00	1.50	1.50	2.25	2.50	0.25	0.75	-0.211426	0.110840	0.959473	-2.730000	-3.290000	2.450000	287.00	-0.02	-0.08
2.98	2.25	1.50	3.00	2.50	2.00	2.50	0.50	1.25	2.00	2.00	3.25	5.75	5.00	4.50	0.25	1.00	-0.273926	0.109863	0.930664	-1.750000	6.790000	-1.540000	405.00	0.05	-0.11	2.75	2.00	2.00	3.00	2.00	1.50	0.00	1.75	2.00	2.00	2.00	1.50	2.25	2.50	0.25	0.50	-0.215332	0.106445	0.956055	-2.660000	-3.220000	2.380000	297.00	-0.02	-0.08
2.99	2.25	1.25	2.75	3.00	2.00	2.50	0.50	1.00	1.50	2.00	3.25	5.50	5.25	4.25	0.25	0.75	-0.274414	0.108887	0.929199	-1.680000	6.580000	-1.470000	391.00	0.04	-0.11	2.75	1.50	2.00	2.75	2.00	2.00	0.00	1.75	1.75	2.00	1.75	1.75	2.75	2.50	0.25	0.50	-0.208984	0.104004	0.958008	-2.660000	-3.290000	2.380000	296.00	-0.02	-0.09
3.00	1.75	1.25	3.00	2.50	2.00	2.50	0.50	1.25	1.75	2.00	3.00	5.75	5.25	4.25	0.50	0.75	-0.279297	0.107422	0.928223	-1.680000	6.440000	-1.330000	393.00	0.05	-0.11	2.75	1.50	2.00	2.50	2.25	2.00	0.00	1.75	1.75	2.25	1.75	1.50	2.25	2.50	0.00	0.75	-0.211914	0.111328	0.963867	-2.660000	-3.290000	2.520000	290.00	-0.02	-0.08
3.01	2.00	1.50	2.75	2.50	2.00	2.50	0.50	1.25	1.75	2.00	3.25	5.75	5.00	4.50	0.25	0.75	-0.280762	0.107422	0.926758	-1.610000	6.650000	-1.330000	395.00	0.05	-0.11	2.75	1.75	2.00	2.75	2.25	2.00	0.00	1.75	2.00	2.00	1.75	1.75	2.25	2.50	0.25	0.50	-0.210938	0.110352	0.964355	-2.590000	-3.360000	2.380000	300.00	-0.02	-0.08
3.02	2.00	1.50	3.00	2.75	2.00	2.50	0.50	1.25	1.75	2.00	3.25	5.50	5.25	4.25	0.25	0.75	-0.276367	0.103516	0.933105	-1.750000	6.580000	-1.330000	398.00	0.04	-0.11	2.75	1.75	2.25	2.75	2.00	1.75	0.00	1.75	2.00	2.25	1.75	1.75	2.50	2.50	0.25	0.75	-0.213379	0.108398	0.959473	-2.590000	-3.220000	2.310000	304.00	-0.01	-0.08
3.03	2.00	1.50	2.75	2.75	2.00	2.25	0.50	1.00	1.75	2.25	3.50	5.75	5.25	4.25	0.25	0.75	-0.275879	0.104492	0.932129	-1.750000	6.650000	-1.400000	397.00	0.05	-0.11	2.50	1.75	2.00	3.00	2.00	1.75	0.00	1.50	2.00	2.00	1.75	1.50	2.25	2.50	0.00	0.50	-0.208008	0.105469	0.961914	-2.660000	-3.290000	2.450000	286.00	-0.02	-0.08
3.04	2.25	1.00	3.00	2.75	2.00	2.50	0.50	1.25	1.50	1.75	3.25	5.50	5.00	4.25	0.25	0.75	-0.279297	0.105957	0.933594	-1.610000	6.230000	-1.400000	388.00	0.04	-0.11	2.75	1.25	2.00	2.75	2.00	2.00	0.00	2.00	1.75	2.00	1.75	1.75	2.25	2.50	0.25	0.75	-0.213867	0.108887	0.959961	-2.660000	-3.150000	2.380000	295.00	-0.01	-0.09
3.05	1.75	1.00	3.00	2.50	2.00	2.50	0.50	1.00	2.00	2.00	3.25	5.50	5.00	4.50	0.00	0.75	-0.279297	0.105957	0.933594	-1.610000	6.230000	-1.400000	385.00	0.06	-0.10	3.00	1.75	2.25	3.00	2.25	2.00	0.00	1.75	2.25	2.25	1.75	1.75	2.50	2.50	0.00	0.50	-0.210449	0.104492	0.961426	-2.590000	-3.290000	2.310000	314.00	-0.02	-0.08
3.06	2.00	1.25	3.00	2.50	2.00	2.25	0.50	1.00	1.75	2.25	3.25	5.50	5.25	4.50	0.50	0.75	-0.280273	0.111328	0.930664	-1.540000	6.230000	-1.330000	394.00	0.06	-0.11	2.75	2.00	2.00	2.75	2.25	2.00	0.00	1.75	2.00	2.25	1.75	1.50	2.50	2.50	0.25	0.50	-0.212402	0.104980	0.963379	-2.590000	-3.220000	2.310000	304.00	-0.02	-0.08
3.07	2.00	1.50	3.00	2.50	2.00	2.50	0.50	1.00	1.25	2.25	3.00	5.50	5.25	4.00	0.25	0.75	-0.278809	0.105469	0.935059	-1.610000	6.370000	-1.330000	383.00	0.04	-0.12	2.75	1.75	2.25	3.00	2.25	1.75	0.00	1.50	2.00	2.25	1.75	1.75	2.50	2.50	0.25	0.50	-0.204590	0.104004	0.956055	-2.590000	-3.150000	2.240000	304.00	-0.02	-0.08
3.08	2.00	0.75	2.75	2.50	2.00	2.25	0.50	1.00	1.75	2.00	3.25	5.50	5.25	4.25	0.00	0.75	-0.278809	0.110352	0.932617	-1.680000	6.580000	-1.330000	377.00	0.06	-0.11	3.00	1.50	2.25	2.50	2.00	1.50	0.00	1.75	2.00	2.00	1.75	1.75	2.50	2.25	0.25	0.50	-0.202637	0.107422	0.958984	-2.590000	-3.290000	2.310000	292.00	-0.02	-0.08
3.09	2.00	1.25	3.00	2.50	2.00	2.25	0.50	1.25	1.75	2.00	3.00	5.75	5.00	4.25	0.25	0.75	-0.274902	0.116211	0.932129	-1.610000	6.580000	-1.400000	388.00	0.05	-0.11	2.75	1.75	2.25	3.00	2.25	1.50	0.00	1.75	2.00	2.25	1.75	1.75	2.25	2.75	0.25	0.75	-0.215820	0.109863	0.961426	-2.660000	-3.360000	2.450000	306.00	-0.01	-0.08
3.10	2.25	1.50	3.00	2.50	2.00	2.25	0.50	1.00	1.75	2.00	3.25	5.75	5.00	4.25	0.25	0.75	-0.280762	0.107910	0.933594	-1.610000	6.510000	-1.330000	392.00	0.05	-0.11	2.75	1.75	2.00	2.75	2.00	1.75	0.00	1.75	2.00	2.25	1.75	1.75	2.25	2.25	0.00	0.50	-0.208496	0.101074	0.963379	-2.660000	-3.360000	2.450000	292.00	-0.02	-0.08
3.11	2.25	1.50	3.00	2.50	2.00	2.50	0.50	1.00	1.75	2.50	3.25	5.75	5.00	4.50	0.00	0.75	-0.279785	0.107910	0.932129	-1.610000	6.370000	-1.330000	399.00	0.05	-0.10	2.75	1.50	2.25	2.50	2.25	1.75	0.00	1.75	2.25	2.25	1.75	1.75	2.50	2.50	0.00	0.50	-0.206055	0.105957	0.961426	-2.730000	-3.290000	2.310000	300.00	-0.01	-0.07
3.12	2.25	1.00	2.75	2.25	2.00	2.50	0.50	1.00	1.75	2.00	3.00	5.75	5.00	4.25	0.25	0.75	-0.277344	0.110352	0.932129	-1.610000	6.510000	-1.260000	382.00	0.05	-0.11	2.75	1.50	2.00	3.00	2.25	1.75	0.00	1.75	2.00	2.25	1.75	1.75	2.50	2.50	0.00	0.50	-0.218262	0.111328	0.958496	-2.660000	-3.150000	2.380000	300.00	-0.02	-0.08
3.13	2.00	1.50	3.00	2.50	2.00	2.25	0.50	1.00	2.00	2.00	3.25	5.50	5.25	4.25	0.25	0.75	-0.276855	0.104492	0.931641	-1.470000	6.230000	-1.330000	392.00	0.05	-0.11	2.75	1.75	2.25	2.75	2.00	1.75	0.00	1.75	2.00	2.25	1.50	1.75	2.50	2.25	0.25	0.75	-0.213379	0.105957	0.954590	-2.730000	-3.150000	2.380000	299.00	-0.02	-0.08
3.14	2.00	1.25	2.75	2.75	2.00	2.25	0.50	1.00	1.75	2.00	3.00	5.50	5.00	4.25	0.00	0.75	-0.273438	0.110840	0.933594	-1.540000	6.160000	-1.260000	379.00	0.05	-0.11	2.75	1.75	2.00	2.75	2.00	1.75	0.00	1.75	2.00	2.25	1.75	1.50	2.25	2.75	0.25	0.50	-0.208008	0.108398	0.958984	-2.590000	-3.220000	2.310000	297.00	-0.01	-0.08
3.15	2.25	1.50	3.00	2.50	2.00	2.00	0.50	1.00	1.25	2.00	3.25	5.75	5.00	4.25	0.50	1.00	-0.283691	0.106445	0.933105	-1.610000	6.370000	-1.330000	387.00	0.05	-0.11	2.75	1.75	2.00	2.75	2.00	1.75	0.00	1.75	2.00	2.25	1.75	1.50	2.25	2.50	0.00	0.50	-0.208984	0.107422	0.960938	-2.590000	-3.150000	2.380000	292.00	-0.02	-0.08
3.16	2.00	1.25	3.00	2.50	2.00	2.25	0.50	1.00	1.25	2.00	3.00	5.50	5.25	4.75	0.00	0.75	-0.277344	0.111328	0.930664	-1.540000	6.510000	-1.330000	379.00	0.05	-0.11	2.75	1.75	2.00	2.75	2.25	1.50	0.00	1.75	2.25	2.25	1.50	1.50	2.50	2.50	0.25	0.50	-0.211426	0.104004	0.960938	-2.590000	-3.220000	2.310000	297.00	-0.01	-0.07
3.17	2.00	1.00	2.75	2.50	2.00	2.25	0.50	1.00	1.75	2.25	3.00	5.50	5.25	4.25	0.50	0.75	-0.282227	0.104980	0.936035	-1.470000	6.300000	-1.190000	384.00	0.06	-0.11	2.75	1.75	2.00	3.00	2.00	1.75	0.00	1.75	2.25	2.25	2.00	1.75	2.50	2.50	0.00	0.50	-0.208008	0.108398	0.957031	-2.590000	-3.150000	2.380000	305.00	-0.01	-0.08
3.18	2.00	1.50	2.75	2.50	2.00	2.00	0.50	1.25	1.50	2.00	3.00	5.50	5.00	4.75	0.25	1.00	-0.277832	0.109863	0.935059	-1.470000	6.090000	-1.260000	385.00	0.05	-0.11	2.75	1.50	2.25	3.00	2.00	1.75	0.00	1.75	1.75	2.25	1.75	1.75	2.50	2.50	0.00	0.50	-0.209473	0.105469	0.957520	-2.520000	-3.150000	2.520000	297.00	-0.02	-0.09
3.19	2.00	1.50	2.75	2.50	2.00	2.25	0.50	1.25	1.75	2.25	3.50	5.50	5.00	4.50	0.25	0.75	-0.278320	0.110840	0.931152	-1.470000	6.020000	-1.190000	395.00	0.05	-0.11	2.75	1.75	2.00	2.75	2.25	1.50	0.00	1.75	2.00	2.00	2.00	1.50	2.75	2.50	0.00	0.50	-0.212891	0.105957	0.964844	-2.590000	-3.080000	2.450000	296.00	-0.02	-0.08
3.20	2.00	1.25	2.75	2.75	2.00	2.00	0.50	1.00	1.50	2.00	3.25	5.50	5.00	4.50	0.25	0.75	-0.276855	0.110352	0.930664	-1.540000	6.370000	-1.330000	381.00	0.05	-0.11	2.75	2.00	2.00	2.75	2.00	1.75	0.00	2.00	2.00	2.00	2.00	1.75	2.50	2.25	0.25	0.75	-0.212891	0.105957	0.959961	-2.520000	-3.080000	2.380000	305.00	-0.02	-0.09
3.21	2.00	1.50	2.75	2.50	2.00	2.25	0.50	1.00	1.50	2.25	3.25	5.75	5.25	4.25	0.25	0.75	-0.279785	0.105957	0.930176	-1.610000	6.510000	-1.400000	388.00	0.05	-0.11	2.50	1.50	2.00	2.75	2.00	1.75	0.00	1.75	1.75	2.25	1.75	2.00	2.50	2.75	0.00	0.50	-0.214355	0.104004	0.962402	-2.520000	-3.150000	2.380000	293.00	-0.01	-0.09
3.22	2.00	1.25	2.75	2.50	2.00	2.00	0.50	1.00	1.75	2.00	3.25	5.75	5.00	4.75	0.25	0.75	-0.275391	0.106934	0.931152	-1.610000	6.440000	-1.330000	386.00	0.06	-0.10	2.75	1.50	2.00	3.00	2.00	1.75	0.00	1.75	2.00	2.50	1.75	1.50	2.50	2.50	0.00	0.75	-0.208984	0.100586	0.958984	-2.520000	-3.150000	2.310000	298.00	-0.01	-0.08
3.23	2.00	1.25	3.00	2.50	2.00	2.00	0.50	1.00	1.50	2.25	3.25	5.75	5.00	4.50	0.00	0.75	-0.275391	0.115723	0.937012	-1.750000	6.510000	-1.330000	383.00	0.05	-0.11	2.50	1.75	2.25	2.50	2.25	1.75	0.00	1.75	2.00	2.25	1.75	1.75	2.50	2.75	0.00	0.75	-0.211426	0.104980	0.952637	-2.590000	-3.220000	2.380000	300.00	-0.01	-0.08
3.24	2.00	1.00	2.75	2.75	2.25	2.25	0.50	1.00	1.75	2.00	3.25	5.50	5.00	4.75	0.25	0.75	-0.277832	0.105469	0.930664	-1.610000	6.370000	-1.260000	389.00	0.06	-0.10	2.50	1.75	2.00	2.75	2.00	2.00	0.00	1.75	2.00	2.25	1.75	1.75	2.50	2.75	0.25	0.75	-0.210938	0.109863	0.959961	-2.520000	-3.150000	2.450000	303.00	-0.01	-0.09
3.25	2.00	1.75	3.00	2.50	2.00	2.25	0.50	1.00	1.75	2.25	3.25	5.50	5.00	4.50	0.25	0.75	-0.278320	0.115234	0.927734	-1.610000	6.300000	-1.330000	394.00	0.05	-0.10	2.75	1.75	2.00	2.75	2.00	1.75	0.00	1.75	2.25	2.25	1.75	1.75	2.50	2.75	0.00	0.50	-0.216797	0.108398	0.964355	-2.520000	-3.220000	2.450000	302.00	-0.01	-0.08
3.26	2.00	1.25	2.50	2.50	2.00	2.50	0.50	1.25	1.75	2.00	3.25	5.75	5.25	4.25	0.25	0.75	-0.282227	0.111816	0.935547	-1.540000	6.510000	-1.470000	390.00	0.05	-0.12	2.75	1.75	2.00	2.50	2.00	2.00	0.00	1.75	2.25	2.25	1.75	1.75	2.50	2.50	0.00	0.75	-0.209961	0.104980	0.961914	-2.450000	-3.220000	2.450000	301.00	-0.01	-0.08
3.27	2.00	1.25	3.00	2.75	1.75	2.00	0.50	1.00	2.00	2.25	3.50	5.75	5.25	4.50	0.00	0.75	-0.280273	0.108398	0.928711	-1.610000	6.370000	-1.400000	395.00	0.06	-0.10	2.75	1.75	2.00	2.50	2.00	2.00	0.00	1.75	2.00	2.25	2.00	1.50	2.25	2.75	0.25	0.50	-0.207520	0.108398	0.959473	-2.590000	-3.220000	2.310000	299.00	-0.01	-0.08
3.28	1.75	1.25	2.75	2.25	2.00	2.00	0.50	1.00	1.75	2.00	3.25	5.50	5.25	4.75	0.25	1.00	-0.278809	0.105957	0.931641	-1.610000	6.370000	-1.330000	381.00	0.07	-0.11	2.50	1.50	2.00	2.75	2.25	2.00	0.00	1.75	2.25	2.25	1.75	1.75	2.75	2.50	0.00	0.50	-0.208496	0.108398	0.961914	-2.520000	-3.290000	2.380000	303.00	-0.01	-0.08
3.29	2.00	1.25	3.00	2.25	2.00	2.25	0.50	1.00	1.75	2.00	3.25	5.50	5.25	4.25	0.25	0.75	-0.274902	0.106445	0.935547	-1.540000	6.370000	-1.190000	384.00	0.05	-0.11	2.75	2.00	2.00	2.75	2.25	2.00	0.00	1.75	2.00	2.00	1.75	1.50	2.50	2.50	0.25	0.50	-0.212402	0.104004	0.963379	-2.660000	-3.080000	2.380000	302.00	-0.02	-0.08
3.30	2.25	1.50	2.75	2.25	2.00	2.25	0.50	1.00	1.75	2.25	3.00	5.50	5.00	4.25	0.25	0.75	-0.278320	0.108398	0.933105	-1.470000	6.440000	-1.400000	384.00	0.05	-0.10	2.75	1.50	2.00	2.50	2.25	2.00	0.00	1.75	2.00	2.25	1.75	2.00	2.50	2.50	0.25	0.50	-0.215820	0.104004	0.961426	-2.520000	-3.080000	2.380000	302.00	-0.01	-0.08
3.31	2.00	1.50	3.00	2.50	2.00	2.25	0.50	1.00	1.75	2.00	3.25	5.50	5.00	4.25	0.25	0.75	-0.277344	0.111328	0.929688	-1.470000	6.510000	-1.470000	387.00	0.05	-0.11	2.75	1.75	2.00	2.75	2.25	1.75	0.00	1.50	2.00	2.25	1.75	1.75	2.50	2.75	0.25	0.50	-0.208496	0.105469	0.960449	-2.310000	-2.940000	2.520000	300.00	-0.01	-0.08
3.32	2.25	0.75	3.00	2.50	2.00	2.25	0.50	1.00	1.75	2.00	3.25	5.50	5.00	4.75	0.25	0.75	-0.275879	0.112305	0.930664	-1.540000	6.370000	-1.260000	387.00	0.06	-0.10	2.50	1.00	2.25	2.50	2.00	1.75	0.00	1.75	2.25	2.25	2.00	1.75	2.25	2.50	0.00	0.75	-0.211426	0.110840	0.958496	-2.170000	-2.870000	2.450000	292.00	0.00	-0.07
3.33	2.00	1.50	2.75	2.50	2.00	2.25	0.50	1.00	1.50	1.75	3.25	5.50	5.00	4.25	0.25	1.00	-0.281250	0.108887	0.933594	-1.610000	6.510000	-1.330000	379.00	0.05	-0.11	2.75	1.75	2.25	3.00	2.00	1.75	0.00	2.00	2.25	2.25	1.75	1.75	2.50	2.50	0.00	0.50	-0.208496	0.111328	0.959961	-2.240000	-2.870000	2.450000	309.00	-0.02	-0.08
3.34	2.00	1.50	3.00	2.50	2.00	2.50	0.50	1.00	1.75	2.25	3.25	5.50	5.00	4.50	0.00	0.75	-0.276855	0.108398	0.933594	-1.680000	6.580000	-1.330000	392.00	0.05	-0.11	2.75	1.75	2.00	2.75	2.00	1.75	0.00	1.75	2.25	2.50	1.75	1.75	2.50	2.50	0.00	0.75	-0.210449	0.104492	0.961426	-2.380000	-3.010000	2.520000	304.00	-0.01	-0.08
3.35	2.00	1.50	2.75	2.25	2.00	2.50	0.50	1.00	2.00	2.00	3.00	5.50	5.00	4.75	0.25	0.75	-0.273926	0.112305	0.933105	-1.750000	6.510000	-1.330000	389.00	0.06	-0.10	2.75	1.75	2.00	2.75	2.00	1.75	0.00	1.75	2.00	2.25	1.75	1.50	2.50	2.50	0.25	0.75	-0.211914	0.107910	0.962891	-2.310000	-2.940000	2.380000	298.00	-0.01	-0.08
3.36	2.25	1.50	2.75	2.75	2.00	2.25	0.50	1.00	1.50	2.00	3.00	5.50	5.00	4.50	0.00	0.75	-0.278809	0.108398	0.936523	-1.750000	6.300000	-1.330000	383.00	0.04	-0.11	2.75	1.50	2.00	2.25	2.00	1.75	0.00	2.00	2.00	2.50	2.00	1.75	2.50	2.75	0.25	0.50	-0.211914	0.112793	0.963867	-2.380000	-2.940000	2.380000	303.00	0.00	-0.08
3.37	2.00	1.50	2.75	2.25	2.00	2.00	0.50	1.25	1.75	2.00	3.25	5.50	5.00	4.00	0.25	0.75	-0.280273	0.109863	0.931641	-1.750000	6.230000	-1.330000	380.00	0.05	-0.11	2.50	1.75	2.00	2.75	2.00	1.75	0.00	1.75	2.00	2.25	1.75	1.75	2.50	2.50	0.25	0.50	-0.213379	0.107910	0.960449	-2.380000	-3.080000	2.310000	297.00	-0.01	-0.08
3.38	2.00	1.25	3.00	2.50	2.00	2.25	0.50	1.25	2.00	1.75	3.25	5.50	5.00	4.50	0.25	0.75	-0.278809	0.111328	0.939453	-1.750000	6.300000	-1.330000	391.00	0.05	-0.11	2.75	2.00	2.00	2.75	2.00	1.75	0.00	2.00	1.75	2.50	1.50	1.50	2.50	2.50	0.00	0.75	-0.210938	0.104492	0.962891	-2.380000	-3.080000	2.450000	298.00	-0.02	-0.09
3.39	2.25	1.25	2.75	2.50	2.00	2.25	0.50	1.00	1.50	2.00	3.25	5.75	5.00	4.50	0.25	0.75	-0.280273	0.108887	0.930176	-1.890000	6.650000	-1.470000	386.00	0.05	-0.11	2.50	1.75	1.75	2.75	2.25	1.75	0.00	1.75	2.00	2.25	2.00	1.75	2.50	2.50	0.25	0.50	-0.210938	0.110352	0.961426	-2.380000	-3.150000	2.520000	299.00	-0.01	-0.09
3.40	2.00	1.50	2.75	2.50	2.00	2.25	0.50	1.25	2.00	2.00	3.25	5.75	5.00	4.50	0.25	0.75	-0.276855	0.107910	0.933105	-2.030000	6.790000	-1.470000	396.00	0.05	-0.11	2.50	1.50	2.00	2.50	2.00	1.75	0.00	1.75	2.25	2.50	1.75	1.75	2.25	2.75	0.25	0.50	-0.208496	0.104492	0.957520	-2.450000	-3.220000	2.590000	298.00	0.00	-0.07
3.41	2.00	1.25	3.00	2.50	2.00	2.00	0.50	1.00	1.75	2.25	3.25	5.50	4.75	4.75	0.25	0.75	-0.285156	0.104980	0.930664	-1.540000	6.440000	-1.400000	386.00	0.06	-0.10	2.75	2.00	2.00	2.75	2.00	1.75	0.00	2.00	2.25	2.00	1.50	1.75	2.75	2.25	0.25	0.50	-0.211426	0.109375	0.967285	-2.520000	-3.150000	2.380000	304.00	-0.02	-0.09
3.42	1.75	1.00	2.75	2.50	2.00	2.25	0.50	1.00	1.50	2.00	3.25	5.50	4.75	4.50	0.25	0.75	-0.281250	0.105957	0.931641	-1.470000	6.300000	-1.330000	373.00	0.06	-0.11	2.75	1.75	2.00	2.75	2.25	1.75	0.00	2.00	2.00	2.50	1.75	1.50	2.75	2.50	0.00	0.75	-0.208496	0.101074	0.960938	-2.590000	-3.150000	2.520000	307.00	-0.01	-0.09
3.43	2.00	1.25	2.75	2.75	2.00	2.25	0.50	1.00	1.75	2.00	3.50	5.50	4.50	4.50	0.00	0.75	-0.278809	0.107422	0.932129	-1.680000	6.300000	-1.330000	382.00	0.05	-0.10	2.75	1.75	2.00	2.75	2.00	2.00	0.00	2.00	2.00	2.25	1.75	1.75	2.50	2.50	0.25	0.50	-0.213867	0.106934	0.958984	-2.520000	-3.290000	2.450000	306.00	-0.01	-0.09
3.44	2.00	1.50	2.75	2.25	2.00	2.00	0.50	1.00	1.75	2.00	3.00	5.50	5.00	4.50	0.25	0.75	-0.280273	0.105957	0.932129	-1.680000	6.090000	-1.330000	378.00	0.05	-0.10	2.75	1.75	2.00	2.75	2.00	2.00	0.00	1.75	1.75	2.25	1.75	1.75	2.50	2.50	0.00	0.75	-0.210938	0.104492	0.956543	-2.590000	-3.360000	2.380000	298.00	-0.02	-0.09
3.45	2.00	1.00	2.75	2.50	2.00	2.25	0.50	1.00	2.00	2.00	3.25	5.50	4.75	4.50	0.25	0.75	-0.278809	0.104492	0.932617	-1.610000	6.300000	-1.400000	383.00	0.06	-0.10	2.75	1.75	2.00	2.75	2.00	1.75	0.00	1.75	2.25	2.25	1.75	1.75	2.50	2.50	0.25	0.75	-0.210938	0.110840	0.965332	-2.660000	-3.430000	2.380000	304.00	-0.01	-0.08
3.46	2.00	1.25	3.00	2.50	2.00	2.00	0.50	1.00	1.50	2.25	3.50	5.50	4.50	4.75	0.25	0.75	-0.276855	0.108887	0.931641	-1.680000	6.090000	-1.260000	384.00	0.06	-0.10	2.75	1.75	2.25	2.50	2.00	2.00	0.00	1.75	2.25	2.25	1.75	2.00	2.50	2.50	0.25	0.50	-0.209961	0.103027	0.966309	-2.660000	-3.220000	2.450000	308.00	-0.01	-0.08
3.47	2.25	1.25	2.75	2.50	2.00	2.00	0.50	1.00	1.75	2.00	3.25	5.75	4.50	4.50	0.25	0.75	-0.279297	0.107910	0.935059	-1.610000	6.370000	-1.470000	382.00	0.05	-0.10	2.50	1.75	2.00	2.75	2.25	2.00	0.00	1.75	2.00	2.25	2.00	2.00	2.50	2.50	0.00	0.75	-0.217285	0.109375	0.962891	-2.660000	-3.360000	2.520000	306.00	-0.01	-0.09
3.48	2.00	1.00	2.75	2.25	2.00	2.25	0.50	1.00	1.75	2.00	3.00	5.75	4.75	4.50	0.00	0.75	-0.276855	0.109375	0.932129	-1.610000	6.300000	-1.400000	374.00	0.06	-0.10	2.75	1.75	2.00	3.25	2.25	1.75	0.00	2.00	2.00	2.25	2.00	1.50	2.50	2.75	0.25	0.75	-0.211426	0.110840	0.962891	-2.660000	-3.290000	2.380000	315.00	-0.01	-0.09
3.49	1.75	1.25	2.75	2.50	2.00	2.25	0.50	1.00	2.00	2.00	3.00	5.50	4.75	4.75	0.00	0.75	-0.276367	0.106934	0.932129	-1.750000	6.440000	-1.470000	379.00	0.06	-0.10	2.50	1.50	2.00	3.00	2.00	2.00	0.00	1.75	2.00	2.25	1.75	1.50	2.75	2.75	0.25	0.75	-0.210938	0.108398	0.957520	-2.590000	-3.220000	2.450000	303.00	-0.01	-0.09
3.50	2.00	1.25	2.75	2.25	2.00	2.00	0.50	1.00	1.75	2.00	3.00	5.50	4.50	4.50	0.50	0.75	-0.278809	0.107422	0.929199	-1.610000	6.510000	-1.330000	374.00	0.06	-0.10	2.50	1.75	2.00	2.50	2.00	2.00	0.00	2.00	2.00	2.25	1.75	1.75	2.75	2.25	0.25	0.50	-0.212891	0.100586	0.967773	-2.660000	-3.290000	2.450000	301.00	-0.01	-0.09
3.51	2.00	1.50	3.00	2.50	2.00	2.00	0.50	1.00	2.00	1.75	3.25	5.50	4.75	4.50	0.25	0.75	-0.279785	0.107422	0.937012	-1.750000	6.650000	-1.260000	385.00	0.05	-0.10	2.50	1.75	2.00	2.50	2.00	2.00	0.00	2.00	2.00	2.25	2.00	1.75	2.50	2.50	0.25	0.75	-0.210938	0.106445	0.958984	-2.590000	-3.150000	2.450000	305.00	-0.00	-0.09
3.52	1.75	1.25	2.75	2.25	1.75	2.00	0.50	1.00	2.00	2.00	3.50	5.75	4.50	4.50	0.25	0.75	-0.278320	0.106445	0.934570	-1.610000	6.580000	-1.470000	377.00	0.07	-0.10	2.75	1.50	2.00	2.75	2.00	2.00	0.00	2.00	2.00	2.25	1.75	1.75	2.75	2.50	0.00	0.50	-0.210449	0.109375	0.961914	-2.520000	-3.150000	2.380000	303.00	-0.01	-0.09
3.53	2.00	1.25	2.50	2.25	2.00	2.25	0.50	1.25	1.50	2.25	3.25	5.50	4.50	4.50	0.25	0.75	-0.274414	0.106445	0.929688	-1.540000	6.510000	-1.400000	377.00	0.06	-0.11	2.50	1.50	1.75	2.75	2.00	2.00	0.00	2.00	2.25	2.25	1.75	1.75	2.75	2.50	0.00	0.50	-0.214355	0.107910	0.960938	-2.590000	-3.220000	2.380000	301.00	-0.01	-0.09
3.54	2.00	1.00	2.75	2.50	2.00	2.00	0.50	1.00	1.75	2.25	3.25	5.50	4.50	4.50	0.25	0.75	-0.281738	0.108398	0.930176	-1.680000	6.720000	-1.330000	377.00	0.06	-0.10	2.50	1.75	2.00	2.75	2.25	1.50	0.00	2.00	2.00	2.25	2.00	1.75	2.50	2.75	0.25	0.75	-0.214844	0.109375	0.968750	-2.730000	-3.360000	2.380000	307.00	-0.00	-0.08
3.55	1.75	1.25	2.75	2.00	2.00	2.25	0.50	1.00	2.00	2.25	3.25	5.75	4.50	4.75	0.25	0.75	-0.281738	0.112793	0.934082	-1.610000	6.370000	-1.330000	382.00	0.07	-0.10	2.50	1.75	2.00	3.00	2.00	2.25	0.00	2.00	2.00	2.25	2.00	2.00	2.50	2.75	0.25	0.50	-0.207031	0.104492	0.960449	-2.730000	-3.360000	2.450000	316.00	-0.01	-0.09
3.56	2.00	1.00	2.75	1.75	1.75	2.00	0.50	1.00	1.75	2.50	3.25	5.50	4.50	4.50	0.25	0.75	-0.283691	0.107910	0.933105	-1.470000	6.510000	-1.260000	369.00	0.07	-0.10	2.50	1.50	2.00	2.75	2.25	2.25	0.00	2.00	2.00	2.50	1.75	1.75	2.75	2.75	0.50	0.75	-0.210938	0.111328	0.958984	-2.730000	-3.220000	2.310000	317.00	0.00	-0.09
3.57	2.00	1.25	3.00	2.25	2.00	2.00	0.50	1.00	1.75	2.00	3.25	5.50	4.50	4.50	0.25	0.75	-0.279297	0.105469	0.928711	-1.470000	6.440000	-1.260000	377.00	0.06	-0.10	2.75	1.50	2.00	2.75	2.00	2.00	0.00	2.00	2.25	2.25	2.00	1.75	2.75	2.75	0.25	0.50	-0.208496	0.108398	0.964355	-2.730000	-3.220000	2.380000	314.00	-0.00	-0.09
3.58	2.00	1.25	2.50	2.25	2.00	2.00	0.50	1.00	1.75	2.25	3.25	5.50	4.50	4.25	0.25	0.75	-0.279785	0.104492	0.937500	-1.540000	6.510000	-1.330000	372.00	0.06	-0.10	2.50	1.50	1.75	2.75	2.00	1.75	0.00	2.00	2.25	2.25	2.00	2.00	3.00	2.50	0.00	0.75	-0.211914	0.104492	0.952148	-2.590000	-3.150000	2.450000	307.00	0.00	-0.09
3.59	2.00	1.00	2.75	2.50	2.00	2.00	0.50	1.00	1.75	2.00	3.00	5.50	4.50	4.50	0.25	0.75	-0.279785	0.113281	0.937012	-1.540000	6.440000	-1.330000	372.00	0.06	-0.10	2.75	1.50	2.25	2.50	2.00	2.00	0.00	2.00	2.25	2.50	2.00	2.00	2.75	2.50	0.25	0.50	-0.210449	0.107910	0.956543	-2.590000	-3.150000	2.450000	317.00	-0.00	-0.08
3.60	1.75	1.00	2.75	2.00	2.00	2.00	0.50	1.00	2.00	2.00	3.25	5.50	4.50	4.50	0.00	0.75	-0.281738	0.109863	0.937012	-1.330000	6.370000	-1.330000	367.00	0.07	-0.10	2.50	1.50	1.75	2.75	2.25	1.50	0.00	2.00	2.25	2.50	2.25	2.00	2.75	2.75	0.00	0.75	-0.213867	0.110352	0.957520	-2.590000	-3.150000	2.240000	312.00	0.01	-0.09
3.61	2.00	1.25	2.75	2.50	2.00	2.00	0.50	1.00	1.75	2.00	3.25	5.25	4.50	4.50	0.25	0.75	-0.271973	0.111328	0.937012	-1.470000	6.370000	-1.330000	374.00	0.05	-0.10	2.50	1.50	2.00	2.75	2.25	2.00	0.00	2.00	2.00	2.50	2.25	2.00	2.75	2.75	0.25	0.75	-0.210449	0.110352	0.960449	-2.590000	-3.290000	2.520000	320.00	0.00	-0.09
3.62	2.00	1.25	2.75	2.00	2.00	2.00	0.50	1.00	1.75	2.00	3.00	5.50	4.50	5.00	0.25	0.75	-0.283203	0.101074	0.935547	-1.680000	6.650000	-1.400000	373.00	0.06	-0.10	2.50	1.50	2.00	2.75	2.00	1.75	0.00	1.75	2.25	2.75	2.25	2.00	2.50	2.75	0.00	0.75	-0.214844	0.101562	0.961914	-2.520000	-3.290000	2.450000	312.00	0.01	-0.08
3.63	2.00	0.75	2.75	2.00	2.00	2.00	0.50	1.00	1.75	2.00	3.25	5.50	4.50	4.25	0.50	0.75	-0.281250	0.104492	0.936035	-1.680000	6.650000	-1.330000	367.00	0.07	-0.10	2.25	1.75	1.75	2.75	2.00	2.00	0.00	2.25	2.25	2.75	2.00	2.25	2.75	3.00	0.50	0.75	-0.209961	0.099609	0.960938	-2.520000	-3.220000	2.380000	329.00	0.02	-0.09
3.64	1.75	0.75	2.75	2.25	1.75	1.75	0.50	1.00	2.00	2.25	3.25	5.50	4.50	4.50	0.00	0.75	-0.275879	0.102539	0.927734	-1.610000	6.580000	-1.400000	365.00	0.07	-0.10	2.25	1.50	1.75	2.25	2.00	1.75	0.00	2.00	2.50	2.75	2.00	2.00	3.00	2.75	0.25	0.75	-0.212402	0.105469	0.959961	-2.520000	-3.150000	2.380000	312.00	0.02	-0.08
3.65	1.75	1.00	2.75	2.25	2.00	1.75	0.50	1.00	1.75	2.25	3.25	5.50	4.75	4.75	0.00	0.75	-0.279785	0.101074	0.931641	-1.610000	6.370000	-1.330000	371.00	0.07	-0.10	2.25	1.25	2.00	2.75	2.00	1.75	0.00	2.00	2.50	2.50	2.00	2.00	2.75	3.00	0.25	0.75	-0.211914	0.106934	0.964355	-2.520000	-3.010000	2.380000	316.00	0.02	-0.08
3.66	2.00	1.25	2.50	2.00	2.00	1.75	0.50	1.00	1.75	2.25	3.25	5.50	4.50	4.50	0.25	0.75	-0.282715	0.105469	0.934570	-1.610000	6.440000	-1.400000	368.00	0.07	-0.10	2.50	1.50	1.75	2.75	2.00	2.00	0.00	2.00	2.25	2.50	2.00	2.00	2.75	2.75	0.25	0.50	-0.212402	0.106934	0.963379	-2.450000	-3.010000	2.380000	314.00	0.01	-0.09
3.67	2.00	1.00	2.50	2.25	2.00	2.00	0.50	1.00	2.00	2.25	3.50	5.50	4.25	4.50	0.25	0.75	-0.276855	0.111816	0.935059	-1.610000	6.300000	-1.330000	375.00	0.07	-0.09	2.25	1.25	1.75	2.75	2.25	1.75	0.00	2.25	2.50	2.75	2.50	2.25	2.75	2.75	0.25	0.75	-0.210449	0.106445	0.960938	-2.450000	-3.010000	2.380000	328.00	0.02	-0.09
3.68	1.75	1.00	2.75	2.25	2.00	1.75	0.50	1.00	2.00	2.00	3.50	5.50	4.50	4.50	0.50	0.75	-0.277832	0.109863	0.930176	-1.680000	6.510000	-1.330000	375.00	0.07	-0.10	2.50	1.25	2.00	2.75	2.00	1.75	0.00	2.25	2.50	2.50	2.00	2.00	2.75	2.50	0.25	0.75	-0.212891	0.109375	0.959473	-2.520000	-3.150000	2.380000	318.00	0.01	-0.09
3.69	2.00	1.25	2.75	2.00	1.75	1.75	0.50	1.00	1.75	2.00	3.25	5.50	4.50	4.25	0.25	0.75	-0.276367	0.108887	0.937500	-1.540000	6.370000	-1.330000	364.00	0.06	-0.10	2.50	1.50	1.75	2.25	2.25	2.00	0.00	2.00	2.25	2.75	2.25	2.00	3.00	2.75	0.25	0.75	-0.214844	0.114746	0.961426	-2.520000	-3.150000	2.450000	320.00	0.02	-0.09
3.70	1.75	1.50	2.75	2.25	2.00	1.75	0.50	1.00	2.00	2.00	3.25	5.50	4.50	4.50	0.25	0.75	-0.273438	0.112793	0.938477	-1.610000	6.300000	-1.400000	374.00	0.06	-0.10	2.25	1.50	1.75	2.25	2.00	2.00	0.00	2.25	2.25	2.50	2.25	2.00	3.00	2.75	0.25	0.75	-0.205566	0.112793	0.962891	-2.450000	-3.080000	2.450000	316.00	0.02	-0.10
3.71	1.75	1.25	2.50	2.50	1.75	2.00	0.50	1.00	1.75	2.25	3.25	5.50	4.50	4.50	0.25	0.75	-0.277344	0.109375	0.934082	-1.610000	6.370000	-1.260000	371.00	0.06	-0.10	2.25	1.25	1.75	2.50	2.25	2.00	0.00	2.00	2.25	2.50	2.25	2.00	3.00	2.75	0.25	0.75	-0.208496	0.110840	0.963379	-2.450000	-3.220000	2.450000	315.00	0.02	-0.09
3.72	2.00	1.25	2.75	2.00	2.00	2.00	0.50	1.00	1.75	2.25	3.25	5.50	4.50	4.50	0.00	0.75	-0.273926	0.109375	0.931641	-1.610000	6.440000	-1.260000	371.00	0.06	-0.10	2.25	1.50	2.25	2.00	2.25	1.75	0.00	2.25	2.25	2.50	2.50	2.25	2.75	2.75	0.25	0.75	-0.212402	0.105957	0.958496	-2.590000	-3.290000	2.450000	321.00	0.02	-0.09
3.73	1.75	1.00	2.50	2.25	2.00	2.00	0.50	1.00	2.00	2.25	3.25	5.50	4.50	4.50	0.25	0.75	-0.280762	0.105469	0.932617	-1.540000	6.370000	-1.330000	372.00	0.07	-0.10	2.25	1.50	1.75	2.25	2.00	1.75	0.00	2.25	2.50	2.50	2.25	1.75	3.00	3.00	0.25	0.75	-0.207031	0.109863	0.962402	-2.520000	-3.150000	2.520000	316.00	0.02	-0.09
3.74	2.00	1.25	2.75	2.25	2.00	1.75	0.50	1.00	2.00	2.00	3.25	5.50	4.25	4.50	0.25	0.75	-0.280273	0.107422	0.933594	-1.610000	6.440000	-1.330000	372.00	0.06	-0.09	2.25	1.25	1.75	2.50	2.00	1.75	0.00	2.25	2.25	2.50	2.50	2.25	2.75	2.75	0.00	0.75	-0.212891	0.102051	0.958984	-2.450000	-3.080000	2.450000	314.00	0.02	-0.09
3.75	2.00	1.00	2.75	2.25	2.00	2.00	0.50	1.00	2.00	2.25	3.25	5.50	4.50	4.75	0.25	0.75	-0.277344	0.114258	0.938477	-1.680000	6.510000	-1.330000	380.00	0.07	-0.09	2.25	1.25	1.75	3.00	2.25	1.75	0.00	2.25	2.75	2.50	2.25	2.00	2.75	3.00	0.25	0.75	-0.213379	0.108398	0.965332	-2.450000	-3.080000	2.380000	328.00	0.02	-0.08
3.76	1.75	1.25	2.50	2.25	2.00	1.75	0.50	1.00	1.75	2.00	3.25	5.50	4.50	4.00	0.25	0.75	-0.280273	0.105957	0.936523	-1.610000	6.300000	-1.400000	362.00	0.06	-0.10	2.25	1.50	1.50	2.00	2.00	1.75	0.00	2.00	2.50	2.50	2.00	2.25	3.00	2.75	0.00	0.75	-0.210938	0.102051	0.958984	-2.450000	-3.150000	2.380000	304.00	0.03	-0.09
3.77	1.75	1.00	2.50	2.00	1.75	2.00	0.50	1.00	2.25	2.25	3.50	5.50	4.50	5.00	0.25	0.75	-0.278320	0.108398	0.932617	-1.610000	6.510000	-1.470000	377.00	0.08	-0.09	2.25	1.50	1.75	2.50	2.00	2.00	0.00	2.25	2.50	2.50	2.25	2.25	3.00	2.75	0.25	0.75	-0.209473	0.107910	0.961914	-2.450000	-3.150000	2.380000	324.00	0.02	-0.09
3.78	2.00	1.00	2.50	2.25	1.75	1.50	0.50	1.00	2.00	2.00	3.25	5.50	4.50	4.50	0.25	0.75	-0.273926	0.110352	0.933594	-1.610000	6.370000	-1.260000	364.00	0.07	-0.10	2.25	1.25	2.00	2.50	2.00	1.75	0.00	2.25	2.50	2.50	2.00	2.00	3.25	2.50	0.25	0.75	-0.214355	0.109375	0.960449	-2.520000	-3.080000	2.450000	317.00	0.02	-0.09
3.79	1.75	1.25	2.50	2.00	1.75	2.00	0.50	1.00	2.25	2.25	3.25	5.25	4.50	4.50	0.00	0.75	-0.278320	0.107910	0.932617	-1.610000	6.300000	-1.190000	367.00	0.07	-0.09	2.00	1.50	2.00	2.50	2.00	1.75	0.00	2.25	2.75	2.75	2.25	2.25	2.75	2.75	0.25	0.75	-0.210938	0.106445	0.969238	-2.520000	-3.220000	2.520000	325.00	0.03	-0.09
3.80	1.50	1.00	2.50	2.00	2.00	2.00	0.50	1.00	2.00	2.00	3.25	5.50	4.50	4.75	0.25	0.75	-0.280273	0.108398	0.933105	-1.540000	6.370000	-1.330000	366.00	0.08	-0.10	2.50	1.25	1.75	2.50	2.25	2.00	0.00	2.00	2.25	2.50	2.25	2.25	3.00	2.75	0.25	0.50	-0.213379	0.107910	0.962402	-2.450000	-3.150000	2.450000	319.00	0.02	-0.09
3.81	2.00	1.25	2.50	2.25	2.00	1.75	0.50	1.00	2.00	2.25	3.25	5.50	4.50	4.50	0.50	0.75	-0.280762	0.106445	0.934082	-1.750000	6.510000	-1.470000	377.00	0.07	-0.10	2.25	1.25	2.00	2.50	2.25	1.50	0.00	2.25	2.50	2.75	2.00	2.00	3.00	2.75	0.25	0.50	-0.209473	0.113281	0.959473	-2.380000	-3.080000	2.520000	318.00	0.02	-0.08
3.82	1.75	1.25	2.75	2.25	2.00	1.75	0.50	1.00	2.00	2.00	3.25	5.25	4.50	4.75	0.50	0.75	-0.277344	0.106934	0.929199	-1.820000	6.720000	-1.470000	374.00	0.07	-0.09	2.25	1.25	2.00	2.50	2.00	1.75	0.00	2.00	2.50	2.50	2.25	1.75	3.00	2.75	0.25	0.75	-0.214844	0.105469	0.959961	-2.590000	-3.150000	2.450000	313.00	0.02	-0.08
3.83	1.75	1.25	2.75	2.00	2.00	1.75	0.50	1.00	1.75	2.00	3.50	5.25	4.25	4.50	0.50	0.75	-0.287109	0.106934	0.929688	-1.540000	6.510000	-1.260000	366.00	0.07	-0.10	2.50	1.50	1.75	2.50	2.25	2.00	0.00	2.25	2.50	2.75	2.25	2.00	3.00	2.75	0.25	0.75	-0.207031	0.104004	0.954590	-2.660000	-3.290000	2.450000	329.00	0.02	-0.09
3.84	1.75	1.00	2.75	2.25	2.00	1.75	0.50	1.00	2.25	2.25	3.25	5.25	4.25	4.75	0.25	0.75	-0.283203	0.108398	0.936523	-1.470000	6.440000	-1.330000	373.00	0.07	-0.09	2.25	1.25	2.00	2.25	2.00	1.75	0.00	2.25	2.50	3.00	2.00	2.00	3.50	3.00	0.25	0.75	-0.214844	0.110352	0.965332	-2.520000	-3.290000	2.310000	326.00	0.03	-0.09
3.85	2.00	1.00	2.50	2.00	2.00	1.75	0.50	1.00	1.75	2.00	3.50	5.75	4.50	4.50	0.25	0.75	-0.280273	0.112793	0.936035	-1.470000	6.580000	-1.400000	369.00	0.07	-0.10	2.25	1.25	1.75	2.25	2.25	1.75	0.00	2.25	2.50	2.75	2.00	2.25	3.25	2.75	0.25	0.75	-0.210449	0.104492	0.964844	-2.590000	-3.220000	2.450000	321.00	0.03	-0.09
3.86	1.75	1.00	2.50	2.00	2.00	1.75	0.50	1.00	1.75	2.25	3.25	5.50	4.25	4.50	0.25	0.75	-0.279297	0.111328	0.940918	-1.540000	6.580000	-1.470000	361.00	0.07	-0.10	2.25	1.25	1.75	2.25	2.25	1.75	0.00	2.25	2.75	2.75	2.25	2.25	2.75	2.75	0.25	0.75	-0.207520	0.100098	0.964355	-2.590000	-3.290000	2.450000	323.00	0.03	-0.08
3.87	1.75	1.00	2.75	2.25	2.00	2.00	0.50	1.00	2.00	2.25	3.25	5.50	4.50	5.00	0.25	0.75	-0.281250	0.105469	0.932129	-1.610000	6.510000	-1.400000	379.00	0.07	-0.09	2.50	1.75	2.00	2.50	2.25	2.00	0.00	2.25	2.50	2.50	2.25	2.25	3.00	3.00	0.25	0.75	-0.209473	0.105469	0.960449	-2.590000	-3.220000	2.380000	337.00	0.01	-0.09
3.88	1.75	1.25	2.75	2.25	2.00	1.75	0.50	1.00	2.00	2.00	3.25	5.50	4.50	4.75	0.25	0.75	-0.280273	0.109375	0.933594	-1.610000	6.300000	-1.260000	374.00	0.07	-0.10	2.50	1.25	1.75	2.00	2.00	2.00	0.00	2.25	2.50	2.75	2.25	2.00	3.00	3.00	0.25	1.00	-0.213379	0.105957	0.959961	-2.450000	-3.080000	2.520000	322.00	0.03	-0.09
3.89	2.00	1.00	2.75	2.00	2.00	1.75	0.50	1.00	2.25	2.25	3.25	5.50	4.50	4.50	0.25	0.75	-0.280273	0.109375	0.933594	-1.610000	6.300000	-1.260000	375.00	0.07	-0.09	2.25	1.25	1.75	2.25	2.25	2.00	0.00	2.25	2.50	2.75	2.25	2.00	2.75	2.75	0.25	0.75	-0.208984	0.108398	0.961426	-2.520000	-3.150000	2.520000	320.00	0.02	-0.09
3.90	1.75	1.25	2.50	2.00	2.00	1.50	0.50	1.00	2.00	2.25	3.25	5.50	4.50	4.50	0.25	0.75	-0.280762	0.110840	0.933594	-1.540000	6.160000	-1.400000	366.00	0.07	-0.09	2.25	1.25	1.50	2.50	2.25	1.75	0.00	2.00	2.50	2.50	2.25	2.25	3.00	2.50	0.25	0.75	-0.212402	0.108398	0.961914	-2.380000	-3.080000	2.520000	313.00	0.02	-0.09
3.91	1.50	1.25	2.50	2.25	1.75	2.00	0.50	1.00	2.00	2.25	3.50	5.75	4.50	4.50	0.25	0.75	-0.278320	0.110840	0.936523	-1.680000	6.510000	-1.540000	374.00	0.07	-0.10	2.25	1.25	2.00	2.25	2.00	1.75	0.00	2.25	2.75	2.75	2.25	2.00	3.00	2.75	0.25	0.75	-0.210938	0.110840	0.966797	-2.450000	-3.150000	2.450000	322.00	0.03	-0.08
3.92	2.00	1.00	2.50	1.50	1.75	1.75	0.50	1.00	1.75	2.25	3.25	5.50	4.25	4.75	0.25	0.75	-0.277832	0.108398	0.932617	-1.680000	6.440000	-1.400000	358.00	0.08	-0.09	2.50	1.25	2.25	2.75	2.25	1.50	0.00	2.25	2.75	2.75	2.25	2.25	3.25	3.00	0.25	0.75	-0.212891	0.104980	0.958984	-2.520000	-3.080000	2.310000	340.00	0.02	-0.08
3.93	1.75	1.25	2.75	1.75	2.00	2.00	0.25	1.00	1.75	2.50	3.25	5.50	4.50	5.00	0.25	0.75	-0.277344	0.109375	0.932617	-1.610000	6.300000	-1.400000	372.00	0.07	-0.10	2.25	1.75	1.75	2.75	2.25	1.75	0.00	2.25	2.75	3.00	2.25	2.25	3.00	2.75	0.25	0.75	-0.209961	0.098633	0.959961	-2.520000	-3.080000	2.450000	338.00	0.02	-0.09
3.94	2.00	1.25	2.50	2.00	2.00	2.00	0.50	1.00	2.25	2.25	3.25	5.50	4.50	4.50	0.25	0.75	-0.277832	0.111816	0.932617	-1.610000	6.300000	-1.330000	378.00	0.07	-0.09	2.00	1.25	1.75	2.50	2.00	2.00	0.00	2.25	2.50	2.75	2.25	2.00	3.00	2.75	0.75	0.75	-0.210449	0.102539	0.961426	-2.660000	-3.150000	2.520000	324.00	0.03	-0.09
3.95	1.75	1.00	2.75	2.25	2.00	1.75	0.50	1.00	1.75	2.25	3.25	5.50	4.50	4.75	0.25	0.75	-0.277832	0.104492	0.931641	-1.540000	6.230000	-1.330000	371.00	0.07	-0.10	2.25	1.00	1.50	2.25	2.00	2.00	0.00	2.25	2.50	2.75	2.25	2.25	3.25	2.75	0.25	0.75	-0.209473	0.105469	0.963867	-2.660000	-3.080000	2.240000	319.00	0.04	-0.10
3.96	2.00	1.25	2.50	2.00	2.00	1.75	0.50	1.00	2.00	2.25	3.50	5.50	4.50	4.50	0.25	0.75	-0.276367	0.106934	0.932129	-1.540000	6.300000	-1.330000	374.00	0.07	-0.09	2.25	1.25	2.00	2.25	2.00	2.00	0.00	2.25	2.50	2.75	2.25	2.25	3.00	2.75	0.00	0.75	-0.213379	0.112793	0.960938	-2.590000	-3.220000	2.310000	322.00	0.02	-0.09
3.97	1.75	1.25	2.50	1.75	2.00	1.75	0.50	1.00	2.00	2.25	3.50	5.50	4.50	4.75	0.50	0.75	-0.283203	0.105469	0.932129	-1.400000	6.160000	-1.260000	374.00	0.08	-0.09	2.25	1.50	1.75	2.25	2.00	1.75	0.00	2.25	2.50	2.75	2.50	2.00	3.00	3.00	0.25	0.75	-0.208984	0.108398	0.964844	-2.590000	-3.220000	2.380000	323.00	0.03	-0.09
