# time	left pressure 1[N/cm²]	left pressure 2[N/cm²]	left pressure 3[N/cm²]	left pressure 4[N/cm²]	left pressure 5[N/cm²]	left pressure 6[N/cm²]	left pressure 7[N/cm²]	left pressure 8[N/cm²]	left pressure 9[N/cm²]	left pressure 10[N/cm²]	left pressure 11[N/cm²]	left pressure 12[N/cm²]	left pressure 13[N/cm²]	left pressure 14[N/cm²]	left pressure 15[N/cm²]	left pressure 16[N/cm²]	left acceleration X[g]	left acceleration Y[g]	left acceleration Z[g]	left angular X[dps]	left angular Y[dps]	left angular Z[dps]	left total force[N]	left center of pressure X[%]	left center of pressure Y[%]	right pressure 1[N/cm²]	right pressure 2[N/cm²]	right pressure 3[N/cm²]	right pressure 4[N/cm²]	right pressure 5[N/cm²]	right pressure 6[N/cm²]	right pressure 7[N/cm²]	right pressure 8[N/cm²]	right pressure 9[N/cm²]	right pressure 10[N/cm²]	right pressure 11[N/cm²]	right pressure 12[N/cm²]	right pressure 13[N/cm²]	right pressure 14[N/cm²]	right pressure 15[N/cm²]	right pressure 16[N/cm²]	right acceleration X[g]	right acceleration Y[g]	right acceleration Z[g]	right angular X[dps]	right angular Y[dps]	right angular Z[dps]	right total force[N]	right center of pressure X[%]	right center of pressure Y[%]
0.00																										3.50	4.75	3.75	5.75	1.25	0.25	0.00	0.00	1.50	1.00	0.25	0.00	0.00	2.00	0.50	0.50	-0.173340	0.057617	0.975586	-3.010000	3.850000	1.750000	259.00	-0.18	-0.02
0.01																										3.25	4.50	3.75	5.50	1.25	0.25	0.00	0.00	1.50	1.00	0.25	0.00	0.00	1.75	0.50	0.50	-0.176270	0.056152	0.981445	-3.150000	4.620000	1.540000	249.00	-0.18	-0.02
0.02	4.25	5.75	4.75	6.50	1.50	1.50	0.50	0.25	0.50	0.00	0.25	0.50	1.25	1.50	0.25	0.75	-0.216797	0.059570	0.951660	-3.780000	1.260000	-1.960000	310.00	-0.21	-0.07	3.25	4.00	3.00	5.00	1.50	0.00	0.00	0.00	1.25	1.00	0.00	0.00	0.00	1.75	0.50	0.25	-0.172363	0.062988	0.985840	-3.920000	6.860000	1.330000	224.00	-0.18	-0.02
0.03	5.00	5.75	5.00	6.75	1.50	1.75	0.75	0.50	1.25	0.50	0.25	0.75	1.50	2.00	0.00	1.00	-0.212891	0.056152	0.948730	-3.850000	0.490000	-1.820000	357.00	-0.18	-0.06	3.25	4.00	3.00	4.50	1.25	0.00	0.00	0.00	1.25	1.00	0.50	0.00	0.00	2.00	0.50	0.50	-0.180664	0.056641	0.987305	-3.780000	7.840000	1.120000	224.00	-0.16	-0.02
0.04																										2.50	3.50	2.50	4.25	1.00	0.00	0.00	0.00	1.50	0.75	0.00	0.00	0.00	1.50	0.50	0.50	-0.182617	0.060547	0.975586	-3.570000	8.820000	1.050000	192.00	-0.16	-0.02
0.05	5.00	6.25	5.25	7.25	1.50	1.75	0.50	0.25	0.75	0.50	0.50	0.75	1.50	2.00	0.25	1.00	-0.207520	0.059082	0.953613	-4.480000	-0.210000	-1.960000	361.00	-0.19	-0.07	2.25	3.00	2.25	3.50	1.00	0.00	0.00	0.00	1.50	0.75	0.00	0.00	0.00	1.75	0.50	0.50	-0.179199	0.057129	0.974609	-3.430000	10.010000	0.910000	176.00	-0.14	-0.00
0.06	5.00	6.25	5.25	7.00	1.75	1.50	0.50	0.50	0.75	0.75	0.50	0.75	1.50	2.00	0.50	1.00	-0.210449	0.058594	0.950195	-4.550000	-0.210000	-1.960000	367.00	-0.18	-0.07	1.75	2.50	2.00	3.25	0.75	0.00	0.00	0.00	1.25	0.75	0.25	0.00	0.00	1.50	0.25	0.50	-0.181641	0.073242	0.985840	-3.500000	10.990000	0.560000	152.00	-0.13	-0.01
0.07	5.00	6.75	5.75	7.50	2.00	2.00	0.50	0.25	1.00	0.75	0.75	1.25	1.50	2.25	0.25	1.00	-0.206055	0.056641	0.943848	-4.830000	-0.490000	-2.030000	398.00	-0.18	-0.07	1.50	2.25	1.50	2.75	1.00	0.00	0.00	0.00	1.00	0.50	0.00	0.00	0.00	1.50	0.25	0.25	-0.185547	0.062500	1.000488	-2.870000	9.730000	0.420000	129.00	-0.14	-0.01
0.08	5.25	6.50	5.75	8.00	2.00	2.25	0.50	0.25	0.75	0.75	1.00	1.00	1.75	2.25	0.25	1.00	-0.213867	0.056152	0.957520	-4.760000	-1.120000	-1.890000	405.00	-0.18	-0.07	1.00	1.50	1.25	2.25	0.50	0.00	0.00	0.00	1.00	0.50	0.00	0.00	0.00	1.25	0.50	0.50	-0.183105	0.064941	0.984375	-4.340000	12.530000	-0.140000	105.00	-0.09	-0.01
0.09	5.50	7.00	6.00	8.25	2.00	2.25	0.50	0.50	1.25	1.00	1.00	1.25	2.00	2.75	0.25	1.25	-0.211426	0.053711	0.955078	-4.410000	-1.750000	-1.610000	441.00	-0.16	-0.07	0.50	1.50	1.00	2.00	0.50	0.00	0.00	0.00	0.75	0.25	0.00	0.00	0.00	1.25	0.25	0.50	-0.188477	0.069336	1.006348	-6.370000	13.580000	-0.700000	86.00	-0.10	-0.02
0.10	5.50	7.25	6.75	8.50	2.50	2.75	0.50	0.50	1.25	1.00	1.25	1.25	2.25	2.50	0.50	1.25	-0.205078	0.048828	0.953613	-4.130000	-2.100000	-1.330000	471.00	-0.16	-0.07	0.50	1.25	0.75	0.75	0.50	0.00	0.00	0.00	0.75	0.50	0.00	0.00	0.00	1.50	0.25	0.50	-0.187012	0.064941	0.997559	-7.350000	14.840000	-1.330000	72.00	-0.01	0.03
0.11	6.50	7.75	7.00	9.25	2.25	2.75	0.50	0.50	1.25	1.00	1.25	1.75	2.25	2.75	0.50	1.25	-0.203613	0.052734	0.947754	-3.640000	-2.100000	-1.260000	501.00	-0.17	-0.07	0.25	0.75	0.50	0.75	0.25	0.00	0.00	0.00	1.00	0.25	0.00	0.00	0.00	1.50	0.25	0.25	-0.165527	0.201172	0.986816	-9.450000	16.309999	-0.910000	58.00	0.05	0.06
0.12	6.50	8.50	7.50	9.50	2.50	3.00	0.50	0.50	1.50	0.75	1.50	1.75	2.25	3.00	0.50	1.50	-0.201660	0.055664	0.952148	-3.360000	-2.100000	-1.120000	529.00	-0.16	-0.07	0.25	0.25	0.50	1.00	0.25	0.00	0.00	0.00	0.50	0.25	0.00	0.00	0.00	1.25	0.00	0.25	-0.202637	0.078125	1.042969	-14.910000	19.460001	-3.640000	45.00	0.00	0.00
0.13	7.25	9.25	7.75	10.25	2.75	3.50	0.75	0.50	1.50	1.00	1.50	2.00	2.50	3.00	0.75	1.50	-0.196289	0.055176	0.953125	-3.080000	-1.890000	-1.050000	577.00	-0.16	-0.07	0.25	0.50	0.50	0.50	0.00	0.00	0.00	0.00	1.00	0.50	0.00	0.00	0.00	1.50	0.50	0.25	-0.208008	0.061035	0.993164	-19.180000	22.540001	-6.090000	56.00	0.12	0.07
0.14	8.25	9.75	8.25	11.00	2.75	3.75	0.50	0.50	1.50	1.00	1.75	2.25	2.75	2.75	0.50	1.50	-0.200195	0.055176	0.956055	-3.220000	-1.470000	-1.190000	607.00	-0.17	-0.08	0.00	0.50	0.25	0.75	0.00	0.00	0.00	0.00	0.75	0.00	0.00	0.00	0.00	1.00	0.25	0.25	-0.259277	-0.059082	0.937012	-24.290001	25.410000	-7.070000	38.00	0.00	0.00
0.15	8.00	10.00	8.50	11.75	2.75	4.25	0.75	0.75	1.25	1.25	2.00	2.25	2.75	3.25	0.50	1.75	-0.193359	0.060547	0.951660	-3.430000	-0.630000	-1.330000	638.00	-0.17	-0.08	0.00	0.00	0.25	0.50	0.00	0.00	0.00	0.00	0.75	0.00	0.00	0.00	0.00	1.00	0.00	0.25	-0.208496	0.018555	0.991699	-48.299999	30.450001	-0.560000	28.00	0.00	0.00
0.16	8.50	11.00	8.75	12.00	3.00	4.50	0.50	0.75	1.50	1.25	2.00	2.75	2.75	3.75	0.75	1.75	-0.200195	0.053223	0.954590	-3.640000	0.420000	-1.680000	675.00	-0.16	-0.08	0.00	0.25	0.25	0.50	0.00	0.00	0.00	0.00	0.25	0.00	0.00	0.00	0.00	1.00	0.00	0.25	-0.219238	0.031738	0.983398	-52.920002	32.130001	2.310000	24.00	0.00	0.00
0.17	8.75	11.50	9.00	12.50	3.50	5.00	0.75	0.75	1.50	1.50	2.25	2.75	2.75	3.75	0.75	1.75	-0.195312	0.054688	0.956543	-3.780000	0.980000	-1.750000	711.00	-0.16	-0.08	0.25	0.00	0.25	0.25	0.00	0.00	0.00	0.00	0.75	0.25	0.00	0.00	0.00	1.25	0.25	0.25	-0.244141	0.043945	0.914062	-33.180000	40.529999	-1.120000	35.00	0.00	0.00
0.18	9.00	11.75	9.25	12.75	3.75	5.25	0.50	0.75	2.00	1.50	2.50	2.75	3.00	3.25	0.75	1.75	-0.189453	0.054199	0.955566	-3.920000	1.680000	-1.960000	730.00	-0.16	-0.08	0.00	0.00	0.00	0.00	0.00	0.00	0.00	0.00	0.50	0.00	0.00	0.00	0.00	1.00	0.25	0.25	-0.243164	0.015137	1.025879	-27.930000	40.810001	-1.680000	19.00	0.00	0.00
0.19	9.25	12.25	9.50	13.25	4.00	5.25	0.75	0.75	1.50	1.75	2.75	3.00	3.25	3.50	0.75	1.75	-0.191895	0.056152	0.961914	-3.780000	2.450000	-2.030000	757.00	-0.16	-0.08	0.00	0.25	0.00	0.25	0.00	0.00	0.00	0.00	0.50	0.00	0.00	0.00	0.00	1.00	0.00	0.00	-0.241699	0.021973	0.984375	-29.960001	41.090000	-0.420000	20.00	0.00	0.00
0.20	9.25	12.50	9.50	13.00	4.25	5.50	0.75	1.00	1.75	1.50	2.75	3.00	3.25	3.75	0.75	2.00	-0.194336	0.050781	0.958008	-3.780000	3.290000	-2.030000	770.00	-0.16	-0.08	0.00	0.25	0.25	0.25	0.00	0.00	0.00	0.00	0.50	0.00	0.00	0.00	0.00	0.75	0.00	0.00	-0.251953	-0.005371	0.973633	-29.330000	40.320000	0.140000	21.00	0.00	0.00
0.21	9.75	12.50	9.75	13.50	4.50	5.50	0.75	1.00	2.00	1.75	3.00	3.00	3.00	3.75	0.75	2.00	-0.194336	0.051758	0.956055	-3.570000	3.850000	-2.100000	793.00	-0.16	-0.08	0.00	0.00	0.00	0.00	0.00	0.00	0.00	0.00	0.50	0.00	0.00	0.00	0.00	1.00	0.00	0.00	-0.253418	0.004883	0.967773	-28.770000	38.990002	0.840000	15.00	0.00	0.00
0.22	9.50	12.25	9.75	13.75	4.50	5.75	0.50	0.75	1.75	1.75	2.75	3.00	3.25	3.75	1.00	1.75	-0.193359	0.051270	0.958008	-2.940000	4.620000	-2.030000	783.00	-0.16	-0.08	0.00	0.00	0.25	0.50	0.00	0.00	0.00	0.00	0.50	0.00	0.00	0.00	0.00	1.25	0.00	0.00	-0.251953	-0.006836	0.979492	-28.910000	37.099998	2.310000	25.00	0.00	0.00
0.23	9.75	12.75	10.00	13.50	4.50	5.75	0.75	1.00	2.00	2.00	2.75	3.25	3.50	3.75	0.75	1.75	-0.190918	0.050781	0.956055	-2.170000	5.460000	-1.750000	806.00	-0.16	-0.08	0.00	0.00	0.25	0.25	0.00	0.00	0.00	0.00	0.50	0.00	0.00	0.00	0.00	0.75	0.00	0.00	-0.253418	-0.029297	0.959961	-31.710001	32.130001	6.720000	18.00	0.00	0.00
0.24	9.50	12.50	9.75	13.50	4.50	5.75	0.75	1.00	1.50	1.50	3.00	3.75	3.50	3.75	0.75	2.00	-0.191406	0.052734	0.959473	-0.980000	6.580000	-1.400000	796.00	-0.16	-0.09	0.00	0.25	0.00	0.00	0.00	0.00	0.00	0.00	0.25	0.00	0.00	0.00	0.00	0.50	0.00	0.00	-0.244629	-0.046387	0.954590	-33.320000	29.049999	10.150000	10.00	0.00	0.00
0.25	9.25	12.25	9.75	13.25	4.50	5.75	0.75	1.00	2.00	1.75	3.50	3.50	3.50	4.00	1.00	2.00	-0.195312	0.052246	0.961914	-0.630000	7.140000	-1.330000	805.00	-0.15	-0.08	0.00	0.25	0.00	0.00	0.00	0.00	0.00	0.00	0.25	0.00	0.00	0.00	0.00	0.50	0.00	0.00	-0.221680	-0.053711	0.965332	-35.840000	25.480000	15.330000	10.00	0.00	0.00
0.26	9.00	12.00	9.50	13.25	4.50	5.75	0.75	1.00	2.00	2.00	3.25	3.75	3.50	4.00	1.00	2.00	-0.192383	0.052246	0.961426	-0.280000	7.630000	-1.330000	800.00	-0.14	-0.09	0.00	0.00	0.00	0.00	0.00	0.00	0.00	0.00	0.50	0.00	0.00	0.00	0.00	0.75	0.00	0.00	-0.229004	-0.072754	0.937500	-39.900002	21.139999	22.260000	13.00	0.00	0.00
0.27	9.00	11.75	9.50	13.00	4.50	6.00	0.75	1.00	2.00	1.75	3.25	3.75	3.75	3.75	1.00	2.25	-0.191406	0.051758	0.959961	-0.000000	8.050000	-1.400000	796.00	-0.14	-0.09	0.00	0.25	0.25	0.00	0.00	0.00	0.00	0.00	0.50	0.00	0.00	0.00	0.00	0.25	0.00	0.00	-0.250488	-0.081055	0.951660	-43.470001	16.100000	29.120001	14.00	0.00	0.00
0.28	8.75	11.50	9.50	12.75	4.50	5.75	0.75	1.00	1.75	2.00	3.75	3.75	3.25	4.00	1.00	2.00	-0.187500	0.058105	0.961914	-0.070000	8.190000	-1.330000	787.00	-0.14	-0.08	0.00	0.00	0.25	0.00	0.00	0.00	0.00	0.00	0.50	0.00	0.00	0.00	0.00	0.25	0.25	0.00	-0.251465	-0.091309	0.901367	-45.080002	10.780000	35.840000	14.00	0.00	0.00
0.29	8.50	11.25	9.25	12.50	4.25	5.75	0.75	1.00	2.00	2.00	4.00	4.00	3.75	3.75	1.00	2.25	-0.191895	0.056152	0.956543	-0.140000	8.190000	-1.400000	786.00	-0.13	-0.09	0.00	0.00	0.25	0.25	0.00	0.00	0.00	0.00	0.25	0.00	0.00	0.00	0.00	0.25	0.00	0.00	-0.268555	-0.079102	0.886719	-42.770000	6.090000	42.000000	11.00	0.00	0.00
0.30	8.50	10.75	9.25	12.25	4.25	5.75	0.75	1.25	2.25	2.25	4.00	4.25	3.50	4.25	0.75	2.00	-0.193848	0.060059	0.953125	-0.840000	7.700000	-1.400000	789.00	-0.12	-0.08	0.00	0.00	0.00	0.00	0.00	0.00	0.00	0.00	0.25	0.25	0.00	0.00	0.00	0.50	0.00	0.00	-0.268066	-0.084961	0.882324	-39.200001	1.610000	47.250000	10.00	0.00	0.00
0.31	8.00	10.00	8.75	12.00	4.25	5.75	0.75	1.00	2.25	2.25	3.75	4.00	3.50	4.25	1.00	2.25	-0.193359	0.060547	0.952148	-1.960000	7.420000	-1.820000	764.00	-0.12	-0.08	0.00	0.50	0.25	0.50	0.00	0.00	0.00	0.00	0.25	0.00	0.00	0.00	0.00	0.25	0.00	0.00	-0.260254	-0.082520	0.871582	-35.209999	-2.100000	52.500000	18.00	0.00	0.00
0.32	8.00	10.00	9.00	11.75	4.25	5.50	0.75	1.00	2.75	2.25	4.50	4.00	3.75	4.50	0.75	2.25	-0.195312	0.050781	0.951172	-3.220000	6.790000	-2.170000	777.00	-0.11	-0.08	0.00	0.50	0.00	0.25	0.00	0.00	0.00	0.00	0.50	0.00	0.00	0.00	0.00	0.25	0.00	0.00	-0.265137	-0.070312	0.860352	-30.309999	-5.600000	57.610001	16.00	0.00	0.00
0.33	7.75	9.75	9.00	11.50	4.25	5.50	0.75	1.00	2.50	2.50	4.25	4.25	3.75	4.75	1.00	2.25	-0.191406	0.053223	0.955078	-3.780000	6.440000	-2.380000	774.00	-0.11	-0.08	0.00	0.00	0.00	0.00	0.00	0.00	0.00	0.00	0.25	0.00	0.00	0.00	0.00	0.25	0.00	0.00	-0.262695	-0.073242	0.856934	-23.590000	-8.540000	62.160000	5.00	0.00	0.00
0.34	7.50	9.50	8.75	11.25	4.25	5.25	0.75	1.00	3.00	2.50	5.00	4.25	3.75	5.00	0.75	2.50	-0.193848	0.050293	0.956543	-4.200000	6.300000	-2.590000	776.00	-0.10	-0.08	0.00	0.00	0.00	0.00	0.00	0.00	0.00	0.00	0.25	0.00	0.00	0.00	0.00	0.00	0.00	0.00	-0.269531	-0.066406	0.854492	-15.820000	-11.060000	66.360001	3.00	0.00	0.00
0.35	7.25	9.25	8.75	11.00	4.25	5.25	0.75	0.75	2.75	2.75	5.00	4.50	3.50	5.00	1.25	2.50	-0.193848	0.053711	0.950195	-4.480000	6.580000	-2.800000	769.00	-0.09	-0.08	0.00	0.25	0.00	0.00	0.00	0.00	0.00	0.00	0.50	0.25	0.00	0.00	0.00	0.00	0.00	0.00	-0.269531	-0.053223	0.876465	-8.680000	-13.370000	70.489998	11.00	0.00	0.00
0.36	7.25	9.00	8.50	10.75	4.25	5.00	0.75	0.75	3.00	3.00	5.50	4.25	3.50	5.25	1.00	2.50	-0.190918	0.051758	0.960938	-4.480000	6.160000	-2.520000	767.00	-0.08	-0.07	0.00	0.00	0.00	0.00	0.00	0.00	0.00	0.00	0.75	0.00	0.00	0.00	0.00	0.25	0.00	0.00	-0.275879	-0.053711	0.924316	-2.660000	-16.730000	75.040001	12.00	0.00	0.00
0.37	7.25	9.00	8.50	10.50	4.25	4.75	0.50	0.75	3.25	3.00	5.50	4.75	3.50	5.50	1.25	2.50	-0.196777	0.054199	0.959961	-4.410000	6.020000	-2.520000	771.00	-0.08	-0.07	0.00	0.00	0.00	0.25	0.00	0.00	0.00	0.00	0.50	0.00	0.00	0.00	0.00	0.25	0.00	0.00	-0.267578	-0.042969	0.922852	-2.170000	-20.790001	79.800003	11.00	0.00	0.00
0.38	7.25	8.75	8.75	10.25	4.50	4.50	0.75	0.75	3.25	3.25	5.50	5.00	3.50	5.50	1.25	2.50	-0.198242	0.051758	0.956055	-4.200000	5.880000	-2.450000	778.00	-0.07	-0.07	0.00	0.00	0.00	0.25	0.00	0.00	0.00	0.00	0.50	0.00	0.00	0.00	0.00	0.50	0.00	0.00	-0.279297	-0.040039	0.942383	-2.800000	-24.360001	84.699997	14.00	0.00	0.00
0.39	7.00	8.75	8.75	10.25	4.25	4.75	0.50	0.75	3.75	3.25	6.00	4.75	3.50	6.00	1.00	2.50	-0.188477	0.056641	0.958984	-4.270000	5.880000	-2.310000	782.00	-0.07	-0.07	0.00	0.00	0.00	0.50	0.00	0.00	0.00	0.00	0.75	0.00	0.00	0.00	0.00	0.25	0.00	0.00	-0.282227	-0.028809	0.922852	-2.870000	-27.090000	88.900002	17.00	0.00	0.00
0.40	7.00	8.50	8.50	9.75	4.50	4.50	0.50	0.50	3.75	3.25	5.75	5.00	3.50	6.00	1.25	2.50	-0.191895	0.050781	0.961426	-4.200000	5.670000	-2.240000	770.00	-0.06	-0.06	0.00	0.25	0.00	0.00	0.00	0.00	0.00	0.00	1.00	0.25	0.00	0.00	0.00	0.25	0.00	0.00	-0.288574	-0.012207	0.925781	-1.470000	-29.120001	91.349998	20.00	0.00	0.00
0.41	7.25	8.25	8.75	10.00	4.50	4.50	0.75	0.75	4.25	3.25	6.25	5.00	3.25	6.25	1.25	2.75	-0.192871	0.044922	0.958984	-4.270000	5.740000	-2.310000	797.00	-0.06	-0.06	0.00	0.25	0.25	0.00	0.00	0.00	0.00	0.00	0.75	0.25	0.00	0.00	0.00	0.25	0.00	0.00	-0.320801	-0.016602	0.960938	1.120000	-31.430000	92.750000	20.00	0.00	0.00
0.42	6.75	8.25	8.50	9.75	4.50	4.25	0.75	0.25	4.25	3.50	6.25	5.25	3.25	6.75	1.50	2.75	-0.191406	0.050293	0.959473	-4.060000	5.460000	-2.030000	788.00	-0.05	-0.06	0.00	0.00	0.00	0.00	0.00	0.00	0.00	0.00	0.75	0.50	0.00	0.00	0.00	0.50	0.00	0.00	-0.325195	-0.010254	1.005859	-0.420000	-35.490002	92.190002	19.00	0.00	0.00
0.43	7.25	8.25	8.75	10.00	5.00	4.50	0.75	0.50	4.25	3.50	6.25	5.00	3.25	6.75	1.25	3.00	-0.191406	0.050293	0.959473	-4.060000	5.460000	-2.030000	807.00	-0.06	-0.06	0.00	0.25	0.25	0.25	0.00	0.00	0.00	0.00	1.00	0.25	0.00	0.00	0.00	0.50	0.00	0.00	-0.290527	0.037109	0.947754	-3.010000	-36.049999	89.739998	28.00	0.00	0.00
0.44	6.50	8.00	8.50	9.75	4.75	4.25	0.75	0.50	4.25	3.75	6.25	5.00	3.25	7.00	1.25	3.00	-0.193359	0.045898	0.954590	-3.850000	5.460000	-1.960000	790.00	-0.05	-0.06	0.00	0.25	0.25	0.25	0.00	0.00	0.00	0.00	0.75	0.25	0.00	0.00	0.00	0.75	0.00	0.00	-0.298828	0.048828	0.980957	-0.980000	-37.450001	87.010002	27.00	0.00	0.00
0.45	6.75	8.50	8.50	9.75	5.00	4.00	0.75	0.75	4.75	4.00	6.75	5.50	3.75	7.50	1.50	3.25	-0.196289	0.044434	0.957520	-3.430000	5.530000	-1.820000	834.00	-0.04	-0.06	0.00	0.25	0.25	0.50	0.00	0.00	0.00	0.00	0.75	0.50	0.00	0.00	0.00	1.00	0.00	0.00	-0.292480	0.044434	0.974121	-0.490000	-37.730000	83.720001	34.00	0.00	0.00
0.46	6.75	8.00	8.50	9.75	5.00	4.00	0.50	0.50	4.25	3.50	6.50	5.25	3.25	7.25	1.25	3.00	-0.193359	0.048340	0.955566	-3.290000	5.810000	-1.890000	794.00	-0.05	-0.06	0.00	0.00	0.00	0.00	0.00	0.00	0.00	0.00	0.75	0.25	0.00	0.00	0.00	0.50	0.00	0.00	-0.281738	0.062988	0.983887	-1.470000	-37.520000	80.150002	17.00	0.00	0.00
0.47	7.00	8.50	9.00	9.50	5.00	4.00	0.75	0.50	4.75	3.75	7.00	5.50	3.50	7.50	1.25	3.25	-0.188477	0.051758	0.956543	-3.080000	5.810000	-1.750000	830.00	-0.04	-0.05	0.00	0.00	0.00	0.25	0.00	0.00	0.00	0.00	0.75	0.25	0.00	0.00	0.00	1.00	0.00	0.00	-0.276855	0.074707	0.968750	-2.450000	-36.330002	75.739998	24.00	0.00	0.00
0.48	6.75	8.25	8.50	9.75	5.25	4.25	0.50	0.50	4.25	3.75	6.75	5.50	3.00	7.50	1.25	3.25	-0.190430	0.042969	0.958496	-3.010000	5.880000	-1.750000	811.00	-0.04	-0.06	0.00	0.25	0.00	0.00	0.00	0.00	0.00	0.00	0.75	0.00	0.00	0.00	0.00	1.00	0.00	0.25	-0.251953	0.077637	0.977051	-2.940000	-34.299999	70.139999	22.00	0.00	0.00
0.49	6.50	8.25	8.50	9.25	5.25	4.00	0.50	0.50	4.50	3.75	6.75	5.50	3.00	7.50	1.50	3.25	-0.193359	0.045410	0.957520	-2.940000	5.810000	-1.680000	806.00	-0.04	-0.05	0.00	0.25	0.25	0.25	0.00	0.00	0.00	0.00	1.00	0.50	0.00	0.00	0.00	1.00	0.00	0.25	-0.271484	0.139160	1.265625	0.840000	-29.330000	63.840000	36.00	0.00	0.00
0.50	6.50	8.00	8.50	9.50	5.00	4.00	0.75	0.50	5.00	4.00	6.75	5.25	3.00	7.50	1.25	3.00	-0.194336	0.041504	0.961914	-2.870000	5.950000	-1.750000	810.00	-0.04	-0.05	0.00	0.00	0.25	0.50	0.00	0.00	0.00	0.00	0.75	0.50	0.00	0.00	0.00	1.00	0.25	0.00	-0.265625	0.153320	0.961914	15.750000	-23.450001	49.000000	34.00	0.00	0.00
0.51	7.00	8.00	8.75	9.50	5.25	4.00	0.75	0.75	4.50	3.75	6.75	5.50	3.00	8.00	1.50	3.25	-0.194824	0.045410	0.958496	-2.870000	5.670000	-1.470000	826.00	-0.04	-0.05	0.00	0.00	0.00	0.00	0.00	0.00	0.00	0.00	0.75	0.50	0.00	0.00	0.00	1.00	0.25	0.25	-0.241699	0.109375	0.983887	16.940001	-18.830000	34.650002	28.00	0.00	0.00
0.52	6.50	8.00	8.50	9.75	5.25	3.75	0.75	0.50	5.00	4.00	6.75	5.25	2.75	7.75	1.25	3.25	-0.190918	0.045898	0.958496	-3.010000	6.090000	-1.680000	814.00	-0.04	-0.05	0.00	0.25	0.25	0.50	0.00	0.00	0.00	0.00	0.50	0.50	0.00	0.00	0.00	1.00	0.00	0.25	-0.226074	0.115234	0.985840	10.990000	-15.610000	24.500000	32.00	0.00	0.00
0.53	6.50	7.75	8.50	9.50	5.25	3.75	0.50	0.50	5.00	4.00	6.75	5.25	3.00	8.00	1.50	3.00	-0.185547	0.042969	0.955078	-2.940000	6.370000	-1.750000	811.00	-0.03	-0.05	0.00	0.25	0.25	0.50	0.00	0.00	0.00	0.00	1.00	0.50	0.00	0.00	0.00	1.00	0.00	0.00	-0.226562	0.100098	0.984863	7.070000	-12.950000	14.980000	37.00	0.00	0.00
0.54	6.50	8.25	8.50	9.50	5.25	3.75	0.75	0.50	5.00	4.00	7.00	5.25	2.75	8.25	1.25	3.25	-0.189941	0.045898	0.958008	-2.730000	6.440000	-1.610000	820.00	-0.03	-0.05	0.25	0.00	0.25	0.25	0.00	0.00	0.00	0.00	0.75	0.50	0.00	0.00	0.00	1.00	0.00	0.25	-0.223145	0.076660	0.992676	3.360000	-10.010000	7.490000	33.00	0.00	0.00
0.55	6.50	7.75	8.50	9.50	5.25	3.50	0.75	0.25	5.00	4.00	6.75	5.25	2.75	8.00	1.50	3.25	-0.191895	0.046387	0.953125	-2.590000	6.650000	-1.540000	807.00	-0.03	-0.04	0.00	0.25	0.25	0.25	0.00	0.00	0.00	0.00	1.25	0.50	0.00	0.00	0.00	1.00	0.00	0.00	-0.220703	0.051758	0.993164	-0.910000	-6.510000	3.150000	38.00	0.00	0.00
0.56	6.50	7.75	8.25	9.25	5.00	3.50	0.75	0.50	5.00	4.00	6.75	5.00	2.75	8.25	1.25	3.25	-0.189453	0.043457	0.961914	-2.520000	7.140000	-1.540000	800.00	-0.03	-0.04	0.00	0.50	0.00	0.25	0.00	0.00	0.00	0.00	0.75	0.50	0.00	0.00	0.00	1.25	0.00	0.00	-0.219238	0.047363	0.986328	-4.410000	-3.010000	0.700000	33.00	0.00	0.00
0.57	6.50	7.50	8.25	9.25	5.25	3.50	0.50	0.25	5.00	4.00	7.00	5.00	2.75	8.25	1.25	3.25	-0.192383	0.043945	0.959961	-2.240000	7.420000	-1.470000	795.00	-0.03	-0.04	0.25	0.25	0.00	0.00	0.25	0.00	0.00	0.00	1.00	0.25	0.00	0.00	0.00	1.00	0.00	0.00	-0.220215	0.041016	0.976074	-6.650000	-0.560000	-0.630000	32.00	0.00	0.00
0.58	6.50	7.75	8.25	9.25	5.00	3.50	0.50	0.50	5.00	3.75	6.75	5.00	2.75	8.25	1.25	3.25	-0.194336	0.042969	0.960449	-1.820000	7.350000	-1.260000	793.00	-0.03	-0.05	0.00	0.25	0.25	0.00	0.00	0.00	0.00	0.00	1.00	0.25	0.00	0.00	0.00	1.25	0.00	0.00	-0.220703	0.041504	0.977539	-7.910000	1.330000	-1.400000	31.00	0.00	0.00
0.59	6.50	7.75	8.25	9.25	5.00	3.50	0.75	0.25	5.00	4.00	7.00	5.00	2.50	8.00	1.50	3.25	-0.192871	0.049805	0.957520	-1.400000	7.490000	-1.190000	797.00	-0.03	-0.04	0.00	0.25	0.00	0.25	0.00	0.00	0.00	0.00	1.25	0.50	0.00	0.00	0.00	1.00	0.00	0.25	-0.223633	0.037109	0.974609	-8.960000	2.590000	-1.680000	36.00	0.00	0.00
0.60	6.50	7.50	8.00	9.00	5.00	3.00	0.75	0.25	4.75	4.00	6.75	5.00	2.50	8.25	1.25	3.00	-0.192871	0.040527	0.954590	-1.330000	7.350000	-1.050000	776.00	-0.03	-0.04	0.00	0.25	0.25	0.25	0.00	0.00	0.00	0.00	1.25	0.25	0.00	0.00	0.00	1.00	0.00	0.25	-0.226562	0.037109	0.971191	-9.660000	3.430000	-1.470000	37.00	0.00	0.00
0.61	6.25	7.75	8.25	9.00	5.25	3.50	0.50	0.50	5.00	3.75	7.00	5.00	2.75	8.25	1.25	3.00	-0.190918	0.045410	0.959473	-1.330000	7.280000	-0.980000	792.00	-0.03	-0.04	0.00	0.25	0.50	0.25	0.00	0.00	0.00	0.00	1.25	0.25	0.00	0.00	0.00	1.00	0.00	0.25	-0.220215	0.024902	0.971680	-9.870000	3.850000	-1.050000	39.00	0.00	0.00
0.62	6.25	7.50	8.00	9.25	5.00	3.25	0.75	0.25	5.00	4.00	7.00	5.00	2.50	8.25	1.50	3.25	-0.189453	0.042969	0.955078	-1.400000	7.070000	-0.980000	788.00	-0.02	-0.04	0.00	0.25	0.25	0.25	0.00	0.00	0.00	0.00	1.25	0.50	0.00	0.00	0.00	1.00	0.00	0.00	-0.225586	0.011719	0.979492	-12.460000	4.620000	1.050000	38.00	0.00	0.00
0.63	6.25	7.75	8.25	9.00	5.25	3.50	0.50	0.25	4.75	4.00	7.00	5.00	2.50	8.25	1.25	3.25	-0.192383	0.048828	0.956055	-1.400000	6.790000	-1.050000	787.00	-0.03	-0.04	0.00	0.25	0.25	0.25	0.00	0.00	0.00	0.00	1.25	0.25	0.00	0.00	0.00	1.00	0.00	0.25	-0.228027	0.006836	0.959961	-11.480000	3.640000	5.740000	37.00	0.00	0.00
0.64	6.25	7.75	8.25	9.25	5.25	3.25	0.75	0.25	4.75	3.75	6.75	5.00	2.75	8.00	1.25	3.25	-0.194824	0.043457	0.957031	-1.540000	6.650000	-0.980000	785.00	-0.03	-0.04	0.25	0.00	0.25	0.00	0.00	0.00	0.00	0.00	1.25	0.50	0.00	0.00	0.00	1.00	0.00	0.00	-0.225586	0.023438	0.954590	-9.940000	2.660000	7.770000	35.00	0.00	0.00
0.65	6.25	7.50	8.25	9.25	5.25	3.50	0.75	0.25	4.75	4.00	7.00	4.75	2.50	8.00	1.25	3.00	-0.192383	0.042969	0.959473	-1.540000	6.580000	-1.120000	785.00	-0.03	-0.04	0.00	0.25	0.25	0.25	0.00	0.00	0.00	0.00	1.50	0.50	0.00	0.00	0.00	1.00	0.00	0.00	-0.230957	0.012695	0.954102	-7.980000	1.540000	9.240000	41.00	0.00	0.00
0.66	6.50	7.50	8.25	9.25	5.25	3.25	0.50	0.25	4.75	3.75	6.75	4.75	2.50	8.00	1.25	3.25	-0.196777	0.041504	0.961426	-1.820000	6.090000	-1.330000	777.00	-0.03	-0.04	0.00	0.25	0.00	0.50	0.00	0.00	0.00	0.00	1.25	0.50	0.00	0.00	0.00	1.00	0.25	0.00	-0.232910	0.019531	0.958984	-5.950000	0.140000	10.220000	40.00	0.00	0.00
0.67	6.50	8.00	8.25	9.25	5.00	3.50	0.75	0.25	4.75	4.00	6.75	5.00	2.50	8.25	1.25	3.25	-0.192383	0.045898	0.958984	-2.030000	6.020000	-1.400000	793.00	-0.03	-0.04	0.00	0.00	0.00	0.25	0.00	0.00	0.00	0.00	1.25	0.50	0.00	0.00	0.00	1.00	0.00	0.25	-0.232910	0.020508	0.956543	-3.920000	-1.190000	10.850000	34.00	0.00	0.00
0.68	6.50	8.00	8.25	9.25	5.00	3.50	0.75	0.25	4.50	3.75	6.75	4.50	2.50	8.00	1.25	3.25	-0.195312	0.043457	0.958008	-2.100000	5.810000	-1.400000	779.00	-0.04	-0.04	0.00	0.00	0.00	0.25	0.00	0.00	0.00	0.00	1.25	0.50	0.00	0.00	0.00	1.00	0.00	0.00	-0.235352	0.024902	0.955078	-2.660000	-2.590000	11.410000	33.00	0.00	0.00
0.69	6.50	7.75	8.50	9.50	5.00	3.75	0.75	0.25	4.75	3.75	7.00	4.50	2.50	8.00	1.50	3.25	-0.193359	0.046387	0.963867	-1.750000	5.880000	-1.400000	794.00	-0.04	-0.04	0.00	0.25	0.25	0.25	0.00	0.00	0.00	0.00	1.50	0.50	0.00	0.00	0.00	1.00	0.25	0.00	-0.233398	0.037598	0.948730	-1.050000	-4.130000	11.270000	44.00	0.00	0.00
0.70	7.00	8.00	8.50	9.25	5.00	3.75	0.75	0.25	4.50	3.50	6.75	4.50	2.50	8.00	1.25	3.00	-0.194824	0.038574	0.963867	-1.260000	5.950000	-1.260000	786.00	-0.04	-0.04	0.00	0.25	0.25	0.00	0.00	0.00	0.00	0.00	1.25	0.50	0.00	0.00	0.00	1.00	0.00	0.00	-0.235352	0.044922	0.946777	0.910000	-6.300000	10.290000	35.00	0.00	0.00
0.71	6.75	8.25	8.50	9.75	5.25	3.50	0.75	0.25	4.50	3.25	6.50	4.50	2.50	8.00	1.25	3.00	-0.191895	0.037109	0.958984	-0.630000	6.020000	-1.050000	786.00	-0.05	-0.04	0.00	0.00	0.00	0.00	0.00	0.00	0.00	0.00	1.25	0.50	0.00	0.00	0.00	1.00	0.00	0.25	-0.235352	0.055176	0.947266	3.150000	-8.680000	8.260000	31.00	0.00	0.00
0.72	7.00	8.50	8.50	10.00	5.25	3.50	0.75	0.25	3.75	3.00	6.00	4.50	2.50	7.75	1.00	3.00	-0.193848	0.046387	0.958008	0.490000	6.440000	-0.700000	771.00	-0.06	-0.05	0.00	0.00	0.25	0.25	0.00	0.00	0.00	0.00	1.25	0.25	0.00	0.00	0.00	1.00	0.25	0.00	-0.233887	0.036133	0.962402	4.130000	-10.570000	6.300000	36.00	0.00	0.00
0.73	7.50	8.75	9.00	10.50	5.25	3.75	0.75	0.25	3.25	2.75	5.25	4.25	2.50	7.50	1.00	2.75	-0.193359	0.042480	0.958496	1.190000	6.930000	-0.490000	769.00	-0.08	-0.05	0.00	0.25	0.00	0.25	0.00	0.00	0.00	0.00	1.25	0.50	0.00	0.00	0.00	1.25	0.00	0.00	-0.226074	0.030762	0.960449	4.270000	-11.900000	5.600000	37.00	0.00	0.00
0.74	7.50	9.25	9.25	11.00	5.25	3.75	0.75	0.25	3.00	2.50	5.25	4.00	2.25	7.25	1.00	2.50	-0.193848	0.040527	0.960449	1.470000	7.280000	-0.490000	768.00	-0.09	-0.05	0.00	0.50	0.25	0.75	0.00	0.00	0.00	0.00	1.25	0.75	0.00	0.00	0.00	1.00	0.00	0.00	-0.228027	0.035156	0.964355	4.550000	-12.950000	5.670000	48.00	0.00	0.00
0.75	8.00	9.50	9.50	11.50	5.25	4.25	0.75	0.50	2.50	2.00	5.00	4.00	2.25	7.25	1.00	2.50	-0.191895	0.051270	0.957520	1.120000	7.560000	-0.630000	779.00	-0.10	-0.06	0.25	0.25	0.50	0.50	0.00	0.00	0.00	0.00	1.25	0.50	0.00	0.00	0.00	1.25	0.25	0.25	-0.228027	0.036133	0.967773	4.970000	-14.000000	6.160000	52.00	0.12	0.10
0.76	8.50	10.00	9.75	11.50	5.25	4.25	0.75	0.50	2.00	1.75	4.25	3.75	2.25	6.75	0.75	2.25	-0.196777	0.047852	0.958496	0.700000	8.120000	-0.840000	763.00	-0.12	-0.06	0.00	0.50	0.25	0.50	0.25	0.00	0.00	0.00	1.50	0.50	0.00	0.00	0.00	1.00	0.00	0.00	-0.224121	0.031738	0.974121	5.740000	-14.280000	6.930000	49.00	0.00	0.00
0.77	9.00	10.50	10.00	11.75	5.25	4.25	0.75	0.25	1.75	1.50	3.75	3.50	2.25	6.50	0.75	2.25	-0.191895	0.047852	0.957520	0.350000	8.750000	-0.910000	759.00	-0.13	-0.06	0.00	0.50	0.25	0.75	0.25	0.00	0.00	0.00	1.50	0.50	0.00	0.00	0.00	1.25	0.00	0.00	-0.222656	0.040039	0.976074	6.020000	-14.210000	7.630000	54.00	0.10	0.10
0.78	9.50	11.25	10.25	12.75	5.25	4.75	0.75	0.25	1.75	1.50	3.50	3.25	2.25	6.25	0.75	2.00	-0.191895	0.046387	0.952148	-0.070000	8.680000	-0.980000	782.00	-0.14	-0.06	0.25	0.75	0.25	1.00	0.25	0.00	0.00	0.00	1.25	0.50	0.00	0.00	0.00	1.00	0.00	0.00	-0.224121	0.034180	0.974121	6.160000	-14.070000	8.120000	56.00	0.01	0.06
0.79	9.75	11.75	10.25	12.50	5.25	4.50	0.75	0.25	1.75	1.25	3.25	3.25	2.00	5.75	0.50	2.00	-0.195312	0.044922	0.955566	0.140000	8.960000	-0.910000	769.00	-0.15	-0.06	0.00	0.50	0.50	0.50	0.25	0.00	0.00	0.00	1.50	0.50	0.00	0.00	0.00	1.00	0.00	0.00	-0.223145	0.042969	0.973633	6.090000	-14.070000	8.470000	52.00	0.09	0.11
0.80	10.25	12.00	10.50	13.00	5.00	4.75	0.75	0.25	1.25	0.75	2.50	3.00	1.75	5.25	0.25	1.75	-0.197266	0.052246	0.957520	0.560000	9.730000	-0.770000	752.00	-0.17	-0.06	0.00	0.75	0.50	1.00	0.25	0.00	0.00	0.00	1.25	0.50	0.00	0.00	0.00	1.00	0.25	0.00	-0.218750	0.042969	0.969238	5.950000	-13.650000	8.540000	59.00	0.04	0.05
0.81	11.25	13.00	10.75	13.25	5.50	4.00	0.75	0.25	1.25	0.50	2.25	2.50	1.75	5.25	0.25	1.75	-0.187988	0.045410	0.952637	0.630000	9.870000	-0.770000	764.00	-0.19	-0.06	0.25	0.75	0.50	1.00	0.25	0.00	0.00	0.00	1.25	0.50	0.00	0.00	0.00	0.75	0.25	0.00	-0.211426	0.042480	0.970703	6.020000	-13.230000	8.610000	59.00	0.00	0.05
0.82	11.50	13.75	11.00	13.50	5.25	4.75	0.75	0.25	1.25	0.50	1.75	2.25	1.75	5.25	0.25	1.50	-0.194824	0.050293	0.961914	1.190000	10.360000	-0.840000	775.00	-0.19	-0.06	0.50	1.00	0.50	0.75	0.25	0.00	0.00	0.00	1.25	0.50	0.00	0.00	0.00	1.00	0.00	0.00	-0.206543	0.052246	0.979492	3.150000	-10.640000	7.210000	61.00	-0.02	0.07
0.83	12.25	14.25	11.25	14.25	5.00	4.75	0.75	0.25	0.75	0.50	1.25	2.00	1.50	4.25	0.25	1.25	-0.194336	0.048828	0.953613	1.260000	10.710000	-0.700000	769.00	-0.22	-0.06	0.50	1.00	0.50	1.25	0.50	0.00	0.00	0.00	1.75	0.50	0.00	0.00	0.00	1.00	0.00	0.00	-0.207031	0.051758	0.966309	1.470000	-9.590000	5.810000	76.00	-0.02	0.06
0.84	13.25	14.50	11.50	14.50	5.00	5.00	0.50	0.25	0.75	0.50	1.00	1.50	1.50	4.50	0.00	1.25	-0.190918	0.050293	0.953613	1.120000	10.500000	-0.490000	778.00	-0.23	-0.06	0.50	0.75	0.75	1.25	0.50	0.00	0.00	0.00	1.75	0.50	0.00	0.00	0.00	1.00	0.00	0.00	-0.198730	0.046387	0.989258	-1.050000	-7.350000	3.990000	76.00	-0.02	0.07
0.85	13.50	15.50	11.50	14.75	5.00	5.00	0.50	0.25	0.75	0.00	0.75	1.50	1.50	3.75	0.25	1.00	-0.200684	0.040527	0.952148	1.330000	10.430000	-0.350000	780.00	-0.24	-0.06	0.25	1.00	0.50	1.25	0.50	0.00	0.00	0.00	1.75	0.50	0.00	0.00	0.00	1.00	0.00	0.00	-0.194824	0.050781	0.972656	-1.960000	-6.090000	2.450000	73.00	-0.00	0.06
0.86	14.25	16.75	11.75	15.00	5.00	5.00	0.50	0.25	0.50	0.00	0.50	1.25	1.00	3.75	0.00	0.75	-0.204102	0.054688	0.961426	2.310000	10.920000	-0.280000	788.00	-0.25	-0.06	0.50	1.00	1.00	1.00	0.50	0.00	0.00	0.00	1.75	0.75	0.00	0.00	0.00	1.00	0.25	0.00	-0.198242	0.052246	0.989258	-2.380000	-4.690000	1.050000	84.00	-0.00	0.07
0.87	15.25	16.50	12.00	15.50	4.75	5.00	0.50	0.25	0.25	0.25	0.25	0.75	1.25	3.25	0.00	1.00	-0.193848	0.053711	0.953125	3.150000	10.780000	0.280000	792.00	-0.26	-0.06	0.25	1.00	0.75	1.25	0.50	0.00	0.00	0.00	1.75	0.50	0.00	0.00	0.00	1.25	0.25	0.00	-0.196289	0.073730	0.982422	-3.290000	-1.400000	-0.070000	81.00	0.01	0.06
0.88	15.75	17.50	12.00	15.75	5.00	5.00	0.50	0.25	0.00	0.00	0.00	1.00	1.00	2.75	0.25	0.75	-0.198730	0.051270	0.954590	3.570000	10.710000	0.490000	801.00	-0.27	-0.06	0.25	0.50	0.75	1.00	0.50	0.00	0.00	0.00	2.00	0.75	0.00	0.00	0.00	1.50	0.00	0.00	-0.204590	0.062500	1.004395	-6.510000	4.830000	-2.170000	79.00	0.06	0.10
0.89	16.75	18.50	12.50	16.25	4.75	5.25	0.50	0.25	0.25	0.00	0.00	0.75	1.25	2.75	0.25	0.50	-0.201660	0.047363	0.959961	4.270000	10.430000	1.050000	833.00	-0.27	-0.06	0.25	1.00	0.50	1.00	0.25	0.00	0.00	0.00	2.25	0.75	0.00	0.00	0.00	1.25	0.25	0.00	-0.208984	0.063477	1.009277	-10.780000	11.550000	-4.900000	82.00	0.06	0.09
0.90	17.25	19.00	12.50	16.75	4.50	5.25	0.50	0.25	0.25	0.00	0.00	0.75	1.00	2.25	0.00	0.50	-0.200195	0.050293	0.960449	6.020000	10.990000	1.680000	836.00	-0.28	-0.06	0.25	0.50	0.50	0.75	0.25	0.00	0.00	0.00	2.25	1.00	0.00	0.00	0.00	1.25	0.25	0.00	-0.223633	0.064941	1.000488	-15.610000	17.290001	-7.910000	77.00	0.11	0.11
0.91	18.25	20.50	12.75	17.25	4.75	5.50	0.50	0.25	0.00	0.00	0.00	0.75	1.25	2.00	0.00	0.50	-0.207031	0.055664	0.958496	7.280000	11.060000	2.380000	871.00	-0.29	-0.07	0.00	0.50	0.25	0.50	0.00	0.00	0.00	0.00	2.00	0.75	0.00	0.00	0.00	1.25	0.25	0.00	-0.217773	0.083496	1.030273	-21.629999	22.469999	-11.060000	60.00	0.16	0.13
0.92	19.00	21.50	13.00	18.00	4.75	5.50	0.50	0.25	0.00	0.00	0.00	0.25	1.00	1.50	0.00	0.50	-0.207031	0.062012	0.960449	8.680000	11.130000	2.870000	887.00	-0.30	-0.07	0.25	0.25	0.25	0.75	0.00	0.00	0.00	0.00	2.00	0.50	0.00	0.00	0.00	1.25	0.00	0.00	-0.229492	0.063477	1.020996	-32.619999	26.110001	-14.420000	58.00	0.13	0.13
0.93	19.75	22.25	13.00	18.00	4.50	6.00	0.50	0.25	0.00	0.00	0.00	0.25	0.75	1.25	0.00	0.50	-0.202637	0.062012	0.959473	10.850000	11.270000	3.500000	900.00	-0.30	-0.07	0.00	0.00	0.00	0.50	0.00	0.00	0.00	0.00	2.25	0.25	0.00	0.00	0.00	1.00	0.00	0.00	-0.241211	-0.020508	1.025879	-43.400002	32.060001	-16.450001	46.00	0.00	0.00
0.94	20.00	23.25	13.50	18.75	4.50	6.00	0.50	0.25	0.00	0.00	0.00	0.25	1.00	1.50	0.00	0.50	-0.204102	0.062988	0.963867	12.880000	12.040000	3.920000	930.00	-0.30	-0.07	0.00	0.00	0.00	0.25	0.00	0.00	0.00	0.00	1.75	0.25	0.00	0.00	0.00	1.00	0.00	0.00	-0.234863	-0.018555	1.087891	-64.400002	39.200001	-12.110000	37.00	0.00	0.00
0.95	20.75	23.75	13.25	19.25	4.25	6.50	0.50	0.25	0.00	0.00	0.00	0.00	0.50	1.00	0.00	0.25	-0.207520	0.068359	0.958984	14.630000	11.200000	4.060000	935.00	-0.31	-0.07	0.00	0.25	0.00	0.25	0.00	0.00	0.00	0.00	1.50	0.25	0.00	0.00	0.00	0.75	0.00	0.00	-0.279785	0.087402	0.923828	-52.430000	56.700001	-15.470000	34.00	0.00	0.00
0.96	21.50	25.00	14.00	20.50	4.25	6.50	0.25	0.25	0.00	0.00	0.00	0.00	0.75	0.75	0.00	0.25	-0.198730	0.070801	0.959961	16.520000	10.640000	3.990000	973.00	-0.31	-0.07	0.00	0.25	0.25	0.00	0.00	0.00	0.00	0.00	1.50	0.00	0.00	0.00	0.00	0.50	0.00	0.00	-0.294434	0.020996	1.170898	-49.420002	65.029999	-18.620001	29.00	0.00	0.00
0.97	22.00	25.50	13.75	20.25	4.00	7.00	0.25	0.25	0.00	0.00	0.00	0.25	0.75	0.75	0.00	0.00	-0.200195	0.080078	0.955566	17.780001	10.220000	3.850000	981.00	-0.31	-0.07	0.00	0.00	0.00	0.25	0.00	0.00	0.00	0.00	1.50	0.25	0.00	0.00	0.00	0.50	0.00	0.00	-0.300293	0.033691	1.107910	-59.080002	69.510002	-20.020000	29.00	0.00	0.00
0.98	21.75	26.50	13.75	20.50	4.00	7.25	0.25	0.25	0.00	0.00	0.00	0.25	0.75	1.00	0.00	0.25	-0.204102	0.076660	0.950684	17.290001	9.310000	3.710000	997.00	-0.31	-0.08	0.00	0.25	0.00	0.50	0.00	0.00	0.00	0.00	1.00	0.00	0.00	0.00	0.00	0.25	0.00	0.00	-0.308594	0.037598	1.170410	-66.989998	71.400002	-22.750000	23.00	0.00	0.00
0.99	23.25	27.50	13.75	21.25	4.50	7.00	0.25	0.50	0.00	0.00	0.00	0.00	0.75	0.50	0.00	0.25	-0.204102	0.082520	0.956055	16.799999	8.260000	3.570000	1029.00	-0.32	-0.07	0.00	0.25	0.00	0.25	0.00	0.00	0.00	0.00	0.75	0.00	0.00	0.00	0.00	0.25	0.00	0.00	-0.315430	0.044434	1.149414	-77.349998	70.559998	-25.690001	17.00	0.00	0.00
1.00	23.25	28.00	14.00	21.75	4.00	7.50	0.25	0.25	0.00	0.00	0.00	0.25	0.75	0.75	0.00	0.25	-0.200195	0.087891	0.954102	15.330000	7.630000	3.080000	1043.00	-0.31	-0.08	0.00	0.25	0.00	0.50	0.00	0.00	0.00	0.00	0.25	0.00	0.00	0.00	0.00	0.00	0.00	0.00	-0.301758	-0.002441	1.246094	-117.040001	60.970001	-26.180000	11.00	0.00	0.00
1.01	23.25	28.25	13.75	22.00	4.00	7.50	0.25	0.50	0.00	0.00	0.00	0.00	0.75	0.50	0.00	0.00	-0.204590	0.082520	0.955078	14.280000	6.930000	2.730000	1043.00	-0.32	-0.08	0.00	0.00	0.00	0.00	0.00	0.00	0.00	0.00	0.25	0.00	0.00	0.00	0.00	0.00	0.00	0.00	-0.275879	0.079590	1.178711	-130.130005	54.950001	-26.460001	3.00	0.00	0.00
1.02	23.50	29.25	13.75	22.50	3.75	8.00	0.25	0.50	0.00	0.00	0.00	0.00	0.75	0.00	0.00	0.00	-0.208008	0.097656	0.954590	13.790000	6.090000	2.100000	1059.00	-0.32	-0.08	0.00	0.25	0.00	0.25	0.00	0.00	0.00	0.00	0.00	0.00	0.00	0.00	0.00	0.00	0.00	0.00	-0.275879	0.079590	1.178711	-130.130005	54.950001	-26.460001	5.00	0.00	0.00
1.03	25.25	29.50	13.50	22.50	3.75	8.00	0.25	0.50	0.00	0.00	0.00	0.00	0.50	0.50	0.00	0.00	-0.208008	0.097656	0.954590	13.790000	6.090000	2.100000	1079.00	-0.32	-0.08	0.00	0.00	0.00	0.25	0.00	0.00	0.00	0.00	0.00	0.00	0.00	0.00	0.00	0.00	0.00	0.00	0.158691	1.829590	1.079102	-100.239998	43.400002	-0.070000	3.00	0.00	0.00
1.04	24.50	29.75	13.50	22.75	3.75	8.00	0.25	0.50	0.00	0.00	0.00	0.00	0.75	0.25	0.00	0.00	-0.201660	0.094238	0.945801	12.320000	6.160000	1.820000	1076.00	-0.32	-0.08	0.00	0.25	0.00	0.25	0.00	0.00	0.00	0.00	0.00	0.00	0.00	0.00	0.00	0.00	0.00	0.00	0.340820	1.324219	1.197266	-33.529999	32.200001	49.420002	5.00	0.00	0.00
1.05	25.00	30.00	14.00	22.50	3.75	8.25	0.25	0.50	0.00	0.00	0.00	0.00	0.50	0.25	0.00	0.00	-0.199707	0.099121	0.949219	10.640000	6.090000	1.470000	1087.00	-0.32	-0.08	0.00	0.50	0.00	0.00	0.00	0.00	0.00	0.00	0.00	0.00	0.00	0.00	0.00	0.00	0.00	0.00	0.262207	0.837402	0.942383	-12.530000	23.520000	93.099998	5.00	0.00	0.00
1.06	25.00	29.75	13.50	23.00	3.75	8.50	0.25	0.50	0.00	0.00	0.00	0.00	0.75	0.25	0.00	0.00	-0.202637	0.096191	0.958008	8.400000	5.880000	0.700000	1089.00	-0.32	-0.08	0.00	0.00	0.25	0.00	0.00	0.00	0.00	0.00	0.00	0.00	0.00	0.00	0.00	0.00	0.00	0.00	0.300293	0.733887	0.859863	-11.900000	23.450001	121.029999	3.00	0.00	0.00
1.07	24.75	30.50	13.75	23.25	3.50	8.50	0.25	0.50	0.00	0.00	0.25	0.00	0.75	0.25	0.00	0.00	-0.202637	0.096191	0.958008	8.400000	5.880000	0.700000	1099.00	-0.32	-0.08	0.00	0.00	0.00	0.00	0.00	0.00	0.00	0.00	0.00	0.00	0.00	0.00	0.00	0.00	0.00	0.00	0.371094	0.614746	0.945312	0.210000	21.980000	133.839996	0.00	0.00	0.00
1.08	25.50	30.75	13.75	23.00	3.50	8.50	0.25	0.50	0.00	0.00	0.00	0.00	0.75	0.25	0.00	0.00	-0.206543	0.102051	0.952637	7.700000	5.880000	0.280000	1104.00	-0.32	-0.08	0.00	0.00	0.00	0.25	0.00	0.00	0.00	0.00	0.00	0.00	0.00	0.00	0.00	0.00	0.00	0.00	0.437012	0.408203	1.020508	18.410000	15.260000	136.080002	3.00	0.00	0.00
1.09	24.50	30.00	13.25	23.00	3.50	8.75	0.25	0.50	0.00	0.00	0.00	0.00	0.50	0.25	0.00	0.00	-0.202637	0.106445	0.953613	6.720000	5.880000	-0.280000	1081.00	-0.32	-0.08	0.00	0.00	0.00	0.00	0.00	0.00	0.00	0.00	0.00	0.00	0.00	0.00	0.00	0.00	0.00	0.00	0.477539	0.218750	1.070312	27.719999	5.250000	131.669998	0.00	0.00	0.00
1.10	24.00	29.50	13.25	23.25	3.50	8.50	0.25	0.50	0.00	0.00	0.00	0.25	0.50	0.00	0.00	0.00	-0.201172	0.104980	0.942871	4.830000	5.950000	-0.700000	1072.00	-0.32	-0.08	0.00	0.00	0.00	0.00	0.00	0.00	0.00	0.00	0.00	0.00	0.00	0.00	0.00	0.00	0.00	0.00	0.500000	0.111816	1.120605	28.770000	-6.370000	121.800003	0.00	0.00	0.00
1.11	24.50	30.00	13.50	23.00	3.25	8.50	0.25	0.50	0.00	0.00	0.00	0.00	0.25	0.00	0.00	0.00	-0.197266	0.111328	0.930664	1.680000	6.580000	-1.120000	1074.00	-0.32	-0.08	0.00	0.00	0.00	0.00	0.00	0.00	0.00	0.00	0.00	0.00	0.00	0.00	0.00	0.00	0.00	0.00	0.515625	0.057617	1.153809	28.350000	-19.670000	108.150002	0.00	0.00	0.00
1.12	25.25	30.75	13.25	23.00	3.25	8.50	0.25	0.50	0.00	0.00	0.00	0.00	0.25	0.25	0.00	0.00	-0.204590	0.109375	0.940918	-2.030000	7.420000	-1.540000	1088.00	-0.32	-0.08	0.00	0.25	0.00	0.00	0.00	0.00	0.00	0.00	0.00	0.00	0.00	0.00	0.00	0.00	0.00	0.00	0.501953	0.050781	1.163574	27.719999	-33.599998	93.239998	2.00	0.00	0.00
1.13	25.00	30.75	14.00	23.75	3.50	8.50	0.25	0.50	0.00	0.00	0.00	0.00	0.75	0.25	0.00	0.00	-0.207520	0.107422	0.953125	-3.360000	7.490000	-1.680000	1109.00	-0.32	-0.08	0.00	0.00	0.00	0.00	0.00	0.00	0.00	0.00	0.00	0.00	0.00	0.00	0.00	0.00	0.00	0.00	0.467773	0.080566	1.154785	25.900000	-46.759998	80.010002	0.00	0.00	0.00
1.14	25.50	30.75	14.00	24.00	3.50	8.75	0.25	0.50	0.00	0.00	0.00	0.25	0.50	0.00	0.00	0.00	-0.209961	0.099121	0.955566	-3.290000	7.210000	-1.750000	1118.00	-0.32	-0.08	0.00	0.00	0.00	0.25	0.00	0.00	0.00	0.00	0.00	0.00	0.00	0.00	0.00	0.00	0.00	0.00	0.417480	0.145508	1.125488	23.309999	-58.520000	70.559998	3.00	0.00	0.00
1.15	25.25	30.25	13.50	23.50	3.25	8.50	0.25	0.50	0.00	0.00	0.00	0.00	0.25	0.00	0.00	0.00	-0.207031	0.103027	0.951660	-3.080000	7.350000	-1.820000	1090.00	-0.32	-0.08	0.00	0.25	0.00	0.25	0.00	0.00	0.00	0.00	0.00	0.00	0.00	0.00	0.00	0.00	0.00	0.00	0.358398	0.201660	1.087891	22.260000	-67.199997	65.590004	5.00	0.00	0.00
1.16	25.00	30.00	14.00	23.00	3.25	8.50	0.25	0.50	0.00	0.00	0.00	0.25	0.50	0.25	0.00	0.00	-0.201660	0.102051	0.942383	-4.130000	7.350000	-2.100000	1092.00	-0.32	-0.08	0.00	0.00	0.00	0.00	0.00	0.00	0.00	0.00	0.00	0.00	0.00	0.00	0.00	0.00	0.00	0.00	0.289551	0.243652	1.070312	23.520000	-72.730003	64.610001	0.00	0.00	0.00
1.17	23.50	29.50	13.50	22.75	3.25	8.25	0.25	0.25	0.00	0.00	0.00	0.00	0.50	0.00	0.00	0.00	-0.200195	0.104980	0.937500	-5.670000	7.210000	-2.310000	1052.00	-0.32	-0.08	0.00	0.25	0.00	0.25	0.00	0.00	0.00	0.00	0.00	0.00	0.00	0.00	0.00	0.00	0.00	0.00	0.221191	0.278809	1.080078	25.830000	-75.879997	66.430000	5.00	0.00	0.00
1.18	24.25	29.00	13.50	22.75	3.25	8.25	0.25	0.50	0.00	0.00	0.00	0.00	0.75	0.00	0.00	0.00	-0.198730	0.107910	0.942383	-8.540000	7.700000	-2.800000	1061.00	-0.32	-0.08	0.00	0.00	0.00	0.25	0.00	0.00	0.00	0.00	0.00	0.00	0.00	0.00	0.00	0.00	0.00	0.00	0.156250	0.289062	1.080566	28.000000	-77.910004	70.840004	3.00	0.00	0.00
1.19	24.00	29.50	13.25	22.50	3.25	8.25	0.25	0.50	0.00	0.00	0.00	0.00	0.50	0.00	0.00	0.00	-0.204102	0.101562	0.943359	-11.900000	7.840000	-3.430000	1056.00	-0.32	-0.08	0.00	0.00	0.00	0.00	0.00	0.00	0.00	0.00	0.00	0.00	0.00	0.00	0.00	0.00	0.00	0.00	0.083008	0.284668	1.081055	30.170000	-78.330002	77.000000	0.00	0.00	0.00
1.20	25.25	30.00	14.00	23.50	3.50	8.25	0.25	0.50	0.00	0.00	0.00	0.00	0.50	0.00	0.00	0.00	-0.207520	0.101074	0.957031	-14.140000	7.280000	-3.710000	1095.00	-0.32	-0.08	0.00	0.00	0.00	0.25	0.00	0.00	0.00	0.00	0.00	0.00	0.00	0.00	0.00	0.00	0.00	0.00	0.014648	0.247559	1.094238	32.270000	-77.840004	83.440002	3.00	0.00	0.00
1.21	24.75	29.25	13.75	22.75	3.25	8.25	0.25	0.50	0.00	0.00	0.00	0.00	0.75	0.00	0.00	0.00	-0.208984	0.100098	0.942871	-16.170000	7.350000	-3.850000	1072.00	-0.32	-0.08	0.00	0.00	0.00	0.00	0.00	0.00	0.00	0.00	0.00	0.00	0.00	0.00	0.00	0.00	0.00	0.00	-0.054688	0.196289	1.094238	33.670002	-76.510002	88.900002	0.00	0.00	0.00
1.22	24.25	29.25	13.50	22.75	3.25	8.25	0.25	0.50	0.00	0.00	0.00	0.00	0.75	0.00	0.00	0.00	-0.216309	0.085449	0.969727	-14.560000	7.280000	-3.080000	1064.00	-0.32	-0.08	0.00	0.25	0.00	0.25	0.00	0.00	0.00	0.00	0.00	0.00	0.00	0.00	0.00	0.00	0.00	0.00	-0.183105	0.081055	1.088867	31.780001	-70.559998	94.709999	5.00	0.00	0.00
1.23	24.25	29.00	13.50	22.50	3.50	8.00	0.25	0.50	0.00	0.00	0.00	0.25	0.50	0.00	0.00	0.00	-0.208496	0.089844	0.944336	-12.390000	6.860000	-2.730000	1059.00	-0.32	-0.08	0.00	0.00	0.00	0.00	0.00	0.00	0.00	0.00	0.00	0.00	0.00	0.00	0.00	0.00	0.00	0.00	-0.231934	0.047852	1.107422	30.309999	-66.639999	94.570000	0.00	0.00	0.00
1.24	24.25	29.00	13.75	22.50	3.25	8.50	0.25	0.50	0.00	0.00	0.00	0.25	0.75	0.00	0.00	0.00	-0.200684	0.089355	0.944824	-12.600000	6.300000	-2.870000	1067.00	-0.32	-0.08	0.00	0.00	0.00	0.25	0.00	0.00	0.00	0.00	0.00	0.00	0.00	0.00	0.00	0.00	0.00	0.00	-0.262695	0.017090	1.125977	29.400000	-63.490002	92.750000	3.00	0.00	0.00
1.25	23.50	28.25	14.00	22.00	3.50	8.50	0.25	0.50	0.00	0.00	0.00	0.50	0.75	0.00	0.00	0.00	-0.202148	0.083496	0.948730	-13.650000	5.740000	-3.010000	1055.00	-0.32	-0.08	0.00	0.00	0.00	0.00	0.00	0.00	0.00	0.00	0.00	0.00	0.00	0.00	0.00	0.00	0.00	0.00	-0.296875	-0.017090	1.112305	28.210001	-60.760002	89.879997	0.00	0.00	0.00
1.26	23.75	28.00	13.75	22.25	3.25	8.50	0.25	0.75	0.00	0.00	0.25	0.25	1.00	0.25	0.00	0.00	-0.203613	0.083984	0.960938	-14.420000	4.830000	-3.150000	1060.00	-0.31	-0.08	0.00	0.00	0.00	0.00	0.00	0.00	0.00	0.00	0.00	0.00	0.00	0.00	0.00	0.00	0.00	0.00	-0.335449	-0.036133	1.094238	26.250000	-57.610001	86.379997	0.00	0.00	0.00
1.27	23.00	27.50	13.25	21.75	3.50	8.50	0.25	0.75	0.00	0.00	0.00	0.25	1.25	0.25	0.00	0.00	-0.198730	0.082520	0.941406	-14.630000	4.060000	-3.220000	1039.00	-0.31	-0.09	0.00	0.00	0.00	0.00	0.00	0.00	0.00	0.00	0.00	0.00	0.00	0.00	0.00	0.00	0.00	0.00	-0.360352	-0.037109	1.069824	24.639999	-53.549999	82.669998	0.00	0.00	0.00
1.28	23.00	27.50	13.50	22.00	4.00	8.75	0.25	1.00	0.00	0.00	0.25	0.50	1.25	0.25	0.00	0.00	-0.198730	0.082031	0.945312	-16.660000	2.730000	-3.500000	1062.00	-0.31	-0.09	0.00	0.00	0.00	0.00	0.00	0.00	0.00	0.00	0.00	0.00	0.00	0.00	0.00	0.00	0.00	0.00	-0.378418	-0.028809	1.080566	23.730000	-49.420002	79.169998	0.00	0.00	0.00
1.29	22.50	26.50	13.50	21.75	3.75	9.00	0.50	1.00	0.00	0.00	0.25	0.75	1.50	0.50	0.00	0.00	-0.197266	0.074707	0.954590	-21.980000	-1.680000	-4.480000	1056.00	-0.30	-0.09	0.00	0.00	0.00	0.00	0.00	0.00	0.00	0.00	0.00	0.00	0.00	0.00	0.00	0.00	0.00	0.00	-0.389648	-0.043945	1.104980	22.120001	-46.759998	76.090004	0.00	0.00	0.00
1.30	21.75	26.00	13.25	21.25	4.50	9.00	0.50	1.00	0.00	0.00	0.50	0.75	1.75	0.50	0.00	0.25	-0.205566	0.069336	0.992188	-22.680000	-3.920000	-4.760000	1049.00	-0.30	-0.09	0.00	0.00	0.00	0.00	0.00	0.00	0.00	0.00	0.00	0.00	0.00	0.00	0.00	0.00	0.00	0.00	-0.404297	-0.035156	1.122559	19.809999	-46.200001	73.080002	0.00	0.00	0.00
1.31	21.25	25.00	13.00	21.00	4.25	9.25	0.50	1.00	0.00	0.00	0.50	1.00	2.00	0.50	0.00	0.25	-0.201172	0.068848	0.962891	-19.180000	-4.410000	-4.970000	1034.00	-0.29	-0.09	0.00	0.00	0.00	0.00	0.00	0.00	0.00	0.00	0.00	0.00	0.00	0.00	0.00	0.00	0.00	0.00	-0.417969	-0.032227	1.139160	18.270000	-47.670002	69.720001	0.00	0.00	0.00
1.32	20.50	24.25	12.75	20.25	4.50	9.25	0.50	1.25	0.25	0.25	0.50	1.50	2.50	0.75	0.00	0.25	-0.204102	0.061523	0.963867	-16.520000	-3.850000	-4.760000	1033.00	-0.28	-0.09	0.00	0.00	0.00	0.00	0.00	0.00	0.00	0.00	0.00	0.00	0.00	0.00	0.00	0.00	0.00	0.00	-0.425781	-0.012695	1.114258	18.410000	-50.750000	66.080002	0.00	0.00	0.00
1.33	19.50	23.50	12.50	20.00	4.50	9.25	0.50	1.25	0.50	0.25	1.00	1.50	2.50	1.00	0.25	0.50	-0.201660	0.058594	0.961914	-13.020000	-2.520000	-4.200000	1025.00	-0.27	-0.09	0.00	0.00	0.00	0.00	0.00	0.00	0.00	0.00	0.00	0.00	0.00	0.00	0.00	0.00	0.00	0.00	-0.453613	-0.009277	1.080078	19.740000	-53.549999	62.020000	0.00	0.00	0.00
1.34	19.00	21.75	12.25	19.50	4.75	9.00	0.75	1.50	0.25	0.25	1.00	2.00	2.75	1.25	0.25	0.50	-0.195312	0.053711	0.958496	-9.660000	-0.980000	-3.570000	1009.00	-0.26	-0.09	0.00	0.00	0.00	0.00	0.00	0.00	0.00	0.00	0.00	0.00	0.00	0.00	0.00	0.00	0.00	0.00	-0.491211	-0.001465	1.008301	21.139999	-53.900002	58.170002	0.00	0.00	0.00
1.35	17.50	21.25	11.75	19.25	4.75	9.50	0.75	1.75	0.75	0.50	1.50	2.75	3.00	1.50	0.25	0.75	-0.198730	0.056641	0.965332	-6.370000	0.630000	-3.080000	1018.00	-0.24	-0.10	0.00	0.00	0.00	0.00	0.00	0.00	0.00	0.00	0.00	0.00	0.00	0.00	0.00	0.00	0.00	0.00	-0.526367	0.004395	0.951660	21.139999	-51.520000	54.389999	0.00	0.00	0.00
1.36	16.50	20.25	11.50	18.50	4.75	9.50	0.75	1.75	0.75	0.75	1.75	3.00	3.50	1.75	0.25	1.00	-0.198242	0.065430	0.961426	-3.150000	2.590000	-2.590000	1003.00	-0.23	-0.10	0.00	0.25	0.25	0.00	0.00	0.00	0.00	0.00	0.00	0.00	0.00	0.00	0.00	0.00	0.00	0.00	-0.561035	0.013672	0.916016	19.670000	-47.180000	50.750000	5.00	0.00	0.00
1.37	15.25	19.00	11.25	17.75	4.75	9.25	0.75	2.25	0.75	1.00	2.25	3.50	4.00	1.75	0.50	1.00	-0.192383	0.052246	0.960938	-0.560000	4.340000	-2.240000	992.00	-0.21	-0.11	0.00	0.00	0.00	0.00	0.00	0.00	0.00	0.00	0.00	0.00	0.00	0.00	0.00	0.00	0.00	0.00	-0.573242	0.034180	0.909668	17.080000	-42.560001	47.529999	0.00	0.00	0.00
1.38	14.00	17.50	10.50	17.25	4.50	9.25	0.75	2.50	1.00	1.00	2.50	3.75	5.00	2.00	0.50	1.00	-0.198242	0.057617	0.958496	1.680000	5.880000	-1.890000	972.00	-0.20	-0.11	0.00	0.00	0.00	0.00	0.00	0.00	0.00	0.00	0.00	0.00	0.00	0.00	0.00	0.00	0.00	0.00	-0.583984	0.056152	0.942871	14.560000	-39.900002	44.380001	0.00	0.00	0.00
1.39	12.75	16.50	10.25	16.50	4.50	9.25	0.75	2.75	0.75	1.25	3.00	5.25	5.25	2.50	0.50	1.00	-0.198730	0.063477	0.961426	3.220000	7.490000	-1.680000	970.00	-0.18	-0.12	0.00	0.00	0.00	0.00	0.00	0.00	0.00	0.00	0.00	0.00	0.00	0.00	0.00	0.00	0.00	0.00	-0.582520	0.087891	0.938965	14.490000	-39.759998	41.580002	0.00	0.00	0.00
1.40	10.75	15.25	9.75	16.00	4.50	9.00	0.75	2.75	1.00	1.25	3.25	5.75	6.00	2.25	0.50	1.25	-0.194336	0.061523	0.954102	4.200000	8.470000	-1.540000	941.00	-0.17	-0.13	0.00	0.50	0.00	0.00	0.00	0.00	0.00	0.00	0.00	0.00	0.00	0.00	0.00	0.00	0.00	0.00	-0.602539	0.101562	0.859863	20.090000	-41.299999	36.189999	5.00	0.00	0.00
1.41	9.75	13.50	9.50	15.50	4.50	9.25	0.75	3.50	0.75	1.25	3.75	6.50	6.50	2.50	0.50	1.50	-0.194336	0.062012	0.950684	4.690000	8.750000	-1.330000	938.00	-0.15	-0.14	0.00	0.00	0.00	0.00	0.00	0.00	0.00	0.00	0.00	0.00	0.00	0.00	0.00	0.00	0.00	0.00	-0.602539	0.101562	0.859863	20.090000	-41.299999	36.189999	0.00	0.00	0.00
1.42	8.50	12.00	8.75	14.50	4.25	9.00	0.75	4.00	1.75	1.75	5.00	7.00	7.00	2.75	0.75	1.75	-0.194336	0.065430	0.959961	4.690000	9.520000	-1.470000	941.00	-0.12	-0.14	0.00	0.00	0.00	0.00	0.00	0.00	0.00	0.00	0.00	0.00	0.00	0.00	0.00	0.00	0.00	0.00	-0.608887	0.098145	0.816895	22.400000	-40.459999	34.230000	0.00	0.00	0.00
1.43	7.50	10.50	8.50	13.50	4.00	8.50	0.75	4.50	1.75	2.00	6.00	7.75	7.50	2.75	1.00	1.75	-0.193848	0.067871	0.959473	4.060000	10.220000	-1.820000	930.00	-0.10	-0.14	0.00	0.25	0.00	0.00	0.00	0.00	0.00	0.00	0.00	0.00	0.00	0.00	0.00	0.00	0.00	0.00	-0.620117	0.049805	0.795410	20.230000	-36.610001	32.759998	2.00	0.00	0.00
1.44	6.75	9.25	8.25	13.00	3.50	8.25	0.75	5.00	1.75	2.50	7.50	8.25	8.00	3.75	1.00	2.00	-0.190430	0.068359	0.955078	3.080000	10.850000	-2.380000	943.00	-0.07	-0.15	0.25	0.00	0.00	0.00	0.00	0.00	0.00	0.00	0.00	0.00	0.00	0.00	0.00	0.00	0.00	0.00	-0.631348	0.030273	0.772949	16.170000	-34.369999	33.110001	3.00	0.00	0.00
1.45	6.50	8.25	7.25	11.50	3.75	8.00	0.75	5.00	1.75	2.75	7.75	8.50	8.25	3.75	1.25	2.25	-0.195801	0.076172	0.953125	2.380000	11.410000	-2.870000	917.00	-0.05	-0.15	0.00	0.00	0.00	0.00	0.00	0.00	0.00	0.00	0.00	0.00	0.00	0.00	0.00	0.00	0.00	0.00	-0.632812	0.015625	0.756836	12.670000	-31.570000	33.389999	0.00	0.00	0.00
1.46	5.25	7.25	6.75	10.25	3.25	7.50	0.75	5.00	2.25	3.50	8.25	9.00	8.50	3.75	1.25	2.25	-0.200684	0.074219	0.960938	1.190000	12.320000	-3.360000	892.00	-0.03	-0.15	0.00	0.00	0.00	0.00	0.00	0.00	0.00	0.00	0.00	0.00	0.00	0.00	0.00	0.00	0.00	0.00	-0.634277	0.002930	0.742188	10.290000	-28.910000	33.250000	0.00	0.00	0.00
1.47	4.75	6.50	6.25	10.25	2.75	7.00	0.50	4.75	2.00	3.75	9.00	9.50	9.00	4.75	1.25	2.50	-0.203125	0.066895	0.958496	0.210000	13.160000	-3.710000	882.00	-0.01	-0.15	0.00	0.00	0.00	0.00	0.00	0.00	0.00	0.00	0.00	0.00	0.00	0.00	0.00	0.00	0.00	0.00	-0.649902	-0.004395	0.729492	8.400000	-26.250000	32.900002	0.00	0.00	0.00
1.48	3.75	6.00	5.50	8.50	2.75	6.25	0.75	5.00	3.00	4.25	9.25	10.00	9.50	5.00	1.75	2.50	-0.203125	0.069824	0.955566	-0.070000	13.860000	-3.920000	877.00	0.01	-0.15	0.00	0.00	0.00	0.00	0.00	0.00	0.00	0.00	0.00	0.00	0.00	0.00	0.00	0.00	0.00	0.00	-0.662598	-0.040527	0.699707	6.090000	-23.240000	32.270000	0.00	0.00	0.00
1.49	3.50	5.25	5.25	8.25	2.50	5.75	0.50	4.50	3.50	5.25	9.75	10.75	9.75	5.50	1.50	3.50	-0.203125	0.071777	0.955566	0.350000	14.630000	-3.780000	882.00	0.03	-0.14	0.00	0.00	0.00	0.00	0.00	0.00	0.00	0.00	0.00	0.00	0.00	0.00	0.00	0.00	0.00	0.00	-0.689453	-0.133789	0.689941	0.700000	-18.760000	29.750000	0.00	0.00	0.00
1.50	2.25	4.50	3.75	7.00	1.50	5.25	0.50	4.50	3.25	6.50	10.50	11.00	10.25	6.00	1.50	3.75	-0.203613	0.076660	0.960449	0.560000	17.290001	-3.990000	846.00	0.07	-0.15	0.00	0.00	0.00	0.00	0.00	0.00	0.00	0.00	0.00	0.00	0.00	0.00	0.00	0.00	0.00	0.00	-0.702148	-0.233887	0.689453	-10.010000	-14.000000	24.290001	0.00	0.00	0.00
1.51	2.25	4.00	3.75	6.50	1.75	4.50	0.50	4.25	4.00	7.00	10.75	11.50	10.50	6.75	2.00	3.50	-0.217773	0.080566	0.960449	0.490000	19.250000	-4.270000	862.00	0.08	-0.14	0.00	0.00	0.00	0.00	0.00	0.00	0.00	0.00	0.00	0.00	0.00	0.00	0.00	0.00	0.00	0.00	-0.695801	-0.220215	0.748535	-21.490000	-12.390000	15.820000	0.00	0.00	0.00
1.52	1.50	2.50	2.25	6.00	1.75	3.50	0.50	4.00	4.75	8.00	11.50	12.25	11.00	7.50	2.25	4.25	-0.209473	0.072266	0.954590	0.210000	21.139999	-4.550000	857.00	0.12	-0.14	0.00	0.00	0.00	0.00	0.00	0.00	0.00	0.00	0.00	0.00	0.00	0.00	0.00	0.00	0.00	0.00	-0.687988	-0.169434	0.776367	-25.690001	-15.750000	6.020000	0.00	0.00	0.00
1.53	1.25	2.50	2.50	2.50	1.50	3.00	0.50	3.75	5.50	8.25	12.25	13.00	11.25	8.25	2.25	5.00	-0.240234	0.075195	0.960449	0.210000	22.540001	-4.900000	847.00	0.15	-0.13	0.00	0.00	0.25	0.00	0.00	0.00	0.00	0.00	0.00	0.00	0.00	0.00	0.00	0.00	0.00	0.00	-0.705078	-0.145020	0.667480	-23.940001	-19.670000	-3.850000	3.00	0.00	0.00
1.54	0.75	2.25	1.75	3.75	1.00	2.00	0.50	3.25	6.25	8.75	12.50	13.25	11.50	8.75	2.25	5.25	-0.227539	0.066895	0.968750	0.070000	23.030001	-4.970000	849.00	0.16	-0.12	0.00	0.25	0.00	0.00	0.00	0.00	0.00	0.00	0.00	0.00	0.00	0.00	0.00	0.00	0.00	0.00	-1.559082	-1.008789	0.707520	-48.020000	11.550000	-20.299999	2.00	0.00	0.00
1.55	0.75	1.75	1.25	3.00	0.75	1.25	0.50	2.75	6.25	9.25	13.00	13.50	11.75	9.50	2.25	5.25	-0.215332	0.066406	0.956543	0.630000	24.570000	-5.530000	834.00	0.18	-0.12	0.00	0.25	0.00	0.25	0.00	0.00	0.00	0.00	0.00	0.00	0.00	0.00	0.00	0.00	0.00	0.00	-0.744629	0.000488	-0.416504	-81.199997	56.209999	-53.549999	5.00	0.00	0.00
1.56	0.50	1.00	0.75	2.50	0.75	1.00	0.50	2.50	7.50	9.75	13.25	14.00	12.00	10.00	2.50	5.25	-0.211914	0.068848	0.959961	1.120000	26.460001	-6.090000	845.00	0.20	-0.11	0.50	0.75	0.25	0.75	0.00	0.00	0.00	0.00	0.00	0.00	0.00	0.00	0.00	0.00	0.00	0.00	-0.110352	0.405762	1.538086	-88.410004	83.650002	-62.510002	23.00	0.00	0.00
1.57	0.50	0.75	0.75	1.75	0.25	0.50	0.25	2.00	7.50	9.75	13.50	14.25	12.00	10.25	2.00	5.25	-0.255371	0.066895	0.987305	1.260000	30.309999	-7.490000	815.00	0.21	-0.11	1.00	2.25	0.75	1.50	0.00	0.00	0.00	0.00	0.00	0.00	0.00	0.00	0.00	0.00	0.00	0.00	0.033691	0.882324	1.465332	-48.650002	71.750000	-32.130001	56.00	-0.35	-0.09
1.58	0.00	0.50	0.50	1.25	0.25	0.50	0.25	2.00	7.75	10.25	14.00	14.50	12.25	10.75	2.50	5.25	-0.242676	0.059570	0.973145	-0.630000	33.670002	-7.210000	827.00	0.22	-0.11	2.50	3.50	1.00	2.50	0.00	0.00	0.00	0.00	0.00	0.00	0.00	0.00	0.00	0.00	0.00	0.00	-0.297363	0.042480	0.911133	-34.160000	68.809998	-5.110000	97.00	-0.36	-0.08
1.59	0.00	0.50	0.50	0.50	0.25	0.00	0.25	1.50	8.00	10.50	14.00	14.75	12.00	11.50	2.75	5.50	-0.232422	0.082520	0.973633	5.950000	55.369999	-6.580000	822.00	0.24	-0.10	3.75	5.25	1.50	3.25	0.00	0.00	0.00	0.00	0.00	0.00	0.00	0.00	0.00	0.00	0.00	0.00	-0.231445	0.073730	1.290039	-35.770000	100.870003	-3.290000	140.00	-0.36	-0.07
1.60	0.00	0.50	0.50	0.75	0.00	0.00	0.00	1.25	8.25	10.75	14.25	14.75	11.75	11.75	2.75	5.00	-0.253906	0.075684	0.993164	7.490000	72.379997	-5.460000	820.00	0.24	-0.09	4.75	5.50	1.75	4.00	0.25	0.00	0.00	0.00	0.00	0.00	0.00	0.00	0.00	0.00	0.00	0.00	-0.333496	0.060059	1.715332	-35.279999	98.699997	-4.620000	166.00	-0.36	-0.07
1.61	0.00	0.00	0.00	0.75	0.00	0.00	0.00	0.75	8.25	10.75	14.00	14.50	11.50	12.25	2.50	5.25	-0.267090	0.073242	0.982422	7.490000	88.620003	-5.600000	798.00	0.25	-0.09	5.00	5.75	2.00	4.25	0.25	0.00	0.00	0.00	0.00	0.00	0.00	0.00	0.00	0.00	0.00	0.00	-0.283691	0.145020	1.333984	-28.000000	77.349998	-1.610000	176.00	-0.36	-0.07
1.62	0.00	0.00	0.00	0.75	0.00	0.00	0.00	0.75	8.50	11.00	14.25	14.50	11.00	12.75	2.50	5.25	-0.270508	0.087891	1.015137	6.230000	107.730003	-6.860000	807.00	0.25	-0.08	5.50	5.75	2.25	4.50	0.25	0.00	0.00	0.00	0.00	0.00	0.00	0.00	0.00	0.00	0.00	0.00	-0.157715	0.039062	1.044434	-9.310000	59.849998	6.160000	187.00	-0.35	-0.06
1.63	0.00	0.25	0.00	0.25	0.00	0.00	0.00	0.50	8.50	11.00	14.25	14.25	10.50	13.25	2.75	5.25	-0.303223	0.092773	1.032715	5.040000	126.770004	-9.240000	800.00	0.25	-0.08	5.75	6.00	2.50	5.00	0.25	0.00	0.00	0.00	0.00	0.00	0.00	0.00	0.00	0.00	0.00	0.00	-0.148438	0.018066	0.939453	-1.680000	55.510002	4.550000	200.00	-0.35	-0.06
1.64	0.00	0.00	0.00	0.00	0.00	0.00	0.00	0.50	8.50	11.25	14.00	13.75	9.75	13.50	2.75	5.25	-0.332031	0.074707	1.008789	2.940000	148.330002	-11.550000	785.00	0.26	-0.07	5.75	6.00	2.75	5.00	0.50	0.00	0.00	0.00	0.00	0.00	0.00	0.00	0.00	0.00	0.00	0.00	-0.145020	0.083984	0.883789	6.650000	55.299999	3.360000	206.00	-0.35	-0.06
1.65	0.00	0.00	0.25	0.00	0.00	0.00	0.00	0.25	8.75	11.25	13.75	13.50	9.25	14.00	2.75	5.25	-0.348145	0.078613	1.024902	-1.750000	165.830002	-13.370000	782.00	0.26	-0.06	6.25	6.75	2.75	5.25	0.75	0.50	0.00	0.00	0.00	0.00	0.00	0.00	0.00	0.00	0.00	0.00	-0.164551	0.139648	0.876465	13.790000	57.189999	5.530000	229.00	-0.34	-0.06
1.66	0.00	0.00	0.00	0.00	0.00	0.00	0.00	0.50	8.75	11.25	13.50	13.00	8.50	14.00	2.50	5.25	-0.377441	0.084473	1.036133	-8.050000	177.660004	-14.910000	766.00	0.26	-0.06	6.75	7.50	3.25	6.00	0.75	0.00	0.00	0.00	0.00	0.00	0.00	0.00	0.00	0.00	0.00	0.00	-0.187012	0.002930	0.864746	-19.389999	15.470000	6.790000	249.00	-0.35	-0.06
1.67	0.00	0.00	0.00	0.00	0.00	0.00	0.00	0.50	8.75	11.50	13.50	12.50	7.75	14.50	2.50	5.00	-0.396973	0.083008	1.023438	-10.710000	189.770004	-17.080000	759.00	0.26	-0.05	7.50	8.00	3.75	6.50	0.75	0.25	0.00	0.00	0.00	0.00	0.00	0.00	0.00	0.00	0.00	0.00	-0.164551	0.068848	0.863281	-38.709999	0.140000	3.430000	275.00	-0.35	-0.06
1.68	0.00	0.00	0.00	0.00	0.00	0.00	0.00	0.50	8.50	11.25	13.00	11.50	7.00	14.50	2.50	5.00	-0.451172	0.117188	1.034668	-10.430000	201.320007	-19.600000	731.00	0.27	-0.05	8.25	8.75	4.25	7.25	1.00	0.50	0.00	0.00	0.00	0.25	0.00	0.00	0.00	0.00	0.00	0.00	-0.202148	0.064453	1.072754	-33.459999	-17.710001	3.080000	312.00	-0.34	-0.06
1.69	0.00	0.00	0.00	0.00	0.00	0.00	0.00	0.25	8.50	11.25	12.75	10.75	6.25	14.50	2.25	5.00	-0.475586	0.072754	0.987305	-11.340000	214.130005	-21.910000	708.00	0.27	-0.04	8.75	9.25	5.50	8.00	1.00	0.50	0.00	0.00	0.00	0.25	0.00	0.00	0.00	0.00	0.00	0.25	-0.198242	0.053223	1.000000	-18.969999	-26.530001	3.080000	345.00	-0.33	-0.06
1.70	0.00	0.00	0.00	0.00	0.00	0.00	0.00	0.25	8.25	11.25	12.00	10.00	5.50	14.25	2.50	5.00	-0.553711	0.085938	1.022461	-17.990000	241.500000	-26.320000	683.00	0.27	-0.03	9.50	10.00	5.75	8.25	1.00	0.50	0.00	0.00	0.25	0.00	0.00	0.00	0.00	0.00	0.00	0.25	-0.185059	0.069824	0.992676	-6.160000	-26.809999	4.130000	366.00	-0.33	-0.05
1.71	0.00	0.00	0.25	0.00	0.00	0.00	0.00	0.00	8.00	10.75	11.50	9.00	5.00	14.00	2.50	4.50	-0.599121	0.085938	1.014160	-22.260000	256.690002	-28.770000	648.00	0.27	-0.02	10.00	10.50	6.50	9.00	1.00	0.50	0.00	0.00	0.25	0.50	0.00	0.00	0.00	0.00	0.00	0.25	-0.157227	0.065430	0.979004	-1.470000	-25.549999	4.410000	398.00	-0.33	-0.05
1.72	0.00	0.00	0.00	0.00	0.00	0.00	0.00	0.00	7.75	10.50	10.75	8.25	3.75	13.75	2.25	4.00	-0.632812	0.058105	1.037109	-26.180000	273.489990	-30.660000	605.00	0.28	-0.01	11.00	10.75	6.75	9.50	1.00	0.75	0.00	0.00	0.25	0.50	0.00	0.00	0.00	0.00	0.00	0.50	-0.161621	0.065430	0.990723	0.280000	-25.059999	4.480000	423.00	-0.32	-0.05
1.73	0.00	0.00	0.00	0.00	0.00	0.00	0.00	0.00	7.50	10.00	9.75	7.50	3.00	13.25	2.00	3.75	-0.701660	0.070312	1.090820	-28.070000	287.700012	-31.990000	564.00	0.28	-0.00	10.50	11.25	7.00	9.75	1.25	1.25	0.00	0.00	0.25	0.50	0.00	0.00	0.00	0.00	0.00	0.75	-0.166504	0.072266	0.991699	1.400000	-23.100000	4.550000	437.00	-0.32	-0.06
1.74	0.00	0.00	0.00	0.00	0.00	0.00	0.00	0.00	6.50	9.25	8.75	6.50	2.50	13.25	1.50	3.50	-0.778320	0.076172	1.168457	-28.980000	299.809998	-33.740002	511.00	0.28	0.00	11.00	11.75	7.50	10.25	1.25	1.25	0.00	0.00	0.00	0.50	0.00	0.00	0.00	0.25	0.25	0.75	-0.155762	0.075195	0.973633	1.890000	-21.000000	4.550000	460.00	-0.31	-0.06
1.75	0.00	0.00	0.00	0.00	0.00	0.00	0.00	0.00	5.25	8.50	7.75	5.50	1.75	12.25	1.75	3.00	-0.944336	0.135742	1.171387	-22.889999	308.350006	-33.950001	451.00	0.28	0.01	11.50	12.00	7.75	10.50	1.50	1.50	0.00	0.00	0.50	0.50	0.00	0.00	0.25	0.00	0.00	0.75	-0.157227	0.082031	0.980957	1.680000	-19.950001	4.270000	482.00	-0.31	-0.06
1.76	0.00	0.00	0.00	0.00	0.00	0.00	0.00	0.00	3.75	8.00	6.75	4.75	1.00	11.75	1.00	2.25	-1.244629	0.190918	1.580566	-10.990000	311.640015	-34.439999	385.00	0.29	0.01	11.75	12.25	7.75	10.75	1.75	2.00	0.00	0.25	0.50	0.50	0.25	0.00	0.50	0.25	0.25	1.25	-0.147949	0.084961	0.979004	0.910000	-18.760000	3.780000	514.00	-0.29	-0.06
1.77	0.00	0.00	0.00	0.00	0.00	0.00	0.00	0.00	2.75	7.50	5.75	3.75	0.75	11.00	0.75	1.75	-1.177734	0.012207	1.660156	5.180000	311.989990	-35.279999	331.00	0.29	0.02	12.00	12.75	8.25	11.25	1.75	2.25	0.00	0.00	0.50	1.00	0.50	0.00	1.00	0.00	0.25	1.25	-0.146484	0.081543	0.975586	-0.280000	-17.710001	3.290000	541.00	-0.29	-0.07
1.78	0.00	0.00	0.00	0.00	0.00	0.00	0.00	0.00	2.00	7.25	4.50	2.75	0.75	10.00	0.50	1.25	-1.174316	0.249512	1.311523	1.470000	309.190002	-39.340000	281.00	0.29	0.03	12.25	13.00	8.50	11.50	1.75	2.50	0.00	0.25	0.50	0.75	0.50	0.00	1.00	0.50	0.25	1.50	-0.145508	0.069824	0.979980	-1.050000	-16.170000	2.940000	561.00	-0.28	-0.07
1.79	0.00	0.00	0.00	0.00	0.00	0.00	0.00	0.00	1.75	6.00	3.75	2.00	0.75	9.25	0.25	0.75	-1.196777	0.549805	1.437500	29.120001	310.730011	-33.950001	238.00	0.30	0.04	12.00	13.00	8.25	11.75	2.00	3.00	0.00	0.50	0.75	0.75	0.25	0.50	1.50	0.50	0.25	1.75	-0.144043	0.074707	0.989746	-1.330000	-14.070000	2.730000	582.00	-0.27	-0.08
1.80	0.00	0.00	0.00	0.00	0.00	0.00	0.00	0.00	1.25	5.50	2.50	1.50	0.25	8.25	0.00	0.25	-0.944336	0.127930	1.589844	67.480003	296.450012	-45.290001	189.00	0.30	0.06	12.00	12.75	8.50	11.75	2.00	3.00	0.00	0.50	0.75	1.00	0.75	0.50	2.00	0.50	0.50	2.00	-0.144043	0.080566	0.985840	-1.330000	-12.320000	2.660000	599.00	-0.25	-0.08
1.81	0.00	0.00	0.00	0.00	0.00	0.00	0.00	0.00	0.75	4.50	2.25	1.25	0.25	6.75	0.25	0.50	-0.549805	0.088867	1.633301	69.510002	286.299988	-63.209999	158.00	0.30	0.05	11.75	13.00	8.50	11.75	2.00	3.75	0.00	0.75	0.75	1.25	1.00	0.75	2.50	1.00	0.25	2.25	-0.139160	0.075195	0.981445	-1.050000	-10.570000	2.660000	625.00	-0.24	-0.09
1.82	0.00	0.00	0.00	0.00	0.00	0.00	0.00	0.00	0.75	3.25	1.75	1.00	0.00	4.25	0.00	0.00	-0.879395	0.077148	1.504395	56.770000	266.980011	-77.840004	109.00	0.29	0.06	11.25	12.75	8.50	11.75	2.25	4.00	0.00	0.75	0.75	1.25	1.00	1.00	2.50	0.75	0.75	2.50	-0.130371	0.081543	0.980957	-1.680000	-8.610000	2.030000	631.00	-0.23	-0.09
1.83	0.00	0.00	0.00	0.00	0.00	0.00	0.00	0.00	0.50	2.50	1.50	0.75	0.25	1.25	0.00	0.00	-0.526855	0.400879	1.252930	56.630001	239.190002	-89.529999	69.00	0.26	0.00	11.25	12.50	8.50	12.00	2.25	5.00	0.00	1.00	1.00	1.50	1.50	1.25	3.25	1.25	0.75	2.75	-0.146484	0.074707	0.973633	-2.030000	-8.120000	1.680000	672.00	-0.21	-0.10
1.84	0.00	0.25	0.00	0.00	0.00	0.00	0.00	0.00	0.00	2.00	1.50	0.75	0.00	0.50	0.00	0.00	0.815918	0.140625	1.819824	72.099998	193.199997	-108.570000	51.00	0.22	-0.05	10.50	12.00	8.50	11.75	2.50	4.75	0.00	1.25	1.00	1.75	1.75	1.50	3.50	1.25	0.75	3.25	-0.131348	0.084961	0.992188	-2.030000	-7.560000	1.470000	673.00	-0.19	-0.10
1.85	0.00	0.00	0.00	0.00	0.00	0.00	0.00	0.00	0.25	1.25	0.50	0.25	0.00	0.00	0.00	0.00	1.467773	-0.317871	2.871094	83.510002	102.830002	-146.160004	24.00	0.00	0.00	10.00	11.75	8.25	11.50	2.50	4.75	0.00	1.25	1.50	1.75	2.00	2.00	4.00	1.25	1.00	3.50	-0.138184	0.082031	0.979004	-2.100000	-6.650000	1.400000	683.00	-0.17	-0.10
1.86	0.00	0.00	0.00	0.00	0.00	0.00	0.00	0.00	0.00	0.75	0.25	0.00	0.00	0.00	0.00	0.00	0.370117	0.055664	2.319336	81.830002	20.230000	-189.559998	10.00	0.00	0.00	9.25	11.25	8.00	11.25	2.75	5.00	0.00	1.50	1.50	2.00	2.50	2.00	4.25	1.50	1.25	4.25	-0.136230	0.077637	0.982422	-2.100000	-5.740000	1.330000	693.00	-0.16	-0.11
1.87	0.00	0.00	0.00	0.00	0.00	0.00	0.00	0.00	0.00	0.75	0.25	0.50	0.00	0.00	0.00	0.00	0.957031	-0.054688	1.769043	56.560001	-49.490002	-196.770004	16.00	0.00	0.00	9.00	10.75	8.00	11.00	2.75	5.00	0.00	1.50	2.00	2.25	3.00	2.50	4.50	2.00	1.25	4.75	-0.134766	0.077637	0.986816	-1.890000	-4.690000	1.330000	712.00	-0.14	-0.10
1.88	0.00	0.00	0.00	0.00	0.00	0.00	0.00	0.00	0.00	0.25	0.25	0.00	0.00	0.00	0.00	0.00	0.521973	0.378906	1.078125	24.500000	-83.440002	-178.639999	5.00	0.00	0.00	8.50	10.25	7.75	10.75	2.75	5.00	0.00	1.75	2.25	2.50	3.50	2.50	5.00	2.00	1.50	5.00	-0.133789	0.076172	0.990234	-1.750000	-3.640000	1.400000	720.00	-0.12	-0.11
1.89	0.00	0.50	0.00	0.00	0.00	0.00	0.00	0.00	0.00	0.50	0.00	0.00	0.00	0.00	0.00	0.00	0.568848	0.557617	0.998047	10.150000	-90.230003	-144.130005	10.00	0.00	0.00	7.75	9.50	7.50	10.50	2.50	5.00	0.00	1.50	2.50	2.75	4.00	3.00	5.25	2.25	1.50	5.50	-0.132324	0.083984	0.985840	-1.680000	-2.660000	1.470000	717.00	-0.10	-0.11
1.90	0.00	0.00	0.00	0.00	0.00	0.00	0.00	0.00	0.00	0.25	0.00	0.00	0.00	0.00	0.00	0.00	0.601074	0.628418	0.970703	8.050000	-95.970001	-104.160004	3.00	0.00	0.00	7.00	9.00	7.00	10.00	2.75	4.75	0.00	1.75	3.00	3.25	5.25	3.50	5.25	2.25	1.75	5.75	-0.133301	0.083984	0.979492	-1.750000	-1.680000	1.260000	731.00	-0.08	-0.11
1.91	0.00	0.00	0.00	0.00	0.00	0.00	0.00	0.00	0.00	0.25	0.00	0.00	0.00	0.00	0.00	0.00	0.631836	0.483398	1.099121	24.710001	-120.050003	-32.200001	3.00	0.00	0.00	6.50	8.25	6.75	9.75	2.50	4.25	0.00	1.75	3.25	3.75	6.50	3.75	5.50	2.75	1.75	6.00	-0.129395	0.080078	0.981445	-1.960000	-0.980000	0.980000	737.00	-0.05	-0.11
1.92	0.00	0.00	0.25	0.00	0.00	0.00	0.00	0.00	0.00	0.25	0.00	0.00	0.00	0.00	0.00	0.00	0.588379	0.341309	1.179688	35.980000	-136.220001	-7.420000	5.00	0.00	0.00	5.75	7.50	6.50	9.25	2.50	3.50	0.00	1.75	3.75	4.50	7.50	4.25	6.00	3.25	2.00	6.00	-0.133301	0.081055	0.982910	-2.030000	-0.140000	0.910000	747.00	-0.03	-0.10
1.93	0.00	0.00	0.00	0.00	0.00	0.00	0.00	0.00	0.00	0.00	0.00	0.00	0.00	0.00	0.00	0.00	0.516113	0.216797	1.270020	47.670002	-155.470001	7.210000	0.00	0.00	0.00	5.00	7.00	5.75	8.75	2.25	3.50	0.00	1.75	4.25	5.50	8.00	5.00	6.50	3.50	2.25	6.50	-0.137207	0.079102	0.988770	-1.820000	0.770000	1.050000	760.00	0.00	-0.11
1.94	0.00	0.00	0.00	0.00	0.00	0.00	0.00	0.00	0.00	0.00	0.00	0.00	0.00	0.00	0.00	0.00	0.423340	0.112793	1.343262	61.250000	-177.940002	12.810000	0.00	0.00	0.00	4.50	6.50	5.25	8.25	2.00	3.00	0.00	1.50	4.75	6.25	8.50	5.50	6.75	4.00	2.50	6.75	-0.141113	0.079102	0.985352	-1.470000	2.170000	0.910000	763.00	0.02	-0.10
1.95	0.00	0.00	0.00	0.00	0.00	0.00	0.00	0.00	0.00	0.00	0.00	0.00	0.00	0.00	0.00	0.00	0.319824	0.009766	1.377441	75.320000	-202.160004	11.410000	0.00	0.00	0.00	3.75	5.50	5.00	7.75	2.00	2.50	0.00	1.75	5.25	7.25	9.00	6.50	6.75	4.50	2.50	7.00	-0.138672	0.083008	0.991699	-0.910000	3.290000	1.120000	774.00	0.05	-0.10
1.96	0.00	0.00	0.00	0.00	0.00	0.00	0.00	0.00	0.00	0.00	0.00	0.00	0.00	0.00	0.00	0.00	0.198242	-0.082520	1.323242	87.570000	-224.630005	5.600000	0.00	0.00	0.00	3.25	5.00	4.50	7.50	1.75	2.00	0.00	1.50	5.75	7.75	9.50	7.25	7.25	5.25	2.75	7.00	-0.140625	0.084473	0.983398	-0.560000	4.200000	1.190000	783.00	0.07	-0.10
1.97	0.00	0.00	0.00	0.00	0.00	0.00	0.00	0.00	0.00	0.00	0.00	0.00	0.00	0.00	0.00	0.00	0.054199	-0.158691	1.254395	94.080002	-241.220001	-2.240000	0.00	0.00	0.00	2.25	4.50	3.00	6.75	1.50	1.75	0.00	1.50	6.25	8.25	9.75	7.50	7.25	5.75	2.75	7.25	-0.136719	0.080078	0.981934	-0.350000	5.810000	0.980000	760.00	0.10	-0.10
1.98	0.00	0.00	0.00	0.00	0.00	0.00	0.00	0.00	0.00	0.00	0.00	0.00	0.00	0.00	0.00	0.00	-0.090332	-0.190430	1.193848	94.500000	-250.740005	-10.220000	0.00	0.00	0.00	1.75	3.25	2.75	5.75	1.25	1.50	0.00	1.25	6.75	8.75	10.25	7.75	7.75	6.50	3.00	7.25	-0.144043	0.085449	0.982910	-0.210000	7.350000	0.910000	753.00	0.13	-0.09
1.99	0.00	0.00	0.00	0.00	0.00	0.00	0.00	0.00	0.00	0.00	0.00	0.00	0.00	0.00	0.00	0.00	-0.194824	-0.194336	1.157715	91.279999	-254.449997	-17.920000	0.00	0.00	0.00	1.25	2.50	2.00	5.25	1.25	0.75	0.00	1.25	7.25	9.25	10.75	8.25	7.75	6.75	3.25	7.50	-0.141113	0.087402	0.988281	0.210000	8.680000	0.700000	747.00	0.15	-0.09
2.00	0.00	0.00	0.00	0.00	0.00	0.00	0.00	0.00	0.00	0.00	0.00	0.00	0.00	0.00	0.00	0.00	-0.291504	-0.153320	1.168945	86.870003	-254.729996	-25.129999	0.00	0.00	0.00	1.00	2.00	1.50	4.00	1.00	0.50	0.00	1.00	7.50	9.50	11.00	8.50	7.75	7.50	3.25	7.75	-0.158691	0.078125	0.977539	1.400000	11.270000	0.630000	730.00	0.18	-0.08
2.01	0.00	0.00	0.00	0.00	0.00	0.00	0.00	0.00	0.00	0.00	0.00	0.00	0.00	0.00	0.00	0.00	-0.352051	-0.104004	1.229004	85.190002	-253.050003	-31.990000	0.00	0.00	0.00	0.50	1.75	1.00	3.00	0.75	0.00	0.00	1.00	7.75	9.75	11.50	8.75	8.00	8.00	3.50	7.75	-0.155762	0.080566	0.985352	1.820000	12.250000	0.700000	721.00	0.20	-0.08
2.02	0.00	0.00	0.00	0.50	0.00	0.00	0.00	0.00	0.00	0.00	0.00	0.00	0.00	0.00	0.00	0.00	-0.407715	-0.061035	1.305664	89.739998	-252.699997	-38.570000	5.00	0.00	0.00	0.50	1.00	0.75	2.25	0.50	0.00	0.00	1.00	8.00	10.25	11.75	9.25	8.25	8.50	3.50	8.00	-0.146973	0.082031	0.979004	1.960000	12.740000	0.560000	725.00	0.22	-0.08
2.03	0.00	0.00	0.00	0.00	0.00	0.00	0.00	0.00	0.00	0.00	0.00	0.00	0.00	0.00	0.00	0.00	-0.487305	-0.051758	1.367188	98.209999	-253.960007	-44.520000	0.00	0.00	0.00	0.00	0.75	0.75	1.50	0.50	0.00	0.00	0.75	8.25	10.75	12.25	9.50	8.25	9.00	3.75	8.25	-0.144531	0.087402	0.979980	1.260000	14.280000	0.770000	730.00	0.23	-0.07
2.04	0.00	0.00	0.00	0.00	0.00	0.00	0.00	0.00	0.00	0.00	0.00	0.00	0.00	0.00	0.00	0.00	-0.577637	-0.053711	1.371582	106.120003	-255.710007	-48.369999	0.00	0.00	0.00	0.00	0.75	0.25	1.50	0.25	0.25	0.00	0.75	8.50	11.00	12.50	9.75	8.25	9.75	4.00	8.00	-0.161133	0.069824	0.979492	-0.210000	14.980000	0.700000	743.00	0.24	-0.07
2.05	0.00	0.00	0.00	0.00	0.00	0.00	0.00	0.00	0.00	0.00	0.00	0.00	0.00	0.00	0.00	0.00	-0.669922	-0.034180	1.330078	107.099998	-253.750000	-48.790001	0.00	0.00	0.00	0.00	0.50	0.25	1.25	0.25	0.00	0.00	0.50	8.75	11.50	13.00	9.75	8.25	10.25	4.00	8.25	-0.163086	0.093262	0.978516	-2.590000	15.960000	0.490000	751.00	0.25	-0.06
2.06	0.00	0.00	0.00	0.00	0.00	0.00	0.00	0.00	0.00	0.00	0.00	0.00	0.00	0.00	0.00	0.00	-0.756348	0.027344	1.321289	102.970001	-246.889999	-45.150002	0.00	0.00	0.00	0.00	0.00	0.00	0.75	0.25	0.00	0.00	0.50	9.00	12.00	13.00	10.00	8.25	11.00	4.50	8.50	-0.166504	0.077148	0.967773	-5.740000	19.950001	-1.120000	762.00	0.26	-0.06
2.07	0.00	0.00	0.00	0.00	0.00	0.00	0.00	0.00	0.00	0.00	0.00	0.00	0.00	0.00	0.00	0.00	-0.813965	0.104980	1.314941	97.019997	-235.410004	-38.290001	0.00	0.00	0.00	0.00	0.00	0.00	0.25	0.00	0.00	0.00	0.25	9.25	12.25	13.25	10.25	8.25	11.50	4.75	8.50	-0.160156	0.086426	0.991699	-7.840000	23.520000	-1.960000	768.00	0.27	-0.06
2.08	0.00	0.00	0.00	0.00	0.00	0.00	0.00	0.00	0.00	0.00	0.00	0.00	0.00	0.00	0.00	0.00	-0.836426	0.208008	1.378418	93.940002	-222.600006	-28.840000	0.00	0.00	0.00	0.00	0.00	0.00	0.00	0.00	0.00	0.00	0.00	9.50	12.50	13.50	10.25	8.00	12.50	4.75	8.50	-0.170898	0.120117	1.010254	-6.440000	31.500000	-2.240000	776.00	0.27	-0.05
2.09	0.00	0.00	0.00	0.00	0.00	0.00	0.00	0.00	0.00	0.00	0.00	0.00	0.00	0.00	0.00	0.00	-0.848633	0.339355	1.496094	100.169998	-212.869995	-17.360001	0.00	0.00	0.00	0.00	0.00	0.00	0.50	0.00	0.00	0.00	0.00	9.75	13.00	13.75	10.25	8.00	13.25	5.00	8.50	-0.189941	0.089355	0.993652	-6.860000	37.869999	-2.940000	802.00	0.27	-0.05
2.10	0.00	0.00	0.00	0.00	0.00	0.00	0.00	0.00	0.00	0.00	0.00	0.00	0.00	0.00	0.00	0.00	-0.895996	0.361328	1.522461	113.470001	-208.460007	-3.570000	0.00	0.00	0.00	0.00	0.00	0.00	0.25	0.00	0.00	0.00	0.00	10.25	13.25	13.75	10.25	7.75	14.00	5.25	8.50	-0.189453	0.082031	0.979492	-8.120000	42.770000	-3.850000	815.00	0.27	-0.04
2.11	0.00	0.00	0.00	0.00	0.00	0.00	0.00	0.00	0.00	0.00	0.00	0.00	0.00	0.00	0.00	0.00	-1.023926	0.246094	1.457031	128.309998	-204.190002	11.900000	0.00	0.00	0.00	0.00	0.00	0.00	0.00	0.00	0.00	0.00	0.00	10.75	13.50	13.75	10.00	7.75	14.50	5.25	8.50	-0.197754	0.083008	0.978027	-9.170000	46.759998	-4.550000	823.00	0.27	-0.03
2.12	0.00	0.00	0.00	0.00	0.00	0.00	0.00	0.00	0.00	0.00	0.00	0.00	0.00	0.00	0.00	0.00	-1.164062	0.053711	1.371582	134.330002	-194.880005	26.389999	0.00	0.00	0.00	0.00	0.00	0.00	0.25	0.00	0.00	0.00	0.00	11.00	13.75	14.00	10.00	7.50	15.25	5.25	8.50	-0.208496	0.080566	0.990723	-10.360000	50.400002	-5.040000	838.00	0.27	-0.03
2.13	0.00	0.25	0.00	0.00	0.00	0.00	0.00	0.00	0.00	0.00	0.00	0.00	0.00	0.00	0.00	0.00	-1.338867	-0.308594	1.208984	114.029999	-160.089996	44.029999	2.00	0.00	0.00	0.00	0.00	0.00	0.00	0.00	0.00	0.00	0.00	11.25	14.00	14.00	10.00	7.50	16.00	5.50	8.50	-0.210938	0.075195	0.975586	-12.740000	53.830002	-5.460000	850.00	0.28	-0.03
2.14	0.00	0.00	0.00	0.00	0.00	0.00	0.00	0.00	0.00	0.00	0.00	0.00	0.00	0.00	0.00	0.00	-1.392090	-0.449219	1.175781	101.080002	-139.580002	46.549999	0.00	0.00	0.00	0.00	0.00	0.00	0.00	0.00	0.00	0.00	0.00	11.50	14.25	14.00	10.00	7.50	16.25	5.75	8.50	-0.223145	0.069824	0.972168	-12.950000	58.660000	-5.600000	861.00	0.28	-0.03
2.15	0.00	0.00	0.00	0.00	0.00	0.00	0.00	0.00	0.00	0.00	0.00	0.00	0.00	0.00	0.00	0.00	-1.474121	-0.634277	1.195801	92.540001	-122.010002	44.799999	0.00	0.00	0.00	0.00	0.00	0.00	0.25	0.00	0.00	0.00	0.00	11.50	14.50	14.00	10.00	7.00	17.00	6.00	8.50	-0.238770	0.064941	0.974121	-11.900000	62.160000	-5.600000	871.00	0.28	-0.02
2.16	0.00	0.00	0.00	0.00	0.00	0.00	0.00	0.00	0.00	0.00	0.00	0.00	0.00	0.00	0.00	0.00	-1.562988	-0.794434	1.213379	83.650002	-111.160004	38.220001	0.00	0.00	0.00	0.00	0.00	0.00	0.00	0.00	0.00	0.00	0.00	11.75	14.75	14.00	10.00	6.75	17.50	5.75	8.50	-0.252441	0.057617	0.987793	-10.780000	64.610001	-4.900000	874.00	0.28	-0.02
2.17	0.00	0.00	0.00	0.00	0.00	0.00	0.00	0.00	0.00	0.00	0.00	0.00	0.00	0.00	0.00	0.00	-1.670898	-0.793457	1.203125	69.230003	-107.730003	29.680000	0.00	0.00	0.00	0.00	0.00	0.00	0.00	0.00	0.00	0.00	0.00	11.75	14.75	14.00	10.00	6.75	17.75	6.25	8.50	-0.256836	0.061523	0.980469	-9.310000	67.059998	-4.060000	881.00	0.28	-0.02
2.18	0.00	0.00	0.00	0.00	0.00	0.00	0.00	0.00	0.00	0.00	0.00	0.00	0.00	0.00	0.00	0.00	-1.769531	-0.683105	1.068848	53.830002	-109.550003	23.590000	0.00	0.00	0.00	0.00	0.00	0.00	0.00	0.00	0.00	0.00	0.00	12.00	15.00	14.00	9.75	6.50	18.25	6.50	8.75	-0.267578	0.060059	0.974609	-7.840000	69.580002	-3.360000	890.00	0.28	-0.01
2.19	0.00	0.00	0.00	0.00	0.00	0.00	0.00	0.00	0.00	0.00	0.00	0.00	0.00	0.00	0.00	0.00	-1.946289	-0.537109	0.849609	44.799999	-111.930000	21.910000	0.00	0.00	0.00	0.00	0.00	0.00	0.25	0.00	0.00	0.00	0.00	12.00	15.25	14.00	9.75	6.50	18.75	6.50	8.50	-0.287109	0.061523	0.979980	-7.070000	72.940002	-2.590000	899.00	0.28	-0.01
2.20	0.00	0.00	0.00	0.00	0.00	0.00	0.00	0.00	0.00	0.00	0.00	0.00	0.00	0.00	0.00	0.00	-2.105957	-0.444824	0.532715	44.450001	-110.389999	23.940001	0.00	0.00	0.00	0.00	0.00	0.00	0.00	0.00	0.00	0.00	0.00	12.25	15.50	14.00	9.75	6.25	19.00	6.50	8.50	-0.303223	0.064453	0.993652	-6.930000	78.330002	-2.170000	902.00	0.28	-0.01
2.21	0.00	0.00	0.00	0.00	0.00	0.00	0.00	0.00	0.00	0.00	0.00	0.00	0.00	0.00	0.00	0.00	-2.309082	-0.454102	0.192871	48.369999	-100.169998	27.020000	0.00	0.00	0.00	0.00	0.00	0.00	0.00	0.00	0.00	0.00	0.00	12.50	15.50	13.75	9.75	6.00	19.50	6.75	8.50	-0.315430	0.074219	0.991699	-7.770000	84.980003	-2.030000	907.00	0.28	-0.01
2.22	0.00	0.00	0.00	0.00	0.00	0.00	0.00	0.00	0.00	0.00	0.00	0.00	0.00	0.00	0.00	0.00	-2.448730	-0.556152	-0.047363	53.340000	-78.190002	29.469999	0.00	0.00	0.00	0.00	0.00	0.00	0.00	0.00	0.00	0.00	0.00	12.75	15.75	14.00	9.75	5.75	20.00	7.00	8.50	-0.340332	0.073242	0.984863	-11.200000	98.769997	-3.850000	920.00	0.28	-0.00
2.23	0.00	0.00	0.00	0.00	0.00	0.00	0.00	0.00	0.00	0.00	0.00	0.00	0.00	0.00	0.00	0.00	-2.497070	-0.731934	-0.139160	53.340000	-47.880001	30.450001	0.00	0.00	0.00	0.00	0.00	0.00	0.00	0.00	0.00	0.00	0.00	13.00	16.00	13.75	9.50	5.75	20.50	7.00	8.50	-0.351074	0.062500	0.972656	-13.230000	106.260002	-4.900000	925.00	0.29	-0.00
2.24	0.00	0.00	0.00	0.00	0.00	0.00	0.00	0.00	0.00	0.00	0.00	0.00	0.00	0.00	0.00	0.00	-2.434082	-0.892090	-0.087891	43.119999	-14.630000	28.559999	0.00	0.00	0.00	0.00	0.00	0.00	0.00	0.00	0.00	0.00	0.00	13.25	16.25	13.50	9.50	5.50	20.75	7.25	8.50	-0.375488	0.071289	0.961914	-14.700000	113.330002	-6.090000	931.00	0.29	0.00
2.25	0.00	0.00	0.00	0.00	0.00	0.00	0.00	0.00	0.00	0.00	0.00	0.00	0.00	0.00	0.00	0.00	-2.250000	-0.965820	0.070312	25.969999	15.960000	22.469999	0.00	0.00	0.00	0.00	0.00	0.00	0.00	0.00	0.00	0.00	0.00	13.50	16.50	13.50	9.25	5.00	21.25	7.25	8.50	-0.396973	0.062500	0.951172	-15.190001	120.190002	-7.490000	934.00	0.29	0.01
2.26	0.00	0.00	0.00	0.00	0.00	0.00	0.00	0.00	0.00	0.00	0.00	0.00	0.00	0.00	0.00	0.00	-2.026367	-0.948242	0.259766	7.350000	37.869999	11.900000	0.00	0.00	0.00	0.00	0.00	0.00	0.00	0.00	0.00	0.00	0.00	13.50	16.75	13.25	9.00	5.00	21.25	7.50	8.50	-0.413086	0.067383	0.953613	-15.260000	127.260002	-9.100000	934.00	0.29	0.01
2.27	0.00	0.00	0.00	0.00	0.00	0.00	0.00	0.00	0.00	0.00	0.00	0.00	0.00	0.00	0.00	0.00	-1.809082	-0.873535	0.412598	-8.470000	51.099998	-2.170000	0.00	0.00	0.00	0.00	0.00	0.00	0.00	0.00	0.00	0.00	0.00	13.75	17.00	13.25	9.00	4.50	21.75	7.50	8.25	-0.436523	0.064941	0.957031	-15.470000	135.169998	-10.990000	939.00	0.29	0.01
2.28	0.00	0.00	0.00	0.00	0.00	0.00	0.00	0.00	0.00	0.00	0.00	0.00	0.00	0.00	0.00	0.00	-1.959961	-0.793945	0.310547	-20.650000	59.290001	-17.990000	0.00	0.00	0.00	0.00	0.00	0.00	0.00	0.00	0.00	0.00	0.00	14.00	17.25	13.25	8.75	4.50	21.50	7.50	8.25	-0.460938	0.066895	0.962402	-15.820000	144.550003	-12.950000	940.00	0.29	0.01
2.29	0.00	0.25	0.00	0.00	0.00	0.00	0.00	0.00	0.00	0.00	0.00	0.00	0.00	0.00	0.00	0.00	0.324707	-0.182617	1.238770	-103.949997	124.110001	-24.710001	2.00	0.00	0.00	0.00	0.25	0.00	0.00	0.00	0.00	0.00	0.00	14.00	17.50	13.00	8.50	3.75	21.00	7.50	8.00	-0.475098	0.056641	0.955078	-15.820000	155.680008	-14.560000	927.00	0.29	0.02
2.30	0.25	0.75	0.25	0.00	0.00	0.00	0.00	0.00	0.00	0.00	0.00	0.00	0.00	0.00	0.00	0.00	-0.259277	0.104492	1.532715	-109.830002	96.529999	-28.420000	12.00	0.00	0.00	0.00	0.00	0.00	0.00	0.00	0.00	0.00	0.00	14.00	17.50	12.75	8.50	3.75	21.50	7.50	8.25	-0.504883	0.047852	0.956543	-14.070000	168.350006	-15.260000	928.00	0.29	0.02
2.31	0.75	2.25	0.75	1.00	0.00	0.00	0.00	0.00	0.00	0.00	0.00	0.00	0.00	0.00	0.00	0.00	-0.077148	-0.022949	0.728027	-139.930008	68.250000	-35.209999	48.00	0.00	0.00	0.00	0.00	0.00	0.00	0.00	0.00	0.00	0.00	13.75	17.50	12.75	8.25	3.75	21.50	8.00	8.00	-0.537598	0.035645	0.985840	-12.110000	182.910004	-15.470000	926.00	0.29	0.02
2.32	2.25	4.00	1.00	2.50	0.00	0.00	0.00	0.00	0.00	0.00	0.00	0.00	0.00	0.00	0.00	0.00	-0.223145	-0.221680	1.626465	-157.360001	110.739998	-26.389999	99.00	-0.36	-0.09	0.00	0.00	0.00	0.00	0.00	0.00	0.00	0.00	13.50	17.25	12.75	8.00	2.50	21.25	7.75	7.75	-0.566895	0.040039	1.015137	-13.930000	202.930008	-16.309999	900.00	0.29	0.02
2.33	6.25	7.50	2.25	4.00	0.25	0.00	0.00	0.00	0.00	0.00	0.00	0.00	0.00	0.00	0.00	0.00	-0.416016	-0.203125	1.410156	-120.470001	182.279999	-3.990000	205.00	-0.36	-0.06	0.00	0.00	0.00	0.00	0.00	0.00	0.00	0.00	13.25	17.25	12.75	7.75	2.50	21.25	7.75	7.75	-0.600586	0.038574	1.029297	-20.370001	229.040009	-17.990000	894.00	0.29	0.02
2.34	8.00	9.25	3.75	5.25	0.50	0.50	0.00	0.00	0.00	0.00	0.00	0.00	0.00	0.00	0.00	0.00	-0.490234	0.056152	1.626465	-31.430000	185.990005	-1.750000	278.00	-0.35	-0.06	0.00	0.00	0.00	0.00	0.00	0.00	0.00	0.00	12.75	16.75	12.25	7.25	2.25	20.75	7.75	7.50	-0.649414	0.069336	1.033203	-28.139999	258.790009	-20.719999	864.00	0.29	0.03
2.35	10.00	10.75	4.75	7.00	0.75	0.50	0.00	0.00	0.00	0.00	0.00	0.00	0.00	0.00	0.00	0.00	-0.349609	0.085938	1.153809	-10.780000	149.449997	5.390000	346.00	-0.35	-0.05	0.00	0.00	0.00	0.00	0.00	0.00	0.00	0.00	12.00	16.25	12.00	6.25	1.50	20.25	7.50	7.00	-0.708496	0.104492	1.087402	-37.099998	287.489990	-26.110001	820.00	0.30	0.03
2.36	11.50	11.50	5.75	8.00	1.00	0.50	0.25	0.00	0.00	0.00	0.00	0.00	0.00	0.00	0.00	0.00	-0.886230	-0.006348	3.080078	-114.309998	102.970001	-6.370000	397.00	-0.34	-0.05	0.00	0.25	0.00	0.00	0.00	0.00	0.00	0.00	10.75	15.50	11.25	5.50	1.50	20.00	7.25	6.75	-0.796387	0.097168	1.151367	-46.830002	317.309998	-33.389999	776.00	0.30	0.03
2.37	11.75	13.50	6.75	8.50	1.25	0.75	0.25	0.00	0.00	0.00	0.00	0.00	0.00	0.00	0.00	0.00	-0.405762	0.016602	1.322754	-99.050003	25.270000	-5.670000	440.00	-0.34	-0.05	0.00	0.00	0.00	0.00	0.00	0.00	0.00	0.00	9.25	14.00	10.50	4.25	1.00	19.25	6.75	6.00	-0.996582	0.092285	1.273438	-57.189999	345.380005	-41.439999	698.00	0.30	0.04
2.38	11.50	13.00	7.50	9.00	1.25	1.00	0.25	0.00	0.00	0.00	0.00	0.00	0.00	0.00	0.00	0.00	-0.269043	0.052734	0.972168	-78.889999	-3.710000	-3.710000	450.00	-0.34	-0.05	0.00	0.00	0.00	0.00	0.00	0.00	0.00	0.00	7.75	12.25	9.50	3.25	0.75	18.00	6.25	5.50	-1.358887	0.114258	1.595703	-69.650002	361.899994	-50.400002	618.00	0.30	0.04
2.39	12.75	12.50	8.00	9.25	1.25	1.50	0.50	0.00	0.25	0.00	0.00	0.00	0.25	0.00	0.00	0.00	-0.329590	0.010742	1.236816	-56.840000	-28.490000	-2.660000	481.00	-0.33	-0.04	0.00	0.00	0.00	0.00	0.00	0.00	0.00	0.00	6.25	11.25	8.50	2.25	0.25	16.50	5.50	4.75	-1.643066	0.170410	1.887207	-68.389999	369.390015	-55.790001	538.00	0.31	0.04
2.40	14.25	14.25	8.25	9.75	1.75	1.75	0.50	0.00	0.75	0.25	0.00	0.00	0.50	0.25	0.00	0.00	-0.277832	0.022949	0.947754	-28.700001	-31.290001	-2.730000	542.00	-0.31	-0.04	0.00	0.00	0.00	0.00	0.00	0.00	0.00	0.00	5.50	10.25	7.50	1.75	0.00	14.50	4.00	3.25	-1.338867	0.681152	1.854004	-68.949997	368.200012	-53.900002	459.00	0.31	0.05
2.41	13.25	13.50	9.00	10.50	2.00	2.50	0.50	0.00	0.25	0.50	0.50	0.50	1.00	0.75	0.00	0.00	-0.258789	0.034668	0.944336	-14.980000	-28.630001	-1.890000	568.00	-0.29	-0.05	0.00	0.00	0.00	0.00	0.00	0.00	0.00	0.00	5.00	9.25	6.00	1.25	0.00	12.25	3.00	2.50	-1.338867	0.681152	1.854004	-68.949997	368.200012	-53.900002	387.00	0.30	0.06
2.42	13.25	13.50	9.25	11.25	2.25	2.75	0.50	0.25	0.75	0.50	0.50	0.50	1.00	0.75	0.00	0.00	-0.239746	0.059082	0.955078	-8.960000	-26.180000	-2.030000	595.00	-0.28	-0.05	0.00	0.00	0.00	0.00	0.00	0.00	0.00	0.00	3.75	8.25	4.75	1.00	0.00	9.75	2.25	1.50	-0.865723	0.496094	2.015137	2.310000	345.450012	-60.619999	310.00	0.30	0.07
2.43	13.00	13.25	9.75	11.75	2.50	3.50	0.50	0.50	1.25	0.75	0.75	1.00	1.25	1.00	0.00	0.50	-0.236816	0.059570	0.951172	-7.840000	-20.230000	-2.800000	640.00	-0.26	-0.06	0.00	0.00	0.00	0.00	0.00	0.00	0.00	0.00	2.75	7.50	3.75	1.00	0.00	7.75	1.50	1.25	-0.773926	0.568359	1.812988	13.090000	330.399994	-77.559998	252.00	0.30	0.06
2.44	13.00	13.00	10.00	12.00	2.75	3.75	0.75	0.25	2.00	1.00	1.25	1.25	1.50	1.50	0.25	0.25	-0.236328	0.047852	0.953125	-7.000000	-15.190001	-3.080000	676.00	-0.23	-0.05	0.00	0.00	0.00	0.00	0.00	0.00	0.00	0.00	2.50	6.00	3.00	0.75	0.00	5.25	1.00	0.50	-0.521973	0.473633	1.870117	28.350000	321.299988	-96.110001	192.00	0.29	0.07
2.45	12.50	12.50	10.25	12.25	3.25	4.75	0.75	0.75	1.75	1.25	1.50	1.75	2.00	1.75	0.25	0.75	-0.223145	0.041016	0.948242	-5.040000	-10.990000	-2.590000	712.00	-0.21	-0.06	0.00	0.00	0.00	0.00	0.00	0.00	0.00	0.00	1.25	5.00	2.25	0.75	0.00	1.75	0.50	0.25	-0.271484	0.447266	1.726562	37.730000	294.839996	-111.650002	121.00	0.27	0.04
2.46	13.25	12.00	10.00	12.25	4.25	5.25	0.75	0.75	2.00	1.50	2.25	2.25	2.25	2.25	0.50	0.75	-0.226074	0.040039	0.955566	-2.380000	-7.000000	-1.890000	757.00	-0.20	-0.06	0.00	0.00	0.00	0.00	0.00	0.00	0.00	0.00	1.00	3.25	1.50	0.00	0.00	1.00	0.25	0.00	0.467285	0.548340	1.855957	35.980000	235.199997	-125.650002	74.00	0.27	0.07
2.47	11.50	11.75	10.25	12.00	4.75	5.75	0.75	1.00	2.50	2.00	2.75	2.50	2.50	2.75	0.50	1.25	-0.223633	0.049316	0.951660	-0.280000	-3.290000	-1.330000	780.00	-0.17	-0.06	0.00	0.00	0.00	0.00	0.00	0.00	0.00	0.00	0.50	2.75	1.25	0.00	0.00	0.25	0.00	0.00	1.219727	1.555176	3.165527	19.250000	112.559998	-98.699997	50.00	0.25	0.05
2.48	11.25	11.25	9.75	12.25	5.00	6.25	0.75	1.25	2.50	2.50	3.50	3.25	3.00	2.50	0.75	1.25	-0.211426	0.042480	0.946289	1.050000	-0.700000	-1.120000	808.00	-0.16	-0.07	0.00	0.00	0.00	0.00	0.00	0.00	0.00	0.00	0.75	2.25	1.00	0.00	0.00	0.00	0.00	0.00	0.362305	1.003418	4.337402	15.610000	-59.990002	-53.060001	44.00	0.00	0.00
2.49	10.00	10.00	9.50	11.50	5.00	6.25	0.75	1.50	3.00	2.75	5.00	4.25	4.00	3.00	0.75	1.50	-0.204590	0.051758	0.958984	1.960000	1.610000	-1.260000	826.00	-0.12	-0.08	0.00	0.00	0.00	0.00	0.00	0.00	0.00	0.00	0.25	2.00	0.75	0.00	0.00	0.00	0.00	0.00	0.816895	0.202148	1.456543	-43.400002	-154.559998	-18.410000	32.00	0.00	0.00
2.50	8.75	9.50	9.50	11.25	5.00	6.25	0.75	1.50	3.50	3.25	6.00	5.25	4.50	3.25	0.75	1.50	-0.214355	0.053711	0.958008	2.730000	3.570000	-1.260000	845.00	-0.10	-0.08	0.00	0.00	0.00	0.00	0.00	0.00	0.00	0.00	0.25	1.75	0.75	0.00	0.00	0.00	0.00	0.00	0.297852	0.329590	0.929688	-95.830002	-164.500000	-5.880000	29.00	0.00	0.00
2.51	7.75	9.00	9.00	10.25	5.00	6.50	0.75	2.00	3.75	3.50	7.25	5.75	5.25	3.50	0.75	2.00	-0.216309	0.054199	0.961426	3.640000	6.300000	-1.260000	860.00	-0.08	-0.09	0.00	0.00	0.00	0.00	0.00	0.00	0.00	0.00	0.25	1.50	0.75	0.00	0.00	0.00	0.00	0.00	0.256836	0.670410	0.802734	-102.059998	-149.940002	-3.010000	27.00	0.00	0.00
2.52	6.50	8.25	8.50	9.75	4.75	6.25	0.75	2.00	4.00	4.00	7.50	6.75	5.50	4.00	1.00	2.25	-0.211914	0.054199	0.955566	4.830000	8.820000	-1.190000	855.00	-0.05	-0.09	0.00	0.00	0.00	0.00	0.00	0.00	0.00	0.00	0.00	1.50	0.50	0.00	0.00	0.00	0.00	0.00	0.374023	0.711426	0.805664	-57.750000	-151.130005	-2.380000	21.00	0.00	0.00
2.53	7.00	8.00	8.75	9.50	4.75	6.25	0.75	2.50	4.25	5.00	8.25	7.50	6.25	4.25	1.25	3.00	-0.207031	0.051270	0.965332	6.300000	11.410000	-0.980000	911.00	-0.04	-0.09	0.00	0.00	0.00	0.00	0.00	0.00	0.00	0.00	0.25	1.00	0.00	0.00	0.00	0.00	0.00	0.00	0.312988	0.577148	0.923828	-6.230000	-167.930008	-3.920000	14.00	0.00	0.00
2.54	6.25	7.25	7.75	9.00	4.50	6.25	0.75	2.75	5.00	5.75	9.00	8.00	6.75	4.50	1.50	3.25	-0.211914	0.052734	0.966797	7.560000	13.860000	-0.560000	922.00	-0.01	-0.10	0.00	0.00	0.00	0.00	0.00	0.00	0.00	0.00	0.00	1.00	0.25	0.00	0.00	0.00	0.00	0.00	0.291992	0.415527	0.987305	27.020000	-189.210007	-3.920000	13.00	0.00	0.00
2.55	5.75	6.75	7.25	8.25	4.25	5.75	0.75	2.75	5.00	6.25	9.25	8.50	7.25	4.75	1.25	3.50	-0.215820	0.063965	0.960449	8.470000	18.760000	-0.210000	908.00	0.00	-0.10	0.00	0.00	0.00	0.00	0.00	0.00	0.00	0.00	0.00	0.50	0.00	0.00	0.00	0.00	0.00	0.00	0.284668	0.351074	1.066406	35.279999	-211.750000	1.680000	5.00	0.00	0.00
2.56	4.50	5.75	6.00	7.00	3.25	5.00	0.75	2.75	5.00	6.75	9.75	9.00	7.75	5.25	1.75	4.25	-0.212402	0.061523	0.954590	8.120000	21.070000	-0.350000	873.00	0.03	-0.10	0.00	0.00	0.00	0.00	0.00	0.00	0.00	0.00	0.00	0.75	0.00	0.00	0.00	0.00	0.00	0.00	0.256836	0.374023	1.142090	26.809999	-236.320007	12.950000	8.00	0.00	0.00
2.57	3.00	4.50	5.25	6.00	3.25	4.25	0.75	2.25	5.00	7.50	10.00	9.25	7.75	5.25	1.50	4.25	-0.228027	0.066895	0.958008	7.910000	23.520000	-0.980000	821.00	0.06	-0.10	0.00	0.00	0.00	0.00	0.00	0.00	0.00	0.00	0.00	0.50	0.00	0.00	0.00	0.00	0.00	0.00	0.227539	0.438477	1.222656	17.780001	-263.059998	27.719999	5.00	0.00	0.00
2.58	2.00	3.25	4.25	5.50	2.25	3.25	0.75	2.25	5.25	7.75	10.50	9.75	8.00	5.50	1.50	4.50	-0.208496	0.065430	0.966309	7.210000	24.710001	-1.330000	783.00	0.09	-0.11	0.00	0.00	0.00	0.00	0.00	0.00	0.00	0.00	0.00	0.25	0.00	0.00	0.00	0.00	0.00	0.00	0.186523	0.476074	1.254395	17.219999	-291.269989	42.349998	3.00	0.00	0.00
2.59	1.50	2.50	3.00	4.25	2.00	2.25	0.75	2.00	5.25	8.00	11.00	10.25	8.25	6.25	2.00	5.00	-0.232910	0.067383	0.947754	6.650000	25.549999	-2.100000	755.00	0.13	-0.10	0.00	0.00	0.00	0.00	0.00	0.00	0.00	0.00	0.00	0.50	0.00	0.00	0.00	0.00	0.00	0.00	0.108887	0.449707	1.171387	24.990000	-316.399994	53.619999	5.00	0.00	0.00
2.60	1.00	1.75	2.75	3.25	1.75	2.00	0.50	1.50	6.25	8.25	11.50	10.50	8.50	6.00	1.75	5.00	-0.226562	0.069824	0.944336	5.950000	26.110001	-2.590000	734.00	0.15	-0.10	0.00	0.00	0.00	0.00	0.00	0.00	0.00	0.00	0.00	0.50	0.00	0.00	0.00	0.00	0.00	0.00	-0.002441	0.387695	1.113770	37.099998	-332.429993	60.340000	5.00	0.00	0.00
2.61	1.00	1.75	2.25	2.75	1.25	1.00	0.50	1.25	6.75	8.50	11.75	11.00	8.50	6.50	2.00	5.00	-0.230957	0.067383	0.951660	4.830000	26.389999	-2.660000	726.00	0.17	-0.09	0.00	0.25	0.00	0.00	0.00	0.00	0.00	0.00	0.00	0.25	0.00	0.00	0.00	0.00	0.00	0.00	-0.248535	0.291016	1.085449	58.170002	-343.279999	66.570000	5.00	0.00	0.00
2.62	0.50	0.75	1.50	2.25	1.00	1.00	0.50	1.50	6.75	8.75	11.75	11.00	8.25	6.50	2.00	5.25	-0.230469	0.070312	0.949219	3.570000	26.880001	-2.940000	701.00	0.19	-0.09	0.00	0.00	0.00	0.00	0.00	0.00	0.00	0.00	0.00	0.00	0.00	0.00	0.00	0.00	0.00	0.00	-0.340820	0.275391	1.136719	65.169998	-342.369995	70.000000	0.00	0.00	0.00
2.63	0.50	1.00	0.75	1.25	1.25	0.50	0.50	0.75	7.50	9.25	12.75	11.50	8.75	7.50	2.00	5.25	-0.241699	0.068848	0.954590	2.240000	27.020000	-3.290000	713.00	0.21	-0.08	0.00	0.00	0.00	0.00	0.00	0.00	0.00	0.00	0.00	0.00	0.00	0.00	0.00	0.00	0.00	0.00	-0.424316	0.232910	1.190430	70.980003	-339.290009	73.360001	0.00	0.00	0.00
2.64	1.00	0.00	0.75	1.00	0.50	0.00	0.50	0.75	7.75	9.25	12.50	12.00	8.75	7.50	2.25	5.25	-0.272461	0.074219	0.933594	0.560000	27.790001	-4.060000	702.00	0.22	-0.08	0.00	0.00	0.00	0.00	0.00	0.00	0.00	0.00	0.00	0.00	0.00	0.00	0.00	0.00	0.00	0.00	-0.497559	0.185059	1.273438	75.739998	-335.160004	75.180000	0.00	0.00	0.00
2.65	0.00	0.25	0.00	0.50	0.50	0.00	0.25	0.75	8.25	9.75	13.00	12.25	8.25	8.00	2.50	5.25	-0.230469	0.086426	0.940918	-2.030000	28.700001	-6.580000	698.00	0.24	-0.08	0.00	0.00	0.00	0.00	0.00	0.00	0.00	0.00	0.00	0.00	0.00	0.00	0.00	0.00	0.00	0.00	-0.569336	0.130859	1.373047	79.800003	-330.890015	74.269997	0.00	0.00	0.00
2.66	0.00	0.25	0.25	0.50	0.25	0.00	0.25	0.75	8.25	10.00	13.25	12.25	8.75	8.25	2.50	5.25	-0.254395	0.069824	0.942383	-3.850000	30.660000	-6.230000	710.00	0.24	-0.08	0.00	0.00	0.00	0.00	0.00	0.00	0.00	0.00	0.00	0.25	0.00	0.00	0.00	0.00	0.00	0.00	-0.659180	0.109863	1.420898	82.739998	-326.690002	71.820000	3.00	0.00	0.00
2.67	0.50	1.00	0.00	0.25	0.00	0.00	0.25	0.25	8.50	10.25	13.50	12.50	8.75	8.75	2.50	5.50	-0.250000	0.055176	0.953613	-6.230000	32.480000	-5.740000	723.00	0.24	-0.07	0.00	0.00	0.00	0.00	0.00	0.00	0.00	0.00	0.00	0.00	0.00	0.00	0.00	0.00	0.00	0.00	-0.739258	0.117676	1.487305	78.680000	-321.929993	69.160004	0.00	0.00	0.00
2.68	0.00	0.25	0.00	0.25	0.00	0.00	0.25	0.25	8.50	10.50	13.75	12.75	8.50	9.00	2.75	5.25	-0.251465	0.076172	0.952637	-0.420000	44.170002	-5.950000	720.00	0.25	-0.07	0.00	0.00	0.00	0.00	0.00	0.00	0.00	0.00	0.00	0.00	0.00	0.00	0.00	0.00	0.00	0.00	-0.808594	0.218262	1.501465	71.470001	-314.019989	70.209999	0.00	0.00	0.00
2.69	0.00	0.00	0.00	0.75	0.00	0.00	0.25	0.25	9.00	10.75	14.00	12.75	8.25	9.50	2.75	5.50	-0.264160	0.067871	0.945312	0.700000	48.860001	-5.390000	738.00	0.25	-0.07	0.00	0.00	0.00	0.00	0.00	0.00	0.00	0.00	0.00	0.00	0.00	0.00	0.00	0.00	0.00	0.00	-0.907227	0.298828	1.430664	58.310001	-299.880005	74.690002	0.00	0.00	0.00
2.70	0.75	0.25	0.00	0.50	0.00	0.00	0.00	0.00	9.00	11.00	14.00	12.75	8.25	10.25	2.50	5.50	-0.275391	0.064453	0.939453	0.070000	49.700001	-5.600000	744.00	0.25	-0.06	0.00	0.00	0.00	0.00	0.00	0.00	0.00	0.00	0.00	0.00	0.00	0.00	0.00	0.00	0.00	0.00	-0.992676	0.443359	1.509766	43.889999	-279.369995	82.739998	0.00	0.00	0.00
2.71	0.00	0.00	0.00	0.00	0.00	0.00	0.00	0.00	9.25	11.25	14.25	13.00	8.50	10.50	2.50	5.50	-0.285645	0.064453	0.937500	-0.210000	50.189999	-6.160000	744.00	0.26	-0.06	0.00	0.00	0.00	0.00	0.00	0.00	0.00	0.00	0.00	0.00	0.00	0.00	0.00	0.00	0.00	0.00	-1.050781	0.706543	1.810547	45.430000	-263.549988	95.970001	0.00	0.00	0.00
2.72	0.00	0.00	0.00	0.00	0.00	0.00	0.00	0.25	9.50	11.50	14.50	13.25	8.00	11.25	3.00	5.50	-0.289062	0.064453	0.937500	-0.280000	49.630001	-6.370000	766.00	0.26	-0.06	0.00	0.00	0.00	0.00	0.00	0.00	0.00	0.00	0.00	0.00	0.00	0.00	0.00	0.00	0.00	0.00	-1.117676	0.813965	1.972168	66.849998	-263.269989	113.959999	0.00	0.00	0.00
2.73	0.00	0.00	0.00	0.00	0.00	0.00	0.00	0.00	9.50	12.00	14.75	13.50	8.25	11.50	3.00	5.75	-0.297852	0.064941	0.929688	0.420000	48.720001	-6.440000	779.00	0.26	-0.06	0.00	0.00	0.00	0.50	0.00	0.00	0.00	0.00	0.00	0.00	0.00	0.00	0.00	0.00	0.00	0.00	-1.355957	0.600098	2.011230	99.330002	-270.480011	130.059998	5.00	0.00	0.00
2.74	0.00	0.00	0.00	0.25	0.00	0.00	0.00	0.00	10.00	12.25	15.00	13.75	8.00	11.75	3.00	5.75	-0.300781	0.062012	0.925293	1.190000	48.299999	-6.300000	796.00	0.26	-0.06	0.00	0.00	0.25	0.00	0.00	0.00	0.00	0.00	0.00	0.00	0.00	0.00	0.00	0.00	0.00	0.00	-1.551270	0.184082	1.930176	123.970001	-270.899994	138.740005	3.00	0.00	0.00
2.75	0.00	0.00	0.00	0.25	0.00	0.00	0.00	0.25	10.00	12.50	15.25	14.00	8.50	12.25	3.00	5.75	-0.305664	0.065430	0.929199	2.380000	47.599998	-5.810000	816.00	0.26	-0.06	0.00	0.00	0.00	0.00	0.00	0.00	0.00	0.00	0.00	0.00	0.00	0.00	0.00	0.00	0.00	0.00	-1.734375	-0.166016	1.928711	118.440002	-264.320007	140.630005	0.00	0.00	0.00
2.76	0.00	0.00	0.00	0.00	0.00	0.00	0.00	0.00	10.25	13.00	15.75	14.50	8.75	13.00	3.25	6.00	-0.327637	0.065918	0.938477	4.130000	51.869999	-5.180000	841.00	0.26	-0.06	0.00	0.00	0.00	0.00	0.00	0.00	0.00	0.00	0.00	0.00	0.00	0.00	0.00	0.00	0.00	0.00	-1.802246	-0.319824	1.806152	85.610001	-255.990005	136.990005	0.00	0.00	0.00
2.77	0.00	0.25	0.00	0.25	0.00	0.00	0.00	0.25	10.25	13.00	15.75	14.50	8.75	13.00	3.25	6.00	-0.330078	0.064941	0.939941	4.480000	55.860001	-5.040000	850.00	0.26	-0.06	0.00	0.00	0.00	0.00	0.00	0.00	0.00	0.00	0.00	0.00	0.00	0.00	0.00	0.00	0.00	0.00	-1.876465	-0.196777	1.573242	50.959999	-245.279999	127.260002	0.00	0.00	0.00
2.78	0.00	0.00	0.00	0.00	0.00	0.00	0.00	0.00	10.25	13.25	15.75	15.00	8.75	13.50	3.50	5.75	-0.344727	0.065430	0.944824	4.620000	61.110001	-5.180000	854.00	0.26	-0.06	0.00	0.00	0.00	0.00	0.00	0.00	0.00	0.00	0.00	0.00	0.00	0.00	0.00	0.00	0.00	0.00	-2.022949	-0.155762	1.355469	48.230000	-230.790009	108.010002	0.00	0.00	0.00
2.79	0.25	0.00	0.00	0.25	0.00	0.00	0.00	0.25	10.50	13.50	16.25	15.50	9.25	14.25	3.75	6.00	-0.355469	0.064941	0.943359	4.410000	67.410004	-5.250000	895.00	0.26	-0.06	0.00	0.00	0.00	0.50	0.00	0.00	0.00	0.00	0.00	0.00	0.00	0.00	0.00	0.00	0.00	0.00	-2.318359	-0.333008	1.172852	75.459999	-217.910004	75.669998	5.00	0.00	0.00
2.80	0.00	0.00	0.00	0.00	0.00	0.00	0.00	0.00	10.50	13.50	16.25	15.50	9.25	14.50	4.00	6.00	-0.372559	0.068359	0.949219	3.360000	75.320000	-5.530000	890.00	0.26	-0.06	0.00	0.00	0.00	0.00	0.00	0.00	0.00	0.00	0.00	0.00	0.00	0.00	0.00	0.00	0.00	0.00	-2.632812	-0.527832	0.787109	92.540001	-204.889999	34.299999	0.00	0.00	0.00
2.81	0.00	0.00	0.00	0.00	0.00	0.00	0.00	0.00	10.50	14.25	16.25	15.50	9.00	15.00	4.00	6.00	-0.377441	0.070801	0.938965	0.560000	84.629997	-6.090000	900.00	0.26	-0.05	0.00	0.00	0.00	0.00	0.00	0.00	0.00	0.00	0.00	0.00	0.00	0.00	0.00	0.00	0.00	0.00	-3.012207	-0.581543	0.330078	96.320000	-184.800003	-7.280000	0.00	0.00	0.00
2.82	0.00	0.00	0.00	0.00	0.00	0.00	0.00	0.00	10.75	14.25	16.50	15.50	9.00	15.25	4.00	6.00	-0.392090	0.068359	0.953613	-1.680000	93.800003	-6.790000	908.00	0.26	-0.05	0.00	0.00	0.00	0.00	0.00	0.00	0.00	0.00	0.00	0.00	0.00	0.00	0.00	0.00	0.00	0.00	-3.484375	-0.928223	-0.358398	120.680000	-109.620003	-63.770000	0.00	0.00	0.00
2.83	0.00	0.00	0.00	0.00	0.00	0.00	0.00	0.25	11.25	15.00	16.50	15.75	9.00	16.00	4.50	6.25	-0.412598	0.072754	0.945312	-4.410000	104.160004	-7.840000	942.00	0.27	-0.05	0.00	0.00	0.00	0.00	0.00	0.00	0.00	0.00	0.00	0.00	0.00	0.00	0.00	0.00	0.00	0.00	-3.494141	-1.141113	-0.403320	105.000000	-59.849998	-67.410004	0.00	0.00	0.00
2.84	0.00	0.00	0.00	0.00	0.00	0.00	0.00	0.25	11.25	15.25	16.75	15.50	8.75	16.50	5.00	6.25	-0.434082	0.055664	0.964355	-6.020000	115.430000	-8.540000	952.00	0.27	-0.05	0.00	0.00	0.00	0.00	0.00	0.00	0.00	0.00	0.00	0.00	0.00	0.00	0.00	0.00	0.00	0.00	-4.527832	-1.760254	-0.920410	47.459999	-17.010000	-57.470001	0.00	0.00	0.00
2.85	0.00	0.00	0.00	0.00	0.00	0.00	0.00	0.25	11.50	15.50	16.50	15.25	8.50	17.25	5.00	6.25	-0.444336	0.064941	0.965820	-7.840000	128.380005	-9.100000	957.00	0.27	-0.04	0.00	0.25	0.00	0.75	0.00	0.00	0.00	0.00	0.00	0.00	0.00	0.00	0.00	0.00	0.00	0.00	-3.599609	-1.806152	-0.580566	-101.500000	81.900002	-42.700001	11.00	0.00	0.00
2.86	0.00	0.00	0.00	0.00	0.00	0.00	0.00	0.00	11.50	15.50	16.25	15.00	7.75	17.50	5.00	6.00	-0.466797	0.075195	0.968750	-9.450000	142.309998	-9.940000	942.00	0.27	-0.04	0.00	0.25	0.00	0.25	0.00	0.00	0.00	0.00	0.00	0.00	0.00	0.00	0.00	0.00	0.00	0.00	-3.333984	-0.611328	0.022461	-190.750000	146.789993	-49.560001	5.00	0.00	0.00
2.87	0.00	0.00	0.00	0.00	0.00	0.00	0.00	0.25	11.75	16.00	16.50	14.50	7.50	18.25	5.75	6.25	-0.489746	0.078125	0.964844	-10.990000	157.430008	-11.410000	965.00	0.27	-0.03	0.25	0.75	0.25	0.50	0.00	0.00	0.00	0.00	0.00	0.00	0.00	0.00	0.00	0.00	0.00	0.00	-0.560059	0.215332	1.458008	-207.550003	182.419998	-57.680000	18.00	0.00	0.00
2.88	0.00	0.00	0.00	0.00	0.00	0.00	0.00	0.00	11.50	15.75	15.75	13.75	6.75	18.00	5.50	6.00	-0.522949	0.085449	0.975586	-11.900000	173.669998	-14.280000	927.00	0.27	-0.03	1.25	2.00	0.25	0.75	0.00	0.00	0.00	0.00	0.00	0.00	0.00	0.00	0.00	0.00	0.00	0.00	-0.164551	0.654785	2.474121	-188.300003	144.479996	-32.130001	42.00	0.00	0.00
2.89	0.00	0.00	0.00	0.00	0.00	0.00	0.00	0.00	11.50	15.75	15.50	13.00	6.25	18.25	5.75	6.00	-0.544922	0.089355	1.002930	-14.980000	193.059998	-17.920000	917.00	0.28	-0.02	4.00	5.25	1.25	3.00	0.00	0.00	0.00	0.00	0.00	0.00	0.00	0.00	0.00	0.00	0.00	0.00	0.107422	-0.142578	1.478516	-141.680008	130.899994	8.610000	137.00	-0.37	-0.07
2.90	0.00	0.00	0.00	0.00	0.00	0.00	0.00	0.00	11.50	16.00	15.25	12.50	5.75	18.25	5.75	6.00	-0.574707	0.091797	1.001465	-20.580000	216.089996	-22.750000	907.00	0.28	-0.02	8.75	8.75	2.75	5.25	0.00	0.00	0.00	0.00	0.00	0.00	0.00	0.00	0.00	0.00	0.00	0.00	-0.420898	-0.532715	1.388184	-139.720001	169.960007	0.910000	259.00	-0.37	-0.05
2.91	0.00	0.00	0.00	0.00	0.00	0.00	0.00	0.00	11.75	16.00	14.75	11.25	5.25	18.25	5.75	5.75	-0.612305	0.073242	1.033203	-25.760000	242.130005	-28.139999	886.00	0.28	-0.01	12.75	11.00	4.00	6.50	0.25	0.00	0.00	0.00	0.00	0.00	0.00	0.00	0.00	0.00	0.00	0.00	-0.528320	-0.059570	1.955566	-127.190002	192.710007	-13.930000	352.00	-0.36	-0.04
2.92	0.00	0.00	0.00	0.00	0.00	0.00	0.00	0.00	11.75	16.00	14.25	10.00	4.00	18.00	5.75	5.50	-0.665039	0.099609	1.046387	-33.320000	274.260010	-33.389999	853.00	0.28	0.00	15.00	12.00	6.75	8.00	0.50	0.00	0.00	0.00	0.00	0.00	0.00	0.00	0.00	0.00	0.00	0.00	-0.387695	0.054199	1.656250	-71.260002	171.570007	-1.960000	434.00	-0.36	-0.03
2.93	0.00	0.00	0.00	0.00	0.00	0.00	0.00	0.00	11.50	15.50	13.50	9.00	3.25	17.50	5.75	5.25	-0.719238	0.113770	1.075684	-45.849998	311.010010	-41.299999	814.00	0.28	0.01	16.75	12.50	7.75	9.00	0.75	0.00	0.00	0.00	0.00	0.00	0.00	0.00	0.00	0.00	0.00	0.00	-0.260742	-0.005371	1.110352	-42.279999	150.850006	4.340000	482.00	-0.35	-0.03
2.94	0.00	0.00	0.00	0.00	0.00	0.00	0.00	0.00	11.00	14.75	12.25	7.75	2.50	17.25	5.25	4.75	-0.832520	0.112305	1.150391	-59.639999	352.589996	-51.099998	757.00	0.29	0.02	17.00	12.50	8.50	9.50	1.25	0.50	0.00	0.00	0.00	0.00	0.00	0.00	0.00	0.00	0.00	0.00	-0.190430	-0.041992	0.983398	-20.580000	146.580002	5.810000	509.00	-0.35	-0.03
2.95	0.00	0.00	0.00	0.00	0.00	0.00	0.00	0.00	10.00	13.25	10.75	6.25	1.25	16.50	5.00	3.75	-1.142090	0.189941	1.490723	-84.419998	427.910004	-71.050003	672.00	0.29	0.03	17.50	13.00	9.25	10.25	1.50	0.75	0.00	0.00	0.00	0.25	0.00	0.00	0.00	0.00	0.00	0.25	-1.176758	0.782715	4.417969	-194.529999	60.970001	-9.800000	545.00	-0.34	-0.03
2.96	0.00	0.00	0.00	0.00	0.00	0.00	0.00	0.00	8.75	12.00	9.25	5.50	1.00	15.75	4.25	3.25	-1.142090	0.189941	1.490723	-84.419998	427.910004	-71.050003	599.00	0.29	0.04	17.50	12.75	10.25	10.50	2.00	1.25	0.00	0.00	0.00	0.50	0.00	0.00	0.00	0.00	0.00	0.25	-0.433594	-0.034180	1.276855	-131.949997	-15.750000	-6.090000	570.00	-0.33	-0.03
2.97	0.00	0.00	0.00	0.00	0.00	0.00	0.00	0.00	7.50	10.75	8.00	4.00	0.75	14.75	3.25	2.50	-2.361816	0.095703	2.360352	-103.459999	455.769989	-93.519997	516.00	0.29	0.05	18.25	13.25	10.75	11.25	2.50	1.75	0.00	0.00	0.25	0.75	0.00	0.00	0.00	0.00	0.00	0.25	-0.203125	0.006348	1.055176	-39.759998	-40.110001	-1.470000	613.00	-0.32	-0.03
2.98	0.00	0.00	0.00	0.00	0.00	0.00	0.00	0.00	6.00	9.50	6.75	3.00	0.25	13.25	2.25	1.50	-2.055664	0.333008	2.108887	-112.559998	449.750000	-94.430000	426.00	0.30	0.06	18.75	13.25	11.25	11.50	2.75	1.75	0.00	0.00	0.75	0.75	0.25	0.00	0.25	0.00	0.00	0.50	-0.205078	0.051758	0.984863	-15.960000	-37.590000	0.140000	642.00	-0.31	-0.03
2.99	0.00	0.00	0.00	0.00	0.00	0.00	0.00	0.00	5.50	8.75	5.50	2.25	0.50	11.25	1.25	1.00	-1.803711	0.621582	2.308594	-75.669998	430.500000	-89.250000	363.00	0.29	0.07	19.50	14.00	11.75	11.75	3.50	2.25	0.00	0.00	1.25	0.75	0.25	0.00	0.25	0.00	0.25	0.50	-0.182129	0.052734	0.996094	-12.180000	-29.610001	0.280000	688.00	-0.30	-0.03
3.00	0.00	0.00	0.00	0.00	0.00	0.00	0.00	0.00	4.25	7.75	4.50	2.00	0.25	9.75	1.25	0.75	-0.666504	0.766602	1.765625	-30.660000	404.529999	-104.440002	307.00	0.29	0.07	19.75	13.75	12.00	12.00	4.00	2.50	0.00	0.25	1.25	1.00	0.25	0.25	0.50	0.25	0.25	0.75	-0.153320	0.039062	0.980469	-6.230000	-19.809999	1.330000	717.00	-0.29	-0.03
3.01	0.00	0.00	0.00	0.00	0.00	0.00	0.00	0.00	3.25	6.75	3.75	1.50	0.00	7.50	0.50	0.50	-0.980469	0.235352	1.849121	-2.240000	370.579987	-123.340004	240.00	0.29	0.07	19.75	14.00	12.25	12.25	4.75	3.00	0.00	0.25	1.25	1.00	0.75	0.00	0.50	0.75	0.00	0.50	-0.182617	0.062012	1.012207	-3.500000	-17.430000	1.750000	741.00	-0.28	-0.03
3.02	0.00	0.00	0.00	0.00	0.00	0.00	0.00	0.00	2.50	5.25	2.50	1.25	0.00	4.00	0.50	0.25	-0.241699	0.366699	2.153320	-7.140000	327.670013	-138.880005	167.00	0.28	0.06	19.25	13.75	12.50	12.25	5.50	3.25	0.00	0.00	1.75	1.25	0.75	0.25	1.00	0.75	0.25	1.00	-0.154785	0.054688	0.988281	-2.170000	-14.070000	2.030000	765.00	-0.27	-0.03
3.03	0.00	0.75	0.00	0.00	0.00	0.00	0.00	0.00	1.50	4.00	1.75	0.75	0.00	1.00	0.00	0.00	0.264648	0.531250	1.743164	-16.940001	286.019989	-149.589996	103.00	0.21	0.04	19.00	13.75	12.25	12.50	6.00	3.25	0.00	0.25	2.00	1.25	0.75	0.50	1.25	1.00	0.50	1.00	-0.149902	0.048340	0.982910	-2.450000	-11.620000	2.030000	784.00	-0.25	-0.03
3.04	0.00	0.00	0.00	0.00	0.00	0.00	0.00	0.00	1.00	3.25	1.25	0.75	0.00	1.00	0.00	0.00	4.075195	2.323242	3.604492	-16.100000	192.500000	-149.729996	76.00	0.26	0.04	18.25	13.50	12.75	12.50	6.25	3.50	0.00	0.25	2.25	1.50	1.25	0.50	1.25	1.50	0.25	1.25	-0.145996	0.054688	0.973145	-2.030000	-10.150000	2.100000	799.00	-0.24	-0.03
3.05	0.00	0.00	0.00	0.00	0.00	0.00	0.00	0.00	0.75	2.50	1.25	0.25	0.00	0.00	0.00	0.00	0.169434	1.540527	5.054199	33.880001	16.100000	-111.160004	52.00	0.24	0.04	17.75	13.00	12.50	12.50	6.50	4.00	0.00	0.50	2.50	1.50	1.25	0.75	1.75	1.50	0.50	1.50	-0.145020	0.055664	0.989258	-1.540000	-8.540000	1.960000	813.00	-0.23	-0.04
3.06	0.00	0.25	0.00	0.00	0.00	0.00	0.00	0.00	0.75	2.25	1.00	0.00	0.00	0.00	0.00	0.00	1.378906	0.795410	2.227051	40.950001	-115.779999	-63.420002	46.00	0.00	0.00	17.25	12.75	12.25	12.25	6.50	4.25	0.00	0.50	3.25	1.75	1.50	1.00	1.75	1.75	0.50	1.75	-0.145020	0.050781	0.987793	-1.050000	-6.580000	1.820000	824.00	-0.21	-0.04
3.07	0.00	0.00	0.00	0.00	0.00	0.00	0.00	0.00	0.00	1.75	0.50	0.00	0.00	0.00	0.00	0.00	0.605469	0.563965	1.221191	1.120000	-158.059998	-24.010000	23.00	0.00	0.00	16.25	12.00	12.00	11.75	6.50	4.00	0.25	0.50	3.50	2.25	1.75	1.25	1.75	2.00	1.00	1.50	-0.145508	0.047852	0.994141	-0.420000	-4.900000	2.240000	819.00	-0.20	-0.03
3.08	0.00	0.00	0.00	0.00	0.00	0.00	0.00	0.00	0.25	1.50	0.75	0.00	0.00	0.00	0.00	0.00	0.424805	0.809570	0.993652	-28.840000	-148.960007	9.100000	27.00	0.00	0.00	15.00	11.25	11.50	11.50	6.75	3.50	0.00	0.50	4.00	2.50	2.25	1.25	2.25	2.25	0.75	2.00	-0.144043	0.053223	0.991699	0.700000	-2.870000	2.660000	806.00	-0.18	-0.03
3.09	0.00	0.00	0.00	0.00	0.00	0.00	0.00	0.00	0.25	1.00	0.50	0.00	0.00	0.00	0.00	0.00	0.546387	0.844727	1.107422	-24.920000	-147.070007	35.349998	19.00	0.00	0.00	13.25	10.50	11.00	10.75	6.50	3.75	0.00	0.50	4.50	2.75	2.75	1.75	2.25	2.50	0.75	2.00	-0.135254	0.050781	0.982910	1.400000	-0.770000	2.730000	789.00	-0.16	-0.03
3.10	0.00	0.25	0.00	0.00	0.00	0.00	0.00	0.00	0.00	1.00	0.50	0.00	0.00	0.00	0.00	0.00	0.512207	0.755371	1.319824	1.540000	-168.910004	51.170002	18.00	0.00	0.00	11.75	9.75	10.50	10.50	6.25	3.50	0.00	0.75	5.50	3.50	3.75	2.25	2.75	2.75	1.00	2.25	-0.142578	0.057617	0.993164	1.890000	1.680000	2.450000	803.00	-0.13	-0.04
3.11	0.00	0.00	0.00	0.00	0.00	0.00	0.00	0.00	0.00	0.50	0.25	0.00	0.00	0.00	0.00	0.00	0.498535	0.531738	1.418457	34.230000	-201.600006	61.180000	8.00	0.00	0.00	10.00	9.00	9.75	9.75	6.00	3.25	0.25	0.75	5.75	4.00	4.25	2.00	2.75	3.50	1.00	2.75	-0.139648	0.050293	0.990723	2.450000	4.410000	2.380000	780.00	-0.10	-0.03
3.12	0.00	0.00	0.00	0.00	0.00	0.00	0.00	0.00	0.00	0.50	0.25	0.00	0.00	0.00	0.00	0.00	0.458008	0.300781	1.430664	54.110001	-236.389999	69.019997	8.00	0.00	0.00	8.50	8.25	9.00	9.25	5.50	2.75	0.00	0.50	6.50	4.50	6.00	2.75	3.25	3.50	1.25	2.75	-0.149414	0.053223	0.996094	2.940000	6.370000	2.380000	774.00	-0.07	-0.04
3.13	0.00	0.00	0.00	0.00	0.00	0.00	0.00	0.00	0.00	0.50	0.00	0.00	0.00	0.00	0.00	0.00	0.345703	0.178223	1.430176	56.840000	-268.380005	75.459999	5.00	0.00	0.00	7.25	7.25	8.25	8.50	5.25	2.25	0.00	0.50	7.00	6.00	7.50	3.00	3.25	4.25	1.75	3.25	-0.148926	0.058105	0.985352	3.150000	7.910000	2.590000	781.00	-0.03	-0.03
3.14	0.00	0.00	0.00	0.00	0.00	0.00	0.00	0.00	0.00	0.25	0.00	0.00	0.00	0.00	0.00	0.00	0.231934	0.112793	1.402344	52.779999	-295.190002	79.870003	3.00	0.00	0.00	6.00	6.25	7.50	7.75	4.50	1.75	0.00	0.50	7.25	6.75	8.00	3.50	3.50	4.75	1.75	3.25	-0.151855	0.054688	0.988770	3.640000	9.310000	2.590000	757.00	-0.00	-0.03
3.15	0.00	0.00	0.00	0.00	0.00	0.00	0.00	0.00	0.00	0.25	0.00	0.00	0.00	0.00	0.00	0.00	0.128906	0.088867	1.359375	52.360001	-317.029999	80.779999	3.00	0.00	0.00	5.00	5.50	6.75	7.00	3.75	1.25	0.00	0.50	7.75	7.50	8.75	3.75	3.50	5.25	1.75	3.50	-0.149902	0.061035	0.986816	3.920000	10.570000	2.520000	740.00	0.03	-0.03
3.16	0.00	0.00	0.00	0.00	0.00	0.00	0.00	0.00	0.00	0.25	0.00	0.00	0.00	0.00	0.00	0.00	-0.113281	0.002930	1.340820	73.639999	-347.410004	77.349998	3.00	0.00	0.00	3.75	4.75	5.50	6.25	3.25	0.50	0.00	0.25	7.75	8.00	9.00	4.50	4.00	6.00	1.75	4.25	-0.153809	0.062012	0.981934	3.990000	12.460000	2.100000	711.00	0.06	-0.03
3.17	0.00	0.00	0.00	0.00	0.00	0.00	0.00	0.00	0.00	0.00	0.00	0.00	0.00	0.00	0.00	0.00	-0.113281	0.002930	1.340820	73.639999	-347.410004	69.790001	0.00	0.00	0.00	3.00	3.50	5.00	5.50	2.75	0.50	0.00	0.25	8.25	8.50	9.50	5.00	4.25	6.25	2.25	4.75	-0.154785	0.056152	0.984375	3.570000	14.140000	1.750000	707.00	0.09	-0.03
3.18	0.00	0.00	0.00	0.00	0.00	0.00	0.00	0.00	0.00	0.00	0.00	0.00	0.00	0.00	0.00	0.00	-0.407715	-0.077637	1.357910	85.330002	-359.519989	49.840000	0.00	0.00	0.00	2.00	2.00	3.75	4.00	2.25	0.00	0.00	0.25	8.50	9.00	10.00	5.75	4.25	7.25	2.25	4.75	-0.150391	0.065918	0.988770	2.870000	15.330000	1.260000	672.00	0.14	-0.02
3.19	0.00	0.00	0.00	0.00	0.00	0.00	0.00	0.00	0.00	0.00	0.00	0.00	0.00	0.00	0.00	0.00	-0.525391	-0.054688	1.349609	82.040001	-359.660004	40.670002	0.00	0.00	0.00	1.00	1.75	2.75	3.00	1.75	0.25	0.00	0.25	8.75	9.25	10.50	6.50	4.50	7.75	2.25	5.00	-0.165527	0.062500	0.979980	2.520000	16.170000	0.770000	661.00	0.17	-0.03
3.20	0.00	0.00	0.00	0.00	0.00	0.00	0.00	0.00	0.00	0.00	0.00	0.00	0.00	0.00	0.00	0.00	-0.652344	-0.004883	1.393555	80.570000	-356.510010	31.990000	0.00	0.00	0.00	0.75	1.25	2.00	2.50	1.25	0.00	0.00	0.00	8.75	10.00	11.00	7.00	4.75	8.25	2.50	5.00	-0.160156	0.067871	0.981445	2.310000	17.080000	0.420000	655.00	0.20	-0.03
3.21	0.00	0.00	0.00	0.00	0.00	0.00	0.00	0.00	0.00	0.00	0.00	0.00	0.00	0.00	0.00	0.00	-0.762207	0.058594	1.444824	89.250000	-350.489990	23.590000	0.00	0.00	0.00	0.75	1.25	1.25	1.50	1.00	0.00	0.00	0.00	9.00	10.25	11.25	7.50	5.00	8.75	2.50	5.25	-0.169434	0.071777	0.984863	1.890000	18.340000	0.140000	655.00	0.21	-0.03
3.22	0.00	0.00	0.00	0.00	0.00	0.00	0.00	0.00	0.00	0.00	0.00	0.00	0.00	0.00	0.00	0.00	-0.897949	0.073242	1.484863	103.389999	-342.929993	15.400000	0.00	0.00	0.00	0.25	0.75	0.50	1.25	0.75	0.00	0.00	0.00	9.50	10.50	11.50	7.75	4.75	9.50	2.75	5.50	-0.186035	0.061035	0.968750	0.420000	20.650000	-1.470000	654.00	0.24	-0.03
3.23	0.00	0.00	0.00	0.00	0.00	0.00	0.00	0.00	0.00	0.00	0.00	0.00	0.00	0.00	0.00	0.00	-1.034668	0.127930	1.541992	114.099998	-333.059998	8.890000	0.00	0.00	0.00	0.25	0.25	0.75	1.00	0.50	0.00	0.00	0.00	9.50	11.00	12.00	8.00	5.00	9.75	3.00	5.75	-0.184082	0.082520	0.977539	-2.660000	23.520000	-3.290000	668.00	0.24	-0.03
3.24	0.00	0.00	0.00	0.00	0.00	0.00	0.00	0.00	0.00	0.00	0.00	0.00	0.00	0.00	0.00	0.00	-1.155762	0.189453	1.488281	116.340004	-320.040009	6.860000	0.00	0.00	0.00	0.00	0.00	0.00	0.50	0.25	0.00	0.00	0.00	10.00	11.50	12.25	8.50	4.75	10.50	3.00	5.75	-0.164551	0.046875	0.996582	-6.090000	25.059999	-4.900000	670.00	0.26	-0.02
3.25	0.00	0.00	0.00	0.00	0.00	0.00	0.00	0.00	0.00	0.00	0.00	0.00	0.00	0.00	0.00	0.00	-1.273926	0.255859	1.416504	112.699997	-301.279999	6.580000	0.00	0.00	0.00	0.00	0.00	0.00	0.75	0.25	0.00	0.00	0.00	10.50	11.50	12.50	8.50	5.00	11.50	3.25	5.75	-0.193848	0.059082	0.963867	-8.190000	27.299999	-5.460000	695.00	0.26	-0.02
3.26	0.00	0.00	0.00	0.00	0.00	0.00	0.00	0.00	0.00	0.00	0.00	0.00	0.00	0.00	0.00	0.00	-1.382812	0.393066	1.559570	110.110001	-276.360016	7.350000	0.00	0.00	0.00	0.00	0.00	0.00	0.25	0.00	0.00	0.00	0.00	10.50	12.25	13.00	8.50	4.75	12.25	3.25	6.00	-0.200684	0.049316	0.986328	-9.520000	30.030001	-4.620000	706.00	0.27	-0.01
3.27	0.00	0.00	0.00	0.00	0.00	0.00	0.00	0.00	0.00	0.00	0.00	0.00	0.00	0.00	0.00	0.00	-1.479492	0.639648	1.913086	117.389999	-260.890015	14.420000	0.00	0.00	0.00	0.00	0.00	0.00	0.25	0.00	0.00	0.00	0.00	11.00	12.50	13.00	8.75	4.75	12.75	3.75	6.00	-0.204102	0.060547	0.993164	-5.460000	40.110001	-4.620000	727.00	0.27	-0.01
3.28	0.00	0.00	0.00	0.00	0.00	0.00	0.00	0.00	0.00	0.00	0.00	0.00	0.00	0.00	0.00	0.00	-1.586914	0.731934	2.004395	125.230003	-264.950012	31.780001	0.00	0.00	0.00	0.00	0.00	0.00	0.25	0.00	0.00	0.00	0.00	11.25	13.00	13.25	8.75	4.50	13.75	4.00	6.25	-0.206055	0.061523	0.976562	-6.230000	46.689999	-5.180000	749.00	0.27	-0.01
3.29	0.00	0.00	0.00	0.00	0.00	0.00	0.00	0.00	0.00	0.00	0.00	0.00	0.00	0.00	0.00	0.00	-1.826172	0.672852	1.834961	128.240005	-273.559998	57.119999	0.00	0.00	0.00	0.00	0.00	0.00	0.00	0.00	0.00	0.00	0.00	11.75	13.25	13.50	9.00	4.75	14.75	4.00	6.25	-0.215820	0.049316	0.978027	-8.400000	50.750000	-5.180000	771.00	0.28	-0.01
3.30	0.00	0.00	0.00	0.00	0.00	0.00	0.00	0.00	0.00	0.00	0.00	0.00	0.00	0.00	0.00	0.00	-2.111816	0.565430	1.595703	130.130005	-269.429993	83.580002	0.00	0.00	0.00	0.00	0.00	0.00	0.00	0.00	0.00	0.00	0.00	12.00	13.75	13.75	9.25	4.75	15.75	4.25	6.50	-0.231445	0.046387	0.975586	-9.170000	54.599998	-4.830000	797.00	0.28	-0.00
3.31	0.00	0.00	0.00	0.00	0.00	0.00	0.00	0.00	0.00	0.00	0.00	0.00	0.00	0.00	0.00	0.00	-2.350098	0.387695	1.418945	135.169998	-251.300003	106.400002	0.00	0.00	0.00	0.00	0.00	0.00	0.00	0.00	0.00	0.00	0.00	12.25	14.00	14.00	9.25	4.75	16.50	4.25	6.50	-0.231934	0.046875	0.981934	-9.450000	59.430000	-4.340000	812.00	0.28	-0.00
3.32	0.00	0.00	0.00	0.00	0.00	0.00	0.00	0.00	0.00	0.00	0.00	0.00	0.00	0.00	0.00	0.00	-2.497559	0.085938	1.232910	140.839996	-226.660004	125.020004	0.00	0.00	0.00	0.00	0.00	0.00	0.00	0.00	0.00	0.00	0.00	12.50	14.25	14.25	9.50	4.75	17.50	4.75	6.75	-0.250488	0.049805	0.983887	-9.520000	65.800003	-4.480000	838.00	0.28	-0.00
3.33	0.00	0.00	0.00	0.00	0.00	0.00	0.00	0.00	0.00	0.00	0.00	0.00	0.00	0.00	0.00	0.00	-3.156250	-0.496582	0.984375	138.949997	-198.869995	138.250000	0.00	0.00	0.00	0.00	0.25	0.00	0.00	0.00	0.00	0.00	0.00	12.75	14.50	14.25	9.50	4.25	18.25	5.25	6.75	-0.263672	0.043945	0.999512	-10.080000	72.730003	-4.480000	854.00	0.28	0.00
3.34	0.00	0.00	0.00	0.00	0.00	0.00	0.00	0.00	0.00	0.00	0.00	0.00	0.00	0.00	0.00	0.00	-2.514648	-0.725098	0.481445	95.830002	-156.729996	144.059998	0.00	0.00	0.00	0.00	0.00	0.00	0.00	0.00	0.00	0.00	0.00	13.00	14.75	14.50	9.50	4.25	18.75	5.50	7.00	-0.276855	0.044922	1.004883	-10.360000	79.940002	-4.760000	868.00	0.28	0.00
3.35	0.00	0.00	0.00	0.00	0.00	0.00	0.00	0.00	0.00	0.00	0.00	0.00	0.00	0.00	0.00	0.00	-3.140625	-0.695312	0.602051	61.599998	-134.050003	140.139999	0.00	0.00	0.00	0.00	0.00	0.00	0.00	0.00	0.00	0.00	0.00	13.25	15.00	14.50	9.50	4.25	19.50	6.00	7.25	-0.292480	0.048340	1.006836	-10.080000	87.500000	-5.180000	887.00	0.28	0.01
3.36	0.25	0.25	0.00	0.25	0.00	0.00	0.00	0.00	0.00	0.00	0.00	0.00	0.00	0.00	0.00	0.00	-3.449219	-0.872070	0.185059	51.029999	-111.930000	125.440002	8.00	0.00	0.00	0.00	0.00	0.00	0.00	0.00	0.00	0.00	0.00	13.25	15.25	14.50	9.50	4.00	20.25	6.25	7.25	-0.307617	0.043457	1.014160	-10.360000	95.620003	-5.600000	896.00	0.29	0.01
3.37	0.00	0.00	0.00	0.00	0.00	0.00	0.00	0.00	0.00	0.00	0.00	0.00	0.00	0.00	0.00	0.00	-3.886230	-1.175293	-0.186035	45.990002	-84.910004	106.330002	0.00	0.00	0.00	0.00	0.00	0.00	0.00	0.00	0.00	0.00	0.00	13.50	15.50	14.50	9.25	3.50	20.50	6.00	7.25	-0.331543	0.047363	1.020996	-9.660000	105.559998	-5.600000	895.00	0.29	0.01
3.38	0.00	0.25	0.00	0.00	0.00	0.00	0.00	0.00	0.00	0.00	0.00	0.00	0.00	0.00	0.00	0.00	-4.114258	-1.835449	-0.875000	-22.610001	30.730000	75.459999	2.00	0.00	0.00	0.00	0.00	0.00	0.00	0.00	0.00	0.00	0.00	13.50	15.50	14.25	9.25	3.75	21.25	6.50	7.50	-0.347656	0.040527	1.028320	-9.030000	116.410004	-5.460000	907.00	0.29	0.01
3.39	0.00	0.00	0.00	0.00	0.00	0.00	0.00	0.00	0.00	0.00	0.00	0.00	0.00	0.00	0.00	0.00	-3.939941	-1.911133	-0.777832	-87.639999	104.650002	59.920002	0.00	0.00	0.00	0.00	0.00	0.00	0.00	0.00	0.00	0.00	0.00	13.75	15.75	14.25	9.25	3.50	21.75	6.75	7.50	-0.360352	0.037109	1.019043	-8.400000	128.029999	-5.180000	918.00	0.29	0.02
3.40	0.00	0.00	0.00	0.00	0.00	0.00	0.00	0.00	0.00	0.00	0.00	0.00	0.00	0.00	0.00	0.00	-3.755859	-2.007812	-0.613281	-160.720001	171.080002	38.009998	0.00	0.00	0.00	0.00	0.00	0.00	0.00	0.00	0.00	0.00	0.00	14.00	16.00	14.00	9.25	3.75	21.50	7.25	7.25	-0.405762	0.050781	1.060547	-9.380000	157.710007	-7.630000	925.00	0.29	0.02
3.41	0.00	0.00	0.25	0.00	0.00	0.00	0.00	0.00	0.00	0.00	0.00	0.00	0.00	0.00	0.00	0.00	-1.050781	-1.155762	0.494141	-225.960007	236.460007	-0.700000	3.00	0.00	0.00	0.00	0.00	0.00	0.00	0.00	0.00	0.00	0.00	14.00	16.00	14.00	9.00	2.75	21.75	7.25	7.50	-0.405762	0.050781	1.060547	-9.380000	157.710007	-7.630000	917.00	0.29	0.02
3.42	0.50	1.25	0.25	0.75	0.00	0.00	0.00	0.00	0.00	0.00	0.00	0.00	0.00	0.00	0.00	0.00	0.865723	-1.223145	2.914062	-227.639999	229.809998	-31.219999	28.00	0.00	0.00	0.00	0.00	0.00	0.00	0.00	0.00	0.00	0.00	14.00	16.25	13.75	8.75	2.50	21.50	7.00	7.25	-0.467773	0.080078	1.044922	-12.740000	197.539993	-14.630000	906.00	0.29	0.02
3.43	2.75	4.00	1.50	2.50	0.00	0.00	0.00	0.00	0.00	0.00	0.00	0.00	0.00	0.00	0.00	0.00	-0.899902	-0.730957	3.302734	-98.980003	210.000000	-17.500000	109.00	-0.36	-0.07	0.00	0.00	0.00	0.00	0.00	0.00	0.00	0.00	13.50	16.25	13.50	8.50	2.25	21.25	7.00	7.25	-0.499512	0.073242	1.101074	-16.590000	220.149994	-20.020000	890.00	0.29	0.02
3.44	7.25	8.00	3.25	5.25	0.50	0.00	0.00	0.00	0.00	0.00	0.00	0.00	0.00	0.00	0.00	0.00	-0.758789	-0.518555	1.967285	-16.870001	168.839996	-29.680000	248.00	-0.35	-0.05	0.00	0.00	0.00	0.00	0.00	0.00	0.00	0.00	13.25	16.00	13.00	8.00	2.25	21.00	7.00	7.00	-0.562012	0.048340	1.169434	-21.770000	248.360001	-23.309999	870.00	0.29	0.03
3.45	9.75	10.50	5.00	6.75	0.75	0.00	0.00	0.00	0.00	0.00	0.00	0.00	0.00	0.00	0.00	0.00	-0.319336	0.878906	0.738281	-11.550000	173.880005	-40.740002	336.00	-0.35	-0.05	0.00	0.00	0.00	0.00	0.00	0.00	0.00	0.00	13.00	15.75	12.50	7.50	1.75	20.50	6.75	6.75	-0.583496	0.102539	1.139648	-31.780001	281.890015	-28.139999	841.00	0.29	0.03
3.46	11.75	10.75	6.50	8.00	1.25	0.75	0.00	0.00	0.00	0.25	0.00	0.00	0.00	0.00	0.00	0.00	-0.550293	0.427734	2.083496	-128.309998	155.399994	-14.280000	405.00	-0.34	-0.04	0.00	0.00	0.00	0.00	0.00	0.00	0.00	0.00	12.50	15.50	12.00	6.25	1.25	20.00	6.25	6.25	-0.623535	0.145508	1.145508	-45.150002	318.149994	-38.080002	797.00	0.29	0.04
3.47	12.25	10.25	7.50	8.00	1.25	0.50	0.25	0.00	0.00	0.00	0.00	0.25	0.00	0.00	0.00	0.00	-0.361816	-0.070312	1.567383	-157.990005	61.950001	-5.180000	418.00	-0.33	-0.04	0.00	0.00	0.00	0.00	0.00	0.00	0.00	0.00	11.75	14.75	11.25	5.25	0.75	19.25	6.25	6.00	-0.732422	0.097168	1.318848	-59.639999	354.899994	-49.070000	749.00	0.30	0.04
3.48	12.50	10.00	7.50	8.75	1.50	0.50	0.25	0.00	0.25	0.50	0.00	0.00	0.25	0.00	0.00	0.00	-0.330078	-0.070801	1.141602	-117.320000	-5.390000	-8.120000	437.00	-0.32	-0.03	0.00	0.00	0.00	0.00	0.00	0.00	0.00	0.00	10.00	13.50	10.25	3.75	0.50	18.50	5.75	5.25	-0.853027	0.099609	1.350098	-73.220001	388.429993	-56.349998	669.00	0.30	0.05
3.49	12.75	10.50	8.50	8.75	1.75	1.00	0.50	0.00	0.50	0.50	0.25	0.00	0.25	0.00	0.00	0.00	-0.268555	0.049805	0.941895	-49.770000	-32.200001	-4.900000	474.00	-0.31	-0.03	0.00	0.00	0.00	0.00	0.00	0.00	0.00	0.00	8.50	12.00	9.25	2.75	0.00	17.25	5.25	4.50	-1.218262	0.111816	1.579102	-76.019997	415.799988	-60.619999	588.00	0.30	0.06
3.50	13.50	10.25	9.25	9.00	2.00	1.50	0.50	0.00	1.00	0.75	0.50	0.00	0.50	0.75	0.00	0.00	-0.281250	0.017090	1.029297	-22.680000	-35.560001	-2.590000	519.00	-0.28	-0.02	0.00	0.00	0.00	0.00	0.00	0.00	0.00	0.00	6.75	10.75	8.25	2.25	0.00	15.25	4.25	3.50	-1.503418	-0.039062	2.081543	-65.660004	427.559998	-66.709999	504.00	0.30	0.06
3.51	13.75	11.25	10.00	9.75	2.50	1.75	0.50	0.00	1.50	0.75	0.50	0.50	0.50	1.25	0.25	0.00	-0.238281	0.033691	0.951172	-14.770000	-29.889999	-3.010000	574.00	-0.26	-0.02	0.00	0.00	0.00	0.00	0.00	0.00	0.00	0.00	5.75	9.50	7.00	2.00	0.00	13.25	2.75	2.75	-2.043457	0.183594	2.237305	-59.430000	423.709991	-66.360001	425.00	0.30	0.06
3.52	14.50	11.00	10.75	10.50	3.00	2.25	0.50	0.00	1.75	1.50	1.00	0.50	0.75	1.50	0.00	0.00	-0.224121	0.049316	0.952637	-11.340000	-26.670000	-2.730000	625.00	-0.25	-0.02	0.00	0.00	0.00	0.00	0.00	0.00	0.00	0.00	4.75	8.75	5.50	1.25	0.00	10.50	2.00	2.00	-1.909668	0.948242	2.334473	-41.439999	420.839996	-54.180000	345.00	0.30	0.07
3.53	15.25	12.00	11.50	11.00	3.50	2.50	0.50	0.25	2.00	1.75	1.00	1.00	1.25	2.00	0.00	0.25	-0.210449	0.048340	0.959473	-9.660000	-22.960001	-2.310000	689.00	-0.23	-0.03	0.00	0.00	0.00	0.00	0.00	0.00	0.00	0.00	4.00	8.00	4.25	1.00	0.00	8.25	1.50	1.25	-1.282227	0.635254	2.441895	8.190000	395.779999	-65.239998	283.00	0.29	0.07
3.54	14.75	12.00	11.75	11.00	4.25	3.00	0.75	0.25	2.50	1.50	1.25	1.25	1.25	2.50	0.00	0.25	-0.206055	0.043945	0.970215	-7.770000	-18.549999	-2.030000	717.00	-0.22	-0.03	0.00	0.00	0.00	0.00	0.00	0.00	0.00	0.00	3.25	6.75	3.25	1.00	0.00	6.00	1.25	1.00	-0.921875	0.605957	2.148438	39.759998	367.149994	-81.690002	227.00	0.29	0.07
3.55	14.50	11.50	11.25	11.00	4.75	3.50	0.75	0.50	3.25	2.00	2.00	1.75	1.50	3.00	0.25	0.50	-0.199219	0.036621	0.969238	-5.460000	-13.230000	-1.540000	758.00	-0.19	-0.03	0.00	0.00	0.00	0.00	0.00	0.00	0.00	0.00	2.00	5.25	2.25	0.75	0.25	2.50	0.50	0.25	-0.543945	0.602539	2.290039	66.080002	351.540009	-101.080002	142.00	0.27	0.05
3.56	12.50	10.50	11.00	10.75	5.25	3.50	0.75	0.50	3.75	2.25	2.50	2.00	2.00	3.50	0.50	0.75	-0.208496	0.040527	0.962891	-3.010000	-7.770000	-0.840000	758.00	-0.16	-0.03	0.00	0.00	0.00	0.00	0.00	0.00	0.00	0.00	1.25	3.75	1.75	0.25	0.00	1.00	0.50	0.25	-0.044434	0.549316	2.166992	87.080002	318.500000	-121.239998	91.00	0.27	0.05
3.57	11.25	10.00	10.75	10.75	5.50	3.75	0.75	0.75	4.00	2.50	2.75	2.50	2.50	4.00	0.50	0.75	-0.193848	0.037598	0.963379	-0.140000	-3.290000	0.070000	769.00	-0.14	-0.04	0.00	0.00	0.00	0.00	0.00	0.00	0.00	0.00	1.00	3.25	1.50	0.00	0.00	0.50	0.00	0.00	3.005859	1.153320	2.885254	94.150002	216.580002	-142.729996	67.00	0.25	0.07
3.58	10.25	9.50	10.50	10.50	5.50	4.00	0.75	1.00	4.25	3.25	3.75	3.50	3.00	4.50	0.75	1.00	-0.199219	0.043945	0.962402	1.890000	-0.000000	0.630000	800.00	-0.12	-0.04	0.00	0.00	0.00	0.00	0.00	0.00	0.00	0.00	0.75	2.75	1.25	0.00	0.00	0.00	0.00	0.00	0.475586	1.335449	3.868652	91.699997	33.599998	-123.550003	51.00	0.24	0.06
3.59	9.25	8.75	9.75	10.00	5.75	4.00	0.75	1.00	4.50	3.25	5.00	4.00	3.25	5.00	0.75	1.25	-0.210449	0.057617	0.957031	5.600000	6.160000	0.490000	801.00	-0.09	-0.05	0.00	0.00	0.00	0.00	0.00	0.00	0.00	0.00	0.75	2.00	1.00	0.00	0.00	0.25	0.00	0.00	1.381836	0.582031	2.998535	64.750000	-121.169998	-89.459999	43.00	0.00	0.00
3.60	8.25	8.50	9.75	9.50	5.50	4.00	0.75	1.00	4.75	3.75	6.50	5.50	4.00	5.25	1.00	1.50	-0.194336	0.050781	0.966797	6.230000	8.960000	0.140000	833.00	-0.07	-0.05	0.00	0.00	0.00	0.00	0.00	0.00	0.00	0.00	0.75	1.75	0.75	0.00	0.00	0.00	0.00	0.00	1.017090	0.185059	0.904297	0.070000	-164.639999	-63.279999	36.00	0.00	0.00
3.61	7.25	7.50	8.75	9.00	5.50	4.25	0.75	1.00	5.25	4.25	7.75	6.50	5.00	6.00	1.25	1.75	-0.198242	0.061035	0.962891	6.860000	12.180000	-0.210000	854.00	-0.03	-0.06	0.00	0.00	0.00	0.00	0.00	0.00	0.00	0.00	0.25	1.50	0.50	0.00	0.00	0.00	0.00	0.00	0.690918	0.935059	0.986328	-8.050000	-131.809998	-30.309999	24.00	0.00	0.00
3.62	6.50	6.75	8.00	8.50	5.25	3.75	0.75	1.25	5.50	5.25	8.25	7.25	5.50	6.75	1.25	2.25	-0.192383	0.053223	0.966797	7.630000	15.260000	-0.210000	861.00	-0.01	-0.06	0.00	0.00	0.00	0.00	0.00	0.00	0.00	0.00	0.00	1.00	0.75	0.00	0.00	0.00	0.00	0.00	0.739258	0.768066	1.104492	53.689999	-146.720001	-16.170000	18.00	0.00	0.00
3.63	6.25	6.50	8.00	8.00	4.75	3.00	0.75	1.25	5.75	6.75	9.00	8.00	5.75	7.75	1.50	3.00	-0.195312	0.058594	0.972656	8.330000	19.180000	-0.350000	889.00	0.01	-0.06	0.00	0.00	0.00	0.00	0.00	0.00	0.00	0.00	0.25	1.00	0.50	0.00	0.00	0.00	0.00	0.00	0.623535	0.433105	1.268555	98.070000	-173.740005	-4.690000	19.00	0.00	0.00
3.64	4.25	5.25	6.25	6.75	4.00	2.75	0.75	1.25	6.75	7.50	9.50	8.50	6.50	7.75	1.75	3.25	-0.193359	0.057617	0.970215	8.540000	22.889999	-0.420000	854.00	0.05	-0.06	0.00	0.00	0.00	0.00	0.00	0.00	0.00	0.00	0.25	0.75	0.25	0.00	0.00	0.00	0.00	0.00	0.557617	0.199219	1.291504	108.360001	-202.089996	7.560000	14.00	0.00	0.00
3.65	3.50	4.25	5.50	6.00	3.25	2.00	0.75	1.25	7.50	8.00	10.00	8.75	6.75	8.50	1.75	3.50	-0.212891	0.107422	0.956543	8.540000	27.230000	-0.700000	837.00	0.08	-0.06	0.00	0.00	0.00	0.00	0.00	0.00	0.00	0.00	0.00	1.00	0.25	0.00	0.00	0.00	0.00	0.00	0.481445	0.095703	1.356934	94.430000	-229.389999	20.580000	13.00	0.00	0.00
3.66	2.50	2.75	4.25	5.00	2.75	1.25	0.75	1.00	7.75	8.50	10.75	9.25	6.75	8.75	2.00	3.75	-0.205078	0.070801	0.972656	8.330000	31.850000	-1.680000	798.00	0.12	-0.06	0.00	0.00	0.00	0.00	0.00	0.00	0.00	0.00	0.00	0.75	0.00	0.00	0.00	0.00	0.00	0.00	0.398926	0.120117	1.414062	78.959999	-256.059998	33.110001	8.00	0.00	0.00
3.67	1.25	2.00	3.25	3.50	2.00	1.00	0.75	0.75	8.00	8.75	11.25	9.75	7.00	9.50	2.00	3.75	-0.211914	0.072266	0.964355	7.490000	36.540001	-2.520000	761.00	0.16	-0.05	0.00	0.00	0.00	0.00	0.00	0.00	0.00	0.00	0.00	0.75	0.00	0.00	0.00	0.00	0.00	0.00	0.293945	0.096191	1.433105	74.059998	-281.260010	42.209999	8.00	0.00	0.00
3.68	1.00	1.75	2.00	2.75	1.50	0.50	0.50	0.50	8.75	9.50	11.50	10.00	6.75	9.75	2.25	4.00	-0.211426	0.050781	0.973145	6.230000	40.740002	-3.290000	742.00	0.18	-0.05	0.00	0.00	0.00	0.00	0.00	0.00	0.00	0.00	0.00	0.00	0.00	0.00	0.00	0.00	0.00	0.00	0.212891	0.010254	1.409668	77.349998	-302.470001	45.080002	0.00	0.00	0.00
3.69	0.25	0.50	1.25	1.75	1.00	0.25	0.50	0.25	8.75	9.75	11.75	10.25	7.00	10.25	2.50	4.50	-0.227051	0.061035	0.953125	4.270000	44.170002	-3.570000	711.00	0.22	-0.05	0.00	0.00	0.00	0.00	0.00	0.00	0.00	0.00	0.00	0.25	0.00	0.00	0.00	0.00	0.00	0.00	0.110840	-0.107422	1.377930	81.199997	-319.549988	41.650002	3.00	0.00	0.00
3.70	0.50	0.75	0.50	1.50	0.00	0.00	0.50	0.25	9.25	10.50	12.75	10.50	6.75	10.50	2.25	4.50	-0.233887	0.078125	0.951172	1.540000	45.920002	-3.290000	716.00	0.23	-0.04	0.00	0.00	0.00	0.00	0.00	0.00	0.00	0.00	0.00	0.25	0.00	0.00	0.00	0.00	0.00	0.00	0.008301	-0.157715	1.377441	83.019997	-332.640015	33.250000	3.00	0.00	0.00
