# time	left pressure 1[N/cm²]	left pressure 2[N/cm²]	left pressure 3[N/cm²]	left pressure 4[N/cm²]	left pressure 5[N/cm²]	left pressure 6[N/cm²]	left pressure 7[N/cm²]	left pressure 8[N/cm²]	left pressure 9[N/cm²]	left pressure 10[N/cm²]	left pressure 11[N/cm²]	left pressure 12[N/cm²]	left pressure 13[N/cm²]	left pressure 14[N/cm²]	left pressure 15[N/cm²]	left pressure 16[N/cm²]	left acceleration X[g]	left acceleration Y[g]	left acceleration Z[g]	left angular X[dps]	left angular Y[dps]	left angular Z[dps]	left total force[N]	left center of pressure X[%]	left center of pressure Y[%]	right pressure 1[N/cm²]	right pressure 2[N/cm²]	right pressure 3[N/cm²]	right pressure 4[N/cm²]	right pressure 5[N/cm²]	right pressure 6[N/cm²]	right pressure 7[N/cm²]	right pressure 8[N/cm²]	right pressure 9[N/cm²]	right pressure 10[N/cm²]	right pressure 11[N/cm²]	right pressure 12[N/cm²]	right pressure 13[N/cm²]	right pressure 14[N/cm²]	right pressure 15[N/cm²]	right pressure 16[N/cm²]	right acceleration X[g]	right acceleration Y[g]	right acceleration Z[g]	right angular X[dps]	right angular Y[dps]	right angular Z[dps]	right total force[N]	right center of pressure X[%]	right center of pressure Y[%]
0.00	1.75	3.25	1.50	2.25	0.75	1.25	0.50	1.00	1.50	1.25	0.75	0.50	1.25	1.00	0.75	1.00	3.210938	-1.874512	6.006836	103.739998	5.390000	-64.820000	232.00	-0.06	-0.08																									
0.01	1.50	3.00	1.50	2.50	0.50	1.00	0.75	1.00	2.00	1.75	1.25	1.00	1.75	1.25	0.75	0.75	0.078613	-0.734375	0.637207	54.180000	-133.000000	-94.150002	258.00	-0.02	-0.07																									
0.02	2.00	3.25	2.00	2.25	0.75	1.25	0.75	1.25	1.25	1.50	1.25	0.75	1.50	1.25	0.75	0.50	0.027344	0.303711	1.473145	67.199997	-164.009995	-71.470001	259.00	-0.05	-0.08	5.50	4.50	7.50	7.50	6.00	5.25	1.25	1.75	2.00	1.00	0.50	0.50	2.25	2.50	0.75	0.50	-0.145996	0.066895	0.976562	-4.060000	-0.420000	0.350000	581.00	-0.14	-0.06
0.03	1.75	3.50	2.00	2.75	1.00	1.25	1.00	1.50	2.25	1.50	0.75	1.00	2.00	1.75	0.75	0.75	-0.330566	0.212891	0.883789	11.410000	-114.870003	-6.720000	298.00	-0.03	-0.07	5.75	4.25	7.50	7.50	6.25	5.25	1.25	1.75	2.00	1.25	0.50	0.75	2.50	2.50	1.00	0.75	-0.144531	0.062988	0.974121	-3.500000	0.980000	0.350000	596.00	-0.13	-0.06
0.04	2.00	0.00	0.00	1.25	1.25	1.50	1.00	1.75	2.25	1.50	1.00	0.75	2.00	2.00	0.75	0.75	-0.227051	-0.053223	0.925293	-19.250000	-92.120003	7.000000	236.00	0.07	-0.06	5.50	4.25	7.50	7.50	6.25	5.00	1.25	1.75	2.00	1.00	0.75	0.50	2.50	2.50	1.00	0.50	-0.148926	0.068359	0.977539	-3.010000	1.820000	0.490000	586.00	-0.13	-0.06
0.05	1.75	1.25	1.25	1.75	1.25	0.00	1.00	0.00	0.50	0.25	0.00	0.00	0.00	0.25	0.00	0.00	-0.153809	0.063477	0.995605	-15.400000	-69.930000	2.310000	112.00	-0.18	0.04	5.50	4.50	7.25	7.50	6.25	5.00	1.25	1.75	2.25	1.25	0.50	0.50	2.25	2.75	1.00	0.25	-0.149902	0.069824	0.978027	-2.660000	2.800000	0.490000	588.00	-0.13	-0.05
0.06	4.25	5.00	2.25	2.00	2.25	0.00	1.00	0.25	0.75	1.00	0.00	0.00	0.00	0.75	0.00	0.00	-0.156738	0.098145	0.997070	-13.650000	-39.270000	2.450000	227.00	-0.21	0.01	5.50	4.25	7.25	7.25	6.00	5.00	1.25	1.50	2.00	1.00	0.50	0.50	2.75	2.75	0.75	0.50	-0.153320	0.070312	0.972656	-2.380000	3.710000	0.070000	572.00	-0.13	-0.05
0.07	4.25	5.00	4.75	5.25	4.50	2.25	1.50	2.00	2.00	1.00	0.50	1.00	2.25	2.00	1.00	0.75	-0.182129	0.038574	0.997559	-10.920000	-12.740000	1.330000	471.00	-0.11	-0.06	5.25	4.00	7.00	7.00	6.00	5.00	1.25	1.50	2.00	1.25	0.75	0.25	2.75	2.75	1.00	0.75	-0.153320	0.070801	0.975098	-2.450000	4.410000	-0.210000	568.00	-0.12	-0.05
0.08	4.00	5.00	5.00	5.50	4.75	2.75	1.50	2.00	2.75	2.00	1.25	1.00	3.00	2.50	1.00	1.00	-0.196777	0.063477	0.970703	-5.950000	2.870000	-0.490000	527.00	-0.08	-0.06	5.25	4.25	7.00	7.00	6.00	5.00	1.25	1.75	2.25	1.50	1.00	0.75	3.25	2.50	0.50	0.75	-0.144043	0.066406	0.980957	-2.590000	4.760000	-0.630000	586.00	-0.12	-0.06
0.09	4.25	5.00	5.00	5.00	4.75	2.25	1.50	2.00	3.25	2.00	1.50	1.25	3.00	2.50	1.25	0.75	-0.241211	0.038574	0.979004	-2.030000	10.080000	-0.770000	532.00	-0.07	-0.05	5.25	3.75	6.75	6.75	5.75	4.75	1.25	1.50	2.00	1.00	0.75	0.75	2.50	2.50	0.75	0.50	-0.147949	0.067871	0.980469	-2.730000	4.970000	-1.190000	547.00	-0.13	-0.05
0.10	3.75	5.00	4.75	5.25	4.75	2.25	1.50	2.25	3.00	2.25	1.50	1.00	3.25	3.00	1.00	0.75	-0.250488	0.040527	0.964844	2.030000	13.090000	-0.490000	531.00	-0.07	-0.05	5.00	3.75	6.50	6.75	5.75	4.25	1.25	1.50	2.25	1.25	0.75	0.75	2.50	2.75	0.75	0.50	-0.150879	0.068848	0.971191	-2.870000	4.830000	-1.400000	544.00	-0.12	-0.05
0.11	3.25	5.00	4.50	5.25	4.50	2.75	1.50	2.25	3.00	2.00	1.50	1.25	3.75	3.00	1.25	1.00	-0.257324	0.049805	0.954102	4.480000	13.020000	1.330000	535.00	-0.06	-0.07	4.75	3.50	6.50	6.50	5.50	4.25	1.25	1.75	1.75	1.00	0.50	0.75	2.25	2.75	0.75	0.50	-0.145996	0.065430	0.967285	-2.870000	4.550000	-1.610000	522.00	-0.12	-0.06
0.12	3.50	4.75	4.25	5.00	4.50	2.50	1.50	2.25	3.50	2.00	2.00	1.50	3.75	2.75	1.25	1.00	-0.258789	0.041016	0.953613	6.160000	12.180000	3.080000	539.00	-0.05	-0.06	4.50	3.75	6.25	6.50	5.50	4.25	1.25	1.50	2.00	1.25	0.75	0.75	2.75	2.75	1.00	0.25	-0.152344	0.062988	0.966309	-2.800000	4.060000	-1.750000	529.00	-0.11	-0.06
0.13	3.00	4.50	4.25	5.00	4.50	2.25	1.50	2.25	3.25	2.00	1.50	1.25	4.25	3.00	1.25	1.00	-0.255859	0.071289	0.941895	4.620000	6.510000	3.710000	523.00	-0.04	-0.06	5.00	3.25	6.50	6.25	5.25	4.25	1.25	1.50	2.00	1.25	0.75	0.50	2.50	2.75	0.75	0.75	-0.152344	0.060547	0.966797	-3.150000	2.800000	-1.960000	522.00	-0.11	-0.05
0.14	3.00	4.25	4.00	5.00	4.25	2.25	1.50	2.25	3.00	2.25	1.50	1.50	4.25	3.25	1.25	1.25	-0.259766	0.075195	0.941895	2.170000	3.220000	3.010000	520.00	-0.04	-0.07	4.75	3.50	6.25	6.25	5.50	4.00	1.25	1.75	2.00	1.00	0.75	0.50	2.75	2.75	0.75	0.75	-0.153809	0.066406	0.969238	-3.080000	2.310000	-1.680000	522.00	-0.11	-0.06
0.15	3.00	4.50	4.00	5.00	4.25	2.25	1.50	2.50	3.50	2.00	1.50	1.50	4.50	3.25	1.50	1.25	-0.240234	0.080566	0.946289	-0.280000	0.840000	2.310000	537.00	-0.03	-0.07	4.75	3.50	6.25	6.00	5.25	4.00	1.25	1.50	2.25	1.25	0.75	0.75	2.75	2.75	1.00	0.50	-0.155762	0.069824	0.973145	-2.940000	1.820000	-1.400000	523.00	-0.11	-0.05
0.16	3.00	4.50	3.75	5.00	4.25	2.50	1.50	2.50	3.00	2.00	1.50	1.50	4.25	3.00	1.50	1.25	-0.235352	0.074219	0.941895	-2.240000	-0.840000	1.540000	525.00	-0.04	-0.08	5.00	3.25	6.00	6.00	5.25	4.00	1.25	1.50	2.25	1.00	0.75	1.00	2.75	2.75	0.75	0.50	-0.153320	0.065918	0.974121	-2.800000	1.400000	-1.050000	517.00	-0.11	-0.05
0.17	3.00	4.50	4.25	5.00	4.50	2.75	1.50	2.50	3.25	2.00	1.75	1.50	4.25	3.25	1.25	1.25	-0.227539	0.071289	0.948242	-3.850000	-2.030000	1.120000	543.00	-0.04	-0.07	4.25	3.25	6.00	6.00	5.25	3.75	1.25	1.50	2.00	1.25	0.75	0.50	2.75	2.75	0.75	0.50	-0.155762	0.063965	0.971191	-2.800000	0.980000	-0.630000	499.00	-0.11	-0.05
0.18	3.50	4.75	4.25	5.25	4.75	2.75	1.50	2.25	3.25	2.00	1.50	1.50	4.25	3.00	1.50	1.25	-0.214355	0.059082	0.950195	-4.620000	-2.730000	1.190000	550.00	-0.05	-0.07	4.25	3.50	6.00	6.00	5.50	4.00	1.25	1.50	2.25	1.25	0.50	0.75	2.50	2.75	0.75	0.50	-0.148438	0.062988	0.965332	-2.940000	0.770000	-0.420000	509.00	-0.11	-0.05
0.19	3.75	4.75	4.50	5.25	4.75	2.75	1.50	2.75	3.00	2.00	1.50	1.50	4.25	3.00	1.25	1.50	-0.228516	0.061523	0.959961	-4.410000	-2.450000	1.610000	560.00	-0.05	-0.07	4.50	3.25	6.00	6.00	5.25	3.75	1.25	1.50	2.00	1.25	0.75	0.50	2.75	3.00	1.00	0.50	-0.151855	0.065430	0.966309	-3.080000	0.630000	-0.210000	507.00	-0.10	-0.05
0.20	3.75	5.00	5.00	5.50	5.00	3.00	1.75	3.00	3.50	1.75	1.25	1.50	4.00	2.75	1.25	1.25	-0.225586	0.058105	0.951172	-3.990000	-1.820000	1.820000	581.00	-0.06	-0.07	4.25	3.50	6.00	5.75	5.25	3.75	1.25	1.50	2.50	1.25	0.75	0.50	3.50	2.75	1.25	0.50	-0.150879	0.073242	0.974121	-3.220000	0.770000	-0.280000	519.00	-0.09	-0.05
0.21	4.00	5.00	5.00	5.50	5.00	3.25	1.75	2.50	3.00	2.25	1.25	1.25	4.00	2.75	1.25	1.00	-0.224121	0.048340	0.955078	-3.010000	-0.980000	2.100000	572.00	-0.07	-0.07	4.50	3.25	5.75	5.75	5.25	3.75	1.25	1.50	2.25	1.25	0.50	0.75	2.50	2.75	1.00	0.50	-0.153320	0.069824	0.977051	-3.290000	1.470000	-0.560000	500.00	-0.10	-0.05
0.22	4.50	5.00	5.00	5.75	5.25	3.75	1.50	2.75	3.25	2.00	1.50	1.50	4.00	2.75	1.50	1.25	-0.227539	0.043945	0.963379	-0.630000	0.070000	2.800000	601.00	-0.07	-0.07	4.50	3.00	5.75	5.75	5.00	3.75	1.25	1.50	2.25	1.00	0.75	0.75	3.00	3.00	1.00	0.75	-0.153320	0.064941	0.974121	-3.500000	1.960000	-0.770000	503.00	-0.09	-0.05
0.23	4.00	5.00	5.00	6.00	5.25	3.50	1.50	2.50	3.00	1.75	1.25	1.25	4.00	3.00	1.50	1.00	-0.231934	0.036621	0.956055	2.730000	1.120000	3.920000	580.00	-0.07	-0.07	4.50	3.00	5.75	5.75	5.00	3.25	1.25	1.50	2.50	1.00	0.75	0.50	2.50	3.00	0.75	0.50	-0.151855	0.064941	0.970703	-3.500000	2.660000	-0.980000	489.00	-0.10	-0.04
0.24	4.25	5.25	5.25	6.00	5.25	4.00	1.50	3.00	2.75	2.25	1.25	1.25	3.75	2.75	1.50	1.25	-0.237305	0.059082	0.951172	5.670000	1.820000	4.690000	601.00	-0.07	-0.08	4.00	3.25	5.75	5.75	5.00	3.50	1.25	1.50	2.25	1.00	0.75	0.75	2.50	2.75	0.75	0.75	-0.155762	0.069336	0.975098	-3.430000	3.080000	-1.120000	487.00	-0.10	-0.05
0.25	4.75	5.25	5.25	6.00	5.25	4.00	1.50	2.75	2.50	1.75	1.25	1.25	4.25	2.75	1.25	1.25	-0.227539	0.052734	0.946777	7.000000	1.820000	5.040000	595.00	-0.08	-0.08	3.75	3.00	5.50	5.50	5.00	3.75	1.25	1.50	2.50	1.25	0.75	0.75	2.75	2.75	1.00	0.50	-0.155273	0.059570	0.977051	-3.150000	3.920000	-1.260000	489.00	-0.09	-0.05
0.26	4.50	5.25	5.25	6.25	5.25	4.25	1.50	2.75	2.50	2.00	1.50	1.25	4.00	2.50	1.50	1.25	-0.217773	0.070801	0.947266	7.000000	1.330000	4.970000	602.00	-0.08	-0.08	3.75	3.00	5.50	5.50	4.75	3.00	1.00	1.50	2.25	1.25	0.50	0.50	2.75	2.50	1.00	0.50	-0.155762	0.057129	0.967285	-2.660000	3.990000	-1.050000	461.00	-0.10	-0.05
0.27	5.00	5.50	5.50	6.25	5.25	4.00	1.50	3.00	2.75	1.75	1.25	1.25	4.00	2.75	1.25	1.00	-0.211426	0.078613	0.936035	6.020000	-0.210000	4.270000	611.00	-0.09	-0.08	4.00	2.50	5.50	5.25	4.50	3.00	1.25	1.50	2.00	1.00	0.50	0.50	2.50	2.75	0.75	0.75	-0.154297	0.058105	0.967285	-1.960000	4.270000	-1.120000	449.00	-0.10	-0.05
0.28	5.00	5.50	5.50	6.75	5.25	4.50	1.50	3.00	2.50	1.50	1.25	1.50	3.75	2.75	1.25	1.00	-0.216309	0.077148	0.945312	1.120000	-1.190000	2.450000	617.00	-0.09	-0.08	3.50	2.75	5.25	5.25	4.50	3.00	1.00	1.00	2.00	1.00	0.75	0.75	2.50	2.75	1.00	0.75	-0.160645	0.058105	0.971680	-1.190000	4.200000	-0.770000	439.00	-0.09	-0.05
0.29	5.25	5.50	5.75	6.75	5.50	4.75	1.50	3.00	2.50	2.00	1.50	1.25	4.00	2.50	1.25	1.00	-0.205078	0.079590	0.949219	-0.770000	-0.350000	2.100000	634.00	-0.09	-0.08	3.50	2.75	5.00	5.25	4.25	2.75	1.25	1.25	2.00	1.00	0.50	0.25	2.25	2.75	1.00	0.75	-0.157227	0.061523	0.966309	-0.560000	4.130000	-0.350000	428.00	-0.09	-0.04
0.30	5.00	5.50	6.00	7.25	5.50	5.00	1.50	3.00	2.50	1.75	1.50	1.25	3.50	2.75	1.00	1.25	-0.198242	0.088379	0.941895	-2.940000	1.260000	1.470000	637.00	-0.10	-0.08	3.50	2.50	5.00	5.00	4.25	2.50	1.00	1.25	2.00	1.25	0.50	0.50	2.50	2.50	1.00	0.50	-0.156738	0.060059	0.965332	-0.000000	3.920000	-0.070000	419.00	-0.09	-0.05
0.31	5.00	5.50	6.00	7.25	5.75	5.25	1.50	3.25	2.25	2.00	1.25	1.25	3.50	2.25	1.00	0.75	-0.178223	0.090332	0.940430	-6.230000	3.430000	0.770000	636.00	-0.10	-0.08	3.50	2.50	5.00	5.00	4.00	3.00	1.25	1.25	2.00	1.25	0.50	0.50	2.75	2.50	0.75	0.50	-0.151367	0.064453	0.965820	0.070000	3.430000	0.210000	426.00	-0.09	-0.05
0.32	5.25	5.75	6.00	7.50	5.75	5.25	1.50	3.25	2.50	2.00	1.50	1.50	3.50	2.25	1.00	0.75	-0.181641	0.080078	0.941895	-9.310000	5.600000	0.000000	653.00	-0.10	-0.08	3.25	2.50	5.00	5.00	4.50	2.50	1.00	1.50	2.00	1.00	0.50	0.75	2.25	2.75	1.00	0.75	-0.165527	0.067383	0.968262	-0.000000	3.150000	0.350000	425.00	-0.08	-0.05
0.33	5.25	5.50	6.00	7.00	6.00	5.00	1.50	3.00	2.25	2.25	2.00	1.50	3.00	2.50	1.00	0.75	-0.194824	0.067383	0.945801	-10.710000	7.420000	-0.840000	643.00	-0.10	-0.08	3.25	2.50	4.75	4.75	3.75	2.50	1.00	1.25	2.00	1.00	0.50	0.75	2.75	2.75	0.75	0.50	-0.159668	0.067383	0.971680	-0.350000	2.730000	0.420000	406.00	-0.08	-0.05
0.34	5.25	5.50	6.00	7.25	6.00	5.25	1.50	2.75	2.75	2.25	1.75	1.25	3.25	2.25	1.25	0.75	-0.214844	0.059082	0.964355	-10.220000	8.400000	-1.400000	650.00	-0.10	-0.07	3.50	2.25	5.00	4.75	3.75	2.25	1.00	1.25	1.75	1.00	0.75	0.75	2.50	2.75	0.75	0.50	-0.156738	0.075195	0.970215	-0.980000	2.170000	0.350000	404.00	-0.09	-0.05
0.35	5.25	5.50	6.25	7.25	6.00	5.00	1.50	3.00	2.75	2.25	1.50	1.50	3.50	2.25	0.75	0.75	-0.219727	0.066406	0.952637	-8.960000	9.030000	-1.750000	650.00	-0.10	-0.08	3.50	2.25	5.00	4.75	3.75	2.50	1.00	1.25	1.75	1.50	0.50	0.25	3.00	2.75	1.00	0.50	-0.160645	0.075195	0.965332	-1.960000	1.470000	0.070000	411.00	-0.08	-0.05
0.36	5.25	5.50	6.00	7.25	6.25	4.75	1.50	3.25	2.75	2.25	1.75	1.75	3.00	2.00	0.75	0.75	-0.220215	0.068359	0.958496	-8.260000	9.100000	-2.030000	650.00	-0.10	-0.08	3.25	2.50	4.75	4.75	3.75	2.50	1.00	1.25	2.00	1.00	0.50	0.75	2.75	2.75	1.00	0.75	-0.162598	0.069336	0.968750	-2.730000	1.260000	-0.210000	411.00	-0.08	-0.05
0.37	5.00	5.50	6.00	7.00	6.25	5.00	1.50	3.00	2.75	2.50	1.75	1.50	3.25	2.25	0.75	0.50	-0.218262	0.064941	0.952637	-7.770000	8.890000	-2.170000	646.00	-0.10	-0.07	3.50	2.25	4.75	4.50	3.75	2.25	1.00	1.25	2.00	1.00	0.50	0.75	2.75	2.75	1.00	0.50	-0.160645	0.065430	0.968750	-4.060000	0.980000	-0.700000	403.00	-0.08	-0.05
0.38	5.00	5.50	6.00	6.75	6.00	5.00	1.50	2.75	2.75	2.50	1.75	1.75	3.75	2.25	1.00	0.75	-0.216797	0.055664	0.952148	-7.280000	8.400000	-2.310000	648.00	-0.09	-0.08	2.75	2.25	4.75	4.50	3.75	2.25	1.00	1.25	2.00	1.25	0.50	0.50	2.75	2.75	1.00	0.50	-0.158691	0.064941	0.972168	-4.200000	0.840000	-0.840000	395.00	-0.07	-0.05
0.39	4.75	5.25	6.00	6.75	6.25	5.00	1.50	3.00	3.00	2.50	1.75	1.75	3.75	2.25	1.00	0.75	-0.228027	0.057129	0.952637	-6.510000	7.630000	-2.240000	654.00	-0.09	-0.08	3.25	2.25	5.00	4.50	3.75	2.25	1.00	1.25	2.00	1.00	0.50	0.75	3.00	2.75	0.75	0.50	-0.162598	0.068359	0.971680	-4.270000	0.770000	-0.770000	403.00	-0.08	-0.05
0.40	4.75	5.25	6.00	6.75	6.25	5.00	1.50	3.00	3.00	2.75	1.75	1.75	3.75	2.25	1.00	0.75	-0.232910	0.050781	0.959961	-5.600000	6.510000	-1.960000	656.00	-0.08	-0.08	2.25	2.25	4.75	4.50	3.75	2.50	1.00	1.25	2.00	1.25	0.75	0.75	2.75	2.75	1.00	0.50	-0.159180	0.066895	0.976074	-4.130000	0.840000	-0.770000	398.00	-0.06	-0.05
0.41	5.00	5.25	5.75	6.50	6.25	4.50	1.50	3.25	3.25	2.50	2.00	1.75	4.00	2.50	1.00	0.75	-0.229492	0.053711	0.951660	-4.480000	5.110000	-1.330000	660.00	-0.08	-0.07	3.00	2.25	4.50	4.50	3.75	2.25	1.00	1.00	1.75	1.25	0.50	0.25	3.00	2.75	0.75	0.50	-0.157715	0.062012	0.971191	-3.710000	0.910000	-0.630000	384.00	-0.08	-0.05
0.42	5.00	5.00	6.00	6.50	6.25	5.00	1.75	2.75	3.25	2.50	2.00	1.75	4.00	2.50	1.00	0.75	-0.227051	0.056152	0.951660	-3.570000	3.710000	-0.560000	662.00	-0.08	-0.07	2.75	2.00	4.75	4.75	3.50	2.50	1.00	1.25	1.75	1.25	0.75	0.75	3.00	2.75	1.00	0.50	-0.158691	0.069824	0.971680	-3.430000	0.770000	-0.420000	400.00	-0.07	-0.06
0.43	5.00	5.25	6.00	6.50	6.25	4.75	1.50	3.00	3.25	2.50	2.00	2.00	4.25	2.25	1.00	1.00	-0.221680	0.051758	0.955566	-1.750000	1.820000	1.260000	666.00	-0.08	-0.08	3.25	1.75	4.50	4.25	3.50	2.25	1.00	1.25	2.00	1.00	0.75	0.50	3.00	2.75	0.75	0.75	-0.160645	0.062500	0.971680	-3.220000	0.700000	-0.280000	387.00	-0.07	-0.05
0.44	4.75	5.25	6.00	6.50	6.25	5.00	1.50	3.25	3.25	2.50	2.00	2.00	4.00	2.50	1.00	1.00	-0.217285	0.054199	0.951660	-1.260000	1.540000	1.820000	670.00	-0.08	-0.08	2.75	2.00	4.50	4.75	3.25	2.25	1.00	1.50	2.25	1.00	0.75	0.75	2.50	2.75	0.50	0.75	-0.161133	0.064453	0.968750	-3.080000	0.700000	-0.070000	390.00	-0.07	-0.05
0.45	4.75	5.25	6.25	6.50	6.25	5.00	1.50	3.25	3.25	2.50	2.00	2.00	4.25	2.50	0.75	1.00	-0.213867	0.057617	0.952637	-0.630000	0.980000	2.310000	673.00	-0.08	-0.08	2.75	2.00	4.75	4.50	3.50	2.50	1.00	1.25	2.00	1.25	0.75	0.50	3.00	2.75	1.00	0.50	-0.161621	0.065918	0.967773	-2.870000	0.420000	0.140000	398.00	-0.06	-0.05
0.46	5.00	5.25	6.25	6.50	6.50	5.00	1.50	3.25	3.25	2.25	2.00	2.00	4.50	2.75	1.00	1.00	-0.218262	0.055176	0.952148	-0.420000	0.840000	2.730000	683.00	-0.08	-0.08	2.75	2.00	4.75	4.50	3.50	2.25	1.25	1.25	2.00	1.25	0.50	0.50	2.50	2.75	1.00	0.75	-0.159180	0.062500	0.969727	-2.940000	0.350000	-0.000000	393.00	-0.07	-0.04
0.47	5.00	5.25	6.25	6.50	6.50	5.00	1.50	3.75	3.25	2.50	2.00	2.00	4.75	2.50	1.00	1.00	-0.216797	0.059570	0.950195	-0.280000	0.980000	2.870000	695.00	-0.08	-0.08	3.00	2.25	4.75	4.75	3.50	2.25	1.00	1.25	1.75	1.25	0.50	1.00	3.00	2.75	1.00	0.75	-0.157715	0.062500	0.969238	-3.080000	0.350000	-0.070000	404.00	-0.07	-0.06
0.48	5.00	5.25	6.25	6.50	6.25	5.25	1.75	3.75	3.25	2.75	2.25	1.75	5.00	2.50	1.25	0.75	-0.212402	0.061035	0.951172	-0.420000	1.330000	2.800000	705.00	-0.07	-0.08	3.00	1.75	4.75	4.50	3.50	2.00	1.00	1.25	1.75	1.00	0.50	0.50	2.00	3.00	1.50	1.25	-0.159180	0.067871	0.968750	-3.220000	0.280000	-0.140000	386.00	-0.06	-0.04
0.49	5.00	5.25	6.25	6.50	6.50	5.25	1.75	3.50	3.00	2.50	2.00	1.75	5.00	2.75	1.25	1.25	-0.212402	0.062500	0.956543	-0.350000	1.260000	2.660000	700.00	-0.07	-0.08	3.00	2.50	4.75	4.00	3.50	2.00	1.25	0.75	2.00	1.50	1.00	1.25	4.00	4.00	2.50	1.75	-0.159668	0.066406	0.965332	-3.640000	0.000000	-0.140000	449.00	-0.01	-0.05
0.50	5.00	5.25	6.25	7.00	6.50	5.25	1.75	4.00	3.00	2.50	1.75	2.00	5.00	2.75	1.25	1.00	-0.208984	0.069824	0.954590	-0.350000	1.470000	2.310000	713.00	-0.07	-0.09	2.50	1.25	3.75	3.75	3.25	1.75	1.00	1.00	1.50	0.75	0.50	0.50	2.25	2.75	1.00	0.75	-0.159180	0.064941	0.969238	-3.780000	0.140000	-0.210000	329.00	-0.06	-0.04
0.51	4.75	5.25	6.25	6.75	6.75	5.25	1.75	3.75	3.50	2.25	2.00	2.25	5.00	2.75	1.25	1.00	-0.213867	0.064941	0.955078	-0.140000	1.750000	2.030000	716.00	-0.07	-0.08	2.75	1.75	4.25	4.00	3.25	1.75	1.00	1.00	1.75	1.00	0.75	0.50	2.50	2.75	0.75	0.50	-0.158203	0.065430	0.974609	-3.850000	0.420000	-0.280000	353.00	-0.07	-0.04
0.52	5.00	5.25	6.25	7.25	6.75	5.50	1.75	4.00	3.25	2.25	1.75	2.00	5.25	3.00	1.25	1.25	-0.211426	0.066406	0.950684	-0.350000	2.240000	1.610000	729.00	-0.07	-0.09	3.00	2.00	4.50	4.25	3.50	2.25	1.00	1.25	2.25	1.00	0.50	0.75	2.50	3.00	0.75	0.75	-0.159668	0.066406	0.970703	-3.850000	0.210000	-0.280000	388.00	-0.06	-0.04
0.53	5.00	5.25	6.25	7.25	6.75	5.25	1.75	4.00	3.25	2.50	2.00	2.00	5.25	2.75	1.25	1.25	-0.213867	0.066895	0.947754	-0.770000	2.800000	1.120000	729.00	-0.07	-0.09	3.00	2.00	4.75	4.75	3.50	2.00	1.00	1.50	2.00	1.00	0.75	0.75	3.00	2.75	0.75	1.00	-0.158691	0.070312	0.970703	-3.850000	0.350000	-0.280000	402.00	-0.07	-0.06
0.54	5.00	5.50	6.50	7.25	6.75	5.50	1.75	3.75	3.50	2.25	2.00	1.75	5.25	2.75	1.25	1.25	-0.207031	0.066406	0.947266	-1.400000	3.220000	0.630000	731.00	-0.07	-0.08	2.75	2.00	4.75	4.75	3.75	2.25	1.00	1.25	2.00	1.00	0.50	0.75	3.25	3.00	1.00	0.75	-0.155762	0.068848	0.961426	-3.780000	0.280000	-0.070000	404.00	-0.06	-0.06
0.55	5.00	5.25	6.25	7.25	6.75	5.50	1.75	4.25	3.25	2.50	2.00	2.25	5.25	3.00	1.25	1.25	-0.205078	0.067383	0.953613	-2.030000	3.430000	0.070000	741.00	-0.07	-0.09	3.25	2.00	4.75	4.75	3.50	2.25	1.00	1.25	2.00	1.25	0.75	0.75	3.00	2.75	1.00	0.75	-0.161621	0.065430	0.975586	-3.780000	0.420000	-0.140000	408.00	-0.07	-0.05
0.56	4.50	5.25	6.25	7.25	6.75	5.75	1.75	4.25	3.00	2.50	2.25	2.00	5.50	3.00	1.50	1.25	-0.216309	0.069824	0.950195	-2.520000	3.570000	-0.140000	740.00	-0.07	-0.09	2.75	2.25	5.00	4.75	3.75	2.25	1.00	1.25	2.00	1.25	0.75	1.00	2.75	3.00	1.25	0.50	-0.156738	0.062012	0.971680	-3.780000	0.350000	-0.280000	415.00	-0.06	-0.05
0.57	5.00	5.25	6.50	7.25	7.00	5.75	1.75	4.25	3.25	2.75	2.00	2.00	5.25	3.00	1.50	1.50	-0.214844	0.064941	0.948730	-2.940000	3.500000	-0.070000	755.00	-0.07	-0.09	2.75	2.00	4.75	4.50	3.50	2.00	1.00	1.50	2.25	1.00	0.75	0.75	3.00	2.75	1.00	0.75	-0.156250	0.063477	0.969727	-3.780000	0.560000	-0.350000	401.00	-0.06	-0.05
0.58	5.00	5.25	6.75	7.25	6.75	5.75	1.75	4.25	3.25	2.50	2.25	2.25	5.75	2.75	1.50	1.50	-0.210938	0.062988	0.951172	-3.500000	3.780000	0.070000	760.00	-0.07	-0.09	2.75	1.75	4.50	4.50	3.50	2.00	1.00	1.25	2.00	1.00	0.75	0.50	2.50	2.75	1.00	0.50	-0.157715	0.060547	0.961914	-3.710000	0.700000	-0.140000	378.00	-0.06	-0.05
0.59	5.00	5.25	6.50	7.25	7.25	5.50	2.00	4.50	3.50	2.50	2.25	2.25	5.75	3.25	1.50	1.50	-0.212402	0.061035	0.948730	-3.640000	3.990000	0.210000	777.00	-0.06	-0.09	4.75	3.25	5.75	5.50	5.00	3.75	1.25	2.50	4.25	2.00	2.00	2.00	4.50	4.50	2.50	2.00	-0.161621	0.066895	0.970215	-3.640000	0.630000	-0.140000	644.00	-0.02	-0.06
0.60	5.00	5.25	7.00	7.00	7.00	5.75	2.00	4.50	3.25	2.50	2.25	2.25	5.50	3.00	1.25	1.75	-0.212402	0.062500	0.948242	-3.990000	4.200000	0.280000	770.00	-0.07	-0.09	5.00	3.50	5.75	5.75	5.50	4.25	1.25	2.50	4.00	2.50	1.75	2.00	5.00	4.50	2.50	2.00	-0.157715	0.065430	0.969238	-3.640000	0.630000	-0.000000	668.00	-0.03	-0.06
0.61	4.75	5.25	6.75	7.00	7.00	5.75	2.00	4.50	3.50	2.25	2.00	2.50	5.75	3.25	1.50	1.50	-0.215820	0.062500	0.958496	-4.130000	4.480000	0.280000	771.00	-0.06	-0.09	5.25	3.50	5.75	5.75	5.25	4.00	1.50	2.50	4.00	2.50	1.75	2.00	5.00	4.50	2.50	2.00	-0.157715	0.065918	0.967285	-3.570000	0.560000	-0.210000	669.00	-0.03	-0.06
0.62	5.00	5.25	6.75	7.25	7.00	5.75	2.00	4.25	3.25	2.25	2.00	2.50	5.75	3.00	1.50	1.50	-0.214844	0.060059	0.953613	-4.270000	5.040000	0.350000	767.00	-0.07	-0.09	5.00	3.75	5.75	5.75	5.25	4.00	1.50	2.50	4.25	2.25	2.00	2.00	4.75	4.25	2.50	2.00	-0.162109	0.063477	0.973145	-3.570000	0.490000	-0.000000	667.00	-0.03	-0.06
0.63	4.75	5.25	6.50	7.25	7.25	5.75	2.00	4.50	3.25	2.50	2.50	2.00	5.50	3.25	1.50	1.25	-0.212402	0.061035	0.954590	-4.340000	5.320000	0.420000	769.00	-0.06	-0.09	5.00	3.50	5.75	5.75	5.25	4.00	1.50	2.25	4.25	2.25	1.75	2.00	5.00	4.75	2.50	2.00	-0.155762	0.064941	0.973633	-3.570000	0.700000	-0.000000	665.00	-0.02	-0.06
0.64	4.75	5.25	6.75	7.25	7.25	5.75	2.00	4.50	3.50	2.75	2.25	2.25	5.75	3.25	1.50	1.50	-0.211914	0.058594	0.956055	-4.200000	5.390000	0.490000	783.00	-0.06	-0.09	5.00	3.75	6.00	6.00	5.50	4.00	1.50	2.25	4.00	2.50	1.75	2.00	4.75	4.50	2.50	2.00	-0.153809	0.061035	0.970703	-3.500000	0.700000	-0.000000	671.00	-0.03	-0.06
0.65	5.00	5.25	6.75	6.75	7.25	5.50	2.00	4.75	3.50	2.25	2.25	2.50	5.75	3.00	1.50	1.50	-0.215820	0.062988	0.957520	-3.920000	5.180000	0.700000	776.00	-0.06	-0.09	5.00	3.50	6.00	5.50	5.50	4.25	1.50	2.25	4.00	2.25	1.75	2.00	4.75	4.50	2.50	2.00	-0.158691	0.061035	0.972656	-3.500000	0.840000	-0.000000	663.00	-0.03	-0.06
0.66	4.50	5.25	6.50	7.25	7.50	5.75	2.00	4.50	3.75	2.50	2.00	2.25	5.75	3.25	1.75	1.50	-0.219238	0.061035	0.956055	-3.710000	5.040000	0.910000	781.00	-0.06	-0.09	5.00	3.50	5.75	5.75	5.25	4.00	1.50	2.50	4.25	2.25	1.75	2.00	5.00	4.50	2.25	2.00	-0.161621	0.062500	0.969727	-3.500000	0.840000	-0.000000	664.00	-0.03	-0.06
0.67	4.75	5.00	6.75	7.25	7.25	5.75	2.00	4.75	3.50	2.50	2.25	2.50	5.75	3.25	1.50	1.50	-0.214844	0.062012	0.958496	-3.640000	5.180000	0.980000	784.00	-0.06	-0.09	5.00	3.25	6.00	5.75	5.25	3.75	1.50	2.25	4.00	2.25	1.75	2.00	4.50	4.50	2.25	2.00	-0.159180	0.063965	0.966797	-3.360000	0.980000	0.140000	649.00	-0.03	-0.05
0.68	5.00	5.25	6.75	7.25	7.25	5.75	2.00	4.50	3.75	2.25	2.00	2.00	6.00	3.25	1.50	1.50	-0.213867	0.063477	0.950195	-3.780000	5.180000	1.120000	780.00	-0.06	-0.09	5.00	3.25	5.75	5.50	5.50	4.00	1.50	2.50	3.75	2.50	2.00	2.00	4.50	4.75	2.50	2.00	-0.161133	0.062988	0.973145	-3.360000	1.190000	0.070000	660.00	-0.02	-0.06
0.69	5.00	5.00	6.75	7.00	7.25	5.75	2.00	4.50	3.50	3.00	2.25	2.25	6.00	3.25	1.25	1.50	-0.212891	0.062500	0.954590	-3.780000	5.250000	1.120000	782.00	-0.06	-0.09	4.75	3.50	5.50	5.50	5.25	3.75	1.50	2.25	4.00	2.25	1.75	2.00	4.50	4.50	2.25	2.00	-0.151855	0.060547	0.973145	-3.360000	1.120000	0.280000	640.00	-0.03	-0.06
0.70	4.50	5.25	6.50	7.25	7.25	5.75	2.00	4.25	3.75	2.50	2.25	2.25	5.75	3.25	1.50	1.50	-0.208984	0.062012	0.956055	-4.130000	5.320000	0.980000	773.00	-0.06	-0.09	4.25	3.00	5.50	5.25	5.00	3.00	1.25	2.00	3.75	2.25	1.75	1.75	4.25	4.50	2.25	1.75	-0.153809	0.068359	0.969727	-3.290000	1.190000	0.280000	595.00	-0.02	-0.05
0.71	4.50	5.00	6.75	7.00	7.25	5.50	2.25	4.50	3.50	2.75	2.25	2.25	5.75	3.00	1.50	1.50	-0.205078	0.059570	0.951172	-4.200000	5.320000	0.770000	773.00	-0.06	-0.09	5.00	3.00	5.50	5.75	5.25	3.75	1.50	2.25	4.50	2.50	1.75	2.00	4.75	4.50	2.50	1.75	-0.158691	0.062988	0.975586	-3.150000	1.190000	0.280000	654.00	-0.02	-0.05
0.72	4.50	5.00	6.50	7.00	7.25	5.75	2.25	4.50	3.50	2.75	2.25	2.25	5.75	3.25	1.75	1.50	-0.212402	0.056152	0.948242	-4.130000	5.530000	0.840000	778.00	-0.05	-0.09	4.75	3.50	5.75	5.75	5.50	4.00	1.50	2.25	4.00	2.50	2.00	2.00	5.00	4.50	2.50	2.00	-0.161621	0.066895	0.974121	-3.080000	1.260000	0.070000	665.00	-0.02	-0.06
0.73	4.50	5.25	6.50	7.00	7.25	5.75	2.25	4.50	3.50	2.50	2.50	2.25	5.75	3.25	1.75	1.50	-0.215332	0.060547	0.951172	-3.850000	5.740000	0.770000	781.00	-0.05	-0.09	5.00	3.50	5.75	5.75	5.25	4.00	1.50	2.25	4.50	2.50	1.75	2.25	5.00	4.50	2.50	2.00	-0.155273	0.064453	0.963379	-3.080000	1.120000	0.140000	672.00	-0.02	-0.06
0.74	4.50	5.25	6.50	7.00	7.25	5.50	2.25	4.25	3.75	2.50	2.50	2.50	5.75	3.00	1.50	1.50	-0.213867	0.060059	0.952148	-3.780000	5.810000	0.910000	775.00	-0.05	-0.08	5.00	3.50	5.75	6.00	5.25	4.00	1.50	2.50	4.50	2.50	1.50	2.00	5.00	4.75	2.50	2.00	-0.159180	0.063965	0.969727	-2.800000	1.120000	0.210000	676.00	-0.02	-0.06
0.75	4.50	5.00	6.50	7.00	7.25	5.50	2.25	4.50	3.75	2.50	2.25	2.25	5.75	3.50	1.75	1.75	-0.215820	0.062500	0.955566	-3.710000	5.670000	0.910000	780.00	-0.05	-0.08	5.00	3.75	5.75	5.75	5.25	4.00	1.50	2.25	4.00	2.50	2.00	2.25	5.00	4.75	2.75	2.00	-0.157715	0.059570	0.978027	-2.940000	0.840000	0.140000	675.00	-0.02	-0.06
0.76	4.25	5.00	6.50	7.00	7.25	5.50	2.25	4.50	3.75	2.50	2.25	2.25	6.00	3.25	1.75	1.50	-0.211426	0.061523	0.953613	-3.850000	5.670000	0.840000	776.00	-0.05	-0.09	5.00	3.50	5.75	5.50	5.50	3.75	1.50	2.25	4.25	2.25	1.75	2.00	5.00	4.25	2.50	2.00	-0.160645	0.063477	0.968262	-2.870000	0.700000	0.210000	657.00	-0.03	-0.06
0.77	4.00	5.25	6.50	6.75	7.50	5.50	2.25	4.50	3.75	2.50	2.50	2.25	5.75	3.25	1.75	1.75	-0.215332	0.056152	0.947266	-3.920000	5.670000	0.700000	777.00	-0.05	-0.09	5.00	3.50	5.75	5.75	5.25	4.00	1.50	2.50	4.25	2.25	1.75	1.75	5.00	4.50	2.50	1.75	-0.159180	0.065918	0.969727	-2.800000	0.980000	0.140000	662.00	-0.03	-0.06
0.78	4.25	5.25	6.50	7.00	7.25	5.50	2.25	4.50	4.25	2.75	2.50	2.25	5.75	3.25	1.50	1.75	-0.219238	0.057617	0.956543	-3.850000	5.740000	0.630000	787.00	-0.05	-0.08	5.00	3.50	5.75	5.75	5.25	4.00	1.50	2.50	4.25	2.25	2.00	2.25	5.00	4.50	2.50	2.25	-0.160645	0.062500	0.970703	-2.800000	0.700000	0.420000	674.00	-0.02	-0.06
0.79	4.25	5.00	6.25	6.75	7.25	5.50	2.25	4.25	3.50	2.50	2.50	2.00	5.75	3.25	1.75	1.75	-0.214844	0.061035	0.955566	-3.640000	5.600000	0.700000	761.00	-0.05	-0.09	5.00	3.50	5.75	5.75	5.50	4.00	1.25	2.50	4.25	2.25	2.00	2.00	4.75	4.50	2.75	2.00	-0.157227	0.062500	0.968750	-2.870000	0.420000	0.280000	669.00	-0.02	-0.06
0.80	4.50	5.25	6.50	6.75	7.25	5.50	2.25	4.25	4.00	2.75	2.25	2.25	5.75	3.50	1.50	1.75	-0.217285	0.055664	0.958496	-3.360000	5.600000	0.840000	779.00	-0.05	-0.08	4.75	3.50	5.75	5.50	5.00	3.25	1.25	1.00	2.00	1.00	0.50	0.25	3.00	3.00	1.00	0.50	-0.161621	0.066406	0.970215	-2.800000	0.210000	0.490000	480.00	-0.11	-0.04
0.81	4.25	5.00	6.25	6.50	7.25	5.50	2.25	4.50	4.25	2.50	2.25	2.25	5.75	3.50	1.50	1.75	-0.213379	0.055664	0.952148	-3.220000	5.600000	0.840000	772.00	-0.05	-0.08	3.00	1.75	4.75	4.50	4.00	2.25	1.00	1.00	2.00	1.00	0.75	0.75	2.50	2.75	1.00	1.00	-0.157715	0.066895	0.975098	-2.940000	0.140000	0.350000	395.00	-0.07	-0.04
0.82	4.25	5.00	6.50	6.75	7.25	5.50	2.25	4.25	3.75	2.50	2.25	2.25	5.75	3.25	1.75	1.50	-0.213867	0.057129	0.947266	-3.220000	5.740000	0.770000	766.00	-0.05	-0.08	2.75	1.50	4.25	4.50	4.00	2.25	1.00	1.00	2.00	1.75	1.50	1.75	2.50	2.75	1.00	1.00	-0.158691	0.067383	0.964844	-3.010000	0.000000	0.280000	412.00	-0.04	-0.05
0.83	4.25	4.50	6.50	6.75	7.00	5.50	2.25	4.25	3.75	2.50	2.25	2.00	5.50	3.50	1.75	1.75	-0.218262	0.060547	0.951660	-3.150000	5.740000	0.770000	757.00	-0.05	-0.08	5.00	3.75	6.00	6.00	5.25	4.00	1.50	2.25	4.50	2.25	2.00	2.00	5.00	4.50	2.50	1.75	-0.157715	0.063965	0.966797	-3.150000	0.070000	0.350000	676.00	-0.03	-0.06
0.84	4.25	4.75	6.25	6.50	7.25	5.25	2.50	4.25	4.00	2.75	2.25	2.25	5.50	3.50	1.50	1.75	-0.209961	0.053223	0.952637	-3.080000	5.670000	0.840000	764.00	-0.04	-0.08	5.00	3.50	6.00	5.75	5.75	4.00	1.50	2.50	4.00	2.25	1.75	2.00	5.00	4.50	2.50	2.00	-0.160156	0.059082	0.970703	-3.290000	-0.140000	0.350000	672.00	-0.03	-0.06
0.85	3.75	5.25	6.25	6.50	7.00	5.25	2.25	4.25	4.00	2.50	2.50	2.25	5.75	3.25	1.50	1.75	-0.215820	0.055664	0.950195	-3.080000	5.530000	0.840000	756.00	-0.04	-0.08	5.00	4.00	5.75	5.75	5.50	4.00	1.50	2.50	4.25	2.50	1.75	2.00	4.75	4.25	2.75	2.00	-0.150879	0.063965	0.969727	-3.430000	-0.140000	0.210000	676.00	-0.03	-0.06
0.86	4.50	5.00	6.25	6.50	7.00	5.25	2.25	4.00	4.00	2.50	2.25	2.25	5.75	3.25	1.50	1.75	-0.218262	0.052246	0.949219	-2.940000	5.250000	0.770000	755.00	-0.05	-0.08	5.00	3.50	5.75	5.75	5.50	4.00	1.50	2.50	3.75	2.50	1.75	1.75	5.00	4.50	2.75	2.00	-0.156250	0.069336	0.970215	-3.360000	0.070000	0.210000	665.00	-0.03	-0.06
0.87	4.25	4.75	6.25	6.50	7.00	5.25	2.25	4.25	4.75	2.75	2.50	2.25	5.50	3.50	1.50	1.75	-0.221680	0.060547	0.951172	-2.800000	5.040000	0.910000	770.00	-0.04	-0.07	5.00	3.75	6.00	6.00	5.50	4.00	1.50	2.50	4.25	2.25	1.75	2.00	5.00	4.50	2.25	2.00	-0.157715	0.063965	0.966797	-3.360000	0.280000	0.140000	675.00	-0.03	-0.06
0.88	4.00	5.00	6.25	6.25	7.00	5.50	2.50	4.25	4.25	2.75	2.25	2.25	5.75	3.50	1.50	1.75	-0.213379	0.059570	0.950684	-2.800000	4.690000	0.840000	766.00	-0.04	-0.08	1.50	1.75	4.25	5.00	5.00	3.75	1.25	2.00	3.50	2.25	1.50	1.75	4.25	4.25	2.50	2.00	-0.155762	0.062988	0.967285	-3.360000	0.280000	0.140000	538.00	0.01	-0.07
0.89	3.75	5.25	6.25	6.50	7.00	5.25	2.50	4.00	4.00	2.50	2.50	2.00	5.75	3.50	1.75	1.50	-0.221191	0.061035	0.952148	-2.870000	4.690000	0.840000	757.00	-0.04	-0.08	5.00	3.75	6.25	6.00	5.75	4.25	1.50	2.75	4.00	2.50	1.75	1.75	4.00	4.75	2.50	2.00	-0.153809	0.062500	0.977051	-3.220000	0.280000	0.280000	681.00	-0.03	-0.05
0.90	4.00	5.00	6.25	6.25	7.00	5.50	2.50	4.25	3.75	2.75	2.00	2.50	5.50	3.50	1.50	1.75	-0.215332	0.061035	0.951660	-3.010000	4.480000	0.770000	757.00	-0.04	-0.08	5.00	3.75	6.00	6.00	5.50	4.25	1.50	2.50	4.00	2.25	1.75	1.75	4.75	4.50	2.25	1.50	-0.155762	0.062500	0.967285	-3.150000	0.350000	0.210000	667.00	-0.04	-0.06
0.91	4.25	5.00	6.50	6.25	7.00	5.50	2.50	4.25	3.75	2.75	2.25	2.25	5.75	3.50	1.75	1.75	-0.213867	0.059082	0.953613	-3.080000	4.340000	0.770000	768.00	-0.04	-0.08	5.00	3.50	6.00	6.00	5.75	4.25	1.50	2.50	4.00	2.25	1.75	2.00	5.00	4.50	2.50	1.75	-0.159180	0.064453	0.964844	-3.080000	0.560000	0.280000	677.00	-0.03	-0.06
0.92	4.25	4.75	6.25	6.25	7.00	5.25	2.50	4.00	4.00	2.75	2.50	2.25	5.75	3.50	1.75	1.75	-0.213867	0.051270	0.952637	-2.870000	4.270000	0.840000	762.00	-0.04	-0.08	5.00	3.75	6.25	6.00	5.75	4.50	1.50	2.25	3.75	2.25	1.75	1.75	4.50	4.25	2.50	2.00	-0.156738	0.060547	0.972168	-3.150000	0.420000	0.210000	669.00	-0.04	-0.06
0.93	4.00	5.00	6.25	6.25	6.75	5.25	2.50	4.50	4.50	2.50	2.00	2.00	5.50	2.75	1.50	1.50	-0.217773	0.053223	0.949707	-2.660000	4.340000	0.980000	749.00	-0.05	-0.08	5.25	3.75	6.00	6.00	5.50	4.00	1.50	2.50	4.00	2.25	1.50	2.25	4.75	4.25	2.50	2.50	-0.155762	0.068359	0.973145	-3.010000	0.560000	0.210000	676.00	-0.03	-0.06
0.94	4.25	5.00	6.50	6.50	7.00	5.25	2.50	4.25	4.25	2.75	2.25	2.50	5.75	3.25	1.50	1.75	-0.215332	0.060547	0.956055	-2.450000	4.410000	1.050000	773.00	-0.04	-0.08	5.00	3.75	6.25	6.00	5.50	4.25	1.50	2.25	4.00	2.25	1.75	1.75	4.75	4.25	2.25	2.00	-0.153809	0.061035	0.969238	-3.010000	0.560000	0.280000	666.00	-0.04	-0.06
0.95	4.25	5.25	6.50	6.25	7.00	5.50	2.50	4.25	4.00	2.50	2.25	2.25	5.75	3.50	1.75	1.75	-0.214844	0.056641	0.953125	-2.450000	4.690000	0.980000	771.00	-0.05	-0.08	5.25	3.75	6.25	6.25	5.50	4.25	1.50	2.25	3.75	2.50	1.75	1.75	4.50	4.25	2.25	2.00	-0.155762	0.063477	0.976562	-2.800000	0.490000	0.420000	669.00	-0.04	-0.06
0.96	4.00	5.00	6.25	6.25	7.00	5.50	2.50	4.50	4.00	2.75	2.50	2.25	5.75	3.50	1.75	1.75	-0.214844	0.054688	0.958984	-2.380000	4.760000	1.050000	773.00	-0.04	-0.08	5.00	3.75	6.25	6.00	5.50	4.25	1.50	2.25	4.00	2.25	1.50	1.75	4.50	4.25	2.25	2.00	-0.157227	0.059082	0.974121	-2.800000	0.560000	0.350000	661.00	-0.04	-0.06
0.97	4.25	5.00	6.25	6.25	7.00	5.25	2.25	4.25	4.00	2.50	2.50	2.25	5.75	3.50	1.50	1.75	-0.219727	0.055664	0.946777	-2.450000	4.900000	0.980000	758.00	-0.04	-0.08	5.00	3.75	6.00	6.25	5.50	4.00	1.25	2.25	3.75	2.25	1.50	1.75	4.25	4.00	2.50	1.75	-0.162109	0.061523	0.972656	-2.800000	0.630000	0.490000	647.00	-0.04	-0.06
0.98	4.00	5.25	6.25	6.25	7.00	5.50	2.50	4.25	4.00	2.75	2.25	2.25	5.50	3.25	1.50	1.75	-0.215820	0.058105	0.953613	-2.380000	4.900000	0.980000	760.00	-0.05	-0.08	5.25	4.00	6.25	6.25	5.50	4.25	1.50	2.25	3.25	2.25	1.75	1.75	4.25	4.25	2.50	2.00	-0.156250	0.062500	0.975586	-2.730000	0.420000	0.490000	662.00	-0.05	-0.06
0.99	4.00	5.00	6.25	6.25	7.00	5.25	2.50	4.00	4.25	2.75	2.25	2.25	5.50	3.50	1.50	1.75	-0.216797	0.058105	0.951660	-2.310000	4.900000	0.910000	757.00	-0.04	-0.07	5.50	4.00	6.25	6.50	5.50	4.25	1.25	2.25	3.75	2.25	1.50	2.00	4.75	4.25	2.25	1.75	-0.156738	0.060059	0.981934	-2.730000	0.070000	0.560000	671.00	-0.05	-0.06
1.00	4.00	5.00	6.25	6.50	7.00	5.25	2.50	4.25	4.00	2.75	2.25	2.50	5.75	3.50	1.75	1.75	-0.219727	0.055176	0.955078	-2.240000	4.830000	1.050000	768.00	-0.04	-0.08	5.25	4.00	6.25	6.25	5.50	4.00	1.25	2.00	3.75	2.00	1.75	1.50	4.00	4.00	2.50	1.75	-0.155273	0.063477	0.967285	-2.730000	0.000000	0.700000	646.00	-0.05	-0.05
1.01	4.00	5.00	6.00	6.50	6.75	5.25	2.50	4.25	4.25	2.75	2.50	2.50	5.75	3.25	1.75	1.75	-0.219727	0.061035	0.948242	-2.240000	4.970000	1.050000	766.00	-0.04	-0.08	5.25	4.25	6.25	6.25	5.50	4.00	1.50	2.50	3.25	2.25	1.50	2.00	3.50	4.00	2.25	1.75	-0.157715	0.061523	0.973145	-2.590000	0.140000	0.700000	652.00	-0.05	-0.06
1.02	4.00	5.00	6.25	6.50	7.00	5.50	2.50	4.25	3.50	2.50	2.25	2.00	5.25	3.50	1.75	1.75	-0.218750	0.062012	0.957031	-2.240000	4.760000	1.120000	751.00	-0.05	-0.08	5.50	4.25	6.25	6.50	5.50	4.25	1.25	2.00	3.25	2.00	1.50	1.75	4.00	3.75	2.25	1.00	-0.158691	0.061523	0.974121	-2.660000	0.210000	0.630000	640.00	-0.06	-0.06
1.03	4.25	5.00	6.25	6.25	6.75	5.25	2.25	4.25	4.00	2.25	2.25	2.25	5.75	3.25	1.75	1.75	-0.214355	0.059570	0.949707	-2.380000	4.830000	0.980000	750.00	-0.05	-0.08	5.25	2.00	4.50	4.75	4.50	3.00	1.25	2.00	3.50	2.00	1.50	1.50	3.75	3.50	2.25	1.75	-0.155273	0.063477	0.976074	-2.380000	0.420000	0.560000	546.00	-0.03	-0.05
1.04	4.00	5.00	6.25	6.25	6.75	5.25	2.50	4.25	4.25	2.50	2.25	2.50	5.75	3.50	1.50	1.75	-0.217773	0.058105	0.950195	-2.380000	4.970000	0.980000	760.00	-0.04	-0.08	5.50	4.25	6.25	7.00	5.50	4.00	1.25	2.00	3.50	2.25	1.50	1.75	4.00	3.75	2.25	1.75	-0.157227	0.063965	0.972656	-1.960000	0.980000	0.490000	654.00	-0.06	-0.06
1.05	4.25	5.00	6.25	6.25	6.75	5.25	2.50	4.00	3.75	2.50	2.25	2.25	5.75	3.25	1.50	1.50	-0.220215	0.064453	0.954590	-2.380000	4.900000	1.050000	745.00	-0.05	-0.08	5.75	4.50	6.50	7.00	5.50	4.00	1.25	1.75	3.25	2.00	1.50	1.50	3.75	3.25	2.25	1.50	-0.163086	0.062988	0.979980	-1.260000	1.190000	0.700000	641.00	-0.07	-0.06
1.06	4.00	5.00	6.25	6.25	6.75	5.25	2.50	4.00	4.00	2.75	2.25	2.25	6.00	3.25	1.75	1.50	-0.220703	0.057617	0.955078	-2.380000	4.900000	1.120000	754.00	-0.04	-0.08	5.25	4.25	6.25	7.00	5.25	4.00	1.25	1.75	3.00	2.00	1.50	1.50	3.00	3.25	2.25	1.75	-0.161133	0.063477	0.975098	-0.070000	1.680000	0.840000	617.00	-0.07	-0.06
1.07	4.00	5.00	6.25	6.25	6.75	5.25	2.25	4.25	4.25	2.50	2.25	2.25	5.75	3.50	1.50	1.50	-0.215332	0.059082	0.956543	-2.380000	4.620000	1.190000	752.00	-0.04	-0.08	4.00	2.50	5.00	5.50	3.75	2.00	1.00	0.25	0.50	0.75	0.50	0.25	1.00	1.75	0.50	0.25	-0.164062	0.059570	0.979492	0.910000	2.100000	0.980000	344.00	-0.16	-0.03
1.08	4.25	5.00	6.00	6.00	6.75	5.25	2.25	4.00	4.00	2.75	2.25	2.25	5.50	3.25	1.50	1.75	-0.213379	0.057617	0.953125	-2.240000	4.480000	1.190000	740.00	-0.04	-0.08	2.50	1.75	4.25	5.00	3.50	1.00	1.00	0.25	0.75	0.50	0.25	0.00	1.00	1.75	0.50	0.00	-0.168457	0.065918	0.982422	2.030000	2.520000	0.840000	283.00	-0.14	-0.02
1.09	4.00	5.00	6.25	6.25	6.75	5.25	2.50	4.25	4.00	2.75	2.50	2.25	5.75	3.50	1.75	1.75	-0.217285	0.059082	0.951172	-2.310000	4.480000	1.190000	762.00	-0.04	-0.08	4.00	3.00	5.25	5.50	3.75	2.00	0.75	0.50	0.75	0.75	0.25	0.00	1.00	1.50	0.50	0.00	-0.164551	0.068359	0.979492	4.060000	4.200000	1.190000	346.00	-0.17	-0.04
1.10	4.00	5.25	6.25	6.50	6.75	5.25	2.50	4.00	3.75	2.50	2.00	2.25	5.50	3.25	1.50	1.50	-0.219238	0.060547	0.956543	-2.520000	4.690000	1.190000	743.00	-0.05	-0.08	4.25	3.00	5.25	5.50	3.50	1.75	1.00	0.50	0.75	0.50	0.00	0.00	1.00	1.25	0.50	0.00	-0.165527	0.073242	0.987305	4.900000	6.020000	1.400000	339.00	-0.18	-0.03
1.11	4.25	5.00	6.25	6.25	6.75	5.25	2.50	4.50	3.50	2.75	2.25	2.25	5.50	3.25	1.50	1.50	-0.213867	0.061523	0.953613	-2.590000	4.480000	1.120000	750.00	-0.05	-0.08	5.00	3.00	5.50	5.50	3.50	1.75	0.75	0.50	0.75	0.75	0.00	0.00	0.50	1.25	0.50	0.00	-0.167969	0.075684	0.961426	7.140000	6.440000	1.820000	345.00	-0.19	-0.02
1.12	4.25	5.00	6.25	6.25	6.50	5.50	2.50	4.25	3.75	2.50	2.25	2.00	5.50	3.25	1.75	2.00	-0.213379	0.059570	0.957031	-2.520000	4.200000	1.330000	750.00	-0.05	-0.08	4.75	3.25	5.50	5.50	3.25	1.75	0.75	0.50	0.50	0.50	0.25	0.00	0.75	1.25	0.25	0.00	-0.162598	0.081055	0.973145	8.400000	7.140000	1.540000	337.00	-0.20	-0.03
1.13	4.25	5.00	6.50	6.25	6.50	5.25	2.50	4.25	3.75	2.75	2.25	2.25	5.50	3.25	1.75	1.50	-0.216309	0.059570	0.959961	-2.380000	4.060000	1.470000	753.00	-0.05	-0.08	5.00	3.25	5.50	5.50	3.25	1.75	0.75	0.50	0.00	0.75	0.00	0.25	0.25	1.25	0.50	0.00	-0.160645	0.085449	0.980469	9.170000	7.700000	1.050000	334.00	-0.21	-0.03
1.14	4.25	5.25	6.25	6.25	6.50	5.25	2.25	4.00	3.75	2.50	2.25	2.25	5.25	2.75	1.75	1.75	-0.215820	0.058594	0.951660	-2.170000	3.990000	1.470000	735.00	-0.05	-0.08	4.50	3.25	5.25	5.25	3.00	1.50	0.75	0.50	0.25	0.50	0.00	0.00	0.25	1.00	0.50	0.00	-0.154785	0.090332	0.972168	8.820000	7.490000	0.490000	312.00	-0.21	-0.03
1.15	4.50	5.00	6.25	6.25	6.50	5.25	2.25	4.25	4.00	2.50	2.25	2.00	5.50	3.50	1.75	1.25	-0.222168	0.062012	0.957520	-2.170000	3.780000	1.610000	747.00	-0.05	-0.08	5.00	3.25	5.25	5.50	3.00	1.50	0.75	0.25	0.00	0.25	0.00	0.00	0.00	0.75	0.25	0.00	-0.169434	0.082520	0.977539	7.980000	7.070000	0.210000	302.00	-0.24	-0.03
1.16	3.75	5.25	6.50	6.25	6.75	5.25	2.50	4.25	3.75	2.50	2.00	2.00	5.50	3.25	1.50	1.75	-0.216309	0.058105	0.948730	-2.240000	3.850000	1.610000	743.00	-0.05	-0.08	5.00	3.25	5.25	5.25	2.75	1.25	0.75	0.25	0.00	0.50	0.00	0.00	0.25	0.75	0.25	0.00	-0.174805	0.079102	0.975098	7.140000	7.000000	-0.140000	299.00	-0.24	-0.03
1.17	4.25	5.25	6.25	6.50	6.50	5.50	2.25	4.00	4.00	2.50	2.00	2.00	5.25	3.50	1.50	1.50	-0.213379	0.061035	0.947754	-2.380000	3.850000	1.400000	742.00	-0.05	-0.08	5.00	3.25	5.25	5.25	2.50	1.00	0.50	0.00	0.00	0.25	0.00	0.00	0.00	0.50	0.00	0.00	-0.170898	0.083008	0.968262	6.580000	6.580000	-0.420000	274.00	-0.27	-0.02
1.18	4.25	5.25	6.25	6.50	6.75	5.50	2.50	4.00	3.75	2.50	2.25	2.25	5.75	3.00	1.50	1.75	-0.212891	0.067383	0.950195	-2.520000	3.990000	1.330000	753.00	-0.05	-0.08	5.00	3.25	5.25	5.25	2.50	1.00	0.50	0.25	0.00	0.25	0.00	0.00	0.00	0.50	0.00	0.00	-0.173340	0.085938	0.967285	5.180000	5.810000	-0.350000	278.00	-0.27	-0.03
1.19	4.50	5.25	6.50	6.50	6.75	5.25	2.50	4.00	3.50	2.50	2.25	2.00	5.50	3.25	1.75	1.50	-0.218262	0.056641	0.956055	-2.520000	4.200000	1.260000	751.00	-0.05	-0.08	5.25	3.25	5.50	5.25	2.25	1.00	0.50	0.00	0.00	0.50	0.00	0.00	0.00	0.50	0.00	0.00	-0.167480	0.078613	0.959961	4.130000	5.390000	-0.070000	280.00	-0.27	-0.02
1.20	4.50	5.25	6.50	6.50	6.75	5.25	2.25	4.00	3.75	2.50	2.25	2.00	5.50	3.25	1.50	1.50	-0.214355	0.062988	0.947754	-2.520000	4.270000	1.260000	747.00	-0.05	-0.08	5.00	3.50	5.25	5.25	2.50	1.25	0.50	0.00	0.00	0.25	0.00	0.00	0.00	0.50	0.25	0.00	-0.182129	0.079102	0.969238	3.500000	4.130000	0.070000	282.00	-0.26	-0.03
1.21	4.75	5.00	6.50	6.50	6.75	5.50	2.50	4.00	4.00	2.50	2.25	2.25	5.50	3.25	1.50	1.75	-0.222656	0.058105	0.951660	-2.520000	4.130000	1.400000	762.00	-0.05	-0.08	5.25	3.25	5.25	5.50	2.25	1.00	0.50	0.00	0.00	0.25	0.00	0.00	0.00	0.25	0.00	0.00	-0.175781	0.078613	0.964844	2.520000	0.210000	0.490000	274.00	-0.28	-0.03
1.22	4.50	5.00	6.50	6.50	6.75	5.50	2.25	4.00	3.75	2.25	2.00	2.00	5.50	3.25	1.50	1.75	-0.215332	0.050293	0.950195	-2.240000	3.780000	1.470000	743.00	-0.06	-0.08	5.00	3.50	5.50	5.25	2.25	1.00	0.50	0.00	0.00	0.50	0.00	0.00	0.00	0.25	0.00	0.00	-0.174316	0.080078	0.977051	3.080000	-1.610000	1.120000	277.00	-0.27	-0.02
1.23	5.00	5.25	6.50	6.50	6.75	5.50	2.25	4.25	3.50	2.25	2.00	2.00	5.50	3.00	1.50	1.50	-0.209473	0.055176	0.958496	-2.240000	3.570000	1.610000	748.00	-0.06	-0.08	5.25	3.50	5.25	5.25	2.00	0.75	0.50	0.00	0.00	0.25	0.00	0.00	0.00	0.25	0.25	0.00	-0.183594	0.079102	0.978027	3.570000	-3.710000	1.680000	271.00	-0.28	-0.02
1.24	4.75	5.00	6.50	6.50	6.75	5.25	2.50	4.25	3.50	2.25	2.00	2.00	5.25	3.25	1.75	1.50	-0.215332	0.061035	0.956055	-2.310000	3.640000	1.750000	747.00	-0.06	-0.08	5.25	3.50	5.25	5.25	2.00	0.75	0.50	0.00	0.00	0.00	0.00	0.00	0.00	0.25	0.25	0.00	-0.179688	0.082520	0.978516	3.290000	-5.810000	2.100000	268.00	-0.28	-0.02
1.25	4.75	5.25	6.50	6.50	6.75	5.25	2.25	4.00	3.50	2.25	2.25	2.25	5.50	3.25	1.50	1.50	-0.212891	0.057617	0.946289	-2.380000	3.710000	1.820000	746.00	-0.06	-0.08	5.25	3.75	5.25	5.25	2.00	1.00	0.50	0.00	0.00	0.00	0.00	0.00	0.00	0.25	0.00	0.00	-0.168945	0.093262	0.964355	3.780000	-7.840000	2.310000	271.00	-0.29	-0.03
1.26	4.75	5.00	6.50	6.50	6.75	5.50	2.25	4.25	3.25	2.25	2.00	2.00	5.50	3.25	1.50	1.50	-0.210938	0.063965	0.951172	-2.380000	3.570000	1.820000	742.00	-0.06	-0.08	5.25	4.00	5.25	5.50	2.00	1.00	0.50	0.00	0.00	0.00	0.00	0.00	0.00	0.00	0.50	0.00	-0.165527	0.097656	0.972656	4.060000	-8.400000	2.450000	280.00	-0.28	-0.03
1.27	4.75	5.25	6.50	6.50	6.75	5.50	2.25	4.00	3.75	2.25	2.00	2.00	5.25	3.25	1.50	1.50	-0.212891	0.056152	0.955078	-2.520000	3.360000	1.820000	745.00	-0.06	-0.08	5.50	4.00	5.25	5.50	2.00	0.75	0.50	0.00	0.00	0.25	0.00	0.00	0.00	0.00	0.25	0.00	-0.163574	0.092773	0.954102	4.060000	-8.540000	2.380000	279.00	-0.29	-0.03
1.28	4.50	5.25	6.50	6.75	6.75	5.50	2.50	4.00	3.25	2.25	2.00	2.00	5.25	3.25	1.50	1.50	-0.214355	0.062988	0.952148	-2.590000	3.150000	1.820000	742.00	-0.06	-0.08	5.75	4.25	5.25	5.75	2.25	1.00	0.50	0.00	0.00	0.00	0.00	0.00	0.00	0.25	0.00	0.00	-0.164551	0.085449	0.942871	3.850000	-8.260000	2.380000	290.00	-0.29	-0.03
1.29	4.75	5.25	6.75	6.75	6.75	5.50	2.50	4.00	3.25	2.00	1.75	2.00	4.75	3.00	1.50	1.75	-0.220215	0.058594	0.950684	-2.590000	2.730000	1.890000	737.00	-0.07	-0.08	5.50	4.00	5.50	5.75	2.00	1.00	0.50	0.00	0.00	0.25	0.00	0.00	0.00	0.00	0.00	0.00	-0.159180	0.098633	0.942383	3.640000	-7.280000	2.100000	286.00	-0.29	-0.03
1.30	4.75	5.50	6.50	7.00	6.75	5.50	2.50	3.75	3.50	2.25	2.00	1.75	5.25	3.25	1.50	1.25	-0.213867	0.058594	0.952148	-2.520000	2.240000	1.960000	745.00	-0.07	-0.08	5.75	4.25	5.50	5.75	2.25	0.75	0.50	0.00	0.00	0.00	0.00	0.00	0.00	0.00	0.00	0.00	-0.162109	0.087891	0.945801	3.290000	-6.300000	1.960000	288.00	-0.30	-0.03
1.31	4.75	5.25	7.00	7.25	7.00	5.75	2.50	4.25	3.25	2.25	1.75	1.75	5.25	3.00	1.50	1.50	-0.213867	0.061035	0.954102	-2.450000	1.820000	1.960000	759.00	-0.07	-0.08	5.75	4.50	5.75	5.75	2.25	1.00	0.50	0.00	0.00	0.25	0.00	0.00	0.00	0.00	0.00	0.00	-0.165527	0.099121	0.948730	3.220000	-5.390000	1.820000	299.00	-0.29	-0.03
1.32	5.00	5.25	6.75	7.25	7.00	5.75	2.25	4.50	3.50	2.75	2.00	2.00	5.25	3.00	1.50	1.50	-0.215820	0.056152	0.955078	-2.170000	0.700000	2.380000	774.00	-0.06	-0.08	5.75	4.50	5.75	6.00	2.25	1.25	0.50	0.00	0.00	0.00	0.00	0.00	0.00	0.00	0.00	0.00	-0.154297	0.103516	0.939453	2.590000	-4.270000	1.750000	303.00	-0.30	-0.04
1.33	5.25	5.25	7.00	7.50	7.25	5.75	2.25	4.25	3.25	2.25	1.75	2.00	5.50	3.25	1.25	1.75	-0.217773	0.054688	0.954102	-1.890000	-0.070000	2.730000	773.00	-0.07	-0.08	6.25	5.00	5.75	6.25	2.25	1.25	0.50	0.00	0.00	0.25	0.00	0.00	0.00	0.00	0.00	0.00	-0.147461	0.104492	0.927246	-0.070000	0.070000	1.610000	319.00	-0.29	-0.04
1.34	5.00	5.50	7.00	7.50	7.00	6.00	2.25	4.25	3.25	2.25	2.00	1.75	5.50	3.00	1.50	1.50	-0.215820	0.063477	0.958008	-1.750000	-0.770000	3.150000	771.00	-0.07	-0.09	6.50	5.00	6.00	6.25	2.50	1.25	0.50	0.00	0.00	0.50	0.00	0.00	0.00	0.00	0.00	0.00	-0.146484	0.105957	0.948730	-3.570000	1.400000	1.540000	331.00	-0.29	-0.03
1.35	5.25	5.75	7.25	7.75	7.25	6.00	2.50	4.25	3.25	2.25	1.75	1.75	5.00	3.00	1.50	1.25	-0.212891	0.055176	0.955078	-1.540000	-1.890000	3.570000	781.00	-0.08	-0.08	6.50	5.00	6.00	6.50	2.50	1.75	0.50	0.00	0.00	0.25	0.00	0.00	0.00	0.00	0.25	0.00	-0.152344	0.101074	0.960938	-6.580000	1.750000	1.400000	340.00	-0.29	-0.04
1.36	5.25	5.75	7.25	7.75	7.50	6.25	2.25	4.25	3.25	2.25	1.75	1.75	5.25	2.75	1.50	1.25	-0.212402	0.060547	0.964844	-1.050000	-2.940000	4.060000	783.00	-0.08	-0.08	6.75	5.25	6.25	7.00	2.50	1.75	0.50	0.00	0.00	0.25	0.00	0.00	0.00	0.00	0.00	0.00	-0.163574	0.094727	0.974121	-8.260000	0.700000	1.540000	351.00	-0.29	-0.04
1.37	5.50	5.75	7.50	8.00	7.50	6.25	2.25	4.25	3.00	2.25	1.75	1.75	5.00	3.00	1.50	1.50	-0.213379	0.063477	0.960938	-0.630000	-3.360000	4.550000	790.00	-0.08	-0.08	7.00	6.00	6.75	7.25	2.75	2.00	0.50	0.00	0.00	0.50	0.00	0.00	0.00	0.25	0.00	0.00	-0.177246	0.087402	1.000977	-9.240000	-1.540000	1.820000	382.00	-0.28	-0.04
1.38	5.50	6.00	7.50	8.00	7.75	7.00	2.25	4.75	2.75	2.00	1.50	1.75	4.50	2.75	1.50	1.25	-0.208008	0.068359	0.968262	-0.420000	-3.010000	4.270000	794.00	-0.09	-0.09	7.25	5.75	6.75	7.50	3.00	2.25	0.50	0.25	0.00	0.25	0.00	0.00	0.00	0.00	0.00	0.00	-0.160156	0.083496	0.973633	-9.450000	-4.270000	1.890000	390.00	-0.29	-0.05
1.39	5.75	6.00	7.75	8.25	7.75	7.25	2.25	4.25	2.75	2.25	1.50	1.75	4.75	2.75	1.50	1.00	-0.203125	0.070801	0.957520	-0.700000	-2.520000	3.920000	802.00	-0.09	-0.09	8.25	6.25	7.25	7.75	3.00	2.25	0.50	0.25	0.00	0.25	0.25	0.00	0.00	0.25	0.00	0.00	-0.147461	0.091797	0.969238	-10.500000	-6.580000	1.820000	421.00	-0.28	-0.04
1.40	6.25	6.25	7.75	8.50	8.00	7.25	2.25	4.50	2.75	2.00	1.50	1.50	4.75	2.75	1.25	1.25	-0.203613	0.065918	0.958984	-0.980000	-1.960000	3.570000	813.00	-0.10	-0.09	8.25	6.50	7.50	8.25	3.50	3.00	0.75	0.25	0.00	0.75	0.25	0.00	0.25	0.25	0.00	0.00	-0.159668	0.092285	0.964844	-12.600000	-8.610000	1.820000	460.00	-0.27	-0.05
1.41	6.75	6.50	7.75	8.75	7.75	7.50	2.25	4.50	2.50	2.00	1.25	1.50	5.00	2.50	1.50	1.50	-0.200684	0.067871	0.951660	-0.980000	-1.680000	3.360000	822.00	-0.11	-0.09	9.25	7.00	8.00	8.75	3.50	3.25	0.75	0.25	0.25	0.25	0.25	0.00	0.00	0.25	0.00	0.00	-0.153320	0.076660	0.969727	-14.630000	-10.640000	1.540000	486.00	-0.28	-0.04
1.42	7.00	7.25	8.00	8.75	8.00	7.75	2.25	4.00	2.75	2.00	1.50	1.50	4.50	2.75	1.50	1.25	-0.198730	0.062988	0.960449	-0.910000	-1.330000	3.290000	836.00	-0.11	-0.08	10.50	7.50	8.50	9.00	4.00	4.00	0.75	0.50	0.25	0.75	0.25	0.00	0.25	0.50	0.00	0.00	-0.148438	0.079102	0.971191	-15.470000	-13.510000	1.400000	544.00	-0.27	-0.04
1.43	7.25	7.25	8.25	9.00	8.00	7.75	2.25	4.25	3.00	1.75	1.50	1.25	4.25	2.25	1.25	1.25	-0.208008	0.063477	0.952148	-0.350000	-0.630000	3.150000	837.00	-0.12	-0.08	11.50	7.75	9.00	9.50	4.75	4.50	0.75	0.75	0.00	0.75	0.25	0.00	0.50	0.75	0.00	0.00	-0.152344	0.093262	0.970215	-16.170000	-16.309999	1.750000	590.00	-0.26	-0.05
1.44	8.00	7.75	8.50	9.25	8.00	7.75	2.25	4.25	2.50	1.75	1.00	1.25	3.75	2.50	1.25	1.00	-0.195312	0.067871	0.955078	0.210000	-0.000000	3.220000	840.00	-0.13	-0.08	13.00	8.50	9.25	10.00	5.50	5.00	0.75	1.00	0.50	0.75	0.00	0.00	0.50	0.50	0.25	0.00	-0.144531	0.090820	0.981445	-15.750000	-17.500000	1.890000	648.00	-0.26	-0.05
1.45	8.25	7.75	8.25	9.25	8.00	8.00	2.00	4.00	2.50	1.75	1.25	1.50	3.50	2.25	1.50	1.25	-0.196777	0.064941	0.964355	0.490000	0.560000	3.150000	839.00	-0.13	-0.08	13.75	9.25	9.50	10.75	5.75	5.25	0.75	1.25	0.50	0.75	0.25	0.00	0.75	1.00	0.25	0.00	-0.143066	0.099609	0.977539	-13.230000	-15.610000	1.470000	696.00	-0.25	-0.05
1.46	9.00	8.25	8.50	9.50	8.25	8.00	2.25	3.50	2.25	1.75	1.00	1.25	3.50	2.50	1.00	1.00	-0.187012	0.071777	0.943359	0.700000	0.910000	3.010000	844.00	-0.14	-0.07	14.25	10.00	10.00	11.25	6.25	6.00	0.75	1.50	0.25	1.00	0.50	0.00	0.75	0.75	0.25	0.00	-0.148438	0.098633	0.994141	-13.230000	-14.210000	0.980000	740.00	-0.25	-0.06
1.47	9.25	8.50	8.50	9.50	8.25	8.00	2.25	3.75	2.00	1.75	1.25	1.25	3.25	2.25	1.00	1.00	-0.197266	0.064453	0.963379	1.050000	2.730000	3.080000	848.00	-0.15	-0.08	15.75	10.00	10.50	11.75	6.75	6.25	1.00	2.00	0.75	1.00	0.50	0.25	1.50	1.00	0.25	0.25	-0.143066	0.093262	0.987793	-12.320000	-13.230000	0.560000	811.00	-0.24	-0.06
1.48	10.00	8.75	8.75	9.75	8.25	8.00	2.00	3.50	2.00	1.75	1.00	1.00	3.25	2.25	1.25	1.00	-0.198730	0.070312	0.960449	1.750000	3.290000	3.010000	854.00	-0.15	-0.07	16.25	10.00	10.50	11.50	7.00	6.75	1.00	1.75	0.75	1.00	0.50	0.25	1.25	1.25	0.50	0.00	-0.128418	0.094727	0.979980	-11.410000	-11.480000	0.070000	820.00	-0.24	-0.05
1.49	10.25	9.00	8.75	9.75	8.25	8.00	2.00	3.50	2.25	1.75	1.00	1.00	3.00	2.25	1.25	0.75	-0.192383	0.069824	0.953613	1.610000	3.640000	2.940000	859.00	-0.15	-0.07	16.75	11.50	10.00	12.00	7.50	7.25	1.00	2.25	0.75	1.00	0.25	0.25	1.75	1.00	0.50	0.00	-0.129883	0.091797	0.995605	-10.990000	-9.240000	-0.350000	861.00	-0.24	-0.06
1.50	10.75	9.25	9.00	9.75	8.25	8.25	2.00	3.75	1.75	1.50	0.75	1.00	3.00	2.25	1.00	1.00	-0.189453	0.072754	0.956543	0.770000	3.990000	2.730000	863.00	-0.16	-0.07	16.25	11.50	11.00	12.00	7.75	7.50	1.25	2.50	1.75	1.75	1.00	0.75	1.00	1.00	0.50	0.25	-0.132324	0.082520	0.989746	-9.660000	-7.140000	-0.420000	913.00	-0.22	-0.05
1.51	10.75	9.50	9.00	9.75	8.00	8.00	2.00	3.50	2.00	1.75	1.00	1.00	2.75	2.25	1.00	0.75	-0.188477	0.074707	0.949219	-0.000000	4.270000	2.380000	861.00	-0.16	-0.07	17.50	11.25	10.75	12.00	8.25	7.50	1.25	2.25	0.75	1.00	0.50	0.50	1.75	1.25	0.50	0.00	-0.127930	0.080566	0.989258	-8.330000	-4.970000	-0.700000	900.00	-0.23	-0.06
1.52	11.25	9.50	9.00	10.00	8.00	8.00	2.00	3.25	2.00	1.25	0.75	0.75	2.75	2.25	1.00	0.75	-0.184082	0.075684	0.946777	-1.540000	4.900000	2.030000	854.00	-0.17	-0.07	17.25	11.25	11.00	11.75	8.25	7.25	1.25	2.50	0.50	1.50	0.50	0.25	1.75	1.25	0.25	0.00	-0.125488	0.080566	0.989258	-6.370000	-3.150000	-0.700000	895.00	-0.23	-0.06
1.53	11.50	9.75	9.25	10.00	8.00	8.00	2.00	3.25	1.75	1.50	0.75	0.50	2.00	1.75	1.00	0.75	-0.187500	0.074219	0.945312	-2.940000	5.460000	1.680000	847.00	-0.18	-0.07	14.75	9.75	10.00	10.75	8.00	7.00	1.25	2.75	0.75	1.25	0.50	0.25	2.25	1.25	0.50	0.25	-0.120605	0.078125	0.981445	-4.760000	-0.910000	-0.770000	835.00	-0.22	-0.06
1.54	11.75	9.75	9.25	10.00	8.00	8.00	1.75	3.00	2.00	1.50	1.00	1.00	2.75	2.25	1.00	1.00	-0.189941	0.075195	0.946289	-4.060000	5.740000	1.470000	867.00	-0.17	-0.07	21.50	14.75	13.75	14.75	10.00	9.25	1.50	4.00	2.50	2.25	1.50	1.25	2.25	1.00	1.00	0.75	-0.125977	0.082031	0.983887	-4.200000	0.910000	-0.700000	1197.00	-0.21	-0.06
1.55	11.25	9.75	9.00	10.00	8.00	8.00	1.75	3.00	2.00	1.25	1.00	0.75	2.75	2.25	1.00	1.00	-0.188965	0.067383	0.954102	-4.760000	6.090000	1.400000	852.00	-0.17	-0.07	21.00	14.50	13.25	14.50	9.75	9.00	1.50	4.00	2.50	2.25	1.75	1.25	2.50	2.50	1.75	1.50	-0.129395	0.086914	0.976074	-4.060000	2.730000	-0.700000	1206.00	-0.19	-0.06
1.56	12.25	10.00	9.00	10.00	8.00	8.00	1.75	3.00	2.00	1.50	0.75	0.75	2.50	2.00	1.00	0.75	-0.192383	0.072754	0.948242	-5.110000	6.440000	1.260000	860.00	-0.18	-0.07	15.50	9.00	9.75	10.50	8.50	8.50	1.50	3.50	2.50	2.25	1.25	0.50	1.75	1.75	1.50	1.25	-0.121582	0.082031	0.976074	-4.480000	4.410000	-0.980000	936.00	-0.18	-0.06
1.57	12.00	10.00	9.00	10.00	7.75	8.00	1.75	3.00	1.75	1.50	0.75	0.75	2.75	2.00	1.00	1.00	-0.187988	0.070312	0.945312	-5.670000	7.000000	1.190000	854.00	-0.18	-0.07	11.00	8.75	9.00	10.00	8.50	7.75	1.50	3.75	2.75	2.25	1.75	1.75	4.50	3.00	2.00	1.25	-0.124023	0.083984	0.978027	-6.160000	7.210000	-1.610000	929.00	-0.13	-0.08
1.58	12.00	9.75	9.00	9.75	7.75	7.75	1.75	2.75	1.75	1.50	0.75	0.75	2.50	2.00	1.00	0.75	-0.178711	0.071289	0.942871	-6.510000	7.630000	0.840000	838.00	-0.18	-0.06	18.00	12.50	12.50	13.50	9.75	8.75	1.50	4.00	3.00	2.50	1.50	1.50	5.00	3.00	2.00	1.75	-0.131836	0.082031	0.977539	-6.440000	8.050000	-2.030000	1170.00	-0.16	-0.07
1.59	11.75	9.75	9.00	9.75	7.75	7.75	1.75	2.75	2.00	1.25	0.75	0.75	2.50	2.00	0.75	1.00	-0.179688	0.065430	0.934082	-7.560000	7.980000	0.420000	834.00	-0.18	-0.06	17.00	11.75	12.25	13.00	9.75	8.75	1.50	4.25	3.00	2.50	2.00	2.00	4.50	3.25	2.00	1.50	-0.136719	0.076172	0.974121	-6.510000	8.120000	-2.310000	1154.00	-0.16	-0.07
1.60	11.50	9.75	9.00	9.75	7.75	7.75	1.75	2.75	2.00	1.25	1.00	0.50	2.75	2.00	1.25	0.50	-0.174316	0.065430	0.937012	-9.030000	8.890000	-0.280000	837.00	-0.18	-0.06	15.75	10.75	11.75	12.75	9.75	8.50	1.50	4.25	3.25	2.25	1.75	1.75	5.00	2.75	2.00	1.75	-0.135742	0.077637	0.966797	-6.860000	7.910000	-2.170000	1115.00	-0.15	-0.07
1.61	11.25	9.50	9.00	9.75	7.75	7.75	1.75	2.75	1.75	1.50	0.75	0.75	2.75	2.25	1.00	1.00	-0.179688	0.062500	0.941895	-10.710000	9.870000	-1.260000	833.00	-0.17	-0.07	14.50	10.50	11.50	11.75	9.50	8.50	1.50	4.00	3.25	2.25	1.75	1.75	4.75	2.75	2.25	1.75	-0.137695	0.077148	0.966797	-6.720000	7.070000	-2.100000	1076.00	-0.15	-0.07
1.62	10.75	9.25	8.75	9.50	7.75	7.50	1.75	2.75	2.00	1.50	0.75	0.50	2.00	1.75	1.00	0.75	-0.184082	0.059082	0.950684	-12.250000	11.200000	-3.080000	803.00	-0.18	-0.06	14.50	9.75	11.00	12.00	9.50	8.50	1.75	4.25	3.25	2.50	1.75	2.00	5.00	3.00	2.25	2.00	-0.140625	0.077148	0.967773	-6.720000	5.950000	-1.960000	1086.00	-0.14	-0.07
1.63	10.25	9.00	8.75	9.25	7.75	7.50	1.75	3.00	2.00	1.25	1.25	1.00	2.75	2.50	1.50	1.00	-0.191406	0.050293	0.962402	-11.200000	12.810000	-3.990000	826.00	-0.16	-0.07	13.75	9.50	11.00	11.75	9.50	8.50	1.75	4.75	3.00	2.50	2.00	2.00	4.75	3.25	2.50	1.75	-0.141113	0.069336	0.963867	-7.070000	4.970000	-1.890000	1081.00	-0.13	-0.07
1.64	9.50	8.50	8.50	9.25	7.50	7.25	1.75	3.00	2.00	1.50	1.00	1.00	3.00	2.25	1.25	1.00	-0.200684	0.041016	0.961426	-8.680000	14.840000	-4.620000	801.00	-0.15	-0.07	13.00	9.00	10.75	11.75	9.50	8.50	2.00	4.75	3.00	2.75	2.00	1.50	5.25	3.50	2.00	1.75	-0.142578	0.073730	0.969238	-7.560000	3.850000	-1.890000	1067.00	-0.13	-0.07
1.65	9.25	8.25	8.25	9.00	7.50	7.00	1.75	3.00	2.25	2.00	1.00	0.75	3.25	2.25	1.25	1.00	-0.192871	0.037109	0.962402	-4.270000	16.870001	-4.900000	795.00	-0.15	-0.07	12.25	8.75	10.25	11.50	9.75	8.50	2.00	5.00	3.25	3.00	2.00	1.75	5.25	3.25	2.25	2.00	-0.140137	0.073730	0.961914	-8.190000	3.010000	-1.890000	1065.00	-0.12	-0.08
1.66	8.50	7.75	8.00	8.50	7.25	6.75	1.75	2.75	2.50	1.75	1.00	1.25	3.50	2.50	1.00	1.00	-0.187012	0.074219	0.964844	-1.400000	21.280001	-6.230000	771.00	-0.14	-0.07	11.75	7.50	7.75	8.50	8.75	8.25	2.00	3.75	2.25	2.75	1.75	0.75	5.25	3.50	2.00	1.00	-0.136719	0.070801	0.967773	-8.960000	2.240000	-1.960000	906.00	-0.12	-0.07
1.67	7.75	7.50	7.75	8.25	7.25	6.25	2.00	3.00	2.75	2.00	1.00	1.25	3.50	2.50	1.25	1.00	-0.196289	0.074219	0.978027	-0.350000	27.580000	-6.650000	765.00	-0.13	-0.07	10.50	7.75	10.25	10.00	9.25	8.25	2.00	4.00	4.00	3.00	2.00	2.00	5.50	3.50	2.50	1.50	-0.136230	0.066406	0.962891	-9.450000	1.610000	-2.310000	1010.00	-0.10	-0.07
1.68	7.00	7.00	7.00	7.75	6.75	5.75	1.75	2.75	2.75	1.75	1.25	1.00	3.50	2.75	1.25	1.25	-0.221680	0.068359	0.978516	1.050000	34.160000	-7.000000	717.00	-0.12	-0.07	10.50	7.25	9.25	10.75	10.00	8.25	2.00	3.75	2.25	2.25	1.25	1.75	5.75	4.00	2.75	2.00	-0.134277	0.070801	0.959961	-9.380000	1.470000	-2.590000	974.00	-0.11	-0.08
1.69	6.00	6.25	6.50	7.25	6.25	5.25	1.75	2.75	2.75	2.00	1.50	1.25	4.00	3.00	1.50	1.25	-0.205078	0.066895	1.003906	3.150000	40.599998	-8.960000	693.00	-0.10	-0.07	7.75	7.25	9.00	10.25	10.00	8.25	2.75	5.75	4.25	3.00	2.50	2.50	6.00	4.00	2.50	2.25	-0.135254	0.065430	0.955078	-9.730000	1.960000	-3.290000	1041.00	-0.08	-0.08
1.70	5.50	5.75	6.00	6.25	5.50	5.00	1.75	2.50	3.00	2.00	1.50	1.25	4.00	2.75	1.25	1.25	-0.284668	0.064453	1.011230	5.600000	48.299999	-10.500000	646.00	-0.09	-0.07	8.75	6.25	9.50	10.25	10.50	8.25	2.75	5.75	4.25	2.50	2.50	2.50	6.25	4.25	2.75	1.75	-0.133789	0.060059	0.967285	-9.590000	2.870000	-3.360000	1053.00	-0.08	-0.08
1.71	5.00	5.25	5.25	5.50	4.75	4.00	1.75	2.50	3.25	2.00	1.75	1.50	4.00	3.00	1.50	1.25	-0.208496	0.082031	0.995117	0.280000	76.650002	-15.400000	611.00	-0.07	-0.07	6.75	6.75	9.25	9.00	9.50	7.00	2.75	6.00	5.00	3.75	2.50	2.75	6.00	4.25	3.00	2.25	-0.135742	0.060547	0.958496	-8.890000	4.130000	-3.360000	1026.00	-0.06	-0.08
1.72	4.50	5.50	5.00	5.50	3.25	3.00	1.50	2.00	3.50	2.00	1.50	1.50	4.00	3.00	1.50	1.25	-0.145996	0.180664	1.225586	-0.140000	112.699997	-24.780001	563.00	-0.06	-0.06	6.75	6.50	9.00	8.25	9.50	8.50	3.25	6.00	5.50	3.75	2.75	3.00	6.75	5.00	3.00	2.50	-0.133301	0.064453	0.962402	-8.190000	6.090000	-3.360000	1066.00	-0.05	-0.07
1.73	3.75	5.00	3.75	5.00	2.00	2.75	1.25	1.75	3.50	2.00	1.50	1.50	3.75	3.00	1.25	1.25	-0.410645	0.158203	1.256836	4.060000	173.740005	-36.750000	497.00	-0.05	-0.07	8.00	6.00	8.00	8.25	10.50	8.25	3.25	5.75	5.75	4.25	3.00	2.75	7.00	5.00	3.25	2.50	-0.137207	0.060547	0.965332	-7.420000	8.680000	-3.290000	1082.00	-0.04	-0.07
1.74	3.75	4.75	3.50	4.75	1.75	2.25	1.00	1.50	3.50	1.50	1.25	1.00	3.25	3.25	1.50	1.25	-0.451660	0.228516	1.164551	-6.230000	228.619995	-47.320000	457.00	-0.04	-0.06	7.25	5.75	8.25	8.50	11.00	8.50	3.75	6.00	6.75	4.50	3.50	3.25	7.75	5.75	3.00	3.00	-0.147949	0.058105	0.981934	-6.580000	11.690000	-3.150000	1141.00	-0.03	-0.07
1.75	2.50	3.50	3.25	4.50	1.50	0.25	0.75	0.75	3.00	1.50	1.00	1.25	3.25	3.25	1.00	1.00	-0.433105	0.335938	1.314941	-8.330000	256.339996	-63.349998	367.00	-0.02	-0.05	7.00	5.75	8.00	8.50	11.00	8.50	3.75	6.25	7.25	5.50	3.75	3.50	8.25	5.75	3.25	3.25	-0.140625	0.059082	0.964355	-5.670000	14.490000	-3.010000	1173.00	-0.02	-0.07
1.76	3.25	5.00	3.00	4.50	1.50	2.00	0.75	1.50	3.00	1.50	1.25	1.25	2.50	2.75	1.25	1.00	-0.482422	0.357422	1.594238	-13.790000	249.619995	-85.260002	415.00	-0.05	-0.07	6.50	5.50	8.00	8.00	10.75	8.00	4.00	6.50	7.75	6.00	4.25	3.75	8.75	6.25	3.75	3.50	-0.153320	0.074707	0.979980	-4.270000	17.780001	-3.080000	1196.00	-0.00	-0.07
1.77	3.25	4.25	3.00	4.50	1.50	2.00	0.75	1.50	2.50	1.50	1.00	1.00	2.00	2.25	0.75	1.00	-0.435547	0.269531	1.626953	-36.189999	230.509995	-105.910004	379.00	-0.07	-0.07	6.25	5.25	7.00	7.75	10.50	8.00	4.00	6.25	8.00	7.00	5.00	4.50	9.00	6.50	3.75	3.75	-0.138184	0.058594	0.971191	-3.360000	21.559999	-3.500000	1207.00	0.01	-0.07
1.78	2.75	3.75	3.00	4.00	1.25	2.50	0.75	1.50	2.25	1.25	1.25	0.75	2.00	1.75	0.75	1.00	-0.536621	0.077637	1.662598	-77.769997	217.350006	-112.489998	354.00	-0.07	-0.08	5.75	5.00	6.75	7.00	10.00	7.75	4.25	6.25	8.50	7.50	6.25	5.00	9.50	7.50	4.00	4.00	-0.162598	0.054688	1.003418	-1.890000	25.129999	-3.430000	1233.00	0.03	-0.07
1.79	2.25	3.75	2.25	3.75	1.25	2.25	0.50	1.50	1.75	1.75	1.00	0.75	1.25	1.75	0.75	0.50	0.239258	0.606934	1.678711	-128.380005	197.399994	-110.110001	315.00	-0.07	-0.08	5.50	4.75	6.00	6.75	9.25	7.50	4.25	6.50	9.00	8.00	7.50	6.00	10.00	7.75	4.25	4.25	-0.168945	0.053223	0.988281	0.770000	28.280001	-3.010000	1258.00	0.04	-0.07
1.80	2.75	4.50	2.50	3.25	1.00	2.25	0.25	0.00	0.00	0.50	0.25	0.00	0.00	0.25	0.00	0.00	1.118652	1.216309	2.220703	-118.720001	146.789993	-105.559998	200.00	-0.27	-0.08	5.25	4.25	5.50	6.00	8.50	6.00	4.00	5.50	8.25	7.50	6.75	5.50	9.75	7.25	3.00	4.00	-0.150879	0.050781	0.988281	3.220000	31.430000	-2.380000	1133.00	0.04	-0.07
1.81	0.75	3.75	0.50	1.75	1.00	2.25	0.75	1.00	1.75	1.50	1.00	0.75	1.25	1.50	0.50	0.50	0.754395	1.391602	2.013184	-64.190002	87.220001	-79.800003	238.00	-0.02	-0.08	2.25	2.00	3.25	4.00	6.75	5.25	4.00	5.50	8.50	7.75	7.75	6.75	9.75	7.50	3.50	4.00	-0.178711	0.066895	1.001465	6.160000	38.080002	-2.730000	1036.00	0.10	-0.07
1.82	2.25	4.00	2.00	3.25	1.00	1.75	0.75	1.00	1.50	1.50	1.00	0.75	1.25	1.25	0.75	0.50	1.468750	1.213867	1.546875	12.530000	31.570000	-47.250000	285.00	-0.08	-0.07	1.75	1.75	2.50	3.50	5.75	4.50	3.75	5.25	8.75	8.25	8.25	7.75	10.25	8.00	3.75	4.75	-0.187988	0.060059	0.989746	7.630000	41.369999	-3.920000	1026.00	0.12	-0.08
1.83	2.00	4.00	2.25	3.00	1.00	2.25	1.00	1.00	1.50	1.50	1.00	0.25	1.00	1.25	0.50	0.25	1.232910	0.927246	0.766602	34.160000	7.420000	-17.150000	279.00	-0.09	-0.06	1.50	1.75	2.00	2.50	4.50	3.25	3.75	5.00	9.00	8.50	8.75	8.00	10.50	8.50	4.25	5.00	-0.232910	0.074707	0.929199	7.280000	48.020000	-4.690000	1001.00	0.14	-0.07
1.84	2.00	4.25	2.00	2.75	1.00	1.75	0.75	1.00	1.50	1.50	1.00	0.50	1.50	1.25	0.75	0.50	1.312012	0.871582	0.931641	29.190001	2.450000	10.990000	278.00	-0.08	-0.07	1.50	1.50	1.50	2.50	3.50	2.50	3.50	4.25	9.25	8.50	9.25	8.50	10.75	9.00	4.75	5.25	-0.182617	0.092285	1.001465	8.120000	53.760002	-5.320000	984.00	0.16	-0.07
1.85	2.50	3.75	1.75	2.75	1.00	1.75	0.75	1.25	1.50	1.50	0.75	0.50	1.75	1.50	0.75	0.50	1.381348	0.816406	1.206543	43.540001	-13.790000	32.970001	281.00	-0.07	-0.08	1.25	1.25	1.00	2.50	2.75	1.75	3.25	3.50	9.50	8.75	9.50	9.00	11.00	9.50	5.00	5.50	-0.181152	0.063477	1.085938	9.660000	63.770000	-4.900000	964.00	0.17	-0.07
1.86	2.50	4.00	2.00	2.75	1.00	1.50	0.75	1.25	1.00	1.25	0.75	0.50	1.50	1.50	0.75	0.75	1.365234	0.507324	1.170410	67.550003	-38.709999	45.990002	273.00	-0.09	-0.08	1.25	1.25	1.00	2.25	2.00	1.50	3.00	2.75	9.75	9.00	10.00	9.25	11.25	10.00	5.75	6.25	-0.206055	0.073730	1.088867	15.120000	78.470001	-5.670000	968.00	0.19	-0.07
1.87	1.75	3.75	1.75	3.00	1.00	2.00	0.75	1.25	1.50	1.25	0.50	0.75	1.50	1.25	0.75	0.50	1.295898	0.231934	1.192383	81.340004	-62.439999	50.680000	271.00	-0.08	-0.09	1.25	0.00	0.50	1.50	1.25	0.75	2.75	2.00	9.75	9.00	10.25	9.75	11.25	10.50	6.00	6.75	-0.243164	0.062012	1.042969	20.440001	98.000000	-6.160000	925.00	0.21	-0.06
1.88	2.25	3.75	1.50	2.75	1.00	1.50	0.75	1.00	1.75	1.50	0.75	1.00	1.25	1.25	0.50	0.50	1.194824	0.044434	1.248535	84.209999	-83.930000	49.420002	268.00	-0.07	-0.07	0.00	0.75	0.50	1.50	1.50	0.75	2.25	1.25	10.00	9.00	10.50	10.00	11.25	11.00	6.75	7.25	-0.259766	0.068848	1.056641	24.430000	121.099998	-5.880000	926.00	0.23	-0.06
1.89	2.50	4.00	2.00	2.75	1.00	1.75	0.75	1.00	1.50	1.50	1.00	1.25	1.25	1.00	0.50	0.50	1.073730	-0.096191	1.303223	83.440002	-104.370003	44.520000	282.00	-0.08	-0.07	1.00	0.00	0.25	1.25	0.75	0.50	2.00	1.00	9.75	9.00	10.75	10.00	11.00	11.50	7.50	7.75	-0.284668	0.115234	0.979492	26.389999	155.470001	-7.210000	917.00	0.24	-0.06
1.90	2.00	3.75	1.75	2.75	1.00	2.00	0.75	1.00	1.25	1.25	1.00	0.50	1.00	1.00	0.50	0.50	0.918457	-0.225586	1.295898	81.830002	-122.570000	37.380001	256.00	-0.09	-0.08	0.75	0.50	0.50	1.00	0.50	0.50	1.75	0.75	10.00	8.75	10.75	10.00	10.75	12.25	7.75	8.00	-0.333496	0.141113	1.079590	29.820000	182.910004	-10.640000	917.00	0.24	-0.06
1.91	2.00	3.75	1.75	2.50	0.75	2.00	0.75	1.00	1.25	1.25	0.75	0.50	1.50	1.00	0.75	0.75	0.754395	-0.300781	1.282227	76.090004	-135.100006	29.610001	256.00	-0.08	-0.09	0.25	0.50	0.50	1.00	0.50	0.50	1.50	0.50	10.00	8.75	11.00	10.00	10.50	12.50	8.25	8.50	-0.422852	0.210449	1.222656	29.049999	211.539993	-14.350000	915.00	0.25	-0.06
1.92	2.00	3.50	1.50	2.50	1.00	1.75	0.75	1.00	1.75	1.00	0.75	0.75	1.25	1.25	0.50	0.50	0.421875	-0.262207	1.323730	51.730000	-148.610001	22.120001	254.00	-0.07	-0.07	0.50	0.50	0.25	0.50	0.25	0.00	1.00	0.00	9.75	8.25	10.75	10.00	9.75	12.75	8.50	8.75	-0.378418	0.121094	1.084961	32.549999	241.360001	-18.340000	871.00	0.26	-0.05
1.93	2.50	3.50	1.50	2.75	1.00	1.75	0.75	1.25	1.50	1.25	0.75	0.50	0.75	0.50	0.75	0.50	0.240723	-0.211914	1.315918	41.369999	-151.339996	23.309999	254.00	-0.10	-0.07	0.00	0.25	0.25	1.00	0.25	0.25	0.75	0.25	9.75	8.25	10.50	9.50	9.25	13.00	8.50	9.00	-0.428223	0.050781	1.213867	32.549999	273.700012	-26.809999	862.00	0.26	-0.06
1.94	2.75	4.25	1.75	2.50	1.00	1.50	0.75	1.00	1.50	0.75	0.50	0.50	1.25	1.00	0.50	0.25	0.054199	-0.156250	1.315918	33.880001	-150.289993	26.950001	254.00	-0.12	-0.07	2.00	0.00	0.00	0.50	0.00	0.00	0.75	0.75	10.25	7.75	10.25	9.25	8.50	15.25	10.00	9.75	-0.549316	0.132812	1.222656	31.920000	283.779999	-31.080000	906.00	0.26	-0.04
1.95	2.00	3.25	1.25	2.50	1.00	1.25	0.75	1.25	1.25	1.00	0.50	0.75	1.00	1.25	0.75	0.50	-0.115234	-0.099609	1.329590	28.559999	-146.580002	31.430000	237.00	-0.07	-0.08	2.00	0.50	0.00	0.50	0.00	0.00	0.50	1.00	9.00	7.50	10.00	9.50	7.75	13.50	9.00	9.25	-0.361328	0.166504	1.415039	25.830000	299.950012	-34.509998	853.00	0.25	-0.05
1.96	1.50	3.75	1.50	3.25	0.75	2.00	0.75	1.25	1.25	1.25	0.50	0.00	0.00	0.00	0.00	0.00	-0.292969	-0.014160	1.392090	25.690001	-141.680008	36.820000	216.00	-0.15	-0.08	0.25	0.00	0.00	0.00	0.00	0.00	0.25	0.00	8.00	6.50	9.25	8.25	8.00	16.00	10.50	9.50	-0.700195	0.393066	1.380371	17.219999	316.679993	-41.580002	797.00	0.29	-0.05
1.97	0.00	0.00	0.00	0.00	0.00	0.00	0.50	0.00	0.00	0.00	0.00	0.00	0.00	0.00	0.00	0.00	-0.422852	0.102051	1.462891	26.110001	-138.320007	44.099998	8.00	0.00	0.00	0.25	0.00	0.00	0.00	0.00	0.00	0.00	0.25	7.75	5.75	8.75	7.75	5.75	13.50	9.00	8.50	-0.709961	0.289551	1.380859	8.120000	333.130005	-51.520000	706.00	0.29	-0.04
1.98	0.50	1.25	0.50	1.00	0.00	0.75	0.50	0.00	0.00	0.00	0.00	0.00	0.00	0.00	0.00	0.00	-0.560547	0.185547	1.592773	29.400000	-138.740005	53.760002	54.00	-0.25	-0.08	1.75	1.50	1.00	1.25	0.50	1.50	0.25	0.75	8.00	6.75	8.50	7.75	6.00	15.50	9.75	8.75	-0.896484	0.212402	1.409668	-8.470000	344.890015	-62.020000	845.00	0.23	-0.05
1.99	0.00	0.00	0.00	0.00	0.00	0.00	0.50	0.00	0.25	0.50	0.00	0.00	0.00	0.25	0.00	0.00	-0.663574	0.255371	1.710938	33.880001	-147.210007	65.099998	20.00	0.00	0.00	0.00	0.00	0.00	0.00	0.00	0.00	0.00	0.00	5.50	4.25	6.25	5.00	2.75	12.75	8.25	7.25	-1.029297	0.332520	1.804199	-9.030000	352.450012	-69.930000	538.00	0.31	-0.02
2.00	0.00	1.00	0.00	0.00	0.25	1.25	0.75	1.00	1.50	1.25	0.50	0.50	1.25	1.25	0.50	0.50	-0.763672	0.274902	1.659668	37.170002	-159.880005	76.160004	136.00	0.11	-0.07	0.00	0.00	0.00	0.00	0.25	1.50	0.25	0.50	6.50	5.00	6.00	3.75	2.50	11.75	7.50	6.00	-1.118652	0.487793	1.708008	-12.880000	364.070007	-86.519997	549.00	0.28	-0.02
2.01	1.25	2.25	1.25	2.00	0.75	2.25	0.75	1.00	1.25	1.00	0.25	0.50	1.50	1.25	0.75	0.50	-0.860840	0.238281	1.540527	40.389999	-169.259995	85.050003	216.00	-0.04	-0.09	0.00	0.00	0.00	0.00	0.00	0.00	0.25	0.50	5.50	4.50	5.00	4.75	4.25	12.50	7.00	5.50	-1.091797	0.666016	1.976074	-12.110000	366.730011	-102.059998	523.00	0.30	-0.03
2.02	1.75	2.00	1.25	1.75	0.75	1.75	0.75	0.75	1.50	1.25	0.25	0.50	0.75	1.00	0.50	0.50	-0.960938	0.164551	1.456543	44.310001	-174.229996	90.510002	200.00	-0.05	-0.05	1.75	1.50	1.50	1.00	0.00	0.25	0.00	0.00	2.75	2.75	2.75	2.25	1.50	9.25	5.75	5.25	-0.997559	0.504395	2.109375	-5.040000	357.910004	-118.300003	393.00	0.21	-0.02
2.03	1.75	2.00	1.00	1.25	0.50	1.75	0.75	0.75	1.75	1.25	0.50	0.25	1.25	1.00	0.50	0.75	-1.089844	0.049316	1.392090	49.209999	-177.309998	92.050003	198.00	-0.03	-0.05	0.25	1.25	1.25	1.50	0.00	0.00	0.00	0.00	2.75	3.75	3.50	3.25	1.50	8.50	6.25	3.50	-0.830566	0.524414	1.916016	-3.780000	346.640015	-133.070007	394.00	0.24	-0.03
2.04	1.75	2.75	1.25	2.25	0.50	2.00	0.75	1.00	1.25	1.00	0.25	0.75	1.50	1.00	0.75	0.25	-1.201172	-0.123047	1.318359	56.279999	-179.199997	90.510002	223.00	-0.07	-0.09	0.00	1.50	0.75	0.00	0.25	0.25	0.00	0.00	1.75	2.00	1.75	3.00	0.50	6.50	5.00	1.25	-0.629883	0.554199	1.816895	-0.000000	339.779999	-147.139999	262.00	0.25	-0.02
2.05	1.50	2.50	1.00	2.50	0.50	1.75	0.75	1.00	1.25	1.00	0.50	0.50	1.50	1.25	0.75	0.50	-1.326660	-0.281738	1.237305	58.310001	-179.619995	86.660004	218.00	-0.05	-0.09	1.25	0.25	0.00	1.25	0.75	1.00	0.00	0.00	1.00	1.75	2.50	3.00	1.25	5.50	2.75	1.75	-0.449219	0.543945	1.625488	4.410000	326.970001	-166.110001	255.00	0.19	-0.06
2.06	1.50	2.75	1.25	2.00	0.75	1.75	0.75	1.00	1.25	1.25	0.50	0.50	1.25	1.25	0.50	0.50	-1.448730	-0.346191	1.126465	46.480000	-178.639999	81.550003	218.00	-0.06	-0.08	1.75	1.25	1.75	1.00	0.50	1.00	0.00	0.00	0.75	1.75	1.00	1.25	0.75	2.75	1.50	0.25	-0.307617	0.260254	1.339355	-10.920000	313.179993	-176.119995	191.00	0.04	-0.03
2.07	1.75	2.75	1.00	2.00	0.75	2.00	0.75	1.25	1.25	1.00	0.75	0.50	1.25	1.00	0.75	0.75	-1.785645	-0.151855	0.645020	2.940000	-169.610001	69.720001	227.00	-0.05	-0.09	0.00	0.00	0.00	0.00	0.00	0.00	0.25	0.00	0.25	1.00	0.75	0.75	0.50	1.00	0.75	0.25	0.155273	0.205078	1.490234	-47.740002	294.070007	-178.919998	60.00	0.27	-0.04
2.08	1.50	2.50	1.50	2.25	0.75	2.00	0.75	1.25	1.50	1.00	0.50	0.75	1.25	1.00	0.50	0.50	-1.968750	-0.010254	0.323242	-8.890000	-154.839996	58.380001	230.00	-0.06	-0.09	0.00	0.00	0.00	0.00	0.00	0.25	0.25	0.00	0.25	1.00	0.75	0.25	0.00	0.50	0.50	0.00	0.283203	2.179199	2.194824	-128.029999	264.390015	-139.720001	44.00	0.00	0.00
2.09	1.25	2.75	1.50	2.25	0.50	1.75	0.75	1.25	1.50	1.00	0.75	0.50	1.50	1.25	0.50	0.50	-2.144043	0.097656	0.030273	-8.050000	-132.930008	41.790001	229.00	-0.05	-0.09	0.00	0.00	0.25	0.25	0.25	0.00	0.25	0.00	0.25	0.75	0.75	0.25	0.25	0.25	0.00	0.00	0.213867	1.506836	3.669922	-152.880005	159.809998	-49.279999	41.00	0.00	0.00
2.10	1.75	3.00	1.50	2.00	0.75	2.00	0.75	1.25	1.00	1.25	0.50	0.75	1.75	1.00	0.50	0.50	-2.302734	0.117188	-0.232910	7.420000	-105.000000	23.100000	236.00	-0.07	-0.10	0.00	0.00	0.00	0.00	0.00	0.00	0.25	0.00	0.00	1.00	0.50	0.25	0.50	0.25	0.00	0.00	0.958008	1.526367	2.401855	-150.919998	21.070000	33.740002	31.00	0.00	0.00
2.11	1.50	3.00	1.25	2.50	0.50	2.25	0.75	1.25	1.50	1.25	0.75	0.50	1.50	1.00	0.75	0.50	-2.431641	-0.030273	-0.437500	33.529999	-71.260002	6.860000	243.00	-0.05	-0.09	0.00	0.00	0.00	0.00	0.00	0.25	0.25	0.00	0.00	0.75	0.50	0.25	0.50	0.25	0.25	0.00	0.682129	1.050781	1.584961	-121.379997	-75.669998	81.550003	34.00	0.00	0.00
2.12	1.25	2.25	1.00	1.75	0.75	2.00	0.75	1.00	1.50	1.00	0.25	0.50	1.50	1.25	0.50	0.50	-2.556641	-0.254883	-0.515137	55.230000	-31.570000	-3.640000	208.00	-0.04	-0.08	0.00	0.00	0.00	0.00	0.00	0.25	0.25	0.00	0.00	0.50	0.25	0.25	0.25	0.00	0.25	0.00	0.579102	0.703125	1.069336	-88.970001	-110.599998	99.400002	24.00	0.00	0.00
2.13	1.75	2.50	1.25	2.00	0.75	2.00	0.75	1.25	1.50	1.25	0.75	0.50	1.50	1.25	0.50	0.50	-2.618164	-0.388184	-0.422852	56.000000	9.310000	-7.280000	235.00	-0.05	-0.08	0.00	0.00	0.00	0.00	0.00	0.00	0.00	0.00	0.00	0.50	0.25	0.25	0.00	0.00	0.00	0.25	0.551270	0.438965	0.838867	-60.270000	-118.300003	97.160004	13.00	0.00	0.00
2.14	1.50	3.25	1.25	1.75	0.75	1.50	0.75	0.00	0.00	0.00	0.00	0.00	0.00	0.00	0.00	0.00	-1.806641	-0.807129	-0.466797	-54.389999	109.760002	-22.540001	125.00	-0.27	-0.07	0.00	0.00	0.00	0.00	0.00	0.00	0.25	0.00	0.00	0.50	0.25	0.00	0.00	0.00	0.00	0.00	0.490234	0.339355	0.896484	-45.290001	-127.750000	86.379997	13.00	0.00	0.00
2.15	0.00	0.00	0.00	0.00	0.00	0.00	0.50	1.00	0.00	0.00	0.00	0.00	0.00	0.00	0.00	0.00	0.061035	0.331055	-0.184082	-94.220001	161.559998	-49.139999	25.00	0.00	0.00	0.00	0.00	0.00	0.00	0.00	0.00	0.00	0.00	0.00	0.50	0.25	0.00	0.00	0.00	0.00	0.00	0.465820	0.307129	0.986816	-36.540001	-146.720001	74.340004	9.00	0.00	0.00
2.16	0.00	0.50	1.75	3.50	0.50	0.00	0.50	0.00	0.00	0.00	0.00	0.00	0.00	0.00	0.00	0.00	-0.052246	0.665039	2.826172	-76.580002	134.610001	-43.049999	83.00	-0.24	-0.07	0.00	0.00	0.00	0.00	0.00	0.00	0.00	0.00	0.00	0.25	0.00	0.00	0.00	0.00	0.00	0.00	0.477051	0.323242	1.047852	-28.840000	-172.899994	64.120003	3.00	0.00	0.00
2.17	3.75	5.25	2.50	5.00	0.75	1.25	0.75	1.00	1.00	0.50	0.25	0.25	1.50	0.75	0.50	0.50	0.268066	0.367188	1.402832	-82.879997	85.889999	-17.010000	294.00	-0.18	-0.09	0.00	0.00	0.00	0.00	0.00	0.00	0.00	0.00	0.00	0.50	0.00	0.00	0.00	0.00	0.00	0.00	0.404297	0.395508	1.151855	-10.990000	-229.389999	55.510002	6.00	0.00	0.00
2.18	5.25	6.00	3.75	5.75	0.75	1.25	0.75	1.00	1.00	0.75	0.25	0.50	2.00	0.75	0.50	0.50	0.075195	0.222168	-0.070312	-82.739998	112.489998	-3.430000	353.00	-0.19	-0.08	0.00	0.00	0.00	0.00	0.00	0.00	0.00	0.00	0.00	0.00	0.00	0.00	0.00	0.00	0.00	0.00	0.329102	0.392578	1.187500	-4.060000	-254.449997	57.260002	0.00	0.00	0.00
2.19	7.25	7.50	4.50	6.00	0.75	1.50	0.75	1.00	0.75	0.50	0.25	0.50	1.75	1.00	0.50	0.50	-0.257324	0.177246	0.875488	-85.959999	182.419998	-1.750000	400.00	-0.22	-0.07	0.00	0.00	0.00	0.00	0.00	0.00	0.00	0.00	0.00	0.25	0.00	0.00	0.00	0.00	0.00	0.00	0.245117	0.381836	1.210449	-0.770000	-278.250000	62.090000	3.00	0.00	0.00
2.20	9.25	8.50	5.25	7.50	0.75	0.75	0.75	1.00	1.00	0.75	0.25	0.75	1.75	0.75	0.50	0.75	-0.516602	-0.069824	2.049316	-74.690002	194.600006	4.970000	459.00	-0.23	-0.06	1.00	0.75	1.00	0.50	0.50	1.00	0.25	0.50	1.50	1.25	1.00	1.00	1.25	1.00	1.25	0.75	0.099121	0.375000	1.226562	1.260000	-299.250000	67.970001	166.00	0.07	-0.06
2.21	11.25	9.75	6.00	8.25	1.25	1.50	0.75	1.00	1.00	0.00	0.00	0.00	0.00	0.00	0.00	0.00	-0.454102	-0.349121	1.605957	-42.630001	142.449997	-18.690001	474.00	-0.30	-0.05	0.00	0.25	0.00	0.00	0.00	0.00	0.00	0.00	0.00	0.00	0.00	0.00	0.00	0.00	0.00	0.00	-0.051270	0.364746	1.230957	4.900000	-316.820007	73.080002	3.00	0.00	0.00
2.22	8.50	8.50	5.25	7.50	1.25	3.25	0.50	0.75	0.00	0.00	0.00	0.50	2.00	1.00	0.50	0.50	-0.437012	0.167480	1.504395	-13.300000	133.139999	-25.549999	453.00	-0.25	-0.09	0.00	1.00	1.00	0.75	0.50	1.50	0.25	0.00	0.00	0.50	1.00	0.75	1.50	1.00	1.25	0.50	-0.196289	0.362793	1.219238	11.690000	-331.309998	76.860001	126.00	0.05	-0.13
2.23	14.75	11.25	8.25	9.50	2.00	3.50	0.75	1.25	1.00	1.00	0.75	0.75	2.00	0.25	0.00	0.00	-0.359375	0.242188	1.656738	14.840000	110.389999	-12.460000	658.00	-0.26	-0.06	0.00	0.50	0.25	0.00	0.00	0.00	0.00	0.00	0.00	0.25	0.00	0.00	0.00	0.00	0.00	0.00	-0.337891	0.323242	1.145020	20.930000	-339.709991	78.330002	11.00	0.00	0.00
2.24	9.75	9.25	7.00	8.25	1.25	1.50	0.50	0.00	0.00	0.00	0.00	0.00	0.50	0.25	0.50	0.25	-0.354004	0.137695	1.328125	21.210001	88.480003	-4.900000	443.00	-0.30	-0.05	0.00	0.00	0.00	0.00	0.00	0.00	0.00	0.00	0.00	0.50	0.75	1.00	1.75	1.00	1.25	1.00	-0.448730	0.253418	1.063477	29.680000	-339.010010	78.260002	72.00	0.28	-0.18
2.25	9.75	9.25	7.25	8.50	1.50	2.50	0.50	0.25	0.00	0.00	0.00	0.00	0.00	0.00	0.00	0.00	-0.270996	0.184082	1.196289	15.330000	77.000000	-2.590000	454.00	-0.31	-0.06	1.25	1.00	1.25	1.00	0.50	1.00	0.25	0.75	1.00	1.25	1.00	1.00	1.25	1.00	1.25	1.25	-0.516113	0.176270	1.038086	32.549999	-330.540009	78.680000	180.00	0.04	-0.09
2.26	14.50	12.00	8.75	10.25	3.00	5.50	0.75	0.75	0.50	1.00	1.00	0.50	0.00	0.00	0.00	0.00	-0.273438	0.246094	1.159668	-2.030000	57.470001	0.140000	677.00	-0.27	-0.06	0.75	0.75	0.50	0.50	0.25	0.00	0.00	0.00	0.00	0.25	0.00	0.00	0.00	1.00	1.25	0.75	-0.537598	0.144043	1.104492	29.820000	-318.709991	79.870003	62.00	0.03	-0.03
2.27	9.50	9.25	7.25	8.75	2.00	3.75	0.75	0.50	0.00	0.00	0.00	0.00	0.00	0.00	0.00	0.00	-0.285156	0.236816	1.212891	-29.469999	43.049999	2.030000	483.00	-0.30	-0.06	1.25	1.25	1.50	1.25	0.75	1.25	0.25	0.50	1.50	1.25	1.25	1.00	1.75	1.00	1.00	0.75	-0.559082	0.157227	1.243652	27.090000	-309.679993	80.290001	200.00	0.02	-0.07
2.28	10.25	9.25	8.50	10.25	3.25	6.00	1.00	1.00	0.00	1.00	0.00	0.75	0.00	0.25	0.00	0.00	-0.237305	0.135742	1.025391	-43.119999	27.860001	1.890000	602.00	-0.26	-0.07	0.00	0.00	0.00	0.00	0.00	0.00	0.00	0.00	0.00	0.00	0.00	1.00	1.50	1.00	1.50	1.25	-0.616699	0.199219	1.415527	28.840000	-306.459991	78.820000	60.00	0.31	-0.20
2.29	11.75	9.75	7.25	9.00	2.75	5.75	1.00	2.25	0.75	1.00	0.75	0.75	1.75	1.00	0.50	0.75	-0.212402	0.103516	0.979980	-48.090000	14.630000	-0.560000	658.00	-0.22	-0.08	1.75	1.50	1.50	1.00	0.75	1.25	0.25	0.50	1.25	1.25	0.75	1.00	2.00	1.00	1.25	1.00	-0.744629	0.196777	1.523926	41.860001	-308.910004	68.949997	202.00	0.01	-0.08
2.30	13.25	11.75	9.00	10.75	5.25	7.50	1.25	2.75	1.50	0.75	0.75	0.50	1.75	0.75	0.25	0.50	-0.219727	0.113770	0.980957	-48.299999	7.980000	-2.380000	799.00	-0.22	-0.07	1.50	1.50	1.25	1.00	0.75	1.25	0.25	0.75	1.25	1.25	0.75	1.00	1.50	1.00	1.25	1.00	-0.833984	0.181641	1.568848	50.259998	-306.250000	59.570000	196.00	0.01	-0.08
2.31	9.50	9.50	7.75	10.50	5.50	7.75	1.25	1.75	1.50	1.25	0.75	1.25	2.25	1.25	0.50	0.50	-0.229980	0.094238	0.987305	-42.070000	2.870000	-2.730000	732.00	-0.19	-0.08	1.50	1.25	1.25	0.75	0.50	1.00	0.25	0.25	0.50	1.00	0.75	0.50	1.25	1.00	1.25	0.50	-0.927734	0.186523	1.658203	61.250000	-301.630005	47.670002	151.00	-0.00	-0.07
2.32	14.50	12.50	9.75	11.00	6.00	8.25	1.50	3.25	1.50	1.50	0.75	1.00	3.50	1.50	1.00	0.50	-0.208008	0.082031	0.986816	-35.070000	0.910000	-2.520000	910.00	-0.20	-0.08	1.00	1.00	1.50	1.00	0.50	1.25	0.25	0.75	1.50	1.25	0.75	0.75	1.50	0.75	1.25	0.75	-1.005371	0.206543	1.782715	73.779999	-297.920013	36.400002	182.00	0.03	-0.08
2.33	14.75	11.00	9.50	11.25	6.00	8.25	1.50	3.50	1.75	1.50	1.00	1.00	3.00	1.75	0.50	0.75	-0.205566	0.072266	0.977539	-27.650000	0.840000	-1.960000	901.00	-0.19	-0.08	1.00	1.00	1.50	1.25	0.50	1.25	0.25	0.75	1.25	1.00	1.00	0.75	1.75	1.00	1.50	0.75	-1.059082	0.242188	1.909180	84.000000	-297.360016	29.680000	189.00	0.03	-0.09
2.34	15.50	12.50	10.00	11.50	6.50	8.25	1.50	3.50	1.75	1.50	1.00	1.00	3.00	1.50	0.75	0.75	-0.206055	0.066406	0.977539	-20.370001	0.350000	-1.120000	941.00	-0.20	-0.07	1.75	1.00	1.25	1.00	0.50	1.25	0.25	0.50	1.25	1.25	1.00	1.25	1.50	1.00	1.00	0.75	-1.102539	0.295898	1.999023	89.809998	-299.110016	29.260000	188.00	0.02	-0.07
2.35	15.25	13.00	10.00	11.50	6.50	8.75	1.50	4.00	1.75	1.50	1.25	1.00	3.25	1.25	1.00	0.75	-0.200195	0.066406	0.963379	-14.420000	0.070000	-0.350000	963.00	-0.20	-0.08	1.50	1.00	1.25	1.00	0.50	1.25	0.25	0.50	1.25	1.00	0.75	0.75	0.75	0.50	0.75	0.50	-1.119629	0.340820	2.040527	92.610001	-302.470001	35.000000	157.00	-0.02	-0.06
2.36	15.25	13.00	10.25	11.75	7.00	8.75	1.50	4.00	2.00	1.75	1.25	1.25	3.25	1.50	1.00	0.75	-0.193848	0.071777	0.958008	-7.630000	-1.050000	0.770000	987.00	-0.19	-0.08	0.00	0.00	0.00	0.00	0.00	0.00	0.00	0.00	0.00	0.00	0.00	0.00	0.00	0.00	0.00	0.00	-1.151855	0.345215	2.034668	93.940002	-305.200012	43.820000	0.00	0.00	0.00
2.37	15.25	12.75	10.25	11.75	7.00	9.00	1.50	4.00	2.00	1.75	1.25	1.25	3.75	1.50	1.00	1.00	-0.194336	0.076172	0.964355	-5.670000	-1.400000	0.980000	993.00	-0.19	-0.08	1.50	1.25	1.25	1.00	0.75	1.50	0.25	0.75	1.25	1.25	0.75	0.75	1.50	0.75	1.25	1.00	-1.220703	0.303711	2.007324	96.320000	-306.040009	52.990002	191.00	0.01	-0.08
2.38	15.50	13.00	10.25	12.00	7.25	9.25	1.50	4.50	2.00	1.75	1.50	1.25	4.00	1.75	1.00	0.75	-0.184082	0.073242	0.963379	-4.060000	-0.840000	0.840000	1022.00	-0.18	-0.08	1.00	1.50	1.50	1.00	0.50	1.25	0.25	0.50	1.25	1.00	1.00	1.00	1.25	1.00	1.25	1.00	-1.323730	0.232422	1.915527	98.070000	-304.149994	61.250000	184.00	0.02	-0.08
2.39	16.00	13.00	10.50	12.00	7.50	9.50	1.75	5.00	2.25	1.75	1.50	1.00	4.00	1.75	1.00	0.75	-0.191895	0.087402	0.961426	-3.080000	0.350000	0.630000	1050.00	-0.18	-0.08	0.75	0.50	0.75	0.00	0.00	0.00	0.00	0.00	0.00	0.00	0.00	0.00	0.00	0.00	0.00	0.00	-1.436523	0.141113	1.789551	98.070000	-297.640015	68.250000	23.00	0.00	0.00
2.40	15.50	13.00	10.25	11.75	7.50	9.50	1.50	5.00	2.00	1.75	1.50	1.50	4.00	1.75	1.00	1.00	-0.187012	0.083008	0.950195	-2.800000	0.700000	0.420000	1038.00	-0.18	-0.09	0.75	1.25	1.50	1.25	0.50	1.25	0.25	0.75	1.25	1.00	0.75	1.00	1.75	0.75	1.25	1.25	-1.550781	0.033203	1.645508	97.019997	-285.880005	73.360001	186.00	0.03	-0.10
2.41	15.50	12.50	10.25	11.75	7.75	9.75	1.75	5.00	2.00	2.00	1.50	1.25	4.50	2.00	1.00	1.00	-0.172363	0.084961	0.951660	-3.640000	1.050000	-0.070000	1050.00	-0.17	-0.09	0.00	0.00	0.00	0.00	0.00	0.00	0.00	0.00	0.00	0.00	0.00	0.00	0.00	0.00	0.00	0.00	-1.660156	-0.085449	1.276855	88.269997	-246.889999	78.540001	0.00	0.00	0.00
2.42	15.00	12.50	10.25	11.75	7.75	9.75	1.75	5.50	2.00	1.75	1.50	1.50	4.00	2.00	1.00	1.00	-0.182129	0.083496	0.960449	-4.760000	1.540000	-0.560000	1048.00	-0.17	-0.09	0.00	0.00	0.00	0.00	0.00	0.00	0.00	0.00	0.00	0.25	0.00	0.25	0.25	0.25	0.75	0.50	-1.823730	-0.085449	1.672363	84.070000	-233.169998	82.599998	22.00	0.00	0.00
2.43	14.75	12.25	10.00	11.75	8.00	9.75	1.50	5.50	2.00	1.75	1.50	1.25	4.75	2.00	1.00	1.00	-0.187012	0.087402	0.953613	-5.670000	2.170000	-0.910000	1042.00	-0.17	-0.09	1.00	0.50	0.75	0.50	0.50	1.25	0.25	0.50	1.25	1.25	0.75	1.00	1.50	0.75	1.25	0.75	-1.923340	-0.208984	1.002441	70.070000	-219.940002	87.989998	157.00	0.07	-0.08
2.44	14.25	12.00	10.00	11.50	8.25	9.75	2.00	5.75	1.75	2.00	1.50	1.50	4.50	2.00	1.00	1.00	-0.188965	0.078613	0.957520	-6.160000	2.940000	-1.120000	1046.00	-0.17	-0.09	1.00	1.00	1.25	0.75	0.50	1.00	0.25	0.50	1.00	1.00	0.50	0.75	1.00	1.00	1.25	0.75	-2.155762	-0.150391	0.821777	43.959999	-199.080002	90.300003	154.00	0.03	-0.07
2.45	14.00	11.75	9.75	11.50	8.50	10.00	2.00	6.00	2.50	1.75	1.75	1.75	5.00	2.25	1.25	1.25	-0.191895	0.078125	0.959473	-5.950000	3.290000	-1.120000	1073.00	-0.15	-0.09	1.25	1.25	1.25	1.00	0.75	1.50	0.25	0.50	1.50	1.25	1.00	1.00	1.75	1.00	1.25	0.75	-2.315430	-0.067383	0.463867	26.530001	-171.919998	87.779999	196.00	0.03	-0.08
2.46	13.50	11.50	9.75	11.25	8.50	10.00	2.00	6.00	2.00	2.00	1.50	1.75	5.25	2.00	1.25	1.25	-0.183594	0.077637	0.958496	-5.600000	3.430000	-1.260000	1055.00	-0.16	-0.10	1.25	1.00	1.25	1.25	0.75	1.25	0.25	0.50	1.50	1.00	1.00	0.75	1.75	1.00	1.00	1.00	-2.461914	-0.037109	0.146973	20.790001	-139.720001	82.250000	187.00	0.02	-0.07
2.47	13.50	11.50	9.75	11.25	8.75	10.00	2.25	6.25	2.25	2.00	1.75	1.75	5.50	2.50	1.25	1.25	-0.185547	0.072754	0.945801	-5.530000	4.060000	-1.260000	1079.00	-0.15	-0.09	1.50	1.25	1.25	1.00	0.50	1.25	0.25	0.75	1.50	1.25	1.00	1.00	2.00	1.00	1.25	0.75	-2.545898	-0.072754	-0.076660	22.469999	-101.919998	74.970001	200.00	0.03	-0.08
2.48	12.75	11.25	9.50	11.00	8.75	10.00	2.25	6.50	2.50	2.00	1.75	1.75	5.50	2.25	1.50	1.25	-0.186035	0.070801	0.956543	-5.530000	4.970000	-1.260000	1071.00	-0.14	-0.10	1.50	1.25	1.25	1.25	0.50	1.00	0.25	0.75	1.50	1.25	1.00	1.00	1.50	1.00	1.25	0.75	-2.625977	-0.161133	-0.169434	30.170000	-61.459999	65.870003	195.00	0.02	-0.07
2.49	12.50	10.75	9.50	11.00	9.00	10.00	2.25	6.75	2.50	2.50	2.00	2.25	5.75	2.50	1.25	1.25	-0.185547	0.071777	0.958496	-5.320000	6.020000	-1.190000	1086.00	-0.14	-0.10	1.75	1.00	1.50	1.00	0.75	1.25	0.25	0.75	1.50	1.00	0.50	0.00	0.00	0.00	1.00	0.75	-2.679199	-0.250977	-0.124512	36.820000	-22.190001	54.599998	155.00	-0.05	-0.03
2.50	11.75	10.50	9.50	10.75	9.00	10.00	2.25	7.00	2.50	2.00	1.75	2.25	6.00	2.50	1.50	1.50	-0.187012	0.076660	0.960938	-4.690000	7.070000	-1.260000	1074.00	-0.13	-0.10	1.25	1.00	1.00	1.25	0.50	1.25	0.25	0.50	1.50	0.75	0.00	1.00	1.75	1.00	1.00	1.00	-2.613770	-0.328613	-0.049316	35.139999	13.440001	41.369999	169.00	0.02	-0.08
2.51	11.75	10.25	9.25	10.75	9.00	9.75	2.50	7.00	2.75	2.25	2.00	2.00	6.25	2.50	1.25	1.25	-0.187988	0.074219	0.948242	-3.780000	8.960000	-1.330000	1074.00	-0.13	-0.10	2.25	1.50	2.00	1.75	0.50	0.75	0.25	1.00	1.25	1.00	0.75	1.00	1.75	0.50	0.00	0.00	-5.099121	0.084473	0.151855	28.910000	44.029999	26.250000	192.00	-0.08	-0.08
2.52	10.75	9.75	9.25	10.50	9.00	9.75	2.50	7.25	2.50	2.50	2.00	2.25	6.50	2.50	1.50	1.50	-0.195312	0.071289	0.965332	-3.710000	9.240000	-1.190000	1068.00	-0.12	-0.10	2.50	2.00	1.75	2.25	0.75	0.25	0.25	0.50	0.75	0.25	0.25	0.00	0.25	0.00	0.75	0.00	-0.475586	-0.575684	0.215332	-5.600000	173.389999	5.530000	149.00	-0.18	-0.04
2.53	10.50	9.50	9.00	10.25	9.25	9.75	2.50	7.25	2.75	2.50	2.50	2.25	6.75	2.75	1.50	1.50	-0.191895	0.073242	0.953613	-3.570000	9.450000	-1.260000	1074.00	-0.11	-0.10	4.25	3.25	2.75	4.25	0.75	0.25	0.25	0.25	0.75	0.50	0.50	1.00	1.00	0.50	0.75	0.50	0.404785	0.144531	2.183105	-77.910004	160.930008	-35.980000	245.00	-0.17	-0.06
2.54	10.00	9.25	9.00	10.25	9.00	9.75	2.50	7.50	2.75	2.75	2.50	2.75	7.00	3.00	1.50	1.75	-0.189941	0.072754	0.943848	-3.430000	9.310000	-1.120000	1081.00	-0.11	-0.11	3.75	3.50	2.25	3.50	0.00	0.00	0.00	0.00	0.00	0.00	0.00	0.00	0.25	0.00	0.00	0.00	0.097168	-0.243164	0.512695	-153.300003	120.330002	-47.389999	149.00	-0.34	-0.06
2.55	9.50	9.00	8.75	10.00	9.00	9.75	2.75	7.50	2.75	2.75	2.50	2.75	7.50	3.00	1.50	1.75	-0.191895	0.080078	0.951660	-3.780000	9.310000	-1.330000	1076.00	-0.10	-0.11	5.75	5.00	2.75	4.50	0.00	0.00	0.00	0.00	0.00	0.00	0.00	0.00	0.00	0.00	0.00	0.25	-0.040527	0.561523	0.578125	-183.119995	175.770004	-61.040001	204.00	-0.35	-0.05
2.56	8.75	8.50	8.75	9.75	9.25	9.75	2.75	7.50	3.00	2.75	2.75	2.75	7.50	2.75	1.75	1.50	-0.183594	0.078613	0.948242	-4.270000	9.660000	-1.820000	1068.00	-0.09	-0.11	8.75	7.00	3.75	5.25	0.00	0.00	0.00	0.00	0.00	0.00	0.00	0.00	0.00	0.00	0.00	0.00	-0.417969	1.147949	1.620605	-150.080002	239.960007	-30.870001	278.00	-0.36	-0.04
2.57	8.75	8.25	8.50	9.50	9.25	9.50	2.75	7.75	3.00	2.75	2.75	3.25	7.75	3.00	1.50	1.75	-0.187012	0.071777	0.945801	-4.900000	10.640000	-2.520000	1070.00	-0.09	-0.11	11.25	8.75	4.50	6.75	0.00	0.00	0.00	0.00	0.00	0.00	0.00	0.25	0.00	0.00	0.00	0.00	-0.661133	0.375977	1.900391	-117.669998	247.940002	15.680000	354.00	-0.35	-0.04
2.58	8.50	8.00	8.25	9.50	9.25	9.75	3.00	7.75	3.50	2.75	3.00	3.25	8.00	3.25	1.75	2.25	-0.194824	0.071289	0.958008	-5.530000	11.760000	-2.870000	1089.00	-0.08	-0.11	15.75	10.25	5.50	8.25	0.00	0.00	0.00	0.00	0.00	0.00	0.00	0.25	0.25	0.00	0.00	0.00	-0.323730	-0.587891	1.779297	-127.959999	244.300003	23.520000	453.00	-0.35	-0.04
2.59	7.75	7.75	8.25	9.25	9.25	9.50	3.00	7.75	3.50	3.00	3.25	3.50	8.25	3.25	1.75	2.00	-0.204590	0.073242	0.958008	-5.670000	12.180000	-3.080000	1081.00	-0.07	-0.11	17.50	11.50	7.00	9.00	0.50	0.25	0.00	0.00	0.00	0.00	0.00	0.25	0.75	0.00	0.00	0.00	-0.317383	-0.756348	1.921387	-106.959999	246.540009	-4.340000	526.00	-0.34	-0.04
2.60	7.25	7.50	8.00	9.00	9.25	9.50	3.00	7.75	3.75	3.00	3.25	3.75	8.50	3.50	1.75	2.25	-0.206543	0.066406	0.957520	-5.530000	12.530000	-2.870000	1080.00	-0.07	-0.11	19.25	12.00	8.50	9.75	1.00	1.25	0.00	0.00	0.00	0.00	0.00	0.25	0.50	0.00	0.00	0.00	-0.410156	-0.339844	1.707520	-66.290001	229.740005	-36.189999	594.00	-0.34	-0.03
2.61	7.25	7.25	8.00	9.00	9.25	9.50	3.00	8.00	3.75	3.00	3.50	4.25	8.75	3.50	2.00	2.50	-0.188477	0.070801	0.951172	-4.900000	13.230000	-2.520000	1097.00	-0.06	-0.11	19.75	12.00	9.25	10.75	1.25	1.75	0.25	0.00	0.00	0.00	0.25	0.50	1.00	0.00	0.00	0.00	-0.390137	0.207031	1.611328	-13.930000	208.740005	-43.259998	644.00	-0.32	-0.04
2.62	6.75	7.00	7.75	8.75	9.00	9.25	3.25	7.75	4.00	3.50	3.75	4.50	9.00	3.50	2.00	2.50	-0.193848	0.064453	0.953125	-4.270000	14.560000	-2.310000	1094.00	-0.05	-0.11	19.25	12.25	10.00	11.75	1.75	3.00	0.25	0.25	0.00	0.25	0.25	0.25	0.75	0.25	0.00	0.00	-0.511719	0.463379	2.259277	1.330000	168.279999	-30.240000	687.00	-0.31	-0.04
2.63	6.50	6.75	7.50	8.25	9.25	9.25	3.25	7.75	4.75	3.25	4.25	4.75	9.25	4.00	2.00	2.50	-0.206055	0.062012	0.960449	-3.640000	16.100000	-2.170000	1106.00	-0.04	-0.11	18.25	12.00	10.50	12.25	2.00	3.75	0.50	0.50	0.00	0.25	0.25	0.25	0.75	0.25	0.00	0.00	-0.389648	0.333984	1.621582	-7.980000	109.970001	-15.190001	705.00	-0.30	-0.05
2.64	6.25	6.50	7.50	8.00	9.25	9.00	3.25	8.00	4.75	3.75	5.00	5.25	9.75	4.25	2.25	2.75	-0.208984	0.060059	0.957031	-3.080000	17.710001	-2.030000	1130.00	-0.03	-0.11	18.00	11.50	10.75	12.25	2.50	4.25	0.50	0.75	0.00	0.25	0.25	0.25	1.25	0.50	0.50	0.00	-0.229492	0.297363	1.208984	-37.869999	77.910004	-6.580000	730.00	-0.29	-0.05
2.65	6.00	6.50	7.00	8.00	9.00	9.00	3.25	8.00	5.00	3.75	5.75	6.00	9.75	4.00	2.00	2.75	-0.208008	0.065918	0.950684	-2.590000	19.320000	-1.890000	1134.00	-0.02	-0.11	17.75	11.25	10.75	12.25	2.75	4.75	0.50	1.00	0.00	0.50	0.25	0.00	1.00	0.75	0.25	0.00	-0.202637	0.146484	1.156250	-55.090000	41.369999	-1.820000	734.00	-0.29	-0.05
2.66	5.50	6.25	7.00	7.75	8.75	9.00	3.25	8.00	5.00	4.25	6.75	6.50	10.00	4.50	2.50	3.00	-0.209473	0.071777	0.955078	-2.100000	22.610001	-1.820000	1157.00	-0.01	-0.11	17.00	11.75	11.00	12.00	2.75	5.25	0.75	1.00	0.00	0.50	0.25	0.25	1.00	0.75	0.00	0.00	-0.188965	0.153320	1.116211	-50.959999	27.790001	-1.960000	741.00	-0.28	-0.06
2.67	5.50	6.00	6.50	7.50	8.75	8.75	3.50	8.00	5.25	4.25	7.25	7.25	10.25	5.00	2.50	3.25	-0.211426	0.069336	0.960449	-2.100000	24.570000	-1.890000	1173.00	-0.00	-0.11	17.50	11.25	11.25	12.75	3.25	5.75	0.75	1.25	0.25	0.75	0.50	0.25	0.75	0.75	0.75	0.25	-0.176270	0.168945	1.015625	-48.020000	17.219999	-1.120000	787.00	-0.27	-0.06
2.68	5.25	5.75	6.00	7.00	8.50	8.50	3.50	8.00	5.75	4.75	7.75	7.75	10.50	5.00	2.50	3.50	-0.212891	0.069336	0.959961	-1.890000	26.950001	-1.960000	1178.00	0.01	-0.11	17.50	11.25	11.75	12.75	3.50	5.75	0.75	2.50	1.75	1.75	0.75	1.00	2.50	2.00	1.50	1.00	-0.157715	0.145996	1.075195	-47.320000	12.040000	-0.910000	902.00	-0.21	-0.06
2.69	5.00	5.75	5.75	6.75	8.25	8.50	3.50	8.00	6.25	5.25	8.00	8.00	10.75	5.50	2.75	3.50	-0.226074	0.071289	0.964844	-1.540000	29.330000	-2.100000	1194.00	0.02	-0.11	22.75	15.00	14.25	15.50	5.50	7.75	1.00	2.50	2.00	1.75	1.25	1.25	2.50	2.00	0.25	0.00	-0.155273	0.119141	1.016113	-43.540001	5.880000	-1.470000	1107.00	-0.23	-0.06
2.70	4.75	5.50	5.50	6.75	8.00	8.00	3.50	8.00	7.00	5.75	8.50	8.25	11.00	5.75	2.75	4.00	-0.223145	0.066895	0.981445	-1.260000	31.990000	-2.030000	1210.00	0.03	-0.11	18.00	11.50	11.50	13.00	5.00	7.00	0.75	1.75	0.25	0.75	0.25	0.25	1.25	1.50	0.25	0.00	-0.148926	0.113770	0.981445	-38.009998	4.130000	-1.890000	847.00	-0.26	-0.06
2.71	4.25	5.50	5.25	5.75	7.50	8.00	3.50	7.75	7.50	6.50	9.00	8.75	11.25	6.50	3.00	4.25	-0.228516	0.076172	0.968750	-0.980000	35.420002	-2.030000	1220.00	0.04	-0.10	17.75	11.25	12.00	13.00	5.25	7.00	1.00	2.00	0.50	0.75	0.50	0.25	1.75	1.50	0.50	0.00	-0.148926	0.110840	0.979980	-33.180000	3.570000	-1.960000	873.00	-0.25	-0.06
2.72	4.25	5.50	4.50	5.50	7.00	7.50	3.50	7.75	7.75	6.75	9.75	9.00	11.50	7.25	3.00	5.00	-0.252441	0.072754	0.968262	-0.140000	39.270000	-2.450000	1227.00	0.05	-0.10	17.00	11.00	11.50	12.75	6.50	7.25	1.00	2.00	0.75	1.00	0.50	0.25	1.75	1.75	0.50	0.00	-0.145020	0.104004	0.990723	-28.700001	3.430000	-2.100000	879.00	-0.24	-0.06
2.73	4.00	5.50	4.25	5.50	6.75	6.75	3.50	7.75	8.25	7.50	10.25	9.50	11.50	7.75	3.50	5.25	-0.242188	0.073730	0.973145	0.840000	43.750000	-3.570000	1248.00	0.07	-0.10	17.25	10.75	12.00	13.25	6.00	7.50	1.00	2.25	0.75	0.75	0.50	0.50	2.00	2.00	0.75	0.00	-0.148438	0.094727	0.990234	-23.450001	2.520000	-1.750000	901.00	-0.23	-0.06
2.74	3.25	5.25	3.50	4.75	5.75	6.50	3.25	7.50	8.50	7.75	10.75	10.25	11.75	8.25	3.75	5.25	-0.248535	0.083984	0.997070	0.350000	49.770000	-3.360000	1227.00	0.08	-0.10	16.75	10.50	12.00	13.00	6.00	7.50	1.00	2.25	0.75	1.00	0.50	0.50	2.25	2.00	0.50	0.00	-0.147461	0.087402	0.980469	-17.710001	0.770000	-1.470000	892.00	-0.23	-0.06
2.75	3.50	5.00	2.75	4.50	5.50	5.75	3.25	7.25	9.00	8.00	11.25	10.50	12.00	9.00	3.75	5.75	-0.268066	0.085938	0.979004	1.540000	57.119999	-4.060000	1230.00	0.09	-0.10	16.75	10.00	11.75	12.50	6.25	7.50	1.00	2.50	1.00	1.00	0.50	0.25	2.25	2.25	0.75	0.00	-0.147949	0.093750	0.988770	-13.230000	-0.070000	-1.190000	891.00	-0.22	-0.06
2.76	3.00	5.00	2.75	5.00	4.50	5.25	3.00	6.75	9.50	8.25	11.75	10.75	12.25	9.50	4.25	6.00	-0.288086	0.074219	0.976074	2.870000	63.490002	-3.990000	1232.00	0.10	-0.10	16.25	9.75	11.75	12.50	6.25	7.75	1.00	2.75	1.00	1.00	0.75	0.50	2.50	2.25	0.50	0.25	-0.152344	0.107422	0.985840	-10.150000	0.000000	-1.260000	896.00	-0.22	-0.06
2.77	3.25	4.50	1.75	4.25	3.75	4.50	2.75	6.00	9.75	8.50	12.25	11.25	12.25	10.25	4.75	6.00	-0.274902	0.067383	0.995605	6.230000	71.400002	-2.730000	1205.00	0.12	-0.10	15.50	9.50	11.50	12.25	6.25	7.75	1.25	2.75	1.00	1.00	0.50	0.50	3.00	2.50	0.75	0.00	-0.132324	0.097656	0.972656	-7.210000	1.330000	-2.030000	889.00	-0.21	-0.07
2.78	3.25	4.75	2.00	3.50	3.00	4.00	2.50	5.75	10.25	8.50	12.75	11.50	12.50	10.75	5.00	6.50	-0.293945	0.055176	1.003418	16.100000	89.809998	-2.100000	1207.00	0.13	-0.09	14.50	9.25	11.00	12.00	6.25	7.50	1.00	2.75	1.25	1.00	0.25	0.50	3.00	2.50	0.75	0.25	-0.138184	0.112305	0.973633	-6.930000	1.540000	-2.450000	861.00	-0.21	-0.07
2.79	3.00	4.50	2.50	3.25	3.00	3.75	2.25	5.00	10.50	8.50	13.00	12.00	12.50	11.75	5.75	6.75	-0.336426	0.078613	1.022461	21.770000	113.260002	-0.910000	1217.00	0.14	-0.09	13.75	8.75	11.25	11.75	6.50	7.75	1.25	3.25	1.50	1.00	0.25	0.75	3.00	3.00	0.25	0.25	-0.138184	0.101074	0.963379	-7.280000	1.890000	-2.800000	872.00	-0.20	-0.07
2.80	3.25	4.75	2.00	3.50	1.75	3.00	2.00	4.50	10.75	8.75	13.25	11.75	12.50	12.50	5.75	6.75	-0.349609	0.063965	1.042480	26.040001	137.970001	-0.770000	1196.00	0.15	-0.09	12.75	8.50	10.75	11.75	6.50	7.50	1.25	3.25	1.50	1.25	0.50	0.75	3.50	3.00	0.75	0.25	-0.130859	0.104492	0.964844	-8.470000	1.960000	-3.150000	865.00	-0.18	-0.07
2.81	3.00	4.50	1.75	3.75	1.75	3.00	1.75	4.00	11.00	8.75	13.50	12.25	12.25	13.00	6.50	7.00	-0.398438	0.098145	1.027344	29.750000	204.610001	1.400000	1203.00	0.15	-0.08	12.00	8.25	10.50	11.25	6.50	7.50	1.25	3.50	1.50	1.25	0.75	0.75	3.50	3.00	0.75	0.50	-0.138672	0.102051	0.957031	-9.730000	1.890000	-3.640000	853.00	-0.18	-0.08
2.82	2.25	3.50	1.50	3.75	1.50	3.00	1.75	3.75	11.25	8.75	13.75	12.50	12.00	13.75	6.75	7.25	-0.435059	0.157227	1.057129	30.660000	233.940002	1.330000	1192.00	0.17	-0.08	11.50	7.75	10.25	11.00	6.75	7.50	1.25	3.50	1.50	1.25	0.75	1.00	3.75	3.25	1.25	0.50	-0.151367	0.098145	0.978516	-10.080000	0.350000	-3.430000	853.00	-0.16	-0.08
2.83	1.50	3.75	2.00	2.75	1.75	2.00	1.50	3.25	11.25	8.75	13.75	12.75	12.00	14.25	7.25	7.50	-0.496094	0.137695	1.098145	34.720001	258.230011	-0.560000	1174.00	0.18	-0.08	11.25	7.25	10.00	10.75	6.75	7.50	1.25	3.75	1.50	1.00	0.50	0.75	4.50	3.50	1.00	0.50	-0.146973	0.096680	0.969238	-9.590000	0.070000	-3.150000	841.00	-0.16	-0.08
2.84	1.75	3.75	1.50	3.00	1.25	1.75	1.25	2.75	11.25	8.75	13.75	12.75	11.50	14.75	7.50	7.50	-0.596191	0.102539	1.122070	35.910000	277.760010	-3.500000	1155.00	0.19	-0.07	10.00	7.00	10.00	10.50	7.00	7.25	1.50	3.75	1.75	1.50	0.50	0.75	3.75	3.50	0.75	0.50	-0.140137	0.092773	0.968262	-9.240000	-0.140000	-2.870000	825.00	-0.16	-0.07
2.85	2.25	3.50	1.50	1.25	1.25	1.25	1.25	2.75	11.00	8.50	13.75	12.25	11.25	15.25	7.75	7.50	-0.460449	0.099121	0.905273	39.900002	298.339996	-7.630000	1124.00	0.20	-0.07	9.00	6.75	9.50	11.50	8.25	8.00	1.75	5.00	2.25	2.50	1.50	2.00	5.75	5.00	2.25	1.75	-0.145996	0.091309	0.975098	-8.540000	0.070000	-2.730000	967.00	-0.10	-0.09
2.86	2.25	3.75	1.25	2.50	1.00	1.50	1.00	2.75	10.75	8.25	13.50	12.25	10.50	15.50	8.00	7.75	-0.607910	0.239746	1.225098	42.560001	321.720001	-12.250000	1125.00	0.19	-0.07	12.25	7.75	11.25	12.00	8.25	8.75	2.00	5.50	3.75	2.25	1.75	2.00	6.25	5.25	2.25	2.00	-0.138184	0.098633	0.970215	-8.330000	0.770000	-2.520000	1093.00	-0.11	-0.08
2.87	2.00	3.00	0.00	0.00	0.00	0.00	0.50	0.75	9.25	8.00	12.75	11.50	9.75	15.25	8.00	7.75	-0.529297	0.319824	1.181641	47.040001	346.079987	-18.480000	947.00	0.24	-0.06	11.25	7.50	11.00	11.75	8.50	8.50	2.00	5.50	3.75	2.25	1.75	2.25	5.00	5.25	2.25	1.75	-0.139648	0.097168	0.973145	-8.120000	1.330000	-2.450000	1063.00	-0.11	-0.08
2.88	0.00	1.25	0.00	0.75	0.50	0.25	0.50	1.00	8.75	7.50	12.00	10.75	8.25	14.50	7.50	7.00	-0.750977	0.287598	1.335449	36.119999	381.149994	-24.150000	867.00	0.25	-0.06	8.25	6.25	9.00	9.50	7.25	7.50	1.75	5.00	2.25	1.50	0.75	1.25	5.00	5.50	2.50	2.00	-0.141113	0.088379	0.969238	-7.630000	1.960000	-2.660000	879.00	-0.10	-0.09
2.89	0.75	3.25	0.25	2.00	0.50	2.00	0.75	2.00	9.25	7.50	11.25	10.25	7.25	14.00	7.25	7.00	-1.052246	0.256836	1.431152	26.110001	411.600006	-32.130001	931.00	0.21	-0.07	10.00	7.00	10.75	11.50	8.75	7.75	2.00	5.75	4.00	2.50	1.75	2.25	6.75	5.75	2.25	2.00	-0.142578	0.092285	0.964355	-6.440000	3.010000	-2.520000	1065.00	-0.09	-0.08
2.90	0.00	0.00	0.00	0.00	0.00	0.50	0.50	0.25	8.00	7.50	11.25	10.25	7.50	15.75	8.25	7.25	-1.140625	0.255859	1.457031	2.940000	428.540009	-42.560001	820.00	0.28	-0.05	9.75	7.00	10.25	10.00	8.50	7.75	2.00	5.50	2.50	1.50	1.00	1.25	5.25	5.25	1.25	0.75	-0.141113	0.089355	0.964355	-6.090000	3.710000	-2.520000	940.00	-0.12	-0.08
2.91	1.00	2.00	0.00	3.00	0.50	2.25	0.50	1.75	7.50	6.75	10.25	9.50	6.75	15.00	8.00	6.50	-1.299316	0.611816	1.845215	16.730000	441.910004	-47.880001	882.00	0.21	-0.07	7.50	6.00	8.00	9.25	7.75	7.25	2.00	5.25	2.25	2.25	1.00	1.25	5.50	5.25	1.25	2.00	-0.142578	0.086426	0.961426	-5.390000	4.900000	-2.730000	864.00	-0.09	-0.09
2.92	2.00	2.75	0.50	1.50	0.50	2.00	0.50	1.25	6.25	6.00	9.00	8.25	5.50	14.00	7.25	5.75	-1.502441	0.244629	2.101562	28.280001	447.230011	-57.959999	788.00	0.20	-0.06	6.75	4.50	8.00	8.75	7.50	7.25	2.50	5.75	3.75	2.50	1.75	2.25	6.75	5.75	1.50	2.00	-0.140137	0.090332	0.971680	-4.060000	6.230000	-2.800000	911.00	-0.06	-0.09
2.93	0.75	1.25	0.00	0.00	0.00	1.50	0.50	1.00	5.75	5.25	8.25	7.50	5.00	12.50	7.00	5.25	-1.245605	0.268066	2.516602	35.980000	431.410004	-66.360001	661.00	0.25	-0.06	6.00	4.50	9.25	8.00	7.50	7.50	2.50	6.00	3.00	2.25	1.25	1.50	6.25	5.50	1.75	2.25	-0.137695	0.087891	0.972656	-3.150000	8.120000	-3.220000	886.00	-0.07	-0.09
2.94	1.75	2.50	1.00	2.00	0.50	2.50	0.50	1.25	5.25	5.00	7.50	6.50	4.25	10.50	6.25	4.50	-1.151367	0.435059	2.081055	40.180000	413.279999	-75.669998	675.00	0.18	-0.06	6.25	5.25	8.00	7.25	8.25	8.25	2.75	6.25	5.00	3.00	2.50	3.00	8.25	6.25	3.00	2.75	-0.139648	0.085449	0.963379	-2.520000	10.010000	-3.570000	1010.00	-0.03	-0.09
2.95	1.75	2.75	1.25	1.75	0.50	2.50	0.75	1.00	5.00	5.00	6.00	5.50	4.00	8.75	5.75	2.75	-1.075195	0.135254	2.025879	50.610001	407.890015	-87.500000	610.00	0.16	-0.06	6.75	5.50	8.75	9.00	8.50	8.00	2.75	6.00	3.50	3.00	1.75	2.25	7.75	6.25	3.25	2.25	-0.140137	0.085449	0.959961	-1.750000	11.620000	-3.920000	1001.00	-0.05	-0.09
2.96	1.25	2.75	1.00	1.50	0.50	2.25	0.75	1.50	4.25	4.50	5.25	4.75	4.25	7.25	4.50	2.50	-0.552246	0.418457	1.604004	59.709999	382.480011	-108.150002	543.00	0.15	-0.07	6.50	5.00	8.25	8.00	8.25	8.25	2.75	6.50	6.25	3.50	3.25	3.75	9.00	6.75	3.00	2.50	-0.166504	0.090820	0.958496	-0.630000	13.230000	-3.640000	1077.00	-0.02	-0.08
2.97	1.50	2.25	1.25	1.50	0.25	2.00	0.50	1.50	3.75	4.25	4.25	4.00	4.25	5.75	3.00	2.00	0.166992	0.285156	1.628906	37.240002	378.910004	-130.830002	469.00	0.14	-0.08	5.75	3.75	6.75	7.50	8.25	8.00	2.75	6.25	6.25	3.00	3.00	3.00	9.00	6.00	2.50	2.25	-0.148926	0.083496	0.963379	0.630000	14.980000	-3.220000	994.00	-0.01	-0.09
2.98	0.75	1.50	0.50	0.75	0.25	1.25	0.75	0.75	2.25	3.00	2.75	2.50	2.00	4.00	1.50	0.75	0.467285	0.196777	2.113281	-1.890000	357.839996	-147.000000	286.00	0.14	-0.05	5.00	4.25	6.25	7.25	7.50	7.25	2.75	6.25	6.00	3.50	3.25	4.00	9.50	7.00	2.75	3.00	-0.147949	0.087891	0.975586	1.890000	16.870001	-2.800000	1001.00	0.00	-0.09
2.99	0.75	1.25	1.00	1.25	0.50	1.50	0.75	1.00	2.50	2.75	2.00	1.75	2.25	3.00	1.50	1.00	0.073242	1.012695	1.600098	-85.889999	308.630005	-141.470001	283.00	0.11	-0.06	2.00	2.50	5.50	5.75	6.75	6.50	2.75	6.00	5.75	3.00	3.00	3.50	9.00	6.25	2.50	2.50	-0.156250	0.083496	0.962891	2.870000	19.320000	-2.520000	865.00	0.03	-0.10
3.00	0.75	1.75	1.00	1.50	0.25	1.75	1.00	1.25	2.50	2.75	2.25	1.75	2.00	1.75	1.25	1.00	0.806641	1.256348	4.707031	-65.099998	106.610001	-96.040001	286.00	0.08	-0.07	3.00	2.75	5.00	5.50	6.50	6.25	2.50	6.00	6.00	3.25	3.75	4.00	9.25	6.50	2.25	2.75	-0.150879	0.088379	0.975098	3.570000	21.980000	-2.380000	883.00	0.03	-0.10
3.01	1.00	1.50	0.25	1.50	0.25	1.50	1.00	1.25	2.50	2.50	1.75	1.75	1.75	1.75	0.75	1.00	0.849121	0.686035	2.236816	-41.580002	-63.349998	-63.490002	257.00	0.08	-0.07	2.50	2.50	4.50	5.00	6.25	6.25	2.50	6.00	6.50	3.50	5.25	4.75	9.50	6.75	2.50	3.00	-0.166504	0.099609	0.974121	4.270000	27.020000	-2.800000	905.00	0.05	-0.10
3.02	0.75	2.00	0.50	1.50	0.50	1.75	0.75	1.00	2.50	2.50	2.00	1.25	1.75	2.00	1.00	1.00	0.531738	0.499512	1.518555	-31.290001	-144.410004	-49.209999	262.00	0.08	-0.07	2.50	1.75	3.50	4.75	5.50	5.50	2.50	6.00	6.75	3.75	6.00	5.75	9.75	7.25	2.75	3.75	-0.168945	0.096680	0.970215	4.410000	29.540001	-3.220000	905.00	0.07	-0.10
3.03	0.75	2.25	1.25	1.75	0.50	1.25	1.00	1.25	2.50	2.50	2.00	1.50	2.25	2.00	1.00	1.00	0.409668	0.369141	0.851074	-27.510000	-157.430008	-46.200001	287.00	0.06	-0.07	2.25	1.75	3.25	3.75	5.00	5.50	2.50	5.75	7.25	4.25	7.50	7.00	10.25	7.50	3.00	4.00	-0.174805	0.094727	0.980957	5.110000	31.850000	-3.500000	933.00	0.09	-0.10
3.04	1.50	2.25	1.25	1.50	0.75	2.00	1.00	1.75	2.25	2.25	1.75	1.25	2.50	2.00	1.50	1.00	0.394531	0.369629	0.783203	-29.469999	-151.550003	-45.990002	309.00	0.04	-0.08	2.00	1.75	2.75	3.00	4.25	5.00	2.50	5.75	7.50	4.75	7.75	7.75	10.75	8.00	3.50	4.50	-0.169434	0.081543	1.032227	6.440000	35.349998	-3.850000	939.00	0.11	-0.10
3.05	1.00	2.25	1.00	1.75	0.50	2.00	1.00	1.50	2.50	2.50	1.50	1.25	2.75	2.00	1.00	1.00	0.359863	0.434570	0.937988	-32.549999	-157.430008	-42.490002	296.00	0.05	-0.08	1.25	1.25	1.75	2.50	3.25	4.00	2.25	5.75	7.75	5.25	8.50	8.25	11.00	8.25	4.00	5.00	-0.188965	0.107910	0.990234	8.330000	39.060001	-3.640000	916.00	0.14	-0.11
3.06	1.50	2.25	1.75	1.50	0.50	2.25	0.75	1.50	1.75	1.75	1.00	1.00	2.25	2.00	1.00	1.00	0.365723	0.513184	1.124512	-30.730000	-178.430008	-32.270000	274.00	0.01	-0.09	1.25	1.00	1.50	2.25	2.50	3.00	2.00	5.50	7.75	5.25	9.00	8.75	11.50	8.75	5.00	5.25	-0.190430	0.125488	0.985352	10.150000	43.400002	-4.550000	912.00	0.16	-0.11
3.07	1.25	2.75	1.50	2.00	0.50	2.00	1.00	1.50	1.75	1.75	1.25	0.75	2.25	1.50	1.50	1.00	0.388672	0.506348	1.250488	-28.770000	-209.930008	-15.610000	281.00	0.01	-0.09	0.75	1.25	0.75	2.25	1.75	2.75	2.00	5.25	8.00	6.25	9.50	9.25	11.75	9.25	4.75	5.50	-0.179688	0.111816	1.009766	13.790000	49.770000	-6.230000	916.00	0.17	-0.11
3.08	1.25	2.00	1.75	1.75	0.75	2.50	1.00	1.25	2.25	1.75	1.25	1.00	2.25	1.75	1.00	1.00	0.346680	0.491211	1.292969	-30.730000	-245.770004	4.830000	285.00	0.02	-0.07	0.75	1.25	1.00	1.25	1.25	0.75	1.75	4.25	8.00	6.50	10.00	9.75	12.00	9.50	5.00	6.25	-0.184570	0.124512	0.977539	18.129999	61.740002	-5.250000	883.00	0.19	-0.10
3.09	1.25	2.25	1.00	2.00	0.75	1.75	0.75	1.25	2.00	2.00	1.25	1.00	2.50	1.75	0.75	0.75	0.272461	0.485840	1.228516	-33.389999	-278.320007	26.040001	266.00	0.02	-0.09	0.50	0.75	0.75	1.50	0.75	1.00	1.50	4.00	8.25	6.75	10.25	10.25	12.25	10.00	5.75	7.25	-0.222168	0.114746	1.027832	23.170000	76.370003	-5.320000	900.00	0.21	-0.10
3.10	1.25	2.50	1.25	1.75	0.50	2.00	1.00	1.25	2.25	1.75	1.00	1.00	2.25	1.75	1.25	1.00	0.046875	0.479980	1.148926	-31.290001	-303.589996	45.570000	275.00	0.02	-0.08	1.00	0.75	0.75	1.75	0.50	1.00	1.50	3.25	8.50	7.00	10.75	10.50	12.50	10.50	6.50	7.50	-0.267090	0.109375	1.026367	27.860001	95.129997	-4.970000	925.00	0.21	-0.10
3.11	1.00	2.75	1.00	2.00	0.50	2.00	1.00	1.50	2.00	1.75	1.00	0.50	2.25	1.50	1.00	0.50	-0.102051	0.393555	1.015625	-7.280000	-333.200012	75.739998	262.00	0.01	-0.09	0.50	0.75	0.25	1.00	0.50	0.50	1.00	2.25	8.50	6.75	11.00	11.00	12.50	11.00	7.50	8.00	-0.279297	0.132324	1.062500	34.230000	116.690002	-4.760000	899.00	0.23	-0.10
3.12	1.50	2.75	1.50	2.00	0.50	2.25	0.75	1.25	1.75	1.75	1.00	0.50	2.00	1.75	0.75	1.00	-0.213379	0.311035	1.019531	7.560000	-339.570007	85.470001	265.00	-0.01	-0.08	0.00	0.75	0.25	1.00	0.25	0.75	1.00	1.50	8.50	7.00	11.50	11.25	12.50	11.50	7.75	8.50	-0.257812	0.151367	1.121094	41.720001	143.080002	-6.370000	903.00	0.24	-0.09
3.13	1.25	2.25	1.25	1.75	0.75	2.25	1.00	1.25	1.75	2.00	1.00	0.75	2.00	2.00	0.75	0.75	-0.300781	0.196289	1.077148	18.760000	-342.929993	90.790001	264.00	0.01	-0.07	0.25	0.75	0.00	1.00	0.25	0.25	0.75	1.25	8.50	7.25	11.50	12.00	13.50	14.25	9.25	9.25	-0.350098	0.187988	1.132324	52.360001	209.440002	-12.670000	956.00	0.25	-0.09
3.14	1.25	2.25	1.25	1.75	0.50	2.25	1.00	1.25	2.00	1.50	0.75	0.75	2.25	1.75	1.00	0.75	-0.372070	0.096191	1.183105	25.270000	-346.220001	90.650002	259.00	0.01	-0.08	0.50	1.75	0.00	0.25	0.00	0.25	0.50	1.25	8.50	7.00	11.75	11.25	13.25	13.50	8.75	9.00	-0.391602	0.154785	1.042480	55.439999	238.070007	-16.940001	928.00	0.25	-0.09
3.15	1.00	3.00	1.50	1.75	0.50	2.00	0.75	1.25	2.00	1.75	0.50	0.50	2.50	1.50	0.75	0.75	-0.450195	0.001953	1.301758	29.260000	-351.190002	84.139999	254.00	-0.01	-0.09	2.00	0.75	0.50	0.00	0.00	0.50	0.25	1.00	8.75	7.25	12.75	11.50	11.25	13.00	9.00	9.25	-0.428223	0.246582	1.147461	57.189999	257.459991	-21.490000	934.00	0.24	-0.08
3.16	1.50	2.50	1.50	1.75	0.50	2.00	0.75	1.25	1.75	1.75	0.50	0.75	2.00	1.75	1.00	0.75	-0.562012	-0.048340	1.437988	34.369999	-358.190002	71.750000	255.00	-0.01	-0.08	2.00	0.25	0.00	0.50	0.00	0.25	0.25	0.75	8.00	6.75	12.00	11.75	11.25	15.25	10.50	10.00	-0.506836	0.220215	1.237305	57.400002	273.209991	-26.180000	942.00	0.26	-0.08
3.17	1.25	2.50	1.00	1.75	0.50	1.75	0.75	1.00	1.75	1.25	0.75	0.50	1.75	1.75	0.75	0.50	-0.677734	-0.066895	1.521484	41.509998	-366.309998	56.070000	226.00	-0.01	-0.07	0.25	0.25	0.00	0.00	0.00	0.00	0.00	0.00	8.25	6.00	11.50	11.00	10.25	13.75	9.75	9.75	-0.012207	0.616211	1.527344	57.189999	292.179993	-29.540001	844.00	0.28	-0.08
3.18	1.00	2.25	1.25	1.75	0.50	2.25	1.00	1.50	1.75	1.50	0.75	0.50	2.25	1.75	1.00	0.75	-0.775879	-0.099609	1.488770	49.279999	-372.190002	40.810001	254.00	0.01	-0.09	0.25	0.00	0.00	0.25	0.00	0.00	0.00	0.25	6.75	5.50	11.50	10.50	10.00	14.00	10.25	10.50	-0.610840	0.541504	1.376465	51.450001	311.429993	-36.540001	826.00	0.28	-0.09
3.19	1.25	2.25	1.25	1.75	0.50	2.00	0.75	1.25	2.00	1.25	0.75	0.50	2.00	2.00	0.25	1.00	-0.920410	-0.125488	1.415527	56.700001	-370.579987	26.880001	239.00	-0.00	-0.08	0.50	0.25	0.00	0.00	0.00	0.00	0.00	1.00	7.25	5.75	11.00	10.00	8.75	13.75	10.75	10.25	-1.013672	-0.228027	1.545898	45.080002	330.820007	-45.779999	829.00	0.28	-0.08
3.20	1.00	2.50	1.25	2.00	0.50	1.50	1.00	1.25	2.00	1.00	0.75	0.75	1.75	1.25	0.75	0.50	-1.101074	-0.142578	1.399414	64.889999	-359.730011	13.160000	234.00	-0.01	-0.08	0.00	1.00	1.00	0.50	0.25	0.25	0.00	0.50	6.50	6.00	11.00	10.25	9.25	16.00	11.75	10.50	-0.940918	0.627441	1.516602	37.939999	363.230011	-52.570000	881.00	0.27	-0.08
3.21	1.00	2.00	1.50	1.75	0.50	1.75	0.75	1.75	2.25	1.25	0.50	0.75	1.50	1.75	0.75	0.50	-1.196289	-0.116699	1.448242	75.110001	-343.489990	-1.680000	242.00	0.01	-0.07	0.00	0.00	1.25	1.25	0.25	0.75	0.00	1.00	5.75	5.25	10.25	9.25	8.00	13.25	9.75	9.00	-1.132324	0.437988	1.876953	35.630001	384.510010	-57.540001	788.00	0.26	-0.09
3.22	1.25	2.50	1.25	1.75	0.25	2.00	0.75	1.00	1.50	1.25	0.50	0.50	2.00	1.75	1.00	0.75	-1.225098	-0.020508	1.590820	85.050003	-327.950012	-14.280000	230.00	-0.01	-0.09	0.00	0.25	0.00	0.00	0.25	1.50	0.00	1.00	5.25	5.00	9.00	8.25	7.50	15.00	10.75	9.25	-1.137695	0.288086	1.403809	34.020000	415.450012	-63.000000	758.00	0.28	-0.08
3.23	1.50	2.50	0.75	1.75	0.50	1.75	0.75	1.25	1.75	1.25	0.75	0.75	1.75	1.75	0.75	0.50	-1.191406	0.090820	1.862305	88.760002	-317.940002	-22.960001	233.00	-0.01	-0.08	1.75	1.25	1.00	0.50	0.50	1.25	0.00	0.75	5.00	4.25	7.75	7.25	6.25	13.75	9.75	8.25	-1.352051	0.730957	1.835449	36.680000	433.929993	-73.919998	723.00	0.24	-0.07
3.24	1.25	2.00	0.75	1.25	0.25	1.25	0.75	1.00	1.25	1.00	0.25	0.00	0.50	1.00	0.50	0.25	-1.201660	0.274414	2.099121	86.660004	-317.799988	-24.430000	159.00	-0.05	-0.05	0.00	0.00	0.00	0.00	0.00	0.00	0.00	0.00	2.25	2.75	5.00	6.00	2.50	10.00	7.50	6.00	-1.409668	0.677246	2.522461	48.369999	439.250000	-86.029999	428.00	0.31	-0.07
3.25	0.00	0.00	0.00	0.00	0.00	0.00	0.75	0.00	0.00	0.00	0.00	0.00	0.00	0.00	0.00	0.00	-1.403320	0.722168	2.115234	89.389999	-330.399994	3.780000	12.00	0.00	0.00	2.00	1.00	0.00	0.75	0.50	1.25	0.00	0.00	3.75	3.75	5.00	5.25	2.50	9.50	6.25	5.00	-0.943848	0.360840	2.182617	34.650002	427.559998	-111.090004	490.00	0.23	-0.05
3.26	0.00	0.00	0.00	0.00	0.00	0.00	0.50	0.00	0.00	0.00	0.00	0.00	0.00	0.00	0.00	0.00	-1.554688	0.809082	2.003906	99.470001	-331.869995	31.570000	8.00	0.00	0.00	0.00	0.00	0.00	0.00	0.00	0.25	0.00	0.00	1.25	1.75	2.50	2.75	0.75	7.25	5.75	4.75	-0.816406	0.643555	2.416504	18.830000	422.380005	-123.970001	270.00	0.33	-0.05
3.27	0.00	0.00	0.00	0.00	0.00	0.00	0.50	0.00	0.00	0.00	0.00	0.00	0.00	0.00	0.00	0.00	-1.732910	0.756348	1.907227	113.820000	-328.299988	62.369999	8.00	0.00	0.00	0.00	0.75	0.50	0.00	0.00	2.00	0.00	0.00	2.50	2.25	3.00	2.50	1.50	6.00	5.00	2.50	-0.324707	0.801758	2.086426	22.330000	412.860016	-127.260002	304.00	0.25	-0.05
3.28	0.00	0.00	0.00	0.00	0.00	0.00	0.75	0.00	0.00	0.25	0.00	0.00	0.00	0.00	0.00	0.00	-1.930176	0.617676	1.803223	129.639999	-319.410004	90.650002	15.00	0.00	0.00	0.00	0.00	0.00	0.00	0.00	0.00	0.00	0.00	0.50	1.75	1.75	2.50	2.00	4.00	2.00	0.75	-0.171875	0.462402	1.626953	39.549999	397.670013	-130.339996	159.00	0.29	-0.08
3.29	0.00	0.00	0.00	0.00	0.00	0.00	0.50	0.00	0.00	0.00	0.00	0.00	0.00	0.00	0.00	0.00	-2.171387	0.364258	1.649414	144.059998	-306.179993	113.330002	8.00	0.00	0.00	0.00	0.00	0.00	0.00	0.00	0.00	0.00	0.00	0.00	1.00	1.25	1.50	0.75	1.75	1.25	0.25	0.317871	0.501953	1.588867	47.459999	385.350006	-140.210007	82.00	0.29	-0.10
3.30	0.00	0.00	0.00	0.00	0.00	0.00	0.50	0.00	0.00	0.00	0.00	0.00	0.00	0.00	0.00	0.00	-2.414062	0.060059	1.506836	151.690002	-289.309998	126.910004	8.00	0.00	0.00	0.00	0.00	0.00	0.00	0.00	0.00	0.00	0.00	0.00	0.75	0.75	1.00	0.50	0.75	0.50	0.00	0.305664	0.454590	1.969727	49.560001	348.110016	-146.789993	46.00	0.00	0.00
3.31	0.00	0.00	0.00	0.00	0.00	0.00	0.50	0.00	0.00	0.00	0.00	0.00	0.00	0.25	0.00	0.00	-2.667969	-0.247070	1.268066	143.570007	-267.959991	130.410004	11.00	0.00	0.00	0.00	0.00	0.00	0.00	0.00	0.00	0.00	0.00	0.00	1.00	1.00	0.75	0.25	0.25	0.50	0.00	0.011230	1.266113	2.763672	-3.290000	271.320007	-119.629997	42.00	0.00	0.00
3.32	0.75	1.50	0.50	1.50	0.25	1.25	0.75	0.75	0.75	0.75	0.50	0.50	0.75	1.00	0.50	0.25	-2.858398	-0.405273	0.874512	110.459999	-241.149994	123.410004	145.00	-0.02	-0.08	0.00	0.00	0.00	0.00	0.00	0.25	0.00	0.00	0.00	1.00	0.75	0.50	0.50	0.00	0.25	0.00	1.314941	1.103516	4.127930	-15.680000	65.309998	-59.010002	36.00	0.00	0.00
3.33	0.25	2.00	1.00	1.50	0.50	2.00	0.75	1.00	1.75	0.75	0.25	0.50	1.25	1.25	0.50	0.50	-3.011230	-0.337891	0.456543	66.919998	-208.039993	107.870003	186.00	-0.01	-0.08	0.00	0.00	0.00	0.00	0.00	0.00	0.00	0.00	0.00	1.00	0.50	0.50	0.00	0.00	0.00	0.00	1.008789	0.477539	2.233887	-46.130001	-94.430000	-18.690001	23.00	0.00	0.00
3.34	1.00	2.00	1.25	1.50	0.25	1.75	0.75	1.00	1.25	0.50	0.50	0.50	1.50	0.75	0.75	0.50	-3.120605	-0.143066	0.065430	38.220001	-168.559998	87.220001	185.00	-0.04	-0.10	0.00	0.00	0.00	0.00	0.00	0.00	0.00	0.00	0.00	0.25	0.50	0.25	0.00	0.00	0.00	0.00	0.694336	0.416504	1.540527	-64.050003	-166.880005	-6.580000	11.00	0.00	0.00
3.35	0.50	1.75	0.50	1.50	0.25	1.75	0.75	1.00	1.25	0.75	0.50	0.50	1.50	1.00	0.50	0.50	-3.175781	-0.050293	-0.255859	38.849998	-125.160004	66.779999	170.00	-0.00	-0.11	0.00	0.00	0.00	0.00	0.00	0.00	0.00	0.00	0.00	0.50	0.25	0.25	0.00	0.00	0.00	0.00	0.615234	0.339355	0.937012	-53.340000	-184.309998	-12.950000	11.00	0.00	0.00
3.36	0.50	2.00	1.00	2.00	0.50	1.50	0.75	0.75	0.75	0.75	0.50	0.50	1.50	1.25	0.75	0.50	-3.278809	-0.206543	-0.457031	64.050003	-80.709999	50.470001	179.00	-0.02	-0.10	0.00	0.00	0.00	0.00	0.00	0.00	0.00	0.00	0.00	0.50	0.25	0.00	0.00	0.00	0.00	0.00	0.541016	0.362793	0.776855	-33.459999	-188.860001	-25.340000	9.00	0.00	0.00
3.37	0.75	2.00	0.75	1.75	0.25	1.50	0.75	1.00	1.25	1.25	0.50	0.50	1.25	0.75	0.75	0.50	-3.561035	-0.495117	-0.454102	91.910004	-36.049999	34.160000	183.00	-0.01	-0.09	0.00	0.00	0.00	0.00	0.00	0.00	0.00	0.00	0.00	0.50	0.25	0.00	0.00	0.00	0.00	0.00	0.452637	0.386719	0.997559	-0.000000	-218.889999	-35.700001	9.00	0.00	0.00
3.38	0.75	2.00	1.00	1.75	0.25	1.75	0.75	0.75	1.00	0.75	0.75	0.50	1.00	1.00	0.75	0.25	-3.588379	-0.687988	-0.533203	81.340004	10.080000	15.470000	176.00	-0.03	-0.09	0.00	0.00	0.00	0.00	0.00	0.00	0.00	0.00	0.00	0.25	0.00	0.00	0.00	0.00	0.00	0.00	0.434570	0.428223	1.105957	-0.000000	-244.020004	-29.190001	3.00	0.00	0.00
3.39	0.50	2.25	0.75	1.50	0.50	1.75	0.75	1.25	1.25	1.00	0.50	0.50	1.50	1.00	0.50	0.50	-3.288086	-0.551758	-0.428711	39.830002	59.290001	0.980000	188.00	-0.02	-0.11	0.00	0.00	0.00	0.00	0.00	0.00	0.00	0.00	0.00	0.25	0.00	0.00	0.00	0.00	0.00	0.00	0.355469	0.507812	1.208496	-8.330000	-271.670013	-15.190001	3.00	0.00	0.00
3.40	0.25	0.50	0.00	0.00	0.00	0.00	0.25	0.00	0.00	0.00	0.00	0.00	0.00	0.00	0.00	0.00	-0.259766	0.880371	0.499023	-132.860001	249.970001	-15.820000	12.00	0.00	0.00	0.00	0.00	0.00	0.00	0.00	0.00	0.00	0.00	0.00	0.25	0.00	0.00	0.00	0.00	0.00	0.00	0.279785	0.558105	1.204102	-18.830000	-299.459991	4.620000	3.00	0.00	0.00
3.41	0.00	0.00	0.00	0.00	0.00	0.00	0.25	0.00	0.00	0.00	0.00	0.00	0.00	0.00	0.00	0.00	0.081055	0.263184	2.814453	-129.850006	188.930008	-2.380000	4.00	0.00	0.00	0.00	0.00	0.00	0.00	0.00	0.00	0.00	0.00	0.00	0.00	0.00	0.00	0.00	0.00	0.00	0.00	0.173828	0.601562	1.159180	-27.370001	-322.070007	26.040001	0.00	0.00	0.00
3.42	0.00	0.50	0.00	1.00	0.00	0.00	0.25	0.00	0.00	0.00	0.00	0.00	0.00	0.00	0.00	0.00	-0.001953	-0.216797	0.570801	-176.259995	146.369995	2.590000	21.00	0.00	0.00	0.00	0.00	0.00	0.00	0.00	0.00	0.00	0.00	0.00	0.00	0.00	0.00	0.00	0.00	0.00	0.00	0.054688	0.639160	1.122070	-29.049999	-338.730011	46.759998	0.00	0.00	0.00
3.43	1.25	3.25	0.25	2.50	0.00	0.00	0.25	0.00	0.00	0.00	0.00	0.00	0.00	0.00	0.00	0.00	0.127930	-0.201172	0.795410	-189.699997	202.020004	-6.020000	84.00	-0.34	-0.11	0.00	0.00	0.00	0.00	0.00	0.00	0.00	0.00	0.00	0.00	0.00	0.00	0.00	0.00	0.00	0.00	-0.069824	0.645508	1.109863	-22.680000	-351.049988	65.169998	0.00	0.00	0.00
3.44	3.50	5.25	1.25	4.00	0.00	0.00	0.25	0.00	0.00	0.00	0.00	0.00	0.00	0.00	0.00	0.00	-0.401367	-0.109375	1.872559	-150.500000	251.089996	-3.570000	160.00	-0.35	-0.08	0.00	0.00	0.00	0.00	0.00	0.00	0.00	0.00	0.00	0.25	0.00	0.00	0.00	0.00	0.00	0.00	-0.193848	0.621094	1.145020	-10.570000	-360.500000	79.940002	3.00	0.00	0.00
3.45	7.00	7.75	2.00	5.50	0.00	0.00	0.25	0.00	0.00	0.00	0.00	0.00	0.00	0.00	0.00	0.00	-0.595703	-0.704590	2.110840	-119.139999	236.180008	-12.530000	252.00	-0.36	-0.06	0.00	0.00	0.00	0.00	0.00	0.00	0.00	0.00	0.00	0.00	0.00	0.00	0.00	0.00	0.00	0.00	-0.346191	0.562500	1.119629	3.150000	-368.200012	90.300003	0.00	0.00	0.00
3.46	8.50	8.75	3.50	6.00	0.00	0.00	0.25	0.00	0.00	0.00	0.00	0.00	0.00	0.00	0.00	0.00	-0.594238	-0.271973	1.958008	-97.930000	218.960007	-33.599998	303.00	-0.35	-0.05	0.00	0.00	0.00	0.00	0.00	0.00	0.00	0.00	0.00	0.00	0.00	0.00	0.00	0.00	0.00	0.00	-0.479492	0.498535	1.130371	16.240000	-371.489990	96.250000	0.00	0.00	0.00
3.47	12.00	9.75	5.00	7.75	0.25	0.00	0.25	0.00	0.00	0.00	0.00	0.00	0.00	0.00	0.00	0.00	-0.526367	0.121582	1.813965	-57.750000	213.080002	-38.639999	395.00	-0.35	-0.04	0.00	0.00	0.00	0.00	0.00	0.00	0.00	0.00	0.00	0.00	0.00	0.00	0.00	0.00	0.00	0.00	-0.590820	0.425781	1.168945	27.160000	-369.529999	98.209999	0.00	0.00	0.00
3.48	11.50	10.25	6.25	8.50	0.50	1.50	0.25	0.00	0.00	0.00	0.00	0.00	0.00	0.00	0.00	0.00	-0.791016	0.218262	3.010742	-23.870001	225.190002	-26.740000	439.00	-0.34	-0.05	0.00	0.00	0.00	0.00	0.00	0.00	0.00	0.00	0.00	0.00	0.00	0.00	0.00	0.00	0.00	0.00	-0.663086	0.334961	1.225098	33.180000	-364.279999	97.440002	0.00	0.00	0.00
3.49	11.50	11.00	7.75	9.00	1.75	3.25	0.50	0.25	0.00	0.00	0.00	0.25	0.25	0.00	0.00	0.00	-0.543945	0.200195	2.007324	-19.460001	170.520004	-15.750000	521.00	-0.31	-0.06	0.00	0.00	0.00	0.00	0.00	0.00	0.00	0.00	0.00	0.00	0.00	0.00	0.00	0.00	0.00	0.00	-0.812500	0.192383	1.443848	30.730000	-353.079987	88.830002	0.00	0.00	0.00
3.50	11.75	11.00	7.75	9.75	2.25	5.00	0.50	0.75	0.00	0.00	0.00	0.00	0.50	0.00	0.00	0.00	-0.442871	0.294434	1.616699	-61.950001	110.949997	-9.800000	567.00	-0.30	-0.07	0.00	0.00	0.00	0.00	0.00	0.00	0.00	0.00	0.00	0.00	0.00	0.00	0.00	0.00	0.00	0.00	-0.887207	0.166016	1.594727	29.260000	-351.260010	78.330002	0.00	0.00	0.00
3.51	11.50	10.75	8.00	9.50	2.50	5.50	0.75	1.25	0.00	0.25	0.50	1.50	1.50	0.75	0.50	0.25	-0.349121	0.160156	1.365234	-85.959999	61.180000	-2.800000	633.00	-0.25	-0.08	0.00	0.00	0.00	0.00	0.00	0.00	0.00	0.00	0.00	0.00	0.00	0.00	0.00	0.00	0.00	0.00	-0.996582	0.172852	1.729492	34.720001	-353.010010	62.439999	0.00	0.00	0.00
3.52	12.25	12.00	8.75	10.00	3.00	6.50	0.75	2.25	0.75	1.50	1.25	0.75	3.50	1.25	0.50	0.75	-0.270508	0.074219	1.129883	-76.300003	31.990000	-0.770000	755.00	-0.21	-0.09	0.00	0.00	0.00	0.00	0.00	0.00	0.00	0.00	0.00	0.00	0.00	0.00	0.00	0.00	0.00	0.00	-1.078613	0.166016	1.778809	45.849998	-356.510010	43.259998	0.00	0.00	0.00
3.53	14.75	10.75	8.50	10.00	5.00	8.50	1.25	3.75	1.75	1.25	1.25	1.50	1.75	1.25	0.75	0.75	-0.245117	0.122070	1.024414	-57.750000	19.180000	-0.630000	855.00	-0.20	-0.08	0.00	0.00	0.00	0.00	0.00	0.00	0.00	0.00	0.00	0.00	0.00	0.00	0.00	0.00	0.00	0.00	-1.154297	0.185547	1.786133	58.099998	-357.910004	23.799999	0.00	0.00	0.00
3.54	16.50	13.25	10.00	11.75	5.75	8.75	1.25	4.25	1.75	1.25	1.50	1.50	4.00	1.25	0.75	0.75	-0.246094	0.127930	1.009277	-44.029999	11.270000	0.070000	984.00	-0.20	-0.09	0.00	0.00	0.00	0.00	0.00	0.00	0.00	0.00	0.00	0.00	0.00	0.00	0.00	0.00	0.00	0.00	-1.207031	0.220703	1.786621	69.930000	-354.899994	8.050000	0.00	0.00	0.00
3.55	16.25	13.50	10.00	11.75	6.00	9.00	1.25	4.50	1.50	1.50	1.50	1.50	4.25	1.75	0.75	1.00	-0.190430	0.099609	0.971680	-28.910000	7.210000	-1.050000	1001.00	-0.19	-0.09	0.00	0.00	0.00	0.00	0.00	0.00	0.00	0.00	0.00	0.00	0.00	0.00	0.00	0.00	0.00	0.00	-1.254395	0.257324	1.808105	81.340004	-347.410004	-2.590000	0.00	0.00	0.00
3.56	16.25	13.50	10.00	11.75	6.25	9.25	1.50	5.00	1.75	1.75	1.75	1.75	4.75	1.50	0.75	1.00	-0.198242	0.084961	0.969727	-25.200001	6.930000	-1.470000	1034.00	-0.18	-0.09	0.00	0.00	0.00	0.00	0.00	0.00	0.00	0.00	0.00	0.00	0.00	0.00	0.00	0.00	0.00	0.00	-1.278320	0.306152	1.812500	91.980003	-337.190002	-6.720000	0.00	0.00	0.00
3.57	16.00	13.25	10.50	11.75	6.50	9.25	1.50	5.00	2.00	2.00	1.75	1.75	4.50	1.75	1.00	0.75	-0.208496	0.073730	0.974121	-21.000000	5.040000	-1.750000	1046.00	-0.18	-0.09	0.00	0.00	0.00	0.00	0.00	0.00	0.00	0.00	0.00	0.00	0.00	0.00	0.00	0.00	0.00	0.00	-1.274902	0.368652	1.841797	100.099998	-324.589996	-3.640000	0.00	0.00	0.00
3.58	15.50	12.75	9.50	11.50	6.75	9.50	1.50	5.25	2.00	1.75	1.75	1.75	5.00	1.50	1.00	1.00	-0.196777	0.064941	0.958496	-16.940001	3.220000	-1.890000	1031.00	-0.17	-0.10	0.00	0.00	0.00	0.00	0.00	0.00	0.00	0.00	0.00	0.00	0.00	0.00	0.00	0.00	0.00	0.00	-1.250488	0.413574	1.907227	105.840004	-311.429993	6.860000	0.00	0.00	0.00
3.59	15.25	12.75	10.00	11.50	7.00	9.75	1.50	5.25	2.25	1.75	1.75	1.75	5.00	1.75	1.00	1.00	-0.189453	0.067871	0.959473	-13.510000	2.450000	-1.330000	1046.00	-0.17	-0.09	0.00	0.00	0.00	0.00	0.00	0.00	0.00	0.00	0.00	0.00	0.00	0.00	0.00	0.00	0.00	0.00	-1.225586	0.414551	2.010254	110.389999	-301.209991	23.590000	0.00	0.00	0.00
3.60	15.50	12.75	10.00	11.50	7.25	9.75	1.50	5.50	2.00	2.00	1.75	2.00	5.25	1.75	1.00	1.00	-0.194824	0.057129	0.975586	-10.150000	1.820000	-0.840000	1061.00	-0.17	-0.10	0.00	0.00	0.00	0.00	0.00	0.00	0.00	0.00	0.00	0.00	0.00	0.00	0.00	0.00	0.00	0.00	-1.245117	0.337891	2.030762	112.419998	-295.959991	43.820000	0.00	0.00	0.00
3.61	14.75	12.50	10.00	11.50	7.50	9.75	1.75	5.75	2.00	2.00	2.00	1.75	5.25	1.75	1.25	1.00	-0.197754	0.067871	0.968262	-7.000000	1.960000	-0.350000	1064.00	-0.16	-0.10	0.00	0.00	0.00	0.00	0.00	0.00	0.00	0.00	0.00	0.00	0.00	0.00	0.00	0.00	0.00	0.00	-1.513672	0.018066	1.803223	105.489998	-284.829987	85.470001	0.00	0.00	0.00
3.62	14.50	12.00	10.00	11.50	7.50	10.00	1.75	6.00	2.00	2.25	2.00	2.00	5.50	1.75	1.00	1.00	-0.193848	0.062500	0.959473	-4.200000	3.290000	0.210000	1068.00	-0.16	-0.10	0.00	0.00	0.00	0.00	0.00	0.00	0.00	0.00	0.00	0.00	0.00	0.00	0.00	0.00	0.00	0.00	-1.678223	-0.143555	1.648438	94.849998	-270.480011	103.809998	0.00	0.00	0.00
3.63	14.00	11.75	9.75	11.25	7.75	9.75	2.00	6.25	2.25	2.00	2.00	2.00	5.50	2.00	1.25	1.25	-0.181152	0.070312	0.953613	-2.240000	5.320000	0.350000	1070.00	-0.15	-0.10	0.00	0.00	0.00	0.00	0.00	0.00	0.00	0.00	0.00	0.00	0.00	0.00	0.00	0.00	0.00	0.00	-1.856445	-0.227051	1.501465	73.639999	-252.279999	120.120003	0.00	0.00	0.00
3.64	13.50	11.50	9.75	11.25	7.75	10.00	1.75	6.50	2.75	2.00	2.00	2.25	6.00	1.75	1.25	1.50	-0.177734	0.084473	0.943359	-1.330000	7.070000	0.210000	1078.00	-0.15	-0.10	0.00	0.00	0.00	0.00	0.00	0.00	0.00	0.00	0.00	0.00	0.00	0.00	0.00	0.00	0.00	0.00	-2.069824	-0.183105	1.282227	46.340000	-233.660004	133.559998	0.00	0.00	0.00
3.65	13.00	11.25	9.50	11.00	7.75	10.00	1.75	6.75	2.25	2.50	2.00	2.25	6.00	2.25	1.25	1.25	-0.182129	0.087402	0.949219	-2.100000	8.470000	-0.280000	1070.00	-0.14	-0.10	0.00	0.00	0.00	0.00	0.00	0.00	0.00	0.00	0.00	0.00	0.00	0.00	0.00	0.00	0.00	0.00	-2.324219	-0.084961	0.923340	21.280001	-213.080002	139.440002	0.00	0.00	0.00
3.66	12.25	11.00	9.50	10.75	7.75	9.75	1.75	6.75	2.25	2.00	2.25	2.50	6.25	2.25	1.25	1.25	-0.189453	0.080566	0.944824	-3.570000	9.310000	-0.980000	1055.00	-0.14	-0.11	0.00	0.00	0.00	0.00	0.00	0.00	0.00	0.00	0.00	0.25	0.00	0.00	0.00	0.00	0.00	0.00	-2.577148	-0.031250	0.461914	10.220000	-186.759995	134.330002	3.00	0.00	0.00
3.67	12.00	10.25	9.25	10.75	8.00	9.75	2.00	6.75	2.25	2.25	2.25	2.50	6.75	3.00	1.25	1.50	-0.190918	0.074219	0.956055	-4.270000	9.240000	-1.540000	1065.00	-0.13	-0.11	0.00	0.00	0.00	0.00	0.00	0.00	0.00	0.00	0.00	0.00	0.00	0.00	0.00	0.00	0.00	0.00	-2.869629	-0.027344	0.073242	15.890000	-151.410004	118.860001	0.00	0.00	0.00
3.68	11.00	10.00	9.00	10.50	8.00	9.75	2.00	7.00	2.50	2.75	2.25	2.75	6.75	2.00	1.50	1.25	-0.188965	0.079590	0.957520	-4.550000	9.100000	-2.030000	1054.00	-0.12	-0.11	0.00	0.00	0.00	0.00	0.00	0.00	0.00	0.00	0.00	0.00	0.00	0.00	0.00	0.00	0.00	0.00	-3.034668	-0.109863	-0.158203	30.380001	-109.690002	101.639999	0.00	0.00	0.00
3.69	10.75	9.50	9.00	10.25	8.00	9.75	2.00	7.25	2.50	2.75	2.50	2.75	7.25	2.25	1.50	1.75	-0.199707	0.069824	0.960449	-4.760000	9.310000	-2.310000	1060.00	-0.11	-0.11	0.00	0.00	0.00	0.00	0.00	0.00	0.00	0.00	0.00	0.25	0.00	0.25	0.00	0.00	0.00	0.00	-3.132324	-0.288086	-0.213379	47.459999	-65.730003	86.379997	6.00	0.00	0.00
3.70	10.00	9.25	8.75	10.25	8.00	9.75	2.25	7.25	2.25	2.50	2.75	3.00	7.25	2.50	1.50	1.75	-0.193848	0.072754	0.956543	-3.150000	9.450000	-1.400000	1052.00	-0.11	-0.11	0.00	0.00	0.00	0.00	0.00	0.00	0.00	0.00	0.00	0.00	0.00	0.00	0.00	0.00	0.00	0.00	-3.182129	-0.501465	-0.142090	54.740002	-22.750000	71.540001	0.00	0.00	0.00
