# time	left pressure 1[N/cm²]	left pressure 2[N/cm²]	left pressure 3[N/cm²]	left pressure 4[N/cm²]	left pressure 5[N/cm²]	left pressure 6[N/cm²]	left pressure 7[N/cm²]	left pressure 8[N/cm²]	left pressure 9[N/cm²]	left pressure 10[N/cm²]	left pressure 11[N/cm²]	left pressure 12[N/cm²]	left pressure 13[N/cm²]	left pressure 14[N/cm²]	left pressure 15[N/cm²]	left pressure 16[N/cm²]	left acceleration X[g]	left acceleration Y[g]	left acceleration Z[g]	left angular X[dps]	left angular Y[dps]	left angular Z[dps]	left total force[N]	left center of pressure X[%]	left center of pressure Y[%]	right pressure 1[N/cm²]	right pressure 2[N/cm²]	right pressure 3[N/cm²]	right pressure 4[N/cm²]	right pressure 5[N/cm²]	right pressure 6[N/cm²]	right pressure 7[N/cm²]	right pressure 8[N/cm²]	right pressure 9[N/cm²]	right pressure 10[N/cm²]	right pressure 11[N/cm²]	right pressure 12[N/cm²]	right pressure 13[N/cm²]	right pressure 14[N/cm²]	right pressure 15[N/cm²]	right pressure 16[N/cm²]	right acceleration X[g]	right acceleration Y[g]	right acceleration Z[g]	right angular X[dps]	right angular Y[dps]	right angular Z[dps]	right total force[N]	right center of pressure X[%]	right center of pressure Y[%]
0.00	1.75	1.25	2.25	1.75	1.50	1.00	0.50	0.25	2.75	2.00	2.00	1.75	1.75	4.50	0.25	0.50	-0.289551	0.099609	0.933594	-1.540000	6.230000	-1.260000	268.00	0.06	-0.01																									
0.01	1.75	1.25	2.00	2.00	1.50	0.50	0.50	0.25	2.50	2.00	1.75	2.00	1.50	4.50	0.00	0.50	-0.292480	0.103516	0.936523	-1.470000	6.300000	-1.330000	254.00	0.06	-0.00																									
0.02	1.75	1.50	2.25	2.00	1.50	1.00	0.25	0.25	2.25	2.00	1.75	1.75	1.50	4.50	0.00	0.50	-0.290039	0.104492	0.931152	-1.470000	6.300000	-1.400000	255.00	0.04	-0.01																									
0.03	1.75	1.00	2.25	2.25	1.50	0.50	0.50	0.25	2.50	2.25	1.75	1.75	1.75	4.75	0.25	0.50	-0.292480	0.104980	0.928711	-1.540000	6.300000	-1.400000	264.00	0.06	-0.00																									
0.04	1.75	1.50	2.25	2.00	1.50	0.75	0.25	0.25	2.25	2.00	1.75	1.75	1.75	5.00	0.25	0.75	-0.286621	0.103516	0.931641	-1.540000	6.300000	-1.330000	263.00	0.05	-0.01																									
0.05	1.75	1.25	2.25	2.00	1.50	1.00	0.50	0.25	2.25	2.25	1.75	2.00	1.75	4.75	0.25	0.75	-0.291504	0.103027	0.936035	-1.540000	6.300000	-1.330000	270.00	0.06	-0.02																									
0.06	1.75	1.25	2.00	1.75	1.75	1.00	0.25	0.25	2.50	2.00	2.00	2.00	1.50	4.50	0.25	0.50	-0.286621	0.104492	0.930176	-1.540000	6.370000	-1.400000	261.00	0.06	-0.01																									
0.07	1.50	1.50	2.00	2.00	1.25	0.75	0.50	0.25	2.50	2.00	2.00	1.75	1.50	4.50	0.25	0.50	-0.288574	0.101562	0.930176	-1.470000	6.230000	-1.400000	256.00	0.06	-0.01																									
0.09	1.75	1.25	2.00	1.75	1.50	0.75	0.50	0.25	2.50	2.25	2.00	1.75	1.75	4.25	0.25	0.75	-0.293945	0.104980	0.932129	-1.400000	6.160000	-1.260000	261.00	0.06	-0.01																									
0.10	1.75	1.25	2.00	1.75	1.50	0.75	0.50	0.25	2.75	2.25	1.75	1.50	1.50	4.75	0.25	0.50	-0.291016	0.111328	0.931641	-1.470000	6.300000	-1.330000	259.00	0.07	0.01																									
0.11	1.75	1.50	2.25	2.00	1.50	0.50	0.50	0.25	2.50	1.75	2.00	1.75	1.50	4.50	0.25	0.50	-0.290527	0.104492	0.927246	-1.400000	6.160000	-1.260000	259.00	0.05	-0.00																									
0.12	1.50	1.25	2.00	1.50	1.50	1.00	0.50	0.25	2.75	2.25	1.75	1.75	1.50	4.50	0.00	0.50	-0.295410	0.099609	0.928711	-1.330000	6.020000	-1.260000	255.00	0.07	0.00																									
0.13	1.75	1.50	2.00	1.75	1.50	0.75	0.50	0.25	2.50	2.00	2.00	1.75	1.50	4.75	0.00	0.50	-0.289551	0.105469	0.929199	-1.540000	6.580000	-1.540000	259.00	0.06	-0.00	1.50	1.25	1.50	3.00	2.25	2.25	0.00	3.25	4.75	5.00	5.25	4.00	5.50	3.25	0.50	1.50	-0.205078	0.102051	0.957520	-2.660000	-3.220000	2.520000	475.00	0.09	-0.10
0.14	1.75	1.25	2.00	1.75	1.50	0.75	0.25	0.25	3.00	2.00	2.00	2.00	1.75	4.50	0.25	0.50	-0.289551	0.106445	0.934570	-1.470000	6.720000	-1.540000	264.00	0.07	-0.01	1.50	1.50	1.25	3.00	2.25	2.50	0.00	3.25	5.00	5.00	5.25	4.25	5.50	3.00	0.50	1.50	-0.207520	0.104492	0.963379	-2.590000	-3.150000	2.590000	482.00	0.09	-0.11
0.15	1.50	1.25	2.00	1.75	1.50	0.75	0.25	0.25	2.75	2.00	1.75	2.00	1.50	4.75	0.25	0.50	-0.293945	0.105469	0.927734	-1.540000	6.580000	-1.470000	256.00	0.07	-0.01	1.50	1.25	1.50	3.00	2.50	2.50	0.00	3.50	5.00	5.25	5.25	4.00	5.50	3.25	0.25	1.50	-0.203613	0.101562	0.961426	-2.520000	-3.080000	2.660000	488.00	0.08	-0.10
0.16	1.50	1.25	2.00	1.75	1.50	1.00	0.50	0.25	2.75	2.25	2.00	2.00	1.50	4.50	0.25	0.50	-0.290527	0.108398	0.928223	-1.610000	6.580000	-1.260000	265.00	0.07	-0.01	1.50	1.25	1.50	3.00	2.25	2.50	0.00	3.25	5.00	5.25	5.25	4.00	5.50	3.25	0.25	1.50	-0.204102	0.097656	0.968750	-2.660000	-3.080000	2.520000	481.00	0.09	-0.10
0.17	1.50	1.00	2.25	2.00	1.50	0.75	0.50	0.25	2.50	2.00	2.00	2.00	1.75	4.75	0.25	0.75	-0.293457	0.104980	0.930176	-1.540000	6.370000	-1.330000	266.00	0.07	-0.01	1.50	1.50	1.50	3.00	2.25	2.75	0.00	3.25	4.75	5.25	5.75	4.25	5.50	3.00	0.50	1.50	-0.204102	0.104004	0.960449	-2.450000	-3.080000	2.450000	492.00	0.08	-0.11
0.18	1.75	1.25	2.00	2.00	1.25	0.75	0.25	0.25	2.50	2.25	2.00	1.75	1.50	4.50	0.25	0.50	-0.290039	0.106445	0.934082	-1.540000	6.440000	-1.400000	256.00	0.06	-0.01	1.50	1.50	1.50	3.25	2.25	2.50	0.00	3.50	5.00	5.25	5.50	4.25	5.75	3.00	0.75	1.50	-0.195801	0.105469	0.962891	-2.520000	-3.080000	2.520000	501.00	0.09	-0.11
0.19	1.75	1.25	1.75	1.75	1.50	0.75	0.50	0.25	2.50	2.25	2.25	2.00	1.75	4.50	0.25	0.50	-0.285645	0.100586	0.930664	-1.540000	6.440000	-1.330000	264.00	0.07	-0.01	1.50	1.50	1.50	3.25	2.25	2.75	0.00	3.50	4.75	5.50	6.00	4.00	5.75	3.25	0.50	1.50	-0.203125	0.105469	0.964355	-2.450000	-2.940000	2.590000	505.00	0.08	-0.11
0.20	1.50	1.25	2.00	1.75	1.50	0.75	0.25	0.25	2.50	2.00	2.25	2.00	1.75	4.75	0.25	0.50	-0.293945	0.102539	0.934082	-1.470000	6.510000	-1.400000	260.00	0.07	-0.01	1.50	1.50	1.50	3.25	2.25	2.25	0.00	3.50	5.00	5.50	6.00	4.25	5.75	3.25	0.50	1.75	-0.207031	0.102539	0.961914	-2.450000	-3.010000	2.660000	507.00	0.09	-0.11
0.21	1.50	1.25	2.25	1.50	1.50	0.50	0.25	0.25	2.75	2.00	2.00	1.75	1.75	5.00	0.25	0.50	-0.289062	0.108887	0.932129	-1.540000	6.510000	-1.470000	257.00	0.08	0.00	1.50	1.50	1.25	3.00	2.25	2.50	0.00	3.25	5.00	5.25	6.00	4.25	5.75	3.00	0.75	1.50	-0.206055	0.104004	0.965332	-2.450000	-2.940000	2.660000	497.00	0.09	-0.11
0.22	1.50	1.50	2.00	1.75	1.50	0.75	0.50	0.25	3.00	2.00	1.75	2.00	1.50	5.00	0.25	0.75	-0.293945	0.104004	0.929688	-1.470000	6.440000	-1.540000	269.00	0.07	0.00	1.50	1.25	1.75	3.00	2.50	2.25	0.00	3.50	5.25	5.50	5.75	4.50	5.75	3.25	0.50	1.50	-0.207031	0.111816	0.965820	-2.450000	-2.870000	2.590000	509.00	0.09	-0.10
0.23	1.50	1.25	2.25	1.75	1.50	0.75	0.50	0.25	2.75	2.25	2.00	2.00	1.75	4.50	0.25	0.75	-0.292969	0.105469	0.932129	-1.540000	6.510000	-1.470000	269.00	0.07	-0.01	1.25	1.00	1.75	3.00	2.25	2.25	0.00	3.25	5.25	5.50	5.75	4.00	5.50	3.25	0.50	1.50	-0.202148	0.103516	0.960938	-2.380000	-2.940000	2.590000	490.00	0.10	-0.10
0.24	1.50	1.00	1.75	1.75	1.25	0.75	0.50	0.50	2.75	2.25	2.00	2.00	1.75	5.00	0.25	0.50	-0.292480	0.106445	0.932617	-1.610000	6.370000	-1.330000	265.00	0.09	-0.01	1.25	1.25	1.50	2.75	2.25	2.50	0.00	3.50	5.25	5.50	6.25	4.00	5.75	3.00	0.75	1.50	-0.205566	0.107910	0.966797	-2.310000	-2.940000	2.450000	502.00	0.10	-0.10
0.25	1.25	1.00	2.00	1.25	1.25	0.75	0.50	0.25	2.50	2.25	2.00	2.00	1.75	5.00	0.25	0.50	-0.294434	0.107910	0.924805	-1.680000	6.300000	-1.400000	253.00	0.09	-0.00	1.25	1.25	1.50	3.25	2.25	2.50	0.00	3.50	5.00	5.50	6.25	4.25	5.75	3.50	0.75	1.50	-0.205078	0.106934	0.962891	-2.380000	-2.870000	2.520000	511.00	0.10	-0.11
0.26	1.50	1.00	2.00	1.75	1.50	0.50	0.50	0.25	2.75	2.25	2.00	2.00	1.50	4.75	0.25	0.50	-0.290039	0.106445	0.930664	-1.610000	6.160000	-1.470000	260.00	0.08	0.00	1.50	1.25	1.25	2.75	2.25	2.50	0.00	3.25	5.50	5.75	6.25	4.25	5.75	3.25	0.75	1.50	-0.200684	0.103516	0.961914	-2.380000	-2.940000	2.520000	508.00	0.10	-0.10
0.27	1.25	1.00	1.75	1.75	1.50	0.50	0.25	0.25	2.50	2.25	2.00	2.00	1.50	5.00	0.25	0.75	-0.289062	0.104492	0.934082	-1.540000	6.020000	-1.400000	251.00	0.09	-0.01	1.50	1.25	1.25	3.00	2.25	2.25	0.00	3.50	5.50	5.50	6.50	4.00	5.75	3.00	0.50	1.50	-0.203613	0.102539	0.957520	-2.380000	-2.870000	2.520000	505.00	0.10	-0.10
0.28	1.50	1.00	2.00	2.25	1.25	1.00	0.50	0.25	2.75	2.00	2.00	2.00	1.75	4.75	0.00	0.50	-0.288574	0.103027	0.931152	-1.610000	6.020000	-1.400000	265.00	0.07	-0.01	1.25	1.25	1.50	2.75	2.25	2.25	0.00	3.50	5.75	6.00	6.50	4.25	5.75	3.25	0.75	1.50	-0.207520	0.102539	0.967285	-2.520000	-3.010000	2.660000	518.00	0.11	-0.10
0.29	1.00	1.25	1.50	1.75	1.50	0.75	0.50	0.25	2.50	2.25	2.25	1.75	1.75	4.75	0.00	0.75	-0.292480	0.105957	0.933105	-1.610000	5.810000	-1.330000	252.00	0.09	-0.01	1.00	1.00	1.25	2.75	2.25	2.50	0.00	3.50	5.50	6.25	6.50	4.25	6.00	3.25	0.50	1.50	-0.205078	0.103516	0.963867	-2.590000	-3.150000	2.660000	512.00	0.11	-0.10
0.30	1.25	1.00	1.75	1.50	1.25	0.75	0.50	0.25	2.75	2.00	2.25	2.00	1.50	4.50	0.25	0.50	-0.288086	0.107422	0.929199	-1.540000	5.740000	-1.190000	250.00	0.09	-0.00	1.50	1.25	1.25	2.75	2.25	2.50	0.00	3.25	5.50	6.00	6.50	4.50	6.00	3.25	0.50	1.50	-0.203613	0.104980	0.960938	-2.590000	-3.220000	2.660000	516.00	0.10	-0.10
0.31	1.25	0.75	1.75	1.75	1.25	0.75	0.25	0.25	2.75	2.00	2.00	2.00	1.50	4.75	0.25	0.50	-0.291016	0.102051	0.934082	-1.610000	6.090000	-1.330000	246.00	0.09	-0.01	1.25	1.25	1.25	2.50	2.25	2.25	0.00	3.25	5.50	6.00	6.50	4.00	6.00	3.25	0.50	1.50	-0.205078	0.105957	0.964355	-2.660000	-3.150000	2.590000	502.00	0.11	-0.10
0.32	1.75	1.25	1.75	1.75	1.50	0.50	0.50	0.25	2.50	2.25	2.00	2.00	1.50	4.75	0.00	0.50	-0.289551	0.112305	0.930664	-1.610000	6.300000	-1.400000	256.00	0.07	-0.00	1.25	1.00	1.25	2.75	2.25	2.25	0.00	3.50	5.50	6.25	6.25	4.50	6.25	3.25	0.50	1.50	-0.204102	0.103027	0.964844	-2.590000	-3.150000	2.590000	514.00	0.11	-0.10
0.33	1.25	1.00	2.00	1.25	1.25	0.50	0.50	0.25	2.75	2.25	2.25	2.25	1.75	5.00	0.25	0.50	-0.292480	0.105957	0.933105	-1.610000	6.230000	-1.400000	259.00	0.10	-0.00	1.50	1.50	1.25	2.75	2.00	2.50	0.00	3.50	5.75	6.25	6.50	4.50	6.25	3.50	0.75	1.50	-0.209473	0.105469	0.965332	-2.450000	-3.150000	2.590000	532.00	0.11	-0.10
0.34	1.25	1.00	1.75	1.75	1.50	0.75	0.50	0.25	3.00	2.25	2.00	2.00	1.75	5.00	0.25	0.50	-0.287109	0.103027	0.928711	-1.400000	6.020000	-1.260000	265.00	0.09	-0.00	1.50	1.00	1.00	2.50	2.25	2.00	0.00	3.50	5.75	6.25	6.50	4.25	6.00	3.25	0.75	1.50	-0.208008	0.104980	0.965820	-2.450000	-3.080000	2.450000	512.00	0.11	-0.10
0.35	1.25	1.25	1.75	1.75	1.50	0.75	0.50	0.25	2.75	2.25	2.00	1.75	1.50	5.00	0.25	0.50	-0.291016	0.105469	0.929199	-1.400000	6.090000	-1.190000	259.00	0.08	0.00	1.50	1.25	1.50	3.00	2.25	2.50	0.00	3.50	5.50	6.25	6.75	4.50	6.00	3.00	0.75	1.75	-0.205078	0.101074	0.965820	-2.520000	-3.150000	2.450000	532.00	0.10	-0.10
0.36	1.50	1.25	1.75	1.50	1.50	0.75	0.50	0.25	2.75	2.00	2.00	2.00	1.75	4.75	0.25	0.50	-0.287109	0.108887	0.931152	-1.470000	6.230000	-1.260000	259.00	0.08	-0.01	1.00	1.25	1.25	2.75	2.00	2.25	0.00	3.50	5.50	6.25	6.75	4.25	6.50	3.25	0.75	1.50	-0.206055	0.104004	0.963867	-2.520000	-3.080000	2.590000	518.00	0.11	-0.10
0.37	1.00	1.00	2.00	1.50	1.50	0.75	0.50	0.25	2.75	2.25	2.00	1.75	1.50	4.75	0.00	0.75	-0.291992	0.101562	0.923828	-1.540000	6.510000	-1.330000	251.00	0.09	0.00	1.25	0.75	1.25	2.25	2.25	2.50	0.00	3.50	5.75	6.25	7.00	4.25	6.25	3.50	0.50	1.50	-0.203125	0.110352	0.962402	-2.450000	-3.010000	2.660000	519.00	0.12	-0.10
0.38	1.50	1.00	2.00	1.50	1.25	0.50	0.50	0.25	2.75	2.25	2.00	2.00	1.75	4.75	0.25	0.50	-0.291016	0.106934	0.935059	-1.470000	6.580000	-1.400000	256.00	0.09	-0.00	1.25	1.25	1.25	2.50	2.25	2.25	0.00	3.50	5.75	6.25	6.75	4.75	6.50	3.50	0.50	1.50	-0.202637	0.106445	0.963867	-2.520000	-3.010000	2.450000	529.00	0.11	-0.10
0.39	1.25	1.00	2.00	1.75	1.25	0.50	0.50	0.25	3.00	2.25	2.25	2.00	1.75	5.00	0.00	0.50	-0.290527	0.106934	0.931641	-1.470000	6.580000	-1.330000	262.00	0.09	0.00	1.50	1.25	1.00	2.75	2.25	2.25	0.00	3.50	5.75	6.50	7.00	4.50	6.50	3.50	0.50	1.50	-0.205566	0.104492	0.966309	-2.450000	-2.940000	2.590000	534.00	0.11	-0.10
0.40	1.25	1.25	1.75	1.25	1.25	0.50	0.25	0.25	2.50	2.00	2.00	2.00	1.75	4.50	0.25	0.50	-0.296387	0.102539	0.927734	-1.540000	6.440000	-1.330000	239.00	0.09	-0.01	1.25	1.00	1.50	2.50	2.00	2.00	0.00	3.50	5.75	6.50	7.00	4.50	6.25	3.50	0.75	1.50	-0.208984	0.108398	0.963379	-2.380000	-2.800000	2.520000	527.00	0.12	-0.10
0.41	1.25	1.00	1.75	1.75	1.50	0.50	0.50	0.25	2.50	2.00	2.00	2.00	1.75	4.75	0.25	0.50	-0.286621	0.104980	0.930176	-1.540000	6.510000	-1.400000	251.00	0.09	-0.01	0.75	0.75	1.25	2.75	2.25	2.75	0.00	3.50	5.75	6.75	7.25	4.75	6.50	3.50	0.75	1.50	-0.205078	0.108398	0.962891	-2.380000	-2.940000	2.590000	540.00	0.12	-0.10
0.42	1.25	1.25	1.75	1.50	1.50	0.50	0.50	0.25	2.75	2.25	2.00	2.00	1.50	5.00	0.25	0.50	-0.288574	0.102051	0.938477	-1.540000	6.440000	-1.400000	256.00	0.09	0.00	1.25	1.25	1.25	2.50	2.00	2.00	0.00	3.50	5.75	6.50	7.00	4.75	6.50	3.25	0.75	1.50	-0.207031	0.103027	0.961426	-2.380000	-2.940000	2.520000	529.00	0.12	-0.10
0.43	1.25	1.00	2.00	1.50	1.25	0.75	0.25	0.00	2.75	2.25	2.00	2.25	1.75	5.00	0.25	0.50	-0.295410	0.102051	0.926270	-1.540000	6.440000	-1.400000	254.00	0.10	-0.00	1.50	1.00	1.25	2.50	2.25	2.00	0.00	3.50	6.00	6.75	7.00	4.75	6.50	3.50	0.50	1.50	-0.204590	0.104980	0.963379	-2.520000	-3.080000	2.520000	538.00	0.12	-0.09
0.44	1.25	1.25	1.75	1.50	1.25	0.75	0.25	0.25	2.50	2.25	2.25	1.75	1.50	5.00	0.00	0.75	-0.292969	0.104004	0.931641	-1.540000	6.650000	-1.470000	248.00	0.09	-0.01	1.25	1.50	1.00	2.50	2.25	2.50	0.00	3.50	5.75	6.75	7.00	4.50	6.50	3.25	0.75	1.75	-0.205078	0.105469	0.961914	-2.520000	-3.010000	2.520000	538.00	0.11	-0.10
0.45	1.25	1.25	1.75	1.50	1.25	0.50	0.25	0.25	2.75	2.25	2.00	2.00	1.75	4.75	0.25	0.50	-0.296875	0.107910	0.931641	-1.610000	6.650000	-1.400000	250.00	0.09	-0.01	1.25	1.25	1.25	2.50	2.25	2.00	0.00	3.75	6.00	7.00	7.50	4.75	6.50	3.50	0.75	1.75	-0.204102	0.101074	0.963379	-2.450000	-3.080000	2.590000	553.00	0.12	-0.10
0.46	1.50	1.00	1.75	1.25	1.50	0.75	0.25	0.00	3.00	2.00	2.00	2.00	1.75	5.00	0.25	0.50	-0.287598	0.105469	0.932617	-1.540000	6.510000	-1.260000	252.00	0.10	0.01	1.00	1.00	1.25	2.75	2.25	2.25	0.00	3.50	5.75	6.75	7.50	4.50	6.50	3.25	0.50	1.50	-0.208008	0.107910	0.963867	-2.590000	-3.010000	2.450000	535.00	0.12	-0.10
0.47	1.25	1.00	2.00	1.50	1.25	0.75	0.25	0.25	2.75	2.25	2.00	2.00	1.50	4.75	0.25	0.50	-0.290039	0.104980	0.928711	-1.540000	6.510000	-1.260000	251.00	0.09	-0.00	1.25	1.50	1.25	2.50	2.25	2.25	0.00	3.50	6.00	6.75	7.50	4.75	6.50	3.50	0.50	1.75	-0.205566	0.105957	0.966309	-2.520000	-3.010000	2.520000	549.00	0.11	-0.10
0.48	1.50	0.75	1.50	1.75	1.25	0.75	0.25	0.25	3.00	2.25	2.25	2.00	1.75	5.00	0.25	0.50	-0.292480	0.104980	0.929688	-1.540000	6.510000	-1.330000	258.00	0.10	-0.01	1.25	1.00	1.50	2.00	2.25	2.00	0.00	3.50	6.00	6.75	7.50	4.75	6.75	3.50	0.50	1.75	-0.204102	0.102051	0.961914	-2.520000	-3.010000	2.590000	541.00	0.12	-0.10
0.49	1.25	0.75	1.75	1.50	1.50	0.75	0.25	0.25	2.75	2.50	2.00	2.00	1.50	4.50	0.25	0.75	-0.291016	0.102051	0.929688	-1.400000	6.370000	-1.330000	250.00	0.10	-0.01	1.25	1.00	1.50	2.00	2.25	2.50	0.00	3.75	6.00	6.75	7.50	5.00	6.50	3.50	0.75	1.75	-0.207031	0.104980	0.965820	-2.450000	-3.150000	2.520000	553.00	0.12	-0.10
0.50	1.25	1.00	1.75	1.50	1.50	0.75	0.50	0.25	2.50	2.25	1.75	2.00	1.50	5.00	0.25	0.50	-0.290039	0.104004	0.931152	-1.610000	6.580000	-1.400000	251.00	0.09	-0.00	1.25	1.00	1.25	2.75	2.00	2.25	0.00	3.50	6.00	7.00	7.50	4.75	6.50	3.50	0.75	1.75	-0.207031	0.103516	0.958984	-2.590000	-3.290000	2.520000	550.00	0.12	-0.10
0.51	1.25	1.00	1.75	1.25	1.25	0.75	0.25	0.25	2.75	2.25	2.00	1.75	1.50	5.00	0.25	0.75	-0.296875	0.103516	0.930664	-1.610000	6.440000	-1.400000	246.00	0.10	0.00	1.00	1.00	1.25	2.50	2.25	2.25	0.00	3.50	6.00	7.00	7.75	5.00	6.75	3.50	0.75	1.75	-0.206055	0.102051	0.962891	-2.520000	-3.150000	2.520000	554.00	0.12	-0.10
0.52	1.25	1.00	1.75	1.00	1.50	0.50	0.25	0.25	2.75	2.25	2.00	2.00	1.50	4.50	0.25	0.50	-0.293945	0.104492	0.928223	-1.610000	6.720000	-1.470000	240.00	0.10	0.00	1.00	1.00	1.00	2.25	2.25	2.00	0.00	3.50	6.00	7.00	7.50	4.75	6.75	3.50	0.75	1.75	-0.208008	0.106445	0.962891	-2.520000	-3.150000	2.520000	541.00	0.13	-0.10
0.53	1.25	1.25	1.75	1.50	1.25	0.50	0.50	0.00	2.75	2.25	2.00	1.75	1.50	5.00	0.25	0.50	-0.292969	0.098633	0.929688	-1.610000	6.510000	-1.260000	247.00	0.09	0.01	1.00	1.25	1.25	2.25	2.25	2.25	0.00	3.75	6.25	7.25	7.50	5.00	6.50	3.50	0.75	1.50	-0.201660	0.104004	0.964844	-2.450000	-3.080000	2.520000	557.00	0.12	-0.10
0.54	1.25	1.25	1.50	1.25	1.25	0.75	0.25	0.25	2.75	2.25	2.25	2.00	1.50	5.00	0.25	0.50	-0.291016	0.109863	0.934570	-1.400000	6.160000	-1.260000	249.00	0.10	-0.00	1.00	1.00	1.25	2.50	2.00	2.25	0.00	3.50	6.25	7.25	7.75	5.00	6.75	3.25	0.75	1.75	-0.203125	0.105957	0.956543	-2.590000	-3.080000	2.520000	555.00	0.13	-0.10
0.55	1.25	1.00	1.75	1.75	1.25	0.50	0.25	0.25	2.75	2.50	2.00	2.00	1.50	4.50	0.25	0.50	-0.287598	0.106445	0.930664	-1.680000	6.580000	-1.330000	248.00	0.09	-0.01	1.00	1.00	1.25	2.00	2.00	2.25	0.00	3.75	5.75	7.25	7.50	4.75	6.75	3.75	0.50	1.75	-0.208008	0.104980	0.957031	-2.520000	-3.010000	2.660000	544.00	0.13	-0.10
0.56	1.25	1.00	1.75	1.75	1.50	0.75	0.50	0.25	2.75	2.00	2.00	2.00	1.75	5.00	0.25	0.50	-0.291016	0.104492	0.932617	-1.680000	6.790000	-1.470000	259.00	0.09	-0.01	1.25	1.00	1.25	2.00	2.00	2.50	0.00	3.50	6.25	7.25	7.75	5.00	6.75	3.50	0.50	1.75	-0.198730	0.106445	0.970703	-2.590000	-3.220000	2.590000	555.00	0.13	-0.10
0.57	1.50	1.00	2.00	1.50	1.25	0.50	0.25	0.25	2.75	2.25	2.25	2.00	1.50	4.75	0.25	0.75	-0.293457	0.100586	0.932617	-1.540000	6.790000	-1.470000	254.00	0.09	-0.00	1.00	1.00	1.25	2.50	2.00	2.25	0.00	3.75	6.00	7.25	7.75	5.25	6.75	3.50	0.50	1.75	-0.206055	0.105469	0.963867	-2.590000	-3.080000	2.660000	558.00	0.12	-0.10
0.58	1.25	1.00	2.00	1.50	1.50	0.50	0.50	0.25	3.00	2.25	2.25	2.00	1.50	5.00	0.25	0.75	-0.290039	0.107422	0.931641	-1.610000	6.720000	-1.400000	264.00	0.10	0.01	1.00	1.25	1.00	2.00	2.00	2.00	0.00	3.75	6.25	7.25	7.75	5.00	7.00	3.75	0.75	1.75	-0.202637	0.103027	0.967773	-2.590000	-3.080000	2.590000	557.00	0.13	-0.10
0.59	1.25	1.00	1.75	1.25	1.25	0.50	0.50	0.25	2.75	2.00	2.00	2.25	1.75	5.00	0.25	0.50	-0.289062	0.104492	0.929688	-1.610000	6.580000	-1.400000	251.00	0.10	-0.00	1.00	1.00	1.00	2.50	2.25	2.00	0.00	3.50	6.25	7.00	7.75	5.00	6.75	3.50	0.75	1.50	-0.204590	0.105957	0.961426	-2.660000	-3.010000	2.520000	551.00	0.13	-0.10
0.60	1.25	1.00	1.75	1.25	1.25	0.25	0.50	0.25	3.00	2.00	2.25	2.00	1.50	4.75	0.25	0.50	-0.288574	0.104492	0.930664	-1.540000	6.440000	-1.400000	247.00	0.11	0.01	1.00	1.00	1.00	2.25	2.00	2.00	0.00	3.50	6.00	7.50	7.75	5.00	7.00	3.50	0.75	1.75	-0.208496	0.100098	0.961426	-2.590000	-2.940000	2.590000	551.00	0.13	-0.10
0.61	1.25	1.25	1.75	1.50	1.25	0.75	0.25	0.25	2.75	2.50	2.25	1.75	1.75	5.00	0.25	0.75	-0.290527	0.104980	0.935059	-1.540000	6.580000	-1.400000	258.00	0.10	-0.01	1.25	1.00	1.25	2.25	2.25	2.00	0.00	3.50	6.25	7.25	7.75	5.50	7.00	3.75	0.50	1.75	-0.204590	0.105469	0.964844	-2.520000	-3.010000	2.590000	564.00	0.13	-0.10
0.62	1.25	1.25	1.75	1.75	1.50	0.50	0.50	0.25	2.75	2.25	2.25	2.00	1.50	4.50	0.25	0.75	-0.291504	0.107910	0.932129	-1.540000	6.580000	-1.470000	259.00	0.09	-0.01	1.25	1.00	1.00	2.25	2.25	2.00	0.00	3.75	6.00	7.50	7.75	5.50	7.00	3.50	0.75	1.75	-0.201660	0.103027	0.959961	-2.590000	-3.080000	2.660000	565.00	0.13	-0.10
0.63	1.25	1.25	1.75	1.75	1.25	0.75	0.50	0.00	2.75	2.00	2.50	2.00	1.50	5.00	0.25	0.50	-0.294434	0.098633	0.930664	-1.540000	6.510000	-1.400000	258.00	0.09	-0.00	1.00	1.00	1.00	1.75	2.00	2.00	0.00	3.50	6.25	7.50	7.75	5.50	6.75	3.75	0.50	1.75	-0.200195	0.102539	0.970703	-2.660000	-3.010000	2.590000	551.00	0.14	-0.10
0.64	1.25	1.25	1.50	1.25	1.25	0.50	0.50	0.25	3.00	2.25	2.25	2.00	1.50	5.00	0.25	0.50	-0.291016	0.109863	0.927734	-1.540000	6.370000	-1.400000	254.00	0.11	0.01	1.00	0.75	1.25	2.25	2.25	2.25	0.00	3.75	6.25	7.50	7.75	5.50	6.75	3.75	0.75	1.75	-0.201172	0.103516	0.964355	-2.590000	-2.940000	2.590000	569.00	0.13	-0.10
0.65	1.25	1.00	1.50	1.25	1.25	0.50	0.50	0.25	2.75	2.25	2.25	2.00	1.50	5.00	0.25	0.50	-0.293457	0.104492	0.929199	-1.610000	6.510000	-1.400000	248.00	0.11	0.00	0.75	0.50	1.25	2.00	2.00	2.00	0.00	3.50	6.25	7.25	7.75	5.25	7.00	4.00	0.50	1.50	-0.199707	0.100098	0.959473	-2.520000	-3.010000	2.660000	547.00	0.14	-0.10
0.66	1.25	1.00	1.75	1.50	1.50	0.50	0.25	0.25	2.75	2.00	2.00	2.25	1.50	5.00	0.00	0.50	-0.290039	0.104004	0.930176	-1.610000	6.300000	-1.330000	247.00	0.09	-0.00	1.00	1.00	1.25	2.25	2.00	2.00	0.00	3.75	6.25	7.50	8.00	5.75	6.75	3.75	0.75	1.75	-0.207520	0.096680	0.963379	-2.590000	-3.080000	2.730000	571.00	0.13	-0.10
0.67	1.25	1.00	1.75	1.50	1.25	0.50	0.50	0.25	3.00	2.25	2.25	2.00	1.50	5.00	0.25	0.50	-0.291992	0.106934	0.930176	-1.610000	6.440000	-1.470000	257.00	0.10	0.01	1.00	1.00	1.00	2.25	2.25	2.00	0.00	3.50	6.25	7.50	8.00	5.50	7.00	3.50	0.75	1.75	-0.201172	0.106934	0.965332	-2.520000	-3.080000	2.590000	565.00	0.13	-0.10
0.68	1.25	1.00	1.75	1.25	1.25	0.50	0.50	0.25	3.00	2.25	2.00	2.00	1.50	5.00	0.25	0.50	-0.291504	0.105957	0.923828	-1.680000	6.440000	-1.400000	252.00	0.11	0.01	1.00	1.00	1.25	2.25	2.00	2.25	0.00	3.50	6.25	7.50	8.00	6.00	7.00	3.75	0.25	1.75	-0.203125	0.104004	0.957520	-2.520000	-3.010000	2.660000	570.00	0.13	-0.10
0.69	1.25	0.75	1.75	1.50	1.25	0.50	0.50	0.25	2.75	2.25	2.00	1.75	1.50	5.00	0.00	0.75	-0.289062	0.101562	0.929688	-1.610000	6.440000	-1.400000	245.00	0.10	0.01	1.25	1.00	1.25	2.00	2.00	2.00	0.00	3.75	6.50	7.50	8.00	6.00	7.00	3.50	0.50	1.75	-0.204590	0.107422	0.960938	-2.590000	-3.080000	2.450000	574.00	0.13	-0.10
0.70	1.25	1.00	1.75	1.25	1.50	0.50	0.25	0.25	2.75	2.00	2.00	2.00	1.75	5.00	0.00	0.75	-0.289551	0.101562	0.931152	-1.610000	6.370000	-1.400000	246.00	0.10	-0.00	1.00	0.75	1.25	2.00	2.25	2.00	0.00	3.50	6.25	7.75	8.00	5.50	6.75	3.75	0.50	1.75	-0.206055	0.104004	0.960449	-2.590000	-3.220000	2.520000	562.00	0.13	-0.09
0.71	1.25	1.25	1.75	1.25	1.25	0.50	0.25	0.25	2.75	2.25	2.25	2.00	1.50	5.00	0.00	0.50	-0.291504	0.101074	0.926758	-1.610000	6.230000	-1.260000	247.00	0.10	0.00	1.00	0.75	1.00	2.25	2.00	2.00	0.00	3.75	6.25	7.50	8.00	6.00	7.00	3.75	0.75	1.75	-0.202637	0.104492	0.965332	-2.660000	-3.220000	2.660000	571.00	0.14	-0.10
0.72	1.25	1.00	1.75	1.75	1.25	0.50	0.25	0.25	3.00	2.50	2.00	2.25	1.75	5.00	0.25	0.50	-0.291016	0.106445	0.929688	-1.540000	6.370000	-1.330000	261.00	0.10	-0.01	1.25	1.00	1.00	2.25	2.00	2.25	0.00	3.75	6.25	7.75	8.00	5.75	7.00	3.75	0.75	1.75	-0.203613	0.101074	0.964355	-2.590000	-3.080000	2.520000	578.00	0.13	-0.10
0.73	1.00	1.00	1.75	1.25	1.25	0.50	0.50	0.25	3.00	2.25	2.00	1.75	1.50	5.25	0.25	0.50	-0.292969	0.101562	0.931152	-1.540000	6.440000	-1.400000	248.00	0.11	0.01	1.00	1.00	1.00	2.00	2.00	2.25	0.00	3.50	6.50	7.75	8.00	6.00	7.00	3.50	0.75	1.75	-0.203613	0.109863	0.965332	-2.520000	-3.010000	2.660000	573.00	0.14	-0.10
0.74	1.25	1.25	1.50	1.25	1.50	0.50	0.50	0.25	3.00	2.50	2.00	2.00	1.75	5.00	0.25	0.50	-0.289551	0.100098	0.928711	-1.610000	6.580000	-1.400000	259.00	0.10	0.00	1.25	0.75	1.00	2.00	2.00	2.00	0.00	3.50	6.25	7.50	7.75	6.00	6.75	3.75	0.50	1.50	-0.206543	0.102051	0.963379	-2.590000	-3.010000	2.590000	558.00	0.13	-0.10
0.75	1.25	1.00	1.75	1.25	1.25	0.25	0.50	0.25	2.75	2.25	2.00	2.00	1.50	5.00	0.25	0.50	-0.293457	0.103027	0.932617	-1.750000	6.790000	-1.470000	246.00	0.11	0.01	0.75	1.00	1.25	2.00	2.00	1.75	0.00	3.75	6.25	7.75	8.00	5.75	7.00	3.75	0.75	1.75	-0.201172	0.108887	0.962891	-2.590000	-3.150000	2.590000	568.00	0.14	-0.10
0.76	1.25	1.00	1.75	1.50	1.25	0.50	0.50	0.25	2.75	2.00	2.25	1.75	1.75	4.50	0.00	0.50	-0.291992	0.110352	0.930664	-1.470000	6.300000	-1.330000	244.00	0.09	-0.00	1.00	0.75	1.25	1.75	2.00	2.00	0.00	3.75	6.50	7.50	8.00	6.00	7.25	3.75	0.50	1.75	-0.205566	0.109863	0.962402	-2.520000	-3.080000	2.590000	571.00	0.14	-0.10
0.77	1.25	1.00	2.00	1.50	1.25	0.50	0.50	0.25	2.75	2.50	2.25	1.75	1.50	5.00	0.25	0.50	-0.291016	0.107422	0.928711	-1.400000	6.090000	-1.190000	256.00	0.10	0.01	1.00	0.75	1.25	2.25	2.00	2.25	0.00	3.50	6.25	7.75	8.00	6.25	7.00	3.50	0.75	1.75	-0.201660	0.107910	0.964355	-2.520000	-3.150000	2.590000	576.00	0.13	-0.10
0.78	1.50	1.00	1.75	1.50	1.25	0.50	0.50	0.25	2.75	2.25	2.25	2.25	1.50	5.00	0.25	0.50	-0.296875	0.101562	0.931152	-1.470000	6.370000	-1.330000	259.00	0.10	0.00	1.00	1.00	1.25	2.00	2.00	2.00	0.00	3.50	6.50	7.75	8.00	6.00	7.00	3.75	0.75	1.50	-0.205566	0.106445	0.964355	-2.450000	-3.080000	2.590000	574.00	0.14	-0.10
0.79	1.00	0.75	2.00	1.25	1.25	0.50	0.50	0.25	3.00	2.25	2.00	2.00	1.50	5.00	0.25	0.50	-0.289551	0.103027	0.934082	-1.610000	6.580000	-1.330000	249.00	0.11	0.01	1.00	1.00	1.25	2.00	2.00	2.00	0.00	3.75	6.25	7.75	8.00	6.00	7.00	4.00	0.50	1.75	-0.205566	0.102539	0.960938	-2.590000	-3.150000	2.590000	575.00	0.13	-0.10
0.80	1.50	1.00	1.50	1.50	1.25	0.50	0.25	0.25	3.00	2.25	2.00	2.00	1.50	5.00	0.50	0.75	-0.292480	0.100098	0.930176	-1.680000	6.510000	-1.260000	254.00	0.10	0.00	1.00	1.00	1.25	2.25	2.25	2.00	0.00	3.50	6.25	7.75	8.00	6.00	7.00	3.75	0.50	1.75	-0.201660	0.105469	0.963867	-2.590000	-3.220000	2.590000	575.00	0.13	-0.10
0.81	1.25	1.00	1.75	1.25	1.25	0.75	0.25	0.25	2.75	2.00	2.00	2.00	1.25	4.50	0.25	0.50	-0.294434	0.101562	0.931641	-1.680000	6.510000	-1.260000	238.00	0.09	-0.00	1.25	1.00	1.00	2.00	2.00	2.00	0.00	3.50	6.50	7.75	8.00	6.00	7.00	3.50	0.75	1.50	-0.201660	0.104004	0.964355	-2.660000	-3.220000	2.520000	572.00	0.13	-0.10
0.82	1.50	1.00	1.75	1.25	1.25	0.50	0.50	0.25	2.75	2.25	2.00	1.75	1.50	4.75	0.25	0.50	-0.294434	0.103516	0.935059	-1.610000	6.580000	-1.400000	246.00	0.09	0.01	1.00	1.25	0.75	2.25	2.00	1.75	0.00	3.75	6.50	7.75	8.00	6.75	7.00	3.50	0.75	1.75	-0.207520	0.107910	0.966797	-2.730000	-3.290000	2.590000	582.00	0.14	-0.10
0.83	1.25	1.00	1.50	1.50	1.50	0.25	0.50	0.25	3.00	2.50	2.25	1.75	1.25	5.00	0.25	0.50	-0.293945	0.104980	0.930664	-1.610000	6.580000	-1.470000	252.00	0.11	0.02	1.00	0.75	1.00	2.00	2.00	2.00	0.00	3.50	6.25	7.75	8.00	6.25	7.00	3.50	0.50	1.75	-0.202148	0.107422	0.966309	-2.660000	-3.360000	2.590000	565.00	0.14	-0.10
0.84	1.25	1.00	2.00	1.25	1.25	0.50	0.50	0.25	3.00	2.25	2.25	1.75	1.50	5.00	0.25	0.50	-0.296387	0.107910	0.930176	-1.610000	6.440000	-1.400000	254.00	0.10	0.01	1.00	1.00	1.00	2.25	2.25	2.00	0.00	3.50	6.25	7.75	8.00	6.25	7.00	3.75	0.75	1.75	-0.204102	0.103516	0.961914	-2.660000	-3.290000	2.520000	577.00	0.14	-0.10
0.85	1.25	1.00	1.75	1.25	1.25	0.25	0.25	0.25	2.75	2.25	2.00	2.00	1.75	4.75	0.00	0.75	-0.292969	0.106934	0.926758	-1.610000	6.300000	-1.190000	241.00	0.10	-0.00	1.00	0.75	0.75	2.00	2.00	2.00	0.00	3.75	6.50	7.75	8.00	6.50	7.25	3.50	1.00	1.75	-0.200684	0.108398	0.957520	-2.660000	-3.220000	2.590000	579.00	0.14	-0.10
0.86	1.25	1.00	1.75	1.50	1.50	0.50	0.50	0.25	3.00	2.25	2.00	2.00	1.50	4.50	0.25	0.50	-0.291992	0.101074	0.929199	-1.540000	6.300000	-1.260000	253.00	0.09	0.00	1.25	0.75	1.00	2.00	2.00	2.00	0.00	3.75	6.25	7.75	8.00	6.25	7.25	3.75	0.75	1.75	-0.204102	0.105957	0.961914	-2.590000	-3.290000	2.590000	578.00	0.14	-0.10
0.87	1.50	1.25	2.00	1.50	1.50	0.50	0.25	0.25	2.75	2.25	2.25	1.75	1.50	5.00	0.25	0.50	-0.292969	0.102539	0.933594	-1.610000	6.230000	-1.260000	258.00	0.08	0.00	1.00	1.00	1.00	1.75	2.00	2.25	0.00	3.75	6.50	7.75	7.75	6.25	7.00	3.50	0.75	1.75	-0.209961	0.105469	0.958496	-2.660000	-3.360000	2.590000	574.00	0.14	-0.10
0.88	1.00	1.25	1.75	1.50	1.25	0.50	0.25	0.00	3.00	2.00	2.00	2.00	1.75	4.75	0.25	0.50	-0.291504	0.109375	0.930664	-1.540000	6.230000	-1.260000	244.00	0.10	0.00	1.25	1.00	1.00	2.50	2.25	2.00	0.00	3.50	6.25	7.75	8.00	6.25	7.00	3.50	0.75	1.75	-0.207031	0.106934	0.958984	-2.660000	-3.290000	2.520000	581.00	0.13	-0.10
0.89	1.00	1.25	2.00	1.50	1.25	0.25	0.25	0.25	2.75	2.25	2.25	1.75	1.50	4.50	0.25	0.50	-0.293945	0.106445	0.930664	-1.470000	6.300000	-1.330000	243.00	0.09	-0.00	1.25	1.25	1.00	2.50	2.25	2.25	0.00	3.50	6.25	7.50	8.00	6.25	7.00	3.75	0.50	1.75	-0.209473	0.109375	0.964355	-2.800000	-3.500000	2.590000	582.00	0.13	-0.10
0.90	1.50	1.25	1.75	1.50	1.50	0.50	0.50	0.25	2.75	2.25	2.00	2.00	1.25	5.00	0.25	0.50	-0.288574	0.099121	0.931641	-1.540000	6.440000	-1.260000	257.00	0.09	0.01	1.25	0.75	1.25	2.25	2.00	2.00	0.00	3.50	6.25	7.50	7.75	6.25	7.00	3.50	0.50	2.00	-0.209961	0.102051	0.963379	-2.800000	-3.360000	2.590000	569.00	0.13	-0.10
0.91	1.25	1.00	2.00	1.75	1.25	0.50	0.50	0.25	2.75	2.00	2.00	2.00	1.75	5.00	0.00	0.50	-0.292480	0.111816	0.928711	-1.540000	6.300000	-1.260000	254.00	0.09	-0.00	1.00	1.25	1.25	3.00	2.25	2.25	0.00	3.75	6.25	7.75	8.00	6.25	7.00	3.75	0.75	1.75	-0.198730	0.101074	0.965820	-2.660000	-3.360000	2.590000	597.00	0.12	-0.10
0.92	1.50	1.25	1.75	1.50	1.25	0.50	0.50	0.25	2.75	2.25	2.00	2.00	1.50	5.00	0.25	0.50	-0.291016	0.105469	0.932129	-1.680000	6.580000	-1.400000	256.00	0.09	0.00	1.00	1.00	1.00	2.25	2.25	2.00	0.00	3.75	6.25	7.75	7.75	6.50	7.00	3.75	0.75	1.50	-0.197754	0.102051	0.960938	-2.660000	-3.290000	2.590000	580.00	0.13	-0.10
0.93	1.50	1.00	1.75	1.50	1.50	0.50	0.50	0.25	2.75	2.25	2.00	1.75	1.50	4.25	0.00	0.50	-0.294434	0.103027	0.934570	-1.680000	6.650000	-1.470000	245.00	0.08	0.00	1.00	1.25	1.25	2.50	2.25	2.00	0.00	3.75	6.50	7.50	8.00	6.25	7.00	3.50	0.75	1.75	-0.200684	0.104980	0.962891	-2.660000	-3.220000	2.520000	588.00	0.13	-0.10
0.94	1.25	1.00	1.75	1.50	1.25	0.25	0.25	0.25	2.50	2.00	2.00	2.00	1.50	4.75	0.25	0.50	-0.292480	0.103027	0.934570	-1.540000	6.720000	-1.540000	237.00	0.10	-0.00	1.25	0.75	1.25	2.25	2.25	2.25	0.00	3.75	6.50	7.50	8.00	6.00	7.00	3.75	1.00	1.75	-0.206543	0.104492	0.961426	-2.520000	-3.220000	2.590000	588.00	0.13	-0.10
0.95	1.25	1.00	1.75	1.50	1.25	0.75	0.50	0.25	2.75	2.50	2.00	1.75	1.50	4.75	0.25	0.50	-0.295410	0.105957	0.931152	-1.470000	6.720000	-1.400000	252.00	0.09	0.00	1.50	1.00	1.00	2.50	2.25	2.25	0.00	3.75	6.25	7.50	7.75	6.25	7.00	3.50	0.75	1.75	-0.205566	0.104492	0.957031	-2.450000	-3.220000	2.590000	584.00	0.12	-0.10
0.96	1.50	1.00	1.75	1.50	1.25	0.50	0.25	0.25	2.50	2.00	2.00	1.75	1.50	4.50	0.00	0.75	-0.291992	0.104492	0.933105	-1.470000	6.370000	-1.260000	236.00	0.08	-0.00	1.00	1.00	1.00	2.25	2.25	2.50	0.00	3.75	6.25	7.50	7.75	6.00	6.75	3.50	0.50	1.75	-0.200195	0.104980	0.962402	-2.520000	-3.290000	2.730000	572.00	0.13	-0.10
0.97	1.25	1.00	2.00	1.50	1.25	0.50	0.50	0.25	2.50	2.25	2.00	1.75	1.50	4.50	0.25	0.50	-0.298340	0.104004	0.928223	-1.750000	6.720000	-1.400000	244.00	0.09	0.00	1.00	1.00	1.00	2.75	2.25	2.25	0.00	3.75	6.25	7.50	8.00	6.00	6.75	3.50	0.75	1.75	-0.203613	0.100586	0.964355	-2.520000	-3.220000	2.590000	580.00	0.13	-0.10
0.98	1.25	1.25	1.75	1.75	1.25	0.75	0.50	0.25	2.50	2.00	2.25	1.75	1.25	4.75	0.25	0.50	-0.292969	0.104980	0.924805	-1.680000	6.860000	-1.610000	249.00	0.08	-0.00	1.25	1.00	1.25	2.25	2.25	2.00	0.00	3.50	6.00	7.50	7.75	6.50	7.00	3.75	1.00	1.75	-0.203125	0.109863	0.959961	-2.660000	-3.220000	2.590000	580.00	0.13	-0.10
0.99	1.75	1.25	2.25	2.00	1.50	0.00	0.50	0.00	2.50	2.00	1.75	1.75	1.75	4.75	0.50	0.50	-0.291992	0.110840	0.927246	-1.540000	6.440000	-1.470000	255.00	0.07	0.01	1.25	1.00	1.25	2.50	2.25	2.25	0.00	3.75	6.25	7.50	8.00	6.25	7.00	3.75	0.75	1.75	-0.203613	0.103516	0.957031	-2.730000	-3.290000	2.590000	589.00	0.13	-0.10
1.00	1.50	1.00	1.75	1.75	1.50	0.50	0.50	0.25	2.75	2.00	2.00	1.75	1.75	5.00	0.25	0.50	-0.291992	0.104980	0.933594	-1.540000	6.370000	-1.330000	256.00	0.09	0.00	1.25	1.50	1.25	2.75	2.25	2.25	0.00	3.75	6.00	7.50	7.75	6.00	7.00	3.50	0.75	1.75	-0.207520	0.105957	0.963379	-2.730000	-3.430000	2.520000	586.00	0.12	-0.11
1.01	1.50	1.00	1.75	1.75	1.25	0.75	0.50	0.25	2.50	2.00	1.75	2.00	1.50	4.75	0.25	0.50	-0.291016	0.100098	0.931641	-1.610000	6.160000	-1.190000	248.00	0.08	-0.01	1.25	1.50	1.25	2.75	2.25	2.25	0.00	3.50	6.25	7.50	7.75	6.00	7.00	3.75	0.50	1.75	-0.203613	0.108398	0.962891	-2.660000	-3.290000	2.520000	585.00	0.12	-0.10
1.02	1.25	0.75	1.75	1.75	1.25	0.50	0.25	0.25	2.50	2.25	2.00	2.00	1.50	4.75	0.25	0.50	-0.292480	0.106934	0.932129	-1.610000	6.090000	-1.330000	242.00	0.09	-0.01	1.00	1.50	1.25	2.25	2.25	2.50	0.00	3.50	6.00	7.50	8.00	6.25	7.00	3.75	0.75	1.75	-0.206543	0.100098	0.964844	-2.590000	-3.290000	2.730000	584.00	0.12	-0.10
1.03	1.25	1.00	2.00	1.75	1.25	0.75	0.50	0.25	2.50	2.00	2.00	2.00	1.25	5.00	0.25	0.50	-0.294434	0.104980	0.929688	-1.540000	6.090000	-1.540000	251.00	0.08	-0.00	1.25	1.25	1.50	2.50	2.25	2.25	0.00	3.75	6.00	7.50	7.75	6.00	7.00	3.75	0.50	1.75	-0.204590	0.103027	0.959961	-2.590000	-3.150000	2.660000	583.00	0.12	-0.10
1.04	1.50	1.00	2.00	1.25	1.50	0.75	0.50	0.25	2.75	2.00	1.75	2.00	1.50	4.50	0.25	0.50	-0.291016	0.104980	0.932129	-1.540000	6.020000	-1.400000	250.00	0.08	0.00	1.25	1.25	1.50	2.75	2.25	2.25	0.00	3.50	6.00	7.50	7.75	6.00	6.75	3.25	0.50	1.50	-0.205566	0.106934	0.964844	-2.730000	-3.290000	2.660000	574.00	0.12	-0.10
1.05	1.25	1.00	2.00	1.25	1.25	0.50	0.25	0.25	2.50	2.00	1.75	1.75	1.50	5.00	0.25	0.50	-0.289551	0.104980	0.929199	-1.610000	5.950000	-1.330000	236.00	0.09	0.00	1.25	1.00	1.25	2.75	2.25	2.25	0.00	3.75	6.00	7.25	7.75	5.75	7.00	3.50	0.75	1.50	-0.201660	0.111816	0.966309	-2.730000	-3.500000	2.660000	575.00	0.12	-0.10
1.06	1.50	1.25	2.00	1.50	1.25	0.50	0.50	0.25	2.75	2.00	2.00	1.75	1.75	4.25	0.25	0.75	-0.291992	0.103516	0.928223	-1.610000	5.950000	-1.330000	251.00	0.08	-0.00	1.25	1.50	1.25	2.25	2.25	2.25	0.00	3.75	6.00	7.25	7.75	5.75	7.00	3.50	0.50	1.75	-0.198242	0.101074	0.965332	-2.590000	-3.360000	2.660000	573.00	0.12	-0.10
1.07	1.75	0.75	1.75	1.50	1.50	0.50	0.25	0.25	2.50	2.00	1.75	1.75	1.50	4.50	0.25	0.50	-0.291016	0.105469	0.929199	-1.540000	6.230000	-1.400000	237.00	0.08	0.00	1.25	1.00	1.50	2.50	2.25	2.25	0.00	3.50	6.00	7.25	7.75	5.75	6.75	3.50	0.50	1.50	-0.204590	0.105957	0.960938	-2.730000	-3.220000	2.660000	566.00	0.12	-0.10
1.08	1.50	1.00	2.00	1.75	1.25	0.50	0.50	0.25	2.75	2.00	1.75	1.75	1.50	4.75	0.50	0.75	-0.286621	0.106445	0.926270	-1.470000	6.230000	-1.400000	253.00	0.08	0.00	1.25	1.25	1.25	3.00	2.25	2.25	0.00	3.50	6.00	7.50	7.75	5.75	7.00	3.50	0.50	1.75	-0.203613	0.106934	0.971680	-2.660000	-3.360000	2.660000	577.00	0.12	-0.10
1.09	1.25	1.25	1.75	1.50	1.25	0.75	0.50	0.25	2.75	2.00	2.25	1.75	1.75	4.50	0.25	0.50	-0.289551	0.104980	0.935547	-1.540000	6.160000	-1.330000	251.00	0.09	-0.01	1.25	1.25	1.25	2.75	2.25	2.50	0.00	3.50	6.00	7.50	7.75	6.00	7.00	3.50	0.50	1.75	-0.201660	0.105469	0.965820	-2.730000	-3.360000	2.590000	580.00	0.12	-0.10
1.10	1.50	0.75	2.00	1.75	1.25	0.50	0.50	0.25	2.75	2.00	2.00	1.75	1.50	4.75	0.25	0.50	-0.290527	0.097656	0.928711	-1.470000	6.160000	-1.330000	249.00	0.08	0.01	1.25	1.50	1.50	2.75	2.25	2.25	0.00	3.50	6.00	7.25	7.75	5.75	7.00	3.50	0.50	1.75	-0.201660	0.101074	0.959961	-2.800000	-3.290000	2.590000	577.00	0.11	-0.10
1.11	1.25	1.25	2.00	1.75	1.50	0.75	0.50	0.25	2.25	2.00	2.00	1.75	1.75	4.75	0.00	0.50	-0.288574	0.104492	0.932129	-1.540000	6.300000	-1.330000	250.00	0.07	-0.01	1.25	1.50	1.25	2.75	2.25	2.25	0.00	3.50	6.00	7.50	7.75	5.50	7.00	3.50	1.00	1.75	-0.205566	0.104980	0.959961	-2.730000	-3.220000	2.520000	580.00	0.12	-0.10
1.12	1.25	1.25	2.00	1.75	1.25	0.50	0.50	0.25	2.50	2.00	2.00	1.50	1.50	4.75	0.25	0.50	-0.294434	0.105957	0.931641	-1.470000	6.440000	-1.400000	246.00	0.08	0.00	1.25	1.25	1.50	2.75	2.25	2.50	0.00	3.50	5.75	7.50	7.50	5.75	6.75	3.50	0.50	1.50	-0.206055	0.106445	0.966797	-2.660000	-3.290000	2.660000	571.00	0.11	-0.10
1.13	1.50	1.00	2.00	1.75	1.25	0.50	0.25	0.25	2.75	1.75	1.75	1.75	1.50	4.50	0.25	0.50	-0.291504	0.104004	0.936523	-1.470000	6.300000	-1.400000	241.00	0.07	-0.00	1.50	1.00	1.50	3.00	2.25	2.50	0.00	3.50	6.25	7.25	7.50	5.50	6.75	3.50	0.75	1.75	-0.198730	0.101562	0.967285	-2.660000	-3.290000	2.730000	579.00	0.11	-0.10
1.14	1.75	0.50	2.00	1.00	1.50	0.25	0.25	0.25	2.50	2.00	1.75	2.00	1.50	4.75	0.25	0.25	-0.290527	0.100586	0.933105	-1.400000	6.370000	-1.400000	233.00	0.09	0.01	1.25	1.00	1.25	2.75	2.25	2.50	0.00	3.50	6.00	7.25	7.50	5.50	6.75	3.50	0.75	1.50	-0.202637	0.099121	0.958984	-2.590000	-3.150000	2.660000	566.00	0.12	-0.10
1.15	1.50	1.00	2.00	1.75	1.50	0.50	0.50	0.25	2.50	2.00	1.75	2.00	1.50	4.50	0.25	0.50	-0.291016	0.105957	0.934082	-1.470000	6.370000	-1.260000	249.00	0.07	-0.00	1.50	1.00	1.50	3.00	2.25	2.50	0.00	3.50	6.00	7.25	7.50	5.50	6.75	3.50	0.75	1.50	-0.202148	0.104004	0.961914	-2.590000	-3.150000	2.590000	574.00	0.11	-0.10
1.16	1.25	1.50	1.75	1.75	1.50	0.75	0.25	0.25	2.50	2.00	1.75	1.50	1.50	4.75	0.00	0.50	-0.291016	0.110840	0.928711	-1.470000	6.370000	-1.260000	242.00	0.07	-0.01	1.50	1.25	1.25	2.75	2.25	2.50	0.00	3.75	6.00	7.25	7.50	5.25	6.75	3.50	0.50	1.75	-0.198242	0.102051	0.962402	-2.520000	-3.220000	2.660000	571.00	0.11	-0.10
1.17	1.50	1.25	2.00	1.75	1.25	0.50	0.50	0.00	2.75	2.00	1.75	2.00	1.25	4.50	0.25	0.50	-0.291992	0.103516	0.931641	-1.470000	6.230000	-1.330000	246.00	0.07	0.01	1.25	1.25	1.50	3.00	2.25	2.50	0.00	3.75	5.75	7.00	7.50	5.25	6.75	3.25	0.75	1.50	-0.203613	0.107422	0.960938	-2.590000	-3.220000	2.660000	567.00	0.11	-0.11
1.18	1.50	1.25	1.75	1.50	1.50	0.50	0.50	0.25	2.75	2.00	2.00	1.50	1.50	5.00	0.50	0.50	-0.290039	0.103027	0.932617	-1.400000	6.090000	-1.260000	253.00	0.09	0.01	1.25	2.00	1.75	3.25	2.50	2.75	0.00	3.50	6.00	7.25	7.50	5.50	6.75	3.50	0.75	1.75	-0.202148	0.105957	0.958008	-2.660000	-3.220000	2.660000	593.00	0.10	-0.10
1.19	1.25	1.00	2.00	1.75	1.25	0.50	0.50	0.25	2.75	1.75	2.00	1.75	1.50	4.25	0.00	0.50	-0.290527	0.105469	0.931641	-1.400000	6.020000	-1.190000	240.00	0.07	-0.00	1.25	1.25	1.25	3.00	2.25	2.50	0.00	3.50	6.00	7.00	7.50	5.25	6.75	3.50	0.75	1.50	-0.198242	0.102051	0.962402	-2.590000	-3.290000	2.730000	566.00	0.11	-0.10
1.20	1.75	1.50	2.00	1.75	1.50	0.50	0.25	0.25	2.75	2.00	1.75	1.75	1.50	4.50	0.25	0.50	-0.295898	0.107422	0.928223	-1.540000	6.090000	-1.120000	253.00	0.06	-0.00	1.50	1.25	1.25	3.00	2.25	2.50	0.00	3.50	5.75	7.25	7.50	5.25	6.75	3.25	0.75	1.50	-0.202637	0.103027	0.965820	-2.520000	-3.220000	2.730000	566.00	0.11	-0.10
1.21	1.50	1.25	1.75	1.75	1.25	0.50	0.25	0.25	2.50	2.00	2.00	2.00	1.25	4.50	0.25	0.50	-0.295410	0.101074	0.934570	-1.540000	6.440000	-1.400000	243.00	0.07	-0.01	1.50	1.75	1.50	2.50	2.25	2.75	0.00	3.50	6.00	7.25	7.50	5.50	6.75	3.25	0.50	1.75	-0.203613	0.102539	0.959473	-2.590000	-3.080000	2.590000	575.00	0.11	-0.10
1.22	1.25	1.25	2.00	1.75	1.25	0.50	0.50	0.25	2.75	2.00	1.75	1.75	1.50	4.50	0.25	0.50	-0.290527	0.101562	0.930664	-1.540000	6.440000	-1.400000	247.00	0.08	0.00	1.25	1.00	1.50	3.00	2.50	2.75	0.00	3.50	6.00	7.00	7.50	5.25	6.50	3.75	0.50	1.50	-0.203125	0.104980	0.966797	-2.520000	-3.150000	2.520000	569.00	0.11	-0.10
1.23	1.50	1.00	2.00	1.75	1.50	0.50	0.25	0.25	2.50	1.75	1.75	1.75	1.50	4.50	0.00	0.50	-0.294434	0.106934	0.930664	-1.610000	6.440000	-1.470000	238.00	0.07	-0.00	1.50	1.50	1.50	3.25	2.25	2.50	0.00	3.50	6.00	7.25	7.50	5.25	6.75	3.50	0.50	1.50	-0.201660	0.107422	0.956055	-2.520000	-3.150000	2.520000	577.00	0.10	-0.10
1.24	1.50	1.25	2.00	1.50	1.50	0.75	0.50	0.25	2.50	2.00	2.00	1.75	1.25	4.50	0.00	0.50	-0.293945	0.104004	0.925781	-1.540000	6.440000	-1.190000	247.00	0.07	0.00	1.50	1.25	1.25	2.75	2.25	2.50	0.00	3.50	6.00	7.00	7.25	5.25	6.75	3.25	0.75	1.50	-0.204590	0.104980	0.958496	-2.520000	-3.080000	2.450000	561.00	0.11	-0.10
1.25	1.75	1.00	1.75	1.50	1.50	0.50	0.50	0.25	2.50	2.00	1.75	1.75	1.50	4.75	0.25	0.50	-0.291016	0.104004	0.925781	-1.610000	6.510000	-1.260000	246.00	0.08	0.00	1.25	2.00	1.25	3.25	2.25	2.25	0.00	3.50	5.75	7.00	7.50	5.25	6.75	3.25	0.75	1.50	-0.205078	0.100586	0.966309	-2.520000	-3.150000	2.590000	568.00	0.10	-0.11
1.26	1.75	1.00	2.00	1.75	1.25	0.50	0.25	0.25	2.50	2.00	1.75	1.75	1.25	4.75	0.00	0.50	-0.291504	0.104492	0.932129	-1.610000	6.580000	-1.400000	240.00	0.07	0.00	1.50	1.50	1.50	2.75	2.50	2.50	0.00	3.50	6.00	7.25	7.50	5.25	6.50	3.50	0.75	1.50	-0.207031	0.104004	0.960938	-2.660000	-3.150000	2.590000	574.00	0.11	-0.10
1.27	1.50	1.00	1.75	1.75	1.50	0.50	0.50	0.25	2.50	1.75	2.00	1.75	1.25	4.75	0.25	0.75	-0.291992	0.104492	0.931641	-1.470000	6.370000	-1.260000	245.00	0.08	0.00	1.50	1.25	1.25	3.00	2.50	2.50	0.00	3.50	6.00	7.00	7.50	5.00	6.50	3.50	0.75	1.50	-0.201660	0.104980	0.960449	-2.590000	-3.150000	2.590000	567.00	0.11	-0.10
1.28	1.50	1.25	2.00	1.75	1.25	0.75	0.50	0.00	2.50	2.25	1.75	2.00	1.50	5.00	0.25	0.50	-0.287109	0.105469	0.932129	-1.470000	6.510000	-1.260000	254.00	0.08	0.00	1.50	1.50	1.50	3.25	2.25	2.50	0.00	3.50	6.00	7.00	7.50	5.00	6.75	3.50	0.25	1.50	-0.199219	0.098145	0.962891	-2.520000	-3.080000	2.590000	569.00	0.10	-0.10
1.29	1.25	1.00	2.00	1.50	1.50	0.50	0.50	0.25	2.50	2.00	1.75	1.75	1.50	4.50	0.00	0.50	-0.288574	0.107422	0.930176	-1.610000	6.440000	-1.400000	239.00	0.08	0.00	1.25	1.50	1.50	3.25	2.50	2.25	0.00	3.50	6.00	7.00	7.50	5.00	6.75	3.50	0.50	1.75	-0.204102	0.107910	0.962891	-2.450000	-3.080000	2.590000	570.00	0.11	-0.10
1.30	1.50	1.25	2.00	1.75	1.25	0.50	0.25	0.25	2.50	2.00	2.00	1.75	1.00	4.75	0.25	0.50	-0.293457	0.101074	0.929199	-1.610000	6.510000	-1.470000	243.00	0.07	0.00	1.25	1.50	1.25	3.25	2.25	2.50	0.00	3.50	6.00	6.75	7.50	5.00	6.75	3.50	0.50	1.50	-0.206055	0.097168	0.960449	-2.590000	-3.220000	2.660000	563.00	0.11	-0.10
1.31	1.50	1.00	2.00	1.50	1.25	0.50	0.25	0.25	2.75	1.75	2.00	1.75	1.50	4.50	0.25	0.50	-0.288086	0.100586	0.927246	-1.540000	6.300000	-1.400000	241.00	0.08	0.00	1.75	1.25	1.25	3.00	2.25	2.50	0.00	3.50	6.00	6.75	7.25	5.25	6.75	3.50	0.50	1.75	-0.204590	0.103027	0.959961	-2.590000	-3.150000	2.590000	565.00	0.11	-0.10
1.32	1.50	1.25	2.00	1.75	1.25	0.50	0.25	0.25	2.25	2.00	1.75	2.00	1.50	4.50	0.00	0.50	-0.292969	0.101562	0.931641	-1.470000	6.230000	-1.400000	239.00	0.06	-0.01	1.50	1.00	1.50	2.75	2.25	2.50	0.00	3.50	6.00	7.00	7.75	5.00	6.75	3.50	0.50	1.50	-0.200195	0.105957	0.958496	-2.590000	-3.080000	2.660000	564.00	0.11	-0.10
1.33	1.50	1.00	2.00	1.75	1.50	0.75	0.50	0.50	2.25	2.00	1.75	1.75	0.75	5.00	0.25	0.50	-0.294434	0.106934	0.928223	-1.470000	6.230000	-1.330000	248.00	0.07	0.00	1.50	1.25	1.50	2.75	2.25	2.50	0.00	3.50	6.00	7.00	7.50	5.00	6.75	3.25	0.75	1.50	-0.203613	0.103516	0.961426	-2.520000	-3.220000	2.660000	564.00	0.11	-0.10
1.34	1.75	1.50	2.00	1.50	1.25	0.50	0.50	0.25	2.50	1.75	1.75	1.75	1.50	4.50	0.00	0.50	-0.294922	0.103027	0.929688	-1.610000	6.510000	-1.400000	243.00	0.06	0.00	1.25	1.25	1.25	3.00	2.25	2.50	0.00	3.50	5.75	7.00	7.50	5.00	7.00	3.50	0.50	1.50	-0.202148	0.101074	0.958984	-2.520000	-3.150000	2.520000	560.00	0.11	-0.10
1.35	1.25	1.00	2.00	1.75	1.50	0.75	0.50	0.25	2.75	2.00	1.75	1.50	1.50	4.75	0.25	0.50	-0.293945	0.104980	0.929688	-1.680000	6.300000	-1.470000	249.00	0.08	0.00	1.50	1.50	1.50	2.75	2.25	2.50	0.00	3.50	6.00	6.75	7.50	5.25	6.50	3.00	0.50	1.50	-0.198730	0.098145	0.961914	-2.660000	-3.080000	2.660000	559.00	0.10	-0.10
1.36	1.50	1.25	2.00	1.75	1.25	0.75	0.50	0.25	2.50	2.00	1.75	1.75	1.25	4.75	0.00	0.50	-0.292480	0.105957	0.932129	-1.610000	6.230000	-1.330000	246.00	0.06	0.00	1.50	1.25	1.25	3.00	2.25	2.75	0.00	3.50	5.75	7.25	7.50	5.00	6.50	3.50	0.75	1.75	-0.204102	0.105957	0.962402	-2.520000	-3.220000	2.660000	567.00	0.11	-0.10
1.37	1.50	1.50	2.25	1.75	1.50	0.50	0.50	0.25	2.50	2.00	2.00	1.50	1.50	4.50	0.25	0.50	-0.294922	0.101562	0.935059	-1.540000	6.300000	-1.260000	254.00	0.06	0.00	1.50	1.25	1.75	3.25	2.50	2.25	0.00	3.50	5.75	7.00	7.50	5.00	6.50	3.50	0.50	1.50	-0.205078	0.105469	0.961426	-2.660000	-3.220000	2.660000	566.00	0.10	-0.10
1.38	1.50	1.50	1.75	2.00	1.50	0.75	0.50	0.25	2.50	2.00	1.75	1.75	1.50	4.50	0.00	0.50	-0.291992	0.105957	0.932617	-1.400000	6.090000	-1.260000	251.00	0.06	-0.01	1.25	1.50	1.50	3.25	2.25	2.50	0.00	3.50	6.00	7.00	7.50	5.25	6.75	3.25	0.75	1.50	-0.200195	0.101074	0.963379	-2.520000	-3.150000	2.520000	572.00	0.11	-0.10
1.39	1.50	1.50	2.00	1.75	1.50	0.75	0.50	0.25	2.50	2.00	1.75	1.50	1.50	4.50	0.25	0.50	-0.292969	0.102539	0.933594	-1.680000	6.510000	-1.470000	251.00	0.06	-0.00	1.75	1.25	1.50	3.00	2.25	2.25	0.00	3.50	5.75	7.00	7.50	5.00	6.75	3.25	0.50	1.50	-0.203613	0.102539	0.964355	-2.450000	-3.080000	2.520000	561.00	0.10	-0.10
1.40	1.50	1.00	1.75	2.00	1.50	0.75	0.50	0.25	2.50	2.00	1.75	2.00	1.50	4.75	0.25	0.50	-0.287598	0.101562	0.933594	-1.750000	6.650000	-1.540000	254.00	0.07	-0.01	1.50	1.50	1.25	3.00	2.25	2.25	0.00	3.50	6.00	7.00	7.50	5.25	6.75	3.25	0.50	1.50	-0.199707	0.103027	0.964355	-2.520000	-3.080000	2.590000	564.00	0.11	-0.10
1.41	1.25	1.25	2.00	1.75	1.25	0.50	0.50	0.25	2.50	1.75	1.75	1.75	1.50	4.75	0.00	0.50	-0.289551	0.099121	0.927734	-1.610000	6.580000	-1.400000	240.00	0.07	-0.00	1.50	1.50	1.25	3.00	2.25	2.50	0.00	3.50	6.00	6.75	7.50	5.00	6.75	3.50	0.75	1.50	-0.208496	0.107422	0.962891	-2.520000	-3.290000	2.590000	566.00	0.11	-0.10
1.42	1.75	1.50	2.00	1.75	1.50	0.75	0.50	0.25	2.50	2.00	2.00	2.25	1.50	4.50	0.25	0.50	-0.289062	0.109863	0.929199	-1.540000	6.510000	-1.400000	264.00	0.06	-0.01	1.25	0.75	1.25	2.50	2.25	2.50	0.00	3.50	6.00	7.00	7.25	5.25	6.75	3.25	0.50	1.50	-0.206055	0.104492	0.966309	-2.590000	-3.220000	2.590000	549.00	0.12	-0.10
1.43	1.50	1.25	2.25	1.50	1.25	0.75	0.50	0.25	2.50	1.75	1.75	2.00	1.75	4.50	0.25	0.50	-0.292969	0.101074	0.930664	-1.540000	6.370000	-1.330000	251.00	0.07	-0.01	1.50	1.50	1.25	2.75	2.25	2.25	0.00	3.50	5.75	7.00	7.25	5.25	6.75	3.25	0.50	1.50	-0.198242	0.104980	0.960449	-2.590000	-3.150000	2.590000	555.00	0.11	-0.10
1.44	1.50	1.00	2.00	1.75	1.25	0.75	0.25	0.25	2.50	1.75	1.50	1.75	1.50	4.50	0.25	0.50	-0.294434	0.099609	0.929199	-1.610000	6.300000	-1.330000	237.00	0.07	-0.01	1.50	1.50	1.50	3.25	2.50	2.50	0.00	3.50	6.00	6.75	7.25	5.00	6.75	3.50	0.75	1.50	-0.204102	0.105957	0.962402	-2.660000	-3.150000	2.590000	571.00	0.10	-0.10
1.45	1.50	1.00	2.25	1.75	1.50	0.75	0.50	0.25	2.50	2.00	1.75	1.75	1.50	4.75	0.00	0.50	-0.290039	0.103027	0.929688	-1.540000	6.440000	-1.400000	252.00	0.06	0.00	1.50	0.75	1.50	2.50	2.25	2.75	0.00	3.50	6.00	6.75	7.50	5.00	6.50	3.25	0.75	1.50	-0.207031	0.104980	0.964355	-2.660000	-3.080000	2.660000	555.00	0.11	-0.10
1.46	1.75	1.00	2.00	1.75	1.25	0.75	0.50	0.25	2.50	1.75	2.00	1.50	1.25	4.50	0.25	0.75	-0.291504	0.101562	0.932129	-1.470000	6.300000	-1.400000	246.00	0.07	0.00	1.50	1.50	1.25	2.75	2.50	2.50	0.00	3.75	5.75	7.00	7.50	5.00	6.75	3.75	0.50	1.50	-0.208008	0.105469	0.964355	-2.590000	-3.080000	2.660000	568.00	0.11	-0.10
1.47	1.75	1.00	2.00	1.75	1.50	0.75	0.50	0.25	2.25	1.75	1.75	1.75	1.50	4.50	0.25	0.50	-0.292480	0.107910	0.928711	-1.540000	6.300000	-1.330000	246.00	0.06	-0.01	1.25	1.25	1.50	3.25	2.50	2.50	0.00	3.50	6.00	6.75	7.50	5.25	6.75	3.00	0.50	1.50	-0.203125	0.105957	0.965820	-2.590000	-3.150000	2.660000	565.00	0.10	-0.10
1.48	1.75	1.00	2.25	1.75	1.25	0.75	0.50	0.25	2.25	2.25	1.75	2.00	1.50	4.75	0.25	0.50	-0.291992	0.106445	0.935059	-1.540000	6.300000	-1.260000	256.00	0.07	-0.01	1.50	1.25	1.50	3.50	2.50	2.50	0.00	3.50	5.75	6.50	7.50	5.00	6.75	3.25	0.50	1.50	-0.203125	0.103027	0.962891	-2.520000	-3.150000	2.660000	564.00	0.10	-0.10
1.49	1.50	1.25	2.00	2.00	1.50	0.75	0.50	0.25	2.50	1.75	1.75	1.50	1.50	4.50	0.25	0.50	-0.291504	0.105469	0.931152	-1.540000	6.300000	-1.260000	249.00	0.06	-0.00	1.00	1.50	1.50	3.00	2.25	2.50	0.00	3.50	6.00	6.50	7.25	5.00	7.00	3.25	0.75	1.50	-0.206543	0.104980	0.965820	-2.450000	-2.940000	2.520000	558.00	0.11	-0.11
1.50	1.50	1.25	2.00	1.75	1.50	0.50	0.50	0.25	2.50	2.00	1.75	1.75	1.50	4.75	0.25	0.50	-0.289551	0.103027	0.929199	-1.540000	6.300000	-1.260000	251.00	0.07	0.00	1.50	1.25	1.50	3.00	2.25	2.50	0.00	3.50	6.00	6.75	7.50	5.00	6.50	3.50	0.75	1.50	-0.199707	0.106934	0.962891	-2.520000	-3.080000	2.590000	564.00	0.11	-0.10
1.51	1.75	1.50	2.00	2.00	1.50	0.75	0.50	0.25	2.50	2.00	2.00	1.50	1.50	4.75	0.25	0.50	-0.290039	0.106445	0.930664	-1.540000	6.370000	-1.260000	261.00	0.05	-0.00	1.25	1.50	1.50	3.25	2.50	2.75	0.00	3.50	5.75	6.75	7.50	5.00	6.50	3.25	0.50	1.75	-0.202148	0.104980	0.963379	-2.590000	-3.080000	2.660000	565.00	0.10	-0.10
1.52	1.25	1.25	2.25	1.75	1.50	0.50	0.50	0.00	2.50	1.75	1.75	1.75	1.50	4.50	0.25	0.50	-0.288574	0.106934	0.928223	-1.540000	6.230000	-1.330000	243.00	0.07	0.00	1.50	1.50	1.50	3.25	2.50	2.50	0.00	3.50	6.00	7.00	7.25	5.00	6.50	3.25	0.50	1.50	-0.203125	0.109863	0.964844	-2.450000	-3.150000	2.520000	567.00	0.10	-0.10
1.53	1.50	1.00	2.00	1.75	1.50	0.75	0.25	0.25	2.25	1.75	1.75	1.50	1.50	4.25	0.25	0.50	-0.290527	0.104492	0.934082	-1.540000	6.370000	-1.330000	235.00	0.06	-0.01	1.50	1.25	1.50	2.75	2.25	2.50	0.00	3.50	5.75	6.75	7.50	5.00	6.75	3.50	0.75	1.50	-0.200684	0.102051	0.965820	-2.450000	-3.080000	2.520000	560.00	0.11	-0.10
1.54	1.75	1.25	2.00	2.00	1.50	0.75	0.25	0.25	2.50	1.75	1.75	2.00	1.25	4.50	0.25	0.50	-0.290527	0.108398	0.928711	-1.470000	6.230000	-1.260000	251.00	0.05	-0.01	1.75	1.50	1.50	3.25	2.25	2.50	0.00	3.50	5.75	7.00	7.25	5.00	6.75	3.50	0.75	1.50	-0.208496	0.102539	0.962402	-2.590000	-3.150000	2.660000	571.00	0.10	-0.10
1.55	1.50	1.50	2.25	2.00	1.25	0.50	0.25	0.25	2.25	2.00	2.00	1.50	1.50	4.25	0.00	0.50	-0.288574	0.100586	0.931641	-1.540000	6.300000	-1.330000	242.00	0.05	-0.01	1.50	1.50	1.75	3.00	2.50	2.50	0.00	3.50	6.00	7.00	7.50	5.00	6.75	3.00	0.75	1.50	-0.201660	0.104980	0.962891	-2.520000	-3.150000	2.450000	572.00	0.10	-0.10
1.56	1.75	1.25	2.00	1.75	1.50	0.75	0.50	0.25	2.50	1.75	1.75	1.75	1.50	4.50	0.00	0.50	-0.295410	0.105957	0.934082	-1.540000	6.440000	-1.330000	249.00	0.05	-0.00	1.75	1.25	1.25	3.00	2.25	2.75	0.00	3.50	5.50	6.75	7.25	5.25	6.50	3.25	0.75	1.50	-0.207031	0.108887	0.963867	-2.520000	-3.150000	2.590000	558.00	0.10	-0.11
1.57	1.50	1.25	2.00	1.75	1.50	0.75	0.50	0.25	2.75	2.00	1.75	1.75	1.50	4.50	0.25	0.50	-0.292969	0.101562	0.929199	-1.610000	6.440000	-1.260000	255.00	0.07	-0.00	1.50	1.25	1.50	3.00	2.25	2.50	0.00	3.25	6.00	6.75	7.25	4.75	6.50	3.25	0.50	1.50	-0.202148	0.104004	0.967773	-2.450000	-3.150000	2.590000	550.00	0.11	-0.10
1.58	1.50	1.50	2.00	1.75	1.25	0.75	0.50	0.00	2.50	2.00	1.75	1.75	1.50	4.50	0.25	0.50	-0.295410	0.103027	0.928223	-1.610000	6.370000	-1.330000	247.00	0.06	-0.00	1.25	1.25	1.25	3.00	2.25	2.75	0.00	3.50	6.00	6.75	7.25	4.75	6.75	3.25	0.75	1.75	-0.205566	0.100586	0.961914	-2.590000	-3.220000	2.520000	558.00	0.11	-0.10
1.59	1.25	1.75	1.50	2.25	1.25	0.50	0.50	0.25	2.50	1.75	1.75	1.50	1.25	4.50	0.25	0.50	-0.289062	0.104980	0.932617	-1.750000	6.720000	-1.470000	241.00	0.06	-0.01	1.50	1.75	1.50	3.00	2.25	2.75	0.00	3.50	5.75	6.75	7.25	5.00	6.50	3.50	0.50	1.50	-0.200195	0.102539	0.963867	-2.590000	-3.220000	2.520000	563.00	0.10	-0.10
1.60	1.50	1.25	2.00	1.75	1.50	0.75	0.50	0.25	2.00	2.00	1.75	1.50	1.25	4.50	0.25	0.50	-0.289062	0.103516	0.928711	-1.540000	6.300000	-1.330000	240.00	0.06	-0.00	1.25	1.00	1.50	3.25	2.50	2.75	0.00	3.50	5.50	6.50	7.25	5.00	6.50	3.25	0.75	1.50	-0.208496	0.103027	0.965332	-2.590000	-3.290000	2.590000	554.00	0.10	-0.11
1.61	1.75	1.25	2.00	1.75	1.50	0.50	0.25	0.25	2.25	1.75	1.50	1.75	1.50	4.75	0.25	0.50	-0.295898	0.102051	0.928223	-1.540000	6.160000	-1.190000	241.00	0.06	-0.01	1.50	1.50	1.50	3.00	2.25	2.50	0.00	3.25	5.75	6.75	7.00	5.00	6.50	3.25	0.50	1.50	-0.201172	0.107910	0.970703	-2.660000	-3.290000	2.450000	549.00	0.10	-0.10
1.62	1.50	1.25	2.00	2.00	1.50	0.75	0.50	0.25	2.25	1.75	1.75	1.50	1.75	4.75	0.00	0.50	-0.292969	0.102051	0.927734	-1.610000	6.160000	-1.190000	247.00	0.05	-0.01	1.75	1.75	1.50	3.25	2.25	2.50	0.00	3.50	5.75	6.75	7.00	5.00	6.50	3.25	0.50	1.50	-0.209473	0.104004	0.962402	-2.730000	-3.360000	2.450000	561.00	0.09	-0.10
1.63	1.75	1.50	2.25	2.00	1.25	1.00	0.50	0.25	2.25	2.00	1.50	1.75	1.25	4.75	0.25	0.50	-0.292480	0.102539	0.930664	-1.610000	6.370000	-1.260000	256.00	0.05	-0.01	1.50	1.75	1.50	3.00	2.50	2.50	0.00	3.25	5.75	6.75	7.00	5.00	6.75	3.25	0.50	1.25	-0.201660	0.108887	0.966309	-2.660000	-3.430000	2.520000	555.00	0.10	-0.10
1.64	1.50	1.25	2.00	1.75	1.50	0.75	0.50	0.25	2.25	1.75	1.75	1.75	1.25	4.50	0.00	0.50	-0.291992	0.102051	0.937500	-1.610000	6.370000	-1.330000	241.00	0.06	-0.00	1.50	1.50	1.25	3.25	2.25	2.75	0.00	3.50	6.00	6.75	7.25	5.00	6.50	3.25	0.75	1.50	-0.205078	0.102539	0.958008	-2.730000	-3.360000	2.520000	564.00	0.10	-0.10
1.65	1.75	1.50	2.25	2.00	1.25	0.75	0.50	0.00	2.25	2.00	1.75	1.50	1.50	4.25	0.25	0.50	-0.291992	0.104492	0.927246	-1.680000	6.510000	-1.400000	247.00	0.04	-0.00	1.50	1.50	1.75	3.25	2.25	2.50	0.00	3.50	5.75	6.75	7.00	4.75	6.75	3.50	0.50	1.50	-0.202637	0.106934	0.958496	-2.730000	-3.430000	2.660000	560.00	0.10	-0.10
1.66	1.50	1.50	2.00	2.00	1.50	0.75	0.25	0.25	2.50	2.00	2.00	1.50	1.50	4.50	0.25	0.50	-0.288574	0.106934	0.928223	-1.610000	6.510000	-1.260000	253.00	0.06	-0.01	1.50	1.50	1.50	3.50	2.50	2.50	0.00	3.25	5.75	6.50	7.00	4.75	6.50	3.25	0.50	1.50	-0.203613	0.106445	0.965820	-2.660000	-3.220000	2.590000	552.00	0.10	-0.10
1.67	1.50	1.00	2.00	1.50	1.50	0.75	0.50	0.00	2.50	1.75	1.50	1.50	1.50	4.50	0.00	0.50	-0.288086	0.104004	0.927246	-1.610000	6.370000	-1.190000	232.00	0.07	0.01	1.50	1.50	1.50	3.50	2.25	3.00	0.00	3.50	5.75	6.50	6.75	4.75	6.50	3.25	0.75	1.50	-0.203613	0.103516	0.965820	-2.590000	-3.220000	2.590000	559.00	0.09	-0.10
1.68	1.50	1.25	2.25	1.75	1.50	0.50	0.50	0.25	2.00	2.00	1.75	1.50	1.50	4.25	0.00	0.50	-0.289062	0.103027	0.932617	-1.610000	6.510000	-1.190000	238.00	0.05	-0.00	1.50	1.50	1.50	3.75	2.50	2.75	0.00	3.50	5.75	6.50	7.00	5.00	6.50	3.00	0.50	1.50	-0.201660	0.105469	0.963379	-2.590000	-3.360000	2.590000	562.00	0.09	-0.11
1.69	1.75	1.50	2.00	2.00	1.50	0.75	0.50	0.25	2.00	2.00	1.75	1.75	1.50	4.25	0.25	0.50	-0.291992	0.104492	0.927246	-1.400000	6.930000	-1.190000	251.00	0.04	-0.02	1.50	1.25	1.50	3.00	2.25	2.75	0.00	3.50	5.50	6.50	7.00	5.00	6.25	3.25	0.50	1.50	-0.206055	0.102539	0.958984	-2.590000	-3.290000	2.590000	546.00	0.10	-0.10
1.70	1.75	1.25	2.00	1.75	1.50	0.75	0.50	0.25	2.00	1.75	1.75	1.50	1.25	4.00	0.00	0.50	-0.291504	0.104980	0.928223	-1.470000	7.280000	-1.330000	233.00	0.04	-0.01	1.75	1.25	1.50	3.25	2.25	2.50	0.00	3.50	5.50	6.75	7.00	4.75	6.25	3.25	0.50	1.50	-0.202637	0.101562	0.968262	-2.590000	-3.290000	2.520000	548.00	0.10	-0.10
1.71	1.50	1.50	2.25	2.00	1.50	0.50	0.50	0.25	2.25	1.75	1.50	1.75	1.50	4.00	0.25	0.50	-0.296875	0.105469	0.930176	-1.260000	7.140000	-1.190000	244.00	0.04	-0.01	1.50	1.75	1.50	3.25	2.50	2.75	0.00	3.25	5.75	6.50	6.75	5.00	6.50	3.25	0.50	1.50	-0.207520	0.101074	0.959961	-2.590000	-3.290000	2.660000	555.00	0.09	-0.10
1.72	2.00	1.50	2.00	1.75	1.50	0.75	0.25	0.25	2.00	1.50	1.75	1.25	1.25	4.00	0.25	0.50	-0.296387	0.106934	0.933105	-1.050000	7.000000	-1.190000	232.00	0.03	-0.01	1.50	1.75	1.75	3.75	2.50	2.75	0.00	3.50	5.50	6.50	6.75	5.00	6.50	3.00	0.50	1.25	-0.206055	0.101562	0.960449	-2.730000	-3.570000	2.730000	560.00	0.09	-0.11
1.73	1.50	1.25	2.00	1.75	1.50	0.50	0.25	0.25	1.75	1.50	1.50	1.25	1.25	4.00	0.00	0.50	-0.291992	0.103516	0.934570	-1.190000	6.930000	-1.190000	213.00	0.04	-0.01	1.50	1.50	1.75	3.75	2.50	2.75	0.00	3.50	5.50	6.25	7.00	5.00	6.25	3.00	0.50	1.50	-0.208984	0.100586	0.959961	-2.520000	-3.710000	2.660000	557.00	0.09	-0.11
1.74	2.00	1.50	2.25	1.75	1.50	0.75	0.25	0.25	1.75	1.25	1.50	1.25	1.25	4.00	0.00	0.25	-0.291992	0.098633	0.926758	-0.910000	7.420000	-1.330000	222.00	0.01	-0.01	1.25	1.50	1.75	3.75	2.50	3.00	0.00	3.75	5.75	6.25	7.00	4.75	6.50	3.00	0.50	1.50	-0.202637	0.105957	0.969727	-2.520000	-3.850000	2.870000	564.00	0.09	-0.11
1.75	1.75	1.50	2.25	1.75	1.25	0.75	0.25	0.25	1.75	1.25	1.25	1.25	1.25	4.00	0.00	0.25	-0.294922	0.103516	0.929199	-0.910000	7.770000	-1.190000	214.00	0.01	-0.01	1.75	1.50	1.75	3.75	2.50	2.75	0.00	3.75	5.50	6.50	7.00	5.00	6.50	3.00	0.50	1.25	-0.204590	0.104492	0.965820	-2.730000	-4.270000	2.870000	567.00	0.08	-0.11
1.76	1.50	1.00	2.25	1.75	1.25	0.75	0.25	0.00	1.50	1.50	1.25	1.25	1.00	4.00	0.00	0.50	-0.288086	0.104980	0.933105	-0.980000	8.400000	-1.190000	202.00	0.03	-0.00	1.50	1.75	1.75	4.00	2.50	3.25	0.00	3.75	5.50	6.25	7.00	5.00	6.25	3.00	0.50	1.50	-0.205078	0.104004	0.961914	-3.150000	-4.970000	2.940000	571.00	0.08	-0.11
1.77	1.50	1.50	2.25	1.75	1.25	0.50	0.25	0.00	1.25	1.25	1.25	1.00	1.25	3.75	0.00	0.25	-0.292480	0.108398	0.927246	-1.470000	9.030000	-1.330000	194.00	0.01	-0.01	2.00	2.25	1.75	4.25	2.50	3.50	0.00	4.25	5.25	6.25	6.75	4.75	6.75	3.00	0.50	1.50	-0.203613	0.103516	0.954102	-3.360000	-5.530000	3.150000	590.00	0.07	-0.12
1.78	1.50	1.00	2.00	1.50	1.25	0.50	0.50	0.00	1.25	1.25	1.00	0.75	0.75	3.50	0.00	0.25	-0.298828	0.106445	0.936035	-1.820000	9.310000	-1.260000	176.00	0.01	0.02	2.00	2.25	1.75	4.75	2.50	3.75	0.00	4.50	5.25	6.25	6.75	5.00	6.75	3.00	0.50	1.50	-0.206055	0.102051	0.958008	-3.640000	-6.160000	3.290000	604.00	0.06	-0.12
1.79	1.50	1.25	2.00	1.50	1.25	0.50	0.25	0.00	0.75	1.25	0.75	0.75	0.75	3.25	0.00	0.25	-0.298340	0.110840	0.931152	-2.100000	9.520000	-1.190000	163.00	-0.01	0.00	1.50	2.00	2.00	4.75	2.50	4.00	0.00	5.00	5.25	6.25	7.00	5.25	7.25	3.00	0.50	1.50	-0.196289	0.105957	0.970703	-3.500000	-6.090000	3.150000	620.00	0.07	-0.13
1.80	1.75	1.25	2.00	1.50	1.00	0.50	0.25	0.00	1.25	1.00	1.00	0.75	0.50	3.00	0.00	0.00	-0.376465	0.134766	0.919434	-2.310000	9.940000	-1.190000	164.00	-0.02	0.02	2.00	2.25	2.00	5.25	2.75	4.25	0.00	5.25	5.25	6.25	7.00	5.00	7.00	3.00	0.50	1.50	-0.199707	0.102539	0.968750	-3.080000	-5.740000	3.220000	637.00	0.06	-0.13
1.81	1.25	1.25	1.75	1.50	1.00	0.25	0.25	0.00	0.75	1.00	0.75	0.75	0.25	3.25	0.00	0.25	-0.288574	0.105957	0.930176	-2.660000	10.570000	-1.260000	145.00	-0.00	0.01	2.00	2.50	2.00	5.50	2.75	4.75	0.00	5.25	5.00	6.00	6.75	5.00	7.25	2.75	0.50	1.50	-0.196289	0.106934	0.965820	-2.520000	-4.970000	3.360000	639.00	0.05	-0.14
1.82	1.50	1.00	1.75	1.25	1.25	0.25	0.25	0.00	0.50	1.00	0.50	0.50	0.50	2.75	0.00	0.00	-0.286621	0.107422	0.934570	-3.430000	11.200000	-1.540000	133.00	-0.03	0.02	2.25	2.75	2.00	5.50	2.75	5.00	0.00	5.50	5.00	6.00	7.00	5.00	7.25	2.50	0.50	1.50	-0.208984	0.107910	0.958008	-2.170000	-4.620000	3.570000	651.00	0.04	-0.14
1.83	1.50	0.75	1.75	1.00	1.00	0.25	0.25	0.00	0.75	0.75	0.50	0.25	0.25	2.75	0.00	0.00	-0.294434	0.106934	0.934570	-4.130000	10.850000	-1.750000	121.00	-0.02	0.05	2.25	2.75	2.25	5.75	2.75	5.25	0.00	5.75	5.00	5.50	6.50	5.00	7.25	2.50	0.50	1.50	-0.201660	0.101562	0.963867	-1.680000	-4.410000	3.780000	653.00	0.04	-0.14
1.84	1.25	1.00	1.50	1.00	1.00	0.00	0.25	0.00	0.75	0.75	0.50	0.00	0.25	2.75	0.00	0.00	-0.299316	0.098633	0.932129	-4.270000	10.010000	-1.680000	113.00	-0.02	0.06	2.50	3.50	2.25	6.00	3.00	5.25	0.00	6.00	4.50	5.50	6.25	5.00	7.00	2.25	0.50	1.50	-0.200195	0.103516	0.964355	-1.260000	-4.410000	3.850000	658.00	0.02	-0.14
1.85	1.25	1.00	1.50	1.25	0.75	0.00	0.25	0.00	0.50	0.75	0.25	0.25	0.25	2.50	0.00	0.00	-0.297363	0.101562	0.933105	-4.060000	9.730000	-1.610000	108.00	-0.04	0.03	2.50	4.00	2.50	7.00	3.00	6.00	0.00	6.00	4.00	5.50	5.75	4.75	7.00	2.75	0.50	1.25	-0.200684	0.104004	0.967773	-0.980000	-4.340000	3.920000	673.00	0.01	-0.15
1.86	1.00	0.75	1.50	1.00	0.75	0.00	0.25	0.00	0.25	0.75	0.00	0.00	0.25	2.75	0.00	0.00	-0.305664	0.102051	0.938477	-3.850000	9.520000	-1.610000	94.00	-0.03	0.05	3.00	4.00	2.75	7.50	3.00	6.25	0.00	6.25	3.75	5.00	5.75	4.75	7.25	2.00	0.50	1.50	-0.200195	0.103516	0.965820	-0.770000	-4.130000	3.850000	682.00	-0.01	-0.16
1.87	1.25	0.75	1.50	0.75	0.75	0.00	0.25	0.00	0.25	0.75	0.25	0.00	0.25	2.50	0.00	0.00	-0.291016	0.096680	0.888672	-3.500000	9.520000	-1.400000	94.00	-0.03	0.06	3.25	4.50	3.00	7.75	3.00	6.75	0.00	6.25	3.50	5.00	5.50	4.75	7.25	2.00	0.50	1.50	-0.197266	0.095215	0.959961	-0.560000	-3.990000	3.780000	694.00	-0.01	-0.16
1.88	1.00	1.00	1.25	1.00	0.75	0.00	0.25	0.00	0.25	0.75	0.25	0.00	0.00	2.50	0.00	0.00	-0.300293	0.100586	0.918945	-3.290000	9.240000	-1.120000	91.00	-0.04	0.05	3.25	5.00	3.00	8.25	3.00	7.25	0.00	6.50	3.50	4.75	5.50	4.75	7.25	2.00	0.50	1.25	-0.200195	0.104492	0.970703	-0.700000	-4.340000	3.570000	709.00	-0.02	-0.16
1.89	1.25	0.50	1.25	0.75	0.75	0.00	0.25	0.00	0.25	0.50	0.00	0.00	0.00	2.25	0.00	0.00	-0.311035	0.099121	0.928223	-2.240000	8.330000	-0.840000	79.00	-0.05	0.08	3.50	5.25	3.25	8.50	3.25	7.75	0.00	6.75	2.75	4.25	5.25	4.75	7.50	2.00	0.50	1.25	-0.202637	0.122559	0.963379	-1.120000	-4.550000	3.640000	716.00	-0.03	-0.17
1.90	1.25	1.00	1.25	0.75	0.50	0.00	0.25	0.00	0.00	0.50	0.25	0.00	0.00	2.00	0.00	0.00	-0.320801	0.106934	0.927734	-1.330000	6.650000	0.000000	78.00	-0.08	0.05	3.50	5.50	3.25	9.00	3.50	7.75	0.00	6.75	3.00	4.25	5.25	4.50	7.50	2.00	0.50	1.50	-0.188477	0.110352	0.968262	-1.330000	-4.480000	3.640000	729.00	-0.04	-0.17
1.91	1.00	0.75	1.50	0.75	0.50	0.00	0.25	0.00	0.25	0.50	0.00	0.00	0.00	1.75	0.00	0.00	-0.276855	0.109375	0.979492	-0.350000	7.280000	1.260000	75.00	-0.08	0.06	4.00	5.75	3.50	9.25	3.25	8.25	0.00	6.75	2.50	4.25	5.00	4.75	7.50	1.75	0.75	1.25	-0.204590	0.111328	0.961914	-1.330000	-4.480000	3.500000	737.00	-0.05	-0.17
1.92	1.25	0.50	1.25	0.75	0.75	0.00	0.25	0.00	0.00	0.25	0.00	0.00	0.00	1.75	0.00	0.00	-0.355469	0.097656	0.893555	1.330000	4.060000	1.120000	69.00	-0.10	0.06	4.25	6.25	3.75	9.50	3.50	8.50	0.00	7.00	2.75	4.00	5.00	4.75	7.50	1.75	0.25	1.25	-0.193848	0.103027	0.965332	-1.400000	-4.410000	3.430000	754.00	-0.05	-0.17
1.93	1.00	0.75	1.25	1.00	0.50	0.00	0.25	0.00	0.00	0.25	0.00	0.00	0.00	2.00	0.00	0.00	-0.317383	0.128906	0.928711	2.240000	3.290000	0.770000	71.00	-0.09	0.05	4.75	7.00	3.75	9.75	3.50	8.75	0.00	7.00	2.25	4.00	5.00	4.50	7.50	1.75	0.25	1.25	-0.194824	0.108398	0.961914	-1.470000	-4.200000	3.430000	763.00	-0.06	-0.17
1.94	1.25	0.50	1.25	0.75	0.75	0.00	0.25	0.00	0.00	0.00	0.00	0.00	0.00	1.25	0.00	0.00	-0.301758	0.107422	0.982910	2.310000	1.750000	0.840000	62.00	-0.15	0.05	4.75	7.25	4.00	10.00	3.50	9.00	0.00	7.00	2.25	3.75	5.00	5.00	7.25	1.75	0.50	1.25	-0.196777	0.109375	0.962402	-1.260000	-3.780000	3.360000	777.00	-0.07	-0.17
1.95	1.25	1.00	1.25	0.75	0.50	0.00	0.25	0.00	0.00	0.00	0.00	0.00	0.00	1.50	0.00	0.00	-0.297363	0.093750	0.930176	1.820000	-1.540000	1.050000	66.00	-0.15	0.04	5.25	7.75	4.00	10.25	3.75	9.25	0.00	7.25	1.75	3.75	4.50	4.50	7.50	1.75	0.25	1.25	-0.198242	0.104004	0.965820	-0.910000	-3.360000	3.360000	781.00	-0.08	-0.17
1.96	1.00	0.75	1.25	0.50	0.75	0.00	0.25	0.00	0.00	0.00	0.00	0.00	0.00	1.25	0.00	0.00	-0.287109	0.116211	0.907227	1.260000	0.280000	0.490000	59.00	-0.15	0.06	5.75	8.00	4.50	10.75	3.75	9.25	0.00	7.25	1.50	3.75	4.25	4.50	7.50	1.50	0.25	1.25	-0.200684	0.106934	0.968750	-0.280000	-2.730000	3.430000	791.00	-0.09	-0.17
1.97	1.25	1.25	1.25	0.75	0.75	0.00	0.25	0.00	0.00	0.00	0.00	0.00	0.00	1.50	0.00	0.00	-0.280273	0.104492	0.912598	-0.000000	1.120000	0.070000	71.00	-0.16	0.04	6.00	8.25	4.50	10.75	3.75	9.50	0.00	7.25	1.75	3.50	4.25	4.50	7.50	1.50	0.50	1.25	-0.201660	0.105957	0.964844	0.280000	-2.100000	3.640000	802.00	-0.09	-0.17
1.98	1.25	1.00	1.25	1.00	0.50	0.00	0.25	0.00	0.00	0.00	0.00	0.00	0.00	1.25	0.00	0.00	-0.331055	0.111328	0.905762	2.030000	-1.260000	0.560000	67.00	-0.18	0.03	6.25	8.75	4.25	11.00	3.75	9.50	0.00	7.25	1.75	3.00	4.25	4.50	7.50	1.50	0.25	1.00	-0.193848	0.104492	0.968262	0.910000	-1.540000	3.640000	800.00	-0.10	-0.17
1.99	1.25	1.00	1.25	1.00	0.50	0.00	0.25	0.00	0.00	0.00	0.00	0.00	0.00	1.00	0.00	0.00	-0.282715	0.094238	0.919434	2.940000	-0.980000	0.420000	65.00	-0.20	0.02	6.50	9.00	4.50	11.25	3.75	9.75	0.00	7.25	1.25	3.00	3.75	4.50	7.50	1.50	0.50	1.00	-0.205078	0.108398	0.970703	1.400000	-1.190000	3.640000	804.00	-0.10	-0.18
2.00	1.50	0.75	1.25	1.00	0.75	0.00	0.25	0.00	0.00	0.00	0.00	0.00	0.00	1.25	0.00	0.00	-0.277344	0.101562	0.896484	2.940000	0.280000	-0.140000	70.00	-0.18	0.04	6.50	9.00	4.75	11.25	3.50	9.75	0.00	7.25	1.50	3.00	3.75	4.25	7.25	1.25	0.25	1.00	-0.197266	0.110840	0.966309	1.820000	-0.630000	3.710000	798.00	-0.11	-0.17
2.01	1.50	0.75	1.50	0.75	0.75	0.00	0.25	0.00	0.00	0.00	0.00	0.00	0.00	1.00	0.00	0.00	-0.288574	0.098633	0.918945	4.200000	1.540000	-0.560000	68.00	-0.19	0.05	6.75	9.25	4.75	11.50	3.50	10.00	0.00	7.25	1.00	2.75	3.50	4.25	7.25	1.25	0.25	1.00	-0.177734	0.117188	0.974609	2.240000	-0.070000	3.640000	797.00	-0.11	-0.18
2.02	1.50	1.25	1.50	1.25	0.75	0.25	0.25	0.00	0.00	0.00	0.00	0.00	0.00	0.50	0.00	0.00	-0.295898	0.102051	0.927734	5.250000	1.960000	-0.980000	76.00	-0.25	-0.00	6.50	9.25	4.50	11.50	3.50	10.00	0.00	7.25	1.00	2.75	3.50	4.00	7.25	1.25	0.25	1.00	-0.206055	0.110840	0.951660	2.310000	0.280000	3.500000	788.00	-0.11	-0.18
2.03	1.50	1.25	1.50	1.25	0.75	0.25	0.00	0.00	0.00	0.00	0.00	0.00	0.00	1.00	0.00	0.00	-0.290527	0.107422	0.930176	5.950000	1.330000	-1.260000	77.00	-0.23	-0.01	7.25	9.50	5.25	11.50	3.50	10.00	0.00	7.00	1.25	2.75	3.00	3.75	6.75	1.50	0.25	1.00	-0.180664	0.116211	0.965820	1.890000	0.000000	3.360000	796.00	-0.12	-0.17
2.04	1.75	1.25	1.50	1.25	0.50	0.00	0.25	0.00	0.00	0.00	0.00	0.00	0.00	1.25	0.00	0.00	-0.280273	0.098633	0.900879	6.020000	1.750000	-2.030000	80.00	-0.21	0.02	7.50	9.50	5.25	11.75	3.50	10.00	0.00	7.00	1.00	2.75	3.25	3.75	7.25	1.25	0.25	1.00	-0.190430	0.110840	0.952148	1.050000	-0.630000	3.220000	803.00	-0.12	-0.17
2.05	1.75	1.25	1.75	1.50	0.75	0.00	0.25	0.00	0.00	0.00	0.00	0.00	0.00	1.25	0.00	0.00	-0.261230	0.119141	0.885742	5.670000	3.990000	-2.450000	88.00	-0.21	0.02	7.25	9.50	5.00	11.75	3.50	9.75	0.00	7.25	1.00	2.75	3.00	4.00	7.00	1.25	0.25	1.00	-0.169922	0.115723	0.956543	-0.840000	-1.960000	3.150000	797.00	-0.12	-0.17
2.06	2.00	1.75	1.75	1.50	1.00	0.25	0.25	0.00	0.00	0.00	0.00	0.00	0.00	1.00	0.00	0.00	-0.275879	0.123535	0.904297	5.110000	6.440000	-2.310000	99.00	-0.23	-0.00	7.25	9.50	5.00	11.75	3.50	10.00	0.00	7.00	1.25	2.75	3.25	4.25	7.00	1.00	0.25	1.00	-0.188965	0.118164	0.956543	-2.940000	-3.080000	2.590000	802.00	-0.12	-0.17
2.07	2.00	1.75	2.00	1.50	0.75	0.25	0.25	0.00	0.00	0.00	0.00	0.00	0.00	1.00	0.00	0.00	-0.280762	0.115723	0.906250	3.710000	8.540000	-2.240000	99.00	-0.24	0.00	7.00	9.25	5.00	11.50	3.50	9.75	0.00	7.25	1.00	2.75	3.25	4.25	7.25	1.50	0.00	1.00	-0.193848	0.112793	0.960938	-4.200000	-3.710000	2.240000	796.00	-0.12	-0.18
2.08	2.00	1.25	2.25	1.75	1.00	0.25	0.25	0.00	0.00	0.00	0.00	0.00	0.00	1.00	0.00	0.00	-0.280762	0.121582	0.914551	2.450000	10.220000	-2.170000	103.00	-0.23	0.01	7.00	9.00	4.75	11.25	3.25	9.75	0.00	7.25	1.25	2.75	3.50	4.25	7.50	1.25	0.25	1.00	-0.192383	0.108887	0.958984	-5.110000	-4.340000	1.890000	794.00	-0.11	-0.18
2.09	2.50	1.75	2.25	2.00	1.00	0.50	0.25	0.00	0.00	0.00	0.00	0.00	0.00	1.25	0.00	0.00	-0.285645	0.116211	0.919434	1.400000	11.410000	-2.170000	120.00	-0.23	-0.00	6.75	8.75	4.75	11.00	3.25	9.75	0.00	7.50	1.25	3.00	3.50	4.25	7.50	1.50	0.50	1.00	-0.197266	0.110840	0.960938	-5.320000	-4.550000	1.820000	798.00	-0.10	-0.18
2.10	2.75	2.25	2.50	2.50	1.00	0.50	0.25	0.00	0.00	0.00	0.00	0.00	0.00	1.50	0.00	0.00	-0.291992	0.121582	0.931641	0.630000	11.550000	-1.960000	137.00	-0.23	-0.01	6.25	8.25	4.50	10.75	3.25	9.50	0.00	7.50	1.25	2.75	3.75	4.75	7.50	1.50	0.25	1.00	-0.192383	0.105469	0.967773	-4.830000	-4.410000	1.820000	782.00	-0.10	-0.18
2.11	3.25	2.50	2.50	2.50	1.25	1.00	0.25	0.00	0.00	0.00	0.00	0.00	0.00	1.25	0.00	0.00	-0.296875	0.118652	0.930664	-0.000000	10.710000	-1.680000	151.00	-0.25	-0.02	5.75	7.75	4.25	10.25	3.00	9.25	0.00	7.75	1.25	3.00	3.75	5.00	7.75	1.50	0.25	1.00	-0.200684	0.110352	0.972168	-4.060000	-3.780000	1.890000	770.00	-0.09	-0.18
2.12	3.50	2.75	3.00	3.00	1.25	0.75	0.25	0.00	0.00	0.00	0.00	0.00	0.00	1.25	0.00	0.00	-0.297363	0.118652	0.922363	-0.840000	10.430000	-1.680000	164.00	-0.25	-0.02	5.50	7.25	4.00	10.00	3.00	9.25	0.00	7.75	1.25	3.25	3.75	5.00	8.00	1.50	0.25	1.00	-0.196289	0.112305	0.977051	-2.940000	-2.800000	1.820000	762.00	-0.08	-0.19
2.13	4.25	3.00	3.25	3.50	1.25	1.00	0.25	0.00	0.00	0.00	0.00	0.00	0.00	1.75	0.00	0.00	-0.298340	0.120117	0.926758	-1.540000	10.080000	-1.470000	190.00	-0.25	-0.02	4.75	6.50	3.25	9.50	3.00	9.00	0.00	7.75	1.50	3.25	4.25	5.25	8.00	1.50	0.25	1.00	-0.198242	0.108887	0.969238	-1.680000	-1.470000	1.750000	742.00	-0.07	-0.19
2.14	5.50	4.00	3.75	4.25	1.50	1.00	0.25	0.00	0.00	0.00	0.00	0.00	0.00	1.50	0.00	0.00	-0.289551	0.112793	0.912598	-2.450000	10.290000	-1.470000	226.00	-0.27	-0.02	4.25	5.75	3.00	8.75	2.75	8.75	0.00	7.75	1.25	3.25	4.75	5.75	8.25	1.50	0.00	1.00	-0.195801	0.108398	0.965820	-0.420000	-0.140000	1.750000	720.00	-0.06	-0.20
2.15	6.75	4.00	4.25	4.75	1.75	1.50	0.25	0.00	0.00	0.25	0.00	0.00	0.00	1.50	0.00	0.00	-0.291992	0.119141	0.925293	-3.570000	10.500000	-1.540000	261.00	-0.27	-0.02	3.00	5.00	2.50	8.00	2.75	8.75	0.00	7.75	1.50	3.50	5.00	6.00	8.50	1.50	0.50	1.25	-0.192871	0.110352	0.969238	1.050000	1.190000	1.470000	706.00	-0.03	-0.20
2.16	8.50	4.75	5.50	5.25	1.75	1.50	0.25	0.00	0.25	0.00	0.00	0.00	0.00	1.50	0.00	0.00	-0.299316	0.112793	0.943359	-3.430000	9.590000	-1.330000	306.00	-0.28	-0.01	2.25	3.75	2.00	7.00	2.25	8.25	0.00	7.75	1.75	3.50	6.00	7.00	8.50	1.25	0.25	1.50	-0.205078	0.112793	0.975586	2.940000	3.430000	1.470000	681.00	-0.01	-0.21
2.17	9.50	5.50	6.00	5.75	2.00	2.00	0.25	0.00	0.00	0.00	0.00	0.00	0.00	1.50	0.00	0.00	-0.288086	0.111816	0.909668	-3.780000	8.960000	-1.260000	339.00	-0.29	-0.02	1.75	2.25	1.75	5.50	2.00	7.75	0.00	7.75	1.50	4.00	7.00	7.50	8.75	2.00	0.25	1.50	-0.210449	0.114258	0.994141	5.390000	6.580000	1.750000	660.00	0.02	-0.21
2.18	11.75	6.75	6.75	7.00	2.25	2.00	0.25	0.00	0.00	0.00	0.00	0.00	0.00	1.25	0.00	0.00	-0.290039	0.113770	0.918945	-4.410000	9.310000	-1.330000	397.00	-0.30	-0.02	1.25	1.25	1.50	4.00	1.75	6.75	0.00	7.50	1.50	4.25	7.50	7.75	9.25	2.25	0.50	1.50	-0.199707	0.115234	0.991699	8.960000	10.920000	2.100000	629.00	0.06	-0.21
2.19	14.00	8.25	7.75	8.00	2.25	2.50	0.25	0.00	0.00	0.00	0.00	0.00	0.00	2.00	0.00	0.00	-0.284180	0.119141	0.898438	-5.180000	9.100000	-1.470000	468.00	-0.30	-0.02	1.00	1.00	0.75	2.50	1.25	5.75	0.00	7.25	1.75	4.50	7.75	8.00	9.00	2.00	0.50	1.50	-0.212891	0.109863	0.996094	13.440001	16.590000	2.170000	586.00	0.08	-0.22
2.20	16.75	10.00	8.25	9.25	2.75	3.25	0.25	0.00	0.00	0.00	0.00	0.00	0.00	1.75	0.00	0.00	-0.292969	0.109863	0.931152	-5.180000	9.660000	-1.330000	543.00	-0.30	-0.03	0.50	0.25	0.50	1.25	0.75	3.75	0.00	6.50	1.75	4.50	8.25	8.50	9.50	1.75	0.25	1.75	-0.223145	0.107422	0.985352	17.150000	23.240000	2.030000	530.00	0.12	-0.22
2.21	18.75	11.50	8.75	10.00	3.00	4.00	0.25	0.25	0.00	0.25	0.00	0.00	0.00	1.75	0.00	0.00	-0.300781	0.113281	0.938477	-3.990000	6.230000	-1.330000	609.00	-0.30	-0.03	0.50	0.25	0.25	0.50	0.50	2.00	0.00	5.75	1.50	4.25	8.50	8.75	9.25	1.75	0.25	1.75	-0.169434	0.140137	1.055664	15.680000	26.950001	0.910000	483.00	0.14	-0.22
2.22	21.00	13.75	9.25	11.25	3.25	4.50	0.25	0.00	0.25	0.25	0.00	0.00	0.00	1.75	0.00	0.00	-0.299805	0.113770	0.942871	-2.380000	4.480000	-1.190000	680.00	-0.31	-0.03	0.25	0.50	0.00	0.50	0.50	1.00	0.00	4.75	1.25	4.00	8.50	9.00	9.00	1.75	0.50	2.00	-0.248047	0.100098	0.907227	31.010000	70.840004	-6.300000	453.00	0.16	-0.22
2.23	22.50	15.25	10.00	13.00	3.50	5.50	0.50	0.25	0.25	0.00	0.00	0.00	0.00	1.75	0.00	0.00	-0.294434	0.114746	0.940430	-1.190000	3.500000	-1.120000	755.00	-0.30	-0.04	0.25	0.00	0.00	0.00	0.25	0.50	0.00	3.00	1.00	4.00	8.25	8.75	8.50	1.75	0.50	1.75	-0.227051	0.186035	1.267578	38.570000	124.739998	-10.710000	393.00	0.19	-0.22
2.24	24.50	17.25	10.75	14.25	3.50	6.25	0.50	0.00	0.25	0.50	0.00	0.00	0.00	2.00	0.00	0.00	-0.301270	0.119629	0.945312	-0.980000	3.080000	-1.190000	828.00	-0.30	-0.04	0.00	0.00	0.00	0.00	0.25	0.25	0.00	1.50	1.00	3.50	7.75	8.25	7.50	1.50	0.50	1.50	-0.306641	0.163574	1.364746	41.090000	170.449997	-14.000000	337.00	0.20	-0.21
2.25	26.00	19.00	11.25	15.50	4.00	7.25	0.50	0.25	0.25	0.50	0.00	0.00	0.00	2.00	0.00	0.00	-0.294922	0.119141	0.931152	-0.840000	2.590000	-1.120000	899.00	-0.30	-0.05	0.00	0.00	0.00	0.00	0.00	0.00	0.00	0.75	1.00	3.25	7.25	7.50	6.00	1.50	0.25	1.25	-0.270020	0.185059	1.305664	44.240002	213.500000	-20.370001	288.00	0.22	-0.19
2.26	27.50	20.25	11.50	16.50	4.75	7.75	0.50	0.25	0.25	0.50	0.00	0.00	0.00	1.50	0.00	0.00	-0.289551	0.111328	0.931152	-0.980000	2.380000	-1.260000	949.00	-0.31	-0.05	0.00	0.00	0.00	0.00	0.00	0.00	0.00	0.25	0.50	2.75	5.75	6.00	3.50	1.00	0.25	1.00	-0.297363	0.309570	1.633789	25.480000	237.089996	-24.219999	210.00	0.22	-0.18
2.27	28.00	21.25	12.50	17.25	4.75	8.25	0.50	0.50	0.50	0.50	0.25	0.25	0.25	1.75	0.00	0.00	-0.297852	0.119629	0.943848	-1.400000	2.380000	-1.330000	1005.00	-0.30	-0.05	0.00	0.00	0.00	0.00	0.00	0.00	0.00	0.00	0.25	2.25	4.00	4.25	1.75	0.75	0.00	0.75	-0.104492	0.194824	1.845215	9.800000	265.510010	-32.130001	139.00	0.23	-0.16
2.28	28.50	22.00	12.50	18.00	5.00	8.50	0.50	0.25	0.75	0.50	0.00	0.00	0.25	2.00	0.00	0.00	-0.294922	0.117188	0.931641	-2.100000	2.870000	-1.400000	1027.00	-0.30	-0.05	0.00	0.00	0.00	0.00	0.00	0.00	0.00	0.00	0.25	2.00	3.00	2.75	0.25	0.75	0.00	0.25	-0.554199	0.351074	1.665039	-15.260000	278.739990	-43.259998	95.00	0.24	-0.11
2.29	29.50	22.25	12.75	18.25	5.00	8.75	0.50	0.50	0.75	0.50	0.25	0.25	0.25	2.00	0.00	0.00	-0.288086	0.112793	0.926270	-2.590000	2.940000	-1.470000	1057.00	-0.30	-0.05	0.00	0.00	0.00	0.00	0.00	0.00	0.00	0.00	0.25	2.00	2.50	2.00	0.00	0.75	0.00	0.25	-0.712402	0.303223	1.705078	-35.000000	269.640015	-49.840000	79.00	0.24	-0.08
2.30	28.50	22.25	13.00	18.25	5.00	9.00	0.50	0.25	0.25	0.50	0.00	0.00	0.25	1.75	0.00	0.00	-0.287598	0.116211	0.935547	-2.870000	3.150000	-1.680000	1035.00	-0.30	-0.05	0.00	0.00	0.00	0.00	0.00	0.00	0.00	0.00	0.25	2.00	1.50	1.50	0.00	0.50	0.00	0.00	-0.138672	0.512695	1.679688	-77.840004	215.740005	-70.000000	60.00	0.24	-0.06
2.31	28.25	22.00	13.00	18.50	5.00	9.25	0.50	0.50	0.50	0.75	0.25	0.25	0.50	2.25	0.00	0.00	-0.292969	0.109863	0.933105	-2.940000	3.430000	-1.610000	1057.00	-0.29	-0.05	0.00	0.00	0.00	0.00	0.00	0.00	0.00	0.00	0.00	1.00	1.25	1.25	0.00	0.75	0.00	0.00	0.320801	0.844238	1.899902	-126.139999	158.199997	-65.590004	43.00	0.00	0.00
2.32	27.50	21.50	12.50	18.25	5.00	9.25	0.50	0.50	0.75	0.75	0.25	0.25	0.25	2.00	0.00	0.00	-0.288574	0.113281	0.927734	-3.080000	4.060000	-1.680000	1035.00	-0.29	-0.05	0.00	0.00	0.00	0.00	0.00	0.00	0.00	0.00	0.00	1.00	0.75	0.75	0.00	0.25	0.00	0.00	0.473145	1.123535	1.463379	-171.220001	89.250000	-42.770000	28.00	0.00	0.00
2.33	26.75	21.25	12.25	18.00	5.00	9.50	0.50	0.50	0.75	0.75	0.50	0.25	0.50	2.00	0.00	0.00	-0.290527	0.113281	0.928223	-3.080000	4.060000	-1.680000	1027.00	-0.29	-0.06	0.00	0.00	0.00	0.00	0.00	0.00	0.00	0.00	0.00	0.50	0.75	0.50	0.00	0.00	0.00	0.00	0.402832	1.181641	0.999512	-184.380005	57.610001	-21.700001	18.00	0.00	0.00
2.34	26.00	20.50	12.25	17.75	5.00	9.50	0.50	0.50	1.00	0.75	0.50	0.25	0.50	2.00	0.00	0.00	-0.290039	0.113281	0.933105	-3.430000	3.500000	-1.820000	1013.00	-0.28	-0.06	0.00	0.00	0.00	0.00	0.00	0.00	0.00	0.00	0.00	0.75	0.50	0.25	0.00	0.25	0.00	0.00	0.533691	1.274414	1.143555	-160.300003	22.049999	-9.520000	18.00	0.00	0.00
2.35	25.75	20.00	11.75	17.50	5.00	9.75	0.50	0.50	1.25	1.00	0.50	0.50	0.75	2.50	0.00	0.00	-0.291016	0.114258	0.936523	-3.080000	3.290000	-1.750000	1015.00	-0.27	-0.06	0.00	0.00	0.00	0.00	0.00	0.00	0.00	0.00	0.00	0.50	0.50	0.25	0.00	0.25	0.00	0.00	0.494141	1.219238	0.766602	-105.629997	1.190000	-2.660000	15.00	0.00	0.00
2.36	24.25	19.00	11.50	17.25	5.25	9.75	0.50	0.75	0.75	0.75	0.50	0.50	0.50	2.25	0.00	0.00	-0.294434	0.110352	0.939941	-2.170000	3.360000	-1.610000	978.00	-0.28	-0.06	0.00	0.00	0.00	0.00	0.00	0.00	0.00	0.00	0.00	0.25	0.75	0.25	0.00	0.25	0.00	0.00	0.583008	1.063965	0.642578	-57.470001	-6.440000	1.890000	15.00	0.00	0.00
2.37	23.50	18.75	11.25	16.75	5.25	10.00	0.50	0.75	0.75	0.75	0.75	0.50	0.75	2.00	0.00	0.00	-0.291504	0.115723	0.925293	-0.910000	3.710000	-1.540000	965.00	-0.27	-0.06	0.00	0.00	0.00	0.00	0.00	0.00	0.00	0.00	0.00	0.25	0.25	0.25	0.00	0.50	0.00	0.00	0.608887	0.998535	0.774902	-32.340000	-16.730000	8.960000	12.00	0.00	0.00
2.38	22.50	18.25	11.25	16.50	5.25	10.25	0.50	0.75	0.75	1.00	1.00	0.50	0.75	2.50	0.00	0.25	-0.286133	0.116699	0.926270	-0.280000	3.150000	-1.610000	961.00	-0.26	-0.06	0.00	0.00	0.00	0.00	0.00	0.00	0.00	0.00	0.00	0.50	0.25	0.00	0.00	0.00	0.00	0.00	0.614258	0.919922	0.850098	-24.850000	-32.970001	21.840000	8.00	0.00	0.00
2.39	21.75	17.50	11.00	16.75	5.25	10.50	0.50	1.00	0.75	1.00	1.25	0.75	1.00	2.25	0.00	0.00	-0.285156	0.116211	0.927246	-0.210000	2.520000	-1.540000	956.00	-0.26	-0.07	0.00	0.00	0.00	0.00	0.00	0.00	0.00	0.00	0.00	0.25	0.25	0.00	0.00	0.00	0.00	0.00	0.650391	0.913086	0.827148	-26.040001	-51.660000	38.849998	5.00	0.00	0.00
2.40	20.75	16.75	10.50	16.50	5.25	11.00	0.50	1.00	0.75	1.25	1.00	1.00	1.25	2.25	0.00	0.00	-0.289551	0.119141	0.922363	-0.140000	2.030000	-1.540000	941.00	-0.25	-0.07	0.00	0.00	0.00	0.00	0.00	0.00	0.00	0.00	0.00	0.25	0.25	0.00	0.00	0.00	0.00	0.00	0.614258	0.892090	0.795410	-25.200001	-69.790001	55.930000	5.00	0.00	0.00
2.41	19.50	15.75	10.50	16.00	5.25	11.00	0.50	1.00	0.75	1.25	1.00	1.00	1.25	2.50	0.00	0.25	-0.281738	0.120117	0.931152	-0.000000	1.400000	-1.400000	917.00	-0.25	-0.07	0.00	0.00	0.00	0.00	0.00	0.00	0.00	0.00	0.00	0.50	0.00	0.00	0.00	0.00	0.00	0.00	0.559570	0.861328	0.760254	-16.030001	-84.070000	70.070000	5.00	0.00	0.00
2.42	18.50	15.50	10.00	15.75	5.25	11.50	0.50	1.25	1.25	1.00	1.25	1.25	1.50	2.25	0.00	0.25	-0.284668	0.116211	0.928223	-0.140000	0.840000	-1.470000	914.00	-0.24	-0.08	0.00	0.00	0.00	0.00	0.00	0.00	0.00	0.00	0.00	0.25	0.00	0.00	0.00	0.00	0.00	0.00	0.540039	0.806152	0.719727	-0.140000	-94.290001	81.340004	3.00	0.00	0.00
2.43	17.50	14.50	9.75	15.75	5.25	11.50	0.50	1.50	1.25	1.25	1.50	1.75	1.75	2.25	0.00	0.00	-0.282227	0.115723	0.931152	-0.350000	-0.070000	-1.610000	907.00	-0.23	-0.08	0.00	0.00	0.00	0.00	0.00	0.00	0.00	0.00	0.00	0.50	0.00	0.00	0.00	0.00	0.00	0.00	0.476562	0.770020	0.768555	13.860000	-109.410004	90.510002	5.00	0.00	0.00
2.44	16.50	13.75	9.75	15.50	5.25	12.25	0.50	1.50	1.00	1.25	1.75	2.00	1.75	2.50	0.00	0.25	-0.281738	0.120117	0.925781	-0.770000	-1.050000	-1.820000	901.00	-0.22	-0.09	0.00	0.00	0.00	0.00	0.00	0.00	0.00	0.00	0.00	0.00	0.00	0.00	0.00	0.00	0.00	0.00	0.419434	0.661621	0.824707	31.780001	-115.010002	98.139999	0.00	0.00	0.00
2.45	15.50	13.50	9.75	15.25	5.50	12.50	0.50	1.75	1.00	1.50	2.00	2.25	2.00	2.75	0.00	0.50	-0.279297	0.115234	0.926758	-0.980000	-2.170000	-1.820000	908.00	-0.21	-0.09	0.00	0.00	0.00	0.00	0.00	0.00	0.00	0.00	0.00	0.00	0.00	0.00	0.00	0.00	0.00	0.00	0.381836	0.575684	0.928711	42.420002	-123.760002	103.459999	0.00	0.00	0.00
2.46	14.50	11.75	9.50	15.00	5.50	12.75	0.50	1.75	1.50	1.75	2.25	2.50	2.50	2.75	0.00	0.50	-0.282715	0.112793	0.927246	-1.120000	-2.310000	-1.750000	898.00	-0.19	-0.09	0.00	0.00	0.00	0.00	0.00	0.00	0.00	0.00	0.00	0.25	0.00	0.00	0.00	0.00	0.00	0.00	0.298340	0.509766	0.978516	48.230000	-133.979996	105.840004	3.00	0.00	0.00
2.47	13.00	11.50	9.25	14.75	5.50	13.25	0.50	2.25	1.75	1.75	2.50	2.75	3.00	3.00	0.00	0.50	-0.279297	0.114258	0.932129	-1.190000	-2.170000	-1.820000	902.00	-0.18	-0.10	0.00	0.00	0.00	0.00	0.00	0.00	0.00	0.00	0.00	0.00	0.00	0.00	0.00	0.00	0.00	0.00	0.223145	0.445312	1.009277	52.080002	-143.149994	105.629997	0.00	0.00	0.00
2.48	11.50	10.50	9.00	14.50	5.75	13.25	0.50	2.50	1.50	2.00	2.25	3.25	3.25	2.75	0.00	0.50	-0.286133	0.109863	0.937988	-0.700000	-1.750000	-1.820000	881.00	-0.17	-0.11	0.00	0.00	0.00	0.00	0.00	0.00	0.00	0.00	0.00	0.00	0.00	0.00	0.00	0.00	0.00	0.00	0.143066	0.414551	1.061035	56.700001	-149.869995	103.529999	0.00	0.00	0.00
2.49	10.50	9.75	9.00	14.25	5.75	13.75	0.50	3.25	1.50	2.00	3.00	3.75	3.75	2.75	0.00	0.50	-0.284668	0.113770	0.932617	-0.490000	-1.190000	-1.680000	895.00	-0.16	-0.12	0.00	0.00	0.00	0.00	0.00	0.00	0.00	0.00	0.00	0.00	0.00	0.00	0.00	0.00	0.00	0.00	0.064941	0.381836	1.128418	61.110001	-155.539993	99.820000	0.00	0.00	0.00
2.50	9.25	9.00	8.75	13.75	5.75	14.00	0.50	4.00	1.50	2.25	3.50	4.25	4.75	3.25	0.00	0.75	-0.270996	0.116699	0.927246	-0.350000	-0.840000	-1.680000	908.00	-0.14	-0.13	0.00	0.00	0.00	0.00	0.00	0.00	0.00	0.00	0.00	0.25	0.00	0.00	0.00	0.00	0.00	0.00	-0.077148	0.339355	1.310059	68.180000	-167.440002	92.190002	3.00	0.00	0.00
2.51	8.50	8.25	8.50	13.25	5.75	14.25	0.50	4.50	2.00	2.50	4.00	5.25	5.25	3.25	0.25	0.75	-0.279297	0.122559	0.938477	-0.280000	-0.420000	-1.680000	928.00	-0.12	-0.13	0.00	0.00	0.00	0.00	0.00	0.00	0.00	0.00	0.00	0.50	0.00	0.00	0.00	0.00	0.00	0.00	-0.151367	0.317871	1.387695	69.440002	-174.369995	88.269997	5.00	0.00	0.00
2.52	7.50	7.25	8.25	12.50	5.75	14.25	0.50	5.25	2.00	2.75	4.75	6.25	5.75	3.50	0.50	1.00	-0.274902	0.119141	0.927246	-0.140000	0.140000	-1.750000	940.00	-0.10	-0.14	0.00	0.00	0.00	0.00	0.00	0.00	0.00	0.00	0.00	0.00	0.00	0.00	0.00	0.00	0.00	0.00	-0.226074	0.288574	1.415527	69.090004	-182.070007	83.230003	0.00	0.00	0.00
2.53	6.75	6.75	7.75	11.75	5.75	14.75	0.50	5.50	2.25	2.75	6.00	7.00	6.25	3.50	0.25	1.00	-0.276855	0.118652	0.938965	0.210000	0.840000	-1.750000	949.00	-0.08	-0.14	0.00	0.00	0.00	0.00	0.00	0.00	0.00	0.00	0.00	0.00	0.00	0.00	0.00	0.00	0.00	0.00	-0.297852	0.269043	1.410645	67.410004	-185.080002	78.540001	0.00	0.00	0.00
2.54	6.25	6.00	7.50	11.25	5.75	15.00	0.50	5.75	2.50	3.25	7.25	7.75	6.75	3.75	0.25	1.25	-0.270996	0.118652	0.938965	0.210000	0.840000	-1.750000	973.00	-0.06	-0.15	0.00	0.00	0.00	0.00	0.00	0.00	0.00	0.00	0.00	0.00	0.00	0.00	0.00	0.00	0.00	0.00	-0.353516	0.248535	1.403320	65.239998	-185.289993	73.150002	0.00	0.00	0.00
2.55	5.00	5.50	7.00	10.00	5.50	15.00	0.50	6.00	3.00	3.50	8.00	8.00	7.00	3.75	0.25	1.50	-0.265625	0.114746	0.943359	1.330000	2.870000	-1.680000	960.00	-0.05	-0.15	0.00	0.00	0.00	0.00	0.00	0.00	0.00	0.00	0.00	0.00	0.00	0.00	0.00	0.00	0.00	0.00	-0.405762	0.236816	1.388672	61.599998	-183.190002	67.760002	0.00	0.00	0.00
2.56	4.25	4.75	6.25	9.25	5.25	14.75	0.50	6.25	3.00	4.25	8.50	8.75	7.50	4.50	0.50	1.50	-0.273926	0.117676	0.934082	2.240000	4.270000	-1.470000	961.00	-0.02	-0.15	0.00	0.00	0.00	0.00	0.00	0.00	0.00	0.00	0.00	0.00	0.00	0.00	0.00	0.00	0.00	0.00	-0.443359	0.235352	1.362793	56.209999	-178.639999	63.139999	0.00	0.00	0.00
2.57	3.50	3.50	5.50	8.50	5.25	15.25	0.50	6.50	3.50	4.50	9.00	9.25	8.00	5.00	0.75	1.75	-0.297363	0.115234	0.928711	3.220000	5.880000	-1.330000	967.00	-0.00	-0.15	0.00	0.00	0.00	0.00	0.00	0.00	0.00	0.00	0.00	0.00	0.00	0.00	0.00	0.00	0.00	0.00	-0.474121	0.225586	1.341309	48.860001	-173.039993	59.220001	0.00	0.00	0.00
2.58	2.75	3.25	5.00	7.50	5.00	15.00	0.50	6.75	3.75	5.25	9.75	10.00	8.50	5.00	0.75	2.00	-0.285645	0.113770	0.935547	3.850000	6.720000	-0.980000	971.00	0.01	-0.16	0.00	0.00	0.00	0.00	0.00	0.00	0.00	0.00	0.00	0.00	0.00	0.00	0.00	0.00	0.00	0.00	-0.496094	0.231445	1.337891	41.299999	-166.740005	55.299999	0.00	0.00	0.00
2.59	2.25	2.25	4.00	6.75	4.25	14.50	0.50	7.25	4.00	6.25	10.50	10.75	8.75	5.00	0.75	2.25	-0.192383	0.178223	0.901855	4.270000	7.630000	-0.700000	965.00	0.03	-0.16	0.00	0.00	0.00	0.00	0.00	0.00	0.00	0.00	0.00	0.00	0.00	0.00	0.00	0.00	0.00	0.00	-0.517090	0.253418	1.391602	35.910000	-162.470001	51.450001	0.00	0.00	0.00
2.60	1.25	1.75	3.25	5.75	4.00	13.75	0.50	7.25	4.00	6.75	11.25	11.75	9.50	5.25	0.75	2.25	-0.266602	0.121582	0.931641	4.620000	8.610000	-0.840000	952.00	0.06	-0.17	0.00	0.00	0.00	0.00	0.00	0.00	0.00	0.00	0.00	0.00	0.00	0.00	0.00	0.00	0.00	0.00	-0.544434	0.284180	1.399902	34.720001	-161.979996	47.740002	0.00	0.00	0.00
2.61	1.25	1.50	2.50	5.25	3.25	13.25	0.50	7.50	4.25	7.25	12.00	12.50	10.00	5.50	1.00	2.50	-0.273926	0.123047	0.937012	5.180000	9.800000	-0.980000	960.00	0.07	-0.17	0.00	0.00	0.00	0.00	0.00	0.00	0.00	0.00	0.00	0.00	0.00	0.00	0.00	0.00	0.00	0.00	-0.580566	0.300293	1.375488	38.500000	-163.520004	44.029999	0.00	0.00	0.00
2.62	1.00	1.25	2.00	4.25	2.50	12.25	0.50	7.50	4.75	8.00	13.00	13.25	11.00	5.75	1.00	2.75	-0.265137	0.113770	0.937988	5.810000	11.690000	-1.190000	965.00	0.09	-0.17	0.00	0.00	0.00	0.00	0.00	0.00	0.00	0.00	0.00	0.00	0.00	0.00	0.00	0.00	0.00	0.00	-0.634766	0.313965	1.333984	46.830002	-164.500000	40.599998	0.00	0.00	0.00
2.63	0.75	0.75	1.50	3.00	1.50	11.00	0.50	7.50	5.00	8.00	13.75	14.25	11.50	6.25	1.25	3.00	-0.239746	-0.063477	0.964355	7.210000	13.580000	-1.820000	948.00	0.12	-0.17	0.00	0.00	0.00	0.00	0.00	0.00	0.00	0.00	0.00	0.00	0.00	0.00	0.00	0.00	0.00	0.00	-0.703613	0.306152	1.346680	56.700001	-164.500000	38.639999	0.00	0.00	0.00
2.64	0.50	0.75	1.00	2.50	1.25	9.50	0.50	7.50	5.25	8.50	14.25	15.25	12.25	6.75	1.25	3.50	-0.270508	0.125488	0.942383	7.000000	15.820000	-2.100000	953.00	0.13	-0.17	0.00	0.00	0.00	0.00	0.00	0.00	0.00	0.00	0.00	0.00	0.00	0.00	0.00	0.00	0.00	0.00	-0.771484	0.305176	1.303711	63.279999	-164.570007	39.130001	0.00	0.00	0.00
2.65	0.25	0.50	0.75	1.50	0.50	8.50	0.50	7.50	5.25	8.75	15.00	16.00	13.00	7.25	1.25	3.50	-0.280762	0.131836	0.936523	7.280000	17.990000	-2.520000	944.00	0.15	-0.17	0.00	0.00	0.00	0.00	0.00	0.00	0.00	0.00	0.00	0.00	0.00	0.00	0.00	0.00	0.00	0.00	-0.845703	0.288086	1.234375	66.849998	-164.990005	44.029999	0.00	0.00	0.00
2.66	0.25	0.25	0.25	1.25	0.50	7.25	0.25	7.25	5.75	9.25	16.00	17.00	13.50	7.75	1.25	3.75	-0.281738	0.120117	1.015625	8.680000	23.940001	-3.080000	955.00	0.16	-0.17	0.00	0.00	0.00	0.00	0.00	0.00	0.00	0.00	0.00	0.00	0.00	0.00	0.00	0.00	0.00	0.00	-0.943359	0.194336	1.140137	73.989998	-162.960007	53.060001	0.00	0.00	0.00
2.67	0.00	0.50	0.25	0.50	0.25	6.00	0.25	7.00	6.75	9.50	16.50	17.75	14.00	8.50	1.75	4.00	-0.273926	0.141113	0.937988	15.750000	37.170002	-3.500000	973.00	0.18	-0.16	0.00	0.00	0.00	0.00	0.00	0.00	0.00	0.00	0.00	0.00	0.00	0.00	0.00	0.00	0.00	0.00	-1.064453	0.032227	1.009277	84.209999	-155.680008	61.250000	0.00	0.00	0.00
2.68	0.25	0.00	0.00	0.50	0.00	5.25	0.25	6.75	7.50	10.25	17.25	18.25	14.00	9.00	1.75	4.50	-0.205566	0.182129	1.050781	19.110001	47.529999	-5.530000	991.00	0.19	-0.15	0.00	0.00	0.00	0.00	0.00	0.00	0.00	0.00	0.00	0.00	0.00	0.00	0.00	0.00	0.00	0.00	-1.187012	-0.126465	0.866211	87.150002	-142.589996	66.500000	0.00	0.00	0.00
2.69	0.00	0.00	0.00	0.25	0.00	4.50	0.25	6.25	8.00	10.50	17.75	19.00	14.25	9.50	1.75	4.75	-0.300781	0.173340	0.927246	24.570000	69.860001	-6.090000	1000.00	0.20	-0.15	0.00	0.00	0.00	0.00	0.00	0.00	0.00	0.00	0.00	0.25	0.00	0.00	0.00	0.00	0.00	0.00	-1.381348	-0.332031	0.615723	57.400002	-101.150002	73.919998	3.00	0.00	0.00
2.70	0.00	0.00	0.00	0.00	0.00	3.75	0.00	6.00	8.50	11.00	18.25	19.00	14.25	10.50	1.75	5.00	-0.307617	0.132812	0.981445	25.200001	83.650002	-6.790000	1008.00	0.21	-0.14	0.00	0.00	0.00	0.00	0.00	0.00	0.00	0.00	0.00	0.25	0.00	0.00	0.00	0.00	0.00	0.00	-1.479492	-0.357910	0.541504	31.570000	-77.559998	76.300003	3.00	0.00	0.00
2.71	0.00	0.00	0.25	0.50	0.00	2.75	0.00	6.00	9.00	11.25	18.75	19.50	14.25	11.25	2.25	5.00	-0.341309	0.140137	0.960449	28.770000	99.959999	-7.490000	1037.00	0.21	-0.13	0.00	0.00	0.00	0.00	0.00	0.00	0.00	0.00	0.00	0.00	0.00	0.00	0.00	0.00	0.00	0.00	-1.559082	-0.330566	0.462402	5.810000	-55.720001	75.389999	0.00	0.00	0.00
2.72	0.00	0.00	0.00	0.00	0.00	2.50	0.00	5.50	9.00	11.75	19.00	20.00	13.75	12.00	2.25	5.25	-0.366211	0.155273	0.980957	30.590000	116.760002	-7.560000	1035.00	0.22	-0.13	0.00	0.00	0.00	0.00	0.00	0.00	0.00	0.00	0.00	0.00	0.00	0.00	0.00	0.00	0.00	0.00	-1.622559	-0.223633	0.352539	-13.650000	-34.580002	71.260002	0.00	0.00	0.00
2.73	0.00	0.00	0.00	0.00	0.00	1.75	0.00	5.25	9.25	12.00	19.50	20.00	13.50	12.75	2.50	5.25	-0.369141	0.155762	0.981934	32.549999	133.210007	-8.190000	1041.00	0.22	-0.12	0.00	0.00	0.00	0.00	0.00	0.00	0.00	0.00	0.00	0.25	0.00	0.00	0.00	0.00	0.00	0.00	-1.673828	-0.159180	0.322266	-21.280001	-12.810000	65.730003	3.00	0.00	0.00
2.74	0.00	0.00	0.00	0.00	0.00	1.25	0.00	5.00	9.50	12.50	19.25	19.75	12.75	13.50	2.50	5.50	-0.428711	0.171387	0.975098	37.450001	168.279999	-10.150000	1036.00	0.23	-0.11	0.00	0.00	0.00	0.00	0.00	0.00	0.00	0.00	0.00	0.00	0.00	0.00	0.00	0.00	0.00	0.00	-1.662598	-0.125488	0.355957	-17.850000	9.240000	60.340000	0.00	0.00	0.00
2.75	0.00	0.00	0.00	0.00	0.00	0.75	0.00	4.75	9.50	12.50	19.50	19.50	12.25	14.25	2.50	5.75	-0.428711	0.171387	0.975098	37.450001	168.279999	-10.150000	1030.00	0.23	-0.11	0.00	0.00	0.00	0.00	0.00	0.00	0.00	0.00	0.00	0.00	0.00	0.00	0.00	0.00	0.00	0.00	-2.464355	-0.809082	0.228027	-77.139999	111.300003	59.709999	0.00	0.00	0.00
2.76	0.00	0.00	0.00	0.00	0.00	0.50	0.00	4.00	9.75	12.75	19.50	19.25	11.25	15.00	2.75	5.75	-0.476074	0.186523	1.004883	42.630001	199.850006	-12.320000	1020.00	0.24	-0.10	0.25	0.00	0.00	0.00	0.00	0.00	0.00	0.00	0.00	0.00	0.00	0.00	0.00	0.00	0.00	0.00	0.326660	0.071777	0.518066	-109.199997	183.119995	66.290001	3.00	0.00	0.00
2.77	0.00	0.00	0.00	0.00	0.00	0.25	0.00	4.00	9.50	13.00	19.25	18.75	10.25	15.75	3.00	6.00	-0.544434	0.252441	0.677734	45.570000	213.009995	-13.650000	1010.00	0.24	-0.09	1.25	1.50	0.00	0.00	0.00	0.00	0.00	0.00	0.00	0.00	0.00	0.00	0.00	0.00	0.00	0.00	0.368652	-0.259766	2.023926	-116.129997	146.440002	54.459999	27.00	0.00	0.00
2.78	0.00	0.00	0.25	0.00	0.00	0.25	0.00	3.75	9.50	12.75	18.75	18.00	9.50	16.50	3.00	6.25	-0.536621	0.218262	0.956543	42.420002	232.119995	-20.230000	995.00	0.24	-0.09	2.25	5.50	0.00	0.50	0.00	0.00	0.00	0.00	0.00	0.00	0.00	0.00	0.00	0.00	0.00	0.00	0.485352	-0.834961	0.225098	-105.559998	99.120003	35.209999	79.00	-0.40	-0.09
2.79	0.00	0.00	0.00	0.00	0.00	0.00	0.00	3.50	9.25	12.50	18.50	17.00	8.25	17.00	3.00	6.50	-0.565430	0.216797	0.966309	37.240002	251.509995	-25.270000	961.00	0.25	-0.08	3.75	9.25	0.00	1.75	0.00	0.00	0.00	0.00	0.00	0.25	0.00	0.00	0.00	0.00	0.00	0.00	-0.202637	-1.347168	0.460938	-115.080002	159.529999	-9.380000	146.00	-0.38	-0.10
2.80	0.00	0.00	0.00	0.00	0.00	0.00	0.00	3.00	8.75	12.25	18.00	15.75	7.25	17.50	3.00	6.50	-0.685059	0.223633	0.976562	33.389999	271.950012	-29.330000	921.00	0.25	-0.07	6.50	12.00	0.00	2.25	0.00	0.00	0.00	0.00	0.00	0.00	0.00	0.00	0.00	0.00	0.00	0.00	-0.410645	-0.344727	1.739746	-127.959999	215.949997	-52.150002	202.00	-0.40	-0.08
2.81	0.00	0.00	0.00	0.00	0.00	0.00	0.00	2.75	8.25	11.75	17.00	14.25	6.25	17.50	3.00	6.50	-0.732910	0.273926	1.069336	26.250000	291.690002	-33.740002	871.00	0.26	-0.06	8.75	15.25	0.00	4.25	0.00	0.00	0.00	0.00	0.00	0.50	0.00	0.00	0.00	0.00	0.00	0.00	-0.405762	0.204590	2.342285	-76.090004	190.190002	-57.400002	283.00	-0.38	-0.08
2.82	0.00	0.00	0.00	0.00	0.00	0.00	0.00	2.25	7.50	11.00	15.50	12.50	5.25	17.75	3.00	6.25	-0.812988	0.239258	1.016602	19.180000	308.700012	-39.830002	803.00	0.26	-0.06	9.75	17.75	0.50	5.50	0.00	0.00	0.00	0.00	0.00	0.00	0.00	0.00	0.00	0.00	0.00	0.00	-0.364258	0.201172	1.573242	-45.779999	159.460007	-54.880001	330.00	-0.39	-0.09
2.83	0.00	0.00	0.00	0.00	0.00	0.00	0.00	2.00	6.00	10.00	13.50	10.75	3.75	17.50	2.50	6.00	-0.946289	0.421875	1.189453	10.710000	324.309998	-45.779999	708.00	0.27	-0.05	11.25	18.75	1.25	7.75	0.00	0.00	0.00	0.00	0.00	0.00	0.00	0.25	0.00	0.00	0.00	0.00	-0.333984	0.508301	1.483887	-32.060001	162.330002	-45.430000	391.00	-0.38	-0.09
2.84	0.00	0.00	0.00	0.00	0.00	0.00	0.00	1.50	5.25	9.00	11.50	9.00	2.75	16.75	2.00	5.50	-1.310059	0.652832	1.593262	12.530000	330.190002	-49.700001	618.00	0.27	-0.04	12.00	19.50	1.25	8.75	0.00	0.00	0.00	0.00	0.00	0.50	0.00	0.25	0.00	0.00	0.00	0.00	-0.361328	0.308105	1.785156	-13.230000	162.050003	-28.770000	421.00	-0.37	-0.09
2.85	0.00	0.00	0.00	0.00	0.00	0.00	0.00	1.00	4.00	8.00	10.00	7.75	1.75	15.50	1.75	4.75	-1.519043	0.633789	1.740723	26.320000	332.429993	-56.770000	529.00	0.28	-0.03	13.25	20.00	2.00	9.75	0.00	0.50	0.00	0.00	0.00	0.50	0.00	0.25	0.00	0.00	0.00	0.00	-0.223145	0.066895	1.425781	-2.030000	147.630005	-21.980000	464.00	-0.36	-0.09
2.86	0.00	0.00	0.00	0.00	0.00	0.00	0.00	0.50	3.00	6.50	8.25	6.50	1.50	14.25	1.25	3.75	-1.371094	0.436523	1.876953	31.639999	340.690002	-73.360001	437.00	0.29	-0.02	14.00	20.00	2.75	11.00	0.25	1.75	0.00	0.25	0.00	0.50	0.00	0.25	0.00	0.00	0.00	0.00	-0.121582	0.217773	0.941895	8.260000	137.830002	-24.290001	514.00	-0.35	-0.09
2.87	0.00	0.00	0.00	0.00	0.00	0.00	0.00	0.00	1.75	5.00	6.75	5.50	0.50	12.75	1.25	2.75	-1.355469	0.350586	1.500977	20.510000	350.350006	-86.940002	345.00	0.30	-0.01	15.00	20.25	4.00	12.75	0.50	3.75	0.00	0.25	0.00	0.50	0.25	0.50	0.00	0.00	0.00	0.00	-0.141602	0.265137	0.859375	12.530000	142.380005	-23.799999	589.00	-0.33	-0.09
2.88	0.00	0.00	0.00	0.00	0.00	0.00	0.00	0.00	1.50	4.00	5.50	4.75	0.25	11.75	0.75	2.50	-1.532715	0.517090	1.428223	6.510000	367.570007	-98.980003	293.00	0.30	-0.01	16.00	20.50	5.00	14.25	1.00	5.25	0.00	0.25	0.00	0.50	0.50	0.25	0.00	0.00	0.00	0.00	-0.219727	0.268555	1.091309	14.210000	147.770004	-21.910000	651.00	-0.33	-0.09
2.89	0.00	0.00	0.00	0.00	0.00	0.00	0.00	0.00	0.75	3.00	4.75	3.75	0.25	10.50	0.50	2.00	-2.214844	1.158203	1.924805	34.930000	368.130005	-93.169998	238.00	0.31	-0.01	16.75	20.75	6.25	15.25	1.25	7.50	0.00	0.25	0.00	0.00	0.25	0.25	0.00	0.00	0.00	0.00	-0.270996	0.321289	1.267578	10.500000	137.759995	-19.670000	706.00	-0.32	-0.10
2.90	0.00	0.00	0.00	0.00	0.00	0.00	0.00	0.00	0.50	3.00	3.50	3.00	0.00	8.75	0.50	1.00	-2.138672	1.195312	2.461426	91.209999	344.119995	-83.650002	191.00	0.31	0.01	17.25	20.50	7.50	16.25	1.50	8.75	0.00	0.50	0.00	0.50	0.50	0.25	0.00	0.00	0.00	0.00	-0.190430	1.277832	0.911621	-5.040000	103.040001	-7.140000	762.00	-0.31	-0.10
2.91	0.00	0.00	0.00	0.00	0.00	0.00	0.00	0.00	0.25	2.25	3.00	2.75	0.00	7.00	0.25	0.50	-1.493652	0.772461	2.291504	122.989998	300.579987	-85.959999	152.00	0.30	-0.00	18.00	20.50	8.25	16.50	1.50	9.25	0.00	1.00	0.00	0.50	0.50	0.25	0.25	0.00	0.00	0.00	-0.423340	-0.038574	1.412109	-30.100000	59.570000	2.450000	796.00	-0.31	-0.10
2.92	0.00	0.00	0.00	0.00	0.00	0.00	0.00	0.00	0.00	2.00	2.25	2.00	0.25	4.75	0.00	0.25	-0.642090	0.540527	2.381348	127.959999	258.019989	-101.010002	109.00	0.29	-0.02	18.00	20.25	8.50	17.00	2.00	9.75	0.00	1.00	0.00	1.00	0.25	0.25	0.25	0.25	0.00	0.00	-0.141113	0.044434	1.254883	-36.680000	37.029999	3.150000	817.00	-0.30	-0.10
2.93	0.00	0.00	0.00	0.00	0.00	0.00	0.00	0.00	0.25	1.25	1.50	1.75	0.25	2.75	0.00	0.00	0.000977	0.400391	2.250000	113.050003	234.080002	-123.410004	76.00	0.28	-0.03	18.25	20.00	8.75	17.25	2.00	10.00	0.00	1.25	0.00	0.50	0.25	0.25	0.25	0.00	0.00	0.00	-0.239746	0.227539	0.995605	-28.350000	24.920000	0.280000	822.00	-0.30	-0.10
2.94	0.00	0.00	0.00	0.00	0.00	0.00	0.00	0.00	0.00	0.75	1.00	1.25	0.00	1.75	0.00	0.00	0.694824	0.310547	1.987305	115.220001	214.270004	-139.020004	46.00	0.00	0.00	18.00	20.00	9.00	17.25	2.00	10.50	0.00	1.50	0.00	0.75	0.50	0.50	0.50	0.00	0.00	0.00	-0.225586	0.187012	1.032715	-23.940001	20.860001	1.330000	842.00	-0.30	-0.10
2.95	0.00	0.00	0.00	0.00	0.00	0.00	0.00	0.00	0.00	0.75	0.50	1.00	0.00	1.50	0.00	0.00	0.638672	0.924316	2.099609	69.510002	144.830002	-151.199997	36.00	0.00	0.00	18.25	19.75	9.00	17.25	2.00	10.75	0.00	1.50	0.00	0.75	0.25	0.50	0.75	0.00	0.00	0.00	-0.221680	0.176270	1.046387	-18.760000	14.980000	1.190000	844.00	-0.30	-0.10
2.96	0.00	0.00	0.00	0.00	0.00	0.00	0.00	0.00	0.00	0.50	0.50	0.50	0.00	0.75	0.00	0.00	0.638672	0.924316	2.099609	69.510002	144.830002	-151.199997	22.00	0.00	0.00	18.00	19.50	9.25	17.50	2.00	11.00	0.00	1.75	0.25	0.25	0.50	0.00	0.50	0.00	0.00	0.00	-0.221680	0.203125	0.999512	-13.930000	10.010000	1.400000	845.00	-0.30	-0.10
2.97	0.00	0.00	0.00	0.00	0.00	0.00	0.00	0.00	0.00	0.00	0.75	0.50	0.00	0.75	0.00	0.00	0.988281	0.593262	1.834473	5.110000	-64.050003	-77.000000	20.00	0.00	0.00	17.75	19.25	9.25	17.25	2.00	11.00	0.00	1.75	0.00	0.50	0.50	0.50	0.75	0.00	0.00	0.00	-0.210449	0.188965	0.979004	-11.760000	7.420000	1.680000	844.00	-0.29	-0.11
2.98	0.00	0.00	0.00	0.00	0.00	0.00	0.00	0.00	0.00	0.25	0.25	0.50	0.00	0.50	0.00	0.00	0.906250	0.375000	1.198242	-33.389999	-103.040001	-46.480000	15.00	0.00	0.00	17.75	19.50	9.25	17.25	2.25	11.25	0.00	1.75	0.00	0.75	0.50	0.00	0.50	0.00	0.00	0.00	-0.212402	0.189453	0.970703	-10.150000	5.250000	1.890000	847.00	-0.29	-0.10
2.99	0.00	0.00	0.00	0.00	0.00	0.00	0.00	0.00	0.00	0.00	0.25	0.25	0.00	0.50	0.00	0.00	0.800781	0.407227	0.900879	-67.830002	-112.980003	-26.740000	10.00	0.00	0.00	17.50	19.50	9.25	17.00	2.25	11.25	0.00	2.00	0.00	0.75	0.50	0.25	0.50	0.00	0.00	0.00	-0.214844	0.191406	0.985352	-8.540000	3.500000	1.890000	848.00	-0.29	-0.11
3.00	0.00	0.00	0.00	0.00	0.00	0.00	0.00	0.00	0.00	0.00	0.25	0.25	0.00	0.50	0.00	0.00	0.678711	0.498535	0.857910	-81.970001	-113.050003	-11.970000	10.00	0.00	0.00	17.50	19.00	9.00	16.75	2.25	11.25	0.00	1.50	0.00	0.50	0.00	0.25	0.50	0.25	0.00	0.00	-0.207031	0.183105	0.957031	-6.720000	1.820000	2.100000	824.00	-0.30	-0.10
3.01	0.00	0.00	0.00	0.00	0.00	0.00	0.00	0.00	0.00	0.00	0.25	0.00	0.00	1.00	0.00	0.00	0.662598	0.598145	0.919434	-77.629997	-119.840004	2.590000	11.00	0.00	0.00	16.75	18.75	8.75	16.75	2.25	11.00	0.00	1.50	0.00	0.75	0.25	0.00	0.25	0.00	0.00	0.00	-0.208008	0.185547	0.942383	-6.300000	1.120000	1.960000	807.00	-0.30	-0.10
3.02	0.00	0.00	0.00	0.00	0.00	0.00	0.00	0.00	0.00	0.00	0.25	0.00	0.00	0.75	0.00	0.00	0.639160	0.628418	0.993652	-63.910000	-136.779999	18.200001	9.00	0.00	0.00	16.50	18.50	9.00	16.50	2.25	10.75	0.00	1.50	0.00	0.75	0.00	0.25	0.50	0.00	0.00	0.00	-0.209961	0.185547	0.948730	-6.370000	0.910000	1.750000	802.00	-0.30	-0.10
3.03	0.00	0.00	0.00	0.00	0.00	0.00	0.00	0.00	0.00	0.00	0.00	0.00	0.00	1.00	0.00	0.00	0.568848	0.623047	1.076660	-49.840000	-162.259995	35.209999	9.00	0.00	0.00	16.25	18.25	8.75	16.25	2.25	10.75	0.00	1.50	0.25	0.50	0.25	0.25	0.50	0.00	0.00	0.00	-0.212402	0.183105	0.950684	-5.740000	0.210000	1.750000	795.00	-0.29	-0.10
3.04	0.00	0.00	0.00	0.00	0.00	0.00	0.00	0.00	0.00	0.00	0.00	0.00	0.00	0.50	0.00	0.00	0.459473	0.567383	1.070801	-42.560001	-190.190002	51.939999	4.00	0.00	0.00	16.25	17.75	8.75	16.00	2.25	10.50	0.00	1.50	0.00	0.25	0.25	0.25	0.25	0.00	0.00	0.00	-0.202148	0.183105	0.937012	-5.740000	0.070000	1.680000	777.00	-0.30	-0.10
3.05	0.00	0.00	0.00	0.00	0.00	0.00	0.00	0.00	0.00	0.00	0.00	0.00	0.00	0.50	0.00	0.00	0.325684	0.501465	1.016113	-42.279999	-215.250000	67.199997	4.00	0.00	0.00	15.75	17.75	8.50	16.00	2.25	10.50	0.00	1.75	0.00	0.25	0.25	0.00	0.25	0.00	0.00	0.00	-0.207031	0.193359	0.930664	-7.000000	0.700000	1.540000	770.00	-0.30	-0.11
3.06	0.00	0.00	0.00	0.00	0.00	0.00	0.00	0.00	0.00	0.00	0.00	0.00	0.00	0.75	0.00	0.00	0.186523	0.458008	0.980957	-46.060001	-233.800003	79.029999	6.00	0.00	0.00	15.25	17.50	8.25	15.50	2.25	10.50	0.00	1.50	0.00	0.75	0.25	0.25	0.00	0.00	0.00	0.00	-0.212402	0.185059	0.933594	-8.540000	1.610000	1.260000	756.00	-0.29	-0.10
3.07	0.00	0.00	0.00	0.00	0.00	0.00	0.00	0.00	0.00	0.00	0.00	0.00	0.00	0.50	0.00	0.00	0.059570	0.429688	0.950195	-49.070000	-246.820007	87.220001	4.00	0.00	0.00	15.00	17.00	8.25	15.25	2.25	10.25	0.00	1.50	0.00	0.25	0.25	0.25	0.25	0.00	0.00	0.00	-0.200195	0.182617	0.914551	-10.920000	3.220000	0.910000	740.00	-0.30	-0.11
3.08	0.00	0.00	0.00	0.00	0.00	0.00	0.00	0.00	0.00	0.00	0.00	0.00	0.00	0.50	0.00	0.00	-0.043945	0.415527	0.954102	-50.189999	-255.080002	91.910004	4.00	0.00	0.00	14.75	16.50	8.25	15.25	2.25	10.25	0.00	1.50	0.25	0.75	0.25	0.25	0.25	0.00	0.00	0.00	-0.206055	0.178223	0.916016	-13.860000	5.600000	0.630000	741.00	-0.29	-0.10
3.09	0.00	0.00	0.00	0.00	0.00	0.00	0.00	0.00	0.00	0.00	0.00	0.00	0.00	0.50	0.00	0.00	-0.126953	0.414062	1.003906	-48.580002	-262.010010	94.779999	4.00	0.00	0.00	14.50	16.25	8.25	15.00	2.25	10.25	0.00	1.50	0.00	0.50	0.00	0.00	0.50	0.00	0.00	0.00	-0.205566	0.175781	0.928223	-17.150000	7.910000	0.280000	725.00	-0.29	-0.11
3.10	0.00	0.00	0.00	0.00	0.00	0.00	0.00	0.00	0.00	0.00	0.00	0.00	0.00	0.50	0.00	0.00	-0.207031	0.413086	1.100586	-44.029999	-269.640015	96.320000	4.00	0.00	0.00	13.75	15.75	8.00	14.75	2.25	10.00	0.00	1.50	0.00	0.75	0.50	0.00	0.25	0.00	0.00	0.00	-0.209473	0.169434	0.933105	-22.750000	11.970000	-0.560000	710.00	-0.29	-0.11
3.11	0.00	0.00	0.00	0.00	0.00	0.00	0.00	0.00	0.00	0.00	0.00	0.00	0.00	0.50	0.00	0.00	-0.268555	0.423828	1.231934	-38.009998	-280.350006	97.440002	4.00	0.00	0.00	13.50	15.25	8.00	14.50	2.25	10.25	0.00	1.50	0.00	1.25	0.50	0.25	0.25	0.00	0.00	0.00	-0.226562	0.164551	0.965332	-23.590000	11.900000	-0.700000	711.00	-0.28	-0.11
3.12	0.00	0.00	0.00	0.00	0.00	0.00	0.00	0.00	0.00	0.00	0.00	0.00	0.00	0.50	0.00	0.00	-0.332031	0.431152	1.341797	-31.710001	-294.209991	97.440002	4.00	0.00	0.00	13.50	15.00	8.00	14.50	2.50	10.00	0.00	1.50	0.25	0.75	0.50	0.00	0.50	0.00	0.00	0.00	-0.231934	0.166504	0.971680	-22.190001	9.170000	-0.700000	706.00	-0.28	-0.10
3.13	0.00	0.00	0.00	0.00	0.00	0.00	0.00	0.00	0.00	0.00	0.00	0.00	0.00	0.25	0.00	0.00	-0.408203	0.425293	1.405762	-25.549999	-308.980011	96.809998	2.00	0.00	0.00	13.25	14.50	8.00	14.25	2.50	10.00	0.00	1.75	0.00	0.75	0.00	0.00	0.75	0.00	0.00	0.00	-0.228516	0.159668	0.962402	-19.740000	6.160000	-0.420000	693.00	-0.28	-0.11
3.14	0.00	0.00	0.00	0.00	0.00	0.00	0.00	0.00	0.00	0.00	0.00	0.00	0.00	0.00	0.00	0.00	-0.491699	0.431641	1.449219	-19.180000	-321.369995	95.340004	0.00	0.00	0.00	12.75	14.25	8.00	14.25	2.75	10.00	0.00	1.75	0.25	1.00	0.50	0.25	0.50	0.00	0.00	0.00	-0.232910	0.157715	0.971191	-17.430000	3.850000	-0.070000	700.00	-0.27	-0.11
3.15	0.00	0.00	0.00	0.00	0.00	0.00	0.00	0.00	0.00	0.00	0.00	0.00	0.00	0.25	0.00	0.00	-0.567383	0.426270	1.497559	-12.460000	-329.769989	93.029999	2.00	0.00	0.00	13.00	14.25	7.75	14.00	2.75	10.00	0.00	1.75	0.25	1.00	0.50	0.25	0.50	0.25	0.00	0.00	-0.232422	0.155273	0.956055	-14.840000	1.960000	0.070000	699.00	-0.27	-0.11
3.16	0.00	0.00	0.00	0.00	0.00	0.00	0.00	0.00	0.00	0.00	0.00	0.00	0.00	0.25	0.00	0.00	-0.629395	0.416504	1.525391	-6.510000	-334.529999	90.019997	2.00	0.00	0.00	13.00	13.75	8.25	14.00	3.00	10.25	0.00	2.25	0.50	1.25	0.75	0.25	1.00	0.00	0.00	0.25	-0.219727	0.151367	0.942871	-13.930000	0.630000	0.210000	726.00	-0.26	-0.11
3.17	0.00	0.00	0.00	0.00	0.00	0.00	0.00	0.00	0.00	0.00	0.00	0.00	0.00	0.25	0.00	0.00	-0.750000	0.444824	1.714844	0.770000	-338.799988	82.599998	2.00	0.00	0.00	13.00	13.50	8.25	14.00	3.50	10.25	0.00	2.25	0.00	1.00	0.50	0.50	1.25	0.00	0.00	0.00	-0.220215	0.145508	0.948730	-14.420000	-0.910000	0.210000	720.00	-0.26	-0.11
3.18	0.00	0.00	0.00	0.00	0.00	0.00	0.00	0.00	0.00	0.00	0.00	0.00	0.00	0.25	0.00	0.00	-0.805664	0.471191	1.828613	2.310000	-339.779999	79.169998	2.00	0.00	0.00	12.75	13.25	8.25	13.75	3.75	10.50	0.00	2.25	0.50	1.25	0.50	0.50	1.25	0.25	0.00	0.25	-0.204590	0.145020	0.918945	-17.010000	-2.730000	-0.070000	731.00	-0.25	-0.11
3.19	0.00	0.00	0.00	0.00	0.00	0.00	0.00	0.00	0.00	0.00	0.00	0.00	0.00	0.50	0.00	0.00	-0.852051	0.477051	1.917480	1.960000	-339.920013	76.090004	4.00	0.00	0.00	12.25	12.75	8.25	13.50	4.00	10.50	0.00	2.75	0.25	1.75	1.00	0.50	1.50	0.50	0.00	0.25	-0.217773	0.145996	0.945312	-22.540001	-5.460000	-0.420000	740.00	-0.24	-0.11
3.20	0.00	0.00	0.00	0.00	0.00	0.00	0.00	0.00	0.00	0.00	0.00	0.00	0.00	0.25	0.00	0.00	-0.915527	0.499512	2.034668	1.540000	-339.079987	72.730003	2.00	0.00	0.00	12.00	12.25	8.50	13.50	4.75	10.50	0.00	3.00	0.75	1.25	1.00	1.00	2.00	0.50	0.00	0.25	-0.215820	0.135742	0.956543	-27.299999	-9.240000	-0.840000	759.00	-0.23	-0.11
3.21	0.00	0.00	0.00	0.00	0.00	0.00	0.00	0.00	0.00	0.00	0.00	0.00	0.00	0.25	0.00	0.00	-1.019531	0.551758	2.204590	1.540000	-338.170013	68.389999	2.00	0.00	0.00	11.50	11.50	8.25	13.25	5.25	10.75	0.00	3.25	0.50	1.50	1.25	0.75	2.50	0.50	0.00	0.25	-0.212402	0.137695	0.948730	-30.590000	-13.580000	-1.120000	757.00	-0.22	-0.12
3.22	0.00	0.00	0.00	0.00	0.00	0.00	0.00	0.00	0.00	0.00	0.00	0.00	0.00	0.25	0.00	0.00	-1.212402	0.616699	2.270508	2.170000	-338.869995	65.029999	2.00	0.00	0.00	10.75	10.75	8.25	12.75	5.50	10.75	0.00	4.75	1.00	2.00	1.50	1.50	3.00	0.75	0.00	0.50	-0.221191	0.127930	0.987793	-30.450001	-17.850000	-1.400000	792.00	-0.19	-0.12
3.23	0.00	0.00	0.00	0.00	0.00	0.00	0.00	0.00	0.00	0.00	0.00	0.00	0.00	0.25	0.00	0.00	-1.471191	0.582520	2.391602	11.270000	-340.339996	62.860001	2.00	0.00	0.00	9.75	10.00	8.00	12.50	6.00	11.00	0.00	5.50	0.75	2.25	2.00	1.75	4.00	1.25	0.00	0.75	-0.221680	0.130371	0.975586	-26.740000	-19.110001	-1.190000	811.00	-0.17	-0.13
3.24	0.00	0.00	0.00	0.00	0.00	0.00	0.00	0.00	0.00	0.00	0.00	0.00	0.00	0.25	0.00	0.00	-1.799805	0.482910	2.485352	32.549999	-342.860016	59.639999	2.00	0.00	0.00	9.00	9.00	7.75	12.25	6.00	11.00	0.00	6.00	1.25	2.25	2.25	2.25	5.00	1.25	0.00	0.75	-0.217773	0.123535	0.965820	-23.170000	-18.760000	-0.770000	819.00	-0.16	-0.14
3.25	0.00	0.00	0.00	0.00	0.00	0.00	0.00	0.00	0.00	0.00	0.00	0.00	0.00	0.25	0.00	0.00	-2.131836	0.387695	2.437988	52.360001	-345.239990	54.529999	2.00	0.00	0.00	8.25	7.75	7.50	11.75	6.25	10.75	0.00	6.75	1.75	3.00	2.75	3.00	5.50	1.50	0.25	1.00	-0.218262	0.119141	0.970215	-21.000000	-17.920000	-0.490000	841.00	-0.13	-0.14
3.26	0.00	0.00	0.00	0.00	0.00	0.00	0.00	0.00	0.00	0.00	0.00	0.00	0.00	0.25	0.00	0.00	-2.408691	0.286621	2.187500	67.129997	-343.000000	51.450001	2.00	0.00	0.00	7.00	7.25	7.25	11.00	6.50	11.00	0.00	7.00	2.00	3.75	3.50	3.50	6.25	1.75	0.25	1.25	-0.218262	0.119141	0.970215	-17.990000	-15.820000	-0.350000	856.00	-0.11	-0.14
3.27	0.00	0.00	0.00	0.00	0.00	0.00	0.00	0.00	0.00	0.00	0.00	0.00	0.00	0.00	0.00	0.00	-2.540039	0.207031	1.732422	77.419998	-327.739990	53.970001	0.00	0.00	0.00	5.75	6.25	6.75	10.50	6.25	10.75	0.00	7.50	2.50	4.25	6.00	4.75	7.50	2.50	0.25	1.75	-0.212891	0.113770	0.970215	-15.190001	-13.580000	-0.210000	896.00	-0.07	-0.15
3.28	0.00	0.00	0.00	0.00	0.00	0.00	0.00	0.00	0.00	0.00	0.00	0.00	0.00	0.25	0.00	0.00	-2.886719	0.028809	1.507324	90.160004	-296.309998	61.599998	2.00	0.00	0.00	5.00	5.25	5.75	9.50	6.25	10.50	0.00	7.75	3.50	5.75	7.50	6.75	8.00	3.00	0.75	2.00	-0.206543	0.115234	0.968750	-12.110000	-11.130000	0.070000	938.00	-0.03	-0.15
3.29	0.00	0.00	0.00	0.00	0.00	0.00	0.00	0.00	0.00	0.00	0.00	0.00	0.00	0.00	0.00	0.00	-3.187012	-0.105469	1.101074	101.150002	-261.170013	68.879997	0.00	0.00	0.00	3.50	4.00	5.25	8.75	6.00	10.50	0.00	8.00	4.00	7.50	8.75	8.00	8.75	3.50	1.00	2.50	-0.008789	0.105469	0.876953	-5.670000	-5.880000	0.070000	966.00	0.00	-0.15
3.30	0.00	0.00	0.00	0.00	0.00	0.00	0.00	0.00	0.00	0.00	0.00	0.00	0.00	0.25	0.00	0.00	-3.368164	-0.228027	0.383789	71.680000	-227.500000	70.000000	2.00	0.00	0.00	3.00	3.25	4.25	7.75	5.50	10.00	0.00	8.25	5.50	8.25	9.75	9.00	9.25	4.00	1.00	2.75	-0.201172	0.108887	0.980469	-1.540000	-2.590000	-0.280000	983.00	0.03	-0.15
3.31	0.00	0.00	0.00	0.00	0.00	0.00	0.00	0.00	0.00	0.00	0.00	0.00	0.00	0.25	0.00	0.00	-3.640625	-0.052246	-0.314941	-6.930000	-201.669998	49.910000	2.00	0.00	0.00	2.25	2.00	3.00	6.50	5.00	9.75	0.00	8.50	6.25	9.00	11.00	10.00	10.00	4.75	1.25	3.50	-0.206055	0.105957	0.981445	3.920000	2.730000	-0.630000	992.00	0.06	-0.15
3.32	0.00	0.00	0.00	0.00	0.00	0.00	0.00	0.00	0.00	0.00	0.00	0.00	0.00	0.25	0.00	0.00	-4.043945	0.209473	-0.664551	-28.139999	-160.930008	29.190001	2.00	0.00	0.00	1.75	1.50	2.00	5.50	4.00	9.00	0.00	8.50	6.75	10.00	12.25	11.00	10.50	5.50	1.50	4.75	-0.202148	0.125488	0.987793	10.080000	9.380000	-0.700000	1002.00	0.09	-0.15
3.33	0.00	0.00	0.00	0.00	0.00	0.00	0.00	0.00	0.00	0.00	0.00	0.00	0.00	0.25	0.00	0.00	-4.139648	0.079590	-1.053223	28.840000	-105.000000	22.750000	2.00	0.00	0.00	1.00	1.25	1.50	3.50	3.00	8.25	0.00	8.50	7.00	11.00	13.50	12.00	11.25	6.50	1.50	5.50	-0.208496	0.113281	0.994629	17.010000	17.500000	-1.050000	1002.00	0.12	-0.15
3.34	0.00	0.00	0.00	0.00	0.00	0.00	0.00	0.00	0.00	0.00	0.00	0.00	0.00	0.25	0.00	0.00	-3.887695	-0.140625	-1.160156	87.779999	-33.040001	21.840000	2.00	0.00	0.00	0.75	0.50	1.00	2.50	2.00	7.25	0.00	8.50	7.50	11.75	15.00	13.25	12.00	7.50	1.75	5.75	-0.212891	0.122559	0.982910	23.170000	24.639999	-2.310000	1016.00	0.15	-0.15
3.35	0.00	0.00	0.00	0.00	0.00	0.00	0.00	0.00	0.00	0.00	0.00	0.00	0.00	0.25	0.00	0.00	-3.512695	-0.375488	-0.780273	97.650002	48.509998	25.690001	2.00	0.00	0.00	0.75	0.50	0.50	1.25	1.25	6.25	0.00	8.25	7.50	12.00	15.75	14.25	12.75	8.00	2.25	6.25	-0.197266	0.074707	1.045410	25.480000	27.160000	-3.430000	1014.00	0.17	-0.15
3.36	0.00	0.00	0.00	0.00	0.00	0.00	0.00	0.00	0.00	0.00	0.00	0.00	0.00	0.25	0.00	0.00	-3.085449	-0.353027	-0.161621	52.430000	118.860001	35.209999	2.00	0.00	0.00	0.50	0.50	0.25	1.00	0.75	5.50	0.00	8.00	8.00	12.50	16.75	15.00	13.25	8.75	2.25	6.50	-0.211914	0.102539	0.897949	39.200001	55.580002	-4.200000	1030.00	0.18	-0.14
3.37	0.00	0.00	0.00	0.00	0.00	0.00	0.00	0.00	0.00	0.00	0.00	0.00	0.00	0.00	0.00	0.00	-2.680664	-0.104004	0.520996	-16.730000	162.889999	50.189999	0.00	0.00	0.00	0.50	0.00	0.00	0.75	0.50	5.00	0.00	7.50	7.75	12.75	17.50	16.00	13.75	9.00	2.75	6.75	-0.267578	0.141113	0.990723	50.750000	81.830002	-4.270000	1035.00	0.19	-0.15
3.38	0.50	1.00	0.25	0.00	0.00	0.00	0.00	0.00	0.00	0.00	0.00	0.00	0.00	0.00	0.00	0.00	1.059570	-0.011230	0.016602	-28.490000	203.559998	56.770000	17.00	0.00	0.00	0.00	0.00	0.00	0.00	0.25	3.50	0.00	7.00	8.00	12.75	17.75	16.75	14.00	9.25	2.75	7.25	-0.259277	0.167969	1.057129	53.480000	103.180000	-4.130000	1016.00	0.21	-0.14
3.39	2.00	4.75	0.25	0.50	0.00	0.00	0.00	0.00	0.00	0.00	0.00	0.00	0.00	0.00	0.00	0.00	-0.081543	-1.256836	-0.564941	-42.700001	155.399994	22.330000	73.00	-0.40	-0.08	0.25	0.00	0.00	0.00	0.25	2.50	0.00	6.25	7.75	12.75	18.00	17.25	14.00	9.50	3.00	7.50	-0.270508	0.168945	1.052734	54.740002	126.629997	-5.250000	1007.00	0.21	-0.14
3.40	6.00	13.00	0.50	1.50	0.00	0.00	0.00	0.00	0.00	0.00	0.00	0.00	0.00	0.00	0.00	0.00	-0.736816	-1.011719	0.781738	-48.020000	272.790009	-28.490000	204.00	-0.40	-0.08	0.00	0.00	0.00	0.00	0.25	2.25	0.00	5.75	7.50	12.50	18.25	17.25	14.25	9.50	3.00	7.50	-0.305176	0.188477	1.101562	54.880001	152.809998	-7.770000	993.00	0.22	-0.14
3.41	8.75	20.50	0.50	3.25	0.00	0.00	0.00	0.00	0.00	0.00	0.00	0.00	0.00	0.25	0.00	0.00	-1.056641	0.031738	2.477539	-54.389999	326.410004	-59.849998	323.00	-0.39	-0.09	0.00	0.00	0.00	0.00	0.00	1.50	0.00	5.25	7.25	12.50	18.00	17.50	14.00	9.75	3.00	7.75	-0.327637	0.209961	1.096680	56.560001	181.509995	-11.970000	973.00	0.22	-0.14
3.42	13.00	27.50	1.00	5.50	0.00	0.00	0.00	0.00	0.00	0.00	0.00	0.25	0.00	0.00	0.00	0.00	-1.240234	0.032715	2.776855	-44.869999	287.000000	-69.720001	462.00	-0.39	-0.09	0.00	0.00	0.00	0.00	0.00	1.25	0.00	4.75	6.75	12.25	17.75	17.50	13.50	9.75	3.00	7.75	-0.410156	0.250488	1.095215	54.389999	208.320007	-18.129999	946.00	0.22	-0.14
3.43	17.50	31.50	2.25	9.75	0.00	0.50	0.00	0.00	0.00	0.00	0.00	0.00	0.00	0.00	0.00	0.00	-1.081543	0.154785	2.540527	-27.510000	271.390015	-65.590004	609.00	-0.38	-0.09	0.00	0.00	0.00	0.00	0.00	1.25	0.00	4.00	6.25	12.00	17.50	17.25	12.50	9.75	3.00	7.75	-0.367188	0.227539	1.128418	53.549999	237.580002	-25.690001	912.00	0.23	-0.14
3.44	22.00	32.50	3.25	13.75	0.25	1.75	0.00	0.00	0.00	0.00	0.25	0.25	0.00	0.00	0.00	0.00	-0.573242	0.589355	1.964355	-22.400000	257.529999	-55.020000	741.00	-0.37	-0.08	0.00	0.00	0.00	0.00	0.00	0.50	0.00	3.50	5.75	12.00	17.25	16.75	11.50	9.50	2.75	7.75	-0.428711	0.298828	1.166016	55.090000	269.079987	-34.439999	868.00	0.23	-0.13
3.45	23.25	30.75	4.50	16.50	0.50	3.50	0.00	0.25	0.00	0.00	0.00	0.00	0.50	0.25	0.00	0.00	-0.468262	0.465820	1.709473	-21.210001	229.180008	-32.900002	809.00	-0.35	-0.09	0.00	0.00	0.00	0.00	0.00	0.50	0.00	3.50	5.00	11.50	17.00	15.75	10.25	9.25	2.75	7.25	-0.391602	0.318359	1.248047	51.029999	305.899994	-45.920002	824.00	0.23	-0.13
3.46	23.00	29.50	6.50	18.75	1.00	6.50	0.00	0.25	0.00	0.00	0.00	0.25	0.25	0.50	0.00	0.00	-0.335938	0.064941	1.255371	-14.070000	205.800003	-21.070000	882.00	-0.34	-0.09	0.00	0.00	0.00	0.00	0.00	0.00	0.00	3.00	3.75	11.25	16.00	14.25	9.00	8.50	2.25	7.00	-0.576660	0.484375	1.226562	43.889999	346.429993	-62.369999	742.00	0.24	-0.13
3.47	22.75	28.75	8.00	21.00	1.50	8.50	0.00	0.50	0.00	0.00	0.00	0.25	0.50	0.50	0.00	0.00	-0.305664	0.074707	1.044434	9.170000	190.259995	-22.820000	948.00	-0.33	-0.10	0.00	0.00	0.00	0.00	0.00	0.00	0.00	2.00	1.75	10.25	14.25	12.50	7.50	7.75	2.00	6.00	-0.652832	0.692871	1.512695	46.830002	379.049988	-84.840004	626.00	0.24	-0.14
3.48	22.75	27.75	9.00	22.50	1.50	9.50	0.00	0.75	0.00	0.00	0.50	0.75	0.75	0.50	0.00	0.00	-0.224121	-0.283691	0.003906	-48.090000	117.320000	-0.210000	993.00	-0.31	-0.10	0.00	0.00	0.00	0.00	0.00	0.00	0.00	1.50	1.25	9.00	12.00	10.75	5.75	6.25	1.50	4.75	-0.985840	0.888672	1.820312	73.989998	412.160004	-113.050003	517.00	0.24	-0.13
3.49	23.25	27.00	9.50	23.25	1.75	10.50	0.25	1.25	0.00	0.00	0.50	0.50	1.00	0.50	0.00	0.00	-0.202637	-0.012695	1.086426	-77.419998	93.940002	0.560000	1030.00	-0.31	-0.10	0.00	0.00	0.00	0.00	0.00	0.00	0.00	1.00	0.75	7.75	10.00	8.75	3.75	5.25	1.00	3.00	-1.764648	0.688477	1.374512	97.019997	430.220001	-137.479996	407.00	0.24	-0.12
3.50	23.50	26.00	10.00	23.50	2.25	11.50	0.25	1.25	0.00	0.25	0.50	0.75	1.75	0.50	0.00	0.00	-0.282227	0.134766	0.926758	-70.070000	73.430000	-6.650000	1060.00	-0.30	-0.10	0.00	0.00	0.00	0.00	0.00	0.00	0.00	0.25	0.25	6.25	8.00	7.50	2.00	4.00	0.75	2.00	-1.988770	1.140625	2.586914	27.580000	439.670013	-164.850006	305.00	0.25	-0.12
3.51	23.25	25.25	10.50	23.75	2.50	12.50	0.25	1.50	0.00	0.50	0.50	0.75	2.25	0.50	0.00	0.00	-0.342285	0.183105	1.005859	-68.949997	64.260002	-7.630000	1083.00	-0.29	-0.11	0.00	0.00	0.00	0.00	0.00	0.00	0.00	0.00	0.25	5.25	6.75	5.75	1.00	2.75	0.50	1.50	-2.057129	1.585449	2.422363	25.480000	445.549988	-171.570007	235.00	0.25	-0.10
3.52	22.75	24.25	11.00	23.25	2.75	12.75	0.25	1.75	0.00	0.50	0.75	1.25	2.75	0.50	0.00	0.00	-0.284180	0.129395	1.070312	-64.959999	52.779999	-7.700000	1090.00	-0.28	-0.11	0.00	0.00	0.00	0.00	0.00	0.00	0.00	0.00	0.25	4.25	5.50	4.50	0.25	2.00	0.50	1.00	-1.930176	1.179199	2.794434	51.029999	426.089996	-183.539993	183.00	0.25	-0.09
3.53	21.50	23.00	11.00	23.25	3.25	13.75	0.25	2.25	0.00	1.00	1.00	1.50	3.75	0.75	0.00	0.25	-0.268066	0.143555	0.986816	-55.230000	34.509998	-7.910000	1112.00	-0.26	-0.12	0.00	0.00	0.00	0.00	0.00	0.00	0.00	0.00	0.00	3.75	4.50	3.75	0.50	1.50	0.25	0.75	-1.269043	1.013672	2.950195	54.459999	392.350006	-198.380005	150.00	0.25	-0.11
3.54	19.75	21.00	10.75	22.50	3.50	14.50	0.50	2.75	0.25	0.75	1.25	2.00	5.00	1.00	0.00	0.25	-0.305664	0.138184	1.048828	-41.790001	16.870001	-7.070000	1109.00	-0.25	-0.12	0.00	0.00	0.00	0.00	0.00	0.00	0.00	0.00	0.25	3.00	3.25	3.00	0.00	1.00	0.25	0.50	-0.489746	1.078125	2.794922	20.719999	340.269989	-217.910004	114.00	0.25	-0.09
3.55	18.25	19.25	10.50	21.75	3.75	14.25	0.50	4.25	0.50	1.00	1.75	2.75	5.75	1.00	0.00	0.25	-0.315918	0.134766	0.986328	-30.450001	5.460000	-5.880000	1114.00	-0.23	-0.13	0.00	0.00	0.00	0.00	0.00	0.00	0.00	0.00	0.00	2.00	2.25	1.75	0.25	1.00	0.25	0.50	0.408691	0.956543	2.985352	23.730000	299.529999	-224.839996	79.00	0.25	-0.09
3.56	15.50	17.25	10.00	20.75	3.75	15.00	0.50	5.00	0.75	1.50	2.00	3.25	6.50	1.00	0.00	0.50	-0.305176	0.137207	0.978516	-22.820000	0.070000	-5.040000	1095.00	-0.20	-0.14	0.00	0.00	0.00	0.00	0.00	0.00	0.00	0.00	0.00	1.25	1.25	1.50	0.00	0.50	0.00	0.50	1.245605	0.794922	2.792480	39.130001	240.449997	-223.160004	49.00	0.00	0.00
3.57	13.00	15.00	9.25	19.50	3.75	15.00	0.50	5.50	0.50	1.50	2.25	3.75	7.00	1.25	0.00	0.75	-0.314453	0.127441	0.954102	-15.540000	-0.770000	-4.200000	1046.00	-0.19	-0.15	0.00	0.00	0.00	0.00	0.00	0.00	0.00	0.00	0.00	0.75	1.00	0.75	0.00	0.25	0.00	0.25	0.914062	0.843750	1.108887	20.650000	191.729996	-222.040009	30.00	0.00	0.00
3.58	10.00	12.75	8.75	18.50	3.75	14.50	0.50	5.75	0.50	1.50	2.50	4.50	7.50	1.25	0.00	0.75	-0.307617	0.136230	0.940918	-9.800000	0.490000	-3.430000	991.00	-0.17	-0.16	0.00	0.00	0.00	0.00	0.00	0.00	0.00	0.00	0.00	1.00	0.75	0.75	0.00	0.25	0.00	0.00	1.230957	0.985840	1.822754	-15.330000	96.949997	-206.080002	28.00	0.00	0.00
3.59	8.50	11.00	8.25	17.00	3.50	14.50	0.50	6.25	0.50	1.50	2.75	5.75	8.00	1.75	0.00	0.75	-0.304688	0.127930	0.944336	-2.800000	2.940000	-2.800000	967.00	-0.15	-0.17	0.00	0.00	0.00	0.00	0.00	0.00	0.00	0.00	0.00	0.50	0.75	0.25	0.00	0.00	0.00	0.00	1.201660	1.149414	1.795410	-25.059999	-8.680000	-172.830002	16.00	0.00	0.00
3.60	7.00	9.00	7.50	15.50	3.50	14.00	0.50	6.50	0.75	1.75	3.25	6.25	8.50	1.50	0.25	1.00	-0.292480	0.128418	0.935547	-0.420000	5.040000	-2.590000	929.00	-0.12	-0.18	0.00	0.00	0.00	0.00	0.00	0.00	0.00	0.00	0.00	0.50	0.50	0.25	0.00	0.00	0.00	0.00	0.938477	1.000488	1.115723	-25.760000	-87.360001	-127.260002	13.00	0.00	0.00
3.61	6.00	7.50	6.75	13.75	3.00	14.00	0.50	6.75	0.50	1.75	3.50	7.25	9.00	1.50	0.00	1.25	-0.292480	0.130859	0.928223	1.120000	7.000000	-2.520000	889.00	-0.11	-0.19	0.00	0.00	0.00	0.00	0.00	0.00	0.00	0.00	0.00	0.50	0.25	0.00	0.00	0.00	0.00	0.00	0.920898	0.715820	0.729004	-29.190001	-106.750000	-81.129997	8.00	0.00	0.00
3.62	5.00	6.25	6.00	11.75	3.00	13.75	0.50	7.25	0.50	1.75	4.00	7.75	9.25	1.75	0.00	1.25	-0.292480	0.130371	0.928223	1.400000	7.490000	-2.730000	856.00	-0.08	-0.20	0.00	0.00	0.00	0.00	0.00	0.00	0.00	0.00	0.00	0.50	0.25	0.00	0.00	0.00	0.00	0.00	0.851562	0.666016	0.593262	-50.610001	-110.110001	-45.220001	8.00	0.00	0.00
3.63	3.75	5.00	5.25	10.00	2.50	13.25	0.50	7.50	0.75	1.75	5.00	8.25	9.75	2.00	0.25	1.25	-0.294922	0.134766	0.928711	0.630000	7.630000	-3.150000	825.00	-0.06	-0.21	0.00	0.00	0.00	0.00	0.00	0.00	0.00	0.00	0.00	0.25	0.00	0.00	0.00	0.00	0.00	0.00	0.779785	0.715820	0.630859	-69.300003	-116.340004	-13.930000	3.00	0.00	0.00
3.64	2.75	4.25	5.00	8.75	2.50	13.00	0.50	7.50	1.00	1.75	5.50	8.50	10.00	2.00	0.50	1.25	-0.291504	0.136230	0.926758	-0.420000	7.420000	-3.500000	805.00	-0.04	-0.21	0.00	0.00	0.00	0.00	0.00	0.00	0.00	0.00	0.00	0.25	0.00	0.00	0.00	0.00	0.00	0.00	0.759766	0.773926	0.648926	-70.559998	-125.440002	14.980000	3.00	0.00	0.00
3.65	2.00	3.00	4.00	7.75	2.25	12.25	0.50	7.50	0.75	2.00	6.50	9.00	10.50	1.75	0.25	1.50	-0.268555	0.018066	0.844727	-0.840000	7.000000	-3.990000	768.00	-0.02	-0.22	0.00	0.00	0.00	0.00	0.00	0.00	0.00	0.00	0.00	0.00	0.00	0.00	0.00	0.00	0.00	0.00	0.759277	0.795898	0.676270	-55.020000	-140.279999	40.110001	0.00	0.00	0.00
3.66	1.50	2.25	3.25	6.75	1.75	11.75	0.25	7.50	1.25	2.25	7.50	9.50	11.00	2.25	0.00	1.50	-0.251953	0.182129	0.973145	-2.450000	6.440000	-3.710000	753.00	0.01	-0.22	0.00	0.00	0.00	0.00	0.00	0.00	0.00	0.00	0.00	0.25	0.00	0.00	0.00	0.00	0.00	0.00	0.686035	0.786621	0.723633	-27.510000	-159.460007	60.549999	3.00	0.00	0.00
3.67	1.25	2.00	2.75	5.75	1.50	11.25	0.25	7.50	1.00	2.50	7.75	10.00	11.25	2.25	0.25	1.75	-0.135742	0.122070	0.815430	-1.540000	6.370000	-4.060000	737.00	0.02	-0.23	0.00	0.00	0.00	0.00	0.00	0.00	0.00	0.00	0.00	0.00	0.00	0.00	0.00	0.00	0.00	0.00	0.586914	0.718750	0.799316	5.460000	-180.389999	78.190002	0.00	0.00	0.00
3.68	1.00	1.00	2.25	5.00	1.50	10.00	0.25	7.50	0.75	2.25	8.25	10.50	11.50	2.00	0.25	1.75	-0.290527	0.120117	0.958984	-2.310000	5.180000	-4.830000	702.00	0.04	-0.24	0.00	0.00	0.00	0.00	0.00	0.00	0.00	0.00	0.00	0.00	0.00	0.00	0.00	0.00	0.00	0.00	0.464844	0.599609	0.893066	31.360001	-202.580002	94.010002	0.00	0.00	0.00
3.69	0.50	1.00	1.50	4.25	1.25	9.50	0.25	7.25	1.25	3.00	8.75	11.00	11.75	2.75	0.25	2.00	-0.302246	0.130859	0.938477	-2.030000	5.600000	-5.320000	703.00	0.07	-0.23	0.00	0.00	0.00	0.00	0.00	0.00	0.00	0.00	0.00	0.00	0.00	0.00	0.00	0.00	0.00	0.00	0.354980	0.465332	0.964844	44.029999	-225.050003	108.430000	0.00	0.00	0.00
3.70	0.50	0.25	1.50	3.50	1.00	8.75	0.25	7.25	1.25	2.50	9.00	11.25	11.75	2.75	0.25	1.75	-0.299805	0.130859	0.923828	-1.470000	6.510000	-5.320000	676.00	0.08	-0.24	0.00	0.00	0.00	0.00	0.00	0.00	0.00	0.00	0.00	0.00	0.00	0.00	0.00	0.00	0.00	0.00	0.094238	0.314941	1.068848	33.670002	-266.700012	129.289993	0.00	0.00	0.00
3.71	0.25	0.50	1.50	2.25	1.00	8.00	0.25	7.25	1.75	3.00	9.75	11.75	12.50	2.75	0.25	2.00	-0.253418	0.166992	0.933105	-0.140000	6.930000	-5.600000	687.00	0.09	-0.23	0.00	0.00	0.00	0.00	0.00	0.00	0.00	0.00	0.00	0.00	0.00	0.00	0.00	0.00	0.00	0.00	-0.014160	0.274902	1.083496	24.430000	-280.489990	136.360001	0.00	0.00	0.00
3.72	0.50	0.50	1.00	2.00	0.50	7.75	0.25	7.00	1.25	3.25	9.75	12.25	12.50	2.75	0.50	2.00	-0.296387	0.123535	0.921387	-0.700000	6.580000	-5.600000	673.00	0.10	-0.24	0.00	0.00	0.00	0.00	0.00	0.00	0.00	0.00	0.00	0.00	0.00	0.00	0.00	0.00	0.00	0.00	-0.114258	0.278320	1.157715	18.340000	-291.059998	141.119995	0.00	0.00	0.00
3.73	0.00	0.25	1.25	2.00	0.50	7.25	0.25	7.00	1.25	3.50	10.50	12.50	12.75	2.75	0.50	2.25	-0.291504	0.128418	0.928711	-1.050000	6.790000	-5.740000	679.00	0.11	-0.24	0.00	0.00	0.00	0.00	0.00	0.00	0.00	0.00	0.00	0.00	0.00	0.00	0.00	0.00	0.00	0.00	-0.198242	0.275391	1.263672	17.150000	-301.910004	144.130005	0.00	0.00	0.00
3.74	0.00	0.00	0.75	1.25	0.50	6.50	0.25	6.75	1.75	3.75	11.00	13.00	13.00	2.75	0.50	2.25	-0.289551	0.133789	0.920410	-0.840000	6.930000	-5.810000	673.00	0.13	-0.23	0.00	0.00	0.00	0.00	0.00	0.00	0.00	0.00	0.00	0.00	0.00	0.00	0.00	0.00	0.00	0.00	-0.278320	0.255371	1.379883	19.040001	-313.950012	144.830002	0.00	0.00	0.00
3.75	0.25	0.00	1.00	0.75	0.50	6.00	0.25	6.75	1.50	3.75	11.50	13.75	13.50	2.75	0.50	2.50	-0.295410	0.128418	0.934570	-0.560000	7.210000	-5.810000	683.00	0.13	-0.24	0.00	0.00	0.00	0.00	0.00	0.00	0.00	0.00	0.00	0.00	0.00	0.00	0.00	0.00	0.00	0.00	-0.366699	0.222656	1.485840	21.840000	-327.320007	142.940002	0.00	0.00	0.00
3.76	0.00	0.00	0.75	0.75	0.25	5.25	0.25	6.50	2.50	5.25	11.50	14.00	13.50	3.25	0.75	2.75	-0.287598	0.124023	0.930664	-0.070000	7.210000	-5.810000	703.00	0.15	-0.22	0.00	0.00	0.00	0.00	0.00	0.00	0.00	0.00	0.00	0.00	0.00	0.00	0.00	0.00	0.00	0.00	-0.465820	0.198730	1.562988	23.940001	-340.760010	139.020004	0.00	0.00	0.00
3.77	0.00	0.00	0.50	0.25	0.00	5.25	0.00	6.50	2.00	5.00	12.50	14.75	14.00	3.00	0.75	2.75	-0.301758	0.130859	0.923828	0.350000	7.700000	-5.670000	699.00	0.16	-0.23	0.00	0.00	0.00	0.00	0.00	0.00	0.00	0.00	0.00	0.00	0.00	0.00	0.00	0.00	0.00	0.00	-0.562500	0.196289	1.623047	25.900000	-351.540009	133.279999	0.00	0.00	0.00
