# time	left pressure 1[N/cm²]	left pressure 2[N/cm²]	left pressure 3[N/cm²]	left pressure 4[N/cm²]	left pressure 5[N/cm²]	left pressure 6[N/cm²]	left pressure 7[N/cm²]	left pressure 8[N/cm²]	left pressure 9[N/cm²]	left pressure 10[N/cm²]	left pressure 11[N/cm²]	left pressure 12[N/cm²]	left pressure 13[N/cm²]	left pressure 14[N/cm²]	left pressure 15[N/cm²]	left pressure 16[N/cm²]	left acceleration X[g]	left acceleration Y[g]	left acceleration Z[g]	left angular X[dps]	left angular Y[dps]	left angular Z[dps]	left total force[N]	left center of pressure X[%]	left center of pressure Y[%]	right pressure 1[N/cm²]	right pressure 2[N/cm²]	right pressure 3[N/cm²]	right pressure 4[N/cm²]	right pressure 5[N/cm²]	right pressure 6[N/cm²]	right pressure 7[N/cm²]	right pressure 8[N/cm²]	right pressure 9[N/cm²]	right pressure 10[N/cm²]	right pressure 11[N/cm²]	right pressure 12[N/cm²]	right pressure 13[N/cm²]	right pressure 14[N/cm²]	right pressure 15[N/cm²]	right pressure 16[N/cm²]	right acceleration X[g]	right acceleration Y[g]	right acceleration Z[g]	right angular X[dps]	right angular Y[dps]	right angular Z[dps]	right total force[N]	right center of pressure X[%]	right center of pressure Y[%]
0.00	2.50	2.00	3.75	3.75	1.75	8.75	0.75	10.00	4.00	4.00	2.25	3.75	12.50	8.25	5.50	5.50	-0.210938	0.090332	0.933105	-4.270000	0.490000	0.210000	989.00	0.07	-0.16	2.25	0.50	1.25	0.25	0.75	0.00	1.00	0.00	4.25	0.25	0.00	0.00	0.00	1.25	0.25	0.00	-0.205078	0.044434	0.934570	-2.380000	-8.890000	3.570000	167.00	0.03	0.17
0.01	2.75	2.00	4.00	3.75	1.75	8.75	0.75	10.00	4.00	4.00	2.00	3.75	12.25	8.25	5.50	5.50	-0.209473	0.087891	0.936523	-4.270000	0.770000	0.280000	989.00	0.07	-0.16	2.00	0.50	1.25	0.50	0.75	0.00	1.00	0.00	4.25	0.25	0.00	0.00	0.00	1.25	0.00	0.00	-0.200684	0.041016	0.937988	-2.240000	-8.540000	3.430000	164.00	0.03	0.17
0.02	3.00	2.50	3.75	4.00	1.75	8.75	1.00	10.00	4.25	3.75	2.00	3.75	12.00	8.25	5.25	5.50	-0.209473	0.082031	0.945801	-3.920000	0.770000	0.420000	998.00	0.06	-0.16																									
0.03	2.50	2.75	3.75	3.75	1.75	8.75	0.75	10.00	3.75	4.00	2.25	3.50	11.75	8.25	5.50	5.50	-0.206055	0.085938	0.941406	-3.850000	1.190000	0.630000	982.00	0.07	-0.16	2.25	0.75	1.50	0.25	0.75	0.00	1.00	0.00	4.25	0.25	0.00	0.00	0.00	1.25	0.25	0.00	-0.208496	0.038086	0.937500	-2.170000	-8.190000	3.360000	173.00	0.02	0.16
0.04	2.75	2.50	4.50	4.00	1.75	8.75	0.75	9.75	3.75	3.75	2.25	3.25	12.00	8.25	5.50	5.25	-0.209473	0.088867	0.944824	-3.640000	1.330000	0.630000	986.00	0.06	-0.16	2.50	0.50	1.50	0.25	1.00	0.00	1.00	0.00	4.25	0.25	0.00	0.00	0.00	1.50	0.25	0.00	-0.204102	0.041016	0.942383	-2.030000	-8.190000	3.430000	179.00	0.02	0.17
0.05	2.75	2.50	4.00	4.00	2.00	8.75	1.00	10.00	3.75	3.75	2.00	3.25	11.75	8.25	5.50	5.25	-0.205566	0.085938	0.947754	-3.290000	1.190000	0.700000	986.00	0.06	-0.16	2.75	0.75	1.50	0.50	0.75	0.00	1.00	0.00	4.25	0.50	0.00	0.00	0.00	1.25	0.00	0.00	-0.205078	0.041504	0.937988	-2.240000	-8.190000	3.360000	182.00	-0.00	0.16
0.06	2.75	2.50	4.00	4.00	2.00	9.00	0.75	9.75	3.50	3.75	2.25	3.50	11.50	8.25	5.50	5.25	-0.205078	0.092285	0.935547	-2.870000	1.120000	0.840000	980.00	0.06	-0.16	3.00	0.50	1.25	0.75	0.75	0.00	1.00	0.00	4.25	0.50	0.00	0.00	0.00	1.25	0.25	0.00	-0.203613	0.048340	0.945801	-2.590000	-7.770000	3.150000	185.00	0.00	0.15
0.07	2.75	2.75	4.50	4.00	2.00	8.75	1.00	9.75	3.50	3.75	2.00	3.25	12.00	8.00	5.25	5.25	-0.203613	0.083984	0.940918	-2.590000	1.050000	0.910000	984.00	0.05	-0.16	2.25	0.75	1.50	0.50	1.00	0.25	1.00	0.00	4.25	0.50	0.00	0.00	0.25	1.25	0.25	0.00	-0.200684	0.038574	0.941895	-2.800000	-7.420000	2.940000	188.00	0.02	0.14
0.08	2.50	2.00	4.00	4.00	2.25	8.75	0.75	9.75	3.75	3.75	2.25	3.25	12.00	8.25	5.50	5.50	-0.204590	0.083496	0.943848	-2.800000	0.630000	0.770000	979.00	0.07	-0.16	2.00	0.50	1.25	0.25	1.00	0.00	1.00	0.00	4.50	0.25	0.00	0.00	0.00	1.25	0.25	0.00	-0.205566	0.037598	0.939453	-2.870000	-7.140000	2.800000	171.00	0.04	0.17
0.09	2.75	2.50	4.25	4.25	2.00	9.00	0.75	10.00	3.75	3.75	2.00	3.25	12.00	8.00	5.25	5.50	-0.206543	0.089355	0.954590	-2.940000	0.980000	0.560000	990.00	0.06	-0.16	2.75	0.75	1.50	0.50	0.75	0.00	1.00	0.00	4.50	0.25	0.00	0.00	0.00	1.25	0.00	0.00	-0.208984	0.041504	0.945801	-2.660000	-7.140000	2.870000	183.00	-0.00	0.16
0.10	2.50	2.50	4.25	3.75	2.00	9.00	0.75	9.75	3.75	3.75	2.25	3.50	12.25	8.50	5.50	5.25	-0.214355	0.087402	0.953125	-3.430000	1.750000	0.420000	991.00	0.06	-0.16	2.50	0.75	1.50	0.25	1.00	0.00	1.00	0.00	4.50	0.50	0.00	0.00	0.00	1.25	0.25	0.00	-0.203125	0.036133	0.944824	-2.590000	-7.070000	2.870000	186.00	0.02	0.16
0.11	3.00	2.00	4.25	4.00	2.00	8.75	0.75	9.75	3.75	3.75	2.25	3.25	12.00	8.50	5.50	5.50	-0.208496	0.092773	0.952637	-3.570000	1.820000	0.420000	988.00	0.06	-0.16	3.00	0.75	1.50	0.25	1.00	0.00	1.00	0.00	4.25	0.25	0.00	0.00	0.00	1.25	0.00	0.00	-0.201660	0.037109	0.946777	-2.590000	-7.350000	3.010000	182.00	-0.01	0.16
0.12	2.50	2.50	4.25	4.00	2.00	8.75	1.00	9.75	4.00	4.00	2.00	3.25	11.75	8.50	5.50	5.50	-0.208496	0.090332	0.946777	-3.640000	1.750000	0.420000	993.00	0.06	-0.16	2.75	0.75	1.25	0.25	0.75	0.25	1.00	0.00	4.50	0.25	0.00	0.00	0.00	1.00	0.25	0.00	-0.206543	0.036621	0.944824	-2.450000	-7.280000	3.080000	180.00	0.01	0.16
0.13	2.75	2.50	4.00	3.75	2.00	9.00	1.00	10.00	4.00	4.00	2.25	3.50	12.25	8.25	5.50	5.50	-0.205566	0.084961	0.948730	-3.430000	1.540000	0.560000	1006.00	0.06	-0.16	2.50	0.50	1.50	0.25	1.00	0.00	1.00	0.25	4.25	0.50	0.00	0.00	0.25	1.00	0.00	0.00	-0.206055	0.040039	0.951660	-2.310000	-7.350000	3.150000	181.00	0.01	0.14
0.14	2.50	2.50	4.25	4.00	2.00	9.00	1.00	9.75	4.00	3.75	2.00	3.25	12.25	8.25	5.50	5.75	-0.211914	0.088379	0.954102	-3.500000	1.400000	0.420000	997.00	0.06	-0.16	2.75	0.75	1.25	0.50	1.00	0.00	1.00	0.00	4.25	0.50	0.00	0.00	0.00	1.25	0.25	0.00	-0.199707	0.038086	0.942383	-2.310000	-7.350000	3.290000	185.00	0.01	0.15
0.15	2.50	2.50	4.25	3.75	2.25	9.00	0.75	9.75	4.00	3.75	2.00	3.50	12.00	8.25	5.25	5.50	-0.210449	0.087402	0.946289	-3.710000	1.330000	0.420000	989.00	0.06	-0.16	2.75	0.50	1.75	0.75	1.00	0.00	1.00	0.00	4.25	0.25	0.00	0.00	0.00	1.25	0.25	0.00	-0.203613	0.044434	0.940918	-2.170000	-7.420000	3.220000	189.00	-0.01	0.15
0.16	2.50	2.50	4.25	3.75	2.25	9.00	0.75	9.75	4.00	3.75	2.00	3.25	12.00	8.50	5.50	5.50	-0.210449	0.083008	0.945801	-4.060000	1.540000	0.490000	991.00	0.06	-0.16	2.75	0.75	1.50	0.00	1.00	0.25	1.00	0.00	4.50	0.50	0.00	0.00	0.00	1.25	0.50	0.00	-0.196777	0.039062	0.937988	-2.310000	-8.120000	3.430000	192.00	0.02	0.16
0.17	3.00	2.50	4.25	3.75	2.25	8.75	1.00	9.75	4.25	3.75	2.00	3.00	12.00	8.50	5.25	5.75	-0.206543	0.083984	0.948730	-4.480000	1.680000	0.210000	998.00	0.06	-0.15	2.75	0.75	1.50	0.25	1.00	0.00	1.00	0.00	4.50	0.25	0.00	0.00	0.00	1.50	0.00	0.00	-0.196289	0.039062	0.951172	-2.590000	-8.330000	3.220000	185.00	0.01	0.17
0.18	2.75	2.50	4.00	3.75	2.00	8.75	1.00	9.75	4.00	3.75	2.25	3.00	12.00	8.50	5.25	5.50	-0.208984	0.086914	0.952148	-4.900000	1.890000	0.070000	986.00	0.06	-0.16	2.50	0.50	1.50	0.25	1.00	0.25	1.00	0.25	4.50	0.25	0.00	0.00	0.00	1.25	0.00	0.00	-0.201660	0.034668	0.949219	-2.520000	-8.260000	3.290000	185.00	0.01	0.15
0.19	2.75	2.25	4.25	4.00	2.25	8.75	1.00	9.50	4.25	3.75	2.00	3.00	11.75	8.50	5.50	5.50	-0.214355	0.080566	0.948730	-5.040000	1.890000	0.210000	990.00	0.06	-0.15	2.50	0.75	1.75	0.25	1.00	0.25	1.00	0.00	4.75	0.50	0.00	0.00	0.00	1.25	0.25	0.00	-0.193848	0.041504	0.944824	-2.380000	-8.330000	3.360000	197.00	0.02	0.15
0.20	3.00	2.50	4.50	3.75	2.25	8.75	1.00	9.50	4.25	4.00	2.00	3.25	11.75	8.50	5.50	5.50	-0.211914	0.083008	0.946289	-5.040000	2.170000	0.140000	1002.00	0.06	-0.15	2.25	0.50	1.25	0.25	1.25	0.25	1.00	0.00	4.25	0.50	0.00	0.00	0.25	1.50	0.00	0.00	-0.195312	0.041016	0.944824	-2.380000	-8.610000	3.220000	181.00	0.03	0.15
0.21	2.75	2.50	4.50	4.00	2.25	8.75	1.00	9.50	4.25	4.00	2.25	3.25	11.50	8.50	5.50	5.50	-0.204590	0.082031	0.942383	-5.250000	2.380000	0.000000	1002.00	0.06	-0.15	2.75	0.75	1.50	0.75	1.00	0.25	1.00	0.00	4.75	0.50	0.00	0.00	0.25	1.50	0.00	0.00	-0.204102	0.036621	0.938477	-2.450000	-8.750000	3.150000	205.00	0.01	0.14
0.22	2.50	2.25	4.25	3.50	2.25	8.50	1.00	9.50	4.25	4.00	2.00	3.00	11.50	8.25	5.25	5.25	-0.207520	0.085449	0.952637	-5.460000	2.660000	0.070000	970.00	0.07	-0.15	2.50	0.75	1.25	0.25	1.00	0.25	1.00	0.25	4.75	0.50	0.00	0.00	0.25	1.50	0.00	0.00	-0.203125	0.040039	0.946777	-2.310000	-8.820000	3.220000	196.00	0.03	0.14
0.23	2.75	2.25	4.25	3.75	2.25	8.50	1.00	9.25	4.50	4.00	2.00	3.00	11.50	8.50	5.25	5.25	-0.214355	0.078125	0.955078	-5.530000	2.800000	0.140000	978.00	0.07	-0.15	2.50	0.75	1.25	0.25	1.00	0.25	1.00	0.25	5.00	0.50	0.00	0.00	0.25	1.50	0.50	0.00	-0.194336	0.043945	0.943359	-2.100000	-9.100000	3.430000	207.00	0.04	0.14
0.24	3.00	2.50	4.25	3.75	2.25	8.50	1.00	9.25	4.25	4.00	2.00	2.75	11.25	8.50	5.00	5.25	-0.209961	0.077637	0.946289	-5.600000	2.730000	0.140000	971.00	0.06	-0.15	2.25	0.75	1.25	0.25	1.25	0.00	1.00	0.25	5.00	0.50	0.00	0.00	0.25	1.50	0.25	0.00	-0.202148	0.040039	0.946777	-1.960000	-9.520000	3.570000	200.00	0.04	0.15
0.25	3.00	2.25	4.25	4.25	2.25	8.25	1.00	9.00	4.50	4.00	2.25	2.75	11.00	8.50	5.25	5.25	-0.213867	0.079102	0.948730	-5.600000	2.660000	0.070000	975.00	0.06	-0.14	2.75	0.75	1.75	0.50	1.25	0.25	1.00	0.50	5.00	0.50	0.00	0.00	0.50	1.75	0.50	0.00	-0.197754	0.040527	0.948730	-1.610000	-9.590000	3.710000	233.00	0.02	0.11
0.26	3.25	2.25	4.50	3.75	2.25	8.25	1.00	9.00	4.50	4.25	2.00	3.00	11.00	8.50	5.00	5.00	-0.209961	0.082031	0.957520	-5.740000	2.520000	0.210000	973.00	0.06	-0.14	2.50	0.75	1.50	0.25	1.00	0.25	1.00	0.25	5.00	0.75	0.00	0.00	0.25	1.75	0.00	0.00	-0.195801	0.043457	0.943848	-1.400000	-9.800000	3.920000	209.00	0.03	0.14
0.27	2.75	2.50	4.25	3.75	2.25	8.25	1.00	9.00	4.50	4.00	2.00	2.75	10.75	8.50	5.00	5.00	-0.212402	0.076172	0.945801	-5.460000	2.590000	0.210000	958.00	0.06	-0.14	2.50	0.75	1.75	0.25	1.25	0.25	1.00	0.25	4.75	0.50	0.00	0.00	0.50	1.75	0.25	0.00	-0.199707	0.039551	0.941895	-1.260000	-10.080000	4.130000	215.00	0.03	0.13
0.28	3.00	2.50	4.25	3.25	2.25	8.00	1.00	8.75	4.50	4.25	2.00	2.50	10.75	8.50	5.00	4.75	-0.211426	0.077637	0.945312	-4.970000	2.310000	0.280000	945.00	0.06	-0.14	3.00	0.50	1.50	0.50	1.25	0.50	1.00	0.25	4.75	0.50	0.00	0.00	0.50	1.25	0.75	0.00	-0.200195	0.042480	0.950684	-1.120000	-10.010000	4.200000	222.00	0.02	0.11
0.29	3.25	2.25	4.25	4.00	2.25	8.25	1.00	8.75	4.25	3.75	2.00	2.50	10.50	8.25	5.00	4.75	-0.214844	0.080566	0.951660	-4.480000	2.030000	0.420000	943.00	0.06	-0.14	2.00	0.75	1.50	0.50	1.25	0.50	1.00	0.50	4.50	0.25	0.00	0.00	0.50	1.25	0.50	0.00	-0.191895	0.043457	0.949707	-1.050000	-9.730000	4.060000	207.00	0.02	0.10
0.30	3.00	2.50	4.50	3.75	2.25	8.25	1.00	8.75	4.50	3.75	1.75	2.50	10.25	8.25	5.00	4.75	-0.210449	0.078613	0.953613	-4.340000	2.170000	0.560000	941.00	0.06	-0.14	2.25	0.75	1.50	0.75	1.25	0.50	1.00	0.50	5.00	0.50	0.00	0.00	0.75	1.50	0.25	0.00	-0.195801	0.046875	0.949707	-1.120000	-9.450000	3.780000	226.00	0.03	0.10
0.31	2.75	2.25	4.75	4.00	2.25	8.25	1.00	8.75	4.50	4.00	1.75	2.25	10.50	8.25	5.00	4.75	-0.217285	0.077148	0.947754	-4.480000	2.450000	0.560000	944.00	0.06	-0.14	2.50	0.50	1.25	0.50	1.25	0.75	1.00	0.50	5.00	0.50	0.25	0.00	0.50	1.50	0.25	0.00	-0.192871	0.041504	0.949707	-1.190000	-9.240000	3.710000	224.00	0.03	0.10
0.32	3.00	2.75	4.75	3.75	2.25	8.25	1.00	8.50	4.25	4.00	1.75	2.50	10.25	8.25	4.75	4.75	-0.210938	0.075684	0.958008	-4.340000	2.450000	0.560000	938.00	0.05	-0.14	2.75	0.50	1.50	0.75	1.25	0.75	1.00	0.50	5.00	0.25	0.00	0.00	0.50	1.50	0.25	0.00	-0.189453	0.042969	0.950684	-1.400000	-9.450000	3.780000	227.00	0.01	0.10
0.33	3.50	2.50	4.75	4.00	2.50	8.00	1.00	8.50	4.25	4.00	1.75	2.25	10.25	8.25	5.00	4.50	-0.212402	0.080078	0.947754	-4.130000	2.520000	0.560000	943.00	0.05	-0.13	3.00	0.50	1.50	0.75	1.25	0.75	1.00	0.50	5.00	0.50	0.25	0.00	0.75	1.50	0.50	0.00	-0.194824	0.041992	0.944824	-1.260000	-9.240000	3.640000	242.00	0.02	0.09
0.34	3.25	2.50	4.75	4.25	2.25	8.00	1.00	8.25	4.25	3.75	1.75	2.00	10.00	8.25	4.75	4.25	-0.210938	0.081543	0.944336	-4.130000	2.520000	0.560000	922.00	0.05	-0.13	2.75	0.75	1.75	0.75	1.25	0.75	1.00	0.50	4.50	0.75	0.25	0.00	0.50	1.75	0.50	0.00	-0.191895	0.042969	0.947266	-1.400000	-9.310000	3.640000	241.00	0.01	0.09
0.35	3.50	3.00	4.75	4.00	2.25	8.00	1.00	8.25	4.25	3.75	1.75	2.00	9.75	8.00	4.25	4.25	-0.203125	0.080078	0.944336	-3.920000	2.310000	0.490000	916.00	0.04	-0.13	2.75	0.50	1.75	0.50	1.50	0.75	1.00	0.75	4.75	0.50	0.00	0.00	0.75	1.50	0.25	0.00	-0.196289	0.052246	0.947754	-1.540000	-9.310000	3.570000	237.00	0.01	0.09
0.36	3.50	2.75	5.00	4.50	2.50	8.00	1.00	8.25	4.25	3.75	1.75	2.00	9.50	8.00	4.75	4.25	-0.203613	0.076660	0.948730	-3.920000	1.750000	0.350000	930.00	0.04	-0.13	2.75	0.75	1.50	0.75	1.50	1.00	1.00	0.75	5.00	0.50	0.00	0.00	0.75	2.00	0.50	0.00	-0.195312	0.043457	0.949707	-1.750000	-8.890000	3.500000	255.00	0.02	0.08
0.37	3.75	2.75	5.00	4.25	2.50	8.00	1.00	8.00	4.25	3.75	1.50	2.00	9.50	8.00	4.50	4.25	-0.216797	0.073730	0.944824	-4.060000	1.470000	0.350000	919.00	0.04	-0.13	2.75	0.75	1.75	0.75	1.25	1.00	1.00	0.75	5.00	0.75	0.00	0.25	0.50	1.75	0.00	0.00	-0.200684	0.040527	0.952637	-2.030000	-8.680000	3.500000	250.00	0.01	0.08
0.38	3.50	2.75	5.00	4.50	2.25	8.00	1.00	8.25	4.25	3.75	1.75	2.00	9.50	8.00	4.50	3.75	-0.205078	0.077637	0.938477	-4.130000	1.540000	0.490000	921.00	0.04	-0.13	2.75	0.75	1.75	0.75	1.50	1.00	1.00	0.75	5.00	0.50	0.00	0.00	0.75	1.75	0.50	0.00	-0.198242	0.052734	0.952637	-2.170000	-8.260000	3.360000	256.00	0.01	0.08
0.39	4.00	2.75	5.00	4.50	2.50	7.75	1.00	8.00	4.00	4.00	1.50	2.25	9.75	8.25	4.50	4.25	-0.209473	0.076172	0.953125	-4.060000	1.750000	0.350000	930.00	0.04	-0.13	2.50	0.75	1.25	0.50	1.50	1.00	1.00	0.75	4.75	0.50	0.25	0.00	0.75	2.00	0.50	0.00	-0.189941	0.045410	0.956055	-2.240000	-7.770000	3.220000	245.00	0.03	0.08
0.40	3.75	2.75	5.00	4.00	2.50	7.75	1.00	8.00	4.25	3.75	1.75	2.00	9.50	8.25	4.50	4.00	-0.209961	0.072754	0.955078	-4.060000	1.820000	0.350000	917.00	0.04	-0.13	2.75	0.75	1.75	0.50	1.50	1.25	1.00	0.75	4.75	0.75	0.25	0.00	0.75	2.00	0.50	0.00	-0.194336	0.047852	0.955566	-2.380000	-7.350000	3.290000	261.00	0.02	0.07
0.41	3.25	2.25	4.75	4.25	2.50	7.75	1.00	8.00	4.50	3.75	1.75	2.00	9.75	8.25	4.75	4.25	-0.212402	0.073242	0.954102	-3.220000	2.450000	0.420000	916.00	0.05	-0.13	2.25	0.75	1.75	1.00	1.50	1.25	1.00	0.75	5.00	0.75	0.25	0.00	1.00	2.00	0.50	0.00	-0.193359	0.043945	0.948242	-2.730000	-6.790000	3.150000	268.00	0.03	0.06
0.42	3.25	2.50	5.00	4.25	2.50	7.75	1.00	8.00	4.50	4.25	1.75	2.25	9.50	8.50	4.75	4.25	-0.208496	0.077637	0.954590	-3.080000	3.010000	0.490000	932.00	0.05	-0.12	2.75	0.75	1.75	0.75	1.25	1.00	1.00	1.00	5.00	0.75	0.00	0.00	1.00	1.50	0.50	0.00	-0.191895	0.049316	0.948242	-3.220000	-6.020000	2.870000	260.00	0.01	0.06
0.43	3.25	2.75	5.00	3.75	2.25	7.50	1.00	8.00	4.50	4.00	1.75	2.00	9.50	9.00	5.00	4.25	-0.221680	0.072266	0.950195	-3.150000	3.430000	0.350000	923.00	0.05	-0.12	2.75	0.75	1.50	0.75	1.50	1.00	1.00	1.00	4.75	0.50	0.00	0.00	1.00	2.00	0.50	0.00	-0.195312	0.045898	0.943848	-3.500000	-5.810000	2.660000	258.00	0.02	0.06
0.44	3.00	2.50	4.75	4.00	2.25	7.50	1.00	8.00	5.00	4.25	1.75	1.75	9.50	9.00	5.00	4.25	-0.214844	0.073242	0.952637	-3.290000	3.290000	0.420000	925.00	0.06	-0.12	2.75	0.75	1.75	0.75	1.50	1.00	1.00	0.75	5.00	0.75	0.00	0.00	1.00	2.00	0.50	0.00	-0.193359	0.043457	0.951172	-3.640000	-5.880000	2.730000	264.00	0.02	0.07
0.45	3.25	2.50	4.75	3.50	2.25	7.50	1.00	7.75	5.00	4.25	2.00	2.00	9.25	9.00	5.00	4.50	-0.218262	0.073242	0.944824	-3.640000	3.430000	0.280000	922.00	0.06	-0.12	2.25	0.75	2.25	1.00	1.50	0.75	1.00	1.00	5.00	0.50	0.00	0.00	1.00	1.75	0.25	0.00	-0.193848	0.043945	0.952148	-3.360000	-5.740000	2.660000	260.00	0.01	0.07
0.46	3.25	2.25	4.50	3.25	2.25	7.50	1.00	7.75	5.25	4.75	1.75	2.00	9.50	9.25	5.00	4.25	-0.217285	0.073242	0.951660	-3.920000	3.500000	0.210000	924.00	0.07	-0.11	2.50	0.50	1.75	0.75	1.50	0.75	1.00	0.75	5.00	0.50	0.00	0.00	0.75	2.00	0.75	0.00	-0.188965	0.042480	0.940918	-3.080000	-5.880000	2.590000	253.00	0.03	0.08
0.47	3.00	2.00	4.50	3.25	2.25	7.25	1.25	7.75	5.00	5.00	1.50	1.75	9.75	9.25	5.00	4.50	-0.212891	0.070801	0.950195	-4.130000	3.290000	0.280000	916.00	0.07	-0.11	2.25	0.50	1.75	0.50	1.50	1.00	1.00	0.75	5.25	0.75	0.25	0.00	0.75	2.00	0.25	0.00	-0.199707	0.041992	0.947266	-3.010000	-6.230000	2.800000	253.00	0.04	0.09
0.48	3.00	2.50	4.50	3.25	2.25	7.00	1.25	7.75	5.50	5.00	1.75	1.75	9.50	9.25	5.00	4.25	-0.220703	0.075195	0.952637	-4.340000	3.080000	0.210000	925.00	0.07	-0.11	2.50	0.75	1.50	0.50	1.50	1.00	1.00	0.75	5.00	0.75	0.25	0.00	1.00	2.25	0.25	0.00	-0.188965	0.041504	0.945312	-2.940000	-6.440000	2.870000	257.00	0.04	0.08
0.49	3.00	2.25	4.25	3.00	2.25	7.00	1.25	7.75	5.25	5.00	1.75	2.00	9.75	9.25	5.00	4.75	-0.218750	0.072266	0.947754	-4.620000	2.870000	0.210000	921.00	0.08	-0.11	2.50	0.50	1.50	0.50	1.50	0.75	1.25	0.75	5.25	0.75	0.25	0.00	1.00	1.75	0.00	0.00	-0.193848	0.038574	0.947266	-2.870000	-6.580000	2.870000	251.00	0.03	0.09
0.50	3.00	2.50	4.25	3.25	2.25	7.00	1.25	7.50	5.75	5.00	1.75	1.75	9.50	9.50	5.25	4.50	-0.213867	0.072266	0.952637	-4.690000	2.660000	0.140000	928.00	0.08	-0.11	2.00	0.50	1.50	0.75	1.50	1.00	1.00	0.75	5.00	0.75	0.25	0.00	1.00	2.00	0.75	0.00	-0.188965	0.043945	0.955078	-2.520000	-6.790000	2.940000	255.00	0.05	0.07
0.51	2.75	2.25	4.50	3.00	2.00	6.75	1.50	7.50	5.75	5.25	1.75	2.25	9.50	9.50	5.00	4.50	-0.216309	0.064941	0.957520	-4.690000	2.380000	0.280000	927.00	0.08	-0.11	2.25	0.75	1.50	0.50	1.25	1.00	1.00	1.00	5.00	0.50	0.00	0.00	0.75	2.00	0.50	0.00	-0.191406	0.037598	0.952148	-2.380000	-6.860000	2.870000	247.00	0.04	0.07
0.52	2.75	2.25	4.50	3.25	2.25	6.75	1.25	7.50	5.50	5.25	1.75	1.75	9.25	9.25	5.00	4.50	-0.218262	0.073242	0.952148	-4.410000	2.030000	0.210000	914.00	0.08	-0.11	2.25	0.50	1.50	0.50	1.25	1.00	1.00	0.75	5.25	0.50	0.25	0.00	0.75	2.00	0.00	0.00	-0.194824	0.043457	0.953125	-2.310000	-7.280000	3.010000	240.00	0.04	0.09
0.53	3.00	2.75	4.75	3.25	2.00	6.75	1.25	7.50	5.75	5.25	1.75	2.00	9.25	9.25	5.00	4.50	-0.217285	0.072754	0.949219	-3.990000	1.610000	0.490000	929.00	0.07	-0.11	2.75	0.75	1.50	0.50	1.25	1.00	1.00	0.75	5.00	0.75	0.00	0.00	1.00	2.00	0.25	0.00	-0.193848	0.039551	0.944824	-2.100000	-7.700000	3.150000	251.00	0.03	0.08
0.54	2.75	2.50	4.25	3.25	2.00	6.75	1.50	7.50	5.50	5.25	1.75	2.00	9.25	9.25	4.75	4.50	-0.217773	0.068848	0.945801	-3.360000	1.050000	0.770000	914.00	0.08	-0.11	2.50	0.75	1.00	0.75	1.50	1.00	1.00	1.00	5.00	0.75	0.25	0.00	1.00	2.00	0.25	0.00	-0.201660	0.037598	0.945801	-1.820000	-7.910000	3.220000	256.00	0.03	0.06
0.55	2.75	2.25	4.25	3.00	2.00	6.75	1.50	7.50	5.75	5.25	2.00	1.75	9.25	9.25	4.75	4.50	-0.214844	0.072754	0.953613	-2.940000	0.770000	0.700000	912.00	0.08	-0.10	2.50	0.75	1.75	0.75	1.50	1.00	1.00	1.00	5.00	0.75	0.25	0.00	1.00	2.00	0.25	0.00	-0.196289	0.042969	0.948242	-1.820000	-8.470000	3.360000	266.00	0.02	0.06
0.56	3.25	2.50	4.25	3.00	2.00	6.50	1.50	7.50	5.75	5.00	2.00	1.75	9.00	9.00	4.75	4.00	-0.219727	0.069336	0.957031	-2.940000	0.840000	0.840000	906.00	0.07	-0.10	2.25	0.75	1.50	0.75	1.50	1.00	1.00	1.00	5.25	0.75	0.50	0.00	1.25	2.25	0.25	0.00	-0.190918	0.040039	0.946289	-1.400000	-8.960000	3.500000	271.00	0.04	0.06
0.57	3.00	2.00	4.25	3.00	2.00	6.75	1.50	7.50	5.75	5.25	1.75	1.75	9.00	9.00	5.00	4.00	-0.216309	0.067383	0.956055	-3.080000	1.120000	0.840000	904.00	0.08	-0.10	2.50	0.50	1.75	0.75	1.75	1.25	1.00	1.00	5.25	0.75	0.25	0.00	1.25	2.25	0.25	0.00	-0.193848	0.038574	0.950195	-1.120000	-9.450000	3.570000	278.00	0.03	0.06
0.58	3.00	2.25	4.25	3.00	2.00	6.50	1.50	7.25	5.75	5.00	1.75	1.50	8.75	8.75	4.50	3.75	-0.220703	0.074219	0.952148	-3.500000	1.750000	0.840000	880.00	0.07	-0.10	2.50	0.75	1.75	0.75	1.50	1.25	1.00	1.25	5.00	0.75	0.25	0.25	1.25	1.75	0.25	0.00	-0.194824	0.031738	0.950684	-0.630000	-9.800000	3.710000	277.00	0.02	0.04
0.59	2.75	2.25	4.50	3.00	2.00	6.50	1.50	7.00	5.75	5.00	1.50	1.25	8.75	8.75	4.25	3.75	-0.218262	0.069824	0.953125	-4.060000	2.590000	0.700000	866.00	0.07	-0.10	2.50	0.50	1.75	0.50	1.50	1.50	1.00	1.25	5.25	0.75	0.50	0.00	1.25	2.00	0.25	0.00	-0.187012	0.042480	0.946777	-0.280000	-9.730000	3.920000	280.00	0.03	0.05
0.60	3.00	2.25	4.25	3.00	2.00	6.25	1.50	7.00	5.75	5.00	1.75	1.75	8.75	8.50	4.25	3.50	-0.224609	0.075684	0.954102	-4.830000	3.710000	0.420000	868.00	0.07	-0.10	2.25	0.50	1.25	0.75	1.50	1.75	1.00	1.25	5.00	0.75	0.25	0.25	1.50	2.00	0.50	0.00	-0.187012	0.039551	0.956055	0.210000	-9.870000	3.990000	279.00	0.04	0.03
0.61	3.25	2.50	4.75	3.25	2.00	6.25	1.25	6.75	5.50	5.00	1.75	1.25	8.25	8.50	3.50	3.25	-0.226562	0.069824	0.955566	-5.600000	4.690000	0.350000	848.00	0.06	-0.10	2.25	0.75	1.75	0.75	1.50	1.75	1.00	1.50	5.00	0.75	0.25	0.25	1.50	1.75	0.50	0.00	-0.187012	0.039551	0.956055	0.210000	-9.870000	3.990000	290.00	0.03	0.02
0.62	3.25	2.50	4.75	3.75	2.00	6.25	1.25	6.75	5.50	5.00	1.75	1.50	8.00	8.25	3.75	2.75	-0.232422	0.067871	0.953125	-6.300000	6.020000	0.140000	853.00	0.05	-0.10	2.00	0.75	1.50	0.75	1.50	2.25	1.00	1.75	5.00	0.75	0.25	0.00	1.75	2.00	0.75	0.00	-0.192871	0.040527	0.953613	0.630000	-10.220000	3.990000	300.00	0.04	0.01
0.63	3.25	2.50	4.75	3.25	2.00	6.25	1.25	6.50	5.75	4.75	1.25	1.25	7.75	8.25	3.50	2.25	-0.218262	0.067383	0.953125	-6.720000	6.650000	-0.070000	824.00	0.05	-0.09	2.50	0.75	1.50	0.75	1.50	2.50	1.00	1.75	5.00	0.75	0.50	0.00	1.75	2.00	0.50	0.00	-0.181641	0.045898	0.947754	0.910000	-10.290000	4.060000	309.00	0.02	0.01
0.64	3.25	2.50	5.00	3.25	2.00	6.00	1.25	6.25	5.50	4.75	1.25	1.00	7.50	8.00	3.25	2.25	-0.226074	0.068359	0.950195	-6.650000	6.370000	-0.140000	804.00	0.05	-0.09	1.25	0.75	1.50	1.00	1.50	2.50	1.00	2.25	4.75	0.75	0.25	0.25	2.00	1.75	0.00	0.00	-0.188477	0.042480	0.949707	1.190000	-10.220000	3.990000	296.00	0.03	-0.02
0.65	4.00	2.50	5.00	3.25	2.00	5.75	1.25	5.75	5.50	4.75	1.00	0.75	7.00	7.75	3.00	2.00	-0.222168	0.070312	0.942871	-6.650000	6.230000	-0.350000	783.00	0.04	-0.08	2.50	0.75	1.25	0.75	1.50	2.75	1.00	2.25	5.00	0.75	0.50	0.25	2.00	2.25	0.50	0.00	-0.190430	0.046875	0.950684	1.400000	-10.290000	3.920000	327.00	0.03	-0.01
0.66	4.25	3.00	5.25	3.50	2.00	5.75	1.25	5.75	5.50	4.50	1.00	0.75	6.75	7.50	3.00	1.25	-0.218750	0.061523	0.946777	-6.650000	6.160000	-0.630000	785.00	0.03	-0.08	2.50	0.75	1.50	1.00	1.50	3.00	1.00	2.50	4.75	1.00	0.50	0.25	2.25	2.25	0.25	0.00	-0.183594	0.045898	0.952148	1.680000	-10.430000	3.920000	340.00	0.02	-0.03
0.67	4.75	2.75	5.25	3.75	1.75	5.75	1.25	5.50	5.50	4.50	1.00	0.75	6.25	7.50	2.50	1.25	-0.218750	0.065918	0.955078	-6.160000	5.950000	-0.560000	772.00	0.02	-0.07	2.50	0.75	1.75	1.00	1.50	3.25	0.75	2.75	5.00	0.75	0.25	0.50	2.50	2.25	0.75	0.00	-0.187012	0.045898	0.949219	1.960000	-10.430000	3.990000	356.00	0.02	-0.04
0.68	5.00	3.25	5.25	4.00	2.00	5.75	1.25	5.25	5.25	4.25	1.00	0.50	6.00	7.50	2.25	1.25	-0.220215	0.057129	0.956543	-5.390000	5.810000	-0.280000	767.00	0.01	-0.07	2.00	0.75	1.50	0.75	1.50	4.00	1.00	3.25	4.50	0.75	0.25	0.25	2.50	2.25	0.50	0.00	-0.187988	0.048828	0.955566	2.240000	-10.500000	4.130000	353.00	0.02	-0.06
0.69	5.00	3.25	5.25	4.00	1.75	5.25	1.25	5.00	5.25	4.25	1.00	0.25	5.75	7.00	2.25	1.00	-0.222168	0.060059	0.952637	-4.550000	6.090000	0.140000	740.00	0.01	-0.06	2.75	0.50	1.50	1.00	1.50	4.50	0.75	3.75	4.25	0.75	0.50	0.50	2.75	1.75	0.25	0.00	-0.189941	0.041992	0.955566	2.660000	-10.080000	4.200000	370.00	-0.00	-0.08
0.70	5.25	3.25	5.50	3.75	1.75	5.25	1.25	5.00	5.25	4.25	0.75	0.25	5.25	7.00	2.00	0.75	-0.227051	0.059570	0.947266	-3.920000	6.370000	0.350000	730.00	-0.00	-0.06	2.25	0.75	1.50	1.25	1.50	5.00	0.75	4.25	4.50	0.75	0.50	0.25	3.00	2.25	0.75	0.00	-0.185059	0.050293	0.950684	3.010000	-9.590000	4.340000	400.00	0.01	-0.09
0.71	5.50	3.75	5.25	3.75	1.75	5.00	1.25	4.25	5.00	4.00	0.75	0.50	5.00	6.75	1.50	0.75	-0.231445	0.052734	0.951172	-2.310000	6.230000	0.770000	704.00	-0.01	-0.05	2.50	0.75	1.50	1.25	1.50	5.25	0.75	4.75	4.25	0.50	0.50	0.50	3.00	1.75	0.50	0.00	-0.183105	0.048340	0.960449	3.150000	-9.310000	4.480000	404.00	-0.01	-0.11
0.72	5.75	3.75	5.50	4.00	1.75	5.00	1.25	4.00	4.75	4.25	0.75	0.25	4.50	6.50	1.25	0.75	-0.227051	0.064941	0.946777	-1.260000	6.230000	1.050000	694.00	-0.02	-0.05	2.50	0.75	1.25	1.25	1.50	5.25	0.75	5.00	4.00	0.75	0.50	0.50	3.25	1.50	0.50	0.00	-0.188965	0.049316	0.951172	3.220000	-8.960000	4.550000	404.00	-0.01	-0.12
0.73	5.75	4.00	5.50	4.00	1.75	5.00	1.25	3.50	4.75	3.75	0.75	0.25	4.75	6.25	1.50	0.50	-0.231445	0.055176	0.945801	0.280000	5.320000	1.540000	683.00	-0.03	-0.05	2.50	0.75	1.75	1.25	1.50	5.75	0.50	5.25	3.75	0.75	0.50	0.25	3.50	1.25	0.25	0.00	-0.185547	0.054688	0.961426	3.220000	-8.890000	4.550000	407.00	-0.02	-0.13
0.74	6.00	4.00	5.75	4.00	1.75	5.00	1.25	3.75	4.50	3.50	0.50	0.25	4.50	6.00	1.75	0.50	-0.222656	0.063477	0.943848	1.890000	4.130000	1.960000	682.00	-0.03	-0.05	2.25	0.50	1.50	1.25	1.25	6.00	0.50	5.25	3.50	0.75	0.50	0.50	3.50	1.50	0.50	0.00	-0.186523	0.056152	0.948242	3.150000	-8.680000	4.410000	403.00	-0.01	-0.14
0.75	6.75	3.75	5.75	4.25	1.75	4.50	1.00	3.50	4.00	3.50	0.75	0.50	4.00	5.50	0.75	0.25	-0.226562	0.060059	0.935059	3.150000	2.800000	2.240000	650.00	-0.05	-0.05	2.75	0.50	1.50	1.25	1.25	6.50	0.50	5.50	3.50	0.75	0.50	0.50	3.75	1.50	0.25	0.00	-0.178223	0.058594	0.957031	3.150000	-8.330000	4.270000	420.00	-0.02	-0.14
0.76	6.75	4.25	5.75	4.50	1.75	5.00	1.00	3.00	3.75	3.25	0.75	0.25	3.75	5.50	1.00	0.00	-0.223633	0.063965	0.941895	4.130000	1.260000	2.450000	645.00	-0.06	-0.05	3.50	0.75	1.75	1.50	1.25	6.50	0.50	5.50	3.25	0.50	0.25	0.25	3.75	1.00	0.50	0.00	-0.182617	0.056641	0.955078	3.080000	-7.840000	4.200000	423.00	-0.05	-0.15
0.77	6.75	4.50	6.00	4.25	1.75	4.75	1.00	3.50	3.50	3.00	0.50	0.25	3.75	5.25	0.75	0.25	-0.226074	0.064941	0.945312	4.480000	0.350000	2.520000	640.00	-0.07	-0.05	3.00	1.00	1.75	1.75	1.25	7.00	0.50	5.75	3.25	0.50	0.50	0.25	4.00	1.50	0.75	0.00	-0.187012	0.058105	0.963867	3.010000	-6.370000	3.920000	448.00	-0.03	-0.15
0.78	7.00	4.75	5.75	5.00	1.75	5.00	1.00	3.25	3.25	3.00	0.50	0.25	3.25	5.25	0.75	0.25	-0.222168	0.066406	0.940430	4.410000	0.140000	2.520000	642.00	-0.08	-0.05	3.00	1.00	1.50	1.75	1.25	7.00	0.50	5.75	2.75	0.25	0.25	0.25	3.75	0.75	0.25	0.00	-0.191895	0.060547	0.964844	3.220000	-5.320000	3.850000	414.00	-0.06	-0.17
0.79	7.00	5.00	6.00	5.00	1.75	5.25	0.75	3.50	3.00	3.00	0.25	0.00	2.75	5.00	1.00	0.00	-0.221191	0.071289	0.946289	4.410000	-0.140000	2.590000	635.00	-0.09	-0.06	2.50	0.75	1.50	1.75	1.00	7.25	0.50	5.75	2.50	0.25	0.25	0.50	4.00	0.75	0.25	0.00	-0.188965	0.057617	0.958496	3.290000	-4.130000	3.780000	407.00	-0.05	-0.18
0.80	7.50	5.00	6.00	5.00	1.50	5.25	1.00	3.25	2.50	2.75	0.50	0.00	2.50	4.75	0.75	0.00	-0.225586	0.069824	0.945312	3.430000	-0.140000	2.380000	622.00	-0.10	-0.06	2.75	0.75	1.25	1.50	1.00	7.25	0.25	5.75	2.25	0.25	0.00	0.25	4.00	0.75	0.50	0.00	-0.187012	0.060059	0.960938	3.360000	-3.080000	3.850000	392.00	-0.05	-0.19
0.81	7.75	4.75	6.00	5.00	1.50	5.25	0.75	3.50	2.50	2.75	0.50	0.25	2.75	4.75	0.75	0.00	-0.216797	0.078613	0.942383	1.610000	-0.000000	2.030000	628.00	-0.10	-0.06	2.50	0.75	1.00	1.50	0.75	7.25	0.25	5.75	2.00	0.25	0.25	0.00	4.00	0.50	0.25	0.00	-0.186035	0.063965	0.951172	3.290000	-2.030000	3.710000	372.00	-0.06	-0.20
0.82	7.75	5.00	6.25	5.25	1.50	5.25	0.75	3.75	2.50	2.75	0.25	0.00	2.50	4.75	0.75	0.00	-0.222656	0.067871	0.935059	-0.140000	-0.630000	1.820000	633.00	-0.11	-0.06	2.75	0.75	1.50	1.50	0.75	7.00	0.25	5.75	2.00	0.25	0.00	0.00	3.50	0.25	0.00	0.00	-0.181641	0.056152	0.943359	2.800000	-1.680000	3.640000	365.00	-0.08	-0.20
0.83	8.00	5.25	6.50	5.25	1.75	5.25	0.75	3.50	2.75	2.50	0.50	0.00	2.50	5.00	0.50	0.00	-0.216797	0.080078	0.937500	-1.820000	-1.680000	1.540000	644.00	-0.11	-0.06	2.00	0.75	1.00	1.25	0.75	7.25	0.25	5.50	2.00	0.25	0.00	0.00	3.75	0.25	0.25	0.00	-0.159668	0.069336	0.919922	1.540000	-2.660000	3.500000	350.00	-0.06	-0.21
0.84	8.50	5.25	6.50	5.25	1.75	5.50	0.75	3.50	2.50	2.75	0.75	0.00	3.00	5.00	0.25	0.00	-0.218750	0.072266	0.937988	-4.130000	-2.800000	1.050000	658.00	-0.11	-0.06	2.25	0.50	0.75	1.00	0.75	7.25	0.25	5.75	1.75	0.25	0.00	0.25	3.75	0.75	0.25	0.00	-0.149902	0.077637	0.920898	-1.610000	-4.340000	3.290000	353.00	-0.05	-0.21
0.85	8.50	5.50	7.00	5.50	1.75	5.75	0.75	4.00	2.50	2.75	0.50	0.00	2.75	4.75	0.50	0.25	-0.215820	0.064941	0.943848	-7.140000	-5.530000	0.630000	679.00	-0.12	-0.06	1.75	0.75	0.75	1.00	0.50	7.00	0.25	5.75	2.00	0.25	0.25	0.25	4.00	1.00	0.50	0.00	-0.176270	0.076172	0.938477	-5.180000	-5.180000	2.730000	358.00	-0.03	-0.21
0.86	9.25	5.25	7.25	5.50	1.75	6.00	0.75	4.25	2.75	2.75	0.50	0.25	2.75	5.00	0.75	0.00	-0.224121	0.067383	0.948242	-7.070000	-6.230000	0.560000	708.00	-0.11	-0.06	1.25	0.50	0.75	0.75	0.50	7.25	0.25	6.00	2.00	0.50	0.50	0.50	4.25	0.75	0.50	0.00	-0.178223	0.060547	0.950195	-6.510000	-4.900000	2.450000	363.00	-0.01	-0.22
0.87	9.25	5.75	7.50	6.00	2.00	6.25	1.00	4.25	3.00	3.00	0.50	0.00	3.50	5.00	0.75	0.00	-0.213867	0.069824	0.948730	-6.720000	-6.580000	0.560000	746.00	-0.11	-0.06	0.50	0.00	0.50	0.50	0.50	7.00	0.25	6.00	2.25	0.50	0.50	0.75	5.25	0.75	0.50	0.00	-0.174805	0.076660	0.953613	-5.670000	-3.360000	1.960000	356.00	0.02	-0.24
0.88	9.25	5.50	7.50	5.75	2.00	6.25	1.00	5.00	2.75	2.75	0.75	0.25	3.50	5.25	1.00	0.50	-0.218750	0.064941	0.949707	-6.440000	-6.790000	0.560000	762.00	-0.10	-0.07	0.00	0.25	0.00	0.50	0.50	6.75	0.25	6.00	2.75	0.75	0.75	1.00	5.50	1.00	0.00	0.00	-0.159180	0.080078	0.983887	-4.130000	-0.770000	0.490000	358.00	0.04	-0.23
0.89	9.75	5.75	8.00	6.00	2.25	6.50	1.00	5.00	3.00	3.00	0.75	0.25	4.00	5.50	0.75	0.00	-0.221680	0.059570	0.940918	-5.740000	-6.720000	0.700000	796.00	-0.11	-0.07	0.00	0.00	0.25	0.00	0.25	6.50	0.25	6.00	3.00	1.00	1.00	1.00	5.75	1.00	0.75	0.00	-0.159180	0.015625	1.019531	0.560000	4.760000	-2.380000	368.00	0.06	-0.22
0.90	9.75	6.25	8.00	6.25	2.25	6.75	1.00	5.00	3.00	3.00	0.50	0.25	4.25	5.50	1.00	0.00	-0.220703	0.068848	0.953613	-4.970000	-6.720000	0.840000	810.00	-0.11	-0.07	0.00	0.00	0.00	0.00	0.25	6.00	0.50	6.00	3.25	1.25	1.00	1.25	6.25	1.00	0.50	0.00	-0.076660	0.114746	1.098633	15.120000	20.790001	-4.550000	375.00	0.07	-0.22
0.91	10.25	6.25	8.00	6.50	2.50	7.00	1.00	5.25	3.00	3.00	0.75	0.50	4.25	5.50	1.00	0.00	-0.213867	0.065918	0.953125	-4.340000	-7.070000	0.700000	837.00	-0.11	-0.07	0.00	0.00	0.00	0.00	0.00	5.75	0.50	5.75	3.75	1.50	1.50	1.25	6.50	1.00	0.50	0.00	-0.189941	0.054688	1.116211	32.689999	73.709999	-3.850000	383.00	0.09	-0.20
0.92	10.75	6.25	8.25	7.00	2.75	7.25	1.00	5.25	3.25	3.00	0.75	0.25	4.75	5.75	1.25	0.25	-0.215820	0.064941	0.947266	-3.780000	-7.280000	0.840000	873.00	-0.11	-0.07	0.00	0.00	0.00	0.00	0.00	5.25	0.25	5.50	3.75	1.25	1.50	1.50	6.25	1.25	0.50	0.00	-0.203125	0.050293	1.236816	42.910000	101.220001	-3.570000	368.00	0.09	-0.20
0.93	11.50	7.00	8.50	7.25	2.75	7.50	1.00	5.50	3.25	3.50	0.75	0.50	5.25	5.75	1.00	0.50	-0.210938	0.066406	0.951172	-3.570000	-7.070000	0.980000	918.00	-0.11	-0.08	0.00	0.00	0.00	0.00	0.00	4.50	0.25	5.25	4.25	1.25	1.50	1.50	6.50	1.50	0.50	0.00	-0.213867	0.070312	1.256348	42.770000	132.580002	-2.800000	367.00	0.11	-0.19
0.94	11.25	7.00	8.50	7.50	3.00	8.00	1.25	6.00	3.50	3.25	0.75	0.50	5.00	6.00	1.25	0.00	-0.210449	0.069336	0.945312	-3.360000	-7.210000	0.910000	942.00	-0.11	-0.08	0.00	0.00	0.00	0.00	0.00	3.75	0.25	5.00	3.50	1.50	1.75	1.50	6.25	1.50	0.50	0.00	-0.202148	0.093750	1.333984	42.560001	162.610001	-3.920000	344.00	0.11	-0.20
0.95	11.75	7.50	9.00	7.75	3.25	8.50	1.25	6.00	3.50	3.50	1.00	0.75	5.25	6.25	1.25	0.50	-0.209961	0.060547	0.953125	-3.500000	-7.630000	0.840000	991.00	-0.10	-0.08	0.00	0.00	0.00	0.00	0.00	2.75	0.25	4.00	3.50	1.50	1.50	1.25	6.00	1.50	0.75	0.00	-0.252930	0.148438	1.345215	37.869999	188.229996	-6.300000	307.00	0.13	-0.18
0.96	12.25	7.75	9.00	7.75	3.50	9.00	1.25	6.50	3.75	3.50	1.25	0.75	5.25	6.50	1.50	0.25	-0.206543	0.061035	0.941406	-3.920000	-7.840000	0.910000	1030.00	-0.10	-0.08	0.00	0.00	0.00	0.00	0.00	2.00	0.25	3.00	3.50	1.00	1.25	1.00	5.50	1.50	0.50	0.00	-0.352539	0.204102	1.451660	32.270000	208.110001	-10.500000	258.00	0.14	-0.16
0.97	12.50	7.75	9.25	8.25	3.75	9.50	1.25	6.50	3.50	3.75	1.00	1.00	5.75	7.00	1.50	0.50	-0.207520	0.061035	0.952148	-3.640000	-7.910000	1.050000	1064.00	-0.10	-0.08	0.00	0.00	0.00	0.00	0.00	1.50	0.25	2.50	3.00	1.00	0.75	0.75	5.00	1.00	0.25	0.00	-0.307129	0.132812	1.489746	23.590000	222.040009	-14.700000	212.00	0.14	-0.16
0.98	12.50	8.00	9.50	8.25	3.75	9.75	1.25	7.25	3.75	3.50	1.00	0.75	6.25	7.00	1.50	0.25	-0.208008	0.061035	0.951172	-2.940000	-7.770000	1.260000	1088.00	-0.10	-0.09	0.00	0.00	0.00	0.00	0.00	0.75	0.00	1.25	2.50	0.75	0.50	0.75	3.50	1.25	0.25	0.00	-0.457520	0.273926	1.544434	14.070000	231.490005	-18.270000	148.00	0.18	-0.12
0.99	13.00	8.00	9.75	8.50	4.00	10.00	1.25	7.50	4.00	3.75	1.25	0.75	6.00	7.00	1.25	0.25	-0.205078	0.063965	0.950684	-2.100000	-7.560000	1.470000	1117.00	-0.10	-0.08	0.00	0.00	0.00	0.00	0.00	0.00	0.00	0.75	2.00	0.50	0.50	0.25	2.50	0.50	0.25	0.00	-0.520020	0.165527	1.409668	2.520000	234.009995	-22.680000	94.00	0.20	-0.10
1.00	12.50	8.50	9.75	8.75	4.25	10.50	1.25	8.00	4.00	4.00	1.50	1.00	6.50	7.00	2.00	0.75	-0.206543	0.064941	0.952637	-1.190000	-7.490000	1.540000	1165.00	-0.09	-0.09	0.00	0.00	0.00	0.00	0.00	0.00	0.00	0.50	1.25	0.25	0.25	0.25	1.25	0.25	0.00	0.00	-0.540527	0.188477	1.490723	-16.870001	231.699997	-26.809999	53.00	0.19	-0.09
1.01	13.25	8.75	9.75	9.00	4.25	11.00	1.50	8.50	4.25	4.00	1.25	1.25	7.00	7.50	1.75	1.00	-0.193848	0.053223	0.959961	1.890000	-6.930000	2.310000	1213.00	-0.09	-0.09	0.00	0.00	0.00	0.00	0.00	0.00	0.00	0.00	0.75	0.25	0.00	0.00	0.75	0.00	0.25	0.00	-0.466797	0.207520	1.349609	-28.490000	228.690002	-33.599998	26.00	0.00	0.00
1.02	13.25	8.75	10.00	9.25	4.50	11.25	1.50	8.75	4.25	4.25	1.50	1.25	7.50	7.50	2.25	0.75	-0.194336	0.060547	0.962891	3.640000	-6.300000	2.730000	1247.00	-0.09	-0.09	0.00	0.00	0.00	0.00	0.00	0.00	0.00	0.00	0.25	0.00	0.00	0.00	0.00	0.00	0.00	0.00	-0.378906	0.315918	1.636230	-35.560001	213.919998	-37.099998	4.00	0.00	0.00
1.03	13.00	8.75	9.75	9.25	4.75	11.50	1.50	9.25	4.25	4.00	1.50	1.25	7.75	7.75	2.25	0.50	-0.192871	0.057617	0.955078	5.670000	-5.670000	3.150000	1257.00	-0.09	-0.10	0.00	0.00	0.00	0.00	0.00	0.00	0.00	0.00	0.00	0.00	0.00	0.00	0.00	0.00	0.00	0.00	-0.156250	0.304688	1.076172	-20.930000	196.419998	-42.139999	0.00	0.00	0.00
1.04	12.50	8.50	9.75	9.25	4.75	11.75	1.50	9.25	4.25	4.00	1.75	1.50	8.00	7.75	2.00	1.00	-0.194336	0.063477	0.953613	7.630000	-4.830000	3.360000	1260.00	-0.08	-0.10	0.00	0.00	0.00	0.00	0.00	0.00	0.00	0.00	0.25	0.00	0.00	0.00	0.00	0.00	0.00	0.00	0.663086	0.211914	1.228516	-12.950000	179.199997	-48.509998	4.00	0.00	0.00
1.05	12.00	8.50	9.50	9.00	4.75	12.00	1.50	9.75	4.25	4.25	1.50	1.50	8.75	7.75	2.50	1.25	-0.191895	0.074219	0.954102	8.470000	-3.150000	3.430000	1275.00	-0.08	-0.11	0.00	0.00	0.00	0.00	0.00	0.00	0.00	0.00	0.00	0.00	0.00	0.00	0.00	0.00	0.00	0.00	0.882812	0.304688	2.201172	-37.869999	131.880005	-51.730000	0.00	0.00	0.00
1.06	11.75	8.25	9.50	9.00	4.50	12.00	1.50	10.00	4.50	4.25	1.75	2.00	9.50	8.00	2.50	1.50	-0.193848	0.076660	0.960449	7.910000	-0.770000	3.150000	1296.00	-0.07	-0.11	0.00	0.00	0.00	0.00	0.00	0.00	0.00	0.00	0.25	0.00	0.00	0.00	0.00	0.00	0.00	0.00	1.031250	0.455566	1.329102	-77.419998	0.210000	-39.480000	4.00	0.00	0.00
1.07	11.25	8.00	9.25	9.00	4.50	12.00	1.50	10.50	4.50	4.50	2.00	2.00	10.00	8.00	3.00	1.75	-0.191895	0.079590	0.960449	6.510000	1.610000	2.590000	1312.00	-0.06	-0.11	0.00	0.00	0.00	0.00	0.00	0.00	0.00	0.00	0.00	0.00	0.00	0.00	0.00	0.00	0.00	0.00	1.007812	0.441895	1.008301	-75.110001	-32.970001	-37.660000	0.00	0.00	0.00
1.08	10.50	7.50	9.00	8.75	4.50	12.25	1.50	10.50	5.00	5.25	2.25	2.25	10.50	8.00	3.25	1.50	-0.192871	0.085449	0.957520	4.550000	3.570000	1.750000	1324.00	-0.05	-0.11	0.00	0.00	0.00	0.00	0.00	0.00	0.00	0.00	0.00	0.00	0.00	0.00	0.00	0.00	0.00	0.00	0.949707	0.458984	0.902832	-68.459999	-57.400002	-36.959999	0.00	0.00	0.00
1.09	9.75	7.25	8.75	8.50	4.50	12.00	1.50	10.75	5.00	5.00	2.25	2.25	10.50	8.25	3.00	1.75	-0.198730	0.086426	0.952637	2.730000	4.900000	1.050000	1304.00	-0.04	-0.12	0.00	0.00	0.00	0.00	0.00	0.00	0.00	0.00	0.25	0.00	0.00	0.00	0.00	0.00	0.00	0.00	0.890625	0.455078	0.834473	-61.810001	-79.519997	-36.259998	4.00	0.00	0.00
1.10	9.00	6.75	8.50	8.25	4.50	12.00	1.75	10.75	5.00	5.50	2.50	2.50	11.50	8.50	3.50	2.00	-0.195312	0.076172	0.952637	1.330000	5.670000	0.490000	1320.00	-0.03	-0.12	0.00	0.00	0.00	0.00	0.00	0.00	0.00	0.00	0.00	0.00	0.00	0.00	0.00	0.00	0.00	0.00	0.828125	0.488281	0.798828	-54.529999	-99.330002	-34.580002	0.00	0.00	0.00
1.11	8.75	6.25	8.25	8.00	4.25	11.75	1.75	10.75	5.50	6.00	2.75	2.75	11.50	8.50	3.75	2.00	-0.196777	0.084961	0.958984	-0.490000	7.000000	-0.350000	1322.00	-0.02	-0.12	0.00	0.00	0.00	0.00	0.00	0.00	0.00	0.00	0.00	0.00	0.00	0.00	0.00	0.00	0.00	0.00	0.790527	0.505859	0.788086	-45.779999	-116.270004	-31.080000	0.00	0.00	0.00
1.12	8.00	6.00	8.00	7.75	4.25	11.50	2.00	10.75	6.00	6.50	3.25	3.00	11.75	8.50	3.75	2.50	-0.203125	0.083984	0.954102	-2.590000	8.050000	-1.190000	1334.00	-0.01	-0.11	0.00	0.00	0.00	0.00	0.00	0.00	0.00	0.00	0.00	0.00	0.00	0.00	0.00	0.00	0.00	0.00	0.705566	0.538574	0.809082	-35.700001	-130.899994	-25.129999	0.00	0.00	0.00
1.13	7.75	5.75	7.75	7.50	4.00	11.25	2.00	10.50	6.25	6.50	3.25	3.00	11.75	8.75	3.75	2.50	-0.206055	0.083984	0.957031	-5.390000	8.540000	-1.820000	1317.00	-0.00	-0.11	0.00	0.00	0.00	0.00	0.00	0.00	0.00	0.00	0.00	0.00	0.00	0.00	0.00	0.00	0.00	0.00	0.633301	0.565430	0.857910	-23.870001	-144.130005	-16.309999	0.00	0.00	0.00
1.14	7.00	5.50	7.50	7.00	4.00	11.00	2.25	10.50	6.75	6.75	3.50	3.25	11.75	8.75	4.00	2.25	-0.206543	0.077148	0.950684	-7.420000	8.680000	-2.030000	1315.00	0.01	-0.11	0.00	0.00	0.00	0.00	0.00	0.00	0.00	0.00	0.00	0.00	0.00	0.00	0.00	0.00	0.00	0.00	0.547852	0.578613	0.921875	-10.080000	-156.869995	-4.480000	0.00	0.00	0.00
1.15	6.75	5.25	7.50	6.75	4.00	10.75	2.50	10.50	7.00	7.25	3.75	3.25	12.00	8.75	4.25	2.25	-0.203125	0.072266	0.954590	-8.120000	8.260000	-2.030000	1326.00	0.01	-0.11	0.00	0.00	0.00	0.00	0.00	0.00	0.00	0.00	0.00	0.00	0.00	0.00	0.00	0.00	0.00	0.00	0.440918	0.583984	0.954102	6.020000	-168.839996	9.870000	0.00	0.00	0.00
1.16	6.50	5.00	7.25	6.50	4.00	10.50	2.50	10.50	7.25	7.25	3.75	3.50	12.00	9.00	4.50	2.50	-0.201660	0.068359	0.952637	-6.230000	7.140000	-1.400000	1324.00	0.02	-0.11	0.00	0.00	0.00	0.00	0.00	0.00	0.00	0.00	0.00	0.00	0.00	0.00	0.00	0.00	0.00	0.00	0.272949	0.537109	0.999023	24.360001	-179.270004	26.040001	0.00	0.00	0.00
1.17	6.00	4.75	6.75	6.25	3.75	10.25	2.50	10.25	7.50	7.75	4.50	3.50	12.25	9.25	4.75	2.50	-0.206055	0.071289	0.948242	-4.760000	6.930000	-1.050000	1322.00	0.03	-0.11	0.00	0.00	0.00	0.00	0.00	0.00	0.00	0.00	0.00	0.00	0.00	0.00	0.00	0.00	0.00	0.00	0.147461	0.445801	1.046875	40.320000	-187.320007	42.139999	0.00	0.00	0.00
1.18	5.50	4.50	6.50	6.00	3.75	10.00	2.75	10.25	7.50	7.75	4.75	3.75	12.25	9.25	4.75	2.75	-0.202637	0.068848	0.952637	-3.990000	6.860000	-0.980000	1316.00	0.04	-0.11	0.00	0.00	0.00	0.00	0.00	0.00	0.00	0.00	0.00	0.00	0.00	0.00	0.00	0.00	0.00	0.00	0.037109	0.385742	1.083984	49.630001	-192.360001	56.770000	0.00	0.00	0.00
1.19	5.25	4.00	6.50	5.75	3.75	10.00	2.75	10.25	7.75	7.75	5.00	4.00	12.50	9.50	5.00	3.00	-0.213379	0.066406	0.946289	-3.500000	6.860000	-0.700000	1324.00	0.04	-0.11	0.00	0.00	0.00	0.00	0.00	0.00	0.00	0.00	0.00	0.00	0.00	0.00	0.00	0.00	0.00	0.00	-0.054688	0.342285	1.145020	53.340000	-195.229996	69.930000	0.00	0.00	0.00
1.20	5.00	3.50	6.25	5.50	3.50	9.75	2.75	10.25	8.00	8.00	5.50	4.25	12.50	9.50	5.00	3.00	-0.206055	0.067383	0.949707	-3.080000	6.790000	-0.420000	1318.00	0.05	-0.10	0.00	0.00	0.00	0.00	0.00	0.00	0.00	0.00	0.00	0.00	0.00	0.00	0.00	0.00	0.00	0.00	-0.205566	0.240234	1.229980	57.959999	-198.240005	88.690002	0.00	0.00	0.00
1.21	4.00	3.25	5.75	5.25	3.50	9.75	3.00	10.00	8.25	8.25	5.75	4.50	12.75	9.75	5.25	3.25	-0.210449	0.068848	0.954102	-2.520000	7.000000	-0.210000	1316.00	0.06	-0.10	0.00	0.00	0.00	0.00	0.00	0.00	0.00	0.00	0.00	0.00	0.00	0.00	0.00	0.00	0.00	0.00	-0.281738	0.189941	1.266113	58.799999	-198.589996	91.980003	0.00	0.00	0.00
1.22	3.75	3.25	5.50	5.00	3.50	9.50	3.00	10.25	8.25	8.25	6.00	4.75	13.25	10.00	5.25	3.50	-0.208984	0.072266	0.956055	-2.100000	6.860000	-0.280000	1324.00	0.07	-0.11	0.00	0.00	0.00	0.00	0.00	0.00	0.00	0.00	0.00	0.00	0.00	0.00	0.00	0.00	0.00	0.00	-0.354492	0.147949	1.271973	57.049999	-196.910004	91.279999	0.00	0.00	0.00
1.23	4.00	3.25	5.25	5.00	3.50	9.50	3.25	10.25	8.50	8.50	6.25	5.25	13.25	10.25	5.25	3.50	-0.208984	0.074219	0.957520	-2.310000	7.140000	-0.280000	1347.00	0.07	-0.10	0.00	0.00	0.00	0.00	0.00	0.00	0.00	0.00	0.00	0.00	0.00	0.00	0.00	0.00	0.00	0.00	-0.392578	0.137207	1.294922	53.060001	-193.550003	87.430000	0.00	0.00	0.00
1.24	3.25	2.75	4.75	4.25	3.25	9.25	3.25	10.00	8.75	8.75	6.75	5.25	13.50	10.50	5.50	3.75	-0.207520	0.073242	0.951660	-2.590000	7.420000	-0.490000	1328.00	0.09	-0.10	0.00	0.00	0.00	0.00	0.00	0.00	0.00	0.00	0.00	0.00	0.00	0.00	0.00	0.00	0.00	0.00	-0.466309	0.151367	1.334473	47.250000	-189.979996	81.760002	0.00	0.00	0.00
1.25	2.75	2.75	4.50	3.50	3.25	9.00	3.25	10.00	8.75	9.00	7.00	5.75	13.75	10.50	5.50	3.75	-0.221680	0.069824	0.954590	-3.080000	7.630000	-0.490000	1320.00	0.09	-0.11	0.00	0.00	0.00	0.00	0.00	0.00	0.00	0.00	0.00	0.00	0.00	0.00	0.00	0.00	0.00	0.00	-0.503418	0.192383	1.368164	42.279999	-187.460007	75.110001	0.00	0.00	0.00
1.26	3.00	2.50	4.50	3.50	3.25	9.00	3.50	10.00	9.00	8.75	7.25	5.75	13.75	10.75	5.50	4.25	-0.215820	0.073730	0.952637	-3.710000	7.910000	-0.630000	1335.00	0.10	-0.10	0.00	0.00	0.00	0.00	0.00	0.00	0.00	0.00	0.00	0.00	0.00	0.00	0.00	0.00	0.00	0.00	-0.534668	0.254883	1.421875	41.650002	-187.039993	68.599998	0.00	0.00	0.00
1.27	2.50	2.25	4.00	2.75	3.00	8.75	3.50	10.00	9.25	9.25	7.50	6.25	14.00	10.75	5.75	4.25	-0.213867	0.070312	0.954102	-4.200000	8.050000	-0.840000	1328.00	0.11	-0.10	0.00	0.00	0.00	0.00	0.00	0.00	0.00	0.00	0.00	0.00	0.00	0.00	0.00	0.00	0.00	0.00	-0.553223	0.284180	1.432617	45.080002	-189.139999	63.139999	0.00	0.00	0.00
1.28	2.75	2.25	3.50	3.25	3.00	8.50	3.75	9.75	9.50	9.25	7.50	6.25	14.00	11.00	5.75	4.25	-0.218262	0.068848	0.952637	-4.550000	8.050000	-0.910000	1334.00	0.11	-0.10	0.00	0.00	0.00	0.00	0.00	0.00	0.00	0.00	0.00	0.00	0.00	0.00	0.00	0.00	0.00	0.00	-0.585938	0.284180	1.417969	47.950001	-192.009995	58.799999	0.00	0.00	0.00
1.29	2.00	2.25	3.50	3.00	3.00	8.25	3.75	9.75	9.50	9.50	7.50	6.50	14.00	11.25	5.75	4.75	-0.218262	0.068848	0.952637	-4.550000	8.050000	-0.910000	1330.00	0.12	-0.10	0.00	0.00	0.00	0.00	0.00	0.00	0.00	0.00	0.00	0.00	0.00	0.00	0.00	0.00	0.00	0.00	-0.600098	0.289551	1.359863	48.930000	-193.479996	55.790001	0.00	0.00	0.00
1.30	2.00	2.25	3.00	2.75	2.75	8.25	3.75	9.75	9.75	9.75	7.75	6.75	14.25	11.50	5.75	4.50	-0.223145	0.068848	0.952637	-4.620000	8.680000	-1.330000	1334.00	0.12	-0.10	0.00	0.00	0.00	0.00	0.00	0.00	0.00	0.00	0.00	0.00	0.00	0.00	0.00	0.00	0.00	0.00	-0.613281	0.291016	1.297363	49.279999	-192.289993	54.040001	0.00	0.00	0.00
1.31	2.25	2.00	3.25	2.25	2.75	8.00	4.00	9.75	10.00	9.75	7.75	6.75	14.00	11.75	5.75	4.50	-0.224609	0.066895	0.949707	-4.900000	10.220000	-1.610000	1336.00	0.12	-0.10	0.00	0.00	0.00	0.00	0.00	0.00	0.00	0.00	0.00	0.00	0.00	0.00	0.00	0.00	0.00	0.00	-0.625000	0.295410	1.257812	50.959999	-189.070007	53.689999	0.00	0.00	0.00
1.32	2.00	2.00	2.25	2.25	2.75	8.00	3.75	9.50	10.25	10.00	8.00	7.00	14.50	11.75	6.00	5.00	-0.229980	0.057617	0.950195	-4.620000	10.920000	-1.610000	1335.00	0.13	-0.10	0.00	0.00	0.00	0.00	0.00	0.00	0.00	0.00	0.00	0.00	0.00	0.00	0.00	0.00	0.00	0.00	-0.661621	0.293945	1.216797	53.619999	-184.869995	55.439999	0.00	0.00	0.00
1.33	1.75	2.00	2.25	2.00	2.50	7.75	4.00	9.50	10.25	10.00	8.25	7.25	14.50	12.00	6.25	4.75	-0.229004	0.067383	0.947266	-4.130000	11.480000	-1.260000	1337.00	0.14	-0.10	0.00	0.00	0.00	0.00	0.00	0.00	0.00	0.00	0.00	0.00	0.00	0.00	0.00	0.00	0.00	0.00	-0.697266	0.268555	1.173828	55.369999	-180.039993	59.010002	0.00	0.00	0.00
1.34	1.50	1.75	2.00	1.75	2.25	7.50	4.00	9.50	10.50	10.25	8.25	7.50	14.75	12.25	6.25	5.00	-0.232422	0.062500	0.953125	-3.570000	12.180000	-1.050000	1335.00	0.14	-0.10	0.00	0.00	0.00	0.00	0.00	0.00	0.00	0.00	0.00	0.00	0.00	0.00	0.00	0.00	0.00	0.00	-0.793457	0.243164	1.079102	56.279999	-173.740005	64.190002	0.00	0.00	0.00
1.35	1.25	2.00	1.75	2.00	2.25	7.50	4.00	9.25	10.75	10.25	8.50	7.50	15.00	12.25	6.50	5.00	-0.227539	0.068359	0.942871	-2.450000	12.180000	-0.980000	1343.00	0.15	-0.10	0.00	0.00	0.00	0.00	0.00	0.00	0.00	0.00	0.00	0.00	0.00	0.00	0.00	0.00	0.00	0.00	-0.851562	0.150879	1.041504	61.250000	-156.869995	75.459999	0.00	0.00	0.00
1.36	1.50	1.75	1.75	1.75	2.00	7.50	4.00	9.25	10.75	10.50	8.50	7.50	15.25	12.50	6.50	5.25	-0.232910	0.056641	0.948242	-0.210000	12.670000	-0.490000	1346.00	0.15	-0.10	0.00	0.00	0.00	0.00	0.00	0.00	0.00	0.00	0.00	0.00	0.00	0.00	0.00	0.00	0.00	0.00	-0.932129	0.110352	1.003906	60.619999	-147.139999	79.449997	0.00	0.00	0.00
1.37	1.50	1.25	1.25	1.50	1.75	7.00	4.00	9.50	11.00	10.75	8.75	7.75	15.25	12.50	6.25	5.25	-0.229004	0.057129	0.951660	2.940000	13.580000	0.210000	1336.00	0.16	-0.10	0.00	0.00	0.00	0.00	0.00	0.00	0.00	0.00	0.00	0.00	0.00	0.00	0.00	0.00	0.00	0.00	-1.028809	0.088867	0.910156	56.840000	-136.360001	82.320000	0.00	0.00	0.00
1.38	1.25	1.50	1.50	1.50	1.75	6.75	4.00	9.25	11.00	10.75	9.00	8.00	15.50	12.75	6.75	5.50	-0.220215	0.067383	0.957520	6.720000	18.760000	1.470000	1350.00	0.16	-0.10	0.00	0.00	0.00	0.00	0.00	0.00	0.00	0.00	0.00	0.00	0.00	0.00	0.00	0.00	0.00	0.00	-1.128418	0.049805	0.765137	50.680000	-123.340004	83.160004	0.00	0.00	0.00
1.39	0.75	1.25	1.50	1.50	1.50	6.75	3.75	9.25	11.00	11.00	9.00	8.00	16.25	12.75	7.25	5.75	-0.240234	0.060547	0.962891	8.960000	24.080000	2.100000	1352.00	0.16	-0.10	0.00	0.00	0.00	0.00	0.00	0.00	0.00	0.00	0.00	0.00	0.00	0.00	0.00	0.00	0.00	0.00	-1.237793	0.036133	0.584473	43.119999	-106.400002	80.430000	0.00	0.00	0.00
1.40	1.00	1.25	0.75	1.00	1.50	6.75	3.75	9.25	11.00	11.00	9.25	8.25	16.00	12.75	7.00	6.00	-0.250977	0.053711	0.958984	11.690000	28.000000	2.800000	1341.00	0.17	-0.10	0.00	0.00	0.00	0.00	0.00	0.00	0.00	0.00	0.00	0.00	0.00	0.00	0.00	0.00	0.00	0.00	-1.328613	0.033203	0.446289	36.049999	-84.699997	73.779999	0.00	0.00	0.00
1.41	0.75	1.25	1.00	1.00	1.50	6.25	3.75	9.25	11.00	11.25	9.25	8.25	16.75	12.75	7.50	6.25	-0.246094	0.061523	0.963379	14.560000	32.619999	3.780000	1353.00	0.17	-0.10	0.00	0.00	0.00	0.00	0.00	0.00	0.00	0.00	0.00	0.00	0.00	0.00	0.00	0.00	0.00	0.00	-1.396973	0.062500	0.463867	32.200001	-61.459999	63.770000	0.00	0.00	0.00
1.42	0.50	0.75	0.25	0.75	1.25	6.25	3.50	9.25	11.25	11.25	9.50	8.50	17.00	13.00	7.50	6.50	-0.246582	0.073730	0.963379	15.680000	39.270000	4.060000	1341.00	0.18	-0.10	0.00	0.00	0.00	0.00	0.00	0.00	0.00	0.00	0.00	0.00	0.00	0.00	0.00	0.00	0.00	0.00	-1.425293	0.090332	0.564941	30.660000	-43.889999	51.520000	0.00	0.00	0.00
1.43	0.25	0.75	0.50	0.50	1.00	6.00	3.50	9.00	11.50	11.50	9.75	8.50	17.25	13.00	7.75	6.75	-0.255859	0.081543	0.967773	16.379999	46.830002	3.990000	1344.00	0.19	-0.10	0.00	0.00	0.00	0.00	0.00	0.00	0.00	0.00	0.00	0.00	0.00	0.00	0.00	0.00	0.00	0.00	-1.437012	0.098633	0.606934	27.580000	-34.090000	38.779999	0.00	0.00	0.00
1.44	0.25	1.00	0.50	1.00	1.00	5.75	3.50	9.00	11.50	11.50	9.75	8.75	17.25	13.00	7.75	7.00	-0.268066	0.103516	0.968262	15.260000	54.459999	3.360000	1355.00	0.18	-0.10	0.00	0.00	0.00	0.00	0.00	0.00	0.00	0.00	0.00	0.00	0.00	0.00	0.00	0.00	0.00	0.00	-1.469238	0.070801	0.540039	23.660000	-27.719999	26.460001	0.00	0.00	0.00
1.45	0.50	0.75	0.25	0.50	1.00	5.50	3.50	8.75	11.50	12.00	10.00	8.75	17.50	13.25	7.50	7.00	-0.291992	0.094727	0.961426	10.780000	66.290001	1.540000	1349.00	0.19	-0.10	0.25	0.00	0.00	0.00	0.00	0.00	0.00	0.00	0.00	0.00	0.00	0.00	0.00	0.00	0.00	0.00	-1.987793	-1.050781	-1.256348	-45.639999	48.369999	29.960001	3.00	0.00	0.00
1.46	0.25	0.75	0.50	0.50	0.75	5.25	3.25	8.50	11.75	12.00	10.25	9.00	17.50	13.50	7.75	7.00	-0.304199	0.110352	0.946777	6.440000	71.330002	0.420000	1349.00	0.19	-0.10	1.25	0.25	0.00	0.00	0.00	0.00	0.00	0.00	0.00	0.00	0.00	0.00	0.00	0.00	0.00	0.00	-0.854004	-0.179688	0.291016	-118.300003	124.459999	16.590000	18.00	0.00	0.00
1.47	0.00	0.75	0.00	0.50	0.75	5.00	3.50	8.25	11.75	12.25	10.25	8.75	17.25	13.50	7.75	7.00	-0.307617	0.111816	0.951660	1.680000	76.720001	-1.330000	1333.00	0.20	-0.10	2.75	0.75	0.50	0.25	0.00	0.00	0.00	0.00	0.00	0.00	0.00	0.00	0.00	0.00	0.00	0.00	0.675781	-0.018555	2.195312	-115.360001	130.339996	14.140000	52.00	-0.38	0.04
1.48	0.00	0.75	0.00	0.25	0.75	3.75	3.50	8.00	12.25	12.50	10.50	8.75	17.25	13.75	8.00	7.00	-0.325684	0.098633	0.970703	-3.010000	82.599998	-3.430000	1329.00	0.21	-0.09	4.50	1.50	1.00	0.50	0.00	0.00	0.00	0.00	0.00	0.00	0.00	0.00	0.00	0.00	0.00	0.00	0.320312	-0.439941	1.296875	-93.940002	88.340004	14.980000	92.00	-0.38	0.03
1.49	0.00	1.00	0.00	0.00	0.50	3.50	3.50	7.75	12.50	12.50	10.50	8.75	17.00	13.75	8.00	7.00	-0.333496	0.107910	0.965820	-7.770000	88.340004	-4.970000	1319.00	0.21	-0.09	5.50	2.00	1.50	0.50	0.00	0.00	0.00	0.00	0.00	0.00	0.00	0.00	0.00	0.00	0.00	0.00	0.302734	-0.608398	1.346191	-114.800003	115.290001	-42.630001	117.00	-0.38	0.03
1.50	0.00	0.50	0.00	0.25	0.75	2.50	3.50	7.50	12.50	12.75	10.50	8.75	16.50	14.25	8.25	7.25	-0.349609	0.108398	0.980957	-12.110000	93.519997	-6.580000	1310.00	0.22	-0.08	6.50	3.00	1.50	0.75	0.00	0.00	0.00	0.00	0.00	0.00	0.00	0.00	0.00	0.00	0.00	0.00	-0.070801	-0.492188	1.189941	-103.599998	114.379997	-62.510002	143.00	-0.38	0.02
1.51	0.00	0.25	0.00	0.50	0.50	2.50	3.50	7.00	13.00	13.00	10.50	8.75	16.00	14.50	8.25	7.25	-0.362305	0.102051	0.972168	-15.050000	98.559998	-8.470000	1307.00	0.22	-0.08	8.00	4.00	1.75	1.00	0.00	0.00	0.00	0.00	0.00	0.00	0.00	0.00	0.00	0.00	0.00	0.00	-0.105469	-0.198242	1.061523	-83.090004	120.400002	-71.050003	180.00	-0.38	0.01
1.52	0.00	0.25	0.00	0.00	0.50	1.25	3.50	6.25	13.00	13.25	10.75	8.50	15.50	14.75	8.25	7.50	-0.382812	0.088867	0.971680	-17.150000	103.529999	-9.940000	1272.00	0.23	-0.07	8.75	5.25	2.00	1.25	0.00	0.00	0.00	0.00	0.00	0.00	0.00	0.00	0.00	0.00	0.00	0.00	0.013184	0.109375	1.134277	-55.160000	126.699997	-67.059998	209.00	-0.38	0.00
1.53	0.00	0.50	0.00	0.00	0.25	1.25	3.50	6.00	13.50	13.00	10.75	8.50	15.00	15.00	8.25	7.25	-0.406738	0.088867	0.979492	-18.549999	109.129997	-10.920000	1268.00	0.23	-0.06	9.00	5.50	2.50	1.00	0.00	0.00	0.00	0.00	0.00	0.00	0.00	0.00	0.00	0.00	0.00	0.00	-0.004883	0.221680	0.929199	-27.719999	133.979996	-54.529999	219.00	-0.38	0.01
1.54	0.50	0.50	0.00	0.00	0.50	1.25	3.50	5.50	13.50	13.25	10.50	8.25	14.25	15.25	8.50	7.75	-0.416016	0.070312	0.973145	-19.389999	115.150002	-11.620000	1266.00	0.23	-0.06	9.75	6.50	2.25	1.00	0.00	0.00	0.00	0.00	0.00	0.00	0.00	0.00	0.00	0.00	0.00	0.00	0.000488	0.326660	0.943359	-11.200000	145.880005	-42.139999	236.00	-0.38	0.00
1.55	0.25	0.50	0.00	0.00	0.25	0.75	3.50	5.00	13.50	13.25	10.50	8.00	13.50	15.50	8.50	7.75	-0.442871	0.079590	0.972168	-19.460001	121.590004	-11.830000	1236.00	0.24	-0.05	9.50	6.00	2.25	1.25	0.00	0.00	0.00	0.00	0.00	0.00	0.00	0.00	0.00	0.00	0.00	0.00	-0.077637	0.387695	1.000000	-4.130000	153.860001	-30.520000	230.00	-0.38	0.00
1.56	0.00	0.00	0.00	0.00	0.25	0.75	3.50	4.00	13.50	13.25	10.50	8.00	13.00	15.50	8.50	8.00	-0.454102	0.068848	0.950684	-19.180000	128.800003	-12.110000	1205.00	0.25	-0.04	9.50	6.00	2.00	1.00	0.00	0.00	0.00	0.00	0.00	0.00	0.00	0.00	0.00	0.00	0.00	0.00	-0.123535	0.417969	0.955566	-4.760000	154.490005	-19.740000	224.00	-0.38	0.01
1.57	0.00	0.25	0.00	0.00	0.25	0.00	3.50	3.50	13.50	13.25	10.50	7.75	12.50	15.75	8.50	8.00	-0.476074	0.068848	0.955566	-18.969999	136.500000	-12.460000	1183.00	0.25	-0.03	9.50	6.25	2.00	1.25	0.00	0.00	0.00	0.00	0.00	0.00	0.00	0.00	0.00	0.00	0.00	0.00	-0.139648	0.369141	0.916992	-9.100000	152.529999	-10.290000	230.00	-0.38	0.00
1.58	0.00	0.50	0.00	0.00	0.25	0.00	3.50	2.75	13.25	13.25	10.25	7.75	12.00	16.00	8.50	8.25	-0.500000	0.058594	0.965332	-18.900000	144.759995	-12.670000	1165.00	0.25	-0.03	9.25	6.00	2.50	1.25	0.00	0.00	0.00	0.00	0.00	0.00	0.00	0.00	0.00	0.00	0.00	0.00	-0.193848	0.276367	1.009766	-11.410000	146.509995	-2.940000	231.00	-0.38	0.00
1.59	0.25	0.50	0.00	0.00	0.25	0.00	3.25	3.00	13.25	13.25	10.25	7.50	11.50	16.00	8.50	8.25	-0.519043	0.080566	0.963867	-19.040001	153.440002	-13.230000	1159.00	0.25	-0.03	10.25	6.75	2.25	1.50	0.00	0.00	0.00	0.00	0.00	0.00	0.00	0.00	0.00	0.00	0.00	0.00	-0.215820	0.137695	1.077637	-11.760000	138.949997	1.470000	251.00	-0.38	-0.00
1.60	0.00	0.25	0.00	0.00	0.00	0.25	3.25	2.00	13.00	13.25	10.00	7.50	11.25	16.25	8.50	8.50	-0.567871	0.051758	0.970703	-18.900000	172.759995	-14.770000	1130.00	0.26	-0.02	11.00	8.00	3.00	2.00	0.25	0.00	0.00	0.00	0.00	0.00	0.00	0.00	0.00	0.00	0.00	0.00	-0.270996	0.038574	1.221680	-15.470000	132.860001	-0.420000	294.00	-0.38	-0.01
1.61	0.00	0.25	0.00	0.00	0.00	0.25	3.25	1.75	12.75	13.00	10.00	7.25	10.75	16.50	8.75	8.50	-0.604004	0.040039	0.962891	-19.530001	181.580002	-14.630000	1116.00	0.26	-0.02	12.00	8.75	3.75	3.00	0.50	0.00	0.00	0.00	0.00	0.00	0.00	0.00	0.00	0.00	0.00	0.00	-0.339355	-0.007812	1.414062	-17.010000	123.059998	-4.970000	341.00	-0.37	-0.01
1.62	0.00	0.25	0.00	0.00	0.00	0.00	3.25	1.25	12.50	12.75	9.75	7.00	10.25	16.50	8.50	8.75	-0.632324	0.017578	0.959473	-21.000000	190.190002	-13.650000	1083.00	0.27	-0.02	13.50	9.75	4.50	4.00	0.25	0.50	0.00	0.00	0.00	0.00	0.00	0.00	0.00	0.00	0.00	0.00	-0.480957	0.115234	1.602539	-17.990000	108.430000	-7.070000	397.00	-0.36	-0.02
1.63	0.00	0.00	0.00	0.00	0.00	0.00	3.25	1.50	12.25	12.50	9.75	6.75	10.00	16.50	8.50	8.50	-0.656250	0.035645	1.021484	-21.770000	199.080002	-11.760000	1071.00	0.27	-0.02	14.25	10.75	4.75	4.75	0.75	1.00	0.00	0.00	0.00	0.00	0.00	0.00	0.00	0.00	0.00	0.00	-0.466797	0.155273	1.596680	-19.740000	91.769997	-3.920000	444.00	-0.36	-0.03
1.64	0.00	0.00	0.00	0.00	0.00	0.00	3.25	1.00	11.75	12.25	9.50	6.50	9.50	16.25	8.50	8.75	-0.724121	0.049316	1.050781	-22.750000	208.180008	-10.500000	1038.00	0.27	-0.01	15.00	11.25	5.25	5.00	0.75	1.75	0.00	0.00	0.00	0.00	0.00	0.00	0.00	0.00	0.00	0.00	-0.533203	0.163086	1.561035	-44.029999	52.080002	-4.130000	478.00	-0.35	-0.03
1.65	0.00	0.00	0.00	0.00	0.00	0.00	3.25	0.50	11.50	12.00	9.25	6.25	9.50	16.25	8.25	8.50	-0.798828	0.014648	1.152344	-26.320000	217.350006	-10.500000	1011.00	0.27	-0.01	15.00	11.50	5.25	5.75	1.00	2.00	0.00	0.25	0.00	0.00	0.00	0.00	0.00	0.00	0.00	0.00	-0.129883	-0.031738	0.974121	-22.750000	16.870001	2.380000	502.00	-0.35	-0.04
1.66	0.00	0.00	0.00	0.00	0.00	0.00	3.25	0.75	11.00	11.75	9.00	6.25	9.25	15.75	8.25	8.50	-0.874023	0.129883	1.165527	-28.559999	225.399994	-10.850000	994.00	0.27	-0.01	15.25	11.50	5.50	6.25	1.25	3.00	0.00	0.50	0.00	0.00	0.00	0.00	0.00	0.00	0.00	0.00	-0.220703	0.143066	0.975098	-18.340000	13.510000	1.820000	536.00	-0.34	-0.05
1.67	0.00	0.00	0.00	0.00	0.00	0.00	3.25	0.75	10.00	11.25	8.75	5.75	9.00	15.50	8.00	8.25	-0.954590	0.074219	1.263184	-31.430000	232.050003	-14.980000	953.00	0.27	-0.01	15.25	12.00	5.50	6.75	1.00	3.50	0.00	0.75	0.00	0.00	0.00	0.00	0.00	0.00	0.00	0.00	-0.185547	0.084961	0.932129	-18.900000	11.270000	4.200000	556.00	-0.33	-0.06
1.68	0.00	0.00	0.00	0.00	0.00	0.00	3.00	0.25	9.75	10.75	8.25	5.50	8.75	15.25	7.50	8.00	-1.006348	0.263672	1.333008	-34.299999	237.160004	-19.040001	907.00	0.27	-0.01	15.00	12.00	5.75	7.25	1.00	4.50	0.25	1.25	0.50	0.00	0.00	0.00	0.00	0.00	0.00	0.00	-0.139160	0.058105	0.925293	-22.610001	10.780000	4.270000	597.00	-0.31	-0.06
1.69	0.00	0.00	0.00	0.00	0.00	0.50	2.75	0.50	9.25	10.25	7.75	5.25	8.25	14.50	7.50	7.50	-1.048828	0.177734	1.166992	-32.270000	245.559998	-26.460001	874.00	0.27	-0.01	15.00	11.75	5.75	7.75	1.50	5.25	0.25	1.75	0.25	0.00	0.00	0.00	0.00	0.00	0.00	0.00	-0.212891	0.080078	1.031738	-31.219999	8.050000	3.080000	622.00	-0.31	-0.07
1.70	0.00	0.00	0.00	0.00	0.00	0.00	2.75	0.25	8.75	9.75	7.25	4.75	8.00	13.75	6.75	7.25	-1.174805	0.217773	1.425293	-30.240000	250.740005	-33.180000	815.00	0.27	-0.01	14.50	11.25	5.75	7.75	1.50	6.25	0.25	2.25	0.75	0.25	0.00	0.00	0.50	0.00	0.00	0.00	-0.260254	-0.001465	1.020996	-24.500000	-7.910000	3.360000	649.00	-0.28	-0.08
1.71	0.00	0.00	0.00	0.00	0.00	0.00	2.25	0.00	8.25	9.25	6.50	4.25	7.50	13.00	6.00	7.00	-1.160645	0.197266	1.482422	-32.130001	250.250000	-39.830002	748.00	0.28	-0.01	14.50	11.25	6.00	8.00	1.75	7.25	0.50	3.50	1.50	0.25	0.00	0.00	1.00	0.00	0.00	0.00	-0.179199	0.075684	0.977051	-22.120001	-14.910000	3.990000	716.00	-0.26	-0.09
1.72	0.00	0.00	0.00	0.00	0.00	0.00	1.75	0.00	7.50	9.00	6.00	3.25	6.75	12.25	5.50	6.25	-1.103516	0.243652	1.575684	-26.460001	245.630005	-42.560001	679.00	0.28	-0.00	13.75	10.50	6.00	8.00	2.00	7.75	0.50	4.75	1.50	0.25	0.00	0.00	2.00	0.00	0.25	0.00	-0.209473	0.053711	1.007324	-19.320000	-18.059999	4.340000	744.00	-0.24	-0.10
1.73	0.00	0.00	0.00	0.00	0.00	0.25	1.50	0.25	7.00	8.25	5.00	2.50	6.25	11.25	5.00	5.75	-1.061523	0.089355	1.518066	-23.030001	238.839996	-46.270000	619.00	0.28	-0.00	13.50	10.50	6.25	8.00	2.00	8.25	0.50	5.25	2.00	0.50	0.25	0.00	2.25	0.00	0.50	0.00	-0.197266	0.053223	0.969727	-15.260000	-20.020000	4.690000	780.00	-0.22	-0.11
1.74	0.00	0.00	0.00	0.00	0.00	0.25	1.00	0.25	6.25	7.75	3.75	2.00	5.50	10.25	4.50	5.00	-0.841797	0.181152	1.454102	-21.000000	229.880005	-45.500000	541.00	0.28	-0.00	12.75	10.00	6.00	8.25	2.25	8.75	0.75	5.50	2.25	0.50	0.25	0.00	2.75	0.25	0.50	0.00	-0.190918	0.060059	0.976562	-12.250000	-19.600000	4.830000	795.00	-0.21	-0.11
1.75	0.00	0.00	0.00	0.00	0.00	0.00	0.75	0.25	5.50	7.00	2.75	1.75	4.75	9.00	2.50	3.50	-0.666504	0.227539	1.300781	-15.540000	227.779999	-44.520000	441.00	0.28	0.01	12.50	9.50	6.25	8.00	2.50	9.00	0.75	5.75	2.25	1.00	0.25	0.25	3.25	0.50	0.50	0.00	-0.192871	0.053711	0.965332	-9.380000	-18.059999	4.970000	815.00	-0.19	-0.11
1.76	0.00	0.00	0.00	0.00	0.00	0.00	0.50	0.25	4.75	6.25	2.25	1.00	3.25	7.50	1.75	1.75	-0.326660	0.319336	0.979004	32.619999	234.149994	-44.099998	349.00	0.28	0.03	11.75	9.00	6.00	8.25	2.75	9.00	1.00	6.00	3.00	1.00	0.50	0.25	3.50	0.50	0.75	0.00	-0.192383	0.053223	0.965332	-7.140000	-16.450001	4.900000	833.00	-0.17	-0.11
1.77	0.50	0.00	0.00	0.00	0.00	0.00	0.25	0.25	2.75	5.50	1.75	1.00	2.75	5.25	0.75	1.00	-0.162598	0.332031	0.833008	66.849998	236.320007	-47.950001	258.00	0.25	0.01	11.50	8.50	5.75	8.00	2.75	9.50	1.00	6.25	3.25	1.00	0.50	0.50	3.75	1.00	0.50	0.25	-0.184082	0.058105	0.961426	-5.950000	-14.840000	4.760000	842.00	-0.16	-0.11
1.78	0.25	0.25	0.00	0.00	0.00	0.00	0.25	0.00	2.50	5.00	1.25	0.75	2.00	3.00	0.75	0.50	0.548340	-0.062012	0.753418	102.690002	233.520004	-59.080002	200.00	0.25	0.03	11.00	8.25	6.25	8.00	2.75	9.75	1.00	6.50	3.75	1.00	0.50	0.50	4.75	1.00	0.50	0.25	-0.190430	0.057129	0.972656	-4.620000	-13.160000	4.480000	865.00	-0.15	-0.11
1.79	0.00	0.50	0.00	0.00	0.00	0.00	0.25	0.00	1.75	4.50	1.00	0.75	1.25	2.00	0.25	0.50	-0.007812	0.316406	2.848633	149.800003	197.539993	-91.419998	155.00	0.23	0.02	10.50	8.00	6.25	7.75	3.00	10.25	1.00	6.75	4.00	1.25	0.50	0.50	4.75	0.75	1.00	0.00	-0.180664	0.048828	0.961914	-1.260000	-10.640000	4.410000	877.00	-0.14	-0.11
1.80	0.00	0.25	0.00	0.00	0.00	0.00	0.25	0.00	1.50	4.25	1.00	0.50	0.50	1.50	0.25	0.50	0.760254	-0.094727	2.843750	183.190002	80.430000	-104.510002	129.00	0.25	0.05	10.25	8.25	6.00	7.75	2.75	10.25	1.00	6.75	4.50	1.25	0.75	0.50	5.00	1.25	0.75	0.25	-0.174805	0.056152	0.953125	-0.630000	-9.940000	4.340000	887.00	-0.14	-0.11
1.81	0.25	0.25	0.00	0.00	0.00	0.00	0.25	0.00	1.50	4.00	1.25	0.25	0.75	1.25	0.00	0.50	0.598145	-0.122070	2.447266	153.789993	-42.560001	-103.250000	126.00	0.22	0.04	10.00	7.50	6.00	7.75	2.75	10.50	1.25	7.00	4.25	1.25	0.75	0.50	5.00	1.50	0.75	0.25	-0.177734	0.055176	0.957520	-0.350000	-9.380000	4.060000	886.00	-0.13	-0.11
1.82	0.25	0.25	0.00	0.00	0.00	0.25	0.25	0.00	1.75	3.50	1.00	0.25	0.50	1.25	0.50	0.25	0.429688	-0.095215	1.796387	90.860001	-130.759995	-91.769997	126.00	0.22	0.05	9.50	7.25	6.00	7.75	3.00	10.75	1.00	7.00	4.00	1.25	0.75	0.75	5.25	1.25	1.00	0.25	-0.172363	0.054688	0.960449	-0.140000	-9.030000	3.990000	882.00	-0.13	-0.12
1.83	0.00	0.50	0.00	0.00	0.00	0.00	0.25	0.00	0.75	3.00	1.25	0.25	1.00	1.00	0.00	0.25	0.331543	0.065430	1.251465	27.299999	-181.229996	-77.769997	100.00	0.21	-0.00	9.25	6.75	6.00	7.50	3.00	11.25	1.25	7.25	4.50	1.50	0.75	0.50	5.50	1.25	1.00	0.25	-0.156738	0.045898	0.948242	0.070000	-8.400000	3.920000	896.00	-0.12	-0.12
1.84	0.00	0.25	0.00	0.00	0.00	0.00	0.25	0.00	0.75	3.25	1.25	0.25	0.00	1.00	0.50	0.50	0.269531	0.227051	0.980957	-8.330000	-203.910004	-64.470001	98.00	0.25	0.04	9.00	6.75	5.75	7.50	3.00	11.50	1.25	7.50	4.00	1.25	1.00	0.50	5.75	1.50	0.75	0.25	-0.176758	0.056641	0.958496	0.350000	-7.840000	3.920000	891.00	-0.12	-0.13
1.85	0.25	0.00	0.00	0.00	0.00	0.00	0.25	0.00	1.00	2.75	1.00	0.50	0.50	1.00	0.00	0.00	0.233398	0.328613	0.801270	-14.140000	-210.699997	-52.990002	91.00	0.22	0.04	8.75	6.25	5.75	7.25	3.00	11.50	1.25	7.50	4.00	1.50	0.75	0.75	6.00	1.25	0.75	0.50	-0.177246	0.059570	0.962402	0.560000	-7.350000	3.780000	884.00	-0.12	-0.13
1.86	0.00	0.00	0.00	0.00	0.00	0.00	0.25	0.75	0.75	2.50	0.75	0.25	0.00	0.50	0.25	0.25	0.218262	0.353027	0.763672	-1.820000	-210.770004	-43.610001	83.00	0.21	-0.01	8.50	6.25	5.75	7.25	3.00	12.00	1.00	7.50	4.25	1.25	0.75	0.75	5.75	1.00	0.75	0.25	-0.173340	0.059082	0.955078	0.350000	-6.790000	3.710000	877.00	-0.12	-0.13
1.87	0.25	0.25	0.00	0.00	0.00	0.00	0.00	0.00	0.75	2.50	1.00	0.25	0.25	0.00	0.25	0.00	0.198242	0.315918	0.798340	12.670000	-211.960007	-35.070000	70.00	0.19	0.02	8.50	5.75	5.75	7.25	3.00	11.75	1.00	7.75	4.00	1.25	0.75	1.50	6.00	1.75	1.00	0.25	-0.167969	0.058594	0.954590	-0.420000	-6.720000	3.570000	892.00	-0.11	-0.13
1.88	0.00	0.00	0.00	0.00	0.00	0.00	0.25	0.00	0.75	2.50	1.00	0.00	0.25	0.50	0.50	0.00	0.134277	0.229492	0.914551	9.240000	-222.949997	-16.660000	74.00	0.25	0.05	8.25	5.75	5.75	7.00	3.00	11.75	1.00	7.75	4.25	1.25	0.75	1.00	6.25	1.50	0.75	0.25	-0.166504	0.060059	0.947266	-1.260000	-7.070000	3.220000	880.00	-0.11	-0.13
1.89	0.00	0.00	0.00	0.00	0.00	0.00	0.00	0.00	0.50	2.25	0.75	0.00	0.25	0.50	0.00	0.00	0.134277	0.229492	0.914551	9.240000	-222.949997	-16.660000	53.00	0.25	0.05	8.00	5.75	5.75	7.00	3.25	12.00	1.00	7.75	4.25	1.25	0.75	1.00	6.25	1.25	1.00	0.25	-0.162109	0.057617	0.956543	-2.170000	-7.350000	3.010000	884.00	-0.11	-0.13
1.90	0.25	0.50	0.00	0.00	0.00	0.00	0.00	0.00	0.50	2.25	0.75	0.00	0.00	0.00	0.00	0.00	0.102051	0.232422	0.988770	-4.760000	-231.910004	-5.180000	54.00	0.14	0.04	8.25	5.50	5.50	7.00	3.25	12.25	1.00	7.75	4.00	1.50	1.00	0.75	6.00	1.25	0.75	0.25	-0.165039	0.059570	0.949707	-2.800000	-7.490000	2.800000	878.00	-0.11	-0.13
1.91	0.25	0.00	0.00	0.00	0.00	0.00	0.00	0.00	0.50	2.25	0.75	0.00	0.25	0.25	0.00	0.25	0.015137	0.277832	1.115723	-17.150000	-254.169998	16.870001	55.00	0.21	0.04	7.75	5.25	5.50	6.75	3.25	12.00	1.25	7.75	4.25	1.25	1.00	1.00	6.25	1.25	1.00	0.25	-0.167969	0.056152	0.945801	-3.640000	-7.980000	2.660000	876.00	-0.10	-0.13
1.92	0.25	0.00	0.00	0.00	0.00	0.00	0.00	0.00	0.00	2.00	0.75	0.00	0.00	0.25	0.00	0.25	-0.069824	0.280273	1.108887	-6.650000	-265.579987	24.850000	41.00	0.00	0.00	7.50	5.00	5.50	6.75	3.25	12.25	1.25	8.00	5.00	1.50	1.00	1.25	6.25	1.50	0.75	0.00	-0.161133	0.061035	0.951660	-4.480000	-8.470000	2.520000	894.00	-0.09	-0.13
1.93	0.50	0.00	0.00	0.00	0.00	0.00	0.00	0.00	0.00	2.25	0.75	0.00	0.25	0.25	0.00	0.25	-0.176270	0.251953	1.030273	10.080000	-273.559998	31.010000	50.00	0.17	0.00	7.50	5.00	5.50	6.75	3.25	12.50	1.25	8.00	5.00	1.75	1.50	1.00	6.50	1.50	0.75	0.25	-0.162109	0.055176	0.953125	-4.900000	-8.610000	2.310000	908.00	-0.09	-0.13
1.94	0.00	0.00	0.00	0.00	0.00	0.00	0.25	0.00	0.25	2.00	0.75	0.00	0.00	0.25	0.00	0.25	-0.289062	0.210449	0.906250	28.700001	-275.170013	36.540001	47.00	0.00	0.00	7.25	4.50	5.50	6.50	3.50	12.50	1.25	7.75	5.25	1.75	1.25	1.00	6.50	2.00	1.00	0.25	-0.159668	0.052734	0.948730	-4.900000	-8.820000	2.240000	904.00	-0.08	-0.12
1.95	0.00	0.00	0.00	0.00	0.00	0.00	0.25	0.25	0.50	2.25	0.25	0.00	0.00	0.25	0.00	0.00	-0.426758	0.195801	0.723633	49.209999	-266.559998	42.910000	50.00	0.21	0.07	7.00	4.00	5.25	6.50	3.75	12.50	1.25	8.00	5.25	2.00	1.50	1.50	6.75	2.25	0.75	0.25	-0.161621	0.055664	0.955078	-4.270000	-8.680000	2.240000	914.00	-0.07	-0.13
1.96	0.00	0.00	0.00	0.00	0.00	0.00	0.25	0.00	0.25	2.25	0.50	0.25	0.00	0.00	0.00	0.00	-0.549805	0.170410	0.680664	72.449997	-246.330002	50.610001	46.00	0.00	0.00	7.00	4.00	5.25	6.25	3.75	12.50	1.50	8.00	5.25	2.25	1.50	1.25	6.75	2.25	1.00	0.25	-0.166504	0.055176	0.951660	-3.710000	-8.260000	2.380000	918.00	-0.07	-0.12
1.97	0.00	0.25	0.00	0.00	0.00	0.00	0.00	0.00	0.50	2.00	0.75	0.00	0.00	0.25	0.00	0.00	-0.571777	0.059082	0.886719	92.540001	-223.649994	58.590000	47.00	0.00	0.00	6.75	3.50	5.25	6.00	3.75	12.75	1.50	8.25	5.50	2.25	1.75	1.50	7.00	2.75	1.00	0.50	-0.167480	0.057617	0.946289	-3.500000	-7.980000	2.380000	934.00	-0.06	-0.12
1.98	0.25	0.25	0.00	0.00	0.00	0.00	0.25	0.00	0.50	2.00	0.50	0.25	0.00	0.00	0.50	0.00	-0.516602	-0.047852	1.169434	99.820000	-210.070007	62.439999	59.00	0.18	0.04	6.25	3.25	5.00	6.00	3.75	12.50	1.50	8.25	5.75	2.25	1.75	1.50	7.25	2.75	1.00	0.50	-0.166504	0.056641	0.946777	-3.500000	-7.840000	2.240000	925.00	-0.05	-0.13
1.99	0.00	0.25	0.00	0.00	0.00	0.00	0.25	0.00	0.50	2.00	0.75	0.00	0.25	0.00	0.00	0.00	-0.505859	-0.116211	1.388184	95.059998	-207.339996	59.570000	52.00	0.19	0.04	6.00	3.00	5.00	5.75	4.00	12.50	1.50	8.25	6.25	2.75	1.25	1.75	7.00	3.00	1.00	0.25	-0.166504	0.056641	0.960449	-3.850000	-8.050000	1.960000	928.00	-0.05	-0.12
2.00	0.00	0.00	0.00	0.00	0.00	0.00	0.00	0.00	0.50	2.00	0.50	0.00	0.00	0.00	0.00	0.00	-0.544922	-0.119629	1.404785	85.820000	-208.669998	48.930000	39.00	0.00	0.00	5.75	2.50	4.75	5.50	4.50	12.25	1.75	8.25	6.50	2.75	2.00	2.00	7.25	3.00	1.00	0.25	-0.163574	0.058594	0.952637	-4.200000	-8.330000	1.610000	940.00	-0.03	-0.12
2.01	0.00	0.25	0.00	0.00	0.00	0.00	0.00	0.00	0.75	2.00	0.50	0.00	0.50	0.25	0.00	0.00	-0.704102	-0.082520	1.376465	80.709999	-208.110001	32.900002	53.00	0.21	0.03	5.50	2.50	5.00	5.50	5.00	12.50	1.75	8.25	7.00	2.75	2.25	2.00	7.50	3.75	1.50	0.25	-0.160156	0.058594	0.953125	-5.180000	-8.890000	1.330000	977.00	-0.03	-0.11
2.02	0.00	0.00	0.00	0.00	0.00	0.00	0.00	0.00	0.25	2.00	0.50	0.00	0.25	0.00	0.00	0.00	-0.801270	-0.028809	1.432617	78.680000	-204.539993	15.330000	38.00	0.00	0.00	5.50	2.25	5.00	5.25	5.00	12.25	2.00	8.25	7.50	3.25	2.50	2.00	7.50	4.00	1.25	0.75	-0.165039	0.058594	0.953125	-6.090000	-8.960000	1.050000	992.00	-0.02	-0.10
2.03	0.00	0.25	0.00	0.00	0.00	0.00	0.00	0.00	0.25	2.00	0.50	0.00	0.00	0.00	0.00	0.00	-0.782227	-0.019043	1.464355	74.830002	-202.509995	-0.280000	38.00	0.00	0.00	5.25	2.00	4.75	5.25	5.50	12.50	2.00	8.00	7.50	3.00	2.50	2.50	7.50	4.25	1.75	0.50	-0.166992	0.059570	0.950195	-6.720000	-8.750000	0.980000	999.00	-0.01	-0.10
2.04	0.00	0.00	0.00	0.00	0.00	0.00	0.00	0.00	0.75	2.25	0.50	0.25	0.00	0.00	0.00	0.00	-0.814453	0.047363	1.467773	70.559998	-202.300003	-10.290000	49.00	0.00	0.00	5.25	2.00	4.75	5.00	5.50	12.00	2.00	8.00	7.75	3.25	2.75	2.50	7.50	4.75	1.50	0.50	-0.162598	0.050293	0.951660	-7.280000	-8.610000	0.910000	1001.00	-0.01	-0.10
2.05	0.00	0.00	0.00	0.00	0.00	0.00	0.00	0.00	0.25	2.25	0.50	0.25	0.00	0.25	0.00	0.00	-0.851562	0.129395	1.381348	68.110001	-200.130005	-13.930000	44.00	0.00	0.00	5.25	2.00	5.00	4.75	6.00	12.00	2.50	8.00	8.00	3.50	3.00	2.75	7.75	5.00	1.50	0.50	-0.164062	0.052246	0.952148	-7.070000	-8.190000	0.910000	1035.00	-0.00	-0.09
2.06	0.00	0.00	0.00	0.00	0.00	0.00	0.00	0.00	0.50	2.00	0.50	0.00	0.00	0.00	0.00	0.00	-0.837402	0.209473	1.311035	63.840000	-181.020004	-9.520000	39.00	0.00	0.00	5.00	1.75	4.25	4.75	6.00	12.00	2.75	8.00	8.00	3.75	3.25	2.75	7.50	5.25	1.75	0.50	-0.157227	0.053223	0.956055	-6.510000	-7.700000	0.980000	1033.00	0.01	-0.09
2.07	0.00	0.25	0.00	0.00	0.00	0.00	0.00	0.00	0.50	2.00	0.50	0.00	0.00	0.00	0.00	0.00	-0.752930	0.260742	1.472656	61.459999	-172.339996	-2.590000	42.00	0.00	0.00	5.00	1.75	4.50	4.50	6.25	11.75	3.00	8.00	8.25	4.00	3.75	3.00	8.00	5.25	2.00	0.75	-0.166016	0.050293	0.957520	-6.090000	-6.930000	1.120000	1064.00	0.01	-0.09
2.08	0.00	0.50	0.00	0.00	0.00	0.00	0.00	0.25	0.50	2.00	0.75	0.00	0.00	0.00	0.00	0.00	-0.659180	0.283203	1.711914	61.740002	-173.529999	6.440000	52.00	0.15	-0.00	4.75	1.50	4.00	4.00	6.25	11.75	3.00	8.00	8.50	4.75	3.50	3.25	7.75	5.25	2.00	0.75	-0.161621	0.050781	0.955078	-5.600000	-5.110000	1.260000	1055.00	0.02	-0.09
2.09	0.00	0.25	0.00	0.00	0.00	0.00	0.00	0.00	0.50	2.00	0.50	0.00	0.00	0.25	0.00	0.00	-0.581055	0.240723	1.804688	63.070000	-185.850006	15.890000	44.00	0.00	0.00	4.25	1.50	4.00	4.00	6.50	11.50	3.50	8.00	8.75	5.00	4.50	3.25	7.75	5.75	2.25	1.00	-0.159668	0.046875	0.954102	-5.460000	-4.270000	1.400000	1087.00	0.03	-0.08
2.10	0.00	0.00	0.00	0.00	0.00	0.00	0.00	0.00	0.25	2.00	0.25	0.00	0.00	0.00	0.00	0.00	-0.556641	0.176270	1.677734	62.160000	-201.460007	23.660000	32.00	0.00	0.00	4.00	1.25	3.75	3.25	6.50	11.25	3.50	8.00	9.00	5.25	5.00	3.75	8.00	5.75	2.25	0.75	-0.167480	0.052246	0.955566	-4.690000	-3.570000	1.540000	1086.00	0.04	-0.08
2.11	0.00	0.00	0.00	0.00	0.00	0.00	0.00	0.00	0.50	1.75	0.50	0.00	0.00	0.00	0.00	0.00	-0.549316	0.131348	1.507812	60.549999	-211.960007	28.420000	36.00	0.00	0.00	3.50	1.50	3.50	3.00	6.50	11.00	3.75	7.75	9.00	5.75	5.25	3.75	8.25	6.00	2.25	1.00	-0.161621	0.044434	0.963867	-3.360000	-2.590000	1.820000	1088.00	0.05	-0.08
2.12	0.00	0.25	0.00	0.00	0.00	0.00	0.00	0.00	0.50	1.75	0.50	0.00	0.00	0.00	0.00	0.00	-0.538086	0.105957	1.404785	61.740002	-215.250000	29.750000	39.00	0.00	0.00	2.00	1.00	3.25	2.75	6.25	11.00	4.00	8.00	9.25	6.25	5.75	4.00	8.25	6.25	2.50	1.00	-0.161133	0.044922	0.961426	-2.100000	-1.470000	2.170000	1089.00	0.07	-0.08
2.13	0.00	0.00	0.00	0.00	0.00	0.00	0.00	0.00	0.25	1.75	0.25	0.00	0.00	0.00	0.00	0.00	-0.527832	0.111328	1.347168	67.830002	-213.430008	28.070000	29.00	0.00	0.00	2.00	1.00	2.50	2.50	6.25	10.75	4.25	8.00	9.50	6.50	5.75	4.75	8.50	6.75	2.50	1.25	-0.163086	0.048340	0.953125	-0.910000	-0.490000	2.380000	1102.00	0.08	-0.08
2.14	0.00	0.00	0.00	0.00	0.00	0.00	0.00	0.00	0.25	1.75	0.00	0.00	0.00	0.25	0.00	0.00	-0.544434	0.129395	1.324707	78.400002	-208.389999	24.850000	28.00	0.00	0.00	1.50	1.00	2.50	2.50	6.00	10.25	4.25	8.00	9.50	6.50	6.50	5.00	8.50	6.75	2.75	1.25	-0.171875	0.046875	0.959961	-0.070000	0.700000	2.590000	1102.00	0.08	-0.08
2.15	0.00	0.00	0.00	0.00	0.00	0.00	0.00	0.00	0.25	2.00	0.25	0.00	0.00	0.00	0.00	0.00	-0.559082	0.136719	1.343262	90.790001	-201.110001	21.980000	32.00	0.00	0.00	1.50	0.75	2.00	2.00	5.75	10.25	4.50	7.75	9.75	7.00	6.75	5.25	8.75	7.25	3.00	1.25	-0.172852	0.049316	0.957520	0.840000	1.680000	2.800000	1110.00	0.10	-0.08
2.16	0.00	0.00	0.00	0.00	0.00	0.00	0.00	0.00	0.25	1.50	0.25	0.00	0.00	0.00	0.00	0.00	-0.571777	0.150879	1.399414	101.500000	-192.850006	20.440001	26.00	0.00	0.00	0.50	0.75	1.50	1.50	5.75	9.75	4.50	7.75	9.75	7.25	7.00	5.50	8.75	7.50	3.00	1.50	-0.156250	0.041016	0.949219	1.680000	2.800000	2.940000	1091.00	0.11	-0.08
2.17	0.00	0.00	0.00	0.00	0.00	0.00	0.00	0.00	0.00	1.50	0.25	0.00	0.00	0.00	0.00	0.00	-0.583984	0.158203	1.434082	108.779999	-185.220001	21.350000	22.00	0.00	0.00	1.25	0.50	1.25	1.50	5.25	9.50	4.50	7.75	10.00	7.50	7.25	5.75	9.00	7.50	3.25	1.50	-0.172363	0.049805	0.952637	2.730000	3.920000	2.870000	1103.00	0.11	-0.08
2.18	0.00	0.00	0.00	0.00	0.00	0.00	0.00	0.00	0.00	1.25	0.25	0.00	0.00	0.00	0.00	0.00	-0.604980	0.187500	1.418457	113.540001	-177.729996	24.010000	19.00	0.00	0.00	0.50	0.75	1.25	1.00	5.00	9.25	4.50	7.75	10.00	7.50	7.50	6.00	9.25	7.75	3.50	1.75	-0.185059	0.062988	0.952148	3.640000	4.970000	3.080000	1100.00	0.12	-0.08
2.19	0.00	0.00	0.00	0.00	0.00	0.00	0.00	0.00	0.25	1.25	0.25	0.00	0.00	0.00	0.00	0.00	-0.640137	0.208008	1.379883	117.739998	-168.839996	27.860001	23.00	0.00	0.00	0.00	0.25	1.00	1.00	4.50	9.00	4.50	7.75	10.00	7.75	7.75	6.25	9.25	7.75	3.75	1.50	-0.165527	0.041504	0.961914	4.900000	6.020000	3.150000	1086.00	0.13	-0.08
2.20	0.00	0.00	0.00	0.00	0.00	0.00	0.00	0.00	0.25	1.50	0.25	0.00	0.00	0.00	0.00	0.00	-0.727051	0.171387	1.411621	121.239998	-147.699997	37.310001	26.00	0.00	0.00	0.00	0.25	1.00	0.75	4.25	8.50	4.25	7.75	10.25	7.75	7.75	6.50	9.50	7.75	3.75	1.75	-0.169434	0.059570	0.966309	8.330000	9.520000	3.360000	1080.00	0.14	-0.08
2.21	0.00	0.25	0.00	0.00	0.00	0.00	0.00	0.00	0.25	1.50	0.00	0.00	0.00	0.00	0.00	0.00	-0.800293	0.139648	1.520508	118.650002	-142.380005	41.720001	25.00	0.00	0.00	0.00	0.00	0.50	0.50	3.75	8.75	4.25	7.75	10.50	7.75	8.00	6.75	9.75	8.00	3.75	1.75	-0.176270	0.057617	0.963379	9.660000	13.720000	3.570000	1079.00	0.14	-0.08
2.22	0.00	0.00	0.00	0.00	0.00	0.00	0.00	0.00	0.00	1.25	0.00	0.00	0.00	0.00	0.00	0.00	-0.893555	0.053223	1.557617	116.550003	-145.250000	44.799999	16.00	0.00	0.00	0.00	0.00	0.50	0.50	3.50	8.50	4.25	7.75	10.50	8.00	8.25	7.00	9.75	8.00	3.75	2.00	-0.181641	0.062500	0.966309	11.970000	21.070000	3.640000	1083.00	0.15	-0.08
2.23	0.00	0.00	0.00	0.00	0.00	0.00	0.00	0.00	0.00	1.50	0.25	0.00	0.00	0.25	0.00	0.00	-1.054688	-0.104492	1.502930	121.449997	-152.389999	46.410000	24.00	0.00	0.00	0.00	0.25	0.25	0.50	3.00	8.25	4.00	7.75	10.75	8.25	8.50	7.25	10.00	8.00	4.00	2.00	-0.195801	0.064453	0.957031	12.250000	24.710001	3.710000	1088.00	0.15	-0.09
2.24	0.00	0.25	0.00	0.00	0.00	0.00	0.00	0.00	0.00	1.50	0.25	0.00	0.00	0.00	0.00	0.00	-1.229492	-0.302734	1.333008	127.889999	-158.130005	47.389999	25.00	0.00	0.00	0.00	0.00	0.25	0.25	2.75	8.00	4.00	7.50	10.75	8.25	8.50	7.50	10.25	8.25	4.25	2.25	-0.188477	0.062500	0.956055	13.020000	28.350000	3.360000	1083.00	0.16	-0.09
2.25	0.00	0.00	0.00	0.00	0.00	0.00	0.00	0.25	0.25	1.75	0.00	0.00	0.00	0.00	0.00	0.00	-1.472656	-0.515625	1.022949	120.959999	-158.130005	49.279999	30.00	0.00	0.00	0.00	0.00	0.00	0.25	2.75	7.50	4.00	7.25	11.00	8.50	8.75	7.50	10.25	8.50	4.50	2.25	-0.206055	0.065430	0.963867	14.280000	32.200001	3.080000	1085.00	0.17	-0.08
2.26	0.00	0.25	0.00	0.00	0.00	0.00	0.00	0.00	0.25	1.75	0.00	0.00	0.25	0.00	0.00	0.00	-1.795410	-0.720215	0.683594	100.519997	-146.860001	54.180000	31.00	0.00	0.00	0.00	0.00	0.00	0.00	2.50	7.25	3.75	7.25	11.00	8.50	9.00	7.75	10.00	8.50	4.25	2.25	-0.209473	0.065430	0.962891	14.420000	35.840000	3.150000	1071.00	0.17	-0.08
2.27	0.00	0.00	0.00	0.00	0.00	0.00	0.00	0.00	0.00	1.25	0.00	0.00	0.00	0.00	0.00	0.00	-2.104980	-0.875977	0.390137	71.470001	-122.919998	60.340000	16.00	0.00	0.00	0.00	0.00	0.00	0.00	2.00	7.00	3.75	7.25	11.25	8.50	9.00	7.75	10.25	8.50	4.50	2.50	-0.213379	0.063965	0.958496	13.370000	38.849998	3.430000	1073.00	0.17	-0.08
2.28	0.00	0.00	0.00	0.00	0.00	0.75	0.00	0.00	0.25	1.50	0.25	0.00	0.00	0.00	0.00	0.00	-2.331543	-0.912598	0.199707	30.450001	-90.650002	60.200001	35.00	0.00	0.00	0.00	0.00	0.00	0.00	2.00	6.50	3.75	7.00	11.50	8.75	9.25	8.00	10.50	8.75	4.50	2.50	-0.230957	0.075195	0.958008	12.180000	42.209999	3.430000	1080.00	0.18	-0.08
2.29	0.00	0.00	0.00	0.00	0.00	0.00	0.00	0.00	0.00	1.25	0.00	0.00	0.00	0.00	0.00	0.00	-2.414551	-0.785645	0.123047	-16.100000	-55.369999	47.740002	16.00	0.00	0.00	0.00	0.00	0.00	0.00	1.75	6.25	4.00	7.00	11.75	9.00	9.25	8.00	10.50	8.75	4.50	2.50	-0.244629	0.079590	0.946289	11.340000	44.520000	3.500000	1085.00	0.18	-0.08
2.30	0.00	0.00	0.00	0.00	0.00	0.00	0.00	0.00	0.00	1.25	0.00	0.00	0.00	0.00	0.00	0.00	-2.346680	-0.519531	0.194336	-49.700001	-22.260000	23.309999	16.00	0.00	0.00	0.00	0.00	0.00	0.00	1.50	6.00	4.00	6.75	12.00	9.00	9.75	8.00	10.25	9.00	4.75	2.50	-0.243164	0.079102	0.940430	10.150000	46.619999	3.500000	1087.00	0.18	-0.07
2.31	0.00	0.25	0.00	0.00	0.00	0.00	0.00	0.00	0.50	1.50	0.00	0.00	0.00	0.00	0.00	0.00	-2.132324	-0.277344	0.301270	-60.619999	6.230000	-5.530000	29.00	0.00	0.00	0.00	0.00	0.00	0.00	1.50	5.75	4.00	6.50	12.00	9.25	9.75	8.25	10.50	9.25	4.75	2.75	-0.248047	0.080566	0.952148	10.290000	48.439999	3.570000	1092.00	0.19	-0.07
2.32	0.00	0.25	0.00	0.00	0.00	0.00	0.00	0.00	0.25	1.50	0.00	0.00	0.00	0.00	0.00	0.00	-1.881836	-0.182617	0.407227	-58.660000	29.750000	-28.980000	25.00	0.00	0.00	0.00	0.00	0.00	0.00	1.25	5.50	4.00	6.50	12.25	9.50	10.00	8.25	10.50	9.25	5.00	2.75	-0.260742	0.080078	0.943359	10.710000	50.470001	3.290000	1099.00	0.19	-0.07
2.33	0.00	0.25	0.00	0.00	0.00	0.00	0.00	0.00	0.25	1.25	0.25	0.00	0.00	0.00	0.00	0.00	-1.625000	-0.139648	0.498047	-59.150002	48.720001	-38.990002	25.00	0.00	0.00	0.00	0.00	0.00	0.00	1.00	5.25	4.00	6.25	12.75	9.75	10.25	8.50	10.50	9.75	5.00	2.75	-0.263672	0.081055	0.949219	10.920000	52.709999	2.870000	1110.00	0.19	-0.06
2.34	0.00	0.00	0.00	0.00	0.00	0.00	0.00	0.00	0.50	1.50	0.00	0.00	0.00	0.00	0.00	0.00	-1.424316	-0.100586	0.586914	-66.500000	64.470001	-33.180000	26.00	0.00	0.00	0.00	0.00	0.00	0.00	1.00	4.75	4.00	6.25	12.75	9.75	10.50	8.50	10.50	9.75	5.00	3.00	-0.276367	0.095215	0.945801	11.130000	55.439999	2.100000	1108.00	0.20	-0.06
2.35	0.00	0.25	0.00	0.00	0.00	0.00	0.00	0.00	0.25	1.75	0.00	0.00	0.00	0.00	0.25	0.00	-1.066895	-0.071289	0.834961	-84.629997	84.000000	14.700000	32.00	0.00	0.00	0.00	0.00	0.00	0.00	1.00	4.50	4.00	6.00	13.25	10.00	10.50	8.75	10.50	10.25	5.25	3.25	-0.292969	0.083984	0.949707	11.200000	59.290001	1.400000	1124.00	0.20	-0.06
2.36	0.00	0.00	0.00	0.00	0.00	0.00	0.00	0.00	0.25	1.50	0.00	0.00	0.00	0.00	0.00	0.00	-0.951660	-0.103516	0.878418	-94.150002	86.169998	43.959999	23.00	0.00	0.00	0.00	0.00	0.00	0.00	0.75	3.75	4.25	6.00	13.50	10.00	10.75	8.75	10.50	10.75	5.25	3.50	-0.316406	0.088867	0.942383	10.710000	68.599998	0.700000	1130.00	0.21	-0.06
2.37	0.00	0.25	0.00	0.00	0.00	0.00	0.00	0.00	0.25	1.50	0.00	0.00	0.00	0.00	0.00	0.00	-0.890137	-0.099609	0.849609	-102.550003	86.590004	68.180000	25.00	0.00	0.00	0.00	0.00	0.00	0.00	0.75	3.50	4.00	5.75	13.75	10.25	11.00	8.75	10.25	11.00	5.50	3.50	-0.316406	0.088867	0.942383	10.710000	68.599998	0.700000	1131.00	0.21	-0.05
2.38	0.75	1.50	0.00	0.25	0.00	0.00	0.25	0.00	0.25	1.50	0.00	0.00	0.00	0.00	0.00	0.00	2.705078	-0.304199	3.276367	29.120001	114.029999	53.760002	56.00	-0.10	0.02	0.00	0.00	0.00	0.00	0.50	3.25	4.00	5.75	13.75	10.00	11.25	8.75	10.25	11.25	5.75	4.00	-0.352051	0.116211	0.944824	10.360000	77.070000	0.630000	1133.00	0.21	-0.05
2.39	2.00	2.25	1.00	1.25	0.00	0.00	0.00	0.00	0.00	1.50	0.00	0.00	0.00	0.00	0.00	0.00	1.420898	-0.532715	0.343750	12.810000	7.280000	31.150000	98.00	-0.25	-0.03	0.00	0.00	0.00	0.00	0.50	2.50	4.00	5.50	13.75	10.25	11.25	9.00	10.25	11.50	6.00	4.00	-0.354492	0.081543	0.969238	10.430000	81.059998	0.700000	1131.00	0.22	-0.05
2.40	4.00	4.00	2.00	2.50	0.00	0.00	0.00	0.00	0.00	1.25	0.00	0.00	0.00	0.00	0.00	0.00	0.295898	-0.403320	-2.767578	-115.010002	77.489998	-44.029999	169.00	-0.30	-0.04	0.00	0.00	0.00	0.00	0.50	2.25	4.00	5.25	14.00	10.50	11.25	8.75	10.25	12.00	6.25	4.50	-0.387695	0.108398	0.975586	10.080000	86.660004	1.610000	1138.00	0.22	-0.04
2.41	5.25	5.25	2.00	2.75	0.00	0.00	0.00	0.00	0.00	1.00	0.00	0.00	0.00	0.00	0.00	0.00	1.040527	0.123047	0.655762	-234.290009	219.029999	-103.739998	198.00	-0.33	-0.04	0.00	0.00	0.00	0.00	0.50	1.50	4.00	5.25	14.25	10.25	11.25	8.75	9.75	12.25	6.00	4.75	-0.377441	0.097168	0.978516	8.890000	94.010002	2.170000	1125.00	0.23	-0.04
2.42	7.50	7.00	2.50	3.25	0.00	0.00	0.00	0.00	0.00	1.00	0.00	0.00	0.00	0.00	0.00	0.00	-0.353516	0.369141	1.615234	-207.550003	228.059998	-90.510002	259.00	-0.34	-0.03	0.00	0.00	0.00	0.00	0.25	1.25	4.00	5.00	14.25	10.50	11.25	8.75	9.75	12.75	6.50	5.25	-0.400879	0.114258	0.970215	7.980000	101.150002	1.820000	1132.00	0.23	-0.04
2.43	10.00	9.00	3.50	4.50	0.00	0.00	0.00	0.00	0.00	1.00	0.00	0.00	0.00	0.00	0.00	0.00	-0.964844	-0.112305	1.656738	-140.979996	221.339996	-56.139999	341.00	-0.34	-0.03	0.00	0.00	0.00	0.00	0.25	0.75	4.00	4.75	14.25	10.25	11.25	8.50	9.50	13.00	6.50	5.25	-0.414062	0.114258	0.970215	6.790000	108.080002	0.700000	1114.00	0.23	-0.03
2.44	11.50	10.00	4.25	5.00	0.00	0.25	0.00	0.00	0.00	0.75	0.00	0.00	0.00	0.00	0.00	0.00	-0.541016	0.061035	2.047363	-88.480003	217.350006	-29.260000	388.00	-0.35	-0.03	0.00	0.00	0.00	0.00	0.00	0.25	4.00	4.50	14.25	10.75	11.25	8.50	9.25	13.25	6.50	5.25	-0.439453	0.129395	0.964844	5.460000	115.290001	-0.560000	1106.00	0.24	-0.03
2.45	13.25	11.25	4.75	5.50	0.00	1.50	0.00	0.00	0.00	0.50	0.00	0.00	0.00	0.00	0.00	0.00	-0.195801	-0.108887	1.495605	-29.469999	193.690002	-7.910000	450.00	-0.35	-0.04	0.00	0.00	0.00	0.00	0.00	0.25	4.00	3.75	14.25	10.25	11.00	8.25	9.00	13.50	6.75	5.50	-0.446289	0.099609	0.979004	4.410000	122.779999	-1.960000	1085.00	0.24	-0.02
2.46	14.00	12.00	5.00	6.25	0.00	1.00	0.00	0.50	0.00	0.50	0.00	0.00	0.25	0.00	0.00	0.00	-0.042969	-0.298340	0.986328	8.680000	196.770004	-4.200000	485.00	-0.34	-0.05	0.00	0.00	0.00	0.00	0.00	0.00	4.00	3.50	14.00	10.25	10.75	8.25	8.75	13.75	7.00	5.75	-0.485840	0.129395	1.004395	3.850000	131.880005	-2.590000	1074.00	0.25	-0.02
2.47	13.50	12.50	5.25	7.00	0.25	3.00	0.00	0.50	0.00	0.25	0.00	0.00	0.50	0.00	0.00	0.00	-0.163086	-0.173828	1.135742	37.730000	209.089996	-10.500000	527.00	-0.33	-0.07	0.00	0.00	0.00	0.00	0.00	0.00	4.00	3.00	13.75	9.75	10.75	8.00	8.50	14.00	6.75	5.50	-0.499512	0.094727	1.014648	2.660000	142.380005	-3.220000	1047.00	0.25	-0.02
2.48	13.25	12.75	5.25	7.75	0.00	3.50	0.00	0.50	0.00	0.00	0.00	0.00	0.25	0.00	0.00	0.00	-0.439453	0.044922	1.659668	64.680000	208.949997	-14.840000	534.00	-0.34	-0.07	0.00	0.00	0.00	0.00	0.00	0.00	4.00	2.75	13.50	9.75	10.50	8.00	8.25	14.25	6.75	6.00	-0.539062	0.135254	1.021484	0.840000	154.979996	-4.200000	1039.00	0.25	-0.01
2.49	13.50	13.25	5.50	8.50	0.00	5.25	0.00	1.25	0.00	0.25	0.00	0.00	0.75	0.00	0.00	0.00	-0.654785	0.544922	2.024902	71.260002	186.619995	-15.330000	600.00	-0.31	-0.09	0.00	0.00	0.00	0.00	0.00	0.00	4.25	2.50	13.50	9.75	10.25	7.50	8.00	14.25	7.00	6.00	-0.562012	0.149414	1.058105	-1.260000	168.839996	-5.740000	1030.00	0.25	-0.01
2.50	13.75	13.75	5.75	9.25	0.25	6.25	0.00	2.50	0.00	0.25	0.00	0.00	1.25	0.00	0.00	0.00	-0.649414	0.650879	1.902344	57.189999	149.520004	-5.670000	666.00	-0.30	-0.11	0.00	0.00	0.00	0.00	0.00	0.00	4.25	2.00	13.00	9.50	9.75	7.25	7.75	14.25	6.75	6.00	-0.596680	0.179688	1.084961	-3.220000	183.539993	-8.260000	995.00	0.26	-0.00
2.51	13.75	14.00	6.00	9.75	0.25	8.25	0.00	3.75	0.00	0.25	0.00	0.00	2.50	0.00	0.00	0.00	-0.646484	0.435547	1.592285	-3.570000	55.930000	5.390000	741.00	-0.27	-0.13	0.00	0.00	0.00	0.00	0.00	0.00	4.25	2.00	12.75	9.25	9.50	6.75	7.50	14.25	6.75	6.25	-0.644531	0.206055	1.115234	-5.810000	198.449997	-12.810000	977.00	0.26	-0.00
2.52	13.50	14.25	6.25	10.00	0.25	9.25	0.00	5.00	0.00	0.25	0.00	0.00	2.75	0.25	0.00	0.00	-0.171387	0.191406	0.981445	-17.010000	33.740002	7.560000	788.00	-0.26	-0.14	0.00	0.00	0.00	0.00	0.00	0.00	4.50	1.50	12.50	9.00	9.00	6.50	7.50	14.00	6.25	6.25	-0.814941	0.224609	1.345703	-14.000000	230.860001	-24.360001	947.00	0.26	0.00
2.53	14.75	14.50	7.00	10.50	0.25	10.00	0.00	5.75	0.00	0.50	0.00	0.00	3.50	0.25	0.00	0.00	-0.125000	0.107422	0.977051	-16.100000	29.400000	8.120000	857.00	-0.25	-0.14	0.00	0.00	0.00	0.00	0.00	0.00	4.25	1.25	12.00	8.75	8.50	6.25	7.00	14.00	6.50	6.00	-0.830566	0.219238	1.405762	-12.950000	246.680008	-29.120001	914.00	0.26	0.01
2.54	14.50	15.25	7.00	11.00	0.25	10.50	0.00	6.25	0.00	0.50	0.00	0.00	3.50	0.00	0.00	0.25	-0.255371	0.260254	1.064941	-18.620001	27.299999	6.020000	883.00	-0.25	-0.15	0.00	0.00	0.00	0.00	0.00	0.00	4.25	1.00	11.50	8.25	8.25	6.00	6.75	13.25	6.25	6.00	-0.915527	0.240234	1.472656	-14.560000	264.040009	-33.880001	876.00	0.26	0.01
2.55	15.00	15.50	7.50	11.25	0.50	11.25	0.00	6.75	0.00	0.50	0.00	0.25	3.50	0.00	0.00	0.00	-0.219727	0.174316	1.020508	-20.090000	22.469999	5.390000	926.00	-0.25	-0.15	0.00	0.00	0.00	0.00	0.00	0.00	4.00	1.00	10.75	8.00	7.75	5.50	6.25	12.50	5.75	5.50	-1.010254	0.211426	1.590820	-10.990000	276.149994	-36.680000	822.00	0.26	0.01
2.56	15.75	16.50	8.25	11.75	0.50	11.50	0.00	7.50	0.00	0.50	0.00	0.00	4.25	0.25	0.00	0.25	-0.177734	0.154297	0.994141	-21.700001	18.760000	2.940000	988.00	-0.25	-0.15	0.00	0.00	0.00	0.00	0.00	0.00	3.50	0.75	10.00	7.50	7.25	5.25	5.75	11.25	5.75	5.25	-1.066895	0.206055	1.666992	-10.290000	282.170013	-39.619999	762.00	0.26	0.01
2.57	16.00	16.25	8.50	12.00	0.50	11.75	0.00	7.50	0.00	0.50	0.00	0.00	4.00	0.00	0.00	0.00	-0.196289	0.178711	0.988770	-22.260000	16.660000	1.330000	992.00	-0.25	-0.15	0.00	0.00	0.00	0.00	0.00	0.00	3.00	0.25	9.50	7.00	6.25	4.50	5.50	10.00	5.25	4.25	-1.172852	0.107422	1.906738	-6.370000	280.910004	-42.349998	680.00	0.27	0.01
2.58	17.00	16.75	8.75	12.00	0.50	12.25	0.00	7.50	0.00	0.75	0.00	0.00	4.25	0.00	0.00	0.00	-0.187012	0.161133	0.988770	-21.700001	15.260000	1.050000	1025.00	-0.25	-0.15	0.00	0.00	0.00	0.00	0.00	0.00	2.50	0.00	8.75	6.25	5.50	3.50	5.00	9.00	4.75	3.00	-1.096680	0.137695	1.895996	-10.290000	271.179993	-42.700001	594.00	0.27	0.02
2.59	17.00	17.00	8.75	12.25	0.50	12.25	0.00	7.75	0.00	0.75	0.00	0.00	4.50	0.50	0.00	0.00	-0.166016	0.155273	0.967285	-20.930000	14.350000	0.840000	1044.00	-0.24	-0.15	0.00	0.00	0.00	0.00	0.00	0.00	1.50	0.00	8.00	5.25	4.75	2.50	4.00	7.75	3.50	1.75	-0.782715	0.297363	1.617188	-2.800000	262.220001	-43.119999	483.00	0.27	0.03
2.60	17.25	16.75	9.00	12.25	0.75	12.50	0.00	7.75	0.00	0.50	0.00	0.00	4.00	0.00	0.00	0.00	-0.174805	0.142578	0.957520	-20.510000	14.350000	0.490000	1040.00	-0.25	-0.14	0.00	0.00	0.00	0.00	0.00	0.00	1.00	0.00	7.25	4.25	3.00	2.00	2.75	5.75	2.25	1.00	-0.514648	0.437988	1.513184	9.450000	260.610016	-45.570000	368.00	0.27	0.05
2.61	17.00	17.50	9.25	12.50	0.75	12.50	0.00	7.75	0.00	0.75	0.00	0.00	4.25	0.00	0.00	0.00	-0.169434	0.134766	0.968262	-19.740000	14.210000	0.280000	1058.00	-0.25	-0.15	0.00	0.00	0.00	0.00	0.00	0.00	0.50	0.00	5.75	3.75	2.00	1.50	1.75	3.50	1.25	0.25	-0.370117	0.488281	1.296875	28.490000	265.089996	-51.939999	260.00	0.27	0.07
2.62	17.50	17.25	9.25	12.50	0.75	12.50	0.00	7.75	0.00	0.75	0.00	0.00	3.75	0.00	0.00	0.25	-0.185547	0.125000	0.988770	-17.080000	12.250000	0.070000	1058.00	-0.25	-0.14	0.00	0.00	0.00	0.00	0.00	0.00	0.25	0.00	3.75	2.50	1.25	1.00	1.00	2.25	0.50	0.00	-0.062012	0.532715	1.208008	63.139999	272.369995	-58.869999	162.00	0.26	0.08
2.63	18.00	17.50	9.25	12.75	0.75	12.50	0.00	8.00	0.00	0.75	0.00	0.00	4.50	0.00	0.00	0.00	-0.180664	0.128418	0.972656	-13.580000	9.870000	0.280000	1081.00	-0.25	-0.14	0.00	0.00	0.00	0.00	0.00	0.00	0.25	0.00	2.00	1.75	0.75	0.50	0.25	0.75	0.75	0.00	0.247559	0.329590	0.780762	104.440002	282.100006	-71.680000	93.00	0.26	0.08
2.64	18.00	17.50	9.25	12.50	0.75	13.00	0.00	8.00	0.00	1.00	0.00	0.00	4.50	0.00	0.00	0.00	-0.179199	0.134277	0.966797	-10.920000	8.470000	0.630000	1087.00	-0.25	-0.14	0.00	0.00	0.00	0.00	0.00	0.00	0.00	0.00	1.50	1.50	0.75	0.25	0.00	0.00	0.50	0.00	0.374023	0.213379	3.533203	151.130005	148.610001	-137.270004	61.00	0.26	0.08
2.65	18.25	17.50	9.25	12.50	0.75	12.75	0.00	7.75	0.00	1.00	0.00	0.00	3.75	0.25	0.00	0.25	-0.181641	0.141113	0.974609	-9.100000	7.280000	0.630000	1079.00	-0.25	-0.14	0.00	0.00	0.00	0.00	0.00	0.00	0.00	0.00	0.00	1.25	0.75	0.50	0.00	0.00	0.25	0.00	0.374023	0.213379	3.533203	151.130005	148.610001	-137.270004	34.00	0.00	0.00
2.66	18.25	17.50	9.50	12.50	0.75	13.00	0.00	8.00	0.00	1.00	0.00	0.00	4.00	0.00	0.00	0.00	-0.180176	0.158203	0.943848	-8.890000	5.530000	-0.140000	1088.00	-0.25	-0.14	0.00	0.00	0.00	0.00	0.00	0.00	0.00	0.00	0.75	1.25	0.50	0.50	0.00	0.00	0.50	0.00	0.571777	-0.030273	2.828125	107.029999	0.560000	-133.559998	46.00	0.00	0.00
2.67	18.00	17.75	9.50	12.75	0.75	12.75	0.00	8.00	0.00	1.00	0.00	0.00	3.75	0.00	0.00	0.25	-0.187012	0.152832	0.953125	-10.640000	5.040000	-1.050000	1087.00	-0.25	-0.14	0.00	0.00	0.00	0.00	0.00	0.00	0.00	0.00	0.50	1.00	0.25	0.50	0.00	0.00	0.00	0.00	0.328125	0.084473	1.176758	-54.529999	-161.699997	-101.639999	30.00	0.00	0.00
2.68	18.25	17.75	9.50	12.75	0.75	13.00	0.00	7.75	0.00	0.75	0.00	0.00	3.75	0.00	0.00	0.00	-0.180664	0.160156	0.934082	-13.160000	5.040000	-2.170000	1084.00	-0.25	-0.14	0.00	0.00	0.00	0.00	0.00	0.00	0.00	0.00	0.50	1.00	0.25	0.25	0.00	0.00	0.00	0.00	0.211914	0.245605	0.718750	-89.599998	-173.250000	-88.970001	27.00	0.00	0.00
2.69	18.25	17.50	9.50	12.75	1.00	13.00	0.00	7.50	0.00	1.00	0.00	0.00	3.25	0.00	0.00	0.00	-0.163086	0.160645	0.899414	-17.780001	6.930000	-3.430000	1078.00	-0.25	-0.14	0.00	0.00	0.00	0.00	0.00	0.00	0.00	0.00	0.50	0.75	0.25	0.00	0.00	0.00	0.00	0.00	0.156250	0.391602	0.572754	-91.840004	-167.160004	-76.230003	20.00	0.00	0.00
2.70	19.00	17.50	9.50	12.75	1.00	12.50	0.00	7.50	0.00	1.00	0.00	0.00	2.75	0.00	0.00	0.00	-0.151367	0.158203	0.882812	-25.129999	10.080000	-5.250000	1076.00	-0.26	-0.13	0.00	0.00	0.00	0.00	0.00	0.00	0.00	0.00	0.00	0.75	0.50	0.25	0.00	0.00	0.25	0.00	0.131836	0.463867	0.589355	-75.529999	-160.229996	-61.810001	22.00	0.00	0.00
2.71	19.75	18.00	10.00	12.50	1.00	12.75	0.25	7.50	0.00	1.00	0.00	0.00	2.75	0.00	0.00	0.00	-0.142090	0.164551	0.857910	-37.029999	15.120000	-8.050000	1102.00	-0.26	-0.13	0.00	0.00	0.00	0.00	0.00	0.00	0.00	0.00	0.25	0.75	0.25	0.00	0.00	0.00	0.25	0.00	0.112305	0.471191	0.661621	-56.910000	-158.899994	-45.080002	19.00	0.00	0.00
2.72	19.75	17.75	10.25	12.50	1.00	12.50	0.25	7.00	0.25	0.75	0.00	0.00	2.25	0.50	0.00	0.00	-0.149902	0.163574	0.841309	-50.400002	21.559999	-10.990000	1091.00	-0.26	-0.12	0.00	0.00	0.00	0.00	0.00	0.00	0.00	0.00	0.00	0.50	0.50	0.00	0.00	0.00	0.00	0.00	0.102051	0.451172	0.750000	-48.090000	-162.960007	-25.690001	12.00	0.00	0.00
2.73	19.50	17.50	10.50	12.25	1.25	12.00	0.25	6.75	0.00	1.00	0.00	0.00	1.75	0.50	0.00	0.00	-0.161133	0.166992	0.871582	-63.560001	28.630001	-12.950000	1071.00	-0.26	-0.12	0.00	0.00	0.00	0.00	0.00	0.00	0.00	0.00	0.00	0.50	0.25	0.00	0.00	0.00	0.00	0.00	0.113281	0.432617	0.810547	-52.709999	-171.289993	-4.060000	9.00	0.00	0.00
2.74	20.75	17.50	10.75	12.25	1.25	12.00	0.25	6.50	0.25	1.00	0.00	0.00	2.00	0.75	0.00	0.00	-0.200684	0.122559	0.946777	-72.029999	33.110001	-13.510000	1094.00	-0.26	-0.11	0.00	0.00	0.00	0.00	0.00	0.00	0.00	0.00	0.00	0.50	0.25	0.00	0.00	0.00	0.25	0.00	0.113770	0.440430	0.828613	-65.169998	-181.160004	18.410000	12.00	0.00	0.00
2.75	20.50	17.50	10.75	12.00	1.50	11.75	0.25	6.00	0.25	1.25	0.00	0.00	1.25	1.50	0.00	0.00	-0.209961	0.066895	0.979004	-75.040001	32.340000	-13.370000	1082.00	-0.26	-0.10	0.00	0.00	0.00	0.00	0.00	0.00	0.00	0.00	0.00	0.25	0.00	0.00	0.00	0.00	0.00	0.00	0.106445	0.474121	0.837402	-74.690002	-191.240005	39.689999	3.00	0.00	0.00
2.76	20.75	17.25	11.00	12.00	1.75	11.50	0.50	6.00	0.50	1.25	0.00	0.00	1.75	2.00	0.00	0.00	-0.242188	0.001465	1.083008	-54.250000	21.210001	-9.450000	1104.00	-0.25	-0.10	0.00	0.00	0.00	0.00	0.00	0.00	0.00	0.00	0.00	0.25	0.00	0.00	0.00	0.00	0.00	0.00	0.080078	0.502930	0.847656	-71.889999	-201.320007	57.400002	3.00	0.00	0.00
2.77	21.25	17.00	11.25	12.25	1.75	11.25	0.50	6.00	1.00	1.25	0.25	0.00	2.00	2.50	0.00	0.00	-0.176270	0.062012	0.932617	-47.110001	14.770000	-8.960000	1130.00	-0.24	-0.09	0.00	0.00	0.00	0.00	0.00	0.00	0.00	0.00	0.00	0.25	0.00	0.00	0.00	0.00	0.00	0.00	0.011719	0.478027	0.860840	-56.420002	-211.050003	70.209999	3.00	0.00	0.00
2.78	20.75	16.75	11.50	11.75	2.25	11.25	0.50	5.75	1.00	1.50	0.25	0.00	2.50	3.75	0.00	0.00	-0.195312	0.081543	0.945312	-44.939999	6.580000	-7.140000	1140.00	-0.23	-0.09	0.00	0.00	0.00	0.00	0.00	0.00	0.00	0.00	0.00	0.00	0.25	0.00	0.00	0.00	0.00	0.00	-0.067383	0.443848	0.879395	-35.000000	-220.080002	77.980003	3.00	0.00	0.00
2.79	20.50	16.25	11.50	11.75	2.50	11.25	0.75	6.00	1.25	1.75	0.25	0.00	3.00	4.75	0.50	0.00	-0.215820	0.030273	1.029785	-40.950001	-2.240000	-4.410000	1173.00	-0.21	-0.09	0.00	0.00	0.00	0.00	0.00	0.00	0.00	0.00	0.00	0.00	0.00	0.00	0.00	0.00	0.00	0.00	-0.154297	0.387695	0.897949	-13.370000	-228.199997	82.180000	0.00	0.00	0.00
2.80	19.75	16.00	11.50	11.75	3.00	11.25	0.75	6.50	2.00	1.75	0.50	0.25	3.50	5.00	0.00	0.00	-0.231934	0.022461	0.992676	-26.740000	-9.030000	-1.960000	1196.00	-0.20	-0.09	0.00	0.00	0.00	0.00	0.00	0.00	0.00	0.00	0.00	0.00	0.00	0.00	0.00	0.00	0.00	0.00	-0.237793	0.319824	0.922852	3.430000	-234.360001	84.139999	0.00	0.00	0.00
2.81	19.50	15.25	11.50	11.25	3.00	11.50	1.00	6.50	2.25	2.25	0.50	0.25	3.50	5.50	0.00	0.25	-0.222168	0.047363	0.965820	-7.350000	-9.240000	0.700000	1202.00	-0.19	-0.08	0.00	0.00	0.00	0.00	0.00	0.00	0.00	0.00	0.00	0.00	0.00	0.00	0.00	0.00	0.00	0.00	-0.332031	0.259766	0.926758	13.020000	-238.630005	85.050003	0.00	0.00	0.00
2.82	18.50	15.00	11.25	11.25	3.50	11.75	1.00	6.75	2.75	2.25	0.25	0.25	4.25	5.50	0.25	0.50	-0.213379	0.041504	0.969727	-1.260000	-8.260000	1.680000	1215.00	-0.18	-0.09	0.00	0.00	0.00	0.00	0.00	0.00	0.00	0.00	0.00	0.00	0.00	0.00	0.00	0.00	0.00	0.00	-0.473633	0.210938	0.935059	12.880000	-238.000000	84.559998	0.00	0.00	0.00
2.83	18.25	14.50	11.00	11.00	3.50	11.75	1.00	7.25	2.75	2.50	0.50	0.50	5.00	5.75	0.75	0.50	-0.208008	0.055664	0.954590	3.360000	-7.700000	2.310000	1235.00	-0.17	-0.09	0.00	0.00	0.00	0.00	0.00	0.00	0.00	0.00	0.00	0.25	0.00	0.00	0.00	0.00	0.00	0.00	-0.512207	0.208496	0.990234	13.090000	-234.919998	81.550003	3.00	0.00	0.00
2.84	17.75	13.75	11.00	11.00	3.75	12.00	1.00	7.75	3.25	2.75	0.75	0.50	5.50	5.75	1.00	0.75	-0.203613	0.062500	0.956055	6.160000	-7.280000	2.590000	1260.00	-0.16	-0.09	0.00	0.00	0.00	0.00	0.00	0.00	0.00	0.00	0.00	0.00	0.00	0.00	0.00	0.00	0.00	0.00	-0.539062	0.213867	1.065430	17.850000	-233.169998	75.599998	0.00	0.00	0.00
2.85	17.00	13.25	10.75	10.75	3.75	12.25	1.00	8.00	3.00	2.75	0.75	0.50	6.00	5.75	1.00	0.50	-0.205078	0.050293	0.963867	8.260000	-6.580000	2.800000	1246.00	-0.15	-0.10	0.00	0.00	0.00	0.00	0.00	0.00	0.00	0.00	0.00	0.00	0.00	0.00	0.00	0.00	0.00	0.00	-0.562500	0.215332	1.152832	26.040001	-233.800003	67.129997	0.00	0.00	0.00
2.86	16.00	12.75	10.50	10.50	3.75	12.25	1.25	8.50	3.25	3.00	1.25	0.75	6.50	5.75	1.25	0.75	-0.208984	0.058105	0.962402	10.290000	-5.600000	3.080000	1261.00	-0.14	-0.10	0.00	0.00	0.00	0.00	0.00	0.00	0.00	0.00	0.00	0.00	0.00	0.00	0.00	0.00	0.00	0.00	-0.615723	0.196289	1.201660	33.810001	-235.899994	57.119999	0.00	0.00	0.00
2.87	15.50	12.25	10.50	10.50	4.00	12.75	1.25	9.00	3.50	3.25	1.00	0.75	6.75	5.75	1.75	1.00	-0.201172	0.061523	0.960449	12.670000	-4.900000	3.710000	1283.00	-0.13	-0.10	0.00	0.00	0.00	0.00	0.00	0.00	0.00	0.00	0.00	0.00	0.00	0.00	0.00	0.00	0.00	0.00	-0.645020	0.201660	1.247070	39.900002	-237.720001	46.970001	0.00	0.00	0.00
2.88	14.75	11.25	10.00	10.25	4.00	12.50	1.25	9.25	3.50	3.25	1.25	1.25	7.50	5.75	1.50	1.50	-0.188477	0.071289	0.951660	12.110000	-2.380000	3.570000	1271.00	-0.12	-0.11	0.00	0.00	0.00	0.00	0.00	0.00	0.00	0.00	0.00	0.00	0.00	0.00	0.00	0.00	0.25	0.00	-0.682617	0.233887	1.281738	44.240002	-239.119995	37.099998	3.00	0.00	0.00
2.89	14.00	11.00	9.75	10.00	4.00	12.50	1.25	9.50	3.75	4.00	1.25	1.25	8.00	5.75	2.00	1.50	-0.192383	0.081543	0.948730	9.590000	0.350000	3.010000	1282.00	-0.11	-0.11	0.00	0.00	0.00	0.00	0.00	0.00	0.00	0.00	0.00	0.00	0.00	0.00	0.00	0.00	0.00	0.00	-0.715332	0.239746	1.323730	47.459999	-241.220001	27.719999	0.00	0.00	0.00
2.90	12.75	10.25	9.50	9.75	3.75	12.50	1.25	9.75	4.25	4.00	1.50	1.50	9.00	5.75	2.50	1.50	-0.197266	0.077148	0.954102	7.070000	2.380000	2.100000	1283.00	-0.09	-0.12	0.00	0.00	0.00	0.00	0.00	0.00	0.00	0.00	0.00	0.00	0.00	0.00	0.00	0.00	0.25	0.00	-0.756836	0.262695	1.324707	51.170002	-242.690002	19.180000	3.00	0.00	0.00
2.91	11.75	9.50	9.25	9.50	3.75	12.25	1.25	10.00	4.50	4.25	2.00	1.25	9.50	6.00	2.75	2.00	-0.198242	0.077637	0.960449	3.710000	4.410000	1.190000	1281.00	-0.08	-0.12	0.00	0.00	0.00	0.00	0.00	0.00	0.00	0.00	0.00	0.00	0.00	0.00	0.00	0.00	0.00	0.00	-0.774414	0.267090	1.318359	57.750000	-242.339996	11.760000	0.00	0.00	0.00
2.92	11.25	8.75	9.00	9.25	3.75	12.25	1.50	10.00	5.00	5.00	1.75	1.75	10.00	6.25	2.75	2.25	-0.199219	0.086914	0.946777	0.140000	6.020000	0.350000	1294.00	-0.07	-0.12	0.00	0.00	0.00	0.00	0.00	0.00	0.00	0.00	0.00	0.00	0.00	0.00	0.00	0.00	0.00	0.00	-0.808594	0.302246	1.334961	64.680000	-240.029999	6.720000	0.00	0.00	0.00
2.93	10.25	8.50	8.75	9.00	3.50	12.00	1.75	10.00	5.25	5.25	2.00	1.75	10.25	6.50	3.50	2.50	-0.221680	0.074219	0.956055	-2.520000	6.510000	-0.420000	1297.00	-0.05	-0.12	0.00	0.00	0.00	0.00	0.00	0.00	0.00	0.00	0.00	0.00	0.00	0.00	0.00	0.00	0.25	0.00	-0.821777	0.317871	1.333496	70.419998	-236.250000	4.270000	3.00	0.00	0.00
2.94	9.25	7.75	8.50	8.75	3.75	11.50	1.75	10.25	5.75	5.75	2.25	2.00	10.75	7.00	3.25	2.75	-0.205078	0.078613	0.950684	-3.710000	6.440000	-0.770000	1300.00	-0.04	-0.11	0.00	0.00	0.00	0.00	0.00	0.00	0.00	0.00	0.00	0.00	0.00	0.00	0.00	0.00	0.00	0.00	-0.818359	0.340820	1.353027	75.459999	-230.930008	4.480000	0.00	0.00	0.00
2.95	8.75	7.50	8.25	8.50	3.50	11.50	2.00	10.25	6.00	6.00	2.25	2.25	11.00	7.50	3.50	2.75	-0.187988	0.080078	0.958008	-3.430000	6.580000	-1.050000	1306.00	-0.03	-0.11	0.00	0.00	0.00	0.00	0.00	0.00	0.00	0.00	0.00	0.00	0.00	0.00	0.00	0.00	0.00	0.00	-0.802246	0.365234	1.381836	80.709999	-225.190002	7.700000	0.00	0.00	0.00
2.96	8.25	6.75	7.75	8.00	3.50	11.25	2.00	10.25	6.50	6.25	2.25	2.50	11.50	7.75	4.25	3.00	-0.193848	0.074219	0.959473	-2.380000	6.790000	-0.980000	1308.00	-0.01	-0.11	0.00	0.00	0.00	0.00	0.00	0.00	0.00	0.00	0.00	0.00	0.00	0.00	0.00	0.00	0.00	0.00	-0.755859	0.350098	1.560547	92.260002	-218.330002	19.950001	0.00	0.00	0.00
2.97	7.50	6.25	7.75	7.75	3.50	11.25	2.00	10.25	7.00	6.75	2.75	2.50	11.75	8.00	4.00	3.00	-0.203613	0.071777	0.956543	-0.980000	6.930000	-0.980000	1312.00	-0.00	-0.11	0.00	0.00	0.00	0.00	0.00	0.00	0.00	0.00	0.00	0.00	0.00	0.00	0.00	0.00	0.00	0.00	-0.762695	0.309570	1.637207	96.389999	-221.619995	27.020000	0.00	0.00	0.00
2.98	7.00	6.00	7.25	7.50	3.50	10.75	2.25	10.50	7.00	7.00	3.00	3.00	12.25	8.50	4.75	3.50	-0.203125	0.069824	0.961426	0.700000	6.720000	-0.630000	1331.00	0.01	-0.11	0.00	0.00	0.00	0.00	0.00	0.00	0.00	0.00	0.00	0.00	0.00	0.00	0.00	0.00	0.00	0.00	-0.741211	0.251465	1.635742	97.440002	-228.270004	33.320000	0.00	0.00	0.00
2.99	6.50	5.50	6.75	7.00	3.25	10.75	2.25	10.50	7.00	7.25	3.00	3.00	12.50	8.50	5.00	3.75	-0.207520	0.067871	0.957520	2.170000	6.930000	-0.350000	1314.00	0.02	-0.11	0.00	0.00	0.00	0.00	0.00	0.00	0.00	0.00	0.00	0.00	0.00	0.00	0.00	0.00	0.00	0.00	-0.745605	0.199219	1.581055	97.650002	-234.149994	38.009998	0.00	0.00	0.00
3.00	5.75	4.75	6.25	6.50	3.25	10.75	2.50	10.50	7.25	7.50	3.50	3.50	13.00	8.75	5.00	4.00	-0.190430	0.077148	0.955566	3.080000	7.350000	-0.140000	1316.00	0.03	-0.12	0.00	0.00	0.00	0.00	0.00	0.00	0.00	0.00	0.00	0.00	0.00	0.00	0.00	0.00	0.00	0.00	-0.740234	0.127441	1.489746	97.580002	-236.180008	40.880001	0.00	0.00	0.00
3.01	4.75	4.25	6.00	6.25	3.00	10.25	2.25	10.75	7.50	7.50	3.75	3.75	13.50	9.00	5.00	4.25	-0.211426	0.074707	0.960938	4.270000	7.700000	0.000000	1301.00	0.04	-0.12	0.00	0.00	0.00	0.00	0.00	0.00	0.00	0.00	0.00	0.00	0.00	0.00	0.00	0.00	0.00	0.00	-0.734863	0.071289	1.426758	95.410004	-233.869995	42.000000	0.00	0.00	0.00
3.02	4.50	4.00	5.75	5.75	3.00	10.25	2.25	10.75	7.50	7.50	4.25	4.00	13.75	9.25	5.25	4.50	-0.218262	0.075195	0.961914	6.090000	6.930000	0.210000	1305.00	0.05	-0.12	0.00	0.00	0.00	0.00	0.00	0.00	0.00	0.00	0.00	0.00	0.00	0.00	0.00	0.00	0.00	0.00	-0.718262	0.040527	1.411133	90.580002	-229.040009	41.790001	0.00	0.00	0.00
3.03	3.75	3.50	5.25	5.50	2.75	10.25	2.25	11.25	7.25	7.50	4.50	4.50	14.25	9.00	5.50	5.00	-0.218750	0.067871	0.951172	9.450000	5.320000	0.770000	1300.00	0.06	-0.13	0.00	0.00	0.00	0.00	0.00	0.00	0.00	0.00	0.00	0.00	0.00	0.00	0.00	0.00	0.00	0.00	-0.713379	0.035645	1.437012	83.930000	-224.070007	40.670002	0.00	0.00	0.00
3.04	3.25	3.00	4.75	5.00	2.75	10.25	2.00	11.25	7.25	7.50	4.75	5.00	14.75	9.25	5.50	5.00	-0.210449	0.073730	0.958008	13.510000	3.990000	1.820000	1288.00	0.07	-0.13	0.00	0.00	0.00	0.00	0.00	0.00	0.00	0.00	0.00	0.00	0.00	0.00	0.00	0.00	0.00	0.00	-0.722656	0.041992	1.434082	76.580002	-219.940002	39.549999	0.00	0.00	0.00
3.05	2.50	2.75	3.75	5.00	2.75	10.25	2.00	11.75	7.25	7.50	5.25	5.25	15.25	9.25	5.75	5.25	-0.198242	0.095215	0.945801	16.100000	4.270000	2.380000	1291.00	0.08	-0.14	0.00	0.00	0.00	0.00	0.00	0.00	0.00	0.00	0.00	0.00	0.00	0.00	0.00	0.00	0.00	0.00	-0.749023	0.065430	1.407715	69.440002	-217.210007	38.990002	0.00	0.00	0.00
3.06	2.00	2.50	3.75	4.75	2.25	10.25	2.00	12.00	7.00	7.50	5.50	6.00	16.00	9.25	5.50	5.50	-0.191895	0.091309	0.954102	17.710001	5.040000	2.380000	1292.00	0.09	-0.15	0.00	0.00	0.00	0.00	0.00	0.00	0.00	0.00	0.00	0.00	0.00	0.00	0.00	0.00	0.00	0.00	-0.819824	0.089844	1.312012	64.820000	-214.199997	38.849998	0.00	0.00	0.00
3.07	2.00	2.25	3.00	4.00	2.25	10.00	1.75	12.25	7.00	7.50	5.75	6.25	16.75	9.25	5.75	5.75	-0.205078	0.087891	0.958984	17.150000	7.070000	2.310000	1285.00	0.10	-0.15	0.00	0.00	0.00	0.00	0.00	0.00	0.00	0.00	0.00	0.00	0.00	0.00	0.00	0.00	0.00	0.00	-0.916992	0.103027	1.174316	63.980000	-208.740005	38.849998	0.00	0.00	0.00
3.08	1.00	2.25	2.50	3.25	2.00	10.00	1.75	12.50	7.00	7.50	6.25	6.75	17.25	9.25	6.00	5.75	-0.213379	0.085449	0.953613	16.520000	9.030000	2.170000	1278.00	0.11	-0.16	0.00	0.00	0.00	0.00	0.00	0.00	0.00	0.00	0.00	0.00	0.00	0.00	0.00	0.00	0.00	0.00	-1.034668	0.097168	1.037598	65.309998	-198.869995	38.779999	0.00	0.00	0.00
3.09	1.25	1.50	1.75	2.75	1.50	10.00	1.50	12.75	6.75	7.75	6.50	7.25	18.00	9.25	6.00	6.25	-0.217773	0.094238	0.949707	16.170000	10.640000	2.170000	1269.00	0.12	-0.17	0.00	0.00	0.00	0.00	0.00	0.00	0.00	0.00	0.00	0.00	0.00	0.00	0.00	0.00	0.00	0.00	-1.168457	0.086914	0.887207	66.570000	-184.869995	38.360001	0.00	0.00	0.00
3.10	0.75	1.75	1.50	2.50	1.50	9.50	1.75	12.75	7.00	8.00	6.75	7.50	18.25	9.50	6.25	6.25	-0.211426	0.108887	0.956543	13.930000	13.020000	2.170000	1279.00	0.13	-0.17	0.00	0.00	0.00	0.00	0.00	0.00	0.00	0.00	0.00	0.00	0.00	0.00	0.00	0.00	0.00	0.00	-1.534180	0.025879	0.667480	76.720001	-149.169998	35.000000	0.00	0.00	0.00
3.11	0.75	1.25	1.00	2.25	1.50	9.25	1.50	12.75	7.25	8.00	7.25	7.75	18.75	9.50	6.00	6.50	-0.217285	0.121582	0.947266	7.350000	18.410000	0.070000	1272.00	0.13	-0.17	0.00	0.00	0.00	0.00	0.00	0.00	0.00	0.00	0.00	0.00	0.00	0.00	0.00	0.00	0.00	0.00	-1.748535	-0.082520	0.551270	84.349998	-131.180008	31.010000	0.00	0.00	0.00
3.12	0.75	1.25	0.75	2.50	1.25	9.00	1.50	12.75	7.25	8.25	7.50	8.00	19.00	9.75	6.25	6.75	-0.196777	0.116211	0.940918	7.910000	24.850000	-0.630000	1285.00	0.14	-0.17	0.00	0.00	0.00	0.00	0.00	0.00	0.00	0.00	0.00	0.00	0.00	0.00	0.00	0.00	0.00	0.00	-1.983887	-0.248047	0.413574	89.529999	-112.000000	26.670000	0.00	0.00	0.00
3.13	0.75	1.25	1.25	1.75	1.00	9.00	1.75	12.75	7.50	8.50	7.75	8.00	19.50	10.00	6.75	7.50	-0.211426	0.101074	0.947754	8.610000	30.100000	-0.840000	1312.00	0.14	-0.17	0.00	0.00	0.00	0.00	0.00	0.00	0.00	0.00	0.00	0.00	0.00	0.00	0.00	0.00	0.00	0.00	-2.165527	-0.444336	0.270996	82.459999	-88.480003	22.820000	0.00	0.00	0.00
3.14	0.25	1.00	0.50	1.50	1.00	8.75	1.75	12.50	7.75	8.50	8.00	8.25	20.00	10.25	7.00	7.25	-0.232910	0.106445	0.948730	8.540000	33.389999	-1.260000	1301.00	0.15	-0.17	0.00	0.00	0.00	0.00	0.00	0.00	0.00	0.00	0.00	0.00	0.00	0.00	0.00	0.00	0.00	0.00	-2.277344	-0.564453	0.168945	57.470001	-59.290001	17.920000	0.00	0.00	0.00
3.15	0.75	1.00	0.75	1.50	1.00	8.50	1.75	12.50	8.00	8.75	8.25	8.50	20.00	10.50	7.25	7.75	-0.234375	0.101562	0.963379	9.100000	36.540001	-1.120000	1330.00	0.15	-0.16	0.00	0.00	0.00	0.00	0.00	0.00	0.00	0.00	0.00	0.00	0.00	0.00	0.00	0.00	0.00	0.00	-2.250000	-0.554199	0.163086	23.170000	-26.950001	10.360000	0.00	0.00	0.00
3.16	0.50	1.00	0.25	1.25	0.75	8.25	1.75	12.25	8.00	9.00	8.50	8.75	20.50	10.75	7.50	7.75	-0.246094	0.107910	0.958984	10.780000	40.529999	-0.700000	1326.00	0.16	-0.16	0.00	0.00	0.00	0.00	0.00	0.00	0.00	0.00	0.00	0.00	0.00	0.00	0.00	0.00	0.00	0.00	-2.096191	-0.402832	0.251465	-8.190000	3.500000	-0.140000	0.00	0.00	0.00
3.17	0.50	0.75	0.25	1.25	0.75	8.00	1.75	12.25	8.25	9.25	8.75	9.00	21.00	11.00	7.75	8.00	-0.246094	0.111328	0.964355	12.950000	45.080002	-0.140000	1345.00	0.16	-0.16	0.00	0.00	0.00	0.00	0.00	0.00	0.00	0.00	0.00	0.00	0.00	0.00	0.00	0.00	0.00	0.00	-1.898926	-0.222656	0.397949	-29.540001	27.650000	-10.570000	0.00	0.00	0.00
3.18	0.00	0.75	0.50	1.00	0.75	7.75	1.75	12.00	8.50	9.50	9.00	9.25	21.25	11.25	7.75	8.25	-0.259766	0.109375	0.970215	15.120000	50.959999	0.490000	1351.00	0.17	-0.16	0.00	0.00	0.00	0.00	0.00	0.00	0.00	0.00	0.00	0.00	0.00	0.00	0.00	0.00	0.00	0.00	-1.724609	-0.048828	0.509277	-44.380001	45.360001	-17.150000	0.00	0.00	0.00
3.19	0.00	1.00	0.00	0.75	0.75	7.50	1.75	12.00	8.75	9.75	9.25	9.25	21.50	11.75	8.00	8.25	-0.274414	0.122070	0.974609	16.799999	58.170002	0.280000	1362.00	0.17	-0.16	0.00	0.00	0.00	0.00	0.00	0.00	0.00	0.00	0.00	0.00	0.00	0.00	0.00	0.00	0.00	0.00	-1.575195	0.123535	0.557617	-57.119999	59.080002	-16.450001	0.00	0.00	0.00
3.20	0.00	0.25	0.00	0.75	0.50	7.25	1.75	11.75	8.75	10.00	9.50	9.50	21.50	12.00	8.00	8.75	-0.278320	0.125000	0.968750	18.059999	65.940002	-0.140000	1358.00	0.18	-0.16	0.00	0.00	0.00	0.00	0.00	0.00	0.00	0.00	0.00	0.00	0.00	0.00	0.00	0.00	0.00	0.00	1.826660	1.208984	0.995117	-65.099998	71.050003	-6.300000	0.00	0.00	0.00
3.21	0.00	0.50	0.00	0.00	0.50	7.25	1.75	11.50	9.00	10.25	9.75	9.75	21.75	12.25	8.25	8.75	-0.274414	0.125977	0.993652	18.969999	75.040001	-0.700000	1368.00	0.19	-0.15	1.50	0.75	0.75	0.00	0.00	0.00	0.00	0.00	0.00	0.00	0.00	0.00	0.00	0.00	0.00	0.00	3.973145	0.883789	1.389160	-67.269997	99.400002	31.430000	37.00	0.00	0.00
3.22	0.00	0.25	0.00	0.75	0.50	6.50	1.75	11.25	9.00	10.25	10.00	10.00	21.75	12.50	8.25	9.00	-0.301758	0.114258	1.016602	18.410000	86.449997	-0.560000	1371.00	0.19	-0.15	5.00	2.00	1.50	1.00	0.00	0.00	0.00	0.00	0.00	0.00	0.00	0.00	0.00	0.00	0.00	0.00	0.526855	-0.470215	-0.761719	-109.830002	91.980003	29.120001	117.00	-0.37	0.02
3.23	0.00	0.00	0.00	0.00	0.50	6.25	1.50	10.75	9.25	10.50	10.00	9.75	21.75	12.75	8.25	9.25	-0.321289	0.139648	1.018066	16.940001	101.010002	-0.840000	1349.00	0.20	-0.15	6.50	3.75	1.25	1.25	0.00	0.00	0.00	0.00	0.00	0.00	0.00	0.00	0.00	0.00	0.00	0.00	0.179688	-0.556641	-0.679199	-226.940002	180.389999	-24.780001	155.00	-0.38	-0.00
3.24	0.00	0.50	0.00	0.00	0.25	5.75	1.50	10.50	9.25	10.75	10.25	10.00	21.50	13.00	8.50	9.25	-0.352051	0.146973	1.038086	13.510000	129.360001	-4.200000	1353.00	0.20	-0.15	9.50	6.75	1.75	1.75	0.00	0.00	0.00	0.00	0.00	0.00	0.00	0.00	0.00	0.00	0.00	0.00	-0.741699	-0.310547	1.358887	-243.320007	234.220001	-32.480000	238.00	-0.38	-0.01
3.25	0.00	0.00	0.00	0.00	0.25	5.50	1.50	10.00	9.50	10.75	10.25	10.00	21.25	13.25	8.75	9.50	-0.352051	0.146973	1.038086	13.510000	129.360001	-4.200000	1344.00	0.20	-0.14	11.50	9.00	2.50	2.50	0.00	0.00	0.00	0.00	0.00	0.00	0.00	0.00	0.00	0.00	0.00	0.00	-0.741699	-0.310547	1.358887	-243.320007	234.220001	-32.480000	308.00	-0.38	-0.02
3.26	0.00	0.25	0.00	0.00	0.25	5.00	1.50	9.50	9.50	11.00	10.25	10.00	21.00	13.50	8.50	9.75	-0.430176	0.145508	1.058105	7.210000	155.539993	-7.280000	1332.00	0.21	-0.14	13.25	10.25	2.75	2.75	0.00	0.00	0.00	0.00	0.00	0.00	0.00	0.00	0.00	0.00	0.00	0.00	0.126465	-0.607910	0.771484	-138.389999	273.630005	-1.470000	350.00	-0.38	-0.02
3.27	0.00	0.25	0.00	0.00	0.00	4.00	1.50	9.00	9.50	11.00	10.25	9.75	20.25	13.75	8.75	9.75	-0.424805	0.148926	1.072266	2.660000	168.490005	-8.400000	1302.00	0.21	-0.13	13.50	10.50	3.00	3.00	0.00	0.00	0.00	0.00	0.00	0.00	0.00	0.00	0.00	0.00	0.00	0.00	-0.257812	-0.806152	0.861816	-76.440002	311.079987	-2.310000	362.00	-0.38	-0.02
3.28	0.00	0.00	0.00	0.00	0.00	3.50	1.50	8.75	9.50	11.00	10.25	9.75	19.75	13.75	8.50	10.00	-0.448242	0.177734	1.062988	-0.140000	182.350006	-10.010000	1281.00	0.22	-0.13	13.75	11.00	3.00	3.00	0.00	0.25	0.00	0.00	0.00	0.00	0.00	0.00	0.00	0.00	0.00	0.00	-0.721191	-0.650879	1.978516	-20.440001	311.149994	-12.880000	374.00	-0.38	-0.02
3.29	0.00	0.25	0.00	0.00	0.00	2.00	1.50	8.25	9.25	10.75	10.25	9.50	19.25	13.75	8.75	10.00	-0.485352	0.187988	1.104980	-1.400000	195.860001	-12.250000	1243.00	0.22	-0.13	14.00	11.75	3.50	4.00	0.00	0.25	0.00	0.00	0.00	0.00	0.00	0.00	0.00	0.00	0.00	0.00	-0.764160	0.021484	1.924316	8.540000	273.209991	-30.450001	406.00	-0.37	-0.03
3.30	0.00	0.00	0.00	0.00	0.00	1.50	1.50	7.75	9.25	10.75	10.00	9.50	18.75	14.00	8.75	10.25	-0.513672	0.145996	1.086914	-2.660000	209.930008	-15.050000	1221.00	0.23	-0.12	14.50	12.25	4.00	4.50	0.00	0.25	0.00	0.00	0.00	0.00	0.00	0.00	0.00	0.00	0.00	0.00	-0.783203	0.679199	2.130859	12.390000	230.369995	-35.490002	430.00	-0.37	-0.03
3.31	0.00	0.00	0.00	0.00	0.00	1.00	1.50	7.50	9.00	10.75	9.75	9.25	18.00	14.00	8.75	10.00	-0.565918	0.146973	1.084961	-2.590000	223.369995	-16.379999	1190.00	0.23	-0.12	14.75	12.75	4.25	6.00	0.50	1.50	0.00	0.00	0.00	0.00	0.00	0.00	0.00	0.00	0.00	0.00	-0.797852	0.711426	2.120117	-19.389999	195.300003	-21.420000	485.00	-0.36	-0.04
3.32	0.00	0.00	0.00	0.00	0.00	1.00	1.50	7.00	8.75	10.25	9.75	9.00	17.25	14.25	8.75	10.25	-0.621094	0.139160	1.156738	-1.890000	236.180008	-16.170000	1164.00	0.23	-0.12	15.25	12.75	5.00	6.50	0.50	2.25	0.00	0.25	0.00	0.00	0.00	0.00	0.00	0.00	0.00	0.00	-0.941895	0.350098	2.253906	-103.250000	120.120003	-10.430000	522.00	-0.35	-0.05
3.33	0.00	0.00	0.00	0.00	0.00	0.50	1.50	6.50	8.50	10.00	9.25	8.75	16.25	14.00	8.50	10.25	-0.695312	0.161621	1.226562	-4.130000	250.809998	-15.260000	1116.00	0.24	-0.11	15.00	13.00	5.25	7.25	0.75	3.50	0.00	0.50	0.00	0.00	0.00	0.00	0.00	0.00	0.00	0.00	-0.286621	-0.347168	0.924316	-93.870003	61.459999	1.890000	559.00	-0.34	-0.06
3.34	0.00	0.00	0.00	0.00	0.00	0.25	1.50	6.00	8.00	9.50	9.00	8.25	15.50	13.50	8.50	10.00	-0.759277	0.130859	1.358398	-3.990000	265.230011	-13.370000	1066.00	0.24	-0.11	15.50	13.00	5.50	7.50	1.00	4.00	0.00	1.00	0.25	0.00	0.00	0.00	0.25	0.00	0.00	0.00	-0.153320	-0.088867	1.138184	-72.379997	40.180000	0.140000	597.00	-0.32	-0.07
3.35	0.00	0.00	0.00	0.00	0.00	1.00	1.25	5.75	7.50	9.25	8.50	8.00	14.50	13.25	8.25	9.50	-0.929199	0.164062	1.450195	-12.600000	278.739990	-14.700000	1027.00	0.24	-0.11	15.25	13.25	5.50	7.75	1.25	4.75	0.25	1.50	0.75	0.25	0.00	0.00	0.50	0.00	0.00	0.00	-0.461426	0.152832	1.416992	-80.989998	19.040001	-2.100000	640.00	-0.30	-0.07
3.36	0.00	0.00	0.00	0.00	0.00	0.00	1.25	5.25	7.25	8.75	7.75	7.25	13.75	12.75	7.75	9.25	-1.029297	0.250488	1.600098	-17.639999	286.440002	-16.240000	956.00	0.25	-0.11	15.50	13.50	6.00	8.00	1.50	5.00	0.50	1.50	1.50	0.00	0.00	0.00	0.75	0.00	0.00	0.00	-0.273926	-0.088867	1.012695	-52.150002	-6.650000	0.070000	678.00	-0.29	-0.06
3.37	0.00	0.00	0.00	0.00	0.00	0.00	1.25	4.50	6.75	8.25	7.25	6.75	12.50	12.25	7.50	8.50	-1.095215	0.273926	1.616211	-30.590000	294.140015	-21.629999	890.00	0.25	-0.10	16.25	13.25	6.50	8.25	1.75	5.00	0.50	1.75	2.00	0.25	0.00	0.00	0.50	0.25	0.00	0.00	-0.185547	0.062988	0.985352	-35.070000	-17.080000	0.910000	714.00	-0.28	-0.05
3.38	0.00	0.00	0.00	0.00	0.00	0.00	1.00	3.00	6.00	7.75	6.25	5.75	11.25	11.50	6.75	8.00	-1.105469	0.197754	1.567383	-44.310001	298.760010	-29.190001	782.00	0.26	-0.09	16.25	14.00	7.00	8.25	2.00	5.50	0.75	1.75	3.00	0.50	0.00	0.00	0.75	0.00	0.00	0.00	-0.225098	0.063965	1.004395	-30.940001	-18.690001	-0.210000	762.00	-0.26	-0.05
3.39	0.00	0.00	0.00	0.00	0.00	0.00	0.75	2.50	5.75	7.25	5.50	5.00	10.25	10.50	6.25	7.00	-1.101562	0.268066	1.800293	-49.770000	296.170013	-32.130001	706.00	0.26	-0.09	17.00	14.00	7.25	8.50	2.25	5.50	0.75	1.50	3.25	0.50	0.00	0.00	0.75	0.25	0.00	0.00	-0.175781	0.008301	0.952637	-27.719999	-17.710001	-0.910000	783.00	-0.26	-0.04
3.40	0.00	0.00	0.00	0.00	0.00	0.50	0.50	2.00	5.00	6.50	4.25	3.75	9.00	9.50	5.50	6.25	-0.990234	0.200684	1.916016	-54.670002	286.790009	-32.900002	609.00	0.26	-0.08	17.00	13.75	7.50	8.25	2.50	5.50	1.00	1.75	4.00	0.50	0.00	0.00	1.00	0.25	0.00	0.00	-0.169922	0.027832	0.966309	-25.340000	-15.890000	-1.050000	807.00	-0.25	-0.04
3.41	0.00	0.25	0.00	0.00	0.00	0.25	0.25	1.75	4.25	5.50	3.25	2.75	8.00	8.50	4.50	5.25	-0.559570	0.336914	1.598145	-47.810001	263.619995	-29.820000	511.00	0.26	-0.08	17.25	14.00	7.50	8.25	2.75	5.25	1.25	1.50	5.00	0.75	0.25	0.00	1.00	0.75	0.25	0.00	-0.161621	0.011719	0.971191	-20.440001	-11.480000	0.490000	842.00	-0.23	-0.03
3.42	0.00	0.00	0.00	0.00	0.00	0.00	0.25	1.00	3.50	4.75	2.00	2.50	7.00	7.00	2.75	3.25	-0.385254	0.372559	1.507812	-38.360001	263.690002	-30.170000	391.00	0.26	-0.08	17.00	13.50	7.75	8.25	2.75	5.25	1.50	1.50	5.00	0.75	0.00	0.25	1.00	0.50	0.00	0.00	-0.159180	0.006348	0.969238	-17.500000	-10.360000	1.190000	836.00	-0.23	-0.02
3.43	0.00	0.00	0.00	0.00	0.00	0.00	0.25	0.75	2.50	4.00	1.75	1.75	5.25	5.25	1.50	2.00	-0.111816	0.416992	1.387207	-28.000000	266.700012	-31.360001	290.00	0.26	-0.07	17.00	13.25	7.75	8.25	3.00	5.25	1.50	1.50	5.50	0.75	0.25	0.00	1.00	1.00	0.25	0.00	-0.150879	0.019043	0.964844	-14.980000	-10.290000	1.820000	852.00	-0.22	-0.02
3.44	0.00	0.00	0.00	0.00	0.00	0.50	0.00	0.75	1.75	3.25	1.25	1.50	3.75	2.50	0.25	1.00	0.245605	0.490234	0.918457	-7.910000	270.200012	-34.509998	196.00	0.22	-0.10	16.50	13.00	7.75	8.00	3.25	5.25	2.00	1.50	6.50	1.00	0.00	0.00	1.25	1.25	0.50	0.00	-0.165527	0.012695	0.958008	-13.020000	-10.500000	2.590000	876.00	-0.20	-0.01
3.45	0.00	0.25	0.00	0.00	0.00	0.25	0.00	0.50	1.00	2.75	1.25	1.00	2.50	1.00	0.50	0.75	0.682129	-0.194824	1.252441	27.650000	261.380005	-55.230000	140.00	0.21	-0.11	16.00	12.25	7.75	7.75	3.25	5.00	2.50	1.75	6.75	1.00	0.25	0.00	1.25	1.00	0.00	0.00	-0.168457	0.014648	0.959473	-11.130000	-10.990000	3.150000	867.00	-0.19	-0.01
3.46	0.00	0.25	0.00	0.00	0.00	0.00	0.00	0.50	1.25	2.75	1.00	0.75	2.75	0.75	0.50	0.75	0.558594	0.340820	3.874512	50.889999	166.529999	-77.840004	134.00	0.22	-0.11	15.50	12.00	7.75	7.75	3.75	5.25	2.75	1.75	7.50	1.25	0.00	0.00	1.25	2.00	0.00	0.00	-0.166504	0.023926	0.956543	-9.520000	-11.340000	3.360000	894.00	-0.18	-0.00
3.47	0.25	0.25	0.00	0.00	0.00	0.00	0.00	0.50	0.75	2.75	1.00	0.75	1.75	1.00	0.25	0.50	1.001465	0.141113	2.752930	56.700001	27.299999	-85.400002	117.00	0.20	-0.09	15.00	11.75	7.50	7.75	3.75	5.50	3.00	2.00	7.50	1.50	0.25	0.25	1.25	1.50	0.00	0.00	-0.162598	0.019043	0.953125	-8.470000	-11.620000	3.220000	899.00	-0.17	-0.00
3.48	0.25	0.75	0.00	0.00	0.00	0.00	0.00	0.50	0.75	2.75	1.00	0.75	1.50	0.50	0.50	0.25	0.736816	-0.003906	2.050293	21.980000	-85.120003	-85.680000	117.00	0.16	-0.09	14.75	11.25	7.50	7.50	3.75	5.50	3.25	2.00	8.00	1.50	0.50	0.25	1.50	1.50	0.25	0.00	-0.175293	0.016113	0.956055	-7.490000	-11.760000	3.010000	908.00	-0.16	-0.00
3.49	0.00	0.50	0.00	0.00	0.00	0.00	0.00	0.00	1.00	2.75	0.75	0.75	1.25	0.25	0.50	0.50	0.533203	0.014648	1.186523	-22.889999	-141.330002	-86.169998	99.00	0.21	-0.05	14.50	10.75	7.50	7.50	4.25	6.00	3.50	2.25	8.00	1.75	0.25	0.25	1.75	2.25	0.25	0.00	-0.170410	0.020508	0.960449	-6.580000	-11.970000	2.730000	931.00	-0.15	-0.00
3.50	0.00	0.00	0.00	0.00	0.00	0.00	0.00	0.00	0.50	2.25	1.00	0.25	1.25	0.75	0.25	0.50	0.382324	0.116211	0.809570	-52.709999	-155.889999	-88.410004	78.00	0.26	-0.05	14.00	10.50	7.50	7.50	4.50	6.00	3.50	2.25	8.25	2.00	0.50	0.25	2.00	2.00	0.50	0.00	-0.164551	0.018066	0.963867	-5.670000	-11.690000	2.590000	939.00	-0.14	-0.00
3.51	0.00	0.00	0.00	0.00	0.00	0.00	0.00	0.00	0.75	2.25	1.00	0.25	1.00	0.50	0.50	0.25	0.333496	0.197266	0.708496	-63.420002	-155.050003	-90.230003	79.00	0.26	-0.03	13.50	10.25	7.50	7.50	4.75	6.00	3.50	2.50	8.50	2.00	0.25	0.25	2.00	2.25	0.25	0.00	-0.158203	0.019531	0.958008	-4.620000	-11.340000	2.660000	938.00	-0.14	-0.00
3.52	0.00	0.00	0.00	0.00	0.00	0.00	0.00	0.00	0.50	2.25	1.00	0.25	1.00	0.50	0.50	0.00	0.318359	0.258789	0.732422	-63.420002	-153.649994	-90.930000	73.00	0.25	-0.04	13.25	9.50	7.50	7.50	5.00	6.25	3.75	2.75	8.50	2.25	0.50	0.50	2.00	2.50	0.25	0.00	-0.159180	0.019531	0.959961	-2.800000	-10.010000	3.150000	954.00	-0.13	-0.00
3.53	0.25	0.25	0.00	0.00	0.00	0.25	0.00	0.25	0.50	2.00	0.50	0.50	0.50	0.00	0.50	0.25	0.316895	0.281738	0.812500	-60.619999	-157.500000	-89.949997	72.00	0.16	-0.07	13.00	9.25	7.50	7.25	5.25	6.25	3.75	2.75	8.50	2.25	0.50	0.25	2.25	2.75	0.50	0.00	-0.159180	0.019531	0.959961	-2.800000	-10.010000	3.150000	954.00	-0.12	-0.00
3.54	0.25	0.25	0.00	0.00	0.00	0.00	0.00	0.00	0.50	2.00	0.75	0.00	0.25	0.00	0.50	0.50	0.293457	0.288086	0.903320	-60.689999	-167.789993	-86.940002	60.00	0.20	-0.00	12.50	8.75	7.25	7.25	5.50	6.25	4.00	3.25	8.75	2.50	0.50	0.25	2.25	3.25	0.50	0.00	-0.156738	0.022461	0.963379	-2.380000	-9.380000	3.360000	967.00	-0.11	-0.00
3.55	0.00	0.25	0.00	0.00	0.00	0.00	0.00	0.00	0.25	2.00	0.50	0.25	0.00	0.00	0.25	0.25	0.265137	0.308105	0.935547	-66.849998	-181.720001	-81.620003	46.00	0.00	0.00	11.75	8.50	7.25	7.00	5.75	6.50	4.25	3.25	8.75	2.75	0.75	0.25	2.50	3.25	0.75	0.00	-0.160645	0.022461	0.959961	-3.010000	-8.470000	2.870000	975.00	-0.10	-0.00
3.56	0.00	0.50	0.00	0.00	0.00	0.00	0.00	0.00	0.75	2.00	0.50	0.00	0.25	0.00	0.50	0.25	0.195801	0.395508	0.992188	-84.629997	-209.020004	-65.169998	59.00	0.20	0.02	12.00	8.00	7.25	7.00	5.50	6.50	4.25	3.25	9.00	2.75	0.75	0.50	2.50	3.00	0.50	0.00	-0.163086	0.022949	0.948242	-3.640000	-7.980000	2.660000	971.00	-0.10	-0.00
3.57	0.00	0.25	0.25	0.00	0.00	0.00	0.00	0.00	0.50	2.25	0.25	0.00	0.25	0.00	0.00	0.00	0.145508	0.454102	1.011230	-85.120003	-219.869995	-55.790001	48.00	0.00	0.00	11.25	7.75	7.25	6.75	6.00	6.25	4.50	3.75	9.00	3.00	0.75	0.50	3.00	3.25	1.00	0.00	-0.155762	0.018066	0.951172	-3.990000	-7.840000	2.520000	989.00	-0.09	-0.01
3.58	0.25	0.00	0.00	0.00	0.00	0.00	0.00	0.00	0.50	2.00	0.25	0.00	0.50	0.50	0.00	0.00	0.085938	0.520996	1.025391	-75.529999	-228.619995	-46.619999	49.00	0.00	0.00	11.00	7.25	7.00	6.75	6.00	6.50	4.50	3.75	9.00	3.25	0.75	0.50	2.50	3.25	0.75	0.00	-0.152832	0.019043	0.951660	-4.130000	-7.980000	2.380000	976.00	-0.09	-0.00
3.59	0.25	0.25	0.00	0.00	0.00	0.00	0.00	0.00	0.00	2.00	0.50	0.00	0.00	0.00	0.00	0.00	0.015625	0.571289	1.094727	-56.000000	-236.250000	-37.240002	37.00	0.00	0.00	10.50	7.25	7.00	6.75	6.25	6.50	4.75	3.75	9.25	3.25	1.00	0.50	2.75	3.50	0.75	0.00	-0.153809	0.015625	0.954590	-4.060000	-8.330000	2.380000	989.00	-0.08	-0.00
3.60	0.00	0.00	0.00	0.00	0.00	0.00	0.25	0.00	0.25	1.75	0.50	0.00	0.00	0.00	0.00	0.00	-0.073242	0.581055	1.195312	-31.360001	-245.419998	-26.740000	36.00	0.00	0.00	10.50	7.00	7.00	6.50	6.25	6.75	4.75	4.00	9.50	3.50	1.00	0.50	3.00	4.00	0.50	0.00	-0.147461	0.015625	0.957031	-3.710000	-8.820000	2.590000	1003.00	-0.07	-0.00
3.61	0.00	0.50	0.00	0.00	0.00	0.25	0.00	0.25	0.25	1.75	0.50	0.00	0.00	0.00	0.00	0.00	-0.163086	0.569336	1.169434	-9.940000	-255.500000	-15.120000	45.00	0.00	0.00	10.00	6.50	7.00	6.50	6.75	6.75	4.75	4.25	9.50	3.75	1.25	0.50	3.00	4.50	1.00	0.25	-0.155762	0.017578	0.949219	-3.150000	-8.960000	2.590000	1021.00	-0.06	-0.00
3.62	0.00	0.25	0.00	0.00	0.00	0.00	0.00	0.00	0.25	2.00	0.50	0.00	0.00	0.00	0.25	0.00	-0.289551	0.575684	1.085938	6.580000	-262.220001	-1.750000	41.00	0.00	0.00	9.75	6.50	6.75	6.25	6.75	7.00	5.00	4.75	9.50	4.25	1.25	0.75	3.00	4.25	1.00	0.25	-0.148438	0.011230	0.953125	-2.380000	-9.170000	2.730000	1035.00	-0.06	-0.01
3.63	0.00	0.25	0.00	0.00	0.00	0.00	0.00	0.00	0.50	1.50	0.50	0.00	0.25	0.00	0.00	0.25	-0.440918	0.619141	0.880371	26.320000	-260.399994	13.370000	40.00	0.00	0.00	9.25	6.00	6.75	6.25	6.75	7.00	5.00	4.75	9.75	4.00	1.50	1.00	3.25	4.75	1.00	0.00	-0.145508	0.008789	0.956055	-1.400000	-9.380000	2.800000	1036.00	-0.05	-0.01
3.64	0.00	0.00	0.00	0.00	0.00	0.00	0.25	0.00	0.25	2.00	0.50	0.00	0.00	0.00	0.25	0.50	-0.584961	0.650879	0.754883	56.000000	-244.860001	29.889999	46.00	0.00	0.00	9.00	5.75	6.75	6.25	7.00	7.25	5.00	5.00	9.75	4.50	1.50	0.75	3.50	5.00	1.00	0.25	-0.150879	0.014648	0.968750	-0.000000	-9.800000	3.080000	1051.00	-0.04	-0.01
3.65	0.00	0.25	0.00	0.00	0.00	0.00	0.00	0.00	0.25	2.00	0.50	0.00	0.25	0.00	0.00	0.00	-0.624512	0.542969	0.921875	90.580002	-222.320007	47.599998	40.00	0.00	0.00	8.50	5.25	6.75	6.00	7.00	7.25	5.00	5.25	9.75	4.75	1.50	1.00	3.75	5.00	1.25	0.00	-0.148926	0.006348	0.958008	1.820000	-10.220000	3.430000	1051.00	-0.04	-0.01
3.66	0.00	0.25	0.00	0.00	0.00	0.00	0.00	0.00	0.50	1.75	0.50	0.00	0.00	0.00	0.00	0.00	-0.554199	0.381348	1.329590	112.070000	-208.250000	63.000000	39.00	0.00	0.00	8.25	5.00	6.50	6.00	7.00	7.50	5.00	5.25	9.75	5.00	1.75	1.25	4.00	5.50	1.50	0.25	-0.154785	0.015137	0.964355	3.570000	-10.150000	3.780000	1067.00	-0.03	-0.02
3.67	0.00	0.00	0.00	0.00	0.00	0.00	0.00	0.00	0.50	2.00	0.25	0.00	0.00	0.00	0.00	0.00	-0.507324	0.266602	1.640625	112.209999	-210.770004	73.989998	36.00	0.00	0.00	8.00	4.75	6.50	6.00	7.25	8.00	5.00	5.50	9.75	5.25	2.00	1.00	4.50	5.25	1.50	0.25	-0.155762	0.016113	0.958496	4.900000	-9.870000	3.850000	1081.00	-0.03	-0.02
3.68	0.25	0.25	0.00	0.00	0.00	0.00	0.00	0.00	0.25	1.75	0.50	0.00	0.00	0.00	0.00	0.00	-0.601074	0.248047	1.727539	101.430000	-224.070007	78.820000	38.00	0.00	0.00	7.50	4.00	6.25	5.50	7.25	8.25	5.00	5.75	9.75	5.25	2.00	1.50	4.75	5.50	1.25	0.25	-0.145996	0.022461	0.960938	5.530000	-8.960000	3.780000	1073.00	-0.02	-0.02
3.69	0.00	0.00	0.50	0.00	0.00	0.00	0.00	0.00	0.50	2.00	0.25	0.00	0.00	0.00	0.00	0.00	-0.779785	0.246094	1.604004	92.610001	-235.759995	77.279999	42.00	0.00	0.00	7.50	3.75	6.25	5.50	7.25	8.50	5.00	6.00	9.75	5.50	2.50	1.50	5.25	5.50	2.00	0.25	-0.155273	0.025391	0.962402	5.740000	-8.050000	3.710000	1102.00	-0.01	-0.03
