# time	left pressure 1[N/cm²]	left pressure 2[N/cm²]	left pressure 3[N/cm²]	left pressure 4[N/cm²]	left pressure 5[N/cm²]	left pressure 6[N/cm²]	left pressure 7[N/cm²]	left pressure 8[N/cm²]	left pressure 9[N/cm²]	left pressure 10[N/cm²]	left pressure 11[N/cm²]	left pressure 12[N/cm²]	left pressure 13[N/cm²]	left pressure 14[N/cm²]	left pressure 15[N/cm²]	left pressure 16[N/cm²]	left acceleration X[g]	left acceleration Y[g]	left acceleration Z[g]	left angular X[dps]	left angular Y[dps]	left angular Z[dps]	left total force[N]	left center of pressure X[%]	left center of pressure Y[%]	right pressure 1[N/cm²]	right pressure 2[N/cm²]	right pressure 3[N/cm²]	right pressure 4[N/cm²]	right pressure 5[N/cm²]	right pressure 6[N/cm²]	right pressure 7[N/cm²]	right pressure 8[N/cm²]	right pressure 9[N/cm²]	right pressure 10[N/cm²]	right pressure 11[N/cm²]	right pressure 12[N/cm²]	right pressure 13[N/cm²]	right pressure 14[N/cm²]	right pressure 15[N/cm²]	right pressure 16[N/cm²]	right acceleration X[g]	right acceleration Y[g]	right acceleration Z[g]	right angular X[dps]	right angular Y[dps]	right angular Z[dps]	right total force[N]	right center of pressure X[%]	right center of pressure Y[%]
0.00																										2.50	2.25	3.25	4.75	4.75	5.75	0.75	3.25	1.00	1.00	1.75	1.25	2.50	3.00	1.25	2.25	-0.142578	0.045898	0.980469	-3.150000	-5.530000	1.330000	438.00	-0.05	-0.12
0.01																										2.50	2.75	3.25	4.50	5.00	5.75	0.75	3.25	1.00	1.25	1.75	1.75	2.50	3.00	1.25	2.25	-0.144043	0.042480	0.990234	-2.940000	-5.180000	1.610000	451.00	-0.05	-0.12
0.02	1.75	3.00	3.00	4.00	5.00	13.50	0.50	8.50	0.25	0.25	1.00	2.25	6.25	3.00	0.50	1.25	-0.175781	0.055664	0.957031	-2.170000	6.090000	-1.050000	594.00	-0.06	-0.21																									
0.03	1.75	2.50	2.75	3.75	5.25	13.25	0.50	8.50	0.25	0.25	1.00	2.00	6.25	3.25	0.50	1.25	-0.177734	0.057617	0.954590	-2.170000	6.160000	-1.190000	583.00	-0.06	-0.21	2.25	2.50	3.25	4.50	5.00	6.25	1.00	3.25	1.25	1.25	1.75	1.75	2.75	3.00	1.25	2.50	-0.148438	0.045410	0.986816	-2.660000	-4.690000	1.750000	462.00	-0.04	-0.12
0.04	1.50	2.50	3.00	3.75	5.00	13.00	0.50	8.25	0.25	0.25	1.00	2.25	6.25	3.25	0.50	1.25	-0.178223	0.044922	0.958008	-2.170000	5.810000	-1.190000	577.00	-0.06	-0.21	2.50	3.00	3.00	4.75	5.25	6.25	0.75	3.50	1.25	1.25	1.75	1.75	3.00	3.50	1.50	2.50	-0.146484	0.041016	0.986328	-2.590000	-4.550000	2.030000	481.00	-0.04	-0.12
0.05	2.25	3.00	2.00	4.00	5.00	13.00	0.50	8.50	0.25	0.50	1.00	2.00	6.50	3.50	0.50	1.25	-0.177734	0.049805	0.954102	-2.310000	5.460000	-1.120000	589.00	-0.06	-0.21	2.50	2.50	3.25	4.50	5.25	6.25	0.75	3.25	1.25	1.00	2.00	1.75	3.00	3.25	1.25	2.25	-0.146484	0.041016	0.986328	-2.590000	-4.550000	2.030000	466.00	-0.04	-0.12
0.06	1.50	2.50	2.75	3.75	5.00	12.75	0.75	8.25	0.25	0.50	1.00	2.25	6.25	3.25	0.50	1.25	-0.183594	0.056641	0.960449	-2.520000	6.020000	-1.330000	577.00	-0.05	-0.21	2.25	2.50	3.25	4.25	5.00	6.25	0.75	3.50	1.25	1.50	1.75	1.75	2.75	3.25	1.50	2.25	-0.146973	0.043945	0.987305	-2.520000	-4.550000	2.030000	465.00	-0.04	-0.12
0.07	1.50	2.50	2.75	3.75	5.00	12.50	0.50	8.25	0.25	0.25	1.25	2.25	6.25	3.50	0.75	1.25	-0.183594	0.056641	0.960449	-2.520000	6.020000	-1.330000	576.00	-0.05	-0.21	2.00	2.75	3.00	4.25	5.25	6.50	1.00	3.50	1.25	1.25	2.00	1.75	3.00	3.25	1.25	2.25	-0.142578	0.045898	0.990723	-2.380000	-4.480000	2.030000	471.00	-0.04	-0.12
0.08	1.50	2.75	2.75	3.75	5.00	12.25	0.50	8.25	0.25	0.25	1.25	2.25	6.25	3.75	0.75	1.25	-0.173340	0.050781	0.960449	-2.590000	5.950000	-1.190000	577.00	-0.05	-0.21	2.50	3.00	3.00	4.50	5.50	7.00	1.00	3.50	1.25	1.25	2.00	1.75	3.00	3.50	1.25	2.50	-0.140137	0.044434	0.990234	-2.380000	-4.480000	1.890000	493.00	-0.04	-0.12
0.09	1.50	2.50	2.75	3.25	5.00	11.75	0.50	8.25	0.25	0.25	1.25	2.25	6.25	3.50	0.50	1.25	-0.183105	0.048828	0.958008	-2.590000	6.230000	-1.120000	559.00	-0.05	-0.21	2.25	2.75	3.00	4.25	5.25	7.00	0.75	3.75	1.25	1.25	2.00	1.75	3.00	3.25	1.50	2.50	-0.140137	0.044434	0.990234	-2.380000	-4.480000	1.890000	483.00	-0.04	-0.13
0.10	1.50	2.50	2.50	3.00	4.75	11.75	0.75	8.00	0.25	0.50	1.25	2.25	6.25	3.75	0.75	1.25	-0.180664	0.048828	0.954102	-2.590000	6.370000	-1.190000	559.00	-0.04	-0.20	2.25	2.50	3.00	4.00	5.25	6.75	1.00	3.75	1.00	1.25	2.00	1.75	3.00	3.75	1.50	2.50	-0.146973	0.042969	0.990234	-2.100000	-4.200000	1.890000	480.00	-0.03	-0.12
0.11	1.50	2.25	2.25	3.00	4.75	11.50	0.50	8.00	0.25	0.25	1.00	2.00	6.25	3.50	0.50	1.25	-0.178711	0.048340	0.958496	-2.520000	6.510000	-1.050000	534.00	-0.04	-0.21	2.25	2.50	3.00	4.50	5.25	6.75	1.00	4.00	1.25	1.25	2.00	2.00	3.00	3.75	1.50	2.50	-0.145508	0.039551	0.990723	-2.030000	-3.990000	1.890000	495.00	-0.03	-0.12
0.12	1.25	2.25	2.50	3.25	4.75	11.50	0.50	8.00	0.25	0.25	1.00	2.00	6.25	3.75	0.50	1.25	-0.185059	0.051758	0.957520	-2.310000	6.440000	-1.050000	539.00	-0.04	-0.21	2.00	2.75	3.25	4.50	5.25	7.00	1.00	4.25	1.25	1.25	2.00	1.75	3.25	4.00	1.50	2.50	-0.144531	0.042480	0.985840	-1.890000	-3.850000	1.890000	506.00	-0.03	-0.13
0.13	1.25	2.50	2.50	3.00	4.75	11.25	0.50	8.00	0.50	0.25	1.25	2.00	6.00	3.75	0.50	1.25	-0.179688	0.053223	0.962402	-2.240000	6.440000	-0.980000	540.00	-0.04	-0.20	2.00	2.75	3.00	4.25	5.25	7.00	1.00	4.25	1.00	1.25	2.00	1.75	3.25	4.25	1.50	2.75	-0.143555	0.045410	0.987793	-1.750000	-3.780000	1.960000	500.00	-0.03	-0.13
0.14	1.50	2.25	2.25	3.00	4.75	11.00	0.50	7.75	0.50	0.50	1.00	2.00	6.25	3.75	0.50	1.25	-0.177246	0.050781	0.959473	-2.240000	6.230000	-1.120000	533.00	-0.04	-0.20	2.25	2.75	3.00	4.50	5.25	7.25	1.00	4.25	1.25	1.25	1.75	1.75	3.25	4.25	1.75	2.50	-0.142090	0.045410	0.989258	-1.820000	-3.780000	1.890000	510.00	-0.03	-0.13
0.15	1.25	2.50	2.50	3.00	4.75	10.75	0.50	7.75	0.50	0.25	1.25	2.00	6.25	4.00	0.75	1.25	-0.183105	0.050781	0.958496	-2.380000	5.740000	-1.190000	538.00	-0.03	-0.20	2.25	2.50	2.75	4.25	5.25	7.25	0.75	4.75	1.00	1.25	1.50	2.25	3.50	4.50	1.50	2.75	-0.146973	0.039551	0.984863	-1.890000	-3.780000	1.890000	509.00	-0.02	-0.14
0.16	1.50	2.25	2.25	2.75	4.75	10.50	0.75	7.50	0.25	0.25	1.25	2.00	6.25	4.00	0.50	1.25	-0.182129	0.050781	0.960449	-2.310000	5.390000	-1.330000	524.00	-0.03	-0.20	2.25	2.75	3.00	4.25	5.25	7.50	1.00	4.75	1.00	1.25	1.75	2.00	3.50	4.75	1.50	2.75	-0.143066	0.044434	0.989258	-2.030000	-4.060000	2.030000	522.00	-0.02	-0.13
0.17	1.50	2.25	2.25	2.75	4.75	10.25	0.75	7.50	0.50	0.25	1.00	2.00	6.00	4.00	0.75	1.25	-0.176758	0.047852	0.956055	-2.380000	5.530000	-1.540000	522.00	-0.03	-0.19	2.25	2.75	3.00	4.25	5.25	7.50	1.00	4.75	1.25	1.00	1.75	2.00	3.50	4.75	1.75	2.75	-0.139648	0.047852	0.990234	-2.100000	-3.990000	2.030000	526.00	-0.02	-0.13
0.18	1.50	2.25	2.25	2.50	5.00	10.25	0.75	7.50	0.50	0.00	1.00	2.00	6.00	3.75	0.50	1.25	-0.177734	0.047852	0.959961	-2.380000	5.670000	-1.540000	515.00	-0.04	-0.20	2.25	2.50	3.00	4.25	5.25	7.75	1.00	5.00	1.25	1.00	2.00	2.00	3.50	4.75	1.50	2.50	-0.139648	0.042969	0.983887	-2.030000	-3.920000	2.100000	529.00	-0.02	-0.13
0.19	1.25	2.25	2.25	2.50	5.00	10.00	0.50	7.25	0.50	0.25	0.75	2.00	6.00	3.75	0.50	1.25	-0.183594	0.046875	0.961914	-2.240000	5.600000	-1.470000	502.00	-0.03	-0.20	2.00	2.75	3.25	4.50	5.25	8.00	1.00	5.00	1.00	1.25	1.75	2.00	3.50	5.00	1.50	2.75	-0.145508	0.046387	0.983887	-2.030000	-3.920000	1.890000	537.00	-0.02	-0.14
0.20	1.25	2.25	2.50	2.75	5.00	9.75	0.50	7.25	0.25	0.50	1.00	2.00	6.00	4.25	0.50	1.50	-0.179688	0.047363	0.958984	-2.240000	5.880000	-1.540000	512.00	-0.03	-0.20	2.25	2.75	3.00	4.25	5.50	7.75	0.75	5.25	0.75	1.25	1.75	2.00	3.50	4.75	1.75	2.75	-0.140137	0.048340	0.987793	-2.030000	-3.990000	1.960000	531.00	-0.03	-0.14
0.21	1.25	2.25	2.25	2.50	4.75	9.75	0.50	7.25	0.25	0.25	0.75	1.75	6.00	4.00	0.75	1.50	-0.182617	0.051270	0.957031	-2.170000	5.950000	-1.400000	497.00	-0.03	-0.20	2.25	2.75	3.00	4.75	5.50	7.75	0.75	5.00	1.00	1.00	1.75	2.00	3.75	4.75	1.50	2.75	-0.145020	0.042480	0.987305	-2.170000	-3.850000	2.100000	533.00	-0.03	-0.14
0.22	1.25	2.50	2.25	2.75	5.00	9.50	0.75	7.25	0.50	0.25	1.00	1.75	6.00	4.25	0.75	1.50	-0.182617	0.042969	0.960449	-1.960000	5.810000	-1.190000	513.00	-0.03	-0.19	2.25	2.50	3.25	4.50	5.50	8.25	0.75	5.25	1.25	1.00	2.00	2.00	3.75	4.75	1.75	2.75	-0.147949	0.046875	0.984375	-2.240000	-3.780000	2.170000	548.00	-0.02	-0.14
0.23	1.25	2.00	2.00	2.50	5.00	9.50	0.50	7.25	0.50	0.25	1.00	1.75	5.75	4.25	0.75	1.25	-0.184570	0.048340	0.963867	-1.750000	5.880000	-1.050000	496.00	-0.03	-0.19	2.25	2.75	3.00	4.50	5.25	8.25	1.00	5.25	1.00	1.00	1.75	1.75	3.50	4.75	1.75	2.75	-0.137207	0.040039	0.987793	-2.380000	-3.780000	2.170000	538.00	-0.03	-0.14
0.24	1.25	2.00	2.25	2.50	5.00	9.50	0.75	7.00	0.50	0.25	1.00	1.75	5.75	4.00	0.50	1.50	-0.182617	0.050781	0.959473	-1.610000	6.300000	-0.980000	495.00	-0.03	-0.19	2.25	2.75	3.00	5.00	5.75	8.25	1.00	5.25	1.00	1.00	1.75	2.00	3.50	4.75	1.75	2.75	-0.141113	0.041504	0.982910	-2.450000	-3.780000	2.100000	552.00	-0.03	-0.14
0.25	1.25	2.50	2.50	2.50	5.00	9.50	0.50	7.00	0.75	0.25	1.00	1.75	5.75	4.00	0.75	1.25	-0.186523	0.049805	0.958008	-1.400000	6.510000	-0.910000	504.00	-0.03	-0.19	2.25	2.75	3.25	5.00	5.75	8.50	1.00	5.25	1.00	1.00	1.75	2.00	3.50	4.50	1.75	2.75	-0.138184	0.045410	0.984863	-2.520000	-3.780000	2.100000	555.00	-0.03	-0.14
0.26	1.25	2.25	2.25	2.75	5.00	9.50	0.50	7.00	0.50	0.25	0.75	1.75	5.75	4.00	0.75	1.25	-0.181641	0.048340	0.958496	-1.120000	6.580000	-0.630000	495.00	-0.03	-0.19	2.25	2.75	3.25	5.00	6.00	8.25	1.00	5.25	0.75	1.25	1.75	2.00	3.25	4.50	1.50	2.75	-0.138184	0.038574	0.990723	-2.590000	-3.780000	2.100000	550.00	-0.04	-0.14
0.27	1.50	2.25	2.00	2.50	5.00	9.25	0.50	7.00	0.50	0.50	0.75	1.75	5.75	4.25	0.75	1.50	-0.178711	0.047363	0.958496	-0.980000	6.580000	-0.490000	496.00	-0.03	-0.19	2.25	3.00	3.25	5.00	6.00	8.50	0.75	5.25	1.00	1.00	2.00	1.75	3.50	4.50	1.50	3.00	-0.143555	0.042480	0.985840	-2.660000	-3.780000	2.030000	555.00	-0.04	-0.14
0.28	1.50	2.25	2.00	2.50	5.00	9.25	0.50	7.00	0.00	0.25	0.75	1.75	5.75	4.00	0.75	1.25	-0.182617	0.048828	0.958984	-1.120000	6.720000	-0.490000	483.00	-0.04	-0.20	2.50	3.25	3.25	5.00	6.00	8.50	0.75	5.25	1.00	1.25	1.75	2.00	3.50	4.50	1.50	2.75	-0.143066	0.041992	0.986816	-2.660000	-3.500000	2.030000	561.00	-0.04	-0.14
0.29	1.50	2.25	2.25	2.25	5.00	9.25	0.50	7.00	0.25	0.50	1.00	1.50	5.75	3.50	0.75	1.25	-0.182129	0.050781	0.953613	-1.190000	6.860000	-0.490000	485.00	-0.04	-0.19	2.50	2.75	3.50	5.25	6.50	8.50	1.00	5.25	1.25	1.00	1.75	2.00	3.50	4.25	1.50	2.75	-0.144531	0.045410	0.987793	-2.870000	-3.430000	1.960000	570.00	-0.04	-0.13
0.30	1.50	2.25	2.00	2.50	5.00	9.25	0.50	7.00	0.50	0.50	1.00	1.75	5.75	3.75	1.00	1.50	-0.185547	0.053711	0.960938	-1.260000	7.000000	-0.490000	497.00	-0.03	-0.19	2.50	3.00	3.50	5.00	6.25	8.50	1.00	5.25	0.75	1.25	1.75	2.00	3.50	4.25	1.75	2.75	-0.140625	0.042480	0.983398	-2.870000	-3.360000	1.890000	566.00	-0.04	-0.14
0.31	1.50	1.75	2.50	2.50	5.00	9.25	0.50	7.25	0.50	0.50	1.00	1.25	5.50	3.75	0.75	1.25	-0.183594	0.053711	0.957520	-1.330000	6.860000	-0.420000	490.00	-0.03	-0.19	2.50	3.00	3.50	5.00	6.25	8.50	1.00	5.25	1.00	1.25	1.75	1.75	3.50	4.00	1.75	2.50	-0.140625	0.044434	0.994141	-2.870000	-3.360000	1.960000	563.00	-0.04	-0.14
0.32	1.25	2.25	2.25	2.50	5.00	9.25	0.50	7.00	0.50	0.25	0.75	1.50	5.75	3.75	0.75	1.25	-0.182129	0.042969	0.959473	-1.260000	7.070000	-0.490000	485.00	-0.03	-0.19	2.50	3.00	3.50	5.00	6.25	8.50	0.75	5.25	1.00	1.25	2.00	1.75	3.50	4.25	1.75	2.50	-0.141113	0.042969	0.994141	-3.010000	-3.360000	1.890000	564.00	-0.04	-0.14
0.33	1.25	2.25	2.00	2.50	5.00	9.25	0.50	7.25	0.50	0.50	1.00	1.75	5.75	3.75	0.75	1.25	-0.182129	0.059082	0.958984	-1.190000	7.070000	-0.490000	494.00	-0.03	-0.20	2.50	3.00	3.50	5.00	6.25	8.25	1.00	5.25	0.75	1.00	1.75	1.75	3.00	4.25	1.75	3.00	-0.142090	0.045898	0.990234	-3.080000	-3.220000	1.890000	555.00	-0.04	-0.14
0.34	1.25	2.00	2.25	2.50	5.00	9.25	0.50	7.00	0.50	0.50	1.25	1.50	5.75	3.75	0.50	1.25	-0.186523	0.048828	0.958008	-1.120000	7.070000	-0.490000	488.00	-0.03	-0.19	2.50	3.00	3.75	5.25	6.25	8.50	1.00	5.25	1.25	1.25	2.00	2.00	3.25	4.00	1.75	2.75	-0.142090	0.041992	0.984375	-3.010000	-3.150000	1.890000	576.00	-0.04	-0.13
0.35	1.50	2.25	2.25	2.50	5.00	9.25	0.50	7.00	0.25	0.25	1.25	1.75	5.75	3.50	0.75	1.25	-0.186523	0.048828	0.958008	-1.120000	7.070000	-0.490000	490.00	-0.04	-0.20	2.25	3.00	3.50	5.25	6.25	8.50	1.00	5.25	1.00	1.25	1.75	2.00	3.00	4.25	1.50	2.75	-0.143555	0.041016	0.984863	-2.940000	-3.220000	2.030000	562.00	-0.04	-0.13
0.36	1.50	2.00	2.00	2.50	5.00	9.25	0.75	7.25	0.25	0.50	0.75	1.75	5.50	3.25	0.75	1.25	-0.182617	0.052246	0.959961	-0.840000	7.770000	-0.420000	486.00	-0.04	-0.20	2.50	3.25	3.50	5.00	6.50	8.50	1.00	5.25	1.25	1.25	2.00	1.75	3.25	4.25	1.50	2.75	-0.143066	0.042969	0.989746	-2.940000	-3.220000	2.100000	572.00	-0.04	-0.13
0.37	1.25	2.25	2.25	2.50	5.00	9.25	0.75	7.00	0.50	0.25	1.25	1.75	5.50	3.25	0.75	1.25	-0.187988	0.053711	0.956055	-0.770000	8.190000	-0.350000	490.00	-0.03	-0.19	2.50	3.00	3.25	5.00	6.50	8.25	1.00	5.25	1.25	1.25	2.00	1.75	3.25	4.25	1.50	2.75	-0.143066	0.043945	0.986816	-2.940000	-3.500000	2.030000	565.00	-0.04	-0.13
0.38	1.25	1.75	2.25	2.50	4.75	9.25	0.50	7.00	0.25	0.50	1.00	1.50	5.50	3.25	0.75	1.25	-0.182129	0.053711	0.959473	-0.770000	8.610000	-0.210000	473.00	-0.03	-0.20	2.50	3.00	3.50	5.25	6.25	8.25	1.00	5.00	1.25	1.25	1.75	2.00	3.50	4.00	1.50	2.75	-0.140625	0.044922	0.992188	-3.010000	-3.710000	1.960000	564.00	-0.04	-0.13
0.39	1.25	2.00	2.00	2.50	4.75	9.25	0.50	7.00	0.50	0.50	1.00	1.50	5.50	3.00	0.75	1.25	-0.184082	0.046875	0.957520	-0.350000	9.170000	0.140000	474.00	-0.03	-0.20	2.50	2.75	3.75	5.00	6.75	8.25	1.00	5.25	1.25	1.25	1.75	2.00	3.25	4.00	1.75	2.75	-0.139160	0.043945	0.985352	-3.080000	-3.990000	1.960000	571.00	-0.04	-0.13
0.40	1.25	2.00	2.00	2.50	4.75	9.25	0.75	7.25	0.75	0.50	1.00	1.50	5.75	3.25	0.50	1.25	-0.184570	0.054199	0.960938	0.070000	9.940000	0.630000	486.00	-0.03	-0.19	2.25	3.00	3.75	5.25	6.75	8.25	1.00	5.25	1.25	1.50	2.00	1.75	3.50	4.00	1.50	2.75	-0.142578	0.042969	0.991211	-3.150000	-3.920000	2.240000	576.00	-0.04	-0.13
0.41	1.25	2.50	2.00	2.50	4.50	9.25	0.50	7.25	0.50	0.50	1.00	1.50	5.50	3.00	0.50	1.25	-0.192383	0.051758	0.958496	0.210000	10.780000	1.050000	477.00	-0.04	-0.20	2.75	3.00	3.50	5.00	6.75	8.50	1.00	5.25	1.25	1.50	2.00	2.00	3.25	3.75	1.50	3.00	-0.137695	0.043457	0.988770	-3.220000	-3.920000	2.380000	578.00	-0.04	-0.13
0.42	1.50	2.25	2.00	2.25	4.50	9.25	0.50	7.25	0.50	0.25	1.25	1.50	5.50	3.00	0.50	1.25	-0.189453	0.045898	0.958984	0.350000	10.570000	1.610000	474.00	-0.04	-0.20	2.50	3.00	3.75	5.00	6.75	8.50	1.00	5.25	1.50	1.25	2.00	1.75	3.00	3.75	1.75	2.75	-0.140137	0.044922	0.985352	-3.150000	-4.060000	2.380000	575.00	-0.04	-0.13
0.43	1.25	2.00	2.00	2.50	4.25	9.50	0.75	7.25	0.25	0.50	1.00	1.50	5.50	2.75	0.50	1.25	-0.187500	0.054199	0.955566	0.630000	11.200000	2.100000	471.00	-0.04	-0.21	2.50	3.25	3.75	5.00	7.00	8.25	1.00	5.25	1.25	1.50	2.25	2.00	3.25	4.00	1.50	2.75	-0.141602	0.041504	0.995117	-3.290000	-3.920000	2.310000	584.00	-0.04	-0.13
0.44	1.25	2.00	1.75	2.25	4.25	9.25	0.50	7.25	0.00	0.50	1.00	1.50	5.50	2.75	0.75	1.25	-0.187012	0.054688	0.955078	0.840000	11.760000	2.800000	458.00	-0.04	-0.21	2.75	3.00	4.00	5.50	7.00	8.25	1.00	5.25	1.25	1.25	2.00	2.00	3.50	3.75	1.75	2.75	-0.140137	0.040039	0.990723	-3.360000	-3.990000	2.240000	590.00	-0.05	-0.13
0.45	1.25	2.00	1.75	2.25	4.25	9.00	0.50	7.25	0.25	0.50	1.25	1.50	5.50	2.25	0.50	1.25	-0.195801	0.049316	0.957520	1.400000	12.390000	3.920000	454.00	-0.04	-0.21	2.50	3.25	4.00	5.25	7.25	8.50	1.00	5.25	1.25	1.50	2.00	2.00	3.25	3.75	1.75	2.75	-0.135742	0.047852	0.986816	-3.220000	-4.130000	2.240000	593.00	-0.05	-0.13
0.46	1.25	2.00	1.75	2.00	3.75	9.25	0.75	7.25	0.50	0.25	1.25	1.50	5.25	2.50	0.75	1.25	-0.198242	0.055176	0.955566	2.030000	13.300000	5.390000	456.00	-0.03	-0.21	2.75	3.25	4.00	5.25	7.25	8.50	1.00	5.25	1.25	1.75	1.75	1.75	3.00	3.75	1.50	2.75	-0.144043	0.036621	0.993652	-3.220000	-4.270000	2.380000	588.00	-0.05	-0.12
0.47	1.25	2.00	1.50	2.25	3.75	9.25	0.50	7.50	0.25	0.50	1.25	1.25	5.25	2.25	0.25	1.25	-0.188965	0.048340	0.958008	2.870000	14.560000	6.790000	445.00	-0.04	-0.22	2.75	3.50	4.00	5.75	7.25	8.50	1.00	5.25	1.50	1.50	2.00	1.75	3.00	3.75	1.75	2.75	-0.142090	0.041504	0.987793	-3.220000	-4.060000	2.520000	601.00	-0.05	-0.12
0.48	1.00	1.75	1.50	2.00	3.50	9.25	0.50	7.50	0.25	0.25	1.00	1.50	5.50	2.50	0.50	1.25	-0.199219	0.060547	0.959961	3.430000	14.560000	7.980000	439.00	-0.03	-0.22	3.00	3.25	4.00	5.50	7.50	8.50	1.00	5.25	1.25	1.25	2.00	1.75	3.00	3.75	1.50	2.75	-0.143555	0.044922	0.987305	-2.870000	-3.780000	2.520000	593.00	-0.06	-0.12
0.49	1.00	1.75	1.25	2.00	3.50	9.00	0.50	7.50	0.25	0.25	1.00	1.50	5.50	2.25	0.50	1.25	-0.192383	0.059082	0.949219	4.340000	14.700000	8.680000	431.00	-0.03	-0.23	2.75	3.25	4.00	5.50	7.50	8.75	1.00	5.25	1.50	1.25	1.75	1.75	3.00	3.75	1.75	2.75	-0.143555	0.044922	0.987305	-2.870000	-3.780000	2.520000	597.00	-0.05	-0.12
0.50	1.00	2.00	1.50	2.25	3.50	9.25	0.50	7.50	0.25	0.50	0.75	1.50	5.50	1.75	0.50	1.25	-0.200195	0.059082	0.951172	4.830000	14.490000	8.820000	438.00	-0.04	-0.23	3.00	3.25	4.25	5.75	7.50	8.75	1.00	5.25	1.50	1.25	2.00	2.00	3.00	3.75	1.50	2.75	-0.145020	0.041016	0.988281	-2.800000	-3.430000	2.520000	607.00	-0.06	-0.12
0.51	1.00	1.75	1.25	2.25	3.25	9.25	0.50	7.50	0.25	0.25	1.00	1.25	5.50	1.75	0.50	1.25	-0.201172	0.058594	0.953613	4.060000	13.790000	8.610000	427.00	-0.04	-0.23	3.00	3.50	4.00	5.50	7.50	8.75	1.00	5.25	1.50	1.25	2.00	2.00	3.00	3.75	1.50	3.00	-0.139648	0.041992	0.990723	-2.660000	-3.290000	2.380000	606.00	-0.05	-0.12
0.52	1.00	2.00	1.25	2.00	3.25	9.25	0.50	7.75	0.50	0.50	1.00	1.25	5.50	2.00	0.50	1.00	-0.192871	0.061035	0.948730	3.780000	12.950000	7.910000	437.00	-0.03	-0.23	2.75	3.50	4.25	5.50	7.50	8.50	1.25	5.25	1.75	1.25	2.00	1.75	3.25	3.75	1.50	2.75	-0.142090	0.040527	0.987793	-2.590000	-3.150000	2.170000	608.00	-0.05	-0.12
0.53	1.00	1.75	1.25	2.25	3.25	9.50	0.50	7.75	0.50	0.50	1.00	1.25	5.50	1.75	0.50	1.25	-0.196289	0.064941	0.947754	3.360000	12.320000	7.000000	440.00	-0.04	-0.23	2.75	3.50	4.25	5.25	7.50	8.75	1.00	5.00	1.25	1.25	2.00	1.75	2.75	3.75	1.50	2.75	-0.141602	0.042480	0.984863	-2.520000	-3.010000	2.100000	590.00	-0.06	-0.12
0.54	1.25	2.00	1.00	2.25	3.00	9.50	0.50	7.75	0.25	0.50	1.25	1.50	5.50	2.00	0.25	1.25	-0.183594	0.083496	0.947266	2.870000	11.060000	5.460000	440.00	-0.04	-0.23	3.00	3.50	4.25	5.50	7.50	8.50	1.00	5.25	1.25	1.50	2.00	1.50	3.00	4.00	1.75	3.00	-0.140625	0.044922	0.989746	-2.520000	-2.870000	2.030000	604.00	-0.05	-0.12
0.55	1.00	2.00	1.50	2.25	3.00	9.50	0.50	7.75	0.50	0.25	0.75	1.25	5.50	1.75	0.50	1.00	-0.186523	0.063477	0.954590	0.980000	8.820000	3.290000	435.00	-0.04	-0.23	2.75	3.50	4.00	5.50	7.50	8.50	1.00	5.25	1.25	1.25	2.00	1.75	2.75	3.50	1.75	2.75	-0.134766	0.043457	0.986816	-2.590000	-2.940000	1.890000	591.00	-0.06	-0.13
0.56	1.00	1.50	1.50	2.25	3.00	9.75	0.50	7.75	0.25	0.25	1.25	1.50	5.50	1.50	0.25	1.00	-0.197754	0.062988	0.952148	-3.080000	4.760000	-1.260000	433.00	-0.04	-0.24	2.75	3.25	3.75	5.50	7.50	8.50	1.00	5.00	1.25	1.25	2.00	1.75	3.00	3.50	1.75	2.75	-0.132812	0.039551	0.982422	-2.730000	-3.010000	1.820000	585.00	-0.05	-0.13
0.57	1.00	2.25	1.25	2.25	3.25	9.75	0.50	7.75	0.00	0.25	1.00	1.25	5.50	1.75	0.50	1.00	-0.198730	0.057129	0.949219	-3.080000	4.760000	-1.260000	436.00	-0.05	-0.24	2.50	3.50	4.00	5.25	7.50	8.50	1.00	5.00	1.25	1.50	2.00	1.75	3.00	3.75	1.50	2.75	-0.143555	0.041016	0.982422	-2.940000	-2.940000	1.610000	586.00	-0.05	-0.12
0.58	1.00	2.25	1.25	2.50	3.25	9.75	0.50	7.75	0.25	0.75	0.75	1.50	5.50	2.00	0.50	1.25	-0.197266	0.062012	0.955566	-6.020000	1.680000	-3.080000	451.00	-0.04	-0.23	2.75	3.00	4.25	5.50	7.50	8.25	1.00	5.00	1.75	1.50	2.00	1.75	2.75	3.75	1.50	3.00	-0.145020	0.041504	0.993164	-2.940000	-3.080000	1.540000	593.00	-0.05	-0.12
0.59	1.25	2.00	1.50	2.25	3.25	10.00	0.50	7.75	0.00	0.25	1.00	1.25	5.50	1.75	0.25	1.00	-0.196777	0.058105	0.954102	-6.300000	0.910000	-3.430000	440.00	-0.05	-0.24	2.75	3.50	4.00	5.50	7.50	8.25	1.00	5.00	1.50	1.50	2.00	1.75	3.00	4.00	1.75	2.75	-0.142578	0.041504	0.990723	-3.010000	-3.010000	1.680000	597.00	-0.05	-0.12
0.60	1.25	2.00	1.25	2.50	3.25	10.25	0.50	7.75	0.25	0.25	1.00	1.50	5.50	1.75	0.25	1.25	-0.197266	0.063477	0.959473	-7.000000	0.210000	-3.850000	450.00	-0.05	-0.24	2.50	3.25	4.00	5.00	7.25	8.00	1.00	4.75	1.50	1.75	2.00	1.75	3.00	4.00	1.50	2.75	-0.136719	0.044922	0.991699	-3.290000	-3.010000	1.750000	577.00	-0.04	-0.12
0.61	1.00	2.00	1.25	2.25	3.50	10.00	0.50	7.75	0.25	0.50	1.00	1.25	5.50	2.25	0.50	1.00	-0.196777	0.058105	0.955566	-7.840000	-0.700000	-3.920000	450.00	-0.04	-0.23	2.75	3.00	4.00	5.25	7.25	8.00	1.25	4.75	1.75	1.50	2.25	2.00	3.00	4.00	1.50	2.75	-0.142090	0.040527	0.992188	-3.430000	-3.010000	1.540000	590.00	-0.04	-0.11
0.62	1.25	2.00	1.75	2.50	3.50	10.25	0.50	7.75	0.50	0.25	1.00	1.50	5.50	2.25	0.25	1.25	-0.196777	0.054688	0.958984	-7.770000	-0.840000	-3.780000	465.00	-0.05	-0.22	2.50	3.00	4.00	4.75	7.25	8.00	1.25	4.50	1.75	1.50	2.00	1.75	2.75	4.25	1.50	2.75	-0.138672	0.039062	0.992188	-3.640000	-3.010000	1.470000	573.00	-0.04	-0.11
0.63	1.25	2.00	1.50	2.25	3.75	10.50	0.50	7.75	0.25	0.25	0.75	1.50	5.25	2.25	0.50	1.00	-0.193359	0.055664	0.959473	-7.280000	-0.560000	-3.430000	459.00	-0.05	-0.22	2.50	3.25	3.75	5.25	7.00	7.75	1.25	4.75	2.00	1.75	2.25	1.75	3.00	4.25	1.50	2.50	-0.134766	0.039062	0.993164	-3.920000	-2.870000	1.680000	586.00	-0.04	-0.11
0.64	1.25	2.00	1.75	2.75	4.00	10.25	0.50	7.50	0.50	0.25	1.00	1.50	5.50	2.50	0.50	1.25	-0.190918	0.053223	0.956543	-6.440000	0.070000	-3.290000	475.00	-0.04	-0.21	2.50	3.00	3.75	5.00	7.00	7.50	1.25	4.50	2.00	1.75	2.00	2.00	2.75	4.75	1.50	2.75	-0.145020	0.042480	0.987305	-4.060000	-2.730000	1.540000	578.00	-0.03	-0.10
0.65	1.25	2.00	1.75	2.50	4.00	10.50	0.50	7.50	0.00	0.50	1.00	1.50	5.50	2.00	0.50	1.25	-0.187988	0.052734	0.959961	-6.160000	0.490000	-3.150000	466.00	-0.05	-0.22	2.25	3.00	3.75	5.00	7.00	7.50	1.25	4.25	2.25	1.75	2.25	1.75	2.75	4.75	1.50	2.75	-0.141113	0.041504	0.987305	-3.990000	-2.800000	1.470000	574.00	-0.03	-0.10
0.66	1.50	2.25	2.00	2.75	4.25	10.25	0.50	7.50	0.25	0.25	1.00	1.50	5.75	2.25	0.50	1.25	-0.189941	0.052734	0.960449	-5.880000	0.700000	-3.080000	482.00	-0.05	-0.22	2.50	2.75	3.75	5.00	7.00	7.25	1.25	4.25	2.50	1.50	2.00	1.75	2.75	5.00	1.50	2.75	-0.140137	0.039062	0.985840	-3.850000	-2.590000	1.400000	572.00	-0.03	-0.10
0.67	1.25	2.50	2.00	3.00	4.75	10.25	0.50	7.50	0.25	0.50	1.00	1.25	5.75	2.25	0.50	1.25	-0.186035	0.054688	0.964355	-5.320000	0.980000	-2.870000	490.00	-0.05	-0.21	2.50	2.75	3.75	4.50	6.75	7.00	1.25	4.00	2.50	2.00	2.00	1.75	2.75	5.25	1.75	3.00	-0.142578	0.043457	0.988770	-3.640000	-2.450000	1.120000	569.00	-0.02	-0.09
0.68	1.00	2.25	1.75	3.00	4.75	10.25	0.50	7.50	0.25	0.50	1.00	1.50	5.50	2.75	0.50	1.25	-0.190918	0.055176	0.964355	-4.760000	1.470000	-2.730000	487.00	-0.04	-0.21	2.50	3.00	3.50	4.75	7.00	6.75	1.50	3.75	2.75	2.00	1.75	1.75	2.75	5.25	1.75	2.75	-0.146973	0.039551	0.985840	-3.430000	-2.380000	0.980000	570.00	-0.02	-0.08
0.69	1.25	2.50	2.00	2.75	4.75	10.00	0.50	7.50	0.25	0.50	1.00	1.50	5.50	2.50	0.50	1.25	-0.182617	0.052734	0.958008	-4.340000	3.010000	-2.730000	487.00	-0.05	-0.21	2.50	2.50	3.50	4.50	6.75	6.75	1.50	3.50	2.50	1.75	2.00	1.50	2.75	5.25	1.75	3.00	-0.142578	0.033691	0.989746	-3.430000	-3.150000	0.980000	552.00	-0.01	-0.08
0.70	1.50	2.00	2.00	2.75	4.75	10.00	0.50	7.25	0.25	0.25	1.00	1.50	5.50	2.75	0.50	1.25	-0.189941	0.058594	0.958984	-3.850000	4.130000	-2.590000	481.00	-0.05	-0.21	2.50	2.75	3.75	4.50	7.00	6.75	1.50	3.75	3.00	1.75	2.00	1.75	2.50	5.25	1.75	2.75	-0.140625	0.038086	0.989258	-3.290000	-3.570000	1.120000	569.00	-0.01	-0.08
0.71	1.25	2.25	1.75	2.75	5.00	9.75	0.50	7.25	0.50	0.25	1.25	1.75	5.50	3.00	0.50	1.25	-0.187012	0.053223	0.960449	-3.500000	4.830000	-2.520000	488.00	-0.04	-0.20	2.50	3.00	3.75	4.50	7.00	6.75	1.50	3.75	3.00	1.75	2.00	1.50	2.50	5.25	1.50	2.75	-0.142578	0.036133	0.987793	-3.290000	-3.920000	1.330000	566.00	-0.02	-0.08
0.72	1.25	2.50	2.00	2.50	4.75	9.50	0.50	7.00	0.25	0.25	1.00	1.50	5.50	3.00	0.50	1.25	-0.190918	0.052734	0.960449	-3.010000	5.670000	-2.380000	473.00	-0.04	-0.20	2.25	3.25	3.75	4.75	7.00	6.75	1.50	3.50	3.00	1.75	2.25	1.75	2.50	5.25	1.50	3.00	-0.146973	0.040527	0.985352	-3.080000	-4.340000	1.470000	571.00	-0.02	-0.08
0.73	1.50	2.25	2.00	2.50	4.75	9.50	0.50	7.00	0.50	0.00	1.00	1.50	5.25	3.00	0.75	1.25	-0.189453	0.049805	0.959961	-2.730000	6.370000	-2.170000	474.00	-0.04	-0.20	2.75	3.00	3.75	4.75	7.25	6.75	1.50	3.75	2.75	2.00	2.00	1.50	2.50	5.25	1.75	3.00	-0.140625	0.036133	0.989258	-2.730000	-4.690000	1.750000	578.00	-0.02	-0.08
0.74	1.25	2.00	1.75	2.50	4.50	9.00	0.50	6.75	0.50	0.50	1.00	1.50	5.25	3.00	0.50	1.25	-0.187988	0.048340	0.957520	-2.520000	6.860000	-2.100000	457.00	-0.04	-0.20	2.50	2.75	3.75	4.75	7.25	7.25	1.50	3.75	3.00	1.75	2.25	1.75	2.50	5.25	1.50	3.00	-0.143066	0.040527	0.992188	-2.450000	-4.900000	1.890000	581.00	-0.02	-0.08
0.75	1.25	2.25	1.75	2.25	4.50	9.00	0.50	6.75	0.75	0.25	1.00	1.50	5.50	2.75	0.50	1.25	-0.187988	0.054199	0.958496	-2.240000	7.070000	-2.030000	457.00	-0.04	-0.20	2.50	2.75	4.00	4.75	7.25	7.25	1.50	3.75	2.50	2.00	2.25	1.50	2.75	5.25	1.75	2.75	-0.142578	0.042480	0.987305	-2.380000	-4.970000	2.030000	581.00	-0.02	-0.08
0.76	1.25	2.00	1.75	2.00	4.50	8.75	0.50	6.50	0.50	0.25	1.25	1.50	5.25	3.00	0.50	1.25	-0.192871	0.051270	0.959473	-1.960000	7.770000	-1.960000	445.00	-0.03	-0.20	2.75	2.50	4.00	5.00	7.25	7.50	1.50	4.00	2.75	1.75	2.00	1.75	2.75	5.50	1.75	3.00	-0.137695	0.041504	0.985352	-2.380000	-5.250000	2.030000	595.00	-0.02	-0.09
0.77	1.00	2.25	1.75	2.25	4.25	8.50	0.50	6.50	0.75	0.50	1.00	1.25	5.25	2.75	0.50	1.25	-0.189941	0.050781	0.960449	-1.540000	9.380000	-1.680000	441.00	-0.03	-0.20	3.00	3.25	4.00	5.00	7.75	7.50	1.50	4.00	2.75	1.75	2.00	1.75	2.75	5.25	1.50	3.00	-0.140137	0.036621	0.985840	-2.170000	-5.460000	2.030000	605.00	-0.03	-0.09
0.78	1.00	1.75	1.75	1.75	4.25	8.25	0.50	6.25	0.25	0.50	1.25	1.25	5.00	2.75	0.75	1.00	-0.187500	0.052734	0.952148	-1.540000	9.870000	-1.750000	419.00	-0.03	-0.20	2.75	3.50	4.50	5.25	8.00	7.75	1.50	4.50	2.50	2.00	2.00	2.00	3.00	5.50	1.50	3.00	-0.142578	0.041992	0.991699	-1.960000	-5.810000	2.170000	632.00	-0.03	-0.09
0.79	1.00	1.75	1.75	2.00	4.00	7.75	0.50	6.00	0.25	0.75	1.25	1.00	5.00	2.75	0.25	1.00	-0.190430	0.050781	0.954590	-1.680000	10.710000	-1.680000	405.00	-0.03	-0.20	3.00	3.50	4.50	5.50	8.00	8.25	1.50	4.75	2.25	2.00	2.25	1.50	3.25	5.25	1.75	3.00	-0.141602	0.042480	0.989746	-1.540000	-5.950000	2.310000	644.00	-0.04	-0.10
0.80	1.00	1.50	1.50	1.50	4.00	7.50	0.50	5.75	0.75	0.50	1.00	1.50	4.75	2.75	0.25	0.75	-0.191406	0.052734	0.958496	-1.750000	11.340000	-1.820000	391.00	-0.02	-0.19	2.75	3.25	4.75	5.50	8.25	8.50	1.50	5.00	2.25	1.75	2.25	2.00	3.25	5.25	1.50	3.00	-0.137207	0.035156	0.989746	-1.260000	-6.160000	2.520000	651.00	-0.03	-0.10
0.81	0.75	1.50	1.50	1.50	3.75	7.00	0.50	5.50	0.50	0.75	1.25	1.25	4.75	3.00	0.50	1.00	-0.194336	0.050293	0.962402	-1.260000	12.390000	-1.960000	381.00	-0.01	-0.19	3.25	3.75	5.00	5.75	8.50	9.00	1.50	5.50	1.75	1.50	2.25	1.75	3.25	5.00	1.50	2.75	-0.137695	0.040527	0.991211	-0.980000	-5.950000	2.730000	667.00	-0.05	-0.11
0.82	1.00	1.75	1.25	1.50	3.50	6.75	0.50	5.25	0.25	0.50	1.00	1.00	4.50	3.00	0.25	0.75	-0.193848	0.045898	0.958496	-0.630000	13.090000	-2.100000	357.00	-0.03	-0.19	3.00	3.75	5.00	6.00	8.50	9.25	1.50	5.50	1.75	1.50	2.25	2.00	3.50	5.00	1.50	3.00	-0.139648	0.042969	0.986328	-0.770000	-5.950000	2.730000	676.00	-0.05	-0.11
0.83	0.75	1.50	1.25	1.00	3.50	6.25	0.50	5.00	0.50	0.50	1.00	1.25	4.00	3.00	0.25	0.75	-0.194824	0.046387	0.957520	0.070000	13.790000	-2.170000	339.00	-0.01	-0.19	3.25	3.50	5.25	6.50	8.75	9.75	1.50	6.00	1.50	1.50	2.00	2.25	3.50	5.00	1.75	3.00	-0.135742	0.039551	0.989258	-0.560000	-5.600000	2.730000	699.00	-0.05	-0.12
0.84	1.00	1.25	1.25	1.25	3.25	5.75	0.50	4.50	0.50	0.75	1.25	1.25	3.50	2.75	0.25	0.75	-0.193359	0.048340	0.948730	0.700000	14.280000	-2.240000	325.00	-0.01	-0.18	3.75	3.75	5.25	6.50	8.75	10.25	1.25	6.00	1.50	1.50	2.25	1.75	3.75	5.00	1.75	2.75	-0.140625	0.040039	0.990234	-0.280000	-5.250000	2.660000	707.00	-0.06	-0.12
0.85	1.00	1.50	1.25	1.00	3.25	5.50	0.50	4.25	0.75	0.25	1.25	1.00	3.50	2.75	0.25	0.50	-0.198730	0.051758	0.958496	1.120000	14.700000	-2.240000	312.00	-0.02	-0.17	4.00	4.50	5.75	7.00	8.75	11.00	1.25	6.25	1.25	1.50	2.00	2.00	3.75	4.75	1.50	3.00	-0.136230	0.045898	0.991699	-0.000000	-4.690000	2.940000	733.00	-0.07	-0.12
0.86	1.00	1.50	1.25	1.00	3.00	5.25	0.50	3.75	0.75	0.50	1.00	1.00	3.25	3.00	0.25	0.50	-0.204590	0.052734	0.956543	1.050000	14.630000	-2.100000	299.00	-0.01	-0.16	4.00	4.50	6.00	7.25	8.75	11.25	1.25	6.50	1.25	1.25	2.00	2.00	3.75	4.25	1.75	3.00	-0.142090	0.041992	0.989746	0.350000	-4.200000	3.150000	740.00	-0.07	-0.13
0.87	0.75	1.50	1.25	1.25	3.00	4.75	0.50	3.50	0.25	0.75	0.75	1.00	2.75	2.25	0.50	0.50	-0.203613	0.050781	0.959473	0.980000	14.770000	-2.030000	275.00	-0.02	-0.17	4.00	4.75	6.00	7.50	8.75	11.75	1.25	6.75	1.00	1.25	2.25	1.75	4.00	4.00	1.75	2.75	-0.136230	0.040039	0.983887	0.490000	-3.990000	3.150000	750.00	-0.08	-0.13
0.88	1.00	1.50	1.25	0.75	2.75	4.50	0.50	3.00	0.00	0.50	1.00	1.00	2.50	2.75	0.25	0.25	-0.205566	0.052246	0.956055	1.260000	14.910000	-1.890000	254.00	-0.03	-0.16	4.25	5.00	6.50	8.00	8.75	12.25	1.25	7.00	1.25	1.25	2.00	2.00	3.75	4.00	1.50	2.75	-0.137207	0.038574	0.990723	0.630000	-3.850000	3.150000	774.00	-0.08	-0.13
0.89	1.00	1.25	1.25	1.00	2.75	4.25	0.50	2.75	0.50	0.25	0.75	1.00	2.75	2.25	0.25	0.25	-0.210938	0.056152	0.957520	1.330000	14.980000	-1.680000	247.00	-0.03	-0.15	4.50	5.25	6.50	8.25	8.75	12.75	1.25	7.25	1.00	1.25	2.00	2.00	4.00	3.75	1.50	2.75	-0.135254	0.045410	0.991211	0.560000	-3.570000	3.080000	787.00	-0.09	-0.14
0.90	0.75	1.00	1.25	0.75	2.75	3.75	0.50	2.50	0.50	0.25	0.75	0.75	2.25	2.25	0.25	0.25	-0.213379	0.057617	0.953125	1.400000	15.400000	-1.610000	223.00	-0.02	-0.14	5.00	5.25	7.00	8.75	8.75	13.00	1.00	7.50	1.00	1.25	2.00	2.00	4.00	3.75	1.75	2.50	-0.134766	0.046875	0.984375	0.490000	-3.570000	3.080000	808.00	-0.09	-0.14
0.91	1.00	1.00	1.25	0.75	2.75	3.50	0.50	2.25	0.75	0.25	0.75	0.75	2.25	2.50	0.25	0.25	-0.206543	0.056152	0.945312	1.680000	15.470000	-1.610000	225.00	-0.01	-0.12	5.00	5.25	7.00	8.75	8.50	13.50	1.00	7.50	0.75	1.00	1.75	2.00	4.25	3.50	1.50	2.75	-0.134766	0.044922	0.988770	0.280000	-3.780000	3.080000	801.00	-0.10	-0.14
0.92	1.00	1.50	1.50	1.00	2.75	3.50	0.50	2.25	0.00	0.25	0.50	0.75	2.00	2.00	0.00	0.25	-0.211914	0.048340	0.952637	1.820000	15.050000	-1.260000	213.00	-0.06	-0.14	5.25	5.50	7.50	9.25	8.50	14.00	1.00	7.75	0.75	1.00	1.75	2.25	4.25	3.75	1.50	2.75	-0.135254	0.045898	0.991211	-0.140000	-3.920000	2.940000	831.00	-0.10	-0.14
0.93	1.00	1.50	1.25	1.00	2.75	3.25	0.50	2.00	0.50	0.25	0.50	0.75	1.75	2.25	0.00	0.25	-0.211914	0.058594	0.957520	2.450000	14.910000	-1.050000	211.00	-0.05	-0.12	5.50	5.50	7.25	9.50	8.50	14.50	1.00	7.75	0.75	1.00	1.75	2.00	4.25	3.25	1.25	2.75	-0.133301	0.047363	0.989258	-0.210000	-3.780000	2.940000	829.00	-0.11	-0.15
0.94	0.75	1.50	1.25	1.00	2.75	3.00	0.50	1.75	0.00	0.25	0.75	0.75	1.75	2.25	0.25	0.25	-0.209961	0.056641	0.956055	3.220000	14.000000	-0.770000	200.00	-0.04	-0.13	5.75	5.50	7.25	9.75	8.50	14.75	1.00	7.75	0.50	1.00	1.75	2.00	4.50	3.25	1.25	2.75	-0.131348	0.046387	0.992676	-0.210000	-3.500000	2.940000	836.00	-0.11	-0.15
0.95	1.00	1.50	1.50	1.00	2.75	3.00	0.50	1.75	0.25	0.50	0.50	0.50	1.75	1.75	0.25	0.25	-0.214355	0.052734	0.955566	3.500000	12.390000	-0.630000	202.00	-0.06	-0.12	5.75	5.50	7.25	9.75	8.50	15.00	1.00	8.00	0.75	0.75	1.75	2.00	4.75	3.25	1.25	2.75	-0.135742	0.044922	0.995605	-0.140000	-3.290000	2.940000	845.00	-0.11	-0.15
0.96	1.25	1.50	1.75	1.00	3.00	3.00	0.50	1.75	0.25	0.25	0.50	0.50	1.50	2.00	0.25	0.25	-0.215332	0.055176	0.958008	3.920000	11.480000	-0.350000	207.00	-0.07	-0.11	6.00	6.25	7.50	9.75	8.25	15.25	1.00	8.00	0.50	0.75	1.75	2.25	4.75	3.25	1.25	2.50	-0.139648	0.046387	0.991699	-0.000000	-3.080000	3.080000	856.00	-0.11	-0.15
0.97	1.25	1.75	1.75	1.25	2.75	3.00	0.50	1.75	0.25	0.25	0.50	0.25	1.50	2.25	0.25	0.25	-0.210938	0.053711	0.953613	4.340000	10.920000	-0.280000	209.00	-0.07	-0.10	6.25	6.25	7.50	10.00	8.25	15.50	1.00	8.25	0.25	1.00	1.75	2.00	4.75	2.75	1.25	2.75	-0.141602	0.043945	0.986328	-0.000000	-2.800000	3.010000	861.00	-0.12	-0.15
0.98	1.00	1.75	1.50	1.50	2.75	3.00	0.50	1.75	0.25	0.00	0.50	0.25	1.50	2.00	0.00	0.00	-0.218750	0.060059	0.948730	4.410000	10.430000	-0.070000	198.00	-0.08	-0.12	6.00	6.50	7.25	10.00	8.25	15.75	1.00	8.25	0.75	0.75	1.75	2.00	4.75	3.00	1.25	2.75	-0.130859	0.045410	0.989258	0.140000	-2.590000	3.010000	867.00	-0.11	-0.15
0.99	1.25	1.50	1.50	1.50	2.75	3.00	0.50	1.75	0.25	0.00	0.50	0.50	1.50	1.75	0.00	0.25	-0.218750	0.064453	0.953125	4.340000	9.590000	0.140000	200.00	-0.08	-0.12	6.25	6.25	7.75	10.25	8.00	15.75	1.00	8.25	0.50	0.75	1.75	2.00	4.50	3.00	1.00	2.75	-0.133789	0.046387	0.992676	0.210000	-2.310000	3.220000	865.00	-0.12	-0.15
1.00	1.25	2.00	1.75	1.50	2.75	3.00	0.50	1.75	0.00	0.00	0.50	0.50	1.50	1.75	0.25	0.25	-0.211426	0.069824	0.950684	3.780000	9.100000	0.140000	207.00	-0.09	-0.12	6.25	6.75	7.50	10.25	8.00	16.00	1.00	8.50	0.50	1.00	1.75	2.00	5.00	2.75	1.25	2.50	-0.139160	0.045410	0.985352	0.490000	-1.890000	3.570000	879.00	-0.12	-0.16
1.01	1.50	1.75	1.75	1.50	2.75	3.00	0.50	1.75	0.25	0.00	0.25	0.50	1.50	1.75	0.00	0.00	-0.210449	0.062988	0.947266	2.450000	7.980000	0.140000	204.00	-0.10	-0.11	6.25	6.75	7.50	10.25	7.75	16.25	0.75	8.50	0.25	0.75	1.50	2.00	4.75	3.00	1.25	2.50	-0.137207	0.048340	0.991699	0.770000	-1.260000	3.780000	867.00	-0.12	-0.16
1.02	1.25	2.00	1.75	1.75	3.00	3.00	0.50	1.75	0.25	0.00	0.25	0.25	1.25	1.75	0.25	0.25	-0.215332	0.057617	0.950195	1.120000	6.930000	0.210000	208.00	-0.10	-0.11	6.50	6.75	7.25	10.50	7.75	16.25	1.00	8.50	0.50	0.50	1.75	2.00	4.50	2.75	1.00	2.50	-0.142090	0.053223	0.991211	0.770000	-0.630000	3.990000	870.00	-0.12	-0.16
1.03	1.50	2.00	1.75	1.75	3.00	3.25	0.50	1.75	0.00	0.25	0.25	0.25	1.25	1.75	0.00	0.25	-0.213867	0.063965	0.949707	-0.140000	5.880000	0.280000	210.00	-0.11	-0.11	6.25	6.75	7.25	10.25	7.50	16.25	1.00	8.50	0.25	0.50	1.50	2.00	4.50	2.25	1.25	2.25	-0.135742	0.048828	0.990234	0.560000	-0.210000	4.270000	853.00	-0.13	-0.16
1.04	1.25	2.25	2.00	2.00	3.00	3.50	0.50	1.75	0.00	0.00	0.50	0.25	1.25	1.50	0.25	0.00	-0.214844	0.065918	0.945312	-1.680000	4.900000	0.350000	217.00	-0.12	-0.12	6.25	6.50	7.25	10.25	7.25	16.00	0.75	8.50	0.25	0.50	1.50	2.00	4.50	2.50	1.00	2.25	-0.130859	0.051758	0.990234	0.770000	0.280000	4.340000	841.00	-0.13	-0.16
1.05	1.75	2.25	2.00	2.00	3.00	3.75	0.50	1.75	0.00	0.00	0.25	0.25	1.50	1.25	0.00	0.25	-0.220703	0.061035	0.949707	-2.240000	3.570000	0.490000	221.00	-0.14	-0.13	6.25	6.75	6.75	10.25	7.00	16.00	0.75	8.50	0.00	0.75	1.50	2.00	4.50	2.25	1.00	2.25	-0.134766	0.045898	0.986328	0.490000	0.980000	4.340000	832.00	-0.13	-0.17
1.06	1.25	2.75	2.25	2.50	3.00	4.00	0.50	2.00	0.25	0.00	0.25	0.50	1.50	1.75	0.00	0.25	-0.215332	0.062988	0.951172	-2.870000	2.520000	0.490000	246.00	-0.12	-0.13	6.00	6.50	6.75	10.00	6.75	15.75	0.75	8.25	0.25	0.50	1.50	2.00	4.25	2.50	0.75	2.25	-0.134766	0.050781	0.985840	0.350000	1.610000	4.410000	813.00	-0.13	-0.17
1.07	2.25	2.50	2.50	2.75	3.25	4.75	0.50	2.25	0.25	0.00	0.25	0.25	1.75	1.25	0.25	0.25	-0.217285	0.058105	0.944824	-3.850000	0.140000	0.560000	272.00	-0.14	-0.13	5.75	6.50	6.50	9.75	6.50	15.50	0.75	8.25	0.25	0.50	1.50	1.75	4.50	2.00	1.00	2.00	-0.137207	0.052734	0.989258	0.350000	2.100000	4.340000	796.00	-0.13	-0.17
1.08	2.00	2.50	2.75	3.25	3.50	5.00	0.50	2.50	0.00	0.25	0.25	0.50	1.50	1.25	0.00	0.50	-0.207031	0.067383	0.947754	-5.880000	-2.870000	0.280000	285.00	-0.14	-0.14	5.50	6.00	6.00	9.50	6.00	15.25	0.75	8.25	0.00	0.50	1.25	1.75	3.75	2.25	1.00	2.00	-0.138672	0.051758	0.988281	0.350000	2.870000	4.270000	762.00	-0.13	-0.17
1.09	2.75	3.25	2.75	3.75	4.00	6.25	0.50	2.75	0.00	0.25	0.25	0.25	1.75	1.50	0.25	0.50	-0.208008	0.060059	0.950195	-6.720000	-5.320000	-0.070000	333.00	-0.14	-0.14	5.00	5.75	5.25	9.00	5.75	14.75	0.75	8.00	0.50	0.50	1.25	1.75	3.75	2.00	0.75	2.00	-0.131348	0.046875	0.991699	0.700000	5.390000	4.270000	730.00	-0.12	-0.17
1.10	2.50	4.25	3.25	4.75	4.50	7.50	0.50	3.75	0.25	0.00	0.50	0.75	2.25	1.25	0.00	0.25	-0.208008	0.060059	0.947754	-7.840000	-7.560000	-0.280000	397.00	-0.15	-0.15	4.50	5.50	4.50	8.50	5.25	14.25	0.75	8.00	0.25	0.50	1.50	1.50	3.75	2.25	1.00	2.00	-0.133301	0.055176	0.982422	1.400000	6.720000	3.920000	700.00	-0.12	-0.18
1.11	3.25	4.25	3.75	5.00	5.00	8.25	0.50	4.50	0.25	0.00	0.50	0.75	2.25	1.75	0.00	0.50	-0.207031	0.059570	0.955566	-8.750000	-8.750000	-0.350000	444.00	-0.14	-0.15	3.75	5.00	4.25	7.75	4.75	13.50	0.75	7.75	0.25	0.25	1.25	1.75	4.00	2.25	1.00	2.00	-0.125977	0.048340	0.986816	2.170000	8.120000	3.780000	658.00	-0.11	-0.18
1.12	3.75	4.75	4.50	5.50	5.50	9.25	0.50	5.00	0.00	0.00	0.50	0.75	2.50	1.50	0.25	0.75	-0.210938	0.059570	0.961426	-8.120000	-8.260000	-0.560000	492.00	-0.15	-0.15	3.00	4.00	3.50	6.75	4.00	12.50	0.75	7.75	0.25	0.50	1.25	1.50	3.75	2.00	0.75	1.75	-0.138184	0.050293	0.988770	1.750000	8.890000	3.220000	595.00	-0.10	-0.19
1.13	4.00	5.00	4.50	7.00	6.00	10.50	0.50	5.50	0.50	0.25	0.75	0.75	2.75	1.75	0.25	0.50	-0.204590	0.061035	0.962402	-6.440000	-7.210000	-0.420000	555.00	-0.14	-0.15	2.50	3.00	3.00	6.00	3.25	11.25	0.75	7.50	0.25	0.25	1.25	1.50	3.50	1.75	0.75	1.75	-0.163086	0.052734	0.978027	0.770000	9.730000	2.310000	534.00	-0.09	-0.20
1.14	5.00	5.75	5.75	8.00	6.25	12.00	0.50	5.75	0.00	0.00	0.75	1.00	3.00	1.75	0.25	0.75	-0.202148	0.058105	0.954590	-4.760000	-5.530000	-0.280000	617.00	-0.16	-0.16	2.25	2.75	2.50	5.25	2.50	9.75	0.75	6.75	0.25	0.50	1.25	1.75	3.25	1.75	1.00	1.50	-0.145996	0.047852	0.986816	0.840000	11.340000	1.750000	483.00	-0.08	-0.20
1.15	6.50	6.25	6.50	9.00	6.75	13.50	0.50	6.25	0.00	0.25	0.75	1.00	3.25	1.75	0.25	0.75	-0.196777	0.057129	0.960449	-3.920000	-4.270000	-0.350000	691.00	-0.16	-0.15	1.75	2.50	1.50	4.25	1.75	8.50	0.75	6.25	0.25	0.50	1.00	1.50	3.25	2.00	0.75	1.75	-0.154297	0.043457	0.986816	0.420000	12.740000	0.840000	420.00	-0.06	-0.21
1.16	7.00	7.00	7.00	9.75	7.00	15.00	0.50	6.75	0.00	0.25	0.50	0.75	3.75	2.00	0.00	0.75	-0.191895	0.055176	0.959473	-4.130000	-3.710000	-0.490000	742.00	-0.17	-0.15	1.75	1.50	1.50	3.50	1.50	7.00	0.50	5.50	0.25	0.50	1.50	1.50	3.00	1.75	0.75	1.25	-0.159668	0.050781	0.970215	-2.240000	12.600000	-0.140000	367.00	-0.05	-0.21
1.17	7.75	7.75	7.50	10.50	7.25	16.50	0.50	7.00	0.50	0.25	0.75	1.00	4.00	1.50	0.50	0.75	-0.194824	0.056152	0.955078	-4.130000	-3.500000	-0.560000	808.00	-0.17	-0.15	1.50	1.50	1.25	3.00	1.00	5.75	0.50	4.50	0.00	0.50	1.25	1.75	3.00	2.00	0.75	1.00	-0.130859	0.082031	1.046387	-10.080000	14.980000	-3.220000	319.00	-0.04	-0.21
1.18	8.50	8.50	8.25	11.50	7.75	17.75	0.50	7.50	0.25	0.25	0.75	1.00	4.00	2.00	0.50	1.00	-0.195801	0.056641	0.957031	-4.060000	-3.290000	-0.980000	871.00	-0.17	-0.15	0.50	1.50	1.25	3.25	0.75	5.00	0.50	3.25	0.00	0.50	1.00	1.00	2.50	2.00	0.50	1.00	-0.123047	0.098145	1.072266	21.350000	67.550003	-6.860000	264.00	-0.04	-0.20
1.19	9.25	9.25	8.50	12.50	8.00	18.75	0.50	8.00	0.00	0.00	0.75	1.25	4.50	1.75	0.25	0.75	-0.191895	0.054688	0.956543	-3.640000	-2.660000	-1.120000	916.00	-0.18	-0.16	0.75	1.50	1.00	2.75	0.75	4.00	0.25	2.50	0.25	0.50	1.25	1.00	2.50	2.00	0.75	1.00	-0.192383	0.023926	0.993652	39.900002	103.250000	-11.830000	241.00	-0.02	-0.19
1.20	9.75	10.25	8.75	13.25	8.25	19.75	0.50	8.25	0.25	0.25	0.75	1.25	5.00	1.75	0.50	1.00	-0.192871	0.056152	0.958984	-2.730000	-1.400000	-1.050000	973.00	-0.17	-0.16	1.00	1.25	0.75	2.00	0.50	2.75	0.25	1.75	0.00	0.00	0.50	1.25	2.00	1.75	0.75	1.00	-0.175293	0.137695	1.187500	41.439999	134.539993	-17.290001	182.00	-0.03	-0.19
1.21	10.25	11.00	9.00	14.50	8.50	20.75	0.50	8.50	0.00	0.00	0.75	1.00	5.25	1.75	0.25	1.00	-0.185059	0.057617	0.954102	-1.820000	0.770000	-1.050000	1010.00	-0.18	-0.16	0.75	1.00	0.75	2.00	0.75	2.50	0.25	1.50	0.00	0.00	0.50	0.75	1.50	1.50	0.25	1.00	-0.176758	0.160645	1.274414	34.230000	162.820007	-26.880001	156.00	-0.05	-0.18
1.22	11.25	11.50	9.00	14.75	8.50	21.50	0.50	8.75	0.25	0.00	0.50	1.50	5.25	2.00	0.25	1.00	-0.178223	0.058105	0.956055	-1.890000	0.980000	-0.980000	1047.00	-0.18	-0.16	0.75	1.25	0.75	1.75	0.50	2.25	0.00	1.25	0.00	0.00	0.75	0.75	1.25	1.50	0.50	0.75	-0.182129	0.173828	1.541016	23.379999	164.639999	-36.119999	145.00	-0.04	-0.18
1.23	11.75	12.25	9.50	15.25	8.75	22.25	0.50	9.00	0.25	0.50	1.00	1.25	5.50	2.00	0.25	1.00	-0.184082	0.050781	0.956055	-2.520000	0.770000	-1.260000	1095.00	-0.18	-0.16	1.00	1.25	0.75	2.00	0.50	1.75	0.00	1.00	0.00	0.25	0.50	0.75	1.25	1.50	0.25	0.75	-0.105469	0.265625	1.253906	24.219999	160.580002	-46.060001	138.00	-0.06	-0.17
1.24	12.00	12.00	9.50	15.75	9.00	22.75	0.50	9.25	0.00	0.00	0.75	1.50	5.50	2.25	0.50	1.00	-0.190918	0.053711	0.954590	-3.290000	0.490000	-1.470000	1109.00	-0.18	-0.16	0.75	1.00	1.00	1.75	0.50	1.75	0.00	1.00	0.00	0.00	0.75	0.50	0.75	1.50	0.50	0.75	-0.020996	0.230469	1.339355	34.790001	147.699997	-57.470001	129.00	-0.05	-0.15
1.25	11.50	12.75	9.75	16.00	9.25	23.00	0.50	9.50	0.25	0.00	0.75	1.50	5.75	2.25	0.50	1.00	-0.181152	0.054688	0.960938	-3.710000	0.560000	-1.330000	1131.00	-0.18	-0.16	0.75	1.00	0.50	1.75	0.50	1.25	0.25	1.00	0.00	0.00	0.50	0.50	1.00	1.00	0.25	0.50	0.421387	0.083496	1.423828	44.029999	133.839996	-67.059998	113.00	-0.06	-0.17
1.26	12.50	13.00	10.00	16.25	9.25	23.50	0.50	9.50	0.25	0.25	1.00	1.50	5.75	2.25	0.50	1.25	-0.185059	0.052246	0.956055	-3.990000	0.630000	-1.540000	1161.00	-0.18	-0.16	0.75	1.00	0.75	1.50	0.50	1.25	0.00	1.00	0.00	0.00	0.25	0.25	1.00	1.50	0.50	0.50	0.713379	0.135742	1.528320	42.560001	115.709999	-67.340004	111.00	-0.05	-0.15
1.27	12.25	12.75	10.00	16.00	9.50	23.50	0.75	9.75	0.00	0.50	0.75	1.50	6.00	2.75	0.50	1.00	-0.176758	0.053711	0.956543	-4.200000	1.120000	-1.750000	1166.00	-0.18	-0.16	0.75	1.00	0.50	1.50	0.75	1.50	0.25	1.00	0.00	0.00	0.50	0.00	0.75	1.00	0.25	0.50	0.853027	0.384766	1.524414	37.380001	79.590004	-57.610001	108.00	-0.08	-0.15
1.28	12.75	12.75	10.00	16.00	9.75	23.75	0.50	9.75	0.00	0.25	1.00	1.50	6.00	2.50	0.50	1.00	-0.180664	0.053711	0.956543	-4.200000	0.630000	-1.750000	1171.00	-0.18	-0.16	1.00	1.25	0.50	1.50	0.50	1.00	0.25	0.75	0.00	0.00	0.25	0.00	0.50	0.75	0.00	0.50	0.943848	0.205078	1.370117	26.809999	41.930000	-46.270000	92.00	-0.14	-0.13
1.29	12.25	12.50	10.00	15.75	10.00	23.50	0.75	9.75	0.25	0.25	1.25	1.50	6.00	2.50	0.50	1.00	-0.179688	0.056641	0.957031	-4.410000	0.420000	-1.960000	1170.00	-0.17	-0.15	0.75	1.00	0.75	1.75	0.50	1.00	0.25	0.75	0.00	0.00	0.00	0.00	0.75	1.25	0.00	0.25	0.838867	0.302734	1.074219	-18.549999	-17.710001	-13.510000	95.00	-0.12	-0.13
1.30	11.75	12.00	10.00	15.25	10.00	23.25	0.50	9.75	0.00	0.25	1.25	2.00	6.00	2.50	0.50	1.00	-0.181152	0.053711	0.958008	-4.620000	0.350000	-2.100000	1150.00	-0.17	-0.16	0.75	1.00	0.75	1.50	0.50	1.00	0.25	0.75	0.00	0.00	0.25	0.25	0.50	1.25	0.25	0.50	0.791992	0.313965	0.877441	-12.740000	-30.240000	-0.980000	99.00	-0.08	-0.12
1.31	11.75	11.75	9.75	15.00	10.50	23.00	0.75	9.75	0.00	0.25	1.00	1.50	6.25	2.75	0.75	1.25	-0.178711	0.051758	0.958496	-4.900000	0.420000	-2.310000	1149.00	-0.17	-0.15	0.75	0.75	0.75	1.00	0.50	1.00	0.25	1.00	0.00	0.00	0.25	0.00	0.50	1.25	0.50	0.50	0.753906	0.252441	0.912598	0.700000	-38.990002	6.020000	95.00	-0.05	-0.12
1.32	11.25	11.25	10.25	14.50	10.75	22.75	0.75	9.75	0.25	0.50	1.25	1.75	6.00	3.25	0.50	1.25	-0.179199	0.053223	0.959961	-5.390000	0.420000	-2.590000	1150.00	-0.16	-0.15	0.75	1.00	0.50	1.50	0.25	0.75	0.25	1.00	0.00	0.00	0.25	0.00	0.75	1.00	0.25	0.50	0.757812	0.157715	0.975586	9.310000	-49.490002	10.500000	92.00	-0.08	-0.15
1.33	10.75	10.75	10.00	14.00	11.00	22.50	0.75	9.50	0.25	0.50	1.25	1.75	6.00	3.25	0.50	1.25	-0.175293	0.050293	0.958984	-5.670000	0.070000	-2.730000	1129.00	-0.16	-0.15	0.50	0.75	0.50	1.00	0.50	1.00	0.25	0.75	0.00	0.00	0.00	0.00	0.25	1.00	0.25	0.25	0.728516	0.100098	1.012207	9.310000	-62.580002	13.650000	75.00	-0.08	-0.12
1.34	10.00	10.00	10.00	13.75	11.50	22.00	0.75	9.50	0.50	0.50	1.25	2.00	6.00	3.50	0.75	1.25	-0.172852	0.052246	0.963379	-6.090000	-0.280000	-2.940000	1122.00	-0.15	-0.15	0.75	1.00	0.50	1.25	0.50	0.75	0.25	1.00	0.00	0.00	0.25	0.00	0.50	1.25	0.25	0.50	0.659180	0.065430	0.997559	7.140000	-75.250000	14.630000	92.00	-0.07	-0.13
1.35	9.75	9.50	10.00	13.00	11.75	21.50	0.75	9.25	0.50	0.50	1.25	1.75	6.00	4.00	0.50	1.50	-0.176758	0.052734	0.962402	-6.370000	-0.280000	-3.080000	1100.00	-0.15	-0.15	0.75	1.00	0.75	1.00	0.50	0.75	0.25	0.75	0.00	0.00	0.25	0.00	0.50	0.75	0.25	0.50	0.581055	0.034668	0.976074	6.650000	-85.540001	13.160000	84.00	-0.10	-0.12
1.36	9.50	9.00	9.75	12.50	12.25	21.00	0.75	9.00	0.50	0.75	1.50	1.75	6.00	4.25	0.50	1.50	-0.171387	0.048828	0.964844	-6.790000	-0.070000	-3.150000	1088.00	-0.14	-0.14	0.75	0.75	0.75	1.25	0.25	1.00	0.25	0.75	0.00	0.00	0.50	0.25	0.50	1.00	0.25	0.50	0.498535	0.000488	0.987305	5.180000	-92.540001	9.380000	92.00	-0.07	-0.13
1.37	9.00	8.75	10.00	11.75	12.50	20.50	0.75	9.00	0.75	1.00	1.50	2.00	6.00	4.25	0.75	1.50	-0.173828	0.049805	0.958008	-7.350000	-0.070000	-3.080000	1084.00	-0.14	-0.14	0.75	0.25	0.75	1.25	0.50	0.75	0.25	0.75	0.00	0.00	0.25	0.00	0.50	1.00	0.00	0.25	0.419922	-0.026367	1.034668	1.330000	-97.650002	4.340000	78.00	-0.09	-0.11
1.38	8.75	8.25	10.00	11.25	13.25	19.75	1.00	8.75	1.25	1.00	1.75	1.75	5.75	5.00	0.75	1.50	-0.173340	0.049316	0.963867	-7.700000	0.210000	-3.010000	1082.00	-0.13	-0.13	0.75	0.75	0.50	0.50	0.25	0.75	0.25	0.75	0.00	0.00	0.25	0.00	1.00	1.00	0.00	0.25	0.332031	-0.020508	1.101562	-3.010000	-102.480003	-0.840000	73.00	-0.06	-0.14
1.39	8.50	8.00	9.75	10.50	13.50	19.25	1.00	8.50	0.75	1.00	1.75	2.00	5.75	5.00	0.75	1.25	-0.179688	0.039551	0.952148	-7.840000	0.770000	-3.010000	1054.00	-0.13	-0.13	0.25	0.50	0.50	0.75	0.25	0.75	0.25	0.50	0.00	0.00	0.25	0.00	0.50	1.00	0.25	0.25	0.239746	-0.016602	1.114746	-6.930000	-107.099998	-6.230000	63.00	-0.03	-0.12
1.40	8.25	7.75	9.75	10.00	14.25	18.75	1.00	8.50	1.50	1.25	1.75	2.00	5.75	5.25	0.75	1.50	-0.171875	0.044434	0.965332	-7.630000	1.260000	-2.940000	1063.00	-0.12	-0.12	0.75	0.50	0.50	0.75	0.25	1.00	0.25	0.75	0.00	0.00	0.25	0.00	0.50	1.00	0.25	0.25	0.144531	-0.006348	1.120605	-9.940000	-109.760002	-11.830000	74.00	-0.06	-0.12
1.41	7.50	7.50	9.75	9.50	14.75	18.00	1.00	8.25	1.50	1.50	2.00	2.00	5.75	5.50	1.00	1.50	-0.174316	0.041992	0.965820	-7.350000	1.680000	-2.730000	1051.00	-0.11	-0.12	0.50	0.75	0.50	1.00	0.50	0.75	0.25	0.75	0.00	0.00	0.00	0.00	0.50	1.00	0.50	0.25	0.054688	0.024902	1.136719	-11.130000	-109.760002	-17.150000	77.00	-0.06	-0.12
1.42	7.25	7.00	9.50	9.00	15.00	17.75	1.25	8.00	1.75	1.75	2.00	2.25	5.50	5.50	1.25	1.75	-0.167969	0.038086	0.958984	-6.370000	2.310000	-2.380000	1046.00	-0.10	-0.12	0.75	0.75	0.50	0.75	0.25	1.00	0.25	0.75	0.00	0.00	0.25	0.00	0.50	1.00	0.25	0.50	-0.033203	0.048828	1.127441	-10.150000	-107.239998	-21.559999	78.00	-0.06	-0.13
1.43	7.25	6.75	9.75	8.75	15.50	17.25	1.25	8.00	2.25	2.00	2.00	2.25	5.50	5.75	1.00	1.75	-0.170410	0.043945	0.964355	-5.810000	2.590000	-2.170000	1052.00	-0.10	-0.11	0.75	0.50	0.50	0.50	0.50	1.00	0.25	0.75	0.00	0.00	0.00	0.00	0.25	1.00	0.25	0.25	-0.113281	0.070801	1.157715	-9.380000	-103.180000	-24.780001	70.00	-0.07	-0.10
1.44	7.00	6.75	9.50	8.75	15.75	16.75	1.25	8.00	2.50	2.00	2.25	2.25	5.50	5.75	1.25	1.75	-0.167969	0.040039	0.964844	-4.970000	2.800000	-2.030000	1052.00	-0.09	-0.11	0.75	0.75	0.25	0.50	0.25	1.00	0.25	0.50	0.00	0.00	0.25	0.00	0.50	1.00	0.25	0.25	-0.184082	0.096680	1.199707	-9.310000	-98.489998	-26.389999	67.00	-0.06	-0.11
1.45	6.50	6.50	9.25	8.50	16.00	16.50	1.50	7.75	3.00	2.25	2.50	2.25	5.50	5.75	1.00	1.75	-0.168945	0.035645	0.962402	-4.200000	2.870000	-1.750000	1049.00	-0.09	-0.10	0.75	1.00	0.50	1.00	0.25	1.00	0.25	0.75	0.00	0.00	0.25	0.00	0.75	1.00	0.25	0.25	-0.246094	0.139160	1.216309	-7.770000	-93.800003	-25.969999	84.00	-0.08	-0.14
1.46	6.25	6.25	9.50	8.25	16.00	16.50	1.50	7.75	3.25	2.50	2.50	2.25	5.50	5.75	1.25	1.75	-0.164551	0.036133	0.962891	-3.500000	2.940000	-1.400000	1052.00	-0.08	-0.10	0.75	0.00	0.25	1.00	0.25	1.00	0.25	0.75	0.00	0.00	0.25	0.00	0.50	1.00	0.50	0.25	-0.280762	0.175293	1.354980	-5.530000	-92.680000	-23.870001	72.00	-0.02	-0.13
1.47	6.25	6.25	9.25	8.00	16.25	16.50	1.50	8.00	3.50	2.75	2.75	2.50	5.75	5.75	1.25	2.00	-0.163086	0.038086	0.958984	-2.940000	3.290000	-1.330000	1068.00	-0.08	-0.10	0.25	0.25	0.25	0.75	0.25	0.75	0.25	0.75	0.00	0.00	0.00	0.00	0.50	1.00	0.25	0.50	-0.317383	0.179688	1.421875	-3.640000	-97.090004	-20.090000	60.00	-0.00	-0.15
1.48	6.00	6.00	9.00	8.00	16.25	16.50	1.75	8.00	3.75	2.75	3.00	2.50	5.75	6.00	1.25	2.00	-0.165527	0.040039	0.960938	-2.590000	3.640000	-1.260000	1072.00	-0.07	-0.10	0.25	0.75	0.25	0.75	0.25	1.00	0.25	0.75	0.00	0.00	0.00	0.00	0.50	1.00	0.25	0.25	-0.333984	0.206055	1.388184	-1.540000	-104.720001	-14.980000	66.00	-0.05	-0.15
1.49	5.75	6.00	8.75	7.75	16.25	16.50	1.75	8.00	3.75	3.00	3.25	2.75	5.75	6.00	1.50	2.00	-0.166504	0.037109	0.959473	-2.100000	3.710000	-0.980000	1074.00	-0.07	-0.10	0.00	0.25	0.25	0.50	0.25	1.00	0.25	0.50	0.00	0.00	0.25	0.00	0.25	1.00	0.25	0.25	-0.405273	0.225586	1.324707	6.930000	-118.790001	-3.640000	53.00	0.02	-0.13
1.50	5.50	5.75	8.50	7.50	16.25	16.75	1.75	8.25	4.00	3.00	3.25	2.75	5.75	6.00	1.50	2.00	-0.160156	0.041504	0.964844	-1.750000	3.780000	-0.840000	1074.00	-0.06	-0.10	0.25	0.25	0.00	0.75	0.25	0.75	0.25	0.50	0.25	0.00	0.25	0.00	0.50	0.75	0.25	0.25	-0.435547	0.233887	1.261719	12.110000	-123.550003	3.010000	56.00	0.01	-0.12
1.51	5.25	5.75	8.25	7.50	16.00	16.75	1.75	8.25	3.50	3.25	3.50	3.00	6.00	6.00	1.25	2.00	-0.165039	0.040039	0.970215	-1.540000	3.710000	-0.910000	1067.00	-0.06	-0.11	0.25	0.50	0.25	0.50	0.25	0.75	0.25	0.50	0.00	0.00	0.00	0.00	0.50	1.25	0.25	0.25	-0.467773	0.228027	1.177246	16.240000	-125.300003	9.730000	57.00	0.00	-0.11
1.52	5.00	5.75	8.25	7.25	16.00	17.00	1.75	8.50	4.25	3.25	3.50	3.00	6.25	6.00	1.50	2.00	-0.166992	0.033691	0.958008	-1.400000	4.270000	-1.050000	1082.00	-0.06	-0.10	0.00	0.50	0.50	1.00	0.25	0.75	0.25	0.50	0.00	0.00	0.25	0.00	0.50	1.00	0.25	0.50	-0.496582	0.212402	1.115234	19.110001	-124.110001	16.240000	64.00	-0.02	-0.14
1.53	5.00	5.50	7.75	7.00	15.75	17.00	1.75	8.75	4.50	3.50	4.00	3.25	6.25	6.25	1.50	2.25	-0.165527	0.038574	0.963867	-1.050000	4.200000	-1.120000	1090.00	-0.05	-0.11	0.25	0.50	0.25	0.75	0.25	0.75	0.25	0.75	0.00	0.00	0.25	0.00	0.50	1.25	0.25	0.25	-0.510254	0.205566	1.089844	20.299999	-121.520004	22.330000	66.00	-0.00	-0.13
1.54	4.50	5.50	7.75	7.00	15.50	17.00	2.00	8.75	4.50	3.75	3.75	3.50	6.50	6.25	1.75	2.25	-0.162109	0.041992	0.959961	-0.910000	4.200000	-1.050000	1093.00	-0.04	-0.11	0.25	0.25	0.25	0.50	0.25	0.75	0.25	0.75	0.00	0.00	0.25	0.00	0.50	1.00	0.25	0.50	-0.531250	0.187988	1.065430	20.930000	-118.790001	28.210001	60.00	0.02	-0.14
1.55	4.25	5.50	7.50	6.75	15.25	17.25	2.00	9.00	4.75	3.75	4.75	3.75	6.75	6.25	1.50	2.25	-0.166504	0.034668	0.966309	-0.700000	4.060000	-0.910000	1105.00	-0.04	-0.11	0.25	0.25	0.25	0.75	0.25	0.75	0.25	0.75	0.00	0.00	0.00	0.00	0.25	1.00	0.25	0.50	-0.529297	0.181152	1.053223	22.469999	-116.970001	33.320000	58.00	-0.01	-0.14
1.56	4.25	5.50	7.25	6.50	15.25	17.50	2.00	9.00	4.75	4.00	5.00	3.75	7.00	6.00	1.50	2.25	-0.163086	0.041016	0.963379	-0.630000	4.060000	-0.980000	1107.00	-0.04	-0.11	0.25	0.25	0.00	0.50	0.25	0.50	0.25	0.50	0.00	0.00	0.25	0.00	0.25	1.00	0.00	0.25	-0.536133	0.157227	1.035645	24.500000	-115.849998	37.170002	45.00	0.00	0.00
1.57	3.75	5.25	7.00	6.25	15.00	17.50	2.00	9.25	5.00	4.00	5.25	4.25	7.00	6.25	1.50	2.50	-0.161133	0.036621	0.964355	-0.280000	3.990000	-0.980000	1110.00	-0.03	-0.11	0.25	0.25	0.00	1.00	0.25	0.75	0.25	0.50	0.00	0.00	0.25	0.00	0.50	1.25	0.50	0.25	-0.548340	0.139160	0.993164	25.059999	-114.800003	40.040001	62.00	0.03	-0.13
1.58	3.75	5.00	6.50	6.25	14.50	17.50	2.00	9.50	4.75	4.50	5.75	4.25	7.50	6.25	1.75	2.50	-0.162598	0.042969	0.959473	-0.140000	4.200000	-0.980000	1115.00	-0.02	-0.12	0.50	0.25	0.25	0.75	0.25	1.00	0.25	0.75	0.00	0.00	0.00	0.00	0.50	1.25	0.25	0.50	-0.567383	0.132812	0.945801	25.410000	-112.629997	42.209999	68.00	-0.01	-0.13
1.59	3.50	5.00	6.00	5.75	14.25	17.50	2.00	9.75	5.00	4.75	6.50	5.00	7.50	6.25	1.75	2.50	-0.166016	0.035156	0.962402	-0.070000	4.270000	-1.120000	1124.00	-0.02	-0.12	0.25	0.25	0.00	0.75	0.25	1.00	0.25	0.75	0.00	0.00	0.25	0.25	0.75	1.00	0.25	0.50	-0.599609	0.130859	0.897461	26.180000	-108.779999	43.610001	68.00	0.02	-0.18
1.60	3.50	4.75	5.50	5.75	13.50	17.50	2.00	9.75	5.00	5.25	7.00	5.50	7.75	6.25	1.75	2.75	-0.160156	0.036621	0.963379	0.140000	4.200000	-1.050000	1127.00	-0.01	-0.12	0.50	0.50	0.00	0.75	0.25	1.00	0.25	0.75	0.00	0.00	0.25	0.00	0.50	1.25	0.25	0.25	-0.650879	0.126465	0.853516	27.299999	-103.180000	43.680000	68.00	-0.01	-0.14
1.61	3.25	5.00	5.50	5.50	13.25	17.25	2.00	10.25	5.25	5.50	7.50	5.50	8.25	6.50	2.00	2.75	-0.162598	0.042480	0.962402	0.420000	4.200000	-1.050000	1146.00	-0.00	-0.12	0.50	0.25	0.25	0.75	0.25	0.75	0.25	0.50	0.00	0.00	0.25	0.00	0.25	1.00	0.25	0.25	-0.704590	0.119141	0.788086	29.260000	-96.949997	42.349998	58.00	-0.03	-0.10
1.62	3.25	4.75	5.25	5.50	12.75	17.25	2.00	10.50	5.25	6.25	7.75	6.25	8.50	6.50	2.00	3.00	-0.160645	0.037109	0.962402	0.700000	4.340000	-1.120000	1161.00	0.00	-0.13	0.00	0.50	0.25	1.00	0.25	0.50	0.25	0.75	0.00	0.00	0.25	0.00	0.50	1.00	0.25	0.25	-0.781738	0.120605	0.726074	33.389999	-89.739998	38.990002	61.00	-0.01	-0.15
1.63	3.00	4.75	5.00	5.50	12.00	16.75	2.00	10.75	5.50	6.75	8.00	7.00	8.75	6.50	2.00	3.00	-0.171875	0.047363	0.960938	1.330000	5.110000	-1.260000	1167.00	0.01	-0.13	0.25	0.25	0.00	1.00	0.25	1.00	0.25	0.75	0.00	0.00	0.00	0.00	0.50	1.00	0.25	0.25	-0.875977	0.110352	0.699219	41.230000	-81.480003	33.180000	62.00	-0.02	-0.16
1.64	2.75	4.25	4.25	5.00	11.25	16.75	1.75	11.00	5.50	7.25	8.50	7.50	9.25	6.75	2.00	3.25	-0.149902	0.034668	0.969238	1.960000	5.320000	-1.260000	1162.00	0.02	-0.13	0.25	0.25	0.25	0.75	0.25	0.75	0.25	0.50	0.00	0.00	0.00	0.00	0.25	1.00	0.00	0.50	-0.964355	0.064453	0.650879	51.099998	-72.449997	25.129999	52.00	-0.03	-0.12
1.65	2.75	4.00	4.00	5.00	10.50	16.50	1.75	11.25	5.75	7.50	8.75	8.00	9.75	6.75	2.00	3.25	-0.153809	0.042480	0.962402	2.590000	5.670000	-1.190000	1167.00	0.03	-0.14	0.25	0.50	0.25	0.50	0.25	0.75	0.25	0.50	0.00	0.00	0.00	0.00	0.00	0.75	0.25	0.50	-1.025391	0.002930	0.599121	60.900002	-62.160000	16.590000	50.00	0.00	0.00
1.66	2.75	4.25	3.75	5.00	9.75	16.00	1.75	11.25	6.00	7.75	9.25	8.50	10.25	6.75	2.00	3.50	-0.163086	0.043945	0.962402	3.360000	6.300000	-1.120000	1175.00	0.03	-0.14	0.25	0.50	0.25	0.50	0.25	0.50	0.00	0.75	0.25	0.00	0.00	0.00	0.50	0.75	0.50	0.25	-1.066406	-0.083984	0.538574	66.919998	-48.650002	8.960000	56.00	0.00	-0.15
1.67	2.50	4.00	3.50	4.75	8.75	15.75	1.75	11.75	6.00	8.00	10.00	9.00	10.75	7.00	2.00	3.75	-0.162598	0.044434	0.962891	4.410000	7.280000	-0.910000	1182.00	0.04	-0.14	0.25	0.50	0.00	0.75	0.25	0.75	0.25	0.75	0.00	0.00	0.25	0.00	0.50	0.75	0.25	0.50	-1.082031	-0.168945	0.506348	63.980000	-31.010000	2.870000	60.00	-0.01	-0.17
1.68	2.25	3.75	3.00	4.50	8.00	15.25	1.75	12.25	6.00	8.25	10.50	9.50	11.25	7.00	2.25	3.75	-0.153320	0.042969	0.968262	5.390000	8.120000	-0.840000	1183.00	0.05	-0.15	0.00	0.25	0.00	0.75	0.25	0.75	0.25	0.75	0.25	0.00	0.50	0.00	0.25	1.00	0.25	0.25	-1.062988	-0.232422	0.501465	50.540001	-10.010000	-1.820000	60.00	0.05	-0.13
1.69	2.25	3.75	2.50	4.50	7.25	14.50	1.50	12.50	6.50	8.50	11.00	9.75	12.00	7.25	2.25	4.25	-0.162109	0.041992	0.961914	6.300000	9.450000	-1.120000	1190.00	0.06	-0.15	0.25	0.50	0.00	0.50	0.25	0.75	0.25	0.75	0.00	0.00	0.00	0.00	0.50	0.75	0.25	0.25	-0.949219	-0.230957	0.600586	10.080000	31.430000	-12.600000	53.00	-0.02	-0.17
1.70	1.75	3.25	2.00	4.00	6.50	13.75	1.50	12.50	6.25	8.75	11.50	10.50	12.50	7.00	2.25	4.25	-0.161133	0.051270	0.965332	6.580000	10.920000	-1.470000	1167.00	0.07	-0.16	0.25	0.25	0.25	0.50	0.25	0.75	0.25	0.50	0.00	0.00	0.25	0.25	0.50	1.00	0.25	0.25	-0.847656	-0.135742	0.636230	-4.690000	48.650002	-20.930000	58.00	0.02	-0.13
1.71	1.75	3.00	1.75	3.50	5.50	12.75	1.50	12.25	6.25	9.25	12.00	11.25	13.00	7.00	2.50	4.50	-0.167480	0.052734	0.969727	7.000000	12.110000	-2.030000	1158.00	0.08	-0.16	0.25	0.25	0.00	1.00	0.25	0.50	0.00	0.75	0.00	0.00	0.00	0.00	0.50	0.75	0.00	0.25	0.228516	0.223633	0.749023	-31.639999	105.209999	-11.690000	48.00	0.00	0.00
1.72	1.50	2.75	2.00	3.25	4.50	12.00	1.50	12.00	6.50	9.50	12.75	11.75	13.75	7.25	2.50	4.75	-0.165039	0.041992	0.970215	6.930000	13.300000	-2.660000	1159.00	0.09	-0.16	0.50	0.75	0.25	1.00	0.25	0.75	0.00	0.75	0.00	0.00	0.25	0.00	0.50	0.75	0.00	0.50	0.527344	0.316406	1.183105	-53.760002	97.440002	-14.770000	64.00	-0.09	-0.18
1.73	1.25	2.50	1.00	3.25	3.75	10.50	1.25	11.75	7.25	10.00	13.75	12.50	14.00	7.25	2.25	5.00	-0.157227	0.058594	0.968262	7.000000	16.870001	-3.850000	1145.00	0.11	-0.16	1.00	0.75	0.75	1.00	0.25	0.50	0.00	0.75	0.00	0.00	0.25	0.00	0.50	1.00	0.00	0.25	0.315918	0.276855	1.461914	-44.660000	78.120003	-14.140000	73.00	-0.12	-0.12
1.74	1.25	2.25	1.25	3.00	2.75	9.50	1.25	11.25	7.50	10.50	14.25	13.00	14.50	7.75	2.50	5.00	-0.160156	0.059082	0.980957	7.980000	21.210001	-5.390000	1143.00	0.12	-0.16	1.25	1.25	0.75	1.25	0.25	0.50	0.00	0.75	0.00	0.00	0.25	0.25	0.25	1.00	0.25	0.25	0.125488	0.162109	0.727539	-49.420002	70.419998	-10.570000	86.00	-0.13	-0.11
1.75																										1.50	2.00	1.00	1.50	0.25	0.50	0.25	0.75	0.00	0.00	0.25	0.00	0.75	1.00	0.25	0.50	-0.032715	0.147461	0.679199	-59.150002	91.489998	-9.870000	108.00	-0.14	-0.11
1.76																										2.50	2.75	1.25	2.00	0.50	0.75	0.00	0.75	0.00	0.00	0.50	0.25	1.00	1.00	0.25	0.25	0.065430	0.135254	0.887695	-52.009998	125.720001	-8.120000	141.00	-0.18	-0.11
1.77																										2.75	3.75	1.50	2.75	0.50	1.00	0.25	0.75	0.00	0.00	0.50	0.25	0.50	0.75	0.25	0.50	-0.046387	0.040039	1.157227	-35.840000	146.649994	-7.770000	165.00	-0.21	-0.11
1.78																										4.00	5.00	1.75	3.75	0.75	0.75	0.25	0.75	0.00	0.00	0.50	0.25	0.75	1.25	0.25	0.25	-0.067383	-0.063477	1.274902	-36.889999	154.839996	-16.520000	209.00	-0.22	-0.09
1.79																										5.75	5.50	2.00	4.50	0.75	1.25	0.25	0.75	0.00	0.25	0.25	0.25	0.50	1.00	0.25	0.50	-0.148926	0.105957	1.622559	-45.430000	154.139999	-27.370001	245.00	-0.25	-0.08
1.80																										6.50	5.75	2.25	5.25	0.75	1.75	0.25	1.00	0.00	0.00	0.50	0.75	1.25	1.00	0.25	0.25	-0.209473	0.279297	1.715332	-40.529999	137.759995	-26.740000	286.00	-0.23	-0.10
1.81																										7.00	6.25	2.75	5.50	1.25	2.25	0.25	0.75	0.00	0.25	0.50	0.25	1.00	1.25	0.25	0.50	-0.158203	0.297363	1.473145	-27.230000	119.770004	-15.470000	310.00	-0.24	-0.08
1.82																										7.25	6.00	3.25	5.75	1.50	2.75	0.25	1.00	0.25	0.25	0.50	0.50	1.00	1.00	0.25	0.50	-0.132812	0.203613	1.296387	-17.290001	96.809998	-2.520000	334.00	-0.23	-0.09
1.83	0.75	1.50	0.00	1.25	0.50	4.75	0.75	5.00	10.00	13.25	18.00	15.50	11.75	9.00	2.25	4.50	-0.399414	0.138184	1.046387	27.650000	228.270004	-13.160000	1028.00	0.18	-0.11	7.50	6.50	3.50	6.00	1.50	3.50	0.25	1.25	0.00	0.00	0.50	0.75	1.00	1.25	0.25	0.50	-0.103516	0.095703	1.134277	-13.790000	77.419998	4.200000	357.00	-0.23	-0.10
1.84	0.25	1.00	0.00	1.00	0.75	4.25	1.00	4.25	10.00	13.00	17.75	15.25	10.75	9.00	2.25	4.50	-0.423828	0.123535	1.063477	23.590000	241.149994	-15.890000	988.00	0.19	-0.10	7.75	6.75	3.75	6.25	1.75	3.75	0.50	1.25	0.00	0.00	0.50	0.50	1.00	1.25	0.25	0.50	-0.108398	0.042480	1.311523	-25.270000	67.760002	3.430000	375.00	-0.23	-0.09
1.85	0.50	0.75	0.00	0.50	0.50	3.50	0.75	3.50	9.75	13.00	17.50	15.00	10.00	9.00	2.25	4.25	-0.438965	0.145508	1.060059	20.299999	252.979996	-19.040001	941.00	0.20	-0.10	8.00	7.50	4.00	6.50	1.75	4.00	0.50	1.25	0.25	0.00	0.50	0.25	1.25	1.50	0.25	0.50	-0.103027	0.152344	1.022949	-23.170000	51.380001	4.830000	397.00	-0.23	-0.09
1.86	0.50	0.00	0.00	1.00	0.50	2.50	0.75	3.25	9.25	13.00	17.25	14.50	9.25	8.75	2.25	4.25	-0.473633	0.134277	1.049316	18.480000	265.160004	-22.820000	901.00	0.21	-0.09	8.00	7.50	4.25	7.25	2.00	4.75	0.50	1.25	0.00	0.00	0.50	1.00	1.00	1.25	0.25	0.75	-0.108398	0.108887	0.975098	-18.410000	44.799999	7.420000	421.00	-0.23	-0.10
1.87	0.25	0.75	0.00	0.75	0.25	2.25	0.75	2.50	9.00	12.75	16.75	14.00	8.50	8.75	2.00	4.00	-0.531738	0.165527	1.066895	16.030001	280.350006	-27.860001	859.00	0.21	-0.09	8.25	8.00	4.75	8.00	2.25	5.25	0.50	1.50	0.25	0.25	0.75	0.75	1.00	1.25	0.50	0.75	-0.094727	0.089355	1.004395	-17.710001	44.799999	7.420000	462.00	-0.22	-0.10
1.88	0.25	0.75	0.00	0.75	0.25	2.25	0.75	2.25	8.50	12.25	16.50	13.25	7.75	8.50	1.75	4.00	-0.583984	0.163574	1.069824	13.510000	298.339996	-33.810001	822.00	0.21	-0.08	8.75	8.75	5.00	8.75	2.50	6.00	0.50	1.75	0.00	0.50	1.00	0.75	1.00	1.25	0.50	0.75	-0.109375	0.076660	1.037109	-14.420000	41.860001	7.000000	502.00	-0.22	-0.10
1.89	0.25	0.50	0.00	0.25	0.25	2.00	0.75	1.75	7.75	11.75	15.75	12.50	6.75	8.25	1.50	3.75	-0.644043	0.181152	1.091797	10.920000	316.190002	-39.689999	758.00	0.22	-0.08	9.25	9.25	5.50	9.50	2.50	7.00	0.50	2.25	0.25	0.50	1.00	0.50	1.25	1.25	0.50	0.75	-0.119629	0.076172	1.031250	-14.070000	32.830002	5.040000	547.00	-0.22	-0.11
1.90	0.25	0.50	0.00	0.25	0.00	1.25	0.75	1.00	7.25	11.00	14.75	11.50	6.00	8.00	1.75	3.75	-0.746094	0.192383	1.147461	7.490000	334.179993	-44.240002	694.00	0.23	-0.07	9.50	9.75	6.00	10.00	2.75	8.25	0.50	2.50	0.25	0.50	1.00	1.00	1.50	1.00	0.25	0.75	-0.115723	0.078613	0.976562	-17.639999	29.680000	4.130000	588.00	-0.22	-0.12
1.91	0.00	0.25	0.00	0.25	0.25	1.00	0.75	1.25	6.00	10.00	13.00	10.50	5.50	7.25	1.50	3.00	-0.829102	0.187988	1.216797	1.750000	351.540009	-47.599998	620.00	0.23	-0.07	9.75	10.25	6.50	10.75	3.00	9.00	0.50	2.75	0.25	0.50	1.00	1.00	1.25	1.25	0.75	0.75	-0.128906	0.085938	1.013672	-24.990000	27.580000	3.010000	629.00	-0.21	-0.11
1.92	0.00	0.25	0.00	0.00	0.00	1.00	0.75	1.00	5.00	8.75	11.75	9.25	5.00	7.00	1.25	2.75	-0.988770	0.147949	1.366211	-4.410000	363.440002	-47.740002	548.00	0.23	-0.07	10.00	10.50	7.00	11.25	3.00	9.75	0.50	3.50	0.25	0.50	1.00	1.25	1.50	1.25	0.50	1.00	-0.143066	0.091797	1.062012	-41.160000	17.710001	2.730000	668.00	-0.21	-0.12
1.93	0.00	0.00	0.25	0.00	0.00	0.25	0.50	0.50	3.75	7.75	10.00	8.25	4.00	6.00	0.75	2.25	-1.226074	0.218262	1.494141	-10.920000	367.640015	-43.680000	448.00	0.24	-0.07	10.25	11.00	7.50	11.75	3.75	11.00	0.50	5.00	0.25	0.25	1.00	1.25	1.75	1.25	0.50	1.25	-0.145508	0.074707	1.030762	-49.770000	4.200000	2.800000	732.00	-0.20	-0.13
1.94	0.00	0.00	0.00	0.00	0.00	0.25	0.50	0.50	3.00	6.50	8.75	7.50	3.50	5.25	0.75	1.50	-1.576660	0.312500	1.846680	-8.750000	362.670013	-35.209999	387.00	0.24	-0.08	10.50	11.50	8.00	12.50	4.75	12.00	0.50	5.25	0.25	0.50	1.25	1.25	2.25	1.50	0.50	1.25	-0.146484	0.073242	1.014648	-45.290001	-5.040000	2.940000	790.00	-0.20	-0.13
1.95	0.00	0.00	0.00	0.00	0.00	0.00	0.50	0.25	2.75	5.50	7.75	6.25	2.75	4.00	0.75	1.50	-1.464844	0.330566	1.775391	14.700000	356.860016	-22.469999	326.00	0.25	-0.07	11.25	12.00	8.25	13.00	5.25	13.25	0.50	5.75	0.25	0.50	1.25	1.75	2.25	1.50	0.75	1.25	-0.138184	0.068848	1.004395	-35.630001	-9.030000	2.940000	845.00	-0.20	-0.13
1.96	0.00	0.25	0.25	0.00	0.00	0.50	0.25	0.25	3.00	5.00	6.50	5.50	2.75	3.00	1.00	1.00	-1.248047	0.630859	1.839844	48.650002	331.660004	-12.320000	301.00	0.23	-0.07	12.00	12.25	8.75	13.50	5.50	14.00	0.75	6.50	0.25	0.50	1.25	1.50	2.75	1.25	0.50	1.50	-0.137695	0.064453	0.999512	-28.490000	-10.430000	2.800000	891.00	-0.20	-0.14
1.97	0.00	0.00	0.00	0.00	0.00	0.00	0.25	0.00	2.75	4.50	5.75	5.25	2.25	2.00	0.75	1.00	-1.353027	0.714844	1.867188	93.940002	307.160004	2.800000	252.00	0.24	-0.07	12.00	13.25	8.75	14.25	5.75	15.00	0.75	7.25	0.25	0.50	1.25	1.50	3.00	1.50	0.75	1.50	-0.143066	0.052246	1.001953	-21.210001	-10.710000	2.800000	940.00	-0.19	-0.14
1.98	0.00	0.00	0.00	0.00	0.00	0.25	0.00	0.25	2.50	4.00	5.00	4.00	1.75	1.25	0.50	1.00	-1.277832	0.508301	1.931641	148.820007	270.059998	-3.500000	212.00	0.23	-0.08	12.75	13.75	9.00	14.50	6.25	15.75	0.75	7.50	0.25	0.50	1.50	1.50	3.25	1.50	0.75	1.50	-0.141113	0.053223	0.999512	-11.270000	-9.800000	2.940000	981.00	-0.19	-0.14
1.99	0.00	0.25	0.00	0.00	0.00	0.50	0.00	0.00	2.50	3.75	4.00	3.50	1.75	1.25	0.25	0.50	-0.613770	0.138672	1.966309	172.690002	234.500000	-22.400000	190.00	0.22	-0.07	13.00	14.00	9.25	15.00	6.25	16.75	0.75	8.00	0.50	0.50	1.50	1.75	3.25	1.25	0.50	1.75	-0.134277	0.050781	0.994141	-3.710000	-8.680000	3.220000	1015.00	-0.19	-0.14
2.00	0.00	0.00	0.00	0.00	0.00	0.00	0.00	0.00	2.00	3.00	3.25	3.00	1.50	0.50	0.25	0.50	0.650391	-0.099609	2.674805	171.009995	181.930008	-45.220001	146.00	0.24	-0.07	12.75	14.25	9.25	15.25	6.25	17.25	0.75	8.25	0.50	0.75	1.75	1.75	3.75	1.50	0.50	1.75	-0.126465	0.057617	0.996094	-0.490000	-8.050000	3.430000	1038.00	-0.19	-0.15
2.01	0.00	0.25	0.00	0.00	0.00	0.00	0.00	0.00	1.25	3.00	3.00	2.50	1.25	0.50	0.25	0.50	1.812012	-0.137207	1.772949	96.320000	31.570000	-93.800003	128.00	0.23	-0.08	12.25	14.25	9.25	15.25	6.25	18.00	0.75	8.75	0.25	0.50	1.75	1.75	4.25	1.25	0.75	2.00	-0.127441	0.056641	0.997070	1.050000	-7.700000	3.500000	1049.00	-0.18	-0.15
2.02	0.00	0.00	0.00	0.00	0.00	0.00	0.00	0.00	0.50	2.50	2.75	2.25	1.25	0.25	0.25	0.50	1.812012	-0.137207	1.772949	96.320000	31.570000	-93.800003	103.00	0.23	-0.12	12.00	14.25	9.00	15.50	6.25	18.75	0.75	9.25	0.25	0.75	1.75	2.00	4.75	1.50	0.75	1.75	-0.137695	0.060547	0.991211	3.920000	-7.210000	3.640000	1072.00	-0.18	-0.16
2.03	0.00	0.00	0.00	0.00	0.00	0.00	0.00	0.00	0.75	2.00	2.25	1.75	1.00	0.75	0.25	0.50	1.207031	-0.094727	1.817383	37.730000	-46.619999	-96.669998	93.00	0.25	-0.09	11.50	13.75	8.75	15.25	6.25	19.25	0.50	9.75	0.25	0.50	1.75	2.25	5.25	1.50	1.00	2.00	-0.133301	0.061035	0.988281	6.440000	-6.650000	3.920000	1075.00	-0.17	-0.16
2.04	0.00	0.00	0.00	0.00	0.00	0.00	0.00	0.00	0.75	2.00	2.25	1.75	1.00	0.50	0.25	0.50	0.752441	0.036621	0.970215	16.379999	-100.449997	-87.220001	91.00	0.24	-0.09	10.50	13.50	8.75	15.25	6.25	19.75	0.50	10.25	0.00	0.75	1.75	2.50	5.25	1.50	1.00	2.00	-0.129395	0.067383	0.984863	5.740000	-6.370000	4.200000	1077.00	-0.17	-0.17
2.05	0.00	0.00	0.00	0.00	0.00	0.00	0.00	0.00	0.75	1.75	2.00	1.50	0.75	0.75	0.00	0.50	0.767090	0.020508	0.753418	14.280000	-99.470001	-79.519997	80.00	0.24	-0.07	10.25	13.00	8.50	15.00	6.25	20.25	0.50	10.75	0.00	0.50	1.75	2.25	6.50	1.50	0.75	2.00	-0.133789	0.067871	0.983398	3.150000	-6.090000	4.200000	1080.00	-0.16	-0.18
2.06	0.00	0.25	0.00	0.00	0.00	0.00	0.00	0.00	0.75	1.75	1.75	1.50	1.00	0.00	0.25	0.25	0.729492	0.038574	0.791992	10.780000	-107.520004	-69.720001	77.00	0.21	-0.10	9.25	12.75	8.50	14.75	6.25	20.50	0.75	11.00	0.25	0.50	1.75	2.50	7.00	1.50	0.75	2.25	-0.131348	0.064453	0.988281	1.190000	-6.160000	3.920000	1087.00	-0.15	-0.18
2.07	0.00	0.00	0.00	0.00	0.00	0.00	0.00	0.00	0.75	1.50	2.00	1.25	0.75	0.50	0.00	0.25	0.670410	0.031250	0.986328	-0.280000	-123.690002	-59.290001	72.00	0.24	-0.07	9.00	12.00	8.25	14.50	6.00	20.75	0.75	11.50	0.00	0.50	1.75	2.50	7.25	1.50	0.75	2.25	-0.130859	0.065430	0.995117	1.190000	-5.810000	3.780000	1078.00	-0.15	-0.19
2.08	0.00	0.00	0.00	0.00	0.00	0.75	0.00	0.00	0.50	1.25	1.75	1.00	0.75	0.00	0.00	0.50	0.642578	0.028320	1.153320	-13.580000	-149.240005	-46.830002	66.00	0.18	-0.13	8.50	11.50	8.00	14.25	6.00	21.00	0.50	11.75	0.00	0.75	2.00	2.25	7.75	1.50	0.75	2.50	-0.129395	0.063477	0.984863	1.050000	-5.530000	3.710000	1074.00	-0.15	-0.19
2.09	0.00	0.00	0.00	0.00	0.00	0.00	0.00	0.00	0.75	1.00	1.50	0.75	1.00	0.00	0.25	0.25	0.614746	0.062012	1.148926	-26.670000	-180.110001	-33.740002	57.00	0.23	-0.10	7.75	10.75	7.75	14.25	6.00	21.25	0.50	12.00	0.00	0.75	2.00	2.75	8.00	1.25	0.75	2.50	-0.125488	0.062500	0.994141	-2.800000	-5.950000	3.010000	1068.00	-0.14	-0.20
2.10	0.00	0.00	0.00	0.00	0.00	0.00	0.00	0.00	0.25	1.25	1.50	1.00	0.75	0.25	0.00	0.25	0.551270	0.108887	1.119629	-38.009998	-209.860001	-22.610001	53.00	0.23	-0.12	7.25	10.50	7.50	14.00	5.75	21.50	0.50	12.25	0.25	0.50	2.00	2.25	8.25	1.50	0.75	2.50	-0.127441	0.063477	0.995117	-2.660000	-5.880000	2.870000	1059.00	-0.14	-0.20
2.11	0.00	0.00	0.00	0.00	0.00	0.00	0.00	0.00	0.75	0.75	1.25	0.50	0.50	0.25	0.00	0.25	0.446777	0.163574	1.131348	-42.560001	-234.080002	-15.050000	44.00	0.00	0.00	7.00	9.75	7.25	13.50	5.75	21.75	0.75	12.50	0.25	0.75	2.00	2.75	8.25	1.25	0.75	2.50	-0.130859	0.071289	0.994141	-1.540000	-5.600000	2.940000	1057.00	-0.13	-0.20
2.12	0.00	0.00	0.00	0.00	0.00	0.00	0.00	0.00	0.50	1.00	1.00	0.50	0.50	0.00	0.00	0.25	0.334473	0.192871	1.234375	-37.869999	-253.750000	-10.710000	38.00	0.00	0.00	6.50	9.25	7.00	13.25	5.50	22.00	0.50	12.75	0.50	0.75	2.00	3.00	8.50	1.25	1.00	2.75	-0.126465	0.066406	0.991699	-0.630000	-5.250000	2.940000	1054.00	-0.12	-0.20
2.13	0.00	0.00	0.00	0.00	0.00	0.00	0.00	0.00	0.50	0.75	1.00	0.75	0.25	0.25	0.00	0.25	0.181641	0.227051	1.325684	-27.930000	-271.250000	-9.170000	38.00	0.00	0.00	5.75	8.75	6.75	13.00	5.50	22.25	0.50	13.00	0.00	0.75	2.25	3.00	9.00	1.50	1.00	2.50	-0.125488	0.069336	0.987793	-1.330000	-5.180000	2.940000	1044.00	-0.12	-0.21
2.14	0.00	0.00	0.00	0.00	0.00	0.00	0.00	0.00	0.00	0.75	1.00	0.25	0.50	0.25	0.00	0.00	0.051270	0.234375	1.406250	-19.180000	-287.140015	-10.710000	27.00	0.00	0.00	5.50	8.50	6.25	12.50	5.50	22.25	0.50	13.25	0.25	0.75	2.00	3.50	9.00	1.50	1.00	2.75	-0.128418	0.062012	0.990234	-2.170000	-4.970000	3.010000	1039.00	-0.11	-0.21
2.15	0.00	0.00	0.00	0.00	0.00	0.00	0.00	0.00	0.25	0.75	0.75	0.50	0.50	0.25	0.00	0.00	-0.104004	0.266113	1.486328	-13.580000	-301.070007	-14.420000	31.00	0.00	0.00	5.25	7.75	6.00	12.25	5.50	22.25	0.50	13.50	0.00	0.75	2.25	3.50	9.50	1.25	1.00	2.75	-0.122070	0.063477	0.992188	-1.960000	-4.830000	2.940000	1029.00	-0.11	-0.22
2.16	0.00	0.00	0.00	0.00	0.00	0.00	0.00	0.00	0.50	1.00	0.75	0.25	0.25	0.00	0.00	0.00	-0.293457	0.314941	1.595703	-9.590000	-312.200012	-17.850000	30.00	0.00	0.00	5.00	7.25	5.50	11.75	5.25	22.25	0.50	13.75	0.00	0.75	2.25	3.50	9.75	1.00	1.25	2.75	-0.117188	0.068848	0.994141	-2.100000	-4.620000	2.730000	1015.00	-0.10	-0.22
2.17	0.00	0.00	0.00	0.00	0.00	0.00	0.00	0.00	0.50	0.75	0.75	0.25	0.25	0.25	0.00	0.00	-0.483887	0.369629	1.659668	-4.690000	-321.160004	-18.270000	29.00	0.00	0.00	4.50	6.75	5.25	11.25	5.00	22.25	0.50	14.00	0.00	1.00	2.25	3.75	10.00	1.50	1.00	3.00	-0.133789	0.066895	0.988770	-2.660000	-4.550000	2.240000	1008.00	-0.09	-0.23
2.18	0.00	0.00	0.00	0.00	0.00	0.00	0.00	0.00	0.25	0.25	0.75	0.00	0.50	0.00	0.00	0.00	-0.743652	0.374023	1.539551	3.430000	-328.440002	-15.190001	18.00	0.00	0.00	3.75	6.25	5.00	10.75	5.00	22.00	0.50	14.25	0.25	0.75	2.25	4.00	10.00	1.50	1.00	3.00	-0.131836	0.066895	0.998535	-2.450000	-4.130000	2.100000	992.00	-0.09	-0.23
2.19	0.00	0.25	0.00	0.00	0.00	0.00	0.00	0.00	0.50	0.50	0.50	0.00	0.50	0.00	0.00	0.00	-0.848633	0.357910	1.541992	15.190001	-329.630005	-11.830000	24.00	0.00	0.00	3.75	5.75	4.25	10.00	4.75	22.00	0.50	14.25	0.25	0.75	2.50	4.00	10.50	1.50	1.25	3.00	-0.130371	0.071777	0.992676	-2.030000	-3.990000	2.100000	978.00	-0.08	-0.24
2.20	0.00	0.00	0.00	0.00	0.00	0.00	0.00	0.00	0.50	0.25	0.50	0.25	0.25	0.00	0.00	0.00	-0.963867	0.323730	1.509766	22.540001	-323.049988	-7.630000	19.00	0.00	0.00	3.25	5.50	4.25	9.75	4.25	21.75	0.50	14.50	0.00	1.00	2.50	4.25	10.75	1.75	1.25	3.00	-0.129883	0.059570	0.989746	-2.520000	-3.920000	1.820000	969.00	-0.07	-0.24
2.21	0.00	0.25	0.00	0.00	0.00	0.00	0.00	0.00	0.25	0.50	0.50	0.00	0.25	0.25	0.00	0.00	-1.035156	0.314453	1.510254	23.870001	-313.040009	-3.640000	20.00	0.00	0.00	3.00	5.25	3.50	9.25	4.00	21.75	0.50	14.75	0.00	0.75	2.75	4.50	11.00	1.75	1.00	3.00	-0.126953	0.056641	0.988770	-3.360000	-4.130000	1.750000	954.00	-0.07	-0.25
2.22	0.00	0.00	0.00	0.00	0.00	0.00	0.00	0.00	0.25	0.25	0.50	0.00	0.25	0.00	0.00	0.00	-1.101562	0.330078	1.491699	25.620001	-302.329987	-3.640000	13.00	0.00	0.00	2.75	5.00	3.50	9.00	3.75	21.50	0.50	14.75	0.25	1.25	3.00	5.00	11.25	1.75	1.00	3.25	-0.124512	0.065918	0.990723	-4.060000	-4.410000	1.890000	961.00	-0.06	-0.25
2.23	0.00	0.00	0.00	0.00	0.00	0.00	0.00	0.00	0.25	0.25	0.50	0.00	0.25	0.25	0.00	0.25	-1.220215	0.374023	1.443848	31.500000	-288.470001	-9.940000	17.00	0.00	0.00	2.50	4.75	3.00	8.75	3.75	21.25	0.75	15.00	0.25	0.75	3.25	5.25	11.50	1.75	1.00	3.25	-0.128418	0.066895	0.991699	-4.340000	-4.690000	1.890000	954.00	-0.05	-0.25
2.24	0.00	0.00	0.00	0.00	0.00	0.00	0.00	0.00	0.00	0.00	0.50	0.25	0.25	0.25	0.00	0.00	-1.275879	0.427246	1.411621	40.670002	-272.019989	-19.670000	12.00	0.00	0.00	2.50	4.25	3.00	8.25	3.25	21.00	0.50	15.00	0.50	0.75	3.00	6.00	11.75	1.50	1.00	3.25	-0.130859	0.064941	0.988770	-4.270000	-4.480000	1.750000	941.00	-0.05	-0.26
2.25	0.00	0.00	0.00	0.00	0.00	0.00	0.00	0.00	0.25	0.25	0.50	0.00	0.00	0.25	0.00	0.00	-1.295410	0.456543	1.404785	49.139999	-254.729996	-29.120001	13.00	0.00	0.00	2.50	4.25	2.25	8.00	3.00	20.75	0.50	15.00	0.00	1.25	3.25	6.00	12.00	1.50	1.25	3.50	-0.123535	0.067871	0.997559	-4.060000	-4.340000	1.820000	932.00	-0.04	-0.26
2.26	0.00	0.00	0.00	0.00	0.00	0.00	0.00	0.00	0.25	0.25	0.50	0.00	0.25	0.00	0.00	0.25	-1.253906	0.547363	1.429199	63.000000	-226.169998	-35.630001	15.00	0.00	0.00	2.25	4.25	2.50	7.75	3.00	20.50	0.50	15.00	0.25	1.00	3.75	6.75	12.25	1.50	1.25	3.50	-0.127930	0.064941	0.995605	-3.780000	-4.270000	1.680000	943.00	-0.04	-0.26
2.27	0.00	0.00	0.00	0.00	0.00	0.00	0.00	0.00	0.00	0.00	0.25	0.00	0.00	0.00	0.00	0.00	-1.238281	0.602539	1.362305	65.239998	-211.680008	-30.520000	3.00	0.00	0.00	2.25	4.25	2.00	7.50	2.75	20.25	0.75	15.00	0.50	1.25	3.50	7.25	12.25	1.75	1.00	3.50	-0.127441	0.069336	0.993164	-3.850000	-4.480000	1.400000	941.00	-0.03	-0.26
2.28	0.00	0.25	0.00	0.00	0.00	0.00	0.00	0.00	0.25	0.25	0.25	0.00	0.25	0.00	0.00	0.00	-1.241211	0.630859	1.283203	66.290001	-193.410004	-21.350000	13.00	0.00	0.00	2.00	3.75	2.00	7.25	2.50	19.75	0.75	15.00	0.50	1.25	4.00	7.50	12.75	1.75	1.00	4.00	-0.124023	0.063965	0.993652	-3.150000	-4.690000	1.050000	937.00	-0.02	-0.26
2.29	0.00	0.00	0.00	0.00	0.00	0.00	0.00	0.00	0.25	0.25	0.25	0.00	0.25	0.25	0.00	0.00	-1.238770	0.628418	1.205566	71.680000	-173.250000	-9.240000	13.00	0.00	0.00	1.75	3.50	2.00	7.00	2.25	19.50	0.50	15.00	0.50	1.25	4.00	8.00	13.00	1.75	1.25	4.00	-0.120117	0.070801	0.997070	-3.080000	-4.970000	0.770000	931.00	-0.02	-0.27
2.30	0.00	0.00	0.00	0.00	0.00	0.00	0.00	0.00	0.00	0.25	0.25	0.00	0.25	0.00	0.00	0.25	-1.229980	0.591309	1.147461	82.529999	-153.720001	4.550000	9.00	0.00	0.00	2.00	3.75	1.75	6.50	2.25	19.25	0.75	15.00	0.25	1.25	4.25	8.25	13.00	1.75	1.50	4.75	-0.125977	0.069824	0.993164	-3.080000	-5.250000	0.490000	937.00	-0.01	-0.26
2.31	0.00	0.00	0.00	0.00	0.00	0.00	0.00	0.00	0.25	0.00	0.25	0.00	0.25	0.00	0.00	0.25	-1.224609	0.505371	1.148438	96.459999	-136.779999	19.879999	9.00	0.00	0.00	1.75	3.00	1.75	6.50	2.25	18.75	0.75	15.00	0.25	1.50	5.00	8.50	13.25	1.75	1.25	4.50	-0.125488	0.069336	0.993164	-3.150000	-5.180000	-0.000000	933.00	-0.01	-0.27
2.32	0.25	0.25	0.00	0.00	0.00	0.00	0.00	0.00	0.00	0.00	0.50	0.00	0.25	0.00	0.00	0.00	-1.208496	0.371582	1.282715	106.820000	-124.739998	37.799999	12.00	0.00	0.00																									
2.33	0.00	0.00	0.00	0.00	0.00	0.00	0.00	0.00	0.00	0.25	0.50	0.00	0.25	0.25	0.00	0.00	-1.139160	0.229980	1.432129	109.830002	-121.520004	59.500000	12.00	0.00	0.00																									
2.34	0.00	0.00	0.00	0.00	0.00	0.00	0.00	0.00	0.00	0.25	0.00	0.00	0.25	0.00	0.00	0.00	-1.059570	0.116211	1.433594	102.970001	-126.349998	83.160004	5.00	0.00	0.00																									
2.35	0.00	0.00	0.00	0.00	0.00	0.00	0.00	0.00	0.00	0.25	0.25	0.00	0.25	0.00	0.00	0.00	-1.062500	0.033691	1.329102	89.599998	-134.259995	106.260002	7.00	0.00	0.00																									
2.36	0.00	0.00	0.00	0.00	0.00	0.00	0.00	0.00	0.25	0.00	0.25	0.00	0.25	0.00	0.00	0.00	-1.075684	-0.053223	1.192871	77.840004	-140.279999	126.489998	8.00	0.00	0.00																									
2.37	0.00	0.00	0.00	0.00	0.00	0.00	0.00	0.00	0.25	0.00	0.25	0.00	0.25	0.25	0.00	0.00	-1.145996	-0.170410	1.037109	68.669998	-141.680008	142.520004	10.00	0.00	0.00																									
2.38	0.00	0.00	0.00	0.00	0.00	0.00	0.00	0.00	0.25	0.25	0.25	0.00	0.00	0.00	0.00	0.00	-1.277832	-0.270996	0.916992	55.930000	-136.990005	151.550003	8.00	0.00	0.00																									
2.39	0.00	0.00	0.00	0.00	0.00	0.00	0.00	0.00	0.00	0.25	0.25	0.00	0.50	0.25	0.00	0.00	-1.447266	-0.328613	0.773438	41.020000	-126.559998	152.669998	12.00	0.00	0.00																									
2.40	0.00	0.00	0.00	0.00	0.00	0.00	0.00	0.00	0.50	0.25	0.00	0.00	0.00	0.00	0.00	0.00	-1.673340	-0.370117	0.635254	33.389999	-113.120003	146.089996	9.00	0.00	0.00	0.75	1.75	0.75	4.50	1.00	12.00	0.75	13.25	3.25	7.75	12.50	13.00	15.25	4.00	2.75	6.75	-0.120117	0.067871	0.999023	-9.940000	-0.280000	-9.170000	1060.00	0.10	-0.22
2.41	0.00	0.00	0.25	0.00	0.00	0.00	0.00	0.00	0.00	0.00	0.25	0.00	0.00	0.25	0.00	0.00	-1.928223	-0.456055	0.517578	38.080002	-98.000000	131.529999	8.00	0.00	0.00	1.25	1.75	1.00	3.75	0.75	11.00	0.75	12.75	3.25	8.50	13.25	13.50	15.25	5.00	3.00	6.75	-0.120117	0.057617	1.008789	-9.100000	2.660000	-10.990000	1070.00	0.10	-0.21
2.42	0.00	0.00	0.00	0.00	0.00	0.00	0.00	0.00	0.25	0.25	0.25	0.00	0.00	0.25	0.00	0.00	-2.086914	-0.659180	0.395508	47.880001	-77.279999	109.970001	11.00	0.00	0.00	1.00	2.00	1.00	3.25	0.50	10.00	0.75	12.00	4.50	9.50	14.00	13.75	15.25	5.75	3.00	6.75	-0.123535	0.050293	1.008301	-7.630000	6.230000	-12.460000	1083.00	0.12	-0.19
2.43	0.00	0.00	0.00	0.00	0.00	0.00	0.00	0.00	0.00	0.00	0.50	0.00	0.25	0.50	0.00	0.00	-2.067871	-0.965332	0.291992	47.459999	-50.470001	86.099998	12.00	0.00	0.00	1.00	1.50	0.75	3.25	0.50	9.00	1.00	11.50	6.00	10.25	15.00	14.50	15.00	6.50	3.50	7.00	-0.122070	0.056641	0.998535	-5.810000	10.990000	-12.530000	1118.00	0.13	-0.18
2.44	0.00	0.00	0.00	0.00	0.00	0.00	0.00	0.00	0.25	0.25	0.50	0.00	0.25	0.00	0.00	0.25	-1.928711	-1.174316	0.263672	28.630001	-19.180000	64.750000	15.00	0.00	0.00	1.25	1.50	1.00	3.25	0.25	8.25	1.00	10.75	7.00	11.25	15.75	14.50	14.75	7.00	3.50	7.00	-0.126953	0.042969	1.011719	-2.590000	15.890000	-12.320000	1134.00	0.14	-0.17
2.45	0.00	0.00	0.00	0.00	0.00	0.00	0.00	0.00	0.00	0.25	0.25	0.00	0.25	0.00	0.00	0.00	-1.720215	-1.223633	0.333496	-5.320000	13.160000	47.110001	7.00	0.00	0.00	1.25	1.50	0.75	3.00	0.50	7.75	1.00	10.00	8.25	11.75	16.25	15.00	14.50	8.00	3.50	7.00	-0.131348	0.042969	1.033203	4.410000	28.559999	-8.750000	1153.00	0.15	-0.15
2.46	0.00	0.00	0.00	0.00	0.00	0.00	0.00	0.00	0.25	0.25	0.25	0.00	0.00	0.00	0.00	0.00	-1.497559	-1.046875	0.473145	-39.689999	41.020000	31.780001	8.00	0.00	0.00	1.25	1.25	0.75	3.00	0.50	7.25	1.00	9.25	9.25	12.50	16.75	15.00	14.25	8.50	3.75	7.00	-0.151367	0.070312	1.000488	12.040000	42.840000	-6.930000	1164.00	0.16	-0.14
2.47	0.00	0.00	0.00	0.00	0.25	0.25	0.00	0.00	0.00	0.50	0.25	0.00	0.00	0.00	0.00	0.00	-2.223145	-0.596680	2.050293	-46.549999	193.899994	-18.690001	13.00	0.00	0.00	1.00	1.50	0.75	3.25	0.25	6.75	1.00	8.75	10.00	13.00	17.25	15.25	14.00	9.50	4.00	7.00	-0.148438	0.074219	1.028809	15.960000	75.250000	-12.460000	1183.00	0.16	-0.13
2.48	0.25	0.00	0.00	0.00	0.00	0.00	0.00	0.00	0.00	0.25	0.25	0.25	0.50	0.00	0.00	0.00	0.105957	-0.598145	0.149414	-32.200001	191.729996	-58.939999	15.00	0.00	0.00	1.25	1.25	0.75	2.75	0.50	6.25	1.00	8.00	10.75	13.50	17.75	15.25	13.50	10.00	4.00	6.75	-0.173828	0.082520	1.026367	31.850000	84.559998	-8.750000	1183.00	0.17	-0.12
2.49	0.25	0.50	0.00	0.00	0.00	0.00	0.00	0.00	0.25	0.25	0.25	0.00	0.25	0.00	0.00	0.00	-0.137207	-0.256348	1.725098	-67.760002	165.339996	-91.699997	18.00	0.00	0.00	1.00	1.00	0.75	2.25	0.50	5.75	1.00	7.50	11.75	14.25	18.00	15.25	12.75	11.00	4.00	6.75	-0.200195	0.076172	1.022949	41.369999	134.470001	-9.730000	1185.00	0.18	-0.11
2.50	0.75	1.50	0.00	1.25	0.00	0.00	0.00	0.00	0.25	0.50	0.50	0.00	0.00	0.00	0.00	0.00	0.243164	0.355957	1.720703	-67.760002	127.260002	-101.500000	49.00	0.00	0.00	1.00	1.25	0.75	2.75	0.25	5.25	1.00	6.75	12.25	14.50	18.00	15.25	12.25	11.75	4.00	6.75	-0.219238	0.080078	1.091309	27.020000	175.910004	-9.450000	1184.00	0.18	-0.10
2.51	2.00	4.00	0.50	1.00	0.00	0.00	0.00	0.00	0.25	0.25	0.50	0.00	0.00	0.25	0.00	0.00	0.264648	0.795410	0.660645	-45.709999	101.080002	-98.070000	87.00	-0.28	-0.06	1.00	1.00	0.50	2.75	0.25	5.00	1.00	6.00	12.75	14.75	18.25	15.00	11.75	12.50	4.00	6.75	-0.267578	0.089844	1.104004	12.040000	204.050003	-11.760000	1176.00	0.19	-0.09
2.52	4.00	7.50	0.75	0.75	0.25	0.00	0.00	0.00	0.00	0.25	0.50	0.25	0.50	0.25	0.00	0.00	-0.218262	0.877441	0.403809	-29.610001	141.539993	-75.669998	147.00	-0.32	-0.07	1.00	1.50	0.75	2.00	0.25	4.75	1.00	5.25	13.25	15.00	18.25	14.75	10.75	13.50	4.00	6.50	-0.292969	0.072754	1.109863	1.260000	226.729996	-13.090000	1166.00	0.19	-0.08
2.53	7.25	9.50	1.75	2.25	0.25	0.00	0.00	0.00	0.25	0.50	0.25	0.25	0.25	0.00	0.00	0.00	-0.211426	0.994141	0.423340	-48.160000	228.619995	-42.630001	225.00	-0.34	-0.05	1.00	1.00	0.50	2.00	0.50	3.75	1.00	5.00	13.75	15.00	18.00	14.50	10.25	14.00	3.75	6.50	-0.336914	0.074219	1.127441	-5.880000	241.919998	-14.000000	1145.00	0.20	-0.07
2.54	10.25	12.00	1.75	3.00	0.25	0.00	0.00	0.00	0.25	0.25	0.50	0.50	0.50	0.25	0.00	0.00	-0.425293	0.802734	2.001953	-52.920002	260.750000	0.140000	295.00	-0.33	-0.05	1.00	1.50	0.50	2.00	0.25	3.50	1.00	3.75	13.50	15.00	17.75	14.25	9.50	14.75	4.00	6.50	-0.363770	0.094727	1.100586	-10.290000	255.639999	-15.540000	1119.00	0.20	-0.06
2.55	12.25	13.75	2.75	5.00	0.50	1.00	0.00	0.00	0.00	0.00	0.50	0.75	0.50	0.50	0.00	0.25	-0.442871	-0.237793	1.981934	-46.480000	237.160004	25.760000	378.00	-0.33	-0.06	0.75	1.50	0.75	2.00	0.25	3.00	1.00	3.50	13.50	14.75	17.50	13.75	9.00	15.25	3.75	6.25	-0.409668	0.107910	1.088379	-11.270000	271.110016	-20.020000	1096.00	0.21	-0.06
2.56	13.00	13.75	4.00	7.25	1.25	2.00	0.00	0.50	0.25	0.00	0.50	0.50	0.50	0.50	0.00	0.00	-0.434082	-0.354980	1.820801	-45.430000	230.649994	15.890000	451.00	-0.31	-0.07	1.00	1.25	0.50	1.75	0.25	2.50	1.25	3.00	13.25	14.75	17.00	13.50	8.25	15.75	3.50	6.25	-0.455566	0.112793	1.096680	-13.020000	289.450012	-24.850000	1065.00	0.21	-0.05
2.57	13.00	13.25	4.75	8.25	1.50	3.00	0.00	0.75	0.00	0.00	0.50	0.25	0.75	0.25	0.00	0.00	-0.353516	-0.138672	1.624023	-13.510000	219.449997	0.350000	477.00	-0.31	-0.08	0.75	1.50	0.25	1.75	0.25	2.25	1.25	2.50	12.75	14.50	16.50	13.00	7.75	16.00	3.50	6.25	-0.514160	0.127441	1.114258	-14.210000	312.619995	-29.960001	1030.00	0.22	-0.05
2.58	13.00	13.50	5.75	9.00	2.00	4.75	0.25	1.00	0.25	0.25	0.50	0.25	0.75	0.75	0.25	0.25	-0.416016	0.161133	2.394531	-47.180000	179.059998	-14.770000	545.00	-0.28	-0.08	0.75	1.00	0.25	1.75	0.25	2.00	1.25	2.25	12.00	14.00	16.00	12.50	7.50	16.00	3.25	6.00	-0.577637	0.154297	1.170410	-16.240000	341.110016	-36.330002	987.00	0.22	-0.04
2.59	12.00	13.00	6.75	10.00	2.75	5.75	0.25	1.50	0.25	0.00	0.50	0.25	1.00	0.75	0.00	0.50	-0.370117	0.290039	1.337891	-42.700001	123.199997	-1.820000	577.00	-0.27	-0.09	0.50	1.25	0.25	0.75	0.25	1.75	1.50	2.00	10.50	13.00	15.00	11.75	6.75	16.25	3.00	6.00	-0.666016	0.174805	1.266602	-18.270000	370.019989	-42.560001	918.00	0.23	-0.04
2.60	11.50	12.75	6.75	10.25	2.75	7.25	0.25	1.75	0.25	0.00	0.50	0.50	1.00	1.00	0.00	0.75	-0.277832	0.000000	1.082031	-36.540001	94.779999	5.320000	599.00	-0.26	-0.10	0.75	1.00	0.25	1.00	0.25	1.75	1.50	1.75	9.25	11.50	13.25	11.00	6.25	16.50	2.75	5.75	-0.888184	0.202637	1.391113	-19.950001	397.529999	-47.110001	852.00	0.23	-0.04
2.61	11.00	12.75	7.25	11.25	3.50	8.25	0.25	2.25	0.25	0.25	0.50	0.75	1.25	1.25	0.25	0.50	-0.219727	0.051758	1.172852	-30.170000	71.260002	1.890000	648.00	-0.24	-0.11	0.25	0.50	0.00	0.50	0.00	1.25	1.50	1.50	7.25	10.00	11.75	9.75	5.50	16.50	2.00	5.00	-1.159668	0.290039	1.556641	-19.180000	418.600006	-48.439999	733.00	0.24	-0.04
2.62	11.25	13.00	7.25	12.00	4.00	9.25	0.50	3.50	0.50	0.25	0.50	0.75	1.50	1.50	0.25	0.75	-0.239746	0.106445	1.012695	-28.210001	47.880001	-0.910000	709.00	-0.23	-0.11	0.00	0.00	0.00	0.25	0.00	1.00	1.25	1.25	5.75	8.50	10.00	8.50	5.00	15.75	1.50	4.25	-1.678223	0.514648	1.747559	1.960000	433.230011	-39.410000	626.00	0.25	-0.04
2.63	10.75	13.25	7.75	12.75	4.50	10.75	0.50	4.50	0.25	0.25	0.75	1.00	2.25	1.25	0.25	0.50	-0.246094	0.146484	1.014160	-39.619999	36.680000	-0.490000	762.00	-0.22	-0.13	0.00	0.25	0.00	0.50	0.00	1.00	1.00	1.00	4.75	7.25	8.50	7.75	4.50	14.00	1.25	3.75	-1.819824	0.232910	2.261719	37.590000	439.950012	-27.580000	549.00	0.25	-0.04
2.64	10.25	13.50	8.00	13.75	5.25	12.25	0.50	5.25	0.50	0.50	0.75	1.00	2.50	1.50	0.25	1.00	-0.215820	0.006836	1.051270	-49.770000	21.139999	-0.140000	822.00	-0.21	-0.13	0.00	0.00	0.25	0.50	0.00	1.00	0.75	1.00	3.50	5.75	7.50	6.50	4.00	11.75	1.00	3.00	-1.380859	-0.416016	2.733887	50.680000	432.110016	-27.370001	460.00	0.24	-0.05
2.65	10.50	13.75	8.50	14.50	5.75	14.00	0.50	6.00	0.50	0.50	0.75	1.00	2.75	1.50	0.25	0.75	-0.211426	0.150391	0.985352	-43.049999	2.870000	-1.540000	877.00	-0.21	-0.14	0.00	0.25	0.00	0.50	0.00	0.75	0.50	1.00	2.75	4.50	6.75	6.00	4.00	10.00	1.00	3.00	-1.336914	-0.288086	2.035645	19.600000	426.369995	-33.320000	402.00	0.24	-0.07
2.66	10.00	14.00	8.50	15.25	6.00	15.75	0.50	6.75	0.25	0.50	1.00	1.25	3.50	1.75	0.25	1.00	-0.216797	0.105957	0.974121	-29.400000	-12.740000	-1.680000	927.00	-0.20	-0.15	0.25	0.00	0.00	0.25	0.00	1.00	0.25	0.75	2.00	4.25	5.50	5.50	3.75	8.25	1.00	2.75	-1.358398	0.066895	2.306641	0.700000	407.610016	-38.360001	346.00	0.24	-0.08
2.67	9.75	13.75	8.75	15.25	6.50	16.75	0.50	7.50	0.50	0.50	1.25	1.25	4.25	1.75	0.25	1.00	-0.216797	0.105957	0.974121	-29.400000	-12.740000	-1.680000	966.00	-0.19	-0.15	0.25	0.50	0.25	1.00	0.00	0.75	0.25	0.75	1.50	3.50	5.00	4.75	3.50	7.00	1.00	2.75	-1.211914	0.281250	2.345703	1.120000	383.250000	-33.599998	318.00	0.21	-0.10
2.68	9.75	13.25	8.50	15.75	7.00	18.00	0.50	8.25	0.75	0.75	1.25	1.50	5.25	2.00	0.50	1.00	-0.219727	0.132812	0.946777	-24.639999	-16.170000	-3.220000	1016.00	-0.17	-0.16	0.50	0.50	0.25	0.50	0.00	0.75	0.25	0.75	1.50	3.00	4.25	3.75	3.25	5.25	1.00	2.25	-0.737305	0.309082	2.198242	8.540000	360.149994	-28.840000	272.00	0.20	-0.10
2.69	9.25	13.00	9.00	16.00	7.25	19.25	0.50	8.75	0.50	0.50	1.25	1.50	5.50	1.75	0.50	1.25	-0.221191	0.064453	0.956543	-16.520000	-14.700000	-3.080000	1036.00	-0.17	-0.16	0.25	0.50	0.25	0.50	0.00	1.00	0.00	0.75	1.25	2.75	3.50	3.00	2.75	3.00	1.00	2.00	0.366211	0.166504	2.311035	33.320000	287.489990	-29.820000	222.00	0.19	-0.12
2.70	9.00	12.25	9.00	16.00	7.50	20.50	0.50	9.50	0.75	0.75	1.25	1.75	6.25	2.00	0.50	1.25	-0.209473	0.071289	0.960449	-11.760000	-12.670000	-2.800000	1072.00	-0.16	-0.17	0.50	0.50	0.00	0.50	0.00	0.25	0.00	0.75	1.00	2.25	2.50	2.00	2.00	2.25	0.75	1.50	1.967773	-0.153320	1.881348	63.139999	248.990005	-32.689999	166.00	0.18	-0.11
2.71	8.75	12.75	9.00	16.00	7.75	21.25	0.75	10.00	0.75	0.75	1.50	2.00	6.75	2.00	0.50	1.50	-0.209473	0.063965	0.956543	-8.540000	-11.130000	-2.730000	1107.00	-0.16	-0.17	0.00	0.00	0.00	0.50	0.00	0.50	0.00	0.75	0.50	2.00	2.75	2.00	2.00	1.50	0.75	1.25	1.688965	-0.077637	1.322266	61.250000	226.380005	-68.599998	144.00	0.20	-0.15
2.72	8.75	12.25	9.00	15.75	8.00	22.00	0.75	10.50	0.75	0.75	1.75	2.25	7.00	2.00	0.50	1.50	-0.208008	0.058594	0.961426	-4.760000	-8.120000	-2.310000	1126.00	-0.15	-0.17	0.25	0.50	0.00	0.50	0.00	0.75	0.00	0.75	0.50	1.75	2.75	2.00	1.75	1.50	0.75	1.25	1.601562	0.098633	2.799316	9.660000	50.820000	-98.699997	150.00	0.16	-0.15
2.73	8.25	11.50	8.75	15.50	8.00	23.00	0.75	11.25	0.50	1.00	1.50	2.25	7.50	1.75	0.50	1.50	-0.206543	0.059570	0.960938	-1.750000	-3.990000	-1.540000	1129.00	-0.15	-0.18	0.00	0.00	0.00	0.25	0.00	0.75	0.00	0.50	0.75	1.75	2.00	2.00	1.75	1.25	0.50	1.00	0.993652	0.186523	2.268066	28.420000	-103.320000	-96.599998	125.00	0.20	-0.14
2.74	7.50	10.75	8.50	15.50	8.00	23.25	0.75	11.75	0.75	0.75	1.75	2.50	7.75	2.00	0.50	1.50	-0.194336	0.062012	0.958008	-0.070000	-0.980000	-0.980000	1132.00	-0.14	-0.18	0.00	0.00	0.00	0.00	0.00	0.75	0.00	0.75	0.50	1.25	2.00	1.50	1.50	1.00	0.50	1.00	0.746094	0.105957	1.651855	29.610001	-173.110001	-90.860001	108.00	0.20	-0.16
2.75	7.00	9.75	8.25	14.50	8.00	23.25	0.75	12.25	0.50	0.75	1.75	2.50	8.00	2.00	0.50	1.50	-0.194336	0.066406	0.958496	-0.070000	0.700000	-0.700000	1111.00	-0.14	-0.19	0.00	0.00	0.00	0.50	0.00	0.75	0.00	0.50	0.75	1.00	1.75	1.25	1.50	1.25	0.50	1.00	0.639648	0.103516	1.214355	30.730000	-206.779999	-76.160004	107.00	0.18	-0.14
2.76	6.25	9.00	8.00	13.75	8.00	23.50	0.75	12.50	0.75	1.00	2.00	2.75	8.25	2.00	0.50	1.75	-0.192871	0.074707	0.957031	-1.190000	1.260000	-0.910000	1106.00	-0.13	-0.19	0.25	0.00	0.00	0.25	0.00	0.50	0.00	0.75	0.75	1.25	1.50	1.25	1.25	1.00	0.50	1.00	0.596191	0.134277	0.980469	27.580000	-226.660004	-59.150002	104.00	0.18	-0.14
2.77	6.00	8.50	7.50	13.25	7.75	23.75	0.75	12.75	1.00	1.00	2.00	2.75	8.50	2.00	0.50	1.75	-0.191895	0.065430	0.955566	-2.380000	0.980000	-1.190000	1097.00	-0.12	-0.19	0.00	0.00	0.00	0.25	0.00	0.75	0.00	0.75	0.00	1.00	1.50	1.00	1.25	1.25	0.25	1.00	0.533691	0.129883	0.875488	17.219999	-242.270004	-42.770000	89.00	0.17	-0.19
2.78	5.75	7.75	7.25	12.25	7.75	23.50	0.75	13.00	1.00	1.00	2.00	2.75	8.50	2.25	0.50	1.75	-0.197754	0.068359	0.949707	-3.080000	0.700000	-1.260000	1077.00	-0.11	-0.19	0.00	0.00	0.00	0.50	0.25	0.50	0.00	0.50	0.50	1.00	1.50	1.00	1.00	1.00	0.50	1.00	0.447754	0.113281	0.914062	5.320000	-259.700012	-25.410000	92.00	0.17	-0.14
2.79	5.25	7.50	7.00	11.75	7.75	23.25	0.75	13.00	0.75	1.00	2.00	3.00	8.50	2.00	0.75	1.75	-0.198242	0.067383	0.952148	-3.710000	0.980000	-1.470000	1059.00	-0.11	-0.20	0.00	0.00	0.00	0.00	0.00	0.75	0.00	0.75	0.25	0.75	1.50	1.00	1.25	1.00	0.50	1.00	0.370117	0.114258	0.945312	-8.820000	-279.230011	-9.030000	87.00	0.19	-0.18
2.80	5.00	7.00	7.00	11.25	7.75	23.00	0.75	13.00	1.00	1.00	2.00	3.00	8.75	2.25	0.75	1.75	-0.194824	0.062012	0.952148	-4.060000	1.190000	-1.610000	1051.00	-0.10	-0.20	0.00	0.00	0.00	0.00	0.00	0.50	0.00	0.75	0.50	0.75	1.50	0.75	1.00	1.25	0.25	0.75	0.246582	0.131836	0.987305	-22.469999	-299.320007	3.990000	81.00	0.20	-0.14
2.81	4.50	6.75	6.75	10.50	8.00	22.75	0.75	13.00	0.75	1.25	2.50	3.25	8.75	2.25	0.75	1.75	-0.195312	0.058594	0.958984	-4.130000	0.980000	-1.750000	1039.00	-0.10	-0.20	0.00	0.25	0.00	0.25	0.00	0.75	0.00	0.75	0.25	1.00	1.00	1.00	1.25	1.00	0.25	0.75	0.123047	0.196289	0.995605	-29.260000	-317.589996	13.020000	85.00	0.15	-0.18
2.82	4.25	6.50	6.50	9.75	8.00	22.75	0.75	13.00	1.00	1.25	2.50	3.25	9.00	2.25	0.75	2.00	-0.192871	0.064941	0.957031	-4.200000	0.700000	-1.960000	1030.00	-0.09	-0.20	0.00	0.25	0.00	0.25	0.00	0.75	0.00	0.75	0.00	0.75	1.25	0.50	1.25	1.25	0.50	0.75	-0.010254	0.231445	1.069336	-23.730000	-333.059998	17.500000	82.00	0.15	-0.19
2.83	4.00	6.25	6.25	9.25	8.00	22.75	0.75	13.00	0.75	1.50	2.50	3.50	9.00	2.50	0.75	2.00	-0.187500	0.061523	0.959473	-4.270000	0.770000	-2.100000	1021.00	-0.09	-0.20	0.00	0.00	0.00	0.25	0.00	0.75	0.00	0.75	0.00	0.75	1.25	0.75	1.00	1.00	0.25	0.75	-0.103516	0.280273	1.076172	-10.430000	-345.519989	18.760000	75.00	0.16	-0.20
2.84	3.75	5.75	6.25	9.00	8.00	22.25	0.75	13.00	1.00	1.50	2.50	3.50	9.25	2.50	0.75	2.00	-0.190430	0.062012	0.961914	-4.270000	1.120000	-2.380000	1011.00	-0.08	-0.20	0.25	0.00	0.00	0.50	0.25	0.75	0.00	0.75	0.25	0.50	1.00	0.50	1.25	1.00	0.50	0.75	-0.227539	0.291992	1.137207	4.620000	-351.750000	19.110001	83.00	0.12	-0.17
2.85	3.75	5.75	5.75	8.75	8.00	22.00	0.75	12.75	1.25	1.75	2.50	3.75	9.25	2.25	0.75	2.00	-0.189941	0.061523	0.956055	-4.270000	1.260000	-2.520000	1003.00	-0.08	-0.20	0.00	0.00	0.00	0.50	0.00	0.50	0.00	0.50	0.00	0.25	0.75	0.75	1.00	1.00	0.25	0.75	-0.446777	0.264648	1.139648	20.090000	-355.040009	20.440001	61.00	0.15	-0.21
2.86	3.25	5.50	5.75	8.25	8.25	21.75	1.00	12.75	1.25	1.50	2.75	4.25	9.25	2.75	1.00	2.25	-0.183105	0.054688	0.962402	-4.270000	1.120000	-2.660000	1007.00	-0.07	-0.20	0.00	0.00	0.00	0.25	0.00	0.75	0.00	0.50	0.00	0.50	0.75	0.75	0.75	1.00	0.25	0.75	-0.538574	0.194336	1.192383	34.650002	-353.570007	20.090000	61.00	0.16	-0.19
2.87	3.00	5.25	5.50	8.00	8.25	21.25	0.75	12.75	1.00	1.50	3.00	4.25	9.50	2.75	0.75	2.25	-0.191406	0.063477	0.953613	-4.200000	1.050000	-3.010000	987.00	-0.07	-0.20	0.00	0.00	0.00	0.25	0.00	0.75	0.00	0.50	0.25	0.50	0.75	0.75	1.25	1.00	0.25	0.75	-0.641113	0.066895	1.375488	44.450001	-342.720001	19.110001	69.00	0.16	-0.19
2.88	2.75	5.00	5.50	7.50	8.25	20.75	0.75	12.75	1.50	2.00	3.25	4.25	9.75	2.75	0.75	2.25	-0.187500	0.056641	0.952148	-4.620000	1.050000	-3.570000	987.00	-0.06	-0.20	0.00	0.25	0.00	0.25	0.00	0.75	0.00	0.75	0.50	0.50	0.75	0.75	1.00	1.00	0.25	0.75	-0.641113	0.066895	1.375488	44.450001	-342.720001	19.110001	76.00	0.14	-0.17
2.89	2.75	4.75	5.25	7.00	8.50	20.50	1.00	12.50	1.50	2.00	3.25	5.00	9.50	3.00	1.00	2.25	-0.179688	0.061523	0.951660	-5.040000	0.840000	-3.850000	987.00	-0.05	-0.20	0.00	0.00	0.00	0.75	0.00	0.50	0.00	0.75	0.00	0.50	0.75	0.50	0.50	1.00	0.25	0.50	-0.606445	0.067383	1.535645	30.730000	-345.869995	17.570000	62.00	0.12	-0.19
2.90	2.25	5.00	5.25	7.00	8.50	19.75	0.75	12.25	1.75	2.00	3.75	5.50	9.75	3.00	1.25	2.25	-0.184570	0.059082	0.958984	-5.320000	0.630000	-3.990000	987.00	-0.05	-0.20	0.00	0.25	0.00	0.25	0.25	0.50	0.00	0.75	0.25	0.00	0.75	0.50	0.75	0.75	0.50	0.50	-0.651855	0.097656	1.605469	29.750000	-350.140015	10.920000	62.00	0.12	-0.19
2.91	2.50	4.50	5.25	6.75	8.75	19.50	0.75	12.25	1.75	2.25	3.75	5.50	9.75	3.50	1.25	2.75	-0.180664	0.056152	0.954102	-5.110000	0.770000	-3.990000	992.00	-0.04	-0.19	0.25	0.00	0.00	0.50	0.25	0.50	0.00	0.75	0.00	0.25	0.75	0.50	1.00	0.75	0.25	0.75	-0.739258	0.110352	1.669434	37.660000	-353.779999	-0.910000	65.00	0.10	-0.21
2.92	2.25	4.25	5.00	6.50	8.50	19.00	1.00	12.00	2.00	2.25	4.50	6.00	10.00	3.50	1.25	2.75	-0.177246	0.064941	0.958496	-4.830000	1.050000	-3.920000	992.00	-0.03	-0.19	0.00	0.00	0.00	0.50	0.00	0.75	0.00	0.75	0.00	0.50	0.75	0.25	1.00	0.75	0.25	0.75	-0.856934	0.102539	1.723633	49.560001	-355.110016	-15.190001	63.00	0.12	-0.22
2.93	2.25	4.25	4.75	6.00	9.00	18.75	1.00	12.00	2.00	2.75	5.00	6.25	10.00	4.00	1.50	2.75	-0.180664	0.056152	0.955566	-4.480000	1.470000	-3.850000	1006.00	-0.02	-0.19	0.00	0.25	0.00	0.25	0.00	1.00	0.00	0.50	0.25	0.00	0.75	0.25	1.00	0.75	0.25	0.75	-0.977051	0.103027	1.754883	58.660000	-353.079987	-29.049999	59.00	0.11	-0.20
2.94	2.25	4.00	4.50	5.75	8.75	18.00	1.00	11.75	2.25	2.75	5.25	6.75	10.25	4.00	1.50	3.00	-0.179199	0.054199	0.958008	-3.710000	1.820000	-3.640000	999.00	-0.02	-0.19	0.00	0.25	0.00	0.25	0.00	0.75	0.00	0.75	0.00	0.00	0.50	0.25	0.75	0.75	0.25	0.75	-1.093750	0.128418	1.746582	62.160000	-347.200012	-40.599998	52.00	0.09	-0.24
2.95	2.00	4.00	4.00	5.75	8.50	17.75	1.00	12.00	2.25	3.00	6.25	7.00	10.50	4.00	1.50	3.25	-0.184570	0.056152	0.962402	-2.870000	2.450000	-3.570000	1008.00	-0.01	-0.19	0.00	0.25	0.00	0.25	0.00	0.75	0.00	0.75	0.00	0.00	0.50	0.25	1.00	0.75	0.25	0.50	-1.163086	0.211426	1.694336	60.200001	-337.119995	-48.930000	53.00	0.09	-0.25
2.96	2.00	4.00	4.00	5.25	8.50	17.50	1.00	12.00	2.50	3.50	7.00	7.50	10.75	4.25	1.50	3.25	-0.180664	0.055664	0.960938	-2.240000	3.080000	-3.500000	1026.00	-0.00	-0.19	0.00	0.00	0.00	0.50	0.00	0.75	0.00	0.75	0.00	0.00	0.50	0.25	0.75	0.75	0.25	0.50	-1.197754	0.317383	1.602051	56.000000	-322.489990	-52.709999	51.00	0.09	-0.24
2.97	2.25	3.50	3.75	5.00	8.25	17.00	1.00	11.75	2.75	3.50	7.50	7.75	11.00	4.75	1.75	3.50	-0.177246	0.055176	0.956055	-1.750000	3.850000	-3.220000	1028.00	0.01	-0.18	0.00	0.00	0.00	0.50	0.00	0.75	0.00	0.75	0.00	0.00	0.50	0.25	1.00	0.75	0.25	0.50	-1.216797	0.415039	1.575684	53.900002	-304.570007	-50.889999	53.00	0.09	-0.25
2.98	1.50	3.00	3.25	5.25	8.00	16.50	1.00	12.00	3.00	3.75	7.75	8.00	11.25	5.00	1.75	3.75	-0.177246	0.054688	0.958496	-1.050000	4.200000	-2.940000	1025.00	0.02	-0.19	0.00	0.25	0.00	0.75	0.00	0.50	0.00	0.50	0.00	0.25	0.50	0.25	0.75	0.50	0.25	0.50	-1.210938	0.497070	1.613281	62.230000	-286.720001	-44.099998	50.00	0.06	-0.22
2.99	2.00	3.25	2.75	4.50	7.50	16.00	1.00	12.00	3.00	4.25	8.25	8.50	11.50	4.50	1.75	3.75	-0.177734	0.055176	0.956543	-0.490000	4.830000	-3.010000	1021.00	0.02	-0.19	0.00	0.00	0.00	0.50	0.25	0.50	0.00	0.50	0.25	0.25	0.50	0.25	0.75	0.75	0.25	0.50	-1.192383	0.518555	1.689941	81.690002	-272.230011	-34.930000	53.00	0.12	-0.17
3.00	1.75	3.00	2.75	4.00	7.00	15.50	1.00	12.00	3.00	4.50	8.75	9.00	12.00	4.75	2.00	3.75	-0.175293	0.053223	0.960449	-0.140000	5.320000	-3.080000	1022.00	0.04	-0.19	0.00	0.00	0.00	0.50	0.25	0.75	0.00	0.75	0.00	0.00	0.50	0.00	1.00	0.75	0.25	0.50	-1.180664	0.492188	1.795410	108.849998	-262.290009	-23.590000	53.00	0.08	-0.23
3.01	1.50	2.50	2.25	4.00	6.50	14.75	0.75	12.00	3.25	5.50	9.25	9.50	12.50	5.00	2.00	4.00	-0.170410	0.053223	0.958984	-0.280000	6.230000	-3.570000	1024.00	0.05	-0.19	0.00	0.00	0.00	0.25	0.00	0.75	0.00	0.75	0.00	0.25	0.50	0.25	0.75	0.75	0.25	0.50	-1.170898	0.374023	1.887695	132.930008	-255.290009	-7.840000	51.00	0.12	-0.22
3.02	1.75	2.25	2.25	3.25	6.00	14.00	0.75	11.75	3.75	5.75	9.75	10.00	12.75	5.25	2.00	4.25	-0.176758	0.055176	0.960938	-0.210000	6.790000	-4.130000	1024.00	0.06	-0.19	0.00	0.00	0.00	0.50	0.00	0.75	0.00	0.75	0.00	0.25	0.75	0.25	1.00	0.75	0.25	0.50	-1.177734	0.198730	1.881348	145.180008	-249.970001	14.140000	59.00	0.10	-0.23
3.03	1.25	2.25	1.75	3.00	5.25	13.00	0.75	11.50	4.25	6.75	10.25	10.50	13.25	5.50	2.25	4.50	-0.185059	0.050293	0.962402	-0.000000	7.280000	-4.760000	1026.00	0.08	-0.18	0.00	0.25	0.00	0.50	0.00	0.50	0.00	0.75	0.00	0.25	0.50	0.25	0.50	0.75	0.25	0.75	-1.215332	0.052246	1.781738	145.600006	-244.089996	41.509998	53.00	0.09	-0.21
3.04	1.00	2.25	1.75	2.75	4.50	12.00	0.75	11.25	4.75	7.50	11.25	11.00	13.75	5.50	2.50	4.50	-0.182129	0.066895	0.959473	0.140000	8.190000	-5.390000	1034.00	0.09	-0.18	0.00	0.25	0.25	0.75	0.00	0.75	0.00	0.75	0.00	0.25	0.75	0.00	1.00	1.00	0.00	0.50	-1.271973	-0.113281	1.620605	139.720001	-236.389999	71.610001	63.00	0.05	-0.20
3.05	1.00	2.00	1.50	3.00	3.75	10.75	0.75	11.00	5.25	8.25	11.75	11.75	14.00	6.00	2.50	5.00	-0.173340	0.059570	0.956055	0.490000	10.220000	-5.950000	1043.00	0.10	-0.18	0.00	0.25	0.00	0.50	0.00	0.75	0.00	0.50	0.00	0.25	0.75	0.00	1.00	0.75	0.25	0.50	-1.382812	-0.294434	1.450195	130.690002	-226.869995	101.849998	54.00	0.09	-0.21
3.06	1.00	0.50	1.00	3.00	3.25	9.50	0.75	10.50	5.50	8.75	12.50	12.25	14.25	6.50	2.50	5.00	-0.180664	0.057617	0.965332	1.750000	15.470000	-7.420000	1025.00	0.12	-0.17	0.00	0.00	0.00	0.25	0.00	0.75	0.00	0.75	0.50	0.25	0.50	0.25	1.00	0.75	0.25	0.75	-1.583984	-0.457520	1.293457	114.940002	-213.919998	127.540001	61.00	0.14	-0.18
3.07	0.75	1.25	0.75	1.75	2.25	8.75	0.75	10.25	6.75	9.25	13.25	12.75	14.75	7.00	2.50	5.00	-0.180664	0.057617	0.965332	1.750000	15.470000	-7.420000	1033.00	0.13	-0.17	0.25	0.25	0.00	0.75	0.00	0.75	0.00	0.50	0.00	0.25	0.75	0.25	1.00	0.75	0.25	0.50	-1.816895	-0.567383	1.110840	87.430000	-196.070007	143.220001	62.00	0.05	-0.20
3.08	0.50	1.00	1.00	2.00	1.50	7.75	0.75	9.75	7.75	10.00	14.00	13.50	14.75	7.75	2.50	5.00	-0.182129	0.058105	0.968750	3.150000	18.340000	-8.540000	1050.00	0.14	-0.16	0.00	0.00	0.00	0.25	0.00	0.75	0.00	0.75	0.00	0.25	0.50	0.25	0.75	0.75	0.25	0.50	-2.139160	-0.547363	0.814941	58.660000	-174.649994	148.190002	51.00	0.12	-0.22
3.09	0.50	0.50	0.75	2.00	1.25	6.75	0.50	9.25	8.50	10.50	14.75	14.00	14.75	8.00	2.50	5.00	-0.196289	0.059082	0.973633	7.560000	26.320000	-9.100000	1048.00	0.16	-0.15	0.00	0.00	0.00	0.25	0.00	1.00	0.00	0.75	0.25	0.00	0.50	0.50	1.00	0.75	0.00	0.50	-3.289551	-0.493652	0.396484	50.400002	-123.129997	119.629997	57.00	0.10	-0.23
3.10	0.25	0.75	0.75	1.75	1.00	6.25	0.50	8.75	9.50	11.25	15.25	14.50	14.75	9.00	3.00	5.25	-0.202637	0.061035	0.979492	17.500000	42.490002	-7.210000	1076.00	0.17	-0.14	0.00	0.25	0.00	0.50	0.00	0.75	0.00	0.75	0.00	0.25	0.50	0.25	0.75	0.75	0.25	0.50	-3.450195	-0.634277	0.100098	72.870003	-84.000000	87.570000	56.00	0.08	-0.22
3.11	0.00	0.50	0.25	1.75	0.75	5.75	0.75	8.25	10.00	11.75	16.25	15.00	14.50	9.50	2.75	5.00	-0.208984	0.065918	0.986328	27.510000	61.670002	-6.090000	1079.00	0.18	-0.13	0.00	0.00	0.00	0.50	0.00	0.75	0.00	0.75	0.25	0.25	0.75	0.50	1.00	0.75	0.25	0.50	-3.233398	-0.865723	-0.033691	80.360001	-29.120001	52.779999	64.00	0.12	-0.21
3.12	0.50	1.00	0.25	2.00	0.75	5.50	0.50	8.00	10.75	12.25	16.50	15.00	14.25	10.00	3.00	5.25	-0.232910	0.066895	0.981934	37.520000	84.559998	-4.620000	1105.00	0.18	-0.13	0.00	0.25	0.00	0.50	0.00	0.75	0.00	0.50	0.00	0.00	0.75	0.50	0.75	0.75	0.25	0.50	-2.794922	-1.022461	0.017578	47.810001	31.850000	20.230000	55.00	0.09	-0.22
3.13	0.00	0.75	0.00	1.25	0.50	4.75	0.50	7.25	11.00	12.75	17.25	15.50	14.00	10.75	3.00	5.25	-0.259766	0.077148	1.010742	42.560001	113.190002	-3.640000	1090.00	0.19	-0.12	0.00	0.00	0.00	0.50	0.25	0.50	0.00	0.75	0.00	0.25	0.75	0.50	0.75	0.75	0.00	0.50	-5.231445	-1.213379	-0.331055	-17.500000	73.080002	-3.220000	56.00	0.09	-0.21
3.14	0.25	0.75	0.25	1.00	0.50	4.00	0.50	6.50	11.75	13.25	17.75	15.75	13.50	11.25	3.00	5.25	-0.277344	0.091797	1.025391	41.650002	147.770004	-3.920000	1096.00	0.20	-0.11	0.50	0.75	0.25	0.75	0.25	0.75	0.00	0.75	0.00	0.25	0.50	0.50	0.75	0.75	0.25	0.50	0.565430	-0.504883	0.078125	-48.930000	219.240005	-7.350000	77.00	-0.01	-0.18
3.15	0.00	0.00	0.00	1.25	0.50	3.25	0.50	5.75	12.25	13.50	18.25	16.00	12.75	12.00	2.75	5.25	-0.297363	0.082031	1.054199	33.389999	188.649994	-7.140000	1081.00	0.21	-0.10	1.00	1.00	0.50	0.75	0.25	0.25	0.00	0.50	0.00	0.25	1.00	0.00	0.75	0.25	0.25	0.50	0.562500	0.264160	1.302246	-111.790001	224.490005	-32.830002	73.00	-0.08	-0.14
3.16	0.25	0.00	0.00	1.25	0.50	2.75	0.50	5.25	12.50	13.75	18.25	15.75	12.00	12.50	3.00	5.25	-0.355469	0.121094	1.109375	22.889999	227.360001	-10.010000	1074.00	0.21	-0.09	2.00	2.25	0.75	1.50	0.25	0.50	0.00	0.50	0.00	0.50	0.75	0.50	1.00	0.75	0.25	0.50	0.649902	0.553711	2.503418	-97.440002	175.630005	-34.930000	121.00	-0.12	-0.12
3.17	0.00	0.00	0.00	0.75	0.25	2.75	0.50	4.50	12.75	13.75	18.50	15.50	11.25	13.25	3.25	5.25	-0.383301	0.124512	1.130859	13.860000	262.570007	-14.350000	1058.00	0.22	-0.08	6.50	8.25	1.25	2.50	0.25	0.50	0.00	0.50	0.00	0.50	1.00	0.50	1.00	0.75	0.25	0.75	0.450684	0.392090	0.624512	-68.879997	131.529999	-21.980000	243.00	-0.25	-0.09
3.18	0.00	0.25	0.00	0.75	0.25	2.25	0.50	3.75	12.75	14.00	18.25	15.00	10.00	13.50	3.00	5.25	-0.417480	0.130859	1.158203	7.840000	290.500000	-19.740000	1026.00	0.23	-0.07	12.75	13.25	2.25	4.75	0.25	0.50	0.00	1.00	0.00	0.50	1.25	0.50	1.25	0.75	0.25	0.50	-0.468750	0.206543	-0.133301	-38.150002	210.000000	-4.690000	401.00	-0.29	-0.08
3.19	0.00	0.25	0.00	0.75	0.25	2.00	0.50	3.25	12.50	14.00	18.00	14.50	9.25	13.75	2.75	5.00	-0.476074	0.138672	1.218262	4.410000	317.660004	-26.110001	996.00	0.23	-0.07	16.75	15.25	3.00	6.00	0.25	1.00	0.00	0.75	0.00	0.50	1.25	0.75	1.25	1.00	0.25	0.75	-0.541992	-0.021973	1.963379	-48.650002	351.679993	1.960000	490.00	-0.29	-0.07
3.20	0.00	0.00	0.00	0.25	0.25	1.50	0.50	2.25	12.25	13.75	17.75	13.75	8.00	14.00	2.75	5.00	-0.533691	0.141602	1.217285	1.890000	348.950012	-32.619999	943.00	0.24	-0.05	19.00	17.00	4.25	8.75	0.75	2.25	0.00	1.00	0.00	0.50	1.25	1.00	1.25	1.00	0.25	0.75	-0.410156	0.050781	3.332520	-60.760002	339.010010	-2.940000	599.00	-0.29	-0.07
3.21	0.00	0.00	0.00	0.00	0.25	1.25	0.75	2.00	11.75	13.75	17.50	13.25	7.25	14.00	3.00	5.00	-0.577148	0.163086	1.250000	-4.200000	385.700012	-40.670002	919.00	0.24	-0.05	20.00	16.75	6.50	10.25	1.25	4.00	0.00	1.25	0.00	0.00	1.00	0.75	1.25	1.00	0.25	0.75	-0.624512	-0.023438	2.833496	-53.060001	272.510010	-8.540000	667.00	-0.29	-0.07
3.22	0.00	0.00	0.75	0.00	0.00	1.25	0.75	1.50	11.25	13.25	16.75	12.25	6.50	13.75	2.50	5.00	-0.648438	0.174316	1.289062	-13.580000	427.279999	-48.930000	873.00	0.24	-0.04	19.75	16.50	7.50	11.25	1.75	6.50	0.00	1.50	0.00	0.50	1.25	1.25	1.25	1.00	0.50	0.75	-0.293945	0.126953	1.991211	-13.860000	225.050003	-7.770000	736.00	-0.27	-0.08
3.23	0.00	0.00	0.00	0.00	0.25	0.75	0.75	1.25	10.00	12.25	15.50	11.25	5.75	13.50	2.75	4.50	-0.747070	0.163086	1.349609	-22.820000	466.130005	-56.560001	799.00	0.25	-0.04	19.00	16.25	8.25	12.25	2.25	7.75	0.25	1.75	0.00	0.00	1.50	1.25	1.75	1.00	0.25	0.75	-0.208496	0.281250	1.528809	7.770000	179.479996	-2.310000	771.00	-0.27	-0.09
3.24	0.00	0.00	0.00	0.00	0.00	0.50	1.00	0.75	8.50	10.50	13.50	9.75	5.25	13.50	2.00	3.75	-0.946777	0.189941	1.448242	-33.529999	502.320007	-63.349998	699.00	0.26	-0.03	18.50	15.75	8.50	12.75	2.75	8.75	0.25	2.25	0.00	0.50	1.50	1.50	1.75	1.00	0.50	0.75	-0.138184	0.247559	1.242676	-18.830000	128.800003	5.110000	804.00	-0.25	-0.09
3.25	0.00	0.00	0.00	0.00	0.00	0.25	1.00	0.75	7.25	8.75	11.00	8.50	4.75	12.75	1.25	3.00	-1.328125	0.157715	1.615723	-44.590000	528.710022	-69.090004	599.00	0.26	-0.03	18.00	15.50	9.00	13.25	3.50	9.75	0.25	2.75	0.00	0.50	1.50	1.75	1.75	1.25	0.50	1.00	-0.169922	0.038086	1.135742	-38.080002	98.840004	9.450000	841.00	-0.24	-0.10
3.26	0.00	0.00	0.00	0.00	0.00	0.50	0.75	0.50	5.00	7.50	9.00	7.25	3.50	11.75	1.00	2.00	-1.928223	0.185059	2.210449	-55.580002	537.739990	-67.620003	490.00	0.26	-0.03	18.00	16.00	9.50	13.75	4.25	10.50	0.50	3.25	0.25	0.50	1.50	1.50	2.00	1.00	0.50	1.00	-0.138672	0.046387	1.189941	-49.560001	77.279999	4.410000	885.00	-0.24	-0.10
3.27	0.00	0.00	0.00	0.00	0.00	0.00	0.50	0.00	4.00	5.50	7.50	6.00	2.75	10.25	1.00	1.50	-2.364746	0.377930	2.454590	-57.119999	532.630005	-55.230000	389.00	0.27	-0.02	18.50	16.00	9.75	14.25	5.00	11.50	0.50	3.75	0.25	0.50	1.50	1.50	2.50	1.00	0.50	1.25	-0.162598	0.118164	1.104980	-53.410000	55.790001	-0.070000	931.00	-0.23	-0.10
3.28	0.00	0.00	0.25	0.00	0.00	0.00	0.50	0.00	2.75	4.25	6.25	5.00	2.50	9.00	0.75	1.25	-2.087402	0.197754	2.365234	-33.740002	515.690002	-42.000000	322.00	0.27	-0.02	18.75	16.50	10.25	14.75	5.50	12.50	0.50	4.50	0.25	0.75	1.50	1.50	2.50	1.25	0.50	1.25	-0.162598	0.123535	1.121094	-61.810001	36.189999	1.120000	982.00	-0.23	-0.11
3.29	0.00	0.00	0.00	0.00	0.00	0.00	0.25	0.00	2.50	4.25	4.75	5.00	2.25	8.00	0.25	1.00	-1.658691	0.012207	2.603027	-17.150000	488.950012	-42.279999	279.00	0.27	-0.03	19.25	16.75	10.75	15.00	6.00	13.00	0.50	5.00	0.00	0.50	1.50	1.50	2.25	1.00	0.50	1.25	-0.147949	0.084473	1.012207	-56.139999	2.730000	0.910000	1006.00	-0.23	-0.11
3.30	0.00	0.25	0.00	0.00	0.00	0.00	0.25	0.00	1.75	3.50	4.25	3.75	2.00	6.75	0.50	1.00	-1.788086	0.369629	2.426270	-12.950000	461.440002	-46.689999	235.00	0.27	-0.03	20.00	17.00	11.00	15.50	6.25	13.50	0.50	5.25	0.00	0.50	1.50	1.50	2.50	1.25	0.50	1.25	-0.140137	0.077148	1.004883	-46.480000	-3.500000	0.420000	1040.00	-0.23	-0.11
3.31	0.00	0.00	0.00	0.50	0.00	0.00	0.00	0.00	2.00	3.00	3.50	3.25	2.00	5.25	0.50	1.00	-0.449707	0.688477	2.968262	33.250000	387.100006	-56.490002	207.00	0.26	-0.04	20.75	17.00	11.50	15.75	6.75	14.00	0.50	5.25	0.25	0.50	1.50	1.50	2.75	1.25	0.50	1.50	-0.135742	0.066406	1.005371	-39.200001	-6.230000	0.770000	1074.00	-0.23	-0.11
3.32	0.00	0.00	0.00	0.00	0.00	0.00	0.00	0.00	1.50	2.75	2.75	2.25	1.50	1.75	0.50	0.50	0.376465	0.530273	2.859375	65.169998	334.390015	-59.290001	137.00	0.25	-0.06	21.00	17.50	11.75	16.00	7.00	14.50	0.50	5.50	0.00	0.50	1.50	1.50	2.50	1.25	0.75	1.50	-0.129883	0.062988	0.994629	-32.900002	-8.470000	0.700000	1096.00	-0.23	-0.11
3.33	0.00	0.00	0.25	0.00	0.00	0.25	0.00	0.00	1.50	1.75	2.00	2.00	1.25	1.00	0.25	0.50	1.877930	0.404297	2.368164	92.889999	287.000000	-66.570000	110.00	0.22	-0.07	21.00	17.75	12.00	16.25	7.25	15.00	0.75	6.00	0.25	0.75	1.50	1.50	2.75	1.25	0.50	1.50	-0.133789	0.058594	0.997559	-28.280001	-9.660000	0.910000	1129.00	-0.23	-0.11
3.34	0.00	0.50	0.00	0.00	0.00	0.00	0.00	0.00	1.00	1.75	2.25	2.00	1.25	0.75	0.00	0.50	2.100098	0.589355	1.043945	50.470001	272.860016	-69.090004	101.00	0.21	-0.10	21.00	17.50	12.25	16.25	7.50	15.25	0.75	6.25	0.50	0.75	1.50	1.75	2.75	1.50	0.50	1.75	-0.137207	0.057617	0.991211	-18.830000	-9.590000	1.120000	1148.00	-0.22	-0.11
3.35	0.00	0.00	0.00	0.00	0.00	0.00	0.00	0.00	1.00	2.00	1.75	1.50	1.00	0.75	0.00	0.00	1.680176	0.434570	3.689453	-3.080000	85.330002	-59.220001	83.00	0.24	-0.06	20.75	17.00	12.25	16.00	7.75	15.75	0.75	6.50	0.25	0.50	1.75	1.75	2.50	1.50	0.50	1.50	-0.132324	0.051758	0.995117	-12.180000	-9.240000	1.330000	1143.00	-0.22	-0.11
3.36	0.00	0.00	0.00	0.00	0.00	0.00	0.00	0.00	1.25	1.50	1.75	1.00	0.75	0.50	0.25	0.25	1.296387	0.438965	2.369141	0.210000	-139.440002	-34.930000	76.00	0.25	-0.03	20.00	17.00	12.00	15.75	7.75	16.00	0.75	6.75	0.00	0.75	1.50	1.75	3.00	1.25	0.75	1.75	-0.134766	0.050781	0.987793	-7.140000	-8.680000	1.960000	1139.00	-0.22	-0.11
3.37	0.00	0.00	0.00	0.00	0.00	0.00	0.00	0.00	0.25	1.50	1.50	1.00	0.75	0.50	0.00	0.25	0.762695	0.308594	1.751465	-14.140000	-250.529999	-21.910000	57.00	0.24	-0.10	19.25	16.25	11.75	15.75	8.00	16.25	0.75	7.00	0.25	0.75	1.75	1.75	3.25	1.50	0.50	2.00	-0.124023	0.053223	0.991699	-4.480000	-8.190000	2.590000	1140.00	-0.21	-0.12
3.38	0.00	0.00	0.00	0.00	0.00	0.00	0.00	0.00	0.75	1.00	1.25	1.00	0.75	0.75	0.00	0.25	0.464844	0.240723	1.260254	-21.350000	-293.089996	-10.500000	58.00	0.25	-0.06	18.00	15.50	11.50	15.50	7.75	16.50	0.75	7.50	0.25	0.75	1.75	2.00	3.50	1.25	0.75	2.00	-0.128418	0.048828	0.991211	-3.150000	-7.210000	3.150000	1128.00	-0.20	-0.12
3.39	0.00	0.00	0.00	0.00	0.00	0.00	0.00	0.00	1.00	1.25	1.25	1.00	0.50	0.75	0.00	0.25	0.394531	0.237305	0.789062	-21.420000	-303.380005	-0.980000	62.00	0.25	-0.02	16.25	14.75	10.75	15.00	7.50	16.50	0.75	7.75	0.50	0.50	1.75	1.75	3.50	1.25	0.75	2.00	-0.131348	0.054199	0.982422	-2.100000	-6.440000	3.570000	1088.00	-0.20	-0.13
3.40	0.00	0.00	0.00	0.00	0.00	0.00	0.00	0.00	0.50	1.25	1.25	0.75	0.50	0.25	0.00	0.25	0.308594	0.258789	0.634766	-20.860001	-301.700012	5.600000	48.00	0.00	0.00	14.50	14.00	10.25	14.50	7.50	16.75	0.75	8.00	0.25	0.75	2.00	2.00	4.00	1.50	0.50	2.25	-0.129883	0.052734	0.987305	-1.890000	-6.440000	3.990000	1068.00	-0.19	-0.14
3.41	0.00	0.00	0.00	0.00	0.00	0.25	0.00	0.00	0.50	0.50	1.25	0.50	0.50	0.50	0.25	0.25	0.239746	0.247559	0.586914	-13.580000	-305.130005	12.880000	45.00	0.00	0.00	13.25	13.00	10.00	14.25	7.50	16.75	0.75	8.25	0.50	0.75	2.00	2.00	4.25	1.25	1.00	2.25	-0.125977	0.055664	0.989258	-2.240000	-6.650000	3.920000	1053.00	-0.18	-0.14
3.42	0.00	0.00	0.00	0.00	0.00	0.00	0.00	0.00	0.25	0.50	1.25	0.25	0.50	0.25	0.25	0.25	0.181152	0.183594	0.666504	-6.440000	-312.269989	20.440001	35.00	0.00	0.00	12.25	12.50	9.50	14.00	7.50	17.00	0.75	8.50	0.50	1.00	2.00	2.25	4.75	1.50	0.75	2.50	-0.129395	0.057617	0.985840	-2.940000	-7.070000	3.430000	1047.00	-0.17	-0.15
3.43	0.00	0.25	0.00	0.00	0.00	0.00	0.00	0.00	0.50	0.75	1.00	0.50	0.50	0.00	0.00	0.25	0.110352	0.100098	0.802734	-6.300000	-321.510010	27.790001	38.00	0.00	0.00	11.00	11.75	9.25	13.50	7.25	17.00	0.75	8.75	0.50	1.00	2.25	2.25	5.00	1.50	0.75	2.50	-0.124512	0.052246	0.985352	-3.570000	-7.980000	2.800000	1024.00	-0.16	-0.15
3.44	0.00	0.00	0.00	0.00	0.00	0.00	0.00	0.00	0.75	1.00	1.00	0.25	0.50	0.00	0.00	0.25	0.012695	0.048828	0.992676	-12.320000	-332.850006	33.599998	39.00	0.00	0.00	10.00	11.25	9.00	13.25	7.50	17.25	0.75	9.25	0.75	1.25	2.25	2.50	5.00	1.50	0.75	2.50	-0.122559	0.051270	0.992188	-4.130000	-8.470000	2.030000	1025.00	-0.15	-0.15
3.45	0.00	0.00	0.00	0.00	0.00	0.00	0.00	0.00	0.25	0.50	1.00	0.25	0.50	0.00	0.00	0.00	-0.083496	0.035156	1.182129	-20.790001	-346.079987	35.910000	26.00	0.00	0.00	9.25	10.50	9.00	13.00	7.50	17.50	0.75	9.25	0.25	1.25	2.00	2.50	5.25	1.50	1.00	2.75	-0.124023	0.058594	0.983398	-4.130000	-8.960000	1.400000	1008.00	-0.15	-0.16
3.46	0.00	0.50	0.00	0.00	0.00	0.00	0.00	0.00	0.25	0.50	0.75	0.50	0.50	0.00	0.00	0.00	-0.189453	0.104004	1.354492	-23.870001	-362.250000	33.110001	31.00	0.00	0.00	9.00	10.00	8.50	12.50	7.75	17.75	0.75	9.50	0.75	1.00	2.25	2.75	5.50	1.50	1.00	2.50	-0.121582	0.053711	0.986328	-3.780000	-9.100000	1.120000	1009.00	-0.14	-0.16
3.47	0.00	0.00	0.00	0.00	0.00	0.00	0.00	0.00	0.25	0.75	0.75	0.25	0.50	0.00	0.25	0.00	-0.324707	0.184082	1.476562	-17.990000	-379.329987	24.219999	29.00	0.00	0.00	8.25	9.50	8.50	12.50	7.75	18.00	0.75	9.75	0.75	1.25	2.50	2.75	5.75	1.50	1.00	2.75	-0.116211	0.053223	0.988281	-3.500000	-8.820000	0.840000	1012.00	-0.13	-0.16
3.48	0.00	0.00	0.00	0.00	0.00	0.00	0.00	0.00	0.25	0.75	0.75	0.00	0.25	0.00	0.00	0.00	-0.473633	0.253906	1.562988	-2.730000	-393.820007	10.990000	21.00	0.00	0.00	8.00	9.00	8.25	12.00	7.75	18.00	0.75	10.00	0.25	1.25	2.75	2.75	6.25	1.50	1.25	2.75	-0.121094	0.054199	0.990723	-3.290000	-8.540000	0.840000	1003.00	-0.13	-0.17
3.49	0.00	0.00	0.00	0.00	0.00	0.00	0.00	0.00	0.50	0.50	0.75	0.25	0.25	0.00	0.00	0.00	-0.932617	0.232910	1.410156	58.590000	-404.390015	-14.490000	24.00	0.00	0.00	7.50	8.75	8.00	11.75	7.75	18.25	1.00	10.25	0.50	1.50	2.75	3.00	6.75	1.75	1.00	3.00	-0.120605	0.056152	0.995117	-2.660000	-7.350000	0.980000	1014.00	-0.12	-0.17
3.50	0.00	0.00	0.00	0.00	0.00	0.00	0.00	0.00	0.00	0.50	0.25	0.00	0.25	0.25	0.00	0.00	-0.932617	0.232910	1.410156	58.590000	-404.390015	-14.490000	12.00	0.00	0.00	6.75	8.25	7.75	11.25	7.75	18.00	1.00	10.50	1.00	1.50	2.75	3.00	6.75	1.75	1.25	3.00	-0.114746	0.053223	0.991211	-2.730000	-7.280000	0.980000	1004.00	-0.11	-0.17
3.51	0.00	0.00	0.00	0.00	0.00	0.00	0.00	0.00	0.25	0.50	0.75	0.00	0.50	0.00	0.00	0.25	-1.038574	0.094727	1.318848	91.840004	-395.570007	-24.990000	22.00	0.00	0.00	6.25	7.50	7.50	11.00	7.75	18.25	1.00	10.50	1.00	1.75	3.00	3.50	7.50	1.75	1.50	3.25	-0.115234	0.059570	0.996094	-3.150000	-7.350000	0.700000	1010.00	-0.10	-0.17
3.52	0.00	0.00	0.00	0.00	0.00	0.00	0.00	0.00	0.50	0.25	0.25	0.00	0.25	0.00	0.00	0.25	-1.137695	-0.159180	1.340820	103.180000	-365.959991	-33.250000	15.00	0.00	0.00	5.75	7.00	7.00	10.50	7.75	18.00	1.00	10.75	0.75	1.50	3.25	3.75	7.75	1.75	1.50	3.25	-0.118164	0.056152	0.992188	-4.690000	-7.700000	0.070000	992.00	-0.09	-0.18
3.53	0.00	0.00	0.00	0.00	0.00	0.00	0.00	0.00	0.25	0.50	0.50	0.00	0.25	0.00	0.00	0.00	-1.162598	-0.208984	1.433594	88.760002	-351.750000	-33.389999	16.00	0.00	0.00	5.50	6.75	7.00	10.25	8.00	18.00	1.00	10.75	1.00	1.75	3.50	4.00	7.75	2.00	1.25	3.25	-0.113281	0.060547	0.992676	-6.370000	-8.260000	-0.700000	997.00	-0.09	-0.18
3.54	0.00	0.00	0.00	0.00	0.00	0.00	0.00	0.00	0.25	0.00	0.50	0.00	0.25	0.00	0.00	0.00	-1.246094	-0.167480	1.595215	74.620003	-339.429993	-38.080002	11.00	0.00	0.00	5.00	6.25	6.50	9.75	8.00	17.50	1.00	10.50	1.25	2.00	3.75	4.25	8.00	2.25	1.50	3.50	-0.116211	0.065430	0.994629	-7.910000	-8.820000	-1.750000	987.00	-0.08	-0.18
3.55	0.00	0.25	0.00	0.00	0.00	0.00	0.00	0.00	0.25	0.25	0.25	0.00	0.25	0.00	0.00	0.00	-1.387695	-0.117188	1.750488	73.290001	-330.820007	-48.650002	13.00	0.00	0.00	4.75	6.00	6.50	9.25	8.25	17.00	1.00	10.50	1.50	2.50	3.75	4.50	8.00	2.50	1.50	3.75	-0.112305	0.054199	0.989746	-9.800000	-9.310000	-2.660000	988.00	-0.07	-0.17
3.56	0.00	0.00	0.00	0.00	0.00	0.00	0.00	0.00	0.25	0.50	0.25	0.00	0.25	0.25	0.00	0.00	-1.579590	-0.062988	1.718750	79.940002	-323.679993	-61.320000	15.00	0.00	0.00	4.75	5.75	6.25	9.00	8.50	16.50	1.25	10.25	1.50	2.25	4.50	4.50	8.25	2.50	1.50	3.75	-0.113770	0.059082	0.994629	-11.200000	-9.730000	-3.360000	985.00	-0.06	-0.17
3.57	0.00	0.00	0.00	0.00	0.00	0.00	0.00	0.00	0.00	0.50	0.50	0.00	0.25	0.00	0.00	0.00	-1.709961	0.023926	1.570801	83.300003	-311.360016	-71.120003	13.00	0.00	0.00	4.50	5.75	6.25	8.75	9.00	16.00	1.25	10.25	2.00	2.75	4.75	5.00	8.00	3.00	2.00	3.75	-0.112793	0.052246	0.991699	-11.690000	-9.590000	-3.780000	1007.00	-0.05	-0.16
3.58	0.00	0.25	0.00	0.00	0.00	0.00	0.00	0.00	0.00	0.25	0.25	0.00	0.00	0.00	0.00	0.00	-1.646484	0.110840	1.321289	78.050003	-289.380005	-75.459999	8.00	0.00	0.00	4.25	5.50	5.75	8.50	9.25	15.50	1.75	10.00	2.25	3.25	5.25	5.00	8.25	3.25	2.00	4.50	-0.115723	0.054688	0.996582	-11.550000	-9.100000	-3.780000	1017.00	-0.04	-0.16
3.59	0.00	0.00	0.00	0.00	0.00	0.00	0.00	0.00	0.50	0.00	0.25	0.00	0.25	0.00	0.00	0.00	-1.517090	0.234375	1.127441	66.779999	-260.329987	-73.500000	11.00	0.00	0.00	4.50	5.25	6.00	8.25	9.50	15.00	1.75	9.75	3.00	3.50	6.00	5.25	8.00	4.25	2.25	4.50	-0.122559	0.046875	0.987305	-10.920000	-8.330000	-3.570000	1042.00	-0.03	-0.15
3.60	0.00	0.00	0.00	0.00	0.00	0.00	0.00	0.00	0.00	0.25	0.25	0.00	0.00	0.00	0.00	0.00	-1.355957	0.368164	1.074707	56.349998	-230.089996	-65.590004	5.00	0.00	0.00	4.00	5.00	5.75	7.75	9.75	14.50	2.00	9.75	3.50	4.25	7.00	6.00	8.25	4.25	2.25	4.75	-0.113281	0.046875	0.998047	-10.010000	-7.630000	-3.220000	1064.00	-0.02	-0.14
3.61	0.00	0.25	0.00	0.00	0.00	0.00	0.00	0.00	0.00	0.25	0.25	0.00	0.00	0.00	0.00	0.00	-1.269531	0.505371	1.157227	54.110001	-203.279999	-53.619999	8.00	0.00	0.00	4.00	5.00	5.50	7.75	9.50	14.00	2.25	9.50	4.50	5.50	8.00	6.50	8.25	4.75	2.50	5.00	-0.119141	0.045410	1.001953	-9.100000	-6.720000	-2.800000	1103.00	-0.00	-0.13
3.62	0.00	0.00	0.00	0.00	0.00	0.00	0.00	0.00	0.25	0.25	0.25	0.00	0.25	0.00	0.00	0.00	-1.186035	0.632812	1.246094	69.370003	-180.180008	-38.500000	11.00	0.00	0.00	4.00	4.75	5.25	7.25	9.50	13.50	2.50	9.50	5.50	6.50	8.25	7.25	8.25	5.50	2.50	5.00	-0.108887	0.043457	0.998535	-7.630000	-5.880000	-2.380000	1131.00	0.01	-0.12
3.63	0.00	0.00	0.00	0.00	0.00	0.00	0.00	0.00	0.25	0.00	0.25	0.00	0.00	0.00	0.00	0.00	-1.094727	0.639160	1.331055	99.470001	-164.220001	-17.430000	6.00	0.00	0.00	3.50	4.75	5.25	6.75	9.25	13.00	2.75	9.25	6.25	7.50	8.75	7.75	8.50	5.75	2.75	5.25	-0.110352	0.046387	0.998047	-6.230000	-4.690000	-1.890000	1151.00	0.03	-0.12
3.64	0.00	0.00	0.00	0.00	0.00	0.00	0.00	0.00	0.25	0.25	0.50	0.00	0.00	0.00	0.00	0.00	-1.030762	0.535645	1.453613	130.759995	-158.479996	11.130000	11.00	0.00	0.00	3.50	4.50	4.75	6.50	8.75	12.25	3.00	9.25	7.25	8.25	9.25	8.25	8.75	6.25	2.75	5.25	-0.116699	0.041016	0.999023	-5.040000	-3.640000	-1.540000	1169.00	0.04	-0.11
3.65	0.00	0.00	0.00	0.00	0.00	0.00	0.00	0.00	0.00	0.25	0.00	0.00	0.25	0.25	0.00	0.00	-1.014160	0.345215	1.534180	149.520004	-158.899994	46.900002	7.00	0.00	0.00	2.75	3.75	4.50	5.75	8.00	11.50	3.00	9.25	7.75	8.75	10.00	8.50	8.75	7.00	3.00	5.50	-0.114746	0.042480	1.001953	-3.710000	-2.240000	-1.330000	1159.00	0.06	-0.11
3.66	0.00	0.00	0.00	0.00	0.00	0.00	0.00	0.00	0.00	0.25	0.25	0.00	0.00	0.25	0.00	0.00	-1.031250	0.169434	1.582031	148.330002	-160.930008	87.360001	7.00	0.00	0.00	2.75	3.50	4.00	5.50	7.25	10.75	3.00	9.00	8.50	9.50	10.50	8.75	9.00	7.00	3.25	5.75	-0.110352	0.045410	1.004395	-2.450000	-0.280000	-1.190000	1160.00	0.07	-0.11
3.67	0.00	0.25	0.00	0.00	0.00	0.00	0.00	0.00	0.50	0.00	0.25	0.00	0.00	0.00	0.00	0.00	-1.108887	0.065918	1.629883	132.860001	-164.570007	130.410004	11.00	0.00	0.00	2.75	3.25	3.50	5.25	6.50	10.00	3.25	8.75	9.00	10.00	11.25	9.25	9.25	7.75	3.25	6.25	-0.122070	0.054199	1.000977	-1.610000	1.750000	-1.540000	1169.00	0.08	-0.10
3.68	0.00	0.00	0.00	0.00	0.00	0.00	0.00	0.00	0.00	0.00	0.25	0.00	0.00	0.25	0.00	0.00	-1.251953	-0.028809	1.589355	112.349998	-170.169998	173.039993	5.00	0.00	0.00	2.25	3.50	2.75	5.00	5.50	9.25	3.25	8.75	9.75	10.50	12.00	9.75	9.25	8.00	3.50	6.25	-0.114258	0.053223	0.994629	-0.840000	4.130000	-2.240000	1169.00	0.09	-0.10
3.69	0.00	0.00	0.00	0.00	0.00	0.00	0.00	0.00	0.00	0.00	0.00	0.00	0.25	0.00	0.00	0.00	-1.459961	-0.111328	1.389648	92.889999	-175.839996	211.399994	2.00	0.00	0.00	2.50	2.50	2.50	4.50	4.50	8.25	3.25	8.50	10.25	11.25	12.75	10.25	9.50	8.50	3.50	6.25	-0.106934	0.049316	1.011230	2.520000	13.230000	-4.130000	1162.00	0.11	-0.10
3.70	0.00	0.00	0.00	0.00	0.00	0.00	0.00	0.00	0.00	0.00	0.25	0.00	0.00	0.00	0.00	0.00	-1.710938	-0.235840	1.132812	73.570000	-175.839996	238.490005	3.00	0.00	0.00	2.25	2.50	2.00	4.75	3.25	7.50	3.25	8.00	11.25	12.00	13.25	10.75	9.50	8.75	3.75	6.25	-0.111328	0.058594	1.009277	4.410000	20.160000	-6.090000	1164.00	0.12	-0.09
3.71	0.00	0.00	0.00	0.00	0.00	0.00	0.00	0.00	0.25	0.25	0.50	0.00	0.00	0.00	0.00	0.00	-1.974609	-0.333008	0.834961	51.099998	-165.970001	248.850006	11.00	0.00	0.00	2.25	2.25	2.00	4.25	2.25	6.75	3.00	7.50	12.25	12.50	14.00	11.00	9.50	9.50	3.75	6.50	-0.124023	0.060059	0.992676	6.370000	26.180000	-8.190000	1162.00	0.13	-0.08
3.72	0.00	0.00	0.00	0.00	0.00	0.00	0.00	0.00	0.25	0.25	0.50	0.00	0.25	0.00	0.00	0.00	-2.363281	-0.381836	0.503418	27.370001	-148.119995	240.800003	13.00	0.00	0.00	1.75	2.25	1.50	4.00	1.75	6.00	3.00	7.25	13.00	13.00	14.50	11.25	9.50	10.00	4.00	6.50	-0.144531	0.066895	1.007324	11.970000	42.770000	-7.210000	1161.00	0.15	-0.08
3.73	0.00	0.00	0.00	0.00	0.00	0.00	0.00	0.00	0.00	0.50	0.00	0.00	0.00	0.00	0.00	0.00	-3.314453	-0.416992	-0.001953	1.400000	-64.330002	182.419998	5.00	0.00	0.00	2.00	2.00	1.75	3.50	1.25	5.75	2.75	6.25	13.75	13.75	15.00	11.50	9.25	11.00	3.75	6.50	-0.144043	0.075684	1.019531	21.139999	66.570000	-6.440000	1160.00	0.16	-0.07
3.74	0.00	0.00	0.00	0.00	0.00	0.00	0.00	0.00	0.00	0.50	0.00	0.00	0.00	0.00	0.00	0.00	-3.857422	-0.514160	-0.148926	15.680000	-2.730000	143.779999	5.00	0.00	0.00	1.75	2.00	1.75	3.75	1.25	5.25	2.50	5.75	14.25	14.00	15.75	11.75	9.00	11.50	3.75	6.50	-0.171875	0.083496	1.033203	37.170002	89.739998	-8.050000	1165.00	0.16	-0.07
3.75	0.00	0.00	0.00	0.00	0.00	0.00	0.00	0.00	0.00	0.25	0.50	0.00	0.25	0.00	0.00	0.00	-4.005371	-0.846191	-0.262207	32.619999	74.410004	112.840004	10.00	0.00	0.00	1.75	2.00	1.50	3.50	1.00	5.00	2.25	5.00	15.00	14.50	16.00	12.00	9.00	12.25	3.75	6.50	-0.125488	0.072266	1.116211	52.709999	105.840004	-10.500000	1166.00	0.17	-0.06
