# time	left pressure 1[N/cm²]	left pressure 2[N/cm²]	left pressure 3[N/cm²]	left pressure 4[N/cm²]	left pressure 5[N/cm²]	left pressure 6[N/cm²]	left pressure 7[N/cm²]	left pressure 8[N/cm²]	left pressure 9[N/cm²]	left pressure 10[N/cm²]	left pressure 11[N/cm²]	left pressure 12[N/cm²]	left pressure 13[N/cm²]	left pressure 14[N/cm²]	left pressure 15[N/cm²]	left pressure 16[N/cm²]	left acceleration X[g]	left acceleration Y[g]	left acceleration Z[g]	left angular X[dps]	left angular Y[dps]	left angular Z[dps]	left total force[N]	left center of pressure X[%]	left center of pressure Y[%]	right pressure 1[N/cm²]	right pressure 2[N/cm²]	right pressure 3[N/cm²]	right pressure 4[N/cm²]	right pressure 5[N/cm²]	right pressure 6[N/cm²]	right pressure 7[N/cm²]	right pressure 8[N/cm²]	right pressure 9[N/cm²]	right pressure 10[N/cm²]	right pressure 11[N/cm²]	right pressure 12[N/cm²]	right pressure 13[N/cm²]	right pressure 14[N/cm²]	right pressure 15[N/cm²]	right pressure 16[N/cm²]	right acceleration X[g]	right acceleration Y[g]	right acceleration Z[g]	right angular X[dps]	right angular Y[dps]	right angular Z[dps]	right total force[N]	right center of pressure X[%]	right center of pressure Y[%]
0.00	2.00	2.25	2.25	2.25	2.00	3.25	2.25	1.50	0.50	0.75	0.75	1.00	2.50	0.50	0.00	0.75	-4.172852	-0.995117	0.002930	-64.190002	-11.130000	-45.080002	293.00	-0.08	-0.10																									
0.01	3.00	2.50	2.25	2.00	2.25	3.25	2.50	1.75	1.00	0.50	0.75	0.75	2.50	0.75	0.25	0.50	-0.907227	-0.026855	1.264648	-40.599998	-8.330000	-30.309999	320.00	-0.08	-0.07																									
0.02	3.00	3.00	2.00	2.00	2.25	2.50	2.50	2.00	0.75	1.00	0.50	0.50	2.50	1.00	0.25	0.50	-0.245605	0.042969	0.996094	-10.150000	-17.639999	3.150000	316.00	-0.08	-0.07																									
0.03	3.00	3.25	2.25	2.25	2.50	3.50	2.75	2.00	0.50	0.75	0.75	0.50	2.00	0.75	0.25	0.75	-0.026855	-0.004883	0.868164	-3.570000	-11.410000	8.330000	334.00	-0.10	-0.08	8.25	6.00	7.25	7.50	6.25	6.25	4.25	3.50	1.75	1.00	0.25	0.75	3.50	0.75	0.25	1.25	-0.143555	0.054688	0.962891	-4.060000	3.500000	-0.560000	708.00	-0.15	-0.06
0.04	2.75	2.75	2.75	2.50	3.00	3.75	3.00	2.25	1.00	0.75	0.75	0.75	2.25	0.75	0.25	0.75	-0.116699	0.120605	0.925293	-9.100000	-6.160000	3.150000	365.00	-0.08	-0.07	8.00	6.00	7.00	7.25	6.25	6.00	4.25	3.50	1.75	1.00	0.25	0.50	3.50	0.75	0.25	1.00	-0.144531	0.052246	0.962891	-3.920000	4.620000	-0.350000	692.00	-0.15	-0.06
0.05	3.25	3.50	2.75	2.50	3.00	3.75	3.25	2.00	1.25	0.75	0.50	0.75	3.00	1.00	0.25	0.75	-0.276367	0.064453	0.972656	-14.840000	-3.080000	1.120000	389.00	-0.09	-0.07																									
0.06	3.75	3.25	2.75	2.50	3.00	4.00	3.25	2.25	1.50	1.25	0.50	0.50	2.75	1.00	0.00	1.00	-0.287109	0.047852	0.984375	-16.170000	-0.490000	-0.700000	402.00	-0.09	-0.06	7.50	5.50	6.75	6.50	5.75	5.50	4.25	3.00	1.50	1.00	0.25	0.50	3.25	0.75	0.25	1.00	-0.149902	0.048340	0.956055	-3.010000	7.280000	-0.560000	643.00	-0.15	-0.06
0.07	3.50	3.50	2.75	3.00	3.75	4.00	3.25	2.00	1.75	1.25	1.00	0.75	3.25	1.00	0.50	0.75	-0.205078	0.014648	0.956055	-13.440001	1.470000	-1.120000	433.00	-0.07	-0.06	7.00	5.25	6.25	6.25	5.50	5.50	4.25	2.75	1.50	1.00	0.25	0.50	3.25	0.75	0.25	1.25	-0.147949	0.045898	0.962402	-2.660000	8.050000	-0.700000	620.00	-0.14	-0.06
0.08	3.75	3.75	3.00	3.00	4.00	4.00	3.25	2.50	1.75	1.25	0.50	0.75	3.50	1.00	0.25	1.00	-0.223145	0.024414	0.974121	-9.310000	2.800000	-0.840000	448.00	-0.08	-0.07	6.75	5.00	6.00	6.00	5.50	5.25	4.25	2.50	1.75	0.75	0.25	0.50	3.00	0.75	0.50	1.00	-0.152832	0.048828	0.960938	-2.380000	8.260000	-0.700000	601.00	-0.14	-0.05
0.09	3.75	3.50	2.75	3.25	4.00	4.00	3.25	2.25	2.00	1.25	1.00	0.75	3.75	1.00	0.25	1.00	-0.240234	0.014160	0.961426	-5.670000	3.640000	0.560000	453.00	-0.07	-0.07	6.75	5.00	6.00	5.50	5.25	5.00	4.00	2.50	1.50	1.00	0.25	0.50	2.50	0.75	0.50	0.75	-0.153320	0.050293	0.955078	-2.310000	8.190000	-0.770000	578.00	-0.14	-0.05
0.10	4.00	3.75	3.25	3.00	4.00	4.25	3.25	2.25	1.75	1.00	0.75	0.75	3.50	1.00	0.25	0.75	-0.249512	0.043945	0.998047	-2.100000	3.570000	1.750000	451.00	-0.09	-0.07	6.25	4.25	5.50	5.25	5.00	4.75	4.00	2.00	1.50	0.75	0.00	0.50	2.50	1.00	0.50	1.25	-0.152344	0.051270	0.951660	-2.450000	7.770000	-0.490000	541.00	-0.13	-0.04
0.11	3.75	3.25	3.00	2.75	4.00	4.25	3.25	2.50	1.75	0.75	0.75	0.75	3.50	1.25	0.50	1.00	-0.232422	0.024414	0.942871	-0.560000	3.500000	1.750000	445.00	-0.07	-0.07	5.75	3.50	5.50	5.00	4.75	4.00	4.00	2.25	1.50	1.00	0.25	0.50	2.75	0.50	0.50	1.00	-0.153320	0.053223	0.955078	-2.520000	7.490000	-0.560000	519.00	-0.12	-0.04
0.12	3.75	3.50	3.00	3.25	4.25	4.00	3.50	2.50	1.75	1.25	1.00	0.75	3.75	1.50	0.50	1.00	-0.234375	0.050781	0.953613	-1.330000	3.360000	0.910000	471.00	-0.07	-0.07	5.75	3.75	5.25	4.25	4.50	3.75	4.00	2.00	1.50	1.00	0.00	0.25	2.50	0.50	0.25	0.75	-0.149902	0.050293	0.951172	-2.730000	7.070000	-0.840000	487.00	-0.13	-0.03
0.13	3.75	3.50	3.00	3.00	4.50	4.50	3.25	2.50	2.00	1.00	0.75	0.75	4.00	1.25	0.25	1.00	-0.243164	0.043457	0.963867	-2.730000	2.940000	0.140000	468.00	-0.07	-0.07	5.50	3.00	5.00	4.25	4.50	3.25	4.00	1.75	1.50	1.00	0.00	0.50	2.25	0.50	0.50	1.00	-0.153809	0.052246	0.958984	-2.940000	6.580000	-0.770000	468.00	-0.12	-0.03
0.14	3.75	3.50	2.75	2.75	4.75	3.75	3.25	2.25	2.25	1.50	1.25	1.00	3.25	1.25	0.25	1.00	-0.229492	0.038086	0.948730	-4.760000	1.960000	-0.280000	463.00	-0.06	-0.05	5.25	3.00	4.75	3.75	4.25	2.75	4.00	1.50	1.25	1.00	0.00	0.25	2.25	0.50	0.25	1.00	-0.154785	0.047852	0.955078	-3.430000	5.880000	-0.700000	434.00	-0.13	-0.02
0.15	4.00	3.50	3.00	3.50	4.75	4.25	3.25	2.75	2.00	1.25	1.00	0.75	3.75	1.25	0.25	1.00	-0.235840	0.022461	0.954102	-4.900000	1.400000	0.140000	485.00	-0.08	-0.07	5.00	2.75	4.00	3.50	3.75	2.50	4.00	1.75	1.50	1.00	0.00	0.25	2.00	0.50	0.50	1.00	-0.156250	0.055664	0.955078	-3.850000	5.180000	-0.700000	416.00	-0.11	-0.02
0.16	4.00	4.25	3.25	3.00	4.75	4.50	3.50	2.25	2.75	1.50	0.75	0.75	3.75	1.50	0.25	1.00	-0.228027	0.030273	0.956543	-4.480000	0.840000	0.490000	501.00	-0.07	-0.05	5.00	2.75	4.25	3.25	4.00	2.50	4.00	1.50	1.50	0.75	0.25	0.25	2.00	0.75	0.25	1.50	-0.156738	0.053223	0.956055	-4.270000	4.410000	-0.700000	417.00	-0.11	-0.02
0.17	4.25	4.00	3.25	3.50	5.00	4.50	3.50	2.50	2.25	1.25	0.75	1.00	3.50	1.25	0.25	1.00	-0.225586	0.029297	0.958008	-3.850000	0.560000	0.770000	503.00	-0.08	-0.06	4.75	2.50	4.00	2.75	4.00	2.25	4.00	1.50	1.25	0.50	0.25	0.00	1.75	0.50	0.50	1.00	-0.157227	0.053223	0.956543	-5.040000	3.780000	-0.840000	385.00	-0.11	-0.01
0.18	4.25	4.25	3.50	3.75	5.25	4.75	3.50	2.75	2.00	1.25	0.75	1.00	3.50	1.25	0.25	0.75	-0.226074	0.029785	0.960449	-3.430000	0.700000	0.840000	516.00	-0.09	-0.07	4.25	2.50	3.75	2.50	4.00	2.00	4.00	1.50	1.50	1.00	0.00	0.25	2.00	0.50	0.25	1.00	-0.157227	0.045410	0.948730	-5.880000	2.800000	-1.050000	380.00	-0.10	-0.01
0.19	4.50	4.00	3.50	3.75	5.25	4.50	3.50	2.75	1.75	1.50	1.00	0.75	3.25	1.25	0.50	1.00	-0.224121	0.022949	0.957520	-3.080000	1.470000	0.700000	515.00	-0.09	-0.06	4.50	2.50	3.75	2.50	3.75	2.00	4.00	1.25	1.50	1.00	0.00	0.25	2.00	0.50	0.25	1.00	-0.161621	0.053711	0.960938	-5.950000	2.170000	-0.840000	375.00	-0.10	-0.00
0.20	4.50	4.00	3.50	3.75	5.00	4.25	3.50	2.75	2.25	1.25	1.00	1.00	4.00	1.00	0.25	1.00	-0.235352	0.035645	0.968750	-2.450000	1.890000	0.770000	518.00	-0.08	-0.07	4.50	2.25	3.75	2.50	3.75	1.75	4.00	1.25	1.50	0.75	0.25	0.00	2.00	0.50	0.25	1.00	-0.162109	0.065430	0.967773	-5.670000	2.100000	-0.910000	367.00	-0.10	0.00
0.21	4.75	4.75	3.75	3.75	5.50	4.50	3.50	2.75	2.00	1.25	1.00	1.00	3.50	1.25	0.50	1.00	-0.231445	0.031250	0.961914	-1.890000	2.240000	0.700000	537.00	-0.09	-0.06	4.25	2.00	3.50	2.50	3.75	1.75	4.00	1.25	1.50	1.00	0.25	0.25	2.25	0.50	0.25	1.00	-0.154297	0.045898	0.966309	-5.600000	1.890000	-0.770000	367.00	-0.09	-0.00
0.22	5.00	4.25	4.00	3.75	5.50	4.50	3.50	2.50	2.00	1.25	0.50	1.25	3.50	1.50	0.25	1.00	-0.224609	0.030762	0.949707	-1.820000	2.030000	0.700000	531.00	-0.09	-0.06	3.50	2.25	3.25	2.25	3.75	1.50	4.00	1.25	1.25	1.00	0.00	0.00	1.75	0.50	0.25	0.50	-0.165039	0.037109	0.963867	-5.530000	1.680000	-0.630000	335.00	-0.10	0.00
0.23	5.00	4.50	3.75	4.00	5.50	5.00	3.50	2.75	1.50	1.25	1.00	0.75	3.50	1.00	0.25	1.25	-0.203613	0.040527	0.941406	-2.380000	1.820000	0.210000	533.00	-0.10	-0.07	3.50	2.00	3.25	2.25	3.75	1.25	4.00	1.25	1.50	1.00	0.00	0.00	1.75	0.50	0.25	1.00	-0.158691	0.049805	0.966309	-5.600000	1.540000	-0.770000	336.00	-0.09	0.01
0.24	5.25	5.00	4.25	4.25	5.50	4.75	3.50	2.75	2.25	1.25	0.75	0.75	3.50	1.00	0.25	1.00	-0.187500	0.031738	0.938965	-3.360000	1.190000	0.000000	553.00	-0.10	-0.06	3.75	2.00	3.50	2.00	3.75	1.50	4.25	1.00	1.25	0.75	0.00	0.00	1.75	0.50	0.25	1.00	-0.153320	0.045898	0.959961	-5.320000	1.330000	-0.560000	335.00	-0.10	0.01
0.25	5.50	5.00	4.25	4.25	5.75	5.00	3.50	2.75	1.75	1.75	1.00	0.50	4.00	1.25	0.25	1.00	-0.224121	0.032715	0.946777	-3.990000	0.630000	0.140000	567.00	-0.10	-0.06	3.75	2.00	3.25	2.00	3.75	1.25	4.00	1.25	1.75	1.00	0.00	0.25	1.50	0.50	0.25	1.00	-0.151855	0.047852	0.959473	-4.970000	1.400000	-0.420000	340.00	-0.08	0.01
0.26	5.50	5.00	4.25	4.50	6.00	5.00	3.50	2.75	1.75	0.75	0.75	1.00	3.75	1.25	0.25	1.00	-0.217773	0.021484	0.956055	-4.480000	0.490000	0.070000	563.00	-0.11	-0.07	4.00	2.00	3.25	2.00	4.00	1.25	4.25	1.00	1.50	1.00	0.00	0.00	1.50	0.75	0.50	1.00	-0.155762	0.047852	0.963867	-4.480000	1.540000	-0.350000	344.00	-0.08	0.02
0.27	5.50	5.00	4.75	4.75	6.00	5.00	3.50	2.75	2.00	1.00	0.75	0.75	3.50	1.25	0.25	1.00	-0.218262	0.027832	0.956055	-4.900000	0.630000	0.070000	573.00	-0.11	-0.06	3.75	2.25	3.25	1.75	3.50	1.25	4.25	1.00	1.50	0.75	0.00	0.00	1.75	0.50	0.25	1.00	-0.160156	0.043945	0.965820	-3.920000	1.680000	-0.210000	329.00	-0.09	0.02
0.28	5.50	4.75	4.75	4.50	6.25	5.25	3.75	2.75	1.75	1.25	1.00	1.00	4.00	1.25	0.25	1.00	-0.220703	0.028809	0.956055	-4.970000	2.170000	0.070000	587.00	-0.10	-0.06	4.25	2.00	3.25	1.75	3.75	1.25	4.25	1.25	1.50	1.00	0.00	0.00	1.75	0.75	0.25	0.75	-0.155273	0.040527	0.963379	-3.430000	1.890000	-0.070000	343.00	-0.09	0.02
0.29	5.75	5.00	4.75	4.50	6.25	5.00	3.75	3.00	2.00	0.75	0.75	1.00	4.00	1.00	0.50	1.25	-0.217773	0.026367	0.955078	-4.550000	3.150000	0.210000	591.00	-0.11	-0.07	3.75	2.00	3.00	1.75	3.50	1.00	4.00	1.00	1.25	1.00	0.00	0.00	1.75	0.75	0.25	0.75	-0.156250	0.044434	0.961914	-3.010000	2.030000	-0.000000	317.00	-0.09	0.02
0.30	5.75	5.00	4.75	4.75	6.25	5.25	3.75	2.75	2.25	1.25	0.75	1.00	4.00	1.25	0.25	1.00	-0.215332	0.029297	0.952637	-4.130000	3.990000	0.210000	600.00	-0.11	-0.06	3.75	1.75	3.00	1.75	3.75	1.00	4.25	1.00	1.50	1.00	0.00	0.00	1.75	0.75	0.25	0.75	-0.164062	0.047363	0.966797	-2.590000	2.310000	0.070000	325.00	-0.08	0.03
0.31	5.75	5.00	4.75	4.75	6.50	5.25	3.75	3.00	2.25	1.00	1.00	0.75	4.00	1.25	0.50	1.25	-0.219727	0.030273	0.965820	-3.990000	4.550000	0.210000	609.00	-0.10	-0.06	3.25	1.75	3.00	2.00	3.50	1.00	4.25	1.00	1.50	1.00	0.00	0.25	1.25	0.50	0.25	1.00	-0.158203	0.045410	0.961426	-1.750000	2.310000	0.280000	316.00	-0.08	0.02
0.32	7.50	5.00	6.00	5.75	7.50	6.75	4.25	4.25	3.75	2.25	2.00	1.75	4.25	1.25	1.00	1.50	-0.213867	0.031738	0.960938	-3.850000	5.110000	0.140000	783.00	-0.08	-0.06	3.50	1.75	2.75	1.75	3.50	1.25	4.25	1.00	1.50	0.75	0.00	0.00	1.75	0.50	0.25	1.00	-0.154785	0.045898	0.959961	-1.330000	2.450000	0.280000	315.00	-0.08	0.02
0.33	6.25	5.00	5.25	4.50	6.50	6.00	4.00	2.75	3.25	2.25	1.00	1.50	4.25	1.25	0.25	1.00	-0.225098	0.022949	0.954102	-3.710000	5.250000	0.210000	661.00	-0.09	-0.05	3.25	1.75	3.00	1.75	3.50	1.00	4.25	1.00	1.50	1.00	0.00	0.00	1.50	0.50	0.25	1.00	-0.157227	0.050293	0.960449	-1.190000	2.590000	0.210000	313.00	-0.08	0.03
0.34	6.00	4.50	5.25	4.50	6.50	6.50	4.25	4.25	4.25	2.50	2.00	2.25	5.75	3.00	1.75	2.25	-0.227051	0.029297	0.958984	-3.570000	5.600000	0.350000	781.00	-0.04	-0.07	3.75	1.75	2.50	1.75	3.50	1.00	4.00	1.00	1.50	0.75	0.00	0.00	1.75	0.50	0.25	1.00	-0.158691	0.051758	0.960449	-1.190000	2.450000	0.280000	308.00	-0.08	0.02
0.35	7.50	5.75	6.00	4.75	6.25	5.75	4.00	3.00	4.00	2.50	2.25	2.50	5.25	3.00	1.50	2.25	-0.221191	0.025391	0.956543	-3.640000	5.740000	0.350000	780.00	-0.06	-0.05	3.25	1.50	2.50	1.50	3.25	1.00	4.25	1.00	1.25	1.00	0.00	0.25	1.50	0.75	0.25	0.50	-0.153809	0.043945	0.958496	-1.470000	2.170000	0.210000	297.00	-0.07	0.03
0.36	7.00	5.50	5.25	3.25	6.00	5.50	4.25	2.50	2.25	2.00	2.00	1.50	5.50	3.00	1.50	2.25	-0.228027	0.026367	0.958008	-3.500000	5.950000	0.350000	692.00	-0.06	-0.06	3.50	1.75	2.50	1.50	3.25	1.00	4.25	0.75	1.50	0.75	0.00	0.25	1.50	0.75	0.00	1.00	-0.158203	0.049316	0.958008	-1.750000	2.030000	0.140000	299.00	-0.07	0.03
0.37	7.00	5.50	5.75	5.50	7.25	6.50	4.50	4.00	4.50	2.75	2.00	2.50	5.75	3.00	1.25	2.25	-0.224121	0.024902	0.955566	-3.430000	6.020000	0.350000	833.00	-0.05	-0.06	2.75	1.75	2.50	1.50	3.25	1.00	4.25	1.00	1.25	0.75	0.00	0.00	1.50	0.50	0.50	1.25	-0.156738	0.048828	0.958496	-2.310000	1.960000	-0.000000	293.00	-0.06	0.02
0.38	7.00	5.50	5.75	3.25	6.00	5.25	4.25	4.00	4.50	2.25	2.25	2.25	5.50	2.75	1.50	2.25	-0.220215	0.027832	0.952637	-3.430000	5.600000	0.560000	764.00	-0.04	-0.05	3.25	1.50	2.50	1.50	3.25	0.75	4.00	1.00	1.50	1.00	0.00	0.00	1.75	0.75	0.00	0.75	-0.157715	0.050781	0.952637	-2.800000	1.750000	-0.140000	291.00	-0.07	0.03
0.39	7.25	5.50	5.50	5.25	7.25	6.50	4.50	4.00	3.50	1.50	1.75	2.25	5.50	3.00	1.25	2.25	-0.229004	0.027344	0.959961	-3.220000	5.320000	0.630000	793.00	-0.07	-0.07	3.25	1.25	2.25	1.25	3.25	1.00	4.25	1.00	1.25	0.75	0.00	0.00	1.75	0.75	0.25	1.00	-0.160156	0.050781	0.959473	-3.290000	1.470000	-0.280000	288.00	-0.06	0.03
0.40	7.25	5.50	5.75	5.50	7.50	6.75	4.50	4.25	4.25	2.50	2.25	2.25	5.75	2.75	1.50	2.25	-0.220703	0.021973	0.950195	-3.150000	5.180000	0.770000	840.00	-0.06	-0.06	3.50	1.75	2.50	1.50	3.25	0.75	4.25	1.25	1.25	0.75	0.25	0.00	1.50	0.50	0.00	1.25	-0.158203	0.043945	0.956543	-3.640000	1.400000	-0.630000	300.00	-0.08	0.02
0.41	7.25	5.50	5.75	5.50	7.25	6.75	4.50	4.25	4.75	2.75	2.00	2.25	5.75	2.75	1.50	2.00	-0.218262	0.025879	0.956543	-3.220000	4.900000	0.770000	843.00	-0.05	-0.06	3.00	1.75	2.50	1.50	3.25	0.75	4.25	1.25	1.50	0.75	0.00	0.00	1.50	0.75	0.00	1.00	-0.156738	0.048828	0.962891	-3.850000	1.050000	-0.490000	296.00	-0.07	0.03
0.42	7.25	5.75	5.75	5.25	7.25	6.50	4.50	4.25	4.50	2.50	2.00	2.00	5.50	3.00	1.50	2.25	-0.223633	0.026367	0.953125	-2.940000	4.690000	0.770000	831.00	-0.06	-0.06	3.25	1.75	2.75	1.25	3.25	1.00	4.25	1.00	1.50	0.75	0.00	0.00	1.50	0.75	0.25	1.00	-0.159668	0.048828	0.964844	-3.920000	1.120000	-0.630000	300.00	-0.07	0.03
0.43	7.00	5.50	5.75	5.25	7.25	6.50	4.50	4.00	4.50	2.50	1.00	1.00	3.25	1.25	0.25	1.00	-0.221191	0.028320	0.955078	-2.800000	4.550000	0.840000	740.00	-0.09	-0.04	3.00	1.75	2.50	1.50	3.50	1.00	4.25	1.25	1.50	1.00	0.00	0.25	1.75	0.75	0.25	1.00	-0.157715	0.044434	0.962402	-4.060000	1.190000	-0.700000	313.00	-0.06	0.02
0.44	5.50	3.25	3.75	3.50	6.75	6.50	4.50	4.25	4.00	2.75	2.25	2.00	5.75	3.00	1.50	2.25	-0.222656	0.026367	0.960938	-2.800000	4.410000	0.840000	736.00	-0.02	-0.06	3.00	2.00	2.50	1.25	3.50	0.75	4.25	1.00	1.50	0.75	0.00	0.00	2.00	0.50	0.00	1.00	-0.153809	0.048828	0.958008	-3.920000	1.260000	-0.560000	297.00	-0.07	0.02
0.45	7.25	5.50	5.75	5.25	7.50	6.50	4.50	4.00	4.25	2.75	2.25	2.25	5.50	3.00	1.50	2.25	-0.222168	0.023438	0.951172	-2.800000	4.480000	0.910000	833.00	-0.05	-0.06	3.00	1.75	2.50	1.50	3.50	0.75	4.25	1.00	1.50	0.75	0.00	0.00	1.75	0.75	0.25	0.75	-0.155762	0.045410	0.958984	-3.850000	1.330000	-0.350000	298.00	-0.07	0.03
0.46	5.25	4.00	4.50	3.25	6.50	6.00	4.25	3.75	4.25	3.00	2.00	1.50	3.75	1.50	0.00	1.00	-0.220215	0.027832	0.950684	-2.730000	4.340000	0.910000	666.00	-0.05	-0.05	3.00	1.50	2.25	1.50	3.25	1.00	4.25	1.25	1.50	1.00	0.25	0.25	1.50	0.50	0.50	0.75	-0.159668	0.042480	0.958496	-3.710000	1.330000	-0.210000	304.00	-0.05	0.02
0.47	6.50	5.00	4.00	2.75	6.50	6.25	4.50	4.25	4.50	2.50	2.25	2.00	5.50	3.00	1.25	2.25	-0.221680	0.025391	0.954590	-2.730000	3.990000	0.910000	752.00	-0.03	-0.06	3.25	1.75	2.50	1.50	3.25	1.00	4.25	1.25	1.50	0.75	0.00	0.25	2.00	0.75	0.25	1.00	-0.171875	0.048828	0.967285	-3.430000	1.260000	-0.140000	312.00	-0.06	0.01
0.48	6.25	4.00	4.50	3.25	6.25	5.00	4.25	2.50	3.00	1.50	1.00	1.00	3.25	1.25	0.00	1.00	-0.227051	0.025391	0.958496	-2.730000	3.990000	0.840000	582.00	-0.09	-0.03	3.25	1.50	2.25	1.50	3.50	1.00	4.25	1.00	1.75	1.00	0.00	0.00	1.75	0.75	0.25	0.75	-0.160645	0.045410	0.966797	-3.360000	1.400000	-0.140000	305.00	-0.06	0.03
0.49	5.25	3.75	4.00	3.50	6.50	5.50	4.25	2.75	2.50	1.50	1.25	2.00	5.50	2.75	1.50	2.25	-0.221680	0.026855	0.957031	-2.870000	4.200000	0.700000	645.00	-0.04	-0.06	3.00	1.75	2.25	1.50	3.25	1.00	4.25	1.00	1.50	1.00	0.25	0.25	1.50	0.50	0.50	0.75	-0.162598	0.045898	0.959473	-3.220000	1.540000	-0.070000	302.00	-0.06	0.02
0.50	6.00	4.00	3.75	3.00	6.25	5.25	4.25	3.50	4.25	2.75	1.50	0.75	3.50	1.00	0.50	1.00	-0.222168	0.022949	0.955078	-2.800000	4.270000	0.770000	627.00	-0.06	-0.04	3.25	1.75	2.25	1.50	3.50	0.75	4.25	1.00	1.25	1.00	0.00	0.25	1.50	0.50	0.25	0.75	-0.161621	0.048340	0.958984	-3.150000	1.680000	-0.070000	296.00	-0.07	0.03
0.51	5.25	4.25	4.50	3.50	6.25	5.25	4.25	2.75	1.75	1.25	1.00	0.75	3.75	1.25	0.25	1.25	-0.220703	0.022949	0.951660	-2.940000	4.410000	0.560000	569.00	-0.09	-0.06	2.75	1.75	2.75	1.50	3.25	0.75	4.25	1.25	1.50	0.75	0.00	0.00	1.75	0.75	0.00	0.75	-0.159180	0.041992	0.961426	-3.010000	1.470000	0.210000	297.00	-0.07	0.02
0.52	5.00	4.00	4.25	3.50	6.75	5.50	4.25	2.75	2.25	1.25	1.00	0.75	3.25	1.50	0.50	1.50	-0.221680	0.028809	0.956055	-2.940000	4.410000	0.630000	579.00	-0.08	-0.05	3.00	1.50	2.50	1.50	3.25	0.75	4.25	1.00	1.50	0.75	0.00	0.00	1.50	0.75	0.25	1.00	-0.157715	0.047363	0.958496	-2.940000	1.470000	0.210000	292.00	-0.06	0.03
0.53	5.50	4.75	4.75	3.25	6.25	5.25	4.25	2.50	1.75	1.00	1.00	1.00	3.50	1.25	0.25	1.00	-0.222168	0.028320	0.957031	-2.870000	4.270000	0.630000	569.00	-0.10	-0.05	3.25	1.50	2.25	1.50	3.50	1.00	4.00	1.00	1.50	0.75	0.00	0.00	2.00	0.50	0.25	0.75	-0.163574	0.046387	0.957520	-3.080000	1.610000	-0.000000	294.00	-0.07	0.02
0.54	5.25	3.50	4.50	4.00	6.25	5.50	4.00	2.75	2.50	1.50	1.00	0.75	3.25	1.50	0.25	1.25	-0.229980	0.023926	0.954102	-3.010000	4.340000	0.630000	577.00	-0.09	-0.05	3.00	1.75	2.50	1.50	3.25	0.75	4.25	1.00	1.50	0.75	0.00	0.00	1.25	0.50	0.25	1.00	-0.159180	0.044434	0.960449	-3.290000	1.470000	-0.140000	290.00	-0.07	0.03
0.55	7.50	5.50	6.25	5.50	7.50	7.25	4.50	3.50	2.75	1.25	1.00	1.25	4.00	1.25	0.25	1.00	-0.224121	0.024902	0.954102	-3.010000	4.270000	0.700000	729.00	-0.11	-0.06	3.25	1.75	2.50	1.50	3.25	1.00	4.25	1.00	1.50	0.75	0.00	0.00	2.00	0.50	0.50	0.50	-0.158691	0.044922	0.957520	-3.360000	1.330000	-0.210000	303.00	-0.07	0.02
0.56	5.50	3.75	4.25	3.00	6.25	5.75	4.25	2.50	2.00	1.25	0.75	1.00	3.75	1.75	0.00	1.25	-0.217285	0.028809	0.953613	-2.940000	4.340000	0.700000	565.00	-0.09	-0.05	3.25	1.75	2.50	1.25	3.25	1.00	4.25	1.00	1.50	0.75	0.00	0.00	1.75	0.50	0.25	1.00	-0.145508	0.039062	0.963379	-3.570000	1.400000	-0.280000	297.00	-0.07	0.03
0.57	5.75	3.25	4.25	3.25	6.75	6.25	4.50	4.00	4.50	2.50	2.00	2.25	5.25	2.75	1.50	1.75	-0.221680	0.026367	0.955078	-2.660000	4.340000	0.840000	729.00	-0.02	-0.05	3.25	1.75	2.25	1.25	3.25	0.75	4.25	1.00	1.50	0.75	0.00	0.00	1.75	0.75	0.00	1.00	-0.158203	0.045410	0.959473	-3.500000	1.400000	-0.140000	291.00	-0.07	0.03
0.58	5.25	4.25	5.50	5.50	7.50	7.00	4.50	4.25	4.50	2.75	2.00	2.25	5.50	3.00	1.25	2.00	-0.220703	0.022949	0.956055	-2.590000	4.340000	0.840000	804.00	-0.04	-0.06	3.50	1.50	2.50	1.50	3.50	1.00	4.25	1.00	1.25	0.75	0.00	0.00	1.50	0.75	0.25	1.00	-0.159668	0.045898	0.955566	-3.500000	1.190000	-0.000000	300.00	-0.07	0.03
0.59	7.25	5.50	5.50	4.25	6.00	5.25	4.25	2.25	2.25	1.25	0.75	0.75	3.25	1.25	0.25	1.25	-0.221191	0.028320	0.955566	-2.590000	4.410000	0.910000	614.00	-0.12	-0.04	2.75	1.75	2.25	1.50	3.25	0.75	4.25	1.00	1.25	1.00	0.00	0.00	1.50	0.25	0.25	0.75	-0.152344	0.045898	0.957031	-3.570000	1.190000	-0.140000	282.00	-0.07	0.03
0.60	5.50	3.50	4.25	3.25	6.25	5.25	4.00	2.25	2.00	1.25	0.75	0.75	3.00	1.00	0.00	1.00	-0.227539	0.027344	0.960449	-2.520000	4.620000	0.840000	533.00	-0.10	-0.04	3.50	2.00	2.50	1.25	3.50	0.75	4.25	1.00	1.50	0.75	0.00	0.00	1.75	0.50	0.25	1.00	-0.155273	0.046875	0.960449	-3.430000	1.330000	-0.210000	303.00	-0.07	0.03
0.61	5.50	3.75	4.50	3.25	6.25	5.25	4.00	2.25	2.00	1.25	0.75	0.75	3.50	1.25	0.00	1.00	-0.219238	0.026855	0.958496	-2.520000	4.620000	0.770000	545.00	-0.10	-0.04	3.25	1.75	2.50	1.50	3.50	0.75	4.25	1.00	1.50	1.00	0.00	0.00	1.50	0.50	0.00	0.50	-0.160156	0.043945	0.969727	-3.290000	1.330000	-0.140000	295.00	-0.08	0.04
0.62	5.25	3.75	4.00	3.00	6.00	5.25	4.25	2.00	2.25	1.25	0.75	1.00	3.00	1.25	0.00	1.00	-0.220703	0.025391	0.951172	-2.520000	4.550000	0.770000	532.00	-0.09	-0.04	3.50	1.75	2.50	1.25	3.50	1.00	4.25	1.00	1.50	0.75	0.00	0.25	1.50	0.75	0.25	1.00	-0.159180	0.045898	0.958008	-3.290000	1.400000	-0.000000	306.00	-0.07	0.03
0.63	5.25	3.75	4.25	3.25	6.25	5.25	4.00	2.25	2.25	1.50	1.00	0.75	3.25	1.25	0.25	1.75	-0.219727	0.030273	0.954102	-2.380000	4.690000	0.770000	554.00	-0.09	-0.04	3.00	1.75	3.00	1.50	3.25	1.00	4.25	1.00	1.75	0.75	0.00	0.00	1.75	0.75	0.50	0.75	-0.156250	0.045898	0.960449	-3.150000	1.540000	-0.280000	311.00	-0.06	0.03
0.64	6.25	5.25	5.25	5.00	7.00	6.25	4.25	3.75	4.25	2.75	2.00	2.25	5.25	2.50	1.25	2.25	-0.220215	0.027344	0.954590	-2.450000	4.620000	0.770000	780.00	-0.05	-0.06	3.25	1.50	2.50	1.50	3.25	1.00	4.25	1.00	1.50	0.75	0.00	0.00	1.75	0.75	0.50	0.50	-0.159180	0.046387	0.958496	-3.080000	1.540000	-0.210000	300.00	-0.06	0.03
0.65	7.25	5.75	5.75	5.50	7.50	6.50	4.50	4.00	4.25	2.75	2.00	2.25	5.75	3.00	1.50	2.25	-0.222656	0.025391	0.957520	-2.730000	4.900000	0.700000	838.00	-0.06	-0.06	3.25	1.50	2.50	1.50	3.50	1.00	4.25	1.25	1.25	0.75	0.00	0.00	1.50	0.75	0.25	1.00	-0.160645	0.044434	0.963867	-3.080000	1.610000	-0.350000	301.00	-0.07	0.02
0.66	7.75	5.75	5.75	5.75	7.50	6.75	4.50	4.00	4.50	2.50	2.25	2.00	5.50	3.00	1.50	2.25	-0.221191	0.023926	0.950684	-2.870000	4.900000	0.630000	848.00	-0.06	-0.06	3.00	1.75	2.25	1.25	3.25	0.75	4.25	1.00	1.75	1.00	0.00	0.00	2.00	0.75	0.00	1.00	-0.161133	0.044922	0.961914	-3.010000	1.470000	-0.140000	297.00	-0.05	0.03
0.67	7.50	5.75	6.00	5.50	7.50	6.50	4.50	4.00	4.50	2.50	2.00	2.00	5.50	3.00	1.50	2.00	-0.217773	0.029785	0.950684	-2.940000	4.830000	0.560000	837.00	-0.06	-0.06	3.25	1.75	2.50	1.50	3.25	1.00	4.25	1.00	1.50	0.75	0.00	0.25	1.00	0.50	0.50	0.50	-0.159180	0.048340	0.962891	-3.010000	1.330000	-0.140000	296.00	-0.07	0.03
0.68	7.25	5.75	6.00	5.50	7.50	6.50	4.50	4.00	4.50	2.75	2.00	2.00	5.50	3.00	1.50	2.25	-0.225586	0.027344	0.954102	-2.940000	4.690000	0.560000	839.00	-0.06	-0.06	3.00	1.75	2.00	1.25	3.25	1.00	4.25	1.00	1.50	1.00	0.00	0.25	1.75	0.75	0.00	0.75	-0.153320	0.042969	0.957031	-3.010000	1.610000	-0.280000	292.00	-0.06	0.02
0.69	7.25	5.75	6.00	5.50	7.50	6.75	4.50	4.00	4.00	2.50	1.75	2.25	5.75	2.75	1.50	2.50	-0.222168	0.023438	0.953613	-2.870000	4.550000	0.560000	833.00	-0.06	-0.06	3.50	1.75	2.50	1.25	3.25	0.75	4.25	1.00	1.75	1.00	0.00	0.00	1.50	0.50	0.50	0.75	-0.162598	0.050293	0.963379	-3.080000	1.750000	-0.140000	303.00	-0.06	0.04
0.70	7.50	5.75	6.00	5.50	7.50	6.75	4.50	4.00	4.25	2.50	1.75	2.00	5.50	3.00	1.50	2.25	-0.224121	0.025879	0.957031	-2.940000	4.340000	0.560000	835.00	-0.06	-0.06	3.00	1.75	2.50	1.50	3.50	1.00	4.50	1.00	1.50	0.75	0.00	0.00	1.50	0.50	0.25	0.75	-0.160645	0.044434	0.964355	-3.080000	1.330000	-0.000000	301.00	-0.07	0.03
0.71	7.00	5.25	5.75	5.00	6.50	5.75	4.25	3.25	2.50	1.50	1.00	1.00	3.50	1.75	0.75	1.75	-0.220215	0.028320	0.963379	-2.940000	4.270000	0.630000	677.00	-0.10	-0.05	3.50	1.75	2.25	1.25	3.50	0.75	4.25	1.00	1.50	0.75	0.00	0.00	1.50	1.00	0.50	0.75	-0.161133	0.045410	0.965332	-2.800000	1.330000	-0.000000	301.00	-0.06	0.04
0.72	7.25	5.75	6.50	5.50	7.50	7.00	4.50	4.25	4.50	2.75	2.00	2.25	5.75	3.00	1.50	2.50	-0.222168	0.024902	0.956055	-2.870000	4.270000	0.770000	862.00	-0.06	-0.06	3.25	1.50	2.25	1.25	3.25	0.75	4.25	1.00	1.50	0.50	0.00	0.25	1.50	0.50	0.25	0.75	-0.161621	0.046875	0.968262	-2.520000	1.190000	0.140000	285.00	-0.07	0.03
0.73	7.75	5.75	6.50	5.50	7.50	7.25	4.50	4.00	4.00	2.75	1.75	2.25	5.75	2.75	1.50	2.00	-0.216797	0.020996	0.955566	-2.100000	4.060000	1.050000	851.00	-0.07	-0.06	3.00	1.50	2.25	1.25	3.25	0.75	4.25	0.75	1.50	0.75	0.00	0.00	1.25	0.75	0.25	0.75	-0.153320	0.046387	0.967773	-2.380000	1.050000	0.140000	278.00	-0.06	0.05
0.74	7.50	5.75	6.25	5.75	7.50	7.00	4.50	4.25	4.25	2.75	2.00	2.00	5.50	2.75	1.50	2.25	-0.218262	0.020996	0.953125	-1.540000	3.920000	1.190000	852.00	-0.06	-0.06	3.00	1.75	2.50	1.50	3.25	0.75	4.25	0.75	1.50	0.75	0.00	0.00	1.50	0.50	0.25	1.00	-0.163086	0.044922	0.960938	-2.450000	0.910000	0.070000	288.00	-0.07	0.04
0.75	7.50	5.75	6.25	5.75	7.75	7.00	4.50	4.25	4.00	2.50	2.00	2.00	5.50	2.75	1.25	2.50	-0.218750	0.023438	0.959473	-0.910000	3.710000	1.540000	847.00	-0.07	-0.06	3.25	1.75	1.75	1.50	3.50	0.75	4.25	1.00	1.25	0.75	0.00	0.00	1.25	0.50	0.25	0.75	-0.160156	0.052734	0.969727	-2.170000	0.700000	0.210000	281.00	-0.07	0.03
0.76	7.75	5.75	6.50	6.00	7.50	7.25	4.50	4.50	4.00	2.50	2.00	2.25	5.75	2.75	1.50	2.00	-0.222656	0.023438	0.958496	-0.280000	3.500000	1.750000	865.00	-0.07	-0.07	3.00	1.75	2.50	1.50	3.25	1.00	4.25	1.00	1.25	0.50	0.00	0.00	1.25	0.50	0.25	0.75	-0.165039	0.049316	0.964844	-2.100000	0.910000	0.140000	285.00	-0.08	0.03
0.77	7.75	5.75	6.50	5.75	7.50	7.50	4.50	4.25	4.00	2.50	2.00	2.25	5.75	2.75	1.50	2.25	-0.229980	0.028320	0.955566	0.210000	2.940000	1.960000	863.00	-0.07	-0.06	3.75	1.75	2.75	1.25	3.25	1.00	4.25	1.00	1.25	0.50	0.00	0.00	1.25	0.50	0.25	0.75	-0.157227	0.049316	0.963379	-1.820000	1.260000	0.210000	293.00	-0.09	0.03
0.78	5.75	5.00	5.25	5.00	6.75	6.25	4.25	3.00	2.00	1.25	1.00	1.00	4.25	1.25	0.50	1.00	-0.221680	0.027832	0.957031	0.840000	2.450000	2.240000	644.00	-0.10	-0.06	3.25	1.50	2.25	1.00	3.25	0.75	4.25	1.00	1.00	0.50	0.00	0.00	1.25	0.50	0.00	0.50	-0.161621	0.049805	0.962891	-1.750000	1.890000	0.280000	265.00	-0.09	0.04
0.79	6.50	5.00	5.00	4.25	6.50	6.25	4.00	4.25	1.75	1.25	1.00	1.00	4.25	2.50	0.50	1.00	-0.223633	0.029785	0.960938	1.680000	2.170000	2.520000	662.00	-0.09	-0.07	3.50	1.75	2.50	1.50	3.00	0.75	4.25	1.00	1.00	0.50	0.00	0.00	1.25	0.50	0.25	0.75	-0.166992	0.050293	0.969238	-1.680000	1.820000	0.420000	281.00	-0.09	0.03
0.80	7.00	5.25	5.25	5.25	6.75	6.50	4.00	2.75	3.00	1.25	0.75	1.00	4.00	1.25	0.25	1.25	-0.221680	0.032227	0.962402	2.030000	1.540000	2.660000	666.00	-0.11	-0.05	3.25	2.00	2.25	1.50	3.00	0.75	4.25	1.00	0.75	0.50	0.00	0.00	0.75	0.50	0.00	0.75	-0.169922	0.053711	0.971680	-1.540000	1.610000	0.560000	266.00	-0.10	0.03
0.81	6.75	5.00	5.50	5.50	7.00	6.75	4.00	3.00	1.75	1.00	1.00	0.75	4.00	1.00	0.25	1.00	-0.217285	0.032227	0.958008	2.030000	1.680000	2.730000	652.00	-0.12	-0.07	3.25	1.75	2.50	1.50	3.00	0.50	4.25	0.75	0.75	0.50	0.00	0.00	1.00	0.50	0.00	0.50	-0.168457	0.044434	0.963379	-1.610000	1.190000	0.700000	261.00	-0.10	0.04
0.82	7.25	5.00	5.25	5.25	7.00	7.00	4.25	3.75	2.75	1.75	1.50	1.25	3.50	1.25	0.75	1.50	-0.221680	0.034180	0.958496	2.590000	2.170000	2.940000	712.00	-0.10	-0.06	3.50	2.00	2.50	1.50	3.00	0.75	4.25	0.75	0.75	0.25	0.00	0.00	0.75	0.50	0.25	0.50	-0.157227	0.069824	0.966797	-1.540000	1.050000	0.700000	267.00	-0.11	0.04
0.83	6.50	5.50	5.75	5.75	6.75	7.00	4.00	3.25	1.50	1.00	0.75	0.75	4.25	1.25	0.50	1.00	-0.221680	0.033203	0.949707	2.800000	2.660000	3.010000	666.00	-0.12	-0.07	3.50	1.75	2.50	1.50	3.00	0.50	4.00	0.75	0.50	0.25	0.00	0.00	1.00	0.25	0.00	0.50	-0.158203	0.043457	0.960449	-1.610000	0.770000	0.770000	251.00	-0.12	0.04
0.84	7.75	5.75	5.75	6.00	6.75	7.50	4.00	3.25	1.25	1.00	1.00	0.75	4.00	1.00	0.25	1.00	-0.219238	0.035645	0.959473	2.870000	2.940000	2.940000	683.00	-0.14	-0.07	3.50	2.00	2.25	1.50	3.00	0.75	4.25	1.00	0.75	0.25	0.00	0.00	0.50	0.25	0.25	0.25	-0.160645	0.046875	0.959473	-1.750000	1.050000	0.700000	262.00	-0.12	0.04
0.85	8.00	6.00	5.75	6.00	6.75	7.50	3.75	3.25	1.00	1.25	0.75	0.75	4.25	1.00	0.25	1.00	-0.218262	0.037109	0.958496	2.730000	3.290000	2.800000	683.00	-0.14	-0.08	3.50	2.00	2.50	1.50	3.00	0.75	4.00	0.75	0.50	0.00	0.00	0.00	0.50	0.50	0.00	0.50	-0.160645	0.055664	0.974121	-1.120000	1.050000	0.770000	251.00	-0.13	0.04
0.86	8.25	6.00	6.00	6.50	6.75	7.25	3.75	3.75	1.00	1.00	1.00	1.00	4.00	1.00	0.50	1.00	-0.218262	0.038086	0.953613	2.520000	3.500000	2.590000	704.00	-0.14	-0.08	4.00	1.75	2.75	1.50	2.75	0.50	4.00	0.75	0.75	0.25	0.00	0.00	0.25	0.25	0.00	0.50	-0.163086	0.054199	0.959473	-0.840000	1.190000	1.050000	253.00	-0.13	0.06
0.87	8.25	6.00	5.75	6.50	6.50	7.50	3.75	3.50	1.25	1.25	0.75	1.00	4.25	1.00	0.50	1.00	-0.215332	0.031250	0.958984	1.960000	3.710000	2.520000	702.00	-0.14	-0.08	3.50	1.75	2.50	1.50	2.75	0.50	4.00	0.75	0.75	0.50	0.00	0.00	0.25	0.25	0.00	0.25	-0.156250	0.053223	0.952148	-0.700000	1.260000	1.190000	246.00	-0.12	0.06
0.88	8.50	6.25	6.25	6.75	6.75	7.75	3.50	3.50	1.00	1.00	0.75	0.75	4.25	0.75	0.25	0.75	-0.221191	0.038086	0.957031	1.050000	3.710000	2.100000	703.00	-0.15	-0.08	3.50	2.00	2.25	1.75	2.75	0.50	4.00	0.75	0.25	0.50	0.00	0.00	0.50	0.25	0.00	0.25	-0.158203	0.044922	0.967773	-0.560000	1.750000	1.190000	243.00	-0.14	0.04
0.89	9.00	6.25	6.00	6.75	6.50	7.75	3.75	3.50	1.25	1.00	0.75	1.00	4.00	0.75	0.50	0.75	-0.215332	0.034180	0.947266	0.700000	3.710000	1.960000	713.00	-0.15	-0.08	3.75	1.75	2.25	1.50	2.75	0.50	4.00	0.50	0.00	0.00	0.00	0.00	0.50	0.25	0.25	0.25	-0.156250	0.049316	0.969238	-0.420000	1.960000	1.120000	230.00	-0.14	0.05
0.90	8.75	6.50	6.25	7.00	6.50	7.75	3.75	3.25	0.75	0.75	1.00	0.75	4.00	0.75	0.25	1.00	-0.207520	0.039062	0.954590	0.350000	3.850000	1.820000	703.00	-0.16	-0.08	3.75	1.50	2.25	1.25	2.75	0.25	4.00	0.50	0.25	0.25	0.00	0.00	0.00	0.50	0.25	0.25	-0.164551	0.056152	0.966797	-0.070000	1.540000	1.120000	226.00	-0.13	0.07
0.91	9.25	7.00	6.50	7.50	6.50	7.75	3.75	4.00	1.00	0.75	1.00	1.00	4.25	1.25	0.50	0.75	-0.212891	0.037109	0.953125	0.070000	3.990000	1.680000	751.00	-0.15	-0.08	3.50	1.75	2.50	1.25	2.50	0.50	4.00	0.50	0.25	0.25	0.00	0.00	0.25	0.50	0.00	0.25	-0.160156	0.049805	0.960449	0.140000	1.540000	1.050000	228.00	-0.13	0.06
0.92	7.75	6.50	6.00	6.75	6.25	7.50	3.75	3.50	0.50	1.00	0.75	1.00	3.75	0.75	0.25	0.75	-0.215820	0.036621	0.954102	-0.280000	3.990000	1.540000	680.00	-0.15	-0.09	3.50	1.75	2.25	1.00	2.50	0.25	3.75	0.50	0.25	0.00	0.00	0.00	0.25	0.25	0.00	0.50	-0.160645	0.049316	0.965332	-0.000000	1.470000	1.050000	211.00	-0.14	0.06
0.93	8.00	6.25	5.75	6.75	6.25	7.50	3.50	3.00	0.50	0.75	1.25	0.75	4.00	0.75	0.25	0.75	-0.213379	0.046875	0.949707	-0.630000	4.060000	1.540000	667.00	-0.15	-0.09	3.25	1.75	2.50	1.25	2.50	0.50	4.00	0.25	0.00	0.25	0.00	0.00	0.25	0.25	0.25	0.25	-0.168945	0.051270	0.967773	0.280000	0.910000	1.050000	218.00	-0.14	0.06
0.94	9.50	7.50	6.50	8.00	6.75	8.00	3.50	3.75	1.00	0.75	0.75	1.00	4.50	0.75	0.50	1.00	-0.215820	0.038086	0.948730	-1.260000	4.060000	1.330000	758.00	-0.16	-0.09	3.25	1.75	2.25	1.25	2.25	0.25	3.75	0.50	0.25	0.00	0.00	0.00	0.00	0.50	0.00	0.50	-0.171387	0.046387	0.966309	0.210000	0.000000	1.190000	208.00	-0.14	0.07
0.95	9.25	7.75	6.75	8.00	6.75	8.00	3.75	4.00	0.50	1.00	0.75	1.00	4.25	1.00	0.50	1.00	-0.214844	0.044434	0.950195	-1.890000	3.990000	1.190000	765.00	-0.16	-0.09	3.25	1.75	2.25	1.25	2.50	0.25	3.75	0.50	0.00	0.00	0.00	0.00	0.00	0.25	0.00	0.25	-0.170898	0.050293	0.974609	0.070000	-1.120000	1.330000	204.00	-0.16	0.06
0.96	9.50	7.75	6.75	7.75	6.75	8.00	3.75	4.00	1.25	1.00	0.75	1.00	4.50	1.00	0.25	1.00	-0.220215	0.029297	0.966309	-2.310000	4.270000	0.980000	775.00	-0.15	-0.08	3.25	1.75	1.75	1.25	2.25	0.25	3.75	0.50	0.25	0.00	0.00	0.00	0.25	0.25	0.00	0.25	-0.168945	0.057617	0.971191	0.140000	-2.520000	1.400000	201.00	-0.14	0.06
0.97	9.50	7.50	6.75	8.00	6.75	8.00	3.75	4.00	1.00	1.00	1.00	1.00	4.00	1.00	0.50	1.00	-0.218750	0.030273	0.956543	-2.380000	4.340000	0.910000	773.00	-0.15	-0.08	3.50	1.75	2.00	1.50	2.25	0.25	3.75	0.50	0.25	0.00	0.00	0.00	0.00	0.25	0.00	0.25	-0.168945	0.053711	0.971680	0.560000	-3.780000	1.190000	207.00	-0.15	0.06
0.98	9.50	7.75	6.75	8.00	6.50	8.00	3.75	4.00	0.75	1.00	1.00	1.25	4.75	0.75	0.25	0.75	-0.216797	0.041504	0.957031	-2.170000	4.200000	0.980000	772.00	-0.16	-0.09	3.00	2.00	1.75	1.25	2.25	0.25	3.75	0.25	0.00	0.00	0.00	0.00	0.00	0.00	0.00	0.25	-0.169434	0.058105	0.979004	0.700000	-5.180000	1.190000	188.00	-0.16	0.07
0.99	9.50	8.00	6.75	8.00	6.75	8.25	3.50	4.00	1.00	1.25	1.00	1.00	4.25	0.75	0.50	1.00	-0.217773	0.042480	0.951660	-1.610000	4.060000	0.980000	780.00	-0.16	-0.09	3.25	2.25	2.25	1.25	2.25	0.25	3.75	0.50	0.00	0.00	0.00	0.00	0.00	0.25	0.00	0.25	-0.163086	0.054688	0.975586	0.420000	-6.510000	1.120000	206.00	-0.16	0.06
1.00	9.50	8.00	7.00	8.25	6.50	8.25	3.75	4.25	1.00	1.00	1.25	1.00	4.50	1.00	0.50	0.75	-0.222168	0.043457	0.962891	-1.120000	3.850000	0.980000	794.00	-0.15	-0.09	3.50	1.75	2.00	1.50	2.25	0.25	3.75	0.50	0.00	0.00	0.00	0.00	0.00	0.00	0.00	0.25	-0.158691	0.055176	0.976562	-0.420000	-8.470000	0.770000	201.00	-0.17	0.06
1.01	9.75	8.00	7.00	8.25	6.75	8.25	3.50	4.25	1.00	1.00	1.00	1.00	4.75	1.00	0.50	1.00	-0.218262	0.033691	0.961914	-0.910000	3.710000	1.120000	797.00	-0.15	-0.09	4.00	1.75	2.50	1.50	2.25	0.25	3.75	0.50	0.25	0.00	0.00	0.00	0.00	0.25	0.25	0.25	-0.159180	0.047852	0.974121	-0.350000	-10.150000	0.560000	222.00	-0.15	0.06
1.02	9.75	8.00	6.75	8.25	6.75	8.25	3.50	4.25	0.75	0.75	1.00	1.00	4.00	1.00	0.25	0.75	-0.219238	0.042969	0.961426	-0.350000	3.710000	1.400000	776.00	-0.16	-0.09	4.00	2.25	2.00	1.50	2.25	0.00	3.75	0.50	0.00	0.00	0.00	0.00	0.00	0.00	0.00	0.25	-0.163086	0.053711	0.974121	-0.420000	-10.920000	0.210000	209.00	-0.18	0.06
1.03	9.75	8.00	7.00	8.25	6.75	8.25	3.50	4.00	0.75	0.75	1.00	0.75	4.50	1.00	0.50	1.00	-0.218750	0.039551	0.955078	0.280000	3.640000	1.400000	781.00	-0.16	-0.09	4.00	2.00	2.50	1.25	2.50	0.25	3.75	0.25	0.00	0.00	0.00	0.00	0.00	0.25	0.00	0.25	-0.148438	0.053223	0.971680	-0.560000	-10.360000	0.630000	214.00	-0.17	0.07
1.04	9.50	8.00	7.00	8.25	6.50	8.25	3.50	3.75	1.00	0.50	0.75	0.75	4.00	0.75	0.25	0.50	-0.202637	0.045410	0.958008	-0.000000	3.780000	1.330000	756.00	-0.17	-0.09	4.00	2.00	2.25	1.50	2.50	0.25	3.75	0.25	0.00	0.00	0.00	0.00	0.00	0.25	0.00	0.25	-0.154297	0.053223	0.973633	-0.140000	-10.500000	0.630000	214.00	-0.17	0.07
1.05	8.25	7.50	6.25	7.75	6.25	8.00	3.50	3.50	1.75	2.00	1.75	2.25	5.50	2.50	1.50	2.00	-0.211426	0.039062	0.958984	-0.140000	3.850000	1.330000	822.00	-0.10	-0.09	4.75	2.25	2.50	1.75	2.25	0.50	3.75	0.50	0.00	0.00	0.00	0.00	0.00	0.00	0.25	0.00	-0.149414	0.059570	0.973633	0.840000	-10.360000	0.280000	234.00	-0.19	0.05
1.06	10.00	8.00	7.00	8.25	6.75	9.25	3.75	5.75	2.50	1.75	1.00	0.75	4.25	0.75	0.25	0.75	-0.211914	0.044922	0.954590	-0.070000	3.920000	1.330000	857.00	-0.14	-0.09	4.50	2.25	2.50	1.75	2.25	0.25	3.75	0.25	0.00	0.00	0.00	0.00	0.00	0.25	0.00	0.00	-0.141113	0.053711	0.958008	1.400000	-9.730000	0.420000	223.00	-0.19	0.06
1.07	12.00	9.25	8.00	9.00	7.50	8.00	4.00	6.00	2.25	1.75	0.75	0.75	4.00	1.25	0.50	2.00	-0.216797	0.048340	0.952148	-0.070000	3.850000	1.330000	922.00	-0.15	-0.08	4.25	2.50	2.25	1.75	2.25	0.50	3.75	0.25	0.25	0.00	0.00	0.00	0.25	0.00	0.00	0.00	-0.144043	0.062500	0.959473	1.960000	-8.260000	0.350000	226.00	-0.18	0.05
1.08	10.00	7.75	6.50	8.00	6.50	8.00	3.50	4.75	0.50	0.75	0.75	0.75	4.00	1.00	1.00	2.00	-0.213867	0.046387	0.960449	-0.420000	4.200000	1.190000	780.00	-0.15	-0.10	4.75	2.25	2.75	1.75	2.25	0.50	3.75	0.25	0.00	0.00	0.00	0.00	0.25	0.00	0.00	0.25	-0.145508	0.056641	0.957031	2.380000	-7.070000	0.210000	234.00	-0.19	0.05
1.09	8.50	7.50	6.75	8.00	6.50	8.00	3.50	4.75	1.00	0.75	0.75	0.75	3.50	0.75	0.25	1.00	-0.215332	0.040527	0.956543	-0.910000	4.200000	0.980000	749.00	-0.16	-0.09	5.00	2.50	2.75	2.00	2.50	0.50	3.50	0.25	0.25	0.00	0.00	0.00	0.00	0.00	0.00	0.00	-0.146484	0.068359	0.966309	2.380000	-6.020000	0.210000	241.00	-0.20	0.05
1.10	11.00	8.25	7.25	8.50	7.00	8.25	3.50	4.50	0.50	0.50	0.25	0.50	3.25	1.00	0.50	1.00	-0.213867	0.046875	0.954590	-1.540000	4.270000	0.910000	786.00	-0.18	-0.09	5.00	2.50	2.75	2.00	2.50	0.50	3.50	0.25	0.00	0.25	0.00	0.00	0.25	0.25	0.00	0.00	-0.144043	0.065430	0.967285	2.380000	-5.460000	0.280000	245.00	-0.19	0.05
1.11	9.25	8.00	6.75	7.75	6.50	8.00	3.50	4.75	0.75	0.75	0.50	0.75	4.00	1.00	0.50	0.75	-0.212891	0.045898	0.954590	-2.730000	4.970000	0.560000	761.00	-0.16	-0.09	5.00	2.75	2.75	2.25	2.50	0.50	3.50	0.00	0.00	0.00	0.00	0.00	0.00	0.00	0.00	0.25	-0.144531	0.072754	0.957520	1.820000	-4.830000	0.210000	240.00	-0.21	0.05
1.12	9.75	7.75	6.75	8.00	6.25	8.00	3.25	4.25	0.50	0.50	0.50	0.50	3.75	0.50	0.25	0.75	-0.213379	0.048340	0.953125	-3.780000	5.180000	0.210000	733.00	-0.18	-0.09	5.25	2.75	3.00	2.25	2.75	0.75	3.50	0.25	0.00	0.00	0.00	0.00	0.25	0.00	0.00	0.25	-0.137695	0.067871	0.963867	1.050000	-4.130000	0.420000	258.00	-0.21	0.04
1.13	9.50	7.50	7.00	8.00	6.25	8.00	3.25	4.25	0.25	0.50	0.50	0.50	3.50	0.75	0.25	1.00	-0.216309	0.046875	0.957520	-4.480000	5.390000	0.070000	728.00	-0.18	-0.09	5.25	3.00	3.00	2.25	2.75	0.75	3.50	0.50	0.00	0.00	0.00	0.00	0.25	0.25	0.00	0.25	-0.139648	0.067871	0.960938	-0.280000	-2.870000	0.560000	267.00	-0.20	0.03
1.14	9.00	7.75	6.75	7.75	6.25	7.75	3.50	4.25	0.75	0.50	0.50	0.50	3.00	0.75	0.50	0.75	-0.213379	0.049805	0.952637	-5.250000	6.230000	0.000000	724.00	-0.17	-0.09	5.50	3.00	3.25	2.75	2.75	0.75	3.75	0.50	0.00	0.25	0.00	0.00	0.50	0.25	0.00	0.25	-0.137695	0.064453	0.963379	-2.030000	-0.280000	0.980000	288.00	-0.19	0.02
1.15	8.75	7.50	6.50	7.50	6.00	7.50	3.50	4.00	0.50	0.75	0.25	0.50	3.00	0.50	0.25	0.75	-0.211914	0.048828	0.954590	-5.740000	7.490000	-0.070000	694.00	-0.18	-0.09	5.50	3.50	3.50	3.00	3.00	1.25	3.75	0.50	0.00	0.25	0.00	0.00	0.50	0.50	0.25	0.25	-0.146973	0.069824	0.968750	-2.590000	0.070000	0.770000	314.00	-0.19	0.01
1.16	8.50	7.25	6.25	7.50	5.75	7.25	3.50	3.50	0.50	0.25	0.50	0.50	3.00	0.50	0.25	0.75	-0.207520	0.046875	0.953613	-6.300000	9.240000	-0.210000	668.00	-0.18	-0.09	5.50	3.50	4.00	3.50	3.00	1.25	3.75	0.50	0.00	0.00	0.00	0.00	0.25	0.00	0.00	0.25	-0.145996	0.070312	0.975586	-2.870000	-0.070000	0.980000	313.00	-0.21	0.01
1.17	8.50	6.75	6.00	6.75	5.75	6.75	3.25	3.75	0.50	0.50	0.50	0.50	2.75	0.75	0.00	0.75	-0.200195	0.038574	0.952148	-6.370000	14.210000	-0.420000	645.00	-0.17	-0.08	6.00	4.25	4.50	3.25	3.25	1.50	3.75	0.75	0.00	0.00	0.00	0.00	0.50	0.25	0.00	0.25	-0.142578	0.066895	0.965332	-3.290000	-0.630000	1.120000	344.00	-0.21	0.01
1.18	7.25	6.50	5.50	6.25	5.50	6.25	3.25	3.25	0.50	0.00	0.50	0.50	2.50	0.50	0.50	0.75	-0.202148	0.042969	0.949219	-6.160000	17.920000	-0.840000	595.00	-0.17	-0.08	6.25	4.50	4.50	4.25	3.50	1.75	3.75	0.75	0.00	0.00	0.00	0.00	0.25	0.25	0.00	0.50	-0.148926	0.069824	0.962402	-4.060000	-1.260000	1.190000	367.00	-0.21	-0.00
1.19	6.50	6.00	5.25	5.50	5.00	6.00	3.50	3.00	0.50	0.25	0.25	0.25	2.50	0.75	0.00	0.75	-0.199707	0.050781	0.957520	-4.690000	21.700001	-1.260000	554.00	-0.17	-0.08	6.50	4.75	5.00	5.00	3.50	1.75	3.75	0.75	0.25	0.25	0.00	0.00	0.50	0.25	0.50	0.25	-0.145508	0.067871	0.966309	-5.810000	-1.820000	1.330000	400.00	-0.20	-0.01
1.20	6.00	5.50	4.75	4.75	4.75	5.25	3.25	3.00	0.75	0.75	0.25	0.00	2.50	0.50	0.50	0.75	-0.188965	0.041992	0.959473	-2.240000	24.780001	-2.030000	522.00	-0.15	-0.07	7.50	5.00	5.25	5.25	3.75	2.50	3.75	0.75	0.00	0.00	0.00	0.00	0.50	0.25	0.00	0.25	-0.139648	0.092285	0.955566	-8.260000	-2.590000	1.610000	420.00	-0.22	-0.01
1.21	5.25	4.75	4.00	3.75	3.75	5.00	3.25	2.75	1.00	0.50	0.50	0.50	2.25	0.75	0.25	0.50	-0.261230	0.062012	0.954590	-0.910000	28.840000	-3.640000	470.00	-0.14	-0.07	8.50	6.25	5.50	6.75	4.75	3.00	4.00	1.00	0.25	0.00	0.00	0.00	1.25	0.50	0.00	0.00	-0.139648	0.071289	0.966797	-11.550000	-2.590000	1.820000	502.00	-0.22	-0.03
1.22	5.00	4.75	3.25	3.25	3.00	4.25	3.25	3.00	1.00	0.50	0.75	0.00	2.25	0.75	0.50	0.50	-0.163574	0.113281	0.962891	-4.690000	33.389999	-5.600000	438.00	-0.13	-0.07	10.50	7.25	6.75	7.50	5.25	3.75	4.00	1.25	0.25	0.25	0.00	0.00	1.00	0.50	0.25	0.50	-0.146484	0.025879	0.971680	-14.350000	-3.010000	1.960000	585.00	-0.22	-0.03
1.23	3.75	4.50	3.25	3.50	2.50	4.50	3.00	1.75	0.75	0.75	0.50	0.25	1.50	0.75	0.00	0.50	-0.158691	0.072266	1.051758	-15.400000	45.360001	-12.740000	383.00	-0.14	-0.07	12.50	8.00	7.75	8.50	5.75	4.25	4.00	1.25	0.25	0.00	0.00	0.25	0.75	0.25	0.25	0.25	-0.132812	0.066406	0.966797	-15.890000	-3.290000	1.890000	645.00	-0.23	-0.03
1.24	4.00	5.00	3.00	3.00	2.00	4.75	2.75	2.25	0.75	0.75	0.75	0.25	2.00	0.25	0.00	0.75	-0.329590	0.283203	1.361328	-6.440000	119.980003	-16.379999	388.00	-0.14	-0.09	13.75	9.50	8.25	9.00	6.25	5.00	4.25	1.75	0.25	0.00	0.00	0.25	1.00	0.00	0.25	0.25	-0.120117	0.063477	0.969238	-16.309999	-3.290000	1.260000	714.00	-0.24	-0.04
1.25	3.25	3.00	2.75	3.00	2.25	4.50	2.50	1.75	0.50	0.50	0.75	0.50	1.75	0.75	0.00	0.25	-0.370117	0.229980	1.963379	-33.320000	185.149994	-31.500000	339.00	-0.13	-0.08	15.50	10.50	8.75	9.75	6.75	5.25	4.25	1.50	0.25	0.25	0.00	0.00	0.75	0.50	0.25	0.50	-0.133789	0.035645	0.977539	-15.190001	-3.500000	0.910000	767.00	-0.24	-0.03
1.26	2.50	2.50	2.75	2.00	1.75	4.50	2.50	2.00	0.25	0.50	0.50	0.25	1.00	0.25	0.00	0.50	-0.373047	0.547363	1.545410	-47.110001	198.800003	-53.970001	293.00	-0.13	-0.09	15.75	11.50	9.50	10.25	7.25	5.75	4.25	2.00	0.25	0.00	0.00	0.00	1.00	0.25	0.25	0.50	-0.132324	0.063965	0.986328	-13.090000	-3.780000	0.560000	813.00	-0.24	-0.04
1.27	1.75	3.25	2.50	2.50	1.75	3.25	2.50	2.00	0.50	0.50	0.75	0.25	0.50	0.50	0.00	0.25	-0.361328	0.306641	1.863770	-56.700001	185.779999	-76.370003	282.00	-0.12	-0.07	17.50	12.50	9.75	11.00	7.50	6.00	4.25	2.00	0.25	0.25	0.00	0.25	0.75	0.50	0.25	0.50	-0.122559	0.060059	0.974121	-9.590000	-2.590000	0.350000	866.00	-0.24	-0.04
1.28	2.00	1.00	2.50	0.75	1.50	3.25	2.75	1.75	0.00	0.75	0.50	0.25	0.50	0.50	0.25	0.75	0.297852	0.784180	1.650391	-76.790001	167.720001	-82.599998	237.00	-0.08	-0.05	18.75	13.75	10.00	11.50	7.75	6.50	4.50	2.25	0.25	0.50	0.00	0.00	1.00	0.50	0.50	0.75	-0.127441	0.048340	0.982910	-6.790000	-1.190000	0.140000	926.00	-0.24	-0.04
1.29	3.00	3.50	2.25	2.00	1.75	3.50	2.75	1.75	0.00	0.00	0.25	0.00	1.50	0.50	0.00	0.50	0.368652	1.193359	1.662109	-91.840004	142.100006	-66.849998	282.00	-0.15	-0.08	19.25	13.50	10.25	11.75	8.00	7.00	4.50	2.25	0.50	0.25	0.00	0.25	1.25	0.50	0.50	0.75	-0.118652	0.050293	0.973145	-3.990000	0.140000	0.210000	950.00	-0.24	-0.04
1.30	1.25	1.25	1.25	0.75	1.25	3.00	2.75	1.25	0.00	0.00	0.50	0.25	0.50	0.25	0.00	0.50	0.426270	1.449219	1.611328	-92.820000	115.919998	-34.580002	186.00	-0.09	-0.06	19.25	14.00	10.25	12.00	8.00	7.00	4.50	2.50	0.25	0.25	0.00	0.25	1.00	0.25	0.25	0.50	-0.116699	0.050293	0.961914	-2.100000	1.890000	0.350000	950.00	-0.25	-0.04
1.31	1.75	2.00	1.25	1.25	1.25	2.50	2.75	1.00	0.00	0.25	0.25	0.00	1.25	0.50	0.00	0.50	0.679688	1.200684	1.024414	-4.340000	51.310001	28.139999	202.00	-0.11	-0.06	19.00	14.00	10.50	12.00	8.25	7.50	4.50	2.50	0.50	0.50	0.00	0.25	1.00	0.50	0.25	0.50	-0.128906	0.057129	0.978516	-0.560000	3.710000	0.140000	968.00	-0.24	-0.04
1.32	1.25	1.50	1.00	0.75	1.50	2.25	2.75	1.50	0.00	0.50	0.50	0.50	2.00	2.00	1.00	1.00	0.638184	0.915039	0.820312	-4.340000	51.310001	28.139999	237.00	0.00	-0.07	18.75	13.75	10.25	11.75	8.00	7.50	4.50	2.50	0.50	0.25	0.00	0.25	1.50	0.50	0.25	0.50	-0.132324	0.048340	0.981445	0.770000	4.760000	0.210000	955.00	-0.24	-0.04
1.33	3.50	3.75	3.00	3.00	2.25	4.25	3.00	2.00	0.25	0.00	0.25	0.50	0.25	0.75	0.00	0.25	0.680176	0.707031	0.777832	33.040001	37.310001	58.170002	333.00	-0.16	-0.06	18.25	13.50	10.00	11.50	8.00	7.50	4.50	2.75	0.25	0.50	0.00	0.00	1.25	0.50	0.25	0.75	-0.126465	0.060547	0.957031	1.190000	5.670000	0.070000	940.00	-0.24	-0.05
1.34	1.50	1.50	0.75	0.50	1.50	2.25	2.75	1.25	0.00	0.50	0.50	0.25	1.25	0.25	0.00	0.25	0.717285	0.568848	0.881836	40.180000	29.820000	65.379997	188.00	-0.07	-0.06	17.50	13.00	9.75	11.25	8.00	7.75	4.50	2.75	0.25	0.50	0.00	0.00	1.00	0.50	0.00	0.75	-0.122070	0.060059	0.960938	0.910000	6.720000	-0.070000	919.00	-0.24	-0.05
1.35	1.50	2.00	1.50	1.00	1.25	3.00	2.75	1.25	0.00	0.00	0.00	0.00	0.50	0.75	0.00	0.00	0.731934	0.409668	0.895996	48.509998	15.260000	67.690002	196.00	-0.12	-0.05	16.00	12.25	9.50	11.00	7.75	7.50	4.50	3.00	0.50	0.50	0.00	0.25	1.25	0.25	0.25	0.50	-0.129395	0.061523	0.957520	-0.000000	7.560000	-0.420000	894.00	-0.23	-0.05
1.36	1.75	1.50	1.00	0.75	1.25	3.25	2.75	1.50	0.00	0.25	0.25	0.25	0.75	0.25	0.25	0.25	0.717285	0.253906	0.862793	56.770000	-0.630000	66.220001	202.00	-0.09	-0.07	16.50	11.75	9.25	10.75	7.75	7.75	4.50	3.00	0.50	0.25	0.00	0.00	1.25	0.50	0.25	0.50	-0.130371	0.057129	0.957031	-0.910000	7.840000	-0.770000	888.00	-0.23	-0.05
1.37	1.25	1.75	0.75	0.50	1.25	3.50	2.75	1.00	0.00	0.00	0.25	0.50	0.75	0.50	0.00	0.50	0.677734	0.103516	0.858398	59.920002	-14.980000	61.320000	189.00	-0.08	-0.07	15.75	11.00	9.00	10.50	7.75	7.50	4.50	3.00	0.75	0.75	0.00	0.25	2.00	0.75	0.00	0.50	-0.133301	0.056152	0.961426	-1.260000	7.350000	-1.050000	882.00	-0.22	-0.05
1.38	1.25	2.25	0.50	0.50	1.25	2.75	2.75	1.50	0.00	0.50	0.25	0.25	0.50	0.50	0.00	0.75	0.636719	0.000977	0.855469	58.310001	-27.650000	53.900002	192.00	-0.08	-0.07	14.75	10.50	8.75	10.00	7.50	7.50	4.75	3.50	0.50	0.50	0.00	0.25	2.00	0.25	0.50	0.75	-0.133301	0.066895	0.961914	-2.100000	6.930000	-1.050000	862.00	-0.21	-0.06
1.39	1.50	1.50	0.75	0.25	1.25	2.25	2.75	1.25	0.00	0.25	0.25	0.00	0.25	0.25	0.00	0.25	0.579102	-0.074219	0.883789	56.070000	-39.549999	45.360001	164.00	-0.10	-0.03	13.75	10.00	8.50	9.75	7.50	7.50	4.75	3.50	0.25	0.50	0.00	0.50	2.00	0.75	0.50	0.75	-0.149414	0.072754	0.956055	-2.100000	5.250000	-1.260000	844.00	-0.20	-0.06
1.40	1.50	1.00	0.75	0.25	1.25	3.25	2.75	1.00	0.00	0.50	0.25	0.25	0.50	0.50	0.00	0.50	0.535156	-0.112305	0.991699	55.299999	-52.150002	36.680000	179.00	-0.07	-0.04	13.50	9.50	8.50	9.50	7.50	7.50	4.75	3.75	0.75	0.50	0.25	0.25	2.00	0.50	0.25	1.00	-0.136719	0.058105	0.954590	-1.540000	4.060000	-1.050000	840.00	-0.20	-0.06
1.41	1.25	2.00	0.75	0.50	1.00	2.50	2.50	1.25	0.00	0.25	0.00	0.50	0.50	0.25	0.00	0.50	0.457031	-0.124023	1.117676	53.970001	-66.849998	28.700001	172.00	-0.10	-0.07	13.00	9.00	8.25	9.25	7.25	7.50	4.50	4.00	0.75	0.50	0.00	0.50	2.25	0.50	0.25	1.00	-0.129883	0.072266	0.966797	-1.610000	3.500000	-1.120000	823.00	-0.20	-0.06
1.42	1.50	2.00	0.75	0.75	1.25	2.25	2.50	1.25	0.00	0.25	0.25	0.25	0.25	0.25	0.25	0.25	0.406250	-0.145996	1.139160	51.380001	-83.930000	22.400000	177.00	-0.10	-0.05	12.25	8.50	8.25	9.25	7.25	7.50	4.75	4.00	0.50	0.75	0.25	0.25	2.50	0.75	0.50	1.00	-0.140625	0.052734	0.960449	-1.330000	3.010000	-1.120000	820.00	-0.19	-0.06
1.43	3.00	3.25	1.50	1.75	1.75	4.25	2.75	1.50	0.00	0.25	0.25	0.25	1.25	0.50	0.25	0.50	0.325684	-0.138184	1.131348	46.130001	-99.680000	16.660000	279.00	-0.13	-0.08	11.25	8.25	7.75	9.00	7.25	7.75	4.75	4.75	0.75	0.75	0.25	0.50	2.75	0.50	0.50	1.00	-0.139648	0.061035	0.962402	-0.980000	2.520000	-1.120000	819.00	-0.18	-0.07
1.44	1.75	1.75	0.50	1.00	1.25	2.50	2.75	0.75	0.25	0.25	0.25	0.75	0.25	0.50	0.00	0.25	0.236328	-0.094727	1.106934	40.250000	-111.510002	11.480000	184.00	-0.09	-0.04	10.75	8.00	7.75	8.75	7.50	7.75	4.75	5.00	0.75	0.75	0.00	0.75	3.25	0.50	0.50	1.00	-0.127930	0.092773	0.952148	-0.770000	2.030000	-1.190000	820.00	-0.17	-0.08
1.45	1.25	1.50	1.25	0.50	1.25	2.50	2.75	1.00	0.00	0.25	0.25	0.00	0.50	0.50	0.00	0.25	0.148438	-0.036621	1.080078	36.540001	-118.790001	7.700000	174.00	-0.09	-0.03	10.50	7.50	7.50	8.75	7.50	8.00	5.00	5.50	1.00	1.00	0.25	0.50	3.50	0.00	0.25	0.75	-0.138672	0.058594	0.958496	-0.490000	1.470000	-1.190000	824.00	-0.17	-0.08
1.46	1.50	2.25	1.00	0.50	1.00	3.50	2.50	1.25	0.00	0.50	0.50	0.25	0.75	0.00	0.00	0.25	0.059570	-0.010742	1.044922	33.320000	-121.239998	5.250000	196.00	-0.11	-0.08	10.00	7.25	7.50	8.25	7.50	8.00	5.00	5.75	0.75	1.00	0.50	0.75	4.00	0.75	0.25	1.00	-0.133789	0.053223	0.946289	-0.700000	1.330000	-1.400000	830.00	-0.15	-0.08
1.47	1.75	1.25	0.50	0.50	1.25	2.75	2.75	1.00	0.00	0.00	0.25	0.25	1.00	0.50	0.00	0.50	-0.092773	0.088379	1.082031	27.020000	-115.639999	6.300000	177.00	-0.08	-0.06	9.00	7.00	7.25	8.25	7.50	8.00	5.00	6.00	1.00	1.00	0.50	0.75	4.50	0.75	0.50	1.00	-0.138672	0.062012	0.964844	-0.420000	1.120000	-1.400000	828.00	-0.14	-0.09
1.48	1.50	1.75	0.75	0.75	1.00	2.75	2.50	1.25	0.00	0.00	0.25	0.00	0.75	0.50	0.00	0.50	-0.146973	0.092773	1.080566	24.010000	-110.949997	9.870000	177.00	-0.10	-0.07	8.75	6.75	7.00	8.00	7.50	8.25	5.00	6.25	1.25	1.00	0.75	1.00	4.50	0.50	0.50	1.00	-0.133301	0.056641	0.959473	0.070000	1.190000	-1.330000	831.00	-0.14	-0.09
1.49	1.50	1.25	0.00	0.50	1.25	3.25	2.75	1.25	0.00	0.50	0.00	0.00	0.50	0.25	0.00	0.50	-0.175293	0.113770	1.065918	19.180000	-104.510002	15.400000	171.00	-0.08	-0.06	8.50	6.25	7.00	7.75	7.50	8.50	5.00	7.00	3.00	1.50	0.75	1.75	5.50	0.75	1.00	2.50	-0.133301	0.073242	0.979980	0.420000	1.470000	-1.330000	901.00	-0.10	-0.09
1.50	1.25	2.00	0.75	0.75	1.25	2.75	2.75	1.25	0.00	0.25	0.00	0.00	0.25	0.25	0.25	0.25	-0.244141	0.129883	1.149414	12.250000	-97.580002	22.330000	178.00	-0.11	-0.05	7.75	6.00	6.25	7.50	7.75	8.25	5.00	7.00	1.25	1.25	1.00	1.50	5.25	0.75	0.50	1.00	-0.140137	0.059082	0.961426	0.700000	1.890000	-1.400000	833.00	-0.12	-0.10
1.51	1.25	1.50	0.75	0.50	1.25	2.50	2.75	1.00	0.00	0.25	0.25	0.00	0.50	0.25	0.25	0.25	-0.258789	0.137695	1.156250	6.860000	-91.489998	30.870001	168.00	-0.09	-0.04	7.25	5.50	6.00	7.00	7.75	8.25	5.00	7.00	1.50	1.50	1.00	1.25	6.00	1.00	0.50	1.25	-0.131836	0.063477	0.963379	1.540000	2.870000	-1.190000	828.00	-0.11	-0.10
1.52	1.25	1.50	0.25	0.50	1.00	2.50	2.75	1.25	0.00	0.50	0.25	0.25	0.50	0.25	0.00	0.25	-0.348145	0.192871	1.279297	4.340000	-87.150002	40.250000	166.00	-0.07	-0.06	7.00	5.50	6.00	6.75	7.75	8.50	5.00	7.50	1.50	1.75	1.00	1.50	6.25	1.00	0.50	1.25	-0.133789	0.067871	0.954590	2.100000	3.710000	-1.120000	841.00	-0.10	-0.11
1.53	1.25	1.75	0.75	0.50	1.25	3.00	2.50	1.25	0.00	0.25	0.25	0.00	0.50	0.25	0.00	0.50	-0.345215	0.265625	1.375488	12.740000	-88.269997	51.240002	175.00	-0.10	-0.07	6.75	5.00	5.75	6.25	7.50	8.50	5.00	7.50	1.75	1.50	1.25	1.75	6.50	1.00	0.50	1.50	-0.132324	0.062012	0.971680	2.380000	5.110000	-1.330000	832.00	-0.09	-0.11
1.54	1.00	1.50	0.25	0.75	1.25	2.75	2.50	1.00	0.00	0.25	0.25	0.00	0.50	0.25	0.25	0.50	-0.375000	0.241699	1.467285	24.150000	-95.550003	62.090000	163.00	-0.08	-0.07	6.25	4.50	5.25	6.00	7.50	8.25	5.00	7.75	2.00	2.00	1.50	2.00	7.00	1.00	0.25	1.50	-0.130371	0.062988	0.962891	3.010000	6.370000	-1.400000	830.00	-0.08	-0.11
1.55	1.50	1.50	0.75	0.50	1.00	3.25	2.50	1.00	0.25	0.25	0.25	0.25	0.50	0.25	0.00	0.25	-0.428223	0.177246	1.499023	29.820000	-106.820000	72.379997	176.00	-0.09	-0.06	5.75	4.25	4.50	5.25	7.25	8.25	5.00	7.75	2.25	2.25	1.75	1.75	7.25	0.75	0.50	1.50	-0.149414	0.078125	0.978516	3.430000	7.770000	-1.190000	810.00	-0.07	-0.11
1.56	1.25	1.50	0.50	0.75	1.25	2.25	2.50	1.50	0.00	0.25	0.25	0.00	0.50	0.50	0.00	0.50	-0.495605	0.136719	1.434082	25.340000	-116.970001	81.059998	170.00	-0.08	-0.06	5.50	3.50	4.75	5.00	7.00	8.25	5.00	8.00	2.00	2.00	1.75	2.50	7.75	0.75	0.75	1.75	-0.148438	0.077637	0.968262	3.920000	8.680000	-1.120000	812.00	-0.06	-0.12
1.57	1.25	1.25	0.50	0.75	1.25	2.50	2.50	1.00	0.00	0.50	0.25	0.00	0.00	0.00	0.00	0.25	-0.575195	0.111816	1.354980	15.680000	-122.430000	88.129997	154.00	-0.10	-0.04	5.00	3.50	4.00	4.50	6.75	8.25	5.00	8.00	2.00	2.25	2.00	2.75	8.25	1.00	0.50	2.00	-0.155273	0.059082	0.958008	4.620000	10.010000	-1.120000	803.00	-0.05	-0.13
1.58	1.00	1.25	0.50	1.00	1.00	3.50	2.50	1.00	0.00	0.50	0.50	0.00	0.50	0.25	0.00	0.25	-0.650391	0.095215	1.249512	6.650000	-123.059998	92.959999	173.00	-0.08	-0.07	5.00	3.25	3.75	3.75	6.50	7.75	5.00	8.25	2.50	2.50	2.25	3.00	8.75	1.25	0.75	2.00	-0.143555	0.070801	0.965332	5.390000	11.340000	-0.910000	809.00	-0.03	-0.13
1.59	1.00	1.75	1.00	0.50	1.00	2.75	2.75	1.25	0.00	0.00	0.25	0.25	0.25	0.50	0.00	0.25	-0.729492	0.049316	1.139160	1.400000	-118.580002	95.480003	172.00	-0.09	-0.05	4.00	2.75	3.50	3.50	6.25	7.75	5.00	8.25	2.75	2.75	2.75	3.50	9.00	1.25	1.00	2.00	-0.167969	0.078613	0.981934	6.230000	12.810000	-0.700000	807.00	-0.01	-0.13
1.60	0.75	1.50	0.75	0.50	1.00	2.75	2.75	1.00	0.25	0.50	0.25	0.25	0.50	0.75	0.00	0.50	-0.927246	-0.102051	0.972656	-3.710000	-96.949997	92.400002	175.00	-0.05	-0.04	3.50	2.25	3.25	3.25	5.75	7.50	5.00	8.25	2.75	3.00	2.75	3.75	9.50	1.50	1.00	2.50	-0.141113	0.080078	0.981445	7.280000	14.280000	-0.630000	797.00	0.00	-0.13
1.61	1.00	0.75	0.50	0.25	1.00	2.50	2.75	1.00	0.00	0.50	0.25	0.00	0.75	0.25	0.00	0.25	-0.927246	-0.102051	0.972656	-3.710000	-96.949997	92.400002	151.00	-0.05	-0.04	3.00	1.75	2.75	2.75	5.25	7.25	4.75	8.50	3.25	3.25	3.50	4.25	10.00	1.25	1.00	3.00	-0.115723	0.078125	0.971680	7.980000	15.540000	-0.350000	795.00	0.02	-0.14
1.62	1.00	1.25	0.50	0.50	1.25	2.75	2.75	1.25	0.25	0.25	0.50	0.25	0.00	0.25	0.00	0.25	-1.077148	-0.163086	0.902832	-14.280000	-73.080002	82.320000	169.00	-0.07	-0.04	2.50	1.50	2.50	2.50	4.50	6.75	4.75	8.25	3.25	3.50	3.75	4.75	10.50	1.50	1.00	3.25	-0.107422	0.070312	0.960938	8.960000	17.500000	-0.350000	781.00	0.04	-0.14
1.63	1.00	1.00	0.25	0.00	1.00	2.50	2.50	1.00	0.25	0.25	0.00	0.00	0.50	0.50	0.00	0.50	-1.145508	-0.152344	0.830566	-16.870001	-66.080002	77.349998	143.00	-0.05	-0.04	2.25	1.25	2.50	2.25	3.75	6.50	4.75	8.25	3.25	3.75	4.50	5.50	10.50	1.75	1.25	3.50	-0.159180	0.070801	0.973145	11.900000	21.210001	-0.560000	788.00	0.05	-0.15
1.64	1.00	1.00	0.50	0.00	1.00	2.75	2.50	1.25	0.00	0.25	0.50	0.00	0.50	0.50	0.00	0.25	-1.223633	-0.142090	0.760742	-12.180000	-60.760002	72.169998	154.00	-0.06	-0.06	2.00	0.75	1.75	1.75	3.00	6.00	4.75	8.25	3.50	4.25	5.50	6.75	11.00	1.75	1.50	4.00	-0.159668	0.080078	0.970703	14.000000	23.660000	-0.630000	796.00	0.08	-0.15
1.65	1.00	1.25	0.50	0.50	1.25	2.75	2.50	1.25	0.00	0.50	0.50	0.00	0.25	0.50	0.00	0.50	-1.323730	-0.167969	0.711426	-0.490000	-58.170002	66.290001	167.00	-0.07	-0.06	1.75	0.75	1.50	1.25	2.25	5.50	4.50	8.25	3.50	4.25	6.75	7.50	11.25	2.00	1.50	4.75	-0.220703	0.088867	0.961426	16.309999	25.760000	-0.770000	797.00	0.09	-0.16
1.66	1.25	1.00	0.50	0.00	1.00	2.50	2.50	1.25	0.00	0.50	0.25	0.00	0.50	0.25	0.00	0.25	-1.435059	-0.264648	0.583008	9.660000	-57.330002	57.959999	151.00	-0.07	-0.05	1.25	0.75	1.50	1.25	2.00	5.00	4.50	8.00	3.75	4.75	7.75	8.00	11.50	2.25	1.75	5.00	-0.158691	0.091797	0.974121	19.530001	27.930000	-1.120000	814.00	0.11	-0.16
1.67	0.75	1.25	0.75	0.50	1.00	3.00	2.75	1.25	0.25	0.50	0.50	0.00	0.25	0.50	0.00	0.50	-1.559570	-0.342285	0.347656	12.320000	-51.799999	48.160000	175.00	-0.05	-0.05	1.25	0.25	1.25	0.75	1.25	4.00	4.25	7.75	4.00	5.50	8.25	8.50	11.75	2.75	2.00	5.25	-0.180664	0.097168	1.010254	23.170000	31.010000	-1.960000	805.00	0.13	-0.15
1.68	1.00	1.00	0.25	0.50	1.00	2.50	2.75	1.00	0.00	0.25	0.00	0.25	0.50	0.25	0.00	0.50	-1.662598	-0.372070	0.158203	7.770000	-36.189999	38.849998	150.00	-0.07	-0.05	0.75	0.50	1.25	0.75	1.25	3.25	4.25	7.50	4.50	6.00	8.50	8.75	12.00	3.00	2.25	5.50	-0.163086	0.109375	1.006348	27.230000	36.820000	-3.150000	817.00	0.14	-0.15
1.69	1.25	1.25	0.50	0.50	1.00	2.25	2.75	1.00	0.00	0.50	0.25	0.00	0.50	0.50	0.00	0.25	-1.722168	-0.363770	0.050781	-1.470000	-10.990000	31.360001	159.00	-0.07	-0.03	1.00	0.50	0.75	1.00	1.25	2.75	4.00	7.00	4.50	6.75	9.00	9.00	12.00	3.25	2.50	6.25	-0.180176	0.122559	1.008301	30.030001	44.660000	-5.180000	825.00	0.15	-0.15
1.70	1.25	1.50	0.00	0.25	1.00	3.25	2.75	1.25	0.00	0.25	0.25	0.00	1.00	0.25	0.00	0.50	-2.359863	-0.333008	-0.601074	-18.480000	16.309999	23.450001	169.00	-0.07	-0.08	0.75	0.50	0.75	0.75	1.00	2.00	4.00	6.50	4.75	7.50	9.25	9.25	12.50	3.75	2.75	6.75	-0.190430	0.116699	0.998047	33.040001	51.520000	-7.350000	832.00	0.16	-0.14
1.71	1.75	1.50	0.50	0.25	1.25	2.50	2.50	1.00	0.00	0.25	0.00	0.00	0.25	0.25	0.25	0.50	-1.948730	-0.426270	-0.128418	-58.590000	89.739998	8.400000	160.00	-0.10	-0.04	1.25	0.50	0.75	0.50	0.75	1.50	4.00	5.75	4.75	7.75	9.50	9.50	12.50	4.00	3.25	7.25	-0.204102	0.115234	1.012695	35.770000	59.570000	-8.470000	832.00	0.17	-0.13
1.72	1.50	1.75	0.75	0.75	1.00	2.50	2.75	1.25	0.00	0.25	0.50	0.50	0.50	0.50	0.25	0.25	0.156738	0.045410	0.471191	-63.000000	139.089996	-7.350000	189.00	-0.08	-0.06	0.75	0.25	0.75	0.50	0.75	1.00	3.75	5.00	5.00	8.00	10.00	10.00	12.25	4.50	3.50	7.75	-0.213379	0.124023	0.997070	36.820000	73.080002	-9.100000	828.00	0.18	-0.13
1.73	1.75	2.00	0.75	1.00	1.25	2.75	2.50	1.25	0.00	0.25	0.25	0.00	0.75	0.25	0.00	0.50	-0.068359	0.034668	1.968262	-43.330002	143.430008	-7.280000	189.00	-0.11	-0.07	0.50	0.50	0.75	0.50	0.50	0.75	3.75	3.50	5.50	8.25	10.00	10.00	12.50	5.00	3.75	8.00	-0.228027	0.141113	1.033203	40.529999	92.470001	-11.620000	818.00	0.20	-0.12
1.74	2.75	2.50	1.00	0.75	1.25	2.25	2.75	1.00	0.00	0.25	0.25	0.25	0.75	0.25	0.00	0.50	-0.027832	0.006348	1.597168	-34.720001	117.110001	-4.340000	202.00	-0.13	-0.04	0.75	0.50	0.50	0.25	0.50	0.50	3.75	2.50	5.50	8.50	10.25	10.00	12.25	5.25	4.00	8.50	-0.270020	0.165039	1.089355	39.270000	141.750000	-18.620001	807.00	0.20	-0.11
1.75	3.00	2.75	0.75	1.25	1.50	2.50	2.50	1.00	0.00	0.25	0.00	0.50	0.75	0.25	0.00	0.50	0.033203	-0.144531	0.737305	-37.730000	100.099998	-14.210000	212.00	-0.14	-0.06	0.75	0.00	0.50	0.25	0.50	0.75	3.50	1.75	5.50	8.75	10.50	10.00	12.00	5.75	4.00	8.50	-0.271973	0.131836	1.114746	30.730000	165.759995	-21.210001	796.00	0.21	-0.10
1.76	4.25	4.25	1.25	1.50	1.75	3.00	2.75	1.50	0.00	0.50	0.25	0.75	0.75	0.25	0.00	0.50	-0.109863	0.033691	0.750977	-34.509998	118.790001	-23.730000	281.00	-0.16	-0.06	0.50	0.25	0.75	0.75	0.50	0.75	3.50	1.50	5.75	9.00	10.50	10.00	11.75	6.00	4.25	8.50	-0.316895	0.170898	1.066895	22.190001	185.430008	-22.540001	810.00	0.21	-0.10
1.77	4.75	5.25	2.00	2.50	1.75	2.25	2.75	1.25	0.00	0.50	0.75	0.75	0.25	0.25	0.00	0.50	-0.328613	0.261230	1.500000	-17.570000	136.990005	-17.080000	305.00	-0.18	-0.05	0.75	0.00	0.75	0.00	0.50	0.50	3.50	1.25	5.75	9.00	10.50	10.00	11.50	6.50	4.50	8.50	-0.341309	0.181152	1.125977	16.590000	202.229996	-24.920000	799.00	0.22	-0.09
1.78	5.50	5.50	2.25	2.75	1.75	2.75	2.75	1.25	0.00	0.25	0.50	0.75	1.25	0.25	0.00	0.25	-0.291016	0.153809	1.405273	-30.100000	124.250000	-15.960000	331.00	-0.19	-0.06	0.75	0.25	0.25	0.25	0.25	0.25	3.25	0.75	5.75	9.25	10.25	10.00	11.00	6.75	4.75	8.50	-0.361816	0.176758	1.025391	10.360000	218.050003	-28.280001	780.00	0.23	-0.09
1.79	7.00	6.00	2.75	4.50	2.25	3.25	2.75	1.25	0.00	0.25	0.50	0.75	2.00	0.75	0.25	0.75	-0.416016	0.135742	1.810547	-37.730000	118.720001	-14.070000	409.00	-0.18	-0.07	0.50	0.25	0.50	0.25	0.50	0.25	3.25	0.75	5.75	9.25	10.25	9.75	10.75	7.00	4.50	8.25	-0.400879	0.186035	1.095215	4.410000	234.009995	-31.850000	776.00	0.23	-0.08
1.80	9.25	7.75	4.75	5.50	2.50	3.75	3.00	1.75	0.50	0.25	0.75	1.00	2.00	1.00	0.25	0.50	-0.322754	0.104004	1.465820	-36.189999	101.989998	-10.290000	524.00	-0.19	-0.06	0.25	0.25	0.50	0.00	0.25	0.25	3.25	1.00	5.50	9.25	10.00	9.25	10.00	7.00	4.25	8.00	-0.447266	0.187012	1.125977	1.960000	250.389999	-36.049999	748.00	0.23	-0.08
1.81	8.25	7.50	5.00	5.75	3.00	4.75	3.00	2.00	0.25	0.50	0.75	0.75	2.00	0.75	0.00	0.50	-0.292480	0.098145	1.384766	-36.470001	84.489998	-7.140000	529.00	-0.19	-0.07	0.50	0.25	0.50	0.00	0.50	0.50	3.25	0.75	5.25	9.25	9.75	9.00	9.25	7.25	4.50	7.75	-0.478027	0.237305	1.146484	-4.900000	266.839996	-41.230000	740.00	0.23	-0.08
1.82	11.00	8.75	5.50	6.50	3.00	5.25	3.00	2.25	0.25	0.25	0.50	1.00	2.00	0.75	0.00	0.50	-0.236816	0.065918	1.217773	-30.520000	69.160004	-3.080000	595.00	-0.21	-0.07	0.50	0.25	0.50	0.00	0.25	0.50	3.00	0.75	5.00	9.00	9.50	8.75	8.50	7.50	4.25	7.00	-0.512207	0.223145	1.213867	-11.690000	282.869995	-48.299999	709.00	0.23	-0.07
1.83	10.75	8.75	5.50	7.25	3.25	5.25	3.00	2.25	0.25	0.50	0.50	0.75	2.25	0.50	0.50	0.75	-0.201172	0.037109	1.066406	-26.320000	61.529999	-1.260000	612.00	-0.20	-0.07	0.50	0.00	0.50	0.25	0.25	0.50	3.00	0.75	4.25	8.75	9.25	8.25	7.75	7.50	3.75	6.25	-0.557617	0.200684	1.233398	-21.210001	298.410004	-55.510002	670.00	0.23	-0.07
1.84	11.50	9.00	6.00	7.75	3.75	5.50	3.00	2.25	0.50	0.50	0.75	0.75	2.50	0.50	0.25	0.75	-0.189941	0.038574	1.050781	-19.670000	58.590000	-0.840000	650.00	-0.20	-0.07	0.00	0.25	0.50	0.00	0.25	0.50	3.00	0.75	3.50	8.50	8.50	7.75	6.25	7.50	3.25	5.50	-0.599609	0.242188	1.156738	-25.480000	317.940002	-62.299999	611.00	0.23	-0.07
1.85	12.00	9.00	6.25	7.75	4.00	5.50	3.00	2.50	0.50	0.75	0.75	1.00	2.25	1.00	0.25	0.75	-0.219238	0.080566	1.129883	-25.200001	48.230000	-1.470000	674.00	-0.20	-0.07	0.50	0.25	0.25	0.00	0.25	0.50	3.00	0.75	2.75	8.00	8.00	6.75	5.75	7.50	2.50	3.75	-0.778809	0.359863	1.236816	-24.990000	334.250000	-68.739998	557.00	0.22	-0.06
1.86	12.00	9.25	6.50	8.00	4.75	5.75	3.25	2.75	0.25	0.50	0.75	1.00	2.50	0.50	0.50	0.50	-0.208008	0.066895	1.033203	-27.650000	34.230000	-0.350000	695.00	-0.20	-0.07	0.25	0.00	0.75	0.00	0.25	0.50	3.25	0.50	2.50	7.50	7.50	5.75	5.00	7.25	1.75	2.25	-1.043457	0.427734	1.382324	-20.020000	342.720001	-75.949997	504.00	0.22	-0.04
1.87	12.25	9.50	6.75	8.00	4.75	6.00	3.25	2.50	0.75	0.75	0.75	0.75	2.75	1.00	0.25	0.75	-0.204102	0.069824	0.986328	-27.020000	26.320000	0.700000	715.00	-0.20	-0.06	0.75	0.00	0.50	0.00	0.25	0.25	3.25	0.50	2.00	7.00	6.75	4.75	3.25	6.75	1.25	1.25	-1.110840	0.534180	1.504395	13.720000	339.290009	-78.540001	438.00	0.21	-0.02
1.88	11.75	9.75	6.75	8.50	4.75	6.00	3.50	2.75	0.75	0.75	0.75	1.00	2.75	1.00	0.50	0.50	-0.190918	0.055176	0.991699	-25.270000	21.910000	0.560000	730.00	-0.19	-0.07	0.25	0.25	0.50	0.00	0.50	0.50	3.25	0.50	2.00	6.25	5.25	4.25	3.25	6.25	0.75	0.75	-1.076172	0.325684	1.741211	37.029999	332.850006	-85.540001	396.00	0.21	-0.02
1.89	12.75	9.50	7.25	8.50	5.00	6.50	3.50	3.00	0.50	0.75	0.50	1.00	3.00	0.75	0.25	0.75	-0.188965	0.050781	0.967773	-22.820000	18.270000	0.560000	751.00	-0.20	-0.07	0.50	0.00	0.50	0.00	0.25	0.25	3.25	0.50	1.75	5.50	4.25	3.50	2.50	5.25	0.50	1.00	-1.210938	0.114258	1.832520	34.230000	326.760010	-93.940002	340.00	0.20	-0.00
1.90	13.00	9.75	7.50	8.50	5.25	7.00	3.50	3.25	0.75	0.75	0.75	0.75	2.75	0.75	0.25	0.75	-0.205078	0.050293	0.980469	-21.629999	16.100000	0.910000	773.00	-0.20	-0.07	0.50	0.00	0.50	0.00	0.25	0.25	3.50	0.25	1.75	5.00	3.75	2.50	1.75	4.50	0.25	0.00	-1.137207	0.181641	1.959961	9.170000	316.190002	-100.379997	294.00	0.19	0.03
1.91	12.75	10.00	7.50	9.00	5.75	7.50	3.50	3.25	1.00	0.75	0.75	1.00	3.50	0.75	0.25	0.75	-0.201172	0.077148	0.970215	-19.740000	13.790000	0.770000	805.00	-0.19	-0.07	0.50	0.25	0.50	0.00	0.25	0.25	3.50	0.50	1.50	4.25	2.75	2.50	1.75	2.50	0.25	0.25	-1.064453	0.225586	1.837402	-18.059999	304.850006	-106.540001	260.00	0.17	0.01
1.92	14.00	10.25	7.75	8.75	6.00	7.50	3.50	3.25	1.00	0.50	0.75	1.00	3.25	0.75	0.50	1.25	-0.199707	0.038574	0.968750	-13.650000	8.330000	0.700000	825.00	-0.19	-0.07	0.25	0.00	0.25	0.00	0.00	0.00	3.50	0.25	1.25	3.50	1.75	2.00	1.00	1.50	0.50	0.50	-0.885742	0.394531	1.849121	-39.060001	296.309998	-112.000000	201.00	0.18	0.04
1.93	14.00	10.25	8.00	9.25	6.00	7.50	3.50	3.50	1.00	0.75	0.75	1.25	3.75	1.00	0.25	1.00	-0.199707	0.036621	0.966797	-11.550000	7.420000	0.840000	847.00	-0.19	-0.07	0.00	0.00	0.25	0.00	0.25	0.25	3.50	0.50	1.25	3.00	1.25	1.50	0.75	0.75	0.00	0.25	-0.759766	0.421875	1.654297	-47.950001	290.989990	-115.849998	174.00	0.16	0.05
1.94	12.00	9.50	7.50	9.25	6.25	8.00	3.75	3.75	0.75	0.75	0.75	1.25	3.50	1.00	0.50	0.75	-0.198730	0.040039	0.974609	-9.660000	6.580000	0.840000	823.00	-0.18	-0.08	0.25	0.00	0.00	0.00	0.25	0.25	3.50	0.25	1.25	2.25	1.25	1.25	0.75	0.50	0.25	0.50	-0.466797	0.458008	1.472656	-52.849998	288.679993	-118.580002	160.00	0.16	0.06
1.95	12.25	9.50	7.50	9.75	7.00	8.00	3.75	4.75	2.75	2.00	2.00	2.00	4.00	2.50	0.75	1.00	-0.199219	0.026367	0.956543	-8.260000	6.020000	0.910000	946.00	-0.13	-0.07	0.25	0.00	0.25	0.00	0.25	0.25	3.75	0.25	0.75	1.75	0.75	1.00	0.25	0.50	0.00	0.75	-0.031738	0.401855	1.566406	-69.510002	277.269989	-122.430000	140.00	0.13	0.08
1.96	12.00	9.50	7.50	10.25	6.25	8.00	3.75	4.25	1.75	1.50	2.00	2.25	4.75	2.25	1.25	2.00	-0.201660	0.034180	0.970703	-7.630000	5.740000	0.840000	931.00	-0.14	-0.08	0.50	0.00	0.25	0.00	0.25	0.00	3.75	0.25	0.50	1.25	0.75	0.50	0.50	0.25	0.00	0.50	0.862305	0.541992	1.479004	-107.590004	254.940002	-126.279999	123.00	0.10	0.10
1.97	17.25	12.50	9.25	10.75	7.50	9.25	4.00	5.50	2.75	2.25	2.25	2.50	5.75	2.25	1.50	2.00	-0.197754	0.039062	0.956055	-7.000000	4.970000	0.630000	1144.00	-0.14	-0.08	0.50	0.00	0.00	0.00	0.25	0.25	3.75	0.25	0.50	1.25	0.50	0.25	0.25	0.50	0.00	0.25	0.499512	0.625000	1.199707	-114.870003	219.589996	-111.090004	116.00	0.10	0.12
1.98	17.50	12.75	9.25	10.75	7.50	9.50	4.25	5.50	3.00	2.25	2.25	2.25	5.75	2.25	1.50	1.75	-0.194336	0.041504	0.955566	-6.090000	4.340000	0.630000	1156.00	-0.14	-0.07	0.00	0.00	0.00	0.00	0.25	0.25	3.75	0.25	0.25	1.25	0.50	0.25	0.25	0.25	0.00	0.50	0.722656	0.770508	2.501953	-91.070000	113.400002	-83.790001	106.00	0.12	0.11
1.99	17.75	12.50	9.25	10.75	7.75	9.50	4.25	6.00	3.00	2.25	2.25	2.50	5.75	2.50	1.50	2.00	-0.200684	0.051270	0.960449	-5.390000	3.850000	0.630000	1174.00	-0.14	-0.08	0.00	0.00	0.25	0.00	0.00	0.00	3.75	0.25	0.25	0.75	0.25	0.00	0.00	0.25	0.00	0.25	0.554688	0.614258	1.614746	-35.490002	-84.559998	-41.090000	88.00	0.10	0.17
2.00	17.25	12.25	9.25	10.50	7.75	9.75	4.25	6.00	2.75	2.50	2.25	2.75	6.00	2.25	1.50	2.00	-0.192871	0.039551	0.958496	-4.550000	3.710000	0.490000	1168.00	-0.14	-0.08	0.00	0.00	0.00	0.00	0.25	0.25	4.00	0.25	0.25	0.75	0.00	0.00	0.00	0.25	0.00	0.00	0.413086	0.479980	1.222168	-21.700001	-136.919998	-26.460001	90.00	0.09	0.17
2.01	13.50	10.75	8.25	9.75	7.25	9.00	4.00	5.50	1.25	1.25	1.25	1.75	5.00	1.00	0.50	1.25	-0.198730	0.030762	0.954102	-3.850000	3.990000	0.420000	966.00	-0.16	-0.09	0.00	0.00	0.00	0.00	0.00	0.25	4.00	0.00	0.00	1.00	0.00	0.00	0.00	0.25	0.00	0.25	0.316895	0.442871	0.974609	-13.790000	-161.839996	-14.980000	84.00	0.11	0.19
2.02	13.50	10.00	8.25	9.50	7.50	9.25	4.00	5.75	1.50	1.50	1.75	1.50	5.25	0.75	0.75	1.25	-0.193359	0.032715	0.962891	-3.080000	4.550000	0.210000	978.00	-0.16	-0.09	0.00	0.00	0.00	0.00	0.25	0.00	3.75	0.50	0.00	1.00	0.00	0.00	0.00	0.50	0.00	0.00	0.263184	0.406250	0.827637	-10.780000	-170.589996	-4.900000	89.00	0.10	0.15
2.03	12.75	9.50	8.00	9.25	7.50	9.25	4.25	6.00	1.50	1.50	1.75	1.75	4.75	1.00	0.50	1.25	-0.190430	0.046875	0.966309	-2.030000	5.670000	0.140000	964.00	-0.15	-0.09	0.25	0.00	0.00	0.00	0.00	0.00	4.00	0.50	0.00	0.50	0.00	0.00	0.00	0.25	0.00	0.50	0.246094	0.362305	0.731445	-14.490000	-173.600006	4.270000	88.00	0.08	0.15
2.04	10.00	8.75	7.50	8.50	7.25	8.75	4.25	6.00	2.25	1.75	2.00	2.75	6.50	1.00	1.00	2.00	-0.192871	0.035645	0.953125	-0.910000	6.720000	0.140000	956.00	-0.12	-0.10	0.00	0.00	0.00	0.00	0.25	0.00	4.00	0.25	0.00	0.75	0.00	0.00	0.00	0.00	0.00	0.00	0.241699	0.343262	0.720703	-23.730000	-176.610001	14.000000	82.00	0.08	0.18
2.05	9.25	8.50	7.00	8.25	7.00	8.75	4.25	6.25	1.75	1.75	2.00	2.00	5.75	1.00	0.50	1.50	-0.190430	0.042969	0.959961	0.490000	7.840000	0.280000	906.00	-0.12	-0.10	0.00	0.00	0.25	0.00	0.00	0.25	3.75	0.25	0.00	0.75	0.00	0.00	0.00	0.25	0.00	0.25	0.209473	0.332031	0.753418	-36.259998	-182.210007	23.660000	84.00	0.09	0.16
2.06	8.75	8.00	7.00	8.50	7.50	9.00	4.25	6.50	2.75	2.25	2.25	2.25	6.25	1.25	0.25	1.50	-0.216309	0.037598	0.958496	2.940000	9.940000	0.350000	941.00	-0.11	-0.10	0.00	0.00	0.00	0.00	0.25	0.00	4.00	0.25	0.00	0.75	0.00	0.00	0.00	0.00	0.00	0.25	0.177246	0.353516	0.786133	-48.369999	-190.190002	33.880001	83.00	0.09	0.18
2.07	9.25	8.25	6.75	8.25	7.50	9.75	4.75	7.75	3.25	2.75	3.50	2.25	6.25	1.00	0.50	2.25	-0.262207	0.038086	0.958496	4.060000	10.920000	0.420000	1013.00	-0.10	-0.10	0.00	0.00	0.00	0.00	0.00	0.25	4.00	0.25	0.00	0.75	0.00	0.00	0.00	0.25	0.00	0.00	0.146973	0.373047	0.837402	-57.049999	-199.990005	44.799999	84.00	0.09	0.17
2.08	8.50	7.75	6.00	7.75	7.50	9.50	4.50	7.75	2.50	3.25	2.75	3.00	6.75	2.00	0.25	1.75	-0.243164	0.024414	0.953125	5.110000	11.620000	0.490000	981.00	-0.09	-0.11	0.00	0.00	0.25	0.00	0.25	0.50	4.00	0.00	0.00	0.75	0.00	0.00	0.00	0.25	0.00	0.00	0.101562	0.390625	0.908203	-61.880001	-212.380005	55.230000	89.00	0.07	0.18
2.09	7.25	6.25	5.50	7.25	7.00	8.75	4.25	7.50	2.25	2.50	2.50	2.50	7.50	1.25	0.75	1.50	-0.185059	0.083008	0.970703	5.600000	12.040000	0.560000	900.00	-0.08	-0.12	0.00	0.00	0.25	0.00	0.25	0.00	4.00	0.25	0.00	0.25	0.00	0.00	0.00	0.25	0.00	0.00	0.070801	0.403809	0.969727	-62.230000	-227.220001	64.820000	81.00	0.07	0.19
2.10	7.00	6.50	5.50	7.25	7.00	8.75	4.50	7.75	3.00	2.75	3.25	3.50	8.25	1.50	0.75	1.75	-0.193359	0.046387	0.959961	5.810000	12.320000	0.560000	952.00	-0.07	-0.12	0.25	0.00	0.25	0.00	0.25	0.25	3.75	0.25	0.25	0.50	0.00	0.00	0.00	0.00	0.00	0.00	-0.072754	0.421387	1.110840	-44.450001	-264.390015	81.269997	87.00	0.05	0.17
2.11	6.50	6.25	5.50	6.50	6.75	8.75	4.25	8.00	3.25	2.75	3.50	3.50	8.50	1.50	0.75	2.00	-0.208496	0.047363	0.958984	6.020000	12.460000	0.490000	942.00	-0.06	-0.12	0.00	0.00	0.25	0.00	0.25	0.00	4.00	0.00	0.00	0.25	0.00	0.00	0.00	0.00	0.00	0.00	-0.198730	0.387207	1.138672	-31.500000	-283.850006	86.590004	75.00	0.06	0.22
2.12	6.00	5.75	5.25	6.25	6.50	8.75	4.25	8.25	3.50	3.25	3.75	4.25	9.00	1.50	0.50	2.00	-0.211914	0.046387	0.959961	6.160000	12.740000	0.350000	950.00	-0.05	-0.12	0.25	0.00	0.25	0.00	0.00	0.00	4.00	0.25	0.00	0.25	0.00	0.00	0.25	0.00	0.00	0.00	-0.300293	0.350586	1.137695	-20.650000	-299.880005	88.550003	81.00	0.05	0.17
2.13	5.75	5.75	5.00	6.00	6.25	8.75	4.25	8.25	3.75	3.25	4.00	4.25	9.25	2.00	1.00	2.75	-0.215332	0.043457	0.962402	6.300000	12.950000	0.420000	961.00	-0.03	-0.12	0.00	0.00	0.25	0.00	0.25	0.00	4.00	0.25	0.00	0.25	0.00	0.00	0.00	0.00	0.00	0.00	-0.379883	0.310547	1.139648	-13.510000	-310.309998	87.779999	79.00	0.06	0.19
2.14	5.50	5.50	4.75	5.50	6.50	8.75	4.00	8.25	4.00	3.75	4.25	4.75	9.75	1.75	0.75	2.25	-0.210938	0.055176	0.961914	6.510000	13.160000	0.420000	960.00	-0.03	-0.13	0.00	0.00	0.25	0.00	0.25	0.25	3.75	0.00	0.00	0.50	0.00	0.00	0.00	0.00	0.00	0.00	-0.464355	0.281738	1.134277	-8.960000	-315.070007	85.330002	76.00	0.06	0.20
2.15	5.25	6.00	5.25	5.75	6.50	8.50	4.25	8.50	4.25	4.00	5.75	6.25	10.00	1.75	0.75	2.50	-0.219238	0.050293	0.954102	6.650000	13.930000	0.140000	1022.00	-0.02	-0.13	0.00	0.00	0.00	0.00	0.25	0.25	3.75	0.25	0.00	0.50	0.00	0.00	0.00	0.00	0.00	0.00	-0.540039	0.250000	1.138672	-6.440000	-315.070007	81.269997	78.00	0.07	0.17
2.16	4.50	5.50	4.50	5.75	6.00	9.25	4.25	9.25	5.25	5.75	6.50	5.75	10.50	2.00	1.00	2.75	-0.225098	0.049805	0.959473	6.930000	14.420000	0.140000	1063.00	0.00	-0.13	0.00	0.00	0.00	0.00	0.25	0.00	3.75	0.00	0.00	0.50	0.00	0.00	0.00	0.00	0.00	0.00	-0.594238	0.247070	1.171875	-5.950000	-311.989990	75.320000	70.00	0.08	0.22
2.17	4.00	5.00	3.75	5.00	4.75	8.25	3.75	8.50	4.25	4.75	6.50	6.25	10.25	1.75	0.75	3.00	-0.212891	0.076660	0.956543	7.070000	14.840000	0.070000	960.00	0.01	-0.14	0.25	0.00	0.25	0.00	0.25	0.00	3.75	0.25	0.00	0.50	0.00	0.00	0.00	0.00	0.00	0.00	-0.639648	0.239258	1.228516	-8.610000	-307.160004	68.459999	80.00	0.05	0.18
2.18	4.25	5.00	3.50	3.25	4.50	8.25	3.75	8.75	4.25	5.00	7.00	7.00	10.50	1.25	0.75	3.00	-0.075684	0.063477	0.948730	7.420000	14.840000	0.280000	955.00	0.01	-0.14	0.25	0.00	0.25	0.00	0.00	0.00	3.75	0.25	0.00	0.50	0.00	0.00	0.00	0.00	0.00	0.25	-0.687988	0.277832	1.269043	-8.190000	-303.100006	59.500000	79.00	0.06	0.18
2.19	4.00	4.75	3.00	4.00	4.25	8.00	3.75	8.75	4.50	5.25	7.50	7.50	10.75	1.50	0.75	3.50	-0.218262	0.052734	0.972168	7.770000	14.910000	0.630000	972.00	0.02	-0.15	0.00	0.00	0.00	0.00	0.25	0.00	3.75	0.25	0.00	0.25	0.00	0.00	0.00	0.25	0.00	0.00	-0.717773	0.329590	1.364258	-2.030000	-300.299988	51.310001	74.00	0.08	0.19
2.20	3.75	4.50	2.75	3.75	4.00	8.00	3.75	8.75	4.50	5.50	7.75	7.75	11.00	2.00	1.00	3.25	-0.224609	0.073242	0.959961	8.820000	15.890000	0.630000	975.00	0.03	-0.15	0.00	0.00	0.00	0.00	0.00	0.25	3.75	0.00	0.00	0.50	0.00	0.00	0.00	0.00	0.00	0.00	-0.729980	0.351562	1.433105	4.270000	-297.779999	44.799999	70.00	0.08	0.21
2.21	3.50	4.75	3.00	3.75	4.00	7.75	3.50	8.75	5.00	6.00	8.25	8.00	11.25	2.00	1.25	3.50	-0.237305	0.073242	0.947754	8.820000	15.890000	0.630000	999.00	0.04	-0.14	0.25	0.00	0.00	0.00	0.00	0.00	3.75	0.00	0.00	0.50	0.00	0.00	0.00	0.00	0.00	0.00	-0.737793	0.372070	1.522949	8.610000	-295.750000	41.299999	70.00	0.07	0.22
2.22	3.75	4.25	3.00	3.50	3.25	7.75	3.50	8.75	5.00	6.25	8.50	8.00	11.50	1.50	1.00	3.50	-0.229980	0.065918	0.948730	10.290000	17.219999	0.280000	985.00	0.04	-0.15	0.00	0.00	0.00	0.00	0.00	0.00	3.75	0.25	0.00	0.50	0.00	0.00	0.00	0.00	0.00	0.00	-0.767578	0.397461	1.622070	10.360000	-293.230011	40.389999	72.00	0.09	0.19
2.23	3.00	3.50	2.50	3.00	3.00	7.50	3.50	8.50	4.75	6.50	8.75	8.25	11.75	1.75	1.25	4.00	-0.160645	0.069336	0.977539	11.060000	17.780001	-0.070000	962.00	0.06	-0.15	0.00	0.00	0.25	0.00	0.00	0.00	3.75	0.25	0.00	0.50	0.00	0.00	0.00	0.25	0.00	0.00	-0.880859	0.468262	1.855957	21.139999	-286.019989	42.630001	77.00	0.08	0.19
2.24	2.75	3.50	2.25	3.25	2.75	7.50	3.25	8.50	4.75	7.00	9.00	8.75	12.00	2.25	1.00	4.00	-0.364258	0.098145	0.941895	12.110000	18.480000	-0.630000	971.00	0.06	-0.15	0.00	0.00	0.00	0.00	0.00	0.00	4.00	0.00	0.00	0.50	0.00	0.00	0.00	0.00	0.00	0.00	-0.998535	0.483887	1.995605	33.110001	-284.059998	43.540001	72.00	0.09	0.23
2.25	2.75	3.75	2.50	3.00	2.50	7.00	3.25	8.50	4.75	7.50	9.25	9.00	12.25	2.25	1.50	4.50	-0.119141	0.045410	0.973145	14.560000	19.320000	-1.680000	987.00	0.07	-0.15	0.00	0.00	0.00	0.00	0.00	0.00	3.75	0.25	0.00	0.50	0.00	0.00	0.00	0.00	0.00	0.00	-1.152832	0.438965	2.113770	43.470001	-285.529999	44.099998	72.00	0.09	0.19
2.26	2.75	3.25	2.50	3.50	2.25	6.50	3.00	8.50	5.00	7.50	9.50	9.25	12.50	2.50	1.25	4.75	-0.267090	0.111816	0.971191	16.660000	21.070000	-2.450000	987.00	0.07	-0.15	0.00	0.00	0.00	0.00	0.25	0.00	3.75	0.25	0.25	0.25	0.00	0.00	0.00	0.00	0.00	0.00	-1.327148	0.383301	2.144043	47.180000	-289.869995	45.290001	75.00	0.08	0.20
2.27	3.50	3.00	2.00	2.50	2.00	6.25	3.00	8.25	4.75	7.50	10.00	9.50	12.50	2.50	1.75	5.00	-0.217285	0.082031	0.972168	18.410000	23.940001	-3.360000	977.00	0.08	-0.15	0.00	0.00	0.25	0.00	0.00	0.00	3.75	0.25	0.00	0.50	0.00	0.00	0.00	0.00	0.00	0.00	-1.519531	0.363281	2.074707	46.410000	-292.390015	47.040001	75.00	0.07	0.19
2.28	3.00	3.00	2.25	2.75	2.00	6.00	2.75	8.25	4.75	7.75	10.25	9.75	12.75	2.25	1.50	4.75	-0.240234	0.082031	0.956055	20.020000	27.160000	-3.710000	975.00	0.08	-0.16	0.00	0.00	0.25	0.00	0.00	0.00	3.75	0.00	0.00	0.50	0.00	0.00	0.00	0.00	0.00	0.00	-1.717773	0.316406	1.996582	53.340000	-289.519989	49.770000	70.00	0.08	0.22
2.29	2.00	2.25	1.25	2.00	1.50	5.50	2.75	7.75	5.00	8.00	10.50	10.25	12.50	2.25	1.50	5.50	-0.242676	0.089355	0.957031	21.350000	31.500000	-3.990000	932.00	0.11	-0.16	0.00	0.00	0.00	0.00	0.00	0.00	3.75	0.00	0.00	0.50	0.00	0.00	0.00	0.25	0.00	0.00	-1.916504	0.157227	1.934570	71.400002	-282.100006	53.410000	70.00	0.10	0.23
2.30	1.25	2.00	0.75	1.00	1.25	5.25	2.75	7.50	4.75	8.00	10.75	10.25	12.75	2.50	1.75	5.75	-0.222656	0.126953	0.954590	22.610001	33.320000	-4.410000	901.00	0.13	-0.16	0.25	0.00	0.25	0.00	0.25	0.00	3.75	0.25	0.00	0.75	0.00	0.00	0.00	0.25	0.00	0.00	-2.149902	-0.120117	1.895996	97.090004	-277.899994	61.250000	86.00	0.07	0.18
2.31	2.25	1.75	1.00	1.50	1.25	4.75	2.75	7.50	5.25	8.25	11.25	10.50	13.00	2.50	2.25	6.00	-0.249512	0.099609	0.933594	23.100000	35.000000	-3.920000	941.00	0.12	-0.15	0.00	0.00	0.00	0.00	0.00	0.25	3.75	0.00	0.00	0.50	0.00	0.00	0.00	0.00	0.00	0.00	-2.427734	-0.344727	1.774902	113.120003	-277.619995	69.019997	70.00	0.08	0.21
2.32	2.25	3.25	1.75	2.50	1.75	5.25	2.50	7.25	5.25	8.50	11.50	11.00	13.50	3.00	2.00	6.00	-0.276855	0.107910	0.972168	23.590000	37.310001	-3.150000	999.00	0.11	-0.15	0.00	0.00	0.25	0.00	0.25	0.00	3.75	0.00	0.00	1.00	0.00	0.00	0.00	0.00	0.00	0.00	-2.672852	-0.515625	1.409668	114.660004	-273.910004	76.790001	79.00	0.08	0.20
2.33	1.50	2.25	1.25	2.00	0.75	4.50	2.50	6.50	5.25	8.75	11.75	11.25	13.50	3.00	2.25	6.25	-0.263184	0.121582	0.934570	24.290001	43.400002	-3.080000	948.00	0.13	-0.15	0.00	0.00	0.00	0.00	0.25	0.00	3.75	0.25	0.25	0.50	0.00	0.00	0.00	0.00	0.00	0.00	-2.910156	-0.590820	0.848145	97.300003	-255.080002	82.949997	78.00	0.09	0.19
2.34	2.25	2.75	1.25	2.00	1.25	4.25	2.50	6.25	5.25	9.00	12.25	11.50	13.50	3.50	2.25	6.25	-0.283691	0.116211	0.955078	27.580000	50.400002	-2.450000	976.00	0.12	-0.15	0.00	0.00	0.00	0.00	0.00	0.25	3.75	0.00	0.00	0.50	0.00	0.00	0.00	0.00	0.00	0.00	-3.238281	-0.599121	0.190430	67.129997	-218.960007	81.830002	70.00	0.08	0.21
2.35	2.00	2.00	1.25	1.50	1.25	3.75	2.50	5.75	5.25	9.25	12.50	11.75	13.25	4.25	3.00	6.50	-0.264648	0.118164	0.984863	30.170000	61.599998	-2.520000	969.00	0.14	-0.14	0.00	0.00	0.00	0.00	0.00	0.00	3.75	0.25	0.00	0.75	0.00	0.00	0.00	0.00	0.00	0.00	-3.741211	-0.203613	-0.797852	30.240000	-125.300003	45.220001	74.00	0.09	0.19
2.36	1.25	1.50	1.25	1.00	1.25	3.75	2.25	5.25	5.25	9.25	12.75	12.00	13.50	4.50	2.75	7.00	-0.306641	0.134277	1.004395	32.130001	93.800003	-3.990000	947.00	0.15	-0.14	0.00	0.00	0.00	0.00	0.25	0.00	3.75	0.00	0.00	0.50	0.00	0.00	0.00	0.00	0.00	0.00	-3.700684	-0.095215	-0.959473	49.000000	-71.610001	26.250000	70.00	0.08	0.22
2.37	1.50	1.50	1.50	1.50	1.25	3.75	2.25	5.00	5.25	9.75	13.00	12.25	13.75	4.75	3.00	7.00	-0.332520	0.133301	1.016113	31.010000	109.340004	-4.830000	974.00	0.15	-0.14	0.00	0.00	0.00	0.00	0.25	0.00	3.75	0.00	0.00	0.50	0.00	0.00	0.00	0.00	0.00	0.00	-3.391113	-0.146484	-0.837402	85.050003	-15.470000	22.889999	70.00	0.08	0.22
2.38	1.75	2.25	2.00	1.75	1.25	4.50	2.25	4.25	6.00	10.00	13.00	12.25	13.75	5.00	3.25	7.00	-0.346680	0.147461	1.008789	28.559999	123.830002	-5.390000	1009.00	0.14	-0.13	0.00	0.00	0.00	0.00	0.25	0.00	3.75	0.00	0.00	0.50	0.00	0.00	0.00	0.25	0.00	0.00	-3.667969	-1.273926	-1.766113	89.110001	33.320000	41.369999	73.00	0.10	0.22
2.39	1.25	1.50	1.00	1.25	1.25	3.25	2.25	4.00	5.75	10.00	13.25	12.50	13.25	5.50	3.75	7.25	-0.370605	0.139648	1.031738	24.500000	139.580002	-5.880000	968.00	0.17	-0.13	0.00	0.00	0.00	0.00	0.00	0.00	3.75	0.00	0.00	0.25	0.00	0.00	0.00	0.00	0.00	0.00	-0.011719	-0.285156	1.002930	-30.730000	168.350006	101.220001	65.00	0.09	0.23
2.40	1.50	2.00	1.25	1.75	1.00	3.50	2.25	3.50	5.75	10.00	13.25	12.50	13.00	6.25	3.50	7.50	-0.362793	0.154785	0.949707	22.750000	154.559998	-6.370000	979.00	0.16	-0.13	0.25	0.00	0.25	0.00	0.25	0.00	3.75	0.00	0.00	0.50	0.00	0.00	0.00	0.00	0.00	0.00	-0.056641	0.586914	1.250000	-114.239998	208.600006	110.809998	76.00	0.05	0.21
2.41	1.50	2.50	1.50	2.25	1.00	4.00	2.00	3.25	5.75	10.25	13.00	12.25	12.75	6.50	3.50	7.25	-0.410156	0.136230	1.094727	19.460001	168.490005	-7.210000	987.00	0.15	-0.12	1.25	0.25	0.25	0.25	0.25	0.00	3.75	0.00	0.00	0.25	0.00	0.00	0.00	0.00	0.00	0.00	0.231445	-0.076660	2.373535	-38.639999	159.669998	123.270004	90.00	-0.03	0.18
2.42	1.25	2.00	1.00	1.50	1.00	3.50	2.00	2.75	5.75	10.25	13.25	12.25	12.25	7.00	3.50	7.25	-0.449219	0.145020	1.035156	20.370001	183.259995	-9.170000	952.00	0.17	-0.12	2.00	1.00	0.50	0.25	0.25	0.00	3.75	0.25	0.00	0.25	0.00	0.25	0.00	0.00	0.00	0.00	0.155273	-0.925781	1.618652	-11.900000	127.959999	115.779999	116.00	-0.09	0.12
2.43	2.25	2.75	2.00	2.00	1.25	3.75	2.00	3.50	6.25	10.25	13.25	12.25	12.00	7.25	3.50	7.00	-0.456055	0.173828	1.034180	19.879999	199.639999	-11.550000	1014.00	0.15	-0.11	3.25	2.00	1.25	0.75	0.50	0.00	3.75	0.00	0.00	0.25	0.00	0.25	0.25	0.00	0.00	0.00	0.191895	-1.129395	0.705078	-48.509998	121.239998	74.970001	157.00	-0.15	0.09
2.44	2.25	2.25	1.75	1.75	1.25	4.25	2.00	2.75	6.25	10.25	13.00	12.00	11.75	7.75	5.50	7.75	-0.506836	0.192871	1.073242	18.620001	218.050003	-14.630000	1020.00	0.16	-0.11	5.00	3.50	1.75	1.50	0.50	0.00	3.75	0.00	0.00	0.00	0.00	0.25	0.50	0.00	0.00	0.00	-0.087402	-1.036621	1.084473	-38.849998	141.470001	29.120001	206.00	-0.21	0.05
2.45	2.00	2.50	1.50	2.75	1.50	4.00	2.00	3.00	5.75	10.50	13.25	11.75	11.50	8.75	5.75	7.75	-0.535156	0.202637	1.160156	16.799999	237.790009	-17.570000	1038.00	0.16	-0.11	5.75	4.50	2.75	2.50	0.75	0.00	3.75	0.25	0.00	0.00	0.00	0.50	0.50	0.00	0.00	0.25	-0.145020	-0.691406	1.493652	-13.860000	157.009995	-16.660000	261.00	-0.22	0.02
2.46	3.50	4.50	3.25	3.50	1.50	4.75	1.75	2.75	5.75	10.75	12.75	11.50	10.50	7.75	4.75	7.25	-0.583984	0.225586	1.191406	16.170000	261.239990	-21.980000	1067.00	0.12	-0.10	8.75	6.50	4.00	3.25	1.25	0.00	4.00	0.00	0.00	0.00	0.00	0.25	0.50	0.00	0.00	0.00	-0.361816	0.603027	1.968750	16.520000	148.610001	-56.349998	341.00	-0.25	0.03
2.47	2.75	3.50	1.75	1.75	1.00	4.25	1.75	2.75	5.25	10.00	12.50	11.25	9.50	8.00	4.75	6.50	-0.632324	0.228027	1.189453	15.680000	287.769989	-27.440001	965.00	0.15	-0.10	10.50	7.75	5.25	5.25	1.75	0.25	4.00	0.25	0.00	0.00	0.00	0.50	0.75	0.25	0.00	0.50	-0.327148	0.567383	1.729004	11.340000	141.539993	-38.500000	436.00	-0.25	0.00
2.48	3.75	4.25	3.50	4.25	1.50	4.00	1.75	2.75	4.50	9.75	12.00	10.50	8.75	8.00	4.25	6.00	-0.840332	0.285156	1.446777	12.950000	345.589996	-40.599998	994.00	0.11	-0.10	12.25	8.75	6.50	6.50	2.00	1.00	4.25	0.50	0.00	0.25	0.00	0.50	1.00	0.25	0.00	0.50	-0.332031	0.503418	1.499023	-14.070000	136.639999	-17.219999	521.00	-0.25	-0.01
2.49	2.00	2.00	2.00	2.00	1.00	4.00	1.75	2.75	4.00	9.25	11.25	9.75	7.75	8.00	4.00	5.50	-0.840332	0.285156	1.446777	12.950000	345.589996	-40.599998	855.00	0.15	-0.10	13.50	9.25	7.50	7.50	2.50	2.00	4.25	0.50	0.00	0.00	0.00	0.50	1.25	0.00	0.00	0.50	-0.246582	0.168945	1.619141	-30.660000	122.290001	-1.050000	580.00	-0.26	-0.02
2.50	2.25	2.75	1.75	2.25	1.25	4.00	1.75	2.50	3.75	8.75	10.50	9.00	7.00	7.75	3.00	5.25	-0.891602	0.386230	1.483887	21.980000	379.750000	-44.869999	815.00	0.13	-0.10	14.00	9.50	8.00	8.25	2.75	2.25	4.25	0.75	0.25	0.25	0.00	0.50	1.50	0.25	0.00	0.25	-0.176758	-0.076660	1.335449	-26.950001	93.590004	1.470000	623.00	-0.25	-0.02
2.51	2.00	2.75	1.75	1.50	1.00	3.75	1.75	2.50	3.00	8.00	9.75	8.25	6.00	7.25	2.50	4.00	-1.669922	0.567871	2.191406	59.430000	418.390015	-41.650002	734.00	0.13	-0.10	14.25	9.75	8.25	8.50	3.00	2.75	4.25	0.75	0.25	0.25	0.00	0.25	1.25	0.25	0.25	0.50	-0.117676	0.023926	1.074219	-15.470000	75.459999	-5.600000	642.00	-0.25	-0.02
2.52	2.50	2.50	2.00	2.25	1.25	3.25	1.75	2.50	2.75	7.50	9.00	7.75	5.50	6.75	1.75	3.00	-1.459473	0.632812	2.238770	83.090004	421.260010	-40.040001	698.00	0.11	-0.09	14.50	10.25	8.75	8.75	3.50	3.25	4.50	1.00	0.25	0.50	0.00	0.50	1.25	0.25	0.00	0.75	-0.136719	0.189453	1.236816	-17.080000	68.320000	-7.420000	684.00	-0.24	-0.02
2.53	2.00	2.00	2.00	2.00	1.00	3.75	2.00	2.25	2.75	6.50	8.25	7.00	5.00	6.00	1.25	2.50	-1.420898	0.378418	2.219238	101.639999	422.309998	-47.040001	639.00	0.11	-0.09	15.00	10.00	8.75	9.25	4.00	3.75	4.50	1.25	0.25	0.00	0.00	0.50	1.25	0.00	0.25	0.75	-0.158203	0.205078	1.069824	-28.840000	56.840000	-2.450000	704.00	-0.24	-0.03
2.54	2.00	2.75	2.50	1.75	1.00	4.25	2.00	2.25	2.50	6.00	7.75	6.25	4.75	5.25	1.00	1.75	-1.362793	0.239258	2.197266	100.379997	423.709991	-56.139999	615.00	0.09	-0.09	14.75	10.00	9.00	9.50	4.50	4.50	4.50	1.50	0.25	0.50	0.00	0.50	1.25	0.50	0.00	0.25	-0.155762	0.135254	1.045898	-39.130001	47.459999	2.100000	731.00	-0.24	-0.03
2.55	2.50	2.25	2.00	2.25	1.00	4.00	2.00	2.00	2.00	5.25	7.00	5.50	4.00	4.50	0.50	1.75	-1.455566	0.119629	2.246582	95.550003	425.600006	-62.230000	556.00	0.07	-0.09	15.00	10.50	9.00	9.50	5.00	5.00	4.75	1.50	0.25	0.50	0.00	0.50	1.50	0.50	0.25	0.75	-0.129395	0.079590	1.023926	-41.369999	38.709999	1.960000	763.00	-0.23	-0.03
2.56	2.00	2.25	1.25	3.00	1.25	4.75	2.25	2.00	2.00	5.00	5.75	5.00	3.75	3.00	0.50	1.00	-1.099121	0.421875	2.321289	75.809998	420.070007	-70.910004	522.00	0.06	-0.10	14.50	10.00	9.25	9.75	5.25	5.25	5.00	1.75	0.25	0.50	0.00	0.50	1.75	0.50	0.50	0.75	-0.120605	0.033691	0.946777	-38.290001	30.380001	0.140000	778.00	-0.22	-0.04
2.57	2.75	2.00	2.25	1.50	1.00	3.75	2.00	2.00	2.00	4.00	4.75	4.25	3.25	2.25	0.50	1.25	-0.862793	0.503906	2.272461	64.120003	406.279999	-79.660004	462.00	0.04	-0.09	14.50	10.25	9.25	9.75	5.75	5.50	5.00	2.00	0.50	0.50	0.00	0.50	1.75	0.50	0.25	0.50	-0.126465	0.086426	0.993164	-34.860001	24.920000	-0.840000	793.00	-0.22	-0.04
2.58	1.50	2.25	1.50	2.00	1.00	3.75	2.25	1.75	1.75	3.25	3.75	2.75	3.25	1.50	0.25	1.00	-0.400879	0.645996	2.339355	72.730003	389.410004	-84.000000	395.00	0.03	-0.10	14.25	10.00	9.50	9.75	6.25	6.00	5.00	2.25	0.50	0.50	0.00	0.25	2.00	0.50	0.25	0.75	-0.143555	0.092773	0.989746	-32.549999	20.440001	-0.910000	807.00	-0.22	-0.04
2.59	1.50	3.00	2.75	2.25	1.25	3.75	2.25	1.75	1.75	2.50	2.50	2.00	2.50	1.25	0.50	1.25	0.100586	0.459473	2.272461	107.590004	368.829987	-86.590004	387.00	-0.01	-0.09	14.75	10.00	9.50	10.00	6.75	6.25	5.00	2.50	0.50	0.75	0.00	0.50	2.00	0.25	0.25	1.00	-0.138672	0.068359	0.993652	-25.340000	9.380000	-1.330000	834.00	-0.21	-0.04
2.60	1.50	2.00	0.75	2.50	1.25	4.00	2.50	1.75	1.25	2.25	2.25	2.00	2.50	1.00	0.50	0.75	1.136719	0.388184	2.180176	132.300003	334.320007	-97.790001	344.00	0.00	-0.10	14.50	9.75	9.50	9.75	7.00	6.50	5.25	2.75	0.75	0.75	0.00	0.25	2.00	0.50	0.00	1.00	-0.144043	0.052734	0.994629	-20.510000	5.250000	-1.540000	840.00	-0.21	-0.04
2.61	1.75	2.00	1.25	1.75	1.00	3.25	2.50	1.75	0.50	2.25	2.25	1.75	1.75	0.50	0.50	0.50	0.893066	0.307129	1.159668	88.199997	289.660004	-107.800003	306.00	-0.02	-0.10	14.00	9.50	9.50	9.75	7.25	6.75	5.25	3.00	1.00	0.75	0.00	0.50	2.00	0.50	0.25	1.00	-0.127930	0.048828	0.955078	-15.330000	2.170000	-1.820000	851.00	-0.20	-0.04
2.62	1.75	2.00	1.00	1.75	1.00	3.50	2.50	2.00	1.00	1.75	2.25	1.50	1.75	0.50	0.25	0.75	0.805664	0.317383	3.316406	28.210001	146.509995	-87.989998	307.00	-0.02	-0.10	13.75	9.25	9.50	9.50	7.50	7.00	5.25	3.25	1.00	1.00	0.00	0.25	2.25	0.50	0.25	1.00	-0.121094	0.059082	0.978516	-11.410000	0.770000	-1.960000	856.00	-0.20	-0.05
2.63	0.75	1.25	0.75	1.00	1.00	3.00	2.50	1.25	0.75	2.00	1.75	1.00	1.25	0.75	0.50	0.50	0.961426	0.333008	2.167969	-19.320000	-11.060000	-56.910000	244.00	0.02	-0.07	13.00	8.75	9.25	9.50	7.75	7.00	5.25	3.50	1.00	1.00	0.25	0.75	2.50	0.75	0.25	1.00	-0.116211	0.060059	0.958496	-9.030000	0.490000	-2.170000	859.00	-0.18	-0.05
2.64	2.00	2.00	1.50	1.75	1.25	3.75	2.50	1.75	0.25	1.50	1.25	1.25	2.00	1.00	0.50	0.50	0.640625	0.327148	2.035645	-63.840000	-130.339996	-30.450001	298.00	-0.04	-0.10	12.50	8.25	9.00	9.25	8.00	7.25	5.25	3.75	1.25	1.00	0.25	0.75	3.00	0.75	0.25	1.25	-0.107422	0.057617	0.956055	-7.910000	1.120000	-2.310000	863.00	-0.17	-0.05
2.65	1.75	1.75	2.00	1.50	1.00	3.50	2.50	1.75	0.75	1.25	1.25	1.25	2.50	0.50	0.50	0.50	0.377441	0.291504	1.414062	-87.570000	-205.869995	-15.610000	294.00	-0.03	-0.10	11.75	8.00	9.00	8.75	8.00	7.00	5.50	4.00	1.50	1.00	0.50	0.50	3.00	1.00	0.50	1.00	-0.138184	0.074707	0.971680	-6.860000	2.380000	-2.450000	858.00	-0.16	-0.05
2.66	1.50	2.00	2.50	1.50	1.25	3.75	2.25	1.75	0.50	1.00	1.00	0.75	1.75	0.75	0.00	0.50	0.157715	0.319336	0.798340	-74.059998	-249.899994	-19.389999	276.00	-0.07	-0.09	11.50	7.50	8.75	8.50	8.00	7.25	5.50	4.25	1.50	1.00	0.50	0.50	3.50	0.75	0.25	1.00	-0.143555	0.061523	0.982910	-5.950000	3.360000	-2.520000	851.00	-0.16	-0.06
2.67	1.75	2.25	1.75	2.00	1.00	3.50	2.50	1.75	0.75	1.50	1.00	0.50	2.25	0.50	0.50	0.50	0.091797	0.249512	0.662598	-52.009998	-246.820007	-26.040001	291.00	-0.05	-0.09	11.00	7.00	8.25	8.25	8.00	7.00	5.50	4.50	1.75	1.00	0.75	0.75	3.25	0.75	0.50	1.25	-0.123535	0.064941	0.967285	-4.970000	4.340000	-2.380000	844.00	-0.15	-0.06
2.68	1.50	1.75	1.00	1.25	1.00	3.25	2.50	1.50	0.00	0.75	1.00	0.50	0.75	0.50	0.25	0.75	0.081055	0.177246	0.634766	-33.320000	-240.169998	-31.990000	223.00	-0.06	-0.09	9.50	6.50	8.00	7.75	8.25	7.00	5.50	5.00	1.75	1.50	0.75	0.75	4.25	1.00	0.50	1.25	-0.120117	0.067383	0.958984	-3.710000	5.040000	-2.170000	841.00	-0.13	-0.06
2.69	0.75	0.50	1.50	0.00	1.00	2.75	2.50	1.25	0.00	1.25	1.00	0.75	1.75	0.50	0.50	0.50	0.084961	0.099609	0.680664	-25.760000	-235.970001	-36.259998	203.00	0.01	-0.08	8.75	6.00	7.50	7.25	8.00	6.75	5.50	5.00	2.50	1.50	1.00	1.00	4.50	0.75	0.25	1.25	-0.136230	0.069824	0.984863	-2.310000	6.090000	-2.100000	823.00	-0.12	-0.06
2.70	0.75	0.50	0.25	0.00	0.75	2.25	2.50	1.00	0.00	1.00	1.00	0.75	0.50	0.50	0.00	0.25	0.067871	0.066895	0.807129	-27.719999	-237.369995	-38.009998	152.00	0.01	-0.05	8.00	5.50	7.00	6.75	8.00	6.50	5.50	5.25	2.75	1.50	0.75	1.00	5.00	1.00	0.50	1.25	-0.098145	0.077148	0.970703	-1.400000	7.000000	-2.450000	810.00	-0.11	-0.07
2.71	0.75	0.50	0.50	0.25	0.75	2.75	2.50	1.25	0.25	0.75	1.00	0.25	1.25	0.25	0.25	0.50	0.059570	0.090820	0.946289	-34.790001	-245.279999	-36.959999	173.00	0.00	-0.08	7.00	5.25	6.50	6.25	7.75	6.50	5.50	5.50	2.75	1.75	1.00	1.25	5.00	1.00	0.25	1.25	-0.161133	0.065430	0.975586	-0.700000	8.890000	-2.520000	791.00	-0.10	-0.07
2.72	1.25	1.00	0.00	0.50	1.00	2.50	2.50	1.00	0.00	1.00	0.75	0.50	0.75	0.75	0.25	0.50	0.025391	0.138672	1.044922	-40.740002	-261.519989	-33.250000	175.00	-0.01	-0.06	6.50	4.50	6.25	5.50	7.75	6.25	5.50	5.50	3.00	2.00	1.25	1.25	5.25	1.00	0.50	1.25	-0.146973	0.057617	0.977051	-0.980000	9.940000	-2.660000	777.00	-0.08	-0.07
2.73	1.75	2.25	1.75	1.50	1.25	3.75	2.50	1.75	0.25	0.50	0.75	0.50	1.50	0.75	0.25	0.25	-0.024902	0.165039	1.138672	-41.230000	-283.290009	-28.070000	261.00	-0.08	-0.09	6.00	4.00	5.50	5.00	7.50	6.00	5.50	5.50	3.75	2.00	1.25	1.25	5.50	1.00	0.25	1.25	-0.150391	0.057617	0.941895	-1.050000	11.480000	-2.940000	755.00	-0.07	-0.07
2.74	1.75	1.50	1.00	1.50	1.00	3.50	2.50	1.50	0.50	0.75	0.50	0.50	1.50	0.75	0.50	0.50	-0.106445	0.181152	1.201660	-35.139999	-307.440002	-22.750000	242.00	-0.05	-0.08	5.50	3.25	5.25	4.25	7.25	5.75	5.50	5.50	4.25	2.25	1.50	1.50	5.75	1.00	0.50	1.50	-0.129883	0.064453	0.953125	-1.050000	12.320000	-2.940000	746.00	-0.05	-0.06
2.75	2.00	2.75	0.00	2.00	1.25	3.50	2.50	2.00	0.00	1.00	0.50	0.25	2.00	0.25	0.25	0.25	-0.202148	0.149902	1.193359	-24.219999	-329.980011	-18.340000	251.00	-0.09	-0.12	5.00	2.75	4.50	3.25	7.00	5.50	5.50	5.50	4.50	2.75	1.75	1.75	6.00	1.25	0.50	1.75	-0.117676	0.071777	0.951660	-0.700000	13.230000	-3.010000	730.00	-0.03	-0.06
2.76	1.75	2.00	1.50	1.75	1.25	3.75	2.50	1.25	0.25	1.00	0.75	0.25	1.25	0.50	0.50	0.50	-0.322266	0.146973	1.189941	-11.410000	-348.880005	-17.080000	252.00	-0.08	-0.08	4.75	2.50	4.00	2.50	6.50	5.25	5.50	5.50	5.00	2.75	2.00	2.00	6.00	1.25	0.50	1.75	-0.136230	0.066406	0.972656	-0.140000	14.350000	-3.080000	713.00	-0.01	-0.06
2.77	1.00	0.75	0.75	0.50	0.75	2.75	2.50	1.25	0.00	0.75	0.75	0.25	1.00	0.25	0.00	0.50	-0.439941	0.130859	1.190918	3.360000	-362.600006	-17.780001	172.00	-0.04	-0.08	4.25	2.00	3.25	2.25	6.25	5.00	5.50	5.50	5.50	3.00	2.25	2.00	6.50	1.75	0.75	2.00	-0.134277	0.071777	0.962891	0.210000	15.330000	-2.730000	711.00	0.01	-0.06
2.78	0.25	0.75	0.25	0.25	1.00	2.75	2.50	1.25	0.00	0.75	0.50	0.25	0.50	0.25	0.00	0.25	-0.535156	0.083008	1.190918	18.410000	-370.019989	-19.040001	149.00	-0.02	-0.07	3.25	1.75	2.75	2.00	5.75	4.25	5.50	5.50	5.75	3.50	2.25	2.25	6.50	2.00	0.75	2.25	-0.142090	0.072266	0.965820	0.700000	16.520000	-2.590000	689.00	0.03	-0.06
2.79	0.50	0.00	0.00	0.50	0.75	2.50	2.50	1.25	0.00	0.75	0.75	0.50	1.25	0.50	0.50	0.25	-0.617188	0.031250	1.224609	29.049999	-372.610016	-20.719999	159.00	0.03	-0.09	3.00	1.50	2.75	1.50	5.25	3.75	5.25	5.25	6.25	3.75	2.50	2.25	6.75	2.25	1.00	2.25	-0.157227	0.070312	0.962891	0.980000	17.920000	-2.590000	678.00	0.05	-0.05
2.80	1.50	1.25	1.25	1.50	1.00	2.75	2.50	1.75	0.50	0.50	0.50	0.25	1.75	0.50	0.00	0.50	-0.815918	0.020508	1.299316	37.869999	-368.970001	-24.850000	223.00	-0.06	-0.09	2.75	1.25	2.50	1.25	4.50	3.00	5.25	5.25	6.25	4.00	2.75	2.50	6.75	2.75	1.25	3.00	-0.184082	0.055664	0.954102	1.330000	18.969999	-2.520000	669.00	0.07	-0.05
2.81	1.50	1.50	0.75	1.00	1.00	3.25	2.50	1.50	0.25	0.50	0.50	0.50	1.50	0.25	0.00	0.25	-0.881348	0.068359	1.397461	40.040001	-364.350006	-25.129999	209.00	-0.07	-0.09	1.75	1.25	2.00	1.00	3.75	2.25	5.25	5.00	7.00	4.50	3.00	2.75	7.25	2.75	1.50	3.00	-0.184570	0.093750	0.971191	1.750000	19.460001	-2.380000	656.00	0.09	-0.05
2.82	1.50	1.25	1.00	0.75	1.00	2.75	2.50	1.50	0.00	0.25	0.50	0.25	1.25	0.25	0.25	0.25	-0.911621	0.124512	1.489258	43.400002	-359.239990	-22.260000	191.00	-0.07	-0.08	1.50	0.75	1.75	1.25	3.00	2.00	5.25	5.00	7.50	4.75	3.50	3.00	7.50	3.25	1.50	3.25	-0.125977	0.038574	0.965332	2.450000	19.809999	-2.520000	664.00	0.11	-0.05
2.83	1.50	1.00	0.75	0.50	1.00	3.00	2.50	1.50	0.00	0.50	0.50	0.00	1.00	0.25	0.00	0.50	-0.955078	0.159668	1.652344	48.090000	-354.549988	-16.379999	182.00	-0.07	-0.08	1.50	0.50	1.75	0.75	2.75	1.75	5.00	4.50	7.75	5.50	4.00	3.25	7.50	3.75	1.50	3.50	-0.125000	0.075684	0.961426	4.410000	21.070000	-3.500000	664.00	0.13	-0.04
2.84	0.75	1.00	1.25	1.00	1.00	3.00	2.50	1.00	0.00	0.50	0.50	0.00	0.50	0.25	0.00	0.25	-1.032715	0.214844	1.873535	52.709999	-351.750000	-7.280000	171.00	-0.08	-0.06	1.25	0.50	1.50	0.75	2.00	1.00	5.00	4.00	7.75	6.00	4.50	3.75	7.50	4.25	2.00	4.00	-0.144531	0.054199	0.965820	5.530000	22.120001	-4.270000	662.00	0.15	-0.04
2.85	0.75	1.25	0.50	0.00	1.00	2.75	2.50	1.25	0.00	0.50	0.50	0.25	0.75	0.25	0.25	0.50	-1.150879	0.272461	2.020508	54.180000	-351.750000	6.580000	163.00	-0.04	-0.07	1.00	0.50	1.25	0.50	1.50	1.00	5.00	3.50	8.00	7.00	5.25	4.00	7.75	4.75	2.00	4.50	-0.166992	0.076172	0.979004	6.790000	22.960001	-4.760000	675.00	0.16	-0.04
2.86	1.00	0.25	0.75	0.75	0.75	2.75	2.50	1.25	0.00	0.25	0.00	0.25	0.50	0.25	0.00	0.50	-1.282715	0.328613	2.094238	50.119999	-352.170013	26.880001	151.00	-0.06	-0.07	1.25	0.50	0.75	0.50	1.50	0.75	4.75	3.25	8.25	7.75	6.25	6.00	8.00	5.25	2.50	5.00	-0.156738	0.082031	0.987305	9.310000	25.760000	-5.530000	723.00	0.18	-0.04
2.87	1.00	1.25	0.00	0.25	0.75	2.75	2.50	1.25	0.00	0.25	0.50	0.00	0.50	0.25	0.00	0.50	-1.446777	0.387207	2.128418	44.450001	-349.160004	51.310001	149.00	-0.06	-0.08	0.75	0.50	0.75	0.50	1.25	0.50	4.75	2.75	8.50	8.00	7.00	5.50	8.00	5.75	2.50	5.00	-0.169922	0.076660	0.999023	13.510000	32.549999	-6.300000	717.00	0.19	-0.04
2.88	0.50	1.00	0.50	0.50	1.00	2.50	2.50	1.25	0.00	0.50	0.25	0.00	0.25	0.25	0.00	0.00	-1.646973	0.425781	2.165039	43.119999	-341.880005	76.160004	145.00	-0.07	-0.06	0.50	0.25	1.00	0.50	1.00	0.00	4.50	2.50	8.75	8.25	7.50	5.75	8.00	6.50	3.00	5.25	-0.189941	0.073242	0.976074	16.870001	38.639999	-7.070000	727.00	0.20	-0.03
2.89	0.50	1.00	0.50	0.50	0.75	2.75	2.50	1.25	0.00	0.25	0.25	0.25	1.00	0.25	0.00	0.25	-1.870117	0.406250	2.241699	50.820000	-334.950012	97.720001	153.00	-0.05	-0.09	0.75	0.75	0.75	0.50	1.00	0.50	4.50	2.00	8.75	8.50	7.75	5.75	8.00	7.00	3.25	5.50	-0.184082	0.091309	0.979980	19.950001	43.820000	-8.050000	744.00	0.20	-0.03
2.90	0.75	1.00	0.00	0.25	1.00	2.25	2.50	1.25	0.00	0.25	0.25	0.25	0.50	0.25	0.00	0.25	-2.089844	0.227051	2.276367	70.559998	-331.380005	113.120003	139.00	-0.05	-0.07	1.00	0.25	0.75	0.50	0.75	0.25	4.25	1.75	9.00	8.75	8.25	7.00	8.25	7.50	3.50	5.50	-0.200195	0.099609	0.985840	23.170000	48.160000	-9.380000	764.00	0.21	-0.03
2.91	1.00	0.75	1.00	0.25	0.75	2.50	2.50	1.25	0.00	0.50	0.50	0.00	0.75	0.25	0.00	0.25	-2.434082	-0.043457	2.301270	97.090004	-331.309998	122.080002	157.00	-0.06	-0.06	1.00	0.25	0.75	0.25	0.50	0.00	4.25	1.25	9.25	9.25	8.50	7.25	8.25	7.75	3.50	6.25	-0.221680	0.104492	0.988770	24.920000	54.810001	-10.570000	768.00	0.22	-0.03
2.92	0.50	0.50	0.50	0.50	1.00	2.50	2.50	1.25	0.00	0.50	0.50	0.00	0.50	0.50	0.00	0.25	-2.833496	-0.414062	2.127441	111.160004	-330.260010	125.790001	149.00	-0.03	-0.06	0.50	0.50	1.00	0.25	0.50	0.25	4.25	1.00	9.25	9.25	8.75	7.50	8.25	8.25	4.25	7.00	-0.211914	0.084473	0.992188	27.510000	65.449997	-11.900000	790.00	0.22	-0.03
2.93	0.25	1.75	0.00	0.25	0.75	2.50	2.50	1.25	0.00	0.50	0.25	0.50	0.50	0.25	0.00	0.25	-3.178711	-0.574219	1.734375	101.779999	-322.980011	127.050003	147.00	-0.04	-0.09	0.75	0.25	0.75	0.50	0.50	0.00	4.00	1.25	9.50	9.75	9.00	7.50	8.25	8.75	4.50	7.25	-0.230957	0.083496	0.999023	26.460001	76.720001	-11.970000	809.00	0.22	-0.03
2.94	1.00	0.50	0.25	0.50	0.75	2.50	2.50	1.50	0.00	0.50	0.50	0.25	0.75	0.25	0.50	0.25	-3.497559	-0.539551	1.189453	67.620003	-302.329987	127.820000	161.00	-0.02	-0.08	0.75	0.50	0.75	0.25	0.25	0.25	3.75	0.75	9.50	10.00	9.00	7.75	8.25	9.25	4.75	7.50	-0.252441	0.085938	1.025879	24.710001	88.410004	-12.390000	811.00	0.23	-0.03
2.95	0.50	0.50	0.50	0.75	1.00	2.50	2.50	1.25	0.00	0.50	0.50	0.25	0.75	0.25	0.25	0.25	-3.836426	-0.357910	0.493652	15.260000	-264.600006	124.110001	158.00	-0.03	-0.08	0.50	0.00	0.75	0.25	0.25	0.00	3.75	1.00	9.50	10.00	9.25	7.75	8.25	9.50	5.00	7.75	-0.272461	0.126465	1.012695	18.690001	111.160004	-12.460000	813.00	0.24	-0.03
2.96	0.50	1.50	0.25	0.25	0.75	2.50	2.50	1.25	0.00	0.25	0.50	0.25	0.75	0.25	0.00	0.25	-4.609863	0.124023	-1.213867	-30.799999	-155.820007	91.209999	150.00	-0.05	-0.08	0.75	0.25	0.75	0.25	0.25	0.25	3.75	0.75	9.75	10.25	9.50	8.00	8.25	10.25	5.00	8.00	-0.294922	0.109375	1.020508	17.570000	124.389999	-13.790000	838.00	0.23	-0.03
2.97	0.50	0.25	0.50	0.25	0.75	2.75	2.50	1.25	0.00	0.50	0.50	0.25	1.75	0.25	0.00	0.25	-4.853516	0.101562	-1.612305	17.500000	-92.610001	70.910004	156.00	-0.01	-0.10	0.25	0.25	0.50	0.00	0.25	0.25	3.75	0.50	9.75	10.50	9.75	8.00	8.00	10.50	5.00	8.25	-0.322754	0.097168	1.064453	14.630000	135.309998	-14.490000	829.00	0.24	-0.02
2.98	2.00	1.50	1.00	1.25	1.00	3.50	2.50	1.50	0.00	0.25	0.75	0.00	1.50	0.25	0.00	0.25	-4.636719	-0.248047	-1.502441	85.190002	-18.340000	54.320000	214.00	-0.10	-0.09	0.25	0.00	0.50	0.25	0.25	0.00	3.50	0.50	9.75	10.75	9.75	8.25	7.75	11.00	5.25	8.50	-0.317871	0.107422	1.064941	11.970000	146.020004	-14.770000	835.00	0.25	-0.02
2.99	1.75	1.00	1.25	1.00	0.75	3.50	2.50	1.25	0.00	0.50	0.75	0.50	1.25	0.50	0.00	0.25	-3.922852	-0.622070	-0.854004	117.320000	61.389999	39.340000	208.00	-0.07	-0.08	0.75	0.00	0.25	0.25	0.00	0.00	3.50	0.50	9.75	10.75	10.00	8.00	8.00	11.50	5.50	8.50	-0.374023	0.113770	1.071289	7.490000	156.309998	-15.260000	845.00	0.25	-0.02
3.00	0.50	2.50	0.75	1.25	1.00	3.00	2.50	1.50	0.00	0.00	0.50	0.50	1.00	1.00	0.25	0.50	-1.155273	-1.989746	-1.807129	81.620003	128.309998	36.330002	205.00	-0.06	-0.10	0.75	0.25	0.00	0.00	0.00	0.00	3.50	0.50	9.75	11.00	9.75	8.25	7.75	11.75	5.75	8.50	-0.398926	0.139160	1.156738	3.010000	166.949997	-16.240000	847.00	0.25	-0.02
3.01	1.50	0.75	0.75	0.75	1.00	2.50	2.50	1.00	0.00	0.25	0.25	0.00	0.50	0.50	0.00	0.25	-0.211426	-0.328613	1.777344	11.270000	214.479996	27.440001	159.00	-0.08	-0.04	0.50	0.25	0.50	0.00	0.25	0.00	3.50	0.50	9.75	11.00	10.00	8.00	7.50	12.00	5.75	8.50	-0.400879	0.151367	1.079102	2.660000	180.389999	-19.250000	853.00	0.25	-0.02
3.02	1.00	1.75	0.00	0.25	0.75	2.50	2.50	0.50	0.00	0.25	0.50	0.25	0.75	0.25	0.00	0.00	2.011719	0.295898	2.259766	10.080000	205.800003	20.860001	141.00	-0.07	-0.05	0.75	0.25	0.00	0.00	0.25	0.25	3.25	0.50	9.50	11.25	10.00	8.00	7.25	11.75	5.75	8.50	-0.419922	0.156250	1.054688	-0.140000	195.930008	-23.379999	843.00	0.25	-0.02
3.03	2.50	2.25	1.00	0.75	1.00	2.25	2.50	1.00	0.00	0.00	0.50	0.50	0.75	1.00	0.25	0.25	-0.176270	-0.326172	1.823730	10.150000	129.779999	10.920000	201.00	-0.10	-0.05	0.00	0.00	0.50	0.00	0.00	0.00	3.25	0.50	9.50	11.25	9.75	8.00	7.00	12.25	5.75	8.25	-0.452148	0.154297	1.072754	-4.060000	212.589996	-28.840000	830.00	0.26	-0.02
3.04	3.75	3.75	1.00	1.25	1.00	2.25	2.50	1.00	0.00	0.25	0.75	0.75	0.75	0.25	0.25	0.50	0.296387	-0.482910	0.169434	-12.810000	111.160004	-18.270000	239.00	-0.14	-0.06	0.25	0.00	0.50	0.00	0.00	0.25	3.25	0.50	9.25	11.50	9.75	7.75	6.25	12.00	5.75	8.25	-0.495605	0.177734	1.124023	-9.240000	231.350006	-34.299999	823.00	0.26	-0.02
3.05	5.25	5.25	1.75	2.50	1.00	2.50	2.50	0.75	0.00	0.50	0.75	1.00	1.50	0.50	0.00	0.50	-0.087402	-0.184082	0.058105	-15.470000	161.070007	-43.189999	307.00	-0.17	-0.07	0.50	0.00	0.50	0.00	0.00	0.50	3.25	0.50	8.75	11.25	9.75	7.75	5.50	11.75	5.75	7.75	-0.556641	0.163574	1.159180	-12.880000	253.820007	-40.040001	807.00	0.25	-0.01
3.06	7.75	7.75	2.75	4.50	1.50	3.00	2.50	1.00	0.00	0.50	1.00	1.25	0.75	1.00	0.25	0.50	-0.542969	0.101074	1.232422	-8.470000	233.309998	-56.070000	419.00	-0.20	-0.06	0.25	0.25	0.25	0.00	0.00	0.25	3.25	0.50	8.25	11.00	9.75	7.50	5.25	11.50	5.75	7.50	-0.541016	0.182617	1.227051	-12.880000	306.670013	-51.799999	781.00	0.26	-0.02
3.07	9.50	9.50	4.25	7.25	2.50	4.75	2.75	1.25	0.00	0.50	1.00	1.50	2.00	0.75	0.00	0.50	-0.391602	0.873535	1.991699	-21.770000	264.600006	-53.060001	558.00	-0.21	-0.08	0.25	0.00	0.50	0.00	0.00	0.25	3.00	0.50	7.75	11.00	9.50	7.00	4.50	11.00	5.25	6.75	-0.696777	0.227051	1.191406	-10.430000	335.510010	-58.869999	740.00	0.26	-0.01
3.08	12.50	11.25	6.75	8.50	2.75	5.50	2.75	1.25	0.00	0.75	1.25	1.50	2.75	1.00	0.25	0.50	-0.753906	0.541992	2.770020	-34.650002	239.330002	-31.430000	685.00	-0.21	-0.07	0.25	0.50	0.50	0.00	0.00	0.50	3.25	0.50	6.75	10.50	9.25	6.75	4.25	10.25	5.25	6.00	-0.776855	0.259277	1.181641	-8.050000	365.610016	-66.919998	713.00	0.25	-0.02
3.09	15.00	11.75	7.50	9.00	4.00	7.00	3.00	2.25	0.25	0.75	1.50	1.50	3.25	1.50	0.25	1.00	-0.641602	0.322266	2.199707	-66.360001	184.589996	-14.210000	806.00	-0.20	-0.07	0.75	0.25	0.50	0.00	0.25	0.25	3.25	0.50	5.75	10.00	9.00	6.00	3.50	9.50	4.50	5.00	-1.026855	0.335938	1.389160	-4.270000	388.079987	-73.360001	656.00	0.24	-0.01
3.10	15.00	11.75	8.00	9.25	5.00	7.50	3.00	2.50	0.25	1.00	1.25	1.25	3.25	1.00	0.25	0.75	-0.293945	0.047363	1.459473	-76.090004	146.930008	-3.010000	828.00	-0.21	-0.07	0.50	0.00	0.75	0.00	0.00	0.25	3.25	0.50	5.00	9.50	8.50	5.75	3.25	8.50	3.25	3.25	-1.486816	0.479004	1.659180	10.990000	405.019989	-74.480003	589.00	0.24	-0.01
3.11	14.75	11.75	8.00	9.50	5.00	8.00	3.25	3.00	0.25	0.50	1.25	1.75	3.00	1.00	0.50	0.75	-0.211426	0.026855	1.212402	-60.900002	90.510002	-2.310000	847.00	-0.20	-0.08	0.50	0.00	0.50	0.00	0.00	0.25	3.25	0.25	4.25	8.75	7.75	4.75	2.25	7.25	2.25	2.00	-1.700195	0.622070	2.095215	40.250000	402.570007	-68.250000	502.00	0.23	0.01
3.12	14.50	11.50	8.00	9.50	5.25	8.25	3.25	3.00	0.00	0.75	1.50	1.75	3.25	1.00	0.00	0.75	-0.202148	0.112793	1.111816	-52.080002	69.019997	-0.140000	846.00	-0.20	-0.08	0.25	0.25	0.50	0.00	0.00	0.25	3.25	0.25	3.50	8.00	6.50	4.00	1.75	6.25	1.25	1.50	-1.620117	0.462891	2.194336	68.459999	394.660004	-70.629997	431.00	0.22	0.02
3.13	13.50	11.25	8.00	9.50	5.25	8.25	3.25	3.75	0.75	0.75	1.25	1.50	2.75	0.75	0.25	1.00	-0.200684	0.097656	1.014160	-42.700001	53.830002	2.520000	847.00	-0.19	-0.08	0.50	0.50	0.75	0.00	0.00	0.00	3.25	0.25	3.25	7.50	5.25	3.25	1.50	5.00	1.25	1.25	-1.517090	0.374023	2.160156	81.129997	381.290009	-80.989998	389.00	0.21	0.03
3.14	13.50	10.50	7.50	9.25	5.25	8.50	3.25	3.50	0.25	1.00	1.25	1.00	3.25	1.25	0.25	0.50	-0.150879	0.086426	1.015137	-37.799999	42.910000	2.380000	826.00	-0.19	-0.08	0.50	0.25	0.50	0.25	0.00	0.00	3.50	0.25	2.75	6.50	4.00	2.75	1.50	2.50	0.50	0.75	-1.519043	0.150391	2.371582	76.860001	370.019989	-91.910004	317.00	0.19	0.03
3.15	14.50	10.75	8.00	10.00	5.75	9.00	3.50	4.50	0.25	1.00	1.25	1.50	4.25	1.00	0.25	1.00	-0.291992	0.087402	0.977051	-34.369999	33.880001	1.610000	903.00	-0.19	-0.09	0.50	0.25	0.50	0.25	0.00	0.00	3.50	0.50	2.00	5.50	3.25	2.25	1.00	1.50	0.50	1.00	-1.200195	0.323730	2.423828	62.930000	360.850006	-97.790001	273.00	0.17	0.02
3.16	10.75	10.00	7.50	9.75	7.00	10.25	4.00	6.50	2.00	2.25	2.50	2.75	6.00	2.25	1.50	1.75	-0.171387	0.065430	0.986816	-32.060001	25.620001	0.840000	1030.00	-0.12	-0.10	0.25	0.00	0.50	0.00	0.00	0.25	3.50	0.25	1.50	4.25	2.25	2.00	0.75	0.75	0.50	0.75	-0.981934	0.361328	2.255859	41.720001	349.299988	-104.019997	217.00	0.17	0.04
3.17	16.50	12.00	8.75	11.00	7.50	10.75	4.00	7.00	2.50	2.25	2.75	2.75	6.25	2.25	1.50	2.25	-0.247070	0.106445	1.011230	-26.880001	18.340000	-0.070000	1181.00	-0.13	-0.09	0.50	0.00	0.00	0.00	0.00	0.00	3.75	0.25	1.50	3.25	1.75	1.25	0.50	0.50	0.50	1.00	-0.523438	0.512695	2.093750	30.380001	339.570007	-110.040001	185.00	0.17	0.06
3.18	15.50	11.25	8.75	10.50	7.50	11.00	4.00	7.50	2.50	2.00	2.75	3.25	6.75	2.50	1.75	2.00	0.141602	-0.151855	1.066406	-19.600000	13.440001	-0.980000	1179.00	-0.13	-0.10	0.25	0.25	0.00	0.00	0.00	0.25	3.75	0.25	1.25	2.75	1.00	1.00	0.50	0.50	0.25	0.50	-0.063965	0.349609	2.147949	27.650000	328.929993	-119.629997	162.00	0.15	0.07
3.19	15.00	11.00	8.50	10.50	7.75	11.00	4.25	7.50	2.50	2.75	3.00	3.00	7.75	2.75	1.50	2.00	-0.220215	0.071289	0.972656	-12.600000	9.240000	-1.190000	1192.00	-0.12	-0.10	0.00	0.00	0.00	0.00	0.25	0.00	3.75	0.25	1.00	2.50	1.00	0.75	0.00	0.25	0.25	0.50	0.686523	0.360352	1.466309	-8.680000	266.839996	-136.570007	140.00	0.16	0.10
3.20	14.00	10.50	8.25	10.00	8.00	11.00	4.25	7.75	2.75	2.50	3.00	3.50	8.25	2.50	1.50	2.50	-0.227539	0.034668	0.969727	-7.840000	8.120000	-0.910000	1186.00	-0.11	-0.10	0.25	0.00	0.25	0.25	0.00	0.25	3.75	0.25	0.75	2.25	1.00	0.50	0.00	0.25	0.25	0.50	1.003418	0.525879	2.869629	-1.610000	145.669998	-120.680000	139.00	0.13	0.09
3.21	12.50	9.75	8.25	9.75	8.00	11.00	4.25	8.00	3.50	2.75	3.25	3.25	8.75	2.75	1.25	2.50	-0.206543	0.058594	0.958984	-4.760000	8.400000	-1.260000	1180.00	-0.10	-0.10	0.00	0.25	0.00	0.00	0.00	0.00	3.75	0.25	0.50	2.00	0.75	0.50	0.00	0.25	0.25	0.75	0.887695	0.525391	2.071289	13.510000	11.200000	-103.250000	122.00	0.15	0.10
3.22	11.50	7.75	6.00	8.00	6.75	9.50	4.25	7.50	1.00	1.75	2.00	2.25	7.75	1.00	0.25	1.50	-0.459473	0.182617	0.944336	-2.660000	9.870000	-1.750000	943.00	-0.12	-0.12	0.25	0.00	0.50	0.00	0.00	0.00	4.00	0.00	0.75	1.50	0.75	0.25	0.00	0.25	0.25	0.50	0.764648	0.513672	1.807617	19.879999	-87.010002	-83.720001	122.00	0.12	0.15
3.23	8.25	7.75	6.00	8.00	7.25	9.50	4.25	8.00	2.00	2.25	2.50	2.75	8.25	1.25	0.25	1.75	-0.358398	0.057129	0.882812	-3.080000	12.810000	-1.120000	961.00	-0.10	-0.12	0.00	0.00	0.50	0.00	0.25	0.00	3.75	0.00	0.25	1.50	0.50	0.00	0.00	0.25	0.25	0.50	0.590820	0.417480	1.281250	23.170000	-150.639999	-64.610001	105.00	0.12	0.16
3.24	6.50	6.25	5.25	7.25	6.75	10.75	4.50	8.50	4.00	3.00	4.00	3.25	8.75	2.25	0.75	2.25	-0.166992	0.100098	0.953125	-1.120000	11.970000	-1.260000	1012.00	-0.05	-0.12	0.25	0.00	0.50	0.00	0.25	0.00	4.00	0.25	0.50	1.50	0.50	0.00	0.00	0.25	0.00	0.50	0.460449	0.427246	0.941406	28.000000	-181.930008	-47.180000	117.00	0.10	0.15
3.25	6.00	6.75	5.75	7.50	6.75	9.25	4.50	8.50	2.50	3.00	4.25	4.00	9.25	2.25	1.50	2.00	-0.210938	0.050293	0.946777	0.770000	13.510000	-0.840000	1004.00	-0.05	-0.13	0.00	0.00	0.00	0.00	0.00	0.25	3.75	0.00	0.25	1.50	0.00	0.00	0.00	0.25	0.00	0.25	0.333984	0.426270	0.788574	33.599998	-190.050003	-30.450001	89.00	0.12	0.18
3.26	6.50	6.25	5.00	6.25	6.50	9.50	4.50	8.50	3.00	3.25	3.75	3.25	9.25	1.25	0.50	2.00	-0.185059	0.032227	0.952637	1.120000	14.350000	-0.770000	956.00	-0.06	-0.13	0.50	0.00	0.25	0.00	0.25	0.00	4.00	0.00	0.25	1.25	0.00	0.00	0.00	0.25	0.00	0.25	0.327148	0.377930	0.630371	38.990002	-188.580002	-14.280000	99.00	0.08	0.19
3.27	5.00	5.25	3.75	5.50	6.00	9.00	4.25	8.25	2.25	2.75	3.50	3.75	9.00	1.00	0.50	2.00	-0.222656	0.064453	0.964355	1.120000	15.260000	-0.910000	866.00	-0.04	-0.14	0.00	0.00	0.00	0.00	0.00	0.00	4.00	0.00	0.25	1.00	0.00	0.00	0.00	0.25	0.00	0.25	0.296387	0.318359	0.644531	39.689999	-188.229996	1.820000	85.00	0.12	0.21
3.28	4.25	4.50	3.25	5.00	5.75	8.50	4.25	8.25	2.75	3.25	3.75	4.25	9.75	1.50	0.75	2.25	-0.251465	0.054688	0.969238	1.120000	16.309999	-1.400000	866.00	-0.02	-0.14	0.00	0.00	0.25	0.00	0.25	0.00	4.00	0.00	0.50	1.00	0.00	0.25	0.00	0.25	0.00	0.00	0.248535	0.294922	0.720703	34.230000	-189.839996	17.710001	96.00	0.11	0.20
3.29	4.25	5.25	4.00	5.25	5.50	8.50	4.00	8.25	3.00	3.25	4.00	4.50	9.75	2.00	0.75	2.50	-0.240723	0.056152	0.969727	0.350000	17.430000	-1.890000	895.00	-0.02	-0.14	0.00	0.00	0.25	0.00	0.00	0.00	4.00	0.25	0.25	1.00	0.00	0.00	0.00	0.00	0.25	0.00	0.205078	0.251953	0.847168	23.450001	-197.889999	33.599998	91.00	0.10	0.18
3.30	5.00	5.25	3.75	5.00	5.75	9.25	4.50	9.00	5.00	4.00	6.00	6.75	11.00	2.50	1.50	3.50	-0.225098	0.062012	0.958984	-0.210000	17.920000	-2.100000	1047.00	0.01	-0.13	0.00	0.00	0.00	0.25	0.25	0.00	3.75	0.00	0.25	1.00	0.00	0.00	0.00	0.25	0.00	0.00	0.183594	0.231445	0.962402	9.940000	-213.289993	49.560001	85.00	0.10	0.20
3.31	4.25	5.00	3.50	4.75	5.25	8.00	4.00	8.25	3.50	3.50	5.75	6.25	10.25	1.75	1.00	3.75	-0.229004	0.063965	0.962891	-0.350000	18.340000	-2.030000	934.00	0.00	-0.14	0.00	0.00	0.25	0.00	0.00	0.00	4.00	0.00	0.00	1.00	0.00	0.25	0.00	0.00	0.00	0.00	0.083496	0.179199	1.132324	-14.560000	-256.899994	81.129997	83.00	0.09	0.19
3.32	4.75	4.50	5.00	5.25	5.75	8.50	4.25	8.25	5.25	6.25	7.25	6.50	10.75	2.75	1.50	4.25	-0.245605	0.055664	0.955078	-0.420000	18.900000	-1.890000	1074.00	0.02	-0.12	0.00	0.00	0.00	0.00	0.00	0.00	4.00	0.00	0.00	0.75	0.00	0.00	0.00	0.25	0.00	0.00	0.020996	0.174805	1.139648	-22.049999	-280.980011	94.430000	77.00	0.11	0.22
3.33	5.25	5.50	4.75	5.25	4.50	8.00	3.75	8.00	4.50	5.25	6.75	7.50	10.50	1.75	0.75	3.00	-0.230957	0.061523	0.951660	-0.280000	19.600000	-1.680000	1009.00	0.00	-0.13	0.25	0.00	0.00	0.00	0.00	0.00	3.75	0.00	0.00	0.50	0.00	0.00	0.00	0.25	0.00	0.25	-0.082031	0.145020	1.164062	-21.000000	-303.239990	104.510002	74.00	0.09	0.21
3.34	3.75	4.25	3.00	3.50	4.25	7.00	3.75	8.00	4.25	5.50	7.25	7.25	10.50	2.50	1.00	3.50	-0.239746	0.052246	0.957031	-0.420000	21.000000	-1.960000	937.00	0.03	-0.14	0.00	0.00	0.00	0.00	0.25	0.25	3.75	0.00	0.00	0.75	0.00	0.00	0.00	0.25	0.00	0.00	-0.195801	0.113770	1.177734	-11.900000	-320.809998	110.599998	79.00	0.09	0.19
3.35	3.25	3.50	3.00	3.75	3.75	6.50	3.75	7.75	4.50	5.50	7.50	7.50	10.75	2.75	1.00	3.75	-0.225098	0.073730	0.957031	-0.210000	22.120001	-2.100000	927.00	0.05	-0.14	0.00	0.00	0.00	0.00	0.00	0.00	3.75	0.25	0.00	0.50	0.00	0.00	0.00	0.00	0.00	0.00	-0.292969	0.050293	1.217773	-0.280000	-334.179993	111.790001	72.00	0.09	0.19
3.36	3.50	4.00	2.25	3.00	3.25	6.25	3.50	7.50	4.75	6.00	7.75	7.75	10.75	2.25	1.00	3.50	-0.244141	0.047363	0.956543	-0.140000	22.820000	-2.450000	908.00	0.05	-0.14	0.00	0.00	0.00	0.00	0.00	0.25	3.75	0.00	0.00	0.75	0.00	0.00	0.00	0.25	0.00	0.00	-0.355469	-0.046875	1.221191	10.430000	-344.820007	109.270004	76.00	0.10	0.20
3.37	3.25	4.00	2.00	3.25	3.00	6.25	3.50	7.50	5.25	6.25	8.00	7.75	10.75	2.75	1.25	4.00	-0.222656	0.042480	0.978516	-0.210000	23.309999	-2.660000	925.00	0.06	-0.14	0.00	0.00	0.00	0.00	0.00	0.00	3.75	0.00	0.00	0.50	0.00	0.00	0.00	0.25	0.00	0.00	-0.444336	-0.129883	1.289062	18.059999	-353.149994	103.809998	70.00	0.10	0.23
3.38	4.00	3.00	2.25	2.75	2.50	5.50	3.25	7.00	5.25	6.75	8.25	8.00	10.75	3.25	1.50	4.25	-0.239258	0.149414	0.958984	0.140000	23.590000	-2.660000	914.00	0.07	-0.13	0.00	0.00	0.00	0.00	0.00	0.00	3.75	0.00	0.00	0.50	0.00	0.00	0.00	0.00	0.00	0.25	-0.559082	-0.198242	1.318848	21.490000	-358.470001	94.709999	69.00	0.10	0.22
3.39	2.75	3.25	2.50	3.00	2.50	5.00	3.25	6.75	5.50	7.00	8.50	8.25	11.25	5.00	2.50	5.75	-0.241699	0.092773	0.949219	0.840000	23.730000	-2.870000	952.00	0.09	-0.13	0.00	0.00	0.00	0.00	0.00	0.00	3.75	0.25	0.25	0.75	0.00	0.00	0.00	0.00	0.00	0.00	-0.663086	-0.246094	1.323730	23.100000	-360.149994	79.099998	78.00	0.10	0.19
3.40	3.25	3.25	2.25	3.00	2.25	5.25	3.25	6.50	5.75	7.50	8.75	8.25	10.75	3.25	1.75	5.25	-0.260742	0.071777	0.957520	3.990000	24.570000	-3.710000	930.00	0.08	-0.13	0.00	0.00	0.00	0.00	0.00	0.00	3.75	0.25	0.00	0.75	0.00	0.00	0.00	0.25	0.00	0.00	-0.747070	-0.308105	1.351074	29.889999	-357.559998	55.299999	77.00	0.10	0.19
3.41	3.00	3.25	2.50	2.50	2.00	5.00	3.00	6.00	6.00	7.50	9.00	8.50	11.00	4.00	1.75	5.50	-0.250000	0.071289	0.956055	5.740000	25.900000	-3.500000	926.00	0.09	-0.12	0.00	0.00	0.00	0.00	0.00	0.00	3.75	0.00	0.00	0.50	0.00	0.00	0.00	0.25	0.00	0.00	-0.796875	-0.386719	1.395996	40.740002	-351.820007	28.840000	70.00	0.10	0.23
3.42	1.75	1.75	1.50	1.75	2.00	4.25	3.00	5.50	6.25	7.75	9.25	8.50	10.50	3.75	2.00	5.50	-0.261719	0.064453	0.951172	6.790000	27.719999	-3.290000	863.00	0.12	-0.12	0.00	0.00	0.00	0.25	0.00	0.00	3.50	0.00	0.00	0.50	0.00	0.00	0.00	0.25	0.00	0.00	-0.836914	-0.397949	1.570801	33.810001	-337.470001	-17.010000	69.00	0.09	0.21
3.43	2.25	3.00	2.00	2.75	1.75	4.75	3.00	5.50	7.00	8.00	9.50	8.75	11.00	4.50	1.75	5.75	-0.262207	0.076660	0.940430	7.980000	28.980000	-3.150000	932.00	0.11	-0.12	0.00	0.00	0.25	0.00	0.00	0.00	3.50	0.00	0.00	0.50	0.00	0.00	0.00	0.00	0.00	0.25	-0.830078	-0.304688	1.714355	18.340000	-332.010010	-30.799999	68.00	0.08	0.21
3.44	3.00	1.25	2.00	2.00	1.00	4.25	2.75	5.25	7.25	8.00	9.75	8.75	10.50	4.75	2.00	5.75	-0.267090	0.070312	0.937988	9.100000	29.610001	-3.220000	898.00	0.13	-0.11	0.00	0.00	0.00	0.00	0.25	0.00	3.75	0.25	0.00	0.50	0.00	0.00	0.00	0.25	0.00	0.00	-0.831055	-0.203613	1.858398	3.640000	-329.350006	-38.360001	77.00	0.09	0.19
3.45	2.25	1.50	1.00	2.00	1.75	3.75	2.75	5.00	7.25	8.25	9.75	9.00	10.50	5.00	2.00	5.75	-0.268066	0.087891	0.958984	10.080000	30.870001	-3.080000	886.00	0.14	-0.11	0.00	0.00	0.00	0.25	0.00	0.25	3.75	0.00	0.00	0.75	0.00	0.00	0.00	0.00	0.00	0.00	-0.867188	-0.094238	2.023438	-1.750000	-329.070007	-41.790001	76.00	0.07	0.18
3.46	2.00	1.75	1.25	1.25	1.25	3.75	2.75	4.50	7.50	8.50	10.25	9.00	10.50	5.00	2.25	6.00	-0.287598	0.079102	0.949707	11.410000	31.570000	-3.080000	882.00	0.14	-0.10	0.25	0.00	0.00	0.00	0.00	0.25	3.75	0.00	0.00	0.50	0.00	0.00	0.00	0.00	0.00	0.25	-0.945801	-0.015137	2.194336	5.040000	-331.519989	-42.840000	75.00	0.07	0.19
3.47	1.50	1.25	1.25	1.75	1.25	4.25	2.75	4.50	8.00	9.00	10.25	9.50	10.75	5.50	2.75	6.00	-0.280762	0.080078	0.939941	12.460000	32.830002	-3.220000	915.00	0.15	-0.10	0.25	0.00	0.00	0.00	0.25	0.00	3.75	0.00	0.25	0.75	0.00	0.00	0.00	0.00	0.00	0.00	-1.091797	0.053711	2.310059	22.400000	-336.000000	-42.980000	80.00	0.08	0.21
3.48	1.50	1.75	1.25	1.25	1.25	3.75	2.75	3.50	7.75	9.00	10.50	9.50	11.00	5.50	2.25	6.25	-0.289551	0.070801	0.945801	12.040000	35.209999	-3.570000	889.00	0.15	-0.10	0.00	0.00	0.25	0.00	0.00	0.00	3.75	0.00	0.00	0.75	0.00	0.00	0.00	0.00	0.00	0.00	-1.277832	0.063965	2.342773	46.759998	-341.320007	-41.439999	73.00	0.08	0.22
3.49	2.75	2.50	2.00	2.50	1.50	4.50	2.75	3.50	8.00	9.25	10.75	9.50	10.50	6.50	3.00	6.25	-0.303223	0.096680	0.951172	12.880000	38.150002	-3.850000	969.00	0.13	-0.09	0.00	0.00	0.00	0.00	0.00	0.00	3.75	0.25	0.00	0.50	0.00	0.00	0.00	0.00	0.00	0.00	-1.521484	-0.012207	2.356934	74.340004	-344.190002	-36.750000	72.00	0.09	0.19
3.50	2.00	2.00	1.25	1.50	1.25	3.50	2.50	2.75	8.00	9.50	11.00	9.75	10.50	7.00	2.50	6.50	-0.313965	0.109375	0.938477	13.440001	42.700001	-4.620000	912.00	0.16	-0.09	0.00	0.00	0.25	0.00	0.00	0.00	3.75	0.00	0.00	0.75	0.00	0.00	0.00	0.25	0.00	0.00	-1.825684	-0.173340	2.342285	94.919998	-342.790009	-29.750000	76.00	0.09	0.21
3.51	1.75	1.75	1.25	1.75	1.25	3.25	2.50	2.75	8.25	9.50	11.00	10.00	10.00	7.00	2.75	6.75	-0.321289	0.097656	0.945312	14.280000	49.279999	-4.970000	913.00	0.16	-0.09	0.00	0.00	0.00	0.00	0.25	0.00	3.75	0.00	0.25	0.50	0.00	0.00	0.00	0.25	0.00	0.00	-2.139160	-0.391602	2.274414	101.779999	-337.470001	-21.210001	76.00	0.10	0.22
3.52	1.50	1.50	1.50	1.50	1.00	3.50	2.25	3.00	8.50	10.00	11.25	10.00	10.50	7.50	3.00	6.75	-0.320312	0.118164	0.984863	14.700000	57.189999	-5.320000	932.00	0.17	-0.09	0.00	0.00	0.00	0.00	0.00	0.00	3.75	0.00	0.00	0.75	0.00	0.00	0.00	0.25	0.00	0.00	-2.468750	-0.541016	2.107910	94.849998	-327.600006	-11.550000	73.00	0.11	0.22
3.53	1.75	2.00	1.25	1.00	1.00	3.25	2.25	2.50	8.50	10.00	11.50	10.25	10.50	8.00	3.00	6.75	-0.294922	0.081543	0.973633	13.020000	66.150002	-5.460000	930.00	0.17	-0.08	0.00	0.00	0.00	0.00	0.25	0.00	3.50	0.00	0.00	0.75	0.00	0.00	0.00	0.25	0.00	0.00	-2.812988	-0.590820	1.807617	76.790001	-312.480011	-0.000000	71.00	0.10	0.21
3.54	1.75	1.75	1.00	1.25	0.75	3.25	2.25	2.75	8.50	10.50	11.75	10.25	10.25	8.50	3.50	6.75	-0.331543	0.080078	0.991699	9.870000	74.340004	-5.390000	945.00	0.18	-0.08	0.00	0.00	0.25	0.00	0.25	0.00	3.75	0.00	0.25	0.75	0.00	0.00	0.00	0.00	0.00	0.00	-3.116699	-0.553223	1.260742	49.980000	-291.690002	14.070000	80.00	0.08	0.21
3.55	1.25	1.75	1.25	1.00	1.00	3.50	2.25	2.50	8.75	10.50	11.75	10.25	10.25	9.00	3.50	7.00	-0.359863	0.088867	0.949707	4.970000	95.129997	-5.530000	951.00	0.18	-0.08	0.00	0.00	0.00	0.00	0.00	0.00	3.75	0.00	0.00	1.00	0.00	0.00	0.00	0.00	0.00	0.00	-3.881348	-0.241211	-0.208984	5.390000	-214.270004	35.910000	73.00	0.11	0.21
3.56	1.50	1.25	1.25	1.50	1.00	3.25	2.00	2.25	8.75	10.75	11.75	10.50	10.00	9.25	3.50	7.00	-0.371094	0.091309	1.000488	3.850000	109.059998	-5.740000	949.00	0.18	-0.08	0.00	0.00	0.25	0.00	0.25	0.00	3.75	0.00	0.00	0.50	0.00	0.00	0.00	0.25	0.00	0.00	-4.159180	-0.095703	-0.843262	16.170000	-163.449997	38.430000	76.00	0.08	0.21
3.57	1.75	1.00	1.00	1.25	1.00	3.75	2.25	2.50	8.75	11.00	12.00	10.25	10.00	9.25	3.75	7.00	-0.394043	0.111816	1.040039	-0.000000	124.459999	-6.160000	963.00	0.18	-0.08	0.00	0.00	0.25	0.00	0.25	0.00	3.75	0.00	0.00	0.75	0.00	0.00	0.00	0.25	0.00	0.00	-4.351074	-0.103027	-1.244141	42.560001	-109.340004	42.209999	79.00	0.09	0.21
3.58	1.50	1.25	1.50	1.50	1.00	3.50	2.00	2.25	9.00	11.00	12.25	10.50	9.50	10.25	4.00	7.00	-0.400879	0.099609	1.038574	-1.610000	138.740005	-7.070000	977.00	0.18	-0.07	0.00	0.00	0.00	0.00	0.00	0.00	3.75	0.00	0.00	0.75	0.00	0.00	0.00	0.00	0.00	0.00	-4.195312	-0.244629	-1.271484	71.330002	-48.860001	54.740002	70.00	0.10	0.22
3.59	1.75	1.25	1.00	2.00	0.75	3.25	2.00	2.00	9.00	11.00	12.00	10.25	9.25	10.75	4.25	7.00	-0.426270	0.102051	1.006348	-2.380000	152.460007	-8.120000	969.00	0.19	-0.07	0.75	0.75	0.25	0.00	0.00	0.00	3.50	0.00	0.25	0.75	0.00	0.00	0.00	0.25	0.00	0.00	-5.578125	-1.213379	-0.251953	66.080002	18.129999	76.370003	91.00	0.01	0.17
3.60	1.75	1.50	1.00	1.00	0.75	3.75	2.00	1.75	9.00	11.25	12.00	10.50	8.75	11.25	3.75	7.00	-0.455566	0.109375	1.025879	-4.620000	168.630005	-10.010000	961.00	0.19	-0.06	0.50	0.00	0.00	0.00	0.25	0.00	3.75	0.00	0.00	0.50	0.00	0.00	0.00	0.00	0.00	0.00	-1.011719	-0.852051	0.081055	9.310000	174.860001	90.510002	76.00	0.05	0.21
3.61	1.75	1.00	1.00	1.75	0.75	3.75	2.00	1.75	9.00	11.25	12.00	10.25	8.50	11.25	4.00	7.00	-0.496582	0.122559	1.099609	-8.330000	185.149994	-11.900000	963.00	0.19	-0.06	0.50	0.25	0.25	0.00	0.00	0.00	3.75	0.25	0.00	0.50	0.00	0.00	0.00	0.00	0.00	0.00	0.052734	0.206055	0.892578	-16.379999	224.070007	78.330002	83.00	0.03	0.17
3.62	2.00	1.50	1.00	1.25	0.75	3.50	2.00	2.00	9.00	11.25	12.00	10.00	8.25	11.75	4.25	6.75	-0.505371	0.127930	1.094727	-10.010000	205.729996	-16.309999	967.00	0.19	-0.06	2.00	1.25	0.50	0.25	0.25	0.00	3.75	0.00	0.00	0.25	0.00	0.00	0.25	0.25	0.00	0.00	0.040039	-0.340332	3.403320	7.910000	175.139999	72.519997	117.00	-0.09	0.13
3.63	2.25	2.50	1.75	2.00	1.00	4.00	1.75	2.25	9.25	11.25	12.00	10.00	7.75	12.00	4.00	6.75	-0.531738	0.162598	1.045898	-11.900000	230.089996	-22.469999	1005.00	0.17	-0.06	3.50	3.00	1.25	1.00	0.50	0.00	3.75	0.25	0.00	0.25	0.00	0.25	0.25	0.25	0.00	0.25	0.406250	-1.119629	1.345215	-13.720000	124.459999	44.869999	181.00	-0.16	0.05
3.64	3.00	2.00	1.50	2.00	1.00	3.75	1.75	2.00	9.25	11.25	11.50	9.25	7.00	11.75	4.00	6.25	-0.563965	0.148926	1.107422	-18.549999	257.040009	-29.750000	972.00	0.17	-0.05	5.75	5.00	2.25	2.50	0.75	0.00	3.75	0.25	0.00	0.00	0.00	0.50	0.75	0.00	0.00	0.25	0.167480	-0.750977	0.536133	-28.770000	117.040001	-9.660000	262.00	-0.22	0.01
3.65	4.00	3.75	3.25	2.75	1.50	5.00	2.00	2.25	9.00	11.00	11.50	9.00	6.50	11.75	4.00	6.25	-0.643066	0.186035	1.166504	-25.549999	287.910004	-37.520000	1046.00	0.13	-0.05	9.25	7.00	4.00	4.00	1.00	0.00	4.00	0.00	0.00	0.00	0.00	0.50	0.75	0.00	0.00	0.25	-0.384766	-0.427246	1.104492	-2.380000	173.880005	-57.119999	364.00	-0.25	0.01
3.66	2.25	2.25	2.00	2.25	1.00	3.75	1.75	2.25	8.75	11.00	11.25	8.50	5.50	11.50	3.75	5.50	-0.724121	0.206543	1.312500	-30.170000	326.690002	-47.880001	934.00	0.16	-0.05	12.75	9.25	5.50	7.00	1.75	0.50	4.00	0.25	0.00	0.25	0.00	0.75	0.75	0.25	0.00	0.25	-0.385742	0.515625	1.623047	-28.490000	228.130005	-82.250000	508.00	-0.26	-0.01
3.67	2.00	2.00	2.00	1.75	1.00	4.25	1.75	2.00	8.25	10.50	10.75	8.00	5.00	11.00	3.00	4.75	-0.751953	0.243652	1.228516	-34.020000	372.890015	-57.470001	877.00	0.16	-0.04	14.50	11.00	7.75	8.25	2.25	1.75	4.00	0.50	0.00	0.50	0.00	0.75	1.75	0.25	0.25	0.50	-0.399414	0.406738	1.869629	-60.270000	173.110001	-20.510000	629.00	-0.25	-0.03
3.68	2.50	1.75	1.75	1.75	1.00	4.00	1.75	2.00	7.75	10.00	10.25	7.50	4.50	10.25	2.50	3.50	-0.878906	0.293945	1.273438	-40.180000	411.040009	-67.620003	825.00	0.16	-0.04	16.75	11.75	8.75	9.00	3.00	2.50	4.50	0.75	0.00	0.50	0.00	0.75	1.50	0.25	0.00	0.50	-0.264160	0.126465	1.558594	-79.029999	145.809998	-1.050000	709.00	-0.26	-0.02
3.69	2.00	2.25	2.25	2.25	1.00	3.75	1.75	2.00	6.75	9.50	9.75	6.75	4.00	9.25	2.00	2.25	-1.768066	0.601074	2.133301	-21.980000	453.950012	-77.910004	772.00	0.14	-0.04	17.50	11.75	9.50	9.50	3.50	3.00	4.50	0.75	0.00	0.25	0.00	0.75	1.25	0.50	0.25	0.75	-0.167480	-0.138184	1.406738	-69.860001	120.400002	1.330000	746.00	-0.25	-0.02
3.70	2.25	2.00	2.00	2.25	0.75	3.75	1.75	2.00	6.00	8.75	8.75	6.00	3.75	8.25	1.50	1.50	-2.058594	0.615234	2.545410	15.050000	450.309998	-74.620003	705.00	0.13	-0.04	17.75	12.00	9.75	9.75	4.50	3.75	4.75	1.00	0.25	0.50	0.25	0.75	1.25	0.25	0.00	0.50	-0.121582	-0.081055	1.138672	-44.170002	97.930000	-6.860000	789.00	-0.25	-0.02
3.71	2.00	1.50	2.00	2.25	0.75	3.75	2.00	1.50	5.50	8.00	8.00	5.25	3.25	7.25	0.75	1.50	-1.963379	0.498047	2.586426	43.540001	434.700012	-77.419998	638.00	0.13	-0.04	17.50	12.00	10.25	10.00	5.25	4.50	4.75	1.25	0.25	0.50	0.25	0.50	2.00	0.50	0.00	0.75	-0.139160	0.155273	1.210938	-38.920002	80.779999	-8.680000	825.00	-0.24	-0.03
