# time	left pressure 1[N/cm²]	left pressure 2[N/cm²]	left pressure 3[N/cm²]	left pressure 4[N/cm²]	left pressure 5[N/cm²]	left pressure 6[N/cm²]	left pressure 7[N/cm²]	left pressure 8[N/cm²]	left pressure 9[N/cm²]	left pressure 10[N/cm²]	left pressure 11[N/cm²]	left pressure 12[N/cm²]	left pressure 13[N/cm²]	left pressure 14[N/cm²]	left pressure 15[N/cm²]	left pressure 16[N/cm²]	left acceleration X[g]	left acceleration Y[g]	left acceleration Z[g]	left angular X[dps]	left angular Y[dps]	left angular Z[dps]	left total force[N]	left center of pressure X[%]	left center of pressure Y[%]	right pressure 1[N/cm²]	right pressure 2[N/cm²]	right pressure 3[N/cm²]	right pressure 4[N/cm²]	right pressure 5[N/cm²]	right pressure 6[N/cm²]	right pressure 7[N/cm²]	right pressure 8[N/cm²]	right pressure 9[N/cm²]	right pressure 10[N/cm²]	right pressure 11[N/cm²]	right pressure 12[N/cm²]	right pressure 13[N/cm²]	right pressure 14[N/cm²]	right pressure 15[N/cm²]	right pressure 16[N/cm²]	right acceleration X[g]	right acceleration Y[g]	right acceleration Z[g]	right angular X[dps]	right angular Y[dps]	right angular Z[dps]	right total force[N]	right center of pressure X[%]	right center of pressure Y[%]
0.00	1.00	0.50	0.75	1.25	0.00	0.00	0.00	0.00	0.00	0.00	0.00	0.00	0.00	0.00	0.00	0.00	-2.164551	0.720703	0.908691	14.560000	249.199997	-14.980000	37.00	0.00	0.00	0.00	0.00	0.00	0.00	0.00	0.00	0.00	0.75	8.00	14.00	12.75	10.50	6.50	19.00	7.25	8.75	-0.689941	0.145020	1.024902	-51.730000	309.610016	-72.099998	848.00	0.28	-0.04
0.01	3.75	4.00	1.25	2.50	0.00	0.00	0.00	0.00	0.00	0.00	0.00	0.00	0.00	0.00	0.00	0.00	-0.446289	0.561035	1.776367	-36.470001	243.600006	-21.840000	117.00	-0.36	-0.06																									
0.02	13.25	14.50	2.25	5.25	0.00	0.00	0.00	0.00	0.00	0.00	0.00	0.00	0.00	0.00	0.00	0.00	1.737793	-0.177734	0.219238	-49.770000	123.059998	-2.100000	353.00	-0.38	-0.05	0.00	0.00	0.00	0.00	0.00	0.00	0.00	0.50	7.50	13.50	12.00	9.00	4.75	18.50	6.75	8.25	-0.970703	0.209473	1.387207	-55.930000	369.670013	-76.650002	782.00	0.29	-0.03
0.03	21.25	23.50	4.25	8.75	0.25	0.25	0.00	0.00	0.00	0.00	0.00	0.50	0.00	0.00	0.00	0.00	-1.714355	-0.064453	3.993164	66.080002	360.149994	-36.959999	590.00	-0.37	-0.05	0.00	0.00	0.00	0.00	0.00	0.00	0.00	0.50	7.00	12.75	11.50	8.50	4.00	17.75	6.50	8.00	-1.142578	0.265625	1.354492	-43.750000	409.079987	-76.860001	740.00	0.29	-0.02
0.04	27.25	28.75	7.50	12.00	0.75	2.25	0.00	0.00	0.00	0.00	0.00	0.00	0.00	0.00	0.00	0.00	-1.799805	0.752930	4.845215	95.550003	236.320007	-38.360001	795.00	-0.36	-0.05	0.00	0.00	0.00	0.00	0.00	0.00	0.00	0.00	5.75	11.50	10.50	7.50	3.00	16.75	6.00	7.00	-1.726562	0.629883	1.825195	-19.530001	453.390015	-78.540001	654.00	0.29	-0.02
0.05	28.50	30.00	8.50	13.25	1.00	3.25	0.00	0.25	0.00	0.00	0.00	0.00	0.00	0.00	0.00	0.00	-0.263672	0.251953	0.370117	20.230000	58.029999	-18.969999	861.00	-0.36	-0.06	0.00	0.00	0.00	0.00	0.00	0.00	0.00	0.00	4.50	10.00	8.75	5.75	1.75	15.50	5.00	5.75	-2.165039	0.819336	2.264160	21.770000	495.110016	-75.110001	546.00	0.30	-0.01
0.06	28.25	30.00	9.00	14.00	1.50	4.25	0.00	0.75	0.00	0.25	0.00	0.25	0.25	0.00	0.00	0.00	-0.016113	0.095215	0.429199	-36.610001	88.480003	-10.920000	904.00	-0.34	-0.06	0.00	0.00	0.00	0.00	0.00	0.00	0.00	0.00	3.25	8.75	7.50	3.75	0.75	13.25	3.75	3.75	-2.596191	0.395996	2.672852	61.320000	528.429993	-82.599998	431.00	0.30	0.01
0.07	27.75	29.25	9.50	15.25	2.00	6.00	0.25	1.25	0.00	0.00	0.00	0.00	0.50	0.00	0.00	0.00	-0.504395	0.042969	1.827148	-58.029999	105.840004	-13.650000	944.00	-0.33	-0.07	0.00	0.00	0.00	0.00	0.00	0.00	0.00	0.00	2.25	7.50	5.25	2.75	0.75	10.25	2.75	1.50	-2.376465	0.622559	4.751953	96.599998	540.820007	-78.959999	322.00	0.30	0.02
0.08	28.25	29.75	10.00	15.75	2.25	6.75	0.00	1.50	0.00	0.00	0.00	0.25	0.50	0.25	0.00	0.00	-0.351562	0.309082	1.069824	-62.160000	57.189999	-10.220000	981.00	-0.33	-0.07	0.00	0.00	0.00	0.00	0.00	0.00	0.00	0.00	1.25	5.75	3.75	2.00	0.25	7.75	2.00	0.75	-1.961914	-0.053223	3.652832	116.199997	537.950012	-92.540001	230.00	0.30	0.02
0.09	27.25	29.75	10.00	16.50	2.75	7.50	0.00	1.75	0.00	0.50	0.25	0.25	0.75	0.25	0.00	0.00	-0.132812	0.127441	0.990234	-84.559998	53.340000	-4.690000	1006.00	-0.32	-0.08	0.00	0.00	0.00	0.00	0.00	0.00	0.00	0.00	0.75	4.75	3.00	2.00	0.25	5.00	1.00	0.25	-1.415039	-0.042480	3.888672	99.540001	526.260010	-107.169998	168.00	0.29	0.01
0.10	27.25	29.00	10.25	16.75	3.25	8.00	0.00	2.00	0.00	0.50	0.25	0.25	1.00	0.50	0.00	0.00	-0.235840	0.006836	1.092773	-73.430000	32.970001	-4.760000	1024.00	-0.31	-0.08	0.00	0.00	0.00	0.00	0.00	0.00	0.00	0.00	0.75	3.50	2.50	1.00	0.00	1.50	0.25	0.00	-0.676758	-0.026367	2.171387	34.720001	510.440002	-141.539993	98.00	0.26	0.01
0.11	26.25	28.50	10.50	16.75	3.75	8.50	0.25	2.50	0.00	0.75	0.50	0.50	1.25	0.50	0.00	0.00	-0.199219	0.085938	0.990234	-38.709999	9.870000	-5.110000	1044.00	-0.30	-0.08	0.00	0.00	0.00	0.00	0.00	0.00	0.00	0.00	0.25	2.25	1.50	0.75	0.00	1.00	0.00	0.00	0.285156	0.428223	3.649902	-39.619999	448.420013	-164.570007	59.00	0.26	-0.00
0.12	25.50	27.25	10.25	16.25	4.50	9.00	0.25	3.50	0.00	0.75	0.50	0.75	1.75	1.00	0.00	0.00	-0.180664	0.112305	0.957031	-21.000000	3.570000	-4.970000	1056.00	-0.29	-0.09	0.00	0.00	0.00	0.00	0.00	0.00	0.00	0.00	0.50	2.25	1.75	0.50	0.25	0.75	0.25	0.00	-0.985352	1.653320	0.153809	-83.230003	383.809998	-177.520004	65.00	0.26	-0.01
0.13	24.00	25.50	10.00	16.00	5.25	9.50	0.25	4.25	0.00	1.00	0.50	0.75	2.25	1.25	0.25	0.00	-0.200195	0.081055	0.969238	-16.799999	6.510000	-6.440000	1056.00	-0.27	-0.09	0.00	0.00	0.00	0.00	0.00	0.00	0.00	0.00	0.25	2.00	1.25	0.50	0.00	0.25	0.00	0.00	1.076660	1.191406	6.156738	-38.290001	178.149994	-146.509995	45.00	0.00	0.00
0.14	22.50	23.50	9.75	15.25	5.50	9.75	0.25	4.75	0.50	1.00	0.75	1.00	2.50	1.50	0.25	0.00	-0.221680	0.084961	0.981934	-11.270000	7.630000	-6.580000	1040.00	-0.26	-0.10	0.00	0.00	0.00	0.00	0.00	0.00	0.00	0.00	0.50	1.50	1.50	0.50	0.00	0.25	0.00	0.00	0.859375	1.145020	3.820312	13.580000	-26.600000	-115.639999	45.00	0.00	0.00
0.15	20.50	21.50	9.50	14.75	6.25	9.50	0.25	5.25	0.00	0.75	1.00	0.75	2.75	1.75	0.25	0.25	-0.219238	0.089844	0.966309	-6.370000	8.050000	-5.950000	1002.00	-0.25	-0.10	0.00	0.00	0.00	0.00	0.00	0.00	0.00	0.00	0.00	1.50	1.50	0.50	0.00	0.00	0.00	0.00	0.769531	0.626465	2.992676	14.840000	-152.039993	-81.340004	37.00	0.00	0.00
0.16	17.75	19.50	9.00	13.75	6.25	9.50	0.25	5.25	0.00	1.50	1.00	1.00	3.00	2.00	0.25	0.25	-0.218262	0.078125	0.975586	-5.530000	11.480000	-5.460000	954.00	-0.23	-0.11	0.00	0.00	0.00	0.00	0.00	0.25	0.00	0.00	0.00	1.50	1.00	0.00	0.00	0.00	0.00	0.00	0.897949	0.640625	2.116211	-2.170000	-208.039993	-49.630001	29.00	0.00	0.00
0.17	15.75	16.25	8.25	12.25	6.00	9.25	0.25	5.50	0.25	1.25	1.25	1.25	3.50	2.50	0.50	0.25	-0.214844	0.081543	0.978027	-5.180000	15.400000	-5.320000	894.00	-0.21	-0.11	0.00	0.00	0.00	0.00	0.00	0.00	0.00	0.00	0.25	1.25	1.00	0.00	0.00	0.00	0.00	0.00	0.872559	0.593262	1.904785	-21.210001	-240.240005	-21.490000	27.00	0.00	0.00
0.18	13.25	13.50	7.50	11.50	6.00	9.00	0.25	5.50	0.00	1.75	1.00	1.00	3.50	2.50	0.50	0.25	-0.216797	0.089355	0.974609	-4.830000	18.760000	-5.740000	820.00	-0.20	-0.12	0.00	0.00	0.00	0.00	0.00	0.00	0.00	0.00	0.00	1.25	1.00	0.00	0.00	0.00	0.00	0.00	0.836426	0.585938	1.828613	-23.309999	-273.489990	4.620000	23.00	0.00	0.00
0.19	9.50	10.50	7.00	9.75	5.75	8.50	0.25	5.50	0.00	2.00	1.25	1.25	3.75	2.75	0.75	0.25	-0.209473	0.082031	0.978027	-4.830000	21.980000	-5.880000	735.00	-0.17	-0.12	0.00	0.00	0.00	0.00	0.00	0.00	0.00	0.00	0.00	1.00	0.75	0.00	0.00	0.00	0.00	0.00	0.617188	0.419434	1.641602	-0.000000	-350.000000	41.860001	18.00	0.00	0.00
0.20	8.00	8.25	6.00	8.50	5.50	8.00	0.25	5.50	0.25	2.00	1.50	1.50	3.75	3.00	0.75	0.50	-0.202148	0.072266	0.959473	-4.620000	25.200001	-6.090000	678.00	-0.14	-0.13	0.00	0.00	0.00	0.00	0.00	0.00	0.00	0.00	0.00	1.00	0.75	0.00	0.00	0.00	0.00	0.00	0.463867	0.377441	1.495605	14.980000	-383.529999	54.250000	18.00	0.00	0.00
0.21	6.00	6.25	5.00	7.25	5.00	7.50	0.25	5.25	0.50	2.25	1.75	1.75	4.00	3.75	0.75	0.50	-0.235352	0.091309	0.977051	-4.830000	28.280001	-6.020000	619.00	-0.11	-0.13	0.00	0.00	0.00	0.00	0.00	0.00	0.00	0.00	0.00	0.75	0.75	0.00	0.00	0.00	0.00	0.00	0.295898	0.304688	1.384277	29.820000	-407.959991	64.540001	16.00	0.00	0.00
0.22	4.50	4.75	4.25	6.00	4.75	6.75	0.25	5.00	0.50	2.75	1.75	2.00	4.00	4.25	1.00	0.50	-0.197754	0.083008	0.954590	-6.020000	31.639999	-6.160000	568.00	-0.08	-0.13	0.00	0.00	0.00	0.00	0.00	0.00	0.00	0.00	0.00	1.00	0.75	0.00	0.00	0.00	0.00	0.00	0.153320	0.207031	1.303711	42.910000	-423.220001	73.779999	18.00	0.00	0.00
0.23	3.25	3.25	3.00	5.00	4.25	6.00	0.25	5.00	1.00	2.75	2.00	1.75	4.00	4.75	1.00	0.50	-0.245605	0.078613	0.958496	-7.420000	34.650002	-6.790000	513.00	-0.04	-0.13	0.00	0.00	0.00	0.00	0.00	0.00	0.00	0.00	0.00	0.75	0.50	0.00	0.00	0.00	0.00	0.00	0.018066	0.122559	1.312500	52.430000	-432.529999	81.199997	13.00	0.00	0.00
0.24	2.00	2.25	2.25	4.25	3.50	5.25	0.25	4.50	1.50	3.25	2.25	2.00	4.00	5.25	1.00	0.75	-0.226562	0.093262	0.946777	-9.240000	37.099998	-11.550000	473.00	0.00	-0.13	0.00	0.00	0.00	0.00	0.00	0.00	0.00	0.00	0.00	0.50	0.50	0.00	0.00	0.00	0.00	0.00	-0.101074	0.060547	1.377930	56.560001	-440.019989	85.820000	10.00	0.00	0.00
0.25	1.50	1.75	1.75	3.25	3.00	4.00	0.00	3.75	1.50	3.75	2.50	2.25	4.00	6.25	1.25	0.75	-0.247559	0.072266	0.966797	-11.130000	37.660000	-13.090000	434.00	0.05	-0.12	0.00	0.00	0.00	0.00	0.00	0.00	0.00	0.00	0.00	0.75	0.50	0.00	0.00	0.00	0.00	0.00	-0.246094	0.009766	1.405762	56.000000	-447.510010	87.080002	13.00	0.00	0.00
0.26	1.50	1.25	1.25	3.00	2.50	3.25	0.00	3.25	2.00	4.25	2.75	2.25	4.00	7.00	1.25	0.75	-0.249023	0.077148	0.964844	-10.430000	38.360001	-14.070000	421.00	0.08	-0.10	0.00	0.00	0.00	0.00	0.00	0.00	0.00	0.00	0.00	0.50	0.25	0.00	0.00	0.00	0.00	0.00	-0.435547	0.023438	1.443359	56.279999	-451.920013	85.400002	8.00	0.00	0.00
0.27	1.00	1.00	0.50	2.50	2.00	2.00	0.00	2.50	2.50	6.00	3.25	3.00	3.75	8.00	1.50	1.00	-0.255371	0.050781	0.955078	-4.480000	37.240002	-16.450001	417.00	0.13	-0.08	0.00	0.00	0.00	0.00	0.00	0.00	0.00	0.00	0.00	0.50	0.25	0.00	0.00	0.00	0.00	0.00	-0.550781	0.008301	1.517090	61.040001	-453.179993	82.040001	8.00	0.00	0.00
0.28	0.75	0.00	0.75	2.25	1.25	1.25	0.00	2.00	2.75	6.50	3.50	3.00	3.75	8.50	1.50	1.00	-0.236328	0.053711	0.949707	-2.170000	41.580002	-15.330000	397.00	0.17	-0.06	0.00	0.00	0.00	0.00	0.00	0.00	0.00	0.00	0.00	0.50	0.25	0.00	0.00	0.00	0.00	0.00	-0.624023	-0.006348	1.637207	68.389999	-453.040009	76.860001	8.00	0.00	0.00
0.29	0.75	0.75	0.50	1.75	1.00	1.00	0.00	1.50	3.75	7.75	3.75	3.00	3.75	9.25	1.50	1.25	-0.286133	0.048828	0.964844	4.480000	47.320000	-16.870001	419.00	0.19	-0.04	0.00	0.00	0.00	0.00	0.00	0.00	0.00	0.00	0.00	0.50	0.25	0.00	0.00	0.00	0.00	0.00	-0.733398	-0.029297	1.812988	76.790001	-453.950012	70.559998	8.00	0.00	0.00
0.30	0.50	0.25	0.00	1.75	0.75	0.75	0.00	1.25	3.75	8.25	5.25	3.50	3.75	10.00	1.75	1.25	-0.280273	0.055664	0.958008	9.940000	57.260002	-14.420000	432.00	0.22	-0.04	0.00	0.00	0.00	0.00	0.00	0.00	0.00	0.00	0.00	0.50	0.50	0.00	0.00	0.00	0.00	0.00	-0.833496	-0.038574	1.931152	85.050003	-456.119995	64.330002	10.00	0.00	0.00
0.31	0.50	0.25	0.25	1.25	0.50	0.00	0.00	1.00	4.75	8.75	6.00	4.00	3.75	11.00	2.00	1.50	-0.300293	0.056641	0.953613	17.150000	72.590004	-12.600000	458.00	0.24	-0.02	0.00	0.00	0.00	0.00	0.00	0.00	0.00	0.00	0.00	0.25	0.25	0.00	0.00	0.00	0.00	0.00	-0.890137	-0.038574	2.052734	90.720001	-457.799988	59.360001	5.00	0.00	0.00
0.32	0.50	0.00	0.00	1.25	0.50	0.00	0.00	1.00	5.25	9.25	7.25	5.00	4.25	12.00	2.50	1.75	-0.291016	0.043945	0.982910	19.950001	90.090004	-9.870000	508.00	0.25	-0.02	0.00	0.00	0.00	0.00	0.00	0.00	0.00	0.00	0.00	0.25	0.25	0.00	0.00	0.00	0.00	0.00	-0.917969	-0.018066	2.212891	93.590004	-457.589996	57.470001	5.00	0.00	0.00
0.33	0.50	0.00	0.00	1.25	0.25	0.00	0.00	0.75	6.25	9.75	8.00	5.75	4.00	13.25	2.75	2.00	-0.310059	0.070801	0.938477	20.650000	101.849998	-8.120000	548.00	0.25	-0.01	0.00	0.00	0.00	0.00	0.00	0.00	0.00	0.00	0.00	0.25	0.25	0.00	0.00	0.00	0.00	0.00	-0.926270	-0.025879	2.455078	96.529999	-457.660004	57.889999	5.00	0.00	0.00
0.34	0.50	0.00	0.00	1.00	0.25	0.00	0.00	0.50	7.25	10.50	8.50	6.50	5.00	14.50	3.50	2.25	-0.339844	0.054199	0.960938	19.950001	108.430000	-7.070000	604.00	0.26	-0.01	0.00	0.00	0.00	0.00	0.00	0.00	0.00	0.00	0.00	0.25	0.25	0.00	0.00	0.00	0.00	0.00	-1.155762	0.015137	2.731445	105.070000	-460.250000	57.820000	5.00	0.00	0.00
0.35	0.50	0.00	0.00	0.75	0.00	0.00	0.00	0.50	7.50	11.25	9.50	7.50	5.25	15.75	3.75	3.00	-0.336426	0.062500	1.033691	17.290001	114.169998	-5.950000	650.00	0.27	-0.02	0.00	0.00	0.00	0.00	0.00	0.00	0.00	0.00	0.00	0.25	0.25	0.00	0.00	0.00	0.00	0.00	-1.551270	0.013672	2.915527	121.940002	-465.220001	59.709999	5.00	0.00	0.00
0.36	0.25	0.00	0.00	0.75	0.00	0.00	0.00	0.50	8.25	12.00	10.25	8.00	5.75	16.75	5.25	3.75	-0.384766	0.101562	0.906250	18.690001	121.449997	-6.650000	711.00	0.27	-0.02	0.00	0.00	0.00	0.00	0.00	0.00	0.00	0.00	0.00	0.50	0.25	0.00	0.00	0.00	0.00	0.00	-2.060547	-0.012207	2.967773	136.990005	-469.559998	65.449997	8.00	0.00	0.00
0.37	0.25	0.00	0.00	1.00	0.00	0.00	0.00	0.75	8.25	12.75	11.00	8.50	6.00	18.00	5.75	4.50	-0.390137	0.086914	0.903320	20.580000	125.160004	-8.680000	761.00	0.27	-0.02	0.00	0.00	0.00	0.00	0.00	0.00	0.00	0.00	0.00	0.00	0.00	0.00	0.00	0.00	0.00	0.00	-2.622070	-0.085938	2.844727	137.339996	-467.110016	78.050003	0.00	0.00	0.00
0.38	0.50	0.00	0.00	0.50	0.00	0.00	0.00	0.75	8.75	13.25	12.00	9.25	6.75	19.50	6.50	5.00	-0.404785	0.097168	0.911133	18.830000	127.540001	-10.220000	818.00	0.27	-0.02	0.00	0.00	0.00	0.00	0.00	0.00	0.00	0.00	0.00	0.25	0.00	0.00	0.00	0.00	0.00	0.00	-3.233887	-0.133301	2.555664	116.410004	-454.929993	97.860001	3.00	0.00	0.00
0.39	0.25	0.25	0.00	0.50	0.00	0.00	0.00	0.50	9.25	14.00	12.75	10.00	7.00	20.50	7.25	5.75	-0.419922	0.121582	0.924805	16.520000	131.250000	-12.880000	867.00	0.28	-0.02	0.00	0.00	0.00	0.00	0.00	0.00	0.00	0.00	0.00	0.25	0.00	0.00	0.00	0.00	0.00	0.00	-4.328613	-0.114258	2.130859	80.430000	-429.730011	120.889999	3.00	0.00	0.00
0.40	0.25	0.00	0.00	0.50	0.00	0.00	0.00	0.75	9.75	14.75	13.75	10.50	7.00	21.75	7.75	6.25	-0.446777	0.155762	0.951660	13.580000	137.339996	-17.360001	917.00	0.28	-0.02	0.00	0.00	0.00	0.00	0.00	0.00	0.00	0.00	0.00	0.25	0.00	0.00	0.00	0.00	0.00	0.00	-4.745605	-0.071777	1.026855	33.529999	-335.860016	151.130005	3.00	0.00	0.00
0.41	0.00	0.00	0.00	0.50	0.00	0.00	0.00	0.75	10.00	15.25	14.25	11.00	7.00	22.75	8.50	6.75	-0.498535	0.161621	0.977051	10.710000	151.059998	-24.150000	952.00	0.28	-0.02	0.00	0.00	0.00	0.00	0.00	0.00	0.00	0.00	0.00	0.25	0.00	0.00	0.00	0.00	0.00	0.00	-5.154297	-0.168945	0.500488	32.270000	-275.309998	149.940002	3.00	0.00	0.00
0.42	0.25	0.25	0.00	0.50	0.00	0.00	0.00	0.75	10.25	15.75	14.75	11.00	6.75	24.00	8.75	7.00	-0.535645	0.175781	1.023926	6.860000	172.830002	-32.200001	983.00	0.28	-0.02	0.00	0.00	0.00	0.00	0.00	0.00	0.00	0.00	0.00	0.25	0.00	0.00	0.00	0.00	0.00	0.00	-5.473145	-0.279297	-0.004883	35.070000	-211.259995	136.779999	3.00	0.00	0.00
0.43	0.00	0.00	0.00	0.50	0.00	0.00	0.00	0.75	10.75	16.25	15.00	11.00	6.50	24.75	9.25	7.25	-0.577148	0.187988	1.024902	3.220000	198.869995	-41.230000	1004.00	0.28	-0.02	0.00	0.00	0.00	0.00	0.00	0.00	0.00	0.00	0.00	0.00	0.00	0.00	0.00	0.00	0.00	0.00	-5.517090	-0.378906	-0.564941	37.520000	-141.399994	117.879997	0.00	0.00	0.00
0.44	0.00	0.00	0.00	0.50	0.00	0.00	0.00	0.50	11.00	16.50	15.25	11.00	6.25	25.25	9.50	7.50	-0.599121	0.138672	1.050293	-0.350000	228.619995	-48.720001	1014.00	0.29	-0.01	0.00	0.00	0.00	0.00	0.00	0.00	0.00	0.00	0.00	0.00	0.00	0.00	0.00	0.00	0.00	0.00	-5.366699	-0.500488	-0.686035	39.130001	-65.449997	101.639999	0.00	0.00	0.00
0.45	0.00	0.00	0.00	0.00	0.00	0.00	0.00	0.50	11.25	17.00	15.25	10.75	5.75	25.50	9.75	7.75	-0.652344	0.087891	1.062012	-10.430000	288.399994	-57.330002	1017.00	0.29	-0.01	0.00	0.00	0.00	0.00	0.00	0.00	0.00	0.00	0.00	0.00	0.25	0.00	0.00	0.00	0.00	0.00	-5.055664	-0.502930	-0.367188	32.759998	2.380000	88.199997	3.00	0.00	0.00
0.46	0.00	0.00	0.00	0.00	0.00	0.00	0.00	0.50	11.50	17.25	15.25	10.25	5.25	25.25	9.50	7.75	-0.702637	0.092773	1.095703	-18.690001	322.489990	-58.099998	1008.00	0.29	-0.00	0.00	0.00	0.00	0.00	0.00	0.00	0.00	0.00	0.00	0.00	0.25	0.00	0.00	0.00	0.00	0.00	-4.500000	-0.408203	-0.069824	13.860000	50.259998	69.650002	3.00	0.00	0.00
0.47	0.00	0.00	0.00	0.00	0.00	0.00	0.00	0.50	11.50	17.00	15.25	9.75	5.00	24.75	9.50	7.50	-0.765625	0.070801	1.121582	-24.290001	359.519989	-58.029999	992.00	0.29	-0.00	0.00	0.25	0.00	0.00	0.00	0.00	0.00	0.00	0.00	0.00	0.00	0.00	0.00	0.00	0.00	0.00	-7.554199	0.284180	-0.527832	154.419998	166.949997	-13.790000	2.00	0.00	0.00
0.48	0.00	0.00	0.00	0.00	0.00	0.00	0.00	0.50	11.00	16.50	15.00	9.25	4.50	24.25	9.25	7.25	-0.872559	0.056152	1.282227	-26.320000	401.660004	-54.599998	960.00	0.29	-0.00	1.75	1.50	0.75	1.50	0.00	0.00	0.00	0.00	0.00	0.00	0.00	0.00	0.00	0.00	0.00	0.00	-0.116211	-1.106445	-0.156250	182.839996	235.410004	-69.300003	57.00	-0.35	-0.06
0.49	0.00	0.00	0.00	0.00	0.00	0.00	0.00	0.50	10.00	15.25	14.25	8.50	4.00	23.75	9.00	7.25	-1.182129	0.149414	1.500977	-16.799999	445.970001	-45.779999	907.00	0.29	-0.00	7.50	8.75	1.75	3.75	0.00	0.00	0.00	0.00	0.00	0.00	0.00	0.00	0.00	0.00	0.00	0.00	0.361816	0.716309	1.576172	-3.570000	157.639999	-149.800003	219.00	-0.37	-0.06
0.50	0.00	0.00	0.00	0.00	0.00	0.00	0.00	0.25	8.50	13.50	12.75	7.25	3.00	23.00	8.50	6.50	-1.653320	0.214355	1.992676	2.590000	478.519989	-32.689999	812.00	0.30	0.01	15.25	16.25	3.00	6.50	0.00	0.00	0.00	0.00	0.00	0.00	0.00	0.00	0.00	0.00	0.00	0.00	-0.795898	1.525879	-0.599121	-120.750000	143.289993	-166.320007	412.00	-0.38	-0.05
0.51	0.00	0.00	0.00	0.00	0.00	0.00	0.00	0.00	6.75	11.50	10.25	5.25	2.00	22.00	7.75	5.25	-2.079590	0.614746	1.838379	29.680000	512.260010	-19.250000	685.00	0.31	0.02	20.75	20.50	3.75	8.75	0.00	0.00	0.00	0.00	0.00	0.00	0.00	0.00	0.00	0.00	0.00	0.00	-0.945312	2.194336	0.948730	-128.309998	296.730011	-115.849998	541.00	-0.38	-0.05
0.52	0.00	0.00	0.00	0.00	0.00	0.00	0.00	0.00	5.50	9.50	8.00	3.50	1.50	19.50	6.25	4.00	-2.708496	0.639648	2.641113	81.059998	541.239990	-10.290000	558.00	0.31	0.03	24.50	23.50	6.75	10.50	0.00	2.25	0.00	0.00	0.00	0.00	0.00	0.00	0.00	0.00	0.00	0.00	-1.261719	0.438477	3.994141	-80.639999	381.779999	-26.809999	685.00	-0.36	-0.05
0.53	0.00	0.00	0.00	0.00	0.00	0.00	0.00	0.00	4.50	8.00	5.00	2.25	1.00	16.75	5.25	2.50	-1.980469	0.246094	3.825684	122.570000	554.609985	-9.800000	438.00	0.32	0.05	26.50	24.50	8.25	11.50	0.50	4.00	0.00	0.00	0.00	0.00	0.00	0.00	0.00	0.00	0.00	0.00	-1.490723	-0.848633	5.259277	-58.099998	335.299988	-18.830000	767.00	-0.36	-0.05
0.54	0.00	0.00	0.00	0.00	0.00	0.00	0.00	0.00	2.50	6.25	3.50	2.25	1.00	13.25	4.25	1.25	-2.187500	0.406738	2.771484	154.419998	545.090027	-35.770000	331.00	0.32	0.04	27.00	24.00	9.00	12.25	0.75	6.25	0.00	0.25	0.00	0.00	0.00	0.00	0.00	0.00	0.00	0.00	-0.813965	-0.026855	2.858398	-15.050000	233.589996	-49.980000	815.00	-0.35	-0.06
0.55	0.00	0.00	0.00	0.00	0.00	0.00	0.00	0.00	1.75	5.00	2.50	2.25	0.75	10.25	2.50	0.25	-1.418457	0.337402	4.131348	223.300003	536.270020	-26.600000	246.00	0.32	0.04	26.75	24.00	9.25	12.75	0.50	7.50	0.25	1.00	0.00	0.00	0.25	0.00	0.00	0.00	0.00	0.00	-0.754883	1.211914	2.973633	-26.460001	167.580002	-40.810001	850.00	-0.33	-0.07
0.56	0.00	0.00	0.00	0.00	0.00	0.00	0.00	0.00	1.50	4.00	2.50	1.25	0.50	6.50	1.50	0.00	-0.863770	-0.378418	4.248047	256.619995	526.820007	-44.660000	176.00	0.31	0.04	26.25	23.25	9.50	13.00	1.50	8.00	0.25	1.50	0.00	0.00	0.25	0.00	0.25	0.00	0.00	0.00	-0.401367	0.339844	1.682129	-51.099998	129.710007	-6.090000	869.00	-0.32	-0.07
0.57	0.00	0.00	0.00	0.00	0.00	0.00	0.00	0.00	0.00	2.50	1.75	0.50	0.00	3.75	0.25	0.00	-0.443359	-0.223633	2.350586	199.360001	515.409973	-97.720001	84.00	0.31	0.04	25.50	22.75	9.75	13.00	2.00	8.25	0.25	2.00	0.00	0.00	0.25	0.00	0.50	0.00	0.00	0.00	-0.199219	-0.077637	1.451172	-57.750000	101.849998	-4.060000	878.00	-0.32	-0.07
0.58	0.00	0.00	0.00	0.00	0.00	0.00	0.00	0.00	0.00	2.25	1.25	0.75	0.00	2.25	0.00	0.00	-0.674316	-0.329590	4.818848	118.930000	416.010010	-132.509995	64.00	0.29	0.02	25.50	22.50	10.00	13.00	2.25	8.75	0.25	2.00	0.00	0.00	0.25	0.00	0.25	0.00	0.00	0.00	-0.198730	0.227051	1.070801	-42.490002	44.730000	-2.100000	884.00	-0.32	-0.07
0.59	0.00	0.00	0.00	0.00	0.00	0.00	0.00	0.00	0.25	2.00	1.25	0.75	0.00	2.25	0.25	0.00	-0.507812	2.052734	9.716797	21.840000	284.970001	-98.419998	67.00	0.29	0.02	24.75	22.00	10.00	13.00	2.25	8.75	0.25	2.25	0.00	0.25	0.50	0.25	0.25	0.00	0.00	0.00	-0.147461	0.227051	1.058594	-42.490002	44.730000	-2.100000	883.00	-0.31	-0.08
0.60	0.00	0.00	0.00	0.00	0.00	0.00	0.00	0.00	0.00	1.75	1.50	0.25	0.00	1.50	0.25	0.00	1.049805	-0.260742	4.682129	-56.910000	12.740000	-47.880001	52.00	0.29	0.01	24.00	21.25	9.75	12.75	2.50	9.00	0.25	2.75	0.00	0.25	0.50	0.25	0.50	0.00	0.00	0.00	-0.198242	0.154785	1.087891	-27.160000	20.580000	-2.240000	878.00	-0.30	-0.08
0.61	0.00	0.00	0.00	0.00	0.00	0.00	0.00	0.00	0.00	1.75	1.00	0.50	0.00	1.00	0.25	0.00	0.515625	0.518555	3.399902	-118.790001	-147.279999	-36.820000	45.00	0.00	0.00	23.25	20.50	9.50	12.50	2.50	9.00	0.25	3.00	0.25	0.00	0.25	0.25	0.50	0.00	0.00	0.00	-0.167969	0.173340	0.959473	-15.330000	11.900000	-2.030000	860.00	-0.30	-0.08
0.62	0.00	0.00	0.00	0.00	0.00	0.00	0.00	0.00	0.25	1.25	1.00	0.25	0.00	0.75	0.00	0.00	0.865234	0.235352	2.457031	-114.730003	-203.279999	-42.490002	36.00	0.00	0.00	21.75	19.25	9.25	12.25	2.50	9.00	0.25	3.00	0.00	0.50	0.25	0.25	0.50	0.00	0.00	0.00	-0.165527	0.174316	0.953613	-14.490000	12.250000	-2.660000	829.00	-0.30	-0.09
0.63	0.00	0.00	0.00	0.00	0.00	0.00	0.00	0.00	0.00	1.00	0.75	0.50	0.00	0.75	0.00	0.00	1.016113	0.391602	1.996582	-90.230003	-228.899994	-62.369999	30.00	0.00	0.00	20.75	18.00	8.75	12.00	2.25	9.00	0.25	2.75	0.25	0.00	0.50	0.25	1.00	0.00	0.00	0.00	-0.180176	0.171875	0.990234	-15.470000	13.860000	-3.500000	798.00	-0.29	-0.09
0.64	0.00	0.00	0.00	0.00	0.00	0.00	0.00	0.00	0.00	0.75	0.75	0.25	0.00	0.75	0.25	0.00	0.871582	0.316406	1.864746	-15.190001	-298.059998	-95.620003	27.00	0.00	0.00	19.50	17.00	8.50	11.75	2.50	9.25	0.25	3.00	0.00	0.25	0.50	0.50	1.00	0.00	0.00	0.00	-0.157715	0.156738	0.956543	-15.260000	14.630000	-4.410000	781.00	-0.29	-0.09
0.65	0.00	0.00	0.00	0.00	0.00	0.00	0.00	0.00	0.00	1.00	0.75	0.00	0.00	0.75	0.00	0.00	0.871582	0.316406	1.864746	-15.190001	-298.059998	-95.620003	25.00	0.00	0.00	17.50	15.50	8.00	10.75	2.50	8.75	0.25	3.00	0.00	0.50	0.25	0.50	1.25	0.00	0.00	0.00	-0.164551	0.171875	0.948730	-17.290001	16.520000	-4.760000	727.00	-0.28	-0.10
0.66	0.00	0.00	0.00	0.00	0.00	0.00	0.00	0.00	0.00	0.75	0.75	0.25	0.00	0.75	0.00	0.00	0.522461	0.366699	1.578125	-19.670000	-372.119995	-94.709999	25.00	0.00	0.00	16.25	13.75	7.75	10.25	2.25	8.50	0.25	3.00	0.00	0.25	0.50	0.25	1.00	0.00	0.00	0.00	-0.167480	0.148926	0.951172	-17.430000	17.360001	-4.410000	679.00	-0.28	-0.10
0.67	0.00	0.00	0.00	0.00	0.00	0.00	0.00	0.00	0.00	0.75	0.50	0.00	0.00	0.50	0.00	0.00	0.358398	0.507324	1.419922	-41.090000	-398.299988	-81.059998	17.00	0.00	0.00	14.00	12.50	7.00	9.75	2.25	8.25	0.25	3.00	0.00	0.50	0.25	0.50	1.25	0.00	0.00	0.00	-0.178223	0.137207	0.940918	-17.150000	17.010000	-4.410000	633.00	-0.27	-0.11
0.68	0.00	0.00	0.00	0.00	0.00	0.00	0.00	0.00	0.00	0.50	0.75	0.00	0.00	0.50	0.00	0.00	0.184570	0.647461	1.293457	-52.920002	-415.309998	-62.790001	17.00	0.00	0.00	11.50	10.25	6.50	9.25	2.00	8.25	0.25	3.25	0.00	0.50	0.50	0.50	1.75	0.00	0.00	0.00	-0.131348	0.124512	0.911133	-20.510000	17.639999	-4.480000	583.00	-0.25	-0.12
0.69	0.00	0.00	0.00	0.00	0.00	0.00	0.00	0.00	0.00	0.50	0.25	0.00	0.00	0.25	0.00	0.00	0.058594	0.754395	1.169922	-47.740002	-423.779999	-42.560001	10.00	0.00	0.00	9.50	9.00	5.75	8.50	2.25	8.00	0.25	3.25	0.00	0.50	0.25	0.75	1.75	0.00	0.00	0.00	-0.131348	0.182617	0.922363	-30.590000	19.670000	-5.670000	534.00	-0.24	-0.13
0.70	0.00	0.00	0.00	0.00	0.00	0.00	0.00	0.00	0.00	0.25	0.00	0.00	0.00	0.00	0.00	0.00	-0.061035	0.792969	1.108887	-29.610001	-424.339996	-22.049999	3.00	0.00	0.00	8.00	7.50	5.25	7.75	2.00	8.00	0.25	3.25	0.00	0.75	0.75	0.50	2.50	0.00	0.00	0.00	-0.188965	0.109863	0.967773	-38.920002	19.600000	-7.280000	500.00	-0.22	-0.14
0.71	0.00	0.00	0.00	0.00	0.00	0.00	0.00	0.00	0.00	0.50	0.00	0.00	0.00	0.00	0.00	0.00	-0.180176	0.767578	1.121094	-6.580000	-420.070007	-2.030000	5.00	0.00	0.00	6.50	5.75	5.00	7.00	2.50	7.50	0.25	3.50	0.00	1.00	1.00	1.00	2.50	0.00	0.00	0.00	-0.205566	0.141602	0.959961	-40.180000	19.389999	-8.330000	472.00	-0.19	-0.14
0.72	0.00	0.00	0.00	0.00	0.00	0.00	0.00	0.00	0.00	0.25	0.25	0.00	0.00	0.25	0.00	0.00	-0.272461	0.717773	1.262207	11.130000	-415.170013	18.830000	7.00	0.00	0.00	5.00	4.00	4.00	6.25	2.50	7.00	0.25	3.75	0.00	1.00	1.00	1.25	3.00	0.00	0.00	0.00	-0.294434	0.037109	1.014648	-38.220001	18.410000	-9.170000	426.00	-0.17	-0.16
0.73	0.00	0.00	0.00	0.25	0.00	0.00	0.00	0.00	0.00	0.25	0.00	0.00	0.00	0.00	0.00	0.00	-0.349121	0.668945	1.430176	17.500000	-413.140015	39.759998	5.00	0.00	0.00	3.50	3.50	3.25	5.50	2.50	7.00	0.25	3.50	0.25	1.50	1.50	1.25	3.25	0.75	0.25	0.25	-0.234375	0.095215	0.979492	-31.290001	13.580000	-9.730000	412.00	-0.12	-0.16
0.74	0.00	0.00	0.00	0.00	0.00	0.00	0.00	0.00	0.00	0.00	0.00	0.00	0.00	0.00	0.00	0.00	-0.452148	0.658691	1.672852	16.799999	-417.059998	59.849998	0.00	0.00	0.00	2.75	2.50	2.75	5.25	2.75	6.25	0.25	3.25	0.25	1.75	1.50	1.25	4.00	1.25	0.50	0.25	-0.192383	0.108398	0.963867	-24.780001	10.430000	-11.200000	393.00	-0.09	-0.16
0.75	0.00	0.00	0.00	0.00	0.00	0.00	0.00	0.00	0.00	0.25	0.00	0.00	0.00	0.00	0.00	0.00	-0.550293	0.649414	1.904297	16.309999	-426.790009	77.980003	3.00	0.00	0.00	2.00	1.75	2.75	4.75	2.75	6.00	0.25	3.25	0.75	2.00	1.75	1.75	4.50	1.75	0.50	0.75	-0.184082	0.117676	0.960938	-20.860001	12.250000	-12.950000	399.00	-0.05	-0.16
0.76	0.00	0.00	0.00	0.00	0.00	0.00	0.00	0.00	0.00	0.00	0.00	0.00	0.00	0.00	0.00	0.00	-0.659668	0.619629	2.052246	18.969999	-438.269989	92.330002	0.00	0.00	0.00	1.50	0.75	2.25	4.25	2.75	5.50	0.50	3.25	0.75	2.25	2.25	2.50	4.75	2.25	0.75	0.75	-0.222656	0.074707	0.950684	-7.770000	17.710001	-14.140000	397.00	-0.01	-0.16
0.77	0.00	0.00	0.00	0.00	0.00	0.00	0.00	0.00	0.00	0.00	0.00	0.00	0.00	0.25	0.00	0.00	-0.779297	0.610352	2.213867	21.629999	-447.649994	103.739998	2.00	0.00	0.00	1.50	1.00	2.25	3.00	3.00	5.50	0.25	3.50	1.25	3.00	2.75	2.75	5.50	3.25	1.00	1.00	-0.222656	0.074707	0.950684	-7.770000	17.710001	-14.140000	429.00	0.02	-0.15
0.78	0.00	0.00	0.00	0.00	0.00	0.00	0.00	0.00	0.00	0.00	0.00	0.00	0.00	0.00	0.00	0.00	-0.896973	0.628906	2.418945	24.360001	-455.000000	113.680000	0.00	0.00	0.00	1.25	1.00	1.75	2.75	2.50	5.25	0.25	3.75	1.50	3.75	3.50	3.75	6.75	3.75	1.25	1.50	-0.216797	0.110352	0.952148	-0.210000	19.670000	-12.950000	464.00	0.06	-0.16
0.79	0.00	0.00	0.00	0.00	0.00	0.00	0.00	0.00	0.00	0.00	0.00	0.00	0.00	0.00	0.00	0.00	-1.120605	0.695312	2.673340	27.860001	-460.809998	122.849998	0.00	0.00	0.00	1.00	0.75	1.25	2.75	2.25	5.25	0.25	4.75	1.75	4.75	5.50	5.00	8.00	5.50	1.50	2.00	-0.229492	0.083008	0.970703	7.490000	26.389999	-11.760000	545.00	0.09	-0.16
0.80	0.00	0.00	0.00	0.00	0.00	0.00	0.00	0.00	0.00	0.00	0.00	0.00	0.00	0.00	0.00	0.00	-1.590332	0.744141	2.855957	34.299999	-465.290009	133.000000	0.00	0.00	0.00	0.75	0.75	1.00	2.25	2.25	5.00	0.25	4.75	2.50	6.75	7.50	7.25	8.75	6.50	1.75	2.50	-0.232422	0.092285	0.969727	10.710000	30.100000	-10.570000	627.00	0.13	-0.15
0.81	0.00	0.00	0.00	0.00	0.00	0.00	0.00	0.00	0.00	0.00	0.00	0.00	0.00	0.00	0.00	0.00	-2.088867	0.833496	3.125977	42.279999	-470.190002	139.020004	0.00	0.00	0.00	0.75	0.25	1.00	2.75	2.00	4.75	0.00	5.25	3.25	8.00	8.25	8.50	9.50	7.50	2.25	3.00	-0.260254	0.103027	0.973145	14.840000	34.230000	-7.910000	693.00	0.14	-0.15
0.82	0.00	0.00	0.00	0.00	0.00	0.00	0.00	0.00	0.00	0.00	0.00	0.00	0.00	0.00	0.00	0.00	-2.594238	0.821289	2.851074	48.650002	-480.760010	144.899994	0.00	0.00	0.00	0.50	0.50	0.50	2.25	1.75	4.50	0.00	5.25	4.00	9.00	9.25	9.25	10.25	9.00	2.50	4.75	-0.255371	0.137695	0.979004	18.480000	40.599998	-6.650000	746.00	0.16	-0.14
0.83	0.00	0.00	0.00	0.00	0.00	0.00	0.00	0.00	0.00	0.00	0.00	0.00	0.00	0.00	0.00	0.00	-3.289062	0.683105	2.815430	72.730003	-481.250000	163.449997	0.00	0.00	0.00	0.50	0.75	0.50	1.00	1.25	4.00	0.00	5.50	5.00	10.00	10.25	10.25	11.00	10.50	3.25	5.50	-0.270020	0.122559	1.014648	22.260000	51.520000	-7.350000	804.00	0.18	-0.13
0.84	0.00	0.00	0.00	0.00	0.00	0.00	0.00	0.00	0.00	0.00	0.00	0.00	0.00	0.00	0.00	0.00	-4.028809	0.553223	2.515137	80.709999	-465.149994	180.600006	0.00	0.00	0.00	0.50	0.00	0.25	1.50	0.50	3.50	0.00	5.25	5.25	11.00	11.25	11.25	11.50	12.50	3.75	6.50	-0.248535	0.162598	1.012207	25.200001	65.169998	-10.640000	849.00	0.20	-0.13
0.85	0.00	0.00	0.00	0.00	0.00	0.00	0.00	0.00	0.00	0.00	0.00	0.00	0.00	0.00	0.00	0.00	-4.683594	0.363770	2.116211	74.620003	-430.920013	192.639999	0.00	0.00	0.00	0.50	0.50	0.00	2.00	0.25	3.00	0.00	5.00	6.50	11.75	12.25	12.00	12.00	15.00	5.25	7.00	-0.318848	0.173828	1.023438	30.100000	80.080002	-16.379999	931.00	0.21	-0.11
0.86	0.00	0.00	0.00	0.00	0.00	0.00	0.00	0.00	0.00	0.00	0.00	0.00	0.00	0.00	0.00	0.00	-5.145996	0.049316	1.424805	58.170002	-386.540009	197.889999	0.00	0.00	0.00	0.75	0.25	0.00	0.75	0.00	2.00	0.00	4.75	7.00	12.50	13.00	12.75	12.50	17.00	6.25	7.75	-0.292969	0.200684	1.071289	37.869999	101.919998	-21.420000	966.00	0.23	-0.10
0.87	0.00	0.00	0.00	0.00	0.00	0.00	0.00	0.00	0.00	0.00	0.00	0.00	0.00	0.00	0.00	0.00	-6.128906	-0.075684	0.075684	-6.440000	-273.980011	152.039993	0.00	0.00	0.00	0.50	0.00	0.00	0.75	0.00	1.50	0.00	4.00	7.50	13.25	13.50	13.25	12.50	19.25	7.25	8.25	-0.356445	0.297852	1.092773	52.220001	134.610001	-28.139999	1001.00	0.24	-0.09
0.88	0.00	0.00	0.00	0.00	0.00	0.00	0.00	0.00	0.00	0.00	0.00	0.00	0.00	0.00	0.00	0.00	-6.228516	0.265137	-1.062012	-23.730000	-208.880005	95.970001	0.00	0.00	0.00	0.50	0.00	0.00	0.00	0.00	1.00	0.00	3.50	7.75	14.00	14.00	13.50	12.25	21.25	7.75	8.75	-0.349121	0.277344	1.122559	64.400002	181.089996	-38.290001	1022.00	0.26	-0.08
0.89	0.00	0.00	0.00	0.00	0.00	0.00	0.00	0.00	0.00	0.00	0.00	0.00	0.00	0.00	0.00	0.00	-6.233887	0.710938	-1.548828	2.520000	-125.300003	39.410000	0.00	0.00	0.00	0.25	0.00	0.00	0.50	0.00	0.50	0.00	3.00	8.25	14.25	14.25	13.50	11.50	23.00	8.25	9.00	-0.394043	0.172852	1.178223	38.290001	233.520004	-47.599998	1038.00	0.26	-0.07
0.90	0.00	0.00	0.00	0.00	0.00	0.00	0.00	0.00	0.00	0.00	0.00	0.00	0.00	0.00	0.00	0.00	-6.091309	0.615234	-1.330078	68.110001	-34.299999	5.950000	0.00	0.00	0.00	0.25	0.00	0.00	0.50	0.00	0.00	0.00	2.75	8.50	14.75	14.50	13.25	10.75	24.00	8.75	9.50	-0.437012	0.243164	1.144531	0.700000	276.920013	-54.950001	1048.00	0.27	-0.06
0.91	0.00	0.00	0.00	0.00	0.00	0.00	0.00	0.00	0.00	0.00	0.00	0.00	0.00	0.00	0.00	0.00	-5.581543	0.409668	-0.794434	114.029999	30.870001	-10.430000	0.00	0.00	0.00	0.25	0.00	0.00	0.00	0.00	0.25	0.00	2.25	8.75	15.00	14.25	12.75	9.75	25.00	9.00	9.50	-0.547363	0.274902	1.513672	-22.820000	320.950012	-64.260002	1038.00	0.28	-0.05
0.92	0.75	0.25	0.25	0.75	0.00	0.00	0.00	0.00	0.00	0.00	0.00	0.00	0.00	0.00	0.00	0.00	-3.708008	-1.322754	-2.304199	82.040001	244.300003	61.529999	21.00	0.00	0.00	0.25	0.00	0.00	0.25	0.00	0.00	0.00	1.75	9.00	15.50	14.50	12.25	8.75	25.25	9.00	9.75	-0.569336	0.256348	1.266602	-24.150000	372.470001	-72.870003	1031.00	0.28	-0.04
0.93	3.75	3.25	1.25	2.00	0.00	0.00	0.00	0.00	0.00	0.00	0.00	0.00	0.00	0.25	0.00	0.00	-1.681152	-0.343262	0.112305	15.260000	364.839996	53.970001	107.00	-0.35	-0.04	0.25	0.00	0.00	0.00	0.00	0.00	0.00	1.25	9.00	15.50	14.00	11.50	7.75	24.75	8.50	9.50	-0.592773	0.129395	1.333008	-27.299999	414.540009	-79.099998	988.00	0.28	-0.03
0.94	16.50	16.50	2.50	4.75	0.00	0.00	0.00	0.00	0.00	0.00	0.00	0.00	0.00	0.00	0.00	0.00	1.235840	-0.988770	3.891113	-48.299999	308.839996	8.820000	403.00	-0.38	-0.04	0.00	0.00	0.00	0.50	0.00	0.00	0.00	1.00	8.75	15.25	13.75	10.75	6.50	23.50	8.00	9.25	-0.598145	0.183105	1.382324	-44.520000	465.570007	-82.389999	942.00	0.28	-0.03
0.95	27.75	27.50	4.75	8.00	0.00	0.00	0.00	0.00	0.00	0.00	0.00	0.00	0.00	0.00	0.00	0.00	-1.395508	-1.028809	0.640625	-5.740000	346.709991	-10.710000	681.00	-0.38	-0.04	0.00	0.00	0.00	0.00	0.00	0.00	0.00	0.50	7.50	14.00	13.00	9.50	5.25	21.75	7.25	9.25	-0.688477	0.254883	1.392578	-58.240002	525.210022	-89.040001	845.00	0.29	-0.03
0.96	32.50	32.75	8.00	10.25	0.00	0.25	0.00	0.00	0.00	0.00	0.00	0.00	0.00	0.00	0.00	0.00	-2.248047	-0.573730	3.940430	117.389999	473.690002	-61.459999	842.00	-0.38	-0.04	0.00	0.00	0.00	0.00	0.00	0.00	0.00	0.25	5.75	12.00	11.50	8.50	4.25	19.50	6.50	8.00	-1.360840	0.459473	2.240234	-42.630001	583.940002	-87.849998	729.00	0.29	-0.03
0.97	35.25	35.25	10.25	14.75	1.25	3.00	0.00	0.25	0.00	0.00	0.00	0.00	0.00	0.00	0.00	0.00	-1.877930	0.775879	5.798828	184.940002	365.399994	-65.590004	1016.00	-0.36	-0.05	0.00	0.00	0.00	0.00	0.00	0.00	0.00	0.00	3.50	9.50	9.00	6.50	2.25	16.75	5.00	6.50	-2.242188	0.811523	3.237305	11.130000	636.020020	-71.959999	558.00	0.30	-0.02
0.98	34.75	34.75	11.75	16.25	1.75	6.00	0.00	0.75	0.00	0.00	0.00	0.25	0.00	0.00	0.00	0.00	-1.335449	1.959473	3.655273	48.720001	183.119995	-49.560001	1087.00	-0.35	-0.06	0.00	0.00	0.00	0.00	0.00	0.00	0.00	0.00	2.50	7.50	6.50	4.00	1.25	12.50	3.00	3.75	-2.811523	0.996582	3.695312	103.669998	681.520020	-44.869999	390.00	0.30	-0.00
0.99	32.25	32.25	11.00	15.75	2.00	6.25	0.00	1.25	0.00	0.00	0.00	0.25	0.25	0.00	0.00	0.00	-0.335938	0.365234	1.584473	-47.110001	123.059998	-7.910000	1040.00	-0.34	-0.06	0.00	0.00	0.00	0.00	0.00	0.00	0.00	0.00	1.75	5.75	4.50	3.00	1.25	8.50	2.25	1.50	-1.937500	0.300293	4.987793	164.570007	696.570007	-33.320000	277.00	0.30	-0.00
1.00	29.75	29.75	10.75	15.25	2.25	7.50	0.00	1.50	0.00	0.00	0.00	0.25	0.75	0.00	0.00	0.00	-0.134766	-0.404297	1.056641	-56.560001	119.980003	-11.060000	1007.00	-0.33	-0.07	0.00	0.00	0.00	0.00	0.00	0.00	0.00	0.00	1.25	4.50	3.25	2.25	0.75	5.75	1.25	0.50	-0.294922	-0.007812	4.128906	223.930008	651.070007	-68.809998	192.00	0.29	0.00
1.01	27.75	28.25	11.00	15.50	2.50	7.75	0.00	2.00	0.00	0.25	0.25	0.50	0.75	0.25	0.00	0.00	-0.409180	0.375000	1.373535	-52.779999	78.470001	-15.890000	1001.00	-0.32	-0.08	0.00	0.00	0.00	0.00	0.00	0.00	0.00	0.00	0.75	4.00	3.00	1.75	0.50	2.00	0.25	0.25	-0.131348	0.252930	2.884277	168.910004	619.220032	-131.880005	127.00	0.26	-0.03
1.02	26.50	27.00	10.75	15.50	3.00	8.25	0.00	2.25	0.00	0.25	0.25	0.50	1.00	0.50	0.00	0.00	-0.269531	0.328125	0.856934	-61.250000	55.930000	-6.440000	993.00	-0.31	-0.08	0.00	0.00	0.00	0.00	0.00	0.00	0.00	0.00	0.50	2.00	1.50	0.50	0.00	1.25	0.00	0.00	-0.146484	0.752441	4.447266	154.139999	583.239990	-186.550003	59.00	0.27	0.03
1.03	24.50	25.00	10.50	15.50	4.00	8.75	0.00	3.50	0.00	0.50	0.25	0.75	1.50	0.75	0.00	0.00	-0.180664	0.025391	1.133789	-79.169998	49.980000	-4.130000	998.00	-0.29	-0.09	0.00	0.00	0.00	0.00	0.00	0.00	0.00	0.00	0.25	2.00	1.75	0.25	0.00	0.50	0.50	0.00	-0.921875	2.979004	2.373047	147.350006	551.599976	-201.039993	55.00	0.26	-0.01
1.04	22.75	23.50	10.00	15.00	4.25	9.00	0.25	4.00	0.00	0.50	0.00	0.75	1.75	1.00	0.00	0.00	-0.246094	0.122559	1.027344	-52.920002	23.170000	-5.810000	974.00	-0.28	-0.09	0.00	0.00	0.00	0.00	0.00	0.00	0.00	0.00	0.50	2.00	1.50	0.50	0.00	0.50	0.50	0.00	2.461914	1.352051	7.202148	137.339996	226.869995	-135.029999	58.00	0.26	0.00
1.05	20.75	21.25	9.50	14.00	4.50	9.00	0.00	5.00	0.00	0.75	0.25	0.75	2.25	1.00	0.25	0.00	-0.209961	0.096191	1.001953	-29.190001	12.180000	-4.900000	942.00	-0.27	-0.10	0.00	0.00	0.00	0.00	0.00	0.00	0.00	0.00	0.25	2.00	1.50	0.25	0.00	0.50	0.00	0.00	1.365723	1.215332	4.625488	49.000000	-82.389999	-45.779999	47.00	0.00	0.00
1.06	18.25	18.50	9.00	13.00	4.50	9.00	0.00	5.00	0.00	0.50	0.50	1.00	2.50	1.75	0.25	0.00	-0.244141	0.098633	0.995605	-16.799999	12.600000	-5.390000	886.00	-0.25	-0.11	0.00	0.00	0.00	0.00	0.00	0.00	0.00	0.00	0.50	1.50	1.25	0.00	0.00	0.25	0.00	0.00	0.885742	0.914551	3.351074	-64.190002	-252.630005	31.920000	37.00	0.00	0.00
1.07	15.75	15.75	8.50	11.75	4.50	9.25	0.25	5.25	0.00	0.75	0.75	0.75	2.75	1.50	0.25	0.00	-0.224121	0.085938	0.989746	-7.700000	17.639999	-5.950000	828.00	-0.24	-0.11	0.00	0.00	0.00	0.00	0.00	0.00	0.00	0.00	0.25	1.50	1.00	0.00	0.00	0.00	0.00	0.00	0.909668	0.861816	2.413574	-133.070007	-322.769989	78.470001	29.00	0.00	0.00
1.08	13.00	13.00	8.00	10.25	4.50	8.75	0.00	5.25	0.00	0.75	0.50	1.00	3.00	1.75	0.25	0.00	-0.218262	0.113770	0.966309	-7.700000	17.639999	-5.950000	748.00	-0.22	-0.12	0.00	0.00	0.00	0.00	0.00	0.00	0.00	0.00	0.50	1.25	1.00	0.00	0.00	0.00	0.00	0.00	0.887207	0.739746	2.053223	-149.800003	-362.739990	96.180000	30.00	0.00	0.00
1.09	10.25	9.75	7.25	9.25	4.25	8.50	0.25	5.25	0.00	1.00	0.75	1.25	3.00	2.00	0.50	0.00	-0.211426	0.083008	0.967773	-6.230000	21.139999	-5.530000	681.00	-0.19	-0.13	0.00	0.00	0.00	0.00	0.00	0.00	0.00	0.00	0.25	1.25	0.75	0.25	0.00	0.00	0.00	0.00	0.697266	0.640625	1.770996	-130.199997	-402.779999	94.430000	27.00	0.00	0.00
1.10	8.50	8.25	6.50	8.25	4.00	8.25	0.00	5.50	0.00	1.00	1.00	1.25	3.25	2.00	0.50	0.25	-0.226562	0.085449	0.970215	-4.900000	21.700001	-5.180000	630.00	-0.18	-0.14	0.00	0.00	0.00	0.00	0.00	0.00	0.00	0.00	0.00	1.00	0.75	0.00	0.00	0.00	0.00	0.00	0.518555	0.448730	1.642578	-91.209999	-437.920013	79.029999	18.00	0.00	0.00
1.11	7.00	6.50	6.00	7.50	3.75	7.75	0.25	5.25	0.00	1.00	0.75	1.25	3.50	2.50	0.50	0.00	-0.218750	0.077637	0.962891	-3.430000	22.750000	-5.320000	579.00	-0.16	-0.14	0.00	0.00	0.00	0.00	0.00	0.00	0.00	0.00	0.00	1.00	1.00	0.00	0.00	0.00	0.00	0.00	0.310547	0.258301	1.511230	-53.130001	-470.679993	54.389999	21.00	0.00	0.00
1.12	5.50	5.50	5.00	6.50	3.50	7.50	0.00	5.25	0.00	1.25	1.00	1.00	3.50	2.50	0.50	0.25	-0.195801	0.072754	0.958496	-2.310000	24.010000	-5.390000	527.00	-0.14	-0.15	0.00	0.00	0.00	0.00	0.00	0.00	0.00	0.00	0.00	0.75	0.75	0.00	0.00	0.00	0.00	0.00	0.080566	0.127441	1.431152	-29.049999	-497.209991	26.670000	16.00	0.00	0.00
1.13	4.25	4.00	4.00	5.75	3.25	7.00	0.00	5.25	0.00	1.00	1.00	1.25	3.75	3.00	0.50	0.25	-0.215332	0.072754	0.962402	-0.840000	24.920000	-5.320000	479.00	-0.11	-0.16	0.00	0.00	0.00	0.00	0.00	0.00	0.00	0.00	0.00	1.00	0.75	0.00	0.00	0.00	0.00	0.00	-0.111328	0.074219	1.336426	-20.440001	-514.289978	2.590000	18.00	0.00	0.00
1.14	3.00	2.50	3.25	5.00	2.75	6.75	0.00	5.00	0.25	1.25	1.25	1.50	3.75	3.00	0.75	0.25	-0.244141	0.084961	0.955078	1.190000	25.480000	-5.810000	437.00	-0.08	-0.17	0.00	0.00	0.00	0.00	0.00	0.00	0.00	0.00	0.00	0.50	0.50	0.00	0.00	0.00	0.00	0.00	-0.280762	0.131348	1.302246	-19.389999	-522.830017	-15.610000	10.00	0.00	0.00
1.15	2.00	1.75	2.50	4.25	2.50	6.25	0.00	5.00	0.00	1.00	1.25	1.50	4.00	3.25	0.50	0.50	-0.244629	0.076660	0.926758	2.730000	25.969999	-5.880000	392.00	-0.05	-0.19	0.00	0.00	0.25	0.00	0.00	0.00	0.00	0.00	0.00	0.75	0.50	0.00	0.00	0.00	0.00	0.00	-0.425781	0.228027	1.225586	-20.650000	-524.720032	-28.070000	16.00	0.00	0.00
1.16	1.75	1.50	1.50	3.50	2.00	5.75	0.00	5.00	0.00	1.50	1.50	1.75	4.50	3.75	0.75	0.50	-0.206055	0.097656	0.928711	2.870000	26.670000	-6.370000	379.00	-0.02	-0.19	0.00	0.00	0.00	0.00	0.00	0.00	0.00	0.00	0.00	0.50	0.25	0.00	0.00	0.00	0.00	0.00	-0.545898	0.314453	1.224609	-18.129999	-520.169983	-34.930000	8.00	0.00	0.00
1.17	1.25	0.75	1.25	3.25	1.75	5.50	0.00	5.00	0.00	1.50	1.75	2.25	4.75	4.25	0.75	0.50	-0.243164	0.078125	0.929688	3.850000	27.230000	-6.440000	370.00	0.01	-0.20	0.00	0.00	0.00	0.00	0.00	0.00	0.00	0.00	0.00	0.25	0.25	0.00	0.00	0.00	0.00	0.00	-0.601074	0.436523	1.161621	-11.270000	-508.480011	-35.560001	5.00	0.00	0.00
1.18	0.75	0.50	0.75	2.50	1.25	5.00	0.00	4.75	0.00	1.75	2.25	2.50	5.25	5.00	1.00	0.75	-0.214355	0.094238	0.937012	4.130000	28.770000	-6.930000	359.00	0.06	-0.20	0.00	0.00	0.00	0.00	0.00	0.00	0.00	0.00	0.00	0.50	0.25	0.00	0.00	0.00	0.00	0.00	-0.627441	0.554688	1.233887	1.330000	-492.519989	-30.520000	8.00	0.00	0.00
1.19	0.75	0.75	0.50	2.00	1.25	4.50	0.00	4.50	0.50	2.50	2.75	3.25	5.75	5.50	1.25	0.75	-0.225098	0.094238	0.925781	3.430000	32.200001	-8.050000	383.00	0.08	-0.19	0.00	0.00	0.00	0.00	0.00	0.00	0.00	0.00	0.00	0.25	0.25	0.00	0.00	0.00	0.00	0.00	-0.685059	0.678711	1.666016	37.380001	-468.019989	-6.160000	5.00	0.00	0.00
1.20	0.50	0.50	0.25	1.75	1.00	4.00	0.00	4.50	0.75	3.25	3.50	3.75	6.50	6.75	1.25	1.25	-0.236328	0.088379	0.925293	3.430000	35.630001	-10.850000	408.00	0.12	-0.18	0.00	0.00	0.00	0.00	0.00	0.00	0.00	0.00	0.00	0.50	0.25	0.00	0.00	0.00	0.00	0.00	-0.701172	0.699707	1.974121	55.230000	-464.309998	9.800000	8.00	0.00	0.00
1.21	0.75	0.25	0.00	1.75	0.75	3.25	0.00	4.50	1.25	4.00	5.25	5.25	7.00	8.25	1.50	1.50	-0.245117	0.086914	0.934082	3.920000	38.849998	-13.580000	465.00	0.15	-0.16	0.00	0.00	0.50	0.00	0.00	0.00	0.00	0.00	0.00	0.50	0.25	0.00	0.00	0.00	0.00	0.00	-0.737305	0.712402	2.421875	76.019997	-467.880005	25.129999	13.00	0.00	0.00
1.22	0.75	0.25	0.00	1.50	0.75	3.00	0.00	4.25	2.25	6.25	7.00	6.50	7.50	9.50	2.00	1.75	-0.248047	0.072266	0.945312	4.270000	44.660000	-14.490000	545.00	0.17	-0.14	0.00	0.00	0.00	0.00	0.00	0.00	0.00	0.00	0.00	0.25	0.00	0.00	0.00	0.00	0.00	0.00	-0.812012	0.664062	2.869629	102.059998	-479.709991	38.990002	3.00	0.00	0.00
1.23	0.25	0.25	0.00	1.75	0.25	2.25	0.00	4.00	3.00	8.00	8.25	7.75	7.75	10.75	2.50	2.25	-0.284180	0.093750	0.943359	9.520000	52.570000	-15.190001	600.00	0.20	-0.12	0.00	0.00	0.00	0.00	0.00	0.00	0.00	0.00	0.00	0.00	0.00	0.00	0.00	0.00	0.00	0.00	-1.253906	0.697754	3.301758	127.400002	-496.440002	46.619999	0.00	0.00	0.00
1.24	0.75	0.00	0.00	1.25	0.25	2.00	0.00	4.00	4.00	8.75	9.25	8.25	8.50	12.25	3.00	3.00	-0.327148	0.080078	0.977051	16.309999	59.570000	-15.190001	660.00	0.21	-0.11	0.00	0.25	0.00	0.00	0.00	0.00	0.00	0.00	0.00	0.00	0.00	0.00	0.00	0.00	0.00	0.00	-1.873535	0.736816	3.283691	145.949997	-514.989990	51.310001	2.00	0.00	0.00
1.25	0.50	0.00	0.00	1.25	0.00	1.50	0.00	3.50	5.00	9.50	10.25	9.25	9.00	13.75	4.25	4.25	-0.308594	0.057617	0.975586	27.020000	68.599998	-14.070000	721.00	0.23	-0.10	0.00	0.00	0.00	0.00	0.00	0.00	0.00	0.00	0.00	0.00	0.00	0.00	0.00	0.00	0.00	0.00	-2.372559	0.716309	2.864258	167.440002	-524.299988	59.080002	0.00	0.00	0.00
1.26	0.25	0.00	0.00	1.00	0.00	0.75	0.00	3.25	5.50	10.50	11.25	10.00	9.50	15.00	5.00	5.00	-0.346680	0.126465	0.984375	39.970001	87.220001	-13.160000	766.00	0.24	-0.09	0.00	0.00	0.00	0.00	0.00	0.00	0.00	0.00	0.00	0.00	0.00	0.00	0.00	0.00	0.00	0.00	-3.049316	0.480957	2.714844	194.529999	-509.950012	80.849998	0.00	0.00	0.00
1.27	0.25	0.00	0.00	1.25	0.00	0.75	0.00	2.75	6.50	11.00	12.50	11.00	10.00	16.50	6.00	5.50	-0.350586	0.147949	0.965332	52.220001	111.650002	-14.280000	833.00	0.25	-0.08	0.00	0.00	0.00	0.00	0.00	0.00	0.00	0.00	0.00	0.00	0.00	0.00	0.00	0.00	0.00	0.00	-3.666504	0.325195	2.567383	193.899994	-479.220001	106.610001	0.00	0.00	0.00
1.28	0.25	0.00	0.00	1.00	0.00	0.25	0.00	2.50	7.25	11.75	13.25	11.75	10.50	17.75	6.50	6.00	-0.395508	0.142578	0.984375	42.279999	143.360001	-16.379999	877.00	0.25	-0.08	0.00	0.00	0.00	0.00	0.00	0.00	0.00	0.00	0.00	0.00	0.00	0.00	0.00	0.00	0.00	0.00	-4.392578	0.153320	2.317871	180.250000	-440.790009	134.259995	0.00	0.00	0.00
1.29	0.00	0.00	0.00	0.75	0.00	0.25	0.00	2.00	7.75	12.50	14.00	12.75	10.75	19.25	7.25	6.50	-0.395996	0.142578	1.109375	42.279999	143.360001	-16.379999	923.00	0.26	-0.07	0.00	0.00	0.00	0.00	0.00	0.00	0.00	0.00	0.00	0.00	0.00	0.00	0.00	0.00	0.00	0.00	-4.683105	-0.760254	0.447754	129.779999	-366.239990	161.630005	0.00	0.00	0.00
1.30	0.00	0.00	0.00	1.00	0.00	0.00	0.00	1.75	8.00	12.75	14.75	13.00	10.50	20.50	7.75	7.00	-0.415039	0.135742	1.155273	16.100000	187.669998	-20.090000	952.00	0.27	-0.07	0.00	0.00	0.00	0.00	0.00	0.00	0.00	0.00	0.00	0.25	0.00	0.00	0.00	0.00	0.00	0.00	-4.911621	-0.005371	1.891602	119.139999	-306.250000	185.149994	3.00	0.00	0.00
1.31	0.00	0.00	0.00	0.50	0.00	0.00	0.00	1.75	8.50	13.50	15.25	13.25	10.25	21.50	8.25	7.50	-0.466309	0.174805	1.109863	5.880000	224.419998	-24.780001	983.00	0.27	-0.06	0.00	0.00	0.00	0.00	0.00	0.00	0.00	0.00	0.00	0.00	0.25	0.00	0.00	0.00	0.00	0.00	-5.947266	-0.644531	1.030762	175.000000	-279.720001	201.250000	3.00	0.00	0.00
1.32	0.25	0.00	0.00	0.50	0.00	0.00	0.00	1.50	8.75	13.75	15.50	13.25	9.50	22.50	8.75	7.50	-0.544434	0.203613	1.095703	7.700000	264.739990	-30.309999	997.00	0.27	-0.05	0.00	0.00	0.00	0.00	0.00	0.00	0.00	0.00	0.00	0.00	0.00	0.00	0.00	0.00	0.00	0.00	-6.151367	-1.136230	-0.771484	155.050003	-222.180008	195.369995	0.00	0.00	0.00
1.33	0.00	0.00	0.00	0.25	0.00	0.00	0.00	1.25	9.00	14.25	15.75	13.25	9.00	23.00	9.00	8.00	-0.596680	0.212891	1.184082	11.620000	305.690002	-36.189999	1005.00	0.28	-0.05	0.00	0.00	0.00	0.00	0.00	0.00	0.00	0.00	0.00	0.00	0.00	0.00	0.00	0.00	0.00	0.00	-6.566406	-0.977539	-1.006348	72.029999	-121.309998	170.589996	0.00	0.00	0.00
1.34	0.00	0.00	0.00	0.25	0.00	0.00	0.00	1.25	9.25	14.25	15.75	13.00	8.25	23.25	9.00	8.25	-0.617676	0.206055	1.181641	16.730000	347.619995	-42.209999	1002.00	0.28	-0.04	0.00	0.00	0.25	0.25	0.00	0.00	0.00	0.00	0.00	0.00	0.00	0.00	0.00	0.00	0.00	0.00	-7.253906	-0.999512	-1.291992	15.400000	54.389999	142.449997	6.00	0.00	0.00
1.35	0.00	0.00	0.00	0.00	0.00	0.00	0.00	1.00	9.00	14.25	15.75	12.50	7.50	23.00	8.75	8.00	-0.708008	0.246094	1.313965	18.760000	392.980011	-48.720001	975.00	0.28	-0.04	1.50	1.50	1.00	1.50	0.00	0.00	0.00	0.00	0.00	0.00	0.00	0.00	0.00	0.00	0.00	0.00	-8.337891	-1.180176	-1.872559	-14.980000	199.149994	109.199997	57.00	-0.35	-0.06
1.36	0.00	0.00	0.00	0.00	0.00	0.00	0.00	0.75	8.50	13.75	15.50	12.00	7.00	22.00	8.75	8.00	-0.753906	0.213867	1.351074	26.809999	451.149994	-53.200001	938.00	0.28	-0.04	7.25	7.50	1.75	3.00	0.00	0.00	0.00	0.00	0.00	0.00	0.00	0.00	0.00	0.00	0.00	0.00	-1.386719	-1.620117	-0.164062	-68.669998	315.980011	38.849998	197.00	-0.37	-0.05
1.37	0.00	0.00	0.00	0.00	0.00	0.00	0.00	0.75	7.00	12.25	14.75	11.00	6.25	21.00	8.25	7.50	-1.006348	0.174805	1.758789	41.580002	511.910004	-46.549999	862.00	0.29	-0.04	15.50	15.00	2.75	6.00	0.00	0.00	0.00	0.00	0.00	0.00	0.00	0.00	0.00	0.00	0.00	0.00	1.124023	0.248047	4.905762	-166.809998	336.489990	-40.670002	395.00	-0.38	-0.04
1.38	0.00	0.00	0.00	0.00	0.00	0.00	0.00	0.50	4.00	10.00	12.50	9.50	5.50	19.25	7.50	6.75	-1.501953	0.132324	2.460938	72.730003	571.200012	-30.030001	722.00	0.29	-0.05	21.00	19.25	4.50	8.00	0.00	0.00	0.00	0.00	0.00	0.00	0.00	0.00	0.00	0.00	0.00	0.00	0.143066	-0.240723	1.421875	-152.529999	269.079987	-56.070000	532.00	-0.38	-0.04
1.39	0.00	0.00	0.00	0.00	0.00	0.00	0.00	0.25	2.25	8.00	9.50	7.25	4.50	17.00	6.25	5.25	-2.289551	0.575195	2.701660	95.690002	614.530029	-7.840000	571.00	0.30	-0.05	23.75	21.00	6.50	9.50	0.00	1.25	0.00	0.00	0.00	0.00	0.00	0.00	0.00	0.00	0.00	0.00	-1.017578	0.490234	5.103516	-17.990000	423.920013	-63.420002	629.00	-0.37	-0.04
1.40	0.00	0.00	0.00	0.00	0.00	0.00	0.00	0.00	1.50	5.75	6.25	5.00	3.00	13.50	5.00	3.25	-3.217773	1.185059	2.902344	155.330002	659.960022	23.379999	409.00	0.31	-0.04	25.25	21.75	8.50	11.00	0.50	3.50	0.00	0.00	0.00	0.00	0.00	0.00	0.00	0.00	0.00	0.00	-1.264160	0.365723	2.800781	26.040001	298.619995	-46.340000	721.00	-0.35	-0.05
1.41	0.00	0.00	0.00	0.00	0.00	0.00	0.00	0.00	1.50	3.75	4.00	3.50	2.50	10.25	3.50	1.75	-2.413574	0.698730	5.997559	259.839996	643.020020	40.810001	293.00	0.31	-0.03	25.50	21.50	9.50	12.00	1.00	6.75	0.00	1.00	0.00	0.00	0.00	0.00	0.00	0.00	0.00	0.00	-0.895508	1.040039	3.826660	-35.420002	234.570007	-33.950001	799.00	-0.33	-0.06
1.42	0.00	0.00	0.00	0.00	0.00	0.00	0.00	0.00	0.50	3.50	3.00	2.75	1.75	7.75	2.00	0.50	-1.568359	0.287598	3.652832	275.029999	603.330017	7.980000	208.00	0.30	-0.03	25.50	21.25	10.00	12.75	1.75	7.50	0.25	1.75	0.00	0.00	0.25	0.25	0.25	0.00	0.00	0.00	-0.493164	0.054199	1.724609	-70.910004	157.990005	-9.870000	850.00	-0.32	-0.07
1.43	0.00	0.00	0.00	0.00	0.00	0.00	0.00	0.00	0.75	2.75	2.50	2.50	1.25	5.00	0.75	0.00	0.260742	0.064453	4.657715	297.570007	560.349976	-21.420000	152.00	0.29	-0.03	24.75	20.25	10.50	12.75	2.25	8.25	0.25	2.75	0.00	0.00	0.25	0.25	0.50	0.00	0.00	0.00	-0.147461	-0.117188	1.536621	-79.239998	112.629997	-8.120000	869.00	-0.31	-0.08
1.44	0.00	0.00	0.00	0.00	0.00	0.00	0.00	0.00	0.00	1.25	1.25	1.00	0.25	2.50	0.50	0.25	0.292969	0.423340	3.743164	345.589996	509.600006	-82.040001	67.00	0.30	-0.03	25.00	20.25	11.00	13.25	2.75	8.75	0.25	3.25	0.00	0.25	0.25	0.25	0.50	0.00	0.00	0.00	-0.305176	0.297852	1.351074	-79.800003	56.000000	-9.940000	904.00	-0.30	-0.08
1.45	0.00	0.00	0.00	0.00	0.00	0.00	0.00	0.00	0.00	1.00	1.00	1.00	0.25	0.75	0.25	0.00	0.416992	-0.848633	5.018066	387.519989	398.160004	-185.990005	43.00	0.00	0.00	24.75	20.25	11.25	13.00	4.00	9.00	0.25	3.50	0.00	0.25	0.50	0.00	1.00	0.00	0.00	0.00	-0.185547	0.190918	1.024414	-69.370003	22.190001	-4.480000	926.00	-0.29	-0.08
1.46	0.00	0.00	0.00	0.00	0.00	0.00	0.00	0.00	0.00	1.00	1.00	0.75	0.00	1.00	0.25	0.00	0.070801	1.430664	10.837891	263.130005	280.070007	-247.940002	40.00	0.00	0.00	24.50	19.50	11.00	13.00	4.50	9.25	0.25	3.75	0.00	0.00	0.25	0.25	1.50	0.00	0.00	0.00	-0.152344	0.066895	1.109863	-53.130001	9.310000	-5.600000	928.00	-0.29	-0.08
1.47	0.00	0.00	0.00	0.25	0.00	0.00	0.00	0.00	0.00	1.00	0.75	0.75	0.00	1.00	0.00	0.00	1.784668	-0.377930	5.200684	139.089996	-13.300000	-232.680008	37.00	0.00	0.00	24.00	19.00	11.00	13.00	5.00	9.25	0.25	4.00	0.00	0.25	0.00	0.25	1.50	0.00	0.00	0.00	-0.196289	0.158203	1.024902	-29.049999	-1.330000	-5.810000	927.00	-0.29	-0.08
1.48	0.00	0.00	0.00	0.00	0.00	0.00	0.00	0.00	0.00	1.00	0.75	0.50	0.00	0.75	0.25	0.00	0.847168	0.461914	3.697754	-10.780000	-215.040009	-201.389999	33.00	0.00	0.00	23.25	18.00	10.75	12.50	5.00	9.00	0.25	3.75	0.00	0.50	0.50	0.25	1.50	0.00	0.00	0.00	-0.128418	0.167480	0.997070	-20.930000	0.840000	-4.480000	903.00	-0.28	-0.08
1.49	0.00	0.00	0.00	0.00	0.00	0.00	0.00	0.00	0.00	1.00	1.00	0.50	0.00	0.50	0.00	0.00	1.118652	0.710449	1.814941	-166.039993	-300.369995	-148.680008	30.00	0.00	0.00	22.25	17.25	10.50	12.00	5.25	9.00	0.25	3.75	0.00	0.00	0.25	0.25	1.75	0.25	0.00	0.00	-0.161133	0.123535	1.015625	-17.150000	6.370000	-4.620000	877.00	-0.28	-0.08
1.50	0.00	0.00	0.00	0.00	0.00	0.00	0.00	0.00	0.00	0.50	0.75	0.25	0.00	0.50	0.00	0.00	1.118652	0.710449	1.814941	-166.039993	-300.369995	-148.680008	20.00	0.00	0.00	21.25	16.00	10.00	11.50	5.00	8.75	0.25	3.75	0.00	0.50	0.25	0.25	1.25	0.00	0.00	0.00	-0.147461	0.130859	0.981445	-10.850000	9.660000	-4.620000	837.00	-0.28	-0.08
1.51	0.00	0.00	0.00	0.25	0.00	0.00	0.00	0.00	0.00	0.75	0.25	0.00	0.00	0.50	0.00	0.00	0.924316	0.953613	1.857910	-140.910004	-350.559998	-108.570000	17.00	0.00	0.00	19.50	14.50	9.50	10.75	5.00	8.25	0.25	3.50	0.00	0.25	0.25	0.25	1.25	0.00	0.00	0.00	-0.136230	0.135254	0.968750	-7.840000	13.860000	-3.780000	780.00	-0.28	-0.08
1.52	0.00	0.00	0.00	0.00	0.00	0.00	0.00	0.00	0.00	0.50	0.50	0.25	0.00	0.25	0.00	0.00	0.755859	0.846191	1.720703	-106.680000	-395.429993	-87.849998	15.00	0.00	0.00	17.75	13.25	8.75	10.25	4.50	8.00	0.25	3.25	0.00	0.25	0.25	0.25	1.75	0.00	0.00	0.00	-0.151367	0.123535	0.976074	-7.280000	17.780001	-3.010000	728.00	-0.27	-0.09
1.53	0.00	0.00	0.00	0.00	0.00	0.25	0.00	0.00	0.00	0.25	0.50	0.25	0.00	0.25	0.00	0.00	0.472656	0.757324	1.508789	-83.790001	-433.089996	-65.449997	15.00	0.00	0.00	15.25	11.75	8.25	9.50	4.00	7.75	0.25	3.00	0.00	0.75	0.50	0.50	2.00	0.00	0.00	0.00	-0.144043	0.129395	0.966797	-6.650000	20.299999	-2.240000	676.00	-0.26	-0.09
1.54	0.00	0.00	0.00	0.00	0.00	0.00	0.00	0.00	0.00	0.50	0.25	0.00	0.00	0.00	0.00	0.00	0.280762	0.708984	1.286621	-73.500000	-453.670013	-41.230000	8.00	0.00	0.00	13.00	10.00	7.75	8.75	3.50	7.25	0.25	3.00	0.00	0.75	0.50	0.50	1.75	0.00	0.00	0.00	-0.135742	0.127441	0.956055	-6.510000	21.490000	-1.470000	609.00	-0.25	-0.10
1.55	0.00	0.00	0.00	0.00	0.00	0.00	0.00	0.00	0.00	0.50	0.25	0.00	0.00	0.25	0.00	0.00	0.101074	0.707031	1.109375	-68.389999	-459.130005	-18.830000	10.00	0.00	0.00	11.00	8.50	7.00	8.25	3.50	6.75	0.25	2.75	0.00	0.75	0.75	0.25	2.00	0.00	0.25	0.00	-0.117188	0.119629	0.937012	-8.190000	21.980000	-1.330000	556.00	-0.24	-0.10
1.56	0.00	0.00	0.00	0.00	0.00	0.00	0.00	0.00	0.00	0.25	0.00	0.00	0.00	0.00	0.00	0.00	-0.060547	0.737305	1.061035	-58.590000	-453.529999	0.840000	3.00	0.00	0.00	8.75	7.00	6.25	7.50	3.25	6.50	0.25	2.75	0.00	0.75	0.50	0.75	2.00	0.25	0.25	0.00	-0.113770	0.130371	0.932129	-14.350000	22.820000	-2.240000	502.00	-0.22	-0.11
1.57	0.00	0.00	0.00	0.00	0.00	0.00	0.00	0.00	0.00	0.25	0.00	0.00	0.00	0.00	0.00	0.00	-0.197754	0.727539	1.163574	-37.799999	-444.640015	20.160000	3.00	0.00	0.00	6.75	6.00	5.25	6.75	3.00	6.25	0.25	2.75	0.00	1.00	1.00	0.75	2.25	0.25	0.00	0.00	-0.109375	0.155762	0.938477	-21.980000	23.799999	-4.270000	455.00	-0.20	-0.12
1.58	0.00	0.00	0.00	0.00	0.00	0.00	0.00	0.00	0.00	0.25	0.00	0.00	0.00	0.00	0.00	0.00	-0.334473	0.664062	1.363770	-13.300000	-438.619995	39.410000	3.00	0.00	0.00	5.25	4.25	5.00	6.00	3.00	5.50	0.25	2.75	0.25	1.50	1.00	0.75	2.75	0.25	0.25	0.00	-0.207520	0.102051	0.994141	-25.480000	19.670000	-8.470000	419.00	-0.17	-0.13
1.59	0.00	0.00	0.00	0.00	0.00	0.00	0.00	0.00	0.00	0.00	0.00	0.00	0.00	0.25	0.00	0.00	-0.424316	0.544922	1.540039	0.140000	-437.920013	57.750000	2.00	0.00	0.00	3.75	3.25	3.75	5.25	2.75	5.50	0.25	2.50	0.00	1.75	1.50	1.00	3.00	0.75	0.50	0.25	-0.192871	0.098145	0.976074	-18.900000	15.330000	-10.080000	383.00	-0.13	-0.14
1.60	0.00	0.00	0.00	0.00	0.00	0.00	0.00	0.00	0.00	0.00	0.00	0.00	0.00	0.00	0.00	0.00	-0.522461	0.491699	1.723633	0.630000	-441.070007	73.290001	0.00	0.00	0.00	3.00	1.75	3.00	4.75	3.00	5.00	0.25	2.75	0.25	2.00	1.50	1.25	3.50	0.75	0.50	0.25	-0.178223	0.083984	0.960449	-14.560000	14.700000	-11.760000	362.00	-0.09	-0.15
1.61	0.00	0.00	0.00	0.00	0.00	0.00	0.00	0.00	0.00	0.00	0.00	0.00	0.00	0.00	0.00	0.00	-0.610352	0.465820	1.890625	-2.520000	-447.160004	84.000000	0.00	0.00	0.00	2.25	1.50	3.00	4.25	2.75	5.00	0.25	2.50	0.50	2.50	1.75	1.50	3.75	1.00	0.75	0.50	-0.221680	0.082031	0.992188	-9.520000	15.820000	-13.580000	362.00	-0.06	-0.15
1.62	0.00	0.00	0.00	0.00	0.00	0.00	0.00	0.00	0.00	0.00	0.00	0.00	0.00	0.00	0.00	0.00	-0.702148	0.466797	2.054688	-1.120000	-452.200012	89.669998	0.00	0.00	0.00	1.75	1.00	2.50	3.50	2.75	4.75	0.25	3.00	1.00	2.75	2.00	2.00	4.75	1.75	0.50	0.75	-0.213379	0.105957	0.931641	-3.010000	15.750000	-14.140000	374.00	-0.01	-0.15
1.63	0.00	0.00	0.00	0.00	0.00	0.00	0.00	0.00	0.00	0.00	0.00	0.00	0.00	0.00	0.00	0.00	-0.789551	0.464844	2.306641	6.440000	-456.260010	91.840004	0.00	0.00	0.00	1.50	0.75	2.00	2.75	2.75	4.75	0.25	3.00	1.25	3.25	2.50	2.50	5.50	2.50	1.00	0.75	-0.210449	0.093262	0.950195	1.260000	16.030001	-13.720000	392.00	0.03	-0.15
1.64	0.00	0.25	0.00	0.00	0.00	0.00	0.00	0.00	0.00	0.00	0.00	0.00	0.00	0.00	0.00	0.00	-0.935547	0.520996	2.637695	14.490000	-458.709991	92.540001	2.00	0.00	0.00	1.50	0.75	2.00	2.50	2.50	4.00	0.25	3.25	1.25	4.00	3.00	3.50	6.50	3.25	1.00	1.00	-0.184570	0.108887	0.936035	3.710000	17.080000	-13.790000	423.00	0.05	-0.15
1.65	0.00	0.00	0.00	0.00	0.00	0.00	0.00	0.00	0.00	0.00	0.00	0.00	0.00	0.00	0.00	0.00	-1.196289	0.652344	2.921387	15.610000	-459.619995	98.489998	0.00	0.00	0.00	1.25	0.25	1.75	2.25	2.50	4.50	0.25	4.00	1.75	6.00	4.25	4.50	7.75	4.00	1.25	1.50	-0.195801	0.099609	0.977539	4.900000	19.670000	-13.860000	500.00	0.09	-0.15
1.66	0.00	0.00	0.00	0.00	0.00	0.00	0.00	0.00	0.00	0.00	0.00	0.00	0.00	0.00	0.00	0.00	-1.841309	0.785156	3.133789	10.430000	-465.779999	112.629997	0.00	0.00	0.00	1.00	0.00	1.50	2.00	2.50	4.25	0.00	4.50	2.75	7.75	7.00	6.75	8.50	5.75	1.75	2.00	-0.224121	0.100586	0.979492	7.280000	23.240000	-12.880000	604.00	0.13	-0.14
1.67	0.00	0.00	0.00	0.00	0.00	0.00	0.00	0.00	0.00	0.00	0.00	0.00	0.00	0.00	0.00	0.00	-2.305664	0.877441	2.976074	9.940000	-481.110016	123.480003	0.00	0.00	0.00	1.00	0.75	0.75	1.75	2.25	4.25	0.25	5.00	3.00	8.50	8.00	8.00	9.50	6.75	2.00	2.75	-0.219238	0.109863	0.989258	10.780000	28.490000	-11.760000	667.00	0.14	-0.14
1.68	0.00	0.00	0.00	0.00	0.00	0.00	0.00	0.00	0.00	0.00	0.00	0.00	0.00	0.25	0.00	0.00	-2.957520	0.774414	2.858887	37.029999	-484.890015	145.110001	2.00	0.00	0.00	0.75	0.50	0.75	1.50	1.75	4.00	0.00	5.25	4.25	9.50	9.00	9.00	10.00	8.50	2.75	3.50	-0.208984	0.130371	0.994141	15.260000	36.049999	-12.390000	731.00	0.16	-0.13
1.69	0.00	0.00	0.00	0.00	0.00	0.00	0.00	0.00	0.00	0.00	0.00	0.00	0.00	0.00	0.00	0.00	-3.640625	0.723633	2.471680	55.580002	-470.399994	164.149994	0.00	0.00	0.00	0.50	0.75	0.25	1.50	1.50	3.50	0.00	5.50	4.75	10.25	10.00	10.00	10.75	10.25	3.25	5.00	-0.265137	0.147949	1.042969	20.930000	44.660000	-14.140000	791.00	0.18	-0.13
1.70	0.00	0.00	0.00	0.00	0.00	0.00	0.00	0.00	0.00	0.00	0.00	0.00	0.00	0.00	0.00	0.00	-4.196289	0.625488	2.084961	65.169998	-436.660004	178.149994	0.00	0.00	0.00	0.75	0.00	0.50	1.25	1.00	3.25	0.00	5.50	5.75	11.25	11.00	11.00	11.50	12.25	4.75	6.25	-0.251465	0.107422	1.000488	25.480000	56.700001	-14.700000	869.00	0.20	-0.12
1.71	0.00	0.00	0.00	0.00	0.00	0.00	0.00	0.00	0.00	0.00	0.00	0.00	0.00	0.00	0.00	0.00	-5.034180	0.342773	1.411133	77.279999	-327.390015	174.160004	0.00	0.00	0.00	0.50	0.00	0.25	1.25	0.75	3.00	0.00	5.00	6.25	12.00	12.00	11.75	12.00	14.50	6.00	7.00	-0.271484	0.143555	1.069336	31.780001	71.260002	-17.290001	924.00	0.22	-0.11
1.72	0.00	0.00	0.00	0.00	0.00	0.00	0.00	0.00	0.00	0.00	0.00	0.00	0.00	0.00	0.00	0.00	-5.356934	0.183594	1.090332	49.630001	-281.049988	145.460007	0.00	0.00	0.00	0.00	0.25	0.25	1.00	0.25	2.50	0.00	5.00	7.00	13.00	12.75	12.25	12.25	17.00	6.75	7.75	-0.288574	0.168457	1.068359	41.930000	90.019997	-21.559999	976.00	0.23	-0.10
1.73	0.00	0.00	0.00	0.00	0.00	0.00	0.00	0.00	0.00	0.00	0.00	0.00	0.00	0.00	0.00	0.00	-5.751465	0.348633	0.005371	7.210000	-244.720001	101.639999	0.00	0.00	0.00	0.50	0.00	0.25	0.75	0.25	1.75	0.00	4.25	7.50	13.50	13.25	13.00	12.50	19.00	7.50	8.50	-0.324219	0.199219	1.110840	54.670002	118.160004	-23.870001	1013.00	0.24	-0.09
1.74	0.00	0.00	0.00	0.00	0.00	0.00	0.00	0.00	0.00	0.00	0.00	0.00	0.00	0.00	0.00	0.00	-5.805176	0.727051	-1.304688	-10.570000	-185.080002	56.560001	0.00	0.00	0.00	0.25	0.00	0.00	0.75	0.00	1.25	0.00	3.75	7.75	14.25	13.75	13.50	12.25	20.75	8.25	9.00	-0.342773	0.222168	1.129883	64.680000	159.389999	-28.000000	1036.00	0.25	-0.09
1.75	0.00	0.00	0.00	0.00	0.00	0.00	0.00	0.00	0.00	0.00	0.00	0.00	0.00	0.00	0.00	0.00	-5.868652	1.081055	-1.540039	18.900000	-91.139999	30.170000	0.00	0.00	0.00	0.50	0.00	0.25	1.25	0.00	1.00	0.00	3.00	8.00	14.50	14.25	13.50	11.75	22.50	8.75	9.50	-0.383301	0.111328	1.242188	56.980000	210.490005	-34.790001	1063.00	0.25	-0.08
1.76	0.00	0.00	0.00	0.00	0.00	0.00	0.00	0.00	0.00	0.00	0.00	0.00	0.00	0.00	0.00	0.00	-5.945801	0.911621	-0.978027	83.510002	-6.790000	25.270000	0.00	0.00	0.00	0.00	0.00	0.00	0.50	0.00	0.00	0.00	2.50	8.25	15.00	14.50	13.25	11.00	23.75	8.75	9.75	-0.460938	0.234375	1.202148	-14.700000	301.489990	-49.279999	1042.00	0.27	-0.07
1.77	0.00	0.00	0.00	0.00	0.00	0.00	0.00	0.00	0.00	0.00	0.00	0.00	0.00	0.00	0.00	0.00	-5.677734	0.555664	-0.653809	118.160004	45.080002	24.080000	0.00	0.00	0.00	0.00	0.00	0.00	0.75	0.00	0.00	0.00	2.00	8.50	15.25	14.25	13.00	10.00	24.75	9.50	9.75	-0.460938	0.234375	1.202148	-14.700000	301.489990	-49.279999	1045.00	0.28	-0.06
1.78	0.00	0.00	0.00	0.25	0.00	0.00	0.00	0.00	0.00	0.00	0.00	0.00	0.00	0.00	0.00	0.00	-8.396973	-1.692383	-2.645996	88.690002	70.419998	76.650002	3.00	0.00	0.00	0.25	0.00	0.00	0.25	0.00	0.00	0.00	1.50	8.75	15.50	14.25	12.50	8.75	25.00	9.25	9.75	-0.489258	0.248047	1.165527	-21.350000	347.549988	-56.000000	1024.00	0.28	-0.04
1.79	1.75	1.00	0.75	1.00	0.00	0.00	0.00	0.00	0.00	0.00	0.00	0.00	0.00	0.00	0.00	0.00	-0.109863	-0.811035	0.356445	65.309998	273.070007	120.889999	47.00	0.00	0.00	0.00	0.00	0.00	0.25	0.00	0.00	0.00	0.75	8.75	16.00	13.75	11.50	7.75	24.75	9.25	9.75	-0.542480	0.207031	1.304199	-39.830002	426.019989	-71.680000	989.00	0.29	-0.03
1.80	7.50	5.75	1.25	3.00	0.00	0.00	0.00	0.00	0.00	0.00	0.00	0.00	0.00	0.00	0.00	0.00	2.215332	-0.581055	3.018066	-56.980000	311.220001	81.620003	177.00	-0.38	-0.04	0.25	0.00	0.00	0.00	0.00	0.00	0.00	0.75	8.50	15.75	13.75	10.75	6.50	23.75	8.75	9.75	-0.692383	0.363281	1.435059	-58.939999	479.989990	-83.440002	950.00	0.29	-0.03
1.81	19.00	17.25	3.25	4.75	0.00	0.00	0.00	0.00	0.00	0.00	0.00	0.00	0.00	0.00	0.00	0.00	-0.175293	-0.617676	-1.004395	-29.330000	281.470001	51.170002	444.00	-0.38	-0.03	0.00	0.00	0.00	0.00	0.00	0.00	0.00	0.50	8.00	15.00	13.00	9.75	5.25	22.50	8.25	9.50	-0.975098	0.476074	1.789062	-66.570000	540.609985	-96.459999	883.00	0.29	-0.02
1.82	26.00	25.25	6.00	7.75	0.00	0.00	0.00	0.00	0.00	0.00	0.00	0.00	0.00	0.00	0.00	0.00	-1.832031	-2.820801	1.271484	83.300003	410.130005	14.840000	653.00	-0.38	-0.03	0.00	0.00	0.00	0.00	0.00	0.00	0.00	0.00	6.50	13.50	11.75	8.50	3.75	20.25	7.25	9.00	-1.477051	0.450195	2.123047	-38.639999	597.590027	-99.610001	768.00	0.30	-0.02
1.83	31.25	31.50	7.75	10.75	0.25	1.00	0.00	0.00	0.00	0.00	0.00	0.00	0.00	0.00	0.00	0.00	-1.805664	0.029297	5.134766	190.610001	437.850006	-46.480000	831.00	-0.37	-0.04	0.00	0.00	0.00	0.00	0.00	0.00	0.00	0.00	4.75	10.75	9.75	6.75	2.25	18.00	6.00	7.00	-2.612793	1.279785	2.568359	18.549999	644.070007	-89.879997	621.00	0.30	-0.01
1.84	32.50	33.75	9.50	14.50	1.00	4.00	0.00	0.25	0.00	0.00	0.00	0.25	0.00	0.00	0.00	0.00	-1.436523	0.938965	3.806641	224.070007	297.989990	-72.800003	973.00	-0.36	-0.06	0.00	0.00	0.00	0.00	0.00	0.00	0.00	0.00	2.75	8.50	7.25	4.25	1.25	15.00	4.50	5.00	-2.983398	0.901367	4.061035	109.340004	667.099976	-75.669998	458.00	0.31	-0.00
1.85	32.25	33.50	10.50	16.25	1.50	7.25	0.00	1.25	0.00	0.00	0.00	0.50	0.25	0.00	0.00	0.00	-0.864746	2.662598	2.484863	110.389999	162.610001	-44.939999	1059.00	-0.34	-0.07	0.00	0.00	0.00	0.00	0.00	0.00	0.00	0.00	1.75	6.75	4.75	3.00	0.75	10.75	3.00	2.00	-2.583008	0.508789	5.646484	185.430008	661.289978	-65.730003	315.00	0.31	0.01
1.86	30.75	31.75	10.50	16.25	1.50	7.50	0.00	1.75	0.00	0.00	0.00	0.25	0.75	0.00	0.00	0.00	-0.448730	0.286133	1.705566	-4.340000	106.330002	-2.450000	1040.00	-0.33	-0.08	0.00	0.00	0.00	0.00	0.00	0.00	0.00	0.00	1.25	5.50	3.50	2.25	0.75	7.50	2.00	1.00	-1.574219	-0.019531	4.591309	228.759995	639.169983	-81.970001	231.00	0.30	0.01
1.87	28.50	30.25	10.25	16.25	1.75	8.75	0.00	2.25	0.00	0.00	0.00	0.25	0.75	0.00	0.00	0.00	-0.102539	-0.325684	1.125000	-31.010000	96.389999	-9.380000	1024.00	-0.32	-0.08	0.00	0.00	0.00	0.00	0.00	0.00	0.00	0.00	0.75	4.25	3.00	2.00	0.25	4.00	0.75	0.00	-0.489746	-0.333008	4.789062	177.660004	601.859985	-119.139999	151.00	0.28	0.00
1.88	27.75	29.50	10.50	17.00	2.00	9.25	0.00	2.75	0.00	0.00	0.00	0.50	1.25	0.25	0.00	0.00	-0.414062	0.303711	1.181152	-29.469999	52.430000	-9.800000	1045.00	-0.31	-0.09	0.00	0.00	0.00	0.00	0.00	0.00	0.00	0.00	0.75	2.50	1.75	0.75	0.50	1.00	0.25	0.00	0.244629	0.490234	2.873535	84.769997	559.929993	-179.059998	78.00	0.26	-0.01
1.89	27.25	28.75	10.00	17.00	2.25	9.75	0.00	3.50	0.00	0.00	0.00	0.25	1.50	0.25	0.00	0.00	-0.165039	0.257324	0.825684	-39.549999	39.970001	-1.960000	1047.00	-0.31	-0.10	0.00	0.00	0.00	0.00	0.00	0.00	0.00	0.00	0.50	2.00	1.25	0.50	0.00	1.00	0.00	0.00	0.294922	0.535645	5.246582	46.970001	482.440002	-225.889999	54.00	0.26	0.03
1.90	26.50	28.25	10.25	16.75	2.50	9.75	0.00	4.00	0.00	0.00	0.00	0.50	1.75	0.50	0.00	0.00	-0.200195	0.096680	1.104004	-58.869999	46.060001	-4.410000	1052.00	-0.30	-0.10	0.00	0.00	0.00	0.00	0.00	0.00	0.00	0.00	0.75	2.00	1.50	0.25	0.00	0.50	0.00	0.00	-0.566406	3.519531	10.170898	70.699997	385.209991	-208.460007	53.00	0.25	0.04
1.91	25.25	26.75	10.25	16.25	2.75	10.00	0.00	4.25	0.00	0.00	0.00	0.25	1.75	0.50	0.00	0.00	-0.198242	0.153320	1.083496	-54.950001	35.000000	-7.280000	1026.00	-0.30	-0.10	0.00	0.00	0.00	0.00	0.00	0.00	0.00	0.00	0.25	1.75	1.25	0.25	0.00	0.00	0.00	0.00	2.340820	1.136719	6.108398	70.840004	81.690002	-138.740005	37.00	0.00	0.00
1.92	24.00	24.50	9.75	15.50	3.25	9.75	0.25	4.50	0.00	0.50	0.00	0.50	2.25	0.75	0.00	0.00	-0.177734	0.117188	0.997070	-50.540001	29.049999	-8.540000	1003.00	-0.28	-0.10	0.00	0.00	0.00	0.00	0.00	0.00	0.00	0.00	0.25	2.00	1.25	0.00	0.00	0.25	0.00	0.00	1.017090	1.446289	4.063965	4.060000	-165.550003	-69.090004	39.00	0.00	0.00
1.93	22.00	22.75	9.50	14.50	3.25	9.50	0.25	4.50	0.00	0.25	0.25	0.50	2.00	1.25	0.25	0.00	-0.206543	0.117188	0.987305	-41.650002	24.990000	-10.360000	955.00	-0.28	-0.10	0.00	0.25	0.00	0.00	0.00	0.00	0.00	0.00	0.25	1.25	1.00	0.00	0.00	0.00	0.00	0.00	1.055664	0.996582	2.606934	-58.939999	-266.489990	-13.230000	29.00	0.00	0.00
1.94	20.00	19.75	9.00	13.00	3.25	9.25	0.00	4.50	0.00	0.50	0.25	0.50	2.00	1.25	0.25	0.00	-0.198730	0.095703	0.979004	-34.299999	23.379999	-10.850000	880.00	-0.27	-0.10	0.00	0.00	0.00	0.00	0.00	0.00	0.00	0.00	0.00	1.00	1.00	0.00	0.00	0.00	0.00	0.00	1.215332	1.040527	1.916992	-91.840004	-304.429993	21.559999	21.00	0.00	0.00
1.95	17.50	16.75	8.50	12.00	3.75	9.00	0.00	4.50	0.00	0.50	0.50	0.75	2.25	1.50	0.25	0.25	-0.210938	0.089355	0.989258	-27.719999	22.680000	-10.570000	824.00	-0.25	-0.11	0.00	0.00	0.00	0.00	0.00	0.00	0.00	0.00	0.00	1.25	1.25	0.00	0.00	0.00	0.00	0.00	0.924316	1.005859	1.727051	-80.500000	-335.790009	36.400002	26.00	0.00	0.00
1.96	14.50	13.50	8.00	10.00	3.25	8.50	0.00	4.25	0.00	0.50	0.50	0.50	2.25	1.75	0.50	0.00	-0.212891	0.084961	0.976074	-21.350000	24.290001	-9.940000	721.00	-0.24	-0.11	0.00	0.25	0.00	0.00	0.00	0.00	0.00	0.00	0.00	1.00	0.50	0.00	0.00	0.00	0.00	0.00	0.798828	0.831543	1.532227	-31.360001	-364.700012	41.580002	18.00	0.00	0.00
1.97	11.75	10.75	7.25	9.00	3.75	8.00	0.00	4.25	0.00	0.75	0.25	0.75	2.50	1.50	0.50	0.00	-0.207520	0.049316	0.966797	-14.420000	24.920000	-8.400000	651.00	-0.22	-0.12	0.00	0.00	0.00	0.00	0.00	0.00	0.00	0.00	0.00	1.00	0.50	0.00	0.00	0.00	0.00	0.00	0.627930	0.531250	1.532715	23.870001	-395.220001	38.990002	16.00	0.00	0.00
1.98	9.00	8.25	6.50	8.25	3.50	7.75	0.00	4.00	0.00	0.75	0.50	0.75	2.50	1.50	0.25	0.00	-0.194336	0.063477	0.952637	-7.000000	24.920000	-6.580000	574.00	-0.21	-0.12	0.00	0.00	0.00	0.00	0.00	0.00	0.00	0.00	0.00	1.00	0.25	0.00	0.00	0.00	0.00	0.00	0.372070	0.329102	1.626953	66.570000	-429.730011	35.279999	13.00	0.00	0.00
1.99	7.00	6.25	5.50	7.25	3.00	7.25	0.00	4.25	0.00	0.50	0.50	0.75	2.50	1.50	0.50	0.25	-0.180176	0.080078	0.945312	-3.360000	26.110001	-5.880000	507.00	-0.18	-0.14	0.00	0.00	0.00	0.00	0.00	0.00	0.00	0.00	0.00	0.75	0.00	0.00	0.00	0.00	0.00	0.00	-0.046387	0.092285	1.608887	105.629997	-496.230011	39.340000	8.00	0.00	0.00
2.00	5.25	4.75	4.50	6.00	2.75	6.75	0.00	4.00	0.00	1.25	0.75	0.75	3.00	2.00	0.50	0.25	-0.173828	0.085938	0.932617	-4.480000	28.420000	-6.790000	457.00	-0.15	-0.14	0.00	0.00	0.00	0.00	0.00	0.00	0.00	0.00	0.00	0.50	0.25	0.00	0.00	0.00	0.00	0.00	-0.235352	0.028809	1.519531	107.590004	-513.729980	45.920002	8.00	0.00	0.00
2.01	3.75	3.50	3.50	5.25	2.50	6.25	0.00	4.25	0.00	1.00	1.00	1.25	3.25	2.25	0.75	0.25	-0.242188	0.083984	0.959473	-6.720000	30.730000	-8.610000	418.00	-0.11	-0.16	0.00	0.00	0.00	0.00	0.00	0.00	0.00	0.00	0.00	0.50	0.25	0.00	0.00	0.00	0.00	0.00	-0.428711	-0.006836	1.484863	100.099998	-517.299988	51.590000	8.00	0.00	0.00
2.02	2.50	2.25	2.25	4.50	2.25	6.00	0.00	4.00	0.25	1.50	1.25	1.25	3.50	2.75	0.75	0.25	-0.195312	0.082520	0.955566	-6.230000	32.060001	-10.220000	380.00	-0.07	-0.17	0.00	0.00	0.00	0.00	0.00	0.00	0.00	0.00	0.00	0.50	0.25	0.00	0.00	0.00	0.00	0.00	-0.550293	-0.028320	1.384766	85.470001	-510.160004	58.310001	8.00	0.00	0.00
2.03	1.75	1.25	1.25	3.25	2.25	5.25	0.00	4.00	0.00	2.00	1.50	1.75	4.00	3.25	1.00	0.50	-0.233887	0.105957	0.938965	-7.070000	34.299999	-11.130000	352.00	-0.01	-0.18	0.00	0.00	0.00	0.00	0.00	0.00	0.00	0.00	0.00	0.50	0.25	0.00	0.00	0.00	0.00	0.00	-0.632324	-0.002441	1.490234	70.139999	-497.350006	64.889999	8.00	0.00	0.00
2.04	1.50	1.25	1.00	2.75	1.75	4.50	0.00	3.75	0.50	2.25	2.00	2.25	5.00	4.25	1.00	0.75	-0.259277	0.056152	0.956543	-6.650000	37.240002	-12.600000	362.00	0.03	-0.17	0.00	0.00	0.00	0.00	0.00	0.00	0.00	0.00	0.00	0.50	0.00	0.00	0.00	0.00	0.00	0.00	-0.655762	0.054688	1.612793	61.459999	-486.220001	68.879997	5.00	0.00	0.00
2.05	1.25	0.75	0.75	2.50	1.50	3.75	0.00	3.50	0.50	3.25	2.50	2.50	5.50	5.00	1.25	0.75	-0.276367	0.073730	0.926270	-4.970000	39.340000	-14.000000	367.00	0.07	-0.16	0.00	0.00	0.00	0.00	0.00	0.00	0.00	0.00	0.00	0.50	0.00	0.00	0.00	0.00	0.00	0.00	-0.688477	0.106445	1.820312	65.590004	-478.730011	69.720001	5.00	0.00	0.00
2.06	1.00	0.75	0.50	2.00	1.50	3.00	0.00	3.50	1.25	4.00	3.25	3.50	6.25	6.75	1.50	1.00	-0.236816	0.087891	0.944824	-2.450000	40.599998	-16.870001	409.00	0.12	-0.14	0.00	0.00	0.00	0.00	0.00	0.00	0.00	0.00	0.00	0.25	0.00	0.00	0.00	0.00	0.00	0.00	-0.717285	0.144043	2.058594	80.500000	-477.049988	68.599998	3.00	0.00	0.00
2.07	0.75	0.75	0.25	2.25	1.25	2.50	0.00	3.25	1.75	6.50	5.25	4.50	6.75	8.25	1.75	1.50	-0.237793	0.097656	0.946289	-1.050000	42.420002	-19.809999	481.00	0.15	-0.12	0.00	0.00	0.00	0.00	0.00	0.00	0.00	0.00	0.00	0.25	0.00	0.00	0.00	0.00	0.00	0.00	-0.772461	0.125488	2.275879	99.260002	-479.010010	67.269997	3.00	0.00	0.00
2.08	0.25	0.50	0.00	1.50	1.00	1.75	0.00	3.25	2.75	8.00	7.00	6.00	7.00	9.25	2.25	2.00	-0.270020	0.074707	0.953613	-1.540000	47.320000	-20.719999	533.00	0.19	-0.11	0.50	0.00	0.00	0.00	0.00	0.00	0.00	0.00	0.00	0.00	0.00	0.00	0.00	0.00	0.00	0.00	-0.849121	0.101074	2.457520	113.959999	-482.019989	67.059998	5.00	0.00	0.00
2.09	0.50	0.50	0.00	1.50	0.50	1.50	0.00	2.75	4.00	9.00	8.00	7.50	7.50	10.75	2.75	2.25	-0.270020	0.086426	0.970215	3.150000	53.619999	-21.700001	597.00	0.21	-0.10	0.00	0.00	0.00	0.00	0.00	0.00	0.00	0.00	0.00	0.00	0.00	0.00	0.00	0.00	0.00	0.00	-0.966797	0.115234	2.713379	121.730003	-483.489990	67.970001	0.00	0.00	0.00
2.10	0.50	0.50	0.00	1.75	0.50	1.00	0.00	2.75	5.00	10.00	9.00	7.75	7.75	12.50	4.00	3.25	-0.314453	0.070312	0.980957	10.500000	59.779999	-22.400000	666.00	0.22	-0.08	0.00	0.00	0.00	0.00	0.00	0.00	0.00	0.00	0.00	0.00	0.25	0.00	0.00	0.00	0.00	0.00	-1.283203	0.156738	2.994141	129.080002	-483.839996	71.400002	3.00	0.00	0.00
2.11	0.50	0.25	0.00	1.25	0.25	0.75	0.00	2.25	5.50	11.00	10.00	8.75	8.25	14.25	5.00	4.25	-0.326172	0.077148	0.998535	21.350000	68.879997	-21.420000	718.00	0.24	-0.07	0.00	0.00	0.00	0.00	0.00	0.00	0.00	0.00	0.00	0.00	0.00	0.00	0.00	0.00	0.00	0.00	-1.693359	0.081543	3.153320	137.410004	-484.470001	80.570000	0.00	0.00	0.00
2.12	0.50	0.00	0.00	1.75	0.25	0.50	0.00	2.00	6.50	11.75	11.00	9.50	8.50	15.50	5.75	5.00	-0.344238	0.083008	0.991699	34.020000	87.639999	-19.740000	779.00	0.24	-0.07	0.00	0.00	0.00	0.00	0.00	0.00	0.00	0.00	0.00	0.25	0.00	0.00	0.00	0.00	0.00	0.00	-2.190918	0.005859	3.062988	136.289993	-482.649994	95.900002	3.00	0.00	0.00
2.13	0.50	0.00	0.00	1.25	0.00	0.25	0.00	1.75	7.50	12.50	11.50	10.00	8.50	17.00	6.50	5.50	-0.364746	0.107422	0.982422	41.860001	117.250000	-17.990000	819.00	0.26	-0.06	0.00	0.00	0.00	0.00	0.00	0.00	0.00	0.00	0.00	0.00	0.00	0.00	0.00	0.00	0.00	0.00	-2.747559	-0.067383	2.913574	123.199997	-472.010010	117.459999	0.00	0.00	0.00
2.14	0.25	0.00	0.00	1.00	0.00	0.00	0.00	1.50	8.00	13.25	12.50	10.75	9.00	18.25	7.00	6.00	-0.391602	0.067383	1.021484	39.200001	162.470001	-18.760000	863.00	0.26	-0.05	0.00	0.00	0.00	0.00	0.00	0.00	0.00	0.00	0.00	0.25	0.00	0.00	0.00	0.00	0.00	0.00	-3.429199	-0.122559	2.656738	103.250000	-451.500000	141.190002	3.00	0.00	0.00
2.15	0.00	0.00	0.00	1.00	0.00	0.00	0.00	1.25	8.25	13.75	13.25	11.25	8.75	19.50	7.75	6.25	-0.399414	0.098633	0.974121	18.129999	174.020004	-17.290001	896.00	0.27	-0.05	0.00	0.00	0.00	0.00	0.00	0.00	0.00	0.00	0.00	0.25	0.00	0.00	0.00	0.00	0.00	0.00	-4.193359	-0.107422	2.228516	86.099998	-420.769989	161.000000	3.00	0.00	0.00
2.16	0.25	0.00	0.00	0.75	0.00	0.00	0.00	1.00	8.75	14.25	13.75	11.75	8.75	20.75	8.50	6.75	-0.428223	0.165527	0.987793	7.770000	192.779999	-18.830000	936.00	0.27	-0.05	0.00	0.00	0.00	0.00	0.00	0.00	0.00	0.00	0.00	0.00	0.00	0.00	0.00	0.00	0.00	0.00	-4.878418	-0.096191	1.582520	80.010002	-378.769989	172.550003	0.00	0.00	0.00
2.17	0.25	0.00	0.00	0.75	0.00	0.00	0.00	1.00	9.00	14.75	14.25	11.75	8.25	22.00	9.00	7.25	-0.487793	0.172852	1.048340	2.030000	219.100006	-24.710001	964.00	0.28	-0.04	0.00	0.00	0.00	0.00	0.00	0.00	0.00	0.00	0.00	0.00	0.00	0.00	0.00	0.00	0.00	0.00	-5.483887	-0.204590	0.899414	80.779999	-325.989990	175.279999	0.00	0.00	0.00
2.18	0.00	0.00	0.00	0.50	0.00	0.00	0.00	1.00	9.25	15.00	14.50	11.75	8.00	22.75	9.50	7.50	-0.545898	0.198242	1.064941	-1.610000	251.930008	-32.619999	977.00	0.28	-0.04	0.00	0.00	0.00	0.00	0.00	0.00	0.00	0.00	0.00	0.25	0.00	0.00	0.00	0.00	0.00	0.00	-5.949707	-0.272461	-0.024902	76.300003	-265.019989	166.809998	3.00	0.00	0.00
2.19	0.00	0.00	0.00	0.50	0.00	0.00	0.00	0.75	9.50	15.50	14.50	11.50	7.25	23.25	9.75	7.75	-0.563965	0.165527	1.119141	-6.090000	286.299988	-40.529999	981.00	0.28	-0.03	0.00	0.00	0.00	0.00	0.00	0.00	0.00	0.00	0.00	0.00	0.00	0.00	0.00	0.00	0.00	0.00	-6.402344	-0.327148	-0.750488	66.849998	-87.290001	152.809998	0.00	0.00	0.00
2.20	0.00	0.00	0.00	0.00	0.00	0.00	0.00	0.50	9.75	16.00	14.75	11.00	6.50	23.75	10.00	7.75	-0.627441	0.138672	1.189453	-10.500000	321.510010	-46.270000	978.00	0.29	-0.02	0.00	0.00	0.00	0.00	0.00	0.00	0.00	0.00	0.00	0.00	0.00	0.00	0.00	0.00	0.00	0.00	-6.278320	-0.599609	-0.493652	53.619999	-9.800000	159.110001	0.00	0.00	0.00
2.21	0.00	0.00	0.00	0.00	0.00	0.00	0.00	0.50	10.00	16.00	14.50	10.50	5.75	23.50	9.75	7.50	-0.638184	0.122070	1.104492	-13.230000	363.579987	-50.540001	961.00	0.29	-0.02	0.00	0.00	0.00	0.00	0.00	0.00	0.00	0.00	0.00	0.25	0.00	0.00	0.00	0.00	0.00	0.00	-6.068848	-0.779297	-0.374512	28.210001	47.320000	158.970001	3.00	0.00	0.00
2.22	0.00	0.00	0.00	0.00	0.00	0.00	0.00	0.50	9.75	15.75	14.50	10.00	5.50	23.00	9.50	7.50	-0.702637	0.093750	1.237305	-14.630000	410.829987	-52.779999	941.00	0.29	-0.02	0.00	0.00	0.00	0.00	0.00	0.00	0.00	0.00	0.00	0.00	0.00	0.00	0.00	0.00	0.00	0.00	-5.635254	-0.906738	-0.135742	14.280000	99.260002	138.110001	0.00	0.00	0.00
2.23	0.00	0.00	0.00	0.00	0.00	0.00	0.00	0.25	9.25	15.00	14.00	9.25	5.00	22.25	9.00	7.00	-0.818848	0.148438	1.259277	-13.370000	458.920013	-52.430000	891.00	0.29	-0.01	0.25	0.00	0.25	0.00	0.00	0.00	0.00	0.00	0.00	0.00	0.00	0.00	0.00	0.00	0.00	0.00	0.042480	-2.607910	5.036621	172.550003	396.829987	38.290001	5.00	0.00	0.00
2.24	0.00	0.25	0.00	0.00	0.00	0.00	0.00	0.25	8.00	13.50	13.25	8.50	4.25	21.25	8.50	6.50	-1.153320	0.172852	1.686523	3.290000	506.730011	-46.830002	822.00	0.29	-0.01	3.75	4.50	1.25	2.75	0.00	0.00	0.00	0.00	0.00	0.00	0.00	0.00	0.00	0.00	0.00	0.00	2.206543	-1.606934	-0.176270	73.639999	216.229996	-62.720001	124.00	-0.36	-0.07
2.25	0.00	0.00	0.00	0.00	0.00	0.00	0.00	0.00	5.75	11.25	11.25	7.25	3.50	20.00	8.00	5.50	-1.664062	0.118652	2.175293	31.010000	542.429993	-30.660000	701.00	0.30	-0.01	12.50	13.75	2.25	5.75	0.00	0.00	0.00	0.00	0.00	0.00	0.00	0.00	0.00	0.00	0.00	0.00	-0.425293	0.148438	-0.956055	-138.529999	175.000000	-175.490005	344.00	-0.38	-0.05
2.26	0.00	0.00	0.00	0.00	0.00	0.00	0.00	0.00	3.75	9.25	8.75	5.25	2.50	18.25	6.75	3.75	-2.265625	0.656250	2.437012	71.750000	573.859985	-7.070000	561.00	0.31	-0.00	20.00	20.25	3.25	8.25	0.00	0.50	0.00	0.00	0.00	0.00	0.00	0.00	0.00	0.00	0.00	0.00	-1.143555	1.657227	1.364746	-170.940002	377.230011	-179.270004	526.00	-0.38	-0.05
2.27	0.00	0.00	0.00	0.00	0.00	0.00	0.00	0.00	3.00	7.75	6.00	3.25	1.75	15.25	5.50	2.25	-2.981445	0.979004	2.645508	132.930008	608.090027	12.180000	432.00	0.31	0.01	24.00	23.25	6.00	10.00	0.00	2.25	0.00	0.00	0.00	0.00	0.00	0.00	0.00	0.00	0.00	0.00	-1.782715	1.570801	4.550293	-93.940002	455.350006	-91.070000	664.00	-0.37	-0.05
2.28	0.00	0.00	0.00	0.00	0.00	0.00	0.00	0.00	2.00	5.50	4.00	2.75	1.25	12.00	4.00	1.00	-2.601074	-0.471191	5.155762	215.740005	590.380005	15.260000	315.00	0.31	0.02	26.50	24.75	7.75	11.75	0.00	5.00	0.00	0.25	0.00	0.00	0.00	0.00	0.00	0.00	0.00	0.00	-1.759766	-0.208496	4.865723	-80.220001	414.540009	-42.000000	776.00	-0.35	-0.06
2.29	0.00	0.00	0.00	0.00	0.00	0.00	0.00	0.00	1.25	4.75	2.50	2.00	1.00	9.00	2.75	0.25	-2.210449	-0.196777	3.807617	230.160004	570.780029	-1.610000	229.00	0.31	0.02	26.25	24.25	8.75	12.50	0.75	7.75	0.00	1.00	0.00	0.00	0.00	0.00	0.00	0.00	0.00	0.00	-0.929688	-0.116699	3.464844	-30.870001	342.299988	-43.610001	837.00	-0.34	-0.07
2.30	0.00	0.00	0.00	0.00	0.00	0.00	0.00	0.00	1.00	3.75	2.50	1.75	0.75	5.50	1.25	0.00	-0.418457	-0.165527	4.395996	244.229996	554.400024	-13.300000	163.00	0.30	0.01	25.75	23.25	9.25	12.75	1.50	8.75	0.25	2.25	0.00	0.00	0.00	0.00	0.00	0.00	0.00	0.00	-0.710449	0.836914	2.000488	-58.240002	226.100006	-32.340000	873.00	-0.32	-0.08
2.31	0.00	0.00	0.00	0.00	0.00	0.00	0.00	0.00	0.00	2.25	1.50	1.00	0.25	2.75	0.75	0.00	-0.178223	-0.062500	2.810547	225.259995	501.619995	-70.980003	83.00	0.30	-0.01	24.50	21.75	9.50	13.00	2.00	9.50	0.25	3.00	0.00	0.00	0.25	0.25	0.75	0.00	0.00	0.00	-0.289062	0.172852	1.169434	-93.239998	170.800003	-10.360000	889.00	-0.31	-0.09
2.32	0.00	0.00	0.00	0.00	0.00	0.00	0.00	0.00	0.00	1.75	1.00	0.75	0.00	1.50	0.25	0.00	0.500000	-1.174316	5.348145	175.350006	394.660004	-138.880005	52.00	0.28	-0.01	23.75	20.50	9.50	12.75	2.75	9.75	0.25	3.75	0.00	0.25	0.25	0.25	1.00	0.00	0.00	0.00	-0.363281	0.091309	1.692383	-118.230003	130.619995	-10.430000	894.00	-0.29	-0.09
2.33	0.00	0.00	0.00	0.00	0.00	0.00	0.00	0.00	0.00	1.25	1.25	0.50	0.00	1.25	0.25	0.00	-0.222656	2.326660	6.184082	139.369995	298.059998	-191.240005	45.00	0.00	0.00	23.25	20.00	9.75	13.00	3.50	10.25	0.25	4.75	0.00	0.25	0.25	0.50	1.00	0.00	0.00	0.00	-0.357910	0.262207	1.318848	-109.970001	68.949997	-9.380000	921.00	-0.28	-0.10
2.34	0.00	0.00	0.00	0.00	0.00	0.00	0.00	0.00	0.00	1.75	1.00	0.50	0.00	1.00	0.25	0.00	1.337402	-0.402832	5.657715	81.900002	34.860001	-167.089996	45.00	0.00	0.00	22.50	19.50	9.75	13.00	4.75	10.25	0.25	5.00	0.00	0.25	0.75	0.50	1.50	0.00	0.00	0.00	-0.159668	0.128418	1.078125	-88.690002	27.860001	-6.440000	936.00	-0.27	-0.10
2.35	0.00	0.00	0.00	0.00	0.00	0.00	0.00	0.00	0.00	1.25	0.75	0.25	0.00	1.00	0.25	0.00	0.967773	0.269043	2.537109	-26.670000	-213.779999	-136.570007	35.00	0.00	0.00	21.75	18.25	9.75	12.50	5.25	10.25	0.25	5.50	0.00	0.50	0.50	0.75	2.25	0.00	0.00	0.00	-0.190430	0.136230	1.083008	-57.260002	10.220000	-9.240000	933.00	-0.26	-0.10
2.36	0.00	0.00	0.00	0.00	0.00	0.00	0.00	0.00	0.00	1.00	0.75	0.50	0.00	1.00	0.25	0.00	1.058594	0.706543	2.043457	-72.309998	-237.720001	-121.309998	35.00	0.00	0.00	20.75	17.00	9.50	12.25	5.50	10.25	0.25	5.50	0.00	0.50	0.50	0.50	2.00	0.00	0.00	0.00	-0.166504	0.201660	1.019043	-38.150002	4.760000	-10.150000	904.00	-0.26	-0.10
2.37	0.00	0.00	0.00	0.25	0.00	0.00	0.00	0.00	0.00	1.00	0.75	0.25	0.00	1.00	0.25	0.00	0.994141	0.801758	2.118164	-97.160004	-267.470001	-102.410004	35.00	0.00	0.00	19.25	16.00	9.25	11.75	6.00	10.00	0.25	5.50	0.00	0.75	0.75	0.50	2.50	0.00	0.00	0.00	-0.183105	0.112305	0.992676	-31.430000	4.970000	-9.170000	883.00	-0.25	-0.10
2.38	0.00	0.00	0.00	0.00	0.00	0.00	0.00	0.00	0.00	1.00	0.50	0.00	0.00	0.50	0.00	0.00	0.933594	0.912109	2.025879	-100.590004	-314.579987	-81.129997	20.00	0.00	0.00	18.25	14.50	9.00	11.25	6.25	9.75	0.25	5.50	0.00	0.75	0.75	0.50	2.25	0.25	0.00	0.00	-0.204590	0.152832	0.997070	-25.549999	6.160000	-8.400000	851.00	-0.25	-0.10
2.39	0.00	0.00	0.00	0.00	0.00	0.00	0.00	0.00	0.00	0.50	0.25	0.25	0.00	0.75	0.00	0.00	0.787109	0.882324	1.817383	-89.040001	-365.820007	-58.380001	17.00	0.00	0.00	16.75	13.00	8.75	10.50	6.00	9.25	0.25	5.25	0.00	0.75	0.50	0.75	2.50	0.25	0.25	0.00	-0.153809	0.129883	1.000488	-17.080000	10.150000	-6.160000	803.00	-0.24	-0.10
2.40	0.00	0.00	0.00	0.00	0.00	0.00	0.00	0.00	0.00	0.25	0.25	0.00	0.00	0.50	0.00	0.00	0.556152	0.831543	1.533691	-78.260002	-407.959991	-36.820000	9.00	0.00	0.00	15.50	12.00	8.25	9.75	6.00	9.00	0.50	5.25	0.25	0.75	0.50	0.75	2.25	0.25	0.25	0.00	-0.160156	0.112305	0.971680	-14.420000	11.620000	-5.250000	770.00	-0.23	-0.10
2.41	0.00	0.00	0.00	0.00	0.00	0.00	0.00	0.00	0.00	0.25	0.50	0.00	0.00	0.50	0.00	0.00	0.361328	0.770020	1.287109	-72.099998	-433.510010	-16.730000	12.00	0.00	0.00	13.25	10.25	7.75	9.00	6.00	8.50	0.50	5.00	0.00	0.75	0.75	0.50	2.50	0.50	0.00	0.25	-0.154785	0.115723	0.966797	-12.180000	12.810000	-4.480000	707.00	-0.22	-0.11
2.42	0.00	0.00	0.00	0.00	0.00	0.00	0.00	0.00	0.00	0.25	0.25	0.00	0.00	0.50	0.00	0.00	0.168945	0.756836	1.144531	-65.309998	-443.239990	1.330000	9.00	0.00	0.00	11.25	8.75	7.25	8.50	5.75	8.25	0.25	5.00	0.00	0.75	1.00	0.75	2.75	0.50	0.25	0.00	-0.147949	0.108887	0.963379	-10.780000	14.420000	-3.850000	661.00	-0.21	-0.12
2.43	0.00	0.00	0.00	0.00	0.00	0.00	0.00	0.00	0.00	0.25	0.00	0.00	0.00	0.25	0.00	0.00	0.020020	0.747070	1.106445	-52.570000	-443.589996	16.660000	5.00	0.00	0.00	9.25	7.50	6.50	8.00	5.75	7.50	0.50	4.75	0.00	1.00	0.75	1.00	2.75	1.00	0.25	0.00	-0.157715	0.129395	0.968262	-9.590000	15.190001	-3.570000	613.00	-0.19	-0.12
2.44	0.00	0.00	0.00	0.00	0.00	0.00	0.00	0.00	0.00	0.25	0.00	0.00	0.00	0.25	0.00	0.00	-0.130371	0.704590	1.160156	-35.209999	-439.670013	29.120001	5.00	0.00	0.00	7.50	6.25	5.75	7.50	5.50	7.50	0.50	4.75	0.00	1.25	0.75	0.75	3.00	1.00	0.50	0.25	-0.166504	0.116211	0.977051	-8.680000	15.610000	-3.640000	573.00	-0.17	-0.13
2.45	0.00	0.00	0.00	0.00	0.00	0.00	0.00	0.00	0.00	0.00	0.00	0.00	0.00	0.50	0.00	0.00	-0.239746	0.675781	1.381836	-15.540000	-438.130005	39.830002	4.00	0.00	0.00	6.00	5.25	5.25	6.75	5.50	7.00	0.50	4.50	0.25	1.25	1.25	1.50	3.00	0.75	0.25	0.25	-0.158691	0.124512	0.962402	-8.120000	16.240000	-3.500000	537.00	-0.15	-0.13
2.46	0.00	0.00	0.00	0.00	0.00	0.00	0.00	0.00	0.00	0.25	0.00	0.00	0.00	0.00	0.00	0.00	-0.340820	0.592773	1.548828	1.120000	-443.309998	49.840000	3.00	0.00	0.00	5.00	3.75	4.50	6.00	5.25	6.25	0.50	4.50	0.50	1.25	1.00	1.00	3.25	1.50	0.50	0.50	-0.137207	0.128906	0.957520	-8.960000	17.010000	-4.340000	493.00	-0.13	-0.13
2.47	0.00	0.00	0.00	0.00	0.00	0.00	0.00	0.00	0.00	0.00	0.00	0.00	0.00	0.25	0.00	0.00	-0.464844	0.540527	1.659180	9.870000	-450.660004	58.029999	2.00	0.00	0.00	3.50	2.75	3.50	5.25	5.00	6.00	0.50	4.00	0.50	1.75	1.25	1.25	3.25	1.75	0.75	0.50	-0.183105	0.125000	0.954590	-10.430000	19.040001	-6.300000	451.00	-0.09	-0.13
2.48	0.00	0.00	0.00	0.00	0.00	0.00	0.00	0.00	0.00	0.00	0.00	0.00	0.00	0.00	0.00	0.00	-0.573730	0.527344	1.790039	12.110000	-455.489990	64.540001	0.00	0.00	0.00	2.50	1.75	3.00	4.75	4.75	5.50	0.50	3.75	1.00	2.00	1.50	1.50	3.25	2.25	0.75	0.75	-0.183105	0.103516	0.963867	-10.990000	21.280001	-7.700000	429.00	-0.06	-0.13
2.49	0.00	0.00	0.00	0.00	0.00	0.00	0.00	0.00	0.00	0.00	0.00	0.00	0.00	0.00	0.00	0.00	-0.676758	0.531738	1.948730	13.930000	-458.709991	69.019997	0.00	0.00	0.00	1.75	1.50	2.75	4.25	4.25	5.00	0.50	3.75	0.75	2.00	1.50	1.50	3.75	2.50	1.00	0.75	-0.182129	0.097168	0.980957	-8.960000	23.590000	-8.680000	405.00	-0.04	-0.14
2.50	0.00	0.00	0.00	0.00	0.00	0.00	0.00	0.00	0.00	0.00	0.00	0.00	0.00	0.00	0.00	0.00	-0.773926	0.547852	2.132812	21.350000	-462.279999	71.050003	0.00	0.00	0.00	1.75	1.25	2.25	3.75	3.75	4.75	0.50	3.50	1.25	2.50	2.00	2.25	4.50	3.25	1.00	1.25	-0.204102	0.100586	0.955078	-4.340000	26.040001	-8.890000	421.00	0.00	-0.14
2.51	0.00	0.00	0.00	0.00	0.00	0.00	0.00	0.00	0.00	0.00	0.00	0.00	0.00	0.25	0.00	0.00	-0.907715	0.594727	2.443848	36.049999	-465.779999	70.629997	2.00	0.00	0.00	1.25	1.00	1.75	2.75	3.25	4.25	0.25	3.25	1.50	3.25	2.50	2.75	5.00	3.75	1.50	1.50	-0.209961	0.102051	0.936035	-0.280000	27.299999	-9.590000	415.00	0.05	-0.14
2.52	0.00	0.00	0.00	0.00	0.00	0.00	0.00	0.00	0.00	0.00	0.00	0.00	0.00	0.00	0.00	0.00	-1.106445	0.685547	2.718750	49.560001	-467.600006	71.260002	0.00	0.00	0.00	1.00	1.25	1.50	2.25	3.00	4.00	0.25	3.25	2.00	4.25	3.25	3.50	5.50	4.75	1.75	2.00	-0.180664	0.122559	0.937012	1.330000	29.960001	-10.710000	452.00	0.08	-0.13
2.53	0.00	0.00	0.00	0.00	0.00	0.00	0.00	0.00	0.00	0.00	0.00	0.00	0.00	0.00	0.00	0.00	-1.657715	0.771973	2.884766	54.950001	-470.820007	81.059998	0.00	0.00	0.00	1.00	0.75	1.50	2.25	2.75	3.25	0.25	3.50	2.75	5.75	4.25	4.00	6.50	5.75	2.00	2.25	-0.224121	0.112305	0.953125	3.360000	32.410000	-11.830000	502.00	0.11	-0.12
2.54	0.00	0.00	0.00	0.00	0.00	0.00	0.00	0.00	0.00	0.00	0.00	0.00	0.00	0.00	0.00	0.00	-2.087402	0.920410	3.087402	53.830002	-472.220001	95.760002	0.00	0.00	0.00	0.75	0.50	1.00	2.00	2.25	3.25	0.25	3.75	3.00	7.75	6.75	6.50	7.75	7.00	2.00	3.00	-0.217285	0.117188	0.959961	5.600000	34.720001	-12.600000	590.00	0.15	-0.12
2.55	0.00	0.00	0.00	0.00	0.00	0.00	0.00	0.00	0.00	0.00	0.00	0.00	0.00	0.00	0.00	0.00	-2.552734	1.057617	2.795410	50.889999	-476.000000	116.199997	0.00	0.00	0.00	0.00	0.75	0.50	1.50	1.75	2.50	0.00	3.75	4.50	8.50	8.00	7.75	8.50	8.50	2.75	4.50	-0.235352	0.130859	0.979492	9.590000	37.799999	-13.090000	645.00	0.18	-0.12
2.56	0.00	0.00	0.00	0.00	0.00	0.00	0.00	0.00	0.00	0.00	0.00	0.00	0.00	0.00	0.00	0.00	-3.811035	0.701172	2.408203	98.629997	-447.089996	187.110001	0.00	0.00	0.00	0.25	0.25	0.25	1.25	1.50	2.75	0.00	3.50	5.00	9.25	8.75	8.50	9.00	10.00	3.50	5.75	-0.251465	0.075195	0.998047	15.960000	44.240002	-15.330000	695.00	0.20	-0.11
2.57	0.00	0.00	0.00	0.00	0.00	0.00	0.00	0.00	0.00	0.00	0.00	0.00	0.00	0.00	0.00	0.00	-4.413574	0.383789	2.182617	109.129997	-411.320007	208.250000	0.00	0.00	0.00	0.25	0.25	0.25	1.00	1.25	2.00	0.00	3.25	5.50	10.00	9.75	9.25	9.75	11.75	4.50	6.50	-0.256348	0.132324	0.985840	20.930000	53.549999	-15.050000	747.00	0.22	-0.10
2.58	0.00	0.00	0.00	0.00	0.00	0.00	0.00	0.00	0.00	0.00	0.00	0.00	0.00	0.00	0.00	0.00	-4.865723	0.051758	1.790527	102.760002	-365.260010	219.169998	0.00	0.00	0.00	0.50	0.00	0.25	1.00	0.50	1.50	0.00	3.25	6.50	11.00	10.50	10.00	10.25	14.00	5.75	7.25	-0.265137	0.142090	1.023926	31.360001	72.940002	-17.710001	813.00	0.23	-0.09
2.59	0.00	0.00	0.00	0.00	0.00	0.00	0.00	0.00	0.00	0.00	0.00	0.00	0.00	0.00	0.00	0.00	-5.170898	-0.195801	1.275391	72.379997	-312.970001	213.360001	0.00	0.00	0.00	0.25	0.25	0.25	0.75	0.25	1.25	0.00	3.25	7.00	11.75	11.25	11.00	10.75	16.75	6.50	7.75	-0.299316	0.181152	1.042480	37.380001	92.400002	-19.600000	876.00	0.24	-0.09
2.60	0.00	0.00	0.00	0.00	0.00	0.00	0.00	0.00	0.00	0.00	0.00	0.00	0.00	0.00	0.00	0.00	-5.625977	-0.237793	0.761719	26.950001	-262.010010	187.460007	0.00	0.00	0.00	0.25	0.00	0.25	1.25	0.00	0.75	0.00	3.00	7.50	12.50	12.25	11.75	11.00	19.00	7.00	8.50	-0.330566	0.246582	1.061523	50.610001	115.080002	-21.840000	930.00	0.25	-0.08
2.61	0.00	0.00	0.00	0.25	0.00	0.00	0.00	0.00	0.00	0.00	0.00	0.00	0.00	0.00	0.00	0.00	-5.919922	-0.012695	-0.382324	-21.350000	-215.880005	142.240005	3.00	0.00	0.00	0.50	0.00	0.00	1.00	0.00	0.50	0.00	2.75	8.25	13.25	12.75	12.00	10.75	21.00	7.75	9.25	-0.333008	0.229004	1.100098	57.540001	150.149994	-29.120001	973.00	0.26	-0.07
2.62	0.00	0.00	0.00	0.00	0.00	0.00	0.00	0.00	0.00	0.00	0.00	0.00	0.00	0.00	0.00	0.00	-6.048340	0.591309	-1.325195	-41.790001	-152.389999	87.430000	0.00	0.00	0.00	0.25	0.25	0.00	0.75	0.00	0.25	0.00	2.50	8.50	13.75	13.25	12.25	10.50	23.00	8.50	9.50	-0.359375	0.208984	1.136719	42.700001	204.680008	-36.889999	1004.00	0.27	-0.06
2.63	0.00	0.00	0.00	0.00	0.00	0.00	0.00	0.00	0.00	0.00	0.00	0.00	0.00	0.00	0.00	0.00	-6.193359	0.916504	-1.580078	-3.920000	-63.490002	50.049999	0.00	0.00	0.00	0.25	0.00	0.00	1.00	0.00	0.00	0.00	2.00	9.00	14.25	13.50	12.00	10.00	24.50	8.75	10.25	-0.426758	0.243164	1.116211	9.590000	250.110001	-45.709999	1021.00	0.27	-0.05
2.64	0.00	0.00	0.00	0.00	0.00	0.00	0.00	0.00	0.00	0.00	0.00	0.00	0.00	0.00	0.00	0.00	-6.017578	0.681152	-1.317871	58.099998	22.190001	35.070000	0.00	0.00	0.00	0.25	0.00	0.00	0.50	0.00	0.25	0.00	1.50	9.25	14.50	13.50	12.00	9.25	26.00	9.25	10.50	-0.485352	0.257812	1.145508	-14.280000	300.230011	-50.119999	1030.00	0.28	-0.04
2.65	0.00	0.00	0.00	0.00	0.00	0.00	0.00	0.00	0.00	0.00	0.00	0.00	0.00	0.00	0.00	0.00	-5.729004	0.250488	-0.743652	91.840004	88.690002	32.970001	0.00	0.00	0.00	0.00	0.00	0.00	0.25	0.00	0.00	0.00	1.50	9.75	15.00	13.50	11.50	8.50	26.50	9.25	10.50	-0.451660	0.244629	1.095703	-22.889999	342.160004	-59.570000	1026.00	0.28	-0.04
2.66	0.50	0.00	0.00	0.25	0.00	0.00	0.00	0.00	0.00	0.00	0.00	0.00	0.00	0.00	0.00	0.00	-4.850586	-2.854492	-0.568359	46.900002	124.739998	58.660000	8.00	0.00	0.00	0.00	0.00	0.00	0.25	0.00	0.00	0.00	1.00	10.00	15.50	13.50	10.75	7.75	26.50	9.25	10.75	-0.577148	0.193848	1.370117	-29.190001	379.470001	-67.760002	1014.00	0.29	-0.03
2.67	2.00	1.50	0.75	2.00	0.00	0.00	0.00	0.00	0.00	0.00	0.00	0.00	0.00	0.00	0.00	0.00	0.780762	-0.344238	1.979004	23.870001	262.360016	76.019997	65.00	-0.35	-0.07	0.00	0.00	0.00	0.00	0.00	0.00	0.00	0.75	10.00	15.75	13.25	10.25	6.50	26.00	9.00	10.75	-0.532715	0.156250	1.316895	-38.990002	421.820007	-72.519997	984.00	0.29	-0.02
2.68	8.50	8.50	1.75	3.25	0.00	0.00	0.00	0.00	0.00	0.00	0.00	0.00	0.00	0.00	0.00	0.00	1.718262	-0.471191	1.105957	-74.480003	231.000000	25.200001	221.00	-0.38	-0.04	0.00	0.00	0.00	0.00	0.00	0.00	0.00	0.25	9.75	15.50	13.00	9.50	5.25	24.75	8.75	10.75	-0.620605	0.213867	1.234863	-56.139999	477.399994	-81.269997	936.00	0.30	-0.01
2.69	20.25	19.75	3.00	5.25	0.00	0.00	0.00	0.00	0.00	0.00	0.00	0.00	0.00	0.00	0.00	0.00	-0.643555	-0.622070	-0.020020	-61.459999	270.549988	-7.910000	482.00	-0.39	-0.04	0.00	0.00	0.00	0.00	0.00	0.00	0.00	0.25	8.50	14.50	12.50	8.75	3.75	23.25	8.00	10.25	-0.973145	0.506836	1.758789	-61.459999	536.760010	-90.580002	860.00	0.30	-0.01
2.70	26.75	27.50	4.50	7.75	0.00	0.00	0.00	0.00	0.00	0.00	0.00	0.00	0.00	0.00	0.00	0.00	-1.658203	-1.270508	2.047852	13.580000	423.709991	-27.160000	665.00	-0.38	-0.04	0.00	0.00	0.00	0.00	0.00	0.00	0.00	0.00	6.75	12.25	11.00	7.50	3.00	21.50	7.00	9.50	-1.605469	0.425293	2.217773	-29.540001	593.179993	-89.809998	745.00	0.30	-0.01
2.71	31.25	31.25	7.75	10.25	0.00	0.50	0.00	0.00	0.00	0.00	0.00	0.00	0.00	0.00	0.00	0.00	-1.845215	0.001953	4.921875	110.459999	413.000000	-42.000000	815.00	-0.38	-0.04	0.00	0.00	0.00	0.00	0.00	0.00	0.00	0.00	5.00	9.75	8.75	5.25	1.25	19.00	5.75	7.25	-2.495605	1.226074	2.934570	25.900000	644.840027	-73.849998	586.00	0.31	0.01
2.72	33.25	33.50	9.25	13.00	0.75	2.50	0.00	0.00	0.00	0.00	0.00	0.00	0.00	0.00	0.00	0.00	-1.554688	0.616699	4.159668	136.149994	304.989990	-64.820000	934.00	-0.37	-0.05	0.00	0.00	0.00	0.00	0.00	0.00	0.00	0.00	3.25	8.00	6.75	3.25	0.75	15.25	4.00	5.00	-2.967285	0.995117	4.078125	116.760002	681.590027	-53.619999	436.00	0.31	0.02
2.73	32.25	32.50	10.25	13.75	1.25	4.25	0.00	0.25	0.00	0.00	0.00	0.25	0.00	0.00	0.00	0.00	-0.870605	1.261230	2.481445	113.750000	218.119995	-52.779999	965.00	-0.35	-0.05	0.00	0.00	0.00	0.00	0.00	0.00	0.00	0.00	1.75	5.75	3.75	2.00	0.50	10.75	2.75	2.00	-2.894531	0.224609	5.337891	191.800003	691.880005	-40.599998	279.00	0.31	0.03
2.74	31.25	31.25	10.00	14.50	1.75	5.25	0.00	0.75	0.00	0.00	0.00	0.25	0.00	0.00	0.00	0.00	-0.518066	0.333008	0.974121	0.420000	133.139999	-16.940001	972.00	-0.35	-0.06	0.00	0.00	0.00	0.00	0.00	0.00	0.00	0.00	1.50	4.75	3.00	1.75	0.50	7.00	2.00	0.50	-1.598145	-0.108398	4.547363	238.139999	669.549988	-56.420002	207.00	0.30	0.03
2.75	30.00	30.25	10.50	14.75	2.00	6.25	0.00	1.25	0.00	0.00	0.00	0.25	0.25	0.00	0.00	0.00	-0.173340	-0.266602	0.787109	-40.810001	97.230003	-10.360000	982.00	-0.34	-0.07	0.00	0.00	0.00	0.00	0.00	0.00	0.00	0.00	1.00	3.50	3.00	1.50	0.00	2.75	0.25	0.00	-0.104980	-0.226074	4.461426	205.240005	649.179993	-87.709999	123.00	0.27	0.01
2.76	29.25	29.25	10.75	14.50	2.25	7.00	0.00	1.50	0.00	0.00	0.00	0.25	0.25	0.25	0.00	0.00	-0.333496	0.089844	1.266602	-38.849998	79.169998	-18.410000	982.00	-0.33	-0.07	0.00	0.00	0.00	0.00	0.00	0.00	0.00	0.00	0.75	2.25	1.50	0.25	0.00	1.50	0.50	0.00	0.947754	0.605957	5.780273	126.980003	479.709991	-209.089996	70.00	0.28	0.05
2.77	29.00	28.75	10.50	15.00	2.75	7.50	0.00	1.75	0.00	0.00	0.00	0.50	0.50	0.25	0.00	0.00	-0.152344	0.041992	0.898438	-54.880001	47.389999	-5.460000	997.00	-0.32	-0.07	0.00	0.00	0.00	0.00	0.00	0.00	0.00	0.00	0.25	2.00	1.50	0.25	0.00	0.75	0.00	0.00	0.947754	0.605957	5.780273	126.980003	479.709991	-209.089996	49.00	0.00	0.00
2.78	28.00	27.75	10.50	15.00	3.00	7.75	0.00	2.00	0.00	0.00	0.00	0.25	0.75	0.50	0.00	0.00	-0.223145	0.131348	1.126465	-57.540001	44.099998	-6.230000	988.00	-0.32	-0.07	0.00	0.00	0.00	0.00	0.00	0.00	0.00	0.00	0.50	1.25	1.50	0.00	0.00	0.25	0.00	0.00	0.316895	2.621094	8.620605	172.339996	311.220001	-239.470001	37.00	0.00	0.00
2.79	27.00	27.25	10.00	14.75	3.50	7.75	0.00	2.00	0.00	0.00	0.00	0.50	1.00	0.75	0.00	0.00	-0.191406	0.131836	0.948730	-49.000000	35.139999	-5.390000	977.00	-0.31	-0.08	0.00	0.00	0.00	0.00	0.00	0.00	0.00	0.00	0.50	1.50	1.00	0.00	0.00	0.50	0.00	0.00	0.953613	1.091797	3.921875	86.169998	-203.699997	-147.279999	37.00	0.00	0.00
2.80	25.50	25.75	10.00	14.25	3.75	8.00	0.00	2.25	0.00	0.25	0.00	0.25	1.00	1.00	0.25	0.00	-0.191406	0.085938	0.987793	-44.520000	29.680000	-5.110000	956.00	-0.30	-0.08	0.00	0.00	0.00	0.00	0.00	0.00	0.00	0.00	0.25	1.50	1.00	0.00	0.00	0.00	0.00	0.00	0.984863	0.962891	2.706543	-20.580000	-296.799988	-85.330002	29.00	0.00	0.00
2.81	23.75	23.75	10.00	13.50	4.25	8.00	0.00	2.50	0.00	0.25	0.00	0.25	1.25	1.25	0.25	0.00	-0.233887	0.083008	1.028809	-31.010000	21.420000	-5.880000	925.00	-0.30	-0.08	0.00	0.00	0.00	0.00	0.00	0.00	0.00	0.00	0.25	1.50	0.25	0.25	0.00	0.00	0.00	0.00	0.927246	1.189453	2.124023	-84.349998	-343.279999	-36.750000	24.00	0.00	0.00
2.82	22.00	21.50	9.50	12.75	4.00	8.00	0.25	2.50	0.00	0.25	0.25	0.50	1.25	1.25	0.25	0.00	-0.210449	0.081543	0.955566	-18.690001	17.500000	-5.600000	879.00	-0.29	-0.08	0.00	0.00	0.00	0.00	0.00	0.00	0.00	0.00	0.00	1.25	0.75	0.00	0.00	0.00	0.00	0.00	0.750977	1.267090	1.960938	-81.690002	-381.079987	-4.480000	21.00	0.00	0.00
2.83	20.00	19.00	9.00	12.00	4.00	7.75	0.25	2.75	0.00	0.25	0.25	0.25	1.50	1.25	0.25	0.00	-0.203125	0.082520	0.966797	-13.720000	16.660000	-4.830000	822.00	-0.28	-0.08	0.00	0.00	0.00	0.00	0.00	0.00	0.00	0.00	0.25	1.50	0.75	0.00	0.00	0.00	0.00	0.00	0.616211	1.041016	1.741699	-29.960001	-415.380005	13.860000	27.00	0.00	0.00
2.84	17.25	16.50	8.25	11.00	4.00	7.75	0.25	2.75	0.00	0.50	0.25	0.50	1.75	1.75	0.25	0.00	-0.217773	0.086914	0.960449	-11.830000	18.129999	-4.760000	763.00	-0.26	-0.09	0.00	0.00	0.00	0.00	0.00	0.00	0.00	0.00	0.00	1.00	0.75	0.00	0.00	0.00	0.00	0.00	0.447266	0.739258	1.768066	30.870001	-448.630005	20.930000	18.00	0.00	0.00
2.85	15.25	14.00	7.75	9.50	4.00	7.50	0.25	3.00	0.00	0.50	0.50	0.75	1.75	1.50	0.25	0.00	-0.218262	0.077637	0.964844	-10.010000	19.460001	-4.550000	701.00	-0.25	-0.09	0.00	0.00	0.00	0.00	0.00	0.00	0.00	0.00	0.00	1.00	0.25	0.00	0.00	0.00	0.00	0.00	0.242676	0.451660	1.801270	71.120003	-482.720001	24.850000	13.00	0.00	0.00
2.86	12.00	11.25	7.00	9.00	3.75	7.50	0.00	3.25	0.00	0.75	0.25	0.75	2.00	1.50	0.50	0.00	-0.227051	0.075684	0.965820	-6.370000	19.670000	-3.640000	631.00	-0.23	-0.11	0.00	0.00	0.00	0.00	0.00	0.00	0.00	0.00	0.00	0.75	0.25	0.00	0.00	0.00	0.00	0.00	0.017578	0.274414	1.756348	84.559998	-512.470032	30.660000	10.00	0.00	0.00
2.87	9.25	8.75	6.25	8.25	3.50	7.50	0.00	3.25	0.00	0.75	0.50	0.50	2.25	1.75	0.50	0.00	-0.203125	0.073730	0.959473	-2.380000	19.809999	-3.220000	564.00	-0.21	-0.11	0.00	0.00	0.00	0.00	0.00	0.00	0.00	0.00	0.00	0.50	0.75	0.00	0.00	0.00	0.00	0.00	-0.173340	0.251465	1.681641	82.459999	-533.400024	40.320000	13.00	0.00	0.00
2.88	7.50	7.25	5.50	7.25	3.50	7.25	0.00	3.50	0.00	1.00	0.50	0.75	2.25	2.25	0.25	0.25	-0.210938	0.083984	0.953125	-1.400000	21.210001	-3.290000	522.00	-0.19	-0.12	0.00	0.00	0.00	0.00	0.00	0.00	0.00	0.00	0.00	0.50	0.25	0.00	0.00	0.00	0.00	0.00	-0.366211	0.214844	1.586426	73.570000	-541.729980	50.959999	8.00	0.00	0.00
2.89	5.75	5.75	4.75	6.25	3.00	6.75	0.00	3.75	0.00	1.00	0.75	1.00	2.75	2.75	0.75	0.25	-0.216309	0.078613	0.957031	-1.330000	22.889999	-3.850000	483.00	-0.15	-0.13	0.00	0.00	0.00	0.00	0.00	0.00	0.00	0.00	0.00	0.50	0.25	0.00	0.00	0.00	0.00	0.00	-0.513672	0.222168	1.465820	62.230000	-539.210022	59.080002	8.00	0.00	0.00
2.90	4.25	4.25	3.75	5.50	3.00	6.50	0.00	4.00	0.00	1.00	1.25	1.00	3.25	2.50	0.50	0.25	-0.198730	0.065918	0.930176	-0.840000	24.570000	-4.690000	440.00	-0.12	-0.15	0.00	0.00	0.00	0.00	0.00	0.00	0.00	0.00	0.00	0.50	0.00	0.00	0.00	0.00	0.00	0.00	-0.619141	0.278320	1.449707	54.040001	-527.729980	64.470001	5.00	0.00	0.00
2.91	3.00	3.00	2.50	5.00	2.50	6.50	0.00	4.25	0.00	1.50	1.25	1.50	3.75	3.25	0.50	0.50	-0.252441	0.104004	0.979492	0.630000	25.760000	-5.670000	417.00	-0.08	-0.17	0.00	0.00	0.00	0.00	0.00	0.00	0.00	0.00	0.00	0.50	0.00	0.00	0.00	0.00	0.00	0.00	-0.695801	0.351074	1.538086	55.020000	-512.960022	68.809998	5.00	0.00	0.00
2.92	2.25	2.50	2.00	4.25	2.25	5.75	0.00	4.25	0.00	1.75	1.50	1.75	5.00	4.75	0.75	0.50	-0.255371	0.089355	0.925293	1.960000	27.790001	-6.020000	414.00	-0.03	-0.17	0.00	0.00	0.00	0.00	0.00	0.00	0.00	0.00	0.00	0.25	0.00	0.00	0.00	0.00	0.00	0.00	-0.726074	0.416016	1.772949	65.239998	-499.380005	72.870003	3.00	0.00	0.00
2.93	1.75	1.00	1.25	3.00	2.00	5.50	0.00	4.50	0.25	2.00	2.00	2.25	5.25	5.00	1.25	0.75	-0.245605	0.073242	0.940918	3.220000	30.100000	-6.440000	398.00	0.03	-0.18	0.00	0.00	0.00	0.00	0.00	0.00	0.00	0.00	0.00	0.00	0.00	0.00	0.00	0.00	0.00	0.00	-0.796875	0.391113	2.042480	86.239998	-494.760010	76.440002	0.00	0.00	0.00
2.94	1.00	1.50	0.50	2.75	2.00	5.00	0.00	4.50	0.50	2.50	2.25	3.00	6.00	6.25	1.25	0.75	-0.276855	0.088379	0.947266	3.570000	34.299999	-7.280000	415.00	0.06	-0.18	0.00	0.00	0.00	0.00	0.00	0.00	0.00	0.00	0.00	0.25	0.00	0.00	0.00	0.00	0.00	0.00	-0.854980	0.326660	2.296387	109.830002	-495.040009	80.779999	3.00	0.00	0.00
2.95	1.00	1.00	0.50	2.50	1.75	4.75	0.00	4.50	1.25	3.25	3.25	3.75	6.75	7.50	1.50	1.25	-0.261719	0.089355	0.939453	3.850000	38.080002	-8.540000	461.00	0.10	-0.16	0.00	0.00	0.00	0.00	0.00	0.00	0.00	0.00	0.00	0.00	0.00	0.00	0.00	0.00	0.00	0.00	-0.907227	0.287109	2.543945	125.230003	-495.670013	85.330002	0.00	0.00	0.00
2.96	0.75	1.25	0.25	2.00	1.25	4.00	0.00	4.75	1.50	5.75	5.50	5.50	7.25	8.50	1.75	1.50	-0.271973	0.095215	0.936523	8.400000	47.459999	-10.710000	530.00	0.13	-0.15	0.00	0.00	0.00	0.00	0.00	0.00	0.00	0.00	0.00	0.25	0.00	0.00	0.00	0.00	0.00	0.00	-0.996582	0.265625	2.890137	134.750000	-496.230011	89.669998	3.00	0.00	0.00
2.97	0.75	1.00	0.00	1.75	1.00	3.25	0.00	4.75	2.25	7.50	7.25	7.00	8.00	9.50	2.00	2.00	-0.271973	0.095215	0.936523	8.400000	47.459999	-10.710000	594.00	0.16	-0.14	0.00	0.00	0.00	0.00	0.00	0.00	0.00	0.00	0.00	0.25	0.25	0.00	0.00	0.00	0.00	0.00	-1.377441	0.308105	3.236328	146.509995	-497.420013	94.220001	5.00	0.00	0.00
2.98	0.50	0.75	0.00	1.75	0.50	2.75	0.00	4.50	3.25	8.25	8.50	8.00	8.50	11.00	2.50	2.50	-0.275879	0.089844	0.985840	15.330000	68.599998	-13.370000	644.00	0.19	-0.13	0.00	0.00	0.00	0.00	0.00	0.00	0.00	0.00	0.00	0.00	0.00	0.00	0.00	0.00	0.00	0.00	-1.947266	0.244629	3.398926	162.750000	-500.149994	103.809998	0.00	0.00	0.00
2.99	0.50	0.25	0.00	1.50	0.50	2.50	0.00	4.00	4.00	9.25	9.50	8.75	9.25	12.75	3.00	3.75	-0.328613	0.094727	0.984375	26.740000	77.629997	-13.860000	699.00	0.21	-0.11	0.00	0.00	0.00	0.00	0.00	0.00	0.00	0.00	0.00	0.25	0.00	0.00	0.00	0.00	0.00	0.00	-3.260742	0.008301	3.010742	157.779999	-487.970001	136.779999	3.00	0.00	0.00
3.00	0.75	0.25	0.00	1.25	0.00	1.75	0.00	3.75	5.00	10.25	10.75	9.75	9.75	14.00	4.50	4.50	-0.348633	0.097168	0.976562	38.779999	90.580002	-13.650000	763.00	0.22	-0.10	0.00	0.00	0.00	0.00	0.00	0.00	0.00	0.00	0.00	0.25	0.00	0.00	0.00	0.00	0.00	0.00	-3.943848	-0.052246	2.682617	135.869995	-462.980011	159.250000	3.00	0.00	0.00
3.01	0.50	0.25	0.00	1.25	0.00	1.75	0.00	3.50	5.50	11.00	11.75	10.75	10.25	15.50	6.00	5.25	-0.387207	0.141602	0.984375	52.920002	114.169998	-14.910000	829.00	0.23	-0.10	0.00	0.00	0.00	0.00	0.00	0.00	0.00	0.00	0.00	0.00	0.00	0.00	0.00	0.00	0.00	0.00	-4.616211	-0.144531	2.280762	120.050003	-424.200012	175.979996	0.00	0.00	0.00
3.02	0.25	0.00	0.00	1.25	0.00	0.75	0.00	3.00	6.75	11.75	12.75	11.50	10.75	17.25	6.25	5.75	-0.374512	0.137207	0.969727	55.580002	143.149994	-16.520000	873.00	0.25	-0.09	0.00	0.00	0.00	0.00	0.00	0.00	0.00	0.00	0.00	0.50	0.00	0.00	0.00	0.00	0.00	0.00	-5.194336	-0.269531	1.627441	111.230003	-375.269989	177.869995	5.00	0.00	0.00
3.03	0.25	0.50	0.00	1.25	0.00	0.50	0.00	2.50	7.50	12.50	13.50	12.00	11.00	18.25	7.00	6.50	-0.388184	0.135742	1.090332	45.080002	162.960007	-18.129999	920.00	0.25	-0.08	0.00	0.00	0.00	0.00	0.00	0.00	0.00	0.00	0.00	0.00	0.00	0.00	0.00	0.00	0.00	0.00	-5.701172	-0.377441	0.776855	103.180000	-318.779999	165.270004	0.00	0.00	0.00
3.04	0.25	0.00	0.00	1.00	0.00	0.25	0.00	2.00	8.00	13.00	14.50	12.75	11.00	19.25	7.75	7.00	-0.422363	0.153320	1.167969	39.480000	191.660004	-23.170000	952.00	0.26	-0.07	0.00	0.00	0.00	0.00	0.00	0.00	0.00	0.00	0.00	0.25	0.00	0.00	0.00	0.00	0.00	0.00	-6.199707	-0.337891	-0.260254	95.340004	-250.180008	144.199997	3.00	0.00	0.00
3.05	0.25	0.00	0.00	0.75	0.00	0.25	0.00	1.75	8.25	13.50	14.75	13.00	10.50	20.75	8.00	7.50	-0.434570	0.154785	1.083984	15.960000	229.740005	-28.770000	973.00	0.27	-0.06	0.00	0.00	0.00	0.00	0.00	0.00	0.00	0.00	0.00	0.50	0.00	0.00	0.00	0.00	0.00	0.00	-6.533691	-0.310059	-0.851074	94.639999	-161.000000	132.229996	5.00	0.00	0.00
3.06	0.25	0.25	0.00	0.00	0.00	0.25	0.00	1.50	8.75	14.00	15.00	13.00	10.00	21.50	8.50	7.50	-0.503418	0.215332	1.098145	6.300000	275.660004	-34.299999	985.00	0.27	-0.06	0.00	0.00	0.00	0.00	0.00	0.00	0.00	0.00	0.00	0.00	0.25	0.00	0.00	0.00	0.00	0.00	-6.736816	-0.353516	-0.892578	92.260002	-66.500000	135.660004	3.00	0.00	0.00
3.07	0.00	0.00	0.00	0.50	0.00	0.00	0.00	1.25	9.00	14.25	15.50	12.75	9.25	22.25	8.50	7.75	-0.543457	0.214355	1.140137	4.410000	321.579987	-40.950001	989.00	0.28	-0.05	0.00	0.00	0.00	0.00	0.00	0.00	0.00	0.00	0.00	0.00	0.00	0.00	0.00	0.00	0.00	0.00	-6.648926	-0.542969	-0.576172	71.120003	10.710000	145.460007	0.00	0.00	0.00
3.08	0.00	0.00	0.00	0.25	0.00	0.00	0.00	1.00	9.00	14.50	15.50	12.75	8.25	22.25	9.00	8.00	-0.623047	0.184570	1.229004	6.370000	366.519989	-47.740002	983.00	0.28	-0.04	0.00	0.00	0.00	0.00	0.00	0.00	0.00	0.00	0.00	0.00	0.00	0.00	0.00	0.00	0.00	0.00	-6.368652	-0.621582	-0.357422	42.349998	67.410004	148.960007	0.00	0.00	0.00
3.09	0.00	0.00	0.00	0.00	0.00	0.00	0.00	1.00	9.00	14.25	15.25	12.00	7.50	21.75	8.50	7.75	-0.672363	0.168945	1.273438	7.560000	413.980011	-54.599998	949.00	0.28	-0.04	0.00	0.00	0.00	0.00	0.00	0.00	0.00	0.00	0.00	0.00	0.00	0.00	0.00	0.00	0.00	0.00	-4.698730	0.100098	0.278809	27.790001	122.150002	131.949997	0.00	0.00	0.00
3.10	0.25	0.00	0.00	0.25	0.00	0.00	0.00	0.75	8.00	13.50	15.00	11.25	7.00	21.00	8.25	7.50	-0.787109	0.244141	1.382812	7.070000	468.019989	-59.360001	905.00	0.28	-0.04	2.00	1.75	0.75	1.25	0.00	0.00	0.00	0.00	0.00	0.00	0.00	0.00	0.00	0.00	0.00	0.00	2.688965	-0.700684	1.492676	83.720001	201.320007	100.800003	59.00	-0.36	-0.05
3.11	0.00	0.00	0.00	0.00	0.00	0.00	0.00	0.50	6.25	11.75	13.75	10.00	5.75	20.25	8.00	7.00	-1.095215	0.283691	1.763672	22.680000	530.739990	-57.889999	806.00	0.29	-0.04	9.75	10.00	1.75	4.25	0.00	0.00	0.00	0.00	0.00	0.00	0.00	0.00	0.00	0.00	0.00	0.00	1.109375	-1.740723	-0.027344	-68.250000	156.520004	-7.000000	259.00	-0.38	-0.05
3.12	0.00	0.00	0.00	0.00	0.00	0.00	0.00	0.50	3.75	9.75	11.25	8.25	5.25	19.25	7.25	6.00	-1.521973	0.198242	2.539551	53.549999	586.530029	-44.730000	681.00	0.29	-0.05	18.00	17.75	3.25	6.25	0.00	0.00	0.00	0.00	0.00	0.00	0.00	0.00	0.00	0.00	0.00	0.00	-0.798340	-0.300781	0.928223	-205.100006	271.600006	-101.779999	454.00	-0.38	-0.04
3.13	0.00	0.00	0.00	0.00	0.00	0.00	0.00	0.25	2.75	7.75	8.25	6.00	4.00	16.50	6.25	4.00	-2.620605	0.929688	2.666016	87.919998	633.570007	-22.260000	533.00	0.30	-0.03	23.00	21.50	4.75	8.50	0.00	0.50	0.00	0.00	0.00	0.00	0.00	0.00	0.00	0.00	0.00	0.00	-1.308594	0.924316	2.291504	-148.470001	428.750000	-105.699997	588.00	-0.37	-0.04
3.14	0.00	0.00	0.00	0.00	0.00	0.00	0.00	0.00	1.50	5.50	5.00	4.00	2.25	13.50	4.75	2.00	-3.152344	1.445801	3.285156	174.789993	681.729980	6.720000	367.00	0.31	-0.02	25.75	23.50	6.75	10.50	0.00	2.50	0.00	0.00	0.00	0.00	0.00	0.00	0.00	0.00	0.00	0.00	-1.661621	0.065430	4.653809	-18.969999	431.549988	-48.650002	701.00	-0.36	-0.05
3.15	0.25	0.00	0.00	0.00	0.00	0.00	0.00	0.00	1.25	3.75	3.50	3.25	1.75	10.25	3.25	0.75	-2.443359	-0.396973	5.553223	295.119995	658.000000	9.240000	270.00	0.30	-0.01	26.50	24.25	8.00	11.75	0.50	5.00	0.00	0.00	0.00	0.00	0.00	0.00	0.00	0.00	0.00	0.00	-1.251953	0.286621	4.432617	21.420000	375.410004	-46.060001	776.00	-0.35	-0.06
3.16	0.00	0.00	0.00	0.00	0.00	0.00	0.00	0.00	0.50	3.00	2.75	2.50	1.25	8.00	2.50	0.25	-1.632812	-0.450684	4.179199	302.890015	641.619995	-15.890000	200.00	0.31	-0.01	26.00	23.50	9.00	12.25	1.00	7.25	0.25	1.00	0.00	0.00	0.00	0.00	0.00	0.00	0.00	0.00	-0.927734	0.698242	3.133789	29.889999	282.869995	-46.130001	829.00	-0.33	-0.06
3.17	0.00	0.00	0.00	0.00	0.00	0.00	0.00	0.00	0.50	2.75	2.00	1.50	0.75	4.00	0.75	0.00	-0.594238	-0.531250	4.857910	280.420013	619.640015	-45.849998	120.00	0.29	-0.01	25.25	22.50	9.00	12.50	1.00	8.25	0.25	1.50	0.00	0.00	0.00	0.00	0.25	0.00	0.00	0.00	-0.355957	0.998535	1.108887	-10.220000	181.160004	-20.299999	835.00	-0.33	-0.07
3.18	0.00	0.00	0.00	0.00	0.00	0.00	0.00	0.00	0.25	1.00	1.00	0.50	0.00	2.25	0.25	0.00	-0.042969	0.431641	3.248535	267.470001	607.599976	-103.599998	51.00	0.31	0.04	24.50	21.75	9.00	12.75	1.75	9.00	0.25	2.50	0.00	0.00	0.00	0.25	0.25	0.00	0.00	0.00	-0.343750	0.139648	1.432617	-45.430000	136.360001	-2.940000	858.00	-0.31	-0.08
3.19	0.00	0.00	0.00	0.00	0.00	0.00	0.00	0.00	0.00	1.25	0.75	1.00	0.00	2.00	0.00	0.00	0.258301	3.071289	10.429688	214.130005	386.470001	-137.899994	48.00	0.00	0.00	24.00	21.50	9.25	13.00	2.00	9.50	0.25	3.00	0.00	0.00	0.25	0.25	0.50	0.00	0.00	0.00	-0.274414	0.301758	1.305176	-55.510002	58.660000	-3.430000	876.00	-0.31	-0.09
3.20	0.00	0.00	0.00	0.00	0.00	0.00	0.00	0.00	0.00	1.00	1.00	0.50	0.00	1.25	0.25	0.00	2.245605	-0.065918	5.395996	42.980000	75.320000	-48.439999	39.00	0.00	0.00	23.50	21.00	9.50	13.00	2.25	9.75	0.25	3.25	0.00	0.00	0.00	0.00	0.75	0.00	0.00	0.00	-0.175293	0.191895	1.088379	-51.730000	30.730000	-0.980000	876.00	-0.30	-0.09
3.21	0.00	0.00	0.00	0.00	0.00	0.00	0.00	0.00	0.00	1.00	1.00	0.50	0.00	0.75	0.00	0.00	1.045898	0.514160	3.936035	-136.289993	-151.130005	4.900000	33.00	0.00	0.00	23.00	20.50	9.50	12.75	2.50	9.75	0.25	3.25	0.00	0.00	0.00	0.00	0.75	0.00	0.00	0.00	-0.150391	0.134277	1.041992	-44.380001	17.780001	-3.430000	866.00	-0.30	-0.09
3.22	0.00	0.00	0.00	0.00	0.00	0.00	0.00	0.00	0.00	1.00	1.00	0.50	0.00	1.00	0.00	0.00	1.109375	0.149902	2.801758	-227.220001	-230.300003	14.280000	35.00	0.00	0.00	22.50	20.00	9.25	12.50	2.50	9.50	0.25	3.25	0.00	0.00	0.25	0.50	1.00	0.00	0.00	0.00	-0.125488	0.139160	0.968750	-34.580002	11.900000	-5.880000	858.00	-0.30	-0.09
3.23	0.00	0.00	0.00	0.00	0.00	0.00	0.00	0.00	0.00	1.00	0.75	0.50	0.00	1.00	0.00	0.00	1.353027	0.491699	2.219238	-228.550003	-260.260010	-4.690000	32.00	0.00	0.00	21.75	19.25	9.25	12.25	2.75	9.50	0.25	3.50	0.00	0.00	0.00	0.25	1.25	0.00	0.00	0.00	-0.120117	0.171387	0.969727	-30.100000	13.300000	-7.490000	844.00	-0.29	-0.09
3.24	0.00	0.00	0.00	0.00	0.00	0.00	0.00	0.00	0.00	0.50	0.50	0.25	0.00	0.25	0.00	0.00	1.229004	0.524414	2.244629	-181.160004	-300.440002	-30.799999	15.00	0.00	0.00	21.00	18.00	9.00	11.75	2.75	9.25	0.25	3.25	0.00	0.00	0.25	0.00	1.00	0.00	0.00	0.00	-0.128906	0.166016	0.977051	-29.610001	16.660000	-8.400000	808.00	-0.29	-0.09
3.25	0.00	0.00	0.00	0.00	0.00	0.00	0.00	0.00	0.00	0.75	0.25	0.00	0.00	0.25	0.00	0.00	1.074219	0.375000	2.291504	-118.650002	-355.390015	-56.490002	13.00	0.00	0.00	19.50	16.50	8.75	11.00	2.50	9.00	0.25	3.25	0.00	0.00	0.00	0.00	1.25	0.00	0.00	0.00	-0.136230	0.173828	0.972656	-31.219999	18.830000	-8.680000	761.00	-0.29	-0.09
3.26	0.00	0.00	0.00	0.00	0.00	0.00	0.00	0.00	0.00	0.50	0.25	0.25	0.00	0.25	0.00	0.00	0.809082	0.243652	2.256836	-76.510002	-418.040009	-74.550003	13.00	0.00	0.00	18.00	15.25	8.25	10.50	2.75	8.75	0.25	3.00	0.00	0.50	0.25	0.25	1.00	0.00	0.00	0.00	-0.152344	0.176758	0.951660	-35.490002	21.350000	-8.610000	728.00	-0.28	-0.09
3.27	0.00	0.00	0.00	0.00	0.00	0.00	0.00	0.00	0.00	0.25	0.25	0.00	0.00	0.25	0.00	0.00	0.510742	0.212891	2.191895	-72.660004	-479.779999	-83.860001	7.00	0.00	0.00	16.50	13.50	7.75	10.00	2.75	8.50	0.25	2.75	0.00	0.50	0.25	0.25	1.50	0.00	0.00	0.00	-0.169434	0.131348	0.966309	-41.090000	24.080000	-8.050000	683.00	-0.28	-0.09
3.28	0.00	0.00	0.00	0.00	0.00	0.00	0.00	0.00	0.00	0.25	0.00	0.25	0.00	0.00	0.00	0.00	0.170898	0.332520	1.949707	-89.110001	-530.039978	-85.610001	5.00	0.00	0.00	15.00	12.00	7.50	9.25	2.75	8.00	0.25	2.75	0.00	0.50	0.25	0.50	1.25	0.00	0.00	0.00	-0.166016	0.141602	0.981934	-41.369999	23.730000	-7.560000	638.00	-0.27	-0.10
3.29	0.00	0.00	0.00	0.00	0.00	0.00	0.00	0.00	0.00	0.25	0.00	0.00	0.00	0.00	0.00	0.00	-0.101074	0.443359	1.672852	-98.629997	-557.479980	-83.230003	3.00	0.00	0.00	13.00	10.00	7.00	8.75	2.75	7.50	0.25	2.50	0.00	1.25	0.50	0.25	1.50	0.00	0.00	0.00	-0.166504	0.132324	0.971680	-38.639999	21.700001	-7.210000	588.00	-0.26	-0.10
3.30	0.00	0.00	0.00	0.00	0.00	0.00	0.00	0.00	0.00	0.25	0.00	0.00	0.00	0.00	0.00	0.00	-0.332520	0.540039	1.339355	-87.989998	-562.520020	-79.590004	3.00	0.00	0.00	11.00	8.75	6.50	8.25	2.75	7.25	0.25	2.50	0.00	1.00	0.50	0.25	1.50	0.00	0.25	0.00	-0.170410	0.119629	0.968262	-37.029999	19.530001	-7.630000	542.00	-0.25	-0.10
3.31	0.00	0.00	0.00	0.00	0.00	0.00	0.00	0.00	0.00	0.25	0.00	0.00	0.00	0.00	0.00	0.00	-0.522461	0.642578	1.148438	-60.060001	-549.010010	-74.690002	3.00	0.00	0.00	9.00	7.75	6.00	7.50	3.00	6.50	0.25	2.50	0.00	1.25	0.75	0.25	1.75	0.25	0.00	0.00	-0.152344	0.121094	0.969727	-35.000000	18.760000	-8.330000	500.00	-0.23	-0.11
3.32	0.00	0.00	0.00	0.00	0.00	0.00	0.00	0.00	0.00	0.00	0.00	0.00	0.00	0.00	0.00	0.00	-0.656250	0.671875	1.187012	-23.309999	-524.650024	-63.910000	0.00	0.00	0.00	7.50	6.25	5.50	7.00	3.25	6.00	0.25	2.25	0.50	1.75	0.75	0.75	1.75	0.25	0.25	0.00	-0.164551	0.128418	0.971191	-31.360001	18.129999	-9.380000	473.00	-0.20	-0.10
3.33	0.00	0.00	0.00	0.00	0.00	0.00	0.00	0.00	0.00	0.00	0.25	0.00	0.00	0.00	0.00	0.00	-0.699219	0.625488	1.405762	6.580000	-501.339996	-46.130001	3.00	0.00	0.00	6.25	4.75	5.00	5.75	3.25	5.50	0.25	2.00	0.25	1.75	1.25	0.50	2.00	0.75	0.50	0.00	-0.211426	0.101074	1.010742	-27.790001	16.030001	-9.870000	426.00	-0.17	-0.10
3.34	0.00	0.00	0.00	0.00	0.00	0.00	0.00	0.00	0.00	0.00	0.00	0.00	0.00	0.50	0.00	0.00	-0.727051	0.565918	1.701660	22.330000	-487.339996	-24.500000	4.00	0.00	0.00	4.75	3.50	4.25	5.50	3.75	5.25	0.50	2.00	0.50	2.25	1.50	0.75	2.00	1.00	0.50	0.25	-0.129883	0.101562	0.949219	-23.660000	14.140000	-10.850000	411.00	-0.13	-0.10
3.35	0.00	0.00	0.00	0.00	0.00	0.00	0.00	0.00	0.00	0.00	0.00	0.00	0.00	0.00	0.00	0.00	-0.791504	0.563477	1.985840	26.530001	-483.279999	-2.310000	0.00	0.00	0.00	3.50	2.25	3.75	4.75	3.75	4.25	0.50	2.25	0.75	2.75	1.50	1.25	2.50	1.75	0.50	0.25	-0.212402	0.091309	0.964355	-19.809999	14.910000	-12.460000	391.00	-0.08	-0.10
3.36	0.00	0.00	0.00	0.00	0.00	0.00	0.00	0.00	0.00	0.00	0.00	0.00	0.00	0.00	0.00	0.00	-0.856934	0.632324	2.301758	25.549999	-483.700012	19.389999	0.00	0.00	0.00	2.50	1.50	3.25	4.00	3.75	3.75	0.50	2.00	1.50	3.50	2.00	1.25	3.00	2.75	1.00	0.75	-0.189941	0.090332	0.998047	-16.170000	17.570000	-14.210000	394.00	-0.02	-0.08
3.37	0.00	0.00	0.00	0.00	0.00	0.00	0.00	0.00	0.00	0.00	0.00	0.00	0.00	0.00	0.00	0.00	-0.962402	0.802246	2.733887	21.490000	-486.570007	43.259998	0.00	0.00	0.00	1.75	0.75	2.75	3.50	3.75	3.25	0.50	2.00	2.00	4.25	2.25	2.00	4.00	3.75	1.00	1.00	-0.200684	0.093750	0.948730	-11.690000	21.910000	-16.030001	406.00	0.03	-0.08
3.38	0.00	0.00	0.00	0.00	0.00	0.00	0.00	0.00	0.00	0.00	0.00	0.00	0.00	0.00	0.00	0.00	-1.300293	0.932617	3.112793	19.110001	-493.429993	73.919998	0.00	0.00	0.00	1.50	1.00	2.00	2.75	3.50	3.00	0.25	2.00	2.50	6.00	3.00	2.50	5.00	5.00	1.25	1.50	-0.225586	0.114746	0.979492	-5.810000	26.110001	-17.780001	443.00	0.08	-0.08
3.39	0.00	0.00	0.00	0.00	0.00	0.00	0.00	0.00	0.00	0.00	0.00	0.00	0.00	0.00	0.00	0.00	-2.523438	0.992676	3.000488	35.910000	-520.099976	132.509995	0.00	0.00	0.00	1.50	0.75	1.75	2.50	3.25	3.00	0.25	2.25	3.50	8.00	4.00	3.75	5.75	6.50	1.75	2.00	-0.230469	0.099609	0.965332	1.750000	36.400002	-18.270000	521.00	0.12	-0.08
3.40	0.00	0.00	0.00	0.00	0.00	0.00	0.00	0.00	0.00	0.00	0.00	0.00	0.00	0.25	0.00	0.00	-3.225098	0.809082	2.983398	58.799999	-516.320007	158.970001	2.00	0.00	0.00	0.50	0.50	1.50	2.00	2.75	2.50	0.25	2.50	4.25	9.00	5.75	5.00	7.00	8.25	2.25	2.50	-0.221680	0.083008	0.983887	6.650000	42.279999	-19.180000	578.00	0.16	-0.08
3.41	0.00	0.00	0.00	0.00	0.00	0.00	0.00	0.00	0.00	0.00	0.00	0.00	0.00	0.00	0.00	0.00	-3.883301	0.638672	2.759277	66.430000	-500.360016	183.539993	0.00	0.00	0.00	1.00	0.50	1.50	2.00	2.00	2.25	0.00	2.25	5.75	10.00	7.75	7.25	8.00	9.75	2.75	3.25	-0.270020	0.113281	0.985352	13.510000	49.490002	-19.389999	670.00	0.18	-0.08
3.42	0.25	0.00	0.00	0.00	0.00	0.00	0.00	0.00	0.00	0.00	0.00	0.00	0.00	0.00	0.00	0.00	-4.599121	0.421387	2.459961	58.869999	-472.570007	201.740005	3.00	0.00	0.00	0.50	0.25	0.75	1.50	1.75	1.25	0.00	2.50	6.00	11.00	8.75	8.25	8.75	12.00	3.50	5.00	-0.332031	0.006348	1.068359	21.559999	58.520000	-18.480000	717.00	0.21	-0.08
3.43	0.00	0.00	0.00	0.00	0.00	0.00	0.00	0.00	0.00	0.00	0.00	0.00	0.00	0.00	0.00	0.00	-5.229004	0.149414	1.844238	55.720001	-426.579987	213.220001	0.00	0.00	0.00	0.75	0.25	0.25	1.00	1.25	1.25	0.00	2.25	7.00	11.75	9.75	9.25	9.25	14.25	5.00	6.00	-0.257812	0.145508	1.015137	25.969999	72.239998	-16.240000	786.00	0.23	-0.07
3.44	0.00	0.00	0.00	0.00	0.00	0.00	0.00	0.00	0.00	0.00	0.00	0.00	0.00	0.00	0.00	0.00	-5.641113	-0.186035	0.937500	41.369999	-364.279999	209.020004	0.00	0.00	0.00	0.00	0.00	0.25	1.25	0.50	0.75	0.00	2.00	7.25	12.50	10.50	10.00	9.75	16.25	6.00	6.75	-0.297852	0.138184	1.052246	31.850000	89.320000	-17.430000	824.00	0.25	-0.07
3.45	0.00	0.00	0.00	0.00	0.00	0.00	0.00	0.00	0.00	0.00	0.00	0.00	0.00	0.00	0.00	0.00	-6.067871	-0.239258	0.315918	9.240000	-291.899994	180.949997	0.00	0.00	0.00	0.25	0.50	0.00	1.00	0.25	0.25	0.00	2.00	7.75	13.50	11.25	10.75	10.25	18.75	6.75	7.25	-0.301758	0.203613	1.103027	41.580002	114.449997	-20.719999	886.00	0.26	-0.06
3.46	0.00	0.00	0.00	0.00	0.00	0.00	0.00	0.00	0.00	0.00	0.00	0.00	0.00	0.00	0.00	0.00	-6.489258	-0.020508	-0.519531	-17.920000	-220.990005	130.199997	0.00	0.00	0.00	0.00	0.00	0.00	0.50	0.00	0.25	0.00	1.75	8.00	14.00	12.00	11.25	10.00	20.50	7.75	8.00	-0.402832	0.257324	1.148438	56.490002	152.529999	-25.410000	916.00	0.27	-0.06
3.47	0.00	0.00	0.00	0.00	0.00	0.00	0.00	0.00	0.00	0.00	0.00	0.00	0.00	0.00	0.00	0.00	-6.381348	0.458008	-1.428223	-22.540001	-145.389999	67.830002	0.00	0.00	0.00	0.25	0.00	0.00	0.50	0.00	0.25	0.00	1.25	8.25	14.50	12.25	11.25	10.00	22.25	8.25	8.50	-0.300293	0.231934	1.219238	64.889999	195.229996	-31.360001	945.00	0.27	-0.05
3.48	0.00	0.25	0.00	0.00	0.00	0.00	0.00	0.00	0.00	0.00	0.00	0.00	0.00	0.00	0.00	0.00	-6.388184	0.848145	-1.439941	9.660000	-59.430000	24.219999	2.00	0.00	0.00	0.25	0.25	0.25	1.00	0.00	0.00	0.00	1.25	8.50	14.75	12.25	11.25	9.50	23.75	9.00	9.00	-0.390625	0.285156	1.125977	34.160000	262.500000	-44.170002	978.00	0.27	-0.05
3.49	0.00	0.00	0.00	0.00	0.00	0.00	0.00	0.00	0.00	0.00	0.00	0.00	0.00	0.00	0.00	0.00	-8.604492	1.119629	-1.793457	55.860001	15.960000	11.410000	0.00	0.00	0.00	0.00	0.00	0.00	0.25	0.00	0.00	0.00	1.25	8.75	15.25	12.25	11.00	8.75	24.75	9.50	9.00	-0.467773	0.308594	1.083496	0.350000	316.610016	-59.150002	975.00	0.28	-0.04
3.50	1.50	1.25	0.75	1.50	0.00	0.00	0.00	0.00	0.00	0.00	0.00	0.00	0.00	0.00	0.00	0.00	-6.895996	-0.096680	-2.793457	123.199997	221.619995	65.940002	52.00	-0.35	-0.06	0.00	0.00	0.00	0.50	0.00	0.00	0.00	0.75	9.00	15.50	12.25	10.50	8.00	25.25	9.50	9.25	-0.470703	0.287598	1.137207	-21.629999	359.309998	-74.269997	970.00	0.29	-0.03
3.51	7.25	7.25	1.50	3.25	0.00	0.00	0.00	0.00	0.00	0.00	0.00	0.00	0.00	0.00	0.00	0.00	-1.889160	-0.721191	0.080078	62.090000	375.410004	62.230000	194.00	-0.37	-0.05	0.00	0.00	0.00	0.25	0.00	0.00	0.00	1.00	9.25	16.00	12.00	10.00	7.00	24.75	9.50	9.50	-0.577148	0.206543	1.466309	-35.349998	399.910004	-86.870003	960.00	0.29	-0.02
3.52	22.00	22.50	3.25	5.50	0.00	0.00	0.00	0.00	0.00	0.00	0.00	0.00	0.00	0.00	0.00	0.00	1.252441	-0.526367	4.718262	-41.020000	383.040009	5.250000	531.00	-0.39	-0.04	0.25	0.00	0.00	0.00	0.00	0.00	0.00	0.75	9.25	15.75	12.00	9.00	5.75	24.25	9.25	9.50	-0.595215	0.193848	1.470703	-52.709999	445.059998	-94.570000	925.00	0.29	-0.01
3.53	31.00	29.75	6.75	8.50	0.00	0.00	0.00	0.00	0.00	0.00	0.00	0.00	0.00	0.00	0.00	0.00	-1.341797	-0.552246	1.082031	-21.910000	390.809998	-9.520000	763.00	-0.38	-0.03	0.00	0.00	0.00	0.00	0.00	0.00	0.00	0.00	8.25	15.00	11.25	8.00	4.75	23.00	8.50	9.00	-0.787109	0.324219	1.634766	-74.550003	504.559998	-104.720001	842.00	0.30	-0.01
3.54	35.00	34.50	8.75	12.00	0.50	0.75	0.00	0.00	0.00	0.00	0.00	0.25	0.00	0.00	0.00	0.00	-2.384277	-0.681641	3.631348	108.989998	486.360016	-38.709999	925.00	-0.37	-0.04	0.00	0.00	0.00	0.00	0.00	0.00	0.00	0.00	6.75	13.25	10.25	6.25	2.75	21.25	7.50	8.25	-1.204102	0.394043	2.320801	-78.680000	571.900024	-107.940002	728.00	0.30	0.00
3.55	35.75	36.00	11.00	15.50	1.75	3.50	0.00	0.25	0.00	0.00	0.00	0.25	0.00	0.00	0.00	0.00	-1.973145	0.295898	6.405273	178.710007	394.869995	-47.040001	1058.00	-0.36	-0.05	0.00	0.00	0.00	0.00	0.00	0.00	0.00	0.00	4.75	10.50	8.00	4.00	1.00	19.00	6.25	6.50	-2.117188	0.678223	3.075195	-36.959999	622.440002	-96.669998	569.00	0.31	0.02
3.56	34.50	34.50	12.00	16.25	2.25	5.75	0.00	1.00	0.00	0.00	0.00	0.50	0.00	0.00	0.00	0.00	-1.482910	1.466797	5.336914	21.910000	256.760010	-58.029999	1095.00	-0.34	-0.06	0.00	0.00	0.00	0.00	0.00	0.00	0.00	0.00	2.75	8.50	5.25	2.25	0.50	15.50	4.75	3.75	-2.921387	1.224609	3.405762	60.130001	670.250000	-73.500000	410.00	0.32	0.03
3.57	32.75	32.25	12.00	16.25	2.25	6.75	0.00	1.25	0.00	0.00	0.00	0.50	0.25	0.00	0.00	0.00	-0.452637	0.472656	1.863281	-51.170002	158.619995	-16.660000	1073.00	-0.34	-0.06	0.00	0.00	0.00	0.00	0.00	0.00	0.00	0.00	2.00	6.75	3.50	1.75	0.50	10.75	3.50	1.25	-2.990723	0.848145	3.717773	144.479996	700.770020	-63.910000	291.00	0.32	0.04
3.58	30.50	30.50	11.75	16.50	2.75	7.50	0.00	1.75	0.00	0.50	0.00	0.75	0.50	0.00	0.00	0.00	-0.160156	-0.379395	1.323242	-51.099998	124.669998	-9.030000	1064.00	-0.32	-0.07	0.00	0.00	0.00	0.00	0.00	0.00	0.00	0.00	1.25	5.25	2.75	1.25	0.25	7.00	1.75	0.50	-0.747559	-0.342285	5.253906	186.619995	665.489990	-106.820000	196.00	0.31	0.04
3.59	29.50	29.75	11.75	17.00	2.75	8.25	0.25	2.50	0.00	0.25	0.25	0.50	1.00	0.00	0.00	0.00	-0.467773	0.338379	1.281738	-45.849998	69.930000	-10.080000	1078.00	-0.32	-0.08	0.00	0.00	0.00	0.00	0.00	0.00	0.00	0.00	1.25	3.75	2.00	0.50	0.00	2.75	0.50	0.00	0.145508	0.418457	3.527344	47.389999	609.770020	-176.889999	110.00	0.28	0.06
3.60	29.00	29.00	11.25	17.00	3.00	8.75	0.00	3.50	0.00	0.50	0.25	0.50	1.25	0.25	0.00	0.00	-0.236328	0.045410	1.131836	-42.000000	28.280001	3.500000	1087.00	-0.31	-0.09	0.00	0.00	0.00	0.00	0.00	0.00	0.00	0.00	0.50	1.75	1.00	0.25	0.00	1.50	0.50	0.00	0.927246	1.206055	5.486816	-33.950001	491.890015	-219.240005	56.00	0.29	0.05
3.61	26.75	28.25	11.25	17.25	3.00	9.25	0.25	4.50	0.00	0.50	0.25	0.75	1.75	0.00	0.00	0.00	-0.233398	0.111816	1.008789	-10.570000	12.880000	2.800000	1088.00	-0.30	-0.10	0.00	0.00	0.00	0.00	0.00	0.00	0.00	0.00	0.50	2.00	1.00	0.00	0.00	0.50	0.00	0.00	-0.259766	3.661621	9.441895	33.459999	366.029999	-217.839996	42.00	0.00	0.00
3.62	25.25	27.25	10.50	16.75	2.75	9.50	0.00	5.00	0.00	0.50	0.25	0.75	1.75	0.00	0.00	0.00	-0.190430	0.148438	0.976074	4.760000	11.480000	2.940000	1054.00	-0.29	-0.10	0.00	0.00	0.00	0.00	0.00	0.00	0.00	0.00	0.00	2.00	1.00	0.00	0.00	0.75	0.00	0.00	2.414062	1.086914	6.030762	115.010002	84.699997	-181.160004	38.00	0.00	0.00
3.63	23.25	24.75	10.00	16.00	2.75	9.75	0.00	5.25	0.00	0.50	0.25	0.75	2.00	0.00	0.00	0.00	-0.207031	0.107910	0.950684	6.790000	12.390000	0.000000	1005.00	-0.29	-0.11	0.00	0.00	0.00	0.00	0.00	0.00	0.00	0.00	0.00	1.75	0.75	0.00	0.00	0.50	0.25	0.00	1.485840	1.375488	4.120605	98.699997	-128.589996	-139.789993	33.00	0.00	0.00
3.64	21.00	23.25	9.25	14.75	2.50	9.75	0.00	5.50	0.00	0.25	0.25	0.50	2.25	0.00	0.00	0.00	-0.184570	0.082031	0.983398	11.060000	12.250000	-2.660000	944.00	-0.28	-0.12	0.00	0.00	0.00	0.00	0.00	0.00	0.00	0.00	0.25	1.25	0.75	0.00	0.00	0.00	0.00	0.00	1.527832	0.896484	2.693848	37.029999	-222.949997	-91.419998	24.00	0.00	0.00
3.65	18.00	19.75	8.50	13.50	2.25	9.50	0.00	5.75	0.00	0.25	0.50	0.75	2.50	0.25	0.00	0.25	-0.187012	0.127441	0.969238	17.920000	14.280000	-3.640000	868.00	-0.27	-0.13	0.00	0.00	0.25	0.00	0.00	0.00	0.00	0.00	0.25	0.75	1.00	0.00	0.00	0.00	0.00	0.00	1.468262	1.033203	2.107910	-17.080000	-271.040009	-50.610001	24.00	0.00	0.00
3.66	14.50	15.25	7.75	11.50	2.00	9.50	0.00	6.00	0.00	0.50	0.50	0.75	2.50	0.50	0.00	0.25	-0.176758	0.128418	0.950195	17.780001	19.460001	-4.200000	765.00	-0.25	-0.13	0.00	0.00	0.00	0.00	0.00	0.00	0.00	0.00	0.00	1.25	1.00	0.00	0.00	0.00	0.00	0.00	1.266602	1.031250	2.016602	-20.860001	-310.309998	-19.389999	23.00	0.00	0.00
