# time	left pressure 1[N/cm²]	left pressure 2[N/cm²]	left pressure 3[N/cm²]	left pressure 4[N/cm²]	left pressure 5[N/cm²]	left pressure 6[N/cm²]	left pressure 7[N/cm²]	left pressure 8[N/cm²]	left pressure 9[N/cm²]	left pressure 10[N/cm²]	left pressure 11[N/cm²]	left pressure 12[N/cm²]	left pressure 13[N/cm²]	left pressure 14[N/cm²]	left pressure 15[N/cm²]	left pressure 16[N/cm²]	left acceleration X[g]	left acceleration Y[g]	left acceleration Z[g]	left angular X[dps]	left angular Y[dps]	left angular Z[dps]	left total force[N]	left center of pressure X[%]	left center of pressure Y[%]	right pressure 1[N/cm²]	right pressure 2[N/cm²]	right pressure 3[N/cm²]	right pressure 4[N/cm²]	right pressure 5[N/cm²]	right pressure 6[N/cm²]	right pressure 7[N/cm²]	right pressure 8[N/cm²]	right pressure 9[N/cm²]	right pressure 10[N/cm²]	right pressure 11[N/cm²]	right pressure 12[N/cm²]	right pressure 13[N/cm²]	right pressure 14[N/cm²]	right pressure 15[N/cm²]	right pressure 16[N/cm²]	right acceleration X[g]	right acceleration Y[g]	right acceleration Z[g]	right angular X[dps]	right angular Y[dps]	right angular Z[dps]	right total force[N]	right center of pressure X[%]	right center of pressure Y[%]
0.00	4.00	3.00	3.25	3.25	2.00	1.25	2.00	3.00	3.50	3.50	3.50	3.75	6.50	4.00	1.25	1.50	-0.257324	0.104004	0.943848	-3.850000	2.590000	1.540000	571.00	0.03	-0.08	2.25	0.75	1.75	1.25	1.25	0.25	1.75	3.50	1.75	2.00	2.75	4.00	8.75	4.25	0.50	0.75	-0.203613	0.131348	0.948242	-4.480000	-2.100000	0.140000	432.00	0.09	-0.13
0.01	3.75	3.00	3.50	2.75	1.75	1.25	1.75	3.00	3.25	3.25	3.50	3.75	6.50	4.00	0.75	1.50	-0.258789	0.100586	0.936035	-3.640000	2.310000	1.610000	546.00	0.03	-0.09	2.50	0.75	1.75	1.25	1.50	0.50	1.75	3.75	1.75	2.00	2.50	4.25	8.75	4.50	0.50	0.75	-0.194824	0.140137	0.949707	-4.550000	-2.240000	0.140000	447.00	0.08	-0.13
0.02	4.00	3.00	3.00	3.25	1.75	1.25	2.00	3.00	3.25	3.00	3.25	3.75	6.50	4.00	1.00	1.50	-0.256836	0.100586	0.943848	-3.710000	2.450000	1.540000	550.00	0.03	-0.09	2.50	1.00	1.75	1.50	1.25	0.50	2.00	3.75	1.75	2.00	2.75	4.25	8.75	4.25	0.50	1.00	-0.194336	0.134277	0.952148	-4.550000	-2.030000	0.070000	456.00	0.08	-0.13
0.03																										2.25	1.00	2.25	1.25	1.25	0.25	2.00	3.50	1.75	2.00	2.75	4.25	8.75	4.25	0.50	0.75	-0.202637	0.131836	0.950195	-4.550000	-1.890000	-0.070000	448.00	0.08	-0.13
0.04	3.25	3.00	3.50	2.50	1.75	1.50	2.00	3.25	3.25	3.25	3.25	3.75	6.50	3.75	1.00	1.50	-0.252930	0.102539	0.945801	-3.430000	2.870000	1.400000	546.00	0.04	-0.09	2.50	1.00	2.50	1.50	1.50	0.50	2.00	3.75	1.75	2.00	2.75	4.25	8.75	4.25	0.50	1.00	-0.196289	0.138184	0.951660	-4.620000	-1.750000	-0.210000	468.00	0.07	-0.13
0.05	4.00	3.00	3.50	2.50	1.75	1.25	2.00	3.25	3.25	3.25	3.25	3.50	6.50	4.00	0.75	1.25	-0.249512	0.103516	0.944336	-2.940000	3.150000	1.470000	546.00	0.03	-0.08	2.50	1.00	2.00	1.50	1.50	0.50	2.00	3.75	2.00	2.00	2.50	4.00	8.75	4.25	0.25	1.00	-0.193848	0.134766	0.951172	-4.690000	-1.540000	-0.140000	457.00	0.07	-0.13
0.06	3.75	3.00	3.50	3.00	1.75	1.75	2.00	3.25	3.75	3.00	3.50	4.00	6.50	3.50	1.00	1.25	-0.252930	0.101562	0.945312	-2.450000	3.360000	1.470000	567.00	0.03	-0.09	2.50	1.00	2.00	1.75	1.50	0.50	2.00	3.75	1.75	2.25	2.75	4.00	8.50	3.75	0.50	1.00	-0.200195	0.129883	0.943848	-4.340000	-1.330000	-0.070000	458.00	0.07	-0.13
0.07	3.75	3.50	3.50	3.00	1.75	1.50	2.00	3.25	3.25	3.25	3.50	3.50	6.50	3.75	1.00	1.50	-0.249512	0.100586	0.943848	-1.960000	3.710000	1.400000	563.00	0.02	-0.09	2.75	1.00	2.25	1.50	1.50	0.25	2.25	3.50	1.75	2.00	2.75	4.00	8.75	4.00	0.50	1.00	-0.204590	0.126465	0.945312	-4.130000	-1.260000	0.140000	460.00	0.07	-0.12
0.08	4.25	3.50	3.50	3.00	1.75	1.50	2.00	3.50	3.50	3.00	3.50	3.75	6.50	3.75	1.00	1.50	-0.254395	0.099121	0.944336	-0.840000	4.060000	1.820000	576.00	0.02	-0.09	2.75	1.00	2.25	1.75	1.50	0.50	2.00	3.75	1.75	1.75	2.75	3.75	8.50	4.00	0.50	1.00	-0.200684	0.132812	0.948242	-3.710000	-0.910000	0.140000	457.00	0.06	-0.13
0.09	3.75	3.00	3.50	3.00	1.50	1.25	2.00	3.50	3.25	3.00	3.50	3.75	7.50	3.25	1.00	1.50	-0.255371	0.104492	0.939453	-0.420000	4.340000	1.820000	561.00	0.03	-0.10	2.75	1.00	2.50	1.50	1.50	0.75	2.25	3.75	1.75	2.00	2.75	4.25	8.75	4.00	0.50	1.00	-0.193359	0.132812	0.953613	-3.430000	-0.700000	0.350000	476.00	0.07	-0.13
0.10	3.50	3.25	3.50	3.00	2.00	1.50	2.00	3.50	3.00	3.25	3.50	3.75	7.25	4.00	1.00	1.50	-0.253418	0.107910	0.939453	-0.350000	4.480000	1.890000	573.00	0.03	-0.10	2.75	1.25	2.50	1.50	1.75	0.50	2.00	3.75	1.75	2.00	2.75	4.25	8.50	4.00	0.50	1.00	-0.194824	0.134277	0.945801	-2.940000	-0.210000	0.560000	472.00	0.06	-0.13
0.11	4.50	3.25	3.75	3.25	1.75	1.50	2.00	3.50	3.25	3.25	3.50	3.75	7.50	3.50	1.00	1.25	-0.250977	0.105957	0.943359	-0.420000	4.760000	1.750000	587.00	0.02	-0.09	3.00	1.00	2.50	1.50	1.50	0.50	2.25	3.75	1.75	2.00	2.75	4.00	8.75	4.00	0.25	1.00	-0.194824	0.134277	0.945801	-2.940000	-0.210000	0.560000	470.00	0.06	-0.12
0.12	4.00	3.25	3.50	3.00	1.75	1.50	2.00	3.50	3.25	3.25	3.50	3.50	7.75	3.50	0.75	1.50	-0.255371	0.107910	0.940430	-0.420000	4.900000	1.750000	574.00	0.02	-0.10	2.75	1.25	2.50	1.75	1.50	0.50	2.25	3.75	1.75	2.00	2.75	4.00	8.75	4.25	0.50	1.25	-0.189941	0.129395	0.958008	-2.660000	0.910000	0.560000	479.00	0.06	-0.12
0.13	3.50	2.75	3.50	2.75	1.75	1.50	2.00	3.75	3.00	3.00	3.50	3.75	7.50	3.50	0.75	1.25	-0.252930	0.106445	0.953613	-0.490000	5.040000	1.680000	557.00	0.03	-0.10	2.50	1.25	2.50	1.75	1.75	0.50	2.25	3.75	1.50	2.00	2.75	4.00	8.75	4.00	0.50	1.25	-0.199707	0.135254	0.958984	-2.590000	1.540000	0.490000	473.00	0.06	-0.13
0.14	4.00	3.00	3.25	2.75	1.75	1.75	2.00	3.75	3.00	2.75	3.50	3.75	7.75	3.50	0.75	1.75	-0.251953	0.108887	0.946777	-0.630000	5.250000	1.750000	567.00	0.03	-0.11	2.75	1.00	2.50	1.50	1.75	0.50	2.25	3.75	1.75	1.75	2.75	4.00	8.75	4.25	0.50	1.00	-0.193848	0.132812	0.956055	-2.520000	2.240000	0.350000	472.00	0.07	-0.12
0.15	3.75	3.00	3.25	2.75	1.75	1.50	2.00	4.00	3.00	3.00	3.50	4.00	7.50	3.25	1.25	1.50	-0.253418	0.110352	0.945801	-0.910000	6.020000	1.750000	571.00	0.03	-0.11	2.75	1.00	2.25	1.50	1.50	0.25	2.25	3.75	1.75	2.00	2.75	4.25	8.75	4.00	0.50	0.75	-0.190918	0.129883	0.947754	-2.590000	2.940000	-0.000000	465.00	0.07	-0.13
0.16	3.50	3.25	3.50	3.00	1.75	1.75	2.00	4.00	2.75	3.00	3.50	4.00	7.75	3.50	1.25	1.75	-0.253906	0.106934	0.948242	-1.050000	6.720000	1.540000	582.00	0.03	-0.11	2.75	0.75	2.25	1.50	1.50	0.50	2.25	3.75	1.75	2.00	2.50	4.25	8.75	4.00	0.25	1.00	-0.198730	0.130859	0.946777	-2.520000	3.290000	-0.070000	461.00	0.07	-0.13
0.17																										2.25	0.75	2.25	1.25	1.25	0.25	2.00	3.50	1.50	2.00	2.75	4.00	8.75	4.25	0.25	1.00	-0.197754	0.129883	0.953125	-2.450000	3.500000	-0.140000	437.00	0.08	-0.13
0.18	3.25	2.50	3.25	2.75	1.50	1.25	1.75	3.75	3.00	3.00	3.50	3.50	7.75	3.75	1.00	1.75	-0.252441	0.108398	0.944824	-1.120000	7.210000	1.470000	546.00	0.04	-0.11	2.75	1.00	2.25	1.50	1.50	0.50	2.00	3.50	1.75	1.75	2.50	4.00	8.75	4.00	0.50	0.75	-0.193848	0.133789	0.955566	-2.450000	3.640000	-0.210000	451.00	0.07	-0.13
0.19	3.50	2.75	3.25	2.50	1.50	1.50	2.00	3.75	2.75	2.75	3.50	3.75	7.75	3.25	0.75	1.50	-0.251953	0.110840	0.944336	-1.260000	7.280000	1.470000	543.00	0.03	-0.11	2.50	1.00	2.00	1.50	1.25	0.25	2.25	3.25	1.75	2.00	2.50	3.75	8.75	4.25	0.50	1.00	-0.201660	0.134766	0.948242	-2.380000	3.850000	-0.140000	443.00	0.08	-0.12
0.20	3.50	2.75	3.25	2.75	1.50	1.50	2.00	3.75	2.75	2.75	3.50	3.75	7.75	3.25	0.75	1.50	-0.254883	0.114258	0.941895	-1.540000	7.210000	1.400000	546.00	0.03	-0.11	2.25	0.75	2.00	1.25	1.25	0.50	2.00	3.50	1.75	2.00	2.50	4.00	8.75	4.00	0.50	1.00	-0.200684	0.129883	0.952148	-2.240000	3.850000	-0.000000	438.00	0.08	-0.13
0.21	3.00	2.50	3.00	2.75	1.50	1.25	2.00	3.50	2.75	2.75	3.25	4.00	8.00	3.00	1.00	1.50	-0.256836	0.109863	0.939453	-1.680000	7.070000	1.330000	530.00	0.04	-0.12	2.25	0.75	1.50	1.25	1.25	0.25	2.25	3.50	1.75	2.00	2.50	3.75	8.75	4.25	0.50	1.00	-0.194824	0.135742	0.949707	-2.100000	3.710000	0.070000	433.00	0.09	-0.13
0.22	3.25	2.75	3.00	2.50	1.50	1.50	1.75	3.50	3.00	3.00	3.50	3.75	7.75	3.00	1.00	1.50	-0.253906	0.108887	0.937500	-1.890000	7.000000	1.260000	536.00	0.04	-0.11	2.25	0.75	1.50	1.50	1.25	0.25	2.00	3.50	1.75	2.00	2.75	3.75	9.00	4.25	0.50	1.25	-0.203125	0.132324	0.943359	-2.030000	3.500000	-0.000000	438.00	0.09	-0.13
0.23	3.00	2.25	3.00	2.75	1.50	1.25	1.75	3.50	2.50	3.00	3.00	3.75	7.75	3.25	1.00	1.50	-0.256348	0.105957	0.945312	-2.520000	6.650000	1.190000	517.00	0.04	-0.12	1.75	0.75	1.75	1.50	1.25	0.25	2.00	3.50	2.00	2.00	2.50	3.75	8.75	4.00	0.50	1.25	-0.195312	0.132324	0.946289	-1.890000	3.150000	0.140000	432.00	0.09	-0.13
0.24	3.00	2.25	3.25	2.75	1.25	1.50	1.75	3.50	2.75	3.00	3.25	3.75	7.75	3.00	0.75	1.25	-0.255859	0.104004	0.937012	-3.010000	6.650000	1.050000	520.00	0.04	-0.11	2.25	0.75	1.75	1.25	1.25	0.25	2.00	3.50	1.75	2.00	2.50	3.75	9.00	4.25	0.25	1.25	-0.202148	0.133789	0.951172	-2.100000	2.520000	0.140000	433.00	0.09	-0.13
0.25	3.00	2.50	2.75	2.75	1.25	1.25	2.00	3.50	2.50	2.75	3.25	3.50	7.75	3.25	1.00	1.50	-0.262695	0.110352	0.936035	-3.220000	6.580000	1.050000	515.00	0.04	-0.12	1.75	0.75	1.75	1.25	1.25	0.25	2.00	3.25	1.75	2.00	2.25	3.75	8.75	4.25	0.25	1.25	-0.203613	0.131348	0.940918	-2.170000	2.100000	0.350000	418.00	0.09	-0.13
0.26	3.00	3.00	2.75	2.25	1.25	1.50	1.75	3.50	2.50	2.75	3.00	3.50	7.75	3.25	0.75	1.25	-0.256836	0.104980	0.938477	-3.430000	6.510000	1.120000	506.00	0.04	-0.12	1.75	0.50	1.75	1.00	1.00	0.25	2.25	3.50	1.50	2.00	2.50	3.75	9.00	4.25	0.50	1.25	-0.200195	0.134277	0.951172	-2.030000	1.820000	0.420000	422.00	0.10	-0.14
0.27	3.25	2.50	2.75	2.25	1.50	1.50	2.00	3.00	2.25	2.50	3.25	3.50	7.50	3.25	1.00	1.50	-0.258301	0.106934	0.939941	-3.500000	6.230000	1.190000	501.00	0.04	-0.11	1.75	0.50	1.75	1.25	1.25	0.00	2.00	3.50	1.75	1.75	2.50	3.75	9.00	4.25	0.50	1.25	-0.204102	0.134277	0.943359	-2.030000	1.540000	0.210000	422.00	0.10	-0.14
0.28	2.75	2.75	2.75	2.50	1.25	1.25	2.00	3.25	2.50	2.75	3.25	3.25	7.50	3.25	0.75	1.25	-0.260742	0.108887	0.938477	-3.780000	6.230000	1.050000	498.00	0.04	-0.11	1.50	0.50	1.50	1.25	1.25	0.00	2.00	3.50	1.50	2.00	2.50	3.75	9.00	4.50	0.75	1.25	-0.198242	0.130859	0.940918	-2.030000	1.190000	0.280000	420.00	0.11	-0.14
0.29	2.75	1.75	2.75	2.50	1.25	1.25	2.00	2.75	2.50	3.00	3.00	3.25	7.50	3.25	0.75	1.25	-0.262695	0.107910	0.938965	-4.270000	6.090000	0.840000	479.00	0.05	-0.10	2.00	0.75	1.50	1.25	1.00	0.25	2.00	3.25	1.75	1.75	2.50	4.00	9.00	4.25	0.75	1.50	-0.203125	0.132812	0.945312	-1.890000	0.630000	0.490000	427.00	0.10	-0.14
0.30	2.75	2.25	2.50	2.25	1.50	1.25	2.00	3.00	2.75	3.00	3.00	3.00	7.00	3.50	0.75	1.25	-0.253418	0.108398	0.937012	-4.760000	5.740000	0.560000	484.00	0.05	-0.10	1.75	0.75	1.50	1.50	1.00	0.25	2.25	3.50	1.50	2.00	2.50	4.00	9.00	4.75	0.75	1.25	-0.195801	0.134277	0.937988	-1.750000	0.000000	0.350000	438.00	0.10	-0.14
0.31	2.75	2.25	2.75	2.50	1.25	1.00	2.00	3.00	2.75	2.75	3.00	3.50	7.25	3.25	1.00	1.50	-0.261230	0.107422	0.932129	-5.180000	4.830000	0.490000	491.00	0.05	-0.10	1.75	0.75	1.50	1.25	1.25	0.25	2.25	3.75	1.75	1.75	2.50	4.25	9.25	4.25	0.75	1.75	-0.204102	0.133789	0.955078	-1.750000	-0.560000	0.350000	446.00	0.10	-0.14
0.32	2.75	2.25	2.50	2.00	1.25	0.75	2.00	2.75	2.50	2.50	3.00	3.00	7.25	3.50	0.75	1.25	-0.258789	0.105957	0.942871	-5.740000	4.270000	0.210000	461.00	0.05	-0.10	1.75	0.75	1.25	1.25	1.25	0.25	2.25	3.75	1.50	1.75	2.75	4.00	9.25	4.50	0.75	1.50	-0.202148	0.132812	0.946777	-1.750000	-1.190000	0.140000	440.00	0.10	-0.14
0.33	3.00	2.50	2.50	2.00	1.50	1.25	2.00	2.75	2.75	2.75	3.00	3.25	7.00	3.75	1.00	1.25	-0.255371	0.107422	0.934082	-6.230000	4.060000	0.000000	487.00	0.05	-0.09	2.00	0.50	1.50	1.25	1.00	0.25	2.25	3.75	1.75	2.00	2.75	4.00	9.50	4.75	0.75	1.75	-0.202637	0.138184	0.945312	-1.820000	-2.030000	-0.000000	453.00	0.11	-0.14
0.34	3.25	2.25	2.50	2.00	1.50	1.25	2.00	2.50	2.75	2.75	3.00	3.00	6.75	3.75	1.25	1.50	-0.261230	0.104492	0.941895	-6.440000	3.990000	-0.140000	483.00	0.05	-0.09	2.00	0.75	1.50	1.25	1.25	0.50	2.00	4.00	1.75	2.25	2.50	4.25	9.75	5.00	0.75	1.50	-0.198730	0.138672	0.945801	-2.100000	-2.590000	-0.140000	468.00	0.10	-0.14
0.35	3.50	2.25	3.00	2.25	1.50	1.25	2.00	2.50	2.75	2.75	3.00	3.00	6.50	3.50	0.75	1.25	-0.262207	0.100098	0.940430	-6.440000	3.850000	0.000000	483.00	0.04	-0.08	2.00	0.75	1.75	1.50	1.25	0.50	2.25	4.00	1.25	2.25	2.75	4.25	9.50	4.50	0.75	1.75	-0.193359	0.138184	0.945801	-2.800000	-3.080000	-0.350000	468.00	0.09	-0.15
0.36	3.00	2.25	2.75	2.00	1.50	1.25	2.25	2.25	3.00	2.75	3.00	2.75	6.50	3.75	1.00	1.25	-0.262207	0.103027	0.935059	-6.230000	3.500000	0.070000	477.00	0.05	-0.08	2.50	1.00	1.75	1.50	1.25	0.50	2.25	4.00	2.00	2.00	2.75	4.25	9.75	5.00	1.00	1.75	-0.200195	0.131348	0.952148	-3.080000	-3.080000	-0.630000	494.00	0.09	-0.13
0.37	3.25	2.50	2.75	2.00	1.75	1.00	2.25	2.25	2.75	2.75	3.00	3.00	6.25	3.50	0.75	1.25	-0.255371	0.102051	0.944336	-5.670000	3.010000	0.350000	474.00	0.04	-0.08	2.00	1.00	2.00	1.50	1.50	0.50	2.25	4.25	1.75	2.00	2.50	4.50	9.75	4.75	0.75	1.50	-0.198730	0.124512	0.948242	-3.290000	-2.800000	-0.770000	489.00	0.09	-0.14
0.38	2.50	2.50	3.00	2.25	1.50	0.75	2.25	2.50	3.00	2.75	2.75	2.75	6.25	3.75	1.00	1.25	-0.261230	0.099609	0.944824	-5.460000	3.010000	0.350000	473.00	0.05	-0.08	2.25	1.00	2.00	1.50	1.50	0.75	2.25	4.00	1.75	2.00	3.00	4.50	9.75	4.75	1.25	1.75	-0.187988	0.127441	0.957031	-3.220000	-2.310000	-0.770000	503.00	0.09	-0.14
0.39	3.25	2.00	3.25	2.75	1.50	1.25	2.25	2.50	3.25	2.75	3.00	2.50	6.50	4.00	0.75	1.25	-0.260254	0.094727	0.942871	-5.320000	3.150000	0.420000	496.00	0.04	-0.07	2.50	0.75	1.75	1.50	1.50	0.50	2.25	4.75	2.00	2.00	2.75	4.75	10.00	5.00	1.00	2.00	-0.193359	0.132812	0.954102	-3.080000	-1.680000	-0.630000	517.00	0.09	-0.14
0.40	3.00	2.50	3.25	2.25	1.50	1.00	2.25	2.25	3.00	2.75	3.00	2.50	6.25	3.75	0.75	1.25	-0.259766	0.103516	0.941895	-5.040000	3.360000	0.700000	477.00	0.04	-0.07	2.50	0.75	2.00	1.50	1.50	0.75	2.25	4.50	1.50	2.00	2.75	4.50	10.00	5.00	1.00	2.00	-0.187988	0.134766	0.949707	-3.010000	-0.910000	-0.490000	509.00	0.09	-0.14
0.41	3.75	2.50	3.25	2.50	1.50	1.00	2.25	2.25	3.00	2.75	2.75	3.00	6.00	4.00	1.00	1.00	-0.253906	0.097168	0.951172	-4.480000	3.920000	0.910000	493.00	0.03	-0.07	2.50	1.00	2.00	2.00	1.50	0.75	2.50	5.00	1.75	2.00	2.75	4.50	10.00	5.00	0.75	1.75	-0.195312	0.133301	0.958496	-2.730000	-0.070000	-0.350000	529.00	0.08	-0.14
0.42	2.75	2.50	3.25	2.25	1.50	1.25	2.50	2.50	3.00	2.75	3.00	2.50	5.75	3.50	0.75	1.00	-0.255859	0.095215	0.944824	-4.060000	4.550000	0.840000	477.00	0.04	-0.07	2.50	1.25	2.25	1.50	1.50	0.50	2.50	5.00	1.75	2.00	2.75	4.75	10.00	5.00	1.00	2.00	-0.197754	0.136230	0.962402	-2.660000	0.700000	-0.280000	533.00	0.08	-0.14
0.43	3.25	2.75	3.50	2.50	1.50	1.25	2.25	2.25	2.75	3.00	2.75	2.75	6.00	4.00	1.00	1.25	-0.255859	0.103516	0.939941	-3.710000	5.110000	1.050000	494.00	0.03	-0.07	2.50	0.75	2.25	1.50	1.50	0.75	2.50	5.00	1.75	2.25	3.00	4.75	10.00	5.00	1.00	2.00	-0.189453	0.132324	0.951172	-2.450000	1.400000	-0.000000	536.00	0.09	-0.14
0.44	3.25	2.50	3.50	2.00	1.50	0.75	2.25	2.25	3.00	2.75	3.00	2.75	6.00	4.00	1.00	1.25	-0.258301	0.098633	0.942871	-3.360000	5.670000	1.120000	483.00	0.04	-0.06	2.50	1.00	2.00	1.50	1.50	0.75	2.25	5.00	1.50	2.25	3.00	4.75	10.00	5.00	0.75	1.75	-0.197266	0.135742	0.956543	-2.240000	2.030000	0.140000	524.00	0.08	-0.15
0.45	3.25	2.75	2.50	2.00	1.50	1.00	2.25	2.00	3.00	2.75	2.75	3.00	6.00	3.75	1.00	1.25	-0.255371	0.104492	0.946289	-3.010000	5.950000	0.910000	470.00	0.05	-0.07	2.50	1.00	2.00	1.75	1.50	0.50	2.25	5.00	2.00	2.00	2.75	4.50	10.25	5.00	1.00	2.00	-0.192871	0.132324	0.948730	-2.170000	2.380000	0.140000	529.00	0.09	-0.14
0.46	3.00	2.50	3.00	2.00	1.50	1.00	2.25	2.00	2.75	2.75	2.75	2.50	5.50	4.00	1.00	1.00	-0.252930	0.099609	0.941895	-2.660000	6.440000	0.980000	457.00	0.04	-0.06	2.50	1.00	1.75	1.50	1.50	0.25	2.25	5.00	1.75	2.00	3.00	4.75	10.25	5.00	0.75	2.00	-0.195801	0.136719	0.941406	-2.240000	2.590000	-0.070000	519.00	0.09	-0.15
0.47	3.25	2.25	2.75	2.50	1.50	1.00	2.25	2.00	3.00	2.75	2.75	2.75	5.50	3.75	0.75	1.00	-0.261230	0.100098	0.948242	-2.590000	6.930000	0.770000	462.00	0.04	-0.06	2.00	0.75	2.00	1.50	1.50	0.75	2.25	5.00	1.75	2.00	2.75	5.00	10.25	5.00	1.00	2.00	-0.199707	0.133789	0.945312	-2.240000	2.590000	-0.210000	523.00	0.10	-0.15
0.48	3.25	2.50	2.75	2.00	1.50	1.00	2.25	2.00	3.00	2.75	3.00	3.25	5.25	3.75	0.75	0.75	-0.257324	0.097168	0.940430	-2.730000	7.140000	0.630000	463.00	0.04	-0.06	2.50	0.75	2.00	1.50	1.25	0.50	2.25	5.00	2.00	2.25	2.75	4.75	10.25	5.00	0.75	2.00	-0.201172	0.129883	0.947754	-2.170000	2.100000	-0.000000	523.00	0.09	-0.14
0.49	3.00	2.25	2.75	2.00	1.50	0.75	2.25	2.00	3.25	2.75	2.75	2.50	5.75	3.75	1.00	1.00	-0.261230	0.098633	0.944824	-2.870000	7.350000	0.560000	456.00	0.05	-0.06	2.25	0.75	2.00	1.50	1.50	0.75	2.25	5.00	2.00	2.25	3.00	5.00	10.25	5.25	0.75	2.00	-0.199219	0.136230	0.947266	-2.100000	1.540000	0.210000	535.00	0.09	-0.14
0.50	3.00	2.50	2.50	2.25	1.50	0.75	2.25	2.00	2.75	2.75	2.75	2.75	5.75	4.00	0.75	1.25	-0.260254	0.096191	0.942383	-2.940000	7.210000	0.630000	455.00	0.05	-0.07	2.25	1.00	1.75	1.75	1.25	0.75	2.25	5.00	1.75	2.00	2.75	5.00	10.25	5.00	1.00	1.75	-0.200195	0.136230	0.949707	-1.960000	1.260000	0.280000	524.00	0.09	-0.15
0.51	3.00	2.25	2.75	2.25	1.50	1.00	2.25	2.25	3.00	2.50	3.00	2.00	5.50	3.75	1.00	1.00	-0.258789	0.098633	0.938965	-3.080000	6.790000	0.630000	454.00	0.04	-0.06	2.00	0.75	1.75	1.50	1.25	0.50	2.25	5.25	1.75	2.25	3.25	5.00	10.25	5.00	0.75	2.00	-0.198242	0.138184	0.942383	-2.100000	0.630000	0.350000	524.00	0.10	-0.15
0.52	2.50	2.00	2.50	2.00	1.50	0.75	2.25	1.75	3.00	2.75	3.00	2.25	5.50	3.75	1.00	1.00	-0.261719	0.099121	0.938477	-3.150000	6.300000	0.560000	435.00	0.06	-0.06	2.00	0.75	1.75	1.25	1.25	0.25	2.25	5.25	2.00	2.25	3.00	5.00	10.25	5.00	1.00	2.00	-0.199219	0.139160	0.945312	-2.310000	0.210000	0.420000	522.00	0.11	-0.15
0.53	3.25	1.75	2.50	2.00	1.25	0.75	2.25	1.75	3.00	2.75	3.00	2.50	5.75	3.75	0.75	1.00	-0.260254	0.099609	0.942871	-3.290000	5.880000	0.700000	440.00	0.05	-0.06	2.25	1.00	2.00	1.25	1.25	0.50	2.25	5.25	1.75	2.50	3.00	5.25	10.25	5.25	1.25	2.25	-0.203613	0.144043	0.951172	-2.310000	-0.070000	0.210000	542.00	0.10	-0.15
0.54	3.00	2.00	2.50	1.75	1.50	0.75	2.25	1.75	3.00	2.75	2.75	2.50	5.25	3.75	0.75	1.25	-0.259277	0.097656	0.943848	-3.290000	5.950000	0.630000	433.00	0.05	-0.05	2.25	1.00	1.75	1.50	1.50	0.75	2.25	5.25	2.00	2.25	3.25	5.50	10.25	5.00	1.00	2.00	-0.202637	0.138672	0.942383	-2.380000	-0.490000	0.210000	547.00	0.10	-0.15
0.55	2.50	2.25	2.50	2.00	1.25	1.00	2.25	2.00	3.00	2.50	2.75	2.75	5.75	3.75	0.75	1.25	-0.266602	0.102539	0.941895	-3.150000	5.880000	0.770000	442.00	0.05	-0.07	2.50	1.00	2.25	1.50	1.50	0.75	2.50	5.25	2.00	2.25	3.00	5.50	10.50	5.00	1.00	2.25	-0.196777	0.140137	0.950195	-2.380000	-0.630000	0.070000	561.00	0.09	-0.15
0.56	3.25	2.00	2.50	1.75	1.25	0.75	2.25	1.75	3.00	2.75	2.75	2.50	5.25	4.25	1.00	1.00	-0.260742	0.096680	0.937500	-2.870000	5.810000	1.050000	439.00	0.06	-0.05	2.50	1.00	2.00	1.50	1.50	0.75	2.50	5.25	1.50	2.25	3.25	5.50	10.50	5.00	0.75	2.25	-0.194824	0.138672	0.943848	-2.170000	-0.700000	0.140000	551.00	0.09	-0.15
0.57	3.00	2.50	2.50	2.25	1.25	0.50	2.25	1.75	3.00	2.75	2.50	2.50	5.50	3.75	0.75	1.00	-0.261719	0.098633	0.938477	-2.730000	5.460000	1.190000	437.00	0.04	-0.06	2.50	1.00	2.00	1.50	1.50	1.00	2.50	5.25	2.00	2.25	3.00	5.50	10.50	5.00	1.00	2.00	-0.198730	0.141113	0.944824	-2.100000	-0.630000	0.140000	560.00	0.09	-0.15
0.58	3.00	2.50	2.50	2.00	1.25	0.75	2.25	1.50	3.00	3.00	2.75	2.50	5.50	4.00	1.00	1.00	-0.258301	0.106445	0.942383	-2.730000	5.530000	1.190000	443.00	0.05	-0.05	2.25	1.00	2.00	1.50	1.50	0.75	2.50	5.50	2.00	2.25	3.25	6.00	10.75	5.25	0.75	2.25	-0.195801	0.136719	0.948242	-2.170000	-0.350000	-0.000000	570.00	0.10	-0.15
0.59	2.75	2.25	2.25	1.75	1.25	0.50	2.25	1.75	3.00	2.75	2.75	2.25	5.25	3.75	0.75	0.75	-0.258789	0.094727	0.947266	-2.660000	5.530000	1.190000	418.00	0.06	-0.05	2.50	1.00	2.00	1.50	1.50	0.75	2.75	5.75	2.00	2.25	3.25	6.00	10.75	5.25	0.50	2.25	-0.198242	0.137695	0.945801	-2.030000	-0.070000	0.140000	578.00	0.09	-0.15
0.60	2.75	1.75	2.50	2.00	1.50	0.75	2.25	1.75	3.00	2.75	2.50	2.25	5.50	3.75	0.75	1.00	-0.266602	0.099121	0.941406	-2.660000	5.670000	1.120000	426.00	0.05	-0.06	2.50	1.00	2.25	1.50	1.50	0.75	2.50	5.50	2.00	2.00	3.25	6.00	10.75	5.25	1.00	2.00	-0.195312	0.135254	0.954102	-2.100000	0.210000	0.070000	575.00	0.09	-0.15
0.61	2.50	1.25	2.25	1.75	1.25	0.50	2.25	1.50	2.50	2.50	2.75	2.25	5.25	3.50	0.50	1.00	-0.260742	0.102539	0.945801	-2.660000	5.880000	0.980000	388.00	0.06	-0.06	2.75	1.00	2.50	1.50	1.25	0.75	2.50	5.50	2.00	2.25	3.50	6.50	10.75	5.00	0.75	2.00	-0.192383	0.137207	0.948730	-2.170000	0.280000	0.070000	584.00	0.09	-0.15
0.62	2.50	2.00	2.50	1.75	1.25	0.75	2.25	1.75	2.75	2.75	2.50	2.25	5.25	4.00	0.75	1.00	-0.261230	0.098145	0.944336	-2.590000	6.230000	0.910000	416.00	0.06	-0.06	2.50	1.00	2.25	1.50	1.50	1.00	2.50	5.50	2.00	2.25	3.25	6.25	10.75	5.25	1.00	2.25	-0.199219	0.135742	0.945312	-2.240000	0.560000	-0.140000	585.00	0.09	-0.15
0.63	2.50	1.50	2.25	1.75	1.25	0.75	2.00	1.50	2.75	2.75	2.75	2.00	5.25	3.75	0.75	1.00	-0.259277	0.097168	0.942383	-2.450000	6.300000	0.770000	398.00	0.07	-0.06	2.50	0.75	2.25	1.50	1.50	1.00	2.50	5.50	2.00	2.25	3.25	6.25	10.75	5.00	1.00	2.50	-0.194824	0.134766	0.950684	-2.310000	0.700000	-0.210000	581.00	0.09	-0.15
0.64	2.25	1.50	2.25	1.75	1.25	0.75	2.25	1.25	2.75	2.50	2.75	2.25	5.00	3.75	0.75	0.75	-0.257812	0.101562	0.940918	-2.380000	6.580000	0.840000	391.00	0.07	-0.05	2.50	1.00	2.00	1.50	1.50	1.00	2.50	5.50	2.00	2.25	3.50	6.50	10.75	5.25	1.00	2.25	-0.195312	0.138184	0.940918	-2.310000	0.910000	-0.070000	588.00	0.09	-0.15
0.65	2.75	2.00	2.50	2.00	1.25	0.75	2.25	1.75	3.25	2.50	2.50	2.50	5.00	3.50	0.75	0.75	-0.268066	0.098633	0.941406	-2.240000	6.790000	0.840000	421.00	0.05	-0.05	2.25	1.00	2.00	1.50	1.25	1.00	2.50	6.00	2.00	2.50	3.50	6.50	11.00	5.00	0.75	2.25	-0.194336	0.135742	0.947754	-2.240000	0.700000	0.070000	590.00	0.10	-0.16
0.66	2.50	1.50	2.50	1.75	1.25	0.50	2.00	1.50	3.00	2.50	2.75	2.75	4.75	3.75	0.50	0.75	-0.269531	0.099121	0.935547	-2.240000	6.580000	0.840000	398.00	0.06	-0.05	2.50	1.25	2.50	1.75	1.75	0.75	2.50	5.75	2.00	2.50	3.25	6.50	10.75	5.00	1.00	2.50	-0.196289	0.136719	0.945801	-2.310000	0.490000	0.070000	602.00	0.09	-0.15
0.67	2.50	1.75	2.00	1.50	1.00	0.75	2.25	1.50	3.00	2.75	2.75	2.00	5.50	3.50	0.75	0.75	-0.266113	0.103516	0.937500	-2.450000	6.300000	0.910000	397.00	0.07	-0.05	2.50	1.00	1.75	1.50	1.50	0.75	2.50	6.00	2.00	2.00	3.50	7.25	11.00	5.00	1.00	2.50	-0.195801	0.134766	0.945312	-2.030000	0.210000	0.210000	597.00	0.10	-0.16
0.68	2.50	1.25	1.75	2.00	1.25	0.50	2.00	1.50	2.75	2.50	2.50	2.50	5.25	3.50	0.75	0.75	-0.261230	0.096680	0.942383	-2.730000	5.320000	1.260000	385.00	0.07	-0.06	2.50	1.00	2.00	1.50	1.50	0.75	2.50	6.00	2.25	2.25	3.25	6.75	11.00	5.00	1.00	2.25	-0.195312	0.135742	0.949219	-2.100000	-0.350000	0.280000	597.00	0.09	-0.16
0.69	2.25	1.75	2.50	1.50	1.00	0.50	2.25	1.50	3.00	2.50	2.50	2.75	5.00	3.75	0.50	0.75	-0.259766	0.098145	0.943359	-2.800000	4.970000	1.260000	395.00	0.07	-0.05	2.50	1.00	2.00	1.50	1.50	1.00	2.50	6.00	2.00	2.25	3.50	7.25	11.00	5.00	0.75	2.25	-0.190430	0.140137	0.947266	-2.100000	-0.630000	0.350000	602.00	0.09	-0.16
0.70	2.50	1.75	2.25	2.00	1.25	0.50	2.00	1.50	2.75	2.50	2.50	2.00	5.00	3.50	0.75	0.75	-0.263672	0.099121	0.937500	-2.940000	4.760000	1.330000	388.00	0.05	-0.05	2.50	1.00	2.00	1.50	1.50	1.00	2.50	6.00	2.25	2.25	3.50	7.25	11.25	5.00	1.00	2.50	-0.192871	0.137207	0.949219	-2.240000	-0.490000	-0.000000	612.00	0.10	-0.16
0.71	2.25	1.25	2.25	1.75	1.25	0.50	2.00	1.50	2.75	2.75	2.50	2.25	5.00	3.25	0.75	0.75	-0.273438	0.102539	0.941895	-2.940000	4.690000	1.120000	381.00	0.07	-0.05	2.25	1.00	2.25	1.50	1.75	1.00	2.50	6.00	2.00	2.50	3.50	7.50	11.25	5.00	0.75	2.25	-0.192871	0.139160	0.952148	-2.380000	-0.560000	-0.070000	613.00	0.09	-0.16
0.72	2.75	0.50	2.25	1.75	1.00	0.50	2.00	1.50	2.75	2.50	2.75	2.25	4.25	3.25	0.50	1.00	-0.261719	0.104004	0.940430	-2.940000	4.480000	1.260000	368.00	0.07	-0.05	2.75	1.25	2.00	1.75	1.50	1.00	2.50	6.00	2.00	2.50	3.25	7.50	11.25	5.00	0.75	2.00	-0.193359	0.137695	0.947266	-2.590000	-0.280000	0.070000	614.00	0.09	-0.16
0.73	2.50	1.25	2.00	1.25	1.25	0.25	2.25	1.50	3.00	2.75	2.50	2.25	4.50	3.50	0.50	0.75	-0.266602	0.100098	0.938477	-2.870000	4.410000	1.400000	374.00	0.07	-0.04	2.50	1.00	2.50	1.75	1.50	1.00	2.50	6.25	2.25	2.50	3.50	7.25	11.25	5.00	1.00	2.50	-0.191895	0.141113	0.946289	-2.660000	-0.070000	0.140000	628.00	0.09	-0.16
0.74	2.75	2.00	2.00	1.75	1.00	0.25	2.00	1.25	2.50	2.25	2.50	1.75	5.00	3.50	0.75	0.75	-0.262695	0.101074	0.935547	-3.080000	4.550000	1.260000	368.00	0.05	-0.05	2.75	1.00	2.25	1.50	1.75	0.75	2.50	6.00	1.75	2.50	3.50	7.50	11.25	5.00	0.75	2.25	-0.189941	0.135254	0.946289	-2.660000	0.280000	0.140000	612.00	0.09	-0.16
0.75	2.75	1.50	2.00	1.75	1.00	0.50	2.25	1.50	2.50	2.50	2.50	2.00	4.75	3.25	0.75	0.75	-0.267090	0.095703	0.942383	-3.220000	4.830000	1.190000	375.00	0.06	-0.05	2.75	1.00	2.50	1.50	1.75	1.00	2.50	6.00	2.00	2.25	3.50	7.50	11.25	5.00	1.00	2.50	-0.188965	0.139160	0.944824	-2.870000	0.560000	0.210000	623.00	0.09	-0.16
0.76	2.75	1.75	2.50	1.75	1.00	0.75	2.25	1.25	2.50	2.25	2.25	2.00	4.50	3.25	0.50	0.75	-0.256836	0.103027	0.935547	-3.150000	4.410000	1.190000	372.00	0.04	-0.05	2.50	1.00	2.50	1.75	1.50	1.00	2.50	6.00	1.75	2.25	3.75	7.50	11.25	5.00	1.00	2.50	-0.194336	0.136719	0.944824	-3.010000	0.350000	0.210000	620.00	0.09	-0.16
0.77	2.50	1.75	2.25	2.00	1.00	1.25	2.00	1.50	2.50	2.50	2.25	2.00	4.50	3.00	0.75	0.50	-0.265625	0.098633	0.941895	-3.360000	4.200000	1.330000	377.00	0.04	-0.06	2.75	1.25	2.50	1.75	1.75	1.00	2.50	6.00	2.00	2.25	3.50	7.25	11.25	5.00	1.00	2.25	-0.194336	0.145996	0.956055	-3.290000	0.350000	-0.070000	624.00	0.08	-0.16
0.78	2.75	1.75	2.50	2.00	1.25	0.75	2.25	1.25	2.50	2.50	2.75	1.25	4.50	2.75	0.75	0.50	-0.267090	0.106934	0.938965	-3.640000	3.780000	1.400000	375.00	0.03	-0.04	2.50	1.00	2.50	2.00	1.75	1.25	2.50	6.00	1.75	2.50	3.25	7.50	11.25	5.00	0.75	2.25	-0.195801	0.144531	0.954590	-3.360000	0.980000	-0.350000	621.00	0.08	-0.16
0.79	2.75	2.25	2.25	1.75	1.25	0.50	2.25	1.00	2.50	2.50	2.00	2.00	4.50	3.00	0.50	0.50	-0.269531	0.092285	0.936035	-3.920000	3.360000	1.260000	366.00	0.03	-0.04	2.50	1.00	2.25	1.50	1.75	1.25	2.50	6.00	2.00	2.25	3.50	7.00	11.00	4.75	0.75	1.75	-0.190430	0.135742	0.950195	-3.290000	1.610000	-0.420000	603.00	0.09	-0.16
0.80	3.00	1.25	2.50	1.75	1.25	0.50	2.25	1.00	2.50	2.25	2.00	1.75	4.25	2.75	0.25	0.50	-0.265137	0.100586	0.936523	-4.200000	3.150000	1.470000	348.00	0.03	-0.03	2.75	1.00	2.25	2.00	1.75	1.25	2.50	6.00	2.00	2.25	3.50	7.25	11.00	4.50	0.50	2.00	-0.195801	0.136719	0.952148	-3.080000	1.820000	-0.350000	611.00	0.08	-0.16
0.81	2.75	2.00	2.25	2.00	1.00	0.50	2.00	1.25	2.50	2.25	2.50	2.00	3.50	3.25	0.50	0.25	-0.270020	0.087402	0.942871	-4.200000	2.800000	1.400000	358.00	0.03	-0.04	3.00	1.00	2.50	2.00	1.50	1.00	2.50	6.00	1.75	2.00	3.25	7.00	11.00	4.50	0.50	1.75	-0.199707	0.139160	0.952148	-3.150000	1.540000	-0.140000	597.00	0.07	-0.16
0.82	3.00	2.00	2.50	1.75	1.25	0.75	2.25	1.25	2.50	2.25	2.00	1.50	3.75	2.50	0.25	0.50	-0.263184	0.108887	0.922852	-4.620000	0.770000	1.470000	353.00	0.01	-0.03	3.00	1.00	2.50	2.00	1.75	1.00	2.50	6.00	1.50	2.25	3.25	6.75	10.75	4.00	0.50	1.75	-0.191406	0.139648	0.944824	-3.640000	0.770000	0.070000	589.00	0.07	-0.16
0.83	3.25	2.00	2.75	2.00	1.25	0.50	2.25	1.00	2.25	2.25	2.00	1.50	3.50	2.75	0.25	0.50	-0.285156	0.065918	0.941895	-4.830000	-0.280000	1.610000	351.00	0.01	-0.03	3.00	1.25	2.25	1.75	1.75	1.00	2.50	5.75	1.75	2.25	2.75	6.75	10.75	4.00	0.50	1.25	-0.194336	0.143555	0.944336	-4.760000	-0.140000	-0.070000	576.00	0.07	-0.16
0.84	3.25	2.50	3.00	2.00	1.25	1.00	2.25	1.00	2.00	2.00	1.75	1.50	3.00	2.75	0.25	0.25	-0.268555	0.113770	0.939941	-4.900000	-1.190000	1.680000	350.00	-0.01	-0.03	3.25	1.25	2.50	2.00	1.75	0.75	2.50	5.50	1.50	2.00	2.75	6.25	10.25	3.50	0.50	1.25	-0.170410	0.146484	0.950195	-8.050000	-2.310000	0.350000	557.00	0.06	-0.16
0.85	3.50	2.75	3.25	2.25	1.50	0.50	2.25	1.25	2.00	2.00	2.00	1.50	3.25	2.50	0.25	0.25	-0.259766	0.094727	0.939941	-4.760000	-2.030000	1.960000	365.00	-0.02	-0.03	3.25	1.25	3.00	2.00	1.75	1.00	2.25	5.50	1.25	1.75	2.50	5.75	10.00	3.25	0.25	0.75	-0.206543	0.142578	0.937988	-9.940000	-4.270000	0.630000	536.00	0.04	-0.16
0.86	4.25	3.25	3.50	2.75	1.50	1.00	2.25	1.25	1.75	2.25	1.75	1.50	2.75	2.25	0.25	0.25	-0.253418	0.093262	0.945801	-4.480000	-2.660000	2.170000	383.00	-0.05	-0.03	3.50	1.50	2.75	2.25	1.75	1.00	2.50	5.25	1.00	1.75	2.50	5.25	9.75	3.25	0.50	0.75	-0.205566	0.140625	0.941406	-11.480000	-6.860000	0.420000	532.00	0.03	-0.15
0.87	5.00	4.00	4.00	2.75	1.50	1.00	2.25	1.00	2.25	2.00	1.75	1.00	2.50	2.25	0.25	0.25	-0.235352	0.104980	0.949707	-4.760000	-2.520000	2.310000	397.00	-0.07	-0.02	3.75	1.50	3.25	2.50	2.00	1.00	2.50	5.00	1.00	1.75	2.25	5.00	9.50	2.75	0.25	0.50	-0.206055	0.111816	0.946777	-12.110000	-9.240000	0.420000	526.00	0.02	-0.15
0.88	5.00	4.00	4.50	3.25	1.75	1.00	2.25	1.00	2.00	1.75	1.50	1.25	2.75	2.00	0.50	0.00	-0.261230	0.085449	0.937500	-5.390000	-3.220000	3.220000	408.00	-0.08	-0.02	4.75	2.00	4.00	2.75	2.25	1.00	2.25	5.00	1.00	1.75	2.00	4.50	9.25	2.75	0.25	0.50	-0.196289	0.125977	0.943359	-12.320000	-11.270000	0.980000	542.00	-0.01	-0.14
0.89	5.25	4.50	4.75	3.50	1.75	1.00	2.25	1.25	2.00	1.75	1.50	1.00	2.25	2.00	0.25	0.00	-0.274902	0.091797	0.944824	-5.810000	-4.900000	3.360000	415.00	-0.10	-0.02	5.25	2.00	4.25	2.75	2.50	1.25	2.25	4.25	0.75	1.50	2.00	4.00	8.50	2.75	0.25	0.50	-0.185059	0.129883	0.949707	-12.180000	-12.460000	1.050000	525.00	-0.02	-0.13
0.90	5.75	5.25	5.00	4.25	1.75	1.00	2.25	1.00	1.50	1.75	1.75	1.00	2.25	2.00	0.25	0.00	-0.258301	0.091797	0.936035	-6.090000	-6.510000	3.220000	432.00	-0.12	-0.03	5.25	2.50	5.00	3.00	2.50	1.25	2.25	4.25	0.75	1.75	2.00	3.25	8.25	2.50	0.50	0.25	-0.200684	0.132324	0.951660	-11.550000	-13.020000	0.840000	533.00	-0.04	-0.12
0.91	6.50	5.25	5.25	4.50	2.00	1.25	2.25	1.00	1.75	1.75	1.25	1.00	1.75	1.75	0.25	0.00	-0.255859	0.098633	0.948730	-6.300000	-6.860000	2.450000	443.00	-0.13	-0.02	6.00	3.00	5.25	3.50	2.50	1.25	2.25	4.00	0.75	1.25	1.75	3.25	7.75	2.25	0.00	0.00	-0.187012	0.148438	0.957520	-10.360000	-12.950000	0.630000	529.00	-0.06	-0.11
0.92	7.50	6.00	6.00	5.00	2.00	1.50	2.25	1.00	1.50	1.75	1.50	0.50	1.50	1.75	0.00	0.00	-0.250488	0.102051	0.964355	-6.440000	-6.300000	2.030000	469.00	-0.16	-0.02	6.25	3.50	5.75	4.00	2.75	1.25	2.25	3.75	0.50	1.25	1.50	2.75	7.00	2.00	0.00	0.00	-0.175293	0.119629	0.969727	-9.030000	-12.670000	0.560000	526.00	-0.09	-0.11
0.93	8.50	6.25	6.25	5.25	1.75	1.25	2.25	1.00	1.75	1.50	1.25	0.75	1.25	1.75	0.25	0.00	-0.251465	0.085449	0.954102	-6.020000	-5.250000	1.960000	484.00	-0.17	-0.01	7.25	4.50	6.25	4.25	2.75	1.25	2.25	3.25	0.25	1.25	1.50	2.50	6.25	2.00	0.25	0.00	-0.168945	0.109863	0.964844	-7.350000	-11.900000	-0.000000	538.00	-0.11	-0.09
0.94	9.25	7.00	6.75	5.25	2.00	0.75	2.25	1.00	1.25	1.50	1.25	0.75	0.75	1.50	0.00	0.00	-0.264648	0.094238	0.957031	-5.040000	-3.920000	1.750000	486.00	-0.19	-0.01	8.75	5.00	6.75	5.00	2.75	1.25	2.25	2.75	0.50	1.00	1.25	2.25	6.00	1.75	0.00	0.00	-0.195312	0.116699	0.966309	-5.250000	-10.430000	0.140000	554.00	-0.13	-0.08
0.95	10.00	7.50	7.25	5.50	2.25	1.25	2.25	1.00	1.25	1.50	1.25	0.75	1.00	1.25	0.25	0.00	-0.259277	0.084961	0.957520	-3.290000	-1.820000	1.890000	520.00	-0.19	-0.02	9.75	5.75	7.25	4.75	2.75	1.00	2.25	2.50	0.00	1.25	1.00	2.25	5.00	1.50	0.00	0.00	-0.195312	0.132324	0.966309	-2.800000	-8.610000	0.420000	550.00	-0.16	-0.07
0.96	10.25	8.25	7.00	5.50	2.00	1.00	2.25	0.75	0.75	1.25	1.25	0.50	0.75	1.25	0.00	0.00	-0.237305	0.095215	0.958984	0.070000	2.800000	2.030000	500.00	-0.22	-0.01	11.00	6.25	7.50	5.25	2.75	1.25	2.00	2.25	0.25	1.00	1.25	2.00	4.75	1.50	0.00	0.00	-0.174316	0.112305	0.966797	3.500000	-6.790000	2.380000	571.00	-0.17	-0.06
0.97	11.00	8.50	7.50	5.75	2.25	1.25	2.00	0.75	1.00	1.00	1.00	0.50	0.50	1.00	0.00	0.00	-0.235840	0.103516	0.952148	1.820000	4.900000	2.520000	515.00	-0.23	-0.01	12.50	6.75	8.00	5.25	2.75	1.25	2.00	2.25	0.25	0.75	1.00	2.00	3.50	1.50	0.00	0.00	-0.165039	0.128906	0.961426	6.650000	-7.070000	2.800000	582.00	-0.19	-0.05
0.98	11.00	8.75	7.50	5.75	1.75	1.25	2.00	0.75	0.50	1.25	1.00	0.50	0.00	1.25	0.00	0.00	-0.232422	0.089844	0.954590	3.360000	6.790000	3.080000	505.00	-0.24	-0.01	13.00	7.50	8.25	5.50	2.50	1.25	2.00	1.75	0.25	0.75	0.75	1.75	3.00	1.25	0.00	0.00	-0.165527	0.131348	0.971191	9.030000	-7.490000	3.500000	577.00	-0.21	-0.04
0.99	11.00	8.75	7.50	5.75	1.75	0.75	2.00	0.50	0.75	1.50	0.75	0.25	0.50	1.00	0.00	0.00	-0.255371	0.094238	0.959961	4.830000	8.400000	2.940000	497.00	-0.24	-0.01	13.75	8.00	8.25	6.00	2.50	1.00	1.75	1.75	0.00	0.50	1.00	1.50	2.75	1.00	0.00	0.00	-0.171387	0.142090	0.958008	11.970000	-8.750000	4.060000	578.00	-0.23	-0.04
1.00	10.50	8.50	7.25	5.50	1.75	0.75	1.75	0.75	1.00	1.25	1.00	0.50	0.00	0.75	0.00	0.00	-0.218750	0.094727	1.009277	3.710000	16.100000	3.080000	483.00	-0.24	-0.01	14.75	8.75	8.50	6.00	2.50	1.25	1.75	1.75	0.00	0.50	0.75	1.25	2.25	1.00	0.00	0.00	-0.169922	0.144043	0.951660	13.440001	-9.730000	4.550000	593.00	-0.24	-0.04
1.01	10.25	8.50	7.25	5.50	1.75	1.00	1.75	0.25	0.50	1.50	1.00	0.25	0.00	0.75	0.00	0.00	-0.242676	0.113770	0.929688	6.300000	11.620000	2.870000	467.00	-0.25	-0.01	15.50	9.50	8.50	6.50	2.50	1.25	1.75	1.50	0.00	0.50	0.75	1.50	2.50	1.00	0.00	0.00	-0.161621	0.141113	0.953613	14.070000	-10.290000	4.480000	616.00	-0.24	-0.04
1.02	11.00	8.50	7.25	5.50	1.75	1.25	1.75	0.25	0.50	1.00	0.75	0.50	0.00	0.75	0.00	0.00	-0.234863	0.108398	0.942871	7.140000	10.430000	2.450000	473.00	-0.25	-0.01	16.00	10.50	9.00	7.00	2.25	1.25	1.75	1.50	0.00	0.25	0.75	1.25	2.00	1.00	0.00	0.00	-0.171387	0.141113	0.951172	13.930000	-10.850000	4.270000	630.00	-0.26	-0.04
1.03	10.50	8.25	6.75	5.25	1.50	0.75	1.75	0.50	0.25	1.25	0.75	0.50	0.00	0.50	0.00	0.00	-0.226562	0.107422	0.921875	6.020000	12.390000	1.680000	448.00	-0.26	-0.01	17.00	11.50	9.00	7.25	2.25	1.25	1.50	1.25	0.00	0.50	0.50	1.50	2.00	1.00	0.00	0.00	-0.159180	0.151367	0.943359	12.460000	-11.340000	3.850000	649.00	-0.26	-0.04
1.04	9.75	8.00	6.75	5.00	1.50	0.50	1.50	0.50	0.25	1.00	0.75	0.50	0.00	0.50	0.00	0.00	-0.220703	0.104980	0.919922	4.060000	14.910000	0.700000	424.00	-0.26	-0.01	17.75	12.75	9.50	7.75	2.25	1.50	1.50	1.25	0.00	0.50	0.50	1.25	2.00	1.00	0.00	0.00	-0.159668	0.163086	0.940918	9.800000	-11.200000	3.990000	682.00	-0.27	-0.04
1.05	9.25	7.50	6.50	4.50	1.50	0.50	1.50	0.25	0.50	1.00	0.75	0.50	0.00	0.50	0.00	0.00	-0.198730	0.103027	0.916504	1.680000	18.129999	-1.120000	404.00	-0.25	-0.00	19.50	14.00	9.50	8.25	2.50	1.50	1.50	1.50	0.00	0.50	0.50	1.25	1.50	1.00	0.00	0.00	-0.166504	0.154785	0.940918	7.630000	-11.270000	4.480000	723.00	-0.28	-0.04
1.06	8.50	6.75	6.25	4.00	1.25	0.50	1.50	0.00	0.25	0.75	0.75	0.25	0.00	0.75	0.00	0.00	-0.192871	0.094238	0.925293	-0.560000	21.840000	-3.570000	365.00	-0.26	0.00	20.75	15.50	10.25	8.75	2.25	1.75	1.50	1.50	0.00	0.25	0.75	1.25	1.75	0.75	0.00	0.00	-0.157715	0.160645	0.926758	4.970000	-11.200000	4.830000	768.00	-0.28	-0.04
1.07	7.50	6.00	5.50	2.50	1.25	0.50	1.50	0.00	0.25	1.25	0.50	0.25	0.00	0.50	0.00	0.00	-0.220703	0.086914	0.933105	-1.960000	25.900000	-6.230000	319.00	-0.25	0.02	21.25	16.75	10.50	9.50	2.50	1.50	1.50	1.50	0.00	0.25	0.50	1.00	1.75	0.75	0.00	0.00	-0.153809	0.154297	0.930664	0.980000	-10.990000	5.180000	792.00	-0.29	-0.04
1.08	6.50	5.25	5.00	2.25	1.00	0.00	1.50	0.25	0.50	1.50	0.50	0.25	0.00	0.75	0.00	0.00	-0.175293	0.062012	0.932617	-1.470000	30.450001	-8.680000	295.00	-0.22	0.02	22.50	18.50	11.00	10.00	2.50	2.00	1.50	1.50	0.00	0.25	0.50	1.25	1.75	0.50	0.00	0.00	-0.156738	0.147949	0.942871	-4.550000	-11.130000	5.530000	843.00	-0.29	-0.05
1.09	5.75	4.50	4.25	1.75	0.75	0.00	1.50	0.00	0.50	1.00	0.75	0.25	0.00	0.25	0.00	0.00	-0.395020	0.022949	0.985352	-0.770000	35.630001	-11.130000	249.00	-0.22	0.03	24.25	20.00	11.50	10.75	2.50	2.25	1.50	1.50	0.00	0.25	0.75	1.25	2.00	0.50	0.00	0.00	-0.144043	0.157715	0.933105	-7.560000	-11.130000	5.320000	901.00	-0.29	-0.05
1.10	4.75	3.25	3.25	1.00	0.50	0.00	1.25	0.00	0.75	1.25	0.75	0.75	0.00	0.75	0.00	0.00	-0.350586	0.153320	0.903809	-2.520000	46.270000	-19.460001	214.00	-0.17	0.04	25.25	21.50	12.00	11.50	2.75	2.75	1.50	1.75	0.00	0.50	0.50	1.25	2.00	0.75	0.00	0.00	-0.148438	0.159180	0.950684	-11.060000	-10.290000	5.040000	958.00	-0.29	-0.05
1.11	3.75	2.75	2.50	0.75	0.25	0.00	1.00	0.25	0.75	1.25	0.75	0.50	0.00	0.75	0.00	0.00	-0.297363	0.183594	0.960449	-1.680000	64.540001	-31.780001	180.00	-0.15	0.03	27.00	23.00	12.50	12.50	3.00	3.00	1.50	1.50	0.00	0.25	0.75	1.25	2.00	0.75	0.00	0.00	-0.142090	0.151367	0.953613	-13.510000	-9.100000	4.200000	1013.00	-0.30	-0.05
1.12	1.50	0.75	0.25	0.00	0.00	0.00	0.75	0.00	0.50	1.50	0.75	0.25	0.00	0.50	0.00	0.00	-0.645508	0.372559	0.913574	-4.830000	127.959999	-52.920002	80.00	0.01	0.07	28.50	23.75	13.00	13.00	3.25	3.25	1.50	1.75	0.00	0.50	0.75	1.25	2.00	0.75	0.00	0.00	-0.147949	0.145020	0.960938	-14.560000	-8.260000	3.570000	1062.00	-0.30	-0.05
1.13	2.75	1.00	0.75	0.00	0.00	0.00	0.50	0.00	0.25	1.25	0.75	0.25	0.00	0.50	0.00	0.00	-0.480957	0.452148	1.309570	-1.330000	144.970001	-62.930000	92.00	-0.11	0.06	29.50	25.50	13.50	13.75	3.25	3.75	1.50	2.00	0.00	0.50	0.75	1.50	2.00	0.75	0.00	0.00	-0.143066	0.136230	0.973633	-13.440001	-7.140000	2.870000	1119.00	-0.29	-0.05
1.14	1.25	1.50	0.75	0.75	0.00	0.00	0.25	0.00	0.00	0.75	1.00	0.00	0.00	0.25	0.00	0.00	-0.441406	0.422852	1.173828	-14.840000	149.169998	-75.180000	74.00	-0.15	-0.02	30.25	26.25	14.00	14.25	3.50	4.00	1.50	2.00	0.00	0.50	0.75	1.50	1.75	0.75	0.00	0.00	-0.137207	0.134277	0.973145	-11.200000	-6.090000	2.030000	1151.00	-0.30	-0.05
1.15	2.25	1.00	0.00	0.00	0.00	0.00	0.50	0.00	0.00	1.25	0.50	0.00	0.00	0.00	0.00	0.00	-0.424805	0.410156	1.347168	-5.810000	150.289993	-87.150002	64.00	-0.14	0.05	31.25	26.75	14.50	14.75	3.50	4.25	1.50	2.25	0.00	0.75	1.00	1.50	2.25	0.75	0.00	0.00	-0.132324	0.136719	0.971191	-8.960000	-4.340000	1.610000	1197.00	-0.29	-0.05
1.16	2.00	0.75	0.00	0.00	0.00	0.00	0.50	0.00	0.00	1.00	0.50	0.00	0.00	0.00	0.00	0.00	-0.364746	0.413086	1.639648	-30.309999	142.940002	-99.190002	55.00	-0.14	0.06	31.25	27.25	14.25	15.00	3.50	4.50	1.50	2.25	0.25	0.50	1.00	1.25	2.00	0.75	0.00	0.00	-0.127441	0.130859	0.971680	-7.140000	-2.520000	1.050000	1200.00	-0.29	-0.05
1.17	1.50	0.25	0.25	0.75	0.00	0.25	0.50	0.00	0.00	0.50	0.00	0.00	0.00	0.00	0.00	0.00	-0.359375	0.261230	1.763184	-59.570000	125.930000	-99.610001	48.00	0.00	0.00	31.00	27.50	14.50	15.25	3.75	4.75	1.50	2.25	0.00	0.75	1.00	1.25	2.50	0.75	0.00	0.00	-0.129395	0.137695	0.970215	-5.250000	-0.910000	0.420000	1216.00	-0.29	-0.06
1.18	0.00	0.00	0.00	0.00	0.00	0.25	0.50	0.00	0.00	0.50	0.00	0.00	0.00	0.00	0.00	0.00	-0.404785	0.440918	1.218750	-84.629997	109.760002	-104.300003	17.00	0.00	0.00	31.00	27.25	14.50	15.25	3.75	5.00	1.50	2.25	0.25	0.75	1.00	1.75	2.25	0.75	0.00	0.00	-0.133301	0.143555	0.969727	-3.010000	0.420000	-0.000000	1224.00	-0.29	-0.06
1.19	0.25	1.00	0.50	0.00	0.00	0.00	0.50	0.00	0.00	0.25	0.00	0.00	0.00	0.00	0.00	0.00	-0.037109	0.397949	1.442871	-101.849998	102.340004	-112.770004	30.00	0.00	0.00	31.25	27.00	14.50	15.00	3.75	5.00	1.50	2.50	0.00	0.75	1.00	1.50	2.50	0.75	0.00	0.00	-0.126953	0.145996	0.960938	-0.000000	2.800000	-0.070000	1221.00	-0.29	-0.06
1.20	1.50	1.25	0.75	0.75	0.00	0.00	0.50	0.00	0.00	0.00	0.00	0.00	0.00	0.00	0.00	0.00	0.013672	0.523926	1.302246	-94.570000	93.519997	-117.110001	56.00	-0.29	0.01	30.75	26.75	14.00	15.25	3.75	5.00	1.50	2.50	0.00	0.75	1.00	1.50	2.50	0.50	0.00	0.00	-0.131348	0.152832	0.958496	-0.350000	4.340000	-0.420000	1207.00	-0.29	-0.06
1.21	1.75	1.25	0.75	0.50	0.00	0.25	0.50	0.00	0.00	0.25	0.00	0.00	0.00	0.00	0.00	0.00	0.113770	0.883789	1.173340	-68.389999	82.040001	-110.459999	62.00	-0.27	0.01	30.25	26.25	14.00	15.00	3.75	5.00	1.50	2.75	0.00	0.75	1.00	1.25	3.00	1.00	0.00	0.00	-0.131836	0.154785	0.966309	-0.910000	5.600000	-0.910000	1204.00	-0.28	-0.06
1.22	2.00	1.00	0.50	0.50	0.00	0.00	0.75	0.00	0.00	0.00	0.00	0.00	0.00	0.00	0.00	0.00	0.547363	0.851562	1.277832	-25.129999	60.549999	-88.760002	57.00	-0.27	0.05	30.00	25.75	13.75	15.00	3.50	5.00	1.50	2.75	0.00	0.75	1.00	1.50	2.75	0.75	0.25	0.00	-0.141113	0.143555	0.962402	-1.190000	6.440000	-1.330000	1191.00	-0.28	-0.06
1.23	1.50	1.25	0.25	0.50	0.00	0.00	0.75	0.00	0.00	0.00	0.00	0.00	0.00	0.00	0.00	0.00	0.531250	0.746094	0.949707	-4.900000	41.720001	-63.700001	51.00	-0.27	0.03	29.00	25.50	13.50	14.75	3.50	5.00	1.75	2.75	0.25	0.75	0.75	1.50	3.25	1.00	0.25	0.00	-0.140625	0.149414	0.957520	-1.470000	7.070000	-1.610000	1183.00	-0.28	-0.06
1.24	0.75	1.00	0.00	0.00	0.00	0.00	0.75	0.00	0.00	0.00	0.00	0.00	0.00	0.00	0.00	0.00	0.670898	0.825684	0.757812	8.750000	27.719999	-2.310000	31.00	0.00	0.00	29.25	24.75	13.25	14.50	3.50	5.00	1.50	2.75	0.25	0.75	0.75	1.50	3.25	0.75	0.00	0.00	-0.152832	0.138672	0.960938	-1.820000	7.350000	-1.960000	1163.00	-0.28	-0.06
1.25	1.50	1.25	0.50	0.50	0.00	0.00	0.75	0.00	0.00	0.00	0.00	0.00	0.00	0.00	0.00	0.00	0.670898	0.825684	0.757812	8.750000	27.719999	-2.310000	54.00	-0.27	0.04	28.25	24.25	13.00	14.25	3.50	5.00	1.50	3.00	0.25	0.75	1.00	1.50	3.25	1.00	0.00	0.00	-0.150879	0.145996	0.957520	-1.960000	7.000000	-2.100000	1150.00	-0.28	-0.06
1.26	1.75	0.75	0.50	0.25	0.00	0.00	0.75	0.00	0.00	0.00	0.00	0.00	0.00	0.00	0.00	0.00	0.751953	0.790039	0.804688	25.549999	21.490000	28.490000	49.00	0.00	0.00	27.75	23.75	13.00	14.00	3.25	5.00	1.75	3.00	0.00	0.75	1.25	1.50	3.00	0.75	0.00	0.00	-0.150879	0.139648	0.957031	-1.890000	6.370000	-2.170000	1132.00	-0.28	-0.07
1.27	1.75	0.75	0.50	0.50	0.00	0.25	0.75	0.00	0.00	0.00	0.00	0.00	0.00	0.00	0.00	0.00	0.808105	0.470703	0.924805	50.540001	0.700000	79.169998	55.00	-0.25	0.04	27.25	23.00	12.75	13.75	3.50	5.00	1.75	3.25	0.00	1.00	1.25	1.50	3.75	0.75	0.00	0.00	-0.146484	0.138184	0.946289	-1.750000	6.020000	-2.240000	1130.00	-0.27	-0.07
1.28	1.75	1.00	0.50	0.00	0.00	0.50	0.75	0.00	0.00	0.00	0.00	0.00	0.00	0.00	0.00	0.00	0.796387	0.333984	0.965332	57.750000	-11.760000	95.620003	54.00	-0.25	0.04	26.50	22.50	12.75	13.50	3.50	5.00	1.75	3.25	0.25	1.00	1.00	1.50	3.75	0.75	0.00	0.00	-0.140625	0.140625	0.944336	-1.820000	5.880000	-2.170000	1114.00	-0.27	-0.07
1.29	1.50	1.25	0.25	0.25	0.00	0.00	0.75	0.00	0.00	0.00	0.00	0.00	0.00	0.00	0.00	0.00	0.775879	0.182129	1.028320	65.449997	-24.710001	105.489998	48.00	0.00	0.00	26.25	22.25	12.25	13.25	3.25	5.25	1.75	3.50	0.25	1.00	1.50	1.75	4.75	0.75	0.00	0.00	-0.144043	0.140625	0.951172	-2.240000	5.880000	-2.030000	1122.00	-0.26	-0.07
1.30	1.50	1.00	0.25	0.00	0.00	0.25	0.75	0.00	0.00	0.00	0.00	0.00	0.00	0.00	0.00	0.00	0.741699	0.030273	1.101074	70.489998	-37.660000	108.989998	45.00	0.00	0.00	25.50	21.25	12.25	13.25	3.25	5.25	1.75	3.75	0.00	1.00	1.50	1.75	5.00	1.00	0.00	0.00	-0.152344	0.143066	0.958496	-2.170000	5.740000	-2.100000	1109.00	-0.25	-0.08
1.31	1.25	1.25	0.50	0.25	0.00	0.00	0.75	0.00	0.00	0.00	0.00	0.00	0.00	0.00	0.00	0.00	0.697754	-0.099121	1.192383	70.489998	-51.099998	107.029999	48.00	0.00	0.00	25.00	21.00	12.00	13.00	3.25	5.50	1.75	4.00	0.00	1.25	1.25	2.00	5.00	0.75	0.00	0.00	-0.152832	0.136719	0.957520	-1.680000	5.110000	-1.960000	1102.00	-0.25	-0.08
1.32	1.75	1.50	0.25	0.75	0.00	0.50	0.75	0.00	0.00	0.00	0.00	0.00	0.00	0.00	0.00	0.00	0.652344	-0.203125	1.259766	66.220001	-64.959999	100.590004	65.00	-0.27	-0.01	24.25	20.25	11.75	13.00	3.25	5.75	1.75	4.25	0.25	1.00	1.50	2.00	5.50	1.00	0.25	0.00	-0.144043	0.150879	0.953125	-2.660000	5.390000	-2.100000	1104.00	-0.24	-0.08
1.33	1.00	1.00	0.00	0.25	0.00	0.00	0.75	0.00	0.00	0.00	0.00	0.00	0.00	0.00	0.00	0.00	0.604980	-0.274414	1.307129	59.779999	-78.610001	90.510002	37.00	0.00	0.00	23.75	19.75	11.50	12.75	3.50	6.00	2.00	4.50	0.25	1.25	1.50	2.00	6.00	1.00	0.00	0.00	-0.151855	0.154785	0.942383	-3.780000	5.740000	-2.100000	1106.00	-0.24	-0.09
1.34	1.00	0.75	0.25	0.25	0.00	0.25	0.75	0.00	0.00	0.00	0.00	0.00	0.00	0.00	0.00	0.00	0.566895	-0.310059	1.337402	52.080002	-91.209999	77.489998	40.00	0.00	0.00	22.75	19.00	11.25	12.50	3.00	6.00	2.00	5.00	0.25	1.25	1.50	2.25	6.25	1.00	0.25	0.00	-0.147461	0.148438	0.950684	-4.830000	6.090000	-2.240000	1091.00	-0.23	-0.09
1.35	1.25	0.50	0.00	0.50	0.00	0.25	0.75	0.00	0.00	0.00	0.00	0.00	0.00	0.00	0.00	0.00	0.529297	-0.326660	1.366699	43.750000	-103.250000	62.790001	40.00	0.00	0.00	22.50	18.00	11.00	12.25	3.25	6.25	2.00	5.25	0.50	1.50	1.75	2.50	6.75	1.00	0.00	0.00	-0.147461	0.146484	0.953125	-4.760000	6.160000	-2.450000	1097.00	-0.22	-0.09
1.36	1.50	0.50	0.25	0.00	0.00	0.00	0.75	0.00	0.00	0.00	0.00	0.00	0.00	0.00	0.00	0.00	0.495605	-0.312988	1.400391	35.980000	-114.940002	47.529999	37.00	0.00	0.00	21.25	17.25	10.50	11.75	3.25	6.25	2.25	5.50	0.25	1.50	1.75	2.75	7.00	1.25	0.00	0.00	-0.144531	0.144043	0.958008	-4.060000	5.880000	-2.730000	1075.00	-0.21	-0.10
1.37	1.25	0.75	0.00	0.25	0.00	0.25	0.75	0.00	0.00	0.00	0.00	0.00	0.00	0.00	0.00	0.00	0.444336	-0.286133	1.408691	29.120001	-125.160004	32.549999	40.00	0.00	0.00	20.75	16.25	10.50	11.50	3.50	6.75	2.25	6.00	0.25	1.50	2.00	2.75	8.00	1.25	0.50	0.00	-0.147949	0.151855	0.960449	-3.640000	6.090000	-2.940000	1092.00	-0.20	-0.10
1.38	1.00	0.00	0.00	0.00	0.00	0.00	0.50	0.00	0.00	0.00	0.00	0.00	0.00	0.00	0.00	0.00	0.391602	-0.233887	1.383789	23.799999	-133.630005	18.900000	20.00	0.00	0.00	19.75	15.50	10.25	11.25	3.25	6.50	2.50	6.25	0.50	1.75	2.25	3.25	8.25	1.50	0.50	0.00	-0.147461	0.146973	0.958496	-3.220000	6.370000	-3.290000	1089.00	-0.18	-0.11
1.39	0.00	0.00	0.00	0.00	0.00	0.00	0.75	0.00	0.00	0.00	0.00	0.00	0.00	0.00	0.00	0.00	0.304688	-0.192383	1.370605	19.879999	-139.440002	7.350000	12.00	0.00	0.00	19.00	14.25	9.75	10.75	3.50	6.75	2.50	6.25	0.50	2.00	2.25	3.25	9.00	1.75	0.25	0.00	-0.151367	0.143066	0.955078	-2.730000	6.790000	-3.640000	1071.00	-0.18	-0.11
1.40	1.00	0.25	0.00	0.25	0.00	0.00	0.75	0.00	0.00	0.00	0.00	0.00	0.00	0.00	0.00	0.00	0.248535	-0.151855	1.339844	15.820000	-142.240005	-2.100000	29.00	0.00	0.00	17.25	13.00	9.50	10.25	3.50	6.75	2.75	6.50	0.75	2.00	2.75	4.00	9.50	1.75	0.50	0.00	-0.149902	0.151367	0.957031	-2.730000	7.140000	-3.850000	1063.00	-0.16	-0.11
1.41	0.75	1.00	0.00	0.25	0.00	0.00	0.75	0.00	0.00	0.00	0.00	0.00	0.00	0.00	0.00	0.00	0.195312	-0.088379	1.320312	11.620000	-142.100006	-9.100000	34.00	0.00	0.00	16.25	11.50	9.25	9.75	3.50	6.50	2.75	6.75	0.75	2.25	2.75	4.25	10.00	1.50	0.50	0.25	-0.152344	0.144043	0.958496	-3.290000	7.700000	-4.340000	1039.00	-0.14	-0.12
1.42	0.75	0.75	0.50	0.25	0.00	0.00	0.75	0.00	0.00	0.00	0.00	0.00	0.00	0.00	0.00	0.00	0.084961	-0.006836	1.261719	7.420000	-134.470001	-14.420000	37.00	0.00	0.00	14.75	10.00	8.75	9.50	3.50	6.50	3.00	6.75	0.75	2.75	3.25	5.00	10.50	2.00	0.50	0.00	-0.173828	0.157227	0.974121	-3.850000	8.260000	-4.830000	1030.00	-0.12	-0.12
1.43	0.75	0.50	0.25	0.25	0.00	0.25	0.75	0.00	0.00	0.00	0.00	0.00	0.00	0.00	0.00	0.00	0.019531	0.020020	1.228027	6.510000	-128.240005	-13.510000	35.00	0.00	0.00	13.50	9.25	8.75	9.00	3.50	6.50	3.25	7.00	1.00	2.75	3.50	5.25	10.75	2.25	0.75	0.50	-0.153320	0.144531	0.954590	-4.200000	9.870000	-5.250000	1030.00	-0.11	-0.12
1.44	1.00	0.50	0.00	0.00	0.00	0.25	0.75	0.00	0.00	0.00	0.00	0.00	0.00	0.25	0.00	0.00	-0.050781	0.049316	1.224121	7.210000	-121.449997	-10.220000	34.00	0.00	0.00	11.25	7.75	8.25	8.50	3.50	6.25	3.25	7.00	1.75	3.00	4.00	6.25	11.25	2.75	1.25	0.50	-0.168945	0.147949	0.950195	-4.620000	11.130000	-5.740000	1020.00	-0.08	-0.12
1.45	1.25	0.75	0.25	0.25	0.00	0.50	0.75	0.00	0.00	0.00	0.00	0.00	0.00	0.00	0.00	0.00	-0.118652	0.080078	1.239258	9.940000	-115.360001	-4.550000	46.00	0.00	0.00	10.00	7.00	7.75	7.75	3.25	6.00	3.25	7.00	1.75	3.50	5.25	7.25	11.75	2.75	0.75	0.75	-0.141602	0.163086	0.961914	-5.180000	12.810000	-6.370000	1010.00	-0.06	-0.13
1.46	1.50	0.50	0.00	0.00	0.00	0.25	0.75	0.00	0.00	0.00	0.00	0.00	0.00	0.00	0.00	0.00	-0.202637	0.087891	1.255859	13.160000	-110.180000	3.430000	37.00	0.00	0.00	8.50	6.25	7.25	7.00	3.25	5.75	3.50	7.25	2.25	3.75	6.25	7.75	12.00	3.00	0.75	1.25	-0.173828	0.148438	0.951660	-5.740000	15.260000	-7.070000	1010.00	-0.03	-0.13
1.47	0.00	0.00	0.00	0.00	0.00	0.00	0.75	0.00	0.00	0.00	0.00	0.00	0.00	0.00	0.00	0.00	-0.298340	0.110352	1.252441	15.890000	-106.540001	13.160000	12.00	0.00	0.00	7.50	5.75	6.50	6.50	3.25	5.50	3.50	7.25	2.75	4.25	7.50	8.25	12.50	3.25	1.25	1.25	-0.134766	0.140625	0.955078	-5.600000	17.570000	-7.840000	1021.00	-0.01	-0.13
1.48	0.75	0.25	0.25	0.00	0.00	0.00	0.75	0.00	0.00	0.00	0.00	0.00	0.00	0.00	0.00	0.00	-0.395996	0.109863	1.213867	19.040001	-102.620003	24.990000	26.00	0.00	0.00	7.00	5.00	6.00	5.75	3.25	5.25	3.75	7.25	3.25	5.50	8.00	8.75	12.75	3.50	1.50	1.75	-0.156250	0.124512	0.976074	-4.480000	20.510000	-8.050000	1037.00	0.01	-0.13
1.49	0.00	0.00	0.00	0.00	0.00	0.00	0.50	0.00	0.00	0.00	0.00	0.00	0.00	0.00	0.00	0.00	-0.493164	0.092285	1.181152	20.790001	-97.790001	37.590000	8.00	0.00	0.00	6.25	3.75	5.25	4.75	2.75	5.00	4.00	7.25	4.25	7.00	8.75	9.50	13.50	3.75	1.25	2.50	-0.177246	0.138672	0.960938	-2.380000	24.780001	-7.980000	1050.00	0.04	-0.13
1.50	0.00	0.00	0.00	0.00	0.00	0.00	0.75	0.00	0.00	0.00	0.00	0.00	0.00	0.00	0.00	0.00	-0.597168	0.081055	1.135742	19.670000	-91.349998	49.700001	12.00	0.00	0.00	5.50	3.00	5.00	4.50	2.50	4.50	4.00	7.25	5.00	7.50	9.25	10.00	13.75	4.50	1.75	3.00	-0.216309	0.126953	0.965820	-0.420000	29.120001	-7.420000	1065.00	0.06	-0.12
1.51	0.00	0.00	0.00	0.00	0.00	0.00	0.75	0.00	0.00	0.00	0.00	0.00	0.00	0.00	0.00	0.00	-0.701172	0.084473	1.093750	16.030001	-84.349998	60.760002	12.00	0.00	0.00	4.75	2.25	4.00	3.50	2.25	3.25	4.00	7.25	5.75	8.25	10.00	10.50	14.25	5.00	2.00	3.75	-0.214844	0.142090	0.961914	2.100000	33.110001	-7.070000	1057.00	0.09	-0.12
1.52	0.00	0.00	0.00	0.00	0.00	0.00	0.75	0.00	0.00	0.00	0.00	0.00	0.00	0.00	0.00	0.00	-0.813477	0.099121	1.069336	10.780000	-76.930000	71.260002	12.00	0.00	0.00	3.75	1.75	2.75	2.75	1.50	2.25	4.00	7.00	6.25	8.75	10.75	11.00	14.75	5.75	2.75	4.75	-0.208984	0.145508	0.984863	3.640000	37.170002	-7.490000	1045.00	0.12	-0.12
1.53	0.00	0.00	0.00	0.00	0.00	0.00	0.75	0.00	0.00	0.00	0.00	0.00	0.00	0.00	0.00	0.00	-0.951172	0.083008	1.061523	4.900000	-71.120003	81.690002	12.00	0.00	0.00	3.25	1.75	2.50	2.25	1.50	1.50	3.75	7.00	7.25	9.50	11.25	11.50	15.25	6.50	3.25	5.25	-0.158691	0.175781	0.974609	5.180000	43.540001	-8.540000	1072.00	0.14	-0.12
1.54	0.00	0.00	0.00	0.00	0.00	0.00	0.75	0.00	0.00	0.00	0.00	0.00	0.00	0.00	0.00	0.00	-1.111816	0.043945	1.074707	-2.170000	-68.320000	91.279999	12.00	0.00	0.00	3.00	1.25	1.75	2.00	1.25	1.00	3.75	6.50	7.75	10.00	12.00	12.00	15.50	7.25	3.50	5.50	-0.200195	0.103516	0.975098	6.020000	61.529999	-10.640000	1075.00	0.15	-0.11
1.55	0.00	0.00	0.00	0.00	0.00	0.00	0.75	0.00	0.00	0.00	0.00	0.00	0.00	0.00	0.00	0.00	-1.300293	-0.003906	1.064453	-11.830000	-71.750000	98.699997	12.00	0.00	0.00	2.00	1.00	0.75	0.50	0.75	0.75	3.50	6.25	8.00	10.50	12.50	12.50	15.50	8.00	4.25	6.25	-0.192383	0.153320	1.023926	6.650000	77.840004	-11.270000	1055.00	0.18	-0.11
1.56	0.00	0.50	0.25	0.00	0.00	0.00	0.75	0.00	0.00	0.00	0.00	0.00	0.00	0.00	0.00	0.00	-1.814941	0.068848	0.820801	-25.760000	-92.050003	100.730003	20.00	0.00	0.00	0.75	0.25	0.50	0.50	0.50	0.25	3.00	5.75	8.50	11.00	13.25	13.00	15.50	8.75	4.50	6.75	-0.246582	0.137695	1.000977	10.850000	107.169998	-10.920000	1045.00	0.21	-0.11
1.57	0.00	0.00	0.00	0.00	0.00	0.00	0.75	0.00	0.00	0.00	0.00	0.00	0.00	0.00	0.00	0.00	-2.125000	0.107910	0.574219	-22.330000	-101.989998	92.190002	12.00	0.00	0.00	1.75	0.50	0.25	0.75	0.50	0.00	2.50	5.25	8.75	11.50	13.25	13.00	15.50	9.75	5.00	7.50	-0.283203	0.149414	1.008789	15.330000	127.330002	-10.360000	1068.00	0.20	-0.11
1.58	0.00	0.00	0.00	0.00	0.00	0.00	0.75	0.00	0.00	0.00	0.00	0.00	0.00	0.00	0.00	0.00	-2.413574	0.086914	0.205566	-16.240000	-105.000000	75.669998	12.00	0.00	0.00	1.25	0.50	0.75	1.00	0.50	0.00	2.25	4.25	9.00	11.75	13.75	13.00	15.25	11.00	5.50	8.00	-0.296387	0.166016	1.107910	23.100000	156.380005	-13.440001	1080.00	0.21	-0.10
1.59	0.50	0.00	0.00	0.00	0.00	0.00	0.75	0.00	0.00	0.00	0.00	0.00	0.00	0.00	0.00	0.00	-2.659668	0.062012	-0.086914	-5.250000	-96.949997	51.520000	18.00	0.00	0.00	1.00	0.50	0.50	0.75	0.25	0.00	1.75	3.50	9.25	12.25	14.00	13.25	15.25	12.25	6.25	8.50	-0.300781	0.173340	1.055176	33.810001	185.220001	-21.280001	1086.00	0.23	-0.09
1.60	0.00	0.00	0.00	0.25	0.00	0.00	0.75	0.00	0.00	0.00	0.00	0.00	0.00	0.00	0.00	0.00	-4.153809	-0.395020	0.143555	32.060001	-13.790000	15.890000	15.00	0.00	0.00	1.25	0.50	0.50	0.75	0.25	0.00	1.25	3.00	9.25	12.50	14.00	13.25	14.75	13.50	6.75	8.75	-0.337891	0.158691	1.174805	33.670002	213.850006	-26.320000	1089.00	0.23	-0.09
1.61	2.50	2.75	1.00	1.25	0.00	0.00	0.50	0.00	0.00	0.00	0.00	0.00	0.00	0.00	0.00	0.00	-4.302246	-0.517578	-2.645996	-7.350000	27.370001	-36.049999	91.00	-0.33	-0.02	1.00	0.25	0.25	0.25	0.25	0.00	1.00	2.50	9.25	12.75	14.00	13.00	14.00	14.75	7.25	9.00	-0.400879	0.161133	1.102051	30.240000	243.040009	-27.790001	1074.00	0.24	-0.08
1.62	4.25	4.75	1.50	1.25	0.00	0.00	0.75	0.00	0.00	0.00	0.00	0.00	0.00	0.00	0.00	0.00	-0.247559	-0.226562	0.465332	-43.610001	192.850006	-84.699997	142.00	-0.34	-0.01	1.00	0.25	0.25	0.25	0.25	0.00	0.75	2.00	9.50	12.75	14.25	12.75	13.50	15.50	7.50	9.00	-0.412109	0.172852	1.174805	24.850000	268.450012	-29.820000	1070.00	0.25	-0.08
1.63	7.25	7.75	1.75	2.25	0.00	0.00	0.75	0.00	0.00	0.00	0.00	0.00	0.00	0.00	0.00	0.00	0.019531	0.754883	1.879883	-17.780001	277.760010	-93.870003	221.00	-0.35	-0.02	0.75	0.25	0.25	0.00	0.00	0.00	0.75	1.75	9.50	13.00	14.00	12.50	12.75	16.25	7.75	9.25	-0.498535	0.184570	1.195801	16.240000	288.750000	-31.780001	1059.00	0.26	-0.07
1.64	8.50	8.50	2.25	2.25	0.00	0.00	0.75	0.00	0.00	0.00	0.00	0.00	0.00	0.00	0.00	0.00	0.280273	1.006836	3.915039	10.850000	230.089996	-70.559998	249.00	-0.36	-0.02	0.75	0.00	0.00	0.00	0.25	0.00	0.75	1.25	9.25	13.00	13.75	12.25	11.75	16.75	7.75	9.00	-0.523926	0.174805	1.184570	6.160000	308.839996	-34.020000	1032.00	0.26	-0.06
1.65	9.50	10.25	3.25	5.25	0.00	0.00	0.75	0.00	0.00	0.00	0.00	0.00	0.00	0.00	0.00	0.00	-0.558594	0.339844	2.294434	15.470000	136.570007	-49.840000	326.00	-0.35	-0.04	0.50	0.00	0.00	0.00	0.00	0.00	0.75	1.00	9.00	12.75	13.50	11.50	11.00	17.25	8.00	9.00	-0.539062	0.180176	1.182129	-7.280000	331.940002	-36.610001	1005.00	0.27	-0.06
1.66	10.00	10.25	4.00	5.25	0.00	0.00	0.75	0.00	0.00	0.00	0.00	0.00	0.00	0.00	0.00	0.00	-0.668457	0.182617	0.749023	27.090000	113.470001	-45.639999	340.00	-0.35	-0.03	0.50	0.00	0.00	0.00	0.00	0.00	1.00	0.50	8.75	12.50	13.00	10.75	10.00	17.25	7.50	8.75	-0.646973	0.356445	1.489258	-16.030001	358.820007	-41.369999	963.00	0.27	-0.05
1.67	10.75	10.50	5.00	7.00	0.00	0.00	0.75	0.00	0.00	0.00	0.00	0.00	0.00	0.00	0.00	0.00	-0.372559	0.522949	1.331543	20.860001	142.869995	-41.369999	385.00	-0.34	-0.04	0.00	0.00	0.00	0.00	0.00	0.00	1.00	0.50	8.00	11.75	12.50	10.00	8.50	17.00	7.50	8.00	-0.683594	0.305176	1.270996	-24.780001	386.959991	-48.439999	903.00	0.28	-0.05
1.68	11.75	11.25	5.25	7.50	0.25	0.50	0.75	0.00	0.00	0.00	0.00	0.00	0.00	0.00	0.00	0.00	-0.069824	0.619629	1.499512	20.090000	129.289993	-19.180000	422.00	-0.34	-0.04	0.25	0.00	0.00	0.00	0.00	0.00	1.25	0.25	7.00	11.00	11.25	8.75	7.50	16.50	7.00	7.50	-1.224121	0.350586	1.783203	-34.439999	430.080017	-69.580002	831.00	0.28	-0.04
1.69	11.75	11.75	6.00	8.00	0.25	1.00	0.75	0.00	0.00	0.00	0.00	0.25	0.00	0.00	0.00	0.00	-0.171387	0.115723	0.923828	21.420000	100.519997	0.140000	451.00	-0.33	-0.05	0.25	0.00	0.00	0.00	0.00	0.00	1.50	0.00	5.75	9.75	10.25	7.75	5.75	15.25	6.00	5.50	-1.712891	0.331543	2.725098	-16.240000	445.410004	-67.970001	725.00	0.28	-0.03
1.70	12.50	12.25	7.00	8.50	0.50	2.50	0.75	0.50	0.00	0.00	0.00	0.50	1.00	0.00	0.00	0.00	-0.235840	0.206543	0.666992	-28.770000	86.029999	-6.860000	524.00	-0.31	-0.07	0.00	0.00	0.00	0.00	0.00	0.00	1.50	0.00	4.50	8.75	8.75	6.25	3.75	13.25	5.00	3.50	-1.804688	0.433594	2.006348	-20.650000	463.330017	-73.290001	597.00	0.28	-0.01
1.71	13.50	12.75	7.75	8.75	0.75	2.25	1.00	1.00	0.25	0.00	0.00	0.50	1.25	0.00	0.00	0.00	-0.294922	0.244629	1.136230	-32.689999	45.220001	-3.500000	571.00	-0.30	-0.06	0.00	0.00	0.00	0.00	0.00	0.00	1.25	0.00	2.50	7.75	7.50	4.75	2.75	10.75	3.00	1.25	-1.851074	0.761230	3.326172	23.590000	475.299988	-64.959999	453.00	0.28	-0.01
1.72	16.25	13.25	8.75	9.50	1.00	3.50	0.75	1.75	0.00	0.00	0.25	0.50	1.75	0.00	0.00	0.00	-0.219727	0.205078	1.003906	-45.150002	36.889999	-2.450000	658.00	-0.29	-0.07	0.00	0.00	0.00	0.00	0.00	0.00	1.00	0.00	1.25	6.25	6.00	4.25	2.00	8.75	1.50	0.25	-1.449707	0.086426	3.036621	33.459999	481.320007	-81.340004	342.00	0.27	-0.02
1.73	18.25	15.50	9.50	10.25	1.25	4.50	1.00	1.75	0.00	0.00	0.50	1.00	1.75	0.25	0.00	0.00	-0.238770	0.140137	1.085938	-43.680000	33.180000	-1.960000	752.00	-0.29	-0.07	0.00	0.00	0.00	0.00	0.00	0.00	1.00	0.00	0.75	4.75	4.75	3.75	1.75	6.75	0.75	0.00	-1.060059	0.242188	2.535645	21.420000	490.980011	-80.989998	267.00	0.26	-0.02
1.74	19.25	15.75	9.50	10.25	1.25	4.75	1.00	1.75	0.50	0.25	0.50	1.00	1.75	0.25	0.00	0.00	-0.262207	0.119629	1.084961	-37.240002	23.240000	-2.310000	778.00	-0.28	-0.07	0.00	0.00	0.00	0.00	0.00	0.00	0.75	0.00	0.50	4.25	3.50	2.75	1.25	5.00	0.00	0.00	-0.729004	0.619629	3.191895	11.970000	485.660004	-86.660004	198.00	0.26	-0.02
1.75	19.25	15.75	9.75	10.50	1.50	4.50	1.00	2.00	0.00	0.50	0.50	1.00	2.00	0.00	0.00	0.00	-0.226562	0.143066	1.020508	-29.120001	14.280000	-2.170000	784.00	-0.28	-0.07	0.00	0.00	0.50	0.00	0.00	0.00	0.75	0.00	0.50	3.00	2.75	3.00	1.25	3.75	1.50	0.25	-0.206543	1.040039	3.426758	43.330002	458.429993	-77.489998	191.00	0.25	-0.04
1.76	19.75	16.00	10.00	10.75	1.75	4.50	1.00	1.75	0.00	0.25	0.50	0.75	1.25	0.50	0.00	0.00	-0.195312	0.140137	0.992188	-21.070000	10.150000	-0.630000	789.00	-0.29	-0.06	0.00	0.75	0.75	0.50	0.50	0.75	1.25	0.75	1.50	2.75	1.75	2.50	1.75	2.25	1.50	1.00	0.303223	1.023438	2.748535	94.430000	378.140015	-59.849998	233.00	0.16	-0.06
1.77	20.00	16.00	10.00	10.75	1.75	4.75	1.00	1.75	0.00	0.25	0.50	1.00	1.50	0.25	0.00	0.00	-0.210938	0.122070	1.009766	-13.090000	8.050000	0.770000	798.00	-0.29	-0.06	2.75	1.25	0.25	0.00	0.75	0.00	1.25	0.00	1.50	2.50	2.25	2.50	1.75	1.00	0.00	0.00	1.245117	0.216309	3.479492	86.730003	243.250000	-59.360001	207.00	0.06	-0.01
1.78	19.75	16.25	10.00	10.75	1.75	4.75	1.00	1.75	0.00	0.50	0.25	0.75	1.25	0.25	0.00	0.00	-0.209961	0.126953	1.005859	-3.850000	5.670000	1.890000	792.00	-0.29	-0.06	0.50	0.00	0.00	1.50	0.75	1.00	1.25	0.75	1.25	2.25	2.00	2.00	1.25	1.25	0.75	0.75	1.545410	1.075684	0.019043	16.660000	160.300003	-43.610001	204.00	0.12	-0.07
1.79	19.50	16.25	10.00	10.75	1.75	4.50	1.00	1.50	0.00	0.50	0.25	1.00	1.50	0.25	0.00	0.00	-0.208984	0.130371	0.979004	4.690000	4.270000	3.360000	788.00	-0.29	-0.06	2.50	1.25	1.50	1.50	0.75	1.25	1.25	1.00	1.50	2.50	2.00	2.00	1.75	1.75	1.00	1.00	1.191895	0.851562	5.515625	-104.720001	-26.389999	-10.500000	284.00	0.04	-0.06
1.80	19.50	16.00	9.75	10.50	1.50	4.25	1.00	1.75	0.00	0.75	0.50	1.00	1.50	0.00	0.00	0.00	-0.208496	0.136719	0.981934	10.570000	4.340000	5.110000	781.00	-0.29	-0.06	0.00	0.00	0.25	0.00	0.00	0.00	1.00	0.00	0.00	0.50	0.25	0.25	0.00	0.00	0.00	0.00	1.135742	0.475098	1.680664	-174.789993	-226.940002	25.270000	31.00	0.00	0.00
1.81	19.00	16.00	9.75	10.25	1.50	3.50	0.75	1.25	0.00	0.00	0.25	1.00	1.00	0.25	0.00	0.00	-0.203613	0.139160	0.979004	15.050000	4.550000	6.440000	737.00	-0.30	-0.06	0.25	0.00	0.00	0.00	0.00	0.00	1.00	0.00	0.00	0.25	0.25	0.25	0.00	0.00	0.00	0.00	1.034180	0.693848	1.289062	-136.149994	-232.119995	3.500000	28.00	0.00	0.00
1.82	18.75	15.75	9.00	10.25	1.25	3.75	1.00	1.00	0.00	0.25	0.25	0.50	0.75	0.25	0.00	0.00	-0.199707	0.141602	0.982910	17.990000	3.500000	6.720000	717.00	-0.31	-0.06	0.00	0.00	0.00	0.00	0.00	0.00	1.00	0.00	0.00	0.25	0.00	0.00	0.00	0.00	0.00	0.00	0.990723	0.723633	1.114746	-70.489998	-236.110001	-15.820000	19.00	0.00	0.00
1.83	15.00	14.75	9.25	9.50	1.25	3.50	0.75	0.75	0.00	0.25	0.25	0.50	0.50	0.25	0.00	0.00	-0.195312	0.141113	0.986328	19.740000	1.470000	6.160000	645.00	-0.30	-0.06	0.25	0.00	0.00	0.00	0.00	0.00	1.00	0.00	0.00	0.25	0.25	0.00	0.00	0.00	0.00	0.00	0.903320	0.539062	1.399414	-13.510000	-253.330002	-32.200001	25.00	0.00	0.00
1.84	17.75	14.25	9.25	10.00	1.25	3.75	1.00	0.75	0.00	0.25	0.00	0.50	0.50	0.00	0.00	0.00	-0.187012	0.143555	0.957520	21.000000	-1.680000	4.550000	679.00	-0.31	-0.05	0.25	0.00	0.00	0.00	0.00	0.00	1.00	0.00	0.00	0.00	0.00	0.00	0.00	0.00	0.00	0.00	0.769043	0.461914	1.703125	16.240000	-288.820007	-41.160000	19.00	0.00	0.00
1.85	14.50	14.25	9.25	10.00	1.00	3.50	0.75	0.75	0.00	0.00	0.00	0.50	0.25	0.00	0.00	0.00	-0.164551	0.154785	0.897461	12.670000	-0.980000	0.280000	627.00	-0.31	-0.06	0.00	0.00	0.00	0.00	0.00	0.00	1.00	0.00	0.00	0.00	0.00	0.00	0.00	0.00	0.00	0.00	0.612793	0.354004	1.794434	11.830000	-333.760010	-39.689999	16.00	0.00	0.00
1.86	18.00	15.75	9.00	9.75	1.00	3.00	0.75	0.75	0.00	0.00	0.00	0.50	0.50	0.00	0.00	0.00	-0.157715	0.154785	0.888672	12.670000	-0.980000	0.280000	672.00	-0.32	-0.05	0.00	0.00	0.00	0.00	0.00	0.00	1.00	0.00	0.00	0.00	0.00	0.00	0.00	0.00	0.00	0.00	0.395996	0.368164	1.704102	-10.360000	-372.260010	-33.110001	16.00	0.00	0.00
1.87	18.25	15.50	9.00	10.00	1.25	3.00	0.75	1.00	0.00	0.00	0.00	0.50	0.50	0.00	0.00	0.00	-0.160645	0.125977	0.876953	5.950000	2.100000	-2.940000	683.00	-0.32	-0.05	0.00	0.00	0.00	0.00	0.00	0.00	1.00	0.00	0.00	0.00	0.00	0.00	0.00	0.00	0.00	0.00	0.143066	0.482422	1.544922	-32.340000	-396.619995	-24.639999	16.00	0.00	0.00
1.88	18.25	15.25	9.25	9.75	1.25	3.00	0.75	0.75	0.00	0.00	0.00	0.50	0.75	0.00	0.00	0.00	-0.138184	0.131836	0.871094	4.130000	4.900000	-3.780000	678.00	-0.32	-0.05	0.25	0.00	0.00	0.00	0.00	0.00	1.00	0.00	0.00	0.00	0.00	0.00	0.00	0.00	0.00	0.00	-0.040039	0.554688	1.375488	-40.389999	-408.029999	-18.340000	19.00	0.00	0.00
1.89	17.75	15.25	9.25	9.75	1.00	3.75	0.75	1.00	0.00	0.00	0.00	0.50	0.50	0.00	0.00	0.00	-0.137207	0.163086	0.857422	1.120000	10.640000	-3.990000	680.00	-0.31	-0.06	0.00	0.00	0.00	0.00	0.00	0.00	1.00	0.00	0.00	0.00	0.00	0.00	0.00	0.00	0.00	0.00	-0.195312	0.603516	1.250977	-28.770000	-409.920013	-14.770000	16.00	0.00	0.00
1.90	17.75	15.00	9.25	9.75	1.25	4.00	0.75	1.00	0.00	0.00	0.25	0.50	1.25	0.00	0.00	0.00	-0.143066	0.174316	0.879883	-4.690000	16.870001	-3.150000	694.00	-0.31	-0.06	0.00	0.00	0.00	0.00	0.00	0.00	1.00	0.00	0.00	0.00	0.00	0.00	0.00	0.00	0.00	0.00	-0.332031	0.579102	1.236328	-6.370000	-405.369995	-13.370000	16.00	0.00	0.00
1.91	17.75	15.00	9.25	10.00	1.25	4.50	0.75	1.50	0.00	0.25	0.25	0.50	1.50	0.00	0.00	0.00	-0.150391	0.155273	0.861328	-13.580000	24.080000	-2.660000	716.00	-0.30	-0.07	0.00	0.00	0.00	0.00	0.00	0.00	1.00	0.00	0.00	0.00	0.00	0.00	0.00	0.00	0.00	0.00	-0.406250	0.526855	1.269043	14.210000	-398.860016	-11.270000	16.00	0.00	0.00
1.92	17.25	14.50	9.00	9.75	1.50	4.75	1.00	1.75	0.00	0.50	0.75	0.75	2.00	0.25	0.00	0.00	-0.156250	0.152344	0.874023	-27.440001	30.590000	-3.500000	732.00	-0.28	-0.07	0.00	0.00	0.00	0.00	0.00	0.00	1.00	0.00	0.00	0.00	0.00	0.00	0.00	0.00	0.00	0.00	-0.501465	0.504883	1.417969	23.799999	-386.540009	-5.810000	16.00	0.00	0.00
1.93	17.00	14.25	9.00	9.75	1.75	5.25	1.00	3.00	0.00	0.75	0.75	1.25	2.75	0.50	0.00	0.00	-0.145508	0.163086	0.872070	-46.200001	35.139999	-6.020000	775.00	-0.26	-0.09	0.00	0.00	0.00	0.00	0.00	0.00	1.00	0.00	0.00	0.00	0.00	0.00	0.00	0.00	0.00	0.00	-0.549805	0.566406	1.488770	30.450001	-381.010010	-2.870000	16.00	0.00	0.00
1.94	16.25	14.00	9.00	9.75	2.00	5.75	1.00	3.75	0.00	0.75	0.75	1.50	3.50	0.50	0.00	0.00	-0.189453	0.147461	0.930176	-53.900002	33.880001	-6.930000	795.00	-0.24	-0.10	0.00	0.00	0.00	0.00	0.00	0.00	1.25	0.00	0.25	0.50	0.25	0.25	0.00	0.25	0.25	0.00	-0.601074	0.613770	1.607422	45.150002	-376.459991	1.610000	41.00	0.00	0.00
1.95	15.75	13.50	9.00	9.75	2.00	6.00	1.00	4.75	0.00	1.25	1.25	2.00	5.00	0.50	0.00	0.00	-0.165527	0.119629	0.930176	-53.200001	30.030001	-8.610000	835.00	-0.22	-0.11	1.00	0.50	1.00	0.75	0.50	0.50	1.25	0.50	0.75	0.50	0.50	0.75	0.50	0.75	0.75	0.50	-0.657715	0.628418	1.737305	64.889999	-372.890015	8.330000	132.00	0.02	-0.02
1.96	15.00	12.75	8.75	9.50	2.50	6.25	1.25	5.50	0.00	1.25	1.75	2.25	6.25	0.75	0.25	0.00	-0.193848	0.141602	1.022949	-48.790001	19.040001	-11.130000	864.00	-0.20	-0.12	1.25	0.50	0.75	0.75	0.25	0.75	1.25	0.50	1.00	0.75	0.50	0.50	0.50	0.50	0.75	0.75	-0.721680	0.585449	1.871582	84.279999	-369.529999	16.660000	135.00	0.02	-0.02
1.97	14.00	12.00	8.75	9.25	2.75	6.25	1.50	6.75	0.25	2.00	2.00	2.75	8.00	1.00	0.25	0.00	-0.187988	0.169922	0.949707	-40.950001	12.460000	-12.250000	910.00	-0.17	-0.13	1.50	0.75	1.25	1.00	0.50	0.50	1.25	0.50	0.75	0.75	0.50	0.75	1.00	0.75	0.75	0.75	-0.801270	0.516113	1.988770	101.010002	-366.100006	26.040001	156.00	-0.00	-0.03
1.98	13.00	11.00	8.50	9.00	2.75	6.50	2.25	7.50	0.75	2.50	2.75	3.75	9.25	1.75	0.50	0.25	-0.233398	0.098633	1.068848	-31.710001	13.090000	-12.390000	966.00	-0.13	-0.13	1.75	1.00	1.25	1.00	0.50	0.75	1.25	0.75	1.00	0.75	0.50	0.75	0.75	0.75	0.50	0.25	-0.876953	0.450684	2.134277	113.330002	-363.089996	35.490002	164.00	-0.03	-0.03
1.99	12.00	9.75	8.00	8.50	3.00	6.25	3.00	7.50	2.25	3.50	3.50	5.75	10.00	2.25	0.50	0.50	-0.256836	0.110840	0.975098	-17.990000	16.940001	-12.530000	1020.00	-0.09	-0.12	1.75	1.00	1.50	1.00	0.50	0.50	1.25	0.50	1.00	0.75	0.75	0.75	0.50	0.75	0.50	0.75	-0.970215	0.401855	2.275391	117.529999	-361.410004	46.970001	163.00	-0.02	-0.01
2.00	10.75	8.75	7.50	8.25	3.00	6.00	3.75	8.00	3.25	4.25	5.50	7.00	11.00	2.75	0.75	0.75	-0.256836	0.110840	0.975098	-17.990000	16.940001	-12.530000	1083.00	-0.06	-0.12	2.00	1.00	1.25	1.50	0.25	0.75	1.25	0.75	1.00	0.50	0.50	1.00	0.75	0.75	1.00	0.75	-1.077637	0.381836	2.414062	112.840004	-362.529999	63.910000	178.00	-0.02	-0.05
2.01	9.00	7.75	6.75	7.50	2.75	5.50	4.25	8.25	4.50	6.25	7.25	8.00	11.75	4.00	0.75	1.25	-0.260742	0.101074	0.990723	-7.420000	34.439999	-11.410000	1133.00	-0.02	-0.11	1.75	1.00	1.50	1.00	0.75	0.75	1.25	0.75	1.00	0.75	0.50	0.50	0.75	1.00	0.75	0.50	-1.208984	0.415527	2.516113	105.840004	-364.070007	88.059998	173.00	-0.02	-0.02
2.02	8.00	7.00	6.25	6.75	2.50	5.25	4.50	8.25	6.25	7.50	8.00	8.50	12.50	5.75	1.25	1.75	-0.227539	0.109863	0.985352	-2.310000	42.139999	-11.410000	1182.00	0.01	-0.10	1.75	0.75	1.25	1.25	0.50	0.75	1.25	0.75	1.00	0.50	0.50	0.75	1.00	1.00	0.75	0.50	-1.422852	0.362305	2.621094	104.230003	-365.959991	119.000000	170.00	-0.01	-0.04
2.03	6.50	6.00	5.50	5.50	2.25	5.00	4.75	8.25	7.00	8.25	8.75	9.25	13.25	6.75	1.75	2.75	-0.273438	0.070801	0.983887	2.030000	49.630001	-11.900000	1194.00	0.05	-0.10	1.75	1.00	1.50	1.25	0.75	1.00	1.25	0.50	1.25	0.75	0.50	0.75	1.25	1.00	0.75	0.50	-2.250977	0.023926	2.633789	108.570000	-363.649994	187.110001	186.00	-0.01	-0.03
2.04	5.50	5.25	5.00	4.75	2.00	3.25	5.00	8.25	8.25	9.00	9.75	10.00	13.75	7.75	2.00	3.00	-0.243164	0.138672	1.008789	5.250000	57.610001	-11.410000	1205.00	0.07	-0.10	0.50	0.00	0.25	0.25	0.00	0.25	1.25	0.00	0.00	0.00	0.00	0.00	0.00	0.00	0.00	0.00	-3.436035	-0.320312	2.903320	91.000000	-255.009995	226.380005	35.00	0.00	0.00
2.05	4.50	3.50	3.50	3.50	1.25	2.25	5.00	8.00	8.50	9.75	10.25	10.50	14.50	9.25	2.75	3.50	-0.251953	0.140625	1.025879	9.100000	67.059998	-14.770000	1174.00	0.11	-0.09	0.25	0.00	0.00	0.00	0.00	0.00	1.00	0.00	0.00	0.00	0.00	0.00	0.00	0.00	0.00	0.00	-3.664551	-0.937988	0.779785	26.740000	-247.729996	236.250000	19.00	0.00	0.00
2.06	3.50	3.25	2.75	2.75	1.00	1.75	5.00	7.75	9.00	10.25	11.00	11.00	14.75	10.75	3.25	4.50	-0.349121	0.057129	0.906738	10.080000	96.949997	-16.379999	1184.00	0.13	-0.09	0.00	0.00	0.25	1.25	0.50	0.75	1.25	0.75	1.00	0.50	0.50	0.75	1.25	1.00	0.75	0.50	-4.457520	-0.631348	1.871094	1.610000	-223.930008	229.529999	133.00	0.10	-0.07
2.07	2.25	2.75	2.75	1.75	0.50	2.00	4.50	7.25	9.50	11.00	11.50	11.50	14.50	12.75	4.00	5.00	-0.265137	0.152344	1.080078	12.880000	122.709999	-14.000000	1188.00	0.16	-0.09	0.75	0.00	0.25	0.00	0.00	0.00	1.00	0.00	0.00	0.00	0.00	0.00	0.00	0.00	0.00	0.00	-4.371094	-0.888184	1.447266	-18.969999	-215.529999	215.110001	28.00	0.00	0.00
2.08	2.50	3.00	1.25	2.00	0.00	1.00	4.00	6.25	10.00	11.50	12.00	11.75	14.50	14.75	5.50	5.75	-0.447754	0.158691	0.915527	23.660000	146.089996	-16.520000	1197.00	0.18	-0.08	1.25	0.25	0.25	0.25	0.00	0.00	1.00	0.00	0.00	0.00	0.00	0.00	0.00	0.00	0.00	0.00	-4.835938	-0.593262	0.835938	-68.250000	-209.789993	181.020004	39.00	0.00	0.00
2.09	1.75	2.00	1.75	2.00	0.25	0.75	3.00	5.25	10.50	11.75	12.25	12.00	14.25	16.25	6.25	6.00	-0.403320	0.212402	1.050781	42.560001	185.850006	-23.590000	1189.00	0.19	-0.07	1.00	0.50	0.00	0.00	0.00	0.00	1.00	0.75	0.00	0.00	0.00	0.00	0.00	0.00	0.50	1.00	-5.402832	-0.086426	-0.384277	-109.059998	-183.750000	127.889999	57.00	-0.02	-0.05
2.10	1.50	1.50	0.25	1.75	0.00	1.00	2.25	4.75	10.75	12.00	12.25	11.75	13.50	17.75	6.75	6.25	-0.371582	0.210449	1.263672	57.470001	237.860001	-31.780001	1157.00	0.21	-0.07	1.25	0.00	0.50	0.25	0.00	0.00	1.00	0.00	0.00	0.00	0.00	0.00	0.00	0.00	0.00	0.00	-6.462402	0.152344	-1.382324	-76.860001	-123.550003	73.919998	40.00	0.00	0.00
2.11	1.50	1.50	0.75	1.75	0.00	1.00	1.50	3.50	10.75	12.25	12.50	11.50	12.75	18.75	7.00	6.50	-0.468262	0.262695	1.141602	51.660000	282.170013	-42.279999	1139.00	0.22	-0.06	3.25	1.25	1.00	0.50	0.00	0.00	1.00	0.00	0.00	0.00	0.00	0.00	0.00	0.00	0.00	0.00	-7.212402	-0.144043	-2.057129	-7.140000	-26.950001	44.310001	84.00	-0.28	0.07
2.12	1.25	2.00	0.50	1.75	0.00	0.50	0.75	3.00	11.00	12.25	12.25	11.25	11.50	19.50	7.50	6.50	-0.542969	0.254883	1.269043	34.439999	327.880005	-53.200001	1110.00	0.23	-0.06	5.50	3.25	1.75	1.00	0.00	0.00	1.00	0.00	0.00	0.00	0.00	0.00	0.00	0.00	0.00	0.00	-7.461426	-0.592773	-2.075684	20.580000	90.930000	37.939999	145.00	-0.32	0.03
2.13	1.75	1.75	0.50	1.00	0.00	0.00	0.50	3.00	10.50	12.50	12.00	10.75	10.00	20.50	7.50	6.50	-0.552246	0.221191	1.357910	11.480000	362.809998	-61.529999	1077.00	0.23	-0.05	9.25	7.25	1.75	1.50	0.00	0.00	1.00	0.00	0.00	0.00	0.00	0.00	0.00	0.00	0.00	0.00	-1.555664	-0.928711	0.737793	32.200001	266.070007	9.380000	233.00	-0.35	0.00
2.14	1.25	1.25	0.75	0.50	0.00	0.50	0.50	1.50	10.75	12.25	11.75	10.00	8.50	20.50	7.50	6.50	-0.604004	0.126465	1.501465	-20.090000	382.410004	-67.340004	1019.00	0.25	-0.03	16.00	13.50	2.75	2.00	0.00	0.00	1.00	0.00	0.00	0.00	0.00	0.00	0.00	0.00	0.00	0.00	0.313965	-0.263184	4.648438	-12.110000	332.429993	-36.470001	391.00	-0.37	-0.00
2.15	1.25	1.25	0.25	0.00	0.00	0.25	0.50	1.75	10.25	12.00	11.25	9.25	7.25	20.50	7.50	6.25	-0.674805	0.216797	1.250977	-40.880001	413.980011	-67.830002	970.00	0.26	-0.03	22.50	18.50	4.75	3.50	0.00	0.00	1.00	0.00	0.00	0.00	0.00	0.00	0.00	0.00	0.00	0.00	0.954102	0.103027	3.365234	-26.600000	187.600006	-61.740002	557.00	-0.37	-0.01
2.16	1.75	2.50	0.00	1.25	0.75	2.50	1.00	2.75	10.75	12.00	11.25	8.75	7.00	23.75	8.25	6.50	-1.102051	0.479980	1.830566	-49.209999	486.850006	-79.519997	1100.00	0.23	-0.03	26.25	22.25	7.00	5.00	0.00	0.00	1.00	0.00	0.00	0.00	0.00	0.00	0.00	0.00	0.00	0.00	-0.988281	0.365723	1.117676	15.120000	228.970001	-77.840004	683.00	-0.37	-0.01
2.17	1.00	0.25	0.00	0.00	0.00	1.50	1.50	1.00	8.75	10.00	9.25	7.00	3.00	19.25	6.50	5.00	-1.709961	0.610840	2.407227	-44.660000	523.880005	-91.629997	810.00	0.26	0.01	29.25	24.75	8.75	7.50	0.50	0.00	1.00	0.00	0.00	0.00	0.00	0.00	0.00	0.00	0.00	0.00	-0.395020	1.219238	2.659180	37.730000	294.209991	-53.480000	799.00	-0.36	-0.01
2.18	1.50	2.25	0.75	0.50	0.50	2.00	2.25	1.25	7.00	8.75	7.75	5.00	0.50	17.25	5.50	2.75	-2.673340	1.134766	3.981934	-3.710000	554.190002	-97.860001	733.00	0.22	0.02	31.00	26.25	10.25	8.75	0.75	0.00	1.25	0.25	0.00	0.00	0.00	0.00	0.00	0.00	0.00	0.00	-0.593262	0.216797	2.698242	35.840000	200.270004	-20.650000	879.00	-0.36	-0.02
2.19	0.00	0.00	0.00	0.00	0.00	0.00	1.75	0.75	4.50	7.75	6.00	2.75	0.00	14.25	3.50	1.25	-2.434082	1.164551	3.228516	44.520000	600.109985	-104.230003	474.00	0.29	0.05	31.50	26.75	11.00	9.75	1.00	0.25	1.25	0.25	0.00	0.00	0.00	0.00	0.00	0.00	0.00	0.00	-0.495117	0.003906	1.225098	20.020000	147.279999	-19.530001	917.00	-0.36	-0.02
2.20	0.75	0.50	0.00	0.00	0.25	1.25	1.25	0.00	2.50	6.25	4.00	2.00	0.00	11.00	2.50	0.00	-1.934570	0.456543	5.169434	145.529999	612.570007	-107.239998	358.00	0.25	0.05	31.25	27.25	11.75	10.75	1.25	0.25	1.25	0.25	0.00	0.00	0.00	0.00	0.00	0.00	0.00	0.00	-0.138184	0.123047	1.411133	25.690001	146.089996	-24.710001	943.00	-0.35	-0.02
2.21	0.00	0.00	0.00	0.00	0.00	0.50	0.50	0.00	1.75	5.00	3.25	1.75	0.00	8.50	2.50	0.00	-1.860840	-0.070312	4.594727	170.869995	623.559998	-136.570007	261.00	0.29	0.05	31.75	27.25	12.25	11.50	1.25	0.50	1.25	0.50	0.00	0.00	0.00	0.25	0.25	0.00	0.00	0.00	-0.198242	0.112793	1.488281	36.820000	119.699997	-24.290001	976.00	-0.35	-0.03
2.22	0.75	0.25	0.00	0.00	0.00	0.00	0.25	0.00	0.25	3.75	2.75	1.75	1.25	6.50	1.50	0.00	-1.143066	0.550293	5.256348	142.800003	622.299988	-166.529999	202.00	0.26	-0.00	31.25	27.25	12.50	12.25	1.50	1.00	1.25	0.50	0.00	0.00	0.00	0.00	0.00	0.00	0.00	0.00	-0.458984	0.093262	3.644043	3.780000	104.160004	-26.670000	986.00	-0.35	-0.03
2.23	0.50	0.00	0.00	0.00	0.00	0.25	0.25	0.00	0.00	2.50	1.00	0.00	0.00	1.25	0.50	0.00	0.982910	1.476074	6.031738	63.209999	512.470032	-188.789993	70.00	0.20	0.04	30.50	26.75	12.50	12.50	1.50	1.25	1.25	0.75	0.00	0.00	0.00	0.25	0.25	0.00	0.00	0.00	-0.307129	0.595703	1.764160	19.320000	60.760002	-14.280000	988.00	-0.34	-0.03
2.24	1.25	1.00	0.25	0.00	0.00	0.00	0.75	0.00	0.00	2.00	0.50	0.00	0.00	0.50	0.00	0.00	2.621582	0.799316	6.588867	7.000000	262.570007	-166.669998	73.00	-0.01	0.07	30.25	26.25	12.00	12.25	1.25	1.25	1.25	0.75	0.00	0.00	0.00	0.25	0.50	0.25	0.00	0.00	-0.182129	0.232422	1.013672	7.000000	40.389999	-1.470000	973.00	-0.34	-0.03
2.25	0.00	0.00	0.00	0.00	0.00	0.50	0.50	0.00	0.00	1.50	0.50	0.25	0.00	0.00	0.00	0.00	0.650879	3.624023	4.360840	-71.260002	216.160004	-67.480003	40.00	0.00	0.00	29.00	25.75	11.75	12.50	1.25	1.75	1.25	1.00	0.00	0.00	0.00	0.50	0.50	0.00	0.00	0.00	-0.081543	0.094238	1.095703	1.190000	35.000000	0.980000	964.00	-0.34	-0.04
2.26	0.00	0.00	0.00	0.00	0.00	0.00	0.50	0.00	0.00	1.00	0.50	0.00	0.00	0.00	0.00	0.00	2.788086	1.148926	3.127441	-105.000000	-34.090000	30.030001	25.00	0.00	0.00	28.00	24.75	11.50	12.25	1.50	1.75	1.25	1.00	0.00	0.00	0.25	0.75	0.50	0.00	0.00	0.00	-0.132324	0.185059	1.041016	6.090000	24.010000	-2.590000	946.00	-0.33	-0.04
2.27	0.25	0.25	0.00	0.00	0.00	0.25	0.50	0.00	0.00	1.00	0.50	0.00	0.00	0.00	0.00	0.00	2.089355	1.149414	2.509766	-122.150002	-159.320007	91.699997	34.00	0.00	0.00	26.50	23.75	11.00	12.00	1.25	2.00	1.25	1.00	0.00	0.00	0.25	0.75	0.75	0.25	0.00	0.00	-0.117676	0.268066	0.921387	8.680000	21.210001	-3.220000	914.00	-0.33	-0.04
2.28	0.75	0.50	0.00	0.00	0.00	0.50	0.25	0.00	0.00	1.00	0.25	0.00	0.00	0.00	0.00	0.00	1.476074	0.759277	2.102051	-136.500000	-169.470001	111.720001	38.00	0.00	0.00	25.50	22.50	10.25	11.50	1.00	2.25	1.25	1.00	0.00	0.00	0.50	0.75	1.00	0.00	0.00	0.00	-0.057129	0.180176	0.884277	-1.610000	30.450001	0.350000	878.00	-0.32	-0.05
2.29	0.75	0.00	0.00	0.00	0.00	0.25	0.50	0.00	0.00	0.50	0.00	0.00	0.00	0.00	0.00	0.00	1.893066	0.571289	2.152832	-82.809998	-193.970001	102.970001	25.00	0.00	0.00	23.25	21.00	9.75	11.00	1.25	2.00	1.25	1.50	0.00	0.25	0.50	1.00	1.75	0.25	0.00	0.00	-0.061523	0.178711	0.877930	-11.480000	34.369999	-1.470000	849.00	-0.31	-0.06
2.30	0.50	0.00	0.00	0.25	0.00	0.25	0.50	0.25	0.00	0.50	0.00	0.00	0.00	0.00	0.00	0.00	1.499023	-0.295410	2.675293	-0.280000	-295.049988	41.369999	30.00	0.00	0.00	20.50	18.50	9.00	10.00	1.25	2.50	1.25	1.50	0.00	0.25	0.50	1.00	2.00	0.25	0.00	0.00	-0.076172	0.210938	0.869141	-24.219999	37.240002	-3.360000	780.00	-0.30	-0.06
2.31	0.75	0.25	0.25	0.00	0.00	0.25	0.75	0.00	0.00	0.00	0.00	0.00	0.00	0.00	0.00	0.00	1.329590	-0.167969	2.332031	-2.590000	-355.950012	11.130000	29.00	0.00	0.00	18.75	16.25	8.25	9.75	1.25	2.75	1.25	2.00	0.00	0.25	0.75	1.25	2.75	0.25	0.00	0.00	-0.117188	0.208008	0.979004	-39.130001	40.880001	-4.270000	749.00	-0.28	-0.07
2.32	0.00	0.00	0.00	0.00	0.00	0.00	0.50	0.00	0.00	0.25	0.00	0.00	0.00	0.00	0.00	0.00	0.971680	-0.061035	2.079590	-11.760000	-403.829987	-9.030000	11.00	0.00	0.00	16.50	14.25	8.25	9.25	1.25	2.75	1.25	2.25	0.00	0.50	0.75	1.25	3.50	0.50	0.00	0.00	-0.111328	0.174805	0.961914	-47.110001	41.299999	-4.760000	714.00	-0.26	-0.08
2.33	0.00	0.00	0.00	0.00	0.00	0.00	0.75	0.00	0.00	0.50	0.00	0.00	0.00	0.00	0.00	0.00	0.688965	0.048828	1.903320	-8.050000	-439.390015	-21.070000	18.00	0.00	0.00	14.50	12.50	7.25	8.75	1.25	3.00	1.25	2.75	0.00	0.75	1.00	1.50	5.00	0.25	0.00	0.00	-0.110352	0.150391	0.930176	-50.049999	40.389999	-5.950000	687.00	-0.23	-0.10
2.34	0.25	0.00	0.00	0.00	0.00	0.00	0.75	0.00	0.00	0.00	0.00	0.00	0.00	0.00	0.00	0.00	0.398926	0.095703	1.828613	4.480000	-465.500000	-26.950001	15.00	0.00	0.00	13.00	10.00	7.25	8.25	1.50	3.00	1.50	3.25	0.00	1.00	1.25	1.50	5.75	0.75	0.00	0.00	-0.123535	0.184570	1.029297	-53.270000	41.230000	-7.840000	672.00	-0.21	-0.10
2.35	1.00	0.00	0.00	0.25	0.00	0.50	0.50	0.00	0.00	0.00	0.00	0.00	0.00	0.00	0.00	0.00	0.109863	0.113770	1.804688	16.450001	-483.420013	-27.440001	28.00	0.00	0.00	11.75	8.75	7.00	7.50	1.75	3.00	1.50	4.00	0.00	1.25	1.25	2.00	6.75	0.25	0.00	0.00	-0.165527	0.153809	1.016113	-45.709999	31.710001	-7.980000	662.00	-0.19	-0.12
2.36	0.75	0.25	0.25	0.00	0.00	0.50	0.50	0.00	0.00	0.00	0.00	0.00	0.00	0.00	0.00	0.00	-0.149902	0.137207	1.771973	23.030001	-494.059998	-23.870001	28.00	0.00	0.00	10.00	7.25	6.50	7.00	1.75	3.25	1.50	5.00	0.00	1.25	1.75	2.25	8.00	0.50	0.00	0.00	-0.174316	0.164062	0.958984	-39.060001	25.620001	-9.730000	657.00	-0.15	-0.14
2.37	0.75	0.25	0.25	0.00	0.00	1.00	0.75	0.25	0.00	0.25	0.00	0.00	0.00	0.00	0.00	0.00	-0.386230	0.167969	1.724121	25.690001	-499.450012	-16.520000	45.00	0.00	0.00	8.75	6.25	6.25	6.50	1.75	2.75	1.75	5.25	0.25	1.50	2.00	2.75	9.25	1.00	0.00	0.00	-0.143066	0.154297	1.003906	-32.689999	24.360001	-10.920000	658.00	-0.12	-0.14
2.38	0.75	0.25	0.00	0.00	0.00	0.25	0.50	0.00	0.00	0.00	0.00	0.00	0.00	0.00	0.00	0.00	-0.529785	0.250977	1.827148	30.170000	-498.330017	-6.720000	22.00	0.00	0.00	7.50	5.50	5.75	5.75	1.75	2.50	2.00	5.75	0.25	2.00	2.50	3.50	10.25	1.00	0.00	0.25	-0.123047	0.156250	1.005371	-24.150000	23.940001	-13.860000	661.00	-0.09	-0.15
2.39	0.75	0.25	0.00	0.00	0.00	0.25	0.50	0.00	0.00	0.00	0.00	0.00	0.00	0.00	0.00	0.00	-0.543457	0.279785	1.960938	35.910000	-496.580017	3.220000	22.00	0.00	0.00	7.00	4.75	5.50	5.00	1.75	2.25	2.00	5.75	0.50	2.00	3.00	4.50	10.75	1.50	0.00	0.75	-0.216309	0.130371	0.984375	-16.030001	21.770000	-16.030001	666.00	-0.06	-0.16
2.40	0.50	0.25	0.00	0.00	0.00	0.75	0.75	0.00	0.00	0.00	0.00	0.00	0.00	0.00	0.00	0.00	-0.675781	0.367188	2.186523	49.630001	-499.170013	9.450000	29.00	0.00	0.00	6.00	3.50	5.00	4.00	1.50	1.75	2.25	6.25	1.00	2.75	3.75	6.50	11.50	2.00	0.75	1.50	-0.193359	0.145020	0.990723	-1.260000	24.150000	-16.730000	700.00	-0.01	-0.16
2.41	0.25	0.00	0.00	0.00	0.00	0.00	0.50	0.00	0.00	0.00	0.00	0.00	0.00	0.00	0.00	0.00	-0.847656	0.363770	2.501953	65.730003	-507.500000	14.280000	11.00	0.00	0.00	5.75	2.75	4.00	3.25	1.50	1.25	2.25	6.50	1.75	3.25	5.75	8.00	12.25	2.75	0.75	2.75	-0.181641	0.170898	0.973633	5.250000	29.400000	-18.129999	745.00	0.03	-0.16
2.42	0.00	0.00	0.00	0.00	0.00	0.00	0.50	0.00	0.00	0.00	0.00	0.00	0.00	0.00	0.00	0.00	-0.929688	0.365234	2.693359	75.459999	-514.429993	19.250000	8.00	0.00	0.00	5.00	2.25	3.25	2.50	1.25	1.00	2.00	6.75	2.25	4.00	7.75	8.75	12.75	3.50	1.25	4.00	-0.201660	0.083008	0.968750	9.170000	39.060001	-22.400000	779.00	0.07	-0.16
2.43	0.00	0.00	0.00	0.00	0.00	0.00	0.50	0.00	0.00	0.00	0.00	0.00	0.00	0.00	0.00	0.00	-1.160645	0.455078	3.009766	88.199997	-518.840027	21.629999	8.00	0.00	0.00	4.00	1.75	2.50	2.25	0.75	0.75	2.00	6.75	3.25	4.75	8.50	9.50	13.50	4.50	1.50	5.00	-0.206055	0.108887	1.007812	12.460000	51.730000	-24.920000	807.00	0.10	-0.16
2.44	0.00	0.00	0.00	0.00	0.00	0.25	0.50	0.00	0.00	0.00	0.00	0.00	0.00	0.00	0.00	0.00	-2.116211	0.526855	3.520020	147.350006	-527.729980	21.559999	11.00	0.00	0.00	3.25	1.25	2.00	1.75	0.75	0.50	1.75	6.50	4.25	6.75	9.50	10.00	13.75	5.75	2.50	6.50	-0.171387	0.097656	1.056152	8.050000	71.610001	-16.799999	859.00	0.14	-0.15
2.45	0.50	0.00	0.00	0.00	0.00	0.25	0.50	0.00	0.00	0.00	0.00	0.00	0.00	0.00	0.00	0.00	-2.116211	0.526855	3.520020	147.350006	-527.729980	21.559999	17.00	0.00	0.00	3.00	1.00	1.75	1.75	0.50	0.25	1.50	6.25	5.00	8.00	10.25	10.75	14.25	7.00	3.75	7.75	-0.245605	0.109863	1.015625	12.530000	89.949997	-13.230000	916.00	0.16	-0.14
2.46	0.25	0.50	0.00	0.00	0.00	0.25	0.50	0.00	0.00	0.00	0.00	0.00	0.00	0.00	0.00	0.00	-3.560547	0.570801	3.591797	191.100006	-510.440002	44.380001	19.00	0.00	0.00	2.75	1.00	1.25	1.75	0.25	0.00	1.25	6.00	6.00	8.75	11.00	11.25	14.50	8.50	5.00	8.50	-0.239746	0.136719	1.034180	17.500000	107.379997	-10.290000	965.00	0.18	-0.13
2.47	0.50	0.00	0.00	0.00	0.00	0.50	0.50	0.00	0.00	0.00	0.00	0.00	0.00	0.00	0.00	0.00	-4.528809	0.555176	3.354004	212.240005	-487.760010	69.370003	20.00	0.00	0.00	2.25	0.75	1.00	1.25	0.00	0.00	0.75	5.25	7.00	9.25	11.50	11.75	14.75	10.00	5.75	9.25	-0.289062	0.204590	1.020996	27.650000	129.779999	-11.060000	985.00	0.20	-0.13
2.48	0.50	0.00	0.00	0.00	0.00	0.25	0.50	0.00	0.00	0.00	0.00	0.00	0.00	0.00	0.00	0.00	-5.483398	0.404785	2.785645	234.360001	-451.779999	104.300003	17.00	0.00	0.00	1.25	0.50	0.25	0.75	0.00	0.00	0.50	4.75	7.25	10.00	12.25	12.25	14.75	11.75	6.75	9.75	-0.316895	0.118652	1.196777	43.610001	164.220001	-15.260000	1001.00	0.22	-0.12
2.49	0.50	0.50	0.00	0.00	0.00	0.50	0.50	0.00	0.00	0.00	0.00	0.00	0.00	0.00	0.00	0.00	-6.291016	-0.006348	1.996582	255.360001	-399.839996	148.750000	25.00	0.00	0.00	1.00	0.25	0.50	0.75	0.00	0.00	0.25	3.25	7.75	10.25	12.50	12.25	14.50	13.50	7.50	10.75	-0.308594	0.192871	1.146484	49.209999	204.330002	-22.120001	1011.00	0.24	-0.11
2.50	0.25	0.25	0.00	0.00	0.00	0.25	0.50	0.00	0.00	0.00	0.00	0.00	0.00	0.00	0.00	0.00	-7.038574	-0.697266	1.313477	257.179993	-330.820007	188.649994	17.00	0.00	0.00	1.00	0.25	0.25	1.00	0.00	0.00	0.00	2.75	8.00	11.00	12.75	12.25	14.00	15.25	8.00	10.75	-0.366211	0.251953	1.280762	45.290001	248.149994	-31.990000	1031.00	0.24	-0.10
2.51	0.25	0.00	0.00	0.00	0.00	0.50	0.50	0.00	0.00	0.00	0.00	0.00	0.25	0.00	0.00	0.00	-7.670898	-1.362793	0.348633	200.970001	-247.869995	198.660004	19.00	0.00	0.00	1.00	0.50	0.00	0.50	0.00	0.00	0.00	2.00	8.00	11.25	13.00	12.25	13.25	16.50	8.50	11.00	-0.375000	0.246582	1.341797	46.549999	296.519989	-42.630001	1029.00	0.25	-0.09
2.52	0.50	0.00	0.00	0.00	0.00	0.25	0.50	0.00	0.00	0.00	0.00	0.00	0.00	0.00	0.00	0.00	-7.890137	-1.448730	-0.926758	103.949997	-157.639999	176.889999	17.00	0.00	0.00	0.75	0.00	0.00	0.00	0.00	0.00	0.00	2.00	8.00	11.50	13.00	12.00	12.50	17.25	8.75	11.00	-0.507324	0.311523	1.403320	31.430000	381.149994	-65.099998	1018.00	0.27	-0.08
2.53	0.25	0.00	0.00	0.00	0.00	0.25	0.50	0.00	0.00	0.00	0.00	0.00	0.00	0.00	0.00	0.00	-8.647461	-1.030762	-0.902832	51.310001	-68.389999	133.839996	14.00	0.00	0.00	0.50	0.00	0.00	0.00	0.00	0.00	0.00	1.75	8.00	11.50	13.00	11.75	11.75	18.00	9.00	11.00	-0.470215	0.207520	1.336914	17.780001	419.019989	-76.370003	1011.00	0.27	-0.08
2.54	0.00	0.00	0.00	0.00	0.00	0.00	0.50	0.00	0.00	0.00	0.00	0.00	0.00	0.00	0.00	0.00	-8.552734	-1.020508	-1.394531	45.080002	14.280000	88.269997	8.00	0.00	0.00	0.00	0.00	0.00	0.00	0.00	0.00	0.00	1.50	7.50	11.50	12.75	11.00	11.00	18.25	9.00	10.75	-0.655273	0.316406	1.451172	10.920000	452.269989	-83.440002	976.00	0.28	-0.07
2.55	1.25	2.50	0.75	0.50	0.00	0.00	0.50	0.00	0.00	0.00	0.00	0.00	0.00	0.00	0.00	0.00	-6.982422	-1.083984	-1.034668	42.980000	106.959999	49.209999	63.00	-0.31	-0.02	0.00	0.00	0.00	0.00	0.00	0.00	0.00	1.50	7.00	11.00	12.25	10.50	10.25	18.25	8.75	10.00	-0.712402	0.400879	1.449707	9.940000	490.279999	-92.120003	937.00	0.28	-0.07
2.56	5.50	7.50	1.00	1.50	0.00	0.00	0.50	0.00	0.00	0.00	0.00	0.00	0.00	0.00	0.00	0.00	0.797852	-1.305176	5.870605	56.980000	420.070007	54.250000	176.00	-0.37	-0.04	0.00	0.25	0.00	0.00	0.00	0.00	0.25	1.25	5.50	10.00	11.25	9.50	9.25	17.25	8.25	9.00	-1.213867	0.497070	2.023926	9.240000	521.289978	-102.620003	854.00	0.28	-0.07
2.57	9.50	11.25	1.00	2.50	0.00	0.00	0.25	0.00	0.00	0.00	0.00	0.00	0.00	0.00	0.00	0.00	0.779297	-1.512207	4.210449	-104.300003	350.209991	-17.010000	267.00	-0.38	-0.04	0.00	0.00	0.00	0.00	0.00	0.00	0.25	1.25	3.50	8.75	9.75	8.50	8.50	16.00	7.25	7.50	-1.770508	0.946777	2.493164	26.670000	544.809998	-102.550003	740.00	0.28	-0.08
2.58	14.00	14.50	2.75	5.00	0.00	0.00	0.00	0.00	0.00	0.00	0.00	0.00	0.00	0.00	0.00	0.00	0.344727	-0.496582	2.070801	-112.139999	226.660004	-53.970001	398.00	-0.38	-0.04	0.00	0.00	0.00	0.00	0.00	0.00	0.50	0.75	1.25	7.00	8.25	7.25	7.25	13.00	5.75	5.00	-2.960938	-0.053711	3.517090	70.489998	566.440002	-97.019997	581.00	0.28	-0.09
2.59	16.75	16.25	5.25	7.75	0.00	0.00	0.25	0.00	0.00	0.00	0.00	0.00	0.00	0.00	0.00	0.00	-2.491699	-1.937988	3.071289	-120.540001	351.610016	-100.660004	514.00	-0.37	-0.04	0.00	0.00	0.00	0.00	0.00	0.00	0.50	0.25	1.00	5.00	6.00	5.00	5.50	9.75	3.50	2.25	-2.548340	1.103027	5.382812	100.239998	593.950012	-74.830002	406.00	0.28	-0.08
2.60	20.00	18.25	8.25	9.25	0.50	0.00	0.50	0.00	0.00	0.00	0.00	0.00	0.00	0.00	0.00	0.00	-2.506348	0.951660	4.515137	-145.110001	473.339996	-180.389999	636.00	-0.36	-0.03	0.00	0.00	0.00	0.00	0.00	0.00	0.25	0.25	0.25	3.75	4.00	4.00	3.75	7.25	1.75	0.75	-2.200684	0.094238	5.525879	157.009995	611.869995	-80.220001	274.00	0.27	-0.08
2.61	19.25	18.50	9.75	9.75	0.75	0.25	0.75	0.25	0.25	0.00	0.00	0.00	0.00	0.00	0.00	0.00	-0.751953	1.190918	1.381348	-55.720001	325.709991	-75.110001	672.00	-0.34	-0.03	0.00	0.00	0.00	0.00	0.00	0.00	0.25	0.00	0.25	2.75	2.50	3.00	2.50	5.25	0.00	0.00	-1.661133	0.364746	4.720215	175.279999	626.919983	-93.029999	175.00	0.27	-0.07
2.62	19.00	17.00	9.50	10.00	0.75	2.75	0.75	0.50	0.00	0.00	0.00	0.00	0.25	0.00	0.00	0.00	-1.346191	0.535645	2.010254	4.550000	332.640015	-23.240000	687.00	-0.33	-0.05	0.00	0.00	0.00	0.25	0.00	0.00	0.25	0.00	0.00	2.50	1.75	2.00	2.25	2.75	0.25	0.00	-0.965332	1.153809	5.947754	179.339996	612.849976	-110.599998	128.00	0.24	-0.10
2.63	20.00	17.50	10.75	10.75	1.00	5.25	0.75	2.00	0.00	0.00	0.00	0.50	1.00	0.00	0.00	0.00	-1.386719	0.028809	6.845703	-58.730000	283.220001	-10.150000	798.00	-0.31	-0.07	0.00	0.00	1.25	1.00	0.00	0.00	0.75	0.75	1.00	2.00	1.75	1.75	1.00	1.50	0.50	0.00	3.253418	-2.177246	6.657715	176.119995	273.839996	-197.399994	158.00	0.13	-0.05
2.64	19.75	18.25	10.25	11.00	1.25	5.25	0.75	2.75	0.00	0.00	0.25	1.25	2.25	0.00	0.00	0.00	-0.499023	-0.068848	2.341309	-58.099998	135.100006	-14.000000	838.00	-0.29	-0.08	1.25	0.25	0.25	0.50	0.25	0.00	0.75	0.00	0.00	0.25	0.25	0.00	0.00	0.00	0.00	0.00	0.767578	2.140625	9.562500	46.270000	188.509995	-247.309998	47.00	0.00	0.00
2.65	21.50	15.75	11.00	11.25	1.25	5.75	0.75	4.25	0.25	0.00	0.00	1.50	3.25	0.00	0.00	0.00	0.005371	0.334961	0.823730	-24.080000	58.660000	-13.090000	889.00	-0.27	-0.09	2.75	1.25	1.75	1.50	0.75	1.00	1.00	0.75	0.75	1.50	1.25	1.50	1.75	1.25	1.25	0.75	2.381348	0.965332	5.908691	-108.150002	-96.040001	-186.759995	239.00	-0.01	-0.06
2.66	16.50	17.00	12.00	12.75	2.25	8.00	1.00	7.00	1.50	0.75	1.00	1.25	4.50	1.00	0.00	0.00	-0.134766	0.466309	0.839844	-33.320000	67.059998	-7.630000	1020.00	-0.22	-0.11	2.00	1.00	2.00	1.50	0.75	0.50	1.00	0.75	1.25	1.25	1.25	1.25	1.50	1.50	1.00	1.00	1.900391	0.687988	2.723633	-179.690002	-239.399994	-125.090004	225.00	0.01	-0.04
2.67	19.00	18.25	11.75	12.50	2.25	8.75	1.00	7.50	1.00	1.25	1.50	3.50	8.00	1.75	0.75	0.75	-0.230957	0.154785	1.135742	-51.520000	74.059998	-5.110000	1155.00	-0.19	-0.12	2.50	1.25	1.75	1.25	0.50	1.00	1.00	1.00	1.25	1.00	1.25	1.50	1.50	1.25	0.75	1.00	1.589844	1.054688	1.991699	-208.180008	-245.699997	-104.930000	229.00	-0.00	-0.06
2.68	22.25	18.00	11.50	12.25	2.25	8.25	1.00	7.50	0.75	0.50	0.50	1.50	7.75	0.50	0.00	0.00	-0.190430	0.180664	1.037109	-45.500000	57.540001	-7.770000	1104.00	-0.23	-0.12	2.50	1.25	1.50	1.50	0.75	1.00	1.00	0.00	0.00	0.00	0.00	0.00	0.00	0.00	0.00	0.00	1.677246	1.492676	1.746582	-185.360001	-241.639999	-84.419998	115.00	-0.25	-0.00
2.69	17.50	15.00	10.00	10.75	1.75	7.50	1.00	7.25	0.25	0.25	1.00	2.25	7.75	0.75	0.00	0.00	-0.184570	0.290527	0.924316	-44.450001	47.599998	-7.770000	971.00	-0.21	-0.13	0.50	0.00	0.00	0.00	0.00	0.00	0.75	0.00	0.00	0.00	0.00	0.00	0.00	0.00	0.00	0.00	1.620117	1.447266	1.937500	-124.040001	-260.470001	-66.709999	18.00	0.00	0.00
2.70	16.50	13.75	9.50	10.25	1.75	7.50	1.00	7.25	0.00	0.50	1.00	2.25	8.00	0.75	0.00	0.00	-0.198242	0.174805	1.024902	-49.070000	44.520000	-6.510000	937.00	-0.20	-0.14	0.00	0.00	0.00	0.00	0.00	0.00	0.75	0.00	0.00	0.00	0.00	0.00	0.00	0.25	0.50	0.25	1.419922	1.321777	2.225586	-74.129997	-311.149994	-46.619999	22.00	0.00	0.00
2.71	16.75	14.50	10.00	10.75	2.50	8.00	1.25	8.00	1.50	1.75	1.75	3.25	9.00	2.25	0.00	0.00	-0.196777	0.133789	1.059570	-44.730000	38.709999	-7.140000	1070.00	-0.17	-0.13	1.75	0.75	1.00	1.00	0.50	0.50	1.00	0.25	0.75	0.25	0.00	0.00	0.00	0.00	0.00	0.00	1.102539	1.155273	2.209473	-56.139999	-371.140015	-18.760000	98.00	-0.15	0.04
2.72	13.75	11.75	8.50	9.25	1.75	6.75	1.00	7.25	0.00	1.00	1.25	2.50	8.00	0.75	0.00	0.00	-0.182129	0.161621	0.976074	-35.279999	34.720001	-7.140000	864.00	-0.18	-0.15	0.25	0.00	0.00	0.00	0.00	0.00	1.00	0.75	1.00	1.00	0.75	1.00	1.25	1.25	0.75	0.75	0.750977	1.085449	2.091309	-54.040001	-422.170013	9.450000	114.00	0.20	-0.05
2.73	12.25	10.50	8.00	8.75	1.75	5.50	1.00	7.00	0.00	1.25	1.50	2.50	8.25	1.00	0.00	0.00	-0.196289	0.114746	0.976562	-27.650000	33.040001	-5.250000	814.00	-0.17	-0.15	2.50	1.25	1.25	1.50	0.50	0.00	1.00	0.00	0.00	0.00	0.00	0.00	0.00	0.00	0.00	0.00	0.378418	1.061035	1.973145	-44.869999	-462.839996	31.010000	97.00	-0.26	0.03
2.74	11.25	9.75	7.75	8.50	1.50	5.75	1.00	7.00	0.00	1.25	1.50	2.75	8.50	1.00	0.00	0.00	-0.188477	0.124023	0.978027	-20.230000	32.549999	-4.830000	794.00	-0.16	-0.15	0.25	0.00	0.00	0.00	0.00	0.00	0.75	0.00	0.00	0.00	0.00	0.00	0.00	0.00	0.00	0.00	0.026855	0.956055	1.897949	-21.280001	-493.500000	41.509998	15.00	0.00	0.00
2.75	9.75	8.75	7.25	8.00	1.50	5.50	1.00	7.00	0.00	1.25	2.00	3.00	8.75	0.75	0.00	0.00	-0.164062	0.132812	0.959961	-14.630000	33.110001	-4.690000	760.00	-0.15	-0.16	0.00	0.50	1.50	1.00	0.25	0.00	1.00	0.50	1.25	1.00	0.75	0.75	1.25	1.00	0.75	0.75	-0.306152	0.746094	1.858398	9.380000	-515.900024	40.180000	144.00	0.09	-0.03
2.76	8.75	8.25	6.50	7.75	1.50	5.25	1.00	7.00	0.00	1.75	2.00	3.00	9.00	1.25	0.00	0.00	-0.170898	0.145996	0.954590	-9.380000	35.139999	-6.720000	742.00	-0.13	-0.17	0.00	0.00	0.75	1.00	0.50	0.75	1.00	0.75	1.00	0.75	0.00	0.00	0.00	0.00	0.00	0.00	-0.740723	0.447754	1.787109	55.580002	-534.450012	14.350000	88.00	-0.01	-0.00
2.77	7.50	7.00	6.00	6.50	1.50	5.00	1.00	6.75	0.00	2.00	2.25	3.00	9.00	1.25	0.00	0.00	-0.220703	0.149414	0.946289	-8.260000	36.189999	-8.470000	692.00	-0.11	-0.17	0.25	0.00	0.00	0.00	0.00	0.00	0.75	0.00	0.00	0.00	0.00	0.00	0.00	0.00	0.00	0.00	-0.915527	0.423828	1.749512	70.000000	-533.049988	-4.340000	15.00	0.00	0.00
2.78	6.75	6.00	5.50	6.00	1.25	3.50	1.00	6.50	0.75	1.75	2.25	3.75	9.25	1.25	0.25	0.25	-0.199219	0.113770	0.941895	-7.420000	36.470001	-8.610000	660.00	-0.09	-0.17	0.00	0.00	0.00	0.00	0.00	0.00	0.75	0.25	1.00	0.75	0.75	0.75	1.00	1.00	0.50	0.75	-1.081055	0.408203	1.859863	81.830002	-526.890015	-21.139999	85.00	0.23	-0.03
2.79	5.75	5.25	5.00	5.00	1.00	5.00	1.00	6.50	0.75	2.50	2.75	4.25	9.75	2.00	0.00	0.00	-0.236328	0.132324	0.954590	-5.740000	38.220001	-8.610000	665.00	-0.06	-0.17	1.75	0.75	1.50	1.25	0.50	0.75	1.00	0.75	1.00	0.75	0.50	0.75	0.75	1.00	0.75	1.00	-1.078613	0.519531	1.962402	94.849998	-518.559998	-34.860001	173.00	-0.01	-0.04
2.80	5.00	5.25	3.50	4.00	0.50	2.25	1.00	6.00	1.00	2.25	2.75	4.75	9.75	2.50	0.50	0.25	-0.228027	0.161621	0.946289	-1.680000	39.900002	-10.710000	598.00	-0.03	-0.18	2.25	1.00	1.50	1.25	0.50	1.00	1.00	0.75	1.00	0.75	0.50	0.75	1.25	1.00	1.00	0.75	-1.152832	0.568359	2.130859	106.190002	-513.869995	-42.070000	190.00	-0.02	-0.05
2.81	3.50	3.25	3.00	2.25	0.25	0.25	1.00	5.75	1.25	2.50	3.25	5.25	10.00	3.00	0.50	0.25	-0.216309	0.113281	0.927734	1.540000	43.540001	-15.890000	527.00	0.03	-0.18	2.00	0.75	1.25	1.25	0.50	0.75	1.00	0.50	1.00	0.75	0.50	0.75	0.75	0.75	0.50	0.75	-1.139160	0.699219	2.297363	115.919998	-511.910004	-40.040001	162.00	-0.03	-0.03
2.82	3.25	0.50	2.25	2.75	0.00	0.50	0.75	5.50	1.50	3.00	4.25	6.00	10.00	3.75	0.25	1.25	-0.239258	0.124512	0.929199	7.210000	50.820000	-22.190001	525.00	0.07	-0.18	1.50	0.50	1.00	1.00	0.25	0.50	1.00	0.50	0.75	0.50	0.50	0.50	0.25	0.75	0.50	0.25	-1.166992	0.826660	2.472168	131.250000	-509.110016	-29.889999	124.00	-0.02	-0.01
2.83	1.50	0.50	0.75	0.75	0.25	0.00	0.75	5.25	2.00	3.25	5.25	6.50	10.25	5.00	1.00	1.25	-0.301270	0.085449	0.934570	10.990000	60.830002	-20.440001	505.00	0.15	-0.18	0.00	0.00	0.00	0.00	0.00	0.00	0.75	0.00	0.00	0.00	0.00	0.00	0.00	0.00	0.00	0.00	-1.241211	0.864746	2.814941	163.029999	-503.649994	-16.379999	12.00	0.00	0.00
2.84	2.00	1.00	0.50	0.75	0.00	0.00	0.50	5.00	2.00	4.00	6.25	7.50	10.25	5.75	1.00	2.00	-0.281738	0.123047	0.946289	15.260000	69.230003	-16.170000	545.00	0.15	-0.17	0.00	0.00	0.00	0.00	0.00	0.00	0.75	0.00	0.00	0.00	0.00	0.00	0.00	0.00	0.00	0.00	-1.495117	0.831055	3.199707	208.740005	-499.309998	-3.570000	12.00	0.00	0.00
2.85	0.50	0.25	0.75	1.00	0.00	0.25	0.50	5.00	3.75	5.75	7.50	8.00	10.50	7.50	1.25	2.50	-0.303711	0.121582	0.931152	16.100000	77.980003	-12.250000	619.00	0.19	-0.15	0.00	0.00	0.00	0.00	0.00	0.00	0.75	0.00	0.00	0.00	0.00	0.00	0.00	0.00	0.00	0.00	-1.863770	0.773926	3.507812	251.160004	-495.320007	11.690000	12.00	0.00	0.00
2.86	0.50	0.00	0.50	0.25	0.00	0.00	0.50	4.00	4.50	7.00	8.00	8.50	10.50	8.50	2.25	3.25	-0.295410	0.097168	0.930176	18.549999	86.660004	-8.540000	646.00	0.21	-0.12	0.00	0.00	0.00	0.00	0.00	0.00	0.75	0.00	0.00	0.00	0.00	0.00	0.00	0.00	0.00	0.00	-2.271973	0.703125	3.689453	275.940002	-487.690002	32.830002	12.00	0.00	0.00
2.87	0.00	0.00	0.00	0.50	0.00	0.00	0.50	3.75	5.25	8.00	8.75	9.00	11.25	10.25	2.50	4.00	-0.319824	0.102539	0.969238	19.809999	96.459999	-4.200000	700.00	0.23	-0.12	0.00	0.00	0.00	0.00	0.00	0.00	0.75	0.00	0.00	0.00	0.00	0.00	0.00	0.00	0.00	0.00	-3.197266	0.270508	3.265625	329.350006	-457.940002	90.230003	12.00	0.00	0.00
2.88	1.50	0.75	0.50	1.25	0.00	0.50	0.25	3.00	6.50	8.75	9.50	9.50	11.75	12.00	3.75	5.25	-0.328125	0.132812	0.999023	20.650000	106.610001	-1.050000	813.00	0.21	-0.10	0.00	0.00	0.00	0.00	0.00	0.00	0.75	0.00	0.00	0.00	0.00	0.00	0.00	0.00	0.00	0.00	-4.221680	-0.305176	3.189453	365.959991	-427.630005	125.160004	12.00	0.00	0.00
2.89	0.75	1.00	0.50	0.75	0.00	0.00	0.25	2.25	7.50	9.25	10.00	10.25	12.00	14.00	5.25	6.00	-0.361328	0.146973	0.986816	21.980000	123.620003	0.420000	859.00	0.23	-0.09	0.00	0.00	0.00	0.00	0.00	0.00	0.75	0.00	0.00	0.00	0.00	0.00	0.00	0.00	0.00	0.00	-5.000488	-1.049805	2.967773	355.040009	-381.779999	161.630005	12.00	0.00	0.00
2.90	0.75	0.25	0.00	0.75	0.00	0.00	0.25	1.75	8.00	9.75	10.50	10.50	11.75	15.50	6.00	6.50	-0.397949	0.204102	1.052734	26.180000	176.119995	-4.480000	882.00	0.25	-0.08	0.00	0.00	0.00	0.00	0.00	0.00	0.75	0.00	0.00	0.00	0.00	0.00	0.00	0.00	0.00	0.00	-5.830078	-1.728027	2.109375	264.600006	-328.510010	205.729996	12.00	0.00	0.00
2.91	1.25	0.75	0.25	0.75	0.00	0.00	0.00	1.50	8.25	10.50	10.75	10.75	12.00	17.00	6.50	6.75	-0.417480	0.258301	1.161621	29.750000	214.270004	-9.940000	929.00	0.25	-0.07	0.00	0.00	0.00	0.00	0.00	0.00	0.75	0.00	0.00	0.00	0.00	0.00	0.00	0.00	0.00	0.00	-6.622559	-1.997559	0.492676	113.400002	-266.769989	235.059998	12.00	0.00	0.00
2.92	1.00	1.50	0.25	0.75	0.00	0.00	0.00	1.25	8.25	11.00	11.25	11.00	11.50	18.25	7.25	7.25	-0.423828	0.280273	1.246582	30.309999	257.529999	-19.460001	962.00	0.25	-0.07	0.00	0.00	0.00	0.00	0.00	0.00	0.75	0.00	0.00	0.00	0.00	0.00	0.00	0.00	0.00	0.00	-7.376465	-1.457520	-0.916992	-12.110000	-184.380005	216.580002	12.00	0.00	0.00
2.93	1.00	0.75	0.00	0.25	0.00	0.00	0.00	0.75	8.75	11.25	11.50	11.00	11.25	19.00	7.50	7.50	-0.503418	0.325195	1.326172	27.230000	298.619995	-31.710001	959.00	0.26	-0.06	0.00	0.00	0.00	0.00	0.00	0.00	0.75	0.00	0.00	0.00	0.00	0.00	0.00	0.00	0.00	0.00	-8.002441	-0.587402	-1.124023	-38.080002	-85.470001	158.690002	12.00	0.00	0.00
2.94	0.75	0.50	0.00	0.50	0.00	0.75	0.00	1.00	9.00	11.50	11.50	11.00	10.50	19.75	7.75	7.50	-0.536621	0.314453	1.307617	17.290001	335.369995	-45.150002	979.00	0.26	-0.05	0.00	0.00	0.00	0.00	0.00	0.00	0.75	0.00	0.00	0.00	0.00	0.00	0.00	0.00	0.00	0.00	-7.554199	-0.327148	-0.937012	1.470000	12.530000	115.360001	12.00	0.00	0.00
2.95	0.75	0.25	0.00	0.25	0.00	0.25	0.00	1.00	9.00	11.75	11.50	10.75	10.00	20.50	8.00	7.25	-0.594727	0.273438	1.232422	5.390000	377.929993	-58.799999	971.00	0.27	-0.05	1.75	0.50	1.25	0.00	0.00	0.00	0.75	0.75	1.00	0.50	0.75	1.25	0.25	0.50	0.00	0.25	-6.337402	-0.442871	-0.256836	36.540001	105.000000	105.139999	116.00	-0.00	-0.01
2.96	1.00	1.50	0.00	0.25	0.00	0.75	0.00	0.50	9.00	11.75	11.25	10.25	8.75	20.50	7.75	7.00	-0.726562	0.408203	1.337402	-3.500000	425.040009	-72.379997	959.00	0.26	-0.04	6.25	4.50	2.00	2.25	0.75	0.25	0.75	0.75	1.00	0.50	0.50	0.75	1.25	1.00	0.75	0.50	-0.857910	0.197266	3.878906	47.110001	379.329987	155.190002	271.00	-0.16	-0.04
2.97	0.75	0.00	0.00	0.00	0.00	0.00	0.00	0.75	8.50	11.50	10.75	9.50	7.75	20.25	7.50	6.75	-0.884277	0.443359	1.400391	-9.170000	473.059998	-86.730003	893.00	0.28	-0.03	14.50	12.50	2.00	2.50	0.00	0.00	0.25	0.00	0.00	0.25	0.25	0.00	0.00	0.00	0.00	0.00	-1.233398	-1.284180	2.144531	-57.260002	366.519989	109.900002	354.00	-0.37	-0.02
2.98	1.25	1.00	1.00	0.50	0.00	0.75	0.00	1.50	8.75	11.25	10.75	9.25	8.00	22.25	8.00	6.00	-1.336914	0.560547	1.955078	-17.780001	520.520020	-101.360001	968.00	0.25	-0.03	25.25	24.00	4.00	5.00	0.00	0.00	0.25	0.00	0.00	0.00	0.00	0.25	0.00	0.00	0.00	0.00	2.111816	-2.983887	2.460938	-114.660004	252.070007	64.330002	643.00	-0.38	-0.03
2.99	1.75	1.50	0.50	0.75	0.00	0.25	0.00	0.25	5.75	9.00	9.00	7.50	5.25	18.25	6.25	4.75	-1.623047	0.715820	2.394043	-18.969999	572.460022	-108.570000	750.00	0.25	-0.03	32.25	29.50	7.25	8.00	0.00	0.00	0.50	0.00	0.00	0.00	0.00	0.00	0.25	0.00	0.00	0.00	-0.312012	-3.143555	2.327637	-123.900002	274.119995	-21.139999	857.00	-0.37	-0.03
3.00	0.75	0.00	0.00	0.00	0.00	0.00	0.00	0.00	3.00	7.75	7.50	5.50	4.00	15.75	5.00	1.75	-2.820801	0.691895	4.019043	16.100000	602.979980	-102.620003	540.00	0.29	-0.02	36.00	31.25	9.75	9.50	0.50	0.00	0.75	0.00	0.00	0.00	0.00	0.00	0.00	0.00	0.00	0.00	-1.349121	1.686523	4.351074	-121.870003	434.559998	-191.380005	973.00	-0.37	-0.02
3.01	0.50	0.25	0.00	0.00	0.00	0.25	0.00	0.00	0.75	6.00	5.25	3.75	2.25	12.25	3.00	0.50	-2.817871	0.887207	4.567383	46.130001	645.470032	-86.730003	366.00	0.28	-0.02	37.50	31.50	12.25	12.25	1.00	0.50	1.00	0.00	0.00	0.00	0.00	0.00	0.25	0.00	0.00	0.00	-0.935059	1.826660	2.318359	-68.110001	329.140015	-114.660004	1075.00	-0.36	-0.02
3.02	0.50	0.25	0.25	0.00	0.00	0.50	0.00	0.00	1.00	5.00	3.75	3.00	1.00	9.00	1.50	0.00	-2.458984	0.391602	5.308594	105.419998	667.169983	-79.169998	276.00	0.26	0.00	37.25	30.75	13.75	13.50	1.25	1.50	1.00	0.25	0.00	0.00	0.00	0.25	0.25	0.00	0.00	0.00	-0.491211	1.149414	1.598145	-37.380001	310.940002	-30.240000	1120.00	-0.35	-0.03
3.03	0.50	0.50	0.00	0.00	0.00	0.00	0.00	0.00	0.75	4.00	3.00	2.00	0.50	6.00	0.75	0.00	-2.275879	0.252930	5.556641	169.750000	656.390015	-78.400002	193.00	0.25	0.01	36.25	30.50	14.75	14.75	1.50	2.75	1.00	1.00	0.00	0.00	0.00	0.75	1.00	0.00	0.00	0.00	-0.593750	-0.593750	6.506836	-151.830002	311.500000	0.210000	1176.00	-0.34	-0.04
3.04	0.50	0.00	0.00	0.00	0.00	0.00	0.00	0.00	0.00	3.00	1.75	0.25	1.50	2.00	0.00	0.00	2.630859	0.760742	3.489258	14.910000	416.989990	-104.860001	95.00	0.22	-0.04	35.25	29.75	15.25	15.50	2.00	3.75	1.00	1.50	0.00	0.00	0.50	0.75	1.00	0.00	0.00	0.00	-0.711914	-0.030273	2.207031	-128.100006	174.860001	-6.860000	1204.00	-0.33	-0.05
3.05	1.00	0.50	0.25	0.25	0.00	0.00	0.50	0.00	0.00	1.00	0.75	0.00	0.00	0.50	0.00	0.00	3.063965	0.272949	5.588867	-153.930008	274.329987	-129.919998	55.00	-0.02	0.05	34.25	29.00	15.25	16.00	2.50	4.00	1.25	1.75	0.00	0.25	0.50	1.00	1.00	0.25	0.00	0.00	-0.394043	0.300781	1.646973	-99.120003	89.389999	-14.560000	1217.00	-0.32	-0.05
3.06	0.50	0.00	0.00	0.00	0.00	0.00	0.50	0.00	0.25	1.25	0.75	0.25	0.00	0.25	0.00	0.00	-0.660645	2.766113	15.266113	-64.540001	16.170000	-150.500000	45.00	0.00	0.00	33.75	28.50	15.00	15.75	2.50	4.50	1.25	2.00	0.00	0.50	0.50	0.75	1.75	0.25	0.00	0.00	-0.121094	0.357910	1.036621	-79.730003	59.010002	-2.590000	1217.00	-0.31	-0.05
3.07	0.50	0.00	0.00	0.00	0.00	0.00	0.50	0.00	0.00	0.75	0.25	0.00	0.00	0.00	0.00	0.00	1.962402	0.232422	4.349121	-74.900002	-262.989990	-149.800003	25.00	0.00	0.00	32.75	27.75	15.00	15.50	2.50	4.50	1.25	2.25	0.00	0.50	0.75	0.75	1.50	0.50	0.00	0.00	-0.153809	0.077637	1.141113	-70.629997	50.330002	3.640000	1202.00	-0.31	-0.05
3.08	0.50	0.00	0.00	0.25	0.00	0.00	0.50	0.00	0.00	0.75	0.25	0.00	0.00	0.00	0.00	0.00	1.958008	0.624512	2.005371	-110.040001	-305.829987	-127.330002	28.00	0.00	0.00	31.50	26.75	14.50	15.00	2.50	4.00	1.25	2.00	0.00	0.50	0.75	1.00	1.50	0.50	0.00	0.00	-0.161133	0.044922	1.197266	-50.750000	37.029999	-1.190000	1159.00	-0.31	-0.05
3.09	0.75	0.00	0.00	0.50	0.00	0.00	0.50	0.00	0.00	0.50	0.00	0.00	0.00	0.00	0.00	0.00	1.426270	0.848145	1.770996	-166.039993	-282.029999	-133.839996	28.00	0.00	0.00	30.50	26.00	14.25	14.25	2.50	3.75	1.25	2.00	0.00	0.50	0.50	0.75	1.25	0.25	0.00	0.00	-0.156738	0.205566	1.037109	-24.920000	25.129999	-3.220000	1114.00	-0.31	-0.05
3.10	0.75	0.25	0.50	0.00	0.00	0.00	0.50	0.00	0.00	0.00	0.00	0.00	0.00	0.00	0.00	0.00	1.637695	1.301270	2.344727	-152.600006	-289.799988	-136.779999	25.00	0.00	0.00	29.00	24.75	13.25	13.50	2.25	3.25	1.25	1.50	0.00	0.25	0.75	1.00	1.50	0.25	0.00	0.00	-0.110840	0.192871	0.953613	-13.860000	24.570000	-0.280000	1052.00	-0.31	-0.05
3.11	0.75	0.75	0.00	0.25	0.00	0.00	0.50	0.00	0.00	0.00	0.00	0.00	0.00	0.00	0.00	0.00	1.535645	1.329102	2.659180	-106.330002	-338.660004	-128.169998	27.00	0.00	0.00	27.00	23.00	12.25	12.50	2.00	2.75	1.25	1.50	0.00	0.50	0.75	1.00	1.50	0.25	0.00	0.00	-0.060059	0.094238	0.927734	-12.460000	27.790001	1.120000	981.00	-0.31	-0.05
3.12	1.00	0.75	0.00	0.25	0.00	0.00	0.50	0.00	0.00	0.00	0.00	0.00	0.00	0.00	0.00	0.00	1.078613	1.257812	2.588867	-62.580002	-413.279999	-108.779999	30.00	0.00	0.00	24.00	20.50	11.25	11.25	2.00	2.75	1.25	1.50	0.00	0.50	0.75	1.25	0.75	0.25	0.00	0.00	-0.046875	0.132812	0.938477	-11.130000	32.759998	-0.770000	891.00	-0.30	-0.05
3.13	1.25	0.25	0.00	0.00	0.00	0.25	0.50	0.00	0.00	0.00	0.00	0.00	0.00	0.00	0.00	0.00	0.651367	1.205566	2.145996	-47.670002	-473.760010	-79.590004	28.00	0.00	0.00	22.25	19.00	10.50	10.50	1.75	2.25	1.25	1.50	0.00	0.75	0.75	1.00	1.75	0.25	0.00	0.00	-0.023438	0.141602	0.934570	-14.210000	37.310001	-1.190000	838.00	-0.29	-0.05
3.14	0.75	0.75	0.00	0.25	0.00	0.50	0.50	0.00	0.00	0.00	0.00	0.00	0.00	0.00	0.00	0.00	0.240234	1.194824	1.670898	-45.639999	-506.730011	-46.270000	33.00	0.00	0.00	19.25	16.25	9.50	9.50	1.75	2.00	1.25	1.50	0.00	0.75	1.00	1.00	1.75	0.25	0.00	0.00	-0.049316	0.100098	0.958008	-17.080000	41.860001	-3.500000	752.00	-0.28	-0.05
3.15	1.25	0.25	0.00	0.50	0.00	0.50	0.50	0.00	0.00	0.00	0.00	0.00	0.00	0.00	0.00	0.00	-0.068848	1.188477	1.306641	-34.650002	-515.830017	-15.330000	37.00	0.00	0.00	16.75	13.50	8.75	8.75	1.75	2.00	1.25	1.75	0.00	0.75	1.00	1.00	2.00	0.00	0.00	0.00	-0.087402	0.107910	0.956055	-16.450001	43.820000	-6.580000	682.00	-0.27	-0.06
3.16	1.00	0.75	0.25	0.00	0.00	0.25	0.50	0.00	0.00	0.00	0.00	0.00	0.00	0.00	0.00	0.00	-0.295898	1.055664	1.145996	-13.090000	-509.040009	9.240000	33.00	0.00	0.00	14.25	10.75	8.00	8.00	1.50	1.75	1.25	1.75	0.00	0.75	0.75	1.00	2.25	0.25	0.00	0.00	-0.123535	0.119629	0.917969	-15.470000	43.889999	-8.400000	604.00	-0.26	-0.06
3.17	1.25	0.75	0.00	0.25	0.00	0.25	0.50	0.25	0.00	0.00	0.00	0.00	0.00	0.00	0.00	0.00	-0.456055	0.840820	1.210449	11.620000	-493.220001	24.500000	40.00	0.00	0.00	11.00	8.50	7.25	7.25	1.50	1.50	1.50	2.00	0.00	1.00	1.00	1.00	3.25	0.50	0.00	0.00	-0.098633	0.129395	0.973145	-18.059999	42.420002	-10.500000	549.00	-0.22	-0.07
3.18	0.50	0.50	0.25	0.50	0.00	0.25	0.50	0.00	0.00	0.00	0.00	0.00	0.00	0.00	0.00	0.00	-0.556152	0.611816	1.501953	29.960001	-478.029999	28.559999	31.00	0.00	0.00	9.50	7.00	6.75	6.25	1.75	1.50	1.50	2.50	0.00	1.00	1.25	1.50	4.25	0.50	0.00	0.00	-0.130371	0.159668	0.956055	-18.830000	34.930000	-14.000000	528.00	-0.19	-0.09
3.19	1.25	0.75	0.25	0.00	0.00	0.75	0.50	0.00	0.00	0.00	0.00	0.00	0.00	0.00	0.00	0.00	-0.618164	0.536621	1.795410	40.670002	-471.170013	25.620001	42.00	0.00	0.00	8.50	6.25	6.00	5.75	1.50	1.25	1.50	2.50	0.00	1.25	1.50	1.50	5.50	0.75	0.00	0.00	-0.177246	0.174316	0.956543	-18.900000	31.780001	-17.850000	508.00	-0.17	-0.10
3.20	0.50	0.50	0.25	0.00	0.00	0.00	0.50	0.00	0.00	0.00	0.00	0.00	0.00	0.00	0.00	0.00	-0.798828	0.625977	2.127930	50.470001	-480.339996	22.610001	22.00	0.00	0.00	7.25	5.00	5.50	4.75	1.50	1.25	1.75	3.00	0.00	1.50	1.75	2.00	6.25	1.00	0.00	0.00	-0.154297	0.176270	0.950195	-17.500000	31.710001	-19.250000	496.00	-0.13	-0.11
3.21	1.00	0.75	0.25	0.75	0.00	0.50	0.50	0.00	0.00	0.00	0.00	0.00	0.00	0.00	0.00	0.00	-0.884766	0.724609	2.186523	56.349998	-484.540009	26.320000	45.00	0.00	0.00	6.50	4.00	5.00	4.25	1.25	0.75	1.75	3.00	0.75	1.75	2.00	2.25	7.25	1.50	0.25	0.25	-0.205078	0.120605	1.058594	-13.440001	29.049999	-18.760000	495.00	-0.08	-0.11
3.22	1.00	0.75	0.00	0.50	0.00	0.00	0.50	0.00	0.00	0.00	0.00	0.00	0.00	0.00	0.00	0.00	-0.937988	0.812988	2.264648	65.309998	-484.750000	35.420002	33.00	0.00	0.00	6.25	3.25	4.25	2.75	1.25	0.50	2.00	3.25	1.00	2.50	2.75	3.00	8.25	2.50	0.25	1.00	-0.194336	0.117188	0.961914	-8.470000	29.190001	-20.370001	515.00	-0.03	-0.11
3.23	0.75	0.50	0.00	0.00	0.00	0.50	0.50	0.00	0.00	0.00	0.00	0.00	0.00	0.00	0.00	0.00	-0.983887	0.824707	2.469727	85.190002	-481.670013	46.270000	28.00	0.00	0.00	5.50	2.00	3.50	2.50	1.00	0.25	1.75	3.50	2.00	3.00	3.50	4.25	9.25	3.50	1.00	2.00	-0.181152	0.145996	0.951660	-5.950000	32.900002	-24.570000	552.00	0.03	-0.12
3.24	1.00	0.50	0.00	0.00	0.00	0.00	0.50	0.00	0.00	0.00	0.00	0.00	0.00	0.00	0.00	0.00	-1.096680	0.787109	2.823242	115.360001	-477.330017	56.349998	25.00	0.00	0.00	5.00	1.75	3.25	2.00	0.75	0.00	1.75	3.50	3.00	3.75	4.25	5.75	10.00	4.25	1.50	3.50	-0.178223	0.188965	0.974609	1.610000	47.389999	-36.889999	606.00	0.08	-0.11
3.25	0.75	0.50	0.00	0.00	0.00	0.50	0.50	0.00	0.00	0.00	0.00	0.00	0.00	0.00	0.00	0.00	-1.413574	0.718750	3.262695	143.149994	-473.480011	65.169998	28.00	0.00	0.00	4.25	1.50	2.75	2.00	0.75	0.00	1.75	3.50	4.00	4.50	6.75	7.25	10.50	6.25	2.50	4.50	-0.222656	0.080078	0.974609	2.660000	59.360001	-36.610001	698.00	0.12	-0.11
3.26	1.00	0.50	0.00	0.25	0.00	0.00	0.50	0.00	0.00	0.00	0.00	0.00	0.00	0.00	0.00	0.00	-1.939453	0.701172	3.589355	163.029999	-472.010010	78.050003	28.00	0.00	0.00	3.75	1.25	2.25	1.50	0.50	0.00	1.25	3.50	5.75	6.25	8.00	8.00	10.75	7.50	3.75	5.50	-0.234375	0.103027	1.008301	4.970000	70.769997	-34.369999	769.00	0.15	-0.10
3.27	0.75	0.50	0.25	0.00	0.00	0.25	0.50	0.00	0.00	0.00	0.00	0.00	0.00	0.00	0.00	0.00	-2.526855	0.664551	3.588867	177.729996	-471.519989	100.029999	28.00	0.00	0.00	3.50	1.25	2.00	1.50	0.25	0.00	1.25	3.00	6.50	8.00	8.75	8.50	11.00	9.00	5.00	7.25	-0.278320	0.148926	1.031250	7.980000	83.090004	-32.410000	838.00	0.18	-0.09
3.28	0.75	0.25	0.00	0.00	0.00	0.50	0.50	0.00	0.00	0.00	0.00	0.00	0.00	0.00	0.00	0.00	-3.113281	0.446289	3.414551	199.779999	-464.029999	126.559998	25.00	0.00	0.00	3.25	1.00	1.75	1.50	0.00	0.00	0.75	2.75	7.50	8.75	9.25	9.00	11.25	11.75	6.50	8.00	-0.284180	0.151367	1.000488	17.639999	98.699997	-32.970001	898.00	0.20	-0.08
3.29	0.50	0.25	0.25	0.25	0.00	0.25	0.50	0.00	0.00	0.00	0.00	0.00	0.00	0.00	0.00	0.00	-3.977539	0.135742	3.189941	227.500000	-444.149994	150.149994	25.00	0.00	0.00	2.75	1.00	1.50	1.25	0.00	0.00	0.50	2.50	7.75	9.50	10.00	9.50	11.50	12.75	7.50	8.75	-0.299316	0.127441	1.043457	28.070000	121.660004	-30.799999	932.00	0.21	-0.08
3.30	0.50	0.00	0.00	0.50	0.00	0.25	0.50	0.00	0.00	0.00	0.00	0.00	0.00	0.00	0.00	0.00	-4.961914	-0.276367	2.760254	234.779999	-409.989990	169.960007	23.00	0.00	0.00	2.50	1.00	0.75	1.00	0.00	0.00	0.25	2.00	8.25	10.00	10.50	9.75	11.25	14.75	8.25	9.25	-0.302734	0.149414	1.184570	34.509998	155.820007	-29.049999	954.00	0.23	-0.07
3.31	0.50	0.00	0.00	0.00	0.00	0.00	0.50	0.25	0.00	0.00	0.00	0.00	0.00	0.00	0.00	0.00	-5.816895	-0.731445	2.224121	216.089996	-365.399994	188.580002	18.00	0.00	0.00	2.50	1.00	1.25	1.00	0.00	0.00	0.25	1.75	8.75	11.25	11.00	10.00	11.25	16.50	8.75	9.75	-0.350098	0.149414	1.146484	35.490002	199.710007	-30.799999	1011.00	0.23	-0.06
3.32	1.00	0.00	0.00	0.00	0.00	0.00	0.50	0.00	0.00	0.00	0.00	0.00	0.00	0.00	0.00	0.00	-6.996582	-1.300781	0.064941	87.919998	-243.740005	177.869995	20.00	0.00	0.00	1.75	0.50	0.25	1.50	0.00	0.00	0.00	1.50	9.00	11.00	11.25	10.00	10.75	17.75	9.25	10.25	-0.372070	0.212891	1.234375	35.840000	244.509995	-34.509998	1002.00	0.25	-0.06
3.33	1.00	0.00	0.00	0.00	0.00	0.00	0.50	0.00	0.00	0.00	0.00	0.00	0.00	0.00	0.00	0.00	-6.996582	-1.300781	0.064941	87.919998	-243.740005	177.869995	20.00	0.00	0.00	1.50	0.50	0.00	0.75	0.00	0.00	0.00	1.00	9.25	11.25	11.50	9.75	10.25	19.00	9.50	10.50	-0.435059	0.243164	1.304199	24.219999	287.209991	-42.209999	996.00	0.26	-0.05
3.34	0.50	0.00	0.00	0.00	0.00	0.00	0.50	0.00	0.00	0.00	0.00	0.00	0.00	0.00	0.00	0.00	-7.163574	-0.768066	-1.076172	3.850000	-156.169998	137.270004	14.00	0.00	0.00	1.00	0.00	0.00	0.25	0.00	0.00	0.00	1.00	9.25	11.75	11.50	9.50	9.50	20.00	10.00	10.50	-0.470703	0.247559	1.480469	8.470000	321.790009	-54.389999	990.00	0.28	-0.05
3.35	0.75	0.25	0.25	0.00	0.00	0.00	0.50	0.00	0.00	0.00	0.00	0.00	0.00	0.00	0.00	0.00	-7.824707	-0.016602	-0.716309	48.720001	-5.180000	76.160004	22.00	0.00	0.00	0.75	0.00	0.25	0.25	0.00	0.00	0.00	0.75	9.25	11.50	11.25	9.25	8.75	20.50	10.00	10.25	-0.441895	0.262207	1.224121	-6.020000	354.200012	-67.760002	974.00	0.28	-0.04
3.36	1.00	0.00	0.00	0.75	0.00	0.00	0.50	0.00	0.00	0.00	0.00	0.00	0.00	0.00	0.00	0.00	-6.703613	-0.396484	-0.711914	65.239998	67.129997	70.769997	29.00	0.00	0.00	0.25	0.00	0.00	0.00	0.00	0.00	0.00	0.75	9.00	11.50	11.25	8.75	8.00	20.75	10.00	10.25	-0.716309	0.148926	1.581543	-14.700000	442.330017	-98.349998	948.00	0.29	-0.04
3.37	3.00	4.00	0.75	1.00	0.00	0.00	0.50	0.00	0.00	0.00	0.00	0.00	0.00	0.00	0.00	0.00	-1.024414	-1.293945	5.071289	173.669998	378.279999	82.040001	104.00	-0.34	-0.03	0.00	0.00	0.00	0.00	0.00	0.00	0.00	0.75	8.50	11.25	10.75	8.25	7.50	20.50	10.00	9.50	-0.801758	0.472168	1.332031	-20.370001	482.440002	-109.410004	912.00	0.29	-0.03
3.38	9.25	9.50	0.50	0.75	0.00	0.00	0.25	0.00	0.00	0.00	0.00	0.00	0.00	0.00	0.00	0.00	-1.598633	-2.005371	2.976562	31.219999	375.410004	5.880000	220.00	-0.39	-0.02	0.50	0.00	0.00	0.00	0.00	0.00	0.25	0.50	7.75	10.50	10.00	7.50	6.00	19.75	9.50	8.50	-1.119141	0.657227	1.876953	-11.970000	519.609985	-119.279999	849.00	0.29	-0.02
3.39	12.75	13.25	1.50	2.75	0.00	0.00	0.25	0.00	0.00	0.00	0.00	0.00	0.00	0.00	0.00	0.00	-0.132324	-0.788574	1.601074	-17.710001	301.070007	-46.410000	333.00	-0.38	-0.03	0.00	0.00	0.00	0.00	0.00	0.00	0.50	0.25	5.75	9.25	9.25	6.00	4.25	18.00	8.50	7.25	-1.817871	0.569824	2.797852	24.990000	546.349976	-122.709999	723.00	0.30	-0.02
3.40	16.25	16.00	4.50	5.50	0.00	0.00	0.25	0.00	0.00	0.00	0.00	0.00	0.00	0.00	0.00	0.00	-1.558594	-0.655762	2.832520	15.470000	364.070007	-80.779999	470.00	-0.37	-0.03	0.00	0.00	0.00	0.00	0.00	0.00	0.75	0.00	3.50	7.75	7.75	4.25	2.75	15.50	7.00	5.00	-2.436523	0.932129	3.354492	57.680000	575.679993	-119.489998	568.00	0.30	-0.01
3.41	20.25	19.00	7.75	8.25	0.00	0.00	0.50	0.00	0.00	0.00	0.00	0.00	0.00	0.00	0.00	0.00	-2.687012	0.530273	4.653809	-25.969999	492.100006	-134.610001	622.00	-0.36	-0.03	0.00	0.00	0.00	0.00	0.00	0.00	0.50	0.00	1.75	6.00	5.25	3.25	2.00	12.25	5.50	1.75	-2.469238	0.885742	4.570801	129.639999	613.690002	-104.790001	405.00	0.31	-0.00
3.42	22.25	18.25	9.00	9.00	0.25	0.25	0.50	0.00	0.00	0.00	0.00	0.25	0.25	0.00	0.00	0.00	-0.911621	1.565430	4.113770	-9.380000	451.080017	-102.830002	673.00	-0.35	-0.03	0.00	0.00	0.00	0.00	0.00	0.00	0.50	0.00	0.75	4.25	3.25	2.25	0.75	8.75	3.00	0.00	-1.859375	0.725098	5.961426	198.380005	625.659973	-121.730003	253.00	0.31	0.02
3.43	18.50	16.50	9.25	9.50	0.50	0.25	0.50	0.25	0.00	0.00	0.00	0.25	0.50	0.00	0.00	0.00	-0.758789	0.397461	1.948730	-3.640000	361.899994	-57.889999	631.00	-0.34	-0.04	0.00	0.00	0.00	0.00	0.00	0.00	0.25	0.00	0.25	3.00	2.25	1.75	0.75	6.00	0.00	0.00	-1.319824	0.009277	4.745117	213.149994	632.099976	-149.240005	151.00	0.29	0.01
3.44	18.00	16.25	9.50	10.00	0.50	1.25	0.75	0.25	0.00	0.00	0.00	0.50	1.25	0.00	0.00	0.00	-0.526367	-0.133301	1.690430	8.050000	322.279999	-43.959999	658.00	-0.33	-0.05	0.00	0.00	0.00	0.00	0.00	1.00	0.50	0.00	0.00	2.75	2.00	1.25	0.00	1.50	0.00	1.00	-0.604004	0.699707	5.621582	202.300003	616.419983	-179.059998	109.00	0.21	-0.05
3.45	21.50	17.50	11.00	10.50	1.00	3.00	1.00	1.50	0.50	0.00	0.00	0.50	1.75	0.00	0.00	0.00	-0.559570	0.944336	3.145020	38.779999	293.160004	-55.299999	798.00	-0.31	-0.05	0.00	1.25	1.50	1.00	0.25	0.00	0.75	0.00	0.00	1.50	0.00	0.25	0.50	2.00	1.00	0.75	1.352539	0.842285	4.972168	202.789993	486.989990	-208.110001	117.00	0.06	-0.01
3.46	20.75	17.50	11.50	11.00	1.50	4.50	1.00	3.25	1.50	0.75	1.00	2.00	5.00	1.50	0.75	0.50	-0.971191	0.821777	2.873535	-33.320000	164.639999	-48.720001	962.00	-0.23	-0.08	3.00	1.25	1.75	1.25	0.75	1.00	1.00	0.75	1.25	2.00	1.25	1.25	1.00	1.75	1.50	0.75	2.997559	-1.850586	6.248047	136.430008	269.010010	-276.429993	249.00	0.01	-0.03
3.47	22.00	17.50	12.25	12.00	2.00	5.00	1.00	3.25	0.00	0.00	0.50	1.50	4.00	0.50	0.00	0.00	-0.465332	0.676758	0.700684	-43.470001	70.209999	-24.080000	938.00	-0.27	-0.08	3.00	1.50	1.50	1.50	0.75	1.00	1.00	0.75	1.50	1.75	1.00	1.25	1.25	1.75	1.00	1.00	2.859863	1.427246	4.566895	-43.119999	-120.680000	-185.710007	248.00	-0.00	-0.03
3.48	21.75	20.00	13.75	13.25	2.50	7.00	1.00	5.75	1.00	0.25	1.25	2.25	4.25	1.25	0.00	0.25	-0.149414	0.166504	1.091309	-50.540001	67.199997	-3.500000	1110.00	-0.24	-0.09	2.50	1.25	2.00	1.50	0.50	1.00	1.25	0.75	1.25	2.00	1.00	0.75	1.75	1.75	1.00	1.00	2.127930	1.628906	2.210449	-112.209999	-226.589996	-76.790001	245.00	0.01	-0.04
3.49	25.25	19.75	14.00	13.00	3.00	7.25	1.25	6.00	0.75	1.00	0.50	1.25	5.00	0.75	0.00	0.00	-0.252441	-0.060059	1.212891	-54.250000	56.139999	-5.880000	1150.00	-0.25	-0.09	2.75	1.50	1.50	1.50	0.75	1.00	1.00	0.75	1.25	1.75	1.25	1.25	1.25	1.50	1.25	0.75	1.608398	2.320312	1.723145	-130.619995	-216.089996	14.210000	243.00	0.00	-0.04
3.50	20.25	16.00	10.50	11.50	2.75	6.50	1.00	5.75	1.00	1.25	1.00	1.50	5.00	1.75	0.50	0.00	-0.185547	0.216309	0.968262	-44.730000	39.970001	-6.580000	1005.00	-0.22	-0.09	2.75	1.50	1.50	1.50	0.75	1.00	1.00	0.75	1.25	1.50	1.00	1.00	1.50	1.75	1.25	1.00	1.833496	1.786621	1.713867	-94.150002	-221.759995	87.010002	241.00	0.00	-0.04
3.51	19.50	16.00	11.25	11.00	2.00	5.50	1.00	5.00	0.00	0.75	0.75	1.50	5.00	0.75	0.00	0.00	-0.169922	0.068848	1.049316	-38.290001	39.200001	-5.670000	929.00	-0.24	-0.10	2.50	1.25	1.75	1.50	0.75	1.00	1.00	0.75	1.25	1.25	0.75	1.25	1.25	1.50	0.75	0.75	1.629883	1.194336	2.201660	-46.060001	-258.299988	120.610001	224.00	-0.02	-0.04
3.52	18.25	15.75	10.75	11.00	2.25	5.25	1.00	4.50	0.00	0.75	0.75	1.75	5.50	2.00	0.75	0.25	-0.173828	0.126465	0.998047	-27.020000	36.049999	-7.350000	927.00	-0.22	-0.10	2.50	1.00	1.75	1.75	0.50	1.00	1.00	0.75	1.25	1.50	0.75	0.75	1.50	1.25	0.75	0.75	1.289062	0.709961	2.442383	-18.620001	-319.200012	132.229996	218.00	-0.02	-0.04
3.53	21.25	16.50	12.00	11.50	2.75	5.75	1.25	5.25	1.25	2.00	1.75	2.75	6.25	2.25	0.50	0.50	-0.163574	0.153320	0.933105	-20.860001	36.119999	-6.650000	1081.00	-0.20	-0.09	2.50	1.25	1.75	1.25	0.50	1.00	1.00	0.75	1.00	1.25	0.75	0.75	0.50	0.50	0.00	0.00	1.088867	0.463867	2.320312	-16.730000	-380.450012	133.070007	179.00	-0.08	-0.02
3.54	20.00	15.50	11.25	10.50	2.75	5.75	1.25	5.25	1.00	2.25	1.75	2.50	6.25	2.25	0.75	0.50	-0.142578	0.084473	0.958008	-19.320000	38.150002	-5.040000	1035.00	-0.19	-0.09	0.25	0.00	0.00	0.00	0.00	0.00	0.75	0.00	0.00	0.00	0.00	0.00	1.25	1.00	0.50	0.00	0.788086	0.424805	2.184570	-11.270000	-431.549988	124.669998	42.00	0.00	0.00
3.55	15.75	12.00	9.25	9.25	1.75	3.75	1.00	3.75	0.00	1.25	1.25	1.75	5.00	0.75	0.25	0.00	-0.167969	0.125000	0.929199	-20.440001	39.480000	-4.690000	773.00	-0.22	-0.10	2.00	1.00	1.50	1.25	0.50	1.00	1.00	0.75	1.00	1.00	0.75	0.75	1.25	1.25	0.75	0.75	0.461426	0.261230	2.071777	14.420000	-471.309998	106.610001	192.00	-0.01	-0.05
3.56	13.50	10.75	8.75	8.75	1.75	3.50	1.00	3.75	0.00	1.00	1.50	2.00	5.50	0.75	0.25	0.00	-0.169922	0.137207	0.954590	-23.240000	42.000000	-4.060000	727.00	-0.21	-0.11	2.50	1.00	1.50	1.50	0.75	0.75	1.00	0.75	1.00	1.00	0.75	0.75	1.25	1.00	0.00	0.00	0.103516	0.004395	1.994629	54.389999	-500.290009	76.790001	185.00	-0.06	-0.03
3.57	11.75	9.50	8.25	8.50	1.50	2.75	1.25	3.25	0.25	1.75	1.50	1.25	5.50	0.75	0.00	0.00	-0.173340	0.106934	0.965820	-24.010000	42.209999	-6.160000	670.00	-0.20	-0.10	2.25	1.00	1.25	1.25	0.50	1.00	1.00	0.75	1.25	1.00	0.75	0.75	1.50	1.25	0.75	0.50	-0.232422	-0.243652	1.850586	88.550003	-516.739990	39.759998	196.00	-0.01	-0.04
3.58	10.75	8.75	7.75	7.75	1.75	2.25	1.00	3.25	0.25	2.50	1.75	1.50	5.25	1.00	0.00	0.00	-0.195312	0.097656	0.952148	-22.540001	41.299999	-8.610000	644.00	-0.18	-0.10	1.75	1.00	1.00	1.00	0.50	0.75	1.00	0.75	1.00	1.25	0.75	0.75	1.00	1.25	0.75	0.50	-0.525879	-0.430664	1.799805	108.849998	-520.380005	-0.980000	176.00	0.01	-0.04
3.59	9.25	7.75	7.25	7.00	1.50	1.50	1.25	3.00	0.75	2.75	2.00	2.00	5.75	1.00	0.00	0.00	-0.219238	0.118652	0.939941	-21.350000	40.529999	-11.130000	613.00	-0.15	-0.10	2.00	1.25	1.50	1.25	0.50	1.00	1.00	0.50	1.00	1.00	0.75	0.75	1.00	1.00	0.75	1.00	-0.736816	-0.522949	1.793945	118.230003	-513.729980	-40.670002	187.00	-0.02	-0.04
3.60	8.25	7.00	6.25	6.75	1.50	1.25	1.25	2.75	1.00	3.00	2.00	2.25	6.00	1.50	0.00	0.00	-0.222656	0.104980	0.974609	-18.270000	38.500000	-13.230000	588.00	-0.13	-0.10	2.25	1.00	1.50	1.25	0.50	0.75	1.00	0.75	1.25	1.00	0.75	1.00	1.00	1.00	0.75	0.75	-0.876953	-0.392090	2.041016	119.489998	-498.610016	-95.830002	194.00	-0.01	-0.04
3.61	6.75	5.75	6.00	5.25	1.25	1.25	1.25	2.75	1.75	3.25	2.75	2.50	6.50	2.00	0.00	0.00	-0.218750	0.107422	0.936035	-14.210000	35.840000	-14.350000	569.00	-0.09	-0.09	1.75	1.00	1.25	1.25	0.50	0.75	1.00	0.75	1.25	1.00	0.75	1.00	1.25	1.25	1.00	0.50	-0.927734	-0.240234	2.207520	122.709999	-494.480011	-105.769997	191.00	0.01	-0.04
3.62	6.25	5.25	5.50	4.50	1.25	1.00	1.25	2.75	2.25	4.25	3.25	3.50	7.50	2.50	0.25	0.00	-0.297363	0.110840	0.936523	-9.730000	35.000000	-15.540000	593.00	-0.05	-0.09	1.75	1.00	1.50	1.25	0.75	0.75	1.00	0.50	1.00	1.00	0.75	1.00	0.50	1.25	1.00	0.25	-0.857422	-0.072754	2.225586	129.500000	-489.929993	-100.239998	181.00	-0.01	-0.02
3.63	5.25	4.50	5.25	3.25	1.00	1.25	1.25	2.25	3.00	5.00	4.00	4.25	8.25	3.50	0.25	0.00	-0.295898	0.053223	0.938965	-4.060000	37.029999	-17.290001	600.00	-0.00	-0.09	2.00	1.00	1.50	1.50	0.50	1.00	1.00	0.75	1.25	1.00	0.50	1.00	1.00	1.00	0.75	0.50	-0.817871	0.037598	2.379883	139.860001	-483.839996	-82.529999	193.00	-0.02	-0.04
3.64	4.75	5.00	4.75	2.75	0.75	0.00	1.00	2.50	3.75	6.00	5.25	5.75	8.75	4.50	0.50	0.00	-0.250000	0.084961	0.969727	2.380000	46.130001	-23.799999	640.00	0.04	-0.09	1.75	1.25	1.50	1.50	0.75	0.50	1.00	0.75	1.00	1.00	0.75	1.00	1.00	1.00	1.00	0.50	-0.828613	0.102051	2.699219	161.210007	-477.119995	-59.500000	192.00	-0.01	-0.05
3.65	4.00	2.25	3.75	2.25	0.50	0.00	1.00	2.50	5.00	7.75	6.75	6.75	9.25	5.75	0.75	1.00	-0.271973	0.077637	0.947754	4.690000	50.610001	-23.940001	675.00	0.10	-0.08	2.25	1.00	1.25	1.25	0.75	0.75	1.00	0.50	1.00	1.00	0.75	1.00	0.75	1.25	0.75	0.75	-0.992676	0.023926	3.139648	194.039993	-473.970001	-37.450001	186.00	-0.01	-0.03
3.66	3.00	2.50	3.50	1.75	0.50	0.25	0.75	2.25	5.75	8.25	7.50	7.75	9.75	7.50	1.50	1.25	-0.323242	0.056152	0.957031	8.540000	54.529999	-22.820000	719.00	0.13	-0.08	1.25	0.50	1.00	0.75	0.50	0.75	1.00	0.75	1.00	0.75	0.50	0.50	0.75	1.00	0.75	0.75	-1.390625	-0.046387	3.389160	222.250000	-474.179993	-17.219999	148.00	0.03	-0.03
3.67	3.75	2.25	2.75	2.00	0.25	0.00	0.75	2.25	7.00	9.00	8.00	8.00	10.00	8.75	1.75	2.50	-0.308594	0.020020	0.943848	11.620000	62.580002	-17.990000	772.00	0.14	-0.07	1.00	0.50	0.50	0.50	0.25	0.25	1.00	0.25	0.50	0.50	0.25	0.50	0.25	0.50	0.50	0.25	-1.881836	-0.080566	3.619141	227.500000	-472.570007	7.910000	91.00	0.01	0.00
3.68	2.00	1.25	1.75	0.50	0.00	0.00	0.50	2.00	7.75	9.75	8.75	8.75	10.50	10.00	2.50	3.25	-0.302246	0.112305	1.014648	17.710001	75.459999	-12.880000	767.00	0.20	-0.07	0.00	0.00	0.00	0.00	0.00	0.00	0.75	0.00	0.00	0.00	0.00	0.00	0.00	0.00	0.00	0.00	-2.290527	-0.029297	3.628418	211.680008	-464.730011	40.670002	12.00	0.00	0.00
