# time	left pressure 1[N/cm²]	left pressure 2[N/cm²]	left pressure 3[N/cm²]	left pressure 4[N/cm²]	left pressure 5[N/cm²]	left pressure 6[N/cm²]	left pressure 7[N/cm²]	left pressure 8[N/cm²]	left pressure 9[N/cm²]	left pressure 10[N/cm²]	left pressure 11[N/cm²]	left pressure 12[N/cm²]	left pressure 13[N/cm²]	left pressure 14[N/cm²]	left pressure 15[N/cm²]	left pressure 16[N/cm²]	left acceleration X[g]	left acceleration Y[g]	left acceleration Z[g]	left angular X[dps]	left angular Y[dps]	left angular Z[dps]	left total force[N]	left center of pressure X[%]	left center of pressure Y[%]	right pressure 1[N/cm²]	right pressure 2[N/cm²]	right pressure 3[N/cm²]	right pressure 4[N/cm²]	right pressure 5[N/cm²]	right pressure 6[N/cm²]	right pressure 7[N/cm²]	right pressure 8[N/cm²]	right pressure 9[N/cm²]	right pressure 10[N/cm²]	right pressure 11[N/cm²]	right pressure 12[N/cm²]	right pressure 13[N/cm²]	right pressure 14[N/cm²]	right pressure 15[N/cm²]	right pressure 16[N/cm²]	right acceleration X[g]	right acceleration Y[g]	right acceleration Z[g]	right angular X[dps]	right angular Y[dps]	right angular Z[dps]	right total force[N]	right center of pressure X[%]	right center of pressure Y[%]
0.00																										4.25	5.00	4.25	6.50	2.50	3.00	1.00	1.50	0.00	0.50	0.00	0.00	1.50	0.50	0.00	0.25	-0.229492	0.095703	0.962891	-2.380000	-3.220000	1.960000	331.00	-0.22	-0.10
0.01																										3.75	5.25	4.25	6.50	2.50	3.25	0.75	1.50	0.50	0.50	0.00	0.00	1.50	0.25	0.00	0.25	-0.226562	0.099121	0.961426	-2.310000	-3.080000	1.890000	331.00	-0.21	-0.10
0.02																										4.25	5.25	4.25	6.50	2.50	3.50	1.00	1.75	0.75	0.50	0.00	0.00	1.50	0.50	0.00	0.50	-0.224121	0.090820	0.958496	-2.310000	-3.150000	1.890000	353.00	-0.20	-0.10
0.03																										4.25	5.25	4.25	6.50	2.50	3.25	1.00	1.75	0.50	0.50	0.00	0.00	1.50	0.25	0.00	0.50	-0.225586	0.098145	0.965820	-2.380000	-3.220000	1.960000	345.00	-0.21	-0.10
0.04																										4.00	5.25	4.50	6.50	2.25	3.00	1.00	1.50	0.50	0.25	0.00	0.00	1.50	0.50	0.00	0.25	-0.228027	0.092773	0.959961	-2.310000	-3.150000	2.030000	334.00	-0.21	-0.09
0.05																										4.25	5.25	4.25	6.75	2.50	3.25	1.00	1.50	0.50	0.50	0.00	0.00	1.50	0.25	0.00	0.25	-0.222168	0.101074	0.961914	-2.380000	-3.150000	1.890000	343.00	-0.21	-0.10
0.06																										4.25	5.25	4.50	6.50	2.25	3.25	0.75	1.50	0.50	0.50	0.00	0.00	1.25	0.25	0.25	0.25	-0.226074	0.096191	0.964355	-2.170000	-3.080000	1.890000	337.00	-0.21	-0.10
0.07																										4.50	5.25	4.25	6.50	2.50	3.00	1.00	1.75	0.75	0.75	0.25	0.00	1.50	0.25	0.00	0.50	-0.226074	0.100586	0.958008	-2.240000	-3.150000	1.960000	354.00	-0.20	-0.09
0.08																										4.50	5.25	4.25	6.50	2.50	3.00	0.75	1.50	0.25	0.50	0.00	0.00	1.25	0.50	0.00	0.25	-0.229004	0.094238	0.958984	-2.310000	-3.150000	1.890000	333.00	-0.22	-0.09
0.09	4.75	5.25	6.00	5.75	2.75	1.75	0.75	1.00	1.00	0.50	0.25	0.25	1.25	2.00	0.00	0.25	-0.300781	0.077148	0.926270	-1.540000	6.510000	-1.190000	356.00	-0.19	-0.05	4.25	5.25	4.25	7.00	2.25	3.25	1.00	1.50	0.75	0.50	0.00	0.00	1.25	0.00	0.00	0.50	-0.227539	0.098145	0.959961	-2.310000	-3.080000	1.890000	343.00	-0.21	-0.09
0.10	5.00	5.25	6.00	5.75	2.50	2.00	0.75	1.00	1.25	0.75	0.25	0.50	1.00	2.00	0.00	0.25	-0.295898	0.079590	0.934082	-1.540000	6.440000	-1.330000	365.00	-0.18	-0.04	4.25	5.25	4.25	6.75	2.25	3.25	1.00	1.50	0.50	0.50	0.00	0.00	1.50	0.25	0.00	0.50	-0.224609	0.098145	0.957520	-2.310000	-3.150000	1.890000	341.00	-0.21	-0.10
0.11	4.75	5.25	6.25	5.75	2.50	2.00	0.50	1.00	1.25	0.50	0.25	0.25	1.25	1.75	0.00	0.25	-0.297363	0.083984	0.931641	-1.470000	6.160000	-1.260000	356.00	-0.19	-0.05	4.25	5.25	4.25	6.75	2.50	3.00	1.00	1.75	0.50	0.75	0.00	0.00	1.25	0.50	0.00	0.25	-0.227051	0.094727	0.955078	-2.310000	-3.150000	1.960000	346.00	-0.21	-0.09
0.12	5.25	5.50	6.00	5.75	2.50	2.00	0.75	0.75	1.00	0.25	0.25	0.50	1.00	1.75	0.00	0.25	-0.299805	0.077637	0.926270	-1.540000	6.440000	-1.330000	355.00	-0.20	-0.05	4.25	5.25	4.50	6.75	2.50	3.25	1.00	1.75	0.75	0.75	0.00	0.00	1.25	0.25	0.00	0.25	-0.231445	0.102539	0.955566	-2.240000	-3.150000	1.960000	353.00	-0.21	-0.09
0.13																										4.00	5.25	4.50	7.00	2.50	3.50	0.75	1.75	0.50	0.75	0.00	0.00	1.25	0.50	0.00	0.25	-0.226562	0.099609	0.966309	-2.240000	-3.220000	1.960000	351.00	-0.21	-0.10
0.14	5.00	5.25	6.00	6.00	2.50	2.00	0.75	0.75	1.00	0.25	0.25	0.25	1.25	1.75	0.00	0.25	-0.298828	0.076172	0.929688	-1.470000	6.370000	-1.260000	353.00	-0.20	-0.05	4.25	5.25	4.50	6.75	2.25	3.00	1.00	1.50	0.50	0.75	0.00	0.00	1.25	0.50	0.00	0.25	-0.223633	0.096680	0.965332	-2.310000	-3.150000	1.960000	343.00	-0.21	-0.09
0.15	5.25	5.50	6.25	5.75	2.50	1.75	0.75	1.00	1.25	0.50	0.25	0.25	1.00	2.00	0.00	0.50	-0.301758	0.078613	0.928711	-1.610000	6.370000	-1.190000	366.00	-0.19	-0.04	4.25	5.25	4.50	6.75	2.25	3.50	1.00	1.75	0.50	0.50	0.00	0.00	1.25	0.25	0.00	0.50	-0.228516	0.092285	0.958496	-2.310000	-3.150000	1.890000	349.00	-0.21	-0.10
0.16	5.50	5.50	6.25	6.00	2.50	1.75	0.50	0.75	0.75	0.75	0.25	0.50	1.00	2.00	0.00	0.50	-0.298340	0.080078	0.927246	-1.470000	6.090000	-1.190000	363.00	-0.20	-0.05	4.25	5.25	4.25	6.75	2.25	3.00	1.00	1.50	0.75	0.50	0.00	0.00	1.25	0.25	0.00	0.25	-0.224609	0.095703	0.953125	-2.310000	-3.080000	1.890000	338.00	-0.21	-0.09
0.17	5.75	5.25	6.25	5.75	2.50	1.75	0.75	1.00	1.25	0.50	0.25	0.25	1.25	1.75	0.00	0.25	-0.301758	0.076172	0.930176	-1.680000	6.440000	-1.330000	368.00	-0.19	-0.04	4.25	5.25	4.50	7.00	2.25	3.25	1.00	1.50	0.75	0.50	0.00	0.00	1.25	0.25	0.25	0.25	-0.229004	0.099609	0.956543	-2.310000	-3.080000	1.890000	349.00	-0.21	-0.09
0.18	5.50	5.25	6.25	5.75	2.50	1.75	0.75	1.00	1.50	0.50	0.50	0.25	1.00	2.00	0.00	0.25	-0.300781	0.077637	0.935547	-1.610000	6.440000	-1.400000	371.00	-0.18	-0.04	4.25	5.25	4.25	7.00	2.50	3.00	1.00	1.75	0.25	0.75	0.00	0.00	1.00	0.25	0.00	0.25	-0.228516	0.095703	0.957520	-2.310000	-3.150000	1.960000	342.00	-0.22	-0.10
0.19	5.75	5.25	6.50	6.00	2.50	1.75	0.75	0.75	1.00	0.50	0.25	0.25	1.00	1.50	0.00	0.25	-0.298828	0.085449	0.927734	-1.470000	6.300000	-1.330000	362.00	-0.21	-0.04	4.00	5.25	4.50	7.00	2.50	3.25	1.00	1.50	0.50	0.25	0.00	0.00	1.00	0.25	0.00	0.25	-0.224121	0.097168	0.963379	-2.380000	-3.080000	1.960000	339.00	-0.22	-0.09
0.20	5.50	5.50	6.25	6.00	2.50	1.75	0.75	0.75	1.25	0.75	0.50	0.25	1.00	1.75	0.00	0.25	-0.300293	0.078613	0.930176	-1.400000	6.300000	-1.260000	369.00	-0.19	-0.04	4.50	5.25	4.25	7.00	2.50	3.00	1.00	1.50	0.50	0.50	0.00	0.00	1.25	0.25	0.00	0.50	-0.222656	0.095215	0.962891	-2.450000	-3.290000	1.960000	345.00	-0.22	-0.09
0.21	5.50	5.25	6.25	6.25	2.50	2.00	0.75	0.75	1.00	0.50	0.50	0.50	1.00	1.75	0.00	0.25	-0.298340	0.079590	0.935059	-1.470000	6.300000	-1.330000	369.00	-0.20	-0.05	4.25	5.25	4.25	7.25	2.50	3.50	0.75	1.50	0.25	0.50	0.00	0.00	1.00	0.50	0.00	0.25	-0.227051	0.095703	0.966309	-2.380000	-3.010000	1.890000	342.00	-0.22	-0.10
0.22	5.75	5.25	6.25	6.00	2.50	2.00	0.75	1.00	1.00	0.50	0.50	0.25	1.00	1.75	0.00	0.50	-0.303711	0.083008	0.931641	-1.540000	6.230000	-1.330000	372.00	-0.20	-0.05	4.00	5.25	4.50	7.00	2.50	3.25	0.75	1.50	0.50	0.50	0.00	0.00	1.25	0.25	0.00	0.25	-0.228027	0.094238	0.958008	-2.380000	-2.940000	1.890000	340.00	-0.22	-0.10
0.23	5.75	5.25	6.25	5.75	2.75	1.75	0.75	1.00	0.75	0.50	0.50	0.25	1.25	1.50	0.00	0.25	-0.299316	0.080078	0.931641	-1.470000	6.090000	-1.260000	364.00	-0.20	-0.05	4.25	5.25	4.25	7.00	2.25	3.00	1.00	1.50	0.50	0.50	0.00	0.00	1.25	0.50	0.00	0.50	-0.228027	0.090332	0.958496	-2.380000	-3.010000	1.820000	341.00	-0.21	-0.09
0.24	5.50	5.25	6.25	6.00	2.50	1.75	0.50	1.00	1.00	0.50	0.25	0.25	1.00	2.00	0.00	0.25	-0.296387	0.079590	0.933105	-1.470000	6.300000	-1.260000	361.00	-0.20	-0.05	4.25	5.00	4.50	7.00	2.50	3.50	0.75	1.50	0.00	0.50	0.00	0.00	1.50	0.25	0.00	0.25	-0.225586	0.100586	0.961914	-2.380000	-3.010000	1.750000	338.00	-0.22	-0.11
0.25	5.75	5.25	6.25	6.00	2.50	2.00	0.50	0.75	1.00	0.75	0.50	0.50	1.00	1.75	0.00	0.25	-0.301758	0.083496	0.926758	-1.540000	6.230000	-1.400000	368.00	-0.20	-0.05	4.50	5.25	4.25	7.00	2.50	3.25	1.00	1.50	0.75	0.50	0.00	0.00	1.25	0.25	0.25	0.25	-0.224609	0.092773	0.952637	-2.450000	-3.080000	1.960000	352.00	-0.21	-0.09
0.26	6.00	5.50	6.25	6.00	2.50	2.00	0.75	1.00	1.25	0.50	0.25	0.25	1.00	1.50	0.00	0.25	-0.297363	0.080566	0.929688	-1.540000	6.230000	-1.330000	374.00	-0.20	-0.04	4.25	5.25	4.50	7.00	2.50	3.00	1.00	1.50	0.50	0.50	0.00	0.00	1.00	0.50	0.00	0.25	-0.227051	0.094238	0.958984	-2.380000	-2.940000	1.820000	343.00	-0.22	-0.09
0.27	6.00	5.25	6.50	6.25	2.50	1.75	0.75	1.00	1.00	0.50	0.25	0.25	1.00	1.75	0.00	0.25	-0.300781	0.075684	0.929688	-1.540000	6.300000	-1.470000	373.00	-0.20	-0.04	4.50	5.25	4.25	7.00	2.25	3.25	1.00	1.50	0.75	0.50	0.00	0.00	1.50	0.00	0.00	0.25	-0.225586	0.098145	0.954590	-2.380000	-3.150000	1.890000	347.00	-0.22	-0.09
0.28	5.75	5.50	6.50	6.25	2.50	1.75	0.75	0.75	1.00	0.75	0.25	0.50	1.00	1.75	0.00	0.25	-0.302734	0.081543	0.934570	-1.540000	6.230000	-1.330000	374.00	-0.20	-0.04	4.00	5.25	4.50	7.00	2.25	3.50	0.75	1.50	0.75	0.50	0.00	0.00	1.50	0.25	0.00	0.25	-0.226074	0.092285	0.958984	-2.310000	-3.080000	1.960000	345.00	-0.21	-0.10
0.29	5.75	5.50	6.75	6.25	2.50	1.75	0.50	0.75	0.75	0.50	0.25	0.25	1.00	2.00	0.00	0.25	-0.294434	0.076172	0.928711	-1.540000	6.300000	-1.400000	367.00	-0.21	-0.04	4.25	5.25	4.50	7.00	2.50	3.25	1.00	1.50	0.25	0.50	0.00	0.00	1.25	0.25	0.25	0.50	-0.226074	0.095215	0.958496	-2.310000	-3.080000	1.820000	347.00	-0.21	-0.10
0.30	5.75	5.50	6.50	6.50	2.50	1.75	0.75	0.75	1.00	0.50	0.25	0.50	1.00	1.50	0.00	0.25	-0.298828	0.078613	0.929688	-1.540000	6.300000	-1.400000	372.00	-0.21	-0.05	4.25	5.50	4.25	7.00	2.25	3.25	1.00	1.50	0.50	0.50	0.00	0.00	1.25	0.50	0.00	0.25	-0.225586	0.097168	0.962402	-2.310000	-3.150000	1.820000	345.00	-0.21	-0.09
0.31	5.75	5.50	6.75	6.25	2.50	1.75	0.75	0.75	1.25	0.75	0.50	0.25	1.00	1.75	0.00	0.50	-0.300293	0.081055	0.934082	-1.540000	6.160000	-1.330000	382.00	-0.19	-0.04	4.25	5.25	4.50	7.00	2.50	3.00	0.75	1.50	0.50	0.50	0.00	0.00	1.25	0.50	0.00	0.25	-0.229980	0.097168	0.960449	-2.450000	-3.290000	1.890000	342.00	-0.22	-0.09
0.32	6.00	5.75	6.75	6.50	2.50	2.00	0.75	0.75	1.00	0.50	0.25	0.50	1.00	2.00	0.00	0.25	-0.295898	0.084473	0.930176	-1.400000	5.880000	-1.190000	387.00	-0.20	-0.04	4.50	5.50	4.50	7.00	2.25	3.25	0.75	1.50	0.50	0.50	0.00	0.00	1.25	0.50	0.00	0.25	-0.230957	0.097168	0.955566	-2.380000	-3.010000	1.960000	347.00	-0.22	-0.10
0.33	5.75	5.50	6.50	6.50	2.50	1.75	0.50	1.00	1.00	0.50	0.25	0.25	0.75	1.75	0.00	0.25	-0.295898	0.075684	0.929688	-1.610000	6.440000	-1.400000	370.00	-0.21	-0.05	4.25	5.25	4.50	7.00	2.25	3.25	1.00	1.50	0.75	0.75	0.00	0.00	1.25	0.25	0.00	0.00	-0.233398	0.098633	0.963379	-2.240000	-3.080000	1.960000	348.00	-0.21	-0.09
0.34	6.00	5.50	6.75	6.50	2.50	1.75	0.75	1.00	0.75	0.50	0.25	0.00	1.00	1.50	0.00	0.25	-0.304199	0.075684	0.930664	-1.610000	6.510000	-1.470000	373.00	-0.22	-0.05	4.25	5.25	4.50	7.00	2.50	3.00	1.00	1.50	0.50	0.50	0.00	0.00	1.00	0.25	0.00	0.00	-0.227051	0.097168	0.961914	-2.380000	-3.220000	1.890000	340.00	-0.22	-0.09
0.35	6.00	5.25	6.75	6.25	2.50	1.75	0.75	0.75	1.25	0.50	0.25	0.25	1.00	1.75	0.00	0.25	-0.297852	0.075195	0.928223	-1.540000	6.370000	-1.400000	375.00	-0.20	-0.04	4.50	5.25	4.50	7.00	2.25	3.25	1.00	1.50	0.25	0.50	0.00	0.00	1.25	0.50	0.00	0.25	-0.231934	0.099121	0.960449	-2.310000	-3.150000	1.960000	345.00	-0.22	-0.09
0.36	6.00	5.50	6.75	6.50	2.50	1.75	0.75	1.00	1.00	0.50	0.25	0.25	1.25	1.50	0.00	0.25	-0.293457	0.082520	0.931641	-1.330000	5.950000	-1.190000	381.00	-0.21	-0.05	4.50	5.25	4.50	7.00	2.25	3.00	0.75	1.50	0.00	0.50	0.00	0.00	1.25	0.50	0.00	0.25	-0.217773	0.099121	0.960449	-2.380000	-3.150000	1.890000	335.00	-0.23	-0.10
0.37	5.75	5.25	6.75	6.50	2.50	1.75	0.75	0.75	1.50	0.50	0.25	0.25	1.00	2.00	0.00	0.25	-0.296387	0.082031	0.933594	-1.610000	6.440000	-1.400000	381.00	-0.19	-0.03	4.25	5.50	4.50	7.50	2.50	3.25	1.00	1.50	0.50	0.50	0.00	0.00	1.50	0.25	0.00	0.25	-0.226562	0.098633	0.961914	-2.450000	-3.220000	1.890000	356.00	-0.22	-0.10
0.38	6.25	5.50	6.75	6.50	2.75	1.75	0.75	1.00	1.25	0.50	0.50	0.50	1.00	2.00	0.00	0.25	-0.298340	0.081543	0.925293	-1.750000	6.650000	-1.470000	397.00	-0.19	-0.04	4.50	5.25	4.50	7.25	2.50	3.25	1.00	1.50	0.25	0.50	0.00	0.00	1.25	0.50	0.00	0.25	-0.228027	0.095215	0.964844	-2.240000	-3.010000	1.890000	350.00	-0.22	-0.09
0.39	6.00	5.50	6.50	6.50	2.50	2.00	0.75	0.75	1.00	0.50	0.25	0.25	1.00	1.50	0.00	0.25	-0.293457	0.079102	0.927246	-1.610000	6.510000	-1.470000	375.00	-0.21	-0.04	4.50	5.50	4.50	7.25	2.25	3.25	1.00	1.50	0.50	0.25	0.00	0.00	1.25	0.25	0.00	0.25	-0.228027	0.095215	0.964844	-2.240000	-3.010000	1.890000	348.00	-0.22	-0.10
0.40	6.00	5.50	6.75	6.50	2.75	1.75	0.75	1.00	1.00	0.50	0.25	0.25	0.75	1.50	0.00	0.25	-0.299805	0.079590	0.927246	-1.330000	6.300000	-1.330000	379.00	-0.21	-0.04	4.25	5.25	4.25	7.25	2.25	3.25	0.75	1.50	0.50	0.50	0.00	0.00	0.75	0.50	0.00	0.25	-0.227051	0.096191	0.961426	-2.380000	-3.010000	1.750000	337.00	-0.22	-0.09
0.41	6.00	5.50	6.75	6.50	2.50	1.75	0.50	1.00	1.25	0.50	0.25	0.25	1.00	1.50	0.00	0.25	-0.295410	0.077148	0.933594	-1.470000	6.300000	-1.330000	378.00	-0.21	-0.04	4.25	5.25	4.50	7.25	2.50	3.00	0.75	1.50	0.25	0.50	0.00	0.00	1.00	0.50	0.00	0.25	-0.229004	0.094238	0.958008	-2.380000	-3.150000	1.890000	339.00	-0.22	-0.10
0.42	6.00	5.25	6.75	6.75	2.50	1.75	0.50	1.00	0.75	0.50	0.25	0.25	1.00	1.50	0.00	0.25	-0.296387	0.079590	0.931152	-1.540000	6.230000	-1.400000	372.00	-0.22	-0.05	4.25	5.25	4.75	7.25	2.25	3.25	0.75	1.50	0.75	0.50	0.00	0.00	1.00	0.50	0.00	0.25	-0.225098	0.099121	0.959961	-2.450000	-3.150000	2.030000	348.00	-0.22	-0.09
0.43	6.00	5.50	6.50	6.50	2.50	2.00	0.50	0.75	1.00	0.50	0.25	0.25	1.00	1.75	0.00	0.25	-0.295410	0.077637	0.927734	-1.610000	6.440000	-1.470000	373.00	-0.21	-0.05	4.25	5.25	4.50	7.25	2.50	3.25	1.00	1.50	0.25	0.50	0.00	0.00	1.25	0.25	0.00	0.25	-0.227051	0.103027	0.962402	-2.520000	-3.150000	1.890000	346.00	-0.22	-0.10
0.44	6.25	5.25	6.75	6.50	2.50	1.75	0.50	0.75	0.75	0.50	0.25	0.25	1.00	1.75	0.00	0.25	-0.301758	0.079590	0.929688	-1.680000	6.160000	-1.330000	370.00	-0.21	-0.04	4.25	5.25	4.50	7.25	2.25	3.25	1.00	1.50	0.75	0.75	0.00	0.00	1.00	0.25	0.00	0.25	-0.222656	0.091797	0.961426	-2.450000	-3.010000	1.890000	350.00	-0.21	-0.09
0.45	6.00	5.25	6.75	6.50	2.50	1.75	0.50	0.75	1.00	0.50	0.25	0.25	1.00	2.00	0.00	0.25	-0.300781	0.080078	0.931641	-1.470000	6.090000	-1.330000	373.00	-0.21	-0.04	4.50	5.25	4.50	7.50	2.25	3.50	1.00	1.75	0.25	0.75	0.00	0.00	1.25	0.50	0.00	0.25	-0.221680	0.095215	0.952148	-2.380000	-3.150000	2.030000	359.00	-0.21	-0.10
0.46	6.00	5.50	6.75	6.25	2.75	1.75	0.50	1.00	1.00	0.50	0.25	0.50	1.00	1.75	0.00	0.25	-0.300781	0.080078	0.931641	-1.470000	6.090000	-1.330000	380.00	-0.20	-0.05	4.50	5.25	4.50	7.25	2.25	3.00	1.00	1.50	0.25	0.50	0.00	0.00	1.00	0.00	0.00	0.25	-0.228516	0.095703	0.954590	-2.520000	-3.220000	1.960000	338.00	-0.23	-0.10
0.47	6.00	5.25	6.75	6.50	2.50	1.75	0.75	0.75	1.25	0.50	0.25	0.50	0.75	2.00	0.00	0.25	-0.294922	0.077637	0.933105	-1.610000	6.300000	-1.330000	381.00	-0.20	-0.03	4.50	5.25	4.50	7.25	2.50	3.00	1.00	1.50	0.50	0.50	0.00	0.00	1.25	0.25	0.00	0.25	-0.228027	0.099609	0.958496	-2.450000	-3.220000	1.960000	349.00	-0.22	-0.09
0.48	6.00	5.50	6.75	6.50	2.50	1.75	0.75	1.00	1.00	0.25	0.25	0.50	0.75	2.00	0.00	0.25	-0.298340	0.082520	0.934082	-1.540000	6.090000	-1.260000	381.00	-0.20	-0.04	4.50	5.50	4.50	7.00	2.50	3.00	1.00	1.50	0.25	0.50	0.00	0.00	1.00	0.25	0.00	0.25	-0.227539	0.096680	0.961914	-2.380000	-3.220000	2.030000	343.00	-0.23	-0.09
0.49	6.00	5.50	6.75	6.50	2.50	2.00	0.75	1.00	1.00	0.50	0.25	0.25	0.75	1.50	0.00	0.25	-0.300781	0.078125	0.926270	-1.470000	6.160000	-1.330000	379.00	-0.21	-0.04	4.50	5.25	4.50	7.50	2.50	3.25	0.75	1.50	0.25	0.50	0.00	0.00	0.75	0.25	0.00	0.25	-0.227051	0.097168	0.956055	-2.310000	-3.150000	1.890000	343.00	-0.23	-0.10
0.50	6.00	5.50	6.75	6.50	2.50	1.75	0.50	0.75	1.00	0.50	0.25	0.25	1.00	1.75	0.00	0.25	-0.301758	0.082031	0.932617	-1.540000	6.300000	-1.470000	373.00	-0.21	-0.04	4.50	5.25	4.75	7.25	2.25	3.25	1.00	1.50	0.50	0.50	0.00	0.00	1.25	0.25	0.00	0.25	-0.227051	0.099121	0.957520	-2.310000	-3.220000	1.960000	352.00	-0.22	-0.09
0.51	6.00	5.50	6.75	6.50	2.50	2.00	0.75	1.00	0.75	0.50	0.00	0.50	0.75	1.50	0.00	0.25	-0.300293	0.087402	0.930664	-1.470000	6.160000	-1.400000	376.00	-0.22	-0.05	4.50	5.25	4.50	7.25	2.50	3.00	1.00	1.50	0.50	0.50	0.00	0.00	1.25	0.25	0.00	0.25	-0.227539	0.096191	0.958008	-2.310000	-3.150000	2.030000	349.00	-0.22	-0.09
0.52	6.00	5.50	6.50	6.50	2.50	1.75	0.75	1.00	1.00	0.25	0.25	0.25	0.75	1.75	0.00	0.25	-0.298340	0.078613	0.927734	-1.470000	6.090000	-1.400000	373.00	-0.21	-0.04	4.50	5.25	4.50	7.00	2.25	2.75	1.00	1.50	0.50	0.50	0.00	0.00	1.25	0.25	0.00	0.25	-0.231445	0.097168	0.954590	-2.310000	-3.150000	1.960000	341.00	-0.22	-0.09
0.53	6.00	5.50	6.75	6.75	2.50	1.75	0.75	0.75	1.00	0.50	0.25	0.50	1.00	1.75	0.00	0.25	-0.301758	0.078125	0.927734	-1.400000	6.020000	-1.190000	382.00	-0.21	-0.04	4.50	5.25	4.75	7.50	2.25	3.25	0.75	1.50	0.50	0.75	0.00	0.00	1.25	0.25	0.00	0.25	-0.225586	0.098633	0.960449	-2.380000	-3.150000	2.030000	353.00	-0.22	-0.10
0.54	5.75	5.75	7.00	6.50	2.50	2.00	0.75	1.00	0.75	0.50	0.50	0.25	1.00	1.75	0.00	0.25	-0.302734	0.080078	0.931641	-1.400000	6.020000	-1.260000	385.00	-0.21	-0.05	4.25	5.25	4.50	7.50	2.50	3.00	0.75	1.50	0.50	0.50	0.00	0.00	1.25	0.25	0.00	0.25	-0.227051	0.097656	0.962402	-2.240000	-3.080000	1.960000	345.00	-0.22	-0.10
0.55	6.00	5.50	7.00	6.50	2.75	1.75	0.75	0.75	1.00	0.75	0.25	0.25	1.00	2.00	0.00	0.25	-0.294922	0.080566	0.931641	-1.540000	6.370000	-1.400000	387.00	-0.20	-0.04	4.25	5.50	4.50	7.50	2.25	3.00	1.00	1.50	0.50	0.50	0.00	0.00	1.00	0.25	0.00	0.25	-0.228516	0.092773	0.951172	-2.310000	-3.290000	2.030000	346.00	-0.22	-0.09
0.56	6.00	5.25	6.75	6.75	2.50	2.00	0.75	0.75	1.00	0.50	0.25	0.25	1.00	1.75	0.00	0.25	-0.295898	0.079590	0.927246	-1.470000	6.440000	-1.400000	380.00	-0.21	-0.04	4.25	5.25	4.50	7.25	2.25	3.00	0.75	1.50	0.50	0.50	0.00	0.00	1.00	0.25	0.00	0.00	-0.226074	0.097168	0.960938	-2.310000	-3.080000	1.890000	336.00	-0.23	-0.09
0.57	6.00	5.50	7.00	6.50	2.50	1.75	0.75	0.75	1.00	0.75	0.50	0.25	0.75	1.50	0.00	0.25	-0.296875	0.081543	0.932617	-1.330000	6.090000	-1.260000	381.00	-0.21	-0.04	4.50	5.25	4.50	7.50	2.25	3.00	0.75	1.50	0.25	0.50	0.00	0.00	1.25	0.25	0.00	0.25	-0.226074	0.097168	0.960938	-2.310000	-3.080000	1.890000	342.00	-0.23	-0.10
0.58	6.00	5.50	7.00	6.50	2.50	1.75	0.75	0.75	0.75	0.50	0.25	0.25	1.00	1.75	0.00	0.25	-0.298828	0.077637	0.931152	-1.470000	6.370000	-1.470000	377.00	-0.21	-0.04	4.50	5.25	4.50	7.25	2.25	3.00	1.00	1.25	0.50	0.50	0.00	0.00	1.25	0.50	0.00	0.25	-0.230469	0.099121	0.956055	-2.380000	-3.080000	1.820000	344.00	-0.22	-0.09
0.59	6.00	5.50	7.00	6.50	2.50	2.00	0.50	0.75	1.25	0.50	0.25	0.25	1.00	1.75	0.00	0.25	-0.297363	0.081055	0.933594	-1.610000	6.510000	-1.470000	382.00	-0.21	-0.04	4.25	5.50	4.75	7.50	2.25	3.00	0.75	1.50	0.50	0.50	0.00	0.00	1.25	0.00	0.00	0.25	-0.229980	0.094238	0.958496	-2.590000	-3.150000	1.820000	345.00	-0.23	-0.10
0.60	6.25	5.50	7.00	6.50	2.50	1.75	0.75	0.75	1.00	0.50	0.25	0.50	0.75	1.75	0.00	0.25	-0.297363	0.073730	0.928711	-1.540000	6.440000	-1.470000	383.00	-0.21	-0.04	4.25	5.25	4.75	7.50	2.50	3.25	1.00	1.50	0.25	0.50	0.00	0.00	1.00	0.25	0.00	0.25	-0.221680	0.102051	0.961426	-2.590000	-3.150000	1.820000	349.00	-0.23	-0.09
0.61	6.25	5.50	6.75	6.50	2.50	1.75	0.75	0.75	1.00	0.50	0.25	0.00	0.75	1.50	0.00	0.25	-0.299316	0.080566	0.930664	-1.400000	6.440000	-1.540000	373.00	-0.22	-0.04	4.75	5.50	4.75	7.50	2.25	3.00	0.75	1.25	0.50	0.50	0.00	0.00	1.00	0.25	0.00	0.25	-0.229980	0.095703	0.963379	-2.590000	-3.080000	1.890000	347.00	-0.23	-0.09
0.62	6.25	5.25	6.75	6.75	2.50	1.75	0.50	0.75	1.00	0.50	0.25	0.50	0.75	1.75	0.00	0.25	-0.297852	0.083008	0.934082	-1.400000	6.300000	-1.400000	377.00	-0.21	-0.04	4.50	5.25	4.75	7.50	2.25	3.00	1.00	1.50	0.50	0.50	0.00	0.00	1.25	0.25	0.00	0.25	-0.230469	0.097656	0.955566	-2.450000	-3.010000	1.820000	352.00	-0.22	-0.09
0.63	6.25	5.50	7.00	6.75	2.50	2.00	0.50	0.75	1.00	0.50	0.25	0.25	1.00	1.75	0.00	0.25	-0.293457	0.077637	0.927246	-1.330000	6.160000	-1.400000	384.00	-0.21	-0.04	4.50	5.25	4.75	7.50	2.50	3.00	0.75	1.50	0.75	0.50	0.00	0.00	1.50	0.25	0.00	0.25	-0.225098	0.096191	0.957031	-2.380000	-3.080000	1.680000	356.00	-0.22	-0.09
0.64	6.25	5.50	7.00	6.50	2.50	1.75	0.75	0.75	0.75	0.50	0.50	0.25	1.00	1.75	0.00	0.25	-0.297363	0.078613	0.931641	-1.400000	6.230000	-1.470000	382.00	-0.21	-0.04	4.75	5.50	4.50	7.50	2.50	3.25	1.00	1.50	0.25	0.50	0.00	0.00	1.00	0.25	0.00	0.25	-0.221191	0.098145	0.961914	-2.310000	-3.080000	1.820000	354.00	-0.23	-0.09
0.65	6.25	5.50	7.00	6.50	2.50	1.75	0.75	0.75	1.00	0.50	0.50	0.25	0.75	1.75	0.00	0.25	-0.297363	0.080078	0.932617	-1.470000	6.090000	-1.470000	383.00	-0.21	-0.04	4.50	5.25	4.50	7.50	2.25	3.00	0.75	1.50	0.50	0.50	0.00	0.00	1.25	0.50	0.00	0.50	-0.224121	0.096191	0.958008	-2.380000	-3.080000	1.890000	348.00	-0.22	-0.10
0.66	6.00	5.50	7.00	6.75	2.50	2.00	0.75	0.75	1.00	0.50	0.25	0.25	1.00	1.50	0.00	0.25	-0.302734	0.083008	0.935059	-1.260000	6.090000	-1.540000	383.00	-0.21	-0.04	4.25	5.25	4.50	7.50	2.25	3.00	1.00	1.50	0.50	0.75	0.00	0.00	1.00	0.00	0.00	0.25	-0.226074	0.092285	0.960449	-2.520000	-3.080000	1.890000	344.00	-0.22	-0.09
0.67	6.25	5.50	7.00	6.75	2.50	1.75	0.50	1.00	0.75	0.50	0.25	0.25	1.00	1.75	0.00	0.25	-0.297852	0.081055	0.932617	-1.400000	6.230000	-1.330000	382.00	-0.22	-0.05	4.25	5.25	4.50	7.50	2.25	3.25	1.00	1.50	0.50	0.50	0.00	0.00	1.00	0.50	0.00	0.25	-0.230469	0.095215	0.960938	-2.520000	-3.150000	1.820000	349.00	-0.22	-0.09
0.68	6.25	5.25	7.00	6.75	2.50	2.00	0.75	0.75	1.00	0.50	0.25	0.25	1.00	1.50	0.00	0.25	-0.296387	0.077637	0.934082	-1.330000	6.090000	-1.330000	383.00	-0.21	-0.04	4.50	5.25	4.75	7.50	2.25	3.25	1.00	1.25	0.25	0.75	0.00	0.00	1.00	0.25	0.00	0.25	-0.229004	0.094238	0.952637	-2.450000	-3.080000	1.750000	348.00	-0.23	-0.09
0.69	6.00	5.50	7.25	6.75	2.50	1.75	0.50	1.00	1.00	0.50	0.25	0.50	1.00	1.75	0.00	0.25	-0.298340	0.079102	0.932129	-1.400000	6.370000	-1.400000	388.00	-0.21	-0.05	4.50	5.25	4.50	7.50	2.25	3.00	1.00	1.25	0.50	0.50	0.00	0.00	0.75	0.25	0.00	0.25	-0.226074	0.093750	0.964355	-2.450000	-2.940000	1.820000	341.00	-0.23	-0.09
0.70	6.25	5.50	7.25	6.75	2.50	2.00	0.75	0.75	1.25	0.50	0.25	0.25	1.00	1.75	0.00	0.25	-0.299316	0.079102	0.927246	-1.400000	6.230000	-1.400000	394.00	-0.21	-0.04	4.25	5.25	4.50	7.50	2.25	3.00	0.75	1.25	0.50	0.50	0.00	0.00	1.00	0.25	0.00	0.25	-0.228027	0.099121	0.961426	-2.520000	-3.080000	1.960000	336.00	-0.23	-0.09
0.71	6.25	5.50	7.00	6.75	2.50	1.75	0.50	1.00	1.00	0.25	0.25	0.50	1.00	1.75	0.00	0.25	-0.304688	0.079590	0.934082	-1.540000	6.230000	-1.400000	385.00	-0.21	-0.05	4.25	5.25	4.50	7.50	2.50	3.00	1.00	1.25	0.25	0.50	0.00	0.00	1.00	0.25	0.00	0.25	-0.231445	0.094238	0.961914	-2.520000	-3.150000	1.820000	340.00	-0.23	-0.09
0.72	6.25	5.50	7.00	6.75	2.50	1.75	0.50	0.75	1.25	0.25	0.25	0.25	0.75	1.50	0.00	0.25	-0.294922	0.078125	0.934082	-1.540000	6.230000	-1.260000	378.00	-0.22	-0.04	4.50	5.25	4.50	7.50	2.25	3.00	0.75	1.50	0.25	0.50	0.00	0.00	1.25	0.25	0.00	0.25	-0.228027	0.104004	0.962891	-2.450000	-3.080000	1.750000	342.00	-0.23	-0.10
0.73	6.50	5.50	7.00	6.75	2.50	1.75	0.75	0.75	0.75	0.25	0.25	0.25	1.00	1.50	0.00	0.25	-0.298828	0.081543	0.929688	-1.470000	6.160000	-1.330000	380.00	-0.22	-0.04	4.50	5.25	4.50	7.50	2.25	3.00	0.75	1.50	0.50	0.50	0.25	0.00	1.00	0.00	0.00	0.25	-0.229980	0.093750	0.963867	-2.380000	-3.010000	1.820000	343.00	-0.23	-0.10
0.74	6.25	5.50	7.00	7.25	2.50	1.75	0.50	0.75	1.00	0.50	0.00	0.50	1.00	1.50	0.00	0.25	-0.302734	0.079590	0.927734	-1.540000	6.160000	-1.400000	385.00	-0.22	-0.05	4.25	5.25	4.50	7.50	2.00	3.00	0.75	1.50	0.75	0.50	0.00	0.00	1.00	0.50	0.00	0.25	-0.226562	0.092285	0.960938	-2.380000	-3.080000	1.960000	343.00	-0.22	-0.09
0.75	6.50	5.50	7.00	6.75	2.50	1.75	0.75	0.75	1.00	0.50	0.25	0.50	1.00	1.75	0.00	0.50	-0.300293	0.082031	0.929688	-1.400000	6.090000	-1.330000	392.00	-0.21	-0.04	4.25	5.00	4.50	7.50	2.25	3.25	1.00	1.50	0.50	0.50	0.00	0.00	1.00	0.25	0.00	0.25	-0.221191	0.094238	0.959961	-2.520000	-3.080000	1.890000	344.00	-0.22	-0.09
0.76	6.25	5.50	7.00	7.00	2.50	2.00	0.50	0.75	1.00	0.50	0.25	0.25	0.75	1.50	0.00	0.25	-0.297852	0.081543	0.929688	-1.610000	6.370000	-1.330000	383.00	-0.22	-0.04	4.50	5.25	4.25	7.50	2.25	3.00	0.75	1.25	0.50	0.50	0.00	0.00	1.00	0.00	0.00	0.25	-0.226562	0.099609	0.962891	-2.450000	-3.080000	1.960000	334.00	-0.23	-0.09
0.77	6.25	5.50	7.00	7.00	2.75	1.75	0.75	0.75	1.25	0.25	0.25	0.50	1.00	1.50	0.00	0.25	-0.296387	0.079102	0.936035	-1.610000	6.370000	-1.330000	392.00	-0.21	-0.04	4.25	5.50	4.75	7.50	2.25	3.00	0.75	1.50	0.25	0.25	0.00	0.00	1.00	0.00	0.00	0.25	-0.220215	0.092285	0.953613	-2.380000	-3.220000	1.890000	337.00	-0.24	-0.10
0.78	6.25	5.50	7.00	7.00	2.50	2.00	0.50	0.75	0.75	0.50	0.25	0.25	0.50	1.75	0.00	0.25	-0.300293	0.080078	0.929688	-1.680000	6.440000	-1.400000	379.00	-0.22	-0.04	4.50	5.50	4.50	7.50	2.25	2.50	0.75	1.50	0.50	0.50	0.00	0.00	0.75	0.25	0.00	0.50	-0.225098	0.094727	0.967285	-2.310000	-3.150000	1.960000	339.00	-0.23	-0.09
0.79	6.50	5.50	7.00	7.00	2.50	1.75	0.75	1.00	1.00	0.50	0.25	0.25	0.75	1.75	0.00	0.25	-0.300293	0.081055	0.931152	-1.680000	6.580000	-1.540000	392.00	-0.21	-0.04	4.25	5.50	4.50	7.50	2.25	3.25	1.00	1.25	0.50	0.50	0.00	0.00	1.25	0.25	0.00	0.25	-0.223633	0.092773	0.960449	-2.310000	-3.080000	1.960000	347.00	-0.22	-0.09
0.80	6.50	5.50	7.00	7.00	2.50	1.75	0.75	0.75	1.00	0.50	0.25	0.50	1.00	1.75	0.00	0.25	-0.297852	0.078613	0.933594	-1.750000	6.790000	-1.540000	393.00	-0.21	-0.04	4.75	5.50	4.25	7.50	2.25	3.00	0.75	1.50	0.50	0.50	0.00	0.00	1.00	0.25	0.00	0.25	-0.231934	0.095703	0.958008	-2.240000	-3.220000	1.960000	345.00	-0.23	-0.10
0.81	6.25	5.25	7.00	7.00	2.50	1.75	0.50	0.75	1.00	0.25	0.25	0.50	0.75	1.25	0.00	0.25	-0.299805	0.079590	0.932129	-1.540000	6.510000	-1.330000	375.00	-0.22	-0.05	4.25	5.25	4.50	7.50	2.25	2.75	1.00	1.25	0.50	0.50	0.00	0.00	1.00	0.25	0.00	0.00	-0.229004	0.095703	0.959961	-2.170000	-3.290000	1.890000	336.00	-0.23	-0.09
0.82	6.00	5.50	7.00	7.00	2.50	1.75	0.50	0.75	0.75	0.50	0.25	0.00	1.00	1.75	0.00	0.25	-0.303223	0.077148	0.931152	-1.470000	6.370000	-1.260000	376.00	-0.22	-0.05	4.50	5.25	4.50	7.50	2.25	2.75	0.75	1.25	0.75	0.50	0.00	0.00	1.25	0.25	0.00	0.25	-0.225586	0.097168	0.956055	-2.170000	-3.290000	1.890000	342.00	-0.22	-0.09
0.83	6.25	5.50	7.25	6.75	2.50	1.75	0.75	1.00	0.50	0.75	0.25	0.25	1.00	1.50	0.00	0.25	-0.298340	0.081543	0.930664	-1.540000	6.300000	-1.330000	386.00	-0.22	-0.05	4.50	5.25	4.75	7.50	2.25	2.75	0.75	1.50	0.25	0.50	0.00	0.00	1.00	0.50	0.00	0.50	-0.229492	0.094238	0.959473	-2.030000	-3.430000	1.890000	343.00	-0.23	-0.09
0.84	6.50	5.50	6.75	7.25	2.75	1.75	0.50	1.00	1.25	0.50	0.25	0.50	1.00	1.50	0.00	0.25	-0.300781	0.080078	0.932617	-1.470000	6.440000	-1.330000	397.00	-0.21	-0.05	4.25	5.25	4.25	7.50	2.25	3.00	0.75	1.50	0.75	0.50	0.00	0.00	1.25	0.50	0.00	0.00	-0.232422	0.098633	0.965820	-1.120000	-3.710000	2.030000	344.00	-0.22	-0.09
0.85	6.25	5.50	7.00	7.00	2.50	1.75	0.50	0.75	0.75	0.25	0.25	0.25	1.00	1.75	0.00	0.25	-0.301270	0.078613	0.933105	-1.400000	6.440000	-1.400000	378.00	-0.22	-0.05	4.25	5.25	4.50	7.50	2.25	3.00	0.75	1.50	0.25	0.50	0.00	0.00	1.25	0.25	0.00	0.25	-0.225098	0.104492	0.958496	-0.490000	-3.850000	2.240000	339.00	-0.23	-0.10
0.86	6.25	5.50	7.00	6.75	2.50	1.75	0.50	0.75	1.00	0.50	0.25	0.25	1.00	1.75	0.00	0.25	-0.306152	0.079102	0.932617	-1.330000	6.440000	-1.260000	381.00	-0.21	-0.04	4.75	5.50	4.75	7.50	2.25	3.00	0.75	1.50	0.25	0.50	0.00	0.00	1.25	0.25	0.00	0.25	-0.227539	0.091797	0.963867	-0.280000	-4.130000	2.310000	349.00	-0.23	-0.10
0.87	6.00	5.50	7.00	7.00	2.50	1.75	0.50	1.00	1.00	0.25	0.00	0.50	0.75	1.50	0.00	0.25	-0.295410	0.079102	0.928711	-1.330000	6.510000	-1.190000	379.00	-0.22	-0.05	4.75	5.50	4.75	7.50	2.25	2.50	0.75	1.00	0.00	0.50	0.00	0.00	1.00	0.00	0.00	0.25	-0.234863	0.101074	0.969238	0.700000	-4.690000	2.520000	329.00	-0.25	-0.09
0.88	6.50	5.50	7.00	7.00	2.50	1.75	0.50	1.00	0.75	0.50	0.25	0.25	0.75	1.50	0.00	0.25	-0.300293	0.082520	0.932129	-1.120000	6.580000	-1.260000	383.00	-0.22	-0.05	4.50	5.50	4.75	7.75	2.25	3.25	0.75	1.25	0.50	0.50	0.00	0.00	0.75	0.25	0.00	0.25	-0.222656	0.098145	0.961914	1.120000	-5.040000	2.660000	347.00	-0.23	-0.09
0.89	6.25	5.50	7.00	7.00	2.50	1.75	0.50	0.75	0.75	0.25	0.25	0.25	0.75	1.50	0.00	0.25	-0.301758	0.078613	0.929199	-0.980000	6.650000	-1.190000	374.00	-0.23	-0.05	5.00	5.50	5.00	7.50	2.25	3.25	0.75	1.50	0.25	0.25	0.00	0.00	1.00	0.25	0.00	0.25	-0.227051	0.098145	0.966797	1.330000	-5.040000	2.590000	353.00	-0.24	-0.10
0.90	6.00	5.50	7.25	7.00	2.50	1.75	0.50	0.75	0.75	0.50	0.50	0.00	0.75	1.25	0.00	0.25	-0.299805	0.079590	0.926758	-0.910000	6.790000	-1.120000	375.00	-0.23	-0.05	5.25	5.50	5.00	8.00	2.50	2.75	0.75	1.25	0.25	0.50	0.00	0.00	1.00	0.25	0.00	0.25	-0.237305	0.100098	0.972656	2.170000	-5.670000	2.660000	357.00	-0.24	-0.09
0.91	6.25	5.50	7.25	6.75	2.25	1.75	0.50	0.75	0.75	0.50	0.00	0.25	0.75	1.25	0.00	0.25	-0.297852	0.076660	0.930176	-0.770000	6.720000	-1.120000	369.00	-0.23	-0.04	5.00	5.75	5.25	8.00	2.25	3.00	0.75	1.50	0.00	0.25	0.00	0.00	1.00	0.00	0.00	0.25	-0.239746	0.099609	0.973633	4.060000	-6.720000	3.010000	355.00	-0.25	-0.10
0.92	6.25	5.50	7.00	7.00	2.25	1.75	0.50	0.75	0.75	0.50	0.00	0.25	0.75	1.50	0.00	0.25	-0.299805	0.079590	0.930664	-0.630000	6.790000	-1.120000	371.00	-0.23	-0.05	5.75	5.75	5.25	8.00	2.00	3.25	0.75	1.50	0.25	0.00	0.00	0.00	0.75	0.00	0.00	0.25	-0.220703	0.089355	0.966797	6.230000	-7.980000	3.430000	361.00	-0.25	-0.09
0.93	6.50	5.50	7.00	7.00	2.25	1.75	0.50	0.75	0.75	0.50	0.25	0.00	0.75	1.75	0.00	0.25	-0.301270	0.083496	0.928711	-0.770000	6.790000	-1.050000	376.00	-0.22	-0.04	5.75	5.75	5.50	8.25	2.25	3.50	0.75	1.25	0.00	0.00	0.00	0.00	0.75	0.25	0.00	0.25	-0.260254	0.105469	0.984863	8.960000	-9.660000	3.780000	367.00	-0.26	-0.09
0.94	6.25	5.25	7.00	7.00	2.25	1.75	0.50	0.75	0.75	0.25	0.00	0.00	0.75	1.50	0.00	0.25	-0.301758	0.079102	0.928711	-0.840000	6.790000	-1.050000	364.00	-0.23	-0.04	6.25	6.25	5.25	8.25	2.25	3.50	0.75	1.25	0.00	0.00	0.00	0.00	0.50	0.25	0.00	0.00	-0.244629	0.108887	0.972656	13.020000	-10.430000	5.320000	371.00	-0.26	-0.09
0.95	6.25	5.50	7.00	7.00	2.25	1.50	0.50	0.75	0.50	0.25	0.25	0.00	0.75	1.25	0.00	0.25	-0.300781	0.084961	0.927734	-0.630000	6.790000	-0.910000	360.00	-0.24	-0.05	6.75	6.50	6.00	8.50	2.00	3.75	0.75	1.25	0.00	0.00	0.00	0.00	0.75	0.00	0.00	0.00	-0.207031	0.101074	0.977051	15.610000	-12.390000	5.880000	390.00	-0.27	-0.09
0.96	6.25	5.50	7.00	6.75	2.00	1.50	0.50	0.75	0.50	0.00	0.00	0.00	0.75	1.50	0.00	0.25	-0.294434	0.081055	0.928711	-0.420000	6.930000	-0.910000	352.00	-0.24	-0.05	7.00	6.75	6.25	8.50	2.00	4.00	0.75	1.25	0.00	0.00	0.00	0.00	0.50	0.00	0.00	0.25	-0.207031	0.110352	0.941406	15.470000	-13.790000	4.900000	399.00	-0.27	-0.09
0.97	6.25	5.50	7.00	7.00	2.25	1.75	0.50	0.75	0.75	0.25	0.00	0.00	0.75	1.25	0.00	0.25	-0.304688	0.083008	0.929688	0.210000	7.280000	-0.980000	364.00	-0.24	-0.05	7.00	6.75	6.00	8.75	1.75	3.75	0.50	1.25	0.00	0.00	0.00	0.00	0.75	0.00	0.00	0.25	-0.208984	0.117188	0.948242	13.580000	-13.650000	4.550000	392.00	-0.27	-0.09
0.98	6.25	5.50	6.75	6.75	2.25	1.25	0.50	0.75	0.75	0.25	0.00	0.25	0.50	1.25	0.00	0.25	-0.303711	0.082520	0.937012	0.770000	8.050000	-0.840000	353.00	-0.24	-0.04	7.50	7.25	6.25	8.75	2.00	3.75	0.50	1.25	0.00	0.00	0.00	0.00	0.50	0.00	0.00	0.25	-0.211426	0.123535	0.952637	9.870000	-12.040000	3.710000	405.00	-0.28	-0.09
0.99	6.25	5.25	7.00	6.75	2.00	1.50	0.50	0.75	0.50	0.25	0.00	0.00	0.25	1.25	0.00	0.00	-0.273926	0.071289	0.947266	1.400000	8.540000	-0.490000	344.00	-0.25	-0.04	7.25	7.25	6.50	8.75	2.00	3.75	0.50	1.00	0.00	0.00	0.00	0.00	0.50	0.00	0.00	0.00	-0.211426	0.123535	0.952637	9.870000	-12.040000	3.710000	400.00	-0.28	-0.08
1.00	6.25	5.25	6.75	6.75	2.00	1.50	0.50	0.75	0.75	0.00	0.00	0.00	0.75	1.25	0.00	0.00	-0.308105	0.079102	0.930664	2.100000	8.050000	-0.490000	347.00	-0.24	-0.04	8.00	7.25	6.50	8.75	2.00	3.50	0.50	1.00	0.00	0.00	0.00	0.00	0.50	0.00	0.00	0.00	-0.211426	0.122559	0.948242	7.210000	-10.710000	3.220000	405.00	-0.28	-0.08
1.01	6.50	5.50	6.75	6.75	2.00	1.25	0.50	0.50	0.50	0.25	0.00	0.00	0.50	1.00	0.00	0.00	-0.301758	0.083008	0.931152	1.890000	6.930000	-0.770000	340.00	-0.26	-0.04	7.75	7.75	6.75	9.00	2.00	3.75	0.50	1.00	0.00	0.00	0.00	0.00	0.50	0.00	0.00	0.00	-0.207031	0.125977	0.951172	5.740000	-9.590000	2.940000	415.00	-0.28	-0.08
1.02	6.25	5.50	6.75	6.75	2.00	1.50	0.50	0.50	0.25	0.00	0.00	0.00	0.50	1.25	0.00	0.00	-0.295410	0.082520	0.937500	2.240000	8.750000	-0.420000	336.00	-0.26	-0.04	8.25	8.00	7.25	9.00	2.00	3.50	0.50	1.00	0.00	0.00	0.00	0.00	0.50	0.00	0.00	0.00	-0.210449	0.127441	0.951172	4.690000	-8.820000	2.730000	426.00	-0.29	-0.08
1.03	6.00	5.25	6.50	6.50	1.75	1.25	0.50	0.50	0.00	0.00	0.00	0.00	0.50	1.25	0.00	0.00	-0.312500	0.077148	0.935059	4.060000	8.610000	-0.210000	317.00	-0.26	-0.05	8.25	8.00	7.50	9.25	2.00	4.00	0.50	1.00	0.00	0.00	0.00	0.00	0.25	0.25	0.00	0.00	-0.205566	0.125488	0.952148	3.990000	-8.400000	2.590000	437.00	-0.28	-0.08
1.04	6.25	5.25	6.50	6.50	1.75	1.00	0.50	0.50	0.00	0.00	0.00	0.00	0.50	1.00	0.00	0.00	-0.307129	0.082520	0.932129	5.670000	8.190000	0.070000	315.00	-0.27	-0.04	8.25	8.25	7.25	9.25	2.00	3.75	0.50	1.00	0.00	0.00	0.00	0.00	0.25	0.00	0.00	0.00	-0.199707	0.132324	0.956543	3.010000	-7.630000	2.520000	431.00	-0.29	-0.08
1.05	6.00	5.50	6.50	6.50	1.75	1.00	0.25	0.50	0.00	0.00	0.00	0.00	0.50	0.75	0.00	0.00	-0.305176	0.083008	0.931152	7.070000	6.650000	0.210000	309.00	-0.28	-0.05	8.75	8.25	7.50	9.25	2.00	4.00	0.50	1.00	0.00	0.00	0.00	0.00	0.50	0.00	0.00	0.00	-0.203613	0.124512	0.961426	2.170000	-7.070000	2.380000	444.00	-0.29	-0.08
1.06	6.00	5.50	6.25	6.50	1.75	1.25	0.25	0.50	0.25	0.00	0.00	0.00	0.25	1.00	0.00	0.00	-0.295410	0.087891	0.935547	8.050000	5.390000	0.000000	312.00	-0.27	-0.05	8.75	8.50	7.50	9.50	2.00	4.25	0.50	1.00	0.00	0.00	0.00	0.00	0.25	0.00	0.00	0.00	-0.207031	0.120117	0.958008	2.240000	-6.930000	2.310000	450.00	-0.29	-0.08
1.07	6.25	5.50	6.75	6.50	1.75	1.00	0.25	0.50	0.00	0.00	0.00	0.00	0.25	1.00	0.00	0.00	-0.298340	0.085449	0.928223	8.260000	4.200000	-0.490000	314.00	-0.28	-0.04	8.75	8.50	7.50	9.25	2.00	4.00	0.50	1.00	0.00	0.00	0.00	0.00	0.25	0.00	0.00	0.00	-0.196289	0.132324	0.953613	1.960000	-6.370000	2.100000	444.00	-0.29	-0.08
1.08	6.25	5.25	6.75	6.50	1.50	1.00	0.25	0.50	0.00	0.00	0.00	0.25	0.25	1.25	0.00	0.00	-0.297363	0.090820	0.934082	7.840000	3.080000	-0.980000	314.00	-0.27	-0.05	9.00	8.25	7.50	9.50	2.25	3.75	0.50	0.75	0.00	0.00	0.00	0.00	0.50	0.00	0.00	0.00	-0.203125	0.131348	0.957520	1.050000	-5.600000	1.960000	446.00	-0.29	-0.07
1.09	6.00	5.50	6.50	6.50	1.50	1.00	0.25	0.25	0.00	0.00	0.00	0.00	0.25	1.00	0.00	0.00	-0.310059	0.093750	0.937500	9.660000	0.490000	-0.910000	302.00	-0.28	-0.04	9.00	8.75	7.50	9.75	2.00	4.25	0.50	1.00	0.00	0.00	0.00	0.00	0.75	0.00	0.00	0.00	-0.205078	0.122070	0.965332	1.400000	-5.740000	2.030000	462.00	-0.29	-0.08
1.10	6.25	5.50	6.50	6.25	1.50	0.75	0.25	0.50	0.00	0.00	0.00	0.00	0.25	1.00	0.00	0.00	-0.303711	0.087402	0.946777	11.130000	-0.980000	-0.770000	303.00	-0.28	-0.04	9.50	9.00	7.50	9.50	2.00	4.25	0.50	1.00	0.00	0.00	0.00	0.00	0.50	0.00	0.00	0.00	-0.204102	0.132324	0.955078	1.750000	-5.810000	1.890000	464.00	-0.29	-0.08
1.11	6.00	5.75	6.75	6.25	1.50	1.00	0.25	0.25	0.00	0.00	0.00	0.00	0.00	1.00	0.00	0.00	-0.308594	0.100098	0.951172	12.670000	-2.800000	-0.350000	302.00	-0.29	-0.04	9.25	9.00	7.75	10.00	2.00	4.25	0.50	1.00	0.00	0.00	0.00	0.00	0.50	0.00	0.00	0.00	-0.199219	0.139648	0.954590	1.890000	-5.670000	1.750000	470.00	-0.29	-0.08
1.12	6.50	5.50	6.75	6.25	1.50	1.00	0.25	0.25	0.00	0.00	0.00	0.00	0.00	1.25	0.00	0.00	-0.299805	0.095215	0.939941	13.510000	-4.340000	-0.140000	307.00	-0.28	-0.03	9.25	8.75	7.75	9.75	2.25	4.50	0.50	1.00	0.00	0.00	0.00	0.00	0.25	0.00	0.00	0.00	-0.204102	0.139648	0.955078	1.470000	-5.600000	1.960000	468.00	-0.29	-0.08
1.13	6.25	5.50	6.75	6.25	1.50	0.75	0.25	0.50	0.00	0.00	0.00	0.00	0.00	1.00	0.00	0.00	-0.291992	0.106445	0.929199	13.230000	-4.970000	-0.280000	304.00	-0.28	-0.04	9.50	9.25	7.75	10.00	2.00	4.50	0.50	1.00	0.00	0.00	0.00	0.00	0.25	0.00	0.00	0.00	-0.205566	0.132324	0.963379	1.400000	-5.530000	1.890000	476.00	-0.29	-0.08
1.14	6.50	5.50	6.50	6.25	1.25	0.75	0.25	0.25	0.00	0.00	0.00	0.00	0.00	1.00	0.00	0.00	-0.285645	0.110352	0.933105	12.460000	-5.320000	-0.420000	297.00	-0.29	-0.04	9.25	9.00	7.75	10.00	2.00	4.25	0.50	1.00	0.00	0.00	0.00	0.00	0.25	0.00	0.00	0.00	-0.202148	0.141602	0.970215	1.540000	-5.740000	1.890000	468.00	-0.29	-0.08
1.15	6.50	5.50	6.75	6.25	1.50	1.00	0.25	0.25	0.00	0.00	0.00	0.00	0.25	1.00	0.00	0.00	-0.285645	0.119141	0.921387	11.550000	-5.250000	-0.280000	307.00	-0.28	-0.04	9.50	9.25	8.00	10.00	2.00	4.25	0.50	1.00	0.00	0.00	0.00	0.00	0.50	0.00	0.00	0.00	-0.211914	0.133301	0.968262	2.030000	-6.370000	2.030000	478.00	-0.29	-0.08
1.16	6.50	5.50	6.50	6.25	1.25	0.75	0.00	0.25	0.00	0.00	0.00	0.00	0.00	1.00	0.00	0.00	-0.287109	0.119629	0.923828	10.220000	-4.060000	-0.280000	293.00	-0.30	-0.04	9.75	9.50	8.00	10.00	2.00	4.50	0.50	0.75	0.00	0.00	0.00	0.00	0.25	0.00	0.00	0.00	-0.205566	0.129395	0.958984	2.730000	-7.350000	2.170000	479.00	-0.30	-0.07
1.17	6.50	5.75	6.50	6.25	1.25	0.75	0.00	0.25	0.00	0.00	0.00	0.00	0.25	1.25	0.00	0.00	-0.289551	0.114746	0.930176	9.730000	-4.060000	-0.070000	300.00	-0.29	-0.04	10.00	9.50	8.25	10.00	2.25	4.25	0.50	0.75	0.00	0.00	0.00	0.00	0.25	0.00	0.00	0.00	-0.192383	0.142578	0.952148	3.010000	-7.560000	2.100000	485.00	-0.30	-0.07
1.18	6.50	5.50	6.50	6.00	1.25	0.50	0.25	0.25	0.00	0.00	0.00	0.00	0.00	0.75	0.00	0.00	-0.275879	0.117676	0.914551	8.890000	-3.360000	-0.350000	289.00	-0.30	-0.03	9.75	9.50	8.00	10.25	2.00	4.50	0.50	1.00	0.00	0.00	0.00	0.00	0.75	0.00	0.00	0.00	-0.207520	0.143555	0.965820	2.730000	-7.420000	2.100000	490.00	-0.29	-0.08
1.19	6.75	5.75	6.75	6.00	1.25	0.75	0.00	0.25	0.00	0.00	0.00	0.00	0.00	1.25	0.00	0.00	-0.272949	0.127930	0.905762	7.490000	-1.890000	-0.630000	300.00	-0.29	-0.03	10.25	9.50	8.00	10.00	2.00	4.50	0.50	0.75	0.00	0.00	0.00	0.00	0.25	0.00	0.00	0.00	-0.200684	0.142578	0.957031	3.360000	-7.350000	2.030000	485.00	-0.30	-0.07
1.20	6.50	5.50	6.50	6.00	1.25	0.75	0.00	0.25	0.00	0.00	0.00	0.00	0.00	1.00	0.00	0.00	-0.269043	0.128418	0.912598	5.390000	0.140000	-0.700000	290.00	-0.30	-0.04	10.00	9.50	8.25	10.25	2.00	4.50	0.50	0.75	0.00	0.00	0.00	0.00	0.50	0.00	0.00	0.00	-0.192383	0.145020	0.944824	2.940000	-6.860000	2.170000	490.00	-0.29	-0.08
1.21	6.50	5.75	6.75	6.00	1.00	0.50	0.00	0.00	0.00	0.00	0.00	0.00	0.00	1.00	0.00	0.00	-0.265137	0.126953	0.900879	3.220000	2.100000	-0.770000	286.00	-0.30	-0.03	10.00	9.50	8.00	10.00	2.00	4.50	0.50	1.00	0.00	0.00	0.00	0.00	0.50	0.00	0.00	0.25	-0.188965	0.139160	0.948242	1.750000	-5.670000	2.030000	489.00	-0.29	-0.08
1.22	6.50	6.00	6.75	6.25	1.25	0.75	0.25	0.25	0.00	0.00	0.00	0.00	0.00	1.25	0.00	0.00	-0.263184	0.129883	0.904297	0.630000	4.900000	-1.050000	307.00	-0.29	-0.03	10.00	10.00	8.25	10.25	2.00	4.25	0.50	1.00	0.00	0.00	0.00	0.00	0.25	0.00	0.00	0.00	-0.194336	0.146484	0.948730	0.280000	-4.340000	1.820000	493.00	-0.30	-0.08
1.23	6.75	6.50	7.00	6.25	1.25	0.75	0.00	0.25	0.00	0.00	0.00	0.00	0.25	1.00	0.00	0.00	-0.271484	0.131348	0.912598	-1.680000	7.350000	-1.190000	313.00	-0.30	-0.04	10.00	9.75	8.25	10.25	1.75	4.25	0.50	0.75	0.00	0.00	0.00	0.00	0.25	0.00	0.00	0.00	-0.190430	0.145508	0.952637	-1.050000	-3.290000	1.820000	484.00	-0.30	-0.07
1.24	6.50	6.25	6.75	6.25	1.25	0.75	0.00	0.25	0.00	0.00	0.00	0.00	0.00	1.00	0.00	0.00	-0.276855	0.127930	0.925781	-3.430000	8.820000	-1.330000	303.00	-0.30	-0.04	10.50	9.50	8.25	10.25	2.00	4.25	0.50	1.00	0.00	0.00	0.00	0.00	0.50	0.00	0.00	0.00	-0.196289	0.141602	0.960449	-1.960000	-2.590000	1.750000	496.00	-0.29	-0.07
1.25	7.00	6.25	6.75	6.25	1.25	0.75	0.00	0.25	0.00	0.00	0.00	0.00	0.00	1.00	0.00	0.00	-0.278809	0.121094	0.919922	-4.410000	9.590000	-1.540000	308.00	-0.30	-0.04	10.25	9.75	8.00	10.25	2.00	4.25	0.50	1.00	0.00	0.00	0.00	0.00	0.25	0.00	0.00	0.00	-0.202148	0.139648	0.962891	-2.450000	-2.310000	1.680000	491.00	-0.30	-0.08
1.26	6.75	6.25	6.75	6.50	1.25	0.75	0.25	0.25	0.00	0.00	0.00	0.00	0.00	1.00	0.00	0.00	-0.289551	0.116211	0.937988	-4.830000	9.940000	-1.400000	312.00	-0.29	-0.04	10.25	9.75	8.00	10.00	2.00	4.00	0.50	1.00	0.00	0.00	0.00	0.00	0.25	0.00	0.00	0.00	-0.200195	0.144531	0.955566	-2.730000	-2.240000	1.750000	485.00	-0.30	-0.07
1.27	6.75	6.25	6.75	6.50	1.25	1.00	0.00	0.25	0.00	0.00	0.00	0.00	0.00	1.00	0.00	0.00	-0.284668	0.113770	0.934082	-4.690000	9.660000	-1.190000	311.00	-0.30	-0.04	10.00	9.50	8.00	10.00	1.75	4.00	0.50	0.75	0.00	0.00	0.00	0.00	0.25	0.00	0.00	0.00	-0.195801	0.149902	0.942871	-3.570000	-1.680000	1.680000	474.00	-0.30	-0.07
1.28	6.75	6.25	7.00	6.50	1.25	1.00	0.00	0.25	0.00	0.00	0.00	0.00	0.00	1.00	0.00	0.00	-0.287598	0.118652	0.927734	-4.270000	9.380000	-1.050000	314.00	-0.30	-0.04	10.00	9.50	8.00	10.00	2.00	4.25	0.50	0.75	0.00	0.00	0.00	0.00	0.25	0.25	0.00	0.00	-0.192383	0.145996	0.943359	-4.900000	-0.490000	1.750000	481.00	-0.29	-0.07
1.29	7.00	6.50	7.25	6.75	1.25	1.00	0.25	0.25	0.00	0.00	0.00	0.00	0.00	1.25	0.00	0.00	-0.292480	0.112305	0.943848	-3.850000	8.890000	-0.630000	330.00	-0.29	-0.04	9.75	9.75	8.00	10.25	1.50	3.75	0.50	1.00	0.00	0.00	0.00	0.00	0.25	0.25	0.00	0.00	-0.197266	0.145996	0.951660	-6.370000	0.560000	1.540000	477.00	-0.30	-0.08
1.30	7.00	6.50	7.25	6.75	1.50	1.00	0.00	0.25	0.00	0.00	0.00	0.00	0.00	1.00	0.00	0.00	-0.277344	0.126953	0.914551	-3.990000	8.680000	-0.210000	327.00	-0.30	-0.04	10.00	9.50	8.00	10.00	2.00	3.75	0.50	1.00	0.00	0.00	0.00	0.00	0.25	0.00	0.00	0.00	-0.192383	0.146484	0.944336	-7.770000	1.680000	1.330000	478.00	-0.30	-0.07
1.31	7.00	6.50	7.25	6.75	1.25	1.00	0.00	0.25	0.00	0.00	0.00	0.00	0.00	0.75	0.00	0.00	-0.278809	0.123535	0.912598	-5.460000	10.220000	-0.210000	322.00	-0.30	-0.04	9.75	9.25	7.75	10.00	1.75	4.00	0.50	0.75	0.00	0.00	0.00	0.00	0.25	0.00	0.00	0.00	-0.197754	0.145996	0.944336	-9.380000	3.080000	1.260000	466.00	-0.30	-0.07
1.32	7.25	6.75	7.50	6.75	1.50	1.00	0.25	0.25	0.00	0.00	0.00	0.00	0.00	1.25	0.00	0.00	-0.281250	0.118164	0.930176	-6.860000	11.480000	-0.210000	340.00	-0.29	-0.04	9.50	9.00	8.00	9.50	1.75	3.75	0.50	0.75	0.00	0.00	0.00	0.00	0.25	0.00	0.00	0.00	-0.200684	0.145996	0.944336	-11.270000	5.040000	1.680000	456.00	-0.30	-0.07
1.33	7.25	7.00	7.50	7.25	1.50	1.25	0.25	0.25	0.00	0.00	0.00	0.00	0.00	0.75	0.00	0.00	-0.279785	0.116699	0.913086	-7.840000	12.180000	-0.280000	347.00	-0.30	-0.04	9.50	9.00	7.75	9.75	2.00	3.75	0.50	1.00	0.00	0.00	0.00	0.00	0.25	0.00	0.00	0.00	-0.195312	0.134766	0.953613	-12.600000	6.370000	1.750000	462.00	-0.29	-0.07
1.34	7.75	7.25	7.75	7.25	1.75	1.25	0.25	0.25	0.00	0.00	0.00	0.00	0.00	1.00	0.00	0.00	-0.272461	0.116699	0.902832	-9.730000	13.930000	-0.140000	362.00	-0.29	-0.04	9.00	8.75	7.50	9.50	2.00	3.50	0.50	1.00	0.00	0.00	0.00	0.00	0.25	0.00	0.00	0.00	-0.200195	0.136719	0.942871	-13.510000	7.420000	1.610000	447.00	-0.29	-0.07
1.35	7.75	7.50	7.75	8.00	1.50	1.50	0.25	0.25	0.00	0.00	0.00	0.00	0.25	1.00	0.00	0.00	-0.288574	0.112793	0.920898	-12.390000	15.470000	-0.210000	375.00	-0.29	-0.05	8.75	8.50	7.50	9.50	1.75	3.75	0.50	0.75	0.00	0.00	0.00	0.00	0.25	0.00	0.00	0.00	-0.192383	0.123047	0.932129	-15.330000	10.080000	1.960000	438.00	-0.29	-0.07
1.36	8.00	7.75	8.00	8.00	1.75	1.50	0.25	0.50	0.00	0.00	0.00	0.00	0.25	0.75	0.00	0.00	-0.292480	0.110840	0.918457	-14.560000	16.030001	-0.140000	387.00	-0.29	-0.05	8.50	8.25	7.25	9.25	1.75	4.00	0.50	1.25	0.00	0.00	0.00	0.00	0.25	0.00	0.00	0.00	-0.191895	0.134766	0.936523	-20.299999	16.730000	-0.070000	438.00	-0.29	-0.08
1.37	8.50	8.00	8.25	8.25	1.75	1.75	0.25	0.50	0.00	0.00	0.00	0.00	0.25	0.75	0.00	0.00	-0.282715	0.113770	0.905762	-17.080000	17.150000	0.000000	402.00	-0.30	-0.05	7.75	8.00	7.00	9.00	1.75	3.50	0.50	1.25	0.00	0.00	0.00	0.00	0.25	0.00	0.00	0.00	-0.191895	0.134766	0.936523	-20.299999	16.730000	-0.070000	417.00	-0.29	-0.08
1.38	9.00	8.50	8.50	8.75	2.00	2.25	0.25	0.75	0.00	0.00	0.00	0.00	0.00	1.00	0.00	0.00	-0.294922	0.105957	0.943848	-19.530001	18.340000	0.000000	432.00	-0.29	-0.05	7.00	7.25	6.50	8.50	1.75	3.50	0.75	1.50	0.00	0.00	0.00	0.00	0.50	0.00	0.00	0.00	-0.190430	0.123047	0.952148	-23.730000	18.200001	-1.190000	401.00	-0.27	-0.09
1.39	9.25	9.00	8.75	9.00	2.25	2.25	0.25	0.50	0.00	0.00	0.00	0.00	0.25	1.00	0.00	0.00	-0.307617	0.087402	0.945312	-20.440001	16.170000	-0.070000	446.00	-0.29	-0.05	6.25	7.00	5.75	8.00	1.75	3.25	0.75	1.50	0.00	0.00	0.00	0.00	1.00	0.00	0.00	0.00	-0.202637	0.120117	0.986816	-26.809999	17.710001	-2.730000	378.00	-0.27	-0.10
1.40	9.75	9.50	9.25	9.50	2.25	2.50	0.25	0.75	0.25	0.00	0.00	0.00	0.25	0.75	0.00	0.00	-0.302246	0.093262	0.948242	-19.809999	13.510000	-0.280000	475.00	-0.29	-0.06	5.25	6.00	5.00	7.50	1.50	3.00	0.75	1.50	0.00	0.25	0.00	0.00	0.75	0.00	0.00	0.00	-0.219727	0.107910	0.979980	-21.840000	12.670000	-4.340000	340.00	-0.26	-0.10
1.41	10.75	10.25	9.50	10.00	2.75	3.00	0.25	0.75	0.00	0.25	0.00	0.00	0.25	1.00	0.00	0.00	-0.307617	0.084473	0.959473	-17.430000	10.080000	-0.140000	513.00	-0.29	-0.06	4.50	5.25	4.00	6.75	1.50	2.50	0.75	1.75	0.00	0.25	0.00	0.00	1.00	0.00	0.00	0.25	-0.213867	0.108887	1.003906	-20.370001	12.600000	-5.460000	308.00	-0.24	-0.11
1.42	11.50	11.00	10.25	10.75	3.00	3.25	0.50	1.00	0.00	0.00	0.00	0.00	0.25	1.25	0.00	0.00	-0.307129	0.083984	0.935547	-14.280000	7.560000	-0.070000	556.00	-0.29	-0.06	3.50	4.50	3.25	5.75	1.25	2.00	0.75	1.75	0.00	0.50	0.25	0.00	1.25	0.00	0.00	0.50	-0.226562	0.114258	0.978027	-18.340000	11.340000	-7.140000	272.00	-0.22	-0.12
1.43	12.75	11.50	11.00	11.50	3.50	3.50	0.50	1.00	0.00	0.00	0.00	0.00	0.50	1.25	0.00	0.00	-0.303223	0.080566	0.940918	-11.830000	6.090000	0.210000	601.00	-0.28	-0.05	2.50	3.75	2.25	4.75	1.00	1.00	0.75	1.50	0.00	0.50	0.00	0.00	1.50	0.00	0.00	0.25	-0.212891	0.082520	0.985840	-17.290001	11.830000	-8.680000	213.00	-0.21	-0.13
1.44	13.50	12.75	11.50	12.25	4.00	3.75	0.50	1.00	0.25	0.00	0.00	0.00	0.50	1.25	0.00	0.00	-0.285645	0.091797	0.935059	-9.450000	4.830000	0.140000	646.00	-0.28	-0.05	2.25	3.00	1.75	4.00	0.50	0.75	0.75	1.25	0.00	0.75	0.00	0.00	1.75	0.25	0.25	0.25	-0.155273	0.108398	1.083008	-13.580000	21.490000	-9.520000	187.00	-0.18	-0.13
1.45	14.75	13.75	12.00	12.75	4.50	4.75	0.50	1.00	0.00	0.25	0.00	0.00	0.75	1.00	0.00	0.00	-0.295410	0.083496	0.939941	-7.700000	3.710000	-0.070000	694.00	-0.29	-0.06	1.75	2.00	1.00	3.75	0.50	0.50	0.50	1.00	0.00	0.50	0.25	0.25	1.50	0.00	0.00	0.50	-0.177246	0.124023	1.104004	2.100000	52.150002	-13.090000	149.00	-0.17	-0.15
1.46	15.00	14.50	12.50	13.75	5.00	5.25	0.50	1.25	0.25	0.25	0.00	0.25	0.75	1.50	0.00	0.00	-0.297852	0.088379	0.937988	-5.950000	3.080000	-0.350000	745.00	-0.28	-0.06	1.25	2.00	1.00	2.50	0.50	0.25	0.50	0.75	0.25	0.75	0.25	0.00	1.50	0.00	0.00	0.25	-0.222168	0.126465	1.158691	13.370000	94.779999	-17.500000	125.00	-0.15	-0.12
1.47	15.75	14.75	13.00	14.25	5.25	5.75	0.50	1.25	0.25	0.50	0.25	0.50	0.75	1.25	0.00	0.00	-0.300781	0.085449	0.936035	-3.920000	2.730000	-0.490000	780.00	-0.27	-0.06	1.00	1.25	1.25	2.50	0.25	0.25	0.50	0.50	0.25	0.50	0.00	0.00	1.50	0.00	0.00	0.25	-0.237305	0.182617	1.181152	24.710001	139.160004	-21.910000	107.00	-0.15	-0.12
1.48	16.25	15.00	13.25	14.75	5.50	6.00	0.50	1.25	0.50	0.25	0.25	0.50	0.75	1.50	0.00	0.00	-0.293457	0.078613	0.937500	-2.450000	3.010000	-0.700000	804.00	-0.27	-0.06	1.00	1.25	0.75	2.50	0.25	0.00	0.50	0.25	0.25	0.00	0.00	0.00	1.25	0.25	0.00	0.25	-0.262695	0.203125	1.273926	16.730000	172.410004	-28.280001	89.00	-0.17	-0.11
1.49	17.00	15.75	13.75	15.00	5.75	6.50	0.50	1.50	0.50	0.25	0.25	0.50	0.75	1.25	0.00	0.00	-0.298828	0.086426	0.933594	-1.680000	3.570000	-0.770000	837.00	-0.27	-0.06	1.00	1.00	0.25	2.00	0.25	0.00	0.50	0.25	0.00	0.25	0.00	0.00	0.75	0.00	0.00	0.25	-0.278809	0.213867	1.338867	7.980000	196.979996	-34.790001	69.00	-0.18	-0.11
1.50	16.75	16.25	13.50	15.25	5.75	6.75	0.75	1.50	0.50	0.25	0.25	0.50	1.00	1.25	0.00	0.00	-0.289551	0.084473	0.943359	-1.050000	4.060000	-0.910000	848.00	-0.27	-0.06	1.00	1.00	0.00	1.50	0.25	0.00	0.25	0.00	0.00	0.00	0.00	0.00	0.50	0.00	0.00	0.00	-0.373535	0.263184	1.320312	1.540000	209.720001	-42.070000	47.00	0.00	0.00
1.51	17.00	16.25	13.75	15.25	6.25	7.00	0.50	1.50	0.25	0.25	0.25	0.50	1.00	1.25	0.00	0.00	-0.292969	0.089844	0.935059	-0.560000	4.480000	-1.050000	855.00	-0.27	-0.07	0.75	0.50	0.50	1.50	0.00	0.00	0.25	0.00	0.00	0.00	0.00	0.00	0.00	0.00	0.00	0.00	-0.282715	0.268066	1.253906	5.180000	210.279999	-49.910000	38.00	0.00	0.00
1.52	17.75	16.75	13.75	16.00	6.00	7.25	0.50	1.75	0.75	0.25	0.25	0.50	1.25	1.50	0.00	0.00	-0.283691	0.087891	0.937012	-0.280000	5.180000	-1.330000	890.00	-0.27	-0.07	0.75	0.75	0.25	0.75	0.00	0.00	0.25	0.00	0.00	0.00	0.00	0.00	0.00	0.00	0.00	0.00	-0.490234	0.232422	1.273926	0.070000	205.449997	-55.090000	29.00	0.00	0.00
1.53	17.00	16.50	13.50	15.50	6.25	7.50	0.75	1.75	0.50	0.25	0.25	0.50	1.25	1.50	0.00	0.00	-0.274902	0.050293	0.934082	-0.140000	5.740000	-1.610000	877.00	-0.26	-0.07	0.50	0.75	0.25	1.00	0.00	0.00	0.25	0.00	0.00	0.00	0.00	0.00	0.00	0.00	0.00	0.00	-0.100586	0.242188	1.516113	-8.820000	191.940002	-58.029999	30.00	0.00	0.00
1.54	16.75	16.00	13.50	15.25	6.25	7.50	0.75	1.75	0.50	0.25	0.25	0.50	1.25	1.50	0.00	0.00	-0.293457	0.088867	0.936035	-0.000000	6.090000	-1.680000	867.00	-0.26	-0.07	0.50	0.75	0.25	1.25	0.00	0.00	0.25	0.00	0.00	0.00	0.00	0.00	0.00	0.00	0.00	0.00	0.482910	0.344238	1.548828	-30.030001	167.160004	-55.090000	32.00	0.00	0.00
1.55	16.75	15.75	13.25	15.25	6.25	7.75	0.75	1.75	0.50	0.50	0.25	0.75	1.50	1.50	0.00	0.00	-0.287598	0.086914	0.926758	0.350000	6.370000	-1.610000	872.00	-0.26	-0.07	0.75	1.00	0.25	0.50	0.00	0.00	0.25	0.00	0.00	0.00	0.00	0.00	0.00	0.00	0.00	0.00	0.950195	0.627930	1.545410	-50.470001	133.559998	-38.570000	29.00	0.00	0.00
1.56	16.25	15.50	13.00	15.00	6.25	7.75	0.75	2.00	0.50	0.50	0.50	0.75	1.50	1.50	0.00	0.00	-0.293945	0.090332	0.928223	0.490000	6.580000	-1.680000	866.00	-0.25	-0.07	0.75	0.75	0.50	0.00	0.25	0.00	0.25	0.00	0.00	0.00	0.00	0.00	0.00	0.00	0.00	0.00	1.004395	0.658691	1.862305	-56.070000	87.849998	-11.900000	27.00	0.00	0.00
1.57	15.25	15.00	13.00	14.75	6.25	7.75	0.75	2.00	0.75	0.25	0.50	0.75	1.50	1.50	0.00	0.00	-0.288086	0.096680	0.931641	0.210000	6.790000	-1.750000	849.00	-0.25	-0.07	0.50	1.00	0.25	0.75	0.00	0.00	0.25	0.00	0.00	0.00	0.00	0.00	0.00	0.00	0.00	0.00	1.004883	0.566406	1.496582	-44.730000	38.290001	10.850000	29.00	0.00	0.00
1.58	15.25	14.75	12.75	14.50	6.25	7.75	0.75	2.25	0.50	0.50	0.50	1.00	1.75	1.75	0.00	0.00	-0.291504	0.090332	0.928223	-0.280000	7.000000	-1.960000	851.00	-0.25	-0.08	0.50	0.75	0.25	0.50	0.00	0.00	0.25	0.00	0.00	0.00	0.00	0.00	0.00	0.00	0.00	0.00	0.890137	0.243164	0.983887	-26.110001	5.670000	22.960001	24.00	0.00	0.00
1.59	15.00	14.25	12.50	14.50	6.25	7.75	0.75	2.25	0.50	0.75	0.75	1.00	1.75	2.00	0.00	0.25	-0.288574	0.089355	0.926270	-1.050000	7.280000	-2.450000	850.00	-0.24	-0.08	0.75	0.75	0.00	1.25	0.00	0.00	0.25	0.00	0.00	0.00	0.00	0.00	0.00	0.00	0.00	0.00	0.890137	0.243164	0.983887	-14.980000	-10.290000	27.160000	32.00	0.00	0.00
1.60	14.25	14.00	12.00	14.00	6.25	7.75	0.75	2.25	0.75	0.50	0.25	1.00	2.00	1.75	0.00	0.00	-0.286621	0.096680	0.930664	-1.890000	7.000000	-2.870000	823.00	-0.24	-0.08	0.50	1.00	0.25	0.50	0.00	0.00	0.25	0.00	0.00	0.00	0.00	0.00	0.00	0.00	0.00	0.00	0.822754	0.162109	1.021973	-24.500000	-33.040001	28.700001	26.00	0.00	0.00
1.61	14.00	13.25	12.00	13.75	6.25	8.00	0.75	2.25	1.00	0.50	0.50	1.25	2.00	1.75	0.00	0.25	-0.288086	0.092285	0.930176	-2.520000	6.790000	-3.080000	823.00	-0.23	-0.08	0.50	0.75	0.00	0.25	0.00	0.00	0.25	0.00	0.00	0.00	0.00	0.00	0.00	0.00	0.00	0.00	0.737305	0.154297	1.031250	-30.799999	-46.340000	28.280001	19.00	0.00	0.00
1.62	13.75	13.00	12.00	13.25	6.25	7.75	0.75	2.50	1.00	0.75	0.50	1.00	2.00	1.75	0.00	0.00	-0.327148	0.088867	0.925293	-2.870000	6.300000	-3.220000	812.00	-0.23	-0.08	0.50	1.00	0.00	0.75	0.00	0.00	0.25	0.00	0.00	0.00	0.00	0.00	0.00	0.00	0.00	0.00	0.663574	0.139160	1.025879	-35.490002	-58.170002	28.840000	26.00	0.00	0.00
1.63	13.00	12.75	11.50	13.00	6.25	8.00	0.75	2.50	1.25	0.50	1.00	1.00	2.25	2.00	0.00	0.25	-0.296387	0.096680	0.933105	-3.290000	5.880000	-3.430000	808.00	-0.22	-0.08	0.50	1.00	0.00	0.75	0.00	0.00	0.25	0.00	0.00	0.00	0.00	0.00	0.00	0.00	0.00	0.00	0.576172	0.159180	1.022949	-41.790001	-68.669998	30.520000	26.00	0.00	0.00
1.64	12.75	12.25	11.25	12.75	6.25	8.00	0.75	2.75	0.75	0.75	0.75	1.25	2.25	2.25	0.00	0.25	-0.294922	0.078125	0.936035	-3.430000	6.020000	-3.850000	798.00	-0.22	-0.08	0.25	0.50	0.00	0.50	0.00	0.00	0.25	0.00	0.00	0.00	0.00	0.00	0.00	0.00	0.00	0.00	0.490234	0.189941	1.041992	-48.230000	-78.260002	32.619999	16.00	0.00	0.00
1.65	12.00	11.75	11.25	12.50	6.50	8.00	0.75	2.75	1.25	1.25	0.75	1.50	2.50	2.00	0.00	0.25	-0.294922	0.088867	0.933594	-3.360000	6.020000	-3.990000	800.00	-0.21	-0.08	0.50	0.75	0.50	0.00	0.00	0.00	0.25	0.00	0.00	0.00	0.00	0.00	0.00	0.00	0.00	0.00	0.394531	0.236328	1.078125	-51.520000	-87.989998	34.930000	21.00	0.00	0.00
1.66	11.75	11.50	11.00	12.25	6.50	8.25	0.75	3.25	1.25	1.00	1.00	1.75	2.75	2.25	0.00	0.25	-0.298340	0.086914	0.933594	-3.150000	5.810000	-4.060000	807.00	-0.20	-0.09	0.50	0.75	0.00	0.00	0.00	0.00	0.25	0.00	0.00	0.00	0.00	0.00	0.00	0.00	0.00	0.00	0.292480	0.276855	1.106445	-49.840000	-98.070000	37.170002	16.00	0.00	0.00
1.67	11.50	11.00	11.00	12.00	6.50	8.00	0.75	3.00	1.50	0.75	0.75	1.75	2.75	2.25	0.00	0.25	-0.299316	0.079590	0.934082	-2.940000	5.740000	-4.060000	788.00	-0.20	-0.08	0.50	0.75	0.00	0.50	0.00	0.00	0.25	0.00	0.00	0.00	0.00	0.00	0.00	0.00	0.00	0.00	0.187500	0.322266	1.154785	-43.750000	-108.430000	39.060001	21.00	0.00	0.00
1.68	11.00	10.75	10.75	11.75	6.50	8.00	1.00	3.50	1.25	0.75	1.25	1.75	3.25	2.50	0.00	0.25	-0.292969	0.088867	0.926270	-2.660000	5.740000	-4.060000	795.00	-0.19	-0.09	0.50	0.25	0.00	0.50	0.00	0.00	0.25	0.00	0.00	0.00	0.00	0.00	0.00	0.00	0.00	0.00	0.085938	0.352051	1.212402	-35.000000	-119.070000	41.160000	17.00	0.00	0.00
1.69	10.75	10.50	10.50	11.75	6.75	8.00	0.75	3.75	1.50	1.00	1.25	2.00	3.25	2.50	0.00	0.50	-0.288574	0.084473	0.927734	-2.800000	5.810000	-4.130000	800.00	-0.18	-0.09	0.50	0.75	0.00	0.50	0.00	0.00	0.25	0.00	0.00	0.00	0.00	0.00	0.00	0.00	0.00	0.00	-0.009766	0.365723	1.256348	-24.570000	-129.850006	43.680000	21.00	0.00	0.00
1.70	10.25	10.00	10.50	11.25	6.75	8.00	1.00	3.75	1.50	1.00	1.25	2.25	3.50	2.50	0.00	0.50	-0.292969	0.087402	0.932617	-2.590000	5.950000	-3.990000	793.00	-0.18	-0.09	0.50	0.75	0.00	0.25	0.00	0.00	0.25	0.00	0.00	0.00	0.00	0.00	0.00	0.00	0.00	0.00	-0.101074	0.379395	1.305664	-13.020000	-140.139999	46.900002	19.00	0.00	0.00
1.71	9.75	9.50	10.25	11.00	6.75	8.00	1.00	4.00	1.50	1.00	1.25	2.00	3.50	3.00	0.00	0.50	-0.290039	0.086426	0.931152	-2.520000	5.950000	-3.920000	783.00	-0.17	-0.09	0.50	0.50	0.25	0.75	0.00	0.00	0.25	0.00	0.00	0.00	0.00	0.00	0.00	0.00	0.00	0.00	-0.187500	0.353027	1.342285	-0.630000	-150.080002	51.170002	25.00	0.00	0.00
1.72	9.50	9.25	10.00	10.75	7.00	7.75	1.00	4.25	1.75	1.25	1.50	2.50	4.00	3.00	0.00	0.50	-0.287598	0.092285	0.921875	-2.520000	6.020000	-3.920000	795.00	-0.16	-0.09	0.50	0.25	0.00	0.25	0.00	0.00	0.25	0.00	0.00	0.00	0.00	0.00	0.00	0.00	0.00	0.00	-0.256836	0.326172	1.384766	10.850000	-159.600006	56.279999	14.00	0.00	0.00
1.73	9.00	8.50	10.00	10.00	7.00	7.75	1.00	4.50	2.00	1.50	1.75	2.50	4.50	3.75	0.00	0.75	-0.294922	0.089355	0.926270	-2.520000	6.090000	-4.340000	799.00	-0.14	-0.09	0.50	0.75	0.00	0.25	0.00	0.00	0.25	0.00	0.00	0.00	0.00	0.00	0.00	0.00	0.00	0.00	-0.330566	0.279785	1.394043	20.370001	-167.860001	61.950001	19.00	0.00	0.00
1.74	9.00	8.75	9.75	9.75	7.25	8.00	1.00	5.00	2.25	1.25	1.75	3.25	5.00	3.50	0.00	0.75	-0.293945	0.084961	0.919922	-2.310000	6.370000	-4.270000	820.00	-0.14	-0.10	0.50	0.75	0.00	0.50	0.00	0.00	0.25	0.00	0.00	0.00	0.00	0.00	0.00	0.00	0.00	0.00	-0.386230	0.210449	1.399902	27.440001	-174.649994	67.340004	21.00	0.00	0.00
1.75	8.50	8.25	9.50	9.50	7.25	7.75	1.25	5.25	2.25	1.75	2.25	3.25	5.25	4.00	0.00	1.00	-0.293457	0.088379	0.928711	-1.820000	6.720000	-4.200000	827.00	-0.12	-0.10	0.50	0.75	0.00	0.25	0.00	0.00	0.25	0.00	0.00	0.00	0.00	0.00	0.00	0.00	0.00	0.00	-0.439453	0.130859	1.388184	32.900002	-179.550003	71.540001	19.00	0.00	0.00
1.76	8.25	8.00	9.25	9.25	7.25	7.75	1.25	5.50	2.75	1.75	2.25	3.75	5.50	4.50	0.25	1.00	-0.297363	0.082031	0.929688	-1.400000	7.000000	-4.130000	842.00	-0.11	-0.10	0.50	0.50	0.25	0.50	0.00	0.00	0.25	0.00	0.00	0.00	0.00	0.00	0.00	0.00	0.00	0.00	-0.488770	0.048340	1.377930	37.520000	-182.000000	73.010002	22.00	0.00	0.00
1.77	7.75	7.25	9.25	9.00	7.50	7.75	1.25	5.50	3.25	2.50	2.50	4.50	6.25	4.75	0.50	1.00	-0.299805	0.083496	0.934570	-0.700000	7.700000	-4.060000	866.00	-0.09	-0.10	0.50	0.75	0.25	1.00	0.00	0.00	0.25	0.00	0.00	0.00	0.00	0.00	0.00	0.00	0.00	0.00	-0.552246	-0.049316	1.413574	42.910000	-182.419998	70.139999	30.00	0.00	0.00
1.78	7.25	7.00	9.00	8.75	7.50	7.75	1.50	5.75	3.50	2.25	3.00	4.50	6.50	5.00	0.25	1.25	-0.289551	0.082520	0.926270	0.350000	8.330000	-3.640000	869.00	-0.08	-0.10	0.50	0.75	0.00	0.50	0.00	0.00	0.25	0.00	0.00	0.00	0.00	0.00	0.00	0.00	0.00	0.00	-0.624023	-0.104492	1.433105	47.389999	-182.350006	62.650002	21.00	0.00	0.00
1.79	6.75	6.75	8.50	8.25	7.75	7.50	1.50	6.00	3.75	2.50	3.50	5.50	6.75	5.25	0.25	1.25	-0.290039	0.092285	0.928223	0.700000	9.380000	-3.710000	881.00	-0.06	-0.10	0.25	0.25	0.00	0.25	0.00	0.00	0.25	0.00	0.00	0.00	0.00	0.00	0.00	0.00	0.00	0.00	-0.761230	-0.074707	1.391602	45.779999	-179.970001	41.720001	11.00	0.00	0.00
1.80	6.25	6.50	8.50	8.00	7.75	7.50	1.50	6.25	4.00	2.75	3.75	6.00	7.25	5.50	0.50	1.50	-0.288086	0.085938	0.927246	0.980000	10.850000	-4.130000	898.00	-0.05	-0.10	0.50	0.75	0.25	0.00	0.00	0.00	0.25	0.00	0.00	0.00	0.00	0.00	0.00	0.00	0.00	0.00	-0.817383	-0.026367	1.341309	46.340000	-177.520004	32.340000	19.00	0.00	0.00
1.81	5.75	6.25	8.00	7.50	7.75	7.50	1.50	6.50	4.50	3.25	5.00	7.25	7.75	6.75	0.25	1.75	-0.283203	0.098145	0.929688	1.470000	12.040000	-4.480000	935.00	-0.03	-0.11	0.25	0.75	0.00	0.50	0.00	0.00	0.25	0.00	0.00	0.00	0.00	0.00	0.00	0.00	0.00	0.00	-0.878906	0.017090	1.276367	52.500000	-174.930008	24.639999	19.00	0.00	0.00
1.82	5.25	5.50	7.50	6.75	7.50	7.25	1.75	6.50	5.00	3.50	6.25	7.75	8.25	7.50	0.50	2.00	-0.304199	0.089355	0.936035	2.170000	13.370000	-4.900000	950.00	-0.01	-0.10	0.25	1.00	0.00	0.00	0.00	0.00	0.25	0.00	0.00	0.00	0.00	0.00	0.00	0.00	0.00	0.00	-0.935547	0.039062	1.191406	63.349998	-171.570007	17.290001	16.00	0.00	0.00
1.83	4.75	5.25	7.00	6.25	7.25	6.75	1.75	6.75	5.50	4.00	7.50	8.25	8.50	7.75	0.50	2.00	-0.292969	0.083008	0.934570	2.800000	14.840000	-5.390000	962.00	0.01	-0.10	0.25	0.50	0.00	0.50	0.00	0.00	0.25	0.00	0.00	0.00	0.00	0.00	0.00	0.00	0.00	0.00	-0.989258	0.042969	1.065918	76.580002	-166.949997	9.520000	16.00	0.00	0.00
1.84	4.25	4.75	6.50	5.50	7.00	6.50	2.00	6.75	5.75	5.00	8.00	9.00	9.00	8.50	0.75	2.50	-0.305664	0.081055	0.938477	3.360000	16.940001	-5.460000	979.00	0.03	-0.10	0.50	0.50	0.00	0.25	0.00	0.00	0.25	0.00	0.00	0.00	0.00	0.00	0.00	0.00	0.00	0.00	-1.035645	0.022949	0.919434	89.250000	-159.529999	0.630000	16.00	0.00	0.00
1.85	3.50	4.50	5.75	5.25	6.25	6.00	2.00	7.00	6.75	6.25	8.75	9.50	9.50	9.00	1.00	3.00	-0.287598	0.083984	0.938965	4.550000	18.200001	-5.880000	1001.00	0.05	-0.10	0.00	0.50	0.00	0.25	0.00	0.00	0.25	0.00	0.00	0.00	0.00	0.00	0.00	0.00	0.00	0.00	-1.083008	-0.030762	0.791504	98.629997	-148.330002	-9.100000	11.00	0.00	0.00
1.86	3.00	4.00	5.00	5.00	5.75	5.50	2.00	7.00	7.75	7.25	9.50	10.25	10.00	9.50	0.75	3.50	-0.300293	0.083496	0.938965	5.740000	19.950001	-6.230000	1017.00	0.07	-0.10	0.25	0.25	0.00	0.25	0.00	0.00	0.25	0.00	0.00	0.00	0.00	0.00	0.00	0.00	0.00	0.00	-1.104980	-0.122070	0.698730	100.660004	-136.220001	-19.600000	11.00	0.00	0.00
1.87	2.75	3.00	4.25	4.25	5.00	5.00	2.00	7.00	8.00	7.50	10.00	11.00	10.50	10.00	1.00	3.75	-0.302734	0.093750	0.933594	6.860000	22.120001	-6.510000	1007.00	0.09	-0.10	0.25	0.50	0.00	0.00	0.00	0.00	0.25	0.00	0.00	0.00	0.00	0.00	0.00	0.00	0.00	0.00	-1.170410	-0.168457	0.582520	94.919998	-124.180000	-30.240000	11.00	0.00	0.00
1.88	2.25	3.00	3.50	3.75	3.75	4.00	1.75	6.75	8.50	8.00	10.75	11.75	11.25	10.25	1.25	4.25	-0.291504	0.089844	0.962402	9.310000	25.059999	-6.720000	997.00	0.11	-0.10	0.25	0.75	0.00	0.50	0.00	0.00	0.25	0.00	0.00	0.00	0.00	0.00	0.00	0.00	0.00	0.00	-1.248047	-0.182129	0.460938	87.150002	-109.199997	-40.950001	19.00	0.00	0.00
1.89	2.25	2.50	2.75	3.50	3.00	3.50	1.75	6.50	8.75	8.50	11.50	12.25	11.50	11.00	1.25	5.00	-0.306641	0.095703	0.958008	12.390000	29.960001	-6.370000	998.00	0.13	-0.10	0.25	0.00	0.00	0.50	0.00	0.00	0.25	0.00	0.00	0.00	0.00	0.00	0.00	0.00	0.00	0.00	-1.290527	-0.197266	0.316406	79.590004	-90.300003	-49.630001	12.00	0.00	0.00
1.90	1.50	2.25	2.25	2.75	2.25	2.75	1.50	6.50	9.00	8.75	12.25	13.00	12.00	11.25	1.50	5.00	-0.303223	0.052734	1.020508	17.570000	42.560001	-6.160000	985.00	0.15	-0.11	0.25	0.25	0.00	0.00	0.00	0.00	0.25	0.00	0.00	0.00	0.00	0.00	0.00	0.00	0.00	0.00	-1.305664	-0.198242	0.210938	69.160004	-67.900002	-55.439999	9.00	0.00	0.00
1.91	1.25	2.00	2.00	2.75	2.00	2.25	1.25	6.00	9.25	9.25	12.75	13.75	12.00	11.75	1.25	5.50	-0.328125	0.113770	0.946777	25.340000	59.639999	-5.250000	984.00	0.16	-0.10	0.00	0.50	0.00	0.50	0.00	0.00	0.25	0.00	0.00	0.00	0.00	0.00	0.00	0.00	0.00	0.00	-1.313965	-0.171875	0.145996	54.529999	-43.189999	-58.450001	14.00	0.00	0.00
1.92	1.50	1.75	1.75	2.75	1.50	1.75	1.25	5.75	9.75	9.50	13.25	14.00	12.50	12.25	1.50	5.50	-0.329590	0.099609	0.979004	33.950001	74.550003	-4.830000	995.00	0.17	-0.10	0.00	0.25	0.00	0.00	0.00	0.00	0.25	0.00	0.00	0.00	0.00	0.00	0.00	0.00	0.00	0.00	-1.303711	-0.120605	0.120605	39.270000	-16.309999	-58.939999	6.00	0.00	0.00
1.93	1.00	1.75	1.25	2.50	1.25	1.50	1.00	5.25	9.75	9.75	14.00	14.75	12.50	12.50	1.75	5.75	-0.369141	0.113770	0.977539	42.070000	88.690002	-4.830000	989.00	0.18	-0.10	0.25	0.25	0.00	0.50	0.00	0.00	0.25	0.00	0.00	0.00	0.00	0.00	0.00	0.00	0.00	0.00	-1.269043	-0.067871	0.157715	26.250000	10.640000	-57.470001	14.00	0.00	0.00
1.94	1.25	1.25	1.00	2.50	1.00	1.00	0.75	5.00	9.75	10.00	14.50	15.00	12.75	12.75	1.75	6.25	-0.402832	0.116211	0.973145	59.709999	114.099998	-2.450000	986.00	0.19	-0.10	0.25	0.25	0.00	0.50	0.00	0.00	0.25	0.00	0.00	0.00	0.00	0.00	0.00	0.00	0.00	0.00	-1.230957	-0.006836	0.224121	16.730000	35.840000	-54.599998	14.00	0.00	0.00
1.95	0.75	1.00	1.00	2.00	0.50	1.00	0.50	4.50	9.75	10.25	15.00	15.75	13.00	13.25	2.00	6.50	-0.397461	0.135254	1.000488	64.680000	127.750000	-1.960000	982.00	0.20	-0.10	0.25	0.75	0.00	0.75	0.00	0.00	0.25	0.00	0.00	0.00	0.00	0.00	0.00	0.00	0.00	0.00	-1.197266	0.048828	0.310547	10.220000	58.869999	-50.400002	22.00	0.00	0.00
1.96	1.00	1.25	0.75	1.75	0.50	0.50	0.50	4.25	9.75	10.25	15.25	16.25	13.25	13.50	2.00	6.75	-0.448242	0.149902	0.964355	68.320000	143.289993	-1.750000	986.00	0.20	-0.10	0.75	1.00	0.25	0.50	0.00	0.00	0.25	0.00	0.00	0.00	0.00	0.00	0.00	0.00	0.00	0.00	-1.286133	0.065430	0.400879	5.810000	79.309998	-44.029999	29.00	0.00	0.00
1.97	0.75	1.00	0.50	1.25	0.25	0.75	0.25	3.75	9.75	10.00	15.25	16.50	13.00	13.50	2.25	7.00	-0.448242	0.161621	0.978516	70.840004	158.270004	-1.960000	963.00	0.21	-0.10	1.00	1.25	0.25	1.50	0.00	0.00	0.25	0.00	0.00	0.00	0.00	0.00	0.00	0.00	0.00	0.00	0.776367	-0.301758	0.234863	-7.350000	176.399994	-54.040001	45.00	0.00	0.00
1.98	1.00	1.00	0.50	1.75	0.50	0.25	0.25	3.50	9.75	10.25	15.50	16.75	13.00	13.50	2.25	7.00	-0.473633	0.163574	0.945801	72.169998	175.770004	-5.950000	973.00	0.21	-0.10	1.50	2.25	0.75	1.75	0.00	0.00	0.25	0.00	0.00	0.00	0.00	0.00	0.00	0.00	0.00	0.00	0.212891	0.246582	1.442871	-45.779999	168.350006	-78.260002	68.00	-0.33	-0.07
1.99	0.75	0.50	0.50	1.25	0.25	0.50	0.00	3.00	9.25	10.00	15.50	16.75	13.00	13.25	2.50	7.25	-0.517090	0.179688	0.964355	73.989998	187.039993	-3.640000	941.00	0.22	-0.11	1.75	2.50	1.00	2.50	0.00	0.00	0.25	0.00	0.00	0.00	0.00	0.00	0.00	0.00	0.00	0.00	-0.390137	0.392578	1.168945	-125.580002	167.720001	-121.800003	83.00	-0.33	-0.07
2.00	0.75	0.75	0.25	1.25	0.25	0.25	0.00	2.75	9.00	9.75	15.50	17.00	12.75	13.25	2.50	7.25	-0.532715	0.191895	0.993652	76.860001	199.500000	-2.170000	929.00	0.22	-0.11	2.00	3.25	1.25	2.75	0.00	0.00	0.25	0.00	0.00	0.00	0.00	0.00	0.00	0.00	0.00	0.00	-0.519043	0.697754	1.954102	-132.229996	160.860001	-112.980003	99.00	-0.33	-0.07
2.01	0.50	0.25	0.00	1.25	0.00	0.00	0.00	2.75	8.75	9.75	15.25	16.75	12.50	13.00	2.50	7.50	-0.602539	0.178223	1.015625	77.419998	210.350006	-0.840000	902.00	0.23	-0.11	2.50	4.75	1.75	3.75	0.00	0.00	0.25	0.00	0.00	0.00	0.00	0.00	0.00	0.00	0.00	0.00	-0.644043	0.725586	1.734375	-116.970001	130.759995	-81.410004	134.00	-0.34	-0.08
2.02	0.50	0.25	0.00	0.50	0.00	0.00	0.00	2.25	8.00	9.50	15.25	16.75	12.50	12.75	2.50	7.50	-0.591797	0.194824	1.011230	86.660004	224.839996	1.750000	872.00	0.24	-0.11	3.25	5.00	1.75	5.00	0.25	0.00	0.25	0.00	0.00	0.00	0.00	0.00	0.00	0.00	0.00	0.00	-0.458496	0.678223	1.481934	-100.519997	119.349998	-45.290001	161.00	-0.33	-0.08
2.03	0.25	0.50	0.00	0.50	0.00	0.00	0.00	2.00	7.75	9.00	14.75	16.25	12.00	12.00	2.50	7.25	-0.572754	0.258301	1.002930	91.000000	238.210007	2.800000	836.00	0.24	-0.11	4.50	5.75	2.75	5.75	0.25	0.75	0.25	0.25	0.00	0.00	0.00	0.00	0.00	0.00	0.00	0.00	-0.387695	0.384766	1.382812	-95.550003	110.180000	-15.400000	212.00	-0.32	-0.08
2.04	0.00	0.25	0.00	0.75	0.00	0.00	0.00	2.00	7.50	8.50	14.25	15.75	11.75	11.00	2.00	7.00	-0.692871	0.324219	1.029785	99.680000	255.710007	1.820000	798.00	0.24	-0.12	6.00	6.25	3.25	6.50	0.25	1.25	0.50	0.00	0.00	0.00	0.00	0.00	0.00	0.00	0.00	0.00	-0.387207	0.069824	1.380371	-91.840004	100.379997	0.350000	251.00	-0.32	-0.07
2.05	0.00	0.00	0.00	0.25	0.00	0.00	0.00	2.00	6.25	8.00	13.75	15.25	11.25	9.75	1.75	6.75	-0.744141	0.331543	1.134766	108.150002	273.839996	-1.120000	739.00	0.24	-0.12	6.50	7.25	4.25	7.50	0.75	1.25	0.50	0.25	0.00	0.00	0.00	0.00	0.00	0.00	0.00	0.00	-0.353027	-0.062012	1.466309	-84.840004	84.980003	2.100000	297.00	-0.32	-0.07
2.06	0.00	0.00	0.00	0.00	0.00	0.00	0.00	2.00	5.50	7.00	12.50	14.00	10.50	9.00	1.50	6.25	-0.892578	0.388184	1.256836	112.699997	295.470001	-6.510000	672.00	0.24	-0.13	7.25	8.00	5.25	7.75	1.00	2.00	0.50	0.50	0.00	0.00	0.00	0.00	0.00	0.00	0.00	0.00	-0.320801	-0.027832	1.294434	-62.299999	60.830002	0.840000	340.00	-0.31	-0.07
2.07	0.00	0.00	0.00	0.00	0.00	0.00	0.00	1.50	5.00	6.25	11.00	12.50	9.75	8.00	1.00	5.75	-1.201172	0.367676	1.344727	121.590004	312.970001	-7.630000	595.00	0.24	-0.13	8.25	9.25	6.25	8.50	1.25	2.50	0.50	0.75	0.00	0.00	0.00	0.00	0.00	0.00	0.00	0.00	-0.248535	0.075195	1.138184	-47.810001	44.590000	0.210000	393.00	-0.31	-0.07
2.08	0.00	0.00	0.00	0.00	0.00	0.00	0.00	1.50	3.25	5.00	9.75	10.75	8.50	6.75	0.75	5.00	-1.147461	0.417480	1.551270	124.949997	328.299988	-6.300000	499.00	0.24	-0.14	8.50	9.00	6.75	8.75	1.75	3.25	0.75	0.75	0.00	0.00	0.00	0.00	0.00	0.00	0.00	0.00	-0.268555	0.057617	1.166504	-37.939999	34.090000	1.610000	419.00	-0.30	-0.07
2.09	0.00	0.00	0.00	0.00	0.00	0.00	0.00	1.00	2.75	4.00	8.00	9.00	7.00	5.75	0.50	3.75	-1.204590	0.576660	1.931152	147.839996	331.589996	5.390000	407.00	0.24	-0.14	9.25	9.50	7.50	9.50	1.75	3.50	0.75	1.00	0.00	0.25	0.00	0.00	0.25	0.00	0.00	0.00	-0.263672	0.083984	1.073730	-25.830000	21.139999	2.030000	460.00	-0.29	-0.07
2.10	0.00	0.00	0.00	0.00	0.00	0.00	0.00	0.75	2.00	2.50	6.50	7.25	5.75	5.00	0.00	2.75	-1.204590	0.576660	1.931152	147.839996	331.589996	5.390000	316.00	0.24	-0.15	9.50	10.00	7.75	9.75	2.00	4.00	0.75	1.00	0.00	0.00	0.00	0.00	0.50	0.00	0.00	0.25	-0.242188	0.117676	1.025391	-18.900000	11.480000	2.450000	482.00	-0.29	-0.08
2.11	0.00	0.00	0.00	0.00	0.00	0.00	0.00	0.00	1.25	2.50	5.00	5.75	4.25	3.75	0.00	1.50	-1.248047	0.746094	1.578613	170.100006	328.929993	4.480000	232.00	0.25	-0.14	10.25	10.50	8.25	10.00	2.25	4.25	0.75	1.00	0.00	0.25	0.00	0.00	1.25	0.00	0.00	0.00	-0.218262	0.115234	0.988770	-15.120000	4.970000	3.220000	515.00	-0.28	-0.08
2.12	0.00	0.00	0.00	0.00	0.00	0.00	0.00	0.25	1.00	2.00	3.25	4.75	2.75	2.50	0.00	1.00	-0.949707	0.785156	1.690918	173.460007	322.209991	-22.260000	173.00	0.24	-0.14	11.00	10.75	8.50	10.50	2.75	5.00	0.75	1.50	0.00	0.25	0.00	0.00	0.50	0.00	0.00	0.00	-0.217773	0.111328	1.001465	-11.830000	0.770000	3.430000	549.00	-0.28	-0.08
2.13	0.00	0.00	0.00	0.00	0.00	0.00	0.00	0.00	0.00	1.25	2.25	3.50	1.75	1.75	0.00	0.50	-0.618652	0.672363	1.353027	186.199997	320.250000	-50.259998	106.00	0.24	-0.17	12.00	11.75	9.00	11.00	2.50	5.25	0.75	1.50	0.00	0.00	0.00	0.00	0.25	0.00	0.00	0.00	-0.215332	0.122070	0.976562	-9.170000	-1.890000	3.430000	574.00	-0.29	-0.08
2.14	0.00	0.00	0.00	0.00	0.00	0.00	0.00	0.00	0.00	1.25	1.75	2.50	1.25	0.75	0.00	0.25	-0.478516	0.510254	1.082520	199.710007	325.850006	-77.699997	76.00	0.23	-0.18	12.00	11.75	9.25	11.25	2.75	5.75	0.75	1.50	0.00	0.00	0.00	0.00	0.50	0.00	0.00	0.00	-0.201172	0.122070	0.965820	-8.540000	-2.730000	3.290000	590.00	-0.29	-0.08
2.15	0.00	0.00	0.00	0.00	0.00	0.00	0.00	0.00	0.00	1.00	1.25	2.00	0.75	0.00	0.00	0.00	0.377930	0.314453	1.492188	175.490005	322.279999	-142.240005	51.00	0.21	-0.20	13.00	12.50	9.50	11.75	3.50	6.25	0.75	1.50	0.25	0.25	0.00	0.00	0.75	0.00	0.00	0.00	-0.206055	0.117188	0.960938	-9.030000	-2.730000	2.590000	637.00	-0.28	-0.08
2.16	0.00	0.00	0.00	0.00	0.00	0.00	0.00	0.00	0.00	1.00	1.25	1.50	0.50	0.00	0.00	0.00	0.242676	0.706543	2.585938	116.970001	268.309998	-173.809998	44.00	0.00	0.00	13.75	12.25	9.50	12.00	3.50	6.50	0.75	1.75	0.00	0.50	0.00	0.00	0.50	0.00	0.00	0.00	-0.218262	0.111328	0.972168	-9.170000	-3.220000	1.960000	649.00	-0.28	-0.08
2.17	0.00	0.00	0.00	0.00	0.00	0.00	0.00	0.00	0.00	0.75	1.25	1.00	0.25	0.00	0.00	0.00	0.304688	0.706055	3.665527	57.959999	128.240005	-163.240005	34.00	0.00	0.00	14.00	13.25	10.25	12.25	4.00	7.00	0.75	1.75	0.00	0.25	0.00	0.00	0.50	0.25	0.00	0.00	-0.214355	0.109375	0.971191	-8.050000	-4.060000	1.470000	683.00	-0.28	-0.08
2.18	0.00	0.00	0.00	0.00	0.00	0.00	0.00	0.00	0.00	0.50	1.25	1.00	0.00	0.00	0.00	0.00	0.719238	0.687012	2.809570	15.960000	-18.410000	-141.470001	29.00	0.00	0.00	15.00	13.50	10.50	12.50	4.50	7.50	0.75	1.50	0.25	0.50	0.00	0.00	0.75	0.25	0.00	0.00	-0.202148	0.113770	0.971191	-5.880000	-5.320000	1.120000	716.00	-0.28	-0.07
2.19	0.00	0.00	0.00	0.00	0.00	0.00	0.00	0.00	0.00	0.50	0.75	0.75	0.00	0.00	0.00	0.00	0.469727	0.447754	1.963867	-3.500000	-122.500000	-127.120003	21.00	0.00	0.00	15.00	14.00	10.75	12.75	4.50	7.75	1.00	2.00	0.00	0.00	0.00	0.00	0.75	0.25	0.00	0.00	-0.206543	0.106445	0.971191	-5.880000	-5.390000	0.840000	732.00	-0.28	-0.08
2.20	0.00	0.00	0.00	0.00	0.00	0.00	0.00	0.00	0.00	0.00	0.50	0.75	0.00	0.00	0.00	0.00	0.276367	0.306152	1.359375	-4.130000	-171.710007	-127.470001	13.00	0.00	0.00	15.75	14.25	11.00	13.00	5.00	8.00	0.75	2.00	0.25	0.50	0.00	0.00	0.75	0.25	0.00	0.00	-0.201660	0.109375	0.963867	-5.250000	-5.320000	0.700000	760.00	-0.28	-0.07
2.21	0.00	0.00	0.00	0.00	0.00	0.00	0.00	0.00	0.00	0.50	0.50	0.25	0.00	0.00	0.00	0.00	0.224609	0.282227	0.960938	3.990000	-187.039993	-133.630005	13.00	0.00	0.00	16.00	14.25	11.25	13.25	5.00	8.25	1.00	2.25	0.25	0.50	0.00	0.00	0.75	0.25	0.00	0.25	-0.202148	0.102051	0.970215	-3.710000	-5.180000	0.350000	780.00	-0.27	-0.07
2.22	0.00	0.00	0.00	0.00	0.00	0.00	0.00	0.00	0.00	0.25	0.50	0.25	0.00	0.00	0.00	0.00	0.182129	0.282715	0.812988	9.450000	-190.470001	-137.339996	10.00	0.00	0.00	16.50	14.50	11.25	13.25	5.25	8.25	1.00	2.00	0.25	0.25	0.00	0.00	1.25	0.00	0.00	0.00	-0.199219	0.103516	0.972168	-2.310000	-4.690000	0.210000	785.00	-0.28	-0.07
2.23	0.00	0.00	0.00	0.00	0.00	0.00	0.00	0.00	0.00	0.25	0.50	0.25	0.00	0.00	0.00	0.00	0.137695	0.299805	0.803223	9.940000	-191.029999	-134.750000	10.00	0.00	0.00	16.25	14.50	11.50	13.25	5.25	8.50	0.75	2.25	0.00	0.50	0.00	0.00	1.00	0.00	0.00	0.00	-0.197754	0.116699	0.962402	-1.540000	-4.060000	0.070000	785.00	-0.28	-0.08
2.24	0.00	0.00	0.00	0.00	0.00	0.00	0.00	0.00	0.00	0.25	0.25	0.25	0.00	0.00	0.00	0.00	0.135742	0.354980	0.881836	7.840000	-193.690002	-124.040001	8.00	0.00	0.00	16.00	14.25	11.25	13.25	5.25	8.25	1.00	2.50	0.00	0.25	0.00	0.00	1.25	0.50	0.00	0.25	-0.188965	0.120605	0.953125	-2.730000	-2.800000	0.070000	787.00	-0.27	-0.08
2.25	0.00	0.00	0.00	0.00	0.00	0.00	0.00	0.00	0.00	0.00	0.25	0.00	0.00	0.00	0.00	0.00	0.115234	0.395996	1.026367	5.950000	-202.440002	-104.370003	3.00	0.00	0.00	15.75	14.50	11.25	13.00	5.25	8.50	1.00	2.25	0.00	0.50	0.00	0.00	1.00	0.25	0.00	0.25	-0.191406	0.113281	0.961426	-4.830000	-1.820000	-0.070000	781.00	-0.27	-0.08
2.26	0.00	0.00	0.00	0.00	0.00	0.00	0.00	0.00	0.00	0.00	0.50	0.00	0.00	0.00	0.00	0.00	0.101074	0.390625	1.125488	-0.070000	-218.610001	-78.959999	5.00	0.00	0.00	15.25	14.25	11.00	13.00	5.25	8.50	0.75	2.50	0.50	0.50	0.00	0.00	1.75	0.25	0.00	0.00	-0.200195	0.111328	0.970215	-6.020000	-1.610000	-0.350000	783.00	-0.26	-0.08
2.27	0.00	0.00	0.00	0.00	0.00	0.00	0.00	0.00	0.00	0.25	0.25	0.00	0.00	0.00	0.00	0.00	0.074219	0.378906	1.130371	-10.850000	-238.490005	-51.869999	5.00	0.00	0.00	15.50	13.75	11.00	12.75	5.50	8.50	1.00	2.50	0.50	0.50	0.00	0.00	1.25	0.50	0.00	0.25	-0.199707	0.110352	0.962402	-6.580000	-1.470000	-0.630000	784.00	-0.26	-0.08
2.28	0.00	0.00	0.00	0.00	0.00	0.00	0.00	0.00	0.00	0.00	0.00	0.00	0.00	0.00	0.00	0.00	0.008789	0.377930	1.076172	-20.790001	-255.360001	-26.530001	0.00	0.00	0.00	14.75	13.50	11.00	12.75	5.50	8.50	1.00	2.50	0.25	0.50	0.00	0.00	1.25	0.50	0.00	0.25	-0.208984	0.115234	0.958008	-7.070000	-1.540000	-0.770000	771.00	-0.26	-0.08
2.29	0.00	0.00	0.00	0.00	0.00	0.00	0.00	0.00	0.00	0.00	0.00	0.00	0.00	0.00	0.00	0.00	-0.071289	0.370605	1.022949	-23.730000	-266.279999	-3.990000	0.00	0.00	0.00	15.00	13.25	10.75	12.50	5.50	8.25	1.00	2.50	0.50	0.50	0.00	0.00	1.50	0.75	0.00	0.25	-0.210938	0.113770	0.973145	-7.140000	-1.750000	-0.630000	770.00	-0.26	-0.08
2.30	0.00	0.00	0.00	0.00	0.00	0.00	0.00	0.00	0.00	0.00	0.00	0.00	0.00	0.00	0.00	0.00	-0.135742	0.342773	0.998047	-18.830000	-271.040009	14.840000	0.00	0.00	0.00	14.25	13.00	11.00	12.25	5.50	8.25	1.00	2.50	0.50	0.50	0.00	0.00	1.75	0.50	0.00	0.25	-0.205078	0.106445	0.962891	-6.790000	-2.310000	-0.490000	760.00	-0.25	-0.08
2.31	0.00	0.00	0.00	0.00	0.00	0.00	0.00	0.00	0.00	0.00	0.00	0.00	0.00	0.00	0.00	0.00	-0.185059	0.308105	1.041016	-9.380000	-272.510010	30.590000	0.00	0.00	0.00	14.50	12.50	10.75	12.25	5.75	8.25	1.00	2.50	0.25	0.75	0.00	0.00	1.75	0.50	0.00	0.25	-0.200684	0.102051	0.967773	-6.370000	-2.590000	-0.280000	757.00	-0.25	-0.08
2.32	0.00	0.00	0.00	0.00	0.00	0.00	0.00	0.00	0.00	0.00	0.00	0.00	0.00	0.00	0.00	0.00	-0.214844	0.249512	1.135254	-0.210000	-275.380005	44.099998	0.00	0.00	0.00	14.25	12.75	10.50	12.25	6.00	8.25	1.00	2.75	0.50	0.50	0.00	0.00	1.75	0.50	0.00	0.25	-0.205566	0.104980	0.968262	-5.880000	-2.730000	-0.140000	762.00	-0.25	-0.08
2.33	0.00	0.00	0.00	0.00	0.00	0.00	0.00	0.00	0.00	0.00	0.00	0.00	0.00	0.00	0.00	0.00	-0.270020	0.181641	1.226074	5.950000	-281.049988	54.880001	0.00	0.00	0.00	13.50	12.50	10.25	12.00	6.00	8.25	1.00	2.75	0.50	0.50	0.00	0.00	2.25	0.50	0.00	0.25	-0.202637	0.096680	0.965820	-5.390000	-3.010000	0.210000	750.00	-0.25	-0.08
2.34	0.00	0.00	0.00	0.00	0.00	0.00	0.00	0.00	0.00	0.00	0.00	0.00	0.00	0.00	0.00	0.00	-0.330078	0.130859	1.288574	8.540000	-288.119995	63.000000	0.00	0.00	0.00	13.00	12.00	10.25	11.75	6.00	8.25	1.00	3.00	0.75	0.75	0.00	0.25	2.25	0.50	0.00	0.25	-0.192871	0.100586	0.963379	-5.460000	-3.150000	0.210000	750.00	-0.24	-0.08
2.35	0.00	0.00	0.00	0.00	0.00	0.00	0.00	0.00	0.00	0.00	0.00	0.00	0.00	0.00	0.00	0.00	-0.402344	0.083984	1.328125	7.490000	-295.049988	68.739998	0.00	0.00	0.00	12.50	11.25	10.00	11.75	6.25	8.00	1.00	3.25	0.75	0.50	0.25	0.50	2.25	1.00	0.00	0.50	-0.201172	0.104980	0.966797	-5.670000	-3.080000	-0.000000	747.00	-0.23	-0.09
2.36	0.00	0.00	0.00	0.00	0.00	0.00	0.00	0.00	0.00	0.00	0.00	0.00	0.00	0.00	0.00	0.00	-0.515625	0.090820	1.452637	-7.420000	-305.899994	76.300003	0.00	0.00	0.00	12.00	11.25	10.00	11.50	6.25	8.25	1.00	3.25	0.50	0.75	0.00	0.50	2.75	1.00	0.25	0.50	-0.202637	0.104004	0.965820	-5.460000	-3.010000	-0.070000	746.00	-0.22	-0.09
2.37	0.00	0.00	0.00	0.00	0.00	0.00	0.00	0.00	0.00	0.00	0.00	0.00	0.00	0.00	0.00	0.00	-0.567383	0.143066	1.505371	-18.410000	-311.220001	79.800003	0.00	0.00	0.00	11.00	10.75	9.75	11.25	6.25	8.25	1.00	3.50	0.50	1.00	0.25	0.75	2.75	0.75	0.00	0.75	-0.208008	0.107910	0.968262	-5.600000	-3.080000	-0.000000	734.00	-0.22	-0.10
2.38	0.00	0.00	0.00	0.00	0.00	0.00	0.00	0.00	0.00	0.00	0.00	0.00	0.00	0.00	0.00	0.00	-0.624023	0.209961	1.529297	-27.650000	-315.279999	83.090004	0.00	0.00	0.00	10.75	10.25	9.50	11.25	6.25	8.25	1.00	3.50	0.75	1.00	0.25	0.75	3.00	1.00	0.25	0.50	-0.206055	0.108398	0.962891	-5.880000	-3.080000	-0.140000	732.00	-0.21	-0.10
2.39	0.00	0.00	0.00	0.00	0.00	0.00	0.00	0.00	0.00	0.00	0.00	0.00	0.00	0.00	0.00	0.00	-0.689941	0.260742	1.515625	-32.689999	-315.980011	86.519997	0.00	0.00	0.00	10.25	9.75	9.25	11.00	6.50	8.25	1.00	3.75	0.75	1.00	0.50	1.00	3.25	1.00	0.00	1.00	-0.198242	0.102539	0.963867	-6.930000	-2.660000	-0.210000	731.00	-0.20	-0.10
2.40	0.00	0.00	0.00	0.00	0.00	0.00	0.00	0.00	0.00	0.00	0.00	0.00	0.00	0.00	0.00	0.00	-0.776855	0.321777	1.487793	-31.990000	-311.220001	89.739998	0.00	0.00	0.00	10.25	9.50	9.00	10.75	6.50	8.00	1.00	4.50	0.75	1.00	0.25	0.75	3.50	1.25	0.00	0.75	-0.199219	0.104004	0.958984	-7.140000	-2.870000	-0.420000	730.00	-0.20	-0.10
2.41	0.00	0.00	0.00	0.00	0.00	0.00	0.00	0.00	0.00	0.00	0.00	0.00	0.00	0.00	0.00	0.00	-0.906250	0.397949	1.511719	-26.460001	-298.970001	94.010002	0.00	0.00	0.00	9.00	9.00	8.75	10.50	6.75	8.00	1.25	4.50	1.00	1.25	0.50	1.00	4.00	1.00	0.25	0.75	-0.191895	0.098145	0.953125	-7.350000	-3.220000	-0.840000	729.00	-0.18	-0.11
2.42	0.00	0.00	0.00	0.00	0.00	0.00	0.00	0.00	0.00	0.00	0.00	0.00	0.00	0.00	0.00	0.00	-1.022949	0.517090	1.724121	-19.879999	-283.989990	100.940002	0.00	0.00	0.00	8.75	8.50	8.75	10.00	6.75	8.00	1.25	5.00	1.00	1.25	0.75	1.25	4.50	1.75	0.25	1.00	-0.186523	0.096191	0.953613	-7.420000	-3.080000	-1.400000	741.00	-0.16	-0.11
2.43	0.00	0.00	0.00	0.00	0.00	0.00	0.00	0.00	0.00	0.00	0.00	0.00	0.00	0.00	0.00	0.00	-1.226074	0.548340	1.957031	-20.580000	-273.839996	110.459999	0.00	0.00	0.00	8.25	8.25	8.25	9.75	7.00	7.75	1.50	5.50	1.50	1.25	1.00	1.50	5.00	1.75	0.25	1.25	-0.185547	0.100586	0.962891	-7.280000	-3.010000	-1.890000	755.00	-0.15	-0.11
2.44	0.00	0.00	0.00	0.00	0.00	0.00	0.00	0.00	0.00	0.00	0.00	0.00	0.00	0.00	0.00	0.00	-1.488281	0.513672	2.002441	-34.790001	-266.769989	119.489998	0.00	0.00	0.00	7.50	7.75	8.25	9.50	7.00	7.75	1.50	5.75	1.75	1.50	1.00	1.75	5.50	2.00	0.50	1.50	-0.204102	0.096191	0.962891	-6.440000	-2.240000	-2.310000	762.00	-0.13	-0.11
2.45	0.00	0.00	0.00	0.00	0.00	0.00	0.00	0.00	0.00	0.00	0.00	0.00	0.00	0.00	0.00	0.00	-1.845703	0.576172	1.996094	-56.349998	-257.529999	127.050003	0.00	0.00	0.00	6.75	7.25	7.75	9.00	7.00	7.75	1.50	6.00	1.75	1.50	1.25	2.25	6.25	2.75	0.25	1.75	-0.204590	0.093262	0.969238	-5.040000	-1.260000	-2.450000	762.00	-0.12	-0.12
2.46	0.00	0.00	0.00	0.00	0.00	0.00	0.00	0.00	0.00	0.00	0.00	0.00	0.00	0.00	0.00	0.00	-2.163574	0.622070	1.936523	-74.480003	-247.940002	133.699997	0.00	0.00	0.00	6.00	6.75	7.50	8.75	7.25	7.75	1.75	6.25	2.00	2.00	1.75	2.75	7.00	3.00	0.50	2.00	-0.205566	0.090820	0.969727	-3.710000	-0.420000	-2.520000	786.00	-0.09	-0.12
2.47	0.00	0.00	0.00	0.00	0.00	0.00	0.00	0.00	0.00	0.00	0.00	0.00	0.00	0.00	0.00	0.00	-2.450684	0.689453	1.847656	-80.430000	-243.529999	138.600006	0.00	0.00	0.00	5.50	6.25	7.00	8.25	7.25	7.75	2.00	6.75	2.25	2.25	1.75	3.25	7.50	3.50	0.50	2.25	-0.212402	0.103516	0.963867	-2.310000	0.560000	-2.450000	798.00	-0.08	-0.12
2.48	0.00	0.00	0.00	0.00	0.00	0.00	0.00	0.00	0.00	0.00	0.00	0.00	0.00	0.00	0.00	0.00	-2.699707	0.759766	1.658203	-68.529999	-247.589996	140.279999	0.00	0.00	0.00	5.00	6.00	6.25	8.00	7.25	7.50	2.00	7.00	2.75	2.75	2.50	3.75	8.25	4.25	0.50	2.75	-0.198242	0.095703	0.958496	-1.260000	1.470000	-2.520000	821.00	-0.05	-0.13
2.49	0.00	0.00	0.00	0.00	0.00	0.00	0.00	0.00	0.00	0.00	0.00	0.00	0.00	0.00	0.00	0.00	-2.881836	0.715820	1.176270	-39.480000	-253.470001	138.110001	0.00	0.00	0.00	4.00	5.50	5.75	7.50	7.25	7.25	2.25	7.25	3.25	3.00	2.75	4.75	8.75	5.25	0.75	3.25	-0.214844	0.099609	0.959961	-0.070000	2.800000	-2.940000	840.00	-0.03	-0.13
2.50	0.00	0.00	0.00	0.00	0.00	0.00	0.00	0.00	0.00	0.00	0.00	0.00	0.00	0.00	0.00	0.00	-3.046387	0.564941	0.534180	-2.100000	-248.360001	130.059998	0.00	0.00	0.00	3.75	5.00	5.25	7.00	7.00	7.00	2.25	7.50	4.00	3.50	3.50	6.25	9.25	6.25	1.00	3.50	-0.203125	0.100098	0.963867	0.770000	4.480000	-3.150000	876.00	-0.00	-0.12
2.51	0.00	0.00	0.00	0.00	0.00	0.00	0.00	0.00	0.00	0.00	0.00	0.00	0.00	0.00	0.00	0.00	-3.181641	0.385742	0.003418	33.950001	-224.979996	112.209999	0.00	0.00	0.00	3.25	4.25	4.75	6.50	6.75	6.75	2.25	7.50	4.75	4.25	4.50	7.50	10.00	6.75	1.00	5.00	-0.208984	0.100098	0.970215	1.890000	6.860000	-4.060000	907.00	0.02	-0.13
2.52	0.00	0.00	0.00	0.00	0.00	0.00	0.00	0.00	0.00	0.00	0.00	0.00	0.00	0.00	0.00	0.00	-3.261230	0.230957	-0.399414	62.090000	-189.210007	82.879997	0.00	0.00	0.00	2.50	3.75	3.50	5.75	6.50	6.25	2.25	7.75	5.50	5.50	6.00	8.25	10.50	7.50	1.25	5.25	-0.211426	0.097168	0.977051	3.010000	9.800000	-5.040000	930.00	0.05	-0.12
2.53	0.00	0.00	0.00	0.00	0.00	0.00	0.00	0.00	0.00	0.00	0.00	0.00	0.00	0.00	0.00	0.00	-3.381836	0.126465	-0.605957	79.940002	-147.910004	46.340000	0.00	0.00	0.00	2.50	3.25	3.25	5.25	5.50	5.50	2.00	7.50	6.25	7.00	7.75	8.75	10.75	7.75	1.75	6.25	-0.217285	0.108887	0.962891	3.850000	12.950000	-5.880000	954.00	0.08	-0.12
2.54	0.00	0.00	0.00	0.00	0.00	0.00	0.00	0.00	0.00	0.00	0.00	0.00	0.00	0.00	0.00	0.00	-3.471680	0.049316	-0.692383	92.330002	-104.720001	12.740000	0.00	0.00	0.00	1.75	2.75	2.25	5.00	5.00	5.00	2.00	7.50	7.00	7.75	8.50	9.25	11.50	9.00	1.75	6.75	-0.220215	0.088379	0.982910	5.460000	17.290001	-6.370000	968.00	0.10	-0.12
2.55	0.00	0.00	0.00	0.00	0.00	0.00	0.00	0.00	0.00	0.00	0.00	0.00	0.00	0.00	0.00	0.00	-3.439941	-0.053223	-0.757812	90.019997	-60.200001	-9.730000	0.00	0.00	0.00	1.50	1.50	1.75	4.00	4.00	4.25	1.75	7.50	7.75	8.25	9.00	10.00	12.00	9.75	2.00	7.25	-0.216309	0.108887	1.003906	8.400000	22.610001	-6.930000	958.00	0.13	-0.12
2.56	0.00	0.00	0.00	0.00	0.00	0.00	0.00	0.00	0.00	0.00	0.00	0.00	0.00	0.00	0.00	0.00	-3.299805	-0.151367	-0.767090	61.180000	-10.710000	-20.580000	0.00	0.00	0.00	1.00	2.00	1.25	4.00	3.00	3.50	1.75	7.00	8.00	8.50	9.75	10.25	12.00	10.50	2.25	7.75	-0.223633	0.100098	1.071289	17.430000	42.139999	-8.050000	953.00	0.14	-0.12
2.57	0.00	0.00	0.00	0.00	0.00	0.00	0.00	0.00	0.00	0.00	0.00	0.00	0.00	0.00	0.00	0.00	-3.655762	-1.019531	-1.268555	-51.939999	84.840004	-14.700000	0.00	0.00	0.00	1.00	1.25	1.25	3.50	2.25	2.50	1.50	6.50	8.50	9.00	10.25	10.75	12.50	11.75	2.75	8.50	-0.223633	0.100098	1.071289	17.430000	42.139999	-8.050000	957.00	0.16	-0.11
2.58	0.25	0.50	0.25	0.00	0.00	0.00	0.00	0.00	0.00	0.00	0.00	0.00	0.00	0.00	0.00	0.00	1.299805	0.369141	1.030273	-64.820000	231.139999	-2.100000	10.00	0.00	0.00	1.00	0.75	0.75	2.75	1.75	2.25	1.25	6.00	8.75	9.50	10.75	11.25	12.50	12.75	3.00	9.00	-0.152832	0.143066	1.000488	24.990000	61.950001	-8.540000	952.00	0.18	-0.11
2.59	1.00	1.25	0.75	0.75	0.00	0.00	0.00	0.00	0.00	0.00	0.00	0.00	0.00	0.00	0.00	0.00	0.123535	0.058105	1.703613	-44.310001	190.820007	13.790000	38.00	0.00	0.00	0.75	1.00	0.75	2.50	1.50	1.50	1.00	5.50	9.00	9.75	11.25	11.50	12.50	13.75	3.25	9.50	-0.293457	0.154297	1.084961	43.470001	111.650002	-11.480000	954.00	0.19	-0.10
2.60	2.00	2.75	1.00	1.50	0.00	0.00	0.00	0.00	0.00	0.00	0.00	0.00	0.00	0.00	0.00	0.00	-0.447754	-0.183105	0.308105	-48.930000	162.470001	0.350000	74.00	-0.36	-0.06	1.00	0.75	0.75	2.75	0.75	1.00	0.75	5.00	9.25	10.00	11.50	11.50	12.50	14.25	3.75	9.75	-0.293945	0.139648	1.117188	47.459999	137.479996	-13.370000	952.00	0.20	-0.10
2.61	2.75	4.25	1.75	2.25	0.00	0.00	0.00	0.25	0.00	0.00	0.00	0.00	0.00	0.00	0.00	0.00	-0.250488	0.160645	1.084473	-81.199997	213.850006	-16.170000	116.00	-0.35	-0.08	0.75	0.25	0.50	2.25	0.75	0.75	0.50	4.25	9.50	10.00	11.50	11.50	12.25	15.00	4.75	10.00	-0.319824	0.181152	1.105957	49.980000	163.940002	-15.960000	938.00	0.22	-0.09
2.62	4.50	5.50	2.25	3.50	0.00	0.00	0.00	0.00	0.00	0.00	0.00	0.00	0.00	0.25	0.00	0.00	-0.580078	0.205078	2.209961	-49.700001	214.130005	0.070000	163.00	-0.35	-0.06	1.00	0.25	0.50	2.25	0.50	0.50	0.50	3.25	9.50	10.00	11.50	11.50	11.75	16.00	4.75	10.50	-0.353027	0.194824	1.158691	47.529999	191.589996	-19.530001	926.00	0.23	-0.08
2.63	6.50	7.25	3.75	4.50	0.00	0.00	0.00	0.00	0.00	0.00	0.00	0.00	0.00	0.50	0.00	0.00	-0.812500	-0.314453	1.829102	-29.120001	177.029999	5.740000	229.00	-0.34	-0.05	1.00	0.50	0.25	1.50	0.25	0.25	0.25	2.75	9.50	10.00	11.50	11.50	11.50	16.00	5.25	10.50	-0.378906	0.215820	1.135742	43.680000	216.229996	-24.500000	904.00	0.24	-0.08
2.64	9.00	9.75	4.75	5.75	0.50	0.00	0.00	0.00	0.00	0.00	0.00	0.00	0.00	0.25	0.00	0.00	-0.604492	-0.187500	1.591797	-41.439999	157.919998	-14.980000	307.00	-0.35	-0.04	0.50	0.50	0.25	1.75	0.00	0.00	0.25	2.50	9.50	10.00	11.50	11.25	11.25	16.25	5.25	10.50	-0.403809	0.204590	1.172363	36.820000	241.500000	-30.380001	890.00	0.24	-0.08
2.65	10.25	11.50	7.25	7.50	0.75	0.00	0.00	0.00	0.00	0.00	0.00	0.00	0.25	0.75	0.00	0.00	-0.412109	0.299805	1.302734	-31.920000	143.779999	-18.410000	392.00	-0.33	-0.04	0.75	0.25	0.25	1.50	0.25	0.00	0.00	2.00	9.00	9.75	11.25	11.00	10.75	16.25	5.50	10.75	-0.558594	0.274902	1.422852	31.219999	271.739990	-37.099998	864.00	0.25	-0.08
2.66	12.50	13.25	8.25	8.50	0.75	0.00	0.00	0.00	0.00	0.00	0.00	0.00	0.50	0.50	0.00	0.00	-0.405273	0.193848	1.227539	-21.070000	137.339996	-7.280000	453.00	-0.34	-0.04	0.25	0.00	0.25	1.50	0.00	0.00	0.00	1.75	8.75	9.50	10.75	10.75	10.00	15.75	5.50	10.50	-0.415527	0.332520	1.250000	19.879999	302.190002	-48.230000	824.00	0.25	-0.07
2.67	13.75	14.25	9.00	9.75	1.00	0.75	0.00	0.00	0.00	0.00	0.00	0.00	0.25	1.00	0.00	0.00	-0.460938	-0.050781	1.481445	-13.720000	128.800003	-2.310000	511.00	-0.33	-0.04	0.25	0.25	0.00	1.50	0.00	0.00	0.00	1.50	8.50	9.50	10.50	10.00	9.25	15.25	5.50	10.00	-0.596680	0.416504	1.375488	10.080000	327.670013	-64.400002	792.00	0.26	-0.07
2.68	14.25	15.25	9.50	10.50	1.25	1.25	0.00	0.00	0.00	0.00	0.00	0.00	0.25	1.00	0.00	0.00	-0.417480	-0.091309	1.315918	-0.770000	107.870003	-7.840000	547.00	-0.33	-0.05	0.25	0.00	0.00	1.00	0.00	0.00	0.00	1.25	8.00	9.25	10.25	9.75	8.75	14.25	5.25	9.25	-0.569824	0.366211	1.232910	4.130000	358.190002	-79.800003	747.00	0.26	-0.07
2.69	15.50	15.75	10.00	11.50	1.75	1.75	0.25	0.25	0.00	0.00	0.00	0.00	0.25	1.00	0.00	0.00	-0.370605	0.353027	1.279297	-9.730000	85.540001	-15.330000	600.00	-0.32	-0.05	0.00	0.00	0.00	0.75	0.00	0.00	0.00	1.00	7.25	9.00	9.75	9.00	8.25	12.75	5.00	8.50	-0.618164	0.393555	1.219238	0.700000	390.880005	-93.590004	688.00	0.26	-0.07
2.70	15.75	16.50	11.00	12.50	2.00	2.00	0.25	0.25	0.00	0.00	0.00	0.00	0.25	1.25	0.00	0.00	-0.342773	0.327148	1.002441	-26.110001	70.070000	-7.630000	639.00	-0.32	-0.05	0.25	0.00	0.00	0.50	0.00	0.00	0.25	0.75	6.50	8.50	9.00	8.50	7.50	10.50	4.25	7.25	-0.855957	0.292969	1.881348	6.160000	419.579987	-99.959999	619.00	0.26	-0.07
2.71	16.50	17.50	11.25	13.50	2.25	2.75	0.25	0.50	0.00	0.00	0.00	0.00	0.50	1.00	0.00	0.00	-0.316406	0.058594	1.133789	-41.230000	66.150002	-1.400000	684.00	-0.31	-0.06	0.00	0.00	0.00	0.00	0.00	0.00	0.00	0.25	5.75	7.75	7.75	7.50	6.25	9.00	3.25	5.75	-1.437988	0.425293	2.163086	-5.810000	436.519989	-96.320000	516.00	0.27	-0.06
2.72	17.00	17.75	12.25	14.25	2.50	3.25	0.25	0.75	0.00	0.00	0.00	0.00	0.50	1.25	0.00	0.00	-0.357422	0.071289	1.162109	-42.139999	51.939999	-3.360000	725.00	-0.31	-0.06	0.00	0.00	0.00	0.00	0.00	0.00	0.25	0.25	5.00	6.50	5.75	5.50	4.50	7.50	2.00	3.75	-1.776367	0.773438	2.537109	-22.120001	432.250000	-94.500000	403.00	0.27	-0.04
2.73	17.50	19.00	12.75	14.75	3.00	3.75	0.50	0.75	0.00	0.00	0.00	0.00	0.50	1.00	0.00	0.00	-0.320801	0.140137	1.014160	-36.330002	37.310001	-3.360000	766.00	-0.31	-0.06	0.00	0.00	0.00	0.00	0.00	0.00	0.25	0.00	4.00	4.75	3.75	3.25	2.50	6.25	1.00	2.00	-1.732422	1.082520	2.398438	-17.010000	412.160004	-106.050003	275.00	0.27	-0.00
2.74	18.50	19.00	13.25	15.50	3.25	4.25	0.50	1.00	0.00	0.00	0.00	0.00	0.50	1.25	0.00	0.00	-0.298828	0.098633	1.026367	-32.270000	32.549999	-1.680000	804.00	-0.30	-0.06	0.00	0.00	0.00	0.00	0.00	0.00	0.25	0.00	3.00	3.50	2.25	2.00	1.00	4.25	0.25	1.00	-1.210449	0.890625	2.216309	35.910000	378.140015	-122.010002	177.00	0.27	0.03
2.75	19.50	19.25	13.50	16.00	3.25	4.50	0.50	1.00	0.00	0.00	0.00	0.00	0.50	1.25	0.00	0.00	-0.306641	0.087402	1.011719	-27.020000	25.129999	-1.890000	828.00	-0.30	-0.06	0.00	0.25	0.00	0.00	0.00	0.00	0.25	0.00	1.50	2.50	1.50	1.00	1.00	2.25	0.00	0.50	-0.658691	0.644043	1.906738	58.799999	345.869995	-150.360001	109.00	0.25	0.01
2.76	19.25	20.25	14.00	16.25	3.50	4.75	0.50	1.00	0.00	0.25	0.00	0.25	0.50	1.25	0.00	0.00	-0.293945	0.081055	0.977051	-20.299999	18.480000	-2.100000	853.00	-0.30	-0.06	0.00	0.00	0.00	0.25	0.00	0.00	0.25	0.00	0.50	1.25	1.00	0.75	0.50	0.50	0.00	0.25	0.205566	0.566406	1.899902	30.799999	325.709991	-186.970001	54.00	0.21	-0.04
2.77	19.00	20.25	13.75	16.50	4.00	5.00	0.50	1.00	0.00	0.00	0.00	0.25	0.75	1.25	0.00	0.00	-0.272949	0.079590	0.951660	-11.200000	11.550000	-1.820000	858.00	-0.30	-0.06	0.25	0.25	0.00	0.00	0.00	0.00	0.50	0.00	0.00	1.00	0.50	0.50	0.00	0.00	0.00	0.00	0.450195	0.523438	1.562500	-30.520000	327.459991	-217.419998	33.00	0.00	0.00
2.78	19.75	20.00	14.25	16.75	4.25	5.25	0.50	1.25	0.00	0.00	0.00	0.25	0.75	1.00	0.00	0.25	-0.276855	0.083008	0.953613	-7.630000	9.590000	-2.240000	881.00	-0.30	-0.06	0.00	0.25	0.00	0.00	0.00	0.00	0.25	0.00	0.00	0.75	0.50	0.00	0.00	0.00	0.00	0.00	0.450195	1.045898	2.224609	-110.879997	330.190002	-219.869995	19.00	0.00	0.00
2.79	19.25	20.00	14.25	16.50	4.50	5.50	0.50	1.25	0.25	0.00	0.00	0.25	0.75	1.00	0.00	0.00	-0.270020	0.099609	0.937500	-5.180000	8.680000	-2.310000	880.00	-0.30	-0.06	0.25	0.25	0.00	0.25	0.00	0.00	0.25	0.00	0.00	0.50	0.50	0.00	0.00	0.00	0.00	0.00	0.862305	1.466309	2.968262	-101.570000	51.939999	-126.559998	22.00	0.00	0.00
2.80	19.25	20.00	14.00	16.50	4.50	5.75	0.50	1.25	0.00	0.00	0.00	0.25	0.75	1.25	0.00	0.00	-0.265137	0.094727	0.931152	-4.200000	8.610000	-2.170000	879.00	-0.30	-0.07	0.50	0.00	0.00	0.25	0.00	0.00	0.50	0.00	0.00	0.75	0.25	0.00	0.00	0.00	0.00	0.00	0.885742	1.090820	1.960938	-46.689999	-72.660004	-80.220001	26.00	0.00	0.00
2.81	18.75	19.25	13.75	16.25	4.75	6.00	0.50	1.25	0.25	0.25	0.00	0.25	0.75	1.25	0.00	0.00	-0.271973	0.098145	0.932617	-4.550000	8.890000	-2.030000	873.00	-0.29	-0.06	0.25	0.25	0.00	0.00	0.00	0.00	0.50	0.00	0.00	1.00	0.00	0.00	0.00	0.00	0.00	0.00	0.695312	0.797852	1.167480	-4.760000	-133.839996	-49.630001	23.00	0.00	0.00
2.82	18.00	18.75	13.25	16.00	4.50	6.00	0.50	1.25	0.25	0.25	0.25	0.50	1.00	1.00	0.00	0.00	-0.275391	0.099121	0.941406	-4.830000	8.680000	-1.890000	855.00	-0.29	-0.07	0.50	0.00	0.00	0.25	0.00	0.00	0.25	0.00	0.00	0.50	0.25	0.00	0.00	0.00	0.00	0.00	0.584473	0.588379	0.753906	19.320000	-145.880005	-30.030001	20.00	0.00	0.00
2.83	17.50	18.25	13.25	15.50	4.50	6.25	0.50	1.50	0.25	0.25	0.25	0.25	1.25	1.25	0.00	0.00	-0.268555	0.091797	0.935059	-4.620000	8.470000	-1.960000	847.00	-0.28	-0.07	0.00	0.00	0.00	0.00	0.00	0.00	0.50	0.00	0.00	0.25	0.00	0.00	0.00	0.00	0.00	0.00	0.535645	0.467285	0.691895	31.850000	-143.919998	-13.650000	10.00	0.00	0.00
2.84	16.75	17.75	12.75	15.25	4.75	6.25	0.50	1.75	0.50	0.50	0.25	0.50	1.25	1.25	0.00	0.25	-0.269531	0.095215	0.945801	-4.550000	8.400000	-2.310000	843.00	-0.27	-0.07	0.25	0.00	0.00	0.25	0.00	0.00	0.25	0.00	0.00	0.25	0.25	0.00	0.00	0.00	0.00	0.00	0.482910	0.395508	0.810059	33.950001	-148.610001	3.640000	14.00	0.00	0.00
2.85	16.00	17.00	12.50	15.00	4.75	6.50	0.50	1.75	0.25	0.50	0.25	0.50	1.25	1.25	0.00	0.25	-0.271484	0.094727	0.937988	-4.060000	7.630000	-2.730000	822.00	-0.27	-0.07	0.25	0.00	0.00	0.25	0.00	0.00	0.50	0.00	0.00	0.50	0.00	0.00	0.00	0.00	0.00	0.00	0.447754	0.346191	0.927734	26.670000	-163.589996	23.379999	18.00	0.00	0.00
2.86	15.25	16.25	12.25	14.50	5.00	7.00	0.75	2.00	0.50	0.75	0.50	0.75	1.50	1.25	0.00	0.25	-0.272461	0.093750	0.936523	-4.060000	7.280000	-3.080000	829.00	-0.26	-0.08	0.00	0.25	0.00	0.00	0.00	0.00	0.50	0.00	0.00	0.50	0.00	0.00	0.00	0.00	0.00	0.00	0.411621	0.315918	1.020996	14.630000	-186.759995	43.959999	15.00	0.00	0.00
2.87	14.50	15.75	11.75	14.00	4.75	7.00	0.75	2.00	0.50	0.50	0.50	0.75	1.75	1.50	0.00	0.25	-0.272949	0.101562	0.928223	-4.620000	6.930000	-3.500000	804.00	-0.25	-0.08	0.00	0.00	0.00	0.25	0.00	0.00	0.25	0.00	0.00	0.25	0.00	0.00	0.00	0.00	0.00	0.00	0.332031	0.287109	1.061523	5.670000	-213.149994	62.860001	9.00	0.00	0.00
2.88	13.75	14.75	11.25	13.50	4.75	7.00	0.75	2.00	0.75	0.75	0.50	0.75	1.75	1.50	0.00	0.25	-0.273926	0.092285	0.949219	-5.250000	6.370000	-4.060000	782.00	-0.25	-0.08	0.00	0.00	0.00	0.00	0.00	0.00	0.25	0.00	0.00	0.25	0.00	0.00	0.00	0.00	0.00	0.00	0.251953	0.265137	1.065430	3.290000	-238.279999	78.820000	6.00	0.00	0.00
2.89	13.00	14.00	11.00	13.00	5.00	6.75	0.75	2.50	1.00	0.75	0.75	1.00	2.25	1.75	0.00	0.50	-0.276855	0.090332	0.939941	-5.180000	6.580000	-4.900000	783.00	-0.23	-0.08	0.00	0.00	0.00	0.00	0.00	0.00	0.25	0.00	0.00	0.00	0.00	0.00	0.00	0.00	0.00	0.00	0.181641	0.233887	1.114258	6.580000	-261.660004	90.370003	4.00	0.00	0.00
2.90	12.25	13.50	11.00	12.75	5.00	7.00	0.75	2.50	1.25	1.00	0.75	1.00	2.25	1.75	0.00	0.50	-0.266602	0.096680	0.908203	-4.550000	6.230000	-5.250000	776.00	-0.22	-0.08	0.00	0.00	0.00	0.00	0.00	0.00	0.25	0.00	0.00	0.00	0.00	0.00	0.00	0.00	0.00	0.00	0.122559	0.219238	1.154297	12.390000	-284.200012	97.720001	4.00	0.00	0.00
2.91	11.50	12.75	10.50	12.00	5.00	7.25	0.75	2.50	0.75	1.00	1.00	1.50	2.75	2.25	0.00	0.50	-0.274414	0.089844	0.937988	-3.570000	5.950000	-5.320000	761.00	-0.21	-0.09	0.25	0.00	0.00	0.25	0.00	0.00	0.50	0.00	0.00	0.25	0.00	0.00	0.00	0.00	0.00	0.00	0.056641	0.203613	1.169922	19.180000	-303.660004	101.010002	16.00	0.00	0.00
2.92	10.25	11.25	9.75	11.25	5.25	7.00	1.00	3.25	1.50	1.25	1.00	1.50	3.00	2.00	0.00	0.50	-0.278809	0.088867	0.937012	-2.870000	6.020000	-5.320000	745.00	-0.19	-0.09	0.00	0.00	0.00	0.00	0.00	0.00	0.25	0.00	0.00	0.00	0.00	0.00	0.00	0.00	0.00	0.00	-0.008789	0.181641	1.189453	25.690001	-318.570007	101.360001	4.00	0.00	0.00
2.93	9.75	10.50	9.50	11.00	5.25	7.25	1.00	3.50	1.50	1.00	1.25	1.75	3.25	2.25	0.00	0.50	-0.274414	0.089355	0.937988	-2.100000	6.230000	-5.530000	741.00	-0.18	-0.09	0.00	0.00	0.00	0.25	0.00	0.00	0.25	0.00	0.00	0.25	0.00	0.00	0.00	0.00	0.00	0.00	-0.068848	0.145508	1.207520	30.799999	-329.839996	99.820000	9.00	0.00	0.00
2.94	9.00	10.00	9.25	10.25	5.25	7.00	1.00	3.75	1.50	1.25	1.25	2.00	3.50	2.50	0.00	0.50	-0.274902	0.096191	0.936523	-1.680000	6.440000	-5.740000	728.00	-0.17	-0.10	0.25	0.00	0.00	0.00	0.00	0.00	0.25	0.00	0.00	0.00	0.00	0.00	0.00	0.00	0.00	0.00	-0.142090	0.124512	1.241211	34.090000	-337.540009	97.440002	6.00	0.00	0.00
2.95	8.25	9.25	9.25	9.50	5.50	7.00	1.00	4.50	1.75	1.50	1.50	2.50	4.00	2.75	0.00	0.75	-0.282227	0.095703	0.936523	-1.400000	6.650000	-5.950000	741.00	-0.15	-0.10	0.25	0.00	0.00	0.25	0.00	0.00	0.25	0.00	0.00	0.25	0.00	0.00	0.00	0.00	0.00	0.00	-0.213379	0.125977	1.276855	34.439999	-342.019989	94.779999	12.00	0.00	0.00
2.96	8.00	8.50	8.75	9.25	5.50	6.75	1.00	4.75	2.00	1.50	1.75	2.50	5.00	3.50	0.25	0.75	-0.279297	0.087402	0.937988	-1.260000	6.930000	-6.230000	748.00	-0.13	-0.10	0.00	0.00	0.00	0.00	0.00	0.00	0.25	0.00	0.00	0.00	0.00	0.00	0.00	0.00	0.00	0.00	-0.291016	0.145508	1.366699	33.110001	-344.260010	92.400002	4.00	0.00	0.00
2.97	7.50	8.00	8.50	8.75	5.50	6.75	1.00	5.25	2.25	1.75	2.00	3.00	5.25	3.75	0.25	1.00	-0.274414	0.093750	0.937988	-1.190000	7.350000	-6.580000	757.00	-0.11	-0.11	0.25	0.00	0.00	0.00	0.00	0.00	0.25	0.00	0.00	0.00	0.00	0.00	0.00	0.00	0.00	0.00	-0.366211	0.171875	1.444824	31.639999	-345.450012	91.419998	6.00	0.00	0.00
2.98	7.00	7.50	8.25	8.50	5.75	6.50	1.00	5.25	2.75	2.00	2.25	3.50	5.75	4.00	0.25	1.00	-0.282715	0.094727	0.935059	-1.120000	8.610000	-7.280000	765.00	-0.10	-0.11	0.00	0.25	0.00	0.00	0.00	0.00	0.50	0.00	0.00	0.00	0.00	0.00	0.00	0.00	0.00	0.00	-0.512207	0.249512	1.620117	31.570000	-345.309998	93.239998	10.00	0.00	0.00
2.99	6.50	7.25	8.00	8.00	5.75	6.75	1.25	5.50	3.00	2.00	2.50	4.00	6.25	4.75	0.25	1.25	-0.283203	0.089355	0.943359	-0.910000	9.520000	-7.420000	783.00	-0.08	-0.11	0.00	0.00	0.00	0.00	0.00	0.00	0.25	0.00	0.00	0.00	0.00	0.00	0.00	0.00	0.00	0.00	-0.594238	0.269531	1.631348	32.619999	-341.390015	96.110001	4.00	0.00	0.00
3.00	6.25	6.75	7.75	7.50	5.75	6.50	1.00	5.50	3.25	2.25	3.00	5.00	6.75	5.00	0.25	1.50	-0.273926	0.083984	0.929688	-0.420000	10.360000	-7.490000	790.00	-0.06	-0.11	0.00	0.25	0.00	0.00	0.00	0.00	0.25	0.00	0.00	0.25	0.00	0.00	0.00	0.00	0.00	0.00	-0.709961	0.323730	1.653809	33.740002	-330.820007	99.959999	9.00	0.00	0.00
3.01	5.75	6.25	7.25	7.25	5.75	6.25	1.25	5.75	3.50	2.75	3.25	5.75	7.25	5.25	0.25	1.50	-0.280273	0.086914	0.938477	0.490000	11.410000	-7.700000	803.00	-0.05	-0.11	0.00	0.00	0.00	0.00	0.00	0.00	0.25	0.00	0.00	0.00	0.00	0.00	0.00	0.00	0.00	0.00	-0.846191	0.412109	1.745117	38.849998	-311.570007	104.090004	4.00	0.00	0.00
3.02	5.50	5.75	7.00	6.75	5.50	6.25	1.25	5.75	4.00	2.75	4.00	6.75	7.50	6.25	0.50	1.75	-0.278809	0.088867	0.938965	1.610000	12.880000	-8.050000	824.00	-0.03	-0.11	0.00	0.00	0.00	0.00	0.00	0.00	0.25	0.00	0.00	0.00	0.00	0.00	0.00	0.00	0.00	0.00	-0.986328	0.444336	1.972656	46.970001	-287.839996	107.730003	4.00	0.00	0.00
3.03	4.75	5.50	6.50	6.25	5.75	6.00	1.50	6.00	4.50	3.25	5.25	7.50	8.25	7.00	0.50	2.00	-0.282715	0.076172	0.937988	3.080000	14.350000	-8.190000	858.00	-0.00	-0.11	0.00	0.00	0.00	0.00	0.00	0.00	0.25	0.00	0.00	0.25	0.00	0.00	0.00	0.00	0.00	0.00	-1.178223	0.374512	2.175293	42.980000	-263.200012	109.550003	6.00	0.00	0.00
3.04	4.00	5.00	6.00	5.50	5.50	5.75	1.50	6.25	5.00	3.50	6.25	8.00	8.75	7.75	0.50	2.25	-0.268555	0.081543	0.929199	4.550000	16.170000	-7.910000	867.00	0.02	-0.11	0.00	0.00	0.00	0.00	0.00	0.00	0.25	0.00	0.00	0.00	0.00	0.00	0.00	0.00	0.00	0.00	-1.389648	0.384766	2.382324	23.520000	-239.750000	110.599998	4.00	0.00	0.00
3.05	3.50	4.25	5.50	5.25	5.25	5.25	1.50	6.50	5.50	4.25	7.75	8.75	9.25	8.25	1.00	2.50	-0.284180	0.080078	0.931641	6.720000	17.990000	-8.260000	895.00	0.04	-0.11	0.00	0.00	0.00	0.00	0.00	0.00	0.25	0.00	0.00	0.00	0.00	0.00	0.00	0.00	0.00	0.00	-1.613770	0.511719	2.726074	12.740000	-231.419998	114.169998	4.00	0.00	0.00
3.06	3.00	3.75	5.00	4.75	5.00	5.25	1.25	6.50	6.25	5.25	8.25	9.50	9.75	9.00	0.75	3.25	-0.290527	0.101562	0.939941	8.680000	19.389999	-9.100000	913.00	0.06	-0.11	0.00	0.00	0.00	0.00	0.00	0.00	0.25	0.00	0.00	0.00	0.00	0.00	0.00	0.00	0.00	0.00	-1.877930	0.664551	2.938477	28.350000	-248.919998	121.940002	4.00	0.00	0.00
3.07	2.50	3.00	3.50	4.00	4.25	4.00	1.25	6.75	7.00	6.50	9.25	10.50	10.50	9.50	1.00	3.75	-0.280762	0.099121	0.931641	10.920000	22.190001	-9.870000	918.00	0.10	-0.11	0.00	0.00	0.00	0.00	0.00	0.00	0.25	0.00	0.00	0.00	0.00	0.00	0.00	0.00	0.00	0.00	-2.183105	0.620117	2.855957	69.580002	-284.899994	134.259995	4.00	0.00	0.00
3.08	2.00	2.25	3.00	3.50	3.25	3.75	1.25	6.75	7.50	7.50	10.00	11.25	11.25	10.00	1.25	4.50	-0.228027	0.114746	0.920410	13.440001	25.690001	-10.570000	932.00	0.12	-0.11	0.00	0.00	0.00	0.00	0.00	0.00	0.25	0.00	0.00	0.00	0.00	0.00	0.00	0.00	0.00	0.00	-2.539062	0.439453	2.437500	104.650002	-323.399994	144.410004	4.00	0.00	0.00
3.09	1.75	2.00	2.50	3.75	2.75	3.50	1.25	6.50	8.00	8.00	10.75	12.25	11.75	10.75	1.25	5.00	-0.260254	0.097656	0.968262	16.940001	32.340000	-11.340000	955.00	0.13	-0.11	0.00	0.00	0.00	0.00	0.00	0.00	0.25	0.00	0.00	0.00	0.00	0.00	0.00	0.00	0.00	0.00	-2.893555	0.231445	1.608398	128.100006	-340.130005	151.339996	4.00	0.00	0.00
3.10	1.50	1.75	2.00	3.00	2.00	2.50	1.00	6.50	8.50	8.50	11.75	13.25	12.50	11.25	1.25	5.25	-0.304199	0.063965	1.018555	21.840000	46.200001	-11.550000	959.00	0.15	-0.11	0.00	0.00	0.00	0.00	0.00	0.00	0.50	0.00	0.00	0.00	0.00	0.00	0.00	0.00	0.00	0.00	-3.145508	-0.076172	0.745605	146.020004	-322.559998	154.770004	8.00	0.00	0.00
3.11	1.50	1.75	2.00	2.75	1.50	1.75	1.00	6.25	9.00	9.00	12.50	14.00	13.00	12.00	1.50	5.75	-0.321289	0.115723	0.967285	29.049999	64.190002	-10.290000	982.00	0.16	-0.11	0.00	0.00	0.00	0.00	0.00	0.00	0.25	0.00	0.00	0.00	0.00	0.00	0.00	0.00	0.00	0.00	-3.444336	-0.516602	0.278320	160.160004	-278.529999	150.289993	4.00	0.00	0.00
3.12	1.25	1.25	1.75	2.75	1.25	1.50	0.75	5.75	9.25	9.50	13.25	15.00	13.25	12.50	1.75	6.00	-0.333984	0.121582	0.997559	39.270000	82.879997	-9.590000	993.00	0.17	-0.11	0.00	0.00	0.00	0.00	0.00	0.00	0.25	0.00	0.00	0.00	0.00	0.00	0.00	0.00	0.00	0.00	-3.724121	-0.861816	0.092285	160.789993	-226.589996	133.979996	4.00	0.00	0.00
3.13	1.00	1.50	1.25	2.25	1.00	1.25	0.50	5.50	9.50	9.75	14.25	15.50	13.50	13.50	1.75	6.25	-0.354980	0.135254	1.004883	51.520000	104.300003	-9.590000	1002.00	0.19	-0.11	0.00	0.00	0.00	0.00	0.00	0.00	0.25	0.00	0.00	0.25	0.00	0.00	0.00	0.00	0.00	0.00	-3.951172	-1.115234	-0.309570	133.210007	-180.180008	106.400002	6.00	0.00	0.00
3.14	1.25	1.00	1.00	2.00	0.75	0.75	0.25	5.00	9.75	10.00	14.75	16.00	13.50	13.75	2.00	6.50	-0.371582	0.093750	1.039062	67.199997	125.370003	-8.680000	997.00	0.20	-0.11	0.00	0.00	0.00	0.00	0.00	0.00	0.25	0.00	0.00	0.00	0.00	0.00	0.00	0.00	0.00	0.00	-4.168457	-1.149414	-0.895020	84.699997	-136.220001	67.269997	4.00	0.00	0.00
3.15	0.75	0.75	0.50	2.00	0.75	1.00	0.25	4.50	10.00	10.25	15.25	16.75	13.50	14.25	2.00	6.75	-0.411621	0.139648	1.049316	74.129997	150.149994	-7.980000	1004.00	0.21	-0.11	0.00	0.00	0.00	0.25	0.00	0.00	0.25	0.00	0.00	0.00	0.00	0.00	0.00	0.00	0.00	0.00	-4.170898	-1.001465	-1.314453	33.810001	-79.660004	18.410000	7.00	0.00	0.00
3.16	0.75	0.50	0.50	1.50	0.50	0.75	0.00	3.75	10.00	10.75	15.50	17.00	13.50	14.50	2.25	7.00	-0.434082	0.174805	1.033691	77.419998	178.919998	-9.520000	992.00	0.22	-0.10	0.00	0.25	0.00	0.00	0.00	0.00	0.25	0.00	0.00	0.00	0.00	0.00	0.00	0.00	0.00	0.00	-3.364746	-0.315918	-0.460938	-27.719999	55.020000	-62.020000	6.00	0.00	0.00
3.17	0.75	0.75	0.25	1.00	0.25	0.25	0.00	3.25	10.00	10.75	15.75	17.25	13.25	14.75	2.50	7.25	-0.438477	0.172852	1.037598	80.150002	209.440002	-15.470000	980.00	0.23	-0.10	0.00	0.00	0.00	0.00	0.00	0.00	0.25	0.00	0.00	0.00	0.00	0.00	0.00	0.00	0.00	0.00	-3.364746	-0.315918	-0.460938	-27.719999	55.020000	-62.020000	4.00	0.00	0.00
3.18	0.75	0.25	0.25	1.25	0.00	0.75	0.00	2.75	9.75	10.75	16.00	17.50	13.25	14.75	2.75	7.25	-0.485840	0.169922	1.106445	78.330002	234.919998	-15.050000	977.00	0.23	-0.10	0.50	0.50	0.00	1.00	0.00	0.00	0.50	0.00	0.00	0.00	0.00	0.00	0.00	0.00	0.00	0.00	-2.843262	0.037109	0.226074	-31.710001	96.110001	-70.629997	28.00	0.00	0.00
3.19	0.75	0.25	0.50	1.00	0.00	0.00	0.00	2.25	9.75	10.75	16.00	17.50	12.75	14.75	2.50	7.25	-0.562988	0.235840	1.117188	74.620003	288.399994	-20.230000	955.00	0.23	-0.09	1.75	2.25	0.75	2.25	0.00	0.00	0.25	0.00	0.00	0.00	0.00	0.00	0.00	0.00	0.00	0.00	0.472656	0.169434	0.912109	-34.230000	139.649994	-76.510002	76.00	-0.33	-0.07
3.20	0.75	0.50	0.25	0.75	0.00	0.25	0.00	2.25	9.50	11.00	16.00	17.50	12.50	14.25	2.25	7.25	-0.588379	0.230957	1.070801	81.059998	319.130005	-26.809999	945.00	0.23	-0.10	3.00	3.75	1.00	3.25	0.00	0.00	0.25	0.00	0.00	0.00	0.00	0.00	0.00	0.00	0.00	0.00	-0.542480	-0.241699	-0.761719	-98.629997	176.119995	-119.699997	116.00	-0.34	-0.07
3.21	0.50	0.00	0.00	0.50	0.00	0.00	0.00	2.25	9.00	10.75	15.75	17.00	11.75	13.50	2.50	7.25	-0.689941	0.258789	1.265137	87.150002	356.299988	-32.830002	902.00	0.24	-0.10	3.75	5.25	1.75	4.50	0.00	0.00	0.25	0.00	0.00	0.00	0.00	0.00	0.00	0.00	0.00	0.00	-0.406738	1.546875	1.990723	-181.300003	268.869995	-133.139999	160.00	-0.34	-0.08
3.22	0.50	0.25	0.00	0.25	0.00	0.00	0.00	2.00	8.75	10.50	15.50	16.75	11.25	12.25	2.25	6.75	-0.586426	0.342285	1.217773	89.320000	394.170013	-37.730000	866.00	0.24	-0.10	6.50	7.75	2.50	5.50	0.00	0.00	0.00	0.00	0.00	0.00	0.00	0.00	0.00	0.00	0.00	0.00	-0.889160	1.187012	2.620605	-94.709999	228.970001	-50.189999	227.00	-0.36	-0.07
3.23	0.25	0.00	0.00	0.00	0.00	0.00	0.00	2.00	8.00	9.75	14.50	15.50	10.50	10.50	1.75	6.25	-0.968262	0.436523	1.595215	88.620003	434.209991	-43.610001	788.00	0.24	-0.10	9.00	9.75	4.00	8.00	0.25	0.00	0.25	0.00	0.00	0.00	0.00	0.00	0.50	0.00	0.00	0.00	-0.686035	0.024414	1.568359	-82.879997	204.539993	-4.060000	326.00	-0.34	-0.07
3.24	0.00	0.00	0.00	0.00	0.00	0.00	0.00	1.75	7.50	9.00	12.75	13.50	9.25	9.00	1.25	5.75	-1.201660	0.275879	1.509766	71.050003	464.869995	-52.009998	696.00	0.24	-0.10	11.00	11.50	6.00	9.00	0.25	0.75	0.25	0.25	0.00	0.00	0.00	0.00	0.25	0.00	0.00	0.00	-0.472656	-0.117188	2.229004	-84.000000	205.029999	-0.490000	406.00	-0.34	-0.06
3.25	0.00	0.00	0.00	0.00	0.00	0.00	0.00	1.25	6.50	8.00	10.75	11.25	7.75	8.00	0.75	4.75	-1.635742	0.808594	2.372070	52.570000	472.709991	-56.070000	588.00	0.24	-0.09	12.50	12.25	7.25	9.75	0.50	1.50	0.25	0.25	0.00	0.00	0.00	0.25	0.50	0.00	0.00	0.00	-0.520508	-0.344727	1.772461	-56.910000	170.589996	-6.930000	466.00	-0.33	-0.06
3.26	0.00	0.25	0.00	0.00	0.00	0.00	0.00	0.75	5.25	6.25	8.50	8.50	6.25	7.00	0.25	3.25	-1.886230	0.910156	2.282227	57.750000	470.890015	-55.720001	460.00	0.24	-0.08	13.25	13.00	7.75	10.50	0.50	2.75	0.25	0.50	0.00	0.00	0.00	0.00	0.25	0.00	0.00	0.00	-0.346191	0.025879	1.522949	-29.400000	142.309998	-17.780001	507.00	-0.33	-0.07
3.27	0.00	0.00	0.00	0.00	0.00	0.00	0.00	0.25	4.25	5.00	6.25	7.00	4.75	6.00	0.00	2.25	-1.841797	0.942871	2.205078	86.099998	461.580017	-46.619999	355.00	0.25	-0.07	14.25	13.50	8.25	11.25	1.00	4.25	0.50	0.75	0.00	0.00	0.00	0.00	0.75	0.00	0.00	0.00	-0.383301	0.414551	1.633789	-28.139999	118.300003	-19.879999	570.00	-0.31	-0.07
3.28	0.00	0.00	0.00	0.00	0.00	0.00	0.00	0.00	3.00	3.75	4.50	5.00	2.50	4.75	0.25	1.25	-1.514648	0.787598	2.271484	128.869995	430.989990	-51.099998	250.00	0.26	-0.05	14.50	14.25	8.75	11.75	1.25	6.25	0.25	1.25	0.00	0.25	0.00	0.00	0.75	0.00	0.00	0.00	-0.361328	0.352539	1.253418	-44.240002	86.590004	-9.170000	621.00	-0.30	-0.08
3.29	0.00	0.00	0.00	0.00	0.00	0.00	0.00	0.00	1.50	2.75	3.25	4.00	1.75	2.75	0.00	0.75	-0.788086	0.345215	2.032715	170.589996	407.959991	-72.029999	167.00	0.25	-0.08	15.25	14.50	9.25	12.25	1.50	7.00	0.50	1.25	0.00	0.00	0.00	0.00	1.00	0.00	0.00	0.00	-0.283691	0.137207	1.255371	-56.910000	69.790001	-2.240000	657.00	-0.30	-0.08
3.30	0.00	0.00	0.00	0.00	0.00	0.00	0.00	0.00	0.75	2.00	2.00	2.75	1.00	1.25	0.00	0.25	-0.233887	0.369629	1.843750	159.949997	391.369995	-110.389999	101.00	0.24	-0.09	15.75	15.25	10.00	12.75	1.75	7.75	0.50	1.75	0.00	0.25	0.00	0.00	1.00	0.00	0.00	0.00	-0.292969	0.126953	1.220703	-54.529999	51.660000	-1.820000	704.00	-0.29	-0.09
3.31	0.00	0.00	0.00	0.00	0.00	0.00	0.00	0.00	0.25	1.25	1.50	1.75	0.75	0.25	0.00	0.00	0.212891	0.315430	1.853516	122.430000	381.709991	-151.970001	59.00	0.23	-0.14	16.00	15.50	10.25	12.75	2.00	8.25	0.75	2.00	0.00	0.00	0.50	0.25	1.00	0.00	0.00	0.00	-0.247559	0.177246	1.075684	-45.500000	36.049999	0.630000	733.00	-0.29	-0.09
3.32	0.00	0.00	0.00	0.00	0.00	0.00	0.00	0.00	0.00	1.00	1.25	1.50	0.50	0.00	0.00	0.00	0.286621	0.001953	1.429688	75.949997	379.190002	-195.369995	44.00	0.00	0.00	16.25	15.25	10.25	13.25	2.25	8.50	0.75	2.00	0.00	0.00	0.00	0.00	1.00	0.00	0.00	0.00	-0.224609	0.125488	1.054688	-37.380001	26.740000	2.660000	736.00	-0.29	-0.09
3.33	0.00	0.00	0.00	0.00	0.00	0.00	0.00	0.00	0.00	1.00	1.00	1.25	0.25	0.00	0.00	0.00	-0.332031	0.920410	3.456055	7.490000	340.269989	-209.369995	36.00	0.00	0.00	16.75	15.50	10.50	13.25	2.25	8.50	0.75	2.25	0.00	0.25	0.00	0.00	1.00	0.00	0.00	0.00	-0.233398	0.135254	1.044922	-28.070000	17.850000	2.660000	753.00	-0.29	-0.09
3.34	0.00	0.00	0.00	0.00	0.00	0.00	0.00	0.00	0.00	1.00	1.00	0.75	0.00	0.00	0.00	0.00	0.427246	0.859375	3.634766	-22.400000	206.919998	-185.289993	29.00	0.00	0.00	16.75	15.75	10.50	13.50	2.50	9.00	0.75	2.50	0.00	0.25	0.00	0.00	1.00	0.00	0.00	0.00	-0.211426	0.145508	1.007812	-19.250000	10.010000	2.870000	770.00	-0.29	-0.09
3.35	0.00	0.00	0.00	0.00	0.00	0.00	0.00	0.00	0.00	0.75	1.00	0.50	0.00	0.00	0.00	0.00	0.795898	0.958496	3.119141	-31.500000	41.509998	-146.229996	24.00	0.00	0.00	16.75	15.75	10.50	13.50	2.50	9.00	0.75	2.50	0.00	0.00	0.00	0.00	1.00	0.00	0.00	0.00	-0.195312	0.140137	0.977539	-13.720000	5.460000	2.450000	767.00	-0.29	-0.09
3.36	0.00	0.00	0.00	0.00	0.00	0.00	0.00	0.00	0.00	0.75	0.75	0.25	0.00	0.00	0.00	0.00	0.649414	0.776367	2.354980	-30.309999	-98.559998	-111.020004	18.00	0.00	0.00	17.00	15.75	10.50	13.50	2.50	9.25	0.75	2.75	0.00	0.50	0.00	0.00	1.25	0.00	0.00	0.00	-0.178711	0.138184	0.957520	-10.850000	2.870000	1.680000	784.00	-0.28	-0.09
3.37	0.00	0.00	0.00	0.00	0.00	0.00	0.00	0.00	0.00	0.50	1.00	0.50	0.00	0.00	0.00	0.00	0.409180	0.605957	1.593750	-23.730000	-180.180008	-88.550003	21.00	0.00	0.00	16.25	15.50	10.50	13.50	2.25	9.25	0.75	2.75	0.00	0.75	0.00	0.25	1.00	0.00	0.00	0.00	-0.184082	0.129395	0.954590	-7.000000	1.190000	0.350000	774.00	-0.28	-0.09
3.38	0.00	0.00	0.00	0.00	0.00	0.00	0.00	0.00	0.00	0.75	0.50	0.25	0.00	0.00	0.00	0.00	0.352051	0.501953	1.085449	-14.210000	-217.979996	-76.019997	16.00	0.00	0.00	16.00	15.50	10.50	13.50	2.75	9.50	0.75	3.00	0.00	0.25	0.00	0.25	1.50	0.00	0.00	0.00	-0.184082	0.129395	0.954590	-7.000000	1.190000	0.350000	782.00	-0.28	-0.10
3.39	0.00	0.00	0.00	0.00	0.00	0.00	0.00	0.00	0.00	0.50	0.75	0.25	0.00	0.00	0.00	0.00	0.300781	0.436035	0.755859	-1.750000	-236.600006	-67.410004	16.00	0.00	0.00	15.75	15.00	10.25	13.25	2.50	9.75	0.75	3.25	0.00	0.25	0.00	0.25	1.50	0.00	0.00	0.00	-0.191895	0.144043	0.966309	-4.620000	0.560000	-0.070000	773.00	-0.27	-0.10
3.40	0.00	0.00	0.00	0.00	0.00	0.00	0.00	0.00	0.00	0.50	0.50	0.00	0.00	0.00	0.00	0.00	0.203613	0.421875	0.629395	13.090000	-245.350006	-57.750000	10.00	0.00	0.00	15.50	14.75	10.25	13.25	2.75	9.75	0.75	3.50	0.00	0.50	0.25	0.25	1.75	0.00	0.00	0.00	-0.192383	0.148438	0.968262	-4.620000	0.630000	0.210000	782.00	-0.27	-0.10
3.41	0.00	0.00	0.00	0.00	0.00	0.00	0.00	0.00	0.00	0.25	0.50	0.25	0.00	0.00	0.00	0.00	0.101562	0.335938	0.695312	21.840000	-252.139999	-29.680000	10.00	0.00	0.00	14.75	14.00	10.00	13.00	2.50	9.75	0.75	3.75	0.00	0.50	0.00	0.00	2.25	0.00	0.00	0.00	-0.189941	0.144043	0.967285	-5.040000	1.050000	0.140000	762.00	-0.26	-0.11
3.42	0.00	0.00	0.00	0.00	0.25	0.00	0.00	0.00	0.00	0.25	0.25	0.25	0.00	0.00	0.00	0.00	0.054688	0.312988	0.827148	9.030000	-261.029999	-9.870000	11.00	0.00	0.00	14.00	13.75	9.75	12.75	2.50	9.75	0.75	3.75	0.00	0.25	0.25	0.00	1.75	0.00	0.00	0.25	-0.186523	0.144531	0.962402	-5.180000	1.330000	-0.280000	744.00	-0.26	-0.11
3.43	0.00	0.00	0.00	0.00	0.00	0.00	0.00	0.00	0.00	0.50	0.50	0.00	0.00	0.00	0.00	0.00	0.010254	0.326660	0.942383	-12.040000	-275.239990	11.970000	10.00	0.00	0.00	13.50	13.25	9.50	12.50	2.50	9.75	0.75	4.75	0.00	0.25	0.00	0.50	2.50	0.25	0.00	0.00	-0.190430	0.149902	0.957520	-5.530000	1.680000	-0.350000	754.00	-0.25	-0.12
3.44	0.00	0.00	0.25	0.00	0.00	0.00	0.00	0.00	0.00	0.25	0.00	0.00	0.00	0.00	0.00	0.00	-0.043945	0.364258	1.011719	-31.500000	-292.179993	33.320000	5.00	0.00	0.00	13.00	12.50	9.00	12.25	2.75	9.75	0.75	5.00	0.00	0.25	0.00	0.50	2.75	0.00	0.00	0.25	-0.198730	0.145996	0.954102	-6.370000	2.030000	-0.420000	741.00	-0.24	-0.13
3.45	0.00	0.00	0.00	0.00	0.00	0.00	0.00	0.00	0.00	0.25	0.00	0.00	0.00	0.00	0.00	0.00	-0.102539	0.383789	1.012695	-41.580002	-308.630005	51.310001	3.00	0.00	0.00	12.00	12.00	9.00	12.00	2.75	9.75	0.75	5.25	0.25	0.75	0.00	0.25	3.00	0.00	0.00	0.25	-0.198730	0.149902	0.957031	-8.330000	2.450000	-0.490000	735.00	-0.23	-0.13
3.46	0.00	0.00	0.00	0.00	0.00	0.00	0.00	0.00	0.00	0.25	0.00	0.00	0.00	0.00	0.00	0.00	-0.184082	0.385254	0.991211	-40.250000	-320.110016	63.700001	3.00	0.00	0.00	11.00	11.50	8.50	11.75	2.75	9.75	0.75	5.50	0.00	0.25	0.50	0.50	3.25	0.00	0.00	0.25	-0.197266	0.145020	0.951172	-10.850000	2.800000	-0.840000	717.00	-0.23	-0.14
3.47	0.00	0.00	0.00	0.00	0.00	0.00	0.00	0.00	0.00	0.00	0.00	0.00	0.00	0.00	0.00	0.00	-0.251465	0.354980	0.961426	-28.490000	-326.200012	70.419998	0.00	0.00	0.00	10.25	11.00	8.50	11.50	2.75	9.50	0.75	5.75	0.00	0.75	0.25	1.00	3.75	0.00	0.00	0.25	-0.197754	0.140137	0.951172	-13.230000	2.800000	-1.190000	716.00	-0.22	-0.14
3.48	0.00	0.00	0.00	0.00	0.00	0.00	0.00	0.00	0.00	0.00	0.00	0.00	0.00	0.00	0.00	0.00	-0.312988	0.312500	0.985352	-9.940000	-328.369995	72.519997	0.00	0.00	0.00	9.75	10.75	8.25	11.25	2.75	9.50	0.75	6.50	0.00	0.50	0.50	0.75	4.25	0.25	0.00	0.50	-0.201172	0.140137	0.967773	-14.490000	2.380000	-1.680000	719.00	-0.21	-0.15
3.49	0.00	0.00	0.00	0.00	0.00	0.00	0.00	0.00	0.00	0.00	0.00	0.00	0.00	0.00	0.00	0.00	-0.383789	0.249023	1.061523	10.500000	-329.420013	72.519997	0.00	0.00	0.00	9.25	9.75	8.00	11.00	3.00	9.75	0.75	6.50	0.75	1.00	0.50	1.00	4.50	0.00	0.00	0.50	-0.207031	0.135742	0.959961	-14.770000	1.330000	-1.960000	722.00	-0.19	-0.15
3.50	0.00	0.00	0.00	0.00	0.00	0.00	0.00	0.00	0.00	0.00	0.00	0.00	0.00	0.00	0.00	0.00	-0.458008	0.185059	1.181641	26.950001	-330.820007	72.169998	0.00	0.00	0.00	8.75	9.75	7.75	11.00	3.00	9.75	0.75	6.50	0.25	0.50	0.25	1.25	5.00	0.25	0.00	0.75	-0.201172	0.139160	0.964844	-15.260000	0.910000	-2.590000	711.00	-0.19	-0.16
3.51	0.00	0.00	0.00	0.00	0.00	0.00	0.00	0.00	0.00	0.00	0.00	0.00	0.00	0.00	0.00	0.00	-0.530273	0.134766	1.312988	34.369999	-333.480011	73.010002	0.00	0.00	0.00	8.75	9.00	7.75	10.50	3.25	9.50	0.75	7.00	0.25	0.75	0.25	1.25	5.25	0.50	0.25	0.75	-0.203613	0.135742	0.975098	-16.730000	0.560000	-3.150000	715.00	-0.18	-0.16
3.52	0.00	0.00	0.00	0.00	0.00	0.00	0.00	0.00	0.00	0.00	0.00	0.00	0.00	0.00	0.00	0.00	-0.585938	0.099121	1.403320	31.570000	-338.309998	76.090004	0.00	0.00	0.00	7.75	8.50	7.50	10.50	3.50	9.50	1.00	7.00	0.75	1.25	0.50	1.50	5.50	0.75	0.25	0.75	-0.202148	0.127441	0.968262	-17.639999	-0.280000	-3.850000	725.00	-0.16	-0.15
3.53	0.00	0.00	0.00	0.00	0.00	0.00	0.00	0.00	0.00	0.00	0.00	0.00	0.00	0.00	0.00	0.00	-0.649414	0.106445	1.448730	21.350000	-341.529999	79.940002	0.00	0.00	0.00	7.75	8.25	7.50	10.25	4.00	9.25	1.00	7.00	0.25	0.75	0.75	1.75	6.00	0.50	0.00	1.00	-0.205566	0.127441	0.963867	-17.920000	-1.190000	-4.550000	718.00	-0.17	-0.16
3.54	0.00	0.00	0.00	0.00	0.00	0.00	0.00	0.00	0.00	0.00	0.00	0.00	0.00	0.00	0.00	0.00	-0.701172	0.139160	1.489746	10.430000	-341.739990	85.260002	0.00	0.00	0.00	7.00	7.75	7.25	9.75	4.50	9.25	1.00	7.25	0.50	1.00	0.75	2.00	6.50	0.75	0.25	1.25	-0.202637	0.124023	0.967285	-18.200001	-1.890000	-5.180000	725.00	-0.15	-0.16
3.55	0.00	0.00	0.00	0.00	0.00	0.00	0.00	0.00	0.00	0.00	0.00	0.00	0.00	0.00	0.00	0.00	-0.746094	0.193848	1.558105	2.100000	-339.010010	92.680000	0.00	0.00	0.00	6.75	7.25	7.00	9.50	5.00	9.00	1.00	7.25	1.00	1.25	1.00	2.25	6.75	1.00	0.25	1.50	-0.205566	0.129395	0.952637	-18.270000	-2.100000	-5.670000	735.00	-0.13	-0.16
3.56	0.00	0.00	0.00	0.00	0.00	0.00	0.00	0.00	0.00	0.00	0.00	0.00	0.00	0.00	0.00	0.00	-0.796875	0.241699	1.621582	-5.040000	-334.390015	102.690002	0.00	0.00	0.00	6.50	7.25	6.75	9.25	5.25	9.00	1.25	7.50	1.00	1.00	1.25	2.75	7.50	1.50	0.25	1.50	-0.203613	0.122559	0.972656	-17.570000	-2.380000	-5.950000	754.00	-0.12	-0.16
3.57	0.00	0.00	0.00	0.00	0.00	0.00	0.00	0.00	0.00	0.00	0.00	0.00	0.00	0.00	0.00	0.00	-0.890625	0.305176	1.708008	-14.420000	-326.829987	116.059998	0.00	0.00	0.00	6.00	6.75	6.75	9.00	5.25	8.75	1.25	7.50	1.25	1.75	1.50	3.00	7.75	1.75	0.00	1.75	-0.205566	0.124023	0.961914	-16.030001	-2.310000	-6.020000	758.00	-0.11	-0.16
3.58	0.00	0.00	0.00	0.00	0.00	0.00	0.00	0.00	0.00	0.00	0.00	0.00	0.00	0.00	0.00	0.00	-0.997070	0.370117	1.890137	-26.670000	-316.470001	132.789993	0.00	0.00	0.00	5.75	6.75	6.25	8.50	5.75	8.75	1.25	7.50	1.75	2.00	1.75	3.50	8.25	2.25	0.50	2.00	-0.194336	0.121094	0.967285	-11.760000	-1.190000	-5.950000	782.00	-0.09	-0.15
3.59	0.00	0.00	0.00	0.00	0.00	0.00	0.00	0.00	0.00	0.00	0.00	0.00	0.00	0.00	0.00	0.00	-1.174316	0.471680	2.182129	-40.529999	-308.209991	151.970001	0.00	0.00	0.00	5.00	6.00	6.00	8.00	5.75	8.50	1.50	7.75	1.75	2.25	2.00	4.50	8.75	2.75	0.50	2.25	-0.187988	0.110352	0.966797	-10.150000	-0.210000	-6.300000	790.00	-0.07	-0.16
3.60	0.00	0.00	0.00	0.00	0.00	0.00	0.00	0.00	0.00	0.00	0.00	0.00	0.00	0.00	0.00	0.00	-1.441895	0.503906	2.364258	-58.170002	-303.589996	171.360001	0.00	0.00	0.00	4.75	5.75	5.75	7.75	6.00	8.25	1.50	7.75	2.25	2.25	2.25	4.75	9.25	3.50	0.75	2.50	-0.203125	0.112305	0.977539	-8.680000	1.750000	-6.720000	806.00	-0.05	-0.15
3.61	0.00	0.00	0.00	0.00	0.00	0.00	0.00	0.00	0.00	0.00	0.00	0.00	0.00	0.00	0.00	0.00	-1.775391	0.528320	2.405762	-82.040001	-297.850006	188.160004	0.00	0.00	0.00	4.25	5.25	5.00	7.50	6.00	8.00	1.50	8.00	2.75	2.75	2.75	6.00	9.50	4.25	0.75	3.00	-0.203613	0.112305	0.962402	-7.140000	3.640000	-7.210000	827.00	-0.03	-0.15
3.62	0.00	0.00	0.00	0.00	0.00	0.00	0.00	0.00	0.00	0.00	0.00	0.00	0.00	0.00	0.00	0.00	-2.532227	0.609375	2.229980	-117.110001	-276.010010	202.160004	0.00	0.00	0.00	3.50	4.75	4.25	6.75	5.75	7.75	1.75	8.00	3.00	3.25	3.50	7.50	10.00	4.75	0.75	4.25	-0.237305	0.105469	0.971680	-4.970000	5.880000	-7.280000	844.00	-0.00	-0.16
3.63	0.00	0.00	0.00	0.00	0.00	0.00	0.00	0.00	0.00	0.00	0.00	0.00	0.00	0.00	0.00	0.00	-2.924805	0.694336	2.133789	-117.250000	-267.540009	193.270004	0.00	0.00	0.00	3.00	3.75	3.75	6.00	5.50	7.50	2.00	8.00	4.00	3.75	4.50	8.00	10.50	5.75	1.00	5.25	-0.202148	0.092773	0.967285	-2.030000	8.890000	-7.490000	869.00	0.03	-0.15
3.64	0.00	0.00	0.00	0.00	0.00	0.00	0.00	0.00	0.00	0.00	0.00	0.00	0.00	0.00	0.00	0.00	-3.171875	0.796387	1.708984	-103.250000	-268.450012	173.320007	0.00	0.00	0.00	2.00	2.75	3.00	5.25	5.25	6.75	1.75	8.00	4.75	4.50	5.75	8.75	11.00	6.50	1.25	5.50	-0.225098	0.113281	0.974609	0.980000	12.810000	-7.910000	872.00	0.06	-0.15
3.65	0.00	0.00	0.00	0.00	0.00	0.00	0.00	0.00	0.00	0.00	0.00	0.00	0.00	0.00	0.00	0.00	-3.357422	0.884277	0.880859	-67.480003	-273.279999	140.210007	0.00	0.00	0.00	1.75	2.75	2.25	5.00	4.50	6.25	1.75	8.00	5.50	5.50	7.75	9.25	11.50	7.25	1.50	6.00	-0.201660	0.117188	0.998535	4.200000	17.080000	-9.170000	907.00	0.08	-0.14
3.66	0.00	0.00	0.00	0.00	0.00	0.00	0.00	0.00	0.00	0.00	0.00	0.00	0.00	0.00	0.00	0.00	-3.617676	0.960938	-0.054199	-7.000000	-272.440002	82.040001	0.00	0.00	0.00	1.50	2.00	2.00	4.50	3.75	5.50	1.50	8.00	6.00	7.00	8.75	10.00	12.25	8.25	1.75	6.75	-0.198242	0.113281	0.985352	8.820000	22.190001	-10.780000	931.00	0.11	-0.14
3.67	0.00	0.00	0.00	0.00	0.00	0.00	0.00	0.00	0.00	0.00	0.00	0.00	0.00	0.00	0.00	0.00	-3.948242	0.835938	-0.672363	125.510002	-252.630005	10.080000	0.00	0.00	0.00	1.25	1.50	1.50	4.50	2.75	5.00	1.50	7.75	6.75	7.75	9.50	10.75	12.50	9.00	2.00	7.00	-0.226562	0.112793	1.004395	14.700000	30.870001	-12.110000	944.00	0.13	-0.14
3.68	0.00	0.00	0.00	0.00	0.00	0.00	0.00	0.00	0.00	0.00	0.00	0.00	0.00	0.00	0.00	0.00	-4.376465	0.239258	-0.750488	289.450012	-211.190002	-33.459999	0.00	0.00	0.00	0.75	1.25	1.00	3.50	2.00	4.50	1.25	7.50	7.25	8.50	10.25	11.25	13.25	9.75	2.00	7.75	-0.240234	0.104004	1.046875	20.860001	44.520000	-13.230000	943.00	0.15	-0.14
3.69	0.00	0.00	0.00	0.00	0.00	0.00	0.00	0.00	0.00	0.00	0.00	0.00	0.00	0.00	0.00	0.00	-4.479492	-0.533203	-0.956543	343.070007	-161.139999	-38.290001	0.00	0.00	0.00	1.00	0.75	0.75	2.50	1.50	3.00	1.00	7.00	8.00	8.75	11.00	11.75	13.25	10.75	2.75	8.50	-0.253906	0.123047	1.034180	30.240000	66.779999	-13.720000	941.00	0.17	-0.13
3.70	0.00	0.00	0.00	0.00	0.00	0.00	0.00	0.00	0.00	0.00	0.00	0.00	0.00	0.00	0.00	0.00	-4.399414	-1.017090	-1.259766	247.169998	-95.340004	-21.139999	0.00	0.00	0.00	0.75	0.50	0.50	2.50	1.00	2.75	1.00	6.50	8.00	9.50	11.50	12.25	13.75	11.75	3.25	9.00	-0.240723	0.142578	1.060059	42.910000	89.599998	-13.650000	956.00	0.19	-0.13
3.71	0.00	0.00	0.00	0.00	0.00	0.00	0.00	0.00	0.00	0.00	0.00	0.00	0.00	0.00	0.00	0.00	-3.909180	-0.950684	-1.507812	53.830002	-6.020000	1.470000	0.00	0.00	0.00	0.75	0.50	0.00	2.50	0.75	2.00	0.75	5.75	8.50	9.50	12.00	12.75	13.75	12.50	3.50	9.50	-0.301758	0.118164	1.086426	55.790001	117.529999	-13.160000	953.00	0.20	-0.12
3.72	0.50	0.25	0.25	0.00	0.00	0.00	0.00	0.00	0.00	0.00	0.00	0.00	0.00	0.00	0.00	0.00	-1.418457	-0.673828	-0.486328	0.140000	200.479996	-34.790001	10.00	0.00	0.00	0.75	0.00	0.25	2.00	0.50	1.75	0.50	5.25	8.75	9.75	12.50	13.00	13.75	13.50	4.00	10.00	-0.296875	0.124023	1.150879	61.599998	147.490005	-11.130000	959.00	0.21	-0.12
3.73	1.00	1.75	0.75	0.75	0.00	0.00	0.00	0.00	0.00	0.00	0.00	0.00	0.00	0.00	0.00	0.00	0.851562	0.567383	2.500000	-14.910000	292.040009	-60.549999	43.00	0.00	0.00	0.25	0.25	0.00	2.00	0.25	0.75	0.50	4.25	8.75	9.75	12.75	13.25	13.50	14.00	4.50	10.50	-0.326660	0.158203	1.100098	66.080002	174.229996	-10.360000	940.00	0.23	-0.11
