# time	left pressure 1[N/cm²]	left pressure 2[N/cm²]	left pressure 3[N/cm²]	left pressure 4[N/cm²]	left pressure 5[N/cm²]	left pressure 6[N/cm²]	left pressure 7[N/cm²]	left pressure 8[N/cm²]	left pressure 9[N/cm²]	left pressure 10[N/cm²]	left pressure 11[N/cm²]	left pressure 12[N/cm²]	left pressure 13[N/cm²]	left pressure 14[N/cm²]	left pressure 15[N/cm²]	left pressure 16[N/cm²]	left acceleration X[g]	left acceleration Y[g]	left acceleration Z[g]	left angular X[dps]	left angular Y[dps]	left angular Z[dps]	left total force[N]	left center of pressure X[%]	left center of pressure Y[%]	right pressure 1[N/cm²]	right pressure 2[N/cm²]	right pressure 3[N/cm²]	right pressure 4[N/cm²]	right pressure 5[N/cm²]	right pressure 6[N/cm²]	right pressure 7[N/cm²]	right pressure 8[N/cm²]	right pressure 9[N/cm²]	right pressure 10[N/cm²]	right pressure 11[N/cm²]	right pressure 12[N/cm²]	right pressure 13[N/cm²]	right pressure 14[N/cm²]	right pressure 15[N/cm²]	right pressure 16[N/cm²]	right acceleration X[g]	right acceleration Y[g]	right acceleration Z[g]	right angular X[dps]	right angular Y[dps]	right angular Z[dps]	right total force[N]	right center of pressure X[%]	right center of pressure Y[%]
0.00																										0.00	0.00	0.00	0.00	0.00	0.00	0.00	0.00	1.75	2.25	2.50	3.50	4.75	16.00	8.00	11.25	-0.444824	0.168945	0.825195	-7.910000	4.550000	-0.490000	432.00	0.33	-0.06
0.01																										0.00	0.00	0.00	0.00	0.00	0.00	0.00	0.00	1.75	2.25	3.00	3.75	5.00	16.25	8.25	11.25	-0.451172	0.173340	0.836426	-6.300000	1.610000	2.030000	447.00	0.33	-0.07
0.02	0.00	0.00	0.00	0.00	0.00	0.00	0.00	0.00	1.25	0.75	0.00	0.00	0.00	10.50	2.75	0.25	-0.563477	0.025391	1.132812	-8.750000	58.099998	-12.810000	144.00	0.38	0.13	0.00	0.00	0.00	0.00	0.00	0.00	0.00	0.00	2.00	2.75	3.25	4.00	5.00	16.75	8.50	11.50	-0.443359	0.187988	0.833984	-6.790000	-0.420000	3.850000	469.00	0.33	-0.06
0.03	0.00	0.00	0.00	0.00	0.00	0.00	0.00	0.00	1.00	0.50	0.00	0.00	0.00	10.00	2.50	0.00	-0.558105	0.019531	1.094727	-16.240000	63.630001	-12.460000	130.00	0.39	0.13	0.00	0.00	0.00	0.00	0.00	0.00	0.00	0.00	2.00	2.75	3.25	4.25	5.25	17.25	8.50	11.50	-0.437988	0.192871	0.835938	-5.950000	-2.520000	4.620000	478.00	0.33	-0.06
0.04	0.00	0.00	0.00	0.00	0.00	0.00	0.00	0.00	0.75	0.50	0.00	0.00	0.00	9.25	2.00	0.25	-0.565430	0.024414	1.068848	-24.010000	69.580002	-12.530000	116.00	0.39	0.13	0.00	0.00	0.00	0.00	0.00	0.00	0.00	0.00	2.25	3.00	4.00	4.50	5.25	17.75	8.75	12.00	-0.438965	0.202637	0.835938	-4.480000	-6.440000	5.180000	504.00	0.33	-0.06
0.05	0.00	0.00	0.00	0.00	0.00	0.00	0.00	0.00	0.50	0.25	0.00	0.00	0.00	8.25	1.50	0.00	-0.553711	0.048828	1.086426	-24.290001	75.669998	-14.000000	95.00	0.40	0.14	0.00	0.00	0.00	0.00	0.00	0.00	0.00	0.00	2.50	3.25	4.25	5.00	5.50	18.25	8.75	12.00	-0.439941	0.212402	0.852051	-3.010000	-9.520000	5.040000	524.00	0.33	-0.06
0.06	0.00	0.00	0.00	0.00	0.00	0.00	0.00	0.00	0.25	0.25	0.00	0.00	0.00	7.25	0.75	0.00	-0.449219	0.059570	1.057617	-28.559999	85.470001	-16.309999	75.00	0.40	0.15	0.00	0.00	0.00	0.00	0.00	0.00	0.00	0.00	2.50	3.50	4.75	5.50	6.00	18.25	8.75	12.25	-0.437988	0.235840	0.849609	-1.540000	-11.620000	3.850000	543.00	0.32	-0.07
0.07	0.00	0.00	0.00	0.00	0.00	0.00	0.00	0.00	0.25	0.00	0.00	0.00	0.00	6.00	0.50	0.00	-0.449219	0.059570	1.057617	-28.559999	85.470001	-16.309999	60.00	0.40	0.16	0.00	0.00	0.00	0.00	0.00	0.00	0.00	0.00	2.75	3.75	5.50	5.75	6.25	18.50	8.75	12.25	-0.436035	0.228516	0.840332	0.140000	-13.300000	1.680000	564.00	0.32	-0.07
0.08	0.00	0.00	0.00	0.00	0.00	0.00	0.00	0.00	0.50	0.00	0.00	0.00	0.00	4.75	0.50	0.00	-0.396484	0.047852	1.176758	-29.889999	84.699997	-16.309999	52.00	0.39	0.16	0.00	0.00	0.00	0.00	0.00	0.00	0.00	0.00	2.50	3.75	6.25	6.25	7.00	18.50	8.75	12.50	-0.439941	0.208984	0.874023	1.260000	-13.510000	-0.280000	581.00	0.32	-0.08
0.09	0.00	0.00	0.00	0.00	0.00	0.00	0.00	0.00	0.25	0.00	0.00	0.00	0.00	3.00	0.25	0.00	1.109375	0.907227	1.328125	-53.410000	17.850000	28.700001	31.00	0.00	0.00	0.00	0.00	0.00	0.00	0.00	0.00	0.00	0.00	3.00	4.25	6.75	7.00	7.25	18.50	9.00	12.50	-0.438965	0.206543	0.873047	2.240000	-12.600000	-1.120000	611.00	0.31	-0.08
0.10	0.00	0.00	0.00	0.00	0.00	0.00	0.00	0.00	0.00	0.00	0.00	0.00	0.00	2.25	0.00	0.00	1.191895	1.108887	1.136719	-60.549999	-9.310000	74.900002	19.00	0.00	0.00	0.00	0.00	0.00	0.00	0.00	0.00	0.00	0.25	3.00	4.25	7.50	7.50	7.50	18.75	9.00	12.50	-0.435547	0.199707	0.885742	3.360000	-10.430000	-1.610000	632.00	0.31	-0.08
0.11	0.00	0.00	0.00	0.00	0.00	0.00	0.00	0.00	0.00	0.00	0.00	0.00	0.00	1.50	0.25	0.00	1.679688	0.590820	1.298340	-21.700001	-48.720001	106.050003	15.00	0.00	0.00	0.00	0.00	0.00	0.00	0.00	0.00	0.00	0.25	3.25	4.50	7.75	7.50	7.75	18.75	9.00	12.75	-0.436035	0.205566	0.901367	1.820000	-2.240000	-2.170000	644.00	0.31	-0.08
0.12	0.00	0.00	0.00	0.00	0.00	0.00	0.00	0.00	0.00	0.25	0.00	0.00	0.00	1.50	0.00	0.00	1.601074	0.082520	1.263184	8.750000	-87.220001	112.980003	15.00	0.00	0.00	0.00	0.00	0.00	0.00	0.00	0.00	0.00	0.25	3.25	4.75	7.75	7.75	7.75	18.75	9.00	12.75	-0.441895	0.198730	0.909180	1.400000	2.450000	-2.170000	650.00	0.31	-0.08
0.13	0.00	0.00	0.00	0.00	0.00	0.00	0.00	0.00	0.25	0.25	0.00	0.00	0.00	0.75	0.00	0.00	1.493652	-0.110840	1.247559	10.430000	-119.000000	106.190002	12.00	0.00	0.00	0.00	0.00	0.00	0.00	0.00	0.00	0.00	0.00	3.25	4.75	8.00	8.00	7.75	18.75	9.00	12.75	-0.433594	0.204590	0.895996	1.680000	6.580000	-1.820000	651.00	0.31	-0.08
0.14	0.00	0.00	0.00	0.00	0.00	0.00	0.00	0.00	0.00	0.00	0.00	0.00	0.00	0.75	0.00	0.00	1.164062	-0.155762	1.257812	4.550000	-148.820007	94.360001	6.00	0.00	0.00	0.00	0.00	0.00	0.00	0.00	0.00	0.00	0.25	3.25	4.75	8.25	8.00	7.75	18.75	9.00	12.75	-0.444336	0.197754	0.894531	2.590000	10.990000	-1.960000	658.00	0.31	-0.08
0.15	0.00	0.00	0.00	0.00	0.00	0.00	0.00	0.00	0.00	0.00	0.00	0.00	0.00	0.50	0.00	0.00	0.676758	-0.128906	1.188477	-0.700000	-170.589996	81.620003	4.00	0.00	0.00	0.00	0.00	0.00	0.00	0.00	0.00	0.00	0.25	3.25	5.25	8.25	8.00	8.00	18.50	9.00	12.75	-0.448730	0.193848	0.890137	4.200000	15.260000	-1.610000	663.00	0.30	-0.08
0.16	0.00	0.00	0.00	0.00	0.00	0.00	0.00	0.00	0.00	0.25	0.00	0.00	0.00	0.25	0.00	0.00	0.172852	-0.029297	1.069824	-9.940000	-182.210007	73.360001	5.00	0.00	0.00	0.00	0.00	0.00	0.00	0.00	0.00	0.00	0.25	3.25	5.25	8.50	8.25	8.00	18.25	8.75	12.75	-0.451660	0.197266	0.879395	5.950000	18.830000	-0.700000	663.00	0.30	-0.08
0.17	0.00	0.00	0.00	0.00	0.00	0.00	0.00	0.00	0.00	0.25	0.00	0.00	0.00	0.25	0.00	0.00	-0.319824	0.147461	0.894043	-23.030001	-177.449997	72.309998	5.00	0.00	0.00	0.00	0.00	0.00	0.00	0.00	0.00	0.00	0.00	3.00	5.50	8.50	8.50	8.00	18.25	8.75	12.50	-0.443848	0.195801	0.880371	8.470000	21.420000	0.280000	660.00	0.30	-0.08
0.18	0.00	0.00	0.00	0.00	0.00	0.00	0.00	0.00	0.25	0.25	0.00	0.00	0.00	0.00	0.00	0.00	-0.744629	0.212891	0.623047	-42.070000	-156.309998	74.970001	6.00	0.00	0.00	0.00	0.00	0.00	0.00	0.00	0.00	0.00	0.25	3.00	5.50	8.75	8.50	8.00	17.75	8.75	12.50	-0.450195	0.196289	0.859375	11.620000	22.820000	1.260000	662.00	0.30	-0.09
0.19	0.00	0.00	0.00	0.00	0.00	0.00	0.00	0.00	0.00	0.00	0.00	0.00	0.00	0.00	0.00	0.00	-1.084961	0.350098	0.513184	-57.959999	-120.889999	76.160004	0.00	0.00	0.00	0.00	0.00	0.00	0.00	0.00	0.00	0.00	0.25	2.75	5.25	9.00	8.75	8.25	17.75	8.75	12.50	-0.454590	0.201172	0.852051	15.680000	23.309999	2.380000	664.00	0.30	-0.09
0.20	0.00	0.00	0.00	0.00	0.00	0.00	0.00	0.00	0.00	0.25	0.00	0.00	0.00	0.25	0.00	0.00	-1.277344	0.484863	0.679688	-59.639999	-85.260002	74.129997	5.00	0.00	0.00	0.00	0.00	0.00	0.00	0.00	0.00	0.00	0.25	2.50	5.25	9.00	9.00	8.50	17.25	8.75	12.75	-0.460449	0.208984	0.821777	20.299999	23.100000	3.290000	662.00	0.30	-0.10
0.21	0.00	0.00	0.00	0.00	0.00	0.00	0.00	0.00	0.00	0.00	0.00	0.00	0.00	0.25	0.00	0.00	-1.422363	0.449707	0.570801	-59.290001	-54.459999	67.690002	2.00	0.00	0.00	0.00	0.00	0.00	0.00	0.00	0.00	0.00	0.50	2.50	5.25	9.25	9.25	8.75	16.75	8.50	12.50	-0.465332	0.211426	0.803711	27.020000	21.070000	4.130000	665.00	0.29	-0.10
0.22	0.00	0.00	0.00	0.00	0.00	0.00	0.00	0.00	0.00	0.00	0.00	0.00	0.00	0.00	0.00	0.00	-1.495605	0.413574	0.671875	-61.250000	-25.200001	57.330002	0.00	0.00	0.00	0.00	0.00	0.00	0.00	0.00	0.00	0.00	0.25	2.25	5.00	9.25	9.50	9.00	16.25	8.25	12.50	-0.468750	0.195312	0.845703	34.930000	18.900000	5.880000	654.00	0.30	-0.11
0.23	0.00	0.00	0.00	0.00	0.00	0.00	0.00	0.00	0.00	0.25	0.00	0.00	0.00	0.50	0.00	0.00	-1.450195	0.325195	0.673828	-54.950001	-5.320000	41.580002	7.00	0.00	0.00	0.00	0.00	0.00	0.00	0.00	0.00	0.00	0.50	2.00	4.50	9.50	9.75	9.00	15.75	8.25	12.50	-0.490234	0.194336	0.907715	40.040001	21.770000	8.960000	650.00	0.29	-0.12
0.24	0.00	0.00	0.00	0.00	0.00	0.00	0.00	0.00	0.00	0.25	0.00	0.00	0.00	0.00	0.00	0.00	-3.172852	-0.418457	2.086914	-17.360001	14.700000	23.379999	3.00	0.00	0.00	0.00	0.00	0.00	0.00	0.00	0.00	0.00	0.50	1.75	4.75	9.75	10.25	9.25	15.25	8.25	12.25	-0.480469	0.239258	0.891113	37.799999	28.840000	10.570000	654.00	0.29	-0.12
0.25	0.00	0.00	0.00	0.00	0.00	0.00	0.00	0.00	0.50	0.25	0.00	0.00	0.00	0.50	0.00	0.00	-3.143555	-0.729004	0.111816	48.930000	31.500000	17.639999	13.00	0.00	0.00	0.00	0.00	0.00	0.00	0.00	0.00	0.00	0.50	1.50	4.50	9.75	10.25	9.50	14.50	8.00	12.25	-0.482422	0.256836	0.884766	34.160000	37.170002	9.520000	641.00	0.29	-0.13
0.26	0.00	0.00	0.00	0.00	0.00	0.00	0.00	0.00	0.50	0.00	0.25	0.00	0.00	1.00	0.00	0.00	-3.745605	-1.261230	-0.022461	74.269997	31.780001	3.500000	18.00	0.00	0.00	0.00	0.00	0.00	0.00	0.00	0.00	0.00	0.50	1.50	4.25	10.00	10.50	9.75	14.00	8.00	12.00	-0.470215	0.286621	0.866211	29.330000	45.360001	5.880000	640.00	0.29	-0.13
0.27	0.00	0.00	0.00	0.00	0.00	0.00	0.00	0.00	0.75	0.25	0.00	0.00	0.00	1.25	0.00	0.25	-2.190430	0.540527	0.207031	52.849998	-13.020000	-43.470001	24.00	0.00	0.00	0.00	0.00	0.00	0.00	0.00	0.00	0.00	0.50	1.25	4.25	10.00	10.50	9.50	13.25	7.75	11.75	-0.480469	0.307617	0.857422	26.389999	52.220001	-0.140000	625.00	0.29	-0.14
0.28	0.00	0.00	0.25	0.00	0.00	0.00	0.00	0.00	0.75	0.25	0.00	0.00	0.50	1.75	0.00	0.00	-0.478516	-0.032715	0.494141	34.160000	-57.750000	-59.709999	34.00	0.00	0.00	0.00	0.00	0.00	0.00	0.00	0.00	0.00	0.50	1.25	4.00	9.75	10.50	9.50	12.50	7.50	11.50	-0.518066	0.273926	0.860352	25.059999	62.510002	-8.400000	609.00	0.28	-0.14
0.29	0.00	0.00	0.25	0.00	0.00	0.00	0.00	0.00	1.50	0.25	0.00	0.00	0.50	2.50	0.25	0.25	-0.095215	0.039062	1.173828	23.379999	-85.400002	-52.220001	55.00	0.29	0.13	0.00	0.00	0.00	0.00	0.00	0.00	0.00	0.50	0.75	3.75	9.50	10.50	9.25	11.75	7.25	11.50	-0.518066	0.273926	0.860352	25.059999	62.510002	-8.400000	586.00	0.28	-0.15
0.30	0.00	0.00	0.25	0.00	0.00	0.00	0.00	0.00	2.25	0.50	0.25	0.00	0.75	3.00	0.50	0.25	-0.283203	-0.032715	0.973145	13.580000	-67.129997	-8.260000	79.00	0.29	0.11	0.00	0.00	0.00	0.00	0.00	0.00	0.00	0.50	0.75	3.50	9.50	10.25	9.25	11.00	7.00	11.00	-0.505371	0.271484	0.824707	26.530001	65.660004	-9.380000	569.00	0.28	-0.15
0.31	0.00	0.00	0.25	0.00	0.00	0.00	0.00	0.00	2.50	0.50	0.25	0.25	0.75	3.50	0.25	0.00	-0.356934	0.021484	0.922852	11.130000	-60.270000	5.950000	85.00	0.29	0.12	0.00	0.00	0.00	0.00	0.00	0.00	0.00	0.50	0.75	3.50	9.25	10.00	9.00	10.25	6.75	11.00	-0.533203	0.235352	0.861328	30.590000	69.930000	-9.100000	553.00	0.28	-0.15
0.32	0.00	0.00	0.00	0.00	0.00	0.00	0.25	0.00	2.75	0.75	0.25	0.25	0.75	4.25	0.25	0.25	-0.269531	0.083984	0.957520	3.990000	-55.439999	11.760000	99.00	0.30	0.13	0.00	0.00	0.00	0.00	0.00	0.00	0.00	0.50	0.50	3.25	9.00	10.00	8.75	9.75	6.25	10.50	-0.579590	0.235352	0.860352	36.680000	85.190002	-0.630000	530.00	0.28	-0.16
0.33	0.00	0.00	0.25	0.00	0.00	0.00	0.25	0.00	3.25	1.00	0.25	0.50	1.00	5.00	0.50	0.50	-0.223633	0.094727	0.965332	-5.600000	-41.860001	9.380000	127.00	0.29	0.11	0.00	0.00	0.00	0.00	0.00	0.00	0.00	0.25	0.25	3.00	8.75	9.75	8.50	9.00	6.00	10.25	-0.620605	0.290039	0.889648	42.070000	93.099998	3.010000	502.00	0.28	-0.16
0.34	0.00	0.25	0.25	0.00	0.00	0.00	0.50	0.00	3.75	1.50	0.50	0.50	1.00	5.25	0.50	0.50	-0.245605	0.075195	0.966309	-9.170000	-30.240000	6.790000	149.00	0.27	0.11	0.00	0.00	0.00	0.00	0.00	0.00	0.00	0.25	0.75	2.75	8.25	9.50	8.25	8.50	5.75	10.00	-0.656738	0.306152	0.944336	47.810001	100.800003	6.160000	488.00	0.28	-0.16
0.35	0.00	0.00	0.50	0.00	0.00	0.00	0.50	0.25	4.00	1.50	0.75	0.25	1.00	6.00	0.50	0.50	-0.252441	0.084473	0.950684	-10.430000	-24.920000	4.830000	163.00	0.27	0.11	0.00	0.00	0.00	0.00	0.00	0.00	0.00	0.50	0.25	2.50	8.00	9.25	8.00	8.00	5.50	9.50	-0.634766	0.323730	0.951660	53.900002	109.270004	7.840000	466.00	0.28	-0.17
0.36	0.00	0.00	0.25	0.00	0.25	0.00	0.75	0.25	4.75	1.75	1.00	0.75	1.00	6.75	0.50	0.50	-0.224121	0.089355	0.953613	-9.590000	-21.700001	1.120000	194.00	0.27	0.11	0.00	0.00	0.00	0.00	0.00	0.00	0.00	0.25	0.50	2.00	7.50	8.50	7.50	7.50	5.00	9.00	-0.702637	0.313965	0.988770	56.209999	117.739998	9.240000	430.00	0.28	-0.17
0.37	0.00	0.00	0.50	0.00	0.25	0.00	0.75	0.25	5.00	1.75	1.00	0.50	1.25	7.50	0.75	0.50	-0.227051	0.070801	0.953125	-8.330000	-16.799999	-2.380000	208.00	0.27	0.11	0.00	0.00	0.00	0.00	0.00	0.00	0.00	0.00	0.25	2.00	6.25	8.00	7.00	7.00	4.50	8.25	-0.766602	0.367188	1.008789	59.010002	124.669998	10.990000	387.00	0.28	-0.17
0.38	0.00	0.00	0.75	0.00	0.25	0.00	1.00	0.50	5.25	2.00	1.00	0.50	1.25	8.00	1.00	0.50	-0.236328	0.053223	0.941895	-9.170000	-12.460000	-3.780000	231.00	0.26	0.11	0.00	0.00	0.00	0.00	0.00	0.00	0.00	0.25	0.50	1.75	5.00	7.50	6.25	6.25	3.75	7.50	-0.869141	0.340820	1.053223	67.129997	126.910004	15.750000	348.00	0.28	-0.17
0.39	0.00	0.00	1.00	0.50	0.75	0.00	1.00	0.50	5.75	2.75	1.00	0.50	1.50	8.50	1.00	0.75	-0.231934	0.051270	0.948730	-10.570000	-12.600000	-3.430000	267.00	0.24	0.10	0.00	0.00	0.00	0.00	0.00	0.00	0.00	0.25	0.50	1.50	4.00	6.50	5.50	6.00	3.25	6.50	-0.808594	0.332031	1.196289	74.830002	125.650002	23.730000	305.00	0.28	-0.17
0.40	0.00	0.25	1.50	0.25	1.25	0.00	1.50	0.75	6.25	2.50	1.25	0.50	1.50	9.00	1.00	0.75	-0.209473	0.046387	0.952148	-12.110000	-14.910000	-2.030000	300.00	0.22	0.10	0.00	0.00	0.00	0.00	0.00	0.00	0.00	0.00	0.25	1.25	3.25	5.75	5.00	5.25	2.75	5.25	-0.802246	0.630859	1.144043	87.010002	117.809998	30.380001	257.00	0.28	-0.17
0.41	0.00	0.25	1.25	1.00	1.75	0.00	2.00	0.75	7.25	3.00	1.25	1.00	1.75	9.25	0.75	0.50	-0.215332	0.041992	0.953613	-12.880000	-16.799999	-0.700000	342.00	0.20	0.09	0.00	0.00	0.00	0.00	0.00	0.00	0.00	0.00	0.00	1.25	2.75	4.75	4.00	4.50	2.25	3.75	-0.751465	0.497559	1.232910	108.570000	100.660004	33.670002	209.00	0.28	-0.17
0.42	0.00	0.25	2.00	1.25	2.00	0.00	2.25	1.00	7.25	3.25	1.25	0.75	1.50	9.75	1.00	0.75	-0.204590	0.055664	0.945801	-13.160000	-17.500000	-0.070000	370.00	0.18	0.09	0.00	0.00	0.00	0.00	0.00	0.00	0.00	0.00	0.00	1.00	2.25	4.00	3.00	3.75	1.50	2.50	-0.534668	0.484863	1.210449	123.199997	71.750000	35.420002	164.00	0.28	-0.16
0.43	0.00	0.25	2.25	1.00	2.50	0.25	2.75	1.50	7.50	3.50	1.50	0.50	1.50	10.00	1.25	1.00	-0.199707	0.067383	0.951172	-13.370000	-16.240000	-1.330000	405.00	0.18	0.08	0.00	0.00	0.00	0.00	0.00	0.00	0.00	0.00	0.00	0.75	1.75	3.25	2.50	3.00	1.00	1.25	-0.433105	0.440430	1.091309	128.380005	36.889999	29.820000	125.00	0.27	-0.16
0.44	0.50	0.25	2.50	1.75	3.00	0.75	3.00	1.50	8.00	3.75	1.50	0.75	1.75	10.50	1.25	0.75	-0.201172	0.047363	0.962402	-13.440001	-14.490000	-2.660000	453.00	0.15	0.07	0.00	0.00	0.00	0.00	0.00	0.00	0.00	0.00	0.25	0.25	1.50	2.50	1.75	2.25	0.75	0.50	-0.281738	0.100586	0.793945	108.500000	3.990000	21.420000	93.00	0.27	-0.15
0.45	0.75	1.00	3.50	2.00	3.75	1.00	3.25	1.75	8.25	4.00	1.50	0.75	1.75	10.50	1.50	1.00	-0.190430	0.041504	0.963379	-13.090000	-12.670000	-3.010000	505.00	0.13	0.07	0.00	0.00	0.00	0.00	0.00	0.00	0.00	0.00	0.25	0.50	1.00	2.00	1.00	1.50	0.50	0.25	0.742676	-0.449707	0.896973	55.650002	-34.439999	9.590000	68.00	0.27	-0.13
0.46	0.75	1.25	3.75	2.25	4.75	1.50	3.50	2.00	8.50	4.50	1.50	1.00	2.00	10.75	1.25	1.00	-0.193359	0.041504	0.969727	-11.970000	-10.080000	-3.080000	549.00	0.11	0.06	0.00	0.00	0.00	0.00	0.00	0.00	0.00	0.00	0.00	0.50	1.00	1.50	1.00	1.25	0.00	0.25	2.692871	-1.517090	2.098633	-59.010002	-117.809998	-8.680000	52.00	0.25	-0.16
0.47	0.75	1.25	3.75	2.75	5.25	1.75	3.75	2.25	8.75	4.25	1.75	1.25	2.00	11.25	1.50	1.00	-0.194336	0.033691	0.973633	-10.150000	-6.930000	-3.080000	584.00	0.11	0.05	0.00	0.00	0.00	0.00	0.00	0.00	0.00	0.00	0.00	0.50	0.75	1.50	1.25	1.25	0.00	0.25	1.487793	-0.275879	1.984375	-181.649994	-219.240005	-41.650002	52.00	0.25	-0.17
0.48	1.00	1.00	4.50	2.75	6.00	2.00	4.00	2.00	8.75	5.00	1.75	1.00	2.00	11.25	1.25	1.00	-0.190918	0.038086	0.967285	-8.050000	-3.430000	-2.800000	606.00	0.10	0.06	0.00	0.00	0.00	0.00	0.00	0.00	0.00	0.00	0.00	0.50	0.50	1.25	0.50	1.00	0.25	0.25	1.508789	0.110352	0.571289	-179.199997	-253.820007	-68.110001	41.00	0.00	0.00
0.49	0.75	1.25	4.50	2.75	6.00	2.25	4.25	2.25	8.75	5.00	1.75	1.00	2.00	11.25	1.25	1.00	-0.189453	0.037598	0.971191	-5.880000	-0.630000	-2.170000	616.00	0.10	0.05	0.00	0.00	0.00	0.00	0.00	0.00	0.00	0.00	0.00	0.25	0.50	1.00	0.50	1.00	0.00	0.00	1.353027	0.229492	0.787598	-143.919998	-259.910004	-81.340004	31.00	0.00	0.00
0.50	1.00	1.50	5.00	2.75	6.25	2.25	4.00	2.50	9.00	5.25	2.00	1.00	2.00	11.25	1.50	1.00	-0.191406	0.039062	0.967773	-4.270000	1.680000	-1.680000	640.00	0.09	0.05	0.00	0.00	0.00	0.00	0.00	0.00	0.00	0.00	0.00	0.00	0.50	0.75	0.50	1.00	0.25	0.00	0.982422	0.495117	0.961426	-165.339996	-284.200012	-47.950001	29.00	0.00	0.00
0.51	1.25	1.50	4.75	2.75	6.50	2.25	4.25	2.50	9.00	5.50	1.75	1.00	2.00	11.50	1.50	1.00	-0.187988	0.038574	0.973145	-1.190000	6.370000	-1.470000	648.00	0.09	0.05	0.00	0.00	0.00	0.00	0.00	0.00	0.00	0.00	0.00	0.00	0.25	0.25	0.50	1.00	0.25	0.00	0.774414	0.495117	0.961426	-165.339996	-284.200012	-47.950001	21.00	0.00	0.00
0.52	0.75	1.75	5.00	3.00	6.25	2.25	4.25	2.25	9.00	5.25	1.75	1.00	2.25	11.50	1.50	1.00	-0.191406	0.039551	0.967773	-0.070000	8.680000	-1.750000	644.00	0.09	0.05	0.00	0.00	0.00	0.00	0.00	0.00	0.00	0.00	0.00	0.00	0.00	0.50	0.50	1.00	0.00	0.00	0.614258	0.849121	1.062988	-167.160004	-292.179993	-7.700000	18.00	0.00	0.00
0.53	0.75	1.50	4.75	2.75	6.00	2.50	4.00	2.25	9.25	5.25	1.75	1.00	2.25	11.50	1.50	1.00	-0.193359	0.038086	0.965332	0.910000	10.220000	-2.100000	636.00	0.10	0.05	0.00	0.00	0.00	0.00	0.00	0.00	0.00	0.00	0.00	0.00	0.25	0.50	0.25	0.75	0.00	0.00	0.470215	0.882812	1.105469	-153.440002	-288.750000	6.580000	16.00	0.00	0.00
0.54	1.00	1.25	4.50	2.50	6.00	2.00	4.00	2.25	9.00	5.25	1.75	1.00	2.25	11.25	1.50	1.00	-0.194336	0.031250	0.962402	2.030000	10.920000	-1.960000	620.00	0.10	0.05	0.00	0.00	0.00	0.00	0.00	0.00	0.00	0.00	0.00	0.00	0.00	0.25	0.25	0.75	0.00	0.00	0.203125	0.887695	1.207520	-150.990005	-278.529999	20.370001	11.00	0.00	0.00
0.55	0.75	1.50	4.75	2.50	6.00	1.75	3.75	2.25	9.00	5.00	1.75	1.00	2.00	11.00	1.25	1.00	-0.195312	0.036133	0.963867	3.220000	11.690000	-1.680000	606.00	0.10	0.05	0.00	0.00	0.00	0.00	0.00	0.00	0.00	0.00	0.00	0.00	0.00	0.25	0.25	0.50	0.00	0.00	-0.005859	1.154297	1.535645	-143.710007	-267.190002	34.790001	9.00	0.00	0.00
0.56	1.00	1.25	4.75	2.25	5.25	1.75	3.50	2.00	8.75	5.00	1.50	0.75	2.00	10.75	1.25	1.00	-0.213867	0.052246	0.957031	4.340000	12.600000	-1.330000	577.00	0.10	0.06	0.00	0.00	0.00	0.00	0.00	0.00	0.00	0.00	0.00	0.00	0.00	0.25	0.25	0.50	0.00	0.00	-0.232422	1.405762	1.608887	-117.320000	-261.170013	50.470001	9.00	0.00	0.00
0.57	1.00	1.00	4.00	2.25	5.25	1.75	3.25	2.00	8.50	5.00	1.50	1.00	2.00	10.75	1.50	1.00	-0.195312	0.038574	0.959473	5.320000	12.950000	-1.120000	565.00	0.11	0.05	0.00	0.00	0.00	0.00	0.00	0.00	0.00	0.00	0.00	0.00	0.00	0.00	0.00	0.50	0.00	0.00	-0.528809	1.631836	1.154785	-72.449997	-248.080002	68.669998	4.00	0.00	0.00
0.58	0.75	1.00	4.25	2.00	5.00	1.50	3.25	2.00	8.25	4.50	1.25	1.00	2.00	10.25	1.25	1.00	-0.198730	0.044922	0.962402	6.230000	12.320000	-0.910000	539.00	0.11	0.06	0.00	0.00	0.00	0.00	0.00	0.00	0.00	0.00	0.00	0.00	0.00	0.25	0.25	0.50	0.00	0.00	-0.774902	1.807617	0.916504	-29.820000	-208.809998	88.900002	9.00	0.00	0.00
0.59	0.75	1.00	4.00	2.50	4.50	1.75	3.00	2.00	8.00	4.50	1.50	0.75	2.00	10.00	1.25	0.75	-0.197754	0.045410	0.955566	7.000000	11.900000	-0.910000	528.00	0.11	0.05	0.00	0.00	0.25	0.00	0.00	0.00	0.00	0.00	0.00	0.00	0.00	0.25	0.50	1.00	0.00	0.00	-8.776367	-3.080566	3.481934	-154.350006	-25.969999	19.809999	18.00	0.00	0.00
0.60	0.75	1.00	4.00	2.50	4.75	1.50	2.50	2.00	7.75	4.00	1.50	1.00	2.25	9.25	1.00	1.00	-0.205078	0.046387	0.948730	6.510000	10.500000	-0.980000	509.00	0.10	0.04	0.00	0.00	0.50	0.50	0.25	0.00	0.00	0.25	0.25	0.00	0.25	0.50	1.50	1.50	0.00	0.00	-8.238281	-1.063477	1.225586	-181.509995	56.630001	24.780001	55.00	0.12	-0.12
0.61	0.75	1.25	4.00	2.25	4.75	1.75	2.50	2.00	7.50	4.00	1.25	1.00	2.00	9.00	1.00	1.00	-0.200195	0.050293	0.958984	5.810000	9.240000	-1.260000	501.00	0.09	0.04	0.25	0.00	0.75	0.75	0.75	0.00	0.25	0.50	0.25	0.00	0.25	0.50	1.50	1.25	0.00	0.00	-3.640625	-0.071777	0.396484	-81.970001	-23.309999	0.490000	74.00	0.04	-0.10
0.62	0.75	1.50	3.75	2.75	4.75	1.75	2.25	2.00	7.00	3.75	1.25	0.75	2.00	8.75	0.75	0.75	-0.197266	0.054199	0.952148	5.460000	7.910000	-1.610000	485.00	0.08	0.03	0.00	0.00	1.00	0.50	1.00	0.00	0.50	0.75	0.25	0.25	0.25	0.50	1.25	1.50	0.00	0.00	0.552246	0.109863	1.040039	-14.140000	-61.389999	-0.070000	84.00	0.06	-0.07
0.63	1.25	1.75	3.75	2.50	4.50	1.75	2.00	2.00	6.75	3.75	1.25	1.25	2.25	8.50	0.75	0.75	-0.199707	0.046387	0.952148	4.830000	6.370000	-1.820000	485.00	0.08	0.03	0.25	0.00	1.25	0.75	1.25	0.25	0.50	1.50	0.00	0.25	0.25	0.75	2.25	2.00	0.00	0.25	0.245605	-0.082031	1.011230	-1.190000	-47.180000	18.129999	123.00	0.04	-0.13
0.64	1.00	1.50	4.50	3.00	4.50	2.00	2.00	2.25	6.00	3.25	1.00	1.00	2.25	8.00	0.75	0.75	-0.193848	0.051758	0.947266	4.270000	4.340000	-1.470000	476.00	0.06	0.02	0.25	0.00	1.25	1.50	1.75	0.75	0.50	1.75	0.75	0.25	0.50	1.00	3.25	2.25	0.00	0.50	-0.030273	0.261719	0.983398	2.940000	-26.950001	3.430000	173.00	0.04	-0.13
0.65	1.25	1.50	4.50	3.00	4.75	2.25	1.75	2.25	5.25	2.75	1.50	1.00	2.25	7.50	0.75	0.50	-0.202637	0.052734	0.962402	3.500000	3.290000	-0.210000	465.00	0.05	0.00	0.50	0.25	1.50	1.75	2.00	0.75	0.50	2.50	0.50	0.25	0.75	1.50	3.50	2.50	0.25	0.50	-0.294922	0.148438	0.989258	1.820000	-17.360001	-1.470000	209.00	0.03	-0.15
0.66	1.50	1.50	4.50	3.00	4.75	3.00	1.75	2.50	5.00	2.50	1.00	1.00	2.25	7.50	0.50	0.50	-0.228027	0.049805	0.946289	3.010000	2.100000	0.840000	466.00	0.03	-0.00	0.50	0.25	1.50	1.50	2.00	1.00	0.50	2.75	0.75	0.25	0.25	1.50	3.75	2.25	0.00	0.75	-0.259277	0.086426	1.001953	1.750000	-11.410000	0.420000	210.00	0.03	-0.16
0.67	1.50	2.00	4.50	3.50	5.25	3.25	1.75	2.75	4.50	2.50	1.25	1.00	2.25	7.00	0.75	0.50	-0.168945	0.049316	0.967773	2.100000	0.980000	0.350000	482.00	0.02	-0.02	0.50	0.75	1.50	2.00	1.75	1.00	0.50	3.00	0.50	0.25	0.25	1.50	4.25	2.25	0.00	0.75	-0.100098	0.119629	0.998535	2.800000	-5.880000	4.550000	222.00	0.01	-0.18
0.68	1.75	2.25	5.00	3.75	5.25	3.25	1.50	2.75	3.75	2.25	1.25	1.25	2.50	6.50	1.00	0.50	-0.183105	0.059082	0.957520	1.470000	0.560000	-0.070000	482.00	0.00	-0.03	0.00	0.00	1.50	1.75	1.75	1.00	0.50	2.75	0.75	0.00	0.50	1.00	4.25	2.25	0.25	0.75	-0.171387	0.114258	0.992676	2.940000	1.820000	3.640000	204.00	0.04	-0.17
0.69	1.75	2.25	5.00	4.25	5.50	3.75	1.50	3.00	3.75	2.25	1.00	1.00	2.50	6.25	0.75	0.75	-0.176758	0.060059	0.958984	0.560000	1.120000	-0.630000	491.00	-0.01	-0.04	0.50	0.75	1.50	1.50	1.50	1.25	0.50	3.00	0.75	0.00	0.50	1.00	4.50	2.25	0.25	0.75	-0.171387	0.114258	0.992676	2.940000	1.820000	3.640000	219.00	0.02	-0.18
0.70	1.75	2.25	5.25	4.25	5.50	3.50	1.50	3.00	3.50	2.50	1.00	1.00	2.25	6.00	0.75	0.75	-0.183594	0.054688	0.963379	-0.280000	5.530000	-1.750000	486.00	-0.01	-0.04	0.25	0.00	1.25	1.50	1.50	1.00	0.50	3.00	0.25	0.00	0.50	1.50	4.50	1.75	0.25	0.50	-0.184082	0.133301	0.980469	3.570000	4.410000	4.200000	197.00	0.04	-0.21
0.71	1.75	1.75	5.00	4.00	5.50	3.50	1.50	3.00	3.00	2.25	1.25	1.00	2.25	6.00	0.75	0.75	-0.183594	0.054688	0.963379	-0.280000	5.530000	-1.750000	470.00	-0.01	-0.04	0.25	0.00	1.00	0.75	1.00	0.75	0.50	2.75	0.50	0.00	0.25	1.25	4.50	1.75	0.00	0.75	-0.175293	0.129395	0.968750	2.590000	7.070000	2.520000	171.00	0.06	-0.21
0.72	1.75	2.25	5.00	3.50	5.25	3.50	1.50	2.75	3.25	2.00	1.25	1.25	2.25	5.75	0.75	0.75	-0.190430	0.054688	0.961914	-0.070000	9.870000	-2.170000	463.00	-0.01	-0.04	0.25	0.25	0.75	0.75	1.00	0.50	0.50	2.75	0.25	0.00	0.00	1.25	4.50	1.50	0.25	0.75	-0.178223	0.120605	0.966309	2.240000	6.650000	2.100000	162.00	0.06	-0.23
0.73	1.75	2.25	5.00	3.50	5.00	3.25	1.50	2.75	3.25	2.00	1.00	1.25	2.25	5.50	0.50	0.50	-0.193359	0.054688	0.959961	-0.210000	10.990000	-2.030000	449.00	-0.01	-0.04	0.00	0.00	0.75	0.75	0.75	0.75	0.25	2.50	0.25	0.00	0.00	1.25	4.50	1.50	0.25	0.50	-0.188477	0.113281	0.962402	2.030000	5.390000	3.080000	148.00	0.07	-0.25
0.74	1.50	2.25	5.00	3.00	4.75	2.75	1.50	2.75	3.00	1.75	1.50	1.25	2.25	5.25	0.75	0.75	-0.191895	0.049316	0.959961	0.210000	12.180000	-1.470000	434.00	-0.00	-0.04	0.00	0.00	0.75	0.50	0.50	0.50	0.25	2.50	0.00	0.00	0.00	1.25	4.25	1.25	0.25	0.75	-0.181152	0.121094	0.966797	1.890000	3.500000	4.340000	134.00	0.08	-0.27
0.75	1.25	2.00	4.25	3.00	4.75	2.75	1.50	2.50	3.25	1.75	1.25	1.00	2.25	5.50	0.50	0.50	-0.197754	0.052734	0.958984	0.770000	13.300000	-0.350000	413.00	0.00	-0.03	0.25	0.00	0.25	0.50	0.50	0.25	0.25	2.75	0.00	0.00	0.00	1.00	4.25	1.25	0.00	0.50	-0.175293	0.135254	0.965332	1.750000	1.540000	4.270000	125.00	0.07	-0.28
0.76	1.25	1.50	4.00	2.75	4.25	2.50	1.25	2.25	3.00	2.00	1.25	1.25	2.00	5.25	0.50	0.75	-0.200684	0.056641	0.953613	0.840000	13.860000	0.770000	386.00	0.01	-0.03	0.00	0.00	0.50	0.50	0.25	0.25	0.25	2.25	0.00	0.00	0.00	1.00	4.25	1.25	0.25	0.50	-0.172363	0.135742	0.969238	0.910000	0.140000	3.780000	118.00	0.09	-0.28
0.77	1.00	1.75	3.75	2.50	4.00	2.25	1.50	2.25	3.00	1.75	1.25	1.00	2.00	5.25	0.50	0.50	-0.195801	0.057129	0.956055	0.910000	13.930000	1.330000	372.00	0.02	-0.03	0.00	0.00	0.50	0.25	0.50	0.25	0.25	2.50	0.00	0.00	0.00	1.25	4.50	1.00	0.00	0.50	-0.174316	0.130859	0.961914	-0.280000	-0.910000	3.150000	122.00	0.08	-0.29
0.78	1.00	1.75	3.75	2.50	3.75	2.00	1.25	2.25	3.25	1.75	1.25	1.00	2.00	5.25	0.50	0.50	-0.200195	0.060059	0.952637	1.120000	13.370000	1.750000	366.00	0.02	-0.03	0.00	0.00	0.75	0.75	0.50	0.25	0.25	2.75	0.00	0.00	0.25	1.25	4.25	1.00	0.00	0.50	-0.172363	0.125977	0.958008	-1.330000	-3.640000	3.080000	134.00	0.06	-0.28
0.79	0.75	1.25	3.25	2.25	3.50	2.00	1.25	2.00	3.25	1.75	1.00	1.00	2.00	5.25	0.50	0.50	-0.212891	0.056152	0.951660	0.490000	12.600000	2.380000	342.00	0.04	-0.02	0.00	0.00	0.50	0.75	0.75	0.25	0.25	3.00	0.00	0.00	0.00	1.25	4.75	1.00	0.00	0.75	-0.167969	0.127930	0.957520	-2.590000	-5.810000	3.010000	141.00	0.06	-0.29
0.80	0.50	1.00	3.00	2.25	3.50	1.50	1.25	2.25	3.25	1.75	1.50	1.00	1.75	5.00	0.50	0.75	-0.203613	0.058594	0.947266	-0.140000	11.130000	2.380000	335.00	0.05	-0.02	0.00	0.00	0.50	0.50	0.50	0.50	0.25	3.00	0.00	0.00	0.25	1.25	4.50	1.25	0.00	0.50	-0.170410	0.130859	0.966797	-3.360000	-7.350000	2.380000	140.00	0.08	-0.29
0.81	0.75	1.50	3.00	2.00	3.25	1.75	1.25	2.25	3.25	1.75	1.00	0.75	2.00	5.25	0.50	0.50	-0.200684	0.065918	0.949219	-0.420000	9.590000	2.030000	334.00	0.04	-0.02	0.25	0.00	0.75	0.75	0.50	0.50	0.25	3.50	0.50	0.00	0.25	1.50	5.00	1.25	0.00	0.75	-0.184570	0.124023	0.968262	-3.500000	-7.910000	2.030000	170.00	0.07	-0.26
0.82	0.75	1.50	3.00	2.00	3.25	1.50	1.25	2.00	3.00	1.75	1.25	1.00	2.00	5.00	0.50	0.75	-0.198730	0.068359	0.952637	-0.840000	8.820000	1.050000	329.00	0.04	-0.02	0.25	0.00	0.75	0.75	0.50	0.75	0.25	3.50	0.25	0.00	0.25	1.25	5.00	1.50	0.00	0.75	-0.183594	0.125488	0.973633	-3.360000	-8.260000	2.100000	169.00	0.06	-0.27
0.83	0.75	1.25	3.00	2.00	3.00	1.50	1.25	2.00	3.25	1.50	1.25	1.00	2.00	5.00	0.50	0.50	-0.207031	0.062500	0.955566	-1.400000	8.680000	0.000000	323.00	0.05	-0.02	0.00	0.25	0.75	0.75	1.00	0.75	0.25	3.75	0.25	0.25	0.50	1.75	5.00	1.25	0.00	0.75	-0.173340	0.126953	0.971680	-3.150000	-7.910000	1.960000	187.00	0.06	-0.26
0.84	0.50	1.25	3.00	2.00	3.00	1.50	1.25	2.00	3.25	1.50	1.25	0.75	2.00	4.75	0.25	0.75	-0.203613	0.064453	0.958008	-1.890000	8.330000	-1.050000	314.00	0.04	-0.02	0.00	0.25	0.75	1.00	1.00	1.00	0.50	4.25	0.25	0.00	0.50	1.75	5.25	1.50	0.00	1.00	-0.177734	0.119629	0.971680	-2.730000	-7.910000	1.960000	206.00	0.05	-0.26
0.85	0.75	1.25	2.75	1.75	3.00	1.50	1.25	1.75	3.50	1.75	1.00	1.00	2.00	5.00	0.50	0.75	-0.204590	0.066895	0.951172	-2.170000	7.350000	-1.890000	318.00	0.06	-0.01	0.00	0.00	1.00	1.00	1.00	1.00	0.50	5.00	0.75	0.00	0.50	1.75	5.25	1.50	0.25	0.75	-0.178223	0.123047	0.975098	-2.380000	-7.910000	1.820000	226.00	0.06	-0.24
0.86	0.25	1.00	3.00	1.75	3.00	1.50	1.25	2.00	3.75	1.75	1.00	0.75	2.00	4.75	0.50	0.50	-0.202637	0.064941	0.951660	-2.380000	6.370000	-2.520000	314.00	0.06	-0.01	0.00	0.00	0.75	1.00	1.00	1.25	0.50	5.25	0.25	0.00	0.50	1.75	5.50	1.50	0.25	0.75	-0.176270	0.122559	0.972168	-1.960000	-7.560000	1.890000	226.00	0.06	-0.27
0.87	0.75	1.25	2.75	2.00	3.00	1.50	1.25	2.00	3.50	1.50	1.00	1.00	1.75	5.00	0.25	0.75	-0.206055	0.061523	0.953125	-2.590000	5.390000	-2.800000	317.00	0.05	-0.01	0.00	0.00	1.00	1.00	1.00	1.25	0.50	5.50	0.50	0.00	0.50	2.00	5.50	2.00	0.00	1.00	-0.168945	0.128418	0.972656	-1.680000	-7.280000	1.890000	241.00	0.06	-0.25
0.88	0.75	1.00	2.75	2.25	3.00	1.50	1.25	2.00	3.25	1.50	1.25	0.75	1.75	4.75	0.50	0.75	-0.208008	0.054199	0.954590	-2.800000	4.760000	-2.940000	315.00	0.05	-0.02	0.00	0.00	0.75	1.50	1.00	1.50	0.50	5.75	0.75	0.25	0.75	2.00	6.00	1.75	0.25	1.00	-0.173828	0.133789	0.971680	-1.260000	-6.720000	1.960000	264.00	0.06	-0.25
0.89	1.00	0.75	3.25	2.00	3.00	1.25	1.25	2.00	3.25	1.75	1.00	0.75	2.00	5.00	0.25	0.50	-0.206055	0.056641	0.956055	-2.730000	4.060000	-2.800000	316.00	0.04	-0.01	0.25	0.00	1.00	1.50	1.00	1.75	0.50	5.75	0.75	0.00	0.75	2.25	6.25	1.75	0.25	1.00	-0.168945	0.120117	0.980957	-0.980000	-5.180000	1.820000	274.00	0.05	-0.25
0.90	0.75	1.00	3.00	2.00	3.25	1.75	1.25	2.00	3.25	1.50	1.00	1.00	2.00	4.75	0.25	0.50	-0.205566	0.058105	0.951660	-2.730000	4.060000	-2.660000	319.00	0.04	-0.02	0.25	0.25	0.75	1.25	1.00	1.50	0.50	6.00	0.50	0.25	0.75	2.00	6.50	1.75	0.00	1.00	-0.177246	0.123047	0.982910	-0.560000	-3.010000	1.890000	268.00	0.05	-0.26
0.91	0.50	1.00	3.00	2.00	3.25	1.50	1.25	2.00	3.25	1.50	1.25	0.75	2.00	4.50	0.50	0.50	-0.208496	0.054199	0.957520	-2.170000	4.970000	-1.750000	314.00	0.05	-0.02	0.00	0.00	0.75	1.25	1.00	1.25	0.50	6.00	0.50	0.00	0.75	2.25	6.50	2.00	0.25	1.00	-0.180176	0.124512	0.977539	-0.210000	-0.980000	2.030000	265.00	0.07	-0.27
0.92	1.00	1.50	3.00	2.50	3.00	1.50	1.25	2.00	3.00	1.50	1.00	0.75	1.75	4.25	0.50	0.50	-0.208496	0.054199	0.957520	-2.170000	4.970000	-1.750000	316.00	0.02	-0.02	0.00	0.50	0.75	0.75	1.00	1.25	0.50	6.00	0.50	0.00	0.75	2.00	6.50	1.75	0.25	1.00	-0.182617	0.124023	0.978516	0.840000	1.750000	2.520000	259.00	0.06	-0.27
0.93	1.00	1.25	3.50	2.50	3.25	1.75	1.25	1.75	3.00	1.50	1.00	0.75	1.50	4.25	0.50	0.50	-0.204102	0.062012	0.953125	-1.540000	6.440000	-0.910000	319.00	0.01	-0.02	0.00	0.00	0.75	1.25	0.50	1.00	0.50	6.00	0.50	0.00	0.50	2.25	6.25	1.75	0.00	1.00	-0.178711	0.128418	0.973633	1.330000	1.820000	2.450000	247.00	0.06	-0.28
0.94	1.00	1.75	3.25	2.50	3.00	1.75	1.25	1.50	2.75	1.25	1.00	0.75	1.50	4.25	0.25	0.50	-0.197266	0.058105	0.960938	-1.330000	6.860000	-0.980000	306.00	0.00	-0.02	0.00	0.00	0.50	0.50	0.75	1.25	0.25	6.00	0.00	0.00	0.50	2.00	6.50	1.25	0.25	1.00	-0.181152	0.132324	0.964355	2.450000	1.120000	2.590000	229.00	0.07	-0.31
0.95	1.00	1.50	3.25	2.50	3.25	1.75	1.00	1.75	2.75	1.25	0.75	0.75	1.50	4.00	0.25	0.50	-0.205566	0.057129	0.953125	-1.190000	7.630000	-1.120000	302.00	0.00	-0.02	0.00	0.00	0.50	0.75	0.50	1.25	0.25	6.00	0.25	0.00	0.25	2.00	6.50	1.25	0.25	1.00	-0.182617	0.133301	0.969727	3.010000	-0.350000	2.590000	230.00	0.07	-0.31
0.96	1.00	1.50	3.25	2.75	3.00	1.50	1.25	1.50	2.75	1.00	1.00	0.50	1.50	4.25	0.25	0.50	-0.202637	0.062500	0.956055	-1.120000	8.330000	-1.050000	298.00	0.00	-0.01	0.00	0.00	0.75	1.00	0.50	1.00	0.25	6.25	0.00	0.00	0.25	1.75	6.25	1.00	0.25	0.50	-0.171875	0.138672	0.959961	2.660000	-1.890000	2.590000	224.00	0.05	-0.32
0.97	1.25	1.50	3.25	2.50	3.00	1.75	1.25	1.50	2.75	1.00	0.75	0.75	1.25	4.25	0.50	0.75	-0.206543	0.062500	0.946777	-1.050000	8.470000	-0.980000	303.00	0.00	-0.01	0.00	0.00	0.50	1.00	0.75	1.50	0.25	6.25	0.00	0.00	0.25	2.00	6.25	1.00	0.00	0.75	-0.190430	0.133301	0.963379	1.960000	-3.500000	2.380000	230.00	0.04	-0.32
0.98	1.00	0.75	3.25	2.50	2.75	1.50	1.00	1.50	2.25	1.00	0.50	0.50	1.25	3.75	0.50	0.50	-0.204102	0.059082	0.956055	-1.050000	8.050000	-0.980000	267.00	0.00	-0.02	0.00	0.00	0.75	1.25	0.50	1.25	0.25	6.25	0.00	0.00	0.25	1.50	6.00	0.75	0.00	0.50	-0.194336	0.141113	0.964844	0.560000	-5.320000	2.100000	220.00	0.03	-0.32
0.99	1.25	1.75	3.50	2.50	3.00	1.50	1.00	1.50	2.25	0.75	0.75	0.25	1.25	3.75	0.50	0.50	-0.208008	0.062988	0.952637	-1.470000	7.770000	-1.190000	281.00	-0.02	-0.02	0.25	0.25	1.00	1.00	0.75	1.75	0.25	6.00	0.00	0.00	0.25	1.50	5.75	0.75	0.00	0.25	-0.189453	0.141113	0.965332	-0.070000	-8.610000	2.450000	225.00	0.01	-0.30
1.00	1.25	1.50	3.50	2.75	3.00	1.50	1.00	1.25	2.25	0.75	0.50	0.50	1.25	3.50	0.25	0.50	-0.207031	0.057617	0.957520	-2.030000	6.370000	-1.400000	273.00	-0.03	-0.02	0.00	0.25	1.00	2.00	0.75	2.50	0.25	6.25	0.00	0.00	0.00	1.25	5.50	1.00	0.00	0.00	-0.166992	0.135742	0.971191	-0.490000	-11.200000	2.380000	239.00	-0.01	-0.30
1.01	1.25	1.75	3.75	3.00	3.25	1.50	1.00	1.25	1.75	0.50	0.75	0.25	1.25	3.50	0.25	0.50	-0.217773	0.030762	0.951660	-2.100000	4.970000	-1.680000	275.00	-0.05	-0.02	0.25	0.50	1.25	2.00	1.00	2.75	0.25	6.25	0.00	0.00	0.00	1.25	5.25	0.75	0.00	0.25	-0.175781	0.139648	0.979004	-2.730000	-12.250000	1.820000	249.00	-0.02	-0.29
1.02	1.25	1.75	4.00	3.00	3.25	1.25	1.00	1.50	1.25	0.50	0.50	0.25	1.00	3.50	0.00	0.25	-0.233887	0.070801	0.965332	-1.470000	3.780000	-2.030000	263.00	-0.07	-0.03	0.75	0.75	1.50	2.50	1.25	3.00	0.25	6.00	0.00	0.00	0.00	1.00	5.00	1.00	0.00	0.00	-0.188965	0.124512	0.973145	-5.320000	-12.880000	1.540000	263.00	-0.05	-0.26
1.03	1.50	2.25	4.50	3.25	3.25	1.75	1.00	1.25	1.50	0.25	0.50	0.25	0.75	2.50	0.25	0.25	-0.246094	0.056152	0.963867	-1.050000	4.060000	-2.520000	273.00	-0.10	-0.03	0.50	1.25	1.75	3.00	1.25	3.25	0.25	5.75	0.00	0.00	0.00	1.00	4.50	1.00	0.00	0.25	-0.189453	0.129395	0.987305	-7.630000	-14.000000	1.260000	269.00	-0.06	-0.26
1.04	2.00	2.75	5.00	4.00	3.50	2.00	1.00	1.25	0.75	0.00	0.25	0.25	0.50	2.50	0.00	0.00	-0.203125	0.070312	0.952148	-1.190000	4.200000	-3.150000	281.00	-0.14	-0.04	1.00	1.25	2.25	3.75	1.75	3.25	0.25	5.25	0.00	0.00	0.00	0.75	3.75	1.00	0.00	0.00	-0.179199	0.131836	0.995605	-7.210000	-16.520000	0.560000	275.00	-0.09	-0.23
1.05	2.25	2.75	5.50	4.50	3.75	2.50	1.00	1.00	0.75	0.25	0.25	0.00	0.50	2.00	0.25	0.00	-0.185059	0.063965	0.969238	-2.660000	4.410000	-4.060000	297.00	-0.16	-0.04	1.25	2.00	3.00	4.25	2.00	3.75	0.25	4.50	0.00	0.00	0.00	0.50	2.75	1.00	0.00	0.00	-0.229004	0.095703	1.030273	-2.170000	-24.780001	0.280000	284.00	-0.13	-0.20
1.06	2.50	3.00	6.00	5.00	4.25	2.50	0.75	1.00	0.75	0.25	0.00	0.00	0.25	1.50	0.00	0.00	-0.185547	0.071777	0.969238	-3.920000	3.360000	-3.990000	303.00	-0.18	-0.04	1.75	2.00	3.25	5.00	2.00	3.75	0.25	3.75	0.00	0.00	0.00	0.25	1.75	0.75	0.00	0.00	-0.165527	0.124023	1.038086	6.160000	-34.860001	-0.210000	275.00	-0.16	-0.17
1.07	3.00	3.75	7.00	5.75	4.25	2.50	0.75	1.00	1.00	0.25	0.00	0.00	0.50	1.75	0.00	0.00	-0.173340	0.079102	0.967285	-5.740000	0.070000	-3.290000	342.00	-0.19	-0.04	2.00	3.00	4.00	5.00	2.25	3.75	0.25	3.00	0.00	0.00	0.00	0.00	0.75	1.00	0.00	0.00	-0.092285	0.123535	1.007812	9.100000	-44.380001	-0.000000	278.00	-0.19	-0.14
1.08	3.50	4.25	7.25	5.75	4.75	2.50	0.75	0.75	0.50	0.00	0.00	0.00	0.25	1.75	0.00	0.00	-0.215820	0.061035	0.998535	-5.950000	-1.960000	-2.030000	345.00	-0.21	-0.03	2.50	3.75	4.75	5.50	2.50	3.50	0.00	2.25	0.00	0.00	0.00	0.00	1.00	1.00	0.00	0.00	-0.088379	0.110352	1.044434	6.300000	-45.639999	-1.540000	291.00	-0.21	-0.13
1.09	4.00	4.25	7.25	6.25	4.50	2.50	0.50	0.50	0.00	0.00	0.00	0.00	0.25	1.25	0.00	0.00	-0.244141	0.061523	1.000488	-6.650000	-3.570000	-0.700000	335.00	-0.24	-0.04	3.00	4.25	5.50	6.00	2.75	3.25	0.00	1.50	0.00	0.00	0.00	0.00	0.50	1.00	0.00	0.00	-0.119141	0.185059	1.067871	-3.430000	-55.299999	-2.590000	299.00	-0.23	-0.10
1.10	4.25	4.75	7.75	7.00	4.25	2.75	0.50	0.50	0.00	0.00	0.00	0.00	0.00	1.00	0.00	0.00	-0.207520	0.059082	1.021484	-6.790000	-0.420000	0.700000	351.00	-0.25	-0.05	3.50	5.00	5.50	6.00	2.50	3.00	0.00	1.25	0.00	0.00	0.00	0.00	0.50	1.00	0.00	0.00	-0.112793	0.172852	1.034668	-31.920000	-64.470001	5.460000	301.00	-0.24	-0.09
1.11	5.25	5.00	8.00	7.25	4.25	2.25	0.25	0.50	0.00	0.00	0.00	0.00	0.00	1.25	0.00	0.00	-0.118164	0.118164	1.153809	-10.360000	6.860000	-2.380000	362.00	-0.26	-0.04	4.00	5.25	5.75	6.00	2.50	2.50	0.00	0.75	0.00	0.00	0.00	0.00	0.25	1.00	0.00	0.00	-0.178223	0.090332	0.916504	-33.320000	-62.160000	6.930000	296.00	-0.26	-0.08
1.12	5.25	5.25	8.00	7.00	4.00	2.25	0.25	0.25	0.25	0.00	0.00	0.00	0.00	0.75	0.00	0.00	-0.191895	0.050293	1.076172	-17.990000	-7.560000	-0.840000	354.00	-0.26	-0.04	4.50	5.25	6.00	5.75	2.50	2.00	0.00	0.50	0.00	0.00	0.00	0.00	0.50	1.25	0.00	0.00	-0.066406	0.081055	0.931152	-30.799999	-53.760002	5.110000	297.00	-0.26	-0.06
1.13	5.50	5.50	8.25	7.00	3.75	1.75	0.25	0.25	0.00	0.00	0.00	0.00	0.00	0.75	0.00	0.00	-0.204590	0.064453	0.999512	-20.510000	-22.540001	0.700000	351.00	-0.27	-0.04	4.50	5.50	6.25	6.25	2.50	1.75	0.00	0.25	0.00	0.00	0.00	0.00	0.25	1.00	0.00	0.00	-0.068359	0.106934	0.853027	-27.510000	-46.410000	3.780000	296.00	-0.27	-0.06
1.14	5.75	5.50	7.50	7.00	3.50	1.50	0.25	0.25	0.25	0.00	0.00	0.00	0.00	0.75	0.00	0.00	-0.135254	0.028809	0.888184	-10.150000	-23.240000	0.350000	343.00	-0.27	-0.04	5.25	5.75	6.50	6.25	2.25	1.75	0.00	0.25	0.00	0.00	0.00	0.00	0.00	1.25	0.00	0.00	-0.051758	0.094727	0.859375	-22.049999	-36.259998	4.480000	307.00	-0.28	-0.05
1.15	5.50	5.25	7.50	7.00	3.00	1.50	0.25	0.25	0.00	0.00	0.00	0.00	0.00	0.75	0.00	0.00	-0.135742	0.043457	0.860840	-3.640000	-16.520000	-0.490000	329.00	-0.28	-0.04	5.50	5.75	6.50	6.00	2.25	1.75	0.00	0.25	0.00	0.00	0.00	0.00	0.25	1.50	0.00	0.00	-0.076172	0.096191	1.059082	-14.140000	-27.790001	4.620000	311.00	-0.27	-0.05
1.16	5.50	5.00	7.50	6.50	2.75	1.25	0.00	0.00	0.25	0.00	0.00	0.00	0.00	0.50	0.00	0.00	-0.147461	0.059570	0.868652	0.070000	-7.770000	-0.280000	309.00	-0.28	-0.03	6.00	6.25	7.00	6.50	2.50	1.25	0.00	0.00	0.00	0.00	0.00	0.00	0.00	1.25	0.00	0.00	-0.097656	0.059082	1.020020	-9.170000	-31.500000	3.850000	321.00	-0.28	-0.04
1.17	5.00	5.00	7.00	6.50	2.75	1.00	0.25	0.00	0.25	0.00	0.00	0.00	0.00	0.50	0.00	0.00	-0.139160	0.037598	0.845703	0.770000	1.330000	0.280000	300.00	-0.28	-0.03	6.25	6.75	6.75	6.50	2.25	1.50	0.00	0.00	0.00	0.00	0.00	0.00	0.00	1.00	0.00	0.00	-0.056152	0.095215	0.882812	-5.810000	-29.469999	2.590000	323.00	-0.29	-0.04
1.18	5.00	5.00	6.75	6.25	2.50	1.00	0.25	0.00	0.50	0.00	0.00	0.00	0.00	0.50	0.00	0.00	-0.145996	0.033203	0.914551	0.560000	11.340000	-0.350000	295.00	-0.28	-0.03	6.75	7.00	7.50	7.25	2.25	1.75	0.00	0.00	0.00	0.00	0.00	0.00	0.25	1.25	0.00	0.00	-0.049316	0.125977	0.893555	-3.010000	-21.629999	2.450000	354.00	-0.29	-0.05
1.19	4.75	4.75	6.75	6.00	2.25	0.75	0.25	0.00	0.00	0.00	0.00	0.00	0.00	0.50	0.00	0.00	-0.178711	0.025879	0.937012	-0.420000	13.510000	-1.820000	275.00	-0.29	-0.03	6.75	7.25	7.50	7.50	2.25	1.50	0.00	0.00	0.00	0.00	0.00	0.00	0.00	1.00	0.00	0.00	-0.058105	0.118652	0.869629	-2.590000	-13.580000	2.940000	352.00	-0.30	-0.05
1.20	4.25	4.50	6.50	5.75	2.00	0.75	0.25	0.00	0.00	0.00	0.00	0.00	0.00	0.25	0.00	0.00	-0.153809	0.043945	0.873047	-1.820000	16.940001	-3.010000	257.00	-0.29	-0.04	7.00	7.75	7.50	7.50	2.50	1.75	0.00	0.00	0.00	0.00	0.00	0.00	0.25	1.50	0.00	0.00	-0.018066	0.090332	0.744141	-4.830000	-1.330000	3.080000	371.00	-0.28	-0.05
1.21	4.25	4.50	6.25	5.75	2.25	0.50	0.00	0.00	0.25	0.00	0.00	0.00	0.00	0.50	0.00	0.00	-0.161133	0.041992	0.889160	-2.240000	23.660000	-3.220000	256.00	-0.29	-0.03	7.00	7.75	7.75	7.75	2.50	2.00	0.00	0.00	0.00	0.00	0.00	0.00	0.00	1.25	0.00	0.00	-0.031250	0.089355	0.880859	-8.120000	15.750000	1.680000	375.00	-0.29	-0.05
1.22	4.00	4.00	6.00	5.75	2.00	0.50	0.25	0.00	0.25	0.00	0.00	0.00	0.00	0.25	0.00	0.00	-0.166016	0.032715	0.886719	-2.520000	29.120001	-3.640000	245.00	-0.28	-0.03	7.25	7.75	8.00	7.75	2.75	1.75	0.00	0.00	0.00	0.00	0.00	0.00	0.00	1.25	0.00	0.00	-0.085938	0.093750	1.022461	-10.500000	21.350000	-0.070000	381.00	-0.29	-0.04
1.23	3.75	3.75	6.00	5.50	2.00	0.50	0.25	0.00	0.25	0.00	0.00	0.00	0.25	0.00	0.00	0.00	-0.158691	0.053223	0.887695	-1.050000	35.560001	-3.430000	237.00	-0.28	-0.04	7.50	8.00	8.00	8.25	3.00	2.00	0.00	0.00	0.00	0.00	0.00	0.00	0.00	1.25	0.00	0.00	-0.092285	0.125977	1.079590	-11.270000	18.830000	-0.420000	396.00	-0.29	-0.05
1.24	3.50	3.75	6.00	5.50	2.25	0.75	0.25	0.00	0.00	0.25	0.00	0.00	0.00	0.00	0.00	0.00	-0.153320	0.017578	0.915527	2.660000	39.340000	-3.010000	237.00	-0.28	-0.04	7.75	8.00	8.25	8.50	3.00	2.00	0.00	0.00	0.00	0.00	0.00	0.00	0.00	1.25	0.00	0.00	-0.116699	0.125977	1.123535	-9.380000	9.380000	1.400000	404.00	-0.29	-0.05
1.25	3.50	3.75	5.75	5.25	2.25	1.00	0.25	0.00	0.00	0.00	0.00	0.00	0.00	0.50	0.00	0.00	-0.172852	0.010742	0.884277	6.860000	41.930000	-4.690000	236.00	-0.28	-0.04	8.00	8.25	8.50	8.75	3.50	2.25	0.00	0.00	0.00	0.00	0.00	0.00	0.25	1.25	0.00	0.00	-0.085449	0.104980	0.977539	-8.890000	0.840000	2.660000	425.00	-0.29	-0.05
1.26	3.25	3.25	5.75	5.00	2.25	0.75	0.25	0.00	0.25	0.00	0.00	0.00	0.00	0.00	0.00	0.00	-0.179688	0.011719	0.949707	15.330000	43.820000	-6.230000	223.00	-0.28	-0.03	8.25	8.75	8.50	9.00	3.50	2.50	0.00	0.00	0.00	0.00	0.00	0.00	0.25	1.25	0.00	0.00	-0.066406	0.088867	0.942871	-8.120000	0.770000	2.660000	438.00	-0.29	-0.05
1.27	3.00	3.25	5.50	5.00	2.25	0.75	0.25	0.25	0.00	0.00	0.00	0.00	0.00	0.25	0.00	0.00	-0.226074	0.044922	1.062500	23.590000	37.590000	-7.140000	220.00	-0.27	-0.04	8.50	9.25	8.75	8.75	4.00	2.25	0.00	0.00	0.00	0.00	0.00	0.00	0.00	1.00	0.00	0.00	-0.077637	0.084961	1.007812	-7.070000	1.890000	2.170000	444.00	-0.29	-0.04
1.28	3.00	3.25	5.50	4.50	2.25	0.75	0.25	0.25	0.25	0.00	0.00	0.00	0.00	0.50	0.00	0.00	-0.258789	0.103027	1.073242	25.340000	27.440001	-6.650000	220.00	-0.26	-0.03	8.75	9.50	9.00	9.25	4.50	2.75	0.00	0.00	0.00	0.00	0.00	0.00	0.00	1.25	0.00	0.00	-0.113281	0.104980	1.079590	-2.730000	-7.210000	2.240000	470.00	-0.29	-0.05
1.29	2.50	2.50	5.00	4.50	2.25	0.50	0.25	0.25	0.25	0.00	0.00	0.00	0.00	0.50	0.00	0.00	-0.221680	0.079590	1.021973	20.510000	19.950001	-4.760000	199.00	-0.25	-0.03	9.25	9.50	9.25	9.50	4.25	2.75	0.00	0.00	0.00	0.00	0.00	0.00	0.00	1.25	0.00	0.00	-0.113281	0.104980	1.079590	-2.730000	-7.210000	2.240000	478.00	-0.29	-0.05
1.30	2.25	3.00	5.00	4.00	2.25	0.75	0.50	0.25	0.25	0.25	0.00	0.00	0.00	0.50	0.00	0.00	-0.220703	0.064453	0.999512	15.610000	19.040001	-4.270000	205.00	-0.24	-0.03	9.50	10.00	9.25	9.75	4.50	3.00	0.00	0.25	0.00	0.00	0.00	0.00	0.00	1.00	0.00	0.00	-0.082031	0.091309	0.965332	-0.630000	-12.250000	3.150000	495.00	-0.29	-0.05
1.31	2.25	2.50	3.75	3.50	2.00	0.50	0.25	0.25	0.25	0.00	0.00	0.00	0.25	0.25	0.00	0.00	-0.221191	0.070312	0.993652	12.180000	21.770000	-4.270000	169.00	-0.25	-0.04	10.25	10.25	9.50	9.75	5.00	3.25	0.00	0.25	0.00	0.00	0.00	0.00	0.25	1.00	0.00	0.00	-0.091309	0.079590	1.034180	1.750000	-9.660000	1.750000	518.00	-0.29	-0.05
1.32	1.75	2.00	3.75	3.00	2.00	0.25	0.50	0.25	0.25	0.00	0.00	0.00	0.00	0.00	0.00	0.00	-0.238770	0.092285	1.010254	9.450000	24.920000	-3.990000	151.00	-0.25	-0.02	10.50	10.75	9.75	10.00	5.00	3.75	0.00	0.00	0.00	0.00	0.00	0.00	0.25	1.25	0.00	0.00	-0.086914	0.095703	0.958984	3.990000	-11.830000	0.980000	535.00	-0.29	-0.05
1.33	1.50	1.50	3.25	2.50	1.25	0.25	0.25	0.25	0.00	0.00	0.00	0.00	0.00	0.75	0.00	0.00	-0.254883	0.078125	0.974609	8.540000	27.160000	-2.520000	123.00	-0.23	-0.02	11.25	11.25	10.00	10.50	5.50	4.00	0.00	0.25	0.00	0.00	0.00	0.00	0.25	1.00	0.00	0.00	-0.070801	0.116211	0.993652	6.090000	-10.290000	1.260000	565.00	-0.29	-0.05
1.34	1.00	1.50	1.75	1.00	1.50	0.00	0.25	0.25	0.25	0.00	0.00	0.00	0.00	0.75	0.00	0.00	-0.200684	0.085938	0.966309	7.840000	31.639999	-4.690000	88.00	-0.19	0.01	11.75	11.75	10.25	10.75	5.50	4.00	0.00	0.25	0.00	0.00	0.00	0.00	0.25	1.25	0.00	0.00	-0.092285	0.107422	1.034668	7.350000	-13.860000	2.380000	583.00	-0.29	-0.05
1.35	0.75	1.25	2.00	1.25	0.75	0.00	0.25	0.25	0.00	0.00	0.00	0.00	0.25	0.25	0.00	0.00	-0.229980	0.081543	0.962402	6.230000	33.459999	-5.600000	75.00	-0.23	-0.04	12.00	12.25	10.25	11.00	5.50	4.25	0.00	0.25	0.00	0.00	0.00	0.00	0.25	1.00	0.00	0.00	-0.060059	0.098633	0.922363	7.350000	-13.650000	3.220000	593.00	-0.29	-0.05
1.36	0.50	1.00	1.50	0.75	0.75	0.00	0.25	0.00	0.25	0.25	0.00	0.00	0.00	0.25	0.00	0.00	-0.230957	0.082520	0.984375	6.580000	36.959999	-7.420000	59.00	-0.19	0.03	12.75	12.75	10.75	11.25	5.75	4.50	0.00	0.25	0.00	0.00	0.00	0.00	0.00	1.00	0.00	0.00	-0.057129	0.066895	0.943848	6.090000	-8.820000	2.310000	617.00	-0.29	-0.05
1.37	0.50	0.75	1.25	0.50	0.25	0.00	0.25	0.00	0.00	0.00	0.00	0.00	0.00	0.25	0.00	0.00	-0.203613	0.076172	0.974121	13.370000	53.200001	-11.830000	40.00	0.00	0.00	13.00	13.00	11.00	11.50	5.75	5.00	0.00	0.25	0.00	0.00	0.00	0.00	0.25	1.00	0.00	0.00	-0.062012	0.091309	0.912598	4.340000	-4.480000	0.070000	635.00	-0.29	-0.05
1.38	0.25	0.25	1.00	0.75	0.00	0.00	0.00	0.00	0.00	0.00	0.00	0.00	0.00	0.50	0.00	0.00	-0.215820	0.126953	1.069824	16.520000	79.730003	-11.480000	29.00	0.00	0.00	13.50	13.25	11.00	11.25	6.00	5.00	0.00	0.25	0.00	0.00	0.00	0.00	0.25	1.00	0.00	0.00	-0.038086	0.117676	0.833496	0.560000	4.620000	-0.980000	643.00	-0.29	-0.05
1.39	0.25	0.75	1.25	0.50	0.00	0.00	0.00	0.00	0.00	0.00	0.00	0.00	0.00	0.25	0.00	0.00	-0.211914	0.054688	1.167480	16.100000	120.680000	-12.880000	31.00	0.00	0.00	13.50	13.50	11.00	11.50	6.25	5.00	0.00	0.25	0.00	0.00	0.00	0.00	0.25	1.25	0.00	0.00	-0.051758	0.141602	1.010742	-2.100000	16.240000	-1.260000	653.00	-0.29	-0.05
1.40	0.50	0.25	0.75	0.25	0.00	0.00	0.00	0.00	0.00	0.00	0.00	0.00	0.00	0.00	0.00	0.00	-0.170898	0.161133	1.370605	12.040000	128.869995	-15.540000	19.00	0.00	0.00	13.25	13.25	11.25	11.75	6.50	5.25	0.00	0.25	0.00	0.00	0.00	0.00	0.25	1.25	0.00	0.00	-0.110840	0.101074	1.061035	-3.290000	12.740000	-1.330000	659.00	-0.29	-0.05
1.41	0.25	0.00	0.75	0.00	0.00	0.00	0.00	0.00	0.00	0.00	0.00	0.00	0.00	0.25	0.00	0.00	0.056152	-0.074707	1.418945	6.510000	120.680000	-27.790001	13.00	0.00	0.00	13.25	13.25	11.00	11.75	6.75	5.50	0.00	0.50	0.00	0.00	0.00	0.00	0.00	1.00	0.00	0.00	-0.062988	0.115234	0.939453	-3.430000	10.220000	-0.630000	661.00	-0.29	-0.06
1.42	0.00	0.25	0.75	0.00	0.00	0.00	0.00	0.00	0.00	0.00	0.00	0.00	0.00	0.00	0.00	0.00	0.087891	0.037598	1.281738	45.150002	113.889999	-37.730000	11.00	0.00	0.00	13.25	13.25	11.25	11.75	6.75	5.75	0.00	0.50	0.00	0.00	0.00	0.00	0.00	1.25	0.00	0.00	-0.071289	0.094727	0.965332	-3.710000	12.880000	-0.560000	668.00	-0.29	-0.05
1.43	0.00	0.50	0.75	0.00	0.00	0.00	0.00	0.00	0.00	0.00	0.00	0.00	0.00	0.25	0.00	0.00	0.261719	-0.274902	1.215332	45.150002	119.699997	-48.790001	15.00	0.00	0.00	13.25	13.00	11.25	11.75	7.00	5.75	0.00	0.50	0.00	0.00	0.00	0.00	0.25	1.00	0.00	0.00	-0.137207	0.098633	1.045898	-2.660000	13.440001	-1.050000	669.00	-0.29	-0.06
1.44	0.00	0.25	0.25	0.25	0.00	0.00	0.00	0.00	0.00	0.00	0.00	0.00	0.00	0.00	0.00	0.00	0.311035	-0.026855	1.724609	9.380000	111.300003	-58.240002	8.00	0.00	0.00	13.00	13.00	11.00	11.75	7.00	6.25	0.00	0.75	0.00	0.00	0.00	0.00	0.25	1.00	0.00	0.00	-0.101562	0.111816	1.036621	-0.210000	11.410000	-0.700000	673.00	-0.28	-0.06
1.45	0.00	0.00	0.50	0.00	0.00	0.00	0.00	0.00	0.00	0.00	0.00	0.00	0.00	0.00	0.00	0.00	0.500977	0.064453	1.626953	0.910000	87.639999	-67.760002	6.00	0.00	0.00	12.75	12.75	11.00	11.50	7.25	6.25	0.00	0.50	0.00	0.00	0.00	0.00	0.25	0.75	0.00	0.00	-0.086914	0.118164	0.958008	0.490000	10.500000	-0.000000	662.00	-0.28	-0.06
1.46	0.00	0.50	0.50	0.00	0.00	0.00	0.00	0.00	0.00	0.00	0.00	0.00	0.00	0.00	0.00	0.00	0.533203	-0.012207	1.327637	9.240000	67.690002	-79.099998	10.00	0.00	0.00	12.50	12.50	11.00	11.50	7.25	6.50	0.00	0.75	0.00	0.00	0.00	0.00	0.25	0.75	0.00	0.00	-0.076660	0.083984	0.923340	-0.140000	12.390000	0.280000	664.00	-0.28	-0.06
1.47	0.25	0.25	0.50	0.00	0.00	0.00	0.00	0.00	0.00	0.00	0.00	0.00	0.00	0.00	0.00	0.00	0.618164	-0.013672	1.195312	8.540000	57.889999	-88.129997	10.00	0.00	0.00	12.00	12.25	11.00	11.50	7.50	6.75	0.00	1.00	0.00	0.00	0.00	0.00	0.00	0.75	0.00	0.00	-0.062012	0.086426	0.898926	-1.050000	17.290001	-0.980000	663.00	-0.28	-0.06
1.48	0.00	0.25	0.50	0.00	0.00	0.00	0.00	0.00	0.00	0.00	0.00	0.00	0.00	0.00	0.00	0.00	0.725098	0.110840	1.269531	6.440000	48.090000	-92.750000	8.00	0.00	0.00	11.75	12.00	10.75	11.50	7.50	6.75	0.25	1.25	0.00	0.00	0.00	0.00	0.25	1.00	0.00	0.00	-0.086426	0.100586	0.912109	-1.680000	23.030001	-2.590000	667.00	-0.27	-0.07
1.49	0.00	0.00	0.75	0.00	0.00	0.00	0.00	0.00	0.00	0.00	0.00	0.00	0.00	0.00	0.00	0.00	0.805664	0.165039	1.245117	10.710000	33.110001	-93.800003	8.00	0.00	0.00	11.25	11.75	10.75	11.25	8.00	7.25	0.25	1.25	0.00	0.00	0.00	0.00	0.25	1.00	0.00	0.00	-0.103027	0.098633	0.987305	-1.610000	28.350000	-3.640000	668.00	-0.27	-0.07
1.50	0.00	0.00	0.25	0.00	0.00	0.00	0.00	0.00	0.00	0.00	0.00	0.00	0.00	0.00	0.00	0.00	0.826660	0.158691	1.134766	14.840000	18.760000	-91.349998	3.00	0.00	0.00	11.00	11.25	10.50	11.25	8.00	7.50	0.25	1.50	0.00	0.00	0.00	0.00	0.25	0.75	0.00	0.00	-0.128418	0.107910	1.057617	-2.450000	28.280001	-4.690000	663.00	-0.27	-0.07
1.51	0.25	0.00	0.25	0.00	0.00	0.00	0.00	0.00	0.00	0.00	0.00	0.00	0.00	0.00	0.00	0.00	0.849609	0.175781	1.124023	17.360001	7.910000	-85.260002	5.00	0.00	0.00	10.25	10.75	10.50	11.25	8.25	7.50	0.25	1.75	0.00	0.00	0.00	0.00	0.25	1.00	0.00	0.00	-0.132324	0.106934	1.029297	-5.880000	25.900000	-2.800000	659.00	-0.26	-0.07
1.52	0.25	0.00	0.25	0.00	0.00	0.00	0.00	0.00	0.00	0.00	0.00	0.00	0.00	0.00	0.00	0.00	0.878906	0.157227	1.136230	21.000000	-3.360000	-76.720001	5.00	0.00	0.00	9.75	10.25	10.50	11.00	8.75	8.00	0.25	2.00	0.00	0.00	0.00	0.00	0.25	1.00	0.00	0.00	-0.149902	0.105469	1.023438	-0.560000	24.920000	-3.710000	661.00	-0.25	-0.08
1.53	0.00	0.00	0.25	0.00	0.00	0.00	0.00	0.00	0.00	0.00	0.00	0.00	0.00	0.00	0.00	0.00	0.883301	0.109863	1.111328	23.730000	-14.280000	-67.760002	3.00	0.00	0.00	9.25	9.75	10.25	10.75	8.75	8.00	0.50	2.50	0.00	0.00	0.00	0.00	0.75	1.00	0.00	0.00	-0.138184	0.076660	1.011719	3.850000	23.799999	-4.760000	662.00	-0.24	-0.08
1.54	0.00	0.25	0.50	0.00	0.00	0.00	0.00	0.00	0.00	0.00	0.00	0.00	0.00	0.00	0.00	0.00	0.860352	0.079102	1.170898	24.990000	-24.990000	-58.730000	8.00	0.00	0.00	8.50	9.25	10.00	10.25	9.00	8.25	0.50	3.00	0.25	0.00	0.00	0.00	0.75	0.75	0.00	0.00	-0.151855	0.109375	0.995605	6.300000	17.920000	-4.620000	655.00	-0.24	-0.08
1.55	0.25	0.00	0.00	0.00	0.00	0.00	0.00	0.00	0.00	0.00	0.00	0.00	0.00	0.00	0.00	0.00	0.780273	-0.002930	1.215820	27.160000	-49.209999	-43.330002	3.00	0.00	0.00	8.00	8.75	10.00	10.25	9.25	8.50	0.75	3.50	0.25	0.50	0.00	0.25	1.25	1.00	0.00	0.00	-0.124023	0.107422	0.996094	5.460000	13.930000	-4.340000	676.00	-0.22	-0.09
1.56	0.00	0.00	0.50	0.00	0.00	0.00	0.00	0.00	0.00	0.00	0.00	0.00	0.00	0.25	0.00	0.00	0.732910	-0.055664	1.201172	28.000000	-60.200001	-38.709999	8.00	0.00	0.00	7.25	8.25	9.75	10.00	9.75	8.50	0.75	4.75	0.00	0.25	0.00	0.00	1.50	1.25	0.00	0.00	-0.156738	0.131836	1.001953	3.150000	9.660000	-3.990000	679.00	-0.21	-0.10
1.57	0.00	0.00	0.25	0.00	0.00	0.00	0.00	0.00	0.00	0.00	0.00	0.00	0.00	0.25	0.00	0.00	0.679199	-0.102051	1.209961	28.630001	-70.489998	-37.099998	5.00	0.00	0.00	6.75	7.50	9.50	9.50	9.75	8.75	1.00	5.25	0.25	0.50	0.00	0.00	1.50	1.25	0.00	0.00	-0.147461	0.108887	1.003418	3.290000	3.780000	-3.220000	678.00	-0.20	-0.10
1.58	0.00	0.25	0.25	0.00	0.00	0.00	0.00	0.00	0.00	0.00	0.00	0.00	0.00	0.00	0.00	0.00	0.625488	-0.137207	1.239746	28.280001	-80.500000	-38.009998	5.00	0.00	0.00	6.00	6.50	9.25	9.00	9.75	9.00	1.00	6.00	0.50	0.50	0.25	0.25	2.25	1.25	0.00	0.00	-0.154297	0.114258	0.997559	3.430000	-0.910000	-2.450000	682.00	-0.18	-0.11
1.59	0.00	0.00	0.50	0.00	0.00	0.00	0.00	0.00	0.00	0.00	0.00	0.00	0.00	0.00	0.00	0.00	0.553223	-0.143066	1.264648	28.070000	-90.720001	-40.529999	6.00	0.00	0.00	5.25	6.00	8.75	8.50	9.75	8.75	1.25	6.50	0.50	0.50	0.00	0.50	2.75	1.25	0.00	0.25	-0.149414	0.109863	0.990234	3.220000	-2.800000	-2.030000	673.00	-0.17	-0.12
1.60	0.00	0.00	0.25	0.00	0.00	0.00	0.00	0.00	0.00	0.00	0.00	0.00	0.00	0.00	0.00	0.00	0.468750	-0.145020	1.307129	27.510000	-100.309998	-43.680000	3.00	0.00	0.00	4.75	5.50	8.50	8.00	9.75	9.00	1.25	6.75	0.50	0.75	0.50	1.00	3.75	1.00	0.00	0.50	-0.145020	0.125977	0.980957	2.870000	-2.730000	-1.890000	683.00	-0.15	-0.13
1.61	0.00	0.00	0.00	0.00	0.00	0.00	0.00	0.00	0.00	0.00	0.00	0.00	0.00	0.00	0.00	0.00	0.383789	-0.113281	1.286621	24.360001	-109.340004	-46.619999	0.00	0.00	0.00	3.75	5.25	7.75	7.75	9.50	8.75	1.50	7.50	0.75	1.00	0.50	1.00	4.75	1.50	0.25	0.50	-0.153809	0.116211	0.988770	2.450000	-1.680000	-1.960000	690.00	-0.13	-0.13
1.62	0.00	0.25	0.25	0.00	0.00	0.00	0.00	0.00	0.00	0.00	0.00	0.00	0.00	0.00	0.00	0.00	0.283691	-0.048340	1.246094	22.049999	-115.989998	-48.509998	5.00	0.00	0.00	3.25	4.50	7.00	6.75	9.25	8.75	1.50	7.50	1.25	1.25	1.00	1.25	5.25	2.00	0.25	1.00	-0.148926	0.128906	0.986816	2.590000	-0.070000	-1.890000	684.00	-0.10	-0.13
1.63	0.00	0.25	0.25	0.00	0.00	0.00	0.00	0.00	0.25	0.00	0.00	0.00	0.00	0.00	0.00	0.00	0.194336	-0.001953	1.197266	22.330000	-120.959999	-49.000000	8.00	0.00	0.00	2.75	3.50	6.25	6.00	9.00	8.25	1.75	7.75	1.50	1.50	1.00	2.00	6.50	2.25	0.25	1.00	-0.147461	0.121582	0.986328	3.290000	2.240000	-1.400000	680.00	-0.08	-0.14
1.64	0.00	0.25	0.25	0.00	0.00	0.00	0.00	0.00	0.00	0.00	0.00	0.00	0.00	0.00	0.00	0.00	0.100098	0.029297	1.190918	22.400000	-123.830002	-47.880001	5.00	0.00	0.00	2.50	3.25	5.50	5.75	8.50	8.25	1.75	8.00	1.75	2.00	1.50	2.50	7.75	2.75	0.50	1.25	-0.149414	0.084473	0.979492	4.830000	4.760000	-0.700000	700.00	-0.05	-0.15
1.65	0.25	0.00	0.25	0.00	0.00	0.00	0.00	0.00	0.00	0.00	0.00	0.00	0.00	0.00	0.00	0.00	0.012695	0.071289	1.184082	22.540001	-125.580002	-44.869999	5.00	0.00	0.00	2.00	3.00	5.00	5.50	7.75	7.75	1.75	8.25	2.25	2.50	2.25	3.25	8.25	3.50	0.50	1.75	-0.170410	0.123047	0.983887	6.930000	7.420000	-0.000000	715.00	-0.03	-0.15
1.66	0.00	0.25	0.25	0.00	0.00	0.00	0.00	0.00	0.00	0.00	0.00	0.00	0.00	0.00	0.00	0.00	-0.077637	0.088867	1.176758	22.680000	-127.120003	-40.529999	5.00	0.00	0.00	1.75	2.25	4.00	4.25	6.50	7.50	1.75	8.25	2.75	2.75	2.75	4.00	8.75	4.00	0.75	2.00	-0.170898	0.117188	0.983887	8.750000	9.800000	0.350000	699.00	0.00	-0.15
1.67	0.00	0.00	0.25	0.00	0.00	0.00	0.00	0.00	0.00	0.00	0.00	0.00	0.00	0.00	0.00	0.00	-0.179688	0.115234	1.156738	22.469999	-128.240005	-34.650002	3.00	0.00	0.00	1.50	2.00	3.00	3.75	6.00	6.75	1.75	8.50	3.00	3.50	3.50	5.00	9.25	5.00	1.00	2.50	-0.150391	0.133301	0.979980	9.940000	11.550000	0.630000	716.00	0.03	-0.15
1.68	0.00	0.00	0.00	0.00	0.00	0.00	0.00	0.00	0.00	0.00	0.00	0.00	0.00	0.00	0.00	0.00	-0.313477	0.120605	1.103027	21.910000	-128.800003	-26.740000	0.00	0.00	0.00	1.25	1.50	2.50	2.75	5.00	6.00	1.75	8.50	3.75	4.00	4.25	6.50	9.75	6.00	1.25	2.75	-0.176758	0.133301	1.005859	11.410000	12.180000	0.420000	728.00	0.07	-0.15
1.69	0.00	0.25	0.25	0.00	0.00	0.00	0.00	0.00	0.00	0.00	0.00	0.00	0.00	0.00	0.00	0.00	-0.479492	0.104980	1.050293	19.670000	-126.770004	-16.870001	5.00	0.00	0.00	1.00	1.25	2.25	2.50	3.50	5.50	1.50	8.50	4.00	4.75	6.50	8.00	10.50	7.25	1.50	3.25	-0.170410	0.114258	0.995117	12.670000	12.810000	0.630000	765.00	0.10	-0.15
1.70	0.00	0.50	0.25	0.00	0.00	0.00	0.00	0.00	0.00	0.00	0.00	0.00	0.00	0.00	0.00	0.00	-0.652344	0.112305	1.069824	16.870001	-122.220001	-7.140000	7.00	0.00	0.00	0.50	1.00	1.50	2.50	2.50	4.50	1.25	8.50	4.25	6.50	8.00	8.75	11.00	8.50	1.75	3.50	-0.151855	0.129395	1.006348	15.820000	16.520000	-0.280000	788.00	0.13	-0.15
1.71	0.00	0.00	0.25	0.00	0.00	0.00	0.00	0.00	0.00	0.00	0.00	0.00	0.00	0.00	0.00	0.00	-0.831543	0.093750	1.020508	13.860000	-117.110001	1.330000	3.00	0.00	0.00	0.75	1.00	1.00	1.75	1.50	3.50	1.25	8.25	5.50	7.50	8.75	9.25	11.50	9.25	1.75	4.75	-0.154297	0.141602	1.062012	20.930000	31.430000	-3.780000	808.00	0.15	-0.14
1.72	0.00	0.00	0.25	0.00	0.00	0.00	0.00	0.00	0.00	0.00	0.00	0.00	0.00	0.00	0.00	0.00	-1.034180	0.066406	0.913574	11.760000	-109.340004	7.140000	3.00	0.00	0.00	1.00	0.75	1.25	1.25	0.75	2.50	1.00	8.00	5.75	8.25	9.50	10.00	12.00	11.00	2.25	5.25	-0.211914	0.163086	0.982910	22.330000	44.170002	-7.140000	833.00	0.17	-0.13
1.73	0.00	0.25	0.50	0.00	0.00	0.00	0.00	0.00	0.00	0.00	0.00	0.00	0.00	0.00	0.00	0.00	-1.262207	0.033691	0.895996	12.390000	-100.309998	9.940000	8.00	0.00	0.00	0.25	0.50	1.00	1.00	0.50	1.75	0.75	7.50	6.50	8.75	10.25	10.50	12.25	12.25	2.75	6.00	-0.192871	0.141602	1.066895	25.200001	61.320000	-8.400000	846.00	0.19	-0.13
1.74	0.25	0.00	0.00	0.00	0.00	0.00	0.00	0.00	0.00	0.00	0.00	0.00	0.00	0.00	0.00	0.00	-1.544922	0.013672	0.777344	10.990000	-90.230003	11.830000	3.00	0.00	0.00	0.25	0.25	0.25	0.50	0.25	1.25	0.50	6.50	7.00	9.00	10.75	11.00	12.25	14.25	3.50	6.25	-0.213379	0.175781	1.069336	38.290001	97.440002	-11.130000	848.00	0.22	-0.12
1.75	0.00	0.00	0.25	0.00	0.00	0.00	0.00	0.00	0.00	0.00	0.00	0.00	0.00	0.25	0.00	0.00	-1.861816	0.020020	0.642578	7.210000	-75.739998	13.230000	5.00	0.00	0.00	0.25	0.00	0.75	1.00	0.00	1.00	0.25	5.75	7.50	9.75	11.25	11.00	12.25	15.75	5.00	6.75	-0.239258	0.147949	1.074707	45.009998	146.930008	-14.420000	887.00	0.22	-0.11
1.76	0.00	0.00	0.25	0.00	0.00	0.00	0.00	0.00	0.00	0.00	0.00	0.00	0.00	0.00	0.00	0.00	-2.085938	0.048340	0.569824	7.420000	-57.750000	11.900000	3.00	0.00	0.00	0.25	0.25	0.50	0.50	0.00	0.00	0.00	4.50	8.00	10.50	11.50	11.25	11.75	17.75	6.00	7.25	-0.263184	0.187988	1.197754	50.189999	207.270004	-21.139999	893.00	0.24	-0.09
1.77	0.00	0.25	0.00	0.00	0.00	0.00	0.00	0.00	0.00	0.00	0.00	0.00	0.00	0.00	0.00	0.00	-2.489258	-0.086914	0.446777	-1.190000	-15.610000	3.290000	2.00	0.00	0.00	0.00	0.00	0.50	0.25	0.00	0.00	0.00	3.25	8.25	11.00	11.75	11.00	11.00	19.25	6.75	7.50	-0.262695	0.288086	1.270020	29.820000	256.829987	-25.270000	890.00	0.26	-0.07
1.78	0.00	0.00	0.00	0.00	0.00	0.00	0.00	0.00	0.00	0.00	0.00	0.00	0.00	0.00	0.00	0.00	-2.546875	-0.198730	0.416992	-13.650000	6.580000	-4.690000	0.00	0.00	0.00	0.00	0.25	0.00	0.00	0.00	0.00	0.00	2.50	9.00	11.25	11.75	10.75	10.00	20.75	7.25	7.50	-0.336914	0.178223	1.295410	9.310000	288.049988	-31.639999	892.00	0.27	-0.06
1.79	0.00	0.00	0.25	0.00	0.00	0.00	0.00	0.00	0.00	0.00	0.00	0.00	0.00	0.00	0.00	0.00	-2.579590	-0.212402	0.386230	-25.549999	26.180000	-15.750000	3.00	0.00	0.00	0.00	0.00	0.50	0.00	0.00	0.00	0.00	2.00	9.25	11.75	11.50	10.25	9.00	21.75	8.00	7.75	-0.405762	0.224609	1.325684	-11.690000	313.880005	-32.830002	897.00	0.28	-0.04
1.80	0.00	0.00	0.25	0.00	0.00	0.00	0.00	0.00	0.00	0.00	0.00	0.00	0.00	0.00	0.00	0.00	-2.507324	-0.093262	0.358887	-35.349998	44.730000	-24.290001	3.00	0.00	0.00	0.00	0.00	0.00	0.00	0.00	0.00	0.00	1.50	9.50	12.25	11.25	9.75	8.25	22.75	8.25	8.25	-0.498535	0.172852	1.317383	-26.880001	336.420013	-40.250000	892.00	0.28	-0.03
1.81	0.00	0.00	0.50	0.00	0.00	0.00	0.00	0.00	0.00	0.00	0.00	0.00	0.00	0.00	0.00	0.00	-2.300781	0.079590	0.303223	-42.700001	61.599998	-25.760000	6.00	0.00	0.00	0.00	0.00	0.25	0.00	0.00	0.00	0.00	1.25	9.75	12.25	11.00	8.75	7.00	23.25	8.75	8.50	-0.432129	0.189941	1.302246	-45.290001	359.309998	-46.480000	881.00	0.29	-0.02
1.82	0.00	0.00	0.25	0.00	0.00	0.00	0.00	0.00	0.00	0.00	0.00	0.00	0.00	0.00	0.00	0.00	-1.971191	0.219727	0.252441	-42.980000	74.760002	-21.280001	3.00	0.00	0.00	0.00	0.00	0.00	0.00	0.00	0.00	0.00	0.50	9.50	12.50	10.75	8.00	5.75	23.25	9.00	8.50	-0.572266	0.356445	1.312500	-62.510002	394.799988	-56.000000	848.00	0.30	-0.01
1.83	0.00	0.00	0.25	0.00	0.00	0.00	0.00	0.00	0.00	0.00	0.00	0.00	0.00	0.00	0.00	0.00	-1.564941	0.294922	0.265625	-31.780001	81.410004	-13.160000	3.00	0.00	0.00	0.00	0.00	0.00	0.00	0.00	0.00	0.00	0.25	9.25	12.50	10.25	7.00	4.75	22.75	8.75	8.25	-0.530762	0.329102	1.262207	-78.470001	439.250000	-69.930000	808.00	0.30	-0.00
1.84	0.00	0.25	0.25	0.00	0.00	0.00	0.00	0.00	0.00	0.00	0.00	0.00	0.00	0.00	0.00	0.00	-1.115234	0.240723	0.312500	-15.400000	75.669998	-3.920000	5.00	0.00	0.00	0.00	0.00	0.00	0.00	0.00	0.00	0.00	0.00	8.50	12.25	9.75	5.75	3.00	22.00	8.25	8.00	-0.837891	0.253418	1.362793	-98.489998	496.790009	-86.169998	745.00	0.31	0.01
1.85	0.75	0.50	0.75	0.50	0.00	0.00	0.00	0.00	0.00	0.00	0.00	0.00	0.00	0.00	0.00	0.00	2.848145	0.041992	2.103516	-117.529999	97.230003	16.170000	26.00	0.00	0.00	0.00	0.00	0.00	0.00	0.00	0.00	0.00	0.00	7.25	11.50	8.75	5.00	2.25	20.25	7.50	6.75	-1.068848	0.304199	1.960449	-112.070000	557.409973	-98.279999	666.00	0.31	0.02
1.86	2.50	3.75	3.00	3.00	0.50	0.00	0.00	0.00	0.00	0.00	0.00	0.00	0.25	0.00	0.00	0.00	1.043945	-0.036621	0.857910	-34.369999	35.910000	40.459999	134.00	-0.32	-0.06	0.00	0.00	0.00	0.00	0.00	0.00	0.00	0.00	5.75	10.00	7.25	3.25	1.50	17.75	6.25	5.50	-1.661133	0.284668	2.659668	-108.010002	605.080017	-90.930000	549.00	0.31	0.03
1.87	8.50	8.00	7.00	7.25	1.00	0.00	0.00	0.00	0.00	0.00	0.00	0.00	0.00	0.00	0.00	0.00	-0.922363	-1.842285	2.274414	-54.599998	77.000000	4.200000	330.00	-0.34	-0.04	0.00	0.00	0.00	0.00	0.00	0.00	0.25	0.00	5.00	8.25	4.75	2.25	0.75	13.75	4.50	3.75	-2.361328	0.469727	3.985840	-101.010002	632.030029	-76.160004	420.00	0.31	0.05
1.88	10.00	9.25	7.75	7.75	1.25	0.00	0.00	0.00	0.00	0.00	0.00	0.00	0.00	0.00	0.00	0.00	-0.474121	0.668945	3.731445	-74.620003	82.529999	-47.040001	374.00	-0.34	-0.04	0.00	0.00	0.00	0.00	0.00	0.00	0.00	0.00	3.25	6.00	3.00	2.00	0.50	9.50	2.25	1.75	-2.508789	0.511230	4.567383	62.299999	612.220032	-18.760000	276.00	0.31	0.05
1.89	12.25	10.50	8.25	8.50	1.50	0.50	0.00	0.00	0.00	0.00	0.00	0.00	0.00	0.00	0.00	0.00	-0.239746	0.506348	0.074707	-64.400002	-25.129999	-15.820000	431.00	-0.34	-0.04	0.00	0.00	0.00	0.00	0.00	0.00	0.00	0.00	2.25	4.00	2.00	1.25	0.50	6.50	1.25	1.00	-2.508789	0.511230	4.567383	62.299999	612.220032	-18.760000	183.00	0.30	0.05
1.90	14.00	12.25	9.25	9.25	2.00	0.75	0.00	0.00	0.00	0.00	0.00	0.00	0.00	0.00	0.00	0.00	0.199219	0.222168	0.104004	-35.910000	54.810001	20.440001	492.00	-0.34	-0.04	0.00	0.00	0.00	0.00	0.00	0.00	0.00	0.00	1.50	2.50	1.50	1.00	0.00	3.50	0.25	0.50	-1.054199	0.382812	4.578125	105.489998	565.039978	-30.309999	107.00	0.29	0.06
1.91	16.00	13.25	10.00	10.00	2.50	1.00	0.25	0.00	0.00	0.00	0.00	0.00	0.00	0.00	0.00	0.00	-0.250000	-0.785645	1.477051	-23.379999	87.150002	17.570000	551.00	-0.33	-0.03	0.00	0.00	0.00	0.00	0.00	0.00	0.00	0.00	0.25	1.50	0.75	0.00	0.00	1.25	0.25	0.00	2.423340	2.032227	4.585938	3.990000	398.579987	-45.990002	40.00	0.00	0.00
1.92	17.25	14.75	11.50	11.25	3.00	1.50	0.25	0.00	0.00	0.00	0.00	0.00	0.00	0.00	0.00	0.00	-0.236328	-0.103516	1.164551	-14.910000	60.130001	-11.200000	619.00	-0.33	-0.03	0.00	0.00	0.00	0.00	0.00	0.00	0.00	0.00	0.50	1.25	0.50	0.00	0.00	0.75	0.00	0.00	1.830566	2.395996	3.921875	-118.160004	295.750000	35.000000	31.00	0.00	0.00
1.93	18.25	15.75	12.00	12.00	3.75	1.75	0.25	0.25	0.00	0.25	0.00	0.00	0.00	0.00	0.00	0.00	-0.200684	0.299316	1.103516	-0.700000	48.650002	-14.000000	670.00	-0.32	-0.04	0.00	0.00	0.00	0.00	0.00	0.00	0.00	0.00	0.50	1.50	0.50	0.25	0.00	0.25	0.00	0.00	2.426270	1.694824	6.395996	-138.669998	5.390000	116.970001	32.00	0.00	0.00
1.94	19.25	16.75	12.50	12.75	4.25	2.00	0.25	0.00	0.25	0.00	0.00	0.00	0.00	0.00	0.00	0.00	-0.198730	-0.072266	1.209961	6.720000	36.750000	-2.520000	708.00	-0.32	-0.03	0.00	0.00	0.00	0.00	0.00	0.00	0.00	0.00	0.25	1.25	0.50	0.00	0.00	0.50	0.00	0.00	2.205566	0.650391	2.869141	-129.570007	-170.309998	130.339996	26.00	0.00	0.00
1.95	18.50	16.25	12.00	12.50	4.75	2.25	0.25	0.25	0.00	0.00	0.00	0.00	0.00	0.00	0.00	0.00	-0.159180	-0.279297	0.909668	22.889999	28.350000	-7.210000	696.00	-0.32	-0.04	0.00	0.00	0.00	0.00	0.00	0.00	0.00	0.00	0.25	1.25	0.50	0.00	0.00	0.00	0.00	0.00	1.901855	0.220215	2.473145	-117.529999	-216.089996	89.739998	21.00	0.00	0.00
1.96	17.75	15.50	12.50	12.50	4.75	2.50	0.25	0.00	0.00	0.00	0.00	0.00	0.00	0.00	0.00	0.00	-0.124512	0.048828	0.885254	45.990002	36.750000	-14.490000	686.00	-0.32	-0.04	0.00	0.00	0.00	0.00	0.00	0.00	0.00	0.00	0.25	1.00	0.25	0.00	0.00	0.00	0.00	0.00	1.969238	0.171875	2.553711	-75.110001	-230.440002	32.480000	16.00	0.00	0.00
1.97	16.50	15.00	11.75	12.50	5.00	3.00	0.25	0.25	0.25	0.00	0.00	0.00	0.00	0.00	0.00	0.00	-0.179688	0.161621	1.016602	56.000000	41.509998	-9.520000	675.00	-0.31	-0.04	0.00	0.00	0.00	0.00	0.00	0.00	0.00	0.00	0.00	0.75	0.50	0.00	0.00	0.00	0.00	0.00	2.006348	0.074707	3.039551	-38.920002	-285.880005	-20.860001	13.00	0.00	0.00
1.98	14.00	13.75	11.25	11.75	4.75	3.25	0.25	0.25	0.25	0.25	0.00	0.00	0.00	0.00	0.00	0.00	-0.119629	0.040039	0.828125	47.250000	43.049999	-4.970000	627.00	-0.31	-0.05	0.00	0.00	0.00	0.00	0.00	0.00	0.00	0.00	0.00	0.75	0.25	0.00	0.00	0.00	0.00	0.00	1.706055	0.130859	3.189453	-31.850000	-380.730011	-58.099998	10.00	0.00	0.00
1.99	12.50	12.00	10.50	11.25	5.00	3.75	0.50	0.25	0.00	0.50	0.00	0.00	0.00	0.00	0.00	0.00	-0.140625	0.077148	0.964355	47.180000	46.060001	-5.810000	593.00	-0.30	-0.05	0.00	0.00	0.00	0.00	0.00	0.00	0.00	0.00	0.00	0.50	0.00	0.00	0.00	0.00	0.00	0.00	1.262695	0.255371	3.013672	-53.900002	-480.760010	-76.090004	5.00	0.00	0.00
2.00	9.25	9.75	9.50	10.00	5.00	3.50	0.50	0.50	0.50	0.75	0.25	0.00	0.00	0.00	0.00	0.00	-0.241699	0.121094	1.137207	33.320000	41.160000	-6.230000	526.00	-0.27	-0.05	0.00	0.00	0.00	0.00	0.00	0.00	0.00	0.00	0.00	0.50	0.25	0.00	0.00	0.00	0.00	0.00	0.839844	0.455078	2.650391	-92.120003	-556.919983	-80.220001	8.00	0.00	0.00
2.01	8.00	8.00	8.75	9.00	5.00	3.50	0.75	0.50	0.75	0.75	0.50	0.00	0.00	0.00	0.00	0.00	-0.241699	0.121582	1.023926	22.540001	37.730000	-5.390000	488.00	-0.26	-0.04	0.00	0.00	0.00	0.00	0.00	0.00	0.00	0.00	0.00	0.25	0.00	0.00	0.00	0.00	0.00	0.00	0.430176	0.739258	2.394043	-115.220001	-605.080017	-78.190002	3.00	0.00	0.00
2.02	6.50	6.50	8.00	8.50	4.75	3.25	0.75	0.75	1.00	1.00	0.50	0.25	0.00	0.50	0.00	0.00	-0.205566	0.098633	1.028320	14.000000	34.720001	-5.880000	456.00	-0.23	-0.04	0.00	0.00	0.00	0.00	0.00	0.00	0.00	0.00	0.00	0.00	0.00	0.00	0.00	0.00	0.00	0.00	0.020508	1.025391	2.241699	-97.230003	-636.229980	-69.160004	0.00	0.00	0.00
2.03	5.75	5.75	7.75	7.00	4.50	3.00	1.00	1.00	1.00	1.50	0.75	0.00	0.25	0.50	0.00	0.00	-0.199219	0.065918	0.978027	7.210000	22.400000	-6.090000	431.00	-0.21	-0.04	0.00	0.00	0.00	0.00	0.00	0.00	0.00	0.00	0.00	0.00	0.00	0.00	0.00	0.00	0.00	0.00	-0.279785	1.138184	1.845215	-49.560001	-645.539978	-50.189999	0.00	0.00	0.00
2.04	4.50	5.25	6.75	6.50	4.25	2.75	1.00	1.00	1.50	1.50	1.25	0.50	0.25	0.75	0.00	0.00	-0.210449	0.078125	0.971191	3.990000	15.820000	-6.580000	411.00	-0.18	-0.04	0.00	0.00	0.00	0.00	0.00	0.00	0.00	0.00	0.00	0.00	0.00	0.00	0.00	0.00	0.00	0.00	-0.490234	1.155273	1.469238	-1.610000	-627.690002	-21.559999	0.00	0.00	0.00
2.05	3.25	4.75	6.00	5.50	4.00	2.25	1.25	1.25	1.75	1.75	1.25	0.50	0.25	1.00	0.00	0.00	-0.213379	0.065918	0.955078	3.570000	13.440001	-7.070000	381.00	-0.15	-0.03	0.00	0.00	0.00	0.00	0.00	0.00	0.00	0.00	0.00	0.00	0.00	0.00	0.00	0.00	0.00	0.00	-0.611328	1.188477	1.417480	28.350000	-589.960022	16.870001	0.00	0.00	0.00
2.06	2.50	3.50	5.50	5.00	3.75	2.25	1.25	1.25	2.50	2.25	1.50	0.75	0.75	1.00	0.00	0.00	-0.213379	0.083496	0.959473	3.080000	12.110000	-6.650000	373.00	-0.11	-0.03	0.00	0.00	0.00	0.00	0.00	0.00	0.00	0.00	0.00	0.00	0.00	0.00	0.00	0.00	0.00	0.00	-0.709473	1.253418	1.781738	43.959999	-549.429993	62.160000	0.00	0.00	0.00
2.07	2.25	3.25	5.00	4.25	3.25	2.00	1.25	1.50	2.75	3.00	2.25	1.50	1.00	1.25	0.25	0.00	-0.214355	0.074707	0.971191	3.010000	12.390000	-5.600000	383.00	-0.06	-0.04	0.00	0.00	0.00	0.00	0.00	0.00	0.00	0.00	0.00	0.00	0.00	0.00	0.00	0.00	0.00	0.00	-0.892578	1.226562	2.300293	64.820000	-524.650024	107.099998	0.00	0.00	0.00
2.08	1.50	2.50	4.00	3.00	2.75	1.75	1.25	1.75	3.50	3.00	2.00	1.25	1.50	1.50	0.25	0.25	-0.212891	0.077148	0.958496	3.920000	13.230000	-7.140000	352.00	-0.02	-0.03	0.00	0.00	0.00	0.00	0.00	0.00	0.00	0.00	0.00	0.00	0.00	0.00	0.00	0.00	0.00	0.00	-1.222168	1.009277	2.699707	95.269997	-518.280029	140.979996	0.00	0.00	0.00
2.09	1.25	1.75	3.75	2.00	2.25	1.25	1.50	2.00	3.75	3.75	2.50	1.50	2.25	2.25	0.50	0.25	-0.240234	0.098145	0.946777	4.480000	13.930000	-8.680000	360.00	0.03	-0.03	0.00	0.00	0.00	0.00	0.00	0.00	0.00	0.00	0.00	0.00	0.00	0.00	0.00	0.00	0.00	0.00	-1.624023	0.673828	2.937988	119.000000	-520.380005	157.570007	0.00	0.00	0.00
2.10	1.00	1.50	2.50	1.75	1.75	1.00	1.25	2.00	5.00	4.25	3.00	1.75	2.75	3.00	0.75	0.50	-0.255371	0.082031	0.943848	4.690000	15.260000	-9.730000	370.00	0.08	-0.02	0.00	0.00	0.00	0.00	0.00	0.00	0.00	0.00	0.00	0.00	0.00	0.00	0.00	0.00	0.00	0.00	-2.793457	0.257812	3.224609	106.400002	-509.880005	141.820007	0.00	0.00	0.00
2.11	0.25	0.75	2.50	0.75	1.25	0.75	1.25	2.25	5.50	5.50	3.75	2.00	3.50	4.00	0.75	0.75	-0.227051	0.090332	0.958984	5.530000	16.379999	-11.830000	387.00	0.14	-0.02	0.00	0.00	0.00	0.00	0.00	0.00	0.00	0.00	0.00	0.00	0.00	0.00	0.00	0.00	0.00	0.00	-3.511719	0.131348	3.184082	94.430000	-490.000000	118.160004	0.00	0.00	0.00
2.12	0.50	1.00	2.00	0.75	1.25	0.00	1.25	2.50	6.75	7.50	5.00	2.50	3.75	4.50	0.75	1.00	-0.229492	0.097168	0.954590	6.650000	18.969999	-14.000000	445.00	0.16	-0.01	0.00	0.00	0.00	0.00	0.00	0.00	0.00	0.00	0.00	0.00	0.00	0.00	0.00	0.00	0.00	0.00	-4.260742	-0.006348	2.965820	82.110001	-458.360016	89.599998	0.00	0.00	0.00
2.13	0.00	0.25	1.50	0.75	0.75	0.00	1.25	2.50	7.75	8.25	6.50	2.75	4.00	5.25	0.75	1.25	-0.233887	0.086914	0.953125	7.490000	21.980000	-15.120000	471.00	0.19	-0.01	0.00	0.00	0.00	0.00	0.00	0.00	0.00	0.00	0.00	0.00	0.00	0.00	0.00	0.00	0.00	0.00	-4.813965	-0.040039	2.549805	61.599998	-418.179993	62.860001	0.00	0.00	0.00
2.14	0.25	0.75	1.00	0.00	0.50	0.00	1.25	2.50	8.50	8.75	7.75	4.00	5.75	7.00	1.50	1.50	-0.232422	0.068848	0.948730	7.350000	24.150000	-14.910000	542.00	0.21	-0.02	0.00	0.00	0.00	0.00	0.00	0.00	0.00	0.00	0.00	0.00	0.00	0.00	0.00	0.00	0.00	0.00	-5.137695	-0.043945	1.900879	34.090000	-375.690002	45.920002	0.00	0.00	0.00
2.15	0.25	0.50	1.25	1.00	0.50	0.00	1.25	2.75	9.25	9.50	8.75	4.50	6.25	8.25	2.00	1.75	-0.229004	0.099609	0.938965	6.720000	27.230000	-15.050000	612.00	0.21	-0.03	0.00	0.00	0.00	0.00	0.00	0.00	0.00	0.00	0.00	0.00	0.00	0.00	0.00	0.00	0.00	0.00	-5.257812	0.092773	1.247070	6.370000	-325.779999	35.770000	0.00	0.00	0.00
2.16	0.25	0.50	1.25	0.00	0.00	0.00	1.25	2.25	10.00	10.25	10.00	5.75	6.50	9.75	3.00	2.25	-0.247070	0.103027	0.957031	6.720000	31.780001	-16.940001	660.00	0.23	-0.02	0.00	0.00	0.00	0.00	0.00	0.00	0.00	0.00	0.00	0.00	0.00	0.00	0.00	0.00	0.00	0.00	-5.377930	0.313477	0.795410	4.550000	-269.220001	29.330000	0.00	0.00	0.00
2.17	0.00	0.00	0.75	0.00	0.00	0.00	1.00	2.00	10.75	11.00	10.50	6.75	6.75	11.25	4.00	3.00	-0.229980	0.104492	0.967773	6.790000	38.290001	-18.480000	703.00	0.25	-0.02	0.00	0.00	0.00	0.00	0.00	0.00	0.00	0.00	0.00	0.00	0.00	0.00	0.00	0.00	0.00	0.00	-5.579590	0.138184	0.299805	32.130001	-207.830002	32.410000	0.00	0.00	0.00
2.18	0.00	0.00	0.50	0.00	0.00	0.00	0.75	1.50	11.75	11.75	11.25	7.25	6.75	13.00	5.75	4.00	-0.256348	0.105469	0.987305	12.040000	45.920002	-21.700001	762.00	0.26	-0.01	0.00	0.00	0.00	0.00	0.00	0.00	0.00	0.00	0.00	0.00	0.00	0.00	0.00	0.00	0.00	0.00	-5.702148	-0.118164	0.022949	41.230000	-142.029999	43.959999	0.00	0.00	0.00
2.19	0.00	0.00	0.75	0.00	0.00	0.00	0.75	1.00	12.50	12.50	12.25	7.75	6.50	14.50	6.75	4.75	-0.302246	0.157715	1.147949	33.740002	122.989998	-24.990000	815.00	0.27	-0.01	0.00	0.00	0.00	0.00	0.00	0.00	0.00	0.00	0.00	0.00	0.00	0.00	0.00	0.00	0.00	0.00	-5.716797	-0.188965	0.015625	18.410000	-79.099998	61.110001	0.00	0.00	0.00
2.20	0.00	0.00	0.50	0.00	0.00	0.00	0.50	0.75	13.25	13.00	12.50	7.50	6.25	16.25	8.00	5.25	-0.346680	0.161621	1.167480	31.850000	201.460007	-28.980000	848.00	0.27	-0.00	0.00	0.00	0.00	0.00	0.00	0.00	0.00	0.00	0.00	0.00	0.00	0.00	0.00	0.00	0.00	0.00	-5.557617	-0.211426	-0.000000	-2.730000	-20.370001	71.820000	0.00	0.00	0.00
2.21	0.00	0.00	0.75	0.00	0.00	0.00	0.25	0.50	14.00	13.75	12.75	7.25	5.50	17.50	8.50	5.75	-0.412109	0.218262	1.222168	6.580000	274.890015	-34.299999	873.00	0.28	0.01	0.00	0.00	0.00	0.00	0.00	0.00	0.00	0.00	0.00	0.00	0.00	0.00	0.00	0.00	0.00	0.00	-5.153809	-0.278809	0.196289	-0.630000	33.599998	67.199997	0.00	0.00	0.00
2.22	0.00	0.00	0.25	0.00	0.00	0.00	0.00	0.25	14.50	14.00	12.50	6.75	4.75	18.75	9.50	6.00	-0.418945	0.120117	1.310059	-20.650000	329.980011	-41.299999	877.00	0.29	0.02	0.00	0.00	0.00	0.00	0.00	0.00	0.00	0.00	0.00	0.00	0.00	0.00	0.00	0.00	0.00	0.00	-4.509766	-0.562500	0.301270	1.610000	80.500000	48.020000	0.00	0.00	0.00
2.23	0.00	0.00	0.25	0.00	0.00	0.00	0.00	0.00	14.75	14.50	12.25	6.00	3.50	20.00	9.75	6.50	-0.454102	0.078125	1.515137	-45.639999	367.220001	-46.130001	877.00	0.29	0.03	0.25	0.75	0.00	0.00	0.00	0.00	0.00	0.00	0.00	0.00	0.00	0.00	0.00	0.00	0.00	0.00	-1.609375	-1.273926	1.974121	-96.250000	158.759995	51.730000	9.00	0.00	0.00
2.24	0.00	0.00	0.25	0.00	0.00	0.00	0.00	0.00	15.00	14.75	12.00	5.00	2.75	20.50	10.25	6.50	-0.544434	0.119141	1.424805	-55.790001	396.690002	-51.240002	872.00	0.30	0.04	1.25	3.75	0.75	1.25	0.00	0.00	0.00	0.00	0.00	0.00	0.00	0.00	0.00	0.00	0.00	0.00	1.563965	0.231445	1.852539	-89.250000	149.240005	47.670002	70.00	-0.37	-0.10
2.25	0.00	0.00	0.25	0.00	0.00	0.00	0.00	0.00	15.00	15.00	11.50	4.25	1.75	20.75	10.75	6.75	-0.576660	0.142578	1.339844	-73.080002	437.010010	-60.549999	862.00	0.30	0.05	3.75	7.75	1.50	2.50	0.00	0.00	0.00	0.00	0.00	0.00	0.00	0.00	0.00	0.00	0.00	0.00	1.187012	-0.654785	0.184570	-24.010000	63.420002	56.980000	154.00	-0.37	-0.08
2.26	0.00	0.00	0.25	0.00	0.00	0.00	0.00	0.00	14.50	15.25	11.00	3.00	1.25	20.50	10.75	6.75	-0.644043	0.127930	1.405762	-91.209999	490.350006	-74.970001	833.00	0.30	0.05	10.50	13.00	3.25	5.75	0.00	0.00	0.00	0.00	0.00	0.00	0.00	0.00	0.00	0.00	0.00	0.00	-0.619629	-0.079590	0.121582	-14.070000	87.919998	35.630001	328.00	-0.37	-0.06
2.27	0.00	0.00	0.50	0.00	0.00	0.00	0.00	0.00	14.00	15.25	10.50	2.25	0.75	20.00	10.50	6.75	-0.663574	0.226562	1.547852	-112.980003	558.739990	-88.269997	805.00	0.30	0.06	17.00	16.50	7.25	8.75	0.25	0.00	0.00	0.00	0.00	0.00	0.00	0.00	0.00	0.50	0.00	0.00	-1.314453	-0.164551	1.501953	-39.130001	229.110001	7.840000	512.00	-0.36	-0.04
2.28	0.00	0.00	0.00	0.00	0.00	0.00	0.00	0.00	12.50	14.25	9.50	1.75	0.50	19.25	9.75	6.50	-1.092773	0.132812	1.923340	-105.279999	629.369995	-94.010002	736.00	0.31	0.06	20.25	18.25	9.00	10.50	0.50	0.00	0.00	0.00	0.00	0.00	0.00	0.00	0.00	0.25	0.00	0.00	-0.515625	-0.050781	2.396484	-52.290001	159.740005	56.000000	601.00	-0.36	-0.04
2.29	0.00	0.00	0.00	0.00	0.00	0.00	0.25	0.00	10.25	12.25	8.00	1.25	0.25	18.00	9.00	5.50	-1.639160	0.237793	2.264648	-77.419998	678.020020	-88.900002	642.00	0.31	0.06	21.25	19.25	10.00	11.50	0.75	0.50	0.00	0.00	0.00	0.00	0.00	0.00	0.00	0.25	0.00	0.00	-0.515625	-0.050781	2.396484	-52.290001	159.740005	56.000000	651.00	-0.35	-0.04
2.30	0.00	0.00	0.00	0.00	0.00	0.00	0.25	0.00	8.00	10.00	5.75	1.50	0.00	15.50	7.50	4.50	-2.737305	0.142578	3.240234	-14.140000	695.239990	-66.849998	524.00	0.31	0.06	22.00	19.50	11.00	12.25	1.00	1.25	0.00	0.00	0.00	0.00	0.00	0.00	0.00	0.00	0.00	0.00	0.087891	-0.424316	0.759277	-29.330000	144.059998	58.099998	689.00	-0.35	-0.04
2.31	0.00	0.00	0.00	0.00	0.00	0.00	0.25	0.00	6.25	8.00	3.75	1.00	0.00	12.25	5.75	2.50	-3.151855	1.095703	3.768066	78.889999	700.489990	-10.150000	397.00	0.31	0.08	21.75	19.25	11.25	12.75	1.50	1.50	0.00	0.00	0.00	0.00	0.00	0.00	0.00	0.25	0.00	0.00	-0.215820	-0.215820	1.903320	19.389999	111.510002	7.350000	703.00	-0.34	-0.04
2.32	0.00	0.00	0.00	0.00	0.00	0.00	0.00	0.00	4.50	6.00	2.00	1.00	0.00	9.50	3.75	1.25	-2.642090	-0.122070	4.443848	229.529999	686.630005	43.610001	280.00	0.32	0.08	21.25	19.00	11.50	13.00	1.50	2.00	0.00	0.00	0.00	0.00	0.00	0.00	0.00	0.00	0.00	0.00	0.002441	-0.049805	1.035645	43.959999	75.879997	-4.830000	704.00	-0.34	-0.04
2.33	0.00	0.00	0.00	0.00	0.00	0.00	0.00	0.00	3.25	4.00	1.75	0.50	0.00	6.75	1.75	0.25	-2.008789	-0.698730	5.416016	296.589996	659.049988	41.439999	185.00	0.31	0.10	20.75	18.75	11.25	13.25	1.75	2.50	0.00	0.00	0.00	0.00	0.00	0.00	0.00	0.00	0.00	0.00	0.038574	0.004395	1.017090	63.070000	73.500000	-11.130000	705.00	-0.34	-0.05
2.34	0.00	0.00	0.00	0.00	0.00	0.00	0.00	0.00	1.75	2.50	1.25	0.00	0.00	3.50	0.25	0.00	-0.711914	-0.293945	5.770996	271.390015	617.470032	5.180000	94.00	0.30	0.12	20.00	18.25	11.25	13.25	1.75	3.00	0.00	0.00	0.00	0.00	0.00	0.00	0.00	0.25	0.00	0.00	-0.061523	0.225098	1.306641	66.779999	66.919998	-15.540000	700.00	-0.34	-0.05
2.35	0.00	0.00	0.00	0.00	0.00	0.00	0.00	0.00	1.50	2.00	0.00	0.00	0.00	1.50	0.00	0.00	1.743652	0.801270	5.142578	157.850006	541.450012	-38.220001	53.00	0.29	0.17	19.25	17.75	11.00	13.00	1.75	3.50	0.00	0.00	0.00	0.00	0.00	0.00	0.00	0.00	0.00	0.00	-0.050293	0.343750	1.087891	64.680000	53.970001	-10.080000	685.00	-0.34	-0.05
2.36	0.00	0.00	0.00	0.00	0.00	0.00	0.00	0.00	1.50	1.75	0.25	0.00	0.00	1.25	0.00	0.00	1.437012	2.626953	3.201660	-40.040001	462.000000	26.809999	51.00	0.28	0.16	18.00	17.00	10.75	12.75	1.75	4.00	0.00	0.25	0.00	0.00	0.00	0.00	0.00	0.25	0.00	0.00	-0.008301	0.292480	0.966797	55.299999	53.619999	-1.190000	671.00	-0.33	-0.06
2.37	0.00	0.00	0.00	0.00	0.00	0.00	0.00	0.00	0.75	1.50	0.25	0.00	0.00	0.50	0.00	0.00	2.246094	1.413574	7.777344	-114.029999	85.190002	122.220001	32.00	0.00	0.00	16.50	16.25	10.25	12.50	1.75	4.50	0.00	0.25	0.00	0.00	0.00	0.00	0.00	0.00	0.00	0.00	0.008789	0.234375	0.976562	41.930000	56.279999	3.780000	644.00	-0.33	-0.06
2.38	0.00	0.00	0.00	0.00	0.00	0.00	0.00	0.00	1.00	1.25	0.25	0.00	0.00	0.75	0.00	0.00	1.409180	0.485352	4.552246	-135.100006	-193.550003	145.460007	35.00	0.00	0.00	15.00	15.25	9.50	12.00	1.75	4.50	0.00	0.50	0.00	0.00	0.00	0.00	0.00	0.00	0.00	0.00	0.034180	0.194824	0.906738	34.020000	58.869999	6.020000	609.00	-0.32	-0.07
2.39	0.00	0.00	0.00	0.00	0.00	0.00	0.00	0.00	1.00	1.00	0.25	0.00	0.00	0.50	0.00	0.00	0.977539	0.469727	2.821777	-128.660004	-284.690002	116.760002	30.00	0.00	0.00	12.75	13.75	9.00	11.25	1.75	4.50	0.00	0.75	0.00	0.00	0.00	0.00	0.00	0.00	0.00	0.00	0.028809	0.108887	0.836426	33.880001	64.330002	5.250000	562.00	-0.32	-0.07
2.40	0.00	0.00	0.00	0.00	0.00	0.00	0.00	0.00	0.50	1.00	0.00	0.00	0.00	0.50	0.00	0.00	1.092773	-0.109863	2.229980	-45.500000	-315.559998	23.870001	21.00	0.00	0.00	10.75	12.25	8.50	10.75	1.75	4.75	0.00	0.75	0.00	0.00	0.00	0.00	0.25	0.00	0.00	0.00	-0.029785	0.110352	0.971680	39.130001	73.010002	1.330000	521.00	-0.31	-0.08
2.41	0.00	0.00	0.00	0.00	0.00	0.00	0.00	0.00	0.25	1.00	0.25	0.00	0.00	0.25	0.00	0.00	0.826660	-0.675293	2.265625	-63.139999	-347.899994	-20.299999	18.00	0.00	0.00	8.75	10.25	7.75	10.00	1.50	4.75	0.00	0.75	0.00	0.00	0.00	0.00	0.00	0.00	0.00	0.00	-0.045898	0.091309	1.123047	48.860001	69.300003	-2.100000	461.00	-0.30	-0.09
2.42	0.00	0.00	0.00	0.00	0.00	0.00	0.00	0.00	0.75	1.00	0.00	0.00	0.00	0.00	0.00	0.00	0.615234	-0.840332	2.394043	-128.380005	-398.089996	-70.699997	20.00	0.00	0.00	7.00	9.25	7.00	9.25	1.50	5.00	0.00	1.50	0.00	0.00	0.00	0.00	0.25	0.00	0.00	0.00	-0.020508	0.064941	0.859863	57.189999	63.209999	-7.070000	433.00	-0.29	-0.11
2.43	0.00	0.00	0.00	0.00	0.00	0.00	0.00	0.00	0.25	1.00	0.25	0.00	0.00	0.00	0.00	0.00	0.405273	-0.464355	2.415527	-190.259995	-461.089996	-128.029999	16.00	0.00	0.00	6.00	8.25	6.25	8.75	1.50	5.00	0.00	1.75	0.00	0.00	0.00	0.00	0.25	0.00	0.00	0.00	-0.075684	0.125977	1.229004	56.139999	68.459999	-14.140000	403.00	-0.28	-0.12
2.44	0.00	0.00	0.00	0.00	0.00	0.00	0.00	0.00	0.25	0.50	0.00	0.00	0.00	0.00	0.00	0.00	0.017090	-0.104980	2.060547	-201.180008	-521.429993	-181.720001	8.00	0.00	0.00	5.00	7.50	5.50	8.50	1.50	5.00	0.00	2.50	0.00	0.00	0.00	0.00	0.75	0.00	0.00	0.00	-0.054688	0.301758	0.986328	45.639999	55.720001	-19.809999	391.00	-0.26	-0.14
2.45	0.00	0.00	0.00	0.00	0.00	0.00	0.00	0.00	0.50	0.25	0.00	0.00	0.00	0.00	0.00	0.00	-0.412109	0.195801	1.384766	-161.559998	-554.679993	-222.600006	9.00	0.00	0.00	3.75	6.50	5.25	7.75	1.25	5.25	0.00	3.25	0.00	0.00	0.00	0.00	0.75	0.00	0.00	0.00	-0.102539	0.341309	0.807129	26.389999	59.220001	-18.620001	369.00	-0.25	-0.15
2.46	0.00	0.00	0.00	0.00	0.00	0.00	0.00	0.00	0.25	0.25	0.25	0.00	0.00	0.00	0.00	0.00	-0.661133	0.511719	0.745605	-101.080002	-544.739990	-241.710007	8.00	0.00	0.00	3.50	6.00	4.25	7.50	1.25	5.25	0.00	5.00	0.00	0.00	0.00	0.00	1.50	0.00	0.00	0.00	-0.144531	0.286621	0.958008	1.540000	64.820000	-14.210000	381.00	-0.22	-0.18
2.47	0.00	0.00	0.00	0.00	0.00	0.00	0.00	0.00	0.25	0.25	0.00	0.00	0.00	0.00	0.00	0.00	-0.646973	0.778320	0.339355	-47.389999	-503.929993	-230.229996	6.00	0.00	0.00	3.50	4.75	3.50	6.50	1.25	6.00	0.00	6.25	0.00	0.00	0.00	0.50	2.25	0.00	0.00	0.25	-0.112793	0.173828	0.864258	-19.460001	67.620003	-14.350000	391.00	-0.18	-0.21
2.48	0.00	0.00	0.00	0.00	0.00	0.00	0.00	0.00	0.00	0.25	0.00	0.00	0.00	0.00	0.00	0.00	-0.542480	1.036621	0.538574	-7.490000	-453.390015	-193.130005	3.00	0.00	0.00	2.25	5.00	3.50	6.00	1.25	6.25	0.00	7.00	0.00	0.00	0.00	0.50	3.50	0.00	0.00	0.50	-0.065430	0.210938	0.843750	-52.779999	68.110001	-20.370001	401.00	-0.16	-0.23
2.49	0.00	0.00	0.00	0.00	0.00	0.00	0.00	0.00	0.00	0.00	0.00	0.00	0.00	0.00	0.00	0.00	-0.401855	1.203125	1.210449	30.030001	-423.010010	-140.070007	0.00	0.00	0.00	2.00	4.50	2.75	6.00	1.75	6.50	0.25	7.75	0.00	0.00	0.00	1.00	5.50	0.00	0.00	1.00	-0.151367	0.318359	1.186035	-115.010002	78.050003	-28.000000	434.00	-0.13	-0.25
2.50	0.00	0.00	0.00	0.00	0.00	0.00	0.00	0.00	0.00	0.00	0.00	0.00	0.00	0.00	0.00	0.00	-0.367676	1.257812	1.888184	61.250000	-426.720001	-80.430000	0.00	0.00	0.00	1.50	4.00	3.25	5.25	2.25	6.50	0.50	8.00	0.00	0.00	0.25	1.25	7.75	0.50	0.25	1.25	-0.229004	0.195312	1.332031	-168.139999	66.290001	-31.570000	468.00	-0.09	-0.25
2.51	0.00	0.00	0.00	0.00	0.00	0.00	0.00	0.00	0.00	0.00	0.00	0.00	0.00	0.00	0.00	0.00	-0.523438	1.277832	2.289062	75.949997	-457.730011	-12.460000	0.00	0.00	0.00	1.75	3.25	3.25	4.75	2.50	6.25	0.75	8.00	0.00	0.50	0.50	2.25	8.50	1.00	0.50	1.75	-0.272461	0.124512	1.021484	-40.670002	-4.900000	-34.650002	496.00	-0.06	-0.23
2.52	0.00	0.00	0.00	0.00	0.00	0.00	0.00	0.00	0.00	0.00	0.00	0.00	0.00	0.00	0.00	0.00	-0.765625	1.306641	2.364258	73.360001	-491.399994	57.330002	0.00	0.00	0.00	1.50	2.50	3.00	4.00	3.00	5.50	0.75	8.00	1.00	1.25	1.50	3.50	9.00	2.75	1.00	2.75	-0.189453	0.134277	0.985840	-18.760000	-7.910000	-30.100000	547.00	-0.00	-0.21
2.53	0.00	0.00	0.00	0.00	0.00	0.00	0.00	0.00	0.00	0.00	0.00	0.00	0.00	0.00	0.00	0.00	-1.093262	1.280273	2.370117	65.590004	-506.940002	121.590004	0.00	0.00	0.00	1.50	1.50	3.00	3.50	3.00	5.25	0.75	8.00	1.75	2.00	2.50	5.00	9.50	4.25	1.50	4.50	-0.149902	0.129883	1.000977	-11.410000	-0.700000	-29.540001	606.00	0.04	-0.19
2.54	0.00	0.00	0.00	0.00	0.00	0.00	0.00	0.00	0.00	0.00	0.00	0.00	0.00	0.00	0.00	0.00	-1.467773	1.167480	2.644043	65.940002	-508.200012	170.029999	0.00	0.00	0.00	1.50	1.50	2.75	3.25	2.50	4.25	0.75	8.25	3.25	3.25	3.75	6.75	10.25	6.25	1.75	5.50	-0.183594	0.121094	1.020020	-5.390000	9.100000	-29.820000	684.00	0.08	-0.17
2.55	0.00	0.00	0.00	0.00	0.00	0.00	0.00	0.00	0.00	0.00	0.00	0.00	0.00	0.00	0.00	0.00	-1.969727	0.914062	2.551758	71.470001	-510.649994	200.970001	0.00	0.00	0.00	1.50	1.50	2.50	2.00	2.00	2.75	0.75	8.00	4.25	4.75	7.00	8.00	10.75	7.75	2.25	6.25	-0.181641	0.160156	1.005371	1.190000	18.969999	-30.240000	744.00	0.12	-0.15
2.56	0.00	0.00	0.00	0.00	0.00	0.00	0.00	0.00	0.00	0.00	0.00	0.00	0.00	0.00	0.00	0.00	-2.626953	0.246582	2.677246	125.090004	-498.119995	198.029999	0.00	0.00	0.00	0.75	0.75	1.50	1.75	1.50	1.75	0.75	7.75	5.75	7.25	8.00	8.75	11.00	9.50	3.00	7.00	-0.218750	0.110840	1.078125	8.610000	32.270000	-28.980000	788.00	0.17	-0.14
2.57	0.00	0.00	0.00	0.00	0.00	0.00	0.00	0.00	0.00	0.00	0.00	0.00	0.00	0.00	0.00	0.00	-3.324707	-0.516113	2.758301	179.759995	-469.350006	168.070007	0.00	0.00	0.00	0.50	0.75	1.50	1.50	0.75	1.00	0.25	7.25	7.00	8.25	9.00	9.50	11.25	11.25	3.75	7.50	-0.186035	0.105469	1.067383	18.760000	52.009998	-27.160000	824.00	0.19	-0.12
2.58	0.00	0.00	0.00	0.00	0.00	0.00	0.00	0.00	0.00	0.00	0.00	0.00	0.00	0.00	0.00	0.00	-3.841309	-1.135254	2.759766	170.449997	-437.850006	124.599998	0.00	0.00	0.00	0.25	0.25	0.75	1.00	0.00	0.00	0.00	6.50	7.75	9.00	10.00	10.00	11.50	13.00	5.25	8.25	-0.001953	0.471680	1.471191	33.740002	76.440002	-28.350000	839.00	0.22	-0.11
2.59	0.00	0.00	0.00	0.00	0.00	0.00	0.00	0.00	0.00	0.00	0.00	0.00	0.00	0.00	0.00	0.00	-4.241211	-1.203125	2.655273	104.930000	-413.209991	83.370003	0.00	0.00	0.00	0.50	0.25	0.75	0.75	0.00	0.00	0.00	5.50	8.25	9.50	10.75	10.50	11.25	14.75	6.25	8.75	-0.276367	0.115234	1.376465	68.389999	127.470001	-30.870001	875.00	0.23	-0.10
2.60	0.00	0.00	0.00	0.00	0.00	0.00	0.00	0.00	0.00	0.00	0.00	0.00	0.00	0.00	0.00	0.00	-4.443359	-1.013184	2.231934	34.230000	-387.589996	50.680000	0.00	0.00	0.00	0.00	0.00	0.75	0.25	0.00	0.00	0.00	4.25	9.00	10.00	11.00	10.50	10.75	16.50	6.75	9.00	-0.141602	0.338379	1.312500	85.889999	230.580002	-30.590000	877.00	0.25	-0.08
2.61	0.00	0.00	0.00	0.00	0.00	0.00	0.00	0.00	0.00	0.00	0.00	0.00	0.00	0.00	0.00	0.00	-4.503906	-0.306641	1.278809	-48.509998	-323.049988	-13.930000	0.00	0.00	0.00	0.25	0.00	0.25	0.00	0.00	0.00	0.00	3.25	9.00	10.25	11.25	10.25	9.75	18.00	7.25	9.50	-0.283203	0.168945	1.520508	68.110001	322.420013	-39.549999	871.00	0.26	-0.07
2.62	0.00	0.00	0.00	0.00	0.00	0.00	0.00	0.00	0.00	0.00	0.00	0.00	0.00	0.00	0.00	0.00	-5.111816	0.060059	1.020020	-24.430000	-283.149994	-57.260002	0.00	0.00	0.00	0.50	0.00	0.25	0.00	0.00	0.00	0.00	2.25	9.25	10.50	11.25	9.75	8.75	19.25	7.75	9.75	-0.363770	0.198242	1.485840	38.990002	379.610016	-45.570000	868.00	0.27	-0.05
2.63	0.00	0.00	0.00	0.00	0.00	0.00	0.00	0.00	0.00	0.00	0.00	0.00	0.00	0.00	0.00	0.00	-5.397949	0.323730	0.292480	8.400000	-242.479996	-82.180000	0.00	0.00	0.00	0.25	0.00	0.25	0.25	0.00	0.00	0.00	1.50	9.25	10.50	11.00	9.25	8.00	20.50	8.00	10.00	-0.400391	0.179688	1.474609	18.410000	408.100006	-52.220001	857.00	0.28	-0.04
2.64	0.00	0.00	0.00	0.00	0.00	0.00	0.00	0.00	0.00	0.00	0.00	0.00	0.00	0.00	0.00	0.00	-5.621582	0.494141	-0.405762	28.350000	-185.500000	-63.980000	0.00	0.00	0.00	0.00	0.00	0.25	0.00	0.00	0.00	0.00	1.25	9.00	10.75	10.75	8.50	7.00	20.75	8.25	9.75	-0.509766	0.270508	1.478516	10.780000	427.700012	-55.090000	831.00	0.29	-0.03
2.65	0.00	0.00	0.00	0.00	0.00	0.00	0.00	0.00	0.00	0.00	0.00	0.00	0.00	0.00	0.00	0.00	-5.784180	0.457031	-0.839844	39.410000	-110.599998	-7.840000	0.00	0.00	0.00	0.00	0.00	0.00	0.00	0.00	0.00	0.00	0.75	8.25	10.50	10.50	8.00	5.75	20.25	8.25	9.75	-0.570801	0.209961	1.480469	14.770000	458.779999	-60.549999	785.00	0.29	-0.03
2.66	0.00	0.00	0.25	0.00	0.00	0.00	0.00	0.00	0.00	0.00	0.00	0.00	0.00	0.00	0.00	0.00	-5.810547	0.125000	-0.798340	48.230000	-30.799999	60.549999	3.00	0.00	0.00	0.00	0.00	0.00	0.00	0.00	0.00	0.00	0.50	7.25	10.25	10.25	7.50	5.00	19.25	8.00	9.50	-0.521973	0.468262	1.256836	11.200000	500.220001	-71.889999	739.00	0.30	-0.03
2.67	0.00	0.00	0.25	0.00	0.00	0.00	0.00	0.00	0.00	0.00	0.00	0.00	0.00	0.00	0.00	0.00	-5.672852	-0.350098	-0.555664	50.259998	39.619999	105.910004	3.00	0.00	0.00	0.00	0.00	0.00	0.00	0.00	0.00	0.00	0.25	6.00	9.50	9.75	7.00	3.75	17.50	7.50	9.00	-0.682617	0.429199	1.497559	24.990000	552.299988	-86.449997	667.00	0.30	-0.03
2.68	0.00	0.00	0.00	0.00	0.00	0.00	0.00	0.00	0.00	0.00	0.00	0.00	0.00	0.00	0.00	0.00	-5.259766	-0.692871	-0.178223	41.439999	100.309998	112.209999	0.00	0.00	0.00	0.00	0.00	0.00	0.00	0.00	0.00	0.00	0.00	5.00	8.00	8.25	5.50	2.50	14.75	6.50	7.75	-1.086914	0.379883	2.113770	41.650002	613.130005	-89.110001	551.00	0.30	-0.02
2.69	0.00	0.00	0.25	0.00	0.00	0.00	0.00	0.00	0.00	0.00	0.00	0.00	0.00	0.00	0.00	0.00	-3.528320	-0.829590	0.373047	23.520000	154.139999	94.360001	3.00	0.00	0.00	0.00	0.00	0.00	0.00	0.00	0.00	0.00	0.00	3.75	5.50	5.50	3.75	1.25	12.00	5.50	5.50	-1.657715	0.648438	2.842285	63.209999	661.080017	-74.129997	404.00	0.31	-0.01
2.70	0.50	2.25	0.75	0.25	0.00	0.00	0.00	0.00	0.00	0.00	0.00	0.00	0.00	0.00	0.00	0.00	1.199707	-0.743164	3.805664	-40.389999	300.019989	99.400002	37.00	0.00	0.00	0.00	0.00	0.00	0.00	0.00	0.00	0.00	0.00	2.50	3.75	2.50	2.25	1.25	9.25	4.25	3.25	-2.806152	1.893066	4.790527	205.380005	697.970032	26.040001	274.00	0.32	0.00
2.71	6.50	7.25	2.00	2.25	0.00	0.00	0.00	0.00	0.00	0.00	0.00	0.00	0.00	0.00	0.00	0.00	1.689941	-0.365234	1.591797	-67.620003	114.800003	83.860001	181.00	-0.38	-0.04	0.00	0.00	0.00	0.00	0.00	0.00	0.00	0.00	1.75	2.50	1.75	1.75	1.00	6.75	3.00	1.50	-1.832520	-0.584473	5.410156	344.679993	622.929993	20.160000	192.00	0.32	0.01
2.72	19.25	18.50	4.00	5.25	0.00	0.00	0.00	0.00	0.00	0.00	0.00	0.00	0.00	0.25	0.00	0.00	1.399902	-1.144043	-0.775879	-15.400000	109.760002	75.110001	474.00	-0.38	-0.03	0.00	0.00	0.00	0.00	0.00	0.00	0.00	0.00	1.00	1.75	1.25	1.25	1.50	4.25	1.50	0.50	-0.314941	0.054199	5.322266	287.839996	532.070007	-52.290001	125.00	0.30	-0.02
2.73	28.50	26.50	8.00	9.25	0.00	0.00	0.00	0.00	0.00	0.00	0.00	0.00	0.00	0.00	0.00	0.00	-2.209961	-0.803711	2.657715	-8.190000	359.029999	31.080000	730.00	-0.37	-0.03	0.00	0.00	0.00	0.00	0.00	0.00	0.00	0.00	0.50	1.00	0.50	0.50	0.25	1.00	0.00	0.00	1.450684	0.420410	4.416016	208.039993	447.230011	-116.340004	38.00	0.00	0.00
2.74	34.75	31.75	11.75	13.75	0.50	0.00	0.00	0.00	0.00	0.00	0.00	0.00	0.00	0.00	0.00	0.00	-1.811035	-0.189941	5.934082	-19.460001	383.809998	7.490000	939.00	-0.37	-0.03	0.00	0.00	0.00	0.00	0.00	0.00	0.00	0.00	0.00	0.25	0.00	0.00	0.00	0.50	0.00	0.00	1.759766	0.577148	3.514160	206.220001	397.320007	-217.419998	7.00	0.00	0.00
2.75	37.75	33.75	14.75	16.50	1.00	0.50	0.00	0.00	0.00	0.00	0.00	0.00	0.00	0.00	0.00	0.00	-0.788574	-0.089355	2.590820	-49.630001	253.050003	-7.630000	1063.00	-0.36	-0.03	0.00	0.00	0.00	0.00	0.00	0.00	0.00	0.00	0.00	0.25	0.00	0.00	0.00	0.25	0.00	0.00	0.572754	2.926758	7.274414	169.119995	239.680008	-207.339996	5.00	0.00	0.00
2.76	36.75	33.50	16.00	18.00	2.00	1.00	0.00	0.00	0.50	0.00	0.00	0.00	0.00	0.25	0.00	0.00	-0.209473	0.314941	1.458008	-26.950001	235.970001	2.730000	1106.00	-0.35	-0.03	0.00	0.00	0.00	0.00	0.00	0.00	0.00	0.00	0.00	0.25	0.00	0.00	0.00	0.00	0.00	0.00	2.101562	1.837402	4.963379	94.080002	24.990000	-113.750000	3.00	0.00	0.00
2.77	35.25	32.00	17.25	18.75	2.25	1.50	0.25	0.00	0.25	0.00	0.00	0.00	0.00	0.25	0.00	0.00	-0.393066	-0.226562	1.998047	6.160000	219.380005	18.270000	1108.00	-0.35	-0.04	0.00	0.00	0.00	0.00	0.00	0.00	0.00	0.00	0.00	0.25	0.25	0.00	0.00	0.00	0.00	0.00	1.771484	1.674316	3.500000	-6.720000	-133.630005	-7.140000	5.00	0.00	0.00
2.78	33.50	31.00	16.75	19.75	2.50	2.25	0.25	0.00	0.00	0.25	0.00	0.00	0.00	0.50	0.00	0.00	-0.312012	-0.529297	1.614258	31.710001	170.589996	8.120000	1098.00	-0.34	-0.04	0.00	0.00	0.00	0.00	0.00	0.00	0.00	0.00	0.00	0.25	0.00	0.00	0.00	0.00	0.00	0.00	1.594238	1.332520	2.541992	-105.279999	-200.479996	68.739998	3.00	0.00	0.00
2.79	32.00	30.00	17.00	20.00	3.00	2.75	0.25	0.00	0.00	0.00	0.00	0.00	0.00	0.50	0.00	0.00	-0.165527	-0.238281	1.302734	54.740002	132.860001	-15.190001	1087.00	-0.34	-0.04	0.00	0.00	0.00	0.00	0.00	0.00	0.00	0.00	0.00	0.00	0.00	0.00	0.00	0.00	0.00	0.00	1.552734	1.176270	2.101562	-141.539993	-220.710007	105.840004	0.00	0.00	0.00
2.80	30.00	28.75	16.75	20.00	3.50	3.00	0.25	0.00	0.25	0.00	0.00	0.00	0.00	0.25	0.00	0.00	-0.227051	0.254883	1.243164	64.610001	113.959999	-25.059999	1062.00	-0.34	-0.04	0.00	0.00	0.00	0.00	0.00	0.00	0.00	0.00	0.00	0.00	0.00	0.00	0.00	0.00	0.00	0.00	1.462402	0.939941	2.236328	-125.300003	-245.979996	111.370003	0.00	0.00	0.00
2.81	28.00	27.75	16.25	19.50	3.75	3.50	0.25	0.25	0.25	0.00	0.00	0.00	0.00	0.00	0.00	0.00	-0.297852	0.429199	1.348145	54.040001	95.690002	-16.240000	1031.00	-0.33	-0.05	0.00	0.00	0.00	0.00	0.00	0.00	0.00	0.00	0.00	0.00	0.00	0.00	0.00	0.00	0.00	0.00	1.305176	0.561523	2.290039	-95.760002	-296.660004	97.440002	0.00	0.00	0.00
2.82	26.25	25.75	15.25	18.50	3.75	3.75	0.25	0.25	0.00	0.00	0.00	0.00	0.00	0.25	0.00	0.00	-0.166992	0.066406	1.062500	36.750000	73.220001	-3.010000	974.00	-0.33	-0.05	0.00	0.00	0.00	0.00	0.00	0.00	0.00	0.00	0.00	0.00	0.00	0.00	0.00	0.00	0.00	0.00	1.023926	0.219727	2.250977	-80.290001	-362.179993	71.540001	0.00	0.00	0.00
2.83	23.50	23.25	14.50	17.50	3.75	3.50	0.25	0.25	0.00	0.00	0.00	0.00	0.00	0.00	0.00	0.00	-0.214844	0.197754	1.083008	12.810000	58.029999	-0.280000	898.00	-0.33	-0.05	0.00	0.00	0.00	0.00	0.00	0.00	0.00	0.00	0.00	0.00	0.00	0.00	0.00	0.00	0.00	0.00	0.652344	0.005859	2.139648	-89.459999	-423.709991	39.970001	0.00	0.00	0.00
2.84	21.00	21.25	13.25	15.75	3.50	3.50	0.25	0.25	0.00	0.00	0.00	0.00	0.00	0.50	0.00	0.00	-0.200684	0.210938	1.028809	2.940000	52.080002	5.740000	822.00	-0.32	-0.05	0.00	0.00	0.00	0.00	0.00	0.00	0.00	0.00	0.00	0.00	0.00	0.00	0.00	0.00	0.00	0.00	0.285156	-0.052734	2.077148	-115.500000	-475.510010	8.610000	0.00	0.00	0.00
2.85	17.75	18.00	12.00	14.25	3.50	3.00	0.25	0.25	0.25	0.00	0.00	0.00	0.00	0.25	0.00	0.00	-0.125488	0.009277	0.945312	-0.140000	49.000000	11.200000	724.00	-0.32	-0.05	0.00	0.00	0.00	0.00	0.00	0.00	0.00	0.00	0.00	0.00	0.00	0.00	0.00	0.00	0.00	0.00	-0.027832	0.029785	1.980469	-141.470001	-518.630005	-20.160000	0.00	0.00	0.00
2.86	14.75	15.25	10.50	12.25	3.25	2.50	0.25	0.25	0.00	0.00	0.00	0.00	0.00	0.25	0.00	0.00	-0.062500	-0.138184	0.838867	5.530000	52.360001	7.770000	617.00	-0.32	-0.05	0.00	0.00	0.00	0.00	0.00	0.00	0.00	0.00	0.00	0.00	0.00	0.00	0.00	0.00	0.00	0.00	-0.324707	0.218262	1.888672	-149.449997	-551.950012	-45.080002	0.00	0.00	0.00
2.87	11.50	11.75	9.25	10.50	3.00	2.50	0.25	0.25	0.00	0.00	0.00	0.00	0.00	0.00	0.00	0.00	-0.072754	-0.130371	0.690918	16.799999	64.959999	-1.400000	513.00	-0.31	-0.05	0.00	0.00	0.00	0.00	0.00	0.00	0.00	0.00	0.00	0.00	0.00	0.00	0.00	0.00	0.00	0.00	-0.563477	0.415039	1.720703	-128.029999	-572.669983	-61.740002	0.00	0.00	0.00
2.88	9.25	9.25	8.25	9.00	3.00	2.00	0.25	0.25	0.50	0.00	0.00	0.00	0.00	0.00	0.00	0.00	0.000977	-0.106934	0.648438	32.200001	89.389999	-10.500000	441.00	-0.30	-0.05	0.00	0.00	0.00	0.00	0.00	0.00	0.00	0.00	0.00	0.00	0.00	0.00	0.00	0.00	0.00	0.00	-0.817383	0.505859	1.581543	-33.810001	-569.239990	-66.989998	0.00	0.00	0.00
2.89	7.25	7.50	7.50	8.25	3.00	2.00	0.50	0.25	0.25	0.25	0.00	0.00	0.00	0.00	0.00	0.00	-0.187012	-0.072266	0.984863	56.070000	111.510002	-20.860001	390.00	-0.29	-0.05	0.00	0.00	0.00	0.00	0.00	0.00	0.00	0.00	0.00	0.00	0.00	0.00	0.00	0.00	0.00	0.00	-0.817383	0.505859	1.581543	-33.810001	-569.239990	-66.989998	0.00	0.00	0.00
2.90	6.25	6.50	6.75	7.50	2.75	2.00	0.50	0.50	0.50	1.00	0.00	0.00	0.00	0.25	0.00	0.00	-0.388672	0.335449	1.396484	53.619999	82.389999	-24.430000	368.00	-0.26	-0.05	0.00	0.00	0.00	0.00	0.00	0.00	0.00	0.00	0.00	0.00	0.00	0.00	0.00	0.00	0.00	0.00	-0.803223	0.568359	1.772461	4.760000	-556.989990	-54.740002	0.00	0.00	0.00
2.91	5.00	6.00	6.25	6.75	2.75	1.75	0.50	0.50	0.75	1.00	0.25	0.00	0.00	0.50	0.00	0.00	-0.418457	0.384277	1.320312	13.790000	44.590000	-16.520000	342.00	-0.24	-0.04	0.00	0.00	0.00	0.00	0.00	0.00	0.00	0.00	0.00	0.00	0.00	0.00	0.00	0.00	0.00	0.00	-0.862793	0.761719	2.142578	21.210001	-530.739990	-5.670000	0.00	0.00	0.00
2.92	4.00	5.25	5.75	6.00	2.50	1.75	0.75	0.75	1.25	1.25	0.75	0.00	0.00	0.75	0.00	0.00	-0.269531	0.124023	1.000488	-5.250000	11.830000	-8.400000	333.00	-0.20	-0.04	0.00	0.00	0.00	0.00	0.00	0.00	0.00	0.00	0.00	0.00	0.00	0.00	0.00	0.00	0.00	0.00	-1.045898	0.807617	2.394531	36.400002	-522.900024	16.100000	0.00	0.00	0.00
2.93	3.25	4.25	5.50	5.50	2.50	1.50	0.75	0.75	1.50	1.50	1.00	0.25	0.50	0.75	0.25	0.00	-0.251953	0.062012	0.961426	-6.860000	-2.870000	-10.360000	323.00	-0.16	-0.04	0.00	0.00	0.00	0.00	0.00	0.00	0.00	0.00	0.00	0.00	0.00	0.00	0.00	0.00	0.00	0.00	-1.254395	0.722168	2.493164	72.870003	-514.080017	30.380001	0.00	0.00	0.00
2.94	3.00	3.75	5.00	5.00	2.75	1.50	1.00	1.00	2.00	1.50	1.25	0.25	0.50	1.25	0.25	0.00	-0.236816	0.130859	0.930664	-7.630000	-5.950000	-13.720000	328.00	-0.13	-0.03	0.00	0.00	0.00	0.00	0.00	0.00	0.00	0.00	0.00	0.00	0.00	0.00	0.00	0.00	0.00	0.00	-1.525879	0.598145	2.752441	103.180000	-502.179993	41.580002	0.00	0.00	0.00
2.95	2.25	3.25	5.25	4.50	2.75	1.75	1.00	1.50	2.75	2.00	1.25	0.75	1.00	2.25	0.25	0.00	-0.269043	0.083984	0.943359	-9.100000	-6.440000	-14.560000	357.00	-0.08	-0.03	0.00	0.00	0.00	0.00	0.00	0.00	0.00	0.00	0.00	0.00	0.00	0.00	0.00	0.00	0.00	0.00	-1.930176	0.494629	2.970703	105.629997	-489.720001	57.540001	0.00	0.00	0.00
2.96	2.25	2.50	5.00	4.00	3.25	1.50	1.25	1.75	3.00	2.00	1.50	1.00	1.50	2.25	0.25	0.00	-0.255371	0.080078	0.931641	-9.520000	-6.720000	-15.050000	365.00	-0.06	-0.03	0.00	0.00	0.00	0.00	0.00	0.00	0.00	0.00	0.00	0.00	0.00	0.00	0.00	0.00	0.00	0.00	-2.397949	0.431641	3.095703	94.639999	-476.000000	76.370003	0.00	0.00	0.00
2.97	2.00	2.75	5.00	3.75	3.00	1.75	1.50	1.75	4.50	3.00	2.25	1.50	1.75	3.25	0.75	0.25	-0.227539	0.103516	0.936035	-10.430000	-5.460000	-14.980000	426.00	-0.01	-0.02	0.00	0.00	0.00	0.00	0.00	0.00	0.00	0.00	0.00	0.00	0.00	0.00	0.00	0.00	0.00	0.00	-2.976074	0.415527	3.296387	92.120003	-463.260010	91.279999	0.00	0.00	0.00
2.98	2.25	3.00	5.00	3.25	3.75	1.75	1.75	2.25	5.00	3.75	2.50	1.75	2.25	4.25	0.75	0.50	-0.234375	0.077148	0.955566	-10.360000	-1.820000	-16.030001	479.00	0.01	-0.01	0.00	0.00	0.00	0.00	0.00	0.00	0.00	0.00	0.00	0.00	0.00	0.00	0.00	0.00	0.00	0.00	-3.532227	0.334473	3.122559	87.150002	-452.899994	99.610001	0.00	0.00	0.00
2.99	1.50	2.00	4.75	2.50	3.50	1.75	2.00	2.50	7.00	5.25	3.25	1.75	2.75	5.25	1.25	0.50	-0.233887	0.086426	0.953125	-9.170000	1.680000	-16.799999	523.00	0.07	0.00	0.00	0.00	0.00	0.00	0.00	0.00	0.00	0.00	0.00	0.00	0.00	0.00	0.00	0.00	0.00	0.00	-4.506348	-0.112305	2.756836	57.119999	-444.640015	102.340004	0.00	0.00	0.00
3.00	2.00	1.25	4.50	2.00	3.50	1.50	2.25	2.75	8.25	7.25	5.00	2.25	3.25	7.00	1.25	0.75	-0.243164	0.082031	0.944824	-7.560000	5.040000	-18.549999	599.00	0.10	0.01	0.00	0.00	0.00	0.00	0.00	0.00	0.00	0.00	0.00	0.00	0.00	0.00	0.00	0.00	0.00	0.00	-4.110352	0.883789	2.163086	39.900002	-400.119995	125.650002	0.00	0.00	0.00
3.01	1.50	1.25	3.50	1.75	3.00	1.25	2.50	3.25	9.00	8.25	6.75	3.00	4.00	8.75	2.00	1.00	-0.232422	0.074219	0.955566	-5.600000	7.980000	-19.460001	661.00	0.14	0.00	0.00	0.00	0.00	0.00	0.00	0.00	0.00	0.00	0.00	0.00	0.00	0.00	0.00	0.00	0.00	0.00	-4.587402	0.521484	1.992676	68.599998	-358.260010	181.160004	0.00	0.00	0.00
3.02	1.25	0.75	3.50	1.50	2.50	0.75	2.75	3.75	10.00	9.00	7.75	3.75	5.00	10.00	2.50	1.50	-0.234375	0.086914	1.000977	0.700000	20.860001	-17.639999	718.00	0.16	-0.00	0.00	0.00	0.00	0.00	0.00	0.00	0.00	0.00	0.00	0.00	0.00	0.00	0.00	0.00	0.00	0.00	-5.106934	-0.200195	1.017090	80.430000	-301.630005	244.440002	0.00	0.00	0.00
3.03	0.25	0.75	2.75	0.75	2.00	0.50	2.75	4.00	10.75	10.00	8.50	4.25	5.50	11.50	3.50	1.75	-0.240234	0.086914	1.016602	0.700000	20.860001	-17.639999	749.00	0.19	-0.00	0.00	0.00	0.00	0.00	0.00	0.00	0.00	0.00	0.00	0.00	0.00	0.00	0.00	0.00	0.00	0.00	-6.264160	-0.304688	0.850586	23.240000	-250.040009	245.490005	0.00	0.00	0.00
3.04	0.25	0.00	1.75	0.25	1.00	0.25	2.50	3.25	11.75	10.75	9.75	5.75	6.00	13.50	5.50	2.25	-0.252441	0.182129	1.021484	17.850000	59.010002	-23.799999	791.00	0.23	-0.00	0.00	0.00	0.00	0.00	0.00	0.00	0.00	0.00	0.00	0.00	0.00	0.00	0.00	0.00	0.00	0.00	-6.620605	-0.064453	-0.377441	-20.650000	-199.430008	186.199997	0.00	0.00	0.00
3.05	0.50	0.25	1.00	0.25	0.25	0.00	1.75	2.50	12.75	11.50	10.75	6.25	6.25	15.00	6.75	3.25	-0.255371	0.187500	1.036621	33.670002	84.910004	-30.030001	824.00	0.25	-0.00	0.00	0.00	0.00	0.00	0.00	0.00	0.00	0.00	0.00	0.00	0.00	0.00	0.00	0.00	0.00	0.00	-6.924316	0.009766	-0.785645	9.660000	-113.470001	80.709999	0.00	0.00	0.00
3.06	0.00	0.25	1.25	0.00	0.00	0.00	1.25	1.50	13.25	11.75	11.50	6.50	6.00	16.50	7.75	4.75	-0.355957	0.132324	1.246582	68.320000	121.099998	-39.759998	842.00	0.26	0.00	0.00	0.00	0.00	0.00	0.00	0.00	0.00	0.00	0.00	0.00	0.00	0.00	0.00	0.00	0.00	0.00	-6.569824	-0.240234	-0.426270	69.230003	-19.809999	-9.730000	0.00	0.00	0.00
3.07	0.00	0.00	1.00	0.00	0.00	0.00	0.25	1.25	13.50	12.25	11.75	6.25	5.50	18.00	8.75	5.25	-0.424316	0.246582	1.368164	84.629997	279.579987	-41.720001	849.00	0.28	0.01	0.25	0.25	0.00	0.00	0.00	0.00	0.00	0.00	0.00	0.00	0.00	0.00	0.00	0.00	0.00	0.00	-5.948242	-0.581055	0.124023	75.739998	49.700001	-27.719999	5.00	0.00	0.00
3.08	0.25	0.00	1.00	0.00	0.00	0.00	0.00	1.00	13.75	12.25	11.75	6.25	5.00	19.00	9.25	5.75	-0.408691	0.173828	1.519531	45.430000	378.769989	-48.020000	859.00	0.28	0.01	1.25	3.50	0.75	1.00	0.00	0.00	0.00	0.00	0.00	0.00	0.00	0.00	0.00	0.00	0.00	0.00	-5.403320	-1.559082	1.618652	-113.330002	145.389999	55.090000	65.00	-0.37	-0.09
3.09	0.00	0.00	1.25	0.00	0.00	0.00	0.00	1.00	13.50	12.00	11.75	5.75	4.25	20.00	10.00	5.75	-0.485352	0.099609	1.666504	14.980000	420.350006	-53.060001	858.00	0.28	0.02	7.25	10.25	1.75	3.25	0.00	0.00	0.00	0.00	0.00	0.00	0.00	0.00	0.00	0.00	0.00	0.00	0.213379	1.297363	1.083496	-106.050003	244.580002	86.379997	225.00	-0.38	-0.06
3.10	0.00	0.00	0.75	0.00	0.00	0.00	0.00	0.25	12.75	11.75	11.25	5.25	3.25	20.25	10.50	6.25	-0.509277	0.310059	1.544922	13.720000	458.989990	-57.049999	819.00	0.29	0.03	16.75	17.50	4.25	6.00	0.00	0.00	0.00	0.00	0.00	0.00	0.00	0.00	0.00	0.25	0.00	0.00	-1.262207	-1.507812	0.563477	-85.260002	270.269989	77.910004	450.00	-0.37	-0.04
3.11	0.00	0.00	0.25	0.00	0.00	0.00	0.00	0.25	12.00	11.75	10.75	4.50	2.50	20.50	10.75	6.00	-0.574219	0.243164	1.619629	23.450001	506.450012	-72.519997	788.00	0.30	0.03	21.75	20.00	7.50	8.75	0.00	0.00	0.00	0.00	0.00	0.00	0.00	0.00	0.00	0.25	0.00	0.00	-1.645020	-0.401367	3.867676	-72.800003	416.429993	30.309999	591.00	-0.37	-0.03
3.12	0.00	0.00	0.00	0.00	0.00	0.00	0.00	0.25	11.25	11.50	10.25	3.50	2.00	19.75	10.25	5.75	-0.597656	0.392090	1.797852	15.050000	580.090027	-95.550003	739.00	0.31	0.04	24.25	21.25	9.25	10.50	0.50	0.25	0.00	0.00	0.00	0.00	0.00	0.00	0.00	0.50	0.00	0.00	-0.856445	-1.337891	3.722656	-49.209999	360.850006	0.770000	677.00	-0.36	-0.03
3.13	0.00	0.00	0.00	0.00	0.00	0.00	0.00	0.00	9.50	10.50	9.50	3.00	1.25	17.50	9.25	5.25	-0.913574	0.350098	2.027832	-1.820000	677.390015	-114.940002	650.00	0.31	0.04	24.50	21.00	10.75	11.50	0.75	0.75	0.00	0.00	0.00	0.00	0.00	0.00	0.00	0.50	0.00	0.00	-0.182617	-0.403809	1.341797	-48.369999	295.890015	-49.910000	714.00	-0.35	-0.03
3.14	0.00	0.00	0.00	0.00	0.00	0.00	0.00	0.00	7.50	8.75	7.75	2.00	0.50	14.75	7.75	4.00	-1.571289	0.566406	2.935547	5.250000	767.479980	-116.690002	525.00	0.31	0.05	23.75	20.25	12.00	12.50	1.75	1.50	0.25	0.00	0.25	0.00	0.00	0.50	0.00	0.75	0.00	0.00	-0.207520	0.477051	1.812012	-0.280000	287.140015	-64.330002	758.00	-0.33	-0.03
3.15	0.00	0.00	0.00	0.00	0.00	0.00	0.00	0.00	6.00	6.00	5.25	1.75	0.25	11.00	5.75	2.25	-3.286133	0.937988	4.430176	65.870003	818.859985	-70.070000	383.00	0.31	0.05	23.00	19.75	12.50	13.25	2.75	2.50	0.25	0.00	0.00	0.00	0.00	0.00	0.00	1.00	0.00	0.00	-0.561035	0.625488	2.229004	27.790001	240.169998	-42.770000	774.00	-0.33	-0.04
3.16	0.00	0.00	0.00	0.00	0.00	0.00	0.00	0.00	3.75	4.00	2.75	1.50	0.25	8.25	3.75	0.75	-3.699707	1.753418	5.517578	208.600006	804.650024	2.030000	251.00	0.32	0.06	22.50	19.25	13.00	13.50	4.00	3.75	0.25	0.00	0.00	0.00	0.00	0.00	0.00	0.75	0.00	0.00	-0.414062	0.282227	2.061035	29.260000	180.389999	-18.969999	798.00	-0.32	-0.04
3.17	0.00	0.00	0.00	0.00	0.00	0.00	0.00	0.00	2.50	2.50	1.50	1.00	0.00	5.75	2.00	0.25	-2.674805	0.454590	6.948730	384.230011	748.580017	18.410000	156.00	0.32	0.08	21.75	18.50	13.00	13.50	5.25	5.00	0.25	0.25	0.00	0.25	0.00	0.00	0.00	1.00	0.00	0.00	-0.205566	-0.003418	1.582520	23.660000	125.440002	-14.210000	819.00	-0.31	-0.04
3.18	0.00	0.00	0.00	0.00	0.00	0.00	0.00	0.00	1.25	1.25	0.25	0.25	0.00	2.50	0.25	0.25	-0.460449	-0.439941	6.723633	364.140015	657.440002	-44.730000	60.00	0.31	0.12	20.75	17.75	12.75	13.25	5.50	5.25	0.25	0.50	0.00	0.00	0.00	0.00	0.00	0.75	0.00	0.00	-0.062500	0.222168	0.976562	19.670000	96.459999	-16.660000	801.00	-0.31	-0.05
3.19	0.00	0.00	0.00	0.00	0.00	0.00	0.00	0.00	1.00	0.75	0.25	0.25	0.00	1.50	0.25	0.00	1.750000	-0.249023	5.234863	261.309998	570.500000	-134.820007	42.00	0.00	0.00	19.00	17.00	12.50	13.00	5.75	5.75	0.25	0.50	0.00	0.00	0.00	0.00	0.25	0.75	0.00	0.00	-0.115234	0.228027	1.145996	13.580000	98.070000	-11.830000	781.00	-0.30	-0.05
3.20	0.00	0.00	0.25	0.00	0.00	0.00	0.00	0.00	0.25	0.75	0.25	0.00	0.00	0.75	0.25	0.00	3.689941	1.557129	1.790039	-3.430000	547.049988	-193.339996	25.00	0.00	0.00	18.00	15.50	12.00	12.25	6.00	5.75	0.50	0.50	0.00	0.00	0.00	0.00	0.00	0.50	0.00	0.00	-0.203613	0.206055	1.325195	1.610000	82.879997	-7.840000	745.00	-0.30	-0.05
3.21	0.00	0.00	0.00	0.00	0.00	0.00	0.00	0.00	0.00	0.75	0.25	0.00	0.00	0.25	0.00	0.00	2.704590	2.991699	8.959473	-110.110001	176.889999	-113.260002	13.00	0.00	0.00	16.25	14.00	11.25	11.75	5.75	5.75	0.50	0.75	0.00	0.00	0.00	0.00	0.25	0.25	0.00	0.00	-0.147461	0.184082	1.046875	-5.460000	62.650002	-2.800000	700.00	-0.30	-0.05
3.22	0.00	0.00	0.00	0.00	0.00	0.00	0.00	0.00	0.50	0.50	0.00	0.00	0.00	0.25	0.00	0.00	2.384277	1.496582	5.128906	-97.019997	-138.809998	-21.070000	14.00	0.00	0.00	14.50	12.50	10.75	11.25	5.75	5.75	0.50	1.00	0.00	0.00	0.00	0.00	0.00	0.50	0.00	0.00	-0.102539	0.098633	0.991699	-6.510000	58.730000	1.820000	661.00	-0.29	-0.06
3.23	0.00	0.00	0.00	0.00	0.00	0.00	0.00	0.00	0.00	0.50	0.25	0.00	0.00	0.25	0.00	0.00	1.548340	0.561035	1.979492	-113.750000	-303.100006	16.309999	10.00	0.00	0.00	12.00	11.25	10.00	10.50	6.00	5.50	0.50	1.00	0.00	0.00	0.00	0.00	0.25	0.50	0.00	0.00	-0.091797	0.016113	1.002441	-2.800000	59.150002	0.420000	609.00	-0.28	-0.06
3.24	0.00	0.00	0.00	0.00	0.00	0.00	0.00	0.00	0.25	0.50	0.00	0.00	0.00	0.00	0.00	0.00	1.311035	0.561035	1.979492	-113.750000	-303.100006	16.309999	8.00	0.00	0.00	10.50	9.50	9.25	9.75	5.75	5.25	0.50	1.25	0.00	0.00	0.00	0.00	0.00	0.50	0.00	0.00	-0.026855	0.004395	0.932129	5.250000	60.830002	-5.180000	557.00	-0.27	-0.06
3.25	0.00	0.00	0.00	0.00	0.00	0.00	0.00	0.00	0.00	0.50	0.00	0.00	0.00	0.00	0.00	0.00	1.037598	0.622070	1.978516	-99.120003	-339.989990	1.260000	5.00	0.00	0.00	8.75	8.25	8.75	9.00	5.50	5.00	0.50	1.50	0.00	0.00	0.00	0.00	0.50	0.50	0.00	0.00	-0.143555	0.077637	1.087891	5.040000	63.209999	-11.410000	517.00	-0.26	-0.07
3.26	0.00	0.00	0.00	0.00	0.00	0.00	0.00	0.00	0.00	0.50	0.00	0.00	0.00	0.00	0.00	0.00	0.703613	0.497070	2.177246	-79.029999	-387.100006	-6.440000	5.00	0.00	0.00	7.00	7.25	7.75	8.50	5.25	4.50	0.50	1.50	0.00	0.00	0.00	0.00	0.75	0.50	0.00	0.00	-0.234863	0.131348	1.105957	8.540000	57.540001	-14.140000	467.00	-0.25	-0.08
3.27	0.00	0.00	0.00	0.00	0.00	0.00	0.00	0.00	0.00	0.00	0.00	0.00	0.00	0.00	0.00	0.00	0.407227	0.315430	2.104492	-74.830002	-448.559998	-15.750000	0.00	0.00	0.00	5.75	6.50	7.25	7.50	5.00	4.25	0.75	1.75	0.00	0.00	0.00	0.00	1.00	0.50	0.00	0.00	-0.218262	0.151367	1.019043	8.330000	45.150002	-13.300000	435.00	-0.24	-0.08
3.28	0.00	0.00	0.00	0.00	0.00	0.00	0.00	0.00	0.00	0.00	0.00	0.00	0.00	0.00	0.00	0.00	0.049316	0.198242	1.926270	-87.430000	-503.790009	-25.900000	0.00	0.00	0.00	4.75	5.50	6.50	7.00	4.75	3.75	0.75	2.00	0.00	0.25	0.00	0.25	1.25	0.50	0.00	0.00	-0.201172	0.141602	1.001953	4.620000	16.940001	-9.940000	404.00	-0.22	-0.09
3.29	0.00	0.00	0.00	0.00	0.00	0.00	0.00	0.00	0.25	0.00	0.00	0.00	0.00	0.00	0.00	0.00	-0.249512	0.265137	1.713379	-101.500000	-539.909973	-35.700001	3.00	0.00	0.00	3.75	5.00	5.75	6.25	4.25	3.75	0.75	2.25	0.00	0.00	0.00	0.00	1.50	0.50	0.00	0.00	-0.201172	0.141602	1.001953	4.620000	16.940001	-9.940000	368.00	-0.22	-0.10
3.30	0.00	0.00	0.00	0.00	0.00	0.00	0.00	0.00	0.00	0.00	0.00	0.00	0.00	0.00	0.00	0.00	-0.486816	0.329102	1.256836	-105.769997	-551.460022	-44.380001	0.00	0.00	0.00	3.50	4.00	5.25	5.50	4.00	3.25	0.75	2.75	0.00	0.50	0.00	0.25	2.25	0.75	0.25	0.00	-0.222168	0.135742	0.982910	1.540000	3.570000	-8.400000	361.00	-0.18	-0.11
3.31	0.00	0.00	0.00	0.00	0.00	0.00	0.00	0.00	0.00	0.00	0.00	0.00	0.00	0.00	0.00	0.00	-0.632812	0.466797	0.908203	-92.470001	-535.500000	-50.610001	0.00	0.00	0.00	2.75	3.75	5.00	5.25	4.00	3.50	0.75	3.00	0.75	0.25	0.25	0.50	3.25	1.25	0.25	0.50	-0.208496	0.127441	0.954590	-0.140000	-4.480000	-5.600000	380.00	-0.14	-0.12
3.32	0.00	0.00	0.00	0.00	0.00	0.00	0.00	0.00	0.00	0.00	0.00	0.00	0.00	0.00	0.00	0.00	-0.603027	0.606934	0.850586	-61.180000	-502.040009	-47.529999	0.00	0.00	0.00	2.25	2.50	4.25	4.75	3.75	2.75	0.75	3.25	0.75	0.50	0.25	1.25	3.75	1.75	0.25	0.75	-0.196777	0.107910	0.967773	0.140000	-4.970000	-5.320000	363.00	-0.10	-0.13
3.33	0.00	0.00	0.00	0.00	0.00	0.00	0.00	0.00	0.00	0.00	0.00	0.00	0.00	0.00	0.00	0.00	-0.544434	0.656250	1.143555	-25.129999	-469.140015	-34.580002	0.00	0.00	0.00	2.00	2.25	3.50	3.75	3.75	2.50	0.75	3.75	1.25	1.00	0.50	1.50	5.00	2.00	0.75	1.00	-0.208496	0.107422	0.971191	1.330000	-3.780000	-5.740000	380.00	-0.05	-0.13
3.34	0.00	0.00	0.00	0.00	0.00	0.00	0.00	0.00	0.00	0.00	0.00	0.00	0.00	0.00	0.00	0.00	-0.472168	0.678711	1.713379	2.940000	-454.790009	-17.430000	0.00	0.00	0.00	1.50	1.75	3.25	2.75	3.50	2.25	1.00	4.50	1.50	1.25	1.00	2.00	5.50	2.75	0.75	1.25	-0.202148	0.105957	0.968262	2.870000	-1.750000	-6.160000	395.00	-0.00	-0.14
3.35	0.00	0.00	0.00	0.00	0.00	0.00	0.00	0.00	0.00	0.00	0.00	0.00	0.00	0.00	0.00	0.00	-0.505371	0.649414	2.073242	19.809999	-460.529999	0.000000	0.00	0.00	0.00	1.25	1.50	3.00	2.50	3.00	2.00	1.00	5.00	2.25	2.00	1.75	2.25	6.50	3.50	1.00	1.75	-0.194824	0.100098	0.983887	4.550000	0.980000	-6.300000	432.00	0.04	-0.14
3.36	0.00	0.00	0.00	0.00	0.00	0.00	0.00	0.00	0.00	0.00	0.00	0.00	0.00	0.00	0.00	0.00	-0.618164	0.676758	2.270996	24.639999	-472.850006	18.549999	0.00	0.00	0.00	1.25	1.00	2.50	2.25	2.75	1.50	0.75	5.25	2.25	2.50	2.25	3.00	7.25	5.50	1.25	2.00	-0.186035	0.120117	0.992188	6.020000	4.900000	-7.770000	457.00	0.08	-0.14
3.37	0.00	0.00	0.00	0.00	0.00	0.00	0.00	0.00	0.00	0.00	0.00	0.00	0.00	0.00	0.00	0.00	-0.843750	0.728516	2.564453	24.500000	-483.209991	36.470001	0.00	0.00	0.00	1.00	0.75	2.00	1.25	2.00	1.00	0.75	5.25	3.50	3.25	3.25	3.75	8.25	6.75	1.50	2.75	-0.178711	0.208496	0.979980	7.070000	10.150000	-11.130000	490.00	0.13	-0.12
3.38	0.00	0.00	0.00	0.00	0.00	0.00	0.00	0.00	0.00	0.00	0.00	0.00	0.00	0.00	0.00	0.00	-1.172363	0.802734	2.854980	31.570000	-494.410004	52.570000	0.00	0.00	0.00	1.00	0.75	1.00	1.25	1.50	0.75	0.75	5.25	4.25	4.00	4.50	5.00	8.50	8.25	2.00	3.25	-0.220215	0.151855	0.978516	7.840000	16.870001	-13.860000	538.00	0.16	-0.12
3.39	0.00	0.00	0.00	0.00	0.00	0.00	0.00	0.00	0.00	0.00	0.00	0.00	0.00	0.00	0.00	0.00	-1.698242	0.816895	2.770508	37.170002	-506.730011	66.849998	0.00	0.00	0.00	0.50	1.00	1.25	1.00	0.75	0.50	0.50	5.25	5.50	6.50	6.50	6.25	9.00	10.25	2.50	4.50	-0.197754	0.142578	1.000488	11.060000	25.620001	-17.010000	630.00	0.19	-0.11
3.40	0.00	0.00	0.00	0.00	0.00	0.00	0.00	0.00	0.00	0.00	0.00	0.00	0.00	0.00	0.00	0.00	-2.245117	0.585938	2.873047	73.989998	-503.160004	72.870003	0.00	0.00	0.00	0.50	0.50	0.75	0.50	0.25	0.25	0.25	5.00	7.00	8.00	8.00	7.75	9.25	12.50	3.50	5.50	-0.213379	0.129395	1.005859	14.910000	35.070000	-19.530001	703.00	0.22	-0.09
3.41	0.00	0.00	0.00	0.00	0.00	0.00	0.00	0.00	0.00	0.00	0.00	0.00	0.00	0.00	0.00	0.00	-2.865723	0.174805	3.085938	134.330002	-485.589996	64.470001	0.00	0.00	0.00	0.25	0.00	0.50	0.50	0.00	0.00	0.00	4.25	7.75	8.75	9.00	8.50	9.75	14.50	5.25	6.50	-0.204590	0.159180	1.154297	25.549999	47.250000	-25.480000	753.00	0.24	-0.08
3.42	0.00	0.00	0.00	0.00	0.00	0.00	0.00	0.00	0.00	0.00	0.00	0.00	0.00	0.00	0.00	0.00	-3.380859	-0.224121	3.141113	133.630005	-468.299988	51.590000	0.00	0.00	0.00	0.50	0.50	0.00	0.50	0.00	0.00	0.00	3.50	8.50	9.50	10.00	9.00	9.75	16.75	6.75	7.00	-0.242676	0.164062	1.152344	47.670002	89.110001	-30.590000	815.00	0.25	-0.07
3.43	0.00	0.00	0.00	0.00	0.00	0.00	0.00	0.00	0.00	0.00	0.00	0.00	0.00	0.00	0.00	0.00	-3.814941	-0.116699	2.982910	71.959999	-447.580017	40.250000	0.00	0.00	0.00	0.25	0.25	0.25	0.00	0.00	0.00	0.00	2.75	9.25	10.25	10.50	9.25	9.50	18.50	7.75	7.75	-0.303711	0.221191	1.227539	65.239998	159.389999	-32.970001	848.00	0.27	-0.06
3.44	0.00	0.00	0.00	0.00	0.00	0.00	0.00	0.00	0.00	0.00	0.00	0.00	0.00	0.00	0.00	0.00	-3.937988	0.393555	2.666016	21.770000	-423.079987	26.950001	0.00	0.00	0.00	0.00	0.00	0.25	0.25	0.00	0.00	0.00	2.25	9.50	10.75	10.75	9.25	9.00	20.00	8.50	8.25	-0.281250	0.119629	1.425781	67.970001	216.160004	-34.299999	869.00	0.27	-0.05
3.45	0.00	0.00	0.00	0.00	0.00	0.00	0.00	0.00	0.00	0.00	0.00	0.00	0.00	0.00	0.00	0.00	-4.790527	0.117676	1.708984	103.529999	-328.579987	43.119999	0.00	0.00	0.00	0.00	0.00	0.00	0.00	0.00	0.00	0.00	1.50	9.75	11.00	11.00	9.25	8.50	21.25	9.25	8.75	-0.395508	0.272461	1.259277	37.099998	287.630005	-35.209999	877.00	0.29	-0.04
3.46	0.00	0.00	0.00	0.00	0.00	0.00	0.00	0.00	0.00	0.00	0.00	0.00	0.00	0.00	0.00	0.00	-5.414062	-0.468750	0.979492	88.620003	-268.799988	52.709999	0.00	0.00	0.00	0.25	0.25	0.00	0.00	0.00	0.00	0.00	1.00	10.00	11.00	11.00	9.00	7.75	22.25	10.00	9.00	-0.396973	0.194824	1.520020	20.930000	331.380005	-36.889999	886.00	0.29	-0.03
3.47	0.00	0.00	0.00	0.00	0.00	0.00	0.00	0.00	0.00	0.00	0.00	0.00	0.00	0.00	0.00	0.00	-5.745605	-0.082031	0.391113	8.470000	-210.279999	60.200001	0.00	0.00	0.00	0.00	0.00	0.00	0.00	0.00	0.00	0.00	0.75	9.50	11.25	10.75	8.50	7.00	23.00	10.50	9.50	-0.464355	0.182129	1.529785	17.780001	364.350006	-39.900002	874.00	0.30	-0.02
3.48	0.00	0.00	0.00	0.00	0.00	0.00	0.00	0.00	0.00	0.00	0.00	0.00	0.00	0.00	0.00	0.00	-5.938477	0.453613	-0.220215	-12.740000	-150.500000	60.060001	0.00	0.00	0.00	0.00	0.00	0.00	0.00	0.00	0.00	0.00	0.50	9.25	11.25	10.75	8.25	6.00	23.00	10.75	9.75	-0.500000	0.128906	1.389160	19.740000	396.619995	-40.950001	859.00	0.30	-0.02
3.49	0.00	0.00	0.00	0.00	0.00	0.00	0.00	0.00	0.00	0.00	0.00	0.00	0.00	0.00	0.00	0.00	-6.049805	0.479492	-0.664551	29.820000	-84.419998	55.720001	0.00	0.00	0.00	0.00	0.00	0.00	0.00	0.00	0.00	0.00	0.25	8.50	11.25	10.75	8.00	5.50	22.50	10.50	9.75	-0.516602	0.351074	1.345215	30.730000	493.640015	-51.380001	832.00	0.30	-0.02
3.50	0.00	0.00	0.00	0.00	0.00	0.00	0.00	0.00	0.00	0.00	0.00	0.00	0.00	0.00	0.00	0.00	-6.240723	0.047363	-0.688477	73.919998	-11.480000	64.120003	0.00	0.00	0.00	0.00	0.00	0.00	0.00	0.00	0.00	0.00	0.25	7.50	11.00	10.50	7.75	4.75	21.00	10.25	9.50	-0.516602	0.351074	1.345215	30.730000	493.640015	-51.380001	788.00	0.30	-0.02
3.51	0.00	0.00	0.00	0.00	0.00	0.00	0.00	0.00	0.00	0.00	0.00	0.00	0.00	0.00	0.00	0.00	-6.050781	-0.470703	-0.489258	83.019997	60.619999	89.599998	0.00	0.00	0.00	0.00	0.00	0.00	0.00	0.00	0.00	0.00	0.25	6.25	10.00	10.00	7.50	3.75	18.25	9.50	8.75	-1.233887	0.547852	2.299805	57.610001	637.770020	-79.800003	709.00	0.30	-0.03
3.52	0.00	0.00	0.25	0.00	0.00	0.00	0.00	0.00	0.00	0.00	0.00	0.00	0.00	0.00	0.00	0.00	-7.484375	-2.504395	-0.634766	38.849998	116.270004	126.770004	3.00	0.00	0.00	0.00	0.00	0.00	0.00	0.00	0.00	0.00	0.00	5.00	8.50	8.25	5.75	2.75	14.75	7.75	7.00	-2.387207	0.589355	3.594727	102.830002	705.880005	-62.369999	570.00	0.30	-0.02
3.53	0.75	1.25	0.75	0.50	0.00	0.00	0.00	0.00	0.00	0.00	0.00	0.00	0.00	0.00	0.00	0.00	-1.277832	-0.975586	1.622070	-115.709999	303.799988	164.360001	33.00	0.00	0.00	0.00	0.00	0.00	0.00	0.00	0.00	0.00	0.00	3.50	6.00	5.50	4.00	1.50	11.00	5.75	5.00	-3.566406	0.424805	5.480469	127.190002	735.140015	-16.940001	402.00	0.31	-0.01
3.54	7.50	7.75	2.00	2.50	0.00	0.00	0.00	0.00	0.00	0.00	0.00	0.00	0.00	0.00	0.00	0.00	0.706055	-0.680176	3.240234	-97.160004	258.230011	181.020004	199.00	-0.38	-0.04	0.00	0.00	0.00	0.00	0.00	0.00	0.00	0.00	2.75	4.00	3.00	2.50	1.00	7.50	3.50	2.25	-2.763672	0.419922	5.288086	147.490005	724.919983	18.480000	257.00	0.31	0.01
3.55	24.00	21.25	6.00	5.50	0.00	0.00	0.00	0.00	0.00	0.00	0.00	0.00	0.00	0.00	0.00	0.00	0.914551	-2.968750	0.473145	-51.380001	205.520004	161.699997	571.00	-0.38	-0.02	0.00	0.00	0.00	0.00	0.00	0.00	0.00	0.00	2.00	2.75	1.75	1.75	1.25	5.25	2.25	1.00	-1.137207	0.128906	5.738770	160.020004	659.330017	-2.310000	176.00	0.30	0.00
3.56	32.50	28.00	9.25	9.50	0.00	0.00	0.00	0.00	0.00	0.00	0.00	0.00	0.00	0.00	0.00	0.00	-2.356445	-2.267578	2.243164	-61.670002	372.470001	63.630001	802.00	-0.37	-0.03	0.00	0.00	0.00	0.00	0.00	0.00	0.00	0.00	1.00	1.75	1.00	1.00	0.50	2.00	0.75	0.00	0.248047	0.964844	5.537598	130.759995	574.979980	-43.330002	82.00	0.29	0.01
3.57	37.50	32.50	13.25	14.00	0.50	0.00	0.00	0.00	0.00	0.00	0.00	0.00	0.00	0.25	0.00	0.00	-1.739258	-1.141602	5.353516	-45.779999	412.440002	-19.950001	996.00	-0.37	-0.03	0.00	0.00	0.00	0.00	0.00	0.00	0.00	0.00	0.25	0.50	0.25	0.00	0.00	0.25	0.25	0.00	1.965820	0.073730	5.196777	180.529999	503.089996	-130.059998	16.00	0.00	0.00
3.58	39.75	33.75	16.25	16.75	1.25	0.75	0.00	0.00	0.00	0.00	0.00	0.00	0.00	0.25	0.00	0.00	-0.837891	0.426758	3.227051	-43.259998	290.850006	-56.139999	1111.00	-0.36	-0.03	0.00	0.00	0.00	0.00	0.00	0.00	0.00	0.00	0.00	0.50	0.25	0.00	0.00	0.00	0.00	0.00	2.172363	2.587402	2.512207	227.360001	501.899994	-256.269989	8.00	0.00	0.00
3.59	38.25	33.00	17.25	18.00	1.75	1.00	0.00	0.00	0.00	0.00	0.00	0.00	0.00	0.25	0.00	0.00	-0.285645	0.850586	1.672852	-7.350000	241.639999	-21.770000	1122.00	-0.35	-0.03	0.00	0.00	0.00	0.00	0.00	0.00	0.00	0.00	0.00	0.25	0.25	0.00	0.00	0.00	0.00	0.00	2.505859	2.601562	8.966797	242.270004	163.100006	-230.649994	5.00	0.00	0.00
3.60	35.75	31.50	17.50	18.50	2.25	1.75	0.00	0.00	0.00	0.00	0.00	0.00	0.00	0.00	0.00	0.00	-0.373047	-0.170410	2.175293	28.000000	209.509995	14.770000	1102.00	-0.35	-0.04	0.00	0.00	0.00	0.00	0.00	0.00	0.00	0.00	0.00	0.25	0.25	0.00	0.00	0.00	0.00	0.00	2.533691	1.553223	4.975098	148.750000	-154.139999	-129.990005	5.00	0.00	0.00
3.61	34.00	30.25	17.25	18.50	2.50	2.25	0.00	0.00	0.25	0.00	0.00	0.00	0.00	0.25	0.00	0.00	-0.298340	-0.628906	1.505859	46.270000	148.680008	4.410000	1083.00	-0.34	-0.04	0.00	0.00	0.00	0.00	0.00	0.00	0.00	0.00	0.00	0.25	0.25	0.00	0.00	0.00	0.00	0.00	1.634766	1.190918	3.318848	-7.700000	-318.570007	-28.070000	5.00	0.00	0.00
3.62	32.00	29.50	17.00	18.75	2.75	2.50	0.25	0.00	0.00	0.00	0.00	0.00	0.00	0.25	0.25	0.00	-0.149414	-0.174316	1.100098	67.760002	120.959999	-23.170000	1064.00	-0.34	-0.04	0.00	0.00	0.00	0.00	0.00	0.00	0.00	0.00	0.00	0.00	0.25	0.00	0.00	0.00	0.00	0.00	1.513672	1.058105	2.078125	-135.100006	-354.970001	30.940001	3.00	0.00	0.00
3.63	30.25	27.75	16.75	19.25	3.00	3.25	0.00	0.00	0.00	0.00	0.00	0.00	0.00	0.25	0.00	0.00	-0.149414	0.381836	1.100098	75.110001	110.669998	-31.500000	1037.00	-0.34	-0.04	0.00	0.00	0.00	0.00	0.00	0.00	0.00	0.00	0.00	0.25	0.00	0.00	0.00	0.00	0.00	0.00	1.395508	1.084473	1.710938	-172.830002	-343.980011	53.689999	3.00	0.00	0.00
3.64	28.25	26.25	16.00	18.75	3.25	3.75	0.25	0.25	0.00	0.00	0.00	0.00	0.00	0.50	0.00	0.00	-0.189941	0.516113	1.182617	62.439999	104.580002	-17.360001	1007.00	-0.33	-0.05	0.00	0.00	0.00	0.00	0.00	0.00	0.00	0.00	0.00	0.00	0.00	0.00	0.00	0.00	0.00	0.00	1.219727	1.077637	2.083984	-134.399994	-350.839996	54.740002	0.00	0.00	0.00
3.65	25.50	24.25	15.25	17.75	3.25	4.00	0.25	0.25	0.00	0.00	0.00	0.00	0.00	0.25	0.00	0.00	-0.195801	0.198242	1.177734	42.420002	89.599998	-1.050000	941.00	-0.33	-0.05	0.00	0.00	0.00	0.00	0.00	0.00	0.00	0.00	0.00	0.00	0.25	0.00	0.00	0.00	0.00	0.00	1.017090	0.722656	2.360352	-73.220001	-394.589996	44.730000	3.00	0.00	0.00
3.66	22.00	21.25	14.25	17.00	3.25	4.00	0.25	0.25	0.00	0.00	0.00	0.00	0.00	0.25	0.00	0.00	-0.159180	0.172852	1.036621	18.480000	74.269997	2.590000	858.00	-0.33	-0.05	0.00	0.00	0.00	0.00	0.00	0.00	0.00	0.00	0.00	0.00	0.00	0.00	0.00	0.00	0.00	0.00	0.714844	0.299316	2.428223	-39.830002	-462.140015	30.799999	0.00	0.00	0.00
3.67	20.75	19.00	13.25	15.50	3.25	4.50	0.25	0.50	0.00	0.00	0.00	0.00	0.00	0.00	0.00	0.00	-0.180664	0.213379	1.032715	7.630000	69.580002	6.510000	804.00	-0.32	-0.05	0.00	0.00	0.00	0.00	0.00	0.00	0.00	0.00	0.00	0.00	0.00	0.00	0.00	0.00	0.00	0.00	0.285156	-0.018066	2.295410	-58.799999	-525.349976	14.000000	0.00	0.00	0.00
3.68	17.50	16.25	12.00	14.00	3.00	4.00	0.25	0.50	0.00	0.00	0.00	0.00	0.00	0.25	0.00	0.00	-0.128906	0.062012	0.956543	1.050000	66.220001	11.130000	708.00	-0.32	-0.06	0.00	0.00	0.00	0.00	0.00	0.00	0.00	0.00	0.00	0.00	0.00	0.00	0.00	0.00	0.00	0.00	-0.069336	-0.015625	2.141113	-106.470001	-569.030029	-3.010000	0.00	0.00	0.00
3.69	15.50	13.75	10.50	12.25	3.00	3.75	0.25	0.50	0.00	0.00	0.00	0.00	0.00	0.00	0.00	0.00	-0.083008	-0.039551	0.906738	1.890000	68.879997	9.520000	624.00	-0.32	-0.06	0.00	0.00	0.00	0.00	0.00	0.00	0.00	0.00	0.00	0.00	0.00	0.00	0.00	0.00	0.00	0.00	-0.406250	0.226074	1.950684	-146.089996	-597.169983	-20.719999	0.00	0.00	0.00
3.70	11.75	10.75	9.25	10.25	2.75	3.50	0.25	0.50	0.00	0.00	0.00	0.00	0.00	0.00	0.00	0.00	-0.093262	-0.063965	0.786133	7.840000	78.680000	3.430000	516.00	-0.31	-0.06	0.00	0.00	0.00	0.00	0.00	0.00	0.00	0.00	0.00	0.00	0.00	0.00	0.00	0.00	0.00	0.00	-0.806641	0.733398	1.496094	-98.840004	-606.830017	-43.610001	0.00	0.00	0.00
