# time	left pressure 1[N/cm²]	left pressure 2[N/cm²]	left pressure 3[N/cm²]	left pressure 4[N/cm²]	left pressure 5[N/cm²]	left pressure 6[N/cm²]	left pressure 7[N/cm²]	left pressure 8[N/cm²]	left pressure 9[N/cm²]	left pressure 10[N/cm²]	left pressure 11[N/cm²]	left pressure 12[N/cm²]	left pressure 13[N/cm²]	left pressure 14[N/cm²]	left pressure 15[N/cm²]	left pressure 16[N/cm²]	left acceleration X[g]	left acceleration Y[g]	left acceleration Z[g]	left angular X[dps]	left angular Y[dps]	left angular Z[dps]	left total force[N]	left center of pressure X[%]	left center of pressure Y[%]	right pressure 1[N/cm²]	right pressure 2[N/cm²]	right pressure 3[N/cm²]	right pressure 4[N/cm²]	right pressure 5[N/cm²]	right pressure 6[N/cm²]	right pressure 7[N/cm²]	right pressure 8[N/cm²]	right pressure 9[N/cm²]	right pressure 10[N/cm²]	right pressure 11[N/cm²]	right pressure 12[N/cm²]	right pressure 13[N/cm²]	right pressure 14[N/cm²]	right pressure 15[N/cm²]	right pressure 16[N/cm²]	right acceleration X[g]	right acceleration Y[g]	right acceleration Z[g]	right angular X[dps]	right angular Y[dps]	right angular Z[dps]	right total force[N]	right center of pressure X[%]	right center of pressure Y[%]
0.00																										2.50	2.50	2.75	3.75	1.25	0.50	0.75	0.25	0.75	1.50	1.50	1.25	3.50	1.75	0.75	1.25	-0.175293	0.087402	0.974121	-2.870000	-4.200000	1.750000	269.00	-0.05	-0.09
0.01																										2.25	2.00	2.75	3.50	1.25	0.00	1.00	0.50	0.75	1.50	1.75	1.50	3.25	1.50	0.75	1.00	-0.179688	0.084961	0.975586	-2.730000	-3.990000	1.680000	261.00	-0.03	-0.08
0.02																										2.25	2.50	2.50	3.25	1.25	0.50	1.00	0.50	0.75	1.75	1.75	1.50	3.50	1.75	0.75	1.25	-0.176758	0.086914	0.978027	-2.800000	-3.990000	1.680000	274.00	-0.02	-0.09
0.03	0.75	1.25	0.50	1.50	0.75	0.00	1.50	0.25	4.25	3.25	5.00	3.75	2.75	7.25	1.75	2.75	-0.238770	0.057617	0.937500	-0.910000	9.100000	-1.680000	376.00	0.19	-0.02	2.25	2.50	2.75	3.00	1.50	0.25	0.75	0.75	1.00	1.50	2.00	1.50	3.25	1.75	0.75	1.25	-0.173340	0.083496	0.977051	-2.450000	-3.850000	1.750000	275.00	-0.02	-0.08
0.04																										2.50	2.50	2.75	3.50	1.50	0.50	0.75	0.50	1.00	1.50	2.00	1.50	3.50	2.00	0.75	1.50	-0.173340	0.083496	0.977051	-2.450000	-3.850000	1.750000	288.00	-0.03	-0.08
0.05	0.75	1.00	0.75	1.25	1.00	0.00	1.50	0.25	4.50	3.25	5.00	4.25	2.75	7.50	1.75	2.50	-0.244629	0.057617	0.935547	-0.840000	8.890000	-1.540000	386.00	0.19	-0.01	2.00	2.25	2.50	3.00	1.25	0.25	1.00	0.75	1.00	1.50	2.25	1.75	3.75	2.00	0.75	1.50	-0.175293	0.082520	0.976562	-2.450000	-3.780000	1.680000	282.00	0.00	-0.09
0.06	0.25	1.25	0.50	1.50	1.00	0.25	1.50	0.25	4.00	3.25	5.50	3.75	2.75	7.25	1.75	2.75	-0.246094	0.056641	0.943359	-0.630000	9.310000	-1.610000	379.00	0.19	-0.02	1.75	2.50	2.50	3.25	1.50	0.25	0.75	0.50	1.00	1.25	2.25	1.75	3.75	2.00	0.75	1.25	-0.183594	0.083984	0.971680	-2.380000	-3.710000	1.610000	275.00	-0.01	-0.09
0.07	0.75	1.00	0.50	1.00	0.75	0.00	1.50	0.25	4.25	3.75	5.25	4.00	2.75	7.75	1.75	2.50	-0.247070	0.055176	0.943848	-0.700000	9.450000	-1.610000	382.00	0.20	-0.01	2.25	2.25	2.50	3.00	1.50	0.00	0.75	0.50	1.00	1.50	2.25	1.75	3.75	2.00	0.75	1.50	-0.178223	0.083008	0.975586	-2.100000	-3.290000	1.890000	277.00	-0.00	-0.09
0.08	0.50	1.00	0.75	1.25	0.75	0.00	1.75	0.25	4.50	3.50	5.25	4.00	3.00	7.75	1.75	2.50	-0.249512	0.061523	0.942383	-0.560000	9.310000	-1.680000	392.00	0.20	-0.01	2.00	2.00	2.50	2.50	1.25	0.50	1.00	0.50	1.25	1.75	2.50	2.00	4.00	1.75	0.75	1.50	-0.177246	0.087402	0.971191	-2.030000	-3.150000	1.890000	284.00	0.02	-0.09
0.09	0.50	0.75	0.75	1.00	0.75	0.00	1.50	0.25	4.25	3.25	5.25	4.00	2.50	7.75	1.75	2.50	-0.247559	0.056641	0.939453	-0.420000	9.240000	-1.540000	373.00	0.21	-0.01	1.75	2.25	2.25	2.75	1.50	0.25	1.00	0.50	1.00	1.50	2.25	2.00	3.50	2.25	0.75	1.50	-0.177246	0.077637	0.975098	-1.960000	-3.220000	1.890000	275.00	0.01	-0.08
0.10	0.75	0.75	0.50	1.00	0.50	0.00	1.75	0.25	3.75	3.75	5.75	4.00	2.50	7.75	1.75	2.75	-0.242188	0.057129	0.940918	-0.420000	9.310000	-1.540000	379.00	0.21	-0.01	1.75	2.00	2.25	3.00	1.25	0.25	1.00	0.75	1.25	1.75	2.25	2.00	3.75	2.25	1.00	1.50	-0.176270	0.085449	0.973633	-2.030000	-3.290000	1.960000	287.00	0.02	-0.09
0.11	0.75	1.00	0.50	1.00	0.75	0.00	1.50	0.25	4.25	3.50	5.75	4.00	2.75	7.75	1.75	2.75	-0.245605	0.055664	0.936035	-0.700000	9.520000	-1.820000	386.00	0.20	-0.01	1.75	2.00	2.50	2.75	1.50	0.50	0.75	0.75	1.25	1.50	2.50	1.75	3.75	2.25	1.00	1.50	-0.179199	0.081543	0.971191	-1.890000	-3.150000	1.960000	286.00	0.02	-0.09
0.12	0.25	0.75	0.50	0.75	0.50	0.00	1.75	0.25	4.00	3.50	5.50	4.00	2.50	7.75	1.75	2.75	-0.245605	0.056152	0.940918	-0.630000	9.310000	-1.820000	369.00	0.22	-0.01	1.75	2.25	2.25	2.75	1.25	0.25	0.75	0.75	1.00	2.00	2.75	2.00	3.75	2.25	1.00	1.50	-0.180176	0.081055	0.968750	-1.820000	-3.220000	2.030000	287.00	0.03	-0.09
0.13	0.50	0.75	0.50	1.00	0.75	0.00	1.75	0.25	4.25	3.25	5.75	4.25	2.75	7.75	1.75	3.00	-0.248047	0.059082	0.939941	-0.700000	9.170000	-1.750000	386.00	0.21	-0.02	1.75	2.25	2.25	2.50	1.25	0.00	0.75	0.50	1.25	1.75	2.75	2.25	4.00	2.00	0.75	1.50	-0.173828	0.075195	0.967773	-2.030000	-3.640000	2.100000	279.00	0.03	-0.09
0.14	0.75	1.00	0.75	1.00	0.75	0.00	1.75	0.00	4.00	3.50	5.75	4.25	2.75	7.75	1.75	3.00	-0.249512	0.052246	0.938477	-0.630000	8.750000	-1.610000	389.00	0.20	-0.01	1.75	2.25	2.25	2.75	1.50	0.25	1.00	0.50	1.00	2.00	3.00	2.25	4.00	2.25	1.00	1.50	-0.176270	0.085449	0.977051	-2.030000	-3.850000	2.100000	298.00	0.03	-0.09
0.15	0.50	1.00	0.25	1.00	0.50	0.00	1.75	0.25	3.75	3.50	6.00	4.25	3.00	7.50	1.75	3.00	-0.250977	0.058105	0.937500	-0.700000	8.820000	-1.680000	382.00	0.21	-0.03	1.50	2.00	2.25	2.75	1.25	0.25	1.00	0.50	1.00	2.00	3.00	2.00	4.25	2.25	1.00	1.50	-0.174805	0.083496	0.976074	-2.170000	-3.920000	2.100000	290.00	0.04	-0.09
0.16	0.50	1.00	0.25	1.00	0.75	0.00	1.75	0.25	4.25	3.25	5.75	4.00	2.75	7.50	1.75	2.75	-0.248535	0.057129	0.940918	-0.770000	8.540000	-1.540000	380.00	0.21	-0.01	2.00	2.25	2.00	2.50	1.25	0.25	1.00	0.75	1.25	2.00	3.25	2.25	4.00	2.25	1.00	1.50	-0.169434	0.078613	0.970703	-2.170000	-3.780000	2.030000	302.00	0.04	-0.09
0.17	0.50	0.75	0.25	1.00	0.75	0.00	1.75	0.25	3.75	3.25	5.75	4.00	2.75	7.75	2.00	2.75	-0.250000	0.056641	0.944336	-0.840000	8.190000	-1.540000	376.00	0.21	-0.02	1.75	2.00	2.00	2.25	1.25	0.00	1.00	0.75	1.25	2.00	3.25	2.25	4.00	2.25	1.00	1.75	-0.176758	0.083496	0.974121	-2.380000	-3.850000	2.030000	293.00	0.05	-0.09
0.18	0.50	1.00	0.75	0.50	0.50	0.00	1.75	0.25	4.00	3.25	5.50	4.25	2.75	7.50	1.75	2.75	-0.241211	0.055664	0.937500	-0.910000	7.490000	-1.470000	374.00	0.21	-0.01	1.75	2.25	2.00	3.00	1.25	0.25	0.75	0.75	1.00	2.00	3.50	2.25	4.25	2.50	1.00	1.75	-0.176758	0.080566	0.970215	-2.310000	-3.780000	1.960000	306.00	0.04	-0.10
0.19	0.50	0.50	0.50	0.75	0.75	0.00	1.75	0.25	4.25	3.25	5.50	4.00	3.00	7.75	2.00	3.00	-0.241211	0.055664	0.937500	-0.910000	7.490000	-1.470000	381.00	0.22	-0.01	1.50	2.00	2.25	2.50	1.25	0.25	0.75	0.50	1.25	2.00	3.50	2.50	4.50	2.25	1.00	1.75	-0.180176	0.083008	0.969727	-2.310000	-3.850000	1.960000	300.00	0.05	-0.10
0.20	0.25	0.50	0.50	0.75	0.75	0.00	1.75	0.25	3.75	3.50	5.75	4.00	3.00	7.75	1.75	2.75	-0.248047	0.059082	0.945312	-1.190000	7.560000	-1.610000	373.00	0.22	-0.02	1.75	2.25	2.00	2.50	1.25	0.25	1.00	0.75	1.25	2.00	3.25	2.25	4.50	2.25	1.00	1.75	-0.176758	0.079590	0.966797	-2.520000	-3.850000	2.100000	305.00	0.04	-0.10
0.21	0.25	1.00	0.50	1.00	0.75	0.00	1.75	0.25	4.00	3.25	6.00	4.25	3.00	7.75	1.75	3.00	-0.248535	0.060547	0.942871	-1.260000	7.280000	-1.540000	388.00	0.21	-0.02	1.75	2.25	2.00	2.75	1.50	0.25	0.75	0.75	1.25	2.00	3.50	2.50	4.50	2.50	1.00	2.00	-0.178223	0.083496	0.971680	-2.520000	-3.850000	2.030000	315.00	0.05	-0.10
0.22	0.25	0.50	0.25	1.00	0.25	0.00	1.75	0.25	3.50	3.25	5.75	4.00	3.00	7.75	1.75	3.00	-0.249023	0.065430	0.937012	-1.190000	7.210000	-1.540000	363.00	0.23	-0.03	1.75	2.25	2.25	3.00	1.25	0.50	0.75	0.50	1.25	2.00	3.50	2.50	4.50	2.25	1.00	1.50	-0.174805	0.082520	0.973145	-2.660000	-3.920000	2.170000	312.00	0.03	-0.10
0.23	0.50	0.75	0.25	1.25	0.50	0.00	1.75	0.25	4.00	3.25	6.00	4.25	2.75	7.75	1.75	2.75	-0.252930	0.056641	0.936035	-1.190000	7.140000	-1.470000	381.00	0.21	-0.02	1.75	2.00	2.00	2.75	1.50	0.25	1.00	0.75	1.25	1.75	3.75	2.50	4.25	2.50	1.25	1.75	-0.175781	0.080566	0.973145	-2.660000	-3.920000	2.170000	316.00	0.05	-0.10
0.24	0.25	0.75	0.25	0.75	0.50	0.00	1.75	0.25	3.75	3.00	5.75	4.25	2.75	7.50	1.75	2.75	-0.252930	0.055664	0.945801	-1.190000	7.000000	-1.400000	363.00	0.22	-0.02	1.75	2.25	2.25	2.75	1.25	0.25	1.00	0.50	1.25	1.75	3.75	2.50	4.25	2.50	1.00	1.75	-0.178223	0.086426	0.970215	-2.870000	-3.780000	2.030000	312.00	0.04	-0.09
0.25	0.25	0.50	0.50	0.75	0.50	0.00	1.75	0.25	3.00	3.00	6.00	4.00	3.00	7.75	1.75	3.00	-0.250000	0.058594	0.944336	-1.260000	6.650000	-1.260000	359.00	0.22	-0.03	1.75	2.25	2.00	2.50	1.50	0.25	1.00	0.75	1.25	2.00	3.50	2.75	4.50	2.25	1.00	2.00	-0.172363	0.083984	0.972656	-2.940000	-3.780000	2.030000	317.00	0.05	-0.10
0.26	0.25	0.75	0.50	1.00	0.50	0.00	1.75	0.25	4.00	3.25	5.75	4.25	2.75	7.50	1.75	3.00	-0.246582	0.053223	0.943848	-1.260000	6.860000	-1.330000	376.00	0.22	-0.02	1.50	2.00	2.25	2.50	1.50	0.25	1.00	0.50	1.25	2.25	3.75	2.50	4.25	2.25	1.00	2.00	-0.179688	0.083008	0.967285	-2.870000	-3.850000	1.960000	311.00	0.05	-0.09
0.27	0.25	1.00	0.25	0.75	0.50	0.00	1.75	0.25	3.75	3.25	6.00	4.25	2.75	7.50	1.75	2.75	-0.252930	0.056152	0.941406	-1.120000	6.510000	-1.260000	370.00	0.22	-0.02	1.75	2.25	2.25	3.00	1.50	0.00	1.00	0.50	1.25	2.00	4.00	2.50	4.50	2.50	1.25	1.75	-0.174805	0.076660	0.971191	-3.150000	-3.710000	1.960000	324.00	0.05	-0.09
0.28	0.25	0.75	0.50	0.75	0.50	0.00	1.75	0.25	3.25	2.75	6.25	4.25	3.00	7.50	1.75	2.75	-0.247559	0.063965	0.940918	-1.260000	6.580000	-1.400000	364.00	0.22	-0.03	1.50	2.00	2.25	3.25	1.25	0.00	0.75	0.75	1.25	2.00	4.00	2.50	4.50	2.50	1.00	2.00	-0.175293	0.072754	0.969727	-3.010000	-3.780000	1.960000	318.00	0.05	-0.10
0.29	0.50	0.50	0.50	0.75	0.75	0.00	1.75	0.00	3.50	3.00	5.75	4.25	3.00	7.50	1.75	2.75	-0.250488	0.062988	0.942871	-1.400000	6.580000	-1.470000	364.00	0.22	-0.02	1.75	2.25	2.00	2.75	1.50	0.25	1.00	0.75	1.25	2.00	3.75	2.50	4.50	2.50	1.00	2.00	-0.175293	0.080566	0.976562	-2.940000	-3.780000	1.960000	322.00	0.05	-0.10
0.30	0.25	1.25	0.50	1.00	0.50	0.00	1.75	0.25	3.50	3.00	6.00	4.00	2.50	7.50	1.75	2.75	-0.256348	0.055664	0.944336	-1.540000	6.930000	-1.470000	367.00	0.21	-0.02	1.75	2.25	2.25	2.75	1.25	0.25	1.00	0.50	1.50	2.25	4.25	2.75	4.50	2.75	1.00	1.75	-0.174316	0.080566	0.967773	-2.940000	-3.780000	2.030000	332.00	0.06	-0.09
0.31	0.50	0.75	0.25	1.25	0.50	0.00	1.75	0.25	4.00	3.00	6.00	3.50	2.75	7.50	1.75	3.00	-0.245605	0.062988	0.941406	-1.260000	6.580000	-1.330000	370.00	0.21	-0.02	1.75	2.00	2.00	3.00	1.25	0.25	0.75	0.75	1.25	2.25	3.75	2.75	4.50	2.50	1.00	1.75	-0.173340	0.085449	0.966797	-2.800000	-3.780000	2.030000	319.00	0.05	-0.10
0.32	0.50	1.00	0.75	1.00	0.50	0.00	1.75	0.00	3.50	3.00	6.25	4.25	2.75	7.50	1.75	3.00	-0.252441	0.056641	0.947754	-1.400000	6.650000	-1.330000	376.00	0.21	-0.02	2.25	2.00	2.50	3.25	1.50	0.50	1.00	0.75	1.50	2.00	4.00	2.50	4.25	2.50	1.25	2.00	-0.176758	0.084473	0.966309	-2.800000	-3.780000	2.030000	345.00	0.04	-0.09
0.33	0.25	1.00	0.50	1.00	0.50	0.00	1.75	0.25	3.25	3.00	6.25	4.25	2.75	7.50	1.50	3.00	-0.256348	0.058105	0.942383	-1.400000	6.650000	-1.400000	368.00	0.21	-0.03	1.75	2.50	2.00	2.75	1.50	0.25	1.00	0.50	1.50	2.00	4.00	2.50	4.50	2.50	1.00	1.75	-0.169922	0.076660	0.973633	-2.730000	-3.850000	2.030000	325.00	0.05	-0.09
0.34	0.50	0.75	0.25	0.75	0.50	0.00	1.75	0.25	4.00	3.00	6.00	4.00	2.75	7.50	1.50	2.75	-0.252930	0.059082	0.939453	-1.470000	6.790000	-1.470000	366.00	0.22	-0.02	2.00	2.25	2.25	2.50	1.25	0.25	1.00	0.75	1.25	2.25	4.00	2.75	4.25	2.50	1.00	1.75	-0.172363	0.084961	0.968750	-2.730000	-3.990000	2.030000	326.00	0.05	-0.09
0.35	0.50	0.75	0.50	1.00	0.50	0.00	1.75	0.25	3.50	3.00	6.00	4.00	2.75	7.50	1.50	2.75	-0.246094	0.060059	0.938477	-1.680000	6.930000	-1.470000	365.00	0.21	-0.02	1.75	2.25	2.25	3.00	1.50	0.50	1.00	0.50	1.50	2.25	4.00	2.75	4.50	2.50	1.25	1.75	-0.174316	0.081055	0.970703	-2.660000	-3.990000	2.030000	338.00	0.05	-0.09
0.36	0.50	0.50	0.50	0.75	0.50	0.00	1.75	0.00	3.50	3.00	6.00	4.00	2.75	7.50	1.75	3.00	-0.251953	0.060547	0.939941	-1.610000	7.000000	-1.400000	360.00	0.22	-0.02	2.00	2.50	2.50	3.00	1.50	0.75	1.00	0.50	1.25	2.25	4.00	2.50	4.50	2.50	1.25	1.75	-0.175781	0.076660	0.974121	-2.730000	-3.990000	2.030000	343.00	0.03	-0.09
0.37	0.50	0.50	0.50	0.75	0.50	0.00	1.75	0.25	3.50	2.75	6.00	4.00	2.75	7.50	1.75	2.75	-0.252930	0.059570	0.942383	-1.680000	7.210000	-1.540000	360.00	0.22	-0.02	1.75	2.50	2.50	2.75	1.50	0.50	0.75	0.75	1.25	2.25	4.25	3.00	4.50	2.50	1.25	1.75	-0.174316	0.080078	0.972168	-2.730000	-3.920000	1.960000	343.00	0.05	-0.10
0.38	0.50	0.75	0.50	1.00	0.50	0.00	1.75	0.25	3.50	3.00	6.00	4.00	2.75	7.25	1.75	2.75	-0.256348	0.057617	0.940918	-1.610000	7.350000	-1.610000	365.00	0.21	-0.02	2.00	2.25	2.25	3.00	1.50	0.25	1.00	0.75	1.50	2.25	4.25	2.75	4.25	2.75	1.00	1.75	-0.173340	0.078613	0.979004	-2.660000	-3.920000	1.890000	342.00	0.05	-0.09
0.39	0.25	0.50	0.25	1.00	0.50	0.00	1.75	0.25	3.25	3.00	5.75	4.25	3.00	7.50	1.50	2.75	-0.249023	0.060547	0.940918	-1.680000	7.070000	-1.540000	356.00	0.22	-0.03	1.75	2.00	2.50	3.00	1.50	0.00	1.00	0.75	1.25	2.25	4.25	3.00	4.50	2.25	1.00	1.75	-0.170898	0.076660	0.972656	-2.590000	-3.920000	2.100000	335.00	0.05	-0.10
0.40	0.50	0.50	0.50	1.00	0.50	0.00	1.75	0.50	3.75	3.00	5.75	4.00	2.75	7.00	1.25	2.75	-0.249023	0.060547	0.940918	-1.680000	7.070000	-1.540000	360.00	0.21	-0.02	2.00	2.25	2.75	4.00	1.50	0.25	1.00	0.50	1.25	2.25	4.00	2.75	4.75	2.25	1.00	1.75	-0.175781	0.077148	0.974121	-2.520000	-4.060000	2.100000	349.00	0.03	-0.10
0.41	0.50	0.75	0.25	0.75	0.50	0.00	1.75	0.00	3.00	2.75	6.00	3.75	2.75	7.25	1.50	2.75	-0.248535	0.058105	0.944824	-1.680000	7.280000	-1.750000	342.00	0.22	-0.02	2.25	2.50	2.50	3.25	1.50	0.25	1.00	0.75	1.25	2.00	4.25	2.75	4.50	2.50	1.00	2.00	-0.174805	0.087402	0.973633	-2.520000	-4.060000	2.030000	348.00	0.03	-0.10
0.42	0.25	0.75	0.50	0.75	0.50	0.00	1.75	0.25	3.25	2.50	5.75	4.00	2.50	7.75	1.75	2.75	-0.251465	0.058105	0.937012	-1.610000	7.210000	-1.470000	351.00	0.22	-0.02	2.25	2.50	2.75	3.25	1.75	0.50	1.00	0.75	1.25	2.00	4.25	2.75	4.75	2.50	1.00	1.75	-0.171875	0.079590	0.974121	-2.660000	-4.130000	1.960000	357.00	0.03	-0.10
0.43	0.75	0.75	0.50	0.75	0.25	0.00	1.75	0.00	3.50	2.25	5.75	3.75	2.50	7.50	1.50	2.50	-0.252930	0.055664	0.940430	-1.540000	7.140000	-1.470000	342.00	0.21	-0.01	2.00	2.25	2.50	2.75	1.75	0.25	1.00	0.75	1.50	2.25	4.00	3.00	4.50	2.50	1.25	1.75	-0.178711	0.077637	0.972168	-2.520000	-4.060000	1.960000	348.00	0.05	-0.09
0.44	0.25	0.75	0.25	0.50	0.75	0.00	1.75	0.25	3.50	2.75	5.75	4.00	2.75	7.50	1.50	2.50	-0.252441	0.060059	0.933594	-1.540000	7.070000	-1.610000	350.00	0.22	-0.02	2.00	2.25	2.50	3.25	1.50	0.50	1.00	0.50	1.25	2.25	4.00	2.75	4.50	2.50	1.00	1.75	-0.173340	0.083984	0.973633	-2.450000	-3.920000	2.030000	341.00	0.04	-0.09
0.45	0.50	0.75	0.25	0.75	0.50	0.00	1.75	0.25	3.25	2.50	5.50	4.00	2.75	7.50	1.50	2.50	-0.253418	0.056641	0.946289	-1.680000	7.000000	-1.610000	344.00	0.21	-0.02	2.00	2.25	2.50	3.00	1.50	0.25	1.00	0.50	1.25	2.25	4.25	2.75	4.50	2.75	1.25	1.75	-0.171387	0.078125	0.971680	-2.450000	-3.780000	2.030000	343.00	0.05	-0.09
0.46	0.50	0.75	0.50	1.00	0.75	0.00	1.75	0.25	3.25	2.50	5.75	3.75	2.50	7.50	1.50	2.50	-0.250000	0.065430	0.939941	-1.820000	7.070000	-1.540000	350.00	0.20	-0.02	2.25	2.25	2.75	3.25	1.50	0.50	1.00	0.75	1.50	2.25	4.25	3.00	4.50	2.50	1.25	2.00	-0.169922	0.084473	0.972168	-2.520000	-3.570000	2.030000	362.00	0.04	-0.09
0.47	0.25	0.75	0.25	1.00	0.50	0.00	1.75	0.25	2.75	2.50	5.75	4.00	2.75	7.75	1.50	2.50	-0.255371	0.058594	0.944336	-1.890000	7.140000	-1.680000	343.00	0.22	-0.03	2.00	2.75	2.50	3.00	1.50	0.25	1.00	0.50	1.25	2.25	4.25	2.75	4.50	2.50	1.25	2.00	-0.172852	0.079102	0.972168	-2.450000	-3.360000	2.030000	346.00	0.04	-0.09
0.48	0.50	0.75	0.50	0.75	0.50	0.00	1.75	0.25	3.25	2.50	5.75	4.00	2.75	7.50	1.75	2.50	-0.254883	0.061035	0.940918	-1.680000	6.720000	-1.540000	352.00	0.21	-0.02	2.00	2.50	2.75	3.25	1.75	0.25	1.00	0.50	1.25	2.25	4.25	3.00	4.50	2.75	1.25	2.00	-0.179199	0.079102	0.974121	-2.520000	-3.430000	2.030000	357.00	0.04	-0.09
0.49	0.25	0.50	0.50	1.00	0.50	0.00	1.75	0.25	2.25	2.75	6.00	3.75	2.75	7.50	1.75	2.50	-0.252441	0.055664	0.944336	-1.610000	6.720000	-1.540000	340.00	0.22	-0.03	2.00	2.25	2.75	2.75	1.75	0.25	1.00	0.75	1.25	2.00	4.25	3.00	4.50	2.50	1.25	2.00	-0.167969	0.073730	0.977051	-2.520000	-3.360000	1.960000	348.00	0.04	-0.09
0.50	0.50	0.50	0.25	1.00	0.50	0.00	1.75	0.25	3.50	2.75	5.75	3.50	2.75	7.75	1.50	2.50	-0.250488	0.058594	0.942871	-1.680000	7.000000	-1.540000	350.00	0.22	-0.02	2.00	2.50	3.00	3.25	1.50	0.25	1.00	0.75	1.50	2.50	4.50	2.75	4.25	2.75	1.00	2.00	-0.171387	0.079590	0.979492	-2.590000	-3.290000	1.820000	362.00	0.04	-0.09
0.51	0.50	0.25	0.50	0.75	0.50	0.00	1.75	0.25	3.50	2.75	5.75	3.75	2.75	7.75	1.50	2.50	-0.255371	0.059082	0.942383	-1.680000	7.420000	-1.680000	351.00	0.22	-0.01	2.00	2.25	2.50	3.25	1.50	0.50	1.00	0.75	1.25	2.50	4.50	3.00	4.50	2.50	1.25	1.75	-0.173340	0.083008	0.980469	-2.450000	-3.290000	1.890000	358.00	0.04	-0.10
0.52	0.25	0.50	0.25	1.00	0.50	0.00	1.75	0.25	2.75	2.50	5.75	4.00	2.50	7.50	1.50	2.50	-0.250000	0.059082	0.938477	-1.680000	7.630000	-1.820000	336.00	0.22	-0.03	2.00	2.50	2.75	3.00	1.50	0.25	1.00	0.75	1.25	2.50	4.50	3.25	4.50	2.75	1.25	2.00	-0.175781	0.077148	0.980957	-2.450000	-3.150000	1.960000	363.00	0.05	-0.10
0.53	0.50	0.75	0.50	0.75	0.50	0.00	1.75	0.25	3.00	2.50	5.75	4.00	2.75	7.50	1.50	2.50	-0.247559	0.054688	0.941406	-1.260000	6.930000	-1.400000	347.00	0.21	-0.03	2.25	2.00	2.75	3.25	1.50	0.25	1.00	0.75	1.50	2.25	4.50	3.00	4.50	2.50	1.00	1.75	-0.175293	0.078125	0.975098	-2.520000	-3.080000	1.960000	356.00	0.04	-0.09
0.54	0.50	0.25	0.25	1.00	0.75	0.00	1.75	0.25	3.25	2.75	5.50	3.75	2.75	7.50	1.75	2.50	-0.254883	0.057617	0.938965	-1.260000	6.860000	-1.470000	348.00	0.22	-0.02	2.00	2.50	2.50	3.25	1.50	0.50	1.00	0.50	1.50	2.25	4.50	3.00	4.50	2.50	1.25	2.00	-0.179199	0.083496	0.979980	-2.520000	-3.080000	1.820000	358.00	0.04	-0.09
0.55	0.25	0.75	0.50	1.25	0.50	0.00	1.75	0.25	3.00	2.75	5.75	3.75	2.50	7.50	1.50	2.50	-0.249512	0.056152	0.938477	-1.470000	7.070000	-1.400000	347.00	0.21	-0.02	2.25	2.50	2.50	2.50	1.50	0.50	1.00	0.50	1.50	2.25	4.75	3.25	4.75	2.75	1.00	1.75	-0.171387	0.083008	0.972656	-2.380000	-3.150000	1.750000	358.00	0.05	-0.09
0.56	0.50	0.50	0.50	0.50	0.50	0.00	1.75	0.25	3.00	2.75	5.75	3.75	2.75	7.50	1.50	2.50	-0.255371	0.060547	0.944824	-1.470000	6.930000	-1.470000	341.00	0.22	-0.02	2.00	2.25	2.50	3.00	1.75	0.25	1.00	0.50	1.50	2.25	5.00	3.00	4.50	2.75	1.25	1.75	-0.172363	0.078125	0.968750	-2.450000	-3.080000	1.820000	359.00	0.05	-0.09
0.57	0.75	0.50	0.25	0.75	0.50	0.00	1.75	0.25	3.00	2.50	5.50	3.50	2.75	7.50	1.50	2.50	-0.249023	0.058105	0.941895	-1.540000	7.000000	-1.610000	336.00	0.21	-0.02	2.25	2.75	2.50	3.25	1.50	0.25	1.00	0.75	1.50	2.50	4.75	3.50	4.75	2.50	1.25	1.75	-0.173828	0.084961	0.979492	-2.380000	-3.010000	1.750000	375.00	0.04	-0.10
0.58	0.25	0.75	0.25	1.00	0.50	0.00	1.75	0.50	3.25	2.75	5.75	3.75	2.75	7.50	1.50	2.50	-0.254883	0.057617	0.942871	-1.540000	7.000000	-1.470000	351.00	0.21	-0.03	2.25	2.75	2.50	3.25	1.50	0.25	1.00	0.75	1.75	2.50	5.25	3.00	4.50	2.75	1.25	2.00	-0.173340	0.081055	0.970703	-2.310000	-3.010000	1.750000	380.00	0.05	-0.09
0.59	0.25	0.75	0.25	0.50	0.50	0.00	1.75	0.00	3.25	2.50	5.75	3.75	2.75	7.75	1.50	2.50	-0.254395	0.062500	0.939941	-1.610000	6.930000	-1.540000	337.00	0.23	-0.02	2.00	2.50	2.75	3.00	1.75	0.25	1.00	0.50	1.75	2.50	5.25	3.00	4.75	2.75	1.25	2.25	-0.174805	0.081055	0.971191	-2.450000	-3.080000	1.820000	378.00	0.05	-0.09
0.60	0.25	0.75	0.25	0.75	0.50	0.00	1.75	0.25	3.00	2.50	5.50	4.00	2.50	7.75	1.75	2.50	-0.250488	0.057129	0.941406	-1.680000	6.720000	-1.470000	341.00	0.22	-0.02	2.25	2.00	2.75	2.75	1.50	0.50	1.00	0.75	1.50	2.50	5.50	3.25	5.00	2.75	1.25	2.00	-0.168945	0.081543	0.974121	-2.380000	-3.080000	1.890000	379.00	0.06	-0.09
0.61	0.50	0.50	0.50	1.00	0.50	0.00	1.75	0.50	2.75	2.50	5.75	3.50	2.50	7.75	1.50	2.50	-0.249023	0.059082	0.944824	-1.610000	6.860000	-1.540000	342.00	0.21	-0.03	2.00	2.50	2.75	3.25	1.50	0.25	0.75	0.75	1.50	2.50	5.50	3.50	4.50	2.50	1.25	2.00	-0.172363	0.080566	0.974121	-2.310000	-3.080000	1.750000	377.00	0.05	-0.10
0.62	0.25	0.50	0.50	1.00	0.25	0.00	1.75	0.25	3.00	2.50	5.75	3.50	2.75	7.50	1.25	2.50	-0.250488	0.058105	0.942871	-1.610000	6.930000	-1.610000	334.00	0.22	-0.02	2.00	2.50	2.50	3.25	1.50	0.25	1.00	0.50	1.50	2.50	5.50	3.00	5.00	2.75	1.50	2.00	-0.170410	0.077637	0.979492	-2.520000	-3.080000	1.820000	378.00	0.06	-0.09
0.63	0.25	0.50	0.25	0.75	0.50	0.00	1.75	0.25	3.00	2.50	5.75	3.75	2.75	7.50	1.75	2.50	-0.251953	0.058105	0.943848	-1.540000	6.860000	-1.540000	339.00	0.23	-0.03	1.75	2.25	2.50	3.00	1.50	0.25	1.00	0.75	1.50	2.25	5.50	3.25	4.50	2.75	1.25	2.00	-0.175293	0.085938	0.972168	-2.520000	-3.150000	1.890000	367.00	0.06	-0.10
0.64	0.75	0.75	0.25	0.75	0.50	0.00	1.75	0.25	2.50	2.75	5.50	3.50	2.50	7.50	1.25	2.50	-0.250000	0.059570	0.938965	-1.470000	6.860000	-1.400000	330.00	0.21	-0.02	1.75	2.25	2.25	2.75	1.75	0.25	1.00	0.75	1.50	2.75	5.75	3.25	4.50	2.75	1.00	2.00	-0.172363	0.077148	0.968750	-2.520000	-3.150000	2.030000	369.00	0.07	-0.09
0.65	0.25	0.50	0.50	1.00	0.50	0.00	1.75	0.00	3.25	2.50	5.50	3.75	2.50	7.50	1.50	2.50	-0.253906	0.056152	0.941406	-1.540000	6.720000	-1.400000	336.00	0.22	-0.01	2.00	2.50	2.50	3.25	1.75	0.25	1.00	0.75	1.75	2.25	5.75	3.50	4.50	2.50	1.25	2.00	-0.172363	0.077148	0.968750	-2.520000	-3.150000	2.030000	384.00	0.05	-0.09
0.66	0.25	0.50	0.50	0.50	0.50	0.00	1.75	0.00	3.00	2.50	5.75	3.75	2.50	7.50	1.75	2.50	-0.249512	0.063965	0.941895	-1.680000	6.650000	-1.470000	333.00	0.23	-0.02	2.00	2.25	2.50	3.25	1.50	0.25	1.00	0.75	1.50	2.50	5.50	3.50	4.50	2.75	1.50	2.00	-0.169922	0.076660	0.974121	-2.520000	-3.220000	1.890000	380.00	0.06	-0.10
0.67	0.25	0.75	0.50	0.75	0.50	0.00	1.75	0.50	2.25	2.75	5.50	3.75	2.75	7.50	1.50	2.50	-0.253906	0.057129	0.942383	-1.610000	6.510000	-1.400000	335.00	0.21	-0.04	2.00	2.50	2.75	3.00	1.50	0.25	1.00	0.75	1.50	2.50	5.50	3.25	4.50	3.00	1.25	2.00	-0.174316	0.082520	0.976562	-2.660000	-3.360000	1.890000	379.00	0.06	-0.09
0.68	0.25	0.75	0.25	1.00	0.50	0.00	1.75	0.25	3.25	2.50	5.50	3.75	2.75	7.50	1.50	2.50	-0.253418	0.060547	0.935547	-1.820000	6.650000	-1.470000	342.00	0.22	-0.02	1.75	2.25	2.50	3.00	1.75	0.25	0.75	0.75	1.75	2.75	6.00	3.25	4.75	2.75	1.25	2.00	-0.172363	0.075195	0.975586	-2.660000	-3.430000	1.820000	382.00	0.07	-0.10
0.69	0.50	0.75	0.25	1.00	0.50	0.00	1.75	0.25	3.00	2.75	5.75	3.75	2.50	7.50	1.50	2.50	-0.250488	0.059570	0.939453	-1.820000	6.580000	-1.540000	344.00	0.21	-0.02	2.00	2.50	2.25	3.25	1.50	0.25	1.00	0.75	1.50	2.50	5.50	3.50	5.00	3.00	1.25	2.00	-0.168945	0.080566	0.974609	-2.590000	-3.360000	1.820000	383.00	0.06	-0.10
0.70	0.25	0.75	0.00	0.75	0.50	0.00	1.75	0.00	3.00	2.75	5.75	3.75	2.50	7.75	1.50	2.50	-0.253418	0.056152	0.949707	-1.820000	6.300000	-1.400000	334.00	0.23	-0.02	2.00	2.25	3.00	3.00	1.75	0.25	1.00	0.75	1.50	2.50	6.00	3.25	4.75	2.75	1.25	2.00	-0.171875	0.081055	0.980957	-2.660000	-3.220000	1.820000	388.00	0.06	-0.09
0.71	0.75	0.50	0.50	0.75	0.50	0.00	1.75	0.25	2.75	2.50	5.50	3.75	2.75	7.50	1.50	2.50	-0.253418	0.054688	0.946289	-1.750000	6.510000	-1.330000	338.00	0.21	-0.02	2.00	2.50	2.50	3.00	1.50	0.50	1.00	0.75	1.75	2.75	6.00	3.25	4.75	3.00	1.25	2.00	-0.168945	0.081055	0.971680	-2.450000	-3.150000	1.820000	392.00	0.06	-0.09
0.72	0.25	0.75	0.50	1.00	0.50	0.00	1.75	0.25	3.00	2.50	5.50	3.75	2.75	7.50	1.50	2.50	-0.252930	0.056152	0.940918	-1.960000	6.930000	-1.470000	341.00	0.21	-0.03	2.00	2.50	2.75	3.00	1.50	0.25	1.00	0.75	1.75	2.50	6.00	3.25	5.00	2.75	1.00	2.00	-0.177734	0.078613	0.976562	-2.520000	-3.150000	1.820000	387.00	0.06	-0.09
0.73	0.25	0.75	0.50	0.75	0.50	0.00	2.00	0.00	3.25	2.50	5.50	3.75	2.50	7.50	1.50	2.50	-0.253418	0.060059	0.941895	-1.960000	7.070000	-1.610000	340.00	0.22	-0.01	2.00	2.50	2.50	2.50	1.75	0.50	1.00	0.50	1.25	2.75	6.00	3.50	4.50	3.25	1.25	2.00	-0.169922	0.082031	0.977539	-2.800000	-3.570000	1.890000	382.00	0.07	-0.09
0.74	0.25	0.75	0.25	0.75	0.50	0.00	1.75	0.25	3.00	2.50	5.50	3.75	2.50	7.75	1.75	2.50	-0.253906	0.058594	0.944336	-1.820000	7.210000	-1.540000	338.00	0.22	-0.02	2.00	2.25	2.50	2.75	1.75	0.50	1.00	0.75	1.75	2.75	6.00	3.25	4.50	3.00	1.25	1.75	-0.173828	0.081543	0.975586	-2.660000	-3.850000	1.890000	387.00	0.06	-0.09
0.75	0.50	0.25	0.25	0.50	0.50	0.00	1.75	0.25	3.00	2.50	5.50	3.75	2.75	7.50	1.25	2.50	-0.251953	0.059082	0.945801	-1.190000	7.630000	-1.400000	328.00	0.23	-0.02	1.75	2.50	2.50	3.25	1.50	0.25	1.00	0.75	1.75	2.75	6.00	3.25	4.75	3.00	1.25	2.00	-0.172363	0.080078	0.973145	-2.870000	-4.340000	1.890000	390.00	0.06	-0.09
0.76	0.25	0.75	0.50	0.50	0.50	0.00	2.00	0.50	3.25	2.25	5.25	3.75	2.50	7.50	1.50	2.25	-0.277832	0.062500	0.964355	-0.350000	9.310000	-1.750000	338.00	0.22	-0.02	2.00	2.25	2.75	3.50	1.75	0.25	1.00	0.75	1.50	2.75	5.75	3.25	5.00	2.75	1.00	2.00	-0.167480	0.078125	0.967285	-3.290000	-5.530000	1.820000	390.00	0.05	-0.10
0.77	0.00	0.50	0.25	0.50	0.50	0.00	1.75	0.25	2.75	2.50	5.25	3.50	2.50	7.25	1.50	2.25	-0.271484	0.071289	0.946289	0.140000	11.550000	-2.870000	314.00	0.23	-0.02	2.25	2.50	3.00	3.25	1.75	0.25	1.00	0.75	1.50	2.75	6.25	3.75	4.50	2.75	1.50	2.00	-0.171387	0.079102	0.968750	-3.850000	-7.210000	1.960000	406.00	0.05	-0.09
0.78	0.25	0.75	0.25	0.75	0.25	0.00	2.00	0.00	2.50	2.25	5.25	3.50	2.50	7.50	1.25	2.25	-0.247070	0.071777	0.937012	-0.070000	14.140000	-4.830000	313.00	0.22	-0.02	2.50	2.75	3.25	3.50	2.00	0.75	1.00	0.75	1.75	2.50	6.25	3.25	4.75	3.00	1.50	2.25	-0.170898	0.084961	0.971191	-4.830000	-8.470000	1.820000	426.00	0.04	-0.09
0.79	0.00	0.75	0.00	0.50	0.25	0.00	1.75	0.50	2.50	2.00	5.00	3.25	2.50	7.00	1.50	2.00	-0.254883	0.074219	0.941895	-0.490000	16.030001	-6.860000	297.00	0.23	-0.03	2.75	2.75	3.50	3.75	2.00	0.75	1.00	0.75	1.75	2.50	6.25	3.50	4.75	2.75	1.25	2.00	-0.172852	0.081543	0.973633	-4.970000	-8.960000	1.680000	431.00	0.03	-0.09
0.80	0.00	0.25	0.00	0.50	0.25	0.00	1.75	0.25	2.00	2.00	4.75	3.25	2.25	6.75	1.25	1.75	-0.250000	0.066895	0.947754	-1.400000	18.129999	-8.540000	272.00	0.24	-0.02	2.75	3.00	3.50	4.25	2.00	0.50	1.00	0.75	1.50	2.50	5.75	3.25	4.50	3.00	1.50	2.00	-0.163086	0.071289	0.973145	-4.970000	-9.170000	1.680000	427.00	0.02	-0.09
0.81	0.25	0.25	0.00	0.50	0.00	0.00	1.50	0.25	1.75	1.75	4.50	3.25	2.25	6.25	1.00	1.75	-0.259277	0.062500	0.934570	-1.960000	19.879999	-10.010000	252.00	0.23	-0.04	3.00	3.25	4.00	5.00	2.25	1.00	1.00	0.75	1.50	2.50	5.75	3.25	4.50	3.25	1.25	2.00	-0.174316	0.078613	0.976562	-5.180000	-9.310000	1.400000	453.00	0.01	-0.09
0.82	0.25	0.50	0.25	0.25	0.00	0.00	1.50	0.00	1.75	1.25	4.25	3.25	2.25	6.00	0.75	1.50	-0.264648	0.068848	0.944336	-3.150000	22.260000	-13.090000	237.00	0.23	-0.03	3.25	3.00	4.25	4.75	2.50	1.00	1.00	0.75	1.75	2.25	5.50	3.25	5.00	3.00	1.25	2.00	-0.168457	0.080566	0.982422	-4.970000	-8.960000	1.470000	457.00	0.00	-0.09
0.83	0.25	0.25	0.25	0.50	0.00	0.00	1.50	0.00	1.50	1.50	4.50	3.00	2.25	5.75	1.00	1.50	-0.261719	0.104492	0.943848	-1.960000	22.889999	-16.520000	237.00	0.23	-0.03	3.50	3.50	4.50	5.25	2.50	1.25	1.00	1.00	1.50	2.50	5.25	3.00	4.50	2.75	1.25	2.00	-0.168457	0.075684	0.984375	-4.060000	-7.700000	1.540000	466.00	-0.01	-0.09
0.84	0.25	0.25	0.00	0.50	0.00	0.00	1.50	0.00	1.25	1.25	4.00	2.50	2.25	5.50	0.75	1.25	-0.250977	0.114746	0.952148	0.140000	22.960001	-22.120001	212.00	0.23	-0.03	3.75	4.00	5.25	5.25	2.50	1.00	1.00	1.00	1.50	2.25	5.00	3.25	4.75	2.75	1.00	1.75	-0.163574	0.074707	0.981934	-3.920000	-7.280000	1.680000	475.00	-0.03	-0.09
0.85	0.00	0.25	0.00	0.00	0.00	0.00	1.25	0.25	1.00	1.00	4.00	2.75	2.25	5.25	0.75	1.25	-0.248047	0.182129	0.934082	3.290000	22.400000	-31.710001	198.00	0.25	-0.05	4.00	4.25	5.25	5.25	2.75	1.00	1.00	0.75	1.50	2.00	4.75	3.00	4.25	2.75	1.25	1.75	-0.169922	0.075195	0.973633	-4.060000	-7.630000	1.750000	469.00	-0.04	-0.08
0.86	0.25	0.25	0.00	0.50	0.00	0.00	1.25	0.00	1.00	1.00	3.75	2.75	2.00	5.00	0.50	1.00	-0.236816	0.165527	0.950195	10.150000	19.250000	-44.660000	192.00	0.23	-0.04	5.25	4.75	6.00	6.00	3.00	2.00	1.00	1.00	1.50	2.00	4.50	2.50	4.50	2.50	0.75	1.75	-0.164551	0.072266	0.977539	-4.340000	-8.120000	1.960000	508.00	-0.07	-0.08
0.87	0.00	0.00	0.00	0.00	0.00	0.00	1.50	0.00	0.25	0.75	3.50	2.50	2.00	4.75	0.75	1.00	-0.265137	0.095703	0.943359	17.010000	22.469999	-54.180000	168.00	0.26	-0.05	5.75	5.00	6.75	6.25	3.25	1.75	1.00	0.75	1.25	1.75	4.50	3.00	4.25	2.25	1.25	1.50	-0.167480	0.075684	0.982422	-4.130000	-7.770000	2.310000	521.00	-0.08	-0.08
0.88	0.25	0.00	0.00	0.25	0.00	0.00	1.25	0.00	0.50	0.25	3.25	2.50	1.75	4.50	0.50	1.00	-0.263184	0.115723	0.947266	19.180000	23.379999	-60.340000	158.00	0.24	-0.05	6.75	5.25	7.50	7.50	3.50	2.50	1.00	1.00	1.25	1.75	4.00	2.50	4.25	2.50	1.00	1.50	-0.164062	0.076172	0.981934	-3.500000	-7.000000	2.590000	560.00	-0.10	-0.08
0.89	0.00	0.25	0.00	0.25	0.00	0.00	1.25	0.25	0.50	0.50	3.00	2.50	2.00	4.25	0.50	0.75	-0.269531	0.103027	0.931152	20.719999	21.840000	-66.500000	160.00	0.23	-0.07	7.50	5.50	8.00	7.50	4.00	2.75	1.00	1.00	1.25	1.50	3.25	2.50	4.50	2.00	0.75	1.25	-0.161133	0.078125	0.977051	-3.220000	-6.230000	2.730000	567.00	-0.12	-0.07
0.90	0.00	0.25	0.00	0.25	0.00	0.00	1.25	0.00	0.50	0.50	2.50	1.75	1.50	4.00	0.25	1.00	-0.276367	0.073730	0.928223	21.910000	19.320000	-70.910004	136.00	0.23	-0.03	8.00	5.75	8.00	8.00	4.25	2.25	1.00	1.25	1.00	1.50	3.00	2.25	4.25	2.00	0.75	1.25	-0.163086	0.076172	0.979492	-2.940000	-5.600000	2.800000	570.00	-0.13	-0.07
0.91	0.00	0.25	0.00	0.50	0.00	0.00	1.25	0.00	0.25	0.25	2.25	2.00	1.50	3.75	0.50	0.75	-0.274414	0.069824	0.929688	21.980000	16.730000	-73.919998	132.00	0.22	-0.05	9.25	6.50	8.50	8.50	4.50	3.00	1.00	1.25	1.00	1.25	2.50	2.25	3.75	2.00	0.75	1.25	-0.168457	0.072266	0.981445	-2.940000	-5.320000	2.800000	600.00	-0.15	-0.07
0.92	0.00	0.00	0.00	0.50	0.00	0.00	1.25	0.00	0.50	0.00	2.25	1.75	1.50	3.25	0.50	0.75	-0.282227	0.062500	0.919922	21.420000	13.300000	-75.389999	123.00	0.23	-0.05	9.50	6.50	9.00	9.00	4.75	3.25	1.00	1.25	0.75	1.25	2.25	1.75	3.75	1.75	0.75	1.00	-0.159668	0.073730	0.981934	-3.010000	-4.970000	2.800000	605.00	-0.16	-0.07
0.93	0.25	0.25	0.00	0.50	0.00	0.00	1.25	0.00	0.25	0.00	1.50	1.50	1.25	3.25	0.25	0.50	-0.292480	0.051758	0.924316	20.790001	9.450000	-76.019997	108.00	0.19	-0.03	10.00	7.50	9.25	9.25	5.00	3.50	1.00	1.25	0.75	1.25	1.25	1.75	3.75	1.50	0.75	1.00	-0.163086	0.076660	0.977539	-2.940000	-4.480000	2.730000	617.00	-0.18	-0.07
0.94	0.00	0.00	0.00	0.00	0.00	0.00	1.25	0.00	0.25	0.00	1.50	1.25	1.00	2.75	0.25	0.50	-0.288574	0.039551	0.918945	21.559999	5.040000	-76.300003	89.00	0.25	-0.01	11.25	8.00	9.75	9.75	5.00	3.75	1.00	1.00	1.00	1.25	1.50	1.25	3.50	1.50	0.50	0.75	-0.159668	0.074219	0.973633	-3.010000	-4.130000	2.730000	639.00	-0.19	-0.06
0.95	0.00	0.25	0.00	0.00	0.00	0.00	1.25	0.00	0.25	0.00	1.25	1.00	1.25	2.50	0.25	0.50	-0.291992	0.022949	0.922852	21.770000	2.100000	-74.900002	86.00	0.22	-0.02	11.75	8.75	10.00	9.75	5.00	3.75	1.00	1.25	0.50	1.00	1.25	1.25	3.50	1.25	0.25	0.75	-0.159180	0.076660	0.976074	-3.010000	-3.990000	2.870000	641.00	-0.21	-0.07
0.96	0.00	0.25	0.00	0.25	0.00	0.00	1.25	0.00	0.25	0.00	1.00	1.00	1.25	2.00	0.25	0.50	-0.307617	0.010254	0.920410	21.910000	-0.140000	-71.120003	82.00	0.20	-0.04	13.25	9.00	10.25	10.25	5.25	4.00	1.00	1.25	0.50	1.00	1.25	1.00	3.25	1.50	0.75	1.00	-0.157715	0.076172	0.982422	-3.010000	-3.640000	2.800000	677.00	-0.21	-0.06
0.97	0.00	0.25	0.25	0.50	0.00	0.00	1.25	0.00	0.25	0.00	0.75	1.00	1.00	2.00	0.00	0.25	-0.307617	-0.007812	0.937012	22.049999	-1.330000	-65.730003	78.00	0.15	-0.02	13.50	9.50	10.50	10.50	5.25	4.25	1.00	1.00	0.75	1.00	0.75	0.75	3.00	1.25	0.50	0.75	-0.162598	0.073242	0.978516	-2.940000	-3.360000	2.730000	676.00	-0.22	-0.06
0.98	0.00	0.00	0.00	0.25	0.00	0.00	1.25	0.00	0.25	0.00	0.75	0.50	1.00	1.50	0.00	0.25	-0.314941	-0.032715	0.931641	20.230000	-0.630000	-57.400002	61.00	0.19	0.00	14.25	9.75	10.75	10.75	5.25	4.00	1.00	1.00	0.25	0.75	0.75	1.00	2.75	1.25	0.50	0.75	-0.152832	0.077148	0.973145	-2.940000	-3.290000	2.730000	680.00	-0.23	-0.06
0.99	0.00	0.50	0.00	0.00	0.00	0.00	1.25	0.00	0.25	0.00	0.75	0.75	0.75	1.25	0.00	0.25	-0.311523	-0.038086	0.933105	17.150000	0.910000	-46.900002	61.00	0.16	-0.00	14.50	10.25	11.00	11.00	5.50	4.25	1.00	1.00	0.25	0.50	0.75	0.75	2.75	1.00	0.75	0.75	-0.159668	0.075684	0.980957	-2.870000	-3.010000	2.730000	693.00	-0.24	-0.06
1.00	0.00	0.00	0.00	0.25	0.00	0.00	1.50	0.00	0.25	0.00	0.75	0.50	1.00	1.00	0.00	0.25	-0.311035	-0.034668	0.930664	14.560000	2.100000	-35.840000	60.00	0.17	0.01	15.50	11.25	11.25	11.50	5.50	4.50	1.00	1.00	0.50	0.75	0.75	0.50	2.75	1.00	0.75	0.75	-0.154297	0.073242	0.979004	-2.800000	-2.800000	2.730000	727.00	-0.24	-0.06
1.01	0.00	0.50	0.00	0.00	0.00	0.00	1.25	0.00	0.00	0.00	0.50	0.50	1.00	0.75	0.00	0.00	-0.315918	-0.039551	0.941406	12.320000	3.990000	-24.219999	49.00	0.00	0.00	16.25	11.00	11.50	11.50	5.50	4.50	1.00	1.00	0.50	0.75	0.75	0.50	2.50	1.25	0.75	0.75	-0.157227	0.076172	0.975098	-2.730000	-2.590000	2.590000	735.00	-0.24	-0.05
1.02	0.00	0.00	0.00	0.75	0.00	0.00	1.50	0.00	0.00	0.00	0.25	0.50	1.00	1.00	0.00	0.25	-0.314453	-0.041504	0.956055	9.100000	7.560000	-11.690000	57.00	0.12	-0.02	17.00	11.50	11.75	12.00	5.50	4.50	1.00	0.75	0.50	0.50	0.50	0.50	2.50	0.75	0.50	0.50	-0.154785	0.073730	0.977539	-2.940000	-2.520000	2.450000	739.00	-0.25	-0.05
1.03	0.00	0.00	0.00	1.00	0.00	0.00	1.50	0.00	0.00	0.00	0.50	0.75	0.75	0.75	0.00	0.00	-0.309082	0.039551	0.947754	7.210000	15.610000	8.120000	60.00	0.09	-0.03	17.50	11.75	12.00	11.75	5.50	4.50	1.00	1.00	0.50	0.50	0.25	0.25	2.00	0.75	0.50	0.50	-0.158203	0.076660	0.978027	-3.150000	-2.520000	2.170000	740.00	-0.26	-0.05
1.04	0.00	0.00	0.00	0.25	0.00	0.00	1.25	0.00	0.00	0.00	0.25	0.50	0.75	0.75	0.00	0.25	-0.312988	0.039062	0.935059	10.080000	18.270000	12.040000	44.00	0.00	0.00	17.75	12.25	12.25	12.00	5.75	4.50	1.00	0.75	0.25	0.50	0.50	0.00	2.25	0.75	0.75	0.50	-0.160645	0.075195	0.977539	-3.360000	-2.380000	2.100000	754.00	-0.26	-0.05
1.05	0.00	0.00	0.00	0.25	0.00	0.00	1.25	0.00	0.00	0.00	0.25	0.75	1.00	0.25	0.00	0.00	-0.310547	0.055176	0.932617	11.900000	18.900000	15.680000	43.00	0.00	0.00	18.25	12.50	12.25	12.25	5.50	4.25	1.00	1.00	0.25	0.50	0.00	0.25	2.00	0.75	0.50	0.25	-0.155273	0.081055	0.978516	-3.500000	-2.240000	2.170000	753.00	-0.27	-0.05
1.06	0.00	0.25	0.00	0.25	0.00	0.00	1.50	0.00	0.00	0.00	0.50	0.50	1.00	0.75	0.00	0.25	-0.293457	0.075684	0.939941	13.440001	19.180000	17.080000	55.00	0.13	-0.02	18.75	12.75	12.50	12.25	5.75	4.50	1.00	0.75	0.25	0.50	0.00	0.25	1.75	0.75	0.50	0.25	-0.157227	0.068359	0.976074	-3.290000	-1.470000	1.890000	763.00	-0.27	-0.04
1.07	0.00	0.00	0.00	0.25	0.00	0.00	1.25	0.00	0.25	0.00	0.50	0.75	1.25	0.25	0.00	0.00	-0.282227	0.093262	0.903809	15.400000	18.129999	15.610000	51.00	0.14	-0.05	19.50	13.00	12.75	12.50	5.75	4.75	1.00	0.50	0.50	0.50	0.25	0.00	1.75	0.75	0.00	0.25	-0.161133	0.072754	0.980957	-3.220000	-1.120000	1.890000	776.00	-0.28	-0.04
1.08	0.00	0.00	0.00	0.00	0.00	0.00	1.25	0.00	0.00	0.00	0.50	1.00	1.50	0.00	0.00	0.00	-0.273438	0.109863	0.912598	16.870001	15.750000	11.550000	48.00	0.00	0.00	19.75	13.25	12.75	12.25	5.75	4.50	1.00	0.75	0.25	0.25	0.00	0.00	1.25	0.75	0.50	0.25	-0.155273	0.073730	0.976562	-3.220000	-0.770000	1.960000	771.00	-0.28	-0.04
1.09	0.00	0.25	0.00	0.00	0.00	0.00	1.25	0.00	0.00	0.25	0.75	1.25	1.50	0.25	0.00	0.25	-0.276367	0.110352	0.909668	17.150000	14.070000	6.300000	61.00	0.15	-0.11	19.75	13.00	12.75	12.50	5.50	4.00	1.00	0.50	0.25	0.25	0.00	0.00	1.50	0.50	0.25	0.25	-0.155273	0.073730	0.976074	-3.500000	-0.490000	1.680000	757.00	-0.28	-0.04
1.10	0.00	0.00	0.00	0.25	0.00	0.00	1.25	0.00	0.00	0.00	0.50	1.50	1.75	0.25	0.00	0.50	-0.288086	0.113770	0.912109	14.350000	12.670000	1.890000	63.00	0.15	-0.14	20.00	13.25	12.75	12.50	5.75	4.00	1.00	0.50	0.00	0.50	0.00	0.00	1.50	0.50	0.00	0.25	-0.157227	0.069336	0.985840	-3.290000	-0.070000	1.680000	762.00	-0.29	-0.04
1.11	0.00	1.00	0.00	0.00	0.00	0.00	1.25	0.00	0.25	0.50	1.00	2.00	2.50	0.25	0.00	0.25	-0.291504	0.104004	0.905273	12.040000	10.990000	-2.100000	93.00	0.12	-0.14	20.25	13.50	13.00	12.50	5.50	3.75	1.00	0.25	0.25	0.00	0.00	0.00	1.50	0.50	0.00	0.25	-0.167480	0.067383	0.976074	-2.940000	0.770000	1.820000	758.00	-0.29	-0.03
1.12	0.00	0.00	0.00	0.25	0.00	0.00	1.50	0.25	0.25	0.25	1.25	2.50	3.25	0.00	0.25	0.50	-0.303711	0.091797	0.904785	10.150000	8.470000	-5.110000	108.00	0.16	-0.17	20.50	13.75	13.00	12.50	5.50	3.75	1.00	0.50	0.00	0.50	0.00	0.00	1.00	0.25	0.25	0.25	-0.160156	0.068359	0.978027	-2.590000	1.680000	1.890000	765.00	-0.29	-0.03
1.13	0.00	0.00	0.00	0.00	0.00	0.00	1.25	0.00	0.25	0.50	1.50	3.50	5.00	0.25	0.00	0.50	-0.310059	0.085938	0.916016	9.800000	5.670000	-6.090000	128.00	0.19	-0.21	20.00	13.50	12.75	12.50	5.25	3.25	1.00	0.50	0.00	0.25	0.00	0.00	1.25	0.50	0.00	0.25	-0.160645	0.072754	0.974121	-2.170000	2.870000	1.820000	745.00	-0.29	-0.04
1.14	0.00	0.00	0.00	0.00	0.00	0.00	1.25	0.00	0.00	0.50	2.25	4.50	5.75	0.50	0.00	0.50	-0.311035	0.080566	0.924316	10.220000	4.060000	-5.460000	152.00	0.19	-0.23	19.50	13.00	12.75	12.25	5.25	3.25	1.00	0.50	0.00	0.25	0.00	0.00	1.00	0.50	0.25	0.00	-0.158691	0.071777	0.983887	-1.680000	4.620000	1.960000	732.00	-0.29	-0.03
1.15	0.00	0.00	0.00	0.00	0.00	0.00	1.25	0.00	0.00	0.50	3.00	5.75	6.75	0.25	0.00	0.75	-0.307129	0.079102	0.929199	10.850000	2.870000	-3.990000	181.00	0.19	-0.25	19.00	13.00	12.50	12.00	5.00	3.00	1.00	0.50	0.00	0.00	0.00	0.00	1.00	0.25	0.25	0.25	-0.167480	0.070801	0.977051	-1.540000	5.670000	2.100000	712.00	-0.30	-0.03
1.16	0.00	0.00	0.00	0.00	0.00	0.00	1.25	0.25	0.25	1.00	3.50	7.25	7.50	0.50	0.25	0.75	-0.312012	0.080566	0.932617	10.570000	3.430000	-2.730000	226.00	0.20	-0.23	18.50	12.50	12.25	11.75	5.00	2.50	1.00	0.50	0.00	0.25	0.00	0.00	1.00	0.50	0.25	0.25	-0.171875	0.069824	0.978027	-1.120000	6.930000	2.030000	696.00	-0.29	-0.03
1.17	0.00	0.00	0.00	0.00	0.00	0.00	1.25	0.25	0.50	1.00	4.25	8.25	8.50	0.50	0.25	1.00	-0.314453	0.085449	0.927734	10.500000	4.480000	-0.770000	257.00	0.20	-0.23	18.25	12.25	12.00	11.50	5.00	2.50	1.00	0.50	0.00	0.25	0.00	0.00	0.75	0.25	0.00	0.25	-0.182617	0.066406	0.975098	-0.210000	8.330000	2.240000	679.00	-0.30	-0.03
1.18	0.00	0.00	0.00	0.00	0.00	0.00	1.50	0.25	0.50	1.25	5.25	9.00	9.50	0.75	0.25	1.00	-0.310059	0.083008	0.926758	10.990000	4.550000	0.630000	293.00	0.20	-0.23	17.50	11.75	11.50	11.00	4.50	2.00	1.00	0.25	0.00	0.25	0.00	0.00	0.75	0.00	0.00	0.00	-0.168457	0.076660	0.981445	0.980000	10.150000	2.310000	637.00	-0.30	-0.03
1.19	0.00	0.00	0.00	0.00	0.00	0.00	1.25	0.50	0.50	1.25	6.50	10.00	10.75	1.00	0.50	1.25	-0.313477	0.094727	0.926758	11.970000	4.410000	2.310000	334.00	0.20	-0.24	16.25	11.00	11.00	10.75	4.25	1.50	0.75	0.00	0.00	0.00	0.00	0.00	0.50	0.50	0.00	0.00	-0.162598	0.065918	0.976562	2.380000	12.040000	2.730000	593.00	-0.31	-0.02
1.20	0.00	0.00	0.00	0.00	0.00	0.00	1.25	0.75	0.25	1.25	7.75	11.00	12.00	1.50	0.75	1.25	-0.308105	0.095215	0.932129	12.740000	5.810000	3.850000	376.00	0.20	-0.24	14.25	10.00	10.25	10.00	3.50	1.25	0.75	0.25	0.00	0.00	0.00	0.00	0.50	0.25	0.00	0.00	-0.171387	0.067871	0.975586	4.060000	14.140000	3.010000	537.00	-0.31	-0.03
1.21	0.00	0.00	0.00	0.00	0.00	0.00	1.25	0.75	0.50	1.50	8.00	12.00	13.00	1.00	0.50	1.50	-0.305664	0.101562	0.928223	12.180000	7.560000	4.970000	398.00	0.20	-0.25	13.50	9.25	9.50	9.50	3.25	1.00	0.75	0.25	0.00	0.25	0.00	0.00	0.50	0.25	0.00	0.00	-0.168457	0.077637	0.982910	5.600000	15.890000	3.080000	506.00	-0.30	-0.03
1.22	0.00	0.00	0.00	0.00	0.00	0.00	1.50	0.75	0.75	1.75	8.75	13.25	14.00	1.25	0.50	1.75	-0.304688	0.114258	0.930664	11.340000	8.750000	5.250000	441.00	0.20	-0.24	11.50	8.50	9.00	8.75	2.75	1.00	0.75	0.25	0.00	0.25	0.00	0.00	0.25	0.50	0.00	0.00	-0.186035	0.073242	0.975098	6.720000	17.850000	3.290000	459.00	-0.30	-0.03
1.23	0.00	0.00	0.00	0.00	0.00	0.00	1.25	1.00	0.25	2.00	9.25	14.25	15.00	1.50	0.75	1.75	-0.308594	0.105469	0.920410	9.730000	9.240000	5.040000	466.00	0.20	-0.25	9.50	7.75	8.00	8.00	2.25	0.50	0.75	0.00	0.00	0.25	0.00	0.00	0.25	0.25	0.00	0.00	-0.164062	0.079590	1.000977	5.250000	19.180000	2.380000	395.00	-0.30	-0.03
1.24	0.00	0.25	0.00	0.00	0.00	0.00	1.50	1.00	0.50	2.50	9.75	15.00	16.00	1.75	0.50	1.75	-0.306641	0.114746	0.923828	8.890000	8.750000	4.410000	502.00	0.20	-0.24	7.75	6.25	7.00	7.50	1.75	0.25	0.75	0.00	0.00	0.00	0.00	0.00	0.50	0.25	0.00	0.00	-0.186523	0.075684	0.979980	-1.540000	21.000000	-0.420000	338.00	-0.30	-0.03
1.25	0.00	0.00	0.00	0.00	0.00	0.00	1.50	1.25	0.75	2.50	10.25	16.00	17.00	1.75	0.75	2.00	-0.306641	0.120117	0.923340	7.420000	5.670000	3.360000	535.00	0.20	-0.24	6.00	5.25	5.75	6.25	1.50	0.25	0.75	0.00	0.00	0.00	0.00	0.00	0.25	0.00	0.00	0.00	-0.186523	0.075684	0.979980	-1.540000	21.000000	-0.420000	276.00	-0.30	-0.03
1.26	0.00	0.00	0.00	0.00	0.00	0.00	1.50	1.50	0.75	3.00	11.00	16.75	18.00	1.75	0.75	2.25	-0.301758	0.124512	0.909180	5.880000	3.640000	2.520000	570.00	0.20	-0.24	4.50	4.25	5.00	4.75	1.25	0.00	0.75	0.00	0.00	0.00	0.00	0.00	0.25	0.00	0.00	0.00	-0.190918	0.086426	0.978027	-4.410000	21.910000	-1.750000	221.00	-0.30	-0.03
1.27	0.00	0.00	0.00	0.00	0.00	0.00	1.25	1.75	0.75	3.25	11.25	17.75	18.75	2.00	1.00	2.50	-0.304199	0.124512	0.925781	3.360000	2.940000	1.680000	598.00	0.20	-0.25	3.00	2.75	3.00	3.25	0.75	0.00	0.75	0.00	0.00	0.00	0.00	0.00	0.00	0.00	0.00	0.00	-0.283691	-0.050293	1.052246	-13.370000	23.660000	-4.130000	145.00	-0.29	-0.02
1.28	0.00	0.00	0.00	0.00	0.00	0.00	1.50	2.00	0.50	3.75	12.00	18.50	19.50	2.25	1.00	2.75	-0.299805	0.133301	0.920410	0.770000	3.430000	0.840000	634.00	0.20	-0.24	1.75	2.50	2.25	2.75	0.50	0.00	0.75	0.00	0.00	0.00	0.00	0.00	0.25	0.50	0.00	0.25	-0.165527	0.126953	0.976562	-26.670000	36.750000	-12.600000	121.00	-0.24	-0.03
1.29	0.00	0.00	0.00	0.00	0.00	0.00	1.50	2.00	0.50	4.25	12.25	19.25	20.00	2.75	1.25	3.00	-0.299316	0.134766	0.922852	-1.680000	4.270000	0.000000	662.00	0.20	-0.24	1.25	1.75	1.75	1.25	0.25	0.00	0.50	0.00	0.00	0.00	0.00	0.00	0.25	0.25	0.25	0.00	-0.190918	0.126465	1.006348	-34.790001	47.880001	-21.139999	80.00	-0.23	-0.02
1.30	0.00	0.00	0.00	0.00	0.00	0.00	1.50	2.25	0.75	5.50	13.00	19.75	20.25	3.00	1.25	3.50	-0.296875	0.125488	0.921387	-4.130000	4.900000	-1.330000	702.00	0.21	-0.23	0.50	2.25	1.25	1.50	0.25	0.00	0.50	0.00	0.00	0.00	0.00	0.00	0.00	0.00	0.00	0.00	-0.080078	0.285156	1.369629	-10.850000	78.959999	-27.930000	67.00	-0.28	-0.05
1.31	0.00	0.00	0.00	0.00	0.00	0.00	1.50	2.25	1.00	6.50	13.50	20.25	20.50	3.50	1.25	3.75	-0.293945	0.131836	0.919922	-6.440000	5.250000	-2.870000	734.00	0.21	-0.22	0.75	1.00	1.00	1.00	0.25	0.00	0.50	0.00	0.00	0.00	0.00	0.00	0.00	0.25	0.00	0.00	-0.000000	0.138672	1.135742	1.750000	94.709999	-40.880001	52.00	-0.23	0.00
1.32	0.00	0.00	0.00	0.00	0.00	0.00	1.50	2.25	1.00	7.50	14.25	20.75	20.50	3.50	1.50	4.25	-0.295898	0.132812	0.920410	-8.120000	5.180000	-4.830000	763.00	0.21	-0.22	0.75	1.00	1.00	1.50	0.25	0.00	0.50	0.00	0.00	0.00	0.00	0.00	0.00	0.00	0.00	0.00	0.216797	0.096680	1.260742	8.120000	97.300003	-53.549999	55.00	-0.26	-0.03
1.33	0.00	0.00	0.00	0.00	0.00	0.00	1.50	2.25	1.50	8.00	14.50	21.00	20.75	4.50	1.75	4.50	-0.299316	0.123535	0.926270	-9.520000	5.530000	-6.720000	795.00	0.21	-0.21	0.50	0.50	0.75	1.25	0.25	0.00	0.50	0.00	0.00	0.00	0.00	0.00	0.00	0.00	0.00	0.00	0.490723	0.050293	1.301758	3.920000	87.709999	-65.519997	42.00	0.00	0.00
1.34	0.00	0.00	0.00	0.00	0.00	0.00	1.50	2.00	1.75	8.50	15.25	21.25	20.50	4.75	2.00	4.75	-0.299316	0.121582	0.932129	-10.850000	6.650000	-7.980000	814.00	0.22	-0.20	0.50	1.00	0.75	1.25	0.25	0.00	0.50	0.00	0.00	0.00	0.00	0.00	0.00	0.00	0.00	0.00	0.762207	0.090332	1.280762	0.980000	76.580002	-75.669998	47.00	0.00	0.00
1.35	0.00	0.00	0.00	0.00	0.00	0.00	1.25	2.00	1.75	9.00	15.75	21.50	20.25	5.25	2.00	5.00	-0.307129	0.115234	0.932129	-12.180000	9.520000	-8.400000	827.00	0.22	-0.20	0.75	0.75	0.75	1.00	0.25	0.00	0.50	0.00	0.00	0.00	0.00	0.00	0.00	0.00	0.00	0.00	0.997070	0.150391	1.292480	5.320000	61.389999	-82.599998	44.00	0.00	0.00
1.36	0.00	0.00	0.00	0.00	0.00	0.00	1.25	1.75	2.50	9.50	16.00	21.25	19.75	6.50	2.25	5.25	-0.306152	0.115723	0.934570	-12.740000	12.460000	-8.960000	848.00	0.22	-0.18	0.50	0.75	0.75	0.50	0.25	0.00	0.50	0.00	0.00	0.00	0.00	0.00	0.00	0.25	0.00	0.00	1.017090	0.143066	1.416504	3.290000	40.320000	-87.010002	38.00	0.00	0.00
1.37	0.00	0.00	0.00	0.00	0.00	0.00	1.50	1.50	3.25	10.00	16.50	21.25	19.50	7.75	2.50	5.25	-0.306641	0.108398	0.932617	-13.020000	15.400000	-9.170000	880.00	0.23	-0.17	0.50	0.75	0.75	1.00	0.25	0.00	0.50	0.00	0.00	0.00	0.00	0.00	0.00	0.00	0.00	0.00	1.107910	0.213867	1.517090	5.880000	12.530000	-84.559998	42.00	0.00	0.00
1.38	0.00	0.00	0.00	0.00	0.00	0.00	1.50	1.50	3.75	10.50	16.50	21.00	19.00	8.25	2.25	5.25	-0.308594	0.099121	0.937988	-13.020000	18.410000	-8.960000	886.00	0.23	-0.16	0.50	0.75	0.75	0.75	0.25	0.00	0.50	0.00	0.00	0.00	0.00	0.00	0.00	0.00	0.00	0.00	1.041992	0.143066	1.306152	11.900000	-12.600000	-80.360001	39.00	0.00	0.00
1.39	0.00	0.00	0.00	0.00	0.00	0.00	1.50	1.00	4.25	10.75	16.75	20.75	18.50	8.75	2.75	5.25	-0.314453	0.101562	0.934082	-12.740000	21.700001	-8.540000	893.00	0.23	-0.15	0.00	0.25	0.50	0.50	0.00	0.00	0.50	0.00	0.00	0.00	0.00	0.00	0.00	0.00	0.00	0.00	0.953613	0.098633	1.177246	15.610000	-26.600000	-74.830002	21.00	0.00	0.00
1.40	0.00	0.00	0.00	0.00	0.00	0.00	1.50	1.00	5.00	11.25	17.00	20.50	18.00	9.25	3.00	5.50	-0.320312	0.091797	0.938477	-12.320000	25.480000	-7.840000	911.00	0.24	-0.14	0.25	0.75	0.75	0.50	0.00	0.00	0.50	0.00	0.00	0.00	0.00	0.00	0.00	0.25	0.00	0.00	0.912109	0.107910	1.205078	18.200001	-35.349998	-68.180000	33.00	0.00	0.00
1.41	0.00	0.00	0.00	0.00	0.00	0.00	1.25	0.75	5.25	11.50	17.00	20.25	17.50	10.00	3.00	5.50	-0.316895	0.094238	0.938477	-10.710000	29.820000	-6.790000	909.00	0.24	-0.14	0.25	1.00	0.50	0.50	0.25	0.00	0.50	0.00	0.00	0.00	0.00	0.00	0.00	0.00	0.00	0.00	0.862305	0.098633	1.244629	22.120001	-45.150002	-60.270000	33.00	0.00	0.00
1.42	0.00	0.00	0.00	0.00	0.00	0.00	1.25	0.50	5.75	12.00	17.25	20.00	17.00	10.50	3.00	5.25	-0.329102	0.095215	0.934570	-9.100000	34.090000	-5.810000	916.00	0.24	-0.13	0.25	0.25	0.50	0.00	0.25	0.00	0.50	0.00	0.00	0.00	0.00	0.00	0.00	0.00	0.00	0.00	0.790039	0.067871	1.221191	25.129999	-55.160000	-51.869999	21.00	0.00	0.00
1.43	0.00	0.00	0.00	0.00	0.00	0.00	1.25	0.50	6.25	12.25	17.25	19.75	16.50	11.25	3.25	5.25	-0.335938	0.091309	0.930176	-6.930000	41.720001	-4.550000	927.00	0.24	-0.12	0.25	0.50	0.50	0.25	0.00	0.00	0.50	0.00	0.00	0.00	0.00	0.00	0.00	0.00	0.00	0.00	0.695801	0.040039	1.201172	26.530001	-62.930000	-43.889999	23.00	0.00	0.00
1.44	0.00	0.00	0.00	0.00	0.00	0.00	1.25	0.50	7.25	12.50	17.00	19.50	16.00	11.50	3.25	5.25	-0.335938	0.091309	0.930176	-6.930000	41.720001	-4.550000	935.00	0.24	-0.11	0.50	0.75	0.50	1.00	0.00	0.00	0.50	0.00	0.00	0.00	0.00	0.00	0.00	0.00	0.00	0.00	0.601074	0.014160	1.153320	26.250000	-67.830002	-36.680000	36.00	0.00	0.00
1.45	0.00	0.00	0.00	0.00	0.00	0.00	1.25	0.25	7.50	12.75	17.00	19.00	15.50	11.75	3.75	5.25	-0.340820	0.087891	0.931641	-5.880000	45.290001	-4.270000	935.00	0.25	-0.10	0.25	0.00	0.50	0.50	0.00	0.00	0.50	0.00	0.00	0.00	0.00	0.00	0.00	0.00	0.00	0.00	0.510742	-0.014648	1.112305	25.059999	-69.790001	-30.590000	21.00	0.00	0.00
1.46	0.00	0.00	0.00	0.00	0.00	0.00	1.25	0.25	7.50	12.75	17.00	19.00	14.75	12.00	3.75	5.00	-0.355469	0.091309	0.926270	-4.900000	52.009998	-3.920000	929.00	0.25	-0.10	0.25	0.50	0.50	0.50	0.00	0.00	0.50	0.00	0.00	0.00	0.00	0.00	0.00	0.00	0.00	0.00	0.328125	-0.043945	1.113281	20.230000	-67.129997	-21.000000	26.00	0.00	0.00
1.47	0.00	0.00	0.00	0.00	0.00	0.00	1.25	0.25	8.00	13.00	16.75	18.75	14.25	12.50	3.75	5.00	-0.354492	0.092285	0.917480	-4.690000	53.760002	-3.920000	933.00	0.25	-0.09	0.25	0.75	0.50	0.50	0.00	0.00	0.50	0.00	0.00	0.00	0.00	0.00	0.00	0.00	0.00	0.00	0.250488	-0.057617	1.109375	17.570000	-65.519997	-17.920000	28.00	0.00	0.00
1.48	0.00	0.00	0.00	0.00	0.00	0.00	1.25	0.00	8.25	13.25	16.75	18.50	13.75	12.75	3.75	5.00	-0.373047	0.092285	0.910156	-4.550000	55.090000	-3.920000	930.00	0.25	-0.09	0.25	0.25	0.25	0.25	0.00	0.00	0.50	0.00	0.00	0.00	0.00	0.00	0.00	0.00	0.00	0.00	0.169922	-0.082031	1.098633	15.120000	-63.700001	-16.100000	18.00	0.00	0.00
1.49	0.00	0.00	0.00	0.00	0.00	0.00	1.25	0.00	8.50	13.50	16.75	18.25	13.25	13.00	4.00	5.00	-0.378906	0.092285	0.910156	-5.180000	55.720001	-4.410000	934.00	0.25	-0.08	0.00	0.50	0.50	0.50	0.00	0.00	0.50	0.00	0.00	0.00	0.00	0.00	0.00	0.00	0.00	0.00	0.080566	-0.103516	1.068848	12.460000	-60.900002	-15.750000	23.00	0.00	0.00
1.50	0.00	0.00	0.00	0.00	0.00	0.00	1.25	0.00	8.75	13.50	16.50	17.75	12.50	13.25	4.00	5.00	-0.383301	0.094238	0.897461	-6.440000	56.560001	-4.900000	925.00	0.25	-0.08	0.50	0.25	0.25	0.50	0.00	0.00	0.50	0.00	0.00	0.00	0.00	0.00	0.00	0.00	0.00	0.00	0.005859	-0.099609	1.079102	11.410000	-57.260002	-16.660000	23.00	0.00	0.00
1.51	0.00	0.00	0.00	0.00	0.00	0.00	1.00	0.00	9.00	14.00	16.50	17.50	12.00	13.75	4.50	4.75	-0.392090	0.100098	0.898926	-8.330000	56.630001	-5.880000	931.00	0.26	-0.07	0.25	0.50	0.00	0.00	0.00	0.00	0.50	0.00	0.00	0.00	0.00	0.00	0.00	0.00	0.00	0.00	-0.064453	-0.067871	1.125488	14.210000	-55.299999	-18.410000	15.00	0.00	0.00
1.52	0.00	0.00	0.00	0.00	0.00	0.00	1.25	0.00	9.00	14.00	16.50	17.25	11.50	14.00	4.50	4.75	-0.398438	0.089844	0.887207	-10.010000	55.790001	-6.860000	930.00	0.26	-0.07	0.25	0.75	0.25	0.25	0.00	0.00	0.50	0.00	0.00	0.00	0.00	0.00	0.00	0.00	0.00	0.00	-0.104492	-0.037598	1.189453	21.980000	-57.260002	-19.670000	23.00	0.00	0.00
1.53	0.00	0.00	0.00	0.00	0.00	0.00	1.25	0.00	9.25	14.25	16.25	17.00	11.00	14.50	4.50	4.75	-0.404785	0.090332	0.897949	-11.480000	53.970001	-7.420000	930.00	0.26	-0.06	0.00	0.25	0.25	0.25	0.00	0.00	0.50	0.00	0.00	0.00	0.00	0.00	0.00	0.00	0.00	0.00	-0.164062	-0.020508	1.240234	31.920000	-63.770000	-20.230000	15.00	0.00	0.00
1.54	0.00	0.00	0.00	0.00	0.00	0.00	1.00	0.00	9.50	14.50	16.25	16.50	10.50	15.00	4.75	4.75	-0.415527	0.084961	0.891113	-13.230000	52.290001	-7.770000	929.00	0.26	-0.06	0.25	0.25	0.25	0.50	0.00	0.00	0.50	0.00	0.00	0.00	0.00	0.00	0.00	0.00	0.00	0.00	-0.239258	-0.034668	1.161621	41.299999	-71.750000	-20.020000	21.00	0.00	0.00
1.55	0.00	0.00	0.00	0.00	0.00	0.00	1.00	0.00	9.75	14.75	16.00	16.50	9.75	15.25	4.75	4.50	-0.424316	0.082031	0.887695	-14.070000	50.959999	-8.050000	927.00	0.26	-0.05	0.00	0.50	0.50	0.00	0.00	0.00	0.50	0.00	0.00	0.00	0.00	0.00	0.00	0.00	0.00	0.00	-0.337891	-0.100586	1.116699	46.060001	-77.139999	-20.299999	18.00	0.00	0.00
1.56	0.00	0.00	0.00	0.00	0.00	0.00	1.00	0.00	10.25	15.00	16.00	16.00	9.25	15.75	5.00	4.50	-0.430176	0.071289	0.875977	-14.490000	50.049999	-8.190000	933.00	0.26	-0.05	0.00	0.75	0.25	0.25	0.00	0.00	0.50	0.00	0.00	0.00	0.00	0.00	0.00	0.00	0.00	0.00	-0.438965	-0.152832	1.082520	45.779999	-80.500000	-22.469999	20.00	0.00	0.00
1.57	0.00	0.00	0.00	0.00	0.00	0.00	1.00	0.00	10.25	15.00	16.00	15.75	9.00	16.25	5.00	4.75	-0.440918	0.070801	0.882324	-14.560000	49.279999	-7.910000	934.00	0.26	-0.04	0.25	0.00	0.25	0.50	0.00	0.00	0.50	0.00	0.00	0.00	0.00	0.00	0.00	0.00	0.00	0.00	-0.539062	-0.189453	1.051758	44.730000	-84.139999	-27.160000	18.00	0.00	0.00
1.58	0.00	0.00	0.00	0.00	0.00	0.00	1.00	0.00	10.75	15.50	16.00	15.50	8.50	16.50	5.00	4.75	-0.446289	0.070801	0.880859	-14.490000	49.910000	-7.840000	941.00	0.26	-0.04	0.00	0.50	0.50	0.50	0.00	0.00	0.50	0.00	0.00	0.00	0.00	0.00	0.00	0.00	0.00	0.00	-0.668945	-0.253418	0.973145	43.680000	-87.290001	-35.560001	23.00	0.00	0.00
1.59	0.00	0.00	0.00	0.00	0.00	0.00	1.00	0.00	11.00	15.75	16.00	15.25	8.25	17.00	5.25	4.75	-0.451660	0.066406	0.887207	-14.700000	50.820000	-7.840000	949.00	0.27	-0.04	0.25	0.50	0.25	0.25	0.00	0.00	0.50	0.00	0.00	0.00	0.00	0.00	0.00	0.00	0.00	0.00	-0.785645	-0.286621	0.919922	40.880001	-88.550003	-47.740002	20.00	0.00	0.00
1.60	0.00	0.00	0.00	0.00	0.00	0.00	1.00	0.00	11.25	16.00	15.75	14.75	7.75	17.50	5.25	4.75	-0.458008	0.061035	0.883301	-14.770000	53.410000	-7.910000	947.00	0.27	-0.03	0.00	0.00	0.25	0.25	0.00	0.00	0.50	0.00	0.00	0.00	0.00	0.00	0.00	0.00	0.00	0.00	-0.918457	-0.257812	0.845215	37.660000	-89.180000	-61.040001	13.00	0.00	0.00
1.61	0.00	0.00	0.00	0.00	0.00	0.00	1.00	0.00	11.25	16.25	15.75	14.50	7.50	18.00	5.50	4.50	-0.461426	0.065430	0.884277	-14.350000	56.700001	-7.630000	950.00	0.27	-0.03	0.00	0.25	0.25	0.00	0.00	0.00	0.50	0.00	0.00	0.00	0.00	0.00	0.00	0.00	0.00	0.00	-1.056152	-0.227051	0.726562	33.880001	-87.290001	-73.500000	13.00	0.00	0.00
1.62	0.00	0.00	0.00	0.00	0.00	0.00	1.00	0.00	11.50	16.50	15.50	14.25	7.25	18.50	5.50	4.75	-0.470215	0.060059	0.898438	-13.790000	61.110001	-7.630000	954.00	0.27	-0.02	0.00	0.50	0.00	0.25	0.00	0.00	0.50	0.00	0.00	0.00	0.00	0.00	0.00	0.00	0.00	0.00	-1.188477	-0.148438	0.594238	28.280001	-80.849998	-83.300003	15.00	0.00	0.00
1.63	0.00	0.00	0.00	0.00	0.00	0.00	0.75	0.00	12.00	16.75	15.25	14.00	7.00	18.75	5.75	4.75	-0.481934	0.060059	0.898926	-13.580000	66.919998	-7.770000	957.00	0.27	-0.02	0.00	0.25	0.25	0.00	0.00	0.00	0.50	0.00	0.00	0.00	0.00	0.00	0.00	0.00	0.00	0.00	-1.288574	-0.048340	0.524414	24.080000	-70.419998	-88.970001	13.00	0.00	0.00
1.64	0.00	0.00	0.00	0.00	0.00	0.00	0.75	0.00	12.00	16.75	15.25	13.50	6.50	19.25	6.00	5.00	-0.497559	0.052246	0.901367	-13.720000	74.199997	-7.840000	956.00	0.27	-0.01	0.00	0.50	0.25	0.00	0.25	0.00	0.50	0.00	0.00	0.00	0.00	0.00	0.00	0.00	0.00	0.00	-1.372559	0.120117	0.508789	24.780001	-51.310001	-84.980003	18.00	0.00	0.00
1.65	0.00	0.00	0.00	0.00	0.00	0.00	0.75	0.00	12.25	17.00	15.00	13.25	6.25	19.50	6.25	5.00	-0.505859	0.052246	0.908203	-14.070000	83.580002	-8.190000	959.00	0.27	-0.01	0.00	0.75	0.25	0.50	0.00	0.00	0.50	0.00	0.00	0.00	0.00	0.00	0.00	0.00	0.00	0.00	-1.372559	0.120117	0.508789	24.780001	-51.310001	-84.980003	23.00	0.00	0.00
1.66	0.00	0.00	0.00	0.00	0.00	0.00	0.75	0.00	12.50	17.50	15.00	13.00	5.75	20.25	6.25	5.00	-0.525391	0.056641	0.913086	-15.400000	94.290001	-8.820000	967.00	0.28	-0.01	0.25	0.50	0.00	0.25	0.25	0.00	0.50	0.00	0.00	0.00	0.00	0.00	0.00	0.00	0.00	0.00	-1.347168	0.155762	0.471680	26.040001	-44.170002	-77.279999	20.00	0.00	0.00
1.67	0.00	0.00	0.00	0.00	0.00	0.00	0.75	0.00	12.75	17.50	14.75	12.50	5.25	20.25	6.50	5.00	-0.557129	0.053711	0.915039	-18.129999	117.320000	-11.970000	960.00	0.28	-0.00	0.00	0.75	0.50	0.00	0.00	0.00	0.50	0.00	0.00	0.00	0.00	0.00	0.00	0.00	0.00	0.00	-1.156250	0.110352	0.442383	31.850000	-35.139999	-60.130001	20.00	0.00	0.00
1.68	0.00	0.00	0.00	0.00	0.00	0.00	0.75	0.00	12.75	17.75	14.50	11.75	5.00	20.75	6.25	5.00	-0.581543	0.064941	0.924805	-19.950001	131.180008	-14.630000	952.00	0.28	0.00	0.00	0.25	0.00	0.25	0.00	0.00	0.50	0.00	0.00	0.00	0.00	0.00	0.00	0.00	0.00	0.00	-0.996582	0.068359	0.329102	31.219999	-31.990000	-50.470001	13.00	0.00	0.00
1.69	0.00	0.00	0.00	0.00	0.00	0.00	0.75	0.00	13.00	17.75	14.25	11.25	4.50	21.00	6.75	5.00	-0.601562	0.063965	0.916016	-22.190001	147.000000	-17.710001	950.00	0.28	0.01	0.50	0.50	0.50	0.50	0.00	0.00	0.50	0.00	0.00	0.00	0.00	0.00	0.00	0.00	0.00	0.00	-3.325195	0.000488	0.159668	23.730000	-25.620001	-37.939999	28.00	0.00	0.00
1.70	0.00	0.00	0.00	0.00	0.00	0.00	0.75	0.00	13.00	17.75	13.75	10.50	4.25	21.00	6.50	5.00	-0.634766	0.070312	0.941406	-23.730000	164.570007	-21.770000	932.00	0.28	0.01	0.50	1.00	0.50	0.75	0.00	0.00	0.50	0.00	0.00	0.00	0.00	0.00	0.00	0.00	0.00	0.00	-1.893066	-0.483887	-1.234375	-61.740002	52.290001	-19.740000	36.00	0.00	0.00
1.71	0.00	0.00	0.00	0.00	0.00	0.00	0.50	0.00	12.75	18.00	13.50	9.75	3.50	20.75	6.75	5.00	-0.665039	0.070801	0.953125	-28.070000	186.199997	-26.809999	911.00	0.28	0.02	1.50	2.00	0.75	1.25	0.25	0.00	0.50	0.00	0.00	0.00	0.00	0.00	0.00	0.00	0.00	0.00	-0.419434	0.549316	1.258301	-47.950001	141.960007	-10.920000	66.00	-0.30	-0.03
1.72	0.00	0.00	0.00	0.00	0.00	0.00	0.50	0.00	13.00	18.00	13.00	9.00	2.75	20.50	6.50	4.50	-0.695312	0.087402	0.975586	-34.860001	212.800003	-33.740002	887.00	0.28	0.03	3.75	5.00	1.75	3.75	0.25	0.00	0.50	0.00	0.00	0.00	0.00	0.00	0.00	0.00	0.00	0.00	-0.786133	-0.047852	3.276367	-21.840000	143.430008	5.460000	156.00	-0.33	-0.06
1.73	0.00	0.00	0.00	0.00	0.00	0.00	0.50	0.00	12.75	17.50	12.50	8.00	2.50	20.25	6.50	4.00	-0.749512	0.063477	1.030762	-44.590000	246.119995	-42.349998	856.00	0.29	0.03	9.50	8.50	3.75	5.75	0.50	0.00	0.50	0.00	0.00	0.00	0.00	0.00	0.00	0.00	0.00	0.00	-0.423340	-0.230469	2.119629	-27.580000	103.250000	-6.930000	295.00	-0.34	-0.04
1.74	0.00	0.00	0.00	0.00	0.00	0.00	0.50	0.00	12.75	17.25	12.00	6.75	2.00	19.50	6.25	3.75	-0.820312	0.076660	1.086426	-59.990002	284.829987	-51.520000	820.00	0.29	0.04	13.00	10.25	6.50	7.75	0.75	0.00	0.50	0.00	0.00	0.00	0.00	0.00	0.00	0.00	0.00	0.00	-0.180176	0.376465	1.220703	-37.170002	84.629997	-22.610001	402.00	-0.34	-0.03
1.75	0.00	0.00	0.00	0.00	0.00	0.00	0.50	0.00	12.25	16.25	11.00	6.00	1.75	19.00	6.00	3.00	-0.927246	0.089355	1.212891	-81.410004	324.239990	-63.980000	772.00	0.29	0.05	16.00	11.75	7.75	8.75	1.00	0.00	0.50	0.00	0.00	0.00	0.00	0.00	0.00	0.00	0.00	0.00	-0.141602	0.449219	0.825195	-38.290001	89.809998	-9.800000	475.00	-0.34	-0.02
1.76	0.00	0.00	0.00	0.00	0.00	0.00	0.50	0.00	11.50	14.75	10.00	4.50	1.00	18.50	5.50	2.25	-1.088867	0.144043	1.364746	-101.919998	359.239990	-80.150002	700.00	0.29	0.06	17.25	12.75	8.75	9.50	1.25	0.00	0.75	0.00	0.00	0.00	0.00	0.00	0.25	0.25	0.00	0.00	-0.185547	0.061523	1.073730	-30.309999	100.940002	7.210000	527.00	-0.33	-0.02
1.77	0.00	0.00	0.00	0.00	0.00	0.00	0.50	0.00	10.00	13.00	8.75	3.00	0.75	17.50	4.50	2.00	-1.415039	0.028320	1.648926	-122.570000	390.459991	-96.320000	611.00	0.29	0.07	18.50	13.25	9.75	10.00	1.75	0.75	0.75	0.00	0.00	0.00	0.00	0.00	0.00	0.00	0.00	0.00	-0.293945	-0.173828	1.390625	-19.389999	90.930000	4.480000	571.00	-0.34	-0.02
1.78	0.00	0.00	0.00	0.00	0.00	0.00	0.75	0.00	8.50	11.50	7.75	2.25	0.50	16.25	3.25	1.50	-1.902832	-0.190430	2.240234	-147.839996	401.940002	-114.800003	532.00	0.29	0.08	19.75	14.00	10.25	10.75	2.00	0.75	0.75	0.00	0.00	0.00	0.00	0.00	0.00	0.00	0.00	0.00	-0.237793	0.045898	1.003418	-46.340000	22.330000	-0.980000	607.00	-0.34	-0.02
1.79	0.00	0.00	0.00	0.00	0.00	0.00	0.75	0.00	7.50	10.25	6.25	1.50	0.50	14.25	1.75	1.00	-2.032227	0.288574	2.150391	-184.100006	408.239990	-127.680000	447.00	0.29	0.09	20.50	14.50	11.00	11.25	2.25	1.00	0.75	0.00	0.00	0.00	0.00	0.00	0.25	0.00	0.00	0.00	-0.164551	0.047852	0.964844	-59.709999	-2.100000	-1.260000	641.00	-0.33	-0.02
1.80	0.00	0.00	0.00	0.00	0.00	0.00	0.75	0.00	6.25	9.00	5.25	1.00	0.00	12.25	1.25	1.00	-2.074707	0.318359	2.203125	-181.020004	391.649994	-131.250000	375.00	0.29	0.10	21.50	15.00	11.75	11.50	2.50	1.25	0.75	0.00	0.00	0.00	0.00	0.00	0.25	0.00	0.00	0.25	-0.189453	0.049805	1.050781	-53.410000	-14.490000	-0.000000	674.00	-0.33	-0.02
1.81	0.00	0.00	0.00	0.00	0.00	0.00	1.00	0.00	5.75	8.25	4.25	1.00	0.00	10.25	0.75	0.75	-1.740234	0.585449	2.312012	-150.009995	368.339996	-131.039993	330.00	0.28	0.11	22.00	15.50	12.00	11.75	3.00	1.25	0.75	0.25	0.00	0.00	0.00	0.00	0.25	0.00	0.00	0.25	-0.199707	0.068359	1.019531	-28.770000	-20.090000	0.140000	698.00	-0.33	-0.03
1.82	0.00	0.00	0.00	0.00	0.00	0.00	1.00	0.00	4.75	7.00	3.50	0.50	0.00	8.00	0.75	0.75	-0.640625	0.881836	2.041016	-117.529999	332.920013	-144.199997	272.00	0.28	0.11	22.50	16.00	12.75	12.50	3.50	1.75	1.00	0.25	0.25	0.25	0.00	0.00	0.50	0.00	0.00	0.25	-0.158203	0.070801	0.985840	-13.650000	-18.969999	1.120000	748.00	-0.32	-0.03
1.83	0.00	0.00	0.00	0.00	0.00	0.00	1.00	0.00	3.00	5.25	2.50	0.75	0.00	4.50	0.50	0.50	-0.449219	0.795898	2.062500	-94.709999	292.320007	-154.559998	189.00	0.27	0.10	22.50	16.25	12.75	12.50	3.75	1.75	1.00	0.25	0.25	0.25	0.00	0.00	0.75	0.25	0.25	0.25	-0.162109	0.069824	0.998047	-8.190000	-16.590000	1.750000	759.00	-0.31	-0.03
1.84	0.00	0.25	0.00	0.00	0.00	0.00	1.00	0.00	1.75	4.00	1.75	0.50	0.00	2.00	0.25	0.00	0.208496	0.707520	2.072754	-93.029999	247.520004	-157.220001	125.00	0.24	0.09	23.75	16.50	13.00	12.75	4.25	2.50	1.00	0.25	0.00	0.25	0.00	0.00	0.75	0.00	0.00	0.50	-0.162109	0.067871	0.992188	-4.760000	-13.650000	2.030000	787.00	-0.31	-0.03
1.85	0.00	0.00	0.00	0.25	0.00	0.00	1.25	0.00	1.75	3.25	1.25	0.00	0.00	1.00	0.00	0.00	1.412109	1.216309	2.007324	-113.750000	180.389999	-161.279999	100.00	0.21	0.12	24.00	16.50	13.50	13.00	4.25	2.25	1.00	0.50	0.00	0.00	0.25	0.00	1.00	0.00	0.00	0.50	-0.146484	0.067871	0.978027	0.490000	-9.520000	3.220000	801.00	-0.31	-0.03
1.86	0.00	0.00	0.00	0.25	0.00	0.00	1.00	0.00	1.00	2.50	1.50	0.00	0.00	1.00	0.00	0.00	0.822754	1.939941	3.308594	-122.570000	42.209999	-89.669998	81.00	0.21	0.10	23.25	16.50	13.00	13.25	4.25	2.75	1.00	0.50	0.00	0.50	0.00	0.00	1.25	0.25	0.00	0.50	-0.146484	0.067871	0.978027	0.490000	-9.520000	3.220000	803.00	-0.31	-0.04
1.87	0.00	0.25	0.00	0.25	0.25	0.00	1.00	0.00	1.00	2.50	0.75	0.00	0.00	0.50	0.00	0.00	1.167969	2.069824	3.152832	-43.400002	-114.590004	-18.340000	74.00	0.17	0.11	23.25	16.25	13.25	13.25	4.50	3.25	1.00	0.50	0.25	0.50	0.25	0.00	1.50	0.50	0.25	0.50	-0.149902	0.070312	0.979004	2.100000	-9.940000	3.430000	825.00	-0.29	-0.04
1.88	0.00	0.00	0.00	0.25	0.00	0.00	1.00	0.00	0.50	1.75	1.00	0.00	0.00	0.50	0.00	0.00	0.561035	1.012207	1.079102	-39.480000	-181.369995	81.480003	57.00	0.18	0.10	22.50	16.00	13.00	13.25	5.00	3.75	1.00	0.50	0.00	0.50	0.25	0.00	2.00	0.50	0.00	0.50	-0.148926	0.076660	0.980957	2.590000	-10.010000	3.360000	821.00	-0.29	-0.04
1.89	0.00	0.00	0.00	0.00	0.00	0.00	1.00	0.00	0.75	1.25	0.75	0.00	0.00	0.25	0.00	0.00	0.578613	0.938477	1.168457	-37.939999	-171.220001	109.480003	48.00	0.00	0.00	21.75	15.25	12.50	13.00	4.75	3.75	1.00	1.00	0.25	0.75	0.00	0.25	1.75	0.50	0.25	0.75	-0.146973	0.074707	0.973633	1.960000	-9.170000	3.150000	811.00	-0.28	-0.04
1.90	0.00	0.25	0.00	0.50	0.00	0.00	1.25	0.00	0.25	1.25	0.75	0.00	0.00	0.25	0.00	0.00	0.672852	0.819824	1.405762	-12.390000	-182.139999	123.059998	53.00	0.11	0.08	20.00	14.50	12.25	12.75	5.00	3.75	1.00	1.00	0.25	0.75	0.50	0.25	2.50	0.75	0.25	1.00	-0.147949	0.072266	0.980957	1.400000	-7.910000	2.660000	798.00	-0.27	-0.05
1.91	0.00	0.00	0.00	0.25	0.00	0.00	1.00	0.00	0.25	1.00	0.50	0.00	0.00	0.00	0.00	0.00	0.591309	0.671387	1.645508	27.440001	-212.729996	125.300003	37.00	0.00	0.00	19.00	13.75	12.00	12.50	5.25	4.50	1.00	1.25	0.75	1.00	0.50	1.25	3.25	0.50	0.25	1.00	-0.147461	0.078125	0.980957	1.680000	-6.510000	2.380000	814.00	-0.25	-0.06
1.92	0.00	0.00	0.00	0.00	0.00	0.00	1.25	0.00	0.50	0.75	0.25	0.00	0.00	0.00	0.00	0.00	0.518066	0.384766	1.703125	64.959999	-250.740005	121.660004	36.00	0.00	0.00	17.50	12.25	11.50	12.00	5.00	4.25	1.00	1.25	0.75	1.25	0.75	1.00	3.25	1.00	0.75	1.00	-0.151367	0.083008	0.987305	1.820000	-5.320000	2.030000	780.00	-0.23	-0.06
1.93	0.00	0.00	0.00	0.00	0.00	0.00	1.00	0.00	0.00	0.75	0.75	0.00	0.00	0.00	0.00	0.00	0.375000	0.127930	1.672363	84.769997	-286.369995	113.470001	31.00	0.00	0.00	15.75	11.75	11.00	11.50	5.00	4.75	1.00	1.50	1.25	1.25	1.00	1.25	3.75	1.00	0.50	1.50	-0.145020	0.079590	0.984863	1.400000	-4.340000	1.750000	772.00	-0.22	-0.06
1.94	0.00	0.00	0.00	0.00	0.00	0.00	1.00	0.00	0.00	0.75	0.50	0.00	0.00	0.00	0.00	0.00	0.204102	-0.003906	1.611816	89.320000	-314.579987	100.660004	28.00	0.00	0.00	14.25	10.75	10.25	10.75	5.00	4.25	1.00	1.50	0.75	1.75	1.50	1.75	4.75	1.25	0.75	1.50	-0.142578	0.088867	0.977539	-0.070000	-3.570000	1.260000	748.00	-0.20	-0.07
1.95	0.00	0.00	0.00	0.00	0.00	0.00	1.00	0.00	0.00	0.50	0.25	0.00	0.00	0.00	0.00	0.00	0.044434	-0.046387	1.522949	91.209999	-335.860016	85.120003	23.00	0.00	0.00	12.00	9.75	9.75	10.50	5.00	3.75	1.00	1.50	1.50	2.25	1.75	1.75	4.75	1.75	1.00	1.75	-0.147949	0.083984	0.982422	-1.820000	-2.730000	0.700000	728.00	-0.17	-0.07
1.96	0.00	0.25	0.00	0.00	0.00	0.00	1.00	0.00	0.00	0.25	0.25	0.00	0.00	0.00	0.00	0.00	-0.089355	-0.086426	1.453613	96.040001	-350.630005	69.860001	23.00	0.00	0.00	10.75	9.00	9.00	9.75	5.00	3.50	1.00	1.50	1.75	2.25	2.50	2.25	4.75	1.75	1.00	2.00	-0.139160	0.084961	0.991211	-3.500000	-2.310000	-0.000000	706.00	-0.15	-0.07
1.97	0.00	0.00	0.00	0.25	0.00	0.00	1.00	0.00	0.00	0.00	0.00	0.00	0.00	0.00	0.00	0.00	-0.245605	-0.091309	1.417969	98.840004	-358.540009	57.049999	18.00	0.00	0.00	9.50	8.25	8.75	9.25	4.75	3.00	1.00	1.50	2.25	3.00	3.00	2.75	4.50	2.50	1.25	2.25	-0.145996	0.085938	0.981445	-4.690000	-1.610000	-0.840000	703.00	-0.12	-0.07
1.98	0.00	0.00	0.00	0.00	0.00	0.00	1.00	0.00	0.00	0.25	0.00	0.00	0.00	0.00	0.00	0.00	-0.385742	-0.072266	1.369629	94.290001	-360.360016	49.349998	18.00	0.00	0.00	8.50	7.50	8.25	8.75	4.25	2.50	1.00	1.50	2.75	3.25	4.25	3.25	5.25	3.00	1.25	2.25	-0.147461	0.074707	0.984863	-5.460000	-0.910000	-1.400000	702.00	-0.09	-0.07
1.99	0.00	0.00	0.00	0.25	0.00	0.00	1.00	0.00	0.00	0.00	0.00	0.00	0.00	0.00	0.00	0.00	-0.511230	-0.017090	1.343262	83.230003	-357.769989	46.060001	18.00	0.00	0.00	7.50	7.00	7.75	8.00	4.25	2.00	1.00	1.25	2.75	4.25	5.75	4.00	5.50	3.50	1.75	2.75	-0.149414	0.082520	0.985352	-6.090000	0.070000	-1.610000	712.00	-0.05	-0.07
2.00	0.00	0.00	0.00	0.00	0.00	0.00	1.00	0.00	0.00	0.00	0.00	0.00	0.00	0.00	0.00	0.00	-0.599609	0.071777	1.363281	74.550003	-351.750000	43.750000	15.00	0.00	0.00	6.25	6.00	7.25	7.50	4.00	1.50	1.00	1.50	4.00	5.75	7.75	4.00	5.50	3.75	2.00	3.00	-0.154297	0.076172	0.986816	-6.230000	1.680000	-1.680000	734.00	-0.01	-0.06
2.01	0.00	0.00	0.00	0.00	0.00	0.00	1.00	0.00	0.00	0.00	0.00	0.00	0.00	0.00	0.00	0.00	-0.707520	0.166016	1.427246	76.019997	-345.100006	40.459999	15.00	0.00	0.00	5.25	5.25	6.25	7.00	3.50	1.25	1.00	1.00	4.75	7.75	8.50	5.00	6.00	4.75	2.00	3.25	-0.153809	0.074707	0.992676	-5.810000	3.920000	-1.820000	747.00	0.02	-0.06
2.02	0.00	0.25	0.00	0.00	0.00	0.00	1.00	0.00	0.00	0.00	0.00	0.00	0.00	0.00	0.00	0.00	-0.839844	0.224121	1.443359	85.120003	-339.079987	37.730000	17.00	0.00	0.00	4.75	4.75	5.50	6.00	3.25	1.00	1.00	1.00	5.50	8.25	9.00	5.75	6.00	5.50	2.25	3.50	-0.152344	0.078613	0.989746	-5.320000	6.720000	-1.820000	751.00	0.05	-0.06
2.03	0.00	0.00	0.00	0.75	0.00	0.00	1.00	0.00	0.00	0.00	0.00	0.00	0.00	0.00	0.00	0.00	-1.127441	0.395508	1.451172	92.120003	-320.529999	43.049999	23.00	0.00	0.00	4.00	3.50	5.00	5.50	3.00	0.25	1.00	0.75	6.50	8.75	9.75	7.00	6.25	6.25	2.50	4.00	-0.155273	0.069824	0.980469	-4.900000	9.240000	-1.960000	760.00	0.09	-0.05
2.04	0.00	0.00	0.00	0.25	0.00	0.00	1.00	0.00	0.00	0.00	0.00	0.00	0.00	0.00	0.00	0.00	-1.127441	0.395508	1.451172	92.120003	-320.529999	43.049999	18.00	0.00	0.00	2.75	3.25	4.00	4.75	2.50	0.25	1.00	0.75	7.25	9.50	10.50	7.50	6.25	7.50	2.50	4.50	-0.164551	0.074219	0.988770	-4.690000	11.200000	-2.030000	764.00	0.12	-0.05
2.05	0.00	0.25	0.00	0.50	0.00	0.00	1.00	0.00	0.00	0.00	0.00	0.00	0.00	0.00	0.00	0.00	-1.295410	0.519043	1.413086	89.879997	-307.369995	56.209999	23.00	0.00	0.00	2.00	2.25	3.25	3.50	2.00	0.00	0.75	0.75	7.75	10.25	11.00	8.00	6.75	8.50	3.00	5.00	-0.153320	0.072754	0.979004	-3.920000	13.020000	-2.030000	758.00	0.16	-0.05
2.06	0.00	0.00	0.00	0.25	0.00	0.00	1.00	0.00	0.00	0.00	0.00	0.00	0.00	0.00	0.00	0.00	-1.515625	0.607422	1.338867	87.989998	-290.500000	75.879997	18.00	0.00	0.00	1.50	2.00	2.50	2.50	1.50	0.00	0.75	0.75	8.25	10.75	11.50	8.50	6.75	9.25	3.00	5.25	-0.213867	0.182129	1.000000	-0.910000	16.170000	-3.220000	756.00	0.18	-0.04
2.07	0.00	0.25	0.00	0.25	0.00	0.00	1.00	0.00	0.00	0.00	0.00	0.00	0.00	0.00	0.00	0.00	-2.102539	0.662598	1.425293	114.239998	-253.119995	121.029999	20.00	0.00	0.00	0.75	1.50	1.75	1.50	1.25	0.00	0.75	0.50	8.75	11.25	12.00	8.75	7.00	10.25	3.50	5.75	-0.144531	0.053223	0.988770	-0.210000	20.860001	-5.180000	756.00	0.21	-0.04
2.08	0.00	0.00	0.00	0.25	0.00	0.00	1.00	0.00	0.00	0.00	0.00	0.00	0.00	0.00	0.00	0.00	-2.102539	0.662598	1.425293	114.239998	-253.119995	121.029999	18.00	0.00	0.00	0.75	1.75	1.25	1.75	1.25	0.00	0.75	0.50	9.00	12.00	12.50	9.00	7.25	11.25	3.75	5.75	-0.170410	0.093262	0.987793	0.280000	25.900000	-7.140000	788.00	0.21	-0.04
2.09	0.00	0.00	0.00	0.00	0.00	0.00	1.00	0.00	0.00	0.00	0.00	0.00	0.00	0.00	0.00	0.00	-2.642090	0.186035	1.340332	140.910004	-228.759995	157.779999	15.00	0.00	0.00	0.50	0.75	1.00	1.50	0.75	0.00	0.75	0.50	9.50	12.50	12.75	9.25	7.00	12.50	4.75	6.00	-0.176758	0.087402	0.987793	0.210000	31.780001	-9.730000	802.00	0.23	-0.04
2.10	0.00	0.00	0.00	0.00	0.00	0.00	1.00	0.00	0.00	0.00	0.00	0.00	0.00	0.00	0.00	0.00	-2.911133	-0.103027	1.055664	137.339996	-211.820007	168.839996	15.00	0.00	0.00	0.00	1.00	0.50	1.00	0.50	0.00	0.50	0.50	10.00	13.00	13.25	9.50	7.50	13.50	5.25	6.25	-0.193848	0.099121	0.985840	0.070000	38.220001	-11.900000	821.00	0.25	-0.04
2.11	0.00	0.00	0.00	0.00	0.00	0.00	1.00	0.00	0.00	0.00	0.00	0.00	0.00	0.00	0.00	0.00	-3.108887	-0.486816	0.805176	130.059998	-186.339996	169.960007	15.00	0.00	0.00	0.00	0.75	0.75	1.00	0.25	0.00	0.50	0.25	10.25	13.50	13.75	9.75	7.50	14.50	6.00	6.50	-0.205078	0.054688	1.007812	-3.500000	45.290001	-13.160000	849.00	0.25	-0.03
2.12	0.00	0.00	0.00	0.00	0.00	0.00	1.00	0.00	0.00	0.00	0.00	0.00	0.00	0.00	0.00	0.00	-3.234863	-0.850586	0.654297	121.379997	-157.570007	155.750000	15.00	0.00	0.00	0.00	0.50	0.50	0.25	0.00	0.00	0.25	0.50	10.50	14.00	14.00	9.75	7.50	15.50	6.50	6.75	-0.194336	0.060059	1.014648	-4.620000	69.650002	-10.360000	859.00	0.26	-0.03
2.13	0.00	0.00	0.00	0.00	0.00	0.00	1.00	0.00	0.00	0.00	0.00	0.00	0.00	0.00	0.00	0.00	-3.334473	-1.160645	0.614746	110.599998	-131.110001	125.160004	15.00	0.00	0.00	0.25	0.50	0.75	0.75	0.00	0.00	0.25	0.50	10.75	14.25	14.25	10.00	7.25	16.50	6.75	6.75	-0.228516	0.067871	1.045410	-10.080000	91.629997	-7.980000	890.00	0.26	-0.03
2.14	0.00	0.00	0.00	0.00	0.00	0.00	1.00	0.00	0.00	0.00	0.00	0.00	0.00	0.00	0.00	0.00	-4.197754	-2.099121	0.405762	48.160000	-84.000000	86.730003	15.00	0.00	0.00	0.00	0.00	0.25	0.50	0.00	0.00	0.25	0.25	11.00	14.50	14.50	10.00	7.00	17.25	7.00	7.00	-0.233398	0.078125	1.052734	-13.230000	108.220001	-8.470000	887.00	0.27	-0.02
2.15	0.00	0.25	0.00	0.25	0.00	0.00	1.00	0.00	0.00	0.00	0.00	0.00	0.00	0.00	0.00	0.00	-4.149902	-1.864258	-0.456543	-28.490000	-43.470001	44.099998	20.00	0.00	0.00	0.00	0.00	0.25	0.50	0.00	0.00	0.25	0.25	11.25	14.75	14.50	10.25	7.00	18.00	7.50	7.00	-0.270996	0.074707	1.052246	-14.140000	132.300003	-9.380000	908.00	0.27	-0.02
2.16	0.00	0.00	0.00	0.00	0.00	0.00	1.00	0.00	0.00	0.00	0.00	0.00	0.00	0.00	0.00	0.00	-4.168457	-1.594238	-0.164062	-78.540001	0.840000	3.570000	15.00	0.00	0.00	0.00	0.25	0.25	0.25	0.00	0.00	0.25	0.50	11.25	15.00	14.50	10.00	6.75	18.75	7.50	7.25	-0.274902	0.070801	1.104004	-14.210000	152.740005	-11.200000	916.00	0.27	-0.02
2.17	0.00	0.00	0.00	0.25	0.00	0.00	1.00	0.00	0.00	0.00	0.00	0.00	0.00	0.00	0.00	0.00	-4.261230	-1.580566	-0.383301	-103.879997	41.439999	-26.530001	18.00	0.00	0.00	0.00	0.25	0.25	0.25	0.00	0.00	0.00	0.25	11.50	15.25	14.50	9.75	6.50	18.75	7.75	7.00	-0.324219	0.080566	1.113770	-13.370000	169.330002	-11.060000	911.00	0.28	-0.02
2.18	0.50	0.25	0.00	0.50	0.00	0.00	1.00	0.00	0.00	0.00	0.00	0.00	0.00	0.00	0.00	0.00	-4.304199	-1.522461	-0.323242	-153.789993	83.860001	-41.160000	28.00	0.00	0.00	0.00	0.00	0.00	0.00	0.00	0.00	0.00	0.25	11.75	15.50	14.25	9.75	6.00	19.25	7.75	7.25	-0.337402	0.059082	1.099121	-10.710000	186.479996	-11.760000	908.00	0.28	-0.01
2.19	0.25	0.75	0.50	0.75	0.00	0.00	1.00	0.00	0.00	0.00	0.00	0.00	0.00	0.00	0.00	0.00	-2.453125	-0.941406	-0.155273	-219.940002	137.410004	-48.790001	38.00	0.00	0.00	0.00	0.25	0.00	0.00	0.00	0.00	0.00	0.25	11.75	15.50	14.00	9.50	5.75	19.50	8.00	7.00	-0.381348	0.085449	1.126465	-9.520000	205.729996	-12.950000	906.00	0.28	-0.01
2.20	1.50	2.25	0.25	1.25	0.00	0.00	1.00	0.00	0.00	0.00	0.00	0.00	0.00	0.00	0.00	0.00	-0.588379	0.220215	2.343750	-129.009995	202.369995	-29.680000	68.00	-0.27	-0.01	0.00	0.25	0.00	0.00	0.00	0.00	0.00	0.00	11.75	15.75	13.75	9.25	5.50	19.25	7.75	7.00	-0.399902	0.079590	1.099609	-10.850000	229.949997	-15.260000	893.00	0.28	-0.01
2.21	6.00	5.50	2.00	3.50	0.50	0.00	1.00	0.00	0.00	0.00	0.00	0.00	0.00	0.00	0.00	0.00	-0.344238	-0.600098	2.368164	-26.950001	157.850006	-9.660000	194.00	-0.32	-0.02	0.00	0.00	0.00	0.00	0.00	0.00	0.00	0.25	11.75	15.75	13.50	9.00	5.25	19.00	8.00	6.75	-0.434082	0.104980	1.096680	-12.250000	257.110016	-19.460001	886.00	0.28	-0.00
2.22	8.50	8.50	3.50	5.75	0.75	0.00	1.25	0.00	0.00	0.00	0.00	0.00	0.00	0.00	0.00	0.00	-0.300781	0.092285	0.931641	31.710001	111.930000	-17.500000	296.00	-0.33	-0.03	0.00	0.00	0.00	0.00	0.00	0.00	0.00	0.00	11.25	15.75	13.25	8.50	4.75	18.75	7.75	6.75	-0.520508	0.074707	1.270508	-12.110000	285.040009	-24.710001	859.00	0.29	-0.00
2.23	10.75	11.00	6.00	7.00	1.00	0.75	1.25	0.00	0.00	0.00	0.00	0.00	0.00	0.00	0.00	0.00	-0.113281	0.791504	0.399414	35.700001	144.690002	-18.200001	394.00	-0.32	-0.03	0.00	0.00	0.00	0.00	0.00	0.00	0.00	0.00	11.00	15.25	13.00	8.00	3.75	18.25	7.75	6.25	-0.537109	0.062500	1.249512	-19.110001	321.579987	-28.770000	827.00	0.29	0.01
2.24	12.50	12.25	7.00	8.50	1.25	1.00	1.25	0.00	0.00	0.00	0.00	0.00	0.25	0.00	0.00	0.00	-0.398438	0.129883	1.436523	-107.870003	95.690002	-5.460000	459.00	-0.32	-0.04	0.00	0.00	0.00	0.00	0.00	0.00	0.00	0.00	10.00	14.75	12.25	7.50	3.25	17.75	7.50	5.75	-0.699219	0.119629	1.385254	-42.840000	416.360016	-38.290001	781.00	0.29	0.01
2.25	13.50	12.25	7.50	9.00	1.50	1.25	1.50	0.00	0.00	0.25	0.25	0.25	0.50	0.00	0.00	0.00	-0.353027	-0.078613	1.516602	-165.270004	37.380001	-8.820000	500.00	-0.31	-0.04	0.00	0.00	0.00	0.00	0.00	0.00	0.00	0.00	9.00	13.75	11.25	5.75	2.25	16.75	7.00	5.00	-0.699219	0.119629	1.385254	-42.840000	416.360016	-38.290001	702.00	0.29	0.02
2.26	13.25	12.00	8.00	9.50	2.00	2.00	1.75	0.25	0.00	0.25	0.50	0.50	0.75	0.25	0.00	0.00	-0.330566	-0.007812	1.272949	-119.980003	-28.420000	-10.920000	537.00	-0.29	-0.04	0.00	0.00	0.00	0.00	0.00	0.00	0.00	0.00	7.50	12.00	9.75	4.25	1.50	16.00	6.25	3.75	-1.195312	0.229004	1.638184	-62.790001	458.920013	-46.410000	605.00	0.30	0.03
2.27	13.50	12.25	8.75	10.25	2.25	2.25	1.75	0.25	0.75	0.75	0.50	0.75	1.50	0.50	0.00	0.25	-0.298828	0.034668	0.968750	-48.930000	-44.869999	-6.650000	591.00	-0.26	-0.04	0.00	0.00	0.00	0.00	0.00	0.00	0.00	0.00	6.00	10.50	8.75	3.00	1.25	14.00	5.50	2.75	-1.871582	0.191895	2.758301	-59.430000	495.179993	-73.010002	514.00	0.30	0.03
2.28	13.25	12.00	9.25	11.00	2.75	3.00	2.00	0.50	1.00	1.00	1.00	1.00	1.75	0.50	0.25	0.25	-0.237305	0.064453	0.965820	-19.460001	-33.880001	-2.590000	640.00	-0.24	-0.05	0.00	0.00	0.00	0.00	0.00	0.00	0.00	0.00	4.75	9.25	7.50	1.75	1.00	12.00	4.00	1.75	-2.345703	0.416992	2.947754	-44.029999	490.489990	-73.500000	418.00	0.30	0.04
2.29	13.75	12.75	9.75	11.50	3.00	3.50	2.00	0.50	1.25	1.00	1.50	1.50	2.00	1.50	0.50	0.50	-0.226074	0.043945	0.974609	-11.620000	-22.049999	-2.030000	700.00	-0.22	-0.05	0.00	0.25	0.00	0.00	0.00	0.00	0.25	0.00	3.50	8.00	5.25	1.25	0.50	9.50	2.50	1.25	-2.134277	0.577148	3.113281	-2.240000	470.820007	-58.590000	321.00	0.29	0.05
2.30	13.50	13.00	10.00	11.75	3.75	3.75	2.25	0.75	1.75	1.25	1.75	1.75	2.50	1.50	0.50	0.75	-0.202148	0.037109	0.969238	-6.090000	-7.770000	-1.190000	744.00	-0.20	-0.05	0.00	0.25	0.00	0.00	0.00	0.00	0.25	0.00	2.75	7.25	3.75	1.00	0.50	7.00	1.75	0.75	-1.202637	1.010742	3.157227	47.810001	429.799988	-81.059998	254.00	0.28	0.05
2.31	13.00	12.75	10.00	12.00	4.25	4.25	2.25	1.00	1.75	1.75	2.25	2.50	3.00	1.75	0.50	0.75	-0.193359	0.038574	0.968750	-2.380000	-2.520000	-0.420000	779.00	-0.19	-0.06	0.00	0.25	0.00	0.00	0.00	0.00	0.25	0.00	2.00	5.25	3.25	1.00	0.50	3.00	0.75	0.25	-0.279297	1.094238	2.906738	104.230003	381.290009	-101.220001	171.00	0.26	0.03
2.32	12.50	12.25	9.75	11.75	4.50	4.50	2.25	1.00	1.75	1.75	3.00	3.00	3.25	2.25	0.50	1.00	-0.188965	0.038574	0.958984	1.190000	2.030000	0.490000	790.00	-0.17	-0.06	0.00	0.25	0.00	0.00	0.00	0.00	0.50	0.00	1.25	3.75	2.25	0.75	0.25	1.25	0.25	0.00	2.604492	0.928223	2.657715	146.580002	307.790009	-121.590004	112.00	0.23	0.04
2.33	11.50	11.25	9.25	11.50	4.50	4.50	2.50	1.50	2.00	2.25	3.50	3.75	4.00	2.50	0.50	1.00	-0.190918	0.044434	0.966797	4.830000	7.000000	1.330000	804.00	-0.15	-0.07	0.00	0.25	0.00	0.00	0.00	0.00	0.50	0.00	1.25	2.75	2.25	0.00	0.00	0.75	0.25	0.00	4.309570	1.671875	5.258301	125.930000	103.669998	-135.309998	87.00	0.23	0.07
2.34	10.25	10.25	9.00	11.00	4.25	4.75	2.50	1.50	2.50	2.50	4.00	4.50	5.00	2.75	0.75	1.25	-0.195801	0.049805	0.965820	7.140000	11.270000	1.680000	810.00	-0.12	-0.07	0.00	0.00	0.00	0.00	0.00	0.00	0.50	0.00	0.25	3.00	1.25	0.00	0.00	0.50	0.00	0.00	1.054688	1.116699	4.067871	80.150002	-61.880001	-99.260002	59.00	0.23	0.07
2.35	9.00	9.50	8.50	9.50	4.25	4.50	2.50	1.75	2.50	3.00	5.25	5.50	5.75	3.00	0.75	1.25	-0.191895	0.066895	0.960938	7.770000	14.910000	1.400000	807.00	-0.09	-0.08	0.00	0.25	0.00	0.00	0.00	0.00	0.50	0.00	0.50	2.25	1.00	0.25	0.00	0.25	0.00	0.00	1.953613	0.322754	1.720215	-0.700000	-124.879997	-57.119999	55.00	0.20	0.06
2.36	8.00	8.75	7.50	9.25	3.75	4.00	2.50	1.75	3.25	3.50	6.25	6.25	6.00	3.25	1.00	1.75	-0.196777	0.061035	0.956543	7.490000	18.059999	0.350000	808.00	-0.06	-0.08	0.00	0.00	0.00	0.00	0.00	0.00	0.50	0.00	0.25	2.00	0.75	0.00	0.00	0.25	0.00	0.00	1.205566	0.729492	0.999023	-44.799999	-115.500000	-30.520000	42.00	0.00	0.00
2.37	7.00	8.00	7.00	8.25	3.50	3.75	2.50	1.75	4.00	4.25	7.50	7.00	6.50	3.75	1.00	2.00	-0.196289	0.072266	0.965820	6.650000	20.510000	-0.350000	817.00	-0.03	-0.08	0.00	0.00	0.00	0.00	0.00	0.00	0.50	0.00	0.00	1.75	0.75	0.00	0.00	0.25	0.00	0.00	1.225586	1.172363	1.602539	-14.700000	-107.730003	-11.410000	36.00	0.00	0.00
2.38	6.00	6.75	6.00	7.00	3.25	3.00	2.25	1.75	4.25	5.25	8.00	7.75	6.75	4.25	1.25	2.00	-0.201172	0.108887	0.969727	5.880000	22.820000	-1.120000	792.00	-0.00	-0.08	0.00	0.25	0.00	0.00	0.00	0.00	0.50	0.00	0.25	2.00	0.75	0.00	0.00	0.00	0.00	0.00	1.453125	0.763184	1.720703	54.389999	-140.070007	-0.770000	42.00	0.00	0.00
2.39	5.25	5.75	5.00	6.25	2.50	2.25	2.25	1.50	5.00	6.50	8.50	8.00	7.00	4.50	1.25	2.00	-0.193359	0.044434	0.957031	5.600000	25.690001	-1.750000	770.00	0.03	-0.07	0.25	0.25	0.00	0.00	0.00	0.00	0.50	0.00	0.00	1.75	0.00	0.00	0.00	0.00	0.00	0.00	1.188477	0.216309	1.805664	93.169998	-189.490005	2.590000	31.00	0.00	0.00
2.40	3.75	5.25	4.00	5.25	2.00	1.50	2.25	1.25	5.25	7.50	9.00	8.50	7.00	5.00	1.50	2.25	-0.204590	0.068848	0.967773	5.390000	29.960001	-2.520000	743.00	0.06	-0.07	0.00	0.25	0.00	0.00	0.00	0.00	0.50	0.00	0.00	1.25	0.25	0.00	0.00	0.00	0.00	0.00	1.017578	-0.020020	1.784668	87.709999	-232.680008	4.410000	25.00	0.00	0.00
2.41	3.00	3.75	3.50	4.75	1.75	0.75	2.25	1.00	5.50	8.00	9.50	8.50	7.25	5.00	1.50	2.50	-0.209473	0.064453	0.959473	5.390000	33.880001	-3.360000	713.00	0.09	-0.07	0.00	0.25	0.00	0.00	0.00	0.00	0.50	0.00	0.00	0.75	0.25	0.00	0.00	0.00	0.00	0.00	0.836914	0.006348	1.793945	69.510002	-271.320007	7.910000	20.00	0.00	0.00
2.42	2.00	3.00	1.75	3.75	1.25	0.50	2.00	0.75	6.25	8.25	10.00	9.00	7.00	5.50	1.75	2.75	-0.213867	0.068848	0.960449	4.830000	37.310001	-3.920000	678.00	0.13	-0.07	0.00	0.75	0.00	0.00	0.00	0.00	0.50	0.00	0.00	0.75	0.25	0.00	0.00	0.00	0.00	0.00	0.645996	0.067871	1.764648	64.190002	-307.790009	12.670000	25.00	0.00	0.00
2.43	1.25	1.50	1.00	2.50	1.25	0.25	2.00	0.50	7.25	8.75	10.50	9.25	7.25	6.00	1.75	2.50	-0.216309	0.061523	0.966309	3.850000	39.480000	-4.060000	659.00	0.17	-0.06	0.00	0.25	0.00	0.00	0.00	0.00	0.50	0.00	0.00	0.75	0.25	0.00	0.00	0.00	0.00	0.00	0.445801	0.037109	1.689941	71.540001	-338.589996	16.730000	20.00	0.00	0.00
2.44	1.00	1.75	0.25	0.25	0.75	0.00	2.00	0.50	7.50	9.25	11.00	9.75	7.25	6.25	1.75	3.00	-0.241699	0.062500	0.955078	2.520000	42.070000	-4.270000	642.00	0.20	-0.05	0.00	0.25	0.00	0.00	0.00	0.00	0.50	0.00	0.00	0.50	0.00	0.00	0.00	0.00	0.00	0.00	0.259277	-0.011719	1.631348	82.669998	-361.829987	18.690001	15.00	0.00	0.00
2.45	0.50	1.25	0.50	1.00	0.50	0.00	2.00	0.25	7.50	9.50	11.25	10.00	7.50	7.25	2.00	3.50	-0.221680	0.065918	0.936523	0.070000	42.070000	-4.550000	660.00	0.21	-0.05	0.00	0.00	0.00	0.00	0.00	0.00	0.50	0.00	0.00	0.50	0.00	0.00	0.00	0.00	0.00	0.00	-0.105957	-0.038086	1.619629	93.449997	-393.260010	20.370001	13.00	0.00	0.00
2.46	0.25	1.00	0.00	0.50	0.25	0.00	2.00	0.00	8.00	10.00	11.50	10.25	7.00	8.00	2.00	3.25	-0.149902	0.068359	0.839844	-3.150000	39.410000	-4.620000	655.00	0.23	-0.04	0.00	0.00	0.00	0.00	0.00	0.00	0.50	0.00	0.00	0.50	0.00	0.00	0.00	0.00	0.00	0.00	-0.258789	-0.002441	1.599121	93.449997	-393.260010	20.370001	13.00	0.00	0.00
2.47	0.25	0.50	0.75	1.50	0.25	0.00	1.75	0.00	8.25	10.25	12.00	10.50	7.25	8.25	2.25	3.50	-0.206543	0.065430	0.964355	-9.380000	41.090000	-3.850000	688.00	0.22	-0.05	0.00	0.25	0.00	0.00	0.00	0.00	0.50	0.00	0.00	0.50	0.00	0.00	0.00	0.00	0.00	0.00	-0.419434	0.059570	1.631836	99.400002	-400.890015	20.650000	15.00	0.00	0.00
2.48	0.00	0.50	0.00	0.75	0.00	0.00	1.75	0.00	8.25	10.50	12.25	10.50	7.00	9.00	2.00	3.50	-0.250488	0.089355	0.947754	-1.190000	57.330002	-5.250000	673.00	0.24	-0.04	0.00	0.25	0.00	0.00	0.00	0.00	0.50	0.00	0.00	0.75	0.00	0.00	0.00	0.00	0.00	0.00	-0.590332	0.147461	1.785645	110.809998	-395.640015	20.860001	18.00	0.00	0.00
2.49	0.00	0.00	0.25	0.50	0.00	0.00	1.50	0.00	8.75	11.00	12.50	11.00	6.75	9.75	2.25	3.50	-0.263184	0.060547	0.938965	0.700000	62.860001	-5.950000	691.00	0.25	-0.04	0.00	0.50	0.00	0.00	0.00	0.00	0.50	0.00	0.00	0.25	0.00	0.00	0.00	0.00	0.00	0.00	-0.803711	0.207031	1.846191	122.709999	-387.589996	24.639999	15.00	0.00	0.00
2.50	0.00	0.00	0.00	0.25	0.00	0.00	1.50	0.00	9.00	11.50	12.50	11.00	6.75	10.25	2.50	3.50	-0.271973	0.061035	0.955078	-0.490000	65.169998	-7.420000	701.00	0.25	-0.03	0.00	0.25	0.00	0.00	0.00	0.00	0.50	0.00	0.00	0.00	0.00	0.00	0.00	0.00	0.00	0.00	-1.051270	0.257812	1.924316	132.160004	-377.579987	32.830002	10.00	0.00	0.00
2.51	0.00	0.00	0.00	0.25	0.00	0.00	1.50	0.00	9.00	11.75	13.00	11.25	6.75	11.25	3.00	4.00	-0.284180	0.049316	0.926270	-3.360000	69.440002	-8.750000	728.00	0.26	-0.03	0.00	0.25	0.00	0.00	0.00	0.00	0.50	0.00	0.00	0.25	0.00	0.00	0.00	0.00	0.00	0.00	-1.323242	0.270508	1.899902	138.180008	-365.119995	48.090000	12.00	0.00	0.00
2.52	0.00	0.00	0.00	0.25	0.00	0.00	1.50	0.00	9.25	12.25	13.25	11.25	6.50	11.75	3.00	3.75	-0.315918	0.053711	0.949707	-3.780000	68.949997	-9.170000	740.00	0.26	-0.03	0.00	0.50	0.00	0.00	0.00	0.00	0.50	0.00	0.00	0.00	0.00	0.00	0.00	0.00	0.00	0.00	-1.649414	0.197754	1.715332	134.119995	-346.850006	71.820000	12.00	0.00	0.00
2.53	0.00	0.25	0.00	0.00	0.00	0.00	1.25	0.00	9.75	12.75	13.50	11.75	6.75	12.50	3.25	4.00	-0.317871	0.044922	0.925781	-3.990000	68.739998	-9.170000	768.00	0.26	-0.03	0.00	0.25	0.00	0.00	0.00	0.00	0.50	0.00	0.00	0.00	0.00	0.00	0.00	0.00	0.00	0.00	-1.877930	0.127441	1.516602	114.940002	-319.549988	100.309998	10.00	0.00	0.00
2.54	0.00	0.00	0.00	0.00	0.00	0.00	1.25	0.00	10.00	13.25	14.00	12.00	6.75	13.25	3.50	4.00	-0.326660	0.047363	0.930664	-5.110000	70.910004	-9.520000	791.00	0.26	-0.03	0.00	0.00	0.00	0.00	0.00	0.00	0.50	0.00	0.00	0.25	0.00	0.00	0.00	0.00	0.00	0.00	-2.210938	0.091309	1.451172	100.870003	-287.489990	122.570000	10.00	0.00	0.00
2.55	0.00	0.00	0.00	0.00	0.00	0.00	1.25	0.00	10.00	13.50	14.00	12.25	6.75	14.00	4.00	4.50	-0.339355	0.041992	0.937988	-5.600000	74.059998	-9.870000	811.00	0.26	-0.03	0.00	0.00	0.00	0.00	0.00	0.00	0.50	0.00	0.00	0.00	0.00	0.00	0.00	0.00	0.00	0.00	-2.545410	-0.177246	1.465332	111.930000	-259.630005	127.959999	8.00	0.00	0.00
2.56	0.00	0.00	0.00	0.00	0.00	0.00	1.00	0.00	10.50	14.00	14.25	12.50	6.75	14.75	4.00	4.50	-0.351074	0.044922	0.952637	-6.090000	79.309998	-9.380000	830.00	0.27	-0.03	0.00	0.00	0.00	0.00	0.00	0.00	0.50	0.00	0.00	0.00	0.00	0.00	0.00	0.00	0.00	0.00	-2.787109	-0.742676	1.503418	132.440002	-241.779999	112.419998	8.00	0.00	0.00
2.57	0.00	0.00	0.00	0.00	0.00	0.00	1.00	0.00	10.50	14.50	14.50	12.50	7.00	15.25	4.75	4.50	-0.371582	0.040527	0.974609	-7.000000	88.760002	-8.540000	852.00	0.27	-0.03	0.00	0.00	0.00	0.00	0.00	0.00	0.50	0.00	0.00	0.25	0.00	0.00	0.00	0.00	0.00	0.00	-3.022949	-1.192383	1.475098	127.400002	-232.190002	84.070000	10.00	0.00	0.00
2.58	0.00	0.00	0.00	0.00	0.00	0.00	1.00	0.00	10.75	15.00	14.75	12.50	6.75	16.00	5.00	5.00	-0.380371	0.055664	0.989746	-8.890000	101.500000	-8.470000	873.00	0.27	-0.02	0.00	0.00	0.00	0.00	0.00	0.00	0.50	0.00	0.00	0.00	0.00	0.00	0.00	0.00	0.00	0.00	-3.197266	-1.427734	1.229492	95.269997	-225.820007	53.270000	8.00	0.00	0.00
2.59	0.00	0.00	0.00	0.00	0.00	0.00	1.00	0.00	11.00	15.50	14.75	12.25	6.75	16.75	5.50	4.75	-0.403320	0.064453	1.010254	-11.970000	117.040001	-9.660000	889.00	0.27	-0.02	0.00	0.25	0.00	0.00	0.00	0.00	0.50	0.00	0.00	0.00	0.00	0.00	0.00	0.00	0.00	0.00	-3.422852	-1.330078	0.775879	54.529999	-214.410004	24.430000	10.00	0.00	0.00
2.60	0.00	0.00	0.00	0.00	0.00	0.00	0.75	0.00	11.50	16.00	14.50	12.00	6.50	17.25	5.75	5.25	-0.427246	0.060547	1.018555	-16.520000	134.889999	-12.250000	899.00	0.27	-0.02	0.00	1.00	0.00	0.25	0.00	0.00	0.50	0.00	0.00	0.00	0.00	0.00	0.00	0.00	0.00	0.00	-3.680176	-0.990723	0.259277	22.469999	-191.240005	0.630000	20.00	0.00	0.00
2.61	0.00	0.00	0.00	0.00	0.00	0.00	0.75	0.00	11.75	16.25	14.50	11.75	6.00	18.00	6.25	5.00	-0.461426	0.063477	1.027344	-22.540001	154.979996	-15.120000	908.00	0.27	-0.01	0.00	0.25	0.00	0.00	0.00	0.00	0.50	0.00	0.00	0.00	0.00	0.00	0.00	0.00	0.00	0.00	-3.709473	-0.590332	-0.133301	14.490000	-156.169998	-10.500000	10.00	0.00	0.00
2.62	0.00	0.00	0.25	0.00	0.00	0.00	0.75	0.00	12.00	16.50	14.00	11.00	5.50	18.50	6.25	5.25	-0.497559	0.060547	1.024902	-26.250000	175.770004	-18.129999	905.00	0.28	-0.00	0.00	0.50	0.00	0.00	0.00	0.00	0.50	0.00	0.00	0.00	0.00	0.00	0.00	0.00	0.00	0.00	-3.629883	-0.482910	-0.225098	9.240000	-114.379997	-8.260000	12.00	0.00	0.00
2.63	0.00	0.00	0.00	0.00	0.00	0.00	0.50	0.00	12.00	17.00	13.75	10.25	5.00	19.00	6.25	5.00	-0.516113	0.051270	1.078125	-30.590000	198.380005	-21.559999	892.00	0.28	0.00	0.25	0.50	0.00	0.00	0.00	0.00	0.50	0.00	0.00	0.00	0.00	0.00	0.00	0.00	0.00	0.00	-4.340332	-1.232910	0.014160	-47.950001	-36.400002	9.730000	15.00	0.00	0.00
2.64	0.00	0.00	0.00	0.00	0.00	0.00	0.50	0.00	12.25	17.00	13.25	9.25	4.25	19.25	6.75	5.00	-0.557617	0.071289	1.068359	-37.029999	224.699997	-25.760000	880.00	0.28	0.01	0.50	0.75	0.75	0.50	0.00	0.00	0.25	0.00	0.00	0.00	0.00	0.00	0.00	0.00	0.00	0.00	-4.609375	-0.614258	-0.723633	-118.440002	19.389999	28.700001	30.00	0.00	0.00
2.65	0.00	0.00	0.00	0.00	0.00	0.00	0.25	0.00	12.25	17.25	12.50	8.50	3.25	19.50	7.00	5.00	-0.617188	0.080078	1.146973	-43.959999	257.179993	-32.130001	859.00	0.29	0.02	1.25	1.75	1.00	1.25	0.00	0.00	0.25	0.00	0.00	0.00	0.00	0.00	0.00	0.00	0.00	0.00	-5.119629	-0.447754	-0.752930	-139.509995	72.660004	57.189999	58.00	-0.32	-0.04
2.66	0.00	0.00	0.00	0.00	0.00	0.00	0.25	0.00	12.50	17.00	11.50	7.25	2.50	19.25	6.75	4.50	-0.672852	0.105957	1.176270	-52.709999	294.350006	-41.790001	822.00	0.29	0.03	6.00	5.50	2.00	4.25	0.25	0.00	0.50	0.00	0.00	0.00	0.00	0.00	0.00	0.00	0.00	0.00	-0.912109	-1.648438	4.004883	-90.860001	277.410004	70.559998	192.00	-0.34	-0.04
2.67	0.00	0.00	0.00	0.00	0.00	0.00	0.25	0.00	12.50	16.50	10.50	6.00	2.00	18.75	6.75	4.00	-0.726074	0.103027	1.192871	-67.059998	337.190002	-54.950001	782.00	0.29	0.04	12.75	10.50	6.25	8.00	0.25	0.00	0.50	0.00	0.00	0.00	0.00	0.00	0.00	0.00	0.00	0.00	-0.406738	-1.233887	3.276855	-78.050003	197.399994	-5.810000	396.00	-0.35	-0.03
2.68	0.00	0.00	0.00	0.00	0.00	0.00	0.25	0.00	12.25	15.75	9.50	4.50	1.25	18.00	6.25	3.25	-0.772461	0.076172	1.364746	-90.860001	391.649994	-70.910004	722.00	0.29	0.06	17.00	13.00	8.25	9.25	1.00	0.25	0.50	0.00	0.00	0.00	0.00	0.00	0.00	0.00	0.00	0.00	-0.319824	0.679688	0.932129	-59.990002	135.589996	-57.959999	510.00	-0.34	-0.03
2.69	0.00	0.00	0.00	0.00	0.00	0.00	0.25	0.00	11.25	14.25	8.25	3.00	1.00	17.50	5.75	2.25	-0.940918	0.127930	1.498047	-122.150002	451.640015	-87.360001	648.00	0.30	0.07	19.50	13.50	9.75	10.00	1.50	0.50	0.75	0.00	0.00	0.00	0.00	0.00	0.00	0.00	0.00	0.00	-0.145020	1.236816	0.787109	-51.380001	158.339996	-19.740000	578.00	-0.34	-0.02
2.70	0.00	0.00	0.00	0.00	0.00	0.00	0.25	0.00	9.50	12.25	7.25	1.75	0.25	16.25	4.75	1.75	-1.319824	0.115723	1.972168	-150.289993	503.860016	-106.050003	550.00	0.30	0.08	20.25	14.00	11.00	10.75	2.00	1.25	0.75	0.25	0.00	0.00	0.00	0.00	0.00	0.00	0.00	0.00	-1.091309	-0.610352	5.683594	-169.610001	146.509995	7.840000	630.00	-0.33	-0.02
2.71	0.00	0.00	0.00	0.00	0.00	0.00	0.50	0.00	7.50	10.50	5.75	1.25	0.00	14.50	3.00	1.25	-2.663574	0.052246	3.205078	-204.680008	549.429993	-143.009995	450.00	0.30	0.09	21.00	13.50	11.75	11.00	2.75	1.00	0.75	0.25	0.00	0.25	0.00	0.00	0.50	0.25	0.00	0.00	-0.568359	-0.296875	1.514160	-138.039993	14.980000	-1.750000	659.00	-0.32	-0.02
2.72	0.00	0.00	0.00	0.00	0.00	0.00	0.75	0.00	6.25	9.00	4.00	1.00	0.00	12.50	2.00	0.75	-2.754395	0.564453	3.292480	-195.930008	532.489990	-150.220001	371.00	0.30	0.11	21.50	13.75	12.75	11.25	3.50	1.50	0.75	0.00	0.00	0.75	0.00	0.00	0.50	0.00	0.00	0.00	-0.205078	0.082031	1.031250	-54.040001	-34.509998	-5.180000	693.00	-0.32	-0.02
2.73	0.00	0.00	0.00	0.00	0.00	0.00	0.75	0.00	5.25	8.00	3.00	1.00	0.00	10.00	1.00	0.50	-1.716309	1.306641	3.786133	-127.190002	483.350006	-152.180008	304.00	0.29	0.11	22.50	14.00	13.50	12.00	5.25	2.00	1.00	0.25	0.25	0.75	0.25	0.00	0.50	0.25	0.00	0.25	-0.199707	0.079590	1.016602	-22.330000	-37.380001	-1.330000	764.00	-0.30	-0.02
2.74	0.00	0.25	0.00	0.00	0.00	0.00	0.75	0.00	4.00	6.25	2.50	0.75	0.00	7.25	0.75	0.50	-0.875488	1.294922	3.170410	-40.810001	416.079987	-171.360001	237.00	0.28	0.11	23.00	14.00	13.75	12.00	5.75	2.25	1.00	0.25	0.50	1.00	0.00	0.00	1.00	0.25	0.00	0.50	-0.176270	0.060059	0.999512	-14.210000	-27.299999	-0.560000	789.00	-0.29	-0.02
2.75	0.00	0.00	0.00	0.00	0.00	0.00	1.00	0.00	2.50	4.00	1.75	0.50	0.00	2.25	0.00	0.00	0.846680	1.156250	3.007812	9.450000	324.029999	-181.020004	132.00	0.25	0.11	23.75	14.50	14.50	12.50	6.00	2.75	1.00	0.50	1.00	1.50	0.25	0.00	1.25	0.25	0.00	0.50	-0.172852	0.055176	0.995605	-8.820000	-18.340000	0.700000	844.00	-0.28	-0.02
2.76	0.25	0.25	0.00	0.00	0.00	0.00	1.00	0.00	1.50	2.75	1.25	0.25	0.00	1.25	0.00	0.00	4.076172	2.723145	3.731445	-12.460000	191.029999	-184.449997	95.00	0.20	0.11	23.50	14.50	14.50	12.50	6.50	2.75	1.00	0.50	1.00	1.25	0.25	0.25	1.50	0.50	0.25	0.50	-0.138672	0.059570	0.988281	-5.040000	-13.650000	1.890000	854.00	-0.28	-0.02
2.77	0.00	0.00	0.25	0.00	0.00	0.00	1.00	0.00	0.75	2.50	1.25	0.25	0.00	0.25	0.00	0.00	0.085449	2.130371	5.471680	-5.250000	-0.350000	-73.290001	72.00	0.19	0.09	23.50	14.50	14.50	12.75	6.75	3.50	1.00	0.50	1.00	1.25	0.50	0.50	1.25	0.50	0.25	0.50	-0.146973	0.056152	0.984375	-1.540000	-11.060000	2.520000	870.00	-0.27	-0.02
2.78	0.00	0.25	0.25	0.00	0.00	0.00	1.00	0.00	1.25	2.25	1.25	0.00	0.00	0.00	0.00	0.00	1.759766	1.800781	2.011719	-24.639999	-117.529999	30.730000	73.00	0.17	0.11	22.75	14.25	14.25	12.75	7.00	3.25	1.00	0.50	1.00	1.00	1.00	0.25	2.00	0.50	0.50	0.75	-0.145508	0.055664	0.980957	1.050000	-9.450000	3.290000	868.00	-0.26	-0.03
2.79	0.00	0.00	0.00	0.00	0.00	0.00	1.00	0.00	0.75	2.00	0.75	0.00	0.00	0.00	0.00	0.00	0.988281	1.059570	1.084961	-63.279999	-126.699997	102.129997	54.00	0.20	0.13	21.75	13.75	14.00	12.50	7.25	4.00	1.00	0.75	1.50	1.25	1.00	0.75	2.00	1.00	0.75	0.75	-0.141602	0.056641	0.983887	3.430000	-8.120000	3.920000	884.00	-0.25	-0.03
2.80	0.00	0.00	0.00	0.00	0.00	0.00	1.00	0.00	0.75	1.75	0.75	0.00	0.00	0.00	0.00	0.00	0.780762	1.295410	1.493652	-66.080002	-110.110001	143.639999	51.00	0.19	0.13	20.75	13.00	13.75	12.25	7.25	4.50	1.00	1.00	1.50	1.50	1.25	1.00	2.75	1.00	0.50	1.00	-0.145996	0.062500	0.989746	5.460000	-6.440000	4.130000	883.00	-0.23	-0.04
2.81	0.00	0.00	0.00	0.00	0.00	0.00	1.00	0.00	0.50	1.50	0.75	0.00	0.00	0.00	0.00	0.00	1.106934	0.856445	1.853027	-24.710001	-134.050003	154.559998	45.00	0.00	0.00	19.00	12.00	13.00	11.75	7.00	4.25	1.00	1.00	1.00	1.75	1.25	0.50	3.25	1.00	0.50	1.25	-0.143066	0.077148	0.989746	6.300000	-3.780000	3.990000	833.00	-0.23	-0.04
2.82	0.00	0.25	0.00	0.00	0.00	0.00	1.00	0.00	0.50	1.00	0.50	0.00	0.00	0.00	0.00	0.00	0.989258	0.531738	1.999023	27.650000	-188.089996	142.169998	40.00	0.00	0.00	16.75	11.00	12.25	11.00	6.75	4.25	1.00	1.25	1.50	2.00	1.75	1.25	3.50	1.50	0.50	1.25	-0.142578	0.063477	0.988770	6.160000	-0.910000	3.850000	814.00	-0.20	-0.05
2.83	0.00	0.50	0.00	0.00	0.00	0.00	1.00	0.00	0.25	1.00	0.75	0.00	0.00	0.00	0.00	0.00	0.878906	0.176758	1.946289	64.680000	-241.500000	124.389999	41.00	0.00	0.00	14.75	9.75	11.50	10.50	6.50	3.75	1.00	1.25	2.25	2.50	2.50	1.50	3.50	1.50	0.75	1.50	-0.145020	0.073242	0.987305	5.880000	1.890000	3.640000	789.00	-0.18	-0.05
2.84	0.00	0.25	0.00	0.00	0.00	0.00	1.00	0.00	0.25	0.75	0.50	0.00	0.00	0.00	0.00	0.00	0.743652	0.041992	1.877930	79.730003	-287.279999	108.290001	34.00	0.00	0.00	12.25	8.75	10.25	9.50	6.00	3.00	1.00	1.00	2.00	2.50	2.00	2.00	4.00	1.50	1.00	1.50	-0.139160	0.074707	0.993164	5.600000	4.410000	3.220000	715.00	-0.16	-0.05
2.85	0.00	0.00	0.00	0.00	0.00	0.00	1.00	0.00	0.25	0.75	0.25	0.00	0.00	0.00	0.00	0.00	0.586914	0.016602	1.802246	80.290001	-327.670013	97.300003	29.00	0.00	0.00	10.25	8.25	9.00	9.00	5.75	3.00	1.00	1.25	2.50	3.00	3.50	2.25	4.25	1.75	1.00	1.75	-0.149902	0.077148	0.986328	4.550000	9.100000	1.610000	707.00	-0.13	-0.06
2.86	0.00	0.75	0.00	0.00	0.00	0.00	1.00	0.00	0.00	0.25	0.25	0.00	0.00	0.00	0.00	0.00	0.410156	0.027344	1.670898	76.300003	-360.220001	92.540001	27.00	0.00	0.00	8.25	7.00	8.50	8.25	5.00	2.00	1.00	1.00	2.50	3.75	5.75	2.75	4.50	2.50	1.25	2.25	-0.145020	0.076172	0.996582	3.990000	10.780000	1.470000	689.00	-0.09	-0.06
2.87	0.00	0.00	0.00	0.00	0.00	0.00	1.00	0.00	0.25	0.25	0.25	0.00	0.00	0.00	0.00	0.00	0.220703	0.027832	1.572266	74.550003	-383.600006	91.209999	24.00	0.00	0.00	6.50	6.00	7.50	7.50	4.25	1.00	1.00	1.00	3.00	5.75	6.50	3.25	5.00	2.75	1.50	2.50	-0.154297	0.089844	0.982422	3.360000	12.950000	1.120000	674.00	-0.04	-0.06
2.88	0.00	0.00	0.00	0.00	0.00	0.00	1.00	0.00	0.00	0.25	0.00	0.00	0.00	0.00	0.00	0.00	0.033203	0.015625	1.519043	76.790001	-398.649994	90.300003	18.00	0.00	0.00	5.00	5.50	6.50	6.50	3.50	0.75	1.00	0.75	3.50	6.25	7.75	3.75	5.00	3.00	1.25	2.50	-0.159668	0.087402	0.982910	2.240000	16.170000	-0.210000	647.00	-0.01	-0.06
2.89	0.00	0.00	0.00	0.00	0.00	0.00	1.00	0.00	0.00	0.25	0.00	0.00	0.00	0.00	0.00	0.00	-0.159180	-0.016602	1.492188	79.519997	-407.260010	88.830002	18.00	0.00	0.00	4.25	4.50	5.50	5.50	3.00	0.50	1.00	0.50	4.75	7.25	8.50	4.50	5.25	3.50	1.75	2.50	-0.144531	0.085938	0.980469	0.490000	18.340000	-1.470000	650.00	0.04	-0.05
2.90	0.00	0.00	0.00	0.00	0.00	0.00	1.00	0.00	0.00	0.25	0.00	0.00	0.00	0.00	0.00	0.00	-0.330566	-0.019531	1.491699	77.769997	-410.269989	85.400002	18.00	0.00	0.00	3.00	3.25	4.25	4.25	2.50	0.00	1.00	0.50	5.00	7.75	9.00	5.00	5.00	3.75	1.75	2.75	-0.163086	0.079590	0.981934	-0.910000	20.230000	-2.590000	607.00	0.08	-0.05
2.91	0.00	0.00	0.00	0.00	0.00	0.00	1.00	0.00	0.00	0.25	0.00	0.00	0.00	0.00	0.00	0.00	-0.462891	0.038086	1.542480	74.410004	-409.220001	78.400002	18.00	0.00	0.00	1.75	2.25	3.25	3.25	2.00	0.00	0.75	0.50	5.75	8.25	9.50	5.50	5.00	4.25	1.75	3.25	-0.186035	0.059570	0.985840	-0.980000	22.049999	-3.290000	586.00	0.12	-0.05
2.92	0.00	0.25	0.00	0.00	0.00	0.00	1.00	0.00	0.00	0.00	0.00	0.00	0.00	0.00	0.00	0.00	-0.879883	0.245605	1.715820	99.750000	-401.730011	52.500000	17.00	0.00	0.00	1.00	0.50	2.00	2.00	1.00	0.00	0.75	0.25	6.75	9.25	10.00	7.00	5.25	5.25	2.00	3.25	-0.191895	0.092773	0.975586	0.210000	24.010000	-4.550000	578.00	0.19	-0.04
2.93	0.00	0.00	0.00	0.00	0.00	0.00	1.00	0.00	0.25	0.00	0.00	0.00	0.00	0.50	0.00	0.00	-1.132812	0.270996	1.837402	99.750000	-401.730011	52.500000	23.00	0.00	0.00	0.50	1.00	1.25	1.50	1.00	0.00	0.75	0.75	7.50	10.00	10.75	7.75	5.50	6.25	2.00	3.50	-0.176758	0.086914	0.988770	-1.470000	28.490000	-7.700000	616.00	0.20	-0.05
2.94	0.00	0.00	0.00	0.00	0.00	0.00	1.00	0.00	0.00	0.00	0.00	0.00	0.00	0.00	0.00	0.00	-1.524414	0.300781	1.790527	158.619995	-383.670013	31.639999	15.00	0.00	0.00	0.50	1.00	1.00	1.50	0.75	0.00	0.50	0.25	7.50	10.50	11.25	8.00	5.25	7.25	2.50	3.50	-0.178223	0.097168	0.979004	-2.870000	33.670002	-10.290000	624.00	0.21	-0.04
2.95	0.00	0.50	0.00	0.00	0.00	0.00	1.00	0.00	0.00	0.00	0.00	0.00	0.00	0.00	0.00	0.00	-1.967285	0.296387	1.669922	169.960007	-366.239990	33.599998	20.00	0.00	0.00	0.25	1.00	0.75	0.25	0.50	0.00	0.50	0.50	8.00	11.00	11.75	8.50	5.50	8.25	3.00	4.25	-0.198730	0.107910	0.983887	-4.620000	36.889999	-11.970000	648.00	0.23	-0.04
2.96	0.00	0.25	0.00	0.00	0.00	0.00	1.00	0.00	0.00	0.00	0.00	0.00	0.00	0.00	0.00	0.00	-2.343750	0.299805	1.529297	154.699997	-341.110016	46.689999	17.00	0.00	0.00	0.00	0.25	0.50	0.50	0.00	0.00	0.50	0.00	8.75	11.50	12.25	8.75	5.50	9.00	2.75	4.75	-0.201660	0.092773	0.969727	-5.950000	38.360001	-14.770000	655.00	0.25	-0.03
2.97	0.00	0.00	0.00	0.00	0.00	0.00	1.00	0.00	0.00	0.00	0.00	0.00	0.00	0.00	0.00	0.00	-2.635254	0.378906	1.512207	132.720001	-311.220001	68.809998	15.00	0.00	0.00	0.00	0.50	0.50	0.75	0.00	0.00	0.25	0.25	8.75	12.00	13.00	9.25	5.75	10.25	3.50	4.75	-0.185059	-0.043945	1.093750	-8.610000	44.310001	-15.540000	699.00	0.25	-0.04
2.98	0.00	0.00	0.00	0.00	0.00	0.00	1.00	0.00	0.00	0.00	0.00	0.00	0.00	0.00	0.00	0.00	-2.885254	0.434570	1.591309	124.180000	-287.559998	92.889999	15.00	0.00	0.00	0.00	0.50	0.25	0.00	0.00	0.00	0.25	0.25	9.25	12.75	13.25	9.25	5.75	11.50	3.75	5.00	-0.213379	0.054688	1.027832	-9.730000	61.740002	-12.110000	720.00	0.26	-0.03
2.99	0.00	0.25	0.00	0.00	0.00	0.00	1.00	0.00	0.00	0.00	0.00	0.00	0.00	0.00	0.00	0.00	-3.181641	0.265625	1.546387	137.759995	-273.559998	111.440002	17.00	0.00	0.00	0.00	0.25	0.25	0.50	0.00	0.00	0.25	0.25	9.50	13.25	13.75	9.50	6.00	12.75	4.50	5.25	-0.231445	0.049316	0.988281	-10.640000	72.590004	-9.170000	761.00	0.26	-0.03
3.00	0.00	0.00	0.00	0.00	0.00	0.00	1.00	0.00	0.00	0.00	0.00	0.00	0.00	0.00	0.00	0.00	-3.555176	-0.227051	1.312500	163.380005	-259.209991	123.480003	15.00	0.00	0.00	0.00	0.25	0.25	0.50	0.00	0.00	0.00	0.25	9.75	13.75	14.25	9.75	6.00	14.25	5.50	5.50	-0.252441	0.073242	0.995605	-12.810000	81.480003	-7.560000	798.00	0.27	-0.03
3.01	0.25	0.00	0.00	0.00	0.00	0.00	1.00	0.00	0.00	0.00	0.00	0.00	0.00	0.00	0.00	0.00	-3.921875	-0.952148	0.895020	170.169998	-232.680008	129.990005	18.00	0.00	0.00	0.25	0.50	0.25	0.00	0.00	0.00	0.25	0.25	10.50	14.00	14.25	9.75	5.75	15.50	5.75	5.75	-0.256836	0.059082	1.018555	-13.510000	94.010002	-7.000000	826.00	0.27	-0.02
3.02	0.00	0.00	0.00	0.25	0.00	0.00	1.00	0.00	0.00	0.00	0.00	0.00	0.00	0.00	0.00	0.00	-4.182617	-1.544434	0.509766	138.389999	-195.300003	127.959999	18.00	0.00	0.00	0.00	0.00	0.00	0.25	0.00	0.00	0.00	0.50	10.75	14.75	14.50	10.00	5.50	16.25	6.00	6.00	-0.288086	0.078613	1.058594	-15.120000	108.779999	-7.490000	844.00	0.27	-0.02
3.03	0.00	0.00	0.00	0.25	0.00	0.00	1.00	0.00	0.00	0.00	0.00	0.00	0.00	0.00	0.00	0.00	-4.291504	-1.818359	0.142578	84.910004	-156.380005	110.459999	18.00	0.00	0.00	0.00	0.00	0.00	0.00	0.00	0.00	0.00	0.00	11.25	15.00	14.50	10.00	5.25	17.50	7.00	6.00	-0.301758	0.072754	1.073730	-17.850000	126.489998	-9.030000	862.00	0.28	-0.01
3.04	0.00	0.75	0.00	0.50	0.00	0.00	1.00	0.00	0.00	0.00	0.00	0.00	0.00	0.00	0.00	0.00	-4.283691	-1.729980	-0.052734	38.709999	-117.809998	80.919998	28.00	0.00	0.00	0.00	0.00	0.00	0.00	0.00	0.00	0.00	0.00	11.75	15.50	14.50	9.75	5.25	18.25	7.00	6.25	-0.326660	0.077148	1.091797	-19.740000	144.970001	-11.130000	878.00	0.28	-0.01
3.05	0.00	0.00	0.00	0.00	0.00	0.00	1.00	0.00	0.00	0.00	0.00	0.00	0.00	0.00	0.00	0.00	-4.127930	-1.538086	-0.355469	9.730000	-80.010002	46.549999	15.00	0.00	0.00	0.00	0.00	0.00	0.00	0.00	0.00	0.00	0.25	12.25	15.75	14.25	9.75	4.75	18.75	7.25	6.25	-0.342285	0.074707	1.102539	-20.930000	162.960007	-13.300000	891.00	0.28	-0.00
3.06	0.00	0.00	0.00	0.00	0.00	0.00	1.00	0.00	0.00	0.00	0.00	0.00	0.00	0.00	0.00	0.00	-5.806152	-1.809570	-1.060059	-5.320000	-43.540001	14.980000	15.00	0.00	0.00	0.00	0.00	0.00	0.00	0.00	0.00	0.00	0.00	12.50	16.00	14.00	9.50	4.25	19.50	7.25	6.25	-0.375488	0.076172	1.105469	-25.549999	205.800003	-17.219999	890.00	0.29	0.01
3.07	0.00	1.25	0.00	0.25	0.00	0.00	1.00	0.00	0.00	0.00	0.00	0.00	0.00	0.00	0.00	0.00	-4.556641	-2.214844	-1.197266	-89.320000	66.080002	1.610000	29.00	0.00	0.00	0.00	0.00	0.00	0.00	0.00	0.00	0.00	0.00	13.00	16.25	13.75	9.25	4.00	20.00	7.25	6.25	-0.437988	0.077148	1.109375	-24.570000	230.020004	-20.299999	896.00	0.29	0.01
3.08	0.25	0.50	0.00	0.00	0.00	0.00	0.75	0.00	0.00	0.00	0.00	0.00	0.00	0.00	0.00	0.00	-5.108887	-1.468262	-1.154297	-191.029999	143.080002	-17.150000	19.00	0.00	0.00	0.00	0.00	0.00	0.00	0.00	0.00	0.00	0.00	13.25	16.50	13.50	8.75	3.75	19.75	7.50	6.00	-0.468262	0.087402	1.182617	-24.639999	258.649994	-24.570000	891.00	0.29	0.01
3.09	1.25	2.25	0.25	1.25	0.00	0.00	0.75	0.00	0.00	0.00	0.00	0.00	0.00	0.00	0.00	0.00	-0.737793	-0.523438	0.649414	-251.229996	223.229996	-44.380001	62.00	-0.29	-0.03	0.00	0.00	0.00	0.00	0.00	0.00	0.00	0.00	13.00	16.75	13.25	8.50	3.25	19.50	7.50	6.00	-0.534668	0.109375	1.168945	-24.639999	290.779999	-30.730000	879.00	0.29	0.02
3.10	8.25	8.50	2.25	5.75	0.25	0.00	1.00	0.00	0.00	0.00	0.00	0.00	0.00	0.00	0.00	0.00	-2.118164	-0.057617	4.520020	-158.759995	270.690002	-9.730000	270.00	-0.34	-0.04	0.00	0.00	0.00	0.00	0.00	0.00	0.00	0.00	12.75	16.50	13.00	8.00	2.75	19.25	7.50	5.75	-0.565430	0.100098	1.175293	-28.280001	328.720001	-38.639999	857.00	0.29	0.02
3.11	15.25	15.50	6.50	9.25	0.75	0.75	1.00	0.00	0.00	0.00	0.00	0.00	0.00	0.00	0.00	0.00	-0.555664	-0.689941	2.165527	-72.519997	221.970001	-5.250000	506.00	-0.34	-0.04	0.00	0.00	0.00	0.00	0.00	0.00	0.00	0.00	12.50	16.25	12.50	7.25	2.50	18.75	7.25	5.25	-0.542480	0.046387	1.282227	-34.650002	382.970001	-47.880001	826.00	0.29	0.03
3.12	18.75	18.00	8.50	11.75	1.25	1.25	1.25	0.00	0.00	0.00	0.25	0.00	0.00	0.00	0.00	0.00	-0.518555	-0.068848	0.993652	-1.260000	218.050003	-37.029999	632.00	-0.33	-0.04	0.00	0.00	0.00	0.00	0.00	0.00	0.00	0.00	11.25	15.75	12.00	6.00	2.00	18.25	7.00	4.50	-0.684082	-0.017090	1.505371	-50.820000	439.670013	-52.639999	771.00	0.29	0.03
3.13	20.75	18.50	9.50	12.75	1.75	1.75	1.25	0.00	0.00	0.00	0.25	0.25	0.25	0.00	0.00	0.00	-0.067383	-0.152344	0.656250	-115.150002	153.300003	-11.550000	696.00	-0.33	-0.04	0.00	0.00	0.00	0.00	0.00	0.00	0.00	0.00	10.00	14.25	10.75	4.50	1.25	17.25	6.25	3.50	-0.952148	0.150391	1.584961	-76.860001	497.630005	-55.160000	682.00	0.29	0.04
3.14	18.75	16.50	10.25	12.75	1.75	2.25	1.50	0.00	0.00	0.25	0.50	0.25	0.50	0.00	0.00	0.00	-0.288086	-0.082520	1.178711	-117.040001	-12.460000	-8.960000	681.00	-0.31	-0.04	0.00	0.00	0.00	0.00	0.00	0.00	0.00	0.00	7.50	12.00	9.50	3.00	1.00	15.75	5.50	2.50	-1.396484	0.140137	1.985352	-89.599998	541.799988	-64.889999	568.00	0.30	0.04
3.15	18.25	16.25	10.75	12.75	2.25	2.50	1.75	0.25	0.25	0.50	0.50	0.50	1.00	0.00	0.00	0.00	-0.259277	0.062988	0.968750	-45.990002	-37.240002	-6.370000	708.00	-0.30	-0.04	0.00	0.00	0.00	0.00	0.00	0.00	0.00	0.00	6.00	10.50	8.00	1.75	0.25	13.75	4.50	1.50	-2.385742	-0.305176	3.245605	-68.879997	551.739990	-75.110001	465.00	0.30	0.06
3.16	17.25	16.25	11.25	13.25	2.75	3.50	1.75	0.50	0.50	1.00	1.00	1.25	1.50	0.25	0.00	0.00	-0.267090	0.062988	0.973633	-20.299999	-33.180000	-3.570000	757.00	-0.27	-0.05	0.00	0.00	0.00	0.00	0.00	0.00	0.00	0.00	5.00	9.00	6.25	1.75	0.25	11.00	2.50	1.00	-2.610840	0.686523	3.037109	-56.490002	551.109985	-72.239998	370.00	0.30	0.06
3.17	17.25	15.50	11.25	13.50	3.75	4.00	1.75	0.50	1.00	1.25	1.50	1.50	1.75	0.75	0.25	0.25	-0.222168	0.055664	0.967285	-9.310000	-20.299999	-2.870000	797.00	-0.25	-0.05	0.00	0.00	0.00	0.00	0.00	0.00	0.00	0.00	4.50	8.00	4.75	1.00	0.00	8.50	1.50	0.75	-2.256348	0.809570	3.495605	-3.220000	522.830017	-65.029999	295.00	0.29	0.08
3.18	16.25	14.50	11.75	13.75	4.50	4.75	2.00	0.75	1.50	1.50	2.00	2.00	2.50	1.25	0.50	0.50	-0.217285	0.072754	0.953125	-5.250000	-12.670000	-2.520000	844.00	-0.22	-0.05	0.00	0.00	0.00	0.00	0.00	0.00	0.25	0.00	3.00	6.75	3.50	1.25	0.00	5.50	1.25	0.25	-1.296875	1.159180	3.343750	61.320000	466.480011	-86.449997	224.00	0.28	0.07
3.19	15.25	13.25	12.25	13.00	5.25	5.50	2.25	1.00	1.75	2.00	2.75	2.75	3.00	1.50	0.50	0.75	-0.212402	0.066406	0.966309	-2.800000	-7.560000	-1.890000	876.00	-0.19	-0.06	0.00	0.00	0.00	0.00	0.00	0.00	0.25	0.00	2.25	5.25	2.50	1.00	0.25	1.75	0.50	0.25	0.062500	1.150879	3.361816	129.009995	395.920013	-102.340004	148.00	0.26	0.05
3.20	13.75	13.00	11.50	13.00	5.25	5.75	2.25	1.50	2.25	2.25	3.50	3.50	3.50	2.00	0.50	1.00	-0.192383	0.055176	0.968750	0.630000	-1.330000	-0.630000	895.00	-0.17	-0.06	0.00	0.00	0.00	0.00	0.00	0.00	0.25	0.00	2.00	3.50	2.00	0.00	0.00	1.00	0.25	0.00	4.913574	1.211914	4.097168	163.449997	243.040009	-127.190002	98.00	0.25	0.09
3.21	13.00	12.25	11.25	12.50	5.25	6.00	2.25	1.75	2.00	2.50	4.00	4.25	5.00	2.00	0.75	1.25	-0.193359	0.067871	0.967285	4.900000	4.410000	0.980000	908.00	-0.15	-0.08	0.00	0.25	0.00	0.00	0.00	0.00	0.25	0.00	1.00	3.75	1.50	0.00	0.00	0.75	0.00	0.00	2.107910	1.708984	5.454590	96.529999	-17.920000	-112.279999	80.00	0.23	0.07
3.22	12.00	11.00	10.00	11.50	5.25	6.00	2.25	2.00	2.25	2.50	6.00	5.75	5.50	2.50	1.00	1.50	-0.193359	0.051270	0.974609	9.310000	9.800000	2.660000	917.00	-0.12	-0.08	0.00	0.25	0.00	0.00	0.00	0.00	0.50	0.00	1.00	2.75	1.25	0.25	0.00	0.25	0.00	0.00	1.727539	0.687500	3.665039	15.680000	-172.550003	-58.170002	69.00	0.21	0.07
3.23	9.50	9.75	9.00	10.75	5.00	6.00	2.25	2.25	2.75	3.00	6.50	6.50	6.50	2.00	0.75	1.75	-0.186035	0.067383	0.969238	12.670000	14.980000	3.220000	890.00	-0.09	-0.09	0.00	0.00	0.00	0.00	0.00	0.00	0.50	0.00	0.75	2.50	1.00	0.00	0.00	0.25	0.00	0.00	1.502441	0.355469	1.041504	-75.250000	-180.039993	-24.010000	56.00	0.23	0.10
3.24	8.50	8.75	8.00	9.50	4.75	5.75	2.25	2.75	2.25	3.50	7.50	7.50	6.75	2.50	1.00	2.00	-0.190430	0.074219	0.968262	13.860000	19.180000	2.450000	878.00	-0.07	-0.10	0.00	0.50	0.00	0.25	0.00	0.00	0.50	0.00	0.25	2.00	0.75	0.00	0.00	0.00	0.00	0.00	1.408203	1.375977	1.765137	-20.370001	-154.070007	9.450000	47.00	0.00	0.00
3.25	7.00	7.50	7.25	8.75	4.25	5.25	2.50	2.75	3.00	3.75	8.00	7.75	7.50	3.25	1.00	2.25	-0.186523	0.064941	0.967773	13.230000	22.400000	1.260000	861.00	-0.04	-0.10	0.00	0.00	0.00	0.00	0.00	0.00	0.50	0.00	0.25	1.75	0.75	0.00	0.00	0.00	0.00	0.00	1.408203	1.375977	1.765137	-20.370001	-154.070007	9.450000	37.00	0.00	0.00
3.26	6.00	6.75	6.25	7.75	3.50	4.75	2.25	2.50	3.25	4.25	8.50	8.50	7.75	2.75	1.25	2.25	-0.186035	0.043945	0.965332	11.620000	24.850000	0.490000	823.00	-0.02	-0.11	0.00	0.25	0.00	0.00	0.00	0.00	0.50	0.00	0.00	1.25	0.75	0.00	0.00	0.00	0.00	0.00	1.032715	0.287598	1.826660	84.070000	-257.459991	24.570000	31.00	0.00	0.00
3.27	5.00	5.75	5.25	6.50	2.75	4.00	2.25	2.50	3.25	5.25	9.00	9.00	8.00	3.25	1.50	2.50	-0.176270	0.023926	0.961426	9.520000	27.440001	-0.420000	793.00	0.02	-0.11	0.00	0.00	0.00	0.00	0.00	0.00	0.50	0.00	0.25	1.25	0.50	0.00	0.00	0.00	0.00	0.00	0.787598	0.170898	1.766113	66.430000	-297.010010	31.010000	29.00	0.00	0.00
3.28	4.75	3.25	3.25	5.00	2.00	2.75	2.25	2.00	3.75	5.75	9.25	9.25	8.25	3.25	1.25	2.75	-0.186035	0.085938	0.964355	8.540000	30.309999	-1.190000	717.00	0.06	-0.11	0.00	0.00	0.00	0.00	0.00	0.00	0.50	0.00	0.25	1.00	0.50	0.00	0.00	0.00	0.00	0.00	0.599609	0.298828	1.737793	45.920002	-331.660004	39.549999	26.00	0.00	0.00
3.29	2.50	3.25	2.75	4.25	1.75	2.00	2.25	1.75	4.25	7.00	9.75	9.50	8.50	3.00	1.25	2.75	-0.199707	0.086426	0.970215	7.420000	34.230000	-2.800000	693.00	0.09	-0.11	0.00	0.25	0.00	0.00	0.00	0.00	0.50	0.00	0.25	1.00	0.25	0.00	0.00	0.00	0.00	0.00	0.376465	0.344727	1.656250	40.670002	-361.549988	48.090000	26.00	0.00	0.00
3.30	1.25	2.75	1.75	3.00	1.25	0.75	2.25	1.50	3.75	7.50	10.00	10.00	8.50	4.25	1.25	3.00	-0.203125	0.086914	0.962891	6.370000	37.450001	-4.340000	646.00	0.13	-0.11	0.00	0.25	0.00	0.00	0.00	0.00	0.50	0.00	0.25	1.00	0.00	0.00	0.00	0.00	0.00	0.00	0.185547	0.329102	1.590332	49.980000	-384.510010	54.740002	24.00	0.00	0.00
3.31	1.00	1.25	1.00	2.00	0.50	0.50	2.00	1.25	4.50	8.00	10.50	10.50	8.75	4.25	1.50	3.25	-0.228516	0.080078	0.976562	4.970000	40.810001	-5.110000	624.00	0.17	-0.10	0.00	0.25	0.00	0.00	0.00	0.00	0.50	0.00	0.00	0.75	0.00	0.00	0.00	0.00	0.00	0.00	-0.005371	0.255859	1.537109	62.720001	-401.519989	59.709999	18.00	0.00	0.00
3.32	0.50	1.50	0.00	1.50	0.50	0.00	2.00	0.75	5.25	8.25	11.00	10.50	8.50	5.25	1.50	3.50	-0.234375	0.083008	0.961914	3.500000	42.980000	-5.460000	617.00	0.20	-0.09	0.00	0.50	0.00	0.00	0.00	0.00	0.50	0.00	0.00	0.50	0.00	0.00	0.00	0.00	0.00	0.00	-0.200684	0.226074	1.566406	71.120003	-411.040009	62.790001	17.00	0.00	0.00
3.33	0.00	0.25	0.00	1.25	0.25	0.00	1.75	0.50	5.25	8.75	11.25	11.00	8.75	5.25	1.75	3.50	-0.254395	0.126953	0.950195	1.820000	43.610001	-6.300000	605.00	0.22	-0.10	0.00	0.25	0.00	0.00	0.00	0.00	0.50	0.00	0.00	0.75	0.00	0.00	0.00	0.00	0.00	0.00	-1.090332	-0.083008	1.360840	75.669998	-413.350006	63.980000	18.00	0.00	0.00
3.34	0.25	0.25	0.00	0.50	0.00	0.00	1.75	0.25	5.50	9.00	11.75	11.25	8.75	5.25	1.75	3.75	-0.271484	0.043945	0.944336	-1.610000	44.520000	-8.330000	608.00	0.23	-0.09	0.00	0.00	0.00	0.00	0.00	0.00	0.50	0.00	0.00	0.25	0.00	0.00	0.00	0.00	0.00	0.00	-0.317383	0.179688	1.574707	68.320000	-404.179993	57.049999	10.00	0.00	0.00
3.35	0.25	0.25	0.00	0.75	0.00	0.00	1.75	0.25	6.25	9.50	12.00	11.75	8.50	6.00	2.00	3.75	-0.263672	0.062012	0.933594	3.500000	66.709999	-6.090000	640.00	0.23	-0.08	0.00	0.25	0.00	0.00	0.00	0.00	0.50	0.00	0.00	0.25	0.00	0.00	0.00	0.00	0.00	0.00	-0.732422	0.377441	1.904297	72.660004	-405.019989	56.770000	12.00	0.00	0.00
3.36	0.00	0.00	0.00	0.50	0.00	0.00	1.50	0.00	6.50	10.00	12.25	11.75	8.50	6.25	2.00	4.00	-0.267578	0.090820	0.950195	4.690000	69.440002	-7.070000	640.00	0.24	-0.08	0.00	0.50	0.00	0.00	0.00	0.00	0.50	0.00	0.00	0.25	0.00	0.00	0.00	0.00	0.00	0.00	-0.765625	0.469727	2.153809	92.820000	-403.970001	60.830002	15.00	0.00	0.00
3.37	0.00	0.00	0.00	0.25	0.00	0.00	1.50	0.00	7.00	10.25	12.50	12.00	8.75	7.00	2.00	4.00	-0.287109	0.070312	0.927734	3.430000	70.000000	-7.000000	660.00	0.24	-0.07	0.00	0.25	0.00	0.00	0.00	0.00	0.50	0.00	0.00	0.25	0.00	0.00	0.00	0.00	0.00	0.00	-0.954102	0.348145	2.204590	108.360001	-399.910004	66.779999	12.00	0.00	0.00
3.38	0.00	0.00	0.00	0.00	0.00	0.00	1.50	0.00	7.50	10.50	13.00	12.50	8.50	8.00	2.25	4.50	-0.285645	0.066406	0.938477	2.170000	73.220001	-7.420000	688.00	0.25	-0.07	0.00	0.50	0.25	0.00	0.00	0.00	0.50	0.00	0.00	0.25	0.00	0.00	0.00	0.00	0.00	0.00	-1.267090	0.411133	2.089844	115.709999	-388.989990	71.750000	18.00	0.00	0.00
3.39	0.00	0.00	0.00	0.25	0.00	0.00	1.25	0.00	7.75	11.00	13.25	12.75	8.75	8.75	2.25	4.50	-0.310547	0.080566	0.926270	0.980000	73.430000	-7.630000	710.00	0.25	-0.07	0.00	0.25	0.00	0.00	0.00	0.00	0.50	0.00	0.00	0.00	0.00	0.00	0.00	0.00	0.00	0.00	-1.556641	0.436035	1.951172	122.709999	-369.809998	78.470001	10.00	0.00	0.00
3.40	0.00	0.00	0.00	0.25	0.00	0.00	1.25	0.00	8.25	11.50	13.50	13.00	8.50	9.25	2.50	4.75	-0.312012	0.080566	0.926270	-0.210000	74.059998	-8.190000	733.00	0.25	-0.06	0.00	0.25	0.00	0.00	0.00	0.00	0.50	0.00	0.00	0.00	0.00	0.00	0.00	0.00	0.00	0.00	-1.838379	0.350098	1.732422	123.199997	-341.179993	86.870003	10.00	0.00	0.00
3.41	0.00	0.00	0.00	0.00	0.00	0.00	1.25	0.00	8.25	11.75	14.00	13.25	9.00	10.00	2.75	4.75	-0.317871	0.085449	0.932129	-1.680000	75.669998	-9.310000	754.00	0.25	-0.06	0.00	0.25	0.00	0.00	0.00	0.00	0.50	0.00	0.00	0.00	0.00	0.00	0.00	0.00	0.00	0.00	-2.100098	0.263184	1.587402	114.169998	-307.160004	94.500000	10.00	0.00	0.00
3.42	0.00	0.00	0.00	0.00	0.00	0.00	1.00	0.00	8.75	12.25	14.25	13.50	8.75	10.75	3.25	5.00	-0.342285	0.083984	0.924316	-3.150000	78.750000	-10.710000	778.00	0.26	-0.06	0.25	0.00	0.00	0.00	0.00	0.00	0.50	0.00	0.00	0.00	0.00	0.00	0.00	0.00	0.00	0.00	-2.290039	0.239746	1.718262	118.930000	-278.250000	97.510002	10.00	0.00	0.00
3.43	0.00	0.00	0.00	0.00	0.00	0.00	1.00	0.00	9.00	13.00	14.50	13.75	8.75	11.75	3.25	5.25	-0.351562	0.075195	0.929199	-6.370000	81.059998	-11.340000	804.00	0.26	-0.06	0.00	0.00	0.00	0.00	0.00	0.00	0.50	0.00	0.00	0.00	0.00	0.00	0.00	0.00	0.00	0.00	-2.456543	-0.003418	1.906250	142.589996	-266.630005	94.290001	8.00	0.00	0.00
3.44	0.00	0.00	0.00	0.00	0.00	0.00	1.00	0.00	9.25	13.25	14.75	14.00	8.75	12.50	3.25	5.25	-0.366211	0.074707	0.944824	-8.610000	84.980003	-11.410000	822.00	0.26	-0.05	0.00	0.00	0.00	0.00	0.00	0.00	0.50	0.00	0.00	0.00	0.00	0.00	0.00	0.00	0.00	0.00	-2.712891	-0.451172	1.670410	144.130005	-267.049988	86.379997	8.00	0.00	0.00
3.45	0.00	0.00	0.00	0.00	0.00	0.00	1.00	0.00	9.50	14.00	15.00	14.25	8.50	13.50	4.75	5.50	-0.385254	0.079590	0.955078	-9.450000	92.050003	-11.690000	861.00	0.26	-0.05	0.00	0.50	0.00	0.00	0.00	0.00	0.50	0.00	0.00	0.00	0.00	0.00	0.00	0.00	0.00	0.00	-3.183105	-0.788086	0.935547	104.300003	-239.750000	55.650002	12.00	0.00	0.00
3.46	0.00	0.00	0.00	0.00	0.00	0.00	0.75	0.00	10.00	14.50	15.25	14.25	8.50	14.25	5.25	5.50	-0.398438	0.081055	0.978027	-10.920000	103.949997	-12.180000	884.00	0.26	-0.05	0.00	0.00	0.00	0.00	0.00	0.00	0.50	0.00	0.00	0.00	0.00	0.00	0.00	0.00	0.00	0.00	-3.357910	-0.812988	0.622070	88.480003	-215.250000	43.259998	8.00	0.00	0.00
3.47	0.00	0.00	0.00	0.00	0.00	0.00	0.75	0.00	10.25	15.00	15.00	14.25	8.25	15.50	5.50	5.75	-0.416016	0.086426	0.979004	-13.300000	118.720001	-13.650000	902.00	0.27	-0.04	0.00	0.25	0.00	0.00	0.00	0.00	0.50	0.00	0.00	0.00	0.00	0.00	0.00	0.00	0.00	0.00	-3.582031	-0.750000	0.230469	61.040001	-183.820007	42.000000	10.00	0.00	0.00
3.48	0.00	0.00	0.00	0.00	0.00	0.00	0.50	0.00	10.50	15.25	15.25	13.75	8.00	16.00	6.00	5.75	-0.449219	0.081543	1.000000	-15.540000	133.770004	-15.120000	909.00	0.27	-0.04	0.00	0.00	0.00	0.00	0.00	0.00	0.25	0.00	0.00	0.00	0.00	0.00	0.00	0.00	0.00	0.00	-3.687500	-0.629883	-0.014160	36.049999	-142.520004	50.119999	4.00	0.00	0.00
3.49	0.00	0.00	0.00	0.00	0.00	0.00	0.50	0.25	10.50	15.75	15.25	13.50	7.50	16.50	6.50	6.00	-0.465820	0.087402	1.027344	-17.500000	153.369995	-16.799999	922.00	0.27	-0.04	0.00	0.25	0.00	0.25	0.00	0.00	0.25	0.00	0.00	0.00	0.00	0.00	0.00	0.00	0.00	0.00	-3.708008	-0.493652	-0.262207	28.280001	-99.610001	59.080002	9.00	0.00	0.00
3.50	0.00	0.00	0.00	0.00	0.00	0.00	0.25	0.25	10.75	16.25	15.00	13.25	7.25	17.00	6.75	6.00	-0.492188	0.064941	1.038574	-17.710001	176.330002	-17.500000	926.00	0.27	-0.03	0.00	0.00	0.00	0.00	0.00	0.00	0.50	0.00	0.00	0.00	0.00	0.00	0.00	0.00	0.00	0.00	-3.722656	-0.687988	-0.171387	36.610001	-63.700001	58.170002	8.00	0.00	0.00
3.51	0.00	0.00	0.00	0.00	0.00	0.00	0.25	0.00	10.75	16.50	14.75	12.50	6.50	17.25	6.75	6.25	-0.516602	0.065430	1.026367	-17.219999	201.389999	-18.270000	911.00	0.28	-0.03	0.00	0.25	0.00	0.00	0.00	0.00	0.25	0.00	0.00	0.00	0.00	0.00	0.00	0.00	0.00	0.00	-5.170898	-1.556641	-0.548828	19.809999	-41.160000	50.610001	6.00	0.00	0.00
3.52	0.00	0.00	0.00	0.00	0.00	0.00	0.25	0.25	11.00	16.75	14.50	11.50	6.00	17.25	7.00	6.00	-0.569824	0.079590	1.057617	-18.549999	229.740005	-20.090000	904.00	0.28	-0.02	0.00	0.75	0.25	0.00	0.00	0.00	0.25	0.00	0.00	0.00	0.00	0.00	0.00	0.00	0.00	0.00	-4.411621	-1.899414	-1.192871	-79.519997	57.750000	49.209999	13.00	0.00	0.00
3.53	0.00	0.00	0.00	0.00	0.00	0.00	0.25	0.00	11.00	16.75	14.25	10.75	5.25	17.50	7.25	6.00	-0.606934	0.083496	1.079590	-21.840000	264.390015	-24.360001	888.00	0.28	-0.01	0.50	1.25	0.50	0.75	0.00	0.00	0.25	0.00	0.00	0.00	0.00	0.00	0.00	0.00	0.00	0.00	-5.083496	-1.155273	-0.516113	-174.720001	129.430008	36.400002	34.00	0.00	0.00
3.54	0.00	0.00	0.00	0.00	0.00	0.00	0.25	0.00	11.00	16.75	13.75	9.25	4.50	17.25	7.00	5.75	-0.674805	0.127441	1.162109	-27.020000	302.399994	-30.590000	854.00	0.28	-0.00	2.50	3.75	1.00	2.00	0.00	0.00	0.25	0.00	0.00	0.00	0.00	0.00	0.00	0.00	0.00	0.00	-0.817383	-0.806152	0.509766	-209.649994	210.979996	19.670000	97.00	-0.35	-0.06
3.55	0.00	0.00	0.00	0.00	0.00	0.00	0.25	0.25	11.50	16.75	12.75	8.25	3.75	16.75	7.00	5.50	-0.742676	0.132324	1.160156	-35.770000	345.799988	-41.020000	832.00	0.28	0.01	11.25	10.75	3.75	7.75	0.25	0.00	0.25	0.00	0.00	0.00	0.00	0.00	0.00	0.00	0.00	0.00	-0.289551	-0.781250	4.167480	-136.570007	259.980011	16.240000	349.00	-0.35	-0.05
3.56	0.00	0.00	0.00	0.00	0.00	0.00	0.00	0.00	10.75	15.25	11.75	7.25	3.00	16.50	6.75	4.75	-1.011719	0.073242	1.598633	-75.180000	454.019989	-68.040001	762.00	0.29	0.01	18.50	15.00	8.00	9.50	0.50	0.00	0.25	0.00	0.00	0.00	0.00	0.00	0.00	0.00	0.00	0.00	-0.662598	-0.921387	2.280762	-129.289993	234.360001	-29.540001	532.00	-0.35	-0.03
3.57	0.00	0.00	0.00	0.00	0.00	0.00	0.25	0.00	9.50	13.50	10.00	5.50	1.75	15.75	6.25	3.75	-1.490723	0.145020	2.068359	-100.449997	507.220001	-76.790001	667.00	0.29	0.03	21.75	15.50	10.25	10.50	1.00	0.25	0.50	0.00	0.00	0.00	0.00	0.00	0.00	0.00	0.00	0.00	-0.570801	0.932617	1.851562	-97.230003	234.990005	-49.980000	619.00	-0.35	-0.02
3.58	0.00	0.00	0.00	0.00	0.00	0.00	0.25	0.00	7.50	11.50	8.25	3.75	1.25	15.00	5.50	3.00	-2.075195	0.026367	2.776855	-118.230003	546.700012	-91.209999	560.00	0.30	0.04	23.00	16.00	11.50	11.75	1.75	0.75	0.50	0.00	0.00	0.00	0.00	0.00	0.00	0.00	0.00	0.00	-0.403809	0.467773	1.741211	-76.720001	205.029999	-3.850000	677.00	-0.34	-0.02
3.59	0.00	0.00	0.00	0.00	0.00	0.00	0.50	0.00	5.50	10.00	6.75	2.75	0.75	13.75	4.50	2.00	-3.050781	0.029297	3.497559	-139.860001	558.669983	-107.520004	465.00	0.30	0.05	23.00	15.75	12.50	12.25	2.25	1.50	0.75	0.25	0.00	0.00	0.00	0.00	0.25	0.00	0.00	0.00	-0.361328	-0.388184	1.581543	-76.930000	176.960007	10.360000	715.00	-0.33	-0.03
3.60	0.00	0.00	0.00	0.00	0.00	0.00	0.50	0.00	4.75	8.75	5.00	1.75	0.50	11.50	2.50	1.25	-2.400879	0.626953	3.313477	-146.160004	547.400024	-105.629997	367.00	0.30	0.07	23.75	14.75	13.50	12.50	3.75	2.25	0.75	0.25	0.00	0.00	0.00	0.00	0.50	0.00	0.00	0.00	-0.287109	-0.019531	1.577637	-109.900002	38.639999	-2.520000	754.00	-0.32	-0.02
3.61	0.00	0.00	0.00	0.00	0.00	0.00	0.75	0.00	3.25	7.50	3.75	1.50	0.25	9.50	1.75	0.75	-1.839355	1.001953	3.451172	-94.919998	503.929993	-111.860001	292.00	0.29	0.07	23.25	15.00	14.00	12.50	5.00	2.50	1.00	0.50	0.00	0.75	0.00	0.00	1.00	0.00	0.00	0.25	-0.257812	0.004883	1.170898	-79.029999	-18.270000	-3.010000	795.00	-0.30	-0.03
3.62	0.00	0.00	0.00	0.00	0.00	0.00	0.75	0.00	2.25	6.00	3.00	1.75	0.00	6.50	1.00	0.25	-1.179199	0.895996	3.537598	-29.120001	449.399994	-125.580002	220.00	0.28	0.06	23.50	14.75	14.00	13.00	5.50	2.50	0.75	1.00	0.50	0.75	0.25	0.00	1.25	0.25	0.00	0.50	-0.192871	0.034180	1.065918	-30.309999	-28.420000	-0.630000	825.00	-0.29	-0.03
3.63	0.00	0.00	0.00	0.00	0.00	0.00	0.75	0.00	1.75	4.00	2.00	0.75	0.00	1.50	0.00	0.00	0.383789	1.036133	3.280762	-1.400000	387.519989	-148.750000	117.00	0.24	0.08	23.50	14.50	14.50	13.00	6.00	3.75	1.00	0.75	0.25	0.75	0.50	0.00	1.75	0.25	0.00	0.50	-0.204102	0.083008	1.011230	-12.040000	-24.080000	0.770000	851.00	-0.29	-0.03
3.64	0.00	0.00	0.00	0.00	0.00	0.00	1.00	0.00	1.00	2.75	1.50	0.00	0.00	1.00	0.00	0.00	3.527344	1.332520	3.307129	-11.830000	258.230011	-171.639999	81.00	0.23	0.11	23.75	15.00	14.75	13.25	6.25	3.75	1.00	0.75	0.50	1.25	0.75	0.25	1.75	0.25	0.25	0.75	-0.165039	0.068848	0.994141	-7.910000	-17.219999	2.100000	884.00	-0.27	-0.03
3.65	0.00	0.00	0.00	0.00	0.00	0.00	1.00	0.00	0.50	2.25	1.25	0.50	0.00	0.50	0.00	0.00	0.660645	2.172363	4.632812	12.320000	55.860001	-147.070007	68.00	0.21	0.07	22.75	14.50	14.75	13.25	6.50	4.75	1.00	1.00	0.50	1.00	1.00	0.25	2.00	0.50	0.00	0.50	-0.133301	0.064453	0.982910	-4.690000	-14.210000	2.380000	887.00	-0.27	-0.04
3.66	0.00	0.00	0.00	0.00	0.00	0.00	1.00	0.00	0.50	2.50	1.25	0.25	0.00	0.25	0.00	0.00	1.773926	1.415039	2.965820	38.009998	-104.370003	-91.209999	66.00	0.21	0.08	22.00	14.00	14.50	13.25	7.00	4.75	1.00	1.25	1.00	1.75	1.00	0.75	3.00	1.00	0.25	0.75	-0.146484	0.061035	0.984863	2.590000	-9.380000	3.360000	917.00	-0.24	-0.04
3.67	0.00	0.00	0.00	0.00	0.00	0.00	1.00	0.00	0.50	1.75	1.25	0.25	0.00	0.00	0.00	0.00	1.236816	0.879883	1.150879	8.540000	-135.660004	-37.520000	56.00	0.19	0.08	21.00	13.25	14.00	13.00	7.00	5.00	1.00	1.25	1.25	1.25	1.00	0.75	3.25	1.00	0.50	1.00	-0.135742	0.066406	1.012695	4.620000	-6.580000	4.060000	899.00	-0.24	-0.05
3.68	0.00	0.00	0.00	0.00	0.00	0.00	1.00	0.00	0.00	1.50	0.50	0.25	0.00	0.00	0.00	0.00	0.721680	1.223633	1.506348	-29.540001	-121.660004	11.270000	39.00	0.00	0.00	19.00	12.50	13.50	12.75	7.00	6.25	1.25	2.25	1.00	1.75	1.50	1.50	3.75	1.00	0.50	1.50	-0.142090	0.083008	0.984375	6.090000	-2.870000	4.340000	917.00	-0.22	-0.06
3.69	0.00	0.00	0.00	0.00	0.00	0.00	1.00	0.00	0.00	1.50	1.00	0.25	0.00	0.00	0.00	0.00	1.090332	1.156738	1.812988	-30.590000	-138.039993	49.630001	44.00	0.00	0.00	16.75	11.50	12.75	12.00	6.75	5.75	1.00	1.75	1.50	1.75	2.00	1.50	4.00	1.50	0.75	1.50	-0.137695	0.078613	0.998047	6.930000	0.770000	4.200000	870.00	-0.20	-0.06
3.70	0.00	0.00	0.00	0.00	0.00	0.00	1.00	0.00	0.00	1.00	0.75	0.00	0.00	0.00	0.00	0.00	1.011719	0.957520	1.914551	-5.250000	-189.210007	69.580002	33.00	0.00	0.00	14.75	10.50	11.75	11.50	6.50	5.75	1.25	2.00	1.25	2.25	2.25	2.00	4.75	0.75	0.75	1.75	-0.148926	0.081055	0.992676	7.420000	3.430000	4.200000	839.00	-0.18	-0.07
