# time	left pressure 1[N/cm²]	left pressure 2[N/cm²]	left pressure 3[N/cm²]	left pressure 4[N/cm²]	left pressure 5[N/cm²]	left pressure 6[N/cm²]	left pressure 7[N/cm²]	left pressure 8[N/cm²]	left pressure 9[N/cm²]	left pressure 10[N/cm²]	left pressure 11[N/cm²]	left pressure 12[N/cm²]	left pressure 13[N/cm²]	left pressure 14[N/cm²]	left pressure 15[N/cm²]	left pressure 16[N/cm²]	left acceleration X[g]	left acceleration Y[g]	left acceleration Z[g]	left angular X[dps]	left angular Y[dps]	left angular Z[dps]	left total force[N]	left center of pressure X[%]	left center of pressure Y[%]	right pressure 1[N/cm²]	right pressure 2[N/cm²]	right pressure 3[N/cm²]	right pressure 4[N/cm²]	right pressure 5[N/cm²]	right pressure 6[N/cm²]	right pressure 7[N/cm²]	right pressure 8[N/cm²]	right pressure 9[N/cm²]	right pressure 10[N/cm²]	right pressure 11[N/cm²]	right pressure 12[N/cm²]	right pressure 13[N/cm²]	right pressure 14[N/cm²]	right pressure 15[N/cm²]	right pressure 16[N/cm²]	right acceleration X[g]	right acceleration Y[g]	right acceleration Z[g]	right angular X[dps]	right angular Y[dps]	right angular Z[dps]	right total force[N]	right center of pressure X[%]	right center of pressure Y[%]
0.00																										5.25	3.25	5.50	4.00	6.50	6.50	3.25	8.50	3.75	3.25	3.00	5.00	10.25	3.00	2.25	5.00	-0.080078	0.101074	0.985840	-2.660000	0.910000	0.070000	920.00	0.00	-0.13
0.01																										5.25	3.50	5.25	4.00	6.50	6.50	3.25	8.50	3.50	3.25	3.00	5.25	10.25	3.00	2.25	4.75	-0.077637	0.099121	0.981445	-2.800000	0.770000	0.140000	917.00	0.00	-0.13
0.02	1.75	0.50	0.25	0.00	2.25	0.00	1.00	2.75	1.75	3.50	1.25	1.00	5.00	0.00	0.00	0.75	-0.170410	0.090332	0.957031	-2.940000	3.990000	1.190000	259.00	0.07	-0.11																									
0.03	1.25	0.75	0.25	0.00	2.25	0.00	1.00	3.00	1.75	3.50	1.25	1.25	5.25	0.25	0.00	0.50	-0.168457	0.090820	0.959961	-3.010000	3.780000	1.260000	266.00	0.08	-0.12	5.25	3.50	5.50	4.00	6.50	6.50	3.25	8.50	3.25	3.00	2.50	5.25	10.25	2.75	2.25	4.75	-0.075195	0.105469	0.980957	-2.870000	1.050000	-0.000000	906.00	-0.00	-0.13
0.04																										5.25	3.50	5.25	4.00	6.50	6.50	3.25	8.50	3.25	3.00	3.00	5.25	10.25	2.75	2.25	5.00	-0.081055	0.098633	0.987305	-2.800000	1.120000	0.210000	910.00	0.00	-0.13
0.05	1.75	0.75	0.00	0.00	2.25	0.00	1.00	3.00	1.75	3.50	1.25	1.25	5.00	0.25	0.00	0.50	-0.174805	0.083496	0.960449	-3.150000	3.850000	1.120000	267.00	0.07	-0.12	5.00	3.25	5.25	4.25	6.50	6.75	3.25	8.50	3.50	3.25	3.00	5.25	10.25	2.75	2.50	5.00	-0.077637	0.098145	0.987793	-2.730000	1.120000	0.280000	920.00	0.00	-0.13
0.06																										5.25	3.50	5.25	4.00	6.25	6.50	3.25	8.50	3.25	3.25	3.00	5.25	10.25	3.00	2.25	4.75	-0.081543	0.100098	0.980469	-2.660000	1.540000	0.070000	911.00	0.00	-0.13
0.07	1.25	0.25	0.00	0.00	2.25	0.00	1.00	2.75	1.25	3.25	1.00	1.00	5.25	0.00	0.00	0.25	-0.167480	0.087402	0.966309	-3.010000	4.410000	1.120000	235.00	0.08	-0.14	5.25	3.50	5.50	4.00	6.50	6.50	3.25	8.50	3.50	3.00	3.00	5.25	10.50	2.75	2.25	4.75	-0.077637	0.101562	0.987305	-2.520000	1.680000	0.070000	918.00	0.00	-0.13
0.08	1.25	0.25	0.25	0.00	2.25	0.00	1.00	3.00	1.25	3.25	1.00	1.25	5.00	0.00	0.00	0.25	-0.171875	0.089355	0.963867	-2.660000	4.340000	1.260000	242.00	0.07	-0.14	5.00	3.50	5.25	4.25	6.50	6.75	3.50	8.50	3.50	3.00	3.00	5.25	10.50	2.75	2.25	5.00	-0.077637	0.101074	0.985352	-2.450000	1.680000	0.140000	923.00	0.00	-0.13
0.09	1.25	0.50	0.25	0.00	2.25	0.00	1.00	3.00	1.50	3.25	1.00	1.25	5.00	0.00	0.00	0.50	-0.175781	0.084473	0.967773	-2.520000	4.480000	1.190000	250.00	0.07	-0.13	5.00	3.25	5.50	4.00	6.50	6.75	3.25	8.50	3.50	3.25	3.00	5.50	10.50	2.75	2.25	5.00	-0.076660	0.099121	0.985840	-2.520000	1.750000	0.140000	923.00	0.00	-0.13
0.10	1.25	0.25	0.00	0.00	2.50	0.00	1.00	3.00	1.50	3.25	1.25	1.25	5.00	0.00	0.00	0.25	-0.171875	0.089844	0.963867	-2.380000	4.550000	1.120000	249.00	0.08	-0.13	5.00	3.50	5.25	4.00	6.25	6.75	3.25	8.50	3.25	3.25	3.00	5.50	10.50	2.75	2.50	5.00	-0.081543	0.103516	0.983398	-2.450000	1.820000	-0.000000	918.00	0.00	-0.14
0.11	1.50	0.25	0.25	0.00	2.25	0.00	1.00	3.00	1.25	3.25	1.25	1.25	5.00	0.00	0.00	0.25	-0.169434	0.090332	0.960938	-2.450000	4.760000	1.120000	248.00	0.07	-0.13	5.25	3.25	5.25	4.25	6.50	6.75	3.50	8.50	3.50	3.25	3.25	5.50	10.50	2.75	2.25	4.75	-0.072754	0.111328	0.981934	-2.520000	1.750000	-0.140000	931.00	0.00	-0.13
0.12	1.25	0.75	0.00	0.00	2.25	0.00	1.00	2.75	1.50	3.25	1.25	1.00	5.25	0.00	0.00	0.25	-0.170410	0.089844	0.957031	-2.590000	4.760000	1.050000	246.00	0.07	-0.13	5.25	3.25	5.25	4.00	6.25	6.75	3.25	8.50	3.25	3.25	3.00	5.75	10.50	3.00	2.50	5.00	-0.079102	0.103516	0.986328	-2.800000	1.960000	-0.210000	924.00	0.01	-0.13
0.13	1.50	0.50	0.50	0.00	2.25	0.00	1.00	3.25	1.50	3.25	1.50	1.25	5.25	0.00	0.00	0.50	-0.170410	0.085938	0.957520	-2.660000	4.760000	1.050000	268.00	0.07	-0.13	5.00	3.25	5.25	3.50	6.25	6.75	3.50	8.50	3.25	3.25	3.00	5.75	10.50	2.75	2.50	5.00	-0.082520	0.102539	0.988770	-2.870000	1.890000	-0.070000	917.00	0.01	-0.13
0.14	1.25	0.50	0.25	0.00	2.50	0.00	1.00	3.00	1.75	3.25	1.00	1.25	5.00	0.00	0.00	0.50	-0.175293	0.088867	0.962402	-2.520000	4.480000	1.120000	257.00	0.07	-0.12	5.00	3.25	5.25	3.75	6.50	6.50	3.50	8.50	3.50	3.75	3.00	5.75	10.50	2.75	2.25	5.00	-0.086914	0.104004	0.983887	-2.800000	2.030000	-0.140000	926.00	0.01	-0.13
0.15	1.50	0.50	0.25	0.00	2.50	0.00	1.00	3.25	1.50	3.50	1.25	1.25	5.25	0.00	0.00	0.50	-0.170898	0.084473	0.967285	-2.450000	4.340000	1.190000	268.00	0.07	-0.13	5.00	3.25	5.25	4.00	6.50	6.75	3.25	8.50	3.25	3.25	3.25	5.75	10.50	2.75	2.50	5.00	-0.083496	0.102051	0.986816	-2.870000	1.960000	-0.140000	925.00	0.01	-0.14
0.16	1.25	0.75	0.50	0.00	2.25	0.00	1.00	3.25	1.50	3.50	1.25	1.25	5.25	0.00	0.00	0.50	-0.171387	0.088379	0.957520	-2.380000	4.410000	1.260000	268.00	0.07	-0.13	5.00	3.50	5.25	3.75	6.25	6.75	3.50	8.50	3.50	3.25	3.25	5.75	10.50	3.00	2.50	5.00	-0.080566	0.105957	0.983887	-2.870000	2.100000	-0.280000	931.00	0.01	-0.13
0.17	1.75	0.50	0.25	0.00	2.25	0.00	1.00	3.25	2.00	3.50	1.00	1.25	5.00	0.00	0.00	0.50	-0.173340	0.090820	0.957031	-2.590000	4.550000	1.190000	270.00	0.07	-0.12	5.00	3.50	5.00	4.00	6.50	6.75	3.50	8.50	3.25	3.25	3.00	5.50	10.75	2.75	2.50	5.00	-0.083984	0.107910	0.986328	-2.800000	1.890000	-0.000000	925.00	0.01	-0.14
0.18	1.75	0.25	0.00	0.00	2.25	0.00	1.00	3.25	1.50	3.50	1.25	1.50	5.25	0.25	0.00	0.50	-0.170410	0.085449	0.961426	-2.590000	4.480000	1.120000	267.00	0.08	-0.13	5.00	3.50	5.25	3.75	6.50	6.50	3.50	8.50	3.50	3.00	3.25	6.00	10.75	2.75	2.50	5.00	-0.083008	0.103516	0.982910	-2.800000	1.820000	-0.000000	931.00	0.01	-0.13
0.19	1.50	1.25	0.75	0.00	2.50	0.00	1.00	3.50	1.75	3.50	1.50	1.75	5.25	0.25	0.00	0.50	-0.171875	0.089844	0.957520	-2.730000	4.620000	1.260000	300.00	0.06	-0.13	5.00	3.25	5.00	3.75	6.50	6.75	3.50	8.75	3.25	3.25	3.00	5.75	10.75	2.50	2.25	5.00	-0.079102	0.098145	0.980469	-2.940000	1.470000	0.140000	921.00	0.01	-0.14
0.20	2.50	1.25	1.00	0.00	2.50	0.50	1.00	3.75	2.25	3.75	1.75	2.00	5.50	0.75	0.00	0.75	-0.163574	0.088867	0.955566	-2.870000	4.620000	1.330000	349.00	0.05	-0.11	5.25	3.25	5.25	3.75	6.25	6.50	3.50	8.75	3.25	3.25	3.00	5.75	10.75	3.00	2.50	5.00	-0.081543	0.099609	0.974609	-3.010000	1.260000	0.140000	928.00	0.01	-0.13
0.21	2.50	1.50	1.00	0.00	2.50	0.50	1.00	3.75	2.00	3.75	1.50	1.50	5.50	0.75	0.00	0.75	-0.167480	0.082031	0.963379	-2.940000	4.550000	1.330000	339.00	0.04	-0.12	5.00	3.25	5.25	3.75	6.50	6.75	3.50	8.75	3.25	3.25	3.00	6.00	10.75	2.75	2.50	5.00	-0.083496	0.102051	0.980469	-3.150000	0.980000	0.210000	932.00	0.01	-0.14
0.22	3.00	1.75	1.25	0.00	2.75	0.25	1.00	3.75	2.00	3.50	1.25	1.25	5.00	0.00	0.00	0.25	-0.173828	0.084473	0.955566	-3.010000	4.340000	1.260000	327.00	0.01	-0.11	5.00	3.25	5.25	3.50	6.50	6.75	3.50	8.50	3.25	3.25	3.00	5.75	10.75	2.75	2.50	5.00	-0.076660	0.103027	0.985352	-3.290000	0.770000	0.210000	922.00	0.01	-0.13
0.23	1.25	0.50	0.25	0.00	2.50	0.00	1.00	3.25	1.25	3.25	1.00	1.00	5.00	0.00	0.00	0.25	-0.172363	0.085449	0.961914	-3.150000	4.270000	1.260000	249.00	0.06	-0.14	5.00	3.25	5.25	3.75	6.50	6.50	3.50	8.50	3.75	3.25	3.25	5.75	10.75	2.75	2.25	5.00	-0.082031	0.104492	0.980469	-3.570000	0.770000	0.140000	929.00	0.01	-0.13
0.24	1.50	0.25	0.50	0.00	2.50	0.00	1.00	3.25	1.50	3.50	1.00	1.25	5.00	0.00	0.00	0.50	-0.174316	0.089355	0.958984	-3.150000	4.340000	1.330000	263.00	0.06	-0.13	5.00	3.25	5.25	4.00	6.50	6.75	3.50	8.75	3.50	3.25	3.25	5.75	10.75	3.00	2.25	4.75	-0.080566	0.097168	0.983887	-3.570000	0.560000	0.140000	937.00	0.01	-0.13
0.25	1.50	0.75	0.00	0.00	2.50	0.00	1.00	3.00	1.25	3.25	1.25	1.25	5.00	0.00	0.00	0.25	-0.170898	0.084961	0.961426	-3.290000	4.270000	1.330000	253.00	0.06	-0.13	5.00	3.50	5.25	4.00	6.50	6.75	3.50	8.50	3.25	3.25	3.25	6.00	10.75	2.75	2.50	5.00	-0.079102	0.101074	0.983398	-3.500000	0.420000	0.140000	936.00	0.01	-0.14
0.26	1.50	0.50	0.25	0.00	2.25	0.00	1.00	3.25	1.25	3.25	1.25	1.25	5.00	0.00	0.00	0.25	-0.166504	0.085449	0.959961	-3.430000	4.410000	1.260000	255.00	0.06	-0.14	5.25	3.50	5.25	4.00	6.50	6.75	3.50	8.75	3.25	3.25	3.00	5.75	10.75	2.75	2.25	5.00	-0.084473	0.105469	0.981934	-3.360000	0.490000	0.210000	935.00	0.00	-0.14
0.27	4.50	3.50	2.75	1.25	4.50	2.00	1.25	5.75	3.00	4.25	2.00	2.25	6.50	1.00	0.50	1.25	-0.166992	0.085449	0.958008	-3.220000	4.270000	1.190000	553.00	-0.01	-0.11	5.00	3.25	5.25	3.75	6.50	6.75	3.50	8.50	3.50	3.25	3.25	5.75	10.75	2.75	2.00	5.00	-0.080566	0.103516	0.983887	-3.150000	0.770000	0.140000	926.00	0.01	-0.13
0.28	4.00	3.00	2.00	1.00	4.25	1.75	1.00	5.00	1.75	3.25	1.25	1.25	5.25	0.50	0.25	1.00	-0.172363	0.094238	0.960938	-3.360000	4.480000	1.120000	437.00	-0.03	-0.12	5.25	3.50	5.25	4.00	6.75	7.00	3.50	8.75	3.25	3.00	3.00	5.75	10.50	2.75	2.25	5.00	-0.080078	0.105469	0.990723	-3.010000	0.700000	0.280000	936.00	0.00	-0.14
0.29	1.50	0.75	0.25	0.00	3.25	0.00	1.00	4.50	2.00	3.50	1.75	1.75	6.00	0.75	0.00	0.50	-0.168457	0.086426	0.963379	-3.360000	4.480000	0.980000	333.00	0.07	-0.14	5.25	3.50	5.50	4.00	6.75	6.75	3.50	8.75	3.25	3.00	3.00	5.50	10.75	2.75	2.25	5.00	-0.077637	0.100098	0.986328	-3.010000	0.770000	0.210000	935.00	0.00	-0.13
0.30	2.00	1.25	0.50	0.00	3.50	0.50	1.00	5.00	2.25	3.75	1.25	1.25	5.50	0.00	0.00	0.50	-0.170898	0.084961	0.960938	-3.220000	4.200000	1.120000	347.00	0.04	-0.13	5.00	3.25	5.25	4.00	6.75	6.75	3.50	8.75	3.25	3.25	3.00	5.75	10.75	2.75	2.50	5.00	-0.079590	0.103516	0.982910	-2.800000	0.770000	0.210000	935.00	0.01	-0.14
0.31	2.00	1.00	0.75	0.00	3.00	0.00	1.00	4.25	1.50	3.25	1.00	1.25	5.00	0.00	0.00	0.25	-0.170898	0.090820	0.958984	-3.080000	4.340000	1.120000	298.00	0.03	-0.13	5.25	3.50	5.50	4.00	6.75	6.75	3.50	8.75	3.25	3.25	3.00	5.75	10.50	2.75	2.25	5.00	-0.078613	0.104004	0.985352	-2.660000	0.700000	0.210000	938.00	0.00	-0.13
0.32	1.50	1.00	0.25	0.00	3.25	0.00	1.00	4.00	1.50	3.25	1.00	1.00	4.75	0.00	0.00	0.25	-0.173340	0.084473	0.961426	-2.940000	4.550000	1.190000	280.00	0.04	-0.13	5.25	3.25	5.50	4.00	6.75	7.00	3.50	8.75	3.25	3.00	2.75	5.75	10.75	2.50	2.00	4.50	-0.078125	0.104492	0.983887	-2.660000	0.770000	0.280000	927.00	-0.00	-0.14
0.33	1.50	0.50	0.25	0.00	3.25	0.00	1.00	4.00	1.25	3.25	1.00	1.25	4.75	0.00	0.00	0.25	-0.171387	0.083984	0.955078	-2.730000	4.550000	1.260000	274.00	0.05	-0.14	5.25	3.50	5.25	4.25	6.75	7.00	3.50	8.50	3.25	3.00	3.00	5.75	10.75	2.50	2.25	4.75	-0.081543	0.106445	0.984863	-2.730000	0.700000	0.350000	933.00	-0.00	-0.14
0.34	1.25	0.50	1.00	0.00	3.00	0.00	1.00	4.00	1.50	3.25	1.00	1.25	5.00	0.00	0.00	0.25	-0.174316	0.084961	0.956055	-2.590000	4.550000	1.260000	283.00	0.05	-0.13	5.25	3.50	5.50	4.00	6.75	7.00	3.50	8.75	3.25	3.00	2.75	5.75	10.75	2.75	2.25	5.00	-0.086426	0.103516	0.993164	-2.660000	0.560000	0.350000	938.00	-0.00	-0.14
0.35	1.50	0.50	0.25	0.00	3.00	0.00	1.00	3.75	1.25	3.25	1.25	1.00	5.00	0.00	0.00	0.25	-0.166992	0.086426	0.961914	-2.520000	4.410000	1.330000	269.00	0.05	-0.14	5.25	3.75	5.50	4.00	6.75	6.75	3.50	8.50	3.25	3.25	3.00	5.50	10.50	2.75	2.25	4.75	-0.078613	0.106934	0.980469	-2.590000	0.700000	0.210000	932.00	-0.00	-0.13
0.36	1.50	0.75	0.50	0.00	3.00	0.00	1.00	4.00	1.25	3.25	1.00	0.75	4.75	0.00	0.00	0.25	-0.171875	0.090820	0.960449	-2.870000	4.130000	1.260000	271.00	0.04	-0.13	5.25	3.75	5.50	4.25	7.00	7.00	3.50	8.75	3.25	3.00	3.00	5.50	10.50	2.75	2.00	4.75	-0.077148	0.102051	0.977051	-2.730000	0.630000	0.210000	940.00	-0.00	-0.13
0.37	1.50	0.75	0.25	0.00	3.00	0.00	1.00	4.00	1.00	3.25	1.00	1.25	4.75	0.00	0.00	0.00	-0.172852	0.085449	0.960938	-3.010000	4.270000	1.260000	268.00	0.04	-0.15	5.50	3.50	5.50	4.25	7.00	7.00	3.50	8.75	3.25	2.75	2.75	5.50	10.50	2.50	2.00	4.50	-0.083008	0.104980	0.984863	-2.870000	0.350000	0.210000	931.00	-0.01	-0.13
0.38	1.50	0.50	0.50	0.00	3.00	0.00	1.00	4.00	1.25	3.50	0.75	1.00	5.00	0.25	0.00	0.25	-0.169434	0.084473	0.961914	-3.080000	4.340000	1.190000	276.00	0.05	-0.13	5.50	3.50	5.50	4.00	6.75	7.25	3.50	8.75	3.25	3.00	2.50	5.50	10.75	2.75	2.50	4.50	-0.078125	0.101562	0.988281	-3.010000	0.280000	0.070000	938.00	-0.00	-0.13
0.39	1.50	0.25	0.50	0.00	3.00	0.00	1.00	3.75	1.25	3.00	1.25	1.00	4.75	0.00	0.00	0.25	-0.170898	0.087402	0.963867	-3.080000	4.550000	1.120000	265.00	0.05	-0.13	5.50	3.50	5.50	4.25	6.75	7.25	3.50	8.75	3.25	3.00	2.75	5.75	10.75	2.75	2.25	4.50	-0.076660	0.105469	0.983887	-3.150000	0.420000	0.140000	944.00	-0.00	-0.13
0.40	1.50	0.25	1.00	0.00	3.00	0.00	1.00	3.75	1.25	3.00	1.00	1.00	4.75	0.00	0.00	0.25	-0.169922	0.085449	0.961426	-2.730000	4.760000	1.120000	268.00	0.04	-0.13	5.25	3.50	5.75	4.25	6.75	7.00	3.50	8.75	3.25	3.00	2.75	5.75	10.75	2.50	2.25	4.50	-0.083008	0.098633	0.979004	-2.940000	0.700000	0.140000	939.00	-0.00	-0.14
0.41	1.50	0.75	0.25	0.00	3.00	0.00	1.00	3.75	1.25	3.00	1.00	1.25	5.00	0.00	0.00	0.25	-0.168945	0.083496	0.959961	-2.380000	4.830000	1.260000	269.00	0.05	-0.14	5.50	3.75	5.50	4.25	7.00	7.25	3.50	8.75	3.00	3.00	2.75	5.75	10.50	2.75	2.25	4.25	-0.082031	0.106934	0.980957	-2.730000	0.840000	0.280000	942.00	-0.01	-0.13
0.42	1.50	0.25	0.25	0.00	3.00	0.00	1.00	3.75	1.25	3.25	1.00	0.75	5.00	0.00	0.00	0.00	-0.173340	0.089844	0.960449	-2.100000	5.040000	1.190000	259.00	0.05	-0.13	5.25	3.50	5.50	4.50	6.75	7.25	3.50	8.75	3.00	3.00	3.00	5.75	10.75	2.50	2.00	4.50	-0.074707	0.101074	0.985352	-2.730000	1.050000	0.140000	938.00	-0.01	-0.14
0.43	1.50	0.25	0.75	0.00	3.00	0.00	1.00	4.00	1.50	3.25	1.00	1.00	5.25	0.00	0.00	0.00	-0.168457	0.085449	0.959473	-2.030000	5.180000	1.190000	278.00	0.05	-0.13	5.25	3.75	5.50	4.50	7.00	7.25	3.50	8.75	3.00	2.75	2.75	5.75	10.75	2.75	2.25	4.50	-0.082031	0.106934	0.983398	-2.730000	1.260000	-0.000000	943.00	-0.01	-0.14
0.44	1.50	0.75	0.50	0.00	2.75	0.00	1.00	3.75	1.75	3.25	1.00	1.00	5.00	0.00	0.00	0.25	-0.169434	0.086914	0.956055	-1.960000	5.250000	1.050000	276.00	0.05	-0.13	5.25	3.25	5.50	4.25	6.75	7.25	3.50	8.75	3.00	3.00	2.50	6.00	10.75	2.75	2.25	4.50	-0.084473	0.104004	0.981445	-2.730000	1.330000	-0.000000	935.00	-0.00	-0.14
0.45	2.00	0.75	0.50	0.00	3.00	0.00	1.00	3.75	1.50	3.25	1.00	1.25	5.00	0.25	0.00	0.50	-0.172363	0.080566	0.958984	-2.170000	5.530000	0.980000	288.00	0.04	-0.13	5.25	3.50	5.50	4.25	6.75	7.00	3.50	8.75	3.25	3.00	2.75	5.75	10.75	2.75	2.00	4.50	-0.079590	0.104004	0.984863	-2.870000	1.050000	-0.000000	935.00	-0.00	-0.14
0.46	1.75	1.25	0.75	0.00	3.00	0.00	1.00	4.00	1.50	3.50	1.25	1.50	5.00	0.00	0.00	0.25	-0.172363	0.088867	0.964844	-2.310000	5.390000	1.050000	302.00	0.04	-0.13	5.00	3.50	5.50	4.00	6.75	7.00	3.50	8.75	3.00	3.00	2.75	5.75	10.75	2.50	2.00	4.50	-0.081055	0.102051	0.980469	-3.080000	1.330000	-0.140000	924.00	-0.00	-0.14
0.47	1.75	1.25	0.50	0.00	2.75	0.00	1.00	3.75	1.50	3.50	1.00	1.25	5.00	0.25	0.00	0.25	-0.169434	0.083008	0.955566	-2.450000	5.250000	1.120000	288.00	0.04	-0.13	5.25	3.25	5.50	4.25	6.75	7.25	3.50	8.75	3.00	2.75	2.75	5.75	11.00	2.75	2.25	4.75	-0.075195	0.102539	0.978027	-3.010000	1.540000	-0.140000	936.00	-0.00	-0.14
0.48	1.75	1.25	0.75	0.00	3.00	0.00	1.00	4.00	1.50	3.50	1.00	1.25	4.75	0.00	0.00	0.25	-0.175293	0.084961	0.955566	-2.520000	5.180000	1.050000	294.00	0.03	-0.13	5.25	3.50	5.50	4.25	6.75	7.25	3.50	8.75	3.25	3.25	2.75	5.75	11.00	2.75	2.50	5.00	-0.081055	0.104492	0.985352	-3.150000	1.120000	-0.070000	952.00	0.00	-0.14
0.49	1.75	1.00	0.50	0.00	3.00	0.00	1.00	4.00	1.50	3.25	1.25	1.25	5.00	0.25	0.00	0.25	-0.169434	0.080566	0.957031	-2.590000	5.110000	1.050000	293.00	0.04	-0.13	5.25	3.50	5.50	4.25	7.00	7.00	3.50	8.75	3.25	3.00	3.00	5.75	11.00	2.75	2.25	4.75	-0.079590	0.098145	0.979980	-3.290000	1.050000	-0.140000	948.00	-0.00	-0.14
0.50	1.50	0.75	0.75	0.00	3.00	0.25	1.00	4.00	1.75	3.25	1.25	1.25	5.00	0.00	0.00	0.25	-0.171875	0.085449	0.960449	-2.660000	5.040000	0.980000	295.00	0.04	-0.13	5.25	3.50	5.50	4.00	6.75	7.25	3.50	9.00	3.25	3.00	3.00	6.00	11.00	2.50	2.25	4.75	-0.082031	0.103027	0.987305	-3.430000	1.190000	-0.070000	950.00	-0.00	-0.14
0.51	2.00	1.25	0.75	0.00	3.00	0.00	1.00	4.00	1.75	3.50	1.25	1.50	5.25	0.25	0.00	0.25	-0.174316	0.081543	0.962891	-2.660000	5.040000	0.980000	313.00	0.04	-0.12	5.25	3.50	5.50	4.00	6.75	7.25	3.50	8.75	3.50	3.00	2.75	6.00	11.00	2.75	2.50	4.75	-0.081055	0.104980	0.988281	-3.360000	1.050000	-0.000000	951.00	0.00	-0.14
0.52	2.00	1.25	1.00	0.00	3.00	0.00	1.00	4.00	1.75	3.50	1.50	1.25	5.25	0.25	0.00	0.50	-0.171387	0.088379	0.961426	-2.520000	4.970000	0.980000	318.00	0.04	-0.12	5.25	3.50	5.25	4.00	6.75	7.25	3.50	8.75	3.25	3.25	3.00	6.25	11.00	2.75	2.50	5.00	-0.078125	0.106934	0.982910	-3.290000	1.190000	-0.000000	955.00	0.00	-0.14
0.53	2.00	1.25	1.00	0.00	3.00	0.00	1.00	4.00	1.75	3.25	1.25	1.25	5.00	0.00	0.00	0.50	-0.174805	0.086914	0.958496	-2.450000	4.970000	1.050000	307.00	0.03	-0.12	5.00	3.75	5.50	3.75	6.75	7.00	3.50	9.00	3.25	3.25	3.00	6.00	11.00	2.75	2.25	5.00	-0.079102	0.106445	0.978027	-3.150000	1.330000	-0.000000	950.00	0.00	-0.14
0.54	2.25	1.00	0.50	0.00	2.75	0.00	1.00	4.00	1.50	3.50	1.00	1.25	5.00	0.25	0.00	0.25	-0.172363	0.082031	0.961426	-2.450000	5.040000	1.050000	296.00	0.04	-0.13	5.25	3.25	5.25	4.25	6.50	7.00	3.50	8.75	3.50	3.00	3.00	6.00	11.00	2.50	2.25	4.75	-0.079102	0.101074	0.982422	-3.010000	1.330000	0.070000	940.00	0.00	-0.14
0.55	1.50	0.75	0.25	0.00	2.75	0.00	1.00	4.00	1.75	3.50	1.25	1.25	5.25	0.25	0.00	0.50	-0.175781	0.092773	0.958496	-2.590000	4.900000	1.120000	292.00	0.06	-0.13	5.25	3.50	5.50	4.00	6.75	7.25	3.50	9.00	3.25	3.25	3.00	6.00	11.00	2.75	2.50	5.00	-0.079590	0.105469	0.978027	-3.150000	1.260000	0.070000	959.00	0.00	-0.14
0.56	2.25	1.25	0.75	0.00	3.00	0.25	1.00	4.00	1.75	3.50	1.25	1.25	5.25	0.25	0.00	0.50	-0.174316	0.087402	0.958496	-2.730000	4.900000	1.050000	317.00	0.03	-0.12	5.25	3.50	5.50	4.00	6.75	7.25	3.50	8.75	3.50	2.75	2.75	6.25	11.00	2.75	2.25	5.00	-0.079590	0.105957	0.986816	-3.150000	1.190000	0.140000	950.00	0.00	-0.14
0.57	2.25	1.25	0.50	0.00	3.00	0.00	1.00	4.00	1.75	3.50	1.50	1.25	5.00	0.25	0.00	0.50	-0.173340	0.087891	0.962891	-2.730000	4.830000	1.050000	312.00	0.04	-0.12	5.25	3.50	5.50	4.00	6.75	7.25	3.50	8.75	3.25	3.25	3.25	6.25	11.00	2.50	2.50	5.00	-0.083008	0.104004	0.985352	-3.220000	1.120000	0.140000	958.00	0.00	-0.14
0.58	2.00	1.00	0.75	0.00	3.00	0.25	1.00	4.25	1.75	3.75	1.50	1.25	5.00	0.25	0.00	0.25	-0.169922	0.087402	0.961914	-2.590000	4.620000	1.120000	318.00	0.04	-0.12	5.25	3.50	5.25	4.50	7.00	7.25	3.50	8.75	3.50	3.00	3.25	6.25	11.00	3.00	2.25	5.00	-0.078125	0.101562	0.982910	-3.290000	0.980000	0.070000	967.00	0.00	-0.14
0.59	2.00	1.25	0.75	0.00	3.00	0.00	1.00	4.00	2.00	3.50	1.50	1.25	5.00	0.75	0.00	0.50	-0.174316	0.085938	0.960938	-2.520000	4.340000	1.120000	320.00	0.05	-0.11	5.25	3.50	5.50	4.00	6.75	7.25	3.50	8.75	3.25	3.25	3.00	6.00	11.00	2.75	2.50	5.00	-0.081543	0.108887	0.983398	-3.360000	0.910000	0.140000	955.00	0.00	-0.14
0.60	2.00	1.25	0.75	0.00	3.00	0.00	1.00	4.25	2.00	3.75	1.50	1.25	5.25	0.25	0.00	0.50	-0.164551	0.087891	0.966309	-2.660000	4.270000	1.190000	325.00	0.04	-0.12	5.25	3.50	5.25	4.00	6.75	7.25	3.50	9.00	3.25	3.25	3.00	6.50	11.00	2.75	2.50	4.75	-0.083496	0.102051	0.978027	-3.290000	0.980000	-0.070000	960.00	0.00	-0.14
0.61	2.00	0.25	1.00	0.00	3.00	0.00	1.00	4.00	2.00	3.50	1.50	1.25	5.00	0.25	0.00	0.50	-0.172363	0.087402	0.960449	-2.590000	4.480000	1.050000	309.00	0.05	-0.11	5.25	3.50	5.25	4.00	6.75	7.25	3.75	9.00	3.25	3.00	3.00	6.25	11.00	2.75	2.25	4.75	-0.086426	0.105469	0.985352	-3.220000	0.910000	0.140000	956.00	0.00	-0.14
0.62	2.00	0.75	0.75	0.00	3.25	0.25	1.00	4.00	1.75	3.50	1.50	1.25	5.25	0.25	0.00	0.50	-0.174316	0.089844	0.959473	-2.520000	4.830000	1.050000	315.00	0.04	-0.12	5.25	3.50	5.50	4.00	7.00	7.25	3.50	9.00	3.25	3.25	3.00	6.50	11.00	2.75	2.25	5.00	-0.083984	0.105469	0.985840	-3.150000	0.910000	0.070000	965.00	0.00	-0.14
0.63	2.25	1.25	0.75	0.00	3.00	0.25	1.00	4.00	2.00	3.75	1.50	1.25	5.25	0.25	0.00	0.50	-0.171875	0.094238	0.955566	-2.450000	4.760000	1.190000	327.00	0.04	-0.12	5.25	3.50	5.25	4.25	7.00	7.25	3.50	9.00	3.25	3.00	3.00	6.50	11.00	2.50	2.50	5.00	-0.082031	0.104980	0.979004	-3.150000	0.980000	0.140000	963.00	0.00	-0.14
0.64	2.25	1.25	1.00	0.00	3.00	0.25	1.00	4.00	1.75	3.50	1.50	1.25	5.25	0.25	0.00	0.50	-0.171875	0.086914	0.958008	-2.520000	4.760000	1.120000	323.00	0.03	-0.12	5.25	3.50	5.50	3.75	6.75	7.25	3.50	9.00	3.25	3.25	3.00	6.50	11.00	2.75	2.25	5.00	-0.084961	0.105469	0.986328	-3.150000	0.980000	0.070000	959.00	0.00	-0.14
0.65	2.00	1.00	0.75	0.00	3.00	0.00	1.00	4.00	1.75	3.50	1.50	1.50	5.25	0.75	0.00	0.75	-0.173340	0.082031	0.963379	-2.590000	4.690000	1.120000	321.00	0.05	-0.12	5.25	3.50	5.50	4.00	6.75	7.25	3.50	9.00	3.50	3.00	3.25	6.25	11.00	2.75	2.75	5.00	-0.081543	0.100586	0.989746	-3.220000	0.980000	0.140000	968.00	0.01	-0.14
0.66	2.25	1.75	0.50	0.00	3.00	0.25	1.00	4.25	1.50	3.50	1.50	1.25	5.25	0.25	0.00	0.75	-0.168457	0.086426	0.966309	-2.450000	4.690000	1.050000	324.00	0.03	-0.13	5.25	3.50	5.50	4.25	7.00	7.25	3.50	8.75	3.50	3.25	3.00	6.50	11.00	2.75	2.25	5.00	-0.078125	0.108398	0.981934	-3.290000	1.050000	0.210000	967.00	0.00	-0.14
0.67	2.00	1.50	0.50	0.00	3.00	0.25	1.00	4.00	2.00	3.50	1.25	1.50	5.00	0.25	0.00	0.25	-0.169434	0.087402	0.960938	-2.310000	4.760000	1.190000	317.00	0.04	-0.12	5.25	3.50	5.50	4.00	7.00	7.25	3.50	8.75	3.25	3.25	3.25	6.50	11.25	2.75	2.25	5.00	-0.080078	0.102051	0.990723	-3.150000	1.190000	0.140000	966.00	0.00	-0.14
0.68	2.00	1.00	0.75	0.00	3.00	0.25	1.00	4.00	2.00	3.50	1.50	1.50	5.50	0.25	0.00	0.50	-0.173340	0.087891	0.956543	-2.240000	4.690000	1.190000	324.00	0.05	-0.12	5.25	3.50	5.25	4.25	7.00	7.25	3.50	8.75	3.00	2.75	3.00	6.25	11.00	2.75	2.50	5.00	-0.083496	0.101562	0.985840	-3.150000	1.190000	0.140000	951.00	0.00	-0.14
0.69	2.00	1.25	0.75	0.00	3.00	0.00	1.00	4.00	1.75	3.50	1.50	1.50	5.25	0.25	0.00	0.50	-0.169434	0.084961	0.959961	-2.240000	4.690000	1.120000	317.00	0.04	-0.13	5.25	3.50	5.50	4.00	7.00	7.25	3.50	8.75	3.25	3.00	3.00	6.25	11.00	2.50	2.00	4.75	-0.084961	0.103516	0.987305	-3.150000	1.050000	0.210000	948.00	-0.00	-0.14
0.70	2.00	1.25	1.00	0.00	3.00	0.25	1.00	4.00	1.50	3.50	1.50	1.25	5.25	0.50	0.00	0.25	-0.174805	0.086914	0.961426	-2.380000	4.550000	1.120000	318.00	0.03	-0.12	5.25	3.50	5.25	4.00	7.00	7.00	3.50	8.75	3.25	3.00	2.75	6.25	11.00	2.75	2.25	5.00	-0.080566	0.107422	0.983887	-3.220000	1.190000	0.140000	946.00	0.00	-0.14
0.71	2.25	1.00	0.75	0.00	3.00	0.00	1.00	4.25	1.75	3.50	1.25	1.25	5.25	0.25	0.00	0.25	-0.168945	0.088379	0.959473	-2.310000	4.690000	1.190000	315.00	0.04	-0.12	5.25	3.50	5.50	4.25	7.00	7.00	3.50	9.00	3.00	3.25	2.75	6.50	11.00	2.75	2.25	5.00	-0.082520	0.103516	0.982422	-3.150000	1.050000	0.280000	959.00	0.00	-0.14
0.72	2.00	1.25	0.75	0.00	3.00	0.00	1.00	4.00	1.50	3.50	1.50	1.50	5.00	0.50	0.00	0.50	-0.171875	0.082031	0.960449	-2.520000	4.760000	1.190000	314.00	0.04	-0.12	5.25	3.50	5.50	4.25	7.00	7.25	3.50	9.00	3.25	3.00	2.75	6.50	11.00	2.50	2.50	4.75	-0.082520	0.103516	0.982422	-3.290000	0.910000	0.140000	961.00	-0.00	-0.14
0.73	2.25	1.25	1.00	0.00	3.00	0.25	1.00	4.25	1.75	3.50	1.50	1.25	5.25	0.25	0.00	0.75	-0.166504	0.084473	0.958984	-2.730000	4.760000	1.120000	329.00	0.03	-0.13	5.25	3.50	5.25	4.00	7.00	7.25	3.50	8.75	3.25	3.00	3.00	6.50	11.00	3.00	2.25	5.00	-0.077148	0.100586	0.981934	-3.290000	0.980000	0.210000	957.00	0.00	-0.14
0.74	2.25	1.25	1.00	0.00	3.00	0.25	1.00	4.25	1.75	3.50	1.25	1.25	5.25	0.75	0.00	0.75	-0.169434	0.089355	0.950195	-2.800000	4.690000	1.190000	331.00	0.04	-0.12	5.25	3.75	5.75	4.50	7.00	7.25	3.50	9.00	2.75	3.00	2.75	6.25	11.00	2.50	2.25	4.75	-0.081543	0.104980	0.984375	-3.150000	1.050000	0.140000	957.00	-0.01	-0.14
0.75	2.50	1.00	1.00	0.00	3.00	0.50	1.00	4.00	1.50	3.50	1.25	1.50	5.25	0.50	0.00	0.50	-0.176758	0.084961	0.964844	-2.870000	4.690000	1.260000	325.00	0.03	-0.12	5.50	3.50	5.50	4.00	7.25	7.25	3.50	8.75	3.25	3.00	3.00	6.50	11.00	2.75	2.25	4.75	-0.083496	0.102539	0.986328	-3.220000	0.980000	0.210000	962.00	-0.00	-0.14
0.76	2.50	1.25	1.00	0.00	3.25	0.50	1.00	4.25	2.00	3.50	1.25	1.50	5.25	0.50	0.00	0.50	-0.170898	0.086914	0.962402	-2.870000	4.550000	1.190000	342.00	0.03	-0.12	5.25	3.50	5.25	4.00	7.00	7.25	3.50	8.75	3.25	3.25	2.75	6.50	11.00	2.75	2.25	4.75	-0.075684	0.105469	0.982422	-3.220000	0.910000	0.280000	953.00	0.00	-0.14
0.77	2.50	1.50	1.25	0.00	3.25	0.50	1.00	4.25	1.75	3.50	1.50	1.25	5.25	0.25	0.00	0.50	-0.168945	0.083984	0.959961	-2.940000	4.620000	1.190000	342.00	0.02	-0.12	5.25	3.50	5.50	4.25	7.00	7.25	3.50	8.75	3.25	3.00	3.00	6.25	11.00	2.75	2.50	4.50	-0.077148	0.102051	0.982422	-3.220000	1.050000	0.140000	958.00	0.00	-0.14
0.78	2.50	1.75	1.25	0.00	3.25	0.50	1.00	4.25	2.00	3.75	1.50	1.25	5.25	0.50	0.00	0.50	-0.166504	0.084961	0.953125	-3.010000	4.410000	1.190000	353.00	0.02	-0.11	5.50	3.50	5.75	4.25	7.00	7.25	3.50	8.75	3.00	3.00	2.50	6.50	11.00	2.75	2.25	4.75	-0.077637	0.101562	0.980469	-3.150000	0.980000	0.280000	956.00	-0.00	-0.14
0.79	3.00	1.50	1.50	0.00	3.25	0.75	1.00	4.50	2.00	3.50	1.25	1.25	5.25	0.50	0.00	0.50	-0.176270	0.086914	0.958496	-3.220000	4.200000	1.330000	361.00	0.01	-0.11	5.25	3.50	5.50	4.25	7.25	7.25	3.50	8.75	3.00	2.75	2.75	6.00	11.00	2.50	2.00	4.75	-0.084473	0.102539	0.987793	-2.870000	0.840000	0.280000	942.00	-0.01	-0.14
0.80	3.50	2.50	1.50	0.00	3.00	0.50	1.00	4.25	2.25	3.50	1.25	1.25	5.00	0.75	0.00	0.50	-0.170410	0.085938	0.956543	-3.360000	3.990000	1.190000	370.00	-0.00	-0.10	5.50	3.50	5.75	4.50	7.00	7.25	3.50	9.00	3.00	3.00	2.75	6.50	10.75	2.50	2.00	4.50	-0.080566	0.105957	0.981934	-2.660000	0.560000	0.420000	957.00	-0.01	-0.14
0.81	2.00	1.25	1.00	0.00	3.25	0.50	1.00	4.00	1.75	3.50	1.25	1.25	5.00	0.00	0.00	0.50	-0.172363	0.083984	0.958496	-2.940000	4.270000	1.260000	319.00	0.03	-0.12	5.50	3.75	5.75	4.50	7.00	7.25	3.50	8.75	3.25	2.75	2.75	6.00	10.75	2.50	2.00	4.25	-0.088379	0.103516	0.985352	-2.730000	0.350000	0.420000	949.00	-0.01	-0.14
0.82	2.25	0.25	0.75	0.00	3.00	0.50	1.00	4.25	1.50	3.50	1.25	1.25	5.25	0.25	0.00	0.50	-0.175781	0.083496	0.962402	0.210000	4.270000	1.750000	311.00	0.04	-0.13	5.25	3.75	5.75	4.50	7.00	7.50	3.50	8.75	2.75	2.75	2.50	6.00	10.75	2.50	2.00	4.25	-0.092773	0.101562	0.991699	-1.750000	0.210000	0.770000	939.00	-0.01	-0.14
0.83	3.00	1.75	1.75	0.25	3.50	1.00	1.00	4.75	1.75	3.25	1.25	1.25	5.50	0.00	0.00	0.50	-0.176758	0.089844	0.954102	1.540000	3.710000	2.170000	371.00	-0.01	-0.13	5.50	3.75	5.75	4.50	7.00	7.50	3.50	8.75	2.50	2.50	2.50	6.00	10.50	2.50	1.75	4.00	-0.085449	0.103516	0.994141	-0.280000	0.630000	0.770000	929.00	-0.02	-0.14
0.84	2.75	1.75	1.25	0.00	3.25	1.00	1.00	5.00	1.50	3.25	1.25	1.25	5.25	0.25	0.00	0.50	-0.173340	0.089355	0.956055	1.750000	2.870000	2.520000	356.00	0.00	-0.14	5.50	3.75	6.00	4.75	7.25	7.50	3.25	8.75	3.00	2.50	2.25	5.50	10.50	2.25	2.00	3.75	-0.095703	0.104004	1.002441	3.080000	1.050000	1.400000	931.00	-0.02	-0.14
0.85	3.75	2.25	2.50	0.75	4.25	2.25	1.00	5.75	2.25	3.50	1.50	1.75	6.00	0.75	0.25	0.75	-0.175781	0.084473	0.962891	1.540000	2.030000	2.870000	475.00	-0.01	-0.12	5.75	4.00	6.25	5.00	7.00	7.50	3.25	8.75	2.50	2.25	1.75	5.25	10.25	2.25	1.75	3.25	-0.091309	0.109375	1.005371	5.040000	0.630000	2.100000	913.00	-0.03	-0.14
0.86	4.25	3.00	2.75	1.00	4.00	1.25	1.00	5.25	1.00	3.00	0.50	0.50	4.25	0.00	0.00	0.00	-0.176758	0.093262	0.966797	1.820000	1.610000	3.430000	390.00	-0.08	-0.12	5.75	3.75	6.25	4.50	6.75	7.25	3.00	8.00	0.75	1.00	0.50	3.00	8.75	0.50	0.00	2.00	-0.087402	0.111816	0.997070	6.790000	0.070000	2.380000	744.00	-0.09	-0.15
0.87	2.75	1.25	1.50	0.00	3.50	0.75	1.00	5.25	0.75	2.50	0.75	0.75	4.50	0.00	0.00	0.00	-0.184082	0.090332	0.956543	2.380000	0.910000	4.060000	316.00	-0.03	-0.14	5.00	3.25	5.25	4.00	6.00	6.75	3.00	8.00	0.75	1.00	0.50	3.25	8.75	0.50	0.00	1.00	-0.098145	0.106445	0.991699	7.910000	-0.210000	2.520000	695.00	-0.08	-0.16
0.88	4.00	3.00	2.75	1.25	3.75	1.50	1.00	5.50	0.75	2.75	0.50	0.75	4.50	0.00	0.00	0.00	-0.190430	0.087891	0.965820	2.660000	0.140000	4.690000	394.00	-0.08	-0.13	5.00	3.00	5.50	5.25	7.50	6.75	2.75	8.50	0.50	1.75	1.25	2.25	8.50	0.25	0.00	1.00	-0.086426	0.108398	0.985840	8.680000	-0.560000	2.450000	730.00	-0.08	-0.15
0.89	4.00	2.00	2.25	0.75	3.50	1.50	1.00	5.25	0.50	2.25	0.50	0.75	4.25	0.00	0.00	0.00	-0.179199	0.087891	0.972168	5.040000	-0.840000	5.530000	353.00	-0.07	-0.14	5.50	3.50	6.00	4.75	6.25	6.75	2.75	8.00	0.50	0.50	0.50	2.00	8.25	0.25	0.00	1.00	-0.087402	0.120605	0.993652	9.730000	-1.120000	2.660000	689.00	-0.10	-0.15
0.90	7.50	5.25	5.25	4.25	5.25	3.75	1.00	6.25	1.25	3.00	1.25	1.00	5.00	0.25	0.00	0.00	-0.174316	0.090820	0.969238	7.070000	-1.750000	6.020000	608.00	-0.12	-0.11	5.50	3.50	5.75	4.75	6.00	7.00	2.75	8.50	1.50	1.25	0.50	1.50	7.75	0.25	0.00	0.50	-0.079102	0.124023	0.988770	11.340000	-0.770000	2.800000	704.00	-0.09	-0.14
0.91	8.50	5.25	6.00	5.25	5.25	4.25	1.00	6.00	1.25	2.50	0.25	0.25	2.25	0.00	0.00	0.00	-0.157227	0.082031	0.958008	9.030000	-2.450000	6.370000	588.00	-0.17	-0.09	6.00	4.00	7.00	5.25	6.00	6.75	2.75	8.00	0.25	0.50	0.25	1.25	7.50	0.00	0.00	0.75	-0.061035	0.126465	0.991211	12.530000	-0.840000	2.240000	689.00	-0.12	-0.15
0.92	7.00	5.00	5.25	3.75	4.25	2.50	1.00	5.25	0.25	2.00	0.00	0.00	2.75	0.00	0.00	0.00	-0.164062	0.097168	0.964844	11.830000	-3.500000	6.720000	475.00	-0.17	-0.10	6.25	4.25	7.75	5.25	6.00	6.75	2.75	7.75	0.25	0.50	0.25	1.25	6.75	0.00	0.00	0.25	-0.077148	0.141602	0.985352	12.390000	-2.310000	1.610000	689.00	-0.13	-0.14
0.93	8.75	5.75	7.00	5.25	5.00	3.25	1.00	5.50	0.25	2.25	0.75	0.00	2.50	0.00	0.00	0.00	-0.152832	0.108887	0.974121	14.490000	-4.060000	6.720000	573.00	-0.18	-0.09	6.50	4.75	7.75	5.50	6.00	6.75	2.50	7.75	0.00	0.25	0.25	1.25	6.25	0.00	0.00	0.25	-0.086426	0.131348	0.985352	12.180000	-4.130000	1.890000	685.00	-0.14	-0.14
0.94	8.25	5.50	6.25	5.25	4.75	3.25	0.75	5.50	0.50	2.25	0.50	0.25	3.25	0.25	0.25	0.00	-0.172852	0.100586	0.998047	18.129999	-4.480000	7.070000	565.00	-0.17	-0.10	7.75	5.00	7.75	6.00	5.75	6.75	2.50	7.50	0.25	0.25	0.25	1.25	5.75	0.00	0.00	0.25	-0.085449	0.126953	0.986816	11.690000	-5.110000	2.030000	699.00	-0.15	-0.13
0.95	11.75	8.25	8.00	7.75	5.50	5.00	1.00	6.00	0.75	2.50	0.50	0.25	3.00	0.00	0.00	0.00	-0.143555	0.122070	0.995605	20.860001	-6.020000	7.140000	724.00	-0.20	-0.09	8.25	5.25	8.00	6.00	5.75	6.50	2.50	7.50	0.25	0.25	0.25	1.00	5.25	0.00	0.00	0.25	-0.089355	0.137207	0.992188	11.830000	-6.020000	2.030000	700.00	-0.16	-0.13
0.96	12.50	8.75	8.25	8.00	5.25	5.25	0.75	5.75	0.75	2.50	0.75	0.50	2.75	0.00	0.00	0.00	-0.153320	0.116699	0.958984	20.930000	-6.650000	6.440000	739.00	-0.20	-0.09	9.00	5.50	8.50	6.50	5.75	6.50	2.50	7.25	0.00	0.00	0.00	0.75	4.00	0.00	0.00	0.25	-0.093262	0.125000	0.988281	13.370000	-8.190000	2.170000	695.00	-0.18	-0.12
0.97	13.75	8.75	8.50	8.25	5.25	5.25	1.00	5.75	0.50	2.00	0.50	0.50	2.75	0.00	0.00	0.00	-0.132812	0.097656	0.950195	17.710001	-5.530000	5.600000	751.00	-0.21	-0.09	9.75	6.00	8.50	6.75	5.50	6.50	2.50	7.00	0.00	0.00	0.00	0.75	3.75	0.00	0.00	0.50	-0.079102	0.134277	0.981445	14.210000	-9.450000	2.240000	703.00	-0.18	-0.11
0.98	14.75	9.50	8.50	8.50	5.25	5.25	0.75	5.50	0.50	2.00	0.50	0.25	2.00	0.00	0.00	0.00	-0.139648	0.119141	0.979980	15.540000	-4.060000	4.970000	755.00	-0.22	-0.09	10.50	6.50	9.00	7.00	5.25	6.50	2.50	6.75	0.00	0.00	0.00	0.25	3.25	0.00	0.00	0.25	-0.075684	0.142578	0.979004	14.140000	-9.520000	2.380000	707.00	-0.20	-0.10
0.99	15.00	10.00	8.50	8.50	5.00	5.00	0.75	5.50	0.25	1.75	0.25	0.00	0.50	0.00	0.00	0.00	-0.141602	0.130371	0.967773	13.790000	-2.660000	4.060000	730.00	-0.24	-0.08	11.75	6.75	9.00	7.50	5.25	6.50	2.50	6.50	0.00	0.00	0.25	0.75	2.75	0.00	0.00	0.25	-0.067871	0.146973	0.990234	13.720000	-8.750000	2.380000	729.00	-0.20	-0.10
1.00	14.25	9.75	8.25	8.50	4.75	5.00	0.75	5.00	0.00	1.50	0.00	0.00	0.50	0.00	0.00	0.00	-0.142090	0.135254	0.962891	11.970000	-2.170000	3.010000	696.00	-0.25	-0.08	13.00	6.75	9.25	8.00	5.00	6.25	2.50	6.25	0.00	0.25	0.25	0.50	2.50	0.00	0.00	0.25	-0.073730	0.142578	0.980957	13.790000	-8.120000	2.240000	740.00	-0.21	-0.09
1.01	15.50	10.50	8.75	8.75	4.75	5.00	0.75	5.00	0.50	1.75	0.75	0.00	1.50	0.00	0.00	0.00	-0.141113	0.121582	0.976562	12.460000	-3.150000	2.800000	755.00	-0.24	-0.08	12.75	8.00	9.25	8.00	5.00	6.25	2.50	6.25	0.00	0.00	0.25	0.75	2.00	0.00	0.00	0.50	-0.065918	0.148438	0.980957	13.090000	-7.840000	1.890000	747.00	-0.21	-0.09
1.02	11.25	9.00	7.50	7.75	3.75	3.00	0.75	3.25	0.00	0.75	0.00	0.00	0.00	0.00	0.00	0.00	-0.145508	0.129883	0.968750	12.110000	-4.760000	2.800000	558.00	-0.27	-0.07	14.00	8.00	9.50	8.25	5.00	6.25	2.50	6.00	0.00	0.00	0.25	0.50	2.00	0.00	0.00	0.50	-0.072754	0.157227	0.984375	11.970000	-7.840000	1.260000	760.00	-0.22	-0.09
1.03	11.25	9.25	7.50	7.75	4.00	3.00	0.50	3.00	0.00	0.75	0.00	0.00	0.00	0.00	0.00	0.00	-0.132324	0.130371	0.958496	10.850000	-5.180000	2.450000	555.00	-0.27	-0.07	14.25	8.50	9.75	8.25	4.75	6.25	2.50	6.00	0.00	0.00	0.25	0.50	2.25	0.00	0.00	0.25	-0.080078	0.143066	0.998535	12.040000	-8.680000	1.120000	768.00	-0.22	-0.09
1.04	17.25	11.75	9.50	9.50	4.50	5.25	0.75	4.75	0.25	1.50	0.25	0.50	1.75	0.00	0.00	0.00	-0.136719	0.141113	0.970703	9.520000	-4.200000	2.170000	797.00	-0.25	-0.08	14.50	9.00	9.50	8.50	4.50	6.25	2.50	6.00	0.00	0.00	0.00	0.25	1.75	0.00	0.00	0.25	-0.058594	0.156738	0.985352	12.950000	-9.450000	1.050000	763.00	-0.23	-0.09
1.05	18.00	12.25	9.50	9.50	4.75	5.25	0.75	4.50	0.25	1.75	0.25	0.25	1.75	0.00	0.00	0.00	-0.136230	0.133301	0.956055	8.470000	-3.850000	1.820000	809.00	-0.25	-0.07	15.00	9.00	9.50	8.75	4.50	6.00	2.50	5.75	0.00	0.00	0.25	0.50	1.75	0.00	0.00	0.50	-0.066895	0.162598	0.975098	12.600000	-9.870000	1.190000	772.00	-0.23	-0.08
1.06	18.50	12.00	9.25	9.50	4.50	5.00	0.75	4.25	0.25	1.75	0.50	0.25	1.50	0.00	0.00	0.00	-0.137207	0.143555	0.955078	7.210000	-3.430000	1.470000	800.00	-0.25	-0.07	15.50	9.25	10.00	9.00	4.50	6.00	2.50	5.50	0.00	0.00	0.00	0.25	1.25	0.00	0.00	0.00	-0.055664	0.166504	0.970703	11.270000	-9.450000	0.910000	771.00	-0.24	-0.08
1.07	17.75	12.25	9.50	9.50	4.50	5.25	0.75	4.25	0.25	1.75	0.25	0.25	1.00	0.00	0.00	0.00	-0.132324	0.145020	0.937500	5.880000	-3.010000	1.120000	792.00	-0.26	-0.07	16.00	9.50	10.00	9.25	4.25	6.00	2.50	5.50	0.00	0.00	0.00	0.25	1.50	0.00	0.00	0.25	-0.059570	0.161621	0.963379	7.840000	-7.420000	0.770000	783.00	-0.24	-0.08
1.08	18.50	12.50	9.50	9.50	4.25	5.00	0.75	4.00	0.50	1.50	0.25	0.25	1.50	0.00	0.00	0.00	-0.128906	0.145508	0.942383	4.550000	-1.960000	0.910000	799.00	-0.26	-0.07	16.25	9.75	10.25	9.50	4.25	6.00	2.50	5.50	0.00	0.00	0.00	0.25	1.50	0.00	0.00	0.00	-0.062012	0.169922	0.964844	6.720000	-7.070000	0.700000	793.00	-0.24	-0.08
1.09	14.75	12.00	9.25	9.50	4.25	5.25	0.75	4.00	0.25	1.75	0.25	0.25	1.00	0.00	0.00	0.00	-0.131348	0.147949	0.942871	3.080000	-0.630000	0.490000	746.00	-0.25	-0.08	16.75	10.25	10.25	9.50	4.25	6.00	2.50	5.25	0.00	0.00	0.00	0.50	1.00	0.00	0.00	0.25	-0.051758	0.172363	0.962402	5.740000	-6.720000	0.770000	799.00	-0.25	-0.07
1.10	18.25	12.50	9.25	9.50	4.25	5.00	0.75	4.00	0.00	1.50	0.25	0.00	2.25	0.00	0.00	0.00	-0.137207	0.140137	0.957031	1.890000	0.980000	0.280000	790.00	-0.26	-0.07	16.75	10.75	10.00	9.50	4.25	6.00	2.50	5.25	0.00	0.00	0.00	0.25	1.25	0.00	0.00	0.25	-0.053711	0.173828	0.960938	4.760000	-6.160000	0.700000	801.00	-0.25	-0.07
1.11	18.50	12.25	9.25	9.50	4.00	5.00	0.75	3.50	0.00	1.50	0.50	0.25	1.25	0.00	0.00	0.00	-0.131348	0.141602	0.950684	1.610000	1.540000	0.210000	775.00	-0.27	-0.07	17.50	11.00	10.50	9.50	4.00	6.00	2.50	5.50	0.00	0.00	0.00	0.50	1.00	0.00	0.00	0.25	-0.049805	0.175781	0.968750	3.850000	-5.530000	0.630000	820.00	-0.25	-0.07
1.12	18.00	12.25	9.25	9.50	4.00	5.00	0.75	3.75	0.25	1.50	0.25	0.50	1.50	0.00	0.00	0.00	-0.124512	0.144531	0.938477	1.050000	2.730000	-0.140000	779.00	-0.26	-0.07	17.75	11.25	10.50	10.00	4.25	6.00	2.50	5.50	0.00	0.00	0.00	0.50	1.50	0.00	0.00	0.00	-0.053711	0.176758	0.971191	3.150000	-5.110000	0.630000	837.00	-0.25	-0.08
1.13	17.75	12.25	9.25	9.50	3.75	5.00	0.75	3.25	0.00	1.75	0.25	0.00	1.00	0.00	0.00	0.00	-0.129883	0.147949	0.938477	0.070000	4.620000	-0.420000	754.00	-0.27	-0.07	17.75	11.50	10.75	10.25	4.25	6.50	2.50	5.25	0.00	0.00	0.00	0.50	1.00	0.00	0.00	0.25	-0.054688	0.175293	0.963379	2.590000	-5.180000	0.630000	844.00	-0.25	-0.07
1.14	18.00	12.25	9.25	9.50	3.75	4.75	0.75	3.50	0.25	1.50	0.25	0.25	1.75	0.00	0.00	0.00	-0.129883	0.145020	0.942871	-0.840000	6.510000	-0.560000	769.00	-0.26	-0.07	18.25	12.25	11.00	10.25	4.00	6.50	2.50	5.50	0.00	0.00	0.00	0.50	1.25	0.00	0.00	0.50	-0.050293	0.172852	0.965820	1.680000	-4.830000	0.630000	866.00	-0.25	-0.08
1.15	17.50	11.75	9.00	9.25	3.75	4.50	0.75	3.50	0.25	1.50	0.50	0.00	1.50	0.00	0.00	0.00	-0.130859	0.148438	0.944824	-1.890000	8.330000	-0.910000	747.00	-0.26	-0.07	19.00	12.50	11.25	10.75	4.00	6.50	2.50	5.50	0.00	0.00	0.00	0.50	1.25	0.00	0.00	0.00	-0.050781	0.170410	0.962891	1.190000	-4.480000	0.420000	883.00	-0.26	-0.07
1.16	17.50	11.75	9.00	9.25	3.75	4.50	0.75	3.50	0.25	1.50	0.50	0.75	1.50	0.00	0.00	0.00	-0.133301	0.146973	0.948242	-2.520000	9.520000	-1.190000	755.00	-0.26	-0.07	19.75	13.00	11.25	11.25	4.00	6.75	2.50	5.50	0.00	0.00	0.00	0.50	1.25	0.00	0.00	0.25	-0.057129	0.170898	0.979492	0.980000	-4.550000	0.560000	907.00	-0.26	-0.07
1.17	17.25	11.50	9.00	9.00	3.50	4.25	0.75	3.25	0.00	1.75	0.75	0.00	2.00	0.00	0.00	0.00	-0.135742	0.145508	0.953125	-3.220000	10.990000	-1.470000	735.00	-0.26	-0.07	20.00	13.50	11.50	11.25	4.25	7.00	2.50	5.75	0.00	0.00	0.00	0.25	1.25	0.00	0.00	0.00	-0.054688	0.172363	0.962891	0.630000	-4.690000	0.560000	923.00	-0.26	-0.07
1.18	16.75	11.25	8.75	9.00	3.50	4.25	0.75	3.50	0.00	1.50	0.25	0.25	1.50	0.00	0.00	0.00	-0.135742	0.145020	0.938477	-3.640000	12.390000	-1.680000	718.00	-0.26	-0.07	20.75	13.75	11.75	11.50	4.25	7.00	2.50	5.75	0.00	0.00	0.00	0.50	1.25	0.00	0.00	0.25	-0.041016	0.180176	0.951172	-0.140000	-3.920000	0.210000	945.00	-0.26	-0.07
1.19	16.25	11.00	8.50	8.75	3.50	4.00	0.75	3.50	0.00	1.50	0.50	0.00	1.50	0.00	0.00	0.00	-0.119629	0.148438	0.930664	-4.480000	14.700000	-2.170000	700.00	-0.26	-0.07	21.25	14.75	11.75	12.00	4.50	7.25	2.75	6.00	0.00	0.00	0.25	0.50	1.25	0.00	0.00	0.25	-0.047852	0.180664	0.958984	-1.540000	-2.870000	0.140000	984.00	-0.26	-0.08
1.20	15.50	10.25	8.50	8.50	3.25	4.00	0.75	3.50	0.00	2.00	0.50	0.25	1.50	0.00	0.00	0.00	-0.110352	0.144531	0.895996	-6.020000	18.549999	-3.150000	687.00	-0.25	-0.07	21.50	15.00	12.00	12.25	4.75	7.75	2.75	6.25	0.00	0.00	0.00	0.25	2.00	0.00	0.00	0.25	-0.049805	0.170410	0.968262	-3.220000	-1.680000	0.280000	1009.00	-0.25	-0.08
1.21	14.00	9.50	8.25	8.25	3.25	4.00	0.75	3.50	0.25	1.50	0.75	0.25	2.00	0.00	0.00	0.00	-0.084961	0.149902	0.823242	-9.240000	25.410000	-4.760000	662.00	-0.24	-0.08	22.00	15.75	12.25	12.50	4.75	7.75	2.75	6.25	0.00	0.00	0.00	0.50	1.75	0.00	0.00	0.25	-0.051270	0.176270	0.966309	-3.990000	-2.030000	0.350000	1029.00	-0.26	-0.08
1.22	13.25	8.75	7.75	7.75	3.00	4.00	0.75	3.75	0.25	1.75	0.75	0.25	2.00	0.00	0.00	0.00	-0.057129	0.164551	0.852051	-16.660000	36.889999	-7.140000	638.00	-0.23	-0.08	22.50	16.25	12.75	13.00	4.75	8.00	2.75	6.75	0.00	0.00	0.00	0.50	2.25	0.00	0.00	0.25	-0.053711	0.179688	0.955078	-5.880000	-1.610000	0.560000	1068.00	-0.25	-0.08
1.23	11.75	8.25	7.00	7.25	2.75	3.75	0.75	4.50	0.25	2.00	0.75	0.50	2.50	0.00	0.00	0.00	-0.181152	0.128906	1.117188	-27.440001	47.599998	-8.540000	617.00	-0.22	-0.10	22.75	16.75	13.00	13.50	5.25	8.50	2.75	7.00	0.00	0.00	0.00	0.25	2.25	0.00	0.00	0.25	-0.045898	0.184082	0.959961	-8.820000	-0.560000	0.770000	1098.00	-0.25	-0.08
1.24	9.50	7.25	6.50	6.00	2.75	3.25	0.75	4.50	0.25	2.00	0.75	0.75	2.75	0.00	0.00	0.00	-0.191895	0.082520	1.110840	-21.700001	38.779999	-10.080000	560.00	-0.20	-0.10	24.00	17.75	13.25	13.75	5.25	8.75	2.75	7.25	0.00	0.00	0.25	0.50	2.75	0.00	0.00	0.25	-0.052734	0.176270	0.955566	-12.460000	0.140000	0.770000	1146.00	-0.25	-0.09
1.25	8.00	6.25	5.50	5.00	2.25	2.75	0.75	5.00	0.25	2.25	1.00	1.00	3.50	0.00	0.00	0.00	-0.169922	0.080566	1.011230	-15.260000	35.770000	-10.780000	521.00	-0.17	-0.12	24.25	18.25	13.75	14.50	5.75	9.25	2.75	7.50	0.00	0.00	0.00	0.50	3.00	0.00	0.00	0.25	-0.053223	0.181641	0.948730	-16.100000	0.630000	0.700000	1185.00	-0.25	-0.09
1.26	6.75	5.25	4.50	3.75	2.25	2.50	0.75	4.75	0.50	2.25	0.75	1.00	4.00	0.00	0.00	0.00	0.290039	0.486816	1.501465	22.330000	56.910000	-29.330000	468.00	-0.15	-0.12	25.00	19.50	14.25	15.25	6.00	9.75	2.75	7.50	0.00	0.00	0.25	0.50	3.25	0.00	0.00	0.25	-0.061523	0.168945	0.961426	-19.809999	1.260000	1.050000	1235.00	-0.25	-0.09
1.27	6.50	5.25	3.75	3.00	2.00	2.00	0.50	4.00	0.75	2.25	0.75	0.75	3.75	0.00	0.00	0.00	-0.000488	0.232910	1.360840	36.540001	91.489998	-31.570000	420.00	-0.15	-0.12	26.50	20.75	14.50	15.75	6.25	10.25	2.75	7.75	0.00	0.00	0.25	0.50	3.75	0.00	0.00	0.50	-0.063965	0.166504	0.994629	-22.049999	0.630000	1.470000	1293.00	-0.25	-0.09
1.28	5.75	4.50	3.50	2.75	1.75	2.00	0.50	3.75	0.75	2.25	0.50	0.75	3.25	0.00	0.00	0.00	-0.175293	0.525879	1.490234	57.959999	133.139999	-46.060001	383.00	-0.14	-0.12	27.50	21.25	15.25	16.50	6.75	10.75	2.75	8.00	0.00	0.00	0.25	0.50	4.00	0.00	0.00	0.25	-0.064453	0.166504	1.000977	-22.469999	-0.630000	1.470000	1344.00	-0.25	-0.09
1.29	5.50	4.50	2.75	2.25	1.75	1.25	0.50	2.75	0.75	2.25	0.75	0.75	2.50	0.00	0.00	0.00	-0.102539	0.591309	1.462402	61.880001	170.589996	-67.970001	335.00	-0.15	-0.10	28.50	24.00	15.50	17.00	7.00	11.25	3.00	8.25	0.25	0.25	0.50	0.75	4.50	0.00	0.00	0.50	-0.051270	0.171875	0.999512	-22.120001	-1.260000	1.610000	1428.00	-0.25	-0.09
1.30	5.25	4.50	2.50	2.25	1.50	1.50	0.50	2.00	0.25	2.00	0.50	0.50	2.00	0.00	0.00	0.00	-0.377930	0.610352	1.443359	34.930000	201.600006	-86.239998	296.00	-0.17	-0.09	28.50	23.00	15.75	17.25	7.25	12.50	3.25	8.75	1.00	1.00	1.00	1.50	5.75	1.00	1.00	1.50	-0.043457	0.178711	0.996582	-22.680000	-0.490000	1.610000	1526.00	-0.22	-0.09
1.31	5.00	4.00	2.25	1.50	1.50	1.25	0.50	1.75	0.25	2.00	0.50	0.50	1.25	0.00	0.00	0.00	-0.196289	0.647949	1.428223	3.920000	220.710007	-109.970001	262.00	-0.17	-0.08	33.75	27.50	18.75	19.75	8.00	13.75	3.50	9.00	1.00	1.00	1.25	1.75	6.25	0.75	1.00	1.50	-0.046875	0.169922	1.008301	-22.960001	0.770000	1.330000	1738.00	-0.23	-0.09
1.32	5.00	3.50	1.75	1.50	1.50	1.00	0.50	1.50	0.25	2.25	0.75	0.00	1.00	0.00	0.00	0.00	-0.193848	0.608887	1.605469	-20.299999	233.660004	-136.220001	241.00	-0.17	-0.06	35.00	27.50	18.50	20.50	9.00	14.00	3.25	9.00	1.25	1.25	1.25	1.75	6.50	1.00	1.00	1.50	-0.053223	0.163086	1.011230	-20.230000	3.430000	0.420000	1780.00	-0.23	-0.09
1.33	4.75	4.00	1.75	1.50	1.50	0.75	0.50	0.75	0.50	1.75	0.50	0.00	1.00	0.00	0.00	0.00	-0.481445	0.960938	1.862793	-22.049999	238.070007	-153.720001	223.00	-0.19	-0.04	36.00	29.25	19.50	21.25	9.00	14.75	3.25	9.25	1.50	1.25	1.25	1.75	6.50	1.25	1.25	1.25	-0.049316	0.149414	1.014160	-16.450001	3.780000	0.140000	1850.00	-0.23	-0.09
1.34	4.50	3.75	1.75	1.50	1.25	1.00	0.50	0.75	0.00	2.00	0.50	0.00	0.75	0.00	0.00	0.00	0.149414	1.138184	1.712402	-22.540001	237.930008	-163.449997	211.00	-0.20	-0.05	35.50	27.75	18.75	20.75	9.25	14.50	3.25	9.25	1.50	1.25	1.25	2.00	6.50	1.00	1.25	1.00	-0.047852	0.144531	0.999512	-13.090000	4.060000	-0.210000	1814.00	-0.23	-0.09
1.35	4.25	3.75	1.75	1.00	1.50	1.00	0.50	0.50	0.25	1.75	0.25	0.00	1.00	0.00	0.00	0.00	0.981445	1.239258	1.675293	-73.919998	213.919998	-160.160004	201.00	-0.20	-0.04	32.25	26.25	17.25	19.50	9.00	13.50	3.25	9.00	1.00	1.00	0.50	0.75	5.25	0.00	0.00	0.25	-0.042969	0.146973	0.991699	-11.200000	4.830000	-0.280000	1636.00	-0.24	-0.09
1.36	4.50	3.25	2.00	1.50	1.50	1.00	0.50	0.50	0.25	2.00	0.25	0.00	0.75	0.00	0.00	0.00	1.319824	1.555664	2.000977	-74.760002	166.460007	-131.809998	209.00	-0.20	-0.03	28.00	23.25	16.00	17.75	9.00	14.25	3.25	9.25	1.50	1.50	1.50	1.75	6.75	1.00	1.00	1.75	-0.039062	0.144043	0.992188	-10.570000	6.510000	-0.560000	1615.00	-0.21	-0.10
1.37	4.25	3.75	1.75	1.25	1.50	0.75	0.75	0.00	0.25	1.75	0.25	0.00	1.25	0.00	0.00	0.00	1.774902	1.473633	1.371582	-37.099998	109.059998	-102.550003	200.00	-0.20	-0.02	34.00	27.75	18.50	20.25	9.25	14.75	3.25	9.50	1.50	1.50	1.25	1.50	7.00	1.00	1.00	1.25	-0.050293	0.146484	0.996094	-10.430000	8.120000	-0.630000	1795.00	-0.22	-0.09
1.38	4.50	4.00	1.75	1.50	1.25	0.75	0.50	0.25	0.00	1.75	0.25	0.00	0.50	0.00	0.00	0.00	1.959473	1.328125	1.116699	7.980000	63.980000	-78.330002	194.00	-0.23	-0.03	34.25	27.00	18.50	20.50	9.25	14.50	3.50	9.25	1.50	1.50	1.25	2.00	7.00	1.25	1.00	1.50	-0.058594	0.143555	1.002930	-9.240000	9.100000	-0.840000	1800.00	-0.22	-0.09
1.39	4.00	4.00	1.50	1.25	1.50	0.75	0.75	0.00	0.50	1.75	0.50	0.00	0.50	0.00	0.00	0.00	2.200195	0.908203	0.708008	55.369999	9.030000	-38.920002	196.00	-0.19	-0.01	33.00	26.25	18.00	20.00	9.00	14.25	3.25	9.25	1.50	1.50	1.00	1.75	7.25	1.00	1.50	1.50	-0.061523	0.143066	0.987793	-7.350000	9.450000	-0.910000	1756.00	-0.22	-0.09
1.40	4.75	3.50	1.25	1.25	1.50	0.75	0.50	0.00	0.25	1.75	0.25	0.00	0.75	0.00	0.00	0.00	2.200195	0.908203	0.708008	55.369999	9.030000	-38.920002	188.00	-0.21	-0.01	32.00	25.25	17.50	19.50	9.00	14.25	3.50	9.25	1.50	1.50	1.25	2.00	7.25	1.00	1.25	1.50	-0.048340	0.144531	0.970215	-8.120000	10.360000	-1.190000	1730.00	-0.21	-0.09
1.41	4.00	4.00	1.00	1.25	1.25	0.75	0.75	0.00	0.25	1.75	0.50	0.00	0.50	0.00	0.00	0.00	2.150879	0.645020	0.836914	86.940002	-38.080002	-4.480000	183.00	-0.20	-0.02	31.50	24.50	17.50	19.25	9.00	14.00	3.50	9.50	1.75	1.50	1.50	2.00	7.50	1.00	1.25	1.75	-0.051270	0.145508	0.973633	-11.760000	12.040000	-1.330000	1725.00	-0.21	-0.09
1.42	4.25	3.50	1.50	0.75	1.50	0.50	0.75	0.00	0.00	2.00	0.50	0.00	0.50	0.00	0.00	0.00	2.005859	0.452148	0.928223	101.150002	-62.860001	10.850000	180.00	-0.20	0.00	30.25	23.25	16.75	18.50	9.00	13.75	3.50	9.50	1.50	1.75	1.50	2.25	7.75	1.25	1.25	1.75	-0.058594	0.141113	0.973145	-15.400000	12.950000	-1.890000	1684.00	-0.20	-0.09
1.43	4.50	3.75	1.00	1.25	1.50	1.00	0.75	0.00	0.00	1.50	0.75	0.25	0.50	0.00	0.00	0.00	1.821289	0.279785	1.020996	109.690002	-85.470001	25.549999	191.00	-0.21	-0.03	28.75	22.00	16.25	17.75	8.75	13.25	3.50	9.25	1.50	1.75	1.50	2.25	7.50	1.25	1.25	1.75	-0.061035	0.127930	0.974121	-21.629999	12.390000	-2.450000	1624.00	-0.20	-0.09
1.44	4.00	3.25	1.25	1.00	1.25	0.75	0.50	0.00	0.25	1.50	0.25	0.00	0.25	0.00	0.00	0.00	1.596191	0.165039	1.164551	114.520004	-104.230003	39.200001	163.00	-0.22	-0.00	27.00	20.25	16.00	17.25	9.00	13.50	3.50	9.50	2.00	1.75	1.50	2.25	8.00	1.25	1.25	1.75	-0.057617	0.125488	0.976562	-24.920000	11.620000	-2.870000	1599.00	-0.19	-0.10
1.45	4.00	3.25	0.75	0.50	1.25	0.50	0.75	0.00	0.00	2.00	0.25	0.00	0.50	0.00	0.00	0.00	1.325195	0.065918	1.305176	114.520004	-120.470001	52.849998	157.00	-0.20	0.00	26.25	19.00	15.25	16.75	9.25	13.25	3.75	9.50	1.75	2.00	1.75	2.50	8.50	1.25	1.50	1.75	-0.071777	0.122559	0.984375	-26.809999	10.430000	-2.800000	1580.00	-0.18	-0.10
1.46	4.00	3.75	0.75	0.75	1.25	0.25	0.50	0.00	0.25	1.75	0.00	0.00	0.50	0.00	0.00	0.00	1.045898	0.000977	1.406738	110.180000	-133.279999	66.639999	156.00	-0.22	-0.00	25.00	17.50	15.00	16.00	9.25	13.00	3.75	9.50	2.25	2.25	1.75	2.75	8.25	1.25	1.50	1.75	-0.065918	0.117188	0.983887	-25.480000	8.330000	-2.870000	1546.00	-0.18	-0.10
1.47	4.00	3.75	0.75	0.50	1.25	0.25	0.50	0.00	0.50	1.75	0.25	0.00	0.25	0.00	0.00	0.00	0.746582	0.002930	1.528809	105.070000	-141.960007	79.309998	157.00	-0.21	0.01	24.00	16.50	14.50	15.50	9.25	12.75	4.00	9.50	2.00	2.25	2.00	3.00	8.75	1.25	1.50	2.00	-0.077637	0.113281	0.983887	-23.030001	5.180000	-2.730000	1522.00	-0.17	-0.10
1.48	3.75	3.25	0.75	1.00	1.00	0.25	0.75	0.00	0.25	1.75	0.50	0.00	0.50	0.00	0.00	0.00	0.429199	0.057129	1.765625	101.080002	-147.419998	91.489998	158.00	-0.19	-0.00	22.75	14.75	14.00	14.75	9.75	12.50	4.00	9.75	2.50	2.50	2.25	3.00	9.25	1.25	1.50	2.00	-0.069824	0.110352	0.980469	-20.299999	2.520000	-2.800000	1500.00	-0.16	-0.10
1.49	3.75	3.50	0.75	0.50	1.25	0.75	0.75	0.25	0.50	2.00	0.25	0.00	0.25	0.00	0.00	0.00	0.136230	0.064453	2.039062	90.720001	-157.360001	105.419998	168.00	-0.18	0.00	21.75	14.25	14.00	14.50	10.00	13.00	4.00	9.75	2.50	2.50	2.25	3.00	9.75	1.50	1.50	2.25	-0.077637	0.109375	0.980957	-18.129999	0.210000	-2.870000	1498.00	-0.15	-0.10
1.50	3.75	3.00	0.50	0.50	1.00	0.50	0.50	0.00	0.25	1.75	0.25	0.00	0.25	0.00	0.00	0.00	-0.130371	0.113281	2.177246	72.379997	-174.160004	120.260002	140.00	-0.20	0.01	20.50	12.75	13.75	13.75	10.50	12.50	4.50	10.00	2.75	2.75	2.25	3.25	10.00	1.50	1.50	2.50	-0.068848	0.105469	0.971191	-16.590000	-1.610000	-2.870000	1482.00	-0.14	-0.10
1.51	4.00	3.00	1.25	0.00	1.00	0.50	0.50	0.00	0.00	2.00	0.50	0.00	0.50	0.00	0.00	0.00	-0.381348	0.192383	2.169434	51.099998	-192.570007	133.910004	150.00	-0.19	0.01	19.00	11.00	12.75	12.25	10.50	11.75	4.50	10.00	2.75	2.75	2.75	3.75	10.25	2.00	1.75	2.75	-0.056152	0.108398	0.968262	-15.820000	-3.710000	-2.940000	1431.00	-0.12	-0.10
1.52	3.50	3.00	0.50	0.00	1.00	0.50	0.75	0.00	0.50	1.75	0.50	0.00	0.25	0.00	0.00	0.00	-0.592285	0.277344	2.072754	31.219999	-205.729996	145.389999	141.00	-0.16	0.02	18.25	10.25	12.75	12.50	11.25	13.00	4.75	10.25	2.75	3.25	3.00	4.00	10.75	1.75	1.75	3.00	-0.061523	0.106934	0.991699	-14.490000	-4.690000	-3.080000	1466.00	-0.12	-0.10
1.53	3.75	3.25	0.50	0.50	1.00	0.75	0.75	0.00	0.25	2.00	0.25	0.00	0.75	0.00	0.00	0.00	-0.759766	0.367188	1.952637	13.930000	-210.699997	153.720001	157.00	-0.18	-0.01	17.00	9.50	12.50	12.00	11.75	13.00	5.00	10.25	3.00	3.50	3.25	4.50	11.00	2.00	1.75	3.00	-0.063477	0.097168	0.989746	-11.900000	-4.620000	-3.290000	1465.00	-0.11	-0.10
1.54	3.50	3.25	0.75	0.50	1.00	0.25	0.75	0.00	0.50	1.50	0.50	0.00	0.75	0.00	0.00	0.00	-0.900879	0.467285	1.825684	-2.240000	-207.759995	158.619995	152.00	-0.17	0.00	16.00	9.00	12.25	11.25	12.00	12.75	5.00	10.00	2.75	4.00	3.50	5.00	11.25	2.00	2.00	3.25	-0.061523	0.092285	0.992676	-8.890000	-4.270000	-3.150000	1450.00	-0.10	-0.10
1.55	3.75	3.00	0.75	0.25	1.00	0.50	0.50	0.00	0.50	2.00	0.50	0.00	0.00	0.00	0.00	0.00	-1.039551	0.548828	1.703613	-16.660000	-199.430008	162.259995	147.00	-0.18	0.02	14.75	8.25	11.25	10.50	12.00	13.25	5.25	10.50	3.75	4.25	4.25	5.75	11.75	2.25	2.00	4.00	-0.048340	0.092773	0.984863	-6.020000	-3.360000	-3.220000	1471.00	-0.08	-0.11
1.56	3.25	2.50	0.50	0.50	1.00	0.50	0.50	0.00	0.00	2.00	0.50	0.00	0.75	0.00	0.00	0.00	-1.297852	0.639160	1.461914	-34.790001	-172.130005	169.259995	136.00	-0.17	-0.02	13.50	7.50	11.00	10.00	12.25	12.75	5.25	10.75	4.00	4.75	5.00	6.50	12.25	2.25	2.25	4.25	-0.049805	0.100586	0.977051	-2.310000	0.490000	-3.780000	1477.00	-0.06	-0.11
1.57	3.50	2.75	0.50	0.00	1.00	0.00	0.75	0.00	0.50	1.75	0.25	0.00	0.50	0.00	0.00	0.00	-1.497070	0.660645	1.341309	-32.689999	-156.940002	172.199997	132.00	-0.16	0.04	11.75	7.00	10.00	9.25	12.25	13.00	5.25	11.00	4.75	6.00	6.00	7.25	12.75	2.75	2.75	5.00	-0.048828	0.095703	0.984375	-0.840000	2.730000	-4.060000	1503.00	-0.04	-0.11
1.58	3.50	2.50	0.25	0.25	1.00	0.25	0.50	0.00	0.25	1.75	0.25	0.00	0.50	0.00	0.00	0.00	-1.716797	0.637207	1.200195	-28.630001	-142.309998	174.369995	125.00	-0.18	0.01	10.25	6.50	9.50	8.50	12.00	12.50	5.50	11.00	5.00	7.00	7.00	7.75	13.25	2.75	2.75	5.25	-0.062012	0.101562	0.992188	0.980000	5.670000	-4.200000	1499.00	-0.03	-0.11
1.59	3.50	2.50	0.25	0.25	1.00	0.25	0.75	0.00	0.50	2.00	0.25	0.00	0.75	0.00	0.00	0.00	-1.997070	0.592285	1.031250	-27.860001	-131.460007	175.770004	138.00	-0.14	0.02	9.00	6.25	8.75	7.75	11.75	12.25	5.50	11.25	5.50	7.75	7.75	8.25	13.75	3.25	3.00	6.25	-0.058594	0.101562	0.998535	3.150000	9.940000	-3.850000	1511.00	-0.01	-0.11
1.60	2.75	2.75	0.25	0.50	1.00	0.25	0.75	0.00	0.50	2.00	0.50	0.00	0.25	0.00	0.00	0.00	-2.366699	0.512207	0.715820	-32.060001	-126.840004	174.720001	133.00	-0.14	0.02	8.25	5.75	8.00	7.25	11.25	11.75	5.50	11.25	6.25	8.50	8.25	8.75	14.25	3.50	3.50	7.25	-0.063477	0.092285	0.996582	5.180000	14.840000	-3.710000	1520.00	0.01	-0.11
1.61	3.50	2.50	0.50	0.00	0.75	0.75	0.75	0.00	0.25	2.25	0.25	0.00	0.50	0.00	0.00	0.00	-2.932617	0.410645	0.300781	-32.689999	-126.349998	167.300003	138.00	-0.15	0.01	7.50	5.25	7.50	6.50	10.50	11.50	5.50	11.25	7.00	9.00	8.75	9.25	15.00	4.00	4.25	8.00	-0.057617	0.104004	1.019043	8.680000	20.370001	-4.270000	1532.00	0.02	-0.12
1.62	3.00	2.50	0.00	0.50	1.00	1.00	0.50	0.00	0.50	2.25	0.25	0.00	0.50	0.00	0.00	0.00	-3.577637	0.223633	-0.197266	-13.860000	-123.620003	151.759995	138.00	-0.14	-0.01	6.75	5.00	6.50	6.00	9.75	11.00	5.25	11.25	7.75	9.50	9.25	9.75	15.50	4.75	4.75	9.00	-0.059082	0.106934	1.000977	12.320000	26.389999	-4.830000	1535.00	0.04	-0.12
1.63	3.25	2.75	0.50	0.50	1.25	0.75	0.50	0.00	0.50	2.00	0.50	0.00	1.00	0.00	0.00	0.00	-3.845703	-0.185059	-0.690918	24.850000	-102.410004	130.550003	154.00	-0.14	-0.02	6.25	5.00	6.25	5.75	9.00	10.25	5.25	11.50	8.00	10.25	9.75	10.25	16.25	5.00	5.25	10.00	-0.089844	0.113281	1.010254	14.770000	32.830002	-5.740000	1554.00	0.05	-0.12
1.64	3.25	2.75	0.50	0.25	1.00	0.75	0.50	0.00	0.25	2.00	0.50	0.00	0.25	0.00	0.00	0.00	-3.754883	-0.740723	-0.862305	53.480000	-52.220001	103.110001	137.00	-0.17	0.00	6.00	4.50	5.75	5.50	8.25	9.75	5.00	11.25	8.25	10.50	10.00	10.75	16.75	5.75	6.00	11.00	-0.004395	0.075684	1.104980	19.950001	41.720001	-6.510000	1555.00	0.07	-0.12
1.65	3.25	3.00	0.75	0.50	1.00	0.50	0.50	0.00	0.25	2.00	0.50	0.00	0.50	0.00	0.00	0.00	-3.374512	-1.090332	-0.601074	41.439999	15.050000	66.080002	145.00	-0.17	-0.01	5.75	4.25	5.00	3.25	6.00	8.00	4.25	10.50	8.50	11.00	10.50	11.00	17.25	6.50	6.75	12.25	-0.044922	0.099121	1.128906	31.150000	57.049999	-8.190000	1487.00	0.09	-0.12
1.66	3.25	2.50	0.50	0.50	1.00	0.50	0.50	0.00	0.50	2.25	0.50	0.00	0.75	0.00	0.00	0.00	-2.984863	-1.004883	-0.008301	-9.100000	71.959999	24.290001	146.00	-0.14	-0.00	5.50	4.25	5.00	4.75	6.00	8.25	4.00	10.75	8.25	10.75	10.25	11.00	17.00	7.25	7.50	13.25	-0.066406	0.136719	1.054199	38.500000	71.750000	-10.150000	1515.00	0.09	-0.12
1.67	3.25	2.50	0.25	0.75	1.00	0.75	0.50	0.00	0.25	2.00	0.50	0.00	0.75	0.00	0.00	0.00	-2.642090	-0.518066	0.613281	-65.239998	98.070000	-16.240000	142.00	-0.15	-0.02	4.00	3.50	2.25	3.50	5.50	8.75	3.50	10.50	9.00	11.25	10.50	11.50	17.50	8.00	8.25	14.00	-0.134766	0.153809	1.099609	49.560001	87.150002	-12.460000	1479.00	0.12	-0.13
1.68	4.00	3.50	1.00	0.50	1.50	0.25	0.50	0.00	0.25	1.75	0.50	0.00	0.50	0.00	0.00	0.00	-0.894531	0.354004	1.149414	-87.639999	91.629997	-54.250000	162.00	-0.20	0.00	3.00	1.75	2.25	2.75	5.00	7.75	3.00	9.50	8.00	10.75	10.25	11.25	16.50	7.50	7.50	15.00	-0.156738	0.192383	1.225098	107.660004	123.830002	-21.700001	1356.00	0.13	-0.13
1.69	5.25	4.50	1.75	1.50	1.50	0.25	0.75	0.25	0.25	1.50	0.25	0.00	1.00	0.00	0.00	0.00	0.509766	0.546387	1.457520	-86.660004	127.260002	-83.230003	214.00	-0.22	-0.02	2.50	2.25	2.00	2.25	4.75	8.50	2.75	10.00	8.75	11.50	11.25	12.25	16.25	8.75	8.25	16.00	-0.143066	0.207031	1.288086	140.490005	149.029999	-27.090000	1422.00	0.14	-0.13
1.70	6.25	5.25	2.75	2.25	1.50	0.50	0.50	0.00	0.00	1.50	0.25	0.00	1.00	0.00	0.00	0.00	0.322266	1.174316	0.095703	-94.500000	96.320000	-62.510002	246.00	-0.26	-0.03	2.75	2.00	2.25	2.25	3.50	7.25	2.50	9.00	8.00	10.75	10.50	11.50	16.50	9.75	10.00	18.25	-0.152832	0.240723	1.307617	138.250000	171.570007	-30.520000	1384.00	0.15	-0.13
1.71	8.75	6.00	3.25	2.75	1.50	0.50	0.50	0.00	0.00	1.25	0.25	0.00	1.00	0.00	0.00	0.00	-0.337402	0.679199	0.346680	-55.299999	167.300003	-18.620001	291.00	-0.28	-0.02	2.75	2.00	2.00	2.50	2.75	7.00	2.25	8.75	7.50	10.50	10.25	11.25	15.50	9.25	9.25	17.50	-0.213867	0.262207	1.303223	115.360001	200.339996	-30.380001	1320.00	0.15	-0.14
1.72	10.25	7.75	4.00	3.75	1.25	0.50	0.50	0.25	0.00	1.25	0.25	0.00	0.75	0.00	0.00	0.00	-0.332031	0.402344	1.927246	-24.290001	217.559998	12.180000	345.00	-0.30	-0.03	4.25	3.00	3.25	3.00	2.50	7.00	2.25	8.50	7.25	10.25	10.25	11.00	15.50	9.50	9.75	18.25	-0.331543	0.311523	1.233398	108.709999	236.250000	-35.279999	1365.00	0.14	-0.13
1.73	12.50	9.25	5.00	5.00	1.50	0.25	0.50	0.25	0.25	1.25	0.25	0.00	1.00	0.00	0.00	0.00	-0.360840	-0.154785	1.588379	-29.680000	195.720001	19.950001	419.00	-0.30	-0.02	4.00	3.00	3.25	3.50	3.00	7.50	2.25	8.75	7.75	10.75	10.75	11.25	14.50	9.75	10.00	18.25	-0.282227	0.431152	1.622559	101.500000	264.950012	-45.709999	1401.00	0.13	-0.13
1.74	14.75	10.50	5.75	5.75	1.25	0.25	0.50	0.50	0.00	1.25	0.00	0.00	1.00	0.00	0.00	0.00	-0.377930	-1.066895	1.783203	-41.860001	172.899994	-5.530000	470.00	-0.31	-0.03	1.00	2.75	2.75	3.00	2.00	6.00	2.00	8.00	7.50	10.25	10.50	11.25	15.50	11.50	11.75	20.00	-0.251953	0.481934	1.480469	101.360001	283.920013	-55.720001	1350.00	0.17	-0.14
1.75	17.50	12.25	7.25	7.75	1.50	1.00	0.50	0.75	0.25	1.50	0.50	0.00	1.00	0.00	0.00	0.00	-0.333008	0.114258	1.234375	-25.410000	184.589996	-37.240002	589.00	-0.30	-0.03	3.75	3.00	3.00	3.00	2.25	7.25	2.25	8.25	7.25	10.00	10.25	10.75	14.50	11.25	12.00	19.50	-0.244629	0.435059	1.629883	88.550003	304.010010	-65.870003	1386.00	0.15	-0.13
1.76	19.00	13.25	7.50	8.50	1.75	3.00	0.75	2.00	0.25	1.25	0.25	0.25	1.50	0.00	0.00	0.00	-0.823730	0.732422	2.897461	-49.910000	142.520004	-26.670000	682.00	-0.29	-0.06	3.50	2.75	2.25	1.50	1.50	5.50	2.00	7.50	5.50	8.75	9.00	9.25	12.00	9.25	10.00	17.00	-0.333984	0.614746	1.386230	73.570000	325.709991	-79.800003	1156.00	0.15	-0.13
1.77	20.75	15.25	9.50	10.00	2.25	5.00	0.75	3.25	0.25	1.25	0.50	0.00	2.00	0.00	0.00	0.00	-0.582520	0.330566	1.455078	-47.880001	69.370003	-2.380000	819.00	-0.28	-0.07	1.25	1.50	1.00	1.25	0.75	5.00	2.00	6.50	5.25	8.50	8.75	8.75	11.75	8.75	9.75	15.75	-0.411621	0.585938	1.507812	59.920002	356.230011	-100.449997	1036.00	0.18	-0.14
1.78	21.75	15.50	9.75	10.25	2.50	5.50	0.75	4.00	0.25	1.75	0.50	0.25	2.75	0.00	0.00	0.00	-0.253906	0.181152	1.187500	-49.770000	31.920000	-1.190000	876.00	-0.27	-0.08	1.25	1.25	1.00	0.75	0.75	4.50	2.00	6.00	4.75	8.00	8.25	8.25	10.50	7.75	9.25	13.25	-0.535645	0.640625	1.913086	37.869999	388.850006	-121.590004	947.00	0.18	-0.13
1.79	22.25	15.75	10.00	10.75	3.00	5.75	0.75	5.50	0.25	1.25	1.00	0.00	3.25	0.00	0.00	0.00	-0.100098	0.074219	1.058105	-50.119999	25.549999	-2.520000	929.00	-0.26	-0.09	1.00	1.25	0.75	1.25	0.25	3.25	2.00	5.25	3.50	7.50	7.75	7.50	9.25	6.50	7.75	10.25	-0.680176	0.962402	1.521484	9.240000	425.040009	-143.289993	818.00	0.18	-0.14
1.80	22.00	16.00	10.50	11.00	3.25	6.50	0.75	6.25	0.50	2.00	0.75	0.50	4.00	0.00	0.00	0.00	-0.185547	0.086914	1.049316	-45.920002	14.770000	-3.010000	985.00	-0.24	-0.09	0.50	1.00	0.25	0.50	0.25	2.25	2.00	3.50	2.50	6.25	6.75	6.00	8.00	5.00	6.50	8.00	-0.913574	0.835449	2.628906	-28.910000	470.679993	-177.240005	643.00	0.20	-0.13
1.81	21.75	16.50	10.75	11.00	3.00	6.25	0.75	7.00	0.50	2.00	0.00	0.00	2.25	0.00	0.00	0.00	-0.186035	0.120605	1.058594	-45.009998	7.910000	-3.290000	966.00	-0.26	-0.09	0.50	1.00	0.50	1.00	0.00	1.50	1.75	2.25	1.50	5.00	5.00	4.75	6.50	3.00	5.25	6.00	-1.049316	1.129883	2.926270	-48.860001	467.390015	-176.680008	493.00	0.18	-0.14
1.82	15.50	12.75	8.75	9.25	3.00	5.75	0.75	6.25	0.00	1.50	0.00	0.00	2.75	0.00	0.00	0.00	-0.180176	0.140137	0.972656	-44.310001	4.760000	-2.520000	785.00	-0.24	-0.11	0.25	0.75	0.25	0.75	0.00	1.00	1.75	1.25	1.25	3.75	3.25	3.25	4.75	1.25	3.50	4.50	-0.974609	0.805664	3.394043	-36.119999	442.260010	-179.550003	342.00	0.18	-0.13
1.83	16.25	13.00	9.00	9.75	3.50	6.25	0.75	6.75	0.00	1.50	0.00	0.00	3.25	0.00	0.00	0.00	-0.150879	0.156250	0.990723	-47.250000	4.550000	-1.470000	830.00	-0.24	-0.11	0.00	0.75	0.00	0.75	0.00	1.00	2.00	0.75	0.75	2.50	2.50	2.00	2.25	0.25	2.00	2.75	-0.202148	0.863281	2.625488	-42.700001	422.309998	-181.860001	228.00	0.16	-0.11
1.84	24.00	17.25	11.75	12.00	5.75	8.00	1.00	7.50	0.00	2.00	0.00	0.00	3.75	0.00	0.00	0.00	-0.157715	0.109375	1.030762	-49.420002	1.190000	-1.680000	1096.00	-0.25	-0.09	0.25	1.25	0.25	0.50	0.00	0.50	2.00	0.25	0.50	1.75	1.75	1.50	1.75	0.00	1.25	2.00	-0.199219	1.297852	1.687500	-53.340000	422.869995	-190.330002	175.00	0.12	-0.08
1.85	16.50	13.50	9.25	10.00	5.00	7.50	0.75	7.50	0.00	1.75	0.25	0.00	4.00	0.00	0.00	0.00	-0.131836	0.091797	0.984375	-24.080000	-0.840000	-0.840000	902.00	-0.23	-0.11	1.00	1.25	0.50	0.75	0.25	0.25	2.00	0.00	0.25	1.25	1.50	1.25	1.50	0.00	0.50	1.50	0.291016	1.585938	2.304199	-24.010000	430.920013	-199.500000	156.00	0.04	-0.06
1.86	22.75	17.25	11.75	12.25	6.00	8.25	1.00	7.50	0.00	1.75	0.00	0.00	5.00	0.00	0.00	0.25	-0.129883	0.099609	0.981934	-16.730000	0.350000	-0.700000	1101.00	-0.24	-0.10	1.25	1.25	0.75	1.00	0.25	0.50	2.50	0.25	0.00	0.50	1.00	0.50	1.00	0.00	0.25	1.00	0.286133	1.589844	2.859375	34.439999	366.450012	-200.479996	143.00	-0.03	-0.03
1.87	21.75	16.75	11.75	12.25	6.25	9.00	1.00	8.50	1.00	2.50	0.75	0.75	6.50	0.25	0.00	0.50	-0.133301	0.101074	0.964844	-13.370000	1.050000	-0.840000	1172.00	-0.21	-0.11	1.00	1.25	0.75	0.75	0.25	0.50	2.25	0.25	0.00	0.75	1.00	0.75	0.75	0.00	0.00	1.00	1.288086	1.433594	4.132812	57.610001	271.390015	-207.690002	134.00	-0.03	-0.03
1.88	23.00	16.50	11.50	12.00	6.25	8.75	0.75	8.00	0.00	2.00	0.25	0.50	7.25	0.00	0.25	0.50	-0.133301	0.095215	0.956055	-12.320000	1.050000	-0.980000	1141.00	-0.23	-0.11	1.50	1.25	0.75	0.75	0.25	0.50	2.25	0.00	0.00	1.00	1.00	0.50	0.50	0.00	0.00	0.75	2.156250	1.278809	4.634277	48.930000	81.900002	-166.460007	131.00	-0.05	0.00
1.89	22.50	16.00	11.75	12.00	6.50	9.25	1.00	9.00	1.25	2.75	1.00	1.25	8.00	0.25	0.00	0.50	-0.131836	0.111816	0.951660	-12.600000	-0.070000	-1.330000	1213.00	-0.20	-0.11	1.00	1.25	0.50	1.00	0.25	0.25	2.25	0.00	0.00	0.75	0.75	0.50	0.25	0.00	0.00	0.50	1.926270	0.607422	2.440430	17.290001	-81.550003	-124.180000	113.00	-0.05	0.01
1.90	21.75	15.25	11.25	11.75	7.00	9.50	1.25	9.25	1.50	3.25	1.25	1.75	8.75	0.25	0.00	0.50	-0.126465	0.117676	0.958496	-13.160000	-0.840000	-1.820000	1230.00	-0.19	-0.11	1.25	1.00	0.75	0.75	0.00	0.00	2.50	0.00	0.00	0.75	0.50	0.50	0.00	0.00	0.00	0.50	1.655762	0.674316	1.771973	-57.959999	-167.649994	-106.959999	107.00	-0.06	0.06
1.91	20.75	14.50	11.00	11.50	7.00	9.25	1.25	9.50	1.75	3.00	1.25	1.75	9.25	0.25	0.25	0.75	-0.142090	0.111328	0.979980	-12.950000	1.050000	-2.240000	1216.00	-0.18	-0.11	1.00	1.00	0.50	0.50	0.25	0.25	2.50	0.25	0.00	0.75	0.50	0.25	0.25	0.00	0.00	0.50	1.429688	0.762207	0.962891	-80.290001	-192.850006	-100.449997	107.00	-0.04	0.03
1.92	19.75	13.75	10.75	11.00	7.00	9.25	1.25	9.75	1.50	3.50	1.50	2.25	9.50	0.25	0.25	1.00	-0.145996	0.094238	0.986328	-11.900000	4.200000	-2.520000	1207.00	-0.17	-0.12	1.00	1.00	0.50	1.00	0.25	0.00	2.50	0.25	0.00	0.50	0.50	0.25	0.50	0.00	0.00	0.00	1.255371	1.064453	0.705566	-32.270000	-189.979996	-89.459999	107.00	-0.06	0.02
1.93	18.25	13.00	10.25	10.50	7.00	9.25	1.25	9.75	1.75	3.50	1.75	2.00	9.75	0.50	0.25	0.75	-0.139160	0.104004	0.984863	-10.710000	7.840000	-2.730000	1177.00	-0.16	-0.12	0.75	1.00	0.50	0.75	0.00	0.00	2.50	0.00	0.00	0.50	0.25	0.25	0.00	0.00	0.00	0.25	1.201172	1.122070	0.815430	16.309999	-199.570007	-75.529999	88.00	-0.06	0.07
1.94	17.00	11.75	9.75	10.00	7.00	9.00	1.25	9.75	1.75	3.50	1.75	2.75	10.00	0.50	0.25	1.25	-0.143066	0.092773	0.990234	-9.240000	10.710000	-2.870000	1149.00	-0.15	-0.13	0.50	1.00	0.50	0.75	0.00	0.00	2.50	0.00	0.00	0.50	0.50	0.25	0.25	0.00	0.00	0.25	1.110840	1.014160	0.966309	47.599998	-218.680008	-49.700001	90.00	-0.04	0.05
1.95	15.75	10.75	9.50	9.50	7.00	9.00	1.25	10.00	2.00	3.75	2.25	2.75	10.00	0.75	0.50	1.50	-0.147461	0.088379	0.977539	-7.280000	12.530000	-2.870000	1139.00	-0.13	-0.13	1.00	1.25	0.75	0.50	0.00	0.00	2.50	0.00	0.00	0.25	0.50	0.25	0.00	0.00	0.00	0.25	0.995117	0.905273	1.037598	55.160000	-242.059998	-15.330000	93.00	-0.08	0.07
1.96	14.75	9.75	9.25	9.00	7.00	8.75	1.25	9.75	2.00	4.00	2.25	3.00	10.25	0.75	0.75	1.50	-0.143066	0.072266	0.972656	-5.460000	13.580000	-2.660000	1112.00	-0.12	-0.13	0.75	1.25	0.50	0.75	0.25	0.00	2.50	0.00	0.00	0.25	0.50	0.00	0.00	0.00	0.00	0.25	0.859375	0.818359	1.036621	47.040001	-263.200012	23.870001	90.00	-0.08	0.07
1.97	13.50	9.00	8.75	8.75	7.00	8.75	1.25	10.00	2.25	4.25	3.00	3.50	10.25	0.75	0.50	1.75	-0.149414	0.070801	0.972168	-2.940000	13.930000	-2.170000	1105.00	-0.11	-0.13	1.00	1.00	0.25	0.50	0.25	0.00	2.50	0.00	0.00	0.25	0.25	0.00	0.25	0.00	0.00	0.25	0.708008	0.780762	0.986328	35.490002	-279.790009	61.810001	84.00	-0.07	0.08
1.98	12.50	8.25	8.50	8.25	6.75	8.50	1.25	10.00	2.25	4.25	3.00	3.75	10.75	1.00	0.75	1.75	-0.145508	0.074707	0.970703	-0.210000	14.210000	-1.470000	1084.00	-0.10	-0.14	0.75	1.25	0.50	0.75	0.25	0.00	2.50	0.00	0.00	0.25	0.50	0.00	0.00	0.00	0.00	0.00	0.542969	0.760254	0.953613	36.959999	-290.360016	92.889999	89.00	-0.09	0.08
1.99	11.00	7.75	8.25	7.75	6.50	8.50	1.25	10.00	2.25	4.50	3.50	4.00	11.00	1.00	0.75	2.25	-0.142578	0.086914	0.960449	3.430000	14.700000	-0.910000	1067.00	-0.09	-0.14	0.75	1.50	0.25	0.50	0.00	0.00	2.50	0.00	0.00	0.25	0.00	0.00	0.25	0.00	0.00	0.00	0.398438	0.664551	1.005371	53.480000	-296.380005	115.639999	79.00	-0.10	0.08
2.00	10.25	7.00	7.75	7.50	6.50	8.25	1.00	10.00	2.50	4.75	3.50	4.25	11.00	1.00	0.75	2.25	-0.151367	0.103027	0.959961	3.850000	14.910000	-1.260000	1044.00	-0.08	-0.14	0.75	1.00	0.75	0.25	0.25	0.00	2.50	0.00	0.00	0.25	0.25	0.00	0.00	0.00	0.00	0.00	0.160156	0.373047	1.225098	84.419998	-304.920013	142.029999	81.00	-0.08	0.12
2.01	9.00	6.50	7.25	6.50	6.25	8.00	1.25	10.25	3.25	5.00	3.75	4.75	11.50	1.00	1.00	3.00	-0.156738	0.098633	0.954590	3.080000	14.630000	-1.680000	1043.00	-0.06	-0.15	1.00	1.00	0.50	0.50	0.25	0.00	2.50	0.00	0.00	0.25	0.25	0.00	0.25	0.00	0.00	0.25	0.160156	0.373047	1.225098	84.419998	-304.920013	142.029999	87.00	-0.08	0.08
2.02	8.00	6.25	6.50	6.00	6.00	8.00	1.00	10.25	3.25	5.50	4.50	5.50	11.50	1.25	1.00	3.25	-0.148438	0.096191	0.951660	1.610000	13.930000	-2.170000	1034.00	-0.04	-0.15	1.25	1.25	0.50	1.00	0.00	0.00	2.50	0.00	0.00	0.25	0.00	0.00	0.00	0.00	0.00	0.25	0.036621	0.282715	1.404785	88.410004	-310.799988	148.330002	90.00	-0.13	0.08
2.03	7.50	5.50	6.25	5.25	5.75	7.50	1.00	10.00	4.00	5.75	4.75	6.00	11.75	1.50	1.00	3.50	-0.152832	0.094727	0.963867	0.560000	13.440001	-2.730000	1024.00	-0.02	-0.15	1.00	1.00	0.25	1.00	0.25	0.00	2.50	0.00	0.00	0.00	0.00	0.00	0.00	0.00	0.00	0.25	-0.208008	0.168457	1.698242	83.019997	-329.980011	149.309998	82.00	-0.12	0.08
2.04	6.75	5.25	5.75	5.00	6.00	7.75	1.00	10.25	3.75	6.25	5.50	6.25	12.00	1.50	1.25	4.00	-0.149902	0.096191	0.958984	0.350000	13.300000	-3.150000	1036.00	-0.01	-0.15	1.00	1.00	0.25	0.75	0.00	0.00	2.50	0.00	0.00	0.00	0.00	0.00	0.00	0.00	0.00	0.00	-0.327148	0.169922	1.827148	83.230003	-340.200012	142.100006	75.00	-0.12	0.10
2.05	6.50	5.00	5.25	4.25	5.50	7.50	1.00	10.25	4.00	6.50	6.00	6.75	12.25	1.50	1.75	4.25	-0.160645	0.088867	0.949219	-0.000000	13.440001	-3.570000	1034.00	0.00	-0.15	1.00	1.00	0.25	0.75	0.25	0.00	2.25	0.00	0.00	0.00	0.25	0.00	0.00	0.00	0.00	0.00	-0.425293	0.166992	1.946289	89.459999	-348.320007	130.619995	76.00	-0.12	0.09
2.06	6.00	4.75	5.00	3.50	5.50	7.25	1.00	10.25	4.75	7.25	6.75	7.25	12.25	2.00	1.75	5.00	-0.148926	0.091797	0.960449	0.280000	13.370000	-3.990000	1053.00	0.02	-0.15	0.50	1.00	0.25	0.75	0.00	0.00	2.25	0.00	0.00	0.00	0.00	0.00	0.00	0.00	0.00	0.25	-0.568848	0.161621	2.051758	98.279999	-352.799988	116.970001	66.00	-0.10	0.09
2.07	5.50	4.75	4.75	3.25	5.25	7.25	1.00	10.00	5.00	7.50	7.50	7.75	12.75	2.25	2.00	5.50	-0.151855	0.090820	0.952148	0.630000	13.090000	-4.760000	1068.00	0.03	-0.15	0.50	1.00	0.50	0.50	0.00	0.25	2.50	0.00	0.00	0.25	0.00	0.00	0.00	0.00	0.00	0.00	-0.767090	0.183105	2.191895	103.250000	-351.049988	103.599998	75.00	-0.08	0.10
2.08	5.25	4.75	3.50	2.75	5.25	7.00	1.00	10.00	5.25	8.00	7.75	8.00	13.00	2.50	2.00	6.00	-0.166504	0.103516	0.945801	0.980000	13.090000	-5.250000	1064.00	0.04	-0.15	0.75	1.00	0.25	0.50	0.00	0.00	2.50	0.00	0.00	0.00	0.00	0.00	0.00	0.00	0.00	0.00	-0.972656	0.263672	2.389160	101.919998	-345.660004	92.820000	69.00	-0.10	0.12
2.09	5.00	3.75	3.00	2.25	5.25	7.00	1.00	10.25	6.25	8.25	8.00	8.25	13.50	3.00	2.75	6.75	-0.145020	0.095215	0.946289	0.980000	13.580000	-6.160000	1088.00	0.06	-0.15	0.75	1.00	0.50	0.50	0.25	0.00	2.25	0.00	0.00	0.25	0.00	0.00	0.00	0.00	0.00	0.00	-1.186523	0.416504	2.611328	94.220001	-342.369995	88.269997	74.00	-0.10	0.11
2.10	5.00	3.75	3.00	2.25	5.00	6.75	1.00	10.00	6.50	8.75	8.25	8.50	13.75	3.50	3.00	7.25	-0.153320	0.102051	0.954102	1.190000	14.770000	-7.140000	1106.00	0.07	-0.15	0.50	1.00	0.25	0.50	0.00	0.00	2.25	0.00	0.00	0.25	0.25	0.00	0.00	0.00	0.00	0.00	-1.346680	0.576660	2.801758	81.480003	-343.769989	92.959999	68.00	-0.07	0.10
2.11	4.75	3.25	2.50	2.00	4.75	6.75	1.00	10.00	7.50	9.25	8.75	8.75	14.25	4.50	3.00	7.50	-0.157227	0.092773	0.956055	2.660000	16.799999	-8.260000	1130.00	0.08	-0.14	0.50	1.00	0.25	0.50	0.00	0.00	2.50	0.00	0.00	0.25	0.00	0.00	0.00	0.00	0.00	0.00	-1.525879	0.790039	2.903320	66.709999	-345.519989	105.769997	69.00	-0.07	0.12
2.12	4.25	3.50	2.00	1.50	3.50	5.50	0.75	10.00	8.25	9.75	8.75	9.25	14.75	5.00	3.75	8.25	-0.155762	0.100586	0.970703	5.530000	19.600000	-9.940000	1125.00	0.10	-0.14	0.50	1.00	0.00	0.50	0.00	0.00	2.50	0.00	0.00	0.25	0.00	0.00	0.00	0.00	0.00	0.00	-1.779785	1.009277	2.899902	54.740002	-344.959991	125.930000	66.00	-0.06	0.12
2.13	0.75	0.75	0.00	0.00	2.75	4.25	0.50	9.25	7.75	9.50	8.75	9.00	13.75	5.50	3.75	8.75	-0.185059	0.059570	0.995605	10.500000	24.430000	-11.760000	960.00	0.16	-0.15	0.50	1.00	0.50	0.50	0.00	0.00	2.50	0.00	0.00	0.25	0.25	0.00	0.00	0.00	0.00	0.25	-2.108398	1.189453	2.779297	48.090000	-343.350006	153.580002	76.00	-0.06	0.10
2.14	2.75	2.25	0.75	1.00	3.25	5.50	0.75	10.25	9.00	10.50	10.00	10.00	15.50	6.75	6.00	9.75	-0.176758	0.097168	0.984863	17.219999	32.340000	-10.290000	1176.00	0.14	-0.14	0.75	1.00	0.25	0.75	0.25	0.00	2.50	0.00	0.00	0.25	0.25	0.00	0.00	0.00	0.00	0.00	-2.541016	1.299316	2.559082	46.900002	-339.920013	186.550003	80.00	-0.08	0.09
2.15	2.50	2.00	0.50	1.00	3.00	5.25	0.75	10.25	9.50	11.25	10.25	10.25	15.75	7.75	6.50	10.75	-0.166504	0.105469	1.019531	40.950001	51.240002	-10.990000	1206.00	0.15	-0.14	0.75	1.00	0.50	0.75	0.50	0.25	2.50	0.00	0.00	0.00	0.00	0.00	0.00	0.00	0.00	0.00	-3.013672	1.339355	2.214355	44.450001	-333.549988	221.199997	84.00	-0.12	0.09
2.16	2.50	2.00	0.25	1.00	2.75	5.25	0.50	10.25	10.00	11.75	10.75	10.75	16.25	8.50	7.00	12.00	-0.190918	0.109863	1.035156	56.910000	67.199997	-12.040000	1245.00	0.16	-0.14	0.75	1.00	0.75	0.75	0.25	0.00	2.50	0.00	0.00	0.25	0.00	0.00	0.00	0.00	0.00	0.00	-3.768066	1.291504	1.302734	44.240002	-292.179993	271.670013	84.00	-0.11	0.10
2.17	2.50	2.00	0.50	0.75	2.25	5.25	0.50	10.00	10.25	12.00	11.00	11.00	16.75	9.25	7.50	12.75	-0.189941	0.132812	1.047852	74.900002	84.349998	-11.410000	1269.00	0.17	-0.14	0.75	1.00	0.25	0.50	0.25	0.00	2.50	0.00	0.00	0.25	0.00	0.00	0.00	0.00	0.00	0.00	-4.037598	0.814941	0.483887	68.529999	-261.589996	281.610016	75.00	-0.09	0.11
2.18	2.25	1.25	0.00	0.25	1.75	5.00	0.25	9.75	10.50	12.50	11.50	11.50	16.75	9.75	8.00	14.00	-0.211914	0.136230	1.036621	86.169998	99.330002	-11.130000	1268.00	0.18	-0.14	0.50	1.00	0.25	0.75	0.25	0.00	2.50	0.00	0.00	0.25	0.00	0.00	0.00	0.00	0.00	0.00	-5.934082	-0.246582	0.219727	210.000000	-210.910004	290.570007	75.00	-0.08	0.10
2.19	2.50	1.75	0.00	0.50	1.75	5.00	0.25	9.75	10.75	12.50	11.50	12.00	17.25	10.75	8.50	15.00	-0.263672	0.153809	1.097656	85.820000	113.889999	-9.380000	1314.00	0.18	-0.13	0.25	1.00	0.25	0.75	0.00	0.00	2.25	0.00	0.00	0.25	0.25	0.00	0.00	0.00	0.00	0.00	-7.402344	-1.987305	0.237305	299.250000	-156.869995	295.959991	68.00	-0.07	0.08
2.20	2.00	1.75	0.00	0.50	1.25	5.00	0.25	9.50	10.75	12.50	11.75	12.00	17.25	11.25	9.00	16.00	-0.270020	0.145996	1.169434	86.870003	132.580002	-6.930000	1317.00	0.19	-0.14	0.25	1.00	0.25	0.50	0.25	0.00	2.25	0.00	0.00	0.25	0.00	0.00	0.25	0.00	0.00	0.25	-7.349609	-3.452148	-0.642090	203.419998	-78.889999	263.970001	69.00	-0.05	0.08
2.21	1.75	1.75	0.00	0.50	1.00	4.50	0.25	9.25	10.50	12.50	12.00	12.50	17.50	11.75	9.25	16.75	-0.261719	0.152832	1.185547	87.919998	149.380005	-5.040000	1321.00	0.19	-0.14	1.00	1.25	0.75	0.75	0.25	0.00	2.25	0.25	0.00	0.00	0.00	0.00	0.00	0.00	0.00	0.00	-8.739258	-2.744629	-1.447266	10.010000	37.310001	173.180008	86.00	-0.14	0.06
2.22	1.50	1.75	0.00	0.50	0.75	4.00	0.25	9.00	10.25	12.50	12.00	12.50	17.25	12.50	10.00	17.75	-0.310547	0.171875	1.151855	80.849998	169.470001	-2.870000	1320.00	0.20	-0.14	2.00	1.50	1.00	1.00	0.50	0.00	2.50	0.00	0.00	0.00	0.00	0.00	0.00	0.00	0.00	0.00	-3.210449	-2.122070	-1.503418	-47.810001	237.509995	-1.400000	109.00	-0.18	0.08
2.23	2.00	1.25	0.00	0.25	0.75	3.75	0.25	8.50	9.75	12.00	12.00	12.50	17.25	12.75	10.00	18.50	-0.369141	0.318359	1.211914	85.610001	194.250000	-3.220000	1300.00	0.21	-0.14	2.75	1.75	1.25	1.00	0.50	0.00	2.25	0.00	0.00	0.00	0.00	0.00	0.00	0.00	0.00	0.00	-0.391113	-0.979004	1.779297	-137.479996	387.940002	-140.630005	119.00	-0.21	0.07
2.24	2.00	1.50	0.00	0.00	0.25	3.50	0.00	8.25	9.50	11.75	11.75	12.50	16.75	12.75	10.50	18.75	-0.428223	0.389648	1.288574	93.379997	223.160004	-10.430000	1276.00	0.21	-0.14	4.25	2.75	2.00	1.75	0.75	0.00	2.25	0.00	0.00	0.00	0.00	0.00	0.00	0.00	0.00	0.00	0.537109	0.501465	3.875488	-218.610001	318.920013	-184.309998	167.00	-0.25	0.05
2.25	1.50	0.75	0.00	0.00	0.50	2.50	0.00	8.00	9.25	11.25	11.75	12.25	16.50	13.00	10.75	19.25	-0.404785	0.475098	1.307129	97.440002	251.089996	-22.680000	1243.00	0.22	-0.14	5.75	4.25	3.00	2.25	0.50	0.00	2.25	0.00	0.00	0.00	0.00	0.00	0.00	0.00	0.00	0.25	-0.585938	1.091797	2.011719	-212.660004	158.759995	-155.750000	216.00	-0.27	0.03
2.26	1.25	1.75	0.00	0.75	0.25	2.50	0.00	8.00	8.75	11.00	11.50	12.00	16.00	12.50	11.00	19.00	-0.366699	0.476074	1.424316	93.379997	277.200012	-38.849998	1233.00	0.21	-0.14	8.75	6.75	4.50	3.75	0.50	0.00	2.00	0.00	0.00	0.00	0.00	0.00	0.00	0.00	0.00	0.00	-1.250977	0.792969	0.329102	-177.869995	152.949997	-112.209999	306.00	-0.31	0.01
2.27	1.50	0.75	0.00	0.25	0.50	2.25	0.00	7.75	8.50	10.50	11.50	12.00	15.25	12.25	11.00	18.75	-0.374023	0.575684	1.398926	91.000000	308.279999	-55.020000	1195.00	0.22	-0.14	12.00	9.50	5.50	5.25	0.75	0.00	2.00	0.25	0.00	0.00	0.00	0.00	0.25	0.00	0.00	0.00	0.359863	1.593750	0.751953	-88.410004	228.130005	-65.940002	410.00	-0.31	-0.01
2.28	1.50	1.00	0.00	0.25	0.25	2.25	0.00	7.50	8.25	10.25	11.25	11.75	14.75	11.75	10.75	17.75	0.005371	0.526367	0.195312	73.360001	330.190002	-74.550003	1160.00	0.22	-0.14	13.00	11.25	5.75	6.75	0.75	0.00	2.00	0.25	0.00	0.00	0.00	0.50	0.25	0.00	0.00	0.25	-0.791992	-0.496094	2.974121	-17.010000	270.200012	-27.510000	467.00	-0.31	-0.02
2.29	2.00	1.00	0.00	0.25	0.25	1.75	0.00	6.75	7.75	10.25	11.00	11.00	13.50	10.50	10.75	16.00	-0.522949	0.597168	1.614258	59.220001	375.130005	-92.889999	1095.00	0.22	-0.13	19.25	17.25	9.50	10.25	1.50	3.00	2.50	2.25	0.00	0.00	0.25	0.75	1.25	0.00	0.00	0.50	-0.984375	0.907715	3.903809	-83.860001	243.389999	-40.250000	789.00	-0.29	-0.06
2.30	1.50	1.50	0.00	0.25	0.25	1.50	0.25	5.75	7.50	10.25	10.75	10.50	12.25	9.25	10.00	13.50	-0.275391	0.689941	1.625977	50.540001	495.459991	-146.229996	1020.00	0.22	-0.13	21.25	20.50	12.00	12.50	2.50	6.25	2.75	5.25	1.00	1.00	1.25	0.50	1.75	0.00	0.00	0.25	-0.710938	0.351074	2.259277	-124.599998	123.340004	-13.860000	1044.00	-0.25	-0.07
2.31	1.50	0.25	0.00	0.00	0.25	1.00	0.25	4.75	6.75	9.75	10.50	10.25	11.25	7.75	8.75	10.50	-1.610352	0.144531	2.884277	27.020000	550.970032	-149.169998	904.00	0.22	-0.12	22.50	22.75	13.75	14.50	3.25	7.00	2.75	6.50	0.00	0.25	0.50	0.75	2.75	0.00	0.00	0.25	-0.215820	0.214355	1.267578	-147.979996	65.590004	-0.770000	1146.00	-0.26	-0.09
2.32	1.50	0.50	0.00	0.00	0.50	1.00	0.25	3.00	6.00	9.00	9.75	9.00	10.25	5.75	7.00	8.00	-1.748535	1.244629	3.805176	36.610001	574.489990	-140.139999	775.00	0.22	-0.12	26.25	21.50	14.25	15.00	4.75	8.00	3.00	7.25	0.25	0.75	1.25	0.75	3.75	0.00	0.00	0.50	-0.199707	-0.269531	1.538574	-150.289993	47.110001	-0.490000	1263.00	-0.25	-0.08
2.33	1.75	0.50	0.00	0.00	0.25	1.25	0.25	1.50	5.25	8.25	8.50	8.00	8.25	4.00	5.75	6.00	-2.190430	0.672363	4.043945	50.820000	578.059998	-123.900002	647.00	0.21	-0.11	27.00	21.25	15.00	15.25	6.00	8.25	3.25	7.75	0.25	0.50	0.75	0.75	5.00	0.00	0.00	0.75	-0.212402	0.040527	1.277344	-109.410004	18.760000	-1.680000	1316.00	-0.24	-0.09
2.34	1.50	1.00	0.00	0.00	0.25	1.00	0.25	1.25	4.50	7.50	7.50	6.50	7.00	2.25	4.50	4.75	-1.198730	0.705078	4.051758	73.220001	575.890015	-110.320000	544.00	0.20	-0.11	24.00	22.00	15.50	15.75	6.75	8.75	3.25	8.00	0.25	1.00	0.75	1.00	5.50	0.00	0.25	1.00	-0.101562	0.202637	1.067383	-83.300003	4.900000	-0.560000	1339.00	-0.23	-0.09
2.35	1.75	1.00	0.00	0.00	0.25	1.25	0.25	1.00	3.00	6.25	5.75	5.00	5.25	1.50	2.75	3.00	-0.495605	1.135254	3.021973	73.010002	524.510010	-127.050003	419.00	0.18	-0.11	32.00	21.50	17.25	16.00	8.00	10.00	3.75	8.50	1.50	1.00	1.50	2.00	7.00	1.00	1.50	2.25	-0.101562	0.166016	1.060547	-62.650002	-0.770000	0.280000	1578.00	-0.21	-0.08
2.36	1.75	0.75	0.00	0.25	0.25	0.50	0.50	0.75	2.50	6.00	4.25	4.00	4.25	0.75	1.75	1.75	0.088867	1.514648	2.285156	96.949997	491.820007	-142.240005	336.00	0.16	-0.09	30.25	22.75	16.75	16.75	8.50	10.50	4.00	9.25	2.25	1.75	1.25	2.25	8.00	1.25	1.75	2.00	-0.117188	0.083984	1.083496	-42.980000	-4.620000	-0.280000	1635.00	-0.20	-0.08
2.37	1.50	0.50	0.00	0.00	0.50	0.75	0.50	0.75	1.75	5.00	3.50	3.00	3.75	0.25	1.00	0.75	0.938965	1.612305	3.087891	158.899994	486.429993	-154.419998	268.00	0.15	-0.10	31.00	26.25	18.75	18.75	9.25	11.50	4.00	9.50	2.00	2.00	1.50	2.50	8.25	1.25	1.50	2.25	-0.093262	0.115234	1.055176	-23.520000	-5.530000	-1.190000	1758.00	-0.20	-0.09
2.38	1.75	1.00	0.00	0.00	0.75	0.50	0.50	0.50	1.25	4.25	3.00	2.00	2.00	0.00	0.75	0.50	1.289551	1.236328	3.510742	230.020004	440.790009	-188.229996	215.00	0.11	-0.07	30.25	25.25	18.25	18.50	9.50	11.75	4.25	9.50	2.00	2.00	1.75	2.50	8.50	1.25	1.75	2.50	-0.076660	0.135254	0.994141	-13.090000	-2.730000	-1.330000	1750.00	-0.20	-0.09
2.39	2.25	1.50	0.00	0.25	0.75	0.50	0.50	0.25	1.50	4.00	2.25	1.25	1.75	0.25	0.50	0.25	0.307129	1.752441	1.520996	289.799988	342.579987	-254.940002	204.00	0.06	-0.04	29.00	24.00	17.75	17.75	9.75	11.75	4.25	9.75	2.25	2.00	2.00	2.75	9.00	1.50	1.50	2.50	-0.066406	0.125000	0.998047	-9.310000	1.190000	-2.870000	1729.00	-0.19	-0.09
2.40	2.25	1.00	0.00	0.00	0.50	0.00	0.50	0.00	0.50	4.00	2.50	1.50	1.75	0.25	0.25	0.25	2.489746	1.200195	4.582520	235.759995	102.340004	-229.389999	171.00	0.08	-0.05	27.00	22.25	17.25	17.25	10.00	11.75	4.25	9.75	2.75	2.25	1.75	3.00	9.25	1.75	1.75	2.75	-0.061523	0.110840	0.996582	-7.910000	3.990000	-3.500000	1698.00	-0.18	-0.09
2.41	2.25	1.75	0.25	0.00	0.75	0.25	0.50	0.00	1.00	4.00	2.25	0.25	1.00	0.00	0.25	0.00	2.443848	0.296387	3.012207	129.500000	-96.879997	-152.389999	167.00	0.03	0.00	25.00	20.00	16.50	16.25	10.00	11.25	4.25	10.00	2.25	2.50	2.00	3.25	9.50	1.50	1.75	3.00	-0.056152	0.113281	0.989258	-6.790000	6.930000	-4.200000	1633.00	-0.17	-0.09
2.42	2.00	0.75	0.00	0.00	0.75	0.50	0.75	0.00	1.00	4.00	1.75	0.75	1.25	0.00	0.00	0.00	1.344727	0.697754	2.691895	-34.090000	-238.979996	-85.260002	158.00	0.06	-0.00	22.75	17.25	15.25	15.25	10.00	11.00	4.25	10.00	2.50	2.75	2.25	3.50	10.00	1.50	2.00	3.25	-0.059082	0.117188	1.001953	-7.000000	9.450000	-4.760000	1571.00	-0.15	-0.10
2.43	1.75	1.50	0.00	0.25	0.75	0.50	0.75	0.00	0.75	3.75	2.00	0.50	1.50	0.00	0.00	0.00	1.047363	0.784668	1.674316	-126.699997	-306.880005	-41.299999	161.00	0.03	-0.03	19.75	14.50	14.00	13.75	9.75	10.50	4.25	10.00	2.50	2.50	2.25	3.50	10.25	1.50	2.00	3.75	-0.082031	0.111328	1.004883	-6.580000	12.390000	-5.110000	1470.00	-0.14	-0.10
2.44	2.25	1.25	0.00	0.00	0.75	0.50	0.50	0.00	1.25	3.50	1.75	0.50	1.25	0.00	0.00	0.00	0.907227	1.010254	1.195312	-144.690002	-327.390015	-16.940001	156.00	0.03	-0.00	17.00	12.00	13.00	12.25	9.50	10.00	4.25	10.00	2.50	2.75	2.50	3.75	10.50	1.50	2.00	4.00	-0.070312	0.095215	1.010254	-4.690000	15.610000	-4.690000	1387.00	-0.12	-0.11
2.45	2.50	1.50	0.00	0.50	0.75	0.75	0.75	0.25	0.50	3.25	1.75	0.25	1.25	0.00	0.25	0.00	0.578125	0.967285	0.763184	-45.009998	-327.880005	0.210000	165.00	-0.01	-0.04	14.50	9.50	11.50	11.25	9.25	9.75	4.00	9.75	2.75	3.00	2.50	4.00	10.75	1.75	2.50	3.75	-0.078613	0.091309	1.005371	-1.540000	18.410000	-4.200000	1307.00	-0.10	-0.11
2.46	1.75	1.75	0.00	0.00	0.75	0.25	0.50	0.00	0.75	3.75	1.25	0.50	1.50	0.00	0.00	0.00	0.500488	0.855957	0.700195	26.389999	-322.630005	5.110000	145.00	0.02	-0.02	12.00	7.75	10.00	9.25	8.50	9.25	4.00	9.75	2.75	3.25	3.00	4.25	11.00	1.75	2.25	4.25	-0.080566	0.095703	1.000977	2.590000	20.510000	-3.500000	1218.00	-0.08	-0.12
2.47	2.25	1.00	0.00	0.00	0.50	0.50	0.75	0.00	0.00	3.25	1.00	0.25	1.25	0.25	0.00	0.00	0.377930	0.713379	0.923828	82.599998	-323.750000	14.490000	125.00	-0.00	-0.02	9.50	6.75	9.00	8.50	8.00	8.75	4.00	9.75	3.00	2.75	2.50	4.50	11.00	1.50	2.25	4.25	-0.084961	0.107910	0.991699	5.950000	21.490000	-3.430000	1139.00	-0.07	-0.13
2.48	2.25	1.50	0.00	0.25	0.75	0.50	0.75	0.00	0.50	2.75	1.25	0.25	0.75	0.00	0.00	0.00	0.251953	0.562012	1.142578	115.290001	-337.049988	30.240000	134.00	-0.03	-0.00	8.00	6.00	7.25	7.75	6.75	8.25	3.75	9.50	2.75	3.00	2.50	4.25	10.25	1.25	1.00	3.50	-0.070312	0.122070	0.985840	7.210000	21.629999	-4.410000	1023.00	-0.06	-0.13
2.49	2.25	1.25	0.00	0.00	0.75	0.50	0.75	0.25	0.50	2.75	1.25	0.25	1.25	0.00	0.00	0.00	0.160645	0.412109	1.217773	121.169998	-355.250000	51.450001	137.00	-0.01	-0.02	6.00	4.25	6.00	5.50	6.00	6.75	3.25	9.00	1.50	2.00	2.25	3.75	10.50	0.50	1.50	4.00	-0.100586	0.124512	0.982422	6.790000	21.490000	-6.090000	863.00	-0.05	-0.15
2.50	1.75	1.25	0.00	0.25	0.50	0.25	0.75	0.00	0.75	3.00	1.00	0.25	1.25	0.00	0.00	0.00	0.015137	0.335938	1.258789	107.870003	-371.279999	74.830002	128.00	0.01	-0.00	5.50	3.00	5.00	3.25	5.50	6.50	3.25	8.75	1.75	2.50	2.25	4.00	10.75	0.50	1.25	4.50	-0.097168	0.124512	0.977051	5.950000	21.139999	-7.350000	807.00	-0.02	-0.16
2.51	2.00	1.25	0.00	0.00	0.50	0.25	0.50	0.00	0.50	2.50	1.25	0.00	0.75	0.00	0.00	0.00	-0.130859	0.312988	1.283203	86.379997	-381.220001	97.160004	109.00	-0.02	0.01	4.75	3.25	5.25	3.50	5.00	6.00	3.25	8.75	1.75	2.75	2.75	4.50	11.75	1.75	3.25	5.50	-0.100098	0.116699	0.978027	4.760000	20.230000	-8.400000	860.00	0.00	-0.16
2.52	2.25	1.75	0.00	0.00	0.50	0.25	0.50	0.00	0.50	3.00	1.25	0.50	0.75	0.00	0.00	0.00	-0.243164	0.298828	1.306641	67.620003	-385.350006	116.690002	129.00	-0.02	-0.01	4.50	3.25	5.50	4.25	5.25	5.75	3.25	8.75	1.75	2.50	2.75	4.75	11.00	0.50	1.75	5.25	-0.106445	0.105469	0.971191	3.290000	17.920000	-8.890000	832.00	-0.01	-0.16
2.53	2.00	1.50	0.00	0.25	0.75	0.25	0.50	0.00	0.25	2.75	1.00	0.25	0.50	0.00	0.00	0.00	-0.337891	0.308105	1.337402	53.970001	-386.329987	132.229996	115.00	-0.04	-0.00	4.00	2.50	3.50	3.25	4.00	5.50	3.25	8.50	1.75	3.00	3.00	5.00	11.25	2.00	2.00	5.50	-0.119141	0.116699	0.988281	3.500000	17.010000	-8.750000	792.00	0.02	-0.17
2.54	1.75	1.25	0.00	0.00	0.50	0.25	0.75	0.00	1.00	2.75	1.00	0.00	1.00	0.00	0.00	0.00	-0.423340	0.315430	1.397949	46.759998	-386.470001	144.830002	120.00	0.02	0.02	3.50	2.50	3.25	2.25	4.00	5.50	3.00	8.50	2.25	3.00	3.25	5.50	11.25	0.75	2.25	6.00	-0.112305	0.119629	0.979492	3.710000	16.450001	-9.030000	777.00	0.03	-0.17
2.55	2.25	1.50	0.00	0.25	0.50	0.25	0.75	0.00	0.25	3.00	1.25	0.00	1.25	0.00	0.00	0.00	-0.500488	0.328125	1.502930	44.450001	-385.980011	155.470001	129.00	-0.03	-0.01	2.50	2.25	3.00	2.25	3.50	5.25	3.00	8.50	2.50	3.50	3.75	6.00	11.75	1.25	2.50	6.50	-0.111328	0.122070	0.972656	3.290000	15.890000	-9.590000	787.00	0.05	-0.18
2.56	2.00	1.00	0.00	0.00	0.50	0.50	0.75	0.25	0.25	3.00	1.00	0.25	0.50	0.00	0.00	0.00	-0.565430	0.336914	1.630371	42.700001	-385.630005	164.220001	118.00	-0.01	-0.00	2.25	1.75	2.50	2.00	3.25	5.50	3.25	9.25	4.75	6.75	6.75	8.25	13.00	2.75	4.25	8.25	-0.111328	0.134277	0.967285	2.450000	15.400000	-11.060000	972.00	0.10	-0.15
2.57	2.00	1.50	0.00	0.50	0.75	0.50	0.75	0.00	0.25	3.00	1.25	0.00	1.00	0.00	0.00	0.00	-0.645508	0.360352	1.778809	40.389999	-384.510010	170.589996	132.00	-0.03	-0.02	4.25	3.00	3.50	3.25	4.00	5.75	3.25	9.25	5.00	7.00	7.25	8.25	13.25	3.00	4.75	9.00	-0.112305	0.118164	0.980469	2.030000	14.980000	-12.880000	1074.00	0.08	-0.14
2.58	1.50	1.00	0.00	0.00	0.75	0.25	0.50	0.00	0.25	2.50	1.00	0.00	0.75	0.00	0.00	0.00	-0.735352	0.410156	1.925781	38.220001	-382.970001	174.509995	98.00	-0.00	0.00	4.25	3.00	3.50	3.50	4.00	5.75	3.25	9.25	5.50	7.75	7.75	8.75	13.75	3.50	5.00	9.50	-0.116699	0.119141	0.980469	1.540000	15.050000	-14.490000	1119.00	0.08	-0.14
2.59	1.50	2.00	0.00	0.00	0.50	0.25	0.50	0.00	0.50	2.75	1.00	0.00	1.25	0.00	0.00	0.00	-1.009277	0.597656	2.300293	44.450001	-371.000000	179.550003	116.00	-0.02	-0.02	3.25	2.75	3.25	3.00	3.75	5.50	3.25	9.00	6.00	8.00	8.00	9.00	14.00	4.25	5.75	10.25	-0.106445	0.135254	0.964844	1.120000	15.820000	-16.309999	1124.00	0.10	-0.14
2.60	2.00	1.00	0.00	0.25	0.50	0.25	0.75	0.00	1.25	2.75	1.25	0.00	1.00	0.00	0.00	0.00	-1.301270	0.690918	2.506348	59.360001	-355.459991	185.779999	130.00	0.02	0.03	1.75	1.75	1.75	1.50	2.75	4.25	2.75	8.50	5.50	7.75	7.75	8.50	13.25	3.50	5.25	10.00	-0.103516	0.130371	0.973145	1.120000	17.430000	-18.549999	978.00	0.13	-0.15
2.61	2.00	1.25	0.00	0.00	0.50	0.25	0.50	0.00	0.50	2.75	1.00	0.25	1.00	0.00	0.00	0.00	-1.633789	0.665039	2.811523	76.300003	-335.510010	195.509995	115.00	-0.01	-0.01	1.00	1.75	1.25	1.75	2.75	4.00	2.75	8.25	6.50	8.75	8.75	9.75	14.75	6.25	7.25	12.00	-0.128906	0.117676	0.990723	3.570000	20.230000	-20.299999	1085.00	0.16	-0.14
2.62	2.00	1.00	0.00	0.00	0.75	0.50	0.50	0.00	0.50	2.50	0.75	0.00	0.75	0.00	0.00	0.00	-2.001953	0.508789	3.041504	78.120003	-321.929993	207.410004	107.00	-0.03	0.01	0.75	1.25	0.00	1.25	2.50	4.00	2.75	8.25	6.75	9.00	8.75	9.50	14.25	6.00	6.75	12.25	-0.126953	0.116211	1.021484	9.380000	25.620001	-21.000000	1045.00	0.17	-0.14
2.63	1.50	1.00	0.00	0.00	1.00	0.25	0.50	0.00	0.50	2.25	1.25	0.00	0.50	0.00	0.00	0.00	-2.368164	0.487305	3.360352	42.910000	-322.279999	215.600006	102.00	-0.00	0.02	0.50	1.25	1.00	1.50	2.25	4.25	2.50	8.50	7.50	9.50	9.00	10.00	14.75	6.75	7.50	13.25	-0.137207	0.143066	1.061035	19.460001	33.180000	-22.049999	1109.00	0.17	-0.14
2.64	2.25	1.00	0.00	0.25	0.50	0.25	0.50	0.00	0.25	2.75	1.25	0.25	0.75	0.00	0.00	0.00	-2.945312	0.636230	3.471680	-6.440000	-338.940002	225.330002	115.00	-0.02	-0.01	0.75	1.25	0.50	1.50	2.00	3.00	2.50	8.50	8.00	10.25	9.50	11.00	16.00	7.50	8.00	14.75	-0.153809	0.168945	1.097168	54.110001	55.580002	-26.600000	1154.00	0.18	-0.14
2.65	1.75	1.25	0.00	0.00	0.50	0.50	0.50	0.25	0.50	2.75	1.00	0.25	0.75	0.00	0.00	0.00	-3.495605	0.694336	2.986816	-58.380001	-363.230011	233.169998	117.00	-0.00	-0.02	1.00	1.50	0.00	1.50	1.75	3.50	2.25	8.50	8.25	10.75	9.75	10.75	15.50	8.50	8.75	15.75	-0.177246	0.129883	1.117676	73.220001	76.580002	-27.860001	1180.00	0.19	-0.14
2.66	2.00	1.00	0.00	0.50	0.75	0.50	0.50	0.00	0.00	2.50	1.25	0.25	1.00	0.00	0.00	0.00	-4.276855	0.970703	2.078125	-113.400002	-381.149994	229.809998	117.00	-0.04	-0.04	0.75	1.25	0.00	1.00	1.50	3.75	2.00	8.25	9.00	11.75	11.00	12.00	17.00	10.75	10.75	18.50	-0.195312	0.151855	1.159668	87.919998	97.160004	-28.000000	1286.00	0.20	-0.13
2.67	3.00	0.50	0.00	0.00	0.50	0.25	0.50	0.00	0.50	2.50	1.00	0.25	1.00	0.00	0.00	0.00	-5.288574	1.344238	1.020020	-145.320007	-381.429993	210.630005	115.00	-0.02	0.01	2.00	2.50	1.50	2.50	2.00	5.00	2.25	8.75	9.75	12.25	11.25	12.25	17.25	11.75	11.50	19.50	-0.208496	0.151855	1.202148	93.519997	114.590004	-27.370001	1430.00	0.18	-0.13
2.68	1.75	1.00	0.00	0.00	0.75	0.50	0.75	0.25	0.00	2.75	1.00	0.50	1.50	0.00	0.00	0.00	-6.568359	1.442383	-0.347656	-120.750000	-366.799988	165.479996	124.00	0.00	-0.05	0.50	1.25	0.00	0.75	1.50	4.75	2.00	8.75	9.75	12.25	11.50	12.50	17.50	12.75	12.25	20.50	-0.201172	0.124023	1.255371	93.660004	131.740005	-25.690001	1380.00	0.21	-0.13
2.69	1.25	1.50	0.00	0.50	0.50	0.25	0.50	0.50	0.75	2.75	1.25	0.00	1.00	0.00	0.00	0.00	-7.955078	0.992676	-1.761230	7.910000	-325.149994	106.470001	126.00	0.01	-0.04	0.50	1.50	0.00	2.00	0.75	3.25	1.75	8.00	8.50	11.25	10.75	11.75	16.00	11.50	11.25	20.00	-0.243164	0.165039	1.293945	95.760002	153.020004	-20.719999	1268.00	0.21	-0.14
2.70	2.00	1.25	0.25	0.25	0.50	0.50	0.50	0.25	0.00	2.75	1.00	0.00	0.75	0.00	0.00	0.00	-8.087402	-0.262695	-2.201172	194.110001	-223.649994	73.500000	115.00	-0.05	-0.03	0.25	1.00	0.00	1.00	0.50	3.00	1.75	7.75	8.25	11.00	10.75	11.50	16.00	12.25	12.00	21.00	-0.324707	0.224121	1.233398	103.879997	181.860001	-18.340000	1250.00	0.22	-0.14
2.71	2.50	1.75	0.50	0.25	0.75	0.25	0.50	0.50	0.00	2.00	0.50	0.00	1.00	0.00	0.00	0.00	-9.715820	-2.347168	-1.190918	214.759995	2.030000	60.270000	121.00	-0.11	-0.04	0.25	1.00	0.00	1.00	0.25	3.25	1.50	7.50	8.00	10.75	10.75	11.50	15.75	12.25	12.25	21.75	-0.327637	0.274414	1.411133	114.099998	215.529999	-20.719999	1240.00	0.22	-0.14
2.72	3.75	3.00	0.75	1.25	1.25	0.50	0.50	0.50	0.00	2.25	0.75	0.00	0.75	0.00	0.00	0.00	-5.818359	-2.961914	-2.510742	58.799999	224.070007	-5.880000	175.00	-0.17	-0.04	1.25	1.50	1.00	1.00	0.25	2.75	1.50	7.25	7.50	10.50	10.50	11.50	15.50	12.25	12.50	22.50	-0.318359	0.416016	1.501465	118.580002	247.100006	-26.040001	1251.00	0.21	-0.14
2.73	5.50	5.25	2.00	2.00	1.25	0.25	0.50	0.25	0.00	2.25	0.50	0.00	0.50	0.00	0.00	0.00	-1.036621	0.134277	-0.164062	-89.180000	346.149994	-121.309998	230.00	-0.23	-0.03	0.25	1.00	0.25	1.25	0.00	3.00	1.50	7.00	7.00	10.00	10.25	11.25	15.00	12.00	13.00	22.25	-0.314941	0.625000	1.452148	125.370003	280.140015	-42.000000	1203.00	0.22	-0.14
2.74	9.75	8.25	3.50	5.00	1.00	0.50	0.50	0.50	0.00	1.75	0.00	0.25	1.25	0.00	0.00	0.00	-0.192383	0.818848	1.436035	-195.160004	167.789993	-121.379997	365.00	-0.28	-0.05	0.50	1.00	0.00	1.00	0.00	2.75	1.50	6.75	6.50	9.50	10.00	11.00	14.50	12.00	13.00	22.00	-0.367676	0.632324	1.776855	119.559998	307.230011	-64.889999	1168.00	0.23	-0.14
2.75	14.50	11.25	5.00	6.00	1.00	0.50	0.50	0.50	0.00	1.75	0.50	0.25	1.00	0.00	0.00	0.00	-0.922363	1.129883	0.831543	-217.419998	197.050003	-84.279999	483.00	-0.30	-0.04	0.25	0.75	0.00	0.75	0.00	2.25	1.50	6.50	6.00	9.25	9.75	10.50	14.00	11.25	13.00	21.25	-0.442871	0.700684	1.451660	104.720001	327.110016	-89.739998	1114.00	0.23	-0.14
2.76	18.25	13.75	6.50	7.75	1.00	0.75	0.50	1.00	0.00	1.75	0.75	0.00	1.50	0.00	0.00	0.00	-0.854492	0.525391	2.047363	-158.759995	316.959991	-29.889999	606.00	-0.30	-0.04	0.00	0.25	0.00	0.50	0.00	2.00	1.50	5.75	5.50	9.00	9.50	9.75	12.75	10.25	12.50	19.75	-0.419922	0.953125	1.864746	61.810001	405.790009	-146.580002	1031.00	0.24	-0.14
2.77	20.50	15.75	7.50	9.00	1.25	2.50	0.50	1.75	0.00	2.25	0.25	0.50	1.75	0.00	0.00	0.00	-0.737793	-0.197754	2.738281	-73.150002	328.790009	20.580000	723.00	-0.29	-0.06	0.00	0.50	0.00	0.00	0.00	1.50	1.75	5.25	5.25	9.00	9.25	9.25	11.75	9.00	11.75	17.25	-0.789062	0.979004	1.702637	21.420000	453.809998	-175.839996	961.00	0.24	-0.13
2.78	21.75	16.50	8.75	10.25	1.50	5.25	0.50	3.75	0.00	1.75	0.75	0.50	2.75	0.00	0.00	0.00	-1.045410	-0.994629	3.885254	-78.750000	268.799988	-4.480000	853.00	-0.27	-0.08	0.00	0.25	0.00	0.00	0.00	0.50	1.75	3.50	4.25	8.50	9.00	8.75	11.00	7.75	10.50	13.75	-0.577148	1.239746	2.138672	3.010000	511.489990	-208.949997	835.00	0.25	-0.13
2.79	22.00	16.50	9.50	11.00	2.25	7.75	0.75	6.50	0.25	1.75	0.75	0.75	3.50	0.00	0.00	0.00	-0.482422	0.138672	1.833984	-63.000000	165.339996	-21.000000	976.00	-0.25	-0.10	0.00	0.00	0.00	0.00	0.00	0.00	1.50	2.00	3.00	7.75	8.50	8.00	10.00	6.00	8.75	10.50	-0.996582	1.030273	3.245605	7.980000	544.669983	-225.889999	691.00	0.26	-0.13
2.80	22.00	16.25	10.50	11.50	2.75	8.75	0.75	8.00	0.25	2.00	0.75	0.75	5.00	0.00	0.00	0.00	-0.133789	0.441406	1.408691	-73.779999	103.110001	-10.920000	1052.00	-0.23	-0.11	0.50	1.75	1.25	1.75	0.50	2.00	1.75	2.50	4.75	7.75	8.25	8.00	9.50	5.75	8.25	8.75	-1.738770	1.377441	3.221191	-0.070000	550.619995	-222.460007	792.00	0.19	-0.11
2.81	20.25	15.00	10.50	11.50	3.25	9.00	0.75	8.25	0.25	2.00	1.00	0.75	5.50	0.00	0.00	0.00	-0.322754	0.088867	1.048828	-101.010002	46.549999	-5.740000	1040.00	-0.22	-0.12	0.00	1.50	1.50	1.50	0.50	2.00	2.00	2.00	4.25	6.50	6.00	5.25	8.25	4.25	6.75	7.00	-1.538574	1.312012	4.301270	33.950001	528.849976	-217.279999	648.00	0.18	-0.11
2.82	20.25	15.00	11.25	12.25	5.50	9.75	1.00	9.25	0.75	2.75	1.25	1.50	8.00	0.00	0.00	0.25	-0.298340	0.069824	1.343750	-115.570000	6.230000	-12.460000	1167.00	-0.20	-0.12	1.50	1.75	1.25	1.75	0.50	1.75	2.00	2.00	3.50	5.00	5.00	5.50	7.00	2.75	5.50	5.75	-0.840820	1.144043	3.071289	45.080002	477.540009	-230.020004	580.00	0.15	-0.11
2.83	23.00	16.25	12.25	12.25	6.50	10.75	1.00	9.75	1.00	3.00	1.50	1.75	8.75	0.00	0.25	0.50	-0.217285	0.135742	1.126953	-113.260002	-9.030000	-11.200000	1279.00	-0.19	-0.12	0.00	0.25	0.00	0.25	0.00	0.00	2.25	2.00	3.00	2.50	4.00	4.50	3.75	0.00	2.25	3.00	0.358887	1.614746	2.212402	43.259998	452.059998	-249.410004	324.00	0.19	-0.11
2.84	22.75	16.25	12.50	12.50	7.25	11.00	1.25	10.25	0.75	3.25	1.50	1.75	9.50	0.00	0.25	0.75	-0.185059	0.152344	1.092285	-84.629997	-14.350000	-6.160000	1314.00	-0.19	-0.12	2.25	1.75	1.75	1.75	0.75	1.75	2.50	1.75	2.50	3.25	3.50	3.75	4.75	1.50	3.25	3.75	0.707031	2.219238	2.219238	84.349998	434.420013	-263.829987	460.00	0.09	-0.09
2.85	18.50	15.75	12.25	12.50	7.75	11.25	1.25	10.75	1.75	3.75	1.75	2.25	10.25	0.25	0.25	1.00	-0.098145	0.118652	1.030762	-52.779999	-16.379999	-3.710000	1315.00	-0.17	-0.13	1.75	0.75	1.00	1.25	0.75	1.00	2.75	1.25	1.75	2.25	2.25	3.00	4.25	1.25	2.75	3.25	1.140625	1.931152	2.791992	173.669998	376.110016	-275.100006	355.00	0.11	-0.09
2.86	21.75	15.25	12.25	12.50	8.25	11.50	1.25	11.00	1.75	3.75	2.00	2.50	10.75	0.25	0.50	1.25	-0.148438	0.100586	1.026367	-30.309999	-15.540000	-3.220000	1375.00	-0.17	-0.12	2.25	2.00	2.00	2.00	1.00	1.75	2.50	1.25	2.25	3.00	2.75	2.75	3.50	1.50	2.50	2.75	1.232910	0.754395	3.784668	283.850006	278.950012	-332.500000	410.00	0.06	-0.07
2.87	20.75	14.50	12.00	12.25	8.75	11.75	1.25	11.25	2.00	4.00	2.25	3.00	11.50	0.25	0.25	1.50	-0.136719	0.077148	1.008789	-16.870001	-9.520000	-3.220000	1384.00	-0.16	-0.13	2.25	2.00	1.75	2.25	1.00	1.50	2.50	1.25	2.25	2.50	2.50	2.50	3.75	1.25	2.25	2.25	1.669922	1.650391	5.172363	241.080002	86.449997	-318.570007	390.00	0.05	-0.07
2.88	19.75	13.75	11.75	11.75	9.00	11.50	1.50	11.50	2.00	4.25	2.75	4.00	11.75	0.50	0.50	2.00	-0.138672	0.096191	1.002441	-6.510000	1.680000	-3.220000	1395.00	-0.14	-0.13	2.50	2.00	1.75	2.00	1.00	1.50	2.75	1.25	2.00	2.75	2.50	2.25	2.75	1.50	2.00	2.50	1.407715	0.707031	2.316895	-17.150000	-207.899994	-173.180008	382.00	0.05	-0.06
2.89	18.25	12.75	11.25	11.25	9.25	11.25	1.50	11.75	2.25	4.50	2.50	4.00	12.00	0.75	0.75	2.50	-0.130859	0.105469	0.980469	-5.180000	6.510000	-3.220000	1374.00	-0.13	-0.13	2.25	2.00	1.50	2.00	1.00	1.25	2.75	1.25	2.25	2.50	2.50	2.25	3.00	1.25	2.25	2.50	1.041992	1.132324	1.500000	-127.120003	-261.309998	-112.000000	377.00	0.06	-0.06
2.90	17.25	11.50	11.00	10.75	9.25	11.25	1.50	11.75	2.25	4.75	3.25	4.50	12.25	1.00	1.00	2.75	-0.124023	0.083008	0.999512	-4.130000	11.410000	-3.290000	1367.00	-0.12	-0.13	2.25	2.00	1.75	2.00	1.00	1.50	2.75	1.25	2.25	2.50	2.25	2.00	3.00	1.50	2.25	2.50	0.929199	1.392090	1.014648	-162.119995	-283.779999	-58.029999	379.00	0.05	-0.06
2.91	15.25	10.25	10.00	10.00	9.00	10.75	1.50	11.75	2.75	4.75	3.75	5.00	12.50	0.75	1.00	3.00	-0.126953	0.077148	0.995605	-3.360000	16.309999	-3.290000	1322.00	-0.10	-0.14	2.25	2.00	1.50	2.00	1.00	1.50	2.75	1.25	2.00	2.25	2.25	2.00	2.50	1.75	2.00	2.25	0.782227	1.368164	0.649902	-137.410004	-289.170013	-19.740000	363.00	0.05	-0.06
2.92	13.75	9.25	9.75	9.50	9.00	10.50	1.50	11.75	3.25	5.25	4.00	5.25	12.75	1.25	1.00	3.25	-0.135742	0.079102	0.996094	-2.100000	20.719999	-2.730000	1310.00	-0.09	-0.14	2.50	1.75	1.75	2.00	1.00	1.50	2.75	1.25	2.00	2.25	2.25	2.00	2.50	1.25	2.00	2.25	0.699707	1.443848	0.492188	-78.889999	-287.420013	7.000000	362.00	0.04	-0.05
2.93	12.00	8.25	9.00	8.75	8.75	10.00	1.50	11.50	3.25	5.50	4.25	5.25	12.75	1.00	1.25	3.75	-0.132324	0.067383	0.989746	-0.000000	24.430000	-1.540000	1258.00	-0.07	-0.14	2.50	1.75	1.75	2.00	1.00	1.25	2.75	1.25	2.00	2.25	2.00	1.75	2.25	1.25	2.00	2.00	0.575684	1.357910	0.517090	-14.630000	-283.779999	32.060001	349.00	0.04	-0.05
2.94	10.25	7.25	8.25	8.00	8.25	9.75	1.25	11.50	4.00	5.75	4.50	5.75	13.00	1.25	1.50	4.00	-0.139648	0.079590	0.986328	3.010000	27.930000	-0.770000	1228.00	-0.05	-0.14	2.25	2.00	1.75	2.00	1.00	1.50	2.75	1.25	2.00	2.00	2.00	1.75	2.75	1.25	1.50	2.00	0.486816	1.150879	0.585449	36.259998	-282.170013	58.099998	348.00	0.03	-0.06
2.95	9.00	6.50	7.75	7.50	8.00	9.00	1.25	11.25	4.25	6.25	5.50	6.00	12.75	1.25	1.50	4.25	-0.117188	0.092773	0.983398	4.830000	30.730000	-0.980000	1201.00	-0.04	-0.14	2.00	2.00	1.75	2.00	0.75	1.25	2.75	1.25	1.75	2.00	2.00	1.50	1.00	0.00	0.00	0.25	0.408203	1.014160	0.723145	64.190002	-283.570007	84.910004	277.00	-0.03	-0.03
2.96	8.00	5.75	6.75	6.25	7.50	8.75	1.25	11.25	4.75	6.50	5.50	6.25	12.75	1.50	1.75	5.00	-0.144043	0.085938	0.977539	6.370000	32.689999	-2.030000	1168.00	-0.02	-0.15	0.00	0.25	0.00	0.00	0.00	0.00	2.50	0.00	0.00	0.50	0.00	0.25	0.00	0.00	0.00	0.25	0.292480	0.889160	0.895020	69.790001	-289.239990	113.610001	54.00	0.09	0.16
2.97	6.75	5.25	6.25	5.25	6.75	8.25	1.25	11.00	5.25	7.00	6.00	6.50	12.75	1.50	2.00	5.50	-0.143555	0.092773	0.967773	7.840000	34.020000	-2.730000	1139.00	-0.00	-0.15	0.00	0.00	0.00	0.00	0.00	0.00	2.50	0.00	0.00	0.50	0.25	0.00	0.00	0.00	0.00	0.00	0.160156	0.765137	1.007812	65.449997	-300.649994	142.029999	50.00	0.00	0.00
2.98	6.00	5.00	5.25	4.75	6.00	7.75	1.00	10.75	5.25	7.50	6.25	6.75	12.50	1.75	2.25	5.50	-0.173340	0.086426	0.966797	9.660000	34.860001	-3.570000	1101.00	0.01	-0.15	0.00	0.00	0.00	0.00	0.00	0.00	2.50	0.00	0.00	0.00	0.00	0.00	0.00	0.00	0.00	0.00	0.051270	0.665527	1.073242	59.150002	-313.110016	165.130005	41.00	0.00	0.00
2.99	5.50	4.00	5.00	3.75	5.25	7.25	1.00	10.50	5.25	7.50	6.75	6.50	12.50	1.75	2.25	6.00	-0.155273	0.080566	0.969238	12.810000	35.560001	-5.040000	1057.00	0.03	-0.15	0.00	0.00	0.00	0.00	0.00	0.00	2.50	0.00	0.00	0.25	0.25	0.25	0.00	0.00	0.00	0.00	-0.101074	0.515137	1.160645	59.779999	-330.190002	190.960007	50.00	0.00	0.00
3.00	4.00	2.50	2.75	0.50	4.00	6.75	0.75	9.25	4.25	6.75	6.25	6.75	12.50	2.25	2.50	6.25	-0.141113	0.096191	0.979980	17.639999	37.520000	-5.950000	896.00	0.07	-0.17	0.00	0.25	0.00	0.00	0.00	0.00	2.50	0.00	0.00	0.25	0.25	0.25	0.25	0.75	0.75	1.00	-0.188965	0.438477	1.270020	68.180000	-334.739990	196.000000	76.00	0.17	0.08
3.01	4.00	3.25	3.00	1.75	4.00	6.00	0.75	10.00	6.25	8.00	7.50	7.50	12.25	2.00	2.50	6.50	-0.164551	0.104492	1.021484	23.100000	42.070000	-7.140000	988.00	0.07	-0.15	2.00	2.00	1.75	1.75	1.00	1.25	2.75	1.00	1.25	1.50	1.25	1.25	2.25	1.00	1.25	1.25	-0.266602	0.373535	1.428711	78.050003	-337.820007	197.399994	290.00	0.00	-0.05
3.02	3.75	3.25	2.00	1.50	3.50	5.50	0.75	9.50	6.25	8.00	7.50	7.50	12.50	2.50	3.00	6.75	-0.151367	0.087891	0.989258	31.850000	49.349998	-6.580000	964.00	0.08	-0.15	2.25	2.00	1.75	2.00	1.25	1.50	2.75	0.75	1.50	1.50	1.25	1.25	2.25	1.00	1.25	1.25	-0.347656	0.302734	1.609863	83.720001	-342.230011	196.279999	301.00	-0.00	-0.04
3.03	3.75	3.25	1.50	1.00	3.25	5.50	0.75	9.25	6.50	8.00	7.75	7.50	12.75	2.75	3.00	7.00	-0.185059	0.102539	0.948242	43.889999	55.439999	-5.950000	957.00	0.09	-0.15	2.25	2.00	1.50	2.25	1.00	1.25	2.75	1.00	1.25	1.50	1.25	1.25	2.25	1.00	1.00	1.00	-0.415039	0.257324	1.794434	83.230003	-348.179993	193.550003	291.00	-0.01	-0.05
3.04	3.00	1.75	0.25	0.50	2.25	4.75	0.50	9.00	6.75	8.00	7.75	7.75	12.50	3.00	3.50	7.50	-0.210449	0.118652	0.941406	43.259998	54.950001	-5.810000	898.00	0.13	-0.16	1.25	1.25	1.00	1.25	0.50	1.25	2.75	0.75	1.50	1.25	1.25	1.25	2.00	1.25	1.25	1.50	-0.504395	0.244141	2.014160	79.590004	-354.690002	189.559998	251.00	0.06	-0.04
3.05	3.00	1.75	0.00	0.75	2.00	4.75	0.50	9.00	6.50	8.00	7.75	8.00	12.75	3.25	4.00	7.75	-0.217285	0.126465	0.942383	38.290001	53.830002	-5.740000	906.00	0.13	-0.16	2.25	1.75	1.50	2.00	1.00	1.50	2.75	1.00	1.25	1.50	1.50	1.25	1.75	1.00	1.25	1.25	-0.634766	0.273926	2.248047	79.029999	-362.040009	184.869995	291.00	0.00	-0.05
3.06	3.25	2.25	0.50	0.75	2.25	4.25	0.50	8.50	7.00	8.25	8.00	8.00	12.50	3.75	4.00	8.25	-0.233887	0.120117	0.926758	31.570000	51.590000	-5.460000	927.00	0.13	-0.15	2.25	2.00	2.00	2.00	1.00	1.50	2.75	1.00	1.25	1.50	1.25	1.25	2.00	1.25	1.00	1.25	-0.768555	0.244141	2.441895	85.820000	-368.899994	179.830002	299.00	-0.01	-0.04
3.07	3.50	2.50	0.50	1.00	1.75	3.50	0.50	8.25	7.25	8.50	8.00	8.25	13.00	4.25	4.75	8.50	-0.229492	0.138672	0.923340	26.250000	48.090000	-5.390000	945.00	0.13	-0.15	2.25	2.25	1.75	2.00	0.75	1.25	2.75	1.00	1.75	1.50	1.25	1.25	2.00	1.00	1.00	1.50	-1.016602	0.230957	2.544434	98.279999	-376.250000	175.350006	299.00	-0.00	-0.04
3.08	3.00	2.00	0.25	0.75	1.75	3.75	0.25	8.00	7.25	8.75	8.25	8.25	13.00	4.75	5.25	9.00	-0.233887	0.157715	0.903809	22.610001	43.820000	-6.090000	942.00	0.15	-0.15	2.00	2.00	1.75	2.25	1.00	1.50	2.75	1.00	1.50	1.50	1.50	1.25	2.25	1.00	1.25	1.00	-1.303711	0.235840	2.662598	101.849998	-380.450012	170.729996	304.00	0.00	-0.05
3.09	2.50	2.00	0.25	1.00	1.50	3.50	0.50	8.00	7.75	8.75	8.75	8.75	13.25	5.50	6.00	9.50	-0.237305	0.166992	0.914551	19.740000	41.160000	-8.050000	977.00	0.16	-0.14	2.50	2.00	2.00	2.00	1.00	1.75	2.75	1.00	1.50	1.75	1.25	1.25	2.00	1.25	1.25	1.25	-1.536621	0.257812	2.738770	92.610001	-379.470001	170.169998	314.00	-0.00	-0.04
3.10	2.75	1.75	0.25	0.75	1.50	3.25	0.50	7.75	8.00	9.25	9.00	9.00	13.50	6.25	6.00	10.25	-0.242676	0.184570	0.908203	17.430000	38.990002	-11.060000	996.00	0.16	-0.14	2.25	2.00	1.75	2.25	1.00	1.50	2.50	0.75	1.50	1.50	1.00	1.25	1.75	1.00	1.00	1.00	-1.686523	0.343262	2.792969	72.379997	-373.239990	176.610001	285.00	-0.02	-0.04
3.11	3.00	2.25	0.00	0.75	1.50	3.00	0.50	7.75	8.25	9.75	9.25	9.25	13.75	7.00	6.75	11.00	-0.247070	0.187500	0.914551	15.820000	38.709999	-14.980000	1035.00	0.17	-0.13	2.25	1.75	2.00	2.25	1.00	1.25	2.75	0.75	1.50	1.50	1.25	1.25	1.50	0.75	1.25	1.25	-1.868164	0.474121	2.828613	50.330002	-363.860016	190.680008	289.00	-0.01	-0.03
3.12	2.50	1.25	0.00	0.00	1.50	3.25	0.25	7.50	8.50	10.00	9.75	9.75	14.25	8.00	7.50	11.75	-0.227539	0.148926	0.962891	15.400000	40.110001	-18.200001	1050.00	0.19	-0.13	2.25	2.00	2.25	2.00	1.00	1.50	2.75	1.00	1.50	1.50	1.25	1.25	2.00	1.25	1.25	1.00	-2.540527	0.720703	2.435547	-7.280000	-347.690002	230.020004	307.00	-0.01	-0.04
3.13	2.50	2.00	0.00	0.00	1.00	3.00	0.25	7.75	9.25	10.50	10.00	10.00	14.25	8.75	7.75	12.75	-0.267578	0.169434	0.954102	16.309999	43.959999	-20.650000	1091.00	0.19	-0.13	2.25	2.00	2.00	2.00	1.00	1.50	2.75	0.75	1.25	1.75	1.25	1.25	2.00	0.75	1.00	1.25	-3.014160	1.010742	2.025879	-46.480000	-336.769989	240.169998	293.00	-0.01	-0.04
3.14	2.25	1.50	0.00	0.00	1.00	2.25	0.00	7.50	9.50	11.00	10.25	10.25	14.75	9.50	8.25	13.75	-0.285645	0.187012	0.971191	18.900000	49.700001	-22.330000	1104.00	0.20	-0.13	2.25	1.75	1.75	1.75	1.00	1.50	2.75	1.00	1.50	1.50	1.25	1.25	2.00	1.00	1.00	1.25	-3.525879	1.383789	1.482422	-75.110001	-321.230011	238.699997	291.00	0.00	-0.04
3.15	2.50	1.25	0.00	0.25	1.00	2.50	0.00	7.50	10.00	11.25	10.75	10.50	15.00	10.25	8.75	14.50	-0.270996	0.131836	1.042969	21.559999	57.610001	-22.960001	1149.00	0.20	-0.12	2.00	2.00	1.75	2.00	1.00	1.50	2.75	1.00	1.50	1.50	1.25	1.25	1.75	1.00	1.00	1.25	-3.733398	1.690918	0.695801	-68.459999	-297.640015	226.309998	292.00	-0.00	-0.04
3.16	1.75	0.50	0.00	0.25	0.75	2.25	0.00	7.75	10.25	11.75	11.00	11.00	15.25	11.25	9.00	15.25	-0.309570	0.153809	1.041992	25.480000	67.340004	-21.350000	1168.00	0.21	-0.12	2.00	2.00	2.00	2.00	1.00	1.50	2.75	1.00	1.50	1.50	1.25	1.00	2.00	1.00	1.00	1.25	-4.453613	1.663574	-0.134766	-9.940000	-266.000000	197.610001	294.00	-0.01	-0.04
3.17	3.00	0.50	0.00	0.00	0.50	3.00	0.00	7.50	10.50	12.00	11.25	11.25	15.50	12.00	9.50	16.00	-0.318848	0.129395	1.061035	31.639999	80.430000	-19.110001	1212.00	0.21	-0.12	2.25	2.25	2.00	2.00	1.00	1.50	2.75	1.00	1.50	1.50	1.00	1.50	2.25	1.00	1.00	1.00	-5.627441	0.612793	-0.528809	207.759995	-225.399994	174.440002	303.00	-0.01	-0.05
3.18	2.00	1.25	0.00	0.50	0.50	2.50	0.00	7.50	10.75	12.00	11.50	11.50	15.50	13.00	10.25	17.00	-0.325684	0.095215	1.129883	38.009998	95.690002	-15.400000	1242.00	0.21	-0.12	0.25	0.50	0.25	0.50	0.00	0.00	2.25	0.00	0.00	0.25	0.25	0.00	0.25	0.00	0.00	0.00	-6.837402	-1.333984	0.168457	402.149994	-163.940002	182.910004	62.00	-0.02	0.10
3.19	1.50	1.00	0.00	0.00	0.50	1.25	0.00	7.50	10.75	12.00	11.50	11.50	15.75	13.75	10.50	17.50	-0.360352	0.160645	1.182617	49.630001	141.399994	-2.030000	1228.00	0.23	-0.12	0.00	0.50	0.25	0.00	0.00	0.00	2.25	0.00	0.00	0.25	0.00	0.00	0.00	0.00	0.00	0.00	-6.631348	-3.372070	0.035645	338.100006	-69.090004	182.139999	48.00	0.00	0.00
3.20	1.50	0.50	0.00	0.50	0.50	1.75	0.00	7.50	10.50	12.25	11.75	11.75	15.75	13.75	11.00	18.25	-0.409668	0.237793	1.205566	57.189999	167.229996	0.350000	1250.00	0.23	-0.12	3.00	2.25	1.75	2.25	1.00	1.50	2.75	1.00	1.50	1.50	1.25	1.25	2.00	1.00	1.00	1.25	-5.127930	-3.522461	-0.190430	61.880001	49.139999	153.229996	311.00	-0.02	-0.04
3.21	2.25	0.50	0.00	0.50	0.25	2.25	0.00	7.00	10.25	12.00	11.50	11.75	15.50	14.00	11.50	18.75	-0.424805	0.326172	1.258789	64.330002	197.399994	-2.590000	1252.00	0.22	-0.12	1.75	1.50	1.25	1.00	0.25	0.00	2.50	0.00	0.00	0.75	1.25	1.25	1.50	1.00	1.25	1.25	-3.646484	-1.895020	-1.542969	-100.660004	221.830002	5.460000	189.00	0.02	-0.03
3.22	1.50	1.00	0.00	0.00	0.25	1.50	0.00	6.50	9.75	11.75	11.50	11.75	15.00	14.25	11.75	19.00	-0.445312	0.381348	1.346680	65.029999	227.990005	-11.340000	1218.00	0.23	-0.12	4.50	3.25	3.00	2.75	1.25	1.25	2.75	1.00	1.25	1.50	1.25	1.50	1.75	0.50	1.00	1.50	-1.773438	-1.086914	0.164062	-109.270004	364.140015	-140.419998	353.00	-0.07	-0.04
3.23	2.25	0.75	0.00	0.25	0.25	1.00	0.00	6.25	9.75	11.50	11.50	11.75	14.75	14.50	11.75	19.00	-0.397461	0.517578	1.403320	66.150002	258.510010	-25.340000	1214.00	0.23	-0.11	6.00	4.75	2.25	2.25	0.50	0.00	2.25	0.00	0.00	0.00	0.00	0.00	0.00	0.00	0.00	0.25	-0.219727	-0.033203	3.739258	-203.419998	331.589996	-200.199997	215.00	-0.28	0.02
3.24	1.50	1.75	0.00	0.00	0.50	1.25	0.00	6.00	9.50	11.00	11.25	11.50	14.25	14.25	11.75	18.50	-0.475098	0.500977	1.367188	59.220001	290.570007	-45.290001	1189.00	0.23	-0.11	8.75	7.25	4.75	4.25	0.50	0.00	2.25	0.25	0.00	0.00	0.25	0.00	0.25	0.00	0.00	0.00	-0.699219	1.611816	0.410156	-201.600006	170.940002	-126.559998	333.00	-0.29	-0.00
3.25	1.75	0.75	0.00	0.25	0.00	1.25	0.00	5.50	9.00	11.00	11.00	11.25	13.50	13.75	11.75	17.50	-0.482422	0.614258	1.168457	51.099998	325.290009	-64.820000	1140.00	0.24	-0.11	13.75	11.50	6.00	5.50	0.50	0.00	2.00	0.25	0.00	0.00	0.25	0.25	0.50	0.00	0.00	0.25	-0.375000	0.965820	0.726562	-98.699997	283.570007	-64.260002	466.00	-0.31	-0.02
3.26	2.00	0.75	0.00	0.00	0.25	1.75	0.25	5.25	8.75	10.50	10.75	10.75	12.75	13.25	11.50	16.25	-0.523926	0.686035	1.798828	34.090000	369.320007	-87.639999	1109.00	0.23	-0.11	15.00	14.00	6.50	7.75	0.50	0.50	2.00	0.75	0.00	0.00	0.50	1.00	1.00	0.25	0.00	0.50	-1.021484	0.216797	3.633789	-52.639999	395.360016	-29.610001	572.00	-0.29	-0.05
3.27	1.75	0.75	0.00	0.00	0.00	1.25	0.25	4.25	8.75	11.00	10.50	10.50	11.75	12.25	11.25	13.75	-0.707520	0.552734	2.737793	12.110000	411.809998	-107.029999	1044.00	0.24	-0.10	22.50	20.25	10.50	12.50	2.25	5.00	2.50	3.75	0.00	0.00	0.75	0.75	2.00	0.00	0.00	0.50	-1.494629	0.253906	4.997070	-133.770004	331.869995	-20.510000	966.00	-0.28	-0.07
3.28	1.75	1.25	0.00	0.00	0.50	0.75	0.00	3.25	8.25	10.75	10.75	9.75	10.75	10.25	10.50	11.00	-0.618652	1.132812	2.410156	1.470000	486.149994	-125.720001	959.00	0.23	-0.09	26.00	25.25	14.75	16.00	3.25	6.75	2.75	6.50	1.00	0.00	0.50	1.00	3.00	0.25	0.00	0.50	-0.977051	0.228516	2.435059	-185.080002	134.259995	-16.520000	1258.00	-0.26	-0.08
3.29	0.50	0.00	0.00	0.00	0.00	0.00	0.50	2.25	7.50	10.25	10.00	9.25	10.00	8.25	9.00	8.75	-0.559570	1.629883	1.496094	7.210000	554.539978	-175.070007	822.00	0.26	-0.09	26.25	21.25	14.50	14.50	5.50	7.75	3.00	7.25	0.00	0.25	1.00	1.00	4.25	0.00	0.25	0.50	-0.249512	0.101074	1.645508	-201.809998	65.169998	-7.910000	1262.00	-0.25	-0.08
3.30	1.75	1.00	0.00	0.00	0.00	0.00	0.25	1.25	6.75	9.25	9.25	8.50	8.50	6.00	6.75	6.50	-1.308105	0.445801	3.968262	24.360001	600.179993	-185.009995	712.00	0.23	-0.08	23.50	20.75	15.25	14.50	6.75	8.25	3.25	8.25	1.25	0.75	0.75	1.25	5.50	0.00	0.50	1.00	-0.153809	-0.031738	1.510254	-173.740005	49.420002	-4.410000	1318.00	-0.22	-0.09
3.31	0.00	0.00	0.00	0.00	0.00	0.00	0.00	0.00	5.50	8.25	8.00	7.25	6.75	3.75	5.25	5.25	-1.802246	0.857422	4.622559	72.309998	604.030029	-138.389999	538.00	0.26	-0.08	24.00	19.00	15.00	14.25	7.50	8.75	3.75	8.25	0.75	1.00	0.75	1.50	6.50	0.25	0.25	2.00	-0.172363	0.067871	1.163574	-108.220001	14.070000	-4.130000	1336.00	-0.21	-0.09
3.32	0.50	0.75	0.00	0.00	0.00	0.00	0.00	0.75	4.75	7.50	6.50	5.50	5.75	2.25	3.75	3.75	-1.802246	0.857422	4.622559	72.309998	604.030029	-138.389999	457.00	0.23	-0.09	27.75	22.00	17.50	17.25	9.50	10.75	4.00	9.50	2.25	2.25	2.00	2.75	8.75	1.25	1.75	3.00	-0.112305	0.159668	1.007324	-58.799999	-8.820000	-2.170000	1666.00	-0.18	-0.09
3.33	1.00	0.75	0.00	0.00	0.00	0.75	0.50	0.25	4.00	6.25	5.25	4.50	5.00	1.50	2.75	2.50	0.591309	0.834961	2.740234	72.590004	549.010010	-152.039993	388.00	0.21	-0.08	26.75	21.50	17.50	17.00	10.50	11.00	4.50	9.75	3.00	2.25	2.25	3.25	10.00	1.50	1.50	3.00	-0.061035	0.134277	0.989258	-37.310001	-20.510000	-0.840000	1705.00	-0.17	-0.09
3.34	1.75	1.25	0.00	0.50	0.50	0.50	0.50	0.00	2.50	5.75	4.75	3.00	3.00	0.75	2.00	1.50	1.120605	1.833984	2.862793	89.809998	490.279999	-192.220001	316.00	0.15	-0.06	26.25	20.75	17.75	17.25	11.50	11.75	5.00	10.25	2.75	2.75	2.50	3.75	10.50	1.75	2.00	3.50	-0.094238	0.110352	1.066406	-23.940001	-24.430000	-2.100000	1762.00	-0.16	-0.09
3.35	1.00	1.50	0.00	0.00	0.00	0.00	0.25	0.00	0.25	4.25	2.25	0.50	0.00	0.00	0.25	0.25	1.183105	1.070801	3.410156	156.169998	454.089996	-235.059998	118.00	0.09	-0.01	25.00	18.75	17.25	16.50	12.00	12.00	5.00	10.75	2.75	2.75	2.75	4.25	11.00	2.00	2.00	4.25	-0.067383	0.075684	1.032715	-8.680000	-10.920000	-4.270000	1750.00	-0.15	-0.10
3.36	0.00	0.00	0.00	0.00	0.00	0.00	0.50	0.00	0.00	4.00	2.25	0.50	0.00	0.00	0.50	0.00	-0.190918	2.472168	1.065918	226.380005	365.470001	-292.600006	91.00	0.23	-0.00	23.75	17.25	17.00	16.00	12.25	11.75	5.00	10.75	3.00	3.00	2.75	4.50	11.50	2.00	2.25	4.50	-0.066406	0.104980	1.033203	-2.730000	-3.710000	-3.080000	1730.00	-0.14	-0.10
3.37	0.50	0.00	0.00	0.00	0.25	0.00	0.50	0.00	0.50	3.50	2.25	0.25	0.00	0.00	0.00	0.00	2.450195	1.692871	4.521484	214.690002	117.529999	-251.229996	92.00	0.17	0.04	21.75	15.50	16.00	15.25	12.50	11.75	5.25	11.00	3.50	3.00	3.25	5.00	11.75	1.75	2.25	4.75	-0.053223	0.113281	1.025879	0.140000	3.500000	-2.590000	1700.00	-0.13	-0.10
3.38	0.75	0.00	0.00	0.00	0.25	0.00	0.50	0.00	0.00	3.25	1.75	0.00	0.00	0.00	0.00	0.00	2.296875	0.700195	2.799805	134.960007	-79.730003	-151.970001	77.00	0.13	0.04	20.00	13.25	15.00	14.25	12.25	11.50	5.25	11.00	3.25	3.50	3.25	5.50	12.25	2.25	2.50	5.00	-0.026855	0.116699	1.015625	0.560000	10.220000	-3.290000	1649.00	-0.11	-0.10
3.39	0.50	0.00	0.00	0.00	0.00	0.00	0.50	0.00	0.50	3.50	1.50	0.25	0.00	0.00	0.00	0.00	1.188477	1.021484	2.576660	-32.480000	-217.070007	-61.250000	81.00	0.18	0.05	17.25	10.50	14.00	12.75	12.00	11.00	5.25	11.00	3.50	3.50	3.50	6.00	12.50	2.00	2.50	5.25	-0.036133	0.121582	1.007324	0.770000	16.030001	-4.270000	1564.00	-0.10	-0.11
3.40	1.25	1.00	0.00	0.00	0.25	0.00	0.50	0.00	0.50	3.25	1.25	0.00	0.00	0.00	0.00	0.00	0.925781	0.942871	1.472656	-141.330002	-279.160004	3.290000	94.00	0.05	0.05	14.50	9.00	12.50	11.00	11.50	10.50	5.00	11.00	3.75	3.75	4.00	6.75	12.75	2.00	2.75	5.50	-0.037598	0.097168	1.007812	1.540000	21.000000	-4.760000	1490.00	-0.07	-0.11
3.41	1.25	0.50	0.00	0.00	0.00	0.00	0.50	0.00	0.50	3.25	0.75	0.00	0.00	0.00	0.00	0.00	0.880371	1.150879	0.986328	-174.580002	-295.190002	39.060001	80.00	0.07	0.08	11.75	7.25	11.00	9.50	10.75	9.75	5.00	10.75	3.75	4.25	4.00	7.00	13.00	2.25	3.00	6.25	-0.055664	0.099121	1.007812	3.080000	25.340000	-5.110000	1404.00	-0.05	-0.12
3.42	0.25	0.00	0.00	0.00	0.00	0.00	0.50	0.00	0.50	3.25	1.00	0.00	0.00	0.00	0.00	0.00	0.680176	1.220215	0.719238	-149.309998	-298.760010	55.650002	67.00	0.19	0.08	9.75	6.50	9.75	8.50	10.00	9.50	4.75	10.75	4.00	4.25	4.75	7.75	13.25	2.25	3.50	7.00	-0.045410	0.110840	1.011719	4.760000	28.980000	-5.670000	1364.00	-0.03	-0.12
3.43	0.50	0.00	0.00	0.00	0.00	0.00	0.50	0.00	0.25	2.75	0.75	0.00	0.00	0.00	0.00	0.00	0.522461	1.270508	0.699707	-74.970001	-300.019989	63.700001	57.00	0.15	0.08	8.25	5.75	8.50	7.25	9.00	8.75	4.50	10.75	4.00	4.25	5.50	7.75	13.25	2.25	3.25	7.25	-0.067871	0.102051	1.012695	7.350000	31.430000	-5.880000	1291.00	-0.02	-0.13
3.44	0.75	1.00	0.00	0.00	0.00	0.00	0.50	0.00	0.50	3.00	1.00	0.00	0.00	0.00	0.00	0.00	0.448730	1.106934	0.662109	13.440001	-302.470001	70.489998	79.00	0.07	0.05	7.00	4.75	5.25	5.00	7.75	8.00	4.00	10.25	4.00	4.00	5.50	8.00	13.25	2.25	3.50	7.25	-0.102539	0.086426	0.989746	11.690000	33.250000	-6.090000	1163.00	0.01	-0.14
3.45	0.75	0.00	0.00	0.00	0.00	0.00	0.50	0.00	0.00	3.00	1.00	0.00	0.00	0.00	0.00	0.00	0.332031	0.830078	0.806152	84.419998	-309.260010	77.840004	62.00	0.13	0.06	5.00	3.25	5.00	3.25	5.75	6.50	3.75	9.50	3.00	3.25	4.50	7.50	12.50	1.25	2.25	7.25	-0.069336	0.116699	1.020996	15.400000	35.420002	-5.880000	972.00	0.02	-0.16
3.46	0.75	0.00	0.00	0.00	0.25	0.00	0.50	0.00	0.50	3.00	0.75	0.00	0.00	0.00	0.00	0.00	0.191895	0.601074	1.010742	125.230003	-321.929993	87.010002	70.00	0.13	0.09	4.50	2.75	4.25	3.25	4.50	6.00	3.25	9.75	3.00	3.50	4.75	7.50	12.50	1.00	2.75	7.75	-0.081543	0.133301	1.002930	18.410000	37.099998	-6.580000	939.00	0.03	-0.17
3.47	0.75	0.00	0.00	0.00	0.25	0.00	0.50	0.00	0.25	3.25	1.00	0.00	0.00	0.00	0.00	0.00	0.075684	0.381836	1.130371	133.350006	-336.769989	99.330002	72.00	0.13	0.07	3.50	2.25	3.50	2.75	3.75	5.50	3.00	9.25	2.25	3.50	4.75	7.50	12.75	1.25	2.75	7.75	-0.077637	0.147949	1.004395	22.049999	37.380001	-7.980000	874.00	0.05	-0.18
3.48	1.00	0.00	0.00	0.00	0.25	0.00	0.50	0.00	0.00	3.00	1.00	0.00	0.00	0.00	0.00	0.00	-0.142578	0.161621	1.286133	82.879997	-364.489990	126.139999	68.00	0.10	0.06	3.25	2.25	3.00	2.50	3.50	5.25	2.75	8.00	1.75	3.50	5.50	7.75	12.75	1.00	3.00	8.25	-0.081055	0.130859	0.999512	33.040001	44.099998	-12.250000	839.00	0.06	-0.18
3.49	0.75	0.00	0.00	0.00	0.25	0.00	0.50	0.00	0.00	2.75	0.75	0.00	0.00	0.00	0.00	0.00	-0.253418	0.196289	1.343750	57.049999	-374.010010	135.940002	60.00	0.11	0.07	2.25	2.00	2.50	2.50	3.75	5.25	2.75	9.25	3.50	3.50	5.00	7.75	12.75	1.25	3.25	8.75	-0.114258	0.148926	0.997559	39.619999	46.900002	-13.580000	870.00	0.07	-0.18
3.50	0.75	1.00	0.00	0.00	0.25	0.00	0.75	0.00	0.00	3.00	1.00	0.00	0.00	0.00	0.00	0.00	-0.321289	0.226562	1.385742	45.500000	-382.200012	144.130005	79.00	0.05	0.04	2.00	1.25	1.75	2.00	2.25	4.25	2.50	8.50	2.75	3.50	5.25	7.75	12.50	1.50	3.50	9.25	-0.129395	0.153809	0.979492	42.840000	47.320000	-14.210000	796.00	0.10	-0.19
3.51	1.25	0.75	0.00	0.00	0.25	0.00	0.50	0.00	0.00	2.75	1.00	0.00	0.00	0.00	0.00	0.00	-0.392578	0.232910	1.468262	45.009998	-391.720001	151.339996	76.00	0.02	0.04	0.25	1.00	0.75	2.00	2.00	3.75	2.50	8.25	2.25	3.75	5.75	7.75	12.25	1.50	3.75	9.25	-0.136230	0.146484	0.978516	40.880001	45.990002	-15.120000	751.00	0.12	-0.21
3.52	1.50	0.25	0.00	0.00	0.25	0.00	0.50	0.00	0.25	2.50	1.00	0.00	0.25	0.00	0.00	0.00	-0.482910	0.227539	1.566895	46.130001	-401.170013	156.660004	76.00	0.04	0.05	1.00	1.50	1.25	1.50	1.50	3.25	2.50	8.00	2.75	4.25	6.00	8.00	12.50	1.75	4.00	9.50	-0.151855	0.154297	0.985352	36.680000	46.619999	-15.470000	776.00	0.12	-0.19
3.53	1.00	0.50	0.00	0.00	0.25	0.00	0.50	0.00	1.00	2.25	1.00	0.25	0.50	0.00	0.00	0.00	-0.577148	0.228027	1.669434	46.340000	-408.380005	160.860001	86.00	0.09	0.04	0.00	0.75	0.00	1.00	1.25	3.00	2.25	8.00	2.75	4.50	6.25	8.00	12.75	2.25	4.25	10.00	-0.135254	0.177246	0.950684	33.250000	47.599998	-15.400000	744.00	0.16	-0.20
3.54	1.50	1.00	0.00	0.00	0.50	0.25	0.50	0.00	0.50	2.75	1.00	0.00	0.00	0.00	0.00	0.00	-0.664062	0.236328	1.777344	44.520000	-411.670013	164.639999	94.00	0.00	0.05	0.25	1.00	0.75	1.50	1.75	3.50	2.50	8.00	5.00	6.75	7.75	8.50	12.50	2.50	6.00	11.25	-0.155762	0.174316	0.959473	30.380001	47.320000	-16.590000	889.00	0.16	-0.17
3.55	1.75	1.50	0.00	0.00	0.50	0.00	0.50	0.00	0.25	2.75	0.75	0.00	0.50	0.00	0.00	0.00	-0.737305	0.211914	1.863281	39.340000	-412.160004	167.789993	97.00	-0.03	0.02	1.50	1.50	0.50	1.00	1.00	2.25	2.25	7.50	3.25	7.50	8.00	9.25	13.75	4.25	7.00	11.50	-0.166016	0.203125	0.950684	26.880001	45.920002	-18.549999	899.00	0.17	-0.17
3.56	1.75	1.00	0.00	0.00	0.50	0.00	0.50	0.00	0.50	2.75	1.00	0.00	0.25	0.00	0.00	0.00	-0.835938	0.248047	1.912598	32.970001	-407.119995	168.490005	96.00	0.00	0.05	1.75	2.00	0.75	0.00	0.75	1.75	2.25	7.25	3.25	6.75	7.75	8.50	12.75	3.75	6.75	11.50	-0.179688	0.197266	0.923340	25.059999	45.080002	-21.139999	847.00	0.17	-0.17
3.57	1.50	1.00	0.00	0.00	0.50	0.00	0.50	0.00	0.50	2.75	1.00	0.00	0.75	0.00	0.00	0.00	-0.974121	0.355957	2.083984	30.100000	-394.100006	166.600006	98.00	0.02	0.02	0.75	1.25	0.50	1.00	0.75	2.25	2.00	7.25	4.50	7.25	7.75	8.75	13.25	4.00	6.75	12.50	-0.170410	0.203125	0.935547	23.170000	44.660000	-23.940001	879.00	0.18	-0.17
3.58	1.75	1.25	0.00	0.00	0.25	0.50	0.50	0.00	0.25	2.50	1.00	0.00	0.25	0.00	0.00	0.00	-1.136230	0.454102	2.365234	36.820000	-376.600006	165.690002	95.00	-0.03	0.01	0.00	2.25	1.75	2.00	1.25	3.75	2.00	7.75	7.00	8.50	9.00	10.00	14.75	6.75	8.00	14.25	-0.175781	0.205078	0.964355	21.139999	44.939999	-27.020000	1083.00	0.17	-0.15
3.59	2.50	0.75	0.00	0.00	0.50	0.50	0.75	0.00	0.25	2.75	1.00	0.00	0.75	0.00	0.00	0.00	-1.389648	0.509766	2.652832	51.520000	-361.829987	170.029999	113.00	-0.03	0.02	0.50	1.00	0.50	1.00	0.75	2.25	1.75	7.00	6.25	8.25	8.50	9.50	13.75	6.75	8.75	15.50	-0.220703	0.191406	0.978516	17.780001	49.139999	-30.799999	990.00	0.20	-0.15
3.60	2.00	1.25	0.00	0.00	0.75	0.25	0.50	0.00	0.25	3.00	1.25	0.00	0.00	0.00	0.00	0.00	-1.689453	0.450684	2.952637	63.700001	-349.019989	180.809998	107.00	-0.03	0.03	0.25	1.25	0.25	1.00	0.75	2.75	1.75	7.25	6.75	9.25	9.50	10.00	14.75	8.50	8.50	15.25	-0.228027	0.171875	1.008301	20.580000	54.529999	-31.150000	1053.00	0.20	-0.15
3.61	1.75	0.50	0.00	0.25	0.25	0.25	0.75	0.00	0.25	2.75	1.25	0.00	0.75	0.00	0.00	0.00	-2.001465	0.259277	3.251465	56.630001	-340.410004	197.539993	102.00	0.02	0.01	1.25	1.25	0.25	1.25	0.75	2.50	1.75	7.25	7.00	9.25	9.00	10.00	14.25	8.25	9.00	16.00	-0.213379	0.207031	1.049805	25.690001	61.599998	-32.130001	1066.00	0.20	-0.14
3.62	1.75	1.25	0.00	0.00	0.50	0.50	0.50	0.00	0.50	2.75	1.00	0.00	0.50	0.00	0.00	0.00	-2.440430	0.186035	3.485840	17.500000	-343.350006	217.699997	107.00	-0.01	0.01	0.00	0.25	0.25	1.25	0.75	2.25	1.50	7.00	7.50	9.75	9.50	10.25	14.50	9.25	9.50	17.00	-0.253418	0.205566	1.069336	32.970001	70.139999	-33.110001	1075.00	0.22	-0.14
3.63	3.00	0.25	0.00	0.00	0.50	0.00	0.50	0.00	0.25	3.00	1.00	0.00	1.00	0.00	0.00	0.00	-3.694336	0.935059	2.667969	-131.529999	-386.470001	233.660004	109.00	-0.01	0.03	0.50	0.75	0.50	1.00	0.50	2.00	1.50	7.00	7.50	10.00	9.75	10.75	14.75	9.75	10.25	18.00	-0.254395	0.214844	1.100586	42.279999	81.480003	-34.230000	1113.00	0.21	-0.14
3.64	2.00	1.50	0.00	0.00	0.50	0.50	0.50	0.00	0.50	2.75	1.00	0.00	0.50	0.00	0.00	0.00	-4.437988	1.337402	1.620117	-152.669998	-395.079987	221.830002	112.00	-0.03	0.01	0.50	0.75	0.00	1.00	0.50	2.50	1.25	7.25	7.75	10.25	10.00	10.75	15.00	10.75	10.75	19.00	-0.269043	0.250488	1.127930	52.500000	95.900002	-35.349998	1145.00	0.22	-0.14
3.65	2.00	1.00	0.00	0.00	0.50	0.75	0.75	0.25	0.50	2.75	1.00	0.00	0.75	0.00	0.00	0.00	-5.424316	1.507324	0.543945	-118.580002	-375.690002	195.720001	121.00	-0.01	-0.00	0.50	1.00	0.25	1.00	0.25	2.50	1.25	7.00	7.75	10.25	10.25	11.00	15.25	11.50	11.25	19.75	-0.292480	0.251953	1.142578	60.549999	112.910004	-36.189999	1169.00	0.22	-0.14
3.66	2.00	1.00	0.00	0.00	0.50	0.25	0.50	0.00	0.00	3.00	0.75	0.00	1.00	0.00	0.00	0.00	-6.605957	1.290039	-0.789551	-47.040001	-339.360016	149.869995	102.00	-0.02	-0.01	0.00	1.00	0.25	1.25	0.25	2.25	1.25	7.00	7.75	10.25	10.25	11.25	15.00	12.25	11.75	20.75	-0.308105	0.222656	1.169434	67.550003	132.089996	-36.959999	1183.00	0.23	-0.14
3.67	1.75	0.50	0.00	0.00	0.75	0.50	0.50	0.25	0.50	2.75	1.00	0.00	0.75	0.00	0.00	0.00	-7.667480	0.424805	-1.592773	92.050003	-276.429993	101.290001	109.00	0.01	-0.00	0.50	1.00	0.25	1.00	0.00	2.25	1.25	6.75	7.75	10.25	10.50	11.25	15.25	12.75	12.50	21.50	-0.340332	0.244141	1.263672	73.290001	152.600006	-36.889999	1201.00	0.23	-0.13
