# time	left pressure 1[N/cm²]	left pressure 2[N/cm²]	left pressure 3[N/cm²]	left pressure 4[N/cm²]	left pressure 5[N/cm²]	left pressure 6[N/cm²]	left pressure 7[N/cm²]	left pressure 8[N/cm²]	left pressure 9[N/cm²]	left pressure 10[N/cm²]	left pressure 11[N/cm²]	left pressure 12[N/cm²]	left pressure 13[N/cm²]	left pressure 14[N/cm²]	left pressure 15[N/cm²]	left pressure 16[N/cm²]	left acceleration X[g]	left acceleration Y[g]	left acceleration Z[g]	left angular X[dps]	left angular Y[dps]	left angular Z[dps]	left total force[N]	left center of pressure X[%]	left center of pressure Y[%]	right pressure 1[N/cm²]	right pressure 2[N/cm²]	right pressure 3[N/cm²]	right pressure 4[N/cm²]	right pressure 5[N/cm²]	right pressure 6[N/cm²]	right pressure 7[N/cm²]	right pressure 8[N/cm²]	right pressure 9[N/cm²]	right pressure 10[N/cm²]	right pressure 11[N/cm²]	right pressure 12[N/cm²]	right pressure 13[N/cm²]	right pressure 14[N/cm²]	right pressure 15[N/cm²]	right pressure 16[N/cm²]	right acceleration X[g]	right acceleration Y[g]	right acceleration Z[g]	right angular X[dps]	right angular Y[dps]	right angular Z[dps]	right total force[N]	right center of pressure X[%]	right center of pressure Y[%]
0.00	0.00	6.00	3.75	5.50	0.00	2.00	0.00	1.50	0.00	1.00	1.25	0.50	0.75	0.25	0.00	0.25	-0.245117	0.152832	0.919434	-0.000000	5.250000	2.870000	263.00	-0.19	-0.16																									
0.01	0.00	6.00	3.75	5.50	0.00	1.75	0.00	1.75	0.00	1.00	1.00	1.00	1.50	0.25	0.25	0.00	-0.245117	0.146973	0.919922	-0.630000	5.460000	2.520000	276.00	-0.17	-0.17	8.00	7.25	5.00	7.00	0.50	5.50	0.00	5.50	0.00	0.50	1.00	1.25	5.50	0.00	0.00	0.00	-0.166504	0.177246	0.941895	9.590000	-1.960000	1.890000	555.00	-0.19	-0.18
0.02	0.00	6.00	3.75	5.50	0.25	1.50	0.00	1.75	0.00	1.00	1.00	0.75	1.25	0.25	0.00	0.00	-0.246582	0.142578	0.922852	-1.470000	5.460000	2.380000	268.00	-0.19	-0.17	8.00	7.25	4.75	7.00	0.50	5.50	0.00	5.75	0.00	0.50	1.25	1.25	5.75	0.00	0.00	0.00	-0.170410	0.177734	0.941895	8.890000	-1.890000	1.960000	561.00	-0.18	-0.18
0.03	0.00	6.25	3.25	5.75	0.00	1.50	0.00	1.75	0.00	0.75	1.25	0.75	1.25	0.25	0.00	0.25	-0.243652	0.142090	0.929199	-1.960000	5.320000	2.170000	266.00	-0.18	-0.18	8.00	7.25	4.75	7.00	0.25	5.50	0.00	6.00	0.00	0.50	1.00	1.50	5.75	0.00	0.00	0.00	-0.163086	0.173340	0.939453	8.750000	-1.890000	2.240000	562.00	-0.18	-0.18
0.04	0.00	6.00	3.50	5.75	0.00	1.75	0.00	2.00	0.00	1.00	0.75	1.00	1.00	0.25	0.00	0.00	-0.249512	0.141602	0.924805	-2.100000	5.180000	2.170000	270.00	-0.19	-0.18	7.75	7.25	4.50	7.00	0.50	5.75	0.00	6.00	0.00	0.50	1.00	1.50	5.75	0.00	0.00	0.00	-0.166504	0.172852	0.951660	8.400000	-2.170000	2.240000	562.00	-0.18	-0.19
0.05	0.00	6.00	3.50	5.50	0.25	1.50	0.00	2.00	0.00	1.00	1.00	0.50	1.25	0.25	0.00	0.25	-0.250488	0.142090	0.933105	-1.890000	4.900000	2.170000	267.00	-0.18	-0.17	7.50	7.25	4.50	7.00	0.25	5.75	0.00	6.25	0.00	0.25	1.25	1.50	6.00	0.00	0.25	0.00	-0.161621	0.178711	0.960449	8.190000	-2.450000	2.240000	566.00	-0.17	-0.19
0.06	0.00	6.25	3.75	5.50	0.00	1.75	0.00	2.00	0.00	1.00	1.00	1.00	1.50	0.25	0.25	0.25	-0.254883	0.146973	0.928223	-1.610000	4.410000	2.310000	284.00	-0.17	-0.18	7.50	7.25	4.25	7.00	0.25	6.00	0.00	6.25	0.00	0.50	1.25	1.25	6.00	0.00	0.00	0.00	-0.164062	0.181641	0.959473	8.750000	-3.220000	1.750000	563.00	-0.17	-0.19
0.07	0.00	6.25	4.00	5.50	0.00	1.75	0.00	2.50	0.00	1.00	1.25	0.50	1.00	0.25	0.00	0.00	-0.252930	0.147461	0.934082	-0.840000	4.200000	2.380000	283.00	-0.18	-0.17																									
0.08	0.00	6.25	3.75	5.75	0.00	2.00	0.00	2.00	0.00	1.00	1.00	1.00	1.25	0.25	0.00	0.25	-0.250977	0.145508	0.928223	0.140000	3.920000	2.520000	285.00	-0.18	-0.18	7.00	7.00	3.75	7.00	0.25	6.00	0.00	6.50	0.00	0.50	1.00	1.50	5.75	0.00	0.00	0.00	-0.166992	0.193359	0.952148	10.570000	-4.410000	1.260000	551.00	-0.17	-0.20
0.09	0.00	6.25	3.75	5.50	0.00	2.00	0.00	2.00	0.00	1.00	0.75	0.75	0.75	0.25	0.00	0.25	-0.252930	0.145508	0.933594	0.910000	3.920000	2.660000	271.00	-0.19	-0.17	7.00	7.50	5.00	7.00	0.25	6.00	0.00	6.50	0.00	0.50	1.25	1.25	6.00	0.00	0.00	0.00	-0.166504	0.197266	0.940918	10.080000	-4.200000	1.050000	573.00	-0.17	-0.19
0.10	0.00	6.25	3.25	5.75	0.00	2.00	0.00	2.00	0.00	0.75	1.00	1.00	1.25	0.50	0.25	0.25	-0.248047	0.145996	0.931152	1.540000	3.850000	2.870000	281.00	-0.17	-0.18	7.25	7.25	3.75	7.00	0.25	6.25	0.00	6.75	0.00	0.50	1.00	1.25	6.25	0.00	0.00	0.00	-0.166016	0.190918	0.947266	8.680000	-3.500000	1.120000	565.00	-0.17	-0.20
0.11	0.00	6.50	3.75	5.75	0.00	2.00	0.00	2.25	0.00	1.00	1.25	1.00	1.00	0.00	0.00	0.25	-0.242676	0.145020	0.930664	1.890000	3.780000	2.940000	290.00	-0.18	-0.18	7.25	7.25	3.75	7.00	0.25	6.25	0.00	6.75	0.00	0.50	1.00	1.25	6.00	0.00	0.25	0.00	-0.162598	0.197754	0.948242	7.280000	-3.080000	1.260000	565.00	-0.17	-0.20
0.12	0.00	6.75	3.50	5.75	0.00	2.25	0.00	2.00	0.00	0.75	1.00	1.00	0.75	0.25	0.00	0.25	-0.240234	0.150879	0.932617	1.820000	3.640000	2.940000	282.00	-0.19	-0.18	7.00	7.25	3.75	7.00	0.00	6.25	0.00	7.00	0.00	0.50	1.00	1.25	6.50	0.00	0.00	0.00	-0.158691	0.198730	0.949707	6.090000	-2.730000	1.120000	566.00	-0.17	-0.21
0.13	0.00	6.50	4.00	6.00	0.00	2.25	0.00	2.00	0.00	1.00	1.00	0.75	1.00	0.25	0.00	0.25	-0.248535	0.142578	0.932129	1.610000	3.780000	2.800000	291.00	-0.19	-0.17	7.50	7.25	3.50	7.25	0.25	6.25	0.00	7.00	0.00	0.25	1.00	1.25	6.00	0.00	0.00	0.00	-0.168457	0.192871	0.948730	5.180000	-2.310000	0.910000	567.00	-0.17	-0.20
0.14	0.00	6.50	3.25	5.75	0.00	2.25	0.00	2.00	0.00	0.75	1.00	1.00	1.00	0.00	0.25	0.25	-0.242676	0.151367	0.932617	1.190000	3.780000	2.660000	279.00	-0.19	-0.19	7.25	7.25	3.25	7.00	0.25	6.25	0.00	7.00	0.00	0.25	1.00	1.25	6.25	0.00	0.25	0.00	-0.165527	0.201172	0.950684	4.270000	-1.960000	1.050000	563.00	-0.17	-0.21
0.15	0.00	6.75	3.75	6.00	0.00	2.25	0.00	2.25	0.00	0.75	1.00	1.00	0.75	0.00	0.00	0.25	-0.237793	0.149902	0.927246	0.700000	3.850000	2.800000	290.00	-0.20	-0.18	7.50	7.25	3.50	7.25	0.00	6.50	0.00	7.00	0.00	0.50	1.00	1.25	6.25	0.00	0.00	0.00	-0.161133	0.203613	0.943359	3.290000	-1.750000	1.050000	572.00	-0.17	-0.21
0.16	0.00	7.00	3.75	6.00	0.00	2.50	0.00	2.50	0.00	0.75	1.00	0.75	1.00	0.00	0.00	0.00	-0.242188	0.147461	0.934570	0.420000	3.780000	2.870000	298.00	-0.20	-0.19	7.25	7.00	3.00	7.00	0.00	6.50	0.00	7.00	0.00	0.75	0.75	1.25	6.00	0.00	0.00	0.00	-0.162598	0.204102	0.943848	2.030000	-1.050000	0.980000	555.00	-0.17	-0.21
0.17	0.00	7.00	3.75	6.00	0.00	2.50	0.00	2.50	0.00	0.75	1.00	1.00	1.25	0.25	0.25	0.25	-0.241699	0.152832	0.934082	0.140000	3.780000	2.870000	310.00	-0.18	-0.19	7.25	7.00	3.25	7.00	0.25	6.50	0.00	7.00	0.00	0.50	1.00	1.25	6.25	0.00	0.00	0.00	-0.158691	0.200684	0.945801	1.120000	-0.700000	0.840000	563.00	-0.17	-0.21
0.18	0.00	7.50	4.00	6.25	0.00	2.75	0.00	2.75	0.00	0.75	1.00	1.00	1.50	0.00	0.25	0.50	-0.242188	0.146973	0.937012	-0.000000	3.780000	2.800000	329.00	-0.18	-0.19	7.25	7.00	3.00	7.25	0.00	6.75	0.00	7.00	0.00	0.25	1.00	1.25	6.25	0.00	0.00	0.00	-0.159180	0.203613	0.953125	0.420000	-0.280000	0.700000	560.00	-0.17	-0.21
0.19	0.00	7.50	3.75	6.25	0.00	3.25	0.00	3.00	0.25	1.00	1.50	1.25	2.00	0.50	0.25	0.50	-0.247070	0.152344	0.927246	-0.210000	3.920000	2.730000	361.00	-0.15	-0.19	7.25	7.00	3.00	7.00	0.00	6.50	0.00	7.25	0.00	0.50	1.00	1.00	6.25	0.00	0.25	0.00	-0.156738	0.201660	0.952637	0.350000	-0.280000	0.770000	561.00	-0.16	-0.21
0.20	0.00	8.75	5.25	8.00	0.50	5.00	0.00	4.00	0.75	1.75	1.75	2.00	3.25	1.25	1.00	1.00	-0.247559	0.151367	0.936523	-0.280000	4.130000	2.800000	514.00	-0.11	-0.18	7.25	7.00	3.00	7.00	0.00	6.50	0.00	7.25	0.00	0.50	1.25	1.25	6.25	0.00	0.25	0.00	-0.164062	0.204590	0.952148	0.490000	-0.630000	0.700000	567.00	-0.16	-0.21
0.21	0.00	9.50	5.75	8.25	0.75	5.25	0.00	4.50	1.50	2.00	2.00	2.00	3.75	1.75	1.00	1.00	-0.248047	0.157227	0.932617	-0.490000	4.760000	2.660000	570.00	-0.10	-0.17	7.25	7.00	3.00	6.75	0.00	6.50	0.00	7.25	0.00	0.50	1.00	1.25	6.50	0.00	0.25	0.00	-0.164551	0.201660	0.954102	0.700000	-0.700000	0.630000	564.00	-0.16	-0.21
0.22	0.00	9.50	5.75	8.50	0.75	5.25	0.00	5.25	1.50	2.25	2.00	2.00	4.00	1.75	1.25	1.25	-0.245605	0.157227	0.934082	-0.700000	4.970000	2.660000	595.00	-0.09	-0.17	7.25	7.00	3.25	6.75	0.00	6.75	0.00	7.25	0.00	0.25	1.25	0.75	6.50	0.00	0.00	0.00	-0.163574	0.206055	0.955566	1.050000	-0.770000	0.560000	561.00	-0.17	-0.21
0.23	0.00	9.25	5.75	8.75	0.50	5.50	0.00	5.00	1.50	2.00	2.00	2.25	4.00	1.75	1.25	1.00	-0.246582	0.153809	0.935059	-0.770000	5.110000	2.590000	590.00	-0.10	-0.18	7.00	7.00	2.50	7.00	0.25	6.50	0.00	7.25	0.00	0.25	0.75	1.25	6.50	0.00	0.00	0.00	-0.166504	0.201660	0.959961	1.260000	-0.770000	0.560000	552.00	-0.17	-0.22
0.24	0.00	9.50	5.75	8.50	0.75	5.50	0.00	5.25	1.50	1.75	2.00	2.00	4.00	1.50	1.00	1.00	-0.246094	0.148926	0.936035	-0.630000	5.250000	2.450000	586.00	-0.10	-0.18	7.00	7.00	2.75	7.00	0.00	6.50	0.00	7.00	0.00	0.50	1.00	1.25	6.50	0.00	0.00	0.00	-0.159180	0.203613	0.946289	1.330000	-0.910000	0.770000	554.00	-0.16	-0.22
0.25	0.00	9.75	5.75	8.50	0.75	5.50	0.00	5.00	1.75	2.00	2.00	2.25	4.00	1.50	1.50	1.25	-0.247070	0.156250	0.937500	-0.490000	5.250000	2.520000	601.00	-0.09	-0.17	6.75	6.75	2.50	7.00	0.00	7.00	0.00	7.25	0.00	0.25	1.00	1.25	6.00	0.00	0.00	0.00	-0.162598	0.209961	0.945312	0.490000	-0.700000	0.630000	548.00	-0.16	-0.22
0.26	0.00	9.75	5.75	8.50	0.75	5.50	0.00	5.50	1.25	2.00	1.75	2.25	4.50	1.50	1.25	1.25	-0.248047	0.157227	0.929688	-0.560000	5.180000	2.450000	601.00	-0.10	-0.18	6.75	7.00	2.75	6.75	0.00	6.75	0.00	7.25	0.00	0.50	1.00	1.25	6.25	0.00	0.00	0.00	-0.157715	0.210938	0.938965	-0.910000	-0.140000	0.420000	553.00	-0.16	-0.22
0.27	0.00	9.50	6.00	8.50	0.75	5.25	0.00	4.25	0.00	0.75	1.00	1.75	4.00	1.50	1.25	1.25	-0.241699	0.156250	0.936035	-0.420000	5.110000	2.310000	527.00	-0.13	-0.19	6.50	6.75	2.50	6.75	0.00	6.75	0.00	7.50	0.00	0.25	1.00	1.25	6.25	0.00	0.00	0.00	-0.154785	0.213867	0.942383	-2.240000	0.140000	0.420000	546.00	-0.16	-0.22
0.28	0.00	9.50	5.75	8.50	1.00	5.50	0.00	6.00	1.25	2.00	2.00	2.25	4.25	1.50	1.25	1.25	-0.245117	0.155273	0.937500	-0.420000	5.110000	2.170000	610.00	-0.10	-0.18	6.50	6.75	2.50	6.75	0.00	6.75	0.00	7.25	0.00	0.25	0.75	1.50	6.50	0.00	0.00	0.00	-0.156738	0.202637	0.941406	-3.010000	0.350000	0.280000	544.00	-0.16	-0.22
0.29	0.00	9.50	6.00	8.75	0.75	5.50	0.00	5.75	1.75	1.75	2.25	2.25	4.50	1.50	1.25	1.00	-0.244629	0.153809	0.936523	-0.700000	5.110000	2.100000	617.00	-0.09	-0.18	6.75	6.75	2.50	6.75	0.00	6.75	0.00	7.50	0.00	0.25	0.75	1.00	6.75	0.00	0.00	0.00	-0.159180	0.202148	0.951660	-2.870000	0.490000	0.350000	547.00	-0.16	-0.22
0.30	0.00	9.50	6.00	8.50	0.75	5.50	0.00	5.75	1.75	2.00	2.00	2.00	4.50	1.00	1.25	1.00	-0.246582	0.155762	0.929688	-0.630000	5.250000	1.890000	607.00	-0.10	-0.18	6.50	6.75	2.25	6.75	0.00	6.75	0.00	7.50	0.00	0.50	1.00	1.25	6.50	0.00	0.00	0.00	-0.170898	0.204590	0.957031	-0.280000	-0.280000	0.700000	548.00	-0.16	-0.23
0.31	0.00	9.25	5.75	8.50	0.75	5.50	0.00	6.00	1.50	2.00	2.00	2.00	4.75	1.25	1.25	1.00	-0.253418	0.157715	0.937988	-0.630000	5.250000	1.890000	606.00	-0.10	-0.19	6.50	6.75	2.50	6.75	0.00	6.75	0.00	7.50	0.00	0.50	1.25	1.25	6.50	0.00	0.00	0.00	-0.165039	0.208496	0.944336	0.630000	-0.490000	0.770000	554.00	-0.15	-0.22
0.32	0.00	9.25	6.00	8.50	0.75	5.50	0.00	6.00	1.50	1.75	2.00	2.00	4.25	1.50	1.25	1.00	-0.248535	0.157227	0.928711	-0.420000	5.180000	1.890000	604.00	-0.10	-0.18	6.25	6.50	2.25	6.75	0.00	6.75	0.00	7.50	0.00	0.50	1.00	1.25	7.00	0.00	0.00	0.00	-0.162598	0.211426	0.952148	0.840000	-0.350000	0.910000	547.00	-0.15	-0.23
0.33	0.00	9.25	6.00	8.50	0.75	5.50	0.00	6.00	1.50	1.75	2.00	2.00	4.75	1.50	1.00	1.25	-0.243652	0.159668	0.931152	-0.420000	5.110000	1.890000	608.00	-0.10	-0.18	6.25	6.75	2.25	7.00	0.00	6.75	0.00	7.50	0.00	0.25	1.00	1.25	7.00	0.00	0.00	0.00	-0.152344	0.211914	0.952148	0.980000	-0.210000	0.910000	550.00	-0.15	-0.23
0.34	0.00	9.25	6.00	8.50	0.75	5.50	0.00	6.00	1.50	2.00	2.00	2.00	4.50	1.25	1.25	1.25	-0.247559	0.156738	0.927734	-0.560000	5.040000	1.890000	609.00	-0.10	-0.18	6.25	6.75	2.00	6.75	0.00	7.25	0.00	7.50	0.00	0.25	1.00	1.75	7.00	0.00	0.00	0.00	-0.164062	0.206055	0.949707	1.400000	-0.350000	0.840000	556.00	-0.15	-0.23
0.35	0.00	9.25	5.75	8.50	0.75	5.50	0.00	6.00	1.50	2.25	2.00	2.00	4.75	1.50	1.25	1.00	-0.248535	0.159180	0.931152	-1.050000	5.250000	1.540000	612.00	-0.09	-0.18	6.00	6.50	2.00	6.75	0.00	7.00	0.00	7.50	0.00	0.50	1.00	1.25	7.00	0.00	0.25	0.00	-0.163574	0.209473	0.951172	1.820000	-0.070000	0.770000	547.00	-0.14	-0.23
0.36	0.00	9.25	6.00	8.50	0.75	5.75	0.00	6.00	1.50	2.00	2.25	2.50	5.00	1.25	1.25	1.25	-0.243164	0.161621	0.931152	-1.470000	5.320000	1.470000	625.00	-0.09	-0.19	6.00	6.50	2.00	6.50	0.00	7.00	0.00	7.75	0.00	0.25	1.00	1.50	7.25	0.00	0.00	0.00	-0.161133	0.218750	0.946777	2.100000	0.000000	0.980000	548.00	-0.14	-0.24
0.37	0.00	9.00	6.00	8.50	0.75	5.75	0.00	5.75	1.50	2.00	2.00	2.25	4.75	1.25	1.25	1.25	-0.236816	0.159668	0.931641	-1.960000	5.250000	1.400000	610.00	-0.09	-0.18	5.75	6.00	2.25	6.50	0.00	7.25	0.00	7.75	0.00	0.25	1.00	1.25	7.00	0.00	0.25	0.00	-0.154297	0.215332	0.953125	1.890000	0.350000	0.910000	544.00	-0.14	-0.24
0.38	0.00	9.00	6.00	8.25	0.75	5.75	0.00	6.25	1.50	1.75	2.00	2.00	4.50	1.25	1.25	1.00	-0.244141	0.161621	0.933594	-2.310000	5.110000	1.330000	606.00	-0.10	-0.19	6.00	6.25	2.00	6.50	0.00	7.00	0.00	7.75	0.00	0.50	0.75	1.50	7.50	0.00	0.00	0.00	-0.163086	0.220215	0.944824	1.610000	0.420000	0.910000	548.00	-0.14	-0.24
0.39	0.00	9.00	5.75	8.25	0.75	5.75	0.00	6.00	1.50	2.00	2.00	2.25	4.75	1.50	1.25	1.25	-0.245605	0.156738	0.927246	-2.240000	5.180000	1.330000	611.00	-0.09	-0.19	5.75	6.00	1.75	6.25	0.00	7.00	0.00	7.75	0.00	0.50	1.00	1.25	7.75	0.00	0.25	0.00	-0.163574	0.213867	0.948242	1.120000	0.560000	0.910000	541.00	-0.13	-0.24
0.40	0.00	9.00	5.75	8.50	0.75	5.75	0.00	6.25	1.25	2.00	2.00	2.25	5.00	1.50	1.25	1.25	-0.245117	0.159180	0.931152	-2.170000	5.250000	1.470000	617.00	-0.09	-0.19	5.75	6.00	1.50	6.25	0.00	7.00	0.00	7.75	0.00	0.25	1.25	1.50	7.75	0.00	0.00	0.00	-0.156250	0.215332	0.951172	0.770000	0.630000	0.840000	538.00	-0.13	-0.24
0.41	0.00	9.00	6.00	8.50	1.00	5.75	0.00	6.25	1.50	2.00	2.25	2.25	5.00	1.50	1.25	1.25	-0.243652	0.155273	0.927734	-2.170000	5.460000	1.330000	629.00	-0.09	-0.18	5.50	6.00	1.50	6.25	0.00	7.00	0.00	8.00	0.00	0.25	1.00	1.50	7.75	0.00	0.00	0.00	-0.158203	0.211426	0.950195	0.700000	0.560000	0.840000	537.00	-0.13	-0.25
0.42	0.00	9.00	6.00	8.25	0.75	5.75	0.00	6.50	1.25	2.00	2.25	2.50	5.00	1.50	1.50	1.25	-0.247559	0.155273	0.938965	-1.960000	5.460000	1.540000	629.00	-0.08	-0.19	5.50	5.75	1.50	6.00	0.00	7.25	0.00	8.00	0.00	0.00	1.00	1.25	8.00	0.00	0.25	0.00	-0.166016	0.216309	0.945801	-0.140000	0.770000	0.910000	534.00	-0.13	-0.25
0.43	0.00	8.75	5.75	8.25	0.75	5.50	0.00	6.25	1.50	2.00	2.25	2.25	5.00	1.50	1.25	1.25	-0.244629	0.159180	0.930176	-1.540000	5.110000	1.610000	614.00	-0.08	-0.19	5.25	5.75	1.50	6.00	0.00	7.50	0.00	8.00	0.00	0.50	1.00	1.25	8.00	0.00	0.00	0.00	-0.164062	0.221680	0.953613	-0.630000	1.050000	0.770000	537.00	-0.13	-0.25
0.44	0.00	8.75	5.75	8.25	0.75	5.75	0.00	6.50	1.50	2.00	2.25	2.50	5.25	1.50	1.00	1.25	-0.246094	0.156738	0.937500	-1.260000	5.110000	1.680000	624.00	-0.08	-0.19	5.50	5.75	1.25	6.00	0.00	7.25	0.00	8.00	0.00	0.00	1.00	1.50	8.25	0.00	0.00	0.00	-0.168457	0.217773	0.948730	-1.330000	1.050000	0.840000	533.00	-0.13	-0.25
0.45	0.00	8.75	5.75	8.25	0.75	5.75	0.00	6.75	1.75	1.75	2.25	2.25	5.25	1.25	1.00	1.25	-0.248535	0.159180	0.929199	-1.190000	5.180000	1.680000	624.00	-0.09	-0.19	5.50	5.50	1.50	6.00	0.00	7.25	0.00	8.00	0.00	0.25	1.00	1.50	8.25	0.00	0.25	0.00	-0.157227	0.216797	0.947754	-1.820000	1.050000	0.770000	539.00	-0.12	-0.25
0.46	0.00	8.50	5.50	8.25	0.75	5.50	0.00	6.75	1.25	2.00	2.25	2.00	5.25	1.50	1.25	1.25	-0.247070	0.160645	0.931152	-1.190000	5.250000	1.680000	613.00	-0.08	-0.19	5.25	5.50	1.25	5.75	0.00	7.25	0.00	8.00	0.00	0.25	1.00	1.75	8.50	0.00	0.00	0.00	-0.163086	0.214844	0.949707	-1.680000	0.840000	0.770000	533.00	-0.12	-0.26
0.47	0.00	8.50	5.75	8.25	0.75	5.75	0.00	7.00	1.75	2.00	2.25	2.25	5.50	1.50	1.25	1.25	-0.245117	0.158203	0.932617	-1.190000	5.110000	1.750000	636.00	-0.08	-0.19	5.25	5.50	1.25	6.00	0.00	7.25	0.00	8.00	0.00	0.25	1.00	1.50	8.50	0.00	0.25	0.00	-0.161133	0.221680	0.952148	-1.190000	0.840000	0.840000	536.00	-0.12	-0.26
0.48	0.00	8.50	5.50	8.00	0.50	5.75	0.00	7.00	1.25	2.00	2.25	2.25	5.75	1.50	1.25	1.50	-0.244141	0.160645	0.936523	-1.120000	4.760000	1.820000	623.00	-0.08	-0.20	5.25	5.25	1.25	5.75	0.00	7.25	0.00	8.00	0.00	0.25	1.00	1.50	8.50	0.00	0.00	0.00	-0.162598	0.212891	0.957520	-0.700000	0.630000	0.770000	528.00	-0.12	-0.26
0.49	0.00	8.50	5.50	8.25	0.75	6.00	0.00	6.75	1.50	2.25	2.25	2.50	5.75	1.50	1.00	1.25	-0.253906	0.159668	0.934082	-1.120000	4.760000	1.890000	633.00	-0.08	-0.19	5.00	5.25	1.25	5.75	0.00	7.25	0.00	8.00	0.00	0.25	1.00	1.25	8.75	0.00	0.00	0.00	-0.158691	0.220703	0.950684	-0.490000	0.770000	0.630000	524.00	-0.12	-0.26
0.50	0.00	8.50	5.50	8.25	0.75	5.75	0.00	7.25	1.25	2.00	2.25	2.25	5.75	1.50	1.25	1.25	-0.245117	0.156738	0.936035	-1.120000	4.690000	1.960000	632.00	-0.08	-0.20	5.00	5.00	1.00	5.75	0.00	7.00	0.00	8.00	0.00	0.25	1.00	1.75	8.75	0.00	0.00	0.00	-0.158691	0.214355	0.949219	-0.700000	0.840000	0.630000	521.00	-0.11	-0.26
0.51	0.00	8.25	5.50	8.25	0.75	6.25	0.00	7.25	1.75	2.00	2.00	2.25	6.00	1.50	1.25	1.50	-0.252441	0.162109	0.928711	-1.190000	3.990000	2.030000	644.00	-0.07	-0.20	5.00	5.00	1.00	5.50	0.00	7.00	0.00	8.00	0.00	0.25	0.75	1.50	8.75	0.00	0.00	0.00	-0.160156	0.218262	0.955566	-1.190000	1.260000	0.560000	513.00	-0.12	-0.26
0.52	0.00	8.25	5.50	8.25	0.75	6.25	0.00	7.50	1.25	2.00	2.25	2.50	6.00	1.50	1.25	1.25	-0.252441	0.157227	0.927734	-1.050000	3.570000	2.170000	645.00	-0.08	-0.20	4.75	5.00	1.00	5.50	0.00	7.00	0.00	8.00	0.00	0.50	1.00	1.50	8.75	0.00	0.00	0.00	-0.160645	0.220215	0.944336	-1.540000	1.680000	0.490000	516.00	-0.11	-0.26
0.53	0.00	8.25	5.50	8.25	0.75	6.25	0.00	7.50	1.25	2.25	2.50	2.75	6.00	1.25	1.00	1.50	-0.241211	0.158203	0.928711	-1.050000	3.290000	2.100000	650.00	-0.08	-0.20	4.75	5.00	1.00	5.50	0.00	7.00	0.00	8.00	0.00	0.25	1.00	1.75	8.75	0.00	0.00	0.00	-0.166016	0.226074	0.943848	-2.100000	2.100000	0.490000	516.00	-0.11	-0.26
0.54	0.00	8.25	5.50	8.25	0.75	6.50	0.00	7.75	1.50	2.00	2.25	2.75	6.50	1.50	1.25	1.50	-0.247070	0.159668	0.922363	-0.770000	2.940000	2.100000	665.00	-0.07	-0.20	5.00	5.00	1.00	5.25	0.00	7.00	0.00	8.25	0.00	0.50	0.75	1.50	9.25	0.00	0.00	0.00	-0.161621	0.222168	0.934570	-3.220000	1.610000	1.050000	521.00	-0.11	-0.26
0.55	0.00	8.50	5.50	8.25	0.75	6.50	0.00	7.75	1.50	2.00	2.25	2.75	6.75	1.50	1.50	1.50	-0.248535	0.162598	0.925781	-0.630000	3.010000	2.310000	672.00	-0.07	-0.20	4.75	4.75	0.75	5.50	0.00	7.00	0.00	8.25	0.00	0.00	1.00	1.50	9.00	0.00	0.00	0.00	-0.157227	0.224121	0.943359	-4.340000	1.820000	0.980000	511.00	-0.11	-0.27
0.56	0.00	8.50	5.25	8.25	0.75	6.50	0.00	7.75	1.50	2.00	2.50	2.75	7.25	1.50	1.25	1.75	-0.243164	0.163574	0.928223	-0.490000	3.430000	2.380000	676.00	-0.07	-0.21	4.25	4.50	0.75	5.25	0.00	7.00	0.00	8.00	0.00	0.25	1.00	1.75	9.25	0.00	0.00	0.00	-0.157227	0.223633	0.946289	-5.460000	1.890000	0.700000	504.00	-0.10	-0.27
0.57	0.00	8.25	5.50	8.25	0.75	7.00	0.00	8.00	1.75	2.00	2.50	3.25	7.50	1.50	1.50	1.75	-0.238770	0.162598	0.930176	-0.000000	3.500000	2.310000	701.00	-0.06	-0.21	4.25	4.50	1.00	5.25	0.00	7.00	0.00	8.25	0.00	0.25	1.00	1.50	9.25	0.00	0.00	0.00	-0.158691	0.228027	0.947266	-6.160000	2.030000	0.350000	508.00	-0.10	-0.27
0.58	0.00	8.00	5.50	8.25	1.00	7.25	0.00	8.25	1.50	2.00	2.50	2.75	8.00	1.75	1.25	1.50	-0.235352	0.162109	0.936523	0.420000	3.850000	2.380000	702.00	-0.06	-0.21	4.00	4.25	0.75	5.25	0.00	7.00	0.00	8.25	0.00	0.50	1.25	1.75	9.50	0.00	0.25	0.00	-0.159180	0.220703	0.945312	-6.720000	2.590000	0.210000	513.00	-0.09	-0.27
0.59	0.00	8.00	5.00	8.00	0.75	7.25	0.00	8.25	1.75	2.00	2.50	2.75	8.25	1.50	1.25	1.75	-0.245605	0.169922	0.930176	0.840000	4.410000	2.380000	695.00	-0.06	-0.21	4.25	4.50	0.50	5.25	0.00	7.00	0.00	8.25	0.00	0.50	1.25	1.75	9.50	0.00	0.00	0.00	-0.164551	0.219238	0.956543	-7.000000	2.800000	-0.000000	513.00	-0.09	-0.28
0.60	0.00	8.00	5.25	8.25	0.75	7.25	0.00	8.50	1.25	2.25	2.50	3.00	8.50	1.25	1.50	1.50	-0.244141	0.161621	0.937988	1.190000	5.110000	2.310000	705.00	-0.06	-0.22	4.00	4.25	0.75	5.00	0.00	7.00	0.00	8.25	0.00	0.50	0.75	2.00	9.75	0.00	0.25	0.00	-0.164551	0.214844	0.958008	-6.860000	2.870000	0.070000	510.00	-0.09	-0.28
0.61	0.00	7.75	5.00	8.00	0.75	7.50	0.00	8.50	1.75	2.00	2.75	3.00	8.75	1.50	1.25	1.75	-0.246094	0.163086	0.932617	1.680000	5.740000	2.380000	710.00	-0.05	-0.22	3.25	3.75	1.00	5.00	0.00	6.75	0.00	8.25	0.00	0.50	1.25	1.75	9.75	0.00	0.25	0.00	-0.169434	0.214355	0.952637	-6.160000	3.150000	0.140000	499.00	-0.08	-0.28
0.62	0.00	7.75	5.00	8.00	0.75	7.25	0.00	8.75	1.25	2.00	2.75	3.50	9.25	1.50	1.25	2.00	-0.243652	0.166016	0.931641	2.310000	6.440000	2.520000	716.00	-0.05	-0.23	3.50	4.00	0.50	4.75	0.00	7.00	0.00	8.25	0.00	0.50	1.25	2.00	9.50	0.00	0.25	0.00	-0.161621	0.213867	0.950195	-4.970000	3.360000	0.140000	499.00	-0.08	-0.28
0.63	0.00	7.50	4.75	8.00	0.50	7.50	0.00	9.00	1.50	2.00	2.75	3.50	9.50	1.50	1.75	1.75	-0.246582	0.163574	0.926758	2.870000	7.140000	2.660000	724.00	-0.04	-0.23	3.75	3.75	0.75	4.75	0.00	7.00	0.00	8.25	0.00	0.50	1.00	2.00	10.00	0.00	0.00	0.00	-0.169922	0.216309	0.954102	-3.850000	3.780000	0.490000	501.00	-0.08	-0.28
0.64	0.00	7.50	4.75	7.75	0.50	7.75	0.00	9.00	1.25	2.25	2.50	3.75	10.00	1.50	1.75	2.00	-0.239746	0.166016	0.932617	3.710000	7.490000	2.730000	730.00	-0.04	-0.23	3.50	3.75	0.75	4.25	0.00	7.00	0.00	8.25	0.00	0.75	1.00	2.00	10.00	0.00	0.00	0.00	-0.180664	0.213867	0.956055	-2.520000	4.130000	0.980000	495.00	-0.08	-0.28
0.65	0.00	7.00	4.50	7.75	0.50	7.50	0.00	9.25	2.00	2.25	3.00	4.00	10.25	1.50	1.25	2.00	-0.241211	0.165039	0.934570	4.620000	8.400000	2.800000	739.00	-0.03	-0.23	3.25	3.00	0.25	4.25	0.00	6.75	0.00	8.50	0.00	0.50	1.25	2.00	10.00	0.00	0.00	0.00	-0.175293	0.217773	0.961426	0.560000	5.320000	2.100000	480.00	-0.07	-0.29
0.66	0.00	6.50	4.25	7.25	0.50	7.50	0.00	9.50	1.75	2.25	3.00	4.25	10.50	1.75	1.50	2.25	-0.249512	0.179688	0.932617	5.670000	10.220000	2.940000	737.00	-0.02	-0.23	3.25	3.50	0.75	4.00	0.00	6.75	0.00	8.25	0.00	0.25	1.00	2.25	10.00	0.00	0.00	0.00	-0.173340	0.220215	0.958496	2.030000	5.950000	2.520000	481.00	-0.07	-0.29
0.67	0.00	6.25	4.00	7.50	0.50	7.50	0.00	9.75	1.50	2.50	3.00	4.50	10.75	1.75	1.50	2.00	-0.252441	0.169922	0.941895	6.090000	10.710000	3.010000	742.00	-0.02	-0.24	3.25	3.00	0.50	3.75	0.00	6.75	0.00	8.25	0.00	0.50	1.50	1.75	10.25	0.00	0.00	0.00	-0.178711	0.213867	0.958984	3.570000	6.090000	3.080000	475.00	-0.06	-0.29
0.68	0.00	6.00	4.00	7.25	0.50	7.75	0.00	9.75	1.75	2.25	3.00	4.50	11.00	1.75	1.50	2.00	-0.250488	0.183105	0.929688	6.300000	11.340000	3.150000	743.00	-0.02	-0.24	2.75	3.00	0.50	3.75	0.00	6.50	0.00	8.25	0.00	0.25	1.25	2.25	10.25	0.00	0.25	0.25	-0.169434	0.226562	0.951660	4.690000	6.090000	2.940000	471.00	-0.05	-0.30
0.69	0.00	5.75	3.75	7.25	0.50	7.50	0.00	9.75	1.50	2.50	3.00	5.00	11.50	1.75	1.50	2.25	-0.263672	0.182617	0.929688	6.510000	11.900000	3.360000	745.00	-0.01	-0.24	2.50	2.50	0.25	3.50	0.00	6.50	0.00	8.25	0.00	0.50	1.00	2.25	10.50	0.00	0.25	0.00	-0.174316	0.224609	0.958496	5.180000	5.880000	2.800000	458.00	-0.05	-0.31
0.70	0.00	5.50	3.25	6.25	0.25	7.00	0.00	9.00	0.00	1.25	2.00	3.50	10.25	0.00	0.50	1.25	-0.266113	0.175781	0.935547	6.930000	12.740000	3.710000	593.00	-0.05	-0.28	3.00	2.25	0.50	3.25	0.00	6.25	0.00	8.25	0.00	0.25	1.25	2.25	10.50	0.00	0.00	0.00	-0.170898	0.230957	0.949707	5.180000	5.740000	2.590000	455.00	-0.05	-0.30
0.71	0.00	2.75	0.25	4.25	0.00	5.75	0.00	9.00	0.00	1.00	1.75	3.50	10.50	0.25	0.75	1.25	-0.260254	0.182129	0.927246	7.000000	13.860000	3.850000	489.00	0.00	-0.32	2.50	2.00	0.75	3.25	0.00	6.25	0.00	8.25	0.00	0.25	1.25	2.25	10.50	0.00	0.25	0.00	-0.174805	0.229004	0.943848	4.830000	5.460000	2.240000	453.00	-0.04	-0.30
0.72	0.00	1.50	0.25	4.00	0.00	5.50	0.00	9.00	0.00	1.25	2.00	3.75	10.50	0.25	0.50	1.25	-0.257324	0.176270	0.926758	6.510000	14.140000	3.990000	476.00	0.02	-0.32	2.25	2.25	0.00	2.75	0.00	6.00	0.00	8.25	0.00	0.25	1.00	2.25	10.50	0.00	0.00	0.00	-0.174805	0.230469	0.940430	3.920000	5.040000	2.170000	429.00	-0.04	-0.32
0.73	0.00	1.00	0.25	3.50	0.00	5.25	0.00	9.00	0.00	1.00	1.75	4.00	10.50	0.50	0.50	1.25	-0.257812	0.185547	0.927734	5.670000	13.860000	4.130000	462.00	0.03	-0.32	2.50	2.25	0.00	3.00	0.00	6.00	0.00	8.25	0.00	0.50	1.25	2.25	10.50	0.00	0.00	0.00	-0.181152	0.224609	0.942871	3.360000	4.410000	2.030000	440.00	-0.04	-0.31
0.74	0.00	1.50	0.00	3.50	0.00	5.25	0.00	9.00	0.00	1.00	2.00	4.00	10.75	0.25	0.50	1.25	-0.259766	0.186523	0.922363	4.900000	13.090000	4.060000	467.00	0.02	-0.33	2.00	2.25	0.00	2.75	0.00	6.00	0.00	8.25	0.00	0.50	1.25	2.25	10.50	0.00	0.25	0.00	-0.175781	0.229980	0.934570	2.870000	3.640000	1.890000	435.00	-0.03	-0.31
0.75	0.00	1.25	0.25	3.50	0.00	5.00	0.00	9.00	0.00	1.00	2.00	4.25	10.75	0.25	0.50	1.25	-0.263184	0.187012	0.922852	3.220000	12.460000	3.570000	467.00	0.03	-0.32	2.00	2.00	0.00	2.75	0.00	6.00	0.00	8.25	0.00	0.50	1.25	2.25	10.75	0.00	0.25	0.00	-0.172363	0.235352	0.937988	1.610000	2.590000	1.680000	435.00	-0.03	-0.32
0.76	0.00	0.00	0.00	3.00	0.00	5.25	0.00	9.00	0.00	1.00	1.75	4.50	11.00	0.50	0.50	1.25	-0.251953	0.196289	0.908203	1.120000	11.550000	2.730000	453.00	0.05	-0.33	1.75	2.00	0.25	2.50	0.00	5.75	0.00	8.00	0.00	0.00	0.75	2.00	10.50	0.00	0.25	0.25	-0.180176	0.237793	0.938965	-0.560000	1.540000	1.120000	409.00	-0.03	-0.32
0.77	0.00	0.50	0.00	3.25	0.00	5.00	0.00	9.00	0.00	1.25	1.75	4.50	11.00	0.50	0.50	1.50	-0.253906	0.195801	0.914551	-1.470000	10.500000	1.540000	462.00	0.04	-0.33	2.25	1.75	0.25	2.50	0.00	5.75	0.00	8.25	0.00	0.50	1.25	2.25	10.75	0.00	0.25	0.25	-0.165039	0.230957	0.943359	-2.240000	0.910000	0.630000	433.00	-0.02	-0.31
0.78	0.00	0.50	0.00	2.50	0.00	4.75	0.00	9.00	0.00	1.00	2.00	4.75	11.00	0.50	0.50	1.50	-0.259277	0.194336	0.915039	-4.340000	9.310000	0.490000	453.00	0.05	-0.33	2.00	1.75	0.00	2.50	0.00	5.75	0.00	8.25	0.00	0.25	1.00	2.25	10.75	0.00	0.25	0.00	-0.173340	0.232910	0.940918	-5.740000	-0.350000	-0.350000	420.00	-0.02	-0.32
0.79	0.00	0.75	0.00	2.50	0.00	5.00	0.00	9.00	0.25	1.25	1.75	4.75	11.00	0.50	0.25	1.25	-0.257812	0.201172	0.915039	-7.700000	8.260000	-0.700000	458.00	0.05	-0.33	2.00	2.00	0.00	2.25	0.00	5.50	0.00	8.25	0.00	0.50	1.25	2.25	10.50	0.00	0.25	0.25	-0.172852	0.243164	0.944336	-6.580000	-0.350000	-0.700000	422.00	-0.02	-0.32
0.80	0.00	0.50	0.00	2.50	0.00	3.75	0.00	8.75	0.00	1.25	1.75	4.75	10.75	0.25	0.50	1.25	-0.255859	0.196777	0.905273	-15.470000	5.670000	-3.570000	431.00	0.05	-0.33	1.75	1.75	0.00	2.25	0.00	5.50	0.00	8.00	0.00	0.50	1.00	2.25	10.50	0.00	0.25	0.00	-0.169434	0.241699	0.943359	-8.260000	-0.140000	-1.120000	408.00	-0.02	-0.32
0.81	0.00	0.75	0.00	2.50	0.00	3.50	0.00	8.75	0.00	1.50	2.00	5.00	10.75	1.00	0.75	2.00	-0.260742	0.189453	0.919434	-19.389999	3.850000	-5.180000	454.00	0.07	-0.32	2.25	1.75	0.25	2.25	0.00	5.50	0.00	8.00	0.00	0.50	1.00	2.25	10.50	0.00	0.25	0.00	-0.165527	0.241211	0.926758	-11.060000	0.980000	-1.890000	417.00	-0.03	-0.31
0.82	0.00	2.50	1.25	4.00	0.25	5.00	0.00	9.25	1.75	2.25	3.00	6.00	11.50	1.50	1.50	2.25	-0.258789	0.177734	0.915527	-21.559999	2.380000	-6.580000	612.00	0.05	-0.26	1.50	2.00	0.00	2.25	0.00	5.50	0.00	8.00	0.00	0.25	1.25	2.00	10.25	0.00	0.00	0.00	-0.166504	0.236328	0.928223	-13.440001	1.960000	-2.310000	399.00	-0.02	-0.33
0.83	0.00	1.75	1.00	4.50	0.25	5.00	0.00	9.00	1.25	2.25	2.50	5.25	10.50	0.50	0.50	1.50	-0.267578	0.167480	0.926758	-21.700001	1.540000	-7.140000	547.00	0.03	-0.28	1.75	2.00	0.00	2.00	0.00	5.25	0.00	8.00	0.00	0.50	1.25	2.00	10.25	0.00	0.00	0.25	-0.171875	0.231934	0.934082	-16.100000	2.800000	-3.080000	401.00	-0.02	-0.32
0.84	0.00	1.25	0.25	2.25	0.00	2.75	0.00	8.25	0.00	1.25	2.25	5.25	10.25	0.75	0.50	1.50	-0.280762	0.155273	0.930664	-20.299999	1.330000	-6.580000	431.00	0.06	-0.32	2.00	1.75	0.25	2.00	0.00	5.25	0.00	7.75	0.00	0.50	1.00	2.00	10.25	0.00	0.00	0.00	-0.180176	0.233887	0.951172	-19.670000	4.060000	-3.780000	396.00	-0.03	-0.32
0.85	0.00	0.50	0.00	2.25	0.00	3.25	0.00	8.25	0.25	1.50	2.50	5.00	10.25	0.75	0.50	1.50	-0.273438	0.154297	0.930664	-18.480000	0.560000	-5.460000	433.00	0.07	-0.31	1.75	1.75	0.00	1.75	0.00	5.00	0.00	7.75	0.00	0.25	1.00	2.00	10.25	0.00	0.00	0.00	-0.172363	0.229492	0.939941	-23.309999	4.900000	-4.760000	381.00	-0.02	-0.33
0.86	0.00	0.50	0.00	2.75	0.00	2.75	0.00	8.00	0.25	1.75	2.25	5.00	10.00	0.50	0.75	1.50	-0.270996	0.153320	0.932129	-16.660000	-0.490000	-4.060000	427.00	0.07	-0.31	1.75	1.75	0.00	1.50	0.00	4.75	0.00	7.75	0.00	0.75	1.25	2.00	10.00	0.00	0.00	0.00	-0.177246	0.226074	0.937988	-27.160000	5.250000	-5.670000	381.00	-0.01	-0.32
0.87	0.00	3.25	2.00	5.00	0.75	5.00	0.00	9.00	2.00	3.00	3.50	6.50	11.25	2.25	2.00	2.25	-0.270020	0.156738	0.927246	-15.470000	-1.890000	-2.450000	676.00	0.05	-0.24	1.25	1.50	0.00	1.75	0.00	4.25	0.00	7.50	0.00	0.50	1.25	2.00	10.00	0.25	0.00	0.00	-0.173340	0.229492	0.921387	-32.130001	4.620000	-6.860000	365.00	-0.00	-0.33
0.88	0.00	3.50	2.50	5.00	0.75	5.25	0.00	8.75	2.25	2.75	3.75	6.50	11.25	2.25	1.75	2.50	-0.264160	0.157227	0.917969	-13.650000	-2.870000	-1.120000	686.00	0.04	-0.23	1.50	1.50	0.25	1.50	0.00	4.00	0.00	7.50	0.00	0.50	1.00	2.00	10.00	0.00	0.00	0.25	-0.182617	0.220215	0.935547	-37.029999	3.850000	-7.770000	361.00	-0.01	-0.33
0.89	0.00	4.00	2.50	5.25	0.75	5.25	0.00	8.75	2.00	2.75	3.50	6.50	11.00	2.00	1.75	2.25	-0.279785	0.149902	0.933594	-10.990000	-4.200000	0.630000	682.00	0.03	-0.23	1.75	1.50	0.50	1.75	0.25	3.75	0.00	7.50	0.00	0.50	1.25	2.00	9.75	0.00	0.00	0.00	-0.191406	0.191406	0.941406	-44.170002	-0.770000	-8.050000	369.00	-0.02	-0.31
0.90	0.00	4.75	3.00	5.50	0.75	5.25	0.00	8.75	2.25	2.75	3.25	6.25	11.00	2.25	1.75	2.25	-0.272461	0.156250	0.926758	-9.030000	-6.090000	2.100000	698.00	0.02	-0.23	1.75	1.75	0.25	1.75	0.00	4.00	0.00	7.50	0.00	0.75	1.25	2.25	9.75	0.25	0.00	0.00	-0.192871	0.161133	0.971191	-42.630001	-4.410000	-7.700000	377.00	-0.01	-0.31
0.91	0.00	5.00	3.00	5.75	1.25	5.50	0.00	8.75	2.00	2.75	3.50	6.25	10.75	2.25	2.00	2.00	-0.264160	0.151855	0.925293	-7.770000	-7.770000	2.660000	711.00	0.02	-0.22	1.75	1.50	0.75	1.75	0.00	4.00	0.00	7.50	0.00	0.50	1.25	2.00	9.75	0.00	0.50	0.25	-0.202148	0.142578	0.987305	-31.780001	-6.720000	-6.860000	380.00	-0.01	-0.31
0.92	0.00	5.25	3.75	6.00	1.00	5.75	0.00	8.75	2.00	2.75	3.50	6.25	10.75	2.50	1.75	2.00	-0.256836	0.152832	0.937500	-6.930000	-9.170000	3.080000	725.00	0.01	-0.22	2.25	2.00	0.75	2.00	0.25	4.25	0.00	7.50	0.00	0.75	1.25	2.25	9.75	0.25	0.25	0.00	-0.197754	0.149414	0.972656	-22.190001	-8.330000	-4.970000	403.00	-0.02	-0.29
0.93	0.00	5.50	4.25	6.75	1.00	6.25	0.00	8.75	2.00	2.75	3.25	6.25	10.50	2.25	1.75	2.25	-0.249512	0.163574	0.936035	-6.580000	-9.660000	2.310000	743.00	0.00	-0.22	2.50	2.25	0.75	2.00	0.00	4.50	0.00	7.50	0.00	0.75	1.25	2.00	9.75	0.25	0.25	0.00	-0.190430	0.163086	0.976562	-15.960000	-9.870000	-3.150000	405.00	-0.03	-0.29
0.94	0.00	5.75	4.50	7.25	1.50	6.00	0.00	8.75	1.75	2.75	3.00	6.00	10.50	2.25	1.75	2.00	-0.243164	0.160645	0.938965	-7.490000	-6.930000	0.560000	747.00	-0.01	-0.22	3.50	2.25	1.00	2.50	0.25	4.50	0.00	7.50	0.00	0.50	1.00	2.25	9.50	0.00	0.25	0.00	-0.183594	0.167969	0.970703	-12.180000	-10.080000	-2.030000	421.00	-0.05	-0.28
0.95	0.00	6.00	5.00	7.50	1.25	6.75	0.00	8.50	1.75	3.00	3.25	5.75	10.50	2.00	1.50	2.25	-0.237305	0.153809	0.940918	-8.470000	-5.250000	-0.210000	759.00	-0.01	-0.22	3.50	2.50	1.50	2.75	0.25	4.75	0.00	7.50	0.00	0.50	1.25	2.00	9.50	0.25	0.25	0.25	-0.172363	0.166016	0.969727	-10.080000	-9.450000	-1.540000	440.00	-0.05	-0.27
0.96	0.00	6.75	5.00	7.75	1.25	6.75	0.00	8.50	2.00	2.75	3.00	5.75	10.25	1.75	0.75	2.00	-0.222656	0.154297	0.939941	-9.660000	-3.430000	-0.770000	753.00	-0.03	-0.22	3.75	2.75	1.50	3.25	0.50	5.00	0.00	7.50	0.00	0.75	1.25	2.00	9.50	0.25	0.25	0.25	-0.167480	0.175781	0.961914	-9.730000	-8.120000	-1.190000	460.00	-0.06	-0.26
0.97	0.00	6.75	4.50	7.50	1.00	6.25	0.00	8.00	0.50	1.50	2.25	4.50	9.25	0.50	1.00	1.25	-0.222656	0.160645	0.926758	-11.200000	-1.750000	-1.050000	645.00	-0.06	-0.24	4.25	3.00	1.75	3.25	0.50	4.75	0.00	7.50	0.00	0.50	1.00	2.00	9.50	0.50	0.25	0.00	-0.163086	0.180176	0.948242	-12.250000	-5.390000	-1.470000	463.00	-0.07	-0.26
0.98	0.00	6.25	4.50	7.50	0.75	6.00	0.00	8.00	0.50	1.75	2.25	4.50	9.00	0.75	1.00	1.00	-0.237305	0.135254	0.935547	-11.130000	-0.700000	-0.700000	635.00	-0.05	-0.24	4.50	3.00	1.75	3.50	0.50	5.00	0.00	7.50	0.00	0.75	1.25	2.00	9.25	0.50	0.00	0.00	-0.151855	0.183105	0.957031	-16.309999	-2.660000	-2.030000	472.00	-0.08	-0.25
0.99	0.00	6.50	4.75	7.50	1.00	6.00	0.00	8.00	0.75	1.75	2.00	4.50	9.25	0.75	1.00	1.25	-0.235352	0.141113	0.946777	-9.660000	0.700000	-0.140000	648.00	-0.05	-0.24	4.50	3.25	2.00	3.75	0.75	4.50	0.00	7.25	0.00	0.50	1.25	2.00	9.25	0.50	0.25	0.00	-0.152832	0.187012	0.953125	-20.790001	-0.490000	-3.080000	474.00	-0.08	-0.25
1.00	0.00	7.00	5.00	7.50	1.00	6.00	0.00	7.75	0.50	2.00	2.25	4.25	9.00	0.75	1.00	1.25	-0.233887	0.138672	0.949707	-7.910000	3.010000	0.350000	649.00	-0.06	-0.23	4.50	3.25	2.25	3.50	0.75	4.25	0.00	7.00	0.00	0.75	1.25	1.75	9.00	1.00	0.25	0.25	-0.152832	0.188965	0.953125	-25.830000	1.680000	-4.130000	471.00	-0.07	-0.24
1.01	0.00	6.75	5.00	7.50	1.00	6.00	0.00	7.75	0.75	2.00	2.25	4.00	9.00	1.00	1.00	1.00	-0.240234	0.149414	0.948242	-5.950000	5.460000	0.910000	648.00	-0.06	-0.23	4.75	3.00	2.25	3.25	0.75	4.00	0.00	6.75	0.00	0.50	1.25	1.75	8.75	1.00	0.50	0.25	-0.159180	0.180664	0.946289	-31.290001	4.060000	-5.110000	458.00	-0.07	-0.23
1.02	0.00	6.75	5.00	7.50	1.00	5.75	0.00	7.75	0.25	2.00	2.25	4.00	9.00	1.00	0.75	1.00	-0.251953	0.139160	0.949219	-4.270000	7.000000	1.330000	635.00	-0.06	-0.23	4.50	3.25	2.75	3.25	1.00	3.75	0.25	6.50	0.25	0.50	1.25	1.50	8.50	1.25	0.50	0.00	-0.169434	0.148438	0.975098	-33.950001	6.790000	-6.650000	463.00	-0.07	-0.21
1.03	0.00	6.75	4.50	7.50	1.00	6.00	0.00	7.75	0.50	2.00	2.25	4.00	9.00	1.00	1.00	1.25	-0.244141	0.138184	0.935547	-2.590000	7.350000	1.890000	640.00	-0.05	-0.23	5.00	3.00	2.75	3.25	1.25	3.25	0.25	6.00	0.25	0.75	1.25	1.75	8.25	1.25	0.25	0.25	-0.177734	0.146973	0.963379	-32.619999	7.070000	-8.120000	457.00	-0.07	-0.20
1.04	0.00	6.75	4.75	7.50	0.75	5.75	0.00	7.75	0.75	1.50	2.25	3.75	8.75	1.00	0.75	1.00	-0.238770	0.146484	0.934082	-1.680000	6.930000	2.170000	625.00	-0.06	-0.23	4.75	3.00	2.50	3.25	1.25	2.50	0.25	5.75	0.00	0.75	1.25	1.50	7.75	1.50	0.25	0.00	-0.177246	0.140137	0.987793	-30.799999	7.420000	-8.610000	428.00	-0.08	-0.20
1.05	0.00	6.75	4.25	7.50	0.75	5.75	0.00	7.75	0.50	2.00	2.25	4.00	8.75	1.00	0.75	1.25	-0.239258	0.150391	0.938965	-1.540000	5.950000	2.240000	626.00	-0.05	-0.24	4.75	3.00	2.75	2.50	1.25	2.00	0.25	5.25	0.25	0.75	1.25	1.25	7.00	1.50	0.50	0.00	-0.175781	0.124023	0.963379	-28.630001	6.790000	-8.610000	404.00	-0.07	-0.18
1.06	0.00	6.50	4.75	7.75	1.00	6.00	0.00	7.75	0.50	2.00	2.25	4.00	9.00	1.00	0.75	1.25	-0.236816	0.147461	0.930176	-1.820000	4.760000	1.960000	641.00	-0.06	-0.23	4.50	2.75	2.50	2.75	1.25	1.50	0.25	4.50	0.25	0.50	1.00	1.25	6.25	1.75	0.25	0.00	-0.177246	0.129883	0.957031	-26.250000	6.160000	-8.120000	367.00	-0.08	-0.18
1.07	0.00	7.00	5.00	7.50	0.75	6.00	0.00	7.75	0.50	1.75	2.00	4.00	8.75	1.00	1.00	1.00	-0.245117	0.145508	0.934082	-2.450000	3.570000	1.470000	636.00	-0.06	-0.23	4.50	3.00	2.75	2.25	1.50	1.00	0.25	3.75	0.25	1.00	1.25	1.00	5.50	2.00	0.25	0.00	-0.176758	0.123047	0.953613	-23.870001	5.810000	-7.560000	352.00	-0.08	-0.15
1.08	0.00	7.00	5.00	7.75	1.00	6.00	0.00	7.75	0.75	2.00	2.25	4.00	9.00	1.00	1.00	1.25	-0.256836	0.141113	0.938477	-3.010000	-1.960000	0.980000	655.00	-0.06	-0.23	4.50	2.75	3.00	2.25	1.25	0.50	0.25	2.75	0.25	0.75	1.00	1.00	5.00	2.00	0.50	0.00	-0.183105	0.113770	0.977539	-20.230000	5.040000	-6.510000	319.00	-0.08	-0.13
1.09	0.00	8.00	5.25	8.00	1.00	6.25	0.00	7.75	0.50	1.75	2.25	4.00	9.00	1.00	1.00	1.00	-0.256836	0.141113	0.938477	-3.010000	-1.960000	0.980000	666.00	-0.07	-0.23	5.00	2.50	3.25	2.25	1.25	0.50	0.25	2.25	0.25	0.75	1.00	1.00	3.75	1.75	0.50	0.00	-0.218262	0.109863	0.989258	-14.000000	3.990000	-5.320000	303.00	-0.10	-0.11
1.10	0.00	8.50	5.75	8.25	1.00	6.50	0.00	7.75	0.50	1.50	2.25	3.75	9.00	1.00	1.00	1.00	-0.265137	0.139160	0.955566	-1.190000	-10.570000	2.520000	678.00	-0.08	-0.23	5.00	2.75	3.00	2.00	1.25	0.00	0.25	1.50	0.00	0.50	1.00	1.00	2.50	1.75	0.25	0.00	-0.217773	0.112793	0.972656	-7.420000	3.570000	-3.990000	260.00	-0.13	-0.08
1.11	0.00	9.25	6.50	8.50	1.25	6.75	0.00	7.75	0.00	1.50	2.00	4.00	8.75	1.00	1.00	1.00	-0.249023	0.150391	0.959473	0.350000	-14.490000	2.940000	694.00	-0.09	-0.23	4.75	2.50	3.00	1.50	1.25	0.00	0.25	1.00	0.00	0.00	0.50	0.75	1.25	1.50	0.00	0.00	-0.217773	0.118164	0.986816	-0.000000	3.080000	-3.430000	209.00	-0.18	-0.05
1.12	0.00	10.25	7.25	9.00	1.25	6.75	0.00	7.75	0.25	1.00	1.75	3.50	8.75	0.75	1.00	0.75	-0.244629	0.158203	0.955078	0.210000	-15.400000	2.590000	705.00	-0.10	-0.22	4.50	2.25	3.00	1.75	1.25	0.00	0.00	0.75	0.00	0.00	0.50	0.50	0.50	1.00	0.00	0.00	-0.263672	0.091309	0.991211	11.060000	0.560000	-4.760000	184.00	-0.22	-0.04
1.13	0.00	10.75	7.75	9.25	1.50	7.25	0.00	7.75	0.25	1.25	1.75	3.25	8.25	0.50	1.00	0.75	-0.214355	0.156250	0.962891	-0.700000	-14.840000	1.190000	721.00	-0.11	-0.22	5.00	2.50	3.00	1.50	1.00	0.00	0.00	0.50	0.00	0.00	0.25	0.50	0.50	0.75	0.00	0.00	-0.237305	0.074219	0.999023	21.210001	-2.730000	-10.850000	177.00	-0.25	-0.02
1.14	0.00	11.75	8.25	9.50	1.50	7.25	0.00	7.50	0.00	1.25	1.50	3.00	8.00	0.75	1.00	0.75	-0.212402	0.160645	0.961914	0.770000	-13.510000	0.280000	726.00	-0.12	-0.21	4.75	2.50	2.75	1.25	0.75	0.00	0.00	0.25	0.00	0.00	0.00	0.25	0.00	0.25	0.00	0.00	-0.280762	-0.034668	0.993652	29.400000	-21.210001	-24.010000	146.00	-0.31	-0.00
1.15	0.00	12.50	8.50	10.00	1.50	7.50	0.00	7.50	0.00	1.00	1.25	2.75	7.75	0.50	1.00	0.75	-0.226562	0.154297	0.958496	3.710000	-11.200000	1.050000	733.00	-0.13	-0.21	5.25	2.50	3.25	1.25	0.75	0.00	0.00	0.00	0.00	0.00	0.00	0.00	0.00	0.00	0.00	0.00	-0.409668	-0.487793	1.071289	22.260000	-28.770000	-39.200001	148.00	-0.34	0.02
1.16	0.00	13.25	8.75	10.00	1.50	7.50	0.00	7.00	0.00	0.75	1.50	2.50	7.25	0.75	0.75	0.75	-0.226074	0.163086	0.960449	7.350000	-8.680000	2.100000	727.00	-0.14	-0.21	5.25	2.25	3.25	1.00	0.75	0.00	0.00	0.00	0.00	0.00	0.00	0.00	0.00	0.00	0.00	0.00	-0.524414	-0.764160	1.108887	8.260000	-28.420000	-75.250000	143.00	-0.34	0.03
1.17	0.00	14.00	9.00	10.25	1.50	7.50	0.00	6.75	0.00	0.50	1.00	2.50	6.25	0.25	0.75	0.50	-0.208008	0.153320	0.946777	11.550000	-5.250000	2.590000	712.00	-0.16	-0.21	5.00	2.25	3.25	0.75	0.50	0.00	0.00	0.00	0.00	0.00	0.00	0.25	0.00	0.00	0.00	0.00	-0.449707	-0.693359	1.145508	-20.580000	-38.849998	-120.050003	137.00	-0.33	0.03
1.18	0.00	14.25	9.25	10.50	1.50	7.50	0.00	6.25	0.00	0.25	1.00	2.25	5.50	0.50	0.50	0.50	-0.204590	0.138184	0.969727	14.420000	-4.970000	2.240000	699.00	-0.17	-0.20	5.25	2.25	3.00	0.50	0.50	0.00	0.00	0.00	0.00	0.00	0.00	0.00	0.00	0.00	0.00	0.00	-0.371582	-0.270996	1.023438	-28.770000	-47.110001	-155.470001	131.00	-0.35	0.04
1.19	0.00	14.75	9.00	10.25	1.50	7.25	0.00	5.50	0.00	0.50	1.00	2.00	5.25	0.25	0.50	0.50	-0.221191	0.145996	0.968750	15.470000	-5.250000	1.820000	678.00	-0.18	-0.20	5.50	2.50	3.00	1.00	0.50	0.00	0.00	0.00	0.00	0.00	0.00	0.00	0.00	0.00	0.00	0.00	-0.214844	0.234375	0.953125	-5.740000	-50.820000	-165.410004	142.00	-0.35	0.02
1.20	0.00	15.00	9.25	10.50	1.50	7.00	0.00	5.25	0.00	0.50	0.75	1.50	4.25	0.25	0.50	0.25	-0.206055	0.169434	0.945312	13.020000	-6.230000	1.400000	660.00	-0.19	-0.19	5.50	2.50	3.00	0.50	0.50	0.00	0.00	0.00	0.00	0.00	0.00	0.00	0.00	0.00	0.00	0.00	-0.118164	0.385254	0.900391	9.940000	-50.750000	-150.360001	136.00	-0.35	0.04
1.21	0.00	15.00	9.25	10.50	1.50	6.50	0.00	5.00	0.00	0.25	0.75	1.75	3.50	0.00	0.25	0.25	-0.199707	0.167480	0.929199	13.230000	-5.950000	2.030000	638.00	-0.20	-0.19	5.25	2.50	3.00	0.75	0.25	0.00	0.00	0.00	0.00	0.00	0.00	0.00	0.00	0.00	0.00	0.00	-0.042480	0.539551	0.816895	21.210001	-48.160000	-122.500000	133.00	-0.35	0.03
1.22	0.00	15.50	9.25	10.50	1.50	6.50	0.00	4.25	0.00	0.50	0.50	1.25	2.50	0.25	0.50	0.25	-0.193359	0.166504	0.919922	9.590000	-3.360000	1.890000	620.00	-0.21	-0.17	5.50	2.50	3.00	0.75	0.50	0.00	0.00	0.00	0.00	0.00	0.00	0.00	0.00	0.00	0.00	0.00	0.017578	0.533691	0.789062	31.219999	-42.700001	-92.260002	139.00	-0.35	0.03
1.23	0.00	15.25	9.25	10.25	1.50	6.25	0.00	3.75	0.00	0.25	0.75	1.50	2.50	0.25	0.50	0.25	-0.179199	0.177246	0.908203	3.850000	0.210000	1.400000	606.00	-0.21	-0.17	5.75	2.50	3.00	0.75	0.50	0.00	0.00	0.00	0.00	0.00	0.00	0.00	0.00	0.00	0.00	0.00	0.050293	0.573730	0.813965	43.049999	-35.070000	-66.080002	142.00	-0.35	0.03
1.24	0.00	15.25	9.25	10.25	1.50	6.00	0.00	3.00	0.00	0.25	0.75	0.75	1.75	0.25	0.25	0.00	-0.180664	0.174805	0.889648	-4.060000	4.900000	0.210000	571.00	-0.23	-0.16	5.75	3.00	3.50	1.00	0.50	0.00	0.00	0.00	0.00	0.00	0.00	0.00	0.00	0.00	0.00	0.00	0.041992	0.583984	0.797852	53.060001	-29.610001	-42.560001	156.00	-0.35	0.02
1.25	0.00	15.00	9.25	10.00	1.50	6.00	0.00	2.75	0.00	0.25	0.50	1.25	2.00	0.00	0.50	0.00	-0.148438	0.183105	0.853516	-27.160000	18.549999	-2.870000	567.00	-0.23	-0.16	6.00	3.75	3.75	1.25	0.75	0.00	0.00	0.00	0.00	0.00	0.00	0.00	0.00	0.00	0.00	0.00	0.084961	0.791504	0.731934	51.450001	-22.190001	-22.889999	175.00	-0.35	0.01
1.26	0.00	14.75	9.00	10.00	1.50	5.50	0.00	2.75	0.00	0.50	0.50	1.25	1.75	0.25	0.50	0.00	-0.169434	0.156250	0.898926	-35.770000	24.570000	-3.710000	558.00	-0.23	-0.16	6.50	4.50	3.75	1.75	0.75	0.00	0.00	0.00	0.00	0.00	0.00	0.00	0.00	0.00	0.00	0.00	-0.050293	0.432617	0.722656	42.770000	5.950000	15.890000	195.00	-0.35	0.00
1.27	0.00	14.25	9.00	9.75	1.50	5.50	0.00	2.25	0.00	0.50	0.75	1.00	1.50	0.50	0.50	0.25	-0.182129	0.118164	0.917480	-40.459999	27.580000	-6.230000	543.00	-0.23	-0.15	7.25	5.00	4.25	2.00	0.75	0.00	0.00	0.00	0.00	0.00	0.00	0.00	0.00	0.00	0.00	0.00	-0.053711	0.118652	0.748535	34.020000	21.139999	22.750000	217.00	-0.35	0.00
1.28	0.00	13.75	8.75	9.50	1.50	5.25	0.00	2.25	0.00	0.50	0.75	1.00	1.50	0.50	0.50	0.25	-0.180664	0.148926	0.930664	-44.869999	30.170000	-8.190000	529.00	-0.22	-0.15	8.00	6.00	5.00	2.50	0.75	0.00	0.00	0.00	0.00	0.00	0.00	0.00	0.00	0.00	0.00	0.00	-0.034180	-0.024902	0.715820	23.940001	35.770000	16.309999	251.00	-0.35	-0.00
1.29	0.00	12.75	8.50	9.00	1.50	4.50	0.00	2.00	0.00	0.75	0.75	1.00	1.00	0.50	0.50	0.25	-0.207520	0.145020	0.938477	-45.150002	32.200001	-9.380000	495.00	-0.22	-0.14	9.25	6.75	5.00	3.00	1.00	0.00	0.00	0.00	0.00	0.00	0.00	0.00	0.00	0.00	0.00	0.00	-0.271484	-0.059082	1.874512	-5.250000	53.619999	3.920000	282.00	-0.35	-0.01
1.30	0.00	11.75	8.00	8.75	1.50	3.75	0.00	2.00	0.50	1.25	0.75	1.00	1.00	0.75	0.50	0.25	-0.222168	0.113281	1.011719	-41.230000	30.380001	-9.870000	482.00	-0.20	-0.13	10.25	7.75	5.25	3.50	1.00	0.00	0.00	0.00	0.00	0.00	0.00	0.00	0.00	0.00	0.00	0.00	-0.226074	0.337891	1.322266	-23.870001	35.560001	1.050000	312.00	-0.35	-0.01
1.31	0.00	10.50	7.75	8.25	1.75	3.50	0.00	2.00	0.50	1.25	1.00	0.75	0.50	0.75	0.50	0.00	-0.213379	0.108398	0.971680	-34.650002	31.500000	-10.780000	454.00	-0.20	-0.13	12.00	8.50	5.25	4.25	1.25	0.00	0.00	0.00	0.00	0.00	0.25	0.25	0.00	0.00	0.00	0.00	-0.226562	0.109863	0.997559	-30.870001	21.559999	3.080000	357.00	-0.34	-0.02
1.32	0.00	8.75	7.00	7.50	1.50	2.25	0.00	1.50	0.75	1.75	1.25	0.75	1.25	1.00	0.50	0.00	-0.234375	0.147461	0.972656	-27.299999	35.279999	-11.060000	414.00	-0.17	-0.11	12.50	9.50	5.50	5.00	1.50	0.25	0.00	0.50	0.00	0.00	0.25	0.25	0.00	0.00	0.00	0.00	-0.153320	0.117676	1.016113	-35.349998	16.100000	4.690000	399.00	-0.33	-0.03
1.33	0.00	7.50	6.00	6.50	1.50	2.25	0.00	1.25	1.50	2.00	1.50	1.00	0.75	1.50	0.50	0.00	-0.201660	0.092773	0.964844	-21.559999	40.880001	-12.950000	392.00	-0.14	-0.09	14.25	11.00	6.50	5.50	1.50	0.50	0.00	0.50	0.00	0.00	0.50	0.50	0.00	0.00	0.25	0.00	-0.179688	0.128418	0.999512	-31.430000	6.440000	3.990000	464.00	-0.33	-0.03
1.34	0.00	6.25	5.25	5.50	0.75	0.25	0.00	1.00	2.00	2.00	1.50	1.00	1.00	1.50	0.50	0.00	-0.175781	0.135254	1.022949	-13.370000	46.340000	-13.650000	331.00	-0.11	-0.07	15.50	13.25	7.00	6.50	1.75	1.00	0.00	0.50	0.00	0.00	0.50	0.50	0.00	0.00	0.00	0.00	-0.188965	0.126465	0.992188	-27.650000	0.000000	4.060000	525.00	-0.33	-0.04
1.35	0.00	5.25	4.50	4.00	0.50	0.00	0.00	0.25	2.00	2.00	2.00	1.00	1.00	2.00	0.25	0.00	0.117676	0.550781	1.140137	-5.460000	54.950001	-15.820000	283.00	-0.07	-0.05	17.50	15.00	7.75	7.75	2.00	1.25	0.00	1.00	0.00	0.00	0.75	0.75	0.50	0.00	0.25	0.00	-0.161133	0.176758	0.947266	-22.400000	-4.620000	4.830000	617.00	-0.32	-0.05
1.36	0.00	5.25	3.50	3.75	0.00	0.00	0.00	0.25	2.00	1.75	1.50	1.00	0.00	2.50	0.25	0.00	-0.489258	-0.340332	1.036133	1.820000	86.519997	-24.500000	248.00	-0.07	-0.04	19.50	16.75	8.50	8.50	2.00	2.00	0.25	1.50	0.00	0.25	1.00	1.00	0.50	0.25	0.25	0.00	-0.159668	0.139648	0.979492	-19.670000	-7.280000	4.760000	708.00	-0.30	-0.05
1.37	0.00	3.25	2.00	2.75	0.00	0.00	0.00	0.00	1.50	1.75	1.25	1.00	0.00	2.50	0.50	0.25	-0.318848	0.388672	1.222168	14.140000	163.520004	-25.830000	188.00	-0.01	-0.03	21.00	19.00	9.00	9.50	2.25	2.25	0.25	1.50	0.00	0.25	0.75	1.00	1.25	0.50	0.25	0.00	-0.153320	0.121582	0.973633	-16.870001	-10.850000	4.550000	778.00	-0.30	-0.06
1.38	0.00	1.00	1.50	2.50	0.00	0.00	0.00	0.00	1.00	1.50	1.25	0.50	0.00	2.50	0.25	0.00	-0.528809	0.197266	1.495605	13.790000	220.779999	-31.290001	136.00	0.04	-0.01	22.50	20.50	9.25	10.25	2.50	3.00	0.25	2.25	0.00	0.50	1.25	1.00	1.75	0.50	0.50	0.00	-0.141602	0.138672	0.975586	-9.870000	-12.180000	3.150000	862.00	-0.29	-0.07
1.39	0.00	0.75	0.50	1.00	0.00	0.00	0.00	0.00	0.75	1.25	1.00	0.50	0.00	2.25	0.00	0.00	-0.286621	0.194336	1.479980	-27.020000	226.309998	-36.680000	89.00	0.12	0.01	23.00	21.50	9.75	10.75	2.75	3.75	0.25	2.75	0.50	0.25	1.00	1.00	2.25	0.75	0.50	0.00	-0.115234	0.151367	0.981934	-8.400000	-9.520000	2.030000	919.00	-0.28	-0.07
1.40	0.00	0.50	0.00	1.25	0.00	0.00	0.00	0.00	0.25	1.25	1.00	0.25	0.00	1.75	0.00	0.25	-0.360840	0.300781	1.718262	-64.400002	218.330002	-47.320000	70.00	0.12	-0.03	24.25	22.25	10.00	11.50	2.75	4.50	0.50	3.00	0.25	0.50	1.25	1.25	3.00	0.50	0.00	0.00	-0.133789	0.141602	0.982422	-7.490000	-6.230000	0.630000	974.00	-0.28	-0.08
1.41	0.00	0.25	0.00	0.25	0.00	0.00	0.00	0.00	0.00	1.00	0.75	0.25	0.00	1.00	0.00	0.00	-0.637695	0.514648	2.036621	-89.739998	208.880005	-55.299999	38.00	0.00	0.00	24.25	22.00	10.00	12.00	3.00	4.75	0.50	3.25	0.00	1.00	1.25	1.50	3.25	1.00	0.50	0.00	-0.138672	0.143555	0.964355	-6.370000	-3.290000	0.210000	1005.00	-0.27	-0.08
1.42	0.00	0.00	0.00	1.00	0.00	0.00	0.00	0.00	0.00	0.75	0.25	0.25	0.00	0.25	0.00	0.00	-0.086914	0.567383	1.844727	-120.959999	179.059998	-61.459999	29.00	0.00	0.00	24.00	22.50	10.25	12.25	3.25	5.25	0.50	4.00	0.00	1.00	1.75	1.75	4.50	0.75	0.75	0.00	-0.131348	0.125488	0.967285	-4.900000	-1.260000	-0.070000	1056.00	-0.25	-0.09
1.43	0.00	0.00	0.00	1.25	0.00	0.00	0.00	0.00	0.00	0.50	0.25	0.25	0.00	0.00	0.00	0.00	0.923828	0.925781	1.876953	-159.740005	139.720001	-58.450001	26.00	0.00	0.00	23.75	22.00	10.25	12.50	3.25	5.25	0.50	4.25	0.25	1.25	1.75	2.00	5.00	0.75	0.50	0.00	-0.124512	0.131836	0.965332	-3.290000	0.420000	-0.630000	1066.00	-0.25	-0.09
1.44	0.00	1.00	0.50	1.75	0.00	0.00	0.00	0.00	0.25	0.50	0.50	0.50	0.00	0.25	0.00	0.00	1.223633	1.469727	1.348633	-139.440002	96.180000	-36.610001	60.00	-0.10	-0.11	23.50	21.75	10.00	12.25	3.50	5.50	0.75	5.00	0.25	1.25	2.00	1.75	5.50	0.75	0.75	0.00	-0.135254	0.140625	0.981445	-2.380000	2.240000	-1.330000	1085.00	-0.24	-0.10
1.45	0.00	1.25	0.50	1.00	0.00	0.00	0.00	0.00	0.00	0.00	0.00	0.00	0.00	0.00	0.00	0.00	1.102051	1.475586	0.989746	-98.349998	68.250000	1.330000	31.00	0.00	0.00	22.50	21.00	9.75	12.00	3.25	5.75	0.75	5.25	0.50	1.25	2.00	2.00	6.00	1.00	0.75	0.00	-0.147461	0.136719	0.977539	-1.330000	3.640000	-1.680000	1078.00	-0.23	-0.10
1.46	0.00	1.00	0.50	1.00	0.00	0.00	0.00	0.00	0.00	0.00	0.00	0.00	0.00	0.00	0.00	0.00	1.438965	1.320801	1.267578	-18.690001	43.400002	45.150002	28.00	0.00	0.00	21.75	20.50	9.75	11.75	3.25	6.00	0.75	5.75	0.50	1.50	2.00	2.00	6.25	1.25	0.75	0.25	-0.153809	0.142090	0.978516	-0.280000	4.690000	-1.470000	1082.00	-0.22	-0.10
1.47	0.00	0.75	0.00	0.25	0.00	0.00	0.00	0.00	0.00	0.00	0.00	0.00	0.00	0.00	0.00	0.00	1.343750	0.929199	1.029297	4.550000	13.580000	70.910004	11.00	0.00	0.00	21.00	19.75	9.50	11.75	3.25	6.00	0.75	5.75	0.50	1.75	2.25	2.25	7.00	1.00	0.75	0.25	-0.144531	0.139160	0.977051	-0.140000	6.300000	-1.540000	1076.00	-0.21	-0.11
1.48	0.00	0.00	0.00	0.00	0.00	0.00	0.00	0.00	0.00	0.00	0.00	0.00	0.00	0.00	0.00	0.00	1.292480	0.784180	0.946289	3.570000	-10.570000	89.669998	0.00	0.00	0.00	20.25	18.50	9.25	11.25	3.25	6.00	1.00	6.00	0.50	1.75	2.25	2.50	7.25	1.25	0.50	0.00	-0.142090	0.144531	0.966309	-1.330000	7.980000	-2.170000	1057.00	-0.21	-0.11
1.49	0.00	1.25	0.25	1.00	0.00	0.00	0.00	0.00	0.00	0.00	0.00	0.00	0.00	0.00	0.00	0.00	1.178223	0.680176	0.854980	8.680000	-27.930000	98.910004	28.00	0.00	0.00	19.25	17.50	9.00	11.00	3.25	5.75	0.75	6.00	0.50	1.75	2.50	2.50	7.25	1.25	0.75	0.00	-0.147949	0.138672	0.961426	-3.990000	9.100000	-3.220000	1028.00	-0.20	-0.11
1.50	0.00	0.50	0.00	0.50	0.00	0.00	0.00	0.00	0.00	0.00	0.00	0.00	0.00	0.00	0.00	0.00	1.119629	0.546387	0.925293	21.770000	-45.570000	100.099998	11.00	0.00	0.00	18.25	16.25	8.75	10.50	3.00	5.75	1.00	6.00	0.75	1.75	2.50	2.50	7.50	1.00	0.50	0.25	-0.159668	0.128906	0.973145	-4.620000	8.890000	-3.360000	999.00	-0.19	-0.11
1.51	0.00	0.00	0.00	0.00	0.00	0.00	0.00	0.00	0.00	0.50	0.25	0.25	0.00	0.00	0.00	0.00	1.006836	0.378906	1.002441	30.940001	-63.980000	97.160004	11.00	0.00	0.00	18.00	15.75	8.75	10.00	3.00	5.50	1.00	6.00	0.75	2.00	2.50	3.00	7.75	1.50	0.50	0.25	-0.162109	0.132812	0.970215	-4.900000	8.400000	-3.290000	998.00	-0.18	-0.11
1.52	0.00	1.75	0.50	1.25	0.00	0.00	0.00	0.25	0.50	0.50	0.50	0.75	0.00	0.50	0.75	0.00	0.866699	0.273926	1.006348	30.520000	-80.779999	91.279999	83.00	-0.02	-0.10	16.75	14.50	8.50	9.50	3.00	5.75	1.00	6.00	0.75	2.00	2.75	3.00	7.75	1.25	0.50	0.25	-0.154297	0.135742	0.958984	-4.830000	7.770000	-3.010000	965.00	-0.18	-0.12
1.53	0.00	1.00	0.00	1.00	0.00	0.00	0.00	0.00	0.00	0.00	0.00	0.00	0.00	0.00	0.00	0.00	0.716309	0.200195	1.000977	25.900000	-94.220001	83.300003	22.00	0.00	0.00	16.25	13.50	8.25	9.25	3.00	5.50	1.00	6.00	1.25	2.00	2.75	2.75	8.00	1.25	0.50	0.50	-0.160156	0.129883	0.956055	-4.620000	6.860000	-2.590000	949.00	-0.17	-0.12
1.54	0.00	0.25	0.00	1.00	0.00	0.00	0.00	0.00	0.00	0.00	0.00	0.00	0.00	0.00	0.50	0.25	0.446777	0.157715	1.206055	23.309999	-117.809998	64.889999	22.00	0.00	0.00	15.25	12.50	8.25	9.25	3.00	5.50	1.00	6.00	1.00	2.00	2.75	2.75	8.00	1.25	0.75	0.25	-0.152832	0.133301	0.958496	-5.180000	6.230000	-2.590000	925.00	-0.16	-0.12
1.55	0.00	1.50	0.75	1.75	0.00	0.50	0.00	0.75	1.00	1.00	0.75	0.50	0.25	0.50	0.75	0.00	0.329102	0.134766	1.305176	24.920000	-133.490005	56.630001	119.00	-0.00	-0.10	15.00	12.00	8.25	8.75	3.00	5.50	1.00	6.00	1.00	2.25	2.75	3.00	8.00	1.25	0.75	0.25	-0.158691	0.131836	0.956543	-6.090000	5.810000	-2.870000	917.00	-0.16	-0.12
1.56	0.00	0.00	0.00	0.50	0.00	0.00	0.00	0.00	0.00	0.25	0.00	0.00	0.00	0.50	0.50	0.25	0.197754	0.134766	1.348633	25.200001	-148.750000	49.560001	21.00	0.00	0.00	14.50	11.50	8.00	8.75	3.00	5.50	1.00	6.00	1.00	2.00	2.75	3.00	8.25	1.50	0.75	0.25	-0.157715	0.131348	0.956055	-6.860000	5.250000	-3.010000	905.00	-0.15	-0.12
1.57	0.00	0.00	0.00	0.25	0.00	0.00	0.00	0.00	0.00	0.00	0.00	0.00	0.00	0.00	0.00	0.00	0.053711	0.143555	1.339355	24.500000	-161.350006	43.959999	3.00	0.00	0.00	14.00	10.75	8.00	8.50	3.25	5.25	1.00	6.00	1.00	2.25	2.50	3.00	8.25	1.50	0.75	0.25	-0.156250	0.127441	0.957031	-7.140000	4.200000	-3.010000	889.00	-0.15	-0.12
1.58	0.00	0.00	0.00	0.00	0.00	0.00	0.00	0.00	0.00	0.00	0.00	0.00	0.00	0.00	0.00	0.00	-0.076172	0.166992	1.320312	25.059999	-170.029999	39.970001	0.00	0.00	0.00	13.75	10.25	8.00	8.25	3.00	5.25	1.25	6.00	1.25	2.50	2.75	3.00	8.50	1.50	0.75	0.00	-0.148926	0.134766	0.955566	-7.350000	3.290000	-3.220000	889.00	-0.14	-0.12
1.59	0.00	0.00	0.00	0.00	0.00	0.00	0.00	0.00	0.00	0.00	0.00	0.00	0.00	0.00	0.00	0.00	-0.203125	0.191895	1.303223	27.580000	-174.160004	37.450001	0.00	0.00	0.00	13.50	10.00	8.00	8.00	3.25	5.25	1.25	6.00	1.75	2.50	3.00	3.25	8.50	1.50	0.50	0.25	-0.153809	0.126953	0.937988	-7.560000	2.310000	-3.430000	895.00	-0.13	-0.12
1.60	0.00	0.00	0.00	0.00	0.00	0.00	0.00	0.00	0.00	0.00	0.00	0.00	0.00	0.00	0.00	0.00	-0.329590	0.218750	1.274902	30.940001	-173.949997	36.049999	0.00	0.00	0.00	13.25	9.50	7.75	8.00	3.25	5.25	1.25	6.00	1.75	2.25	3.00	3.50	8.75	1.75	1.00	0.25	-0.145508	0.127441	0.958984	-7.210000	1.610000	-3.360000	895.00	-0.13	-0.12
1.61	0.00	0.00	0.00	0.00	0.00	0.00	0.00	0.00	0.00	0.00	0.00	0.00	0.00	0.00	0.00	0.00	-0.431641	0.258789	1.251953	36.119999	-169.190002	35.840000	0.00	0.00	0.00	13.25	9.00	7.75	8.00	3.50	5.25	1.25	6.00	1.50	2.75	3.25	3.50	9.00	1.75	0.75	0.25	-0.155273	0.123047	0.951172	-6.720000	1.400000	-3.220000	897.00	-0.12	-0.12
1.62	0.00	0.00	0.00	0.00	0.00	0.00	0.00	0.00	0.00	0.00	0.00	0.00	0.00	0.00	0.00	0.00	-0.516602	0.295410	1.213379	43.259998	-160.649994	37.520000	0.00	0.00	0.00	13.00	8.75	7.75	7.75	3.50	5.25	1.25	6.25	1.75	2.75	3.25	3.75	9.25	2.00	1.00	0.50	-0.146973	0.130371	0.956543	-5.530000	1.540000	-3.010000	909.00	-0.11	-0.12
1.63	0.00	0.00	0.00	0.00	0.00	0.00	0.00	0.00	0.00	0.00	0.00	0.00	0.00	0.00	0.00	0.00	-0.587402	0.341309	1.159180	52.220001	-147.979996	40.950001	0.00	0.00	0.00	13.00	8.25	7.75	7.50	3.75	5.25	1.50	6.50	1.50	2.75	3.75	4.25	9.75	2.00	1.00	0.50	-0.154785	0.123047	0.958008	-5.180000	1.680000	-3.010000	925.00	-0.11	-0.12
1.64	0.00	0.00	0.00	0.00	0.00	0.00	0.00	0.00	0.00	0.00	0.00	0.00	0.00	0.00	0.00	0.00	-0.630371	0.380371	1.128418	61.670002	-131.529999	46.619999	0.00	0.00	0.00	11.50	8.00	7.75	7.25	3.75	5.25	1.50	6.50	2.25	3.25	3.75	4.50	10.00	2.25	1.00	0.75	-0.150879	0.128906	0.956543	-5.180000	2.240000	-3.290000	928.00	-0.09	-0.12
1.65	0.00	0.00	0.00	0.00	0.00	0.00	0.00	0.00	0.00	0.00	0.00	0.00	0.00	0.00	0.50	0.25	-0.681152	0.399414	1.132324	70.209999	-113.330002	54.529999	7.00	0.00	0.00	11.25	7.75	7.50	7.25	4.00	5.25	1.50	6.50	2.25	3.50	4.00	4.75	10.25	2.50	1.00	0.50	-0.149902	0.125488	0.958496	-5.040000	2.940000	-3.150000	934.00	-0.08	-0.12
1.66	0.00	0.25	0.00	0.50	0.00	0.75	0.00	0.25	0.75	0.25	0.00	0.00	0.00	0.00	0.00	0.00	-0.728027	0.387207	1.208984	75.110001	-96.320000	64.820000	35.00	0.00	0.00	11.00	7.25	7.25	7.00	4.25	5.00	1.75	6.50	3.00	3.75	5.25	5.50	10.50	2.50	1.25	0.75	-0.149902	0.126465	0.958008	-5.740000	4.130000	-3.360000	967.00	-0.06	-0.12
1.67	0.00	0.25	0.00	0.50	0.00	0.00	0.00	0.00	0.00	0.00	0.00	0.00	0.00	0.00	0.00	0.00	-0.763672	0.340820	1.274414	74.620003	-83.230003	76.930000	9.00	0.00	0.00	10.25	6.75	7.50	6.75	4.25	5.00	2.00	6.75	3.00	4.00	5.25	6.50	10.75	2.75	1.50	1.00	-0.157227	0.127441	0.955566	-7.280000	5.810000	-3.990000	986.00	-0.05	-0.12
1.68	0.00	1.00	0.25	1.75	0.00	0.50	0.00	0.25	1.00	0.75	0.50	0.00	0.00	0.50	0.50	0.25	-0.860352	0.211914	1.235352	66.220001	-71.260002	104.650002	85.00	-0.00	-0.07	9.50	6.25	7.00	6.25	4.25	5.00	2.50	6.75	3.50	4.25	6.00	7.00	10.75	3.25	1.50	1.25	-0.148438	0.131836	0.956543	-9.590000	7.700000	-4.690000	999.00	-0.03	-0.12
1.69	0.00	1.25	0.00	2.50	0.00	1.25	0.00	0.25	0.75	0.00	0.00	0.00	0.00	0.00	0.00	0.00	-0.957520	0.049316	1.203613	67.480003	-65.730003	118.440002	72.00	-0.19	-0.16	8.75	6.00	6.75	5.75	4.50	4.75	2.75	6.75	4.00	4.75	7.00	7.50	11.25	3.50	1.50	1.50	-0.149902	0.124023	0.949707	-11.060000	9.800000	-5.530000	1021.00	-0.01	-0.11
1.70	0.00	0.00	0.00	0.00	0.00	0.00	0.00	0.00	0.00	0.00	0.00	0.00	0.00	0.50	0.25	0.75	-1.057617	-0.152832	1.149902	62.930000	-57.959999	128.169998	12.00	0.00	0.00	8.00	5.50	6.50	5.50	4.50	4.50	3.00	6.75	4.75	5.75	7.75	7.75	11.50	4.25	1.75	1.75	-0.158691	0.125977	0.980469	-11.480000	12.110000	-6.370000	1050.00	0.01	-0.11
1.71	0.00	0.00	0.00	0.00	0.00	0.00	0.00	0.00	0.00	0.00	0.00	0.00	0.00	0.50	0.50	0.50	-1.148926	-0.345215	1.161133	46.200001	-49.139999	133.000000	13.00	0.00	0.00	7.00	5.00	6.25	4.75	4.25	4.00	3.75	6.75	5.75	6.75	8.00	8.25	11.75	4.75	2.00	2.00	-0.159668	0.119141	0.967285	-10.500000	14.980000	-6.720000	1071.00	0.03	-0.10
1.72	0.00	2.50	0.50	1.50	0.00	0.75	0.00	0.25	1.00	0.50	0.50	0.50	0.00	0.75	0.50	0.25	-1.266113	-0.481934	1.203613	15.120000	-46.270000	132.440002	108.00	-0.05	-0.09	6.75	4.50	5.75	4.25	4.00	3.50	3.75	6.75	6.25	7.50	8.50	8.50	12.00	5.50	2.00	2.50	-0.115723	0.100586	0.969727	-9.660000	18.410000	-7.140000	1079.00	0.05	-0.09
1.73	0.00	1.25	0.25	1.50	0.00	0.50	0.00	0.50	1.00	1.00	0.25	0.50	0.00	0.75	0.50	0.25	-1.356934	-0.439453	1.123047	-22.960001	-54.599998	125.090004	96.00	0.02	-0.08	5.75	3.00	5.25	3.25	3.50	2.75	4.00	6.50	7.00	8.25	8.75	8.75	12.25	6.00	2.50	2.75	-0.194824	0.116211	0.959473	-6.300000	26.040001	-9.170000	1058.00	0.07	-0.09
1.74	0.00	1.25	0.25	0.75	0.00	0.75	0.00	0.25	1.25	0.75	0.25	0.25	0.00	1.00	0.50	0.50	-1.672852	-0.323730	1.004883	-51.660000	-73.570000	107.870003	88.00	0.06	-0.04	5.50	2.25	4.25	2.75	3.25	2.25	4.25	6.50	7.50	8.75	9.50	9.25	12.50	7.00	2.75	3.25	-0.162598	0.104004	0.983398	-5.320000	30.870001	-9.520000	1070.00	0.10	-0.08
1.75	0.00	1.00	0.50	2.00	0.00	1.25	0.00	0.75	0.75	0.75	0.50	0.25	0.00	0.75	0.25	0.25	-2.102051	-0.246094	0.763184	-53.410000	-101.220001	82.599998	107.00	-0.04	-0.12	5.00	2.25	3.75	2.25	3.00	1.50	4.50	6.25	7.75	9.25	10.00	9.50	12.75	7.50	3.25	3.75	-0.229980	0.137695	1.023926	-7.770000	37.380001	-9.870000	1073.00	0.11	-0.08
1.76	0.00	1.00	0.50	1.50	0.00	1.00	0.00	0.50	0.75	1.00	0.50	0.50	0.25	0.75	0.75	0.25	-2.533691	-0.299805	0.305176	-30.380001	-128.449997	49.209999	107.00	0.02	-0.11	3.50	1.50	2.75	1.50	2.50	0.75	4.50	6.00	8.50	9.75	10.50	9.75	12.75	8.25	3.50	4.50	-0.174805	0.061035	0.984375	-11.970000	43.680000	-8.120000	1048.00	0.14	-0.08
1.77	0.00	1.00	0.25	1.50	0.00	0.75	0.00	0.75	0.50	1.00	0.50	0.25	0.25	0.75	0.50	0.25	-2.839355	-0.498047	-0.244141	4.550000	-138.320007	14.350000	96.00	0.01	-0.13	3.25	1.25	1.50	1.25	1.75	0.50	4.50	5.50	9.00	10.25	11.00	10.25	12.75	9.25	4.00	5.00	-0.163574	0.063477	1.002930	-16.379999	55.160000	-5.250000	1046.00	0.16	-0.07
1.78	0.00	0.75	0.50	1.50	0.00	1.00	0.00	0.25	1.25	1.00	0.50	0.50	0.00	1.00	0.50	0.75	-2.844238	-0.820312	-0.721191	25.620001	-113.470001	-13.160000	108.00	0.05	-0.06	2.75	1.25	1.50	1.00	1.75	0.00	4.25	5.25	9.25	10.50	11.25	10.50	12.75	10.25	4.50	5.25	-0.211426	0.229980	1.010254	-11.410000	71.050003	-4.410000	1052.00	0.18	-0.07
1.79	0.00	0.25	0.25	1.25	0.00	1.00	0.00	0.50	0.75	0.75	0.75	0.25	0.00	0.75	0.50	0.50	-2.609375	-1.021973	-0.995117	9.590000	-55.580002	-33.950001	87.00	0.06	-0.10	2.25	1.00	1.25	1.00	1.25	0.00	4.00	4.50	9.75	11.00	11.75	10.75	12.50	11.50	5.00	5.50	-0.209961	0.094238	1.004395	-5.880000	84.279999	-8.540000	1056.00	0.19	-0.07
1.80	0.00	2.50	1.00	2.00	0.00	0.75	0.00	0.25	0.75	0.50	0.50	0.50	0.25	0.75	0.75	0.50	-3.460449	0.416992	-1.869141	-43.889999	9.310000	-65.029999	123.00	-0.06	-0.11	2.25	1.25	1.00	0.50	1.00	0.00	3.50	3.25	10.00	11.50	12.00	10.75	12.50	13.00	5.25	6.00	-0.237305	0.110352	1.012695	-1.960000	97.160004	-10.780000	1049.00	0.20	-0.06
1.81	0.00	2.25	0.25	1.50	0.00	0.00	0.00	0.00	0.00	0.00	0.00	0.00	0.00	0.00	0.00	0.00	1.353516	0.342285	-0.508789	-52.709999	124.389999	-103.180000	44.00	0.00	0.00	1.75	0.75	0.75	0.25	0.75	0.00	2.75	2.50	10.50	12.00	12.50	10.75	12.00	14.25	5.50	6.50	-0.263184	0.096680	1.024902	1.050000	113.889999	-11.270000	1036.00	0.22	-0.05
1.82	0.00	3.00	0.25	1.25	0.00	0.00	0.00	0.00	0.00	0.00	0.00	0.00	0.00	0.00	0.00	0.00	-0.125977	0.521973	1.748047	-54.459999	152.110001	-128.380005	48.00	0.00	0.00	1.25	0.75	0.75	0.25	0.50	0.00	2.25	1.75	10.75	12.25	12.75	10.75	11.75	15.75	6.00	6.75	-0.279785	0.132812	1.104492	2.310000	141.820007	-12.740000	1035.00	0.23	-0.05
1.83	0.00	5.25	0.25	1.00	0.00	0.00	0.00	0.00	0.00	0.00	0.00	0.00	0.00	0.00	0.00	0.00	0.133301	0.752441	1.894531	-71.959999	127.680000	-120.400002	68.00	-0.39	-0.17	1.00	0.50	0.75	0.00	0.25	0.00	1.50	1.25	11.00	12.50	12.75	10.75	11.25	17.00	6.50	7.25	-0.320801	0.116211	1.143555	2.450000	175.279999	-16.240000	1025.00	0.25	-0.04
1.84	0.00	6.25	0.75	2.75	0.00	0.00	0.00	0.00	0.00	0.00	0.00	0.00	0.00	0.00	0.00	0.00	-0.582520	0.315430	1.479980	-45.920002	143.710007	-64.050003	105.00	-0.36	-0.16	1.00	0.50	0.50	0.00	0.25	0.00	1.00	0.75	11.00	12.50	12.50	10.50	10.50	17.75	7.00	7.50	-0.356445	0.162598	1.104492	6.090000	208.039993	-21.210001	1007.00	0.26	-0.04
1.85	0.00	8.25	1.75	4.00	0.00	0.00	0.00	0.00	0.00	0.00	0.00	0.00	0.00	0.00	0.00	0.00	-0.748535	0.371582	1.854980	-11.620000	197.889999	-49.840000	152.00	-0.35	-0.15	0.75	0.50	0.25	0.00	0.25	0.00	0.25	0.50	11.00	12.75	12.50	10.25	10.00	18.50	7.00	7.25	-0.381836	0.088867	1.132812	-2.870000	235.270004	-25.760000	985.00	0.26	-0.03
1.86	0.00	9.50	2.50	5.50	0.00	0.00	0.00	0.00	0.00	0.00	0.00	0.00	0.00	0.00	0.00	0.00	-0.462891	0.435059	1.591309	11.760000	197.539993	-31.150000	192.00	-0.35	-0.15	1.00	0.25	0.00	0.00	0.25	0.00	0.00	0.25	11.00	12.50	12.25	9.75	8.75	19.00	7.25	7.25	-0.395020	0.154297	1.255371	-25.620001	260.399994	-34.230000	958.00	0.27	-0.03
1.87	0.00	10.50	3.25	6.75	0.00	0.00	0.00	0.00	0.00	0.00	0.00	0.00	0.00	0.00	0.00	0.00	-0.992676	0.094238	4.611816	-66.919998	200.199997	-22.610001	226.00	-0.34	-0.14	0.75	0.00	0.00	0.00	0.00	0.00	0.00	0.00	10.75	12.50	12.00	9.25	7.75	19.50	7.25	7.00	-0.513184	0.141602	1.169434	-35.560001	281.470001	-39.900002	927.00	0.28	-0.02
1.88	0.00	11.00	5.00	7.75	0.00	2.00	0.00	0.50	0.00	0.00	0.00	0.50	0.00	0.00	0.00	0.25	-0.512695	0.384277	1.679688	-40.740002	128.169998	-8.400000	304.00	-0.30	-0.15	0.50	0.00	0.00	0.00	0.25	0.00	0.00	0.00	10.50	12.25	11.50	8.75	6.75	19.25	7.25	6.75	-0.561523	0.154297	1.217285	-50.119999	309.890015	-47.110001	896.00	0.28	-0.01
1.89	0.00	11.50	5.25	8.25	0.00	1.50	0.00	0.75	0.00	0.00	0.25	0.50	0.00	0.00	0.00	0.00	-0.351562	0.097656	1.348145	-49.349998	95.620003	-1.330000	318.00	-0.30	-0.15	0.50	0.00	0.00	0.00	0.00	0.00	0.00	0.00	10.25	12.00	11.00	8.00	5.00	19.00	7.00	6.25	-0.657715	0.238281	1.536621	-58.170002	331.799988	-54.180000	848.00	0.29	-0.00
1.90	0.00	11.75	6.50	8.50	0.00	2.25	0.00	1.25	0.00	0.00	0.25	0.75	0.50	0.00	0.00	0.00	-0.318359	0.100098	1.449707	-48.230000	75.250000	0.700000	364.00	-0.28	-0.15	0.25	0.00	0.00	0.00	0.00	0.00	0.00	0.00	9.50	11.50	10.25	7.25	2.75	18.25	6.75	5.75	-0.726074	0.227539	1.435547	-65.519997	357.839996	-62.930000	777.00	0.29	0.01
1.91	0.00	12.00	6.25	8.50	0.00	2.50	0.00	1.50	0.00	0.25	0.25	1.00	1.00	0.00	0.00	0.00	-0.264160	0.106445	1.105957	-30.520000	45.430000	0.700000	381.00	-0.26	-0.16	0.00	0.00	0.00	0.00	0.00	0.00	0.25	0.00	8.50	10.75	9.50	5.75	1.75	17.25	5.75	4.25	-0.785156	0.258301	1.661133	-71.540001	383.040009	-71.120003	691.00	0.30	0.03
1.92	0.00	12.50	7.25	9.00	0.50	3.75	0.00	2.75	0.50	0.75	1.25	1.25	2.50	0.75	0.75	0.75	-0.224121	0.161133	1.007324	-21.000000	34.930000	2.100000	507.00	-0.18	-0.16	0.00	0.00	0.00	0.00	0.00	0.00	0.25	0.00	7.50	9.75	8.50	4.50	0.50	15.75	5.25	2.25	-1.190430	0.185547	1.862793	-84.980003	409.360016	-81.620003	596.00	0.30	0.04
1.93	0.00	12.50	7.25	9.25	0.25	4.50	0.00	3.25	0.50	0.75	1.00	1.75	2.75	0.75	0.75	0.75	-0.224121	0.167969	0.987793	-14.420000	28.770000	3.850000	529.00	-0.18	-0.17	0.00	0.00	0.00	0.00	0.00	0.00	0.25	0.00	6.00	8.75	7.50	3.75	0.00	13.50	3.50	1.00	-1.444824	0.378906	2.409668	-39.410000	409.149994	-73.150002	490.00	0.30	0.05
1.94	0.00	15.25	8.50	10.50	0.75	5.50	0.00	4.75	1.25	1.25	1.75	2.00	4.25	1.50	1.00	0.50	-0.226074	0.157227	0.967285	-10.290000	21.280001	3.920000	680.00	-0.15	-0.17	0.00	0.00	0.00	0.00	0.00	0.00	0.25	0.00	4.50	8.00	6.25	3.00	0.00	10.75	2.50	0.00	-1.416504	-0.179199	2.533691	-39.200001	415.309998	-87.150002	394.00	0.29	0.05
1.95	0.00	15.50	8.75	10.50	1.00	5.75	0.00	5.25	1.00	1.50	1.75	2.25	5.00	1.50	1.00	0.75	-0.211426	0.176270	0.953613	-10.150000	16.030001	2.940000	711.00	-0.15	-0.17	0.00	0.00	0.00	0.00	0.00	0.00	0.00	0.00	3.50	7.00	4.75	2.50	0.00	8.50	1.00	0.00	-1.543457	0.186035	3.016602	-24.780001	405.649994	-75.599998	303.00	0.29	0.06
1.96	0.00	15.50	8.75	10.75	0.75	6.25	0.00	5.50	1.00	1.00	1.50	2.00	4.50	1.00	0.50	0.25	-0.204102	0.177734	0.930176	-11.340000	13.370000	2.170000	692.00	-0.17	-0.18	0.00	0.00	0.00	0.00	0.00	0.00	0.00	0.00	2.25	5.75	4.25	2.25	0.00	6.75	0.75	0.00	-1.008789	0.012207	2.157715	-4.270000	394.799988	-74.970001	243.00	0.29	0.04
1.97	0.00	12.75	7.50	9.50	0.25	5.25	0.00	5.25	0.00	0.25	1.00	1.50	4.00	0.25	0.00	0.25	-0.202148	0.160156	0.936035	-14.350000	12.670000	1.470000	560.00	-0.19	-0.20	0.00	0.00	0.00	0.00	0.00	0.00	0.00	0.00	1.25	4.50	3.00	1.75	0.00	5.00	2.00	0.75	-0.608398	0.575195	2.239258	-7.910000	381.500000	-83.510002	197.00	0.30	0.02
1.98	0.00	12.75	7.75	9.50	0.25	5.75	0.00	5.50	0.00	0.50	1.25	1.50	4.25	0.25	0.00	0.50	-0.199707	0.156738	0.958496	-17.360001	11.760000	0.840000	583.00	-0.18	-0.20	1.25	0.50	0.00	0.00	0.00	0.25	0.00	0.00	0.25	3.25	2.25	1.25	4.75	3.25	1.75	0.25	-0.216309	0.270020	2.123047	-10.500000	311.850006	-80.430000	199.00	0.20	-0.11
1.99	0.00	13.00	7.75	9.75	0.50	6.00	0.00	6.25	0.00	1.00	1.25	1.75	5.25	0.25	0.25	0.25	-0.211426	0.156738	0.957520	-17.850000	9.450000	0.350000	626.00	-0.17	-0.21	0.00	0.00	0.00	0.00	0.00	0.00	0.00	0.00	0.00	2.25	1.00	0.50	0.00	0.00	0.00	0.00	0.195312	0.464844	1.998535	-45.500000	250.180008	-76.650002	43.00	0.00	0.00
2.00	0.00	12.75	8.00	9.75	0.50	7.00	0.00	7.00	0.00	0.75	1.25	1.75	5.50	0.25	0.00	0.75	-0.215820	0.151855	0.951660	-15.750000	7.840000	0.490000	650.00	-0.16	-0.21	0.75	0.00	0.00	0.00	0.00	0.00	0.00	0.00	0.00	1.00	0.75	0.00	0.00	0.00	0.00	0.00	1.642090	0.539062	2.151855	-79.519997	201.949997	-70.769997	28.00	0.00	0.00
2.01	0.00	13.00	8.25	10.25	0.50	7.00	0.00	7.25	0.00	0.75	1.50	2.00	6.25	0.25	0.00	0.50	-0.214844	0.145508	0.960449	-13.860000	6.860000	0.560000	678.00	-0.16	-0.22	0.25	0.00	0.00	0.00	0.00	0.00	0.00	0.00	0.00	1.00	0.75	0.00	0.00	0.00	0.00	0.00	0.040039	1.352539	2.555664	-71.959999	174.860001	-50.820000	23.00	0.00	0.00
2.02	0.00	12.50	8.00	9.75	0.50	7.50	0.00	7.50	0.00	1.00	1.75	2.00	6.75	0.25	0.25	0.25	-0.216797	0.152344	0.953125	-12.040000	6.440000	0.490000	685.00	-0.15	-0.22	0.25	0.25	0.00	0.00	0.00	0.00	0.00	0.00	0.00	0.50	0.50	0.00	0.00	0.00	0.00	0.00	0.816895	0.881836	3.139648	-76.300003	32.619999	-12.950000	17.00	0.00	0.00
2.03	0.00	12.50	8.00	9.75	0.50	7.50	0.00	7.75	0.00	1.25	1.75	2.25	7.50	0.25	0.25	0.75	-0.219238	0.152832	0.964844	-10.080000	7.140000	0.350000	705.00	-0.14	-0.22	0.25	0.00	0.00	0.00	0.00	0.00	0.00	0.00	0.00	0.25	0.75	0.00	0.00	0.00	0.00	0.00	1.071777	0.522461	1.696289	-77.349998	-81.410004	23.240000	14.00	0.00	0.00
2.04	0.00	12.25	8.00	9.75	0.50	7.75	0.00	7.75	0.25	1.25	1.75	2.50	8.00	0.50	0.00	0.75	-0.221680	0.154785	0.959961	-8.470000	7.910000	0.140000	716.00	-0.13	-0.22	0.00	0.00	0.00	0.00	0.00	0.00	0.00	0.00	0.00	0.25	0.25	0.00	0.00	0.00	0.00	0.00	0.627441	0.486816	1.120605	-102.760002	-125.160004	44.799999	6.00	0.00	0.00
2.05	0.00	12.00	7.75	9.75	0.50	7.75	0.00	8.00	0.00	1.25	2.00	2.75	8.00	0.50	0.25	0.75	-0.210449	0.148926	0.945801	-7.770000	8.470000	0.070000	720.00	-0.13	-0.22	0.00	0.00	0.00	0.00	0.00	0.00	0.00	0.00	0.00	0.50	0.25	0.00	0.00	0.00	0.00	0.00	0.546387	0.491211	0.758789	-110.529999	-136.360001	61.320000	9.00	0.00	0.00
2.06	0.00	11.75	7.75	9.50	0.75	7.75	0.00	8.00	0.00	1.25	2.25	2.75	8.50	1.00	0.00	0.75	-0.218262	0.155273	0.947754	-7.350000	8.820000	-0.210000	727.00	-0.12	-0.22	0.00	0.00	0.00	0.00	0.00	0.00	0.00	0.00	0.00	0.00	0.25	0.00	0.00	0.00	0.00	0.00	0.621582	0.491211	0.501953	-101.290001	-134.050003	71.750000	3.00	0.00	0.00
2.07	0.00	11.50	7.75	9.50	0.75	7.75	0.00	8.25	0.00	1.25	2.00	3.00	8.75	0.25	0.25	0.75	-0.212891	0.148926	0.955566	-7.350000	9.170000	-0.630000	727.00	-0.12	-0.23	0.25	0.00	0.00	0.00	0.00	0.00	0.00	0.00	0.00	0.00	0.25	0.00	0.00	0.00	0.00	0.00	0.530273	0.453613	0.582031	-86.519997	-130.830002	75.459999	6.00	0.00	0.00
2.08	0.00	11.50	7.75	9.25	0.75	7.75	0.00	8.25	0.00	1.75	2.00	3.25	8.75	0.25	0.25	1.00	-0.218750	0.142578	0.941406	-7.840000	9.310000	-1.050000	734.00	-0.12	-0.23	0.00	0.00	0.00	0.00	0.00	0.00	0.00	0.00	0.00	0.00	0.25	0.00	0.00	0.00	0.00	0.00	0.461914	0.377930	0.711426	-70.139999	-135.729996	77.279999	3.00	0.00	0.00
2.09	0.00	11.25	7.50	9.50	0.75	8.00	0.00	8.25	0.00	1.75	2.00	3.25	9.25	0.75	0.25	0.25	-0.223145	0.147461	0.940918	-8.190000	8.890000	-1.260000	739.00	-0.11	-0.23	0.00	0.00	0.00	0.00	0.00	0.00	0.00	0.00	0.00	0.00	0.00	0.00	0.00	0.00	0.00	0.00	0.402832	0.214844	0.940430	-66.430000	-164.570007	75.110001	0.00	0.00	0.00
2.10	0.00	11.00	7.50	9.25	1.00	8.00	0.00	8.25	0.25	1.75	2.25	3.50	9.25	0.75	0.50	0.75	-0.222656	0.141602	0.952148	-8.260000	8.400000	-1.540000	752.00	-0.10	-0.22	0.25	0.00	0.00	0.00	0.00	0.00	0.00	0.00	0.00	0.00	0.00	0.00	0.00	0.00	0.00	0.00	0.327637	0.235840	1.020996	-73.290001	-187.389999	70.980003	3.00	0.00	0.00
2.11	0.00	10.75	7.50	9.25	1.00	8.00	0.00	8.50	0.50	2.00	2.50	3.75	9.75	0.50	0.50	1.00	-0.216797	0.140625	0.942871	-8.330000	8.050000	-1.680000	769.00	-0.10	-0.22	0.25	0.00	0.00	0.00	0.00	0.00	0.00	0.00	0.00	0.00	0.00	0.00	0.00	0.00	0.00	0.00	0.267090	0.290527	1.029297	-75.739998	-212.520004	64.540001	3.00	0.00	0.00
2.12	0.00	10.25	7.50	9.00	1.00	8.00	0.00	8.50	0.25	2.00	2.50	4.00	9.75	0.75	0.50	0.75	-0.227539	0.144043	0.949707	-8.260000	7.980000	-1.610000	762.00	-0.09	-0.23	0.00	0.00	0.00	0.00	0.00	0.00	0.00	0.00	0.00	0.00	0.00	0.00	0.00	0.00	0.00	0.00	0.168457	0.339355	1.015625	-69.370003	-236.740005	55.160000	0.00	0.00	0.00
2.13	0.00	10.00	7.25	9.00	1.00	7.75	0.00	8.25	0.25	2.00	2.75	4.00	9.75	0.75	0.25	1.00	-0.223145	0.138672	0.952637	-7.910000	7.980000	-1.540000	750.00	-0.09	-0.23	0.00	0.00	0.00	0.00	0.00	0.00	0.00	0.00	0.00	0.00	0.00	0.00	0.00	0.00	0.00	0.00	0.067871	0.345215	0.982422	-57.260002	-257.320007	44.170002	0.00	0.00	0.00
2.14	0.00	9.75	7.25	9.00	1.00	7.75	0.00	8.50	0.50	2.25	2.75	4.50	10.00	1.00	0.50	1.25	-0.226562	0.135742	0.950684	-6.370000	7.840000	-1.190000	773.00	-0.08	-0.22	0.00	0.00	0.00	0.00	0.00	0.00	0.00	0.00	0.00	0.00	0.00	0.00	0.00	0.00	0.00	0.00	-0.035156	0.333496	0.953125	-45.920002	-273.000000	32.970001	0.00	0.00	0.00
2.15	0.00	9.75	7.00	8.75	1.00	7.75	0.00	8.50	0.75	2.25	2.75	4.75	10.00	0.75	0.75	1.00	-0.228027	0.136719	0.936035	-5.320000	8.050000	-0.980000	773.00	-0.08	-0.22	0.00	0.00	0.00	0.00	0.00	0.00	0.00	0.00	0.00	0.00	0.00	0.00	0.00	0.00	0.00	0.00	-0.127930	0.328613	0.947754	-40.180000	-283.920013	22.820000	0.00	0.00	0.00
2.16	0.00	9.50	7.25	9.25	1.25	8.25	0.00	8.75	1.00	2.50	3.25	5.50	10.50	0.75	0.50	1.25	-0.210449	0.136230	0.937012	-4.200000	8.610000	-1.120000	816.00	-0.07	-0.22	0.00	0.00	0.00	0.00	0.00	0.00	0.00	0.00	0.00	0.00	0.00	0.00	0.00	0.00	0.00	0.00	-0.217773	0.369629	0.954102	-38.709999	-292.529999	14.770000	0.00	0.00	0.00
2.17	0.00	9.00	6.50	8.50	1.00	7.75	0.00	8.50	0.75	2.25	3.25	5.75	10.50	1.00	0.50	1.25	-0.214844	0.132812	0.938965	-3.290000	9.660000	-1.400000	779.00	-0.06	-0.23	0.25	0.00	0.00	0.00	0.00	0.00	0.00	0.00	0.00	0.00	0.00	0.00	0.00	0.00	0.00	0.00	-0.298828	0.437012	0.976562	-36.820000	-299.320007	8.890000	3.00	0.00	0.00
2.18	0.00	8.50	6.25	8.50	1.00	7.75	0.00	9.00	1.25	2.50	3.75	6.75	11.00	1.50	0.50	1.50	-0.219238	0.133301	0.947266	-2.450000	10.850000	-1.750000	817.00	-0.04	-0.22	0.00	0.00	0.00	0.00	0.00	0.00	0.00	0.00	0.00	0.00	0.00	0.00	0.00	0.00	0.00	0.00	-0.360840	0.517578	0.990234	-30.590000	-304.779999	4.830000	0.00	0.00	0.00
2.19	0.00	8.50	6.50	8.25	1.25	7.50	0.00	8.75	1.00	2.50	3.75	7.00	11.00	1.25	0.50	1.50	-0.226562	0.132812	0.945312	-1.470000	11.900000	-1.890000	810.00	-0.05	-0.22	0.00	0.00	0.00	0.00	0.00	0.00	0.00	0.00	0.00	0.00	0.00	0.00	0.00	0.00	0.00	0.00	-0.433594	0.581055	1.038574	-18.900000	-309.190002	3.290000	0.00	0.00	0.00
2.20	0.00	7.75	6.50	8.25	1.50	7.75	0.00	8.75	1.00	2.75	4.00	7.50	11.25	1.25	0.50	1.50	-0.225586	0.135742	0.942383	-0.490000	12.670000	-2.380000	822.00	-0.04	-0.22	0.00	0.00	0.00	0.00	0.00	0.00	0.00	0.00	0.00	0.00	0.00	0.00	0.00	0.00	0.00	0.00	-0.499023	0.629395	1.114746	-5.110000	-312.130005	4.410000	0.00	0.00	0.00
2.21	0.00	7.75	6.25	8.25	1.25	7.75	0.00	9.00	1.75	2.75	4.25	7.75	12.00	1.50	0.50	1.75	-0.247070	0.133301	0.939453	0.770000	12.810000	-2.940000	848.00	-0.03	-0.22	0.25	0.00	0.00	0.00	0.00	0.00	0.00	0.00	0.00	0.00	0.00	0.00	0.00	0.00	0.00	0.00	-0.558594	0.673828	1.169922	8.120000	-313.809998	9.170000	3.00	0.00	0.00
2.22	0.00	7.25	6.00	8.00	1.25	7.75	0.00	9.25	2.00	3.00	5.00	8.00	12.25	1.50	0.75	2.00	-0.237305	0.136719	0.944336	1.400000	12.880000	-2.800000	866.00	-0.02	-0.22	0.00	0.00	0.00	0.00	0.00	0.00	0.00	0.00	0.00	0.00	0.00	0.00	0.00	0.00	0.00	0.00	-0.680664	0.724121	1.396973	34.509998	-314.929993	25.969999	0.00	0.00	0.00
2.23	0.00	6.25	4.50	7.50	1.00	7.00	0.00	9.00	1.75	3.00	5.50	8.50	12.50	1.75	0.75	2.00	-0.229980	0.130859	0.950684	2.310000	13.580000	-2.170000	828.00	0.00	-0.23	0.25	0.00	0.00	0.00	0.00	0.00	0.00	0.00	0.00	0.00	0.00	0.00	0.00	0.00	0.00	0.00	-0.760742	0.719727	1.539062	50.959999	-315.700012	34.860001	3.00	0.00	0.00
2.24	0.00	6.00	5.25	7.50	1.00	7.50	0.00	9.50	2.25	3.25	6.50	8.75	13.00	2.00	1.00	2.50	-0.237305	0.140625	0.944824	3.920000	14.490000	-1.750000	886.00	0.01	-0.22	0.00	0.00	0.00	0.00	0.00	0.00	0.00	0.00	0.00	0.00	0.00	0.00	0.00	0.00	0.00	0.00	-0.834961	0.677246	1.659180	66.360001	-315.839996	43.330002	0.00	0.00	0.00
2.25	0.00	5.00	4.00	6.25	0.75	6.75	0.00	9.25	1.75	4.00	7.25	9.00	12.75	2.25	1.25	3.00	-0.230469	0.141113	0.941895	5.670000	15.400000	-1.260000	848.00	0.03	-0.23	0.00	0.00	0.00	0.00	0.00	0.00	0.00	0.00	0.00	0.00	0.00	0.00	0.00	0.00	0.00	0.00	-0.914551	0.665039	1.781250	77.840004	-314.230011	50.959999	0.00	0.00	0.00
2.26	0.00	5.50	3.75	6.50	1.00	6.50	0.00	9.25	2.50	3.75	7.50	9.25	13.25	2.25	1.00	3.25	-0.244141	0.134277	0.937500	7.210000	16.450001	-1.050000	870.00	0.03	-0.22	0.00	0.00	0.00	0.00	0.00	0.00	0.00	0.00	0.00	0.00	0.00	0.00	0.00	0.00	0.00	0.00	-0.984863	0.650391	1.926758	88.199997	-311.360016	57.959999	0.00	0.00	0.00
2.27	0.00	3.00	2.25	5.25	0.50	6.25	0.00	9.50	2.75	3.25	8.00	9.75	13.50	2.50	1.00	3.50	-0.239746	0.140625	0.938477	7.980000	17.710001	-0.210000	822.00	0.07	-0.23	0.00	0.00	0.00	0.00	0.00	0.00	0.00	0.00	0.00	0.00	0.00	0.00	0.00	0.00	0.00	0.00	-1.077637	0.642090	2.060547	99.959999	-309.190002	62.720001	0.00	0.00	0.00
2.28	0.00	2.75	2.50	5.25	0.50	5.75	0.00	9.50	2.50	4.00	8.50	10.25	14.00	3.00	1.25	4.00	-0.256836	0.150879	0.938965	10.500000	19.670000	0.070000	849.00	0.08	-0.23	0.00	0.00	0.00	0.00	0.00	0.00	0.00	0.00	0.00	0.00	0.00	0.00	0.00	0.00	0.00	0.00	-1.203613	0.603516	2.204102	115.709999	-308.489990	65.519997	0.00	0.00	0.00
2.29	0.00	1.00	3.00	3.50	0.25	5.50	0.00	9.75	2.75	4.75	9.00	10.50	14.25	3.00	1.25	4.50	-0.257324	0.143555	0.935059	10.500000	20.930000	-0.140000	840.00	0.10	-0.23	0.00	0.00	0.00	0.00	0.00	0.00	0.00	0.00	0.00	0.00	0.00	0.00	0.00	0.00	0.00	0.00	-1.369629	0.564941	2.276367	133.350006	-308.700012	65.800003	0.00	0.00	0.00
2.30	0.00	1.25	1.00	3.25	0.25	5.50	0.00	9.75	3.50	5.00	9.25	11.00	14.75	4.00	1.75	5.25	-0.256348	0.145020	0.942383	11.130000	23.030001	-0.700000	862.00	0.12	-0.22	0.00	0.00	0.00	0.00	0.00	0.00	0.00	0.00	0.00	0.00	0.00	0.00	0.00	0.00	0.00	0.00	-1.589355	0.520996	2.267090	152.039993	-307.649994	65.029999	0.00	0.00	0.00
2.31	0.00	1.50	0.50	2.50	0.00	4.75	0.00	9.75	3.25	5.00	9.75	11.50	15.25	4.50	1.75	5.75	-0.240234	0.161621	0.932617	15.120000	27.930000	-2.380000	857.00	0.13	-0.23	0.00	0.00	0.00	0.00	0.00	0.00	0.00	0.00	0.00	0.00	0.00	0.00	0.00	0.00	0.00	0.00	-1.863770	0.466309	2.150879	168.490005	-302.329987	64.120003	0.00	0.00	0.00
2.32	0.00	1.25	0.00	2.50	0.00	4.25	0.00	9.75	4.00	5.75	10.25	11.75	15.50	4.25	2.00	6.25	-0.250977	0.161133	0.955078	19.110001	33.670002	-4.760000	877.00	0.14	-0.22	0.00	0.00	0.00	0.00	0.00	0.00	0.00	0.00	0.00	0.00	0.00	0.00	0.00	0.00	0.00	0.00	-2.151855	0.395020	2.095703	177.660004	-293.019989	63.840000	0.00	0.00	0.00
2.33	0.00	0.50	0.00	2.00	0.00	3.75	0.00	9.75	4.50	6.50	10.75	12.25	15.75	4.75	2.50	6.50	-0.266602	0.164062	0.952637	21.490000	42.000000	-5.530000	899.00	0.16	-0.21	0.00	0.00	0.00	0.00	0.00	0.00	0.00	0.00	0.00	0.00	0.00	0.00	0.00	0.00	0.00	0.00	-2.665039	0.257812	1.809570	152.180008	-279.089996	64.959999	0.00	0.00	0.00
2.34	0.00	0.00	0.25	1.75	0.00	2.25	0.00	9.75	4.25	7.25	11.25	12.50	16.75	5.50	2.75	7.00	-0.223145	0.157715	0.960449	24.360001	51.450001	-6.300000	911.00	0.17	-0.21	0.00	0.00	0.00	0.00	0.00	0.00	0.00	0.00	0.00	0.00	0.00	0.00	0.00	0.00	0.00	0.00	-2.716797	0.175781	1.376465	131.460007	-269.779999	63.000000	0.00	0.00	0.00
2.35	0.00	1.25	0.00	1.50	0.00	2.50	0.00	9.75	5.00	7.75	11.50	13.00	16.50	6.00	3.25	7.25	-0.277344	0.139648	0.971680	21.910000	62.930000	-4.970000	956.00	0.17	-0.20	0.00	0.00	0.00	0.00	0.00	0.00	0.00	0.00	0.00	0.00	0.00	0.00	0.00	0.00	0.00	0.00	-2.663086	0.062988	0.869629	128.520004	-251.440002	56.349998	0.00	0.00	0.00
2.36	0.00	0.25	0.00	1.50	0.00	2.00	0.00	9.50	5.00	7.75	12.00	13.25	17.25	7.00	3.50	7.50	-0.298828	0.188477	0.963379	25.549999	75.110001	-5.110000	965.00	0.18	-0.20	0.00	0.00	0.00	0.00	0.00	0.00	0.00	0.00	0.00	0.00	0.00	0.00	0.00	0.00	0.00	0.00	-2.750488	-0.322266	-0.200195	148.960007	-228.759995	40.880001	0.00	0.00	0.00
2.37	0.00	0.50	0.25	2.00	0.00	1.50	0.00	9.25	5.25	8.00	12.25	13.25	17.00	7.25	3.75	8.00	-0.312012	0.185547	0.987305	32.340000	89.809998	-3.570000	981.00	0.18	-0.19	0.00	0.00	0.00	0.00	0.00	0.00	0.00	0.00	0.00	0.00	0.00	0.00	0.00	0.00	0.00	0.00	-4.075195	-0.757812	0.216309	263.829987	-196.699997	48.369999	0.00	0.00	0.00
2.38	0.00	1.00	0.00	1.75	0.00	1.25	0.00	8.75	5.25	8.25	12.50	13.75	17.00	8.00	4.25	8.25	-0.295898	0.182617	0.974121	39.410000	106.959999	-2.870000	995.00	0.19	-0.19	0.00	0.00	0.00	0.00	0.00	0.00	0.00	0.00	0.00	0.00	0.00	0.00	0.00	0.00	0.00	0.00	-5.058105	-1.960938	-0.283203	298.410004	-158.550003	65.449997	0.00	0.00	0.00
2.39	0.00	0.50	0.00	1.75	0.00	1.25	0.00	8.50	5.25	8.50	12.75	13.75	17.00	8.75	4.00	8.25	-0.336426	0.174805	0.985840	41.790001	120.959999	-3.500000	995.00	0.19	-0.18	0.00	0.00	0.00	0.00	0.00	0.00	0.00	0.00	0.00	0.00	0.00	0.00	0.00	0.00	0.00	0.00	-4.297852	-2.472168	-1.165527	168.630005	-81.480003	52.639999	0.00	0.00	0.00
2.40	0.00	0.25	0.00	1.50	0.00	0.25	0.00	8.00	5.25	8.50	13.00	14.00	17.00	9.50	5.00	8.50	-0.367676	0.215332	1.002930	42.840000	133.839996	-4.480000	995.00	0.21	-0.18	0.00	0.00	0.00	0.00	0.00	0.00	0.00	0.00	0.00	0.00	0.00	0.00	0.00	0.00	0.00	0.00	-5.357910	-2.642578	-1.697266	-44.660000	-14.630000	7.560000	0.00	0.00	0.00
2.41	0.00	0.00	0.00	1.00	0.00	0.00	0.00	7.50	5.25	8.75	13.25	13.75	16.75	10.50	5.75	9.00	-0.393555	0.228027	0.981445	48.860001	154.000000	-7.210000	997.00	0.22	-0.17	1.00	0.00	0.00	0.00	0.00	0.00	0.00	0.00	0.00	0.00	0.00	0.00	0.00	0.00	0.00	0.00	-2.361816	-1.701172	-1.520508	-196.559998	139.160004	-25.969999	11.00	0.00	0.00
2.42	0.00	0.00	0.00	1.00	0.00	0.00	0.00	6.75	5.25	8.75	13.50	13.75	16.50	11.25	5.50	9.00	-0.423340	0.239746	1.015137	55.160000	178.990005	-10.780000	989.00	0.22	-0.16	1.75	1.00	0.25	0.00	0.00	0.00	0.00	0.00	0.00	0.00	0.00	0.00	0.00	0.00	0.00	0.00	-0.151855	-0.169434	1.012207	-262.920013	268.799988	-68.739998	33.00	0.00	0.00
2.43	0.00	0.75	0.00	0.75	0.00	0.25	0.00	5.75	4.50	8.75	13.25	13.75	16.00	12.00	6.00	9.25	-0.458008	0.272949	1.028320	58.730000	207.130005	-15.610000	975.00	0.23	-0.16	4.00	2.00	0.75	0.00	0.00	0.00	0.00	0.00	0.00	0.00	0.00	0.00	0.00	0.00	0.00	0.00	0.166016	0.689453	3.278320	-203.839996	256.200012	-56.630001	75.00	-0.39	0.03
2.44	0.00	1.75	0.00	0.50	0.00	0.00	0.00	5.75	4.00	8.75	13.25	13.50	15.50	13.00	6.25	9.50	-0.495117	0.293945	1.132324	65.730003	258.089996	-27.650000	978.00	0.22	-0.16	5.25	4.50	0.75	0.50	0.00	0.00	0.00	0.00	0.00	0.00	0.00	0.00	0.00	0.00	0.00	0.00	0.113770	0.266602	2.460938	-118.440002	152.110001	-9.520000	120.00	-0.39	-0.01
2.45	0.00	0.00	0.00	0.75	0.00	0.00	0.00	5.00	4.75	8.75	13.00	13.25	14.75	13.50	6.50	10.25	-0.567871	0.220703	1.325195	64.959999	281.610016	-31.850000	961.00	0.24	-0.14	9.00	8.00	1.75	1.50	0.00	0.00	0.00	0.00	0.00	0.00	0.00	0.00	0.00	0.00	0.00	0.00	-0.069824	-0.216309	1.066895	-62.790001	75.809998	16.660000	222.00	-0.39	-0.02
2.46	0.00	0.00	0.00	1.00	0.00	0.00	0.00	5.50	5.00	9.25	13.75	14.00	13.75	13.75	6.50	9.25	-0.621094	0.354004	1.254883	55.369999	302.679993	-35.070000	986.00	0.24	-0.14	13.75	12.50	2.75	3.50	0.00	0.00	0.00	0.00	0.00	0.00	0.00	0.00	0.00	0.00	0.00	0.00	-0.495117	-0.595703	1.990723	-52.709999	205.029999	-54.880001	357.00	-0.38	-0.03
2.47	0.00	0.00	0.00	0.50	0.00	0.00	0.00	4.25	2.25	8.25	12.25	12.25	12.75	13.75	6.50	9.25	-0.666992	0.354004	1.230469	47.320000	332.079987	-40.740002	862.00	0.25	-0.15	18.50	16.25	4.75	5.00	0.00	0.00	0.00	0.00	0.00	0.00	0.00	0.00	0.00	0.00	0.00	0.00	-0.473145	0.248047	2.617188	-20.230000	216.089996	-77.000000	491.00	-0.38	-0.03
2.48	0.00	0.00	0.00	1.25	0.25	1.25	0.00	4.50	3.75	8.25	12.50	12.25	12.25	14.50	6.00	8.75	-0.948242	0.509766	1.331055	38.500000	367.640015	-46.900002	911.00	0.23	-0.14	21.50	19.00	5.75	7.00	0.50	0.00	0.00	0.00	0.00	0.00	0.00	0.00	0.00	0.00	0.00	0.00	-0.468750	0.513672	1.765625	-12.600000	162.259995	-67.410004	595.00	-0.37	-0.03
2.49	0.00	0.00	0.00	0.00	0.00	0.25	0.00	2.50	1.00	7.00	10.50	10.25	10.00	13.00	5.75	8.00	-1.164062	0.400391	2.039551	36.959999	395.850006	-48.720001	705.00	0.26	-0.14	23.75	20.75	7.50	8.50	0.50	0.50	0.00	0.00	0.00	0.00	0.00	0.00	0.00	0.00	0.00	0.00	-0.546387	1.196777	1.577148	-66.010002	115.290001	-29.260000	683.00	-0.37	-0.03
2.50	0.00	0.00	0.00	0.00	0.00	0.25	0.00	1.75	0.50	5.75	9.50	9.25	8.50	11.50	5.25	6.75	-1.602051	0.767090	1.850098	35.840000	417.130005	-42.700001	607.00	0.26	-0.14	24.75	22.00	8.50	9.25	0.75	1.00	0.00	0.50	0.00	0.00	0.00	0.00	0.00	0.00	0.00	0.00	-0.362793	0.393555	1.389160	-58.099998	112.349998	6.790000	745.00	-0.36	-0.04
2.51	0.00	0.00	0.00	0.00	0.00	0.00	0.00	1.00	0.00	4.50	8.25	8.00	7.50	10.00	4.25	5.50	-1.340332	0.785645	2.881836	52.360001	441.279999	-37.310001	499.00	0.27	-0.14	24.50	22.25	8.75	9.75	1.00	1.75	0.00	0.75	0.00	0.00	0.25	0.25	0.00	0.00	0.00	0.00	-0.270508	-0.031250	1.983398	-91.279999	117.599998	11.970000	776.00	-0.35	-0.04
2.52	0.00	0.00	0.00	0.00	0.00	0.25	0.00	0.50	0.00	4.25	7.25	7.50	5.75	8.75	3.00	4.25	-1.446289	0.450195	2.158691	76.790001	462.420013	-33.180000	424.00	0.27	-0.14	24.50	22.25	9.25	10.25	1.00	2.00	0.00	1.00	0.00	0.00	0.25	0.50	0.25	0.00	0.25	0.00	-0.147461	-0.036133	1.302734	-91.769997	78.750000	1.330000	803.00	-0.34	-0.05
2.53	0.00	0.00	0.00	0.00	0.00	0.00	0.00	0.25	0.25	3.75	5.75	6.50	4.50	7.25	1.75	3.25	-1.292969	0.288086	3.139648	94.779999	468.510010	-30.380001	340.00	0.27	-0.13	24.50	22.25	9.50	10.50	1.25	2.25	0.00	1.50	0.00	0.00	0.50	0.50	0.50	0.00	0.00	0.00	-0.196289	0.229492	0.966309	-83.930000	53.270000	-6.300000	826.00	-0.33	-0.06
2.54	0.00	0.00	0.00	0.00	0.00	0.00	0.00	0.00	0.25	3.00	4.50	5.25	4.00	5.75	0.75	1.50	-1.189453	-0.011719	2.695312	83.580002	460.600006	-45.220001	258.00	0.26	-0.12	25.25	23.00	10.00	11.00	1.50	3.00	0.00	1.75	0.00	0.00	0.50	0.75	1.25	0.00	0.00	0.00	-0.179199	0.254883	1.023926	-81.830002	47.740002	-1.120000	880.00	-0.32	-0.06
2.55	0.00	0.00	0.00	0.00	0.00	0.00	0.00	0.00	0.25	2.75	3.50	3.75	1.50	4.00	0.50	0.75	-0.900391	0.203125	2.544434	48.930000	457.309998	-50.259998	180.00	0.27	-0.09	26.50	23.00	10.50	11.50	1.75	3.25	0.00	2.25	0.00	0.00	0.75	1.00	1.25	0.00	0.00	0.00	-0.177246	0.102051	1.089844	-80.150002	38.709999	0.910000	927.00	-0.32	-0.06
2.56	0.00	0.00	0.00	0.00	0.00	0.00	0.00	0.00	0.25	2.00	2.75	2.75	1.00	1.00	0.25	0.25	0.497070	0.657715	2.093750	19.460001	367.149994	-41.720001	113.00	0.24	-0.12	26.75	23.50	10.75	12.00	1.75	3.75	0.00	2.50	0.00	0.50	1.00	1.00	1.50	0.25	0.50	0.00	-0.170898	0.098633	1.070312	-69.930000	26.530001	-2.100000	972.00	-0.30	-0.07
2.57	0.00	0.00	0.00	0.00	0.00	0.00	0.00	0.00	0.00	1.25	1.50	1.50	0.00	0.75	0.00	0.50	0.497070	0.657715	2.093750	19.460001	367.149994	-41.720001	59.00	0.25	-0.10	26.75	23.75	11.00	12.50	2.00	4.00	0.00	2.75	0.00	0.25	1.00	1.00	2.00	0.00	0.25	0.00	-0.159668	0.131348	1.008789	-49.770000	17.219999	-2.660000	991.00	-0.30	-0.07
2.58	0.00	0.00	0.00	0.00	0.00	0.00	0.00	0.00	0.00	0.75	0.75	0.50	0.00	0.00	0.00	0.00	2.096191	-0.707520	2.693848	23.100000	235.759995	-50.820000	23.00	0.00	0.00	27.00	23.75	11.25	12.50	2.25	4.00	0.25	3.00	0.00	0.50	1.00	1.00	2.25	0.00	0.25	0.00	-0.125000	0.116699	0.998047	-26.880001	12.460000	-1.190000	1013.00	-0.30	-0.07
2.59	0.00	0.00	0.00	0.00	0.00	0.00	0.00	0.00	0.00	0.50	0.75	0.50	0.00	0.00	0.00	0.25	0.146484	0.183594	5.972656	-40.880001	124.669998	-67.269997	22.00	0.00	0.00	26.75	23.50	11.25	12.75	2.25	4.50	0.25	3.50	0.25	0.75	1.25	1.25	2.75	0.25	0.50	0.00	-0.133789	0.136719	0.969727	-21.840000	11.830000	-0.840000	1047.00	-0.28	-0.08
2.60	0.00	0.00	0.00	0.00	0.00	0.00	0.00	0.00	0.00	0.50	0.50	0.00	0.00	0.00	0.00	0.25	1.411621	0.092773	2.954102	-86.239998	-49.840000	-55.439999	13.00	0.00	0.00	26.25	23.00	11.25	12.50	2.25	4.75	0.25	3.50	0.00	0.50	1.00	1.25	3.25	0.50	0.25	0.00	-0.135254	0.139160	0.984375	-19.460001	11.480000	-0.070000	1031.00	-0.28	-0.08
2.61	0.00	0.00	0.00	0.00	0.00	0.00	0.00	0.00	0.00	0.50	0.00	0.00	0.00	0.00	0.00	0.00	1.129395	0.013672	1.775879	-146.369995	-146.160004	-45.849998	6.00	0.00	0.00	25.00	22.75	11.25	12.50	2.50	5.00	0.25	4.00	0.00	1.00	1.50	1.25	3.50	0.50	0.25	0.00	-0.140625	0.125977	0.960449	-18.620001	10.710000	0.070000	1043.00	-0.27	-0.08
2.62	0.00	0.00	0.00	0.00	0.00	0.00	0.00	0.00	0.00	0.00	0.00	0.25	0.00	0.00	0.00	0.00	0.695312	-0.012695	1.166992	-158.130005	-161.630005	-56.070000	3.00	0.00	0.00	24.50	21.25	11.00	12.25	2.50	4.75	0.50	4.75	0.00	1.00	1.50	1.50	4.50	0.50	0.25	0.00	-0.133301	0.136719	0.959473	-18.690001	10.850000	-0.630000	1042.00	-0.26	-0.09
2.63	0.00	0.00	0.00	0.00	0.00	0.00	0.00	0.00	0.00	0.25	0.00	0.00	0.00	0.00	0.00	0.00	0.749023	0.333984	0.767090	-137.059998	-162.470001	-65.940002	3.00	0.00	0.00	23.50	20.50	10.75	11.75	3.00	5.00	0.50	5.00	0.25	1.25	1.75	1.75	5.00	0.50	0.25	0.00	-0.133301	0.133301	0.972656	-18.480000	11.620000	-1.540000	1044.00	-0.25	-0.09
2.64	0.00	0.00	0.00	0.00	0.00	0.00	0.00	0.00	0.00	0.00	0.00	0.00	0.00	0.00	0.00	0.00	0.752930	0.239746	0.830078	-114.099998	-159.460007	-73.639999	0.00	0.00	0.00	21.75	19.00	10.25	11.25	2.75	5.00	0.50	5.00	0.50	1.25	1.75	1.75	5.50	0.75	0.50	0.00	-0.134766	0.124512	0.971191	-17.710001	12.530000	-3.360000	1007.00	-0.23	-0.10
2.65	0.00	0.00	0.00	0.00	0.00	0.00	0.00	0.00	0.00	0.25	0.00	0.00	0.00	0.00	0.00	0.00	0.658203	0.255859	1.130859	-88.620003	-168.910004	-84.070000	3.00	0.00	0.00	21.25	17.50	10.00	10.75	3.00	5.00	0.75	5.25	0.75	1.50	2.00	1.75	5.50	1.00	0.50	0.00	-0.126465	0.130371	0.967285	-17.010000	12.880000	-5.110000	1001.00	-0.22	-0.09
2.66	0.00	0.00	0.00	0.00	0.00	0.00	0.00	0.00	0.00	0.00	0.00	0.00	0.00	0.25	0.00	0.00	0.610352	0.307129	1.375000	-71.050003	-197.050003	-89.320000	2.00	0.00	0.00	19.50	16.25	9.50	10.00	3.00	4.50	1.00	5.25	0.50	1.75	2.25	2.00	5.75	1.00	0.50	0.00	-0.138672	0.114258	0.969238	-16.799999	13.300000	-6.510000	959.00	-0.21	-0.10
2.67	0.00	0.00	0.00	0.00	0.00	0.00	0.00	0.00	0.00	0.00	0.00	0.00	0.00	0.00	0.00	0.00	0.534668	0.258789	1.505859	-63.349998	-237.160004	-89.669998	0.00	0.00	0.00	18.00	14.25	9.25	9.50	3.00	4.50	1.00	5.25	1.00	2.00	2.25	2.00	6.25	1.25	0.50	0.00	-0.145508	0.118652	0.971680	-16.379999	13.300000	-7.350000	929.00	-0.19	-0.10
2.68	0.00	0.00	0.00	0.00	0.00	0.00	0.00	0.00	0.00	0.00	0.00	0.00	0.00	0.00	0.00	0.00	0.394043	0.307617	1.479004	-61.180000	-278.739990	-87.849998	0.00	0.00	0.00	17.00	12.50	9.00	9.00	3.50	3.75	1.25	5.50	1.25	2.00	2.50	2.25	6.50	1.50	0.75	0.00	-0.171387	0.078125	0.973145	-14.000000	12.110000	-7.910000	914.00	-0.18	-0.09
2.69	0.00	0.00	0.00	0.00	0.00	0.00	0.00	0.00	0.00	0.00	0.00	0.00	0.00	0.00	0.00	0.00	0.229004	0.373047	1.348633	-59.920002	-313.110016	-83.090004	0.00	0.00	0.00	15.75	11.00	8.75	8.50	3.25	3.75	1.25	5.50	1.50	2.50	2.75	2.25	7.00	1.75	0.50	0.25	-0.167480	0.114746	0.998535	-12.180000	11.480000	-8.330000	890.00	-0.16	-0.10
2.70	0.00	0.00	0.00	0.00	0.00	0.00	0.00	0.00	0.00	0.00	0.00	0.00	0.00	0.00	0.00	0.00	0.056152	0.403320	1.238770	-55.230000	-337.329987	-76.580002	0.00	0.00	0.00	14.25	9.50	8.50	8.00	3.25	3.50	1.50	5.50	1.75	2.50	3.00	2.75	7.50	2.00	1.00	0.25	-0.158203	0.100098	0.969727	-9.450000	12.320000	-6.580000	875.00	-0.13	-0.10
2.71	0.00	0.00	0.00	0.00	0.00	0.00	0.00	0.00	0.00	0.00	0.00	0.00	0.00	0.00	0.00	0.00	-0.112793	0.426758	1.142578	-44.799999	-352.730011	-71.470001	0.00	0.00	0.00	13.00	8.50	8.00	7.50	3.25	3.25	1.50	5.50	2.25	2.75	3.25	3.00	7.75	2.50	0.75	0.25	-0.172363	0.108887	0.969727	-8.330000	13.580000	-6.230000	856.00	-0.12	-0.10
2.72	0.00	0.00	0.00	0.00	0.00	0.00	0.00	0.00	0.00	0.00	0.00	0.00	0.00	0.00	0.00	0.00	-0.264648	0.423340	1.120117	-27.790001	-362.459991	-68.459999	0.00	0.00	0.00	11.75	7.50	7.75	6.75	3.25	3.00	1.75	5.50	2.50	3.00	3.25	3.25	7.75	2.50	1.00	0.25	-0.162109	0.113281	0.970703	-7.910000	14.910000	-5.810000	833.00	-0.10	-0.09
2.73	0.00	0.00	0.00	0.00	0.00	0.00	0.00	0.00	0.00	0.00	0.00	0.00	0.00	0.00	0.00	0.00	-0.452148	0.325195	1.154785	3.990000	-373.239990	-64.470001	0.00	0.00	0.00	11.00	6.75	7.50	6.25	3.25	2.75	2.00	5.50	3.00	3.50	3.75	3.25	8.25	2.75	0.75	0.50	-0.163086	0.108398	0.956543	-7.700000	16.170000	-5.740000	833.00	-0.08	-0.09
2.74	0.00	0.00	0.00	0.00	0.00	0.00	0.00	0.00	0.00	0.00	0.00	0.00	0.00	0.00	0.00	0.00	-0.545898	0.323242	1.207031	10.710000	-374.850006	-61.740002	0.00	0.00	0.00	9.25	6.25	7.00	5.75	3.25	2.25	2.00	5.50	3.50	3.75	4.00	3.50	8.75	3.25	1.00	1.00	-0.174805	0.094238	0.957520	-7.560000	17.150000	-6.230000	821.00	-0.05	-0.09
2.75	0.00	0.00	0.00	0.00	0.00	0.00	0.00	0.00	0.00	0.00	0.00	0.00	0.00	0.00	0.00	0.00	-0.601562	0.355469	1.274902	17.010000	-374.850006	-58.380001	0.00	0.00	0.00	8.75	5.75	6.75	5.00	3.00	1.75	2.25	5.50	3.75	3.75	4.25	4.00	8.75	3.25	1.00	0.50	-0.172852	0.103516	0.966309	-7.280000	17.710001	-6.580000	803.00	-0.04	-0.09
2.76	0.00	0.00	0.00	0.00	0.00	0.00	0.00	0.00	0.00	0.00	0.00	0.00	0.00	0.00	0.00	0.00	-0.691406	0.411133	1.363281	27.510000	-374.290009	-54.880001	0.00	0.00	0.00	7.50	5.00	6.50	4.50	3.00	1.75	2.50	5.50	4.25	4.00	5.00	4.50	9.00	3.75	1.00	0.75	-0.172852	0.102051	0.957031	-6.580000	18.059999	-6.720000	809.00	-0.01	-0.09
2.77	0.00	0.00	0.00	0.00	0.00	0.00	0.00	0.00	0.00	0.00	0.00	0.00	0.00	0.00	0.00	0.00	-0.755859	0.473633	1.492188	38.570000	-372.820007	-50.119999	0.00	0.00	0.00	7.25	4.25	5.75	4.00	2.75	1.50	2.50	5.50	5.00	4.50	5.50	4.75	9.50	4.00	1.00	1.25	-0.166504	0.104004	0.963867	-5.810000	18.900000	-6.860000	812.00	0.01	-0.09
2.78	0.00	0.00	0.00	0.00	0.00	0.00	0.00	0.00	0.00	0.00	0.00	0.00	0.00	0.00	0.00	0.00	-0.769531	0.528809	1.601562	48.930000	-371.980011	-42.490002	0.00	0.00	0.00	6.50	3.50	5.50	3.00	2.50	1.25	2.50	5.25	5.50	4.75	6.50	5.25	9.50	4.75	1.25	1.25	-0.181641	0.106445	0.966797	-5.110000	20.510000	-7.560000	808.00	0.03	-0.08
2.79	0.00	0.00	0.00	0.00	0.00	0.00	0.00	0.00	0.00	0.00	0.00	0.00	0.00	0.00	0.00	0.00	-0.804199	0.571289	1.756348	59.849998	-371.489990	-31.780001	0.00	0.00	0.00	6.00	2.75	5.25	3.00	2.25	1.00	2.75	5.25	5.75	5.75	7.50	6.00	9.75	5.00	1.50	1.25	-0.193359	0.083984	0.977539	-5.880000	22.750000	-8.050000	833.00	0.06	-0.08
2.80	0.00	0.00	0.00	0.00	0.00	0.00	0.00	0.00	0.00	0.00	0.00	0.00	0.00	0.00	0.00	0.00	-0.874023	0.609863	1.885254	75.040001	-370.790009	-18.270000	0.00	0.00	0.00	5.75	2.25	4.50	2.00	2.00	0.75	2.75	5.25	6.50	6.50	7.75	6.25	10.00	5.25	1.50	1.75	-0.182617	0.090820	0.962891	-5.530000	24.780001	-8.330000	830.00	0.08	-0.07
2.81	0.00	0.00	0.00	0.00	0.00	0.00	0.00	0.00	0.00	0.00	0.00	0.00	0.00	0.00	0.00	0.00	-0.997070	0.586914	2.053711	96.180000	-369.809998	-2.800000	0.00	0.00	0.00	5.00	2.00	3.75	2.00	2.00	0.50	2.75	5.25	6.75	7.25	8.00	7.50	10.25	5.75	1.75	2.00	-0.194824	0.101074	0.963379	-4.620000	26.530001	-8.610000	848.00	0.10	-0.08
2.82	0.00	0.00	0.00	0.00	0.00	0.00	0.00	0.00	0.00	0.00	0.00	0.00	0.00	0.00	0.00	0.00	-1.127441	0.518555	2.217285	119.629997	-365.820007	12.390000	0.00	0.00	0.00	5.00	1.75	3.50	1.50	1.50	0.50	2.75	5.00	7.50	7.75	8.50	7.75	10.50	6.50	1.75	2.50	-0.191895	0.098145	0.966309	-3.430000	33.670002	-10.080000	864.00	0.11	-0.07
2.83	0.00	0.00	0.00	0.00	0.00	0.00	0.00	0.00	0.00	0.00	0.00	0.00	0.00	0.00	0.00	0.00	-1.331543	0.455566	2.416992	140.000000	-360.429993	28.420000	0.00	0.00	0.00	3.75	1.75	2.50	1.25	1.25	0.25	2.75	5.00	7.50	8.25	8.75	8.00	10.75	7.25	2.50	3.00	-0.209473	0.105957	0.963379	-2.940000	38.009998	-10.430000	861.00	0.14	-0.08
2.84	0.00	0.00	0.00	0.00	0.00	0.00	0.00	0.00	0.00	0.00	0.00	0.00	0.00	0.00	0.00	0.00	-1.595703	0.393555	2.655273	151.479996	-356.160004	46.830002	0.00	0.00	0.00	3.75	1.00	2.00	1.00	1.00	0.00	2.50	4.75	8.00	8.50	9.25	8.25	10.75	7.75	2.50	3.00	-0.196289	0.025391	0.966797	-3.010000	42.139999	-10.500000	853.00	0.15	-0.07
2.85	0.00	0.00	0.00	0.00	0.00	0.00	0.00	0.00	0.00	0.00	0.00	0.00	0.00	0.00	0.00	0.00	-1.910645	0.383789	2.776367	152.389999	-354.269989	66.989998	0.00	0.00	0.00	3.00	1.00	2.00	1.00	0.75	0.00	2.50	4.50	8.25	9.00	9.75	8.50	10.75	8.50	2.75	3.75	-0.190918	0.096680	1.016602	-0.910000	51.240002	-10.010000	870.00	0.17	-0.07
2.86	0.00	0.00	0.00	0.00	0.00	0.00	0.00	0.00	0.00	0.00	0.00	0.00	0.00	0.00	0.00	0.00	-2.309570	0.400391	2.770508	147.000000	-353.290009	87.849998	0.00	0.00	0.00	2.75	1.00	1.50	1.25	0.50	0.00	2.25	4.00	8.50	9.50	10.00	9.00	11.00	9.25	3.50	4.50	-0.223633	0.097656	0.988281	1.120000	59.990002	-10.080000	888.00	0.18	-0.07
2.87	0.00	0.00	0.00	0.00	0.00	0.00	0.00	0.00	0.00	0.00	0.00	0.00	0.00	0.00	0.00	0.00	-2.780762	0.418945	2.661621	137.690002	-352.450012	106.330002	0.00	0.00	0.00	2.00	0.75	1.00	0.75	0.50	0.00	2.00	3.75	9.00	10.00	10.50	9.25	11.00	10.25	3.75	5.00	-0.232422	0.083984	0.979004	3.570000	68.040001	-11.200000	894.00	0.20	-0.07
2.88	0.00	0.00	0.00	0.00	0.00	0.00	0.00	0.00	0.00	0.00	0.00	0.00	0.00	0.00	0.00	0.00	-3.562500	0.221191	1.480957	109.620003	-347.130005	127.540001	0.00	0.00	0.00	1.75	0.75	1.00	0.75	0.25	0.00	1.75	3.00	9.25	10.25	10.75	9.50	11.00	11.25	4.50	5.25	-0.266113	0.085938	0.970215	6.300000	76.720001	-11.690000	903.00	0.21	-0.06
2.89	0.00	0.00	0.00	0.00	0.00	0.00	0.00	0.00	0.00	0.00	0.00	0.00	0.00	0.00	0.00	0.00	-4.010742	-0.119629	0.974121	169.259995	-320.809998	158.410004	0.00	0.00	0.00	1.50	0.50	0.00	0.75	0.25	0.00	1.25	2.25	9.50	10.75	11.25	9.75	11.00	12.50	4.75	5.50	-0.284668	0.096680	0.993652	10.220000	87.500000	-12.180000	898.00	0.23	-0.06
2.90	0.00	0.00	0.00	0.00	0.00	0.00	0.00	0.00	0.00	0.00	0.00	0.00	0.00	0.00	0.00	0.00	-4.990723	-0.980469	-0.026367	192.710007	-269.360016	191.029999	0.00	0.00	0.00	1.50	0.50	0.50	0.25	0.00	0.00	1.00	2.00	9.75	11.00	11.50	10.00	10.75	13.75	5.00	6.25	-0.289062	0.099121	1.033203	14.840000	105.000000	-13.510000	916.00	0.24	-0.06
2.91	0.00	0.00	0.00	0.00	0.00	0.00	0.00	0.00	0.00	0.00	0.00	0.00	0.00	0.00	0.00	0.00	-6.300293	-1.429199	-0.768066	131.949997	-201.110001	197.050003	0.00	0.00	0.00	1.50	0.50	0.25	0.00	0.00	0.00	0.50	1.50	9.75	11.25	11.75	10.00	10.75	14.75	6.00	6.50	-0.298828	0.105469	1.086914	18.129999	129.360001	-14.350000	921.00	0.25	-0.05
2.92	0.00	0.00	0.00	0.00	0.00	0.00	0.00	0.00	0.00	0.00	0.00	0.00	0.00	0.00	0.00	0.00	-7.056152	-1.417480	-1.776367	21.420000	-128.240005	165.059998	0.00	0.00	0.00	1.00	0.25	0.00	0.00	0.00	0.00	0.00	1.00	10.00	11.50	11.75	10.00	10.50	16.00	6.00	6.75	-0.315918	0.122070	1.026855	19.879999	150.850006	-17.360001	911.00	0.26	-0.05
2.93	0.00	0.00	0.00	0.00	0.00	0.00	0.00	0.00	0.00	0.00	0.00	0.00	0.00	0.00	0.00	0.00	-6.086426	-1.094238	-2.227051	-40.320000	-24.570000	93.169998	0.00	0.00	0.00	1.00	0.00	0.00	0.00	0.00	0.00	0.00	1.00	10.25	11.75	12.00	10.00	10.25	17.00	6.75	7.25	-0.409668	0.087891	1.036621	9.660000	186.619995	-21.280001	936.00	0.27	-0.05
2.94	0.00	0.00	0.00	0.00	0.00	0.00	0.00	0.00	0.00	0.00	0.00	0.00	0.00	0.00	0.00	0.00	-4.508301	-0.767090	-1.450684	-28.070000	92.260002	16.170000	0.00	0.00	0.00	0.75	0.25	0.00	0.00	0.00	0.00	0.00	0.50	10.25	12.00	12.00	10.00	9.75	18.00	7.25	7.50	-0.412109	0.118652	1.054688	3.710000	199.500000	-23.379999	942.00	0.27	-0.04
2.95	0.00	0.00	0.00	0.50	0.00	0.00	0.00	0.00	0.00	0.00	0.00	0.00	0.00	0.00	0.00	0.00	-0.908691	-0.758301	-0.647461	-10.430000	181.789993	-43.119999	6.00	0.00	0.00	0.50	0.25	0.00	0.00	0.00	0.00	0.00	0.50	10.25	12.25	12.00	10.00	9.50	18.50	7.50	7.50	-0.418945	0.130859	1.147949	-3.010000	204.960007	-25.549999	947.00	0.27	-0.04
2.96	0.00	3.25	0.50	1.00	0.00	0.00	0.00	0.00	0.00	0.00	0.00	0.00	0.00	0.00	0.00	0.00	1.451172	-0.626465	1.501465	-49.490002	227.220001	-71.400002	51.00	-0.37	-0.15	0.00	0.00	0.00	0.00	0.00	0.00	0.00	0.25	10.25	12.25	12.00	9.75	8.75	19.25	8.00	7.50	-0.458984	0.167480	1.050293	-9.940000	212.309998	-29.820000	937.00	0.28	-0.03
2.97	0.00	5.50	0.25	1.75	0.00	0.00	0.00	0.00	0.00	0.00	0.00	0.00	0.00	0.00	0.00	0.00	0.812012	-0.019531	2.847168	-92.190002	167.720001	-103.320000	79.00	-0.38	-0.17	0.00	0.00	0.00	0.00	0.00	0.00	0.00	0.50	10.00	12.25	12.00	9.50	8.25	19.50	8.00	7.75	-0.524902	0.182617	1.059082	-13.930000	230.649994	-38.150002	934.00	0.28	-0.03
2.98	0.00	7.75	0.00	1.25	0.00	0.00	0.00	0.00	0.00	0.00	0.00	0.00	0.00	0.00	0.00	0.00	0.020508	0.184570	0.959473	-63.840000	96.529999	-98.840004	93.00	-0.40	-0.18	0.50	0.00	0.00	0.00	0.00	0.00	0.00	0.25	10.00	12.25	11.75	9.25	7.75	20.00	8.00	7.75	-0.561523	0.188965	1.099609	-16.379999	256.269989	-47.250000	930.00	0.28	-0.02
2.99	0.00	10.00	0.75	2.75	0.00	0.00	0.00	0.00	0.00	0.00	0.00	0.00	0.00	0.00	0.00	0.00	-0.821777	-0.080078	0.670410	-10.780000	148.750000	-90.300003	143.00	-0.38	-0.16	0.25	0.00	0.00	0.00	0.00	0.00	0.00	0.25	9.75	12.25	11.75	9.00	7.25	20.00	8.00	7.50	-0.576660	0.131836	1.226562	-20.719999	283.429993	-55.860001	914.00	0.29	-0.02
3.00	0.00	12.25	2.75	5.25	0.00	0.00	0.00	0.00	0.00	0.00	0.00	0.00	0.00	0.00	0.00	0.00	-1.464844	0.559570	1.357910	-5.320000	261.170013	-102.690002	220.00	-0.36	-0.14	0.00	0.00	0.00	0.00	0.00	0.00	0.00	0.25	9.50	12.00	11.50	8.50	6.00	19.75	7.75	7.25	-0.602539	0.182129	1.036133	-26.320000	309.399994	-63.770000	878.00	0.29	-0.02
3.01	0.00	14.00	4.50	7.50	0.00	0.00	0.00	0.00	0.00	0.00	0.00	0.00	0.00	0.00	0.00	0.00	-0.744141	1.468262	3.013672	-4.130000	302.820007	-79.379997	286.00	-0.35	-0.14	0.00	0.00	0.00	0.00	0.00	0.00	0.00	0.25	9.25	11.75	11.25	8.00	5.00	19.00	7.50	6.75	-0.776367	0.281250	1.240723	-32.130001	339.290009	-75.040001	841.00	0.29	-0.01
3.02	0.00	14.25	6.25	8.25	0.00	0.00	0.00	0.00	0.00	0.00	0.00	0.00	0.00	0.00	0.00	0.00	-0.631836	0.241699	1.486328	6.510000	233.660004	-11.620000	319.00	-0.34	-0.12	0.00	0.00	0.00	0.00	0.00	0.00	0.00	0.00	8.25	11.25	10.75	7.75	4.25	18.25	7.25	6.00	-0.798828	0.327637	1.278320	-33.180000	369.459991	-87.290001	787.00	0.29	-0.01
3.03	0.00	14.25	7.25	8.75	0.00	1.25	0.00	0.50	0.00	0.00	0.00	0.00	0.00	0.00	0.00	0.00	-0.951172	-0.226074	6.470703	-58.310001	256.619995	-14.490000	360.00	-0.32	-0.13	0.00	0.00	0.00	0.00	0.00	0.00	0.00	0.00	7.25	10.50	10.00	6.75	3.25	17.00	6.25	5.00	-1.022461	0.320312	1.618652	-27.090000	396.619995	-98.000000	705.00	0.29	-0.00
3.04	0.00	14.25	7.50	9.25	0.25	2.25	0.00	0.75	0.00	0.00	0.00	0.50	0.25	0.00	0.00	0.00	-0.582031	0.478516	2.328613	-63.630001	186.270004	-10.360000	396.00	-0.30	-0.14	0.00	0.00	0.00	0.00	0.00	0.00	0.00	0.00	5.75	9.50	9.00	5.50	2.25	14.75	5.25	3.00	-1.599609	0.390625	2.218262	-9.800000	417.480011	-98.279999	593.00	0.29	0.00
3.05	0.00	14.75	8.00	9.50	0.25	3.00	0.00	1.50	0.00	0.00	0.00	0.75	0.75	0.00	0.00	0.00	-0.439941	-0.008301	1.494629	-81.900002	124.110001	-4.830000	440.00	-0.28	-0.15	0.00	0.00	0.00	0.00	0.00	0.00	0.00	0.00	4.50	8.25	7.75	4.75	1.50	12.50	3.50	1.25	-1.652344	0.386719	2.423828	14.140000	430.080017	-94.919998	479.00	0.29	0.01
3.06	0.00	14.50	8.50	9.75	0.25	4.25	0.00	3.00	0.00	0.00	0.25	1.25	2.00	0.25	0.00	0.00	-0.217773	0.174316	1.174316	-59.920002	81.480003	-1.470000	509.00	-0.24	-0.17	0.00	0.00	0.00	0.00	0.00	0.00	0.00	0.00	3.25	7.50	6.75	3.50	0.25	9.75	2.50	0.00	-1.585938	0.391602	3.391113	85.050003	459.269989	-89.949997	371.00	0.29	0.03
3.07																										0.00	0.00	0.00	0.00	0.00	0.00	0.00	0.00	1.50	6.00	5.25	3.00	0.25	7.50	1.00	0.00	-1.120117	-0.218750	2.844727	106.190002	451.149994	-102.199997	268.00	0.29	0.01
3.08	0.00	14.75	9.00	11.00	1.00	6.00	0.00	6.00	0.00	0.00	0.75	1.50	4.25	0.50	0.00	0.25	-0.240723	0.166504	1.080078	-47.320000	56.980000	-0.420000	646.00	-0.20	-0.20	0.00	0.00	0.00	0.00	0.00	0.00	0.00	0.00	1.00	11.25	4.25	2.25	0.00	6.25	1.25	0.00	-0.483398	0.228516	2.776367	82.459999	440.230011	-119.489998	289.00	0.28	0.03
3.09	0.00	15.25	9.25	11.00	1.00	6.25	0.00	6.25	0.00	0.25	1.00	1.25	4.25	0.75	1.00	1.00	-0.242676	0.116211	1.123047	-49.490002	42.070000	-2.240000	682.00	-0.18	-0.19	0.00	0.00	0.00	0.00	0.00	0.00	0.00	0.00	0.50	4.00	3.25	2.00	0.50	2.50	0.75	0.00	-0.121094	0.545410	2.707031	74.059998	419.579987	-129.009995	149.00	0.27	-0.03
3.10	0.00	15.25	9.25	11.50	1.75	8.00	0.00	7.50	1.25	1.25	1.50	2.25	5.00	0.50	0.50	0.75	-0.205078	0.174316	0.988770	-49.840000	28.350000	-3.920000	783.00	-0.15	-0.19	0.00	0.00	0.00	0.00	0.00	0.00	0.00	0.00	0.25	2.75	3.25	1.75	0.00	0.25	0.75	0.00	0.313965	0.882324	2.172852	70.629997	391.299988	-137.899994	103.00	0.25	-0.07
3.11	0.00	16.25	10.00	11.25	1.25	7.50	0.00	7.00	0.25	0.50	1.00	1.50	5.75	0.50	0.25	0.25	-0.192383	0.164551	0.995117	-45.080002	20.790001	-4.060000	743.00	-0.18	-0.20	0.00	0.00	0.00	0.00	0.00	0.00	0.00	0.00	0.00	1.25	1.00	0.00	0.00	0.00	0.00	0.00	0.587402	0.442383	2.472168	76.440002	346.220001	-147.699997	26.00	0.00	0.00
3.12	0.00	16.25	9.75	11.00	1.25	7.50	0.00	7.00	0.25	0.75	1.25	2.00	6.00	0.75	0.25	0.25	-0.194824	0.151855	0.985352	-38.920002	15.750000	-4.830000	753.00	-0.17	-0.20	0.00	0.00	0.00	0.00	0.00	0.00	0.00	0.00	0.00	0.75	0.75	0.00	0.00	0.00	0.00	0.00	-0.023926	0.087402	2.492188	77.559998	302.190002	-162.119995	17.00	0.00	0.00
3.13	0.00	15.75	10.00	11.00	1.50	7.50	0.00	7.25	0.00	0.75	1.50	2.00	6.50	0.75	0.00	0.00	-0.185059	0.163086	0.962891	-32.549999	13.510000	-5.250000	758.00	-0.17	-0.20	0.00	0.00	0.00	0.00	0.00	0.00	0.00	0.00	0.00	0.75	0.75	0.00	0.00	0.00	0.00	0.00	-0.063965	1.655762	4.598145	37.170002	270.130005	-133.559998	17.00	0.00	0.00
3.14	2.25	17.75	11.00	12.00	2.50	8.50	0.00	8.00	1.50	1.75	2.50	3.75	8.50	2.00	1.00	1.25	-0.192871	0.142578	0.967773	-27.650000	13.160000	-5.250000	978.00	-0.13	-0.18	0.25	0.00	0.00	0.00	0.00	0.00	0.00	0.00	0.00	0.50	0.25	0.00	0.00	0.00	0.00	0.00	1.820801	0.855957	3.531250	-30.520000	69.650002	-59.290001	11.00	0.00	0.00
3.15	0.00	14.50	9.50	10.50	1.75	7.75	0.00	7.50	0.00	1.25	1.50	2.25	8.00	1.00	0.25	0.25	-0.194824	0.138184	0.970215	-23.940001	13.370000	-5.110000	772.00	-0.15	-0.20	0.00	0.00	0.00	0.00	0.00	0.00	0.00	0.00	0.00	0.50	0.50	0.00	0.00	0.00	0.00	0.00	1.230957	0.913086	2.823242	-85.120003	-124.110001	13.720000	11.00	0.00	0.00
3.16	0.00	14.50	9.75	10.50	1.50	7.50	0.00	7.50	0.75	1.25	1.75	2.50	8.25	1.25	0.25	0.50	-0.199707	0.131348	0.960938	-19.670000	13.860000	-4.760000	792.00	-0.14	-0.20	0.00	0.00	0.00	0.00	0.00	0.00	0.00	0.00	0.00	0.25	0.50	0.00	0.00	0.00	0.00	0.00	0.502441	0.795410	1.804199	-135.869995	-226.660004	66.849998	9.00	0.00	0.00
3.17	0.00	14.00	9.25	10.50	1.75	7.25	0.00	7.50	0.50	1.50	1.75	2.75	8.00	1.75	0.50	0.50	-0.196289	0.141602	0.958008	-14.490000	16.170000	-4.550000	788.00	-0.13	-0.20	0.00	0.00	0.00	0.00	0.00	0.00	0.00	0.00	0.00	0.00	0.25	0.00	0.00	0.00	0.00	0.00	0.482422	0.714844	1.130859	-139.789993	-265.510010	101.500000	3.00	0.00	0.00
3.18	0.00	13.25	9.00	10.00	2.00	7.25	0.00	7.50	0.50	1.75	2.00	2.75	8.50	1.25	0.50	0.50	-0.198730	0.134277	0.958984	-13.230000	17.290001	-4.270000	780.00	-0.12	-0.20	0.00	0.00	0.00	0.00	0.00	0.00	0.00	0.00	0.00	0.00	0.25	0.00	0.00	0.00	0.00	0.00	0.394531	0.560547	0.489746	-78.959999	-264.459991	110.110001	3.00	0.00	0.00
3.19	0.00	12.75	8.75	9.75	2.00	7.00	0.00	7.50	0.75	1.75	2.25	3.25	8.75	1.50	0.50	0.50	-0.197754	0.127441	0.952637	-11.760000	17.780001	-3.570000	783.00	-0.11	-0.20	0.00	0.00	0.00	0.00	0.00	0.00	0.00	0.00	0.00	0.00	0.00	0.00	0.00	0.00	0.00	0.00	0.309082	0.438477	0.614746	-36.889999	-257.600006	98.279999	0.00	0.00	0.00
3.20	0.00	12.00	8.50	9.50	1.75	6.75	0.00	7.75	0.75	1.75	2.00	3.50	9.00	1.75	0.50	0.50	-0.200684	0.127930	0.955566	-10.500000	17.990000	-3.500000	773.00	-0.11	-0.20	0.00	0.00	0.00	0.00	0.00	0.00	0.00	0.00	0.00	0.00	0.00	0.00	0.00	0.00	0.00	0.00	0.272949	0.253906	0.745605	-6.090000	-261.100006	85.330002	0.00	0.00	0.00
3.21	0.00	11.00	8.25	9.00	2.00	6.50	0.00	7.50	1.50	2.25	2.25	3.75	9.25	2.00	0.25	0.50	-0.200195	0.127930	0.951172	-10.150000	18.480000	-3.850000	773.00	-0.09	-0.19	0.00	0.00	0.00	0.00	0.00	0.00	0.00	0.00	0.00	0.00	0.00	0.00	0.00	0.00	0.00	0.00	0.211426	0.087402	0.971191	4.620000	-273.839996	70.910004	0.00	0.00	0.00
3.22	0.00	10.00	8.00	8.75	1.75	6.25	0.00	7.50	1.25	2.00	2.50	4.00	9.25	2.25	0.50	0.50	-0.225586	0.130371	0.950684	-10.150000	19.110001	-4.970000	756.00	-0.08	-0.20	0.00	0.00	0.00	0.00	0.00	0.00	0.00	0.00	0.00	0.00	0.00	0.00	0.00	0.00	0.00	0.00	0.108887	0.033691	1.162598	4.550000	-294.980011	57.330002	0.00	0.00	0.00
3.23	0.00	9.50	7.75	8.50	2.00	6.00	0.00	7.50	2.00	2.25	2.75	4.00	9.75	2.00	0.50	0.50	-0.213867	0.124512	0.953125	-10.290000	19.600000	-6.370000	763.00	-0.07	-0.19	0.00	0.00	0.00	0.00	0.00	0.00	0.00	0.00	0.00	0.00	0.00	0.00	0.00	0.00	0.00	0.00	0.042480	0.009766	1.235840	0.140000	-320.600006	44.310001	0.00	0.00	0.00
3.24	0.00	8.75	7.50	8.25	1.75	6.00	0.25	7.50	2.00	2.75	3.00	4.75	9.75	2.50	0.50	0.75	-0.230957	0.124023	0.952637	-9.940000	19.879999	-6.860000	774.00	-0.05	-0.19	0.00	0.00	0.00	0.00	0.00	0.00	0.00	0.00	0.00	0.00	0.00	0.00	0.00	0.00	0.00	0.00	-0.054688	0.041992	1.227051	2.030000	-345.309998	29.469999	0.00	0.00	0.00
3.25	0.00	8.00	7.25	7.75	1.75	5.25	0.25	7.25	2.00	3.00	3.50	5.50	9.75	2.50	0.25	1.00	-0.207520	0.116211	0.957031	-8.680000	19.879999	-6.790000	760.00	-0.04	-0.19	0.00	0.00	0.00	0.00	0.00	0.00	0.00	0.00	0.00	0.00	0.00	0.00	0.00	0.00	0.00	0.00	-0.190430	0.047852	1.172363	14.280000	-364.910004	13.090000	0.00	0.00	0.00
3.26	0.00	7.50	6.50	7.25	1.75	5.00	0.25	7.25	2.75	3.50	3.50	5.75	10.00	3.00	0.50	1.25	-0.222656	0.117676	0.954102	-6.930000	20.580000	-6.160000	768.00	-0.02	-0.18	0.00	0.00	0.00	0.00	0.00	0.00	0.00	0.00	0.00	0.00	0.00	0.00	0.00	0.00	0.00	0.00	-0.288574	0.014648	1.103027	31.430000	-377.929993	-3.920000	0.00	0.00	0.00
3.27	0.00	6.75	6.50	6.75	1.50	4.50	0.25	7.25	3.25	3.75	4.00	6.25	10.25	3.25	0.50	1.00	-0.243164	0.116211	0.941895	-5.040000	20.860001	-5.390000	770.00	-0.00	-0.18	0.00	0.00	0.00	0.00	0.00	0.00	0.00	0.00	0.00	0.00	0.00	0.00	0.00	0.00	0.00	0.00	-0.402832	0.000000	1.109863	47.880001	-384.019989	-20.370001	0.00	0.00	0.00
3.28	0.00	5.50	6.00	6.25	1.75	3.75	0.25	7.25	3.75	4.00	5.00	7.00	10.25	3.25	0.50	1.50	-0.233398	0.111816	0.957520	-3.150000	21.280001	-4.620000	773.00	0.02	-0.17	0.00	0.00	0.00	0.00	0.00	0.00	0.00	0.00	0.00	0.00	0.00	0.00	0.00	0.00	0.00	0.00	-0.508789	-0.028809	1.154297	59.150002	-385.630005	-33.320000	0.00	0.00	0.00
3.29	0.00	5.50	5.50	6.00	1.50	3.50	0.25	7.00	3.75	4.25	5.00	7.25	10.75	3.75	1.00	1.25	-0.236328	0.115234	0.944336	-1.330000	22.120001	-3.990000	773.00	0.03	-0.17	0.00	0.00	0.00	0.00	0.00	0.00	0.00	0.00	0.00	0.00	0.00	0.00	0.00	0.00	0.00	0.00	-0.604004	-0.040039	1.194824	63.279999	-386.750000	-41.230000	0.00	0.00	0.00
3.30	0.00	5.25	5.50	5.50	1.25	3.00	0.25	7.00	4.25	4.50	6.50	7.75	10.75	4.75	1.00	1.75	-0.238770	0.100098	0.941406	0.070000	22.750000	-3.640000	800.00	0.05	-0.16	0.00	0.00	0.00	0.00	0.00	0.00	0.00	0.00	0.00	0.00	0.00	0.00	0.00	0.00	0.00	0.00	-0.781738	0.103027	1.299316	64.959999	-382.480011	-42.349998	0.00	0.00	0.00
3.31	0.00	4.75	4.50	5.00	1.25	2.75	0.25	7.00	4.75	5.50	7.50	8.00	11.00	5.00	1.00	2.00	-0.245117	0.136230	0.950684	2.380000	25.690001	-3.710000	813.00	0.07	-0.16	0.00	0.00	0.00	0.00	0.00	0.00	0.00	0.00	0.00	0.00	0.00	0.00	0.00	0.00	0.00	0.00	-0.742188	0.428711	1.533203	67.480003	-372.679993	-32.060001	0.00	0.00	0.00
3.32	0.00	3.50	4.00	4.50	1.00	1.50	0.25	7.00	5.00	6.00	7.75	8.25	11.25	5.00	1.25	2.25	-0.245117	0.136230	0.950684	2.380000	25.690001	-3.710000	792.00	0.09	-0.16	0.00	0.00	0.00	0.00	0.00	0.00	0.00	0.00	0.00	0.00	0.00	0.00	0.00	0.00	0.00	0.00	-0.867188	0.264160	1.485352	72.519997	-371.980011	-21.139999	0.00	0.00	0.00
3.33	0.00	3.50	3.50	2.75	0.75	1.00	0.25	7.00	5.25	6.50	8.00	8.50	11.50	5.75	1.50	2.75	-0.244141	0.154297	0.949707	4.410000	29.049999	-8.610000	787.00	0.12	-0.15	0.00	0.00	0.00	0.00	0.00	0.00	0.00	0.00	0.00	0.00	0.00	0.00	0.00	0.00	0.00	0.00	-0.910156	0.337402	1.666016	79.379997	-371.489990	-6.370000	0.00	0.00	0.00
3.34	0.00	3.50	3.25	3.25	0.50	1.25	0.25	7.00	6.00	7.50	8.25	8.75	11.75	6.50	1.50	3.25	-0.267090	0.110352	0.963379	4.480000	32.619999	-10.500000	830.00	0.12	-0.14	0.00	0.00	0.00	0.00	0.00	0.00	0.00	0.00	0.00	0.00	0.00	0.00	0.00	0.00	0.00	0.00	-0.963379	0.379395	1.773926	85.889999	-369.880005	10.640000	0.00	0.00	0.00
3.35	0.00	2.00	2.00	2.75	0.50	1.00	0.25	6.75	6.25	8.00	8.50	9.25	12.00	7.50	1.75	3.50	-0.254883	0.139648	0.947754	5.600000	36.400002	-11.270000	820.00	0.15	-0.14	0.25	0.00	0.00	0.00	0.00	0.00	0.00	0.00	0.00	0.00	0.00	0.00	0.00	0.00	0.00	0.00	-1.033203	0.430664	1.917969	93.169998	-367.500000	28.070000	3.00	0.00	0.00
3.36	0.00	1.25	1.50	2.25	0.00	0.00	0.00	6.50	6.75	8.00	9.00	9.25	12.00	7.75	2.00	3.75	-0.298828	0.102051	0.930176	9.870000	42.700001	-11.830000	794.00	0.18	-0.14	0.00	0.00	0.00	0.00	0.00	0.00	0.00	0.00	0.00	0.00	0.00	0.00	0.00	0.00	0.00	0.00	-1.118652	0.439941	2.067871	106.959999	-364.070007	44.869999	0.00	0.00	0.00
3.37	0.00	1.00	1.75	1.25	0.00	0.00	0.00	6.25	7.25	8.50	9.25	9.75	11.75	8.75	2.50	3.75	-0.274414	0.116211	0.956543	10.080000	49.490002	-8.400000	812.00	0.19	-0.12	0.00	0.00	0.00	0.00	0.00	0.00	0.00	0.00	0.00	0.00	0.00	0.00	0.00	0.00	0.00	0.00	-1.223145	0.344727	2.138672	124.040001	-359.799988	59.290001	0.00	0.00	0.00
3.38	0.00	0.75	0.50	1.50	0.00	0.00	0.00	5.75	7.75	8.75	9.75	10.00	12.00	9.50	3.00	4.50	-0.291504	0.115234	0.958984	11.970000	56.980000	-6.370000	827.00	0.21	-0.12	0.00	0.00	0.00	0.00	0.00	0.00	0.00	0.00	0.00	0.00	0.00	0.00	0.00	0.00	0.00	0.00	-1.314941	0.253418	2.214844	135.309998	-352.170013	70.489998	0.00	0.00	0.00
3.39	0.00	0.00	0.25	0.50	0.00	0.00	0.00	5.25	8.00	9.25	10.00	10.25	12.25	10.25	3.00	4.75	-0.294434	0.123047	0.956543	16.940001	63.910000	-5.320000	822.00	0.22	-0.11	0.00	0.00	0.00	0.00	0.00	0.00	0.00	0.00	0.00	0.00	0.00	0.00	0.00	0.00	0.00	0.00	-1.467285	0.168457	2.321777	141.960007	-341.880005	79.099998	0.00	0.00	0.00
3.40	0.00	0.00	0.00	0.50	0.00	0.00	0.00	5.00	8.00	9.75	10.50	10.50	12.00	11.25	3.50	5.25	-0.328613	0.133789	0.937988	22.820000	74.059998	-3.850000	845.00	0.23	-0.11	0.00	0.00	0.00	0.00	0.00	0.00	0.00	0.00	0.00	0.00	0.00	0.00	0.00	0.00	0.00	0.00	-1.665527	0.092773	2.450195	147.419998	-332.220001	85.540001	0.00	0.00	0.00
3.41	0.00	0.75	0.50	1.50	0.00	0.00	0.00	4.50	8.50	9.75	10.75	10.75	12.50	12.25	4.00	5.50	-0.338379	0.134766	0.964844	25.900000	91.139999	-2.870000	896.00	0.22	-0.10	0.00	0.00	0.00	0.00	0.00	0.00	0.00	0.00	0.00	0.00	0.00	0.00	0.00	0.00	0.00	0.00	-1.960449	-0.021484	2.506836	147.350006	-324.799988	92.820000	0.00	0.00	0.00
3.42	0.00	0.00	0.00	0.50	0.00	0.00	0.00	4.00	8.50	10.25	10.75	11.00	12.25	13.00	4.75	5.75	-0.333008	0.130859	0.998535	28.700001	107.099998	-3.150000	885.00	0.24	-0.10	0.00	0.00	0.00	0.00	0.00	0.00	0.00	0.00	0.00	0.00	0.00	0.00	0.00	0.00	0.00	0.00	-2.674805	-0.136719	2.227051	103.809998	-317.380005	117.529999	0.00	0.00	0.00
3.43	0.00	0.00	0.00	0.25	0.00	0.00	0.00	3.25	9.00	10.50	11.25	11.25	12.50	14.25	5.25	6.00	-0.362305	0.158203	0.958984	30.030001	120.680000	-4.550000	910.00	0.25	-0.09	0.00	0.00	0.00	0.00	0.00	0.00	0.00	0.00	0.00	0.00	0.00	0.00	0.00	0.00	0.00	0.00	-3.004395	0.002930	1.767090	68.250000	-307.019989	129.850006	0.00	0.00	0.00
3.44	0.00	0.00	0.00	0.00	0.00	0.00	0.00	2.00	9.00	10.75	11.25	11.50	12.25	15.00	6.00	6.50	-0.363770	0.164062	0.997070	27.930000	136.919998	-6.440000	908.00	0.26	-0.08	0.00	0.00	0.00	0.00	0.00	0.00	0.00	0.00	0.00	0.00	0.00	0.00	0.00	0.00	0.00	0.00	-3.237793	0.156250	1.182617	47.599998	-284.619995	137.339996	0.00	0.00	0.00
3.45	0.00	0.00	0.00	1.00	0.00	0.00	0.00	2.00	9.25	11.00	11.50	11.25	12.00	16.00	6.00	6.50	-0.411621	0.174805	0.978027	26.530001	156.380005	-8.960000	933.00	0.26	-0.07	0.00	0.00	0.00	0.00	0.00	0.00	0.00	0.00	0.00	0.00	0.00	0.00	0.00	0.00	0.00	0.00	-3.472168	-0.203125	-0.053711	67.830002	-250.320007	141.820007	0.00	0.00	0.00
3.46	0.00	0.00	0.00	0.50	0.00	0.00	0.00	1.75	9.25	11.00	11.50	11.25	11.50	16.75	6.50	6.75	-0.430176	0.154785	1.025879	24.150000	177.660004	-9.940000	932.00	0.26	-0.07	0.00	0.00	0.00	0.00	0.00	0.00	0.00	0.00	0.00	0.00	0.00	0.00	0.00	0.00	0.00	0.00	-4.798340	-0.672852	-0.270020	166.039993	-211.610001	168.979996	0.00	0.00	0.00
3.47	0.00	0.00	0.00	1.00	0.00	0.00	0.00	1.25	9.25	11.00	11.75	11.25	11.25	17.50	6.75	7.00	-0.486816	0.194336	1.082520	15.680000	204.889999	-10.920000	942.00	0.26	-0.06	0.00	0.00	0.00	0.00	0.00	0.00	0.00	0.00	0.00	0.00	0.00	0.00	0.00	0.00	0.00	0.00	-7.401855	-1.751465	-0.563477	189.910004	-124.180000	180.039993	0.00	0.00	0.00
3.48	0.00	0.00	0.00	0.50	0.00	0.00	0.00	0.75	9.25	11.25	11.50	11.00	10.75	18.00	7.00	7.00	-0.511230	0.203613	1.083984	10.990000	218.820007	-13.720000	928.00	0.27	-0.06	1.50	0.50	0.00	0.00	0.00	0.00	0.00	0.00	0.00	0.00	0.00	0.00	0.00	0.00	0.00	0.00	-7.244141	-2.372070	-3.014648	88.550003	-7.560000	147.210007	22.00	0.00	0.00
3.49	0.00	0.25	0.00	0.00	0.00	0.00	0.00	0.50	9.25	11.25	11.50	10.75	10.25	18.50	7.25	7.00	-0.542969	0.224121	1.065918	4.760000	238.910004	-18.480000	920.00	0.28	-0.05	3.50	1.75	0.50	0.00	0.00	0.00	0.00	0.00	0.00	0.00	0.00	0.00	0.00	0.00	0.00	0.00	-5.405273	-2.404785	-2.495117	-28.700001	165.479996	66.150002	63.00	-0.39	0.03
3.50	0.00	0.00	0.00	0.50	0.00	0.00	0.00	0.75	9.00	11.25	11.50	10.50	9.50	19.00	7.25	6.75	-0.597656	0.288574	1.132812	-0.770000	265.579987	-27.510000	917.00	0.28	-0.05	5.50	4.25	0.75	0.75	0.00	0.00	0.00	0.00	0.00	0.00	0.00	0.00	0.00	0.00	0.00	0.00	-0.147949	-1.334961	0.747070	-110.459999	354.549988	-37.099998	123.00	-0.39	-0.01
3.51	0.00	0.00	0.00	0.00	0.00	0.00	0.00	0.50	9.00	11.00	11.25	10.00	8.25	18.75	7.25	6.75	-0.634277	0.320801	1.089844	-6.720000	297.079987	-40.180000	881.00	0.28	-0.04	8.50	7.75	1.50	1.00	0.00	0.00	0.00	0.00	0.00	0.00	0.00	0.00	0.00	0.00	0.00	0.00	0.406250	-0.030273	4.189453	-131.460007	341.809998	-84.279999	205.00	-0.39	-0.02
3.52	0.00	0.00	0.00	0.25	0.00	0.00	0.00	0.00	8.75	10.75	11.25	9.50	7.50	18.75	7.00	6.75	-0.744629	0.335938	1.223633	-15.960000	334.670013	-53.900002	854.00	0.29	-0.03	14.25	13.00	2.25	2.50	0.00	0.00	0.00	0.00	0.00	0.00	0.00	0.00	0.00	0.00	0.00	0.00	-0.066406	0.313477	3.178711	-60.480000	206.430008	-67.970001	350.00	-0.39	-0.02
3.53	0.00	0.00	0.00	0.50	0.00	0.25	0.00	0.00	8.25	10.25	10.25	8.75	6.00	20.50	7.50	6.50	-0.906250	0.398926	1.375977	-28.910000	370.089996	-68.879997	833.00	0.29	-0.02	20.25	18.00	4.00	5.00	0.00	0.00	0.00	0.00	0.00	0.00	0.00	0.00	0.00	0.00	0.00	0.00	-1.152344	0.008789	1.658203	-7.210000	272.299988	-91.840004	519.00	-0.38	-0.03
3.54	0.00	0.00	0.00	0.00	0.00	0.00	0.00	0.50	8.50	10.50	10.25	8.00	6.00	18.50	6.25	5.75	-1.140137	0.362793	1.472168	-32.900002	406.279999	-81.760002	793.00	0.29	-0.02	23.50	21.25	7.25	7.75	0.25	0.00	0.00	0.00	0.00	0.00	0.00	0.00	0.00	0.00	0.00	0.00	-0.597656	0.961426	2.669434	17.639999	303.170013	-93.379997	664.00	-0.37	-0.03
3.55	0.00	0.00	0.00	0.00	0.00	0.00	0.00	0.00	6.25	8.75	8.75	7.25	3.00	16.50	5.75	5.00	-1.517090	0.710938	2.615723	-32.340000	436.100006	-85.889999	650.00	0.30	-0.01	25.00	23.25	8.00	9.00	0.50	0.75	0.00	0.50	0.00	0.00	0.00	0.25	0.00	0.00	0.00	0.00	-1.477539	0.691406	6.872559	-21.490000	229.880005	-63.490002	749.00	-0.36	-0.04
3.56	0.00	0.00	0.00	0.00	0.00	0.00	0.00	0.00	5.00	8.25	7.50	5.75	1.75	14.25	5.00	3.50	-1.681152	0.434082	1.922852	-13.230000	462.000000	-85.750000	544.00	0.30	0.00	26.00	23.50	9.25	10.00	0.75	1.50	0.00	0.75	0.00	0.00	0.25	0.75	0.50	0.00	0.00	0.00	-0.625488	0.852051	1.895020	-81.199997	150.639999	-15.890000	819.00	-0.34	-0.05
3.57	0.00	0.00	0.00	0.00	0.00	0.00	0.00	0.00	3.00	7.50	6.50	4.75	0.50	12.25	3.25	2.25	-1.895020	0.754883	3.256836	5.320000	488.739990	-84.489998	426.00	0.30	0.01	25.50	23.25	9.50	10.50	1.00	2.25	0.00	1.50	0.00	0.00	0.50	0.50	1.00	0.00	0.25	0.00	-0.166992	0.192871	1.121094	-138.389999	132.160004	11.130000	852.00	-0.33	-0.06
3.58	0.00	0.00	0.00	0.00	0.00	0.00	0.00	0.00	2.25	6.00	5.25	3.75	0.00	9.75	2.00	0.75	-1.847656	0.291504	3.181152	38.290001	499.660004	-77.279999	322.00	0.30	0.02	25.50	23.00	10.50	11.00	1.25	3.00	0.00	2.50	0.00	0.00	0.75	1.50	2.25	0.00	0.25	0.00	-0.192871	-0.195801	1.960938	-148.960007	107.169998	5.180000	922.00	-0.31	-0.07
3.59	0.00	0.00	0.00	0.00	0.00	0.00	0.00	0.00	1.50	5.00	5.75	3.25	0.00	7.75	1.00	0.25	-1.556641	0.174805	3.166504	57.750000	489.019989	-74.550003	267.00	0.29	0.01	25.75	23.00	10.75	11.75	1.75	3.75	0.00	3.00	0.25	0.25	1.00	1.25	2.50	0.00	0.50	0.00	-0.224609	0.077637	1.163574	-126.559998	62.860001	-5.880000	972.00	-0.29	-0.08
3.60	0.00	0.00	0.00	0.00	0.00	1.50	0.00	0.00	0.75	4.25	3.50	2.50	0.00	5.75	0.75	0.00	-1.018555	0.306641	3.558105	48.580002	469.489990	-85.330002	208.00	0.25	-0.02	26.75	23.25	11.50	12.50	1.75	4.00	0.25	3.50	0.00	0.50	1.25	1.50	3.25	0.00	0.25	0.00	-0.254883	0.265137	1.142090	-94.080002	42.770000	-4.410000	1029.00	-0.29	-0.08
3.61	0.00	0.00	0.00	0.00	0.00	0.00	0.00	0.00	0.50	3.25	2.50	1.75	0.00	2.00	0.25	0.00	-0.263184	0.418457	3.903809	17.500000	422.170013	-93.730003	114.00	0.26	-0.02	27.00	23.75	12.00	12.75	2.25	4.75	0.25	4.00	0.25	0.75	1.25	1.25	3.75	0.00	0.50	0.00	-0.170898	0.109375	1.094238	-71.470001	28.420000	-2.730000	1080.00	-0.28	-0.08
3.62	0.00	0.00	0.00	0.00	0.00	0.00	0.00	0.00	0.00	1.50	1.00	0.00	0.00	0.00	0.00	0.00	0.762695	0.227539	3.042480	-101.709999	273.559998	-90.510002	28.00	0.00	0.00	27.75	23.75	12.25	13.00	2.25	5.00	0.25	4.25	0.25	1.00	1.25	1.50	4.25	0.50	0.25	0.00	-0.121582	0.092773	1.026367	-54.599998	15.470000	-5.810000	1114.00	-0.27	-0.08
3.63	0.00	0.00	0.00	0.00	0.00	0.00	0.00	0.00	0.00	1.25	1.00	0.00	0.00	0.00	0.00	0.00	1.286133	-0.019531	0.785156	-158.130005	210.839996	-96.389999	26.00	0.00	0.00	27.50	23.50	12.50	12.75	2.75	5.00	0.50	5.00	0.25	1.25	1.75	1.50	5.25	0.50	0.25	0.00	-0.135742	0.168457	0.985840	-41.860001	9.030000	-6.510000	1149.00	-0.26	-0.09
3.64	0.00	0.00	0.00	0.00	0.00	0.00	0.00	0.00	0.00	1.25	0.50	0.00	0.00	0.00	0.00	0.00	0.654297	1.065918	5.210449	-135.240005	56.980000	-75.669998	20.00	0.00	0.00	27.00	23.00	12.50	12.75	3.00	5.00	0.50	5.00	0.50	1.50	1.75	1.50	5.25	0.75	0.25	0.00	-0.101562	0.119141	0.993652	-31.219999	6.440000	-5.810000	1150.00	-0.25	-0.08
3.65	0.00	0.00	0.00	0.00	0.00	0.00	0.00	0.00	0.00	1.00	0.25	0.25	0.00	0.00	0.00	0.25	1.481934	0.509277	2.634277	-97.370003	-114.239998	-42.070000	19.00	0.00	0.00	27.00	22.25	12.50	12.50	3.25	5.25	0.75	5.25	0.50	1.75	1.75	1.75	5.75	1.00	0.50	0.00	-0.110352	0.127930	0.984863	-23.520000	6.020000	-6.650000	1170.00	-0.24	-0.08
3.66	0.00	0.00	0.00	0.00	0.00	0.00	0.00	0.00	0.00	0.75	0.25	0.00	0.00	0.00	0.00	0.00	0.878418	0.314453	1.354980	-123.129997	-179.550003	-22.889999	11.00	0.00	0.00	26.00	21.25	12.50	12.25	3.50	5.00	1.00	5.50	0.75	2.00	2.00	2.00	6.50	1.00	0.50	0.00	-0.108887	0.119629	0.994141	-16.520000	9.100000	-6.020000	1173.00	-0.23	-0.09
3.67	0.00	0.00	0.00	0.00	0.00	0.00	0.00	0.00	0.00	0.50	0.50	0.00	0.00	0.00	0.00	0.00	0.660645	0.476562	0.889648	-127.750000	-182.979996	-12.110000	11.00	0.00	0.00	25.25	20.00	12.25	12.00	3.50	5.00	1.00	5.50	0.75	2.00	2.25	2.00	6.50	1.25	0.50	0.00	-0.125977	0.123535	0.987305	-13.580000	10.640000	-5.250000	1151.00	-0.22	-0.09
3.68	0.00	0.00	0.00	0.00	0.00	0.00	0.00	0.00	0.00	0.50	0.50	0.00	0.00	0.00	0.00	0.00	0.784180	0.693359	0.565918	-123.830002	-185.850006	1.330000	11.00	0.00	0.00	23.50	19.00	12.00	11.25	3.50	5.00	1.25	5.75	1.00	2.25	2.25	2.25	7.25	1.25	0.50	0.00	-0.134277	0.100098	0.990723	-10.220000	11.900000	-4.340000	1134.00	-0.21	-0.09
3.69	0.00	0.00	0.00	0.00	0.00	0.00	0.00	0.00	0.00	0.25	0.00	0.00	0.00	0.00	0.00	0.00	0.678223	0.558105	0.821289	-108.290001	-185.850006	11.830000	3.00	0.00	0.00	22.50	17.75	11.50	10.75	3.75	4.75	1.25	5.75	1.00	2.25	2.50	2.25	7.50	1.50	0.50	0.00	-0.121094	0.127930	0.984863	-8.400000	13.300000	-4.130000	1105.00	-0.20	-0.09
3.70	0.00	0.00	0.00	0.00	0.00	0.00	0.00	0.00	0.00	0.00	0.00	0.00	0.00	0.00	0.00	0.00	0.615723	0.549805	1.047363	-87.989998	-202.160004	18.410000	0.00	0.00	0.00	20.75	15.25	11.00	9.75	3.50	4.50	1.25	5.75	1.75	2.50	2.75	2.50	7.75	1.75	0.50	0.00	-0.128418	0.115723	0.976074	-7.700000	14.280000	-3.990000	1060.00	-0.18	-0.09
