# time	left pressure 1[N/cm²]	left pressure 2[N/cm²]	left pressure 3[N/cm²]	left pressure 4[N/cm²]	left pressure 5[N/cm²]	left pressure 6[N/cm²]	left pressure 7[N/cm²]	left pressure 8[N/cm²]	left pressure 9[N/cm²]	left pressure 10[N/cm²]	left pressure 11[N/cm²]	left pressure 12[N/cm²]	left pressure 13[N/cm²]	left pressure 14[N/cm²]	left pressure 15[N/cm²]	left pressure 16[N/cm²]	left acceleration X[g]	left acceleration Y[g]	left acceleration Z[g]	left angular X[dps]	left angular Y[dps]	left angular Z[dps]	left total force[N]	left center of pressure X[%]	left center of pressure Y[%]	right pressure 1[N/cm²]	right pressure 2[N/cm²]	right pressure 3[N/cm²]	right pressure 4[N/cm²]	right pressure 5[N/cm²]	right pressure 6[N/cm²]	right pressure 7[N/cm²]	right pressure 8[N/cm²]	right pressure 9[N/cm²]	right pressure 10[N/cm²]	right pressure 11[N/cm²]	right pressure 12[N/cm²]	right pressure 13[N/cm²]	right pressure 14[N/cm²]	right pressure 15[N/cm²]	right pressure 16[N/cm²]	right acceleration X[g]	right acceleration Y[g]	right acceleration Z[g]	right angular X[dps]	right angular Y[dps]	right angular Z[dps]	right total force[N]	right center of pressure X[%]	right center of pressure Y[%]
0.00																										0.25	0.00	0.25	0.50	0.00	0.00	1.75	0.00	0.00	0.00	0.00	0.00	0.00	0.25	0.00	0.00	1.348633	-0.788086	1.501953	-109.620003	-3.850000	38.639999	39.00	0.00	0.00
0.01																										0.00	0.50	0.00	0.00	0.00	0.00	1.50	0.00	0.00	0.00	0.00	0.00	0.00	0.50	0.00	0.00	1.348633	-0.788086	1.501953	-109.620003	-3.850000	38.639999	32.00	0.00	0.00
0.02	6.00	6.50	6.75	7.00	7.75	8.00	3.00	6.75	3.00	6.00	7.00	6.25	5.50	5.00	1.00	4.00	-0.208496	0.095215	0.950195	0.910000	7.700000	0.070000	958.00	-0.02	-0.10	0.25	0.25	0.00	0.50	0.00	0.00	1.75	0.00	0.00	0.00	0.00	0.00	0.00	0.75	0.00	0.00	0.175781	-0.124512	1.187988	-52.360001	-33.389999	-9.450000	43.00	0.00	0.00
0.03	5.75	6.50	6.75	7.25	7.50	8.00	3.00	6.75	3.25	6.25	6.75	6.25	5.25	5.00	1.00	4.00	-0.210449	0.093262	0.954102	0.770000	7.280000	0.210000	956.00	-0.02	-0.10	0.25	1.00	0.25	1.00	0.25	0.25	2.00	0.50	0.25	0.00	0.00	0.00	0.00	0.75	0.00	0.00	-0.346680	0.274414	0.907227	-19.600000	-31.570000	-38.849998	79.00	-0.05	0.03
0.04	6.00	6.50	7.00	7.50	7.75	8.00	3.00	6.75	3.25	6.00	6.75	6.25	5.25	5.00	1.00	4.00	-0.209961	0.089844	0.949707	0.770000	7.140000	0.280000	965.00	-0.02	-0.10	0.25	0.50	0.75	1.25	0.50	0.25	2.25	0.75	0.50	0.00	0.25	0.00	0.25	1.00	0.25	0.50	-0.448242	0.226074	0.902832	-17.430000	-24.920000	-19.670000	108.00	0.01	0.01
0.05	6.00	6.50	6.75	7.50	7.50	8.00	3.00	6.75	3.25	6.25	7.00	6.00	5.25	4.00	1.00	4.00	-0.209473	0.090332	0.957520	1.120000	6.930000	0.700000	953.00	-0.03	-0.10	1.00	1.25	1.00	1.75	0.50	0.50	2.25	0.75	0.50	0.25	0.00	0.25	0.50	1.25	0.50	0.50	-0.225098	-0.003418	1.046387	-13.090000	-10.360000	-1.890000	143.00	-0.04	-0.01
0.06	6.25	6.50	7.00	7.50	7.50	8.00	3.00	6.75	3.25	6.25	6.75	6.00	5.25	4.50	1.25	4.00	-0.210449	0.096680	0.956055	1.470000	7.420000	0.910000	963.00	-0.03	-0.10	1.00	1.75	1.25	2.50	0.75	0.75	2.75	1.00	0.75	0.50	0.00	0.00	1.00	2.00	0.50	0.50	-0.140625	0.090332	0.979004	-5.460000	-7.280000	-1.260000	190.00	-0.03	-0.02
0.07	6.00	6.25	6.75	7.50	7.50	8.00	3.00	6.75	3.00	6.00	6.75	6.25	5.25	4.50	1.00	4.00	-0.209961	0.094727	0.953613	1.890000	7.560000	1.050000	949.00	-0.02	-0.10	1.50	1.75	1.75	2.75	1.00	0.75	2.75	1.00	1.25	0.50	0.50	0.75	1.25	2.25	0.50	0.50	-0.194336	0.158203	0.984375	-4.690000	-7.210000	-0.700000	230.00	-0.02	-0.02
0.08	5.75	6.50	7.00	7.50	7.50	8.00	3.00	6.75	3.00	6.00	7.00	6.00	5.25	4.75	1.00	4.25	-0.206055	0.092285	0.956055	1.890000	7.560000	0.910000	955.00	-0.02	-0.10	1.75	2.50	2.00	3.50	1.25	1.00	3.00	1.00	1.50	0.75	0.25	0.25	1.00	2.75	0.50	0.75	-0.219727	0.130859	1.002930	-8.750000	-6.860000	-0.700000	261.00	-0.04	-0.01
0.09	5.75	6.50	6.75	7.50	7.50	8.00	2.75	6.75	3.00	6.00	6.75	6.25	5.50	4.25	1.00	4.25	-0.204102	0.094727	0.958984	1.890000	7.700000	0.630000	947.00	-0.03	-0.11	2.25	2.75	2.25	3.75	1.50	1.00	3.25	1.25	1.75	0.75	0.25	0.50	1.00	3.00	0.50	0.75	-0.192383	0.108887	1.005371	-11.480000	-5.670000	-0.490000	293.00	-0.05	-0.01
0.10	5.50	6.50	6.75	7.50	7.25	8.00	2.75	6.75	3.25	6.00	6.75	6.00	5.50	4.25	1.00	4.25	-0.209961	0.102051	0.953613	2.030000	8.050000	0.210000	942.00	-0.02	-0.11	2.50	3.00	2.75	4.25	1.75	1.25	3.50	1.00	1.50	0.75	0.00	0.50	1.00	3.25	0.25	1.00	-0.197266	0.121582	1.004883	-10.640000	-3.010000	1.050000	309.00	-0.06	-0.01
0.11	5.50	6.25	6.50	7.50	7.25	7.75	2.75	6.75	2.75	6.00	6.75	6.50	5.25	4.00	1.00	4.25	-0.205566	0.101074	0.954590	1.960000	8.050000	-0.210000	929.00	-0.02	-0.11	2.50	3.00	2.75	4.25	1.75	1.50	3.25	1.25	2.25	1.00	0.25	0.50	1.25	3.25	0.75	1.00	-0.187500	0.107422	0.997070	-8.750000	-2.030000	1.330000	334.00	-0.04	-0.01
0.12	5.50	6.25	6.50	7.25	7.00	7.75	2.75	6.75	2.75	6.00	6.75	6.25	5.50	4.50	1.00	4.25	-0.205078	0.102539	0.953613	1.750000	8.330000	-0.770000	927.00	-0.02	-0.11	2.75	3.25	2.75	4.50	1.75	1.50	3.25	1.25	2.00	1.00	0.50	0.50	1.00	3.50	0.75	1.00	-0.183105	0.101562	0.988770	-5.460000	-0.840000	2.170000	341.00	-0.05	-0.01
0.13	5.50	6.25	6.25	7.00	6.75	7.75	2.75	6.75	2.75	6.00	6.50	6.25	5.50	4.50	1.00	4.00	-0.208008	0.104492	0.952148	1.260000	9.100000	-1.470000	915.00	-0.02	-0.11	2.50	3.25	2.75	4.50	1.75	1.25	3.25	1.50	2.00	1.25	0.50	0.25	1.75	3.50	0.75	1.00	-0.189453	0.107910	0.988770	-1.890000	0.280000	2.940000	346.00	-0.04	-0.02
0.14	5.25	5.75	6.25	6.75	6.75	7.50	2.75	6.50	2.75	6.00	7.00	6.25	5.50	4.25	1.00	4.25	-0.205078	0.097656	0.950684	1.120000	9.380000	-1.960000	903.00	-0.01	-0.11	2.75	3.00	2.75	4.75	1.75	1.50	3.25	1.25	2.25	1.25	0.50	0.50	1.25	3.50	0.75	1.00	-0.188965	0.107422	0.973633	1.050000	0.980000	3.570000	350.00	-0.04	-0.01
0.15	5.00	5.75	6.25	6.50	6.50	7.25	2.75	6.50	3.00	6.00	6.75	6.25	5.50	4.25	1.00	4.25	-0.207031	0.095215	0.950195	1.050000	9.800000	-2.450000	892.00	-0.01	-0.11	2.50	3.25	2.75	4.25	1.50	1.50	3.25	1.25	2.25	1.25	0.50	0.75	1.25	3.50	1.00	1.00	-0.193359	0.105957	0.975586	2.870000	1.260000	3.990000	346.00	-0.03	-0.01
0.16	4.50	5.50	6.00	6.50	6.25	7.25	2.75	6.50	2.75	6.00	6.75	6.25	5.50	4.50	1.00	4.50	-0.212402	0.097656	0.956543	1.050000	10.010000	-2.520000	880.00	-0.01	-0.11	2.25	2.75	2.50	4.25	1.75	1.25	3.25	1.50	2.00	1.25	0.50	0.75	2.00	3.50	0.75	1.00	-0.190918	0.110840	0.975586	3.920000	1.680000	4.270000	341.00	-0.02	-0.03
0.17	4.25	5.25	5.75	6.25	6.25	7.00	2.50	6.25	2.50	6.25	6.75	6.25	5.50	4.50	1.00	4.25	-0.213379	0.098633	0.949707	1.120000	10.220000	-2.590000	857.00	-0.00	-0.11	2.25	3.00	2.25	4.25	1.50	1.25	3.25	1.25	2.25	1.00	0.50	0.75	1.50	3.50	1.00	1.25	-0.187988	0.116699	0.965332	4.620000	1.820000	4.340000	334.00	-0.02	-0.02
0.18	4.00	5.25	5.75	6.00	6.00	6.75	2.50	6.25	2.75	6.25	6.75	6.25	5.50	4.75	1.00	4.50	-0.213867	0.096680	0.953613	1.190000	10.150000	-2.450000	853.00	0.00	-0.11	2.00	3.00	2.25	4.25	1.25	1.25	3.25	1.50	2.25	1.00	0.75	0.75	1.75	3.50	1.00	1.00	-0.185059	0.115723	0.963867	4.620000	1.820000	4.340000	336.00	-0.02	-0.03
0.19	3.75	5.00	5.50	6.00	5.75	6.75	2.50	6.25	2.75	6.00	6.75	6.25	5.25	4.50	1.00	4.25	-0.218262	0.097656	0.949219	0.980000	9.940000	-2.240000	834.00	0.00	-0.11	2.25	2.25	2.25	4.00	1.50	1.25	3.25	1.50	2.00	1.25	0.50	0.75	1.75	3.25	1.00	1.00	-0.183105	0.115234	0.966309	3.990000	1.610000	3.710000	326.00	-0.01	-0.02
0.20	3.25	5.00	5.50	5.75	5.75	6.50	2.50	6.25	3.00	6.00	6.75	6.00	5.25	4.25	1.00	4.25	-0.216797	0.103516	0.949219	0.840000	9.520000	-2.100000	822.00	0.01	-0.11	2.00	2.50	2.25	4.00	1.50	1.50	3.25	1.50	2.25	1.25	0.75	0.75	2.50	3.50	1.00	1.25	-0.195312	0.125488	0.960938	2.870000	1.120000	2.800000	345.00	-0.00	-0.03
0.21	3.75	4.75	5.50	5.75	5.50	6.50	2.50	6.25	2.75	6.00	7.00	6.25	5.50	4.25	1.00	4.25	-0.219727	0.102539	0.946777	0.490000	9.100000	-1.890000	826.00	0.01	-0.11	1.75	2.00	1.75	4.00	1.50	1.50	3.25	1.75	2.25	1.25	1.00	0.75	2.25	3.50	1.00	1.25	-0.187988	0.121094	0.960449	1.330000	0.700000	1.890000	336.00	0.01	-0.04
0.22	3.50	4.00	5.25	5.50	5.75	6.50	2.50	6.25	2.50	6.00	6.75	6.50	5.50	4.50	1.00	4.25	-0.219238	0.102051	0.947754	-0.630000	7.980000	-1.400000	813.00	0.01	-0.11	1.50	2.25	2.00	3.75	1.25	1.25	3.25	1.75	2.25	1.50	1.25	0.50	2.00	3.75	1.00	1.50	-0.190430	0.129883	0.963379	-0.420000	0.140000	0.840000	334.00	0.02	-0.03
0.23	3.50	4.75	5.50	5.50	5.50	6.50	2.50	6.25	3.00	6.25	6.50	6.25	5.25	5.00	0.75	4.50	-0.220215	0.101074	0.955566	-1.190000	7.280000	-1.260000	825.00	0.01	-0.11	1.75	2.50	2.00	4.00	1.25	1.25	3.25	1.75	2.50	1.25	0.75	1.25	2.25	3.75	1.00	1.25	-0.184570	0.119141	0.960938	-1.960000	-0.770000	0.350000	346.00	0.01	-0.04
0.24	3.50	4.50	5.25	5.50	5.50	6.50	2.50	6.25	2.50	6.00	6.75	6.50	5.25	4.50	0.75	4.25	-0.215820	0.101562	0.954102	-1.610000	6.860000	-1.120000	810.00	0.01	-0.11	1.75	2.25	2.00	3.75	1.50	1.25	3.25	2.00	2.25	1.25	0.75	0.75	2.50	4.00	1.00	1.25	-0.195312	0.115723	0.965820	-2.940000	-1.750000	0.140000	343.00	0.01	-0.04
0.25	3.50	4.50	5.50	5.75	5.50	7.00	2.50	6.25	2.50	6.25	6.75	6.25	5.50	4.50	0.75	4.25	-0.218750	0.106445	0.953125	-1.960000	6.300000	-0.980000	823.00	0.01	-0.11	1.50	2.50	2.00	4.00	1.50	1.25	3.25	1.75	2.50	1.25	1.00	0.75	2.50	4.25	1.00	1.50	-0.198730	0.116699	0.971680	-3.360000	-2.520000	0.420000	351.00	0.02	-0.03
0.26	3.25	4.50	5.50	5.75	5.75	6.75	2.50	6.25	2.75	6.25	7.00	6.25	5.50	4.50	1.00	4.25	-0.219238	0.102539	0.943359	-2.380000	5.880000	-0.980000	829.00	0.01	-0.11	1.50	2.25	2.00	3.75	1.50	1.50	3.25	1.75	2.50	1.25	1.00	1.00	2.50	4.25	1.00	1.25	-0.196777	0.121094	0.959473	-3.850000	-3.220000	0.840000	350.00	0.02	-0.03
0.27	3.50	4.50	5.75	5.50	5.75	6.75	2.50	6.25	2.75	6.25	7.00	6.50	5.25	4.50	1.00	4.25	-0.216309	0.103516	0.952148	-2.660000	5.810000	-1.050000	832.00	0.01	-0.11	1.75	2.75	2.00	3.75	1.50	1.50	3.25	1.75	2.50	1.50	0.75	1.00	2.25	4.00	1.00	1.25	-0.199707	0.114258	0.973633	-3.920000	-3.850000	1.470000	353.00	0.01	-0.03
0.28	3.50	4.50	6.00	5.75	5.75	7.00	2.50	6.25	2.75	6.00	7.00	6.50	5.25	4.25	1.00	4.25	-0.215820	0.099609	0.955078	-2.870000	6.020000	-1.050000	836.00	0.01	-0.11	1.75	2.25	2.00	3.75	1.50	1.50	3.25	1.75	2.50	1.25	0.75	1.25	2.50	4.25	1.00	1.25	-0.195312	0.110840	0.974609	-3.780000	-4.270000	2.100000	353.00	0.02	-0.03
0.29	3.50	4.50	5.75	5.50	5.75	6.75	2.75	6.25	2.75	6.25	6.75	6.50	5.25	4.50	1.00	4.25	-0.215820	0.102539	0.952637	-2.800000	5.950000	-1.050000	833.00	0.01	-0.11	1.75	2.50	2.25	4.25	1.50	1.50	3.25	1.75	2.50	1.50	1.00	1.00	2.25	4.00	1.25	1.25	-0.200684	0.113770	0.971680	-3.430000	-4.760000	2.800000	364.00	0.01	-0.03
0.30	3.25	4.50	6.00	5.75	5.75	7.00	2.50	6.25	2.50	6.25	7.00	6.25	5.25	4.50	1.00	4.25	-0.215820	0.099121	0.956055	-2.450000	5.600000	-0.980000	832.00	0.01	-0.11	1.75	3.00	2.25	4.25	1.75	1.75	3.25	1.75	2.50	1.50	1.00	1.00	2.25	4.00	1.25	1.25	-0.189941	0.114746	0.968262	-3.290000	-5.390000	3.500000	374.00	0.00	-0.04
0.31	3.75	5.00	6.00	5.75	5.75	7.00	2.50	6.25	2.50	6.00	7.00	6.25	5.50	4.75	1.00	4.50	-0.215332	0.099609	0.951660	-2.310000	5.530000	-0.840000	845.00	0.00	-0.11	2.00	2.50	2.25	4.00	1.75	1.75	3.25	2.00	2.50	1.75	0.75	1.00	2.25	4.00	1.00	1.25	-0.187012	0.118164	0.969727	-3.290000	-5.530000	3.570000	371.00	0.01	-0.04
0.32	3.50	4.75	6.00	5.75	5.75	7.00	2.50	6.25	2.50	6.50	7.00	6.50	5.25	4.50	1.00	4.50	-0.217773	0.100098	0.950195	-2.030000	5.950000	-0.980000	843.00	0.01	-0.11	2.00	3.00	2.50	4.50	1.75	1.75	3.25	2.00	2.50	1.50	1.00	1.25	2.25	3.75	1.00	1.25	-0.187500	0.116699	0.965820	-2.940000	-5.460000	3.710000	384.00	-0.01	-0.04
0.33	3.50	5.00	6.00	6.00	5.75	7.00	2.50	6.25	2.50	6.50	7.00	6.50	5.25	4.25	1.00	4.50	-0.220703	0.100098	0.949219	-1.820000	6.230000	-1.120000	846.00	0.00	-0.11	2.00	2.75	2.50	4.75	1.75	2.00	3.25	2.00	2.50	1.50	1.00	1.00	2.25	4.25	1.00	1.25	-0.189453	0.114258	0.970215	-2.660000	-5.110000	3.500000	389.00	-0.00	-0.04
0.34	4.00	5.00	6.00	5.75	6.00	7.00	2.50	6.25	2.50	6.25	6.75	6.25	5.50	4.25	0.75	4.50	-0.213867	0.101074	0.953613	-1.400000	6.020000	-1.120000	843.00	-0.00	-0.11	2.00	3.00	2.75	4.75	1.75	1.75	3.25	2.00	2.50	1.75	1.00	1.00	2.25	4.00	1.00	1.25	-0.180664	0.116699	0.969727	-2.590000	-4.690000	3.290000	392.00	-0.01	-0.04
0.35	3.75	5.00	6.00	6.00	6.00	6.75	2.50	6.25	2.50	6.75	7.00	6.25	5.50	4.00	1.00	4.25	-0.212402	0.106934	0.958008	-1.330000	6.230000	-1.190000	848.00	0.00	-0.11	2.50	3.00	2.75	4.75	1.75	2.00	3.25	2.00	2.50	1.50	1.00	1.00	2.50	4.00	1.00	1.25	-0.187500	0.118164	0.975586	-2.170000	-4.270000	2.940000	399.00	-0.02	-0.04
0.36	3.75	5.00	6.25	5.75	6.00	7.00	2.50	6.25	2.25	6.50	6.75	6.50	5.50	4.50	1.00	4.50	-0.209473	0.103516	0.952637	-1.330000	6.160000	-1.260000	850.00	0.00	-0.11	2.50	3.00	2.75	5.00	1.75	2.25	3.25	2.00	2.50	1.50	1.00	1.00	2.50	4.25	1.00	1.25	-0.188965	0.113281	0.977051	-1.750000	-3.920000	2.730000	407.00	-0.02	-0.04
0.37	3.75	4.50	6.00	5.75	6.00	7.00	2.50	6.25	2.50	6.25	6.75	6.25	5.50	4.00	1.00	4.25	-0.214355	0.099609	0.955078	-1.330000	6.160000	-1.330000	835.00	0.00	-0.11	2.25	3.00	2.50	5.00	1.75	2.00	3.25	2.00	2.25	1.50	0.75	1.00	2.25	3.75	1.00	1.25	-0.185547	0.116699	0.974121	-1.330000	-3.570000	2.450000	386.00	-0.02	-0.05
0.38	3.50	4.75	6.00	5.75	6.00	7.00	2.50	6.25	2.50	6.25	6.75	6.25	5.25	4.25	1.00	4.50	-0.219727	0.104004	0.955078	-1.330000	6.370000	-1.540000	836.00	0.00	-0.11	2.75	3.25	2.50	5.00	1.75	2.00	3.25	2.00	2.50	1.50	1.00	1.00	2.50	4.00	1.00	1.25	-0.188477	0.112793	0.967773	-0.980000	-3.360000	2.240000	404.00	-0.02	-0.04
0.39	3.50	4.75	6.25	5.75	5.75	7.00	2.75	6.25	2.50	6.25	7.00	6.25	5.50	4.50	1.00	4.50	-0.214355	0.101074	0.956055	-1.330000	6.440000	-1.540000	847.00	0.01	-0.11	2.50	3.00	2.50	5.00	1.75	2.00	3.25	2.00	2.50	1.50	1.00	1.00	2.50	3.75	1.25	1.25	-0.189941	0.117676	0.974609	-0.700000	-3.430000	2.100000	400.00	-0.01	-0.05
0.40	3.75	5.00	6.00	5.75	6.00	7.00	2.50	6.25	2.50	6.25	7.00	6.25	5.25	4.50	0.75	4.50	-0.213379	0.104004	0.951660	-1.330000	6.580000	-1.470000	843.00	0.00	-0.11	2.25	2.75	2.50	5.00	1.75	1.75	3.25	2.00	2.50	1.25	0.75	1.25	2.25	3.75	1.25	1.25	-0.188965	0.119629	0.966797	-0.280000	-3.290000	2.100000	387.00	-0.01	-0.04
0.41	3.75	4.50	6.25	5.75	6.00	7.25	2.50	6.25	2.50	6.75	6.75	6.25	5.25	4.50	1.00	4.50	-0.215332	0.104004	0.957031	-1.190000	6.440000	-1.400000	849.00	0.00	-0.11	2.50	3.00	2.50	5.00	1.75	2.00	3.25	2.00	2.25	1.25	1.00	0.75	2.25	4.00	1.25	1.25	-0.193359	0.116211	0.967773	-0.350000	-3.360000	2.240000	391.00	-0.02	-0.04
0.42	3.75	4.75	6.00	5.75	5.75	7.00	2.50	6.25	2.25	6.50	6.75	6.25	5.25	4.25	1.00	4.50	-0.214844	0.103027	0.955078	-1.260000	6.790000	-1.470000	835.00	0.00	-0.11	2.50	3.25	2.50	4.75	1.75	2.25	3.25	2.00	2.25	1.50	0.75	1.00	2.50	3.75	1.00	1.25	-0.193848	0.115723	0.966309	-0.630000	-3.640000	2.240000	394.00	-0.02	-0.05
0.43	4.00	5.00	6.00	5.75	5.75	7.00	2.50	6.00	2.25	6.50	7.00	6.25	5.50	4.25	1.00	4.50	-0.217285	0.106445	0.954102	-0.910000	7.070000	-1.330000	841.00	0.00	-0.11	2.50	3.00	2.75	5.00	1.75	2.25	3.25	2.00	2.25	1.25	0.75	0.75	2.00	3.75	1.00	1.25	-0.194824	0.119629	0.971191	-0.770000	-3.920000	2.590000	387.00	-0.03	-0.04
0.44	3.25	4.75	6.00	5.75	5.75	7.00	2.50	6.00	2.25	6.75	6.75	6.00	5.50	4.50	0.50	4.50	-0.221191	0.105469	0.950684	-0.700000	6.930000	-1.260000	825.00	0.00	-0.11	2.25	3.25	2.75	5.00	1.75	2.25	3.25	2.00	2.25	1.25	0.75	1.00	2.25	3.75	1.00	1.25	-0.193848	0.119141	0.963867	-0.840000	-4.550000	3.010000	392.00	-0.03	-0.05
0.45	3.50	4.75	6.00	5.75	5.75	6.75	2.50	6.00	2.25	6.50	7.25	6.00	5.25	4.00	1.00	4.50	-0.218262	0.106934	0.956543	-0.630000	7.210000	-1.190000	827.00	0.00	-0.11	2.75	3.50	3.00	5.25	1.75	2.25	3.00	2.25	2.25	1.50	0.75	1.00	2.25	3.50	1.25	1.25	-0.197266	0.115723	0.985352	0.070000	-5.740000	3.570000	408.00	-0.04	-0.05
0.46	3.75	4.50	6.00	5.75	5.50	6.75	2.50	6.00	2.50	6.25	7.00	6.00	5.25	4.25	0.75	4.50	-0.222168	0.097656	0.958496	0.420000	6.650000	-0.840000	822.00	0.00	-0.11	2.75	3.50	3.00	5.50	1.75	2.50	3.00	2.25	2.00	1.00	0.75	0.25	2.00	3.50	1.00	1.25	-0.188965	0.129883	0.974609	2.450000	-7.210000	4.550000	392.00	-0.05	-0.05
0.47	3.25	4.75	6.00	5.50	5.50	6.50	2.50	6.00	2.25	6.00	7.25	6.00	5.25	4.00	0.75	4.25	-0.219238	0.110352	0.954102	0.980000	6.790000	-0.700000	807.00	0.00	-0.11	3.00	4.00	3.00	5.75	2.00	2.50	3.00	2.25	2.00	1.25	0.75	0.75	2.00	3.00	1.00	1.00	-0.203613	0.116211	0.981445	3.990000	-9.100000	5.390000	407.00	-0.06	-0.06
0.48	3.50	4.50	6.00	5.50	5.25	6.75	2.50	5.75	2.25	6.25	6.75	6.00	5.00	4.00	1.00	4.50	-0.218262	0.104492	0.954590	0.980000	6.720000	-0.560000	802.00	0.00	-0.11	3.50	4.75	3.25	6.00	2.00	2.75	3.00	2.50	1.50	1.00	0.50	0.75	2.25	3.00	1.00	1.00	-0.204102	0.124023	0.975098	6.930000	-11.340000	6.370000	422.00	-0.08	-0.07
0.49	3.25	4.50	5.50	5.50	5.50	6.50	2.50	5.75	1.75	6.25	6.75	6.00	5.00	4.00	1.00	4.25	-0.222168	0.110352	0.953125	0.560000	6.230000	-0.350000	786.00	0.00	-0.12	4.00	5.00	3.50	6.25	2.00	3.00	3.00	2.25	1.75	1.25	0.25	0.75	1.75	2.75	0.75	1.00	-0.190918	0.122559	0.976562	8.050000	-13.020000	7.280000	428.00	-0.10	-0.06
0.50	3.25	4.50	5.75	5.50	5.25	6.50	2.25	5.75	1.75	6.25	6.75	5.75	4.75	4.00	0.75	4.25	-0.224609	0.102539	0.961914	-0.000000	5.810000	-0.350000	775.00	0.00	-0.12	4.50	5.50	4.00	7.00	2.00	3.25	3.00	2.50	1.25	0.75	0.25	0.25	1.75	2.50	0.75	0.75	-0.190918	0.126465	0.979980	10.920000	-17.430000	8.960000	437.00	-0.13	-0.07
0.51	3.25	4.50	5.75	5.50	5.25	6.50	2.50	5.50	1.75	6.00	6.50	5.75	5.00	3.50	0.75	4.25	-0.220215	0.114258	0.958008	0.280000	4.480000	-0.070000	768.00	-0.00	-0.12	5.25	6.25	4.50	7.50	2.25	3.75	2.75	2.50	1.25	0.50	0.25	0.50	1.50	2.25	0.75	0.75	-0.195312	0.142090	0.982910	11.270000	-18.480000	9.730000	463.00	-0.15	-0.07
0.52	3.75	4.75	5.50	5.75	5.25	6.50	2.25	5.50	1.75	5.75	6.50	5.50	4.50	3.25	0.75	4.00	-0.210938	0.107422	0.973633	0.070000	3.640000	0.140000	758.00	-0.01	-0.12	6.25	7.50	5.25	8.25	2.25	4.50	2.75	2.25	0.50	0.50	0.00	0.25	1.25	2.00	0.50	0.75	-0.179199	0.134766	0.979004	11.340000	-19.460001	9.870000	484.00	-0.18	-0.08
0.53	3.75	4.75	6.00	5.75	5.00	6.25	2.25	5.25	1.25	6.00	6.25	5.00	4.25	3.25	0.50	4.00	-0.225098	0.106445	0.961426	-0.280000	2.590000	0.210000	738.00	-0.02	-0.11	7.25	8.75	6.25	9.00	2.25	4.25	2.75	2.25	0.50	0.25	0.00	0.25	1.25	2.00	0.50	0.50	-0.171875	0.135742	0.968750	10.780000	-19.389999	9.730000	519.00	-0.20	-0.07
0.54	3.75	5.00	6.00	5.50	5.00	6.25	2.25	5.25	1.25	5.75	6.25	5.25	4.00	2.75	0.50	4.00	-0.216797	0.103516	0.954590	-0.770000	1.890000	0.350000	731.00	-0.02	-0.11	9.00	9.75	6.50	9.50	2.25	4.50	2.75	2.25	0.75	0.25	0.00	0.00	1.25	1.75	0.25	0.50	-0.173828	0.144043	0.975098	10.290000	-19.110001	9.240000	553.00	-0.21	-0.07
0.55	3.75	5.00	6.25	5.75	5.00	6.00	2.25	5.00	1.25	5.50	6.00	5.00	3.75	3.00	0.75	4.00	-0.213867	0.102051	0.961426	-0.980000	0.910000	0.560000	725.00	-0.02	-0.11	9.75	10.50	7.25	10.00	2.25	5.00	2.50	2.25	0.75	0.00	0.00	0.00	0.25	1.50	0.50	0.50	-0.158203	0.130859	0.970703	9.590000	-18.480000	8.750000	572.00	-0.23	-0.07
0.56	4.00	5.25	6.00	5.75	5.00	6.50	2.25	5.00	1.25	5.25	6.00	4.75	3.50	2.75	0.50	3.75	-0.214844	0.105469	0.955078	-1.190000	-0.070000	0.700000	719.00	-0.03	-0.11	11.00	11.50	7.75	10.25	2.50	5.00	2.50	2.25	0.50	0.00	0.00	0.00	1.00	1.25	0.50	0.50	-0.154297	0.137207	0.975098	9.450000	-18.200001	8.610000	606.00	-0.24	-0.07
0.57	4.25	5.25	6.25	5.75	5.00	6.25	2.00	4.75	1.00	5.25	5.75	5.00	3.25	2.50	0.50	3.75	-0.206543	0.103516	0.952148	-1.400000	-0.350000	0.560000	707.00	-0.04	-0.11	12.25	12.50	8.00	10.50	2.50	5.00	2.50	2.00	0.50	0.00	0.00	0.00	0.50	1.25	0.25	0.25	-0.180664	0.154297	0.974121	10.430000	-18.760000	8.120000	622.00	-0.25	-0.06
0.58	4.50	5.25	6.50	6.00	4.75	6.50	2.00	4.50	1.00	5.50	5.75	4.75	3.00	2.25	0.50	3.75	-0.213379	0.105469	0.956055	-0.980000	-0.770000	0.420000	706.00	-0.04	-0.11	13.00	13.00	8.00	10.75	2.50	5.00	2.50	2.00	0.50	0.00	0.00	0.00	0.50	1.00	0.25	0.25	-0.145020	0.135254	0.969238	9.870000	-19.389999	6.930000	635.00	-0.26	-0.06
0.59	4.50	5.50	6.50	6.00	4.75	6.25	2.00	4.00	1.00	5.00	5.75	4.50	2.50	2.25	0.25	3.75	-0.212402	0.105957	0.955078	-1.050000	-1.120000	0.350000	684.00	-0.05	-0.10	13.75	13.75	8.25	11.25	2.25	5.00	2.50	2.00	0.25	0.00	0.00	0.00	0.50	1.25	0.25	0.25	-0.124512	0.142578	0.966309	10.010000	-19.530001	6.300000	654.00	-0.26	-0.06
0.60	4.75	5.75	6.50	6.00	4.75	6.25	2.00	4.00	1.25	5.00	6.00	4.50	2.25	2.00	0.50	3.50	-0.199707	0.104004	0.947754	-1.190000	-1.190000	0.490000	691.00	-0.05	-0.10	14.75	14.75	8.75	11.00	2.25	5.00	2.50	1.75	0.25	0.00	0.00	0.00	0.25	1.00	0.00	0.25	-0.142090	0.149902	0.963867	10.010000	-19.600000	5.810000	666.00	-0.27	-0.06
0.61	5.25	5.75	6.50	6.00	4.50	6.00	2.00	3.50	0.75	5.00	5.50	4.25	2.25	2.00	0.25	3.50	-0.202148	0.107422	0.945801	-1.750000	-0.700000	0.490000	666.00	-0.06	-0.10	15.75	15.00	8.75	11.75	2.25	5.00	2.50	1.50	0.25	0.00	0.00	0.00	0.00	0.75	0.00	0.00	-0.148926	0.137695	0.962402	10.220000	-19.250000	5.460000	677.00	-0.28	-0.05
0.62	5.25	5.75	6.50	6.25	4.25	5.75	2.00	3.50	0.75	5.00	5.50	3.75	1.25	2.25	0.50	3.50	-0.198730	0.104492	0.952637	-2.170000	-0.070000	0.210000	655.00	-0.06	-0.09	16.25	15.75	8.75	11.75	2.25	5.00	2.25	1.25	0.25	0.00	0.00	0.00	0.00	1.00	0.25	0.25	-0.142578	0.144043	0.985840	11.060000	-19.180000	5.110000	688.00	-0.28	-0.05
0.63	5.50	6.00	6.50	6.00	4.25	5.75	1.75	3.00	0.75	4.75	5.75	4.00	1.50	1.75	0.25	3.50	-0.204102	0.105957	0.958984	-2.170000	0.420000	0.210000	643.00	-0.07	-0.09	16.75	16.00	9.00	11.75	2.00	5.00	2.25	1.25	0.00	0.00	0.00	0.00	0.25	1.00	0.25	0.25	-0.131836	0.151367	0.975098	10.920000	-19.110001	4.410000	694.00	-0.29	-0.06
0.64	6.00	6.00	6.50	6.00	4.25	5.75	2.00	3.00	0.50	4.50	5.75	4.00	1.50	1.75	0.25	3.50	-0.197266	0.100098	0.946777	-2.030000	-0.070000	0.560000	646.00	-0.07	-0.09	17.25	16.50	9.00	12.00	2.00	5.00	2.25	1.25	0.25	0.00	0.00	0.00	0.00	0.50	0.00	0.00	-0.131348	0.157227	0.967285	10.990000	-18.620001	4.200000	699.00	-0.29	-0.05
0.65	6.00	6.25	6.75	6.00	4.25	5.50	1.75	2.75	0.50	4.50	5.50	3.50	1.75	1.25	0.25	3.50	-0.194336	0.107422	0.952148	-2.310000	0.280000	0.350000	631.00	-0.08	-0.09	17.75	16.75	9.00	12.25	2.00	5.00	2.25	1.25	0.25	0.00	0.00	0.00	0.00	0.75	0.00	0.00	-0.137207	0.158691	0.977539	11.480000	-18.270000	4.200000	712.00	-0.29	-0.05
0.66	6.00	6.50	6.50	6.00	4.00	5.50	1.75	2.50	0.75	4.75	5.50	3.50	1.25	1.50	0.25	3.50	-0.193848	0.100586	0.953125	-2.170000	0.420000	0.210000	628.00	-0.08	-0.09	17.50	16.50	9.00	12.00	1.75	4.75	2.25	1.00	0.00	0.00	0.00	0.00	0.00	0.75	0.00	0.00	-0.133301	0.154297	0.963379	11.970000	-18.620001	3.850000	692.00	-0.30	-0.05
0.67	5.75	6.50	6.50	6.25	4.00	5.50	1.75	2.25	0.50	4.50	5.50	3.50	1.00	1.50	0.00	3.50	-0.191406	0.095703	0.945801	-2.310000	0.700000	0.140000	613.00	-0.09	-0.09	17.75	17.25	9.00	12.25	1.50	4.50	2.25	1.00	0.00	0.00	0.00	0.00	0.00	1.00	0.00	0.00	-0.117676	0.171875	0.963379	12.320000	-17.920000	3.570000	701.00	-0.30	-0.05
0.68	6.25	7.00	6.75	6.25	4.00	5.25	1.75	2.25	0.50	4.25	5.50	3.25	1.00	1.75	0.25	3.50	-0.186035	0.106934	0.954590	-2.660000	0.910000	0.280000	623.00	-0.09	-0.08	17.75	17.00	9.00	12.00	1.75	4.25	2.25	1.00	0.00	0.00	0.00	0.00	0.00	0.50	0.00	0.00	-0.125977	0.165039	0.971680	12.670000	-17.780001	3.850000	691.00	-0.30	-0.05
0.69	6.75	6.75	6.50	6.25	3.75	5.25	1.75	2.00	0.50	4.25	5.25	3.25	1.00	1.50	0.50	3.50	-0.191406	0.093262	0.959961	-2.310000	0.630000	0.350000	614.00	-0.09	-0.08	18.00	17.25	9.00	12.25	1.50	4.50	2.25	0.75	0.00	0.00	0.00	0.00	0.00	0.75	0.00	0.00	-0.125000	0.166504	0.965820	12.880000	-17.710001	3.780000	697.00	-0.30	-0.05
0.70	6.75	7.00	6.75	6.25	3.75	5.25	1.75	2.00	0.25	4.25	5.50	3.25	1.00	1.50	0.00	3.25	-0.198242	0.101562	0.954590	-1.820000	0.770000	0.350000	612.00	-0.10	-0.08	17.75	17.50	9.00	12.25	1.50	4.50	2.25	0.75	0.25	0.00	0.00	0.00	0.00	0.50	0.00	0.00	-0.118164	0.173828	0.951172	11.690000	-15.120000	3.290000	698.00	-0.30	-0.05
0.71	7.25	7.50	6.75	6.50	3.50	5.25	1.75	2.00	0.00	4.00	5.50	3.25	1.00	1.25	0.25	3.75	-0.192383	0.107422	0.944336	-1.750000	1.190000	0.140000	619.00	-0.11	-0.09	18.50	17.25	9.00	12.25	1.50	4.25	2.25	0.75	0.00	0.00	0.00	0.00	0.00	0.50	0.00	0.00	-0.117676	0.177734	0.954102	10.360000	-13.860000	2.940000	698.00	-0.31	-0.05
0.72	7.25	8.00	7.00	6.50	3.50	5.25	1.50	2.00	0.00	4.00	5.25	3.25	0.75	1.00	0.25	3.50	-0.190918	0.099609	0.951172	-1.750000	1.610000	0.140000	614.00	-0.12	-0.09	18.25	17.50	9.00	12.25	1.50	4.25	2.25	0.75	0.00	0.00	0.00	0.00	0.00	0.50	0.00	0.00	-0.109375	0.180176	0.950684	8.610000	-12.250000	2.380000	697.00	-0.31	-0.05
0.73	7.25	8.00	7.00	6.75	3.75	5.00	1.75	2.00	0.25	4.00	5.25	3.25	0.75	1.25	0.50	3.50	-0.193848	0.100098	0.954102	-1.470000	1.540000	0.280000	629.00	-0.11	-0.08	18.75	17.50	9.00	12.25	1.50	4.00	2.00	0.75	0.00	0.00	0.00	0.00	0.00	0.25	0.00	0.00	-0.117676	0.175781	0.955566	7.420000	-10.920000	2.100000	694.00	-0.31	-0.05
0.74	7.50	8.50	7.00	6.75	3.50	5.25	1.50	2.00	0.50	3.75	5.00	3.25	1.00	1.00	0.25	3.50	-0.191895	0.110352	0.949707	-1.470000	1.890000	0.210000	628.00	-0.12	-0.09	18.75	17.50	9.00	12.50	1.25	4.25	2.25	0.75	0.00	0.00	0.00	0.00	0.00	0.75	0.00	0.00	-0.108398	0.189941	0.951660	6.020000	-9.660000	1.750000	705.00	-0.31	-0.05
0.75	7.75	8.50	7.25	7.00	3.50	5.00	1.75	1.75	0.50	4.00	5.50	3.50	0.50	1.25	0.00	3.50	-0.188477	0.101074	0.952148	-1.330000	1.750000	0.350000	639.00	-0.12	-0.08	18.75	17.50	9.00	12.25	1.25	4.00	2.25	0.50	0.00	0.00	0.00	0.00	0.00	0.75	0.00	0.00	-0.114258	0.191406	0.973145	4.690000	-8.400000	1.400000	695.00	-0.31	-0.05
0.76	8.00	8.75	7.25	7.25	3.50	5.25	1.50	1.75	0.25	4.00	5.25	3.25	0.75	1.25	0.25	3.25	-0.190430	0.104980	0.948242	-1.470000	2.380000	0.000000	640.00	-0.12	-0.08	18.50	17.25	9.25	12.25	1.00	4.00	2.25	0.75	0.00	0.00	0.00	0.00	0.00	0.50	0.00	0.00	-0.118652	0.182617	0.959961	3.640000	-7.560000	0.840000	692.00	-0.31	-0.05
0.77	8.75	9.50	7.25	7.25	3.75	5.25	1.75	1.75	0.25	4.00	5.25	3.25	0.50	1.50	0.00	3.25	-0.184082	0.099121	0.942383	-1.260000	2.870000	-0.070000	659.00	-0.13	-0.08	18.25	17.25	9.00	12.25	1.25	4.00	2.00	0.50	0.00	0.00	0.00	0.00	0.00	0.50	0.00	0.00	-0.109375	0.183105	0.945312	1.820000	-6.230000	0.280000	682.00	-0.31	-0.05
0.78	8.75	9.75	7.50	7.50	3.50	5.25	1.50	1.75	0.25	3.75	5.25	3.25	0.50	1.00	0.25	3.50	-0.187988	0.098145	0.953613	-0.840000	3.080000	-0.210000	657.00	-0.14	-0.08	17.75	17.25	8.75	12.00	1.25	4.00	2.00	0.75	0.00	0.00	0.00	0.00	0.00	0.50	0.00	0.00	-0.108887	0.197266	0.963379	0.140000	-4.690000	-0.140000	675.00	-0.31	-0.05
0.79	9.00	10.25	7.50	7.50	3.50	5.25	1.75	2.00	0.25	3.75	5.25	3.25	0.50	1.25	0.25	3.50	-0.187012	0.105469	0.950684	-0.350000	3.150000	-0.280000	674.00	-0.14	-0.08	17.75	17.00	8.75	12.00	1.25	3.75	2.25	0.50	0.00	0.00	0.00	0.00	0.00	0.25	0.00	0.00	-0.111328	0.181152	0.948242	-1.260000	-3.500000	-0.350000	668.00	-0.31	-0.05
0.80	9.25	10.75	7.50	8.00	3.25	5.25	1.50	1.75	0.75	4.00	5.00	3.50	0.50	0.75	0.25	3.50	-0.195801	0.099609	0.951172	-0.000000	3.150000	-0.280000	682.00	-0.14	-0.08	17.50	16.75	8.75	11.75	1.00	4.00	2.00	0.50	0.00	0.00	0.00	0.00	0.00	0.50	0.00	0.00	-0.098633	0.181641	0.933105	-3.430000	-1.680000	-0.560000	658.00	-0.31	-0.05
0.81	9.75	10.75	7.75	8.00	4.00	5.25	1.75	2.00	0.25	3.75	5.25	3.25	0.25	1.00	0.25	3.50	-0.191895	0.109863	0.951660	0.140000	3.360000	-0.420000	696.00	-0.15	-0.08	17.25	16.50	8.75	11.75	1.00	3.75	2.00	0.50	0.00	0.00	0.00	0.00	0.00	0.25	0.00	0.00	-0.108887	0.207520	0.937988	-5.250000	-0.350000	-0.770000	649.00	-0.31	-0.05
0.82	9.75	11.50	8.00	8.50	4.25	5.50	1.50	2.00	0.00	3.75	5.25	3.00	0.50	1.25	0.00	3.50	-0.187012	0.099121	0.956543	0.210000	3.570000	-0.490000	709.00	-0.15	-0.08	16.75	16.25	8.50	11.50	1.00	3.50	2.25	0.50	0.25	0.00	0.00	0.00	0.00	0.75	0.00	0.00	-0.110352	0.189941	0.955078	-7.420000	1.470000	-1.120000	644.00	-0.30	-0.04
0.83	10.25	12.50	8.00	8.50	4.00	5.75	1.50	2.00	0.25	3.75	5.00	3.00	0.25	0.75	0.25	3.50	-0.186523	0.104004	0.954590	0.350000	3.710000	-0.630000	720.00	-0.16	-0.08	16.75	16.25	8.50	11.50	1.00	3.25	2.00	0.50	0.00	0.00	0.00	0.00	0.00	0.50	0.00	0.00	-0.105957	0.199219	0.935547	-9.940000	3.710000	-1.050000	632.00	-0.31	-0.05
0.84	10.50	12.50	8.25	8.75	4.75	5.75	1.50	2.00	0.25	4.00	5.25	3.25	0.50	0.75	0.00	3.50	-0.181641	0.105469	0.948242	0.280000	4.200000	-0.700000	744.00	-0.16	-0.08	16.50	15.50	8.25	11.25	1.00	3.00	2.25	0.50	0.00	0.00	0.00	0.00	0.00	0.50	0.00	0.00	-0.106934	0.193359	0.940918	-12.320000	6.510000	-0.980000	618.00	-0.31	-0.04
0.85	11.00	12.50	8.50	8.75	4.50	6.00	1.50	2.00	0.00	3.50	5.25	3.00	0.50	1.00	0.00	3.50	-0.181641	0.101074	0.948730	0.070000	5.110000	-1.050000	743.00	-0.16	-0.08	15.75	15.50	8.25	11.25	1.25	3.25	2.25	0.50	0.25	0.00	0.00	0.00	0.00	0.25	0.00	0.00	-0.111816	0.192871	0.952148	-14.630000	8.750000	-0.840000	617.00	-0.30	-0.04
0.86	11.50	13.25	8.25	9.00	4.75	6.25	1.75	2.25	0.25	3.75	5.25	2.75	0.50	1.00	0.00	3.50	-0.183594	0.104980	0.951660	-0.000000	5.110000	-1.120000	771.00	-0.16	-0.08	15.25	15.00	8.25	11.00	1.00	3.25	2.25	0.75	0.00	0.00	0.00	0.00	0.00	0.50	0.00	0.00	-0.114258	0.192383	0.930176	-17.360001	10.920000	-0.490000	605.00	-0.30	-0.05
0.87	12.00	13.75	8.50	9.25	4.75	6.50	1.75	2.25	0.00	3.75	5.25	3.00	0.50	1.00	0.25	3.50	-0.188477	0.100098	0.958984	0.350000	5.250000	-1.330000	791.00	-0.17	-0.08	15.25	14.75	8.00	10.75	1.00	3.00	2.25	0.75	0.00	0.00	0.00	0.00	0.00	0.50	0.00	0.00	-0.105957	0.178223	0.931641	-20.230000	14.210000	-0.420000	594.00	-0.30	-0.05
0.88	12.50	14.00	8.75	9.25	5.00	6.50	1.75	2.25	0.00	3.75	5.25	3.25	0.75	1.00	0.00	3.50	-0.186035	0.104492	0.953613	0.910000	5.250000	-1.680000	806.00	-0.17	-0.08	14.50	14.25	7.75	10.50	1.00	2.75	2.25	0.75	0.25	0.00	0.00	0.00	0.00	0.50	0.00	0.00	-0.114258	0.170898	0.927246	-21.980000	17.010000	-0.560000	577.00	-0.30	-0.04
0.89	12.50	14.50	8.75	9.50	5.25	6.75	1.75	2.25	0.25	3.75	5.00	3.50	0.50	1.00	0.00	3.50	-0.179688	0.104492	0.951172	0.980000	5.390000	-1.750000	820.00	-0.17	-0.08	13.75	13.75	7.75	10.50	1.00	2.75	2.25	0.50	0.25	0.00	0.00	0.00	0.00	0.50	0.00	0.00	-0.124512	0.160645	0.942871	-24.010000	19.110001	-1.120000	561.00	-0.30	-0.04
0.90	12.75	14.50	9.00	9.75	5.25	7.25	1.75	2.75	0.25	3.75	5.25	3.25	0.75	1.00	0.00	3.50	-0.181152	0.104004	0.950195	1.400000	5.320000	-1.820000	843.00	-0.17	-0.08	13.50	13.00	7.50	10.00	1.00	2.75	2.25	0.75	0.25	0.00	0.00	0.00	0.00	0.50	0.00	0.00	-0.123047	0.162109	0.943848	-28.000000	23.870001	-2.310000	547.00	-0.29	-0.04
0.91	13.00	15.00	9.00	10.00	5.25	7.25	1.75	2.75	0.00	3.75	5.00	3.25	0.50	0.75	0.00	3.50	-0.179688	0.104004	0.949707	1.680000	5.950000	-2.310000	843.00	-0.18	-0.09	12.25	12.25	7.25	9.75	0.75	2.75	2.25	0.75	0.25	0.00	0.00	0.00	0.00	0.75	0.00	0.00	-0.138672	0.166504	0.967285	-31.219999	25.270000	-3.150000	521.00	-0.29	-0.05
0.92	13.75	15.50	9.00	10.00	5.50	7.50	1.75	3.00	0.00	3.75	5.00	3.25	0.50	1.00	0.25	3.75	-0.177734	0.100098	0.943359	2.100000	6.230000	-2.590000	871.00	-0.18	-0.09	11.25	11.50	6.50	9.50	1.00	2.50	2.25	1.00	0.25	0.00	0.00	0.00	0.00	0.75	0.00	0.00	-0.136719	0.145508	0.951172	-34.090000	26.250000	-4.200000	496.00	-0.28	-0.05
0.93	14.00	15.75	9.25	10.50	5.75	7.75	1.75	3.75	0.25	3.75	5.00	3.50	0.75	1.50	0.00	3.75	-0.177246	0.100098	0.956055	2.800000	6.090000	-2.660000	911.00	-0.17	-0.09	9.75	10.00	6.00	9.00	1.00	2.00	2.25	0.75	0.25	0.00	0.00	0.00	0.25	0.50	0.00	0.00	-0.137695	0.138184	1.012207	-33.320000	25.969999	-5.600000	447.00	-0.28	-0.05
0.94	14.50	16.25	9.25	11.00	6.00	8.25	1.75	3.75	0.25	4.00	5.25	3.50	1.00	1.25	0.25	3.75	-0.186035	0.103516	0.937988	3.570000	5.460000	-2.660000	942.00	-0.17	-0.09	8.50	8.75	5.50	8.50	1.00	1.75	2.25	1.00	0.25	0.00	0.00	0.00	0.25	1.00	0.25	0.00	-0.151367	0.126465	0.979004	-29.400000	25.059999	-8.190000	419.00	-0.26	-0.05
0.95	15.00	16.75	9.75	11.25	6.00	8.50	2.00	4.75	0.50	3.75	5.00	3.50	0.75	1.00	0.00	3.75	-0.178223	0.103516	0.939941	4.200000	5.810000	-3.080000	973.00	-0.17	-0.09	6.50	7.50	5.00	7.50	1.00	1.50	2.25	1.00	0.25	0.25	0.00	0.00	0.50	1.00	0.50	0.25	-0.170410	0.134766	1.001953	-23.240000	25.620001	-10.500000	376.00	-0.23	-0.05
0.96	15.25	17.50	9.75	12.00	6.50	9.00	2.00	5.00	0.00	3.75	5.25	3.50	1.25	1.50	0.25	3.75	-0.184082	0.106445	0.941406	4.830000	5.600000	-3.430000	1013.00	-0.17	-0.10	5.25	6.25	3.50	6.50	0.75	1.00	2.50	1.00	0.50	0.25	0.00	0.25	0.50	1.00	0.25	0.25	-0.109375	0.147949	1.041504	-17.500000	27.650000	-13.860000	323.00	-0.21	-0.05
0.97	15.75	18.25	10.25	12.50	7.00	9.75	2.00	5.50	0.50	3.75	5.25	3.50	1.50	1.25	0.25	3.75	-0.167969	0.110352	0.931641	4.970000	5.390000	-3.710000	1064.00	-0.17	-0.10	3.75	5.00	2.50	5.25	0.50	0.25	2.50	1.00	0.25	0.25	0.25	0.00	0.75	1.25	0.25	0.25	-0.167969	0.153320	1.026367	-15.470000	30.660000	-17.990000	261.00	-0.18	-0.05
0.98	16.50	19.00	11.00	13.25	7.50	10.75	2.25	6.00	0.50	4.00	5.25	3.75	1.75	1.75	0.00	4.00	-0.185547	0.116211	0.946289	4.270000	5.320000	-3.920000	1133.00	-0.17	-0.10	2.50	2.50	1.75	3.75	0.25	0.00	2.50	0.50	0.50	0.50	0.00	0.50	0.75	1.25	0.50	0.25	-0.111816	0.167480	1.085938	-17.500000	37.520000	-21.559999	199.00	-0.11	-0.02
0.99	17.75	19.75	11.25	14.00	8.25	11.50	2.25	6.50	0.50	4.00	5.50	4.00	2.25	1.75	0.25	4.00	-0.168945	0.111816	0.907715	3.080000	5.740000	-4.060000	1200.00	-0.17	-0.10	1.50	2.25	1.25	3.25	0.25	0.25	2.25	0.50	0.75	0.50	0.00	0.50	0.75	1.50	0.50	0.25	-0.093262	0.190918	1.476562	-8.050000	65.519997	-30.730000	179.00	-0.07	-0.02
1.00	18.00	20.50	12.00	14.75	8.75	12.75	2.50	7.00	0.50	4.25	5.50	4.25	2.50	1.75	0.50	4.25	-0.175781	0.114258	0.931152	0.630000	7.420000	-4.200000	1268.00	-0.17	-0.10	1.25	1.25	1.00	1.75	0.00	0.00	2.25	0.25	0.75	0.50	0.00	0.00	0.50	1.25	0.25	0.50	-0.322754	0.327148	1.251465	-4.970000	104.720001	-45.430000	128.00	-0.04	0.04
1.01	19.00	21.50	12.50	15.75	9.75	13.50	2.50	7.75	0.50	4.25	5.75	4.75	3.00	2.00	0.25	4.00	-0.198730	0.111328	0.967773	-1.680000	9.240000	-4.410000	1345.00	-0.17	-0.11	1.25	1.50	0.75	2.25	0.00	0.00	2.00	0.25	0.50	0.25	0.25	0.25	0.00	1.50	0.25	0.25	-0.329102	0.364258	1.359863	-10.290000	151.899994	-64.540001	125.00	-0.06	0.02
1.02	19.50	21.75	12.75	16.00	10.25	14.75	2.75	8.00	0.50	4.25	6.00	4.75	3.75	2.00	0.50	4.25	-0.188477	0.120605	0.969238	-2.800000	10.290000	-4.270000	1398.00	-0.16	-0.11	1.00	1.25	0.75	2.00	0.00	0.00	2.00	0.00	0.25	0.00	0.00	0.00	0.00	1.50	0.00	0.00	-0.350098	0.531738	1.199219	-33.250000	189.210007	-86.730003	98.00	-0.09	0.06
1.03	19.25	21.75	13.00	16.25	11.00	15.25	3.00	8.50	0.75	4.75	6.00	5.00	4.25	2.00	0.50	4.50	-0.166504	0.124512	0.953613	-3.990000	11.830000	-4.130000	1443.00	-0.16	-0.11	0.75	1.00	0.75	1.00	0.00	0.00	2.00	0.00	0.50	0.00	0.00	0.00	0.00	0.75	0.00	0.00	-0.158691	0.607910	1.565430	-39.270000	204.960007	-104.440002	80.00	-0.07	0.10
1.04	19.25	21.75	13.00	16.50	11.50	16.00	3.00	9.00	0.25	5.00	6.25	5.50	4.75	2.75	0.50	4.50	-0.181641	0.117188	0.964355	-4.900000	14.000000	-4.200000	1481.00	-0.15	-0.11	0.75	0.75	0.75	1.25	0.00	0.00	2.00	0.00	0.25	0.00	0.00	0.00	0.00	0.50	0.00	0.00	-0.232910	0.216309	1.956055	-64.050003	195.649994	-113.050003	75.00	-0.10	0.09
1.05	18.50	21.25	12.75	16.50	12.00	16.25	3.25	9.50	1.00	5.00	6.50	6.00	5.50	2.50	0.75	4.50	-0.184570	0.116211	0.964844	-5.110000	15.820000	-4.340000	1511.00	-0.14	-0.11	0.75	0.75	0.50	1.00	0.00	0.00	2.00	0.00	0.00	0.00	0.00	0.00	0.00	0.25	0.00	0.00	0.921875	0.578613	1.741699	-108.360001	181.509995	-118.020004	64.00	-0.12	0.09
1.06	18.00	20.75	12.75	16.00	12.00	16.50	3.50	9.75	1.25	5.75	6.75	6.50	6.25	2.75	0.75	4.75	-0.187500	0.120605	0.976562	-2.730000	17.920000	-3.570000	1535.00	-0.13	-0.11	0.25	0.75	0.25	2.00	0.00	0.00	2.00	0.00	0.00	0.00	0.00	0.00	0.00	0.25	0.00	0.00	1.684570	1.398438	2.475098	-113.260002	133.419998	-122.779999	67.00	-0.11	0.03
1.07	16.75	19.25	12.25	15.50	12.25	16.50	3.50	10.00	1.50	6.00	7.25	7.00	6.75	3.00	1.00	5.00	-0.188965	0.121582	0.959961	-1.050000	18.969999	-3.290000	1530.00	-0.12	-0.12	0.25	0.75	0.25	0.50	0.00	0.00	2.00	0.00	0.00	0.00	0.00	0.00	0.00	0.25	0.00	0.00	2.420410	1.291504	1.791992	-48.650002	60.270000	-97.160004	50.00	-0.06	0.12
1.08	16.00	18.00	11.75	15.00	12.00	16.50	3.75	10.50	1.75	6.50	7.75	7.50	7.00	3.00	1.00	5.00	-0.192871	0.120605	0.968750	0.280000	20.719999	-3.080000	1530.00	-0.11	-0.12	0.25	0.25	0.00	0.50	0.00	0.00	2.00	0.00	0.00	0.00	0.00	0.00	0.00	0.25	0.00	0.00	2.059082	1.376465	0.996582	-33.180000	18.270000	-71.330002	43.00	0.00	0.00
1.09	14.50	16.25	11.25	14.00	11.75	16.25	3.75	10.75	2.00	7.25	8.00	8.25	7.50	3.75	1.25	5.25	-0.186035	0.134277	0.943359	1.750000	21.910000	-2.940000	1516.00	-0.09	-0.12	0.25	0.75	0.25	0.25	0.00	0.00	2.00	0.00	0.00	0.00	0.00	0.00	0.00	0.25	0.00	0.00	2.146973	1.630371	0.991211	-12.530000	2.380000	-42.840000	47.00	0.00	0.00
1.10	12.00	14.25	10.25	12.75	11.50	16.25	3.75	11.00	2.00	7.50	8.25	8.75	8.00	3.75	1.25	5.50	-0.205078	0.124023	0.964844	3.360000	22.750000	-3.010000	1464.00	-0.08	-0.13	0.25	0.50	0.25	0.50	0.00	0.00	2.00	0.00	0.00	0.00	0.00	0.00	0.00	0.00	0.00	0.00	2.007324	1.301270	1.207031	46.900002	-50.820000	21.840000	46.00	0.00	0.00
1.11	10.25	11.75	9.50	11.25	11.00	15.75	3.75	11.25	2.75	7.50	8.75	9.25	8.50	4.50	1.25	5.50	-0.205566	0.125000	0.967285	4.690000	24.150000	-3.290000	1422.00	-0.05	-0.13	0.00	0.00	0.00	0.00	0.00	0.00	2.00	0.00	0.00	0.00	0.00	0.00	0.00	0.25	0.00	0.00	1.889160	1.119141	1.161621	60.200001	-75.320000	47.389999	32.00	0.00	0.00
1.12	8.75	9.75	8.75	10.00	10.25	15.25	4.00	11.50	2.75	7.75	9.00	9.50	8.75	4.50	1.50	5.50	-0.190430	0.128418	0.962402	5.810000	25.270000	-3.780000	1373.00	-0.04	-0.13	0.00	0.25	0.00	0.50	0.00	0.00	2.00	0.00	0.00	0.00	0.00	0.00	0.00	0.25	0.00	0.00	1.751465	0.900879	1.300781	79.449997	-98.840004	63.070000	40.00	0.00	0.00
1.13	7.25	8.25	8.00	8.75	9.50	15.00	4.00	11.75	3.25	8.00	9.50	10.00	9.00	5.00	1.50	6.00	-0.206543	0.126953	0.960449	6.440000	26.389999	-4.620000	1343.00	-0.02	-0.13	0.25	0.00	0.25	0.25	0.00	0.00	2.00	0.00	0.00	0.00	0.00	0.00	0.00	0.25	0.00	0.00	1.562988	0.645020	1.431641	93.519997	-123.480003	72.870003	41.00	0.00	0.00
1.14	6.00	6.75	7.00	7.50	8.50	14.25	3.75	11.50	3.75	8.25	10.00	10.75	9.25	5.25	1.75	6.00	-0.215820	0.126953	0.970215	7.280000	28.000000	-6.160000	1294.00	0.00	-0.13	0.25	0.25	0.00	0.50	0.00	0.00	2.00	0.00	0.25	0.00	0.00	0.00	0.00	0.00	0.00	0.00	1.341797	0.446777	1.536133	96.879997	-147.770004	79.519997	44.00	0.00	0.00
1.15	4.75	5.75	6.00	6.75	7.75	13.50	3.75	11.50	4.00	8.50	10.50	11.25	9.75	5.50	1.75	6.25	-0.212402	0.125488	0.968750	8.610000	30.100000	-7.210000	1260.00	0.02	-0.14	0.25	0.25	0.00	0.00	0.00	0.00	2.00	0.00	0.00	0.00	0.00	0.00	0.00	0.00	0.00	0.00	1.106445	0.301270	1.649902	96.669998	-171.779999	83.019997	35.00	0.00	0.00
1.16	3.50	5.25	5.25	5.75	6.50	12.50	3.75	11.25	4.75	8.75	11.00	11.50	10.00	6.00	1.75	6.25	-0.224609	0.126953	0.962402	10.010000	32.130001	-8.120000	1222.00	0.04	-0.14	0.00	0.00	0.00	0.00	0.00	0.00	2.00	0.00	0.00	0.00	0.00	0.00	0.00	0.00	0.00	0.00	0.869141	0.179199	1.701660	95.690002	-195.160004	83.720001	30.00	0.00	0.00
1.17	2.25	4.00	4.00	5.00	5.25	11.50	3.50	11.00	4.50	9.00	11.50	12.25	10.25	6.75	2.00	6.50	-0.224121	0.128906	0.960449	11.760000	33.459999	-8.890000	1168.00	0.06	-0.14	0.00	0.25	0.00	0.25	0.00	0.00	2.00	0.00	0.00	0.00	0.00	0.00	0.00	0.00	0.00	0.00	0.606934	0.097656	1.689453	91.910004	-213.990005	82.250000	35.00	0.00	0.00
1.18	1.75	3.00	3.25	4.50	4.00	10.75	3.50	11.00	5.25	9.50	12.00	13.00	10.75	7.25	2.00	6.75	-0.236816	0.136719	0.963379	13.230000	35.420002	-9.800000	1156.00	0.08	-0.15	0.25	0.25	0.00	0.50	0.00	0.00	2.00	0.00	0.00	0.00	0.00	0.00	0.00	0.00	0.00	0.00	0.375000	0.081543	1.723633	86.660004	-227.639999	78.680000	41.00	0.00	0.00
1.19	1.25	2.25	2.50	3.50	3.00	9.50	3.25	10.75	5.25	9.75	12.50	13.25	11.00	7.75	2.50	6.75	-0.248535	0.141113	0.948242	14.700000	37.170002	-10.010000	1115.00	0.11	-0.15	0.25	0.25	0.00	0.00	0.00	0.00	2.00	0.00	0.00	0.00	0.00	0.00	0.00	0.00	0.00	0.00	0.143066	0.118164	1.778320	82.040001	-237.860001	74.410004	35.00	0.00	0.00
1.20	1.00	2.25	2.00	3.25	2.00	8.75	3.00	10.50	5.75	9.75	13.00	14.00	11.25	8.00	2.50	6.75	-0.240234	0.137695	0.952637	16.520000	39.130001	-10.430000	1101.00	0.12	-0.15	0.00	0.00	0.00	0.25	0.00	0.00	2.00	0.00	0.00	0.00	0.00	0.00	0.00	0.00	0.00	0.00	-0.085938	0.175293	1.759277	76.790001	-244.509995	71.889999	33.00	0.00	0.00
1.21	1.00	1.75	1.75	2.75	2.00	8.00	2.75	10.25	6.00	10.00	13.50	14.50	11.75	8.50	2.50	7.25	-0.264160	0.144043	0.946289	18.410000	40.880001	-10.010000	1100.00	0.13	-0.15	0.25	0.00	0.00	0.00	0.00	0.00	2.00	0.00	0.00	0.00	0.00	0.00	0.00	0.00	0.00	0.00	-0.306641	0.246094	1.660156	72.590004	-245.419998	72.660004	33.00	0.00	0.00
1.22	0.50	1.00	1.50	2.75	1.00	7.50	2.75	10.00	6.50	10.00	13.75	15.25	11.75	9.00	2.50	7.25	-0.259277	0.119629	0.916504	20.230000	42.840000	-9.590000	1086.00	0.14	-0.15	0.25	0.25	0.00	0.25	0.00	0.00	2.00	0.00	0.00	0.00	0.00	0.00	0.00	0.00	0.00	0.00	-0.499512	0.234863	1.533691	69.650002	-239.190002	76.860001	38.00	0.00	0.00
1.23	0.25	1.25	1.00	2.00	0.75	7.00	2.50	9.75	6.75	10.50	14.50	15.50	12.25	9.25	3.00	7.50	-0.266113	0.122070	0.949707	21.559999	44.939999	-9.170000	1088.00	0.16	-0.15	0.50	0.00	0.25	0.00	0.00	0.00	2.00	0.00	0.00	0.00	0.00	0.00	0.00	0.00	0.00	0.00	-0.625488	0.207520	1.490723	65.940002	-227.080002	82.040001	38.00	0.00	0.00
1.24	0.25	1.00	0.75	2.00	0.75	6.25	2.25	9.50	7.00	10.75	15.00	16.00	12.50	9.50	3.00	7.75	-0.266113	0.142090	0.939453	22.260000	47.250000	-8.820000	1090.00	0.16	-0.15	0.00	0.00	0.00	0.00	0.00	0.00	2.25	0.00	0.00	0.00	0.00	0.00	0.00	0.00	0.00	0.00	-0.697266	0.168945	1.505371	62.299999	-214.619995	86.239998	34.00	0.00	0.00
1.25	0.00	1.00	1.00	2.25	0.75	5.75	2.25	9.25	7.25	11.00	15.50	16.50	12.75	9.75	3.25	8.00	-0.270996	0.148926	0.933105	22.120001	49.630001	-7.910000	1108.00	0.17	-0.14	0.00	0.25	0.00	0.25	0.00	0.00	2.00	0.00	0.00	0.00	0.00	0.00	0.00	0.00	0.00	0.00	-0.763184	0.116211	1.478516	59.849998	-204.330002	88.340004	35.00	0.00	0.00
1.26	0.00	1.00	0.75	1.75	0.50	5.50	2.25	9.00	7.75	11.25	16.00	17.00	13.00	10.50	3.50	8.00	-0.284668	0.146484	0.926758	21.559999	52.430000	-7.280000	1121.00	0.17	-0.14	0.00	0.00	0.00	0.00	0.00	0.00	2.00	0.00	0.00	0.00	0.00	0.00	0.00	0.00	0.00	0.00	-0.802246	0.099609	1.493164	61.529999	-197.050003	88.900002	30.00	0.00	0.00
1.27	0.00	0.75	0.75	1.25	0.50	5.00	2.25	8.75	7.75	11.75	16.50	17.25	13.50	11.25	4.00	8.25	-0.302246	0.151855	0.910645	18.760000	55.160000	-6.090000	1135.00	0.18	-0.14	0.00	0.00	0.00	0.00	0.00	0.00	2.00	0.00	0.25	0.00	0.00	0.00	0.00	0.00	0.00	0.00	-0.855469	-0.001465	1.371094	59.570000	-191.240005	89.110001	34.00	0.00	0.00
1.28	0.00	0.25	0.50	1.25	0.50	4.75	2.00	8.75	8.50	11.75	17.00	17.75	13.75	12.00	4.50	8.50	-0.312012	0.159180	0.914551	17.360001	55.580002	-6.020000	1156.00	0.19	-0.13	0.25	0.00	0.00	0.00	0.00	0.00	2.00	0.00	0.00	0.00	0.00	0.00	0.00	0.00	0.00	0.00	-0.927246	-0.056152	1.211426	53.410000	-180.740005	88.760002	33.00	0.00	0.00
1.29	0.00	0.25	0.00	0.75	0.25	4.00	2.00	8.50	8.50	12.25	17.50	18.50	14.00	12.25	5.00	8.75	-0.305664	0.152832	0.912598	16.870001	55.510002	-6.090000	1160.00	0.20	-0.13	0.00	0.00	0.00	0.00	0.00	0.00	2.00	0.00	0.00	0.00	0.00	0.00	0.00	0.00	0.00	0.00	-0.978027	-0.067871	1.193359	47.950001	-167.020004	88.059998	30.00	0.00	0.00
1.30	0.00	0.25	0.25	1.00	0.25	3.50	2.00	8.25	9.00	12.75	18.00	19.00	14.25	13.00	5.50	9.00	-0.321777	0.171387	0.906250	16.170000	54.950001	-6.300000	1194.00	0.20	-0.13	0.25	0.00	0.00	0.00	0.00	0.00	2.25	0.00	0.00	0.00	0.00	0.00	0.00	0.00	0.00	0.00	-1.076660	-0.026367	1.014648	33.950001	-142.729996	83.720001	37.00	0.00	0.00
1.31	0.00	0.25	0.25	0.50	0.25	3.50	1.75	8.25	9.25	13.25	18.75	19.50	14.50	13.75	6.00	9.25	-0.320312	0.169434	0.902832	15.610000	53.970001	-7.140000	1221.00	0.21	-0.13	0.00	0.00	0.00	0.00	0.00	0.00	2.00	0.00	0.00	0.00	0.00	0.00	0.00	0.00	0.00	0.00	-1.176758	-0.005371	0.996582	35.490002	-130.619995	78.120003	30.00	0.00	0.00
1.32	0.00	0.00	0.25	0.50	0.00	2.75	1.75	8.00	9.50	13.75	19.25	20.25	14.75	14.50	6.25	9.50	-0.342773	0.179199	0.894531	13.510000	52.360001	-8.120000	1238.00	0.22	-0.12	0.00	0.25	0.00	0.00	0.00	0.00	2.00	0.00	0.00	0.00	0.00	0.00	0.00	0.00	0.00	0.00	-1.309082	-0.079102	0.897949	36.540001	-118.300003	70.000000	33.00	0.00	0.00
1.33	0.00	0.00	0.25	0.75	0.25	2.75	1.75	7.75	9.75	14.25	19.75	20.75	15.25	15.25	6.75	9.50	-0.317383	0.171875	0.892578	10.220000	51.099998	-9.310000	1275.00	0.22	-0.12	0.00	0.00	0.00	0.00	0.00	0.00	2.00	0.00	0.00	0.00	0.00	0.00	0.00	0.00	0.00	0.00	-1.443848	-0.091309	0.752930	31.850000	-101.709999	60.270000	30.00	0.00	0.00
1.34	0.00	0.25	0.25	0.50	0.00	2.50	1.75	8.00	10.00	15.00	20.50	21.50	15.00	16.00	7.25	10.00	-0.372559	0.173828	0.884277	8.400000	49.770000	-10.500000	1312.00	0.22	-0.12	0.25	0.00	0.00	0.00	0.00	0.00	2.00	0.00	0.00	0.00	0.00	0.00	0.00	0.00	0.00	0.00	-1.579590	-0.058105	0.674805	27.719999	-82.949997	50.119999	33.00	0.00	0.00
1.35	0.00	0.00	0.00	0.50	0.00	2.25	1.75	7.75	10.50	15.50	21.00	22.00	15.75	17.25	7.75	10.25	-0.365723	0.179688	0.904785	7.560000	48.860001	-11.620000	1346.00	0.23	-0.12	0.25	0.00	0.00	0.00	0.00	0.00	2.00	0.00	0.00	0.00	0.00	0.00	0.00	0.00	0.00	0.00	-1.723145	-0.030273	0.625977	24.639999	-63.840000	40.880001	33.00	0.00	0.00
1.36	0.00	0.25	0.25	0.75	0.00	2.25	1.75	7.75	11.00	16.00	21.50	22.50	16.00	18.50	8.25	10.75	-0.370605	0.195801	0.896973	7.980000	49.279999	-13.650000	1397.00	0.23	-0.11	0.00	0.00	0.25	0.00	0.00	0.00	2.00	0.00	0.00	0.00	0.00	0.00	0.00	0.00	0.00	0.00	-1.861816	-0.007324	0.472656	18.270000	-43.470001	34.439999	33.00	0.00	0.00
1.37	0.00	0.00	0.00	0.25	0.00	1.75	1.75	7.50	11.25	16.50	22.00	23.00	16.25	19.50	9.00	11.25	-0.378906	0.203613	0.911133	8.890000	52.150002	-16.170000	1418.00	0.23	-0.11	0.00	0.00	0.00	0.00	0.00	0.00	2.00	0.00	0.00	0.00	0.00	0.00	0.00	0.00	0.00	0.00	-1.958496	0.022461	0.342773	13.510000	-17.500000	30.309999	30.00	0.00	0.00
1.38	0.00	0.00	0.00	0.50	0.00	1.75	1.75	7.25	12.00	17.00	22.50	23.50	16.25	20.50	9.50	11.75	-0.380859	0.195312	0.923828	10.430000	57.750000	-18.270000	1459.00	0.24	-0.10	0.00	0.00	0.00	0.00	0.00	0.00	2.00	0.00	0.00	0.00	0.00	0.00	0.00	0.00	0.00	0.00	-2.017090	0.066895	0.407715	10.500000	12.600000	28.630001	30.00	0.00	0.00
1.39	0.00	0.00	0.25	0.00	0.00	1.75	1.50	7.25	12.00	17.50	23.00	23.75	16.25	21.75	10.25	12.00	-0.421387	0.194824	0.937012	13.230000	65.660004	-20.299999	1485.00	0.24	-0.10	0.00	0.00	0.00	0.00	0.00	0.00	2.00	0.00	0.00	0.00	0.00	0.00	0.00	0.00	0.00	0.00	-2.028809	0.126953	0.478027	5.320000	41.930000	30.240000	30.00	0.00	0.00
1.40	0.00	0.00	0.00	0.00	0.00	1.50	1.50	7.00	12.50	17.75	23.50	24.00	16.25	22.75	11.00	12.25	-0.443848	0.205078	0.940918	15.750000	75.879997	-21.980000	1511.00	0.24	-0.10	0.25	0.25	0.00	0.00	0.00	0.00	2.00	0.00	0.00	0.00	0.00	0.00	0.00	0.00	0.00	0.00	-2.027832	0.147949	0.518066	1.680000	69.580002	33.670002	35.00	0.00	0.00
1.41	0.00	0.00	0.00	0.25	0.00	1.75	1.25	6.75	12.75	18.25	23.50	23.75	16.00	23.75	11.50	12.50	-0.448242	0.214355	0.924805	17.080000	90.019997	-24.150000	1527.00	0.24	-0.10	0.00	0.00	0.00	0.00	0.00	0.00	2.00	0.00	0.00	0.00	0.00	0.00	0.00	0.00	0.00	0.00	-2.038086	0.112793	0.587891	-0.560000	96.529999	36.540001	30.00	0.00	0.00
1.42	0.00	0.00	0.00	0.00	0.00	1.00	1.00	6.50	13.00	18.50	24.00	23.75	15.75	25.00	12.50	12.75	-0.446289	0.219238	0.959473	19.180000	107.169998	-27.580000	1540.00	0.25	-0.09	0.25	0.50	0.00	0.00	0.00	0.00	2.00	0.00	0.00	0.00	0.00	0.00	0.00	0.00	0.00	0.00	0.851562	0.410645	0.699707	-2.660000	127.120003	37.310001	37.00	0.00	0.00
1.43	0.00	0.00	0.00	0.00	0.00	1.00	0.75	6.25	13.00	18.75	23.75	23.50	15.25	25.75	13.25	13.25	-0.467285	0.226074	0.973145	23.100000	126.489998	-31.920000	1543.00	0.25	-0.09	1.00	2.25	0.50	1.00	0.00	0.00	2.00	0.00	0.00	0.00	0.00	0.00	0.00	0.00	0.00	0.00	1.331055	0.737793	1.978516	-32.130001	138.180008	45.290001	78.00	-0.19	0.04
1.44	0.00	0.00	0.00	0.00	0.00	0.75	0.50	5.75	13.25	18.75	23.75	23.25	14.50	26.50	13.75	13.00	-0.497070	0.222168	0.977539	17.360001	143.779999	-36.610001	1533.00	0.26	-0.08	2.00	3.50	0.75	1.50	0.00	0.00	2.00	0.00	0.00	0.00	0.00	0.00	0.00	0.00	0.00	0.00	0.715820	-0.116211	0.604004	-32.130001	107.940002	57.330002	108.00	-0.24	0.01
1.45	0.00	0.00	0.00	0.00	0.00	0.50	0.50	5.50	13.50	19.00	23.25	22.50	13.75	27.50	13.75	13.50	-0.511230	0.229980	0.958984	9.800000	163.309998	-40.180000	1524.00	0.26	-0.08	3.25	5.25	1.25	2.75	0.00	0.00	2.00	0.00	0.00	0.00	0.00	0.00	0.00	0.00	0.00	0.00	-0.069824	-0.290527	0.513184	-46.130001	138.529999	37.869999	156.00	-0.28	-0.02
1.46	0.00	0.00	0.00	0.00	0.00	0.25	0.25	5.00	13.75	19.25	23.00	22.00	12.25	28.00	14.00	13.25	-0.523438	0.228516	1.071289	-0.980000	187.180008	-42.770000	1500.00	0.27	-0.07	4.50	7.00	1.50	3.25	0.00	0.00	2.00	0.00	0.00	0.00	0.00	0.00	0.00	0.00	0.00	0.00	0.016113	0.032227	1.839844	-50.259998	159.250000	18.410000	194.00	-0.30	-0.02
1.47	0.00	0.00	0.00	0.00	0.00	0.25	0.25	4.75	14.00	19.25	22.75	21.00	11.25	28.25	13.75	13.00	-0.625000	0.202637	0.963379	-12.460000	213.639999	-47.459999	1476.00	0.27	-0.06	6.50	8.75	1.75	4.00	0.00	0.00	2.00	0.00	0.00	0.00	0.00	0.00	0.00	0.00	0.00	0.00	-0.166016	-0.201660	1.523438	-51.240002	139.930008	7.070000	242.00	-0.31	-0.03
1.48	0.00	0.00	0.00	0.00	0.00	0.00	0.25	4.25	14.25	19.25	22.25	20.25	9.75	28.50	13.50	12.50	-0.584961	0.216309	1.193359	-28.840000	272.510010	-57.959999	1439.00	0.27	-0.06	8.50	10.00	2.25	5.00	0.00	0.00	2.00	0.00	0.00	0.00	0.00	0.00	0.00	0.00	0.00	0.00	0.007324	-0.250000	1.229004	-49.000000	138.039993	-10.570000	290.00	-0.32	-0.03
1.49	0.00	0.00	0.00	0.00	0.00	0.00	0.25	4.00	14.50	19.25	21.75	19.00	8.75	28.25	13.00	12.25	-0.699707	0.213867	1.016113	-37.730000	303.589996	-65.730003	1403.00	0.27	-0.05	10.25	12.00	2.50	5.50	0.00	0.00	1.75	0.00	0.00	0.00	0.00	0.00	0.00	0.00	0.00	0.00	0.206055	-0.117188	1.264648	-33.040001	139.160004	-24.639999	331.00	-0.34	-0.03
1.50	0.00	0.00	0.00	0.00	0.00	0.00	0.25	3.25	14.50	19.25	21.25	17.75	7.50	28.00	12.50	11.75	-0.847656	0.276367	0.963379	-45.920002	337.890015	-73.849998	1352.00	0.27	-0.04	12.50	14.00	3.25	6.00	0.00	0.00	1.75	0.00	0.00	0.00	0.00	0.00	0.00	0.00	0.00	0.00	0.022461	0.074707	0.860840	-3.080000	137.830002	-47.320000	387.00	-0.34	-0.03
1.51	0.00	0.00	0.00	0.00	0.00	0.00	0.25	3.00	14.50	18.75	20.50	16.00	6.50	27.75	12.00	11.00	-0.913574	0.328613	1.112305	-47.389999	371.140015	-79.730003	1297.00	0.28	-0.03	15.75	16.50	4.25	7.75	0.00	0.00	1.75	0.00	0.00	0.00	0.00	0.00	0.00	0.00	0.00	0.00	-0.346680	0.489258	0.383789	3.920000	147.770004	-49.070000	474.00	-0.35	-0.03
1.52	0.00	0.00	0.00	0.00	0.00	0.00	0.50	2.75	14.00	18.00	19.50	14.50	5.75	27.25	11.50	10.50	-0.977539	0.197266	1.340820	-51.869999	397.040009	-83.370003	1237.00	0.28	-0.02	18.50	19.00	6.00	9.00	0.00	0.00	1.75	0.00	0.00	0.00	0.00	0.00	0.00	0.00	0.00	0.00	-0.188477	0.736328	1.017578	3.920000	160.509995	-36.400002	559.00	-0.35	-0.03
1.53	0.00	0.00	0.00	0.00	0.00	0.00	0.50	2.00	12.50	16.75	17.50	12.50	5.25	27.00	10.75	9.25	-1.437500	0.296387	1.732910	-45.570000	417.269989	-79.870003	1130.00	0.28	-0.02	21.00	21.00	7.50	10.25	0.25	0.25	2.00	0.00	0.00	0.00	0.00	0.00	0.00	0.00	0.00	0.00	-0.215820	0.401855	1.630859	5.250000	176.820007	-19.879999	643.00	-0.34	-0.03
1.54	0.00	0.00	0.00	0.00	0.00	0.00	0.75	1.25	10.75	14.75	15.25	10.50	4.25	26.00	10.00	8.25	-1.802734	0.528320	1.897949	-25.059999	430.080017	-69.440002	1003.00	0.29	-0.01	22.75	22.50	8.25	11.50	0.25	1.25	2.00	0.25	0.00	0.00	0.00	0.00	0.00	0.00	0.00	0.00	-0.241211	0.157227	1.697754	-0.490000	173.180008	-17.850000	711.00	-0.34	-0.04
1.55	0.00	0.00	0.00	0.00	0.00	0.00	0.75	0.50	8.75	12.50	12.50	8.50	3.25	24.25	9.00	7.00	-2.137207	0.368652	2.486328	6.300000	441.910004	-57.470001	852.00	0.30	0.00	24.25	23.50	9.50	12.75	0.75	2.50	2.00	0.50	0.00	0.00	0.00	0.00	0.00	0.00	0.00	0.00	-0.309082	0.229492	1.567871	-6.930000	155.050003	-24.780001	787.00	-0.33	-0.04
1.56	0.00	0.00	0.00	0.00	0.00	0.00	1.00	0.00	7.50	10.75	10.50	7.50	2.50	21.00	7.50	6.00	-1.761230	0.663574	2.292480	40.950001	446.670013	-46.549999	726.00	0.30	0.01	25.25	24.00	10.25	13.50	1.00	4.25	2.00	1.00	0.00	0.00	0.00	0.00	0.00	0.00	0.00	0.00	-0.305664	0.508301	1.581543	-23.240000	129.009995	-22.400000	847.00	-0.33	-0.05
1.57	0.00	0.00	0.00	0.00	0.00	0.00	0.75	0.00	5.50	9.25	9.25	6.75	1.75	17.50	6.50	5.25	-1.385742	0.377930	2.248535	94.709999	451.149994	-45.080002	609.00	0.30	0.00	25.75	24.50	11.00	14.25	1.50	5.00	2.25	1.25	0.00	0.00	0.00	0.00	0.00	0.00	0.00	0.00	-0.301758	0.386719	1.330566	-36.889999	104.510002	-11.200000	895.00	-0.32	-0.05
1.58	0.00	0.00	0.00	0.00	0.00	0.00	0.75	0.00	3.50	8.25	8.25	6.25	1.00	14.00	5.00	4.50	-2.071777	0.435059	2.909180	153.580002	432.040009	-55.439999	500.00	0.29	-0.01	26.75	25.00	11.75	14.75	1.75	6.50	2.25	2.00	0.00	0.00	0.00	0.00	0.25	0.00	0.00	0.00	-0.201660	0.205078	1.255371	-40.950001	82.599998	-4.760000	957.00	-0.31	-0.06
1.59	0.00	0.00	0.00	0.00	0.00	0.00	0.50	0.00	2.75	7.50	7.50	5.25	0.75	10.75	3.25	4.00	-1.212891	0.676758	2.497070	183.470001	433.649994	-63.770000	410.00	0.29	-0.01	27.00	25.00	12.00	15.25	2.25	7.75	2.25	2.50	0.00	0.00	0.00	0.25	0.00	0.00	0.00	0.25	-0.187988	0.245117	1.158203	-39.689999	64.050003	-3.850000	996.00	-0.31	-0.06
1.60	0.00	0.00	0.00	0.00	0.00	0.00	0.75	0.00	1.75	6.50	7.00	5.00	0.25	7.75	1.75	4.00	-0.218750	0.780762	2.760742	198.309998	434.070007	-82.879997	336.00	0.28	-0.02	27.25	25.25	12.50	15.50	2.50	8.00	2.50	3.00	0.00	0.00	0.00	0.00	0.50	0.25	0.00	0.00	-0.171387	0.250488	1.076172	-37.799999	51.590000	-2.590000	1028.00	-0.30	-0.06
1.61	0.00	0.00	0.00	0.00	0.00	0.00	0.75	0.00	1.25	5.75	6.75	4.75	0.00	4.25	0.75	4.00	0.065430	0.653320	3.020020	221.199997	401.309998	-121.590004	274.00	0.26	-0.05	27.00	25.00	12.75	15.75	2.75	8.25	2.50	3.25	0.00	0.00	0.00	0.25	0.75	0.25	0.00	0.00	-0.142090	0.224609	1.066895	-37.099998	43.750000	-0.910000	1043.00	-0.30	-0.07
1.62	0.00	0.00	0.00	0.00	0.00	0.00	1.00	0.00	1.25	5.50	6.25	4.00	0.00	2.75	0.25	3.75	0.574707	0.145020	2.371094	228.270004	349.440002	-156.029999	243.00	0.25	-0.04	27.25	24.75	13.00	15.75	3.50	8.75	2.50	4.50	0.00	0.00	0.00	0.00	0.75	0.00	0.00	0.25	-0.123535	0.172363	1.023438	-34.230000	37.799999	-0.840000	1076.00	-0.29	-0.07
1.63	0.00	0.00	0.00	0.00	0.00	0.00	0.75	0.00	1.00	5.25	6.25	4.00	0.00	2.00	0.50	3.75	1.366699	2.815918	2.607910	97.300003	259.700012	-140.770004	230.00	0.25	-0.06	26.75	24.50	13.00	15.50	4.00	9.25	2.50	5.00	0.00	0.00	0.00	0.50	1.00	0.25	0.00	0.00	0.022461	0.176270	1.026855	-29.049999	32.200001	-1.540000	1092.00	-0.28	-0.08
1.64	0.00	0.00	0.00	0.00	0.00	0.00	1.00	0.00	0.25	5.50	6.00	3.75	0.00	1.75	0.50	3.75	1.285645	1.325684	5.324707	17.990000	-19.670000	-19.600000	219.00	0.25	-0.07	26.25	24.25	13.00	15.50	4.25	9.25	2.50	5.75	0.00	0.00	0.25	0.25	1.25	0.25	0.00	0.00	-0.138672	0.176270	1.027344	-22.960001	27.510000	-1.890000	1101.00	-0.28	-0.08
1.65	0.00	0.00	0.00	0.00	0.00	0.00	0.75	0.00	0.75	5.00	6.00	3.50	0.00	1.75	0.25	3.75	0.849609	0.760742	2.847656	-77.000000	-215.809998	60.549999	211.00	0.25	-0.06	25.50	23.50	12.75	15.50	4.75	9.50	2.50	6.00	0.00	0.25	0.00	0.50	1.50	0.00	0.00	0.25	-0.119141	0.175781	1.013672	-17.500000	22.680000	-2.170000	1099.00	-0.27	-0.08
1.66	0.00	0.00	0.00	0.00	0.00	0.00	0.75	0.00	0.25	4.75	5.75	3.50	0.00	1.50	0.25	3.50	-0.026855	0.584473	1.912109	-113.470001	-270.829987	78.750000	196.00	0.25	-0.08	25.00	23.00	12.50	15.25	5.00	9.50	2.75	6.25	0.00	0.25	0.00	0.25	1.75	0.25	0.00	0.25	-0.138672	0.184570	1.005859	-12.950000	20.090000	-2.520000	1096.00	-0.27	-0.08
1.67	0.00	0.00	0.00	0.00	0.00	0.00	1.00	0.00	0.25	4.75	5.75	3.25	0.00	1.25	0.25	3.50	0.183594	0.561035	1.467285	-70.419998	-260.260010	64.050003	195.00	0.24	-0.07	24.25	22.50	12.50	15.00	5.00	9.75	2.50	6.75	0.00	0.25	0.00	0.75	1.75	0.50	0.00	0.50	-0.168945	0.164062	0.994141	-8.050000	17.990000	-2.730000	1096.00	-0.26	-0.09
1.68	0.00	0.00	0.00	0.00	0.00	0.00	0.75	0.00	0.00	4.50	5.50	3.25	0.00	1.25	0.00	3.50	0.277832	0.304688	1.664551	-7.700000	-267.329987	32.480000	180.00	0.24	-0.08	23.25	22.00	12.00	14.75	4.75	9.75	2.75	7.00	0.25	0.25	0.25	0.75	2.50	0.50	0.25	0.50	-0.137695	0.195801	0.986816	-4.130000	15.750000	-2.520000	1093.00	-0.25	-0.09
1.69	0.00	0.00	0.00	0.00	0.00	0.00	0.75	0.00	0.50	4.50	5.50	3.25	0.00	1.00	0.25	3.50	0.147949	0.074707	1.866211	28.070000	-352.309998	-22.120001	187.00	0.24	-0.07	22.25	21.25	12.00	14.50	5.00	9.75	2.50	7.50	0.00	0.50	0.25	0.75	2.75	0.50	0.25	0.50	-0.138184	0.194336	0.974121	-2.380000	14.980000	-2.450000	1081.00	-0.25	-0.10
1.70	0.00	0.00	0.00	0.00	0.00	0.00	0.75	0.00	0.00	4.00	5.25	3.00	0.00	0.75	0.00	3.50	0.072266	0.209473	1.638184	-0.490000	-387.309998	-28.770000	165.00	0.24	-0.09	21.50	20.25	11.75	14.25	4.75	10.25	2.75	7.50	0.25	0.50	0.25	1.00	3.25	0.50	0.25	0.75	-0.127930	0.197266	0.950195	-3.220000	15.820000	-3.150000	1077.00	-0.24	-0.10
1.71	0.00	0.00	0.00	0.00	0.00	0.00	0.75	0.00	0.00	4.00	5.50	3.00	0.00	0.75	0.50	3.50	-0.033691	0.363281	1.338379	-26.809999	-408.100006	-25.690001	173.00	0.24	-0.09	20.50	19.50	11.25	14.00	5.00	10.00	2.75	7.75	0.25	0.50	0.25	1.00	3.75	0.75	0.50	0.75	-0.127930	0.199707	0.951172	-6.370000	17.710001	-4.200000	1064.00	-0.23	-0.10
1.72	0.00	0.00	0.00	0.00	0.00	0.00	0.75	0.00	0.00	4.00	5.25	3.00	0.00	0.75	0.00	3.50	-0.137695	0.506836	1.099121	-35.420002	-418.320007	-19.180000	165.00	0.24	-0.09	18.75	18.25	10.75	13.50	4.75	10.25	2.75	8.00	0.00	0.75	0.75	1.25	4.25	0.75	0.25	0.75	-0.143066	0.194824	0.972656	-8.820000	18.200001	-5.110000	1036.00	-0.22	-0.11
1.73	0.00	0.25	0.00	0.00	0.00	0.00	0.75	0.00	0.00	4.00	5.50	3.25	0.00	0.50	0.00	3.50	-0.208496	0.588379	0.995117	-27.370001	-418.040009	-12.600000	171.00	0.23	-0.10	17.25	17.00	10.50	13.00	5.00	9.75	2.75	8.00	0.25	0.75	0.50	1.25	4.50	1.00	0.50	1.00	-0.155762	0.199219	0.964355	-11.130000	17.639999	-6.160000	1007.00	-0.21	-0.11
1.74	0.00	0.00	0.00	0.00	0.00	0.25	0.75	0.00	0.00	3.75	5.00	3.00	0.00	0.50	0.00	3.50	-0.196777	0.644043	0.946777	-15.050000	-414.399994	-4.480000	161.00	0.23	-0.10	15.25	15.25	10.00	12.50	4.75	9.75	3.00	8.25	0.50	0.75	0.75	1.75	5.00	1.00	0.50	1.00	-0.158203	0.187988	0.960449	-12.670000	16.240000	-6.930000	979.00	-0.19	-0.12
1.75	0.00	0.00	0.00	0.00	0.00	0.25	0.75	0.00	0.00	3.75	5.00	3.00	0.00	0.75	0.00	3.50	-0.235352	0.692383	0.968750	-5.110000	-409.360016	5.740000	163.00	0.23	-0.10	14.00	13.75	9.50	12.00	5.00	9.75	3.00	8.25	0.00	0.75	0.75	1.75	5.25	1.00	0.50	1.00	-0.154785	0.181641	0.947266	-14.420000	15.330000	-7.700000	940.00	-0.19	-0.12
1.76	0.00	0.00	0.00	0.00	0.00	0.00	1.00	0.00	0.00	3.50	5.00	3.25	0.00	0.50	0.00	3.50	-0.312988	0.744141	1.059570	1.610000	-404.320007	20.580000	162.00	0.23	-0.10	12.75	12.50	9.00	11.50	4.75	9.50	3.00	8.50	0.50	1.00	1.00	2.25	6.00	1.25	0.75	1.25	-0.152344	0.168945	0.952637	-16.450001	15.050000	-8.190000	932.00	-0.17	-0.13
1.77	0.00	0.00	0.00	0.00	0.00	0.00	0.75	0.00	0.00	3.50	5.00	3.00	0.00	0.75	0.00	3.50	-0.375000	0.779297	1.180664	7.490000	-399.489990	40.110001	157.00	0.24	-0.10	11.25	11.00	8.75	11.00	5.00	9.50	3.25	8.50	0.75	1.50	1.25	2.75	6.50	1.25	0.75	1.50	-0.169434	0.163086	0.958984	-18.059999	14.770000	-8.890000	923.00	-0.15	-0.13
1.78	0.00	0.00	0.00	0.00	0.00	0.00	0.75	0.00	0.00	3.50	5.00	3.00	0.00	0.25	0.00	3.25	-0.455078	0.778809	1.331543	13.370000	-396.059998	62.020000	152.00	0.23	-0.10	10.00	10.25	8.50	10.50	5.00	9.50	3.25	8.75	1.00	1.25	1.50	3.25	7.50	1.75	0.75	1.50	-0.186523	0.166504	0.976562	-19.110001	14.070000	-9.100000	921.00	-0.13	-0.14
1.79	0.00	0.25	0.00	0.00	0.00	0.00	0.75	0.00	0.00	3.00	4.75	3.00	0.00	0.25	0.00	3.50	-0.535156	0.819336	1.664551	24.430000	-397.250000	85.120003	148.00	0.22	-0.11	9.00	9.00	8.00	10.00	5.00	9.25	3.25	8.75	1.50	1.75	1.75	3.75	7.75	2.00	0.75	1.75	-0.179688	0.166992	0.973633	-19.879999	13.090000	-9.030000	910.00	-0.11	-0.14
1.80	0.00	0.00	0.00	0.00	0.00	0.00	0.75	0.00	0.00	3.25	4.75	3.00	0.00	0.25	0.25	3.50	-0.599121	0.738770	1.748047	37.450001	-406.839996	106.820000	150.00	0.24	-0.11	8.00	8.00	7.75	9.50	5.25	9.00	3.50	8.75	1.50	2.00	2.00	4.25	8.00	2.50	1.25	2.00	-0.184082	0.159668	0.963379	-20.299999	12.250000	-9.380000	910.00	-0.09	-0.14
1.81	0.00	0.00	0.00	0.00	0.00	0.00	0.75	0.00	0.00	3.50	4.50	3.00	0.00	0.25	0.00	3.50	-0.775879	0.581543	1.678223	45.990002	-411.320007	122.500000	148.00	0.23	-0.10	7.25	7.00	7.25	9.00	5.00	8.75	3.50	9.00	1.75	2.75	2.50	5.00	8.25	3.00	1.25	2.25	-0.185059	0.161621	0.985352	-20.719999	12.110000	-10.010000	912.00	-0.07	-0.14
1.82	0.00	0.25	0.00	0.00	0.00	0.50	0.75	0.00	0.00	3.50	4.75	2.75	0.00	0.00	0.00	3.25	-0.844727	0.439941	1.730469	49.910000	-406.420013	130.199997	152.00	0.21	-0.11	6.25	6.50	7.00	8.75	5.00	8.75	3.75	9.00	2.25	3.25	3.25	6.25	8.75	3.75	1.50	2.75	-0.192871	0.155273	0.968750	-20.580000	12.040000	-10.360000	944.00	-0.05	-0.14
1.83	0.00	0.00	0.00	0.00	0.00	0.00	0.75	0.00	0.00	3.25	4.75	2.75	0.00	0.00	0.00	3.50	-0.869629	0.354492	2.122559	57.470001	-404.110016	131.039993	143.00	0.23	-0.11	5.50	5.75	6.50	8.25	5.00	8.25	3.75	9.00	2.75	3.75	3.75	7.50	9.00	4.00	1.50	3.00	-0.198730	0.150879	0.958496	-21.350000	13.160000	-10.710000	949.00	-0.03	-0.14
1.84	0.00	0.25	0.00	0.00	0.00	0.00	0.75	0.00	0.00	3.25	4.75	2.75	0.00	0.25	0.00	3.50	-0.963379	0.228516	2.364746	65.730003	-409.779999	129.009995	148.00	0.22	-0.10	4.75	5.50	6.00	7.75	5.00	8.25	4.00	9.00	3.50	4.50	5.75	8.00	9.25	5.50	2.25	3.25	-0.198242	0.162109	0.969238	-22.610001	14.770000	-11.690000	1000.00	0.00	-0.13
1.85	0.00	0.00	0.00	0.00	0.00	0.00	0.75	0.00	0.00	3.50	4.50	2.50	0.00	0.00	0.00	3.50	-1.185059	0.014648	2.386230	66.500000	-416.500000	125.860001	140.00	0.23	-0.10	3.75	4.75	5.50	7.25	5.00	7.75	4.25	9.00	4.25	6.25	7.50	8.75	9.50	6.50	2.50	4.00	-0.200195	0.144531	0.956543	-23.660000	16.450001	-12.460000	1041.00	0.03	-0.12
1.86	0.00	0.00	0.00	0.00	0.00	0.00	0.75	0.00	0.00	3.25	4.75	3.00	0.00	0.00	0.00	3.50	-1.394043	-0.104980	2.358398	59.150002	-415.380005	119.070000	146.00	0.23	-0.11	3.00	3.75	5.00	6.75	4.75	7.50	4.50	9.00	5.75	8.00	8.00	9.25	9.75	7.50	3.00	4.75	-0.193359	0.147949	0.961914	-23.590000	18.059999	-12.600000	1080.00	0.06	-0.11
1.87	0.00	0.00	0.00	0.00	0.00	0.00	0.75	0.00	0.00	3.25	4.50	2.75	0.00	0.25	0.00	3.50	-1.590332	-0.079102	2.479004	51.099998	-406.559998	108.639999	143.00	0.23	-0.10	2.75	3.25	4.75	6.00	4.50	7.00	4.75	9.00	7.00	9.00	9.00	10.00	10.25	8.50	3.25	5.25	-0.204590	0.157715	0.969238	-23.030001	20.230000	-13.370000	1121.00	0.08	-0.10
1.88	0.00	0.25	0.00	0.00	0.00	0.00	0.75	0.00	0.00	3.50	4.75	2.50	0.00	0.00	0.00	3.50	-1.777344	0.033691	2.720215	45.430000	-398.860016	100.940002	145.00	0.22	-0.10	2.50	2.75	4.50	5.50	4.25	6.75	5.00	9.00	7.75	9.50	9.75	10.50	10.75	9.75	5.00	5.75	-0.204590	0.137695	0.965820	-21.559999	22.260000	-14.980000	1168.00	0.10	-0.10
1.89	0.00	0.00	0.00	0.00	0.00	0.00	0.75	0.00	0.00	3.25	4.50	2.50	0.00	0.00	0.00	3.50	-2.055176	0.160156	2.603516	39.130001	-391.579987	99.120003	138.00	0.23	-0.10	2.25	2.00	3.75	5.00	3.75	6.25	5.25	9.00	8.75	10.50	10.50	11.25	11.00	11.50	5.50	6.25	-0.208008	0.141602	0.975586	-18.620001	25.410000	-16.170000	1202.00	0.12	-0.09
1.90	0.00	0.00	0.00	0.00	0.00	0.00	0.75	0.00	0.00	3.25	4.25	3.00	0.00	0.00	0.00	3.25	-2.934082	0.438477	1.961914	43.750000	-342.720001	104.440002	139.00	0.23	-0.11	1.50	0.75	2.75	4.75	3.50	6.00	5.25	8.75	9.50	11.50	11.75	11.75	11.25	13.50	6.25	6.50	-0.218750	0.169922	0.994141	-10.150000	35.910000	-18.340000	1226.00	0.14	-0.09
1.91	0.00	0.00	0.00	0.00	0.00	0.00	0.75	0.00	0.00	3.25	4.25	3.00	0.00	0.00	0.00	3.50	-3.347168	0.475586	1.577637	45.709999	-303.730011	109.129997	140.00	0.23	-0.11	1.25	1.00	2.50	4.00	2.75	5.50	5.50	8.75	10.50	12.50	12.50	12.50	11.75	16.00	7.00	7.25	-0.234863	0.160645	1.008301	-4.620000	44.029999	-20.090000	1282.00	0.16	-0.08
1.92	0.00	0.00	0.00	0.00	0.00	0.00	0.75	0.00	0.00	3.25	4.50	2.75	0.00	0.00	0.00	3.50	-3.700684	0.477051	1.149414	47.320000	-260.190002	116.550003	140.00	0.23	-0.11	1.00	0.25	1.75	2.75	2.00	4.25	5.50	8.50	11.75	13.25	13.25	13.25	12.00	18.00	7.75	7.50	-0.235352	0.167969	1.025879	2.730000	53.340000	-21.980000	1293.00	0.18	-0.07
1.93	0.00	0.00	0.00	0.00	0.00	0.00	0.75	0.00	0.00	3.25	4.25	2.75	0.00	0.00	0.00	3.50	-4.010742	0.291016	0.591797	53.270000	-211.750000	125.860001	138.00	0.23	-0.11	0.25	0.50	1.50	2.75	1.25	3.50	5.50	8.25	12.50	14.00	14.00	14.00	12.25	20.75	9.00	8.00	-0.264160	0.149902	1.035645	11.130000	66.570000	-22.610001	1340.00	0.20	-0.07
1.94	0.00	0.25	0.00	0.00	0.00	0.50	0.75	0.00	0.00	2.75	4.25	3.00	0.00	0.25	0.00	3.25	-4.244141	0.026855	0.186523	54.599998	-154.699997	137.270004	144.00	0.21	-0.12	0.00	0.00	1.00	1.75	0.75	2.50	5.50	7.75	13.50	14.75	14.75	14.50	12.25	22.50	9.75	8.50	-0.313965	0.101562	1.085938	22.260000	86.870003	-21.980000	1351.00	0.22	-0.06
1.95	0.00	0.00	0.00	0.00	0.00	0.00	0.75	0.00	0.00	3.50	4.25	2.75	0.00	0.25	0.00	3.50	-4.306152	-0.175293	-0.005371	46.340000	-93.940002	150.500000	143.00	0.23	-0.10	0.00	0.00	0.75	1.50	0.25	1.50	5.25	7.00	14.25	15.50	15.25	15.00	12.25	24.75	10.75	9.25	-0.312500	0.171875	1.072266	32.270000	118.440002	-19.879999	1376.00	0.23	-0.05
1.96	0.00	0.00	0.00	0.00	0.00	0.00	0.75	0.00	0.00	3.25	4.25	3.00	0.00	0.00	0.00	3.50	-4.200195	-0.415039	-0.031738	35.700001	-38.430000	161.350006	140.00	0.23	-0.11	0.00	0.00	0.75	1.00	0.00	0.75	5.25	6.00	14.75	16.00	15.75	15.25	12.00	26.50	11.75	9.50	-0.322266	0.165039	1.106934	38.639999	156.100006	-19.670000	1389.00	0.24	-0.04
1.97	0.00	0.25	0.00	0.00	0.00	0.00	0.75	0.00	0.00	3.25	4.25	2.50	0.00	0.00	0.00	3.50	-4.336426	-0.632812	0.164551	31.219999	4.970000	161.070007	138.00	0.22	-0.10	0.00	0.00	0.50	0.50	0.00	0.50	5.00	5.00	15.25	16.25	16.00	15.00	11.50	28.00	12.25	10.00	-0.348145	0.174805	1.079102	33.810001	189.210007	-22.960001	1384.00	0.25	-0.03
1.98	0.00	0.00	0.00	0.00	0.00	0.00	0.75	0.00	0.00	3.25	4.25	3.00	0.00	0.00	0.00	3.25	-4.490723	-0.814453	-0.051758	17.080000	47.040001	146.580002	139.00	0.23	-0.11	0.00	0.00	0.25	0.50	0.00	0.00	4.50	3.50	15.75	16.75	16.25	15.00	11.00	29.25	12.75	10.25	-0.391113	0.226562	1.068848	25.059999	220.850006	-28.840000	1373.00	0.26	-0.02
1.99	0.00	0.00	0.00	0.00	0.00	0.00	0.75	0.00	0.00	3.25	4.25	3.00	0.00	0.00	0.00	3.25	-4.447266	-0.660156	-0.105469	-0.420000	97.790001	123.830002	139.00	0.23	-0.11	0.00	0.00	0.25	0.00	0.25	0.00	4.00	2.75	16.00	16.75	16.00	14.50	10.25	30.25	13.00	10.50	-0.421875	0.153809	1.176270	11.480000	254.309998	-35.070000	1353.00	0.27	-0.02
2.00	0.00	0.00	0.00	0.00	0.00	0.25	0.75	0.00	0.00	2.75	4.50	3.00	0.00	0.00	0.00	3.50	-4.018066	-0.545410	0.208008	-1.960000	150.149994	99.260002	141.00	0.22	-0.12	0.00	0.00	0.00	0.00	0.00	0.00	3.50	2.00	16.00	16.75	15.75	14.25	9.50	31.25	13.00	10.50	-0.445312	0.225586	1.102051	-2.870000	281.119995	-40.599998	1325.00	0.28	-0.01
2.01	0.00	0.25	0.00	0.00	0.00	0.00	0.50	0.00	0.00	3.25	4.00	2.75	0.00	0.00	0.00	3.25	-3.332520	-0.502930	0.675781	-1.470000	190.470001	74.620003	132.00	0.22	-0.12	0.00	0.00	0.00	0.00	0.00	0.00	3.00	1.75	16.50	16.75	15.50	13.75	8.75	32.00	13.00	10.25	-0.486328	0.259277	1.123535	-15.680000	307.230011	-48.720001	1311.00	0.28	-0.00
2.02	1.25	2.75	0.25	0.50	0.00	0.00	0.75	0.00	0.00	3.00	4.25	3.00	0.00	0.25	0.00	3.25	-1.166016	-1.461914	5.144531	54.670002	223.509995	15.960000	185.00	0.08	-0.10	0.00	0.00	0.00	0.00	0.00	0.00	2.50	1.25	16.50	17.00	15.25	13.00	8.00	32.00	13.00	10.00	-0.569824	0.250977	1.074219	-23.309999	337.610016	-59.290001	1280.00	0.29	0.00
2.03	3.25	5.75	1.00	0.75	0.00	0.00	0.75	0.00	0.00	2.75	4.00	2.50	0.00	0.00	0.00	3.25	2.139160	-0.700195	-1.205566	42.700001	62.160000	-0.700000	232.00	-0.05	-0.08	0.00	0.00	0.00	0.00	0.00	0.00	2.25	1.25	16.00	16.50	14.75	12.50	7.00	31.25	12.75	9.75	-0.796387	0.225586	0.838867	-27.650000	369.950012	-68.320000	1235.00	0.29	0.00
2.04	7.25	10.50	1.25	2.00	0.00	0.00	0.50	0.00	0.00	3.00	3.75	2.75	0.00	0.00	0.00	3.25	-0.451172	-0.312012	-0.226074	-39.340000	169.399994	-46.830002	332.00	-0.15	-0.08	0.00	0.00	0.00	0.00	0.00	0.00	2.00	1.25	15.00	16.50	14.25	11.75	6.25	30.50	12.50	9.00	-0.605469	0.210449	1.116211	-34.369999	397.600006	-76.930000	1185.00	0.29	0.00
2.05	12.75	18.50	2.75	4.00	0.00	0.00	0.50	0.00	0.00	2.75	4.00	2.75	0.00	0.50	0.00	3.25	-0.910645	1.368164	3.248535	-21.350000	241.710007	-59.500000	506.00	-0.23	-0.07	0.00	0.00	0.00	0.00	0.00	0.00	1.75	1.00	13.50	15.50	13.50	11.25	5.50	29.75	12.25	8.25	-0.741699	0.307129	1.408203	-34.299999	411.179993	-84.489998	1114.00	0.29	0.01
2.06	19.50	26.00	4.25	5.75	0.00	0.00	0.50	0.00	0.00	2.75	4.00	2.75	0.00	0.50	0.00	3.25	0.396973	1.558594	1.010742	10.360000	223.649994	-30.940001	681.00	-0.27	-0.06	0.00	0.00	0.00	0.00	0.00	0.00	1.75	1.00	10.75	13.75	12.00	10.25	4.75	28.50	11.75	7.25	-1.216309	0.392090	1.693359	-18.760000	433.860016	-88.620003	1006.00	0.29	0.00
2.07	23.75	30.00	6.75	8.25	0.25	0.25	0.75	0.00	0.00	2.75	4.00	2.75	0.00	0.75	0.00	3.25	-0.315430	0.357910	1.709473	6.790000	278.459991	-36.820000	828.00	-0.28	-0.06	0.00	0.00	0.00	0.00	0.00	0.00	1.75	0.75	8.00	11.50	10.25	9.00	4.25	25.75	10.75	6.00	-1.519531	0.294434	2.047363	10.780000	450.660004	-80.010002	866.00	0.30	0.00
2.08	26.75	32.00	8.75	10.00	0.50	1.25	0.75	0.25	0.00	2.50	4.00	2.75	0.00	1.00	0.00	3.50	-0.705566	0.174316	2.597656	8.470000	306.809998	-36.189999	938.00	-0.28	-0.06	0.00	0.00	0.00	0.00	0.00	0.00	1.75	0.50	5.75	9.00	8.25	7.50	2.75	22.25	9.50	4.75	-2.001953	0.683594	2.502441	55.930000	458.429993	-66.220001	708.00	0.30	0.00
2.09	28.00	32.75	10.25	12.50	1.25	2.50	0.75	0.50	0.00	2.50	3.75	2.50	0.00	1.00	0.00	3.25	-0.366699	0.328125	1.917480	16.030001	295.890015	-34.790001	1021.00	-0.28	-0.06	0.00	0.00	0.00	0.00	0.00	0.00	1.75	0.00	4.00	7.75	6.00	5.50	2.00	17.50	7.75	2.50	-1.799316	0.124512	2.708984	85.120003	455.769989	-54.670002	542.00	0.30	0.02
2.10	28.50	33.25	12.25	14.25	2.25	4.50	1.00	1.00	0.00	2.75	4.00	3.00	0.00	1.25	0.00	3.50	-0.380371	0.386719	1.947266	8.540000	266.910004	-28.490000	1130.00	-0.27	-0.06	0.00	0.00	0.00	0.00	0.00	0.00	1.50	0.00	2.50	5.75	4.25	3.50	1.00	12.75	6.25	1.50	-0.282227	0.797363	2.456055	125.300003	448.070007	-51.029999	388.00	0.31	0.02
2.11	29.00	33.75	13.50	16.00	3.00	6.75	1.00	1.75	0.00	2.75	4.00	3.00	0.25	1.25	0.00	3.25	-0.516602	0.223633	1.937500	-31.500000	157.220001	-15.610000	1218.00	-0.26	-0.07	0.00	0.00	0.00	0.00	0.00	0.00	1.50	0.00	1.25	4.25	2.50	2.50	0.50	9.00	4.75	0.75	-0.408203	0.924316	1.525879	192.500000	470.049988	-71.889999	271.00	0.30	0.03
2.12	28.50	33.50	14.00	16.75	4.50	8.25	1.00	2.50	0.00	3.00	4.00	3.00	0.50	1.00	0.00	3.50	-0.332520	0.234863	1.541992	-38.220001	113.330002	-8.610000	1272.00	-0.26	-0.08	0.00	0.00	0.00	0.00	0.00	0.00	1.75	0.00	0.75	2.75	1.75	1.75	0.50	6.25	2.50	0.50	-0.520996	1.042969	2.480469	242.759995	470.959991	-96.320000	188.00	0.29	0.04
2.13	28.50	33.25	14.50	17.50	5.25	8.75	1.25	3.75	0.00	3.00	4.25	2.75	0.75	2.00	0.00	3.50	-0.202637	0.194824	1.229980	-31.990000	77.980003	-2.380000	1331.00	-0.25	-0.08	0.00	0.00	0.00	0.00	0.00	0.00	1.75	0.00	0.25	2.00	1.25	1.00	0.00	3.50	1.00	0.50	-0.253418	0.825195	3.055664	287.350006	434.000000	-129.850006	117.00	0.26	0.06
2.14	27.75	32.75	14.50	17.50	5.75	9.50	1.25	5.00	0.00	3.00	4.00	3.00	0.75	1.75	0.00	3.25	-0.164551	0.246582	1.140625	-22.190001	54.880001	-0.350000	1348.00	-0.24	-0.09	0.00	0.00	0.00	0.00	0.00	0.00	2.00	0.00	0.75	1.00	1.00	0.25	0.00	2.00	0.75	0.50	0.645020	-0.274902	2.945801	304.149994	356.019989	-179.479996	91.00	0.24	0.11
2.15	27.00	32.00	14.50	17.50	5.50	9.75	1.50	5.00	0.25	3.00	4.00	3.00	1.00	1.50	0.00	3.50	-0.178223	0.167480	1.113281	-14.840000	44.029999	0.980000	1342.00	-0.24	-0.09	0.00	0.00	0.00	0.00	0.00	0.00	2.00	0.00	0.25	1.25	0.75	0.25	0.00	1.00	0.50	0.25	4.610840	0.379883	3.937500	174.509995	194.110001	-213.289993	72.00	0.21	0.11
2.16	26.50	32.00	14.25	17.75	5.75	10.25	1.50	5.75	0.00	2.75	4.25	3.00	1.00	2.25	0.00	3.75	-0.184570	0.090820	1.043457	-7.910000	35.630001	1.120000	1361.00	-0.23	-0.09	0.00	0.00	0.00	0.00	0.00	0.00	2.00	0.00	0.25	1.25	0.75	0.00	0.00	0.75	0.25	0.25	0.903809	1.211914	7.000488	7.140000	-125.580002	-127.540001	65.00	0.19	0.13
2.17	26.25	31.00	14.00	18.00	6.00	10.75	1.50	6.00	0.00	3.00	4.25	3.25	1.25	2.00	0.00	3.50	-0.142090	0.203125	0.938965	-2.800000	30.100000	0.350000	1365.00	-0.23	-0.09	0.00	0.00	0.00	0.00	0.00	0.00	2.00	0.00	0.00	1.25	0.50	0.00	0.00	0.75	0.50	0.25	1.250977	0.352539	2.889648	-87.779999	-308.209991	-42.840000	62.00	0.20	0.13
2.18	25.25	30.50	13.75	17.50	6.25	11.00	1.50	6.50	0.00	3.00	4.25	3.25	1.50	2.00	0.00	3.50	-0.124023	0.140625	0.984863	1.330000	29.260000	0.770000	1357.00	-0.22	-0.10	0.00	0.00	0.00	0.00	0.00	0.00	2.00	0.00	0.25	1.00	0.50	0.00	0.00	0.50	0.25	0.25	0.544434	0.534180	1.439453	-159.949997	-337.750000	-21.139999	57.00	0.18	0.15
2.19	24.25	29.75	13.25	17.25	6.00	11.75	1.50	6.75	0.00	3.25	4.25	3.25	1.75	1.50	0.00	3.75	-0.157715	0.208008	0.972656	2.940000	28.000000	-0.070000	1342.00	-0.22	-0.10	0.00	0.00	0.00	0.00	0.00	0.00	2.00	0.00	0.00	0.50	0.50	0.00	0.00	0.50	0.25	0.00	0.508789	0.987305	0.837402	-126.699997	-291.130005	-27.790001	48.00	0.00	0.00
2.20	23.25	29.00	13.00	17.00	6.00	12.00	1.50	7.00	0.00	3.25	4.25	3.75	2.00	1.75	0.00	3.75	-0.149414	0.147949	0.964844	5.810000	26.250000	-0.700000	1335.00	-0.21	-0.11	0.00	0.00	0.00	0.00	0.00	0.00	2.00	0.00	0.00	0.25	0.25	0.00	0.00	0.50	0.00	0.00	0.643066	1.020508	0.966797	-30.520000	-274.750000	-47.180000	40.00	0.00	0.00
2.21	22.25	27.75	12.50	16.75	5.75	12.50	1.50	7.50	0.00	3.25	4.50	3.50	2.25	2.00	0.25	4.00	-0.151855	0.154785	0.958008	6.370000	25.760000	-1.960000	1324.00	-0.21	-0.11	0.00	0.00	0.00	0.00	0.00	0.00	2.00	0.00	0.00	0.75	0.00	0.00	0.00	0.25	0.25	0.00	0.465332	0.808105	1.577148	60.619999	-301.070007	-58.939999	43.00	0.00	0.00
2.22	21.25	26.75	12.00	16.25	6.00	12.25	1.75	7.75	0.25	3.50	4.50	3.75	2.25	1.50	0.25	3.75	-0.159668	0.156250	0.954590	6.300000	24.920000	-3.290000	1304.00	-0.20	-0.11	0.00	0.00	0.00	0.00	0.00	0.00	2.00	0.00	0.00	0.00	0.00	0.00	0.00	0.00	0.00	0.00	0.419922	0.464844	1.799805	93.940002	-346.920013	-52.709999	30.00	0.00	0.00
2.23	20.00	25.50	11.50	15.50	5.75	12.00	1.75	8.00	0.00	3.50	5.00	3.75	2.50	1.75	0.25	3.75	-0.157715	0.164062	0.948242	5.530000	25.620001	-4.620000	1270.00	-0.19	-0.11	0.00	0.00	0.00	0.00	0.00	0.00	2.25	0.00	0.00	0.25	0.00	0.00	0.00	0.00	0.00	0.00	0.348145	0.379395	1.628418	59.709999	-394.660004	-29.610001	37.00	0.00	0.00
2.24	18.50	24.00	11.00	15.00	5.75	12.50	1.75	8.25	0.00	3.75	5.00	4.00	3.00	1.75	0.25	4.00	-0.158691	0.165039	0.907715	4.550000	26.180000	-5.320000	1250.00	-0.18	-0.12	0.00	0.00	0.00	0.00	0.00	0.00	2.00	0.00	0.00	0.25	0.00	0.00	0.00	0.00	0.00	0.00	0.142578	0.545410	1.313965	9.240000	-423.779999	2.170000	33.00	0.00	0.00
2.25	17.25	23.00	10.25	14.50	5.75	12.25	1.75	8.50	0.25	3.75	5.00	4.00	3.25	1.75	0.25	4.00	-0.152832	0.163574	0.940918	2.240000	26.880001	-5.600000	1220.00	-0.17	-0.12	0.00	0.00	0.00	0.00	0.00	0.00	2.00	0.00	0.00	0.00	0.00	0.00	0.00	0.00	0.00	0.00	-0.049805	0.705078	0.956055	-7.490000	-429.940002	30.030001	30.00	0.00	0.00
2.26	15.75	20.50	10.00	13.50	5.50	12.00	2.00	8.75	0.25	3.75	5.25	4.25	3.75	1.50	0.25	4.25	-0.163086	0.163086	0.935059	-0.140000	27.930000	-5.880000	1179.00	-0.16	-0.13	0.00	0.00	0.00	0.00	0.00	0.00	2.00	0.00	0.00	0.00	0.00	0.00	0.00	0.25	0.00	0.00	-0.166016	0.727051	0.885254	17.150000	-422.589996	46.689999	32.00	0.00	0.00
2.27	13.75	18.50	9.50	13.00	5.50	11.75	2.00	8.75	0.00	3.50	5.75	4.50	4.00	2.00	0.00	4.25	-0.171387	0.149414	0.954102	-1.540000	28.630001	-6.160000	1132.00	-0.15	-0.13	0.00	0.00	0.00	0.00	0.00	0.00	2.00	0.00	0.00	0.00	0.00	0.00	0.00	0.00	0.00	0.00	-0.234863	0.542480	1.000977	56.420002	-412.299988	52.220001	30.00	0.00	0.00
2.28	12.00	16.25	8.75	11.75	5.75	11.75	2.00	9.00	0.25	4.00	5.75	4.75	4.75	2.00	0.25	4.50	-0.172363	0.157227	0.947754	-2.240000	28.630001	-6.440000	1099.00	-0.13	-0.14	0.00	0.00	0.00	0.00	0.00	0.00	2.25	0.00	0.00	0.00	0.00	0.00	0.00	0.00	0.25	0.00	-0.330566	0.368164	1.186035	82.739998	-404.179993	52.220001	37.00	0.00	0.00
2.29	10.00	14.50	8.50	11.00	5.50	11.50	2.00	9.50	0.50	4.00	6.00	5.25	5.25	2.00	0.25	4.50	-0.170898	0.152344	0.945312	-3.080000	28.700001	-7.000000	1069.00	-0.11	-0.14	0.00	0.00	0.00	0.00	0.00	0.00	2.00	0.00	0.00	0.00	0.00	0.00	0.00	0.00	0.00	0.00	-0.437500	0.240234	1.329102	87.080002	-399.910004	51.380001	30.00	0.00	0.00
2.30	9.00	12.25	8.00	10.00	5.50	11.00	2.25	9.50	0.50	4.25	6.25	5.50	5.75	2.25	0.25	4.50	-0.194336	0.158203	0.950684	-5.600000	28.490000	-7.630000	1034.00	-0.10	-0.15	0.00	0.00	0.00	0.00	0.00	0.00	2.00	0.00	0.00	0.00	0.00	0.00	0.00	0.00	0.00	0.00	-0.639648	0.276367	1.460938	69.650002	-393.890015	50.959999	30.00	0.00	0.00
2.31	8.00	10.50	7.75	9.25	5.50	11.00	2.50	9.75	0.75	4.25	6.25	6.25	6.00	2.50	0.50	4.75	-0.160645	0.177246	0.950684	-9.940000	28.350000	-8.960000	1024.00	-0.08	-0.15	0.00	0.00	0.00	0.00	0.00	0.00	2.00	0.00	0.00	0.00	0.00	0.00	0.00	0.00	0.00	0.00	-0.731934	0.327637	1.593750	74.059998	-388.010010	56.000000	30.00	0.00	0.00
2.32	7.00	9.00	7.25	8.75	5.75	10.75	2.25	9.75	0.75	4.75	7.00	6.50	6.50	2.25	0.75	5.00	-0.210449	0.153320	0.945801	-20.370001	26.460001	-11.340000	1007.00	-0.06	-0.15	0.00	0.00	0.00	0.00	0.00	0.00	2.00	0.00	0.00	0.00	0.00	0.00	0.00	0.00	0.00	0.00	-0.744141	0.325195	1.756348	80.709999	-383.950012	65.379997	30.00	0.00	0.00
2.33	6.50	8.00	7.00	8.00	5.75	10.50	2.75	9.75	1.00	5.00	7.25	7.00	6.75	3.00	0.75	5.00	-0.202637	0.173828	0.940918	-24.990000	25.129999	-11.970000	1008.00	-0.05	-0.15	0.00	0.00	0.00	0.00	0.00	0.00	2.00	0.00	0.00	0.00	0.00	0.00	0.00	0.00	0.00	0.00	-0.815918	0.317871	1.913574	84.559998	-381.850006	75.879997	30.00	0.00	0.00
2.34	5.75	7.25	6.75	7.50	6.25	10.25	2.75	9.75	1.50	5.50	7.50	7.50	7.25	3.75	0.75	5.25	-0.204590	0.140137	0.962891	-28.630001	25.480000	-13.090000	1020.00	-0.03	-0.14	0.00	0.00	0.00	0.00	0.00	0.00	2.00	0.00	0.00	0.00	0.00	0.00	0.00	0.00	0.00	0.00	-0.902344	0.335449	2.064453	89.529999	-380.799988	84.980003	30.00	0.00	0.00
2.35	5.50	6.50	6.50	7.00	6.25	9.75	3.00	9.75	2.00	6.00	8.00	7.75	7.50	3.75	1.00	5.25	-0.208984	0.157227	0.945312	-31.150000	25.830000	-14.070000	1025.00	-0.02	-0.14	0.00	0.00	0.00	0.00	0.00	0.00	2.00	0.00	0.00	0.00	0.00	0.00	0.00	0.00	0.00	0.00	-0.957520	0.354980	2.170410	91.419998	-380.029999	94.709999	30.00	0.00	0.00
2.36	5.00	6.00	6.25	6.50	6.50	9.50	3.25	9.75	2.25	6.75	8.50	8.25	7.50	4.75	1.25	5.75	-0.212402	0.129395	0.954590	-32.410000	25.830000	-14.980000	1046.00	0.00	-0.13	0.00	0.00	0.00	0.00	0.00	0.00	2.00	0.00	0.00	0.00	0.00	0.00	0.00	0.00	0.00	0.00	-1.027832	0.359375	2.216797	90.160004	-377.579987	107.590004	30.00	0.00	0.00
2.37	4.25	5.50	6.00	6.00	6.50	9.50	3.50	9.75	3.25	7.75	9.00	9.00	8.00	5.25	1.25	5.75	-0.223633	0.122559	0.952148	-31.290001	25.900000	-15.540000	1075.00	0.02	-0.13	0.00	0.00	0.00	0.00	0.00	0.00	2.00	0.00	0.00	0.00	0.00	0.00	0.00	0.00	0.00	0.00	-1.128906	0.358887	2.294434	87.010002	-371.000000	121.800003	30.00	0.00	0.00
2.38	3.50	5.00	5.75	5.75	6.75	9.00	4.00	9.50	4.25	8.25	9.75	9.50	8.25	6.25	1.50	6.25	-0.233887	0.118652	0.962891	-28.490000	25.830000	-15.820000	1105.00	0.04	-0.12	0.00	0.00	0.00	0.00	0.00	0.00	2.00	0.00	0.00	0.00	0.00	0.00	0.00	0.00	0.00	0.00	-1.271973	0.386230	2.384766	82.599998	-362.110016	133.279999	30.00	0.00	0.00
2.39	3.25	4.25	5.25	5.25	6.50	8.75	4.25	9.75	5.00	8.75	10.25	10.25	8.75	7.25	1.75	6.25	-0.234375	0.112793	0.955078	-23.870001	26.040001	-15.960000	1130.00	0.05	-0.12	0.00	0.00	0.00	0.00	0.00	0.00	2.00	0.00	0.00	0.00	0.00	0.00	0.00	0.00	0.00	0.00	-1.454102	0.392578	2.465820	82.040001	-352.239990	141.190002	30.00	0.00	0.00
2.40	2.50	3.50	5.25	5.00	6.50	8.50	4.50	9.75	6.50	9.25	11.00	11.00	9.25	8.25	2.00	6.75	-0.220215	0.104980	0.966797	-18.830000	27.650000	-15.610000	1173.00	0.07	-0.11	0.00	0.00	0.00	0.00	0.00	0.00	2.00	0.00	0.00	0.00	0.00	0.00	0.00	0.00	0.00	0.00	-1.722168	0.378906	2.446289	81.480003	-341.110016	144.410004	30.00	0.00	0.00
2.41	1.75	3.50	4.75	4.25	6.25	8.25	5.00	9.75	7.50	10.00	11.75	11.75	9.50	9.00	2.50	6.75	-0.233398	0.108887	0.967773	-13.440001	30.170000	-15.960000	1204.00	0.09	-0.10	0.00	0.00	0.00	0.00	0.00	0.00	2.00	0.00	0.00	0.00	0.00	0.00	0.00	0.00	0.00	0.00	-2.005859	0.402344	2.341797	80.500000	-329.000000	142.940002	30.00	0.00	0.00
2.42	1.50	2.50	4.00	4.25	5.75	8.00	5.25	9.75	8.25	10.50	12.50	12.75	10.00	9.75	3.00	7.25	-0.253418	0.104980	0.946289	-8.260000	33.180000	-16.379999	1231.00	0.11	-0.10	0.00	0.00	0.00	0.00	0.00	0.00	2.00	0.00	0.25	0.00	0.00	0.00	0.00	0.00	0.00	0.00	-2.277832	0.431152	2.052734	83.300003	-314.860016	138.389999	34.00	0.00	0.00
2.43	1.50	2.25	3.25	3.50	5.25	7.50	5.25	9.50	8.75	11.25	13.50	13.50	10.50	10.75	3.50	7.75	-0.245117	0.106934	0.968750	-2.800000	37.730000	-16.520000	1251.00	0.12	-0.10	0.00	0.00	0.00	0.00	0.00	0.00	2.00	0.00	0.00	0.00	0.00	0.00	0.00	0.00	0.00	0.00	-2.499512	0.314941	1.527344	96.739998	-293.860016	135.520004	30.00	0.00	0.00
2.44	0.75	1.75	2.50	3.00	4.50	7.00	5.25	9.50	9.50	12.00	14.50	14.75	11.00	12.00	4.25	8.25	-0.243652	0.119141	0.966309	1.890000	42.840000	-17.500000	1278.00	0.14	-0.10	0.00	0.00	0.00	0.00	0.00	0.00	2.00	0.00	0.00	0.00	0.00	0.00	0.00	0.00	0.00	0.00	-2.748535	-0.094238	1.241699	125.650002	-261.519989	141.680008	30.00	0.00	0.00
2.45	0.75	1.50	2.00	2.25	3.25	6.50	5.25	9.50	10.00	12.75	15.25	15.50	11.75	13.25	5.50	9.00	-0.288086	0.112793	0.947754	6.160000	47.670002	-18.690001	1308.00	0.16	-0.10	0.00	0.00	0.00	0.00	0.00	0.00	2.00	0.00	0.00	0.00	0.00	0.00	0.00	0.00	0.00	0.00	-3.130859	-0.701172	1.204590	131.389999	-220.220001	155.470001	30.00	0.00	0.00
2.46	0.25	1.25	1.00	2.50	2.50	6.00	5.25	9.25	10.50	13.25	16.25	16.75	12.00	15.00	6.25	9.50	-0.261230	0.128906	0.978027	11.410000	53.060001	-19.600000	1337.00	0.17	-0.10	0.00	0.00	0.00	0.00	0.00	0.00	2.00	0.00	0.00	0.00	0.00	0.00	0.00	0.00	0.00	0.00	-3.403320	-0.983887	0.981445	75.809998	-181.580002	174.089996	30.00	0.00	0.00
2.47	0.25	0.75	0.75	1.75	1.25	5.50	5.00	9.00	11.25	14.25	17.50	17.50	12.75	16.50	7.00	10.00	-0.264160	0.121094	0.990723	16.520000	60.270000	-21.420000	1366.00	0.19	-0.10	0.00	0.00	0.00	0.00	0.00	0.00	2.00	0.00	0.00	0.00	0.00	0.00	0.00	0.00	0.00	0.00	-3.661133	-0.568359	0.410156	-4.620000	-144.619995	185.220001	30.00	0.00	0.00
2.48	0.00	0.50	0.50	0.75	1.25	4.75	4.75	8.50	11.50	14.75	18.25	18.50	13.00	18.25	8.25	10.75	-0.297852	0.167969	0.962891	22.540001	70.910004	-23.309999	1389.00	0.21	-0.09	0.00	0.00	0.00	0.00	0.00	0.00	2.00	0.00	0.00	0.00	0.00	0.00	0.00	0.00	0.00	0.00	-3.978516	-0.145020	-0.203125	-30.100000	-101.290001	180.809998	30.00	0.00	0.00
2.49	0.00	0.50	0.00	1.25	0.50	3.75	4.00	8.25	12.00	15.50	19.25	19.25	13.50	20.00	9.00	11.50	-0.319336	0.156738	1.016113	30.100000	85.470001	-25.900000	1419.00	0.22	-0.09	0.00	0.00	0.00	0.00	0.00	0.00	2.00	0.00	0.00	0.00	0.00	0.00	0.00	0.00	0.00	0.00	-4.311523	-0.124023	-0.241211	-3.360000	-52.290001	159.740005	30.00	0.00	0.00
2.50	0.00	0.25	0.25	1.25	0.25	3.00	3.50	7.75	12.25	15.75	20.00	20.00	13.25	21.75	9.75	11.75	-0.333008	0.172852	1.002930	40.950001	107.940002	-26.180000	1437.00	0.23	-0.09	0.00	0.00	0.00	0.00	0.00	0.00	1.75	0.00	0.00	0.00	0.00	0.00	0.00	0.00	0.00	0.00	-3.958984	-0.426758	0.095703	8.960000	42.840000	121.590004	27.00	0.00	0.00
2.51	0.00	0.00	0.00	1.00	0.25	2.50	2.75	7.00	12.50	16.25	20.50	20.50	13.25	23.25	10.75	12.50	-0.384766	0.155762	1.046387	52.920002	137.199997	-27.160000	1447.00	0.24	-0.08	0.00	0.00	0.00	0.00	0.00	0.00	2.00	0.00	0.00	0.00	0.00	0.00	0.00	0.00	0.00	0.00	-3.610352	-0.434082	0.253906	-2.030000	82.040001	117.180000	30.00	0.00	0.00
2.52	0.00	0.00	0.00	0.50	0.00	2.00	2.00	6.25	12.75	16.50	20.75	20.25	12.75	24.75	11.75	13.00	-0.381348	0.138184	1.023926	65.099998	168.979996	-28.840000	1438.00	0.25	-0.08	0.25	0.00	0.00	0.00	0.00	0.00	2.00	0.00	0.00	0.00	0.00	0.00	0.00	0.00	0.00	0.00	-2.943359	-0.333984	0.945312	-5.530000	215.949997	91.489998	33.00	0.00	0.00
2.53	0.00	0.00	0.00	0.25	0.00	1.25	1.25	5.50	12.75	16.50	20.50	20.00	12.00	26.25	12.50	13.00	-0.521973	0.205078	1.083984	74.760002	228.690002	-40.389999	1413.00	0.26	-0.07	1.25	1.50	0.50	0.50	0.00	0.00	1.75	0.00	0.00	0.00	0.00	0.00	0.00	0.00	0.00	0.00	-0.704102	-0.417480	1.604980	-29.750000	235.270004	43.189999	64.00	-0.19	0.07
2.54	0.00	0.00	0.00	0.75	0.00	1.00	0.75	4.75	12.50	16.50	20.00	19.25	11.00	27.25	13.00	13.25	-0.484375	0.218750	1.213867	50.750000	271.040009	-47.180000	1387.00	0.26	-0.07	3.75	5.25	1.25	2.00	0.00	0.00	1.75	0.00	0.00	0.00	0.00	0.00	0.00	0.00	0.00	0.00	0.498535	0.087402	1.760742	-38.500000	205.589996	32.410000	150.00	-0.29	-0.01
2.55	0.00	0.00	0.00	0.00	0.00	1.00	0.25	4.25	12.75	16.25	19.75	18.25	9.50	28.00	13.25	13.25	-0.565430	0.319824	1.173340	23.660000	306.880005	-56.910000	1347.00	0.27	-0.06	8.25	9.50	2.00	4.00	0.00	0.00	1.75	0.00	0.00	0.00	0.00	0.00	0.00	0.00	0.00	0.00	-0.198730	-0.568848	0.921387	-13.580000	195.440002	24.710001	266.00	-0.33	-0.03
2.56	0.00	0.00	0.00	0.00	0.00	0.25	0.25	3.25	12.75	16.00	19.25	17.00	8.50	28.25	13.00	12.50	-0.616699	0.374512	1.239746	0.420000	349.440002	-70.629997	1289.00	0.28	-0.05	13.25	14.00	3.50	5.50	0.00	0.00	1.75	0.00	0.00	0.00	0.00	0.00	0.00	0.00	0.00	0.00	-0.167969	-0.513184	1.358398	-1.400000	229.040009	0.350000	392.00	-0.34	-0.03
2.57	0.00	0.00	0.00	0.00	0.25	0.25	0.25	2.75	12.50	15.75	18.50	15.75	7.25	28.25	12.50	12.00	-0.741211	0.315918	1.302734	-11.200000	395.920013	-89.949997	1239.00	0.28	-0.04	18.50	18.00	6.00	8.25	0.00	0.00	1.75	0.00	0.00	0.00	0.00	0.00	0.00	0.00	0.00	0.00	-0.423828	-0.335449	2.229004	13.160000	252.839996	-30.380001	541.00	-0.35	-0.03
2.58	0.00	0.00	0.00	0.00	0.00	0.00	0.00	2.50	12.75	15.50	17.75	14.25	6.25	27.50	11.75	11.25	-0.697266	0.327148	1.258789	-22.330000	437.989990	-107.870003	1176.00	0.28	-0.03	21.75	21.00	7.75	9.50	0.25	0.00	1.75	0.00	0.00	0.00	0.00	0.00	0.00	0.00	0.00	0.00	-0.571289	0.316406	2.006348	34.580002	256.130005	-51.939999	638.00	-0.35	-0.03
2.59	0.00	0.00	0.00	0.00	0.00	0.00	0.25	2.25	12.25	15.00	16.50	12.50	5.25	26.75	10.75	10.00	-0.930176	0.404297	1.378906	-26.740000	481.390015	-119.209999	1100.00	0.28	-0.02	23.75	22.25	9.50	11.25	0.50	1.00	1.75	0.25	0.00	0.00	0.00	0.00	0.00	0.00	0.00	0.00	-0.611328	0.596191	2.064453	40.389999	263.410004	-51.170002	727.00	-0.34	-0.03
2.60	0.00	0.00	0.00	0.00	0.00	0.00	0.25	2.00	10.75	13.25	14.75	11.00	4.75	25.75	9.75	9.00	-1.312988	0.481934	1.927246	-11.970000	511.700012	-121.449997	995.00	0.29	-0.02	24.75	22.75	10.50	12.50	1.25	2.75	2.00	0.75	0.00	0.00	0.00	0.00	0.25	0.00	0.00	0.00	-0.436523	0.636719	2.067871	22.540001	254.729996	-29.330000	807.00	-0.33	-0.04
2.61	0.00	0.00	0.00	0.00	0.00	0.00	0.50	1.00	8.50	11.25	12.25	9.00	3.25	23.50	8.50	7.75	-1.497070	0.702637	3.053711	27.090000	524.020020	-108.500000	834.00	0.29	-0.01	24.50	22.75	11.50	13.50	1.75	4.50	2.25	1.50	0.00	0.00	0.00	0.25	0.50	0.00	0.00	0.00	-0.460938	0.489258	1.799805	-30.100000	207.759995	-13.440001	871.00	-0.31	-0.05
2.62	0.00	0.00	0.00	0.00	0.00	0.00	0.50	0.50	6.25	9.00	9.75	7.50	2.25	20.25	7.25	6.25	-2.573730	0.692383	3.593262	95.550003	520.450012	-87.430000	674.00	0.30	-0.00	24.25	22.25	12.00	14.00	2.25	6.25	2.25	2.50	0.00	0.00	0.00	0.00	1.00	0.00	0.00	0.00	-0.404785	0.281738	1.589355	-65.940002	154.559998	-4.060000	917.00	-0.30	-0.06
2.63	0.00	0.00	0.00	0.00	0.00	0.00	0.25	0.00	3.75	7.75	8.00	6.25	1.50	15.75	5.75	5.25	-1.459961	0.958008	3.450684	153.160004	508.059998	-82.669998	519.00	0.30	-0.01	24.00	22.00	12.50	14.50	4.00	7.50	2.50	4.00	0.00	0.00	0.00	0.25	1.75	0.25	0.00	0.25	-0.266113	0.109375	1.393555	-67.620003	111.300003	1.470000	995.00	-0.28	-0.07
2.64	0.00	0.00	0.00	0.00	0.00	0.00	0.50	0.00	2.00	7.00	7.25	5.25	1.00	12.25	4.25	4.25	-1.355957	0.724609	3.578613	223.369995	485.940002	-104.230003	419.00	0.30	-0.02	23.75	21.50	12.75	14.75	4.75	8.25	2.50	5.25	0.00	0.00	0.00	0.25	2.25	0.50	0.00	0.25	-0.286133	0.114746	1.371094	-53.689999	71.120003	1.890000	1035.00	-0.27	-0.08
2.65	0.00	0.00	0.00	0.00	0.00	0.00	0.50	0.00	1.25	5.75	6.50	5.00	0.75	9.00	2.25	3.75	-0.742188	0.696289	2.877441	265.790009	477.820007	-129.500000	332.00	0.29	-0.03	23.75	21.25	13.25	14.50	5.50	8.75	2.75	6.00	0.00	0.00	0.25	0.50	2.50	0.50	0.00	0.25	-0.217773	0.163574	1.151367	-32.480000	40.389999	2.240000	1072.00	-0.26	-0.08
2.66	0.00	0.00	0.00	0.00	0.00	0.00	0.75	0.00	0.75	5.00	5.75	4.25	0.25	5.50	1.00	3.75	-0.200684	0.433594	3.514648	272.649994	464.029999	-167.229996	258.00	0.27	-0.04	23.25	21.25	12.75	15.00	5.50	9.00	2.75	6.50	0.00	0.25	0.50	0.75	3.00	0.50	0.00	0.25	-0.186035	0.152344	1.068848	-19.950001	25.340000	3.290000	1089.00	-0.25	-0.09
2.67	0.00	0.00	0.00	0.00	0.00	0.00	0.75	0.00	0.75	5.00	5.50	4.25	0.00	2.50	0.50	3.50	0.905762	0.360352	3.306152	270.899994	424.059998	-221.199997	221.00	0.25	-0.06	23.50	21.00	13.00	15.00	6.00	9.50	3.00	7.00	0.25	0.00	0.25	0.75	3.25	0.75	0.00	0.25	-0.167480	0.152832	1.030762	-14.980000	18.690001	2.800000	1117.00	-0.25	-0.09
2.68	0.00	0.00	0.00	0.00	0.00	0.00	0.75	0.00	0.50	4.75	5.50	3.75	0.00	1.50	0.50	4.00	4.729004	0.533203	3.254883	215.040009	343.279999	-264.529999	204.00	0.25	-0.08	23.00	20.75	13.00	15.00	6.00	9.50	2.75	7.50	0.25	0.50	0.00	0.75	3.50	0.75	0.00	0.50	-0.170898	0.161133	1.033203	-12.740000	13.580000	2.100000	1119.00	-0.24	-0.09
2.69	0.00	0.50	0.00	0.00	0.00	0.25	1.00	0.00	0.50	4.50	5.50	3.75	0.00	1.75	0.25	3.50	0.792480	2.221191	7.083984	69.300003	56.420002	-224.979996	210.00	0.22	-0.07	22.50	20.50	12.75	15.00	6.25	9.75	3.00	7.50	0.75	0.25	0.25	0.50	3.50	1.00	0.25	0.25	-0.145508	0.148438	0.999512	-11.060000	10.220000	1.750000	1126.00	-0.24	-0.09
2.70	0.00	0.00	0.00	0.00	0.00	0.00	1.00	0.00	0.75	4.75	5.50	3.50	0.00	1.50	0.25	3.75	1.672363	0.755859	4.220703	0.490000	-203.350006	-117.040001	205.00	0.24	-0.06	22.00	20.00	12.75	14.75	6.25	9.75	3.00	7.50	0.25	0.25	0.50	0.75	3.75	1.00	0.25	0.50	-0.134277	0.133789	0.972656	-7.700000	7.490000	0.910000	1116.00	-0.23	-0.09
2.71	0.00	0.00	0.00	0.00	0.00	0.25	0.75	0.00	0.50	4.50	5.25	3.25	0.00	1.75	0.25	3.50	0.832031	0.623047	1.854492	-76.580002	-288.610016	-38.080002	193.00	0.24	-0.07	21.50	19.50	12.25	15.00	6.25	10.00	3.00	7.75	0.50	0.75	0.25	1.00	3.75	1.00	0.00	0.50	-0.138672	0.149902	0.984863	-5.390000	7.070000	0.280000	1115.00	-0.23	-0.10
2.72	0.00	0.00	0.00	0.00	0.00	0.00	0.75	0.00	0.25	4.25	5.25	3.25	0.00	1.25	0.25	3.50	0.531738	0.826172	1.220703	-113.889999	-267.679993	16.520000	181.00	0.25	-0.08	20.50	19.00	12.25	14.25	6.25	9.75	3.00	8.00	0.50	0.50	0.75	1.00	4.50	1.25	0.00	0.75	-0.135742	0.155762	0.979980	-3.990000	7.490000	-0.280000	1106.00	-0.22	-0.10
2.73	0.00	0.00	0.00	0.00	0.00	0.00	0.75	0.00	0.25	4.25	5.00	3.25	0.00	0.75	0.25	3.75	0.604004	0.719238	1.628418	-27.580000	-269.010010	37.029999	175.00	0.24	-0.09	19.75	18.25	12.00	14.00	6.25	10.00	3.00	8.00	0.75	0.50	0.50	1.25	4.75	1.00	0.00	0.75	-0.136230	0.142090	0.979004	-3.500000	8.400000	-1.120000	1092.00	-0.22	-0.10
2.74	0.00	0.00	0.00	0.00	0.00	0.00	1.00	0.00	0.00	3.75	5.25	3.00	0.00	1.00	0.00	3.25	0.535156	0.242676	1.747070	22.049999	-314.160004	25.620001	167.00	0.24	-0.08	18.75	17.50	11.50	13.75	6.00	9.75	3.00	8.25	0.75	0.75	0.50	1.50	5.00	1.25	0.25	0.75	-0.144043	0.148926	0.982422	-2.800000	8.890000	-1.960000	1077.00	-0.21	-0.10
2.75	0.00	0.00	0.00	0.00	0.00	0.25	1.00	0.00	0.00	3.75	5.25	3.00	0.00	1.00	0.00	3.50	0.385254	0.001953	1.455078	17.150000	-352.730011	12.460000	171.00	0.23	-0.09	17.50	16.50	11.25	13.50	6.25	10.00	3.00	8.25	0.75	1.00	1.00	1.50	5.00	1.50	0.25	0.75	-0.153320	0.156738	0.977539	-2.030000	8.960000	-2.240000	1064.00	-0.20	-0.11
2.76	0.00	0.00	0.00	0.00	0.00	0.00	0.75	0.00	0.00	4.00	5.00	3.00	0.00	0.50	0.25	3.75	0.233398	0.154785	1.247070	-16.379999	-373.730011	2.450000	164.00	0.24	-0.10	16.25	15.50	10.75	12.75	6.00	9.75	3.25	8.25	0.75	1.00	0.75	1.50	5.00	1.25	0.25	1.00	-0.142578	0.152832	0.977539	-1.820000	8.750000	-2.590000	1023.00	-0.19	-0.11
2.77	0.00	0.00	0.00	0.00	0.00	0.00	0.75	0.00	0.00	3.75	5.00	2.75	0.00	0.50	0.00	3.50	0.058105	0.382324	1.083008	-30.660000	-386.750000	-3.850000	155.00	0.24	-0.09	15.00	14.25	10.25	12.50	5.75	9.50	3.00	8.25	0.75	1.25	1.00	1.75	5.25	1.50	0.25	1.00	-0.150879	0.150391	0.965332	-2.380000	8.330000	-3.150000	993.00	-0.18	-0.11
2.78	0.00	0.00	0.00	0.00	0.00	0.00	1.00	0.00	0.00	3.75	4.75	3.00	0.00	0.50	0.00	3.50	-0.093750	0.513184	0.977051	-17.920000	-393.260010	-6.790000	159.00	0.23	-0.09	13.75	13.25	9.75	11.75	5.50	9.50	3.25	8.50	1.00	1.25	1.00	1.75	5.50	1.50	0.50	1.25	-0.141602	0.143066	0.949707	-3.290000	8.050000	-3.710000	972.00	-0.17	-0.12
2.79	0.00	0.00	0.00	0.00	0.00	0.00	0.75	0.00	0.00	3.50	4.75	3.00	0.00	0.00	0.00	3.50	-0.158691	0.553711	1.001953	0.350000	-393.540009	-3.430000	148.00	0.23	-0.11	12.50	11.75	9.25	11.50	5.50	9.25	3.25	8.50	1.25	1.25	1.25	2.25	5.50	1.50	0.50	1.00	-0.141602	0.155273	0.958496	-4.690000	8.260000	-4.340000	944.00	-0.16	-0.12
2.80	0.00	0.00	0.00	0.00	0.00	0.00	0.75	0.00	0.00	3.50	5.00	2.75	0.00	0.25	0.00	3.25	-0.196777	0.633789	1.106445	7.840000	-391.860016	8.470000	149.00	0.23	-0.10	11.00	10.50	9.00	11.00	5.50	9.25	3.25	8.50	0.75	1.25	1.50	2.50	6.00	2.00	0.50	1.50	-0.156738	0.148926	0.952637	-7.000000	8.400000	-5.110000	919.00	-0.14	-0.12
2.81	0.00	0.00	0.00	0.00	0.00	0.25	0.75	0.00	0.00	3.25	4.75	2.75	0.00	0.00	0.00	3.25	-0.250977	0.781738	1.321777	9.730000	-392.279999	29.400000	144.00	0.22	-0.11	10.00	9.50	8.50	10.50	5.50	9.00	3.25	8.75	1.00	1.50	1.75	3.00	6.75	2.00	0.50	1.75	-0.159668	0.147949	0.943848	-9.870000	8.540000	-5.810000	911.00	-0.13	-0.13
2.82	0.00	0.00	0.00	0.00	0.00	0.00	1.00	0.00	0.00	3.50	4.75	2.75	0.00	0.25	0.00	3.25	-0.305664	0.880371	1.467285	14.700000	-398.160004	56.279999	150.00	0.23	-0.09	9.50	9.00	8.25	9.75	5.50	9.00	3.50	8.75	1.75	1.75	2.00	3.25	7.00	2.25	1.00	1.75	-0.162109	0.141113	0.953613	-11.690000	8.960000	-6.370000	921.00	-0.11	-0.12
2.83	0.00	0.00	0.00	0.00	0.00	0.00	0.75	0.00	0.00	3.25	4.75	2.75	0.00	0.00	0.00	3.50	-0.473145	0.867188	1.472656	25.270000	-403.619995	84.000000	143.00	0.23	-0.11	8.25	8.25	8.00	9.75	5.50	8.75	3.50	9.00	2.00	2.25	2.50	3.75	7.50	2.75	1.00	2.00	-0.166016	0.135254	0.945312	-12.530000	9.520000	-6.440000	928.00	-0.09	-0.13
2.84	0.00	0.00	0.00	0.50	0.00	0.50	0.75	0.00	0.00	3.25	4.50	2.75	0.00	0.00	0.00	3.50	-0.602051	0.823242	1.619629	37.869999	-403.339996	110.599998	151.00	0.20	-0.12	7.50	7.50	7.75	9.00	5.25	8.75	3.50	9.00	2.50	2.75	2.75	4.75	8.25	3.00	1.00	2.25	-0.162109	0.125000	0.959473	-14.630000	11.200000	-6.580000	935.00	-0.07	-0.13
2.85	0.00	0.00	0.00	0.00	0.00	0.00	0.75	0.00	0.00	3.50	4.50	3.00	0.00	0.00	0.00	3.50	-0.669434	0.811523	1.925781	49.840000	-405.790009	133.979996	146.00	0.23	-0.11	6.75	6.75	7.25	8.75	5.25	8.75	3.75	9.25	2.75	3.50	3.75	5.75	8.50	3.25	1.00	2.25	-0.176270	0.137695	0.968262	-17.290001	13.370000	-7.350000	956.00	-0.05	-0.13
2.86	0.00	0.00	0.00	0.00	0.00	0.00	0.75	0.00	0.00	3.25	4.50	3.00	0.00	0.00	0.00	3.25	-0.757324	0.688477	2.096680	60.340000	-415.100006	153.509995	142.00	0.23	-0.11	5.75	6.00	7.00	8.25	5.25	8.50	4.00	9.25	3.25	4.25	5.75	7.25	8.75	3.75	1.50	2.50	-0.177246	0.124512	0.966309	-19.530001	15.190001	-8.260000	996.00	-0.02	-0.13
2.87	0.00	0.00	0.00	0.00	0.00	0.00	0.75	0.00	0.00	3.00	4.25	2.75	0.00	0.00	0.00	3.50	-0.880371	0.467773	2.068359	67.550003	-421.049988	165.899994	135.00	0.23	-0.11	5.00	5.50	6.25	7.75	5.00	8.25	4.00	9.25	4.25	6.00	6.75	8.00	9.00	4.50	1.75	2.75	-0.174316	0.134277	0.971680	-19.530001	16.660000	-9.030000	1026.00	0.00	-0.12
2.88	0.00	0.00	0.00	0.00	0.00	0.00	0.75	0.00	0.00	3.25	4.50	3.00	0.00	0.00	0.00	3.25	-1.092773	0.234863	2.287598	74.340004	-420.910004	168.279999	142.00	0.23	-0.11	4.25	4.75	5.75	7.50	5.00	8.00	4.25	9.25	5.75	7.50	8.00	8.50	9.50	5.50	1.75	3.00	-0.181641	0.126465	0.972656	-18.200001	18.270000	-9.800000	1072.00	0.03	-0.11
2.89	0.00	0.25	0.00	0.00	0.00	0.00	0.75	0.00	0.00	3.50	4.25	2.75	0.00	0.00	0.00	3.50	-1.249023	0.011230	2.474609	76.580002	-419.649994	162.190002	143.00	0.22	-0.11	3.50	3.75	5.25	6.50	4.25	7.75	4.50	9.25	6.75	8.25	8.75	9.25	9.75	6.50	2.25	4.00	-0.175293	0.114746	0.975586	-16.379999	20.370001	-10.780000	1089.00	0.05	-0.11
2.90	0.00	0.00	0.25	0.00	0.00	0.00	0.75	0.00	0.00	3.25	4.50	2.75	0.00	0.00	0.00	3.25	-1.443848	-0.076172	2.602539	69.370003	-416.779999	153.229996	142.00	0.22	-0.10	3.00	2.75	4.50	6.00	4.00	7.25	4.75	9.25	7.75	9.25	9.50	10.00	10.25	7.75	2.75	5.25	-0.189453	0.135742	0.984375	-11.690000	26.040001	-12.810000	1123.00	0.08	-0.10
2.91	0.00	0.00	0.00	0.00	0.00	0.00	0.75	0.00	0.00	3.25	4.25	2.75	0.00	0.00	0.00	3.75	-1.637207	-0.064453	2.768555	54.250000	-411.390015	145.949997	139.00	0.23	-0.11	2.00	2.50	4.25	5.50	3.75	6.75	5.00	9.25	8.50	10.25	10.50	10.50	10.75	8.75	3.00	5.50	-0.200195	0.135742	0.980469	-9.940000	30.380001	-14.700000	1151.00	0.10	-0.10
2.92	0.00	0.00	0.00	0.00	0.00	0.00	0.75	0.00	0.00	3.25	4.25	2.50	0.00	0.00	0.00	3.50	-1.934570	0.077637	2.858398	41.439999	-405.579987	139.930008	135.00	0.23	-0.10	1.50	2.00	3.50	5.00	3.00	6.25	5.00	9.25	9.25	11.00	11.25	11.50	11.00	10.00	3.50	5.75	-0.195801	0.121582	0.998047	-7.210000	35.490002	-16.240000	1169.00	0.12	-0.10
2.93	0.00	0.00	0.00	0.00	0.00	0.00	0.75	0.00	0.00	3.25	4.25	2.75	0.00	0.00	0.00	3.50	-2.401855	0.150879	2.687988	33.529999	-395.989990	131.949997	138.00	0.23	-0.11	1.50	1.00	2.75	4.25	2.50	5.50	5.25	9.00	10.25	12.00	12.00	12.00	11.25	12.00	4.75	6.00	-0.223633	0.136230	0.984375	-3.430000	41.299999	-18.340000	1200.00	0.14	-0.09
2.94	0.00	0.00	0.00	0.00	0.00	0.00	0.75	0.00	0.00	3.25	4.25	2.50	0.00	0.00	0.00	3.75	-2.863770	0.296875	2.353027	23.240000	-376.250000	119.980003	137.00	0.23	-0.11	1.00	0.75	2.00	3.50	1.75	5.00	5.25	9.00	11.25	12.75	13.00	12.75	11.75	14.25	5.50	6.50	-0.212402	0.154297	1.005371	1.750000	48.020000	-21.559999	1235.00	0.16	-0.08
2.95	0.00	0.00	0.00	0.00	0.00	0.00	0.75	0.00	0.00	3.25	4.25	2.75	0.00	0.00	0.00	3.50	-3.697266	0.705078	1.243652	39.410000	-307.720001	92.190002	138.00	0.23	-0.11	0.75	0.50	1.50	2.50	1.25	3.25	5.25	8.50	12.00	13.75	13.75	13.50	12.00	16.50	6.50	7.00	-0.229004	0.180176	1.022461	8.750000	57.119999	-25.480000	1252.00	0.19	-0.07
2.96	0.00	0.00	0.00	0.00	0.00	0.00	0.75	0.00	0.00	3.25	4.25	2.75	0.00	0.00	0.00	3.25	-4.046387	0.638184	0.776367	66.430000	-256.200012	89.669998	136.00	0.23	-0.11	0.50	0.25	1.25	2.25	0.75	3.00	5.25	8.25	12.75	14.25	14.75	14.00	12.25	19.00	7.00	7.50	-0.267090	0.160645	1.027832	18.549999	70.139999	-28.980000	1292.00	0.20	-0.07
2.97	0.00	0.00	0.00	0.00	0.00	0.00	0.75	0.00	0.00	3.25	4.25	2.50	0.00	0.00	0.00	3.25	-4.406250	0.358887	0.463867	81.550003	-197.259995	103.599998	134.00	0.23	-0.10	0.00	0.00	0.75	1.50	0.50	2.50	5.00	7.75	14.00	15.00	15.25	14.75	12.25	21.75	8.25	8.00	-0.291504	0.150879	1.063477	27.930000	91.000000	-29.260000	1328.00	0.22	-0.06
2.98	0.00	0.00	0.00	0.00	0.00	0.00	0.75	0.00	0.00	3.25	4.25	3.00	0.00	0.00	0.00	3.50	-4.660645	0.072754	0.160156	69.160004	-135.380005	132.789993	140.00	0.23	-0.11	0.00	0.00	0.50	0.75	0.25	2.00	5.00	7.25	14.50	15.75	16.00	15.00	12.25	23.75	8.75	8.25	-0.310547	0.117188	1.090332	37.799999	117.459999	-28.630001	1349.00	0.23	-0.05
2.99	0.00	0.00	0.00	0.00	0.00	0.00	0.75	0.00	0.00	3.25	4.25	2.75	0.00	0.00	0.00	3.50	-4.745605	-0.070801	-0.192383	38.990002	-74.129997	166.110001	138.00	0.23	-0.11	0.00	0.00	0.50	1.00	0.00	1.00	4.75	6.25	15.50	16.00	16.50	15.25	12.00	26.00	10.00	8.75	-0.300293	0.135254	1.079102	39.410000	147.350006	-27.370001	1376.00	0.24	-0.04
3.00	0.00	0.00	0.00	0.00	0.00	0.00	0.75	0.00	0.00	3.25	4.00	3.00	0.00	0.00	0.00	3.50	-4.755371	-0.095703	-0.378906	21.139999	-15.330000	188.089996	138.00	0.23	-0.11	0.00	0.00	0.50	0.50	0.00	0.50	4.25	5.50	15.75	16.50	16.50	15.25	11.75	27.50	10.25	9.25	-0.345703	0.196289	1.095215	32.270000	178.570007	-28.350000	1370.00	0.25	-0.04
3.01	0.00	0.00	0.00	0.00	0.00	0.00	0.75	0.00	0.00	3.25	4.25	3.00	0.00	0.00	0.00	3.25	-4.937012	-0.245117	-0.181641	25.200001	36.680000	191.449997	139.00	0.23	-0.11	0.00	0.00	0.00	0.25	0.00	0.50	4.00	4.50	16.25	16.50	16.75	15.00	11.25	29.00	10.75	9.50	-0.365234	0.140137	1.087891	25.549999	215.389999	-31.430000	1365.00	0.26	-0.03
3.02	0.00	0.00	0.00	0.00	0.00	0.00	0.75	0.00	0.00	3.00	4.25	2.75	0.00	0.00	0.00	3.25	-4.850098	-0.318359	-0.172852	18.410000	86.449997	180.460007	134.00	0.23	-0.11	0.00	0.00	0.25	0.00	0.00	0.00	3.50	4.00	16.50	16.75	16.50	14.75	10.50	30.00	11.25	10.00	-0.402344	0.126465	1.173828	14.910000	253.470001	-34.020000	1355.00	0.27	-0.02
3.03	0.00	0.25	0.00	0.00	0.00	0.00	0.50	0.00	0.00	3.25	4.50	3.00	0.00	0.00	0.00	3.50	-4.419922	-0.214355	-0.042969	12.040000	138.740005	165.970001	142.00	0.22	-0.12	0.00	0.00	0.00	0.00	0.00	0.00	3.25	3.00	16.75	16.75	16.50	14.75	9.75	30.75	11.25	10.00	-0.438477	0.161621	1.117188	4.130000	283.570007	-36.049999	1336.00	0.27	-0.01
3.04	1.00	2.00	0.25	0.25	0.00	0.00	0.50	0.00	0.00	3.00	4.00	2.75	0.00	0.00	0.00	3.25	0.754883	-1.105957	0.748047	10.430000	243.949997	155.190002	162.00	0.10	-0.11	0.00	0.00	0.25	0.00	0.00	0.00	2.75	2.50	16.50	16.75	16.25	14.25	9.00	31.00	11.25	9.75	-0.444824	0.200684	1.183105	-5.880000	314.299988	-41.509998	1307.00	0.27	-0.01
3.05	3.25	5.25	1.00	0.00	0.00	0.00	0.50	0.00	0.00	3.25	4.00	3.00	0.00	0.00	0.00	3.25	0.960449	-1.193359	1.513184	-15.960000	203.210007	114.099998	226.00	-0.02	-0.08	0.00	0.00	0.00	0.00	0.00	0.00	2.25	2.25	16.25	16.50	15.75	13.50	8.25	30.50	11.00	9.75	-0.552734	0.342773	1.362305	-9.660000	351.679993	-48.860001	1260.00	0.28	-0.01
3.06	8.25	11.25	1.25	2.00	0.00	0.00	0.50	0.00	0.00	3.25	4.25	3.00	0.00	0.00	0.00	3.25	-1.223633	-0.864258	1.263184	-44.730000	211.330002	54.599998	360.00	-0.16	-0.08	0.00	0.00	0.00	0.00	0.00	0.00	2.00	1.75	15.50	16.25	15.25	13.00	7.50	30.25	11.00	9.25	-0.398926	0.336914	1.052246	-14.700000	387.029999	-59.360001	1214.00	0.28	-0.00
3.07	13.50	18.00	2.75	3.50	0.00	0.00	0.50	0.00	0.00	3.00	4.25	3.00	0.00	0.00	0.00	3.50	-0.619141	-0.803223	2.157227	-2.800000	249.059998	11.830000	509.00	-0.22	-0.07	0.00	0.00	0.00	0.00	0.00	0.00	1.75	1.50	14.25	15.50	14.50	12.25	6.75	29.25	10.75	8.50	-0.379883	0.177734	1.413086	-17.639999	416.709991	-68.320000	1145.00	0.28	-0.00
3.08	20.00	24.25	5.00	5.00	0.25	0.00	0.50	0.00	0.00	3.00	4.25	3.25	0.00	0.25	0.00	3.50	-0.665527	-0.352539	2.670410	28.000000	249.619995	-16.590000	683.00	-0.26	-0.06	0.00	0.00	0.00	0.00	0.00	0.00	1.75	1.50	11.75	14.00	13.00	11.25	5.50	28.25	10.75	8.00	-0.865234	0.354004	1.598145	-12.740000	446.250000	-77.209999	1048.00	0.29	-0.00
3.09	23.50	27.75	7.25	7.50	0.25	0.25	0.50	0.00	0.00	2.75	3.75	3.00	0.00	0.50	0.00	3.25	-0.475098	0.362793	1.247559	49.980000	285.110016	-43.959999	796.00	-0.28	-0.05	0.00	0.00	0.00	0.00	0.00	0.00	1.50	1.00	8.75	11.50	11.25	10.00	5.00	26.50	10.25	6.50	-1.462891	0.454102	1.450195	14.770000	473.339996	-79.730003	908.00	0.29	-0.01
3.10	25.75	29.50	9.25	9.25	0.75	1.25	0.75	0.25	0.00	3.00	4.00	3.00	0.00	1.00	0.00	3.25	-0.416992	0.496094	2.696289	70.139999	312.760010	-39.200001	911.00	-0.27	-0.05	0.00	0.00	0.00	0.00	0.00	0.00	1.75	0.75	6.25	9.25	9.25	8.50	4.00	23.25	9.50	5.25	-2.125488	0.626465	2.713867	106.260002	478.730011	-59.779999	764.00	0.29	-0.01
3.11	26.25	31.25	10.75	11.50	1.50	2.50	0.75	0.75	0.00	2.75	3.50	3.25	0.00	1.00	0.00	3.50	-0.810059	0.380859	2.520996	69.160004	302.329987	-28.280001	999.00	-0.27	-0.06	0.00	0.00	0.00	0.00	0.00	0.00	1.50	0.25	4.50	7.25	7.25	6.50	3.00	18.75	7.75	3.25	-1.787109	0.744629	3.326660	133.630005	488.600006	-61.670002	590.00	0.30	0.00
3.12	27.50	31.25	12.50	13.50	2.50	4.00	1.00	1.25	0.00	2.75	4.00	3.00	0.50	1.25	0.00	3.75	-0.654297	0.640625	1.763672	55.930000	267.540009	-27.160000	1103.00	-0.26	-0.06	0.00	0.00	0.00	0.00	0.00	0.00	1.50	0.00	2.75	5.25	4.50	4.75	2.00	13.75	6.25	1.75	-1.459961	0.906250	3.111328	159.460007	478.239990	-68.250000	420.00	0.30	0.01
3.13	27.50	31.25	14.00	16.00	4.75	6.75	1.00	2.00	0.00	3.00	4.00	3.00	0.75	2.00	0.00	3.50	-0.350098	0.440918	1.564941	-25.690001	156.169998	-18.059999	1223.00	-0.25	-0.07	0.00	0.00	0.00	0.00	0.00	0.00	1.50	0.00	1.50	3.75	3.00	3.25	1.50	9.75	5.00	1.00	-1.949219	0.689941	3.163574	211.960007	479.920013	-88.340004	301.00	0.30	0.01
3.14	27.25	31.00	15.00	16.50	6.00	8.00	1.25	4.00	0.00	2.75	3.75	3.00	1.00	2.50	0.00	3.50	-0.350098	0.440918	1.564941	-25.690001	156.169998	-18.059999	1297.00	-0.24	-0.08	0.00	0.00	0.00	0.00	0.00	0.00	1.50	0.00	0.75	2.75	2.25	2.00	0.75	7.00	2.50	0.75	-0.183594	1.223145	2.408691	268.730011	482.440002	-119.629997	202.00	0.29	0.03
3.15	26.50	30.00	14.75	16.75	6.50	8.75	1.25	5.00	0.00	3.00	3.75	3.25	1.50	3.00	0.00	3.50	-0.286621	0.428223	1.317383	-43.189999	94.430000	-8.120000	1323.00	-0.23	-0.08	0.00	0.00	0.00	0.00	0.00	0.00	1.75	0.00	0.50	2.00	1.25	1.00	0.25	4.00	1.25	0.25	-0.224609	1.144043	3.184082	332.149994	470.820007	-153.089996	128.00	0.27	0.07
3.16	26.50	29.75	15.00	17.00	7.25	9.25	1.50	5.50	0.00	3.00	3.50	3.00	1.50	3.50	0.00	3.50	-0.082520	0.177246	1.171875	-30.520000	49.420002	-5.740000	1350.00	-0.22	-0.08	0.00	0.25	0.00	0.00	0.00	0.00	1.75	0.00	0.25	1.25	1.00	0.50	0.00	2.00	0.75	0.25	0.688965	0.638184	3.691406	396.829987	413.910004	-198.100006	87.00	0.22	0.08
3.17	25.75	29.25	15.50	17.00	7.50	9.50	1.50	5.75	0.00	2.75	3.75	3.00	1.75	3.50	0.00	3.75	-0.230957	0.120117	1.012695	-13.090000	23.590000	-3.290000	1356.00	-0.22	-0.08	0.00	0.00	0.00	0.00	0.00	0.00	2.00	0.00	0.25	1.25	0.50	0.50	0.00	1.25	0.75	0.25	2.152832	-0.479980	2.262695	339.709991	291.690002	-259.769989	77.00	0.22	0.10
3.18	25.50	28.75	15.00	16.75	7.75	9.75	1.50	6.00	0.00	2.75	4.00	3.00	2.00	3.75	0.25	3.75	-0.199219	0.119141	0.984375	-10.220000	21.280001	-2.800000	1359.00	-0.22	-0.09	0.00	0.00	0.00	0.00	0.00	0.00	2.00	0.00	0.25	1.00	0.75	0.00	0.00	0.75	0.25	0.00	0.706055	2.492188	8.380859	132.580002	-65.169998	-194.600006	61.00	0.19	0.15
3.19	24.75	28.00	14.75	16.75	7.75	10.00	1.75	6.25	0.00	3.00	4.00	3.25	2.00	4.00	0.00	3.75	-0.146484	0.139160	0.937500	-7.420000	19.180000	-3.360000	1357.00	-0.21	-0.09	0.00	0.00	0.25	0.00	0.00	0.00	2.00	0.00	0.00	1.00	0.50	0.25	0.00	0.50	0.25	0.25	1.762207	0.400879	3.901367	4.970000	-320.040009	-73.919998	60.00	0.16	0.12
3.20	23.75	27.50	14.50	16.25	8.00	10.00	1.75	6.50	0.00	3.00	4.00	3.25	2.25	4.00	0.25	3.75	-0.129883	-0.009766	0.990234	-5.110000	18.969999	-3.990000	1345.00	-0.20	-0.09	0.00	0.00	0.00	0.00	0.00	0.00	2.00	0.00	0.25	1.00	0.25	0.25	0.00	0.25	0.75	0.25	0.652344	0.759277	2.075684	-119.349998	-392.420013	-9.800000	61.00	0.19	0.12
3.21	23.00	26.75	14.25	15.75	8.00	10.25	1.75	6.75	0.00	3.25	4.00	3.00	2.50	4.50	0.00	3.75	-0.163574	0.150391	0.868164	-2.450000	18.830000	-4.620000	1332.00	-0.20	-0.09	0.00	0.00	0.00	0.00	0.00	0.00	2.00	0.00	0.00	1.00	0.50	0.00	0.00	0.25	0.00	0.25	0.637695	1.023438	1.149414	-111.860001	-354.970001	19.600000	49.00	0.00	0.00
3.22	22.00	25.25	13.75	15.50	8.00	10.25	2.00	7.00	0.00	3.25	4.00	3.25	2.75	4.50	0.25	3.75	-0.154297	0.122070	0.967773	-0.420000	19.600000	-4.550000	1315.00	-0.19	-0.09	0.00	0.00	0.00	0.00	0.00	0.00	2.00	0.00	0.25	0.50	0.25	0.00	0.00	0.00	0.00	0.00	0.792969	1.135742	1.150879	-13.510000	-319.899994	11.060000	41.00	0.00	0.00
3.23	21.00	24.00	13.25	14.75	8.00	10.00	2.00	7.00	0.00	3.25	4.00	3.50	2.75	4.50	0.25	4.00	-0.161133	0.107910	0.952637	1.400000	19.670000	-4.690000	1281.00	-0.19	-0.09	0.00	0.00	0.00	0.00	0.00	0.00	2.00	0.00	0.00	0.75	0.00	0.00	0.00	0.00	0.25	0.00	0.593750	0.783691	1.821289	95.830002	-345.239990	-6.440000	41.00	0.00	0.00
3.24	20.00	22.75	12.75	14.50	8.00	10.00	2.00	7.25	0.00	3.25	4.25	3.50	3.00	4.50	0.50	4.00	-0.140625	0.162109	0.923828	2.380000	20.370001	-5.110000	1262.00	-0.18	-0.10	0.00	0.00	0.00	0.00	0.00	0.00	2.00	0.00	0.00	0.25	0.25	0.00	0.00	0.00	0.00	0.00	0.374023	0.249512	1.928711	146.369995	-391.299988	-17.430000	36.00	0.00	0.00
3.25	18.75	21.00	11.75	13.25	8.00	9.75	2.00	7.25	0.00	3.50	4.25	3.50	3.25	4.25	0.25	4.00	-0.164062	0.095703	0.966797	2.520000	21.770000	-5.810000	1205.00	-0.17	-0.10	0.00	0.00	0.00	0.25	0.00	0.00	2.00	0.00	0.00	0.25	0.00	0.00	0.00	0.00	0.00	0.00	0.267578	0.000000	1.617188	125.020004	-428.399994	-12.390000	36.00	0.00	0.00
3.26	16.75	19.00	11.25	12.50	7.75	9.50	2.25	7.50	0.25	3.50	4.25	3.75	3.50	4.25	0.25	4.25	-0.157227	0.123047	0.938477	1.820000	23.520000	-6.300000	1164.00	-0.16	-0.10	0.00	0.00	0.00	0.00	0.00	0.00	2.00	0.00	0.00	0.25	0.00	0.00	0.00	0.00	0.00	0.00	0.076172	0.079102	1.172363	68.599998	-445.410004	2.100000	33.00	0.00	0.00
3.27	15.25	17.00	10.50	11.50	7.75	9.50	2.25	7.50	0.50	3.50	5.00	4.25	3.75	4.25	0.50	4.25	-0.147461	0.128906	0.931641	0.280000	25.620001	-6.860000	1132.00	-0.14	-0.10	0.00	0.00	0.00	0.00	0.00	0.00	2.00	0.00	0.00	0.00	0.00	0.00	0.00	0.00	0.00	0.00	-0.157227	0.285156	0.847656	39.619999	-438.200012	16.379999	30.00	0.00	0.00
3.28	13.00	14.75	9.75	10.50	7.50	9.25	2.50	7.50	0.75	3.75	5.00	4.25	4.00	5.00	0.50	4.25	-0.170898	0.124512	0.931641	-2.940000	28.700001	-7.700000	1081.00	-0.12	-0.10	0.00	0.00	0.00	0.00	0.00	0.00	2.00	0.00	0.00	0.00	0.00	0.00	0.00	0.00	0.00	0.00	-0.236328	0.319824	0.746094	52.430000	-417.690002	24.639999	30.00	0.00	0.00
3.29	11.25	12.50	9.25	9.50	7.75	9.00	2.50	7.50	0.50	4.00	5.00	4.50	4.50	5.00	0.50	4.50	-0.211914	0.138184	0.951172	-6.580000	32.270000	-8.960000	1033.00	-0.10	-0.11	0.00	0.00	0.00	0.00	0.00	0.00	2.00	0.00	0.00	0.00	0.00	0.00	0.00	0.00	0.00	0.00	-0.254395	0.244141	0.978027	80.849998	-395.779999	29.190001	30.00	0.00	0.00
3.30	9.25	10.25	8.75	8.75	7.50	8.50	2.75	7.50	1.00	4.25	5.50	5.00	5.25	5.00	0.50	4.50	-0.177734	0.134277	0.959473	-10.080000	34.650002	-10.360000	1000.00	-0.08	-0.11	0.00	0.00	0.00	0.00	0.00	0.00	2.00	0.00	0.00	0.00	0.00	0.00	0.00	0.00	0.00	0.00	-0.299316	0.026367	1.480957	89.180000	-379.049988	44.590000	30.00	0.00	0.00
3.31	8.25	8.75	8.25	8.25	7.50	8.25	2.75	7.50	1.00	4.50	6.00	5.25	5.25	5.00	0.75	4.50	-0.174316	0.125000	0.950684	-13.510000	36.470001	-11.060000	975.00	-0.06	-0.11	0.00	0.00	0.00	0.00	0.00	0.00	2.00	0.00	0.00	0.00	0.00	0.00	0.00	0.00	0.00	0.00	-0.334961	0.041016	1.614258	84.910004	-381.220001	52.290001	30.00	0.00	0.00
3.32	7.25	7.50	8.00	7.50	7.50	7.75	3.00	7.75	1.50	4.75	6.50	6.00	5.75	5.25	0.75	5.00	-0.182617	0.115723	0.944336	-16.590000	36.820000	-11.760000	976.00	-0.04	-0.11	0.00	0.00	0.00	0.00	0.00	0.00	2.00	0.00	0.00	0.25	0.00	0.00	0.00	0.00	0.00	0.00	-0.391602	0.037109	1.722656	92.190002	-382.549988	58.799999	33.00	0.00	0.00
3.33	6.50	6.75	7.25	6.50	7.25	7.75	3.00	7.75	2.00	5.75	7.00	6.75	6.00	6.25	0.75	5.00	-0.200195	0.260742	0.972168	-19.879999	36.470001	-13.090000	980.00	-0.02	-0.11	0.00	0.00	0.00	0.00	0.00	0.00	2.00	0.00	0.00	0.00	0.00	0.00	0.00	0.00	0.00	0.00	-0.473633	-0.047363	1.853027	103.669998	-381.079987	67.900002	30.00	0.00	0.00
3.34	5.50	6.00	7.00	6.25	7.25	7.50	3.25	7.75	2.50	6.50	7.75	7.50	6.75	6.50	1.00	5.25	-0.205078	0.118164	0.959961	-22.540001	35.349998	-13.860000	1001.00	0.00	-0.11	0.00	0.00	0.00	0.00	0.00	0.00	2.00	0.00	0.00	0.00	0.00	0.00	0.00	0.00	0.00	0.00	-0.565918	-0.129395	1.995605	104.370003	-379.540009	80.849998	30.00	0.00	0.00
3.35	5.00	5.25	6.75	5.75	7.00	7.00	3.50	7.75	3.25	7.50	8.00	8.00	6.75	7.50	1.50	5.25	-0.218262	0.110352	0.971680	-23.730000	33.250000	-14.000000	1018.00	0.02	-0.10	0.00	0.00	0.00	0.00	0.00	0.00	2.00	0.00	0.00	0.00	0.00	0.00	0.00	0.00	0.00	0.00	-0.654297	-0.115234	2.201660	94.500000	-378.559998	93.800003	30.00	0.00	0.00
3.36	4.50	4.75	6.50	5.25	7.25	6.75	3.75	8.00	4.25	8.00	8.75	8.50	7.25	8.25	1.50	5.50	-0.221680	0.107422	0.956055	-24.010000	31.150000	-13.860000	1051.00	0.04	-0.10	0.00	0.00	0.00	0.00	0.00	0.00	2.00	0.00	0.00	0.00	0.00	0.00	0.00	0.00	0.00	0.00	-0.743164	-0.053223	2.411133	85.330002	-381.570007	106.400002	30.00	0.00	0.00
3.37	4.00	4.00	6.00	4.75	7.00	6.50	4.00	7.75	5.00	8.50	9.25	9.00	7.50	9.00	1.50	5.75	-0.233887	0.094727	0.964355	-22.400000	29.960001	-13.580000	1058.00	0.06	-0.09	0.00	0.00	0.00	0.50	0.00	0.00	2.00	0.00	0.00	0.00	0.00	0.00	0.00	0.00	0.00	0.00	-0.864746	-0.049316	2.497070	82.180000	-388.920013	118.650002	36.00	0.00	0.00
3.38	3.25	3.25	5.75	4.25	7.00	6.00	4.50	8.00	6.75	9.25	10.25	9.75	7.75	9.50	2.00	6.00	-0.227539	0.097168	0.953125	-18.760000	30.170000	-14.210000	1103.00	0.08	-0.08	0.00	0.00	0.00	0.00	0.00	0.00	2.00	0.00	0.00	0.00	0.00	0.00	0.00	0.00	0.00	0.00	-1.021973	-0.079590	2.504395	83.160004	-391.929993	129.639999	30.00	0.00	0.00
3.39	2.50	2.75	5.50	3.50	6.75	5.50	5.00	7.75	7.75	10.00	10.75	10.50	8.25	10.25	2.25	6.00	-0.234863	0.096680	0.972168	-16.660000	31.639999	-14.560000	1123.00	0.10	-0.08	0.00	0.00	0.00	0.00	0.00	0.00	2.00	0.00	0.00	0.00	0.00	0.00	0.00	0.00	0.00	0.00	-1.183105	-0.131836	2.532227	79.239998	-388.500000	138.880005	30.00	0.00	0.00
3.40	2.00	2.00	4.75	3.25	6.50	5.50	5.00	8.00	8.50	10.75	11.75	11.25	8.50	11.25	2.75	6.25	-0.250488	0.084961	0.939453	-13.510000	33.670002	-14.980000	1154.00	0.11	-0.08	0.00	0.00	0.00	0.00	0.00	0.00	2.00	0.00	0.00	0.00	0.00	0.00	0.00	0.00	0.00	0.00	-1.389648	-0.090332	2.653809	69.019997	-381.290009	143.570007	30.00	0.00	0.00
3.41	1.50	1.50	4.00	3.00	6.00	5.25	5.25	7.75	9.00	11.50	12.75	12.25	8.75	12.25	3.00	6.50	-0.262695	0.095215	0.968262	-9.310000	36.119999	-15.750000	1175.00	0.13	-0.07	0.00	0.00	0.00	0.00	0.00	0.00	2.00	0.00	0.00	0.00	0.00	0.00	0.00	0.00	0.00	0.00	-1.705078	-0.054688	2.712402	58.029999	-374.149994	143.639999	30.00	0.00	0.00
3.42	1.25	1.50	3.50	2.75	5.50	5.00	5.50	7.75	9.75	12.00	13.50	13.00	9.00	13.50	4.50	7.00	-0.245605	0.085449	0.969727	-5.670000	39.549999	-16.240000	1222.00	0.14	-0.07	0.00	0.00	0.00	0.00	0.00	0.00	2.00	0.00	0.00	0.00	0.00	0.00	0.00	0.00	0.00	0.00	-2.141602	-0.026367	2.634766	48.230000	-366.450012	140.559998	30.00	0.00	0.00
3.43	0.50	1.00	2.75	2.25	4.75	4.25	5.50	7.75	10.50	12.75	14.50	13.75	9.50	15.00	5.00	7.25	-0.253418	0.087402	0.965820	-1.050000	43.540001	-17.290001	1239.00	0.17	-0.07	0.00	0.00	0.00	0.00	0.00	0.00	2.00	0.00	0.00	0.00	0.00	0.00	0.00	0.00	0.00	0.00	-2.626465	0.020996	2.217773	41.650002	-353.640015	134.960007	30.00	0.00	0.00
3.44	0.50	1.00	2.50	1.50	3.75	3.50	5.50	7.50	11.00	13.50	15.25	14.75	10.00	16.25	5.75	7.75	-0.260254	0.109863	0.969238	3.990000	49.490002	-19.670000	1263.00	0.18	-0.07	0.00	0.00	0.00	0.00	0.00	0.00	2.00	0.00	0.00	0.00	0.00	0.00	0.00	0.00	0.00	0.00	-3.085449	-0.002441	1.615234	42.209999	-328.649994	129.289993	30.00	0.00	0.00
3.45	0.50	0.50	1.75	1.75	2.75	3.00	5.50	7.50	11.50	14.50	16.25	15.75	10.50	18.00	6.50	8.25	-0.283691	0.105957	0.966309	8.540000	56.490002	-21.070000	1304.00	0.19	-0.07	0.00	0.00	0.00	0.00	0.00	0.00	2.00	0.00	0.00	0.00	0.00	0.00	0.00	0.00	0.00	0.00	-3.419922	-0.114746	1.068359	49.980000	-289.380005	126.139999	30.00	0.00	0.00
3.46	0.00	0.75	1.00	1.50	1.75	2.25	5.25	7.00	12.25	15.25	17.25	16.75	10.75	19.75	7.50	8.75	-0.289551	0.129395	0.966309	13.860000	64.260002	-23.240000	1329.00	0.21	-0.06	0.00	0.00	0.00	0.00	0.00	0.00	2.00	0.00	0.00	0.00	0.00	0.00	0.00	0.00	0.00	0.00	-3.687988	-0.322754	0.719727	53.619999	-241.220001	127.470001	30.00	0.00	0.00
3.47	0.25	0.00	0.75	1.00	1.00	1.50	5.00	6.75	12.75	16.00	18.25	17.50	11.25	21.25	8.25	9.25	-0.296875	0.116699	0.983887	19.389999	74.900002	-24.430000	1353.00	0.22	-0.06	0.00	0.00	0.00	0.00	0.00	0.00	2.00	0.00	0.00	0.00	0.00	0.00	0.00	0.00	0.00	0.00	-3.958008	-0.496094	0.423828	35.279999	-190.330002	134.330002	30.00	0.00	0.00
3.48	0.00	0.00	0.50	0.75	0.75	1.25	4.50	6.25	13.00	16.75	18.75	18.25	11.50	23.25	9.50	10.00	-0.336914	0.114746	1.007812	28.139999	91.489998	-25.760000	1385.00	0.24	-0.06	0.00	0.00	0.00	0.00	0.00	0.00	2.00	0.00	0.00	0.00	0.00	0.00	0.00	0.00	0.00	0.00	-4.119629	-0.370117	0.077148	-4.410000	-138.669998	143.919998	30.00	0.00	0.00
3.49	0.00	0.00	0.25	0.50	0.50	1.00	3.75	5.50	13.50	17.25	19.50	18.75	11.25	24.75	10.50	10.25	-0.342773	0.132812	1.020020	37.099998	117.739998	-25.690001	1398.00	0.25	-0.06	0.00	0.00	0.25	0.00	0.00	0.00	1.75	0.00	0.00	0.00	0.00	0.00	0.00	0.00	0.00	0.00	-4.320801	-0.079590	-0.154785	-32.970001	-85.050003	150.919998	29.00	0.00	0.00
3.50	0.00	0.00	0.25	0.75	0.50	0.75	3.00	5.00	13.75	17.50	20.00	19.00	11.00	26.00	11.25	10.75	-0.383789	0.099609	1.061035	45.849998	149.380005	-26.250000	1412.00	0.25	-0.05	0.00	0.00	0.00	0.00	0.00	0.00	2.00	0.00	0.00	0.00	0.00	0.00	0.00	0.00	0.00	0.00	-4.375000	0.110352	-0.085449	-22.750000	13.930000	137.690002	30.00	0.00	0.00
3.51	0.00	0.00	0.00	0.50	0.25	0.75	2.00	4.25	13.75	17.75	20.25	18.75	10.50	27.00	12.25	11.00	-0.409180	0.144043	1.075195	50.189999	184.869995	-26.809999	1396.00	0.26	-0.05	0.00	0.00	0.00	0.00	0.00	0.00	2.00	0.00	0.00	0.00	0.00	0.00	0.00	0.00	0.00	0.00	-4.222168	0.218750	-0.092285	-13.860000	56.770000	125.230003	30.00	0.00	0.00
3.52	0.00	0.00	0.00	0.00	0.00	0.25	1.25	3.25	14.00	18.00	20.25	18.50	9.75	28.25	13.00	11.25	-0.457031	0.165527	1.033691	45.779999	214.899994	-28.700001	1372.00	0.27	-0.05	0.00	0.00	0.00	0.25	0.00	0.00	1.75	0.00	0.00	0.00	0.00	0.00	0.00	0.00	0.00	0.00	-6.086914	0.499023	-0.020020	13.300000	188.369995	105.629997	29.00	0.00	0.00
3.53	0.00	0.00	0.00	0.00	0.00	0.00	0.75	2.50	13.75	18.00	20.00	17.75	9.00	29.25	13.50	11.25	-0.416016	0.120117	1.121094	35.630001	245.910004	-32.549999	1344.00	0.28	-0.04	1.25	1.50	0.75	0.50	0.00	0.00	1.75	0.00	0.00	0.00	0.00	0.00	0.00	0.00	0.00	0.00	-0.976074	-0.398438	0.847656	14.980000	256.619995	73.779999	67.00	-0.19	0.08
3.54	0.00	0.00	0.00	0.00	0.00	0.00	0.25	2.00	13.75	18.00	19.25	16.75	7.75	30.00	13.75	11.25	-0.539551	0.186523	1.235840	9.800000	273.279999	-37.520000	1308.00	0.28	-0.03	4.00	5.25	1.25	2.25	0.00	0.00	1.75	0.00	0.00	0.00	0.00	0.00	0.00	0.00	0.00	0.00	0.678223	0.462891	2.300781	-12.670000	229.040009	69.860001	155.00	-0.29	-0.01
3.55	0.00	0.00	0.00	0.00	0.00	0.00	0.00	1.50	14.00	18.00	18.75	15.25	6.75	30.50	13.50	10.75	-0.528809	0.265137	1.070312	-22.190001	301.000000	-46.060001	1269.00	0.29	-0.02	9.25	10.25	2.25	4.25	0.00	0.00	1.75	0.00	0.00	0.00	0.00	0.00	0.00	0.00	0.00	0.00	-0.065430	-0.979492	1.033203	9.940000	197.820007	59.010002	288.00	-0.33	-0.02
3.56	0.00	0.00	0.00	0.00	0.00	0.00	0.00	1.00	14.00	17.75	17.75	13.50	5.50	30.50	13.00	10.50	-0.709961	0.276367	1.294434	-48.090000	344.610016	-59.639999	1213.00	0.29	-0.01	14.25	14.75	3.75	5.75	0.00	0.00	1.75	0.00	0.00	0.00	0.00	0.00	0.00	0.00	0.00	0.00	-0.433105	-1.089355	1.282715	18.129999	238.419998	9.800000	415.00	-0.35	-0.03
3.57	0.00	0.00	0.00	0.00	0.00	0.00	0.00	0.75	14.25	17.50	16.75	12.00	4.75	30.00	12.25	9.50	-0.708008	0.318848	1.260742	-63.700001	391.579987	-78.610001	1159.00	0.29	0.00	19.50	18.75	6.25	8.25	0.00	0.00	1.75	0.00	0.00	0.00	0.00	0.00	0.00	0.00	0.00	0.00	-0.430176	-0.474121	2.233887	30.520000	262.079987	-43.189999	561.00	-0.35	-0.03
3.58	0.00	0.00	0.00	0.00	0.00	0.00	0.00	0.50	14.25	17.25	15.75	10.25	3.75	29.00	11.00	8.75	-0.638672	0.308105	1.130859	-75.529999	435.610016	-103.250000	1089.00	0.30	0.01	22.75	21.25	8.25	9.75	0.25	0.00	1.75	0.00	0.00	0.00	0.00	0.00	0.00	0.00	0.00	0.00	-0.518555	0.587402	2.119629	55.650002	260.750000	-73.010002	659.00	-0.35	-0.02
3.59	0.00	0.00	0.00	0.00	0.00	0.00	0.25	0.25	13.50	16.25	14.50	9.00	3.00	28.00	10.00	7.75	-1.168457	0.434082	1.546875	-78.120003	508.899994	-141.889999	1012.00	0.30	0.02	25.25	23.00	9.75	11.50	0.50	0.75	1.75	0.00	0.00	0.00	0.00	0.00	0.00	0.00	0.00	0.00	-0.711914	1.043945	1.889648	67.059998	261.380005	-65.029999	748.00	-0.35	-0.03
3.60	0.00	0.00	0.00	0.00	0.00	0.00	0.25	0.00	11.50	14.00	12.25	8.00	2.25	26.50	8.75	6.75	-1.999023	0.489746	2.342773	-45.570000	524.650024	-140.139999	887.00	0.30	0.03	25.75	23.25	11.00	12.75	1.25	2.25	2.00	0.75	0.00	0.00	0.00	0.25	0.50	0.00	0.00	0.00	-0.341797	0.808105	1.967773	47.529999	259.839996	-34.230000	830.00	-0.33	-0.04
3.61	0.00	0.00	0.00	0.00	0.00	0.00	0.50	0.00	9.00	12.00	10.25	6.75	1.75	23.50	7.25	5.75	-2.341309	0.744141	2.792969	11.410000	524.020020	-122.010002	752.00	0.30	0.03	26.25	23.00	12.00	13.75	2.00	4.50	2.25	1.50	0.00	0.00	0.00	0.25	1.00	0.00	0.00	0.00	-0.361328	0.326172	2.067383	-14.980000	231.070007	-19.670000	907.00	-0.31	-0.05
3.62	0.00	0.00	0.00	0.00	0.00	0.00	0.50	0.00	7.00	10.00	8.25	5.75	1.25	19.25	5.75	5.00	-1.586914	1.010254	3.234863	87.080002	523.460022	-104.440002	613.00	0.30	0.03	25.50	22.75	12.50	14.25	2.75	6.50	2.25	2.25	0.00	0.00	0.00	0.25	1.25	0.00	0.00	0.00	-0.431152	0.333984	1.671875	-54.740002	167.580002	-11.480000	952.00	-0.30	-0.06
3.63	0.00	0.00	0.00	0.00	0.00	0.00	0.50	0.00	4.75	8.75	7.50	5.25	0.50	15.00	4.25	4.25	-1.850098	0.753906	3.738770	190.190002	494.339996	-104.019997	495.00	0.30	0.02	24.75	22.00	13.00	14.75	3.75	7.75	2.50	3.75	0.00	0.00	0.00	0.50	1.50	0.25	0.00	0.00	-0.321289	0.231445	1.364746	-61.950001	118.020004	-2.870000	1006.00	-0.28	-0.07
3.64	0.00	0.00	0.00	0.00	0.00	0.00	0.50	0.00	2.75	7.50	6.50	4.50	0.50	10.75	2.25	3.75	-0.682129	0.398926	3.422852	253.330002	473.830017	-116.900002	377.00	0.29	0.00	24.50	21.75	13.25	14.75	5.00	8.25	2.75	5.50	0.00	0.00	0.25	0.75	2.50	0.25	0.00	0.25	-0.296387	0.143066	1.414551	-53.410000	78.330002	0.490000	1069.00	-0.26	-0.08
3.65	0.00	0.00	0.00	0.00	0.00	0.00	0.50	0.00	2.00	6.25	6.00	4.00	0.00	7.50	1.00	3.75	-1.216309	0.049316	4.153809	225.119995	443.309998	-162.539993	299.00	0.28	-0.01	24.00	21.00	13.25	15.00	5.75	9.00	2.75	6.50	0.00	0.25	0.25	0.75	3.00	0.50	0.00	0.25	-0.271973	0.154785	1.185059	-31.780001	45.709999	0.490000	1100.00	-0.25	-0.09
