# time	left pressure 1[N/cm²]	left pressure 2[N/cm²]	left pressure 3[N/cm²]	left pressure 4[N/cm²]	left pressure 5[N/cm²]	left pressure 6[N/cm²]	left pressure 7[N/cm²]	left pressure 8[N/cm²]	left pressure 9[N/cm²]	left pressure 10[N/cm²]	left pressure 11[N/cm²]	left pressure 12[N/cm²]	left pressure 13[N/cm²]	left pressure 14[N/cm²]	left pressure 15[N/cm²]	left pressure 16[N/cm²]	left acceleration X[g]	left acceleration Y[g]	left acceleration Z[g]	left angular X[dps]	left angular Y[dps]	left angular Z[dps]	left total force[N]	left center of pressure X[%]	left center of pressure Y[%]	right pressure 1[N/cm²]	right pressure 2[N/cm²]	right pressure 3[N/cm²]	right pressure 4[N/cm²]	right pressure 5[N/cm²]	right pressure 6[N/cm²]	right pressure 7[N/cm²]	right pressure 8[N/cm²]	right pressure 9[N/cm²]	right pressure 10[N/cm²]	right pressure 11[N/cm²]	right pressure 12[N/cm²]	right pressure 13[N/cm²]	right pressure 14[N/cm²]	right pressure 15[N/cm²]	right pressure 16[N/cm²]	right acceleration X[g]	right acceleration Y[g]	right acceleration Z[g]	right angular X[dps]	right angular Y[dps]	right angular Z[dps]	right total force[N]	right center of pressure X[%]	right center of pressure Y[%]
0.00																										2.25	1.25	2.00	1.75	1.25	1.00	0.50	0.50	0.50	0.50	0.00	0.00	0.00	0.50	0.25	0.00	-0.196289	0.056152	1.065430	-28.910000	-2.660000	-6.510000	147.00	-0.17	-0.02
0.01																										2.00	1.25	2.00	2.00	1.50	0.75	0.75	0.75	0.75	0.75	0.25	0.00	0.75	1.00	0.00	0.00	-0.166504	0.084961	0.972656	-6.580000	0.070000	-2.450000	174.00	-0.12	-0.03
0.02	14.75	14.00	10.25	11.75	9.50	12.75	1.00	8.25	2.00	1.50	1.00	1.75	6.00	2.00	1.00	1.00	-0.129395	0.117676	0.973145	-3.780000	10.360000	0.210000	1163.00	-0.17	-0.12	2.25	1.25	2.00	1.75	1.50	0.50	0.75	0.75	0.75	0.75	0.75	0.25	1.00	1.25	0.00	0.00	-0.166992	0.083008	0.968750	-2.870000	0.840000	-1.190000	184.00	-0.09	-0.03
0.03	14.25	13.50	10.25	11.50	9.25	12.50	1.00	8.25	2.00	1.25	1.00	1.75	6.00	1.75	1.00	1.00	-0.131348	0.114258	0.966309	-4.410000	10.640000	0.070000	1138.00	-0.17	-0.12	2.00	1.25	2.00	1.75	1.50	0.75	0.75	0.75	1.00	0.75	0.50	0.50	1.50	1.50	0.25	0.00	-0.166992	0.083008	0.968750	-2.870000	0.840000	-1.190000	198.00	-0.06	-0.04
0.04	13.75	13.25	10.00	11.50	9.25	12.50	1.00	8.50	2.00	1.50	1.50	2.00	6.50	1.50	1.25	1.00	-0.121582	0.110840	0.952637	-4.760000	11.550000	-0.210000	1148.00	-0.16	-0.12	1.75	1.00	1.75	2.00	1.50	0.50	0.75	1.00	1.00	1.25	1.00	0.25	1.25	1.25	0.75	0.00	-0.178711	0.111328	0.961914	1.680000	1.540000	-0.560000	203.00	-0.03	-0.04
0.05	13.25	13.00	10.00	11.25	9.25	12.50	1.00	8.50	2.00	1.75	1.25	2.00	6.50	1.75	1.00	1.00	-0.124512	0.107422	0.964355	-4.760000	11.970000	-0.560000	1136.00	-0.16	-0.12	1.25	0.75	1.75	1.75	1.75	0.75	0.75	1.00	1.25	1.25	0.75	0.50	2.00	1.75	0.75	0.50	-0.162109	0.098633	0.966309	1.120000	1.050000	-0.350000	216.00	0.01	-0.05
0.06	13.00	12.50	9.75	11.00	9.00	12.25	1.00	8.50	2.00	1.50	1.25	2.25	6.75	2.00	1.00	1.00	-0.135742	0.104980	0.963867	-4.410000	12.250000	-0.770000	1121.00	-0.15	-0.12	1.75	0.50	2.00	1.75	1.75	0.50	0.75	1.25	1.25	1.50	1.00	0.75	2.50	2.25	0.50	0.50	-0.181152	0.092285	0.970703	1.190000	0.210000	-1.050000	238.00	0.02	-0.06
0.07	12.25	12.00	9.50	11.00	9.00	12.00	1.00	8.50	1.75	1.75	1.25	2.25	7.25	1.50	1.25	1.25	-0.129883	0.109375	0.962402	-3.990000	12.950000	-0.560000	1105.00	-0.15	-0.13	1.75	0.75	1.75	1.75	1.75	0.75	0.75	1.50	1.50	1.50	1.25	1.00	2.50	2.50	0.50	0.50	-0.180664	0.094727	0.976562	1.540000	-0.630000	-1.120000	257.00	0.02	-0.06
0.08	11.50	11.50	9.50	10.75	8.75	12.00	1.00	8.50	1.75	1.50	1.25	2.50	7.00	1.75	1.25	1.00	-0.131348	0.105469	0.956055	-3.570000	13.650000	-0.490000	1084.00	-0.15	-0.13	1.25	0.50	1.75	1.75	1.75	1.25	0.75	1.25	1.50	1.50	1.25	1.00	3.00	2.50	1.00	0.50	-0.163574	0.094727	0.963867	1.610000	-1.050000	-0.840000	261.00	0.04	-0.07
0.09	10.75	10.50	9.25	10.25	8.50	11.75	1.00	8.50	1.75	1.75	1.50	2.50	7.50	1.75	1.25	1.00	-0.132812	0.111816	0.963379	-3.850000	14.140000	-0.420000	1061.00	-0.14	-0.13	1.25	1.00	1.75	2.00	2.00	1.25	0.75	1.50	1.75	1.75	1.50	1.25	3.50	2.75	1.00	0.75	-0.169922	0.099609	0.959473	1.330000	-1.470000	-0.700000	297.00	0.05	-0.08
0.10	10.25	10.50	8.75	10.00	8.25	11.50	1.00	8.25	1.75	1.75	1.50	2.75	7.75	1.25	0.00	0.75	-0.141602	0.107910	0.959961	-4.130000	14.210000	-0.280000	1021.00	-0.14	-0.14	1.00	0.75	1.75	2.00	2.00	1.50	0.75	1.75	1.75	1.50	1.25	1.75	3.25	3.25	1.00	0.25	-0.171875	0.105957	0.969238	0.630000	-2.030000	-0.840000	298.00	0.05	-0.08
0.11	8.00	8.75	7.75	9.00	7.25	9.75	0.75	7.75	0.50	0.75	0.75	1.50	6.50	1.00	0.25	0.25	-0.144531	0.113770	0.961914	-4.060000	13.510000	-0.280000	842.00	-0.16	-0.15	1.50	0.75	2.25	2.25	2.25	1.75	1.00	2.25	1.75	2.00	1.50	1.50	4.25	3.25	1.50	0.75	-0.168457	0.105469	0.960938	-0.420000	-2.660000	-1.120000	355.00	0.05	-0.09
0.12	7.00	8.00	8.25	9.75	8.00	10.00	0.75	8.25	1.75	1.75	1.25	2.25	8.00	1.50	1.25	1.25	-0.139160	0.114258	0.953613	-4.340000	13.230000	-0.280000	938.00	-0.12	-0.15	1.75	1.00	2.25	2.00	2.25	2.00	1.00	2.25	1.75	1.75	1.50	1.75	4.25	3.50	1.25	0.75	-0.160156	0.107910	0.959473	-1.470000	-3.290000	-1.470000	360.00	0.04	-0.09
0.13	7.00	7.75	7.50	8.75	7.25	10.00	0.75	8.25	0.75	0.75	1.00	1.75	7.75	0.75	0.25	0.50	-0.140137	0.109863	0.962402	-4.690000	12.670000	-0.630000	846.00	-0.14	-0.16	2.00	1.00	2.50	2.50	2.50	2.00	0.75	2.50	2.00	2.00	1.75	1.75	4.00	3.50	1.50	1.00	-0.160156	0.097168	0.969727	-1.820000	-3.500000	-1.610000	386.00	0.04	-0.09
0.14	7.25	7.75	7.50	9.00	7.00	9.75	0.75	8.00	0.75	1.00	0.75	1.50	7.50	0.75	0.50	0.50	-0.149902	0.111328	0.963379	-5.040000	12.460000	-0.840000	839.00	-0.14	-0.16	2.00	1.25	2.25	2.50	2.75	2.25	1.00	3.00	2.00	2.25	1.75	1.75	4.75	3.50	1.50	1.25	-0.161621	0.093262	0.971680	-1.540000	-3.780000	-0.910000	415.00	0.04	-0.10
0.15	6.75	7.75	7.50	8.75	7.00	9.50	1.00	8.75	2.00	1.75	1.75	3.00	8.25	2.25	0.75	0.75	-0.156250	0.110840	0.958008	-5.390000	12.320000	-0.910000	925.00	-0.10	-0.15	2.00	1.00	2.75	2.25	3.00	2.25	1.00	3.00	2.00	2.00	1.75	2.00	5.00	3.75	2.00	1.00	-0.166504	0.088379	0.963867	-0.840000	-3.430000	0.140000	428.00	0.04	-0.10
0.16	6.75	7.50	7.50	8.75	6.75	9.75	0.75	8.25	1.00	1.00	1.00	2.25	7.50	1.00	0.75	0.25	-0.158203	0.107910	0.960449	-5.460000	11.900000	-0.980000	848.00	-0.13	-0.16	2.25	1.25	2.75	2.75	3.00	3.00	1.00	3.50	2.50	2.25	1.75	2.00	5.00	4.25	1.75	1.75	-0.155273	0.092773	0.974121	1.470000	-2.730000	1.960000	472.00	0.04	-0.10
0.17	6.50	7.00	7.50	8.75	6.75	9.50	0.75	8.25	1.00	1.00	0.75	1.75	7.50	0.75	0.25	0.50	-0.149902	0.106934	0.956543	-5.390000	11.550000	-1.050000	822.00	-0.14	-0.16	2.25	1.25	2.75	3.25	3.25	3.25	1.00	3.75	2.50	2.25	2.25	2.25	5.75	4.25	2.00	1.50	-0.154297	0.095703	0.962891	1.960000	-2.170000	2.240000	506.00	0.04	-0.11
0.18	6.00	6.25	7.25	8.75	7.25	10.75	1.00	8.75	2.25	2.00	1.75	2.25	7.50	1.00	0.50	0.75	-0.150391	0.102539	0.960449	-5.250000	11.410000	-0.980000	892.00	-0.11	-0.15	2.25	1.50	2.75	3.00	3.25	3.25	1.00	4.25	2.50	2.25	2.25	2.25	5.75	4.25	2.25	1.75	-0.147949	0.102539	0.967773	2.170000	-1.820000	2.240000	518.00	0.04	-0.11
0.19	6.50	6.75	7.00	8.50	6.75	9.75	0.75	8.25	1.00	2.00	1.50	3.00	8.00	2.25	1.25	1.50	-0.151367	0.102539	0.963867	-4.760000	11.760000	-0.420000	884.00	-0.10	-0.16	2.00	1.25	2.75	3.50	3.50	3.75	1.00	4.50	2.50	2.50	2.00	2.75	6.25	4.25	2.50	1.75	-0.153809	0.103027	0.958496	2.240000	-1.470000	2.240000	545.00	0.04	-0.12
0.20	6.00	6.50	6.25	8.00	6.00	9.25	1.00	8.75	2.75	2.25	2.00	2.25	7.75	1.50	0.75	0.75	-0.152832	0.109863	0.965820	-4.340000	12.180000	-0.210000	863.00	-0.09	-0.15	2.25	1.50	3.25	3.50	3.75	3.75	1.00	5.00	2.75	2.50	2.50	2.75	6.25	4.25	2.25	1.75	-0.157715	0.102539	0.958496	2.170000	-1.400000	2.100000	574.00	0.03	-0.12
0.21	5.75	6.25	6.75	8.25	6.25	9.75	0.75	8.00	1.00	1.75	1.75	1.75	7.25	1.25	0.25	0.75	-0.157227	0.104492	0.964844	-4.060000	12.530000	-0.070000	807.00	-0.12	-0.16	2.00	1.25	3.00	3.75	3.50	4.25	1.00	5.25	2.25	2.75	2.50	2.75	6.50	4.50	2.50	1.75	-0.159180	0.105957	0.961426	1.750000	-2.030000	2.170000	579.00	0.04	-0.13
0.22	5.50	6.00	6.75	8.00	6.00	9.50	0.75	7.75	0.75	1.75	2.00	2.25	7.50	0.50	0.25	0.50	-0.152832	0.103027	0.961914	-3.710000	12.950000	0.210000	788.00	-0.12	-0.17	2.25	1.50	3.25	4.00	4.50	5.00	1.00	5.50	2.50	2.50	2.50	2.75	6.50	4.50	2.25	1.50	-0.154785	0.103516	0.955078	1.120000	-2.170000	2.310000	612.00	0.02	-0.13
0.23	5.25	5.75	6.25	7.75	5.75	9.25	0.75	7.75	1.50	1.25	1.00	1.75	7.50	0.75	0.25	0.75	-0.160156	0.103027	0.955078	-3.500000	13.650000	0.210000	759.00	-0.12	-0.16	2.50	1.75	3.50	4.25	4.75	5.00	1.25	5.75	2.75	2.75	2.75	3.25	7.25	4.75	2.50	1.75	-0.144043	0.109375	0.958496	0.280000	-2.030000	2.100000	663.00	0.03	-0.13
0.24	5.00	5.25	6.00	7.75	5.25	9.00	0.75	7.75	1.00	1.50	1.00	1.75	7.25	1.00	0.25	0.50	-0.156250	0.103516	0.962891	-3.500000	13.930000	0.350000	733.00	-0.11	-0.17	2.75	2.00	3.50	4.75	5.00	6.25	1.50	6.25	4.25	3.50	4.00	4.00	7.50	4.75	3.75	2.75	-0.146973	0.110840	0.958008	-0.980000	-2.100000	1.820000	781.00	0.04	-0.12
0.25	4.50	5.50	6.00	7.50	5.00	8.75	0.50	7.50	1.00	1.00	1.00	1.75	6.75	0.75	0.25	0.50	-0.159180	0.103516	0.954102	-3.500000	14.210000	0.210000	700.00	-0.12	-0.17	2.50	1.75	3.50	4.75	5.25	6.50	1.50	7.25	4.50	3.50	4.00	3.50	7.50	5.25	3.00	2.50	-0.140625	0.105957	0.956055	-2.240000	-2.100000	1.610000	790.00	0.04	-0.12
0.26	5.00	5.25	5.75	7.25	4.75	8.50	0.75	7.50	1.00	1.25	0.75	1.75	7.00	1.00	0.50	1.00	-0.159668	0.108887	0.958984	-3.780000	14.560000	0.070000	706.00	-0.11	-0.17	2.00	2.00	3.75	5.25	5.75	6.50	1.25	6.75	3.25	3.25	3.25	3.75	8.00	5.25	3.75	3.50	-0.146484	0.105469	0.951172	-3.080000	-1.960000	1.540000	783.00	0.04	-0.13
0.27	3.75	5.25	5.50	6.75	4.50	8.25	0.50	7.25	0.75	1.25	0.75	1.75	6.75	1.00	0.50	0.50	-0.154785	0.107422	0.959961	-4.410000	15.190001	-0.070000	660.00	-0.11	-0.18	2.75	2.50	4.00	4.75	6.25	6.75	1.25	6.75	3.50	4.00	6.00	6.50	9.75	7.00	5.00	4.00	-0.141113	0.105957	0.958496	-3.990000	-1.820000	1.330000	927.00	0.06	-0.13
0.28	4.00	5.00	5.25	6.50	3.75	8.00	0.75	6.75	1.00	1.25	0.75	1.50	6.50	1.25	0.25	0.50	-0.159668	0.109863	0.961426	-4.690000	16.030001	-0.420000	636.00	-0.11	-0.17	4.75	3.50	5.75	7.50	7.75	8.25	1.50	7.50	3.50	4.00	6.00	7.00	10.00	7.25	5.00	4.25	-0.139160	0.105469	0.958496	-4.550000	-1.470000	0.490000	1079.00	0.02	-0.13
0.29	4.00	4.50	5.00	6.25	3.25	7.75	0.50	6.25	0.75	1.00	0.75	1.50	6.25	1.00	0.25	0.50	-0.167480	0.107910	0.967285	-4.760000	17.080000	-1.330000	592.00	-0.11	-0.18	5.00	3.75	5.75	8.00	8.25	8.75	2.00	8.00	6.25	6.50	7.25	7.50	10.25	7.50	5.00	4.25	-0.140137	0.104004	0.969238	-4.130000	-0.630000	0.210000	1211.00	0.04	-0.11
0.30	3.50	4.00	4.75	5.50	2.75	7.00	0.50	5.75	0.75	1.00	0.75	1.50	6.00	1.00	0.00	0.25	-0.159180	0.116699	0.961426	-4.830000	17.990000	-2.940000	539.00	-0.11	-0.18	5.25	4.00	5.75	8.00	8.50	9.00	2.00	8.00	6.25	7.00	7.50	7.75	10.50	7.75	5.50	4.50	-0.145020	0.107422	0.972168	-3.570000	-0.070000	0.070000	1246.00	0.04	-0.11
0.31	3.00	4.00	4.00	5.00	2.50	6.50	0.25	5.25	0.75	1.25	0.75	1.25	5.50	0.75	0.00	0.50	-0.165527	0.114746	0.967773	-5.040000	18.760000	-3.990000	492.00	-0.11	-0.18	5.00	4.00	6.50	8.25	8.75	9.25	2.25	8.25	6.75	7.50	7.75	8.00	10.75	8.00	5.50	4.50	-0.147949	0.097656	0.962402	-2.940000	0.490000	-0.070000	1293.00	0.04	-0.11
0.32	3.25	2.75	4.00	5.00	2.25	6.00	0.25	4.50	0.25	0.50	0.75	1.25	5.00	0.75	0.00	0.25	-0.182617	0.111816	0.973633	-3.290000	18.830000	-6.580000	438.00	-0.12	-0.18	5.00	4.00	6.50	8.25	8.75	9.25	2.25	8.25	6.50	7.75	8.00	8.00	11.25	8.25	5.75	4.75	-0.144043	0.103027	0.966797	-1.890000	0.980000	-0.070000	1306.00	0.04	-0.11
0.33	3.00	2.50	3.25	3.75	1.75	4.50	0.25	3.25	0.00	0.50	0.25	0.50	4.25	0.25	0.00	0.00	-0.183105	0.137207	0.983398	5.110000	17.010000	-13.580000	333.00	-0.14	-0.18	5.25	4.25	6.50	8.50	9.25	9.50	2.25	8.50	6.75	7.75	8.00	8.25	11.50	8.50	6.00	5.00	-0.146484	0.104980	0.966309	-0.980000	1.050000	0.140000	1343.00	0.04	-0.11
0.34	2.50	2.75	3.25	3.75	1.50	4.00	0.00	2.75	0.00	0.00	0.50	0.75	3.25	0.25	0.00	0.00	-0.200684	0.187500	0.996094	16.940001	15.330000	-20.860001	299.00	-0.16	-0.18	5.25	4.25	7.00	8.75	9.25	9.75	2.50	8.50	7.00	7.75	8.00	8.25	11.75	8.75	6.00	5.00	-0.151855	0.103027	0.963867	-0.490000	0.770000	0.420000	1368.00	0.04	-0.11
0.35	2.50	2.25	2.75	2.50	0.75	2.50	0.00	1.00	0.25	1.25	1.50	1.50	2.25	1.00	0.00	0.00	-0.106445	0.279785	1.012207	37.380001	11.970000	-37.799999	253.00	-0.10	-0.13	5.25	4.25	7.00	8.50	9.50	10.00	2.50	8.75	7.25	8.00	8.25	8.50	11.75	9.00	6.25	5.25	-0.147461	0.102051	0.960938	-0.210000	0.420000	0.630000	1394.00	0.04	-0.10
0.36	2.00	2.50	2.25	2.75	1.00	2.00	0.00	1.00	0.00	0.00	0.25	1.25	3.75	1.00	1.00	0.75	-0.029785	0.144043	1.104492	69.300003	6.160000	-76.370003	238.00	-0.09	-0.17	5.25	4.25	6.75	8.75	9.75	10.25	2.25	8.75	7.25	8.00	8.50	8.50	12.00	9.00	6.00	5.25	-0.143555	0.108398	0.960938	-0.350000	0.350000	0.770000	1398.00	0.04	-0.11
0.37	3.75	4.25	3.75	4.00	1.75	4.00	0.25	2.25	1.25	1.00	1.00	2.00	2.00	1.00	0.25	0.00	-0.316406	0.397949	1.208984	99.610001	-10.430000	-123.059998	384.00	-0.13	-0.12	5.25	4.50	7.25	8.75	9.75	10.25	2.50	9.00	7.25	8.00	8.50	8.75	12.25	9.00	6.25	5.25	-0.142578	0.108398	0.967285	-0.490000	0.280000	0.770000	1423.00	0.04	-0.11
0.38	2.25	1.75	1.75	2.25	0.75	1.50	0.00	0.00	0.00	0.00	0.00	0.25	0.00	0.00	0.00	0.00	-0.892090	0.687500	1.125977	115.849998	-25.059999	-144.199997	121.00	-0.28	-0.08	5.25	4.50	7.25	9.00	9.75	10.75	2.50	9.00	7.50	8.25	8.50	8.75	12.25	9.25	6.25	5.25	-0.145508	0.108887	0.968262	-0.560000	0.420000	0.630000	1440.00	0.04	-0.11
0.39	1.50	1.25	1.75	2.50	0.75	0.50	0.00	0.25	0.00	0.00	0.00	0.00	0.00	0.00	0.00	0.00	-0.757324	1.706055	0.808594	125.160004	-37.799999	-127.120003	100.00	-0.28	-0.08	5.25	4.50	7.00	9.00	10.00	11.00	2.50	9.00	7.50	8.25	8.50	9.00	12.50	9.25	6.25	5.25	-0.144043	0.109863	0.968262	-0.490000	0.700000	0.630000	1449.00	0.04	-0.11
0.40	1.50	1.75	1.75	1.75	0.75	0.50	0.00	0.00	0.00	0.00	0.00	0.00	0.00	0.00	0.00	0.00	-0.741699	1.347656	0.847168	115.639999	-44.730000	-91.419998	92.00	-0.30	-0.05	5.25	4.50	7.50	9.00	10.25	11.50	2.50	9.00	7.50	8.25	8.50	9.00	12.50	9.25	6.50	5.25	-0.144043	0.107422	0.974609	-0.700000	1.190000	0.630000	1467.00	0.04	-0.11
0.41	1.75	1.50	1.75	1.75	0.75	0.25	0.00	0.00	0.00	0.00	0.00	0.00	0.00	0.00	0.00	0.00	-0.694336	1.066406	0.925781	54.040001	-48.860001	-54.740002	89.00	-0.31	-0.04	5.25	4.50	7.25	9.25	10.25	11.00	2.50	9.00	7.50	8.25	8.75	9.00	12.75	9.25	6.50	5.25	-0.145020	0.104980	0.968262	-1.050000	1.820000	0.560000	1466.00	0.04	-0.11
0.42	1.50	2.00	0.75	0.75	0.75	0.25	0.00	0.00	0.00	0.00	0.00	0.00	0.00	0.00	0.00	0.00	-0.659180	1.226074	0.507324	22.960001	-45.009998	-37.730000	67.00	-0.32	-0.04	5.00	5.00	7.25	9.00	10.00	11.25	2.50	9.00	7.50	8.25	8.75	9.00	12.75	9.25	6.50	5.25	-0.139648	0.110352	0.961914	-1.190000	2.170000	0.420000	1465.00	0.04	-0.11
0.43	1.75	1.75	1.50	1.50	0.50	0.75	0.00	0.00	0.00	0.00	0.25	0.00	0.00	0.00	0.00	0.00	-0.611328	1.009277	0.312988	46.900002	-29.469999	-44.029999	91.00	-0.29	-0.06	5.25	4.50	7.75	9.00	10.00	11.25	2.50	9.00	7.50	8.50	8.75	9.00	12.50	9.25	6.25	5.25	-0.136719	0.108398	0.959961	-1.540000	2.520000	0.350000	1466.00	0.04	-0.11
0.44	1.75	2.00	1.50	1.75	0.50	0.50	0.00	0.00	0.00	0.00	0.00	0.00	0.00	0.00	0.00	0.00	-0.499512	0.714355	0.419434	70.000000	-9.240000	-57.680000	91.00	-0.32	-0.06	5.25	4.50	7.75	9.00	10.00	11.00	2.50	9.00	7.50	8.25	8.75	9.00	12.75	9.25	6.50	5.25	-0.140137	0.110352	0.960449	-1.680000	3.010000	0.280000	1466.00	0.04	-0.11
0.45	3.25	2.00	1.50	1.75	0.75	0.75	0.00	0.00	0.00	0.00	0.00	0.00	0.00	0.00	0.00	0.00	-0.391602	0.645996	0.587891	70.209999	5.950000	-64.680000	114.00	-0.32	-0.04	5.25	4.50	7.50	9.00	10.00	11.00	2.50	9.00	7.50	8.50	8.75	9.25	12.75	9.25	6.50	5.50	-0.136230	0.108398	0.962402	-1.820000	3.360000	0.280000	1470.00	0.04	-0.11
0.46	2.00	1.75	1.25	1.25	0.50	0.00	0.00	0.00	0.00	0.00	0.00	0.00	0.00	0.00	0.00	0.00	-0.323730	0.662109	0.536133	68.180000	15.610000	-64.959999	76.00	-0.33	-0.03	5.25	4.25	7.50	9.00	9.75	11.00	2.50	9.00	7.50	8.50	9.00	9.00	12.75	9.50	6.75	5.25	-0.139160	0.111816	0.959961	-1.820000	3.780000	0.350000	1468.00	0.04	-0.11
0.47	2.00	1.50	1.25	1.75	0.25	0.00	0.00	0.00	0.00	0.00	0.00	0.00	0.00	0.00	0.00	0.00	-0.333496	0.580078	0.286133	77.559998	26.950001	-62.299999	77.00	-0.34	-0.04	5.00	4.25	7.25	8.75	9.75	11.25	2.25	9.00	7.50	8.50	8.75	9.25	13.00	9.25	6.75	5.50	-0.142090	0.107422	0.959961	-1.890000	4.060000	0.420000	1460.00	0.05	-0.11
0.48	1.25	1.00	1.25	1.50	0.25	0.50	0.00	0.00	0.00	0.00	0.00	0.00	0.00	0.00	0.00	0.00	-0.131348	0.410156	0.320801	103.739998	80.010002	-51.029999	66.00	-0.31	-0.06	5.00	4.00	7.25	8.75	9.50	11.00	2.25	9.00	7.25	8.50	8.75	9.25	13.00	9.25	6.50	5.50	-0.145508	0.105469	0.960449	-1.750000	4.060000	0.420000	1445.00	0.05	-0.11
0.49	1.50	1.75	1.00	0.00	0.50	2.00	0.00	1.00	0.75	0.50	0.75	1.25	1.50	1.50	0.75	0.75	0.563477	-1.146973	1.895508	33.180000	87.570000	-47.670002	174.00	0.00	-0.12	5.00	4.00	7.25	8.75	9.50	11.00	2.25	9.00	7.50	8.25	8.75	9.25	12.75	9.25	6.50	5.50	-0.141602	0.106445	0.954102	-1.470000	4.340000	0.420000	1443.00	0.05	-0.11
0.50	2.00	1.25	0.00	0.75	0.75	2.25	0.00	1.50	1.25	0.75	1.00	1.50	2.25	1.00	0.75	0.75	0.750000	-1.250488	1.340332	-75.250000	44.170002	-45.500000	204.00	0.01	-0.14	5.00	4.00	7.00	8.50	9.25	11.00	2.25	9.00	7.50	8.50	8.75	9.25	13.00	9.50	6.75	5.50	-0.142578	0.109375	0.961426	-1.120000	4.480000	0.630000	1445.00	0.05	-0.11
0.51	3.25	3.75	2.50	3.00	1.00	2.50	0.00	1.50	1.00	1.00	1.25	1.75	2.25	1.00	0.75	0.00	1.199707	-1.584961	1.009766	-114.660004	8.820000	-71.959999	307.00	-0.10	-0.12	5.00	4.25	6.75	8.50	9.25	10.75	2.25	9.00	7.50	8.50	8.75	9.25	12.75	9.25	6.75	5.50	-0.142090	0.117188	0.965820	-1.050000	4.690000	0.420000	1436.00	0.05	-0.11
0.52	1.75	1.50	1.00	0.75	0.25	0.25	0.00	0.25	0.00	0.00	0.50	0.50	1.50	0.00	0.00	0.00	2.062012	-2.335938	1.591309	-176.119995	-12.880000	-122.989998	92.00	-0.18	-0.14	5.00	3.75	7.00	8.25	9.00	10.50	2.25	9.00	7.50	8.25	8.75	9.25	12.75	9.25	7.00	5.50	-0.141113	0.115723	0.961426	-1.610000	5.250000	0.070000	1425.00	0.05	-0.11
0.53	1.50	1.50	1.00	1.00	0.25	1.00	0.00	1.00	0.00	0.00	0.50	2.00	5.00	1.25	1.00	1.00	0.047363	-0.037598	1.924316	-243.250000	-77.769997	-137.830002	193.00	0.02	-0.22	5.00	3.75	7.00	8.25	9.00	10.50	2.25	8.75	7.50	8.50	8.75	9.25	12.75	9.00	6.75	5.50	-0.142090	0.112793	0.971680	-1.960000	5.810000	-0.210000	1419.00	0.05	-0.11
0.54	1.75	1.00	0.75	1.50	0.50	1.75	0.00	2.00	0.00	0.00	0.50	1.25	3.75	0.00	0.00	0.00	-1.427246	-0.508789	2.120605	-207.130005	-89.250000	-120.190002	173.00	-0.08	-0.25	5.00	3.75	6.50	8.00	8.75	10.25	2.00	8.75	7.25	8.50	8.75	9.25	12.75	9.25	6.75	5.50	-0.145996	0.117188	0.979004	-2.240000	6.930000	-0.280000	1398.00	0.05	-0.11
0.55	1.50	2.25	2.00	2.25	1.00	2.00	0.25	2.50	0.50	0.50	1.00	1.25	4.25	0.50	0.00	0.25	-0.581543	-0.180176	1.497559	-123.270004	-46.830002	-49.420002	257.00	-0.07	-0.19	4.25	3.50	6.50	7.75	8.50	10.00	2.00	8.75	7.25	8.25	8.75	9.25	12.75	9.00	6.75	5.50	-0.151855	0.111816	0.967285	-2.800000	8.120000	-0.560000	1373.00	0.06	-0.11
0.56	2.25	2.25	2.25	2.50	1.50	2.75	0.25	2.75	0.25	0.75	1.00	1.50	4.25	0.50	0.00	0.75	-0.335938	-0.048828	1.080566	-67.480003	-23.940001	-14.700000	296.00	-0.08	-0.18	4.50	3.50	6.25	7.50	8.00	9.75	2.00	8.50	7.00	8.25	8.75	9.25	12.50	9.00	6.75	5.50	-0.156250	0.118652	0.971680	-3.430000	8.540000	-0.910000	1351.00	0.06	-0.11
0.57	1.50	1.50	3.00	3.00	2.00	4.00	0.50	4.75	2.50	1.75	2.25	3.00	6.00	2.25	1.25	1.50	-0.083008	-0.038086	1.000977	-36.680000	-19.389999	-2.240000	480.00	0.02	-0.16	4.25	2.75	6.00	7.25	7.75	9.25	2.00	8.50	7.25	8.25	8.50	9.00	12.25	8.75	6.50	5.25	-0.155762	0.112793	0.964355	-3.920000	8.890000	-1.190000	1314.00	0.06	-0.11
0.58	4.50	4.50	3.50	3.25	2.75	4.75	0.50	3.75	1.00	1.00	1.00	2.25	5.00	0.75	0.25	0.75	-0.111816	0.015137	1.011719	-17.290001	-16.799999	5.670000	463.00	-0.10	-0.15	3.75	3.00	5.75	7.00	7.50	9.00	1.75	8.25	7.00	8.00	8.50	9.00	12.25	8.75	6.25	5.00	-0.163086	0.111816	0.974121	-4.410000	8.820000	-1.330000	1280.00	0.07	-0.11
0.59	2.75	2.75	5.00	5.25	4.75	6.00	1.00	6.00	2.75	2.25	2.50	3.25	5.75	1.75	1.25	1.50	-0.191895	0.096191	1.017090	-4.620000	-10.640000	7.700000	652.00	-0.03	-0.14	3.50	3.00	5.75	6.25	7.00	8.75	1.75	8.00	6.75	7.75	7.75	8.00	11.00	7.75	5.25	4.00	-0.157715	0.112305	0.972168	-4.410000	8.470000	-1.400000	1190.00	0.06	-0.11
0.60	3.00	2.50	3.25	3.50	3.75	5.00	0.75	5.25	0.75	1.50	1.50	2.00	5.25	1.50	1.00	1.50	-0.177246	0.113770	0.997070	1.540000	-3.990000	8.190000	497.00	-0.05	-0.16	2.00	1.25	3.75	5.25	5.75	7.25	1.25	7.50	5.50	6.25	7.50	8.00	10.75	7.00	5.00	3.75	-0.162109	0.108887	0.965332	-4.480000	7.700000	-1.540000	1018.00	0.08	-0.13
0.61	4.75	5.00	5.00	5.50	5.00	7.50	1.00	6.75	2.75	2.50	2.75	3.75	7.75	2.50	1.50	1.75	-0.155273	0.103516	0.981445	3.360000	0.420000	7.140000	775.00	-0.04	-0.14	2.25	1.50	4.00	5.00	5.25	6.75	1.25	7.50	5.25	6.00	7.25	7.50	10.50	6.75	5.25	3.25	-0.165039	0.104980	0.960449	-4.550000	6.370000	-1.120000	992.00	0.08	-0.13
0.62	4.50	5.00	5.00	5.50	5.25	7.50	1.00	6.75	2.75	2.75	2.50	3.50	8.00	2.75	1.50	2.00	-0.178711	0.112305	0.969238	3.710000	2.940000	5.460000	779.00	-0.04	-0.14	1.75	1.50	4.00	4.50	5.25	6.50	1.50	7.75	5.00	5.50	7.25	7.50	10.25	6.50	4.50	3.00	-0.168945	0.113281	0.957031	-4.760000	4.760000	-0.770000	962.00	0.08	-0.13
0.63	4.75	5.00	5.00	5.50	5.25	7.50	0.75	7.00	2.50	2.25	2.50	3.75	8.00	2.75	1.50	1.75	-0.184570	0.099121	0.963867	3.080000	3.430000	4.900000	774.00	-0.05	-0.15	1.75	1.50	3.75	4.50	5.00	6.50	1.25	6.75	4.50	5.00	6.00	7.00	10.00	6.25	4.00	2.75	-0.168945	0.108887	0.957031	-5.110000	2.380000	-0.420000	890.00	0.07	-0.13
0.64	4.75	5.00	5.00	5.75	5.25	7.75	1.00	7.25	2.75	2.25	2.50	3.75	8.00	2.75	1.25	1.75	-0.186035	0.112305	0.952637	3.080000	2.030000	4.830000	789.00	-0.05	-0.15	2.00	1.25	3.50	4.50	4.50	6.50	1.25	6.50	4.00	4.50	5.25	6.25	9.25	5.75	3.25	2.25	-0.173340	0.110352	0.953125	-5.950000	-1.610000	-0.210000	824.00	0.06	-0.13
0.65	4.75	5.25	5.00	5.75	5.50	7.75	0.75	7.25	2.50	2.25	2.50	3.50	8.00	2.50	1.50	1.50	-0.179199	0.118164	0.946289	1.400000	0.420000	4.060000	783.00	-0.05	-0.15	1.75	1.50	3.25	4.50	4.50	6.25	1.00	6.25	3.75	3.75	4.50	5.75	9.00	5.50	3.25	1.75	-0.170898	0.106445	0.958496	-5.950000	-3.290000	-0.210000	775.00	0.06	-0.14
0.66	5.00	5.25	5.25	6.00	5.50	8.00	1.00	7.50	2.50	2.25	2.50	3.50	7.75	2.50	1.25	1.50	-0.168457	0.121094	0.942383	-0.980000	-1.190000	2.450000	798.00	-0.06	-0.15	2.00	1.50	4.00	4.50	4.50	6.25	1.25	6.00	3.25	3.00	3.75	5.00	8.50	5.00	2.50	1.50	-0.170898	0.109375	0.961914	-5.460000	-4.970000	0.070000	735.00	0.04	-0.14
0.67	5.00	5.25	5.75	6.00	5.75	8.00	1.00	7.50	2.50	2.25	2.00	3.25	8.00	2.25	1.50	1.50	-0.173340	0.108887	0.960938	-3.430000	-2.380000	0.630000	801.00	-0.06	-0.15	2.25	1.75	4.00	5.00	4.50	6.00	1.00	5.75	2.75	2.75	3.00	4.25	8.00	4.75	1.75	1.25	-0.171387	0.109375	0.969727	-4.970000	-5.950000	0.560000	690.00	0.02	-0.14
0.68	5.00	5.75	6.00	7.00	6.00	8.50	1.00	7.50	2.50	2.00	2.00	3.25	7.75	2.25	1.25	1.50	-0.191406	0.092773	0.972656	-3.360000	-3.990000	-0.140000	822.00	-0.07	-0.15	2.50	1.75	4.50	5.25	4.25	6.25	1.00	5.50	2.25	2.25	2.75	3.50	7.75	4.00	1.50	1.00	-0.160645	0.106934	0.964355	-3.780000	-6.860000	0.840000	660.00	-0.00	-0.14
0.69	5.50	5.75	6.50	7.75	6.25	8.75	0.75	7.50	2.25	1.75	2.00	3.00	7.75	2.00	1.00	1.50	-0.197266	0.083984	0.973633	-1.610000	-6.230000	0.070000	830.00	-0.08	-0.15	2.50	2.25	4.75	5.25	4.50	6.00	1.00	5.50	1.75	1.75	2.00	2.75	7.50	3.50	1.25	0.25	-0.155273	0.104004	0.970703	-2.240000	-7.630000	1.050000	624.00	-0.03	-0.14
0.70	5.75	6.00	7.00	8.00	6.50	9.00	0.75	7.50	2.00	1.50	1.75	2.75	7.50	1.75	1.00	1.25	-0.184082	0.068359	0.974121	2.100000	-9.030000	1.190000	832.00	-0.10	-0.15	3.50	2.50	5.00	5.75	4.25	6.00	1.00	5.25	1.25	1.25	1.50	1.75	6.50	2.75	0.75	0.25	-0.166992	0.100098	0.965820	-0.140000	-7.980000	1.400000	587.00	-0.07	-0.14
0.71	6.00	7.00	7.50	8.50	7.00	9.25	0.75	7.75	1.75	1.25	1.50	2.50	7.50	1.75	1.25	1.50	-0.172363	0.075195	0.983887	7.140000	-11.550000	1.680000	863.00	-0.11	-0.15	3.75	3.00	5.25	6.00	4.50	6.25	1.00	5.00	0.75	1.25	1.50	1.75	5.50	2.50	0.75	0.25	-0.168945	0.093750	0.987305	3.220000	-8.400000	1.330000	584.00	-0.08	-0.14
0.72	6.50	7.50	7.75	8.75	7.25	9.75	0.75	7.75	1.50	1.50	1.25	2.50	7.25	1.25	1.00	1.00	-0.181152	0.067871	0.996094	12.880000	-12.810000	2.380000	872.00	-0.12	-0.15	4.75	3.25	5.50	6.50	4.50	6.25	1.00	4.50	0.75	1.25	1.00	1.50	5.00	2.25	0.75	0.00	-0.170898	0.099609	0.978516	6.370000	-8.050000	1.470000	582.00	-0.10	-0.13
0.73	7.50	8.50	8.00	9.25	7.50	10.00	0.75	7.75	1.75	2.00	1.00	2.50	6.50	1.50	1.00	1.00	-0.199707	0.059570	1.009766	21.700001	-15.470000	3.430000	910.00	-0.13	-0.14	5.00	4.25	5.75	7.00	4.50	6.50	0.75	4.00	0.50	0.50	0.50	1.25	3.75	2.00	0.75	0.00	-0.175293	0.091797	0.979980	10.640000	-8.750000	1.820000	559.00	-0.14	-0.13
0.74	8.75	9.25	8.50	9.75	7.75	10.50	0.50	7.75	1.25	1.25	1.00	2.00	6.25	1.50	1.00	0.75	-0.149414	0.124512	1.006836	29.330000	-16.799999	2.380000	923.00	-0.15	-0.14	5.25	4.50	6.00	7.50	4.50	6.50	0.75	3.75	0.50	0.50	0.50	1.00	3.00	1.75	0.75	0.00	-0.146973	0.113770	0.967773	12.180000	-7.910000	1.470000	557.00	-0.15	-0.12
0.75	9.75	10.25	8.75	10.25	7.50	10.75	0.50	7.50	1.50	1.00	1.00	2.00	6.00	1.50	1.00	0.75	-0.176758	0.169922	1.006836	35.490002	-18.549999	2.870000	948.00	-0.15	-0.13	5.75	5.00	6.25	7.75	4.25	6.50	0.50	3.75	0.00	0.75	0.50	0.75	2.75	1.50	0.50	0.00	-0.146973	0.104004	0.980469	13.580000	-8.260000	1.120000	552.00	-0.17	-0.12
0.76	11.00	11.00	9.00	10.50	7.75	10.75	0.50	7.50	1.25	0.75	0.75	2.00	5.50	1.25	1.00	0.75	-0.159180	0.133301	0.959961	39.759998	-20.160000	3.500000	962.00	-0.17	-0.13	6.25	5.75	6.50	8.00	4.25	6.50	0.75	3.00	0.25	0.25	0.75	0.75	2.00	1.50	0.25	0.00	-0.132812	0.126465	0.957031	13.720000	-7.980000	0.630000	554.00	-0.19	-0.11
0.77	11.75	12.00	9.25	11.00	7.75	10.75	0.50	7.50	1.00	0.75	0.00	0.50	2.25	0.00	1.00	0.75	-0.130371	0.142578	0.946777	38.080002	-17.219999	3.010000	918.00	-0.20	-0.12	6.25	6.25	7.00	8.25	4.25	6.50	0.75	2.75	0.00	0.25	0.50	0.75	1.75	1.25	0.50	0.00	-0.127441	0.125977	0.942871	10.920000	-6.230000	0.770000	556.00	-0.20	-0.11
0.78	10.75	10.00	8.75	10.00	6.50	10.00	0.25	6.25	0.00	0.00	0.00	0.50	2.25	0.00	0.00	0.00	-0.124023	0.194824	0.965820	28.490000	-17.290001	1.540000	781.00	-0.23	-0.13	7.25	6.25	6.75	8.25	4.25	6.25	0.75	2.75	0.00	0.00	0.50	0.50	1.25	1.25	0.25	0.00	-0.129395	0.124023	0.951660	7.770000	-4.550000	0.700000	547.00	-0.21	-0.10
0.79	13.00	13.25	9.50	11.00	7.50	11.25	0.50	6.75	0.75	0.50	0.75	1.25	3.25	1.25	0.75	0.75	-0.106445	0.181641	0.912109	22.820000	-15.330000	2.170000	968.00	-0.20	-0.12	7.75	7.00	7.25	8.50	3.75	6.25	0.75	2.50	0.00	0.00	0.50	0.75	1.00	1.00	0.50	0.00	-0.130371	0.128906	0.943359	4.830000	-3.290000	0.630000	561.00	-0.22	-0.10
0.80	13.50	13.25	9.50	11.00	7.50	11.00	0.25	6.50	1.00	0.50	0.50	1.25	3.50	1.00	0.75	0.50	-0.098633	0.162109	0.896484	16.100000	-9.870000	3.360000	961.00	-0.20	-0.12	7.75	7.25	7.25	8.50	4.00	6.25	0.75	2.25	0.00	0.25	0.50	0.25	1.00	1.25	0.00	0.00	-0.123047	0.132812	0.929688	0.560000	-1.050000	0.490000	556.00	-0.23	-0.09
0.81	13.50	13.75	9.50	11.25	7.50	11.00	0.50	6.25	0.75	0.25	0.25	1.25	3.00	1.00	0.75	0.75	-0.097656	0.147461	0.902344	9.660000	-4.550000	3.220000	957.00	-0.21	-0.12	8.50	7.50	7.75	8.75	4.25	6.25	0.50	2.25	0.00	0.00	0.50	0.50	1.00	0.75	0.25	0.00	-0.126465	0.126953	0.942383	-3.920000	0.980000	0.420000	573.00	-0.24	-0.09
0.82	14.50	14.00	9.75	11.50	7.50	11.25	0.50	6.25	0.75	0.50	0.50	1.25	3.00	1.25	0.75	0.75	-0.092285	0.156250	0.890625	2.940000	0.770000	2.310000	988.00	-0.21	-0.11	8.50	7.50	7.75	8.75	4.25	6.50	0.50	2.25	0.00	0.00	0.50	0.25	1.25	0.50	0.00	0.00	-0.137207	0.124023	0.965820	-6.020000	1.960000	0.420000	570.00	-0.24	-0.09
0.83	14.50	14.25	9.75	11.25	7.25	11.00	0.25	6.00	0.75	0.50	0.50	1.00	2.00	0.50	0.50	0.25	-0.089355	0.162598	0.890625	-5.390000	7.280000	1.750000	948.00	-0.22	-0.11	8.50	8.25	7.75	8.75	4.00	6.25	0.50	2.00	0.00	0.25	0.25	0.25	1.25	0.75	0.00	0.00	-0.142578	0.121582	0.966797	-6.020000	2.380000	0.280000	570.00	-0.24	-0.09
0.84	12.75	13.00	9.25	11.00	7.25	11.00	0.25	6.00	1.00	0.50	0.50	1.25	2.75	1.00	0.50	0.50	-0.112305	0.155273	0.939453	-11.830000	12.250000	1.400000	926.00	-0.21	-0.12	9.00	7.75	7.75	9.00	4.00	6.25	0.50	2.25	0.00	0.00	0.25	0.50	0.75	0.50	0.00	0.00	-0.145020	0.124512	0.974609	-5.320000	2.450000	0.350000	571.00	-0.25	-0.09
0.85	14.50	14.25	10.00	11.25	7.50	11.00	0.50	6.00	1.00	0.50	0.75	1.25	2.75	1.00	0.50	0.50	-0.129395	0.150391	0.965820	-13.650000	13.300000	1.120000	980.00	-0.21	-0.11	8.75	7.75	7.75	9.00	4.00	6.25	0.50	2.00	0.25	0.00	0.25	0.25	0.75	0.75	0.00	0.00	-0.145508	0.125488	0.973145	-4.760000	2.310000	0.280000	567.00	-0.25	-0.09
0.86	14.75	14.00	9.75	11.25	7.25	10.75	0.50	5.75	1.00	0.50	0.50	1.25	2.75	1.00	0.50	0.50	-0.130371	0.144531	0.975586	-12.740000	12.810000	1.120000	965.00	-0.21	-0.11	9.25	8.25	7.75	9.00	3.75	6.00	0.50	2.00	0.00	0.25	0.25	0.00	0.75	0.75	0.00	0.00	-0.140137	0.124512	0.970703	-3.920000	2.100000	0.210000	568.00	-0.25	-0.08
0.87	15.00	14.00	9.25	10.50	6.50	10.00	0.25	5.25	0.00	0.00	0.00	0.25	1.00	0.00	0.00	0.00	-0.136719	0.143555	0.969238	-10.920000	11.830000	1.330000	850.00	-0.26	-0.11	9.25	8.25	7.75	8.75	3.75	6.00	0.50	2.00	0.00	0.00	0.25	0.25	1.00	0.75	0.00	0.00	-0.144043	0.124023	0.963867	-3.710000	2.030000	0.140000	567.00	-0.25	-0.09
0.88	13.25	13.00	9.25	10.25	6.50	9.75	0.25	5.00	0.00	0.00	0.00	0.25	1.00	0.00	0.00	0.00	-0.130371	0.145020	0.953613	-9.940000	11.270000	1.120000	810.00	-0.25	-0.11	9.00	8.25	7.75	9.00	4.00	6.00	0.50	2.00	0.00	0.00	0.00	0.25	0.50	0.75	0.00	0.00	-0.146973	0.123535	0.976074	-3.850000	1.750000	0.210000	563.00	-0.26	-0.09
0.89	13.50	12.75	9.25	10.50	6.75	10.00	0.25	5.00	0.00	0.00	0.00	0.00	1.50	0.00	0.00	0.00	-0.117188	0.137695	0.941406	-10.360000	11.480000	0.700000	821.00	-0.25	-0.11	9.00	8.25	7.75	8.75	3.75	6.00	0.50	2.00	0.00	0.00	0.25	0.25	1.25	0.75	0.00	0.00	-0.150879	0.118652	0.969727	-3.360000	1.470000	0.210000	567.00	-0.25	-0.09
0.90	15.50	14.50	9.75	11.50	7.50	11.25	0.50	5.50	1.25	0.50	0.50	1.00	2.00	1.00	0.50	0.25	-0.129883	0.137695	0.958496	-10.990000	11.830000	0.210000	978.00	-0.22	-0.10	9.50	8.00	7.75	9.00	3.50	5.75	0.50	2.00	0.00	0.00	0.00	0.25	1.00	0.50	0.00	0.00	-0.146484	0.125000	0.961426	-2.870000	0.840000	0.280000	559.00	-0.26	-0.09
0.91	12.75	13.00	9.25	10.50	6.75	10.00	0.25	5.00	0.00	0.00	0.00	0.50	1.00	0.00	0.00	0.00	-0.136230	0.137207	0.959473	-11.270000	11.340000	-0.140000	817.00	-0.25	-0.11	9.25	8.50	7.75	8.75	3.75	6.00	0.50	1.75	0.25	0.00	0.00	0.00	0.50	0.50	0.00	0.00	-0.145020	0.129395	0.962891	-3.290000	0.840000	0.350000	556.00	-0.26	-0.08
0.92	12.00	12.50	9.00	10.25	6.75	10.00	0.25	4.75	0.00	0.00	0.00	0.00	0.75	0.25	0.00	0.00	-0.124023	0.136719	0.943359	-12.040000	11.410000	-0.350000	787.00	-0.25	-0.11	9.25	8.25	7.75	9.00	3.75	6.00	0.50	2.00	0.00	0.00	0.00	0.25	1.00	0.50	0.00	0.00	-0.144531	0.123535	0.963379	-3.640000	0.910000	0.280000	565.00	-0.26	-0.09
0.93	13.00	12.75	9.25	10.25	6.75	9.75	0.25	4.50	0.00	0.00	0.00	0.00	1.00	0.25	0.00	0.00	-0.130859	0.138184	0.942871	-16.309999	13.230000	-1.050000	799.00	-0.26	-0.10	10.50	8.25	7.50	9.00	3.75	6.25	0.50	2.00	0.00	0.25	0.25	0.25	0.50	0.75	0.00	0.00	-0.146484	0.126953	0.964355	-3.710000	0.490000	0.280000	582.00	-0.26	-0.08
0.94	13.00	12.50	9.00	11.00	7.50	11.00	0.50	5.75	1.75	1.00	0.50	1.25	2.50	1.25	0.75	0.50	-0.129395	0.139648	0.951172	-18.200001	14.420000	-1.190000	943.00	-0.19	-0.10	9.75	8.50	8.00	9.25	3.50	6.25	0.50	1.75	0.00	0.25	0.00	0.25	0.50	0.75	0.00	0.00	-0.146484	0.126953	0.960938	-3.640000	0.210000	0.420000	576.00	-0.26	-0.08
0.95	15.50	14.25	10.25	11.75	7.75	11.25	0.50	5.75	1.50	0.75	0.75	1.50	2.75	1.00	1.00	0.75	-0.139160	0.128906	0.968262	-18.200001	14.140000	-1.190000	1023.00	-0.20	-0.10	9.75	8.75	8.00	9.25	3.75	6.25	0.50	2.00	0.00	0.25	0.25	0.00	0.75	0.75	0.00	0.00	-0.150391	0.126465	0.966797	-3.990000	-0.070000	0.420000	588.00	-0.26	-0.08
0.96	12.75	12.25	9.00	10.25	6.75	9.75	0.25	5.25	1.25	0.75	0.50	1.00	1.75	1.25	0.75	0.75	-0.147461	0.132324	0.959473	-17.500000	13.300000	-0.980000	874.00	-0.21	-0.10	10.00	8.50	8.25	9.25	3.75	6.50	0.50	2.00	0.00	0.00	0.25	0.25	1.00	0.50	0.00	0.00	-0.144043	0.122559	0.962891	-4.480000	-0.210000	0.560000	594.00	-0.26	-0.09
0.97	15.25	14.25	10.25	11.50	8.00	11.00	0.50	5.75	1.50	0.75	0.75	1.00	2.25	1.50	0.75	0.75	-0.138672	0.124023	0.959961	-17.710001	12.390000	-0.840000	1008.00	-0.21	-0.10	10.50	9.00	8.25	9.50	4.00	6.50	0.50	2.25	0.00	0.25	0.00	0.50	0.75	0.50	0.00	0.00	-0.143066	0.119141	0.966797	-4.830000	-0.280000	0.630000	615.00	-0.26	-0.09
0.98	14.50	13.75	10.00	11.50	7.75	11.00	0.50	5.75	1.25	1.00	0.75	1.25	3.00	1.50	1.00	0.75	-0.144531	0.127441	0.955078	-18.059999	12.110000	-0.630000	1001.00	-0.20	-0.10	10.25	9.25	8.25	9.75	4.00	6.75	0.50	2.25	0.00	0.25	0.25	0.25	0.75	0.75	0.00	0.00	-0.145020	0.121094	0.960449	-4.900000	-0.350000	0.490000	623.00	-0.25	-0.09
0.99	15.25	14.00	10.25	11.50	7.75	11.00	0.75	5.75	1.75	1.00	0.75	1.25	3.00	1.25	0.75	0.75	-0.146973	0.117188	0.960449	-17.570000	11.690000	-0.420000	1021.00	-0.20	-0.10	11.00	9.25	8.50	10.00	4.25	7.00	0.50	2.50	0.00	0.00	0.25	0.25	1.25	0.75	0.25	0.00	-0.137207	0.124512	0.954590	-5.670000	-0.560000	0.560000	653.00	-0.25	-0.09
1.00	15.00	13.75	10.25	11.25	7.75	10.75	0.75	5.75	1.75	0.75	0.50	1.25	2.75	1.50	0.75	0.50	-0.148926	0.112305	0.954590	-16.730000	11.130000	-0.350000	1002.00	-0.20	-0.10	11.00	9.25	8.50	10.00	4.25	7.00	0.75	2.75	0.00	0.25	0.25	0.25	1.00	0.75	0.00	0.00	-0.141113	0.112305	0.954590	-6.650000	-0.840000	0.140000	659.00	-0.25	-0.09
1.01	15.00	13.50	10.25	11.25	8.00	10.75	0.50	5.75	1.50	1.00	0.75	1.25	3.25	1.25	1.00	0.50	-0.144043	0.114258	0.955566	-16.379999	10.710000	-0.210000	1006.00	-0.20	-0.10	11.50	9.75	9.00	10.25	4.75	7.25	0.50	2.75	0.00	0.50	0.25	0.25	1.50	0.50	0.00	0.00	-0.133789	0.123535	0.946289	-7.420000	-1.120000	-0.000000	688.00	-0.25	-0.09
1.02	14.75	13.00	10.25	11.25	8.00	10.75	0.75	5.75	1.50	1.00	0.75	1.50	3.25	1.50	0.75	0.75	-0.136230	0.105469	0.940918	-16.030001	10.850000	0.000000	1006.00	-0.19	-0.10	11.75	10.00	9.00	10.50	5.00	7.75	0.75	3.00	0.00	0.25	0.25	0.50	1.75	0.75	0.25	0.00	-0.133301	0.118652	0.969238	-8.190000	-0.980000	-0.140000	722.00	-0.24	-0.09
1.03	14.25	13.25	10.00	11.00	8.00	10.75	0.75	6.00	1.75	1.00	0.50	1.25	2.75	1.50	0.75	0.50	-0.123047	0.112793	0.915039	-16.940001	11.550000	-0.210000	993.00	-0.20	-0.10	11.50	10.00	9.00	10.50	5.25	7.75	0.75	3.50	0.00	0.50	0.50	0.50	1.75	0.75	0.00	0.00	-0.144531	0.112305	0.969727	-7.070000	-1.610000	-0.140000	733.00	-0.23	-0.10
1.04	13.50	12.75	9.75	11.00	8.00	10.75	0.75	6.25	1.50	1.25	1.00	1.25	4.00	1.50	1.00	0.75	-0.110840	0.094238	0.909180	-19.879999	13.230000	-0.840000	1001.00	-0.18	-0.11	11.75	10.00	9.00	11.00	5.50	8.00	0.75	4.00	0.25	0.50	0.50	0.50	2.50	0.75	0.25	0.00	-0.140137	0.119629	0.963379	-5.670000	-1.890000	0.070000	770.00	-0.22	-0.10
1.05	13.25	12.00	9.75	10.75	8.25	11.00	0.75	6.75	1.50	1.25	1.00	1.50	4.50	1.50	1.00	1.00	-0.118164	0.096191	0.922363	-22.190001	15.540000	-2.030000	1011.00	-0.18	-0.11	11.00	10.00	9.25	11.25	5.50	8.25	0.75	4.00	0.25	0.50	0.50	0.75	2.75	1.00	0.00	0.00	-0.132324	0.116211	0.967285	-5.040000	-2.170000	0.210000	775.00	-0.22	-0.11
1.06	12.00	11.25	9.25	10.50	8.25	10.75	1.00	7.00	2.00	1.50	1.25	1.75	5.00	1.75	1.00	0.75	-0.123535	0.092773	1.001953	-22.120001	16.730000	-3.080000	1007.00	-0.16	-0.11	11.75	9.75	9.25	11.00	6.00	8.25	0.75	4.50	0.50	0.50	0.50	1.25	2.75	1.00	0.25	0.00	-0.139160	0.116211	0.972168	-4.760000	-2.030000	-0.070000	804.00	-0.21	-0.10
1.07	10.75	10.50	9.00	10.00	8.00	10.75	1.00	7.50	1.75	1.75	1.50	2.25	5.25	1.75	1.25	1.00	-0.147461	0.096680	0.979492	-15.400000	16.590000	-3.360000	996.00	-0.15	-0.12	11.75	9.75	9.25	11.50	6.00	8.75	0.75	5.25	0.25	0.50	0.50	0.75	3.00	1.00	0.25	0.00	-0.146484	0.117188	0.968750	-3.710000	-2.310000	0.070000	822.00	-0.21	-0.11
1.08	9.75	9.50	8.50	9.50	7.75	10.50	1.00	7.50	2.00	1.75	1.75	2.25	6.00	1.75	1.25	1.00	-0.164062	0.089355	1.002930	-1.610000	20.510000	-3.010000	970.00	-0.13	-0.12	11.00	9.50	9.25	10.75	6.25	9.00	0.75	5.50	0.25	1.50	0.75	1.00	4.25	1.50	0.50	0.00	-0.136719	0.125977	0.975586	-2.800000	-2.520000	0.350000	848.00	-0.19	-0.12
1.09	8.75	8.75	8.00	9.00	7.25	10.00	1.00	7.75	3.00	2.25	2.00	3.25	6.50	1.75	1.50	1.50	-0.182129	0.124023	1.012207	3.710000	23.799999	-3.710000	977.00	-0.11	-0.13	12.75	10.00	9.25	11.50	6.50	9.25	0.75	6.00	0.25	0.50	0.50	1.25	4.25	1.00	0.50	0.00	-0.139160	0.122070	0.973633	-1.960000	-2.730000	0.560000	880.00	-0.20	-0.12
1.10	7.50	8.00	7.50	8.50	6.50	9.75	1.00	7.75	2.25	1.50	1.00	1.75	5.75	0.75	0.50	0.50	-0.136230	0.106445	0.998047	8.750000	27.580000	-4.410000	849.00	-0.13	-0.14	11.75	10.75	9.75	12.00	6.75	9.25	0.75	6.25	0.50	0.75	0.50	1.00	4.50	1.00	0.75	0.00	-0.142090	0.126465	0.962891	-1.750000	-2.660000	0.560000	905.00	-0.20	-0.12
1.11	5.25	5.75	5.50	6.50	4.25	8.00	0.75	6.75	0.75	1.00	1.25	2.25	6.25	0.50	0.50	0.50	-0.215820	0.152344	1.017090	12.530000	32.410000	-5.530000	668.00	-0.12	-0.17	13.50	13.50	11.25	13.75	7.75	11.00	1.25	7.00	0.50	1.75	1.75	2.25	6.50	2.50	1.75	1.00	-0.136230	0.127441	0.969727	-1.680000	-2.730000	0.910000	1135.00	-0.16	-0.12
1.12	4.25	4.75	4.75	5.75	3.00	7.25	0.50	6.50	1.50	1.25	1.75	2.75	6.50	1.00	0.50	1.25	0.029785	0.235840	0.977539	18.690001	38.080002	-7.840000	633.00	-0.08	-0.17	14.50	13.75	12.00	15.00	8.25	11.75	1.25	7.50	1.75	2.00	1.75	2.75	6.75	2.50	1.75	1.25	-0.143066	0.125000	0.961914	-2.100000	-3.570000	1.400000	1227.00	-0.16	-0.12
1.13	3.00	3.75	3.50	4.50	1.75	5.50	0.25	5.50	0.75	1.25	2.00	3.25	6.75	0.75	0.75	1.75	-0.290039	0.224121	1.051270	29.750000	49.490002	-10.080000	525.00	-0.06	-0.20	16.50	15.00	12.50	15.50	8.50	12.25	1.25	7.50	1.75	2.00	2.00	2.50	7.00	2.50	1.75	1.00	-0.139648	0.117188	0.966309	-2.240000	-3.570000	1.750000	1284.00	-0.17	-0.11
1.14	4.00	5.00	4.25	4.75	1.25	4.00	0.00	4.25	0.50	1.00	1.75	3.75	6.75	0.75	1.00	2.00	0.008789	0.544434	1.281738	60.830002	79.029999	-20.020000	514.00	-0.08	-0.19	17.00	15.50	12.75	15.75	9.00	12.50	1.25	7.75	2.00	2.00	2.00	2.75	7.25	2.75	2.25	1.25	-0.134766	0.122070	0.963867	-2.240000	-3.570000	1.960000	1332.00	-0.16	-0.11
1.15	2.50	2.50	2.25	2.75	1.00	3.00	0.00	2.25	0.50	0.75	3.00	5.00	8.00	2.00	2.50	3.00	-0.195801	0.253418	1.337402	107.730003	176.960007	-26.180000	447.00	0.04	-0.20	17.25	15.75	13.00	16.25	9.25	13.00	1.25	8.00	1.75	2.00	2.00	3.00	7.50	2.75	2.25	1.25	-0.127930	0.122559	0.968750	-2.030000	-3.640000	1.960000	1361.00	-0.16	-0.11
1.16	3.75	3.75	3.25	4.00	1.50	4.50	0.00	2.75	1.50	2.00	3.00	3.00	7.50	2.50	2.50	3.50	-0.141602	0.067871	1.697266	118.720001	248.149994	-32.689999	542.00	-0.00	-0.16	17.50	16.25	13.00	16.50	9.50	13.50	1.25	8.25	2.00	2.00	2.00	3.00	8.00	2.50	2.25	1.50	-0.125977	0.119629	0.969727	-1.610000	-3.080000	1.960000	1393.00	-0.16	-0.12
1.17	3.75	3.75	3.00	4.25	1.50	4.00	0.00	2.25	1.00	1.75	2.75	4.00	6.75	1.75	2.50	3.25	-0.213379	0.511719	1.487793	107.520004	287.209991	-38.920002	510.00	-0.01	-0.16	17.75	16.50	13.25	16.50	9.75	14.00	1.25	8.25	1.75	2.00	2.25	3.00	8.25	2.75	2.25	1.50	-0.124023	0.115723	0.969238	-0.980000	-2.520000	2.100000	1414.00	-0.16	-0.12
1.18	3.25	3.75	3.50	4.00	1.50	4.00	0.00	2.50	0.75	1.50	2.50	3.75	5.50	2.25	2.00	2.75	-0.421875	0.360352	1.764160	96.180000	314.440002	-44.099998	484.00	-0.02	-0.16	17.75	16.75	13.25	16.50	9.75	13.75	1.25	8.50	1.75	1.75	2.00	2.75	8.50	2.25	2.25	1.50	-0.125488	0.128418	0.968750	-0.770000	-1.890000	2.100000	1407.00	-0.16	-0.12
1.19	3.75	3.50	3.00	3.75	1.25	3.25	0.00	1.75	0.75	1.25	2.25	3.00	5.00	1.25	1.75	2.00	-0.213867	0.339844	1.898926	98.910004	318.920013	-42.490002	418.00	-0.04	-0.15	18.00	16.50	13.25	17.00	10.00	14.50	1.25	8.50	2.25	2.25	2.00	3.25	8.75	2.75	2.25	2.00	-0.127930	0.129395	0.970215	-1.120000	-1.400000	1.750000	1454.00	-0.16	-0.12
1.20	3.25	2.25	2.75	3.25	1.25	2.75	0.00	1.50	0.75	1.25	1.75	2.50	3.50	1.00	1.25	1.50	-0.296875	0.553223	1.733887	104.860001	304.290009	-40.880001	344.00	-0.05	-0.14	18.00	16.75	13.25	17.25	10.00	14.50	1.25	8.50	2.00	2.00	2.25	3.25	8.75	2.75	2.25	1.50	-0.126953	0.126465	0.976562	-1.120000	-1.120000	1.260000	1453.00	-0.16	-0.12
1.21	3.50	3.75	3.25	3.75	1.00	3.25	0.00	1.50	0.75	0.75	2.00	2.50	3.00	1.50	1.00	1.00	-0.411621	0.647461	2.047852	130.479996	288.049988	-52.779999	368.00	-0.08	-0.13	17.75	17.25	13.50	17.50	10.25	14.75	1.25	8.75	2.25	2.25	2.00	3.50	9.00	2.75	2.25	1.50	-0.130371	0.122070	0.963867	-0.840000	-0.840000	0.910000	1480.00	-0.16	-0.12
1.22	3.50	3.75	3.50	3.25	1.25	3.00	0.00	1.00	0.75	1.00	1.50	2.00	2.25	1.00	1.00	0.75	0.983398	-0.125000	1.536621	136.570007	258.019989	-70.840004	335.00	-0.10	-0.11	17.75	17.50	13.50	17.50	10.50	15.00	1.25	8.75	2.25	2.25	2.25	3.50	9.50	2.75	2.25	1.50	-0.127441	0.124023	0.977539	-0.560000	-0.420000	0.840000	1496.00	-0.16	-0.12
1.23	3.25	3.00	3.00	3.50	1.25	3.00	0.00	1.50	1.50	1.25	1.50	1.75	2.25	1.00	1.00	0.75	0.936523	0.187012	2.136230	23.309999	135.800003	-100.940002	341.00	-0.08	-0.11	18.75	17.50	13.50	17.50	10.50	15.00	1.25	8.75	2.25	2.25	2.25	3.75	9.50	2.75	2.50	1.75	-0.123047	0.120605	0.966797	-0.420000	0.000000	0.910000	1515.00	-0.16	-0.12
1.24	3.50	3.25	3.00	3.50	1.25	2.50	0.00	0.50	1.25	0.75	1.75	2.25	2.00	1.50	1.25	0.75	1.855957	0.497070	2.184570	-31.290001	43.049999	-92.540001	328.00	-0.08	-0.09	18.00	17.50	13.50	17.25	10.50	15.00	1.50	9.00	2.00	2.50	2.50	4.00	9.50	3.00	2.50	1.75	-0.120117	0.129883	0.964355	-0.490000	1.190000	0.630000	1519.00	-0.15	-0.12
1.25	2.75	3.25	3.00	3.00	1.50	2.75	0.00	1.00	0.75	1.00	1.25	1.75	2.25	1.00	0.75	0.75	1.719727	0.645996	0.941406	-39.619999	-19.600000	-83.510002	304.00	-0.09	-0.12	18.00	17.25	13.25	17.25	10.50	15.00	1.25	9.00	2.25	2.25	2.50	4.00	10.00	3.00	2.50	2.25	-0.122070	0.125977	0.968262	-0.770000	1.610000	0.420000	1517.00	-0.15	-0.12
1.26	2.75	4.25	3.50	3.25	1.25	2.75	0.25	1.25	1.00	1.00	1.00	1.75	2.25	1.00	0.50	0.75	1.586426	0.594727	0.693359	-35.770000	-44.099998	-73.010002	326.00	-0.11	-0.11	17.75	16.75	13.25	17.25	10.50	15.00	1.50	9.00	2.00	2.25	2.25	4.00	10.25	3.00	2.50	1.75	-0.131348	0.120117	0.960938	-0.840000	1.750000	0.350000	1507.00	-0.15	-0.12
1.27	3.75	2.50	3.00	3.25	1.25	2.75	0.25	1.75	1.25	1.00	1.00	1.25	2.50	0.50	0.50	0.50	1.637695	0.680664	0.758301	-30.520000	-61.320000	-58.029999	316.00	-0.11	-0.11	17.50	17.00	13.00	17.00	10.50	15.25	1.50	9.25	2.25	2.50	2.50	4.50	10.25	3.00	2.50	1.75	-0.122070	0.122559	0.954102	-0.560000	1.610000	0.490000	1522.00	-0.14	-0.12
1.28	2.75	2.50	2.00	0.75	0.25	0.25	0.00	0.00	0.00	0.00	0.00	0.00	0.00	0.00	0.00	0.00	1.647461	0.688477	0.952148	-26.530001	-88.830002	-39.200001	96.00	-0.34	-0.01	17.50	17.00	13.25	17.25	10.50	15.50	1.50	9.25	2.25	2.50	2.75	4.50	10.50	2.75	2.50	1.75	-0.125488	0.124023	0.962891	-0.560000	1.540000	0.560000	1534.00	-0.14	-0.12
1.29	1.50	1.25	1.50	0.50	0.25	0.25	0.00	0.00	0.00	0.00	0.00	0.00	0.00	0.00	0.00	0.00	1.584473	0.652344	0.941895	-23.799999	-121.660004	-19.950001	60.00	-0.33	-0.01	17.50	16.75	13.00	17.25	10.75	15.50	1.50	9.50	2.25	2.50	2.75	4.50	10.75	3.00	2.75	2.00	-0.122070	0.126953	0.955566	-1.190000	1.610000	0.700000	1545.00	-0.14	-0.13
1.30	1.25	1.25	1.50	0.25	0.25	0.25	0.00	0.00	0.00	0.00	0.00	0.00	0.00	0.00	0.00	0.00	1.404297	0.611816	0.935547	-19.110001	-152.740005	-3.500000	54.00	-0.32	-0.00	17.00	16.50	13.00	17.25	11.00	15.50	1.50	9.50	2.00	2.50	2.75	4.50	10.75	3.25	2.50	2.00	-0.125977	0.125977	0.951660	-2.100000	1.540000	0.490000	1536.00	-0.14	-0.13
1.31	0.25	1.00	1.00	1.00	0.25	0.25	0.00	0.00	0.00	0.00	0.00	0.00	0.00	0.00	0.00	0.00	1.219238	0.561035	0.940430	-12.320000	-179.479996	8.540000	43.00	0.00	0.00	17.00	16.75	13.25	17.00	11.00	15.75	1.50	9.50	2.25	2.50	2.75	5.75	11.00	3.25	2.75	2.00	-0.122070	0.125488	0.951660	-3.290000	1.190000	0.420000	1565.00	-0.14	-0.13
1.32	0.75	1.00	1.00	0.50	0.50	0.50	0.00	0.00	0.00	0.00	0.00	0.00	0.00	0.00	0.00	0.00	1.009277	0.514160	0.964844	-3.640000	-202.160004	16.520000	49.00	0.00	0.00	17.00	16.25	13.25	17.25	11.25	15.75	1.50	9.75	2.25	2.50	3.00	5.75	11.25	3.25	2.75	2.25	-0.125000	0.126465	0.963379	-4.340000	0.980000	0.350000	1576.00	-0.13	-0.13
1.33	0.50	1.00	1.00	0.75	0.25	0.00	0.00	0.00	0.25	0.00	0.00	0.00	0.00	0.00	0.00	0.00	0.789551	0.463867	1.012207	6.090000	-221.270004	21.980000	44.00	0.00	0.00	16.75	16.50	13.50	17.25	11.50	16.25	1.50	9.75	2.25	2.75	3.25	6.50	11.50	3.50	2.75	2.25	-0.118652	0.128906	0.956543	-4.340000	0.700000	0.560000	1607.00	-0.13	-0.13
1.34	0.75	0.75	1.00	0.25	0.00	0.00	0.00	0.00	0.00	0.00	0.00	0.00	0.00	0.00	0.00	0.00	0.556152	0.425293	1.040527	16.170000	-236.949997	25.620001	31.00	0.00	0.00	16.50	16.25	13.25	17.25	11.75	16.25	1.75	9.75	2.75	2.75	3.00	6.75	11.75	3.50	3.00	2.75	-0.122070	0.127930	0.956543	-4.270000	0.840000	0.350000	1621.00	-0.12	-0.13
1.35	0.50	0.25	0.75	0.75	0.25	0.00	0.00	0.00	0.00	0.00	0.00	0.00	0.00	0.00	0.00	0.00	0.366211	0.433105	1.074219	24.710001	-247.449997	29.260000	29.00	0.00	0.00	16.25	16.00	13.25	17.25	12.00	16.25	1.75	10.00	2.75	2.75	3.25	7.25	12.00	3.75	3.00	2.50	-0.115723	0.122070	0.963379	-3.920000	1.400000	0.420000	1635.00	-0.12	-0.13
1.36	0.75	0.50	0.50	0.00	0.00	0.00	0.00	0.00	0.00	0.00	0.00	0.00	0.00	0.00	0.00	0.00	0.161621	0.508301	1.094238	26.809999	-253.540009	38.080002	20.00	0.00	0.00	16.00	15.50	12.75	17.00	11.75	16.00	1.75	10.00	3.00	2.75	3.25	7.50	12.25	3.50	3.75	3.00	-0.118164	0.122070	0.953613	-2.870000	3.640000	0.350000	1630.00	-0.11	-0.13
1.37	1.00	0.50	0.75	0.25	0.00	0.00	0.00	0.00	0.00	0.00	0.00	0.00	0.00	0.00	0.00	0.00	-0.265625	0.757812	1.059082	29.540001	-250.880005	75.739998	28.00	0.00	0.00	15.25	15.00	12.75	16.50	12.00	16.25	1.75	10.25	3.00	3.25	3.75	7.75	12.50	4.00	3.50	3.00	-0.117188	0.120605	0.969727	-2.870000	4.970000	0.070000	1639.00	-0.10	-0.13
1.38	0.50	0.75	0.75	0.25	0.00	0.25	0.00	0.00	0.00	0.00	0.00	0.00	0.00	0.00	0.00	0.00	-0.530273	0.825684	1.077637	38.990002	-241.009995	96.250000	28.00	0.00	0.00	14.50	14.50	12.25	16.25	11.75	16.25	1.75	10.25	3.00	3.25	4.00	8.00	13.00	4.25	3.50	3.25	-0.122559	0.129883	0.974121	-3.010000	6.510000	0.070000	1628.00	-0.10	-0.13
1.39	1.00	0.50	1.00	1.25	0.00	0.00	0.00	0.00	0.00	0.00	0.00	0.00	0.00	0.00	0.00	0.00	-0.815430	0.862793	1.213867	50.400002	-229.880005	115.779999	44.00	0.00	0.00	13.00	13.50	12.00	15.75	11.75	16.00	2.00	10.25	3.00	3.50	4.25	8.25	13.25	4.50	3.75	3.50	-0.125977	0.131836	0.968262	-3.150000	8.190000	-0.350000	1610.00	-0.09	-0.14
1.40	0.50	0.50	1.00	0.25	0.00	0.00	0.00	0.00	0.00	0.00	0.00	0.00	0.00	0.00	0.00	0.00	-1.100098	0.816406	1.406250	62.930000	-221.690002	133.490005	26.00	0.00	0.00	12.75	12.75	11.25	15.50	11.50	15.75	2.00	10.25	3.25	3.75	5.00	8.50	13.50	4.75	4.25	4.00	-0.132324	0.127441	0.963867	-3.010000	9.590000	-0.630000	1613.00	-0.08	-0.14
1.41	0.50	0.25	0.75	0.00	0.00	0.00	0.00	0.00	0.00	0.00	0.00	0.00	0.00	0.00	0.00	0.00	-1.445312	0.659668	1.439453	71.889999	-216.720001	149.449997	17.00	0.00	0.00	11.25	11.75	10.75	14.75	11.25	15.50	2.00	10.25	3.25	4.00	5.75	8.75	13.75	5.00	4.25	4.25	-0.120605	0.133789	0.963867	-3.080000	11.060000	-0.700000	1585.00	-0.06	-0.14
1.42	0.00	0.00	0.50	0.25	0.00	0.00	0.00	0.00	0.00	0.00	0.00	0.00	0.00	0.00	0.00	0.00	-1.852051	0.367676	1.274902	78.400002	-209.509995	163.589996	9.00	0.00	0.00	10.25	10.75	10.25	14.25	11.00	15.25	2.25	10.25	3.25	4.25	6.25	9.25	14.00	5.00	4.75	4.25	-0.121582	0.123535	0.961914	-3.290000	12.460000	-1.050000	1573.00	-0.05	-0.14
1.43	0.75	1.25	1.50	1.00	0.50	1.25	0.00	0.25	0.50	0.00	0.25	0.50	0.25	0.25	0.50	0.25	-2.386719	0.050781	1.162598	81.550003	-193.830002	167.300003	104.00	-0.12	-0.09	9.25	9.50	9.75	13.75	10.50	14.75	2.00	10.25	3.75	4.50	7.25	9.50	14.25	5.50	4.75	4.50	-0.122559	0.125000	0.959961	-3.430000	13.720000	-1.540000	1553.00	-0.04	-0.14
1.44	1.00	1.75	1.50	0.75	0.25	1.00	0.00	0.25	0.75	0.50	0.00	0.75	0.25	0.75	0.75	0.25	-2.895020	-0.228027	0.946777	68.180000	-169.889999	157.080002	120.00	-0.07	-0.06	8.25	8.25	8.75	12.50	10.50	14.50	2.00	10.25	4.00	5.25	7.75	9.75	14.50	6.00	5.25	5.00	-0.131348	0.120117	0.960449	-3.290000	14.980000	-1.400000	1536.00	-0.02	-0.14
1.45	2.00	1.75	2.00	1.25	0.50	1.50	0.25	1.00	0.75	0.25	0.50	0.75	1.25	1.25	0.50	0.50	-3.288574	-0.427734	0.732910	44.029999	-143.220001	133.910004	184.00	-0.08	-0.09	7.25	7.50	8.25	11.75	9.75	13.00	2.00	9.50	3.00	4.50	7.50	9.25	13.25	5.50	4.25	5.00	-0.139160	0.126465	0.965332	-3.570000	16.450001	-0.980000	1403.00	-0.02	-0.15
1.46	1.75	1.75	1.75	1.75	0.75	1.50	0.00	0.50	0.75	0.50	0.50	0.50	0.75	1.00	0.50	0.50	-3.493652	-0.512695	0.436523	14.910000	-114.800003	95.620003	168.00	-0.09	-0.08	6.75	6.50	7.50	10.25	9.00	13.00	2.00	9.75	5.00	6.50	8.00	10.50	15.00	5.75	4.75	4.75	-0.126465	0.137695	0.966797	-3.080000	18.129999	-1.750000	1450.00	0.00	-0.14
1.47	1.75	2.00	1.25	1.75	0.50	1.50	0.00	0.50	1.00	0.50	0.25	0.75	0.75	0.50	0.50	0.00	-3.537598	-0.450195	0.107910	-9.100000	-84.070000	43.400002	157.00	-0.11	-0.09	4.50	5.00	6.00	9.25	8.75	12.50	2.00	9.75	3.75	6.00	8.00	10.00	14.00	6.75	5.00	5.25	-0.135742	0.116699	0.971680	-2.800000	20.370001	-3.010000	1346.00	0.02	-0.15
1.48	1.25	2.00	2.00	1.50	0.75	1.25	0.00	0.50	0.50	0.00	0.00	0.50	0.00	0.50	0.50	0.25	-3.432129	-0.237793	-0.140137	-19.180000	-47.880001	-15.400000	134.00	-0.16	-0.08	5.25	4.00	5.75	8.00	7.25	9.75	1.75	9.25	4.00	7.00	8.50	11.00	14.75	8.50	7.00	5.25	-0.166504	0.130859	0.984375	-2.800000	26.389999	-3.990000	1342.00	0.05	-0.14
1.49	1.50	2.25	1.75	1.50	0.50	0.00	0.00	0.00	0.00	0.00	0.00	0.00	0.00	0.00	0.00	0.00	-4.112793	-1.280762	0.067383	-134.399994	52.570000	-58.939999	85.00	-0.33	-0.04	3.00	2.75	4.00	6.00	6.25	9.25	1.50	9.00	4.50	7.25	9.00	10.75	14.50	8.25	6.50	6.00	-0.164551	0.140625	1.009766	-2.870000	32.200001	-4.410000	1239.00	0.08	-0.15
1.50	3.00	3.75	1.75	1.75	0.25	0.00	0.00	0.00	0.00	0.00	0.00	0.00	0.00	0.00	0.00	0.00	-0.362305	0.880859	0.043945	-251.649994	169.119995	-104.790001	117.00	-0.35	-0.04	2.00	2.25	2.50	5.00	4.75	8.00	1.50	8.50	5.00	7.50	9.25	11.00	14.75	9.00	7.25	6.50	-0.051270	0.195312	1.050781	-3.080000	40.810001	-2.940000	1188.00	0.11	-0.15
1.51	7.00	7.75	4.25	5.25	0.50	0.00	0.00	0.00	0.00	0.00	0.00	0.00	0.00	0.00	0.00	0.00	0.594727	1.354980	2.820801	-142.100006	200.410004	-65.449997	278.00	-0.35	-0.05	2.25	1.75	2.50	4.25	3.75	7.00	1.50	8.25	5.50	7.75	10.00	11.25	14.50	10.00	7.25	7.00	-0.169922	0.123047	1.039551	-1.050000	53.060001	-3.360000	1180.00	0.12	-0.14
1.52	12.00	11.50	7.25	8.50	1.75	3.75	0.00	0.25	0.75	0.00	0.25	1.25	0.25	0.75	0.00	0.00	-0.213867	-0.384766	0.260742	-42.420002	178.360001	-9.520000	549.00	-0.28	-0.06	2.00	1.25	1.75	3.25	2.50	5.50	1.25	7.50	6.00	8.00	10.25	11.50	14.25	11.25	8.00	7.25	-0.233887	0.055176	1.083984	-1.120000	65.940002	-4.060000	1137.00	0.15	-0.14
1.53	11.25	11.00	7.75	8.50	2.00	5.00	0.00	0.50	0.00	0.25	0.75	0.50	0.25	0.00	0.00	0.00	-0.969238	0.088867	3.420410	-51.450001	274.049988	-39.410000	546.00	-0.29	-0.07	1.50	1.00	1.25	2.50	1.50	4.75	1.00	6.50	6.50	8.25	10.50	11.50	13.75	12.50	8.25	7.50	-0.148926	0.204102	1.194336	7.350000	91.279999	-8.610000	1096.00	0.17	-0.13
1.54	11.75	12.25	8.50	9.25	3.00	7.50	0.50	1.25	0.50	0.00	0.00	0.25	0.50	0.50	0.50	0.75	-0.847168	0.294434	2.968750	-48.509998	121.870003	-21.420000	655.00	-0.26	-0.08	1.00	1.00	1.00	2.00	1.00	3.25	0.75	5.25	7.00	8.00	10.50	11.25	13.00	14.00	8.50	7.50	-0.203613	0.180176	1.226562	17.290001	135.240005	-16.240000	1044.00	0.20	-0.12
1.55	13.25	12.25	7.75	8.50	2.50	6.75	0.25	0.75	0.00	0.00	0.00	0.00	0.00	0.00	0.25	0.00	-0.248047	0.282227	0.820801	-16.660000	21.210001	0.560000	600.00	-0.30	-0.07	0.50	0.50	1.00	1.75	0.75	2.00	0.50	3.50	7.00	8.00	10.50	11.00	12.25	15.25	8.75	7.50	-0.178223	0.310059	1.325195	36.400002	178.220001	-28.139999	983.00	0.22	-0.10
1.56	12.00	11.00	7.75	9.00	4.50	8.00	0.25	1.50	0.25	0.00	0.00	0.75	1.00	0.00	0.00	0.00	0.291504	0.006836	0.487793	-22.190001	47.180000	5.390000	649.00	-0.27	-0.09	0.50	0.25	0.25	1.25	0.50	1.50	0.25	2.25	7.00	7.75	10.50	10.75	11.25	16.25	9.00	7.50	-0.212891	0.218750	1.365723	38.430000	221.899994	-36.820000	929.00	0.24	-0.09
1.57	12.00	12.25	9.00	10.75	5.75	9.25	0.50	3.50	0.00	0.00	0.00	0.00	0.75	0.00	0.00	0.00	-0.010742	-0.028809	1.133301	-54.040001	57.750000	-6.650000	750.00	-0.26	-0.10	0.25	0.25	0.50	1.25	0.50	1.00	0.00	1.50	6.75	7.50	10.50	10.25	10.25	17.25	9.00	7.25	-0.404297	0.251953	1.181641	39.689999	262.290009	-47.250000	893.00	0.25	-0.08
1.58	10.50	11.75	8.50	10.25	6.50	10.50	0.50	5.50	1.50	0.50	0.50	1.25	1.75	0.25	0.00	0.00	-0.389648	0.331055	1.317383	-57.400002	39.830002	-11.410000	833.00	-0.21	-0.11	0.00	0.00	0.00	1.00	0.50	1.00	0.00	1.50	6.25	6.75	10.25	9.50	9.25	17.75	8.75	6.75	-0.323730	0.250488	1.554688	19.809999	285.110016	-51.450001	840.00	0.26	-0.08
1.59	11.25	13.50	10.00	11.50	7.25	11.25	0.50	6.75	1.25	1.00	0.50	1.25	3.75	1.50	1.25	0.75	-0.325195	0.382812	1.099609	-42.700001	22.750000	-2.030000	982.00	-0.18	-0.12	0.25	0.00	0.00	0.50	0.25	0.50	0.00	0.75	5.75	6.00	10.00	9.00	8.00	18.00	9.00	6.25	-0.345215	0.296387	1.277344	6.720000	304.149994	-58.730000	782.00	0.28	-0.06
1.60	12.00	12.75	9.25	11.75	7.50	11.75	0.75	7.25	1.25	0.50	0.75	1.50	4.00	1.25	1.00	1.00	-0.062988	0.110840	0.999023	-42.560001	14.560000	1.750000	997.00	-0.18	-0.12	0.00	0.00	0.25	0.00	0.00	0.25	0.00	0.25	5.25	5.25	9.50	8.25	7.00	18.00	8.50	5.50	-0.501465	0.418457	1.595215	-27.090000	352.239990	-76.300003	712.00	0.29	-0.05
1.61	16.75	15.75	11.00	12.25	8.25	12.50	0.75	7.75	1.50	1.00	0.75	1.50	4.25	1.25	1.00	1.00	-0.094238	0.138184	1.036621	-44.939999	8.680000	-3.640000	1146.00	-0.20	-0.11	0.00	0.00	0.00	0.00	0.00	0.00	0.00	0.25	4.50	4.25	8.75	7.50	5.00	17.50	8.25	4.50	-0.545410	0.415527	1.703613	-26.600000	369.529999	-87.010002	634.00	0.30	-0.04
1.62	17.25	15.75	11.25	12.25	8.75	12.25	0.50	7.50	0.00	0.50	0.00	0.50	3.50	0.75	0.75	0.75	-0.152832	0.172363	1.030762	-37.310001	7.000000	-4.340000	1086.00	-0.22	-0.11	0.00	0.00	0.00	0.00	0.00	0.00	0.00	0.25	3.00	3.75	8.00	6.50	3.50	16.50	7.50	2.75	-0.685059	0.331055	1.696777	-38.220001	389.200012	-99.050003	545.00	0.31	-0.04
1.63	17.50	13.75	11.25	12.75	8.50	11.75	0.50	7.75	1.25	0.75	0.00	0.50	3.00	0.00	0.25	0.00	-0.118652	0.118652	1.010742	-26.880001	7.000000	-2.030000	1069.00	-0.22	-0.11	0.00	0.00	0.00	0.00	0.00	0.00	0.00	0.00	1.25	3.00	7.00	5.00	2.50	15.00	6.25	1.00	-0.839844	0.320801	2.129883	-47.040001	406.839996	-107.239998	430.00	0.32	-0.03
1.64	15.50	13.75	9.50	11.25	8.50	11.75	0.75	7.75	0.25	1.25	0.75	1.00	4.50	1.25	0.75	1.00	-0.095703	0.156250	0.955078	-20.790001	6.790000	-1.750000	1054.00	-0.20	-0.12	0.00	0.00	0.00	0.00	0.00	0.00	0.00	0.00	0.75	2.25	5.25	3.50	1.50	13.25	5.00	0.00	-0.742676	0.318359	2.321289	-36.049999	406.350006	-110.389999	331.00	0.32	-0.01
1.65	18.25	16.50	11.75	12.75	10.00	13.50	0.75	8.50	1.50	1.00	1.00	1.75	5.50	1.00	1.00	1.00	-0.107910	0.167480	0.941895	-21.980000	8.680000	-1.540000	1246.00	-0.19	-0.11	0.00	0.00	0.00	0.00	0.00	0.00	0.00	0.00	0.00	1.75	3.50	2.50	0.50	10.75	3.50	0.00	-0.884766	0.122070	2.186523	-38.849998	402.989990	-120.959999	233.00	0.34	0.00
1.66	18.00	16.25	12.00	12.75	10.25	13.50	1.00	8.75	1.75	1.50	1.00	2.00	5.50	1.25	1.00	1.00	-0.121094	0.142578	0.962891	-24.710001	10.430000	-1.120000	1270.00	-0.19	-0.11	0.00	0.00	0.00	0.00	0.00	0.00	0.00	0.00	0.00	1.25	2.25	1.50	0.75	8.50	2.25	0.00	-0.723633	0.583496	2.664551	-38.290001	391.019989	-119.559998	169.00	0.34	0.01
1.67	17.75	16.00	11.75	12.50	10.50	13.75	1.00	8.75	1.50	1.50	1.25	1.75	5.75	1.50	1.00	1.00	-0.118164	0.125977	0.978027	-19.879999	10.500000	0.630000	1265.00	-0.18	-0.11	0.00	0.00	0.00	0.00	0.00	0.00	0.00	0.00	0.00	1.00	1.25	1.25	0.25	6.00	0.75	0.00	-0.229492	0.387207	2.574219	-30.660000	372.540009	-134.610001	107.00	0.34	0.03
1.68	14.50	12.75	11.00	12.50	10.75	13.75	0.75	8.25	0.00	0.50	0.25	1.00	4.50	0.25	0.00	0.00	-0.118652	0.124512	0.982422	-17.150000	10.570000	1.260000	1084.00	-0.21	-0.12	0.00	0.00	0.00	0.00	0.00	0.00	0.00	0.00	0.00	0.50	1.00	0.75	0.00	3.00	0.50	0.00	-0.506836	0.638184	2.292480	-26.740000	348.110016	-141.190002	59.00	0.33	0.02
1.69	17.25	14.25	9.75	11.25	9.75	13.25	1.00	9.00	1.25	1.75	1.50	1.75	6.00	1.75	1.00	1.00	-0.124512	0.119141	0.988281	-15.120000	10.360000	1.540000	1199.00	-0.17	-0.12	0.00	0.00	0.00	0.00	0.00	0.00	0.00	0.00	0.00	0.00	0.25	0.50	0.00	0.75	0.25	0.00	0.061523	0.819824	1.609863	-54.459999	354.619995	-157.850006	18.00	0.00	0.00
1.70	17.00	15.50	11.50	12.50	11.25	14.00	1.00	9.00	1.75	1.75	1.50	2.25	6.25	1.50	1.50	1.25	-0.124512	0.111328	0.972168	-12.530000	9.800000	1.820000	1292.00	-0.17	-0.11	0.00	0.00	0.00	0.00	0.00	0.00	0.00	0.00	0.00	0.00	0.25	0.25	0.00	0.00	0.00	0.00	0.871094	1.130371	1.654785	-43.400002	313.739990	-162.680008	6.00	0.00	0.00
1.71	16.75	15.25	11.25	12.50	11.25	13.75	1.25	9.25	2.00	1.50	1.50	2.00	6.25	1.50	1.00	0.75	-0.115234	0.104980	0.974609	-10.010000	9.800000	1.820000	1278.00	-0.17	-0.11	0.00	0.00	0.00	0.00	0.00	0.00	0.00	0.00	0.00	0.00	0.25	0.00	0.00	0.00	0.00	0.00	1.069824	1.437988	3.600098	4.270000	218.820007	-174.229996	3.00	0.00	0.00
1.72	16.50	15.00	11.00	12.25	11.25	13.75	1.25	9.25	1.75	1.25	1.50	2.25	6.50	1.50	1.25	0.75	-0.111816	0.111816	0.966309	-7.770000	9.940000	1.680000	1268.00	-0.17	-0.12	0.00	0.00	0.00	0.00	0.00	0.00	0.00	0.00	0.00	0.00	0.25	0.00	0.00	0.00	0.00	0.00	2.040039	0.743652	2.070801	36.540001	-91.000000	-126.070000	3.00	0.00	0.00
1.73	15.75	14.50	11.00	12.25	11.25	13.75	1.25	9.50	2.00	2.00	1.50	2.25	6.75	1.50	1.00	1.25	-0.108887	0.111328	0.944824	-6.440000	10.640000	1.470000	1274.00	-0.16	-0.12	0.00	0.00	0.00	0.00	0.00	0.00	0.00	0.00	0.00	0.00	0.00	0.00	0.00	0.00	0.00	0.00	1.534668	0.978027	1.199219	-10.500000	-149.869995	-103.389999	0.00	0.00	0.00
1.74	14.75	14.00	10.75	12.00	11.25	13.75	1.25	9.50	1.75	2.00	1.50	2.50	7.50	1.50	1.00	1.25	-0.110840	0.114746	0.950684	-6.510000	11.830000	0.910000	1258.00	-0.16	-0.12	0.00	0.00	0.00	0.00	0.00	0.00	0.00	0.00	0.00	0.00	0.00	0.00	0.00	0.00	0.00	0.00	1.280762	1.191895	1.027344	-33.320000	-161.070007	-83.370003	0.00	0.00	0.00
1.75	14.50	13.75	10.75	11.75	11.25	13.50	1.25	9.75	1.50	2.00	2.00	2.75	7.75	1.75	1.25	1.25	-0.105469	0.121094	0.964355	-7.350000	12.950000	0.210000	1263.00	-0.15	-0.13	0.00	0.00	0.00	0.00	0.00	0.00	0.00	0.00	0.00	0.00	0.00	0.00	0.00	0.00	0.00	0.00	1.284668	1.397461	0.986816	-11.480000	-165.410004	-64.889999	0.00	0.00	0.00
1.76	14.00	13.50	10.50	11.75	11.00	13.50	1.25	9.75	2.25	2.00	2.00	3.00	8.00	1.75	1.00	1.25	-0.117188	0.118652	0.949219	-7.980000	13.720000	-0.350000	1262.00	-0.15	-0.12	0.00	0.00	0.00	0.00	0.00	0.00	0.00	0.00	0.00	0.00	0.00	0.00	0.00	0.00	0.00	0.00	1.160645	1.327637	1.246094	29.960001	-184.380005	-46.130001	0.00	0.00	0.00
1.77	13.25	12.50	10.00	11.50	11.00	13.25	1.25	9.75	2.25	2.25	2.25	3.25	8.50	1.75	1.25	1.25	-0.115723	0.123535	0.950195	-8.960000	14.560000	-1.260000	1247.00	-0.14	-0.13	0.00	0.00	0.00	0.00	0.00	0.00	0.00	0.00	0.00	0.00	0.00	0.00	0.00	0.00	0.00	0.00	1.071777	1.139160	1.315430	60.130001	-212.240005	-25.059999	0.00	0.00	0.00
1.78	12.25	12.00	9.75	11.00	11.00	13.25	1.50	10.00	2.25	2.50	2.25	3.25	9.25	1.75	1.25	1.50	-0.122559	0.113281	0.950684	-10.150000	15.610000	-1.890000	1242.00	-0.13	-0.13	0.00	0.00	0.00	0.00	0.00	0.00	0.00	0.00	0.00	0.00	0.00	0.00	0.00	0.00	0.00	0.00	0.991211	0.957520	1.332520	65.099998	-241.360001	-0.490000	0.00	0.00	0.00
1.79	11.00	11.25	9.75	11.00	10.75	13.00	1.50	10.00	2.25	2.75	2.25	3.75	9.50	2.00	1.50	1.50	-0.132324	0.112793	0.973145	-10.220000	15.820000	-2.170000	1230.00	-0.12	-0.13	0.00	0.00	0.00	0.00	0.00	0.00	0.00	0.00	0.00	0.00	0.00	0.00	0.00	0.00	0.00	0.00	0.865234	0.900391	1.401855	56.630001	-268.100006	24.219999	0.00	0.00	0.00
1.80	10.75	11.00	9.50	10.75	10.75	13.00	1.75	10.00	2.25	2.75	2.75	4.00	9.75	2.00	1.50	1.50	-0.135254	0.117676	0.954590	-9.730000	15.330000	-2.520000	1234.00	-0.11	-0.13	0.00	0.00	0.00	0.00	0.00	0.00	0.00	0.00	0.00	0.00	0.00	0.00	0.00	0.00	0.00	0.00	0.740234	0.877930	1.433594	52.570000	-293.860016	44.799999	0.00	0.00	0.00
1.81	9.75	10.25	9.25	10.50	10.50	12.75	1.75	10.25	2.75	3.25	3.00	4.50	10.25	2.25	1.50	1.75	-0.137695	0.112305	0.968750	-9.520000	15.190001	-2.310000	1237.00	-0.10	-0.14	0.00	0.00	0.00	0.00	0.00	0.00	0.00	0.00	0.00	0.00	0.00	0.00	0.00	0.00	0.00	0.00	0.555664	0.816895	1.452637	62.930000	-317.869995	59.639999	0.00	0.00	0.00
1.82	9.25	9.75	9.00	10.25	10.50	12.50	1.75	10.25	2.75	3.25	3.25	5.00	10.50	2.25	1.50	2.00	-0.134766	0.104004	0.958008	-7.490000	14.000000	-1.260000	1230.00	-0.09	-0.14	0.00	0.00	0.00	0.00	0.00	0.00	0.00	0.00	0.00	0.00	0.00	0.00	0.00	0.00	0.00	0.00	0.361328	0.724609	1.462402	81.970001	-338.170013	69.090004	0.00	0.00	0.00
1.83	9.00	9.25	8.75	10.00	10.50	12.50	2.00	10.25	3.25	3.25	3.50	5.50	10.75	2.25	1.75	2.25	-0.132812	0.102539	0.952637	-6.440000	13.790000	-1.050000	1243.00	-0.08	-0.14	0.00	0.00	0.00	0.00	0.00	0.00	0.00	0.00	0.00	0.00	0.00	0.00	0.00	0.00	0.00	0.00	0.173340	0.598145	1.473145	101.919998	-352.869995	74.269997	0.00	0.00	0.00
1.84	8.50	8.75	8.75	9.75	10.25	12.50	2.25	10.50	3.25	3.50	4.00	6.50	11.00	2.50	2.00	2.25	-0.141113	0.102539	0.963379	-5.810000	13.580000	-1.050000	1262.00	-0.07	-0.14	0.00	0.00	0.00	0.00	0.00	0.00	0.00	0.00	0.00	0.00	0.00	0.00	0.00	0.00	0.00	0.00	-0.105957	0.357910	1.541504	127.330002	-366.799988	76.090004	0.00	0.00	0.00
1.85	8.00	8.50	8.50	9.50	10.25	12.50	2.50	10.50	3.25	3.50	4.25	7.25	11.50	2.50	2.25	2.75	-0.151855	0.105957	0.962891	-4.690000	13.020000	-1.050000	1274.00	-0.06	-0.14	0.00	0.00	0.00	0.00	0.00	0.00	0.00	0.00	0.00	0.00	0.00	0.00	0.00	0.00	0.00	0.00	-0.220703	0.301758	1.572754	133.139999	-367.850006	73.430000	0.00	0.00	0.00
1.86	7.75	8.25	8.25	9.25	10.00	12.25	2.50	10.50	3.25	4.25	5.00	7.50	11.75	2.75	2.00	3.00	-0.150391	0.101562	0.968262	-3.850000	12.810000	-0.700000	1280.00	-0.05	-0.14	0.00	0.00	0.00	0.00	0.00	0.00	0.00	0.00	0.00	0.00	0.00	0.00	0.00	0.00	0.00	0.00	-0.357910	0.266113	1.643066	141.050003	-365.329987	68.459999	0.00	0.00	0.00
1.87	7.50	8.00	8.00	9.25	10.00	12.50	2.50	10.75	3.75	4.50	5.50	8.00	12.25	2.75	2.25	3.25	-0.150391	0.095703	0.966309	-3.010000	12.670000	-0.350000	1309.00	-0.04	-0.14	0.00	0.00	0.00	0.00	0.00	0.00	0.00	0.00	0.00	0.00	0.00	0.00	0.00	0.00	0.00	0.00	-0.487793	0.253418	1.726074	153.580002	-359.519989	60.200001	0.00	0.00	0.00
1.88	7.00	7.75	8.00	9.00	10.00	12.50	2.50	10.75	3.75	4.75	6.25	8.25	12.75	3.00	2.25	3.50	-0.140625	0.105469	0.966797	-2.520000	12.390000	0.140000	1321.00	-0.03	-0.14	0.00	0.00	0.00	0.00	0.00	0.00	0.00	0.00	0.00	0.00	0.00	0.00	0.00	0.00	0.00	0.00	-0.606445	0.288574	1.812012	167.089996	-351.750000	50.259998	0.00	0.00	0.00
1.89	6.75	7.50	7.75	8.75	9.75	12.25	3.00	11.00	4.25	5.25	6.75	8.50	13.00	3.00	2.25	3.75	-0.146484	0.099609	0.964844	-1.750000	12.250000	0.840000	1341.00	-0.03	-0.14	0.00	0.00	0.00	0.00	0.00	0.00	0.00	0.00	0.00	0.00	0.00	0.00	0.00	0.00	0.00	0.00	-0.804688	0.436035	1.900879	175.490005	-341.390015	44.590000	0.00	0.00	0.00
1.90	6.50	7.25	7.50	8.75	9.75	12.25	2.75	11.00	4.50	6.00	7.50	8.75	13.25	2.75	2.50	4.50	-0.143555	0.100098	0.953125	-1.050000	12.670000	1.540000	1359.00	-0.02	-0.14	0.00	0.00	0.00	0.00	0.00	0.00	0.00	0.00	0.00	0.00	0.00	0.00	0.00	0.00	0.00	0.00	-1.035645	0.531250	1.940918	178.360001	-326.269989	52.430000	0.00	0.00	0.00
1.91	6.25	7.00	7.00	8.50	9.50	12.25	3.00	11.25	4.75	6.50	8.00	9.25	13.75	3.00	2.50	4.75	-0.151367	0.103027	0.955566	-0.000000	13.370000	1.960000	1380.00	-0.01	-0.14	0.00	0.00	0.00	0.00	0.00	0.00	0.00	0.00	0.00	0.00	0.00	0.00	0.00	0.00	0.00	0.00	-1.325195	0.729004	2.153809	178.779999	-310.029999	75.599998	0.00	0.00	0.00
1.92	6.00	6.75	7.00	8.25	9.25	12.25	3.25	11.25	5.00	7.00	8.25	9.75	14.25	3.50	3.25	5.50	-0.146973	0.101074	0.961914	1.050000	14.070000	2.380000	1413.00	0.00	-0.14	0.00	0.00	0.00	0.00	0.00	0.00	0.00	0.00	0.00	0.00	0.00	0.00	0.00	0.00	0.00	0.00	-1.581543	0.986328	2.579590	178.919998	-297.500000	106.959999	0.00	0.00	0.00
1.93	6.00	6.75	6.75	8.25	9.25	12.25	3.25	11.50	5.00	7.50	8.50	10.25	15.00	3.75	3.25	6.00	-0.153320	0.102539	0.950195	2.030000	15.120000	2.730000	1440.00	0.01	-0.14	0.00	0.00	0.00	0.00	0.00	0.00	0.00	0.00	0.00	0.00	0.00	0.00	0.00	0.00	0.00	0.00	-1.973633	1.119141	2.858398	182.490005	-294.279999	139.369995	0.00	0.00	0.00
1.94	5.75	6.50	6.25	8.00	9.00	12.00	3.25	11.50	5.25	7.75	9.00	10.50	15.50	3.75	3.75	6.50	-0.143555	0.107422	0.949219	1.960000	16.450001	2.450000	1448.00	0.02	-0.15	0.00	0.00	0.00	0.00	0.00	0.00	0.00	0.00	0.00	0.00	0.00	0.00	0.00	0.00	0.00	0.00	-2.613770	1.144531	2.802734	189.770004	-296.309998	168.490005	0.00	0.00	0.00
1.95	5.50	6.25	6.00	7.75	8.75	12.00	3.50	11.50	5.75	8.25	9.50	11.00	16.00	4.50	3.75	7.00	-0.135742	0.107910	0.939453	1.120000	17.990000	1.540000	1477.00	0.03	-0.14	0.00	0.00	0.00	0.00	0.00	0.00	0.00	0.00	0.00	0.00	0.00	0.00	0.00	0.00	0.00	0.00	-3.226074	0.890625	2.452148	203.770004	-293.230011	195.789993	0.00	0.00	0.00
1.96	5.50	5.75	5.75	7.75	8.50	11.75	3.50	11.50	6.25	8.75	9.75	11.50	16.50	4.50	4.75	7.75	-0.156250	0.107910	0.978516	-0.000000	20.020000	0.770000	1505.00	0.04	-0.14	0.00	0.00	0.00	0.00	0.00	0.00	0.00	0.00	0.00	0.00	0.00	0.00	0.00	0.00	0.00	0.00	-4.156738	-0.348633	1.310547	223.509995	-242.690002	244.369995	0.00	0.00	0.00
1.97	5.50	5.75	5.75	7.50	8.25	11.50	3.50	11.50	7.00	9.00	10.25	12.00	16.75	5.00	5.25	8.25	-0.134277	0.104980	0.975098	-0.910000	25.620001	-3.150000	1537.00	0.04	-0.14	0.00	0.00	0.00	0.00	0.00	0.00	0.00	0.00	0.00	0.00	0.00	0.00	0.00	0.00	0.00	0.00	-4.331055	-1.249512	0.844727	221.199997	-191.449997	269.709991	0.00	0.00	0.00
1.98	5.00	5.75	5.25	7.00	7.75	11.25	3.50	11.50	7.50	9.50	10.75	12.75	17.25	5.75	5.75	8.75	-0.158203	0.124512	0.971191	-1.610000	29.400000	-4.410000	1558.00	0.06	-0.14	0.00	0.00	0.00	0.00	0.00	0.00	0.00	0.00	0.00	0.00	0.00	0.00	0.00	0.00	0.00	0.00	-4.525391	-2.064453	0.698242	204.119995	-135.800003	280.350006	0.00	0.00	0.00
1.99	5.00	5.50	5.25	6.75	7.25	10.75	3.25	11.50	8.00	10.00	11.25	13.25	17.75	6.50	6.25	9.50	-0.175781	0.109375	0.996582	-0.840000	33.599998	-4.970000	1582.00	0.07	-0.14	0.00	0.00	0.00	0.00	0.00	0.00	0.00	0.00	0.00	0.00	0.00	0.00	0.00	0.00	0.00	0.00	-4.568359	-2.502930	0.499023	142.660004	-88.760002	250.180008	0.00	0.00	0.00
2.00	4.75	5.25	5.00	6.25	6.75	10.25	3.00	11.25	8.25	10.50	11.75	13.50	18.00	7.50	6.50	10.25	-0.177246	0.111816	1.004883	0.350000	38.500000	-5.250000	1585.00	0.08	-0.14	0.00	0.00	0.00	0.00	0.00	0.00	0.00	0.00	0.00	0.00	0.00	0.00	0.00	0.00	0.00	0.00	-4.421875	-2.361816	0.136719	66.639999	-52.009998	177.660004	0.00	0.00	0.00
2.01	4.75	5.00	4.00	5.75	5.75	9.75	2.75	10.75	8.50	11.00	12.25	14.00	18.50	8.25	7.50	11.25	-0.156250	0.133789	1.010254	2.940000	44.869999	-6.300000	1583.00	0.09	-0.14	0.00	0.00	0.00	0.00	0.00	0.00	0.00	0.00	0.00	0.00	0.00	0.00	0.00	0.00	0.00	0.00	-4.369141	-1.957520	-0.045898	27.790001	-16.730000	78.750000	0.00	0.00	0.00
2.02	2.50	3.50	2.50	4.75	4.75	8.50	2.25	10.50	8.75	11.00	11.75	13.75	18.50	8.75	7.75	11.50	-0.215332	0.138184	1.019043	7.210000	55.790001	-6.580000	1477.00	0.12	-0.14	0.00	0.00	0.00	0.00	0.00	0.00	0.00	0.00	0.00	0.00	0.00	0.00	0.00	0.00	0.00	0.00	-4.080566	-1.518066	-0.029785	21.910000	22.400000	-18.760000	0.00	0.00	0.00
2.03	3.00	4.75	3.00	4.75	3.00	7.75	1.50	9.75	8.75	10.75	12.00	13.50	17.50	9.00	7.50	12.00	-0.180176	0.131836	1.032715	13.230000	67.550003	-7.490000	1437.00	0.12	-0.14	0.00	0.00	0.00	0.00	0.00	0.00	0.00	0.00	0.00	0.00	0.00	0.00	0.00	0.00	0.00	0.00	-3.578613	-1.183105	0.197266	22.540001	57.260002	-81.970001	0.00	0.00	0.00
2.04	3.25	4.50	3.50	5.00	3.00	7.75	1.25	9.25	9.25	11.75	13.25	15.25	19.00	11.25	9.00	14.00	-0.227051	0.103516	1.020020	18.270000	80.360001	-7.490000	1551.00	0.13	-0.14	0.00	0.00	0.00	0.00	0.00	0.00	0.00	0.00	0.00	0.00	0.00	0.00	0.00	0.00	0.00	0.00	-0.933105	-1.088379	-0.377441	1.400000	86.519997	-97.930000	0.00	0.00	0.00
2.05	2.25	1.75	2.75	4.25	1.50	7.25	0.75	8.75	9.50	12.25	13.50	15.25	18.75	12.25	9.25	14.75	-0.239746	0.143066	1.101074	33.320000	100.029999	-9.660000	1480.00	0.16	-0.14	1.50	1.25	1.00	0.75	0.00	0.00	0.00	0.00	0.00	0.00	0.00	0.00	0.00	0.00	0.00	0.00	1.015625	-0.173340	1.553711	-209.580002	178.639999	-51.799999	51.00	-0.35	-0.02
2.06	3.25	4.25	3.00	4.75	2.00	6.50	0.50	8.00	9.50	12.25	13.75	15.50	18.50	13.25	10.00	15.50	-0.242676	0.149414	1.174316	43.680000	129.500000	-9.660000	1531.00	0.15	-0.13	3.75	4.50	1.75	2.50	0.00	0.00	0.00	0.00	0.00	0.00	0.00	0.00	0.00	0.00	0.00	0.00	1.339844	1.002441	1.473145	-183.750000	165.550003	-9.800000	139.00	-0.36	-0.06
2.07	2.75	3.00	2.50	4.25	1.75	6.00	0.25	6.75	9.25	11.75	13.00	14.25	16.75	13.00	9.25	14.50	-0.339844	0.174316	1.094727	59.570000	157.990005	-12.180000	1402.00	0.16	-0.13	8.25	10.00	3.75	5.75	0.00	0.00	0.00	0.00	0.00	0.00	0.00	0.00	0.00	0.00	0.00	0.00	0.827637	-0.500488	0.097168	-155.330002	137.059998	19.809999	309.00	-0.36	-0.06
2.08	2.25	3.00	2.00	2.25	1.00	5.25	0.00	5.00	8.50	11.25	13.00	14.00	16.50	13.75	9.75	15.00	-0.250977	0.182617	1.227539	73.080002	193.970001	-15.470000	1309.00	0.18	-0.13	14.50	16.75	7.25	9.25	0.25	1.25	0.00	0.00	0.00	0.00	0.00	0.50	0.00	0.00	0.00	0.00	-1.418457	-1.249512	4.626953	-135.380005	338.799988	-50.259998	556.00	-0.35	-0.06
2.09	1.75	2.00	2.75	3.50	1.00	5.25	0.00	4.75	8.25	11.00	13.75	15.25	17.00	16.75	10.25	15.25	-0.345703	0.176270	1.141602	72.169998	228.830002	-15.260000	1369.00	0.19	-0.12	19.50	20.25	9.50	12.50	1.00	3.75	0.00	0.50	0.00	0.00	0.00	0.50	0.25	0.00	0.00	0.00	-1.559570	-0.230957	6.496094	-123.620003	295.470001	-73.430000	763.00	-0.33	-0.07
2.10	2.00	1.75	2.00	2.75	0.50	3.00	0.00	4.00	7.75	10.75	12.75	13.50	14.75	15.25	10.00	15.50	-0.422363	0.163574	1.177246	70.910004	256.410004	-17.219999	1228.00	0.20	-0.12	21.50	21.00	10.75	14.00	1.75	5.25	0.00	1.00	0.00	0.00	0.00	0.50	0.25	0.00	0.00	0.00	-0.706055	0.711426	2.294922	-59.990002	136.990005	-44.799999	862.00	-0.32	-0.07
2.11	1.50	1.50	1.50	2.00	0.75	2.25	0.00	2.75	7.50	10.25	12.50	13.00	14.00	16.00	10.00	15.25	-0.367188	0.219238	1.208008	70.840004	281.750000	-20.440001	1159.00	0.22	-0.11	20.50	20.00	11.00	13.50	1.75	5.75	0.25	1.75	0.00	0.00	0.00	0.50	0.75	0.00	0.00	0.00	-0.192383	0.645020	1.106934	-49.209999	97.019997	-6.930000	865.00	-0.31	-0.08
2.12	2.00	2.25	1.50	1.25	0.50	1.75	0.00	2.25	6.75	9.75	13.00	12.75	12.75	16.25	10.25	15.00	-0.509277	0.270508	1.221191	48.020000	311.500000	-26.740000	1124.00	0.22	-0.10	18.50	19.00	10.25	13.25	2.00	6.50	0.25	2.50	0.00	0.00	0.00	0.75	1.25	0.00	0.00	0.00	0.062012	0.004883	1.181641	-49.910000	89.250000	6.370000	852.00	-0.30	-0.09
2.13	1.50	1.25	1.25	1.50	0.50	1.75	0.00	1.75	6.00	9.25	12.25	12.25	12.00	16.75	10.25	14.50	-0.514160	0.275879	1.304199	35.700001	337.049988	-31.639999	1064.00	0.23	-0.10	16.50	17.25	10.25	12.75	2.50	7.25	0.25	3.25	0.00	0.00	0.00	0.50	2.00	0.00	0.00	0.00	-0.148438	0.094238	1.018066	-46.200001	69.860001	-3.290000	837.00	-0.28	-0.10
2.14	1.75	0.00	1.25	1.25	0.75	1.50	0.00	1.25	5.00	9.00	11.75	11.50	11.00	16.50	10.25	13.25	-0.488281	0.394043	1.418945	25.270000	366.730011	-40.320000	992.00	0.24	-0.10	16.00	17.00	10.50	13.25	2.50	8.00	0.50	4.25	0.00	0.00	0.25	0.50	2.50	0.00	0.00	0.00	-0.323242	0.503906	1.050293	-54.880001	53.340000	-2.660000	876.00	-0.27	-0.11
2.15	0.75	1.00	1.00	1.50	0.25	1.50	0.00	1.00	3.75	8.50	11.75	11.25	9.75	16.00	9.75	11.75	-0.654785	0.571289	1.548828	22.540001	396.480011	-53.760002	923.00	0.24	-0.10	16.50	17.50	11.00	13.50	3.00	8.75	0.50	5.50	0.00	0.00	0.25	0.75	3.25	0.00	0.00	0.00	-0.242676	0.335449	0.980957	-68.110001	43.470001	6.300000	941.00	-0.26	-0.12
2.16	2.00	2.75	2.00	2.75	0.75	2.50	0.00	1.75	2.50	8.00	11.25	10.50	8.50	15.25	8.75	9.75	-0.776855	0.537109	1.437012	23.590000	441.839996	-72.379997	932.00	0.19	-0.11	17.00	17.50	11.50	14.25	3.75	9.25	0.50	6.00	0.00	0.00	0.50	0.50	3.75	0.00	0.00	0.00	-0.150879	0.243652	1.072266	-87.779999	35.349998	3.010000	990.00	-0.25	-0.12
2.17	0.00	0.50	0.25	0.00	0.00	1.25	0.00	0.50	1.50	7.50	10.50	10.00	7.50	14.00	7.50	7.75	-1.111328	0.488281	2.005859	9.380000	484.820007	-88.970001	706.00	0.27	-0.11	18.25	18.75	12.25	14.50	5.00	9.50	0.50	6.25	0.00	0.50	0.50	0.75	3.75	0.00	0.00	0.00	-0.177246	0.282715	1.037598	-90.440002	24.990000	-1.330000	1059.00	-0.25	-0.11
2.18	0.25	0.50	0.50	0.00	0.00	1.00	0.00	0.00	0.50	6.25	9.50	9.00	6.25	12.75	7.00	5.75	-1.278809	0.806641	2.931152	18.760000	490.630005	-92.820000	608.00	0.27	-0.10	19.50	19.00	12.75	14.50	5.50	9.75	0.50	6.50	0.00	0.25	0.25	0.75	4.50	0.25	0.00	0.00	-0.138672	0.203125	1.016113	-83.790001	20.440001	-0.490000	1099.00	-0.25	-0.11
2.19	0.50	0.75	0.50	0.00	0.00	0.75	0.00	0.00	0.00	4.75	8.50	8.50	4.75	9.75	5.00	3.75	-1.341797	0.365234	2.261230	29.260000	493.149994	-104.370003	493.00	0.25	-0.11	19.50	19.50	12.75	14.75	6.25	10.00	0.75	6.75	0.00	0.25	0.50	0.75	4.00	0.50	0.25	0.00	-0.074707	0.158203	1.054199	-71.610001	17.430000	-0.560000	1131.00	-0.25	-0.11
2.20	0.25	1.75	1.00	1.50	0.75	1.50	0.00	0.25	1.25	4.75	7.75	7.50	2.75	8.25	3.00	2.50	-0.820312	0.274902	2.666504	55.580002	481.600006	-100.169998	481.00	0.19	-0.09	19.25	19.00	13.00	14.75	6.50	9.75	0.50	7.00	0.00	0.50	0.50	0.75	4.50	0.50	0.25	0.00	-0.121094	0.139160	1.004883	-42.000000	12.320000	-0.770000	1133.00	-0.24	-0.11
2.21	0.00	0.00	0.00	0.25	0.00	0.75	0.00	0.00	0.00	2.75	5.25	5.00	1.75	6.00	1.25	1.25	-0.622559	0.149414	2.511230	54.880001	450.450012	-109.830002	255.00	0.26	-0.10	18.75	18.50	12.75	14.25	7.00	10.00	0.75	7.25	0.00	0.50	0.50	0.75	4.75	0.25	0.25	0.00	-0.109863	0.144531	0.990234	-29.400000	9.660000	0.210000	1131.00	-0.24	-0.11
2.22	0.25	0.50	0.25	0.25	0.00	0.75	0.00	0.00	0.00	2.25	3.75	3.50	1.25	3.25	1.00	1.00	-0.188477	0.530762	2.444336	53.900002	419.440002	-114.449997	191.00	0.21	-0.11	18.50	17.75	12.75	14.00	7.25	10.25	0.75	7.25	0.00	0.75	0.50	1.25	5.00	0.50	0.25	0.00	-0.117676	0.175781	0.969238	-21.700001	7.910000	0.700000	1137.00	-0.23	-0.11
2.23	1.00	0.00	0.25	0.25	0.00	1.00	0.00	0.00	0.00	1.75	2.50	2.50	0.75	1.00	1.00	0.50	-0.461914	0.359375	0.918457	74.480003	411.880005	-122.080002	137.00	0.15	-0.12	18.00	17.50	12.25	12.75	7.25	10.00	0.75	7.75	0.25	0.50	0.50	1.25	5.50	0.50	0.25	0.00	-0.119629	0.178711	0.964844	-19.460001	7.350000	1.050000	1118.00	-0.22	-0.12
2.24	1.00	0.00	0.75	0.50	0.00	0.50	0.00	0.00	0.00	1.25	1.50	1.00	0.00	0.75	0.25	0.25	0.630371	0.916992	2.089355	97.930000	380.589996	-127.400002	87.00	0.05	-0.06	17.50	17.00	12.50	13.75	7.50	10.25	0.75	7.50	0.25	0.75	0.75	1.25	5.25	0.50	0.25	0.00	-0.104980	0.165039	0.968750	-18.270000	6.790000	1.260000	1128.00	-0.22	-0.12
2.25	0.75	0.50	1.00	0.50	0.00	0.50	0.00	0.00	0.00	1.50	1.50	1.00	0.00	0.25	0.25	0.25	0.063965	0.509277	2.180664	133.070007	303.239990	-141.470001	90.00	0.02	-0.07	17.50	16.50	12.00	13.50	7.50	10.75	1.00	7.75	1.00	1.50	1.50	2.00	6.75	1.50	0.75	0.75	-0.111328	0.168945	0.979004	-15.820000	6.510000	0.840000	1198.00	-0.19	-0.12
2.26	0.75	0.50	0.50	0.50	0.00	0.00	0.00	0.00	0.00	0.75	1.00	0.50	0.00	0.25	0.00	0.00	1.336914	0.232422	3.717285	5.600000	11.060000	-135.240005	54.00	-0.04	-0.05	20.25	19.25	14.00	15.25	8.75	12.50	1.00	8.25	1.50	1.75	1.75	2.25	5.75	0.75	1.00	1.25	-0.120117	0.167480	0.973145	-13.580000	7.350000	0.700000	1352.00	-0.20	-0.11
2.27	1.25	0.50	0.50	0.50	0.00	0.25	0.00	0.00	0.00	0.75	0.50	0.25	0.00	0.00	0.00	0.00	1.189941	0.400879	2.186523	-67.269997	-139.930008	-105.070000	51.00	-0.15	-0.04	14.75	16.25	11.75	12.50	7.50	12.00	1.00	8.50	1.50	2.00	1.75	2.25	8.25	1.75	1.25	0.00	-0.122070	0.159668	0.980469	-11.130000	7.490000	0.700000	1213.00	-0.17	-0.13
2.28	0.75	0.50	0.50	0.50	0.00	0.50	0.00	0.00	0.00	0.75	0.50	0.25	0.00	0.00	0.25	0.00	0.688477	0.868652	1.217773	-101.849998	-203.770004	-103.949997	52.00	-0.09	-0.07	14.75	14.25	11.50	12.25	7.50	10.00	0.75	7.75	0.00	0.75	1.00	1.50	7.50	1.50	1.75	1.25	-0.108887	0.162598	0.970215	-8.260000	6.580000	0.700000	1097.00	-0.18	-0.13
2.29	0.50	0.00	0.25	0.25	0.00	0.00	0.00	0.00	0.00	0.50	0.25	0.25	0.00	0.00	0.00	0.00	0.661621	0.940430	0.906738	-64.190002	-221.339996	-109.760002	23.00	0.00	0.00	17.75	17.50	13.25	15.00	8.50	12.50	1.00	8.50	1.50	2.00	2.00	2.50	8.75	1.75	2.00	1.25	-0.112305	0.166504	0.957031	-6.440000	5.810000	0.350000	1352.00	-0.17	-0.12
2.30	1.00	0.50	0.50	0.25	0.00	0.25	0.00	0.00	0.00	0.50	0.00	0.00	0.00	0.00	0.00	0.00	0.625488	1.028320	0.736328	0.350000	-229.949997	-115.570000	34.00	0.00	0.00	16.75	16.50	13.00	14.75	8.75	12.25	1.00	8.75	1.50	2.25	2.00	3.00	9.00	2.00	2.00	1.00	-0.112305	0.163086	0.958984	-6.300000	5.390000	-0.420000	1341.00	-0.16	-0.12
2.31	0.00	0.00	0.00	0.00	0.00	0.00	0.00	0.00	0.25	0.50	0.00	0.25	0.25	1.25	0.75	0.75	0.526855	0.854004	0.793457	51.170002	-238.979996	-114.520004	39.00	0.00	0.00	17.00	16.25	12.75	14.50	8.75	12.25	1.00	8.75	1.75	2.00	2.00	3.00	9.50	2.00	2.00	1.25	-0.103516	0.164551	0.954102	-6.790000	4.830000	-1.260000	1342.00	-0.16	-0.12
2.32	0.25	0.00	0.25	0.00	0.00	0.00	0.00	0.00	0.00	0.25	0.00	0.00	0.00	0.00	0.00	0.00	0.442871	0.778809	0.863770	77.840004	-248.990005	-102.199997	9.00	0.00	0.00	15.50	15.00	12.50	14.00	9.00	12.25	1.00	9.00	1.50	2.25	2.25	3.25	9.75	2.00	2.00	1.50	-0.114258	0.166992	0.950684	-10.010000	5.460000	-2.380000	1319.00	-0.15	-0.13
2.33	0.50	0.25	0.50	0.25	0.00	0.25	0.00	0.00	0.00	0.00	0.00	0.00	0.00	0.00	0.00	0.00	0.371582	0.732422	0.975098	76.019997	-263.549988	-79.309998	20.00	0.00	0.00	14.25	14.25	12.25	13.75	8.75	12.00	1.00	9.00	2.00	2.50	2.50	3.75	10.00	2.25	2.25	1.50	-0.115234	0.170898	0.958008	-11.340000	6.090000	-2.520000	1312.00	-0.14	-0.13
2.34	0.50	0.25	0.00	0.00	0.00	0.25	0.00	0.00	0.00	0.00	0.00	0.00	0.00	0.00	0.00	0.00	0.288086	0.760742	1.079102	56.209999	-282.660004	-48.299999	11.00	0.00	0.00	13.75	13.75	12.00	13.50	9.00	12.00	1.25	9.25	1.75	2.25	2.50	4.00	10.50	2.50	2.25	1.75	-0.112305	0.172852	0.953613	-12.320000	6.440000	-2.380000	1311.00	-0.13	-0.13
2.35	0.25	0.00	0.25	0.00	0.00	0.50	0.00	0.00	0.00	0.00	0.00	0.00	0.00	0.00	0.00	0.00	0.203125	0.811523	1.110840	31.780001	-301.910004	-13.860000	12.00	0.00	0.00	13.50	12.50	11.75	13.25	9.00	12.00	1.00	9.25	2.00	2.75	2.75	4.25	10.75	2.50	2.50	2.00	-0.110840	0.163086	0.955078	-13.160000	7.140000	-2.170000	1308.00	-0.12	-0.13
2.36	0.00	0.00	0.00	0.00	0.00	0.00	0.00	0.00	0.00	0.00	0.00	0.00	0.00	0.00	0.00	0.00	0.123047	0.853027	1.081543	14.910000	-318.989990	18.549999	0.00	0.00	0.00	11.50	11.00	11.25	12.75	8.50	11.50	1.25	9.50	2.00	2.75	2.75	5.00	11.25	2.25	2.50	2.25	-0.112793	0.158691	0.952148	-12.670000	7.280000	-2.380000	1267.00	-0.11	-0.14
2.37	0.25	0.00	0.00	0.00	0.00	0.00	0.00	0.00	0.00	0.00	0.00	0.00	0.00	0.00	0.00	0.00	0.029785	0.882324	1.047852	9.240000	-331.799988	46.200001	3.00	0.00	0.00	11.25	11.00	11.00	12.50	9.25	12.00	1.25	9.50	2.50	3.00	3.25	5.50	11.50	2.75	2.75	2.50	-0.115234	0.157715	0.953613	-11.900000	7.490000	-2.450000	1306.00	-0.10	-0.14
2.38	0.00	0.00	0.25	0.00	0.00	0.25	0.00	0.00	0.00	0.00	0.00	0.00	0.00	0.00	0.00	0.00	-0.076172	0.862793	1.058594	13.790000	-338.940002	68.459999	6.00	0.00	0.00	10.50	10.00	10.75	12.25	9.50	12.25	1.25	9.75	2.50	3.25	3.50	6.50	12.00	3.00	3.00	2.75	-0.115234	0.151855	0.972656	-11.270000	7.560000	-2.520000	1320.00	-0.08	-0.14
2.39	0.00	0.00	0.00	0.00	0.00	0.00	0.00	0.00	0.00	0.00	0.00	0.00	0.00	0.00	0.00	0.00	-0.144531	0.789551	1.067383	23.730000	-343.000000	85.959999	0.00	0.00	0.00	9.25	9.00	10.25	12.00	9.50	12.25	1.25	9.75	2.50	3.25	4.00	7.50	12.25	3.00	3.00	3.00	-0.117676	0.155273	0.958008	-9.240000	7.840000	-2.800000	1308.00	-0.07	-0.15
2.40	0.00	0.00	0.25	0.00	0.00	0.00	0.00	0.00	0.00	0.00	0.00	0.00	0.00	0.00	0.00	0.00	-0.218750	0.712402	1.129883	34.020000	-345.450012	99.050003	3.00	0.00	0.00	8.75	8.75	10.00	11.50	9.50	12.25	1.50	10.00	2.75	3.50	4.50	8.00	12.75	3.50	3.25	3.50	-0.122559	0.149414	0.972168	-7.000000	8.190000	-2.870000	1332.00	-0.06	-0.15
2.41	0.00	0.00	0.00	0.00	0.00	0.00	0.00	0.00	0.00	0.00	0.00	0.00	0.00	0.00	0.00	0.00	-0.387695	0.568848	1.301270	50.400002	-348.459991	113.959999	0.00	0.00	0.00	8.00	8.00	9.50	11.25	9.25	12.00	1.50	10.00	3.00	4.00	5.50	8.50	13.25	3.50	3.75	3.75	-0.123535	0.147949	0.964355	-4.970000	9.030000	-3.010000	1339.00	-0.04	-0.15
2.42	0.00	0.00	0.00	0.00	0.00	0.00	0.00	0.00	0.00	0.00	0.00	0.00	0.00	0.00	0.00	0.00	-0.444336	0.494141	1.372070	59.080002	-348.250000	114.660004	0.00	0.00	0.00	7.50	7.25	9.25	10.75	9.25	12.25	1.50	10.00	3.00	4.00	6.25	8.75	14.00	4.00	4.00	4.25	-0.120117	0.151855	0.966309	-2.870000	9.940000	-3.080000	1349.00	-0.03	-0.15
2.43	0.00	0.00	0.00	0.00	0.00	0.00	0.00	0.00	0.00	0.00	0.00	0.00	0.00	0.00	0.00	0.00	-0.511719	0.418457	1.452148	68.879997	-345.660004	111.020004	0.00	0.00	0.00	7.00	6.75	8.75	9.75	9.00	12.00	1.50	10.25	3.00	4.25	7.25	9.25	14.25	4.25	4.25	4.75	-0.138184	0.150391	0.974121	-0.910000	11.200000	-3.150000	1349.00	-0.02	-0.15
2.44	0.00	0.00	0.00	0.00	0.00	0.00	0.00	0.00	0.00	0.00	0.00	0.00	0.00	0.00	0.00	0.00	-0.576172	0.350586	1.550781	78.750000	-341.459991	103.879997	0.00	0.00	0.00	6.50	6.25	8.00	9.50	9.00	12.00	1.50	10.25	3.25	4.75	7.50	9.75	14.75	4.50	4.50	5.00	-0.132324	0.159668	0.969727	1.540000	14.350000	-3.080000	1355.00	-0.01	-0.15
2.45	0.00	0.00	0.00	0.00	0.00	0.00	0.00	0.00	0.00	0.00	0.00	0.00	0.00	0.00	0.00	0.00	-0.656250	0.298828	1.656250	88.059998	-336.839996	94.709999	0.00	0.00	0.00	6.25	5.75	7.50	9.00	8.50	11.75	1.25	10.25	3.50	5.00	8.25	10.00	15.00	5.00	5.00	5.25	-0.134766	0.155762	0.972656	1.890000	15.820000	-3.290000	1354.00	0.01	-0.16
2.46	0.00	0.00	0.00	0.00	0.00	0.00	0.00	0.00	0.00	0.00	0.00	0.00	0.00	0.00	0.00	0.00	-0.769043	0.291504	1.742676	94.709999	-331.660004	84.629997	0.00	0.00	0.00	6.00	5.25	7.00	8.25	8.00	11.25	1.50	10.25	3.75	5.75	8.50	10.50	15.50	5.50	5.00	5.50	-0.132324	0.155273	0.962402	1.890000	17.219999	-3.570000	1355.00	0.02	-0.15
2.47	0.00	0.00	0.00	0.00	0.00	0.00	0.00	0.00	0.00	0.00	0.00	0.00	0.00	0.00	0.00	0.00	-0.868164	0.336426	1.791504	96.040001	-322.209991	76.300003	0.00	0.00	0.00	5.50	5.00	6.50	7.75	7.75	10.75	1.25	10.25	3.75	5.50	8.50	11.00	16.00	5.75	5.75	6.25	-0.134277	0.163574	0.959961	1.260000	18.059999	-3.780000	1345.00	0.03	-0.16
2.48	0.00	0.00	0.00	0.00	0.00	0.00	0.00	0.00	0.00	0.00	0.00	0.00	0.00	0.00	0.00	0.00	-0.988281	0.518555	1.993164	86.590004	-309.959991	76.930000	0.00	0.00	0.00	5.25	4.75	6.00	7.50	7.25	10.50	1.25	10.00	4.00	7.00	9.25	11.50	16.25	6.25	6.25	6.75	-0.139648	0.167480	0.965332	0.420000	18.969999	-4.200000	1368.00	0.04	-0.16
2.49	0.00	0.00	0.00	0.00	0.00	0.00	0.00	0.00	0.00	0.00	0.00	0.00	0.00	0.00	0.00	0.00	-1.036621	0.786621	2.359375	64.260002	-304.709991	91.840004	0.00	0.00	0.00	3.00	2.25	4.00	5.50	5.75	8.75	1.00	10.00	4.25	6.50	8.75	10.75	15.00	5.75	5.50	6.75	-0.132812	0.166504	0.964844	0.490000	19.879999	-5.040000	1184.00	0.07	-0.17
2.50	0.00	0.00	0.00	0.00	0.00	0.00	0.00	0.00	0.00	0.00	0.00	0.00	0.00	0.00	0.00	0.25	-1.093262	1.209961	2.725586	42.910000	-314.369995	123.340004	1.00	0.00	0.00	2.00	2.50	3.50	5.25	5.25	9.00	1.00	9.25	3.00	7.25	9.25	11.25	15.25	6.50	5.75	6.50	-0.138672	0.165039	0.954102	0.350000	20.580000	-6.440000	1164.00	0.08	-0.17
2.51	0.00	0.00	0.00	0.00	0.00	0.00	0.00	0.00	0.00	0.00	0.00	0.00	0.00	0.00	0.00	0.00	-1.272949	1.541992	3.067383	36.820000	-334.950012	164.220001	0.00	0.00	0.00	1.50	2.00	2.75	4.50	5.00	8.00	0.75	9.25	3.00	7.50	9.75	11.75	16.00	7.00	6.50	7.50	-0.149902	0.154785	0.953613	0.210000	21.559999	-7.770000	1156.00	0.10	-0.18
2.52	0.00	0.00	0.00	0.00	0.00	0.00	0.00	0.00	0.00	0.00	0.00	0.00	0.00	0.00	0.00	0.00	-1.652344	1.785156	3.283691	50.820000	-357.630005	203.770004	0.00	0.00	0.00	2.00	1.50	2.50	4.25	4.25	7.50	0.75	9.25	3.50	7.50	10.25	12.00	16.25	7.50	6.75	7.75	-0.157715	0.163574	0.966309	0.070000	22.960001	-7.910000	1163.00	0.11	-0.17
2.53	0.00	0.00	0.00	0.00	0.00	0.00	0.00	0.00	0.00	0.00	0.00	0.00	0.00	0.00	0.00	0.00	-2.292480	1.879883	3.019043	68.739998	-380.869995	231.139999	0.00	0.00	0.00	1.75	1.25	2.00	3.50	3.25	7.25	0.75	9.00	4.25	8.00	10.50	12.50	16.25	8.00	7.25	8.00	-0.149414	0.163086	0.965820	0.350000	25.480000	-8.400000	1160.00	0.13	-0.17
2.54	1.00	1.50	1.25	1.75	0.50	1.25	0.00	0.25	0.50	0.00	0.00	0.00	0.00	0.00	0.00	0.00	-2.735840	1.182129	2.218750	126.489998	-395.079987	248.990005	95.00	-0.23	-0.08	1.50	1.00	1.50	3.00	2.75	6.50	0.75	9.00	4.25	8.25	10.75	12.75	16.50	8.75	7.50	8.50	-0.137207	0.164551	0.977051	1.120000	28.000000	-9.800000	1152.00	0.14	-0.17
2.55	0.25	1.00	0.00	0.00	0.00	0.00	0.00	0.00	1.00	0.75	0.50	0.00	0.00	0.00	0.00	0.00	-3.801270	0.318848	1.859863	218.119995	-380.519989	250.600006	41.00	0.00	0.00	1.50	1.00	1.25	2.25	2.00	5.50	0.50	8.75	4.75	8.50	11.25	13.00	16.75	9.50	7.75	8.75	-0.164062	0.161133	0.974121	3.290000	32.340000	-10.710000	1143.00	0.16	-0.17
2.56	0.25	0.00	1.25	0.25	0.00	0.25	0.00	0.00	0.00	0.25	0.25	0.00	0.00	0.00	0.00	0.00	-5.528320	-1.310547	0.315918	190.750000	-280.140015	245.139999	30.00	0.00	0.00	1.25	0.75	1.00	1.50	1.50	5.00	0.50	8.50	5.00	8.75	11.50	13.25	17.00	10.25	8.25	9.00	-0.181152	0.185547	0.986328	5.810000	44.310001	-11.480000	1138.00	0.17	-0.16
2.57	0.50	0.25	0.25	0.00	0.00	0.00	0.00	0.00	0.00	0.00	0.00	0.00	0.00	0.00	0.00	0.00	-5.678223	-1.598633	-0.466309	83.510002	-213.779999	231.419998	11.00	0.00	0.00	1.25	0.75	0.50	1.75	1.00	4.00	0.25	8.00	5.00	9.00	12.00	13.50	17.00	11.25	8.50	9.50	-0.196289	0.148926	1.000000	9.240000	52.779999	-12.320000	1131.00	0.19	-0.16
2.58	0.50	0.25	0.50	0.25	0.00	0.25	0.00	0.00	0.00	0.00	0.00	0.00	0.00	0.00	0.00	0.00	-5.652832	-1.178711	-1.018555	-16.799999	-138.110001	169.399994	20.00	0.00	0.00	0.25	0.50	0.50	1.50	0.50	3.00	0.25	7.75	5.50	9.25	12.25	13.75	17.00	12.50	9.00	9.50	-0.193848	0.142090	1.005371	16.450001	65.519997	-12.390000	1125.00	0.20	-0.16
2.59	0.25	0.50	0.25	0.50	0.00	0.00	0.00	0.00	0.00	0.00	0.00	0.00	0.00	0.00	0.00	0.00	-5.100586	-0.548828	-1.127441	-34.650002	-57.400002	55.299999	17.00	0.00	0.00	0.25	0.25	0.25	1.00	0.50	2.25	0.00	7.00	5.50	9.25	12.50	14.00	17.00	13.25	9.25	10.00	-0.179688	0.187500	1.077637	22.960001	81.550003	-12.250000	1107.00	0.22	-0.15
2.60	0.00	0.00	0.50	0.00	0.00	0.00	0.00	0.00	0.00	0.00	0.00	0.00	0.00	0.00	0.00	0.00	-4.472656	-0.250977	-0.315430	24.500000	5.950000	-73.430000	6.00	0.00	0.00	0.00	0.25	0.00	1.25	0.25	1.75	0.00	6.25	5.75	9.25	12.50	14.00	16.75	14.50	9.75	10.00	-0.230469	0.147949	1.077637	29.120001	100.239998	-12.670000	1101.00	0.23	-0.15
2.61	0.50	0.00	0.50	0.25	0.00	0.00	0.00	0.00	0.00	0.00	0.00	0.00	0.00	0.00	0.00	0.00	-3.750000	-0.391602	0.471191	81.059998	34.509998	-164.639999	15.00	0.00	0.00	0.00	0.50	0.00	0.75	0.00	1.25	0.00	5.50	6.00	9.25	12.75	14.25	16.50	15.75	10.00	10.25	-0.250977	0.195801	1.077148	42.840000	116.970001	-15.190001	1099.00	0.24	-0.14
2.62	1.25	0.75	1.00	0.25	0.25	0.00	0.00	0.00	0.00	0.00	0.00	0.00	0.00	0.00	0.00	0.00	-3.900391	-2.906250	0.593262	6.370000	30.799999	-144.270004	40.00	0.00	0.00	0.00	0.25	0.00	0.75	0.00	1.25	0.00	5.00	6.00	9.50	12.75	14.00	16.25	16.50	10.50	10.50	-0.250000	0.224609	1.153320	51.450001	145.460007	-19.110001	1100.00	0.24	-0.13
2.63	4.25	5.25	2.50	2.50	0.50	0.00	0.00	0.00	0.00	0.25	0.50	1.00	2.00	1.00	1.00	0.00	1.602051	-1.119141	3.074707	-381.149994	170.589996	-40.599998	227.00	-0.19	-0.08	0.00	0.00	0.00	0.50	0.00	1.00	0.00	4.00	6.00	9.25	13.00	14.00	15.75	17.50	10.75	10.75	-0.249023	0.220703	1.234863	46.200001	180.460007	-21.210001	1084.00	0.25	-0.12
2.64	12.25	12.00	5.50	7.50	1.25	1.50	0.00	0.00	0.00	0.00	0.50	1.50	1.50	0.50	0.75	0.25	0.970703	1.652344	-0.137207	-220.009995	118.790001	72.099998	501.00	-0.28	-0.07	0.00	0.00	0.00	0.75	0.00	0.25	0.00	3.00	5.75	9.00	13.00	13.75	15.00	18.50	11.25	10.75	-0.318359	0.278809	1.198730	40.529999	210.419998	-25.690001	1060.00	0.26	-0.12
2.65	14.00	13.75	6.50	7.75	1.25	0.00	0.00	0.25	0.00	0.00	0.50	1.00	1.00	0.00	0.75	0.50	0.166992	-3.242188	-0.341309	-49.630001	194.460007	130.130005	527.00	-0.31	-0.06	0.00	0.00	0.00	0.25	0.00	0.25	0.00	2.25	5.75	8.75	12.75	13.50	14.00	19.25	11.50	10.25	-0.326172	0.352539	1.293945	38.920002	240.800003	-35.910000	1030.00	0.27	-0.11
2.66	21.75	17.75	8.75	10.00	2.00	3.00	0.00	1.00	0.25	0.00	0.75	1.75	2.50	0.50	0.75	0.50	-1.511230	-1.722656	1.389648	-26.110001	394.730011	41.160000	800.00	-0.28	-0.07	0.00	0.00	0.00	0.25	0.00	0.00	0.00	1.75	5.50	8.75	12.75	13.00	12.75	19.75	11.50	10.00	-0.324707	0.385254	1.375977	34.509998	268.170013	-48.930000	1001.00	0.28	-0.10
2.67	23.00	20.00	11.25	12.25	4.75	7.25	0.00	1.50	1.00	0.50	1.00	2.00	2.25	1.00	0.75	0.75	-1.180664	-0.979980	6.307617	44.240002	403.899994	-46.970001	1012.00	-0.26	-0.07	0.00	0.00	0.00	0.00	0.00	0.00	0.00	1.75	5.25	8.50	12.50	12.50	11.75	20.00	11.25	9.50	-0.478516	0.417480	1.233887	14.630000	296.940002	-60.410000	970.00	0.28	-0.09
2.68	24.50	20.75	12.50	13.50	6.50	9.25	0.00	2.50	1.00	0.50	1.00	2.00	3.25	1.00	1.00	1.00	-0.553223	1.075684	2.047363	65.309998	248.570007	-95.059998	1142.00	-0.25	-0.08	0.00	0.00	0.00	0.00	0.00	0.00	0.00	1.25	4.75	8.00	12.25	11.75	10.75	19.75	11.00	8.75	-0.559570	0.560059	1.684082	-20.299999	383.110016	-87.779999	918.00	0.29	-0.09
2.69	23.50	20.00	12.50	13.75	7.00	10.50	0.25	4.00	1.00	0.50	1.00	2.25	3.00	0.75	1.00	0.75	-0.403809	1.804688	1.830566	49.700001	218.330002	-65.099998	1173.00	-0.24	-0.09	0.00	0.00	0.00	0.00	0.00	0.00	0.00	1.25	3.75	7.50	11.75	11.00	9.75	19.25	10.50	7.50	-0.664062	0.901367	1.792969	-19.460001	426.160004	-108.080002	857.00	0.29	-0.09
2.70	21.50	19.25	12.00	13.50	7.25	11.50	0.25	6.00	1.50	0.50	0.75	2.25	4.00	0.75	1.00	1.00	-0.400879	0.359863	1.687988	8.960000	180.180008	-1.120000	1197.00	-0.22	-0.10	0.00	0.00	0.00	0.00	0.00	0.00	0.00	0.50	1.75	6.75	11.00	10.00	8.75	18.00	9.50	6.00	-0.849121	0.746582	1.900879	-9.590000	469.910004	-133.630005	745.00	0.29	-0.09
2.71	20.00	18.25	11.75	13.25	7.75	12.50	0.25	7.50	0.50	0.75	0.50	1.75	5.00	1.00	1.00	1.00	-0.177246	0.318848	1.171875	-65.590004	94.639999	-5.180000	1198.00	-0.22	-0.12	0.00	0.00	0.00	0.00	0.00	0.00	0.00	0.25	0.75	5.50	10.00	9.00	7.75	15.75	8.00	4.00	-1.131836	0.632812	2.460938	-27.160000	495.670013	-150.919998	630.00	0.29	-0.10
2.72	19.50	18.00	11.75	13.25	8.25	13.25	0.25	8.00	1.00	0.75	1.25	2.00	5.25	1.00	0.75	1.00	-0.399414	0.608887	1.049805	-82.110001	73.779999	-0.280000	1232.00	-0.21	-0.12	0.00	0.00	0.00	0.00	0.00	0.00	0.00	0.00	0.00	4.00	8.50	7.75	6.00	13.25	6.50	2.00	-1.293945	0.801270	3.267090	-12.110000	490.279999	-153.930008	498.00	0.29	-0.10
2.73	18.50	17.50	11.75	13.25	8.50	13.75	0.50	8.50	1.25	0.75	1.25	2.00	5.50	1.00	1.00	1.00	-0.098145	0.191895	1.010254	-100.660004	64.120003	3.500000	1245.00	-0.20	-0.12	0.00	0.00	0.00	0.00	0.00	0.00	0.00	0.00	0.00	3.00	7.50	6.50	3.50	10.25	4.75	0.00	-1.105469	0.380859	2.787109	30.030001	490.209991	-154.910004	378.00	0.29	-0.09
2.74	19.00	18.00	12.25	13.25	9.00	14.00	0.50	9.00	1.25	1.00	1.00	2.00	5.50	1.00	1.25	1.00	-0.140625	0.112305	1.243652	-105.139999	53.900002	-3.920000	1282.00	-0.20	-0.12	0.00	0.00	0.00	0.00	0.00	0.00	0.00	0.00	0.00	2.25	5.00	4.50	2.25	7.75	3.00	0.00	-1.339844	0.498535	3.489746	35.980000	459.899994	-155.889999	262.00	0.29	-0.08
2.75	19.75	17.75	12.50	13.50	9.75	14.25	0.50	9.00	1.25	1.00	1.25	2.00	5.75	1.25	1.00	1.25	-0.179688	0.200195	1.091309	-90.510002	34.580002	-6.370000	1313.00	-0.20	-0.12	0.00	0.00	0.00	0.00	0.00	0.00	0.00	0.00	0.00	1.25	3.00	3.25	1.25	5.25	1.25	0.00	-1.199219	0.885742	3.303711	28.700001	419.860016	-163.520004	161.00	0.29	-0.08
2.76	19.75	17.75	12.75	13.25	10.50	14.50	0.75	9.25	1.25	1.25	1.00	2.25	5.75	1.00	1.00	1.00	-0.092285	0.135254	1.022461	-73.639999	25.480000	-3.640000	1332.00	-0.19	-0.12	0.00	0.00	0.00	0.00	0.00	0.00	0.00	0.00	0.00	1.00	2.25	2.00	1.25	2.00	1.00	0.00	0.404297	0.860352	1.646484	49.279999	399.839996	-170.449997	102.00	0.27	-0.12
2.77	19.25	17.50	12.50	13.25	10.50	14.50	0.75	9.25	1.25	1.00	1.25	2.25	6.00	1.25	1.00	0.75	-0.083008	0.100098	1.021484	-58.520000	22.820000	-2.520000	1324.00	-0.19	-0.12	0.00	0.00	0.00	0.00	0.00	0.00	0.00	0.00	0.00	0.25	1.00	1.00	0.25	0.50	0.25	0.00	0.754883	1.103516	2.216797	69.510002	394.029999	-185.779999	36.00	0.00	0.00
2.78	18.25	17.00	12.25	13.00	11.00	14.00	0.75	9.50	0.50	0.50	1.25	1.50	5.75	0.50	0.25	0.25	-0.117188	0.123047	1.013184	-43.540001	20.440001	-1.190000	1260.00	-0.21	-0.12	0.00	0.00	0.00	0.00	0.00	0.00	0.00	0.00	0.00	0.25	0.75	0.50	0.00	0.00	0.00	0.00	0.982910	0.752930	1.813477	115.500000	328.579987	-202.580002	17.00	0.00	0.00
2.79	12.25	16.00	12.00	12.50	11.25	14.00	0.75	9.50	1.25	1.50	1.50	2.25	6.25	1.50	1.00	1.00	-0.108398	0.121094	0.979492	-32.689999	19.180000	1.050000	1236.00	-0.17	-0.13	0.00	0.00	0.00	0.00	0.00	0.00	0.00	0.00	0.00	0.25	0.75	0.50	0.00	0.00	0.00	0.00	1.451172	1.636719	3.565430	145.039993	211.750000	-223.369995	17.00	0.00	0.00
2.80	17.50	16.00	12.00	12.50	11.50	14.25	0.75	9.75	1.25	1.50	1.50	2.50	6.50	1.25	1.25	1.25	-0.088379	0.121094	0.958008	-26.530001	19.740000	1.960000	1313.00	-0.18	-0.12	0.00	0.00	0.00	0.00	0.00	0.00	0.00	0.00	0.00	0.25	0.50	0.25	0.00	0.00	0.00	0.00	1.827148	0.663086	2.509277	13.650000	-154.490005	-121.800003	11.00	0.00	0.00
2.81	17.00	15.50	11.75	12.25	11.50	14.25	1.00	10.00	1.50	1.50	1.50	2.25	7.50	1.75	1.00	1.00	-0.096191	0.122559	0.968750	-23.309999	20.230000	1.680000	1315.00	-0.17	-0.12	0.00	0.00	0.00	0.00	0.00	0.00	0.00	0.00	0.00	0.25	0.25	0.00	0.00	0.00	0.00	0.00	1.341309	0.902344	1.314941	-42.209999	-220.430008	-93.519997	6.00	0.00	0.00
2.82	16.50	15.25	11.50	12.25	11.50	14.25	1.00	10.00	1.75	1.50	2.00	2.75	7.50	1.50	1.25	1.25	-0.130859	0.128906	0.975586	-21.000000	19.530001	1.820000	1321.00	-0.16	-0.12	0.00	0.00	0.00	0.00	0.00	0.00	0.00	0.00	0.00	0.00	0.00	0.00	0.00	0.00	0.00	0.00	0.916992	1.002930	1.012695	-63.139999	-234.710007	-82.529999	0.00	0.00	0.00
2.83	16.00	14.50	11.25	12.00	11.75	14.25	1.00	10.25	2.00	1.75	1.75	2.75	8.25	1.50	1.50	1.50	-0.138184	0.115723	1.016113	-18.059999	17.219999	2.450000	1324.00	-0.15	-0.12	0.00	0.00	0.00	0.00	0.00	0.00	0.00	0.00	0.00	0.00	0.00	0.00	0.00	0.00	0.00	0.00	0.811035	1.228027	0.869629	-34.160000	-232.610001	-79.029999	0.00	0.00	0.00
2.84	15.00	14.00	11.00	11.75	11.75	14.00	1.00	10.25	2.00	2.00	1.75	3.25	8.25	1.50	1.25	1.25	-0.125977	0.097168	0.979004	-13.510000	16.660000	3.010000	1303.00	-0.15	-0.13	0.00	0.00	0.00	0.00	0.00	0.00	0.00	0.00	0.00	0.00	0.00	0.00	0.00	0.00	0.00	0.00	0.762695	1.202637	0.864746	11.480000	-239.190002	-76.370003	0.00	0.00	0.00
2.85	14.00	13.25	10.50	11.50	11.50	13.75	1.00	10.50	1.50	2.00	2.00	3.00	8.75	1.50	1.25	1.25	-0.118652	0.108398	0.983887	-9.310000	17.080000	3.010000	1271.00	-0.15	-0.13	0.00	0.00	0.00	0.00	0.00	0.00	0.00	0.00	0.00	0.00	0.00	0.00	0.00	0.00	0.00	0.00	0.658691	1.081543	0.991211	52.779999	-254.169998	-67.900002	0.00	0.00	0.00
2.86	12.75	12.50	10.25	11.00	11.25	13.50	1.25	10.50	1.75	2.00	2.25	3.25	9.25	1.50	1.25	1.25	-0.119141	0.113281	0.966797	-5.740000	18.129999	1.190000	1252.00	-0.14	-0.14	0.00	0.00	0.00	0.00	0.00	0.00	0.00	0.00	0.00	0.00	0.00	0.00	0.00	0.00	0.00	0.00	0.584473	0.891113	1.005371	69.300003	-270.970001	-49.910000	0.00	0.00	0.00
2.87	12.00	12.00	10.00	11.00	11.00	13.50	1.25	10.50	1.75	2.25	2.00	3.50	9.50	1.50	1.25	1.75	-0.103516	0.116699	0.955078	-5.530000	17.780001	-0.070000	1241.00	-0.13	-0.14	0.00	0.00	0.00	0.00	0.00	0.00	0.00	0.00	0.00	0.00	0.00	0.00	0.00	0.00	0.00	0.00	0.529785	0.773926	1.047363	59.290001	-286.019989	-24.219999	0.00	0.00	0.00
2.88	11.25	11.50	9.50	10.75	10.75	13.25	1.25	10.50	2.00	2.25	2.25	3.75	9.75	1.75	1.25	1.75	-0.117676	0.125000	0.957031	-5.810000	17.150000	-2.380000	1226.00	-0.12	-0.14	0.00	0.00	0.00	0.00	0.00	0.00	0.00	0.00	0.00	0.00	0.00	0.00	0.00	0.00	0.00	0.00	0.450195	0.801270	1.102539	39.619999	-300.089996	4.060000	0.00	0.00	0.00
2.89	10.50	10.75	9.50	10.50	10.25	13.00	1.25	10.50	2.00	2.50	2.25	4.00	10.00	1.50	1.50	1.75	-0.144043	0.135254	0.948730	-7.350000	16.870001	-3.920000	1207.00	-0.11	-0.14	0.00	0.00	0.00	0.00	0.00	0.00	0.00	0.00	0.00	0.00	0.00	0.00	0.00	0.00	0.00	0.00	0.336426	0.862793	1.187988	29.680000	-314.019989	29.049999	0.00	0.00	0.00
2.90	9.75	10.00	9.25	10.25	10.25	12.75	1.25	10.75	2.25	2.50	2.50	4.25	10.25	2.00	1.25	1.75	-0.149902	0.117676	0.958984	-8.400000	16.170000	-4.270000	1199.00	-0.10	-0.15	0.00	0.00	0.00	0.00	0.00	0.00	0.00	0.00	0.00	0.00	0.00	0.00	0.00	0.00	0.00	0.00	0.226562	0.891113	1.254883	41.930000	-328.440002	49.070000	0.00	0.00	0.00
2.91	9.50	9.75	9.00	10.00	10.00	13.00	1.25	10.75	2.25	2.50	3.00	5.00	10.50	1.75	1.50	2.00	-0.140625	0.112793	0.955078	-9.730000	15.890000	-3.710000	1207.00	-0.10	-0.15	0.00	0.00	0.00	0.00	0.00	0.00	0.00	0.00	0.00	0.00	0.00	0.00	0.00	0.00	0.00	0.00	0.088379	0.813477	1.374023	69.650002	-344.610016	64.400002	0.00	0.00	0.00
2.92	8.75	9.25	9.00	10.00	10.00	12.75	1.25	10.75	2.25	3.00	3.00	5.00	10.75	1.75	1.50	2.00	-0.142578	0.093262	0.976074	-9.800000	15.680000	-2.660000	1198.00	-0.09	-0.15	0.00	0.00	0.00	0.00	0.00	0.00	0.00	0.00	0.00	0.00	0.00	0.00	0.00	0.00	0.00	0.00	-0.173340	0.519043	1.522949	117.040001	-371.700012	83.160004	0.00	0.00	0.00
2.93	8.25	9.00	8.75	9.75	9.75	12.50	1.50	10.75	2.50	3.00	3.25	5.50	11.25	1.75	1.50	2.25	-0.145508	0.104004	0.951660	-8.400000	15.330000	-1.680000	1200.00	-0.08	-0.15	0.00	0.00	0.00	0.00	0.00	0.00	0.00	0.00	0.00	0.00	0.00	0.00	0.00	0.00	0.00	0.00	-0.298340	0.401855	1.570801	128.029999	-378.279999	87.150002	0.00	0.00	0.00
2.94	8.00	8.50	8.50	9.50	9.75	12.50	1.50	10.75	2.75	3.00	3.50	6.00	11.25	2.00	1.75	2.75	-0.143555	0.100586	0.954102	-7.280000	14.910000	-0.770000	1207.00	-0.07	-0.15	0.00	0.00	0.00	0.00	0.00	0.00	0.00	0.00	0.00	0.00	0.00	0.00	0.00	0.00	0.00	0.00	-0.386719	0.319824	1.623047	136.570007	-378.980011	86.590004	0.00	0.00	0.00
2.95	7.50	8.25	8.25	9.50	9.50	12.25	1.50	10.75	2.75	3.50	3.75	6.50	11.75	2.25	1.75	2.75	-0.147461	0.104004	0.960938	-6.160000	15.120000	-0.630000	1211.00	-0.06	-0.15	0.00	0.00	0.00	0.00	0.00	0.00	0.00	0.00	0.00	0.00	0.00	0.00	0.00	0.00	0.00	0.00	-0.496094	0.291504	1.714844	147.490005	-375.059998	82.389999	0.00	0.00	0.00
2.96	7.00	8.00	8.00	9.25	9.50	12.25	1.75	10.75	3.25	4.00	4.25	7.50	12.00	2.25	1.50	3.00	-0.134277	0.113281	0.959961	-5.810000	15.260000	-1.120000	1232.00	-0.05	-0.15	0.00	0.00	0.00	0.00	0.00	0.00	0.00	0.00	0.00	0.00	0.00	0.00	0.00	0.00	0.00	0.00	-0.584961	0.240234	1.860352	162.259995	-368.059998	73.779999	0.00	0.00	0.00
2.97	6.75	7.50	7.75	9.00	9.25	12.00	1.75	11.00	3.00	4.25	5.00	8.00	12.25	2.25	2.00	3.50	-0.144043	0.121094	0.952637	-5.950000	15.190001	-2.100000	1241.00	-0.04	-0.16	0.00	0.00	0.00	0.00	0.00	0.00	0.00	0.00	0.00	0.00	0.00	0.00	0.00	0.00	0.00	0.00	-0.728027	0.212402	2.026367	180.809998	-360.779999	62.090000	0.00	0.00	0.00
2.98	6.75	7.25	7.75	8.75	9.25	12.00	1.75	11.00	3.50	4.50	5.75	8.25	12.75	2.50	2.00	4.00	-0.145508	0.117676	0.958496	-6.510000	15.470000	-2.660000	1267.00	-0.04	-0.15	0.00	0.00	0.00	0.00	0.00	0.00	0.00	0.00	0.00	0.00	0.00	0.00	0.00	0.00	0.00	0.00	-0.925293	0.271484	2.163574	198.729996	-352.450012	49.770000	0.00	0.00	0.00
2.99	6.25	7.25	7.50	8.50	9.00	12.00	2.25	11.00	4.00	5.50	6.25	8.75	13.25	2.50	2.00	4.00	-0.150391	0.107422	0.935547	-6.510000	15.540000	-3.080000	1295.00	-0.02	-0.15	0.00	0.00	0.00	0.00	0.00	0.00	0.00	0.00	0.00	0.00	0.00	0.00	0.00	0.00	0.00	0.00	-1.213867	0.386719	2.165039	207.479996	-341.250000	46.549999	0.00	0.00	0.00
3.00	6.25	6.75	7.25	8.50	8.75	12.00	2.25	11.00	4.25	6.00	7.50	9.00	13.50	3.00	2.50	5.25	-0.150391	0.098145	0.981934	-6.090000	15.540000	-2.800000	1331.00	-0.01	-0.15	0.00	0.00	0.00	0.00	0.00	0.00	0.00	0.00	0.00	0.00	0.00	0.00	0.00	0.00	0.00	0.00	-1.515137	0.501953	2.255859	204.820007	-325.920013	59.920002	0.00	0.00	0.00
3.01	5.75	6.75	7.00	8.00	8.75	11.75	2.50	11.25	4.50	6.50	7.75	9.25	14.00	3.25	2.50	5.75	-0.154297	0.098145	0.964844	-4.480000	18.410000	-1.470000	1346.00	-0.00	-0.15	0.00	0.00	0.00	0.00	0.00	0.00	0.00	0.00	0.00	0.00	0.00	0.00	0.00	0.00	0.00	0.00	-1.659180	0.698242	2.422363	194.529999	-310.029999	87.150002	0.00	0.00	0.00
3.02	5.75	6.25	6.75	8.00	8.50	11.75	2.25	11.25	5.00	7.50	8.25	9.75	14.50	3.50	3.00	6.50	-0.166504	0.099121	0.956543	-3.570000	19.600000	-0.700000	1378.00	0.01	-0.15	0.00	0.00	0.00	0.00	0.00	0.00	0.00	0.00	0.00	0.00	0.00	0.00	0.00	0.00	0.00	0.00	-1.770996	0.866699	2.775879	191.169998	-297.290009	119.699997	0.00	0.00	0.00
3.03	5.75	5.75	6.25	7.75	8.25	11.50	2.25	11.25	5.25	7.75	8.50	10.25	15.00	3.50	3.25	6.75	-0.163574	0.101562	0.957031	-2.520000	20.719999	-0.070000	1382.00	0.02	-0.15	0.00	0.00	0.00	0.00	0.00	0.00	0.00	0.00	0.00	0.00	0.00	0.00	0.00	0.00	0.00	0.00	-2.139160	0.983887	2.992188	192.500000	-294.489990	150.919998	0.00	0.00	0.00
3.04	5.50	6.00	6.25	7.50	8.00	11.25	2.50	11.25	5.75	8.25	8.75	10.50	15.50	4.00	3.50	7.25	-0.178223	0.096680	0.955078	-1.190000	21.910000	0.140000	1411.00	0.03	-0.15	0.00	0.00	0.00	0.00	0.00	0.00	0.00	0.00	0.00	0.00	0.00	0.00	0.00	0.00	0.00	0.00	-3.130859	0.249512	2.312012	232.470001	-304.220001	212.100006	0.00	0.00	0.00
3.05	5.25	5.75	6.00	7.25	7.75	11.00	2.50	11.25	6.25	8.50	9.25	11.25	16.00	4.25	3.75	7.75	-0.182129	0.090820	0.955566	0.070000	23.309999	-0.560000	1431.00	0.03	-0.15	0.00	0.00	0.00	0.00	0.00	0.00	0.00	0.00	0.00	0.00	0.00	0.00	0.00	0.00	0.00	0.00	-3.686523	-0.658203	1.663086	267.470001	-285.600006	245.070007	0.00	0.00	0.00
3.06	5.00	5.50	5.50	7.00	7.25	10.75	2.50	11.25	6.75	9.00	9.75	11.75	16.25	5.00	5.00	8.50	-0.171875	0.104980	0.977051	0.560000	24.920000	-0.280000	1460.00	0.05	-0.15	0.00	0.00	0.00	0.00	0.00	0.00	0.00	0.00	0.00	0.00	0.00	0.00	0.00	0.00	0.00	0.00	-4.156738	-1.558594	1.100098	261.940002	-240.029999	279.369995	0.00	0.00	0.00
3.07	5.00	5.25	5.25	7.00	7.00	10.50	2.50	11.25	7.50	9.25	10.00	12.00	16.75	5.50	5.50	9.00	-0.184082	0.108398	0.985352	1.120000	27.719999	-0.700000	1486.00	0.06	-0.14	0.00	0.00	0.00	0.00	0.00	0.00	0.00	0.00	0.00	0.00	0.00	0.00	0.00	0.00	0.00	0.00	-4.546875	-2.109375	0.701172	199.080002	-180.949997	299.600006	0.00	0.00	0.00
3.08	5.00	5.25	5.00	6.25	6.25	10.00	2.50	11.00	7.75	9.75	10.50	12.75	17.25	6.00	6.00	9.75	-0.173340	0.109863	0.974609	1.540000	30.520000	-1.260000	1498.00	0.07	-0.14	0.00	0.00	0.00	0.00	0.00	0.00	0.00	0.00	0.00	0.00	0.00	0.00	0.00	0.00	0.00	0.00	-4.556641	-2.249023	0.270508	102.830002	-123.129997	285.600006	0.00	0.00	0.00
3.09	4.50	5.00	4.50	5.75	5.50	9.50	2.25	11.00	8.00	10.25	11.00	13.00	17.50	7.00	6.25	10.50	-0.183594	0.096191	0.988281	1.680000	33.389999	-1.190000	1495.00	0.08	-0.14	0.00	0.00	0.00	0.00	0.00	0.00	0.00	0.00	0.00	0.00	0.00	0.00	0.00	0.00	0.00	0.00	-4.507324	-2.006836	-0.031250	24.990000	-72.309998	227.919998	0.00	0.00	0.00
3.10	4.50	4.75	4.50	5.50	5.00	9.00	1.75	10.25	7.50	10.00	10.75	12.50	16.25	6.75	6.00	10.75	-0.155273	0.109375	0.991211	2.380000	37.590000	-1.400000	1423.00	0.08	-0.14	0.00	0.00	0.00	0.00	0.00	0.00	0.00	0.00	0.00	0.00	0.00	0.00	0.00	0.00	0.00	0.00	-4.288086	-1.616211	-0.084473	-10.080000	-25.690001	131.880005	0.00	0.00	0.00
3.11	2.50	3.00	2.75	4.00	3.25	8.00	1.75	10.00	8.50	10.25	11.00	12.75	16.75	7.50	6.75	11.50	-0.226562	0.119629	0.982910	4.200000	45.080002	-2.660000	1354.00	0.12	-0.15	0.00	0.00	0.00	0.00	0.00	0.00	0.00	0.00	0.00	0.00	0.00	0.00	0.00	0.00	0.00	0.00	-4.003906	-1.147949	0.020996	-4.830000	11.760000	25.969999	0.00	0.00	0.00
3.12	2.25	2.25	2.00	2.75	2.25	7.00	1.00	10.00	8.25	10.75	11.50	13.25	17.00	8.50	7.00	12.50	-0.182129	0.113281	1.030273	7.910000	53.410000	-3.990000	1317.00	0.14	-0.15	0.00	0.00	0.00	0.00	0.00	0.00	0.00	0.00	0.00	0.00	0.00	0.00	0.00	0.00	0.00	0.00	-3.646484	-0.863770	0.248535	17.639999	39.759998	-52.990002	0.00	0.00	0.00
3.13	1.00	2.75	2.75	2.50	1.75	6.00	0.75	9.00	8.75	11.00	11.75	13.75	17.75	10.25	8.25	13.75	-0.204590	0.129883	1.019531	11.830000	63.980000	-4.760000	1339.00	0.16	-0.15	0.00	0.00	0.00	0.25	0.00	0.00	0.00	0.00	0.00	0.00	0.00	0.00	0.00	0.00	0.00	0.00	-5.427734	-3.051270	-0.205566	-87.989998	90.720001	-52.849998	3.00	0.00	0.00
3.14	1.50	2.50	0.75	2.75	1.25	5.50	0.50	8.25	8.50	11.25	12.75	15.00	16.50	10.50	8.25	14.00	-0.210449	0.133789	1.104492	23.030001	77.559998	-5.250000	1310.00	0.17	-0.15	1.25	1.25	0.75	0.75	0.00	0.00	0.00	0.00	0.00	0.00	0.00	0.00	0.00	0.00	0.00	0.00	0.028809	-0.326660	-0.179199	-257.670013	215.250000	-55.650002	45.00	0.00	0.00
3.15	2.25	2.25	1.75	2.50	1.00	5.00	0.25	7.75	8.75	11.50	12.25	13.75	17.00	11.50	8.75	16.00	-0.229004	0.125977	1.175293	46.060001	124.739998	-5.180000	1321.00	0.17	-0.14	4.50	5.00	2.00	3.00	0.00	0.00	0.00	0.00	0.00	0.00	0.00	0.00	0.00	0.00	0.00	0.00	0.375977	0.994141	1.938965	-247.309998	261.660004	-51.730000	162.00	-0.36	-0.05
3.16	1.25	1.75	1.25	3.00	0.75	4.25	0.00	6.50	8.75	11.25	12.50	14.00	17.00	12.25	9.25	15.50	-0.287109	0.107422	1.263672	62.930000	155.889999	-5.460000	1281.00	0.19	-0.14	10.50	13.00	4.00	7.50	0.00	0.00	0.00	0.00	0.00	0.00	0.00	0.25	0.00	0.00	0.00	0.00	-0.406250	-0.680664	1.818359	-109.340004	265.019989	-23.100000	391.00	-0.36	-0.07
3.17	1.50	1.50	1.25	2.75	0.75	4.00	0.00	5.25	8.50	11.25	12.25	14.00	16.50	13.50	9.50	16.75	-0.244141	0.132812	1.283203	74.269997	194.389999	-8.890000	1265.00	0.20	-0.13	16.75	17.25	8.00	10.00	0.50	2.00	0.00	0.25	0.00	0.00	0.00	0.25	0.50	0.00	0.00	0.00	-1.322754	-0.543945	3.654785	-97.790001	350.489990	-73.150002	622.00	-0.34	-0.06
3.18	1.50	1.75	1.50	2.00	0.75	2.25	0.00	3.75	8.50	11.25	12.25	13.75	16.00	14.25	9.75	16.50	-0.310547	0.171875	1.232422	72.870003	232.399994	-8.960000	1216.00	0.21	-0.12	19.50	19.00	10.25	13.00	1.75	5.00	0.25	1.25	0.00	0.00	0.00	0.75	0.75	0.00	0.00	0.00	-0.886230	0.790527	2.923340	-111.860001	272.720001	-72.239998	814.00	-0.31	-0.07
3.19	1.50	1.75	0.75	1.25	0.50	2.50	0.00	3.00	7.75	10.75	12.25	13.50	15.25	15.00	10.00	17.00	-0.396484	0.179688	1.145996	70.209999	263.760010	-11.760000	1172.00	0.22	-0.12	20.00	19.25	11.75	13.75	2.75	6.75	0.25	2.25	0.00	0.00	0.25	0.75	1.25	0.00	0.00	0.00	-0.699707	0.430176	1.630371	-90.090004	99.470001	-18.830000	907.00	-0.30	-0.08
3.20	1.00	1.25	1.00	1.50	0.50	2.00	0.00	1.75	7.75	10.25	12.25	13.25	14.25	15.75	10.25	16.75	-0.350098	0.268555	1.268555	66.849998	289.940002	-15.400000	1131.00	0.23	-0.11	18.50	18.00	11.25	13.00	3.00	7.25	0.25	3.25	0.00	0.00	0.25	0.75	1.50	0.00	0.00	0.00	-0.224609	0.128906	1.108398	-91.840004	89.250000	11.690000	890.00	-0.29	-0.09
3.21	1.25	0.75	0.75	1.25	0.25	1.50	0.00	1.50	7.25	10.00	12.00	12.75	13.25	16.00	10.25	16.50	-0.414551	0.302246	1.269531	57.049999	304.010010	-22.889999	1082.00	0.24	-0.10	16.50	16.25	10.75	12.75	3.25	7.75	0.50	4.25	0.00	0.00	0.25	0.75	2.50	0.00	0.00	0.00	0.071777	0.009277	1.371582	-86.660004	84.769997	7.630000	880.00	-0.27	-0.10
3.22	1.50	1.00	1.00	1.25	0.25	0.75	0.00	0.50	6.50	9.50	11.75	12.25	12.50	16.50	10.50	16.75	-0.499512	0.327148	1.257324	45.360001	319.899994	-27.860001	1042.00	0.25	-0.10	15.25	15.25	10.75	12.50	3.50	8.25	0.50	5.50	0.00	0.00	0.50	0.50	3.50	0.00	0.00	0.00	-0.197266	0.220215	0.948242	-77.489998	61.180000	-0.910000	892.00	-0.25	-0.12
3.23	0.00	2.50	1.75	2.00	0.50	1.00	0.00	1.50	5.75	9.50	12.00	12.00	11.25	16.50	10.50	15.00	-0.511719	0.462402	1.416504	36.400002	349.369995	-39.900002	1048.00	0.23	-0.10	15.00	14.75	11.00	13.00	4.50	8.75	0.50	6.00	0.00	0.25	0.75	1.00	4.25	0.00	0.00	0.00	-0.428223	0.381836	1.163574	-82.949997	41.509998	4.060000	938.00	-0.24	-0.12
3.24	0.75	2.25	1.75	2.25	0.75	0.75	0.00	1.25	5.00	8.50	11.50	11.00	10.00	16.25	9.75	13.25	-0.496094	0.460938	1.668945	25.690001	388.220001	-56.630001	981.00	0.23	-0.10	15.75	15.50	11.00	12.75	5.50	9.75	0.75	6.75	0.50	1.50	0.75	1.00	5.00	0.00	0.00	0.00	-0.195801	0.218262	0.989746	-77.489998	20.440001	4.900000	1020.00	-0.22	-0.12
3.25	2.50	2.50	0.75	2.75	0.75	2.25	0.00	1.00	4.50	8.25	11.50	11.25	9.50	17.75	10.50	12.50	-0.641602	0.642090	1.540039	21.139999	430.920013	-75.669998	1017.00	0.21	-0.09	16.75	16.50	12.25	14.00	6.75	9.75	0.50	6.75	0.00	0.50	0.75	1.00	4.75	0.25	0.25	0.00	-0.107910	0.223633	1.005371	-78.820000	10.710000	0.910000	1066.00	-0.23	-0.12
3.26	1.00	2.25	0.75	1.50	0.50	0.50	0.00	0.00	1.75	7.75	10.50	10.00	7.25	14.00	7.75	9.25	-0.860840	0.578613	1.786133	12.180000	489.230011	-98.980003	764.00	0.23	-0.10	18.50	17.25	13.00	13.75	7.25	9.75	0.75	7.00	0.00	0.50	0.75	1.00	4.75	0.25	0.00	0.00	-0.184570	0.184570	1.077637	-72.169998	7.420000	-0.910000	1111.00	-0.23	-0.11
3.27	1.50	2.25	1.50	2.00	0.50	2.00	0.00	1.25	3.00	7.75	10.50	9.75	7.25	14.25	7.50	7.00	-1.171875	0.849121	2.219238	-9.870000	532.210022	-115.849998	824.00	0.20	-0.09	17.25	17.75	14.00	14.75	7.75	9.50	0.75	7.25	0.00	0.75	1.25	1.25	5.75	0.75	0.00	0.00	-0.078613	0.138184	0.992676	-56.070000	5.320000	-1.400000	1159.00	-0.22	-0.11
3.28	1.50	0.25	1.00	0.50	0.00	0.00	0.00	0.00	0.00	5.25	8.50	7.75	2.75	9.75	4.50	4.00	-1.419922	0.877441	3.086426	22.190001	531.929993	-117.809998	476.00	0.24	-0.08	17.00	20.50	13.75	13.00	8.00	11.00	1.00	7.75	1.00	0.75	1.25	1.50	5.00	0.75	0.75	0.00	-0.118164	0.115723	1.022461	-33.389999	8.610000	-0.840000	1212.00	-0.21	-0.11
3.29	0.00	2.00	1.00	0.00	0.25	1.75	0.00	0.75	2.00	5.75	8.00	7.75	4.25	9.00	3.75	3.50	-1.622070	0.908691	2.807617	35.139999	534.450012	-121.590004	531.00	0.21	-0.10	17.75	16.50	13.00	13.75	8.25	10.00	0.75	7.50	0.00	1.00	0.75	1.25	5.25	0.75	0.25	0.00	-0.094727	0.127441	0.984863	-22.049999	8.470000	0.070000	1139.00	-0.22	-0.11
3.30	1.75	2.25	2.00	1.50	0.50	2.25	0.00	0.50	1.75	5.00	6.50	5.75	3.25	7.00	2.75	2.75	-0.856934	0.636719	3.236816	73.919998	467.950012	-130.270004	492.00	0.14	-0.08	14.50	14.75	14.00	13.75	9.25	11.25	1.00	8.00	1.50	1.75	1.75	2.25	6.00	0.50	1.25	1.25	-0.102051	0.152832	0.969727	-15.540000	8.960000	1.120000	1213.00	-0.18	-0.11
3.31	1.75	2.75	1.50	1.75	0.50	2.25	0.00	1.00	1.50	4.50	5.50	5.25	3.25	5.00	2.25	2.50	-0.041504	0.571289	1.587402	84.070000	437.850006	-135.800003	450.00	0.11	-0.11	20.25	18.50	14.75	15.00	9.25	11.75	1.00	8.25	1.50	2.00	2.00	2.50	7.00	1.75	1.75	1.25	-0.107910	0.165527	0.960938	-12.950000	9.310000	1.610000	1385.00	-0.18	-0.11
3.32	2.25	2.75	2.00	2.00	0.25	0.00	0.00	0.75	1.50	3.25	4.00	3.25	3.50	3.00	2.25	1.75	0.649414	1.035645	2.326660	93.169998	412.160004	-143.990005	356.00	0.08	-0.09	19.75	17.75	14.50	15.25	9.75	12.00	1.25	8.25	1.50	2.00	2.00	2.25	7.50	2.00	2.25	1.25	-0.116211	0.155762	0.974121	-12.180000	8.890000	1.960000	1395.00	-0.18	-0.11
3.33	1.25	2.50	2.25	2.50	0.75	1.75	0.00	1.00	1.75	3.00	3.25	3.25	3.25	2.50	2.00	1.75	0.333008	0.895508	2.516113	132.089996	338.170013	-154.770004	364.00	0.06	-0.11	18.25	16.75	14.00	15.00	9.75	12.00	1.00	8.50	1.50	2.00	2.00	2.75	8.00	1.75	1.75	1.25	-0.109375	0.159180	0.962402	-10.920000	7.910000	1.470000	1362.00	-0.17	-0.11
3.34	1.00	0.75	0.00	0.00	0.00	0.00	0.00	0.00	0.00	1.25	1.25	1.00	0.00	0.50	0.00	0.50	1.131836	1.030762	3.541992	137.759995	226.660004	-166.180008	67.00	0.06	-0.06	17.50	15.75	13.50	14.25	9.75	11.75	1.00	8.50	1.75	2.00	2.25	3.00	8.25	2.00	2.00	1.75	-0.099609	0.156738	0.962402	-11.690000	8.610000	0.840000	1345.00	-0.16	-0.11
3.35	0.00	0.00	0.00	0.00	0.00	0.00	0.00	0.00	0.00	1.00	1.25	1.00	0.00	0.00	0.50	0.25	1.449219	0.603027	4.379883	25.129999	-4.830000	-114.870003	44.00	0.00	0.00	16.00	14.75	13.00	13.75	9.50	11.50	1.00	8.75	1.75	2.25	2.25	3.00	8.75	2.25	2.00	1.50	-0.114746	0.146484	0.982422	-10.430000	9.170000	0.700000	1312.00	-0.15	-0.12
3.36	0.00	0.00	0.00	0.00	0.00	0.00	0.00	0.00	0.00	1.00	0.75	0.50	0.00	0.00	0.00	0.25	1.484375	0.516602	2.242188	-38.920002	-168.490005	-70.070000	27.00	0.00	0.00	14.50	13.50	12.50	13.25	9.50	11.25	1.25	8.75	1.75	2.50	2.50	3.25	9.00	2.00	2.25	1.50	-0.105957	0.150391	0.966309	-8.190000	9.730000	0.490000	1283.00	-0.14	-0.12
3.37	0.00	0.00	0.00	0.00	0.00	0.00	0.00	0.00	0.00	1.25	0.75	0.75	0.00	0.25	0.25	0.25	0.932129	0.902344	1.241699	-74.830002	-231.000000	-65.590004	38.00	0.00	0.00	13.50	12.75	11.75	13.00	9.25	11.00	1.25	8.75	1.75	3.00	2.75	3.25	9.25	2.00	2.25	1.75	-0.097168	0.149902	0.968750	-7.210000	10.570000	-0.140000	1259.00	-0.13	-0.12
3.38	0.00	0.00	0.75	1.00	0.50	1.75	0.00	0.75	1.25	1.75	1.25	1.25	1.25	1.50	0.75	0.75	0.802246	0.935547	0.981445	-32.480000	-242.059998	-74.620003	166.00	0.11	-0.10	11.75	11.00	11.50	12.50	9.00	10.75	1.25	8.75	1.75	2.75	2.50	4.00	10.00	2.00	2.25	2.00	-0.103516	0.151855	0.953613	-6.650000	10.990000	-1.470000	1218.00	-0.12	-0.13
3.39	0.75	0.00	0.00	0.25	0.25	0.75	0.00	0.00	0.25	1.25	0.75	0.50	0.00	0.25	0.50	0.25	0.789062	0.947266	0.826172	38.009998	-247.309998	-86.940002	65.00	0.08	-0.05	10.75	10.25	10.75	12.00	9.00	10.75	1.25	9.00	2.00	3.00	3.00	4.25	10.25	2.50	2.25	2.25	-0.102539	0.157227	0.949707	-7.210000	10.920000	-2.800000	1211.00	-0.10	-0.13
3.40	0.50	0.50	1.25	0.50	0.75	1.00	0.00	0.00	0.50	1.00	0.25	0.50	0.25	1.25	0.75	0.75	0.695801	0.702637	0.964355	94.430000	-259.279999	-92.889999	107.00	0.03	-0.03	9.25	9.25	10.25	11.50	8.75	10.50	1.25	8.75	2.00	3.00	3.25	4.50	10.75	2.50	2.50	2.50	-0.110840	0.162109	0.953613	-9.800000	11.060000	-4.550000	1177.00	-0.09	-0.14
3.41	1.75	2.25	1.75	1.50	0.75	2.00	0.25	1.00	1.25	1.75	1.50	1.25	1.00	1.00	1.00	0.75	0.569336	0.567871	1.047363	120.470001	-275.309998	-88.410004	239.00	-0.02	-0.08	9.00	8.25	10.00	11.00	8.75	10.50	1.25	9.00	2.00	3.25	3.50	5.50	11.00	3.00	2.75	2.75	-0.125977	0.152344	0.968262	-9.800000	11.200000	-4.550000	1188.00	-0.08	-0.14
3.42	1.75	1.75	1.50	2.00	0.50	1.50	0.25	0.75	1.00	1.75	1.25	1.25	1.25	1.00	0.75	0.75	0.471680	0.457031	1.103027	112.419998	-292.950012	-72.730003	217.00	-0.02	-0.09	8.50	7.50	9.50	10.75	8.75	10.75	1.25	9.25	2.50	3.50	3.75	6.25	11.25	3.00	3.00	3.00	-0.129395	0.148438	0.969727	-8.610000	10.640000	-3.990000	1201.00	-0.06	-0.14
3.43	0.75	0.75	0.50	1.25	0.75	1.50	0.00	0.50	1.00	1.00	0.50	0.75	0.25	0.75	0.50	0.50	0.378906	0.491211	1.152832	85.470001	-309.890015	-48.860001	130.00	-0.00	-0.08	8.00	7.25	9.25	10.00	9.00	10.25	1.25	9.25	2.50	3.50	4.25	7.50	11.50	3.25	3.25	3.50	-0.117188	0.145996	0.962891	-8.050000	10.570000	-3.360000	1208.00	-0.05	-0.14
3.44	0.75	1.00	1.25	0.50	0.25	1.00	0.00	0.00	0.50	1.00	0.75	0.50	0.50	0.50	0.25	0.50	0.274414	0.580566	1.183105	55.510002	-324.799988	-21.840000	103.00	-0.03	-0.06	7.00	6.75	8.75	9.75	8.75	10.25	1.25	9.25	2.75	3.75	4.50	7.75	12.00	3.25	3.50	3.50	-0.125000	0.145020	0.966309	-8.120000	10.920000	-3.150000	1200.00	-0.04	-0.15
3.45	1.00	0.50	1.00	0.75	0.50	1.25	0.00	0.50	1.00	1.50	1.00	0.75	1.00	0.75	0.75	0.75	0.064941	0.726074	1.196289	33.389999	-351.049988	30.380001	148.00	0.04	-0.08	6.75	6.25	8.25	9.50	8.75	10.25	1.25	9.25	2.75	4.25	5.25	8.00	12.50	3.75	4.00	4.25	-0.127441	0.146484	0.961914	-7.420000	10.990000	-3.220000	1219.00	-0.03	-0.15
3.46	1.50	2.00	0.75	2.25	1.00	1.75	0.00	0.50	1.00	1.25	0.75	1.00	1.25	1.25	1.00	1.00	-0.050293	0.712891	1.191406	41.439999	-359.940002	51.869999	204.00	-0.03	-0.10	6.25	6.00	8.00	9.00	8.50	10.00	1.50	9.25	3.00	4.50	6.50	8.50	12.75	4.00	4.25	4.50	-0.124023	0.149414	0.954102	-7.070000	11.130000	-3.360000	1236.00	-0.01	-0.15
3.47	2.00	2.00	1.50	2.00	0.50	1.25	0.00	0.75	1.50	1.50	0.75	1.00	1.50	1.25	0.75	0.75	-0.144043	0.645020	1.222168	53.060001	-364.839996	69.720001	216.00	-0.03	-0.08	6.25	5.50	7.75	8.75	8.50	10.00	1.50	9.25	3.00	4.75	7.25	8.75	13.00	4.50	4.75	5.00	-0.129395	0.149414	0.952637	-7.070000	11.340000	-3.500000	1255.00	-0.00	-0.15
3.48	1.50	2.00	1.75	2.00	0.50	1.75	0.00	0.50	1.00	1.25	0.50	0.75	0.75	1.00	0.75	0.50	-0.225586	0.567383	1.293457	63.770000	-367.779999	84.070000	188.00	-0.06	-0.08	6.00	5.25	7.50	8.25	8.50	9.75	1.50	9.50	3.50	5.75	8.00	9.25	13.50	4.50	5.00	5.25	-0.128418	0.143066	0.957520	-6.860000	11.760000	-3.640000	1283.00	0.01	-0.15
3.49	1.75	2.00	2.25	1.75	0.25	1.50	0.00	0.50	1.00	1.00	0.50	0.50	1.25	1.00	0.75	0.50	-0.302246	0.472656	1.332520	71.820000	-369.250000	94.709999	187.00	-0.07	-0.08	5.50	5.00	7.00	8.00	8.25	9.75	1.50	9.50	4.00	6.50	8.25	9.50	13.75	5.00	5.50	5.50	-0.127930	0.140625	0.964844	-6.370000	12.040000	-3.640000	1299.00	0.02	-0.14
3.50	1.25	2.00	1.50	2.00	0.50	1.50	0.00	0.75	1.25	1.00	0.50	1.00	0.75	1.00	1.25	0.75	-0.385254	0.407715	1.367188	79.169998	-367.500000	101.220001	195.00	-0.03	-0.09	5.25	4.75	6.50	7.75	8.25	9.75	1.50	9.50	4.25	7.50	8.75	10.00	14.00	5.25	6.00	5.50	-0.132812	0.138672	0.962402	-5.530000	12.670000	-3.710000	1321.00	0.03	-0.14
3.51	1.50	1.75	1.75	2.00	0.50	1.75	0.00	0.50	1.25	1.25	0.50	0.75	1.00	1.25	0.75	0.75	-0.460938	0.338867	1.444336	88.410004	-361.829987	103.180000	196.00	-0.04	-0.08	5.00	4.25	6.25	7.50	8.00	9.50	1.50	9.50	4.50	7.75	9.00	10.50	14.50	5.75	6.25	6.00	-0.128906	0.141602	0.955078	-4.270000	13.160000	-3.850000	1331.00	0.04	-0.14
3.52	1.50	1.75	2.50	1.25	0.50	1.25	0.00	0.50	1.25	1.00	0.75	0.75	1.00	1.25	0.75	0.75	-0.533691	0.278809	1.571289	99.540001	-353.850006	100.800003	190.00	-0.04	-0.06	2.50	3.00	4.25	4.75	7.25	9.25	1.50	9.50	4.75	8.00	9.50	10.75	14.75	5.50	5.50	6.50	-0.138672	0.145508	0.973633	-2.030000	14.910000	-4.130000	1231.00	0.07	-0.15
3.53	2.00	2.00	1.50	1.75	0.75	2.00	0.00	0.75	1.00	1.25	0.75	0.75	1.25	0.50	0.50	0.50	-0.618652	0.224121	1.740234	109.340004	-346.709991	95.269997	198.00	-0.08	-0.10	4.50	3.50	5.25	6.00	7.50	8.75	1.50	9.25	5.00	8.25	9.75	11.00	14.00	5.75	6.00	6.00	-0.133301	0.140137	0.969238	-1.190000	16.030001	-4.620000	1289.00	0.06	-0.14
3.54	1.50	2.00	2.00	2.00	0.75	1.75	0.00	0.50	1.25	1.25	0.25	1.00	1.25	1.00	0.75	0.50	-0.727539	0.213379	1.894531	115.779999	-341.600006	88.129997	203.00	-0.06	-0.08	3.50	3.50	4.75	5.25	6.00	8.25	1.25	9.00	5.00	7.75	9.25	10.50	14.25	6.25	6.25	7.00	-0.133301	0.141113	0.965332	-0.210000	17.500000	-5.530000	1229.00	0.07	-0.15
3.55	1.75	2.50	1.75	2.75	0.50	1.50	0.00	0.25	1.50	1.00	0.50	0.75	1.00	1.00	0.75	0.50	-0.846680	0.303223	2.060059	113.889999	-335.510010	83.019997	205.00	-0.08	-0.07	2.00	1.25	3.00	3.50	5.75	7.50	1.25	8.75	5.50	8.00	10.00	11.25	15.00	8.00	7.50	7.75	-0.144531	0.147461	0.977051	0.070000	19.740000	-5.600000	1200.00	0.12	-0.15
3.56	1.75	2.00	2.00	2.00	0.50	1.50	0.00	0.75	1.00	0.50	0.50	0.75	1.00	1.25	0.00	0.75	-0.963379	0.519531	2.229980	96.250000	-329.420013	88.129997	185.00	-0.09	-0.09	1.75	1.50	2.75	3.75	5.25	7.25	1.25	8.75	5.00	8.25	10.25	11.50	14.75	7.75	7.00	7.75	-0.145020	0.141113	0.972168	-0.070000	21.559999	-5.390000	1182.00	0.12	-0.15
3.57	1.75	2.25	1.75	1.75	0.50	1.75	0.00	0.50	1.00	0.75	0.50	1.00	0.75	1.25	0.75	0.50	-1.089844	0.831543	2.518066	68.320000	-328.649994	108.849998	190.00	-0.07	-0.08	2.75	2.25	2.25	3.75	4.75	6.75	1.25	8.75	5.25	8.75	10.50	11.75	15.25	8.25	7.50	8.00	-0.149902	0.145508	0.959473	0.070000	23.170000	-5.880000	1214.00	0.12	-0.15
3.58	1.50	2.00	1.50	2.00	1.00	1.75	0.00	0.50	1.00	0.75	0.50	0.75	1.25	1.00	0.50	0.75	-1.187500	1.245605	2.838379	46.549999	-338.239990	144.970001	189.00	-0.07	-0.09	1.75	1.50	1.75	3.25	4.00	6.25	1.00	8.50	5.50	9.00	11.00	12.00	15.50	8.75	7.75	8.50	-0.162598	0.164551	0.958008	-0.210000	24.850000	-6.440000	1188.00	0.14	-0.15
3.59	1.50	1.75	1.75	1.50	0.75	1.75	0.00	0.75	1.00	0.75	0.75	1.00	0.75	1.25	0.50	0.75	-1.380371	1.597656	3.129395	42.910000	-355.670013	188.089996	188.00	-0.05	-0.09	1.25	1.00	1.00	2.25	3.25	5.75	1.00	8.25	6.25	9.50	11.25	12.50	15.75	9.75	8.00	8.75	-0.154785	0.152832	0.973633	-0.840000	26.530001	-8.120000	1178.00	0.16	-0.15
3.60	1.75	1.50	1.50	1.75	0.75	1.50	0.00	0.75	1.00	0.75	0.50	1.00	1.25	1.25	0.75	0.50	-2.460938	1.859863	2.866211	67.830002	-389.339996	257.320007	189.00	-0.04	-0.09	1.00	0.75	1.25	2.00	2.50	5.00	0.75	8.00	6.25	9.75	11.75	12.75	15.75	10.75	8.50	9.00	-0.143555	0.170410	0.958496	-1.680000	30.170000	-8.890000	1174.00	0.17	-0.15
3.61	1.75	2.25	2.00	1.50	1.00	1.50	0.00	0.75	1.25	0.75	0.50	0.50	1.25	1.25	0.50	0.50	-2.944824	1.084961	2.139648	134.470001	-392.700012	277.269989	197.00	-0.07	-0.07	1.00	0.25	1.00	1.50	2.00	4.50	0.75	8.00	6.75	10.00	12.00	13.00	15.75	11.50	8.75	9.25	-0.149902	0.149902	1.029785	-2.100000	33.740002	-10.570000	1175.00	0.19	-0.14
3.62	1.50	2.25	2.00	1.75	0.75	1.75	0.00	0.75	1.50	0.75	0.50	1.00	1.25	1.00	0.75	0.50	-4.044434	0.329590	1.714844	207.970001	-368.480011	278.880005	207.00	-0.06	-0.08	0.50	0.25	0.25	1.75	1.50	3.25	0.50	7.50	7.25	10.25	12.25	13.00	15.75	12.50	9.00	9.75	-0.176758	0.151367	0.986328	-0.350000	39.270000	-12.460000	1158.00	0.20	-0.14
3.63	2.00	1.75	2.00	2.00	0.75	1.50	0.00	0.75	1.00	0.50	0.75	1.00	1.25	1.50	1.00	0.75	-5.055664	-0.443359	0.965332	210.070007	-318.850006	271.390015	210.00	-0.05	-0.09	0.50	0.50	0.50	1.25	1.00	2.75	0.50	7.00	7.50	10.50	12.25	13.25	15.75	13.50	9.50	9.75	-0.197266	0.164062	0.968750	1.750000	45.290001	-13.300000	1162.00	0.21	-0.13
3.64	1.75	2.75	1.75	2.50	0.75	1.00	0.00	0.75	0.75	0.50	0.50	1.00	1.25	1.25	0.75	0.75	-5.720703	-0.960449	0.136719	154.279999	-259.980011	262.429993	202.00	-0.09	-0.10	0.25	0.25	0.50	0.75	0.75	1.75	0.25	6.25	7.50	10.50	12.50	13.50	15.50	14.50	9.75	10.00	-0.195801	0.147949	1.044434	10.290000	71.120003	-12.180000	1136.00	0.23	-0.13
3.65	1.75	2.25	2.25	2.25	0.75	1.75	0.00	1.00	1.25	0.50	0.50	1.00	1.50	1.00	0.50	0.75	-6.144043	-1.079590	-0.713379	76.580002	-192.639999	229.180008	218.00	-0.08	-0.10	0.00	0.25	0.00	1.00	0.50	1.25	0.25	5.50	7.50	10.50	12.75	13.50	15.00	15.50	10.25	10.25	-0.180664	0.109863	1.159668	17.990000	89.389999	-11.340000	1123.00	0.24	-0.12
