# time	left pressure 1[N/cm²]	left pressure 2[N/cm²]	left pressure 3[N/cm²]	left pressure 4[N/cm²]	left pressure 5[N/cm²]	left pressure 6[N/cm²]	left pressure 7[N/cm²]	left pressure 8[N/cm²]	left pressure 9[N/cm²]	left pressure 10[N/cm²]	left pressure 11[N/cm²]	left pressure 12[N/cm²]	left pressure 13[N/cm²]	left pressure 14[N/cm²]	left pressure 15[N/cm²]	left pressure 16[N/cm²]	left acceleration X[g]	left acceleration Y[g]	left acceleration Z[g]	left angular X[dps]	left angular Y[dps]	left angular Z[dps]	left total force[N]	left center of pressure X[%]	left center of pressure Y[%]	right pressure 1[N/cm²]	right pressure 2[N/cm²]	right pressure 3[N/cm²]	right pressure 4[N/cm²]	right pressure 5[N/cm²]	right pressure 6[N/cm²]	right pressure 7[N/cm²]	right pressure 8[N/cm²]	right pressure 9[N/cm²]	right pressure 10[N/cm²]	right pressure 11[N/cm²]	right pressure 12[N/cm²]	right pressure 13[N/cm²]	right pressure 14[N/cm²]	right pressure 15[N/cm²]	right pressure 16[N/cm²]	right acceleration X[g]	right acceleration Y[g]	right acceleration Z[g]	right angular X[dps]	right angular Y[dps]	right angular Z[dps]	right total force[N]	right center of pressure X[%]	right center of pressure Y[%]
0.00	1.50	0.50	1.25	0.50	0.00	0.25	0.00	0.50	0.00	0.50	0.50	0.00	0.00	0.25	0.00	0.00	-0.297363	0.047852	0.916504	-1.750000	1.750000	0.210000	75.00	-0.17	-0.04																									
0.01	1.50	0.50	1.25	0.00	0.00	0.00	0.00	0.25	0.00	0.75	0.25	0.00	0.00	0.00	0.25	0.00	-0.297363	0.050781	0.924316	-1.610000	1.680000	0.420000	61.00	-0.17	0.01																									
0.02	1.00	0.50	1.25	0.75	0.00	0.25	0.00	0.50	0.00	0.75	0.25	0.00	0.00	0.25	0.50	0.00	-0.300293	0.040527	0.915527	-1.750000	1.610000	0.350000	78.00	-0.11	-0.06																									
0.03	1.00	0.50	1.00	0.75	0.00	0.00	0.00	0.50	0.00	0.75	0.25	0.00	0.00	0.50	0.75	0.00	-0.295410	0.049316	0.929688	-1.680000	1.610000	0.350000	77.00	-0.06	-0.05																									
0.04	1.25	0.75	1.00	0.75	0.00	0.50	0.00	0.00	0.00	0.50	0.25	0.00	0.00	0.25	0.25	0.00	-0.301758	0.043945	0.923828	-1.470000	1.820000	0.350000	68.00	-0.18	-0.03	8.75	5.75	6.75	6.00	2.75	3.50	1.25	1.50	2.75	1.50	1.50	1.75	1.25	1.75	1.25	0.50	-0.261719	0.068848	0.921387	-2.520000	-6.790000	1.750000	624.00	-0.14	-0.04
0.05	1.25	0.50	1.00	0.50	0.00	0.50	0.00	0.00	0.00	0.75	0.25	0.25	0.00	0.50	0.50	0.00	-0.294434	0.050781	0.921875	-1.540000	1.960000	0.420000	74.00	-0.09	-0.02																									
0.06	1.25	0.50	1.00	0.25	0.00	0.50	0.00	0.75	0.25	0.75	0.50	0.25	0.00	0.25	0.00	0.00	-0.301758	0.045898	0.924805	-1.540000	2.030000	0.350000	83.00	-0.09	-0.07	8.75	5.75	6.75	6.00	2.75	3.75	1.25	1.75	2.25	1.75	2.00	2.00	1.50	1.25	1.00	0.75	-0.262695	0.069824	0.917969	-2.380000	-6.650000	1.750000	633.00	-0.14	-0.05
0.07	1.00	0.50	0.75	0.50	0.00	0.00	0.00	0.25	0.00	0.75	0.50	0.25	0.00	0.50	0.25	0.00	-0.304199	0.044922	0.924805	-1.470000	2.100000	0.280000	66.00	-0.06	-0.04	8.50	5.75	6.75	6.25	2.75	3.75	1.25	1.75	2.50	1.50	1.75	2.00	1.25	1.25	1.25	0.50	-0.267090	0.069824	0.919434	-2.310000	-6.440000	1.750000	629.00	-0.14	-0.05
0.08	1.00	0.50	1.25	0.25	0.00	0.50	0.00	1.25	0.00	0.50	0.25	0.00	0.00	0.50	0.75	0.00	-0.304199	0.044922	0.924805	-1.470000	2.100000	0.280000	91.00	-0.06	-0.10																									
0.09	1.25	0.50	1.00	0.25	0.00	0.00	0.00	0.75	0.25	0.50	0.25	0.25	0.00	0.50	0.25	0.00	-0.292969	0.041016	0.922363	-1.470000	2.100000	0.280000	76.00	-0.08	-0.04	8.50	5.75	6.75	6.00	2.75	3.75	1.25	1.50	2.25	1.50	2.00	2.00	1.25	1.50	1.25	0.50	-0.263184	0.063477	0.927734	-2.450000	-6.510000	1.750000	623.00	-0.14	-0.05
0.10	1.25	0.25	0.75	0.50	0.00	0.25	0.00	0.75	0.00	0.75	0.50	0.25	0.00	0.25	0.25	0.00	-0.300293	0.048340	0.927734	-1.400000	2.030000	0.420000	76.00	-0.08	-0.08																									
0.11	1.25	0.25	0.75	0.25	0.00	0.00	0.00	0.00	0.25	0.50	0.25	0.25	0.00	0.25	0.00	0.00	-0.297852	0.046875	0.932617	-1.540000	2.100000	0.280000	50.00	-0.12	0.04	8.75	5.75	6.75	6.00	2.75	3.75	1.25	1.50	2.50	1.75	1.75	2.00	1.50	1.50	1.00	0.50	-0.267578	0.067871	0.926758	-2.380000	-6.230000	1.750000	630.00	-0.14	-0.05
0.12	1.00	0.50	0.75	0.50	0.00	0.25	0.00	0.50	0.00	1.00	0.50	0.00	0.00	0.50	0.50	0.00	-0.295898	0.047852	0.922852	-1.470000	2.240000	0.210000	77.00	-0.04	-0.05	8.75	5.75	6.75	6.00	2.50	3.50	1.25	1.75	2.50	1.50	2.00	2.00	1.50	1.75	1.00	0.50	-0.265137	0.071777	0.928711	-2.450000	-6.020000	1.680000	630.00	-0.13	-0.05
0.13	1.00	0.50	0.75	0.50	0.00	0.00	0.00	0.50	0.25	0.75	0.25	0.25	0.00	0.25	0.50	0.00	-0.296387	0.048828	0.926270	-1.470000	2.170000	0.140000	72.00	-0.05	-0.05	8.75	5.50	6.75	6.25	2.75	3.75	1.25	1.50	2.50	1.50	2.25	1.75	1.75	1.50	0.75	0.50	-0.267090	0.068848	0.922363	-2.520000	-5.950000	1.750000	630.00	-0.14	-0.05
0.14	0.75	0.50	1.00	0.25	0.00	0.25	0.00	0.25	0.00	0.75	0.50	0.25	0.00	0.50	0.50	0.00	-0.305664	0.051270	0.929199	-1.330000	2.170000	0.070000	69.00	-0.03	-0.04	8.75	5.75	7.00	6.25	2.75	4.00	1.50	1.75	2.75	1.75	1.75	2.25	1.50	1.75	1.00	0.75	-0.266602	0.073730	0.924316	-2.660000	-6.160000	1.750000	660.00	-0.13	-0.05
0.15	1.25	0.50	1.00	0.50	0.00	0.25	0.00	1.00	0.25	0.75	0.25	0.00	0.00	0.50	0.75	0.00	-0.298340	0.048828	0.934570	-1.400000	2.170000	0.070000	93.00	-0.05	-0.07	8.75	6.25	6.75	6.25	2.75	3.50	1.25	1.75	2.25	1.75	2.00	2.00	1.75	1.50	1.00	0.75	-0.268555	0.064453	0.920898	-2.660000	-6.160000	1.820000	643.00	-0.14	-0.05
0.16	1.25	0.50	0.50	0.25	0.00	0.00	0.00	0.50	0.00	0.50	0.50	0.00	0.00	0.75	0.75	0.00	-0.299316	0.046875	0.925781	-1.330000	2.310000	0.070000	70.00	-0.02	-0.04	8.50	6.00	6.75	6.00	2.75	3.50	1.25	1.50	2.50	1.75	1.75	2.00	1.75	1.50	1.25	0.50	-0.262695	0.073730	0.924805	-2.590000	-6.370000	1.820000	632.00	-0.13	-0.05
0.17	1.00	0.50	1.00	0.50	0.00	0.50	0.00	0.75	0.25	1.00	0.25	0.00	0.00	0.25	0.75	0.00	-0.297363	0.047852	0.925781	-1.330000	2.240000	0.210000	89.00	-0.05	-0.06	8.75	6.00	6.75	6.00	2.75	3.75	1.50	1.50	2.75	1.75	2.00	2.00	1.50	1.75	1.00	0.50	-0.265137	0.064941	0.922852	-2.660000	-6.300000	1.680000	647.00	-0.13	-0.04
0.18	0.75	0.25	1.00	0.25	0.00	0.00	0.00	0.75	0.25	0.75	0.50	0.25	0.00	0.50	0.75	0.00	-0.303711	0.046387	0.930176	-1.330000	2.310000	0.280000	79.00	0.02	-0.05	8.50	5.75	6.75	6.00	2.75	3.75	1.25	1.75	2.75	1.75	2.25	2.00	1.75	1.75	1.25	0.75	-0.263672	0.069336	0.926758	-2.590000	-6.020000	1.540000	651.00	-0.12	-0.05
0.19	1.00	0.50	1.00	0.50	0.00	0.00	0.00	0.50	0.25	0.75	0.50	0.50	0.00	0.25	0.75	0.00	-0.311523	0.048828	0.931152	-1.400000	2.310000	0.280000	85.00	-0.02	-0.06	8.50	5.75	6.75	6.00	2.75	3.50	1.50	1.75	2.50	1.75	2.00	2.00	1.75	1.50	1.25	0.50	-0.269043	0.066895	0.921875	-2.590000	-5.880000	1.610000	641.00	-0.13	-0.05
0.20	1.00	0.50	1.25	0.25	0.00	0.25	0.00	0.75	0.00	0.50	0.25	0.75	0.00	0.50	0.25	0.00	-0.307617	0.047852	0.926270	-1.400000	2.380000	0.070000	82.00	-0.07	-0.09	8.50	5.75	6.75	6.00	2.75	3.75	1.50	1.50	2.00	1.75	2.00	2.00	1.75	2.25	1.25	0.50	-0.262207	0.077637	0.921387	-2.590000	-5.880000	1.540000	640.00	-0.13	-0.05
0.21	1.25	0.50	1.00	0.50	0.00	0.00	0.00	1.00	0.25	0.75	0.50	0.50	0.00	0.50	0.75	0.25	-0.307617	0.050781	0.931152	-1.540000	2.450000	0.070000	101.00	-0.02	-0.08	8.25	5.75	6.75	6.25	2.75	3.50	1.50	1.75	2.75	1.75	2.00	2.00	1.50	1.75	1.00	0.50	-0.273926	0.068359	0.926758	-2.660000	-5.810000	1.610000	642.00	-0.13	-0.05
0.22	0.50	0.25	0.50	0.50	0.00	0.00	0.00	1.00	0.25	0.75	0.50	0.25	0.00	0.25	0.50	0.00	-0.304199	0.050781	0.929199	-1.470000	2.310000	0.140000	72.00	0.02	-0.11	8.50	5.75	6.75	6.00	2.75	3.75	1.25	1.75	2.75	1.75	2.25	2.00	1.75	1.75	1.00	0.75	-0.260742	0.064941	0.923340	-2.660000	-5.880000	1.610000	648.00	-0.12	-0.05
0.23	0.75	0.00	0.75	0.00	0.00	0.00	0.00	0.75	0.25	1.00	0.50	0.50	0.00	0.50	0.25	0.00	-0.303711	0.051270	0.925293	-1.610000	2.240000	0.140000	70.00	0.05	-0.05	8.50	5.50	6.75	6.00	2.75	3.75	1.50	1.50	2.50	1.75	2.00	2.25	1.75	1.75	0.75	0.75	-0.269043	0.063965	0.930664	-2.660000	-5.740000	1.680000	638.00	-0.13	-0.05
0.24	0.75	0.25	1.00	0.25	0.00	0.25	0.00	0.50	0.25	1.25	0.50	0.25	0.00	0.50	0.50	0.00	-0.300293	0.046875	0.927734	-1.680000	2.170000	0.140000	81.00	0.02	-0.03	8.25	5.75	6.75	6.00	2.75	3.50	1.50	1.75	2.75	1.75	2.25	2.25	1.75	1.75	1.00	0.50	-0.264160	0.069824	0.922363	-2.730000	-5.810000	1.610000	648.00	-0.12	-0.05
0.25	0.75	0.50	1.00	0.25	0.00	0.00	0.00	0.50	0.25	0.75	0.50	0.25	0.00	0.50	0.50	0.00	-0.305176	0.048340	0.932129	-1.750000	2.240000	0.000000	75.00	-0.01	-0.04	8.50	5.50	6.75	6.00	2.75	3.50	1.50	1.75	2.75	1.75	2.00	2.25	1.75	1.75	1.00	0.50	-0.268066	0.069824	0.925293	-2.660000	-5.880000	1.610000	645.00	-0.12	-0.05
0.26	0.75	0.25	0.50	0.00	0.00	0.25	0.25	1.25	0.00	0.75	0.25	0.50	0.00	0.50	0.50	0.25	-0.310059	0.051270	0.927734	-1.750000	1.890000	0.140000	81.00	0.03	-0.12	8.50	5.50	6.75	6.00	3.00	3.50	1.50	1.75	3.25	1.75	2.25	2.25	1.75	1.50	1.00	0.75	-0.268066	0.076660	0.926758	-2.800000	-5.810000	1.610000	658.00	-0.12	-0.04
0.27	0.75	0.25	0.50	0.00	0.00	0.00	0.00	0.75	0.25	0.75	0.50	0.25	0.00	0.50	0.75	0.00	-0.304199	0.047852	0.929199	-1.890000	1.750000	0.280000	69.00	0.06	-0.06	8.50	5.50	6.75	6.00	2.75	3.75	1.50	1.75	2.75	1.75	2.25	2.25	2.00	1.75	1.00	0.50	-0.267090	0.070801	0.918457	-2.800000	-5.880000	1.610000	654.00	-0.12	-0.05
0.28	1.00	0.00	1.00	0.25	0.00	0.00	0.00	0.50	0.25	0.75	0.50	0.25	0.00	0.75	0.00	0.00	-0.301758	0.050781	0.928711	-1.890000	1.750000	0.280000	68.00	-0.02	-0.01	8.25	5.25	6.75	6.00	2.75	3.75	1.50	1.75	2.50	2.00	2.25	2.25	2.00	1.75	1.50	0.50	-0.265137	0.064941	0.927246	-2.800000	-5.880000	1.610000	653.00	-0.11	-0.05
0.29	1.00	0.50	1.00	0.25	0.00	0.25	0.00	0.50	0.00	1.00	0.50	0.25	0.00	0.50	0.50	0.00	-0.309082	0.052734	0.925293	-1.890000	1.680000	0.350000	80.00	-0.03	-0.05	8.25	5.25	6.75	6.00	2.75	3.75	1.50	1.75	2.75	2.00	2.25	2.25	1.75	2.00	1.25	0.50	-0.269531	0.069336	0.927734	-2.870000	-5.950000	1.680000	654.00	-0.11	-0.05
0.30	0.50	0.25	1.00	0.00	0.00	0.50	0.00	0.75	0.25	0.75	0.50	0.25	0.00	0.50	0.50	0.00	-0.304688	0.047363	0.925293	-1.890000	1.680000	0.280000	76.00	0.02	-0.07	8.50	5.25	6.75	5.75	2.75	3.50	1.50	1.75	3.00	2.00	2.25	2.00	1.50	1.75	1.25	0.75	-0.269531	0.066406	0.922852	-2.940000	-6.020000	1.680000	648.00	-0.11	-0.04
0.31	1.00	0.25	0.50	0.00	0.00	0.00	0.00	0.25	0.25	0.75	0.50	0.25	0.00	0.50	0.50	0.00	-0.304688	0.048828	0.930664	-2.030000	1.680000	0.140000	60.00	0.03	0.00	8.25	5.50	6.75	5.75	2.75	3.75	1.50	1.75	3.00	2.25	2.25	2.25	1.75	1.50	1.00	0.50	-0.267090	0.072754	0.916016	-2.870000	-6.020000	1.680000	653.00	-0.12	-0.05
0.32	0.50	0.00	0.50	0.25	0.00	0.00	0.00	0.50	0.50	0.75	0.75	0.50	0.00	0.50	0.75	0.00	-0.302734	0.050781	0.928223	-2.030000	1.470000	0.210000	73.00	0.11	-0.04	8.25	5.50	6.50	5.75	2.75	3.50	1.50	1.75	3.25	1.50	2.50	2.50	2.00	1.75	1.25	0.75	-0.271973	0.067871	0.927734	-2.940000	-6.020000	1.610000	657.00	-0.11	-0.05
0.33	0.75	0.00	0.75	0.00	0.00	0.25	0.00	0.50	0.00	1.00	0.50	0.25	0.00	0.75	1.00	0.00	-0.302734	0.050781	0.928223	-2.030000	1.470000	0.210000	74.00	0.09	-0.04	8.50	5.25	6.75	5.75	2.75	3.50	1.50	1.75	3.00	1.75	2.25	2.25	1.75	1.75	1.00	0.75	-0.268555	0.068848	0.923340	-2.870000	-6.020000	1.610000	648.00	-0.12	-0.04
0.34	0.50	0.25	0.75	0.00	0.00	0.25	0.00	0.50	0.25	1.00	0.25	0.50	0.00	0.50	0.50	0.00	-0.300293	0.050293	0.930176	-2.030000	1.540000	0.210000	68.00	0.05	-0.05	8.25	5.25	6.50	5.75	2.75	3.50	1.50	1.50	3.00	2.00	2.50	2.50	1.75	2.00	1.25	0.50	-0.268555	0.068848	0.921875	-2.800000	-6.020000	1.680000	650.00	-0.11	-0.04
0.35	0.75	0.00	1.00	0.25	0.00	0.50	0.00	0.75	0.50	1.00	0.50	0.50	0.00	0.25	0.50	0.00	-0.302734	0.050781	0.934570	-1.820000	1.610000	0.210000	88.00	0.02	-0.06	8.50	5.50	6.75	5.75	2.75	3.50	1.50	1.75	3.50	2.25	2.25	2.25	2.00	2.00	1.00	0.75	-0.268555	0.065430	0.929199	-2.800000	-6.020000	1.540000	669.00	-0.11	-0.04
0.36	0.50	0.00	0.50	0.25	0.00	0.50	0.00	0.25	0.25	1.00	0.50	0.25	0.00	0.50	0.75	0.00	-0.306641	0.050293	0.929688	-1.820000	1.610000	0.140000	67.00	0.08	-0.04	8.75	5.25	6.75	5.75	2.75	3.50	1.50	1.75	3.00	2.00	2.50	2.25	1.75	1.75	1.50	0.50	-0.271484	0.070312	0.923340	-2.800000	-6.020000	1.610000	662.00	-0.11	-0.04
0.37	0.50	0.25	0.50	0.25	0.00	0.50	0.00	0.50	0.00	1.00	0.50	0.25	0.00	0.00	0.50	0.00	-0.306152	0.050293	0.929199	-1.890000	1.680000	0.140000	63.00	0.00	-0.11	8.50	5.00	6.75	5.75	2.75	3.25	1.50	1.75	3.00	2.00	2.50	2.50	2.00	1.75	1.00	0.50	-0.264648	0.072266	0.927246	-2.800000	-6.300000	1.680000	652.00	-0.11	-0.04
0.38	0.75	0.25	0.75	0.25	0.00	0.00	0.00	0.75	0.25	1.00	0.50	0.50	0.00	0.75	0.25	0.00	-0.299316	0.048340	0.930664	-1.960000	1.610000	0.140000	79.00	0.03	-0.05	8.25	5.50	6.50	5.75	2.75	3.50	1.50	1.75	3.50	2.00	2.25	2.50	2.00	2.00	1.25	0.75	-0.264648	0.072266	0.927246	-2.800000	-6.300000	1.680000	666.00	-0.10	-0.04
0.39	0.50	0.25	0.75	0.25	0.00	0.00	0.00	0.50	0.25	0.75	0.25	0.25	0.00	0.25	0.75	0.00	-0.299805	0.048340	0.931641	-2.100000	1.610000	0.070000	63.00	0.03	-0.05	8.00	5.50	6.50	5.75	2.75	3.50	1.50	1.75	3.25	1.75	2.75	2.50	1.75	2.00	1.25	0.50	-0.267090	0.068848	0.921875	-2.800000	-6.230000	1.750000	658.00	-0.10	-0.05
0.40	0.50	0.25	0.75	0.25	0.00	0.00	0.00	0.75	0.25	1.00	0.50	0.50	0.00	0.25	0.75	0.00	-0.301270	0.053711	0.926270	-2.100000	1.470000	0.210000	77.00	0.05	-0.08	8.25	5.50	6.75	5.75	2.75	3.25	1.50	1.75	3.25	2.00	2.50	2.25	2.00	2.00	1.25	0.75	-0.271484	0.070312	0.923828	-2.870000	-6.510000	1.750000	662.00	-0.10	-0.04
0.41	0.75	0.25	0.50	0.25	0.00	0.50	0.00	0.75	0.25	0.50	0.50	0.50	0.00	0.50	1.00	0.00	-0.304688	0.050293	0.927246	-2.240000	1.610000	0.140000	82.00	0.04	-0.10	8.25	5.75	6.75	6.00	3.00	3.50	1.50	1.75	3.00	1.75	2.50	2.50	2.00	1.75	1.25	0.50	-0.266113	0.066406	0.929688	-2.870000	-6.370000	1.750000	667.00	-0.11	-0.05
0.42	0.50	0.50	0.50	0.25	0.00	0.00	0.00	0.75	0.00	0.75	0.50	0.25	0.25	0.50	0.50	0.00	-0.306641	0.055176	0.930176	-2.100000	1.330000	0.070000	68.00	0.03	-0.11	8.25	5.50	6.50	6.00	2.75	3.50	1.50	1.50	3.25	2.25	2.50	2.25	1.75	2.00	1.00	0.75	-0.269531	0.070801	0.925293	-2.800000	-6.510000	1.610000	658.00	-0.11	-0.04
0.43	0.75	0.25	0.75	0.00	0.00	0.00	0.00	0.50	0.00	0.75	0.25	0.25	0.00	0.25	0.75	0.00	-0.304199	0.046875	0.929688	-2.170000	1.330000	0.210000	59.00	0.01	-0.05	8.25	5.50	6.50	6.00	2.75	3.25	1.50	1.75	3.00	2.00	2.50	2.50	2.00	2.00	1.25	0.75	-0.272949	0.072266	0.922363	-2.870000	-6.440000	1.680000	662.00	-0.11	-0.05
0.44	0.75	0.25	1.00	0.25	0.00	0.25	0.25	1.00	0.50	1.00	0.50	0.25	0.00	0.50	0.50	0.00	-0.304199	0.048340	0.931152	-2.240000	1.470000	0.070000	96.00	0.02	-0.04	8.50	5.50	6.75	6.00	2.75	3.50	1.75	1.75	3.50	1.75	2.50	2.25	1.75	2.25	1.00	0.75	-0.269531	0.070312	0.921387	-2.800000	-6.650000	1.820000	674.00	-0.11	-0.04
0.45	0.75	0.25	0.75	0.25	0.00	0.25	0.00	0.50	0.25	0.75	0.75	0.25	0.00	0.50	0.50	0.00	-0.299316	0.043457	0.931152	-2.240000	1.400000	0.000000	75.00	0.02	-0.05	8.50	5.50	6.75	6.00	2.75	3.50	1.75	1.75	3.25	2.00	2.25	2.25	2.00	2.00	1.25	0.75	-0.270508	0.065918	0.923828	-2.870000	-6.720000	1.820000	673.00	-0.11	-0.04
0.46	0.75	0.00	0.75	0.25	0.00	0.25	0.00	1.00	0.25	0.75	0.50	0.25	0.00	0.50	1.25	0.00	-0.301758	0.051270	0.929688	-2.100000	1.260000	0.210000	87.00	0.07	-0.08	8.50	5.50	6.75	6.00	2.75	3.50	1.50	1.75	3.25	2.00	2.50	2.25	1.75	2.00	1.00	0.50	-0.267578	0.074707	0.921875	-2.800000	-6.650000	1.680000	665.00	-0.11	-0.04
0.47	0.75	0.25	1.00	0.00	0.00	0.00	0.25	0.00	0.25	1.00	0.50	0.25	0.00	0.50	0.75	0.00	-0.307129	0.052734	0.932617	-2.170000	1.120000	0.210000	70.00	0.06	0.05	8.50	5.75	6.75	5.75	2.75	3.50	1.75	1.75	3.25	2.00	2.50	2.50	1.75	2.00	1.00	0.75	-0.272949	0.072266	0.926758	-2.730000	-6.510000	1.680000	673.00	-0.11	-0.04
0.48	0.75	0.50	0.75	0.25	0.00	0.00	0.00	0.75	0.50	0.75	0.50	0.50	0.00	0.50	0.25	0.00	-0.308105	0.046875	0.931641	-2.100000	0.980000	0.280000	80.00	0.01	-0.05	8.25	5.50	6.50	5.75	2.75	3.25	1.50	1.75	3.50	2.00	2.50	2.50	2.00	2.25	1.00	0.50	-0.271973	0.070312	0.926758	-2.660000	-6.510000	1.890000	664.00	-0.10	-0.04
0.49	0.50	0.25	0.75	0.25	0.00	0.50	0.00	0.75	0.50	1.00	0.50	0.25	0.00	0.50	0.50	0.00	-0.303711	0.043945	0.935547	-2.100000	0.840000	0.490000	83.00	0.04	-0.06	8.25	5.50	6.50	5.75	2.75	3.25	1.50	1.75	2.75	2.00	2.25	2.50	1.75	2.00	1.25	0.75	-0.269043	0.067383	0.927734	-2.660000	-6.510000	1.890000	649.00	-0.11	-0.05
0.50	0.50	0.25	0.75	0.25	0.00	0.00	0.00	0.75	0.25	1.00	0.50	0.25	0.00	0.50	0.75	0.00	-0.298340	0.049316	0.929199	-2.170000	0.910000	0.420000	76.00	0.06	-0.06	8.25	5.50	6.75	5.75	2.75	3.50	1.75	1.75	3.25	2.25	2.50	2.00	1.75	2.25	1.25	0.75	-0.268066	0.067871	0.923340	-2.590000	-6.440000	1.890000	670.00	-0.10	-0.04
0.51	0.75	0.50	1.00	0.50	0.00	0.00	0.00	0.75	0.25	0.75	0.75	0.25	0.00	0.50	0.50	0.00	-0.302246	0.045410	0.931152	-2.170000	0.840000	0.560000	85.00	-0.01	-0.06	8.25	5.50	6.75	5.75	2.75	3.50	1.75	1.75	3.50	2.00	2.25	2.25	2.00	2.00	1.25	0.50	-0.267090	0.071777	0.925293	-2.660000	-6.510000	1.960000	669.00	-0.10	-0.04
0.52	0.50	0.25	0.75	0.50	0.00	0.50	0.00	0.50	0.00	1.00	0.50	0.50	0.00	0.50	0.50	0.00	-0.305176	0.047852	0.925293	-2.100000	0.840000	0.490000	77.00	0.01	-0.09	8.25	5.50	6.75	5.75	2.75	3.50	1.75	1.75	3.50	2.00	2.50	2.50	1.75	1.75	1.50	0.75	-0.269043	0.067871	0.925781	-2.660000	-6.650000	1.890000	675.00	-0.10	-0.04
0.53	0.50	0.25	1.00	0.25	0.00	0.75	0.00	0.75	0.25	1.00	0.50	0.50	0.00	0.50	0.75	0.00	-0.304688	0.051758	0.931152	-2.030000	0.910000	0.560000	92.00	0.03	-0.09	8.25	5.50	6.75	6.00	2.75	3.25	1.50	1.75	3.25	2.00	2.50	2.25	2.00	2.25	1.25	0.50	-0.266113	0.067383	0.922852	-2.590000	-6.650000	1.890000	667.00	-0.10	-0.04
0.54	0.75	0.00	1.00	0.00	0.00	0.25	0.00	0.75	0.25	0.75	0.50	0.25	0.00	0.50	0.50	0.00	-0.307617	0.051270	0.930664	-2.170000	0.980000	0.560000	74.00	0.03	-0.05	8.25	5.75	6.75	5.75	2.50	3.25	1.50	1.75	3.00	2.00	2.25	2.25	2.00	1.75	1.00	0.75	-0.264648	0.067383	0.923340	-2.590000	-6.650000	1.820000	649.00	-0.11	-0.05
0.55	0.75	0.50	0.75	0.25	0.00	0.25	0.00	0.75	0.25	1.00	0.50	0.25	0.00	0.50	0.50	0.00	-0.305664	0.053223	0.937012	-2.170000	1.190000	0.560000	82.00	0.00	-0.07	8.50	5.75	6.75	5.75	3.00	3.25	1.75	1.75	2.75	2.00	2.50	2.25	1.75	2.00	1.25	0.75	-0.263672	0.068359	0.917969	-2.800000	-6.790000	1.820000	666.00	-0.11	-0.04
0.56	0.75	0.50	0.50	0.00	0.00	0.25	0.00	0.50	0.25	0.75	0.25	0.25	0.00	0.50	0.75	0.00	-0.309570	0.048828	0.930176	-2.100000	1.050000	0.350000	68.00	0.03	-0.05	8.25	5.75	6.75	5.75	2.50	3.50	1.50	1.75	3.75	2.00	2.50	2.25	2.00	2.00	1.25	0.50	-0.269531	0.070312	0.921387	-2.660000	-6.650000	1.750000	671.00	-0.10	-0.04
0.57	0.50	0.00	0.50	0.50	0.00	0.00	0.00	0.75	0.25	0.75	0.25	0.25	0.00	0.50	0.50	0.00	-0.306152	0.047852	0.930176	-1.960000	0.980000	0.420000	64.00	0.05	-0.08	8.50	5.75	7.00	6.00	2.75	3.25	1.75	1.75	3.00	2.00	2.25	2.50	1.75	2.00	1.25	0.75	-0.268555	0.065918	0.923340	-2.660000	-6.720000	1.820000	673.00	-0.11	-0.04
0.58	0.75	0.00	0.75	0.25	0.00	0.00	0.00	1.00	0.00	0.75	0.25	0.25	0.00	0.50	0.75	0.00	-0.301758	0.048340	0.929688	-2.100000	1.190000	0.420000	71.00	0.03	-0.09	8.50	5.75	7.00	6.00	2.75	3.50	1.75	1.75	3.25	2.00	2.50	2.25	2.00	1.75	1.25	0.50	-0.264648	0.071289	0.924805	-2.660000	-6.930000	1.890000	678.00	-0.11	-0.04
0.59	0.50	0.25	0.75	0.25	0.00	0.25	0.00	0.75	0.25	1.00	0.50	0.50	0.00	0.25	0.50	0.00	-0.307129	0.051270	0.932617	-2.240000	1.120000	0.420000	77.00	0.03	-0.09	8.50	5.50	6.75	5.75	2.75	3.75	1.50	1.75	3.25	2.00	2.50	2.50	1.75	2.00	1.25	0.50	-0.267578	0.078125	0.927734	-2.800000	-7.000000	1.820000	671.00	-0.11	-0.04
0.60	0.75	0.50	0.75	0.50	0.00	0.00	0.00	0.75	0.25	1.00	0.25	0.25	0.00	0.50	0.75	0.00	-0.304688	0.050781	0.928223	-2.170000	0.980000	0.490000	82.00	0.01	-0.06	8.50	5.75	6.75	6.00	2.75	3.25	1.50	1.75	3.25	2.00	2.50	2.50	1.75	2.00	1.25	0.75	-0.263184	0.067383	0.920410	-2.800000	-6.860000	1.820000	672.00	-0.11	-0.04
0.61	0.75	0.00	0.75	0.25	0.00	0.50	0.00	0.25	0.00	0.75	0.50	0.50	0.00	0.50	0.25	0.00	-0.305176	0.045410	0.931641	-2.170000	1.120000	0.350000	64.00	-0.00	-0.06	8.50	5.50	7.00	6.00	2.75	3.50	1.75	1.75	3.25	2.00	2.25	2.25	1.75	1.75	1.25	0.50	-0.262207	0.068359	0.921875	-2.730000	-6.860000	1.820000	670.00	-0.11	-0.04
0.62	0.75	0.00	0.75	0.25	0.00	0.25	0.00	0.75	0.25	1.00	0.50	0.50	0.00	0.50	0.50	0.00	-0.304688	0.055664	0.928223	-2.170000	1.120000	0.420000	80.00	0.04	-0.07	8.25	5.50	6.75	6.25	2.75	3.25	1.50	1.75	3.25	2.00	2.50	2.25	1.75	2.00	1.25	0.50	-0.268066	0.071777	0.921387	-2.730000	-6.930000	1.750000	665.00	-0.11	-0.04
0.63	0.75	0.50	1.00	0.25	0.00	0.00	0.00	0.25	0.00	0.75	0.25	0.25	0.00	0.75	0.75	0.00	-0.304199	0.051758	0.934570	-2.170000	1.050000	0.420000	69.00	-0.00	-0.02	8.75	5.75	7.00	6.25	2.75	3.50	1.50	1.75	3.00	2.00	2.50	2.25	1.75	1.75	1.00	0.50	-0.268066	0.069824	0.919922	-2.660000	-7.000000	1.820000	671.00	-0.12	-0.04
0.64	1.00	0.25	0.50	0.50	0.00	0.50	0.00	0.50	0.00	1.00	0.50	0.25	0.00	0.25	0.75	0.00	-0.302734	0.048340	0.925293	-2.310000	0.910000	0.350000	78.00	-0.01	-0.08	8.75	5.75	7.00	6.25	2.75	3.50	1.50	1.75	3.25	2.00	2.25	2.25	1.75	2.00	1.00	0.50	-0.268066	0.069824	0.917969	-2.660000	-6.930000	1.960000	674.00	-0.12	-0.04
0.65	0.75	0.25	1.00	0.00	0.00	0.75	0.00	0.50	0.25	0.75	0.25	0.00	0.00	0.50	0.75	0.00	-0.306152	0.048828	0.930664	-2.380000	0.980000	0.280000	75.00	-0.00	-0.04	8.50	5.75	7.00	6.00	2.50	3.25	1.75	1.50	2.50	2.00	2.50	2.00	1.75	2.00	1.00	0.50	-0.264648	0.073730	0.928223	-2.660000	-7.000000	1.890000	649.00	-0.12	-0.04
0.66	0.75	0.25	0.75	0.25	0.00	0.25	0.00	0.50	0.25	0.75	0.50	0.25	0.00	0.50	0.25	0.00	-0.306641	0.054199	0.932129	-2.310000	0.980000	0.280000	69.00	-0.01	-0.05	8.50	5.75	7.00	6.25	2.75	3.50	1.50	1.75	3.00	2.00	2.50	2.00	1.75	2.25	1.00	0.75	-0.267090	0.072754	0.923828	-2.590000	-6.790000	1.890000	671.00	-0.12	-0.04
0.67	0.75	0.00	0.50	0.25	0.00	0.00	0.00	0.25	0.25	1.00	0.50	0.25	0.00	0.50	0.75	0.00	-0.304688	0.050781	0.932129	-2.380000	1.050000	0.210000	64.00	0.09	-0.01	8.75	5.75	7.00	6.25	2.75	3.25	1.50	1.75	3.00	2.00	2.50	2.25	1.75	2.00	1.00	0.50	-0.267578	0.070801	0.922852	-2.660000	-6.860000	1.890000	670.00	-0.12	-0.04
0.68	0.75	0.00	0.75	0.25	0.00	0.50	0.25	1.25	0.00	0.75	0.50	0.25	0.00	0.25	0.75	0.00	-0.302246	0.051270	0.934570	-2.450000	1.050000	0.280000	87.00	0.01	-0.11	8.75	5.75	7.00	6.25	2.75	3.50	1.50	1.75	2.75	2.00	2.25	2.25	1.75	1.75	1.00	0.50	-0.263672	0.066895	0.920898	-2.590000	-6.720000	1.890000	664.00	-0.12	-0.05
0.69	0.75	0.50	1.00	0.00	0.00	0.25	0.00	0.75	0.25	0.75	0.50	0.00	0.00	0.50	0.50	0.00	-0.306152	0.048828	0.925293	-2.520000	0.910000	0.420000	76.00	-0.01	-0.05	8.50	6.25	7.00	6.25	2.50	3.75	1.50	1.75	3.00	2.00	2.25	2.00	1.75	2.00	1.25	0.50	-0.263184	0.074707	0.923828	-2.520000	-6.720000	1.960000	672.00	-0.12	-0.05
0.70	0.75	0.25	0.75	0.00	0.00	0.00	0.00	0.50	0.50	0.75	0.50	0.50	0.00	0.25	0.25	0.00	-0.303223	0.048340	0.928223	-2.730000	1.050000	0.350000	67.00	0.02	-0.03	8.50	5.75	7.00	6.25	2.75	3.50	1.50	1.75	3.00	2.00	2.25	2.50	1.75	1.75	1.25	0.50	-0.266602	0.070312	0.920898	-2.520000	-6.720000	1.820000	671.00	-0.12	-0.05
0.71	0.50	0.00	0.75	0.25	0.00	0.00	0.00	0.25	0.25	1.00	0.50	0.25	0.00	0.50	0.75	0.00	-0.302734	0.047363	0.931152	-2.660000	0.980000	0.350000	64.00	0.09	-0.01	8.50	5.75	7.00	6.25	2.75	3.75	1.50	1.75	2.75	2.00	2.50	2.50	1.50	1.75	1.25	0.75	-0.270996	0.068359	0.922852	-2.450000	-6.650000	1.820000	672.00	-0.12	-0.05
0.72	0.75	0.25	0.75	0.00	0.00	0.25	0.00	0.75	0.25	0.75	0.50	0.25	0.00	0.25	0.50	0.00	-0.300781	0.054688	0.929688	-2.590000	1.050000	0.280000	70.00	0.01	-0.07	8.75	5.75	7.00	6.25	2.75	3.50	1.50	1.75	3.25	2.00	2.50	2.25	1.75	1.75	1.00	0.75	-0.265137	0.076660	0.916992	-2.520000	-6.650000	1.960000	676.00	-0.12	-0.04
0.73	0.75	0.25	0.75	0.25	0.00	0.25	0.00	0.50	0.25	0.75	0.25	0.25	0.00	0.00	0.75	0.00	-0.303711	0.045410	0.937012	-2.660000	1.050000	0.350000	67.00	-0.01	-0.06	8.75	6.00	7.00	6.25	2.75	3.25	1.50	1.75	3.00	2.00	2.50	2.25	1.75	2.00	1.25	0.50	-0.269043	0.073730	0.924805	-2.590000	-6.720000	1.890000	676.00	-0.12	-0.04
0.74	1.00	0.25	0.50	0.50	0.00	0.00	0.00	0.75	0.00	0.75	0.25	0.25	0.00	0.25	0.25	0.00	-0.308594	0.047852	0.931152	-2.730000	0.980000	0.350000	63.00	-0.06	-0.09	8.75	5.75	7.00	6.25	2.75	3.50	1.50	1.75	2.75	2.00	2.25	2.25	2.00	2.00	1.50	0.50	-0.265625	0.068359	0.922363	-2.590000	-6.650000	1.890000	675.00	-0.12	-0.05
0.75	1.00	0.50	0.75	0.25	0.00	0.00	0.00	0.75	0.00	0.75	0.50	0.25	0.25	0.50	0.50	0.00	-0.302734	0.050781	0.930664	-2.800000	0.910000	0.350000	77.00	-0.02	-0.09	8.50	6.00	7.00	6.25	2.75	3.50	1.50	1.75	3.25	2.00	2.50	2.00	1.75	1.75	1.25	0.75	-0.271484	0.071289	0.922852	-2.520000	-6.650000	1.890000	676.00	-0.12	-0.04
0.76	0.75	0.00	0.50	0.25	0.00	0.25	0.00	0.50	0.00	0.75	0.25	0.25	0.00	0.75	0.50	0.00	-0.303223	0.046875	0.931641	-2.730000	0.910000	0.350000	61.00	0.04	-0.06	8.75	6.00	7.00	6.25	2.75	3.50	1.50	1.75	3.00	2.00	2.25	2.25	1.75	1.75	1.25	0.50	-0.268555	0.069824	0.924316	-2.450000	-6.650000	1.820000	673.00	-0.12	-0.04
0.77	1.00	0.75	0.75	0.25	0.00	1.00	0.00	0.50	0.00	1.00	0.25	0.50	0.00	0.00	0.75	0.00	-0.307129	0.050781	0.928711	-2.730000	0.910000	0.350000	87.00	-0.06	-0.11	9.00	5.75	7.25	6.25	2.75	3.50	1.50	1.75	3.00	2.00	2.50	2.25	1.75	1.75	1.00	0.75	-0.267090	0.073730	0.918945	-2.380000	-6.650000	1.820000	679.00	-0.12	-0.04
0.78	1.00	0.50	0.50	0.00	0.00	0.00	0.00	0.50	0.25	0.75	0.25	0.25	0.00	0.50	0.50	0.00	-0.303223	0.050293	0.930664	-2.730000	0.910000	0.350000	65.00	0.00	-0.03	9.00	5.75	7.00	6.50	2.75	3.25	1.50	1.75	2.75	2.00	2.50	2.25	1.50	2.00	1.25	0.50	-0.270020	0.068848	0.924805	-2.380000	-6.440000	1.890000	673.00	-0.12	-0.04
0.79	0.75	0.25	1.00	0.50	0.00	0.50	0.00	1.00	0.25	0.75	0.25	0.00	0.00	0.50	0.50	0.00	-0.303223	0.050781	0.937012	-2.730000	0.840000	0.280000	84.00	-0.03	-0.08	8.75	6.00	7.00	6.25	2.75	3.75	1.50	1.75	3.00	1.75	2.50	2.25	1.75	1.75	1.00	0.50	-0.267090	0.067383	0.929688	-2.450000	-6.580000	1.890000	674.00	-0.12	-0.05
0.80	0.50	0.50	0.75	0.25	0.00	0.00	0.00	0.00	0.25	0.75	0.25	0.25	0.00	0.50	0.50	0.00	-0.299805	0.050293	0.934570	-2.870000	0.840000	0.420000	56.00	0.02	0.01	9.00	5.75	7.25	6.50	2.75	3.50	1.50	1.75	3.00	1.75	2.50	2.25	2.00	2.25	1.00	0.50	-0.262207	0.073242	0.923828	-2.380000	-6.720000	1.820000	685.00	-0.12	-0.04
0.81	0.75	0.00	0.75	0.25	0.00	0.25	0.00	0.75	0.25	0.75	0.25	0.00	0.00	0.00	0.50	0.00	-0.303711	0.053223	0.935547	-2.870000	0.840000	0.420000	62.00	-0.02	-0.07	8.75	5.75	7.00	6.25	3.00	3.50	1.50	1.75	3.25	2.00	2.50	2.50	1.75	2.00	1.25	0.75	-0.270508	0.071289	0.927246	-2.520000	-6.650000	1.890000	688.00	-0.11	-0.04
0.82	0.75	0.25	0.75	0.50	0.00	0.25	0.00	0.50	0.25	0.75	0.25	0.25	0.00	0.25	0.50	0.00	-0.299805	0.044434	0.927246	-2.800000	0.630000	0.350000	69.00	-0.03	-0.06	9.00	5.75	7.00	6.25	2.75	3.50	1.50	1.75	3.25	2.00	2.50	2.25	1.75	1.75	1.25	0.50	-0.274902	0.069336	0.925293	-2.380000	-6.720000	1.680000	681.00	-0.12	-0.04
0.83	0.75	0.25	0.75	0.50	0.00	0.25	0.00	0.50	0.00	0.75	0.50	0.25	0.00	0.25	0.25	0.00	-0.300781	0.045898	0.934082	-2.870000	0.700000	0.420000	65.00	-0.05	-0.08	9.00	6.00	7.25	6.50	2.75	3.50	1.75	1.75	2.75	2.00	2.50	2.25	2.00	2.00	1.25	0.75	-0.268555	0.070801	0.926758	-2.450000	-6.790000	1.890000	694.00	-0.12	-0.05
0.84	0.75	0.25	1.00	0.25	0.00	0.00	0.00	0.50	0.00	0.75	0.25	0.25	0.00	0.50	0.50	0.00	-0.305176	0.053711	0.931152	-2.800000	0.630000	0.490000	65.00	-0.02	-0.04	9.00	5.75	7.25	6.25	2.75	3.50	1.50	1.75	2.75	2.00	2.50	2.25	1.75	1.75	1.25	0.50	-0.270020	0.068359	0.925781	-2.380000	-6.930000	1.820000	676.00	-0.12	-0.05
0.85	1.00	0.25	0.50	0.00	0.00	0.25	0.00	0.50	0.25	1.00	0.25	0.00	0.00	0.50	1.00	0.00	-0.301270	0.050781	0.922852	-2.940000	0.700000	0.490000	71.00	0.05	-0.02	9.00	5.75	7.25	6.25	2.75	3.75	1.50	1.75	3.00	2.00	2.25	2.50	1.75	2.00	1.25	0.50	-0.272949	0.074219	0.930664	-2.380000	-6.930000	1.820000	686.00	-0.12	-0.04
0.86	0.50	0.25	1.00	0.25	0.00	0.25	0.00	0.50	0.25	1.00	0.25	0.00	0.00	0.50	0.25	0.00	-0.295898	0.048828	0.933105	-2.940000	0.630000	0.490000	66.00	-0.01	-0.02	8.75	6.00	7.25	6.50	2.75	3.75	1.50	1.75	3.25	2.00	2.50	2.25	2.00	1.75	1.25	0.75	-0.260742	0.070801	0.924805	-2.450000	-6.930000	1.890000	695.00	-0.12	-0.05
0.87	0.75	0.25	0.75	0.25	0.00	0.00	0.00	0.75	0.00	1.00	0.25	0.25	0.00	0.75	0.50	0.00	-0.303223	0.050781	0.926270	-2.870000	0.490000	0.490000	72.00	0.02	-0.06	9.00	6.00	7.25	6.50	2.75	3.75	1.50	1.75	3.00	2.00	2.50	2.25	1.75	2.00	1.25	0.50	-0.268066	0.068359	0.926758	-2.450000	-6.930000	1.820000	692.00	-0.12	-0.04
0.88	0.75	0.50	0.75	0.00	0.00	0.25	0.00	0.75	0.00	0.75	0.50	0.25	0.00	0.50	0.25	0.00	-0.302246	0.051758	0.932129	-2.870000	0.490000	0.420000	69.00	-0.02	-0.08	9.00	6.00	7.25	6.50	2.75	3.75	1.50	1.75	3.00	2.00	2.50	2.25	1.75	1.75	1.25	0.75	-0.267578	0.066895	0.925781	-2.380000	-7.070000	1.890000	691.00	-0.12	-0.05
0.89	1.00	0.75	1.00	0.25	0.00	1.25	0.00	0.50	0.25	0.50	0.25	0.25	0.00	0.50	0.50	0.00	-0.300781	0.044922	0.929688	-3.010000	0.560000	0.630000	90.00	-0.08	-0.08	9.00	6.00	7.25	6.50	2.75	3.50	1.50	1.75	2.75	2.00	2.50	2.25	1.75	2.00	1.25	0.50	-0.265137	0.074219	0.926758	-2.380000	-7.070000	1.890000	685.00	-0.12	-0.05
0.90	1.00	0.50	0.75	0.25	0.00	0.50	0.00	0.50	0.00	0.75	0.25	0.25	0.00	0.25	0.75	0.00	-0.302734	0.047363	0.931641	-3.010000	0.560000	0.630000	74.00	-0.05	-0.08	9.25	6.00	7.00	6.50	2.75	3.75	1.50	1.75	3.00	1.75	2.25	2.25	1.75	2.00	1.00	0.50	-0.264648	0.069824	0.926758	-2.590000	-7.070000	1.820000	682.00	-0.13	-0.04
0.91	1.00	0.25	1.00	0.50	0.00	0.00	0.00	0.75	0.00	0.75	0.25	0.25	0.00	0.75	0.25	0.00	-0.298828	0.049805	0.932129	-3.010000	0.490000	0.630000	75.00	-0.05	-0.06	9.25	6.00	7.50	6.50	2.75	3.75	1.50	1.75	3.00	2.00	2.25	2.25	1.75	2.00	1.25	0.75	-0.264160	0.072266	0.929199	-2.660000	-7.140000	1.820000	697.00	-0.12	-0.04
0.92	1.25	1.00	0.75	0.00	0.00	0.50	0.00	1.00	0.00	0.75	0.25	0.00	0.00	0.25	0.50	0.00	-0.302734	0.042480	0.934570	-3.150000	0.420000	0.630000	82.00	-0.10	-0.10	9.25	6.00	7.50	6.50	2.75	3.75	1.50	1.75	2.75	1.75	2.50	2.25	1.75	1.75	1.00	0.75	-0.262207	0.070312	0.924805	-2.660000	-7.140000	1.750000	687.00	-0.13	-0.05
0.93	1.00	0.50	0.75	0.50	0.00	0.25	0.00	0.50	0.00	0.25	0.25	0.25	0.00	0.50	0.25	0.00	-0.302734	0.042480	0.934570	-3.150000	0.420000	0.630000	64.00	-0.11	-0.08	9.25	6.00	7.25	6.50	2.50	3.75	1.50	1.75	3.00	2.00	2.25	2.25	1.75	1.75	1.25	0.50	-0.268555	0.064941	0.926758	-2.730000	-7.210000	1.820000	686.00	-0.12	-0.05
0.94	1.25	0.50	1.00	0.00	0.00	0.25	0.00	0.75	0.25	0.75	0.50	0.25	0.00	0.25	0.75	0.00	-0.302246	0.045410	0.925293	-3.220000	0.490000	0.700000	86.00	-0.03	-0.05	9.25	6.25	7.25	6.75	2.75	3.75	1.50	1.75	3.00	2.00	2.25	2.25	1.75	1.75	1.25	0.75	-0.257324	0.071777	0.922363	-2.590000	-7.070000	1.890000	697.00	-0.13	-0.05
0.95	1.25	0.50	0.75	0.50	0.00	1.25	0.00	0.50	0.00	0.75	0.25	0.25	0.00	0.00	0.75	0.00	-0.302734	0.047852	0.926758	-3.150000	0.560000	0.700000	88.00	-0.09	-0.11	9.25	6.25	7.50	6.50	2.75	3.75	1.50	2.00	2.50	1.75	2.50	2.25	1.75	1.75	0.75	0.50	-0.270020	0.067871	0.925781	-2.660000	-7.280000	1.890000	686.00	-0.14	-0.05
0.96	1.25	0.25	1.00	0.50	0.00	0.00	0.00	0.25	0.00	0.75	0.25	0.00	0.00	0.50	0.50	0.00	-0.300293	0.049316	0.930664	-3.150000	0.490000	0.630000	66.00	-0.08	-0.00	9.50	6.25	7.50	6.75	2.75	3.75	1.50	1.75	2.75	2.00	2.25	2.00	1.75	2.00	1.25	0.50	-0.262695	0.069336	0.927734	-2.800000	-7.420000	1.820000	697.00	-0.13	-0.04
0.97	1.00	0.75	1.25	0.25	0.00	0.00	0.00	0.50	0.00	0.75	0.25	0.25	0.00	0.25	0.50	0.00	-0.304199	0.048340	0.926758	-3.080000	0.420000	0.770000	74.00	-0.09	-0.05	9.50	6.25	7.50	6.75	3.00	3.75	1.50	1.75	2.75	1.75	2.25	2.25	1.50	1.75	1.00	0.50	-0.269043	0.073242	0.927734	-2.730000	-7.560000	1.960000	693.00	-0.14	-0.04
0.98	1.00	0.25	0.75	0.50	0.00	0.00	0.00	0.75	0.00	0.75	0.25	0.00	0.00	0.50	0.50	0.00	-0.306641	0.045410	0.936523	-3.010000	0.490000	0.700000	69.00	-0.05	-0.06	9.75	6.25	7.50	6.75	2.75	3.75	1.25	1.75	2.75	1.75	2.00	2.25	1.75	1.75	1.00	0.50	-0.269043	0.073242	0.927734	-2.730000	-7.560000	1.960000	687.00	-0.14	-0.05
0.99	1.25	0.50	1.00	0.50	0.00	0.50	0.00	0.50	0.00	1.00	0.25	0.00	0.00	0.25	0.50	0.00	-0.303223	0.043457	0.932129	-2.870000	0.280000	0.840000	81.00	-0.10	-0.06	9.50	6.50	7.50	6.75	2.75	3.75	1.25	1.75	2.50	1.75	2.25	2.25	1.50	1.50	1.00	0.50	-0.269043	0.076172	0.924805	-2.870000	-8.400000	2.170000	681.00	-0.14	-0.05
1.00	1.50	0.00	1.00	0.25	0.00	0.00	0.00	0.50	0.00	0.75	0.25	0.00	0.00	0.50	0.25	0.00	-0.301270	0.045898	0.934082	-3.010000	0.350000	0.840000	65.00	-0.09	-0.00	10.00	6.75	7.50	6.75	2.75	3.75	1.25	1.50	2.75	1.50	2.00	2.00	1.50	1.25	0.75	0.50	-0.270508	0.071289	0.928223	-3.010000	-8.610000	2.170000	674.00	-0.15	-0.04
1.01	1.00	0.25	1.00	0.50	0.00	0.25	0.00	0.25	0.00	0.75	0.25	0.00	0.00	0.25	0.25	0.00	-0.302246	0.047852	0.924805	-2.940000	0.280000	0.910000	61.00	-0.11	-0.03	10.25	6.75	7.50	7.00	2.50	3.75	1.25	1.75	2.50	1.75	2.00	1.75	1.50	1.25	1.00	0.50	-0.269531	0.064941	0.931641	-3.010000	-8.890000	2.100000	681.00	-0.16	-0.05
1.02	1.25	0.75	1.00	0.25	0.00	0.25	0.00	0.50	0.00	0.50	0.25	0.25	0.00	0.50	0.50	0.00	-0.304688	0.051758	0.935547	-2.870000	-0.000000	0.980000	77.00	-0.10	-0.05	10.25	7.00	7.75	7.00	2.50	4.00	1.25	1.75	2.25	1.50	1.75	1.75	1.50	1.50	0.75	0.50	-0.268066	0.071289	0.931641	-3.080000	-9.170000	2.240000	680.00	-0.16	-0.05
1.03	1.00	0.50	1.00	0.50	0.00	0.25	0.00	0.50	0.00	0.50	0.25	0.00	0.00	0.25	0.00	0.00	-0.308105	0.060059	0.960938	-4.900000	1.120000	0.700000	62.00	-0.16	-0.06	10.75	7.00	7.50	7.00	2.75	3.75	1.25	1.50	2.25	1.50	1.75	2.00	1.25	1.25	1.25	0.50	-0.267578	0.071289	0.931641	-3.290000	-9.240000	2.310000	682.00	-0.16	-0.05
1.04	1.25	0.25	1.00	0.50	0.00	0.50	0.00	0.25	0.00	0.50	0.00	0.00	0.00	0.00	0.25	0.00	-0.301758	0.046387	0.928711	-4.200000	0.980000	0.770000	59.00	-0.19	-0.04	11.00	7.25	7.75	7.25	2.75	3.50	1.25	1.25	1.75	1.25	1.50	1.75	1.25	1.25	0.75	0.25	-0.267578	0.068848	0.933105	-3.570000	-9.590000	2.380000	662.00	-0.18	-0.04
1.05	1.75	0.50	1.25	0.50	0.00	0.00	0.00	0.25	0.00	0.75	0.25	0.00	0.00	0.00	0.50	0.00	-0.301270	0.037598	0.932129	-3.780000	-0.070000	0.770000	74.00	-0.16	-0.01	11.25	8.00	7.75	7.25	2.50	3.75	1.25	1.25	1.50	1.25	1.50	1.50	1.00	1.00	0.75	0.25	-0.262695	0.074707	0.926270	-3.850000	-9.940000	2.310000	661.00	-0.20	-0.05
1.06	1.50	0.75	1.00	0.25	0.00	0.00	0.00	0.25	0.00	0.50	0.25	0.00	0.00	0.00	0.00	0.00	-0.305664	0.041992	0.936035	-3.780000	-0.070000	0.700000	57.00	-0.23	-0.01	11.75	8.00	7.75	7.25	2.50	3.75	1.00	1.25	1.75	1.00	1.50	1.50	0.75	1.00	0.50	0.25	-0.266602	0.074219	0.928223	-4.130000	-10.220000	2.310000	658.00	-0.20	-0.04
1.07	1.50	0.75	1.25	0.25	0.00	0.00	0.00	0.50	0.00	0.75	0.00	0.00	0.00	0.25	0.00	0.00	-0.299316	0.038086	0.937500	-4.060000	0.140000	0.630000	68.00	-0.19	-0.02	12.00	8.50	8.00	7.50	2.75	3.75	1.00	1.25	1.75	1.25	1.00	1.50	1.00	1.00	0.50	0.50	-0.278320	0.073730	0.925293	-4.410000	-10.360000	2.450000	678.00	-0.21	-0.05
1.08	1.75	0.75	1.00	0.50	0.00	0.00	0.00	0.00	0.00	0.75	0.25	0.00	0.00	0.25	0.00	0.00	-0.298340	0.046875	0.931152	-4.130000	-0.000000	0.560000	65.00	-0.21	0.02	12.50	9.00	8.00	7.75	2.50	3.50	1.00	1.25	1.25	1.25	1.25	1.25	0.75	1.25	0.75	0.25	-0.253418	0.069824	0.927246	-4.830000	-10.360000	2.380000	680.00	-0.21	-0.05
1.09	1.75	0.75	1.00	0.75	0.00	0.00	0.00	0.00	0.25	0.50	0.00	0.00	0.00	0.50	0.25	0.00	-0.297852	0.049805	0.925781	-4.130000	0.140000	0.210000	71.00	-0.18	0.03	13.00	9.25	8.00	7.75	2.50	3.50	1.00	1.25	1.25	1.00	1.50	1.25	0.75	1.00	0.75	0.25	-0.261230	0.066406	0.927246	-4.830000	-10.430000	2.240000	686.00	-0.22	-0.05
1.10	1.75	1.00	1.25	0.75	0.00	1.00	0.00	0.75	0.25	0.25	0.00	0.00	0.00	0.25	0.25	0.00	-0.298828	0.046387	0.931641	-4.480000	1.120000	-0.280000	99.00	-0.19	-0.08	13.50	10.00	8.25	8.00	2.50	3.50	1.00	1.00	1.00	1.00	1.25	1.25	0.50	1.25	0.25	0.25	-0.266113	0.067383	0.928223	-4.830000	-10.290000	2.240000	689.00	-0.23	-0.04
1.11	1.75	1.00	1.25	0.50	0.00	0.00	0.00	0.00	0.00	0.50	0.00	0.00	0.00	0.25	0.00	0.00	-0.296875	0.037598	0.934570	-4.830000	1.960000	-0.630000	65.00	-0.26	0.02	14.00	10.00	8.50	8.00	2.50	3.50	0.75	1.25	1.50	1.00	1.00	1.00	0.25	1.00	0.25	0.25	-0.254395	0.052734	0.929199	-4.480000	-10.010000	1.820000	695.00	-0.24	-0.04
1.12	2.00	1.00	1.50	0.50	0.00	0.00	0.00	0.25	0.00	0.75	0.00	0.00	0.00	0.25	0.00	0.00	-0.295898	0.042969	0.935547	-5.460000	3.150000	-1.330000	79.00	-0.24	0.01	14.00	10.50	8.50	8.25	2.50	3.50	0.75	1.00	1.00	1.00	1.00	1.00	0.50	1.00	0.25	0.00	-0.260254	0.065918	0.924316	-3.990000	-10.150000	2.030000	693.00	-0.25	-0.04
1.13	2.00	0.75	1.00	0.50	0.00	0.50	0.00	0.00	0.00	0.50	0.00	0.00	0.00	0.00	0.00	0.00	-0.295898	0.043945	0.935547	-6.510000	3.920000	-2.030000	66.00	-0.28	-0.01	14.50	11.00	8.50	8.25	2.50	3.25	0.75	1.00	0.75	0.75	1.00	1.00	0.25	0.75	0.50	0.25	-0.253906	0.063965	0.929199	-3.990000	-10.150000	2.240000	694.00	-0.25	-0.04
1.14	2.00	1.00	1.25	0.25	0.00	0.00	0.00	0.00	0.00	0.75	0.00	0.00	0.00	0.25	0.00	0.00	-0.300293	0.050781	0.933105	-8.260000	4.480000	-2.940000	68.00	-0.25	0.04	14.75	11.25	8.50	8.25	2.50	3.50	0.75	1.00	1.00	0.75	1.00	1.00	0.50	0.75	0.50	0.00	-0.257324	0.071289	0.932617	-3.570000	-9.170000	2.380000	708.00	-0.25	-0.04
1.15	2.25	1.00	1.25	0.75	0.00	0.00	0.00	0.00	0.00	0.50	0.00	0.00	0.00	0.50	0.00	0.00	-0.301270	0.045410	0.939941	-11.270000	3.920000	-3.430000	77.00	-0.25	0.02	15.25	11.50	8.50	8.25	2.25	3.25	0.50	0.75	1.00	0.75	0.75	1.00	0.25	0.75	0.25	0.00	-0.258301	0.065430	0.934082	-3.360000	-9.240000	2.520000	692.00	-0.27	-0.04
1.16	2.25	1.00	1.75	0.50	0.00	0.50	0.00	0.00	0.00	0.75	0.25	0.00	0.00	0.50	0.00	0.00	-0.311523	0.049805	0.964844	-15.750000	3.780000	-4.620000	93.00	-0.21	0.01	15.50	12.25	8.75	8.50	2.25	3.25	0.50	0.75	1.00	0.75	0.75	0.75	0.25	0.50	0.00	0.00	-0.261230	0.067871	0.937012	-3.010000	-9.240000	2.660000	701.00	-0.28	-0.04
1.17	2.25	1.00	1.50	0.25	0.00	0.00	0.00	0.00	0.00	0.75	0.00	0.00	0.00	0.00	0.00	0.00	-0.318848	0.045410	0.962402	-22.260000	2.940000	-5.810000	72.00	-0.28	0.04	15.75	12.25	8.50	8.50	2.25	3.25	0.50	1.00	1.00	0.50	0.75	1.00	0.25	0.25	0.25	0.25	-0.262207	0.066895	0.925781	-2.660000	-9.240000	2.730000	708.00	-0.27	-0.05
1.18	2.50	1.25	1.25	0.50	0.00	0.00	0.00	0.00	0.00	0.75	0.00	0.00	0.00	0.50	0.00	0.00	-0.314941	0.022461	0.946289	-28.280001	2.380000	-7.280000	82.00	-0.25	0.03	16.25	13.00	8.75	8.50	2.25	3.25	0.50	1.00	0.50	0.50	0.50	1.00	0.25	0.50	0.00	0.00	-0.254395	0.063477	0.926758	-2.450000	-9.450000	2.520000	713.00	-0.29	-0.05
1.19	2.75	0.75	1.50	0.50	0.00	0.00	0.00	0.00	0.00	0.50	0.00	0.00	0.00	0.50	0.00	0.00	-0.344238	0.007812	0.969238	-34.790001	2.450000	-10.290000	80.00	-0.26	0.05	16.50	12.75	8.75	8.75	2.25	3.25	0.50	0.75	0.50	0.50	0.50	0.50	0.00	0.00	0.00	0.00	-0.249512	0.066895	0.929199	-2.660000	-9.240000	2.450000	698.00	-0.30	-0.04
1.20	2.50	0.75	1.75	0.50	0.00	0.00	0.00	0.00	0.25	0.75	0.00	0.00	0.00	0.50	0.00	0.00	-0.331543	0.013184	0.963867	-41.369999	1.820000	-14.000000	87.00	-0.21	0.06	16.25	13.00	8.75	8.75	2.00	3.25	0.50	0.75	0.50	0.50	0.75	0.75	0.00	0.25	0.75	0.00	-0.247070	0.068359	0.926758	-2.870000	-8.890000	2.310000	712.00	-0.28	-0.05
1.21	2.75	1.00	1.50	0.00	0.00	0.00	0.25	0.00	0.00	0.75	0.00	0.00	0.00	0.25	0.00	0.00	-0.327148	0.027832	0.979492	-47.459999	0.210000	-17.010000	81.00	-0.25	0.07	16.50	12.75	8.75	9.00	2.00	3.00	0.50	0.75	0.25	0.50	0.50	0.50	0.00	0.50	0.00	0.00	-0.245605	0.066406	0.921875	-3.080000	-8.680000	2.240000	696.00	-0.30	-0.04
1.22	2.50	0.50	1.75	0.25	0.00	0.00	0.25	0.00	0.25	0.75	0.00	0.00	0.00	0.25	0.00	0.00	-0.331543	0.010742	0.988281	-53.480000	-1.890000	-19.250000	83.00	-0.21	0.08	17.00	13.50	8.75	8.75	2.00	3.25	0.50	0.50	0.50	0.00	0.50	0.50	0.00	0.25	0.00	0.00	-0.248535	0.068848	0.932129	-3.080000	-8.400000	2.380000	701.00	-0.31	-0.04
1.23	2.75	1.00	1.50	0.25	0.00	0.00	0.25	0.00	0.25	0.75	0.00	0.00	0.00	0.25	0.00	0.00	-0.314941	-0.006348	0.951172	-58.170002	-3.570000	-21.139999	89.00	-0.22	0.07	17.00	13.50	8.75	9.00	2.00	3.00	0.25	0.50	0.00	0.25	0.50	0.50	0.00	0.00	0.50	0.00	-0.258789	0.065918	0.930664	-2.590000	-8.610000	2.450000	695.00	-0.31	-0.05
1.24	3.00	1.00	2.00	0.25	0.00	0.00	0.00	0.00	0.25	0.75	0.00	0.00	0.00	0.00	0.00	0.00	-0.273926	-0.000488	0.924805	-57.470001	-4.340000	-21.629999	91.00	-0.27	0.06	17.25	13.75	8.75	8.75	2.00	3.00	0.25	0.75	0.50	0.25	0.50	0.50	0.00	0.25	0.00	0.00	-0.259766	0.067383	0.936035	-1.610000	-8.750000	2.590000	707.00	-0.31	-0.04
1.25	3.00	0.75	1.50	0.75	0.00	0.00	0.25	0.00	0.00	0.75	0.00	0.00	0.00	0.00	0.00	0.00	-0.256836	0.005859	0.916992	-53.689999	-3.150000	-19.389999	89.00	-0.27	0.04	17.50	14.00	8.75	8.75	2.00	2.75	0.50	0.50	0.25	0.25	0.50	0.50	0.00	0.00	0.00	0.00	-0.246582	0.067871	0.928223	-0.840000	-9.100000	2.800000	703.00	-0.31	-0.04
1.26	2.75	1.00	1.75	0.50	0.00	0.00	0.25	0.00	0.00	0.75	0.00	0.00	0.00	0.25	0.00	0.00	-0.251953	0.000488	0.897949	-49.000000	-1.120000	-16.450001	91.00	-0.25	0.05	17.50	13.75	8.75	8.75	2.00	2.75	0.25	0.50	0.50	0.25	0.25	0.50	0.00	0.00	0.25	0.00	-0.246582	0.074707	0.928223	-0.350000	-9.310000	2.870000	699.00	-0.31	-0.04
1.27	2.75	1.25	1.50	0.25	0.00	0.00	0.25	0.00	0.25	0.50	0.00	0.00	0.00	0.00	0.00	0.00	-0.262695	-0.030762	0.904297	-44.029999	1.540000	-13.930000	86.00	-0.27	0.06	17.75	13.75	8.75	9.00	2.00	2.75	0.25	0.50	0.00	0.00	0.25	0.75	0.00	0.00	0.00	0.00	-0.251953	0.073242	0.931641	-0.210000	-9.520000	2.940000	695.00	-0.32	-0.04
1.28	2.50	1.25	1.50	0.50	0.00	0.00	0.25	0.00	0.25	0.50	0.00	0.00	0.00	0.00	0.00	0.00	-0.280762	-0.065918	0.896484	-39.549999	5.390000	-13.440001	86.00	-0.26	0.05	17.50	14.00	8.75	9.00	1.75	3.00	0.25	0.50	0.00	0.25	0.25	0.50	0.00	0.25	0.00	0.00	-0.245605	0.071777	0.922363	0.350000	-10.220000	2.940000	697.00	-0.32	-0.05
1.29	2.50	1.00	1.75	0.25	0.00	0.00	0.25	0.00	0.00	0.75	0.00	0.00	0.00	0.25	0.00	0.00	-0.291992	-0.057617	0.942383	-36.540001	9.730000	-14.980000	85.00	-0.24	0.06	17.50	14.25	8.75	8.75	1.75	2.50	0.25	0.50	0.00	0.00	0.50	0.50	0.00	0.00	0.00	0.00	-0.256348	0.067383	0.937012	1.330000	-10.850000	3.360000	687.00	-0.32	-0.04
1.30	2.25	0.50	1.50	0.50	0.00	0.00	0.25	0.00	0.25	0.75	0.00	0.00	0.00	0.25	0.00	0.00	-0.311523	-0.032227	1.001465	-37.869999	12.180000	-16.450001	80.00	-0.20	0.07	17.75	14.25	8.75	9.00	1.75	2.75	0.25	0.50	0.25	0.00	0.25	0.25	0.00	0.00	0.00	0.00	-0.254883	0.068848	0.941406	2.940000	-12.320000	3.710000	695.00	-0.32	-0.04
1.31	1.75	0.50	1.25	0.25	0.00	0.00	0.25	0.00	0.00	0.75	0.00	0.00	0.00	0.00	0.00	0.00	-0.329102	-0.030273	1.037109	-43.959999	14.350000	-18.900000	61.00	-0.23	0.06	17.75	14.50	8.75	9.00	1.50	2.75	0.25	0.25	0.00	0.25	0.00	0.50	0.00	0.00	0.00	0.00	-0.254395	0.078125	0.937500	3.920000	-13.440001	3.990000	689.00	-0.33	-0.04
1.32	1.50	0.75	1.25	0.25	0.00	0.00	0.00	0.00	0.25	0.50	0.00	0.00	0.00	0.00	0.00	0.00	-0.337891	-0.022461	1.023926	-53.270000	16.379999	-23.100000	57.00	-0.24	0.05	18.00	14.75	8.75	9.00	1.50	2.50	0.25	0.50	0.00	0.00	0.25	0.50	0.00	0.00	0.00	0.00	-0.253906	0.076172	0.937012	4.900000	-14.700000	4.480000	696.00	-0.33	-0.04
1.33	1.25	0.50	1.00	0.00	0.00	0.00	0.00	0.00	0.00	0.75	0.00	0.00	0.00	0.00	0.00	0.00	-0.347168	-0.014160	1.005859	-63.420002	19.389999	-28.770000	44.00	0.00	0.00	18.00	14.50	8.75	9.00	1.50	2.50	0.25	0.50	0.25	0.00	0.25	0.50	0.00	0.25	0.00	0.00	-0.250000	0.069336	0.934570	4.690000	-16.379999	4.480000	700.00	-0.32	-0.04
1.34	1.00	0.25	0.75	0.00	0.00	0.00	0.00	0.00	0.25	0.75	0.00	0.00	0.00	0.00	0.00	0.00	-0.482910	0.093750	0.983887	-73.220001	19.389999	-36.750000	38.00	0.00	0.00	18.00	15.25	8.75	9.00	1.50	3.00	0.00	0.25	0.00	0.00	0.00	0.25	0.00	0.00	0.00	0.00	-0.242676	0.075684	0.934082	5.250000	-17.360001	4.970000	693.00	-0.34	-0.05
1.35	0.75	0.00	0.50	0.00	0.00	0.00	0.00	0.00	0.00	0.50	0.00	0.00	0.00	0.00	0.00	0.00	-0.502441	0.099121	0.889648	-66.010002	21.350000	-55.439999	22.00	0.00	0.00	18.50	15.50	8.75	9.00	1.50	2.50	0.25	0.25	0.00	0.00	0.00	0.25	0.00	0.00	0.00	0.00	-0.256348	0.079102	0.943848	6.230000	-18.410000	5.250000	700.00	-0.34	-0.04
1.36	0.25	0.25	0.50	0.00	0.00	0.00	0.00	0.00	0.00	0.50	0.00	0.00	0.00	0.00	0.00	0.00	-0.521484	-0.150391	1.077637	-35.700001	48.860001	-73.639999	19.00	0.00	0.00	19.00	16.00	9.00	9.00	1.75	2.25	0.25	0.50	0.00	0.00	0.25	0.25	0.00	0.00	0.00	0.00	-0.253906	0.080078	0.936523	7.350000	-20.160000	5.250000	722.00	-0.33	-0.04
1.37	0.25	0.50	0.25	0.25	0.00	0.25	0.00	0.00	0.00	0.50	0.00	0.00	0.00	0.00	0.00	0.00	-0.313477	0.090332	1.306641	-44.520000	65.519997	-86.660004	25.00	0.00	0.00	19.50	15.75	9.00	9.00	1.50	2.50	0.25	0.50	0.25	0.00	0.00	0.25	0.00	0.00	0.00	0.00	-0.247070	0.081543	0.937988	7.770000	-21.420000	5.250000	726.00	-0.33	-0.04
1.38	0.50	0.00	0.25	0.00	0.00	0.00	0.00	0.00	0.00	0.50	0.00	0.00	0.00	0.00	0.00	0.00	-0.261719	0.140137	1.291016	-63.840000	70.980003	-88.970001	16.00	0.00	0.00	19.25	16.00	9.00	9.25	1.50	2.25	0.00	0.25	0.00	0.00	0.00	0.00	0.00	0.00	0.00	0.00	-0.229492	0.085449	0.921387	7.210000	-21.420000	5.460000	710.00	-0.34	-0.04
1.39	0.00	0.00	0.25	0.00	0.00	0.00	0.00	0.00	0.00	0.50	0.00	0.00	0.00	0.00	0.00	0.00	-0.255371	0.002441	1.324219	-83.720001	76.160004	-88.340004	10.00	0.00	0.00	19.75	16.50	9.00	9.50	1.50	2.25	0.00	0.50	0.00	0.00	0.00	0.25	0.00	0.00	0.00	0.00	-0.226074	0.093750	0.919922	6.090000	-20.510000	5.320000	733.00	-0.34	-0.04
1.40	0.25	0.00	0.00	0.00	0.00	0.25	0.00	0.00	0.00	0.25	0.00	0.00	0.00	0.00	0.00	0.00	0.125000	0.327148	1.252930	-108.220001	89.040001	-93.800003	9.00	0.00	0.00	20.00	17.25	9.00	9.50	1.25	2.25	0.00	0.25	0.00	0.00	0.00	0.25	0.00	0.00	0.00	0.00	-0.222168	0.088867	0.928223	4.690000	-19.250000	5.110000	736.00	-0.34	-0.04
1.41	0.00	0.50	0.25	0.00	0.00	0.00	0.00	0.00	0.00	0.25	0.00	0.00	0.00	0.00	0.00	0.00	0.488770	0.829590	1.349121	-83.650002	90.720001	-90.230003	12.00	0.00	0.00	20.00	17.00	9.00	9.75	1.25	2.50	0.00	0.25	0.00	0.00	0.00	0.25	0.00	0.00	0.00	0.00	-0.225586	0.083008	0.929199	4.130000	-18.340000	5.040000	740.00	-0.34	-0.04
1.42	0.50	0.25	0.00	0.25	0.00	0.00	0.00	0.00	0.00	0.50	0.00	0.00	0.00	0.00	0.00	0.00	0.494629	0.869629	1.644043	-16.730000	84.629997	-64.470001	18.00	0.00	0.00	20.75	17.50	9.00	9.75	1.25	2.50	0.00	0.25	0.00	0.00	0.00	0.25	0.00	0.00	0.00	0.00	-0.233398	0.074219	0.940430	3.710000	-17.570000	4.480000	755.00	-0.34	-0.04
1.43	0.25	0.00	0.25	0.25	0.00	0.00	0.00	0.00	0.00	0.50	0.00	0.00	0.00	0.25	0.00	0.00	0.872070	0.792480	1.637207	37.170002	68.320000	-32.689999	18.00	0.00	0.00	20.75	17.75	9.00	9.75	1.25	2.25	0.00	0.25	0.00	0.00	0.00	0.00	0.00	0.00	0.00	0.00	-0.227539	0.076172	0.945312	4.900000	-18.690001	4.410000	751.00	-0.35	-0.04
1.44	0.00	0.00	0.00	0.00	0.00	0.00	0.00	0.00	0.00	0.25	0.00	0.00	0.00	0.00	0.00	0.00	0.990234	0.693359	1.557129	55.860001	47.670002	-2.310000	3.00	0.00	0.00	21.25	17.75	9.25	10.00	1.25	2.50	0.00	0.25	0.00	0.00	0.00	0.25	0.00	0.00	0.00	0.00	-0.223633	0.065430	0.941895	6.370000	-20.090000	3.640000	770.00	-0.34	-0.04
1.45	0.50	0.00	0.50	0.00	0.00	0.00	0.00	0.00	0.00	0.50	0.00	0.00	0.00	0.00	0.00	0.00	1.117676	0.623535	1.363770	61.810001	29.330000	28.770000	19.00	0.00	0.00	21.50	18.50	9.25	10.00	1.25	2.50	0.00	0.25	0.00	0.00	0.00	0.25	0.00	0.00	0.00	0.00	-0.218750	0.075684	0.923828	7.140000	-19.950001	2.730000	782.00	-0.34	-0.04
1.46	0.25	0.00	0.00	0.00	0.00	0.00	0.00	0.00	0.00	0.25	0.00	0.00	0.00	0.00	0.00	0.00	1.217285	0.507324	1.258789	75.320000	14.280000	56.209999	6.00	0.00	0.00	21.50	18.50	9.25	10.25	1.25	2.75	0.00	0.25	0.00	0.00	0.00	0.25	0.00	0.00	0.00	0.00	-0.209473	0.084961	0.931152	7.490000	-18.830000	1.820000	788.00	-0.34	-0.05
1.47	0.50	0.25	0.00	0.00	0.00	0.00	0.00	0.00	0.00	0.25	0.00	0.00	0.00	0.00	0.00	0.00	1.291016	0.308594	1.224609	94.220001	0.980000	77.910004	12.00	0.00	0.00	21.75	18.50	9.25	10.25	1.00	2.50	0.00	0.25	0.00	0.00	0.00	0.00	0.00	0.00	0.00	0.00	-0.223145	0.089844	0.961426	7.980000	-18.690001	1.330000	782.00	-0.35	-0.04
1.48	0.00	0.00	0.00	0.00	0.00	0.00	0.00	0.00	0.00	0.25	0.00	0.00	0.00	0.00	0.00	0.00	1.334473	0.077148	1.223633	109.830002	-11.620000	92.190002	3.00	0.00	0.00	21.75	18.25	9.00	10.25	1.00	2.25	0.00	0.25	0.00	0.00	0.00	0.00	0.00	0.00	0.00	0.00	-0.251465	0.083008	1.003418	8.890000	-20.860001	0.630000	772.00	-0.35	-0.04
1.49	0.25	0.25	0.00	0.00	0.00	0.00	0.00	0.00	0.00	0.25	0.00	0.00	0.00	0.00	0.00	0.00	1.348145	-0.164551	1.282715	118.650002	-24.290001	99.470001	9.00	0.00	0.00	21.25	17.75	9.25	10.00	1.00	2.50	0.00	0.25	0.00	0.00	0.00	0.00	0.00	0.00	0.00	0.00	-0.241211	0.095703	0.992676	8.540000	-24.710001	-0.000000	764.00	-0.35	-0.04
1.50	0.25	0.00	0.00	0.00	0.00	0.00	0.00	0.00	0.00	0.50	0.00	0.00	0.00	0.00	0.00	0.00	1.367676	-0.422852	1.370605	120.120003	-39.619999	99.330002	9.00	0.00	0.00	21.50	18.75	9.00	10.25	1.00	2.25	0.00	0.25	0.00	0.00	0.00	0.00	0.00	0.00	0.00	0.00	-0.208984	0.109375	0.948730	7.700000	-26.809999	0.140000	775.00	-0.35	-0.04
1.51	0.25	0.25	0.00	0.00	0.00	0.00	0.00	0.00	0.00	0.00	0.00	0.00	0.00	0.00	0.00	0.00	1.362305	-0.630371	1.412598	117.110001	-58.590000	91.629997	6.00	0.00	0.00	21.25	18.50	9.00	10.00	1.00	1.75	0.00	0.00	0.00	0.00	0.00	0.00	0.00	0.00	0.00	0.00	-0.190918	0.127441	0.920898	6.790000	-26.180000	0.770000	755.00	-0.35	-0.04
1.52	0.50	0.00	0.00	0.00	0.00	0.25	0.00	0.00	0.00	0.25	0.00	0.00	0.00	0.00	0.00	0.00	1.228027	-0.911133	1.311523	108.080002	-98.699997	59.849998	13.00	0.00	0.00	21.00	18.25	9.00	10.00	0.75	1.75	0.00	0.00	0.00	0.00	0.00	0.00	0.00	0.00	0.00	0.00	-0.171387	0.124023	0.893555	4.830000	-23.590000	1.470000	746.00	-0.35	-0.04
1.53	0.50	0.00	0.50	0.00	0.00	0.00	0.00	0.00	0.00	0.25	0.00	0.00	0.00	0.00	0.00	0.00	1.228027	-0.911133	1.311523	108.080002	-98.699997	59.849998	16.00	0.00	0.00	21.25	18.00	8.75	10.00	1.00	1.75	0.00	0.00	0.00	0.00	0.00	0.00	0.00	0.00	0.00	0.00	-0.169922	0.127441	0.871094	2.240000	-19.809999	2.450000	746.00	-0.35	-0.04
1.54	0.00	0.25	0.00	0.00	0.00	0.00	0.00	0.00	0.00	0.50	0.00	0.00	0.00	0.00	0.00	0.00	1.122559	-1.012695	1.197754	101.709999	-111.230003	41.580002	9.00	0.00	0.00	20.75	18.00	8.75	9.75	0.75	1.50	0.00	0.25	0.00	0.00	0.00	0.00	0.00	0.00	0.00	0.00	-0.158691	0.119629	0.854492	-0.350000	-14.910000	3.010000	734.00	-0.35	-0.04
1.55	0.00	0.00	0.00	0.00	0.00	0.00	0.00	0.00	0.00	0.25	0.00	0.00	0.00	0.00	0.00	0.00	0.887695	-1.076660	1.083984	70.139999	-116.410004	8.120000	3.00	0.00	0.00	20.75	17.75	8.75	9.75	0.75	1.50	0.00	0.00	0.00	0.00	0.00	0.00	0.00	0.00	0.00	0.00	-0.163086	0.115234	0.868652	-1.960000	-9.240000	3.150000	727.00	-0.35	-0.04
1.56	0.00	0.50	0.00	0.00	0.00	0.00	0.00	0.00	0.00	0.25	0.00	0.00	0.00	0.00	0.00	0.00	0.768066	-0.995117	1.060059	52.080002	-111.510002	-4.410000	9.00	0.00	0.00	20.25	17.50	8.50	9.50	0.75	1.75	0.00	0.25	0.00	0.00	0.00	0.00	0.00	0.00	0.00	0.00	-0.167480	0.109863	0.886719	-3.010000	-4.760000	2.940000	719.00	-0.35	-0.04
1.57	0.00	0.00	0.00	0.00	0.00	0.00	0.00	0.00	0.00	0.25	0.00	0.00	0.00	0.00	0.00	0.00	0.658691	-0.879883	1.083008	38.150002	-103.669998	-12.810000	3.00	0.00	0.00	20.25	17.25	8.50	9.50	0.75	1.75	0.00	0.00	0.00	0.00	0.00	0.25	0.00	0.00	0.00	0.00	-0.162109	0.108398	0.863770	-6.160000	2.660000	2.380000	715.00	-0.35	-0.04
1.58	0.25	0.00	0.00	0.00	0.00	0.25	0.00	0.00	0.00	0.25	0.00	0.00	0.00	0.00	0.00	0.00	0.534668	-0.731445	1.138672	30.100000	-93.940002	-16.030001	9.00	0.00	0.00	19.75	17.00	8.50	9.50	0.75	1.50	0.00	0.00	0.00	0.00	0.00	0.00	0.00	0.00	0.00	0.00	-0.166992	0.106445	0.848633	-8.330000	8.400000	1.820000	700.00	-0.35	-0.04
1.59	0.00	0.00	0.00	0.00	0.00	0.00	0.00	0.00	0.00	0.00	0.00	0.00	0.00	0.00	0.00	0.00	0.372559	-0.586426	1.235840	27.860001	-84.279999	-13.580000	0.00	0.00	0.00	19.50	16.75	8.50	9.50	0.75	1.50	0.00	0.00	0.00	0.00	0.00	0.00	0.00	0.00	0.00	0.00	-0.187500	0.099121	0.873047	-10.850000	14.350000	1.120000	694.00	-0.35	-0.04
1.60	0.00	0.00	0.00	0.00	0.00	0.00	0.00	0.00	0.00	0.25	0.00	0.00	0.00	0.00	0.00	0.00	0.196777	-0.512207	1.422852	25.620001	-75.529999	-6.580000	3.00	0.00	0.00	20.00	16.75	8.50	9.50	0.75	1.75	0.00	0.00	0.00	0.00	0.00	0.00	0.00	0.00	0.00	0.00	-0.197266	0.096191	0.903320	-13.860000	19.180000	0.350000	703.00	-0.35	-0.04
1.61	0.00	0.00	0.00	0.00	0.00	0.00	0.00	0.00	0.00	0.50	0.00	0.00	0.00	0.00	0.00	0.00	0.051758	-0.435547	1.579102	17.430000	-71.889999	2.170000	6.00	0.00	0.00	19.75	16.75	8.50	9.50	1.25	2.00	0.00	0.00	0.00	0.00	0.00	0.00	0.00	0.00	0.00	0.00	-0.216309	0.095215	0.927734	-16.240000	22.120001	-0.210000	710.00	-0.35	-0.04
1.62	0.00	0.00	0.00	0.00	0.00	0.00	0.00	0.00	0.00	0.50	0.00	0.00	0.00	0.00	0.00	0.00	-0.179688	-0.354492	1.822754	2.590000	-74.340004	10.850000	6.00	0.00	0.00	19.75	16.50	8.50	9.50	1.00	1.75	0.00	0.25	0.00	0.00	0.25	0.00	0.00	0.00	0.00	0.00	-0.218750	0.109375	0.988281	-22.120001	24.500000	-1.050000	708.00	-0.35	-0.04
1.63	0.00	0.00	0.00	0.00	0.00	0.00	0.00	0.00	0.00	0.25	0.00	0.00	0.00	0.00	0.00	0.00	-0.325684	-0.321777	2.060547	-12.740000	-85.190002	20.440001	3.00	0.00	0.00	19.50	16.25	8.75	9.25	1.25	2.00	0.00	0.25	0.00	0.00	0.00	0.00	0.00	0.00	0.00	0.00	-0.226562	0.118652	0.935059	-24.850000	25.690001	-0.210000	706.00	-0.35	-0.04
1.64	0.00	0.00	0.00	0.00	0.00	0.00	0.00	0.00	0.00	0.00	0.00	0.00	0.00	0.00	0.00	0.00	-0.455566	-0.248535	2.212891	-28.210001	-108.779999	28.280001	0.00	0.00	0.00	20.00	16.25	8.50	9.50	1.25	1.75	0.00	0.25	0.00	0.00	0.00	0.00	0.00	0.00	0.00	0.00	-0.205078	0.079102	0.912109	-28.000000	28.840000	0.070000	709.00	-0.35	-0.04
1.65	0.00	0.00	0.00	0.00	0.00	0.00	0.00	0.00	0.00	0.25	0.00	0.00	0.00	0.00	0.00	0.00	-0.632324	-0.221191	2.288574	-40.110001	-139.789993	33.180000	3.00	0.00	0.00	19.50	15.75	8.75	9.75	1.25	2.50	0.25	0.25	0.00	0.00	0.00	0.00	0.00	0.00	0.00	0.00	-0.208496	0.076660	0.894531	-31.080000	32.340000	-0.630000	718.00	-0.34	-0.04
1.66	0.00	0.00	0.00	0.00	0.00	0.00	0.00	0.00	0.00	0.25	0.00	0.00	0.00	0.00	0.00	0.00	-0.757324	-0.194336	2.197754	-49.070000	-176.050003	34.930000	3.00	0.00	0.00	19.25	15.75	8.75	9.50	1.50	2.50	0.25	0.50	0.00	0.00	0.00	0.25	0.00	0.00	0.00	0.00	-0.216797	0.097656	0.870605	-35.770000	37.240002	-1.610000	723.00	-0.33	-0.04
1.67	0.00	0.00	0.00	0.00	0.00	0.00	0.00	0.00	0.00	0.25	0.00	0.00	0.00	0.00	0.00	0.00	-0.868652	-0.128418	1.934570	-56.000000	-210.419998	32.619999	3.00	0.00	0.00	18.75	15.50	8.75	9.50	1.50	2.75	0.50	0.50	0.25	0.00	0.00	0.00	0.00	0.00	0.00	0.00	-0.310059	0.060059	1.189941	-44.310001	40.040001	-2.590000	722.00	-0.33	-0.04
1.68	0.00	0.00	0.00	0.00	0.00	0.00	0.00	0.00	0.00	0.00	0.00	0.00	0.00	0.00	0.00	0.00	-1.004883	-0.074707	1.546387	-58.590000	-234.430008	28.630001	0.00	0.00	0.00	18.75	15.00	8.50	9.25	2.00	3.00	0.50	0.50	0.00	0.00	0.25	0.25	0.00	0.00	0.00	0.00	-0.303223	-0.003418	1.038574	-29.330000	19.040001	-1.610000	722.00	-0.33	-0.04
1.69	0.00	0.00	0.00	0.00	0.00	0.00	0.00	0.00	0.00	0.25	0.00	0.00	0.00	0.00	0.00	0.00	-1.149414	-0.009766	1.145508	-57.260002	-241.850006	24.430000	3.00	0.00	0.00	18.25	14.50	8.75	9.25	2.00	3.00	0.50	0.50	0.00	0.25	0.25	0.25	0.00	0.25	0.25	0.00	-0.260742	0.036621	0.949707	-11.270000	3.920000	-0.770000	723.00	-0.32	-0.04
1.70	0.00	0.00	0.00	0.00	0.00	0.00	0.00	0.00	0.00	0.25	0.00	0.00	0.00	0.00	0.00	0.00	-1.284180	0.048828	0.555664	-47.040001	-209.649994	20.370001	3.00	0.00	0.00	17.75	14.00	8.50	9.25	2.25	3.00	0.75	0.75	0.75	0.50	0.50	0.25	0.00	0.25	0.25	0.00	-0.245605	0.078613	0.909668	-5.670000	0.070000	0.140000	738.00	-0.30	-0.04
1.71	0.00	0.00	0.00	0.00	0.00	0.00	0.00	0.00	0.00	0.00	0.00	0.00	0.00	0.00	0.00	0.00	-1.287109	0.057617	0.395996	-41.860001	-178.850006	20.090000	0.00	0.00	0.00	17.50	13.50	8.50	9.00	2.50	3.25	0.75	0.75	0.75	0.25	0.50	0.50	0.00	0.50	0.50	0.00	-0.255371	0.048828	0.927246	-4.200000	0.280000	0.490000	738.00	-0.29	-0.04
1.72	0.00	0.00	0.00	0.00	0.00	0.00	0.00	0.00	0.00	0.00	0.00	0.00	0.00	0.00	0.00	0.00	-1.390625	0.054199	0.315430	-36.889999	-146.789993	20.650000	0.00	0.00	0.00	16.75	12.75	8.50	8.75	2.50	3.50	1.00	1.00	1.00	0.50	0.50	0.75	0.00	0.50	0.50	0.00	-0.260742	0.062012	0.917480	-2.310000	2.240000	0.980000	740.00	-0.27	-0.04
1.73	0.00	0.00	0.00	0.50	0.00	0.00	0.00	0.00	0.00	0.25	0.00	0.00	0.00	0.00	0.00	0.00	-1.519531	0.054199	0.265625	-31.500000	-116.480003	21.420000	10.00	0.00	0.00	16.25	12.25	8.50	8.75	3.00	3.75	1.25	1.25	1.25	0.75	0.75	0.75	0.00	1.00	0.50	0.00	-0.261230	0.053223	0.916016	-1.610000	3.360000	1.190000	762.00	-0.25	-0.04
1.74	0.00	0.00	0.00	0.00	0.00	0.00	0.00	0.00	0.00	0.00	0.00	0.00	0.00	0.00	0.00	0.00	-1.665039	0.028809	0.170898	-26.530001	-87.500000	22.260000	0.00	0.00	0.00	15.25	11.75	8.25	8.50	3.00	4.25	1.25	1.25	1.50	0.75	1.25	1.00	0.25	1.00	0.75	0.00	-0.261230	0.061523	0.925781	-1.330000	4.200000	0.980000	763.00	-0.24	-0.04
1.75	0.00	0.00	0.00	0.00	0.00	0.00	0.00	0.00	0.00	0.25	0.00	0.00	0.00	0.00	0.00	0.00	-1.762695	-0.034668	0.096680	-28.420000	-58.590000	20.090000	3.00	0.00	0.00	15.00	11.00	8.25	8.25	3.00	4.00	1.50	1.50	2.00	1.00	1.00	1.25	0.50	1.00	1.00	0.25	-0.270996	0.063477	0.927734	-1.610000	4.760000	0.630000	773.00	-0.22	-0.04
1.76	0.00	0.00	0.00	0.00	0.00	0.00	0.00	0.00	0.00	0.00	0.00	0.00	0.00	0.00	0.00	0.00	-1.753906	-0.049316	0.106934	-40.180000	-31.219999	11.760000	0.00	0.00	0.00	14.25	10.25	8.25	8.00	3.50	4.00	1.75	1.75	2.50	1.25	1.50	1.25	0.75	1.25	0.75	0.25	-0.267090	0.069336	0.927246	-2.660000	5.040000	0.280000	787.00	-0.20	-0.03
1.77	0.00	0.00	0.00	0.00	0.00	0.00	0.00	0.00	0.00	0.50	0.00	0.00	0.00	0.00	0.00	0.00	-1.671387	0.026367	0.122559	-48.860001	-7.770000	-0.840000	6.00	0.00	0.00	13.50	9.00	8.00	7.75	3.50	4.25	2.25	1.75	3.00	1.25	1.75	1.75	1.00	1.50	1.25	0.25	-0.267090	0.057129	0.925781	-4.480000	6.020000	-0.210000	798.00	-0.17	-0.03
1.78	0.00	0.00	0.00	0.00	0.00	0.00	0.00	0.00	0.00	0.25	0.00	0.00	0.00	0.00	0.00	0.00	-1.592285	0.090332	0.189941	-45.290001	12.950000	-13.860000	3.00	0.00	0.00	12.00	8.50	7.75	7.25	3.75	4.50	2.75	2.00	3.50	2.00	1.75	2.00	1.00	2.00	1.50	0.25	-0.284668	0.066895	0.929199	-6.090000	7.000000	-0.700000	812.00	-0.14	-0.03
1.79	0.00	0.00	0.00	0.00	0.00	0.00	0.00	0.00	0.00	0.25	0.00	0.00	0.00	0.00	0.00	0.00	-1.485352	0.143066	0.256348	-35.560001	32.410000	-25.200001	3.00	0.00	0.00	11.00	7.25	7.50	7.00	3.75	4.50	3.25	2.25	4.25	2.00	2.50	2.25	1.50	1.75	1.75	0.50	-0.282227	0.055176	0.925293	-7.210000	7.980000	-1.050000	825.00	-0.12	-0.03
1.80	0.00	0.00	0.00	0.00	0.00	0.00	0.00	0.00	0.00	0.00	0.00	0.00	0.00	0.00	0.00	0.00	-1.439453	0.188965	0.363281	-29.680000	49.770000	-33.950001	0.00	0.00	0.00	9.75	6.50	7.25	6.50	3.75	4.25	4.00	2.25	5.25	2.50	2.75	2.50	1.75	2.50	1.75	0.50	-0.281250	0.050781	0.929688	-8.260000	9.380000	-1.050000	839.00	-0.09	-0.02
1.81	0.00	0.00	0.00	0.00	0.00	0.00	0.00	0.00	0.00	0.25	0.00	0.00	0.00	0.00	0.00	0.00	-1.402344	0.235352	0.448242	-29.750000	65.099998	-39.900002	3.00	0.00	0.00	9.00	5.50	6.75	6.00	3.50	3.75	4.75	2.50	5.75	2.75	3.50	3.00	2.00	3.00	2.50	0.50	-0.288574	0.063965	0.912109	-8.960000	10.850000	-0.700000	858.00	-0.05	-0.01
1.82	0.00	0.00	0.00	0.00	0.00	0.00	0.00	0.00	0.00	0.25	0.00	0.00	0.00	0.00	0.00	0.00	-1.337891	0.299316	0.525879	-32.619999	78.820000	-42.910000	3.00	0.00	0.00	8.25	5.00	6.25	5.50	3.75	3.50	5.25	2.50	6.50	3.75	4.75	3.50	2.25	3.50	2.75	0.75	-0.292969	0.066406	0.920410	-10.220000	11.620000	-0.490000	897.00	-0.02	-0.01
1.83	0.25	0.00	0.00	0.00	0.00	0.00	0.00	0.00	0.00	0.00	0.00	0.00	0.00	0.00	0.00	0.00	-1.263672	0.367188	0.654297	-33.740002	91.910004	-43.889999	3.00	0.00	0.00	7.00	4.25	5.75	5.00	3.50	3.25	5.50	2.50	8.00	4.75	5.50	4.00	2.75	4.25	3.25	1.00	-0.291992	0.061523	0.915039	-12.180000	12.950000	-0.490000	930.00	0.02	-0.00
1.84	0.00	0.00	0.00	0.00	0.00	0.00	0.00	0.00	0.00	0.25	0.00	0.00	0.00	0.00	0.00	0.00	-1.069336	0.465332	0.954590	-21.000000	106.120003	-40.670002	3.00	0.00	0.00	6.50	3.00	5.25	4.25	3.25	2.50	6.00	2.50	8.50	5.50	6.25	4.75	3.00	5.00	3.25	1.00	-0.306152	0.062988	0.923828	-14.210000	14.770000	-0.700000	936.00	0.05	0.00
1.85	0.00	0.00	0.00	0.00	0.00	0.00	0.00	0.00	0.00	0.00	0.00	0.00	0.00	0.00	0.00	0.00	-1.037109	0.516602	0.982910	-9.660000	105.559998	-37.450001	0.00	0.00	0.00	5.75	2.50	4.75	2.75	2.75	2.25	6.25	2.50	9.00	6.50	6.75	5.25	3.25	5.25	4.00	1.25	-0.313477	0.047852	0.917480	-14.630000	17.290001	-0.910000	938.00	0.08	0.01
1.86	0.00	0.00	0.00	0.00	0.00	0.00	0.00	0.00	0.00	0.25	0.00	0.00	0.00	0.00	0.00	0.00	-1.084473	0.575684	1.065430	-3.220000	102.900002	-34.860001	3.00	0.00	0.00	5.00	2.25	4.00	2.25	2.25	1.25	6.50	2.25	9.50	7.25	7.25	5.75	3.50	5.75	4.25	1.50	-0.279785	0.061523	0.928223	-14.630000	21.350000	-1.050000	932.00	0.10	0.01
1.87	0.00	0.00	0.00	0.00	0.00	0.00	0.00	0.00	0.00	0.25	0.00	0.00	0.00	0.00	0.00	0.00	-1.147949	0.692383	1.088379	0.420000	97.300003	-33.110001	3.00	0.00	0.00	4.75	1.75	3.00	1.75	1.75	1.00	6.75	2.00	10.50	7.50	7.75	6.25	3.50	6.25	4.25	1.50	-0.288574	0.054688	0.939941	-14.490000	35.070000	-3.570000	930.00	0.12	0.02
1.88	0.00	0.00	0.50	0.00	0.00	0.00	0.00	0.00	0.00	0.00	0.00	0.00	0.00	0.00	0.00	0.00	-0.092285	0.429688	2.432129	38.709999	168.630005	4.830000	7.00	0.00	0.00	4.25	1.50	2.50	1.75	0.75	0.25	7.00	1.75	11.00	7.75	8.00	6.50	3.75	7.25	5.00	1.50	-0.272949	0.049805	0.979980	-13.230000	47.110001	-6.720000	931.00	0.15	0.02
1.89	1.75	0.75	0.25	0.00	0.00	0.00	0.00	0.00	0.00	0.00	0.00	0.00	0.00	0.00	0.00	0.00	2.038574	-0.120605	2.045410	-3.850000	129.149994	22.330000	33.00	0.00	0.00	3.75	1.50	2.25	1.00	1.00	0.00	7.25	1.25	12.00	8.25	8.25	6.50	3.75	7.75	5.00	1.50	-0.325684	0.037598	0.994141	-10.850000	65.379997	-9.450000	937.00	0.16	0.04
1.90	3.50	1.50	1.00	0.00	0.00	0.00	0.00	0.00	0.00	0.00	0.00	0.00	0.00	0.00	0.00	0.00	1.261719	0.467773	0.651367	15.890000	52.709999	51.170002	73.00	-0.38	0.04	2.75	1.50	1.75	1.00	0.75	0.00	7.25	1.00	12.75	8.75	8.50	7.00	3.50	8.25	5.00	1.75	-0.333496	0.047852	1.016602	-7.210000	88.129997	-10.640000	942.00	0.18	0.04
1.91	5.00	2.75	1.50	1.25	0.00	0.00	0.00	0.00	0.00	0.00	0.00	0.00	0.00	0.00	0.00	0.00	0.087402	-0.163574	-0.505859	67.970001	63.560001	83.160004	129.00	-0.37	-0.00	2.50	1.25	1.75	0.25	0.75	0.00	7.25	0.75	13.25	9.00	8.75	7.00	3.25	8.75	5.25	2.00	-0.326172	0.048828	1.013184	-4.900000	112.419998	-10.640000	943.00	0.19	0.05
1.92	7.75	4.25	1.75	1.00	0.00	0.00	0.00	0.00	0.00	0.00	0.00	0.00	0.00	0.00	0.00	0.00	-0.043457	-0.399414	0.178711	90.930000	140.419998	96.040001	179.00	-0.38	0.01	2.75	1.25	1.75	0.50	0.50	0.00	7.25	0.50	13.75	9.25	9.00	7.00	2.50	9.00	5.25	2.00	-0.382812	0.049316	1.055176	-8.330000	136.570007	-11.060000	950.00	0.19	0.06
1.93	10.75	5.75	2.50	1.25	0.00	0.00	0.00	0.00	0.00	0.00	0.00	0.00	0.00	0.00	0.00	0.00	-0.446289	-0.683594	1.467285	106.470001	172.970001	84.419998	246.00	-0.38	0.01	2.00	0.75	1.50	0.25	0.50	0.00	7.25	0.50	14.00	9.50	9.25	6.75	2.50	9.50	5.25	2.00	-0.426758	0.062988	1.003906	-13.370000	160.369995	-12.250000	941.00	0.21	0.06
1.94	13.00	8.25	3.75	1.75	0.00	0.00	0.00	0.00	0.00	0.00	0.00	0.00	0.00	0.00	0.00	0.00	-0.825684	-0.819336	1.812012	91.910004	158.270004	43.470001	325.00	-0.38	0.01	2.50	0.75	1.25	0.00	0.50	0.00	7.00	0.25	14.50	9.50	9.25	6.75	1.75	9.75	5.25	2.25	-0.461426	0.053223	1.067871	-19.180000	182.490005	-13.930000	935.00	0.21	0.07
1.95	15.25	10.00	4.75	3.00	0.00	0.00	0.00	0.00	0.00	0.00	0.00	0.00	0.00	0.00	0.00	0.00	-0.759277	-0.340820	1.732910	60.900002	146.720001	-7.000000	402.00	-0.37	-0.00	1.75	0.75	1.00	0.00	0.25	0.00	7.00	0.00	14.50	9.75	9.25	6.50	1.50	10.00	5.25	2.75	-0.476562	0.031738	1.065430	-26.809999	204.889999	-15.680000	918.00	0.22	0.07
1.96	17.25	11.75	5.25	4.50	0.00	0.00	0.00	0.00	0.00	0.25	0.00	0.00	0.00	0.00	0.00	0.00	-0.456055	0.377441	1.569824	46.689999	134.680008	-25.480000	476.00	-0.37	-0.01	1.75	0.75	0.00	0.00	0.25	0.00	6.75	0.00	14.75	9.75	9.25	6.50	1.50	10.25	5.25	3.00	-0.506836	0.031738	1.075684	-32.830002	229.389999	-16.730000	908.00	0.23	0.07
1.97	18.25	12.75	5.75	5.75	0.00	0.00	0.00	0.00	0.00	0.00	0.00	0.00	0.00	0.00	0.00	0.00	-0.391113	0.435547	1.333984	44.450001	127.610001	-12.390000	519.00	-0.37	-0.02	1.00	0.75	0.25	0.00	0.25	0.00	6.75	0.00	14.50	9.75	9.00	6.00	0.75	10.75	5.00	3.25	-0.541504	0.014160	1.069824	-37.310001	248.850006	-17.080000	885.00	0.23	0.08
1.98	18.75	14.00	6.75	5.75	0.00	0.00	0.00	0.00	0.00	0.00	0.00	0.00	0.00	0.00	0.00	0.00	-0.380859	0.147461	1.289551	44.730000	130.899994	4.060000	552.00	-0.37	-0.02	1.00	0.50	0.75	0.00	0.00	0.00	6.50	0.00	14.25	9.50	9.00	5.75	0.75	11.00	5.25	4.25	-0.587402	0.019531	1.056641	-43.189999	267.049988	-17.150000	883.00	0.24	0.07
1.99	20.00	14.75	7.50	7.00	0.25	0.50	0.00	0.00	0.00	0.25	0.00	0.00	0.00	0.00	0.00	0.00	-0.522949	-0.325684	1.585449	38.009998	123.690002	2.310000	615.00	-0.36	-0.02	1.25	0.75	0.25	0.00	0.00	0.00	6.50	0.00	13.75	9.25	8.75	5.50	0.50	11.00	5.00	4.75	-0.664062	0.011230	1.117676	-45.849998	286.579987	-17.080000	863.00	0.24	0.08
2.00	20.25	15.25	8.50	7.50	0.50	0.75	0.00	0.00	0.00	0.50	0.00	0.00	0.00	0.25	0.00	0.00	-0.554688	0.212402	1.499512	53.830002	61.180000	-5.320000	656.00	-0.35	-0.02	0.50	0.50	0.00	0.50	0.00	0.00	6.25	0.00	13.25	9.00	8.25	5.00	0.25	11.25	4.75	5.00	-0.736328	0.025391	1.187988	-47.740002	304.290009	-17.710001	824.00	0.25	0.08
2.01	20.75	15.75	8.75	8.00	0.50	0.75	0.00	0.25	0.00	0.50	0.00	0.00	0.00	0.25	0.00	0.00	-0.383301	0.154297	1.113281	34.230000	29.260000	-0.840000	682.00	-0.35	-0.03	0.25	0.50	0.00	0.00	0.00	0.00	6.00	0.00	12.25	8.50	7.50	4.00	0.50	11.25	4.25	5.00	-0.838867	0.019043	1.295898	-48.650002	319.760010	-18.760000	763.00	0.25	0.08
2.02	21.00	16.00	8.75	8.25	0.50	0.75	0.00	0.00	0.00	0.50	0.00	0.00	0.00	0.00	0.00	0.00	-0.307617	0.017578	1.019531	14.560000	13.580000	0.000000	684.00	-0.35	-0.02	0.50	0.50	0.00	0.00	0.00	0.00	5.75	0.00	11.25	7.75	6.50	3.00	0.25	11.50	3.25	5.00	-1.289062	0.090820	1.825684	-41.860001	343.000000	-21.070000	698.00	0.25	0.09
2.03	22.00	16.50	9.25	8.75	0.75	0.50	0.25	0.25	0.25	0.75	0.00	0.00	0.00	0.50	0.00	0.00	-0.278320	0.031250	0.975098	9.520000	8.470000	-0.420000	737.00	-0.34	-0.02	0.25	0.25	0.00	0.00	0.00	0.00	5.50	0.00	9.75	6.50	5.50	2.25	0.75	11.25	2.00	4.25	-1.763184	0.077637	2.352051	-33.180000	353.010010	-20.299999	609.00	0.25	0.10
2.04	21.75	16.75	9.25	8.75	0.75	1.25	0.25	0.50	0.00	0.50	0.00	0.00	0.00	0.25	0.00	0.00	-0.293457	0.072754	0.992676	6.650000	6.020000	0.490000	741.00	-0.34	-0.03	0.00	0.25	0.00	0.00	0.00	0.00	5.00	0.00	8.75	5.25	4.00	1.25	0.75	10.75	1.50	3.25	-1.606934	0.225098	2.376953	-28.139999	361.970001	-22.049999	517.00	0.26	0.12
2.05	21.75	17.00	9.25	8.75	0.75	1.25	0.25	0.00	0.00	0.50	0.00	0.00	0.00	0.25	0.00	0.00	-0.290527	0.053711	0.977539	1.680000	3.150000	1.330000	735.00	-0.35	-0.03	0.25	0.25	0.00	0.00	0.00	0.00	3.75	0.00	7.75	4.00	2.75	1.25	0.50	9.50	1.00	2.75	-1.333008	0.214844	2.248047	-15.680000	375.480011	-28.840000	426.00	0.26	0.12
2.06	21.50	17.25	9.25	8.75	0.75	1.00	0.25	0.50	0.00	0.25	0.00	0.00	0.00	0.00	0.00	0.00	-0.276855	0.027344	0.953613	-0.560000	1.540000	1.400000	735.00	-0.35	-0.03	0.25	0.00	0.00	0.00	0.00	0.00	2.50	0.00	6.75	3.00	2.25	1.50	0.25	8.75	0.75	2.25	-1.460449	-0.090332	2.336426	-9.520000	391.369995	-41.090000	353.00	0.27	0.12
2.07	21.50	17.00	9.00	8.75	0.75	1.50	0.25	0.00	0.00	0.25	0.00	0.00	0.00	0.25	0.00	0.00	-0.278320	0.032715	0.954102	-0.560000	1.330000	1.610000	728.00	-0.35	-0.03	0.00	0.00	0.00	0.00	0.00	0.00	1.25	0.00	5.50	2.50	1.75	1.25	0.25	7.50	0.25	1.00	-1.536621	-0.160645	2.731445	-27.719999	410.130005	-49.279999	265.00	0.28	0.13
2.08	21.75	17.00	9.00	8.75	0.75	1.00	0.00	0.25	0.00	0.50	0.00	0.00	0.00	0.25	0.00	0.00	-0.265137	0.034180	0.940430	0.350000	1.540000	2.030000	728.00	-0.35	-0.03	0.00	0.00	0.00	0.00	0.00	0.00	0.75	0.00	4.00	2.00	1.50	1.25	0.00	6.00	0.50	0.25	-1.389160	0.228516	3.261719	-56.700001	418.390015	-52.920002	204.00	0.29	0.12
2.09	21.00	17.00	9.00	8.75	0.50	1.00	0.00	0.50	0.00	0.50	0.00	0.00	0.00	0.00	0.00	0.00	-0.259277	0.031738	0.942383	1.470000	2.380000	2.310000	718.00	-0.35	-0.03	0.75	0.25	0.00	0.00	0.00	0.00	0.25	0.00	2.75	1.75	1.25	0.75	0.00	3.00	0.00	0.00	-0.579102	0.408203	3.295410	-79.449997	408.869995	-49.490002	137.00	0.22	0.11
2.10	21.00	16.75	9.00	8.50	0.50	1.00	0.25	0.00	0.00	0.25	0.00	0.00	0.00	0.00	0.00	0.00	-0.252930	0.028320	0.930664	2.800000	3.500000	2.240000	704.00	-0.35	-0.03	0.00	0.00	0.25	0.00	0.00	0.00	0.00	0.00	1.00	1.00	0.25	0.50	0.00	0.50	0.25	0.00	0.618652	0.393555	2.834961	-90.790001	382.760010	-47.810001	49.00	0.00	0.00
2.11	20.75	16.25	8.75	8.75	0.50	1.25	0.00	0.50	0.00	0.25	0.00	0.00	0.00	0.00	0.00	0.00	-0.246582	0.035156	0.934570	4.130000	4.690000	1.960000	703.00	-0.35	-0.04	0.25	0.25	0.00	0.00	0.00	0.00	0.00	0.00	0.50	0.75	0.00	0.00	0.00	0.75	0.00	0.00	1.696289	0.623535	3.049805	-83.790001	313.600006	-34.930000	31.00	0.00	0.00
2.12	20.00	16.00	8.75	8.25	0.50	1.25	0.00	0.25	0.00	0.25	0.00	0.00	0.00	0.50	0.00	0.00	-0.245117	0.039062	0.931641	4.970000	5.320000	1.680000	685.00	-0.34	-0.03	0.00	0.50	0.00	0.00	0.00	0.00	0.00	0.00	0.25	0.50	0.25	0.25	0.00	0.25	0.00	0.00	0.593750	0.917480	5.005859	-73.010002	191.869995	-13.160000	24.00	0.00	0.00
2.13	19.25	15.75	8.50	8.50	0.50	1.50	0.00	0.25	0.00	0.50	0.00	0.00	0.00	0.50	0.00	0.00	-0.240723	0.041016	0.920898	5.390000	6.790000	1.190000	679.00	-0.34	-0.03	0.00	0.25	0.00	0.00	0.00	0.00	0.00	0.00	0.50	0.75	0.25	0.50	0.00	0.25	0.00	0.00	2.622070	0.792969	4.629883	-20.790001	6.230000	2.800000	32.00	0.00	0.00
2.14	18.75	15.25	8.25	8.50	0.50	1.50	0.00	0.75	0.00	0.25	0.00	0.00	0.00	0.00	0.00	0.00	-0.226074	0.050293	0.924805	4.970000	8.190000	0.560000	665.00	-0.34	-0.04	0.25	0.25	0.00	0.00	0.00	0.00	0.00	0.00	0.25	0.75	0.25	0.25	0.00	0.25	0.25	0.00	1.840820	0.543457	3.167969	6.930000	-140.419998	21.000000	31.00	0.00	0.00
2.15	18.75	15.00	8.25	8.25	0.50	1.00	0.25	0.25	0.00	0.50	0.00	0.00	0.00	0.25	0.00	0.00	-0.212891	0.047363	0.916016	5.320000	13.790000	0.210000	654.00	-0.34	-0.03	0.00	0.00	0.00	0.00	0.00	0.00	0.00	0.00	0.25	0.50	0.25	0.00	0.00	0.00	0.00	0.00	1.801270	0.374512	2.300293	15.330000	-208.600006	31.639999	13.00	0.00	0.00
2.16	18.00	14.25	8.25	8.25	0.50	1.50	0.25	0.50	0.00	0.50	0.00	0.00	0.00	0.00	0.00	0.00	-0.254395	0.055664	0.943359	5.110000	14.280000	-0.070000	644.00	-0.34	-0.04	0.25	0.25	0.00	0.00	0.00	0.00	0.00	0.00	0.50	0.25	0.00	0.00	0.00	0.25	0.00	0.00	1.496094	0.190430	1.967773	60.619999	-254.029999	26.880001	19.00	0.00	0.00
2.17	17.50	14.00	8.00	8.00	0.50	1.75	0.25	0.50	0.00	0.75	0.00	0.00	0.00	0.00	0.00	0.00	-0.269043	0.050293	0.937988	3.920000	12.460000	-0.070000	635.00	-0.33	-0.04	0.25	0.25	0.00	0.00	0.00	0.00	0.00	0.00	0.00	0.25	0.00	0.25	0.00	0.00	0.00	0.00	1.310547	-0.023926	2.138184	92.470001	-286.089996	15.820000	12.00	0.00	0.00
2.18	17.00	13.50	8.00	7.75	0.50	1.75	0.25	1.00	0.00	0.75	0.00	0.00	0.00	0.25	0.00	0.00	-0.260742	0.048828	0.924805	1.260000	11.410000	-0.280000	632.00	-0.33	-0.04	0.00	0.00	0.00	0.00	0.00	0.00	0.00	0.00	0.00	0.50	0.00	0.00	0.00	0.00	0.00	0.00	1.109375	-0.205078	2.213379	110.529999	-329.769989	3.150000	6.00	0.00	0.00
2.19	16.25	13.00	8.00	7.75	0.50	2.00	0.25	1.00	0.25	0.50	0.50	0.25	0.00	0.25	0.25	0.00	-0.269043	0.049805	0.925781	-1.120000	11.550000	-0.490000	634.00	-0.31	-0.04	0.00	0.25	0.00	0.00	0.00	0.00	0.00	0.00	0.00	0.00	0.00	0.00	0.00	0.00	0.00	0.00	0.855469	-0.324219	2.148926	109.410004	-374.570007	-9.380000	3.00	0.00	0.00
2.20	15.25	12.25	7.75	7.75	0.50	2.00	0.50	1.00	0.00	1.00	0.50	0.00	0.00	0.50	0.50	0.00	-0.269531	0.046387	0.927246	-2.940000	12.460000	-0.840000	619.00	-0.30	-0.04	0.00	0.00	0.00	0.00	0.00	0.00	0.00	0.00	0.00	0.00	0.00	0.00	0.00	0.00	0.00	0.00	0.545898	-0.379395	1.983398	97.580002	-411.809998	-20.299999	0.00	0.00	0.00
2.21	15.00	11.75	7.75	7.50	0.75	2.25	0.50	1.50	0.50	1.00	0.50	0.25	0.00	0.75	0.50	0.00	-0.281250	0.043457	0.925781	-3.430000	12.880000	-1.260000	636.00	-0.28	-0.04	0.00	0.00	0.00	0.00	0.00	0.00	0.00	0.00	0.00	0.00	0.00	0.00	0.00	0.00	0.00	0.00	0.238281	-0.375977	1.813965	86.590004	-437.010010	-30.380001	0.00	0.00	0.00
2.22	14.25	10.50	7.75	7.50	0.75	2.50	0.75	1.25	0.50	0.75	0.75	0.25	0.00	1.00	0.25	0.00	-0.270508	0.044922	0.923828	-4.130000	13.370000	-1.750000	616.00	-0.27	-0.04	0.00	0.00	0.00	0.00	0.00	0.00	0.00	0.00	0.00	0.25	0.00	0.00	0.00	0.00	0.00	0.00	-0.038574	-0.344727	1.657227	84.139999	-450.170013	-41.020000	3.00	0.00	0.00
2.23	13.75	10.25	7.75	7.50	0.75	2.50	0.75	1.50	0.75	1.25	0.75	0.50	0.00	1.00	0.75	0.00	-0.282227	0.045410	0.923828	-5.110000	14.490000	-2.380000	631.00	-0.25	-0.04	0.00	0.00	0.25	0.00	0.00	0.00	0.00	0.00	0.25	0.00	0.00	0.00	0.00	0.00	0.00	0.00	-0.261719	-0.337891	1.544434	92.750000	-452.690002	-51.520000	7.00	0.00	0.00
2.24	13.00	9.25	7.50	7.00	0.75	2.25	1.00	1.75	1.25	1.50	0.75	0.75	0.00	1.00	1.00	0.00	-0.291992	0.036133	0.912598	-4.690000	15.120000	-2.870000	624.00	-0.23	-0.04	0.00	0.00	0.00	0.00	0.00	0.00	0.00	0.00	0.00	0.00	0.00	0.00	0.00	0.00	0.00	0.00	-0.480469	-0.375000	1.471680	110.040001	-447.089996	-59.779999	0.00	0.00	0.00
2.25	12.00	8.75	7.50	7.00	1.00	2.75	1.50	1.50	1.50	1.75	1.25	0.75	0.25	1.50	1.00	0.25	-0.273438	0.034180	0.916016	-3.080000	15.820000	-3.080000	643.00	-0.20	-0.03	0.00	0.00	0.00	0.00	0.00	0.00	0.00	0.00	0.50	0.00	0.00	0.00	0.00	0.00	0.00	0.00	-0.648438	-0.441895	1.528320	127.680000	-434.559998	-65.449997	8.00	0.00	0.00
2.26	11.50	8.25	7.50	6.75	1.00	3.00	2.00	2.00	2.25	2.00	1.25	1.00	0.50	1.50	1.50	0.25	-0.283691	0.041992	0.915527	-0.210000	16.520000	-2.870000	676.00	-0.17	-0.03	0.00	0.00	0.00	0.00	0.00	0.00	0.00	0.00	0.00	0.00	0.00	0.00	0.00	0.00	0.00	0.00	-0.739746	-0.561035	1.677734	131.320007	-419.019989	-70.070000	0.00	0.00	0.00
2.27	10.50	8.00	7.25	6.50	1.25	3.25	2.50	2.50	2.50	2.00	1.50	1.25	1.00	2.00	1.75	0.50	-0.290039	0.041992	0.931152	2.450000	16.730000	-2.520000	704.00	-0.14	-0.04	0.00	0.00	0.00	0.00	0.00	0.00	0.00	0.00	0.00	0.00	0.00	0.00	0.00	0.00	0.00	0.00	-0.779785	-0.619629	1.829102	115.220001	-405.929993	-73.360001	0.00	0.00	0.00
2.28	9.50	6.75	6.75	6.00	1.25	3.00	3.00	2.50	3.25	2.50	2.00	1.50	1.00	2.25	2.25	0.75	-0.299316	0.041504	0.946777	3.990000	16.660000	-2.030000	708.00	-0.11	-0.03	0.00	0.00	0.00	0.00	0.00	0.00	0.00	0.00	0.00	0.00	0.00	0.00	0.00	0.00	0.00	0.00	-0.874023	-0.588379	1.965820	94.010002	-396.269989	-76.019997	0.00	0.00	0.00
2.29	8.50	6.00	6.50	5.75	1.25	2.75	3.75	2.50	4.25	3.25	2.50	1.75	1.25	2.25	2.50	0.75	-0.309570	0.040527	0.943848	4.200000	16.940001	-1.400000	731.00	-0.07	-0.02	0.25	0.00	0.00	0.00	0.00	0.00	0.00	0.00	0.25	0.00	0.00	0.00	0.00	0.00	0.00	0.00	-0.967773	-0.501953	2.014648	81.059998	-388.429993	-77.769997	7.00	0.00	0.00
2.30	7.50	5.75	5.75	5.25	1.25	3.00	4.25	3.00	5.50	3.75	2.75	2.50	1.75	3.00	3.25	1.00	-0.311035	0.054688	0.929199	4.410000	20.370001	-1.260000	782.00	-0.03	-0.02	0.25	0.00	0.00	0.00	0.00	0.00	0.00	0.00	0.00	0.00	0.00	0.00	0.00	0.00	0.00	0.00	-1.081055	-0.324219	2.007812	72.379997	-365.610016	-71.260002	3.00	0.00	0.00
2.31	6.50	5.00	5.75	4.75	1.25	3.25	4.75	3.75	6.50	4.25	3.50	2.50	2.25	4.00	3.75	1.25	-0.320801	0.057617	0.938965	5.180000	23.100000	-1.050000	835.00	0.00	-0.02	0.00	0.00	0.00	0.00	0.00	0.00	0.00	0.00	0.00	0.00	0.00	0.00	0.00	0.00	0.00	0.00	-1.118652	-0.238770	2.032715	63.420002	-347.760010	-63.630001	0.00	0.00	0.00
2.32	5.00	4.00	5.00	4.25	1.25	2.75	5.00	4.00	7.50	5.50	4.75	3.25	3.00	4.75	4.75	1.50	-0.329590	0.055664	0.954590	5.390000	26.530001	-0.840000	878.00	0.05	-0.02	0.00	0.25	0.00	0.00	0.00	0.00	0.00	0.00	0.00	0.00	0.00	0.00	0.00	0.00	0.00	0.00	-1.147949	-0.133789	2.061523	49.700001	-325.149994	-54.599998	3.00	0.00	0.00
2.33	4.25	3.00	5.00	3.50	1.25	2.75	5.25	4.25	8.00	6.25	5.75	4.00	4.00	5.25	5.25	1.50	-0.341309	0.046387	0.923828	6.300000	31.080000	-0.560000	917.00	0.08	-0.02	0.00	0.00	0.00	0.00	0.00	0.00	0.00	0.00	0.00	0.00	0.00	0.00	0.00	0.00	0.00	0.00	-1.222656	-0.006836	2.184082	35.279999	-299.950012	-44.310001	0.00	0.00	0.00
2.34	3.00	2.25	3.00	2.25	1.00	2.00	5.50	4.25	8.75	7.50	6.50	4.25	4.75	5.75	5.75	2.00	-0.336426	0.095215	0.915039	4.900000	36.750000	-1.050000	904.00	0.12	-0.02	0.00	0.00	0.00	0.00	0.00	0.00	0.00	0.00	0.00	0.00	0.00	0.00	0.00	0.00	0.00	0.00	-1.314453	0.155762	2.309082	27.230000	-276.290009	-30.730000	0.00	0.00	0.00
2.35	2.00	1.50	2.75	1.75	0.50	1.50	5.75	4.50	9.50	7.75	7.25	5.50	5.00	6.50	6.00	2.75	-0.335938	0.077637	0.939453	3.080000	43.400002	-0.770000	927.00	0.15	-0.02	0.00	0.00	0.00	0.00	0.00	0.00	0.00	0.00	0.25	0.00	0.00	0.00	0.00	0.00	0.00	0.00	-1.456543	0.343262	2.466309	32.410000	-259.420013	-10.710000	4.00	0.00	0.00
2.36	0.75	0.75	1.50	1.75	0.50	0.75	6.00	4.75	10.25	8.25	7.75	6.25	5.50	8.00	6.50	3.50	-0.343750	0.072754	0.952637	6.860000	52.709999	-1.820000	951.00	0.18	-0.02	0.00	0.00	0.00	0.00	0.00	0.00	0.00	0.00	0.00	0.00	0.00	0.00	0.00	0.00	0.00	0.00	-1.288086	0.780762	2.066406	63.139999	-225.960007	30.590000	0.00	0.00	0.00
2.37	1.25	1.00	1.25	1.00	0.25	0.25	6.00	4.25	11.25	8.75	8.25	7.00	5.75	8.75	7.25	4.00	-0.347656	0.086914	1.045410	13.510000	67.620003	-4.270000	988.00	0.20	-0.02	0.00	0.00	0.00	0.00	0.00	0.00	0.00	0.00	0.00	0.00	0.00	0.00	0.00	0.00	0.00	0.00	-2.098633	0.656250	2.815918	74.480003	-251.930008	73.010002	0.00	0.00	0.00
2.38	0.25	0.75	1.00	0.50	0.25	0.00	6.25	3.75	12.00	9.00	8.50	7.50	6.00	9.50	7.75	4.50	-0.382812	0.062012	0.966797	16.870001	88.480003	-5.040000	999.00	0.22	-0.01	0.00	0.00	0.00	0.00	0.00	0.00	0.00	0.00	0.00	0.00	0.00	0.00	0.00	0.00	0.00	0.00	-2.375000	0.565430	2.763184	123.620003	-267.959991	135.940002	0.00	0.00	0.00
2.39	0.00	0.50	0.75	0.25	0.00	0.00	6.00	3.00	12.50	9.50	8.75	7.75	6.25	10.00	8.00	5.00	-0.380859	0.033691	1.003906	20.090000	114.169998	-4.130000	1000.00	0.23	-0.01	0.00	0.00	0.00	0.00	0.00	0.00	0.00	0.00	0.00	0.00	0.00	0.00	0.00	0.00	0.00	0.00	-2.708496	0.245605	2.555664	152.460007	-284.619995	198.309998	0.00	0.00	0.00
2.40	0.25	0.00	0.25	0.50	0.00	0.00	6.00	2.00	13.00	9.75	9.00	8.00	6.50	10.50	8.25	5.50	-0.438965	0.045410	1.021973	21.700001	145.320007	-1.190000	1007.00	0.24	0.00	0.00	0.00	0.00	0.00	0.00	0.00	0.00	0.00	0.00	0.00	0.00	0.00	0.00	0.00	0.00	0.00	-3.547363	0.216797	2.550293	141.330002	-306.880005	256.059998	0.00	0.00	0.00
2.41	0.00	0.00	0.25	0.00	0.00	0.00	6.00	1.25	13.25	10.00	9.25	8.00	6.00	11.25	8.25	5.75	-0.446289	0.042480	1.073242	21.139999	184.449997	1.190000	998.00	0.25	0.01	0.00	0.00	0.00	0.00	0.00	0.00	0.00	0.00	0.00	0.00	0.00	0.00	0.00	0.00	0.00	0.00	-4.246582	0.145996	2.226562	99.120003	-332.570007	295.260010	0.00	0.00	0.00
2.42	0.00	0.00	0.25	0.00	0.00	0.00	5.75	0.25	13.50	10.00	9.25	8.00	5.75	11.50	8.50	6.00	-0.451660	0.076660	1.080078	15.960000	229.320007	1.120000	984.00	0.26	0.02	0.00	0.00	0.00	0.50	0.00	0.00	0.00	0.00	0.00	0.00	0.00	0.00	0.00	0.00	0.00	0.00	-5.846191	0.067383	1.742188	62.580002	-374.709991	300.440002	7.00	0.00	0.00
2.43	0.00	0.00	0.00	0.00	0.00	0.00	5.75	0.00	13.50	10.25	9.50	8.00	5.25	11.75	8.75	6.25	-0.530762	0.113281	1.154785	8.260000	271.040009	-2.100000	984.00	0.26	0.02	0.00	0.00	0.00	0.00	0.00	0.00	0.00	0.00	0.00	0.00	0.00	0.00	0.00	0.00	0.00	0.00	-7.665039	-0.013184	0.026855	80.709999	-440.440002	258.510010	0.00	0.00	0.00
2.44	0.00	0.00	0.00	0.00	0.00	0.00	5.50	0.00	13.25	10.00	9.25	7.75	4.75	11.75	8.50	6.75	-0.659180	0.189453	1.261230	-9.310000	349.089996	-17.500000	962.00	0.26	0.02	0.00	0.00	0.25	0.00	0.00	0.00	0.00	0.00	0.25	0.00	0.00	0.00	0.00	0.00	0.00	0.00	-7.458008	-0.174805	-2.131836	209.580002	-410.829987	181.369995	7.00	0.00	0.00
2.45	0.00	0.00	0.00	0.00	0.00	0.00	5.25	0.00	12.50	9.50	9.25	7.50	3.75	12.25	8.50	7.00	-0.801270	0.196289	1.479492	-16.450001	387.309998	-26.180000	932.00	0.27	0.03	0.00	0.00	1.00	0.00	0.00	0.00	0.00	0.00	0.00	0.00	0.00	0.00	0.00	0.00	0.00	0.00	-6.161133	-0.743652	-3.563477	324.450012	-249.759995	118.860001	13.00	0.00	0.00
2.46	0.00	0.00	0.00	0.00	0.00	0.00	5.00	0.00	11.75	9.00	8.75	7.00	3.75	12.25	8.25	7.25	-0.975586	0.212402	1.704590	-14.210000	422.029999	-30.450001	896.00	0.27	0.02	0.00	0.00	0.25	0.00	0.00	0.00	0.00	0.00	0.00	0.00	0.00	0.00	0.00	0.00	0.00	0.00	-3.903809	-1.410645	-1.498535	119.910004	150.360001	22.610001	3.00	0.00	0.00
2.47	0.00	0.00	0.00	0.00	0.00	0.00	4.25	0.00	10.50	8.25	8.00	5.75	2.50	12.50	7.75	7.25	-1.369141	0.212891	2.162598	-4.200000	448.070007	-30.309999	812.00	0.28	0.03	0.00	0.00	0.25	0.00	0.00	0.00	0.00	0.00	0.00	0.00	0.00	0.00	0.00	0.00	0.00	0.00	-3.282227	-0.539062	0.791992	-60.549999	253.470001	17.219999	3.00	0.00	0.00
2.48	0.00	0.00	0.00	0.00	0.00	0.00	3.50	0.00	8.75	6.75	6.50	4.50	2.25	12.50	7.50	7.00	-2.051270	0.434082	3.011719	9.940000	467.600006	-25.270000	711.00	0.28	0.03	1.25	0.50	0.00	0.00	0.00	0.00	0.00	0.00	0.00	0.00	0.00	0.00	0.00	0.00	0.00	0.00	-0.153809	0.708496	4.157227	-178.639999	358.610016	25.690001	21.00	0.00	0.00
2.49	0.00	0.00	0.00	0.00	0.00	0.00	2.75	0.00	7.50	5.25	4.50	3.50	2.25	12.00	6.00	6.25	-1.860840	0.393066	3.480957	28.139999	478.029999	-19.250000	593.00	0.29	0.04	4.25	2.00	0.75	0.50	0.00	0.00	0.00	0.00	0.00	0.00	0.00	0.00	0.00	0.00	0.25	0.00	0.335938	0.382324	2.372070	-206.080002	218.259995	28.910000	94.00	-0.36	0.01
2.50	0.00	0.00	0.00	0.00	0.00	0.00	1.75	0.00	6.00	3.75	3.00	2.75	1.75	10.50	5.00	5.50	-1.729492	0.173828	3.040527	41.369999	486.640015	-14.490000	467.00	0.30	0.03	6.75	5.50	1.25	1.00	0.00	0.00	0.00	0.00	0.00	0.00	0.00	0.00	0.00	0.00	0.00	0.00	-0.142578	0.139160	0.685059	-177.029999	138.180008	61.880001	174.00	-0.39	-0.01
2.51	0.00	0.00	0.00	0.00	0.00	0.00	1.00	0.00	4.50	3.00	2.00	2.00	0.50	9.25	4.00	4.25	-1.734863	-0.358887	3.235352	57.680000	505.190002	-9.520000	352.00	0.31	0.05	10.75	8.25	2.25	2.75	0.00	0.00	0.00	0.00	0.00	0.00	0.00	0.00	0.00	0.00	0.00	0.00	-0.192383	-0.914062	-0.107910	-88.970001	232.750000	101.150002	290.00	-0.38	-0.02
2.52	0.00	0.00	0.00	0.00	0.00	0.00	0.75	0.00	3.25	2.25	1.75	1.00	0.00	7.75	2.25	2.50	-1.422363	-0.336914	3.648438	25.620001	539.489990	-12.320000	250.00	0.31	0.08	13.50	11.00	3.25	2.50	0.00	0.00	0.00	0.00	0.00	0.00	0.00	0.00	0.00	0.00	0.25	0.00	-0.543945	-1.978027	1.648438	-33.320000	334.670013	89.389999	368.00	-0.37	-0.02
2.53	0.00	0.00	0.00	0.00	0.00	0.00	0.25	0.00	2.25	2.25	1.50	1.00	0.00	5.25	1.00	0.75	-1.186523	-0.025879	4.776855	3.640000	557.409973	1.470000	170.00	0.31	0.08	16.75	13.75	4.50	3.50	0.00	0.00	0.00	0.00	0.00	0.00	0.00	0.00	0.00	0.00	0.00	0.00	-1.158203	-1.739746	3.323242	10.010000	317.589996	31.150000	465.00	-0.38	-0.02
2.54	0.00	0.00	0.25	0.00	0.00	0.00	0.25	0.00	1.00	2.00	1.00	0.75	0.00	2.25	0.75	0.50	0.202148	-0.474121	4.539062	-4.760000	563.429993	15.540000	106.00	0.27	0.05	19.00	15.75	5.75	4.00	0.00	0.00	0.00	0.00	0.00	0.00	0.00	0.00	0.00	0.00	0.00	0.00	-0.952637	-1.146973	2.764160	3.080000	242.830002	-46.340000	538.00	-0.38	-0.02
2.55	0.00	0.00	0.00	0.00	0.00	0.00	0.00	0.00	0.50	1.50	0.25	0.25	0.00	1.25	0.25	0.00	2.528809	-0.333496	3.320312	-50.400002	497.070007	15.050000	49.00	0.00	0.00	20.50	17.00	7.00	6.25	0.25	0.00	0.00	0.00	0.00	0.00	0.00	0.00	0.00	0.00	0.00	0.00	-0.635254	0.674316	1.966797	-7.700000	211.680008	-93.379997	620.00	-0.37	-0.02
2.56	0.00	0.00	0.00	0.00	0.00	0.00	0.00	0.00	0.25	1.50	0.50	0.00	0.00	0.25	0.25	0.00	1.889648	-0.654297	2.361328	-124.180000	349.510010	24.150000	34.00	0.00	0.00	21.50	17.50	7.75	6.50	0.25	0.00	0.00	0.00	0.00	0.00	0.00	0.00	0.00	0.00	0.00	0.00	-0.526367	1.556641	2.003906	9.310000	199.710007	-58.939999	651.00	-0.37	-0.02
2.57	0.00	0.25	0.50	0.00	0.00	0.00	0.00	0.00	0.25	1.25	0.25	0.00	0.00	0.50	0.00	0.00	1.594727	0.141602	6.975586	-112.349998	140.559998	28.490000	37.00	0.00	0.00	21.25	17.75	8.00	7.75	0.25	0.00	0.00	0.00	0.00	0.00	0.00	0.00	0.00	0.00	0.00	0.00	-0.503906	0.796387	1.671875	23.730000	182.839996	7.280000	671.00	-0.37	-0.03
2.58	0.00	0.00	0.25	0.00	0.00	0.00	0.00	0.00	0.00	1.25	0.50	0.00	0.00	0.00	0.00	0.00	2.750977	-0.053223	4.359863	-97.370003	-75.040001	28.770000	25.00	0.00	0.00	21.00	17.50	8.50	7.75	0.25	0.00	0.00	0.00	0.00	0.00	0.00	0.00	0.00	0.00	0.00	0.00	-0.279297	-0.427246	1.432617	24.920000	167.089996	28.490000	672.00	-0.37	-0.02
2.59	0.00	0.00	0.00	0.00	0.00	0.00	0.00	0.25	0.00	1.25	0.00	0.00	0.00	0.25	0.00	0.00	1.367188	-0.009766	2.998047	-75.879997	-207.199997	29.049999	23.00	0.00	0.00	20.75	17.25	8.50	8.25	0.75	0.25	0.00	0.00	0.00	0.00	0.00	0.25	0.00	0.00	0.00	0.00	-0.247070	-0.575684	1.422852	28.490000	142.169998	-0.280000	685.00	-0.36	-0.03
2.60	0.00	0.00	0.00	0.00	0.00	0.00	0.00	0.00	0.00	1.25	0.00	0.00	0.00	0.00	0.00	0.00	1.111816	-0.229492	1.795898	-21.280001	-259.839996	22.120001	16.00	0.00	0.00	20.25	18.25	9.25	8.75	1.00	0.50	0.00	0.00	0.00	0.00	0.00	0.25	0.00	0.00	0.00	0.00	-0.404297	0.795410	1.278809	18.549999	103.459999	-25.340000	713.00	-0.35	-0.03
2.61	0.00	0.00	0.00	0.00	0.00	0.00	0.00	0.00	0.00	1.00	0.00	0.00	0.00	0.00	0.00	0.00	0.916016	-0.356934	1.917480	-6.300000	-275.519989	8.260000	12.00	0.00	0.00	20.75	17.50	9.25	8.75	1.00	0.50	0.00	0.00	0.00	0.00	0.00	0.25	0.00	0.00	0.00	0.00	-0.404297	0.475098	1.292480	-9.380000	93.730003	-3.640000	711.00	-0.35	-0.03
2.62	0.00	0.00	0.00	0.00	0.00	0.00	0.00	0.00	0.00	1.00	0.00	0.00	0.00	0.00	0.00	0.00	0.718750	-0.457031	2.017090	-0.210000	-305.130005	-9.870000	12.00	0.00	0.00	21.00	18.00	9.25	9.00	1.00	0.75	0.00	0.25	0.00	0.00	0.00	0.25	0.00	0.00	0.00	0.00	-0.322754	-0.047363	1.279297	-27.230000	71.680000	4.970000	731.00	-0.35	-0.03
2.63	0.25	0.00	0.00	0.00	0.00	0.00	0.00	0.00	0.00	1.00	0.00	0.00	0.00	0.00	0.00	0.00	0.471191	-0.502930	2.028809	-3.360000	-343.420013	-30.870001	16.00	0.00	0.00	20.25	17.75	9.00	9.00	1.00	0.75	0.00	0.00	0.00	0.00	0.00	0.00	0.00	0.00	0.00	0.00	-0.270996	-0.069336	1.176758	-24.010000	42.770000	-2.310000	708.00	-0.36	-0.03
2.64	0.00	0.00	0.00	0.00	0.00	0.00	0.00	0.00	0.00	0.75	0.00	0.00	0.00	0.00	0.00	0.00	0.210449	-0.504395	1.941895	-10.290000	-381.360016	-52.220001	9.00	0.00	0.00	20.00	17.25	9.25	8.75	1.00	0.75	0.00	0.25	0.00	0.00	0.25	0.25	0.00	0.50	0.00	0.00	-0.246582	0.198242	1.047852	-14.560000	21.700001	-6.650000	715.00	-0.34	-0.03
2.65	0.00	0.00	0.00	0.00	0.00	0.00	0.00	0.00	0.00	0.75	0.00	0.00	0.00	0.00	0.00	0.00	-0.046387	-0.468750	1.770508	-13.930000	-411.459991	-70.769997	9.00	0.00	0.00	19.75	16.50	9.25	8.50	1.25	0.75	0.00	0.25	0.00	0.00	0.00	0.00	0.00	0.25	0.00	0.00	-0.262207	0.265625	1.006348	-11.410000	10.920000	-0.980000	695.00	-0.35	-0.03
2.66	0.00	0.00	0.00	0.00	0.00	0.00	0.00	0.00	0.00	0.75	0.00	0.00	0.00	0.00	0.00	0.00	-0.249512	-0.434082	1.579102	-14.910000	-431.619995	-86.730003	9.00	0.00	0.00	19.25	16.25	9.00	8.00	1.25	0.50	0.25	0.00	0.00	0.00	0.00	0.25	0.00	0.00	0.00	0.00	-0.248047	0.116699	1.019043	-10.920000	3.220000	4.690000	673.00	-0.35	-0.03
2.67	0.00	0.00	0.00	0.00	0.00	0.00	0.00	0.00	0.00	0.75	0.00	0.00	0.00	0.00	0.00	0.00	-0.423828	-0.376953	1.410156	-14.560000	-440.860016	-100.099998	9.00	0.00	0.00	18.50	15.75	8.75	8.00	1.00	0.50	0.00	0.25	0.00	0.00	0.00	0.00	0.00	0.00	0.00	0.00	-0.229980	0.026855	1.031738	-8.610000	-5.040000	4.270000	649.00	-0.35	-0.03
2.68	0.00	0.00	0.00	0.00	0.00	0.00	0.00	0.00	0.00	0.50	0.00	0.00	0.00	0.00	0.00	0.00	-0.570312	-0.355957	1.308105	-11.690000	-439.110016	-110.320000	6.00	0.00	0.00	18.25	15.00	8.25	7.75	0.75	0.00	0.00	0.00	0.00	0.00	0.00	0.00	0.00	0.00	0.00	0.00	-0.213867	0.070801	0.959961	-4.130000	-11.970000	1.470000	613.00	-0.36	-0.03
2.69	0.00	0.00	0.00	0.00	0.00	0.00	0.00	0.00	0.00	0.50	0.00	0.00	0.00	0.00	0.00	0.00	-0.637695	-0.357422	1.299805	-7.840000	-430.220001	-118.090004	6.00	0.00	0.00	17.50	13.75	8.25	7.50	0.75	0.50	0.00	0.00	0.00	0.00	0.00	0.00	0.00	0.00	0.00	0.00	-0.174316	0.136230	0.894043	-1.050000	-13.860000	0.770000	593.00	-0.35	-0.03
2.70	0.00	0.00	0.00	0.00	0.00	0.00	0.00	0.00	0.00	0.75	0.00	0.00	0.00	0.00	0.00	0.00	-0.693359	-0.350098	1.253906	-2.450000	-420.700012	-123.970001	9.00	0.00	0.00	16.00	13.00	7.75	7.25	0.75	0.00	0.00	0.00	0.00	0.00	0.00	0.00	0.00	0.00	0.00	0.00	-0.140625	0.158691	0.842285	2.030000	-9.170000	2.730000	550.00	-0.36	-0.03
2.71	0.00	0.00	0.00	0.00	0.00	0.00	0.00	0.00	0.00	0.50	0.00	0.00	0.00	0.00	0.00	0.00	-0.772949	-0.315918	1.289062	3.150000	-409.360016	-127.190002	6.00	0.00	0.00	15.00	12.25	7.50	7.00	0.50	0.25	0.00	0.00	0.00	0.00	0.00	0.00	0.00	0.00	0.00	0.00	-0.104004	0.089844	0.769531	4.410000	-0.420000	4.270000	523.00	-0.36	-0.03
2.72	0.00	0.00	0.00	0.00	0.00	0.00	0.00	0.00	0.00	0.50	0.00	0.00	0.00	0.00	0.00	0.00	-0.844238	-0.366211	1.561035	13.930000	-383.529999	-123.970001	6.00	0.00	0.00	14.00	11.25	6.75	6.50	0.75	0.00	0.00	0.00	0.00	0.00	0.00	0.00	0.00	0.25	0.25	0.00	-0.076172	0.052246	0.702148	5.810000	13.790000	2.310000	488.00	-0.35	-0.02
2.73	0.00	0.00	0.00	0.00	0.00	0.00	0.00	0.00	0.00	0.50	0.00	0.00	0.00	0.00	0.00	0.00	-0.844238	-0.366211	1.561035	13.930000	-383.529999	-123.970001	6.00	0.00	0.00	13.00	10.25	6.50	6.25	0.50	0.50	0.00	0.25	0.00	0.00	0.00	0.00	0.00	0.00	0.00	0.00	-0.069336	0.064941	0.698242	4.130000	31.850000	-2.310000	461.00	-0.35	-0.03
2.74	0.00	0.00	0.00	0.00	0.00	0.00	0.00	0.00	0.00	0.25	0.00	0.00	0.00	0.00	0.00	0.00	-0.940430	-0.387695	1.717285	14.630000	-376.250000	-121.379997	3.00	0.00	0.00	12.00	9.50	6.50	6.00	0.75	0.25	0.00	0.25	0.00	0.00	0.00	0.00	0.00	0.00	0.00	0.00	-0.161621	0.245605	0.813477	-15.750000	43.400002	-6.370000	437.00	-0.35	-0.03
2.75	0.00	0.00	0.00	0.00	0.00	0.00	0.00	0.00	0.00	0.50	0.00	0.00	0.00	0.00	0.00	0.00	-1.158203	-0.305176	1.954590	11.480000	-367.570007	-111.580002	6.00	0.00	0.00	11.00	8.75	6.25	5.75	1.00	0.50	0.00	0.25	0.50	0.00	0.00	0.00	0.00	0.00	0.00	0.00	-0.207520	0.150391	0.787598	-49.910000	73.500000	-2.940000	424.00	-0.33	-0.03
2.76	0.00	0.00	0.00	0.00	0.00	0.00	0.00	0.00	0.00	0.25	0.00	0.00	0.00	0.00	0.00	0.00	-1.214355	-0.225098	2.051758	7.490000	-362.739990	-102.199997	3.00	0.00	0.00	10.25	8.00	6.25	5.75	0.75	0.75	0.25	0.50	0.00	0.00	0.00	0.25	0.00	0.00	0.25	0.00	-0.283691	0.099609	0.998535	-71.260002	78.400002	-7.350000	414.00	-0.32	-0.04
2.77	0.00	0.00	0.00	0.00	0.00	0.00	0.00	0.00	0.00	0.50	0.00	0.00	0.00	0.00	0.00	0.00	-1.236816	-0.140625	2.158203	0.490000	-355.739990	-89.459999	6.00	0.00	0.00	10.25	7.00	6.25	5.50	1.00	1.00	0.25	0.50	0.25	0.25	0.50	0.50	0.00	0.25	0.25	0.00	-0.330566	0.029785	1.311035	-47.529999	50.119999	-6.650000	425.00	-0.29	-0.03
2.78	0.00	0.00	0.00	0.00	0.00	0.00	0.00	0.00	0.00	0.25	0.00	0.00	0.00	0.00	0.00	0.00	-1.284668	-0.041504	2.311523	-8.750000	-346.360016	-74.340004	3.00	0.00	0.00	9.50	6.75	6.25	5.25	1.00	1.00	0.50	0.50	0.50	0.50	0.75	0.50	0.00	0.50	0.25	0.00	-0.265137	0.041016	0.887207	-13.020000	11.760000	-5.880000	427.00	-0.27	-0.03
2.79	0.00	0.00	0.00	0.00	0.00	0.00	0.00	0.00	0.00	0.25	0.00	0.00	0.00	0.00	0.00	0.00	-1.382812	0.056641	2.526855	-19.950001	-335.510010	-58.450001	3.00	0.00	0.00	8.75	6.00	6.25	5.00	1.25	1.00	0.50	0.50	1.00	1.00	1.00	0.75	0.25	0.50	1.00	0.00	-0.226562	0.104492	0.875000	-5.950000	7.070000	-6.440000	441.00	-0.22	-0.02
2.80	0.00	0.00	0.00	0.00	0.00	0.00	0.00	0.00	0.00	0.25	0.00	0.00	0.00	0.00	0.00	0.00	-1.549805	0.189453	2.810547	-34.509998	-325.850006	-40.180000	3.00	0.00	0.00	8.75	5.50	6.00	5.00	1.75	1.00	0.75	0.75	1.50	1.00	1.25	1.50	0.50	1.25	0.75	0.25	-0.268066	0.071289	0.873047	-8.610000	16.940001	-7.910000	477.00	-0.18	-0.02
2.81	0.00	0.00	0.00	0.00	0.00	0.00	0.00	0.00	0.00	0.50	0.00	0.00	0.00	0.00	0.00	0.00	-1.840820	0.424805	3.107422	-50.049999	-321.230011	-15.960000	6.00	0.00	0.00	8.00	4.25	6.00	4.25	1.75	1.00	1.25	0.50	2.75	1.50	1.75	1.75	0.75	2.00	1.00	0.25	-0.288574	0.072754	0.918457	-11.480000	23.309999	-8.750000	497.00	-0.12	-0.00
2.82	0.00	0.00	0.00	0.00	0.00	0.00	0.00	0.00	0.00	0.25	0.00	0.00	0.00	0.00	0.00	0.00	-2.311035	0.693359	3.417480	-57.750000	-328.790009	14.560000	3.00	0.00	0.00	7.50	4.00	5.75	4.00	1.75	1.00	2.25	1.00	3.75	2.25	2.25	2.25	1.25	2.25	1.00	0.25	-0.314453	0.059082	0.957031	-12.740000	22.680000	-7.700000	554.00	-0.08	0.00
2.83	0.00	0.00	0.00	0.00	0.00	0.00	0.00	0.00	0.00	0.25	0.00	0.00	0.00	0.00	0.00	0.00	-2.791016	0.949219	3.506836	-45.360001	-353.149994	44.310001	3.00	0.00	0.00	6.75	3.00	5.50	3.00	1.75	1.25	3.25	1.00	5.25	2.75	3.00	2.75	1.50	3.00	2.00	0.50	-0.315918	0.056641	0.955078	-11.200000	20.650000	-6.160000	608.00	-0.01	0.02
2.84	0.00	0.00	0.00	0.00	0.00	0.00	0.00	0.00	0.00	0.00	0.00	0.00	0.00	0.00	0.00	0.00	-3.230469	0.985840	3.124023	14.700000	-395.779999	84.559998	0.00	0.00	0.00	6.00	2.25	5.25	2.50	2.00	0.50	4.25	1.25	6.50	3.50	4.50	3.50	2.00	3.75	2.25	0.75	-0.329102	0.060547	0.932617	-8.960000	19.879999	-4.620000	671.00	0.04	0.03
2.85	0.00	0.00	0.00	0.00	0.00	0.00	0.00	0.00	0.00	0.25	0.00	0.00	0.00	0.00	0.00	0.00	-4.386230	0.553711	2.584961	101.709999	-443.029999	135.869995	3.00	0.00	0.00	5.50	2.00	5.00	1.75	1.75	0.75	5.00	1.25	7.75	5.00	5.75	4.25	2.50	4.25	2.50	1.00	-0.319336	0.074707	0.941895	-7.210000	20.090000	-4.200000	741.00	0.07	0.03
2.86	0.00	0.00	0.00	0.00	0.00	0.00	0.00	0.00	0.00	0.25	0.00	0.00	0.00	0.00	0.00	0.00	-6.611328	0.258789	1.549316	124.320000	-464.029999	167.789993	3.00	0.00	0.00	4.75	1.50	4.00	2.00	1.75	0.50	5.50	1.50	8.50	6.25	6.50	5.00	2.75	4.50	3.25	1.00	-0.309570	0.073730	0.924805	-7.840000	22.469999	-4.690000	787.00	0.10	0.02
2.87	0.00	0.00	0.00	0.00	0.00	0.00	0.00	0.00	0.00	0.00	0.00	0.00	0.00	0.00	0.00	0.00	-9.475586	-0.187988	-0.913574	116.760002	-449.330017	155.889999	0.00	0.00	0.00	3.50	1.00	3.00	1.25	1.25	0.25	5.75	1.50	9.25	7.00	7.25	5.75	3.75	5.25	3.50	1.25	-0.339355	0.092285	0.921387	-10.640000	26.950001	-5.530000	799.00	0.14	0.02
2.88	0.00	0.00	0.00	0.00	0.00	0.00	0.00	0.00	0.00	0.00	0.00	0.00	0.00	0.00	0.00	0.00	-9.696289	-0.252930	-3.486328	134.470001	-351.959991	96.949997	0.00	0.00	0.00	2.75	1.00	2.50	0.75	1.00	0.25	6.25	1.25	10.00	7.75	7.75	6.25	3.75	5.75	4.25	1.50	-0.309082	0.081543	0.939941	-13.090000	31.080000	-6.370000	828.00	0.16	0.02
2.89	0.00	0.00	0.00	0.00	0.00	0.00	0.00	0.00	0.00	0.25	0.00	0.00	0.00	0.00	0.00	0.00	-7.359863	-0.402344	-4.852051	140.490005	-137.759995	21.280001	3.00	0.00	0.00	2.25	1.00	2.00	0.75	0.75	0.00	6.50	1.50	10.75	8.25	8.50	7.00	4.25	6.50	4.25	1.50	-0.285156	0.066895	0.951660	-12.740000	36.470001	-7.840000	867.00	0.18	0.02
2.90	0.00	0.00	0.00	0.00	0.00	0.00	0.00	0.00	0.00	0.00	0.00	0.00	0.00	0.00	0.00	0.00	-3.988770	0.158691	0.035156	-18.340000	261.170013	-56.279999	0.00	0.00	0.00	2.00	0.75	1.25	0.50	0.50	0.00	6.75	1.25	11.75	8.75	8.75	7.50	4.50	7.75	5.25	1.75	-0.307129	0.112305	1.005859	-3.360000	64.470001	-13.160000	905.00	0.20	0.03
2.91	0.25	0.00	0.25	0.00	0.00	0.00	0.00	0.00	0.00	0.00	0.00	0.00	0.00	0.00	0.00	0.00	-0.805176	-3.430176	3.168945	-65.730003	289.450012	-0.840000	6.00	0.00	0.00	2.25	0.75	1.00	0.00	0.25	0.00	7.00	1.25	12.75	9.25	9.25	7.75	4.50	8.50	5.25	2.00	-0.346680	0.088379	1.037109	3.010000	90.160004	-16.660000	940.00	0.20	0.03
2.92	3.00	2.50	1.00	0.75	0.00	0.00	0.00	0.00	0.00	0.00	0.00	0.00	0.00	0.00	0.00	0.00	2.581055	0.861816	1.010254	-57.889999	280.420013	48.369999	88.00	-0.37	-0.02	2.25	0.50	1.00	0.00	0.25	0.00	7.00	1.00	13.75	9.75	9.75	8.00	4.75	9.00	5.50	2.50	-0.381836	0.108398	1.037109	7.280000	120.610001	-19.809999	978.00	0.21	0.03
2.93	9.25	7.25	1.50	1.25	0.00	0.00	0.00	0.00	0.00	0.00	0.00	0.00	0.00	0.00	0.00	0.00	-0.200195	0.296875	1.975586	-23.240000	196.070007	57.540001	231.00	-0.39	-0.01	1.00	0.50	0.75	0.00	0.25	0.00	7.00	0.75	14.25	10.00	10.25	8.25	4.50	10.00	5.75	2.50	-0.421875	0.092773	1.078613	6.020000	154.070007	-22.540001	986.00	0.23	0.04
2.94	14.75	11.00	3.00	2.25	0.00	0.00	0.00	0.00	0.00	0.00	0.00	0.00	0.00	0.00	0.00	0.00	-0.195801	-0.699219	-0.428711	-10.990000	234.290009	69.650002	374.00	-0.38	-0.01	0.75	0.50	0.75	0.00	0.25	0.00	7.00	0.50	15.25	10.50	10.75	8.25	4.25	10.50	6.25	3.50	-0.445801	0.027344	1.110840	-2.380000	189.979996	-21.980000	1021.00	0.23	0.04
2.95	18.50	13.75	4.50	3.50	0.00	0.00	0.00	0.00	0.00	0.00	0.00	0.00	0.00	0.00	0.00	0.00	-0.870605	-0.452148	2.001465	-7.770000	347.619995	69.300003	487.00	-0.38	-0.01	0.50	0.50	0.50	0.00	0.00	0.00	7.00	0.50	15.25	10.75	11.00	8.00	3.50	11.25	6.25	3.50	-0.473633	0.005859	1.155273	-10.920000	227.570007	-17.570000	1015.00	0.24	0.05
2.96	20.75	15.25	5.25	4.25	0.00	0.00	0.00	0.00	0.00	0.00	0.00	0.00	0.00	0.00	0.00	0.00	-1.333008	-1.067383	3.255371	40.529999	356.929993	67.970001	551.00	-0.38	-0.01	0.75	0.75	0.00	0.00	0.00	0.00	6.75	0.50	15.75	11.25	11.00	8.00	3.00	11.25	6.25	4.00	-0.495605	0.042969	1.199707	-19.110001	268.660004	-13.090000	1021.00	0.24	0.05
2.97	23.25	17.00	7.50	5.25	0.00	0.00	0.00	0.00	0.00	0.00	0.00	0.00	0.00	0.00	0.00	0.00	-1.145508	-0.699707	2.462891	55.369999	297.570007	36.470001	645.00	-0.37	-0.01	2.00	0.25	0.00	0.00	0.00	0.00	6.75	0.00	15.50	11.00	11.25	8.00	2.50	12.00	6.25	5.25	-0.580078	0.101074	1.243164	-24.290001	314.089996	-13.510000	1029.00	0.24	0.05
2.98	24.00	18.00	8.25	6.00	0.00	0.00	0.00	0.00	0.00	0.00	0.00	0.00	0.00	0.00	0.00	0.00	-0.846680	-0.323730	1.921387	71.959999	280.279999	7.350000	685.00	-0.37	-0.01	0.75	0.00	0.00	0.00	0.00	0.00	6.50	0.00	15.25	10.75	11.00	7.75	2.50	12.00	6.25	5.50	-0.651367	0.180664	1.303711	-28.490000	359.519989	-20.370001	995.00	0.25	0.05
2.99	24.00	18.50	9.00	7.50	0.00	0.00	0.00	0.00	0.00	0.00	0.00	0.00	0.00	0.00	0.00	0.00	-0.769043	0.304199	2.312500	83.160004	269.079987	-5.460000	720.00	-0.37	-0.02	0.00	0.75	0.00	0.00	0.00	0.00	6.25	0.00	14.00	10.50	10.50	7.25	1.75	12.00	6.00	6.00	-0.737305	0.184082	1.366211	-34.369999	403.269989	-29.960001	946.00	0.25	0.05
3.00	23.75	19.00	9.50	8.75	0.25	0.00	0.00	0.00	0.00	0.00	0.00	0.00	0.00	0.25	0.00	0.00	-0.629883	0.318848	1.787109	87.989998	232.330002	1.050000	751.00	-0.36	-0.02	0.25	0.00	0.00	0.00	0.00	0.00	6.00	0.00	13.00	9.75	9.75	6.50	1.50	12.25	5.50	6.25	-0.919434	0.187988	1.541992	-36.820000	441.140015	-37.450001	888.00	0.26	0.05
3.01	23.50	19.00	10.50	9.25	0.50	0.50	0.00	0.00	0.00	0.25	0.00	0.00	0.00	0.25	0.00	0.00	-0.622070	0.051270	1.721191	82.250000	208.740005	3.150000	781.00	-0.35	-0.02	0.00	0.00	0.00	0.00	0.00	0.00	5.50	0.00	11.25	8.50	8.75	5.50	1.50	12.25	5.00	6.00	-1.221680	0.245117	1.897461	-32.130001	469.350006	-42.070000	800.00	0.26	0.05
3.02	24.50	19.00	10.75	9.75	1.00	1.25	0.00	0.25	0.00	0.25	0.00	0.00	0.00	0.25	0.00	0.00	-0.624023	0.034180	1.854980	68.250000	176.050003	-3.920000	824.00	-0.35	-0.03	0.00	0.00	0.25	0.00	0.00	0.00	5.00	0.00	9.25	7.00	7.00	4.50	1.50	11.75	4.00	5.25	-1.952148	0.411621	2.574219	-16.799999	488.600006	-44.869999	688.00	0.26	0.06
3.03	24.00	18.75	11.25	10.25	1.25	2.25	0.00	1.25	0.00	0.50	0.00	0.25	0.00	0.25	0.00	0.00	-0.648438	0.108887	1.809082	57.470001	138.740005	-6.020000	869.00	-0.33	-0.04	0.00	0.00	0.00	0.00	0.00	0.00	3.75	0.00	8.00	5.25	5.50	3.25	1.50	11.00	2.25	4.50	-2.508301	0.552246	3.266113	10.990000	500.920013	-44.799999	552.00	0.27	0.07
3.04	23.25	18.75	11.00	10.25	1.25	2.50	0.25	1.25	0.00	0.50	0.25	0.00	0.00	0.50	0.00	0.00	-0.358887	0.121582	1.109863	17.430000	39.340000	1.400000	867.00	-0.33	-0.04	0.00	0.00	0.00	0.00	0.00	0.00	2.25	0.00	6.75	3.75	4.00	2.50	1.00	9.50	1.25	3.00	-1.950684	0.129883	3.694824	66.919998	533.820007	-54.180000	416.00	0.27	0.08
3.05	23.50	18.50	11.25	10.25	1.00	3.00	0.25	0.75	0.00	0.50	0.00	0.25	0.00	0.50	0.00	0.00	-0.343262	0.047363	1.047852	10.080000	19.460001	2.660000	865.00	-0.33	-0.04	0.00	0.00	0.00	0.00	0.00	0.00	1.25	0.00	5.25	3.00	3.00	2.00	0.50	8.25	1.00	1.50	-1.834473	0.097656	4.236328	59.080002	552.090027	-70.840004	316.00	0.28	0.09
3.06	22.75	18.25	10.75	10.25	1.00	2.75	0.25	1.25	0.00	0.50	0.00	0.00	0.00	0.50	0.00	0.00	-0.330566	0.111816	1.007324	4.410000	11.060000	2.450000	849.00	-0.33	-0.04	0.00	0.00	0.00	0.00	0.00	0.00	0.50	0.00	3.50	2.00	1.75	1.50	1.00	6.50	0.00	0.50	-1.350586	0.694336	5.341309	36.400002	560.489990	-78.120003	209.00	0.29	0.08
3.07	22.50	18.00	10.50	10.00	1.00	2.75	0.00	1.00	0.00	0.50	0.00	0.00	0.00	0.50	0.00	0.00	-0.322266	0.100586	0.990723	-0.840000	7.140000	3.990000	827.00	-0.33	-0.04	0.00	0.00	0.00	0.00	0.00	0.00	0.25	0.00	1.50	1.75	1.75	1.50	0.00	2.75	0.00	0.00	0.207520	0.666992	5.689453	21.980000	545.440002	-83.160004	118.00	0.27	0.05
3.08	22.00	17.50	10.25	10.00	0.75	2.25	0.00	0.75	0.00	0.50	0.25	0.00	0.00	0.00	0.00	0.00	-0.320312	0.056641	0.970215	-4.060000	3.850000	4.970000	796.00	-0.34	-0.04	0.25	0.00	0.00	0.00	0.00	0.00	0.00	0.00	0.75	0.75	0.75	0.75	0.00	0.75	0.00	0.00	3.584473	0.043457	4.473633	17.010000	431.410004	-75.949997	51.00	0.22	0.03
3.09	21.25	17.25	10.00	9.50	0.75	2.25	0.00	0.50	0.00	0.50	0.00	0.00	0.00	0.00	0.00	0.00	-0.303223	0.053223	0.966309	-3.780000	0.770000	5.250000	766.00	-0.34	-0.04	0.00	0.00	0.00	0.00	0.00	0.00	0.00	0.00	0.50	0.75	0.50	0.75	0.00	0.75	0.00	0.00	1.717773	0.569336	2.811035	-91.209999	254.380005	-52.430000	40.00	0.00	0.00
3.10	20.25	16.75	9.50	9.25	0.50	1.50	0.00	0.50	0.00	0.25	0.00	0.00	0.00	0.00	0.00	0.00	-0.267578	0.056152	0.961914	-1.120000	-2.940000	6.370000	722.00	-0.35	-0.04	0.00	0.25	0.00	0.00	0.00	0.00	0.00	0.00	0.75	0.75	0.50	0.50	0.00	0.50	0.00	0.00	2.714355	1.142578	6.759277	-59.150002	17.990000	-5.180000	41.00	0.00	0.00
3.11	19.00	16.00	9.00	9.00	0.50	1.50	0.00	0.50	0.00	0.25	0.00	0.00	0.00	0.00	0.00	0.00	-0.223633	0.057617	0.914551	0.490000	-3.990000	7.070000	688.00	-0.35	-0.04	0.25	0.00	0.00	0.00	0.00	0.00	0.00	0.00	0.50	0.75	0.25	0.25	0.00	0.00	0.00	0.00	2.601074	0.426270	3.410156	-65.940002	-160.229996	36.750000	27.00	0.00	0.00
3.12	18.25	15.00	8.50	8.50	0.50	0.75	0.00	0.25	0.00	0.25	0.00	0.00	0.00	0.25	0.00	0.00	-0.204590	0.018066	0.870117	3.010000	-2.380000	7.420000	643.00	-0.35	-0.03	0.00	0.00	0.00	0.00	0.00	0.00	0.00	0.00	0.25	0.75	0.50	0.25	0.00	0.00	0.00	0.00	1.841309	0.413574	2.958008	-58.799999	-228.970001	60.689999	23.00	0.00	0.00
3.13	16.25	14.00	8.00	8.25	0.25	1.00	0.00	0.00	0.00	0.25	0.00	0.00	0.00	0.00	0.00	0.00	-0.185059	0.007812	0.812500	5.740000	4.550000	6.230000	590.00	-0.35	-0.04	0.00	0.00	0.00	0.00	0.00	0.00	0.00	0.00	0.50	0.75	0.50	0.00	0.00	0.00	0.00	0.00	1.873047	0.041504	2.608887	-26.880001	-260.049988	63.840000	23.00	0.00	0.00
3.14	15.00	12.75	7.75	7.75	0.25	1.00	0.00	0.25	0.00	0.25	0.00	0.00	0.00	0.00	0.00	0.00	-0.175293	0.022461	0.770508	7.840000	15.890000	4.830000	556.00	-0.35	-0.04	0.00	0.25	0.00	0.00	0.00	0.00	0.00	0.00	0.00	0.50	0.00	0.25	0.00	0.00	0.00	0.00	1.613770	-0.253906	2.760254	6.020000	-308.910004	45.990002	12.00	0.00	0.00
3.15	13.50	11.50	7.25	7.50	0.25	1.00	0.00	0.25	0.00	0.25	0.00	0.00	0.00	0.00	0.00	0.00	-0.150879	0.004883	0.798828	9.450000	29.960001	4.130000	513.00	-0.34	-0.04	0.00	0.25	0.00	0.00	0.00	0.00	0.00	0.00	0.00	0.50	0.00	0.25	0.00	0.00	0.00	0.00	1.258301	-0.529297	2.945312	33.389999	-376.739990	19.670000	12.00	0.00	0.00
3.16	12.00	10.50	6.75	7.00	0.25	1.25	0.00	1.00	0.00	0.00	0.00	0.00	0.00	0.00	0.00	0.00	-0.172363	0.030273	0.869141	5.880000	41.720001	2.240000	484.00	-0.33	-0.06	0.00	0.25	0.00	0.00	0.00	0.00	0.00	0.00	0.25	0.25	0.00	0.00	0.00	0.00	0.00	0.00	0.875488	-0.749512	2.721191	42.980000	-447.929993	-10.710000	10.00	0.00	0.00
3.17	10.50	9.25	6.25	6.75	0.25	1.25	0.00	0.50	0.00	0.25	0.00	0.00	0.00	0.00	0.00	0.00	-0.211914	0.092773	0.922363	-3.780000	45.779999	0.560000	436.00	-0.33	-0.05	0.00	0.25	0.00	0.00	0.00	0.00	0.00	0.00	0.00	0.00	0.00	0.00	0.00	0.00	0.00	0.00	0.386230	-0.779297	2.404785	36.820000	-504.559998	-41.580002	3.00	0.00	0.00
3.18	9.50	8.50	6.00	6.25	0.25	1.00	0.00	0.75	0.00	0.50	0.25	0.25	0.00	0.00	0.00	0.00	-0.289062	0.076172	1.020020	-4.830000	44.799999	1.540000	416.00	-0.32	-0.06	0.25	0.00	0.00	0.00	0.00	0.00	0.00	0.00	0.00	0.25	0.00	0.00	0.00	0.00	0.00	0.00	-0.304199	-0.713379	1.780273	30.309999	-548.940002	-98.489998	6.00	0.00	0.00
3.19	8.50	7.75	5.75	6.00	0.25	1.25	0.25	1.25	0.00	1.00	0.75	0.50	0.00	0.00	0.00	0.00	-0.313965	0.045410	0.963379	0.770000	28.559999	1.610000	421.00	-0.28	-0.07	0.00	0.00	0.00	0.00	0.00	0.00	0.00	0.00	0.00	0.25	0.00	0.00	0.00	0.00	0.00	0.00	-0.572754	-0.661621	1.612305	42.490002	-549.220032	-123.059998	3.00	0.00	0.00
3.20	7.50	7.25	5.50	5.50	0.25	1.00	0.25	1.50	0.25	1.00	0.50	0.50	0.00	0.50	0.75	0.25	-0.259277	0.090820	0.878418	-8.680000	25.340000	-3.990000	412.00	-0.24	-0.07	0.25	0.25	0.00	0.00	0.00	0.00	0.00	0.00	0.00	0.00	0.00	0.00	0.00	0.00	0.00	0.00	-0.833008	-0.634277	1.438477	63.279999	-540.330017	-141.610001	6.00	0.00	0.00
3.21	6.75	6.25	5.50	5.50	0.50	1.50	0.50	2.00	0.75	1.25	0.75	0.75	0.50	0.75	0.75	0.25	-0.304688	0.078125	0.899414	-12.250000	31.570000	-7.700000	440.00	-0.20	-0.07	0.00	0.00	0.00	0.00	0.00	0.00	0.00	0.00	0.25	0.00	0.00	0.00	0.00	0.00	0.00	0.00	-0.942383	-0.590820	1.383301	83.230003	-521.220032	-152.740005	4.00	0.00	0.00
3.22	5.75	5.75	5.25	5.25	0.50	1.25	1.00	1.75	1.00	1.75	1.25	1.00	0.25	1.25	1.50	0.00	-0.333496	0.050781	0.916016	-10.360000	35.000000	-9.380000	446.00	-0.15	-0.06	0.00	0.00	0.25	0.00	0.00	0.00	0.00	0.00	0.00	0.00	0.00	0.00	0.00	0.00	0.00	0.00	-0.988770	-0.514160	1.419922	88.830002	-493.429993	-154.910004	3.00	0.00	0.00
3.23	5.25	4.75	5.00	5.00	0.75	2.00	1.50	2.00	2.25	2.00	1.50	1.25	1.25	1.75	1.50	0.50	-0.349609	0.038574	0.944336	-7.350000	33.529999	-9.100000	496.00	-0.10	-0.05	0.25	0.00	0.00	0.00	0.00	0.00	0.00	0.00	0.00	0.00	0.00	0.00	0.00	0.00	0.00	0.00	-1.084961	-0.377930	1.601562	78.959999	-463.890015	-146.089996	3.00	0.00	0.00
3.24	4.25	4.50	4.75	4.25	0.75	1.50	2.25	2.25	3.25	2.75	2.00	2.00	0.00	2.75	2.00	0.75	-0.368164	0.037109	0.953613	-3.010000	29.120001	-7.630000	525.00	-0.04	-0.03	0.25	0.00	0.00	0.00	0.00	0.00	0.00	0.00	0.00	0.00	0.00	0.00	0.00	0.00	0.00	0.00	-1.089355	-0.221191	1.766113	64.260002	-439.459991	-127.470001	3.00	0.00	0.00
3.25	3.50	3.50	4.50	4.25	0.75	1.50	3.00	2.75	4.50	3.50	2.75	2.25	2.00	3.00	2.25	1.25	-0.369629	0.032715	0.908203	1.960000	25.480000	-5.180000	595.00	0.01	-0.03	0.00	0.25	0.00	0.00	0.00	0.00	0.00	0.00	0.00	0.00	0.00	0.00	0.00	0.00	0.00	0.00	-1.124512	-0.020020	1.837891	52.290001	-421.610016	-102.340004	3.00	0.00	0.00
3.26	3.00	2.50	3.75	3.25	0.75	1.75	3.50	2.75	5.50	4.25	3.25	2.75	2.50	4.00	3.00	1.50	-0.355469	0.018066	0.943359	7.420000	24.010000	-2.870000	631.00	0.06	-0.02	0.00	0.50	0.00	0.00	0.00	0.00	0.00	0.00	0.00	0.00	0.00	0.00	0.00	0.00	0.00	0.00	-1.094727	0.147949	1.878418	43.189999	-403.619995	-71.330002	6.00	0.00	0.00
3.27	2.75	2.00	3.25	2.75	0.75	1.75	4.00	3.50	6.75	5.50	5.00	3.75	3.75	5.00	3.75	1.75	-0.359863	0.026855	0.933594	12.880000	24.360001	-0.770000	735.00	0.10	-0.03	0.25	0.00	0.00	0.00	0.00	0.00	0.00	0.00	0.25	0.00	0.00	0.00	0.00	0.00	0.00	0.00	-1.060547	0.280762	1.922363	37.310001	-382.549988	-37.240002	7.00	0.00	0.00
3.28	2.00	1.75	2.75	2.50	0.75	1.75	4.50	4.00	7.75	6.50	6.25	4.25	5.00	5.50	4.75	2.00	-0.366699	0.037109	0.916992	15.960000	26.180000	2.240000	813.00	0.13	-0.03	0.00	0.00	0.00	0.00	0.00	0.00	0.00	0.00	0.00	0.00	0.00	0.00	0.00	0.00	0.00	0.00	-1.083496	0.384277	2.040039	34.439999	-357.910004	-4.970000	0.00	0.00	0.00
3.29	1.75	1.50	2.00	2.00	0.50	1.50	5.00	4.75	8.25	7.50	6.75	5.25	5.75	7.00	5.25	2.50	-0.355957	0.049316	0.932129	16.520000	30.450001	3.570000	878.00	0.15	-0.04	1.00	0.00	0.00	0.00	0.00	0.00	0.00	0.00	0.00	0.00	0.00	0.00	0.00	0.00	0.00	0.00	-1.152344	0.474121	2.224609	35.000000	-331.380005	23.799999	12.00	0.00	0.00
3.30	0.75	1.00	1.75	1.50	0.25	1.75	5.25	5.00	9.25	8.00	7.75	6.25	6.50	7.75	5.75	3.00	-0.323242	0.073730	0.951660	14.420000	38.849998	2.940000	931.00	0.17	-0.04	0.00	0.00	0.00	0.00	0.00	0.00	0.00	0.00	0.25	0.00	0.00	0.00	0.00	0.00	0.00	0.00	-1.274414	0.532715	2.447754	38.009998	-306.739990	50.680000	4.00	0.00	0.00
3.31	0.50	0.75	1.25	1.00	0.25	0.50	5.25	5.00	10.25	8.50	8.00	7.25	7.25	8.50	6.50	3.75	-0.325684	0.087891	1.007812	13.300000	51.240002	0.630000	963.00	0.20	-0.04	0.00	0.00	0.00	0.00	0.00	0.00	0.00	0.00	0.00	0.00	0.00	0.00	0.00	0.00	0.00	0.00	-1.483398	0.624512	2.665527	43.470001	-288.399994	78.820000	0.00	0.00	0.00
3.32	0.25	0.00	0.75	0.50	0.00	0.25	5.50	5.00	11.00	8.75	8.50	7.75	7.50	9.50	7.00	4.25	-0.385254	0.099609	1.032227	16.240000	87.500000	-10.500000	986.00	0.22	-0.03	0.25	0.00	0.00	0.00	0.00	0.00	0.00	0.00	0.00	0.00	0.00	0.00	0.00	0.00	0.00	0.00	-2.276367	0.821289	3.146484	74.760002	-279.510010	141.680008	3.00	0.00	0.00
3.33	0.50	0.25	0.75	0.00	0.00	0.75	5.75	5.00	12.00	9.25	9.00	8.00	7.75	10.50	7.75	4.75	-0.385254	0.099609	1.032227	16.240000	87.500000	-10.500000	1053.00	0.22	-0.03	0.00	0.00	0.00	0.00	0.00	0.00	0.00	0.00	0.00	0.00	0.00	0.00	0.00	0.00	0.00	0.00	-2.276367	0.821289	3.146484	74.760002	-279.510010	141.680008	0.00	0.00	0.00
3.34	0.00	0.00	0.25	0.50	0.00	0.25	5.75	3.75	12.75	9.75	9.00	8.25	7.50	10.75	8.00	5.00	-0.391602	0.078125	1.029785	20.510000	117.879997	-13.790000	1040.00	0.23	-0.02	0.00	0.00	0.00	0.00	0.00	0.00	0.00	0.00	0.25	0.00	0.00	0.00	0.00	0.00	0.00	0.00	-2.824219	0.407715	3.406738	134.259995	-346.010010	217.490005	4.00	0.00	0.00
3.35	0.00	0.00	0.00	0.00	0.00	0.25	5.50	2.25	13.00	10.00	9.50	8.25	7.50	11.75	8.25	5.50	-0.512207	0.079590	1.134277	24.639999	218.750000	-19.809999	1028.00	0.25	-0.01	0.00	0.00	0.00	0.00	0.00	0.00	0.00	0.00	0.00	0.00	0.00	0.00	0.00	0.00	0.00	0.00	-3.782227	-0.218262	3.565918	167.720001	-402.429993	265.160004	0.00	0.00	0.00
3.36	0.00	0.00	0.00	0.00	0.00	0.00	5.50	1.25	13.50	10.50	9.50	8.50	6.25	12.00	8.25	6.00	-0.549805	0.069824	1.236816	11.550000	283.429993	-21.420000	1017.00	0.26	0.01	0.00	0.25	0.00	0.00	0.00	0.00	0.00	0.00	0.25	0.00	0.00	0.00	0.00	0.00	0.00	0.00	-4.625488	-0.421875	2.960938	119.629997	-449.399994	286.579987	7.00	0.00	0.00
3.37	0.00	0.00	0.00	0.00	0.00	0.00	5.25	0.50	13.50	10.50	9.75	8.25	6.25	12.50	8.25	6.75	-0.566406	0.064453	1.311035	-4.060000	338.869995	-23.379999	1009.00	0.26	0.01	0.00	0.00	0.00	0.00	0.00	0.00	0.00	0.00	0.00	0.00	0.00	0.00	0.00	0.00	0.00	0.00	-6.475586	-0.131348	1.577148	44.170002	-479.779999	260.820007	0.00	0.00	0.00
3.38	0.00	0.00	0.00	0.00	0.00	0.00	5.25	0.00	13.50	10.25	9.50	8.00	5.25	12.50	8.25	7.00	-0.646973	0.143066	1.336914	-19.250000	388.709991	-28.070000	982.00	0.26	0.02	0.00	0.00	0.25	0.00	0.00	0.00	0.00	0.00	0.00	0.00	0.00	0.00	0.00	0.00	0.00	0.00	-9.056641	-0.184570	-0.514160	95.830002	-506.940002	156.309998	3.00	0.00	0.00
3.39	0.00	0.00	0.00	0.00	0.00	0.00	5.00	0.00	12.75	10.00	9.25	7.50	4.00	12.75	8.25	7.25	-0.806641	0.204102	1.462891	-27.790001	433.510010	-34.020000	944.00	0.27	0.03	0.00	0.00	0.00	0.00	0.00	0.00	0.00	0.00	0.00	0.00	0.00	0.00	0.00	0.00	0.00	0.00	-9.071289	-0.165039	-3.072754	311.779999	-432.320007	21.000000	0.00	0.00	0.00
3.40	0.00	0.00	0.00	0.00	0.00	0.00	4.50	0.00	11.75	9.25	8.75	6.75	3.00	12.75	8.00	7.75	-1.005859	0.241211	1.736816	-23.170000	472.080017	-38.150002	884.00	0.27	0.03	0.00	0.00	0.00	0.00	0.00	0.00	0.00	0.00	0.00	0.00	0.00	0.00	0.00	0.00	0.00	0.00	-7.772949	-1.124023	-4.011230	449.890015	-249.130005	-73.919998	0.00	0.00	0.00
3.41	0.00	0.00	0.00	0.00	0.00	0.00	3.50	0.00	10.00	8.00	7.75	5.50	2.75	13.25	7.50	7.50	-1.538574	0.303223	2.407715	-4.200000	504.559998	-37.450001	790.00	0.28	0.03	0.75	0.00	0.25	0.00	0.00	0.00	0.00	0.00	0.00	0.00	0.00	0.00	0.00	0.00	0.00	0.00	-5.626953	-1.919922	-3.415039	353.429993	-15.610000	-130.130005	13.00	0.00	0.00
3.42	0.00	0.00	0.00	0.00	0.00	0.00	2.75	0.00	8.25	6.25	6.00	4.00	2.25	12.75	6.75	7.00	-2.237793	0.526367	3.373535	19.040001	529.690002	-30.940001	664.00	0.29	0.03	0.00	0.00	0.00	0.00	0.00	0.00	0.00	0.00	0.00	0.00	0.00	0.00	0.00	0.00	0.00	0.00	-4.221191	-1.468750	-0.847168	86.379997	167.440002	-144.479996	0.00	0.00	0.00
3.43	0.00	0.00	0.00	0.00	0.00	0.00	2.00	0.00	6.75	4.50	4.00	2.75	1.00	12.00	5.50	6.00	-2.525879	0.301270	4.252441	34.020000	540.539978	-21.910000	522.00	0.30	0.05	0.00	0.00	0.00	0.00	0.00	0.00	0.00	0.00	0.00	0.00	0.00	0.00	0.00	0.00	0.00	0.00	-3.451172	0.256348	2.352051	-168.419998	233.520004	-91.279999	0.00	0.00	0.00
3.44	0.00	0.00	0.00	0.00	0.00	0.00	1.25	0.00	5.00	2.75	2.50	1.75	1.25	10.25	4.50	5.00	-2.080078	0.254883	3.958984	45.430000	549.780029	-16.520000	394.00	0.31	0.04	4.00	0.50	0.75	0.00	0.00	0.00	0.00	0.00	0.00	0.00	0.00	0.00	0.00	0.00	0.00	0.00	-2.538574	1.613281	3.149414	-221.690002	176.680008	4.340000	65.00	-0.38	0.08
3.45	0.00	0.00	0.00	0.00	0.00	0.00	0.50	0.00	3.75	2.75	2.00	1.25	1.25	8.50	2.75	3.00	-1.696777	-0.546875	3.606934	62.369999	583.030029	-18.270000	295.00	0.31	0.05	6.75	5.75	1.75	1.25	0.00	0.00	0.00	0.00	0.00	0.00	0.00	0.00	0.00	0.00	0.00	0.00	3.192383	-0.002441	3.425781	-128.169998	195.580002	42.000000	187.00	-0.38	-0.02
3.46	0.00	0.00	0.00	0.00	0.00	0.00	0.25	0.00	2.75	2.75	1.50	1.25	0.50	6.25	2.00	1.25	-1.641602	0.092285	5.449707	32.689999	623.630005	-19.950001	218.00	0.31	0.06	13.75	12.00	3.75	3.00	0.00	0.00	0.00	0.00	0.00	0.00	0.00	0.00	0.00	0.00	0.00	0.00	1.190430	-1.053711	-0.737793	-171.080002	122.849998	44.310001	392.00	-0.38	-0.02
3.47	0.00	0.00	0.00	0.00	0.00	0.00	0.25	0.00	1.25	2.25	1.25	1.00	0.00	2.00	0.50	0.50	-0.659180	0.100098	5.901855	21.070000	644.210022	-6.510000	110.00	0.28	0.04	19.50	16.75	5.00	4.50	0.00	0.00	0.00	0.00	0.00	0.00	0.00	0.25	0.00	0.00	0.00	0.00	-0.168945	-0.677246	0.154785	-81.690002	270.130005	91.910004	555.00	-0.38	-0.02
3.48	0.00	0.00	0.00	0.00	0.00	0.00	0.00	0.00	0.50	1.25	0.00	0.25	0.50	0.75	0.50	0.00	2.302246	-0.737305	5.581055	1.610000	625.309998	-1.330000	45.00	0.00	0.00	22.00	19.00	5.75	6.00	0.00	0.00	0.00	0.00	0.00	0.00	0.00	0.00	0.00	0.00	0.00	0.00	-2.313965	-1.878418	5.799805	-14.140000	467.459991	-20.160000	638.00	-0.38	-0.03
3.49	0.25	0.00	0.50	0.00	0.00	0.00	0.00	0.00	0.25	1.25	0.00	0.00	0.00	0.50	0.25	0.00	3.676270	1.033691	3.700195	-79.519997	456.679993	13.580000	37.00	0.00	0.00	23.25	20.25	7.75	7.00	0.00	0.00	0.00	0.00	0.00	0.00	0.00	0.00	0.00	0.00	0.00	0.00	-1.251953	-0.336426	3.123047	-37.099998	346.850006	-120.120003	707.00	-0.37	-0.02
3.50	0.25	0.50	0.00	0.00	0.00	0.00	0.00	0.00	0.25	1.50	0.50	0.00	0.00	0.50	0.50	0.00	3.874512	0.108887	5.815430	-246.610001	-14.770000	73.430000	49.00	0.00	0.00	23.50	19.25	8.00	7.50	0.25	0.00	0.00	0.00	0.00	0.00	0.00	0.00	0.00	0.00	0.00	0.00	-0.497559	1.813965	1.980957	-28.559999	311.220001	-124.320000	712.00	-0.37	-0.02
3.51	0.00	0.00	0.25	0.00	0.00	0.00	0.00	0.00	0.00	1.25	0.00	0.00	0.00	0.50	0.00	0.00	1.832031	-0.167969	4.146973	-244.020004	-217.630005	80.290001	24.00	0.00	0.00	22.25	18.75	8.75	8.00	0.50	0.00	0.00	0.00	0.25	0.00	0.00	0.00	0.00	0.00	0.00	0.00	-0.674316	1.766602	1.849121	1.960000	289.589996	-37.170002	715.00	-0.36	-0.02
3.52	0.00	0.00	0.00	0.00	0.00	0.00	0.00	0.00	0.00	1.25	0.00	0.00	0.00	0.50	0.25	0.00	1.669922	-0.301270	2.651367	-192.639999	-293.299988	67.199997	24.00	0.00	0.00	21.25	18.25	9.25	8.50	0.75	0.25	0.00	0.25	0.00	0.00	0.00	0.25	0.00	0.25	0.00	0.00	-0.681641	-0.057617	1.726562	15.190001	274.470001	30.170000	723.00	-0.35	-0.03
3.53	0.00	0.00	0.00	0.00	0.00	0.00	0.00	0.00	0.00	1.25	0.25	0.00	0.00	0.00	0.25	0.00	1.457031	-0.614258	2.041504	-126.139999	-305.690002	35.000000	22.00	0.00	0.00	22.00	17.25	9.50	9.25	1.25	1.00	0.00	0.25	0.00	0.00	0.00	0.25	0.00	0.00	0.00	0.00	-0.527832	-0.655273	1.973633	3.710000	242.270004	10.710000	748.00	-0.35	-0.03
3.54	0.00	0.00	0.00	0.00	0.00	0.00	0.00	0.00	0.00	1.00	0.00	0.00	0.00	0.50	0.00	0.00	1.118164	-0.820801	2.267090	-68.879997	-320.670013	-16.170000	17.00	0.00	0.00	20.75	18.00	10.00	9.50	1.75	1.50	0.25	0.50	0.00	0.00	0.25	0.00	0.00	0.25	0.00	0.00	-0.474609	0.239258	1.670898	-10.920000	180.389999	-28.559999	776.00	-0.34	-0.04
3.55	0.00	0.00	0.00	0.00	0.00	0.00	0.00	0.00	0.00	0.75	0.00	0.00	0.00	0.00	0.00	0.00	0.865234	-0.929199	2.477051	-27.020000	-358.049988	-73.080002	9.00	0.00	0.00	21.25	17.50	10.25	9.75	2.00	1.75	0.25	0.50	0.00	0.00	0.25	0.50	0.00	0.25	0.00	0.00	-0.565430	0.807617	1.399902	-53.200001	132.229996	-24.150000	796.00	-0.33	-0.04
3.56	0.00	0.00	0.00	0.00	0.00	0.00	0.00	0.00	0.00	0.75	0.00	0.00	0.00	0.00	0.00	0.00	0.487793	-0.872070	2.500977	-7.560000	-409.989990	-125.650002	9.00	0.00	0.00	20.50	17.25	10.25	9.75	2.25	2.00	0.25	0.50	0.00	0.25	0.50	0.50	0.00	0.25	0.00	0.00	-0.477051	-0.027344	1.442383	-72.099998	103.459999	0.770000	796.00	-0.32	-0.04
3.57	0.00	0.00	0.00	0.00	0.00	0.00	0.00	0.00	0.00	0.75	0.00	0.50	0.00	0.00	0.00	0.00	0.101562	-0.714844	2.295410	-1.260000	-458.640015	-165.479996	16.00	0.00	0.00	20.00	16.75	10.00	9.25	2.50	1.75	0.25	0.50	0.25	0.25	0.50	0.75	0.00	0.50	0.00	0.00	-0.320801	-0.162109	1.308594	-58.170002	56.700001	-1.680000	784.00	-0.32	-0.03
3.58	0.00	0.00	0.00	0.00	0.00	0.00	0.00	0.00	0.00	0.75	0.00	0.00	0.00	0.00	0.00	0.00	-0.286621	-0.525879	2.039551	0.700000	-492.869995	-190.190002	9.00	0.00	0.00	19.75	16.25	10.00	9.25	2.50	1.50	0.25	0.50	0.00	0.25	0.25	0.50	0.00	0.50	0.00	0.00	-0.335449	0.122559	0.995117	-29.120001	18.900000	-4.760000	762.00	-0.32	-0.03
3.59	0.00	0.00	0.00	0.00	0.00	0.00	0.00	0.00	0.00	0.50	0.00	0.00	0.00	0.00	0.00	0.00	-0.575195	-0.387695	1.833008	6.650000	-509.320007	-200.130005	6.00	0.00	0.00	18.75	15.50	9.75	8.75	2.25	1.25	0.25	0.25	0.00	0.25	0.50	0.25	0.00	0.50	0.00	0.00	-0.285645	0.132812	0.986328	-17.150000	9.380000	1.260000	721.00	-0.32	-0.03
3.60	0.00	0.00	0.00	0.00	0.00	0.00	0.00	0.00	0.00	0.75	0.00	0.00	0.00	0.00	0.00	0.00	-0.781738	-0.312500	1.716797	13.230000	-512.400024	-199.080002	9.00	0.00	0.00	18.00	14.50	9.25	8.50	1.75	1.25	0.25	0.25	0.25	0.25	0.50	0.25	0.00	0.75	0.00	0.00	-0.277832	0.034180	0.967285	-11.200000	7.700000	4.060000	690.00	-0.32	-0.03
3.61	0.00	0.00	0.00	0.00	0.00	0.00	0.00	0.00	0.00	0.75	0.00	0.00	0.00	0.00	0.00	0.00	-0.901855	-0.298340	1.655273	16.730000	-508.480011	-191.940002	9.00	0.00	0.00	16.75	14.00	9.00	8.00	1.75	0.50	0.25	0.25	0.25	0.25	0.25	0.25	0.00	0.25	0.00	0.00	-0.292969	0.066895	0.940430	-5.110000	5.320000	4.410000	641.00	-0.33	-0.03
3.62	0.00	0.00	0.00	0.00	0.00	0.00	0.00	0.00	0.00	0.50	0.00	0.00	0.00	0.00	0.00	0.00	-1.037109	-0.264648	1.601562	18.480000	-500.500000	-182.699997	6.00	0.00	0.00	16.00	13.00	8.25	7.50	1.50	0.75	0.25	0.25	0.25	0.25	0.25	0.25	0.00	0.00	0.00	0.00	-0.238770	0.082520	0.905273	-1.960000	4.830000	5.740000	602.00	-0.33	-0.03
3.63	0.00	0.00	0.00	0.00	0.00	0.00	0.00	0.00	0.00	0.25	0.00	0.00	0.00	0.00	0.00	0.00	-1.149414	-0.216797	1.564453	22.540001	-486.429993	-170.169998	3.00	0.00	0.00	14.50	11.50	8.00	7.00	1.25	0.50	0.00	0.25	0.00	0.00	0.00	0.25	0.00	0.25	0.00	0.00	-0.163086	0.055664	0.901855	-0.210000	5.950000	4.900000	538.00	-0.34	-0.03
3.64	0.00	0.25	0.00	0.00	0.00	0.00	0.00	0.50	0.00	0.50	0.00	0.00	0.00	0.00	0.00	0.00	-1.202148	-0.169434	1.713379	18.830000	-448.630005	-134.889999	18.00	0.00	0.00	12.75	10.25	7.50	6.25	1.25	0.25	0.00	0.25	0.00	0.25	0.00	0.25	0.00	0.50	0.00	0.00	-0.168945	0.085938	0.899902	-2.590000	8.750000	2.800000	489.00	-0.33	-0.03
3.65	0.00	0.00	0.00	0.00	0.00	0.00	0.00	0.00	0.00	0.25	0.00	0.00	0.00	0.00	0.00	0.00	-1.225586	-0.110840	1.862305	4.480000	-433.860016	-114.660004	3.00	0.00	0.00	11.00	8.50	7.00	5.75	1.00	0.25	0.00	0.25	0.00	0.25	0.50	0.00	0.00	0.00	0.00	0.00	-0.205078	0.091309	0.908691	-8.050000	12.880000	0.910000	429.00	-0.33	-0.03
3.66	0.00	0.00	0.00	0.00	0.00	0.00	0.00	0.00	0.00	0.00	0.00	0.00	0.00	0.00	0.00	0.00	-1.248535	-0.039551	1.958984	-7.980000	-420.350006	-92.540001	0.00	0.00	0.00	9.50	7.50	6.25	5.50	0.75	0.25	0.00	0.00	0.25	0.25	0.25	0.25	0.00	0.00	0.00	0.00	-0.230469	0.075684	0.933594	-12.390000	16.870001	-1.190000	382.00	-0.32	-0.03
3.67	0.00	0.00	0.00	0.00	0.00	0.00	0.00	0.00	0.00	0.25	0.00	0.00	0.00	0.00	0.00	0.00	-1.270508	0.029297	2.048340	-10.920000	-405.230011	-68.389999	3.00	0.00	0.00	8.50	6.25	6.00	5.00	0.75	0.00	0.00	0.00	0.00	0.25	0.25	0.00	0.00	0.50	0.00	0.00	-0.258301	0.098145	0.921875	-14.070000	17.430000	-2.660000	341.00	-0.32	-0.02
3.68	0.00	0.00	0.00	0.00	0.00	0.00	0.00	0.00	0.00	0.50	0.00	0.00	0.00	0.00	0.00	0.00	-1.298828	0.062988	2.154297	-7.000000	-387.309998	-43.470001	6.00	0.00	0.00	7.25	5.25	5.25	4.00	0.75	0.00	0.25	0.00	0.75	0.25	0.50	0.50	0.00	0.75	0.25	0.00	-0.283203	0.083984	0.914062	-14.210000	15.680000	-2.800000	323.00	-0.26	-0.01
3.69	0.00	0.00	0.00	0.00	0.00	0.00	0.00	0.00	0.00	0.25	0.00	0.00	0.00	0.00	0.00	0.00	-1.362793	0.060059	2.339844	-3.920000	-367.989990	-19.460001	3.00	0.00	0.00	6.50	4.25	5.00	2.75	0.50	0.00	0.25	0.00	0.50	0.75	1.00	0.25	0.00	0.25	0.00	0.00	-0.270020	0.066895	0.896484	-14.000000	13.160000	-2.100000	277.00	-0.26	0.00
3.70	0.00	0.00	0.00	0.00	0.00	0.00	0.00	0.00	0.00	0.25	0.00	0.00	0.00	0.00	0.00	0.00	-1.458496	0.059082	2.582520	-9.660000	-350.630005	2.940000	3.00	0.00	0.00	5.75	3.25	4.25	2.50	0.50	0.00	0.50	0.00	0.75	0.75	0.75	0.50	0.00	0.00	0.50	0.00	-0.261230	0.070312	0.890137	-15.190001	13.020000	-1.610000	255.00	-0.22	0.01
3.71	0.00	0.00	0.00	0.00	0.00	0.00	0.00	0.00	0.00	0.25	0.00	0.00	0.00	0.00	0.00	0.00	-1.661133	0.096191	2.892578	-23.240000	-339.989990	24.500000	3.00	0.00	0.00	5.50	2.75	3.50	2.25	0.50	0.00	0.75	0.25	1.50	1.25	1.00	0.75	0.00	0.25	0.25	0.00	-0.278320	0.075684	0.857422	-17.710001	15.260000	-1.890000	266.00	-0.17	0.02
3.72	0.00	0.00	0.00	0.00	0.00	0.25	0.00	0.00	0.00	0.25	0.00	0.00	0.00	0.00	0.00	0.00	-3.736816	0.897461	2.900391	-11.270000	-343.209991	64.190002	6.00	0.00	0.00	4.50	2.00	3.25	1.50	0.75	0.00	1.00	0.25	2.25	1.75	1.75	1.25	0.00	1.00	0.50	0.00	-0.235840	0.077637	0.840332	-18.760000	22.120001	-3.920000	284.00	-0.07	0.04
3.73	0.00	0.00	0.00	0.00	0.00	0.00	0.00	0.00	0.00	0.25	0.00	0.00	0.00	0.00	0.00	0.00	-2.123047	0.257812	1.946289	-17.080000	-327.529999	93.590004	3.00	0.00	0.00	4.50	1.75	2.75	1.50	0.75	0.00	1.75	0.25	3.75	2.00	2.00	1.25	0.25	1.75	1.00	0.50	-0.250488	0.077148	0.887207	-15.820000	28.910000	-6.510000	338.00	-0.00	0.05
