# time	left pressure 1[N/cm²]	left pressure 2[N/cm²]	left pressure 3[N/cm²]	left pressure 4[N/cm²]	left pressure 5[N/cm²]	left pressure 6[N/cm²]	left pressure 7[N/cm²]	left pressure 8[N/cm²]	left pressure 9[N/cm²]	left pressure 10[N/cm²]	left pressure 11[N/cm²]	left pressure 12[N/cm²]	left pressure 13[N/cm²]	left pressure 14[N/cm²]	left pressure 15[N/cm²]	left pressure 16[N/cm²]	left acceleration X[g]	left acceleration Y[g]	left acceleration Z[g]	left angular X[dps]	left angular Y[dps]	left angular Z[dps]	left total force[N]	left center of pressure X[%]	left center of pressure Y[%]	right pressure 1[N/cm²]	right pressure 2[N/cm²]	right pressure 3[N/cm²]	right pressure 4[N/cm²]	right pressure 5[N/cm²]	right pressure 6[N/cm²]	right pressure 7[N/cm²]	right pressure 8[N/cm²]	right pressure 9[N/cm²]	right pressure 10[N/cm²]	right pressure 11[N/cm²]	right pressure 12[N/cm²]	right pressure 13[N/cm²]	right pressure 14[N/cm²]	right pressure 15[N/cm²]	right pressure 16[N/cm²]	right acceleration X[g]	right acceleration Y[g]	right acceleration Z[g]	right angular X[dps]	right angular Y[dps]	right angular Z[dps]	right total force[N]	right center of pressure X[%]	right center of pressure Y[%]
0.00																										1.50	2.25	1.75	3.50	3.25	2.75	1.25	2.25	2.25	0.75	1.00	0.50	3.00	2.25	0.75	1.75	-0.152832	0.054199	0.974609	-2.520000	-3.080000	2.100000	328.00	-0.02	-0.09
0.02																										2.00	2.25	1.75	3.25	3.00	2.50	1.50	2.25	2.25	0.75	0.75	0.50	3.00	1.50	0.75	1.75	-0.147461	0.054199	0.980957	-2.450000	-2.940000	2.030000	320.00	-0.03	-0.09
0.04	2.50	3.50	2.00	2.75	3.75	2.00	1.25	1.25	2.50	0.50	0.50	0.25	1.25	2.25	0.25	1.00	-0.193848	0.031738	0.952637	-1.330000	6.580000	-1.400000	295.00	-0.07	-0.03	1.75	2.50	1.75	3.75	3.00	2.75	1.25	2.25	2.25	0.75	1.00	0.75	3.00	2.00	0.50	1.75	-0.147461	0.054688	0.974609	-2.520000	-2.870000	2.030000	331.00	-0.03	-0.10
0.05	2.25	3.25	2.00	2.75	4.00	1.75	1.25	1.25	2.75	0.75	0.50	0.25	1.00	1.75	0.25	1.00	-0.184570	0.027832	0.957520	-1.330000	6.510000	-1.330000	290.00	-0.07	-0.02	1.75	2.00	1.75	3.50	3.50	2.75	1.25	2.25	2.00	0.75	0.75	0.75	3.00	2.00	0.50	1.75	-0.145020	0.054688	0.972168	-2.450000	-2.870000	2.030000	324.00	-0.03	-0.09
0.06	2.25	3.00	1.75	2.50	4.00	2.00	1.50	1.25	2.50	0.50	0.25	0.50	1.25	2.00	0.25	1.00	-0.183594	0.032715	0.960938	-1.470000	6.930000	-1.400000	287.00	-0.06	-0.03	2.00	2.25	1.50	3.00	3.50	2.75	1.25	2.00	2.25	1.00	1.00	0.75	3.00	2.00	0.75	1.75	-0.145508	0.058105	0.975098	-2.590000	-2.870000	2.030000	327.00	-0.02	-0.08
0.07	2.25	3.25	2.00	2.50	4.00	2.00	1.50	1.25	2.75	0.75	0.75	0.50	1.25	2.25	0.25	1.00	-0.186523	0.027832	0.955566	-1.470000	6.650000	-1.400000	305.00	-0.05	-0.02	1.75	2.25	1.75	3.25	3.25	2.50	1.25	2.00	2.00	1.00	1.00	0.25	3.00	2.25	0.50	1.75	-0.143555	0.056152	0.974609	-2.450000	-2.870000	1.960000	316.00	-0.03	-0.08
0.08																										1.75	2.50	1.75	3.50	3.75	2.75	1.50	2.00	2.25	0.75	1.00	1.00	2.75	2.00	0.50	1.75	-0.144531	0.048340	0.975586	-2.450000	-3.010000	1.960000	337.00	-0.03	-0.08
0.09	2.25	3.00	1.75	2.50	4.25	2.00	1.50	1.25	2.50	0.50	0.75	0.25	1.25	2.00	0.25	1.25	-0.190430	0.028809	0.960449	-1.470000	6.790000	-1.470000	294.00	-0.06	-0.03	1.75	2.00	1.75	3.00	3.50	2.50	1.50	2.25	2.00	0.75	1.25	0.75	2.75	2.25	0.75	2.00	-0.140625	0.055176	0.976562	-2.450000	-3.080000	2.030000	328.00	-0.01	-0.08
0.10	2.50	3.00	1.75	2.75	4.00	2.00	1.50	1.25	2.25	0.75	0.50	0.25	1.25	2.00	0.25	1.00	-0.182129	0.023926	0.958008	-1.400000	6.580000	-1.470000	292.00	-0.07	-0.03	1.50	2.50	1.50	3.50	3.75	2.75	1.50	2.00	2.25	0.75	1.00	0.50	2.50	2.25	0.75	1.75	-0.145508	0.055176	0.970703	-2.520000	-3.010000	2.100000	329.00	-0.03	-0.08
0.11	2.00	3.25	1.75	2.75	4.25	1.75	1.50	1.25	2.75	0.75	0.50	0.50	1.00	2.00	0.25	1.00	-0.188477	0.032227	0.958984	-1.400000	6.440000	-1.330000	296.00	-0.06	-0.02	1.75	2.25	1.50	3.50	3.50	2.75	1.50	2.00	2.00	0.75	1.00	0.50	3.00	2.25	0.50	1.75	-0.148438	0.050293	0.979004	-2.590000	-3.080000	2.100000	325.00	-0.03	-0.09
0.12	2.25	3.25	2.00	2.50	4.25	1.75	1.50	1.25	2.50	0.75	0.50	0.25	1.25	2.25	0.00	1.00	-0.182129	0.025391	0.955566	-1.400000	6.510000	-1.470000	294.00	-0.07	-0.02	2.00	2.50	1.75	3.00	3.75	2.75	1.50	2.00	2.25	0.75	0.75	0.75	3.00	2.00	0.75	1.75	-0.147949	0.055176	0.975586	-2.590000	-3.080000	2.100000	334.00	-0.03	-0.08
0.13	2.25	3.00	2.00	2.50	4.25	2.00	1.50	1.25	2.50	0.75	0.50	0.25	1.25	2.25	0.25	1.00	-0.185547	0.028809	0.958496	-1.470000	6.440000	-1.400000	297.00	-0.06	-0.02	1.75	2.25	2.00	3.50	3.50	2.75	1.50	2.25	2.25	0.50	0.75	1.25	2.50	1.75	0.75	1.75	-0.149902	0.054688	0.977539	-2.520000	-3.150000	2.030000	335.00	-0.03	-0.09
0.14	2.25	3.00	2.00	2.50	4.25	1.75	1.50	1.25	2.25	0.75	0.50	0.25	1.25	2.00	0.25	1.25	-0.186523	0.026855	0.960938	-1.470000	6.160000	-1.400000	290.00	-0.06	-0.03	2.00	2.25	1.75	3.25	3.50	2.50	1.50	2.25	2.25	0.75	1.00	0.50	2.75	2.25	0.50	1.75	-0.145508	0.048828	0.975586	-2.450000	-3.150000	2.030000	330.00	-0.03	-0.08
0.15	2.25	3.00	2.00	2.75	4.25	2.00	1.50	1.25	2.50	0.75	0.50	0.00	1.25	2.00	0.25	1.00	-0.183105	0.031738	0.957520	-1.400000	6.160000	-1.400000	295.00	-0.07	-0.02	1.50	2.50	1.75	3.50	3.75	2.50	1.50	2.00	2.25	1.00	1.00	0.75	2.50	2.25	0.50	1.75	-0.143066	0.054688	0.976562	-2.450000	-3.010000	2.030000	332.00	-0.03	-0.08
0.16	2.50	3.25	1.75	2.50	4.25	1.75	1.50	1.25	2.75	0.75	0.75	0.25	1.25	2.25	0.25	1.00	-0.189453	0.029785	0.958496	-1.330000	6.160000	-1.470000	303.00	-0.06	-0.02	1.75	2.50	1.50	3.25	3.50	2.25	1.50	2.00	2.25	0.75	1.00	0.50	2.50	2.00	0.75	1.75	-0.144531	0.056152	0.976562	-2.450000	-3.010000	2.030000	319.00	-0.03	-0.08
0.17	2.25	3.25	2.00	2.50	4.50	2.00	1.50	1.25	2.25	1.00	0.25	0.25	1.25	2.00	0.25	1.00	-0.184570	0.031738	0.956543	-1.470000	6.300000	-1.400000	297.00	-0.07	-0.03	1.75	2.25	1.50	3.25	3.50	2.75	1.50	2.25	2.25	0.75	0.75	0.50	2.75	2.25	0.75	1.75	-0.147461	0.051270	0.978027	-2.520000	-3.080000	2.100000	327.00	-0.02	-0.08
0.18	2.25	3.25	1.75	3.00	4.50	2.00	1.50	1.25	2.50	0.75	0.50	0.25	1.25	2.00	0.25	1.00	-0.188477	0.030273	0.957520	-1.470000	6.440000	-1.400000	303.00	-0.07	-0.03	1.75	2.50	1.75	3.50	3.50	2.75	1.50	2.00	2.25	0.75	1.00	0.75	3.00	2.00	0.75	1.75	-0.148438	0.053711	0.978516	-2.380000	-2.870000	2.170000	337.00	-0.03	-0.08
0.19	2.50	3.00	2.00	2.75	4.50	2.00	1.50	1.50	2.50	0.75	0.75	0.25	1.25	2.00	0.25	1.00	-0.179688	0.035156	0.959961	-1.540000	6.440000	-1.330000	310.00	-0.06	-0.03	1.75	2.75	1.75	3.50	3.50	2.50	1.50	2.00	2.25	0.75	0.75	0.75	2.75	2.25	0.50	1.75	-0.146484	0.059082	0.975586	-2.380000	-2.940000	2.100000	331.00	-0.03	-0.08
0.20	2.25	3.00	2.00	2.75	4.75	1.75	1.50	1.25	2.75	0.75	0.25	0.25	1.25	2.25	0.25	1.00	-0.185547	0.031250	0.954590	-1.400000	6.370000	-1.400000	303.00	-0.06	-0.02	1.75	2.50	1.75	3.75	3.50	2.75	1.50	2.00	1.75	0.50	1.00	0.50	2.75	2.00	0.50	1.75	-0.148926	0.050781	0.976562	-2.380000	-2.940000	2.170000	323.00	-0.05	-0.09
0.21	2.25	3.00	2.25	2.75	4.50	2.00	1.50	1.25	2.50	0.75	0.50	0.25	1.50	2.00	0.25	1.00	-0.186523	0.030273	0.955078	-1.470000	6.510000	-1.400000	306.00	-0.07	-0.03	1.50	2.25	1.75	3.50	3.50	2.50	1.50	2.25	2.25	1.00	0.75	0.75	2.50	1.75	0.50	1.75	-0.146973	0.057129	0.973145	-2.450000	-3.010000	2.030000	324.00	-0.03	-0.08
0.22	2.25	3.00	2.00	2.75	4.50	2.00	1.50	1.25	2.25	0.50	0.75	0.50	1.25	2.00	0.25	1.00	-0.186523	0.029785	0.950195	-1.470000	6.370000	-1.400000	300.00	-0.07	-0.03	1.75	2.75	1.75	3.25	3.50	2.50	1.50	2.00	2.00	0.75	0.75	0.50	2.75	2.00	0.50	1.75	-0.142578	0.052734	0.971680	-2.520000	-3.150000	2.030000	320.00	-0.04	-0.08
0.23	2.25	3.50	2.00	2.75	4.50	2.00	1.75	1.25	2.25	0.50	0.25	0.25	1.25	2.00	0.25	1.00	-0.186523	0.027344	0.959961	-1.330000	6.160000	-1.330000	301.00	-0.08	-0.03	2.00	2.50	1.50	3.25	3.50	2.50	1.50	2.00	2.25	0.75	0.75	0.50	2.50	2.00	0.50	1.75	-0.145508	0.053711	0.980469	-2.380000	-3.010000	2.100000	319.00	-0.04	-0.07
0.24	2.25	3.25	2.00	3.00	4.50	2.00	1.50	1.25	2.50	0.75	0.75	0.25	1.25	1.75	0.25	1.00	-0.186523	0.026855	0.955078	-1.540000	6.160000	-1.330000	306.00	-0.07	-0.03	1.75	2.50	1.50	3.25	3.75	2.50	1.50	2.00	2.25	0.50	1.00	0.75	2.75	2.00	0.75	1.75	-0.149902	0.051758	0.976074	-2.450000	-3.080000	2.240000	326.00	-0.03	-0.08
0.25	2.25	3.25	2.00	3.00	4.75	2.00	1.75	1.25	2.25	0.75	0.50	0.25	1.25	1.75	0.50	1.00	-0.185059	0.028809	0.958496	-1.540000	6.020000	-1.330000	309.00	-0.07	-0.03	2.00	2.50	1.75	3.25	3.75	2.50	1.50	2.25	2.25	0.75	1.00	0.75	2.75	2.00	0.50	1.75	-0.145996	0.055176	0.978027	-2.520000	-3.080000	2.170000	335.00	-0.03	-0.08
0.26	2.50	3.25	2.00	2.75	4.50	2.00	1.75	1.25	2.50	0.75	0.50	0.00	1.25	2.00	0.25	1.00	-0.187988	0.030273	0.962402	-1.540000	6.160000	-1.330000	307.00	-0.07	-0.02	1.75	2.50	1.75	3.25	3.75	2.50	1.50	2.25	2.25	0.75	1.00	0.75	2.50	2.00	0.50	1.50	-0.146484	0.051270	0.975098	-2.450000	-3.080000	2.030000	329.00	-0.03	-0.08
0.27	2.25	3.25	2.00	3.00	4.50	2.25	1.75	1.25	2.50	0.75	0.50	0.50	1.25	2.25	0.25	1.00	-0.183594	0.030762	0.960938	-1.540000	6.510000	-1.400000	317.00	-0.06	-0.03	1.75	2.25	1.50	3.25	3.50	2.50	1.50	2.00	2.00	0.75	0.75	0.50	2.75	2.00	0.50	1.75	-0.142090	0.052734	0.981934	-2.450000	-3.080000	2.030000	313.00	-0.03	-0.08
0.28	2.50	3.25	2.25	3.00	4.50	2.00	1.50	1.25	2.25	0.75	0.50	0.00	1.25	2.00	0.25	1.00	-0.189453	0.024414	0.958984	-1.330000	6.090000	-1.190000	305.00	-0.08	-0.03	1.75	2.50	1.50	3.25	3.50	2.50	1.50	2.00	2.25	0.75	1.00	0.50	2.75	2.00	0.50	1.75	-0.144531	0.055664	0.974609	-2.450000	-3.080000	2.100000	321.00	-0.03	-0.08
0.29	2.50	3.25	2.25	2.50	4.75	2.00	1.75	1.25	2.25	0.50	0.50	0.25	1.25	2.25	0.25	1.00	-0.187012	0.025879	0.957031	-1.330000	6.160000	-1.190000	308.00	-0.07	-0.02	1.75	2.50	1.75	3.50	3.75	2.50	1.50	2.00	2.00	0.75	0.75	0.50	2.50	2.00	0.50	1.75	-0.150879	0.054688	0.972656	-2.520000	-3.150000	2.030000	321.00	-0.04	-0.08
0.30	2.25	3.50	2.25	3.25	4.75	2.00	1.50	1.25	2.50	1.00	0.50	0.25	1.25	1.75	0.25	1.00	-0.187012	0.026367	0.955566	-1.400000	6.300000	-1.330000	317.00	-0.08	-0.03	2.00	2.50	1.75	3.25	3.75	2.50	1.50	2.00	2.00	0.50	0.75	0.75	2.75	2.00	0.50	1.75	-0.142578	0.051758	0.977051	-2.450000	-3.150000	2.170000	323.00	-0.04	-0.08
0.31	2.25	3.25	1.75	3.00	4.75	2.00	1.50	1.25	2.50	0.75	0.50	0.25	1.25	2.00	0.25	1.00	-0.185547	0.032227	0.959473	-1.400000	6.440000	-1.330000	306.00	-0.07	-0.03	1.75	2.25	1.75	3.50	3.50	2.50	1.50	2.00	2.00	0.75	0.75	0.50	2.75	2.00	0.50	1.75	-0.147461	0.051758	0.971191	-2.450000	-3.080000	2.170000	318.00	-0.04	-0.08
0.32	2.50	3.50	2.25	2.50	4.75	2.00	1.50	1.25	2.50	0.75	0.50	0.25	1.00	1.50	0.25	1.00	-0.184570	0.027344	0.957031	-1.400000	6.440000	-1.330000	304.00	-0.08	-0.02	1.75	2.75	1.50	3.75	3.75	2.50	1.50	2.00	2.25	0.75	1.00	0.50	2.50	1.75	0.50	1.75	-0.145508	0.055664	0.973145	-2.450000	-3.080000	2.100000	327.00	-0.04	-0.08
0.33	2.50	3.50	2.25	3.00	4.75	2.00	1.75	1.25	2.25	0.75	0.75	0.25	1.25	1.75	0.25	0.75	-0.184570	0.031738	0.955078	-1.400000	6.440000	-1.330000	316.00	-0.08	-0.03	2.00	2.50	1.75	3.00	3.50	2.50	1.50	2.00	2.25	0.75	0.75	0.75	2.75	1.75	0.50	1.75	-0.141113	0.052246	0.976562	-2.450000	-3.080000	2.030000	321.00	-0.04	-0.08
0.34	2.25	3.25	2.25	3.00	4.50	2.00	1.75	1.25	2.25	0.75	0.50	0.25	1.00	2.00	0.25	1.00	-0.183105	0.030762	0.954590	-1.470000	6.370000	-1.330000	307.00	-0.07	-0.02	2.00	2.50	2.00	3.50	3.50	2.50	1.50	2.00	2.25	0.75	1.25	0.75	2.75	2.00	0.75	1.75	-0.142090	0.059570	0.973145	-2.520000	-3.010000	1.960000	340.00	-0.03	-0.08
0.35	2.50	3.25	2.00	3.00	4.75	2.00	1.75	1.25	2.50	0.50	0.50	0.25	1.25	2.00	0.25	1.00	-0.178711	0.028809	0.963867	-1.540000	6.510000	-1.400000	312.00	-0.07	-0.02	1.75	2.25	1.50	3.50	3.75	2.75	1.50	2.00	2.25	0.75	0.75	0.75	2.75	2.00	0.50	1.75	-0.146973	0.049316	0.975586	-2.520000	-3.080000	2.100000	327.00	-0.03	-0.08
0.36	2.50	3.25	2.00	3.00	4.75	2.00	1.50	1.25	2.75	0.50	0.50	0.00	1.25	1.75	0.25	1.00	-0.185547	0.029785	0.960938	-1.400000	6.370000	-1.330000	307.00	-0.08	-0.02	1.75	2.25	1.75	3.75	3.75	2.50	1.50	2.00	2.00	0.75	0.75	0.50	2.50	2.00	0.50	1.75	-0.148926	0.052246	0.976074	-2.590000	-3.080000	2.100000	322.00	-0.04	-0.08
0.37	2.50	3.25	2.00	3.00	4.75	1.75	1.50	1.25	2.25	0.50	0.50	0.25	1.25	2.00	0.25	1.00	-0.186523	0.034180	0.964355	-1.470000	6.510000	-1.470000	302.00	-0.08	-0.03	1.75	2.50	1.75	3.50	4.00	2.50	1.50	2.00	2.00	0.50	1.00	0.25	2.75	2.00	0.75	1.75	-0.144043	0.055664	0.977539	-2.520000	-3.010000	2.100000	326.00	-0.04	-0.08
0.38	2.50	3.25	2.25	3.25	5.00	2.00	1.50	1.25	2.50	0.75	0.50	0.25	1.00	2.00	0.25	1.00	-0.186523	0.034180	0.964355	-1.470000	6.510000	-1.470000	317.00	-0.08	-0.02	1.75	2.50	1.75	3.50	3.75	2.75	1.50	2.00	2.25	0.50	0.75	0.50	2.75	1.75	0.50	1.50	-0.147949	0.055664	0.973145	-2.590000	-3.010000	2.100000	323.00	-0.04	-0.08
0.39	2.25	3.50	2.25	3.00	5.00	2.00	1.75	1.25	2.25	0.75	0.25	0.25	1.25	2.00	0.25	1.00	-0.186035	0.028320	0.960938	-1.400000	6.580000	-1.470000	314.00	-0.08	-0.03	1.75	2.25	1.75	3.25	4.00	2.75	1.50	2.00	2.00	0.75	0.75	0.75	2.75	2.00	0.50	1.75	-0.150879	0.052734	0.977539	-2.520000	-3.010000	2.100000	326.00	-0.03	-0.08
0.40	2.50	3.50	2.00	2.75	5.00	2.00	1.75	1.25	2.25	0.50	0.75	0.25	1.25	2.00	0.25	1.00	-0.185547	0.032227	0.959961	-1.470000	6.510000	-1.540000	314.00	-0.08	-0.03	1.75	2.00	1.75	3.50	3.75	2.50	1.50	2.25	2.00	0.75	0.50	0.75	2.75	1.75	0.50	1.75	-0.145508	0.055664	0.975586	-2.520000	-2.870000	1.820000	320.00	-0.04	-0.09
0.41	2.25	3.25	2.00	2.75	5.00	2.00	1.50	1.00	2.25	0.75	0.50	0.50	1.00	2.00	0.25	1.00	-0.186035	0.027832	0.961426	-1.470000	6.300000	-1.400000	302.00	-0.07	-0.02	1.75	2.50	1.75	3.75	4.00	2.50	1.50	2.00	2.25	0.75	1.00	0.50	2.75	1.75	0.75	1.50	-0.145508	0.055664	0.975586	-2.520000	-2.870000	1.820000	334.00	-0.04	-0.08
0.42	2.50	3.25	2.00	3.00	4.75	2.00	1.75	1.25	2.25	0.50	0.50	0.25	1.25	2.00	0.25	1.00	-0.183105	0.024902	0.951172	-1.470000	6.510000	-1.400000	309.00	-0.08	-0.03	2.00	2.25	1.75	3.25	4.00	2.50	1.50	2.00	2.00	0.50	0.75	0.75	2.75	2.00	0.50	1.75	-0.144043	0.053711	0.979492	-2.590000	-3.080000	2.030000	324.00	-0.04	-0.08
0.43	2.50	3.00	2.00	3.00	5.00	2.00	1.50	1.25	2.50	0.50	0.50	0.00	1.25	2.00	0.25	1.00	-0.182617	0.025879	0.958008	-1.470000	6.370000	-1.330000	306.00	-0.08	-0.02	1.75	2.25	1.75	3.75	4.00	2.75	1.50	2.00	2.00	0.75	0.75	1.00	2.75	2.00	0.50	1.50	-0.145020	0.053711	0.979980	-2.590000	-2.940000	2.100000	333.00	-0.04	-0.08
0.44	2.50	3.50	2.00	3.00	5.00	2.00	1.50	1.25	2.50	0.75	0.75	0.25	1.50	2.00	0.25	1.00	-0.189941	0.030273	0.957520	-1.330000	6.300000	-1.330000	321.00	-0.07	-0.03	1.50	2.75	1.75	3.25	4.00	2.50	1.75	2.00	2.50	0.75	0.75	0.75	2.75	2.00	0.75	1.75	-0.148926	0.058105	0.974609	-2.520000	-2.940000	1.960000	339.00	-0.03	-0.07
0.45	2.50	3.25	2.00	3.00	5.00	2.00	1.75	1.25	2.25	0.75	0.50	0.00	1.25	2.00	0.25	1.00	-0.187988	0.028320	0.961426	-1.540000	6.650000	-1.470000	312.00	-0.08	-0.02	1.75	2.50	1.75	3.50	4.00	2.50	1.50	2.00	2.25	0.75	1.00	0.75	2.75	2.00	0.50	1.50	-0.146973	0.055664	0.978516	-2.590000	-2.940000	1.890000	333.00	-0.04	-0.08
0.46	2.75	3.25	1.75	2.75	5.00	2.00	1.75	1.25	2.50	0.75	0.75	0.25	1.25	2.00	0.25	1.00	-0.187500	0.029785	0.952637	-1.610000	6.790000	-1.540000	317.00	-0.07	-0.02	1.75	2.50	1.75	3.25	4.00	2.25	1.50	2.00	2.25	0.75	1.00	0.50	2.75	2.00	0.75	1.75	-0.145508	0.056641	0.975098	-2.660000	-3.010000	1.960000	329.00	-0.03	-0.07
0.47	2.25	3.25	2.25	2.75	5.00	2.00	1.75	1.25	2.50	0.75	0.50	0.25	1.25	2.00	0.25	1.00	-0.180664	0.027344	0.956543	-1.470000	6.650000	-1.470000	315.00	-0.07	-0.02	1.75	2.75	1.50	3.50	4.00	2.50	1.50	2.00	2.25	0.75	0.75	0.75	2.75	2.00	0.50	1.75	-0.147949	0.057129	0.974121	-2.590000	-3.010000	2.030000	331.00	-0.04	-0.08
0.48	2.50	3.25	2.00	2.75	4.75	2.00	1.75	1.25	2.50	0.75	0.50	0.25	1.25	2.00	0.25	1.00	-0.183105	0.025879	0.958008	-1.400000	6.370000	-1.330000	312.00	-0.07	-0.02	1.75	2.50	1.75	3.50	4.00	2.50	1.50	2.00	2.25	0.75	1.00	0.75	2.75	2.00	0.50	1.75	-0.143066	0.055176	0.977539	-2.590000	-3.080000	2.100000	335.00	-0.03	-0.08
0.49	1.75	3.25	2.00	3.00	4.75	2.00	1.75	1.25	2.50	0.75	0.50	0.25	1.25	2.00	0.25	1.00	-0.184082	0.029785	0.956543	-1.610000	6.580000	-1.400000	307.00	-0.06	-0.03	2.00	2.50	2.00	3.50	4.00	2.50	1.75	2.00	1.75	0.50	1.00	0.50	2.75	1.75	0.50	1.75	-0.145996	0.051758	0.981445	-2.590000	-3.150000	2.030000	330.00	-0.05	-0.08
0.50	2.50	3.50	2.00	2.75	4.75	2.00	1.75	1.25	2.25	0.75	0.50	0.25	1.25	2.25	0.25	1.00	-0.181152	0.027344	0.961914	-1.680000	6.930000	-1.540000	313.00	-0.07	-0.02	1.75	2.25	1.50	3.50	4.00	2.25	1.50	2.00	2.25	0.50	0.75	0.75	2.75	2.00	0.50	1.75	-0.147949	0.051270	0.974609	-2.590000	-3.010000	2.030000	322.00	-0.03	-0.08
0.51	2.50	3.25	2.25	2.75	5.00	2.00	1.50	1.25	2.25	0.75	0.50	0.25	1.25	2.00	0.25	1.00	-0.189453	0.032227	0.958496	-1.610000	6.860000	-1.470000	310.00	-0.08	-0.03	1.75	2.50	1.75	3.50	4.25	2.50	1.75	2.00	2.00	0.75	0.75	0.50	2.75	2.00	0.75	1.75	-0.145508	0.057129	0.976074	-2.520000	-3.010000	1.960000	335.00	-0.04	-0.08
0.52	2.25	3.25	2.00	2.75	4.75	2.00	1.75	1.25	2.25	0.75	0.25	0.25	1.25	1.75	0.25	1.00	-0.193359	0.030273	0.955566	-1.540000	6.650000	-1.470000	301.00	-0.08	-0.03	1.75	2.50	1.75	3.25	4.00	2.50	1.75	2.00	2.25	0.75	0.75	0.50	2.50	2.00	0.50	1.75	-0.145508	0.051758	0.973145	-2.590000	-3.010000	1.890000	328.00	-0.04	-0.07
0.53	2.50	3.25	2.25	3.00	5.00	2.00	1.75	1.50	2.50	0.50	0.50	0.25	1.00	1.75	0.25	1.00	-0.186523	0.028320	0.958984	-1.470000	6.440000	-1.400000	317.00	-0.08	-0.02	2.00	2.50	1.50	3.50	4.00	2.50	1.50	2.00	2.00	0.50	1.00	0.50	2.75	2.00	0.75	1.75	-0.150879	0.051758	0.974121	-2.520000	-3.010000	2.030000	328.00	-0.04	-0.08
0.54	2.50	3.25	2.00	3.25	5.00	2.00	1.75	1.25	2.25	0.75	0.50	0.25	1.25	2.25	0.25	1.00	-0.185059	0.029785	0.956055	-1.400000	6.440000	-1.330000	319.00	-0.07	-0.03	1.75	2.50	1.75	3.00	4.00	2.50	1.75	2.00	2.25	0.75	0.75	0.75	2.75	2.00	0.25	1.50	-0.145996	0.054199	0.978027	-2.520000	-2.940000	1.890000	326.00	-0.04	-0.07
0.55	2.25	3.25	1.75	2.75	5.00	2.00	1.75	1.00	2.75	0.75	0.50	0.25	1.25	1.75	0.25	1.00	-0.184082	0.027832	0.958984	-1.470000	6.510000	-1.330000	307.00	-0.07	-0.02	1.75	2.50	1.50	3.25	4.00	2.50	1.75	2.00	2.00	1.00	0.75	0.75	2.50	2.25	0.50	1.75	-0.145996	0.050293	0.974121	-2.590000	-3.080000	1.960000	330.00	-0.03	-0.07
0.56	2.25	3.50	2.00	3.00	4.75	2.00	1.75	1.25	2.25	0.75	0.50	0.25	1.00	1.75	0.25	1.00	-0.185059	0.030762	0.962402	-1.540000	6.650000	-1.400000	307.00	-0.08	-0.03	1.75	2.25	1.50	3.25	4.00	2.50	1.75	2.00	2.25	0.75	0.75	0.50	2.75	1.75	0.50	1.75	-0.145020	0.057617	0.976074	-2.590000	-2.940000	1.960000	323.00	-0.03	-0.07
0.57	2.25	3.25	2.25	2.75	5.00	2.00	1.75	1.25	2.25	0.75	0.50	0.25	1.00	2.00	0.25	1.00	-0.182129	0.029785	0.954590	-1.400000	6.440000	-1.330000	310.00	-0.07	-0.02	1.75	2.25	1.75	3.25	4.00	2.25	1.75	2.00	1.75	0.50	0.75	0.75	2.75	2.00	0.50	1.75	-0.145020	0.051758	0.977051	-2.520000	-2.940000	1.960000	319.00	-0.04	-0.08
0.58	2.50	3.25	2.25	3.00	5.00	2.00	1.75	1.25	2.25	0.50	0.50	0.25	1.25	2.25	0.25	1.00	-0.184082	0.026367	0.954590	-1.540000	6.370000	-1.400000	317.00	-0.08	-0.02	2.00	2.50	1.75	3.25	4.00	2.50	1.50	2.00	2.00	0.75	0.75	0.75	2.50	2.00	0.50	1.75	-0.149414	0.051270	0.978516	-2.450000	-3.010000	1.960000	326.00	-0.04	-0.08
0.59	2.50	3.50	2.25	3.00	5.00	2.00	1.75	1.00	2.75	0.75	0.50	0.50	1.25	2.00	0.25	1.00	-0.184082	0.026367	0.954590	-1.540000	6.370000	-1.400000	325.00	-0.07	-0.02	1.75	2.25	1.75	3.25	4.00	2.75	1.75	2.00	2.00	0.75	0.75	0.50	2.50	2.00	0.75	1.75	-0.144531	0.059082	0.976074	-2.450000	-3.010000	2.030000	328.00	-0.03	-0.07
0.60	2.25	3.50	2.00	3.00	5.00	2.00	1.75	1.25	2.50	0.75	0.25	0.25	1.50	2.00	0.25	1.00	-0.182617	0.029297	0.955566	-1.400000	6.370000	-1.260000	317.00	-0.07	-0.03	2.00	2.25	1.50	3.25	4.00	2.50	1.75	2.00	2.00	0.75	0.75	0.50	2.75	2.00	0.75	1.75	-0.145996	0.052246	0.981445	-2.450000	-3.010000	2.030000	327.00	-0.03	-0.07
0.61	2.25	3.25	2.00	3.00	5.00	2.25	1.75	1.25	2.75	0.75	0.75	0.00	1.00	2.00	0.25	1.00	-0.189941	0.029297	0.964355	-1.470000	6.440000	-1.400000	319.00	-0.07	-0.02	1.75	2.50	1.75	3.25	4.00	2.25	1.75	2.00	2.00	0.50	0.25	0.75	2.50	2.25	0.50	1.50	-0.146973	0.048828	0.979492	-2.380000	-2.940000	1.960000	318.00	-0.04	-0.07
0.62	2.25	3.50	2.25	3.00	5.00	2.00	1.75	1.25	2.50	0.75	0.50	0.25	1.25	1.75	0.00	1.00	-0.182129	0.027832	0.958008	-1.470000	6.300000	-1.330000	315.00	-0.08	-0.02	1.50	2.25	1.75	3.50	4.00	2.50	1.75	2.00	2.00	0.50	0.75	0.50	2.75	2.00	0.75	1.75	-0.145996	0.056641	0.967285	-2.380000	-3.010000	1.960000	325.00	-0.03	-0.08
0.63	2.25	3.25	2.00	3.00	5.00	2.00	1.75	1.50	2.25	0.75	0.50	0.25	1.25	2.00	0.25	1.00	-0.183594	0.030762	0.958008	-1.470000	6.300000	-1.330000	315.00	-0.07	-0.03	1.75	2.25	1.75	3.00	4.00	2.25	1.75	2.00	2.00	0.50	0.75	0.50	2.50	2.00	0.50	1.75	-0.145020	0.051270	0.977539	-2.380000	-2.940000	2.030000	315.00	-0.03	-0.07
0.64	2.50	3.25	2.00	3.00	5.25	2.00	1.75	1.25	2.50	0.50	0.50	0.00	1.25	2.00	0.25	0.75	-0.185059	0.028320	0.955566	-1.400000	6.300000	-1.330000	314.00	-0.08	-0.02	1.75	2.50	1.50	3.25	4.00	2.25	1.50	2.00	2.25	0.75	0.75	0.50	2.50	2.00	0.50	1.50	-0.145020	0.059570	0.978516	-2.380000	-3.010000	1.960000	318.00	-0.04	-0.07
0.65	2.50	3.25	2.00	3.00	5.25	2.25	1.75	1.25	2.00	0.50	0.50	0.50	1.00	2.00	0.25	1.00	-0.189941	0.027344	0.962891	-1.470000	6.510000	-1.400000	314.00	-0.08	-0.03	2.00	3.00	1.50	3.25	3.75	2.50	1.50	2.00	2.00	0.50	0.75	0.50	2.25	2.00	0.50	1.75	-0.146484	0.057617	0.975586	-2.450000	-2.940000	2.030000	318.00	-0.05	-0.08
0.66	2.25	3.50	2.00	3.00	5.00	2.00	1.75	1.25	2.25	0.75	0.50	0.25	1.25	2.00	0.25	1.00	-0.184082	0.028320	0.959961	-1.470000	6.580000	-1.330000	314.00	-0.07	-0.03	1.75	2.50	1.75	3.25	4.00	2.25	1.50	1.75	2.00	0.50	0.75	0.75	2.50	1.75	0.50	1.75	-0.147461	0.053223	0.975098	-2.310000	-2.870000	2.100000	313.00	-0.04	-0.08
0.67	2.50	3.25	2.00	3.00	5.00	2.00	1.75	1.25	2.25	0.50	0.50	0.25	1.25	2.00	0.25	1.00	-0.181152	0.028809	0.956543	-1.470000	6.300000	-1.260000	312.00	-0.08	-0.03	1.75	2.25	1.50	3.50	4.00	2.25	1.75	2.00	2.00	0.50	1.00	0.50	2.75	2.00	0.50	1.50	-0.142578	0.052246	0.978027	-2.380000	-2.940000	2.030000	321.00	-0.04	-0.08
0.68	2.50	3.50	2.00	3.00	5.25	2.00	1.75	1.25	2.50	0.50	0.50	0.50	1.25	2.00	0.25	1.00	-0.189453	0.029297	0.958496	-1.470000	6.160000	-1.400000	323.00	-0.07	-0.03	1.75	2.00	1.75	3.00	4.00	2.50	1.50	1.75	2.00	0.75	0.75	0.75	2.50	2.00	0.50	1.50	-0.141602	0.053223	0.973633	-2.450000	-2.870000	1.890000	311.00	-0.03	-0.07
0.69	2.50	3.25	2.25	3.25	5.25	2.00	1.75	1.25	2.25	0.75	0.75	0.50	1.25	1.50	0.25	1.00	-0.186035	0.029785	0.955566	-1.470000	6.300000	-1.400000	324.00	-0.08	-0.03	1.50	2.50	1.50	3.50	4.00	2.25	1.50	1.75	2.00	0.50	0.50	0.50	2.50	2.00	0.50	1.75	-0.145996	0.059570	0.978027	-2.450000	-2.940000	2.030000	307.00	-0.04	-0.08
0.70	2.25	3.25	2.00	3.00	5.25	2.00	1.75	1.25	2.25	0.75	0.50	0.25	1.25	1.75	0.25	1.00	-0.181152	0.029297	0.959473	-1.540000	6.650000	-1.540000	312.00	-0.08	-0.03	1.50	2.25	2.00	3.25	4.00	2.50	1.75	1.75	2.00	0.50	0.75	0.50	2.75	2.00	0.75	1.75	-0.149414	0.053223	0.989258	-2.380000	-3.010000	2.100000	321.00	-0.03	-0.07
0.71	2.25	3.50	2.25	2.75	5.25	2.25	1.75	1.25	2.00	0.75	0.50	0.25	1.25	1.50	0.25	1.00	-0.187500	0.026855	0.953125	-1.330000	6.230000	-1.260000	312.00	-0.09	-0.03	1.75	2.25	1.50	3.50	3.75	2.25	1.50	2.00	2.25	0.50	1.00	0.75	2.75	2.00	0.50	1.75	-0.148926	0.054199	0.982422	-2.380000	-2.940000	2.030000	321.00	-0.03	-0.08
0.72	2.50	3.75	2.25	3.00	5.00	2.25	1.75	1.25	2.00	0.75	0.50	0.25	1.25	1.75	0.25	1.00	-0.184570	0.032227	0.958008	-1.260000	6.090000	-1.260000	319.00	-0.09	-0.03	1.75	2.50	1.75	3.25	4.00	2.25	1.50	2.00	2.00	0.50	0.75	0.75	2.50	2.00	0.50	1.75	-0.140137	0.056152	0.977539	-2.380000	-2.940000	1.890000	318.00	-0.04	-0.08
0.73	2.25	3.50	2.25	3.00	5.00	2.00	1.75	1.25	2.25	0.50	0.50	0.25	1.25	2.00	0.25	1.00	-0.183105	0.027344	0.961914	-1.540000	6.300000	-1.400000	314.00	-0.08	-0.03	1.75	2.25	1.75	3.50	3.75	2.25	1.50	2.00	2.00	0.75	0.75	0.75	2.25	1.75	0.50	1.75	-0.148926	0.053711	0.976074	-2.450000	-3.080000	2.100000	314.00	-0.04	-0.08
0.74	2.25	3.50	2.25	3.00	5.00	2.25	1.75	1.25	2.25	0.50	0.50	0.25	1.00	2.00	0.25	1.00	-0.186523	0.028320	0.960449	-1.540000	6.160000	-1.260000	315.00	-0.08	-0.03	1.75	2.75	1.50	3.75	4.25	2.50	1.75	2.00	1.75	0.50	0.75	0.50	2.50	1.75	0.50	1.50	-0.147461	0.054199	0.977051	-2.450000	-3.220000	2.100000	323.00	-0.05	-0.08
0.75	2.25	3.25	2.00	3.25	5.25	2.25	1.75	1.25	2.50	0.75	0.50	0.25	1.25	1.75	0.25	1.00	-0.192383	0.020020	0.958984	-1.050000	5.880000	-1.120000	321.00	-0.07	-0.03	1.75	2.50	1.75	3.50	4.00	2.25	1.50	2.00	2.00	0.75	0.50	0.50	2.50	1.75	0.25	1.50	-0.147949	0.048340	0.981445	-2.030000	-3.360000	2.030000	312.00	-0.05	-0.08
0.76	2.75	3.25	2.00	3.00	5.25	2.25	1.75	1.25	2.25	0.75	0.50	0.00	1.25	2.00	0.25	1.00	-0.185547	0.030762	0.959961	0.070000	5.530000	-1.050000	320.00	-0.08	-0.02	2.00	2.75	1.75	3.75	4.00	2.25	1.50	2.00	1.75	0.50	0.25	0.50	2.50	1.75	0.50	1.50	-0.149902	0.052246	0.979492	-1.120000	-3.500000	2.380000	314.00	-0.06	-0.08
0.77	2.50	3.25	2.25	3.25	5.25	2.25	1.75	1.25	2.50	0.75	0.75	0.00	1.00	1.75	0.00	1.00	-0.185547	0.030762	0.959961	0.070000	5.530000	-1.050000	322.00	-0.08	-0.02	1.75	2.75	2.00	4.00	4.00	2.50	1.50	1.75	1.50	0.25	0.50	0.50	2.25	1.75	0.50	1.50	-0.149414	0.059570	0.984863	0.560000	-3.710000	2.730000	311.00	-0.07	-0.08
0.78	2.50	3.75	2.25	3.25	5.25	2.50	1.50	1.50	1.75	0.75	0.25	0.00	1.25	1.50	0.00	1.00	-0.190918	0.025879	0.960938	0.910000	5.110000	-1.050000	314.00	-0.11	-0.04	2.25	2.75	2.00	4.00	4.00	2.75	1.50	1.75	1.25	0.00	0.25	0.50	2.25	1.50	0.25	1.25	-0.162109	0.053223	0.988770	3.080000	-4.620000	3.430000	304.00	-0.10	-0.09
0.79	2.75	3.50	2.25	3.00	5.25	2.50	1.50	1.25	1.75	0.50	0.50	0.00	1.25	1.50	0.00	0.75	-0.198730	0.031738	0.993652	3.570000	3.360000	-0.350000	306.00	-0.11	-0.04	2.25	3.25	2.00	4.50	4.00	2.75	1.25	1.75	1.25	0.25	0.25	0.25	2.25	1.25	0.00	0.75	-0.161621	0.056641	0.984863	4.410000	-5.810000	4.060000	303.00	-0.12	-0.09
0.80	2.75	4.00	2.50	3.50	5.25	2.50	1.50	1.50	1.50	0.50	0.25	0.25	1.00	1.50	0.25	0.75	-0.198730	0.031738	0.993652	3.570000	3.360000	-0.350000	320.00	-0.12	-0.05	2.50	4.00	2.25	4.00	4.25	3.00	1.25	1.75	0.75	0.25	0.25	0.00	1.75	1.00	0.25	0.75	-0.166992	0.071289	1.005859	5.320000	-6.020000	4.340000	302.00	-0.14	-0.09
0.81	2.75	4.00	2.50	3.50	5.25	2.75	1.50	1.50	1.50	0.50	0.25	0.00	1.00	1.00	0.00	0.75	-0.204102	0.028320	0.958496	3.990000	4.130000	0.840000	313.00	-0.13	-0.05	3.00	4.00	2.50	5.00	4.00	3.00	1.25	2.00	0.75	0.00	0.00	0.25	1.75	1.00	0.00	0.75	-0.159668	0.061035	0.986816	4.760000	-6.090000	4.690000	317.00	-0.16	-0.10
0.82	3.00	4.50	2.75	3.75	5.25	2.75	1.50	1.50	1.75	0.25	0.00	0.00	0.75	1.25	0.00	0.75	-0.238281	0.026367	0.974121	4.480000	4.970000	0.980000	324.00	-0.14	-0.04	3.25	4.50	2.75	5.00	4.00	3.00	1.25	1.75	0.75	0.00	0.00	0.00	1.75	0.75	0.25	0.50	-0.162109	0.043457	0.984863	6.790000	-6.580000	4.340000	319.00	-0.17	-0.09
0.83	3.00	4.75	2.50	4.00	5.25	2.75	1.25	1.25	1.00	0.50	0.00	0.00	1.00	0.75	0.00	0.50	-0.236816	0.019531	0.991699	6.720000	5.880000	0.980000	308.00	-0.17	-0.06	3.50	5.00	3.00	5.25	4.25	3.25	1.00	1.75	0.50	0.00	0.00	0.00	1.50	0.75	0.00	0.25	-0.131348	0.029297	0.981445	9.590000	-7.490000	4.130000	324.00	-0.19	-0.09
0.84	3.50	4.75	2.75	4.00	5.00	2.75	1.25	1.25	1.25	0.00	0.00	0.00	0.75	0.75	0.00	0.25	-0.177246	0.011230	0.964844	9.170000	7.490000	1.050000	308.00	-0.18	-0.05	4.00	5.00	3.00	5.25	4.50	3.75	1.00	1.75	0.25	0.00	0.00	0.00	1.00	0.50	0.00	0.50	-0.157227	0.074707	1.012207	14.000000	-10.920000	1.960000	329.00	-0.21	-0.09
0.85	3.50	5.00	2.75	4.25	5.00	2.50	1.00	1.25	1.00	0.00	0.00	0.00	0.50	0.75	0.00	0.25	-0.195801	0.060547	0.981934	10.430000	12.110000	1.120000	301.00	-0.19	-0.06	4.00	5.50	3.50	5.75	4.50	3.75	1.00	1.50	0.25	0.25	0.25	0.00	1.00	0.25	0.00	0.25	-0.055176	0.092285	0.976074	21.980000	-17.570000	2.450000	343.00	-0.21	-0.09
0.86	3.50	5.00	2.75	4.00	4.75	2.75	1.00	1.00	0.75	0.25	0.00	0.00	0.50	0.75	0.00	0.25	-0.138672	0.056641	0.992188	10.920000	14.140000	1.260000	294.00	-0.20	-0.06	4.50	5.75	3.50	5.75	4.25	4.00	0.75	1.50	0.50	0.00	0.25	0.00	1.00	0.25	0.00	0.25	-0.139160	0.075684	1.000977	25.480000	-26.740000	3.780000	347.00	-0.22	-0.09
0.87	3.75	5.25	2.75	4.25	4.50	2.50	1.00	0.75	0.50	0.00	0.00	0.00	0.25	0.50	0.00	0.25	-0.177734	0.042480	1.009277	14.770000	7.280000	0.140000	282.00	-0.22	-0.06	5.00	6.50	3.75	6.00	4.25	4.00	0.75	1.50	0.25	0.00	0.00	0.00	1.00	0.25	0.00	0.00	-0.127441	0.052734	0.980957	30.380001	-31.710001	4.340000	358.00	-0.24	-0.09
0.88	3.75	5.00	2.50	4.00	4.25	2.25	1.00	0.75	0.75	0.00	0.00	0.00	0.25	0.25	0.00	0.00	-0.169922	0.056641	0.969238	17.219999	3.150000	-1.610000	268.00	-0.22	-0.05	5.75	7.00	3.75	6.25	4.25	4.25	0.75	1.50	0.00	0.00	0.00	0.00	1.00	0.25	0.00	0.00	-0.124023	0.101562	1.000000	32.200001	-34.790001	3.430000	372.00	-0.25	-0.10
0.89	3.75	5.25	2.50	4.25	4.00	2.00	1.00	0.75	0.50	0.00	0.00	0.00	0.25	0.50	0.00	0.00	-0.208008	0.060547	0.996582	19.320000	1.680000	-1.400000	267.00	-0.23	-0.05	6.00	7.50	4.00	6.50	4.25	4.50	0.75	1.25	0.00	0.00	0.25	0.00	0.75	0.00	0.00	0.25	-0.123047	0.079102	1.012695	31.150000	-38.500000	3.780000	384.00	-0.25	-0.09
0.90	3.75	5.25	2.50	4.00	4.00	2.00	0.75	0.50	0.50	0.00	0.00	0.00	0.25	0.25	0.00	0.00	-0.196777	0.100586	0.997559	21.280001	-2.310000	-1.470000	254.00	-0.24	-0.05	7.00	8.25	4.25	7.25	4.25	4.50	0.75	1.25	0.00	0.00	0.00	0.00	0.75	0.00	0.25	0.00	-0.124512	0.079590	0.996582	32.060001	-39.900002	4.060000	410.00	-0.26	-0.09
0.91	3.50	5.25	2.50	3.75	3.75	1.75	0.75	0.50	0.25	0.00	0.00	0.00	0.25	0.00	0.00	0.25	-0.181641	0.040527	1.006348	21.210001	-6.650000	1.400000	240.00	-0.25	-0.06	7.50	8.50	4.25	7.25	4.00	4.75	0.50	1.25	0.00	0.00	0.00	0.00	0.75	0.25	0.00	0.25	-0.105469	0.101074	0.981934	34.020000	-40.180000	4.200000	415.00	-0.26	-0.09
0.92	3.50	5.00	2.50	3.50	3.50	1.75	0.50	0.25	0.25	0.00	0.00	0.00	0.00	0.25	0.00	0.00	-0.182129	0.052246	0.980469	23.940001	-7.910000	0.420000	223.00	-0.26	-0.05	8.25	9.25	4.50	7.50	4.00	4.75	0.75	1.25	0.00	0.00	0.00	0.00	0.50	0.25	0.00	0.25	-0.117188	0.132324	0.968262	33.180000	-38.990002	4.550000	437.00	-0.27	-0.08
0.93	3.75	5.25	2.25	3.75	3.50	1.50	0.50	0.50	0.00	0.00	0.00	0.00	0.00	0.00	0.00	0.00	-0.172363	0.089844	0.987305	27.090000	-10.010000	0.770000	223.00	-0.27	-0.06	8.50	9.50	4.75	7.75	4.00	5.00	0.50	1.25	0.00	0.00	0.00	0.25	1.00	0.25	0.00	0.25	-0.108887	0.088379	0.960938	31.290001	-37.310001	4.200000	453.00	-0.27	-0.09
0.94	3.75	5.00	2.25	3.50	3.00	1.25	0.50	0.25	0.00	0.00	0.00	0.00	0.00	0.00	0.00	0.00	-0.190430	0.083008	1.025391	29.610001	-14.490000	2.240000	206.00	-0.28	-0.05	9.00	10.00	4.75	7.75	3.75	5.00	0.50	1.25	0.00	0.00	0.00	0.00	0.75	0.00	0.00	0.25	-0.087891	0.115234	0.982910	30.309999	-35.840000	3.990000	453.00	-0.28	-0.09
0.95	3.50	5.00	2.25	3.50	3.00	1.00	0.50	0.25	0.00	0.00	0.00	0.00	0.00	0.00	0.00	0.00	-0.122559	0.104492	1.044922	26.320000	-17.150000	3.780000	201.00	-0.28	-0.05	9.00	10.25	4.50	8.25	3.75	5.00	0.50	1.25	0.00	0.00	0.00	0.00	0.75	0.25	0.00	0.00	-0.075684	0.122559	0.948730	28.630001	-34.020000	3.780000	459.00	-0.28	-0.09
0.96	3.75	5.00	2.00	3.75	2.75	1.00	0.50	0.00	0.00	0.00	0.00	0.00	0.00	0.00	0.00	0.00	-0.170410	0.092773	0.970703	22.960001	-18.340000	5.040000	197.00	-0.29	-0.05	10.00	10.75	5.00	8.25	3.75	5.00	0.50	1.25	0.00	0.00	0.00	0.00	1.00	0.00	0.00	0.00	-0.066406	0.121094	0.945801	25.200001	-31.570000	3.290000	480.00	-0.28	-0.09
0.97	3.25	5.00	2.00	3.00	2.75	0.75	0.50	0.00	0.00	0.00	0.00	0.00	0.00	0.25	0.00	0.00	-0.153809	0.121094	0.933594	15.960000	-17.850000	4.690000	183.00	-0.28	-0.04	10.00	10.75	5.00	8.25	3.50	5.00	0.50	1.25	0.00	0.00	0.00	0.00	1.00	0.00	0.00	0.00	-0.080078	0.133301	0.978027	22.469999	-28.490000	2.520000	477.00	-0.28	-0.09
0.98	3.50	5.00	2.00	3.25	2.50	0.75	0.50	0.25	0.25	0.00	0.00	0.00	0.00	0.00	0.00	0.00	-0.173828	0.115234	0.971191	13.370000	-15.820000	5.250000	190.00	-0.28	-0.05	10.50	11.25	5.00	8.50	3.50	5.25	0.50	1.25	0.00	0.00	0.00	0.00	0.75	0.00	0.00	0.25	-0.048828	0.105957	0.970703	19.740000	-24.780001	2.660000	491.00	-0.29	-0.09
0.99	3.50	5.00	1.50	3.25	2.25	0.75	0.50	0.00	0.00	0.00	0.00	0.00	0.00	0.00	0.00	0.00	-0.155762	0.096191	0.963867	10.360000	-16.520000	5.390000	175.00	-0.30	-0.05	10.50	11.50	5.00	8.50	3.50	5.00	0.50	1.00	0.00	0.00	0.00	0.00	1.00	0.00	0.00	0.00	-0.100098	0.090332	1.048828	17.850000	-24.080000	2.100000	488.00	-0.29	-0.09
1.00	3.50	5.00	1.75	3.25	2.00	0.50	0.50	0.25	0.00	0.00	0.00	0.00	0.00	0.00	0.00	0.00	-0.147461	0.109863	0.945801	8.260000	-16.030001	5.180000	176.00	-0.30	-0.06	10.75	11.50	5.00	8.75	3.25	5.00	0.50	1.00	0.00	0.00	0.00	0.00	0.75	0.00	0.00	0.25	-0.060059	0.143066	0.953613	11.550000	-17.500000	1.890000	490.00	-0.29	-0.09
1.01	3.50	5.00	1.50	3.00	2.00	0.50	0.25	0.00	0.25	0.00	0.00	0.00	0.00	0.00	0.00	0.00	-0.135742	0.087891	0.907227	5.950000	-10.780000	5.740000	166.00	-0.30	-0.05	11.00	11.75	5.00	8.75	3.25	5.25	0.50	1.25	0.00	0.00	0.00	0.00	0.50	0.00	0.00	0.00	-0.060059	0.143066	0.953613	11.550000	-17.500000	1.890000	498.00	-0.29	-0.09
1.02	3.25	5.00	1.50	3.00	2.00	0.50	0.50	0.00	0.00	0.00	0.00	0.00	0.00	0.00	0.00	0.00	-0.129395	0.095703	0.951660	5.390000	-8.120000	5.600000	164.00	-0.30	-0.05	11.25	12.00	5.25	8.50	3.25	5.25	0.50	1.00	0.00	0.00	0.00	0.00	0.75	0.00	0.00	0.00	-0.049316	0.166504	0.955078	7.210000	-11.830000	1.470000	501.00	-0.29	-0.08
1.03	3.50	5.00	1.75	3.00	2.00	0.50	0.50	0.25	0.00	0.00	0.00	0.00	0.00	0.00	0.00	0.00	-0.122070	0.073242	0.906250	5.670000	-6.650000	4.830000	173.00	-0.30	-0.05	11.00	11.75	5.25	8.75	3.00	5.00	0.50	1.25	0.00	0.00	0.00	0.00	0.25	0.00	0.00	0.00	-0.050293	0.160645	0.969727	5.110000	-9.380000	2.240000	493.00	-0.30	-0.08
1.04	3.75	5.00	1.75	2.75	2.00	0.25	0.25	0.25	0.00	0.00	0.00	0.00	0.00	0.00	0.00	0.00	-0.122559	0.055664	0.941895	7.560000	-5.320000	3.990000	167.00	-0.31	-0.05	11.50	11.75	5.25	8.75	3.25	5.00	0.50	1.00	0.00	0.00	0.00	0.00	0.50	0.00	0.00	0.00	-0.043457	0.147949	0.945312	3.150000	-7.630000	2.450000	499.00	-0.30	-0.08
1.05	3.50	5.25	1.75	3.25	2.00	0.50	0.25	0.00	0.00	0.00	0.00	0.00	0.00	0.00	0.00	0.00	-0.130371	0.042480	0.942383	8.750000	-5.670000	2.310000	171.00	-0.31	-0.06	11.00	11.75	5.00	9.00	3.00	5.00	0.50	1.25	0.00	0.00	0.00	0.00	0.75	0.00	0.00	0.25	-0.050293	0.155762	0.958496	1.400000	-5.390000	2.100000	498.00	-0.29	-0.09
1.06	3.75	5.25	1.75	3.50	2.00	0.50	0.25	0.00	0.00	0.00	0.00	0.00	0.00	0.00	0.00	0.00	-0.115234	0.084961	0.917969	9.450000	-3.780000	0.420000	176.00	-0.31	-0.06	11.00	11.75	5.00	8.75	2.75	5.00	0.25	1.00	0.00	0.00	0.00	0.00	0.50	0.00	0.00	0.00	-0.054688	0.147461	0.966309	0.770000	-3.710000	2.030000	482.00	-0.30	-0.09
1.07	3.75	5.50	1.75	3.25	2.00	0.50	0.25	0.25	0.00	0.00	0.00	0.00	0.00	0.00	0.00	0.00	-0.113281	0.111328	0.919434	8.820000	-1.540000	-0.350000	180.00	-0.31	-0.06	11.00	11.50	5.00	8.75	3.00	5.00	0.25	1.00	0.00	0.00	0.00	0.00	0.75	0.00	0.00	0.00	-0.047363	0.143555	0.945312	0.210000	-2.030000	1.820000	484.00	-0.30	-0.09
1.08	4.00	5.50	1.75	3.50	2.00	0.50	0.25	0.00	0.00	0.00	0.00	0.00	0.00	0.00	0.00	0.00	-0.115234	0.115234	0.894531	8.820000	0.980000	-0.420000	181.00	-0.32	-0.06	10.50	11.25	5.00	8.75	3.00	5.00	0.25	1.25	0.00	0.00	0.00	0.00	1.00	0.00	0.00	0.00	-0.057617	0.162598	0.957031	-2.380000	1.330000	1.680000	483.00	-0.29	-0.09
1.09	4.25	5.75	1.75	3.75	2.00	0.75	0.25	0.25	0.00	0.00	0.00	0.00	0.00	0.00	0.00	0.00	-0.126953	0.109863	0.949219	7.700000	2.940000	-0.280000	195.00	-0.31	-0.07	10.25	11.25	5.00	8.50	3.00	4.75	0.25	1.25	0.00	0.00	0.00	0.00	0.75	0.00	0.00	0.00	-0.058594	0.154297	0.968750	-4.270000	3.360000	2.030000	473.00	-0.29	-0.09
1.10	4.25	5.75	2.00	4.25	2.00	0.75	0.25	0.00	0.25	0.00	0.00	0.00	0.00	0.00	0.00	0.00	-0.114258	0.116211	0.908691	5.530000	5.040000	-0.770000	203.00	-0.31	-0.06	10.25	11.00	4.75	8.50	2.75	5.00	0.25	1.00	0.00	0.00	0.00	0.00	0.50	0.00	0.00	0.00	-0.057129	0.151367	0.953125	-5.810000	5.460000	2.170000	462.00	-0.30	-0.09
1.11	5.00	6.25	2.00	4.00	2.25	0.75	0.25	0.00	0.00	0.00	0.00	0.00	0.00	0.00	0.00	0.00	-0.109375	0.120117	0.908203	5.600000	9.310000	-0.490000	212.00	-0.32	-0.05	9.75	10.50	4.50	8.50	2.75	5.00	0.25	1.25	0.00	0.00	0.00	0.00	0.75	0.00	0.00	0.00	-0.057617	0.148438	0.947266	-7.490000	8.820000	2.100000	455.00	-0.29	-0.10
1.12	5.00	6.25	2.25	4.50	2.25	1.00	0.25	0.00	0.00	0.00	0.00	0.00	0.00	0.00	0.00	0.00	-0.127441	0.097168	0.960449	5.180000	12.530000	-0.490000	223.00	-0.31	-0.06	9.25	10.25	4.50	8.25	2.75	4.75	0.25	1.25	0.00	0.00	0.00	0.00	0.50	0.00	0.00	0.00	-0.061523	0.157227	0.959961	-9.170000	12.180000	2.030000	440.00	-0.29	-0.10
1.13	5.25	6.75	2.25	4.75	2.25	1.25	0.25	0.25	0.00	0.00	0.00	0.00	0.00	0.00	0.00	0.00	-0.135742	0.081543	0.962891	6.020000	13.090000	-0.700000	240.00	-0.31	-0.07	9.00	10.00	4.25	8.25	2.50	4.50	0.25	1.25	0.00	0.00	0.00	0.00	1.00	0.00	0.00	0.00	-0.056152	0.132324	0.915527	-11.900000	16.100000	1.820000	431.00	-0.29	-0.10
1.14	5.50	7.00	2.50	5.00	2.50	1.50	0.25	0.25	0.00	0.00	0.00	0.00	0.00	0.00	0.00	0.00	-0.125000	0.107422	0.940430	7.070000	13.790000	-1.680000	255.00	-0.31	-0.07	8.25	9.50	4.00	8.00	2.50	4.00	0.25	1.25	0.00	0.00	0.00	0.00	0.50	0.00	0.00	0.25	-0.053223	0.139648	0.932129	-15.540000	22.120001	0.980000	405.00	-0.29	-0.10
1.15	5.75	7.50	2.50	5.00	2.50	1.75	0.25	0.25	0.00	0.00	0.00	0.00	0.00	0.00	0.00	0.00	-0.135742	0.106934	0.961914	5.250000	16.379999	-2.380000	265.00	-0.31	-0.07	7.50	8.75	3.75	7.50	2.50	4.25	0.25	1.25	0.00	0.00	0.00	0.00	0.25	0.00	0.00	0.00	-0.044922	0.142578	0.907227	-21.000000	28.910000	-0.560000	381.00	-0.29	-0.10
1.16	6.25	8.25	2.50	5.25	2.50	2.00	0.25	0.25	0.00	0.00	0.00	0.00	0.00	0.00	0.00	0.00	-0.135254	0.119141	0.963867	1.330000	17.500000	-2.870000	283.00	-0.31	-0.07	6.75	8.25	3.25	7.25	2.25	3.75	0.25	1.50	0.00	0.00	0.00	0.00	0.50	0.00	0.00	0.00	-0.056152	0.123047	0.924805	-29.120001	38.500000	-2.450000	358.00	-0.28	-0.11
1.17	6.75	9.00	3.00	5.50	2.75	2.25	0.25	0.50	0.00	0.00	0.00	0.00	0.00	0.00	0.00	0.00	-0.141602	0.127930	0.906738	-3.780000	18.620001	-3.080000	313.00	-0.31	-0.08	6.00	7.25	3.00	6.75	2.25	3.25	0.50	1.50	0.00	0.00	0.00	0.00	0.50	0.00	0.00	0.00	-0.028809	0.181152	0.977051	-40.529999	48.860001	-4.340000	331.00	-0.27	-0.11
1.18	7.50	9.75	3.25	5.75	3.00	2.75	0.25	0.50	0.00	0.00	0.00	0.00	0.00	0.00	0.00	0.00	-0.148438	0.052246	0.973145	-12.950000	19.110001	-4.970000	341.00	-0.31	-0.08	4.75	6.00	2.50	5.75	2.25	2.75	0.50	1.25	0.00	0.00	0.25	0.00	0.50	0.00	0.00	0.25	-0.057617	0.142578	0.929688	-48.720001	58.029999	-5.740000	285.00	-0.26	-0.11
1.19	8.50	10.75	3.75	6.75	3.25	3.00	0.50	0.50	0.00	0.00	0.00	0.00	0.00	0.00	0.00	0.00	-0.158691	0.117188	0.964355	-18.830000	16.170000	-4.270000	386.00	-0.31	-0.07	4.25	5.25	2.00	5.50	2.00	2.00	0.50	1.00	0.00	0.00	0.00	0.00	0.50	0.00	0.00	0.00	-0.090820	0.064941	0.944336	-53.760002	67.340004	-7.910000	246.00	-0.27	-0.10
1.20	9.00	12.00	4.00	7.75	3.50	3.50	0.50	0.75	0.00	0.00	0.00	0.00	0.00	0.00	0.00	0.00	-0.167480	0.108887	0.937988	-24.219999	14.700000	-4.200000	429.00	-0.30	-0.08	3.00	4.25	1.50	4.50	1.75	1.50	0.50	0.75	0.00	0.00	0.00	0.00	0.75	0.00	0.00	0.25	-0.131348	0.039062	1.232910	-62.299999	69.160004	-12.950000	199.00	-0.25	-0.11
1.21	10.25	13.50	4.50	8.25	4.00	4.00	0.50	0.75	0.00	0.00	0.00	0.00	0.00	0.00	0.00	0.00	-0.194336	-0.037109	0.908691	-30.309999	14.560000	-4.760000	477.00	-0.30	-0.08	2.50	3.25	1.50	4.00	1.25	1.00	0.50	1.00	0.25	0.25	0.00	0.00	1.00	0.00	0.00	0.00	-0.035156	0.283203	1.417969	-43.330002	64.260002	-38.290001	178.00	-0.22	-0.11
1.22	12.50	15.00	4.75	9.00	5.00	5.50	0.50	1.00	0.00	0.00	0.00	0.00	0.00	0.00	0.00	0.00	-0.188965	0.102051	1.103027	-39.900002	17.080000	-7.350000	557.00	-0.30	-0.08	2.25	2.75	1.00	3.25	1.00	0.50	0.50	0.50	0.00	0.00	0.00	0.00	0.50	0.00	0.00	0.00	-0.042969	0.130371	1.583008	7.210000	88.269997	-55.230000	131.00	-0.26	-0.10
1.23	13.50	16.25	5.50	9.50	5.50	5.75	0.50	1.25	0.25	0.00	0.00	0.00	0.25	0.25	0.00	0.00	-0.071289	0.075684	0.885254	-38.639999	16.309999	-6.580000	612.00	-0.29	-0.08	1.50	2.00	0.75	3.00	0.75	0.25	0.25	0.50	0.00	0.00	0.00	0.00	0.25	0.00	0.00	0.00	-0.116699	0.293945	1.760742	50.119999	139.580002	-69.090004	100.00	-0.27	-0.11
1.24	14.50	17.50	6.00	10.00	5.75	6.75	0.50	1.50	0.25	0.00	0.00	0.00	0.25	0.00	0.00	0.00	-0.131348	0.070801	0.980957	-34.299999	16.730000	-6.440000	660.00	-0.29	-0.08	1.50	1.75	0.75	2.50	0.75	0.00	0.25	0.25	0.00	0.25	0.00	0.00	0.25	0.00	0.00	0.00	0.029785	0.337402	1.474121	44.590000	190.330002	-80.639999	88.00	-0.26	-0.08
1.25	15.25	18.00	6.50	10.25	6.50	7.25	0.75	1.50	0.50	0.00	0.00	0.00	0.25	0.00	0.00	0.00	-0.109863	0.059570	1.003906	-29.960001	16.799999	-6.300000	702.00	-0.29	-0.07	1.50	1.75	0.75	2.50	0.75	0.00	0.25	0.00	0.00	0.00	0.00	0.00	0.00	0.00	0.00	0.00	0.551758	0.603027	1.795410	-4.690000	211.470001	-85.400002	79.00	-0.30	-0.06
1.26	16.00	18.75	6.75	11.00	7.00	7.50	0.75	1.75	0.25	0.00	0.00	0.00	0.50	0.00	0.00	0.00	-0.119141	0.063477	1.002930	-28.910000	20.299999	-6.580000	738.00	-0.29	-0.08	1.50	1.75	0.50	2.50	0.75	0.00	0.25	0.25	0.00	0.00	0.00	0.00	0.00	0.00	0.00	0.00	0.825684	1.150391	2.437012	-64.610001	174.509995	-66.989998	80.00	-0.29	-0.08
1.27	15.25	18.25	6.75	11.25	7.25	7.75	0.75	2.00	0.50	0.00	0.00	0.00	0.50	0.00	0.00	0.00	-0.142578	0.052734	1.041992	-23.870001	19.670000	-6.160000	741.00	-0.28	-0.08	1.25	1.75	0.50	2.00	0.50	0.00	0.25	0.25	0.25	0.00	0.25	0.00	0.00	0.00	0.00	0.00	1.020020	1.115723	1.741699	-88.550003	127.750000	-37.730000	76.00	-0.25	-0.07
1.28	15.00	18.00	6.75	11.00	7.50	7.75	0.75	2.25	0.50	0.25	0.25	0.00	0.75	0.25	0.00	0.00	-0.138672	0.058105	0.977051	-17.990000	19.250000	-5.880000	750.00	-0.27	-0.08	1.50	1.50	0.50	2.00	0.50	0.00	0.25	0.25	0.00	0.00	0.00	0.00	0.00	0.00	0.00	0.00	0.987305	1.064941	1.066406	-78.889999	110.180000	-15.190001	70.00	-0.29	-0.08
1.29	14.25	17.25	6.75	10.75	7.75	8.25	1.00	2.25	0.75	0.25	0.00	0.25	0.75	0.00	0.00	0.25	-0.240723	0.031738	0.937012	-19.040001	19.670000	-5.950000	747.00	-0.26	-0.08	1.25	1.50	0.50	2.00	0.75	0.00	0.25	0.00	0.00	0.00	0.00	0.00	0.00	0.00	0.00	0.00	1.082520	1.086914	1.092285	-54.110001	108.570000	4.760000	66.00	-0.29	-0.06
1.30	13.50	16.25	6.75	10.75	8.00	8.50	1.00	2.75	0.75	0.25	0.00	0.25	1.00	0.25	0.00	0.00	-0.145996	0.096680	0.961426	-24.430000	21.910000	-6.580000	746.00	-0.26	-0.09	1.50	1.75	0.50	2.00	0.50	0.00	0.25	0.25	0.00	0.00	0.00	0.00	0.00	0.00	0.00	0.00	1.201172	1.016602	1.235352	-29.400000	97.370003	26.600000	72.00	-0.29	-0.08
1.31	12.00	15.25	6.50	10.25	8.25	8.25	1.00	3.25	0.50	0.50	0.00	0.50	1.25	0.25	0.00	0.00	-0.152832	0.095215	0.930664	-29.260000	24.990000	-6.930000	724.00	-0.25	-0.09	1.25	1.50	0.50	1.50	0.50	0.00	0.25	0.25	0.00	0.00	0.00	0.00	0.00	0.00	0.00	0.00	1.263184	0.847168	1.169922	-9.100000	77.419998	47.040001	62.00	-0.28	-0.07
1.32	10.75	14.00	6.25	9.75	8.25	8.25	1.00	3.75	1.50	0.50	0.25	0.25	1.50	0.25	0.00	0.25	-0.140137	0.069336	0.971680	-32.830002	24.500000	-8.050000	716.00	-0.23	-0.09	1.25	0.50	0.25	2.00	0.50	0.00	0.25	0.00	0.00	0.00	0.00	0.00	0.00	0.00	0.00	0.00	1.291016	0.656250	1.104980	5.740000	57.119999	61.599998	52.00	-0.28	-0.05
1.33	9.25	12.25	6.00	9.00	8.75	8.00	1.25	4.25	1.25	0.75	0.25	0.50	1.50	0.50	0.00	0.50	-0.216797	0.026855	0.940430	-29.540001	19.389999	-8.890000	693.00	-0.21	-0.10	1.00	1.25	0.25	1.75	0.50	0.00	0.25	0.00	0.00	0.25	0.00	0.00	0.25	0.00	0.00	0.00	1.336426	0.502441	1.089844	14.770000	36.610001	69.019997	58.00	-0.25	-0.08
1.34	8.25	10.25	5.75	8.25	8.50	8.25	1.75	4.75	1.50	0.75	0.25	1.00	2.00	0.50	0.00	0.50	-0.178711	0.062988	0.997559	-22.260000	16.450001	-8.540000	681.00	-0.18	-0.10	1.25	1.00	0.25	1.75	0.50	0.00	0.25	0.00	0.00	0.00	0.00	0.00	0.00	0.00	0.00	0.00	1.384277	0.403320	1.149414	21.840000	14.280000	68.879997	53.00	-0.29	-0.05
1.35	7.00	8.75	5.00	7.75	8.50	8.00	1.75	5.00	2.00	1.00	0.75	1.00	2.25	1.00	0.00	0.75	-0.185547	0.018066	0.959473	-14.840000	16.100000	-7.350000	664.00	-0.16	-0.10	1.00	1.00	0.00	1.25	0.50	0.00	0.25	0.00	0.00	0.00	0.00	0.00	0.00	0.00	0.00	0.00	1.400391	0.336426	1.237793	28.630001	-11.270000	63.420002	43.00	0.00	0.00
1.36	5.75	7.75	4.75	7.00	8.50	8.00	2.25	5.25	2.25	1.25	1.00	1.25	2.50	1.50	0.25	1.00	-0.208984	0.012207	0.975098	-8.260000	17.430000	-5.810000	664.00	-0.13	-0.10	1.50	0.75	0.00	1.00	0.50	0.00	0.25	0.25	0.00	0.00	0.00	0.00	0.00	0.00	0.00	0.00	1.364746	0.278809	1.270996	32.340000	-39.549999	54.880001	46.00	0.00	0.00
1.37	5.00	7.00	4.00	6.50	8.25	7.75	2.25	5.50	2.50	1.75	1.50	1.75	3.00	1.25	0.25	1.00	-0.183105	0.024902	0.958008	-3.430000	20.090000	-4.410000	655.00	-0.11	-0.10	1.00	1.25	0.25	1.25	0.50	0.00	0.25	0.25	0.00	0.00	0.00	0.00	0.00	0.00	0.00	0.00	1.293945	0.282227	1.284668	34.230000	-66.220001	44.240002	51.00	-0.27	-0.07
1.38	4.50	6.25	3.25	6.00	8.00	7.50	2.50	5.50	3.25	1.75	1.50	2.25	3.50	1.50	0.50	1.25	-0.199707	0.025391	0.967285	-0.280000	21.840000	-4.410000	653.00	-0.08	-0.10	1.00	1.00	0.25	1.50	0.50	0.00	0.25	0.25	0.00	0.00	0.00	0.00	0.00	0.00	0.00	0.00	1.244141	0.317383	1.295898	37.170002	-90.300003	33.180000	52.00	-0.27	-0.08
1.39	3.75	5.50	3.00	5.50	7.50	7.25	2.50	5.75	3.50	2.00	2.00	2.50	3.75	2.00	0.25	1.25	-0.180664	0.028809	0.964355	2.240000	23.590000	-3.780000	643.00	-0.06	-0.10	1.00	1.00	0.50	1.25	0.50	0.00	0.25	0.25	0.00	0.00	0.00	0.00	0.00	0.00	0.00	0.00	1.167480	0.350586	1.287598	41.090000	-111.160004	23.799999	52.00	-0.27	-0.06
1.40	3.25	5.25	2.25	5.25	6.75	7.25	2.50	5.75	3.50	2.25	2.00	3.00	4.00	2.75	0.75	1.50	-0.203613	0.032715	0.965332	7.350000	25.900000	-3.290000	639.00	-0.04	-0.11	1.00	1.00	0.00	1.00	0.50	0.00	0.25	0.00	0.00	0.00	0.00	0.00	0.00	0.00	0.00	0.00	1.063477	0.405273	1.316406	45.500000	-127.889999	17.570000	40.00	0.00	0.00
1.41	2.75	4.75	2.25	4.75	6.25	7.00	2.50	5.75	4.25	2.75	2.75	3.75	5.00	3.00	0.50	1.75	-0.203613	0.032715	0.965332	7.350000	25.900000	-3.290000	656.00	-0.02	-0.11	1.00	1.00	0.00	1.25	0.50	0.00	0.25	0.00	0.00	0.00	0.00	0.00	0.00	0.00	0.00	0.00	0.980469	0.445801	1.365723	51.939999	-142.309998	14.490000	43.00	0.00	0.00
1.42	2.50	3.75	1.75	4.25	5.50	6.50	2.25	5.75	4.75	3.00	3.50	4.00	5.50	3.75	0.75	2.00	-0.173340	0.044922	0.961426	9.660000	27.299999	-3.290000	650.00	0.01	-0.11	1.00	1.00	0.00	1.25	0.25	0.00	0.25	0.00	0.00	0.00	0.00	0.00	0.00	0.00	0.00	0.00	0.743652	0.451660	1.452637	67.690002	-165.619995	13.160000	40.00	0.00	0.00
1.43	2.00	3.25	1.50	3.50	4.75	6.00	2.25	6.00	5.25	3.25	4.00	5.00	6.00	4.25	1.00	2.00	-0.119629	0.058594	0.981445	14.070000	30.520000	-3.360000	655.00	0.04	-0.11	1.00	1.00	0.00	1.25	0.50	0.00	0.25	0.00	0.00	0.00	0.00	0.00	0.00	0.00	0.00	0.00	0.645996	0.453125	1.543945	75.180000	-176.470001	14.490000	43.00	0.00	0.00
1.44	1.75	2.50	1.00	3.50	4.00	5.50	2.25	5.75	5.25	3.75	5.00	6.00	6.25	4.75	1.00	2.00	-0.250977	0.066406	0.957031	16.100000	32.270000	-3.430000	656.00	0.06	-0.11	0.75	1.00	0.00	1.50	0.50	0.00	0.25	0.00	0.00	0.00	0.00	0.00	0.00	0.00	0.00	0.00	0.485840	0.348633	1.520996	80.220001	-186.199997	16.660000	43.00	0.00	0.00
1.45	1.25	2.25	1.00	3.00	2.75	5.00	2.00	6.00	5.50	4.25	6.00	6.75	6.75	5.25	1.00	2.50	-0.132324	0.076172	0.952148	17.990000	34.230000	-3.290000	662.00	0.09	-0.12	1.00	1.00	0.00	1.00	0.50	0.00	0.25	0.00	0.00	0.00	0.00	0.00	0.00	0.00	0.00	0.00	0.334473	0.272461	1.466309	80.500000	-189.910004	18.830000	40.00	0.00	0.00
1.46	1.25	2.00	0.75	3.00	2.50	5.00	1.75	5.75	6.25	4.50	7.25	7.50	7.25	6.00	1.25	2.75	-0.227539	0.050293	0.982910	21.420000	37.869999	-3.990000	694.00	0.11	-0.12	1.00	1.00	0.00	1.00	0.50	0.00	0.25	0.00	0.00	0.00	0.00	0.00	0.00	0.00	0.00	0.00	0.191406	0.266602	1.499512	79.660004	-189.070007	21.770000	40.00	0.00	0.00
1.47	1.25	2.00	1.00	2.00	2.00	4.00	1.50	5.75	6.25	5.25	7.75	8.00	7.50	7.00	1.50	3.25	-0.144531	0.063477	0.955078	23.379999	41.860001	-3.780000	700.00	0.13	-0.11	1.00	0.50	0.00	1.25	0.50	0.00	0.25	0.00	0.00	0.00	0.00	0.00	0.00	0.00	0.00	0.00	0.045410	0.270020	1.518555	79.309998	-187.809998	26.600000	38.00	0.00	0.00
1.48	1.25	1.50	0.75	2.25	1.50	3.50	1.50	5.50	6.75	5.75	8.50	8.50	8.00	8.00	1.25	3.75	-0.334473	0.047852	0.943359	24.850000	47.950001	-3.080000	719.00	0.14	-0.11	0.75	1.00	0.25	1.25	0.50	0.00	0.25	0.25	0.00	0.00	0.00	0.00	0.00	0.00	0.00	0.00	-0.103027	0.280273	1.492188	78.820000	-186.199997	34.720001	47.00	0.00	0.00
1.49	0.75	1.25	0.50	2.25	1.50	3.25	1.25	5.25	7.50	6.00	8.75	9.00	8.25	8.50	1.50	3.75	-0.271973	0.100098	0.905762	28.700001	54.529999	-2.590000	728.00	0.16	-0.11	1.00	0.75	0.00	1.00	0.25	0.00	0.25	0.00	0.00	0.00	0.00	0.00	0.00	0.00	0.00	0.00	-0.282715	0.254883	1.381836	74.410004	-180.460007	46.480000	35.00	0.00	0.00
1.50	0.75	1.50	0.25	1.75	1.25	2.75	1.00	5.25	7.00	6.25	9.25	9.50	8.50	9.00	1.50	4.50	-0.212402	0.087402	0.988770	33.670002	59.920002	-2.870000	727.00	0.17	-0.11	1.00	1.00	0.00	0.50	0.25	0.00	0.25	0.00	0.00	0.00	0.00	0.00	0.00	0.00	0.00	0.00	-0.372559	0.283203	1.378418	69.230003	-170.380005	61.110001	32.00	0.00	0.00
1.51	0.50	1.00	0.50	1.75	1.00	2.25	0.75	5.00	7.50	6.75	9.50	9.75	8.75	10.00	2.00	4.75	-0.298828	0.061523	0.987793	37.799999	64.540001	-3.360000	741.00	0.18	-0.11	1.00	1.00	0.00	1.00	0.50	0.00	0.25	0.00	0.00	0.00	0.00	0.00	0.00	0.00	0.00	0.25	-0.547852	0.281250	1.389160	68.599998	-161.699997	77.559998	41.00	0.00	0.00
1.52	0.50	0.75	0.50	1.50	1.00	2.25	0.75	4.50	7.50	7.00	9.75	10.50	9.00	10.50	2.00	5.00	-0.259766	0.091309	0.981934	42.070000	75.879997	-2.310000	749.00	0.19	-0.10	1.00	0.75	0.00	0.75	0.25	0.00	0.25	0.00	0.00	0.00	0.00	0.00	0.00	0.00	0.00	0.00	-0.682617	0.223145	1.414551	68.599998	-155.820007	94.150002	32.00	0.00	0.00
1.53	0.25	1.00	0.25	1.25	1.00	2.00	0.75	4.00	7.75	7.50	10.00	10.50	9.25	11.50	2.25	5.25	-0.228027	0.104492	0.940430	44.869999	85.050003	-2.100000	759.00	0.20	-0.10	0.50	0.75	0.00	0.50	0.25	0.00	0.25	0.00	0.00	0.00	0.00	0.00	0.00	0.00	0.00	0.00	-0.817383	0.180176	1.473145	68.110001	-156.869995	109.970001	24.00	0.00	0.00
1.54	0.25	0.75	0.25	1.25	0.75	1.25	0.50	3.75	8.00	7.75	10.25	10.75	9.25	12.50	3.00	5.75	-0.291016	0.100586	0.950195	45.990002	97.370003	-2.100000	768.00	0.21	-0.09	0.75	0.75	0.25	0.50	0.50	0.00	0.25	0.00	0.00	0.00	0.00	0.00	0.00	0.00	0.00	0.00	-1.027832	0.044922	1.304688	66.779999	-162.050003	121.660004	32.00	0.00	0.00
1.55	0.25	0.50	0.00	1.00	0.75	1.25	0.25	3.25	8.00	8.00	10.25	11.25	9.50	13.50	3.25	6.00	-0.319336	0.079590	0.966797	44.310001	111.860001	-2.660000	772.00	0.22	-0.09	0.75	1.00	0.00	0.50	0.25	0.00	0.25	0.00	0.00	0.00	0.00	0.00	0.00	0.00	0.00	0.00	-1.328613	-0.127930	1.014160	61.740002	-158.899994	124.879997	29.00	0.00	0.00
1.56	0.25	0.25	0.00	0.75	0.75	1.00	0.25	2.75	8.25	8.25	10.50	11.25	9.50	14.75	4.75	6.50	-0.287598	0.113281	0.951172	43.750000	122.500000	-2.520000	794.00	0.24	-0.08	0.75	0.75	0.00	1.00	0.25	0.00	0.25	0.00	0.00	0.00	0.00	0.00	0.00	0.00	0.00	0.00	-1.650879	-0.204590	0.849609	48.650002	-145.180008	121.379997	32.00	0.00	0.00
1.57	0.25	0.25	0.00	0.50	0.75	0.75	0.25	2.50	8.25	8.25	10.50	11.50	9.50	16.00	5.50	7.00	-0.374512	0.088867	0.981445	41.160000	137.970001	-2.240000	808.00	0.25	-0.08	0.75	0.75	0.00	0.75	0.50	0.00	0.25	0.25	0.00	0.00	0.00	0.00	0.00	0.00	0.00	0.00	-1.930664	-0.152344	0.729004	27.860001	-126.489998	114.379997	36.00	0.00	0.00
1.58	0.25	0.25	0.00	0.50	0.75	0.50	0.25	2.00	8.75	8.50	10.50	11.50	9.25	17.25	6.25	7.50	-0.361816	0.149414	0.939453	40.180000	152.600006	-3.220000	826.00	0.26	-0.07	0.75	0.75	0.00	1.00	0.50	0.00	0.25	0.25	0.00	0.00	0.00	0.00	0.00	0.00	0.00	0.00	-2.243652	-0.001953	0.617188	9.800000	-105.279999	105.769997	39.00	0.00	0.00
1.59	0.00	0.00	0.00	0.50	0.75	0.75	0.00	1.75	8.75	8.50	10.50	11.25	9.00	18.50	7.00	8.00	-0.373535	0.179688	0.973633	37.799999	169.680008	-5.670000	833.00	0.26	-0.06	0.75	0.75	0.00	0.75	0.25	0.00	0.25	0.00	0.00	0.00	0.00	0.00	0.00	0.00	0.00	0.00	-2.489258	0.128418	0.540039	1.470000	-83.860001	97.300003	29.00	0.00	0.00
1.60	0.00	0.00	0.00	0.75	0.50	0.50	0.00	1.25	8.75	8.75	10.25	11.25	8.75	19.50	7.75	8.75	-0.415527	0.176758	0.911133	33.180000	194.460007	-9.450000	841.00	0.27	-0.06	0.75	0.50	0.00	0.75	0.50	0.00	0.25	0.25	0.00	0.00	0.00	0.00	0.00	0.00	0.00	0.00	-2.769531	0.184082	0.449219	0.280000	-63.279999	88.620003	34.00	0.00	0.00
1.61	0.25	0.00	0.00	0.25	0.50	0.25	0.00	1.25	8.75	9.00	10.00	11.00	8.25	20.50	8.25	9.25	-0.493164	0.202148	1.012207	28.350000	214.059998	-15.960000	845.00	0.28	-0.05	0.75	0.50	0.00	1.00	0.25	0.00	0.25	0.00	0.00	0.00	0.00	0.00	0.00	0.00	0.00	0.00	-3.155762	0.210938	0.021484	12.880000	-11.900000	65.309998	30.00	0.00	0.00
1.62	0.00	0.25	0.00	0.25	0.50	0.00	0.00	1.25	9.00	9.00	9.75	10.50	7.50	21.50	9.00	10.00	-0.520508	0.206543	0.996582	21.559999	227.710007	-23.030001	851.00	0.28	-0.04	0.75	0.75	0.00	0.75	0.50	0.00	0.25	0.00	0.00	0.00	0.00	0.00	0.00	0.00	0.00	0.00	-3.183105	0.085449	-0.033691	22.400000	20.299999	49.209999	32.00	0.00	0.00
1.63	0.00	0.00	0.00	0.00	0.50	0.25	0.00	1.00	9.00	9.00	9.50	10.00	6.75	22.25	9.50	10.25	-0.500488	0.263672	1.179199	14.000000	245.630005	-30.380001	844.00	0.29	-0.04	0.75	0.75	0.00	0.75	0.50	0.00	0.25	0.00	0.00	0.00	0.00	0.00	0.00	0.00	0.00	0.00	-3.031738	-0.037109	-0.004883	26.250000	49.070000	32.689999	32.00	0.00	0.00
1.64	0.00	0.00	0.00	0.00	0.50	0.00	0.00	0.75	9.00	8.75	8.75	9.00	6.00	23.00	10.00	10.75	-0.593750	0.224609	1.066406	4.060000	265.299988	-37.730000	824.00	0.30	-0.03	0.50	0.50	0.00	1.00	0.25	0.00	0.25	0.00	0.00	0.00	0.00	0.00	0.00	0.00	0.00	0.00	-2.672852	-0.174805	0.051758	28.350000	69.790001	19.460001	27.00	0.00	0.00
1.65	0.00	0.00	0.00	0.00	0.75	0.25	0.00	0.75	8.75	9.00	8.25	8.50	5.50	23.50	10.75	11.00	-0.728027	0.346191	1.083008	-10.850000	321.369995	-52.290001	827.00	0.30	-0.02	1.50	2.25	0.25	2.25	0.50	0.00	0.25	0.00	0.00	0.00	0.00	0.00	0.00	0.00	0.00	0.00	-0.273926	0.203125	0.999023	-54.950001	114.590004	24.290001	73.00	-0.32	-0.08
1.66	0.00	0.00	0.00	0.00	0.50	0.00	0.00	0.75	8.50	8.75	7.75	7.50	4.75	23.75	10.75	10.75	-0.764160	0.253418	1.348145	-18.480000	346.500000	-63.560001	794.00	0.30	-0.01	4.00	7.00	1.00	4.25	0.25	0.00	0.25	0.00	0.00	0.00	0.00	0.00	0.00	0.00	0.00	0.00	1.305176	0.649902	0.073242	-135.940002	90.650002	15.330000	170.00	-0.35	-0.09
1.67	0.00	0.00	0.00	0.00	0.50	0.00	0.00	0.50	8.25	8.50	7.00	6.50	4.00	23.75	10.50	11.00	-0.927734	0.247070	1.216797	-26.460001	377.019989	-71.680000	759.00	0.31	-0.01	9.00	11.75	1.75	5.75	0.75	0.00	0.25	0.00	0.00	0.00	0.00	0.00	0.00	0.00	0.00	0.00	1.063477	-0.315430	2.720215	-131.389999	146.789993	-10.850000	296.00	-0.36	-0.06
1.68	0.00	0.00	0.00	0.00	0.75	0.00	0.00	0.50	7.75	7.75	5.75	5.50	3.50	23.25	10.50	10.00	-0.994629	0.375488	1.415039	-18.059999	419.510010	-71.750000	709.00	0.31	0.00	11.50	12.75	2.50	6.25	0.75	0.75	0.25	0.25	0.00	0.00	0.00	0.00	0.25	0.00	0.00	0.00	-0.391602	0.695801	2.620117	-181.369995	233.449997	-23.100000	359.00	-0.35	-0.06
1.69	0.00	0.00	0.00	0.00	0.75	0.00	0.00	0.50	7.00	7.00	5.00	5.00	3.00	22.75	10.00	9.25	-1.389160	0.274902	1.966797	-1.820000	453.179993	-66.849998	661.00	0.31	0.01	13.50	14.75	2.75	6.50	1.00	1.00	0.25	0.25	0.00	0.00	0.00	0.00	0.50	0.00	0.00	0.00	-0.817383	-0.458496	2.736328	-145.880005	223.160004	-3.290000	411.00	-0.35	-0.06
1.70	0.00	0.00	0.00	0.00	0.50	0.00	0.00	0.25	6.00	5.50	3.50	4.00	2.25	21.50	9.00	8.00	-1.520508	0.781250	2.159668	31.990000	481.390015	-62.090000	565.00	0.32	0.02	14.50	15.25	3.25	7.25	1.00	1.25	0.50	0.25	0.00	0.00	0.00	0.00	0.50	0.00	0.00	0.00	-0.225098	-0.555176	1.883301	-129.500000	179.410004	-19.250000	447.00	-0.34	-0.06
1.71	0.00	0.00	0.00	0.00	0.50	0.00	0.00	0.00	5.00	4.25	2.50	3.25	1.75	19.50	7.50	6.50	-1.992188	0.260254	2.939941	68.040001	516.039978	-52.500000	471.00	0.33	0.03	15.50	15.75	3.75	7.50	1.25	1.50	0.25	0.25	0.00	0.00	0.00	0.00	0.50	0.00	0.00	0.00	0.045410	0.101562	1.098145	-97.650002	140.070007	-37.939999	471.00	-0.35	-0.06
1.72	0.00	0.00	0.00	0.00	0.75	0.00	0.25	0.00	4.00	3.00	1.75	2.25	1.25	16.75	6.50	5.25	-1.829102	0.121582	3.438477	83.580002	548.030029	-45.639999	388.00	0.33	0.04	16.25	16.25	4.50	8.50	1.50	2.50	0.50	0.50	0.00	0.00	0.00	0.00	0.50	0.00	0.00	0.00	-0.113281	0.573730	1.092773	-75.599998	147.559998	-33.389999	524.00	-0.33	-0.06
1.73	0.00	0.00	0.00	0.00	0.50	0.00	0.00	0.00	3.50	2.50	1.50	1.25	1.00	13.25	5.00	4.00	-1.844727	0.211914	3.800293	113.680000	559.580017	-41.860001	302.00	0.33	0.05	17.00	17.00	5.50	9.00	1.75	3.00	0.50	0.50	0.00	0.00	0.00	0.00	0.50	0.00	0.00	0.00	-0.211426	0.393555	1.768066	-73.290001	135.029999	-13.650000	564.00	-0.33	-0.06
1.74	0.00	0.00	0.00	0.00	0.75	0.00	0.00	0.00	2.75	1.75	1.25	1.25	0.75	10.00	3.75	2.50	-1.252441	0.351074	4.354980	131.389999	554.750000	-42.000000	233.00	0.32	0.05	17.50	17.50	6.50	9.50	2.25	3.50	0.50	0.50	0.00	0.00	0.00	0.00	0.50	0.00	0.00	0.00	-0.172852	-0.084961	1.373047	-76.440002	107.099998	-5.180000	601.00	-0.33	-0.06
1.75	0.00	0.00	0.00	0.00	0.75	0.25	0.25	0.00	1.75	1.50	1.25	1.00	0.50	6.00	1.75	1.50	-0.604492	0.199219	4.077637	131.740005	539.630005	-76.440002	159.00	0.29	0.04	18.00	17.25	7.25	9.75	2.75	4.25	0.50	0.75	0.00	0.00	0.00	0.00	0.75	0.00	0.00	0.00	-0.086426	-0.111328	1.217773	-61.110001	91.489998	-11.480000	635.00	-0.32	-0.06
1.76	0.00	0.25	0.00	0.25	0.75	0.00	0.25	0.00	1.00	0.50	0.75	0.50	0.25	3.75	1.25	0.75	1.360840	0.454102	4.128418	88.690002	472.989990	-134.259995	100.00	0.25	0.04	17.75	17.50	7.50	10.25	3.00	4.75	0.50	0.75	0.00	0.00	0.00	0.00	0.75	0.00	0.00	0.00	-0.148438	0.178711	1.300781	-46.759998	84.629997	-17.570000	651.00	-0.32	-0.06
1.77	0.25	0.25	0.25	0.00	1.00	0.25	0.25	0.00	1.25	0.75	0.50	0.25	0.25	1.75	0.75	0.75	1.963867	0.966309	2.898438	10.850000	333.899994	-169.050003	86.00	0.17	0.05	18.25	17.75	7.75	10.25	3.75	5.00	0.75	1.00	0.00	0.00	0.00	0.00	0.75	0.00	0.00	0.00	-0.144043	0.250488	1.216797	-36.470001	71.120003	-10.710000	680.00	-0.31	-0.06
1.78	0.25	0.25	0.25	0.25	1.00	0.00	0.25	0.00	1.25	1.00	0.50	0.25	0.00	1.50	0.50	0.50	0.402832	2.438477	6.105957	-79.870003	69.090004	-119.349998	81.00	0.15	0.07	18.00	17.50	8.00	10.50	4.50	5.25	0.75	1.00	0.00	0.00	0.00	0.00	0.50	0.00	0.00	0.00	-0.125977	0.111816	1.175781	-39.759998	56.490002	-6.230000	689.00	-0.31	-0.06
1.79	0.00	0.25	0.25	0.00	1.00	0.00	0.25	0.25	0.00	0.75	0.50	0.00	0.00	1.25	0.25	0.50	0.834473	0.905762	4.298340	-87.150002	-136.570007	-66.709999	53.00	0.13	0.01	17.75	17.50	7.75	10.50	4.75	5.50	0.75	1.25	0.00	0.00	0.00	0.00	0.25	0.00	0.00	0.00	-0.101562	0.084473	1.094238	-36.680000	44.310001	-6.020000	691.00	-0.31	-0.06
1.80	0.25	0.00	0.25	0.00	0.75	0.25	0.25	0.00	0.75	0.75	0.50	0.25	0.25	0.75	0.25	0.25	0.792969	0.881836	2.273438	-96.599998	-230.649994	-65.449997	58.00	0.13	0.04	17.50	17.00	8.00	10.25	5.00	5.75	0.75	1.25	0.00	0.00	0.00	0.00	0.50	0.00	0.00	0.00	-0.103516	0.118652	1.073242	-28.420000	37.450001	-5.880000	691.00	-0.30	-0.06
1.81	0.00	0.75	0.25	0.25	1.00	0.00	0.25	0.00	0.50	0.75	0.50	0.25	0.00	0.75	0.00	0.00	0.786621	0.750977	1.903809	-106.680000	-259.209991	-82.459999	56.00	0.04	0.04	17.00	16.75	8.00	10.50	5.00	6.00	0.75	1.25	0.00	0.00	0.00	0.00	0.25	0.00	0.00	0.00	-0.109375	0.144531	1.098633	-23.870001	30.450001	-4.270000	687.00	-0.30	-0.06
1.82	0.00	0.25	0.25	0.00	0.75	0.00	0.25	0.00	0.00	0.75	0.25	0.00	0.00	0.50	0.00	0.25	0.582520	0.879883	1.707520	-89.389999	-272.299988	-98.910004	33.00	0.00	0.00	16.25	16.00	7.75	10.25	5.00	5.75	0.75	1.25	0.00	0.00	0.00	0.00	0.50	0.00	0.00	0.00	-0.092285	0.104004	1.006836	-17.010000	19.879999	-1.470000	667.00	-0.30	-0.07
1.83	0.00	0.50	0.25	0.00	1.00	0.25	0.25	0.00	0.25	0.75	0.25	0.25	0.00	0.25	0.25	0.25	0.604980	0.860352	1.860352	-57.750000	-296.869995	-101.779999	47.00	0.00	0.00	16.00	15.50	7.50	10.00	5.00	6.00	0.75	1.25	0.00	0.00	0.00	0.00	0.50	0.00	0.00	0.00	-0.109863	0.108887	0.982910	-15.330000	18.270000	-0.630000	657.00	-0.30	-0.07
1.84	0.00	0.25	0.00	0.00	0.75	0.00	0.25	0.00	0.50	0.50	0.50	0.00	0.00	0.25	0.00	0.25	0.535156	0.801270	1.915039	-40.810001	-339.360016	-93.870003	35.00	0.00	0.00	15.25	15.25	7.50	10.00	5.00	5.75	0.75	1.25	0.00	0.25	0.00	0.00	0.50	0.00	0.00	0.00	-0.092773	0.075195	0.952637	-15.190001	18.760000	0.140000	646.00	-0.29	-0.07
1.85	0.25	0.50	0.25	0.25	0.75	0.00	0.25	0.00	0.25	0.75	0.50	0.00	0.00	0.00	0.00	0.25	0.384277	0.755859	1.802734	-46.480000	-384.720001	-78.750000	42.00	0.00	0.00	14.25	14.50	7.25	9.75	5.00	5.75	0.75	1.25	0.25	0.00	0.25	0.00	0.25	0.00	0.00	0.00	-0.094727	0.048828	0.979980	-16.100000	21.980000	-0.490000	625.00	-0.29	-0.07
1.86	0.25	0.75	0.25	0.00	1.00	0.00	0.25	0.00	0.50	0.75	0.50	0.00	0.00	0.00	0.00	0.25	0.037598	0.851074	1.322266	-59.430000	-437.709991	-44.730000	48.00	0.00	0.00	13.25	13.75	7.00	9.50	5.00	5.75	0.75	1.50	0.50	0.25	0.00	0.00	0.50	0.00	0.00	0.00	-0.083008	0.051758	0.964355	-14.210000	25.690001	-2.100000	611.00	-0.28	-0.07
1.87	0.00	0.25	0.25	0.00	1.00	0.00	0.25	0.00	0.50	0.75	0.25	0.00	0.00	0.00	0.00	0.00	-0.141602	0.917480	0.993164	-34.580002	-437.709991	-28.980000	37.00	0.00	0.00	12.00	12.75	6.50	9.00	5.00	5.75	1.00	1.75	0.00	0.50	0.50	0.00	0.50	0.00	0.00	0.00	-0.060059	0.074219	0.891113	-23.309999	28.910000	-4.340000	587.00	-0.27	-0.08
1.88	0.00	0.25	0.00	0.25	0.75	0.00	0.25	0.00	0.00	0.50	0.00	0.00	0.00	0.00	0.00	0.00	-0.308105	0.875977	1.023438	13.160000	-429.519989	-13.440001	22.00	0.00	0.00	10.25	11.50	6.25	8.75	5.00	5.75	1.00	2.00	0.00	0.50	0.25	0.00	0.75	0.00	0.00	0.00	-0.074707	0.073242	0.883789	-38.709999	36.049999	-5.880000	555.00	-0.26	-0.08
1.89	0.00	0.25	0.00	0.00	1.00	0.00	0.25	0.00	0.25	0.50	0.25	0.00	0.00	0.00	0.00	0.00	-0.296875	0.789062	1.256836	69.790001	-425.600006	2.170000	28.00	0.00	0.00	8.75	10.00	5.75	8.25	5.00	5.50	1.00	2.00	0.50	0.25	0.00	0.25	1.50	0.00	0.00	0.25	-0.119141	0.095215	1.156738	-48.720001	41.930000	-6.370000	524.00	-0.24	-0.09
1.90	0.25	0.00	0.25	0.00	1.00	0.00	0.25	0.00	0.25	0.50	0.00	0.00	0.00	0.00	0.00	0.00	-0.403320	0.605469	1.506348	120.120003	-429.589996	17.570000	29.00	0.00	0.00	7.50	9.00	5.00	8.00	5.00	5.50	1.00	2.25	0.75	0.75	0.50	0.50	1.75	0.00	0.00	0.25	-0.149902	0.106934	1.079102	-34.439999	18.200001	-6.370000	513.00	-0.22	-0.10
1.91	0.25	0.50	0.00	0.00	1.00	0.00	0.25	0.00	0.75	0.50	0.25	0.00	0.00	0.00	0.00	0.00	-0.552734	0.393555	1.645996	142.029999	-435.610016	30.450001	40.00	0.00	0.00	6.50	7.75	4.25	7.25	4.75	5.25	1.25	2.50	1.00	1.00	0.50	0.75	2.25	0.50	0.00	0.50	-0.155762	0.074707	0.975586	-19.180000	7.280000	-6.860000	495.00	-0.19	-0.10
1.92	0.00	0.25	0.00	0.25	1.00	0.00	0.25	0.00	0.50	0.50	0.00	0.00	0.00	0.00	0.00	0.00	-0.700195	0.244629	1.699219	132.720001	-437.080017	39.410000	32.00	0.00	0.00	5.50	7.00	3.50	6.75	4.75	5.25	1.25	2.75	1.50	1.25	0.75	0.50	2.25	0.25	0.25	1.00	-0.134766	0.066895	1.050781	-11.830000	6.020000	-6.510000	480.00	-0.16	-0.10
1.93	0.00	0.25	0.25	0.00	1.00	0.00	0.25	0.00	0.50	0.50	0.00	0.00	0.00	0.00	0.00	0.00	-0.805664	0.192871	1.753906	114.800003	-433.369995	44.799999	32.00	0.00	0.00	4.50	6.00	2.75	5.75	4.50	5.00	1.25	2.75	1.50	1.25	1.00	1.00	2.50	0.75	0.25	1.25	-0.157715	0.073242	0.983887	-6.510000	5.740000	-7.770000	451.00	-0.13	-0.11
1.94	0.00	0.50	0.25	0.50	1.00	0.00	0.25	0.00	0.25	0.50	0.00	0.00	0.00	0.00	0.00	0.00	-0.885742	0.236816	1.949219	108.290001	-430.709991	48.090000	36.00	0.00	0.00	3.25	4.75	2.25	5.25	4.00	4.50	1.50	3.00	2.25	1.25	1.50	1.25	3.25	1.00	0.25	1.75	-0.204102	0.072754	0.977051	-3.570000	8.960000	-9.730000	441.00	-0.08	-0.11
1.95	0.00	0.50	0.25	0.00	0.75	0.00	0.25	0.00	0.25	0.50	0.00	0.00	0.00	0.00	0.00	0.25	-0.941406	0.268555	2.097168	114.309998	-431.690002	51.869999	29.00	0.00	0.00	2.75	4.00	1.50	4.75	3.50	4.00	1.50	3.00	2.75	1.75	1.50	1.50	4.00	1.50	0.50	2.00	-0.200684	0.029297	0.988281	-1.050000	12.810000	-12.530000	434.00	-0.04	-0.11
1.96	0.00	0.25	0.00	0.00	1.00	0.00	0.25	0.00	0.50	0.50	0.00	0.00	0.00	0.00	0.00	0.00	-1.015137	0.297363	2.254883	122.430000	-434.279999	58.520000	29.00	0.00	0.00	2.25	3.50	1.50	4.25	2.50	3.75	1.50	3.00	3.50	2.50	2.00	2.00	4.25	2.25	0.75	2.50	-0.088867	0.143066	0.998047	1.540000	15.470000	-13.790000	447.00	0.00	-0.10
1.97	0.00	0.25	0.00	0.00	0.75	0.00	0.25	0.00	0.00	0.25	0.25	0.00	0.00	0.00	0.00	0.00	-1.156250	0.368652	2.365234	122.849998	-434.980011	72.590004	20.00	0.00	0.00	1.50	2.25	1.00	4.00	2.00	3.25	1.50	3.00	4.50	3.25	2.50	2.25	5.00	3.00	1.00	2.75	-0.144043	0.058594	0.980957	2.940000	18.690001	-13.300000	454.00	0.05	-0.10
1.98	0.25	0.50	0.25	0.00	1.00	0.00	0.25	0.00	0.00	0.25	0.00	0.00	0.00	0.00	0.00	0.00	-1.402344	0.478516	2.445312	115.500000	-431.899994	95.129997	27.00	0.00	0.00	1.50	2.00	0.75	3.50	1.50	2.25	1.50	3.00	5.50	4.00	3.25	2.75	5.50	4.25	1.25	3.50	-0.191406	0.025391	0.982910	4.970000	22.049999	-13.020000	483.00	0.09	-0.08
1.99	0.25	0.50	0.00	0.00	1.00	0.00	0.25	0.00	0.00	0.25	0.00	0.00	0.00	0.00	0.00	0.00	-1.689453	0.564453	2.371094	105.840004	-423.920013	124.389999	25.00	0.00	0.00	0.75	1.00	0.50	3.75	1.00	2.00	1.50	2.75	6.25	5.00	4.25	3.75	5.75	5.50	1.50	4.50	-0.121094	0.109863	0.899414	10.430000	27.090000	-14.070000	516.00	0.14	-0.08
2.00	0.00	0.00	0.25	0.25	0.75	0.00	0.25	0.00	0.00	0.25	0.00	0.00	0.00	0.00	0.00	0.00	-1.970703	0.615234	2.289062	101.500000	-409.779999	157.149994	20.00	0.00	0.00	0.75	0.25	0.25	2.75	1.00	1.75	1.25	2.75	7.25	7.00	6.25	4.25	6.25	7.50	1.75	5.25	-0.230469	0.022949	0.974121	22.820000	51.450001	-16.309999	577.00	0.18	-0.06
2.01	0.25	0.25	0.25	0.00	1.00	0.00	0.25	0.00	0.00	0.25	0.00	0.00	0.00	0.00	0.00	0.00	-2.286133	0.627930	2.280273	107.099998	-392.700012	187.880005	25.00	0.00	0.00	0.75	1.00	0.50	2.75	0.50	1.75	1.00	2.50	8.00	7.75	7.50	6.00	7.00	8.75	2.00	6.25	-0.150879	0.022949	1.025879	22.820000	51.450001	-16.309999	648.00	0.18	-0.07
2.02	0.00	0.25	0.00	0.50	1.00	0.00	0.25	0.00	0.00	0.25	0.00	0.00	0.00	0.00	0.00	0.25	-2.649902	0.587402	2.260742	119.629997	-374.290009	211.330002	27.00	0.00	0.00	0.50	0.50	0.00	2.50	0.50	1.25	1.00	2.50	8.25	8.50	8.50	7.50	7.50	10.50	2.25	7.00	-0.218262	0.106934	1.056152	41.720001	89.599998	-17.219999	690.00	0.21	-0.07
2.03	0.00	0.25	0.00	0.50	0.75	0.00	0.25	0.00	0.00	0.00	0.00	0.00	0.00	0.00	0.00	0.00	-3.045410	0.472168	2.040039	131.250000	-351.470001	227.220001	20.00	0.00	0.00	0.75	0.50	0.00	2.50	0.25	1.25	1.00	2.50	9.00	9.00	8.75	7.75	8.00	13.00	2.75	7.75	-0.216309	0.099609	1.069824	48.439999	108.150002	-19.320000	745.00	0.21	-0.06
2.04	0.25	0.00	0.25	0.75	0.75	0.00	0.25	0.00	0.00	0.25	0.00	0.00	0.00	0.00	0.00	0.00	-3.785645	-0.008301	1.332031	116.270004	-263.410004	237.369995	28.00	0.00	0.00	0.50	0.75	0.00	2.25	0.00	0.75	0.75	2.00	9.50	9.50	9.25	8.25	8.25	15.50	3.25	8.50	-0.263672	0.136719	1.054199	50.959999	132.930008	-19.460001	778.00	0.23	-0.05
2.05	0.00	0.00	0.25	0.00	0.75	0.00	0.25	0.00	0.00	0.00	0.00	0.00	0.00	0.00	0.00	0.00	-3.785645	-0.008301	1.332031	116.270004	-263.410004	237.369995	15.00	0.00	0.00	0.50	0.00	0.00	2.00	0.00	1.00	0.50	2.25	9.75	9.75	9.50	8.50	8.25	18.00	4.75	9.50	-0.259766	0.114258	1.123535	37.660000	137.479996	-21.629999	825.00	0.25	-0.05
2.06	0.00	0.25	0.00	0.25	0.75	0.00	0.25	0.00	0.00	0.00	0.00	0.00	0.00	0.00	0.00	0.00	-4.062012	-0.192383	0.955078	91.699997	-207.479996	227.990005	17.00	0.00	0.00	0.50	0.25	0.00	2.25	0.00	0.75	0.25	1.75	10.00	10.00	9.75	8.50	8.25	20.25	5.75	10.50	-0.309570	0.114258	1.087891	33.459999	162.470001	-22.889999	859.00	0.25	-0.04
2.07	0.00	0.00	0.00	0.25	0.75	0.00	0.25	0.00	0.00	0.00	0.00	0.00	0.00	0.00	0.00	0.00	-4.326172	-0.448242	0.443359	61.389999	-114.099998	178.850006	15.00	0.00	0.00	0.50	0.25	0.00	1.50	0.00	0.50	0.00	1.50	10.50	10.50	10.00	8.50	8.25	22.50	6.75	11.50	-0.350586	0.166504	1.104492	37.240002	196.630005	-27.580000	890.00	0.27	-0.04
2.08	0.00	0.00	0.00	0.25	1.00	0.00	0.25	0.00	0.00	0.00	0.00	0.00	0.00	0.00	0.00	0.00	-4.351562	-0.568359	0.145996	48.369999	-74.970001	131.669998	18.00	0.00	0.00	0.25	0.25	0.25	1.50	0.00	0.25	0.00	1.25	10.50	10.50	10.00	8.25	8.00	24.25	7.50	12.50	-0.339355	0.134277	1.070312	37.310001	224.839996	-30.660000	907.00	0.27	-0.03
2.09	0.00	0.00	0.25	0.25	1.00	0.00	0.25	0.00	0.50	0.00	0.00	0.00	0.00	0.00	0.00	0.00	-4.354980	-0.514648	0.028320	31.780001	-36.189999	73.150002	27.00	0.00	0.00	0.25	0.00	0.00	1.50	0.00	0.50	0.00	1.25	10.75	10.50	9.75	8.00	7.75	26.00	8.25	13.50	-0.456543	0.198730	1.160645	29.330000	251.509995	-36.330002	929.00	0.28	-0.03
2.10	0.00	0.50	0.00	0.25	1.00	0.00	0.25	0.00	0.00	0.00	0.00	0.00	0.00	0.00	0.00	0.00	-4.235352	-0.326660	-0.041992	18.410000	1.470000	17.150000	22.00	0.00	0.00	0.25	0.00	0.00	1.00	0.00	0.00	0.00	1.25	10.50	10.50	9.50	7.75	7.25	27.00	8.75	14.25	-0.485352	0.162598	1.167969	12.740000	276.989990	-43.330002	923.00	0.29	-0.02
2.11	0.00	0.25	0.00	0.00	0.75	0.00	0.25	0.00	0.00	0.00	0.00	0.00	0.00	0.25	0.00	0.00	-4.020996	-0.061523	0.017578	18.059999	38.430000	-25.270000	16.00	0.00	0.00	0.25	0.00	0.00	1.25	0.00	0.50	0.00	1.25	10.50	10.75	9.00	7.25	6.50	28.25	9.50	15.00	-0.496582	0.091309	1.474121	-0.630000	305.410004	-49.910000	939.00	0.29	-0.02
2.12	0.00	0.25	0.00	0.25	0.75	0.00	0.25	0.00	0.00	0.00	0.00	0.00	0.00	0.00	0.00	0.00	-3.566406	0.073730	0.096680	23.100000	73.849998	-50.820000	17.00	0.00	0.00	0.25	0.00	0.00	0.25	0.00	0.25	0.00	1.00	10.25	10.75	8.50	6.25	6.00	28.75	9.75	15.25	-0.571289	0.227051	1.217773	-15.190001	342.019989	-56.349998	907.00	0.30	-0.01
2.13	0.00	0.50	0.00	0.50	1.00	0.00	0.25	0.00	0.00	0.00	0.00	0.00	0.00	0.00	0.00	0.25	-2.989258	0.242188	0.238281	22.820000	101.500000	-59.360001	26.00	0.00	0.00	0.25	0.00	0.00	0.50	0.00	0.00	0.00	0.75	10.00	10.25	8.00	5.50	5.25	29.25	10.25	15.50	-0.725098	0.251465	1.498535	-38.430000	382.899994	-67.970001	885.00	0.31	-0.00
2.14	0.00	0.00	0.00	0.25	0.75	0.00	0.25	0.00	0.00	0.00	0.00	0.00	0.00	0.00	0.00	0.00	-2.339355	0.366699	0.141602	23.870001	118.440002	-51.380001	15.00	0.00	0.00	0.00	0.00	0.00	0.50	0.00	0.00	0.00	0.75	9.25	9.75	7.00	3.75	4.75	29.00	10.00	15.50	-0.776855	0.064453	1.222656	-54.180000	417.690002	-71.820000	830.00	0.31	0.00
2.15	0.50	1.25	0.50	0.50	0.75	0.00	0.25	0.00	0.00	0.00	0.00	0.00	0.00	0.00	0.00	0.00	-1.667480	0.548828	0.113770	35.560001	129.500000	-27.510000	40.00	0.00	0.00	0.00	0.00	0.00	0.00	0.00	0.00	0.00	0.50	8.50	9.00	5.75	3.00	3.75	28.50	10.00	14.75	-0.838379	0.448730	1.399414	-54.950001	458.989990	-76.580002	765.00	0.32	0.02
2.16	2.50	5.00	0.75	2.50	1.00	0.00	0.25	0.00	0.00	0.00	0.00	0.00	0.00	0.00	0.00	0.00	-1.336914	-0.053711	2.818848	-89.879997	233.240005	39.900002	122.00	-0.33	-0.07	0.25	0.00	0.00	0.00	0.00	0.00	0.00	0.50	7.25	8.25	4.50	2.25	3.00	27.50	9.75	13.75	-1.127441	0.350586	2.150879	-49.070000	503.089996	-87.849998	699.00	0.33	0.02
2.17	9.75	16.00	1.50	5.00	1.25	0.00	0.25	0.00	0.00	0.00	0.00	0.00	0.00	0.00	0.00	0.00	0.980469	0.727051	-1.926758	-43.820000	192.919998	93.309998	337.00	-0.37	-0.07	0.00	0.00	0.00	0.00	0.00	0.25	0.25	0.25	6.00	7.25	3.25	1.75	2.00	25.75	8.75	12.00	-1.368652	0.606934	2.022461	-29.820000	542.220032	-91.279999	611.00	0.33	0.03
2.18	18.00	22.50	2.25	6.75	1.25	1.00	0.00	0.00	0.00	0.00	0.00	0.00	0.00	0.00	0.00	0.00	-0.599609	-0.825684	2.447266	-38.150002	375.339996	59.360001	517.00	-0.37	-0.06	0.00	0.00	0.00	0.00	0.00	0.00	0.25	0.00	5.00	5.50	2.00	1.25	1.75	22.50	7.25	9.50	-2.049316	1.064941	2.851074	22.680000	572.250000	-95.269997	495.00	0.34	0.04
2.19	22.00	25.00	3.00	8.25	1.50	1.75	0.25	0.25	0.00	0.00	0.00	0.00	0.25	0.00	0.00	0.00	-1.948242	-0.665527	5.824707	-106.120003	499.239990	13.230000	627.00	-0.36	-0.06	0.00	0.00	0.00	0.00	0.00	0.25	0.25	0.00	4.00	4.25	1.75	1.00	0.50	17.75	6.00	7.00	-2.218262	1.145996	3.612793	114.520004	605.570007	-97.019997	389.00	0.34	0.05
2.20	25.00	26.50	4.50	9.25	2.25	2.50	0.25	0.25	0.00	0.00	0.00	0.00	0.00	0.00	0.00	0.00	-1.839355	-1.998047	5.370117	-111.650002	365.820007	-22.049999	714.00	-0.36	-0.05	0.00	0.00	0.00	0.00	0.00	0.00	0.25	0.00	3.00	3.00	1.75	1.00	0.00	12.50	4.75	5.00	-2.026855	0.625000	4.665527	214.130005	621.390015	-99.470001	287.00	0.34	0.05
2.21	25.50	26.50	5.50	9.75	2.50	3.25	0.25	0.50	0.00	0.00	0.00	0.00	0.25	0.00	0.00	0.00	-0.169922	0.185059	1.993652	-106.190002	189.559998	-82.320000	753.00	-0.35	-0.06	0.00	0.00	0.00	0.00	0.00	0.25	0.25	0.00	2.25	2.25	1.25	1.00	0.25	8.00	3.00	2.25	-0.856934	-0.521484	6.418945	280.420013	605.640015	-106.120003	197.00	0.32	0.05
2.22	25.00	25.50	6.25	10.25	3.25	4.25	0.25	0.75	0.00	0.00	0.00	0.00	0.25	0.00	0.00	0.00	-0.103516	0.873047	0.754883	-64.750000	148.470001	-68.669998	775.00	-0.34	-0.06	0.00	0.00	0.25	0.00	0.25	0.00	0.25	0.00	1.25	1.25	0.50	0.50	0.25	3.00	1.25	1.25	1.823730	0.301758	5.578125	107.309998	451.500000	-250.880005	97.00	0.28	0.05
2.23	24.00	25.00	7.00	11.00	4.25	5.75	0.50	1.00	0.00	0.00	0.00	0.00	0.50	0.00	0.00	0.00	-0.438965	0.455078	2.187500	-78.050003	181.580002	-29.400000	814.00	-0.33	-0.06	0.00	0.00	0.00	0.25	0.50	0.00	0.50	0.00	1.00	1.00	0.25	0.50	0.00	1.75	1.00	0.75	2.323242	1.668457	2.614258	-97.510002	336.630005	-280.489990	77.00	0.24	0.06
2.24	23.50	24.25	7.50	11.50	5.00	6.50	0.50	1.50	0.00	0.00	0.00	0.00	0.25	0.00	0.00	0.25	-0.445801	-0.233887	1.874023	-98.000000	113.260002	-21.980000	836.00	-0.32	-0.07	0.00	0.00	0.00	0.25	0.50	0.00	0.50	0.00	0.75	1.00	0.50	0.00	0.00	1.25	0.75	0.75	1.025391	2.522461	6.628418	-111.440002	17.780001	-205.940002	64.00	0.23	0.07
2.25	23.00	23.50	7.75	11.75	5.75	7.50	0.75	2.00	0.00	0.00	0.00	0.00	0.50	0.00	0.00	0.25	-0.154785	-0.008789	1.083496	-80.919998	65.029999	-28.350000	862.00	-0.31	-0.07	0.00	0.25	0.25	0.25	0.25	0.00	0.50	0.00	0.50	1.00	0.25	0.00	0.00	1.25	0.75	0.50	0.904785	1.065430	3.510254	-48.509998	-146.300003	-154.350006	59.00	0.19	0.06
2.26	22.25	22.75	7.50	11.75	6.25	7.75	0.75	2.25	0.00	0.00	0.00	0.25	0.75	0.00	0.00	0.25	-0.250977	0.109863	1.139648	-58.310001	37.520000	-10.640000	861.00	-0.30	-0.08	0.00	0.00	0.00	0.50	0.50	0.00	0.50	0.00	0.25	1.00	0.25	0.00	0.00	0.50	0.50	0.50	1.436523	1.548340	2.637207	-46.480000	-209.229996	-144.130005	47.00	0.00	0.00
2.27	20.75	21.75	7.50	11.75	6.50	8.25	0.75	2.50	0.00	0.00	0.00	0.00	0.75	0.00	0.00	0.00	-0.250977	0.109863	1.139648	-58.310001	37.520000	-10.640000	845.00	-0.30	-0.08	0.00	0.00	0.00	0.00	0.50	0.00	0.50	0.25	0.00	1.00	0.50	0.00	0.00	0.00	0.50	0.50	1.300293	1.956543	2.464844	-2.520000	-256.339996	-109.690002	40.00	0.00	0.00
2.28	20.00	20.75	7.50	12.00	6.50	8.50	0.75	3.25	0.00	0.00	0.00	0.25	0.75	0.00	0.00	0.00	-0.190918	0.188477	1.026367	-23.870001	17.639999	-10.220000	847.00	-0.29	-0.09	0.00	0.00	0.00	0.50	0.50	0.00	0.50	0.00	0.25	0.75	0.25	0.00	0.00	0.25	0.50	0.50	1.045410	1.626953	2.591309	66.570000	-308.769989	-54.389999	42.00	0.00	0.00
2.29	19.50	20.00	7.25	11.75	6.75	8.50	1.00	3.75	0.00	0.00	0.00	0.00	1.00	0.00	0.00	0.25	-0.140137	0.150879	0.906738	-19.950001	14.070000	-8.960000	845.00	-0.28	-0.09	0.00	0.25	0.00	0.25	0.25	0.00	0.25	0.00	0.25	0.75	0.25	0.00	0.00	0.00	0.50	0.25	1.100586	1.138184	2.219238	81.340004	-359.100006	6.440000	32.00	0.00	0.00
2.30	18.50	18.75	7.25	11.50	7.00	8.50	1.00	4.00	0.00	0.00	0.00	0.25	1.00	0.00	0.00	0.25	-0.163574	0.141113	0.954590	-25.129999	17.290001	-7.980000	829.00	-0.27	-0.09	0.00	0.00	0.00	0.25	0.25	0.00	0.50	0.00	0.25	1.00	0.50	0.00	0.00	0.00	0.25	0.50	0.910156	0.962402	2.129395	43.259998	-405.230011	62.930000	37.00	0.00	0.00
2.31	16.50	17.25	7.00	10.75	7.00	8.50	1.00	4.00	0.00	0.25	0.00	0.00	1.25	0.00	0.00	0.25	-0.160156	0.121582	0.990723	-26.040001	20.930000	-4.760000	786.00	-0.27	-0.09	0.00	0.00	0.00	0.25	0.50	0.00	0.50	0.00	0.25	0.50	0.25	0.00	0.00	0.00	0.25	0.50	0.616211	0.802734	1.921875	10.570000	-443.100006	107.239998	32.00	0.00	0.00
2.32	15.00	15.25	6.75	10.00	7.00	8.25	1.00	4.50	0.25	0.00	0.25	0.25	1.25	0.25	0.00	0.25	-0.128418	0.078613	0.955566	-24.570000	24.080000	-2.590000	754.00	-0.25	-0.10	0.00	0.00	0.00	0.25	0.25	0.00	0.50	0.00	0.00	0.25	0.00	0.00	0.25	0.00	0.25	0.25	0.455566	0.556641	1.648438	9.170000	-470.470001	133.839996	22.00	0.00	0.00
2.33	12.75	13.00	6.25	9.25	7.00	8.00	1.00	4.25	0.50	0.50	0.00	0.25	1.25	0.25	0.00	0.25	-0.141113	0.065430	0.942383	-24.920000	28.070000	-2.800000	695.00	-0.24	-0.10	0.00	0.00	0.00	0.25	0.50	0.00	0.50	0.00	0.00	0.25	0.25	0.00	0.00	0.00	0.25	0.25	0.196289	0.307129	1.654785	26.880001	-491.540009	138.460007	25.00	0.00	0.00
2.34	9.75	11.25	5.75	8.75	7.00	7.75	1.00	4.50	0.50	0.50	0.25	0.50	1.50	0.00	0.00	0.25	-0.154297	0.034668	0.953613	-26.950001	31.219999	-3.290000	643.00	-0.22	-0.11	0.00	0.25	0.00	0.25	0.50	0.00	0.50	0.00	0.00	0.25	0.00	0.00	0.00	0.00	0.00	0.00	-0.085449	0.128418	1.600586	45.080002	-501.059998	126.209999	21.00	0.00	0.00
2.35	8.50	9.50	5.00	8.00	6.50	7.50	1.00	4.75	0.75	0.50	0.25	0.50	1.75	0.25	0.00	0.50	-0.151855	0.015625	1.009766	-21.210001	29.190001	-3.220000	602.00	-0.20	-0.11	0.00	0.00	0.00	0.50	0.50	0.00	0.25	0.00	0.00	0.25	0.25	0.00	0.00	0.00	0.00	0.25	-0.308105	-0.018066	1.578613	55.299999	-502.040009	105.279999	21.00	0.00	0.00
2.36	6.50	8.00	4.00	7.00	6.00	7.25	1.00	5.00	0.50	0.50	0.50	0.75	1.75	0.25	0.00	0.50	-0.121094	0.023438	0.984375	-12.110000	25.549999	-3.360000	543.00	-0.19	-0.13	0.00	0.50	0.25	0.25	0.25	0.00	0.50	0.00	0.00	0.50	0.25	0.00	0.25	0.00	0.00	0.00	-0.499512	-0.084961	1.580078	62.090000	-499.519989	80.989998	30.00	0.00	0.00
2.37	5.50	7.00	3.25	6.25	5.75	7.25	1.00	5.25	0.75	0.75	0.50	0.75	2.25	0.25	0.00	0.75	-0.124023	0.060547	0.964844	-7.000000	25.410000	-4.550000	520.00	-0.17	-0.14	0.25	0.00	0.00	0.50	0.25	0.00	0.50	0.00	0.00	0.25	0.25	0.00	0.00	0.00	0.00	0.00	-0.623047	-0.038086	1.780762	72.660004	-495.670013	54.599998	24.00	0.00	0.00
2.38	4.75	6.00	2.75	5.50	5.25	6.75	1.00	5.25	1.00	0.50	0.75	0.75	2.50	0.75	0.00	0.75	-0.175293	0.061035	0.985840	-3.920000	26.320000	-7.280000	488.00	-0.14	-0.14	0.25	0.00	0.00	0.25	0.50	0.00	0.25	0.00	0.00	0.25	0.25	0.00	0.25	0.00	0.00	0.00	-0.699707	0.043457	2.048340	89.180000	-499.029999	28.420000	22.00	0.00	0.00
2.39	3.50	5.25	2.00	4.50	4.75	6.50	1.00	5.25	1.50	0.75	1.00	1.25	3.00	1.00	0.00	1.25	-0.196777	0.051758	0.975098	-3.430000	29.120001	-8.680000	467.00	-0.11	-0.15	0.25	0.00	0.25	0.25	0.50	0.00	0.25	0.00	0.00	0.50	0.25	0.00	0.00	0.00	0.00	0.25	-0.795898	0.099609	2.067383	104.300003	-507.080017	7.840000	27.00	0.00	0.00
2.40	3.00	5.00	1.75	4.00	3.75	5.75	1.00	5.25	1.25	0.75	1.25	1.75	3.50	1.75	0.50	1.25	-0.226562	0.041504	0.972168	-0.140000	33.459999	-10.290000	452.00	-0.08	-0.16	0.25	0.00	0.00	0.25	0.50	0.00	0.50	0.00	0.00	0.25	0.00	0.00	0.00	0.00	0.25	0.00	-0.868164	0.240234	1.973633	112.000000	-505.470001	-1.960000	24.00	0.00	0.00
2.41	2.25	3.50	1.25	3.50	3.00	5.00	1.00	5.25	2.25	1.25	1.75	2.00	4.00	2.75	0.75	1.75	-0.180664	0.015625	0.969727	6.020000	40.110001	-12.530000	448.00	-0.02	-0.15	0.00	0.00	0.00	0.25	0.50	0.00	0.50	0.00	0.00	0.25	0.00	0.00	0.00	0.00	0.00	0.00	-1.004883	0.720703	2.401855	138.250000	-477.330017	24.500000	18.00	0.00	0.00
2.42	2.00	3.25	0.50	3.25	2.25	4.00	1.00	4.75	2.25	1.25	2.00	3.00	5.00	4.25	1.00	2.50	-0.195801	0.083496	1.009277	12.670000	49.000000	-11.620000	446.00	0.03	-0.15	0.00	0.00	0.00	0.25	0.25	0.00	0.25	0.00	0.00	0.25	0.00	0.00	0.00	0.00	0.00	0.00	-1.109863	0.653809	2.576172	157.639999	-467.320007	61.040001	12.00	0.00	0.00
2.43	1.50	2.50	0.75	2.50	1.50	3.00	0.75	4.75	3.00	1.75	2.75	3.75	5.75	6.75	1.25	3.75	-0.231445	0.009766	0.955566	27.370001	60.130001	-11.270000	474.00	0.09	-0.14	0.25	0.25	0.00	0.25	0.50	0.00	0.50	0.25	0.00	0.25	0.00	0.00	0.00	0.00	0.00	0.00	-1.469727	0.545898	2.562500	162.750000	-455.910004	103.809998	27.00	0.00	0.00
2.44	1.25	2.00	0.75	2.50	1.25	2.50	0.50	4.25	3.50	2.00	3.25	5.25	6.00	8.50	1.75	5.00	-0.147461	0.132324	1.023438	56.840000	80.849998	-12.880000	506.00	0.12	-0.13	0.00	0.00	0.00	0.50	0.75	0.00	0.25	0.00	0.00	0.25	0.00	0.00	0.25	0.00	0.00	0.00	-1.808105	0.416992	2.630859	164.919998	-439.600006	142.240005	22.00	0.00	0.00
2.45	1.25	1.50	0.75	1.75	1.00	2.00	0.25	3.50	4.00	2.25	3.75	6.25	6.25	10.00	2.50	6.00	-0.275391	-0.021484	1.065430	85.610001	116.760002	-13.370000	523.00	0.16	-0.11	0.00	0.00	0.00	0.00	0.50	0.00	0.25	0.00	0.00	0.00	0.00	0.00	0.00	0.00	0.25	0.00	-2.093750	0.237305	2.811523	183.050003	-428.399994	165.339996	12.00	0.00	0.00
2.46	1.00	1.50	0.50	2.00	0.75	1.50	0.25	3.00	4.25	2.25	5.00	7.00	6.75	11.75	4.50	6.75	-0.334473	0.090332	0.923340	93.379997	141.259995	-10.920000	574.00	0.19	-0.11	0.00	0.00	0.00	0.25	0.25	0.00	0.25	0.00	0.00	0.00	0.00	0.00	0.00	0.00	0.00	0.00	-2.389648	0.021484	2.949707	216.930008	-429.730011	170.589996	9.00	0.00	0.00
2.47	1.00	1.00	0.25	1.50	0.75	1.00	0.00	2.50	4.25	2.50	5.50	7.00	7.00	13.75	5.50	8.00	-0.351074	0.128906	1.033203	83.019997	163.729996	-5.880000	588.00	0.22	-0.10	0.00	0.00	0.00	0.50	0.00	0.00	0.25	0.00	0.00	0.25	0.00	0.25	0.00	0.00	0.00	0.00	-2.835449	-0.229980	2.934570	256.480011	-429.100006	165.410004	15.00	0.00	0.00
2.48	0.50	0.25	0.00	1.50	0.75	0.50	0.00	1.75	4.50	3.00	6.00	8.00	7.50	15.75	6.50	9.00	-0.351074	0.128906	1.033203	83.019997	163.729996	-5.880000	618.00	0.25	-0.09	0.00	0.00	0.00	0.50	0.25	0.00	0.25	0.00	0.00	0.25	0.00	0.00	0.00	0.00	0.00	0.00	-3.472168	-0.444824	2.837891	271.390015	-409.290009	159.600006	15.00	0.00	0.00
2.49	0.25	0.25	0.00	1.25	0.50	0.75	0.00	1.75	4.50	3.25	7.00	8.00	7.50	17.50	7.75	10.25	-0.374512	0.222168	1.107422	74.410004	214.759995	-10.150000	661.00	0.26	-0.09	0.00	0.00	0.25	0.25	0.25	0.00	0.25	0.00	0.00	0.25	0.00	0.00	0.00	0.00	0.00	0.00	-4.264648	-0.548340	2.664551	236.250000	-368.549988	160.649994	15.00	0.00	0.00
2.50	0.25	0.25	0.00	0.75	0.75	0.50	0.00	1.50	5.00	3.75	7.00	8.25	7.00	19.50	8.75	11.50	-0.416016	0.288574	1.230957	67.340004	246.820007	-17.360001	696.00	0.28	-0.07	0.00	0.00	0.00	0.50	0.25	0.00	0.25	0.00	0.00	0.00	0.00	0.00	0.00	0.00	0.00	0.00	-4.967773	-0.580078	1.876465	169.399994	-315.769989	165.550003	12.00	0.00	0.00
2.51	0.00	0.50	0.00	0.75	0.50	0.50	0.00	1.00	5.25	3.75	7.00	8.00	6.75	21.00	9.75	12.25	-0.513672	0.280273	1.117676	56.980000	278.459991	-28.630001	711.00	0.29	-0.07	0.00	0.00	0.00	0.25	0.25	0.00	0.25	0.00	0.00	0.00	0.00	0.00	0.25	0.00	0.00	0.00	-5.362305	-0.541504	1.096680	109.900002	-259.910004	155.960007	11.00	0.00	0.00
2.52	0.25	0.50	0.00	0.75	0.75	0.25	0.00	1.00	5.25	4.00	6.75	8.00	6.25	22.50	10.50	13.50	-0.510254	0.348145	1.275879	42.490002	305.059998	-41.720001	737.00	0.29	-0.06	0.00	0.00	0.00	0.25	0.25	0.00	0.25	0.00	0.00	0.00	0.00	0.00	0.25	0.00	0.00	0.00	-5.522461	-0.625000	0.285645	87.150002	-195.300003	120.400002	11.00	0.00	0.00
2.53	0.25	0.25	0.00	0.25	0.50	0.25	0.00	0.75	5.50	4.00	6.25	7.25	5.75	23.50	11.50	14.25	-0.520020	0.168945	1.074219	28.910000	332.989990	-51.170002	731.00	0.31	-0.05	0.00	0.00	0.00	1.25	0.75	0.00	0.25	0.00	0.00	0.00	0.00	0.00	0.00	0.00	0.00	0.00	-5.463867	-0.677246	0.106445	80.430000	-126.489998	67.550003	26.00	0.00	0.00
2.54	0.25	0.25	0.00	0.50	0.50	0.00	0.00	0.75	5.25	4.25	5.50	6.75	5.00	24.25	12.25	15.00	-0.730957	0.212891	1.176758	17.990000	361.970001	-52.570000	729.00	0.31	-0.04	0.00	0.00	0.00	0.25	0.25	0.00	0.25	0.00	0.00	0.00	0.00	0.00	0.25	0.00	0.00	0.00	-5.125000	-0.568359	0.020996	51.660000	-64.889999	31.010000	11.00	0.00	0.00
2.55	0.00	0.00	0.00	0.25	0.75	0.25	0.00	0.75	5.50	4.25	5.00	5.75	4.25	24.50	12.75	15.25	-0.739258	0.208008	1.060547	15.330000	399.559998	-52.360001	717.00	0.32	-0.03	0.00	0.00	0.00	0.50	0.25	0.00	0.25	0.00	0.00	0.00	0.00	0.00	0.00	0.00	0.00	0.00	-5.006836	-0.216797	0.148438	15.890000	-12.670000	27.790001	12.00	0.00	0.00
2.56	0.00	0.00	0.00	0.00	0.50	0.25	0.00	0.50	5.25	4.50	4.75	5.50	3.75	24.25	12.50	15.00	-0.831055	0.147949	1.181152	-2.450000	439.600006	-55.720001	691.00	0.33	-0.03	0.00	0.00	0.00	1.00	0.25	0.00	0.25	0.00	0.00	0.00	0.00	0.00	0.00	0.00	0.00	0.00	-4.701660	0.023926	0.059082	-10.360000	32.830002	39.619999	17.00	0.00	0.00
2.57	0.00	0.00	0.00	0.00	0.50	0.00	0.00	0.50	5.00	4.00	4.00	5.00	3.00	23.75	12.00	14.50	-1.278809	0.415039	1.838867	-7.490000	486.080017	-56.070000	648.00	0.33	-0.02	1.00	2.00	0.25	2.00	0.25	0.00	0.25	0.25	0.00	0.00	0.00	0.00	0.00	0.00	0.00	0.00	-4.134766	0.088867	-0.047852	-7.910000	82.389999	45.360001	64.00	-0.30	-0.11
2.58	0.00	0.00	0.00	0.00	0.50	0.00	0.00	0.50	3.75	3.50	3.25	4.25	3.00	23.00	11.50	13.00	-1.228027	0.608887	1.806641	22.540001	532.000000	-52.709999	591.00	0.33	-0.02	4.25	8.25	1.25	4.50	0.25	0.00	0.25	0.00	0.00	0.00	0.00	0.00	0.50	0.00	0.00	0.00	-5.444336	-1.129395	1.391113	-125.930000	241.149994	39.270000	194.00	-0.34	-0.10
2.59	0.00	0.00	0.00	0.00	0.50	0.00	0.00	0.25	3.00	2.25	2.25	3.50	2.00	21.25	10.00	10.25	-1.708008	0.852539	2.503418	46.970001	568.609985	-62.790001	492.00	0.34	-0.01	12.00	15.50	1.75	6.00	0.00	0.50	0.25	0.25	0.00	0.00	0.00	0.00	0.50	0.00	0.00	0.00	0.307617	-0.039062	0.936523	-163.169998	305.760010	13.160000	370.00	-0.36	-0.07
2.60	0.00	0.00	0.00	0.00	0.50	0.25	0.00	0.25	2.75	1.25	1.25	2.25	1.50	19.00	8.50	8.00	-2.433594	0.863281	3.801758	95.690002	598.919983	-70.769997	406.00	0.35	0.01	17.50	18.00	2.75	7.75	0.50	1.50	0.25	0.50	0.00	0.00	0.00	0.00	1.25	0.00	0.00	0.25	0.352539	0.720215	4.395996	-188.860001	413.839996	1.120000	508.00	-0.35	-0.07
2.61	0.00	0.00	0.00	0.00	0.50	0.00	0.00	0.00	2.00	1.00	0.75	1.50	1.50	15.50	6.75	6.00	-2.462402	0.974121	4.311035	154.979996	625.729980	-79.940002	314.00	0.35	0.01	20.25	19.50	4.50	8.75	0.75	2.25	0.00	0.75	0.00	0.00	0.25	0.25	1.50	0.00	0.00	0.00	-1.874023	-1.990234	4.435059	-178.850006	459.970001	8.400000	598.00	-0.34	-0.07
2.62	0.00	0.00	0.00	0.00	0.50	0.00	0.00	0.00	1.25	0.50	0.50	1.00	1.00	12.00	5.25	4.25	-2.080566	0.836426	4.883301	239.470001	633.640015	-83.860001	232.00	0.36	0.02	21.00	19.50	6.00	9.50	1.25	3.00	0.25	0.75	0.00	0.00	0.00	0.00	1.50	0.00	0.00	0.00	-0.409668	-0.969238	3.809570	-164.570007	344.260010	-53.689999	643.00	-0.33	-0.06
2.63	0.00	0.00	0.00	0.00	0.50	0.25	0.00	0.00	0.75	0.50	0.50	0.50	0.75	7.75	3.00	2.00	-1.586914	0.772949	5.763672	303.170013	612.849976	-90.580002	149.00	0.34	0.02	21.25	19.00	7.50	10.00	1.75	3.75	0.25	0.75	0.00	0.00	0.00	0.25	1.50	0.00	0.00	0.25	-0.426270	0.510254	1.415527	-114.520004	248.850006	-81.199997	680.00	-0.32	-0.06
2.64	0.50	0.00	0.00	0.00	0.75	0.25	0.00	0.00	0.50	0.25	0.00	0.00	0.50	3.50	1.00	1.00	-0.005859	0.237793	5.647461	307.089996	548.590027	-161.770004	75.00	0.24	0.04	21.00	18.75	8.50	10.50	2.75	4.75	0.50	1.00	0.00	0.00	0.00	0.25	1.50	0.00	0.00	0.00	-0.463867	0.928223	2.086914	-100.870003	218.330002	-52.150002	720.00	-0.31	-0.06
2.65	0.50	0.50	0.25	0.00	1.00	0.00	0.25	0.00	0.25	0.25	0.00	0.00	0.00	1.50	0.75	0.50	3.645020	-0.356934	5.487305	241.009995	409.500000	-289.170013	57.00	0.09	0.06	20.75	18.50	9.00	11.00	5.25	6.00	0.50	1.50	0.00	0.00	0.00	0.00	1.75	0.00	0.00	0.00	-0.398438	-0.048340	2.256348	-120.680000	174.089996	-21.840000	775.00	-0.30	-0.07
2.66	0.00	0.25	0.00	0.00	0.75	0.00	0.00	0.00	0.25	0.25	0.00	0.00	0.00	1.00	0.50	0.50	0.730469	2.099121	5.996582	83.650002	171.850006	-347.269989	33.00	0.00	0.00	20.50	18.25	9.50	11.25	5.75	7.00	0.75	1.75	0.00	0.00	0.00	0.25	1.50	0.00	0.00	0.00	-0.382812	-0.069824	1.922363	-114.660004	124.389999	-20.160000	802.00	-0.29	-0.07
2.67	0.25	0.25	0.25	0.25	1.25	0.00	0.25	0.00	0.25	0.50	0.00	0.00	0.25	0.75	0.25	0.25	0.944336	1.787598	6.062500	63.209999	-96.110001	-254.520004	49.00	0.00	0.00	20.25	18.00	9.75	11.25	6.25	7.25	0.75	2.00	0.00	0.00	0.00	0.00	1.75	0.00	0.00	0.00	-0.208008	0.160156	1.283691	-89.040001	73.360001	-16.100000	812.00	-0.29	-0.07
2.68	0.00	0.50	0.00	0.00	0.75	0.00	0.25	0.00	0.25	0.00	0.00	0.00	0.00	0.50	0.25	0.25	1.339355	1.829102	2.591797	-131.250000	-276.290009	-131.460007	28.00	0.00	0.00	19.50	17.75	9.50	11.25	6.75	7.50	0.75	2.00	0.00	0.00	0.00	0.25	1.25	0.00	0.00	0.00	-0.164551	0.099609	1.141113	-65.379997	44.310001	-4.060000	806.00	-0.29	-0.07
2.69	0.25	0.25	0.25	0.00	0.75	0.00	0.25	0.00	0.00	0.25	0.00	0.00	0.00	0.25	0.00	0.25	1.339355	1.829102	2.591797	-131.250000	-276.290009	-131.460007	26.00	0.00	0.00	19.50	17.25	9.50	11.25	6.75	7.50	0.75	2.00	0.00	0.25	0.25	0.25	1.50	0.00	0.00	0.00	-0.147949	-0.004395	1.112305	-39.270000	26.670000	0.280000	808.00	-0.28	-0.07
2.70	0.25	0.50	0.25	0.00	1.00	0.00	0.25	0.00	0.25	0.00	0.00	0.00	0.00	0.00	0.00	0.00	0.952637	1.618164	2.215332	-82.110001	-361.619995	-44.869999	28.00	0.00	0.00	18.25	16.75	9.25	11.00	6.50	7.50	1.00	2.00	0.00	0.00	0.25	0.00	1.25	0.00	0.00	0.00	-0.149902	0.055664	1.034180	-19.460001	15.470000	-0.560000	779.00	-0.28	-0.07
2.71	0.25	0.00	0.25	0.00	1.00	0.00	0.25	0.00	0.00	0.25	0.00	0.00	0.00	0.00	0.00	0.25	0.812988	1.213867	2.080078	-46.900002	-409.149994	-5.600000	24.00	0.00	0.00	17.75	16.25	9.00	11.00	6.50	7.50	0.75	2.00	0.00	0.00	0.00	0.00	1.25	0.00	0.00	0.25	-0.119141	0.063965	0.989746	-10.010000	12.600000	-0.560000	761.00	-0.28	-0.07
2.72	0.00	0.00	0.25	0.00	1.00	0.00	0.25	0.00	0.25	0.00	0.00	0.00	0.00	0.00	0.00	0.25	0.520020	0.929688	1.911133	-51.799999	-452.269989	27.580000	22.00	0.00	0.00	16.75	15.75	8.50	10.50	6.00	7.25	0.75	2.00	0.00	0.25	0.25	0.25	1.00	0.00	0.00	0.25	-0.102051	-0.026367	0.977051	-5.600000	11.060000	-1.540000	733.00	-0.28	-0.07
2.73	0.25	0.25	0.25	0.00	1.00	0.00	0.25	0.00	0.25	0.25	0.00	0.00	0.00	0.00	0.25	0.25	0.277832	0.749512	1.683594	-74.970001	-485.940002	49.770000	32.00	0.00	0.00	15.50	14.75	8.25	10.00	5.75	7.00	0.75	2.00	0.25	0.50	0.25	0.25	1.00	0.00	0.00	0.00	-0.083984	0.056641	1.004883	-0.490000	10.150000	-3.640000	701.00	-0.27	-0.07
2.74	0.25	0.25	0.25	0.00	1.00	0.00	0.25	0.00	0.25	0.25	0.25	0.00	0.00	0.00	0.00	0.00	-0.028320	0.678711	1.471680	-80.010002	-507.920013	59.570000	31.00	0.00	0.00	13.50	13.50	7.50	9.75	5.50	6.75	0.75	2.00	0.25	0.25	0.00	0.25	1.00	0.25	0.00	0.00	-0.066895	0.125977	0.956543	0.630000	10.640000	-3.570000	650.00	-0.27	-0.08
2.75	0.25	0.25	0.25	0.00	1.00	0.25	0.25	0.00	0.25	0.00	0.00	0.00	0.00	0.00	0.00	0.00	-0.291504	0.615234	1.343262	-50.610001	-521.429993	59.150002	28.00	0.00	0.00	12.00	12.00	6.75	9.00	5.25	6.25	0.75	2.00	0.00	0.25	0.00	0.50	1.00	0.00	0.00	0.25	-0.086914	0.105957	0.952637	-3.780000	14.420000	-2.240000	594.00	-0.27	-0.08
2.76	0.25	0.25	0.25	0.00	1.00	0.00	0.25	0.00	0.00	0.00	0.00	0.00	0.00	0.00	0.00	0.00	-0.486328	0.472656	1.300781	-1.330000	-523.950012	50.119999	22.00	0.00	0.00	9.75	10.75	6.25	8.50	5.00	6.00	0.75	2.00	0.25	0.50	0.00	0.50	1.50	0.25	0.00	0.00	-0.088379	0.112305	0.960938	-9.800000	14.770000	-1.050000	554.00	-0.25	-0.09
2.77	0.25	0.25	0.00	0.00	0.75	0.00	0.25	0.00	0.00	0.25	0.00	0.00	0.00	0.00	0.00	0.00	-0.603027	0.279785	1.338867	38.570000	-517.789978	34.720001	20.00	0.00	0.00	8.50	9.50	5.50	8.00	4.75	6.00	0.75	2.00	0.25	0.50	0.25	0.25	1.75	0.25	0.00	0.00	-0.055176	0.142090	0.934082	-21.280001	14.770000	-0.490000	515.00	-0.24	-0.10
2.78	0.25	0.50	0.50	0.25	1.00	0.00	0.25	0.00	0.00	0.00	0.00	0.00	0.00	0.00	0.00	0.00	-0.736328	0.231445	1.509277	54.950001	-508.410004	18.969999	30.00	0.00	0.00	7.75	8.25	4.75	7.50	4.50	5.50	1.00	2.25	0.50	0.50	0.50	0.00	1.50	0.25	0.00	0.00	-0.092773	0.075684	0.990723	-22.750000	10.920000	-0.700000	482.00	-0.23	-0.09
2.79	0.25	0.50	0.25	0.00	1.00	0.00	0.25	0.00	0.00	0.00	0.00	0.00	0.00	0.00	0.00	0.00	-0.795410	0.379883	1.740234	62.020000	-500.989990	10.080000	25.00	0.00	0.00	6.25	7.50	4.00	6.50	4.00	5.25	1.00	2.25	0.75	0.75	0.25	0.50	2.25	0.25	0.00	0.25	-0.123047	0.066406	0.936523	-19.389999	6.650000	-1.890000	449.00	-0.20	-0.10
2.80	0.00	0.50	0.50	0.00	1.00	0.00	0.25	0.00	0.00	0.00	0.00	0.00	0.00	0.00	0.00	0.00	-0.830566	0.556152	1.988281	72.239998	-500.920013	13.510000	25.00	0.00	0.00	5.25	6.25	3.00	5.75	4.00	5.00	1.00	2.50	0.75	0.75	0.50	0.75	2.50	0.50	0.00	0.50	-0.123047	0.073730	0.987793	-19.040001	5.880000	-3.780000	419.00	-0.17	-0.11
2.81	0.25	0.00	0.25	0.00	1.00	0.25	0.25	0.00	0.00	0.00	0.25	0.00	0.00	0.00	0.00	0.00	-0.843262	0.672363	2.147949	84.000000	-504.279999	30.799999	25.00	0.00	0.00	3.75	5.25	2.50	5.50	3.75	4.25	1.00	2.75	1.25	0.75	1.00	1.00	2.75	0.75	0.00	0.75	-0.159180	0.076660	1.011719	-11.130000	4.900000	-6.090000	399.00	-0.13	-0.12
2.82	0.50	0.25	0.25	0.00	1.00	0.00	0.25	0.00	0.00	0.00	0.00	0.00	0.00	0.00	0.00	0.00	-0.911133	0.726074	2.207520	88.480003	-503.230011	58.099998	25.00	0.00	0.00	3.00	4.75	1.50	4.75	3.25	3.75	1.00	2.75	1.75	1.00	1.00	1.00	3.25	1.00	0.25	1.25	-0.167480	0.058105	0.995117	-6.160000	7.000000	-7.770000	378.00	-0.09	-0.12
2.83	0.25	0.25	0.25	0.00	0.75	0.00	0.25	0.00	0.00	0.00	0.00	0.00	0.00	0.00	0.00	0.00	-1.029297	0.748535	2.266113	94.220001	-494.690002	89.669998	20.00	0.00	0.00	2.50	3.75	1.50	4.75	2.75	3.50	1.25	2.75	2.25	1.50	1.25	1.25	3.50	1.75	0.50	1.75	-0.179199	0.038086	0.979980	-0.770000	11.270000	-10.080000	390.00	-0.05	-0.11
2.84	0.25	0.50	0.00	0.00	1.00	0.00	0.25	0.00	0.00	0.00	0.00	0.00	0.00	0.00	0.00	0.00	-1.230469	0.846680	2.428223	103.669998	-480.830017	124.389999	22.00	0.00	0.00	1.50	2.50	0.75	3.75	2.00	2.75	1.25	2.75	2.75	1.75	1.75	1.50	4.50	2.25	0.75	2.50	-0.128906	0.124023	1.008301	3.290000	15.540000	-7.420000	369.00	0.02	-0.12
2.85	0.25	0.00	0.25	0.00	0.75	0.00	0.25	0.00	0.00	0.00	0.00	0.00	0.00	0.00	0.00	0.00	-1.359375	0.809570	2.639160	112.139999	-464.730011	157.919998	17.00	0.00	0.00	1.75	2.25	0.50	3.75	1.50	2.50	1.00	2.75	3.75	2.00	2.50	2.00	5.00	3.00	0.75	3.00	-0.193359	-0.027344	1.033691	8.120000	20.160000	-8.190000	396.00	0.05	-0.11
2.86	0.00	0.00	0.25	0.00	1.00	0.00	0.25	0.00	0.00	0.00	0.00	0.00	0.00	0.00	0.00	0.00	-1.654297	0.801758	2.807129	116.690002	-450.589996	187.880005	18.00	0.00	0.00	1.00	1.50	1.00	3.25	1.25	2.25	1.00	3.00	4.50	3.00	3.00	2.75	5.50	4.75	1.00	4.25	-0.221191	0.099121	0.937988	15.330000	28.630001	-14.280000	442.00	0.10	-0.10
2.87	0.25	0.00	0.25	0.25	1.00	0.00	0.25	0.00	0.00	0.00	0.00	0.00	0.00	0.00	0.00	0.00	-1.979492	0.810059	2.937500	112.910004	-437.010010	211.190002	23.00	0.00	0.00	1.00	1.00	0.50	3.25	0.75	2.00	1.00	3.00	5.50	4.00	3.75	3.50	6.25	6.25	1.75	5.50	-0.198730	0.139648	1.022461	27.790001	47.389999	-17.290001	497.00	0.14	-0.09
2.88	0.00	0.50	0.25	0.00	0.75	0.00	0.25	0.00	0.00	0.00	0.00	0.00	0.00	0.00	0.00	0.00	-2.341797	0.906738	2.982910	102.059998	-426.160004	225.680008	19.00	0.00	0.00	0.75	1.25	0.25	3.00	0.50	1.75	0.75	2.75	6.50	4.75	6.00	4.50	7.00	8.25	1.75	6.25	-0.254395	-0.017578	1.019043	39.759998	71.959999	-19.110001	561.00	0.17	-0.09
2.89	0.00	0.25	0.25	0.00	0.75	0.00	0.00	0.00	0.00	0.00	0.00	0.00	0.00	0.00	0.00	0.00	-2.723633	0.789062	2.826172	117.739998	-418.320007	234.570007	13.00	0.00	0.00	0.50	0.75	0.00	2.75	0.25	1.25	0.75	2.75	7.50	6.50	7.50	5.75	7.50	10.00	2.50	7.25	-0.174805	0.122559	1.041016	52.779999	96.599998	-22.469999	633.00	0.20	-0.08
2.90	0.25	0.00	0.00	0.00	0.75	0.00	0.25	0.00	0.00	0.00	0.00	0.00	0.00	0.00	0.00	0.25	-4.251465	0.140625	2.530762	232.960007	-365.679993	236.809998	16.00	0.00	0.00	0.75	0.50	0.00	2.25	0.25	1.25	0.50	2.25	7.75	7.50	7.75	6.25	7.75	12.75	3.00	8.25	-0.225586	0.129883	1.109863	65.029999	122.989998	-25.340000	674.00	0.22	-0.07
2.91	0.00	0.00	0.25	0.00	0.75	0.00	0.25	0.00	0.00	0.00	0.00	0.00	0.00	0.00	0.00	0.00	-5.064453	-0.205566	1.924805	201.110001	-308.279999	240.169998	15.00	0.00	0.00	0.75	0.50	0.00	2.50	0.25	1.00	0.25	2.25	8.00	7.75	8.50	7.50	8.00	15.25	3.75	9.25	-0.235840	0.152832	1.074707	74.059998	150.710007	-27.299999	734.00	0.23	-0.07
2.92	0.00	0.00	0.00	0.00	0.75	0.00	0.00	0.00	0.00	0.00	0.00	0.00	0.00	0.00	0.00	0.25	-5.515625	-0.254395	1.074219	113.820000	-242.199997	238.979996	10.00	0.00	0.00	0.50	0.25	0.00	2.75	0.00	0.75	0.00	2.00	8.25	8.25	8.75	7.75	8.25	18.00	5.50	10.25	-0.229492	0.155273	0.678711	60.549999	166.250000	-32.619999	782.00	0.25	-0.06
2.93	0.00	0.25	0.25	0.00	1.00	0.00	0.25	0.00	0.00	0.00	0.00	0.00	0.00	0.00	0.00	0.00	-5.677734	-0.185547	0.226074	45.430000	-170.800003	217.559998	20.00	0.00	0.00	0.75	0.25	0.00	1.75	0.00	0.50	0.00	1.75	8.75	8.25	9.00	7.75	8.00	20.50	6.50	11.50	-0.338379	0.202637	1.221680	55.930000	198.940002	-37.520000	813.00	0.26	-0.05
2.94	0.00	0.00	0.25	0.00	0.75	0.00	0.00	0.00	0.00	0.00	0.00	0.00	0.00	0.00	0.00	0.25	-5.677246	-0.094727	-0.359375	24.430000	-101.080002	168.839996	12.00	0.00	0.00	0.50	0.50	0.00	1.25	0.00	0.25	0.00	1.50	8.75	8.25	8.75	7.75	8.00	22.75	7.50	12.75	-0.357910	0.215332	1.197754	55.439999	237.649994	-41.369999	834.00	0.27	-0.04
2.95	0.00	0.00	0.00	0.00	0.75	0.00	0.00	0.00	0.00	0.00	0.00	0.00	0.00	0.00	0.00	0.00	-5.509277	0.031738	-0.485352	39.410000	-41.369999	107.379997	8.00	0.00	0.00	0.50	0.25	0.00	1.00	0.00	0.00	0.00	1.50	8.75	8.25	8.50	7.50	7.50	24.75	8.25	13.50	-0.416504	0.230469	1.193359	47.599998	268.100006	-48.509998	846.00	0.28	-0.04
2.96	0.00	0.00	0.25	0.25	1.00	0.00	0.00	0.00	0.00	0.00	0.00	0.00	0.00	0.00	0.00	0.00	-5.662598	0.036133	-0.232910	66.849998	8.260000	59.220001	17.00	0.00	0.00	0.00	0.00	0.00	1.50	0.00	0.00	0.00	1.25	9.00	8.00	8.25	7.00	7.00	26.25	8.75	14.25	-0.497559	0.201172	1.367676	31.500000	299.739990	-55.580002	851.00	0.29	-0.03
2.97	0.00	0.00	0.00	0.00	0.75	0.00	0.00	0.00	0.00	0.00	0.00	0.00	0.00	0.00	0.00	0.00	-5.598633	-0.125000	-0.395508	60.270000	60.619999	25.270000	8.00	0.00	0.00	0.00	0.00	0.00	1.25	0.00	0.00	0.00	1.00	8.75	8.00	8.00	6.00	6.50	27.50	9.50	15.00	-0.857910	0.153320	1.039551	13.300000	336.980011	-63.560001	846.00	0.30	-0.02
2.98	0.25	0.25	0.25	0.00	0.75	0.00	0.00	0.00	0.00	0.00	0.00	0.00	0.00	0.00	0.00	0.00	-5.117188	0.049316	-0.301758	38.150002	124.529999	-1.190000	16.00	0.00	0.00	0.25	0.00	0.00	0.75	0.00	0.00	0.00	1.25	8.50	7.75	7.50	5.00	5.75	27.75	10.00	15.25	-0.607422	0.252930	1.242676	-0.420000	385.910004	-70.629997	827.00	0.30	-0.02
2.99	0.25	0.25	0.00	0.25	0.75	0.00	0.00	0.00	0.00	0.00	0.00	0.00	0.00	0.00	0.00	0.00	-4.265625	0.247070	0.298340	50.889999	175.279999	-26.250000	16.00	0.00	0.00	0.00	0.00	0.00	0.00	0.00	0.00	0.00	0.75	8.25	7.50	6.00	4.25	5.00	27.75	10.25	15.25	-0.801758	0.400879	1.762695	-23.170000	427.910004	-83.650002	775.00	0.32	-0.00
3.00	1.00	3.50	0.75	1.75	0.75	0.00	0.00	0.25	0.00	0.00	0.00	0.00	0.00	0.00	0.00	0.00	-1.744141	0.157715	-0.016113	44.939999	200.479996	-11.060000	82.00	-0.32	-0.11	0.00	0.00	0.00	0.00	0.00	0.00	0.00	0.50	7.50	7.25	5.00	3.00	4.00	27.25	10.00	14.75	-0.952637	0.572266	1.636719	-31.710001	541.520020	-110.459999	717.00	0.33	0.01
3.01	8.00	13.50	1.00	4.25	1.00	0.00	0.25	0.00	0.00	0.00	0.00	0.00	0.00	0.00	0.00	0.00	0.557129	0.749512	-0.150879	-37.660000	225.889999	27.719999	280.00	-0.37	-0.07	0.25	0.00	0.00	0.50	0.00	0.00	0.00	0.50	6.50	5.75	3.75	2.50	3.50	26.00	10.00	13.75	-1.438965	0.865723	2.068848	-10.010000	593.460022	-119.139999	658.00	0.33	0.01
3.02	18.50	24.00	2.00	5.50	1.25	0.50	0.00	0.25	0.00	0.00	0.00	0.00	0.00	0.00	0.00	0.00	0.962402	0.104980	0.254883	-13.090000	336.630005	17.360001	518.00	-0.38	-0.06	0.00	0.00	0.00	0.00	0.00	0.00	0.00	0.50	5.25	4.75	2.50	1.75	2.50	23.50	9.00	11.75	-1.844238	1.237793	3.144531	43.750000	639.030029	-124.040001	551.00	0.34	0.02
3.03	23.00	27.00	2.75	8.00	1.25	1.75	0.00	0.25	0.00	0.00	0.00	0.25	0.50	0.00	0.00	0.25	-2.092773	-0.084473	4.157715	-30.940001	542.849976	-22.400000	650.00	-0.36	-0.06	0.00	0.00	0.00	0.00	0.00	0.00	0.25	0.25	4.00	3.75	2.00	1.25	1.25	20.00	7.25	9.25	-2.076660	1.165039	3.954590	118.580002	682.289978	-125.580002	441.00	0.34	0.03
3.04	26.25	28.50	4.25	10.00	1.75	2.50	0.00	0.50	0.00	0.00	0.00	0.00	0.50	0.00	0.00	0.00	-0.821777	-0.109375	4.432129	-104.300003	362.950012	-125.720001	749.00	-0.36	-0.06	0.00	0.00	0.00	0.00	0.00	0.00	0.25	0.00	2.50	2.25	1.00	1.00	1.00	15.25	6.00	6.75	-1.789551	0.626465	5.067383	222.600006	697.690002	-123.900002	319.00	0.35	0.03
3.05	26.50	28.00	6.25	11.25	2.50	3.50	0.25	0.50	0.00	0.00	0.00	0.00	0.25	0.00	0.00	0.25	-0.821777	-0.109375	4.432129	-104.300003	362.950012	-125.720001	806.00	-0.35	-0.06	0.00	0.00	0.00	0.00	0.00	0.25	0.25	0.00	2.25	1.75	1.00	0.75	0.50	11.00	4.50	4.25	-1.808105	0.729004	6.096680	290.500000	670.950012	-127.470001	241.00	0.34	0.04
3.06	26.50	27.00	7.50	12.25	4.25	6.50	0.25	1.25	0.00	0.00	0.00	0.25	0.50	0.00	0.00	0.25	-0.258301	1.043457	0.951172	-73.919998	246.610001	-114.660004	889.00	-0.33	-0.07	0.00	0.00	0.00	0.00	0.00	0.00	0.25	0.00	1.25	1.25	1.00	0.50	0.25	6.50	2.50	2.00	-0.678223	-0.005371	6.712891	321.649994	614.880005	-164.990005	144.00	0.34	0.05
3.07	25.50	26.50	8.00	13.00	5.25	7.25	0.50	1.75	0.00	0.00	0.00	0.00	0.75	0.00	0.00	0.25	-0.753906	1.165039	2.068359	-175.000000	206.220001	-60.830002	918.00	-0.32	-0.07	0.00	0.00	0.25	0.25	0.00	0.00	0.25	0.00	1.00	0.75	0.50	0.25	0.50	2.25	1.25	1.25	2.233887	0.375977	6.164062	221.130005	472.500000	-267.470001	82.00	0.27	0.02
3.08	25.00	25.50	8.50	13.50	6.25	8.00	0.50	2.25	0.00	0.00	0.00	0.25	0.75	0.00	0.00	0.25	-0.214844	-0.194336	2.008301	-195.720001	144.130005	-23.520000	944.00	-0.31	-0.08	0.00	0.00	0.25	0.75	0.25	0.00	0.50	0.00	0.25	0.75	0.75	0.00	0.25	1.25	0.75	0.75	3.165527	0.736816	2.213867	14.140000	291.059998	-328.299988	65.00	0.17	-0.00
3.09	24.75	25.00	8.75	13.75	7.25	8.50	0.75	2.75	0.00	0.00	0.00	0.25	1.00	0.00	0.00	0.25	-0.214844	-0.331055	1.404785	-166.669998	86.029999	-22.400000	973.00	-0.30	-0.08	0.00	0.00	0.00	0.00	0.25	0.00	0.50	0.00	0.25	1.00	0.25	0.00	0.00	1.00	0.75	0.75	0.452637	2.787109	7.009766	-50.889999	-29.750000	-270.410004	47.00	0.00	0.00
3.10	23.75	24.25	9.00	13.75	7.75	8.75	1.00	3.25	0.00	0.00	0.00	0.00	1.25	0.25	0.00	0.25	-0.269531	0.309082	1.229492	-119.209999	52.430000	-19.950001	979.00	-0.29	-0.08	0.00	0.00	0.00	0.75	0.25	0.00	0.50	0.00	0.25	0.50	0.25	0.00	0.00	0.50	0.50	0.50	0.878906	1.137207	3.823242	-7.280000	-204.750000	-183.960007	42.00	0.00	0.00
3.11	23.00	22.75	8.75	13.50	8.25	9.00	1.00	3.25	0.25	0.00	0.25	0.00	1.25	0.00	0.00	0.25	-0.247070	-0.068359	1.129883	-43.680000	21.910000	-4.270000	964.00	-0.28	-0.08	0.00	0.00	0.00	0.25	0.25	0.00	0.50	0.25	0.50	0.50	0.00	0.00	0.00	0.25	0.50	0.50	1.158691	1.495117	2.249023	-35.560001	-271.809998	-145.039993	39.00	0.00	0.00
3.12	22.00	22.25	8.50	13.25	8.25	9.00	1.00	3.25	0.25	0.25	0.25	0.25	1.00	0.00	0.00	0.25	-0.228027	0.079590	1.023438	-16.240000	3.990000	-4.270000	947.00	-0.28	-0.08	0.00	0.00	0.00	0.00	0.50	0.00	0.50	0.00	0.00	0.50	0.00	0.00	0.00	0.00	0.25	0.25	1.061523	1.813477	2.189453	-33.320000	-303.869995	-101.150002	22.00	0.00	0.00
3.13	20.75	21.00	8.25	12.75	8.25	8.75	1.00	3.25	0.50	0.25	0.25	0.25	1.00	0.25	0.00	0.25	-0.180176	0.015625	1.015137	-2.030000	7.560000	-0.560000	917.00	-0.27	-0.08	0.00	0.00	0.00	0.00	0.25	0.00	0.50	0.00	0.25	0.25	0.00	0.00	0.00	0.00	0.50	0.25	0.824219	1.746094	2.274414	19.110001	-335.019989	-45.150002	23.00	0.00	0.00
3.14	20.25	20.00	8.00	12.25	8.00	8.50	1.00	3.00	0.25	0.25	0.00	0.00	1.00	0.25	0.00	0.25	-0.160156	-0.013184	0.989746	7.280000	5.950000	-0.700000	876.00	-0.28	-0.08	0.00	0.00	0.00	0.00	0.50	0.00	0.25	0.00	0.00	0.25	0.25	0.00	0.00	0.25	0.00	0.25	0.974121	1.304199	2.071777	47.180000	-379.260010	16.450001	18.00	0.00	0.00
3.15	18.00	18.75	7.50	11.50	7.75	8.25	1.00	3.00	0.25	0.00	0.00	0.00	1.00	0.25	0.00	0.25	-0.086426	0.075684	0.899414	9.170000	6.510000	-2.240000	820.00	-0.28	-0.08	0.00	0.00	0.00	0.25	0.25	0.00	0.50	0.00	0.00	0.00	0.00	0.00	0.00	0.00	0.00	0.25	0.673828	1.039062	1.906738	35.700001	-427.839996	71.610001	14.00	0.00	0.00
3.16	16.50	16.75	7.00	10.50	7.50	8.00	0.75	2.75	0.25	0.25	0.00	0.00	0.75	0.25	0.00	0.25	-0.109863	0.073730	0.930176	5.040000	13.650000	-2.310000	757.00	-0.27	-0.08	0.00	0.25	0.50	0.00	0.50	0.00	0.25	0.00	0.00	0.25	0.00	0.00	0.00	0.00	0.00	0.00	0.391602	0.795410	1.589844	26.740000	-461.440002	110.250000	20.00	0.00	0.00
3.17	13.00	14.00	6.25	9.50	7.00	7.50	0.75	2.75	0.00	0.00	0.00	0.00	0.75	0.25	0.00	0.25	-0.126465	0.045898	0.940430	4.970000	19.180000	-2.380000	659.00	-0.27	-0.09	0.00	0.00	0.25	0.25	0.25	0.00	0.25	0.00	0.00	0.00	0.50	0.00	0.00	0.00	0.00	0.25	0.180176	0.545898	1.320312	39.759998	-475.299988	127.959999	19.00	0.00	0.00
3.18	10.25	11.25	5.50	8.25	6.50	7.00	0.75	2.50	0.25	0.25	0.25	0.25	0.75	0.25	0.00	0.25	-0.117188	0.069336	0.915039	2.030000	23.870001	-2.380000	580.00	-0.25	-0.09	0.00	0.00	0.00	0.25	0.50	0.00	0.25	0.00	0.00	0.25	0.00	0.00	0.00	0.00	0.00	0.25	-0.022949	0.324707	1.215332	63.700001	-475.790009	129.220001	16.00	0.00	0.00
3.19	8.25	9.50	4.50	7.50	6.00	6.50	0.75	2.75	0.00	0.25	0.25	0.25	1.00	0.00	0.00	0.25	-0.113281	0.003906	0.935547	-5.180000	29.889999	-3.220000	513.00	-0.24	-0.10	0.00	0.00	0.50	0.00	0.25	0.00	0.50	0.00	0.00	0.50	0.25	0.00	0.00	0.00	0.00	0.25	-0.133301	0.092285	1.181152	82.949997	-466.970001	122.500000	25.00	0.00	0.00
3.20	6.75	8.00	3.75	6.75	5.25	6.00	0.75	2.50	0.00	0.50	0.25	0.25	1.25	0.25	0.00	0.25	-0.180176	0.028320	0.939941	-9.240000	33.459999	-5.390000	456.00	-0.22	-0.11	0.00	0.00	0.00	0.25	0.25	0.00	0.25	0.00	0.00	0.25	0.25	0.00	0.00	0.00	0.25	0.25	-0.196777	-0.074219	1.294434	97.019997	-457.309998	112.000000	18.00	0.00	0.00
3.21	5.75	6.75	3.25	5.75	5.00	5.50	0.75	2.50	0.25	0.50	0.25	0.50	1.50	0.25	0.00	0.25	-0.107910	0.051270	0.931641	-11.900000	36.889999	-6.230000	418.00	-0.21	-0.11	0.00	0.25	0.00	0.25	0.25	0.00	0.25	0.00	0.00	0.00	0.00	0.00	0.00	0.00	0.00	0.00	-0.324707	-0.369141	1.592285	127.120003	-454.230011	76.300003	12.00	0.00	0.00
3.22	4.75	6.25	2.50	5.00	4.50	5.25	0.75	2.75	0.75	0.50	0.50	0.75	1.50	0.75	0.00	0.50	-0.190430	0.067871	0.937988	-18.059999	35.700001	-6.300000	399.00	-0.17	-0.11	0.00	0.00	0.00	0.25	0.50	0.00	0.25	0.00	0.00	0.25	0.00	0.00	0.00	0.00	0.00	0.00	-0.368164	-0.499512	1.720215	138.949997	-454.860016	51.730000	15.00	0.00	0.00
3.23	3.50	5.25	2.00	4.50	4.25	4.75	1.00	2.75	1.00	0.75	0.75	0.75	2.00	0.75	0.00	0.75	-0.152832	0.057617	0.937012	-26.460001	33.250000	-6.580000	376.00	-0.14	-0.12	0.00	0.25	0.00	0.00	0.50	0.00	0.25	0.00	0.00	0.25	0.50	0.00	0.00	0.00	0.25	0.00	-0.395020	-0.561035	1.934570	145.389999	-456.750000	29.190001	22.00	0.00	0.00
3.24	3.00	4.75	1.50	4.00	3.75	4.00	1.00	2.75	1.50	0.75	0.75	1.00	2.50	1.25	0.25	1.00	-0.174805	0.027344	0.954102	-22.540001	29.330000	-11.900000	363.00	-0.10	-0.12	0.25	0.00	0.00	0.25	0.25	0.00	0.25	0.00	0.00	0.25	0.00	0.00	0.25	0.00	0.00	0.00	-0.402832	-0.504883	2.202148	149.240005	-460.459991	13.650000	17.00	0.00	0.00
3.25	2.25	3.75	1.25	3.50	3.25	3.50	1.00	2.75	1.75	1.00	1.00	1.50	2.75	2.25	0.25	1.25	-0.240234	0.042480	0.987305	-10.640000	29.049999	-14.560000	353.00	-0.05	-0.11	0.00	0.00	0.00	0.00	0.25	0.00	0.25	0.00	0.00	0.25	0.00	0.00	0.00	0.00	0.00	0.00	-0.418457	-0.391602	2.471191	152.039993	-467.179993	8.890000	9.00	0.00	0.00
3.26	2.00	3.25	1.00	3.00	2.00	3.25	1.00	2.75	2.00	1.25	1.25	1.75	3.50	3.50	0.75	1.75	-0.210449	0.031250	1.006836	-1.890000	34.369999	-12.110000	357.00	0.00	-0.12	0.00	0.00	0.00	0.50	0.25	0.00	0.25	0.00	0.00	0.25	0.00	0.00	0.00	0.00	0.00	0.00	-0.474609	-0.245117	2.735840	155.750000	-476.279999	13.790000	15.00	0.00	0.00
3.27	1.50	2.75	0.50	2.50	2.00	2.25	0.75	2.75	2.75	1.75	2.25	2.25	3.75	5.00	1.00	2.25	-0.149902	-0.055664	0.980957	8.050000	40.320000	-8.820000	373.00	0.06	-0.10	0.00	0.00	0.00	0.50	0.50	0.00	0.25	0.00	0.00	0.00	0.00	0.00	0.25	0.00	0.00	0.00	-0.609375	-0.108887	2.971191	160.369995	-486.080017	23.379999	17.00	0.00	0.00
3.28	1.25	2.00	0.50	2.00	1.75	2.25	0.75	2.75	3.50	1.75	2.75	3.25	5.00	7.25	1.25	3.50	-0.087891	0.101562	0.960938	19.670000	47.599998	-9.800000	420.00	0.12	-0.10	0.00	0.00	0.00	0.50	0.50	0.00	0.25	0.00	0.00	0.25	0.00	0.25	0.00	0.00	0.00	0.00	-0.911133	0.084473	3.166504	166.669998	-494.899994	35.490002	20.00	0.00	0.00
3.29	1.25	1.75	0.50	2.50	1.00	1.75	0.50	2.75	4.00	2.50	3.50	4.25	5.50	8.75	1.50	4.75	-0.229004	0.122070	0.978027	35.349998	60.200001	-11.270000	465.00	0.14	-0.10	0.25	0.00	0.00	0.50	0.25	0.00	0.25	0.00	0.00	0.00	0.00	0.00	0.00	0.00	0.00	0.00	-1.344238	0.336426	3.326172	172.199997	-500.779999	53.900002	15.00	0.00	0.00
3.30	0.50	1.25	0.25	1.50	1.25	1.50	0.50	2.75	4.50	2.75	5.25	5.75	6.25	10.25	2.25	5.75	-0.267090	0.040039	0.992188	56.840000	80.430000	-8.890000	515.00	0.19	-0.10	0.00	0.00	0.00	0.00	0.25	0.00	0.25	0.00	0.00	0.00	0.00	0.00	0.00	0.00	0.00	0.00	-1.885742	0.675781	3.438965	170.869995	-502.600006	81.269997	7.00	0.00	0.00
3.31	1.00	1.00	0.25	1.75	1.25	1.50	0.25	2.50	5.00	3.50	6.50	7.00	6.75	12.00	3.00	6.50	-0.211914	0.061035	1.053711	72.660004	101.989998	-7.350000	585.00	0.20	-0.09	0.00	0.00	0.50	0.25	0.25	0.00	0.25	0.00	0.00	0.00	0.00	0.00	0.00	0.00	0.00	0.00	-2.485840	0.958008	3.344727	172.199997	-498.119995	116.410004	15.00	0.00	0.00
3.32	0.75	1.00	0.50	1.25	0.25	1.25	0.25	2.25	4.75	3.50	7.50	7.75	7.00	14.00	5.00	7.50	-0.355469	0.353027	1.112793	72.379997	129.430008	-9.100000	623.00	0.22	-0.09	0.00	0.00	0.00	0.00	0.50	0.00	0.25	0.00	0.00	0.00	0.25	0.00	0.00	0.00	0.00	0.00	-3.123535	0.992676	3.053711	201.389999	-482.580017	151.270004	12.00	0.00	0.00
3.33	0.50	0.50	0.00	1.00	0.50	0.50	0.00	2.00	5.50	4.00	7.75	8.25	7.25	16.25	6.00	8.75	-0.280273	0.353027	1.046387	72.379997	129.430008	-9.100000	656.00	0.25	-0.08	0.00	0.00	0.00	0.00	0.25	0.00	0.25	0.00	0.00	0.00	0.00	0.00	0.00	0.00	0.00	0.00	-3.917969	0.740234	2.748535	255.430008	-447.580017	178.639999	7.00	0.00	0.00
3.34	0.50	0.25	0.00	1.25	0.50	0.25	0.00	2.00	5.25	4.25	8.00	8.50	7.50	18.25	7.25	10.00	-0.390137	0.048828	1.115234	75.040001	188.020004	-14.840000	697.00	0.26	-0.08	0.00	0.00	0.00	0.25	0.25	0.00	0.25	0.00	0.00	0.00	0.00	0.00	0.00	0.00	0.00	0.00	-4.900391	0.328125	2.264160	291.970001	-390.320007	200.270004	9.00	0.00	0.00
3.35	0.25	0.50	0.00	0.75	0.75	0.25	0.00	1.75	5.75	4.75	8.25	8.75	7.25	20.00	8.00	11.25	-0.376465	0.217773	1.166504	70.349998	230.020004	-18.549999	735.00	0.27	-0.07	0.00	0.00	0.00	0.00	0.25	0.00	0.25	0.00	0.00	0.00	0.00	0.00	0.00	0.00	0.00	0.00	-5.902832	-0.221191	1.514160	285.950012	-311.290009	218.960007	7.00	0.00	0.00
3.36	0.00	0.75	0.00	0.50	0.50	0.25	0.00	1.25	5.75	5.00	8.00	8.75	7.00	21.75	9.50	12.25	-0.449707	0.211914	1.192383	61.950001	273.350006	-23.870001	756.00	0.29	-0.06	0.25	0.00	0.00	0.00	0.00	0.00	0.25	0.00	0.00	0.25	0.00	0.00	0.00	0.00	0.00	0.00	-6.394043	-0.774414	0.780273	245.279999	-218.330002	228.059998	9.00	0.00	0.00
3.37	0.25	0.25	0.00	1.00	0.50	0.00	0.00	1.00	5.75	5.25	8.00	8.50	6.50	23.25	10.25	13.50	-0.525879	0.199219	1.232422	52.920002	308.769989	-30.240000	776.00	0.29	-0.06	0.25	0.00	0.00	1.00	0.25	0.00	0.25	0.00	0.00	0.00	0.00	0.00	0.00	0.00	0.00	0.00	-6.458008	-1.138184	0.380371	183.960007	-127.750000	219.660004	20.00	0.00	0.00
3.38	0.50	0.25	0.00	0.00	0.25	0.25	0.00	0.75	5.75	5.00	7.50	8.00	5.75	24.25	11.00	14.00	-0.573242	0.154297	1.255371	37.450001	337.190002	-36.119999	763.00	0.30	-0.05	0.00	0.00	0.00	0.25	0.00	0.00	0.25	0.00	0.00	0.00	0.00	0.00	0.00	0.00	0.00	0.00	-6.136719	-1.238770	0.116211	98.279999	-47.250000	190.330002	7.00	0.00	0.00
3.39	0.00	0.00	0.00	0.25	0.25	0.00	0.00	0.75	5.75	5.00	6.75	7.25	5.00	25.00	11.75	14.75	-0.576172	0.204590	1.326660	28.420000	373.380005	-36.680000	752.00	0.32	-0.04	0.00	0.00	0.00	0.75	0.25	0.00	0.25	0.00	0.00	0.00	0.00	0.00	0.00	0.00	0.00	0.00	-5.482422	-0.810059	0.071289	3.780000	19.250000	158.970001	15.00	0.00	0.00
3.40	0.25	0.00	0.00	0.25	0.25	0.00	0.00	0.25	5.50	5.00	6.00	6.50	3.75	25.25	12.25	15.00	-0.814453	0.234375	1.297363	21.070000	412.649994	-39.619999	725.00	0.32	-0.03	0.00	0.00	0.00	0.50	0.25	0.00	0.25	0.00	0.00	0.00	0.00	0.00	0.00	0.00	0.00	0.00	-5.027832	0.097656	0.205566	-8.890000	109.620003	108.430000	12.00	0.00	0.00
3.41	0.00	0.00	0.00	0.00	0.50	0.00	0.00	0.25	5.25	4.75	4.75	5.50	3.00	25.00	12.50	14.50	-0.871582	0.193359	1.882812	12.740000	455.000000	-48.090000	684.00	0.33	-0.02	0.00	0.25	0.00	1.00	0.25	0.00	0.25	0.00	0.00	0.00	0.00	0.00	0.00	0.00	0.25	0.25	-4.102539	-0.125488	0.336426	33.389999	149.169998	68.320000	24.00	0.00	0.00
3.42	0.00	0.00	0.00	0.00	0.50	0.00	0.00	0.25	5.00	4.50	4.00	5.00	2.50	24.50	12.25	14.00	-0.710938	0.338867	1.330078	-5.460000	511.559998	-58.310001	652.00	0.33	-0.01	2.00	4.00	0.50	2.75	0.25	0.00	0.25	0.25	0.00	0.00	0.00	0.00	0.00	0.00	0.00	0.00	-2.286621	-1.649414	2.460449	-49.490002	280.070007	59.500000	104.00	-0.33	-0.10
3.43	0.00	0.00	0.00	0.00	0.50	0.00	0.00	0.25	4.00	3.75	3.50	4.25	2.50	23.50	11.25	12.25	-1.292969	0.786133	1.924805	8.820000	575.049988	-67.480003	589.00	0.34	-0.01	7.25	11.75	1.25	5.25	0.50	0.25	0.25	0.00	0.00	0.00	0.00	0.00	0.25	0.00	0.00	0.00	2.318848	-0.166992	2.294922	-123.270004	301.559998	9.310000	269.00	-0.36	-0.08
3.44	0.00	0.00	0.00	0.00	0.50	0.00	0.00	0.25	3.00	3.00	2.25	3.25	2.00	21.50	9.75	9.50	-1.624512	1.081055	2.593750	40.320000	625.869995	-89.459999	492.00	0.34	-0.00	14.75	17.50	2.25	6.50	0.50	1.25	0.00	0.25	0.00	0.00	0.00	0.00	1.00	0.00	0.00	0.00	-0.062500	0.247070	2.688477	-215.110001	419.790009	-35.349998	442.00	-0.36	-0.07
3.45	0.00	0.00	0.00	0.00	0.50	0.00	0.00	0.00	2.25	2.00	1.25	2.25	1.50	18.25	7.75	7.00	-2.283691	0.736328	3.874023	101.849998	662.340027	-97.300003	381.00	0.35	0.01	18.25	18.75	3.25	8.00	0.75	1.75	0.00	0.50	0.00	0.00	0.00	0.50	1.00	0.00	0.00	0.00	-1.775879	0.101074	4.423828	-219.100006	480.970001	-36.119999	534.00	-0.35	-0.07
3.46	0.00	0.00	0.00	0.00	0.50	0.25	0.00	0.00	1.75	1.75	1.00	1.50	1.00	14.50	6.25	5.25	-2.408691	0.968262	4.753418	164.639999	685.440002	-100.519997	302.00	0.35	0.02	20.25	19.50	4.75	8.75	1.00	2.25	0.25	0.50	0.00	0.00	0.00	0.50	1.25	0.00	0.00	0.00	-1.254883	-1.062988	4.161133	-230.160004	428.890015	-47.320000	601.00	-0.34	-0.06
3.47	0.00	0.00	0.00	0.00	0.50	0.00	0.00	0.00	1.50	1.00	0.75	1.00	0.75	11.00	4.75	3.50	-2.150391	0.919922	5.554688	251.369995	679.000000	-99.470001	223.00	0.35	0.03	21.25	19.25	6.25	9.25	1.25	2.75	0.25	0.50	0.00	0.00	0.00	0.25	1.25	0.00	0.00	0.00	-0.331543	-0.470703	3.000977	-190.539993	324.029999	-73.709999	637.00	-0.34	-0.06
3.48	0.00	0.00	0.00	0.00	0.50	0.00	0.00	0.00	1.00	0.50	0.50	0.75	0.50	6.50	2.25	1.50	-1.186523	0.838867	6.263672	316.190002	633.359985	-99.050003	128.00	0.33	0.04	21.25	19.25	7.75	10.00	2.00	3.75	0.25	0.75	0.00	0.00	0.00	0.00	1.00	0.00	0.00	0.00	-0.486328	0.530762	1.643555	-152.039993	248.220001	-87.010002	680.00	-0.33	-0.06
3.49	0.25	0.25	0.00	0.00	0.75	0.00	0.00	0.00	0.75	0.50	0.25	0.25	0.50	2.25	0.75	0.75	1.107422	0.318359	5.937012	336.839996	528.710022	-171.080002	69.00	0.22	0.03	20.75	19.00	8.50	10.50	2.75	4.75	0.25	1.00	0.00	0.00	0.00	0.25	1.25	0.00	0.00	0.00	-0.413086	0.690430	2.303711	-118.160004	228.270004	-54.110001	714.00	-0.32	-0.06
3.50	0.25	0.50	0.00	0.00	1.00	0.00	0.00	0.00	0.75	0.50	0.00	0.00	0.00	1.25	0.75	0.50	4.709961	-0.253906	5.717773	244.860001	350.209991	-298.970001	54.00	0.15	0.07	20.75	18.50	9.25	11.00	4.50	6.00	0.50	1.50	0.00	0.00	0.00	0.00	1.50	0.00	0.00	0.00	-0.433594	0.108398	2.001465	-99.610001	172.059998	-25.200001	767.00	-0.30	-0.07
3.51	0.25	0.25	0.25	0.00	0.75	0.00	0.00	0.00	0.25	0.50	0.25	0.00	0.25	0.75	0.25	0.50	0.306152	2.218750	6.185547	70.489998	82.949997	-341.739990	41.00	0.00	0.00	20.50	18.25	9.50	11.25	5.50	6.25	0.50	1.75	0.00	0.00	0.00	0.00	1.25	0.00	0.00	0.00	-0.251465	-0.157715	1.485352	-86.730003	108.570000	-19.950001	783.00	-0.30	-0.07
3.52	0.00	0.25	0.00	0.00	1.00	0.00	0.25	0.00	0.25	0.50	0.00	0.00	0.00	0.50	0.25	0.50	0.767090	1.401855	5.514648	54.459999	-153.229996	-247.449997	35.00	0.00	0.00	20.00	18.25	9.50	11.25	6.00	7.25	0.75	2.00	0.00	0.00	0.00	0.00	1.25	0.00	0.00	0.25	-0.228027	0.196289	1.413086	-72.660004	83.160004	-19.389999	803.00	-0.29	-0.07
3.53	0.25	0.25	0.25	0.00	1.00	0.00	0.25	0.00	0.25	0.25	0.00	0.00	0.00	0.25	0.25	0.50	0.868652	1.106934	2.641113	-42.279999	-242.479996	-185.919998	36.00	0.00	0.00	19.25	17.75	9.50	11.50	6.25	7.25	0.75	2.00	0.00	0.00	0.00	0.00	1.25	0.00	0.00	0.00	-0.201172	0.246582	1.321289	-58.939999	62.860001	-7.490000	795.00	-0.29	-0.07
3.54	0.25	0.25	0.00	0.00	1.00	0.00	0.25	0.00	0.00	0.25	0.00	0.00	0.00	0.75	0.00	0.25	0.675293	1.958984	2.336426	-168.630005	-312.549988	-112.070000	30.00	0.00	0.00	19.00	17.25	9.25	11.25	6.25	7.50	0.75	2.25	0.00	0.00	0.00	0.25	1.25	0.00	0.00	0.25	-0.128418	-0.001465	1.163574	-36.049999	38.709999	0.560000	793.00	-0.29	-0.07
3.55	0.00	0.25	0.25	0.00	0.75	0.00	0.25	0.00	0.25	0.00	0.00	0.00	0.00	0.00	0.00	0.25	0.785645	1.636230	2.097168	-93.660004	-358.610016	-68.040001	22.00	0.00	0.00	18.00	16.75	9.00	11.00	6.00	7.50	0.75	2.25	0.00	0.00	0.00	0.25	1.25	0.00	0.00	0.00	-0.124512	-0.011719	1.088867	-16.379999	25.830000	-0.700000	768.00	-0.28	-0.08
3.56	0.25	0.50	0.25	0.00	1.00	0.00	0.25	0.00	0.25	0.25	0.00	0.00	0.00	0.25	0.00	0.00	0.609863	1.190918	1.796387	-37.450001	-408.589996	-28.630001	33.00	0.00	0.00	17.50	16.25	8.50	10.75	5.75	7.50	0.75	2.50	0.00	0.00	0.00	0.25	1.25	0.00	0.00	0.00	-0.132324	0.111816	1.062012	-0.350000	14.420000	-1.330000	751.00	-0.28	-0.08
3.57	0.25	0.25	0.25	0.00	1.00	0.00	0.25	0.00	0.50	0.25	0.00	0.00	0.00	0.00	0.00	0.25	0.331055	0.909668	1.566895	-27.160000	-445.830017	5.250000	33.00	0.00	0.00	16.00	15.50	8.25	10.50	5.50	7.25	0.75	2.50	0.00	0.25	0.00	0.25	1.25	0.00	0.00	0.25	-0.079102	0.079590	0.969238	7.280000	7.140000	0.630000	722.00	-0.28	-0.08
3.58	0.25	0.50	0.00	0.00	0.75	0.00	0.25	0.00	0.25	0.25	0.25	0.00	0.00	0.25	0.00	0.25	0.082031	0.719238	1.286621	-35.700001	-464.519989	31.990000	31.00	0.00	0.00	14.50	14.50	7.75	10.00	5.25	7.00	0.75	2.50	0.00	0.00	0.00	0.25	1.50	0.00	0.00	0.00	-0.044434	0.083984	0.950684	6.300000	9.660000	0.350000	679.00	-0.27	-0.09
3.59	0.25	0.25	0.00	0.00	0.75	0.00	0.25	0.00	0.00	0.25	0.00	0.00	0.00	0.00	0.00	0.00	-0.123535	0.666504	1.066895	-30.170000	-469.769989	49.209999	20.00	0.00	0.00	13.00	13.00	7.25	9.50	4.75	6.75	0.75	2.50	0.00	0.00	0.25	0.25	1.25	0.00	0.00	0.00	-0.078125	0.205078	0.976074	5.740000	11.410000	0.350000	630.00	-0.27	-0.09
3.60	0.00	0.50	0.00	0.00	0.75	0.00	0.25	0.00	0.00	0.25	0.00	0.00	0.00	0.00	0.00	0.00	-0.265137	0.656250	1.132324	6.300000	-467.250000	57.889999	19.00	0.00	0.00	11.00	11.50	6.25	9.00	4.75	6.75	0.75	2.50	0.00	0.00	0.25	0.50	1.50	0.00	0.00	0.00	-0.156738	0.141113	0.908691	-1.120000	15.750000	2.030000	584.00	-0.26	-0.10
3.61	0.25	0.50	0.25	0.00	0.75	0.00	0.25	0.00	0.25	0.50	0.00	0.00	0.00	0.00	0.00	0.25	-0.338867	0.491699	1.343262	60.549999	-465.640015	59.990002	32.00	0.00	0.00	9.25	10.25	5.50	8.50	4.50	6.50	0.75	2.50	0.00	0.25	0.25	0.25	1.50	0.00	0.00	0.00	-0.035645	0.110352	0.915527	-35.070000	32.130001	-1.540000	535.00	-0.25	-0.10
3.62	0.50	0.50	0.25	0.25	0.75	0.00	0.25	0.00	0.00	0.25	0.00	0.00	0.00	0.00	0.00	0.00	-0.485352	0.264160	1.496582	104.300003	-469.489990	55.860001	30.00	0.00	0.00	8.00	9.00	5.00	8.00	4.25	6.25	0.75	2.75	0.00	0.25	0.25	0.25	1.75	0.00	0.00	0.00	-0.093262	0.084961	0.949219	-43.400002	38.150002	-3.570000	500.00	-0.24	-0.11
3.63	0.00	0.25	0.00	0.25	0.75	0.00	0.25	0.00	0.00	0.25	0.00	0.00	0.00	0.00	0.00	0.00	-0.615723	0.051758	1.559570	114.309998	-471.029999	47.180000	20.00	0.00	0.00	6.50	8.00	4.00	7.50	4.00	6.00	0.75	3.00	0.25	0.25	0.50	0.50	2.00	0.25	0.00	0.25	-0.113281	0.059082	1.020020	-59.709999	34.090000	-5.250000	471.00	-0.21	-0.12
3.64	0.25	0.50	0.00	0.00	1.00	0.00	0.25	0.00	0.25	0.25	0.00	0.00	0.00	0.00	0.00	0.00	-0.710938	0.052246	1.642578	101.010002	-468.720001	36.470001	28.00	0.00	0.00	5.75	7.25	3.25	6.50	4.00	5.75	0.75	3.25	0.50	0.50	0.25	0.25	2.50	0.25	0.00	0.25	-0.112305	0.022949	1.157715	-54.599998	17.990000	-5.600000	443.00	-0.20	-0.13
3.65	0.25	0.25	0.50	0.50	1.00	0.00	0.00	0.00	0.00	0.25	0.00	0.00	0.00	0.00	0.00	0.00	-0.770508	0.172363	1.800781	93.029999	-467.670013	26.460001	30.00	0.00	0.00	4.50	5.75	2.50	5.75	3.75	5.50	0.75	3.50	0.50	0.50	0.75	0.75	3.00	0.75	0.25	1.00	-0.173828	0.040039	0.979980	-29.680000	7.980000	-6.580000	424.00	-0.15	-0.14
3.66	0.00	0.25	0.25	0.00	0.75	0.00	0.25	0.00	0.00	0.25	0.00	0.00	0.00	0.00	0.00	0.00	-0.816406	0.341797	2.011230	103.110001	-470.330017	20.299999	20.00	0.00	0.00	3.25	5.00	2.00	5.00	3.25	5.25	1.00	4.00	0.75	0.50	0.75	1.00	3.50	0.75	0.25	1.50	-0.198242	0.029297	1.014648	-12.460000	7.280000	-6.720000	407.00	-0.12	-0.16
3.67	0.25	0.25	0.25	0.25	0.75	0.00	0.25	0.00	0.00	0.50	0.00	0.00	0.00	0.00	0.00	0.00	-0.921387	0.443848	2.145508	121.800003	-474.739990	22.260000	28.00	0.00	0.00	2.75	4.25	1.25	5.00	3.00	5.00	1.00	4.00	1.00	0.75	1.00	1.25	4.25	1.25	0.50	2.00	-0.150879	0.116211	0.988281	-4.060000	11.970000	-4.620000	408.00	-0.08	-0.17
3.68	0.00	0.00	0.25	0.00	1.00	0.00	0.25	0.00	0.00	0.00	0.00	0.00	0.00	0.00	0.00	0.00	-1.019043	0.632812	2.239746	131.320007	-477.190002	37.029999	18.00	0.00	0.00	1.75	3.00	1.00	4.25	2.25	4.75	1.00	4.25	1.75	1.00	1.25	1.75	4.75	2.00	0.50	2.50	-0.150391	0.057617	1.007812	1.610000	17.850000	-2.590000	402.00	-0.02	-0.17
3.69	0.25	0.50	0.25	0.00	1.00	0.00	0.25	0.00	0.00	0.00	0.00	0.00	0.00	0.00	0.00	0.00	-1.187012	0.886230	2.426270	125.090004	-472.570007	69.090004	25.00	0.00	0.00	1.50	2.25	0.50	3.25	1.50	3.75	1.00	4.25	2.50	1.00	2.00	2.00	5.00	2.50	0.75	3.50	-0.193848	0.021484	1.002441	7.980000	24.570000	-1.750000	391.00	0.03	-0.16
3.70	0.25	0.50	0.00	0.00	0.75	0.00	0.25	0.00	0.00	0.00	0.00	0.00	0.00	0.00	0.00	0.25	-1.428711	1.045410	2.510254	115.150002	-464.309998	113.750000	21.00	0.00	0.00	1.00	1.00	0.50	2.75	1.00	3.00	0.75	4.00	3.00	1.75	2.25	2.50	5.50	3.75	1.25	4.75	-0.182617	0.222656	1.041504	19.530001	34.299999	-7.140000	397.00	0.09	-0.15
3.71	0.25	0.50	0.00	0.00	0.75	0.00	0.25	0.00	0.00	0.00	0.00	0.00	0.00	0.00	0.00	0.00	-1.775879	1.118164	2.558594	118.580002	-453.880005	158.619995	19.00	0.00	0.00	0.75	1.00	0.25	2.75	0.75	2.25	0.75	3.75	3.50	1.75	3.25	3.00	6.25	5.75	1.50	5.50	-0.143555	0.117676	0.987305	36.750000	57.119999	-9.450000	430.00	0.13	-0.14
