# time	left pressure 1[N/cm²]	left pressure 2[N/cm²]	left pressure 3[N/cm²]	left pressure 4[N/cm²]	left pressure 5[N/cm²]	left pressure 6[N/cm²]	left pressure 7[N/cm²]	left pressure 8[N/cm²]	left pressure 9[N/cm²]	left pressure 10[N/cm²]	left pressure 11[N/cm²]	left pressure 12[N/cm²]	left pressure 13[N/cm²]	left pressure 14[N/cm²]	left pressure 15[N/cm²]	left pressure 16[N/cm²]	left acceleration X[g]	left acceleration Y[g]	left acceleration Z[g]	left angular X[dps]	left angular Y[dps]	left angular Z[dps]	left total force[N]	left center of pressure X[%]	left center of pressure Y[%]	right pressure 1[N/cm²]	right pressure 2[N/cm²]	right pressure 3[N/cm²]	right pressure 4[N/cm²]	right pressure 5[N/cm²]	right pressure 6[N/cm²]	right pressure 7[N/cm²]	right pressure 8[N/cm²]	right pressure 9[N/cm²]	right pressure 10[N/cm²]	right pressure 11[N/cm²]	right pressure 12[N/cm²]	right pressure 13[N/cm²]	right pressure 14[N/cm²]	right pressure 15[N/cm²]	right pressure 16[N/cm²]	right acceleration X[g]	right acceleration Y[g]	right acceleration Z[g]	right angular X[dps]	right angular Y[dps]	right angular Z[dps]	right total force[N]	right center of pressure X[%]	right center of pressure Y[%]
0.00	0.00	0.50	0.00	0.25	0.00	0.00	0.75	0.00	0.00	2.25	3.50	2.25	0.00	0.00	0.00	2.75	0.282227	0.704590	1.013184	-0.490000	103.949997	-239.119995	118.00	0.19	-0.11																									
0.01	0.00	0.25	0.00	0.00	0.00	0.00	0.75	0.00	0.00	2.50	3.25	2.00	0.00	0.25	0.00	2.75	0.413086	0.597168	1.005859	6.370000	94.500000	-227.149994	112.00	0.22	-0.09																									
0.02	0.00	0.00	0.00	0.00	0.00	0.00	0.75	0.00	0.00	2.25	3.50	2.00	0.00	0.25	0.00	2.75	0.482422	0.511230	1.038086	14.840000	82.739998	-220.990005	110.00	0.23	-0.10	6.25	6.25	7.75	8.50	8.25	7.50	5.25	7.25	7.50	7.50	5.50	6.75	7.50	9.75	2.75	3.00	-0.180176	0.078125	0.977539	-11.060000	2.310000	3.360000	1162.00	0.01	-0.06
0.03	0.00	0.25	0.00	0.25	0.00	0.00	0.75	0.00	0.00	2.25	3.25	2.00	0.00	0.00	0.00	2.75	0.522949	0.471680	1.045898	21.139999	68.529999	-216.369995	110.00	0.20	-0.11	6.00	6.00	7.50	8.50	8.00	7.50	5.50	7.00	8.00	7.50	6.00	6.75	7.50	10.00	2.75	3.00	-0.180176	0.083984	0.976562	-9.030000	2.660000	3.780000	1166.00	0.02	-0.06
0.04	0.00	0.25	0.25	0.00	0.00	0.00	0.75	0.00	0.00	2.25	3.25	2.00	0.00	0.00	0.00	2.75	0.514160	0.573242	0.870117	26.880001	55.369999	-209.789993	110.00	0.20	-0.10	5.75	6.00	7.50	8.25	8.25	7.25	5.50	7.00	8.25	8.00	6.25	7.00	7.75	10.50	2.75	3.00	-0.181641	0.082520	0.975098	-7.840000	2.590000	3.990000	1181.00	0.03	-0.06
0.05	0.00	0.75	0.00	0.00	0.00	0.00	0.75	0.00	0.00	2.25	3.25	2.00	0.00	0.25	0.00	2.75	0.537598	0.758301	0.848633	37.170002	48.090000	-197.190002	114.00	0.19	-0.10	5.50	5.75	7.25	8.25	8.00	7.25	5.50	7.25	8.50	8.25	7.00	7.00	7.75	10.75	3.00	3.00	-0.174316	0.091797	0.978516	-7.420000	2.310000	4.200000	1192.00	0.03	-0.06
0.06	0.00	0.25	0.25	0.00	0.00	0.00	0.75	0.00	0.00	2.25	3.25	1.75	0.00	0.00	0.00	2.75	0.541016	0.958984	0.702148	50.889999	41.090000	-177.169998	107.00	0.20	-0.09	5.25	5.50	7.25	8.25	8.00	7.25	5.75	7.25	9.00	8.25	7.50	7.50	7.75	11.00	2.50	3.00	-0.178223	0.083984	0.982422	-6.720000	2.030000	4.060000	1205.00	0.04	-0.06
0.07	0.00	0.25	0.25	0.00	0.00	0.00	0.75	0.00	0.25	2.50	3.50	2.00	0.00	1.00	0.00	2.75	1.162109	2.346680	0.901855	158.059998	21.139999	-127.889999	127.00	0.22	-0.07	5.00	5.25	7.25	8.00	8.00	7.00	5.75	7.25	9.25	8.50	7.75	7.50	7.75	11.25	3.00	3.00	-0.185547	0.084473	0.971191	-6.300000	1.470000	3.990000	1211.00	0.04	-0.06
0.08	0.25	0.00	0.00	0.00	0.00	0.00	0.75	0.00	0.50	2.75	3.50	2.00	0.00	1.25	0.00	2.75	1.118652	1.897461	1.032227	228.759995	-1.960000	-80.849998	133.00	0.23	-0.05	4.75	5.25	7.00	8.00	8.00	7.00	5.75	7.25	9.25	8.75	7.75	7.50	7.75	11.50	2.75	3.25	-0.176758	0.085449	0.979004	-6.020000	0.910000	3.570000	1209.00	0.05	-0.06
0.09	0.00	0.25	0.25	0.00	0.00	0.00	0.75	0.00	0.75	3.00	4.00	2.50	0.00	2.00	0.00	2.75	1.770996	1.507812	1.577148	278.250000	-26.320000	-29.610001	158.00	0.23	-0.04	4.50	5.50	7.00	8.00	8.00	7.00	6.00	7.25	9.50	8.75	8.00	7.75	7.75	11.50	3.00	3.25	-0.186523	0.093262	0.981934	-5.810000	0.280000	3.220000	1224.00	0.05	-0.06
0.10	0.00	0.25	0.25	0.00	0.00	0.00	1.00	0.00	1.25	3.00	4.00	2.50	0.00	3.50	0.00	3.00	0.127930	0.128418	2.101074	296.239990	-81.269997	-3.990000	182.00	0.24	-0.01	4.50	5.25	6.75	8.00	8.00	6.75	6.00	7.00	9.75	9.00	8.00	7.75	7.75	11.75	3.00	3.25	-0.191406	0.098633	0.977051	-5.810000	-0.490000	2.870000	1220.00	0.05	-0.05
0.11	0.00	0.25	0.25	0.50	0.00	0.00	1.00	0.25	1.75	3.50	4.50	2.75	0.50	4.25	0.25	3.50	-0.708496	0.337402	1.674805	206.149994	-121.730003	20.510000	227.00	0.23	-0.03	4.25	5.25	6.75	8.00	8.00	7.00	6.00	7.00	9.75	9.00	8.00	7.75	7.75	12.00	3.00	3.25	-0.179688	0.075195	0.977539	-5.740000	-1.190000	2.800000	1222.00	0.05	-0.05
0.12	0.00	0.25	0.25	0.25	0.25	0.00	1.25	0.50	1.75	3.75	5.00	3.00	0.75	4.00	0.25	3.50	-0.196289	0.147949	1.058594	51.240002	-92.540001	20.860001	245.00	0.23	-0.04	4.50	5.25	6.75	8.00	8.00	7.00	6.00	7.00	9.75	9.00	8.00	7.75	7.75	12.00	3.00	3.25	-0.186035	0.090820	0.977539	-5.600000	-2.030000	2.730000	1225.00	0.05	-0.05
0.13	0.00	0.25	0.50	0.00	0.50	0.50	1.75	0.75	2.50	4.00	5.25	3.25	1.00	5.00	0.50	4.25	-0.175781	0.128418	0.998047	37.170002	-45.779999	16.100000	300.00	0.22	-0.03	4.25	5.00	6.75	8.00	8.00	6.75	6.00	7.00	9.75	9.00	8.00	7.75	7.75	11.75	3.00	3.25	-0.188477	0.087402	0.984375	-5.530000	-2.590000	2.730000	1215.00	0.05	-0.05
0.14	0.00	0.00	1.00	0.50	1.00	0.75	2.25	1.00	2.50	4.25	5.75	3.50	1.50	5.25	0.75	4.00	-0.239746	0.061523	0.978027	33.459999	-26.180000	18.270000	347.00	0.19	-0.03	4.25	5.25	6.75	7.75	8.00	7.00	6.00	6.75	9.75	9.00	8.00	7.50	7.75	11.75	3.00	3.00	-0.181152	0.085938	0.976562	-5.530000	-2.940000	2.520000	1210.00	0.05	-0.05
0.15	0.25	0.25	1.25	0.75	1.25	1.00	2.25	1.25	2.50	4.50	5.75	3.50	1.50	5.25	0.75	4.00	-0.254395	0.164551	0.993164	26.600000	-21.490000	20.650000	369.00	0.17	-0.04	3.75	5.25	6.75	7.75	8.00	7.00	6.00	6.75	9.75	9.00	8.00	7.50	7.75	11.75	2.75	3.00	-0.184570	0.083984	0.975098	-5.530000	-3.150000	2.310000	1202.00	0.05	-0.05
0.16	0.50	0.50	1.50	1.25	1.75	1.25	2.75	1.50	2.50	4.50	6.00	3.50	1.75	5.50	0.75	4.25	-0.182129	0.173828	1.007812	15.260000	-17.780001	17.500000	410.00	0.15	-0.04	3.75	5.00	6.75	7.75	8.00	6.75	6.00	6.75	9.75	9.00	8.00	7.50	7.50	11.50	2.75	3.00	-0.185547	0.083496	0.983887	-4.970000	-3.080000	2.170000	1192.00	0.05	-0.05
0.17	0.75	1.25	1.75	1.25	2.00	1.50	2.75	1.75	2.50	4.50	5.75	3.75	1.75	5.50	0.75	4.25	-0.204590	0.145508	1.004883	5.670000	-13.510000	11.620000	431.00	0.13	-0.04	3.75	4.75	6.75	7.75	8.00	6.75	6.00	6.50	9.75	9.00	8.00	7.25	7.25	11.50	2.75	3.00	-0.186523	0.089844	0.984863	-4.830000	-2.870000	2.100000	1182.00	0.05	-0.05
0.18	1.00	1.00	2.00	1.75	2.00	1.50	2.75	2.00	2.75	4.25	5.75	4.00	1.75	5.75	0.75	4.25	-0.228027	0.126953	0.992676	-0.420000	-8.890000	7.350000	449.00	0.12	-0.05	3.50	5.00	6.75	7.75	7.75	6.50	6.00	6.25	9.75	8.75	7.75	7.00	7.25	11.25	2.50	2.75	-0.182617	0.090820	0.991699	-4.620000	-2.660000	2.100000	1158.00	0.05	-0.05
0.19	1.00	1.25	2.25	1.75	2.50	1.75	3.00	2.00	3.00	4.25	6.00	3.75	2.00	5.75	1.00	4.50	-0.220703	0.109863	0.981934	-3.220000	-4.970000	4.970000	476.00	0.12	-0.04	3.75	4.75	6.50	7.75	7.75	6.25	6.00	6.25	9.75	8.75	7.75	6.75	7.00	11.00	2.50	2.75	-0.179688	0.083496	0.983887	-4.480000	-2.240000	2.030000	1146.00	0.05	-0.05
0.20	1.25	1.00	2.50	2.25	2.75	2.00	3.00	2.25	2.75	4.50	6.00	3.75	2.25	5.75	1.00	4.50	-0.224121	0.091309	0.955078	-4.130000	-2.100000	3.080000	495.00	0.11	-0.05	3.75	5.00	6.50	7.50	7.50	6.00	5.75	5.75	9.50	8.50	7.50	6.50	6.75	10.75	2.50	2.50	-0.187500	0.085938	0.986816	-4.130000	-1.960000	2.030000	1112.00	0.05	-0.04
0.21	1.50	1.50	2.75	2.75	3.00	2.00	3.25	2.50	3.00	5.00	6.50	4.00	2.00	5.75	0.75	4.50	-0.222656	0.093262	0.938477	-4.480000	-0.560000	1.960000	532.00	0.09	-0.05	3.25	4.50	6.50	7.50	7.50	6.00	5.75	5.75	9.25	8.50	7.50	6.25	6.25	10.50	2.25	2.75	-0.186035	0.081543	0.989746	-3.640000	-1.610000	2.030000	1088.00	0.05	-0.04
0.22	2.00	2.00	3.00	2.50	3.50	2.25	3.25	2.75	3.25	5.00	6.25	3.75	2.25	6.25	0.75	4.50	-0.223145	0.083008	0.947266	-4.270000	-0.630000	1.540000	559.00	0.08	-0.04	3.50	4.50	6.25	7.50	7.25	5.75	5.75	5.25	9.25	8.25	6.75	5.75	6.00	10.25	2.25	2.50	-0.192383	0.084473	0.984375	-3.080000	-1.120000	2.030000	1054.00	0.05	-0.04
0.23	2.00	2.25	3.25	2.50	4.50	2.75	3.25	3.50	3.00	5.00	6.50	4.25	2.75	6.25	1.00	4.75	-0.223145	0.088867	0.940430	-4.200000	-1.400000	1.400000	605.00	0.07	-0.06	3.25	4.50	6.00	7.25	6.75	5.25	5.50	5.00	9.00	8.00	6.25	5.25	6.00	9.75	2.00	2.25	-0.186523	0.062500	0.976562	-2.590000	-0.280000	2.030000	1002.00	0.05	-0.04
0.24	2.25	2.50	4.00	3.75	5.25	3.00	3.50	4.50	3.25	5.00	6.50	4.25	2.75	6.50	1.00	4.75	-0.215332	0.086914	0.943359	-4.760000	-2.660000	1.400000	667.00	0.06	-0.06	2.75	4.50	6.00	7.00	6.50	5.00	5.50	4.25	8.75	7.75	6.25	4.75	5.50	9.50	2.00	2.25	-0.191895	0.092773	0.985352	-1.890000	-0.140000	2.100000	960.00	0.05	-0.03
0.25	2.75	3.25	4.50	4.25	6.00	3.75	3.75	5.00	3.50	5.25	6.75	4.25	3.25	6.50	1.00	4.75	-0.222656	0.098145	0.953613	-5.810000	-3.430000	1.050000	731.00	0.04	-0.07	2.75	4.00	5.75	6.75	6.25	4.50	5.25	3.75	8.50	7.50	5.50	4.25	5.25	9.25	2.00	1.75	-0.187988	0.084473	0.983398	-1.610000	0.350000	1.820000	904.00	0.05	-0.02
0.26	3.50	3.75	5.75	4.75	6.75	4.75	4.00	5.50	3.50	5.75	7.25	5.00	3.25	6.75	1.00	4.75	-0.220215	0.096191	0.955078	-6.650000	-4.410000	0.630000	813.00	0.03	-0.07	2.75	3.50	5.50	6.50	5.75	4.00	5.00	3.00	8.25	7.25	5.00	3.50	5.00	9.00	2.00	1.75	-0.194336	0.085938	0.981934	-1.540000	1.190000	1.330000	845.00	0.05	-0.02
0.27	4.25	4.50	6.00	5.25	7.75	5.75	4.00	6.00	3.75	5.75	7.00	5.00	3.50	6.50	1.00	5.00	-0.211426	0.104492	0.958008	-7.560000	-4.900000	0.140000	868.00	0.01	-0.07	2.50	3.25	5.25	6.00	5.25	3.50	5.00	2.25	8.00	7.00	4.25	3.00	4.50	8.75	1.50	1.75	-0.189941	0.103027	0.993164	-1.680000	2.170000	0.980000	778.00	0.06	-0.00
0.28	5.00	5.25	7.00	5.75	8.25	6.75	4.25	6.50	3.50	6.00	7.25	5.25	4.00	7.00	1.00	4.75	-0.217773	0.097656	0.953613	-8.050000	-4.900000	-0.490000	939.00	0.00	-0.07	2.00	3.00	5.00	5.75	5.00	2.75	5.00	1.75	7.75	6.50	3.75	2.50	3.75	8.25	1.50	1.50	-0.195801	0.095215	0.990723	-2.240000	3.780000	0.700000	716.00	0.06	0.01
0.29	5.75	5.25	7.50	6.75	9.00	7.50	4.50	6.75	4.00	6.25	7.00	5.50	4.50	6.75	1.00	4.75	-0.216797	0.090332	0.965332	-8.260000	-4.760000	-0.980000	999.00	-0.01	-0.07	1.75	2.75	4.50	5.25	4.00	2.25	4.75	1.25	7.50	5.75	3.00	1.75	3.25	8.00	1.50	1.50	-0.166992	0.099609	1.001953	-3.290000	5.670000	-0.070000	639.00	0.06	0.02
0.30	7.00	6.50	8.25	7.75	9.50	8.25	4.75	7.25	4.00	6.00	7.50	5.50	5.00	6.75	1.00	4.75	-0.208008	0.091797	0.967285	-7.280000	-4.480000	-1.330000	1074.00	-0.02	-0.08	1.50	2.00	3.50	5.00	3.25	1.75	4.50	1.00	7.00	5.25	2.50	1.25	2.50	7.75	1.25	1.25	-0.180664	0.053223	0.986328	-3.990000	7.980000	0.770000	559.00	0.07	0.03
0.31	7.75	7.75	8.75	8.00	10.25	8.75	4.75	7.50	4.25	6.50	7.50	5.75	5.00	7.00	1.25	5.00	-0.207520	0.086914	0.963379	-5.950000	-3.500000	-1.260000	1137.00	-0.03	-0.08	1.25	1.75	3.25	4.25	2.50	1.25	4.00	0.75	6.75	5.00	2.00	1.00	2.00	7.25	1.25	1.25	-0.176758	0.125000	1.006836	-3.850000	10.080000	1.750000	496.00	0.09	0.04
0.32	8.50	8.50	9.00	8.50	10.75	9.00	5.00	7.50	4.00	6.50	7.50	5.75	5.25	6.75	1.00	5.00	-0.211426	0.085449	0.972656	-3.150000	-0.280000	-1.680000	1166.00	-0.04	-0.08	1.00	1.50	3.00	3.50	2.00	1.25	4.00	0.25	6.25	4.50	1.75	0.50	1.75	7.00	1.00	1.00	-0.170410	0.102539	1.015137	-4.130000	12.250000	3.500000	439.00	0.09	0.06
0.33	9.00	8.75	9.25	9.00	11.25	9.50	5.00	7.75	4.50	7.00	7.50	6.00	5.00	7.00	1.00	5.00	-0.204102	0.089844	0.968262	-1.750000	1.820000	-1.820000	1211.00	-0.04	-0.07	0.75	1.25	2.00	2.75	1.50	0.75	3.50	0.25	5.75	3.25	1.00	0.50	0.75	6.50	0.75	0.75	-0.173828	0.068359	1.042480	-3.850000	14.140000	5.950000	352.00	0.11	0.08
0.34	9.50	9.25	9.25	9.25	11.25	9.75	5.00	8.00	4.00	6.75	7.50	6.25	5.50	7.00	1.00	5.00	-0.203125	0.091309	0.967285	-0.490000	3.850000	-1.820000	1227.00	-0.04	-0.08	0.50	0.75	1.75	2.50	1.25	0.75	3.25	0.00	5.25	2.75	0.75	0.00	1.00	5.75	0.75	0.50	-0.171875	0.043945	1.033691	-5.810000	16.030001	14.210000	303.00	0.12	0.09
0.35	9.50	9.00	9.25	9.50	11.50	9.75	5.00	8.00	4.25	7.00	7.50	6.25	5.50	6.75	1.25	5.00	-0.208008	0.089355	0.965332	0.490000	5.390000	-1.890000	1237.00	-0.04	-0.08	0.50	0.75	1.25	2.00	1.00	0.50	3.00	0.00	4.50	1.75	0.75	0.00	0.50	5.25	0.50	0.50	-0.120605	0.108398	1.080078	-23.940001	19.809999	34.580002	252.00	0.12	0.11
0.36	9.75	9.50	9.75	9.50	11.50	9.75	5.00	8.25	4.00	7.00	7.50	6.50	5.50	6.50	1.00	5.00	-0.202637	0.089355	0.956543	1.050000	6.580000	-1.820000	1248.00	-0.04	-0.08	0.25	0.50	1.00	1.75	0.75	1.00	2.75	0.00	3.25	1.75	1.00	0.00	0.25	4.25	0.50	0.50	0.014160	0.217773	1.261230	-103.320000	41.580002	96.389999	216.00	0.12	0.09
0.37	9.50	9.50	9.50	9.25	11.75	9.75	5.00	8.25	4.00	7.25	7.50	6.25	5.75	7.00	1.00	5.00	-0.202148	0.088379	0.962891	1.540000	7.630000	-1.610000	1249.00	-0.04	-0.08	0.00	0.50	1.00	1.50	0.50	0.50	2.75	0.00	2.25	1.25	0.50	0.00	0.00	3.25	0.25	0.25	0.049316	0.296387	1.304688	-146.229996	39.480000	119.840004	164.00	0.10	0.11
0.38	9.25	9.50	9.50	9.25	11.50	10.00	5.00	8.25	4.00	7.00	7.75	6.50	6.00	7.00	1.25	5.00	-0.202148	0.086914	0.965332	1.890000	8.330000	-1.330000	1254.00	-0.04	-0.08	0.25	0.50	0.75	1.25	0.25	0.25	2.50	0.00	1.75	0.75	0.25	0.00	0.00	2.75	0.50	0.00	0.022461	0.409180	1.354492	-180.740005	30.170000	145.389999	135.00	0.10	0.12
0.39	9.00	9.50	9.50	9.25	11.25	10.00	4.75	8.25	4.00	7.25	7.50	6.50	5.75	7.00	1.25	5.00	-0.203613	0.086426	0.959961	1.960000	8.610000	-1.260000	1243.00	-0.04	-0.08	0.00	0.25	0.75	1.00	0.25	0.00	2.50	0.00	1.25	0.00	0.50	0.00	0.00	2.00	0.25	0.00	0.109375	0.741699	1.081543	-198.869995	20.580000	176.330002	103.00	0.10	0.13
0.40	9.25	9.25	9.25	9.00	11.25	9.75	4.75	8.25	4.25	7.00	7.75	6.50	6.00	7.00	1.25	5.00	-0.204590	0.086426	0.961426	1.820000	8.960000	-1.470000	1240.00	-0.04	-0.08	0.00	0.25	0.50	1.25	0.25	0.25	2.25	0.00	0.75	0.25	0.25	0.00	0.00	1.50	0.25	0.00	-0.035645	2.006836	0.566895	-185.220001	14.280000	225.119995	92.00	0.06	0.10
0.41	8.75	8.75	9.25	9.00	11.00	9.75	4.75	8.25	4.00	7.25	7.50	6.50	6.00	7.25	1.25	5.00	-0.205566	0.096680	0.955078	1.680000	9.100000	-1.540000	1226.00	-0.03	-0.08	0.25	0.00	0.25	1.00	0.25	0.25	2.25	0.00	1.00	0.25	0.25	0.00	0.00	1.25	0.00	0.00	-0.116211	3.175293	0.167480	-102.690002	25.969999	306.670013	85.00	0.07	0.13
0.42	9.00	8.75	9.25	8.75	11.00	9.50	4.75	8.25	4.00	7.50	7.50	6.50	6.00	7.00	1.25	5.00	-0.203125	0.095703	0.964355	1.820000	9.100000	-1.540000	1224.00	-0.03	-0.08	0.00	0.50	0.50	0.75	0.00	0.25	2.25	0.00	0.50	0.25	0.25	0.00	0.00	1.00	0.00	0.00	-0.142578	2.034668	0.914062	8.050000	40.040001	402.920013	75.00	0.04	0.11
0.43	8.75	8.75	9.00	8.75	10.75	9.50	4.50	8.25	4.25	7.25	7.50	6.75	6.00	7.00	1.00	5.00	-0.207520	0.091797	0.958984	2.310000	8.470000	-1.330000	1213.00	-0.03	-0.08	0.00	0.25	0.25	1.00	0.00	0.25	2.25	0.00	0.25	0.00	0.25	0.00	0.00	1.00	0.25	0.00	-0.198730	0.973633	1.039062	11.130000	37.799999	463.610016	70.00	0.05	0.10
0.44	8.75	8.50	9.00	8.75	10.50	9.50	4.50	8.25	3.75	7.00	7.75	6.50	6.00	6.75	1.00	5.00	-0.207520	0.088379	0.961914	2.450000	8.190000	-1.190000	1197.00	-0.03	-0.09	0.25	0.00	0.00	1.50	0.25	0.25	2.25	0.00	0.00	0.00	0.00	0.00	0.00	1.00	0.00	0.00	-0.229004	0.494629	0.867188	1.890000	31.360001	476.350006	67.00	-0.00	0.09
0.45	8.50	8.25	9.00	8.75	10.75	9.75	4.50	8.00	4.00	7.25	7.75	6.75	6.25	6.50	1.25	4.75	-0.209473	0.087891	0.958496	2.450000	7.700000	-1.050000	1203.00	-0.03	-0.09	0.00	0.25	0.00	1.00	0.00	0.00	2.25	0.00	0.00	0.00	0.00	0.00	0.00	0.75	0.00	0.00	-0.223145	0.000977	0.900879	13.370000	25.200001	452.130005	54.00	0.02	0.12
0.46	8.25	8.50	8.75	8.50	10.50	9.50	4.25	8.00	3.75	7.00	7.50	6.50	6.00	6.75	1.00	5.00	-0.205566	0.095703	0.960449	2.520000	7.350000	-0.980000	1176.00	-0.03	-0.09	0.00	0.50	0.25	1.25	0.25	0.25	2.25	0.00	0.00	0.00	0.00	0.00	0.00	0.50	0.00	0.00	-0.142578	-0.299316	1.064941	19.320000	18.760000	411.179993	65.00	-0.04	0.07
0.47	9.00	8.25	8.75	8.50	10.50	9.50	4.25	8.00	3.50	7.00	7.50	6.50	6.00	6.75	1.00	5.00	-0.203125	0.093262	0.954102	2.310000	6.860000	-0.630000	1178.00	-0.03	-0.09	0.00	0.00	0.25	1.00	0.00	0.00	2.25	0.00	0.00	0.00	0.25	0.00	0.00	0.75	0.00	0.00	-0.069824	-0.336914	1.111328	8.540000	9.310000	370.649994	57.00	0.04	0.12
0.48	8.50	8.50	9.00	8.50	10.25	9.50	4.25	8.00	3.75	6.75	7.50	6.75	5.75	6.50	1.00	5.00	-0.209473	0.091309	0.952637	2.240000	6.580000	-0.490000	1174.00	-0.03	-0.09	0.25	0.25	0.25	1.00	0.00	0.25	2.25	0.00	0.00	0.00	0.25	0.00	0.00	0.25	0.25	0.00	-0.023438	-0.284180	1.048340	-7.700000	-2.170000	336.559998	63.00	-0.02	0.08
0.49	8.50	8.50	9.00	8.50	10.25	9.50	4.00	8.00	3.50	6.75	7.50	6.75	6.00	6.50	1.00	5.00	-0.209473	0.092773	0.958496	2.100000	6.230000	-0.210000	1169.00	-0.04	-0.09	0.00	0.00	0.25	0.75	0.00	0.25	2.00	0.00	0.00	0.00	0.00	0.00	0.00	0.50	0.00	0.00	-0.018066	-0.187988	0.998047	-15.120000	-14.070000	307.230011	48.00	0.00	0.00
0.50	8.50	8.50	9.00	8.75	10.25	9.50	4.00	8.00	3.25	6.75	7.50	6.50	6.00	6.25	1.00	4.75	-0.205078	0.094727	0.952637	1.750000	5.950000	0.070000	1162.00	-0.04	-0.09	0.00	0.00	0.00	0.75	0.00	0.00	2.00	0.00	0.00	0.00	0.00	0.00	0.00	0.50	0.00	0.00	-0.022461	-0.157715	0.916504	-18.200001	-24.219999	282.869995	43.00	0.00	0.00
0.51	9.00	8.50	9.25	8.75	10.25	9.50	4.00	8.00	3.25	6.50	7.25	6.50	5.75	6.25	1.00	4.75	-0.208984	0.095215	0.954590	1.050000	5.740000	0.210000	1163.00	-0.04	-0.09	0.00	0.00	0.25	0.75	0.00	0.25	2.25	0.00	0.00	0.00	0.00	0.00	0.00	0.50	0.00	0.00	-0.040039	-0.052734	0.902832	-26.740000	-31.710001	263.760010	52.00	0.02	0.13
0.52	9.00	8.75	9.25	8.75	10.25	9.75	4.00	8.00	3.00	6.75	7.25	6.50	6.00	6.25	0.75	4.75	-0.202148	0.101562	0.953613	0.280000	5.390000	0.420000	1167.00	-0.04	-0.09	0.00	0.00	0.00	0.50	0.00	0.00	2.25	0.00	0.00	0.00	0.00	0.00	0.00	0.50	0.00	0.00	-0.105957	0.075195	0.892090	-36.119999	-37.450001	249.619995	44.00	0.00	0.00
0.53	9.00	9.00	9.25	9.00	10.25	9.75	4.00	8.00	3.00	6.50	7.00	6.25	5.75	5.75	0.75	4.75	-0.209961	0.098145	0.960938	-0.350000	4.900000	0.630000	1158.00	-0.05	-0.09	0.00	0.25	0.25	1.00	0.00	0.00	2.00	0.00	0.00	0.00	0.00	0.00	0.00	0.50	0.00	0.00	-0.185059	0.198730	0.830566	-42.420002	-40.599998	239.820007	51.00	-0.01	0.11
0.54	9.25	9.25	9.50	9.25	10.25	10.00	3.75	7.75	2.75	6.25	6.75	6.50	5.50	6.00	0.75	4.50	-0.208496	0.095215	0.961914	-0.560000	4.830000	0.770000	1156.00	-0.05	-0.09	0.00	0.00	0.00	0.50	0.00	0.00	2.00	0.00	0.00	0.00	0.00	0.00	0.00	0.75	0.00	0.00	-0.299805	0.262207	0.777832	-41.020000	-41.580002	232.399994	42.00	0.00	0.00
0.55	9.50	9.25	9.50	9.50	10.25	9.75	3.75	7.75	2.75	6.50	7.25	6.00	5.50	5.75	0.75	4.50	-0.205566	0.094238	0.964844	0.140000	5.250000	0.700000	1159.00	-0.06	-0.09	0.00	0.50	0.00	0.75	0.00	0.00	2.00	0.00	0.00	0.00	0.00	0.00	0.00	0.25	0.00	0.00	-0.371582	0.204102	0.737793	-36.259998	-40.180000	224.979996	45.00	0.00	0.00
0.56	9.75	9.50	9.50	9.50	10.00	9.75	3.75	7.75	2.75	6.00	7.00	6.00	5.50	5.50	0.75	4.50	-0.200684	0.101074	0.957031	0.770000	5.320000	0.560000	1151.00	-0.06	-0.09	0.00	0.25	0.00	1.00	0.00	0.00	2.00	0.00	0.00	0.00	0.00	0.00	0.00	0.25	0.00	0.00	-0.441406	0.177246	0.752930	-24.990000	-37.380001	198.520004	46.00	0.00	0.00
0.57	9.75	9.75	9.50	9.50	10.00	10.00	3.75	7.75	3.25	5.75	6.50	5.75	5.25	5.25	0.75	4.25	-0.206055	0.103027	0.958008	0.980000	5.040000	0.350000	1147.00	-0.06	-0.09	0.00	0.00	0.00	0.75	0.00	0.25	2.00	0.00	0.00	0.00	0.00	0.00	0.00	0.50	0.00	0.00	-0.474121	0.101562	0.704102	-13.860000	-36.119999	178.149994	45.00	0.00	0.00
0.58	10.25	10.00	9.75	9.50	9.75	9.75	3.50	7.50	2.50	5.75	7.00	6.00	5.25	5.25	0.50	4.50	-0.207520	0.094238	0.959473	1.190000	4.970000	0.000000	1141.00	-0.07	-0.09	0.00	0.00	0.25	0.75	0.00	0.00	2.00	0.00	0.00	0.00	0.00	0.00	0.00	0.50	0.00	0.00	-0.536621	0.041504	0.590332	-3.990000	-31.290001	153.580002	46.00	0.00	0.00
0.59	10.25	10.25	9.75	9.75	9.75	9.75	3.50	7.50	2.50	5.75	6.75	5.75	5.25	5.00	0.75	4.25	-0.197266	0.097168	0.961914	1.260000	4.830000	-0.210000	1140.00	-0.07	-0.09	0.25	0.50	0.25	1.50	0.00	0.25	2.00	0.00	0.00	0.00	0.00	0.00	0.00	0.25	0.00	0.00	-2.224121	-1.266602	0.195801	-43.189999	51.170002	107.800003	62.00	-0.09	0.05
0.60	10.75	10.50	9.75	9.75	9.75	9.50	3.25	7.25	1.75	5.50	6.25	5.75	5.00	5.00	0.75	4.00	-0.204590	0.093750	0.969727	1.960000	4.620000	-0.560000	1116.00	-0.08	-0.10	0.25	1.00	0.50	1.75	0.25	0.75	2.25	0.00	0.00	0.00	0.00	0.00	0.00	0.50	0.00	0.00	-3.894531	-1.073242	1.785156	-140.979996	147.770004	5.110000	86.00	-0.10	0.02
0.61	11.25	11.00	10.00	9.75	9.50	9.50	3.25	7.25	2.00	5.50	6.50	5.50	5.00	4.75	0.50	4.25	-0.201660	0.094238	0.955566	3.010000	4.060000	-0.910000	1125.00	-0.08	-0.09	1.00	1.25	1.00	2.25	0.25	0.25	2.25	0.00	0.00	0.00	0.00	0.00	0.00	0.75	0.00	0.00	-0.637207	0.239746	1.802734	-94.639999	60.130001	-14.770000	104.00	-0.14	0.03
0.62	11.25	11.25	10.00	9.75	9.50	9.50	3.00	7.00	2.00	5.50	6.25	5.25	4.75	4.50	0.50	4.25	-0.202637	0.101562	0.966309	3.850000	3.640000	-1.190000	1110.00	-0.09	-0.09	1.00	1.50	1.25	2.75	0.25	0.50	2.25	0.00	0.25	0.00	0.00	0.00	0.00	1.00	0.00	0.00	-0.107910	0.020020	0.670898	-40.670002	-0.070000	-5.810000	122.00	-0.13	0.02
0.63	11.75	11.00	9.75	9.75	9.25	9.25	3.00	7.00	1.75	5.25	5.75	5.25	4.00	4.00	0.25	4.00	-0.207520	0.095215	0.964844	5.180000	3.220000	-1.470000	1079.00	-0.10	-0.09	1.50	2.25	1.50	3.25	0.50	0.50	2.50	0.00	0.25	0.25	0.00	0.00	0.00	1.00	0.00	0.00	-0.073730	0.097168	1.079102	-28.910000	-1.260000	-0.280000	152.00	-0.15	0.02
0.64	11.75	11.25	9.75	9.75	9.00	9.00	3.00	6.75	1.75	5.00	5.75	5.00	4.00	3.75	0.50	4.00	-0.203125	0.099121	0.968750	6.160000	2.730000	-1.820000	1067.00	-0.10	-0.09	2.00	2.75	1.75	3.75	0.50	0.75	2.50	0.25	0.50	0.25	0.00	0.00	0.00	1.00	0.25	0.00	-0.257324	0.069336	0.979980	-17.080000	-7.420000	-0.630000	182.00	-0.15	-0.00
0.65	11.75	11.50	9.75	9.50	8.75	8.75	2.75	6.50	1.25	4.75	5.75	5.00	3.75	3.50	0.25	3.75	-0.204590	0.109863	0.974121	7.490000	1.470000	-1.890000	1037.00	-0.11	-0.09	2.50	3.25	2.25	4.25	0.75	1.00	2.75	0.25	0.25	0.25	0.00	0.00	0.00	1.25	0.50	0.00	-0.239258	0.123047	1.032715	-9.800000	-12.740000	-0.000000	214.00	-0.16	-0.01
0.66	11.50	11.75	9.75	9.50	8.50	8.75	2.75	6.50	1.25	4.75	5.75	4.00	3.75	3.75	0.25	3.75	-0.199707	0.107422	0.963379	8.330000	0.420000	-1.960000	1025.00	-0.11	-0.09	3.25	4.00	2.75	4.50	1.00	1.00	2.75	0.25	0.25	0.25	0.00	0.00	0.00	1.25	0.25	0.00	-0.123047	0.052246	0.961914	-6.580000	-13.580000	2.450000	237.00	-0.19	-0.01
0.67	11.50	12.00	9.75	9.50	8.25	8.50	2.50	6.25	1.00	4.75	5.50	4.50	3.00	3.00	0.25	3.75	-0.209473	0.097656	0.968750	8.680000	-1.050000	-1.470000	1001.00	-0.11	-0.09	3.50	4.50	3.00	5.00	1.00	1.00	2.75	0.00	0.25	0.00	0.00	0.00	0.00	1.50	0.25	0.00	-0.161621	0.088867	0.998047	-2.310000	-12.250000	2.380000	248.00	-0.20	-0.01
0.68	12.00	11.50	9.50	9.25	8.00	8.25	2.50	6.00	1.00	4.50	5.50	4.25	2.75	2.75	0.25	3.75	-0.195312	0.105957	0.971191	8.960000	-2.940000	-1.050000	977.00	-0.12	-0.09	4.50	5.00	3.50	5.25	1.25	1.00	2.75	0.25	0.25	0.25	0.00	0.00	0.00	1.50	0.25	0.00	-0.192383	0.124512	1.001465	0.560000	-10.990000	2.800000	281.00	-0.20	-0.01
0.69	12.00	12.25	9.50	9.25	7.75	8.25	2.25	5.75	1.00	4.25	5.25	4.00	2.00	2.50	0.25	3.50	-0.199707	0.116211	0.965820	9.030000	-4.550000	-1.050000	956.00	-0.13	-0.09	5.50	5.25	3.75	5.50	1.50	1.25	2.50	0.25	0.25	0.00	0.00	0.00	0.00	1.50	0.25	0.00	-0.159668	0.086914	1.014648	2.940000	-10.990000	3.920000	298.00	-0.22	-0.01
0.70	12.25	12.25	9.50	9.25	7.50	8.00	2.25	5.50	0.75	4.00	5.25	4.00	2.25	2.50	0.25	3.50	-0.195312	0.101074	0.961426	8.820000	-5.880000	-0.910000	945.00	-0.13	-0.09	6.00	5.75	4.00	5.75	1.25	1.25	2.50	0.25	0.50	0.00	0.00	0.00	0.00	1.25	0.25	0.00	-0.165527	0.084473	0.979492	6.370000	-11.620000	4.270000	312.00	-0.23	-0.01
0.71	12.50	12.25	9.50	9.25	7.25	7.75	2.25	5.25	0.50	4.00	5.00	3.50	2.00	2.00	0.25	3.75	-0.186523	0.080566	0.985840	7.420000	-5.950000	-0.280000	922.00	-0.14	-0.09	7.00	6.25	4.50	6.00	1.00	1.25	2.50	0.25	0.25	0.00	0.00	0.00	0.00	1.25	0.50	0.00	-0.165039	0.090820	0.991699	10.010000	-11.340000	4.900000	331.00	-0.24	-0.02
0.72	13.00	12.75	9.50	9.00	7.00	7.75	2.00	5.00	0.75	3.75	5.00	3.25	1.50	2.00	0.25	3.50	-0.217773	0.092773	0.947754	6.790000	-6.510000	-0.700000	911.00	-0.15	-0.09	7.50	7.00	5.00	6.25	1.00	1.50	2.50	0.25	0.25	0.00	0.00	0.00	0.00	1.25	0.25	0.00	-0.175293	0.085938	1.011230	14.560000	-12.250000	5.390000	352.00	-0.25	-0.02
0.73	12.50	12.50	9.25	9.00	6.75	7.50	2.00	4.50	0.50	3.75	5.25	3.50	1.25	2.25	0.00	3.50	-0.158691	0.108887	0.965820	5.600000	-6.160000	-0.560000	887.00	-0.14	-0.09	8.25	7.50	5.00	6.50	1.00	1.00	2.50	0.25	0.00	0.00	0.00	0.00	0.00	1.00	0.25	0.00	-0.191895	0.076172	1.023438	20.370001	-15.190001	5.740000	356.00	-0.26	-0.02
0.74	13.50	12.75	9.50	9.00	6.50	7.25	2.00	4.25	0.50	4.00	5.00	3.50	1.25	1.75	0.00	3.50	-0.179199	0.116211	0.946289	4.340000	-6.230000	-0.560000	889.00	-0.15	-0.08	8.75	8.25	5.00	7.50	1.00	1.50	2.50	0.00	0.25	0.00	0.00	0.00	0.00	1.00	0.25	0.00	-0.187988	0.079590	1.058594	30.660000	-20.580000	6.020000	384.00	-0.27	-0.02
0.75	13.25	12.75	9.25	9.00	6.25	7.25	2.00	4.00	0.75	3.75	4.75	3.50	1.00	1.75	0.25	3.50	-0.177734	0.114258	0.956543	3.360000	-6.090000	-0.490000	876.00	-0.15	-0.08	9.50	9.00	5.25	7.50	1.25	1.25	2.25	0.00	0.25	0.00	0.00	0.00	0.00	0.50	0.25	0.00	-0.153320	0.120605	1.033203	38.430000	-26.670000	5.530000	394.00	-0.28	-0.02
0.76	13.25	13.50	9.25	9.00	6.00	7.00	2.00	3.50	0.25	3.50	4.75	3.00	0.75	1.50	0.00	3.50	-0.183105	0.113770	0.951172	3.780000	-6.790000	-0.420000	848.00	-0.17	-0.08	9.75	9.50	5.50	8.00	1.00	1.50	2.25	0.25	0.00	0.00	0.00	0.00	0.00	1.00	0.25	0.00	-0.144043	0.166992	0.959473	42.420002	-31.710001	8.750000	414.00	-0.28	-0.03
0.77	13.75	14.00	9.25	9.00	5.75	6.75	1.75	3.25	0.25	3.50	4.75	3.00	0.75	1.50	0.00	3.50	-0.169434	0.128906	0.941895	3.150000	-6.720000	-0.280000	845.00	-0.17	-0.08	10.00	10.25	5.75	8.50	1.00	1.50	2.25	0.25	0.00	0.00	0.00	0.00	0.00	0.75	0.00	0.00	-0.127930	0.142090	0.961426	37.240002	-30.799999	8.890000	427.00	-0.29	-0.04
0.78	13.50	13.75	9.25	9.25	5.50	6.75	1.75	2.75	0.50	3.50	4.75	3.25	0.50	1.75	0.00	3.50	-0.172852	0.119141	0.958008	2.660000	-5.810000	-0.070000	839.00	-0.17	-0.07	11.25	10.75	6.00	8.75	0.75	1.50	2.25	0.25	0.00	0.00	0.00	0.00	0.00	1.00	0.00	0.00	-0.117188	0.160156	0.948730	32.130001	-30.100000	8.190000	449.00	-0.29	-0.03
0.79	14.00	14.50	9.25	9.25	5.50	6.75	1.75	2.75	0.00	3.25	4.75	3.00	0.50	1.25	0.00	3.50	-0.171387	0.122559	0.956055	2.590000	-5.320000	0.000000	835.00	-0.18	-0.08	11.75	11.25	6.25	9.00	0.75	1.75	2.25	0.00	0.00	0.00	0.00	0.00	0.00	0.50	0.00	0.00	-0.121094	0.169922	0.950195	27.440001	-28.000000	7.560000	459.00	-0.30	-0.03
0.80	14.75	14.50	9.25	9.25	5.25	6.50	1.75	2.25	0.25	3.25	4.75	3.00	0.00	1.00	0.00	3.25	-0.162109	0.130371	0.948730	1.960000	-4.410000	-0.070000	825.00	-0.19	-0.07	12.50	11.75	6.50	9.25	0.75	2.00	2.25	0.25	0.00	0.00	0.00	0.00	0.00	0.50	0.00	0.00	-0.126953	0.162109	0.963379	23.450001	-26.809999	7.210000	484.00	-0.30	-0.04
0.81	14.50	14.50	9.25	9.00	5.25	6.50	1.50	2.25	0.25	3.75	4.50	3.25	0.25	1.00	0.00	3.50	-0.166504	0.123047	0.944336	1.400000	-3.710000	-0.070000	824.00	-0.18	-0.07	13.25	12.50	6.50	9.50	0.75	2.00	2.25	0.25	0.00	0.00	0.00	0.00	0.00	0.75	0.00	0.00	-0.122070	0.167969	0.968750	20.440001	-25.969999	6.790000	503.00	-0.30	-0.04
0.82	15.00	14.75	9.25	9.25	5.00	6.25	1.50	2.00	0.25	3.00	4.75	3.00	0.25	1.25	0.00	3.25	-0.163574	0.126953	0.952637	1.260000	-3.360000	-0.140000	818.00	-0.19	-0.07	13.75	13.25	7.00	9.75	0.75	2.00	2.25	0.25	0.00	0.00	0.00	0.00	0.00	0.50	0.00	0.00	-0.115723	0.157715	0.975098	18.760000	-26.040001	6.650000	521.00	-0.31	-0.04
0.83	14.50	15.25	9.25	9.25	4.75	6.25	1.75	2.00	0.00	3.25	4.50	3.00	0.00	1.25	0.00	3.50	-0.170410	0.122559	0.950684	1.470000	-3.430000	-0.140000	815.00	-0.19	-0.07	14.50	14.00	7.50	10.00	0.75	2.00	2.25	0.25	0.00	0.00	0.00	0.00	0.00	0.50	0.00	0.00	-0.116211	0.171875	0.959961	16.799999	-24.990000	6.650000	544.00	-0.31	-0.04
0.84	15.25	15.00	9.00	9.00	4.50	6.00	1.50	1.75	0.25	2.75	4.50	2.75	0.25	1.25	0.00	3.25	-0.165039	0.124512	0.950684	1.120000	-2.450000	-0.140000	798.00	-0.19	-0.07	15.50	14.25	7.50	10.25	0.75	1.75	2.25	0.00	0.00	0.00	0.00	0.00	0.00	0.50	0.25	0.00	-0.106445	0.172363	0.967773	14.840000	-23.590000	6.300000	556.00	-0.31	-0.03
0.85	15.00	15.75	9.00	9.00	4.50	6.00	1.50	1.75	0.25	3.00	4.50	3.00	0.25	0.75	0.00	3.25	-0.161621	0.122559	0.977051	-0.700000	0.700000	0.070000	803.00	-0.20	-0.07	16.00	15.00	7.50	10.50	0.75	2.00	2.00	0.00	0.00	0.00	0.00	0.00	0.00	0.50	0.00	0.00	-0.104004	0.179688	0.944336	13.300000	-22.540001	6.090000	567.00	-0.32	-0.04
0.86	15.50	15.25	9.00	9.00	4.25	5.75	1.50	1.50	0.00	3.00	4.50	3.00	0.00	1.00	0.00	3.25	-0.153320	0.125488	0.930664	-2.100000	3.150000	0.140000	791.00	-0.20	-0.07	17.00	15.75	7.75	10.75	0.75	2.00	2.00	0.25	0.00	0.00	0.00	0.00	0.00	0.25	0.00	0.00	-0.101562	0.177734	0.951172	11.970000	-20.650000	6.090000	592.00	-0.32	-0.04
0.87	15.00	15.25	9.00	9.00	4.25	5.50	1.50	1.25	0.00	3.00	4.50	2.50	0.00	0.75	0.00	3.50	-0.151855	0.125977	0.948242	-2.380000	2.380000	0.350000	773.00	-0.20	-0.07	17.00	16.00	8.25	11.00	0.75	2.25	2.00	0.00	0.00	0.00	0.00	0.00	0.00	0.25	0.00	0.00	-0.087891	0.176758	0.950684	10.920000	-18.830000	5.950000	601.00	-0.32	-0.04
0.88	14.75	15.00	9.00	8.75	4.25	5.50	1.50	1.25	0.25	3.00	4.50	3.00	0.00	0.75	0.00	3.50	-0.158203	0.119629	0.948730	-2.170000	1.890000	0.140000	774.00	-0.20	-0.07	17.50	16.75	8.00	11.00	0.75	2.00	2.00	0.00	0.00	0.00	0.00	0.00	0.00	0.25	0.00	0.00	-0.083008	0.175781	0.958496	10.010000	-16.940001	5.810000	608.00	-0.32	-0.04
0.89	14.75	15.00	8.75	9.00	4.00	5.50	1.50	1.25	0.00	3.00	4.25	2.75	0.00	1.00	0.00	3.50	-0.181152	0.124512	0.911133	-1.820000	1.960000	-0.420000	765.00	-0.20	-0.07	18.00	17.00	8.50	11.25	0.75	2.25	2.25	0.00	0.00	0.00	0.00	0.00	0.00	0.25	0.00	0.00	-0.086914	0.182617	0.957520	9.240000	-15.120000	5.600000	630.00	-0.32	-0.04
0.90	14.50	14.75	8.75	8.75	4.00	5.25	1.50	1.00	0.50	3.00	3.75	3.25	0.00	0.25	0.00	3.25	-0.154785	0.120605	0.951660	-1.540000	2.520000	-0.630000	750.00	-0.20	-0.06	18.25	17.50	8.50	11.50	0.50	2.25	2.00	0.00	0.25	0.00	0.00	0.00	0.00	0.50	0.25	0.00	-0.082520	0.186523	0.951660	8.050000	-13.510000	5.460000	641.00	-0.32	-0.04
0.91	14.25	15.00	8.75	8.75	3.75	5.25	1.50	1.00	0.00	3.00	4.25	2.75	0.00	0.75	0.00	3.50	-0.165039	0.120605	0.954590	-1.400000	2.800000	-0.140000	746.00	-0.20	-0.07	19.00	17.50	8.50	11.75	0.75	2.50	2.00	0.00	0.00	0.00	0.00	0.00	0.00	0.25	0.00	0.00	-0.079102	0.174316	0.946289	7.070000	-11.900000	4.830000	649.00	-0.32	-0.04
0.92	14.50	14.75	9.00	9.00	3.50	5.00	1.50	1.00	0.00	3.00	4.25	2.75	0.00	0.50	0.00	3.25	-0.154785	0.126465	0.957031	-1.540000	3.430000	0.210000	743.00	-0.20	-0.07	18.75	17.75	8.75	11.75	0.75	2.25	2.00	0.00	0.00	0.00	0.00	0.00	0.00	0.25	0.00	0.00	-0.086426	0.185547	0.967285	6.300000	-10.360000	4.200000	649.00	-0.32	-0.04
0.93	14.50	15.25	8.75	8.75	3.50	5.00	1.50	1.25	0.00	3.25	4.25	2.75	0.00	0.75	0.00	3.25	-0.164551	0.115234	0.959961	-0.980000	3.570000	0.140000	750.00	-0.20	-0.07	19.50	18.00	8.50	11.75	0.75	2.50	2.00	0.00	0.00	0.00	0.00	0.00	0.00	0.50	0.00	0.00	-0.094238	0.184082	0.967773	5.740000	-9.380000	4.130000	661.00	-0.32	-0.04
0.94	14.50	15.00	8.75	8.75	3.50	5.00	1.25	1.00	0.00	3.00	4.00	3.00	0.00	0.75	0.00	3.50	-0.148926	0.130371	0.958008	-0.700000	3.850000	0.210000	739.00	-0.20	-0.07	19.25	18.25	8.75	11.75	0.75	2.50	2.00	0.00	0.00	0.00	0.00	0.00	0.00	0.25	0.00	0.00	-0.085449	0.188965	0.973633	5.670000	-8.820000	3.850000	662.00	-0.33	-0.04
0.95	14.25	15.25	9.00	8.75	3.25	5.00	1.25	1.00	0.00	2.75	4.00	2.75	0.00	0.50	0.00	3.25	-0.145508	0.139648	0.951172	-0.630000	3.990000	0.280000	730.00	-0.21	-0.07	19.50	18.25	9.00	12.00	0.75	2.50	2.00	0.00	0.00	0.00	0.00	0.00	0.00	0.25	0.00	0.00	-0.082031	0.187988	0.952148	5.390000	-8.610000	3.430000	670.00	-0.33	-0.04
0.96	14.75	15.25	9.00	9.00	3.50	5.00	1.25	0.75	0.50	3.00	4.00	2.50	0.00	0.25	0.00	3.50	-0.150879	0.126465	0.951172	-1.330000	5.390000	0.280000	743.00	-0.21	-0.06	19.75	18.25	8.75	12.00	0.50	2.50	2.00	0.00	0.00	0.00	0.00	0.00	0.00	0.25	0.00	0.00	-0.086426	0.185547	0.966797	4.130000	-6.300000	2.380000	667.00	-0.33	-0.04
0.97	14.75	15.50	8.75	9.00	3.50	5.00	1.25	1.00	0.00	2.75	4.00	2.75	0.00	0.50	0.00	3.25	-0.158203	0.121094	0.965332	-1.260000	5.600000	0.070000	740.00	-0.21	-0.07	19.50	18.50	8.75	12.25	0.75	2.50	2.00	0.00	0.00	0.00	0.00	0.00	0.00	0.25	0.00	0.00	-0.082031	0.184570	0.966309	3.220000	-6.020000	1.890000	672.00	-0.33	-0.04
0.98	14.50	15.25	9.00	9.00	3.50	4.75	1.25	1.00	0.00	2.75	4.00	2.75	0.00	0.50	0.00	3.25	-0.148438	0.121582	0.948730	-1.190000	5.460000	0.000000	735.00	-0.21	-0.07	19.50	18.50	8.75	12.25	0.75	2.75	2.00	0.25	0.00	0.00	0.00	0.00	0.00	0.00	0.00	0.00	-0.081543	0.196777	0.965332	2.450000	-5.530000	1.050000	676.00	-0.33	-0.04
0.99	14.75	15.50	9.00	9.00	3.50	5.00	1.25	1.00	0.00	3.00	4.00	2.50	0.00	0.50	0.00	3.50	-0.154297	0.125977	0.957031	-1.330000	5.740000	0.000000	744.00	-0.21	-0.07	19.50	18.25	9.00	12.00	0.75	2.75	2.00	0.25	0.00	0.00	0.00	0.00	0.00	0.00	0.00	0.00	-0.081055	0.190918	0.970215	1.750000	-5.320000	0.630000	674.00	-0.33	-0.04
1.00	15.00	15.50	9.00	9.25	3.50	5.00	1.25	1.00	0.00	3.00	4.00	2.75	0.00	0.50	0.00	3.25	-0.156738	0.121582	0.967285	-1.120000	5.950000	0.000000	751.00	-0.21	-0.07	19.50	18.50	8.75	12.00	0.75	2.75	2.00	0.00	0.00	0.00	0.00	0.00	0.00	0.25	0.00	0.00	-0.084961	0.182617	0.970703	1.190000	-5.740000	0.350000	672.00	-0.33	-0.04
1.01	15.25	15.75	9.25	9.25	3.50	5.00	1.25	1.00	0.00	2.75	4.00	2.75	0.00	0.50	0.00	3.25	-0.145996	0.127930	0.952637	-0.910000	5.810000	-0.070000	756.00	-0.21	-0.07	19.75	18.00	8.75	12.00	0.75	2.50	2.00	0.00	0.00	0.00	0.00	0.00	0.00	0.25	0.00	0.00	-0.079102	0.191406	0.961426	0.350000	-5.110000	-0.420000	667.00	-0.33	-0.04
1.02	15.75	16.25	9.25	9.50	3.50	5.00	1.25	1.25	0.00	2.75	3.75	3.00	0.00	0.25	0.00	3.25	-0.152832	0.122070	0.948730	-0.770000	6.160000	-0.140000	770.00	-0.22	-0.07	19.25	18.75	9.00	12.00	0.75	2.75	2.00	0.25	0.25	0.00	0.00	0.00	0.00	0.00	0.00	0.00	-0.082031	0.191895	0.962891	-0.630000	-5.110000	-0.700000	679.00	-0.32	-0.04
1.03	16.50	16.75	9.25	9.50	3.25	5.00	1.25	1.00	0.00	3.00	4.00	2.75	0.00	0.25	0.00	3.50	-0.156738	0.125488	0.963379	-0.350000	6.720000	-0.420000	780.00	-0.22	-0.07	19.50	18.50	9.00	12.00	0.75	2.75	2.00	0.25	0.00	0.00	0.00	0.00	0.00	0.25	0.00	0.00	-0.078613	0.172852	0.965820	-1.820000	-4.480000	-1.120000	679.00	-0.32	-0.04
1.04	16.25	16.50	9.50	9.50	3.50	5.25	1.25	1.00	0.00	3.00	4.00	2.50	0.00	0.50	0.00	3.50	-0.152832	0.119629	0.953613	0.350000	6.580000	-0.420000	783.00	-0.22	-0.07	20.00	18.50	8.75	12.00	0.75	2.75	2.00	0.25	0.00	0.00	0.00	0.00	0.00	0.25	0.00	0.00	-0.090332	0.194824	0.978027	-1.190000	-4.550000	-1.190000	681.00	-0.32	-0.04
1.05	16.25	17.25	9.25	9.50	3.50	5.25	1.25	1.25	0.00	2.75	3.75	2.75	0.00	0.75	0.00	3.25	-0.156250	0.121094	0.967773	0.840000	6.440000	-0.280000	789.00	-0.22	-0.07	19.75	18.25	9.00	12.00	0.75	2.75	2.00	0.00	0.00	0.00	0.00	0.00	0.00	0.25	0.00	0.00	-0.096191	0.185059	0.980957	-0.420000	-4.760000	-1.540000	675.00	-0.32	-0.04
1.06	16.75	17.75	9.75	10.25	3.50	5.50	1.25	1.25	0.25	3.00	4.25	2.75	0.00	0.25	0.00	3.50	-0.155762	0.121582	0.956543	1.400000	5.600000	-0.490000	824.00	-0.22	-0.07	19.25	18.25	8.75	12.00	0.75	2.75	2.00	0.00	0.00	0.00	0.00	0.00	0.00	0.00	0.00	0.00	-0.079102	0.191406	0.952637	-1.330000	-4.690000	-2.380000	665.00	-0.33	-0.04
1.07	16.75	18.00	9.50	10.25	3.50	5.75	1.25	1.00	0.00	2.75	4.00	2.50	0.00	0.50	0.00	3.50	-0.153320	0.135254	0.942383	1.260000	6.090000	-0.630000	813.00	-0.22	-0.07	19.50	18.25	8.75	12.00	0.75	2.50	2.00	0.00	0.00	0.00	0.00	0.00	0.00	0.25	0.00	0.00	-0.075195	0.204590	0.959961	-2.660000	-3.010000	-2.520000	667.00	-0.33	-0.04
1.08	17.00	18.75	10.00	10.25	3.50	6.00	1.25	1.25	0.00	3.00	4.00	3.00	0.00	0.00	0.00	3.25	-0.161133	0.128906	0.949707	0.490000	7.840000	-0.630000	837.00	-0.23	-0.07	19.50	18.00	8.75	11.75	0.75	2.25	2.00	0.00	0.00	0.00	0.00	0.00	0.00	0.25	0.00	0.00	-0.078125	0.207520	0.951172	-3.710000	-1.470000	-2.100000	659.00	-0.33	-0.04
1.09	17.00	19.25	10.00	11.00	3.50	6.25	1.25	1.50	0.00	3.00	4.25	2.75	0.00	0.50	0.00	3.50	-0.162109	0.112305	0.961914	0.630000	7.770000	-0.560000	862.00	-0.22	-0.08	19.50	18.00	8.75	11.75	0.75	2.25	2.00	0.25	0.00	0.00	0.00	0.00	0.00	0.25	0.00	0.00	-0.079590	0.198242	0.950195	-5.040000	0.280000	-1.680000	663.00	-0.32	-0.04
1.10	18.00	19.75	10.00	11.50	4.00	6.75	1.25	1.50	0.00	3.00	4.00	2.75	0.00	0.25	0.00	3.50	-0.151855	0.137695	0.937988	0.700000	8.400000	-0.910000	888.00	-0.23	-0.08	19.25	17.75	8.50	11.75	0.50	2.50	2.00	0.00	0.00	0.00	0.00	0.00	0.00	0.25	0.00	0.00	-0.083496	0.201172	0.955566	-6.440000	2.100000	-1.680000	651.00	-0.33	-0.04
1.11	18.50	20.75	10.50	11.75	4.00	7.25	1.25	1.75	0.00	2.75	4.50	2.75	0.00	0.25	0.00	3.25	-0.147949	0.126953	0.952637	0.630000	9.380000	-0.840000	922.00	-0.23	-0.08	18.50	17.50	8.50	11.50	0.75	2.25	2.00	0.00	0.00	0.00	0.00	0.00	0.00	0.25	0.00	0.00	-0.083496	0.197754	0.952148	-7.350000	3.500000	-1.610000	639.00	-0.32	-0.04
1.12	19.00	21.25	10.50	12.50	4.25	7.50	1.25	1.75	0.00	2.75	4.25	2.75	0.00	0.50	0.00	3.25	-0.152832	0.121582	0.946289	0.560000	10.150000	-1.120000	945.00	-0.23	-0.08	18.50	17.25	8.50	11.50	0.50	2.25	2.00	0.00	0.00	0.00	0.00	0.00	0.00	0.00	0.00	0.00	-0.095703	0.199707	0.957031	-8.050000	4.270000	-1.190000	632.00	-0.33	-0.04
1.13	19.50	22.50	11.25	12.25	4.50	8.00	1.25	1.75	0.00	3.25	4.25	3.00	0.00	0.25	0.00	3.50	-0.157227	0.130859	0.959473	0.630000	10.640000	-1.470000	982.00	-0.23	-0.08	18.00	16.75	8.50	11.25	0.50	2.25	2.00	0.00	0.00	0.00	0.00	0.00	0.00	0.25	0.00	0.00	-0.087891	0.203613	0.965332	-8.890000	4.620000	-1.120000	621.00	-0.32	-0.04
1.14	20.75	22.75	11.50	13.25	5.00	8.25	1.25	2.50	0.00	2.75	4.25	3.00	0.25	0.50	0.00	3.50	-0.149414	0.117676	0.939941	1.120000	9.940000	-1.960000	1030.00	-0.23	-0.08	17.50	16.50	8.25	11.00	0.50	2.00	2.00	0.25	0.00	0.00	0.00	0.00	0.00	0.25	0.00	0.00	-0.079590	0.203613	0.932617	-10.920000	6.230000	-1.190000	609.00	-0.32	-0.04
1.15	20.75	23.50	11.75	14.00	5.25	8.75	1.25	2.75	0.00	3.00	4.00	3.00	0.00	0.50	0.00	3.25	-0.147949	0.130859	0.919434	1.050000	10.570000	-2.450000	1056.00	-0.23	-0.08	17.25	16.25	8.00	10.75	0.50	2.00	2.00	0.00	0.00	0.00	0.00	0.00	0.00	0.25	0.00	0.00	-0.074707	0.201172	0.938965	-13.790000	8.960000	-1.120000	595.00	-0.32	-0.04
1.16	21.75	24.00	12.25	14.75	5.50	9.50	1.50	3.50	0.25	3.00	4.25	3.00	0.25	0.00	0.00	3.50	-0.139648	0.121582	0.922852	0.280000	12.110000	-2.520000	1116.00	-0.23	-0.08	16.50	15.50	8.00	10.75	0.50	1.75	2.00	0.00	0.00	0.00	0.00	0.00	0.00	0.25	0.00	0.00	-0.080078	0.202637	0.928711	-20.860001	16.240000	-1.750000	578.00	-0.32	-0.04
1.17	22.50	25.00	13.00	15.75	6.25	10.50	1.50	4.75	0.25	2.75	4.25	2.75	0.25	0.00	0.25	3.50	-0.166016	0.116211	0.938965	0.770000	12.950000	-3.220000	1188.00	-0.23	-0.09	15.75	15.00	7.50	10.25	0.50	1.75	2.00	0.00	0.00	0.00	0.00	0.00	0.00	0.25	0.00	0.00	-0.089844	0.194336	0.946289	-24.430000	19.740000	-1.960000	554.00	-0.32	-0.04
1.18	23.25	25.75	13.50	16.50	6.50	11.25	1.50	5.25	0.00	3.25	4.25	3.25	0.75	0.50	0.25	3.75	-0.148926	0.125000	0.920898	0.980000	13.510000	-3.500000	1252.00	-0.22	-0.09	14.50	14.25	7.50	10.00	0.50	1.25	2.00	0.00	0.00	0.00	0.00	0.00	0.00	0.25	0.00	0.00	-0.084961	0.173828	0.928711	-27.930000	23.309999	-2.380000	526.00	-0.32	-0.03
1.19	23.50	26.50	14.00	17.00	7.00	12.25	1.50	5.75	0.00	3.25	4.25	3.00	1.00	0.50	0.25	3.75	-0.140625	0.138184	0.930176	0.140000	15.960000	-3.640000	1296.00	-0.22	-0.10	13.75	13.50	7.00	9.50	0.50	1.25	2.00	0.00	0.00	0.00	0.00	0.00	0.00	0.25	0.00	0.00	-0.088379	0.172852	0.925781	-31.430000	27.510000	-3.220000	500.00	-0.32	-0.03
1.20	24.75	27.00	14.50	17.75	7.75	13.50	1.75	6.50	0.00	3.25	4.25	3.50	1.25	0.25	0.25	3.75	-0.134766	0.134277	0.905762	-1.820000	19.180000	-3.990000	1370.00	-0.22	-0.10	12.75	12.25	6.50	9.00	0.50	1.25	2.00	0.25	0.00	0.00	0.00	0.00	0.00	0.50	0.00	0.00	-0.099609	0.176270	0.936523	-35.770000	32.480000	-4.480000	473.00	-0.31	-0.04
1.21	24.50	27.25	14.75	18.25	8.50	14.25	1.75	7.00	0.25	3.50	4.50	3.75	1.75	1.00	0.25	4.00	-0.150879	0.129883	0.937012	-4.900000	23.450001	-4.410000	1425.00	-0.21	-0.10	10.75	11.00	6.00	8.50	0.50	1.00	2.00	0.00	0.00	0.00	0.00	0.00	0.00	0.25	0.00	0.00	-0.102539	0.171875	0.945801	-40.810001	37.240002	-5.950000	422.00	-0.31	-0.03
1.22	24.00	27.25	14.75	18.50	9.00	15.25	2.25	7.50	0.25	3.50	5.00	3.75	2.00	0.75	0.25	4.00	-0.166504	0.136719	0.952148	-8.050000	27.790001	-4.620000	1460.00	-0.20	-0.10	9.25	9.50	5.25	7.75	0.50	0.75	2.00	0.00	0.00	0.00	0.00	0.00	0.00	0.25	0.00	0.00	-0.106445	0.172852	0.946777	-47.250000	42.000000	-8.120000	373.00	-0.30	-0.03
1.23	23.50	26.75	15.00	19.00	9.50	15.75	2.25	8.25	0.25	3.75	5.00	4.00	2.50	1.00	0.25	4.00	-0.155762	0.142578	0.962891	-10.500000	30.450001	-4.550000	1492.00	-0.20	-0.11	7.00	7.75	4.25	7.25	0.25	0.75	2.00	0.25	0.00	0.00	0.00	0.00	0.00	0.25	0.00	0.00	-0.121582	0.147461	0.977051	-53.060001	46.759998	-10.850000	318.00	-0.29	-0.04
1.24	23.00	26.25	14.50	18.50	10.25	16.50	2.50	8.75	0.25	4.00	5.50	4.75	3.25	1.25	0.25	4.50	-0.192871	0.132812	0.999512	-11.830000	31.990000	-4.550000	1526.00	-0.19	-0.11	5.25	6.00	3.25	5.75	0.25	0.50	2.00	0.00	0.00	0.00	0.00	0.00	0.00	0.25	0.00	0.00	-0.177246	0.103516	1.024414	-57.119999	48.299999	-15.330000	250.00	-0.28	-0.03
1.25	22.00	25.00	14.25	18.25	10.50	16.75	2.75	9.00	0.75	4.25	5.75	5.00	3.75	1.50	0.50	4.50	-0.189453	0.140625	0.986328	-11.270000	31.290001	-4.270000	1535.00	-0.17	-0.11	3.50	4.75	2.00	4.50	0.00	0.50	2.00	0.00	0.00	0.00	0.00	0.00	0.00	0.25	0.00	0.00	-0.045898	0.067383	1.024902	-59.709999	45.849998	-25.760000	189.00	-0.27	-0.03
1.26	21.25	24.00	13.75	17.75	10.75	16.75	3.00	9.50	0.75	4.25	6.25	5.75	5.00	1.75	0.50	4.75	-0.171875	0.137695	1.044434	-9.870000	30.030001	-3.360000	1549.00	-0.16	-0.11	2.00	3.00	1.50	3.75	0.00	0.50	2.00	0.00	0.00	0.00	0.00	0.00	0.00	0.25	0.00	0.00	-0.258789	0.169922	1.048828	-54.250000	38.220001	-45.360001	144.00	-0.23	-0.03
1.27	19.75	22.00	13.25	16.75	10.75	16.75	3.25	9.75	1.25	4.75	6.75	6.00	5.75	1.75	0.50	4.75	-0.181152	0.130859	0.962891	-7.420000	28.210001	-3.220000	1532.00	-0.15	-0.12	1.50	2.25	0.75	3.00	0.00	0.25	2.00	0.00	0.00	0.00	0.00	0.00	0.00	0.25	0.00	0.00	-0.307129	-0.043457	1.595703	-18.480000	62.720001	-85.190002	113.00	-0.21	-0.01
1.28	18.00	20.25	12.75	16.00	10.75	16.75	3.25	10.25	1.50	5.50	7.00	6.75	6.25	2.00	0.75	5.00	-0.195312	0.125977	0.982910	-4.900000	27.370001	-3.010000	1524.00	-0.13	-0.12	1.00	1.75	1.00	2.75	0.00	0.25	2.00	0.00	0.00	0.00	0.00	0.00	0.00	0.00	0.00	0.00	-0.339844	0.406250	1.249512	-6.160000	107.309998	-130.690002	101.00	-0.20	-0.01
1.29	16.25	18.25	11.75	14.50	10.50	16.50	3.50	10.50	1.50	6.00	7.50	7.50	6.75	2.25	0.75	5.00	-0.211914	0.136230	0.981934	-1.680000	25.969999	-2.520000	1487.00	-0.12	-0.12	1.00	1.75	0.75	1.75	0.00	0.25	2.00	0.00	0.00	0.00	0.00	0.00	0.00	0.00	0.00	0.00	-0.200195	0.476074	1.389648	-19.320000	145.949997	-159.039993	87.00	-0.19	0.02
1.30	14.50	16.25	10.75	13.50	10.25	16.50	3.50	11.00	1.75	6.25	7.75	7.75	7.25	2.75	0.75	5.25	-0.198730	0.124512	0.970215	0.630000	24.570000	-1.820000	1454.00	-0.10	-0.13	0.75	1.25	0.75	2.00	0.00	0.00	2.00	0.00	0.00	0.00	0.00	0.00	0.00	0.00	0.00	0.00	0.210449	0.825684	2.089355	-79.590004	150.500000	-157.570007	80.00	-0.18	0.03
1.31	12.25	13.50	10.00	12.25	9.75	16.00	3.50	11.25	2.00	6.75	8.25	8.25	7.75	3.25	0.75	5.50	-0.242188	0.096191	0.963867	1.260000	24.500000	-1.960000	1405.00	-0.08	-0.13	0.75	1.00	0.75	2.00	0.00	0.00	2.00	0.00	0.00	0.00	0.00	0.00	0.00	0.25	0.00	0.00	1.018066	1.636719	2.074707	-71.750000	119.070000	-130.270004	80.00	-0.15	0.04
1.32	9.75	11.25	9.00	10.75	9.25	15.75	3.75	11.25	2.25	7.00	8.75	8.75	8.00	3.75	0.75	5.50	-0.212402	0.123047	0.965332	0.910000	25.270000	-2.590000	1349.00	-0.06	-0.13	0.50	1.00	0.75	1.50	0.00	0.00	2.00	0.00	0.00	0.00	0.00	0.00	0.00	0.00	0.00	0.00	1.346191	1.240234	1.308105	-36.189999	92.050003	-105.769997	70.00	-0.15	0.05
1.33	8.00	9.25	8.00	9.25	8.75	15.25	3.75	11.50	3.25	7.50	9.00	9.25	8.50	4.00	1.25	5.75	-0.182617	0.139648	0.974121	0.910000	25.830000	-3.500000	1317.00	-0.03	-0.13	0.25	0.75	0.50	1.50	0.00	0.00	2.00	0.00	0.00	0.00	0.00	0.00	0.00	0.00	0.00	0.00	1.739746	1.392578	1.320312	-27.230000	82.529999	-81.199997	62.00	-0.12	0.05
1.34	6.50	8.00	7.50	8.25	8.00	14.50	3.75	11.50	3.75	7.75	9.50	9.75	8.75	4.50	1.25	5.75	-0.210449	0.125488	0.968750	0.700000	26.740000	-4.410000	1283.00	-0.01	-0.13	0.25	1.00	0.25	1.75	0.00	0.00	2.00	0.00	0.00	0.00	0.00	0.00	0.00	0.00	0.00	0.00	2.142090	1.541504	1.456543	-11.060000	61.459999	-52.849998	64.00	-0.14	0.03
1.35	5.50	6.50	6.50	7.50	7.25	14.00	3.75	11.25	3.75	8.25	10.25	10.25	9.00	4.75	1.50	6.00	-0.182617	0.127930	0.960449	1.400000	28.139999	-5.600000	1249.00	0.01	-0.14	0.25	1.00	0.50	1.25	0.00	0.00	2.00	0.00	0.00	0.00	0.00	0.00	0.00	0.00	0.00	0.00	2.316406	1.369141	1.249023	11.620000	31.570000	-24.150000	61.00	-0.13	0.06
1.36	4.25	5.75	5.75	6.50	6.25	13.25	3.75	11.25	4.50	8.25	10.75	10.75	9.50	5.25	1.50	6.25	-0.221191	0.149902	0.991699	2.380000	29.820000	-6.580000	1221.00	0.02	-0.14	0.50	1.00	0.25	1.50	0.00	0.25	2.00	0.00	0.00	0.00	0.00	0.00	0.00	0.00	0.00	0.00	2.358887	1.029785	1.254395	49.700001	-22.120001	23.940001	67.00	-0.14	0.03
1.37	3.00	5.00	4.75	5.75	5.25	12.00	3.75	11.00	5.25	8.75	11.25	11.25	9.75	6.00	1.75	6.25	-0.215820	0.125000	0.965820	3.080000	31.639999	-7.560000	1190.00	0.05	-0.14	0.50	0.75	0.25	1.25	0.00	0.00	2.00	0.00	0.00	0.00	0.00	0.00	0.00	0.00	0.00	0.00	2.249512	0.869629	1.283691	65.099998	-50.680000	42.349998	59.00	-0.12	0.07
1.38	2.25	4.50	3.25	5.00	4.50	11.00	3.75	10.75	5.50	9.00	11.75	11.75	9.75	6.75	1.75	6.50	-0.231445	0.130371	0.961914	2.100000	35.770000	-10.080000	1154.00	0.07	-0.14	0.25	1.00	0.50	1.25	0.00	0.00	2.00	0.00	0.00	0.00	0.00	0.00	0.00	0.00	0.00	0.00	2.105957	0.684082	1.382324	76.090004	-78.680000	58.029999	61.00	-0.13	0.06
1.39	1.75	3.25	2.75	4.50	3.25	9.75	3.75	10.50	6.50	9.50	12.50	12.50	10.25	7.50	2.25	6.75	-0.246094	0.137207	0.959961	2.100000	38.150002	-10.780000	1147.00	0.09	-0.13	0.00	1.00	0.25	1.00	0.00	0.00	2.00	0.00	0.00	0.00	0.00	0.00	0.00	0.00	0.00	0.00	1.922363	0.521484	1.508301	81.690002	-107.029999	70.209999	53.00	-0.10	0.07
1.40	1.00	2.50	2.25	4.00	2.75	9.00	3.75	10.25	7.25	9.75	13.00	13.00	10.50	8.00	2.00	6.75	-0.235840	0.130859	0.953125	2.310000	40.040001	-12.180000	1130.00	0.11	-0.13	0.25	1.00	0.50	1.25	0.00	0.00	2.00	0.00	0.00	0.00	0.00	0.00	0.00	0.00	0.00	0.00	1.672363	0.365234	1.600098	83.650002	-135.869995	78.750000	61.00	-0.13	0.06
1.41	0.50	2.00	2.00	3.25	2.00	8.00	3.75	10.00	7.50	10.00	13.50	13.50	10.25	8.50	2.25	7.00	-0.234863	0.127930	0.945801	3.080000	42.630001	-13.020000	1109.00	0.13	-0.13	0.25	0.75	0.00	1.00	0.00	0.00	2.00	0.00	0.00	0.00	0.00	0.00	0.00	0.00	0.00	0.00	1.376953	0.237305	1.617188	81.340004	-162.050003	84.910004	51.00	-0.09	0.08
1.42	0.50	1.75	1.50	2.75	1.50	7.25	3.50	9.50	8.25	10.75	14.00	14.00	10.75	9.00	2.50	7.00	-0.258301	0.128418	0.946289	3.710000	45.080002	-13.790000	1110.00	0.14	-0.13	0.25	1.00	0.00	1.25	0.00	0.00	2.00	0.00	0.00	0.00	0.00	0.00	0.00	0.00	0.00	0.00	1.076172	0.187988	1.616211	77.279999	-183.050003	89.180000	56.00	-0.11	0.05
1.43	0.50	1.50	1.25	2.75	1.00	6.75	3.50	9.25	8.50	11.00	14.50	14.50	11.00	9.50	2.50	7.25	-0.261719	0.136230	0.950195	5.320000	47.880001	-14.840000	1114.00	0.15	-0.12	0.25	0.75	0.00	1.00	0.00	0.00	2.00	0.00	0.00	0.00	0.00	0.00	0.00	0.00	0.00	0.00	0.808105	0.171387	1.645020	73.500000	-198.940002	92.120003	51.00	-0.09	0.08
1.44	0.25	1.25	0.25	2.25	1.00	6.00	3.50	9.00	8.75	11.25	15.00	14.75	11.00	10.25	3.00	7.50	-0.274902	0.122559	0.958496	6.440000	49.420002	-15.260000	1107.00	0.16	-0.12	0.00	0.50	0.00	0.75	0.00	0.00	2.00	0.00	0.00	0.00	0.00	0.00	0.00	0.00	0.00	0.00	0.537109	0.189941	1.690918	68.739998	-210.910004	95.550003	43.00	0.00	0.00
1.45	0.25	0.75	0.75	2.00	0.75	5.25	3.25	8.75	9.00	11.75	15.50	15.25	11.25	10.75	3.25	7.50	-0.286133	0.136719	0.926270	7.420000	51.660000	-15.470000	1115.00	0.17	-0.12	0.00	0.50	0.25	1.00	0.00	0.00	2.00	0.00	0.00	0.00	0.00	0.00	0.00	0.00	0.00	0.00	0.280273	0.218750	1.669922	62.860001	-218.540009	100.029999	49.00	0.00	0.00
1.46	0.00	1.00	0.50	1.75	0.50	4.75	3.25	8.50	9.50	12.25	16.00	15.75	11.25	11.50	3.25	7.75	-0.292480	0.127441	0.930176	7.700000	53.270000	-14.840000	1127.00	0.18	-0.11	0.25	0.25	0.00	1.00	0.00	0.00	2.00	0.00	0.00	0.00	0.00	0.00	0.00	0.00	0.00	0.00	0.013184	0.216797	1.615723	57.680000	-220.009995	105.489998	46.00	0.00	0.00
1.47	0.00	0.25	0.25	1.25	0.50	4.50	3.25	8.00	10.00	12.50	16.50	16.00	11.75	12.25	4.00	7.75	-0.296875	0.137695	0.934082	7.210000	54.389999	-15.190001	1137.00	0.19	-0.11	0.00	0.50	0.00	0.50	0.00	0.00	2.00	0.00	0.00	0.00	0.00	0.00	0.00	0.00	0.00	0.00	-0.227051	0.206543	1.609375	52.500000	-215.880005	111.580002	40.00	0.00	0.00
1.48	0.00	0.50	0.25	1.50	0.50	3.75	3.25	7.75	10.25	13.00	17.00	16.75	11.50	13.00	4.50	8.00	-0.302246	0.124512	0.921875	7.560000	54.040001	-15.610000	1163.00	0.20	-0.10	0.00	0.50	0.00	0.75	0.00	0.00	2.00	0.00	0.00	0.00	0.00	0.00	0.00	0.00	0.00	0.00	-0.437988	0.135742	1.597168	45.990002	-208.039993	119.349998	43.00	0.00	0.00
1.49	0.00	0.50	0.25	0.75	0.25	3.25	3.00	7.50	10.25	13.75	17.50	17.25	11.75	14.00	5.00	8.25	-0.314941	0.118164	0.907715	7.770000	53.760002	-15.400000	1175.00	0.21	-0.10	0.25	0.50	0.00	0.50	0.00	0.00	2.00	0.00	0.00	0.00	0.00	0.00	0.00	0.00	0.00	0.00	-0.601562	0.104492	1.583496	38.990002	-199.149994	127.330002	43.00	0.00	0.00
1.50	0.00	0.00	0.75	0.75	0.25	3.00	3.25	7.50	10.75	14.00	18.25	17.75	12.00	15.00	5.50	8.50	-0.329590	0.123535	0.898438	8.610000	51.799999	-14.420000	1216.00	0.21	-0.10	0.00	0.50	0.25	0.75	0.00	0.00	2.00	0.00	0.00	0.00	0.00	0.00	0.00	0.00	0.00	0.00	-0.723633	0.049316	1.474609	31.360001	-190.119995	131.880005	46.00	0.00	0.00
1.51	0.00	0.25	0.25	0.75	0.25	2.75	3.00	7.25	11.25	14.50	18.75	18.25	12.50	15.75	6.25	8.75	-0.332031	0.124023	0.900879	9.380000	49.840000	-13.720000	1245.00	0.22	-0.10	0.00	0.25	0.00	0.75	0.00	0.00	2.00	0.00	0.00	0.00	0.00	0.00	0.00	0.00	0.00	0.00	-0.815430	0.044922	1.337891	25.129999	-180.039993	130.270004	41.00	0.00	0.00
1.52	0.00	0.00	0.25	0.75	0.25	2.25	3.00	7.00	11.50	15.00	19.25	18.75	12.75	16.50	6.25	9.00	-0.350098	0.137207	0.905762	10.430000	48.930000	-13.160000	1262.00	0.22	-0.09	0.00	0.25	0.00	0.75	0.00	0.00	2.00	0.00	0.00	0.00	0.00	0.00	0.00	0.00	0.00	0.00	-0.860352	0.041992	1.220215	21.629999	-167.649994	123.340004	41.00	0.00	0.00
1.53	0.00	0.00	0.25	0.75	0.25	2.25	3.00	7.25	12.00	15.50	19.75	19.50	13.00	17.50	6.75	9.50	-0.336426	0.127930	0.903809	11.480000	47.740002	-13.790000	1310.00	0.22	-0.09	0.00	0.00	0.00	1.00	0.00	0.00	2.00	0.00	0.00	0.00	0.00	0.00	0.00	0.00	0.00	0.00	-0.854492	0.073242	1.238770	23.100000	-156.100006	114.660004	41.00	0.00	0.00
1.54	0.00	0.00	0.25	0.75	0.00	2.25	2.75	7.00	12.25	16.25	20.50	20.25	13.25	18.50	7.50	9.50	-0.357422	0.136230	0.911621	12.670000	47.459999	-14.350000	1345.00	0.23	-0.09	0.25	0.50	0.00	0.75	0.00	0.00	2.00	0.00	0.00	0.00	0.00	0.00	0.00	0.00	0.00	0.00	-0.848145	0.042480	1.273438	25.969999	-149.380005	107.590004	46.00	0.00	0.00
1.55	0.00	0.00	0.25	0.50	0.00	2.00	2.75	7.00	12.50	16.50	21.00	20.75	13.50	19.25	7.75	9.75	-0.371582	0.152344	0.901367	13.930000	47.529999	-14.700000	1368.00	0.23	-0.09	0.25	0.00	0.00	0.75	0.00	0.00	2.00	0.00	0.00	0.00	0.00	0.00	0.00	0.00	0.00	0.00	-0.879395	-0.030762	1.144043	24.639999	-144.759995	102.410004	41.00	0.00	0.00
1.56	0.00	0.00	0.25	0.50	0.00	1.75	3.00	6.75	13.00	17.00	21.50	21.25	13.75	20.25	8.25	10.00	-0.365723	0.150879	0.907715	15.260000	49.139999	-15.750000	1405.00	0.23	-0.08	0.00	0.00	0.00	0.75	0.00	0.00	2.00	0.00	0.00	0.00	0.00	0.00	0.00	0.00	0.00	0.00	-1.048828	-0.162109	0.968750	16.450001	-122.779999	93.169998	39.00	0.00	0.00
1.57	0.00	0.00	0.00	0.50	0.00	2.00	2.75	6.75	13.25	17.50	22.25	21.75	14.25	21.00	8.75	10.50	-0.364746	0.150879	0.912598	17.360001	52.430000	-17.219999	1442.00	0.23	-0.09	0.25	0.25	0.25	0.75	0.00	0.00	2.00	0.00	0.00	0.00	0.00	0.00	0.00	0.00	0.00	0.00	-1.121582	-0.137695	0.914551	8.120000	-110.599998	88.410004	46.00	0.00	0.00
1.58	0.00	0.00	0.00	0.00	0.00	1.75	2.50	6.75	13.50	18.00	22.75	22.25	14.25	22.00	9.25	11.00	-0.391113	0.148438	0.912109	19.389999	57.750000	-18.620001	1465.00	0.24	-0.08	0.00	0.25	0.00	0.75	0.00	0.00	2.00	0.00	0.00	0.00	0.00	0.00	0.00	0.00	0.00	0.00	-1.195312	-0.098145	0.845215	1.890000	-97.790001	83.510002	41.00	0.00	0.00
1.59	0.00	0.00	0.00	0.25	0.00	1.75	2.50	6.50	13.75	18.25	22.75	22.75	14.50	23.00	10.00	11.25	-0.429688	0.158691	0.937012	20.650000	64.959999	-19.809999	1495.00	0.24	-0.08	0.00	0.25	0.25	1.00	0.00	0.00	2.00	0.00	0.00	0.00	0.00	0.00	0.00	0.00	0.00	0.00	-1.276855	-0.074707	0.801758	-1.890000	-84.279999	78.330002	46.00	0.00	0.00
1.60	0.00	0.00	0.00	0.25	0.00	1.50	2.25	6.50	14.25	18.75	23.50	22.75	14.25	24.00	10.75	11.25	-0.468750	0.202148	0.943359	23.379999	89.389999	-23.870001	1522.00	0.24	-0.08	0.00	0.25	0.00	0.75	0.00	0.00	2.00	0.00	0.00	0.00	0.00	0.00	0.00	0.00	0.00	0.00	-1.358398	-0.059082	0.672852	-5.670000	-68.949997	72.730003	41.00	0.00	0.00
1.61	0.00	0.00	0.00	0.00	0.00	1.25	2.00	6.25	14.50	19.00	23.75	22.75	14.00	25.00	11.25	11.75	-0.455566	0.190430	0.941895	24.219999	104.930000	-27.020000	1532.00	0.25	-0.08	0.00	0.25	0.00	0.75	0.00	0.00	2.00	0.00	0.00	0.00	0.00	0.00	0.00	0.00	0.00	0.00	-1.425781	-0.055664	0.651367	-6.790000	-50.400002	66.360001	41.00	0.00	0.00
1.62	0.00	0.00	0.00	0.25	0.00	1.50	1.50	6.00	14.75	19.25	23.75	22.75	13.75	26.00	11.75	12.00	-0.491211	0.185547	0.953613	30.799999	120.680000	-30.520000	1545.00	0.25	-0.07	0.00	0.50	0.00	0.75	0.00	0.00	2.00	0.00	0.00	0.00	0.00	0.00	0.00	0.00	0.00	0.00	-1.466309	-0.054688	0.648438	-8.120000	-31.150000	58.939999	43.00	0.00	0.00
1.63	0.00	0.00	0.00	0.00	0.00	1.00	1.25	5.75	14.75	19.50	23.50	22.25	13.25	27.00	12.75	12.25	-0.475586	0.180664	1.007812	24.080000	139.789993	-33.670002	1540.00	0.26	-0.07	0.00	0.00	0.25	0.75	0.00	0.00	2.00	0.00	0.00	0.00	0.00	0.00	0.00	0.00	0.00	0.00	-1.512695	-0.027832	0.629883	-11.270000	-11.970000	51.520000	41.00	0.00	0.00
1.64	0.00	0.00	0.00	0.00	0.00	1.00	1.00	5.50	15.00	19.50	23.75	21.75	12.50	27.75	13.00	12.25	-0.520020	0.199707	1.013672	12.880000	160.860001	-35.980000	1536.00	0.26	-0.07	0.00	0.25	0.00	0.75	0.00	0.00	2.00	0.00	0.00	0.00	0.00	0.00	0.00	0.00	0.00	0.00	-1.550293	-0.007324	0.645508	-13.790000	7.840000	44.590000	41.00	0.00	0.00
1.65	0.00	0.00	0.00	0.00	0.00	0.75	0.75	5.25	15.00	19.75	23.50	21.00	11.50	28.50	13.25	12.50	-0.518066	0.192871	1.070312	2.660000	182.979996	-39.130001	1519.00	0.26	-0.06	0.00	0.25	0.00	0.50	0.00	0.00	2.00	0.00	0.00	0.00	0.00	0.00	0.00	0.25	0.00	0.00	-1.575684	0.022461	0.686523	-17.150000	28.210001	38.570000	40.00	0.00	0.00
1.66	0.00	0.00	0.00	0.00	0.00	0.25	0.50	5.00	15.25	19.50	23.00	20.50	10.50	29.25	13.25	12.50	-0.520996	0.161133	1.135254	-10.080000	205.660004	-44.590000	1494.00	0.27	-0.06	0.00	0.00	0.00	0.75	0.00	0.00	2.00	0.00	0.00	0.00	0.00	0.00	0.00	0.00	0.00	0.00	-1.636230	0.076172	0.706543	-21.070000	48.650002	32.759998	39.00	0.00	0.00
1.67	0.00	0.00	0.00	0.00	0.00	0.25	0.50	4.50	15.50	19.75	22.50	19.50	9.25	29.25	13.25	12.00	-0.591797	0.254883	0.991699	-19.389999	233.100006	-51.380001	1463.00	0.27	-0.05	0.00	0.25	0.00	0.50	0.00	0.00	2.00	0.00	0.00	0.00	0.00	0.00	0.00	0.00	0.00	0.00	-1.708984	0.133301	0.693848	-22.469999	69.090004	26.389999	38.00	0.00	0.00
1.68	0.00	0.00	0.00	0.00	0.00	0.25	0.25	3.75	15.50	19.75	22.00	18.50	8.25	29.50	13.00	12.00	-0.659180	0.229004	1.024414	-28.210001	264.320007	-58.520000	1422.00	0.27	-0.04	0.00	0.50	0.00	0.75	0.00	0.00	1.75	0.00	0.00	0.00	0.00	0.00	0.00	0.00	0.00	0.00	-1.800781	0.182617	0.712402	-20.160000	89.250000	18.340000	39.00	0.00	0.00
1.69	0.00	0.00	0.00	0.00	0.00	0.00	0.50	3.50	16.00	19.50	21.50	17.00	7.25	29.25	12.75	11.50	-0.706055	0.274902	0.909668	-39.410000	296.239990	-66.500000	1386.00	0.27	-0.03	0.75	1.25	0.25	1.50	0.00	0.00	1.75	0.00	0.00	0.00	0.00	0.00	0.00	0.00	0.00	0.00	-0.437500	0.750977	0.791504	12.390000	129.500000	-27.090000	65.00	-0.17	0.03
1.70	0.00	0.00	0.00	0.00	0.00	0.00	0.75	3.00	16.25	19.25	21.00	15.75	6.00	28.75	12.00	11.00	-0.718262	0.193848	1.000488	-51.240002	330.049988	-75.809998	1339.00	0.28	-0.02	1.50	2.75	0.75	1.50	0.00	0.00	1.75	0.00	0.00	0.00	0.00	0.00	0.00	0.00	0.00	0.00	0.518555	0.366211	2.182617	10.220000	126.770004	-48.299999	92.00	-0.23	0.01
1.71	0.00	0.00	0.00	0.00	0.00	0.00	0.75	2.50	16.00	19.00	20.00	14.25	5.25	28.50	11.50	10.50	-0.699219	0.191406	1.050781	-60.549999	359.730011	-83.580002	1283.00	0.28	-0.01	2.50	4.50	0.75	2.25	0.00	0.00	2.00	0.00	0.00	0.00	0.00	0.00	0.00	0.00	0.00	0.00	0.410156	0.649902	0.697754	-8.540000	103.809998	-50.189999	131.00	-0.26	-0.01
1.72	0.00	0.00	0.00	0.00	0.00	0.00	1.00	2.00	15.50	18.25	19.00	12.75	5.00	28.25	10.75	9.75	-0.971680	0.326172	0.937500	-58.310001	390.880005	-92.330002	1222.00	0.28	-0.01	3.50	5.25	1.00	3.00	0.00	0.00	1.75	0.00	0.00	0.00	0.00	0.00	0.00	0.00	0.00	0.00	0.007812	0.645508	0.812012	-18.270000	124.809998	-43.330002	155.00	-0.29	-0.03
1.73	0.00	0.00	0.00	0.00	0.00	0.00	1.00	1.75	14.00	17.00	17.25	11.00	4.00	27.75	10.25	9.00	-1.351562	0.406250	1.437012	-47.040001	417.339996	-97.650002	1126.00	0.28	0.00	4.25	6.50	1.50	3.50	0.00	0.00	1.75	0.00	0.00	0.00	0.00	0.00	0.00	0.00	0.00	0.00	0.085449	0.958984	1.463867	-19.950001	137.690002	-24.920000	185.00	-0.30	-0.03
1.74	0.00	0.00	0.00	0.00	0.00	0.00	1.25	1.00	11.75	15.00	14.75	9.25	3.00	27.00	9.50	8.00	-1.667969	0.496582	1.814453	-21.980000	430.570007	-91.559998	995.00	0.29	0.01	5.50	8.00	1.50	3.75	0.00	0.00	1.75	0.00	0.00	0.00	0.00	0.00	0.00	0.00	0.00	0.00	-0.018066	0.515625	1.160156	-24.850000	132.720001	-5.110000	215.00	-0.32	-0.03
1.75	0.00	0.00	0.00	0.00	0.00	0.00	1.25	0.50	9.75	12.75	12.50	8.25	2.50	25.50	8.25	7.00	-2.071777	0.487793	2.144043	17.150000	442.890015	-80.570000	868.00	0.29	0.02	6.75	8.25	1.75	4.25	0.00	0.00	1.75	0.00	0.00	0.00	0.00	0.00	0.00	0.00	0.00	0.00	0.118652	0.199707	1.067383	-24.219999	138.320007	5.810000	238.00	-0.32	-0.03
1.76	0.00	0.00	0.00	0.00	0.00	0.00	1.25	0.25	8.00	11.00	10.25	7.00	1.50	22.25	7.25	6.00	-2.046387	0.676758	2.556152	64.959999	452.899994	-68.459999	734.00	0.30	0.02	8.25	9.25	2.25	4.75	0.00	0.00	1.75	0.00	0.00	0.00	0.00	0.00	0.00	0.00	0.00	0.00	0.058105	-0.456543	0.950684	-4.060000	131.880005	-0.000000	274.00	-0.33	-0.03
1.77	0.00	0.00	0.00	0.00	0.00	0.00	1.25	0.00	6.50	9.25	8.75	6.25	1.25	18.25	6.00	5.25	-1.619141	0.629883	2.596680	128.800003	458.149994	-59.779999	616.00	0.30	0.02	9.75	11.00	2.50	5.25	0.00	0.25	2.00	0.00	0.00	0.00	0.00	0.00	0.00	0.00	0.00	0.00	0.121582	-0.350098	0.894043	3.010000	131.529999	-18.549999	321.00	-0.33	-0.03
1.78	0.00	0.00	0.00	0.00	0.00	0.00	0.75	0.00	4.75	8.25	8.00	5.50	0.75	14.75	5.00	4.50	-1.616211	0.735840	3.008301	206.220001	448.839996	-71.750000	510.00	0.30	0.01	12.75	12.75	3.25	5.75	0.00	0.00	2.00	0.00	0.00	0.00	0.00	0.00	0.00	0.00	0.00	0.00	0.030273	0.094727	0.887207	14.700000	132.789993	-31.780001	379.00	-0.34	-0.02
1.79	0.00	0.00	0.00	0.00	0.00	0.00	0.75	0.00	3.00	7.25	7.00	5.00	0.25	11.25	2.75	4.00	-1.161621	0.618652	2.934082	268.309998	444.010010	-85.400002	401.00	0.29	0.00	16.00	16.00	4.25	7.75	0.00	0.00	1.75	0.00	0.00	0.00	0.00	0.00	0.00	0.00	0.00	0.00	-0.019531	0.256836	0.969727	23.240000	143.009995	-34.720001	472.00	-0.35	-0.03
1.80	0.00	0.00	0.00	0.00	0.00	0.00	0.75	0.00	2.75	6.00	6.50	4.25	0.00	7.75	1.25	3.75	-1.268555	0.251465	3.456055	283.570007	441.559998	-116.129997	322.00	0.28	-0.00	19.50	18.50	6.00	9.00	0.00	0.00	2.00	0.00	0.00	0.00	0.00	0.00	0.00	0.00	0.00	0.00	-0.130859	0.384277	1.141602	21.350000	157.080002	-32.900002	568.00	-0.35	-0.03
1.81	0.00	0.00	0.00	0.00	0.00	0.00	0.75	0.00	1.75	5.50	6.25	4.00	0.00	3.75	0.50	3.75	0.627441	0.113770	2.987305	282.029999	356.649994	-198.869995	257.00	0.26	-0.03	22.25	21.25	7.75	10.25	0.25	0.50	2.00	0.00	0.00	0.00	0.00	0.00	0.00	0.00	0.00	0.00	-0.271484	0.436035	1.457031	19.180000	174.300003	-27.790001	663.00	-0.34	-0.03
1.82	0.00	0.00	0.00	0.00	0.00	0.00	1.00	0.00	1.25	5.50	6.00	3.50	0.00	2.00	0.50	3.75	3.229004	2.436035	2.707031	182.910004	269.709991	-219.380005	231.00	0.25	-0.04	24.00	22.50	8.75	11.50	0.50	1.25	2.00	0.00	0.00	0.00	0.00	0.00	0.00	0.00	0.00	0.00	-0.312012	0.224121	1.651855	9.520000	176.119995	-22.889999	729.00	-0.34	-0.03
1.83	0.00	0.25	0.00	0.00	0.00	0.00	0.75	0.00	0.50	5.25	5.50	3.00	0.00	1.75	0.25	3.50	0.480957	1.900879	7.266602	27.230000	-23.940001	-73.779999	201.00	0.24	-0.06	25.50	23.75	9.75	12.75	0.75	2.50	2.00	0.25	0.00	0.00	0.00	0.00	0.00	0.00	0.00	0.00	-0.349121	0.208008	1.850098	-0.350000	159.529999	-20.719999	801.00	-0.34	-0.04
1.84	0.00	0.00	0.00	0.00	0.00	0.00	1.00	0.00	1.00	5.25	5.50	3.25	0.00	1.75	0.25	3.50	1.182617	1.151367	3.184082	-56.139999	-236.389999	46.900002	211.00	0.25	-0.05	26.25	24.50	10.75	13.75	1.25	4.25	2.25	0.75	0.00	0.00	0.00	0.00	0.00	0.00	0.00	0.00	-0.309082	0.382324	1.646973	-18.830000	124.250000	-18.270000	873.00	-0.33	-0.04
1.85	0.00	0.00	0.00	0.00	0.00	0.00	0.75	0.00	0.50	4.75	5.50	3.25	0.00	1.50	0.00	3.50	0.125977	0.767090	1.798828	-107.099998	-284.339996	97.650002	191.00	0.24	-0.07	27.00	25.00	11.75	14.50	1.75	5.25	2.25	1.25	0.00	0.00	0.00	0.00	0.00	0.00	0.00	0.00	-0.228516	0.333496	1.206543	-33.740002	93.309998	-9.940000	929.00	-0.32	-0.05
1.86	0.00	0.00	0.00	0.00	0.00	0.25	1.00	0.00	0.75	4.50	5.50	3.00	0.00	1.00	0.00	3.25	0.250000	0.910156	1.302734	-57.959999	-241.710007	100.239998	190.00	0.23	-0.06	27.25	25.25	12.00	15.00	2.25	6.75	2.25	2.00	0.00	0.25	0.00	0.00	0.00	0.00	0.00	0.00	-0.300293	0.212402	1.174316	-41.439999	74.340004	-3.290000	978.00	-0.31	-0.06
1.87	0.00	0.00	0.00	0.00	0.00	0.00	0.75	0.00	0.75	4.25	5.25	3.00	0.00	1.50	0.00	3.25	0.538086	0.433594	1.869141	36.610001	-241.639999	69.580002	183.00	0.24	-0.06	27.75	25.00	12.50	15.50	2.50	7.75	2.50	2.50	0.00	0.00	0.00	0.00	0.50	0.50	0.00	0.00	-0.198242	0.153320	1.172852	-40.599998	57.750000	-2.590000	1023.00	-0.30	-0.06
1.88	0.00	0.00	0.00	0.00	0.00	0.00	0.75	0.00	0.50	4.25	5.25	2.75	0.00	0.50	0.00	3.50	0.378906	0.041504	2.333008	100.660004	-296.940002	28.350000	170.00	0.24	-0.08	28.00	25.50	13.00	15.75	3.00	8.00	2.25	3.00	0.00	0.00	0.00	0.00	0.75	0.25	0.00	0.00	-0.193848	0.204102	1.149414	-34.790001	43.119999	-1.960000	1051.00	-0.30	-0.06
1.89	0.00	0.00	0.00	0.00	0.00	0.00	0.75	0.00	1.00	3.50	5.50	2.75	0.00	0.50	0.00	3.50	0.349121	-0.292969	2.054199	106.470001	-352.589996	-2.380000	171.00	0.24	-0.07	27.50	25.25	13.00	16.00	3.50	8.50	2.50	3.50	0.00	0.00	0.25	0.00	0.75	0.25	0.25	0.00	-0.172852	0.170898	1.076660	-27.650000	31.710001	-0.490000	1074.00	-0.29	-0.07
1.90	0.00	0.00	0.00	0.00	0.00	0.00	1.00	0.00	0.25	3.75	5.25	2.75	0.00	0.50	0.00	3.50	0.186035	-0.179199	1.753418	69.019997	-389.059998	-16.520000	165.00	0.23	-0.08	27.00	25.00	13.00	16.00	3.75	8.50	2.50	3.75	0.00	0.00	0.25	0.00	1.25	0.50	0.25	0.00	-0.140625	0.139160	1.049316	-21.490000	22.750000	-0.350000	1079.00	-0.29	-0.07
1.91	0.00	0.00	0.00	0.00	0.00	0.00	0.75	0.00	0.00	3.75	5.25	2.75	0.00	0.50	0.00	3.50	0.034180	0.064941	1.440918	30.100000	-411.110016	-19.180000	158.00	0.24	-0.09	26.75	24.50	13.00	16.00	4.00	9.00	2.50	4.75	0.00	0.00	0.25	0.00	1.25	0.50	0.00	0.00	-0.129395	0.164062	1.005859	-16.170000	17.990000	-0.630000	1093.00	-0.28	-0.07
1.92	0.00	0.00	0.00	0.00	0.00	0.00	0.75	0.00	0.25	3.75	5.00	2.75	0.00	0.50	0.00	3.50	-0.146973	0.314941	1.189941	19.110001	-421.610016	-14.980000	158.00	0.24	-0.09	26.25	24.25	13.00	15.75	4.25	9.00	2.50	5.00	0.50	0.25	0.25	0.25	1.75	0.50	0.00	0.00	-0.157227	0.141602	1.026367	-11.480000	15.120000	-0.630000	1105.00	-0.27	-0.08
1.93	0.00	0.00	0.00	0.00	0.00	0.00	0.75	0.00	0.00	3.50	5.00	2.75	0.00	0.00	0.00	3.25	-0.225586	0.376465	1.033691	29.469999	-421.610016	-6.300000	147.00	0.23	-0.10	25.50	23.75	12.75	15.75	4.50	9.25	2.50	5.25	0.00	0.00	0.25	0.00	2.00	0.50	0.25	0.25	-0.165039	0.160156	1.003906	-7.490000	12.320000	-1.260000	1094.00	-0.27	-0.08
1.94	0.00	0.00	0.00	0.00	0.00	0.00	0.75	0.00	0.25	3.25	5.00	2.75	0.00	0.25	0.00	3.25	-0.256836	0.385254	1.073730	39.759998	-416.010010	6.370000	150.00	0.23	-0.09	25.00	23.00	12.50	15.25	4.25	9.25	2.50	5.75	0.25	0.25	0.25	0.50	2.50	0.50	0.25	0.25	-0.132324	0.154297	0.975586	-4.690000	11.620000	-1.820000	1094.00	-0.26	-0.08
1.95	0.00	0.00	0.00	0.00	0.00	0.00	0.75	0.00	0.25	3.50	4.75	2.75	0.00	0.25	0.00	3.25	-0.275391	0.391602	1.111816	40.529999	-410.339996	21.840000	150.00	0.23	-0.09	24.25	22.25	12.50	15.25	4.25	9.25	2.75	5.75	0.00	0.25	0.25	0.00	2.00	0.25	0.25	0.50	-0.162109	0.155273	0.986816	-3.570000	11.340000	-2.170000	1069.00	-0.27	-0.08
1.96	0.00	0.00	0.00	0.00	0.00	0.00	0.75	0.00	0.00	3.25	4.50	2.75	0.00	0.25	0.00	3.25	-0.343750	0.456543	1.182617	36.470001	-405.299988	39.060001	141.00	0.23	-0.10	23.00	21.50	12.00	14.75	4.25	9.25	2.50	6.25	0.25	0.25	0.25	0.50	2.25	1.00	0.25	0.50	-0.122559	0.168457	0.955566	-3.150000	11.200000	-3.010000	1059.00	-0.25	-0.09
1.97	0.00	0.00	0.00	0.00	0.00	0.00	0.75	0.00	0.00	3.25	4.75	2.75	0.00	0.00	0.00	3.25	-0.425781	0.507812	1.288574	36.820000	-400.540009	57.330002	142.00	0.23	-0.11	22.25	20.75	11.75	14.25	4.25	9.25	2.50	6.50	0.25	0.25	0.50	0.50	2.50	0.75	0.50	0.75	-0.127441	0.166016	0.958496	-4.970000	12.390000	-3.640000	1047.00	-0.25	-0.09
1.98	0.00	0.00	0.00	0.00	0.00	0.00	0.75	0.00	0.50	3.25	4.50	2.75	0.00	0.00	0.00	3.25	-0.546875	0.557617	1.423340	39.900002	-397.040009	78.959999	146.00	0.23	-0.09	21.00	20.00	11.25	14.00	4.00	9.50	2.50	6.75	0.00	0.50	0.25	0.50	2.75	0.75	0.25	0.75	-0.133789	0.160156	0.955078	-7.420000	13.440001	-4.410000	1018.00	-0.24	-0.10
1.99	0.00	0.00	0.00	0.00	0.00	0.00	0.75	0.00	0.00	3.00	4.50	2.75	0.00	0.00	0.00	3.25	-0.599609	0.634277	1.649902	45.500000	-397.250000	105.139999	137.00	0.23	-0.11	19.50	18.75	11.00	13.50	4.25	9.25	2.75	7.00	0.25	0.50	0.75	0.75	3.00	0.50	0.50	0.50	-0.133789	0.166016	0.955078	-9.730000	14.420000	-5.180000	1003.00	-0.23	-0.10
2.00	0.00	0.00	0.00	0.00	0.00	0.00	0.75	0.00	0.00	3.25	4.50	2.75	0.00	0.00	0.00	3.25	-0.645020	0.563965	1.743164	51.450001	-400.049988	132.649994	139.00	0.23	-0.11	18.25	17.50	10.50	13.25	4.25	9.00	2.75	7.00	0.25	0.75	0.75	1.00	3.50	1.00	0.50	0.75	-0.145508	0.152344	0.980469	-11.900000	14.630000	-5.950000	983.00	-0.22	-0.10
2.01	0.00	0.00	0.00	0.00	0.00	0.00	0.75	0.00	0.25	3.50	4.25	3.00	0.00	0.00	0.00	3.25	-0.805176	0.411621	1.901855	56.209999	-402.570007	156.449997	145.00	0.23	-0.10	16.75	16.25	10.25	12.75	4.25	9.00	2.75	7.00	0.25	0.25	0.75	1.25	4.00	0.75	0.50	0.75	-0.151367	0.152832	0.966797	-13.720000	14.280000	-6.580000	947.00	-0.21	-0.11
2.02	0.00	0.00	0.00	0.00	0.00	0.00	0.75	0.00	0.00	2.75	4.50	2.50	0.00	0.00	0.00	3.25	-1.184082	-0.023926	1.956055	64.470001	-405.440002	173.529999	131.00	0.23	-0.11	15.25	15.00	9.75	12.25	4.25	8.75	2.75	7.25	0.50	0.75	1.00	1.25	4.25	1.25	0.75	1.00	-0.147461	0.147461	0.952637	-16.170000	14.350000	-7.140000	932.00	-0.20	-0.11
2.03	0.00	0.00	0.00	0.00	0.00	0.00	0.75	0.00	0.00	3.00	4.25	2.50	0.00	0.00	0.00	3.25	-1.385254	-0.345215	2.162598	73.919998	-402.570007	164.080002	131.00	0.23	-0.10	14.25	13.75	9.50	12.00	4.50	8.75	3.00	7.50	0.75	0.75	1.25	1.75	4.75	1.75	0.50	1.00	-0.153320	0.138184	0.954102	-19.040001	14.490000	-7.630000	932.00	-0.18	-0.11
2.04	0.00	0.00	0.00	0.00	0.00	0.00	0.75	0.00	0.00	3.00	4.50	2.50	0.00	0.00	0.00	3.25	-1.538086	-0.584961	2.300293	67.059998	-399.910004	148.610001	134.00	0.23	-0.11	13.00	12.50	9.25	11.50	5.00	8.75	3.00	7.50	0.50	1.25	1.25	1.75	5.00	1.75	0.75	1.25	-0.158691	0.133789	0.964844	-22.120001	14.350000	-8.190000	913.00	-0.17	-0.11
2.05	0.00	0.00	0.00	0.00	0.00	0.00	0.75	0.00	0.00	3.25	4.50	2.50	0.00	0.25	0.00	3.25	-1.658691	-0.596680	2.350586	44.660000	-395.149994	133.279999	139.00	0.23	-0.10	12.00	11.50	9.00	11.00	5.00	8.50	3.25	7.50	1.00	1.50	1.50	2.25	5.25	2.00	1.00	1.25	-0.186035	0.125000	0.980469	-24.500000	13.790000	-8.610000	910.00	-0.15	-0.11
2.06	0.00	0.00	0.00	0.00	0.00	0.00	0.75	0.00	0.00	3.25	4.25	2.75	0.00	0.00	0.00	3.25	-1.708984	-0.476074	2.434570	24.080000	-388.010010	120.330002	136.00	0.23	-0.11	10.75	10.25	8.75	10.50	5.25	8.50	3.25	7.75	1.25	1.50	2.00	2.50	6.25	2.50	1.00	1.50	-0.160645	0.125977	0.969727	-26.670000	13.650000	-9.240000	909.00	-0.13	-0.12
2.07	0.00	0.00	0.00	0.00	0.00	0.00	0.75	0.00	0.00	3.00	4.25	2.50	0.00	0.00	0.00	3.25	-1.812988	-0.393066	2.505371	8.890000	-380.100006	110.320000	131.00	0.23	-0.10	9.75	9.50	8.50	10.25	5.50	8.25	3.50	7.75	1.75	2.25	2.25	3.25	6.50	2.75	1.00	1.75	-0.161621	0.124512	0.963867	-29.120001	13.930000	-10.220000	921.00	-0.11	-0.11
2.08	0.00	0.00	0.00	0.00	0.00	0.00	0.75	0.00	0.00	3.00	4.00	2.75	0.00	0.00	0.00	3.25	-2.125977	-0.270508	2.413574	-2.730000	-369.880005	101.570000	131.00	0.23	-0.11	8.75	8.75	8.00	9.75	5.75	8.00	3.75	7.75	2.25	3.00	2.75	4.00	7.50	3.50	1.50	2.00	-0.175293	0.123047	0.968750	-31.570000	14.350000	-11.550000	945.00	-0.08	-0.11
2.09	0.00	0.00	0.00	0.00	0.00	0.00	0.75	0.00	0.00	2.75	4.00	2.50	0.00	0.00	0.00	3.25	-2.465332	-0.097168	2.125000	-7.630000	-351.399994	92.260002	126.00	0.23	-0.11	8.00	7.75	8.00	9.25	5.75	8.00	4.00	8.00	2.75	4.00	3.75	5.00	7.75	4.50	1.75	2.25	-0.189453	0.125977	0.993164	-31.430000	14.420000	-12.600000	983.00	-0.06	-0.11
2.10	0.00	0.00	0.00	0.00	0.00	0.00	0.75	0.00	0.00	3.00	3.75	2.50	0.00	0.00	0.00	3.25	-2.722168	0.013184	1.791504	-6.860000	-322.700012	83.720001	126.00	0.23	-0.10	7.00	7.00	7.50	8.75	5.75	7.75	4.00	8.00	3.75	6.00	4.50	6.00	8.25	5.25	2.00	2.50	-0.192871	0.111328	0.978516	-28.210001	14.560000	-13.160000	1019.00	-0.03	-0.10
2.11	0.00	0.00	0.00	0.00	0.00	0.00	0.75	0.00	0.00	3.00	4.00	2.50	0.00	0.00	0.00	3.25	-2.934570	0.317871	1.451660	-6.510000	-286.860016	78.260002	129.00	0.23	-0.10	6.00	6.25	7.25	8.25	6.00	7.50	4.50	8.25	4.75	7.50	6.75	7.75	8.50	6.75	2.25	3.00	-0.186035	0.111816	0.981934	-24.850000	15.050000	-13.090000	1096.00	0.01	-0.10
2.12	0.00	0.00	0.00	0.00	0.00	0.00	0.75	0.00	0.00	2.75	4.00	2.50	0.00	0.00	0.00	3.25	-3.155762	0.528320	1.098633	-1.680000	-248.220001	81.199997	126.00	0.23	-0.11	5.50	5.50	6.75	7.75	5.75	7.50	4.75	8.25	6.25	8.25	8.00	8.50	9.00	7.50	2.75	3.50	-0.192871	0.120117	0.977051	-21.700001	16.240000	-12.740000	1141.00	0.03	-0.09
2.13	0.00	0.00	0.00	0.00	0.00	0.00	0.75	0.00	0.00	2.50	4.00	2.00	0.00	0.00	0.00	3.25	-3.371094	0.564453	0.766113	13.860000	-208.809998	91.349998	118.00	0.23	-0.10	5.00	5.00	6.25	7.50	5.75	6.75	5.00	8.25	7.00	9.25	9.00	9.00	9.50	8.50	3.25	4.25	-0.189453	0.105469	0.979980	-18.480000	17.990000	-12.670000	1177.00	0.05	-0.09
2.14	0.00	0.00	0.00	0.00	0.00	0.00	0.75	0.00	0.00	2.75	4.00	2.50	0.00	0.50	0.00	3.25	-3.610840	0.295410	0.405762	34.439999	-166.949997	105.139999	130.00	0.24	-0.10	4.00	4.25	6.00	6.75	5.50	6.50	5.25	8.50	8.00	10.00	9.75	9.75	9.75	9.75	3.75	5.00	-0.194824	0.120117	0.983887	-16.170000	20.440001	-13.440001	1210.00	0.07	-0.08
2.15	0.00	0.25	0.00	0.00	0.00	0.00	0.75	0.00	0.00	3.00	3.75	2.50	0.00	0.25	0.00	3.25	-3.791992	-0.168457	0.213379	39.689999	-118.580002	120.190002	130.00	0.22	-0.10	3.00	3.25	5.50	6.00	5.25	6.25	5.25	8.50	8.75	11.00	10.50	10.50	10.25	11.25	4.50	5.25	-0.210938	0.105469	0.986328	-14.000000	23.100000	-14.210000	1233.00	0.09	-0.08
2.16	0.00	0.00	0.00	0.00	0.00	0.00	0.75	0.00	0.00	2.75	3.50	2.50	0.00	0.00	0.00	3.25	-3.870117	-0.432129	0.161133	20.440001	-68.739998	133.210007	121.00	0.23	-0.11	2.50	2.25	5.00	5.50	5.00	6.00	5.50	8.50	9.50	11.75	11.25	11.25	10.50	12.75	5.25	5.75	-0.217773	0.104980	0.976074	-7.770000	29.820000	-15.680000	1265.00	0.11	-0.08
2.17	0.00	0.00	0.00	0.00	0.00	0.00	0.75	0.00	0.00	2.75	3.75	2.50	0.00	0.00	0.00	3.25	-4.084473	-0.485840	0.180664	2.870000	-23.660000	139.160004	123.00	0.23	-0.11	1.75	1.75	3.75	5.00	4.00	5.25	5.50	8.25	10.50	12.50	12.00	11.75	10.75	14.75	6.25	6.25	-0.227051	0.086426	0.994141	-4.340000	34.299999	-15.890000	1277.00	0.14	-0.07
2.18	0.00	0.00	0.00	0.00	0.00	0.00	0.75	0.00	0.00	2.75	3.75	2.50	0.00	0.25	0.00	3.25	-4.429199	-0.557617	-0.010254	-7.840000	18.549999	132.720001	126.00	0.23	-0.10	1.25	1.25	3.50	4.50	3.25	5.00	5.75	8.25	11.50	13.50	12.75	12.50	11.25	16.50	7.25	6.75	-0.230957	0.091797	1.006348	0.280000	39.830002	-17.150000	1323.00	0.16	-0.07
2.19	0.00	0.00	0.00	0.00	0.00	0.00	0.75	0.00	0.00	2.50	3.75	2.50	0.00	0.00	0.00	3.00	-4.536621	-0.316895	-0.243164	-18.830000	70.419998	120.260002	119.00	0.23	-0.11	1.00	1.00	2.50	4.00	2.25	4.00	5.75	8.00	12.25	14.25	13.50	13.25	11.50	18.50	8.00	7.00	-0.224609	0.109863	1.029785	5.810000	48.020000	-19.040001	1338.00	0.18	-0.06
2.20	0.00	0.00	0.00	0.00	0.00	0.00	0.75	0.00	0.00	2.75	3.75	2.25	0.00	0.25	0.00	3.25	-4.255859	-0.182129	0.046875	-16.379999	128.240005	108.220001	123.00	0.23	-0.10	0.50	0.50	1.75	3.25	1.50	2.75	5.50	7.75	12.75	15.00	14.25	13.75	11.75	20.50	8.75	7.75	-0.282715	0.130859	1.019043	13.440001	59.500000	-22.469999	1341.00	0.20	-0.06
2.21	0.50	1.50	0.00	0.00	0.00	0.00	0.75	0.00	0.00	2.75	3.75	2.25	0.00	0.25	0.00	3.25	12.816406	1.520508	1.468750	-2.590000	199.289993	94.849998	142.00	0.15	-0.10	0.25	0.00	1.50	2.50	1.00	2.25	5.50	7.25	13.50	15.50	15.00	14.25	11.75	22.75	10.00	8.00	-0.284668	0.142578	1.035645	24.710001	76.019997	-26.250000	1366.00	0.21	-0.05
2.22	2.50	4.25	0.25	0.50	0.00	0.00	0.75	0.00	0.00	2.50	3.50	2.00	0.00	0.25	0.00	3.00	2.750000	1.404297	2.138672	33.040001	157.570007	53.970001	187.00	-0.01	-0.08	0.25	0.00	1.25	2.25	0.50	1.75	5.25	6.75	14.50	16.25	15.50	14.75	11.75	24.25	11.00	8.50	-0.314941	0.129395	1.080078	34.090000	101.919998	-27.860001	1395.00	0.23	-0.05
2.23	4.50	8.00	0.75	1.25	0.00	0.00	0.75	0.00	0.00	2.50	3.50	2.25	0.00	0.25	0.00	3.00	-0.418457	-0.210449	0.466309	-30.309999	200.550003	-25.830000	259.00	-0.11	-0.08	0.25	0.00	1.00	1.50	0.25	1.25	5.25	5.50	15.00	16.75	16.00	14.75	11.50	26.00	11.75	9.00	-0.323242	0.068848	1.109375	40.880001	134.330002	-29.610001	1397.00	0.24	-0.04
2.24	9.00	13.25	1.50	2.50	0.00	0.00	0.75	0.00	0.00	2.50	3.75	2.50	0.00	0.25	0.00	3.00	-0.103027	0.837891	2.996582	-11.690000	217.630005	-22.469999	381.00	-0.19	-0.07	0.00	0.00	0.75	1.25	0.00	1.00	5.00	5.00	15.25	17.25	16.25	14.75	11.25	27.75	12.50	9.50	-0.336426	0.165527	1.052246	41.580002	168.279999	-31.850000	1407.00	0.25	-0.03
2.25	14.25	20.50	2.50	3.50	0.00	0.00	0.75	0.00	0.00	2.25	3.00	2.50	0.00	0.25	0.00	3.00	-0.116211	-0.227539	1.284668	16.660000	197.820007	-6.720000	514.00	-0.25	-0.06	0.00	0.00	0.50	1.25	0.00	0.75	4.25	4.00	15.75	17.50	16.25	14.75	10.75	28.75	13.00	9.75	-0.367188	0.190430	1.053711	33.320000	201.529999	-38.430000	1395.00	0.26	-0.03
2.26	19.75	26.00	4.00	5.25	0.00	0.00	0.75	0.00	0.00	2.25	3.50	2.50	0.00	0.75	0.00	3.00	-0.200195	-0.081543	1.381348	15.680000	249.830002	-18.059999	667.00	-0.27	-0.06	0.00	0.00	0.50	1.00	0.00	0.50	4.00	3.00	16.25	17.75	16.00	14.25	10.25	30.00	13.25	10.00	-0.422852	0.189453	1.160645	21.490000	236.320007	-47.529999	1382.00	0.26	-0.02
2.27	23.50	29.25	6.50	7.50	0.00	0.00	0.75	0.00	0.00	2.25	3.75	2.50	0.00	0.50	0.00	3.00	-0.438477	0.085449	1.815430	23.590000	269.570007	-27.370001	788.00	-0.29	-0.05	0.00	0.00	0.50	0.75	0.00	0.50	3.50	2.25	16.50	17.75	16.00	13.75	9.25	30.75	13.50	10.00	-0.435547	0.146973	1.193359	-1.680000	269.010010	-55.090000	1358.00	0.27	-0.01
2.28	26.25	31.75	8.50	9.50	0.25	1.25	0.75	0.25	0.00	2.25	3.50	2.50	0.00	1.25	0.00	3.00	-0.471680	0.258301	1.897461	33.529999	274.119995	-31.080000	908.00	-0.28	-0.06	0.00	0.00	0.00	0.25	0.00	0.25	3.00	1.75	16.50	17.50	15.25	13.00	8.25	31.50	13.50	9.75	-0.473145	0.165039	1.104492	-21.770000	298.130005	-60.830002	1307.00	0.28	-0.00
2.29	27.75	32.75	9.75	11.25	1.00	1.75	0.75	0.50	0.00	2.25	3.50	2.75	0.25	1.50	0.00	3.25	-0.562012	0.532227	2.127441	36.750000	256.619995	-27.860001	992.00	-0.28	-0.06	0.00	0.00	0.25	0.50	0.00	0.00	2.50	1.50	17.00	17.50	15.00	12.50	7.50	31.75	13.25	9.50	-0.586914	0.134277	1.091797	-37.730000	330.540009	-66.500000	1289.00	0.28	0.00
2.30	29.00	34.00	11.50	13.50	1.50	3.00	0.75	0.75	0.00	2.25	3.50	2.75	0.00	1.50	0.00	3.25	-0.333496	0.289551	1.885254	30.730000	229.250000	-18.830000	1081.00	-0.28	-0.06	0.00	0.00	0.00	0.00	0.00	0.00	2.25	1.25	16.50	17.25	14.50	11.50	6.25	31.50	13.00	9.00	-0.238281	0.152344	1.643555	-51.170002	355.600006	-77.980003	1230.00	0.29	0.01
2.31	29.25	33.75	12.75	14.75	2.50	4.50	1.00	1.25	0.00	2.25	3.50	2.75	0.25	1.50	0.00	3.25	-0.352051	0.193359	1.578613	13.440001	193.690002	-15.680000	1150.00	-0.27	-0.06	0.00	0.00	0.00	0.00	0.00	0.00	2.00	1.25	16.25	17.00	14.00	10.75	5.50	30.75	12.75	8.50	-0.744629	0.163086	1.012207	-59.360001	395.640015	-84.769997	1189.00	0.29	0.02
2.32	29.50	34.00	13.75	16.50	3.00	6.50	1.00	1.75	0.00	2.50	3.75	2.50	0.25	1.75	0.00	3.00	-0.230957	0.105957	1.664551	1.120000	155.330002	-15.400000	1223.00	-0.27	-0.07	0.00	0.00	0.00	0.00	0.00	0.00	2.00	0.75	14.75	16.50	13.25	10.00	4.25	30.00	12.25	7.50	-0.801758	0.242188	1.268066	-61.459999	431.130005	-91.629997	1113.00	0.29	0.02
2.33	29.00	34.00	14.50	17.00	4.00	7.50	1.00	2.50	0.00	2.25	3.75	2.75	0.50	1.50	0.00	3.25	-0.305664	0.378906	1.550781	-12.600000	113.400002	-10.290000	1267.00	-0.26	-0.07	0.00	0.00	0.00	0.00	0.00	0.00	1.75	0.25	12.25	15.00	12.00	8.75	3.50	29.25	11.75	6.75	-0.929688	0.186523	1.708496	-64.610001	451.709991	-96.110001	1004.00	0.30	0.03
2.34	28.50	33.50	14.25	17.50	5.00	8.50	1.25	3.50	0.00	2.50	3.75	3.00	0.75	2.25	0.00	3.25	-0.208008	0.336914	1.296875	-18.900000	85.889999	-4.830000	1314.00	-0.25	-0.08	0.00	0.00	0.00	0.00	0.00	0.00	1.75	0.00	9.25	12.50	10.00	7.50	2.50	27.50	11.00	5.50	-1.713867	0.575684	1.062988	-61.670002	469.209991	-92.050003	863.00	0.30	0.03
2.35	28.00	33.00	14.50	17.50	5.25	9.00	1.25	4.50	0.00	2.25	3.50	2.75	0.50	2.00	0.00	3.00	-0.289062	0.000000	1.101562	-16.870001	63.910000	-2.100000	1317.00	-0.25	-0.08	0.00	0.00	0.00	0.00	0.00	0.00	1.75	0.00	6.75	10.50	8.00	5.25	2.25	24.50	9.50	3.75	-1.647461	0.368164	2.306152	-15.260000	479.360016	-80.290001	712.00	0.31	0.04
2.36	27.50	32.00	14.25	18.00	5.25	9.50	1.25	5.25	0.00	2.50	3.75	2.50	0.75	2.25	0.00	3.50	-0.183594	0.203125	1.043457	-13.160000	49.910000	-1.260000	1332.00	-0.24	-0.09	0.00	0.00	0.00	0.00	0.00	0.00	1.75	0.00	5.00	8.50	5.75	3.25	1.25	19.75	8.00	2.50	-1.385742	0.587891	2.969238	84.070000	479.149994	-68.669998	551.00	0.31	0.05
2.37	26.50	31.75	14.00	17.50	5.75	9.75	1.25	5.50	0.00	2.50	4.00	3.00	1.00	2.00	0.00	3.50	-0.205078	0.100586	1.007812	-7.000000	41.790001	-0.910000	1331.00	-0.24	-0.09	0.00	0.00	0.00	0.00	0.00	0.00	1.50	0.00	2.75	7.00	4.00	2.25	0.50	14.75	6.25	1.50	-1.148926	0.781738	2.762207	130.410004	472.500000	-82.180000	401.00	0.31	0.05
2.38	26.00	31.25	13.75	18.00	5.75	10.25	1.25	6.00	0.00	2.75	3.75	3.00	1.25	2.00	0.00	3.50	-0.133301	0.164062	0.980957	-4.270000	36.959999	-1.260000	1339.00	-0.23	-0.09	0.00	0.00	0.00	0.00	0.00	0.00	1.50	0.00	1.75	5.25	3.00	1.50	0.00	10.25	4.75	0.50	-0.239258	0.635254	2.288574	198.800003	474.670013	-97.650002	287.00	0.31	0.06
2.39	25.00	30.25	13.50	17.50	5.75	11.00	1.50	6.50	0.00	2.50	4.00	3.00	1.50	2.25	0.00	3.50	-0.205078	0.034180	1.028809	-0.490000	30.240000	-1.330000	1335.00	-0.23	-0.10	0.00	0.00	0.00	0.00	0.00	0.00	1.50	0.00	1.00	3.75	2.25	0.75	0.00	7.00	2.50	0.50	-0.351074	0.975098	2.627930	236.250000	489.089996	-122.500000	195.00	0.30	0.07
2.40	24.00	29.50	13.25	17.50	5.75	11.25	1.50	7.00	0.25	2.75	4.00	2.75	1.75	2.00	0.00	3.50	-0.179688	0.205566	0.869629	3.640000	26.389999	-1.960000	1329.00	-0.22	-0.10	0.00	0.00	0.00	0.00	0.00	0.00	1.50	0.00	0.50	2.00	1.50	0.50	0.00	4.25	1.25	0.25	-0.231445	0.901855	3.141113	277.690002	472.920013	-159.529999	122.00	0.28	0.08
2.41	23.25	28.50	12.75	16.75	5.75	11.50	1.50	7.25	0.00	3.00	4.00	3.00	1.75	2.00	0.00	3.75	-0.143066	0.140137	0.967773	4.270000	26.460001	-2.870000	1308.00	-0.22	-0.10	0.00	0.00	0.00	0.25	0.00	0.00	2.00	0.00	0.25	1.25	1.00	0.25	0.00	2.00	0.75	0.25	0.631348	0.001953	3.374023	281.329987	403.200012	-208.250000	89.00	0.22	0.09
2.42	21.75	27.00	12.25	16.50	5.75	11.75	1.75	7.50	0.25	3.00	4.25	3.25	2.00	2.25	0.00	3.50	-0.164062	0.153320	0.937012	4.480000	26.600000	-3.990000	1292.00	-0.21	-0.11	0.00	0.00	0.00	0.00	0.00	0.00	2.00	0.00	0.50	1.50	1.00	0.00	0.00	1.25	0.50	0.00	5.759277	3.174805	3.872070	174.789993	246.889999	-226.589996	79.00	0.21	0.13
2.43	20.00	25.75	11.75	16.00	5.50	11.75	1.50	7.75	0.00	3.00	4.25	3.25	2.25	2.00	0.00	3.75	-0.165527	0.149414	0.946777	4.130000	27.090000	-4.970000	1247.00	-0.20	-0.11	0.00	0.00	0.00	0.50	0.00	0.00	2.00	0.00	0.25	0.75	0.75	0.00	0.00	0.75	0.25	0.00	1.323242	1.437500	7.560547	18.129999	-92.470001	-78.050003	64.00	0.14	0.12
2.44	19.00	23.75	11.25	15.00	5.75	11.50	1.75	8.00	0.50	3.25	4.50	3.50	2.50	2.00	0.00	3.75	-0.165527	0.151367	0.940918	2.240000	29.540001	-6.650000	1225.00	-0.19	-0.11	0.00	0.00	0.00	0.25	0.00	0.00	2.00	0.00	0.25	0.75	0.50	0.00	0.00	0.75	0.50	0.00	1.260742	0.645996	3.070801	-88.550003	-311.989990	56.279999	61.00	0.17	0.13
2.45	17.00	22.00	10.50	14.00	5.75	11.50	2.00	8.50	0.50	3.25	5.00	3.50	3.00	2.00	0.00	4.00	-0.155762	0.164551	0.938477	-0.000000	31.430000	-7.280000	1192.00	-0.17	-0.12	0.00	0.00	0.00	0.00	0.00	0.00	2.00	0.00	0.25	0.50	0.50	0.00	0.00	0.75	0.50	0.00	0.447266	0.644531	1.465332	-179.339996	-350.140015	115.500000	56.00	0.19	0.16
2.46	14.75	19.75	9.75	13.50	5.75	11.25	2.00	8.50	0.50	3.50	5.00	4.00	3.50	2.25	0.00	4.00	-0.172852	0.158203	0.945312	-2.660000	32.830002	-7.840000	1145.00	-0.16	-0.12	0.00	0.00	0.00	0.25	0.00	0.00	2.00	0.00	0.00	0.75	0.25	0.00	0.00	0.75	0.50	0.00	0.559570	0.850586	0.861328	-153.229996	-288.329987	119.000000	55.00	0.16	0.14
2.47	12.75	17.00	9.25	12.00	5.75	11.25	2.00	9.00	0.75	3.75	5.25	4.00	4.00	2.25	0.25	4.25	-0.169434	0.156250	0.948730	-4.900000	33.599998	-8.610000	1102.00	-0.14	-0.13	0.00	0.00	0.00	0.50	0.00	0.00	2.00	0.00	0.00	0.50	0.00	0.00	0.00	0.75	0.50	0.00	0.709473	0.725098	1.300781	-38.639999	-267.329987	82.949997	53.00	0.13	0.14
2.48	10.50	14.25	8.75	10.75	5.75	11.00	2.25	9.00	0.75	3.75	5.25	4.75	4.75	2.25	0.00	4.50	-0.196289	0.157715	0.953613	-7.490000	34.720001	-9.380000	1048.00	-0.12	-0.13	0.00	0.00	0.00	0.50	0.00	0.00	2.00	0.00	0.00	0.25	0.00	0.00	0.00	0.75	0.25	0.00	0.500977	0.314453	2.054688	66.570000	-313.739990	34.439999	47.00	0.00	0.00
2.49	9.00	12.00	8.25	9.75	5.75	10.50	2.50	9.25	1.00	4.25	5.75	4.75	5.25	2.25	0.25	4.50	-0.186035	0.162598	0.948242	-10.710000	34.930000	-10.780000	1018.00	-0.10	-0.14	0.00	0.00	0.00	0.50	0.00	0.00	2.25	0.00	0.00	0.00	0.00	0.00	0.00	0.50	0.50	0.00	0.412109	-0.119629	2.041992	91.699997	-377.440002	-0.560000	49.00	0.00	0.00
2.50	8.00	10.00	7.75	8.75	5.75	10.50	2.50	9.50	1.00	4.25	6.25	5.50	5.75	2.50	0.25	4.50	-0.207520	0.150879	0.945801	-14.350000	34.090000	-12.110000	996.00	-0.08	-0.14	0.00	0.00	0.00	0.25	0.00	0.00	2.00	0.00	0.00	0.00	0.00	0.00	0.00	0.50	0.50	0.25	0.301270	-0.032227	1.592773	41.650002	-423.920013	-12.880000	44.00	0.00	0.00
2.51	7.00	8.50	7.25	8.25	5.75	10.00	2.50	9.75	1.50	4.50	6.75	5.75	6.00	2.50	0.25	4.75	-0.292969	0.020508	0.961914	-18.129999	33.250000	-12.390000	980.00	-0.06	-0.14	0.00	0.00	0.00	0.25	0.00	0.25	2.25	0.00	0.25	0.00	0.00	0.00	0.00	0.50	0.25	0.00	0.073242	0.366211	1.220703	-9.800000	-444.080017	-9.450000	50.00	0.00	0.00
2.52	6.00	7.25	6.75	7.50	5.50	9.75	2.50	9.75	1.50	4.75	7.25	6.75	6.50	2.50	0.50	5.00	-0.209961	0.136230	0.961426	-20.580000	31.150000	-12.670000	966.00	-0.04	-0.15	0.00	0.00	0.00	0.75	0.00	0.00	2.25	0.00	0.00	0.00	0.00	0.00	0.00	0.50	0.25	0.00	-0.097168	0.710449	1.018555	-10.150000	-446.809998	-1.470000	49.00	0.00	0.00
2.53	5.25	6.50	6.25	7.00	5.75	9.50	2.75	9.75	1.75	5.50	7.50	7.00	7.00	3.25	0.50	5.25	-0.222168	0.128906	0.955078	-22.400000	28.700001	-13.090000	972.00	-0.02	-0.14	0.00	0.00	0.00	0.50	0.00	0.00	2.00	0.00	0.00	0.00	0.00	0.00	0.00	0.75	0.25	0.00	-0.190918	0.711426	0.944824	24.360001	-443.869995	5.950000	45.00	0.00	0.00
2.54	4.50	5.75	6.00	6.00	5.75	9.25	3.00	9.75	2.25	6.50	8.00	7.75	7.00	3.50	0.75	5.50	-0.235352	0.142578	0.962891	-23.590000	27.370001	-13.440001	981.00	-0.00	-0.14	0.00	0.00	0.00	0.50	0.00	0.00	2.00	0.00	0.00	0.00	0.00	0.00	0.00	0.75	0.25	0.00	-0.328125	0.593750	0.982910	55.510002	-434.000000	14.490000	45.00	0.00	0.00
2.55	3.50	5.25	5.75	5.75	6.00	9.00	3.00	9.75	2.75	7.00	8.50	8.25	7.50	4.25	1.00	5.50	-0.231445	0.127930	0.942871	-24.360001	26.320000	-13.510000	996.00	0.01	-0.14	0.00	0.00	0.00	0.50	0.00	0.25	2.00	0.00	0.00	0.00	0.00	0.00	0.00	0.50	0.25	0.00	-0.450195	0.510254	1.262695	63.980000	-423.079987	25.830000	45.00	0.00	0.00
2.56	2.75	4.50	5.25	5.25	5.75	8.75	3.50	9.75	3.75	7.75	9.00	8.50	7.75	5.00	1.25	5.75	-0.230469	0.128906	0.950195	-24.780001	26.110001	-13.650000	1014.00	0.04	-0.13	0.00	0.00	0.00	0.50	0.00	0.00	2.25	0.00	0.00	0.00	0.00	0.00	0.00	0.50	0.25	0.00	-0.567383	0.550293	1.313965	62.580002	-409.850006	44.939999	46.00	0.00	0.00
2.57	2.25	3.75	5.00	4.75	5.75	8.25	3.75	9.50	4.50	8.25	9.50	9.25	8.00	5.50	1.50	6.00	-0.239258	0.126465	0.955078	-23.799999	26.530001	-14.140000	1027.00	0.05	-0.12	0.00	0.00	0.00	0.25	0.00	0.00	2.00	0.00	0.00	0.00	0.00	0.00	0.00	0.50	0.00	0.00	-0.654297	0.565918	1.408203	73.290001	-399.140015	54.810001	37.00	0.00	0.00
2.58	1.75	3.00	4.25	4.25	5.50	8.00	4.00	9.50	5.00	8.75	10.25	10.00	8.50	7.00	1.75	6.50	-0.229492	0.111816	0.939453	-21.139999	27.650000	-14.630000	1049.00	0.08	-0.12	0.00	0.00	0.00	0.00	0.00	0.00	2.00	0.00	0.00	0.00	0.00	0.00	0.00	0.25	0.25	0.00	-0.718750	0.537598	1.587891	79.800003	-386.890015	71.190002	35.00	0.00	0.00
2.59	1.25	2.75	3.50	4.00	5.25	7.50	4.25	9.50	6.75	9.25	11.00	10.75	8.75	8.00	2.00	6.75	-0.240234	0.102539	0.967773	-16.799999	29.330000	-14.770000	1085.00	0.10	-0.11	0.00	0.00	0.00	0.25	0.00	0.00	2.00	0.00	0.25	0.00	0.00	0.00	0.00	0.50	0.25	0.00	-0.721191	0.514648	1.893066	81.970001	-379.679993	92.050003	43.00	0.00	0.00
2.60	1.25	1.75	3.25	3.00	5.00	7.25	4.50	9.50	7.75	10.00	11.75	11.50	9.25	9.00	2.50	7.00	-0.266602	0.109863	0.955078	-11.760000	31.710001	-14.980000	1116.00	0.11	-0.10	0.00	0.00	0.00	0.00	0.00	0.00	2.00	0.00	0.00	0.00	0.00	0.00	0.00	0.25	0.00	0.00	-0.772461	0.444336	2.146973	90.230003	-381.989990	108.989998	32.00	0.00	0.00
2.61	1.00	1.50	2.75	3.00	4.50	7.00	4.75	9.50	8.50	10.50	12.75	12.50	9.75	10.25	3.00	7.50	-0.255859	0.099121	0.955078	-6.650000	35.000000	-15.400000	1160.00	0.13	-0.10	0.00	0.00	0.00	0.25	0.00	0.50	2.00	0.00	0.00	0.00	0.00	0.00	0.00	0.00	0.00	0.00	-0.856934	0.314453	2.207031	102.760002	-388.149994	117.250000	38.00	0.00	0.00
2.62	1.00	1.25	1.75	2.75	3.50	6.50	4.75	9.50	9.00	11.25	13.50	13.25	10.50	11.50	4.25	8.25	-0.239258	0.117676	0.969727	-0.770000	40.389999	-16.730000	1192.00	0.15	-0.10	0.00	0.00	0.00	0.25	0.00	0.00	2.00	0.00	0.00	0.00	0.00	0.00	0.00	0.00	0.00	0.00	-0.985840	0.186523	2.221680	114.940002	-390.250000	118.860001	33.00	0.00	0.00
2.63	0.50	1.25	1.25	1.75	2.50	5.75	4.75	9.25	9.50	12.00	14.50	14.25	10.75	13.25	5.50	9.00	-0.281250	0.131348	0.958496	4.130000	46.340000	-18.690001	1217.00	0.17	-0.10	0.00	0.00	0.00	0.25	0.00	0.00	2.00	0.00	0.00	0.00	0.00	0.00	0.00	0.00	0.00	0.00	-1.147461	0.092773	2.274414	119.559998	-386.399994	116.900002	33.00	0.00	0.00
2.64	0.50	1.00	0.75	2.50	1.50	5.50	4.50	9.00	10.00	12.75	15.50	15.50	11.25	14.75	6.25	9.50	-0.268066	0.125488	0.973633	9.870000	53.340000	-21.350000	1262.00	0.18	-0.10	0.00	0.00	0.00	0.50	0.00	0.00	2.00	0.00	0.00	0.00	0.00	0.00	0.00	0.00	0.00	0.00	-1.299805	0.039062	2.334473	114.730003	-378.630005	112.349998	36.00	0.00	0.00
2.65	0.50	0.00	1.00	1.50	1.00	4.50	4.50	9.00	10.75	13.25	16.75	16.75	11.75	17.00	7.00	10.25	-0.300293	0.147461	0.964355	21.700001	69.230003	-26.950001	1305.00	0.20	-0.09	0.00	0.00	0.00	0.25	0.00	0.25	2.00	0.00	0.00	0.00	0.00	0.00	0.00	0.00	0.00	0.00	-1.474121	0.064453	2.531738	104.440002	-370.160004	105.980003	36.00	0.00	0.00
2.66	0.00	0.25	0.25	1.25	0.50	4.00	4.00	8.50	11.25	14.00	17.50	17.50	12.50	19.00	8.00	11.25	-0.324707	0.145508	1.001953	29.400000	80.989998	-28.770000	1334.00	0.21	-0.09	0.00	0.00	0.00	0.25	0.00	0.00	2.00	0.00	0.00	0.00	0.00	0.00	0.00	0.00	0.00	0.00	-1.637207	0.122559	2.642090	94.639999	-365.329987	99.820000	33.00	0.00	0.00
2.67	0.00	0.25	0.50	1.00	0.25	2.75	3.50	8.25	11.75	14.50	18.50	18.25	12.75	21.00	9.25	12.25	-0.322266	0.139160	1.011719	40.599998	99.400002	-29.049999	1375.00	0.22	-0.09	0.00	0.00	0.00	0.00	0.00	0.00	2.00	0.00	0.00	0.00	0.00	0.00	0.00	0.00	0.00	0.00	-1.910645	0.176758	2.512695	91.980003	-359.730011	92.050003	30.00	0.00	0.00
2.68	0.00	0.25	0.25	0.75	0.25	2.50	3.00	7.75	12.00	15.00	19.25	19.00	13.00	23.00	10.25	12.75	-0.414062	0.133789	0.964355	50.610001	121.730003	-31.080000	1408.00	0.23	-0.09	0.00	0.00	0.00	0.25	0.00	0.00	2.00	0.00	0.00	0.00	0.00	0.00	0.00	0.00	0.00	0.00	-2.278809	0.250488	2.239258	95.620003	-346.360016	81.340004	33.00	0.00	0.00
2.69	0.00	0.00	0.00	0.75	0.00	2.25	2.25	7.25	12.25	15.50	19.75	19.50	13.00	24.25	11.50	13.75	-0.362305	0.102539	1.069336	61.880001	145.809998	-29.680000	1427.00	0.24	-0.09	0.00	0.00	0.00	0.25	0.00	0.00	2.00	0.00	0.00	0.00	0.00	0.00	0.00	0.00	0.00	0.00	-2.520508	0.206055	1.836914	108.779999	-326.269989	74.410004	33.00	0.00	0.00
2.70	0.00	0.00	0.00	1.00	0.00	1.25	1.75	6.75	12.50	15.50	20.00	19.75	13.00	26.00	12.50	14.25	-0.422852	0.176270	1.025879	67.269997	170.100006	-28.350000	1440.00	0.25	-0.08	0.00	0.00	0.00	0.50	0.00	0.00	2.00	0.00	0.00	0.00	0.00	0.00	0.00	0.00	0.00	0.00	-2.771973	-0.101562	1.432129	131.320007	-295.540009	78.540001	36.00	0.00	0.00
2.71	0.00	0.00	0.00	0.25	0.00	1.25	1.00	6.00	12.25	15.75	20.25	19.75	12.75	27.00	13.25	14.50	-0.469727	0.174805	1.037109	73.639999	192.500000	-30.309999	1426.00	0.26	-0.08	0.00	0.00	0.00	0.50	0.00	0.00	2.00	0.00	0.00	0.00	0.00	0.00	0.00	0.00	0.00	0.00	-3.114258	-0.520508	1.161621	132.300003	-252.490005	94.989998	36.00	0.00	0.00
2.72	0.00	0.00	0.00	0.00	0.00	1.00	0.50	5.75	12.25	15.75	20.00	19.50	12.00	28.00	13.75	14.75	-0.479980	0.162109	1.064941	72.660004	228.410004	-33.459999	1413.00	0.26	-0.08	0.00	0.00	0.00	0.25	0.00	0.00	2.00	0.00	0.00	0.00	0.00	0.00	0.00	0.00	0.00	0.00	-3.349121	-0.691406	0.935547	89.949997	-204.820007	121.239998	33.00	0.00	0.00
2.73	0.00	0.00	0.00	0.00	0.00	0.75	0.25	5.00	12.25	15.75	20.00	19.00	11.25	28.75	14.00	14.75	-0.474609	0.242676	1.122070	54.599998	262.429993	-38.290001	1392.00	0.27	-0.07	0.00	0.00	0.00	0.50	0.00	0.00	1.75	0.00	0.00	0.00	0.00	0.00	0.00	0.00	0.00	0.00	-3.515137	-0.405762	0.530273	29.049999	-159.250000	144.270004	32.00	0.00	0.00
2.74	0.00	0.00	0.00	0.00	0.00	0.25	0.00	4.75	12.25	15.75	19.50	18.50	10.25	29.00	14.00	14.50	-0.553223	0.298340	1.110352	31.290001	297.709991	-46.270000	1361.00	0.27	-0.07	0.00	0.00	0.00	0.25	0.00	0.00	2.00	0.00	0.00	0.00	0.00	0.00	0.00	0.00	0.00	0.00	-3.765625	-0.096680	-0.015625	0.350000	-113.750000	154.979996	33.00	0.00	0.00
2.75	0.00	0.00	0.00	0.00	0.00	0.00	0.00	4.25	12.50	15.75	19.00	17.50	9.00	28.75	13.50	14.25	-0.658203	0.393555	1.191895	14.840000	341.320007	-58.099998	1318.00	0.28	-0.06	0.00	0.00	0.00	0.50	0.00	0.00	2.00	0.00	0.00	0.00	0.00	0.00	0.00	0.00	0.00	0.00	-3.966797	-0.080566	0.003418	7.280000	-62.510002	154.210007	36.00	0.00	0.00
2.76	0.00	0.00	0.00	0.00	0.00	0.00	0.00	3.75	12.50	15.50	18.50	16.25	8.00	28.25	13.00	13.50	-0.594727	0.339355	1.241699	6.720000	390.179993	-73.500000	1267.00	0.28	-0.05	0.00	0.00	0.00	0.25	0.00	0.00	2.00	0.00	0.00	0.00	0.00	0.00	0.00	0.00	0.00	0.00	-3.803223	-0.218750	0.256348	11.340000	30.660000	143.360001	33.00	0.00	0.00
2.77	0.00	0.00	0.00	0.00	0.00	0.00	0.00	3.50	12.25	15.25	17.75	15.00	6.75	27.50	12.00	12.75	-0.750488	0.382812	1.296875	-5.180000	434.279999	-89.250000	1205.00	0.28	-0.04	0.00	0.00	0.00	0.25	0.00	0.00	2.00	0.00	0.00	0.00	0.00	0.00	0.00	0.00	0.00	0.00	-3.564941	-0.264160	0.361816	8.610000	63.770000	139.789993	33.00	0.00	0.00
2.78	0.00	0.00	0.00	0.00	0.00	0.00	0.00	3.00	11.25	14.25	16.25	13.00	5.75	26.50	11.00	11.75	-0.980469	0.441895	1.270508	-14.910000	473.760010	-102.480003	1104.00	0.28	-0.04	0.00	0.00	0.00	0.50	0.00	0.00	1.75	0.00	0.00	0.00	0.00	0.00	0.00	0.00	0.00	0.00	-7.061523	-0.772949	-1.533203	0.630000	88.690002	134.889999	32.00	0.00	0.00
2.79	0.00	0.00	0.00	0.00	0.00	0.00	0.00	2.50	9.50	12.25	14.00	11.00	5.00	25.25	10.00	10.00	-1.410156	0.615723	2.194824	-11.690000	500.850006	-104.860001	971.00	0.29	-0.03	0.50	0.75	0.75	0.50	0.00	0.00	1.75	0.00	0.00	0.00	0.00	0.00	0.00	0.00	0.00	0.00	0.595215	-0.995605	-0.453125	-4.970000	246.119995	112.489998	52.00	-0.13	0.10
2.80	0.00	0.00	0.00	0.00	0.00	0.00	0.25	1.75	7.75	10.00	11.25	8.75	4.00	23.00	8.75	8.25	-1.979980	0.564453	2.496094	13.580000	510.720001	-91.000000	814.00	0.29	-0.02	2.00	3.50	1.00	2.00	0.00	0.00	1.75	0.00	0.00	0.00	0.00	0.00	0.00	0.00	0.00	0.00	0.278809	-0.215820	3.637695	-56.490002	276.570007	74.620003	113.00	-0.26	-0.01
2.81	0.00	0.00	0.00	0.00	0.00	0.00	0.25	0.75	5.00	8.25	9.00	7.25	2.75	19.50	7.25	6.75	-2.611328	0.646484	3.495605	71.190002	510.089996	-73.430000	640.00	0.30	-0.02	6.50	8.25	2.00	4.00	0.00	0.00	1.75	0.00	0.00	0.00	0.00	0.00	0.00	0.00	0.00	0.00	0.403320	-0.708496	1.381348	-52.080002	207.830002	61.670002	236.00	-0.32	-0.03
2.82	0.00	0.00	0.00	0.00	0.00	0.25	0.25	0.25	3.00	7.00	7.75	6.25	1.50	15.25	5.75	5.75	-1.174805	1.227051	3.129395	122.500000	505.260010	-68.040001	504.00	0.30	-0.02	11.75	12.75	3.25	6.00	0.00	0.00	1.50	0.00	0.00	0.00	0.00	0.00	0.00	0.00	0.00	0.00	-0.380371	-1.255859	0.932129	-13.020000	210.419998	32.480000	364.00	-0.34	-0.03
2.83	0.00	0.00	0.00	0.00	0.00	0.00	0.25	0.00	1.50	6.00	6.50	5.50	1.25	12.00	4.25	4.50	-1.278320	0.685059	2.924805	202.229996	479.220001	-86.309998	394.00	0.30	-0.03	17.75	17.50	6.00	8.00	0.00	0.00	1.50	0.00	0.00	0.00	0.00	0.00	0.00	0.00	0.00	0.00	-0.339844	-0.588379	1.815918	5.110000	257.600006	-21.980000	522.00	-0.35	-0.03
2.84	0.00	0.00	0.00	0.00	0.00	0.00	0.25	0.00	1.25	5.00	5.75	4.50	0.50	8.75	2.25	3.75	-0.829590	1.089844	3.202148	270.200012	465.010010	-116.830002	303.00	0.29	-0.03	22.00	21.00	7.50	9.75	0.00	0.00	1.75	0.00	0.00	0.00	0.00	0.00	0.00	0.00	0.00	0.00	-0.597656	0.350098	2.044922	9.520000	261.029999	-66.779999	638.00	-0.35	-0.03
2.85	0.00	0.00	0.00	0.00	0.00	0.00	0.50	0.00	0.75	4.50	5.75	4.25	0.25	4.75	0.75	3.50	-0.424805	0.705566	3.801270	289.170013	455.420013	-150.289993	239.00	0.27	-0.06	24.25	22.50	9.25	11.50	0.25	1.00	1.75	0.00	0.00	0.00	0.00	0.00	0.00	0.00	0.00	0.00	-0.540039	1.057129	1.809082	26.740000	264.179993	-67.620003	728.00	-0.35	-0.03
2.86	0.00	0.00	0.00	0.00	0.00	0.00	0.75	0.00	1.00	4.25	5.50	3.50	0.25	2.00	0.25	3.50	2.718262	-0.124512	2.605469	265.160004	323.679993	-257.670013	204.00	0.25	-0.06	25.25	23.25	10.75	12.50	1.00	2.50	2.00	0.50	0.00	0.00	0.00	0.00	0.25	0.00	0.00	0.00	-0.468750	0.921875	2.136230	25.830000	261.519989	-35.700001	811.00	-0.33	-0.04
2.87	0.00	0.00	0.00	0.00	0.00	0.00	0.75	0.00	0.75	4.25	5.50	3.50	0.00	1.50	0.25	3.50	0.740234	2.761719	7.612305	87.290001	22.960001	-252.839996	194.00	0.25	-0.07	25.25	23.25	11.50	13.75	1.50	4.50	2.00	1.00	0.00	0.00	0.00	0.00	0.50	0.00	0.00	0.00	-0.546387	0.380859	2.321289	-20.510000	229.529999	-14.000000	870.00	-0.32	-0.05
2.88	0.00	0.00	0.00	0.00	0.00	0.00	0.75	0.00	0.75	4.25	5.25	3.50	0.00	1.50	0.25	3.50	1.433105	1.120117	4.719727	24.850000	-262.360016	-147.910004	192.00	0.25	-0.07	25.25	23.00	12.25	14.25	2.25	6.25	2.25	2.00	0.00	0.00	0.00	0.00	1.00	0.25	0.00	0.00	-0.402344	0.246094	1.769043	-55.160000	173.110001	-5.880000	934.00	-0.30	-0.06
2.89	0.00	0.00	0.00	0.00	0.00	0.00	0.75	0.00	0.75	4.00	5.00	3.25	0.00	1.50	0.50	3.50	0.712891	0.665039	1.493164	-29.680000	-333.269989	-65.590004	187.00	0.25	-0.07	25.25	22.50	12.50	14.50	2.75	7.50	2.25	3.00	0.00	0.00	0.00	0.50	1.25	0.50	0.00	0.00	-0.282227	0.229980	1.324707	-64.050003	125.650002	-0.350000	979.00	-0.29	-0.07
2.90	0.00	0.00	0.00	0.00	0.00	0.00	0.75	0.00	0.50	3.75	4.75	3.00	0.00	1.50	0.00	3.50	0.416504	0.893555	0.889160	-85.330002	-281.399994	-13.790000	170.00	0.25	-0.07	24.50	22.00	12.75	15.00	3.75	8.25	2.50	5.00	0.00	0.00	0.00	0.25	1.75	0.75	0.00	0.00	-0.227539	0.114258	1.271973	-56.070000	93.029999	3.080000	1032.00	-0.27	-0.08
2.91	0.00	0.00	0.25	0.00	0.00	0.00	0.75	0.00	0.25	3.50	4.75	3.00	0.00	1.25	0.00	3.50	0.722168	1.166992	1.073730	-67.059998	-245.699997	6.860000	165.00	0.24	-0.08	23.50	21.50	13.00	14.75	4.75	8.75	2.50	6.00	0.00	0.00	0.00	0.50	2.50	0.75	0.00	0.00	-0.240723	0.165039	1.196289	-43.400002	61.110001	3.220000	1058.00	-0.26	-0.08
2.92	0.00	0.00	0.00	0.00	0.00	0.00	0.75	0.00	0.50	3.75	4.75	3.25	0.00	0.50	0.00	3.75	0.645020	0.868652	1.778320	-4.620000	-269.709991	14.420000	166.00	0.24	-0.09	23.25	21.25	12.75	15.25	5.25	9.50	2.50	6.50	0.00	0.00	0.25	0.25	3.00	0.75	0.00	0.25	-0.184570	0.172363	1.101562	-28.559999	39.410000	4.060000	1083.00	-0.26	-0.09
2.93	0.00	0.00	0.00	0.00	0.00	0.00	0.75	0.00	0.25	3.25	5.00	2.75	0.00	0.75	0.25	3.50	0.614258	0.366211	1.827637	29.330000	-313.950012	17.570000	158.00	0.24	-0.09	22.50	20.75	12.75	15.00	5.50	9.75	2.75	7.25	0.00	0.00	0.50	0.75	3.50	1.25	0.00	0.25	-0.170898	0.139648	1.061523	-21.490000	28.280001	3.780000	1105.00	-0.24	-0.09
2.94	0.00	0.00	0.00	0.00	0.00	0.00	0.75	0.00	0.00	3.50	4.75	2.75	0.00	1.00	0.00	3.25	0.442383	0.139160	1.565918	2.450000	-352.519989	19.879999	153.00	0.24	-0.09	22.00	20.25	12.50	15.25	6.00	10.00	2.75	7.50	0.00	0.00	0.50	0.50	3.50	1.25	0.00	0.25	-0.162598	0.160156	1.051758	-18.270000	22.190001	2.660000	1104.00	-0.24	-0.10
2.95	0.00	0.00	0.00	0.00	0.00	0.00	0.75	0.00	0.00	3.00	4.50	2.50	0.00	0.25	0.00	3.50	0.226562	0.337402	1.304199	-40.950001	-373.730011	20.790001	137.00	0.23	-0.10	21.25	19.75	12.50	14.75	6.25	10.25	3.00	7.75	0.50	0.50	0.25	1.00	4.25	1.25	0.00	0.50	-0.131836	0.150879	0.987305	-16.520000	17.780001	2.030000	1122.00	-0.23	-0.10
2.96	0.00	0.00	0.00	0.00	0.00	0.00	0.75	0.00	0.00	3.50	4.50	2.50	0.00	0.00	0.00	3.25	0.093262	0.536621	1.070801	-54.670002	-385.209991	21.210001	139.00	0.23	-0.10	20.50	19.00	12.25	14.50	6.25	10.25	3.00	8.00	0.25	0.25	0.50	1.00	4.75	1.50	0.25	0.50	-0.162109	0.055664	0.991699	-14.280000	14.350000	0.840000	1111.00	-0.22	-0.10
2.97	0.00	0.00	0.00	0.00	0.00	0.00	0.75	0.00	0.00	3.25	4.50	2.75	0.00	0.25	0.00	3.25	-0.060059	0.601562	0.951660	-39.060001	-389.410004	21.350000	141.00	0.23	-0.10	19.75	18.25	12.00	14.50	6.50	10.50	3.25	8.25	0.75	0.25	0.75	1.00	5.00	1.75	0.25	0.50	-0.149902	0.146484	0.993164	-13.440001	13.370000	-0.140000	1120.00	-0.21	-0.10
2.98	0.00	0.00	0.00	0.00	0.00	0.00	0.75	0.00	0.00	3.00	4.25	2.75	0.00	0.00	0.00	3.25	-0.086914	0.642578	1.092285	-18.410000	-389.269989	23.730000	134.00	0.23	-0.11	18.50	17.50	11.50	14.00	6.50	10.50	3.25	8.50	0.75	0.75	0.75	1.25	5.25	1.50	0.25	0.75	-0.149902	0.140625	0.996582	-12.320000	12.670000	-0.700000	1102.00	-0.20	-0.11
2.99	0.00	0.00	0.00	0.00	0.00	0.00	0.75	0.00	0.00	3.00	4.50	2.50	0.00	0.00	0.00	3.50	-0.129883	0.734375	1.279785	-7.350000	-395.429993	32.619999	135.00	0.23	-0.11	17.00	16.50	11.25	13.75	6.50	10.25	3.25	8.50	0.75	0.75	1.00	1.50	5.50	2.00	0.25	0.75	-0.147461	0.150391	0.992676	-10.990000	12.110000	-1.120000	1081.00	-0.19	-0.11
3.00	0.00	0.00	0.00	0.00	0.00	0.00	0.75	0.00	0.00	3.00	4.50	2.50	0.00	0.00	0.00	3.25	-0.218750	0.819824	1.247559	-3.850000	-403.549988	47.740002	134.00	0.23	-0.11	16.00	15.25	10.75	13.25	6.25	10.25	3.25	8.50	1.00	0.50	1.00	1.75	5.75	2.00	0.25	0.75	-0.148926	0.154297	1.007812	-9.380000	11.550000	-2.030000	1051.00	-0.18	-0.11
3.01	0.00	0.00	0.00	0.00	0.00	0.00	0.75	0.00	0.00	3.00	4.25	2.75	0.00	0.00	0.25	3.50	-0.383301	0.897461	1.203613	3.430000	-404.880005	66.779999	138.00	0.24	-0.11	14.50	14.00	10.50	12.75	6.25	10.00	3.25	8.75	1.25	1.00	1.00	1.75	6.00	2.25	0.25	0.75	-0.155273	0.154297	0.989258	-8.120000	10.990000	-2.660000	1029.00	-0.17	-0.11
3.02	0.00	0.00	0.00	0.00	0.00	0.00	0.75	0.00	0.00	2.75	4.25	2.50	0.00	0.00	0.00	3.25	-0.504883	0.932129	1.339844	15.190001	-399.700012	89.389999	129.00	0.23	-0.11	13.50	12.75	10.00	12.25	6.00	10.00	3.25	8.75	1.25	0.75	1.25	2.00	6.25	2.25	0.50	1.25	-0.146973	0.143066	0.980957	-7.350000	10.850000	-3.080000	1004.00	-0.16	-0.12
3.03	0.00	0.00	0.00	0.00	0.00	0.00	0.75	0.00	0.00	2.75	4.25	2.50	0.00	0.00	0.00	3.25	-0.568359	0.933594	1.567383	23.660000	-395.850006	115.709999	129.00	0.23	-0.11	11.50	11.75	9.25	11.75	5.75	9.50	3.25	8.75	1.00	1.00	1.75	2.25	6.50	2.50	0.75	1.00	-0.155762	0.141113	0.979004	-6.790000	10.990000	-3.570000	965.00	-0.15	-0.12
3.04	0.00	0.00	0.00	0.00	0.00	0.00	0.75	0.00	0.00	2.75	4.00	2.50	0.00	0.00	0.00	3.50	-0.683594	0.922363	1.824707	33.110001	-398.230011	141.750000	127.00	0.23	-0.11	10.25	10.50	9.00	11.00	5.50	9.50	3.25	8.75	1.50	1.25	1.75	2.50	7.00	2.00	0.50	1.50	-0.154297	0.141113	0.960938	-6.230000	10.990000	-4.130000	938.00	-0.13	-0.13
3.05	0.00	0.00	0.00	0.00	0.00	0.00	0.75	0.00	0.00	2.75	4.25	2.50	0.00	0.00	0.00	3.25	-0.791992	0.750977	1.998535	47.529999	-403.690002	159.529999	129.00	0.23	-0.11	9.25	9.25	8.25	10.50	5.50	9.25	3.50	9.00	1.75	1.50	2.00	2.75	7.25	2.75	0.50	1.25	-0.139648	0.133301	0.959961	-6.930000	11.130000	-4.900000	926.00	-0.12	-0.13
3.06	0.00	0.00	0.00	0.00	0.00	0.00	0.75	0.00	0.00	2.75	4.00	2.75	0.00	0.00	0.00	3.25	-0.978516	0.511230	2.115723	64.260002	-408.450012	165.970001	129.00	0.23	-0.11	8.00	8.50	8.00	10.00	5.00	9.25	3.50	9.00	1.75	1.75	2.25	3.25	7.50	3.00	0.50	1.25	-0.153320	0.141113	0.959473	-9.170000	12.110000	-6.300000	907.00	-0.10	-0.13
3.07	0.00	0.00	0.00	0.00	0.00	0.00	0.50	0.00	0.00	2.75	4.00	2.75	0.00	0.00	0.00	3.25	-1.298828	0.128418	2.361816	75.110001	-411.670013	158.479996	125.00	0.23	-0.12	7.00	7.50	7.50	9.25	5.00	8.75	3.50	9.00	2.25	2.00	2.50	3.75	7.75	3.25	0.75	1.50	-0.185059	0.177246	0.968262	-11.550000	12.320000	-7.490000	894.00	-0.08	-0.13
3.08	0.00	0.00	0.00	0.00	0.00	0.00	0.75	0.00	0.00	3.00	4.00	2.75	0.00	0.00	0.00	3.25	-1.451172	0.097656	2.510254	67.690002	-409.850006	153.020004	131.00	0.23	-0.11	6.50	6.75	7.00	8.75	5.00	8.50	3.50	9.00	2.75	2.50	3.00	4.25	8.00	3.75	0.75	1.50	-0.162109	0.141113	0.963867	-13.790000	11.970000	-8.610000	896.00	-0.06	-0.13
3.09	0.00	0.00	0.00	0.00	0.00	0.00	0.75	0.00	0.00	3.00	4.00	2.75	0.00	0.00	0.00	3.50	-1.637207	0.113770	2.608887	54.880001	-405.089996	149.940002	133.00	0.23	-0.11	5.75	6.00	6.75	8.25	4.75	8.25	3.75	9.00	3.25	2.75	3.75	5.00	8.25	4.25	1.00	1.75	-0.176270	0.142578	0.966309	-16.520000	12.390000	-9.870000	907.00	-0.04	-0.13
3.10	0.00	0.00	0.00	0.00	0.00	0.00	0.75	0.00	0.00	2.75	4.00	2.75	0.00	0.00	0.00	3.25	-1.973633	0.207031	2.622070	39.060001	-398.510010	148.889999	129.00	0.23	-0.11	5.00	5.25	6.00	8.00	4.50	7.75	3.75	8.75	3.75	3.50	4.50	6.00	8.50	5.25	1.00	2.00	-0.177246	0.125977	0.967285	-18.760000	13.230000	-10.990000	914.00	-0.02	-0.12
3.11	0.00	0.00	0.00	0.00	0.00	0.00	0.75	0.00	0.00	3.00	4.00	2.75	0.00	0.00	0.00	3.25	-2.336914	0.405273	2.479980	28.700001	-386.470001	147.000000	131.00	0.23	-0.11	4.25	4.75	5.75	7.50	4.25	7.50	4.00	8.75	4.75	4.50	6.00	7.25	8.75	6.00	1.25	2.25	-0.178223	0.128418	0.967773	-20.299999	14.140000	-11.480000	957.00	0.01	-0.12
3.12	0.00	0.00	0.00	0.00	0.00	0.00	0.50	0.00	0.00	2.75	4.00	2.75	0.00	0.00	0.00	3.25	-2.746582	0.543945	2.149902	30.520000	-365.820007	141.330002	125.00	0.23	-0.12	3.50	3.50	5.25	6.75	4.00	7.00	4.25	8.75	5.50	6.00	7.50	8.00	9.00	6.75	1.75	2.75	-0.188477	0.129883	0.971191	-20.370001	15.190001	-11.690000	985.00	0.04	-0.11
3.13	0.00	0.00	0.00	0.00	0.00	0.00	0.75	0.00	0.00	3.00	4.00	2.50	0.00	0.00	0.00	3.50	-3.073242	0.713867	1.734863	40.040001	-334.880005	130.690002	130.00	0.23	-0.11	2.50	3.25	5.00	6.50	4.00	7.00	4.50	8.75	6.75	7.50	8.25	8.50	9.25	7.50	2.00	3.00	-0.181641	0.122070	0.971680	-19.950001	17.010000	-11.970000	1028.00	0.06	-0.10
3.14	0.00	0.00	0.00	0.00	0.00	0.00	0.75	0.00	0.00	2.75	4.00	2.75	0.00	0.00	0.00	3.25	-3.399414	0.774414	1.411133	63.000000	-298.059998	121.169998	129.00	0.23	-0.11	2.50	2.50	4.50	6.00	3.75	6.50	4.75	8.75	7.50	8.25	9.00	9.00	9.50	8.75	2.25	3.25	-0.193848	0.118652	0.977051	-17.780001	18.969999	-12.530000	1053.00	0.08	-0.10
3.15	0.00	0.25	0.25	0.00	0.00	0.00	0.50	0.00	0.00	3.00	4.00	2.75	0.00	0.00	0.00	3.25	-3.755371	0.496094	1.085938	91.980003	-255.080002	116.270004	133.00	0.21	-0.12	1.75	2.00	3.50	5.50	3.50	6.00	5.00	8.50	8.25	9.25	9.75	9.75	10.00	9.75	2.75	4.00	-0.193359	0.118652	0.984375	-10.640000	23.799999	-13.580000	1074.00	0.10	-0.09
3.16	0.00	0.00	0.00	0.00	0.00	0.00	0.50	0.00	0.00	2.75	4.00	3.00	0.00	0.00	0.00	3.25	-4.004395	0.070801	0.824707	106.050003	-204.889999	119.139999	128.00	0.23	-0.13	1.25	1.75	3.50	5.25	3.25	5.75	5.00	8.50	9.25	10.00	10.25	10.25	10.25	11.50	3.00	4.50	-0.204102	0.128906	0.994629	-8.190000	27.650000	-14.630000	1113.00	0.12	-0.09
3.17	0.00	0.00	0.00	0.00	0.00	0.00	0.50	0.00	0.00	3.00	4.25	2.75	0.00	0.00	0.00	3.25	-4.323730	-0.270020	0.553711	91.349998	-151.759995	130.270004	130.00	0.23	-0.12	1.00	1.25	2.75	4.50	2.75	5.25	5.25	8.50	10.00	10.75	11.25	11.00	10.50	13.25	3.75	5.25	-0.222168	0.128906	0.982422	-5.250000	32.060001	-16.240000	1147.00	0.14	-0.08
3.18	0.00	0.00	0.00	0.00	0.00	0.00	0.50	0.00	0.00	3.00	4.00	2.50	0.00	0.00	0.00	3.25	-4.458008	-0.349121	0.121582	61.459999	-95.340004	145.740005	125.00	0.24	-0.12	0.75	1.75	2.50	3.50	2.25	4.75	5.25	8.25	11.00	11.50	12.00	11.50	10.75	15.25	5.00	5.75	-0.211914	0.108398	1.003906	-2.380000	36.610001	-17.430000	1189.00	0.16	-0.07
3.19	0.00	0.00	0.00	0.00	0.00	0.00	0.50	0.00	0.00	3.00	4.00	2.75	0.00	0.00	0.00	3.25	-4.458008	-0.123535	-0.112305	39.410000	-37.380001	160.580002	127.00	0.24	-0.12	0.25	0.50	1.75	3.50	1.75	4.25	5.25	8.25	11.75	12.50	12.75	12.00	11.00	17.50	6.00	6.25	-0.230957	0.151855	0.991699	1.470000	43.049999	-20.020000	1221.00	0.18	-0.07
3.20	0.00	0.00	0.00	0.00	0.00	0.00	0.50	0.00	0.00	3.00	4.25	2.50	0.00	0.00	0.00	3.00	-4.560547	-0.026855	-0.061035	38.150002	14.840000	170.100006	126.00	0.23	-0.11	0.25	0.00	1.50	2.50	1.00	3.25	5.25	8.00	12.75	13.25	13.50	12.75	11.25	20.00	6.75	6.50	-0.229004	0.148926	1.013184	7.070000	52.709999	-23.309999	1249.00	0.20	-0.06
3.21	0.00	0.00	0.00	0.00	0.00	0.00	0.50	0.00	0.00	3.00	4.25	2.75	0.00	0.00	0.00	3.25	-4.701660	-0.135742	-0.008301	44.380001	62.369999	170.380005	130.00	0.23	-0.12	0.25	0.00	1.25	2.50	0.75	2.50	5.25	7.75	13.75	14.00	14.25	13.25	11.50	22.25	7.50	7.00	-0.273438	0.121582	1.028320	14.910000	64.959999	-26.809999	1298.00	0.21	-0.05
3.22	0.25	0.50	0.00	0.00	0.00	0.00	0.50	0.00	0.00	3.00	4.25	2.75	0.00	0.00	0.00	3.00	-7.249512	-1.382324	-3.956055	25.340000	90.930000	166.320007	136.00	0.20	-0.11	0.00	0.00	0.75	2.00	0.25	1.75	5.25	7.25	14.50	14.50	14.75	13.50	11.50	24.50	8.75	7.50	-0.269043	0.147461	1.054688	22.680000	85.260002	-27.719999	1321.00	0.23	-0.05
3.23	2.00	3.50	0.25	0.25	0.00	0.00	0.25	0.00	0.00	2.75	4.00	2.75	0.00	0.00	0.00	3.00	-0.549316	-1.091797	-0.269531	55.580002	256.269989	148.889999	178.00	0.03	-0.11	0.00	0.00	0.75	1.50	0.25	1.50	5.25	6.25	15.25	15.00	15.50	14.00	11.50	26.50	9.00	8.00	-0.317383	0.121582	1.140137	29.540001	109.620003	-27.860001	1348.00	0.23	-0.04
3.24	6.25	9.00	0.50	1.25	0.00	0.00	0.50	0.00	0.00	2.75	4.25	3.00	0.00	0.00	0.00	3.00	1.291016	-0.161621	2.144043	2.800000	238.979996	113.120003	296.00	-0.12	-0.09	0.00	0.00	0.50	1.25	0.00	1.25	5.00	5.75	16.00	15.50	15.75	14.25	11.25	28.50	10.00	8.25	-0.296875	0.128418	1.043457	31.290001	139.229996	-27.230000	1372.00	0.24	-0.03
3.25	10.75	16.00	1.75	2.50	0.00	0.00	0.50	0.00	0.00	2.75	4.25	2.75	0.00	0.00	0.00	3.00	-0.115723	-1.280273	1.632812	-16.520000	204.190002	68.809998	432.00	-0.21	-0.07	0.00	0.00	0.25	0.75	0.00	0.75	4.75	5.00	16.25	16.00	16.25	14.25	10.75	30.00	10.25	8.75	-0.348633	0.154297	1.078125	26.880001	170.380005	-27.790001	1371.00	0.25	-0.02
3.26	18.50	23.75	3.00	5.00	0.00	0.00	0.50	0.00	0.00	2.50	4.25	3.00	0.00	0.00	0.00	3.00	-0.364746	-0.804688	1.861816	4.900000	239.680008	24.150000	625.00	-0.26	-0.07	0.00	0.00	0.00	0.50	0.00	0.50	4.25	3.75	16.75	16.25	16.25	14.25	10.25	31.25	10.75	9.00	-0.390625	0.161621	1.091797	21.139999	207.619995	-31.150000	1358.00	0.26	-0.02
3.27	24.50	28.75	6.50	7.25	0.00	0.00	0.50	0.00	0.00	2.75	4.25	3.00	0.00	0.00	0.00	3.00	-0.433594	-0.477051	2.036621	37.730000	267.190002	-13.020000	799.00	-0.28	-0.05	0.00	0.00	0.00	0.75	0.00	0.00	4.00	3.00	17.25	16.25	16.25	14.00	9.50	32.25	11.00	9.25	-0.404297	0.132812	1.160645	11.970000	243.389999	-34.860001	1350.00	0.27	-0.01
3.28	26.75	31.75	7.75	9.00	0.00	0.25	0.50	0.25	0.00	2.50	4.25	3.25	0.00	0.00	0.00	2.75	-0.116699	0.697266	3.103516	33.459999	307.299988	-46.970001	888.00	-0.29	-0.06	0.00	0.00	0.00	0.50	0.00	0.25	3.50	2.50	17.25	16.75	16.00	13.50	9.00	33.00	11.00	9.50	-0.438477	0.183105	1.153320	-0.980000	272.790009	-37.869999	1336.00	0.27	-0.00
3.29	28.00	33.00	9.25	11.25	0.50	1.75	0.50	0.50	0.00	2.50	4.25	3.25	0.00	0.00	0.00	3.00	-0.578125	0.392090	2.089844	40.599998	299.670013	-35.840000	981.00	-0.29	-0.06	0.00	0.00	0.00	0.00	0.00	0.00	3.00	2.25	17.25	16.25	15.50	13.25	8.25	33.50	11.25	9.50	-0.495605	0.205078	1.164551	-11.760000	302.470001	-42.349998	1303.00	0.28	0.00
3.30	28.25	32.50	11.00	13.75	1.50	3.50	0.75	1.00	0.00	2.75	4.25	3.50	0.25	0.00	0.00	3.00	-0.474121	0.154297	1.894531	35.840000	283.010010	-36.049999	1075.00	-0.27	-0.07	0.00	0.00	0.00	0.00	0.00	0.00	2.50	1.75	17.00	16.50	15.25	12.75	7.25	33.50	11.25	9.25	-0.594727	0.209961	1.201660	-19.670000	337.890015	-49.490002	1270.00	0.28	0.01
3.31	27.75	32.75	12.50	15.75	1.75	6.50	0.75	2.00	0.00	2.75	4.25	3.25	0.50	0.00	0.00	3.00	-0.406738	0.446777	1.926270	6.370000	247.940002	-36.610001	1161.00	-0.27	-0.08	0.00	0.00	0.00	0.00	0.00	0.00	2.25	1.25	16.50	16.25	14.75	12.00	6.50	33.00	11.25	9.00	-0.698730	0.307129	1.280273	-17.850000	377.929993	-57.400002	1224.00	0.29	0.01
3.32	27.75	32.75	13.50	17.00	2.75	8.00	1.00	4.00	0.00	2.75	4.25	3.50	0.75	0.25	0.00	3.25	-0.517090	0.527832	1.751465	-42.980000	186.970001	-21.700001	1256.00	-0.25	-0.09	0.00	0.00	0.00	0.00	0.00	0.00	2.00	1.00	15.50	15.75	14.25	11.75	5.50	31.75	11.00	8.50	-0.367188	0.270020	1.235840	-22.820000	409.220001	-68.250000	1165.00	0.29	0.01
3.33	26.75	32.25	14.00	18.00	4.00	9.25	1.00	5.50	0.00	2.75	4.50	3.50	1.25	0.50	0.00	3.25	-0.351074	0.182129	1.458008	-62.860001	134.539993	-8.120000	1316.00	-0.24	-0.10	0.00	0.00	0.00	0.00	0.00	0.00	1.75	0.75	13.50	14.50	13.25	10.75	4.50	30.75	10.50	7.75	-0.751953	0.323730	1.204102	-16.660000	443.519989	-79.800003	1071.00	0.29	0.02
3.34	26.00	31.25	14.50	18.25	5.00	10.25	1.00	6.25	0.00	3.00	4.25	3.50	1.75	1.00	0.00	3.50	-0.251953	0.227539	1.419922	-54.950001	90.230003	-5.390000	1351.00	-0.23	-0.10	0.00	0.00	0.00	0.00	0.00	0.00	1.75	0.75	10.25	12.25	11.50	9.75	4.00	28.75	10.25	6.75	-1.181152	0.472168	1.970215	2.870000	481.529999	-87.709999	947.00	0.30	0.01
3.35	26.00	30.75	14.50	18.25	5.75	11.00	1.25	6.75	0.00	3.00	4.50	3.50	2.00	1.00	0.00	3.50	-0.229492	0.276367	1.022949	-35.910000	56.279999	-5.180000	1379.00	-0.23	-0.10	0.00	0.00	0.00	0.00	0.00	0.00	1.75	0.25	7.50	9.75	9.50	8.25	3.50	25.75	9.25	5.25	-2.174805	0.861816	2.499512	101.709999	512.400024	-70.629997	792.00	0.30	0.01
3.36	25.00	30.25	14.50	18.00	6.00	11.50	1.25	7.25	0.00	3.00	4.25	3.50	2.50	1.00	0.00	3.75	-0.101074	0.138184	0.984375	-22.889999	41.930000	-4.480000	1380.00	-0.22	-0.11	0.00	0.00	0.00	0.00	0.00	0.00	1.75	0.25	5.50	7.75	7.50	6.25	2.75	21.00	8.00	3.00	-1.386230	1.044434	3.491699	139.930008	514.500000	-63.420002	630.00	0.30	0.02
3.37	23.75	28.75	13.75	17.75	6.50	11.75	1.25	7.50	0.00	3.25	4.50	3.75	2.75	1.50	0.00	3.75	-0.148926	0.170410	1.002930	-19.950001	34.160000	-5.110000	1369.00	-0.21	-0.11	0.00	0.00	0.00	0.00	0.00	0.00	1.50	0.00	3.25	5.75	5.00	4.50	1.75	16.00	6.25	1.25	-1.424316	0.785645	3.415527	189.490005	501.339996	-69.300003	449.00	0.30	0.02
3.38	23.25	28.00	13.75	17.25	6.75	12.00	1.50	8.00	0.25	3.25	4.50	3.75	3.25	1.50	0.00	4.00	-0.190430	0.145996	0.996094	-20.510000	29.610001	-6.020000	1377.00	-0.21	-0.11	0.00	0.00	0.00	0.00	0.00	0.00	1.50	0.00	1.75	4.00	3.25	2.75	1.00	11.00	4.75	0.50	-1.618652	0.589355	4.781738	240.169998	490.140015	-88.129997	305.00	0.30	0.03
3.39	22.25	26.50	13.50	16.50	7.00	12.00	1.50	8.25	0.00	3.50	4.50	4.00	3.75	1.75	0.00	4.00	-0.208008	0.094727	0.994629	-18.270000	26.600000	-7.420000	1357.00	-0.20	-0.11	0.00	0.00	0.00	0.00	0.00	0.00	1.50	0.00	1.25	2.75	2.00	1.75	0.50	7.50	2.75	0.50	-0.327148	1.214844	2.502441	286.720001	501.410004	-119.770004	207.00	0.30	0.05
3.40	20.75	25.00	13.00	16.00	7.50	12.00	1.75	8.25	0.50	3.00	4.50	4.25	4.00	1.75	0.25	4.00	-0.166504	0.148438	0.982910	-16.660000	25.480000	-8.260000	1334.00	-0.19	-0.11	0.00	0.00	0.00	0.00	0.00	0.00	1.75	0.00	0.25	2.00	1.75	1.00	0.25	5.00	1.00	0.25	-0.043457	1.123047	3.257324	360.079987	472.779999	-156.029999	136.00	0.27	0.06
3.41	19.25	23.25	12.50	14.75	7.50	11.75	1.75	8.50	0.25	3.75	4.75	4.25	4.50	2.00	0.25	4.25	-0.175293	0.138672	0.971191	-15.540000	25.340000	-8.750000	1299.00	-0.18	-0.12	0.00	0.00	0.00	0.00	0.00	0.00	2.00	0.00	0.25	1.00	1.00	0.50	0.00	2.25	0.50	0.00	0.922363	0.708496	3.678711	422.589996	417.410004	-206.009995	84.00	0.23	0.11
3.42	16.75	20.75	11.75	14.00	7.50	11.25	2.00	8.50	0.25	3.50	5.00	4.50	5.00	2.25	0.50	4.50	-0.183105	0.121094	0.972168	-15.190001	25.969999	-9.240000	1245.00	-0.16	-0.12	0.00	0.00	0.00	0.25	0.00	0.00	2.00	0.00	0.25	1.25	1.00	0.25	0.00	1.50	0.25	0.00	2.710938	-0.488770	2.466309	357.910004	293.649994	-271.670013	78.00	0.19	0.11
3.43	15.50	18.50	11.25	13.25	7.75	11.00	2.00	8.75	0.25	4.25	5.00	4.50	5.50	2.50	0.50	4.50	-0.179688	0.148438	0.980957	-14.840000	26.670000	-9.520000	1216.00	-0.15	-0.12	0.00	0.00	0.00	0.25	0.00	0.00	2.00	0.00	0.25	0.25	0.75	0.00	0.00	0.50	0.25	0.00	0.797852	2.488281	8.360840	142.589996	-67.620003	-201.809998	54.00	0.14	0.14
3.44	13.75	16.00	10.25	12.00	7.75	10.50	2.25	8.75	0.50	4.00	5.50	5.00	5.75	2.75	0.50	4.50	-0.175781	0.144043	0.974121	-14.140000	27.160000	-9.660000	1164.00	-0.13	-0.12	0.00	0.00	0.00	0.25	0.00	0.00	2.00	0.00	0.00	0.50	1.00	0.00	0.00	0.25	0.25	0.00	1.692383	0.332031	4.170410	-7.000000	-325.290009	-72.169998	53.00	0.13	0.11
3.45	11.50	13.50	9.75	10.25	7.50	10.00	2.50	8.75	0.75	4.00	5.50	5.50	6.00	2.75	0.50	4.75	-0.193848	0.138672	0.950684	-13.720000	28.070000	-9.870000	1100.00	-0.11	-0.13	0.00	0.25	0.00	0.25	0.00	0.00	2.00	0.00	0.25	0.75	0.75	0.00	0.00	0.50	0.50	0.00	0.733398	0.576172	1.854980	-153.300003	-395.220001	-8.820000	64.00	0.14	0.11
3.46	9.75	11.25	9.00	9.50	7.50	9.50	2.50	8.50	1.00	4.00	5.75	5.75	6.25	3.50	1.00	5.00	-0.182617	0.132324	0.948242	-13.440001	29.540001	-10.150000	1059.00	-0.08	-0.13	0.00	0.00	0.00	0.00	0.00	0.00	2.00	0.00	0.00	0.50	0.75	0.00	0.00	0.25	0.25	0.00	0.701660	1.318359	1.075195	-137.899994	-348.250000	14.280000	48.00	0.00	0.00
3.47	8.25	9.25	8.50	8.50	7.25	9.00	2.75	8.50	1.25	4.75	6.50	6.25	6.50	3.25	0.75	5.00	-0.192383	0.130859	0.955078	-14.000000	31.010000	-11.060000	1026.00	-0.06	-0.13	0.00	0.00	0.00	0.25	0.00	0.00	2.00	0.00	0.00	0.50	0.50	0.00	0.00	0.00	0.00	0.00	0.900391	1.291992	1.143555	-7.210000	-316.890015	5.600000	43.00	0.00	0.00
3.48	7.00	7.75	7.75	7.50	6.75	8.50	2.75	8.50	1.50	5.00	6.75	6.75	6.75	3.75	0.75	5.25	-0.187012	0.125488	0.962891	-15.400000	32.619999	-12.040000	991.00	-0.04	-0.13	0.00	0.00	0.00	0.75	0.00	0.00	2.00	0.00	0.00	0.00	0.50	0.00	0.00	0.00	0.00	0.00	0.598145	0.749023	1.853027	116.970001	-342.579987	-11.130000	44.00	0.00	0.00
3.49	5.75	6.75	7.25	7.00	6.75	8.00	2.75	8.25	2.00	5.25	7.50	7.25	7.00	4.25	1.00	5.50	-0.191895	0.119629	0.951660	-18.340000	32.830002	-13.930000	981.00	-0.02	-0.13	0.00	0.00	0.00	0.50	0.00	0.00	2.00	0.00	0.00	0.00	0.25	0.00	0.00	0.25	0.00	0.00	0.447754	0.186035	2.046387	163.240005	-387.730011	-15.750000	41.00	0.00	0.00
3.50	5.25	5.75	6.75	6.25	6.50	7.25	3.00	8.25	2.50	6.50	7.75	8.00	7.25	5.00	1.00	5.50	-0.208984	0.119629	0.951172	-20.090000	32.060001	-15.120000	984.00	0.00	-0.12	0.00	0.00	0.00	0.25	0.00	0.00	2.00	0.00	0.00	0.00	0.00	0.00	0.00	0.00	0.00	0.00	0.358887	-0.071289	1.678711	117.320000	-430.360016	-2.520000	33.00	0.00	0.00
3.51	4.75	5.25	6.00	5.50	6.25	7.00	3.00	8.25	3.00	7.25	8.25	8.25	7.25	5.25	1.25	5.75	-0.214355	0.112305	0.934570	-19.600000	31.219999	-15.820000	981.00	0.02	-0.12	0.00	0.00	0.00	0.25	0.00	0.00	2.00	0.00	0.00	0.00	0.00	0.00	0.00	0.00	0.00	0.00	0.042480	0.141602	1.255859	46.200001	-449.890015	19.670000	33.00	0.00	0.00
3.52	3.50	4.25	5.75	5.00	6.25	6.50	3.25	8.25	3.75	7.75	9.00	8.75	7.50	6.50	1.25	5.75	-0.208984	0.026367	0.953125	-19.530001	29.120001	-16.379999	990.00	0.04	-0.11	0.00	0.00	0.00	0.00	0.00	0.00	2.00	0.00	0.00	0.00	0.00	0.00	0.00	0.25	0.00	0.00	-0.164062	0.338867	0.963867	22.330000	-444.709991	38.220001	32.00	0.00	0.00
3.53	3.00	3.75	5.50	4.50	6.00	6.25	3.25	8.00	4.50	8.25	9.50	9.25	8.00	7.50	1.50	6.00	-0.220703	0.100586	0.952148	-18.969999	28.350000	-16.799999	1005.00	0.06	-0.11	0.00	0.00	0.00	0.25	0.00	0.00	2.00	0.00	0.00	0.00	0.00	0.00	0.00	0.00	0.00	0.00	-0.236328	0.362793	1.074707	46.200001	-432.179993	49.420002	33.00	0.00	0.00
3.54	2.50	3.00	5.00	3.25	5.75	6.00	3.50	8.00	5.25	8.75	10.25	9.75	8.25	8.25	1.75	6.25	-0.232422	0.108887	0.958008	-18.059999	28.910000	-16.379999	1012.00	0.08	-0.10	0.00	0.00	0.00	0.75	0.00	0.00	2.00	0.00	0.00	0.00	0.00	0.00	0.00	0.00	0.00	0.00	-0.257812	0.188965	1.265137	74.199997	-422.450012	55.650002	39.00	0.00	0.00
3.55	2.00	2.50	4.50	3.25	5.50	5.75	3.75	7.75	7.00	9.25	11.00	10.50	8.50	9.00	2.00	6.50	-0.232910	0.094238	0.974121	-16.309999	30.450001	-16.450001	1048.00	0.10	-0.09	0.00	0.00	0.00	0.25	0.00	0.00	2.00	0.00	0.00	0.00	0.00	0.00	0.00	0.00	0.00	0.00	-0.460938	0.003418	1.470703	70.139999	-410.339996	64.959999	33.00	0.00	0.00
3.56	1.50	1.50	4.25	3.00	5.25	5.25	4.00	7.75	7.75	10.00	11.50	11.25	8.50	9.75	2.50	6.75	-0.244629	0.094238	0.955078	-13.930000	32.200001	-16.730000	1068.00	0.12	-0.09	0.00	0.00	0.00	0.00	0.00	0.00	2.00	0.00	0.00	0.00	0.00	0.00	0.00	0.00	0.00	0.00	-0.559082	0.080078	1.529297	65.239998	-403.829987	65.029999	30.00	0.00	0.00
3.57	1.25	0.75	3.75	2.50	4.75	5.00	4.00	7.75	8.50	10.75	12.25	11.75	8.75	10.75	2.75	7.00	-0.242676	0.098633	0.961426	-11.900000	33.740002	-17.290001	1084.00	0.14	-0.09	0.00	0.00	0.00	0.00	0.00	0.00	2.00	0.00	0.00	0.00	0.00	0.00	0.00	0.00	0.00	0.00	-0.629883	0.106934	1.690918	74.550003	-395.570007	65.730003	30.00	0.00	0.00
3.58	1.00	1.25	3.25	2.50	4.25	4.25	4.25	7.50	9.00	11.50	13.25	12.75	9.00	12.00	3.25	7.25	-0.245117	0.095215	0.962891	-9.170000	35.910000	-17.150000	1122.00	0.15	-0.08	0.00	0.00	0.00	0.00	0.00	0.00	2.00	0.00	0.00	0.00	0.00	0.00	0.00	0.00	0.00	0.00	-0.697266	0.079102	1.905762	85.750000	-389.760010	72.099998	30.00	0.00	0.00
3.59	1.00	1.00	2.50	2.00	3.50	4.00	4.50	7.50	9.75	12.00	14.00	13.50	9.50	13.00	4.25	7.75	-0.264160	0.094238	0.961426	-5.180000	38.709999	-17.500000	1155.00	0.16	-0.08	0.00	0.00	0.00	0.50	0.00	0.00	2.00	0.00	0.00	0.00	0.00	0.00	0.00	0.00	0.00	0.00	-0.783203	0.091309	2.197754	90.860001	-390.110016	83.650002	36.00	0.00	0.00
3.60	0.75	1.25	2.00	2.00	2.75	3.25	4.25	7.25	10.25	12.50	14.75	14.25	9.75	14.25	5.25	8.00	-0.278809	0.105957	0.969238	-0.980000	42.279999	-18.900000	1178.00	0.18	-0.08	0.00	0.00	0.00	0.00	0.00	0.00	2.00	0.00	0.00	0.00	0.00	0.00	0.00	0.00	0.00	0.00	-0.829102	0.094238	2.268555	89.110001	-396.549988	97.930000	30.00	0.00	0.00
3.61	0.25	0.75	1.50	1.25	2.25	3.00	4.25	7.00	10.75	13.25	15.50	15.00	10.00	15.75	6.00	8.50	-0.269531	0.090332	0.964355	3.010000	46.689999	-19.460001	1198.00	0.20	-0.08	0.00	0.00	0.00	0.50	0.00	0.00	2.00	0.00	0.00	0.00	0.00	0.00	0.00	0.00	0.00	0.00	-0.897949	0.135254	2.211914	87.360001	-398.720001	112.070000	36.00	0.00	0.00
3.62	0.50	0.75	1.25	0.75	1.50	2.25	4.00	6.75	11.00	14.00	16.25	15.75	10.25	17.00	7.00	9.00	-0.278320	0.119141	0.958008	7.630000	52.500000	-21.000000	1221.00	0.21	-0.07	0.00	0.00	0.00	0.25	0.00	0.00	2.00	0.00	0.00	0.00	0.00	0.00	0.00	0.00	0.00	0.00	-0.989746	0.115234	2.310059	92.959999	-394.380005	124.809998	33.00	0.00	0.00
3.63	0.00	0.50	0.75	1.00	1.00	1.75	3.75	6.75	11.50	14.50	17.25	16.50	10.50	18.50	7.75	9.50	-0.285645	0.116211	0.976562	12.460000	59.920002	-23.309999	1252.00	0.22	-0.07	0.00	0.00	0.00	0.50	0.00	0.00	2.00	0.00	0.00	0.00	0.00	0.00	0.00	0.00	0.00	0.00	-1.138672	0.020020	2.429199	97.510002	-389.269989	134.960007	36.00	0.00	0.00
3.64	0.00	0.00	0.50	0.75	0.50	1.75	3.25	6.25	12.00	15.00	18.00	17.25	10.75	20.25	8.75	10.00	-0.299316	0.131348	0.982422	18.059999	69.720001	-25.760000	1279.00	0.23	-0.07	0.00	0.00	0.00	0.00	0.00	0.00	2.00	0.00	0.00	0.00	0.00	0.00	0.00	0.00	0.00	0.00	-1.346680	-0.015625	2.583496	96.110001	-384.089996	140.979996	30.00	0.00	0.00
3.65	0.00	0.00	0.50	0.50	0.50	1.00	2.75	6.00	12.25	15.75	18.50	18.00	11.25	21.75	9.75	10.50	-0.325684	0.134766	0.976074	24.219999	83.580002	-26.880001	1311.00	0.24	-0.07	0.00	0.00	0.00	0.00	0.00	0.00	2.00	0.00	0.00	0.00	0.00	0.00	0.00	0.00	0.00	0.00	-1.592773	-0.036133	2.765625	90.019997	-382.829987	143.570007	30.00	0.00	0.00
