# time	left pressure 1[N/cm²]	left pressure 2[N/cm²]	left pressure 3[N/cm²]	left pressure 4[N/cm²]	left pressure 5[N/cm²]	left pressure 6[N/cm²]	left pressure 7[N/cm²]	left pressure 8[N/cm²]	left pressure 9[N/cm²]	left pressure 10[N/cm²]	left pressure 11[N/cm²]	left pressure 12[N/cm²]	left pressure 13[N/cm²]	left pressure 14[N/cm²]	left pressure 15[N/cm²]	left pressure 16[N/cm²]	left acceleration X[g]	left acceleration Y[g]	left acceleration Z[g]	left angular X[dps]	left angular Y[dps]	left angular Z[dps]	left total force[N]	left center of pressure X[%]	left center of pressure Y[%]	right pressure 1[N/cm²]	right pressure 2[N/cm²]	right pressure 3[N/cm²]	right pressure 4[N/cm²]	right pressure 5[N/cm²]	right pressure 6[N/cm²]	right pressure 7[N/cm²]	right pressure 8[N/cm²]	right pressure 9[N/cm²]	right pressure 10[N/cm²]	right pressure 11[N/cm²]	right pressure 12[N/cm²]	right pressure 13[N/cm²]	right pressure 14[N/cm²]	right pressure 15[N/cm²]	right pressure 16[N/cm²]	right acceleration X[g]	right acceleration Y[g]	right acceleration Z[g]	right angular X[dps]	right angular Y[dps]	right angular Z[dps]	right total force[N]	right center of pressure X[%]	right center of pressure Y[%]
0.00	3.00	1.50	4.25	3.50	1.75	7.00	1.00	8.00	4.50	4.00	1.75	2.00	9.75	8.25	2.75	3.50	-0.208008	0.073242	0.937988	-2.520000	1.610000	0.560000	842.00	0.06	-0.13	3.50	0.50	2.25	1.25	1.75	1.25	1.00	1.25	5.00	0.25	0.25	0.00	1.25	1.75	0.00	0.00	-0.186035	0.046387	0.937500	-2.310000	-6.860000	3.220000	290.00	-0.02	0.05
0.01	3.00	2.00	4.50	3.75	1.75	7.00	1.00	8.00	4.25	4.00	2.00	2.50	9.50	8.50	3.25	3.50	-0.217285	0.073242	0.934570	-2.590000	1.330000	0.630000	866.00	0.05	-0.13	3.75	0.75	2.00	1.25	1.75	0.75	0.75	1.25	4.75	0.50	0.25	0.00	1.25	1.50	0.00	0.00	-0.187988	0.047852	0.939453	-2.450000	-7.000000	3.220000	278.00	-0.03	0.05
0.02	3.00	1.75	4.25	3.75	1.75	7.00	1.00	8.00	4.50	4.00	2.00	2.50	9.50	8.25	3.25	3.50	-0.214844	0.072754	0.941895	-2.450000	0.770000	0.770000	861.00	0.06	-0.13	3.50	0.75	2.00	1.25	1.75	1.00	1.00	1.25	5.00	0.50	0.25	0.00	1.25	1.50	0.00	0.00	-0.185547	0.042969	0.945312	-2.380000	-7.140000	3.220000	287.00	-0.02	0.05
0.03																										3.50	0.50	2.25	1.25	2.00	1.25	1.00	1.25	4.75	0.25	0.25	0.00	1.25	1.50	0.00	0.00	-0.190430	0.049316	0.945312	-2.380000	-7.350000	3.220000	287.00	-0.03	0.04
0.04	3.25	2.00	4.25	3.50	1.75	7.00	1.00	8.00	4.25	4.00	2.00	2.25	9.75	8.25	3.00	3.75	-0.212891	0.077148	0.948730	-2.450000	0.700000	0.840000	858.00	0.05	-0.13	4.00	0.75	2.50	1.00	1.75	0.75	1.00	1.25	4.75	0.50	0.25	0.25	1.50	1.25	0.00	0.00	-0.186523	0.045898	0.944824	-2.450000	-7.350000	3.220000	293.00	-0.03	0.04
0.05	3.00	2.00	4.50	3.25	1.75	7.00	1.00	8.00	4.25	4.00	1.75	2.00	10.00	8.25	3.00	3.50	-0.217773	0.077637	0.950195	-2.310000	0.840000	0.840000	849.00	0.05	-0.13	3.75	0.75	2.50	1.25	1.75	1.00	1.00	1.25	5.00	0.25	0.25	0.00	1.50	1.75	0.00	0.00	-0.188477	0.046387	0.940430	-2.310000	-7.280000	3.150000	299.00	-0.03	0.05
0.06	2.75	2.25	4.25	3.00	1.75	7.00	1.00	8.00	4.50	4.25	2.00	2.50	10.00	8.25	3.50	3.25	-0.212402	0.074219	0.948730	-2.100000	1.050000	0.910000	863.00	0.06	-0.13	4.00	0.50	2.50	1.25	1.75	1.25	0.75	1.25	4.50	0.25	0.25	0.00	1.50	2.00	0.00	0.00	-0.184570	0.046387	0.949219	-2.310000	-7.210000	3.150000	293.00	-0.03	0.04
0.07	3.00	2.25	4.50	3.50	1.75	7.00	1.00	8.25	4.50	4.25	2.00	2.25	10.00	8.25	3.25	3.50	-0.218750	0.075684	0.942871	-2.100000	1.120000	0.840000	876.00	0.05	-0.13	4.00	0.50	2.25	1.50	1.75	1.25	1.00	1.25	4.75	0.25	0.25	0.00	1.25	1.50	0.00	0.00	-0.190430	0.049316	0.940918	-2.240000	-7.140000	3.150000	293.00	-0.04	0.04
0.08	2.50	2.25	4.50	3.75	1.75	7.00	1.00	8.00	4.25	3.75	2.00	2.50	10.00	8.25	3.00	3.50	-0.212891	0.075684	0.947266	-2.310000	1.330000	0.840000	859.00	0.05	-0.14	3.50	0.75	2.25	1.25	1.75	1.00	0.75	1.25	4.75	0.50	0.25	0.00	1.75	2.00	0.00	0.00	-0.188477	0.048828	0.947266	-2.170000	-6.930000	3.220000	292.00	-0.02	0.04
0.09	2.75	2.00	4.25	3.50	1.75	7.00	1.00	8.00	4.50	4.00	2.00	2.50	10.00	8.50	3.25	3.75	-0.214355	0.074707	0.946289	-2.590000	1.470000	0.770000	867.00	0.06	-0.13	4.00	0.75	2.75	1.50	1.75	1.25	1.00	1.25	4.75	0.50	0.25	0.00	1.50	1.25	0.00	0.00	-0.188477	0.044922	0.948730	-2.030000	-7.140000	3.220000	306.00	-0.05	0.04
0.10	3.00	2.00	4.50	3.25	1.75	6.75	1.00	8.25	4.50	4.00	1.75	2.50	10.00	8.25	3.25	3.75	-0.208984	0.071777	0.947266	-2.450000	1.540000	0.700000	866.00	0.06	-0.13	3.50	0.50	2.00	1.25	1.75	1.25	0.75	1.25	4.75	0.25	0.25	0.00	1.25	2.25	0.00	0.00	-0.189941	0.052246	0.942871	-2.100000	-6.860000	3.220000	284.00	-0.01	0.04
0.11	3.00	1.75	4.25	3.50	1.75	6.75	1.00	8.25	4.50	4.00	2.00	2.25	10.25	8.25	3.25	3.25	-0.212402	0.077148	0.946777	-2.520000	1.540000	0.560000	862.00	0.06	-0.13	3.75	0.50	2.50	1.25	1.75	1.00	1.00	1.25	4.75	0.50	0.50	0.00	1.50	2.00	0.00	0.00	-0.188477	0.046875	0.956055	-2.380000	-6.720000	3.080000	301.00	-0.02	0.04
0.12	2.50	1.75	4.50	3.25	1.75	6.75	1.00	8.25	4.50	4.75	1.75	2.25	10.00	8.75	3.50	3.25	-0.209961	0.076172	0.951172	-2.590000	1.610000	0.560000	868.00	0.07	-0.13	3.75	0.50	2.25	1.25	1.75	1.25	1.00	1.25	4.75	0.50	0.50	0.00	1.50	1.75	0.00	0.00	-0.194336	0.047852	0.940430	-2.450000	-6.650000	3.010000	298.00	-0.02	0.04
0.13	2.75	2.00	4.25	3.25	1.75	6.75	1.00	8.25	4.50	4.25	2.25	2.50	10.25	8.75	3.00	3.75	-0.212891	0.077148	0.945312	-2.660000	1.610000	0.490000	873.00	0.06	-0.13	3.75	0.75	2.25	1.25	2.25	1.25	1.00	1.25	5.00	0.50	0.25	0.00	1.50	2.00	0.00	0.00	-0.189941	0.046875	0.947266	-2.520000	-6.650000	3.010000	311.00	-0.02	0.04
0.14	3.00	2.00	4.00	3.00	1.75	6.75	1.00	8.25	4.25	4.50	2.00	2.25	10.00	8.50	3.25	3.50	-0.211426	0.069824	0.954590	-2.590000	1.750000	0.630000	859.00	0.06	-0.13	3.50	0.75	2.50	1.00	1.75	1.25	0.75	1.25	5.00	0.25	0.25	0.00	1.50	1.50	0.00	0.00	-0.187500	0.044434	0.949707	-2.590000	-6.510000	3.010000	289.00	-0.03	0.04
0.15	2.50	2.00	4.25	2.75	1.75	6.75	1.00	8.25	4.50	4.25	2.00	2.50	10.50	8.75	3.00	3.50	-0.212891	0.077148	0.952148	-2.450000	1.820000	0.560000	861.00	0.07	-0.13	3.50	0.50	2.00	1.00	1.75	1.00	1.00	1.25	4.75	0.50	0.50	0.00	1.50	1.75	0.00	0.00	-0.189941	0.045410	0.947266	-2.590000	-6.510000	3.010000	285.00	-0.01	0.04
0.16	2.75	2.00	4.00	3.25	1.75	6.75	1.00	8.25	4.50	4.50	2.00	2.50	10.25	8.75	3.25	3.50	-0.216797	0.074707	0.949219	-2.310000	1.750000	0.630000	871.00	0.07	-0.13	3.25	0.50	2.00	1.25	1.75	1.00	0.75	1.25	5.00	0.50	0.25	0.00	1.50	2.00	0.00	0.00	-0.189453	0.043945	0.949219	-2.520000	-6.650000	2.940000	284.00	-0.00	0.04
0.17	2.75	1.75	4.25	3.50	1.75	6.75	1.00	8.25	4.50	4.50	1.75	2.50	10.25	8.50	3.00	3.75	-0.216309	0.073242	0.945801	-2.030000	1.540000	0.910000	868.00	0.06	-0.13	3.50	0.75	2.25	1.25	1.75	1.25	0.75	1.25	4.75	0.50	0.25	0.00	1.50	1.50	0.00	0.00	-0.191895	0.045898	0.948730	-2.380000	-6.580000	3.080000	288.00	-0.03	0.03
0.18	3.00	2.00	4.00	3.50	1.75	6.75	1.00	8.25	4.75	4.50	2.00	2.50	10.50	8.75	3.00	3.75	-0.209961	0.074219	0.952637	-1.820000	1.400000	0.980000	883.00	0.06	-0.13	3.75	0.75	2.25	1.00	2.00	1.25	1.00	1.25	5.00	0.25	0.25	0.00	1.50	2.00	0.00	0.00	-0.182129	0.046387	0.945312	-2.590000	-6.720000	3.150000	301.00	-0.02	0.05
0.19	3.00	1.75	4.00	3.50	1.75	6.75	1.00	8.25	4.50	4.75	2.00	2.50	10.25	8.75	3.25	3.50	-0.210938	0.072266	0.942871	-1.680000	1.260000	0.980000	878.00	0.06	-0.13	3.50	0.75	2.00	1.25	1.75	1.00	1.00	1.25	4.75	0.50	0.25	0.00	1.75	2.00	0.00	0.00	-0.187988	0.049805	0.951660	-2.520000	-6.580000	3.080000	293.00	-0.01	0.04
0.20	2.75	1.75	3.75	3.00	1.75	6.75	1.00	8.25	5.00	5.00	2.00	2.50	10.25	8.75	3.25	3.50	-0.214844	0.074219	0.942383	-1.610000	1.190000	0.840000	876.00	0.07	-0.13	3.75	0.50	2.00	1.25	1.75	1.00	0.75	1.25	4.50	0.25	0.00	0.00	1.75	1.75	0.00	0.25	-0.189453	0.048340	0.953613	-2.590000	-6.720000	3.080000	278.00	-0.03	0.03
0.21	2.50	1.50	4.25	3.00	1.75	7.00	1.00	8.25	5.00	5.00	2.25	2.50	10.50	8.75	3.00	3.75	-0.215332	0.075684	0.955078	-1.400000	1.050000	0.840000	884.00	0.07	-0.13	3.50	0.50	2.00	1.00	1.75	1.25	1.00	1.25	5.00	0.50	0.25	0.00	1.50	1.75	0.00	0.00	-0.188477	0.046387	0.945801	-2.590000	-6.440000	3.080000	289.00	-0.01	0.05
0.22	2.75	2.00	4.00	3.25	1.75	6.75	1.00	8.25	5.00	4.75	2.00	2.50	10.50	8.50	2.75	3.75	-0.213379	0.072266	0.953613	-0.910000	0.910000	1.050000	878.00	0.06	-0.13	3.25	0.75	2.25	1.25	2.00	1.25	1.00	1.25	5.00	0.25	0.25	0.00	1.50	2.00	0.25	0.00	-0.191406	0.042969	0.948730	-2.590000	-6.580000	3.080000	301.00	-0.01	0.04
0.23	2.75	2.00	3.75	3.00	1.75	6.75	1.00	8.50	5.00	5.00	2.25	2.50	10.75	8.75	3.25	3.50	-0.213867	0.078125	0.950195	-0.980000	1.190000	0.980000	891.00	0.07	-0.13	3.00	0.50	2.25	1.25	1.75	1.00	1.00	1.25	4.50	0.25	0.25	0.00	1.50	2.00	0.25	0.25	-0.189453	0.045898	0.947754	-2.590000	-6.510000	3.080000	283.00	-0.00	0.04
0.24	2.50	2.00	4.00	3.25	1.75	6.75	1.00	8.50	5.00	5.00	2.25	2.50	10.75	8.75	3.50	3.25	-0.214844	0.074707	0.954102	-1.190000	1.330000	1.120000	896.00	0.07	-0.13	3.00	0.50	2.00	1.00	1.75	1.00	1.00	1.25	4.75	0.50	0.25	0.00	1.50	2.00	0.00	0.00	-0.188965	0.048828	0.946289	-2.520000	-6.370000	3.080000	278.00	0.00	0.05
0.25	2.75	1.75	4.00	3.25	1.50	6.75	1.00	8.50	5.00	5.00	2.00	2.50	10.75	8.75	3.25	3.75	-0.214355	0.075195	0.950195	-0.910000	1.050000	1.120000	890.00	0.07	-0.13	3.25	0.50	2.00	1.00	1.75	1.25	0.75	1.25	4.75	0.50	0.25	0.00	1.25	1.75	0.00	0.00	-0.194824	0.049316	0.947754	-2.660000	-6.440000	3.010000	275.00	-0.01	0.04
0.26	2.50	2.00	4.00	3.25	1.75	6.75	1.00	8.50	5.00	5.00	2.25	2.75	11.00	8.75	3.75	3.50	-0.212402	0.073242	0.954590	-0.770000	1.050000	1.120000	907.00	0.07	-0.13	3.25	0.50	2.00	1.25	1.75	0.75	1.00	1.25	5.00	0.50	0.00	0.00	1.25	2.00	0.00	0.00	-0.181641	0.046387	0.950684	-2.730000	-6.160000	3.080000	280.00	-0.01	0.06
0.27	2.50	1.50	3.75	3.00	1.75	7.00	1.00	8.50	5.00	5.25	2.25	2.50	10.75	8.75	3.50	3.75	-0.211426	0.077148	0.942871	-0.840000	0.980000	1.120000	894.00	0.08	-0.13	3.25	0.75	2.50	1.25	1.75	1.25	1.00	1.25	5.00	0.25	0.25	0.00	1.50	1.75	0.00	0.00	-0.186523	0.047852	0.949707	-2.730000	-6.160000	2.940000	296.00	-0.02	0.04
0.28	2.50	1.50	4.00	2.75	1.75	7.00	1.00	8.75	4.75	5.25	2.25	2.75	10.75	9.00	3.50	3.75	-0.213379	0.074219	0.948242	-0.770000	0.840000	1.190000	900.00	0.08	-0.13	2.75	0.50	2.00	1.00	1.75	1.00	0.75	1.00	4.50	0.25	0.25	0.00	1.25	1.75	0.00	0.00	-0.187012	0.046387	0.947754	-2.660000	-5.950000	2.940000	254.00	-0.01	0.05
0.29	2.50	1.75	3.75	3.00	1.50	7.00	1.00	8.50	5.00	5.00	2.25	2.75	10.75	9.00	3.50	3.75	-0.215332	0.071289	0.945312	-0.630000	0.700000	1.190000	896.00	0.08	-0.13	3.50	0.75	2.25	1.25	1.50	1.00	1.00	1.25	4.75	0.50	0.25	0.00	1.50	1.75	0.00	0.00	-0.187012	0.046387	0.947754	-2.660000	-5.950000	2.940000	288.00	-0.02	0.04
0.30	2.50	2.00	3.75	3.00	1.75	7.00	1.00	8.75	4.50	5.00	2.25	2.75	11.25	8.75	4.00	3.75	-0.214844	0.076660	0.947754	-0.490000	0.700000	1.260000	908.00	0.08	-0.14	3.75	0.50	2.00	1.25	1.75	1.00	0.75	1.00	5.00	0.50	0.25	0.00	1.25	1.75	0.00	0.00	-0.189941	0.045410	0.945801	-2.590000	-6.230000	3.010000	281.00	-0.02	0.06
0.31	2.50	1.75	3.75	3.00	1.75	7.00	1.00	8.75	4.75	5.00	2.25	2.75	11.00	8.75	3.50	4.00	-0.216797	0.074707	0.952637	-0.350000	0.700000	1.260000	902.00	0.08	-0.14	3.00	0.50	2.00	1.25	1.75	0.75	1.00	1.25	5.00	0.50	0.25	0.00	1.25	1.75	0.00	0.25	-0.183105	0.045898	0.944336	-2.800000	-6.370000	3.010000	279.00	0.00	0.05
0.32	2.50	2.25	3.75	3.25	1.75	7.25	1.00	8.75	4.50	5.00	2.00	2.75	11.50	8.75	3.50	3.75	-0.214355	0.079102	0.948242	-0.700000	0.560000	1.260000	910.00	0.07	-0.14	3.25	0.50	2.00	0.75	1.75	1.00	1.00	1.00	5.00	0.25	0.25	0.00	1.25	1.75	0.00	0.00	-0.189941	0.045410	0.950195	-2.730000	-6.440000	2.940000	269.00	-0.00	0.06
0.33	2.50	1.75	3.75	3.25	1.50	7.25	1.00	9.00	4.50	5.00	2.00	2.75	11.50	9.00	3.50	3.75	-0.212891	0.083984	0.945801	-1.190000	0.630000	1.190000	908.00	0.07	-0.14	3.25	0.50	2.25	1.00	1.50	0.75	1.00	1.00	4.75	0.25	0.25	0.00	1.25	2.00	0.00	0.00	-0.187988	0.043945	0.946289	-2.800000	-6.580000	3.010000	268.00	-0.01	0.06
0.34	2.50	1.75	3.75	3.25	1.75	7.50	1.00	9.00	4.75	5.00	2.25	2.50	11.50	9.00	3.25	3.75	-0.210938	0.074707	0.949707	-1.610000	0.630000	0.910000	916.00	0.07	-0.14	3.50	0.50	2.25	1.00	1.75	0.75	1.00	1.00	5.00	0.50	0.25	0.00	1.25	1.75	0.00	0.00	-0.188965	0.042969	0.951660	-2.870000	-6.440000	3.010000	279.00	-0.01	0.07
0.35	2.25	2.00	3.50	3.00	1.75	7.25	1.00	9.00	4.75	5.00	2.25	2.75	11.75	9.00	3.25	3.75	-0.209961	0.078125	0.956543	-1.680000	0.700000	0.840000	911.00	0.08	-0.14	3.25	0.50	2.50	1.00	1.75	1.00	1.00	1.00	5.00	0.50	0.50	0.00	1.25	1.50	0.00	0.00	-0.188477	0.042969	0.949219	-2.870000	-6.440000	2.940000	283.00	-0.01	0.06
0.36	2.50	1.75	3.75	2.75	1.75	7.00	1.00	9.00	4.75	5.25	2.25	2.75	11.50	9.25	3.25	3.50	-0.218750	0.073730	0.949219	-1.820000	0.700000	0.910000	910.00	0.08	-0.14	2.75	0.50	2.00	1.00	1.75	0.75	0.75	1.00	5.00	0.25	0.25	0.00	1.50	1.75	0.00	0.00	-0.184570	0.050293	0.951172	-2.800000	-6.510000	3.010000	261.00	0.00	0.06
0.37	2.25	1.75	3.75	3.25	1.75	7.25	1.00	9.00	4.75	5.25	2.25	3.00	11.75	9.25	3.50	3.75	-0.213867	0.075684	0.949707	-1.750000	0.770000	0.840000	927.00	0.08	-0.14	3.25	0.50	2.25	1.00	1.50	0.75	1.00	1.00	4.75	0.50	0.25	0.00	1.25	2.00	0.00	0.00	-0.186523	0.050293	0.949707	-2.730000	-6.370000	2.940000	271.00	-0.00	0.06
0.38	2.25	2.25	3.75	3.00	1.75	7.25	1.00	9.00	4.75	5.25	2.25	3.00	11.75	9.00	3.25	4.00	-0.216309	0.075684	0.952637	-1.820000	0.980000	0.770000	925.00	0.07	-0.14	3.00	0.50	1.75	0.75	1.50	0.75	1.00	1.25	4.75	0.50	0.25	0.00	1.25	1.75	0.00	0.00	-0.183105	0.047852	0.944824	-2.730000	-6.440000	3.010000	260.00	0.01	0.06
0.39	2.50	1.75	3.50	3.00	1.75	7.25	1.00	9.00	5.00	5.25	2.25	3.00	11.75	9.00	3.75	4.00	-0.214355	0.077148	0.949707	-1.960000	1.260000	0.770000	930.00	0.08	-0.14	2.75	0.50	2.25	1.25	1.75	0.75	1.00	1.00	5.00	0.50	0.50	0.00	1.50	1.75	0.00	0.00	-0.189941	0.041016	0.950195	-2.590000	-6.300000	3.010000	279.00	0.00	0.05
0.40	2.00	1.50	3.75	3.00	1.75	7.25	1.00	9.25	5.00	5.25	2.25	2.75	12.25	9.00	3.25	4.00	-0.215332	0.073242	0.949707	-1.890000	1.400000	0.770000	924.00	0.08	-0.14	3.25	0.25	1.75	0.75	1.50	0.75	1.00	1.00	5.00	0.50	0.25	0.00	1.50	2.00	0.00	0.00	-0.193359	0.048340	0.947266	-2.590000	-6.160000	3.080000	265.00	0.02	0.07
0.41	2.25	1.75	3.50	2.75	1.75	7.25	1.00	9.25	4.75	5.25	2.50	3.00	12.00	9.25	3.75	4.00	-0.213379	0.075195	0.949219	-1.820000	1.330000	0.840000	932.00	0.08	-0.14	3.00	0.50	2.00	1.00	1.75	0.75	1.00	1.00	5.00	0.50	0.25	0.00	1.50	1.75	0.00	0.00	-0.190430	0.042969	0.951172	-2.520000	-6.160000	3.010000	272.00	0.00	0.06
0.42	2.25	1.75	3.50	2.75	1.75	7.50	1.00	9.25	5.00	5.25	2.25	3.00	12.25	9.25	4.00	3.75	-0.214844	0.078613	0.952148	-1.820000	1.330000	0.910000	940.00	0.08	-0.14	3.25	0.50	2.25	1.00	1.75	0.50	1.00	1.00	5.00	0.50	0.00	0.00	1.25	2.00	0.00	0.00	-0.193359	0.039551	0.952148	-2.520000	-6.230000	3.150000	272.00	-0.00	0.07
0.43	2.50	2.00	3.50	3.25	1.75	7.50	1.00	9.25	5.00	5.25	2.50	3.25	12.00	9.00	3.25	3.75	-0.210938	0.077637	0.957520	-1.750000	1.260000	0.840000	944.00	0.07	-0.14	3.25	0.50	1.75	1.25	1.75	0.75	1.00	1.00	5.00	0.50	0.25	0.00	1.25	1.75	0.00	0.00	-0.189453	0.041992	0.946777	-2.520000	-6.370000	3.150000	273.00	-0.00	0.06
0.44	2.50	1.50	3.25	3.25	1.75	7.50	1.00	9.25	4.75	5.25	2.50	3.00	12.25	9.00	3.50	4.00	-0.210449	0.079102	0.949707	-1.750000	1.260000	0.910000	936.00	0.08	-0.15	3.25	0.25	2.25	0.50	1.50	0.75	1.00	1.00	5.00	0.25	0.25	0.00	1.25	1.50	0.00	0.00	-0.193848	0.047363	0.941406	-2.520000	-6.370000	2.940000	258.00	-0.00	0.07
0.45	2.50	2.00	3.75	3.00	1.75	7.75	1.00	9.25	5.00	5.25	2.50	3.00	12.00	8.75	3.50	3.75	-0.210938	0.081543	0.948730	-1.890000	1.400000	0.840000	945.00	0.07	-0.14	2.75	0.50	1.75	1.25	1.50	0.75	1.00	1.00	5.00	0.50	0.25	0.00	1.25	2.00	0.00	0.00	-0.191895	0.046875	0.945312	-2.590000	-6.440000	3.010000	266.00	0.01	0.06
0.46	2.25	1.75	3.25	3.00	1.75	7.50	1.00	9.25	5.00	5.25	2.50	3.00	12.25	9.50	3.50	4.00	-0.215332	0.072754	0.950684	-1.890000	1.330000	0.770000	941.00	0.08	-0.14	3.00	0.50	2.00	1.00	1.50	0.75	1.00	1.00	5.00	0.25	0.25	0.00	1.25	1.75	0.00	0.00	-0.196289	0.043945	0.948242	-2.730000	-6.580000	3.080000	263.00	0.00	0.06
0.47	2.50	1.75	3.75	2.75	1.75	7.50	1.00	9.25	5.00	5.50	2.75	3.25	12.25	9.50	3.75	4.00	-0.209961	0.077637	0.944336	-1.890000	1.050000	0.770000	960.00	0.08	-0.14	3.25	0.50	2.25	1.00	1.75	0.50	1.00	1.00	4.75	0.50	0.25	0.00	1.25	1.75	0.00	0.00	-0.188965	0.047852	0.946777	-2.730000	-6.510000	3.080000	269.00	-0.01	0.07
0.48	2.25	1.50	3.25	3.00	1.50	7.75	1.00	9.50	5.00	5.25	2.50	3.25	12.00	9.25	3.00	4.00	-0.209961	0.070801	0.954102	-1.750000	0.980000	0.980000	935.00	0.08	-0.15	3.00	0.25	1.75	1.00	1.75	0.50	1.00	1.00	4.75	0.25	0.25	0.00	1.25	2.00	0.00	0.00	-0.187012	0.050293	0.954102	-2.660000	-6.650000	3.080000	256.00	0.01	0.07
0.49	2.25	1.75	3.25	3.00	1.50	7.75	1.00	9.50	4.75	5.50	2.75	3.00	12.25	9.50	3.50	4.00	-0.215332	0.078613	0.953613	-1.680000	0.840000	0.910000	948.00	0.08	-0.15	3.00	0.50	1.50	1.25	1.75	0.50	1.00	1.00	5.00	0.25	0.25	0.00	1.25	2.00	0.00	0.00	-0.187012	0.044434	0.951172	-2.660000	-6.650000	3.010000	262.00	0.01	0.07
0.50	2.25	1.75	3.50	3.00	1.75	7.75	1.00	9.50	5.00	5.25	2.50	3.25	12.50	9.25	3.50	4.00	-0.213867	0.080566	0.948242	-1.610000	0.980000	0.910000	955.00	0.08	-0.15	3.00	0.25	2.00	0.75	1.75	1.00	1.00	1.00	5.00	0.50	0.25	0.00	1.25	1.75	0.00	0.00	-0.194824	0.047852	0.951172	-2.660000	-6.720000	3.150000	267.00	0.01	0.07
0.51	2.00	1.50	3.50	3.25	1.75	7.50	1.00	9.25	5.00	5.50	2.50	3.00	12.25	9.25	3.50	4.00	-0.210449	0.081543	0.948730	-1.680000	0.910000	0.910000	942.00	0.08	-0.14	3.25	0.50	2.25	0.75	1.75	0.75	1.00	1.00	4.75	0.25	0.25	0.25	1.50	2.00	0.00	0.00	-0.194336	0.041016	0.950195	-2.730000	-6.580000	3.080000	274.00	-0.00	0.06
0.52	2.25	1.50	3.25	3.00	1.75	8.00	1.00	9.50	5.00	5.25	2.50	3.25	12.25	9.50	3.25	4.25	-0.214844	0.081055	0.945312	-1.750000	0.630000	0.980000	951.00	0.08	-0.15	3.00	0.75	2.00	1.00	1.75	0.75	1.00	1.00	5.00	0.50	0.25	0.00	1.25	1.50	0.00	0.00	-0.191895	0.040527	0.950195	-2.730000	-6.720000	3.080000	270.00	-0.01	0.06
0.53	2.50	1.75	3.00	3.00	1.75	8.00	1.00	9.50	5.00	5.50	2.50	3.25	12.50	9.25	3.25	3.75	-0.212402	0.076660	0.950195	-2.100000	0.420000	0.980000	953.00	0.08	-0.15	3.25	0.25	2.00	1.25	1.75	0.50	1.00	1.00	5.00	0.25	0.25	0.00	1.50	1.75	0.00	0.25	-0.185547	0.041504	0.954102	-2.590000	-6.720000	3.080000	271.00	0.00	0.06
0.54	2.50	1.50	3.75	3.25	1.75	8.00	1.00	9.50	5.00	5.25	2.50	3.00	12.50	9.25	3.50	4.00	-0.213867	0.074219	0.946289	-2.450000	0.490000	0.840000	962.00	0.08	-0.14	3.25	0.50	1.75	1.00	1.50	0.50	1.00	1.00	5.00	0.50	0.50	0.00	1.25	2.00	0.00	0.00	-0.190430	0.050781	0.952637	-2.520000	-6.650000	3.080000	268.00	0.01	0.07
0.55	2.00	2.25	3.50	3.25	1.75	8.00	1.00	9.25	5.00	5.25	2.50	3.00	12.25	9.25	3.25	4.00	-0.216797	0.072754	0.951172	-2.310000	0.280000	0.840000	951.00	0.08	-0.14	2.75	0.25	2.00	1.00	1.50	0.50	1.00	1.00	5.00	0.50	0.25	0.00	1.25	1.75	0.00	0.00	-0.192871	0.046875	0.946289	-2.660000	-6.650000	3.150000	257.00	0.01	0.07
0.56	3.00	2.00	3.75	3.00	1.75	8.00	1.00	9.50	5.00	5.50	2.50	2.75	12.50	9.25	3.50	3.50	-0.216309	0.079102	0.949219	-2.240000	0.350000	0.840000	968.00	0.07	-0.14	2.25	0.50	2.00	0.75	1.50	0.75	1.00	1.00	5.00	0.25	0.25	0.00	1.25	1.75	0.00	0.00	-0.195312	0.039062	0.955078	-2.520000	-6.440000	3.080000	251.00	0.02	0.07
0.57	2.25	2.00	3.50	3.25	1.75	8.25	1.00	9.50	5.00	5.50	2.75	3.00	12.50	9.50	3.00	3.75	-0.209473	0.078613	0.950684	-2.240000	0.350000	0.840000	966.00	0.08	-0.14	3.25	0.50	2.25	1.25	1.75	0.75	1.00	1.00	5.00	0.50	0.25	0.00	1.25	1.75	0.00	0.00	-0.195312	0.039062	0.955078	-2.520000	-6.440000	3.080000	279.00	-0.01	0.06
0.58	2.25	2.00	3.50	3.00	1.75	8.00	1.00	9.50	5.00	5.50	2.50	3.25	12.25	9.25	3.25	3.75	-0.212891	0.083008	0.956055	-2.100000	0.490000	0.910000	957.00	0.08	-0.14	3.00	0.50	2.25	1.25	1.75	0.75	1.00	1.00	5.00	0.50	0.00	0.00	1.25	1.75	0.00	0.00	-0.193359	0.044434	0.945801	-2.520000	-6.370000	3.080000	273.00	-0.01	0.06
0.59	2.50	1.75	3.75	3.25	1.75	8.50	1.00	9.50	5.00	5.75	2.75	3.25	12.25	9.25	3.50	3.50	-0.210938	0.079590	0.951660	-2.030000	0.560000	0.980000	978.00	0.07	-0.14	3.25	0.50	2.25	1.00	1.50	0.75	1.00	1.00	4.75	0.25	0.25	0.00	1.25	1.75	0.00	0.00	-0.182129	0.048340	0.947266	-2.450000	-6.580000	3.010000	266.00	-0.01	0.06
0.60	2.25	1.50	3.25	3.00	1.75	8.25	1.00	9.50	5.00	5.50	2.50	3.00	12.25	9.25	2.75	3.50	-0.210449	0.077148	0.952148	-1.820000	0.630000	1.120000	941.00	0.08	-0.14	3.25	0.50	2.00	1.00	1.50	0.50	1.00	1.00	5.00	0.50	0.50	0.00	1.25	2.00	0.00	0.00	-0.190430	0.042480	0.949707	-2.380000	-6.650000	3.150000	272.00	0.01	0.07
0.61	2.00	1.75	3.50	3.25	1.75	8.50	1.00	9.50	5.00	5.50	2.50	3.25	12.25	9.25	3.50	3.75	-0.210938	0.077637	0.950195	-2.100000	0.770000	0.980000	964.00	0.08	-0.15	3.25	0.50	2.00	0.75	1.50	0.75	1.00	1.00	5.00	0.25	0.25	0.00	1.25	1.75	0.00	0.00	-0.186523	0.048340	0.947754	-2.450000	-6.930000	3.150000	263.00	-0.00	0.07
0.62	2.00	1.75	3.75	3.50	1.75	8.25	1.00	9.50	5.00	5.50	2.75	3.00	12.25	9.25	3.50	3.50	-0.208008	0.080078	0.947266	-2.450000	0.700000	0.980000	966.00	0.08	-0.14	3.25	0.50	2.25	0.75	1.75	0.50	1.00	1.00	5.00	0.25	0.25	0.00	1.25	2.00	0.00	0.00	-0.191895	0.044434	0.952148	-2.520000	-7.000000	3.150000	269.00	0.00	0.07
0.63	2.25	2.00	3.50	3.25	1.75	8.75	1.00	9.50	5.00	5.50	2.50	3.00	12.25	9.00	2.50	3.50	-0.212891	0.075684	0.952637	-2.660000	0.560000	0.910000	954.00	0.07	-0.15	2.75	0.50	2.25	1.00	1.75	0.50	1.00	1.00	5.00	0.50	0.25	0.00	1.00	1.75	0.25	0.00	-0.189941	0.044922	0.948730	-2.520000	-7.070000	3.290000	267.00	0.01	0.07
0.64	2.25	1.50	3.25	3.00	1.75	8.75	1.00	9.50	5.00	5.50	2.50	3.00	12.50	9.25	3.00	3.50	-0.213379	0.075195	0.956543	-2.590000	0.630000	0.840000	953.00	0.08	-0.15	2.50	0.50	1.75	1.00	1.25	0.50	1.00	1.00	5.00	0.25	0.25	0.00	1.25	1.75	0.00	0.00	-0.186523	0.044434	0.954590	-2.520000	-7.280000	3.220000	247.00	0.02	0.07
0.65	2.75	1.75	3.50	3.00	1.75	8.75	1.00	9.50	4.75	5.50	2.50	2.75	12.25	9.00	2.75	3.25	-0.212891	0.077148	0.952637	-2.310000	0.630000	0.980000	948.00	0.07	-0.15	3.00	0.50	2.00	1.00	1.50	0.50	1.00	1.00	4.75	0.25	0.50	0.00	1.25	1.75	0.00	0.25	-0.192871	0.048828	0.953125	-2.380000	-7.560000	3.220000	261.00	0.00	0.06
0.66	2.50	1.75	3.75	3.25	1.75	9.00	1.00	9.50	4.50	5.50	2.25	3.25	12.25	9.00	2.50	3.00	-0.215820	0.074219	0.951660	-2.100000	0.840000	1.050000	950.00	0.06	-0.15	3.00	0.50	1.75	1.25	1.50	0.75	1.00	1.00	5.00	0.25	0.25	0.00	1.25	1.75	0.00	0.00	-0.190918	0.038086	0.944824	-2.100000	-7.490000	3.290000	263.00	0.00	0.06
0.67	2.50	1.75	3.50	3.25	1.50	8.75	0.75	9.25	4.75	5.25	2.25	3.00	12.00	9.00	2.50	3.00	-0.215820	0.077637	0.954102	-1.750000	1.050000	1.190000	926.00	0.07	-0.15	3.25	0.75	2.00	1.25	1.50	0.75	1.00	1.00	4.75	0.25	0.00	0.00	1.25	2.00	0.00	0.00	-0.188477	0.044922	0.948730	-1.960000	-7.770000	3.430000	268.00	-0.01	0.06
0.68	2.75	1.75	3.75	3.75	1.75	8.75	1.00	9.25	4.50	5.25	2.50	2.75	12.00	8.75	2.25	3.00	-0.219727	0.079102	0.953613	-1.400000	0.910000	1.400000	937.00	0.06	-0.15	3.50	0.50	2.25	1.00	1.50	0.75	1.00	1.00	4.75	0.50	0.00	0.00	1.25	1.75	0.00	0.00	-0.187500	0.041992	0.951660	-1.820000	-7.770000	3.570000	269.00	-0.02	0.06
0.69	2.50	2.25	3.75	3.75	1.75	9.00	0.75	9.25	4.25	5.00	2.00	2.75	11.75	8.50	2.00	2.75	-0.220703	0.076660	0.956055	-0.980000	1.260000	1.540000	915.00	0.05	-0.15	3.50	0.75	2.25	1.25	1.50	1.00	0.75	1.25	4.75	0.25	0.25	0.00	1.25	1.50	0.00	0.00	-0.193359	0.041992	0.944824	-1.610000	-8.260000	3.710000	276.00	-0.03	0.04
0.70	2.75	2.00	4.00	3.75	1.75	9.00	0.75	9.25	3.75	4.75	2.00	2.50	11.50	8.50	1.50	2.25	-0.226562	0.078125	0.959473	-0.700000	1.960000	1.750000	892.00	0.04	-0.15	4.00	0.75	2.50	1.00	1.75	1.00	0.75	1.00	4.75	0.25	0.25	0.00	1.25	1.25	0.00	0.00	-0.191895	0.040039	0.942871	-0.910000	-9.240000	3.850000	278.00	-0.04	0.05
0.71	3.25	1.75	4.25	3.75	1.75	9.25	0.75	9.00	3.50	4.25	1.50	2.00	11.00	8.25	2.00	2.00	-0.230469	0.076172	0.972168	-0.210000	3.080000	1.820000	872.00	0.03	-0.15	4.25	0.75	2.50	1.50	1.75	1.25	1.00	1.25	4.50	0.25	0.25	0.00	1.25	2.00	0.00	0.00	-0.188477	0.046387	0.948730	-0.630000	-9.590000	3.920000	304.00	-0.04	0.04
0.72	2.75	2.50	4.50	4.75	1.75	9.00	0.75	9.00	3.00	4.00	1.25	1.50	10.50	8.00	1.00	1.75	-0.226562	0.085938	0.962402	-0.000000	4.760000	1.750000	845.00	0.01	-0.16	4.50	1.00	2.50	1.75	1.75	1.50	0.75	1.25	4.75	0.25	0.25	0.00	1.50	1.75	0.00	0.00	-0.189941	0.045410	0.956055	-0.070000	-9.870000	4.060000	315.00	-0.05	0.03
0.73	3.75	3.00	5.00	5.00	1.50	9.00	0.50	8.75	2.75	3.50	1.00	1.50	9.75	7.50	0.75	1.50	-0.216797	0.089355	0.949219	-0.560000	5.670000	1.540000	830.00	-0.01	-0.16	4.75	1.00	2.75	1.75	1.75	1.75	0.75	1.50	4.25	0.25	0.25	0.00	1.25	1.25	0.00	0.00	-0.191406	0.041504	0.954102	1.120000	-10.430000	4.410000	314.00	-0.08	0.02
0.74	4.25	3.50	5.25	5.25	1.75	9.00	0.50	8.50	2.25	3.00	0.75	1.25	9.00	7.50	0.75	1.25	-0.212891	0.086914	0.950195	-1.540000	5.740000	0.840000	818.00	-0.03	-0.15	5.25	1.25	2.75	2.00	2.00	2.00	0.75	1.75	3.50	0.25	0.25	0.00	1.50	1.75	0.00	0.00	-0.192871	0.047852	0.945801	1.540000	-10.780000	4.620000	333.00	-0.09	-0.00
0.75	5.00	3.75	5.50	5.50	1.75	9.00	0.50	8.25	2.00	2.75	0.75	1.00	8.25	7.25	0.25	0.75	-0.206543	0.074219	0.955078	-1.680000	5.880000	0.420000	802.00	-0.04	-0.15	5.25	1.25	3.00	2.25	2.00	2.25	0.75	1.75	4.00	0.00	0.00	0.00	1.50	1.00	0.00	0.00	-0.187988	0.042969	0.949707	1.680000	-10.920000	4.620000	337.00	-0.10	-0.01
0.76	5.50	4.25	5.50	5.75	1.75	9.00	0.50	7.75	1.75	2.50	0.75	1.00	7.50	6.75	0.25	0.50	-0.218750	0.075684	0.960938	-0.140000	6.300000	0.560000	786.00	-0.06	-0.15	5.50	1.25	3.50	2.25	2.00	2.50	0.50	1.75	3.75	0.25	0.00	0.00	1.75	1.25	0.00	0.00	-0.184082	0.050293	0.951660	1.680000	-10.640000	4.690000	350.00	-0.11	-0.01
0.77	6.25	5.00	5.75	5.75	1.75	8.75	0.50	7.75	1.50	2.50	0.50	0.50	6.75	6.25	0.25	0.75	-0.216309	0.068848	0.972168	4.900000	6.230000	0.630000	779.00	-0.08	-0.14	6.00	1.50	3.50	2.75	2.00	3.00	0.75	2.00	3.25	0.00	0.00	0.00	1.50	1.00	0.00	0.00	-0.191895	0.043945	0.963867	1.960000	-10.010000	4.550000	365.00	-0.13	-0.03
0.78	6.50	5.00	6.25	6.00	1.50	8.50	0.25	7.25	0.75	2.00	0.50	0.50	5.50	5.75	0.00	0.25	-0.232910	0.062500	0.988770	10.150000	4.340000	0.910000	730.00	-0.10	-0.14	6.25	1.75	3.50	3.25	2.00	3.25	0.50	2.00	2.75	0.00	0.00	0.00	1.75	1.00	0.00	0.00	-0.197754	0.050293	0.965332	2.940000	-9.520000	4.550000	371.00	-0.15	-0.05
0.79	7.75	5.25	7.00	6.25	1.50	8.50	0.25	6.50	0.75	1.75	0.50	0.25	5.25	5.50	0.00	0.50	-0.229492	0.050293	1.032715	18.059999	0.280000	1.260000	738.00	-0.12	-0.13	6.50	2.00	4.00	3.25	1.75	3.50	0.50	2.25	2.50	0.00	0.00	0.00	1.50	0.75	0.00	0.00	-0.193359	0.053223	0.967285	4.760000	-8.960000	4.690000	379.00	-0.16	-0.05
0.80	8.75	5.50	7.00	6.25	1.50	8.50	0.25	5.75	0.25	1.50	0.00	0.25	4.25	5.00	0.00	0.50	-0.266113	0.041016	1.065918	29.820000	-9.450000	3.150000	707.00	-0.14	-0.12	7.50	2.50	4.25	3.75	1.75	4.00	0.25	2.25	2.00	0.00	0.00	0.00	1.25	0.50	0.00	0.00	-0.188965	0.047363	0.972656	7.000000	-8.470000	4.690000	396.00	-0.19	-0.06
0.81	9.75	6.00	7.25	6.50	1.50	8.00	0.25	5.50	0.25	1.50	0.25	0.50	4.00	3.75	0.00	0.25	-0.227539	0.027344	1.004883	33.389999	-21.210001	3.080000	710.00	-0.16	-0.12	8.50	3.25	4.25	4.25	1.75	4.25	0.25	2.25	1.50	0.00	0.00	0.00	1.00	0.25	0.00	0.00	-0.205078	0.028809	1.029785	10.570000	-8.470000	4.620000	414.00	-0.22	-0.07
0.82	10.00	6.75	7.25	6.25	1.25	7.75	0.25	5.00	0.25	1.50	0.00	0.25	2.50	4.00	0.00	0.50	-0.219238	0.142090	0.952148	29.680000	-27.440001	2.870000	685.00	-0.18	-0.11	9.25	3.75	5.00	4.75	1.75	4.50	0.25	2.25	1.00	0.00	0.00	0.00	1.00	0.00	0.00	0.00	-0.145508	-0.016113	1.013184	14.280000	-9.310000	2.240000	438.00	-0.24	-0.07
0.83	11.00	6.75	7.50	6.50	1.25	7.50	0.25	4.75	0.50	1.50	0.25	0.00	2.75	3.25	0.00	0.25	-0.189941	0.134766	0.904785	24.430000	-28.980000	3.430000	694.00	-0.19	-0.10	10.50	4.75	5.00	5.00	1.75	4.75	0.00	2.00	0.75	0.00	0.00	0.00	0.75	0.25	0.00	0.00	-0.195312	0.069336	1.048828	22.400000	-10.780000	0.770000	458.00	-0.26	-0.07
0.84	11.00	7.50	7.50	6.50	1.25	7.25	0.00	3.75	0.25	1.50	0.25	0.25	2.50	2.75	0.00	0.25	-0.173828	-0.068359	0.944824	17.430000	-27.090000	1.540000	667.00	-0.20	-0.10	11.25	5.50	5.00	5.25	1.75	5.00	0.00	2.00	0.00	0.00	0.00	0.00	0.50	0.00	0.00	0.00	-0.215332	0.051758	1.053223	26.530001	-18.549999	1.400000	465.00	-0.28	-0.08
0.85	12.00	8.00	7.75	6.50	1.00	6.75	0.25	3.00	0.00	1.50	0.00	0.25	2.50	2.50	0.00	0.50	-0.214844	0.203125	0.991699	5.950000	-28.840000	-0.630000	662.00	-0.22	-0.09	11.50	6.50	5.25	5.50	1.75	5.00	0.00	2.00	0.25	0.00	0.00	0.00	0.50	0.00	0.00	0.00	-0.170410	0.051270	0.947754	27.510000	-23.870001	1.470000	490.00	-0.28	-0.08
0.86	12.25	8.00	7.75	6.50	1.00	6.50	0.00	3.25	0.00	1.50	0.25	0.00	2.00	2.25	0.00	0.00	-0.182617	0.192871	0.893555	-1.470000	-28.210001	2.940000	651.00	-0.23	-0.09	12.25	6.50	5.00	5.50	1.50	5.00	0.00	2.00	0.00	0.00	0.00	0.00	0.50	0.00	0.00	0.00	-0.152344	0.093262	0.884766	24.360001	-24.219999	1.260000	489.00	-0.29	-0.08
0.87	12.50	8.50	7.75	6.25	1.00	6.25	0.00	2.25	0.00	1.25	0.25	0.50	2.25	2.25	0.00	0.25	-0.126953	0.045898	0.836914	-4.130000	-24.290001	4.760000	642.00	-0.23	-0.08	12.50	6.75	5.50	5.75	1.50	5.25	0.00	1.75	0.00	0.00	0.00	0.00	0.50	0.00	0.00	0.00	-0.155762	0.121582	0.894043	11.970000	-15.610000	2.030000	503.00	-0.29	-0.08
0.88	13.50	8.75	7.75	7.00	1.00	6.00	0.00	2.75	0.00	1.25	0.25	0.00	1.50	2.00	0.00	0.25	-0.136230	0.060547	0.868652	-3.500000	-18.690001	2.310000	656.00	-0.24	-0.08	12.25	7.00	5.25	6.00	1.50	5.25	0.00	2.00	0.00	0.00	0.00	0.00	0.50	0.00	0.00	0.00	-0.155762	0.097168	0.898926	7.630000	-12.110000	2.450000	507.00	-0.29	-0.08
0.89	13.75	9.25	8.00	7.00	1.00	6.00	0.00	2.50	0.00	1.25	0.00	0.00	1.50	1.75	0.00	0.25	-0.162598	0.131836	0.929199	-1.960000	-14.700000	1.190000	658.00	-0.25	-0.08	12.50	7.25	5.25	6.00	1.50	5.25	0.00	2.00	0.00	0.00	0.00	0.00	0.25	0.00	0.00	0.00	-0.143066	0.115234	0.896973	3.500000	-9.100000	2.660000	511.00	-0.29	-0.08
0.90	13.50	9.50	7.75	7.00	1.00	6.00	0.00	2.75	0.00	1.25	0.00	0.00	1.25	1.50	0.00	0.25	-0.181152	0.099609	0.959473	-0.070000	-13.860000	2.450000	654.00	-0.25	-0.08	12.75	7.25	5.00	6.00	1.25	5.25	0.00	2.00	0.00	0.00	0.00	0.00	0.50	0.00	0.00	0.00	-0.163086	0.109863	0.920898	-0.560000	-5.950000	2.730000	510.00	-0.29	-0.08
0.91	14.00	9.75	8.00	7.00	1.00	5.75	0.00	2.25	0.00	1.00	0.00	0.25	1.50	1.50	0.00	0.25	-0.201172	0.063477	1.051270	4.480000	-17.080000	3.150000	656.00	-0.26	-0.08	12.25	7.00	5.00	6.00	1.25	5.25	0.00	2.00	0.00	0.00	0.00	0.00	0.50	0.00	0.00	0.00	-0.165039	0.084961	0.933105	-2.730000	-3.920000	2.870000	501.00	-0.29	-0.08
0.92	14.50	10.25	8.00	7.25	0.75	5.75	0.00	2.25	0.00	1.00	0.00	0.00	1.00	1.50	0.00	0.25	-0.156738	0.099609	0.927734	12.110000	-26.320000	1.750000	660.00	-0.27	-0.07	11.50	6.75	5.00	5.75	1.25	5.50	0.00	2.00	0.00	0.00	0.00	0.00	0.25	0.00	0.00	0.00	-0.160645	0.085449	0.923828	-3.850000	-2.030000	3.150000	486.00	-0.29	-0.09
0.93	15.00	10.50	8.00	7.50	0.75	6.00	0.00	2.50	0.00	1.00	0.00	0.25	0.50	1.25	0.00	0.25	-0.117188	0.115723	0.863281	14.210000	-24.360001	2.240000	675.00	-0.27	-0.08	11.25	6.50	4.75	5.75	1.25	5.75	0.00	2.00	0.00	0.00	0.00	0.00	0.50	0.00	0.00	0.00	-0.158203	0.096191	0.915527	-5.600000	1.190000	3.430000	483.00	-0.29	-0.09
0.94	15.50	11.00	8.25	7.75	1.00	6.00	0.00	2.25	0.00	1.00	0.00	0.25	1.25	1.50	0.00	0.00	-0.106445	0.106445	0.852539	14.980000	-19.460001	2.170000	701.00	-0.27	-0.07	10.25	5.75	4.25	5.50	1.25	5.75	0.00	2.25	0.00	0.00	0.00	0.00	0.50	0.00	0.00	0.00	-0.152832	0.082031	0.907715	-7.420000	4.620000	3.570000	457.00	-0.28	-0.10
0.95	16.00	11.50	8.25	8.00	1.00	6.25	0.00	2.75	0.00	0.75	0.00	0.00	1.25	1.25	0.00	0.25	-0.136719	0.098145	0.902832	15.120000	-15.260000	1.540000	721.00	-0.27	-0.08	9.25	5.00	4.00	5.25	1.25	5.75	0.00	2.50	0.00	0.00	0.00	0.00	0.75	0.00	0.00	0.00	-0.149902	0.103516	0.900879	-10.500000	8.190000	3.500000	437.00	-0.27	-0.11
0.96	15.75	12.25	8.75	8.50	1.00	6.25	0.00	2.25	0.00	1.00	0.00	0.00	1.00	1.25	0.00	0.25	-0.133789	0.121582	0.914062	14.770000	-12.670000	0.700000	731.00	-0.28	-0.08	8.25	3.75	3.50	4.75	1.25	5.75	0.00	2.50	0.00	0.00	0.00	0.00	1.00	0.00	0.00	0.00	-0.152344	0.105957	0.893555	-15.820000	12.670000	2.870000	400.00	-0.25	-0.12
0.97	16.50	12.50	8.75	8.75	1.00	6.50	0.00	2.00	0.00	1.00	0.00	0.00	1.25	1.25	0.00	0.25	-0.126953	0.132812	0.897461	14.350000	-9.940000	0.770000	748.00	-0.28	-0.07	6.75	2.75	2.75	3.75	1.25	5.50	0.00	3.00	0.00	0.00	0.00	0.00	1.25	0.00	0.00	0.00	-0.167969	0.105957	0.932129	-24.010000	17.010000	1.820000	355.00	-0.23	-0.14
0.98	17.50	13.00	9.00	9.00	1.00	6.75	0.00	2.50	0.00	1.00	0.00	0.00	1.00	0.75	0.00	0.25	-0.113281	0.131348	0.877930	13.300000	-6.440000	0.910000	777.00	-0.28	-0.08	5.50	1.25	1.50	2.75	0.75	5.50	0.00	3.25	0.25	0.00	0.00	0.00	1.75	0.00	0.00	0.00	-0.154297	0.096680	0.936523	-33.740002	16.940001	-0.560000	301.00	-0.19	-0.17
0.99	17.50	14.00	9.00	9.25	1.00	7.25	0.00	2.50	0.00	1.00	0.00	0.00	1.50	1.00	0.00	0.00	-0.112305	0.148926	0.853516	11.200000	-1.120000	0.630000	804.00	-0.28	-0.08	4.00	0.75	1.00	1.75	0.75	5.00	0.00	3.50	0.50	0.00	0.25	0.00	2.25	0.00	0.00	0.00	-0.156250	0.056152	1.090332	-36.330002	10.290000	-3.360000	267.00	-0.15	-0.19
1.00	18.25	14.50	9.25	9.75	1.00	7.50	0.00	3.00	0.00	1.00	0.00	0.25	1.25	0.75	0.00	0.25	-0.150391	0.151855	0.933105	9.240000	3.920000	1.050000	841.00	-0.28	-0.09	2.00	0.25	0.75	1.75	0.75	4.25	0.25	3.50	0.75	0.00	0.25	0.25	2.50	0.00	0.00	0.00	-0.119629	-0.076172	1.167480	10.150000	52.849998	-15.050000	238.00	-0.09	-0.21
1.01	18.75	15.50	9.50	10.00	1.25	8.25	0.00	3.00	0.00	1.00	0.00	0.00	1.25	0.75	0.00	0.00	-0.188965	0.132324	1.021484	8.890000	2.870000	1.750000	873.00	-0.28	-0.09	1.25	0.00	0.25	1.00	0.50	4.00	0.25	3.00	1.00	0.50	0.50	0.25	3.00	0.00	0.00	0.00	-0.119629	-0.076172	1.167480	10.150000	52.849998	-15.050000	212.00	-0.03	-0.22
1.02	19.75	16.00	10.00	10.75	1.25	8.75	0.00	3.00	0.00	1.00	0.00	0.00	1.25	1.00	0.00	0.00	-0.163574	0.139648	0.981934	9.730000	-0.140000	2.520000	916.00	-0.28	-0.08	1.00	0.25	0.75	0.75	0.50	3.25	0.25	2.75	1.75	0.50	0.50	0.50	2.75	0.25	0.00	0.00	-0.127441	-0.002930	1.392090	32.619999	103.320000	-14.490000	215.00	-0.01	-0.17
1.03	20.50	16.75	10.25	11.25	1.25	9.50	0.00	3.25	0.00	1.00	0.00	0.00	1.25	0.75	0.00	0.00	-0.146973	0.160156	0.957520	10.500000	-0.490000	3.850000	955.00	-0.28	-0.09	0.50	0.00	0.50	0.50	0.50	2.75	0.25	2.25	2.00	0.50	0.50	0.00	2.75	0.75	0.00	0.00	-0.217285	0.137207	1.659668	42.560001	213.570007	-16.170000	187.00	0.03	-0.15
1.04	21.50	17.50	10.50	11.75	1.25	10.00	0.00	3.50	0.00	1.25	0.00	0.00	1.00	0.75	0.00	0.25	-0.150879	0.133789	0.976074	10.360000	-1.540000	6.720000	999.00	-0.28	-0.09	0.25	0.00	0.50	0.25	0.25	1.50	0.00	1.75	1.75	0.25	0.50	0.00	2.00	0.50	0.00	0.00	-0.335449	0.159668	1.870117	36.470001	251.930008	-17.990000	130.00	0.05	-0.15
1.05	21.75	18.25	10.75	12.25	1.25	10.50	0.00	3.75	0.00	1.00	0.00	0.00	1.25	0.75	0.00	0.25	-0.150879	0.133789	0.976074	10.360000	-1.540000	6.720000	1031.00	-0.28	-0.09	0.00	0.00	0.25	0.00	0.25	1.00	0.25	1.25	1.50	0.25	0.25	0.00	1.50	0.25	0.00	0.00	-0.343262	0.214844	1.793457	26.670000	275.660004	-20.580000	95.00	0.08	-0.12
1.06	22.75	18.75	11.00	12.75	1.50	10.75	0.00	4.00	0.00	1.00	0.00	0.00	0.75	0.75	0.00	0.25	-0.126465	0.130371	0.929199	11.270000	-1.540000	6.650000	1065.00	-0.29	-0.09	0.25	0.00	0.25	0.00	0.25	0.50	0.00	1.00	1.00	0.00	0.25	0.00	1.00	0.00	0.00	0.00	-0.428711	0.298340	1.889648	17.219999	282.170013	-25.200001	63.00	0.04	-0.14
1.07	22.50	19.25	11.50	13.00	1.50	11.25	0.00	4.00	0.00	1.00	0.00	0.25	0.50	0.75	0.00	0.25	-0.138184	0.147949	0.982910	12.390000	-1.330000	5.530000	1084.00	-0.28	-0.09	0.00	0.00	0.25	0.25	0.25	0.25	0.00	0.50	0.50	0.00	0.00	0.00	0.50	0.00	0.00	0.00	-0.536621	0.326660	1.700195	0.490000	283.010010	-31.570000	35.00	0.00	0.00
1.08	23.25	19.50	11.25	13.25	1.50	11.50	0.00	4.25	0.00	1.25	0.00	0.00	0.00	0.75	0.00	0.50	-0.158203	0.152832	1.009277	11.480000	-3.360000	5.460000	1100.00	-0.29	-0.09	0.00	0.00	0.25	0.00	0.50	0.00	0.25	0.25	0.50	0.00	0.00	0.00	0.00	0.00	0.00	0.00	-0.063477	0.581543	1.729980	-10.570000	276.709991	-41.439999	27.00	0.00	0.00
1.09	23.25	20.00	11.50	13.50	1.50	12.00	0.00	4.75	0.00	1.25	0.00	0.00	1.00	0.75	0.00	0.00	-0.144531	0.147461	0.985352	11.970000	-5.530000	5.320000	1135.00	-0.28	-0.10	0.25	0.00	0.00	0.25	0.25	0.00	0.00	0.25	0.25	0.00	0.00	0.00	0.00	0.00	0.00	0.00	0.252930	0.646484	1.736816	13.650000	253.960007	-50.540001	18.00	0.00	0.00
1.10	23.50	19.75	11.50	13.75	1.50	12.25	0.00	5.00	0.00	1.25	0.00	0.00	0.75	0.50	0.00	0.25	-0.125977	0.152832	0.946777	13.090000	-5.810000	4.970000	1143.00	-0.28	-0.10	0.00	0.00	0.25	0.00	0.25	0.00	0.00	0.00	0.00	0.00	0.00	0.00	0.00	0.00	0.00	0.00	1.413574	1.111816	1.549805	40.389999	216.160004	-50.959999	7.00	0.00	0.00
1.11	23.25	20.25	11.50	13.75	1.50	12.50	0.00	5.00	0.00	1.25	0.00	0.00	0.50	0.00	0.00	0.25	-0.127930	0.170410	0.957031	13.160000	-3.990000	4.900000	1141.00	-0.28	-0.10	0.50	0.00	0.25	0.00	0.25	0.00	0.00	0.00	0.00	0.00	0.00	0.00	0.00	0.00	0.00	0.00	1.700684	1.051270	2.535645	23.170000	149.520004	-32.759998	13.00	0.00	0.00
1.12	23.25	20.00	11.50	13.75	1.50	12.75	0.00	4.75	0.00	1.25	0.00	0.00	1.75	0.00	0.00	0.00	-0.123535	0.152832	0.951660	13.020000	-2.590000	4.690000	1148.00	-0.28	-0.10	0.00	0.00	0.00	0.00	0.25	0.00	0.00	0.00	0.25	0.00	0.00	0.00	0.00	0.00	0.00	0.00	1.828125	0.927734	1.937012	-11.760000	64.120003	-2.450000	7.00	0.00	0.00
1.13	23.25	20.00	11.50	14.00	1.50	13.00	0.00	5.00	0.00	1.25	0.00	0.00	1.00	0.00	0.00	0.25	-0.113770	0.157715	0.933105	13.510000	-1.050000	4.200000	1153.00	-0.28	-0.10	0.25	0.00	0.00	0.25	0.25	0.00	0.00	0.00	0.00	0.00	0.00	0.00	0.00	0.00	0.00	0.00	1.877930	0.789062	1.132324	-16.730000	8.120000	16.170000	10.00	0.00	0.00
1.14	22.75	20.00	11.00	13.75	1.25	13.00	0.00	5.00	0.00	1.25	0.00	0.25	1.00	0.00	0.00	0.25	-0.112305	0.172363	0.921387	13.510000	0.840000	3.640000	1137.00	-0.28	-0.11	0.00	0.00	0.00	0.00	0.50	0.00	0.00	0.00	0.00	0.00	0.00	0.00	0.00	0.00	0.00	0.00	1.905762	0.589355	1.005859	10.710000	-14.630000	16.520000	7.00	0.00	0.00
1.15	22.50	20.00	11.25	13.75	1.25	13.25	0.00	5.00	0.00	1.25	0.00	0.00	1.25	0.00	0.00	0.25	-0.115723	0.167480	0.924805	12.600000	3.150000	3.150000	1140.00	-0.28	-0.11	0.00	0.00	0.25	0.00	0.00	0.00	0.00	0.00	0.00	0.00	0.00	0.00	0.00	0.00	0.00	0.00	1.905273	0.401367	1.317871	35.139999	-40.740002	8.540000	3.00	0.00	0.00
1.16	22.50	19.50	11.00	13.75	1.25	13.00	0.00	5.25	0.00	1.25	0.00	0.00	1.25	0.00	0.00	0.00	-0.120117	0.174805	0.926758	11.620000	5.110000	2.730000	1131.00	-0.28	-0.11	0.00	0.00	0.25	0.00	0.25	0.00	0.00	0.00	0.00	0.00	0.00	0.00	0.00	0.00	0.00	0.00	1.845215	0.297363	1.426758	39.270000	-81.620003	1.750000	7.00	0.00	0.00
1.17	21.75	19.25	10.75	13.50	1.25	13.25	0.00	5.25	0.00	1.50	0.00	0.25	1.25	0.00	0.00	0.00	-0.116211	0.187012	0.910645	9.870000	7.000000	1.960000	1122.00	-0.27	-0.11	0.50	0.00	0.00	0.00	0.25	0.00	0.00	0.00	0.00	0.00	0.00	0.00	0.00	0.00	0.00	0.00	1.688477	0.265625	1.342285	35.139999	-122.639999	-2.030000	9.00	0.00	0.00
1.18	21.50	19.00	10.50	13.50	1.25	13.25	0.00	5.50	0.00	1.25	0.00	0.00	1.50	0.00	0.00	0.25	-0.110352	0.188477	0.894043	6.790000	9.590000	1.540000	1115.00	-0.27	-0.11	0.25	0.00	0.25	0.00	0.25	0.00	0.00	0.00	0.00	0.00	0.00	0.00	0.00	0.00	0.00	0.00	1.302734	0.285156	1.356934	38.080002	-182.350006	-3.640000	10.00	0.00	0.00
1.19	21.00	18.75	10.50	13.50	1.25	13.75	0.00	5.50	0.00	1.25	0.00	0.00	1.75	0.00	0.00	0.00	-0.114746	0.187012	0.891113	3.360000	12.320000	0.980000	1113.00	-0.27	-0.11	0.00	0.00	0.50	0.00	0.50	0.00	0.00	0.00	0.00	0.00	0.00	0.00	0.00	0.00	0.00	0.00	1.100098	0.296387	1.444336	41.160000	-209.020004	-0.210000	13.00	0.00	0.00
1.20	21.00	18.50	10.50	13.25	1.25	13.50	0.00	5.75	0.00	1.25	0.00	0.00	1.25	0.00	0.00	0.25	-0.108398	0.188477	0.872559	-0.910000	15.540000	-0.140000	1105.00	-0.27	-0.11	0.00	0.00	0.00	0.00	0.25	0.00	0.00	0.00	0.00	0.00	0.00	0.00	0.00	0.00	0.00	0.00	0.873535	0.296875	1.478516	41.369999	-234.850006	6.720000	3.00	0.00	0.00
1.21	20.25	18.00	10.25	13.00	1.25	13.75	0.00	6.00	0.00	1.25	0.25	0.00	2.00	0.00	0.00	0.50	-0.158691	0.183105	0.953125	-9.590000	19.879999	-1.400000	1104.00	-0.26	-0.12	0.25	0.00	0.00	0.00	0.25	0.00	0.00	0.00	0.00	0.00	0.00	0.00	0.00	0.00	0.00	0.00	0.624023	0.293945	1.488770	40.529999	-256.760010	16.309999	6.00	0.00	0.00
1.22	20.00	17.75	10.00	13.00	1.25	13.75	0.00	6.25	0.00	1.50	0.00	0.00	2.00	0.00	0.00	0.00	-0.154785	0.169434	0.946289	-10.640000	19.040001	-1.400000	1096.00	-0.26	-0.12	0.00	0.00	0.00	0.00	0.25	0.00	0.00	0.00	0.00	0.00	0.00	0.00	0.00	0.00	0.00	0.00	0.377930	0.271484	1.491211	41.230000	-273.140015	26.670000	3.00	0.00	0.00
1.23	19.25	17.25	10.00	12.75	1.00	14.00	0.25	6.25	0.00	1.50	0.00	0.00	2.25	0.00	0.00	0.25	-0.173340	0.201172	0.979492	-11.620000	17.570000	-1.890000	1087.00	-0.26	-0.12	0.00	0.00	0.00	0.25	0.25	0.00	0.00	0.00	0.00	0.00	0.00	0.00	0.00	0.00	0.00	0.00	0.147949	0.246582	1.503418	42.770000	-284.339996	36.540001	7.00	0.00	0.00
1.24	19.00	17.00	9.75	12.75	1.00	14.00	0.00	7.00	0.00	1.50	0.00	0.00	2.50	0.00	0.00	0.25	-0.176270	0.167480	0.962891	-10.780000	15.890000	-1.610000	1089.00	-0.25	-0.13	0.00	0.00	0.00	0.00	0.00	0.00	0.00	0.00	0.00	0.00	0.00	0.00	0.00	0.00	0.00	0.00	-0.093750	0.226074	1.494141	45.500000	-290.850006	44.590000	0.00	0.00	0.00
1.25	18.50	16.75	9.50	12.50	1.00	14.25	0.00	7.50	0.00	1.25	0.00	0.00	2.50	0.00	0.00	0.25	-0.153320	0.176270	0.913086	-11.760000	15.960000	-1.610000	1083.00	-0.25	-0.13	0.00	0.00	0.00	0.00	0.25	0.00	0.00	0.00	0.00	0.00	0.00	0.00	0.00	0.00	0.00	0.00	-0.269531	0.196777	1.481445	49.279999	-292.110016	49.910000	3.00	0.00	0.00
1.26	18.25	16.50	9.50	12.50	1.25	14.50	0.00	7.50	0.00	1.50	0.25	0.00	3.25	0.00	0.00	0.00	-0.149902	0.192871	0.929688	-16.030001	17.710001	-2.240000	1096.00	-0.25	-0.14	0.00	0.00	0.00	0.00	0.25	0.00	0.00	0.00	0.00	0.00	0.00	0.00	0.00	0.00	0.00	0.00	-0.439941	0.195801	1.472656	52.220001	-288.610016	52.570000	3.00	0.00	0.00
1.27	18.00	16.00	9.25	12.50	1.25	14.50	0.25	8.00	0.00	1.50	0.00	0.00	3.25	0.00	0.00	0.00	-0.138184	0.169434	0.863281	-20.650000	20.650000	-2.800000	1094.00	-0.24	-0.14	0.25	0.00	0.25	0.00	0.25	0.00	0.00	0.00	0.00	0.00	0.00	0.00	0.00	0.00	0.00	0.00	-0.552246	0.210449	1.488281	53.480000	-281.750000	53.270000	10.00	0.00	0.00
1.28	17.75	15.75	9.25	12.25	1.00	14.50	0.25	8.25	0.00	1.50	0.00	0.00	3.75	0.00	0.00	0.00	-0.122559	0.186035	0.855469	-27.090000	25.690001	-3.640000	1092.00	-0.24	-0.14	0.00	0.00	0.00	0.00	0.25	0.00	0.00	0.00	0.00	0.00	0.00	0.00	0.00	0.00	0.00	0.00	-0.647949	0.251953	1.496094	53.270000	-272.230011	52.290001	3.00	0.00	0.00
1.29	17.25	15.50	9.50	12.25	1.25	15.00	0.25	8.50	0.25	1.75	0.50	0.00	3.25	0.00	0.00	0.00	-0.160156	0.158691	0.931641	-30.940001	28.420000	-3.990000	1109.00	-0.23	-0.14	0.00	0.00	0.25	0.00	0.00	0.00	0.00	0.00	0.00	0.00	0.00	0.00	0.00	0.00	0.00	0.00	-0.734863	0.298828	1.436523	55.020000	-260.750000	50.330002	3.00	0.00	0.00
1.30	16.75	15.25	9.25	12.25	1.25	15.00	0.25	9.00	0.25	1.75	0.25	0.00	4.75	0.00	0.00	0.25	-0.181152	0.150879	0.973145	-33.950001	29.680000	-4.690000	1119.00	-0.22	-0.15	0.00	0.00	0.00	0.00	0.25	0.00	0.00	0.00	0.00	0.00	0.00	0.00	0.00	0.00	0.00	0.00	-0.828125	0.332031	1.412598	59.290001	-245.210007	47.599998	3.00	0.00	0.00
1.31	16.50	14.75	9.25	12.00	1.25	15.25	0.25	9.25	0.25	1.75	0.25	0.25	5.25	0.00	0.00	0.00	-0.223633	0.168457	0.917969	-35.840000	29.750000	-5.250000	1122.00	-0.22	-0.15	0.00	0.00	0.00	0.00	0.25	0.00	0.00	0.00	0.00	0.00	0.00	0.00	0.00	0.00	0.00	0.00	-0.899902	0.372070	1.482910	64.050003	-228.619995	44.660000	3.00	0.00	0.00
1.32	16.00	14.50	9.00	12.00	1.25	15.25	0.25	9.75	0.25	1.75	0.25	0.00	5.25	0.00	0.00	0.00	-0.210449	0.134277	0.979492	-35.490002	27.440001	-5.180000	1115.00	-0.22	-0.16	0.00	0.00	0.25	0.00	0.25	0.00	0.00	0.00	0.00	0.00	0.00	0.00	0.00	0.00	0.00	0.00	-1.020508	0.378418	1.564941	75.879997	-209.509995	43.889999	7.00	0.00	0.00
1.33	15.50	13.75	9.00	11.75	1.50	15.50	0.50	10.00	0.25	2.00	0.25	0.25	6.25	0.00	0.00	0.25	-0.193359	0.121582	0.936035	-35.349998	24.150000	-5.110000	1131.00	-0.20	-0.16	0.00	0.00	0.00	0.00	0.25	0.00	0.00	0.00	0.00	0.00	0.00	0.00	0.00	0.00	0.00	0.00	-1.097656	0.303711	1.465332	78.470001	-202.440002	46.410000	3.00	0.00	0.00
1.34	15.25	13.50	9.00	11.50	1.50	15.75	0.50	10.50	0.50	2.00	0.25	0.50	7.00	0.25	0.00	0.25	-0.187500	0.142578	0.928711	-38.150002	22.190001	-5.180000	1152.00	-0.20	-0.16	0.00	0.00	0.25	0.00	0.25	0.00	0.00	0.00	0.00	0.00	0.00	0.00	0.00	0.00	0.00	0.00	-1.167480	0.234863	1.383301	75.879997	-193.550003	50.400002	7.00	0.00	0.00
1.35	15.00	13.00	8.75	11.25	1.75	16.00	0.50	11.00	0.50	2.00	0.75	0.75	7.75	0.00	0.00	0.25	-0.200195	0.121582	0.964355	-42.000000	20.299999	-4.970000	1167.00	-0.19	-0.17	0.00	0.00	0.00	0.00	0.00	0.00	0.00	0.00	0.00	0.00	0.00	0.00	0.00	0.00	0.00	0.00	-1.221680	0.153320	1.326660	69.580002	-184.869995	55.650002	0.00	0.00	0.00
1.36	14.00	12.50	8.75	11.25	1.75	16.25	0.50	11.75	0.50	2.25	0.50	0.50	8.50	0.00	0.00	0.25	-0.198242	0.104004	0.991699	-44.450001	9.520000	-4.620000	1170.00	-0.18	-0.17	0.00	0.00	0.00	0.00	0.25	0.00	0.00	0.00	0.00	0.00	0.00	0.00	0.00	0.00	0.00	0.00	-1.268066	0.041504	1.235352	60.549999	-178.360001	61.950001	3.00	0.00	0.00
1.37	13.75	11.75	8.75	11.00	1.75	16.50	0.50	12.25	0.75	2.50	0.75	0.75	10.00	0.00	0.00	0.50	-0.230469	0.066406	1.020020	-35.910000	-0.420000	-3.360000	1198.00	-0.17	-0.18	0.00	0.00	0.00	0.00	0.00	0.00	0.00	0.00	0.00	0.00	0.00	0.00	0.00	0.00	0.00	0.00	-1.326172	-0.080078	1.083008	47.250000	-173.180008	68.180000	0.00	0.00	0.00
1.38	13.00	11.00	8.50	10.75	2.25	16.75	0.50	12.75	1.00	2.75	1.25	1.25	11.25	0.50	0.00	0.50	-0.217285	0.086426	0.961426	-17.990000	-5.460000	-1.540000	1231.00	-0.15	-0.18	0.00	0.00	0.00	0.00	0.25	0.00	0.00	0.00	0.00	0.00	0.00	0.00	0.00	0.00	0.00	0.00	-1.427246	-0.189453	0.866211	31.639999	-165.690002	72.800003	3.00	0.00	0.00
1.39	12.25	10.25	8.25	10.50	2.25	16.75	0.75	13.00	1.25	3.25	1.25	1.50	12.00	0.50	0.00	0.50	-0.194824	0.106445	0.951660	-9.380000	-6.020000	-0.070000	1236.00	-0.14	-0.18	0.25	0.00	0.00	0.00	0.00	0.00	0.00	0.00	0.00	0.00	0.00	0.00	0.00	0.00	0.00	0.00	-1.572754	-0.306152	0.602051	15.680000	-153.089996	73.500000	3.00	0.00	0.00
1.40	11.50	9.25	8.00	10.00	2.50	16.75	0.75	13.50	1.25	3.25	1.75	2.00	13.00	1.00	0.50	1.00	-0.196289	0.100586	0.962891	-5.880000	-5.740000	0.140000	1256.00	-0.12	-0.19	0.75	0.00	0.00	0.00	0.25	0.00	0.00	0.00	0.00	0.00	0.00	0.00	0.00	0.00	0.00	0.00	-1.818359	-0.357910	0.257324	1.470000	-133.419998	67.340004	13.00	0.00	0.00
1.41	10.00	8.75	7.50	9.50	2.75	17.00	1.00	14.00	1.75	3.75	2.25	2.25	13.75	1.50	0.25	1.00	-0.212402	0.098633	0.968262	-2.660000	-4.340000	0.070000	1272.00	-0.10	-0.19	0.00	0.00	0.00	0.00	0.25	0.00	0.00	0.00	0.00	0.00	0.00	0.00	0.00	0.00	0.00	0.00	-2.044922	-0.348145	0.050293	-6.580000	-103.739998	51.450001	3.00	0.00	0.00
1.42	9.00	7.75	7.50	9.25	2.50	16.75	1.00	14.25	2.25	4.00	2.75	3.00	15.00	1.75	0.50	1.50	-0.209473	0.105957	0.974121	0.560000	-2.590000	0.280000	1292.00	-0.08	-0.19	0.00	0.00	0.00	0.00	0.25	0.00	0.00	0.00	0.00	0.00	0.00	0.00	0.00	0.00	0.00	0.00	-2.212402	-0.334961	0.054688	-9.310000	-71.540001	26.740000	3.00	0.00	0.00
1.43	7.75	7.00	6.50	8.75	2.50	16.50	1.00	14.75	2.50	4.50	3.25	3.75	15.75	3.00	1.00	1.75	-0.212891	0.095215	0.966309	3.710000	1.680000	0.840000	1308.00	-0.06	-0.20	0.00	0.00	0.00	0.00	0.00	0.00	0.00	0.00	0.00	0.00	0.00	0.00	0.00	0.00	0.00	0.00	-2.296387	-0.309082	0.098633	-14.840000	-43.189999	-2.240000	0.00	0.00	0.00
1.44	6.50	6.00	6.00	8.25	2.50	16.25	1.25	15.00	3.00	5.25	4.50	5.25	16.75	3.25	1.50	2.00	-0.213867	0.096191	0.959961	6.020000	5.670000	0.910000	1346.00	-0.03	-0.20	0.00	0.00	0.00	0.00	0.25	0.00	0.00	0.00	0.00	0.00	0.00	0.00	0.00	0.00	0.00	0.00	-2.307617	-0.161621	0.086914	-36.610001	7.070000	-52.220001	3.00	0.00	0.00
1.45	5.50	5.25	5.25	7.75	2.50	16.00	1.50	15.25	3.50	5.75	5.25	6.25	17.75	4.75	2.00	2.50	-0.200195	0.105957	0.959473	7.000000	10.150000	0.560000	1386.00	-0.01	-0.19	0.00	0.00	0.25	0.00	0.00	0.00	0.00	0.00	0.00	0.00	0.00	0.00	0.00	0.00	0.00	0.00	-2.307617	-0.161621	0.086914	-36.610001	7.070000	-52.220001	3.00	0.00	0.00
1.46	4.75	4.75	4.00	7.00	2.25	15.50	1.75	15.25	3.75	6.50	6.00	7.00	19.00	5.50	2.75	2.75	-0.201172	0.097168	0.966797	8.260000	15.050000	0.420000	1403.00	0.02	-0.20	0.00	0.00	0.25	0.00	0.00	0.00	0.00	0.00	0.00	0.00	0.00	0.00	0.00	0.00	0.00	0.00	-2.257812	-0.072754	0.106934	-43.400002	34.509998	-64.400002	3.00	0.00	0.00
1.47	3.75	3.75	3.00	6.50	2.00	15.00	2.00	15.50	4.50	7.25	7.00	7.50	20.00	6.75	3.50	3.25	-0.201660	0.096191	0.965332	9.380000	21.000000	1.120000	1434.00	0.04	-0.19	0.00	0.00	0.00	0.00	0.25	0.00	0.00	0.00	0.00	0.00	0.00	0.00	0.00	0.00	0.00	0.00	-2.116699	0.084961	0.385742	-55.160000	90.650002	-55.790001	3.00	0.00	0.00
1.48	2.75	3.00	2.50	5.75	1.75	14.25	2.25	15.50	5.25	7.75	7.50	8.00	21.00	8.00	3.50	4.00	-0.197754	0.106934	0.981934	10.430000	27.580000	1.820000	1447.00	0.07	-0.19	0.25	0.00	0.25	0.00	0.25	0.00	0.00	0.00	0.00	0.00	0.00	0.00	0.00	0.00	0.00	0.00	-2.051758	0.175293	0.547363	-63.980000	113.540001	-38.220001	10.00	0.00	0.00
1.49	2.00	2.75	1.75	5.25	1.50	13.50	2.50	15.25	5.75	8.00	8.00	8.50	22.25	8.75	4.25	4.50	-0.184082	0.122070	0.956543	12.530000	34.509998	2.170000	1461.00	0.08	-0.19	0.25	0.00	0.25	0.00	0.25	0.00	0.00	0.00	0.00	0.00	0.00	0.00	0.00	0.00	0.00	0.00	6.903320	2.380371	5.367188	-55.930000	154.839996	-24.850000	10.00	0.00	0.00
1.50	1.50	2.50	1.75	4.75	1.25	12.50	2.50	15.25	6.50	8.50	8.25	9.00	23.25	9.25	5.00	5.00	-0.171387	0.099609	0.966797	22.049999	51.099998	2.520000	1485.00	0.10	-0.19	2.75	0.75	0.75	1.00	0.50	0.00	0.00	0.00	0.00	0.00	0.00	0.00	0.00	0.00	0.00	0.00	5.980957	1.393555	2.336426	-35.490002	81.760002	12.250000	72.00	-0.34	0.01
1.51	1.00	2.00	1.25	3.75	1.25	12.00	2.75	15.00	7.00	8.75	8.75	9.25	23.75	10.00	5.50	5.25	-0.215332	0.127441	1.006836	29.820000	68.459999	2.450000	1488.00	0.11	-0.18	5.50	2.00	1.50	1.50	0.75	0.00	0.00	0.00	0.00	0.00	0.00	0.00	0.00	0.00	0.00	0.00	0.564941	-0.476074	-2.780273	-104.160004	21.280001	2.030000	140.00	-0.35	0.01
1.52	1.00	1.75	1.25	2.75	1.00	11.25	2.75	14.75	7.50	9.00	9.00	9.75	24.75	10.75	6.00	6.00	-0.269531	0.130859	1.040039	40.670002	114.800003	1.820000	1503.00	0.13	-0.18	6.25	2.75	1.75	1.50	0.50	0.00	0.00	0.00	0.00	0.00	0.00	0.00	0.00	0.00	0.00	0.00	0.574219	-0.504395	-1.152344	-238.979996	214.270004	-56.420002	157.00	-0.36	0.01
1.53	0.75	1.25	0.75	2.75	1.00	10.50	3.00	14.25	7.75	9.50	9.50	10.00	25.25	11.25	6.50	6.50	-0.270020	0.142090	1.064941	47.740002	139.020004	0.630000	1513.00	0.14	-0.17	7.00	3.75	1.75	1.25	0.50	0.00	0.00	0.00	0.00	0.00	0.00	0.00	0.00	0.00	0.00	0.00	-0.308105	0.434570	2.500977	-230.020004	284.269989	-50.330002	174.00	-0.37	0.01
1.54	0.75	1.25	0.75	2.50	0.75	10.25	3.00	13.75	8.00	9.75	9.75	10.50	25.50	12.00	7.00	7.25	-0.323730	0.181641	1.076172	51.099998	160.509995	-1.610000	1532.00	0.14	-0.17	8.25	4.00	2.00	1.25	0.25	0.00	0.00	0.00	0.00	0.00	0.00	0.00	0.00	0.00	0.00	0.00	-1.261230	-0.132812	1.609375	-160.089996	261.100006	-10.010000	193.00	-0.37	0.01
1.55	0.50	1.00	0.50	1.50	0.75	9.75	3.00	13.25	8.25	10.00	10.00	10.75	25.75	12.25	7.50	7.25	-0.331543	0.123535	1.071289	47.740002	183.399994	-4.900000	1519.00	0.16	-0.17	9.25	5.50	2.25	1.50	0.25	0.00	0.00	0.00	0.00	0.00	0.00	0.00	0.00	0.00	0.00	0.00	-0.578125	-0.028320	2.589844	-109.760002	228.339996	15.610000	228.00	-0.37	0.00
1.56	0.25	0.75	0.00	2.00	0.50	9.25	3.00	12.50	8.50	10.25	10.25	10.75	26.25	12.75	7.75	7.75	-0.357910	0.140625	1.120117	45.570000	204.399994	-6.650000	1516.00	0.16	-0.17	9.75	6.00	2.50	1.75	0.50	0.00	0.00	0.00	0.00	0.00	0.00	0.00	0.00	0.00	0.00	0.00	-0.333496	-0.368164	1.614258	-74.269997	173.809998	24.290001	250.00	-0.37	0.00
1.57	0.50	0.75	0.00	1.50	0.50	8.75	3.00	12.25	8.75	10.25	10.50	11.25	26.00	13.00	8.50	8.25	-0.411621	0.185059	1.139648	44.310001	224.910004	-8.400000	1527.00	0.17	-0.16	10.75	6.50	2.50	1.75	0.50	0.00	0.00	0.00	0.00	0.00	0.00	0.00	0.00	0.00	0.00	0.00	-0.111816	-0.540039	0.991211	-54.250000	157.220001	14.840000	268.00	-0.37	0.00
1.58	0.25	0.25	0.00	1.25	0.25	8.50	3.00	12.00	8.50	10.25	10.50	11.25	25.75	13.50	8.50	8.50	-0.442383	0.196289	1.131348	40.320000	246.050003	-11.060000	1504.00	0.18	-0.16	11.75	7.25	2.75	2.00	0.50	0.00	0.00	0.00	0.00	0.00	0.00	0.00	0.00	0.00	0.00	0.00	-0.062988	-0.562012	0.901367	-24.360001	153.649994	3.500000	295.00	-0.37	0.00
1.59	0.00	0.25	0.00	0.75	0.25	8.00	3.00	11.25	8.50	10.50	10.75	11.50	25.50	13.50	8.50	8.75	-0.473633	0.243164	1.192383	38.570000	267.049988	-14.630000	1483.00	0.18	-0.16	12.25	8.25	3.25	2.50	0.50	0.00	0.00	0.00	0.00	0.00	0.00	0.00	0.00	0.00	0.00	0.00	-0.150391	-0.530762	0.956543	6.090000	154.770004	-9.940000	325.00	-0.37	-0.01
1.60	0.00	0.00	0.00	1.00	0.00	7.50	3.00	11.00	8.25	10.25	10.75	11.25	25.00	14.00	9.00	9.25	-0.529297	0.231934	1.198242	36.540001	287.350006	-19.110001	1468.00	0.19	-0.16	13.75	9.50	4.25	3.00	0.50	0.00	0.00	0.00	0.00	0.00	0.00	0.00	0.00	0.00	0.00	0.00	-0.276855	-0.212891	1.164551	24.920000	154.070007	-26.460001	378.00	-0.37	-0.01
1.61	0.00	0.00	0.00	0.00	0.25	7.00	3.00	10.50	8.25	10.00	10.50	11.00	24.25	14.00	9.00	9.50	-0.592773	0.244629	1.299316	33.810001	308.279999	-22.680000	1428.00	0.19	-0.15	15.00	11.00	4.50	4.00	0.75	0.00	0.00	0.00	0.00	0.00	0.00	0.00	0.00	0.00	0.00	0.00	-0.363770	0.760742	1.381348	25.410000	138.809998	-27.090000	430.00	-0.37	-0.01
1.62	0.00	0.00	0.00	0.50	0.00	6.00	3.00	10.00	7.50	9.75	10.25	10.75	23.50	14.50	9.00	10.00	-0.707031	0.193359	1.288574	32.340000	326.970001	-23.730000	1388.00	0.20	-0.15	16.00	11.50	5.00	5.00	0.75	1.00	0.00	0.25	0.00	0.00	0.00	0.00	0.00	0.00	0.00	0.00	-0.514160	0.444336	1.666992	9.380000	129.080002	-9.730000	485.00	-0.36	-0.03
1.63	0.00	0.00	0.00	0.00	0.25	5.25	2.75	9.25	7.25	9.25	9.75	10.25	22.50	14.50	9.25	10.25	-0.810059	0.269043	1.441406	30.380001	343.209991	-21.559999	1329.00	0.21	-0.15	15.50	12.00	5.25	5.75	1.00	1.50	0.00	0.25	0.00	0.00	0.00	0.00	0.00	0.00	0.00	0.00	-0.713379	0.392578	1.808105	-63.490002	77.209999	-13.230000	507.00	-0.35	-0.04
1.64	0.00	0.00	0.00	0.25	0.00	5.25	2.75	8.75	7.00	8.75	9.00	9.50	20.75	14.50	9.00	10.50	-1.100586	0.294434	1.792969	24.360001	368.339996	-14.490000	1271.00	0.21	-0.14	16.50	12.50	5.25	6.25	1.25	2.00	0.00	0.50	0.00	0.00	0.00	0.00	0.00	0.00	0.00	0.00	-0.273926	-0.050781	0.758789	-48.650002	29.820000	0.630000	546.00	-0.34	-0.04
1.65	0.00	0.00	0.00	0.50	0.00	3.25	2.75	8.25	6.50	8.25	8.50	9.00	19.50	14.25	9.00	10.50	-1.100586	0.294434	1.792969	24.360001	368.339996	-14.490000	1197.00	0.21	-0.14	16.50	12.75	5.50	6.50	1.25	2.75	0.00	0.75	0.00	0.00	0.00	0.00	0.00	0.00	0.00	0.00	-0.067871	0.007812	0.978516	-38.709999	22.540001	2.100000	570.00	-0.34	-0.05
1.66	0.00	0.00	0.00	0.00	0.00	3.00	2.25	7.50	6.00	7.75	7.75	8.50	18.00	14.00	8.75	10.00	-1.366699	0.229004	1.953125	11.270000	376.250000	-11.760000	1111.00	0.22	-0.14	16.75	12.25	6.00	7.25	1.25	3.25	0.00	1.00	0.00	0.00	0.00	0.00	0.00	0.00	0.00	0.00	-0.298828	0.191406	1.031738	-43.189999	23.170000	0.210000	595.00	-0.33	-0.05
1.67	0.00	0.00	0.00	0.00	0.00	2.50	2.00	6.50	5.50	7.00	6.75	7.75	16.50	13.75	8.50	9.50	-1.237793	0.006348	1.942871	-34.580002	387.519989	-6.090000	1018.00	0.23	-0.13	16.75	12.50	6.00	7.50	1.50	4.00	0.00	1.50	0.00	0.00	0.00	0.00	0.00	0.00	0.00	0.00	-0.277344	0.004395	1.105469	-39.830002	15.050000	2.170000	623.00	-0.32	-0.06
1.68	0.00	0.00	0.00	0.00	0.00	2.00	1.75	5.75	5.00	6.25	6.00	7.00	15.25	13.25	8.25	9.00	-1.125977	-0.023926	2.116699	-42.840000	380.170013	2.800000	934.00	0.23	-0.13	17.25	13.25	6.25	7.75	1.75	4.75	0.00	1.50	0.00	0.00	0.00	0.00	0.25	0.00	0.00	0.00	-0.242676	0.075195	1.046387	-34.650002	5.950000	1.400000	660.00	-0.32	-0.07
1.69	0.00	0.00	0.00	0.00	0.00	2.25	1.25	5.25	4.75	5.25	4.75	6.00	13.75	12.75	7.75	8.25	-0.955078	0.018066	2.295898	-47.529999	365.750000	15.820000	843.00	0.23	-0.13	18.00	13.50	6.25	8.00	1.75	4.50	0.00	1.50	0.25	0.00	0.00	0.00	0.25	0.00	0.00	0.00	-0.228027	0.087891	0.996094	-33.529999	1.610000	1.470000	676.00	-0.32	-0.06
1.70	0.00	0.00	0.00	0.00	0.00	2.75	0.75	4.50	2.75	4.75	2.75	5.25	12.25	11.50	7.00	7.50	-0.764160	-0.061035	2.143555	-54.250000	353.850006	28.840000	712.00	0.23	-0.15	18.25	14.00	6.75	8.25	2.00	5.00	0.25	1.50	0.75	0.00	0.00	0.00	0.00	0.00	0.00	0.00	-0.208984	0.038574	1.006348	-32.900002	-0.420000	1.540000	714.00	-0.31	-0.06
1.71	0.00	0.50	0.00	0.00	0.00	2.00	0.50	3.75	2.00	3.50	1.75	3.50	10.25	10.50	5.75	6.25	-0.402832	0.139648	2.462402	-52.570000	347.200012	44.240002	573.00	0.23	-0.15	18.50	14.00	7.00	8.25	1.75	5.00	0.25	1.50	0.75	0.00	0.00	0.00	0.25	0.00	0.00	0.00	-0.225586	0.043457	1.011230	-27.860001	-3.920000	2.030000	720.00	-0.31	-0.06
1.72	0.00	0.00	0.00	0.00	0.00	2.00	0.25	3.50	1.50	3.00	1.25	2.25	8.50	8.25	4.00	5.00	0.071289	0.306152	2.480957	-25.690001	342.440002	60.340000	452.00	0.22	-0.16	19.25	14.00	7.25	8.25	2.25	4.75	0.50	1.50	0.75	0.00	0.00	0.00	0.25	0.00	0.00	0.00	-0.199219	0.048828	0.956055	-21.700001	-4.900000	2.870000	740.00	-0.31	-0.05
1.73	0.25	0.25	0.50	0.50	0.00	1.50	0.00	2.25	1.00	2.50	0.75	1.75	6.75	5.50	1.25	1.75	0.593750	0.236816	2.136230	20.719999	338.730011	73.989998	310.00	0.17	-0.16	19.75	15.00	7.75	8.50	2.25	4.75	0.50	1.25	0.75	0.00	0.00	0.00	0.50	0.00	0.00	0.00	-0.190918	0.054199	0.962402	-20.160000	-4.340000	3.080000	765.00	-0.31	-0.05
1.74	0.25	0.25	0.25	0.50	0.25	1.25	0.00	1.75	0.50	2.25	0.50	1.75	5.50	3.50	1.25	1.25	3.283203	-0.416016	2.208496	59.290001	314.790009	70.349998	247.00	0.16	-0.18	20.25	15.25	7.75	8.50	2.25	4.75	0.50	1.25	1.00	0.00	0.00	0.00	0.25	0.00	0.00	0.00	-0.207031	0.038086	0.979004	-17.780001	-4.340000	3.010000	775.00	-0.31	-0.05
1.75	0.00	0.50	0.00	0.25	0.25	1.00	0.00	2.25	0.50	2.25	0.75	1.25	5.00	3.00	0.75	1.50	1.586426	-0.258789	7.475586	10.290000	124.809998	36.540001	228.00	0.16	-0.20	20.75	16.00	7.75	8.75	2.50	4.50	0.75	1.00	1.25	0.00	0.00	0.00	0.25	0.00	0.00	0.00	-0.200195	0.033691	0.963379	-11.970000	-3.780000	3.500000	797.00	-0.31	-0.04
1.76	0.50	0.00	0.00	0.00	0.00	0.75	0.00	1.75	0.25	2.00	0.75	1.00	4.75	2.25	0.50	1.25	1.828613	-0.588379	4.250488	-58.310001	-100.590004	15.190001	184.00	0.17	-0.21	20.50	16.00	8.00	8.75	2.50	4.50	0.75	1.00	1.25	0.00	0.00	0.00	0.25	0.00	0.00	0.00	-0.204102	0.026855	0.964844	-8.890000	-3.360000	3.780000	797.00	-0.31	-0.04
1.77	0.50	0.00	0.00	0.50	0.00	1.00	0.00	1.75	0.25	2.00	0.75	1.25	3.25	1.75	0.50	1.25	1.126465	-0.256348	2.929688	-99.470001	-229.669998	-27.090000	177.00	0.14	-0.20	21.00	16.25	8.00	8.75	2.50	4.25	0.75	1.00	1.25	0.00	0.00	0.00	0.00	0.00	0.00	0.00	-0.199707	0.035645	0.959473	-6.230000	-2.870000	3.710000	800.00	-0.31	-0.04
1.78	0.00	0.00	0.25	0.25	0.00	1.25	0.00	2.25	0.00	2.00	0.75	1.00	3.75	1.25	0.50	1.00	0.899414	0.019531	2.376953	-73.500000	-275.450012	-87.220001	175.00	0.13	-0.24	21.25	16.00	8.00	8.75	2.50	4.00	0.75	0.75	1.00	0.00	0.00	0.00	0.00	0.00	0.00	0.00	-0.193848	0.023926	0.964355	-3.710000	-2.660000	3.500000	789.00	-0.31	-0.03
1.79	0.00	0.00	0.00	0.25	0.25	1.00	0.00	1.75	0.25	2.00	0.75	1.00	2.75	0.50	0.00	1.25	0.766113	0.044434	2.356934	-17.080000	-300.720001	-140.630005	144.00	0.12	-0.23	21.50	16.75	8.00	8.50	2.50	3.75	0.75	0.50	0.75	0.00	0.00	0.00	0.00	0.00	0.00	0.00	-0.207520	0.030273	0.970215	-1.120000	-2.730000	3.290000	785.00	-0.32	-0.03
1.80	0.00	0.00	0.25	0.50	0.00	1.00	0.00	1.50	0.00	1.75	0.75	0.75	2.75	0.00	0.25	1.00	0.659180	-0.032715	2.260742	12.180000	-328.649994	-176.539993	129.00	0.10	-0.26	21.25	16.50	8.00	8.50	2.25	3.25	0.75	0.50	1.00	0.00	0.00	0.00	0.00	0.00	0.00	0.00	-0.206543	0.036621	0.969238	1.680000	-2.870000	3.500000	774.00	-0.32	-0.03
1.81	0.00	0.00	0.25	0.50	0.00	0.75	0.00	1.25	0.00	2.00	0.75	0.50	2.50	0.25	0.75	1.00	0.479492	-0.037109	2.129883	-5.950000	-356.299988	-196.210007	127.00	0.13	-0.22	22.00	16.00	7.75	8.50	2.25	3.25	0.50	0.50	0.50	0.00	0.00	0.00	0.00	0.00	0.00	0.00	-0.234375	0.021973	0.986328	4.410000	-3.290000	3.640000	762.00	-0.33	-0.03
1.82	0.00	0.00	0.00	0.50	0.25	1.00	0.25	1.00	0.25	2.00	0.50	0.50	1.75	0.00	0.25	1.00	0.225586	0.177246	1.718750	-87.290001	-393.890015	-203.490005	114.00	0.11	-0.19	21.00	16.00	8.00	8.50	2.00	3.00	0.75	0.50	0.75	0.00	0.00	0.00	0.00	0.00	0.00	0.00	-0.212402	0.033691	0.979492	6.650000	-4.410000	3.500000	755.00	-0.32	-0.03
1.83	0.50	0.25	0.00	0.25	0.00	0.50	0.25	1.00	0.00	2.00	0.75	0.75	1.75	0.25	0.00	1.25	0.124023	0.270020	1.317383	-110.040001	-396.339996	-203.000000	114.00	0.10	-0.18	20.75	16.00	7.75	8.25	2.25	2.50	0.50	0.50	0.50	0.00	0.00	0.00	0.00	0.00	0.00	0.00	-0.235840	0.019043	1.024414	11.200000	-10.920000	3.080000	733.00	-0.33	-0.03
1.84	0.00	0.00	0.25	0.00	0.25	0.75	0.25	1.00	0.00	2.00	0.50	0.50	1.75	0.00	0.25	1.00	0.020996	0.357910	0.949707	-107.800003	-382.200012	-204.680008	104.00	0.12	-0.19	20.50	15.75	7.75	8.25	2.00	2.50	0.50	0.25	0.75	0.00	0.00	0.00	0.00	0.00	0.00	0.00	-0.186035	0.062988	0.908203	11.900000	-13.370000	2.660000	723.00	-0.33	-0.03
1.85	0.00	0.00	0.50	0.00	0.25	0.75	0.25	0.50	0.00	2.25	0.75	0.50	1.75	0.00	0.25	1.00	-0.023926	0.415527	0.697754	-83.510002	-352.029999	-206.080002	104.00	0.13	-0.15	20.75	15.50	7.75	8.00	2.25	2.25	0.50	0.25	0.25	0.00	0.00	0.00	0.00	0.00	0.00	0.00	-0.161621	0.086914	0.859375	8.680000	-12.250000	2.380000	713.00	-0.34	-0.03
1.86	0.25	0.00	0.25	0.50	0.00	0.50	0.25	0.75	0.00	2.00	0.25	0.50	1.25	0.00	0.25	0.75	0.008301	0.447754	0.656738	-48.299999	-316.890015	-201.949997	93.00	0.09	-0.16	20.75	15.00	7.75	7.75	2.25	2.25	0.50	0.25	0.50	0.00	0.00	0.00	0.00	0.00	0.00	0.00	-0.154785	0.101074	0.846191	2.240000	-8.960000	2.170000	708.00	-0.33	-0.02
1.87	0.25	0.25	0.25	0.25	0.25	0.75	0.25	1.00	0.25	2.00	0.50	0.50	1.50	0.00	0.25	0.75	0.023438	0.496094	0.831055	-15.610000	-285.250000	-191.240005	113.00	0.08	-0.16	20.25	15.00	7.75	8.25	2.25	2.50	0.75	0.50	0.75	0.00	0.00	0.00	0.00	0.00	0.00	0.00	-0.126465	0.086914	0.834473	-5.740000	-5.320000	2.030000	724.00	-0.32	-0.03
1.88	0.00	0.00	0.50	0.00	0.25	0.50	0.25	0.75	0.00	2.00	0.25	0.50	1.00	0.00	0.00	1.00	0.055176	0.536133	1.127930	12.320000	-264.600006	-172.059998	86.00	0.11	-0.15	20.00	14.75	7.75	8.00	2.25	2.25	0.75	0.50	0.75	0.00	0.00	0.00	0.00	0.00	0.00	0.00	-0.130371	0.097168	0.810547	-15.610000	0.000000	1.680000	712.00	-0.32	-0.02
1.89	0.00	0.00	0.25	0.25	0.00	0.50	0.25	0.75	0.00	2.00	0.00	0.50	0.75	0.00	0.00	1.00	0.089355	0.555664	1.410156	32.689999	-257.880005	-145.460007	77.00	0.11	-0.16	20.00	14.25	8.00	8.00	2.50	2.75	0.75	0.50	0.75	0.00	0.00	0.00	0.00	0.00	0.00	0.00	-0.152832	0.080566	0.848633	-27.230000	4.550000	0.840000	720.00	-0.32	-0.03
1.90	0.25	0.25	0.00	0.25	0.00	0.25	0.25	1.00	0.25	1.75	0.25	0.50	1.00	0.00	0.00	0.75	0.066895	0.562988	1.617676	47.459999	-262.709991	-113.610001	85.00	0.09	-0.16	19.50	14.00	8.25	8.00	3.00	3.00	1.00	0.75	1.50	0.00	0.00	0.00	0.00	0.00	0.00	0.00	-0.223145	0.006348	0.924805	-31.360001	-5.810000	0.840000	745.00	-0.30	-0.02
1.91	0.00	0.50	0.50	0.25	0.00	0.25	0.25	0.75	0.00	2.00	0.50	0.25	1.25	0.00	0.00	0.75	0.031250	0.571777	1.727539	60.410000	-273.559998	-79.169998	89.00	0.07	-0.15	19.00	13.50	8.00	7.75	3.50	3.25	1.25	1.00	2.00	0.25	0.00	0.00	0.00	0.00	0.00	0.00	-0.190918	0.040527	0.948242	-26.250000	-20.440001	0.840000	756.00	-0.29	-0.02
1.92	0.00	0.25	0.00	0.50	0.25	0.75	0.25	0.50	0.25	2.25	0.75	0.25	0.50	0.00	0.00	0.75	-0.043457	0.567871	1.801270	75.250000	-285.179993	-44.520000	90.00	0.09	-0.11	18.75	12.75	8.25	7.75	4.00	3.75	1.75	1.25	2.75	0.25	0.00	0.00	0.25	0.00	0.00	0.00	-0.199707	0.017090	0.965820	-23.660000	-22.330000	1.120000	789.00	-0.27	-0.01
1.93	0.00	0.00	0.50	0.25	0.25	0.25	0.25	0.75	0.00	2.00	0.25	0.25	0.75	0.00	0.00	0.75	-0.139160	0.529785	1.820801	89.250000	-294.350006	-11.060000	78.00	0.09	-0.13	18.25	12.25	8.25	7.75	4.75	4.00	2.25	1.50	3.75	0.25	0.25	0.00	0.75	0.25	0.00	0.00	-0.202637	0.017090	0.976074	-20.370001	-22.120001	1.610000	830.00	-0.24	-0.01
1.94	0.50	0.00	0.25	0.00	0.00	0.50	0.25	1.00	0.00	1.75	0.25	0.25	1.25	0.00	0.00	1.00	-0.216309	0.495117	1.817383	98.629997	-300.019989	19.879999	86.00	0.08	-0.17	17.50	11.50	8.25	7.75	5.50	4.25	2.75	1.75	4.50	0.75	0.50	0.00	0.75	0.75	0.00	0.00	-0.190430	0.020996	0.954102	-17.639999	-21.139999	2.030000	865.00	-0.22	-0.01
1.95	0.00	0.25	0.00	0.00	0.25	0.25	0.00	1.00	0.00	1.50	0.75	0.25	1.25	0.00	0.00	0.50	-0.306152	0.518066	1.907227	109.480003	-303.029999	47.389999	75.00	0.11	-0.21	16.75	11.00	8.00	7.50	6.00	4.50	3.00	1.75	5.50	1.00	0.50	0.00	1.25	0.75	0.00	0.00	-0.185059	0.014160	0.974609	-14.910000	-20.090000	2.240000	882.00	-0.20	-0.00
1.96	0.00	0.25	0.00	0.00	0.25	0.00	0.00	0.75	0.00	1.50	0.25	0.25	0.50	0.00	0.00	0.75	-0.499512	0.538574	2.105469	146.160004	-308.350006	95.059998	55.00	0.12	-0.18	16.00	10.00	8.25	7.25	6.50	5.00	3.75	2.25	6.75	1.50	0.75	0.00	1.50	1.25	0.00	0.00	-0.190918	0.023926	0.971191	-12.040000	-17.990000	2.590000	934.00	-0.17	0.00
1.97	0.25	0.00	0.00	0.25	0.25	0.50	0.25	1.00	0.00	1.50	0.25	0.25	0.75	0.00	0.00	0.75	-0.612305	0.509766	2.092285	161.979996	-307.790009	116.199997	76.00	0.07	-0.17	15.25	9.50	8.00	7.25	7.00	5.25	4.00	2.50	7.25	1.75	1.00	0.50	1.25	1.50	0.00	0.00	-0.185547	0.010742	0.957520	-9.590000	-15.820000	2.870000	955.00	-0.15	0.00
1.98	0.25	0.25	0.25	0.00	0.00	0.00	0.25	0.75	0.00	1.50	0.25	0.25	1.00	0.00	0.00	0.75	-0.722656	0.505371	2.090820	174.720001	-301.350006	134.399994	67.00	0.09	-0.16	14.50	8.25	8.00	7.00	7.25	5.25	4.50	3.25	7.75	2.00	1.25	0.50	2.25	1.50	0.00	0.00	-0.184082	0.014648	0.960938	-7.700000	-13.790000	3.080000	979.00	-0.13	0.00
1.99	0.25	0.25	0.00	0.00	0.25	0.50	0.00	0.75	0.00	1.25	0.25	0.25	1.00	0.00	0.00	0.75	-0.845215	0.499023	2.098633	187.529999	-288.959991	148.119995	66.00	0.07	-0.21	12.75	7.00	7.50	6.75	7.25	5.50	4.75	3.75	8.25	2.25	1.75	0.50	2.75	2.50	0.00	0.00	-0.171387	0.011230	0.957031	-5.600000	-11.760000	3.500000	983.00	-0.11	-0.00
2.00	0.25	0.00	0.00	0.00	0.00	0.00	0.00	0.75	0.00	1.50	0.00	0.25	1.00	0.00	0.00	0.75	-0.981445	0.496582	2.206543	204.680008	-273.839996	157.500000	54.00	0.13	-0.21	11.75	6.25	7.25	6.25	7.50	5.50	5.00	4.50	8.50	2.75	2.25	1.25	3.50	2.75	0.25	0.00	-0.168457	0.024902	0.948730	-0.910000	-6.650000	3.780000	1013.00	-0.08	-0.01
2.01	0.00	0.50	0.25	0.00	0.00	0.50	0.00	1.00	0.00	0.75	0.00	0.50	0.50	0.00	0.00	0.75	-1.252441	0.460449	2.467285	228.550003	-261.869995	162.750000	59.00	0.03	-0.25	10.25	5.25	6.75	5.75	7.50	5.75	5.25	5.00	9.00	3.75	2.50	1.25	4.00	3.25	0.25	0.00	-0.168457	0.024902	0.948730	-0.910000	-6.650000	3.780000	1021.00	-0.06	-0.01
2.02	0.25	0.00	0.00	0.00	0.00	0.50	0.25	0.75	0.00	1.25	0.00	0.25	1.00	0.00	0.00	1.00	-1.590820	0.206543	2.788086	243.040009	-262.779999	163.940002	63.00	0.10	-0.20	8.75	4.00	6.25	5.25	7.25	5.75	5.25	5.25	9.25	4.50	3.25	1.50	4.75	4.00	0.50	0.25	-0.155273	0.024414	0.957520	0.700000	-3.920000	3.360000	1022.00	-0.03	-0.02
2.03	0.00	0.00	0.00	0.25	0.00	0.50	0.00	1.50	0.00	1.25	0.00	0.25	1.00	0.00	0.00	0.75	-1.938965	-0.115234	2.772461	217.699997	-279.720001	157.710007	71.00	0.08	-0.27	7.50	3.00	5.50	4.25	7.25	5.50	5.50	5.50	9.75	5.50	5.00	2.00	5.25	4.50	1.00	0.50	-0.116211	0.068359	0.956055	2.030000	-0.560000	2.450000	1045.00	0.01	-0.02
2.04	0.00	0.00	0.00	0.25	0.25	0.00	0.00	0.75	0.00	1.50	0.25	0.25	1.00	0.00	0.00	0.50	-2.308594	-0.392578	2.505371	159.110001	-302.260010	138.880005	59.00	0.12	-0.20	6.50	2.00	4.50	3.25	6.75	5.25	5.75	5.50	10.50	6.50	6.00	2.75	5.75	5.00	1.25	0.50	-0.205566	0.041992	0.950195	2.170000	6.510000	0.420000	1049.00	0.04	-0.02
2.05	0.00	0.00	0.00	0.00	0.00	0.25	0.00	0.75	0.00	1.25	0.25	0.00	0.75	0.00	0.00	0.75	-2.638184	-0.553711	2.092773	97.300003	-319.130005	102.269997	48.00	0.00	0.00	5.50	1.25	3.50	2.50	6.00	5.25	5.75	5.50	11.00	7.25	6.75	3.25	6.50	5.50	1.50	1.00	-0.170410	0.008789	0.963867	-0.700000	13.860000	-1.260000	1047.00	0.07	-0.02
2.06	0.00	0.25	0.00	0.00	0.00	0.25	0.00	1.00	0.00	1.25	0.00	0.25	1.00	0.00	0.00	0.50	-2.997559	-0.633789	1.649414	55.090000	-323.329987	52.500000	56.00	0.10	-0.25	5.00	1.00	2.75	2.00	5.50	5.00	6.00	5.50	11.75	7.75	7.50	3.50	6.75	6.75	2.25	1.25	-0.169922	-0.002441	1.032715	-1.050000	23.870001	-0.490000	1073.00	0.09	-0.02
2.07	0.25	0.00	0.00	0.00	0.00	0.25	0.00	0.75	0.00	1.25	0.00	0.00	0.75	0.00	0.00	0.50	-3.308594	-0.640625	1.225586	27.510000	-311.920013	0.770000	46.00	0.00	0.00	3.50	0.75	2.25	1.75	5.00	4.75	6.00	5.50	12.25	8.25	8.00	5.25	7.25	7.50	2.25	1.50	-0.139160	0.016602	1.074219	10.220000	48.369999	0.420000	1089.00	0.11	-0.02
2.08	0.00	0.00	0.00	0.00	0.25	0.25	0.00	0.75	0.00	1.50	0.25	0.00	1.25	0.00	0.00	0.50	-3.675781	-0.445801	0.838379	-2.660000	-286.089996	-40.180000	58.00	0.13	-0.21	2.00	0.25	2.00	1.25	4.50	4.50	6.00	5.50	13.00	8.50	8.75	5.75	7.50	8.00	3.00	1.75	-0.215820	0.032227	1.070801	19.460001	74.620003	1.890000	1094.00	0.14	-0.02
2.09	0.00	0.00	0.00	0.50	0.00	0.25	0.00	1.25	0.00	1.25	0.25	0.25	0.75	0.00	0.00	0.75	-4.093750	0.015137	0.482422	-35.490002	-249.759995	-62.720001	67.00	0.08	-0.25	2.00	0.25	1.25	1.25	4.00	4.00	6.00	5.25	13.75	9.00	9.00	6.50	8.00	8.50	3.50	2.25	-0.202637	0.002930	1.128906	27.510000	105.000000	3.640000	1117.00	0.15	-0.02
2.10	0.00	0.25	0.00	0.00	0.25	0.50	0.00	1.00	0.00	1.25	0.00	0.25	0.50	0.00	0.00	0.50	-4.570801	0.588379	0.274414	-50.189999	-206.850006	-63.070000	58.00	0.06	-0.22	1.25	0.25	1.00	0.50	3.50	3.50	6.00	5.25	14.00	9.50	9.50	6.75	8.25	9.00	4.00	2.00	-0.218750	0.036621	1.158203	34.230000	135.169998	4.900000	1113.00	0.17	-0.02
2.11	0.00	0.00	0.50	0.00	0.25	0.25	0.25	1.25	0.00	1.25	0.00	0.00	1.00	0.00	0.00	0.25	-5.237793	0.956543	-0.620605	-15.330000	-91.910004	4.620000	68.00	0.05	-0.18	0.50	0.00	1.00	0.75	3.00	3.00	5.75	5.00	14.25	9.50	10.00	7.25	8.25	10.00	4.75	2.50	-0.295898	0.035645	1.180176	37.170002	164.570007	4.970000	1121.00	0.18	-0.02
2.12	0.00	0.00	0.25	0.00	0.25	0.25	0.00	1.00	0.00	1.25	0.00	0.00	0.50	0.00	0.00	0.25	-5.135742	0.878418	-0.747070	-7.630000	-12.670000	58.099998	50.00	0.06	-0.19	0.25	0.00	1.25	0.75	2.75	2.50	5.75	4.75	15.00	9.75	10.25	7.50	8.25	10.75	5.00	3.00	-0.280762	0.076660	1.210449	39.830002	193.759995	4.410000	1142.00	0.19	-0.02
2.13	0.25	0.00	0.25	0.25	0.25	0.25	0.25	1.25	0.00	1.50	0.00	0.00	0.00	0.00	0.00	0.00	-5.994629	1.402832	-0.411133	-7.280000	65.029999	111.650002	62.00	0.01	-0.12	0.75	0.00	0.75	0.50	2.25	2.00	5.75	4.50	15.25	10.00	10.50	7.50	8.50	11.75	5.75	3.25	-0.342773	0.032715	1.216797	38.990002	221.270004	2.940000	1155.00	0.20	-0.01
2.14	2.75	2.75	1.50	2.75	0.25	1.25	0.00	0.75	0.00	1.00	0.00	0.00	0.25	0.00	0.00	0.50	1.447266	-0.026367	-3.870117	-12.460000	290.570007	200.270004	172.00	-0.24	-0.11	0.00	0.00	0.75	0.50	2.00	1.75	5.50	4.00	15.25	10.00	10.75	7.50	8.25	13.00	6.50	4.50	-0.360840	0.039551	1.236816	35.840000	249.059998	2.800000	1156.00	0.22	-0.01
2.15	8.75	8.50	3.25	5.00	0.25	1.50	0.00	1.00	0.00	1.00	0.00	0.00	0.50	0.00	0.00	0.25	0.381836	-0.890625	4.295410	-89.739998	352.940002	198.309998	371.00	-0.30	-0.08	0.00	0.00	0.75	0.25	1.75	1.25	5.50	3.75	15.25	10.00	10.75	7.25	8.00	14.00	7.00	5.00	-0.437012	-0.002441	1.321777	31.500000	274.610016	4.550000	1152.00	0.22	-0.00
2.16	17.00	15.75	5.75	8.25	0.25	3.25	0.00	1.50	0.00	0.75	0.00	0.25	0.25	0.00	0.00	0.25	0.337402	-2.294922	1.608887	-141.960007	302.260010	149.589996	659.00	-0.32	-0.07	0.00	0.00	0.25	0.00	1.50	0.75	5.75	3.25	15.25	9.75	10.50	7.00	7.75	15.00	7.25	5.75	-0.490234	0.009766	1.324707	20.580000	302.820007	7.980000	1134.00	0.24	0.00
2.17	22.00	20.00	8.00	9.50	0.25	4.75	0.00	1.75	0.00	1.00	0.00	0.00	1.00	0.00	0.00	0.00	0.270020	-3.364258	2.471191	-141.820007	364.910004	56.279999	844.00	-0.32	-0.07	0.00	0.00	0.00	0.00	1.25	0.00	5.75	2.75	15.00	9.75	10.25	6.75	7.25	16.00	7.75	6.25	-0.497070	0.015137	1.464355	10.150000	330.190002	11.830000	1113.00	0.25	0.01
2.18	23.25	20.25	9.00	10.00	0.50	5.00	0.00	1.25	0.00	1.00	0.25	0.25	1.00	0.00	0.00	0.25	-1.286133	-2.355957	4.150391	-59.920002	408.869995	-31.010000	888.00	-0.32	-0.06	0.00	0.00	0.00	0.00	1.25	0.00	6.00	2.25	14.75	9.50	9.75	6.00	7.00	16.75	8.00	6.75	-0.623047	0.011230	1.475098	-3.570000	359.380005	12.670000	1097.00	0.25	0.02
2.19	21.75	19.75	9.00	10.00	0.50	5.00	0.00	1.00	0.00	1.50	0.00	0.00	0.75	0.00	0.00	0.25	-1.683594	-0.526367	4.548340	59.639999	350.420013	-69.720001	857.00	-0.32	-0.06	0.00	0.00	0.00	0.00	1.00	0.00	6.00	2.00	14.25	9.00	9.00	5.50	6.50	17.75	8.00	7.00	-0.694336	0.219727	1.810059	-19.110001	393.119995	10.430000	1066.00	0.26	0.02
2.20	20.75	19.50	8.75	10.00	0.25	5.25	0.00	1.25	0.00	1.75	0.00	0.00	0.75	0.00	0.00	0.50	-0.766602	0.957520	2.711914	140.000000	243.600006	-54.250000	847.00	-0.31	-0.07	0.00	0.00	0.00	0.00	0.50	0.00	6.25	1.75	13.75	8.25	8.50	5.00	6.50	17.75	7.75	7.25	-1.182129	0.318848	2.477051	-53.130001	478.940002	-16.240000	1028.00	0.26	0.03
2.21	19.25	19.00	8.75	10.50	0.50	5.50	0.00	1.75	0.25	1.75	0.25	0.25	1.25	0.00	0.00	0.00	0.217773	1.178223	0.262207	143.990005	194.460007	-21.559999	858.00	-0.30	-0.08	0.00	0.00	0.00	0.00	0.50	0.00	6.25	1.50	13.00	7.75	7.75	4.75	6.25	17.00	7.50	7.25	-1.493652	0.053223	2.693359	-75.529999	526.539978	-36.330002	980.00	0.26	0.03
2.22	19.75	19.25	8.75	11.25	0.50	6.50	0.00	1.50	0.50	1.75	0.25	0.25	1.50	0.00	0.00	0.00	0.383301	0.875488	-0.726074	105.559998	217.979996	-3.010000	891.00	-0.30	-0.08	0.00	0.00	0.00	0.00	0.00	0.00	5.75	1.00	12.00	7.50	6.75	3.25	5.75	15.75	7.00	6.75	-1.662598	0.093750	3.516113	-103.110001	555.520020	-55.790001	877.00	0.27	0.04
2.23	20.25	20.00	9.50	12.50	0.75	8.75	0.00	3.25	0.25	2.00	0.50	0.25	1.75	0.00	0.00	0.00	-0.125977	0.445312	0.524902	54.110001	257.739990	-6.230000	1002.00	-0.28	-0.10	0.00	0.00	0.00	0.00	0.00	0.00	5.25	0.75	10.75	6.00	5.50	2.25	5.25	13.25	6.25	6.00	-1.645508	0.533203	4.053711	-138.460007	556.780029	-71.540001	753.00	0.27	0.04
2.24	21.50	20.50	10.75	13.75	1.00	11.25	0.25	5.75	0.25	2.00	0.75	0.50	3.00	0.00	0.00	0.25	-0.716797	0.253418	2.037109	12.110000	260.540009	-18.270000	1162.00	-0.26	-0.11	0.00	0.00	0.00	0.00	0.00	0.00	4.00	0.50	9.25	5.00	3.50	1.50	4.50	10.25	4.75	4.75	-1.248535	1.116699	4.208496	-124.529999	537.320007	-70.419998	591.00	0.27	0.05
2.25	21.75	20.50	11.00	14.00	1.25	12.00	0.25	6.00	0.50	2.00	0.75	0.50	3.50	0.00	0.00	0.25	-1.149902	1.082520	2.548828	-94.639999	157.080002	-25.549999	1199.00	-0.25	-0.11	0.00	0.00	0.00	0.00	0.00	0.00	2.25	0.25	7.75	2.75	1.25	0.75	2.50	7.50	2.25	1.75	-0.797852	1.201172	3.581543	-78.470001	534.729980	-68.599998	367.00	0.27	0.09
2.26	21.50	20.25	11.25	13.75	1.50	12.25	0.25	7.25	0.25	2.50	0.75	0.50	3.75	0.00	0.00	0.00	-0.518555	0.179199	1.529785	-90.510002	84.910004	-7.840000	1225.00	-0.25	-0.12	0.00	0.00	0.00	0.00	0.00	0.00	1.25	0.00	5.00	0.75	0.00	0.00	1.00	2.50	0.00	0.50	-0.220215	0.844238	2.445312	-4.970000	562.309998	-83.230003	149.00	0.25	0.18
2.27	21.75	20.00	11.75	14.00	1.50	12.75	0.25	8.00	0.50	2.25	0.50	0.25	4.00	0.00	0.00	0.25	-0.356934	0.487305	1.124512	-79.099998	59.430000	-11.480000	1254.00	-0.24	-0.12	0.25	0.00	0.00	0.00	0.00	0.00	0.50	0.00	2.50	0.50	0.25	0.25	0.25	1.00	0.00	0.25	-0.267578	0.366699	-0.297363	134.119995	651.349976	-131.460007	78.00	0.23	0.16
2.28	22.25	20.00	12.00	14.25	1.75	13.25	0.50	8.00	0.75	2.75	0.75	0.50	5.00	0.00	0.00	0.00	-0.322266	0.077637	1.297852	-83.160004	51.099998	-8.400000	1307.00	-0.23	-0.12	0.25	0.00	0.25	0.00	0.00	0.00	0.50	0.00	1.50	0.25	0.25	0.00	0.00	0.00	0.00	0.00	-0.858887	2.171875	9.062500	298.970001	542.710022	-178.220001	45.00	0.00	0.00
2.29	22.25	20.00	12.50	14.00	2.25	13.00	0.50	8.25	1.00	2.50	0.75	0.50	5.00	0.00	0.00	0.25	-0.264648	0.076660	1.145508	-75.320000	36.400002	-12.390000	1320.00	-0.23	-0.12	0.25	0.00	0.00	0.00	0.00	0.00	0.50	0.00	1.25	0.25	0.00	0.00	0.00	0.25	0.00	0.00	0.808105	0.595215	7.015137	340.619995	225.889999	-178.009995	37.00	0.00	0.00
2.30	22.50	19.75	12.50	14.00	2.25	13.00	0.50	8.25	0.75	2.50	0.75	0.50	4.50	0.00	0.00	0.25	-0.255859	0.104492	1.121582	-61.670002	28.490000	-11.130000	1312.00	-0.24	-0.12	0.00	0.00	0.25	0.00	0.25	0.00	0.25	0.00	1.00	0.25	0.00	0.00	0.00	0.00	0.00	0.00	1.252930	-0.094238	4.477051	94.080002	-71.260002	-141.750000	30.00	0.00	0.00
2.31	22.50	19.50	12.75	13.75	2.50	12.75	0.50	8.00	1.00	2.50	0.50	0.25	4.25	0.00	0.00	0.25	-0.221191	0.059082	1.048828	-49.279999	22.469999	-10.010000	1299.00	-0.24	-0.11	0.25	0.00	0.00	0.00	0.00	0.00	0.00	0.00	0.50	0.00	0.00	0.00	0.00	0.00	0.00	0.00	1.230957	0.592773	2.505859	-177.940002	-189.979996	-107.660004	11.00	0.00	0.00
2.32	22.50	19.25	12.50	13.75	2.75	12.50	0.50	7.75	1.00	2.50	0.75	0.25	2.75	0.00	0.00	0.00	-0.213867	0.125488	0.966797	-40.459999	18.900000	-10.150000	1275.00	-0.24	-0.11	0.00	0.00	0.75	0.00	0.00	0.00	0.00	0.00	0.75	0.00	0.00	0.00	0.00	0.00	0.00	0.00	1.602539	1.750977	1.338379	-230.300003	-190.119995	-85.470001	22.00	0.00	0.00
2.33	22.25	19.00	12.50	13.25	2.50	12.00	0.50	7.50	1.00	2.50	0.75	0.25	3.00	0.00	0.00	0.00	-0.217285	0.078613	1.042969	-34.020000	17.850000	-10.220000	1251.00	-0.24	-0.10	0.00	0.00	0.25	0.00	0.25	0.00	0.00	0.00	0.50	0.00	0.00	0.00	0.00	0.00	0.00	0.00	1.476074	2.056641	1.377930	-54.459999	-186.550003	-68.599998	14.00	0.00	0.00
2.34	22.00	18.50	12.50	12.75	2.50	11.50	0.50	6.50	0.50	2.50	0.50	0.50	2.50	0.00	0.00	0.00	-0.224121	0.070801	0.989258	-27.090000	16.100000	-10.920000	1198.00	-0.25	-0.10	0.25	0.00	0.50	0.25	0.25	0.00	0.00	0.00	0.00	0.00	0.00	0.00	0.00	0.00	0.00	0.00	1.318848	1.258301	1.631348	136.710007	-209.509995	-58.869999	16.00	0.00	0.00
2.35	21.75	18.00	12.00	12.50	2.50	10.75	0.50	5.75	0.75	2.50	0.50	0.00	1.75	0.00	0.00	0.00	-0.217773	0.076660	0.957031	-21.629999	15.470000	-11.060000	1146.00	-0.26	-0.09	0.00	0.00	0.00	0.00	0.25	0.00	0.00	0.00	0.25	0.00	0.00	0.00	0.00	0.00	0.00	0.00	1.216309	0.602051	2.168457	158.059998	-296.380005	-19.180000	7.00	0.00	0.00
2.36	21.50	17.75	12.00	12.00	2.50	9.75	0.50	5.25	0.50	2.50	0.50	0.00	1.25	0.00	0.00	0.00	-0.189453	0.071289	0.962891	-20.299999	16.799999	-12.180000	1102.00	-0.26	-0.09	0.50	0.00	0.25	0.00	0.25	0.00	0.00	0.00	0.25	0.00	0.00	0.00	0.00	0.00	0.00	0.00	1.167480	0.677246	2.277344	104.440002	-348.250000	17.150000	17.00	0.00	0.00
2.37	20.50	17.00	11.75	11.50	2.50	9.00	0.50	5.00	1.00	2.25	0.50	0.00	1.50	0.00	0.00	0.00	-0.159668	0.078613	0.932617	-21.280001	19.180000	-14.420000	1065.00	-0.26	-0.08	0.25	0.00	0.00	0.00	0.25	0.00	0.00	0.00	0.00	0.00	0.00	0.00	0.00	0.00	0.00	0.00	1.031250	0.690918	2.285645	85.050003	-401.450012	50.259998	6.00	0.00	0.00
2.38	20.00	16.50	11.25	10.75	2.25	8.25	0.50	3.50	1.00	2.25	0.25	0.25	0.50	0.00	0.00	0.00	-0.195312	0.098633	0.946289	-22.330000	20.510000	-14.840000	986.00	-0.27	-0.07	0.00	0.00	0.50	0.00	0.00	0.00	0.00	0.00	0.00	0.00	0.00	0.00	0.00	0.00	0.00	0.00	0.777344	0.553223	2.135254	103.669998	-451.429993	72.309998	7.00	0.00	0.00
2.39	19.25	15.75	11.25	10.00	2.00	7.75	0.50	3.25	1.00	2.50	0.25	0.25	0.75	0.00	0.00	0.00	-0.160156	0.081055	0.890625	-22.120001	21.840000	-14.000000	950.00	-0.26	-0.07	0.00	0.00	0.00	0.00	0.00	0.00	0.00	0.00	0.00	0.00	0.00	0.00	0.00	0.00	0.00	0.00	0.435059	0.353027	1.895996	138.460007	-487.899994	83.090004	0.00	0.00	0.00
2.40	18.50	14.75	10.50	9.50	2.00	7.00	0.50	2.75	1.00	2.25	0.25	0.00	0.50	0.00	0.00	0.25	-0.113770	0.082520	0.801758	-26.180000	27.930000	-14.000000	887.00	-0.27	-0.06	0.00	0.00	0.00	0.00	0.00	0.00	0.00	0.00	0.00	0.00	0.00	0.00	0.00	0.00	0.00	0.00	0.079102	0.166016	1.654785	169.259995	-504.209991	86.940002	0.00	0.00	0.00
2.41	17.50	13.25	10.25	9.00	2.00	6.25	0.75	2.25	1.25	2.75	0.75	0.00	0.25	0.00	0.00	0.00	-0.146973	0.173828	0.905762	-33.389999	39.549999	-13.020000	846.00	-0.26	-0.05	0.25	0.00	0.25	0.00	0.25	0.00	0.00	0.00	0.00	0.00	0.00	0.00	0.00	0.00	0.00	0.00	-0.207520	-0.007324	1.472656	191.029999	-500.640015	88.269997	10.00	0.00	0.00
2.42	16.25	12.00	9.75	8.25	1.75	5.75	0.75	2.50	1.75	3.25	0.50	0.00	0.25	0.25	0.00	0.00	-0.242188	0.062988	1.061035	-30.660000	30.100000	-7.280000	808.00	-0.24	-0.05	0.00	0.00	0.00	0.00	0.00	0.00	0.00	0.00	0.00	0.00	0.00	0.00	0.00	0.00	0.00	0.00	-0.428223	-0.175781	1.418945	205.729996	-483.630005	90.230003	0.00	0.00	0.00
2.43	15.25	10.25	9.00	7.75	1.75	5.25	0.75	2.75	1.25	3.25	0.75	0.25	0.50	0.25	0.00	0.00	-0.242188	0.070312	0.981934	-21.000000	18.900000	-5.390000	759.00	-0.23	-0.05	0.00	0.00	0.00	0.00	0.00	0.00	0.00	0.00	0.00	0.00	0.00	0.00	0.00	0.00	0.00	0.00	-0.573242	-0.341797	1.535645	214.059998	-460.809998	92.889999	0.00	0.00	0.00
2.44	14.00	9.25	8.50	7.25	1.75	5.00	0.75	2.00	2.00	3.50	0.75	0.25	1.50	0.25	0.00	0.00	-0.231934	0.055176	0.939453	-14.560000	12.670000	-3.920000	727.00	-0.22	-0.05	0.00	0.00	0.00	0.00	0.00	0.00	0.00	0.00	0.00	0.00	0.00	0.00	0.00	0.00	0.00	0.00	-0.627441	-0.498535	1.757812	216.020004	-441.489990	94.150002	0.00	0.00	0.00
2.45	12.50	8.50	8.25	6.50	1.75	4.50	1.00	1.75	2.75	3.75	1.00	0.25	1.00	0.25	0.00	0.00	-0.197266	0.076660	0.923828	-12.670000	9.590000	-3.640000	694.00	-0.20	-0.03	0.00	0.00	0.00	0.00	0.00	0.00	0.00	0.00	0.00	0.00	0.00	0.00	0.00	0.00	0.00	0.00	-0.657715	-0.677734	1.982422	215.110001	-430.640015	90.440002	0.00	0.00	0.00
2.46	11.50	7.75	8.00	6.25	1.75	3.50	1.00	1.75	2.75	4.25	0.75	0.25	1.50	1.00	0.00	0.25	-0.233398	0.061035	0.945801	-12.810000	6.440000	-4.060000	671.00	-0.18	-0.03	0.00	0.00	0.00	0.00	0.25	0.00	0.00	0.00	0.00	0.00	0.00	0.00	0.00	0.00	0.00	0.00	-0.680664	-0.834961	2.175293	210.279999	-423.989990	79.169998	3.00	0.00	0.00
2.47	10.50	7.00	7.75	5.75	1.50	3.75	1.00	2.25	3.25	4.25	0.75	0.00	1.75	1.50	0.00	0.00	-0.236328	0.061523	0.940430	-12.390000	3.010000	-4.130000	660.00	-0.16	-0.03	0.00	0.00	0.00	0.00	0.00	0.00	0.00	0.00	0.00	0.00	0.00	0.00	0.00	0.00	0.00	0.00	-0.723633	-0.902344	2.273926	188.509995	-420.279999	63.279999	0.00	0.00	0.00
2.48	9.50	6.50	7.50	5.75	1.75	3.25	1.25	2.00	3.75	5.00	1.25	0.25	2.25	1.75	0.00	0.25	-0.248047	0.032715	0.965332	-11.830000	0.070000	-3.640000	671.00	-0.13	-0.03	0.00	0.00	0.00	0.00	0.25	0.00	0.00	0.00	0.00	0.00	0.00	0.00	0.00	0.00	0.00	0.00	-0.739258	-0.851562	2.290039	154.070007	-419.579987	48.509998	3.00	0.00	0.00
2.49	8.50	5.75	7.25	5.25	1.75	3.75	1.50	2.25	4.50	5.50	1.25	0.50	2.50	2.25	0.00	0.00	-0.240723	0.032227	0.933105	-10.780000	-1.890000	-2.310000	683.00	-0.10	-0.02	0.00	0.00	0.00	0.00	0.25	0.00	0.00	0.00	0.00	0.00	0.00	0.00	0.00	0.00	0.00	0.00	-0.737793	-0.516602	2.261230	120.330002	-411.529999	31.570000	3.00	0.00	0.00
2.50	7.75	5.50	6.75	5.25	1.75	3.00	1.75	2.50	5.25	6.25	1.50	0.75	2.75	2.75	0.25	0.00	-0.228027	0.068359	0.928223	-11.270000	-3.080000	-1.680000	702.00	-0.07	-0.02	0.00	0.00	0.00	0.00	0.00	0.00	0.00	0.00	0.00	0.00	0.00	0.00	0.00	0.00	0.00	0.00	-0.746582	-0.436523	2.375977	125.370003	-400.470001	30.520000	0.00	0.00	0.00
2.51	7.50	5.25	6.25	5.00	1.75	3.75	2.00	3.25	6.00	7.25	2.00	1.00	3.75	3.50	0.75	0.50	-0.228027	0.058105	0.932129	-11.410000	-5.530000	-2.520000	775.00	-0.04	-0.03	0.00	0.00	0.00	0.00	0.00	0.00	0.00	0.00	0.00	0.00	0.00	0.00	0.00	0.00	0.00	0.00	-0.869141	-0.373535	2.571777	124.459999	-386.610016	33.529999	0.00	0.00	0.00
2.52	7.00	4.75	6.50	5.00	1.75	4.00	2.50	3.75	7.00	7.50	2.25	1.00	4.75	4.25	0.25	0.50	-0.238281	0.051270	0.919922	-11.200000	-7.700000	-3.500000	821.00	-0.02	-0.03	0.00	0.00	0.00	0.00	0.25	0.00	0.00	0.00	0.00	0.00	0.00	0.00	0.00	0.00	0.00	0.00	-1.035645	-0.270020	2.844238	119.349998	-373.380005	39.480000	3.00	0.00	0.00
2.53	6.75	4.00	5.75	4.75	2.00	3.75	2.75	4.75	7.50	8.00	3.00	1.75	5.50	5.00	0.50	0.75	-0.215332	0.025879	0.915527	-10.570000	-9.380000	-3.990000	872.00	0.00	-0.03	0.00	0.00	0.00	0.00	0.25	0.00	0.00	0.00	0.00	0.00	0.00	0.00	0.00	0.00	0.00	0.00	-1.309570	-0.149902	3.161133	116.690002	-366.799988	47.950001	3.00	0.00	0.00
2.54	6.00	3.75	6.00	4.75	2.00	4.75	3.25	5.00	8.25	8.50	5.00	2.25	6.75	5.75	1.25	1.00	-0.220215	0.044434	0.929199	-9.660000	-10.290000	-4.060000	971.00	0.03	-0.04	0.00	0.00	0.00	0.00	0.25	0.00	0.00	0.00	0.00	0.00	0.00	0.00	0.00	0.00	0.00	0.00	-1.743652	-0.135254	3.353027	113.050003	-369.040009	60.130001	3.00	0.00	0.00
2.55	5.75	3.25	5.75	4.50	2.25	5.00	3.50	5.25	9.00	9.25	6.00	2.75	7.50	7.00	2.00	1.50	-0.220215	0.051270	0.944336	-8.400000	-10.010000	-4.900000	1044.00	0.05	-0.04	0.25	0.00	0.00	0.00	0.25	0.00	0.00	0.00	0.00	0.00	0.00	0.00	0.00	0.00	0.00	0.00	-2.267090	-0.109863	3.306641	94.709999	-376.459991	77.070000	6.00	0.00	0.00
2.56	5.00	3.25	5.50	3.75	2.50	5.00	4.00	5.75	9.50	9.75	7.25	4.00	9.00	8.50	2.75	2.00	-0.217773	0.067871	0.958008	-6.440000	-7.420000	-5.530000	1132.00	0.08	-0.05	0.00	0.00	0.00	0.00	0.25	0.00	0.00	0.00	0.00	0.00	0.00	0.00	0.00	0.00	0.00	0.00	-2.773438	0.005371	3.050781	63.560001	-381.360016	97.650002	3.00	0.00	0.00
2.57	4.50	2.25	5.25	3.75	2.50	5.00	4.50	6.25	10.50	10.50	8.00	5.25	10.75	9.50	3.25	2.50	-0.228516	0.040039	0.959961	-2.660000	4.760000	-5.460000	1217.00	0.10	-0.05	0.00	0.00	0.00	0.00	0.25	0.00	0.00	0.00	0.00	0.00	0.00	0.00	0.00	0.00	0.00	0.00	-3.372559	0.152832	2.641602	37.029999	-377.230011	120.260002	3.00	0.00	0.00
2.58	4.00	2.50	5.00	3.50	2.50	5.00	5.00	7.00	11.25	11.25	8.50	6.75	11.75	10.50	4.00	2.75	-0.237305	0.042969	0.981934	-1.190000	12.810000	-4.760000	1307.00	0.11	-0.06	0.00	0.00	0.00	0.00	0.00	0.00	0.00	0.00	0.00	0.00	0.00	0.00	0.00	0.00	0.00	0.00	-4.041016	0.297363	1.943359	18.410000	-360.920013	136.500000	0.00	0.00	0.00
2.59	3.00	2.00	4.25	2.75	2.50	5.00	5.00	7.50	12.00	12.00	9.25	7.50	13.25	11.75	5.00	3.75	-0.247559	0.034668	1.001465	0.560000	21.559999	-4.620000	1365.00	0.13	-0.06	0.00	0.00	0.00	0.00	0.00	0.00	0.00	0.00	0.00	0.00	0.00	0.00	0.00	0.00	0.00	0.00	-4.730469	0.407227	1.088867	15.400000	-326.549988	139.509995	0.00	0.00	0.00
2.60	2.25	1.50	2.75	2.50	2.25	4.25	5.25	7.75	12.75	12.50	10.00	8.00	14.25	13.00	5.50	4.75	-0.219727	0.019531	1.030762	2.310000	31.570000	-3.710000	1392.00	0.15	-0.06	0.00	0.00	0.00	0.00	0.25	0.00	0.00	0.00	0.00	0.00	0.00	0.00	0.00	0.00	0.00	0.00	-5.416504	0.301758	0.187500	44.170002	-272.230011	128.940002	3.00	0.00	0.00
2.61	2.25	1.50	2.50	2.00	2.00	5.00	5.25	8.25	13.00	13.25	10.50	8.50	15.25	14.25	6.25	5.25	-0.257324	-0.030273	1.174805	8.400000	50.959999	-0.420000	1459.00	0.16	-0.07	0.00	0.00	0.00	0.00	0.25	0.00	0.00	0.00	0.00	0.00	0.00	0.00	0.00	0.00	0.00	0.00	-6.098633	-0.126953	-0.430176	101.779999	-199.639999	107.099998	3.00	0.00	0.00
2.62	2.00	1.50	2.25	1.25	1.75	5.00	5.25	8.00	13.50	13.50	11.25	9.00	16.25	15.25	7.25	5.75	-0.263184	0.048828	1.074707	16.660000	76.160004	-0.140000	1498.00	0.17	-0.07	0.00	0.00	0.00	0.00	0.25	0.00	0.00	0.00	0.00	0.00	0.00	0.00	0.00	0.00	0.00	0.00	-6.830078	-0.887695	-0.644531	150.570007	-115.919998	78.540001	3.00	0.00	0.00
2.63	1.50	1.25	2.00	1.75	1.75	4.25	5.25	8.00	14.25	14.00	11.75	9.25	16.75	16.50	7.75	7.00	-0.259277	0.052734	1.128418	21.980000	107.520004	-1.330000	1542.00	0.18	-0.07	0.00	0.00	0.00	0.00	0.00	0.00	0.00	0.00	0.00	0.00	0.00	0.00	0.00	0.00	0.00	0.00	-6.814453	-1.623535	-0.762695	49.980000	57.680000	22.469999	0.00	0.00	0.00
2.64	1.25	1.00	1.50	1.25	1.50	3.50	5.25	7.75	14.00	14.50	12.25	9.75	17.50	17.25	8.25	7.75	-0.255371	0.091309	1.178711	27.790001	150.500000	-1.190000	1547.00	0.19	-0.07	0.00	0.00	0.50	0.00	0.25	0.00	0.00	0.00	0.00	0.00	0.00	0.00	0.00	0.00	0.00	0.00	-4.429688	-0.307129	-0.072266	-37.029999	136.919998	0.840000	10.00	0.00	0.00
2.65	1.00	1.00	1.25	1.00	1.25	2.75	5.00	7.50	15.00	14.75	12.50	9.75	17.25	18.00	8.75	8.25	-0.326660	0.089844	1.264160	26.389999	202.580002	-2.940000	1551.00	0.20	-0.06	2.50	0.75	1.25	0.75	0.50	0.00	0.00	0.00	0.00	0.00	0.00	0.00	0.00	0.00	0.00	0.00	4.940430	-0.263672	-1.801270	-138.460007	307.299988	19.809999	72.00	-0.33	0.02
2.66	0.75	1.00	1.00	0.75	1.00	2.75	5.00	6.75	15.00	15.25	12.75	9.75	17.00	18.50	8.75	8.50	-0.377441	0.121582	1.348633	18.969999	254.940002	-6.370000	1538.00	0.21	-0.06	6.50	4.00	2.25	2.25	0.25	0.00	0.00	0.00	0.00	0.00	0.00	0.00	0.00	0.00	0.00	0.00	1.549316	-0.763672	1.526855	-234.290009	312.970001	4.060000	187.00	-0.36	-0.01
2.67	1.00	0.75	1.00	0.25	0.75	1.50	4.75	5.50	15.00	15.50	13.00	9.75	16.50	19.00	9.25	9.00	-0.384766	0.100586	1.403809	4.550000	304.360016	-10.990000	1501.00	0.22	-0.05	12.00	9.50	3.25	3.75	0.25	0.75	0.00	0.00	0.00	0.00	0.00	0.00	0.00	0.00	0.00	0.00	-0.497070	-0.538574	0.515625	-361.480011	408.799988	-35.349998	359.00	-0.37	-0.03
2.68	1.00	0.75	0.50	0.50	0.75	1.75	4.75	5.75	15.00	15.50	12.75	9.50	15.25	19.25	9.25	9.25	-0.435547	0.114746	1.462891	-12.390000	349.510010	-16.520000	1490.00	0.22	-0.05	16.00	13.00	4.25	5.00	0.50	0.75	0.00	0.00	0.00	0.00	0.00	0.00	0.00	0.00	0.00	0.00	-1.409180	-0.865723	2.731445	-350.630005	501.200012	-24.360001	480.00	-0.37	-0.03
2.69	0.75	0.25	0.25	0.75	0.50	1.00	4.75	5.00	14.75	15.50	12.50	9.00	14.50	19.50	9.25	9.75	-0.468262	0.157227	1.448730	-25.969999	393.750000	-23.170000	1440.00	0.23	-0.04	18.75	15.50	5.00	6.25	0.25	1.00	0.00	0.25	0.00	0.00	0.00	0.00	0.00	0.00	0.00	0.00	-1.790527	-1.927246	3.318359	-209.300003	493.640015	14.560000	573.00	-0.36	-0.04
2.70	0.50	0.50	0.00	0.00	0.25	0.25	5.00	5.00	14.50	15.25	12.25	8.75	13.25	19.50	9.00	9.75	-0.558594	0.131348	1.538086	-43.680000	438.480011	-31.430000	1388.00	0.24	-0.03	20.00	16.50	5.75	7.00	0.50	1.50	0.00	0.25	0.00	0.00	0.00	0.00	0.00	0.00	0.00	0.00	-1.399902	-1.960449	3.424805	-100.029999	452.760010	2.380000	629.00	-0.36	-0.04
2.71	0.00	0.50	0.00	0.00	0.25	0.25	5.00	4.00	13.75	14.75	11.75	8.25	12.00	19.25	9.00	9.75	-0.900879	-0.017090	1.965332	-75.320000	514.359985	-43.820000	1318.00	0.25	-0.03	19.50	16.75	6.25	8.00	1.00	2.50	0.00	0.25	0.00	0.00	0.00	0.00	0.00	0.00	0.00	0.00	-1.218750	0.085449	2.775391	-44.240002	418.670013	-38.709999	665.00	-0.35	-0.05
2.72	0.00	0.25	0.00	0.00	0.25	0.00	5.00	2.25	12.50	13.75	10.75	8.00	11.50	18.75	8.75	9.75	-1.276855	0.000488	2.257812	-88.760002	544.390015	-42.630001	1219.00	0.26	-0.02	18.75	15.75	7.00	9.00	1.50	5.00	0.00	1.25	0.00	0.00	0.00	0.00	0.75	0.00	0.00	0.00	-1.317871	3.303711	3.197754	-43.610001	383.110016	-32.130001	733.00	-0.32	-0.07
2.73	0.00	0.00	0.00	0.00	0.25	0.50	4.75	2.50	11.25	12.50	9.50	7.25	10.75	18.00	8.25	9.00	-2.055664	0.013184	3.246582	-101.080002	555.520020	-40.880001	1136.00	0.26	-0.02	18.25	14.75	7.50	9.00	2.25	6.00	0.50	1.75	1.50	0.25	0.00	0.00	1.00	0.00	0.00	0.00	-2.141113	-0.296387	3.949707	-150.710007	176.259995	2.800000	792.00	-0.29	-0.06
2.74	0.25	0.25	0.00	0.00	0.00	0.25	4.25	2.00	9.75	11.00	8.50	6.25	9.75	16.50	7.50	8.75	-2.458008	0.127930	3.421875	-113.680000	554.470032	-47.389999	1014.00	0.26	-0.02	17.75	14.50	7.50	9.00	2.50	6.50	0.75	2.75	3.00	0.25	0.50	0.00	1.75	0.50	0.00	0.00	-0.389160	-0.751465	1.440918	-88.059998	1.540000	0.280000	858.00	-0.25	-0.06
2.75	0.00	0.00	0.00	0.00	0.25	0.00	3.25	1.00	8.50	9.75	7.50	5.00	8.50	15.00	6.50	7.75	-2.266602	0.489258	4.531738	-123.760002	540.330017	-62.020000	861.00	0.27	-0.02	16.50	13.50	7.50	9.00	2.75	7.00	1.00	3.50	3.75	0.75	0.50	0.50	2.25	0.75	0.00	0.00	-0.162598	0.338379	0.973633	-41.930000	-34.509998	6.930000	892.00	-0.22	-0.07
2.76	0.00	0.00	0.00	0.00	0.00	0.75	2.00	0.75	7.00	8.50	5.25	3.00	7.75	12.25	5.25	7.00	-1.501465	0.951172	5.054199	-115.709999	500.220001	-65.169998	692.00	0.27	-0.02	16.00	12.75	7.50	8.75	3.00	7.50	1.50	4.25	4.25	1.00	0.75	0.00	2.75	1.50	0.00	0.00	-0.266602	0.032227	0.997559	-30.520000	-27.650000	5.040000	927.00	-0.20	-0.06
2.77	0.00	0.00	0.00	0.00	0.00	1.00	1.25	1.00	5.75	7.25	2.75	1.75	5.50	9.25	3.75	5.00	-0.021484	0.711426	4.264160	-114.449997	463.959991	-59.709999	520.00	0.26	-0.02	15.75	12.25	8.00	8.75	3.50	7.50	1.75	4.75	5.25	1.50	0.50	0.50	3.00	1.75	0.00	0.00	-0.208496	0.047852	0.951660	-24.010000	-27.440001	0.980000	975.00	-0.18	-0.06
2.78	0.25	0.25	0.00	0.25	0.00	0.75	0.75	1.00	4.00	5.50	1.50	1.00	3.50	5.00	0.75	1.50	0.994629	0.858398	3.104004	-88.970001	463.890015	-52.779999	319.00	0.22	-0.01	15.00	11.50	7.75	8.50	4.50	7.25	2.50	4.75	6.75	1.50	0.75	0.50	3.25	2.75	0.00	0.00	-0.147949	0.011230	0.960449	-19.110001	-18.969999	-4.200000	1014.00	-0.15	-0.04
2.79	0.50	0.25	0.50	0.75	0.00	0.25	0.75	0.00	2.75	5.00	1.25	0.75	3.00	1.25	0.25	1.25	1.575195	0.109375	1.658203	-54.110001	503.860016	-79.519997	227.00	0.17	-0.01	15.00	11.00	8.00	8.25	5.00	7.00	3.00	4.50	7.50	1.75	1.00	0.50	3.25	2.75	0.00	0.25	-0.188477	-0.019531	0.993652	-17.010000	-13.370000	-2.450000	1036.00	-0.14	-0.03
2.80	0.75	0.25	0.75	0.50	0.00	0.75	0.50	0.75	2.75	4.75	1.25	0.75	2.50	1.00	0.50	1.00	1.174805	2.213379	10.720703	72.730003	376.110016	-91.209999	237.00	0.14	-0.03	14.50	9.75	7.75	8.00	5.75	7.00	3.50	4.50	7.75	2.00	1.00	0.50	3.00	3.25	0.00	0.25	-0.154297	0.009277	0.982422	-13.230000	-7.630000	0.210000	1037.00	-0.13	-0.03
2.81	0.25	0.50	0.25	0.25	0.00	1.00	0.50	0.50	2.75	4.50	1.00	0.75	2.50	1.25	0.50	1.00	2.836426	0.527344	6.007812	135.029999	41.020000	-64.470001	218.00	0.17	-0.03	13.50	9.50	7.75	7.50	5.75	6.75	4.00	4.50	8.00	1.75	1.00	0.50	3.00	3.25	0.00	0.25	-0.151367	0.020020	0.969727	-10.990000	-3.080000	1.470000	1022.00	-0.12	-0.02
2.82	0.25	0.25	0.50	0.25	0.00	1.00	0.50	1.00	1.75	4.50	1.25	0.75	1.75	0.75	0.00	1.00	1.802734	0.273438	3.397949	24.080000	-194.180008	-34.020000	196.00	0.14	-0.06	12.50	8.25	7.50	7.00	5.75	6.25	4.25	4.00	8.25	2.50	1.00	0.50	3.00	3.75	0.00	0.25	-0.148438	0.019531	0.976562	-8.820000	-0.350000	1.820000	993.00	-0.10	-0.01
2.83	0.25	0.25	0.00	0.50	0.00	0.25	0.25	0.75	1.50	3.75	1.00	0.75	1.75	0.75	0.00	1.00	1.696289	0.912109	1.604492	-53.130001	-237.160004	-23.590000	158.00	0.16	-0.07	11.50	7.00	7.25	6.75	5.50	6.00	4.50	4.00	8.50	2.50	1.25	0.50	3.00	3.50	0.00	0.00	-0.159180	0.011230	0.981445	-6.930000	1.820000	1.890000	961.00	-0.09	-0.01
2.84	0.00	0.50	0.25	0.00	0.25	1.00	0.25	0.25	1.50	3.50	1.00	0.50	1.75	0.25	0.00	0.75	1.609863	1.122559	1.563965	9.520000	-223.020004	-22.260000	145.00	0.15	-0.06	10.25	6.00	6.75	6.00	5.50	5.50	4.75	3.50	8.50	2.75	1.00	0.25	3.00	3.50	0.00	0.25	-0.159180	-0.001465	0.957520	-4.760000	3.290000	3.010000	905.00	-0.08	0.00
2.85	0.25	0.50	0.50	0.25	0.00	0.50	0.25	0.25	0.75	3.50	0.75	0.25	1.75	0.50	0.00	0.75	1.600098	0.773926	2.166016	114.590004	-234.500000	-29.400000	130.00	0.12	-0.06	9.00	5.50	6.25	5.50	5.00	5.25	4.75	3.50	8.75	3.00	1.25	0.50	3.00	3.50	0.00	0.25	-0.148926	0.020996	0.937988	-2.940000	3.780000	3.850000	875.00	-0.06	0.00
2.86	0.00	0.50	0.00	0.00	0.00	0.50	0.25	0.00	1.00	3.50	0.75	0.25	2.00	0.25	0.00	0.75	1.573730	0.354980	2.446289	173.180008	-279.929993	-35.700001	116.00	0.18	-0.06	8.25	4.50	5.75	5.25	5.00	5.00	4.75	3.50	8.75	3.25	1.50	0.75	3.00	4.00	0.00	0.00	-0.154297	0.025879	0.958984	-1.680000	3.290000	3.920000	854.00	-0.05	0.01
2.87	0.00	0.25	0.00	0.00	0.00	0.00	0.25	0.50	1.00	3.00	0.75	0.50	1.50	0.00	0.00	1.25	1.046875	0.088379	2.065430	116.199997	-381.010010	-22.190001	108.00	0.19	-0.08	7.50	3.75	5.75	4.50	5.00	4.50	5.00	3.50	8.75	3.50	1.75	0.50	3.25	3.75	0.25	0.25	-0.158203	0.041992	0.950195	-0.630000	2.660000	3.290000	832.00	-0.03	0.01
2.88	0.00	0.25	0.25	0.00	0.00	0.00	0.25	1.50	0.50	2.75	0.50	0.25	1.25	0.00	0.25	1.00	0.776855	0.135254	1.821289	68.110001	-408.730011	-8.400000	112.00	0.14	-0.14	7.50	2.50	5.25	3.75	4.50	4.25	5.00	3.25	9.00	3.75	1.75	0.75	2.75	4.00	0.00	0.25	-0.151367	0.044434	0.950195	-0.350000	1.750000	1.960000	792.00	-0.02	0.02
2.89	0.25	0.25	0.00	0.00	0.00	1.00	0.25	0.25	0.50	2.50	0.75	0.50	0.75	0.00	0.00	0.75	0.514648	0.191406	1.655762	41.299999	-422.869995	2.100000	95.00	0.13	-0.09	6.25	2.00	4.75	2.75	4.25	3.75	5.00	3.25	9.00	3.75	1.75	1.00	3.00	4.25	0.00	0.25	-0.163574	0.040039	0.953125	-0.490000	1.190000	0.560000	750.00	0.00	0.03
2.90	0.25	0.25	0.00	0.25	0.00	0.00	0.25	0.50	0.50	2.50	0.50	0.25	1.00	0.00	0.00	0.50	0.269531	0.187500	1.586914	38.990002	-427.839996	7.420000	85.00	0.13	-0.08	5.50	1.75	4.50	2.75	4.25	3.75	5.00	3.50	9.25	4.50	2.00	0.75	3.25	4.25	0.00	0.25	-0.168457	0.034180	0.950195	-0.280000	0.420000	-0.070000	755.00	0.02	0.02
2.91	0.25	0.25	0.25	0.25	0.00	0.50	0.25	0.00	0.50	2.50	0.75	0.25	1.00	0.00	0.00	0.50	0.052734	0.163086	1.544434	49.420002	-426.510010	9.030000	88.00	0.12	-0.06	5.25	1.25	3.75	2.25	4.25	3.75	4.75	3.50	9.25	4.75	2.25	1.00	3.25	4.50	0.00	0.25	-0.166992	0.006836	0.940430	0.980000	-1.120000	0.420000	737.00	0.03	0.02
2.92	0.00	0.50	0.00	0.00	0.00	0.00	0.25	0.25	0.25	2.50	0.50	0.50	1.00	0.00	0.00	0.50	-0.133789	0.144531	1.562012	58.310001	-421.329987	9.240000	76.00	0.16	-0.09	3.25	0.50	3.50	1.75	4.00	3.75	4.75	3.50	9.00	4.75	2.50	1.00	3.50	4.75	0.00	0.25	-0.162598	0.022949	0.962891	4.200000	-3.710000	3.220000	695.00	0.06	0.02
2.93	0.00	0.25	0.00	0.00	0.00	0.50	0.25	0.75	0.25	2.00	0.50	0.25	0.50	0.00	0.00	0.75	-0.295898	0.174316	1.622559	59.639999	-413.559998	10.360000	76.00	0.13	-0.12	3.25	0.50	2.50	1.75	3.75	3.50	4.50	3.50	9.25	5.00	2.75	1.00	3.50	5.00	0.00	0.25	-0.162598	0.022949	0.962891	4.200000	-3.710000	3.220000	683.00	0.07	0.02
2.94	0.50	0.00	0.25	0.25	0.25	0.25	0.25	0.00	0.25	2.25	0.50	0.25	0.50	0.00	0.00	0.50	-0.434570	0.241699	1.714355	56.700001	-405.230011	14.840000	73.00	0.09	-0.02	2.75	0.25	2.00	1.25	3.50	3.75	4.25	4.25	9.25	5.00	2.50	1.50	4.00	4.50	0.25	0.25	-0.169922	0.031250	0.963379	4.830000	-0.770000	3.290000	677.00	0.08	0.00
2.95	0.50	0.25	0.25	0.50	0.00	0.25	0.25	0.50	0.25	2.00	0.50	0.00	1.25	0.00	0.00	0.50	-0.580566	0.321289	1.817871	56.630001	-397.670013	23.520000	87.00	0.06	-0.11	2.00	0.50	2.25	1.25	3.25	3.75	4.00	4.00	9.00	5.00	2.75	1.25	4.25	4.50	0.50	0.25	-0.152344	0.037109	0.963867	4.760000	1.960000	3.010000	663.00	0.09	-0.00
2.96	0.25	0.50	0.25	0.00	0.00	0.75	0.25	0.25	0.25	2.00	0.25	0.00	0.75	0.00	0.00	0.50	-0.697754	0.371094	1.926758	63.700001	-391.720001	34.299999	74.00	0.06	-0.08	1.50	0.25	2.00	1.25	3.00	3.75	4.00	4.25	9.00	5.25	2.75	1.25	4.25	5.00	0.25	0.25	-0.154297	0.030762	0.968262	6.230000	6.580000	2.590000	657.00	0.10	-0.00
2.97	0.00	0.25	0.25	0.25	0.00	0.00	0.25	0.25	0.00	2.25	0.50	0.25	0.75	0.00	0.00	0.50	-0.744141	0.467285	2.077637	71.120003	-386.399994	44.170002	67.00	0.13	-0.09	1.00	0.25	1.50	0.75	3.00	3.50	4.00	4.00	9.00	5.25	3.00	1.50	4.50	4.75	0.50	0.25	-0.182617	0.011230	0.957520	6.860000	9.380000	2.730000	639.00	0.12	-0.00
2.98	0.25	0.00	0.50	0.00	0.00	0.00	0.25	0.25	0.00	2.00	0.50	0.00	0.75	0.00	0.00	0.75	-0.750977	0.461426	2.031738	77.279999	-379.119995	52.430000	62.00	0.12	-0.06	0.75	0.25	1.50	0.75	3.00	3.50	4.00	4.25	9.00	5.25	3.25	1.50	4.50	5.00	0.25	0.25	-0.187012	0.032715	0.975586	7.000000	9.170000	3.570000	643.00	0.12	-0.01
2.99	0.00	0.00	0.00	0.00	0.00	0.25	0.25	0.50	0.00	1.75	0.25	0.00	0.25	0.00	0.00	0.00	-0.821289	0.500000	2.015625	87.290001	-366.239990	58.939999	44.00	0.00	0.00	0.75	0.00	1.50	1.00	2.50	3.75	3.75	4.25	9.00	5.50	3.25	1.50	4.75	5.00	0.50	0.25	-0.190430	0.027832	0.923340	7.490000	6.720000	4.200000	645.00	0.12	-0.01
3.00	0.00	0.25	0.00	0.00	0.00	0.25	0.00	1.00	0.00	2.00	0.00	0.00	0.50	0.00	0.00	0.25	-0.917969	0.544922	2.193848	115.080002	-323.820007	70.419998	56.00	0.10	-0.18	0.50	0.00	1.25	0.75	2.75	3.75	3.75	4.75	9.00	5.75	3.75	1.75	5.00	5.00	0.75	0.25	-0.173340	0.017090	0.933105	7.700000	3.080000	5.670000	666.00	0.13	-0.02
3.01	0.25	0.25	0.00	0.00	0.00	0.25	0.00	0.00	0.00	1.75	0.25	0.00	0.75	0.00	0.00	0.50	-0.917969	0.544922	2.193848	115.080002	-323.820007	70.419998	45.00	0.00	0.00	0.25	0.00	1.00	0.50	2.25	3.75	3.75	5.00	9.25	6.00	5.00	2.00	5.50	5.00	1.00	0.50	-0.171387	0.036621	0.939453	8.610000	2.100000	7.910000	690.00	0.14	-0.03
3.02	0.25	0.00	0.00	0.00	0.00	0.50	0.00	0.25	0.00	1.50	0.25	0.00	0.75	0.00	0.00	0.25	-1.165527	0.776855	3.115234	145.740005	-283.989990	81.760002	45.00	0.00	0.00	0.50	0.00	0.75	0.50	2.25	4.00	3.75	5.25	9.50	6.25	5.25	2.25	6.00	5.00	0.75	0.50	-0.170410	0.039551	0.950684	9.870000	3.220000	9.310000	712.00	0.14	-0.03
3.03	0.00	0.00	0.25	0.50	0.00	1.00	0.00	0.25	0.00	1.75	0.25	0.00	0.50	0.00	0.00	0.50	-1.540527	0.863770	3.722168	161.210007	-284.829987	88.620003	61.00	0.05	-0.15	0.00	0.00	1.00	0.75	2.25	4.50	4.00	5.50	9.50	7.00	6.25	3.00	6.75	5.25	1.25	0.75	-0.156250	0.047852	0.945801	11.690000	5.670000	9.310000	778.00	0.14	-0.05
3.04	0.00	0.00	0.00	0.00	0.00	0.50	0.00	0.50	0.00	1.75	0.00	0.00	0.50	0.00	0.00	0.50	-1.955078	0.898438	4.127930	166.180008	-309.890015	92.400002	46.00	0.00	0.00	0.00	0.00	0.50	0.50	2.25	4.50	4.00	5.75	9.75	7.50	7.00	3.75	7.25	5.50	1.00	1.00	-0.152832	0.067871	0.949707	13.160000	8.470000	7.700000	808.00	0.15	-0.05
3.05	0.00	0.00	0.00	0.00	0.00	1.00	0.25	0.25	0.00	1.50	0.00	0.00	0.75	0.00	0.00	0.25	-2.445801	0.882812	4.337891	174.789993	-356.510010	88.760002	50.00	0.00	0.00	0.00	0.00	0.50	0.25	2.25	4.75	4.25	5.75	10.25	7.75	7.75	5.00	7.75	6.50	1.75	1.00	-0.166992	0.073730	0.949707	14.700000	12.110000	5.530000	873.00	0.16	-0.05
3.06	0.25	0.25	0.00	0.00	0.00	0.75	0.00	0.25	0.00	1.75	0.00	0.00	0.00	0.00	0.00	0.50	-2.960449	0.732422	3.945801	204.820007	-413.209991	79.730003	45.00	0.00	0.00	0.00	0.00	0.00	0.00	2.00	5.00	4.50	6.00	10.75	8.25	8.00	5.50	8.25	7.00	1.75	1.25	-0.182617	0.060059	0.970215	16.240000	17.010000	3.570000	907.00	0.17	-0.05
3.07	0.00	0.25	0.00	0.00	0.00	0.50	0.00	0.50	0.00	1.50	0.00	0.00	0.50	0.00	0.00	0.50	-3.715820	0.400391	3.037598	263.899994	-457.309998	78.610001	45.00	0.00	0.00	0.00	0.00	0.00	0.25	2.00	5.00	4.75	6.25	11.25	8.75	8.50	6.50	8.75	7.75	2.00	1.50	-0.188477	0.044922	0.989258	17.920000	23.940001	2.660000	970.00	0.17	-0.06
3.08	0.00	0.00	0.00	0.00	0.00	0.25	0.00	0.75	0.00	1.75	0.00	0.00	0.50	0.00	0.00	0.25	-4.729492	-0.048828	1.930664	304.010010	-462.140015	91.000000	45.00	0.00	0.00	0.00	0.00	0.00	0.00	2.00	5.00	5.00	6.25	11.75	9.00	9.25	7.25	9.25	8.25	2.50	1.50	-0.190430	0.036621	1.025879	25.620001	47.599998	3.780000	1017.00	0.18	-0.06
3.09	0.25	0.25	0.00	0.00	0.00	0.00	0.00	0.75	0.25	2.00	0.00	0.00	0.50	0.00	0.00	0.00	-5.442871	-0.668457	0.773438	298.339996	-416.640015	112.910004	53.00	0.10	-0.10	0.00	0.00	0.00	0.00	1.75	5.00	5.00	6.25	12.25	9.50	9.75	7.75	9.75	8.75	3.25	2.00	-0.218262	0.060059	1.070312	31.290001	66.080002	5.320000	1063.00	0.18	-0.06
3.10	0.25	0.00	0.00	0.00	0.00	0.25	0.00	0.00	0.25	2.00	0.25	0.00	0.50	0.00	0.00	0.00	-5.836426	-1.337402	-0.253418	261.309998	-340.760010	143.289993	43.00	0.00	0.00	0.00	0.00	0.00	0.00	1.50	4.75	5.25	6.25	13.00	9.75	10.50	8.00	10.25	9.00	3.50	2.50	-0.230469	0.080078	1.104004	37.799999	90.860001	6.860000	1103.00	0.19	-0.05
3.11	0.00	0.00	0.00	0.00	0.00	0.25	0.00	0.75	0.25	2.00	0.00	0.25	0.25	0.00	0.00	0.00	-6.211426	-1.912109	-0.690430	195.160004	-249.830002	165.130005	51.00	0.14	-0.11	0.00	0.00	0.00	0.25	1.25	4.25	5.00	6.25	12.75	10.25	11.00	8.75	10.75	9.50	4.50	2.25	-0.208984	0.064941	1.122070	43.820000	119.699997	7.350000	1131.00	0.19	-0.06
3.12	0.00	0.00	0.25	0.00	0.25	1.00	0.00	0.75	0.25	2.00	0.25	0.00	0.25	0.00	0.00	0.00	-6.002441	-2.162598	-0.903809	80.290001	-159.600006	160.860001	68.00	0.07	-0.11	0.00	0.00	0.00	0.00	1.25	4.25	5.25	6.25	14.00	10.50	11.50	9.00	11.25	10.25	5.00	2.75	-0.238281	0.107422	1.170898	49.980000	149.169998	5.600000	1186.00	0.20	-0.05
3.13	0.25	0.25	0.00	0.00	0.00	0.50	0.00	1.00	0.00	1.75	0.25	0.00	0.50	0.00	0.00	0.00	-6.181641	-1.737305	-0.491699	-64.820000	-84.559998	120.470001	61.00	0.05	-0.17	0.00	0.00	0.00	0.00	1.00	3.75	5.00	6.00	14.00	11.00	12.00	9.25	11.50	11.25	5.25	3.25	-0.324707	0.113770	1.172852	53.480000	179.339996	3.850000	1202.00	0.20	-0.05
3.14	0.00	0.25	0.00	0.00	0.00	0.25	0.00	0.50	0.25	1.75	0.25	0.00	0.50	0.00	0.00	0.00	-5.874023	-0.851562	-0.104492	-147.770004	-37.450001	54.459999	49.00	0.00	0.00	0.00	0.00	0.00	0.00	0.50	3.25	5.00	5.75	14.50	11.00	12.50	9.50	11.75	12.50	6.00	4.00	-0.337402	0.064941	1.228516	54.529999	210.210007	3.990000	1231.00	0.21	-0.05
3.15	0.25	0.25	0.00	0.00	0.00	0.50	0.25	0.50	0.25	2.00	0.00	0.00	0.00	0.00	0.00	0.00	-5.468262	-0.115723	0.022461	-115.430000	1.680000	-11.480000	55.00	0.07	-0.03	0.00	0.00	0.00	0.00	0.75	2.50	5.00	5.75	14.75	11.25	12.75	9.75	11.75	13.25	6.50	4.75	-0.383789	0.046387	1.278320	54.110001	239.399994	5.320000	1257.00	0.22	-0.05
3.16	0.00	0.00	0.25	0.25	0.00	0.50	0.00	0.50	0.25	1.75	0.00	0.00	0.00	0.00	0.00	0.00	-4.626953	-0.135742	-0.077637	-39.619999	54.950001	-36.540001	48.00	0.00	0.00	0.00	0.00	0.00	0.00	0.50	2.25	5.00	5.50	14.75	11.25	12.50	9.75	11.50	14.50	6.75	5.25	-0.418945	0.083984	1.291016	50.680000	268.450012	7.210000	1259.00	0.22	-0.04
3.17	2.25	2.50	1.75	2.00	0.25	0.00	0.25	0.25	0.00	1.50	0.00	0.00	0.00	0.00	0.00	0.00	3.230957	-0.440918	1.194824	-154.210007	254.309998	122.080002	136.00	-0.24	-0.03	0.00	0.00	0.00	0.00	0.50	1.50	5.25	5.25	14.50	11.25	12.50	9.50	11.25	15.25	7.25	5.75	-0.458984	0.157715	1.355957	44.099998	298.690002	6.440000	1257.00	0.23	-0.04
3.18	11.25	10.75	4.25	6.00	0.25	2.50	0.00	1.00	0.00	1.25	0.00	0.00	0.75	0.00	0.00	0.00	-0.266602	-1.686035	-0.178711	-219.449997	199.570007	111.650002	471.00	-0.31	-0.08	0.00	0.00	0.00	0.00	0.25	0.75	5.25	5.00	14.50	10.75	12.25	9.25	10.75	16.25	7.50	6.00	-0.519043	0.270020	1.321289	35.980000	330.820007	1.750000	1236.00	0.24	-0.03
3.19	21.25	19.75	7.75	9.25	0.25	5.00	0.00	1.25	0.00	1.25	0.00	0.25	0.75	0.00	0.00	0.00	0.889648	-2.240234	0.921387	-327.739990	361.480011	27.580000	824.00	-0.32	-0.07	0.00	0.00	0.00	0.00	0.25	0.25	5.50	5.00	14.25	10.75	12.00	9.00	10.00	16.75	7.75	6.50	-0.613770	0.260254	1.442871	21.000000	365.679993	-6.790000	1228.00	0.24	-0.03
3.20	25.50	22.75	9.50	10.25	0.50	5.75	0.00	1.75	0.00	1.50	0.25	0.50	1.75	0.00	0.00	0.00	-1.298340	-2.462891	4.160645	-294.000000	540.679993	-16.799999	988.00	-0.31	-0.07	0.00	0.00	0.00	0.00	0.00	0.00	5.75	4.25	14.00	10.00	11.25	8.50	9.50	17.00	7.75	6.75	-0.942871	0.175781	2.081055	-8.540000	447.019989	-23.240000	1182.00	0.25	-0.02
3.21	25.75	22.50	10.00	10.75	0.50	6.00	0.00	2.00	0.00	1.75	0.50	0.50	1.25	0.00	0.00	0.00	-2.889160	-1.942383	4.733398	-156.240005	561.049988	-28.980000	1010.00	-0.31	-0.07	0.00	0.00	0.00	0.00	0.00	0.00	5.75	3.75	13.25	9.25	10.25	7.75	9.00	17.00	7.50	7.00	-0.942871	0.175781	2.081055	-8.540000	447.019989	-23.240000	1123.00	0.25	-0.01
3.22	25.00	22.00	10.50	11.50	0.75	6.00	0.00	2.00	0.25	2.00	0.50	0.25	1.75	0.00	0.00	0.00	-1.372559	-0.565918	4.119141	0.210000	472.920013	-14.770000	1024.00	-0.30	-0.07	0.00	0.00	0.00	0.00	0.00	0.00	5.75	3.25	12.50	8.75	9.25	7.25	8.25	16.25	7.25	7.00	-1.328125	0.183105	2.812500	-15.960000	498.330017	-24.639999	1059.00	0.25	-0.01
3.23	23.50	21.00	10.75	12.00	0.75	6.75	0.00	2.25	0.25	2.25	0.75	0.75	2.25	0.00	0.00	0.25	-0.466797	0.353027	1.378906	71.750000	401.029999	-10.710000	1038.00	-0.29	-0.08	0.00	0.00	0.00	0.00	0.00	0.00	5.50	2.50	11.50	8.00	8.25	6.50	7.50	14.75	6.50	6.25	-2.122070	0.091309	3.891113	-68.040001	585.340027	-47.529999	957.00	0.25	-0.00
3.24	21.75	20.00	11.00	12.50	1.00	9.00	0.00	3.25	0.75	2.50	1.00	0.50	2.75	0.00	0.00	0.25	-0.526855	0.722656	1.266602	64.610001	405.369995	-6.720000	1082.00	-0.27	-0.09	0.00	0.00	0.00	0.00	0.00	0.00	4.75	1.75	10.00	7.00	7.00	5.50	6.75	12.25	6.00	5.25	-2.020996	0.513184	5.088379	-110.320000	577.710022	-62.510002	820.00	0.25	-0.00
3.25	21.00	19.00	11.50	13.25	1.75	11.25	0.25	6.00	1.00	2.75	1.25	1.00	5.00	0.00	0.00	0.25	-1.030273	0.354004	1.860352	32.830002	397.110016	-4.410000	1211.00	-0.23	-0.11	0.00	0.00	0.00	0.00	0.00	0.00	3.00	1.25	8.75	5.25	5.00	3.25	5.75	9.25	4.00	2.50	-1.094727	0.964355	4.774414	-117.599998	541.659973	-57.610001	601.00	0.25	0.01
3.26	21.25	18.75	12.75	14.00	3.00	12.50	0.50	7.75	1.50	3.25	1.50	1.25	5.75	0.50	0.00	0.25	-2.353516	0.949707	4.616211	-136.149994	220.500000	-11.200000	1340.00	-0.21	-0.11	0.00	0.00	0.00	0.00	0.00	0.00	1.50	0.50	7.50	3.25	2.50	1.75	4.00	6.00	1.25	0.75	-0.315430	1.266602	3.722168	-79.309998	533.260010	-52.220001	369.00	0.25	0.05
3.27	22.00	19.00	13.25	14.00	3.75	12.75	0.50	7.75	1.75	3.50	1.50	1.00	5.75	0.75	0.00	0.50	-0.505371	-0.431641	1.449219	-128.380005	51.450001	-12.950000	1380.00	-0.21	-0.11	0.00	0.00	0.00	0.00	0.00	0.00	0.50	0.25	4.00	1.00	0.50	0.50	2.00	2.50	0.00	0.00	0.808105	0.387207	2.317871	47.110001	567.979980	-88.550003	147.00	0.25	0.07
3.28	22.50	18.75	14.00	14.00	4.00	12.75	0.75	8.00	2.00	3.50	1.75	1.00	6.00	1.75	0.00	0.25	-0.188965	0.129395	1.043457	-74.410004	-6.160000	-17.500000	1424.00	-0.20	-0.10	0.00	0.00	0.00	0.00	0.00	0.00	0.25	0.00	2.00	0.75	1.00	0.75	1.00	0.75	0.00	0.00	0.146484	0.944824	1.325195	205.169998	665.700012	-214.970001	85.00	0.24	0.03
3.29	23.25	19.00	14.25	13.75	4.50	12.50	1.00	8.00	2.50	3.75	1.50	1.25	6.00	2.50	0.25	0.50	-0.307129	0.041992	1.083984	-48.720001	-12.320000	-10.360000	1467.00	-0.20	-0.09	0.00	0.00	0.00	0.00	0.00	0.00	0.25	0.00	0.50	1.00	0.75	0.75	0.75	0.50	0.00	0.00	0.485352	0.934082	7.871094	358.190002	398.299988	-304.640015	56.00	0.23	-0.04
3.30	23.00	18.75	14.25	13.50	4.75	12.25	1.00	7.75	3.00	3.75	1.50	1.00	5.50	2.75	0.25	0.50	-0.258301	0.053223	1.003418	-31.150000	-10.080000	-8.190000	1456.00	-0.19	-0.09	0.00	0.00	0.00	0.00	0.00	0.00	0.25	0.00	1.00	0.75	0.75	0.25	0.50	0.00	0.00	0.00	1.595215	-0.252930	5.935547	321.019989	51.380001	-320.110016	47.00	0.00	0.00
3.31	23.00	18.50	14.25	13.25	5.25	12.00	1.00	7.50	3.00	3.75	1.50	0.75	4.75	3.25	0.00	0.50	-0.246582	0.052734	0.992188	-22.960001	-4.130000	-7.980000	1440.00	-0.19	-0.08	0.00	0.00	0.00	0.00	0.00	0.00	0.25	0.00	0.75	0.75	0.50	0.25	0.25	0.00	0.00	0.00	1.565430	0.071289	3.920410	62.790001	-162.539993	-298.829987	38.00	0.00	0.00
3.32	22.50	17.75	14.25	13.00	5.00	11.75	1.00	7.00	3.00	3.50	1.25	0.75	4.50	2.75	0.00	0.25	-0.221680	-0.002930	0.996094	-6.720000	9.520000	-2.100000	1391.00	-0.20	-0.08	0.00	0.00	0.00	0.00	0.00	0.00	0.00	0.00	0.00	0.25	0.50	0.25	0.00	0.00	0.00	0.00	1.316895	0.739746	2.229980	-159.740005	-242.270004	-252.279999	13.00	0.00	0.00
3.33	22.75	17.75	13.75	12.75	5.00	11.25	1.00	6.75	3.00	3.75	1.25	0.75	4.75	3.00	0.00	0.25	-0.201660	0.020020	0.993652	0.140000	15.120000	0.350000	1381.00	-0.20	-0.08	0.00	0.00	0.00	0.00	0.00	0.00	0.00	0.00	0.25	0.50	0.25	0.00	0.00	0.00	0.00	0.00	1.258301	1.419922	1.377930	-229.669998	-259.420013	-203.070007	13.00	0.00	0.00
3.34	21.75	17.25	13.50	12.50	4.75	10.75	0.75	6.25	2.75	3.50	1.25	0.75	3.75	2.50	0.00	0.25	-0.224609	0.029297	0.981445	5.460000	19.040001	1.610000	1311.00	-0.20	-0.08	0.00	0.00	0.00	0.00	0.00	0.00	0.00	0.00	0.50	0.00	0.25	0.25	0.00	0.00	0.00	0.00	1.092285	1.837891	1.134277	-153.580002	-271.179993	-165.270004	14.00	0.00	0.00
3.35	21.00	16.50	13.25	11.75	4.25	10.50	0.75	6.00	2.25	3.25	1.00	0.50	2.50	2.00	0.00	0.25	-0.227539	0.035156	0.979492	9.730000	20.860001	2.520000	1230.00	-0.21	-0.08	0.00	0.00	0.00	0.00	0.00	0.00	0.00	0.00	0.25	0.25	0.25	0.00	0.00	0.00	0.00	0.00	0.946777	1.660645	1.015625	-11.830000	-289.940002	-135.940002	10.00	0.00	0.00
3.36	20.50	16.25	12.50	11.50	4.00	9.75	0.75	5.75	2.00	3.25	1.00	0.50	2.50	2.00	0.00	0.50	-0.211426	0.043457	0.978516	12.880000	21.280001	3.080000	1188.00	-0.21	-0.08	0.00	0.00	0.00	0.00	0.00	0.00	0.00	0.00	0.25	0.25	0.25	0.00	0.00	0.00	0.00	0.00	0.819824	1.188965	1.025391	84.209999	-308.420013	-105.840004	10.00	0.00	0.00
3.37	19.50	15.50	12.00	11.00	3.75	9.50	0.75	5.50	1.75	3.00	0.50	0.50	2.25	2.00	0.00	0.00	-0.170410	0.054199	0.939941	14.350000	19.740000	3.570000	1124.00	-0.22	-0.08	0.00	0.00	0.00	0.00	0.00	0.00	0.00	0.00	0.25	0.00	0.25	0.00	0.00	0.00	0.00	0.00	0.604980	0.833496	1.124512	73.080002	-338.660004	-32.619999	7.00	0.00	0.00
3.38	18.50	15.00	11.50	10.50	3.50	9.25	0.75	5.25	1.75	2.75	0.75	0.25	1.75	1.50	0.00	0.00	-0.167480	0.068848	0.923828	12.950000	17.570000	3.990000	1069.00	-0.22	-0.08	0.00	0.00	0.00	0.00	0.00	0.00	0.00	0.00	0.75	0.00	0.00	0.00	0.00	0.00	0.00	0.00	0.537109	0.861328	1.112793	58.240002	-351.260010	3.010000	12.00	0.00	0.00
3.39	17.75	14.00	10.75	10.00	3.00	9.00	0.50	5.00	1.75	3.00	0.75	0.00	1.75	1.25	0.00	0.00	-0.167969	0.078613	0.924805	9.520000	16.590000	4.130000	1010.00	-0.22	-0.08	0.00	0.00	0.00	0.00	0.00	0.00	0.00	0.00	0.00	0.25	0.00	0.00	0.00	0.00	0.00	0.00	0.436035	0.839355	1.092773	74.620003	-361.269989	32.759998	3.00	0.00	0.00
3.40	15.75	12.75	10.25	9.50	2.75	8.50	0.75	4.75	1.50	2.75	0.75	0.50	1.75	1.50	0.00	0.00	-0.169922	0.091797	0.918457	5.180000	16.309999	3.920000	951.00	-0.21	-0.08	0.00	0.00	0.00	0.00	0.00	0.00	0.00	0.00	0.00	0.00	0.25	0.00	0.00	0.00	0.00	0.00	0.310059	0.701172	1.133789	112.699997	-368.690002	55.930000	3.00	0.00	0.00
3.41	14.50	11.75	9.75	9.25	2.50	8.25	0.50	4.75	1.50	3.00	0.75	0.50	2.00	1.25	0.00	0.00	-0.159180	0.095703	0.917480	-0.700000	15.820000	2.870000	906.00	-0.21	-0.09	0.00	0.00	0.00	0.00	0.00	0.00	0.00	0.00	0.00	0.00	0.00	0.00	0.00	0.00	0.00	0.00	0.169434	0.499023	1.246582	151.199997	-375.760010	73.989998	0.00	0.00	0.00
3.42	13.00	10.50	9.25	8.75	2.50	8.25	0.50	4.75	1.75	3.25	0.75	0.50	1.75	1.25	0.00	0.00	-0.185059	0.095703	0.930176	-7.280000	14.840000	1.120000	865.00	-0.20	-0.09	0.00	0.00	0.00	0.00	0.00	0.00	0.00	0.00	0.00	0.00	0.00	0.00	0.00	0.00	0.00	0.00	-0.000488	0.294922	1.412598	175.699997	-383.880005	89.250000	0.00	0.00	0.00
3.43	12.00	9.50	8.50	8.25	2.50	7.50	0.75	4.75	2.00	3.25	1.00	0.25	2.50	1.50	0.00	0.50	-0.214355	0.077148	0.943359	-12.040000	14.000000	-0.490000	837.00	-0.18	-0.09	0.00	0.00	0.00	0.00	0.00	0.00	0.00	0.00	0.00	0.00	0.00	0.00	0.00	0.00	0.00	0.00	-0.148926	0.159180	1.535645	182.979996	-392.980011	103.949997	0.00	0.00	0.00
3.44	11.25	8.75	8.25	8.00	2.25	7.25	0.75	4.00	2.25	3.50	1.00	0.25	2.00	1.75	0.00	0.25	-0.220703	0.067871	0.962402	-13.650000	12.740000	-1.400000	796.00	-0.18	-0.08	0.00	0.00	0.00	0.00	0.00	0.00	0.00	0.00	0.00	0.00	0.00	0.00	0.00	0.00	0.00	0.00	-0.298340	0.075684	1.645508	177.729996	-400.049988	119.139999	0.00	0.00	0.00
3.45	10.25	8.00	8.00	7.50	2.25	6.75	0.75	3.50	2.25	3.50	1.00	0.50	2.00	1.50	0.00	0.25	-0.222168	0.080566	0.956055	-13.300000	11.410000	-2.170000	750.00	-0.17	-0.07	0.00	0.00	0.00	0.00	0.00	0.00	0.00	0.00	0.00	0.00	0.00	0.00	0.00	0.00	0.00	0.00	-0.416992	0.033203	1.740723	166.740005	-405.369995	134.680008	0.00	0.00	0.00
3.46	9.50	7.50	7.75	7.25	2.00	6.25	0.75	3.50	2.50	3.75	1.00	0.25	2.25	1.50	0.00	0.00	-0.233887	0.054688	0.949707	-11.900000	8.610000	-2.660000	724.00	-0.16	-0.07	0.00	0.00	0.00	0.00	0.00	0.00	0.00	0.00	0.00	0.00	0.00	0.00	0.00	0.00	0.00	0.00	-0.507324	0.006836	1.858887	154.559998	-409.290009	149.660004	0.00	0.00	0.00
3.47	9.25	7.00	7.75	6.75	2.00	5.75	0.75	3.25	3.00	4.00	1.00	0.25	2.50	1.75	0.00	0.25	-0.235840	0.048828	0.953613	-11.340000	7.490000	-2.310000	715.00	-0.15	-0.06	0.00	0.00	0.00	0.00	0.00	0.00	0.00	0.00	0.00	0.00	0.00	0.00	0.00	0.00	0.00	0.00	-0.565430	-0.022949	1.961426	146.300003	-412.510010	161.699997	0.00	0.00	0.00
3.48	9.00	6.50	7.50	6.75	2.00	5.75	1.00	3.50	3.00	4.00	1.00	0.50	2.00	1.75	0.00	0.00	-0.236328	0.053711	0.948730	-10.990000	6.580000	-1.960000	708.00	-0.14	-0.06	0.00	0.00	0.00	0.00	0.00	0.00	0.00	0.00	0.00	0.00	0.00	0.00	0.00	0.00	0.00	0.00	-0.684082	-0.080078	2.045410	143.360001	-415.239990	168.490005	0.00	0.00	0.00
3.49	8.75	6.25	7.50	6.00	2.00	5.25	1.00	3.00	3.50	4.25	1.25	0.50	2.50	1.75	0.00	0.25	-0.231445	0.045410	0.945312	-11.200000	5.530000	-1.470000	698.00	-0.13	-0.05	0.00	0.00	0.00	0.00	0.00	0.00	0.00	0.00	0.00	0.00	0.00	0.00	0.00	0.00	0.00	0.00	-0.896973	-0.227051	2.027832	152.039993	-417.970001	170.309998	0.00	0.00	0.00
3.50	8.00	6.00	7.25	6.00	2.00	5.50	1.00	2.75	3.75	4.50	1.25	0.50	2.50	2.25	0.50	0.25	-0.212891	0.044434	0.921875	-11.760000	3.290000	-0.770000	700.00	-0.11	-0.05	0.00	0.00	0.00	0.00	0.00	0.00	0.00	0.00	0.00	0.00	0.00	0.00	0.00	0.00	0.00	0.00	-0.984375	-0.378906	2.035156	166.460007	-414.399994	156.940002	0.00	0.00	0.00
3.51	8.25	5.75	7.25	6.00	2.00	5.00	1.25	3.25	4.50	5.25	1.50	0.75	3.25	3.00	0.50	0.25	-0.208984	0.042969	0.932617	-12.880000	0.980000	-0.490000	750.00	-0.09	-0.05	0.00	0.00	0.00	0.00	0.00	0.00	0.00	0.00	0.00	0.00	0.00	0.00	0.00	0.00	0.00	0.00	-1.048828	-0.538086	2.182129	151.830002	-389.200012	105.139999	0.00	0.00	0.00
3.52	8.00	5.50	7.25	5.50	2.00	5.25	1.50	3.00	5.00	6.00	1.75	1.00	3.25	3.25	0.00	0.50	-0.210938	0.048340	0.934570	-14.140000	-0.420000	-1.400000	762.00	-0.08	-0.04	0.00	0.00	0.00	0.00	0.00	0.00	0.00	0.00	0.00	0.00	0.00	0.00	0.00	0.00	0.00	0.00	-0.989746	-0.463867	2.277344	123.830002	-377.230011	78.959999	0.00	0.00	0.00
3.53	7.50	5.50	7.00	5.50	2.25	5.50	1.75	4.25	6.00	6.75	2.00	1.25	4.25	3.25	0.50	0.50	-0.215332	0.051270	0.918945	-14.840000	-1.960000	-3.080000	834.00	-0.05	-0.05	0.00	0.00	0.00	0.00	0.00	0.00	0.00	0.00	0.00	0.00	0.00	0.00	0.00	0.00	0.00	0.00	-0.996582	-0.290527	2.445801	98.489998	-364.769989	55.439999	0.00	0.00	0.00
3.54	7.25	5.00	7.00	5.50	2.25	5.25	2.25	4.50	6.75	7.25	2.50	1.25	4.50	4.25	0.00	0.50	-0.208496	0.052734	0.918457	-15.540000	-4.130000	-4.550000	866.00	-0.04	-0.04	0.00	0.00	0.00	0.00	0.00	0.00	0.00	0.00	0.00	0.00	0.00	0.00	0.00	0.00	0.00	0.00	-1.086426	-0.089355	2.758301	87.570000	-352.660004	37.029999	0.00	0.00	0.00
3.55	7.25	5.00	6.75	5.50	2.50	5.50	2.75	5.00	7.75	7.75	3.00	1.75	5.75	5.00	0.50	0.25	-0.212402	0.052246	0.926270	-16.030001	-6.370000	-5.530000	947.00	-0.02	-0.04	0.00	0.00	0.00	0.00	0.00	0.00	0.00	0.00	0.00	0.00	0.00	0.00	0.00	0.00	0.00	0.00	-1.296875	0.037109	3.117188	95.410004	-350.350006	24.570000	0.00	0.00	0.00
3.56	6.50	4.50	6.75	5.25	2.75	5.50	3.25	5.25	8.25	8.50	3.75	2.50	6.50	5.50	1.00	1.00	-0.221191	0.032715	0.938965	-15.610000	-7.700000	-5.670000	1005.00	0.01	-0.04	0.00	0.00	0.00	0.00	0.00	0.00	0.00	0.00	0.00	0.00	0.00	0.00	0.00	0.00	0.00	0.00	-1.648438	0.061035	3.270508	118.790001	-360.010010	18.129999	0.00	0.00	0.00
3.57	6.25	4.00	6.75	5.00	3.00	6.00	3.50	5.50	9.25	9.00	5.50	2.75	7.50	6.75	1.00	0.75	-0.228516	0.036621	0.941406	-14.490000	-6.790000	-5.670000	1080.00	0.03	-0.04	0.00	0.00	0.00	0.00	0.00	0.00	0.00	0.00	0.00	0.00	0.00	0.00	0.00	0.00	0.00	0.00	-2.064453	-0.091309	3.299805	141.050003	-376.529999	18.270000	0.00	0.00	0.00
3.58	5.75	3.75	6.50	5.00	3.25	5.50	4.25	6.00	9.75	9.75	7.00	3.50	8.50	7.75	1.50	1.25	-0.214844	0.029785	0.957031	-12.740000	-3.780000	-5.320000	1163.00	0.05	-0.04	0.00	0.00	0.00	0.00	0.00	0.00	0.00	0.00	0.00	0.00	0.00	0.00	0.00	0.00	0.00	0.00	-2.513672	-0.282715	3.001953	142.380005	-393.959991	25.900000	0.00	0.00	0.00
3.59	5.25	3.50	6.25	4.50	3.25	5.75	4.75	6.25	10.75	10.50	7.75	4.50	9.75	8.75	3.00	1.75	-0.225098	0.041504	0.959473	-9.940000	0.350000	-4.900000	1253.00	0.07	-0.05	0.00	0.00	0.00	0.00	0.00	0.00	0.00	0.00	0.00	0.00	0.00	0.00	0.00	0.00	0.00	0.00	-3.120605	-0.400391	2.391113	119.840004	-398.299988	40.180000	0.00	0.00	0.00
3.60	4.75	2.50	5.75	4.00	3.25	5.75	5.00	7.25	11.25	11.00	8.25	5.50	11.00	9.75	3.25	2.00	-0.289551	0.020020	0.945801	-4.970000	10.990000	-3.080000	1305.00	0.09	-0.05	0.00	0.00	0.00	0.00	0.00	0.00	0.00	0.00	0.00	0.00	0.00	0.00	0.00	0.00	0.00	0.00	-3.859375	-0.450195	1.585938	87.709999	-376.600006	56.840000	0.00	0.00	0.00
3.61	4.25	2.50	5.25	3.25	3.25	5.75	5.25	7.75	12.25	11.75	9.00	6.75	11.75	10.75	4.50	2.50	-0.289551	0.020020	0.945801	-4.970000	10.990000	-3.080000	1383.00	0.11	-0.05	0.00	0.00	0.00	0.00	0.00	0.00	0.00	0.00	0.00	0.00	0.00	0.00	0.00	0.00	0.00	0.00	-4.513672	-0.407715	0.750000	54.529999	-328.720001	68.040001	0.00	0.00	0.00
3.62	3.25	2.00	4.50	3.00	3.00	5.75	5.50	8.00	13.00	12.25	9.50	7.50	13.00	11.75	5.00	3.25	-0.209961	0.066406	1.011719	-2.240000	29.680000	-4.270000	1425.00	0.12	-0.06	0.00	0.00	0.00	0.00	0.00	0.00	0.00	0.00	0.00	0.00	0.00	0.00	0.00	0.00	0.00	0.00	-5.106445	-0.364746	0.173828	33.320000	-263.970001	63.980000	0.00	0.00	0.00
3.63	2.50	2.00	3.25	2.25	2.75	5.50	5.50	8.00	13.25	13.00	10.25	8.00	14.25	13.00	5.75	4.25	-0.059082	-0.057617	1.038086	-1.750000	41.369999	-5.740000	1453.00	0.14	-0.06	0.00	0.00	0.00	0.00	0.00	0.00	0.00	0.00	0.00	0.00	0.00	0.00	0.00	0.00	0.00	0.00	-5.702148	-0.560059	-0.173340	40.810001	-195.860001	41.439999	0.00	0.00	0.00
3.64	1.75	1.25	3.00	1.75	2.25	5.25	5.50	7.75	14.00	13.50	11.00	8.50	15.00	14.25	6.25	4.75	-0.231445	-0.049316	1.193848	5.740000	67.059998	-2.730000	1475.00	0.16	-0.06	0.00	0.00	0.00	0.00	0.00	0.00	0.00	0.00	0.00	0.00	0.00	0.00	0.00	0.00	0.00	0.00	-6.375000	-1.062988	-0.401367	62.720001	-128.240005	9.170000	0.00	0.00	0.00
3.65	1.25	1.00	2.00	2.00	1.75	4.25	5.50	7.75	14.50	14.25	11.50	8.75	15.25	15.50	7.25	5.25	-0.247070	0.053711	1.117676	15.540000	103.389999	-3.850000	1494.00	0.18	-0.06	0.00	0.00	0.00	0.00	0.00	0.00	0.00	0.00	0.00	0.00	0.00	0.00	0.00	0.00	0.00	0.00	-6.791016	-1.540527	-0.610352	44.590000	-52.920002	-19.250000	0.00	0.00	0.00
3.66	1.25	1.25	2.00	1.00	1.50	4.75	5.25	7.50	14.75	14.50	12.00	9.25	15.75	16.50	7.75	6.25	-0.251465	-0.030273	1.432617	19.809999	150.850006	-6.860000	1525.00	0.19	-0.06	0.00	0.00	0.00	0.00	0.00	0.00	0.00	0.00	0.00	0.00	0.00	0.00	0.00	0.00	0.00	0.00	-5.580566	-1.149414	-0.117676	-105.279999	111.370003	-34.860001	0.00	0.00	0.00
3.67	1.00	1.25	2.00	1.25	1.50	3.25	5.25	7.00	15.25	15.00	12.50	9.25	16.00	17.50	8.25	7.00	-0.332520	0.058105	1.250000	20.370001	206.360001	-9.800000	1541.00	0.19	-0.05	0.50	0.00	0.50	0.25	0.25	0.00	0.00	0.00	0.00	0.00	0.00	0.00	0.00	0.00	0.00	0.00	0.324219	-0.702637	4.564453	-132.720001	342.720001	-44.520000	19.00	0.00	0.00
3.68	0.75	0.75	1.00	0.50	1.25	2.50	5.00	6.00	15.50	15.25	12.50	9.25	15.50	18.00	8.75	7.50	-0.340332	0.085938	1.388184	10.640000	260.890015	-12.460000	1490.00	0.21	-0.05	5.00	2.00	1.00	1.25	0.50	0.00	0.00	0.00	0.00	0.00	0.00	0.00	0.00	0.00	0.00	0.00	-1.075684	-0.208008	2.247070	-177.729996	235.759995	-70.209999	120.00	-0.36	0.01
