# time	left pressure 1[N/cm²]	left pressure 2[N/cm²]	left pressure 3[N/cm²]	left pressure 4[N/cm²]	left pressure 5[N/cm²]	left pressure 6[N/cm²]	left pressure 7[N/cm²]	left pressure 8[N/cm²]	left pressure 9[N/cm²]	left pressure 10[N/cm²]	left pressure 11[N/cm²]	left pressure 12[N/cm²]	left pressure 13[N/cm²]	left pressure 14[N/cm²]	left pressure 15[N/cm²]	left pressure 16[N/cm²]	left acceleration X[g]	left acceleration Y[g]	left acceleration Z[g]	left angular X[dps]	left angular Y[dps]	left angular Z[dps]	left total force[N]	left center of pressure X[%]	left center of pressure Y[%]	right pressure 1[N/cm²]	right pressure 2[N/cm²]	right pressure 3[N/cm²]	right pressure 4[N/cm²]	right pressure 5[N/cm²]	right pressure 6[N/cm²]	right pressure 7[N/cm²]	right pressure 8[N/cm²]	right pressure 9[N/cm²]	right pressure 10[N/cm²]	right pressure 11[N/cm²]	right pressure 12[N/cm²]	right pressure 13[N/cm²]	right pressure 14[N/cm²]	right pressure 15[N/cm²]	right pressure 16[N/cm²]	right acceleration X[g]	right acceleration Y[g]	right acceleration Z[g]	right angular X[dps]	right angular Y[dps]	right angular Z[dps]	right total force[N]	right center of pressure X[%]	right center of pressure Y[%]
0.00	5.00	3.00	4.25	3.75	4.50	5.00	3.00	2.00	2.25	0.75	0.75	0.75	4.25	2.50	1.50	0.75	-0.204590	0.029785	0.954590	-2.660000	4.200000	0.700000	523.00	-0.07	-0.06																									
0.01	5.75	5.25	5.00	4.75	5.75	5.75	3.00	2.00	2.25	1.00	1.25	2.00	5.25	1.00	0.25	2.00	-0.211914	0.031250	0.958984	-2.660000	4.130000	0.700000	610.00	-0.10	-0.08																									
0.02	6.25	5.25	5.25	5.00	6.00	6.00	3.25	3.75	4.50	2.00	1.50	2.25	4.75	1.00	0.25	1.00	-0.204590	0.034668	0.953613	-2.660000	4.060000	0.700000	700.00	-0.08	-0.07																									
0.03	6.25	5.00	5.25	3.00	5.25	5.00	3.00	2.50	2.50	1.25	1.50	1.00	3.25	1.00	0.25	0.75	-0.205078	0.028809	0.952148	-2.730000	4.200000	0.700000	560.00	-0.11	-0.05																									
0.04	6.25	5.00	5.00	5.00	6.50	5.75	3.50	2.75	2.75	1.25	2.00	1.75	3.50	1.00	0.50	2.00	-0.205566	0.035156	0.958008	-2.800000	4.200000	0.630000	648.00	-0.09	-0.06																									
0.05	6.50	5.25	5.25	5.00	6.50	5.50	3.25	2.50	2.75	1.00	0.50	1.00	3.75	1.00	0.00	0.75	-0.211914	0.028809	0.954590	-2.800000	4.340000	0.560000	606.00	-0.12	-0.06																									
0.06	6.25	5.00	3.75	2.75	5.50	5.00	3.50	2.50	2.25	0.75	1.50	2.50	5.25	2.50	1.50	1.25	-0.207031	0.030273	0.955078	-2.870000	4.340000	0.560000	609.00	-0.06	-0.07																									
0.07	7.25	5.25	5.25	5.25	6.75	6.00	3.75	4.00	4.50	2.25	1.75	2.25	5.50	2.50	1.50	1.75	-0.208496	0.036621	0.956055	-2.800000	4.200000	0.630000	781.00	-0.06	-0.06	4.25	2.25	3.50	2.25	3.75	2.00	4.00	1.50	1.50	0.50	0.00	0.00	2.00	0.25	0.00	0.75	-0.146973	0.066895	0.959961	-4.900000	1.680000	-0.560000	353.00	-0.11	-0.00
0.08	6.75	5.25	5.25	5.00	6.50	5.75	3.75	3.75	3.75	1.50	1.00	2.25	5.50	2.50	1.50	2.00	-0.203613	0.025391	0.962891	-2.730000	4.130000	0.700000	736.00	-0.06	-0.07	4.00	2.50	3.75	2.25	3.75	2.00	4.25	1.50	1.25	0.75	0.25	0.00	2.25	0.50	0.00	0.75	-0.166992	0.060547	0.964355	-4.620000	1.330000	-0.350000	366.00	-0.10	-0.01
0.09	7.00	5.00	5.25	5.00	6.50	6.25	3.75	4.00	4.50	2.25	1.25	1.00	3.50	1.25	0.25	1.00	-0.211914	0.032715	0.952637	-2.870000	4.130000	0.630000	703.00	-0.09	-0.05	4.50	2.25	3.50	2.50	3.75	2.00	4.25	1.50	1.25	0.50	0.00	0.00	1.75	0.50	0.25	0.75	-0.147949	0.055664	0.960449	-4.550000	1.610000	-0.350000	362.00	-0.11	-0.00
0.10	6.25	4.00	4.50	3.25	5.75	5.25	3.50	2.75	2.50	1.00	0.50	1.75	5.25	2.50	1.25	2.00	-0.205078	0.030762	0.964844	-2.870000	4.130000	0.630000	612.00	-0.06	-0.06	5.00	2.25	3.25	2.25	3.75	2.00	4.00	1.50	1.25	0.75	0.25	0.00	2.25	0.50	0.00	0.75	-0.147949	0.055664	0.960449	-4.550000	1.610000	-0.350000	365.00	-0.11	-0.01
0.11	7.00	5.25	5.50	5.00	6.75	6.00	4.00	4.00	4.50	2.25	1.75	2.25	5.25	2.50	1.25	2.00	-0.207520	0.028809	0.957520	-2.800000	4.200000	0.630000	779.00	-0.06	-0.06	4.50	2.25	3.25	2.25	3.75	1.75	4.25	1.50	1.25	0.75	0.00	0.00	2.00	0.75	0.00	1.00	-0.146484	0.059570	0.958496	-4.480000	1.610000	-0.420000	359.00	-0.10	-0.00
0.12	7.25	5.25	5.25	5.00	6.75	6.25	3.75	3.50	4.75	2.25	1.75	2.50	5.25	2.50	1.50	2.00	-0.203125	0.031250	0.956543	-2.730000	4.200000	0.630000	778.00	-0.06	-0.06	4.25	2.25	3.50	2.25	3.75	2.00	4.25	1.50	1.50	0.75	0.00	0.00	2.00	0.50	0.00	0.75	-0.150879	0.059082	0.954102	-4.340000	1.400000	-0.350000	362.00	-0.10	-0.00
0.13	7.50	5.25	5.25	5.25	6.75	6.25	4.25	3.75	4.50	2.00	1.50	2.25	5.50	2.75	1.50	2.00	-0.204102	0.032715	0.964355	-2.800000	4.270000	0.700000	789.00	-0.06	-0.06	4.50	2.25	3.50	2.25	3.75	2.00	4.25	1.25	1.25	0.75	0.00	0.00	1.75	0.50	0.00	0.75	-0.147461	0.052246	0.961914	-4.480000	1.330000	-0.350000	355.00	-0.11	0.01
0.14	7.25	5.25	5.50	5.00	6.50	6.25	4.00	4.00	4.50	2.25	1.75	2.00	5.25	2.50	1.25	2.00	-0.204102	0.024414	0.960449	-2.730000	4.200000	0.700000	779.00	-0.06	-0.06	4.25	2.50	3.25	2.50	3.75	1.75	4.25	1.25	1.25	0.50	0.00	0.00	2.00	0.50	0.00	0.75	-0.144531	0.058105	0.961426	-4.270000	1.400000	-0.350000	351.00	-0.11	-0.00
0.15	7.50	5.25	5.25	5.25	6.75	6.50	4.25	4.00	4.25	2.25	1.50	2.25	5.25	2.50	1.25	2.00	-0.202148	0.029297	0.954102	-2.730000	4.270000	0.770000	788.00	-0.06	-0.06	5.00	2.00	3.50	2.00	3.50	1.75	4.25	1.50	1.25	0.50	0.00	0.00	1.75	0.50	0.25	0.50	-0.150391	0.036133	0.963867	-4.270000	1.400000	-0.350000	352.00	-0.11	0.01
0.16	7.50	5.50	5.50	5.00	6.50	6.50	4.25	3.75	4.50	2.00	1.50	2.25	5.50	2.50	1.50	2.00	-0.206055	0.029297	0.955078	-2.660000	4.340000	0.770000	789.00	-0.06	-0.06	4.25	2.25	3.50	2.25	3.75	1.75	4.00	1.25	1.25	0.75	0.25	0.00	2.00	0.25	0.00	0.75	-0.147461	0.055664	0.962402	-4.130000	1.330000	-0.280000	348.00	-0.11	-0.00
0.17	7.25	5.25	5.50	5.00	6.75	6.25	4.25	3.75	4.75	2.00	1.50	2.25	5.25	2.25	1.25	2.00	-0.201172	0.032715	0.958984	-2.590000	4.270000	0.700000	780.00	-0.06	-0.06	4.50	2.25	3.25	2.00	3.50	1.75	4.25	1.25	1.25	0.50	0.00	0.00	1.75	0.50	0.00	0.75	-0.149414	0.053711	0.964355	-3.990000	1.330000	-0.210000	340.00	-0.11	0.01
0.18	7.50	5.25	5.25	5.00	6.75	6.25	4.00	4.00	4.50	2.25	1.75	2.25	5.50	2.75	1.25	2.00	-0.205078	0.029297	0.956055	-2.660000	4.480000	0.700000	789.00	-0.06	-0.06	4.50	2.50	3.25	2.00	4.00	1.75	4.25	1.25	1.25	0.50	0.00	0.00	1.75	0.50	0.00	0.75	-0.148438	0.053711	0.958496	-3.850000	1.120000	-0.210000	348.00	-0.11	0.01
0.19	7.50	5.25	5.75	5.25	6.75	6.75	4.25	3.75	4.25	2.25	1.75	2.25	5.50	2.50	1.50	1.75	-0.205566	0.030273	0.958984	-2.800000	4.550000	0.630000	800.00	-0.06	-0.06	4.25	2.25	3.50	2.00	3.75	1.75	4.25	1.25	1.50	0.75	0.00	0.00	1.75	0.75	0.00	0.75	-0.151367	0.053223	0.966309	-3.710000	1.190000	-0.210000	352.00	-0.10	0.01
0.20	7.25	5.25	5.75	5.25	6.75	6.25	4.25	4.00	4.00	2.00	1.50	2.25	5.50	2.75	1.25	2.00	-0.205078	0.032227	0.963379	-2.870000	4.830000	0.630000	787.00	-0.06	-0.06	4.75	2.50	3.25	2.25	3.75	1.50	4.25	1.25	1.50	0.50	0.00	0.00	1.75	0.75	0.00	0.50	-0.146973	0.054688	0.960938	-3.570000	1.330000	-0.140000	353.00	-0.11	0.01
0.21	7.50	5.25	5.75	5.00	6.75	6.75	4.25	3.75	4.25	2.00	1.75	2.25	5.50	2.50	1.25	2.25	-0.205566	0.030762	0.958984	-2.590000	4.480000	0.770000	794.00	-0.06	-0.06	4.25	2.25	3.25	2.00	3.75	1.50	4.25	1.25	1.25	0.75	0.00	0.00	1.75	0.75	0.00	0.75	-0.147949	0.054688	0.960938	-3.430000	1.260000	-0.140000	342.00	-0.10	0.01
0.22	7.50	5.25	5.75	5.25	6.50	6.75	4.00	3.75	4.50	2.25	1.75	2.25	5.25	2.75	1.25	2.00	-0.202637	0.028320	0.959961	-2.450000	4.410000	0.700000	795.00	-0.06	-0.06	4.50	2.25	3.50	2.25	3.75	1.75	4.25	1.25	1.50	0.50	0.00	0.00	1.50	0.50	0.00	1.00	-0.152832	0.052246	0.961426	-3.360000	1.540000	-0.210000	352.00	-0.11	0.01
0.23	7.25	5.50	5.75	5.25	6.50	6.75	4.25	3.75	4.25	2.00	1.75	2.25	5.25	2.50	1.50	2.00	-0.198730	0.029785	0.958496	-2.590000	4.620000	0.700000	793.00	-0.06	-0.06	4.25	2.25	3.50	2.00	3.75	1.50	4.25	1.25	1.25	0.50	0.00	0.00	1.50	0.25	0.00	0.50	-0.150391	0.056152	0.959473	-3.220000	1.470000	-0.070000	334.00	-0.12	0.01
0.24	7.50	5.25	6.00	5.00	6.50	6.50	4.25	3.75	4.50	1.75	1.75	2.25	5.50	2.75	1.25	2.00	-0.201660	0.030762	0.958984	-2.660000	4.620000	0.770000	792.00	-0.06	-0.06	4.25	2.50	3.25	2.00	3.75	1.50	4.25	1.25	1.25	0.50	0.00	0.00	1.50	0.50	0.00	0.75	-0.149414	0.057617	0.961426	-3.150000	1.470000	-0.070000	337.00	-0.11	0.01
0.25	7.50	5.50	6.00	5.25	6.50	6.50	4.25	4.00	4.50	2.00	1.50	2.25	5.50	2.75	1.00	2.00	-0.201172	0.026855	0.956543	-2.730000	4.690000	0.700000	799.00	-0.07	-0.06	4.25	2.00	3.50	2.25	3.75	1.75	4.25	1.25	1.25	1.00	0.00	0.00	1.75	0.75	0.00	0.75	-0.148438	0.054688	0.962402	-3.220000	1.540000	-0.070000	352.00	-0.10	0.01
0.26	7.50	5.25	5.75	5.25	6.50	6.75	4.25	4.00	4.50	2.25	1.75	2.25	5.25	2.75	1.25	2.25	-0.201660	0.027344	0.955078	-2.730000	4.760000	0.630000	804.00	-0.06	-0.06	4.00	2.00	3.25	2.25	3.75	1.75	4.25	1.25	1.50	0.75	0.00	0.00	1.75	0.50	0.00	0.75	-0.146973	0.058105	0.965332	-3.150000	1.680000	-0.280000	344.00	-0.10	0.01
0.27	7.50	5.25	5.75	5.25	6.50	6.50	4.25	4.00	4.50	2.25	1.75	2.25	5.50	2.75	1.50	1.75	-0.198730	0.029785	0.957520	-2.730000	4.690000	0.700000	804.00	-0.06	-0.06	4.50	2.00	3.50	2.00	3.75	1.50	4.25	1.25	1.25	0.50	0.00	0.00	1.50	0.50	0.00	0.75	-0.146484	0.057617	0.959473	-3.220000	1.260000	-0.070000	338.00	-0.11	0.02
0.28	7.25	5.25	6.00	5.25	6.75	6.50	4.25	4.00	4.50	2.25	1.75	2.25	5.25	2.50	1.75	2.00	-0.202637	0.025391	0.953613	-2.520000	4.550000	0.700000	807.00	-0.06	-0.06	4.50	2.00	3.00	2.00	3.75	1.75	4.50	1.25	1.50	0.75	0.00	0.00	1.75	0.50	0.00	0.75	-0.149414	0.055176	0.962402	-3.220000	1.400000	-0.210000	348.00	-0.10	0.02
0.29	7.25	5.50	5.75	5.00	6.50	6.75	4.00	4.00	4.25	2.00	1.50	2.25	5.25	2.75	1.50	2.00	-0.202148	0.031738	0.954590	-2.590000	4.620000	0.700000	789.00	-0.06	-0.06	4.50	2.50	3.25	2.00	3.75	1.75	4.25	1.25	1.00	0.50	0.00	0.00	1.75	0.50	0.00	0.75	-0.151855	0.054688	0.961426	-3.080000	1.260000	-0.140000	342.00	-0.12	0.00
0.30	7.25	5.50	6.00	5.00	6.75	7.00	4.25	3.75	4.25	2.25	1.75	2.50	5.50	3.00	1.50	2.00	-0.204590	0.027344	0.954102	-2.590000	4.550000	0.700000	811.00	-0.06	-0.06	4.50	2.25	3.25	1.75	3.75	1.75	4.50	1.25	1.00	0.50	0.00	0.00	1.75	0.50	0.00	0.75	-0.149902	0.055176	0.963867	-3.080000	1.260000	-0.070000	340.00	-0.11	0.01
0.31	7.25	5.50	6.00	5.25	6.50	7.00	4.25	4.00	4.25	2.00	1.75	2.50	5.50	2.25	1.50	2.00	-0.201660	0.027344	0.957520	-2.590000	4.550000	0.700000	806.00	-0.06	-0.07	4.00	2.25	3.50	2.00	3.75	1.50	4.50	1.25	1.25	0.50	0.00	0.00	1.75	0.50	0.00	0.75	-0.143555	0.052734	0.961426	-3.080000	1.260000	-0.140000	341.00	-0.11	0.01
0.32	7.25	5.50	5.75	5.00	6.50	7.00	4.25	3.75	4.50	2.25	1.50	2.25	5.25	2.50	1.25	2.00	-0.205566	0.024414	0.959473	-2.450000	4.550000	0.770000	793.00	-0.06	-0.06	4.50	2.25	3.50	2.00	3.75	1.50	4.25	1.25	1.50	0.75	0.00	0.00	2.00	0.50	0.00	0.50	-0.152344	0.054199	0.963379	-3.150000	1.330000	-0.070000	350.00	-0.11	0.01
0.33	7.50	5.25	6.00	5.00	6.75	7.00	4.25	4.00	4.25	2.25	1.75	2.25	5.25	2.50	1.25	1.75	-0.208008	0.024414	0.958984	-2.660000	4.900000	0.630000	802.00	-0.06	-0.06	4.00	2.25	3.50	2.00	3.75	1.50	4.50	1.00	1.25	0.75	0.00	0.00	2.00	0.75	0.00	1.00	-0.147461	0.056152	0.960938	-3.150000	1.120000	-0.140000	346.00	-0.10	0.01
0.34	7.50	5.25	6.00	5.25	6.50	6.75	4.00	3.75	4.25	2.25	2.00	2.25	5.50	2.75	1.75	2.00	-0.201660	0.029785	0.960938	-2.730000	4.970000	0.630000	805.00	-0.06	-0.06	4.25	2.25	3.50	2.00	3.75	1.75	4.25	1.25	1.25	0.50	0.00	0.00	1.50	0.50	0.00	0.75	-0.145996	0.053223	0.964355	-3.150000	1.260000	-0.140000	341.00	-0.11	0.01
0.35	7.25	5.25	6.00	5.25	6.75	7.00	4.25	3.75	4.50	2.25	1.75	2.50	5.25	2.50	1.50	2.00	-0.200195	0.026855	0.955566	-2.730000	4.830000	0.560000	808.00	-0.06	-0.06	4.50	1.75	3.50	2.00	3.75	1.50	4.50	1.25	1.50	0.50	0.00	0.00	1.75	0.50	0.00	0.50	-0.144531	0.049805	0.956543	-3.080000	1.400000	-0.000000	344.00	-0.10	0.02
0.36	7.25	5.25	5.75	5.00	6.50	7.25	4.00	3.50	4.25	2.00	1.75	2.50	5.50	2.50	1.50	2.00	-0.204590	0.032715	0.962402	-2.660000	4.690000	0.700000	790.00	-0.06	-0.06	4.50	2.25	3.25	2.00	3.75	1.50	4.25	1.25	1.50	0.50	0.00	0.00	1.50	0.75	0.00	0.75	-0.146484	0.052246	0.962891	-3.150000	1.470000	-0.140000	344.00	-0.11	0.02
0.37	7.25	5.25	6.00	5.25	6.50	7.00	4.25	3.75	4.50	2.25	1.75	2.50	5.25	2.25	1.50	1.75	-0.209473	0.027832	0.958984	-2.730000	4.690000	0.700000	802.00	-0.06	-0.06	4.00	2.00	3.25	2.25	3.75	1.75	4.50	1.25	1.75	0.25	0.00	0.00	1.25	0.25	0.00	0.75	-0.149902	0.055664	0.964844	-3.220000	1.680000	-0.140000	339.00	-0.11	0.02
0.38	7.25	5.25	6.00	5.00	6.50	6.75	4.00	3.75	4.50	2.25	1.50	2.25	5.25	2.50	1.25	2.00	-0.205566	0.023926	0.959473	-2.660000	4.690000	0.630000	787.00	-0.06	-0.06	4.00	2.25	3.25	2.25	3.75	1.50	4.25	1.25	1.25	0.50	0.00	0.00	1.75	0.50	0.00	0.50	-0.148438	0.056641	0.968262	-3.220000	1.400000	-0.140000	336.00	-0.11	0.01
0.39	7.25	5.50	5.75	5.00	6.50	7.50	4.25	3.75	5.00	2.25	1.75	2.25	5.50	2.50	1.50	1.75	-0.208984	0.027832	0.965332	-2.730000	4.760000	0.560000	813.00	-0.06	-0.06	4.00	2.00	3.25	1.75	4.00	1.25	4.50	1.25	1.25	0.50	0.00	0.00	1.75	0.50	0.00	0.75	-0.149902	0.053223	0.963379	-3.220000	1.330000	-0.140000	333.00	-0.10	0.02
0.40	7.25	5.25	5.75	5.00	6.50	7.00	4.00	3.75	4.75	2.25	1.50	2.25	5.50	2.50	1.25	2.00	-0.204102	0.027344	0.950684	-2.730000	4.760000	0.630000	792.00	-0.06	-0.06	4.25	2.25	3.25	2.00	4.00	1.50	4.25	1.00	1.25	1.00	0.25	0.00	2.25	0.75	0.00	0.75	-0.149902	0.051758	0.964355	-3.150000	1.540000	-0.070000	352.00	-0.10	0.01
0.41	7.00	5.25	5.75	5.00	6.50	7.00	4.00	3.75	4.25	2.25	1.50	1.25	2.75	1.00	0.00	1.00	-0.206543	0.032227	0.959961	-2.730000	4.830000	0.700000	711.00	-0.10	-0.05	4.00	2.00	3.25	2.00	3.75	1.50	4.25	1.25	1.25	0.75	0.00	0.00	2.00	0.50	0.00	0.75	-0.147949	0.055664	0.963379	-3.080000	1.330000	-0.140000	337.00	-0.10	0.01
0.42	5.50	3.25	5.00	3.25	5.75	6.00	3.75	2.25	2.50	0.75	0.50	1.00	3.50	1.00	0.25	0.75	-0.208496	0.029785	0.956543	-2.660000	4.690000	0.630000	546.00	-0.10	-0.05	4.25	2.25	3.25	2.00	3.75	1.50	4.25	1.25	1.25	0.50	0.00	0.00	1.25	0.75	0.25	0.75	-0.148438	0.050781	0.959473	-3.080000	1.330000	-0.210000	338.00	-0.11	0.02
0.43	6.50	4.75	5.00	3.50	5.75	6.00	3.75	2.25	2.75	1.00	0.50	1.25	3.75	1.00	0.00	0.75	-0.205078	0.027344	0.956055	-2.660000	4.760000	0.630000	584.00	-0.11	-0.05	4.50	2.25	3.25	2.00	3.75	1.50	4.50	1.00	1.25	0.75	0.00	0.00	1.75	0.50	0.00	0.75	-0.157715	0.053711	0.960938	-3.150000	1.330000	-0.140000	343.00	-0.11	0.02
0.44	6.00	3.00	4.25	2.50	5.75	6.00	4.00	2.50	2.50	1.00	0.50	1.00	3.50	0.75	0.25	1.00	-0.200195	0.028320	0.961426	-2.590000	4.760000	0.700000	541.00	-0.09	-0.05	4.25	2.25	3.25	2.00	4.00	1.75	4.25	1.25	1.25	0.75	0.00	0.00	1.50	0.50	0.00	1.00	-0.149414	0.051270	0.964355	-3.150000	1.330000	-0.140000	345.00	-0.11	0.01
0.45	6.50	5.00	5.50	4.50	6.50	6.50	4.25	3.50	4.50	2.25	1.50	2.25	5.25	2.75	1.75	1.75	-0.203613	0.028320	0.958496	-2.590000	4.830000	0.770000	767.00	-0.05	-0.06	4.50	2.25	3.00	1.75	3.75	1.50	4.25	1.25	1.25	0.75	0.00	0.00	2.00	0.50	0.00	0.75	-0.142090	0.053223	0.959473	-3.010000	1.330000	-0.070000	339.00	-0.10	0.01
0.46	5.50	2.50	4.75	2.50	5.50	5.50	3.75	2.50	3.00	1.25	0.50	1.00	3.75	1.25	0.25	1.00	-0.202637	0.032715	0.964844	-2.660000	4.830000	0.770000	540.00	-0.08	-0.04	4.25	2.25	3.25	2.00	3.75	1.75	4.50	1.50	1.50	1.00	0.00	0.00	1.75	0.50	0.00	0.50	-0.151367	0.058105	0.965820	-3.080000	1.540000	-0.140000	356.00	-0.10	0.01
0.47	5.75	4.00	5.00	3.25	5.75	5.75	4.00	2.50	2.75	1.00	0.75	1.25	3.75	1.00	0.25	1.00	-0.203613	0.030273	0.955078	-2.660000	4.760000	0.700000	577.00	-0.09	-0.05	4.00	2.00	3.50	2.00	3.75	1.50	4.50	1.25	1.50	0.50	0.00	0.00	2.00	0.50	0.00	0.75	-0.145996	0.054199	0.958984	-2.940000	1.470000	-0.210000	345.00	-0.10	0.01
0.48	5.75	4.25	4.75	3.25	6.00	6.00	3.75	2.75	2.75	1.00	0.75	1.25	4.00	1.00	0.25	1.00	-0.204102	0.028320	0.965332	-2.590000	4.620000	0.700000	585.00	-0.09	-0.06	4.25	2.00	3.25	2.00	3.75	1.75	4.50	1.25	1.50	0.75	0.25	0.00	2.00	0.50	0.00	1.00	-0.146484	0.053711	0.963867	-3.010000	1.610000	-0.210000	355.00	-0.09	0.01
0.49	5.75	3.75	5.00	3.00	5.75	5.50	4.00	2.50	2.75	1.00	0.50	1.25	3.50	1.00	0.25	1.00	-0.202148	0.031250	0.958984	-2.660000	4.760000	0.630000	564.00	-0.09	-0.04	4.00	2.00	2.75	2.00	3.75	1.50	4.50	1.25	1.50	0.50	0.00	0.00	1.75	0.75	0.25	0.75	-0.145020	0.050781	0.960938	-2.940000	1.470000	-0.140000	339.00	-0.09	0.02
0.50	5.75	3.75	5.00	3.25	5.75	5.75	3.75	2.50	2.50	1.00	0.75	1.00	3.50	1.00	0.25	1.00	-0.203613	0.025879	0.957520	-2.870000	5.040000	0.560000	562.00	-0.10	-0.05	4.25	2.00	3.25	2.00	4.00	1.50	4.50	1.25	1.25	0.75	0.25	0.00	1.50	0.75	0.00	0.75	-0.151367	0.055664	0.965332	-2.940000	1.680000	-0.280000	347.00	-0.10	0.02
0.51	5.75	3.75	5.00	3.50	6.00	5.50	4.00	2.50	2.50	1.25	0.75	1.25	3.75	1.00	0.25	1.00	-0.205078	0.031738	0.958984	-2.660000	4.760000	0.700000	577.00	-0.09	-0.05	4.25	2.00	3.00	1.75	3.75	1.50	4.50	1.25	1.50	1.00	0.00	0.00	2.00	0.75	0.00	1.00	-0.145020	0.053711	0.964844	-2.940000	1.470000	-0.280000	348.00	-0.09	0.02
0.52	5.75	3.75	4.75	3.50	5.75	5.50	4.00	2.50	2.75	1.00	0.75	1.00	3.50	1.00	0.25	1.00	-0.211426	0.026367	0.959473	-2.520000	4.830000	0.700000	567.00	-0.09	-0.05	3.75	2.00	3.00	2.00	3.75	1.50	4.50	1.25	1.50	1.00	0.00	0.00	1.50	0.50	0.00	1.00	-0.146973	0.050781	0.960449	-2.870000	1.540000	-0.350000	338.00	-0.09	0.02
0.53	5.50	3.75	5.00	3.50	5.75	5.50	4.00	2.50	2.75	1.25	0.75	1.25	3.50	1.00	0.25	0.75	-0.207031	0.032227	0.957031	-2.590000	4.900000	0.700000	571.00	-0.09	-0.05	4.00	2.00	3.00	1.75	3.75	1.50	4.50	1.25	1.50	0.75	0.00	0.00	2.25	0.50	0.00	0.75	-0.148438	0.046387	0.960449	-2.870000	1.540000	-0.140000	341.00	-0.09	0.01
0.54	5.75	3.75	5.00	3.25	5.75	5.75	3.75	2.50	2.75	1.25	0.50	1.00	3.50	1.00	0.25	0.75	-0.205566	0.033203	0.961426	-2.660000	4.970000	0.700000	564.00	-0.10	-0.05	4.00	2.00	3.25	1.75	3.75	1.50	4.50	1.25	1.50	0.75	0.25	0.00	1.75	0.75	0.00	0.75	-0.148926	0.052246	0.963379	-2.660000	1.610000	-0.210000	345.00	-0.09	0.02
0.55	5.50	3.50	5.00	3.25	6.00	5.50	3.75	2.50	2.75	1.00	0.75	1.00	3.50	0.75	0.50	1.00	-0.204590	0.029785	0.955566	-2.660000	4.830000	0.700000	561.00	-0.09	-0.05	3.75	2.00	2.75	1.75	3.75	1.50	4.50	1.25	1.75	0.75	0.00	0.00	2.00	0.75	0.00	0.75	-0.151855	0.057129	0.962891	-2.800000	1.470000	-0.140000	339.00	-0.08	0.02
0.56	5.50	3.50	4.75	3.25	5.75	5.50	4.00	2.50	3.00	1.00	0.75	1.00	3.25	1.00	0.25	0.75	-0.204590	0.026855	0.953125	-2.590000	4.760000	0.700000	558.00	-0.09	-0.04	4.00	2.00	3.25	1.75	4.00	1.50	4.50	1.50	1.50	1.00	0.00	0.00	2.00	0.25	0.00	0.75	-0.150879	0.055176	0.960938	-2.870000	1.400000	-0.070000	349.00	-0.09	0.01
0.57	5.50	4.00	4.75	3.25	5.75	5.75	3.75	2.50	2.50	1.00	0.50	1.00	3.50	1.25	0.25	1.00	-0.205078	0.029785	0.962402	-2.660000	4.690000	0.700000	558.00	-0.10	-0.05	3.75	1.75	2.75	1.75	3.75	1.75	4.50	1.50	1.50	1.00	0.00	0.00	1.75	0.50	0.00	0.75	-0.146484	0.054199	0.967773	-2.800000	1.470000	-0.000000	338.00	-0.08	0.01
0.58	5.50	3.25	5.00	3.25	5.75	5.50	4.00	2.50	2.75	1.00	0.75	1.25	3.75	0.75	0.00	1.00	-0.204590	0.024902	0.959961	-2.660000	4.690000	0.630000	559.00	-0.09	-0.05	3.50	2.00	3.25	1.75	3.75	1.25	4.50	1.25	1.75	0.75	0.00	0.00	2.00	0.50	0.00	1.00	-0.149414	0.056641	0.958984	-2.870000	1.470000	-0.140000	338.00	-0.08	0.02
0.59	5.75	3.50	5.00	3.00	5.75	5.50	3.75	2.75	2.75	1.25	0.50	1.25	3.75	1.00	0.25	0.75	-0.208008	0.030273	0.954590	-2.660000	4.690000	0.630000	565.00	-0.09	-0.05	4.00	1.75	3.00	2.00	3.75	1.50	4.50	1.50	1.75	0.75	0.25	0.00	2.25	0.50	0.00	0.50	-0.146484	0.055664	0.957520	-2.870000	1.330000	-0.070000	351.00	-0.08	0.01
0.60	5.25	3.75	4.75	3.25	5.75	5.50	3.75	2.50	2.75	1.25	0.75	1.00	4.00	1.00	0.50	0.75	-0.204102	0.027344	0.954590	-2.660000	4.620000	0.700000	563.00	-0.09	-0.05	3.75	2.00	3.00	1.50	3.75	1.50	4.50	1.25	1.75	1.00	0.00	0.00	2.00	0.75	0.00	1.00	-0.148438	0.050293	0.958008	-3.010000	1.470000	-0.140000	343.00	-0.07	0.02
0.61	5.50	3.75	5.00	3.25	5.75	5.50	3.75	2.50	3.00	1.25	0.50	1.00	3.25	1.00	0.25	1.00	-0.203125	0.034180	0.964844	-2.590000	4.620000	0.560000	561.00	-0.09	-0.04	3.75	1.75	3.00	1.75	3.75	1.75	4.50	1.25	1.75	1.00	0.00	0.00	2.25	0.50	0.00	0.75	-0.146973	0.056641	0.962891	-3.080000	1.400000	-0.210000	345.00	-0.08	0.01
0.62	5.75	3.50	4.75	3.25	5.75	5.50	3.75	2.50	2.50	1.00	0.75	1.25	4.00	1.00	0.25	1.00	-0.205566	0.029297	0.961914	-2.520000	4.550000	0.630000	561.00	-0.09	-0.05	4.00	2.00	3.25	1.75	3.75	1.75	4.50	1.50	1.50	0.75	0.25	0.00	2.00	0.75	0.00	0.75	-0.148926	0.054199	0.963379	-3.080000	1.260000	-0.070000	354.00	-0.09	0.01
0.63	5.75	3.25	4.75	3.25	5.75	5.50	3.75	2.50	2.50	1.25	0.50	1.25	3.50	1.00	0.25	1.00	-0.205566	0.027344	0.955566	-2.660000	4.690000	0.700000	554.00	-0.09	-0.05	3.75	2.00	3.00	1.75	4.00	1.75	4.50	1.25	1.50	1.00	0.00	0.00	2.50	0.75	0.00	1.00	-0.148926	0.054688	0.964355	-3.010000	1.540000	-0.210000	353.00	-0.08	0.01
0.64	5.50	3.50	4.75	3.25	5.75	5.50	3.75	2.75	2.50	1.25	0.75	1.00	3.75	1.25	0.25	1.00	-0.208008	0.027344	0.957520	-2.660000	4.760000	0.770000	562.00	-0.09	-0.05	3.75	2.00	3.00	1.50	4.00	1.50	4.50	1.25	2.00	1.00	0.00	0.00	2.00	0.50	0.25	1.00	-0.149414	0.054199	0.958496	-2.940000	1.400000	-0.140000	350.00	-0.07	0.02
0.65	5.50	3.50	4.75	3.00	5.75	5.50	3.75	2.75	2.50	1.00	0.75	1.00	3.50	1.00	0.25	1.00	-0.204590	0.025391	0.965820	-2.730000	4.900000	0.700000	552.00	-0.09	-0.05	3.75	1.75	3.25	1.75	4.00	1.75	4.50	1.25	1.50	0.75	0.00	0.00	1.75	0.50	0.00	1.00	-0.148438	0.051270	0.956543	-2.940000	1.540000	-0.140000	341.00	-0.09	0.02
0.66	5.50	3.00	4.75	3.25	5.75	5.75	3.75	2.75	2.75	1.00	0.50	1.00	3.75	0.75	0.50	0.75	-0.206055	0.022461	0.960938	-2.730000	4.900000	0.630000	555.00	-0.09	-0.05	3.50	2.00	2.75	1.50	4.00	1.50	4.50	1.25	1.75	0.75	0.00	0.00	2.00	0.50	0.00	0.75	-0.145996	0.050781	0.964355	-3.010000	1.470000	-0.070000	333.00	-0.08	0.02
0.67	5.50	3.50	5.00	3.25	5.75	5.50	3.75	2.50	2.50	1.00	0.75	0.75	3.50	1.25	0.25	1.00	-0.204102	0.035645	0.952148	-2.660000	4.830000	0.700000	553.00	-0.09	-0.05	3.25	1.75	3.00	1.75	4.00	1.50	4.50	1.25	2.00	1.00	0.00	0.00	2.25	0.75	0.00	0.75	-0.145996	0.056641	0.962891	-3.080000	1.330000	-0.000000	345.00	-0.07	0.02
0.68	5.75	3.25	5.00	3.50	5.75	5.50	3.75	2.50	2.75	1.25	0.50	1.00	3.50	1.00	0.25	1.00	-0.208496	0.027344	0.959961	-2.660000	4.830000	0.630000	560.00	-0.09	-0.05	3.75	2.00	3.00	1.50	4.00	1.75	4.50	1.25	1.25	0.75	0.00	0.00	2.00	0.75	0.25	0.50	-0.151855	0.054199	0.959961	-3.010000	1.470000	-0.210000	339.00	-0.09	0.01
0.69	5.50	3.50	5.00	3.25	5.75	5.75	3.75	2.75	2.75	1.25	0.50	1.00	3.50	1.25	0.50	1.00	-0.206543	0.030762	0.958496	-2.660000	4.830000	0.630000	569.00	-0.09	-0.05	3.75	2.00	3.00	1.75	4.00	1.75	4.50	1.50	1.50	0.75	0.00	0.00	2.00	0.50	0.00	0.75	-0.145508	0.053223	0.954102	-3.080000	1.540000	-0.210000	346.00	-0.09	0.01
0.70	5.75	3.50	5.00	3.25	5.75	5.75	3.75	2.50	2.50	1.25	0.50	1.25	4.00	1.00	0.50	0.75	-0.209961	0.030273	0.960449	-2.590000	4.620000	0.700000	568.00	-0.09	-0.05	3.75	1.75	3.00	1.75	4.00	1.75	4.50	1.25	1.75	0.75	0.25	0.00	2.25	0.50	0.00	1.00	-0.145508	0.051270	0.960938	-3.010000	1.470000	-0.210000	350.00	-0.08	0.01
0.71	5.75	3.50	5.00	3.00	5.75	5.50	3.75	2.50	2.75	1.25	0.50	1.00	3.75	1.00	0.25	1.00	-0.201660	0.027344	0.955078	-2.660000	4.620000	0.630000	559.00	-0.09	-0.05	3.75	1.25	3.00	1.50	4.00	1.50	4.50	1.25	1.75	0.75	0.00	0.00	2.00	0.50	0.00	0.75	-0.149902	0.055176	0.968750	-3.080000	1.330000	-0.140000	332.00	-0.08	0.02
0.72	5.75	3.50	4.75	3.25	5.75	5.50	3.75	2.50	2.75	1.25	0.75	1.25	3.50	0.75	0.25	1.00	-0.202148	0.029785	0.961426	-2.660000	4.620000	0.700000	560.00	-0.09	-0.05	3.50	2.00	2.75	1.75	4.25	1.50	4.50	1.25	1.75	0.75	0.25	0.00	2.00	0.75	0.25	0.75	-0.149902	0.050781	0.958984	-3.150000	1.540000	-0.210000	348.00	-0.07	0.02
0.73	5.50	3.75	5.00	3.25	5.75	5.50	3.75	2.50	2.75	1.00	0.50	1.00	3.75	1.25	0.25	1.00	-0.201660	0.027344	0.957031	-2.660000	4.690000	0.630000	561.00	-0.09	-0.05	3.75	2.00	2.75	1.75	4.25	1.50	4.50	1.25	1.75	0.75	0.00	0.00	2.00	0.50	0.00	0.75	-0.152832	0.057617	0.963867	-3.080000	1.400000	-0.070000	342.00	-0.08	0.02
0.74	5.50	3.75	4.75	3.25	5.50	5.50	3.75	2.50	2.75	1.00	0.50	1.00	3.50	1.00	0.25	1.00	-0.203613	0.026855	0.958984	-2.660000	4.760000	0.700000	551.00	-0.09	-0.05	3.75	2.00	3.00	1.75	4.00	1.50	4.50	1.25	1.50	0.75	0.00	0.00	2.00	0.50	0.00	0.75	-0.145508	0.055176	0.960938	-3.080000	1.470000	0.070000	339.00	-0.09	0.01
0.75	5.50	3.25	5.00	3.25	5.50	5.50	3.75	2.50	2.75	1.25	0.75	1.00	3.75	1.25	0.50	0.75	-0.207520	0.030762	0.957520	-2.590000	4.690000	0.770000	561.00	-0.08	-0.05	3.75	2.00	3.25	2.00	4.00	1.75	4.50	1.25	2.00	1.00	0.00	0.00	2.25	0.75	0.00	0.75	-0.145996	0.052246	0.962891	-3.080000	1.610000	-0.070000	362.00	-0.08	0.01
0.76	5.75	3.50	5.00	3.25	5.75	5.50	3.75	2.50	2.75	1.25	0.75	1.00	4.00	1.00	0.25	1.00	-0.208008	0.028809	0.957520	-2.590000	4.620000	0.700000	568.00	-0.09	-0.05	3.75	2.00	2.75	1.75	4.25	1.50	4.50	1.75	1.75	0.75	0.00	0.00	2.25	0.50	0.00	0.75	-0.146484	0.051270	0.959961	-2.940000	1.330000	-0.140000	353.00	-0.08	0.00
0.77	5.50	3.75	4.75	3.00	5.50	5.50	3.75	2.50	2.50	1.00	0.75	1.25	3.75	1.00	0.00	1.00	-0.200195	0.025879	0.958008	-2.590000	4.480000	0.770000	549.00	-0.09	-0.05	3.75	2.00	3.00	2.00	4.00	1.75	4.50	1.50	1.50	0.75	0.25	0.00	2.00	0.75	0.00	1.00	-0.151855	0.054199	0.957520	-3.080000	1.260000	-0.000000	356.00	-0.08	0.00
0.78	5.50	3.75	4.75	3.25	6.00	5.75	3.75	2.25	3.00	1.25	0.50	1.00	3.50	0.75	0.25	1.00	-0.207520	0.026855	0.956055	-2.590000	4.550000	0.770000	560.00	-0.09	-0.04	3.75	2.00	2.75	1.75	4.25	1.50	4.50	1.50	1.50	0.75	0.25	0.00	2.25	0.50	0.00	1.00	-0.151855	0.049316	0.952637	-3.150000	1.470000	-0.070000	350.00	-0.08	0.00
0.79	5.75	3.50	4.75	3.00	5.75	5.50	3.75	2.50	3.00	1.00	0.75	1.00	4.00	1.00	0.25	1.00	-0.203125	0.025391	0.962891	-2.730000	4.830000	0.700000	562.00	-0.09	-0.05	3.75	2.00	3.00	2.00	4.25	1.50	4.50	1.25	1.50	0.75	0.00	0.00	2.25	0.50	0.00	0.75	-0.143066	0.049805	0.955566	-3.080000	1.260000	-0.000000	347.00	-0.09	0.01
0.80	5.25	3.25	4.75	3.00	5.75	5.50	3.75	2.50	2.75	1.00	0.75	1.25	3.75	1.00	0.25	0.75	-0.204590	0.030762	0.954590	-2.940000	5.040000	0.560000	550.00	-0.09	-0.05	3.50	2.00	3.25	1.75	4.25	1.50	4.50	1.50	1.75	0.75	0.25	0.00	1.75	0.50	0.00	0.75	-0.145020	0.051270	0.960449	-3.290000	1.330000	-0.000000	350.00	-0.08	0.01
0.81	5.50	3.50	4.75	3.00	5.75	5.50	3.75	2.50	2.75	1.25	0.50	1.25	4.00	1.00	0.25	1.00	-0.207520	0.032715	0.958008	-2.870000	4.690000	0.770000	559.00	-0.09	-0.05	3.50	2.00	3.00	2.00	4.25	1.50	4.50	1.50	1.75	0.75	0.00	0.00	2.25	0.75	0.00	0.75	-0.154297	0.054199	0.956055	-3.080000	1.260000	-0.070000	354.00	-0.08	0.01
0.82	5.50	3.50	4.50	3.25	5.75	5.50	3.75	2.75	2.75	1.25	0.75	1.00	3.50	1.25	0.00	1.00	-0.205078	0.025391	0.953613	-2.730000	4.550000	0.700000	557.00	-0.09	-0.05	3.50	2.00	3.00	1.50	4.25	1.50	4.50	1.25	1.75	0.75	0.00	0.00	2.00	0.50	0.00	0.75	-0.148438	0.054199	0.961914	-3.150000	1.330000	-0.070000	340.00	-0.08	0.02
0.83	5.50	3.50	4.75	3.25	5.75	5.50	3.75	2.50	2.75	1.00	0.50	1.00	3.50	1.25	0.50	1.25	-0.206543	0.029785	0.958984	-2.660000	4.550000	0.700000	558.00	-0.09	-0.05	3.50	1.75	3.00	1.75	4.25	1.50	4.50	1.50	1.50	0.75	0.25	0.25	2.25	0.50	0.00	1.25	-0.145508	0.056641	0.958008	-3.150000	1.260000	-0.000000	352.00	-0.07	0.00
0.84	5.50	3.25	4.75	3.00	5.75	5.50	3.75	2.50	2.75	1.00	0.50	1.25	3.75	1.00	0.25	0.75	-0.209473	0.028320	0.958008	-2.730000	4.690000	0.630000	549.00	-0.09	-0.05	3.75	2.00	3.25	1.75	4.00	1.75	4.50	1.50	1.50	0.75	0.25	0.00	2.25	0.50	0.00	0.75	-0.147949	0.053223	0.965332	-3.150000	1.470000	-0.210000	354.00	-0.09	0.00
0.85	5.75	3.50	5.00	3.25	5.75	5.50	3.75	2.50	2.75	1.50	0.75	1.00	4.25	1.25	0.25	1.00	-0.203613	0.029297	0.954102	-2.730000	4.690000	0.630000	575.00	-0.09	-0.05	4.00	1.75	3.25	2.00	4.25	1.75	4.50	1.50	1.50	0.75	0.00	0.00	2.25	0.50	0.00	0.75	-0.141602	0.055176	0.964355	-3.150000	1.540000	-0.210000	358.00	-0.09	0.01
0.86	5.50	3.75	4.75	3.00	5.75	5.50	3.75	2.50	2.75	1.00	0.50	1.00	3.50	1.25	0.25	1.00	-0.205078	0.029297	0.954590	-2.730000	4.690000	0.630000	553.00	-0.09	-0.05	3.75	2.00	3.00	1.75	4.00	1.50	4.50	1.25	1.50	1.00	0.00	0.00	2.25	0.75	0.00	0.50	-0.147949	0.051270	0.955566	-3.150000	1.470000	-0.210000	345.00	-0.08	0.01
0.87	5.50	3.25	4.75	3.00	5.75	5.50	3.50	2.50	2.75	1.25	0.75	1.00	4.00	1.00	0.25	1.00	-0.208984	0.025391	0.958008	-2.730000	4.760000	0.700000	552.00	-0.09	-0.05	3.75	2.00	3.25	2.25	4.25	1.75	4.50	1.50	1.50	0.75	0.00	0.00	2.25	0.50	0.00	0.75	-0.145996	0.050781	0.963867	-3.010000	1.540000	-0.210000	360.00	-0.09	0.00
0.88	5.50	3.50	4.50	3.00	5.75	5.50	3.50	2.25	2.75	1.25	0.75	1.00	3.75	1.00	0.25	0.75	-0.206543	0.026855	0.957031	-2.730000	4.760000	0.770000	543.00	-0.09	-0.05	3.75	2.00	2.75	2.00	4.00	1.50	4.50	1.25	1.75	1.00	0.25	0.00	2.25	0.50	0.00	1.00	-0.149902	0.053223	0.958984	-2.940000	1.610000	-0.210000	352.00	-0.08	0.01
0.89	5.50	3.25	4.75	3.00	5.75	5.50	3.75	2.50	2.75	1.25	0.75	1.25	4.00	1.00	0.50	1.00	-0.203125	0.022949	0.958496	-2.730000	4.760000	0.770000	562.00	-0.08	-0.05	3.50	1.75	3.00	1.75	4.25	1.50	4.50	1.50	1.50	1.00	0.25	0.00	2.00	0.75	0.25	1.00	-0.150391	0.055176	0.960938	-3.010000	1.470000	-0.070000	353.00	-0.07	0.01
0.90	5.75	3.50	4.75	3.25	5.50	5.50	3.75	2.75	3.00	1.25	0.75	1.00	3.50	1.00	0.25	1.00	-0.202637	0.026855	0.957031	-2.660000	4.760000	0.770000	564.00	-0.09	-0.05	3.75	2.00	3.00	1.75	4.00	1.50	4.50	1.50	1.75	1.00	0.00	0.00	2.25	0.75	0.00	0.75	-0.150879	0.050293	0.958008	-3.080000	1.400000	-0.000000	354.00	-0.08	0.01
0.91	5.50	4.00	4.75	3.00	5.75	5.50	3.75	2.50	3.00	1.00	0.75	1.25	3.25	1.00	0.25	0.75	-0.206543	0.027832	0.962402	-2.590000	4.690000	0.700000	559.00	-0.09	-0.04	4.00	2.00	3.25	2.00	4.50	1.50	4.50	1.50	1.75	0.75	0.00	0.00	2.00	0.75	0.00	0.75	-0.145508	0.049316	0.960449	-3.150000	1.470000	-0.210000	364.00	-0.09	0.01
0.92	5.75	3.50	4.50	3.00	5.75	5.50	3.75	2.25	3.00	1.00	0.75	1.00	4.00	1.00	0.25	0.75	-0.204590	0.035645	0.962402	-2.590000	4.410000	0.630000	553.00	-0.09	-0.04	3.50	2.00	3.00	2.00	4.25	1.75	4.50	1.50	1.75	1.00	0.25	0.00	2.25	0.75	0.00	1.00	-0.148926	0.054688	0.962402	-3.220000	1.470000	-0.140000	365.00	-0.07	0.00
0.93	5.50	3.50	5.00	2.75	5.75	5.50	3.50	2.75	2.50	1.00	0.50	1.00	4.00	1.50	0.50	1.25	-0.206055	0.028809	0.959473	-2.660000	4.550000	0.560000	558.00	-0.08	-0.05	3.50	1.75	3.25	1.75	4.25	1.50	4.50	1.50	1.75	0.75	0.00	0.00	2.00	0.75	0.25	0.75	-0.149414	0.055664	0.965332	-3.220000	1.470000	-0.140000	352.00	-0.07	0.01
0.94	5.50	3.25	4.75	3.00	5.50	5.50	3.50	2.50	2.75	0.75	0.50	1.25	4.00	1.00	0.50	1.00	-0.204590	0.028809	0.963379	-2.660000	4.690000	0.700000	546.00	-0.09	-0.05	4.00	1.75	3.00	2.00	4.25	1.75	4.50	1.50	1.50	0.75	0.00	0.00	2.00	0.75	0.00	1.00	-0.152344	0.057617	0.959473	-3.080000	1.470000	-0.140000	356.00	-0.09	0.01
0.95	5.50	3.50	4.75	3.00	5.75	5.50	3.50	2.50	3.00	1.00	0.50	1.00	4.00	1.00	0.25	1.00	-0.203125	0.025879	0.961914	-2.870000	4.900000	0.700000	552.00	-0.09	-0.05	3.50	2.00	3.00	1.75	4.50	1.50	4.50	1.25	1.50	0.75	0.00	0.00	2.25	0.50	0.00	1.00	-0.147461	0.052246	0.959473	-3.080000	1.400000	-0.070000	346.00	-0.08	0.01
0.96	5.50	3.25	4.75	3.25	5.75	5.50	3.50	2.50	2.75	1.00	0.50	1.25	4.00	1.00	0.50	1.00	-0.200195	0.022461	0.954590	-3.010000	4.830000	0.700000	555.00	-0.09	-0.05	4.00	1.75	3.00	1.75	4.50	1.50	4.50	1.25	1.50	0.75	0.00	0.00	2.25	0.75	0.00	1.25	-0.145020	0.052734	0.965820	-3.010000	1.260000	-0.000000	353.00	-0.08	0.01
0.97	5.50	3.25	4.75	2.75	5.50	5.50	3.50	2.50	2.75	1.00	0.75	1.25	3.75	1.25	0.25	1.00	-0.202637	0.028809	0.956543	-2.870000	4.760000	0.700000	546.00	-0.08	-0.05	3.75	1.75	3.00	2.00	4.25	1.50	4.50	1.75	1.50	0.75	0.00	0.00	2.00	0.50	0.25	0.75	-0.146973	0.060547	0.965820	-3.010000	1.470000	-0.140000	353.00	-0.08	0.00
0.98	5.50	3.50	4.75	2.75	5.50	5.50	3.50	2.50	2.75	1.00	0.75	1.00	3.75	1.25	0.50	1.00	-0.208984	0.034668	0.964355	-2.730000	4.620000	0.770000	549.00	-0.08	-0.05	4.00	2.00	3.00	2.00	4.25	1.75	4.50	1.25	1.50	0.75	0.00	0.00	2.25	0.75	0.00	1.00	-0.144043	0.057617	0.960938	-3.010000	1.400000	-0.070000	357.00	-0.09	0.01
0.99	5.50	3.50	4.75	3.00	5.50	5.50	3.75	2.50	2.50	0.75	0.50	1.00	3.75	1.00	0.25	0.75	-0.207031	0.028809	0.953125	-2.730000	4.690000	0.770000	540.00	-0.10	-0.05	4.00	2.25	3.00	2.25	4.25	1.50	4.50	1.50	1.50	1.00	0.25	0.00	2.00	0.50	0.00	0.75	-0.145508	0.050781	0.966797	-2.940000	1.330000	-0.000000	363.00	-0.09	0.01
1.00	5.50	3.50	4.75	3.25	5.50	5.50	3.50	2.50	2.75	1.25	0.75	1.00	3.50	1.25	0.25	1.00	-0.201172	0.026855	0.955078	-2.730000	4.550000	0.700000	552.00	-0.09	-0.05	3.75	2.00	2.75	1.75	4.25	1.50	4.75	1.25	1.50	0.75	0.00	0.00	1.75	0.50	0.00	0.75	-0.145996	0.055176	0.958496	-2.940000	1.260000	-0.140000	341.00	-0.09	0.02
1.01	5.50	3.50	4.75	3.00	5.75	5.50	3.50	2.50	2.75	1.00	0.75	1.00	3.50	1.25	0.25	1.00	-0.210449	0.033203	0.953613	-2.730000	4.690000	0.630000	549.00	-0.09	-0.05	4.00	2.00	3.00	1.75	4.25	1.50	4.50	1.25	1.50	0.75	0.00	0.00	2.00	0.50	0.00	0.75	-0.152832	0.052734	0.959961	-2.940000	1.400000	-0.140000	345.00	-0.09	0.02
1.02	5.25	3.25	4.75	3.25	5.50	5.50	3.75	2.50	2.75	1.00	0.50	1.00	3.50	1.00	0.00	0.75	-0.209961	0.028809	0.958496	-2.730000	4.620000	0.700000	539.00	-0.09	-0.05	4.00	2.00	3.00	1.75	4.25	1.75	4.50	1.25	1.75	0.75	0.00	0.00	2.25	0.75	0.00	0.75	-0.143555	0.051270	0.957520	-3.010000	1.260000	-0.140000	356.00	-0.08	0.01
1.03	5.50	4.00	4.75	3.25	5.50	5.50	3.50	2.50	2.75	1.00	0.50	1.25	3.50	1.50	0.25	0.75	-0.209473	0.022949	0.963379	-2.800000	4.550000	0.700000	555.00	-0.09	-0.05	3.75	2.00	3.00	1.75	4.25	1.25	4.75	1.25	1.50	0.75	0.00	0.00	2.00	0.75	0.25	0.75	-0.146973	0.057617	0.959961	-3.080000	1.330000	-0.070000	348.00	-0.08	0.02
1.04	5.50	3.75	4.75	3.00	5.50	5.50	3.75	2.50	2.75	1.25	0.50	1.00	3.25	1.00	0.50	0.75	-0.202148	0.026855	0.958984	-2.730000	4.620000	0.630000	550.00	-0.09	-0.04	4.00	2.00	3.00	1.75	4.25	1.75	4.75	1.25	1.50	1.00	0.00	0.00	2.00	0.50	0.00	0.50	-0.146484	0.054199	0.962891	-3.150000	1.260000	-0.070000	353.00	-0.09	0.02
1.05	5.50	3.50	4.75	3.00	5.50	5.50	3.50	2.50	2.50	1.00	0.50	1.00	3.50	1.25	0.25	1.00	-0.207031	0.029785	0.958984	-2.800000	4.480000	0.700000	540.00	-0.09	-0.05	3.75	2.00	3.25	1.75	4.00	1.50	4.50	1.50	1.50	1.00	0.00	0.00	2.25	0.50	0.00	0.75	-0.148438	0.053711	0.965332	-3.220000	1.330000	-0.070000	351.00	-0.08	0.01
1.06	5.50	3.50	4.75	3.25	5.75	5.50	3.50	2.50	2.50	1.00	0.50	1.25	3.50	1.00	0.25	1.00	-0.202637	0.028320	0.961426	-2.870000	4.550000	0.700000	546.00	-0.10	-0.05	3.75	2.00	3.25	2.00	4.25	1.75	4.50	1.50	1.50	0.75	0.00	0.00	2.00	0.50	0.00	1.00	-0.147949	0.053711	0.961914	-3.220000	1.190000	-0.070000	356.00	-0.09	0.00
1.07	5.50	3.50	4.75	3.50	5.50	5.50	3.50	2.50	2.75	1.00	0.50	0.75	3.50	0.75	0.25	1.00	-0.204590	0.030273	0.961426	-2.800000	4.410000	0.700000	542.00	-0.10	-0.05	3.75	2.00	3.25	2.00	4.25	1.75	4.75	1.50	1.50	1.00	0.00	0.00	2.00	0.50	0.00	1.00	-0.153320	0.047852	0.966797	-2.870000	1.120000	-0.000000	363.00	-0.09	0.01
1.08	5.50	3.50	5.00	3.50	5.75	5.50	3.50	2.75	2.75	1.00	0.50	1.00	4.00	1.25	0.50	0.75	-0.205566	0.029785	0.953613	-2.730000	4.270000	0.700000	566.00	-0.09	-0.05	3.75	2.25	3.00	2.00	4.50	1.75	4.75	1.25	1.50	0.75	0.00	0.00	2.00	0.50	0.00	0.75	-0.150879	0.053223	0.962891	-2.870000	0.980000	0.070000	357.00	-0.09	0.01
1.09	5.50	3.75	5.00	3.00	5.75	5.50	3.75	2.25	2.50	1.00	0.75	1.25	3.50	1.00	0.25	1.00	-0.206543	0.024414	0.960938	-2.870000	4.340000	0.770000	552.00	-0.09	-0.05	4.00	2.25	3.00	2.25	4.25	2.00	4.75	1.50	1.25	0.75	0.00	0.00	2.25	0.75	0.00	0.75	-0.155762	0.054199	0.971191	-2.520000	0.840000	0.070000	368.00	-0.09	-0.00
1.10	5.50	3.50	4.50	2.75	5.75	5.50	3.50	2.50	2.75	1.00	0.50	0.75	3.50	1.00	0.25	0.75	-0.200195	0.030273	0.962402	-2.870000	4.410000	0.700000	534.00	-0.09	-0.05	4.25	2.00	3.00	2.00	4.25	1.50	4.75	1.25	1.50	0.75	0.00	0.00	2.25	0.75	0.00	1.00	-0.152344	0.056152	0.959961	-2.100000	0.280000	0.350000	361.00	-0.09	0.01
1.11	5.75	3.50	5.00	3.75	5.50	5.50	3.75	2.50	2.25	1.25	0.75	1.00	3.50	0.75	0.25	1.00	-0.209473	0.026367	0.951660	-2.450000	4.060000	0.980000	556.00	-0.10	-0.05	4.25	2.25	3.25	2.25	4.25	1.75	4.75	1.25	1.50	0.75	0.00	0.00	1.75	0.75	0.00	0.75	-0.145508	0.053711	0.966797	-2.240000	0.000000	0.210000	366.00	-0.10	0.02
1.12	5.75	4.00	5.00	3.50	5.75	5.75	3.50	2.50	2.50	1.00	0.50	1.25	3.50	1.25	0.25	0.75	-0.207031	0.024902	0.965332	-1.260000	3.850000	1.330000	564.00	-0.10	-0.05	4.00	2.25	3.50	2.25	4.25	1.50	4.75	1.25	1.00	0.50	0.00	0.00	2.00	0.50	0.00	0.75	-0.154297	0.056152	0.969727	-1.820000	-0.420000	0.490000	353.00	-0.11	0.01
1.13	5.75	3.75	5.00	3.75	5.75	5.75	3.50	2.50	2.25	0.75	0.75	1.00	4.25	0.75	0.25	1.00	-0.206543	0.027832	0.957031	-0.700000	3.640000	1.610000	562.00	-0.10	-0.06	4.50	2.25	3.25	2.50	4.50	2.00	4.50	1.50	1.00	0.50	0.00	0.00	1.75	0.50	0.00	0.75	-0.149414	0.050781	0.972656	-1.610000	-0.560000	0.490000	366.00	-0.12	-0.00
1.14	6.00	3.75	5.00	3.75	6.00	5.75	3.75	2.75	2.50	1.25	0.75	1.00	3.50	1.00	0.50	1.00	-0.204102	0.026855	0.958496	-0.490000	3.150000	1.820000	584.00	-0.10	-0.05	4.75	2.25	3.75	2.25	4.50	1.75	4.50	1.25	1.00	0.50	0.00	0.00	2.00	0.50	0.00	0.50	-0.159180	0.054199	0.969238	-1.400000	-0.350000	0.420000	365.00	-0.12	0.01
1.15	6.00	4.25	5.00	4.00	5.75	5.75	3.75	2.75	2.25	0.75	0.50	1.25	3.75	1.00	0.25	0.75	-0.203125	0.033203	0.964844	-0.280000	2.660000	1.960000	577.00	-0.11	-0.06	5.00	2.50	3.25	2.25	4.50	2.00	4.50	1.25	0.75	0.50	0.00	0.00	1.25	0.50	0.00	0.75	-0.150391	0.067871	0.971680	-1.190000	-0.490000	-0.140000	358.00	-0.13	0.01
1.16	6.25	4.00	5.00	4.25	5.75	6.00	3.50	2.75	2.00	1.00	0.50	1.00	3.50	1.25	0.50	0.75	-0.207031	0.030762	0.955566	0.140000	1.960000	2.100000	579.00	-0.11	-0.06	4.50	2.50	3.50	2.25	4.50	1.75	4.50	1.50	1.00	0.50	0.00	0.00	1.50	0.25	0.25	0.75	-0.149414	0.050781	0.962402	-1.050000	-0.630000	-0.280000	363.00	-0.12	0.00
1.17	6.25	4.75	5.25	4.50	5.75	5.75	3.50	2.50	2.00	1.00	0.50	0.75	3.75	0.75	0.50	0.75	-0.202637	0.027344	0.963379	1.190000	1.540000	2.380000	580.00	-0.12	-0.06	5.00	2.50	3.75	2.25	4.50	1.75	4.50	1.25	0.75	0.25	0.00	0.00	1.25	0.25	0.00	0.50	-0.146973	0.058105	0.960449	-0.700000	-0.420000	-0.350000	355.00	-0.14	0.01
1.18	6.25	5.00	5.25	4.50	6.00	6.00	3.50	3.00	1.75	1.00	0.75	0.50	3.75	1.00	0.25	1.00	-0.201660	0.028320	0.959961	1.610000	1.820000	2.520000	594.00	-0.12	-0.07	5.00	2.75	3.75	2.75	4.25	1.50	4.50	1.25	0.75	0.25	0.00	0.00	1.25	0.25	0.00	0.50	-0.156738	0.057617	0.970703	-0.000000	-0.350000	-0.210000	357.00	-0.15	0.01
1.19	6.50	5.00	5.25	4.75	6.00	6.25	3.50	2.75	1.75	0.75	0.50	1.00	3.75	0.50	0.00	1.00	-0.199219	0.032227	0.957520	2.100000	2.170000	2.520000	591.00	-0.13	-0.07	5.00	2.75	3.75	2.50	4.25	1.75	4.50	1.00	0.75	0.50	0.00	0.00	1.00	0.25	0.00	0.50	-0.151367	0.056152	0.967773	0.840000	-1.260000	0.070000	354.00	-0.14	0.02
1.20	6.25	5.00	5.50	5.00	5.75	6.25	3.50	2.75	1.50	0.75	0.25	1.00	3.75	1.00	0.25	0.75	-0.201172	0.038086	0.956543	2.310000	2.380000	2.520000	591.00	-0.13	-0.07	5.00	2.75	3.50	2.50	4.25	1.75	4.25	1.00	0.50	0.50	0.00	0.00	1.00	0.00	0.00	0.50	-0.149414	0.058594	0.960449	1.330000	-0.980000	0.140000	341.00	-0.15	0.01
1.21	6.50	5.00	5.25	5.00	6.00	6.25	3.50	2.75	1.50	0.50	0.25	1.00	3.75	1.00	0.25	0.50	-0.198242	0.041016	0.954102	2.170000	2.730000	2.520000	590.00	-0.13	-0.07	5.00	3.00	3.50	2.50	4.00	1.50	4.25	0.75	0.50	0.25	0.00	0.00	0.75	0.25	0.00	0.50	-0.140625	0.066406	0.965332	0.910000	-0.630000	0.280000	330.00	-0.16	0.02
1.22	6.50	5.00	5.50	5.00	5.75	6.25	3.50	3.00	1.50	0.75	0.50	0.75	3.50	0.50	0.50	0.75	-0.200684	0.039551	0.965332	2.030000	2.870000	2.450000	594.00	-0.13	-0.07	5.00	2.50	3.50	2.50	3.75	1.50	4.25	1.00	0.50	0.50	0.00	0.00	1.00	0.25	0.00	0.25	-0.137695	0.062012	0.961426	-0.140000	-0.560000	0.700000	330.00	-0.15	0.02
1.23	6.50	5.25	5.50	5.25	5.75	6.50	3.50	3.00	1.25	0.50	0.50	1.00	4.00	0.75	0.25	1.00	-0.196777	0.037598	0.958984	1.400000	3.290000	2.240000	605.00	-0.14	-0.08	5.00	2.50	3.50	2.25	3.75	1.50	4.25	0.75	0.75	0.25	0.00	0.00	1.00	0.50	0.00	0.50	-0.137207	0.062012	0.962891	-1.610000	1.190000	0.980000	327.00	-0.14	0.03
1.24	6.75	5.25	5.50	5.25	6.00	6.50	3.25	3.00	1.50	0.75	0.25	1.25	3.75	0.75	0.50	0.75	-0.198242	0.038574	0.946777	0.910000	3.360000	2.030000	612.00	-0.13	-0.08	5.00	2.50	3.50	2.25	3.75	1.00	4.25	1.00	0.25	0.25	0.00	0.00	0.75	0.25	0.00	0.50	-0.140137	0.062988	0.963867	-1.750000	1.890000	0.910000	314.00	-0.16	0.02
1.25	7.00	5.25	5.50	5.25	6.00	6.50	3.25	3.25	1.25	0.75	0.50	1.00	3.50	0.75	0.25	0.75	-0.193848	0.038574	0.948730	0.140000	3.710000	1.750000	610.00	-0.14	-0.08	5.00	2.50	3.50	2.25	3.50	1.25	4.25	0.75	0.50	0.25	0.00	0.00	0.75	0.25	0.00	0.50	-0.135254	0.094238	0.866211	-2.310000	2.170000	0.980000	313.00	-0.16	0.03
1.26	7.00	5.25	5.50	5.25	5.75	6.75	3.25	3.25	3.00	0.75	0.25	1.75	5.50	2.50	1.50	1.75	-0.196777	0.043457	0.959961	-0.280000	3.710000	1.610000	696.00	-0.09	-0.08	5.00	2.50	3.25	2.00	3.25	1.25	4.25	0.75	0.50	0.50	0.00	0.00	0.75	0.25	0.00	0.25	-0.156250	0.041992	0.999512	-0.560000	1.820000	0.070000	305.00	-0.15	0.03
1.27	9.00	5.75	6.50	5.50	6.25	7.75	3.75	4.50	1.00	1.25	1.00	1.00	3.75	1.25	0.25	0.75	-0.196777	0.039551	0.958984	-0.770000	3.640000	1.610000	715.00	-0.14	-0.08	4.50	2.25	3.00	2.25	3.25	1.00	4.25	0.75	0.25	0.25	0.00	0.00	0.75	0.25	0.00	0.25	-0.151855	0.067871	0.964844	-0.280000	0.770000	0.140000	288.00	-0.15	0.03
1.28	8.00	6.00	6.75	7.00	6.50	7.75	3.75	4.50	2.50	1.50	0.75	1.75	5.00	1.00	0.25	1.00	-0.193848	0.037109	0.958984	-1.190000	3.500000	1.400000	771.00	-0.12	-0.08	4.50	2.25	3.00	1.75	3.25	1.00	4.25	0.75	0.50	0.25	0.00	0.00	0.75	0.25	0.00	0.50	-0.154785	0.066406	0.972656	-1.470000	0.630000	0.630000	287.00	-0.14	0.03
1.29	8.25	5.75	6.00	6.50	6.00	7.50	3.50	3.25	1.25	0.50	0.75	1.00	3.50	0.50	0.25	0.75	-0.200195	0.041016	0.957031	-1.540000	3.430000	1.400000	664.00	-0.15	-0.08	4.25	2.25	3.00	1.75	3.00	1.00	4.25	0.75	0.25	0.25	0.00	0.00	0.75	0.00	0.00	0.25	-0.157227	0.043457	0.973633	-1.190000	-0.210000	0.700000	274.00	-0.15	0.03
1.30	7.50	5.75	6.25	6.50	6.00	7.50	3.50	3.00	1.25	0.75	1.00	1.25	4.00	0.50	0.25	1.00	-0.192871	0.033203	0.961426	-1.540000	3.290000	1.260000	669.00	-0.14	-0.08	4.25	2.25	3.00	1.50	3.25	1.00	4.00	0.50	0.50	0.50	0.00	0.00	0.75	0.25	0.00	0.50	-0.155273	0.054199	0.983398	-0.000000	-2.520000	0.350000	276.00	-0.14	0.04
1.31	8.50	5.75	6.50	6.75	6.00	7.50	3.50	3.25	1.50	0.50	0.75	1.25	4.00	0.50	0.50	1.00	-0.200684	0.038086	0.959961	-1.470000	3.220000	1.190000	691.00	-0.15	-0.08	4.50	2.25	2.75	1.75	3.00	0.75	4.00	0.50	0.25	0.25	0.00	0.00	0.75	0.25	0.00	0.25	-0.163086	0.055664	0.977051	-0.070000	-5.250000	0.140000	264.00	-0.16	0.04
1.32	8.75	6.00	6.50	7.00	6.50	7.75	3.50	3.50	1.00	0.75	0.50	1.00	4.25	0.75	0.50	0.75	-0.202637	0.048340	0.958984	-1.470000	3.430000	1.120000	706.00	-0.15	-0.08	4.50	2.25	3.00	1.75	3.00	1.00	4.00	0.75	0.50	0.25	0.00	0.00	0.75	0.25	0.00	0.25	-0.154785	0.062012	0.979980	-0.350000	-7.210000	0.420000	278.00	-0.15	0.03
1.33	8.75	5.75	6.25	6.75	6.25	7.75	3.50	3.50	1.50	0.75	0.50	1.25	4.00	0.50	0.50	0.75	-0.197266	0.038574	0.956055	-1.330000	3.570000	1.190000	700.00	-0.15	-0.08	4.50	2.25	3.00	1.75	3.00	1.00	4.00	0.25	0.25	0.25	0.00	0.00	0.50	0.00	0.00	0.25	-0.156250	0.062500	0.984375	-0.210000	-9.310000	0.490000	262.00	-0.17	0.05
1.34	8.75	6.00	6.50	7.00	6.25	7.75	3.50	3.75	1.25	0.75	0.50	1.25	4.00	0.50	0.25	0.75	-0.197754	0.043945	0.954102	-1.260000	3.570000	1.330000	706.00	-0.15	-0.08	4.50	2.25	3.00	2.00	3.00	0.75	4.00	0.50	0.00	0.25	0.00	0.00	0.75	0.00	0.00	0.25	-0.150879	0.068848	0.978516	0.070000	-11.830000	0.560000	265.00	-0.17	0.03
1.35	8.75	6.00	6.50	7.00	6.25	7.75	3.25	3.50	1.25	0.75	0.50	1.00	4.25	0.50	0.25	0.75	-0.198730	0.041992	0.965332	-1.120000	3.850000	1.260000	697.00	-0.16	-0.09	4.50	2.50	3.00	1.75	3.00	0.75	4.00	0.50	0.25	0.25	0.00	0.00	0.50	0.25	0.00	0.25	-0.145996	0.069336	0.979980	-0.210000	-15.190001	0.350000	268.00	-0.16	0.04
1.36	8.75	6.00	6.50	7.00	6.25	7.75	3.25	3.75	1.00	0.75	0.50	1.25	4.25	0.50	0.50	0.75	-0.197266	0.038574	0.956055	-0.980000	4.200000	1.190000	704.00	-0.15	-0.09	4.75	2.25	2.75	2.00	3.00	0.50	4.00	0.50	0.25	0.50	0.00	0.00	0.50	0.00	0.00	0.25	-0.133789	0.058594	0.971680	-0.280000	-15.540000	0.560000	266.00	-0.16	0.04
1.37	8.75	6.00	6.50	7.25	6.25	7.75	3.50	3.50	1.00	0.75	0.75	1.25	4.25	0.75	0.25	0.75	-0.200195	0.036133	0.957031	-0.840000	4.270000	1.330000	709.00	-0.15	-0.09	4.50	2.50	2.75	1.75	3.00	0.75	4.00	0.50	0.25	0.25	0.00	0.00	0.50	0.25	0.00	0.25	-0.132812	0.064941	0.959961	-1.120000	-14.490000	0.560000	265.00	-0.16	0.04
1.38	9.00	6.25	6.50	7.25	6.25	8.00	3.25	3.75	1.00	1.00	0.75	1.25	4.00	0.25	0.25	0.50	-0.194824	0.036621	0.956543	-0.840000	4.620000	1.330000	712.00	-0.16	-0.09	4.50	2.50	2.50	2.00	3.00	0.50	4.00	0.75	0.25	0.25	0.00	0.00	0.25	0.00	0.00	0.25	-0.137695	0.034668	0.948242	-1.610000	-12.460000	0.490000	261.00	-0.17	0.04
1.39	9.00	6.00	6.50	7.25	6.00	7.75	3.50	3.50	1.25	0.75	0.50	1.25	3.75	0.75	0.25	0.75	-0.200684	0.032715	0.955566	-0.770000	5.110000	1.190000	705.00	-0.15	-0.08	5.00	2.75	3.00	1.75	2.75	0.50	4.00	0.50	0.25	0.25	0.00	0.00	0.25	0.25	0.00	0.25	-0.125488	0.065918	0.962891	-1.400000	-10.640000	0.490000	268.00	-0.17	0.05
1.40	9.00	6.00	6.50	7.00	6.00	7.75	3.50	5.00	2.75	1.00	1.00	1.25	4.75	1.00	1.25	1.75	-0.196777	0.041992	0.961914	-0.770000	5.460000	1.050000	786.00	-0.12	-0.09	5.00	2.50	3.00	2.00	2.75	0.25	4.00	0.50	0.25	0.25	0.00	0.00	0.75	0.00	0.00	0.50	-0.124512	0.062500	0.961426	-1.260000	-9.590000	0.560000	269.00	-0.17	0.04
1.41	10.25	7.75	7.50	8.25	6.75	8.50	3.75	4.75	2.50	1.75	1.75	2.25	5.75	2.25	1.50	1.75	-0.199219	0.044922	0.958496	-0.560000	5.320000	1.120000	912.00	-0.11	-0.09	5.00	2.50	2.75	2.00	2.75	0.50	4.00	0.25	0.25	0.25	0.00	0.00	0.25	0.00	0.00	0.25	-0.120117	0.061035	0.971191	-0.770000	-8.190000	0.490000	258.00	-0.18	0.05
1.42	8.75	7.25	7.00	8.00	6.75	8.50	3.50	3.75	0.75	0.50	0.50	0.75	5.25	1.25	0.25	0.50	-0.201660	0.042969	0.965820	-0.490000	5.460000	1.260000	753.00	-0.16	-0.09	5.00	2.75	2.75	2.00	2.75	0.75	4.00	0.50	0.25	0.25	0.00	0.00	0.50	0.25	0.00	0.25	-0.124512	0.062500	0.980957	0.210000	-7.910000	0.420000	273.00	-0.17	0.04
1.43	8.50	6.75	6.50	7.50	6.00	7.75	3.50	3.50	1.25	0.50	0.50	1.25	4.25	1.00	0.50	0.75	-0.201660	0.043457	0.960449	-0.350000	5.600000	1.190000	717.00	-0.15	-0.09	5.25	2.75	3.00	2.00	2.75	0.50	4.00	0.50	0.25	0.25	0.00	0.00	0.25	0.25	0.00	0.25	-0.125000	0.062500	0.961914	0.840000	-7.980000	0.350000	273.00	-0.18	0.05
1.44	9.00	6.50	6.25	7.00	5.75	7.75	3.25	3.50	1.00	0.50	0.50	1.25	4.00	0.75	0.25	1.00	-0.196777	0.048340	0.956543	-0.490000	5.880000	1.050000	694.00	-0.16	-0.09	5.00	2.75	2.75	2.00	2.75	0.75	3.75	0.25	0.50	0.25	0.00	0.00	0.25	0.00	0.00	0.25	-0.113281	0.076172	0.960938	1.260000	-7.140000	0.280000	263.00	-0.18	0.05
1.45	8.75	6.50	6.25	7.25	6.00	7.75	3.25	3.50	1.00	0.50	0.50	1.25	4.00	0.50	0.25	0.75	-0.199219	0.043457	0.961914	-0.560000	6.020000	1.050000	693.00	-0.16	-0.09	5.00	2.75	3.00	2.25	2.75	0.75	4.00	0.50	0.25	0.25	0.00	0.00	0.75	0.00	0.00	0.25	-0.119629	0.066406	0.961914	1.890000	-6.020000	0.350000	279.00	-0.17	0.03
1.46	8.25	6.50	6.00	7.00	5.75	7.75	3.25	3.50	0.75	0.25	0.50	1.00	3.50	0.25	0.50	0.75	-0.197266	0.046875	0.957520	-0.770000	6.090000	0.980000	665.00	-0.17	-0.09	5.25	3.00	3.00	2.25	2.75	0.75	4.00	0.50	0.25	0.25	0.00	0.00	0.50	0.00	0.00	0.50	-0.119141	0.074219	0.961426	2.030000	-5.180000	0.280000	283.00	-0.18	0.03
1.47	8.25	6.50	6.25	7.00	5.75	7.75	3.25	3.50	1.00	0.75	0.75	1.25	4.25	1.00	0.25	0.75	-0.195801	0.044922	0.956543	-1.260000	6.370000	0.840000	694.00	-0.15	-0.09	5.25	3.00	3.25	2.25	3.00	0.75	3.75	0.50	0.25	0.25	0.00	0.00	0.50	0.25	0.00	0.25	-0.115723	0.070801	0.962891	2.380000	-3.640000	0.280000	286.00	-0.18	0.03
1.48	8.25	6.25	6.00	6.50	5.50	7.50	3.25	3.25	1.00	0.75	0.25	1.00	3.75	0.50	0.25	0.50	-0.198242	0.044922	0.958496	-1.540000	6.650000	0.700000	653.00	-0.16	-0.09	5.50	3.25	3.25	2.25	3.00	0.75	4.00	0.50	0.25	0.00	0.00	0.00	0.50	0.25	0.00	0.25	-0.123047	0.078613	0.973633	2.520000	-3.080000	0.420000	293.00	-0.19	0.03
1.49	8.00	6.25	6.00	6.50	5.50	7.25	3.25	3.25	0.75	0.25	0.25	1.25	3.50	0.50	0.50	0.50	-0.193848	0.043457	0.958496	-1.960000	7.350000	0.490000	642.00	-0.16	-0.09	5.50	3.25	3.25	2.75	3.00	1.00	4.00	0.50	0.25	0.25	0.00	0.00	0.50	0.50	0.00	0.25	-0.116699	0.073242	0.969238	2.310000	-2.800000	0.350000	307.00	-0.18	0.03
1.50	7.75	6.00	5.75	6.50	5.50	7.25	3.25	3.25	1.00	0.50	0.25	1.00	3.50	0.25	0.25	0.50	-0.196289	0.052734	0.962402	-2.310000	8.330000	0.280000	632.00	-0.16	-0.09	5.50	3.25	3.50	2.75	3.00	1.00	3.75	0.50	0.00	0.00	0.00	0.00	0.75	0.00	0.00	0.25	-0.118164	0.070801	0.976074	2.660000	-2.590000	0.350000	297.00	-0.20	0.02
1.51	7.50	5.75	5.75	6.25	5.00	7.00	3.25	3.25	1.00	0.50	0.50	1.00	4.00	0.75	0.50	0.75	-0.196289	0.049316	0.962402	-2.590000	9.660000	0.070000	631.00	-0.15	-0.09	5.75	3.75	3.75	3.25	3.25	1.50	3.75	0.50	0.25	0.25	0.00	0.00	0.50	0.25	0.00	0.50	-0.121094	0.077637	0.969238	3.430000	-2.380000	0.700000	331.00	-0.19	0.01
1.52	7.00	5.75	5.50	5.50	5.00	6.75	3.25	3.00	1.00	0.50	0.25	0.75	3.50	0.50	0.25	0.75	-0.191895	0.044434	0.965820	-2.380000	11.340000	-0.070000	590.00	-0.15	-0.08	6.00	3.50	3.75	3.25	3.25	1.25	3.75	0.75	0.00	0.00	0.00	0.00	0.50	0.25	0.00	0.25	-0.123535	0.066895	0.978027	3.850000	-2.380000	0.630000	324.00	-0.20	0.01
1.53	6.50	5.25	5.25	5.00	4.75	6.50	3.00	3.00	0.75	0.75	0.50	0.75	3.50	0.25	0.25	0.75	-0.194824	0.041016	0.957031	-1.890000	13.230000	-0.350000	560.00	-0.15	-0.09	6.00	4.25	4.25	3.75	3.25	1.50	3.75	0.50	0.25	0.25	0.00	0.00	0.50	0.25	0.00	0.50	-0.114258	0.084961	0.970703	3.920000	-2.380000	0.490000	351.00	-0.20	0.01
1.54	6.00	5.00	5.00	4.75	4.25	6.25	3.25	3.00	1.00	0.50	0.50	0.75	3.75	0.25	0.25	0.75	-0.195801	0.047852	0.963379	-1.260000	15.750000	-0.700000	544.00	-0.14	-0.09	6.25	4.50	4.50	4.00	3.50	1.75	3.75	0.75	0.50	0.00	0.00	0.00	1.00	0.25	0.00	0.50	-0.123535	0.081543	0.975586	3.500000	-2.170000	0.560000	378.00	-0.20	-0.00
1.55	5.50	4.50	4.25	4.00	3.75	5.75	3.00	2.75	0.50	0.75	0.50	1.00	3.25	0.50	0.00	0.50	-0.187012	0.060059	0.959473	-0.630000	18.620001	-1.190000	487.00	-0.14	-0.09	6.50	5.00	4.50	4.50	3.75	2.00	4.00	0.75	0.00	0.25	0.00	0.00	1.00	0.25	0.00	0.50	-0.120117	0.072266	0.964355	2.450000	-2.520000	0.840000	397.00	-0.20	-0.01
1.56	5.25	3.50	4.25	3.00	3.25	5.50	3.00	2.50	1.00	0.50	0.75	1.00	3.25	0.75	0.00	0.50	-0.186035	0.044922	0.968262	0.210000	21.629999	-2.100000	459.00	-0.12	-0.08	7.50	5.50	5.25	5.00	3.75	2.00	4.00	0.75	0.25	0.00	0.00	0.00	1.00	0.25	0.00	0.50	-0.119629	0.103516	0.973145	0.700000	-2.870000	1.050000	430.00	-0.21	-0.01
1.57	4.00	3.25	3.00	2.50	2.75	5.50	3.00	2.25	1.25	0.50	0.50	1.00	3.50	0.50	0.00	0.50	-0.211914	0.082031	0.962891	0.840000	24.990000	-4.200000	411.00	-0.10	-0.09	8.25	6.25	5.25	5.50	4.25	2.25	3.75	1.00	0.25	0.00	0.00	0.00	1.00	0.00	0.00	0.25	-0.118652	0.095703	0.966309	-1.610000	-2.450000	1.680000	457.00	-0.22	-0.02
1.58	4.25	0.00	4.50	4.25	3.25	5.75	3.00	3.50	3.25	2.25	1.75	2.00	5.25	2.00	1.00	1.75	-0.019531	0.141602	1.148438	1.540000	31.500000	-10.500000	574.00	-0.02	-0.08	9.25	7.00	5.75	6.25	4.25	2.75	4.00	1.00	0.25	0.25	0.00	0.00	1.00	0.50	0.00	0.25	-0.124023	0.052734	0.973145	-6.790000	-2.380000	2.030000	508.00	-0.22	-0.02
1.59	2.25	1.50	2.25	2.25	2.00	5.00	2.50	1.75	1.25	0.25	0.75	1.00	2.75	0.50	0.00	0.50	-0.109375	0.083496	1.222656	17.150000	64.260002	-13.790000	323.00	-0.07	-0.10	10.50	7.25	6.50	7.00	4.75	3.25	4.00	1.00	0.25	0.50	0.00	0.25	1.00	0.00	0.00	0.75	-0.097656	0.073242	0.957520	-9.940000	-1.610000	1.890000	559.00	-0.22	-0.02
1.60	2.75	0.50	2.50	2.00	1.50	5.00	2.50	1.50	0.75	0.50	0.75	1.25	2.50	0.25	0.00	0.75	-0.165039	0.251953	1.482910	34.650002	192.009995	-22.610001	304.00	-0.07	-0.09	12.75	9.00	7.25	8.00	5.25	4.00	4.00	1.25	0.25	0.25	0.00	0.00	1.00	0.25	0.00	0.75	-0.116699	0.059082	0.984863	-12.110000	-1.470000	1.750000	639.00	-0.24	-0.03
1.61	3.50	2.50	2.25	1.75	1.50	5.00	2.50	1.50	0.75	0.25	0.50	0.75	2.00	0.00	0.00	0.50	-0.165039	0.251953	1.482910	34.650002	192.009995	-22.610001	307.00	-0.12	-0.09	14.50	9.50	7.75	8.75	5.75	4.25	4.25	1.25	0.50	0.25	0.00	0.25	1.50	0.25	0.00	0.50	-0.116699	0.071777	1.001953	-12.530000	-2.100000	1.470000	702.00	-0.23	-0.03
1.62	2.25	0.50	1.50	1.50	1.50	4.25	2.25	1.00	0.75	0.50	0.50	0.75	0.75	0.00	0.00	0.25	-0.205566	0.443848	1.636230	14.770000	226.729996	-62.510002	228.00	-0.09	-0.06	16.00	11.00	8.50	9.50	6.00	5.00	4.25	1.50	0.50	0.25	0.00	0.25	1.25	0.50	0.00	0.50	-0.128906	0.027344	0.995605	-11.550000	-3.640000	1.260000	768.00	-0.24	-0.03
1.63	2.00	0.50	0.50	1.00	1.00	3.75	2.25	1.00	0.25	0.25	0.50	1.25	1.00	0.00	0.25	0.75	-0.340820	0.563965	1.572754	31.920000	217.770004	-78.400002	199.00	-0.06	-0.10	16.75	12.25	9.25	10.25	6.50	5.25	4.25	1.50	0.50	0.25	0.00	0.00	1.50	0.25	0.00	0.50	-0.104980	0.052246	0.973633	-10.290000	-4.410000	1.190000	813.00	-0.25	-0.03
1.64	1.50	0.50	1.75	1.25	1.50	4.50	2.25	0.75	0.00	0.50	0.25	1.00	0.50	0.00	0.00	0.00	0.134766	0.558594	1.758789	45.990002	200.339996	-92.260002	204.00	-0.10	-0.08	18.50	13.75	9.50	11.00	6.50	5.25	4.25	1.75	0.25	0.25	0.00	0.00	1.25	0.50	0.00	0.50	-0.105957	0.079590	0.977539	-8.890000	-4.060000	1.050000	861.00	-0.25	-0.04
1.65	2.00	0.75	1.00	0.25	1.00	3.75	2.25	0.75	0.00	0.25	0.50	0.75	0.25	0.00	0.00	0.25	0.533203	0.542969	1.891602	18.690001	163.169998	-102.199997	173.00	-0.10	-0.06	19.75	14.75	10.00	11.50	6.75	5.75	4.25	1.75	0.50	0.50	0.00	0.00	1.50	0.50	0.00	0.50	-0.112305	0.048828	0.969238	-7.490000	-3.360000	0.630000	915.00	-0.25	-0.04
1.66	1.75	0.75	1.00	0.00	1.00	3.50	2.25	0.75	0.25	0.50	0.25	0.50	0.00	0.00	0.00	0.00	0.565918	0.824219	1.527832	-13.370000	123.480003	-91.559998	161.00	-0.09	-0.03	20.25	15.25	10.00	12.00	7.00	6.00	4.25	2.00	0.50	0.25	0.00	0.25	1.25	0.25	0.00	0.50	-0.104492	0.073730	0.968750	-5.880000	-1.960000	0.560000	937.00	-0.26	-0.04
1.67	2.00	0.50	1.00	0.50	1.00	3.50	2.25	0.75	0.25	0.25	0.25	0.75	0.00	0.00	0.00	0.00	0.845215	0.982910	1.827148	-24.010000	73.570000	-72.309998	167.00	-0.10	-0.04	20.75	16.25	10.50	12.25	7.25	6.25	4.25	1.75	0.50	0.50	0.00	0.25	1.50	0.50	0.00	0.50	-0.102051	0.066406	0.974121	-4.270000	-0.490000	0.560000	971.00	-0.25	-0.04
1.68	1.50	0.75	1.25	0.00	1.00	3.75	2.50	0.50	0.25	0.25	0.25	0.50	0.00	0.00	0.25	0.25	0.782227	0.864746	1.150391	-4.970000	27.790001	-55.580002	165.00	-0.08	-0.03	21.50	16.50	10.50	12.50	7.00	6.50	4.50	2.00	0.25	0.25	0.00	0.25	1.50	0.25	0.00	0.50	-0.106445	0.094727	0.966309	-2.660000	0.490000	0.350000	985.00	-0.26	-0.04
1.69	2.00	1.00	0.75	0.00	1.00	4.25	2.25	0.75	0.25	0.25	0.00	0.75	0.00	0.00	0.00	0.00	0.711426	0.640137	0.839355	17.219999	7.420000	-45.009998	169.00	-0.11	-0.05	21.25	16.25	10.75	12.50	7.50	6.50	4.25	2.25	0.50	0.25	0.00	0.00	1.25	0.50	0.25	0.75	-0.099609	0.079102	0.979004	-1.120000	1.820000	0.140000	994.00	-0.25	-0.04
1.70	1.50	0.75	0.75	0.25	1.00	3.25	2.25	0.50	0.00	0.00	0.25	0.50	0.25	0.00	0.00	0.00	0.713867	0.490723	0.704590	30.100000	2.800000	-38.709999	144.00	-0.11	-0.05	21.00	16.00	10.75	12.75	7.25	7.25	4.25	2.00	0.75	0.50	0.00	0.25	1.50	0.25	0.00	0.50	-0.107422	0.086914	0.993164	0.840000	4.760000	-0.140000	998.00	-0.25	-0.04
1.71	2.00	0.00	1.75	0.00	1.00	3.25	2.50	0.75	0.00	0.00	0.50	0.75	0.25	0.00	0.00	0.25	0.749512	0.428223	0.841309	37.099998	-3.010000	-33.389999	167.00	-0.09	-0.03	20.75	16.00	10.50	12.50	7.25	7.25	4.25	2.25	0.25	0.50	0.00	0.25	1.75	0.25	0.00	0.50	-0.104004	0.080566	0.971191	1.190000	5.810000	-0.350000	988.00	-0.25	-0.05
1.72	2.25	1.00	1.50	0.50	1.00	3.25	2.25	0.75	0.00	0.25	0.00	0.50	0.00	0.00	0.00	0.00	0.778320	0.366211	0.925293	44.099998	-16.590000	-27.160000	169.00	-0.14	-0.03	20.00	15.25	10.25	12.25	7.25	7.25	4.25	2.25	0.50	0.25	0.00	0.25	1.50	0.50	0.00	0.75	-0.099609	0.063965	0.961914	0.980000	7.000000	-0.420000	969.00	-0.25	-0.05
1.73	1.75	0.25	1.00	0.50	1.00	3.50	2.25	0.50	0.25	0.25	0.00	0.50	0.00	0.00	0.00	0.25	0.758789	0.270508	0.904297	50.680000	-34.650002	-20.580000	153.00	-0.10	-0.03	19.50	15.50	10.00	12.25	7.00	7.25	4.25	2.25	0.50	0.25	0.00	0.25	1.75	0.50	0.25	0.75	-0.100586	0.078125	0.963867	0.420000	8.400000	-0.700000	965.00	-0.25	-0.05
1.74	1.75	0.75	0.00	0.00	1.00	3.50	2.50	0.75	0.25	0.25	0.00	0.50	0.25	0.00	0.00	0.25	0.700684	0.168457	0.841309	53.619999	-49.700001	-14.840000	151.00	-0.08	-0.04	19.25	14.75	9.75	11.75	7.00	7.25	4.25	2.50	0.75	0.25	0.00	0.25	1.50	0.50	0.00	0.75	-0.108887	0.073730	0.957520	-0.210000	9.240000	-0.770000	948.00	-0.24	-0.05
1.75	1.75	0.00	0.75	0.25	0.75	3.25	2.50	0.75	0.00	0.00	0.00	0.75	0.00	0.00	0.25	0.00	0.641113	0.097656	0.819336	53.410000	-59.570000	-9.450000	145.00	-0.08	-0.04	18.25	14.00	9.50	11.50	7.00	7.50	4.50	2.50	0.25	0.50	0.00	0.25	1.50	0.50	0.00	0.75	-0.105957	0.062500	0.957520	-1.190000	9.940000	-0.910000	926.00	-0.24	-0.05
1.76	1.75	0.25	0.75	0.00	1.00	3.50	2.50	0.50	0.00	0.25	0.00	0.75	0.00	0.00	0.00	0.00	0.600098	0.059082	0.876953	52.009998	-67.760002	-4.130000	146.00	-0.09	-0.03	17.75	13.75	9.50	11.25	6.75	7.50	4.25	2.50	0.50	0.50	0.00	0.25	2.00	0.25	0.00	0.50	-0.103516	0.073242	0.962891	-2.590000	10.990000	-1.050000	912.00	-0.24	-0.05
1.77	2.00	0.50	1.00	0.75	1.00	3.50	2.50	0.75	0.00	0.25	0.00	0.50	0.50	0.00	0.25	0.25	0.487793	0.006348	0.989746	50.330002	-87.430000	7.420000	174.00	-0.10	-0.05	17.25	13.00	9.25	10.75	6.75	7.50	4.25	3.00	0.50	0.50	0.00	0.00	2.00	0.25	0.00	0.75	-0.120605	0.063477	0.963867	-3.640000	11.270000	-1.190000	896.00	-0.23	-0.05
1.78	1.50	0.75	0.50	0.25	1.00	3.50	2.50	0.50	0.25	0.25	0.25	0.75	0.25	0.00	0.00	0.50	0.405762	-0.016113	1.026855	47.320000	-97.090004	13.230000	160.00	-0.07	-0.04	16.25	12.25	9.00	10.75	7.00	7.50	4.50	3.00	0.50	0.25	0.00	0.25	2.00	0.50	0.00	0.75	-0.114746	0.074707	0.948730	-4.900000	10.920000	-1.120000	884.00	-0.23	-0.05
1.79	2.75	2.00	1.75	1.25	1.25	4.00	2.25	1.00	0.25	0.00	0.00	0.50	0.00	0.00	0.00	0.25	0.333496	-0.017090	1.048828	43.119999	-105.629997	18.760000	215.00	-0.16	-0.06	15.75	11.75	8.75	10.25	6.75	7.75	4.50	3.50	0.50	0.50	0.00	0.00	2.00	0.25	0.00	0.75	-0.119141	0.073242	0.960938	-5.810000	10.780000	-0.700000	870.00	-0.22	-0.06
1.80	1.50	0.50	1.75	0.00	0.75	2.75	2.25	0.75	0.50	0.00	0.00	0.25	0.00	0.25	0.00	0.00	0.254395	-0.010742	1.074219	38.639999	-112.770004	23.799999	147.00	-0.10	0.00	15.25	11.00	8.75	10.25	6.75	7.75	4.50	3.75	0.25	0.50	0.00	0.25	2.25	0.25	0.00	1.00	-0.118164	0.090820	0.968750	-6.860000	10.850000	-0.770000	864.00	-0.22	-0.06
1.81	1.50	0.25	0.50	0.00	1.00	3.25	2.50	0.75	0.25	0.00	0.00	0.50	0.00	0.00	0.25	0.00	0.159180	0.000488	1.115234	33.599998	-118.790001	28.350000	142.00	-0.07	-0.03	14.25	10.25	8.50	9.75	7.00	7.75	4.50	4.25	0.75	0.50	0.25	0.50	2.25	0.50	0.25	0.50	-0.121582	0.080566	0.966309	-7.280000	10.150000	-0.770000	863.00	-0.20	-0.06
1.82	1.50	0.00	1.00	0.00	0.75	3.25	2.25	0.50	0.00	0.25	0.25	0.25	0.00	0.00	0.00	0.00	0.100098	-0.005371	1.112793	28.840000	-123.690002	32.759998	131.00	-0.09	-0.02	13.75	9.75	8.25	9.75	7.00	8.00	4.75	4.50	0.50	0.75	0.25	0.25	3.00	0.50	0.00	0.75	-0.126465	0.071289	0.970703	-7.210000	7.560000	-1.120000	862.00	-0.20	-0.07
1.83	1.75	0.00	1.50	0.00	0.50	3.50	2.50	0.75	0.00	0.00	0.25	0.25	0.00	0.00	0.00	0.00	0.021973	-0.012207	1.081055	21.980000	-125.720001	35.910000	145.00	-0.11	-0.02	13.25	9.50	8.25	9.50	7.25	8.25	4.75	5.00	0.50	0.75	0.25	0.25	3.00	0.25	0.25	1.00	-0.136230	0.104004	0.977539	-6.650000	5.600000	-1.120000	868.00	-0.19	-0.07
1.84	1.25	0.00	0.75	0.00	1.00	3.50	2.50	0.75	0.00	0.00	0.25	0.50	0.00	0.00	0.25	0.25	-0.058105	-0.027832	1.008301	13.020000	-123.270004	37.590000	144.00	-0.06	-0.04	12.25	9.00	8.00	9.25	7.25	8.50	5.00	5.50	0.75	0.75	0.50	0.50	3.50	0.50	0.25	1.00	-0.124023	0.076172	0.956055	-5.740000	3.990000	-1.120000	877.00	-0.18	-0.08
1.85	1.25	0.00	0.50	0.00	0.75	3.25	2.50	0.75	0.00	0.00	0.00	0.75	0.00	0.00	0.00	0.25	-0.122559	-0.054199	0.977051	2.520000	-115.360001	38.360001	132.00	-0.07	-0.04	11.25	8.50	7.75	9.25	7.50	8.25	5.00	6.00	0.75	0.75	0.50	0.50	4.00	0.75	0.00	1.00	-0.123535	0.070312	0.961914	-5.250000	3.430000	-1.120000	870.00	-0.17	-0.09
1.86	1.75	0.50	0.00	0.00	0.50	3.25	2.25	0.75	0.50	0.25	0.00	0.25	0.00	0.00	0.00	0.00	-0.215820	-0.045410	1.025391	-10.150000	-105.070000	38.290001	132.00	-0.08	-0.03	11.00	8.00	7.50	8.75	7.25	8.50	5.00	6.25	1.00	1.00	0.75	0.75	4.50	0.50	0.25	1.00	-0.125000	0.057129	0.952148	-4.410000	3.010000	-1.260000	875.00	-0.16	-0.09
1.87	1.25	0.50	0.75	0.00	0.75	3.25	2.25	0.75	0.00	0.50	0.00	0.25	0.25	0.00	0.00	0.50	-0.238770	0.000488	1.077148	-19.879999	-94.779999	38.849998	139.00	-0.08	-0.05	9.75	7.25	7.00	8.50	7.50	8.50	5.00	6.75	1.00	1.00	1.00	0.75	5.00	0.75	0.50	1.00	-0.123535	0.067383	0.965820	-3.220000	3.010000	-1.400000	868.00	-0.14	-0.10
1.88	1.75	0.00	0.75	0.00	1.00	3.50	2.50	1.00	0.00	0.25	0.00	0.75	0.00	0.00	0.00	0.00	-0.255859	0.062012	1.145020	-23.100000	-87.500000	40.529999	152.00	-0.08	-0.04	9.00	6.75	6.75	8.00	7.50	8.50	5.00	7.00	1.25	1.25	1.00	1.25	5.50	0.75	0.25	1.25	-0.124512	0.076660	0.969238	-2.310000	3.570000	-1.540000	865.00	-0.13	-0.10
1.89	1.50	0.50	1.25	0.50	0.75	3.50	2.50	1.00	0.25	0.00	0.25	0.50	0.00	0.00	0.00	0.25	-0.275391	0.117676	1.229980	-21.629999	-85.540001	42.770000	165.00	-0.10	-0.05	8.00	6.50	6.50	7.75	7.50	8.75	5.25	7.25	1.50	1.50	1.00	1.25	6.00	0.75	0.25	1.25	-0.123535	0.068848	0.969238	-1.470000	4.550000	-1.470000	868.00	-0.12	-0.10
1.90	1.25	0.25	0.75	0.00	0.75	3.25	2.25	0.50	0.25	0.50	0.00	0.75	0.25	0.50	0.25	0.00	-0.314453	0.161621	1.278809	-15.610000	-88.269997	45.639999	147.00	-0.04	-0.03	7.50	6.00	5.75	7.00	7.25	8.50	5.25	7.50	1.50	1.75	1.25	1.25	6.25	1.00	0.00	1.50	-0.124512	0.067871	0.974121	-0.140000	5.740000	-1.330000	846.00	-0.11	-0.11
1.91	1.50	0.50	0.75	0.00	0.75	3.50	2.25	0.75	0.25	0.00	0.00	0.50	0.25	0.00	0.00	0.00	-0.355469	0.218750	1.316895	-5.250000	-93.800003	48.580002	143.00	-0.09	-0.05	6.75	5.00	5.50	6.25	7.25	8.75	5.25	7.50	2.00	1.75	1.50	1.50	6.75	0.75	0.25	1.50	-0.121094	0.089355	0.995605	1.680000	7.000000	-0.980000	836.00	-0.09	-0.11
1.92	2.00	0.00	1.00	0.00	0.75	3.75	2.50	0.75	0.00	0.25	0.00	0.50	0.25	0.00	0.00	0.25	-0.449707	0.250977	1.282227	20.719999	-104.790001	53.619999	155.00	-0.09	-0.04	6.00	4.50	5.00	5.75	7.00	8.50	5.25	7.75	2.25	2.00	1.75	1.75	7.25	1.00	0.50	1.75	-0.101562	0.072266	0.975586	3.220000	8.750000	-0.840000	833.00	-0.07	-0.11
1.93	1.50	0.50	0.75	0.00	1.00	3.25	2.50	0.75	0.50	0.00	0.00	0.25	0.00	0.00	0.00	0.25	-0.510742	0.227051	1.271484	26.740000	-107.940002	55.090000	147.00	-0.09	-0.02	5.50	4.25	4.25	5.50	6.75	8.25	5.25	8.00	2.00	2.25	2.00	2.25	7.75	0.75	0.25	1.75	-0.132812	0.093750	0.983887	4.550000	9.870000	-0.560000	818.00	-0.06	-0.12
1.94	1.25	0.50	0.75	0.00	0.75	3.25	2.50	0.75	0.25	0.00	0.00	0.50	0.00	0.00	0.00	0.25	-0.565430	0.221191	1.230957	25.480000	-109.830002	55.860001	140.00	-0.08	-0.03	5.00	3.25	4.00	4.75	6.50	8.25	5.25	8.00	2.75	2.50	2.25	2.25	8.25	1.00	0.50	1.75	-0.094238	0.099121	0.971680	6.720000	13.020000	-0.140000	813.00	-0.04	-0.12
1.95	2.00	0.25	0.25	0.75	0.75	3.50	2.25	0.75	0.25	0.00	0.00	0.50	0.00	0.00	0.00	0.00	-0.618652	0.236328	1.204590	20.370001	-109.690002	56.139999	147.00	-0.11	-0.05	4.75	3.25	3.50	4.00	6.00	8.00	5.25	8.25	3.00	2.75	2.50	2.50	8.50	1.25	0.50	2.25	-0.144531	0.080078	0.978027	7.770000	14.210000	0.070000	811.00	-0.03	-0.12
1.96	1.50	0.00	0.75	0.00	0.75	3.00	2.25	0.75	0.00	0.00	0.00	0.50	0.00	0.00	0.00	0.25	-0.667969	0.212402	1.190918	12.950000	-108.919998	55.720001	128.00	-0.09	-0.04	4.25	2.50	3.25	3.25	5.50	7.75	5.00	8.25	3.00	3.00	2.50	3.00	9.00	1.00	0.50	2.00	-0.121582	0.086914	0.986816	7.980000	14.700000	0.630000	782.00	-0.01	-0.13
1.97	1.00	0.25	1.50	1.00	1.00	3.75	2.25	0.75	0.00	0.25	0.25	0.25	0.00	0.25	0.00	0.00	-0.704102	0.143555	1.116211	3.990000	-107.870003	54.880001	161.00	-0.10	-0.05	3.50	2.50	3.00	3.00	5.00	7.50	5.00	8.25	3.25	3.25	3.00	3.25	9.25	1.25	0.50	2.75	-0.143555	0.081055	0.962891	8.680000	15.890000	0.630000	782.00	0.00	-0.13
1.98	1.00	0.75	0.50	0.25	1.00	3.00	2.50	0.50	0.00	0.25	0.00	0.25	0.00	0.25	0.25	0.00	-0.768066	0.105957	1.060059	-6.020000	-104.580002	53.340000	136.00	-0.08	-0.02	3.50	2.00	3.00	2.75	4.50	7.25	5.00	8.25	3.25	3.25	3.25	3.75	10.00	1.50	0.50	2.50	-0.111816	0.109375	0.969238	9.310000	17.080000	0.350000	782.00	0.01	-0.13
1.99	1.50	0.25	0.25	0.25	0.75	3.25	2.25	0.50	0.50	0.50	0.00	0.00	0.00	0.00	0.00	0.00	-0.815918	0.022461	0.974121	-11.060000	-98.910004	52.430000	131.00	-0.08	-0.01	3.00	1.75	2.25	2.00	3.75	6.75	5.00	8.25	3.50	3.75	3.75	4.00	10.25	1.50	0.75	2.75	-0.154785	0.076172	0.979492	10.080000	18.480000	0.280000	765.00	0.03	-0.14
2.00	1.25	0.75	0.75	0.00	0.75	3.00	2.25	0.50	0.25	0.00	0.00	0.50	0.00	0.00	0.00	0.00	-0.859375	-0.064453	0.916504	-16.590000	-90.440002	50.400002	130.00	-0.10	-0.02	2.00	1.25	1.75	1.50	3.25	6.25	5.00	8.25	3.50	4.00	4.25	4.75	10.50	1.75	0.75	3.25	-0.166016	0.085449	0.966797	10.710000	20.299999	-0.070000	750.00	0.06	-0.14
2.01	1.25	0.00	1.25	0.00	0.75	3.50	2.25	0.75	0.50	0.25	0.00	0.25	0.00	0.00	0.00	0.25	-0.931152	-0.124023	0.907715	-21.210001	-83.230003	48.509998	144.00	-0.07	-0.02	2.00	1.25	1.75	1.75	2.75	5.75	5.00	8.25	4.00	4.00	5.50	5.50	11.00	1.75	1.00	3.50	-0.176758	0.078125	0.957520	10.780000	21.910000	-0.560000	780.00	0.07	-0.14
2.02	1.25	0.25	1.00	0.00	0.75	3.00	2.50	0.50	0.25	0.25	0.00	0.50	0.00	0.00	0.00	0.00	-1.013184	-0.164551	0.889648	-19.809999	-77.699997	46.270000	135.00	-0.08	-0.01	2.00	1.00	1.50	1.25	2.25	5.50	4.75	8.00	4.00	4.50	6.25	6.50	11.00	2.25	1.50	4.25	-0.108398	0.105469	0.984863	10.570000	23.730000	-0.840000	792.00	0.09	-0.15
2.03	1.50	0.25	0.75	0.25	0.75	3.00	2.25	0.75	0.00	0.25	0.00	0.25	0.00	0.00	0.00	0.00	-1.106445	-0.232910	0.801270	-15.750000	-74.550003	42.209999	132.00	-0.10	-0.03	1.75	0.75	1.50	1.25	1.75	5.00	4.75	8.00	4.50	5.25	7.50	7.25	11.25	2.25	1.50	4.75	-0.165039	0.095215	0.971680	10.220000	25.760000	-1.190000	818.00	0.10	-0.14
2.04	1.00	0.50	0.25	0.00	0.75	3.25	2.25	0.75	0.25	0.25	0.25	0.50	0.00	0.00	0.00	0.00	-1.216797	-0.265137	0.638184	-14.840000	-70.910004	34.369999	132.00	-0.06	-0.05	1.50	1.00	1.25	1.25	1.75	4.25	4.50	7.75	5.00	6.00	8.00	7.75	11.50	2.75	1.75	5.00	-0.192871	0.032715	0.999023	10.360000	27.719999	-2.100000	836.00	0.12	-0.14
2.05	0.75	0.50	0.50	0.00	0.75	3.50	2.25	0.75	0.50	0.00	0.00	0.50	0.00	0.00	0.25	0.00	-1.393066	-0.246094	0.490723	-17.710001	-62.160000	22.820000	136.00	-0.06	-0.04	1.00	0.75	1.00	0.50	1.25	3.00	4.50	7.50	5.00	6.75	8.25	8.00	11.75	3.00	2.00	5.25	-0.170410	0.100586	0.987305	12.810000	31.150000	-3.080000	814.00	0.14	-0.14
2.06	1.00	0.00	0.75	0.25	0.75	3.50	2.25	0.50	0.25	0.25	0.00	0.50	0.00	0.00	0.00	0.25	-1.571289	-0.141113	0.153809	-15.260000	-27.090000	-2.730000	133.00	-0.07	-0.04	1.25	0.50	0.75	1.00	1.25	2.75	4.25	7.00	5.25	7.50	8.75	8.25	11.75	3.50	2.00	5.50	-0.167969	0.115234	0.990234	19.320000	44.170002	-6.090000	829.00	0.14	-0.13
2.07	1.00	0.25	0.50	0.25	0.75	3.25	2.25	0.75	0.25	0.00	0.00	0.25	0.00	0.00	0.00	0.00	-1.637695	-0.104004	0.106934	-8.400000	-5.040000	-12.460000	127.00	-0.09	-0.04	1.00	0.50	1.00	1.00	1.00	2.25	4.25	6.25	5.50	8.00	9.25	8.75	12.00	3.75	2.25	6.25	-0.178711	0.117676	0.991211	21.420000	50.119999	-7.770000	841.00	0.15	-0.13
2.08	1.25	0.50	0.75	0.00	0.50	3.00	2.25	0.50	0.00	0.25	0.00	0.25	0.00	0.00	0.00	0.25	-1.662598	-0.105469	0.126953	0.630000	16.520000	-17.360001	123.00	-0.10	-0.03	1.00	0.50	1.00	0.50	1.00	1.50	4.25	5.50	6.25	8.25	9.50	9.00	12.25	4.25	2.50	6.50	-0.195312	0.107910	0.992188	23.660000	56.560001	-8.610000	844.00	0.17	-0.11
2.09	1.25	0.50	0.50	0.25	0.75	3.00	2.25	0.75	0.00	0.25	0.00	0.50	0.00	0.00	0.00	0.00	-1.473145	-0.087891	0.188965	5.880000	36.889999	-17.360001	131.00	-0.09	-0.05	0.75	0.50	1.00	0.50	0.75	1.50	4.25	5.00	6.50	8.50	9.75	9.25	12.00	5.00	2.75	7.25	-0.201172	0.121582	0.990723	24.990000	65.870003	-9.240000	854.00	0.18	-0.11
2.10	1.50	1.25	0.50	0.50	1.00	3.25	2.25	1.00	0.25	0.50	0.00	0.25	0.25	0.25	0.25	0.25	0.250488	-0.396973	1.009766	-40.670002	122.500000	-17.150000	167.00	-0.08	-0.06	0.75	0.25	0.75	0.50	0.75	1.25	4.00	3.75	6.75	9.00	10.25	9.50	12.00	5.25	3.00	7.50	-0.218750	0.138184	1.022949	28.139999	80.290001	-11.060000	845.00	0.19	-0.10
2.11	1.25	0.75	1.00	0.25	0.75	3.00	2.25	0.75	0.25	0.50	0.00	0.50	0.00	0.25	0.00	0.00	0.432617	0.184082	0.980957	-66.290001	145.460007	-20.719999	148.00	-0.08	-0.03	0.75	0.50	0.50	0.75	0.50	1.00	4.00	2.75	7.25	9.25	10.25	9.50	12.00	6.00	3.25	7.75	-0.247070	0.136719	1.064941	29.540001	98.139999	-14.070000	846.00	0.20	-0.09
2.12	2.25	1.00	1.25	0.25	1.00	3.00	2.50	0.50	0.25	0.25	0.25	0.75	0.25	0.00	0.00	0.25	0.023438	0.213379	1.919922	-25.129999	125.090004	-10.920000	173.00	-0.10	-0.02	0.75	0.25	0.50	0.50	0.75	1.25	3.75	2.00	7.50	9.75	10.50	9.75	12.00	6.50	3.50	8.00	-0.259766	0.123047	1.107910	28.910000	118.790001	-16.799999	854.00	0.21	-0.08
2.13	3.25	2.75	0.75	0.25	1.00	3.25	2.25	0.75	0.50	0.50	0.00	0.50	0.00	0.25	0.25	0.25	0.091309	-0.210938	0.850098	-16.100000	109.410004	-10.360000	202.00	-0.13	-0.03	1.00	0.50	0.50	0.75	0.75	1.25	3.75	1.75	7.75	10.00	10.50	9.75	12.00	7.00	3.50	8.50	-0.255859	0.135254	1.032715	22.469999	136.990005	-18.760000	872.00	0.20	-0.08
2.14	3.50	2.50	1.50	0.75	1.00	2.75	2.25	0.50	0.25	0.00	0.25	0.75	0.00	0.00	0.00	0.25	-0.134766	-0.074219	0.782715	-34.439999	120.540001	-25.270000	199.00	-0.17	-0.03	0.75	0.50	0.50	0.50	0.50	1.00	3.75	1.50	8.00	10.25	10.75	9.75	11.75	7.50	4.00	8.50	-0.301758	0.121582	1.033203	14.630000	153.020004	-19.670000	874.00	0.21	-0.07
2.15	5.00	3.50	1.75	1.00	1.25	2.50	2.25	0.75	0.00	0.25	0.25	0.75	0.50	0.25	0.25	0.00	-0.133789	0.162598	1.030762	-27.860001	144.899994	-27.930000	244.00	-0.18	-0.03	0.25	0.25	0.75	0.50	0.50	1.00	3.50	1.50	8.00	10.50	10.75	9.75	11.50	8.00	4.00	8.50	-0.303711	0.179199	1.027832	10.640000	170.869995	-20.860001	869.00	0.22	-0.07
2.16	5.50	5.25	2.50	1.50	1.75	3.00	2.50	1.00	0.25	0.25	0.50	1.25	0.50	0.00	0.00	0.00	-0.279785	0.263672	1.426270	-20.860001	153.789993	-23.660000	309.00	-0.19	-0.05	0.50	0.50	0.50	0.50	0.50	1.00	3.50	1.50	8.25	10.75	10.75	9.75	11.25	8.25	4.00	8.75	-0.347168	0.127441	1.073242	5.460000	182.699997	-22.889999	880.00	0.22	-0.07
2.17	6.75	5.50	3.00	2.75	1.50	3.00	2.50	0.75	0.25	0.25	0.50	1.25	1.00	0.50	0.25	0.50	-0.287109	0.253418	1.377441	-16.520000	140.350006	-18.900000	355.00	-0.19	-0.05	0.50	0.25	0.50	0.50	0.50	1.00	3.25	1.00	8.25	11.00	10.75	9.75	11.00	8.50	4.50	8.50	-0.361328	0.147949	1.062500	-0.350000	197.119995	-25.059999	872.00	0.22	-0.07
2.18	8.75	6.25	3.25	3.75	1.75	3.75	2.50	1.00	0.25	0.50	0.50	1.50	0.75	0.00	0.25	0.25	-0.354980	0.060059	1.611328	-31.920000	132.020004	-18.059999	414.00	-0.21	-0.05	0.50	0.25	0.75	0.50	0.50	1.00	3.25	1.25	8.00	11.25	10.50	9.50	10.50	8.75	4.25	8.50	-0.399902	0.169922	1.047852	-8.540000	227.500000	-31.780001	867.00	0.22	-0.06
2.19	8.75	7.75	5.00	5.00	2.25	4.75	2.50	1.00	0.00	0.00	0.50	1.00	1.00	0.25	0.00	0.25	-0.317383	0.164551	1.553711	-28.840000	123.900002	-12.180000	470.00	-0.23	-0.06	0.25	0.25	0.00	0.00	0.50	1.00	3.25	1.00	8.00	11.25	10.50	9.25	10.00	9.00	4.50	8.25	-0.440430	0.192383	1.063965	-13.370000	244.720001	-36.750000	841.00	0.24	-0.06
2.20	11.50	8.25	5.25	5.50	2.25	4.75	2.75	2.00	2.00	0.75	0.50	1.75	2.50	0.75	0.25	1.00	-0.283203	0.103516	1.357910	-22.610001	88.760002	-5.530000	608.00	-0.18	-0.06	0.75	0.00	0.25	0.00	0.50	1.00	3.25	1.00	7.75	11.00	10.25	9.00	9.50	9.00	4.00	8.00	-0.509766	0.171875	1.135254	-19.460001	260.679993	-41.860001	823.00	0.23	-0.06
2.21	12.00	8.75	6.25	7.00	2.75	5.25	2.75	1.50	0.50	0.25	0.75	1.50	1.75	0.50	0.25	0.50	-0.219238	0.073730	1.201660	-16.520000	74.900002	-1.750000	613.00	-0.21	-0.06	0.75	0.00	0.25	0.25	0.50	1.25	3.00	0.75	7.50	11.00	10.25	8.75	8.75	9.25	3.75	7.50	-0.513184	0.182617	1.062988	-25.760000	277.760010	-47.320000	804.00	0.23	-0.05
2.22	12.50	9.00	6.25	7.50	3.00	5.50	2.75	1.75	0.75	0.25	0.50	1.25	1.75	0.25	0.50	0.50	-0.229004	0.053223	1.165527	-10.990000	66.290001	-0.980000	635.00	-0.22	-0.06	0.50	0.25	0.25	0.00	0.25	1.00	3.00	1.00	7.25	10.75	10.00	8.25	8.00	9.25	3.50	6.75	-0.675293	0.221191	1.187500	-31.150000	296.380005	-53.200001	769.00	0.23	-0.05
2.23	12.50	9.25	7.00	7.75	3.25	5.75	2.75	2.00	0.50	0.25	0.50	1.25	2.00	0.00	0.50	0.00	-0.192871	0.075684	1.067383	-7.700000	59.360001	-1.470000	654.00	-0.22	-0.07	0.25	0.00	0.75	0.00	0.25	1.00	3.00	1.00	6.25	10.50	9.50	7.75	7.25	9.25	3.25	6.00	-0.645020	0.306152	1.180664	-31.710001	322.630005	-59.920002	727.00	0.23	-0.05
2.24	12.75	9.25	7.00	8.00	3.75	5.75	2.75	1.75	0.50	0.00	0.25	1.50	1.75	0.50	0.25	0.25	-0.204590	0.101562	1.039551	-4.970000	54.740002	-1.260000	659.00	-0.22	-0.06	0.25	0.00	0.25	0.00	0.25	1.00	3.00	1.00	5.50	10.00	9.00	7.00	6.00	9.25	2.75	5.00	-0.792969	0.284668	1.226562	-32.270000	342.720001	-68.250000	667.00	0.23	-0.04
2.25	13.50	9.50	7.25	8.25	4.25	6.75	3.00	2.00	0.50	0.25	0.50	1.25	2.00	0.50	0.25	0.25	-0.202148	0.113770	1.094727	-13.020000	46.830002	-0.280000	708.00	-0.22	-0.06	0.75	0.00	0.50	0.00	0.25	1.00	3.25	0.75	4.50	9.50	8.25	6.00	5.50	9.00	1.75	3.00	-1.018555	0.421875	1.231934	-29.540001	352.029999	-78.680000	605.00	0.22	-0.03
2.26	13.75	9.75	7.50	8.25	4.25	7.00	3.00	2.25	0.50	0.00	0.50	1.00	2.25	0.50	0.25	0.50	-0.214844	0.107422	1.031250	-20.440001	38.009998	0.840000	721.00	-0.22	-0.07	0.25	0.00	0.50	0.00	0.25	1.00	3.25	0.75	4.00	9.00	7.75	5.50	4.50	8.75	1.00	2.00	-1.476074	0.526367	1.464844	-16.450001	353.779999	-88.129997	549.00	0.22	-0.02
2.27	13.75	9.75	7.50	8.50	4.75	7.25	3.00	2.50	0.50	0.25	0.50	1.25	2.00	0.25	0.50	0.50	-0.198242	0.081055	1.012207	-23.940001	30.940001	1.540000	741.00	-0.22	-0.07	0.25	0.00	0.25	0.00	0.25	1.00	3.25	0.75	3.00	8.25	7.00	4.25	3.50	8.00	0.50	1.00	-1.431641	0.686523	1.625000	16.170000	344.959991	-92.120003	472.00	0.22	-0.01
2.28	14.25	9.75	8.00	8.75	5.00	7.50	3.00	2.50	0.50	0.25	0.50	1.25	2.25	0.50	0.25	0.50	-0.206055	0.089844	0.988281	-25.549999	26.809999	1.050000	764.00	-0.22	-0.07	0.50	0.00	0.50	0.00	0.25	1.00	3.50	0.75	2.50	7.75	5.75	4.00	3.25	7.25	0.00	0.50	-1.350098	0.555176	1.818359	49.630001	336.140015	-104.860001	434.00	0.20	-0.00
2.29	14.50	10.25	8.00	8.75	5.25	7.75	3.25	2.75	0.75	0.25	0.50	1.25	2.50	1.00	0.25	0.50	-0.201660	0.065918	0.973633	-25.410000	22.960001	0.700000	797.00	-0.21	-0.07	0.50	0.00	0.25	0.00	0.50	0.75	3.50	0.75	2.50	7.50	4.75	3.00	2.75	6.25	0.25	0.75	-1.240723	0.225586	1.754395	61.810001	326.410004	-118.790001	395.00	0.20	0.01
2.30	14.25	10.25	8.00	9.00	5.25	7.75	3.25	2.75	0.75	0.25	0.25	1.25	2.75	0.25	0.50	0.75	-0.204102	0.055664	0.973145	-24.360001	19.670000	0.910000	794.00	-0.21	-0.07	0.50	0.00	0.25	0.25	0.25	0.75	3.50	0.75	2.25	6.25	4.00	3.00	2.00	5.00	0.00	0.75	-1.303223	0.095703	1.873535	18.690001	303.239990	-136.850006	347.00	0.19	0.01
2.31	12.50	9.25	7.75	8.50	5.25	7.75	3.50	2.25	0.50	0.25	0.25	1.00	1.75	0.50	0.50	0.50	-0.194824	0.045410	0.991211	-22.469999	17.360001	0.910000	736.00	-0.21	-0.06	0.25	0.00	0.50	0.00	0.25	1.00	3.50	0.50	2.25	5.25	3.25	2.00	2.00	3.00	0.00	0.25	-1.030762	0.309082	1.810547	-19.950001	288.820007	-144.550003	290.00	0.17	0.02
2.32	15.00	10.25	8.50	9.25	5.75	8.25	3.25	2.75	0.75	0.25	0.25	1.25	2.50	0.50	0.25	0.50	-0.208984	0.045898	0.979980	-19.180000	14.910000	0.770000	819.00	-0.21	-0.07	0.50	0.25	0.50	0.00	0.25	0.75	3.75	0.50	2.00	4.50	2.50	1.75	1.50	1.75	0.00	0.25	-0.899414	0.387695	1.663574	-45.639999	273.420013	-148.820007	257.00	0.15	0.03
2.33	15.25	10.75	8.50	9.50	6.00	8.50	3.25	3.00	0.75	0.25	0.25	1.25	1.75	0.50	0.25	0.75	-0.208496	0.048828	0.973145	-15.050000	12.250000	0.770000	834.00	-0.22	-0.07	0.50	0.00	0.50	0.25	0.50	0.75	3.75	0.50	1.75	3.75	1.75	1.25	1.25	0.75	0.00	0.75	-0.600586	0.388672	1.518555	-62.369999	262.989990	-153.720001	225.00	0.13	0.03
2.34	14.75	11.00	8.75	9.00	7.00	9.25	3.75	3.50	1.00	0.75	1.25	2.00	3.75	2.00	1.25	1.75	-0.212402	0.056152	0.978027	-12.530000	10.220000	0.560000	945.00	-0.17	-0.07	0.25	0.00	0.25	0.00	0.25	0.50	3.75	0.50	1.50	3.00	1.50	1.00	0.75	0.50	0.25	0.75	-0.257812	0.307129	1.557617	-93.029999	251.160004	-157.779999	188.00	0.15	0.05
2.35	19.25	12.75	9.75	10.75	7.25	9.75	3.75	4.50	3.00	1.50	1.50	2.25	5.00	2.50	1.50	1.75	-0.204590	0.050293	0.970703	-10.640000	8.820000	0.630000	1135.00	-0.16	-0.07	0.00	0.00	0.00	0.25	0.00	0.75	3.75	0.50	1.25	2.75	1.25	0.50	1.00	0.25	0.00	0.50	0.454590	0.408691	1.631836	-141.610001	230.160004	-161.210007	166.00	0.14	0.04
2.36	19.00	13.00	10.00	11.00	7.50	9.25	3.75	4.25	2.25	1.50	1.25	2.00	5.00	2.25	1.25	1.75	-0.203125	0.054199	0.950195	-9.170000	7.490000	0.630000	1112.00	-0.17	-0.07	0.25	0.00	0.00	0.00	0.25	0.75	3.75	0.50	1.25	2.50	1.25	0.50	1.00	0.25	0.00	0.25	0.327637	0.382324	1.475098	-154.559998	198.520004	-146.509995	164.00	0.13	0.05
2.37	19.25	13.00	10.00	10.75	7.50	9.75	3.75	5.00	2.50	1.50	1.50	2.00	5.00	2.00	1.50	1.75	-0.200195	0.041992	0.954102	-8.540000	7.700000	0.630000	1137.00	-0.17	-0.07	0.25	0.00	0.25	0.00	0.25	0.75	3.75	0.50	1.25	2.25	1.00	0.75	0.75	0.50	0.00	0.75	0.438477	0.649414	2.201660	-141.399994	114.239998	-129.779999	168.00	0.13	0.05
2.38	19.50	12.75	10.00	9.75	7.50	9.75	3.75	5.00	2.25	1.50	1.50	2.00	4.75	2.00	1.25	2.00	-0.200684	0.042969	0.959473	-7.560000	7.700000	0.630000	1118.00	-0.17	-0.07	0.25	0.00	0.00	0.00	0.25	0.75	3.75	0.50	1.25	2.00	1.00	0.50	0.75	0.25	0.00	0.50	0.429199	0.749512	1.875977	-108.989998	30.660000	-112.279999	155.00	0.12	0.06
2.39	19.00	13.00	10.00	11.25	7.75	9.75	3.75	4.50	2.50	1.50	1.25	2.50	5.00	1.75	1.25	1.50	-0.204102	0.043457	0.962402	-6.510000	7.630000	0.490000	1131.00	-0.17	-0.07	0.00	0.00	0.25	0.00	0.50	0.75	4.00	0.25	0.75	2.00	1.00	0.50	0.75	0.50	0.00	0.50	0.524902	0.781250	1.664062	-71.889999	-42.420002	-94.290001	153.00	0.12	0.07
2.40	15.25	11.00	9.00	10.75	7.50	9.25	3.75	4.00	2.50	1.25	1.50	2.25	3.00	1.00	0.25	0.50	-0.209961	0.043457	0.968750	-5.530000	7.840000	0.280000	987.00	-0.18	-0.07	0.25	0.00	0.25	0.00	0.25	0.75	4.00	0.25	1.00	1.75	0.50	0.25	0.50	0.25	0.25	0.50	0.505859	0.753418	1.227539	-30.100000	-106.610001	-74.269997	143.00	0.11	0.09
2.41	15.00	10.75	8.50	9.50	6.75	10.00	3.75	3.75	0.50	0.50	0.75	1.75	4.50	0.75	0.75	1.75	-0.201660	0.039062	0.951660	-5.110000	7.700000	0.280000	930.00	-0.18	-0.09	0.00	0.00	0.50	0.00	0.50	0.75	4.00	0.25	0.50	1.50	0.50	0.00	1.00	0.00	0.00	0.50	0.421875	0.707520	0.979004	5.600000	-148.399994	-52.849998	133.00	0.09	0.07
2.42	19.00	12.75	10.00	11.00	8.00	10.25	4.00	6.00	2.75	1.75	1.75	2.25	5.25	2.00	1.25	1.75	-0.198242	0.051758	0.946289	-5.460000	7.980000	0.070000	1179.00	-0.16	-0.08	0.00	0.00	0.00	0.00	0.25	0.75	4.00	0.50	0.50	1.25	0.00	0.25	0.50	0.25	0.00	0.50	0.251953	0.507324	0.733887	37.029999	-180.389999	-5.950000	120.00	0.10	0.08
2.43	18.75	12.50	9.75	10.75	8.00	10.25	4.00	6.00	2.25	1.50	1.75	2.50	5.50	1.75	1.50	1.75	-0.200195	0.052734	0.940430	-6.230000	8.190000	-0.280000	1163.00	-0.16	-0.08	0.25	0.00	0.00	0.25	0.50	0.75	4.00	0.50	0.50	1.25	0.25	0.00	0.50	0.00	0.00	0.00	0.230957	0.420410	0.668945	30.380001	-182.979996	17.850000	124.00	0.06	0.09
2.44	17.25	12.00	9.75	10.50	8.00	10.25	4.00	6.25	2.75	1.75	2.00	2.75	5.75	2.00	1.50	1.75	-0.192383	0.042969	0.938965	-6.930000	8.400000	-0.630000	1163.00	-0.15	-0.08	0.00	0.00	0.25	0.00	0.25	0.75	4.00	0.25	0.50	1.00	0.25	0.25	0.50	0.25	0.00	0.25	0.195801	0.366699	0.700684	12.180000	-185.289993	40.250000	118.00	0.09	0.10
2.45	17.25	11.50	9.50	10.50	8.25	10.25	4.25	6.25	2.75	1.75	1.75	2.75	5.75	2.25	1.25	1.75	-0.195801	0.036133	0.937012	-7.420000	8.260000	-0.980000	1159.00	-0.14	-0.08	0.50	0.00	0.00	0.00	0.25	0.75	4.00	0.50	0.50	1.00	0.25	0.25	0.25	0.00	0.00	0.50	0.177734	0.348633	0.754883	-9.590000	-191.380005	61.459999	121.00	0.07	0.09
2.46	11.00	8.75	7.75	8.75	7.25	9.00	4.00	5.50	1.00	0.75	0.75	1.50	4.00	0.50	0.25	1.00	-0.190918	0.037598	0.956055	-6.790000	8.050000	-1.330000	863.00	-0.16	-0.09	0.25	0.00	0.00	0.00	0.25	0.75	4.00	0.50	0.50	1.00	0.25	0.00	0.50	0.00	0.00	0.25	0.151367	0.361328	0.837891	-28.210001	-202.020004	81.550003	117.00	0.08	0.09
2.47	10.50	8.25	7.50	8.25	7.50	8.75	4.00	5.50	1.25	1.00	1.00	1.75	4.50	1.00	0.25	0.75	-0.214844	0.044922	0.978516	-6.020000	8.400000	-1.470000	864.00	-0.15	-0.09	0.00	0.00	0.25	0.00	0.25	0.75	4.00	0.50	0.50	1.00	0.25	0.00	0.00	0.00	0.00	0.00	0.140137	0.383301	0.880859	-41.720001	-216.649994	98.910004	111.00	0.07	0.12
2.48	11.00	9.75	8.25	8.25	7.50	9.00	4.25	6.00	1.25	2.00	1.25	2.00	5.00	1.25	0.25	2.00	-0.315430	0.100098	0.947266	-3.220000	9.660000	-1.540000	941.00	-0.14	-0.09	0.00	0.00	0.25	0.00	0.50	0.50	3.75	0.50	0.25	1.00	0.25	0.00	0.25	0.25	0.00	0.50	0.082520	0.392578	0.933105	-46.830002	-232.259995	113.400002	111.00	0.08	0.10
2.49	13.25	9.00	7.50	8.75	8.00	10.25	4.50	7.25	3.75	2.00	1.50	2.75	8.00	2.25	0.50	1.75	-0.315430	0.100098	0.947266	-3.220000	9.660000	-1.540000	1087.00	-0.11	-0.09	0.00	0.00	0.00	0.00	0.25	0.75	3.75	0.50	0.00	1.00	0.00	0.00	0.50	0.00	0.00	0.25	0.027832	0.361328	0.995605	-43.889999	-247.520004	124.809998	100.00	0.07	0.08
2.50	9.25	7.00	6.75	7.50	7.25	8.75	4.25	6.25	2.25	1.25	1.50	2.50	7.00	0.50	0.00	1.25	-0.198242	0.070312	0.979980	-2.030000	9.870000	-1.120000	883.00	-0.12	-0.11	0.00	0.00	0.00	0.00	0.25	0.50	3.75	0.25	0.25	1.00	0.00	0.00	0.25	0.25	0.00	0.25	-0.002441	0.286621	1.003906	-36.400002	-260.959991	132.300003	96.00	0.10	0.13
2.51	8.25	7.00	6.50	7.75	8.25	8.50	4.25	7.00	4.00	2.00	1.75	2.75	7.25	1.25	1.25	1.50	-0.218262	0.048340	0.959473	0.560000	9.870000	-0.420000	958.00	-0.09	-0.10	0.00	0.00	0.00	0.00	0.25	0.50	3.75	0.25	0.25	1.00	0.00	0.00	0.25	0.25	0.00	0.25	-0.057617	0.213867	1.041504	-28.559999	-274.049988	135.869995	96.00	0.10	0.13
2.52	8.00	6.50	6.25	7.75	7.50	8.75	4.25	7.50	2.50	2.00	2.25	2.50	8.00	1.75	0.50	1.75	-0.214355	0.041992	0.952637	1.260000	9.800000	-0.280000	935.00	-0.09	-0.11	0.25	0.00	0.00	0.00	0.25	0.75	3.75	0.25	0.25	1.00	0.25	0.00	0.00	0.00	0.00	0.25	-0.159180	0.145508	1.062500	-22.260000	-285.320007	135.520004	100.00	0.07	0.12
2.53	7.25	6.25	6.50	6.50	7.25	8.75	4.50	7.25	3.00	2.50	2.00	3.25	8.25	2.00	1.50	2.50	-0.222656	0.049316	0.969238	1.750000	9.940000	-0.140000	948.00	-0.06	-0.11	0.00	0.00	0.00	0.00	0.25	0.50	3.75	0.50	0.00	1.00	0.00	0.00	0.00	0.00	0.00	0.25	-0.256836	0.091309	1.108887	-17.360001	-294.000000	130.899994	92.00	0.07	0.11
2.54	8.75	6.50	7.00	7.75	8.25	9.25	4.50	8.00	4.75	3.25	3.50	4.00	9.00	2.50	1.50	2.25	-0.220215	0.057129	0.940430	2.170000	10.010000	-0.210000	1089.00	-0.06	-0.10	0.00	0.00	0.00	0.00	0.25	0.75	3.75	0.50	0.50	0.50	0.00	0.00	0.00	0.25	0.00	0.25	-0.423828	-0.009277	1.145508	-10.010000	-301.140015	111.370003	99.00	0.08	0.12
2.55	8.50	6.50	6.75	7.50	8.25	9.75	4.75	8.25	5.00	3.25	3.75	4.50	9.25	2.50	1.50	2.50	-0.182129	0.020020	0.962891	2.380000	10.640000	-0.350000	1110.00	-0.05	-0.10	0.25	0.00	0.00	0.00	0.50	0.50	3.75	0.25	0.25	0.75	0.00	0.00	0.25	0.25	0.00	0.25	-0.498047	-0.047852	1.143066	-3.780000	-300.230011	96.110001	99.00	0.07	0.13
2.56	7.75	6.25	6.75	7.00	8.00	9.50	4.75	8.25	5.00	3.75	4.00	5.50	9.50	2.50	1.75	2.75	-0.223633	0.050781	0.953613	2.380000	11.130000	-0.350000	1114.00	-0.04	-0.11	0.25	0.00	0.25	0.00	0.25	0.50	3.75	0.50	0.25	0.75	0.00	0.00	0.25	0.25	0.00	0.00	-0.562500	-0.111816	1.204590	8.470000	-297.360016	73.989998	102.00	0.06	0.12
2.57	7.00	6.25	6.25	6.75	8.00	9.50	4.75	8.50	5.00	3.75	4.00	5.75	9.75	2.75	1.50	2.75	-0.240234	0.036621	0.963867	2.590000	11.690000	-0.420000	1105.00	-0.03	-0.11	0.00	0.00	0.25	0.00	0.25	0.50	3.75	0.50	0.25	0.75	0.00	0.00	0.25	0.25	0.00	0.00	-0.631836	-0.186523	1.304688	28.210001	-293.649994	47.040001	99.00	0.07	0.12
2.58	6.75	6.00	6.25	6.50	7.75	9.50	4.75	8.50	5.00	4.00	5.00	6.00	10.00	2.50	1.75	3.00	-0.209961	0.042969	0.947266	2.730000	12.460000	-0.350000	1116.00	-0.02	-0.11	0.25	0.00	0.00	0.00	0.25	0.50	3.75	0.50	0.25	0.75	0.00	0.00	0.25	0.25	0.00	0.00	-0.672363	-0.255859	1.405273	43.400002	-290.850006	20.650000	99.00	0.07	0.12
2.59	6.50	6.00	6.00	6.00	7.50	9.25	4.75	8.75	5.25	4.25	5.00	6.00	10.25	2.75	1.50	3.25	-0.231445	0.049805	0.961914	3.010000	13.230000	-0.420000	1112.00	-0.02	-0.11	0.25	0.00	0.00	0.00	0.25	0.75	3.75	0.25	0.25	0.75	0.00	0.00	0.00	0.25	0.00	0.25	-0.691895	-0.283691	1.493164	44.170002	-289.170013	-0.700000	97.00	0.07	0.13
2.60	6.50	5.75	5.75	6.00	7.25	9.25	4.50	8.75	6.00	4.25	5.75	6.75	10.50	3.25	1.75	3.25	-0.288086	-0.013184	0.966309	3.080000	14.350000	-0.490000	1137.00	-0.01	-0.11	0.25	0.00	0.25	0.00	0.25	0.75	3.75	0.50	0.25	0.75	0.00	0.00	0.00	0.25	0.00	0.00	-0.718750	-0.225586	1.588379	34.790001	-288.329987	-14.210000	102.00	0.05	0.12
2.61	6.00	5.75	5.50	5.75	7.00	9.00	4.50	8.50	5.50	4.50	6.00	7.25	10.75	3.25	1.75	3.50	-0.233398	0.042480	0.963379	3.570000	15.120000	-0.420000	1123.00	-0.00	-0.12	0.25	0.00	0.00	0.00	0.50	0.75	3.75	0.50	0.25	0.50	0.00	0.00	0.25	0.25	0.00	0.00	-0.736816	-0.139648	1.677734	23.030001	-288.049988	-20.719999	102.00	0.05	0.10
2.62	6.00	5.00	5.50	5.25	5.75	8.25	4.50	8.25	5.50	4.25	5.50	6.25	10.00	1.50	0.75	2.75	-0.247070	0.067383	0.954102	4.130000	15.960000	-0.350000	1022.00	-0.01	-0.12	0.25	0.00	0.25	0.00	0.25	0.75	3.75	0.25	0.25	0.75	0.00	0.00	0.25	0.25	0.00	0.00	-0.759766	-0.040527	1.731934	15.750000	-287.630005	-22.049999	100.00	0.06	0.12
2.63	5.00	4.25	3.75	3.75	5.50	7.75	4.00	8.25	5.25	3.50	6.00	7.00	10.25	2.00	1.00	3.00	-0.202637	0.010742	0.985352	4.900000	16.660000	-0.490000	960.00	0.01	-0.13	0.00	0.00	0.00	0.00	0.25	0.50	3.75	0.25	0.00	0.75	0.00	0.00	0.25	0.25	0.00	0.25	-0.787109	0.038574	1.812988	16.940001	-286.440002	-20.370001	90.00	0.08	0.13
2.64	4.75	3.00	3.75	3.75	5.00	8.00	4.00	8.25	5.25	4.25	7.00	7.50	10.50	1.50	0.75	3.00	-0.181152	0.060059	0.968750	5.390000	17.850000	-0.560000	963.00	0.02	-0.13	0.00	0.00	0.25	0.00	0.25	0.75	3.75	0.25	0.25	0.50	0.00	0.00	0.25	0.25	0.00	0.00	-0.844727	0.092773	1.883301	26.740000	-284.269989	-17.850000	95.00	0.06	0.13
2.65	5.00	3.00	3.50	3.00	4.50	7.50	3.75	8.25	5.00	4.50	7.25	7.50	10.50	2.00	1.00	3.25	-0.222656	0.066895	0.963379	6.090000	18.900000	-0.420000	948.00	0.03	-0.13	0.00	0.00	0.25	0.00	0.25	0.75	3.75	0.25	0.25	0.75	0.00	0.00	0.00	0.00	0.00	0.25	-0.937988	0.098633	2.000488	40.880001	-281.399994	-15.750000	94.00	0.06	0.13
2.66	4.50	2.25	3.50	3.25	4.00	7.50	3.75	8.25	5.25	4.75	8.00	8.50	10.75	2.25	0.75	3.25	-0.260254	0.062012	0.950195	8.190000	21.770000	-0.980000	961.00	0.04	-0.13	0.00	0.00	0.25	0.00	0.25	0.75	3.75	0.25	0.25	0.75	0.00	0.00	0.25	0.00	0.00	0.25	-1.257812	0.070312	2.150391	59.849998	-280.980011	-12.040000	97.00	0.06	0.12
2.67	3.00	2.50	3.00	3.25	3.75	7.25	3.50	8.00	5.25	5.25	8.50	9.00	12.00	3.75	1.25	3.75	-0.236816	0.072266	0.957031	9.800000	23.870001	-1.610000	977.00	0.07	-0.14	0.25	0.00	0.25	0.00	0.50	0.50	3.75	0.25	0.00	0.75	0.00	0.00	0.00	0.00	0.00	0.00	-1.437988	0.130859	2.048828	67.269997	-279.510010	-8.540000	92.00	0.04	0.14
2.68	3.50	2.50	2.75	3.00	3.00	7.00	3.25	8.00	5.50	6.00	8.50	8.50	11.50	2.75	1.25	4.00	-0.249023	0.075195	0.963379	11.620000	25.969999	-2.310000	955.00	0.06	-0.14	0.00	0.00	0.00	0.00	0.25	0.50	3.75	0.50	0.25	0.75	0.00	0.00	0.00	0.25	0.00	0.00	-1.630371	0.144531	2.020996	80.989998	-274.190002	-2.030000	93.00	0.08	0.13
2.69	3.25	2.25	2.50	2.75	2.50	6.25	3.25	7.75	5.50	6.50	9.00	9.75	12.50	4.25	2.75	5.75	-0.260742	0.050293	0.965332	14.280000	28.280001	-3.010000	1001.00	0.09	-0.14	0.25	0.00	0.00	0.00	0.25	0.50	3.75	0.25	0.25	1.00	0.00	0.00	0.00	0.25	0.00	0.00	-1.838867	0.039062	1.993164	100.449997	-268.380005	7.420000	95.00	0.07	0.15
2.70	3.00	3.25	3.00	2.25	2.50	6.00	3.00	7.75	5.75	7.50	9.50	9.25	12.00	3.25	1.75	5.50	-0.256836	0.058105	0.970215	18.270000	32.689999	-3.010000	989.00	0.08	-0.14	0.25	0.00	0.00	0.00	0.25	0.75	3.75	0.50	0.25	0.75	0.00	0.00	0.00	0.00	0.00	0.00	-2.089844	-0.073730	1.985840	118.860001	-266.769989	19.460001	97.00	0.05	0.12
2.71	3.00	2.00	2.25	2.75	2.00	6.00	3.00	7.75	6.00	7.75	10.00	9.50	12.00	2.25	2.00	5.50	-0.257324	0.062012	0.992188	23.590000	38.709999	-2.450000	976.00	0.09	-0.14	0.00	0.00	0.50	0.00	0.25	0.50	3.75	0.25	0.25	1.00	0.00	0.00	0.00	0.00	0.00	0.00	-2.350098	-0.199219	1.834473	130.199997	-270.970001	34.299999	96.00	0.06	0.15
2.72	3.00	2.75	2.75	2.25	1.75	5.75	3.00	7.25	6.50	8.00	10.25	10.00	12.25	3.75	1.75	5.75	-0.253418	0.085449	0.976074	30.450001	44.380001	-1.750000	1003.00	0.10	-0.13	0.00	0.00	0.00	0.00	0.25	0.75	3.75	0.25	0.25	0.75	0.00	0.00	0.25	0.00	0.00	0.25	-2.604980	-0.306152	1.438965	130.690002	-276.290009	53.480000	94.00	0.08	0.12
2.73	2.75	2.00	2.50	2.25	1.50	5.00	2.75	6.50	6.50	8.25	10.75	10.50	12.25	4.50	2.00	6.00	-0.269043	0.090332	0.969238	36.470001	48.439999	-1.680000	987.00	0.11	-0.13	0.00	0.00	0.00	0.00	0.25	0.50	3.75	0.00	0.50	0.75	0.00	0.00	0.25	0.00	0.00	0.00	-2.916992	-0.358398	0.884766	117.739998	-270.410004	75.669998	89.00	0.09	0.17
2.74	2.50	1.50	2.25	2.00	1.50	5.25	2.50	6.00	6.75	8.75	11.00	10.50	12.50	4.25	2.50	6.25	-0.278320	0.107910	0.978516	38.220001	59.920002	-1.610000	983.00	0.12	-0.13	0.00	0.00	0.00	0.00	0.25	0.50	3.75	0.25	0.25	0.75	0.00	0.00	0.25	0.00	0.00	0.25	-3.318359	-0.409668	0.183594	96.879997	-245.000000	97.090004	91.00	0.08	0.13
2.75	3.00	1.75	2.50	2.00	1.50	5.25	2.50	5.50	7.25	9.00	11.50	10.75	12.25	5.75	2.50	6.25	-0.293945	0.110352	0.975098	40.180000	71.680000	-2.800000	1016.00	0.13	-0.12	0.25	0.00	0.00	0.00	0.50	0.25	3.75	0.00	0.00	1.00	0.00	0.00	0.25	0.00	0.00	0.00	-3.643555	-0.442383	-0.562988	78.260002	-203.350006	111.720001	87.00	0.07	0.17
2.76	3.25	2.00	3.00	2.50	1.50	5.00	2.50	5.25	7.00	9.25	11.75	11.00	12.50	6.25	2.50	6.50	-0.297852	0.111328	0.994629	40.670002	89.459999	-3.500000	1039.00	0.12	-0.12	0.00	0.00	0.00	0.00	0.25	0.75	3.75	0.50	0.25	1.00	0.00	0.00	0.00	0.00	0.00	0.00	-3.932129	-0.413574	-1.107910	57.540001	-149.869995	113.120003	97.00	0.07	0.12
2.77	3.25	1.75	2.75	2.00	1.25	5.00	2.25	4.50	7.25	9.25	11.75	11.25	11.75	6.25	2.75	6.50	-0.331543	0.119141	1.038086	40.529999	114.800003	-4.900000	1011.00	0.13	-0.11	0.00	0.00	0.25	0.00	0.25	0.50	3.75	0.25	0.25	0.75	0.00	0.00	0.00	0.00	0.00	0.25	-3.957520	-0.337402	-1.317871	42.980000	-84.279999	105.070000	91.00	0.07	0.14
2.78	2.50	1.00	2.50	2.00	1.25	5.00	2.00	3.75	7.50	9.50	12.00	11.25	11.75	7.00	3.25	6.75	-0.341309	0.131348	1.037109	35.490002	140.770004	-6.720000	998.00	0.15	-0.11	0.00	0.00	0.00	0.00	0.25	0.25	3.75	0.25	0.25	0.75	0.00	0.00	0.00	0.00	0.00	0.00	-3.078613	-0.418945	-0.520020	50.330002	64.750000	95.480003	84.00	0.08	0.17
2.79	2.25	1.00	1.75	2.00	1.25	5.00	2.00	3.25	7.25	9.75	12.25	11.50	12.00	7.75	3.25	7.00	-0.373047	0.135742	1.006348	27.719999	163.520004	-7.980000	994.00	0.16	-0.11	0.00	0.00	0.00	0.00	0.25	0.75	3.75	0.50	0.25	0.75	0.00	0.00	0.00	0.00	0.00	0.00	-2.488281	-0.429688	0.177246	51.099998	118.790001	98.419998	94.00	0.06	0.12
2.80	2.50	0.50	1.75	1.00	1.00	4.50	2.00	3.25	7.25	9.75	12.25	11.25	11.50	8.00	3.25	6.75	-0.422852	0.181152	1.084473	19.250000	203.210007	-11.970000	964.00	0.17	-0.10	0.00	0.00	0.00	0.00	0.25	0.25	3.75	0.25	0.25	0.50	0.00	0.00	0.00	0.00	0.00	0.00	-1.425293	0.059570	2.583008	-22.540001	210.279999	118.300003	81.00	0.08	0.17
2.81	3.00	3.50	3.00	2.50	1.50	4.50	2.00	4.00	8.25	10.75	13.25	12.25	11.75	9.50	5.50	7.75	-0.445312	0.161621	1.059570	16.309999	222.460007	-15.540000	1148.00	0.14	-0.10	0.25	0.00	0.25	0.00	0.25	0.50	3.75	0.25	0.25	0.50	0.00	0.00	0.00	0.00	0.00	0.00	1.034180	0.035156	2.247559	-64.470001	210.630005	121.940002	90.00	0.04	0.15
2.82	3.25	1.00	2.75	3.00	1.25	5.50	1.75	3.75	8.25	10.50	13.25	11.25	10.75	8.50	5.00	6.75	-0.484863	0.160645	1.143555	11.060000	241.220001	-19.110001	1085.00	0.15	-0.10	1.00	0.00	0.25	0.00	0.50	0.25	3.75	0.50	0.25	0.50	0.00	0.00	0.50	0.00	0.00	0.25	0.875000	-0.143555	1.919434	-36.889999	142.729996	124.110001	109.00	0.02	0.11
2.83	4.25	3.25	2.75	2.50	1.25	5.00	2.00	3.50	8.25	10.75	13.25	12.00	11.00	10.00	5.50	7.50	-0.529297	0.181152	1.107910	6.580000	263.899994	-24.010000	1145.00	0.14	-0.09	1.75	1.25	0.50	0.25	0.50	0.00	3.75	0.50	0.00	0.25	0.00	0.25	0.25	0.00	0.00	0.25	0.103027	-1.106445	1.846191	-38.500000	105.139999	105.699997	127.00	-0.07	0.08
2.84	4.00	2.25	2.25	1.25	1.25	5.50	2.00	3.50	7.75	10.75	12.75	11.50	10.25	10.00	5.50	7.00	-0.566895	0.240723	1.193848	0.420000	290.010010	-29.680000	1088.00	0.15	-0.09	3.75	1.75	1.25	1.00	0.75	0.00	4.00	0.50	0.00	0.25	0.00	0.00	0.50	0.00	0.00	0.00	0.219238	-1.058594	0.392578	-54.110001	104.160004	63.910000	178.00	-0.15	0.07
2.85	2.25	1.00	2.00	1.25	1.25	4.75	1.75	2.50	6.75	9.75	11.50	10.25	9.25	10.25	5.50	6.75	-0.660645	0.251953	1.249023	-4.340000	319.339996	-38.150002	960.00	0.17	-0.08	5.25	3.50	1.75	1.25	0.75	0.00	4.00	0.25	0.25	0.00	0.00	0.25	1.25	0.00	0.00	0.25	-0.050293	-0.973145	0.915527	-52.570000	143.570007	16.940001	230.00	-0.18	0.04
2.86	2.75	1.00	2.50	1.75	1.25	5.50	2.00	2.75	6.50	9.50	11.25	9.50	7.75	8.75	4.00	5.75	-0.715820	0.249023	1.356934	-15.050000	350.209991	-47.529999	926.00	0.15	-0.08	6.25	5.00	2.75	2.25	1.25	0.00	4.00	0.50	0.00	0.25	0.00	0.00	1.00	0.00	0.00	0.50	-0.229004	-0.550781	1.299316	-37.380001	178.710007	-23.520000	286.00	-0.21	0.02
2.87	2.75	0.50	2.50	2.50	1.00	4.50	1.50	2.50	6.00	9.75	10.50	9.50	7.50	8.75	4.75	5.00	-0.807617	0.330566	1.390625	-16.030001	388.640015	-55.860001	891.00	0.15	-0.08	9.25	6.75	4.50	4.00	1.50	0.00	4.00	0.50	0.00	0.50	0.25	0.25	1.00	0.25	0.25	0.75	-0.348633	0.164551	1.493652	-15.400000	183.680008	-46.830002	398.00	-0.22	0.00
2.88	2.50	1.50	2.75	1.75	1.00	4.75	1.75	2.50	5.25	8.50	10.00	8.25	5.25	8.50	3.00	4.00	-0.965820	0.370117	1.440430	-7.770000	421.399994	-61.880001	805.00	0.14	-0.07	12.25	8.25	5.50	5.50	2.00	1.00	4.25	0.50	0.00	0.50	0.00	0.25	1.50	0.25	0.25	0.75	-0.561523	0.551758	2.367676	12.040000	184.940002	-45.570000	501.00	-0.24	-0.01
2.89	2.50	1.50	2.50	1.75	0.75	4.50	1.75	2.00	4.50	8.00	9.25	7.50	4.25	7.75	2.50	2.75	-1.639160	0.545410	1.886230	-0.770000	440.860016	-63.980000	724.00	0.13	-0.07	14.25	9.25	7.25	7.25	2.75	1.75	4.50	0.75	0.50	0.50	0.00	0.50	1.75	0.25	0.00	0.50	-0.336426	0.364258	1.593750	-3.150000	171.639999	-32.619999	611.00	-0.24	-0.01
2.90	3.00	1.50	2.50	2.00	1.00	4.75	1.75	2.25	4.00	7.50	8.25	6.75	4.50	7.00	1.50	1.50	-1.819824	0.570801	2.219238	28.000000	448.209991	-59.639999	687.00	0.11	-0.07	15.00	9.75	8.25	8.00	3.50	2.50	4.50	1.00	0.00	0.25	0.00	0.50	2.00	0.25	0.00	0.75	-0.337402	0.122070	1.612305	-29.469999	127.540001	-7.420000	661.00	-0.24	-0.02
2.91	2.50	1.25	2.50	1.75	1.00	4.75	1.75	2.25	3.50	6.50	7.75	6.00	3.25	6.25	0.75	1.25	-1.604004	0.517578	2.481934	54.740002	445.410004	-61.950001	614.00	0.10	-0.07	15.50	9.75	8.75	8.75	4.50	3.00	4.75	1.25	0.25	0.50	0.25	0.50	1.75	0.25	0.00	0.50	-0.248047	0.033691	1.625000	-35.420002	98.840004	-5.040000	714.00	-0.23	-0.02
2.92	3.00	1.00	2.25	2.00	0.75	4.75	1.75	2.00	3.00	5.75	6.50	5.25	2.50	5.50	0.75	1.00	-1.487793	0.361328	2.420898	61.459999	439.950012	-75.879997	556.00	0.08	-0.07	15.25	10.75	9.00	9.00	5.00	4.00	5.00	1.50	0.25	0.50	0.00	0.25	2.00	0.50	0.25	0.75	-0.155273	0.113281	1.162598	-37.520000	62.650002	-3.640000	756.00	-0.23	-0.03
2.93	2.75	1.25	2.50	1.75	0.75	4.50	1.75	2.00	2.50	4.75	5.50	4.50	2.75	4.00	0.75	1.00	-1.494141	0.197266	2.275391	55.650002	440.019989	-88.199997	502.00	0.07	-0.08	15.25	10.50	9.25	9.25	5.50	4.75	5.00	1.75	0.50	0.50	0.00	0.25	2.25	0.25	0.00	0.50	-0.182617	0.109375	1.018555	-34.020000	40.880001	-1.190000	778.00	-0.23	-0.03
2.94	2.25	0.75	2.50	2.00	1.00	4.50	1.75	1.75	2.25	4.50	4.50	4.00	2.75	2.75	0.75	0.50	-0.937988	0.607422	2.416992	16.799999	416.500000	-113.120003	455.00	0.06	-0.08	15.25	10.25	9.50	9.50	6.00	5.25	5.00	2.00	0.50	0.50	0.00	0.25	2.25	0.50	0.25	0.75	-0.141602	0.107422	1.003418	-32.619999	31.570000	1.120000	805.00	-0.22	-0.04
2.95	4.25	3.25	3.50	3.25	1.50	5.00	2.00	1.75	2.25	3.00	3.50	3.50	2.00	1.25	0.50	0.75	-0.528809	0.607422	2.416992	16.799999	416.500000	-113.120003	489.00	-0.04	-0.08	15.00	10.00	9.25	9.75	6.25	6.00	5.00	2.25	0.75	1.00	0.25	0.25	2.50	0.50	0.00	0.75	-0.176758	0.066895	1.013184	-30.870001	22.610001	1.470000	827.00	-0.21	-0.04
2.96	2.75	1.00	2.00	1.50	0.75	4.50	1.75	1.75	1.50	3.00	3.75	2.50	2.50	0.50	0.25	0.75	-0.129395	0.621094	2.355469	34.090000	385.980011	-127.610001	367.00	0.01	-0.10	14.50	9.75	9.25	9.50	6.50	6.25	5.25	2.50	0.75	1.00	0.25	0.25	2.50	0.75	0.00	0.75	-0.146484	0.051270	1.006348	-27.440001	14.910000	0.140000	832.00	-0.20	-0.04
2.97	2.25	0.75	2.00	1.50	0.75	4.25	2.00	1.75	1.50	2.00	1.75	2.00	1.75	0.50	0.50	0.75	0.807617	0.447754	2.331543	52.709999	358.820007	-137.479996	316.00	-0.01	-0.09	14.25	9.50	9.25	9.50	7.00	6.50	5.25	2.75	0.75	0.75	0.25	0.25	2.50	0.75	0.25	1.00	-0.151367	0.057617	0.985352	-23.940001	9.310000	-0.840000	842.00	-0.20	-0.04
2.98	2.50	0.75	2.25	1.50	1.00	4.75	2.00	1.25	1.00	2.00	2.00	2.00	1.50	0.50	0.25	0.50	0.927734	0.408691	0.993652	21.910000	336.839996	-143.289993	311.00	-0.03	-0.08	13.50	9.00	9.00	9.50	7.50	6.75	5.25	3.25	1.25	0.75	0.25	0.50	3.25	0.50	0.00	1.00	-0.136230	0.068359	1.006836	-20.860001	4.480000	-1.820000	854.00	-0.19	-0.05
2.99	2.00	1.50	2.25	1.75	1.00	4.50	2.00	1.50	1.50	1.50	1.50	2.00	1.25	0.25	0.50	0.75	0.873535	0.490234	3.294922	-22.400000	203.279999	-128.380005	313.00	-0.03	-0.09	12.50	8.25	8.75	9.00	7.75	6.75	5.25	3.50	1.50	1.00	0.50	0.50	3.25	0.75	0.50	0.75	-0.125488	0.067871	0.961914	-17.570000	1.330000	-2.730000	849.00	-0.17	-0.05
3.00	2.75	1.00	2.25	1.50	1.00	4.25	2.00	1.50	1.25	1.50	1.25	1.50	1.25	0.25	0.25	0.50	0.916016	0.589355	2.398926	-35.349998	36.400002	-94.709999	294.00	-0.05	-0.07	11.75	7.75	8.75	8.75	8.00	6.75	5.50	3.75	1.50	1.00	0.50	0.50	3.50	0.50	0.25	1.25	-0.143066	0.053711	0.971191	-15.120000	0.490000	-3.290000	844.00	-0.17	-0.05
3.01	2.50	1.25	2.00	1.25	1.00	4.50	2.00	1.25	0.75	1.25	1.25	1.25	2.50	0.50	0.25	0.50	0.801270	0.583008	2.036621	-45.920002	-98.629997	-63.000000	287.00	-0.05	-0.10	10.50	7.25	8.50	8.25	8.25	7.00	5.50	4.00	1.75	1.25	0.75	0.75	4.00	0.50	0.25	1.25	-0.106445	0.071777	1.018555	-12.460000	1.190000	-3.360000	843.00	-0.15	-0.06
3.02	2.50	1.25	2.50	1.25	1.00	4.50	2.00	2.00	0.50	1.50	0.75	1.25	1.00	0.25	0.25	0.50	0.460938	0.521484	1.433105	-45.849998	-189.910004	-38.849998	283.00	-0.07	-0.09	9.75	6.75	8.00	8.00	8.50	6.75	5.50	4.25	2.25	1.25	0.75	1.00	4.25	0.75	0.00	1.25	-0.358887	0.078125	0.955566	-6.720000	4.130000	-2.450000	836.00	-0.14	-0.06
3.03	3.50	0.75	2.00	1.50	1.25	4.75	2.25	1.50	0.50	0.75	0.50	1.25	1.00	0.50	0.25	0.25	0.330078	0.501953	0.886230	-35.700001	-234.290009	-24.570000	277.00	-0.09	-0.07	9.00	6.25	7.75	7.25	8.25	6.75	5.50	4.25	2.50	1.75	1.00	0.75	5.00	0.75	0.25	1.50	-0.112793	0.052734	0.968750	-3.990000	5.810000	-1.890000	828.00	-0.12	-0.06
3.04	2.50	1.25	2.00	1.75	0.75	4.25	2.00	1.75	0.50	0.50	0.75	1.25	2.00	0.25	0.50	0.25	0.228027	0.461914	0.612305	-18.830000	-244.860001	-16.870001	272.00	-0.08	-0.11	8.00	5.75	7.25	6.75	8.25	6.50	5.50	4.75	2.75	1.75	1.00	0.75	5.00	1.00	0.25	1.25	-0.057617	0.047852	0.990723	-2.100000	7.770000	-1.610000	810.00	-0.11	-0.06
3.05	2.50	1.75	1.75	1.50	1.00	4.25	2.25	1.75	0.75	1.00	0.50	1.25	1.25	0.25	0.25	0.50	0.143555	0.406250	0.451660	0.280000	-240.380005	-11.970000	276.00	-0.08	-0.09	7.25	5.25	6.75	6.25	8.25	6.50	5.75	5.00	3.00	2.25	1.00	1.00	5.25	0.75	0.25	1.25	-0.127930	0.053223	0.981934	-0.630000	9.310000	-1.470000	805.00	-0.10	-0.06
3.06	2.50	1.00	2.25	1.75	1.00	4.50	2.00	1.50	0.50	0.75	0.50	1.00	1.00	0.25	0.25	0.25	0.131836	0.336914	0.416016	14.490000	-229.880005	-6.790000	259.00	-0.09	-0.09	6.50	4.75	6.00	5.50	8.00	6.25	5.75	5.00	3.75	2.25	1.50	1.25	5.50	1.00	0.50	1.75	-0.111816	0.062988	0.931152	-0.210000	10.920000	-1.190000	797.00	-0.07	-0.06
3.07	2.25	0.75	2.00	1.00	1.00	4.00	2.25	1.75	0.75	0.75	0.25	1.75	1.00	0.25	0.25	0.00	0.127930	0.258789	0.492676	18.549999	-219.729996	0.280000	252.00	-0.06	-0.08	5.75	3.75	5.50	4.75	7.75	6.00	5.75	5.00	4.00	2.25	1.50	1.50	5.75	1.50	0.50	1.75	-0.111328	0.077637	0.934570	-0.210000	12.530000	-1.540000	771.00	-0.06	-0.06
3.08	2.75	1.00	2.25	1.50	1.00	4.50	2.25	1.75	0.50	0.75	0.50	0.75	1.00	0.25	0.00	0.25	0.117676	0.215332	0.610352	11.620000	-215.600006	8.610000	262.00	-0.10	-0.08	5.00	3.00	4.50	4.00	7.50	5.75	5.75	5.25	4.50	2.75	1.50	1.50	6.00	1.50	0.25	1.75	-0.133301	0.064453	0.973145	-0.560000	13.510000	-1.890000	744.00	-0.04	-0.06
3.09	2.50	1.00	1.25	1.25	1.00	4.50	2.25	1.50	0.50	0.50	0.25	0.75	1.00	0.00	0.00	0.25	0.118652	0.189941	0.967285	-12.530000	-235.199997	30.380001	231.00	-0.10	-0.09	4.50	2.75	4.50	3.50	7.25	5.50	5.50	5.25	5.00	3.00	2.00	1.75	6.25	1.50	0.75	2.25	-0.149414	0.070801	0.967285	-0.770000	14.280000	-2.170000	749.00	-0.02	-0.06
3.10	2.25	1.50	1.75	1.50	1.00	4.25	2.25	1.75	0.50	0.50	0.00	1.00	1.25	0.25	0.00	0.25	0.087402	0.185547	1.080078	-21.980000	-259.000000	41.439999	249.00	-0.10	-0.10	4.00	1.75	3.75	2.50	6.75	5.25	5.50	5.00	5.25	3.25	2.00	1.75	6.50	1.75	0.75	2.25	-0.141602	0.084961	0.969727	-1.120000	15.540000	-2.590000	710.00	0.00	-0.06
3.11	2.50	1.25	2.00	1.50	1.00	4.25	2.25	1.50	0.25	0.75	0.25	0.75	1.00	0.25	0.00	0.25	0.015625	0.192871	1.135742	-23.799999	-286.790009	49.279999	245.00	-0.11	-0.08	3.75	1.75	3.25	2.25	6.25	4.75	5.50	5.00	5.75	3.25	2.25	2.00	6.75	2.00	1.00	2.50	-0.152832	0.075195	0.963867	-1.190000	16.660000	-3.080000	708.00	0.02	-0.05
3.12	2.75	0.50	2.00	1.25	1.00	4.50	2.25	1.50	0.50	0.75	0.00	0.75	1.25	0.00	0.00	0.25	-0.091309	0.196777	1.188965	-13.860000	-313.670013	54.180000	241.00	-0.10	-0.08	3.00	2.00	3.00	2.00	5.75	4.25	5.50	5.00	6.50	3.75	2.50	2.25	6.75	2.50	1.00	2.50	-0.146484	0.068848	0.969727	-0.910000	17.920000	-3.430000	711.00	0.04	-0.05
3.13	2.25	1.50	2.00	1.75	1.00	4.50	2.25	1.50	0.25	0.50	0.25	0.00	1.25	0.25	0.00	0.00	-0.212402	0.151855	1.185059	4.340000	-336.839996	55.510002	240.00	-0.13	-0.09	2.75	1.75	2.25	1.50	5.25	3.75	5.50	4.75	7.00	4.00	2.75	2.25	6.75	2.75	1.25	2.75	-0.162598	0.053711	0.965332	0.280000	20.020000	-3.850000	694.00	0.06	-0.04
3.14	2.75	1.00	2.00	1.50	1.00	4.50	2.25	1.50	0.00	0.75	0.00	0.75	0.50	0.00	0.25	0.00	-0.321289	0.104004	1.178711	22.469999	-354.690002	53.410000	236.00	-0.13	-0.08	2.50	1.00	2.25	1.50	4.75	2.75	5.25	4.50	7.25	4.50	3.00	2.50	7.00	3.75	1.50	3.00	-0.159668	0.064941	0.964355	1.680000	20.440001	-3.710000	689.00	0.08	-0.04
3.15	2.75	1.00	2.25	1.50	1.00	4.00	2.25	1.50	0.25	0.50	0.25	0.25	1.00	0.00	0.00	0.25	-0.443359	0.041992	1.209961	38.290001	-366.589996	49.560001	234.00	-0.13	-0.08	1.75	1.00	2.00	1.00	3.75	2.25	5.25	4.25	7.75	4.75	3.50	3.00	7.50	4.00	1.50	3.50	-0.165039	0.034668	0.955078	2.450000	21.210001	-3.710000	681.00	0.11	-0.04
3.16	2.25	1.75	1.75	1.50	1.00	4.50	2.25	1.50	0.50	0.25	0.00	0.25	0.25	0.50	0.00	0.25	-0.534180	-0.024902	1.252930	51.660000	-372.679993	45.360001	231.00	-0.13	-0.07	1.50	0.75	1.25	1.00	3.00	1.75	5.25	4.00	8.00	5.50	3.75	3.00	7.50	4.25	1.50	4.00	-0.175293	0.036621	0.933594	3.220000	22.049999	-4.270000	667.00	0.13	-0.04
3.17	2.75	1.00	2.00	1.75	1.00	4.25	2.25	1.50	0.25	0.25	0.00	0.50	1.00	0.00	0.00	0.00	-0.620605	-0.098633	1.274902	59.220001	-375.200012	40.459999	233.00	-0.13	-0.08	1.50	0.75	1.50	1.00	2.50	1.50	5.00	3.25	8.25	6.00	4.25	3.25	7.25	4.75	1.75	4.25	-0.172852	0.088867	0.974609	4.270000	23.520000	-4.690000	669.00	0.14	-0.03
3.18	2.75	1.50	1.50	1.50	1.00	4.50	2.25	1.75	0.00	0.00	0.00	0.50	0.75	0.25	0.00	0.00	-0.708984	-0.158203	1.333496	60.830002	-373.869995	35.000000	229.00	-0.14	-0.10	1.00	0.50	1.25	0.75	2.00	1.25	5.00	3.00	8.25	7.25	4.75	3.25	7.50	5.25	2.00	4.50	-0.176270	0.064453	0.969727	5.180000	24.990000	-5.390000	673.00	0.16	-0.02
3.19	2.50	1.00	1.75	1.75	0.75	4.50	2.25	1.25	0.25	0.50	0.50	0.50	1.25	0.00	0.00	0.00	-0.787109	-0.209473	1.400879	57.959999	-368.410004	28.840000	234.00	-0.12	-0.09	1.25	0.50	0.75	1.00	1.75	1.25	5.00	2.50	8.50	7.50	5.75	3.50	7.50	5.75	2.25	4.75	-0.154785	0.058105	0.986816	6.440000	26.250000	-5.740000	691.00	0.17	-0.02
3.20	2.75	1.50	2.00	1.50	0.75	4.50	2.25	1.25	0.25	0.50	0.00	0.50	1.00	0.00	0.25	0.25	-0.844727	-0.211426	1.502930	51.590000	-360.989990	22.540001	238.00	-0.13	-0.08	1.25	0.25	1.25	0.50	1.50	1.25	5.00	2.25	8.75	8.00	6.50	3.75	7.50	5.75	2.75	5.00	-0.166016	0.066895	0.994141	9.030000	30.660000	-6.300000	710.00	0.18	-0.02
3.21	2.50	1.25	1.75	1.50	1.00	4.50	2.25	1.25	0.00	0.00	0.00	0.50	1.00	0.00	0.00	0.00	-0.890137	-0.177734	1.676758	45.779999	-354.549988	17.639999	219.00	-0.14	-0.09	1.25	0.50	0.75	0.75	1.25	1.00	4.75	1.50	9.00	8.25	6.75	3.75	7.50	6.75	2.50	5.00	-0.183105	0.074707	0.979004	11.130000	37.310001	-6.510000	702.00	0.19	-0.01
3.22	2.75	1.25	1.50	1.25	0.75	4.75	2.25	1.50	0.25	0.50	0.25	1.00	1.25	0.00	0.00	0.25	-0.953125	-0.129883	1.896484	42.980000	-352.730011	15.050000	241.00	-0.11	-0.10	1.25	0.25	0.75	0.75	1.25	1.00	4.75	1.75	9.00	8.50	7.50	4.25	7.50	7.25	3.00	5.50	-0.187988	0.091797	0.967773	12.040000	43.049999	-7.350000	734.00	0.19	-0.02
3.23	2.75	1.00	1.75	1.25	0.75	4.25	2.25	1.50	0.25	0.25	0.00	0.25	0.75	0.00	0.00	0.25	-1.057617	-0.076660	2.081543	43.750000	-356.369995	15.890000	217.00	-0.13	-0.08	0.25	0.25	0.75	0.50	1.00	1.00	4.50	1.25	9.25	8.75	7.50	4.25	7.50	7.50	3.00	5.50	-0.194824	0.092285	0.977539	12.880000	47.740002	-8.330000	713.00	0.21	-0.01
3.24	2.75	1.25	1.75	1.25	1.00	4.25	2.25	1.50	0.00	0.50	0.25	0.50	1.00	0.00	0.00	0.00	-1.193848	-0.036133	2.227051	47.810001	-362.950012	21.840000	228.00	-0.13	-0.09	0.75	0.25	0.75	0.25	1.00	1.00	4.50	1.25	9.50	9.00	7.75	4.75	7.50	8.00	3.25	5.75	-0.215332	0.084473	0.975098	12.950000	52.779999	-9.170000	740.00	0.21	-0.01
3.25	2.50	1.25	2.00	1.50	1.00	4.50	2.25	1.50	0.50	0.50	0.25	0.25	1.00	0.00	0.00	0.00	-1.590332	-0.100098	2.422852	58.380001	-371.700012	44.660000	239.00	-0.12	-0.08	1.25	0.00	0.75	0.25	1.00	0.75	4.25	1.25	9.50	9.25	8.00	5.00	7.25	8.25	3.50	6.00	-0.223145	0.085938	0.995605	12.110000	61.110001	-9.940000	749.00	0.21	-0.01
3.26	2.75	1.00	1.75	1.25	1.00	4.50	2.25	1.75	0.25	0.25	0.00	0.50	0.75	0.00	0.25	0.00	-1.880371	-0.208984	2.503418	59.779999	-371.350006	54.740002	231.00	-0.12	-0.09	0.50	0.25	0.75	0.25	0.75	0.50	4.25	1.00	9.75	9.50	8.25	4.50	7.25	8.75	3.75	6.25	-0.235352	0.086914	1.002441	8.680000	78.750000	-11.200000	745.00	0.22	-0.00
3.27	2.50	1.25	1.75	0.75	1.00	4.25	2.25	1.50	0.25	0.00	0.00	0.75	0.50	0.00	0.00	0.25	-2.210449	-0.305664	2.515137	57.889999	-367.989990	59.779999	214.00	-0.13	-0.08	1.00	0.00	0.75	0.50	0.50	0.75	4.00	1.25	9.75	9.75	8.25	4.75	7.00	9.00	3.75	6.75	-0.253418	0.091309	0.970215	6.370000	82.879997	-12.180000	760.00	0.22	-0.01
3.28	2.50	1.25	2.25	1.75	1.00	4.25	2.25	1.25	0.50	0.25	0.50	0.25	1.00	0.25	0.00	0.25	-2.571289	-0.374512	2.421387	56.209999	-362.110016	59.570000	242.00	-0.12	-0.07	0.50	0.00	0.50	0.00	0.50	0.50	4.00	0.75	10.00	10.00	8.25	4.75	7.00	9.50	4.00	7.00	-0.263672	0.091309	0.966309	4.620000	87.779999	-13.160000	750.00	0.24	-0.00
3.29	2.25	1.25	2.00	1.25	1.00	4.50	2.25	1.50	0.25	0.00	0.25	0.50	0.75	0.00	0.00	0.00	-2.929199	-0.428711	2.186035	56.070000	-352.450012	55.369999	224.00	-0.13	-0.09	0.50	0.25	0.75	0.25	0.50	0.75	4.00	0.75	10.00	10.25	8.50	5.00	6.50	10.25	4.25	7.00	-0.282715	0.083984	0.963379	3.080000	90.860001	-13.930000	775.00	0.23	-0.00
3.30	2.50	0.75	2.00	1.50	0.75	4.50	2.25	1.50	0.50	0.25	0.50	0.25	1.25	0.00	0.00	0.25	-3.333984	-0.395020	1.772461	53.549999	-336.489990	50.470001	235.00	-0.11	-0.09	0.50	0.25	0.50	0.25	0.50	0.50	4.00	1.00	10.00	10.50	8.75	5.50	6.75	10.50	4.50	7.25	-0.296387	0.082031	0.953125	2.520000	92.330002	-14.630000	793.00	0.23	-0.01
3.31	2.50	1.00	2.00	1.25	1.00	4.25	2.25	1.50	0.25	0.00	0.25	0.75	0.75	0.25	0.00	0.00	-3.725098	-0.280762	1.152832	38.849998	-309.959991	46.900002	227.00	-0.12	-0.08	1.25	0.50	1.00	0.25	0.50	0.75	3.75	0.75	10.25	10.75	8.75	5.50	6.25	11.00	4.75	7.50	-0.296875	0.079590	0.944336	2.100000	93.449997	-14.350000	816.00	0.23	-0.00
3.32	2.25	1.25	1.75	1.25	0.75	4.00	2.25	0.75	0.50	0.25	0.00	0.25	0.50	0.00	0.00	0.00	-4.090332	-0.102051	0.274414	13.860000	-268.100006	43.049999	198.00	-0.14	-0.05	0.75	0.25	0.50	0.25	0.50	0.75	3.75	1.00	10.50	10.75	9.00	5.75	6.25	11.50	5.00	7.75	-0.335449	0.096680	0.968750	1.260000	96.040001	-14.140000	824.00	0.24	-0.00
3.33	2.25	1.25	1.75	1.25	1.00	4.25	2.25	1.25	0.00	0.50	0.25	0.75	0.50	0.25	0.00	0.00	-4.418945	0.025879	-0.693359	1.260000	-212.169998	39.060001	219.00	-0.12	-0.08	0.75	0.25	0.50	0.25	0.50	0.75	3.75	1.00	10.50	11.00	9.25	6.00	6.25	12.00	5.00	7.75	-0.348633	0.103516	1.020508	0.070000	100.590004	-14.140000	837.00	0.24	-0.00
3.34	2.50	2.00	2.00	1.00	0.75	4.00	2.00	1.50	0.00	0.25	0.00	1.00	0.50	0.25	0.00	0.25	-4.884277	-0.033203	-1.371582	29.820000	-147.770004	42.209999	222.00	-0.14	-0.09	1.00	0.00	0.50	0.25	0.50	0.75	3.50	0.75	10.50	11.25	9.25	6.50	6.25	12.50	5.25	8.00	-0.362793	0.079102	0.999512	-1.470000	107.029999	-14.560000	847.00	0.24	-0.00
3.35	2.00	1.00	2.00	1.50	0.75	3.00	2.25	0.50	0.50	0.25	0.25	0.75	0.00	0.00	0.00	0.25	-5.808105	-0.546387	-1.255371	71.610001	-58.939999	57.889999	188.00	-0.12	-0.03	0.75	0.25	0.50	0.50	0.25	0.75	3.50	1.00	10.75	11.50	9.25	6.25	6.00	13.00	5.00	8.00	-0.365723	0.079590	1.029785	-2.940000	115.220001	-15.960000	854.00	0.24	-0.00
3.36	1.25	0.50	0.75	0.00	0.75	3.25	2.25	1.00	0.00	0.25	0.00	0.75	0.00	0.00	0.00	0.25	-5.666016	-1.162598	-1.803711	57.330002	60.900002	72.870003	143.00	-0.08	-0.06	0.75	0.25	0.75	0.25	0.50	0.50	3.50	1.00	10.75	11.75	9.50	6.50	6.00	13.75	5.25	8.25	-0.381348	0.085938	1.014160	-3.290000	125.510002	-17.639999	874.00	0.24	-0.00
3.37	1.75	0.00	0.50	0.00	1.00	3.25	2.25	1.00	0.25	0.25	0.25	0.50	0.00	0.25	0.00	0.00	-1.699707	-0.978027	-0.069336	4.620000	190.820007	60.130001	148.00	-0.07	-0.03	0.50	0.00	0.50	0.00	0.25	0.75	3.50	0.75	10.75	11.75	9.50	6.75	5.50	13.75	5.75	8.25	-0.420410	0.061523	1.039062	-8.470000	134.190002	-17.780001	862.00	0.25	0.00
3.38	2.25	0.75	0.50	0.00	1.00	2.50	2.25	0.75	0.00	0.25	0.00	0.50	0.00	0.00	0.00	0.25	-0.305176	-0.230957	1.280273	-6.370000	248.850006	35.490002	140.00	-0.11	-0.02	0.75	0.00	0.25	0.00	0.25	1.00	3.25	0.75	10.75	12.00	9.50	6.75	5.50	14.50	5.75	8.25	-0.455566	0.074707	0.994629	-8.820000	154.419998	-17.080000	871.00	0.25	0.00
3.39	3.75	2.50	1.25	0.50	1.00	2.75	2.25	0.75	0.00	0.00	0.25	1.00	0.50	0.00	0.00	0.25	0.229004	-0.190430	3.360352	-0.140000	198.800003	23.240000	204.00	-0.16	-0.05	1.00	0.00	0.25	0.25	0.25	0.75	3.25	0.75	10.75	12.25	9.50	6.75	5.00	14.25	5.75	8.25	-0.471680	0.105957	1.017090	-9.170000	167.369995	-18.410000	869.00	0.25	0.00
3.40	5.00	4.75	1.75	1.50	1.25	3.25	2.50	0.75	0.00	0.50	0.50	0.75	0.75	0.50	0.50	0.75	-0.141602	-0.134766	0.043945	-16.590000	160.720001	-35.279999	293.00	-0.16	-0.05	0.75	0.00	0.00	0.25	0.25	0.50	3.25	0.75	10.75	12.25	9.50	6.50	5.00	14.50	5.75	8.25	-0.488770	0.093262	1.091309	-12.110000	182.279999	-21.559999	860.00	0.26	0.01
3.41	8.25	7.50	4.75	4.75	2.25	4.75	2.50	2.00	1.50	1.25	1.25	2.00	1.00	0.00	0.25	0.25	-0.604980	0.040527	1.142090	-5.950000	243.669998	-46.619999	529.00	-0.17	-0.06	0.50	0.00	0.25	0.00	0.25	0.75	3.25	0.75	10.50	12.50	9.50	6.50	4.25	14.50	6.00	8.00	-0.529297	0.131836	1.092773	-12.600000	202.229996	-26.809999	854.00	0.26	0.01
3.42	10.50	8.50	4.75	5.25	2.00	4.50	2.50	1.50	0.00	0.75	0.50	1.50	1.75	0.50	0.25	0.25	-0.502930	0.711914	2.222656	-30.799999	279.089996	-44.590000	526.00	-0.21	-0.07	0.25	0.00	0.25	0.00	0.25	0.50	3.25	0.75	10.25	12.50	9.50	6.25	4.00	14.50	5.75	7.75	-0.560059	0.139160	1.172363	-15.190001	227.570007	-33.950001	835.00	0.26	0.01
3.43	12.00	9.00	6.25	7.50	2.50	5.00	2.50	1.25	0.00	0.25	0.50	1.75	2.00	0.25	0.00	0.50	-0.750488	0.245605	2.850586	-30.170000	244.300003	-23.940001	597.00	-0.23	-0.07	0.75	0.00	0.00	0.00	0.25	0.75	3.25	0.75	9.75	12.50	9.50	6.00	3.50	14.25	5.75	7.50	-0.700195	0.195312	1.203613	-17.010000	256.059998	-40.320000	822.00	0.26	0.01
3.44	14.00	10.25	7.00	8.25	3.50	6.00	2.75	2.25	0.50	0.25	0.50	1.75	2.25	0.50	0.25	0.25	-0.698242	0.319336	2.173828	-55.930000	184.800003	-14.350000	708.00	-0.22	-0.07	0.75	0.00	0.25	0.00	0.25	0.75	3.25	0.75	9.25	12.25	9.25	5.75	3.25	13.75	5.75	7.00	-0.698730	0.142578	1.112793	-18.200001	284.899994	-47.529999	799.00	0.25	0.01
3.45	14.25	10.50	7.50	8.50	4.25	7.00	3.00	2.50	0.50	0.50	1.00	1.75	2.25	0.50	0.00	0.75	-0.330078	0.139648	1.669434	-72.940002	145.669998	-4.550000	761.00	-0.21	-0.07	0.75	0.00	0.50	0.00	0.25	1.00	3.25	0.75	8.75	12.00	9.25	5.50	2.75	13.00	5.25	6.50	-0.693359	0.191406	1.134277	-18.620001	318.779999	-56.349998	772.00	0.25	0.01
3.46	14.50	10.25	7.75	8.75	4.75	7.00	3.00	2.50	0.75	0.25	0.50	1.75	2.25	0.50	0.25	0.50	-0.262207	0.021484	1.389648	-84.000000	102.970001	1.540000	769.00	-0.21	-0.07	0.25	0.00	0.25	0.00	0.25	1.00	3.25	0.50	8.00	11.50	9.00	5.00	2.75	12.25	5.00	5.25	-0.797363	0.229004	1.147949	-17.920000	351.329987	-66.360001	717.00	0.25	0.02
3.47	13.50	9.75	7.75	8.25	4.75	7.25	3.25	2.75	0.75	0.50	1.00	1.50	2.50	0.75	0.25	0.75	-0.215820	-0.012695	1.157715	-72.099998	68.669998	1.470000	770.00	-0.20	-0.07	0.50	0.00	0.25	0.00	0.25	0.75	3.25	0.50	7.00	10.75	8.50	5.00	2.25	11.00	4.00	4.00	-1.058594	0.255371	1.312012	-12.670000	379.820007	-74.970001	653.00	0.25	0.02
3.48	15.50	9.50	7.75	8.75	5.25	7.75	3.25	2.75	0.00	0.50	0.50	1.75	2.50	0.50	0.25	0.50	-0.214844	0.010254	1.067871	-50.959999	46.830002	0.140000	791.00	-0.21	-0.07	0.75	0.00	0.50	0.00	0.50	0.75	3.25	0.50	6.00	10.00	8.00	4.50	2.50	9.75	3.00	2.75	-1.453613	0.374023	1.668457	-0.420000	397.390015	-79.519997	599.00	0.23	0.02
3.49	12.00	9.50	7.75	8.50	5.75	8.00	3.25	3.25	0.75	0.50	0.75	1.50	2.50	0.75	0.25	0.50	-0.203125	0.049316	1.002930	-34.650002	34.509998	-0.490000	778.00	-0.19	-0.08	0.00	0.00	0.75	0.00	0.00	0.75	3.25	0.50	5.25	9.25	7.50	3.75	2.00	8.25	1.75	1.75	-1.975098	0.509277	2.071289	28.210001	401.309998	-76.440002	515.00	0.23	0.02
3.50	14.50	10.50	8.25	8.50	6.50	8.00	3.50	3.25	1.25	0.25	0.50	1.75	2.75	0.75	0.00	0.50	-0.213867	0.056152	1.036621	-25.900000	24.150000	-0.070000	840.00	-0.20	-0.07	0.50	0.00	0.50	0.00	0.25	0.75	3.50	0.50	4.75	8.50	6.25	3.50	1.25	7.00	0.75	1.50	-1.645996	0.399902	2.065918	88.690002	384.369995	-87.919998	460.00	0.22	0.04
3.51	11.50	9.00	7.75	8.50	6.25	8.00	3.50	3.25	1.00	0.50	1.00	2.00	4.25	2.25	1.50	1.50	-0.213379	0.054688	1.005859	-20.020000	15.400000	0.000000	841.00	-0.15	-0.08	0.50	0.25	0.00	0.00	0.25	0.75	3.50	0.50	4.00	7.75	5.00	2.50	2.00	5.75	0.50	1.25	-1.448242	0.309570	2.496094	100.660004	370.369995	-99.120003	403.00	0.21	0.03
3.52	16.00	10.75	8.75	8.75	6.75	8.25	4.00	4.00	1.50	1.25	1.25	2.25	5.50	2.00	1.50	1.75	-0.221680	0.055664	0.975586	-16.450001	9.940000	-0.350000	986.00	-0.15	-0.07	0.50	0.00	0.50	0.00	0.00	0.50	3.50	0.50	3.50	7.00	3.75	2.00	1.25	3.50	0.50	1.00	-1.343750	0.226562	2.473145	85.750000	356.649994	-112.770004	335.00	0.20	0.05
3.53	16.50	11.00	9.25	10.00	8.00	9.50	4.25	6.00	2.75	2.00	2.00	2.50	5.25	2.25	1.25	1.50	-0.220215	0.041992	0.990234	-13.300000	5.880000	-0.840000	1117.00	-0.14	-0.08	0.50	0.00	0.50	0.00	0.00	0.50	3.75	0.50	2.75	5.50	3.00	1.50	1.50	1.50	0.50	1.00	-1.052734	0.441895	2.381348	57.330002	343.140015	-126.559998	281.00	0.17	0.04
3.54	16.25	10.75	9.00	9.50	8.25	9.50	4.25	5.75	1.75	1.25	0.75	1.50	3.50	1.00	0.25	1.00	-0.208984	0.041016	0.973633	-10.080000	3.570000	-1.050000	1010.00	-0.18	-0.07	0.50	0.00	0.25	0.00	0.25	0.50	3.75	0.50	2.25	4.75	2.25	1.50	1.00	0.75	0.75	1.00	-0.660156	0.371582	2.243652	35.279999	329.000000	-140.279999	248.00	0.17	0.04
3.55	10.75	8.25	7.50	8.25	7.00	9.00	4.25	5.00	1.00	0.75	0.75	1.50	4.00	0.75	0.50	1.00	-0.196777	0.035645	0.963867	-5.390000	4.060000	-0.770000	844.00	-0.16	-0.09	0.25	0.00	0.25	0.00	0.25	0.75	3.75	0.25	1.50	3.50	1.75	0.75	1.25	0.50	0.25	1.00	-0.105957	0.347656	2.296875	11.550000	314.510010	-155.470001	199.00	0.15	0.04
3.56	13.75	9.50	8.50	9.00	8.00	9.50	4.25	6.00	3.50	1.75	2.25	2.75	6.25	2.25	1.50	1.75	-0.240234	0.002441	0.973633	-3.640000	4.830000	-0.630000	1077.00	-0.12	-0.08	0.50	0.00	0.25	0.00	0.25	0.50	4.00	0.25	1.25	2.75	1.25	0.50	1.00	0.25	0.50	0.50	1.084473	0.517090	2.138184	-39.689999	286.790009	-167.020004	177.00	0.13	0.07
3.57	12.75	9.50	8.50	9.25	8.50	9.75	4.50	6.50	3.75	1.75	2.00	2.75	5.75	1.50	0.75	1.00	-0.190430	0.036621	0.959473	-2.940000	5.600000	-0.490000	1066.00	-0.12	-0.08	0.25	0.00	0.25	0.00	0.25	0.75	4.00	0.50	1.00	2.75	1.25	0.50	0.75	0.00	0.25	0.75	0.527344	0.412109	1.273926	-84.559998	257.320007	-154.630005	172.00	0.12	0.05
3.58	9.25	7.50	8.00	9.00	8.75	9.75	4.50	6.50	3.50	2.25	2.50	3.00	5.50	1.25	1.00	2.00	-0.198242	0.043945	0.961914	-2.520000	7.210000	-0.560000	1015.00	-0.10	-0.09	0.50	0.00	0.00	0.00	0.25	0.50	4.00	0.25	1.25	2.25	1.00	0.75	0.75	0.25	0.25	0.75	0.836426	0.807617	2.996582	-82.110001	135.589996	-122.220001	165.00	0.13	0.07
3.59	9.00	7.00	6.75	8.75	7.50	8.75	4.50	6.75	2.50	1.75	1.50	3.00	7.75	2.50	1.25	2.00	-0.205078	0.040527	0.983887	-2.030000	8.820000	-0.490000	970.00	-0.09	-0.10	0.00	0.00	0.25	0.00	0.25	0.50	3.75	0.25	1.00	2.00	1.00	0.50	0.00	0.25	0.00	0.75	0.723145	0.761230	1.766113	-12.880000	-93.590004	-63.070000	139.00	0.13	0.10
3.60	11.50	8.25	8.00	8.50	8.75	9.75	4.75	7.00	4.25	2.75	2.75	3.75	8.00	2.25	1.75	2.00	-0.204590	0.039062	0.962891	-1.680000	10.220000	-0.490000	1123.00	-0.08	-0.09	0.25	0.00	0.25	0.00	0.25	0.75	4.00	0.50	1.00	1.75	1.00	0.25	0.50	0.00	0.00	0.50	0.723145	0.761230	1.766113	-12.880000	-93.590004	-63.070000	148.00	0.10	0.07
3.61	10.25	7.75	7.50	8.25	8.75	9.50	4.75	7.50	4.75	2.75	2.75	3.50	8.25	2.50	1.50	2.25	-0.184570	0.037109	0.959961	-1.400000	11.130000	-0.700000	1108.00	-0.07	-0.09	0.00	0.00	0.00	0.00	0.25	0.75	4.00	0.50	1.00	1.50	0.75	0.25	0.25	0.00	0.00	0.50	0.567871	0.598633	1.316406	14.070000	-153.089996	-36.889999	134.00	0.11	0.09
3.62	9.50	7.50	7.50	8.00	8.50	9.50	4.75	7.25	4.75	3.00	3.00	4.00	8.50	2.75	1.50	2.50	-0.111816	0.076660	0.973145	-1.050000	12.110000	-1.190000	1105.00	-0.07	-0.09	0.50	0.00	0.25	0.00	0.25	0.75	4.00	0.50	0.75	1.50	0.75	0.00	0.75	0.25	0.00	0.00	0.348145	0.451172	0.906738	39.689999	-189.419998	8.470000	141.00	0.08	0.08
3.63	8.50	7.00	7.00	7.50	8.50	9.25	4.75	7.50	5.25	3.75	3.50	4.25	8.50	2.75	1.50	2.75	-0.434570	0.164062	0.952148	-1.260000	13.510000	-1.610000	1103.00	-0.05	-0.09	0.25	0.00	0.25	0.00	0.25	1.00	4.00	0.25	0.75	1.25	0.50	0.25	0.25	0.25	0.00	0.00	0.357910	0.319336	0.709961	38.080002	-191.100006	28.420000	129.00	0.08	0.10
3.64	7.75	6.50	6.75	7.25	8.25	9.25	4.75	7.50	5.25	3.50	3.00	4.25	8.75	2.50	1.75	2.75	-0.279785	0.090332	0.961914	-1.470000	14.070000	-1.820000	1075.00	-0.05	-0.10	0.25	0.00	0.00	0.00	0.25	0.75	3.75	0.50	0.50	1.25	0.25	0.00	0.50	0.25	0.00	0.00	0.295410	0.277344	0.747559	27.020000	-191.589996	45.779999	116.00	0.08	0.09
3.65	7.25	6.25	6.00	7.00	8.25	8.75	5.00	7.50	5.75	4.00	3.75	4.50	9.00	3.25	1.50	2.50	-0.290039	0.095703	0.967773	-1.890000	14.840000	-2.030000	1082.00	-0.03	-0.09	0.25	0.00	0.25	0.00	0.25	0.75	3.75	0.50	0.50	1.00	0.00	0.00	0.25	0.25	0.00	0.25	0.282715	0.210449	0.762695	11.410000	-196.000000	61.459999	113.00	0.07	0.10
3.66	6.75	6.00	6.00	6.50	8.00	8.75	4.75	7.50	5.75	4.00	4.00	4.75	9.00	3.00	1.75	3.00	-0.218262	0.047363	0.968262	-1.680000	15.610000	-2.100000	1070.00	-0.02	-0.10	0.00	0.00	0.00	0.00	0.50	0.75	3.75	0.25	0.50	1.00	0.00	0.00	0.25	0.25	0.00	0.25	0.233398	0.195801	0.870605	-5.530000	-205.309998	74.550003	106.00	0.09	0.12
3.67	6.50	5.75	6.00	5.75	7.75	8.50	4.75	7.50	6.00	4.00	4.00	5.25	9.25	3.00	1.75	3.25	-0.215820	0.039551	0.960938	-0.980000	16.590000	-1.820000	1063.00	-0.02	-0.10	0.25	0.00	0.25	0.00	0.25	0.75	4.00	0.25	0.25	1.00	0.25	0.00	0.00	0.00	0.00	0.25	0.214844	0.181152	0.935547	-19.180000	-220.779999	86.449997	107.00	0.06	0.13
3.68	6.25	5.50	5.50	5.50	7.50	8.25	4.75	7.50	6.50	4.50	5.50	5.75	9.50	3.50	1.75	3.50	-0.221680	0.062500	0.962402	-0.350000	17.710001	-1.680000	1087.00	-0.00	-0.10	0.00	0.00	0.00	0.00	0.25	0.75	4.00	0.50	0.25	1.00	0.25	0.00	0.25	0.00	0.00	0.25	0.160645	0.176270	0.992188	-26.950001	-240.309998	96.669998	108.00	0.08	0.10
3.69	6.00	5.50	5.50	5.50	6.50	8.00	4.50	7.00	6.25	4.50	5.00	5.75	9.25	2.50	1.75	3.25	-0.232910	0.041504	0.961914	1.260000	19.809999	-1.260000	1034.00	-0.01	-0.10	0.00	0.00	0.25	0.00	0.25	0.50	3.75	0.25	0.25	1.00	0.00	0.00	0.00	0.25	0.00	0.25	0.105469	0.166504	1.050293	-29.540001	-260.890015	104.370003	97.00	0.08	0.14
3.70	5.75	5.50	4.75	5.25	6.50	7.00	4.25	6.50	5.75	4.25	5.00	5.25	8.75	1.75	1.00	2.75	-0.224121	0.047363	0.968750	1.750000	20.790001	-1.190000	956.00	-0.01	-0.10	0.00	0.00	0.25	0.00	0.25	0.75	3.75	0.25	0.25	0.75	0.00	0.00	0.25	0.00	0.00	0.00	0.039551	0.144043	1.075684	-24.990000	-281.049988	109.340004	95.00	0.06	0.12
3.71	5.00	4.00	3.75	2.75	5.25	6.50	4.00	6.50	6.25	4.25	6.00	5.50	9.00	2.25	0.75	2.75	-0.217773	0.051758	0.959961	2.380000	21.350000	-1.120000	891.00	0.02	-0.10	0.00	0.00	0.25	0.00	0.25	0.75	3.75	0.50	0.25	0.75	0.00	0.00	0.00	0.00	0.00	0.25	-0.066895	0.118164	1.138672	-14.490000	-298.899994	111.440002	99.00	0.06	0.11
3.72	3.50	3.00	4.25	2.75	4.75	6.25	4.00	6.00	6.75	5.00	6.00	5.75	9.00	2.50	1.00	3.00	-0.250488	0.067383	0.957031	3.080000	22.049999	-1.260000	878.00	0.04	-0.09	0.50	0.00	0.50	0.00	0.25	0.50	3.75	0.50	0.25	1.00	0.00	0.00	0.50	0.25	0.00	0.00	-0.128906	0.036621	1.138672	-2.870000	-314.790009	110.739998	113.00	0.05	0.10
3.73	4.00	2.00	3.00	2.75	4.25	6.25	3.75	6.00	6.50	5.25	6.75	6.00	9.00	3.00	1.25	3.00	-0.232422	0.054688	0.958008	3.570000	22.469999	-1.400000	866.00	0.06	-0.10	0.00	0.00	0.25	0.00	0.25	0.50	3.75	0.50	0.25	0.75	0.00	0.00	0.25	0.25	0.00	0.25	-0.317871	-0.067383	1.189941	7.350000	-340.339996	101.360001	100.00	0.08	0.11
