# time	left pressure 1[N/cm²]	left pressure 2[N/cm²]	left pressure 3[N/cm²]	left pressure 4[N/cm²]	left pressure 5[N/cm²]	left pressure 6[N/cm²]	left pressure 7[N/cm²]	left pressure 8[N/cm²]	left pressure 9[N/cm²]	left pressure 10[N/cm²]	left pressure 11[N/cm²]	left pressure 12[N/cm²]	left pressure 13[N/cm²]	left pressure 14[N/cm²]	left pressure 15[N/cm²]	left pressure 16[N/cm²]	left acceleration X[g]	left acceleration Y[g]	left acceleration Z[g]	left angular X[dps]	left angular Y[dps]	left angular Z[dps]	left total force[N]	left center of pressure X[%]	left center of pressure Y[%]	right pressure 1[N/cm²]	right pressure 2[N/cm²]	right pressure 3[N/cm²]	right pressure 4[N/cm²]	right pressure 5[N/cm²]	right pressure 6[N/cm²]	right pressure 7[N/cm²]	right pressure 8[N/cm²]	right pressure 9[N/cm²]	right pressure 10[N/cm²]	right pressure 11[N/cm²]	right pressure 12[N/cm²]	right pressure 13[N/cm²]	right pressure 14[N/cm²]	right pressure 15[N/cm²]	right pressure 16[N/cm²]	right acceleration X[g]	right acceleration Y[g]	right acceleration Z[g]	right angular X[dps]	right angular Y[dps]	right angular Z[dps]	right total force[N]	right center of pressure X[%]	right center of pressure Y[%]
0.00																										1.25	1.00	1.50	2.25	1.25	0.75	1.25	0.75	0.25	0.75	0.75	0.50	0.50	0.75	0.25	0.00	-0.171875	0.166504	0.985352	15.540000	-3.080000	10.780000	167.00	-0.08	-0.05
0.01																										1.25	1.00	2.00	2.25	1.25	0.75	1.00	0.75	0.25	0.50	0.25	0.00	0.00	0.75	0.50	0.00	-0.162598	0.153809	0.987305	19.320000	-3.150000	13.440001	153.00	-0.12	-0.03
0.02	3.50	5.25	5.75	6.25	7.75	9.00	3.25	9.00	6.50	7.50	7.00	7.75	11.00	7.00	3.00	5.25	-0.154297	0.106445	0.969727	0.770000	1.540000	2.310000	1223.00	0.04	-0.11	1.25	1.00	1.75	2.25	1.25	0.50	1.00	0.50	0.00	0.25	0.25	0.00	0.00	0.50	0.00	0.00	-0.151367	0.264160	0.978027	24.710001	-5.670000	16.450001	129.00	-0.17	-0.03
0.03	3.75	5.25	6.00	6.50	7.75	9.00	3.50	9.25	6.50	7.50	7.00	8.00	11.25	7.00	3.00	5.25	-0.149414	0.105957	0.971191	0.840000	1.540000	2.310000	1245.00	0.04	-0.11	1.50	1.25	1.75	2.25	1.00	0.50	1.00	0.50	0.00	0.25	0.25	0.00	0.00	0.25	0.00	0.00	-0.174805	0.681641	0.949707	27.160000	-15.190001	45.150002	129.00	-0.19	-0.03
0.04	4.00	5.50	6.25	6.50	8.00	9.25	3.50	9.25	6.50	7.50	7.25	8.00	11.25	7.00	3.00	5.25	-0.151367	0.110352	0.966797	0.420000	2.100000	2.100000	1263.00	0.03	-0.11	1.50	1.00	1.75	2.25	1.00	0.50	1.00	0.25	0.00	0.00	0.00	0.00	0.00	0.00	0.25	0.00	-0.140137	0.615723	0.998047	25.200001	-23.309999	70.209999	117.00	-0.21	-0.02
0.05	3.25	5.50	6.50	6.75	8.00	9.50	3.50	9.25	6.50	7.75	7.25	8.00	11.25	6.75	3.00	5.25	-0.153809	0.109375	0.962402	-0.210000	2.450000	1.680000	1264.00	0.03	-0.11	1.50	1.25	1.50	2.25	0.75	0.50	0.75	0.25	0.00	0.00	0.00	0.00	0.00	0.25	0.00	0.00	-0.175781	0.523926	0.947266	22.120001	-29.750000	91.209999	109.00	-0.23	-0.04
0.06	3.50	5.25	6.25	6.50	8.00	9.50	3.50	9.50	6.25	7.50	7.50	8.25	11.25	7.25	3.00	5.25	-0.152832	0.108887	0.962402	-0.770000	2.450000	1.330000	1266.00	0.04	-0.12	1.50	1.25	1.50	2.00	0.50	0.25	0.75	0.25	0.00	0.25	0.00	0.00	0.00	0.00	0.00	0.00	-0.179688	0.264160	0.929199	8.260000	-30.590000	103.180000	100.00	-0.23	-0.03
0.07	3.75	5.50	6.25	6.75	8.00	9.75	3.50	9.50	6.25	7.50	7.50	8.00	11.50	7.00	2.75	5.25	-0.153809	0.106934	0.965820	-1.260000	2.590000	1.050000	1272.00	0.03	-0.12	1.50	1.25	1.50	2.25	0.50	0.00	0.75	0.25	0.00	0.00	0.00	0.00	0.00	0.00	0.00	0.00	-0.186035	0.124023	0.947266	3.990000	-28.910000	105.699997	97.00	-0.25	-0.03
0.08	4.00	5.50	6.75	7.00	8.25	9.75	3.50	9.50	6.50	7.50	7.25	8.00	11.50	7.00	2.75	5.25	-0.150879	0.106934	0.960449	-1.680000	2.940000	0.770000	1287.00	0.03	-0.11	0.75	1.25	1.25	2.00	0.50	0.25	0.75	0.00	0.00	0.00	0.00	0.00	0.00	0.00	0.00	0.00	-0.167480	0.013672	0.878906	4.480000	-25.690001	101.989998	82.00	-0.24	-0.03
0.09	3.75	5.50	6.50	7.25	8.25	10.00	3.50	9.50	6.25	7.50	7.50	8.25	11.50	6.75	2.75	5.25	-0.147949	0.101562	0.962402	-1.680000	3.360000	0.770000	1287.00	0.03	-0.12	1.50	1.25	1.00	2.00	0.25	0.00	0.50	0.25	0.00	0.00	0.25	0.00	0.00	0.00	0.00	0.00	-0.144043	-0.024414	0.889160	6.650000	-19.389999	95.059998	84.00	-0.25	-0.05
0.10	3.75	5.50	7.00	7.25	8.25	10.00	3.50	9.50	6.25	7.50	7.50	8.00	11.75	7.00	2.75	5.25	-0.151367	0.097656	0.953125	-1.330000	3.640000	0.910000	1295.00	0.03	-0.12	1.50	1.00	1.25	2.25	0.25	0.25	0.75	0.25	0.00	0.00	0.00	0.00	0.00	0.00	0.00	0.00	-0.132324	-0.051270	0.907227	7.630000	-12.810000	86.099998	92.00	-0.25	-0.04
0.11	4.50	5.25	6.75	7.00	8.25	10.00	3.50	9.75	6.25	7.50	7.25	8.25	11.75	6.75	2.75	5.25	-0.154297	0.099609	0.957520	-0.560000	3.430000	1.400000	1297.00	0.03	-0.12	1.50	1.25	1.25	2.25	0.50	0.25	0.75	0.00	0.00	0.00	0.00	0.00	0.00	0.00	0.00	0.00	-0.100586	-0.120605	0.894043	7.700000	-5.740000	74.340004	93.00	-0.26	-0.03
0.12	4.25	5.50	6.75	7.25	8.25	10.00	3.50	9.75	6.25	7.50	7.25	8.25	11.75	6.75	2.75	5.25	-0.148438	0.103516	0.966309	-0.000000	3.500000	1.890000	1300.00	0.03	-0.12	1.50	1.25	1.00	2.00	0.25	0.25	0.75	0.00	0.00	0.00	0.00	0.00	0.00	0.00	0.00	0.00	-0.033691	-0.145020	0.867676	4.340000	1.540000	59.010002	84.00	-0.26	-0.03
0.13	4.00	5.50	6.75	7.25	8.25	10.25	3.25	9.75	6.00	7.50	7.25	8.25	11.75	6.50	2.50	5.00	-0.151367	0.099609	0.959961	0.490000	3.430000	2.100000	1285.00	0.02	-0.12	1.50	1.25	1.25	2.25	0.25	0.00	0.75	0.25	0.00	0.00	0.00	0.00	0.00	0.00	0.00	0.00	0.014648	-0.187012	0.832031	0.980000	10.430000	41.299999	91.00	-0.26	-0.04
0.14	3.75	5.50	7.00	7.50	8.25	10.25	3.50	9.75	6.25	7.25	7.25	8.25	11.75	6.50	2.50	5.00	-0.154297	0.108887	0.958496	0.770000	3.290000	2.380000	1294.00	0.02	-0.12	1.50	1.25	1.50	2.25	0.25	0.00	0.75	0.00	0.00	0.00	0.00	0.00	0.00	0.00	0.00	0.00	0.032715	-0.168457	0.820312	-1.400000	21.000000	22.400000	90.00	-0.27	-0.02
0.15	4.00	5.50	7.00	7.25	8.25	10.50	3.25	10.00	6.00	7.50	7.25	8.25	12.00	6.25	2.50	5.25	-0.153320	0.109863	0.958496	0.840000	3.150000	2.380000	1297.00	0.02	-0.12	1.25	1.25	1.50	2.50	0.25	0.25	0.75	0.00	0.00	0.00	0.00	0.00	0.00	0.00	0.00	0.00	-0.120605	0.232910	1.082031	-10.010000	38.920002	-10.570000	93.00	-0.26	-0.04
0.16	4.50	5.50	7.00	7.50	8.50	10.50	3.25	10.00	6.00	7.25	7.25	8.25	12.00	6.50	2.50	5.25	-0.149414	0.104980	0.962402	0.840000	2.870000	2.240000	1308.00	0.02	-0.12	1.75	1.25	1.50	2.50	0.75	0.50	0.75	0.25	0.00	0.00	0.00	0.00	0.00	0.00	0.00	0.00	-0.126465	0.317871	0.901855	-23.100000	45.360001	-14.280000	112.00	-0.25	-0.04
0.17	4.25	5.50	7.00	7.50	8.50	10.75	3.25	10.00	6.00	7.00	7.25	8.25	12.00	6.25	2.50	5.25	-0.145996	0.110840	0.952148	0.840000	2.310000	2.170000	1303.00	0.02	-0.12	1.75	1.50	1.75	2.50	0.75	0.50	0.75	0.50	0.00	0.00	0.00	0.00	0.00	0.00	0.00	0.00	-0.125000	0.325684	0.902344	-45.430000	54.459999	-9.380000	122.00	-0.24	-0.05
0.18	4.00	5.50	7.00	7.50	8.50	10.75	3.25	10.00	6.00	7.50	7.00	8.25	12.25	6.25	2.50	5.25	-0.144043	0.105469	0.959961	0.420000	2.660000	2.100000	1306.00	0.02	-0.12	1.75	1.50	1.75	2.75	1.00	0.75	0.75	0.50	0.00	0.00	0.25	0.00	0.00	0.00	0.00	0.00	-0.130859	0.145996	0.957520	-70.279999	60.270000	-7.210000	134.00	-0.23	-0.06
0.19	3.75	5.50	7.00	7.50	8.50	10.75	3.25	10.25	5.75	7.00	7.50	8.25	12.00	6.00	2.50	5.00	-0.149414	0.112305	0.966309	0.210000	3.150000	2.170000	1297.00	0.02	-0.13	1.50	1.25	1.75	2.50	1.25	0.75	1.00	0.75	0.00	0.50	0.25	0.00	0.25	0.25	0.00	0.00	-0.222656	0.147949	1.271973	-88.970001	48.230000	-6.370000	147.00	-0.17	-0.06
0.20	3.75	5.50	7.00	7.50	8.25	10.75	3.25	10.00	5.75	7.25	7.50	8.25	12.00	6.00	2.50	5.25	-0.146973	0.111328	0.962891	0.070000	3.780000	1.960000	1294.00	0.02	-0.13	1.75	0.75	1.50	2.50	1.25	0.75	1.00	1.00	0.25	0.25	0.25	0.00	0.75	0.50	0.00	0.00	-0.230469	0.155273	1.120117	-74.269997	30.450001	-5.320000	154.00	-0.14	-0.06
0.21	4.25	5.75	7.25	7.50	8.50	10.75	3.25	10.25	5.75	7.25	7.50	8.50	12.00	6.00	2.50	5.25	-0.145996	0.111328	0.962402	-0.210000	4.620000	1.750000	1316.00	0.02	-0.13	1.25	1.00	1.75	2.50	1.50	0.75	1.25	1.00	0.25	0.50	0.50	0.00	0.75	0.75	0.25	0.00	-0.185547	0.098633	1.019531	-56.630001	19.460001	-3.710000	172.00	-0.10	-0.05
0.22	4.00	5.50	7.00	7.50	8.50	10.75	3.00	10.25	5.75	7.25	7.25	8.25	12.00	6.00	2.25	5.25	-0.152344	0.112793	0.965332	-0.210000	5.320000	1.680000	1295.00	0.02	-0.13	1.75	1.00	1.75	2.25	1.50	0.75	1.25	1.00	0.75	0.75	0.50	0.00	1.00	1.00	0.25	0.00	-0.197266	0.126953	1.009766	-41.299999	11.060000	-2.380000	189.00	-0.08	-0.04
0.23	3.50	5.50	7.00	7.50	8.25	10.75	3.00	10.00	5.50	7.00	7.50	8.50	12.00	5.75	2.50	5.25	-0.147461	0.114258	0.965820	-0.280000	5.880000	1.330000	1282.00	0.02	-0.13	1.25	1.00	1.50	2.00	1.50	0.75	1.50	0.75	0.75	1.25	0.50	0.00	1.75	1.00	0.25	0.00	-0.182129	0.121582	0.991211	-28.490000	6.720000	-1.470000	190.00	-0.04	-0.04
0.24	3.75	5.50	7.00	7.50	8.25	10.50	3.00	10.00	5.50	7.00	7.50	8.50	12.00	5.75	2.50	5.25	-0.145996	0.117188	0.957031	-0.280000	6.160000	1.190000	1282.00	0.02	-0.13	0.25	0.75	1.50	2.00	1.50	1.00	1.25	1.00	1.00	1.00	0.25	0.00	1.75	1.25	0.25	0.00	-0.169922	0.114746	0.980957	-21.490000	5.670000	-2.030000	179.00	-0.02	-0.05
0.25	3.75	5.50	7.00	7.25	8.25	10.75	3.00	10.00	5.50	6.75	7.50	8.50	12.00	5.50	2.25	5.25	-0.150879	0.111816	0.958008	-0.210000	6.230000	1.190000	1273.00	0.02	-0.13	1.25	0.75	1.50	2.00	1.50	1.00	1.50	1.00	0.75	1.00	0.50	0.25	1.75	1.75	0.25	0.00	-0.175293	0.115234	0.979980	-15.750000	4.690000	-2.590000	201.00	-0.02	-0.04
0.26	3.50	5.50	7.00	7.25	8.00	10.50	3.00	10.00	5.50	6.75	7.50	8.50	12.00	5.50	2.50	5.25	-0.145020	0.112793	0.959473	-0.070000	6.300000	1.330000	1268.00	0.02	-0.13	1.00	0.75	1.50	1.75	1.50	0.75	1.50	1.00	1.00	1.25	0.75	0.25	2.00	1.75	0.50	0.00	-0.181152	0.117676	0.979492	-11.760000	3.780000	-2.520000	207.00	0.01	-0.04
0.27	3.50	5.50	6.75	7.25	8.00	10.75	3.00	10.00	5.50	6.50	7.25	8.50	12.00	5.75	2.75	5.25	-0.156250	0.109375	0.953613	0.140000	6.440000	1.190000	1267.00	0.02	-0.13	1.25	0.50	1.50	1.75	1.50	0.50	1.50	1.00	1.00	1.25	0.75	0.25	1.00	1.25	0.50	0.00	-0.173340	0.103027	0.967773	-7.350000	2.380000	-2.030000	190.00	-0.01	-0.02
0.28	3.25	5.25	6.75	7.00	8.00	10.50	2.75	10.00	5.50	6.75	7.50	8.50	12.25	5.50	2.50	5.25	-0.145996	0.107910	0.954590	0.420000	6.370000	1.260000	1254.00	0.02	-0.13	1.25	0.50	1.50	2.00	1.50	0.75	1.50	1.00	1.25	1.25	0.75	0.50	1.75	1.75	0.50	0.25	-0.167480	0.108398	0.970703	-5.810000	1.610000	-1.610000	216.00	0.01	-0.03
0.29	3.25	5.25	6.75	7.25	7.75	10.50	2.75	10.00	5.50	6.50	7.50	8.50	12.25	5.25	2.50	5.25	-0.153320	0.111816	0.959961	0.840000	6.370000	1.330000	1249.00	0.02	-0.14	0.50	0.25	1.25	1.75	1.50	0.75	1.50	1.00	1.50	1.00	0.50	0.50	1.75	2.00	1.00	0.25	-0.165527	0.106934	0.966797	-4.410000	1.260000	-1.540000	205.00	0.05	-0.03
0.30	3.50	5.50	6.50	7.25	7.75	10.50	2.75	10.00	5.25	6.25	7.50	8.50	12.25	5.25	2.50	5.25	-0.150879	0.106445	0.960449	0.980000	6.440000	1.470000	1245.00	0.02	-0.14	0.50	0.50	1.50	1.75	1.75	1.00	1.50	1.00	1.50	1.25	0.75	0.50	1.50	2.00	0.75	0.25	-0.164551	0.105957	0.967285	-3.290000	1.050000	-1.330000	217.00	0.04	-0.03
0.31	3.25	5.25	6.75	7.00	7.75	10.50	2.75	10.00	5.25	6.25	7.50	8.75	12.25	5.25	2.25	5.25	-0.152344	0.117676	0.959473	0.910000	6.510000	1.330000	1240.00	0.02	-0.14	1.00	0.50	1.25	1.50	1.50	0.75	1.50	1.00	1.25	1.50	0.50	0.50	2.00	2.25	0.75	0.25	-0.164062	0.102539	0.962402	-2.310000	0.910000	-0.980000	214.00	0.04	-0.03
0.32	3.25	5.50	6.50	7.00	7.50	10.50	2.75	10.00	5.25	6.25	7.50	8.75	12.25	5.25	2.50	5.25	-0.152832	0.115234	0.957031	0.140000	6.370000	1.190000	1239.00	0.02	-0.14	1.00	0.75	1.50	1.50	1.50	0.75	1.50	1.25	1.50	1.25	0.75	0.50	2.25	2.25	0.75	0.25	-0.165527	0.100098	0.953613	-1.400000	0.560000	-0.770000	230.00	0.04	-0.04
0.33	3.50	5.25	6.50	7.00	7.50	10.25	2.75	10.00	5.25	6.00	7.50	8.75	12.25	5.00	2.50	5.25	-0.154785	0.115723	0.958008	-0.770000	6.580000	0.980000	1231.00	0.02	-0.14	0.50	0.25	1.25	1.75	1.75	1.00	1.50	1.25	1.50	1.25	0.75	0.75	2.25	2.25	1.00	0.25	-0.158691	0.104980	0.966797	-0.770000	0.070000	-0.490000	231.00	0.06	-0.05
0.34	3.25	5.25	6.50	6.75	7.50	10.50	2.75	10.00	5.25	6.25	7.50	8.75	12.25	5.00	2.25	5.50	-0.152344	0.119141	0.955566	-1.610000	6.790000	0.980000	1230.00	0.02	-0.14	0.75	0.50	1.50	1.75	1.75	0.75	1.50	1.25	1.50	1.50	0.75	0.50	2.75	2.50	1.00	0.25	-0.154297	0.105469	0.962891	-0.140000	-0.140000	-0.350000	243.00	0.05	-0.05
0.35	3.00	5.25	6.50	6.75	7.25	10.25	2.75	10.00	5.25	6.25	7.50	8.50	12.25	5.00	2.25	5.25	-0.152832	0.123047	0.953125	-2.520000	6.930000	0.840000	1217.00	0.02	-0.14	0.50	0.50	1.25	1.75	1.50	1.00	1.50	1.50	1.50	1.25	0.75	0.50	2.50	2.25	1.25	0.25	-0.158203	0.110840	0.960938	0.420000	-0.280000	-0.280000	237.00	0.06	-0.06
0.36	3.25	5.25	6.50	6.75	7.25	10.50	2.75	10.00	5.25	6.50	7.50	8.75	12.00	5.00	2.50	5.25	-0.153320	0.116211	0.958984	-3.290000	7.070000	0.630000	1229.00	0.02	-0.14	0.00	0.50	1.50	1.75	1.50	1.00	1.50	1.50	1.50	1.50	1.00	0.75	3.25	2.25	1.00	0.25	-0.157715	0.109863	0.965820	0.700000	-0.490000	-0.140000	247.00	0.07	-0.08
0.37	3.25	5.00	6.25	6.50	7.00	10.25	2.75	9.75	5.25	6.00	7.50	8.75	12.25	4.75	2.25	5.25	-0.148438	0.121094	0.953125	-3.780000	7.000000	0.700000	1202.00	0.02	-0.14	0.00	0.50	1.25	2.00	1.75	1.00	1.50	1.50	1.50	1.50	1.00	1.00	3.25	2.50	1.00	0.50	-0.160156	0.112793	0.958984	1.190000	-0.560000	-0.000000	257.00	0.08	-0.08
0.38	3.75	5.25	6.75	6.50	7.00	10.25	2.50	9.75	5.25	6.25	7.50	8.75	12.25	4.75	2.50	5.50	-0.153320	0.117676	0.956055	-4.060000	6.860000	0.700000	1219.00	0.02	-0.14	0.50	0.50	1.50	1.75	1.75	1.00	1.50	1.75	1.75	1.50	1.25	0.75	3.00	2.50	1.00	0.25	-0.156250	0.117188	0.959961	1.120000	-0.280000	-0.140000	266.00	0.06	-0.06
0.39	3.25	5.25	6.50	6.50	7.00	10.25	2.75	9.75	5.25	6.25	7.50	8.75	12.25	4.75	2.25	5.50	-0.154297	0.115723	0.953613	-4.200000	6.650000	0.700000	1212.00	0.02	-0.14	0.50	0.50	1.25	2.00	1.75	1.25	1.50	1.75	1.50	1.75	1.25	1.00	3.50	2.50	1.00	0.75	-0.159180	0.116699	0.963379	0.070000	0.350000	-0.350000	279.00	0.07	-0.09
0.40	3.50	5.25	6.25	6.50	7.00	10.00	2.50	9.75	5.25	6.25	7.50	8.75	12.25	4.75	2.50	5.50	-0.154785	0.114258	0.959961	-4.200000	6.580000	0.910000	1207.00	0.02	-0.14	0.25	0.50	1.50	2.00	1.75	1.25	1.50	1.75	1.75	1.50	1.00	1.00	3.50	2.50	1.50	0.75	-0.149902	0.117188	0.958984	-0.770000	0.280000	-0.630000	283.00	0.07	-0.08
0.41	3.50	5.25	6.25	6.25	6.75	10.00	2.75	9.75	5.25	6.25	7.50	8.75	12.25	4.50	2.25	5.50	-0.153320	0.108887	0.957520	-4.200000	6.510000	0.980000	1200.00	0.02	-0.14	0.50	0.25	1.25	2.00	1.75	1.25	1.50	1.75	1.75	1.75	1.25	1.25	3.75	2.75	1.25	0.50	-0.156738	0.115723	0.956543	-1.260000	0.350000	-0.700000	289.00	0.08	-0.08
0.42	3.25	5.25	6.25	6.25	6.75	9.75	2.75	9.50	5.25	6.00	7.50	8.75	12.00	4.75	2.25	5.50	-0.149902	0.115234	0.953125	-3.990000	6.580000	0.980000	1187.00	0.03	-0.14	0.25	0.50	1.50	2.00	1.75	1.25	1.50	1.75	1.75	1.50	1.25	1.00	3.75	2.75	1.25	0.75	-0.159180	0.110840	0.962402	-1.680000	0.140000	-0.700000	287.00	0.08	-0.08
0.43	3.25	5.25	6.25	6.25	6.50	9.75	2.75	9.50	5.25	6.25	7.50	8.75	12.00	4.50	2.25	5.50	-0.157715	0.110352	0.958496	-3.920000	6.650000	0.980000	1185.00	0.03	-0.14	0.00	0.50	1.25	2.00	1.75	1.25	1.50	2.00	1.75	1.75	1.25	1.25	4.25	2.75	1.50	1.00	-0.155273	0.114746	0.965820	-1.890000	0.210000	-0.700000	300.00	0.09	-0.10
0.44	3.25	5.25	6.25	6.25	6.50	9.75	2.50	9.50	5.25	6.25	7.50	8.75	12.00	4.50	2.25	5.50	-0.161621	0.116211	0.958008	-3.990000	6.580000	0.980000	1181.00	0.03	-0.14	0.50	0.50	0.75	1.50	1.75	1.50	1.50	2.00	1.75	1.75	1.50	1.25	4.00	3.00	1.50	0.75	-0.155762	0.118652	0.962402	-2.100000	0.350000	-0.630000	298.00	0.10	-0.09
0.45	3.00	5.25	6.25	6.00	6.50	9.75	2.75	9.50	5.25	6.50	7.50	8.75	11.75	4.50	2.25	5.50	-0.151855	0.115723	0.957520	-3.920000	6.370000	0.910000	1179.00	0.03	-0.14	0.50	0.50	1.25	2.00	1.75	1.25	1.50	2.00	1.75	1.75	1.50	1.25	4.25	3.00	1.50	0.75	-0.155273	0.117676	0.957520	-2.240000	0.700000	-0.700000	310.00	0.09	-0.09
0.46	3.25	5.25	6.25	6.00	6.50	9.75	2.75	9.50	5.00	6.25	7.50	8.75	11.75	4.50	2.25	5.50	-0.155762	0.113770	0.961914	-3.710000	6.020000	1.120000	1176.00	0.03	-0.14	0.25	0.25	1.75	2.00	2.00	1.50	1.50	2.25	2.00	1.75	1.25	1.50	4.25	3.00	1.75	1.00	-0.153320	0.114746	0.959961	-2.450000	1.120000	-0.700000	329.00	0.09	-0.09
0.47	3.00	5.25	6.25	6.00	6.50	9.50	2.50	9.50	5.25	6.50	7.50	8.75	11.75	4.75	2.25	5.50	-0.157227	0.110840	0.962891	-3.430000	5.740000	1.190000	1175.00	0.03	-0.14	0.50	0.00	1.25	2.00	2.00	1.50	1.50	2.25	1.75	1.75	1.25	1.50	4.50	3.00	1.50	1.00	-0.158691	0.118164	0.962891	-2.380000	1.330000	-0.420000	319.00	0.09	-0.10
0.48	3.25	5.25	6.25	5.75	6.50	9.50	2.75	9.50	5.00	6.50	7.50	8.50	11.75	4.50	2.25	5.50	-0.152344	0.113281	0.954590	-3.220000	5.460000	1.330000	1170.00	0.03	-0.14	0.25	0.25	1.50	2.00	2.00	1.75	1.50	2.00	2.00	2.00	1.50	1.50	4.00	3.25	1.75	1.00	-0.160156	0.114746	0.968750	-2.800000	1.470000	-0.350000	330.00	0.09	-0.09
0.49	2.75	5.25	6.00	6.00	6.50	9.50	2.50	9.25	5.25	6.25	7.50	8.75	11.75	4.75	2.00	5.50	-0.155762	0.113770	0.957520	-3.080000	5.530000	1.470000	1159.00	0.03	-0.14	0.75	0.25	1.75	1.75	1.75	1.50	1.50	2.25	2.00	1.75	1.50	1.50	4.75	3.00	1.75	1.00	-0.155762	0.111816	0.961426	-3.010000	1.330000	-0.210000	336.00	0.09	-0.09
0.50	3.00	5.25	6.00	6.00	6.50	9.50	2.50	9.25	5.25	6.25	7.50	8.50	11.50	4.50	2.00	5.50	-0.161621	0.109863	0.959961	-2.940000	5.110000	1.610000	1154.00	0.03	-0.14	0.25	0.50	1.50	1.75	2.00	1.50	1.50	2.25	1.75	2.00	1.50	1.50	4.75	3.00	1.75	1.00	-0.162109	0.118652	0.965332	-3.290000	1.050000	0.070000	332.00	0.09	-0.10
0.51	3.00	5.00	6.00	6.00	6.25	9.50	2.50	9.25	5.25	6.00	7.50	8.50	11.75	4.50	2.25	5.50	-0.165527	0.116699	0.955566	-3.080000	4.550000	1.820000	1151.00	0.03	-0.14	0.50	0.50	1.50	2.00	2.00	1.50	1.50	2.25	2.25	1.50	1.50	1.50	4.75	3.25	1.75	1.00	-0.159668	0.117676	0.959473	-3.780000	-0.070000	0.350000	342.00	0.09	-0.09
0.52	2.75	5.00	6.25	6.00	6.25	9.50	2.75	9.25	5.00	6.25	7.50	8.50	11.75	4.25	2.00	5.50	-0.155762	0.111816	0.953125	-3.220000	3.640000	1.960000	1149.00	0.03	-0.14	0.50	0.50	1.50	2.00	2.00	1.50	1.50	2.25	2.00	2.00	1.50	1.50	4.75	3.00	1.75	0.75	-0.155762	0.115723	0.960449	-3.850000	-0.490000	0.560000	340.00	0.08	-0.10
0.53	3.25	5.00	6.25	6.00	6.50	9.50	2.75	9.25	5.00	6.00	7.50	8.50	11.75	4.25	2.00	5.50	-0.159180	0.109863	0.955078	-3.570000	2.940000	1.890000	1155.00	0.02	-0.14	0.25	0.25	1.75	2.25	2.00	1.75	1.50	2.25	1.75	2.00	1.50	1.25	4.25	3.00	1.75	0.75	-0.162598	0.111328	0.967285	-3.780000	-1.190000	0.490000	332.00	0.08	-0.10
0.54	3.00	5.25	6.25	6.25	6.75	9.50	2.75	9.25	5.00	6.25	7.50	8.50	11.50	4.00	1.75	5.25	-0.157227	0.119629	0.958496	-3.570000	2.240000	1.890000	1155.00	0.02	-0.14	0.75	0.75	1.50	2.25	2.00	1.75	1.50	2.25	1.75	2.00	1.25	1.25	4.00	3.25	2.00	0.75	-0.163574	0.111816	0.966797	-3.080000	-1.960000	0.420000	340.00	0.07	-0.09
0.55	3.25	5.25	6.50	6.25	6.75	9.75	2.75	9.25	5.00	5.75	7.00	8.50	11.50	3.75	2.00	5.25	-0.160645	0.106934	0.967285	-3.430000	1.120000	1.890000	1153.00	0.02	-0.14	0.50	0.50	2.00	2.25	2.00	1.75	1.50	2.25	1.75	1.75	1.25	1.25	4.25	3.00	1.50	0.75	-0.165039	0.110352	0.969727	-1.540000	-3.500000	0.700000	332.00	0.06	-0.09
0.56	3.25	5.25	6.00	6.25	7.00	9.75	2.75	9.25	5.00	5.50	7.00	8.25	11.25	3.25	1.75	5.00	-0.170898	0.107910	0.966797	-2.310000	-0.700000	2.100000	1133.00	0.01	-0.14	1.00	0.75	1.75	2.50	2.25	2.00	1.50	2.25	1.50	1.50	1.00	1.00	3.75	3.00	1.25	0.75	-0.170898	0.112793	0.963379	-0.070000	-5.250000	1.120000	327.00	0.04	-0.09
0.57	3.50	5.25	6.50	6.50	7.25	10.25	2.50	9.25	4.75	5.25	6.50	8.25	11.25	3.00	1.50	4.50	-0.175293	0.113770	0.965332	-1.190000	-3.080000	2.240000	1129.00	0.00	-0.14	1.00	0.75	2.25	2.75	2.50	2.00	1.50	2.50	1.25	1.50	1.00	1.00	3.75	2.50	1.00	0.25	-0.163086	0.114258	0.963379	0.910000	-6.720000	1.540000	329.00	0.01	-0.10
0.58	3.75	5.50	7.00	6.75	7.50	10.25	2.50	9.25	4.00	4.75	6.25	8.00	11.00	2.75	1.25	4.25	-0.163086	0.123047	0.969238	-0.840000	-5.530000	2.520000	1115.00	-0.01	-0.15	1.00	1.00	2.50	3.00	2.50	2.50	1.50	2.50	1.25	1.00	0.75	1.00	4.00	2.25	1.25	0.25	-0.163086	0.113281	0.960938	1.330000	-7.700000	2.100000	338.00	-0.00	-0.11
0.59	4.00	5.75	7.00	7.50	7.75	10.50	2.75	9.25	4.00	4.50	5.50	7.75	10.75	2.25	1.00	3.50	-0.169922	0.112793	0.973633	-1.050000	-7.630000	2.800000	1111.00	-0.02	-0.14	1.75	1.25	2.75	3.25	2.75	2.50	1.50	2.50	1.00	1.00	0.50	0.75	3.25	2.25	1.00	0.25	-0.154785	0.112793	0.982422	0.980000	-7.560000	2.310000	338.00	-0.04	-0.10
0.60	4.50	5.75	7.25	7.75	8.00	11.00	2.50	9.25	3.25	3.50	4.75	7.50	10.25	1.75	0.75	2.75	-0.174316	0.112793	0.988281	-1.540000	-9.520000	3.360000	1077.00	-0.04	-0.15	1.50	1.25	2.75	3.50	2.75	2.50	1.50	2.50	1.00	0.75	0.50	0.50	2.75	2.00	1.00	0.00	-0.159180	0.109863	0.981445	0.910000	-7.910000	2.240000	324.00	-0.05	-0.09
0.61	4.75	6.00	7.75	8.25	8.50	11.00	2.50	9.25	3.25	3.25	3.75	7.00	10.00	1.50	0.75	2.25	-0.179688	0.096680	0.990234	-1.470000	-14.140000	3.220000	1073.00	-0.05	-0.15	2.00	1.75	3.50	4.25	3.00	3.00	1.50	2.50	0.75	0.75	0.50	0.50	2.50	1.75	0.75	0.00	-0.172852	0.110840	0.982422	2.240000	-8.960000	2.590000	351.00	-0.08	-0.10
0.62	5.25	6.75	8.25	8.50	9.00	11.25	2.50	9.00	3.00	2.75	3.25	6.00	9.50	1.25	0.50	1.50	-0.180664	0.093750	0.958496	-0.350000	-16.240000	2.730000	1059.00	-0.07	-0.14	2.75	2.25	3.75	4.75	3.00	3.25	1.25	2.25	0.75	0.75	0.25	0.25	2.00	1.50	0.50	0.00	-0.176270	0.085449	0.984375	3.920000	-9.800000	2.520000	353.00	-0.12	-0.09
0.63	5.50	7.50	8.50	9.00	9.50	11.75	2.25	9.00	3.25	2.75	2.75	5.75	8.75	0.75	0.50	1.25	-0.135742	0.115234	0.972168	0.490000	-17.290001	3.360000	1068.00	-0.08	-0.14	3.25	2.50	4.50	5.00	3.50	3.75	1.25	2.00	0.50	0.25	0.00	0.00	2.00	1.75	0.75	0.00	-0.153320	0.121582	0.977539	10.500000	-12.810000	3.570000	371.00	-0.14	-0.08
0.64	6.50	8.50	8.75	9.50	9.75	12.00	2.25	8.75	2.50	2.50	2.25	4.75	8.25	0.75	0.50	1.25	-0.134277	0.089355	0.994141	2.870000	-18.059999	4.410000	1065.00	-0.10	-0.14	3.75	2.75	5.00	5.50	3.50	4.00	1.25	2.00	0.25	0.25	0.00	0.00	1.25	1.25	0.75	0.00	-0.151367	0.132812	0.991699	12.810000	-13.580000	3.500000	379.00	-0.17	-0.08
0.65	8.25	9.25	9.50	10.00	10.00	12.25	2.00	8.50	2.25	2.00	1.75	4.00	7.75	0.75	0.25	0.75	-0.148438	0.148926	1.007812	7.350000	-18.620001	4.480000	1071.00	-0.12	-0.13	4.75	3.75	5.25	6.25	3.50	4.25	1.25	2.00	0.25	0.50	0.00	0.00	1.00	1.00	0.50	0.00	-0.133789	0.122070	0.974609	15.470000	-14.980000	2.100000	411.00	-0.19	-0.08
0.66	9.00	10.00	9.50	10.25	10.25	12.25	2.00	8.50	2.75	2.00	1.75	3.25	7.25	0.50	0.25	0.50	-0.130859	0.129883	0.991699	10.850000	-19.460001	4.760000	1083.00	-0.13	-0.13	5.00	4.50	5.50	6.75	3.75	4.75	1.25	2.00	0.25	0.50	0.00	0.00	0.75	0.75	0.50	0.00	-0.104004	0.142090	0.970703	15.610000	-14.910000	2.100000	434.00	-0.20	-0.08
0.67	9.75	10.50	9.75	10.50	10.00	12.25	2.00	8.25	2.00	1.50	1.25	2.75	6.00	0.50	0.00	0.75	-0.096680	0.125000	0.977539	13.580000	-16.870001	3.500000	1054.00	-0.15	-0.12	5.75	5.00	5.75	7.25	3.50	4.75	1.25	1.75	0.00	0.00	0.00	0.00	0.75	1.00	0.50	0.00	-0.127441	0.138184	0.974609	15.680000	-14.140000	1.820000	443.00	-0.22	-0.08
0.68	10.50	11.25	10.00	10.75	10.00	12.50	1.75	8.00	1.75	1.50	1.25	2.25	5.25	0.50	0.25	0.50	-0.103516	0.131836	0.971680	16.660000	-12.740000	3.570000	1056.00	-0.16	-0.12	6.00	5.50	6.50	7.75	3.50	4.75	1.25	1.50	0.25	0.00	0.00	0.00	0.75	0.75	0.50	0.00	-0.133301	0.127441	0.964355	16.799999	-14.000000	1.400000	463.00	-0.22	-0.08
0.69	11.50	12.25	10.25	11.00	9.75	12.25	1.75	7.75	1.75	1.75	1.25	2.50	4.25	0.25	0.00	0.50	-0.099121	0.139160	0.982422	21.210001	-12.390000	5.390000	1065.00	-0.17	-0.11	6.50	6.50	7.00	8.25	3.50	5.00	1.00	1.75	0.00	0.00	0.00	0.00	0.00	0.50	0.50	0.00	-0.120605	0.140137	0.963867	17.150000	-13.230000	1.120000	481.00	-0.24	-0.08
0.70	12.00	12.75	10.50	11.25	9.75	12.25	1.75	7.50	1.75	1.50	1.00	1.75	4.00	0.25	0.00	0.50	-0.095215	0.113770	0.984375	24.360001	-16.940001	5.460000	1060.00	-0.18	-0.11	7.00	6.75	7.00	8.50	3.50	5.00	1.25	1.50	0.00	0.00	0.00	0.00	0.00	0.75	0.50	0.00	-0.129395	0.132812	0.981934	17.850000	-13.230000	0.840000	494.00	-0.24	-0.07
0.71	9.50	11.00	9.25	9.75	8.75	11.00	1.50	6.00	0.50	0.00	0.00	0.25	0.50	0.00	0.00	0.25	-0.066895	0.137695	0.931152	24.850000	-17.150000	4.410000	825.00	-0.22	-0.11	7.75	7.75	7.50	9.00	3.75	5.00	1.25	1.25	0.00	0.00	0.00	0.00	0.75	0.50	0.00	0.00	-0.138184	0.164062	0.998047	17.920000	-15.120000	0.420000	523.00	-0.26	-0.07
0.72	13.25	13.50	10.50	11.25	9.50	12.00	1.50	7.25	1.50	0.75	0.75	1.25	2.00	0.25	0.00	0.50	-0.076660	0.152344	0.930176	23.520000	-13.510000	4.060000	1028.00	-0.20	-0.10	8.75	8.25	7.75	9.00	4.00	5.00	1.00	1.25	0.00	0.00	0.00	0.00	0.00	0.50	0.50	0.00	-0.134277	0.171387	0.957031	17.990000	-17.360001	1.260000	540.00	-0.26	-0.07
0.73	13.50	13.75	10.50	11.25	9.25	11.75	1.50	6.50	1.50	1.00	0.75	1.25	2.25	0.25	0.00	0.50	-0.129395	0.179688	1.008789	21.559999	-11.480000	4.200000	1020.00	-0.20	-0.10	9.00	8.75	8.00	9.25	3.50	5.00	1.00	1.00	0.00	0.00	0.00	0.00	0.50	0.50	0.00	0.00	-0.120605	0.144531	0.949219	16.100000	-16.590000	1.610000	542.00	-0.27	-0.07
0.74	14.25	13.75	10.50	11.25	9.00	11.50	1.50	6.25	1.50	0.75	0.50	1.25	2.00	0.25	0.00	0.00	-0.083984	0.144043	0.930176	19.250000	-11.200000	3.570000	1008.00	-0.21	-0.10	10.00	9.00	8.00	9.25	3.50	4.75	1.00	1.00	0.00	0.00	0.00	0.00	0.00	0.50	0.25	0.00	-0.122070	0.152832	0.968262	14.490000	-16.170000	0.910000	551.00	-0.27	-0.06
0.75	13.50	14.00	10.50	11.25	9.00	11.50	1.50	6.00	1.50	0.75	0.25	1.00	1.75	0.00	0.00	0.25	-0.070801	0.146973	0.924316	15.680000	-9.520000	3.080000	989.00	-0.22	-0.10	10.00	9.50	8.50	9.50	3.25	5.00	1.00	1.00	0.00	0.00	0.00	0.00	0.00	0.75	0.50	0.00	-0.108887	0.156250	0.953613	10.710000	-13.440001	0.070000	571.00	-0.27	-0.06
0.76	11.25	12.25	9.25	10.00	7.75	10.00	1.25	5.00	0.00	0.00	0.00	0.00	0.00	0.00	0.00	0.00	-0.077148	0.150391	0.922363	8.120000	-3.080000	2.030000	799.00	-0.25	-0.10	11.50	9.75	8.50	9.75	3.50	5.00	1.00	0.75	0.00	0.00	0.00	0.00	0.00	0.25	0.25	0.00	-0.110840	0.147461	0.965332	10.430000	-12.950000	-0.210000	585.00	-0.28	-0.06
0.77	14.25	14.25	10.50	11.50	8.50	11.00	1.25	4.00	0.00	0.00	0.00	0.00	0.00	0.00	0.00	0.00	-0.070312	0.151367	0.927734	4.690000	0.070000	1.610000	891.00	-0.26	-0.09	12.75	10.25	8.75	10.00	3.25	5.00	1.00	1.00	0.00	0.00	0.00	0.00	0.00	0.50	0.25	0.00	-0.100586	0.174316	0.956055	9.170000	-12.460000	-0.490000	613.00	-0.28	-0.06
0.78	14.25	14.25	10.50	11.25	8.50	11.00	1.25	5.00	0.75	0.25	0.25	0.75	0.75	0.00	0.00	0.00	-0.063477	0.154297	0.909668	1.330000	4.060000	1.120000	937.00	-0.24	-0.09	12.25	10.75	8.75	10.25	3.75	5.00	1.00	1.00	0.00	0.00	0.00	0.00	0.00	0.75	0.50	0.00	-0.094238	0.171875	0.925293	7.700000	-10.640000	-0.210000	627.00	-0.28	-0.06
0.79	14.00	14.00	10.50	11.00	8.25	10.75	1.50	5.00	1.00	0.50	0.25	0.75	0.75	0.00	0.00	0.00	-0.063965	0.149902	0.913086	-2.240000	8.820000	0.420000	933.00	-0.23	-0.09	13.00	10.50	9.00	10.25	3.50	5.00	1.00	1.00	0.00	0.00	0.00	0.00	0.00	0.50	0.25	0.00	-0.086426	0.167969	0.921387	4.830000	-6.720000	-0.560000	628.00	-0.28	-0.06
0.80	13.75	13.50	9.25	10.00	7.25	9.75	1.25	3.75	0.00	0.00	0.00	0.00	0.00	0.00	0.00	0.25	-0.076660	0.159180	0.936523	-5.040000	12.950000	0.070000	812.00	-0.26	-0.08	13.00	10.75	9.00	10.50	3.50	5.00	1.00	0.75	0.00	0.00	0.00	0.00	0.00	0.25	0.00	0.00	-0.087402	0.177246	0.910156	1.120000	-2.520000	-1.260000	624.00	-0.29	-0.06
0.81	11.25	11.75	9.00	10.00	7.25	9.50	1.25	3.75	0.00	0.00	0.00	0.00	0.00	0.00	0.00	0.00	-0.074219	0.153320	0.931641	-6.790000	15.820000	-0.140000	758.00	-0.25	-0.09	12.75	11.25	9.00	10.75	3.50	5.00	1.00	1.00	0.00	0.00	0.00	0.00	0.00	0.25	0.25	0.00	-0.084473	0.188477	0.915039	-3.010000	2.030000	-1.400000	636.00	-0.29	-0.06
0.82	13.50	13.50	10.25	10.75	8.00	10.50	1.50	5.00	1.25	0.75	0.25	0.00	0.00	0.00	0.00	0.00	-0.072754	0.157715	0.923828	-8.190000	18.830000	-0.070000	901.00	-0.23	-0.08	13.50	11.50	9.00	10.50	3.50	5.25	1.00	1.00	0.00	0.00	0.00	0.00	0.00	0.50	0.00	0.00	-0.099121	0.179688	0.938965	-7.630000	5.950000	-1.260000	647.00	-0.29	-0.06
0.83	13.25	13.25	10.00	10.75	7.75	10.25	1.25	2.75	0.50	0.75	0.25	0.25	0.00	0.00	0.00	0.00	-0.080566	0.165527	0.901855	-9.800000	22.260000	0.350000	837.00	-0.25	-0.08	13.50	11.25	9.25	10.75	3.75	5.25	1.00	1.00	0.00	0.00	0.00	0.00	0.00	0.25	0.00	0.00	-0.110840	0.172852	0.950684	-10.500000	7.770000	-1.120000	651.00	-0.29	-0.06
0.84	12.50	13.00	9.75	10.50	7.00	9.50	1.25	3.50	0.00	0.25	0.50	0.75	0.50	0.00	0.00	0.00	-0.059082	0.156738	0.866211	-11.900000	27.440001	0.980000	815.00	-0.25	-0.09	13.50	11.75	9.25	10.75	3.50	5.50	1.00	1.25	0.00	0.00	0.00	0.00	0.00	0.00	0.00	0.00	-0.113770	0.175781	0.944824	-12.180000	8.540000	-0.840000	658.00	-0.29	-0.06
0.85	12.50	12.50	9.75	10.50	7.75	10.25	1.25	3.75	0.00	0.00	0.00	0.00	0.00	0.00	0.00	0.00	-0.043945	0.147949	0.818359	-16.240000	36.259998	1.400000	810.00	-0.26	-0.09	14.00	12.00	9.50	11.00	3.75	5.50	1.00	1.00	0.00	0.00	0.00	0.00	0.00	0.25	0.00	0.00	-0.124512	0.170898	0.949707	-13.510000	9.240000	-0.630000	673.00	-0.29	-0.06
0.86	9.50	10.00	8.25	9.50	7.50	10.25	1.50	5.25	0.75	0.00	0.00	0.00	0.00	0.00	0.00	0.00	-0.042969	0.134277	0.870117	-27.580000	44.380001	0.700000	758.00	-0.23	-0.10	14.00	12.25	9.50	11.25	4.00	6.00	1.00	1.25	0.00	0.00	0.00	0.00	0.25	0.50	0.25	0.00	-0.119629	0.160645	0.951172	-14.700000	9.170000	-0.420000	699.00	-0.28	-0.06
0.87	8.50	9.25	8.25	9.00	7.00	9.50	1.25	5.25	0.00	0.00	0.00	0.00	0.50	0.00	0.00	0.00	-0.068359	0.114258	0.870117	-32.410000	52.150002	-0.630000	708.00	-0.23	-0.11	14.25	12.50	9.75	11.75	4.75	6.00	1.00	1.25	0.00	0.00	0.00	0.00	0.25	0.50	0.25	0.00	-0.110352	0.155762	0.936523	-18.480000	10.010000	-0.630000	722.00	-0.28	-0.06
0.88	7.75	9.00	8.00	8.75	6.75	9.50	1.50	6.25	0.00	0.00	0.00	0.00	1.50	0.00	0.00	0.00	-0.099609	0.103027	0.975586	-35.980000	46.480000	-2.450000	718.00	-0.21	-0.12	15.00	12.75	10.00	12.00	4.75	6.50	1.00	1.75	0.00	0.25	0.00	0.00	0.50	0.50	0.25	0.00	-0.106934	0.144043	0.927734	-21.210001	11.200000	-0.980000	759.00	-0.28	-0.07
0.89	7.00	8.50	7.50	8.25	6.50	9.25	1.50	6.75	0.25	0.50	0.00	0.25	3.25	0.00	0.00	0.00	-0.179688	0.176758	0.942383	-31.219999	41.160000	-3.640000	723.00	-0.19	-0.13	15.50	13.25	10.50	12.00	5.25	7.00	1.25	1.75	0.00	0.25	0.00	0.00	0.50	0.50	0.00	0.00	-0.111328	0.139648	0.929199	-24.639999	13.230000	-1.540000	789.00	-0.28	-0.06
0.90	5.75	7.75	7.00	8.00	6.00	9.00	1.75	8.00	2.00	1.75	1.25	0.75	4.25	0.00	0.00	0.00	-0.107422	0.135254	1.066406	-28.139999	45.990002	-3.150000	777.00	-0.14	-0.13	15.25	13.00	10.75	12.50	5.75	7.50	1.25	2.25	0.00	0.25	0.00	0.00	0.25	0.50	0.00	0.00	-0.130371	0.146484	1.013184	-28.840000	9.800000	-1.610000	811.00	-0.27	-0.07
0.91	5.00	6.50	6.25	7.00	5.25	8.75	1.75	7.50	0.50	0.75	0.50	1.25	5.75	0.00	0.00	0.00	-0.211914	0.121582	1.092773	1.960000	40.459999	-4.620000	693.00	-0.14	-0.16	15.75	13.75	11.00	12.75	6.25	8.00	1.25	2.50	0.25	0.50	0.00	0.00	0.75	0.50	0.25	0.00	-0.126953	0.148926	0.956543	-28.210001	7.000000	-1.540000	860.00	-0.26	-0.07
0.92	3.75	5.75	5.25	6.00	4.00	7.75	1.50	7.50	0.50	0.75	0.50	1.75	6.25	0.00	0.00	0.50	-0.270508	0.188477	1.017578	12.460000	44.170002	-7.700000	630.00	-0.12	-0.18	16.25	13.25	11.00	13.00	6.50	8.25	1.25	3.00	0.00	0.50	0.00	0.00	1.00	0.50	0.25	0.00	-0.129883	0.151855	0.969238	-26.740000	5.950000	-0.910000	877.00	-0.26	-0.07
0.93	2.75	5.25	4.75	5.00	2.50	6.75	1.50	7.00	0.75	0.75	0.75	2.25	7.75	0.00	0.25	1.50	-0.222168	0.255859	1.024902	27.230000	48.439999	-9.870000	592.00	-0.09	-0.19	15.75	13.75	11.50	13.50	6.75	8.75	1.25	3.50	0.50	0.75	0.25	0.00	1.25	0.75	0.50	0.00	-0.130859	0.137207	0.962402	-24.990000	4.830000	-0.560000	926.00	-0.24	-0.08
0.94	1.50	4.25	3.50	3.50	1.50	5.00	1.25	6.00	0.75	1.00	1.25	3.50	8.00	0.00	0.25	1.75	-0.243652	0.180664	1.180664	58.170002	70.139999	-17.010000	508.00	-0.05	-0.21	16.25	14.25	11.50	13.25	7.50	9.25	1.50	4.00	0.25	0.75	0.50	0.25	1.75	0.75	1.25	0.00	-0.128906	0.137207	0.963379	-23.870001	3.990000	-0.350000	976.00	-0.23	-0.08
0.95	1.25	4.25	2.75	2.00	0.75	4.00	1.00	5.00	0.50	1.75	2.50	4.75	9.50	1.50	1.25	3.00	0.027344	-0.079590	1.899902	104.300003	126.629997	-22.820000	517.00	0.02	-0.21	15.00	12.75	12.50	13.75	7.75	9.00	1.50	5.25	0.50	1.00	0.75	0.50	3.50	1.00	1.25	0.50	-0.126953	0.122070	0.973633	-21.350000	2.660000	-0.210000	1020.00	-0.21	-0.09
0.96	2.75	5.00	4.50	3.25	1.25	5.00	1.25	5.00	1.50	2.00	2.50	5.25	9.00	1.50	1.25	3.50	-0.180176	0.425781	1.235840	130.479996	207.339996	-24.290001	621.00	-0.01	-0.18	19.25	11.75	13.00	17.00	9.00	9.00	2.00	6.50	2.00	2.00	1.75	1.25	3.50	1.75	2.00	0.75	-0.130859	0.128418	0.994629	-17.500000	1.540000	-0.000000	1217.00	-0.18	-0.08
0.97	2.00	5.00	4.00	3.25	1.00	4.00	1.00	3.75	1.00	1.50	2.25	5.00	8.50	1.50	2.00	3.50	-0.293945	0.038574	2.004395	129.500000	272.929993	-32.900002	552.00	-0.00	-0.18	20.50	18.50	14.50	17.00	9.75	12.00	2.00	6.75	1.75	1.25	1.00	1.25	3.00	2.00	0.50	0.00	-0.137207	0.118164	0.981445	-11.410000	-0.490000	0.630000	1322.00	-0.21	-0.08
0.98	2.00	5.00	4.25	3.00	1.25	3.50	1.00	2.75	0.75	1.25	2.00	4.75	7.75	1.00	1.25	3.50	-0.223633	0.465332	1.614746	126.279999	316.750000	-33.320000	500.00	-0.02	-0.18	19.75	18.75	14.50	17.50	10.00	12.75	2.25	7.25	1.75	2.25	1.50	1.50	5.25	2.25	2.25	0.75	-0.129883	0.118652	0.980469	-7.420000	-1.610000	1.260000	1414.00	-0.19	-0.09
0.99	2.25	5.00	3.75	2.75	1.00	2.25	1.00	2.50	0.00	1.00	1.75	4.00	6.50	2.00	1.50	3.00	-0.475586	0.451172	1.804199	119.000000	344.679993	-39.830002	444.00	-0.02	-0.17	20.50	19.00	15.00	17.75	10.50	13.00	2.50	7.50	2.25	1.00	1.75	2.00	5.25	2.50	2.00	1.00	-0.116211	0.124023	0.982422	-1.890000	-1.890000	1.540000	1454.00	-0.19	-0.09
1.00	1.75	4.00	3.50	2.75	1.00	2.25	0.75	1.75	0.00	1.25	1.50	3.25	5.25	0.25	1.00	2.50	-0.385254	0.201172	2.077637	124.389999	351.540009	-38.639999	363.00	-0.04	-0.17	14.50	15.00	14.00	17.25	10.75	13.50	2.50	7.75	2.00	2.00	1.75	2.00	5.75	2.50	2.25	0.75	-0.120605	0.126465	0.975098	-0.560000	-2.240000	1.890000	1355.00	-0.16	-0.10
1.01	2.25	5.00	3.50	1.75	1.00	1.75	1.00	1.25	0.25	0.75	1.50	2.75	3.75	0.50	0.50	1.50	-0.340332	0.207520	1.813965	133.699997	338.450012	-31.219999	325.00	-0.08	-0.14	20.50	19.50	15.25	18.00	11.00	13.75	2.50	7.75	2.25	2.50	1.75	2.25	6.25	2.25	2.50	1.00	-0.109863	0.136719	0.966309	-0.350000	-1.470000	1.890000	1517.00	-0.18	-0.09
1.02	1.50	4.75	3.75	2.25	1.00	2.25	1.00	1.00	0.50	1.00	1.00	2.75	2.50	0.00	0.00	0.75	-0.356445	0.656250	1.954102	166.110001	320.809998	-31.570000	299.00	-0.11	-0.13	21.25	19.50	15.00	18.25	11.50	14.00	2.75	8.00	2.00	2.75	1.50	2.25	6.75	2.75	2.50	1.00	-0.109863	0.139160	0.958496	-1.610000	-0.490000	1.540000	1548.00	-0.18	-0.09
1.03	1.75	4.50	3.75	2.25	1.00	1.50	1.00	1.00	0.50	1.00	1.00	2.25	2.25	0.00	0.00	0.75	-0.156738	0.121094	1.745117	210.979996	294.279999	-41.020000	282.00	-0.11	-0.11	20.75	19.25	15.00	18.25	11.50	14.25	2.75	8.00	2.00	2.75	2.00	2.25	7.00	2.50	2.50	1.25	-0.117676	0.140137	0.966797	-3.570000	0.280000	1.190000	1550.00	-0.17	-0.10
1.04	2.25	2.25	3.50	2.50	1.00	1.00	1.00	1.00	1.00	0.75	0.75	1.75	1.25	0.00	0.00	0.50	0.148438	-0.250488	1.258301	186.550003	254.169998	-52.500000	244.00	-0.11	-0.07	20.50	18.75	15.00	18.25	11.75	14.50	2.75	8.25	2.50	3.00	2.00	2.25	7.25	3.00	2.75	1.25	-0.112305	0.131836	0.967285	-5.040000	0.980000	0.980000	1573.00	-0.16	-0.10
1.05	1.50	4.00	3.50	2.00	1.00	1.00	1.00	0.25	1.00	0.75	0.50	1.75	1.50	0.25	0.00	0.25	1.143555	0.034668	1.227539	127.750000	208.389999	-67.410004	235.00	-0.12	-0.07	20.00	18.75	15.00	18.75	12.25	14.75	3.00	8.50	2.75	2.75	2.25	2.50	7.25	3.00	2.75	1.25	-0.114258	0.135254	0.970703	-6.300000	1.540000	0.560000	1597.00	-0.16	-0.10
1.06	1.50	4.00	3.75	2.50	1.00	1.00	1.00	1.00	1.00	1.00	0.75	1.25	1.50	0.00	0.00	0.00	1.695312	0.643066	2.145508	-24.920000	31.639999	-68.599998	253.00	-0.13	-0.08	20.00	18.75	14.75	18.25	12.25	14.75	3.00	8.50	2.50	3.00	2.25	2.75	7.75	2.75	3.00	1.25	-0.113281	0.130859	0.963379	-7.350000	2.030000	0.350000	1595.00	-0.16	-0.10
1.07	1.50	3.75	3.75	2.50	1.25	1.00	1.00	0.75	1.00	1.00	0.50	1.50	0.75	0.25	0.25	0.25	2.143066	-0.092773	0.982422	-39.759998	-47.250000	-58.170002	249.00	-0.12	-0.06	19.75	18.25	14.75	18.25	12.50	14.75	3.25	8.50	2.75	3.00	2.50	3.25	8.25	2.75	3.00	1.25	-0.104980	0.128906	0.967285	-8.050000	2.870000	-0.140000	1611.00	-0.15	-0.10
1.08	1.75	4.00	3.75	1.75	1.00	1.00	1.00	1.00	0.75	0.50	0.50	1.00	0.75	0.00	0.00	0.00	1.690918	0.240723	0.705566	-39.410000	-80.709999	-54.880001	225.00	-0.16	-0.06	19.00	18.00	14.50	17.50	12.75	14.75	3.25	8.50	3.00	3.25	2.75	3.25	8.25	3.25	3.00	1.75	-0.109863	0.123535	0.967285	-8.120000	3.500000	-0.280000	1608.00	-0.15	-0.10
1.09	2.00	4.00	3.50	2.25	1.00	0.75	1.00	0.75	1.00	0.75	0.25	1.25	1.25	0.00	0.00	0.50	1.726074	0.173340	0.804688	-35.630001	-91.209999	-48.650002	237.00	-0.14	-0.07	18.25	17.50	14.00	17.75	12.75	14.50	3.25	8.75	3.00	3.25	2.75	3.50	8.75	3.25	3.25	1.75	-0.110352	0.120605	0.959961	-8.050000	4.480000	-0.770000	1603.00	-0.14	-0.10
1.10	0.75	4.75	3.50	2.00	0.75	1.00	1.00	0.75	0.50	0.50	0.50	1.00	0.25	0.00	0.00	0.00	1.687012	0.241699	1.117676	-42.490002	-113.959999	-35.000000	205.00	-0.18	-0.07	17.75	17.00	14.00	17.50	12.75	14.50	3.50	8.75	3.00	3.50	3.00	3.50	9.00	3.50	3.50	1.75	-0.112793	0.121094	0.968750	-7.910000	5.250000	-0.910000	1607.00	-0.13	-0.10
1.11	1.25	4.25	3.75	2.25	1.00	1.25	1.00	1.00	1.00	1.25	0.50	1.00	0.75	0.25	0.00	0.25	1.621582	0.277344	1.230957	-53.970001	-148.119995	-19.110001	246.00	-0.13	-0.06	17.75	16.25	13.75	17.00	12.75	14.25	3.50	8.75	3.25	3.50	3.00	4.00	9.25	3.50	3.50	2.00	-0.116699	0.121094	0.958496	-6.580000	6.370000	-1.050000	1600.00	-0.13	-0.10
1.12	1.50	3.50	3.50	2.00	1.00	1.00	1.00	0.50	1.00	1.00	0.25	1.00	0.75	0.25	0.00	0.00	1.372559	0.258789	1.228027	-63.700001	-183.119995	-5.810000	217.00	-0.14	-0.04	16.75	15.75	13.50	17.00	13.00	14.25	3.75	9.00	3.25	4.00	3.25	4.25	9.50	3.75	3.50	1.75	-0.118164	0.115723	0.950684	-6.580000	7.140000	-0.910000	1607.00	-0.12	-0.10
1.13	1.50	4.25	3.50	2.00	0.75	0.75	1.00	0.50	1.00	0.75	0.25	0.75	0.50	0.00	0.00	0.00	1.106934	0.227539	1.205566	-68.180000	-211.820007	1.540000	208.00	-0.17	-0.04	16.25	15.00	13.25	16.50	13.00	14.25	3.75	9.00	3.50	4.25	3.75	4.75	9.75	4.00	3.75	2.00	-0.117188	0.115723	0.960938	-6.510000	7.770000	-0.980000	1612.00	-0.11	-0.10
1.14	1.50	3.50	3.50	2.00	0.75	0.50	1.25	0.50	0.50	1.00	0.25	0.50	0.00	0.00	0.00	0.00	0.832520	0.215820	1.192871	-69.090004	-234.080002	4.270000	190.00	-0.18	-0.02	15.25	14.25	12.75	16.25	13.00	14.00	4.00	9.00	3.50	4.25	4.00	5.00	10.25	4.00	3.75	2.50	-0.122559	0.125977	0.962891	-6.020000	8.190000	-0.630000	1598.00	-0.10	-0.10
1.15	1.25	3.75	3.50	1.50	0.75	1.00	1.00	0.50	0.50	1.00	0.25	0.25	0.50	0.00	0.00	0.00	0.567871	0.206055	1.216309	-67.900002	-250.460007	5.180000	187.00	-0.18	-0.04	14.50	13.50	12.50	16.00	13.00	13.75	4.25	9.00	3.75	4.75	4.25	6.00	10.50	4.50	4.25	2.75	-0.120605	0.112305	0.948730	-5.810000	8.680000	-0.560000	1615.00	-0.09	-0.10
1.16	1.50	3.75	3.50	1.75	1.00	0.75	1.25	0.75	1.00	0.50	0.00	0.25	0.50	0.00	0.00	0.00	0.308105	0.202637	1.266113	-65.379997	-262.220001	4.550000	200.00	-0.17	-0.03	13.00	12.75	12.25	15.50	13.25	13.75	4.25	9.00	4.25	5.50	5.50	6.25	10.75	4.75	4.50	2.75	-0.121582	0.116211	0.952148	-5.670000	9.030000	-0.560000	1625.00	-0.08	-0.10
1.17	1.25	3.75	3.50	1.50	0.75	0.50	1.25	0.75	0.75	0.75	0.00	0.50	0.00	0.00	0.00	0.00	0.068359	0.214844	1.294922	-60.689999	-269.989990	1.610000	186.00	-0.17	-0.02	12.50	11.75	11.75	15.00	13.00	13.50	4.50	9.25	4.25	6.00	6.25	7.50	11.00	5.00	5.00	3.25	-0.112305	0.119141	0.962891	-5.250000	9.590000	-0.700000	1642.00	-0.06	-0.10
1.18	1.00	3.75	3.25	1.50	0.75	0.75	1.00	0.50	1.00	0.50	0.25	0.50	0.50	0.00	0.00	0.00	-0.156738	0.266602	1.337891	-54.670002	-273.769989	-3.220000	183.00	-0.16	-0.04	11.25	10.50	11.00	14.00	12.75	13.25	4.50	9.25	4.50	6.50	6.25	7.50	10.75	5.25	5.00	3.25	-0.123047	0.116211	0.961426	-4.690000	10.640000	-0.910000	1597.00	-0.05	-0.10
1.19	1.75	3.50	3.25	1.75	0.75	0.75	1.00	0.50	1.00	0.75	0.25	0.50	0.75	0.00	0.00	0.00	-0.367188	0.319336	1.319336	-49.700001	-276.149994	-7.840000	197.00	-0.16	-0.03	9.50	9.00	10.50	12.25	11.75	11.25	4.25	8.50	4.50	7.50	7.50	8.25	11.50	5.75	5.75	3.75	-0.114258	0.117676	0.959473	-4.480000	11.830000	-0.910000	1540.00	-0.03	-0.10
1.20	1.25	4.00	3.50	1.75	0.75	0.75	1.00	0.50	0.75	0.50	0.25	0.50	0.00	0.00	0.00	0.00	-0.572266	0.352051	1.289062	-40.459999	-275.730011	-10.780000	186.00	-0.19	-0.03	8.00	8.25	9.00	10.75	12.50	12.00	4.25	8.25	4.25	6.75	7.00	8.00	11.25	6.00	5.25	3.00	-0.134277	0.123535	0.966309	-4.480000	12.880000	-0.840000	1462.00	-0.02	-0.11
1.21	1.00	3.75	3.50	1.75	1.00	0.50	1.25	0.50	1.00	0.50	0.25	0.75	0.75	0.00	0.00	0.00	-1.053223	0.483398	1.280273	-26.460001	-259.489990	-10.080000	198.00	-0.15	-0.04	6.00	6.50	7.75	9.50	11.75	11.00	4.50	8.50	4.25	7.25	7.50	8.00	11.25	6.00	5.50	3.00	-0.126465	0.117676	0.966309	-3.780000	13.370000	-0.700000	1393.00	0.00	-0.11
1.22	1.00	3.50	3.25	1.75	0.75	0.50	1.25	0.25	0.75	0.75	0.00	0.25	0.75	0.00	0.00	0.00	-1.347656	0.569336	1.233887	-23.240000	-246.960007	-4.830000	176.00	-0.17	-0.02	7.25	7.00	9.50	12.25	12.50	12.75	4.50	8.50	4.50	7.75	7.75	8.50	11.50	6.75	6.00	4.50	-0.142090	0.118652	0.968262	-2.940000	14.140000	-0.700000	1538.00	-0.01	-0.11
1.23	1.50	4.00	3.75	2.50	1.00	0.75	1.00	0.00	0.75	0.50	0.25	0.50	0.75	0.00	0.00	0.00	-1.621094	0.666992	1.152832	-23.309999	-230.930008	3.780000	203.00	-0.19	-0.04	5.75	6.00	8.00	9.00	10.50	11.25	4.50	8.75	5.00	8.25	8.50	9.25	12.00	7.75	7.00	5.00	-0.134766	0.130371	0.975098	-0.560000	16.100000	-0.840000	1475.00	0.03	-0.11
1.24	1.50	3.50	3.50	1.50	1.00	0.75	1.00	0.25	1.25	0.50	0.25	0.25	0.75	0.00	0.00	0.00	-1.811035	0.789062	1.038574	-25.129999	-212.100006	16.730000	191.00	-0.16	-0.01	5.75	5.00	7.00	9.25	10.25	12.25	4.75	9.25	6.75	8.75	8.50	9.00	12.00	8.50	7.75	5.50	-0.128418	0.100098	0.967285	0.070000	17.570000	-1.470000	1523.00	0.04	-0.10
1.25	1.25	3.50	3.75	1.75	1.00	1.00	1.25	0.50	1.00	0.50	0.00	0.50	0.75	0.00	0.00	0.00	-1.937500	0.885254	0.886230	-26.460001	-191.169998	34.439999	202.00	-0.16	-0.03	5.75	5.25	7.50	9.25	11.00	12.25	4.75	9.25	7.50	9.25	9.75	10.25	13.50	9.50	8.25	5.50	-0.146484	0.110840	0.961426	0.420000	18.760000	-1.750000	1615.00	0.04	-0.10
1.26	1.25	3.75	3.50	1.50	0.75	0.75	1.25	0.50	1.00	0.50	0.00	0.25	0.00	0.00	0.00	0.00	-2.033203	0.963867	0.715332	-24.500000	-168.139999	55.790001	182.00	-0.18	-0.01	4.75	2.75	5.00	7.00	9.25	11.00	4.50	9.00	6.75	9.00	9.75	10.50	13.75	9.25	7.50	5.25	-0.147949	0.110840	0.957520	0.420000	19.809999	-1.190000	1456.00	0.07	-0.11
1.27	2.00	4.00	3.50	1.75	1.00	0.50	1.00	0.50	0.75	0.75	0.00	0.25	0.50	0.25	0.00	0.00	-2.122070	1.000977	0.516113	-16.799999	-143.360001	75.949997	199.00	-0.19	-0.02	3.25	2.75	5.25	7.00	8.50	9.00	4.25	8.50	7.00	9.25	9.50	10.00	13.00	10.00	8.75	5.50	-0.149414	0.125977	0.961426	0.770000	21.629999	-2.100000	1411.00	0.08	-0.10
1.28	1.50	3.50	3.50	2.00	1.00	0.75	1.25	0.50	1.25	0.75	0.25	0.50	0.50	0.00	0.00	0.00	-2.218262	0.864258	0.392090	4.060000	-118.020004	90.370003	209.00	-0.15	-0.02	3.50	2.00	4.00	6.00	8.00	9.25	4.50	8.75	7.75	9.75	10.25	11.25	14.25	11.25	8.50	6.50	-0.155273	0.118652	0.969238	1.330000	24.080000	-2.660000	1450.00	0.10	-0.10
1.29	1.50	3.25	4.00	2.00	1.00	0.75	1.25	0.75	0.50	0.75	0.00	0.25	0.50	0.00	0.00	0.00	-2.344238	0.549316	0.266113	26.180000	-92.050003	93.239998	200.00	-0.18	-0.03	3.75	2.25	4.00	5.50	7.25	8.50	4.00	8.25	8.00	10.50	11.25	11.00	14.50	12.00	9.25	6.25	-0.161621	0.100586	0.979980	0.980000	26.600000	-2.380000	1452.00	0.11	-0.10
1.30	1.50	4.00	3.75	1.50	1.00	0.75	1.25	0.50	1.00	0.50	0.25	0.50	0.50	0.00	0.00	0.00	-2.416504	0.290039	0.121582	38.990002	-65.309998	84.559998	204.00	-0.17	-0.02	2.25	1.75	3.75	4.75	6.00	7.25	3.75	8.00	7.75	10.00	10.75	11.00	14.00	13.25	9.25	7.00	-0.144531	0.117676	0.977051	0.560000	30.520000	-3.430000	1376.00	0.13	-0.10
1.31	2.25	3.50	4.00	2.00	0.75	0.50	1.00	0.50	0.75	0.25	0.00	0.25	0.25	0.00	0.00	0.25	-3.463867	0.048340	0.059082	43.820000	-39.410000	66.779999	194.00	-0.21	-0.02	1.75	1.50	2.75	4.50	5.00	6.25	3.50	7.75	8.25	10.50	11.00	11.25	14.00	14.50	9.50	7.00	-0.162598	0.110840	0.980469	0.140000	35.000000	-4.970000	1354.00	0.15	-0.10
1.32	3.00	5.00	4.75	2.75	1.00	0.25	1.25	0.00	0.75	0.25	0.00	0.50	0.25	0.00	0.00	0.00	-3.438477	-1.240723	-0.696777	-30.730000	92.190002	66.430000	233.00	-0.24	-0.01	1.25	1.00	2.50	3.75	4.00	5.25	3.25	7.50	8.50	10.75	11.25	11.75	14.50	15.75	10.00	7.75	-0.143555	0.133301	1.020996	2.240000	42.630001	-6.300000	1340.00	0.16	-0.10
1.33	5.25	6.00	5.00	5.00	1.00	0.00	1.00	0.25	0.75	0.00	0.00	0.25	0.00	0.00	0.00	0.00	-2.592285	-0.692383	-0.609375	-55.580002	214.339996	48.930000	287.00	-0.28	-0.02	1.25	0.75	1.75	3.25	2.75	4.50	2.75	6.75	8.75	10.75	11.50	12.00	14.25	17.00	10.50	7.75	-0.202148	0.121094	1.004883	3.500000	53.760002	-8.190000	1302.00	0.18	-0.10
1.34	10.00	8.50	7.00	5.75	1.75	0.75	1.00	0.50	0.75	0.00	0.00	0.00	0.00	0.00	0.00	0.00	-0.615234	-0.454102	3.426758	-16.450001	291.690002	33.180000	419.00	-0.30	-0.02	0.75	0.75	1.75	3.00	2.00	3.25	2.50	5.75	8.75	11.00	11.75	12.00	14.00	18.00	11.00	8.00	-0.183594	0.143066	1.119141	5.180000	70.070000	-10.640000	1269.00	0.20	-0.09
1.35	10.75	11.00	7.75	8.00	2.50	2.25	1.25	0.00	0.00	0.00	0.00	0.00	0.00	0.00	0.00	0.00	-0.530273	-1.234863	5.346191	-48.230000	252.699997	4.480000	500.00	-0.31	-0.04	1.00	0.25	1.50	2.25	1.75	2.25	2.00	4.75	9.00	11.00	11.75	12.00	13.50	19.50	11.25	8.00	-0.307617	0.163086	1.256836	20.860001	141.399994	-18.549999	1230.00	0.22	-0.08
1.36	11.50	11.25	8.25	8.50	3.25	3.75	1.25	0.00	0.00	0.00	0.00	0.00	0.00	0.00	0.00	0.00	-0.177246	0.972168	0.945801	-24.990000	90.790001	-52.500000	550.00	-0.30	-0.04	0.25	0.50	1.00	2.00	1.25	2.00	1.50	3.00	9.25	11.00	11.75	11.75	12.75	20.25	11.75	8.00	-0.173828	0.215332	1.470703	23.940001	189.000000	-25.830000	1175.00	0.23	-0.07
1.37	11.00	11.00	8.75	8.75	4.75	5.00	1.25	0.25	0.00	0.00	0.00	0.00	0.00	0.00	0.00	0.00	-0.293945	0.695801	1.682129	-40.389999	107.029999	-6.860000	588.00	-0.29	-0.05	0.75	0.25	1.00	1.50	1.00	0.75	1.25	2.00	9.25	10.75	11.75	11.25	11.50	21.50	12.00	8.00	-0.234375	0.295898	1.384277	24.010000	235.899994	-36.400002	1128.00	0.25	-0.06
1.38	10.75	11.50	9.50	9.50	6.00	7.50	1.50	2.25	1.00	0.75	0.25	0.50	1.00	0.00	0.00	0.00	-0.206055	-0.021973	1.065918	-65.870003	77.699997	10.500000	732.00	-0.24	-0.07	0.25	0.25	1.25	1.50	0.75	0.75	1.00	1.50	9.00	10.25	11.50	11.00	10.50	22.25	12.00	7.75	-0.335449	0.374512	1.356445	17.360001	278.880005	-49.490002	1091.00	0.26	-0.05
1.39	13.25	12.75	10.00	9.50	7.25	8.00	1.50	2.00	0.00	0.50	0.00	0.00	1.00	0.00	0.00	0.00	-0.111816	-0.065430	1.140625	-77.629997	45.990002	-1.540000	770.00	-0.26	-0.07	0.25	0.00	0.50	1.50	0.50	0.50	0.75	1.25	8.75	9.75	11.00	10.25	9.25	23.00	11.75	7.25	-0.384766	0.335449	1.534180	-8.540000	313.110016	-60.619999	1031.00	0.27	-0.04
1.40	15.25	14.25	10.75	11.25	8.75	9.75	1.75	5.75	1.50	1.25	0.25	0.75	2.50	0.25	0.00	0.00	-0.234375	0.214355	1.173828	-59.639999	15.540000	-8.470000	1001.00	-0.22	-0.09	0.00	0.00	0.25	1.00	0.25	0.50	0.75	1.00	8.25	9.00	10.50	9.25	8.00	23.25	11.25	6.50	-0.361816	0.412109	1.388672	-23.379999	340.200012	-73.849998	959.00	0.28	-0.03
1.41	12.75	14.25	11.00	11.25	9.75	10.75	1.75	6.50	1.50	1.00	0.00	0.75	2.75	0.50	0.00	0.00	-0.287598	0.315430	1.081055	-42.420002	2.660000	-3.710000	1011.00	-0.21	-0.10	0.00	0.00	0.00	0.75	0.25	0.25	0.75	0.50	7.75	8.25	9.75	8.50	6.25	23.00	10.75	5.25	-0.551270	0.562012	1.305176	-47.950001	372.750000	-92.470001	877.00	0.29	-0.02
1.42	16.25	15.50	11.75	12.00	10.75	11.50	2.25	7.00	1.75	1.50	0.50	0.75	3.00	0.25	0.25	0.50	-0.155762	0.143066	1.050781	-32.759998	1.260000	0.770000	1140.00	-0.20	-0.09	0.00	0.00	0.00	0.50	0.25	0.00	0.50	0.25	7.00	7.75	9.00	7.50	5.00	22.25	10.00	3.25	-0.665527	0.579102	1.729492	-71.680000	402.850006	-116.410004	787.00	0.30	-0.01
1.43	16.75	15.75	12.00	12.00	11.25	12.00	2.50	7.50	1.75	1.75	0.50	1.00	3.75	0.25	0.00	0.50	-0.112305	0.075684	0.994141	-25.270000	0.910000	-1.050000	1185.00	-0.20	-0.09	0.00	0.00	0.00	0.00	0.00	0.00	0.50	0.25	5.75	6.50	8.00	6.00	2.75	20.75	8.75	1.00	-0.611328	0.662109	1.822266	-83.230003	416.779999	-134.889999	654.00	0.31	0.01
1.44	16.75	15.75	12.00	12.25	12.00	12.50	3.00	7.75	1.75	2.00	0.50	1.00	4.00	0.50	0.25	0.50	-0.138184	0.077148	1.001953	-16.590000	-0.840000	-1.540000	1226.00	-0.19	-0.09	0.00	0.00	0.00	0.00	0.00	0.00	0.50	0.50	4.50	5.25	7.00	4.00	1.75	18.75	7.25	0.00	-0.815430	0.659180	2.161133	-74.970001	430.290009	-151.479996	540.00	0.31	0.03
1.45	16.25	15.50	12.25	12.25	12.50	12.75	3.00	8.25	1.75	2.00	1.00	1.25	5.00	0.50	0.00	0.50	-0.120605	0.108398	0.994629	-8.890000	0.280000	-0.350000	1253.00	-0.19	-0.09	0.00	0.00	0.00	0.00	0.00	0.00	0.50	0.00	2.50	3.75	5.00	2.50	0.25	15.75	5.75	0.00	-1.047363	0.491699	2.591797	-75.529999	434.910004	-165.270004	387.00	0.33	0.05
1.46	16.00	15.25	12.00	12.25	12.75	13.00	3.25	8.50	2.00	2.00	1.25	1.50	5.25	0.25	0.50	0.75	-0.122070	0.097168	0.994141	-4.690000	3.220000	0.070000	1276.00	-0.18	-0.10	0.00	0.00	0.00	0.00	0.00	0.00	0.50	0.00	1.50	2.50	2.75	1.50	0.00	12.50	3.75	0.00	-0.772461	0.674316	3.110840	-61.459999	416.989990	-169.470001	266.00	0.34	0.07
1.47	15.75	15.00	12.00	12.00	13.00	13.00	3.25	8.75	2.00	2.25	1.00	1.75	5.75	0.50	0.25	0.50	-0.121582	0.118164	0.974121	-2.940000	5.740000	0.560000	1280.00	-0.17	-0.10	0.00	0.00	0.00	0.00	0.00	0.00	0.50	0.00	0.50	1.75	1.50	1.00	0.00	9.25	2.00	0.00	-0.471191	0.924316	3.184570	-36.889999	385.769989	-202.509995	173.00	0.34	0.08
1.48	15.50	14.75	11.75	12.00	12.75	13.25	3.25	9.00	2.00	2.25	1.25	1.75	6.00	0.75	0.25	0.75	-0.118652	0.097168	0.991699	-1.680000	7.420000	0.560000	1285.00	-0.17	-0.10	0.00	0.00	0.00	0.00	0.00	0.00	0.75	0.00	0.00	1.25	1.25	0.25	0.00	6.00	0.50	0.00	-0.141113	1.029785	2.854492	-53.689999	361.269989	-220.570007	105.00	0.32	0.10
1.49	14.50	14.50	11.50	11.75	12.75	13.00	3.50	9.25	2.00	2.25	1.50	1.75	6.50	0.50	0.50	0.75	-0.128418	0.104004	0.982422	-0.280000	8.820000	0.140000	1278.00	-0.16	-0.10	0.00	0.00	0.00	0.25	0.00	0.00	0.75	0.00	0.00	0.75	0.75	0.00	0.00	2.00	0.50	0.00	1.610352	1.804199	1.642578	-110.389999	332.989990	-238.839996	57.00	0.25	0.08
1.50	14.00	14.00	11.00	11.50	12.75	13.00	3.50	9.25	2.00	2.25	1.50	2.00	6.75	0.75	0.50	0.75	-0.125000	0.115234	0.974609	1.960000	12.040000	1.120000	1266.00	-0.16	-0.11	0.00	0.00	0.00	0.50	0.00	0.00	0.75	0.00	0.00	0.75	0.75	0.00	0.00	0.75	0.00	0.00	3.300293	3.551758	3.168457	-122.709999	266.279999	-220.710007	42.00	0.00	0.00
1.51	13.25	13.25	11.00	11.50	12.50	13.00	3.75	9.50	2.00	2.50	1.50	2.50	7.50	0.75	0.50	0.75	-0.130859	0.117676	0.985352	1.540000	13.370000	2.100000	1271.00	-0.15	-0.11	0.00	0.00	0.00	0.25	0.00	0.00	0.75	0.00	0.00	0.75	0.25	0.00	0.00	0.25	0.25	0.00	0.666016	3.616211	5.243164	-33.040001	71.330002	-120.050003	32.00	0.00	0.00
1.52	12.25	12.50	10.50	11.25	12.25	12.75	3.50	9.50	2.25	2.50	1.75	2.50	7.75	0.25	0.50	1.00	-0.109863	0.093262	0.976562	1.750000	15.050000	3.010000	1238.00	-0.14	-0.11	0.00	0.00	0.00	0.25	0.00	0.00	1.00	0.00	0.00	0.50	0.25	0.00	0.00	0.50	0.00	0.00	2.465820	2.537109	2.233398	29.750000	-84.840004	-34.369999	33.00	0.00	0.00
1.53	11.50	12.25	10.00	10.75	11.75	12.50	3.50	9.50	2.25	2.75	2.00	2.75	8.00	0.75	0.50	1.00	-0.108398	0.112305	0.963867	2.660000	17.360001	3.010000	1222.00	-0.13	-0.12	0.00	0.00	0.00	0.25	0.00	0.00	0.75	0.00	0.00	0.25	0.00	0.00	0.00	0.25	0.25	0.00	1.863770	1.816895	0.794434	17.920000	-141.259995	28.910000	23.00	0.00	0.00
1.54	10.25	11.25	9.75	10.50	11.50	12.25	3.50	9.50	2.25	2.75	2.00	3.50	8.50	0.75	0.25	1.00	-0.122559	0.114258	0.972168	3.080000	20.020000	1.890000	1196.00	-0.12	-0.12	0.00	0.00	0.00	0.25	0.00	0.00	0.75	0.00	0.00	0.00	0.00	0.00	0.00	0.25	0.00	0.00	1.315918	1.812500	0.987793	8.260000	-131.669998	64.120003	18.00	0.00	0.00
1.55	9.50	10.50	9.25	10.00	11.00	11.75	3.50	9.50	2.50	2.75	2.00	3.25	8.75	0.75	0.75	1.00	-0.128906	0.106934	0.970703	3.570000	21.420000	0.770000	1165.00	-0.12	-0.12	0.00	0.00	0.00	0.00	0.00	0.00	0.75	0.00	0.00	0.00	0.00	0.00	0.00	0.00	0.00	0.00	1.477539	1.788086	1.324219	28.139999	-137.479996	80.779999	12.00	0.00	0.00
1.56	8.25	9.75	9.00	9.75	10.25	11.50	3.25	9.50	2.50	3.25	2.50	3.50	9.00	1.00	0.75	1.50	-0.129883	0.115723	0.958984	3.990000	22.260000	-0.490000	1143.00	-0.10	-0.13	0.00	0.00	0.00	0.00	0.00	0.00	0.75	0.00	0.00	0.00	0.00	0.00	0.00	0.00	0.00	0.00	1.447754	1.510254	1.685059	65.730003	-179.479996	86.519997	12.00	0.00	0.00
1.57	7.50	9.00	8.50	9.25	9.75	11.25	3.25	9.50	2.50	3.25	2.50	4.00	9.50	1.25	0.75	1.50	-0.125488	0.113770	0.960938	3.850000	22.330000	-1.610000	1119.00	-0.09	-0.13	0.00	0.00	0.00	0.00	0.00	0.00	0.75	0.00	0.00	0.00	0.00	0.00	0.00	0.00	0.25	0.00	1.331055	1.175781	1.645508	90.650002	-232.050003	88.690002	15.00	0.00	0.00
1.58	7.00	8.50	8.25	8.75	9.25	10.75	3.00	9.50	2.75	3.25	2.50	4.25	9.75	1.00	0.75	1.50	-0.138672	0.107910	0.959961	3.640000	21.910000	-2.450000	1089.00	-0.09	-0.14	0.00	0.00	0.00	0.00	0.00	0.00	0.75	0.00	0.00	0.00	0.00	0.00	0.00	0.00	0.00	0.00	1.200195	0.885742	1.482422	93.379997	-274.750000	90.300003	12.00	0.00	0.00
1.59	6.00	7.75	7.75	8.50	8.75	10.75	3.00	9.50	3.00	3.25	2.75	5.00	10.00	0.75	1.00	2.00	-0.145020	0.106445	0.964355	4.130000	21.139999	-1.890000	1077.00	-0.07	-0.14	0.00	0.00	0.00	0.00	0.00	0.00	1.00	0.00	0.00	0.00	0.00	0.00	0.00	0.00	0.00	0.00	0.746582	0.747070	1.404785	83.860001	-328.510010	91.910004	16.00	0.00	0.00
1.60	5.75	7.25	7.50	8.25	8.25	10.25	2.75	9.50	2.75	3.50	3.25	5.50	10.25	0.75	1.25	2.00	-0.145508	0.104492	0.957520	4.550000	20.650000	-1.260000	1063.00	-0.06	-0.15	0.00	0.00	0.00	0.00	0.00	0.00	0.75	0.00	0.00	0.00	0.00	0.00	0.00	0.00	0.00	0.00	0.523926	0.670898	1.431152	93.590004	-346.709991	91.699997	12.00	0.00	0.00
1.61	5.50	7.00	7.00	7.75	7.75	10.00	2.75	9.50	3.00	3.75	3.75	6.25	10.50	1.00	1.00	2.25	-0.139648	0.108398	0.950684	4.340000	20.370001	-1.190000	1060.00	-0.05	-0.15	0.00	0.00	0.00	0.00	0.00	0.00	0.75	0.00	0.00	0.00	0.00	0.00	0.00	0.00	0.00	0.00	0.307617	0.562500	1.453125	109.480003	-361.130005	90.650002	12.00	0.00	0.00
1.62	5.25	6.50	6.50	7.50	7.50	9.75	2.75	9.25	3.00	3.75	3.75	6.75	11.00	1.25	1.25	2.50	-0.139648	0.119629	0.948242	3.710000	20.020000	-1.190000	1050.00	-0.04	-0.15	0.00	0.00	0.00	0.00	0.00	0.00	0.75	0.00	0.00	0.00	0.00	0.00	0.00	0.00	0.00	0.00	0.104980	0.427246	1.453613	123.410004	-370.649994	88.550003	12.00	0.00	0.00
1.63	1.00	5.25	5.00	5.50	6.00	9.00	2.25	8.75	2.50	3.50	3.75	6.50	10.50	0.75	0.00	2.75	-0.147461	0.116211	0.938965	2.940000	19.389999	-1.680000	869.00	-0.02	-0.18	0.00	0.00	0.00	0.00	0.00	0.00	0.75	0.00	0.00	0.00	0.00	0.00	0.00	0.00	0.00	0.00	-0.054688	0.329102	1.467773	134.119995	-373.239990	85.959999	12.00	0.00	0.00
1.64	3.75	5.50	6.25	6.50	6.50	8.75	2.25	8.75	1.75	3.00	3.50	7.00	10.75	0.25	0.25	2.25	-0.152832	0.118164	0.941895	1.890000	17.780001	-1.960000	917.00	-0.05	-0.17	0.00	0.00	0.00	0.00	0.00	0.00	0.75	0.00	0.00	0.00	0.00	0.00	0.00	0.00	0.00	0.00	-0.180176	0.279297	1.520508	144.339996	-370.790009	81.620003	12.00	0.00	0.00
1.65	1.75	5.00	5.25	6.25	6.25	9.25	2.50	9.50	3.50	4.50	6.50	8.25	12.00	1.50	1.50	4.00	-0.168945	0.119629	0.939941	0.210000	15.190001	-3.150000	1032.00	0.01	-0.17	0.00	0.00	0.00	0.00	0.00	0.00	0.75	0.00	0.00	0.00	0.00	0.00	0.00	0.00	0.00	0.00	-0.292480	0.214844	1.652832	157.289993	-365.260010	74.620003	12.00	0.00	0.00
1.66	3.50	5.50	5.75	6.00	6.25	9.25	2.50	9.75	4.00	5.00	7.25	8.75	12.50	1.75	1.75	5.00	-0.174316	0.110352	0.937012	-0.560000	14.070000	-3.500000	1108.00	0.01	-0.16	0.00	0.00	0.00	0.00	0.00	0.00	0.75	0.00	0.00	0.00	0.00	0.00	0.00	0.00	0.00	0.00	-0.382812	0.154297	1.774902	172.410004	-358.119995	64.330002	12.00	0.00	0.00
1.67	3.50	5.50	5.75	5.75	6.25	9.50	2.75	9.75	4.50	5.75	7.50	9.00	13.00	2.00	2.00	5.50	-0.178223	0.115723	0.932617	-1.750000	13.230000	-3.430000	1146.00	0.02	-0.15	0.00	0.00	0.00	0.00	0.00	0.00	0.75	0.00	0.00	0.00	0.00	0.00	0.00	0.00	0.00	0.00	-0.519043	0.094727	1.960449	188.580002	-350.350006	52.920002	12.00	0.00	0.00
1.68	3.25	5.50	5.50	5.75	6.00	9.50	2.75	10.00	4.50	6.50	8.00	9.50	13.50	2.25	2.25	6.25	-0.176758	0.104492	0.932129	-3.080000	11.760000	-2.660000	1176.00	0.03	-0.16	0.00	0.00	0.00	0.00	0.00	0.00	0.75	0.00	0.00	0.00	0.00	0.00	0.00	0.00	0.00	0.00	-0.769531	0.082520	2.076172	198.100006	-342.160004	46.830002	12.00	0.00	0.00
1.69	3.25	5.50	5.50	5.75	6.00	9.25	2.75	10.00	5.00	7.25	8.25	10.00	14.00	2.50	2.75	6.75	-0.181641	0.113281	0.944824	-2.940000	10.360000	-1.610000	1213.00	0.04	-0.15	0.00	0.00	0.00	0.00	0.00	0.00	0.75	0.00	0.00	0.00	0.00	0.00	0.00	0.00	0.00	0.00	-1.132324	0.122559	2.052734	190.960007	-330.679993	52.009998	12.00	0.00	0.00
1.70	3.25	5.50	5.25	5.25	6.25	9.50	3.00	10.25	5.25	7.75	8.75	10.50	14.75	3.00	3.00	7.00	-0.175293	0.102051	0.933594	-2.240000	9.940000	-0.560000	1255.00	0.04	-0.15	0.00	0.00	0.00	0.00	0.00	0.00	0.75	0.00	0.00	0.00	0.00	0.00	0.00	0.00	0.00	0.00	-1.479004	0.307129	2.166504	173.809998	-311.709991	66.709999	12.00	0.00	0.00
1.71	3.25	5.25	5.25	5.25	6.25	9.75	3.25	10.50	5.75	8.00	9.25	11.00	15.25	3.25	3.50	7.75	-0.158203	0.117188	0.950684	-1.820000	10.290000	0.700000	1302.00	0.05	-0.15	0.00	0.00	0.00	0.00	0.00	0.00	0.75	0.00	0.00	0.00	0.00	0.00	0.00	0.00	0.00	0.00	-2.316895	0.865723	2.601074	165.339996	-288.470001	115.919998	12.00	0.00	0.00
1.72	2.75	5.50	5.25	5.00	6.25	9.75	3.25	10.75	6.25	8.75	9.75	11.50	16.00	3.75	3.75	8.25	-0.151855	0.121582	0.959473	-1.260000	13.860000	-0.140000	1345.00	0.06	-0.15	0.00	0.00	0.00	0.00	0.00	0.00	0.75	0.00	0.00	0.00	0.00	0.00	0.00	0.00	0.00	0.00	-2.836426	0.821777	2.349609	172.410004	-283.010010	153.930008	12.00	0.00	0.00
1.73	3.00	5.25	5.25	5.00	6.25	9.75	3.50	11.00	7.00	9.25	10.25	12.00	16.50	4.50	5.00	9.00	-0.158203	0.125000	0.955078	-1.120000	15.470000	-1.050000	1412.00	0.07	-0.14	0.00	0.00	0.00	0.25	0.00	0.00	0.75	0.00	0.00	0.00	0.00	0.00	0.00	0.00	0.00	0.00	-3.450684	0.515137	1.922852	177.380005	-264.040009	200.759995	15.00	0.00	0.00
1.74	3.25	5.50	5.25	5.00	6.00	9.50	3.25	11.00	7.50	9.75	10.75	12.75	17.00	5.50	5.50	9.75	-0.150391	0.128906	0.968262	-0.560000	18.620001	-2.660000	1459.00	0.08	-0.14	0.00	0.00	0.00	0.00	0.00	0.00	0.75	0.00	0.00	0.00	0.00	0.00	0.00	0.00	0.00	0.00	-3.923828	-0.091309	1.327637	176.889999	-225.470001	252.630005	12.00	0.00	0.00
1.75	3.00	5.25	5.00	4.75	5.75	9.50	3.25	11.00	8.00	10.25	11.50	13.25	17.75	6.75	6.25	10.75	-0.154785	0.121094	0.999023	1.540000	23.030001	-4.620000	1505.00	0.09	-0.14	0.00	0.00	0.00	0.25	0.00	0.00	0.75	0.00	0.00	0.00	0.00	0.00	0.00	0.00	0.00	0.00	-4.973633	-2.291016	0.720215	92.820000	-138.039993	318.570007	15.00	0.00	0.00
1.76	2.75	5.25	5.00	4.50	5.25	9.25	3.25	11.00	8.25	10.75	12.00	14.00	17.75	7.75	6.75	11.75	-0.179688	0.136719	1.007324	4.690000	27.650000	-6.020000	1534.00	0.10	-0.14	0.00	0.00	0.00	0.25	0.00	0.00	0.50	0.00	0.00	0.00	0.00	0.00	0.00	0.00	0.00	0.00	-5.994141	-2.521484	0.328125	3.850000	-62.790001	345.519989	11.00	0.00	0.00
1.77	1.50	4.25	3.75	2.25	3.50	8.25	2.75	10.25	8.00	10.50	11.50	13.75	17.50	8.25	6.50	11.50	-0.202637	0.135742	1.010254	7.630000	33.599998	-6.720000	1397.00	0.12	-0.14	0.00	0.50	0.00	0.50	0.00	0.00	0.50	0.00	0.00	0.00	0.00	0.00	0.00	0.00	0.00	0.00	-5.900391	-2.475586	0.638672	-43.959999	-19.110001	315.910004	19.00	0.00	0.00
1.78	1.25	3.75	3.25	2.25	2.75	7.75	2.50	10.00	8.00	10.75	12.00	13.75	17.75	9.25	7.00	12.50	-0.158691	0.126465	1.058105	12.460000	42.910000	-7.560000	1392.00	0.14	-0.14	0.25	0.25	0.50	1.00	0.00	0.00	0.50	0.00	0.00	0.00	0.00	0.00	0.00	0.00	0.00	0.00	-6.034668	-3.158203	-0.085449	-66.290001	18.200001	227.360001	32.00	0.00	0.00
1.79	1.00	3.00	2.75	1.25	2.00	6.25	2.00	9.50	8.25	11.00	12.25	14.00	18.00	10.25	8.25	13.75	-0.204102	0.130859	1.068359	16.100000	55.299999	-7.350000	1366.00	0.16	-0.14	1.25	1.00	1.00	1.75	0.00	0.00	0.50	0.00	0.00	0.00	0.00	0.00	0.00	0.00	0.00	0.00	-6.916504	-3.168945	-0.852051	-123.550003	76.300003	122.430000	66.00	-0.28	-0.03
1.80	0.75	3.50	2.25	1.00	1.00	5.50	1.50	8.75	8.50	11.50	12.50	14.25	17.75	11.25	8.00	14.25	-0.189941	0.129883	1.207031	32.619999	92.540001	-10.080000	1339.00	0.17	-0.14	3.75	4.00	2.75	3.50	0.00	0.00	0.50	0.00	0.00	0.00	0.00	0.00	0.00	0.00	0.00	0.00	-5.830566	-2.609863	-0.919434	-215.949997	180.460007	50.330002	166.00	-0.33	-0.04
1.81	0.75	3.75	2.50	1.50	1.00	4.50	1.25	8.00	8.50	11.25	13.00	14.75	17.50	12.50	8.75	14.75	-0.292969	0.112305	1.222656	60.200001	115.430000	-12.530000	1352.00	0.18	-0.14	11.25	11.00	7.25	8.25	0.25	0.75	0.75	0.00	0.00	0.00	0.00	0.00	0.00	0.00	0.00	0.00	-0.933105	-2.112305	4.837891	-202.509995	372.329987	-18.620001	450.00	-0.33	-0.04
1.82	0.50	2.50	1.75	0.25	0.50	3.00	1.00	7.25	8.50	11.25	12.75	14.50	17.25	13.75	9.00	15.50	-0.294922	0.274902	1.255859	80.709999	171.570007	-14.350000	1282.00	0.20	-0.13	19.00	17.25	9.75	11.50	1.50	3.00	0.75	0.50	0.00	0.00	0.00	0.00	0.00	0.00	0.00	0.00	0.007324	-0.605469	4.339844	-121.660004	305.480011	-21.210001	720.00	-0.33	-0.05
1.83	2.00	4.75	2.50	1.25	0.50	2.25	0.75	5.50	8.50	11.00	12.75	14.50	17.00	14.25	9.75	15.75	-0.204590	0.231445	1.451660	97.370003	237.860001	-18.410000	1310.00	0.19	-0.12	19.00	16.75	10.50	11.75	2.25	4.00	1.00	0.75	0.00	0.00	0.00	0.00	0.00	0.00	0.00	0.00	-0.478516	0.552734	1.565918	-62.860001	163.309998	-32.689999	756.00	-0.32	-0.05
1.84	1.00	3.00	2.25	0.50	0.75	2.00	0.75	4.50	8.25	10.50	12.50	14.00	15.50	15.25	9.75	16.00	-0.288574	0.220215	1.511230	94.639999	299.880005	-19.600000	1232.00	0.21	-0.11	17.00	15.50	10.00	11.50	2.25	4.75	1.00	1.00	0.00	0.00	0.25	0.00	0.25	0.00	0.00	0.00	-0.410645	0.390137	2.140625	-65.590004	136.570007	-1.190000	730.00	-0.31	-0.06
1.85	1.50	3.25	2.75	1.00	0.75	2.75	0.75	3.75	8.25	10.75	13.25	14.50	15.25	16.75	11.00	15.75	-0.367188	0.428711	1.502930	88.550003	347.829987	-29.049999	1290.00	0.20	-0.11	15.00	14.00	9.75	11.25	2.50	5.00	1.00	1.25	0.00	0.00	0.25	0.25	0.75	0.00	0.00	0.00	-0.043457	0.008789	0.865723	-57.049999	87.989998	4.620000	704.00	-0.29	-0.07
1.86	0.50	0.75	2.50	0.25	0.25	0.75	0.50	2.50	6.50	9.50	12.25	12.75	13.25	16.50	10.25	15.00	-0.209473	0.471191	1.692871	83.090004	380.380005	-47.459999	1082.00	0.24	-0.10	13.75	14.25	10.25	11.50	3.00	6.25	1.25	2.25	0.00	0.25	0.25	0.00	1.00	0.00	0.00	0.00	-0.179688	0.199707	0.881348	-80.430000	77.139999	-8.050000	746.00	-0.28	-0.08
1.87	0.00	1.75	1.00	0.00	0.25	0.00	0.50	1.25	5.25	9.00	12.25	12.00	11.50	16.75	10.00	13.75	-0.488770	0.673828	1.656250	74.059998	413.420013	-66.150002	978.00	0.26	-0.10	14.25	14.50	11.00	12.25	4.50	7.50	1.25	3.25	0.00	0.50	0.50	0.25	1.75	0.00	0.25	0.00	-0.588867	0.429199	1.266113	-85.400002	43.330002	-4.410000	840.00	-0.26	-0.09
1.88	0.00	0.75	0.75	0.00	0.00	0.75	0.50	2.00	3.50	8.25	11.25	11.00	10.50	16.25	9.25	12.25	-0.503906	0.673340	1.948242	60.760002	465.360016	-88.620003	895.00	0.26	-0.11	15.50	15.50	11.75	13.00	5.50	8.00	1.25	4.00	0.00	0.50	0.25	0.50	2.25	0.25	0.00	0.00	-0.297363	0.224609	1.078125	-86.590004	19.600000	1.120000	917.00	-0.25	-0.09
1.89	1.00	3.00	2.50	0.75	0.25	0.00	0.50	0.00	0.25	7.50	11.50	11.00	9.00	17.75	9.50	9.25	-0.633789	0.996582	2.211914	44.170002	512.820007	-115.989998	853.00	0.23	-0.10	16.50	16.00	12.50	13.75	6.50	8.75	1.50	5.00	0.25	0.75	0.50	0.25	2.25	0.50	0.25	0.00	-0.074707	0.120117	1.043457	-76.019997	7.770000	-2.800000	1005.00	-0.24	-0.09
1.90	1.50	2.75	1.25	0.00	0.25	0.75	0.75	0.75	2.25	7.50	10.75	10.00	7.75	15.25	8.00	7.25	-1.096191	1.066406	1.905273	32.619999	577.500000	-144.339996	802.00	0.23	-0.09	17.00	16.50	13.00	13.75	7.00	8.75	1.50	5.25	0.25	1.00	0.50	0.25	2.75	0.50	0.25	0.00	-0.007324	0.233398	1.081055	-54.950001	2.170000	-5.250000	1039.00	-0.24	-0.09
1.91	1.25	2.75	2.50	0.25	0.25	0.75	0.75	0.50	1.25	6.50	9.25	8.75	4.75	10.50	4.50	3.50	-1.395020	0.886230	3.803711	43.259998	611.590027	-155.539993	621.00	0.19	-0.08	17.25	16.25	12.75	13.50	7.25	9.00	1.50	5.50	0.25	1.00	0.75	0.75	3.00	0.50	0.50	0.00	-0.117676	0.153320	1.000488	-40.810001	4.760000	-5.600000	1057.00	-0.23	-0.09
1.92	0.00	1.75	0.75	0.00	0.00	0.00	0.50	0.00	1.25	5.50	8.00	7.75	3.75	9.50	3.50	2.75	-1.197754	1.066406	3.057129	70.910004	611.450012	-162.050003	477.00	0.24	-0.08	15.75	15.00	12.50	12.75	7.50	8.75	1.50	5.50	0.25	1.25	0.75	0.25	3.00	0.75	0.75	0.25	-0.098633	0.163086	0.971680	-32.759998	7.210000	-5.530000	1020.00	-0.22	-0.09
1.93	1.50	3.00	2.25	0.00	0.25	0.00	0.75	0.00	0.00	2.25	4.75	5.25	3.00	7.00	0.50	0.75	-1.453125	0.062012	4.533691	125.790001	581.419983	-158.550003	334.00	0.12	-0.07	17.25	17.00	12.75	14.50	7.75	8.75	1.50	6.25	0.25	2.00	1.50	0.25	5.25	2.00	1.75	0.75	-0.121094	0.186035	0.966309	-31.360001	11.060000	-5.880000	1161.00	-0.20	-0.10
1.94	0.00	0.75	1.25	0.00	0.00	0.00	0.75	0.00	1.00	2.75	4.25	4.25	1.25	2.75	0.50	1.00	0.037109	0.014160	2.073242	77.070000	482.860016	-181.580002	227.00	0.19	-0.06	18.25	16.50	14.00	10.75	7.75	8.50	1.75	6.25	0.50	1.50	1.00	0.75	4.00	0.75	1.75	0.75	-0.141602	0.152832	0.988281	-31.780001	13.510000	-4.760000	1113.00	-0.21	-0.09
1.95	0.00	1.75	2.50	0.25	0.50	0.25	0.75	1.00	0.50	2.75	2.75	3.00	0.50	1.25	0.50	1.00	1.409180	1.183105	3.310059	28.210001	418.110016	-186.339996	222.00	0.08	-0.08	11.75	11.00	11.00	11.00	8.75	10.00	2.00	6.25	0.50	2.75	1.25	1.50	3.75	1.25	1.50	0.75	-0.133789	0.147949	0.964844	-30.030001	15.190001	-0.840000	1009.00	-0.17	-0.10
1.96	1.25	2.75	2.75	0.50	0.50	0.00	1.00	0.25	1.00	2.75	2.75	2.50	1.00	0.25	0.50	0.75	2.113281	-0.462891	5.785645	33.599998	257.320007	-237.089996	236.00	0.01	-0.05	13.00	10.75	12.00	12.75	9.25	9.00	2.25	7.00	2.00	2.75	2.00	2.00	5.75	2.00	2.00	1.00	-0.134277	0.104980	0.974121	-26.740000	14.280000	1.960000	1134.00	-0.14	-0.09
1.97	1.00	2.75	2.25	0.00	0.00	0.00	0.75	0.00	0.75	2.00	1.75	1.75	0.00	0.25	0.00	0.25	2.104004	2.117676	4.898926	31.780001	-7.140000	-199.570007	156.00	-0.03	-0.01	9.50	12.00	12.00	11.25	8.25	9.25	2.25	7.00	2.25	2.25	1.75	2.00	5.75	2.25	2.25	1.50	-0.106445	0.136719	0.967285	-21.700001	14.140000	2.730000	1083.00	-0.13	-0.10
1.98	0.00	1.50	1.50	0.00	0.25	0.00	0.75	0.00	0.00	2.00	1.00	1.00	0.00	0.00	0.00	0.00	2.453613	1.095215	1.791504	50.470001	-137.130005	-138.180008	95.00	-0.00	-0.01	12.50	10.75	11.50	11.50	9.00	9.25	2.75	7.25	2.50	2.75	2.75	2.50	6.25	2.50	2.25	1.25	-0.121094	0.134277	0.964355	-18.900000	15.470000	1.400000	1155.00	-0.13	-0.09
1.99	0.00	1.50	1.75	0.00	0.25	0.00	0.75	0.00	0.50	1.75	1.00	0.50	0.00	0.00	0.00	0.00	1.761230	1.654297	1.447754	22.120001	-153.649994	-97.650002	96.00	-0.01	0.03	10.50	9.50	10.75	10.75	8.75	8.75	2.75	7.00	2.50	3.25	2.50	2.50	6.25	2.25	2.75	1.50	-0.147461	0.114258	0.974609	-16.520000	16.100000	-0.280000	1096.00	-0.11	-0.10
2.00	0.00	1.50	1.75	0.00	0.00	0.00	0.75	0.00	0.25	1.25	0.75	0.25	0.00	0.00	0.00	0.00	1.750488	1.625488	1.645020	41.369999	-159.039993	-67.480003	78.00	-0.05	0.03	6.25	6.25	10.00	7.75	7.75	8.25	2.75	7.00	2.75	3.25	3.00	2.75	6.50	2.75	2.75	2.00	-0.141113	0.128418	0.983398	-13.720000	16.170000	-2.310000	974.00	-0.07	-0.10
2.01	0.00	1.50	1.25	0.00	0.00	0.00	0.75	0.00	0.00	0.50	0.00	0.00	0.00	0.00	0.00	0.00	1.803223	1.330078	1.902832	78.400002	-199.570007	-49.279999	48.00	0.00	0.00	7.25	6.25	7.50	8.75	8.50	8.25	2.50	6.75	2.50	3.25	2.75	3.00	7.00	3.00	2.75	2.00	-0.148926	0.129883	0.953613	-12.460000	15.680000	-3.710000	971.00	-0.07	-0.11
2.02	0.00	0.00	0.75	0.00	0.00	0.00	0.75	0.00	0.00	1.00	0.00	0.00	0.00	0.00	0.00	0.00	1.675781	0.918945	2.101074	98.349998	-257.600006	-30.450001	33.00	0.00	0.00	5.25	5.00	6.75	7.00	6.75	6.50	2.75	7.00	3.00	4.00	3.50	3.25	7.00	2.75	3.00	2.25	-0.157227	0.104004	0.964844	-10.220000	14.770000	-3.920000	901.00	-0.03	-0.11
2.03	1.50	3.00	3.00	1.00	0.50	0.25	1.00	0.50	1.25	1.25	0.75	0.50	0.75	0.00	0.00	0.25	1.568848	0.747559	2.003418	87.639999	-311.290009	-6.090000	185.00	-0.11	-0.02	6.50	6.25	8.50	8.25	7.00	6.75	2.75	6.25	1.75	3.25	2.50	2.50	6.25	2.00	1.75	1.75	-0.159180	0.108887	0.950684	-7.490000	14.560000	-2.870000	880.00	-0.09	-0.11
2.04	1.00	3.00	2.75	1.00	0.50	0.25	1.00	0.25	1.25	1.25	0.50	0.25	1.00	0.00	0.00	0.00	1.348145	0.715820	1.895508	66.709999	-356.299988	19.600000	167.00	-0.11	-0.01	5.00	4.00	6.25	8.00	7.75	6.75	2.75	6.00	1.75	3.50	3.00	2.75	7.00	3.50	3.50	2.50	-0.144043	0.097656	0.950684	-5.110000	14.770000	-1.120000	872.00	-0.04	-0.11
2.05	1.00	3.00	3.00	0.75	0.50	0.50	1.00	0.25	1.25	1.50	0.75	0.25	0.50	0.00	0.00	0.25	1.054688	0.707031	1.796875	56.279999	-392.070007	42.560001	172.00	-0.10	0.00	4.50	5.25	7.50	7.75	7.50	7.75	3.00	7.25	4.25	6.25	5.75	4.50	7.50	3.25	2.75	1.75	-0.154785	0.108398	0.964844	-2.800000	15.050000	-0.070000	1033.00	-0.02	-0.10
2.06	1.00	3.75	2.75	1.25	0.50	0.25	1.00	0.25	1.00	1.25	0.50	0.25	0.25	0.00	0.25	0.00	0.779785	0.611328	1.714844	60.270000	-419.160004	60.549999	170.00	-0.14	-0.01	3.25	3.25	5.75	6.00	6.25	6.50	2.75	6.50	2.50	5.25	5.00	3.75	7.25	3.00	2.75	2.00	-0.124512	0.104980	0.950684	-1.120000	14.910000	0.140000	853.00	-0.00	-0.11
2.07	1.00	3.25	3.00	0.50	0.75	0.75	1.00	0.00	1.25	1.00	0.50	0.50	0.50	0.00	0.00	0.00	0.505859	0.425293	1.690430	69.720001	-437.570007	73.779999	167.00	-0.12	0.01	2.75	2.50	5.25	5.75	6.00	6.00	2.75	6.50	3.00	5.75	5.50	4.25	8.00	3.25	3.25	2.50	-0.148926	0.128418	0.941895	-0.350000	14.560000	-0.070000	864.00	0.02	-0.12
2.08	1.00	3.00	2.75	1.00	0.50	0.25	1.00	0.25	0.50	1.00	0.00	0.25	0.50	0.00	0.00	0.00	0.282227	0.272461	1.704102	77.489998	-448.980011	82.250000	143.00	-0.16	-0.01	3.75	3.00	5.00	6.00	6.00	6.00	2.75	6.75	3.50	6.75	6.50	5.00	8.75	3.50	4.00	2.75	-0.146973	0.125000	0.956543	-0.280000	14.280000	-0.630000	943.00	0.03	-0.11
2.09	1.00	3.00	3.00	1.25	0.75	0.25	1.00	0.25	0.75	1.25	0.50	0.00	0.50	0.00	0.00	0.00	0.055664	0.128906	1.738770	82.110001	-454.440002	87.220001	161.00	-0.14	-0.00	2.00	2.00	3.00	5.00	5.75	6.75	3.00	7.50	5.00	8.00	8.25	7.75	10.25	5.75	4.25	4.00	-0.160645	0.121582	0.947754	-0.070000	13.720000	-1.400000	1032.00	0.08	-0.12
2.10	1.25	3.00	3.00	0.75	0.75	0.00	1.00	0.25	1.25	1.25	0.00	0.00	0.50	0.00	0.25	0.00	-0.291504	-0.058594	1.923340	84.209999	-452.059998	87.779999	159.00	-0.13	0.03	3.50	3.00	4.00	4.75	5.50	6.00	3.00	7.00	4.50	7.75	8.00	8.50	10.75	6.50	7.00	5.25	-0.168945	0.117188	0.965332	-0.140000	13.860000	-2.100000	1094.00	0.08	-0.12
2.11	1.00	3.00	3.25	1.25	0.75	0.50	1.00	0.50	1.25	1.00	0.00	0.25	0.25	0.00	0.00	0.00	-0.409180	-0.106934	2.047363	82.529999	-448.420013	84.279999	170.00	-0.14	-0.00	1.25	1.75	3.00	5.00	5.50	5.75	2.75	7.00	5.00	8.25	8.25	8.00	10.25	6.00	6.25	4.25	-0.180664	0.120605	0.944824	0.840000	13.650000	-2.380000	1026.00	0.10	-0.12
2.12	1.00	2.75	2.75	1.25	0.50	0.75	1.00	0.50	1.00	1.00	0.00	0.00	0.25	0.00	0.00	0.00	-0.555664	-0.109375	2.212891	82.529999	-443.029999	79.379997	155.00	-0.15	-0.01	0.25	0.50	2.00	4.75	5.50	5.50	3.00	7.25	5.75	8.50	9.00	8.75	11.00	7.00	6.75	5.00	-0.156250	0.127441	0.957031	0.980000	15.050000	-1.820000	1049.00	0.13	-0.12
2.13	1.50	3.00	3.00	1.00	0.75	0.00	1.00	0.50	1.00	1.00	0.25	0.25	0.25	0.00	0.00	0.00	-0.787109	0.083496	2.438965	74.550003	-434.980011	77.840004	163.00	-0.15	0.01	1.25	1.25	2.50	4.00	4.75	5.50	3.00	7.50	6.50	9.00	9.25	9.00	11.50	7.75	7.25	5.25	-0.159180	0.119629	0.972656	0.630000	17.430000	-1.960000	1102.00	0.13	-0.11
2.14	1.00	3.25	3.00	1.00	0.50	0.25	1.00	0.50	0.75	0.75	0.00	0.25	1.00	0.00	0.00	0.25	-1.091797	0.390137	2.557617	49.770000	-427.769989	90.440002	159.00	-0.15	-0.03	1.00	1.00	2.25	3.50	4.25	5.25	3.00	7.50	7.00	9.50	10.00	9.75	11.75	8.75	7.75	6.00	-0.173828	0.123535	0.968750	0.700000	20.090000	-2.310000	1130.00	0.14	-0.11
2.15	1.00	3.50	2.75	0.75	0.50	0.50	1.00	0.25	1.00	0.75	0.00	0.25	0.50	0.00	0.00	0.00	-1.437988	0.874023	2.572754	13.020000	-416.640015	119.070000	152.00	-0.16	-0.01	1.00	1.00	2.00	3.00	3.75	4.50	3.00	7.25	7.50	10.25	10.50	10.25	12.25	10.00	8.25	7.00	-0.163086	0.127441	0.975098	0.980000	23.450001	-3.080000	1157.00	0.16	-0.11
2.16	1.25	3.00	3.00	1.00	1.00	1.25	1.00	1.00	0.75	1.00	0.00	0.00	0.25	0.00	0.00	0.00	-1.744141	1.475586	2.659180	-16.450001	-401.869995	158.130005	177.00	-0.16	-0.03	0.25	0.50	1.75	2.50	3.25	3.50	3.00	7.25	8.00	10.50	11.00	10.75	12.75	11.50	8.75	7.50	-0.134277	0.148438	1.024902	2.100000	28.630001	-5.250000	1165.00	0.18	-0.10
2.17	1.50	2.75	2.75	0.75	0.50	0.50	1.00	0.50	1.00	1.00	0.25	0.25	0.00	0.00	0.00	0.00	-2.121094	2.078613	2.985840	-7.280000	-393.190002	200.410004	155.00	-0.15	0.01	0.25	0.50	1.25	2.25	2.75	3.00	2.75	6.75	8.25	11.00	11.50	11.25	13.00	12.75	9.25	8.00	-0.166016	0.161133	0.997559	2.240000	34.090000	-7.420000	1175.00	0.19	-0.10
2.18	1.00	2.00	3.00	0.75	0.50	0.75	1.00	0.25	1.00	1.00	0.00	0.00	0.50	0.25	0.00	0.00	-2.830566	2.175293	3.178223	38.220001	-403.690002	242.830002	145.00	-0.12	0.02	0.50	0.50	0.75	2.25	2.00	2.00	2.50	6.50	8.75	11.25	11.75	11.50	13.25	14.25	9.75	8.50	-0.198242	0.107422	1.000000	3.710000	40.670002	-10.290000	1184.00	0.20	-0.10
2.19	1.50	2.75	3.25	1.25	0.50	1.50	0.75	0.75	1.00	0.50	0.00	0.25	0.25	0.00	0.00	0.00	-3.713379	1.423828	3.097656	103.250000	-421.679993	272.790009	173.00	-0.17	-0.04	0.00	0.25	0.75	1.75	1.50	1.75	2.00	6.00	8.75	11.50	12.25	12.00	13.50	15.75	10.25	8.75	-0.210449	0.181641	1.021484	6.160000	61.180000	-15.400000	1182.00	0.22	-0.10
2.20	0.75	2.75	3.00	0.75	0.75	0.75	1.00	0.25	1.00	0.75	0.25	0.25	0.00	0.00	0.00	0.00	-4.713867	0.862793	2.605957	142.589996	-426.720001	274.329987	149.00	-0.14	0.01	0.00	0.25	0.50	1.50	0.75	1.00	2.00	5.25	9.25	12.00	12.50	12.25	13.25	17.25	11.00	9.00	-0.213379	0.161621	1.091797	8.400000	77.980003	-17.219999	1186.00	0.23	-0.09
2.21	0.75	2.75	2.75	1.25	0.75	0.00	1.00	0.25	0.50	0.75	0.00	0.25	0.25	0.00	0.00	0.25	-5.667969	0.091797	1.522949	157.779999	-405.860016	265.160004	137.00	-0.17	-0.01	0.00	0.25	0.00	1.50	0.75	0.75	1.50	4.50	9.25	12.00	12.75	12.50	13.25	18.50	11.50	9.25	-0.213867	0.158203	1.197266	16.240000	104.230003	-20.440001	1180.00	0.24	-0.08
2.22	1.75	2.00	3.00	1.50	0.50	0.00	0.75	0.50	0.75	0.50	0.00	0.25	0.50	0.00	0.00	0.00	-6.474121	-0.606934	0.478027	154.000000	-351.750000	260.329987	145.00	-0.18	-0.01	0.00	0.00	0.25	1.25	0.50	0.75	1.25	3.50	9.25	12.25	12.75	12.50	13.00	20.00	12.00	9.50	-0.262207	0.206055	1.183105	24.850000	132.160004	-24.850000	1176.00	0.25	-0.08
2.23	1.00	3.00	2.50	1.00	0.50	0.00	1.00	0.50	1.00	1.00	0.00	0.25	0.75	0.00	0.00	0.00	-6.736328	-1.217773	-0.116699	111.160004	-274.260010	248.009995	150.00	-0.13	-0.01	0.00	0.00	0.00	1.25	0.50	0.25	1.00	2.25	9.25	12.00	12.75	12.25	12.50	21.00	12.50	9.75	-0.234375	0.194336	1.313477	23.940001	165.130005	-27.719999	1148.00	0.26	-0.07
2.24	1.00	2.25	3.25	1.25	0.50	0.00	1.00	0.25	1.25	0.75	0.00	0.00	0.75	0.25	0.00	0.00	-6.586426	-1.123047	-0.462891	33.880001	-189.839996	197.399994	151.00	-0.13	0.02	0.00	0.00	0.00	1.25	0.25	0.25	0.75	1.50	9.25	12.00	12.75	12.25	12.00	21.75	12.75	9.50	-0.297363	0.165039	1.236816	28.490000	199.639999	-31.360001	1132.00	0.27	-0.06
2.25	1.75	1.75	2.00	0.00	0.50	0.00	1.00	0.00	0.50	0.00	0.00	0.25	0.50	0.00	0.00	0.00	-12.328125	-1.302246	-1.031738	15.120000	-95.620003	29.260000	99.00	-0.18	0.05	0.00	0.00	0.00	1.25	0.25	0.25	0.50	1.50	9.25	11.50	12.50	12.00	11.25	22.75	13.00	9.50	-0.387695	0.208984	1.199219	26.950001	232.259995	-35.840000	1121.00	0.27	-0.06
2.26	2.00	4.00	2.25	0.50	0.25	0.00	0.75	0.00	0.25	0.00	0.00	0.50	0.00	0.00	0.00	0.25	-3.444336	-2.626953	-3.151855	-67.830002	130.550003	36.259998	123.00	-0.26	-0.01	0.00	0.00	0.00	0.50	0.00	0.00	0.50	1.25	9.00	11.25	12.50	11.50	10.50	23.25	13.00	9.25	-0.407715	0.207031	1.445312	11.410000	259.420013	-41.020000	1086.00	0.28	-0.05
2.27	12.25	13.25	6.75	5.75	0.25	0.00	0.50	0.00	0.25	0.00	0.00	0.00	0.00	0.00	0.00	0.00	0.880859	1.153809	2.702148	-68.110001	371.070007	16.450001	438.00	-0.35	-0.03	0.00	0.00	0.00	0.75	0.00	0.00	0.25	0.75	8.75	11.00	12.00	11.00	9.50	23.50	12.75	9.00	-0.414062	0.332520	1.438965	-4.760000	282.589996	-47.459999	1047.00	0.29	-0.05
2.28	25.25	21.75	10.75	10.75	1.75	2.25	0.50	1.00	0.00	0.00	0.25	1.00	1.50	0.00	0.00	0.25	1.639160	-1.840332	1.417969	41.580002	413.420013	-4.690000	867.00	-0.32	-0.05	0.00	0.00	0.00	0.50	0.00	0.00	0.25	0.25	8.25	10.25	11.50	10.50	8.50	23.75	12.25	8.00	-0.437988	0.232910	1.384277	-15.610000	313.809998	-56.700001	990.00	0.29	-0.04
2.29	27.50	23.00	14.00	13.00	5.50	6.00	0.75	1.00	0.50	0.50	0.75	1.00	1.75	0.00	0.00	0.25	-2.241211	-1.080078	3.161133	58.240002	526.750000	-120.470001	1087.00	-0.29	-0.05	0.00	0.00	0.00	0.25	0.00	0.00	0.25	0.50	7.75	10.00	11.25	9.75	7.00	23.50	11.75	7.00	-0.548340	0.294434	1.474609	-39.410000	352.869995	-65.590004	942.00	0.30	-0.03
2.30	27.75	23.50	15.75	15.00	8.50	10.50	1.00	3.25	1.00	0.50	0.50	1.50	2.50	0.00	0.00	0.50	-1.562012	2.603516	7.630371	25.059999	516.320007	-163.449997	1290.00	-0.27	-0.07	0.00	0.00	0.00	0.00	0.00	0.00	0.25	0.50	7.00	9.25	10.50	8.75	5.50	23.00	10.75	5.50	-0.613281	0.632812	1.510742	-60.900002	392.769989	-81.620003	860.00	0.30	-0.02
2.31	26.25	22.75	16.00	15.75	10.00	13.25	1.25	7.50	1.00	0.50	0.75	1.25	4.25	0.00	0.00	0.25	-0.982422	1.586426	2.815918	-5.390000	316.190002	-68.809998	1418.00	-0.24	-0.09	0.00	0.00	0.00	0.00	0.00	0.00	0.00	0.50	6.00	8.50	10.00	8.25	2.75	22.00	9.75	3.25	-0.983398	0.695312	2.234375	-72.099998	465.570007	-128.449997	762.00	0.30	-0.01
2.32	23.75	21.50	15.50	15.25	10.50	14.25	1.25	8.50	1.25	0.50	0.75	1.50	4.50	0.00	0.00	0.50	-0.755371	0.301758	3.008301	-103.529999	191.449997	-3.500000	1410.00	-0.23	-0.10	0.00	0.00	0.00	0.00	0.00	0.00	0.25	0.00	4.50	7.75	8.75	6.75	3.00	19.75	8.25	0.75	-1.197754	0.531250	2.941895	-78.120003	505.610016	-149.940002	645.00	0.31	0.00
2.33	21.75	20.00	14.75	15.00	10.75	14.50	1.50	9.25	1.00	1.00	0.50	1.50	6.00	0.00	0.00	0.25	-0.145508	-0.194824	1.260254	-70.559998	102.199997	0.910000	1394.00	-0.22	-0.11	0.00	0.00	0.00	0.00	0.00	0.00	0.25	0.00	2.75	6.25	7.50	5.00	2.00	16.25	6.50	0.00	-1.254395	0.814453	3.703613	-66.500000	520.380005	-162.610001	502.00	0.31	0.00
2.34	20.25	19.50	14.25	14.75	11.00	15.25	1.50	10.00	1.00	1.00	0.75	1.25	6.75	0.00	0.00	0.50	-0.078613	0.453125	0.768066	-62.510002	85.050003	-4.620000	1396.00	-0.21	-0.12	0.00	0.00	0.00	0.00	0.00	0.00	0.25	0.00	0.75	4.25	5.25	3.00	0.00	12.50	4.75	0.00	-1.605469	0.501953	3.843262	-27.299999	516.179993	-184.869995	328.00	0.32	0.02
2.35	19.75	19.00	14.50	14.50	11.75	15.75	1.50	10.25	1.25	1.00	0.75	1.25	7.75	0.00	0.00	0.50	-0.440430	0.580566	1.083984	-94.570000	64.050003	-1.610000	1418.00	-0.20	-0.12	0.00	0.00	0.00	0.00	0.00	0.00	0.25	0.00	0.25	2.75	3.25	1.50	0.75	8.75	2.50	0.00	-1.178223	0.836426	4.841797	5.180000	475.929993	-190.190002	210.00	0.32	0.02
2.36	20.25	19.00	14.75	14.50	12.50	16.00	1.75	10.75	1.25	1.25	0.75	1.50	8.00	0.00	0.25	0.50	-0.065430	0.067383	1.104492	-96.949997	38.360001	-0.700000	1462.00	-0.20	-0.12	0.00	0.00	0.00	0.00	0.00	0.00	0.25	0.00	0.25	2.25	1.75	0.75	0.00	5.00	1.25	0.00	-0.798828	1.201172	4.025391	3.290000	437.570007	-208.460007	123.00	0.32	0.05
2.37	19.75	18.75	14.50	14.25	13.00	15.75	1.75	10.75	1.00	1.50	1.00	1.50	8.25	0.25	0.25	0.75	-0.068848	0.180664	1.035156	-77.699997	26.320000	-5.320000	1459.00	-0.19	-0.12	0.00	0.00	0.00	0.00	0.00	0.00	0.50	0.00	0.00	1.00	0.50	0.25	0.00	1.00	0.50	0.00	0.887695	1.376953	2.872559	-37.869999	437.640015	-239.960007	43.00	0.00	0.00
2.38	19.25	18.00	14.25	14.00	13.25	15.75	1.75	10.75	1.25	1.50	0.75	1.75	8.00	0.25	0.25	1.00	-0.148438	0.239258	1.067383	-62.860001	27.020000	-2.870000	1445.00	-0.19	-0.12	0.00	0.00	0.00	0.00	0.00	0.00	0.75	0.00	0.00	0.75	0.75	0.25	0.00	0.25	0.50	0.00	2.824707	1.433594	2.387207	-47.110001	370.510010	-255.500000	40.00	0.00	0.00
2.39	18.50	17.75	14.00	13.75	13.25	15.25	2.00	10.75	1.25	1.50	0.75	1.75	8.25	0.00	0.25	0.75	-0.082031	0.103027	1.013184	-51.730000	28.770000	-0.980000	1425.00	-0.19	-0.12	0.00	0.00	0.00	0.00	0.00	0.00	0.75	0.00	0.00	0.50	0.50	0.00	0.00	0.25	0.25	0.00	0.951660	4.008789	4.668457	32.410000	172.130005	-259.910004	29.00	0.00	0.00
2.40	17.75	16.75	13.50	13.00	13.25	14.75	2.25	10.75	1.00	1.75	0.75	2.00	8.50	0.25	0.25	0.75	-0.082031	0.092773	1.003906	-28.000000	26.950001	1.680000	1396.00	-0.18	-0.12	0.00	0.00	0.00	0.00	0.00	0.00	0.75	0.00	0.00	0.50	0.50	0.00	0.00	0.00	0.25	0.00	2.284668	2.249023	4.166016	65.029999	-87.010002	-196.279999	27.00	0.00	0.00
2.41	16.25	16.25	12.75	12.75	13.00	14.50	2.25	10.75	1.50	1.75	1.25	2.25	8.50	0.25	0.25	0.75	-0.093750	0.124023	0.995117	-18.340000	26.670000	1.190000	1372.00	-0.17	-0.12	0.00	0.00	0.00	0.00	0.00	0.00	0.75	0.00	0.00	0.25	0.00	0.00	0.00	0.00	0.00	0.00	2.218262	1.550293	1.515625	74.480003	-219.240005	-128.380005	15.00	0.00	0.00
2.42	15.00	15.00	12.00	12.00	12.50	14.00	2.00	10.50	1.50	1.75	1.25	2.25	8.75	0.25	0.25	1.00	-0.114746	0.167969	0.980469	-15.190001	27.930000	0.420000	1311.00	-0.17	-0.13	0.00	0.00	0.00	0.00	0.00	0.00	0.75	0.00	0.00	0.25	0.00	0.00	0.00	0.00	0.00	0.00	1.333984	1.697266	0.601562	46.970001	-235.899994	-81.900002	15.00	0.00	0.00
2.43	13.75	14.00	11.50	11.50	11.75	13.50	2.25	10.50	1.25	1.75	1.25	2.00	9.00	0.00	0.25	0.75	-0.110352	0.125000	0.987305	-14.630000	28.840000	0.980000	1256.00	-0.16	-0.13	0.00	0.00	0.00	0.25	0.00	0.00	0.75	0.00	0.00	0.00	0.00	0.00	0.00	0.00	0.00	0.00	1.112305	1.696777	0.938477	77.840004	-216.509995	-3.290000	15.00	0.00	0.00
2.44	12.50	13.25	11.00	11.00	11.25	13.00	2.00	10.25	1.50	1.75	1.25	2.25	8.75	0.25	0.25	1.00	-0.122559	0.093262	0.993652	-8.960000	27.719999	2.030000	1209.00	-0.16	-0.13	0.00	0.00	0.00	0.00	0.00	0.00	0.75	0.00	0.00	0.00	0.00	0.00	0.00	0.00	0.00	0.00	1.015625	1.453125	1.215332	111.930000	-244.160004	20.370001	12.00	0.00	0.00
2.45	10.75	12.25	10.25	10.50	10.50	12.50	2.00	10.25	1.50	2.00	1.50	2.50	9.00	0.25	0.25	0.75	-0.102051	0.117676	0.981445	-1.470000	27.650000	2.590000	1159.00	-0.15	-0.14	0.00	0.00	0.00	0.00	0.00	0.00	0.75	0.00	0.00	0.00	0.00	0.00	0.00	0.00	0.00	0.00	0.945312	1.113281	1.260742	129.220001	-273.420013	45.709999	12.00	0.00	0.00
2.46	9.75	11.25	9.75	10.25	9.75	12.25	2.00	10.00	1.50	2.00	1.75	2.50	9.25	0.00	0.50	1.00	-0.080078	0.143066	0.956543	2.520000	28.350000	1.260000	1120.00	-0.14	-0.14	0.00	0.00	0.00	0.00	0.00	0.00	0.75	0.00	0.00	0.00	0.00	0.00	0.00	0.00	0.00	0.00	0.872070	0.852539	1.321289	123.970001	-298.200012	71.190002	12.00	0.00	0.00
2.47	9.00	10.00	8.00	8.00	7.75	10.25	1.75	9.25	0.00	0.75	0.25	1.50	8.75	0.00	0.00	1.00	-0.089355	0.146484	0.930664	2.170000	29.260000	-1.190000	911.00	-0.16	-0.16	0.00	0.00	0.00	0.00	0.00	0.00	0.75	0.00	0.00	0.00	0.00	0.00	0.00	0.00	0.00	0.00	0.648926	0.726562	1.424316	110.040001	-322.420013	91.139999	12.00	0.00	0.00
2.48	7.00	8.25	8.00	8.25	7.25	9.75	1.50	9.00	0.00	1.25	0.50	1.75	8.50	0.00	0.00	0.75	-0.097656	0.151367	0.919922	-1.750000	29.190001	-4.130000	861.00	-0.15	-0.16	0.00	0.00	0.00	0.00	0.00	0.00	0.75	0.00	0.00	0.00	0.00	0.00	0.00	0.00	0.00	0.00	0.425781	0.662109	1.485840	107.940002	-346.010010	102.199997	12.00	0.00	0.00
2.49	5.50	7.25	7.00	8.00	6.75	9.25	1.75	9.00	0.25	1.00	0.50	2.00	9.25	0.00	0.25	0.50	-0.108887	0.150879	0.939941	-6.930000	28.490000	-6.440000	823.00	-0.13	-0.17	0.00	0.00	0.00	0.00	0.00	0.00	0.75	0.00	0.00	0.00	0.00	0.00	0.00	0.00	0.00	0.00	0.222656	0.505371	1.473633	121.870003	-366.450012	103.529999	12.00	0.00	0.00
2.50	5.50	7.50	7.75	8.25	7.00	9.50	1.50	9.75	1.25	2.00	0.75	2.50	9.00	0.00	0.00	0.75	-0.140625	0.151367	0.940430	-9.870000	26.530001	-7.210000	883.00	-0.12	-0.17	0.00	0.00	0.00	0.00	0.00	0.00	0.75	0.00	0.00	0.00	0.00	0.00	0.00	0.00	0.00	0.00	0.035645	0.320801	1.437988	141.750000	-380.029999	97.790001	12.00	0.00	0.00
2.51	4.00	6.00	6.00	6.75	6.00	9.00	1.50	8.75	0.25	1.50	1.50	4.00	10.00	0.00	0.00	0.75	-0.132324	0.142090	0.947754	-11.200000	24.500000	-7.210000	792.00	-0.09	-0.19	0.00	0.00	0.00	0.00	0.00	0.00	0.75	0.00	0.00	0.00	0.00	0.00	0.00	0.00	0.00	0.00	-0.135254	0.171875	1.437988	157.149994	-385.350006	87.849998	12.00	0.00	0.00
2.52	4.75	6.75	7.25	8.00	7.25	10.25	1.75	10.00	1.50	1.50	1.00	3.25	9.75	0.00	0.25	1.75	-0.151855	0.135742	0.951172	-11.690000	23.170000	-7.350000	903.00	-0.10	-0.17	0.00	0.00	0.00	0.00	0.00	0.00	0.75	0.00	0.00	0.00	0.00	0.00	0.00	0.00	0.00	0.00	-0.242188	0.090332	1.529297	167.089996	-383.809998	76.160004	12.00	0.00	0.00
2.53	5.25	6.50	7.25	7.75	6.75	10.00	1.75	10.00	1.50	2.75	2.75	5.00	11.00	0.75	0.50	2.25	-0.153809	0.121094	0.950195	-11.200000	21.980000	-6.230000	973.00	-0.07	-0.17	0.00	0.00	0.00	0.00	0.00	0.00	0.75	0.00	0.00	0.00	0.00	0.00	0.00	0.00	0.00	0.00	-0.289551	0.054688	1.673828	174.860001	-379.540009	64.540001	12.00	0.00	0.00
2.54	5.00	6.25	7.00	7.75	6.50	10.00	1.75	10.00	1.75	3.00	2.75	6.25	11.50	0.75	0.75	2.75	-0.152832	0.110352	0.958008	-9.380000	21.070000	-4.970000	993.00	-0.06	-0.18	0.00	0.00	0.00	0.00	0.00	0.00	0.75	0.00	0.00	0.00	0.00	0.00	0.00	0.00	0.00	0.00	-0.312500	0.037598	1.838379	183.190002	-376.390015	53.900002	12.00	0.00	0.00
2.55	5.00	6.25	7.00	7.25	6.25	10.00	1.75	10.00	2.00	3.50	3.50	7.00	12.00	0.75	0.75	3.25	-0.147949	0.110840	0.937012	-4.410000	19.389999	-3.710000	1018.00	-0.05	-0.17	0.00	0.00	0.00	0.00	0.00	0.00	0.75	0.00	0.00	0.00	0.00	0.00	0.00	0.00	0.00	0.00	-0.502930	0.069824	2.144043	204.539993	-371.839996	33.180000	12.00	0.00	0.00
2.56	4.50	6.00	6.50	7.00	6.00	9.75	2.00	10.00	2.50	3.25	3.75	7.75	12.50	1.00	1.00	4.00	-0.171387	0.126953	0.948730	-2.380000	18.620001	-3.780000	1029.00	-0.03	-0.18	0.00	0.00	0.00	0.00	0.00	0.00	0.75	0.00	0.00	0.00	0.00	0.00	0.00	0.00	0.00	0.00	-0.713867	0.208008	2.317871	213.850006	-366.660004	24.990000	12.00	0.00	0.00
2.57	4.00	6.00	6.25	6.50	5.75	10.00	2.00	10.25	2.25	4.00	4.50	8.25	12.75	1.00	1.25	5.00	-0.161133	0.119629	0.947754	-1.750000	18.059999	-3.780000	1049.00	-0.02	-0.18	0.00	0.00	0.00	0.00	0.00	0.00	0.75	0.00	0.00	0.00	0.00	0.00	0.00	0.00	0.00	0.00	-0.978027	0.316895	2.375488	221.339996	-359.309998	26.670000	12.00	0.00	0.00
2.58	3.75	5.75	6.25	6.50	5.50	9.75	1.75	10.25	2.25	4.00	5.75	8.50	13.50	1.25	1.25	5.75	-0.184082	0.123047	0.932617	-1.400000	17.710001	-3.290000	1065.00	-0.01	-0.18	0.00	0.00	0.00	0.00	0.00	0.00	0.75	0.00	0.00	0.00	0.00	0.00	0.00	0.00	0.00	0.00	-1.313965	0.408203	2.432617	227.290009	-349.579987	41.790001	12.00	0.00	0.00
2.59	1.75	4.75	4.75	6.00	5.50	9.00	1.75	9.50	2.50	5.50	6.75	9.00	14.00	1.50	1.50	6.50	-0.165527	0.121582	0.931152	-1.610000	17.850000	-1.680000	1039.00	0.02	-0.19	0.00	0.00	0.00	0.00	0.00	0.00	0.75	0.00	0.00	0.00	0.00	0.00	0.00	0.00	0.00	0.00	-1.516602	0.498535	2.497559	226.869995	-336.000000	69.160004	12.00	0.00	0.00
2.60	3.50	5.50	5.50	5.50	5.25	9.25	2.25	10.25	1.75	5.00	6.50	9.00	13.50	0.50	1.00	6.25	-0.152344	0.119141	0.940918	-1.610000	18.900000	-1.050000	1049.00	0.00	-0.19	0.00	0.00	0.00	0.00	0.00	0.00	0.75	0.00	0.00	0.00	0.00	0.00	0.00	0.00	0.00	0.00	-1.694336	0.578613	2.788574	227.360001	-321.440002	102.129997	12.00	0.00	0.00
2.61	1.50	4.25	4.75	4.00	4.00	8.00	2.00	10.00	2.00	6.25	7.50	9.25	13.75	1.00	1.25	7.25	-0.169922	0.127930	0.948242	-1.260000	20.020000	-1.260000	997.00	0.04	-0.19	0.00	0.00	0.00	0.00	0.00	0.00	0.75	0.00	0.00	0.00	0.00	0.00	0.00	0.00	0.00	0.00	-2.045410	0.687500	3.064453	227.149994	-312.760010	133.839996	12.00	0.00	0.00
2.62	2.00	4.25	4.25	3.75	4.00	8.25	2.00	10.00	2.75	7.25	8.00	10.25	14.75	1.50	1.75	8.00	-0.173340	0.132812	0.947266	-1.890000	21.000000	-1.960000	1060.00	0.05	-0.19	0.00	0.00	0.00	0.00	0.00	0.00	0.75	0.00	0.00	0.00	0.00	0.00	0.00	0.00	0.00	0.00	-2.634277	0.427734	3.000488	240.589996	-313.390015	162.750000	12.00	0.00	0.00
2.63	1.75	4.50	4.25	3.75	4.00	8.25	2.00	10.25	3.75	7.75	8.75	10.75	15.25	2.50	2.75	9.00	-0.166992	0.138672	0.956055	-2.660000	22.889999	-3.010000	1130.00	0.07	-0.18	0.00	0.00	0.00	0.00	0.00	0.00	0.75	0.00	0.00	0.00	0.00	0.00	0.00	0.00	0.00	0.00	-3.398926	-0.109375	2.521484	270.549988	-307.369995	186.619995	12.00	0.00	0.00
2.64	1.50	4.00	4.75	3.75	4.00	8.25	2.00	10.25	3.50	8.25	9.00	11.25	15.75	4.00	3.25	10.00	-0.187988	0.141602	0.972656	-2.170000	25.129999	-4.830000	1169.00	0.08	-0.18	0.00	0.00	0.00	0.00	0.00	0.00	0.75	0.00	0.00	0.00	0.00	0.00	0.00	0.00	0.00	0.00	-4.214355	-1.060547	1.822266	291.899994	-272.720001	212.240005	12.00	0.00	0.00
2.65	1.75	4.50	4.00	2.75	3.50	7.75	2.00	10.25	5.00	8.75	9.75	12.00	16.50	5.75	4.00	11.00	-0.182617	0.126465	0.995605	-0.770000	28.350000	-6.090000	1226.00	0.10	-0.17	0.00	0.00	0.00	0.00	0.00	0.00	0.75	0.00	0.00	0.00	0.00	0.00	0.00	0.00	0.00	0.00	-4.842285	-2.045898	1.301270	269.010010	-207.130005	244.930008	12.00	0.00	0.00
2.66	2.00	3.75	3.75	2.75	2.75	7.25	2.00	10.25	5.75	9.25	10.25	12.50	16.75	7.00	5.75	12.00	-0.178223	0.137207	0.987305	1.540000	32.619999	-7.070000	1271.00	0.11	-0.16	0.00	0.00	0.00	0.00	0.00	0.00	0.75	0.00	0.00	0.00	0.00	0.00	0.00	0.00	0.00	0.00	-5.187988	-2.593262	0.961914	172.759995	-133.279999	269.149994	12.00	0.00	0.00
2.67	1.25	3.25	2.75	2.75	2.25	6.50	1.75	10.00	6.50	9.75	10.75	13.00	17.25	8.25	6.75	13.50	-0.175781	0.069824	1.025879	6.160000	41.230000	-8.890000	1287.00	0.14	-0.16	0.00	0.00	0.00	0.00	0.00	0.00	0.75	0.00	0.00	0.00	0.00	0.00	0.00	0.00	0.00	0.00	-4.783203	-2.021973	0.199707	-15.680000	-24.570000	191.380005	12.00	0.00	0.00
2.68	1.00	5.00	3.75	3.25	2.25	6.75	1.75	10.25	8.00	11.00	12.00	14.50	19.00	10.25	8.50	15.75	-0.189941	0.145508	1.047852	10.080000	51.170002	-9.030000	1463.00	0.14	-0.15	0.00	0.00	0.00	0.00	0.00	0.00	0.75	0.00	0.00	0.00	0.00	0.00	0.00	0.00	0.00	0.00	-4.438477	-1.684570	0.207520	-9.240000	14.490000	95.340004	12.00	0.00	0.00
2.69	1.75	4.75	3.75	3.25	1.50	6.00	1.50	9.75	8.25	11.25	12.50	15.00	19.25	11.25	9.00	16.75	-0.228516	0.078613	1.183105	27.230000	76.720001	-9.940000	1479.00	0.15	-0.15	0.00	0.00	0.00	0.00	0.00	0.00	0.50	0.00	0.00	0.00	0.00	0.00	0.00	0.00	0.00	0.00	-5.561523	-2.657227	0.363770	-9.310000	38.709999	20.440001	8.00	0.00	0.00
2.70	2.00	4.25	3.25	3.00	1.25	5.75	1.25	8.75	8.25	11.50	12.75	15.25	19.25	12.75	9.75	18.00	-0.248535	0.106445	1.093750	47.459999	93.940002	-12.810000	1480.00	0.16	-0.14	0.00	0.00	0.00	0.50	0.00	0.00	0.50	0.00	0.00	0.00	0.00	0.00	0.00	0.00	0.00	0.00	-5.597656	-4.009277	-0.348633	-195.369995	152.740005	7.980000	14.00	0.00	0.00
2.71	2.00	4.75	3.50	1.75	1.00	4.25	1.00	8.00	8.25	11.50	13.00	15.50	19.00	14.00	10.50	18.75	-0.271484	0.209961	1.194824	64.120003	134.470001	-11.480000	1464.00	0.17	-0.14	1.00	1.00	0.75	1.25	0.00	0.00	0.50	0.00	0.00	0.00	0.00	0.00	0.00	0.00	0.00	0.00	-1.084961	-0.272461	0.902832	-360.779999	271.739990	-33.040001	54.00	-0.28	-0.02
2.72	2.00	4.00	3.50	2.50	1.00	3.00	0.75	6.75	8.25	11.50	13.00	15.25	18.50	15.00	10.75	19.25	-0.320312	0.270020	1.206055	86.169998	185.850006	-14.420000	1433.00	0.18	-0.13	5.00	6.50	2.75	4.00	0.00	0.00	0.50	0.00	0.00	0.00	0.00	0.00	0.00	0.00	0.00	0.00	0.692383	0.017090	3.052246	-297.290009	262.360016	-43.889999	212.00	-0.34	-0.05
2.73	1.75	4.00	4.00	0.75	0.75	2.75	0.50	5.50	8.25	11.00	12.75	15.00	18.00	16.00	11.50	19.75	-0.244629	0.138672	1.266602	97.370003	241.570007	-21.559999	1389.00	0.19	-0.12	16.00	17.00	8.00	9.25	0.25	0.25	0.50	0.00	0.00	0.00	0.00	0.00	0.25	0.00	0.00	0.00	-0.077637	-1.461914	4.237793	-194.949997	261.380005	-36.119999	577.00	-0.35	-0.04
2.74	1.50	3.50	3.25	2.00	0.75	1.25	0.75	4.25	7.75	10.75	12.75	14.75	17.00	16.75	12.25	19.75	-0.307129	0.256836	1.259766	86.449997	290.779999	-25.480000	1346.00	0.20	-0.12	23.25	21.50	11.25	14.00	1.50	3.50	0.50	0.75	0.00	0.00	0.00	0.25	0.25	0.00	0.00	0.00	-0.583008	-0.299805	2.021484	-154.490005	304.290009	-54.950001	870.00	-0.33	-0.06
2.75	2.00	4.00	2.75	1.25	0.75	1.00	0.50	3.50	7.50	10.25	12.50	14.25	15.75	18.00	12.50	19.50	-0.337891	0.354492	1.492188	80.779999	338.170013	-32.830002	1305.00	0.21	-0.11	25.50	23.25	13.75	16.00	3.00	6.75	0.75	1.50	0.00	0.00	0.25	0.50	0.50	0.00	0.00	0.00	-1.640137	0.071777	4.915039	-152.600006	352.100006	-58.170002	1049.00	-0.31	-0.06
2.76	1.75	4.25	3.50	1.75	0.75	1.00	1.00	3.25	6.25	9.50	12.50	13.75	14.25	18.25	12.25	19.00	-0.342773	0.393066	1.913086	71.540001	371.769989	-46.549999	1274.00	0.20	-0.11	23.50	22.00	13.75	15.75	3.25	7.50	1.00	2.00	0.00	0.00	0.00	0.00	0.75	0.00	0.00	0.00	-1.464844	0.162109	5.014648	-104.300003	205.449997	-13.650000	1029.00	-0.31	-0.07
2.77	1.00	4.50	2.75	1.25	0.75	1.00	0.50	2.50	5.50	8.75	12.25	12.75	12.50	18.75	12.25	17.75	-0.480469	0.609863	1.534180	56.560001	406.070007	-61.040001	1179.00	0.22	-0.10	20.75	20.00	12.75	14.75	3.50	7.50	1.00	2.50	0.00	0.00	0.00	0.25	1.00	0.00	0.25	0.00	-0.154785	0.224609	1.001465	-52.009998	78.470001	5.810000	973.00	-0.29	-0.08
2.78	0.25	3.50	2.75	1.25	0.75	0.50	0.50	2.00	4.75	8.25	11.75	12.00	11.25	18.50	11.75	15.25	-0.448730	0.661621	1.872070	46.619999	454.929993	-82.669998	1081.00	0.23	-0.10	18.50	18.25	12.50	14.25	4.25	8.00	1.25	3.75	0.00	0.00	0.50	0.50	1.75	0.00	0.00	0.00	0.426758	0.320801	0.347656	-58.730000	79.800003	3.990000	974.00	-0.27	-0.09
2.79	1.00	4.25	2.25	3.00	1.00	0.00	0.50	2.50	2.50	7.50	11.50	11.00	9.50	17.25	10.25	11.75	-0.567871	1.013672	2.026855	29.680000	506.869995	-109.830002	996.00	0.20	-0.11	17.75	17.00	12.25	14.25	5.00	8.50	1.25	5.00	0.00	0.25	1.00	0.75	2.00	0.00	0.25	0.00	-0.668457	0.276367	1.465820	-98.139999	61.459999	2.380000	1002.00	-0.25	-0.10
2.80	0.00	1.25	1.00	0.00	0.00	0.00	0.00	0.00	0.00	5.50	9.75	9.25	6.75	13.00	6.75	7.25	-1.041992	1.028320	2.252441	19.389999	582.750000	-140.979996	610.00	0.26	-0.11	18.00	17.75	13.25	15.00	6.00	9.00	1.25	5.50	0.00	0.00	0.50	0.50	2.50	0.00	0.25	0.00	-0.194824	0.238281	1.012695	-76.510002	20.510000	2.940000	1053.00	-0.25	-0.10
2.81	0.00	1.25	1.25	0.00	0.00	0.00	0.25	0.00	0.00	4.00	8.25	8.00	5.00	10.25	4.75	4.75	-1.378906	1.110352	3.744629	18.340000	633.640015	-155.680008	489.00	0.25	-0.11	19.50	19.00	13.75	15.25	6.75	9.50	1.25	6.00	0.00	0.50	0.50	0.50	2.50	0.00	0.00	0.00	-0.106934	0.226562	0.982422	-74.970001	12.040000	1.540000	1118.00	-0.25	-0.10
2.82	0.00	0.00	0.25	0.00	0.00	0.00	0.25	0.00	0.00	3.00	6.50	6.75	1.50	7.75	1.50	1.50	-1.560547	1.030273	3.214355	52.080002	639.169983	-162.750000	306.00	0.27	-0.09	20.00	19.50	14.25	15.50	7.25	9.75	1.25	6.00	0.25	1.25	1.25	0.25	2.75	0.00	0.25	0.00	-0.176270	0.159180	1.129883	-63.840000	10.640000	0.350000	1170.00	-0.25	-0.09
2.83	0.00	0.00	0.25	0.00	0.00	0.00	0.25	0.00	0.00	2.50	4.50	4.50	0.00	5.75	0.75	0.25	-1.506348	-0.006836	4.130371	106.540001	616.000000	-158.199997	203.00	0.27	-0.05	20.25	18.75	14.00	15.00	7.50	9.50	1.25	6.00	0.00	0.50	0.50	0.00	2.75	0.25	0.75	0.00	-0.073730	0.154297	0.957520	-47.529999	9.240000	-0.910000	1140.00	-0.25	-0.09
2.84	0.50	1.75	2.50	0.25	0.25	0.25	0.50	0.50	1.00	3.25	4.25	5.00	2.25	3.75	1.25	1.25	0.145508	0.194824	2.130371	67.620003	543.270020	-179.619995	315.00	0.14	-0.08	20.00	18.50	13.75	14.50	7.50	9.25	1.25	6.00	0.00	0.50	0.50	0.25	2.75	0.00	0.25	0.00	-0.087402	0.162109	1.009766	-38.849998	13.230000	-0.700000	1118.00	-0.25	-0.09
2.85	0.50	3.00	3.25	1.25	0.50	0.25	0.75	0.75	0.75	3.00	3.00	3.50	1.75	1.75	0.75	1.00	1.403809	1.098633	3.627441	39.619999	501.970001	-183.539993	291.00	0.04	-0.08	19.00	17.50	13.50	14.00	7.50	9.50	1.50	6.25	0.00	0.75	0.50	0.50	3.00	0.00	0.25	0.00	-0.084473	0.142090	0.961914	-30.309999	14.420000	-0.770000	1107.00	-0.24	-0.09
2.86	0.50	2.75	2.50	0.75	0.50	0.00	0.75	0.50	1.00	2.75	2.25	2.00	0.50	0.25	1.25	0.50	0.396484	0.889160	3.474121	44.590000	361.829987	-183.610001	218.00	0.03	-0.05	17.50	16.25	12.75	13.25	7.25	9.00	1.50	6.25	0.00	1.00	0.50	0.50	3.25	0.25	0.75	0.00	-0.065430	0.165527	0.912598	-27.790001	16.170000	-0.910000	1063.00	-0.23	-0.10
2.87	1.25	2.50	2.50	0.75	0.25	0.25	0.75	0.25	1.00	2.00	2.25	2.00	0.50	0.00	0.50	0.25	1.038574	3.577148	6.552734	7.770000	195.440002	-154.490005	199.00	-0.02	-0.04	16.25	14.75	12.00	12.50	7.50	9.00	1.25	6.50	0.00	1.00	0.75	0.50	3.50	0.50	0.25	0.00	-0.091309	0.166504	0.949219	-29.330000	18.690001	-0.770000	1021.00	-0.23	-0.10
2.88	1.75	3.50	2.50	1.75	0.50	0.00	0.75	0.50	0.50	2.00	2.00	1.50	0.00	0.00	0.75	0.50	2.359375	0.428223	3.743164	-56.349998	-77.209999	-65.870003	215.00	-0.07	-0.05	14.50	13.00	11.50	12.00	7.50	9.00	1.50	6.50	0.00	1.00	1.00	0.50	3.75	0.50	0.50	0.00	-0.134766	0.175781	0.969238	-29.820000	20.370001	-0.420000	983.00	-0.21	-0.10
2.89	1.25	2.50	2.75	1.00	0.25	0.25	0.75	0.25	0.75	2.25	1.00	1.00	0.25	0.25	0.25	0.50	1.717285	1.132324	1.701660	-107.870003	-200.970001	-20.090000	177.00	-0.06	-0.02	13.00	11.50	10.75	11.25	7.50	8.75	1.50	6.75	0.25	1.25	1.00	1.00	4.00	0.50	0.75	0.50	-0.137207	0.158203	1.001465	-28.840000	20.650000	0.490000	955.00	-0.19	-0.11
2.90	1.75	2.25	2.75	0.50	0.25	0.25	0.75	0.25	0.75	2.00	1.50	0.75	0.50	0.00	0.00	0.50	1.346680	1.114746	1.391602	-108.849998	-211.259995	-14.630000	171.00	-0.07	-0.01	11.25	13.00	11.75	10.25	7.00	8.00	1.50	7.50	1.75	2.75	2.00	2.00	5.00	0.50	0.50	0.00	-0.119141	0.138672	0.966797	-26.320000	19.110001	1.260000	1013.00	-0.17	-0.11
2.91	2.25	3.25	2.00	0.75	0.50	0.00	1.00	0.25	1.25	1.75	1.00	0.75	0.50	0.25	0.25	0.25	1.419922	1.277344	1.437500	-47.250000	-218.470001	-30.309999	187.00	-0.08	0.00	13.00	12.00	11.75	12.00	8.50	9.75	2.00	7.75	1.50	2.75	2.25	2.50	6.50	2.00	2.25	1.25	-0.118652	0.151855	0.955566	-18.340000	16.590000	0.280000	1155.00	-0.14	-0.11
2.92	1.25	3.00	2.75	1.00	0.50	0.00	0.75	0.50	0.75	1.75	1.25	0.75	0.00	0.00	0.00	0.00	1.299316	0.886230	1.674805	17.920000	-254.449997	-52.150002	170.00	-0.11	-0.02	9.00	8.50	9.00	9.50	7.25	8.25	1.75	6.75	0.50	1.50	1.50	1.50	6.25	1.00	1.00	0.25	-0.126953	0.147949	0.958008	-16.940001	16.309999	-0.910000	877.00	-0.15	-0.12
2.93	1.00	2.75	2.50	0.50	0.50	0.00	0.75	0.00	0.75	1.75	0.75	0.00	0.25	0.00	0.00	0.25	1.175293	0.595215	1.831055	48.580002	-301.839996	-64.470001	137.00	-0.11	0.02	8.00	7.50	8.75	9.25	7.00	8.00	2.00	6.75	0.50	2.00	1.75	1.75	6.00	1.00	0.75	0.50	-0.125977	0.140137	0.940430	-16.660000	16.030001	-2.450000	856.00	-0.14	-0.12
2.94	1.00	2.75	3.50	1.25	0.50	0.25	0.75	0.50	0.75	1.75	0.75	0.25	0.00	0.00	0.00	0.25	1.074707	0.540039	1.866211	43.889999	-350.769989	-59.360001	170.00	-0.13	-0.01	7.00	6.75	8.00	8.75	7.00	7.75	2.00	7.00	1.00	2.25	1.75	2.25	6.50	1.25	1.00	0.75	-0.132324	0.149414	0.958496	-15.960000	15.120000	-3.500000	850.00	-0.12	-0.13
2.95	1.00	3.00	3.25	0.75	0.50	0.00	1.00	0.25	1.00	1.75	0.25	0.50	0.50	0.00	0.25	0.25	0.856445	0.683594	1.829102	27.090000	-395.220001	-41.369999	169.00	-0.10	0.00	6.00	6.25	7.75	8.50	6.75	7.75	2.00	7.00	1.75	3.75	3.75	3.75	7.00	1.25	1.50	1.00	-0.134766	0.142090	0.958008	-14.210000	14.000000	-3.920000	905.00	-0.08	-0.13
2.96	1.00	2.25	2.50	0.75	0.50	0.00	1.00	0.25	0.75	1.50	0.75	0.25	0.00	0.00	0.00	0.25	0.622559	0.755859	1.728516	18.620001	-431.269989	-17.080000	141.00	-0.10	0.02	6.00	5.75	7.50	8.00	6.75	7.50	2.25	7.25	1.75	3.00	2.75	3.00	7.75	1.50	1.25	1.25	-0.133789	0.130371	0.969727	-12.740000	13.930000	-3.500000	875.00	-0.08	-0.13
2.97	1.75	3.75	1.00	1.50	0.00	0.25	0.75	0.00	1.25	1.25	0.50	0.25	0.00	0.00	0.00	0.00	0.365234	0.741211	1.595703	22.469999	-458.850006	7.350000	144.00	-0.15	-0.00	5.50	5.50	6.75	7.75	6.75	7.50	2.25	7.25	1.75	3.25	3.25	3.50	8.50	2.00	1.50	1.50	-0.140625	0.133301	0.960938	-10.290000	13.650000	-3.360000	885.00	-0.06	-0.13
2.98	0.75	2.50	2.25	0.50	0.50	0.00	1.00	0.00	1.00	1.50	0.75	0.25	0.00	0.00	0.00	0.00	0.097168	0.661621	1.453125	31.780001	-474.739990	28.840000	132.00	-0.09	0.04	4.25	4.50	5.50	7.00	6.25	7.25	2.50	7.50	2.25	3.75	6.50	6.75	10.00	3.75	3.25	1.75	-0.145996	0.126465	0.958984	-8.330000	13.790000	-2.660000	976.00	-0.00	-0.14
2.99	0.75	2.50	2.25	0.00	0.50	0.25	1.00	0.00	0.50	0.75	0.00	0.00	0.00	0.00	0.00	0.00	-0.261719	0.458984	1.317383	45.920002	-470.890015	61.040001	102.00	-0.17	0.05	5.25	5.25	7.25	8.00	7.50	8.50	2.75	8.00	4.00	6.75	7.25	7.50	10.50	4.25	4.00	4.00	-0.138184	0.139160	0.948242	-6.860000	14.490000	-3.010000	1178.00	0.01	-0.12
3.00	0.00	1.00	2.25	0.00	0.00	0.00	0.75	0.50	0.50	1.00	0.00	0.00	0.00	0.00	0.00	0.00	-0.357910	0.379883	1.362793	50.610001	-459.130005	71.750000	77.00	-0.08	0.04	3.50	3.25	5.25	6.25	6.25	7.25	2.50	7.00	2.50	6.25	6.75	7.50	10.50	4.75	4.25	3.25	-0.132324	0.144043	0.961914	-5.880000	15.400000	-4.060000	1012.00	0.03	-0.13
3.01	0.00	1.00	1.75	0.00	0.25	0.00	0.75	0.00	0.50	1.25	0.00	0.25	0.00	0.00	0.00	0.00	-0.404297	0.311035	1.468262	55.720001	-444.850006	78.120003	71.00	-0.05	0.08	2.75	2.75	5.00	6.00	6.00	7.00	2.50	7.50	3.25	6.75	7.25	7.50	10.50	4.00	3.50	4.00	-0.130859	0.140625	0.966309	-6.090000	16.100000	-4.830000	1006.00	0.04	-0.14
3.02	0.75	2.75	3.00	0.75	0.50	0.50	0.75	0.50	1.00	1.00	0.00	0.25	0.25	0.00	0.00	0.00	-0.456543	0.243652	1.656250	61.529999	-431.339996	79.660004	145.00	-0.14	-0.01	2.50	2.25	4.75	5.50	5.75	6.75	2.75	7.50	4.00	7.50	7.75	8.00	10.75	4.75	4.25	4.50	-0.143555	0.147949	0.958984	-5.320000	16.660000	-5.670000	1039.00	0.06	-0.13
3.03	1.50	2.00	2.75	1.00	0.50	0.25	1.00	0.25	1.00	1.00	0.25	0.25	0.25	0.00	0.00	0.25	-0.492676	0.224609	1.918457	68.320000	-419.579987	76.720001	148.00	-0.13	0.02	2.50	1.75	4.25	5.25	5.50	6.50	2.75	7.50	4.25	7.75	8.25	8.50	11.25	5.75	4.75	5.00	-0.165527	0.124023	0.968262	-3.150000	16.730000	-5.880000	1059.00	0.08	-0.13
3.04	1.00	3.25	3.00	0.75	0.50	0.50	0.75	0.00	0.75	1.00	0.00	0.25	0.00	0.00	0.25	0.00	-0.618652	0.295410	2.213867	70.000000	-410.760010	74.199997	142.00	-0.17	0.01	1.50	1.75	3.50	4.75	5.25	6.50	2.75	7.50	4.75	8.25	9.00	9.00	12.25	6.75	5.00	5.50	-0.179199	0.130859	0.958008	-0.980000	16.240000	-5.530000	1081.00	0.10	-0.13
3.05	1.00	2.75	2.75	1.00	0.50	0.00	1.00	0.00	1.00	1.00	0.25	0.25	0.25	0.00	0.00	0.00	-0.773926	0.487793	2.536133	61.810001	-404.809998	77.559998	141.00	-0.14	0.03	1.75	1.50	2.75	4.50	5.25	6.25	2.75	7.75	5.75	8.75	9.25	9.50	12.00	7.50	6.00	6.25	-0.174805	0.121094	0.963867	0.840000	17.080000	-4.550000	1120.00	0.11	-0.12
3.06	1.25	3.50	3.50	0.75	0.25	0.50	0.75	0.00	1.00	1.00	0.25	0.25	0.00	0.00	0.00	0.00	-1.089844	0.879883	2.840820	43.680000	-397.179993	89.949997	154.00	-0.18	0.02	1.25	1.25	2.50	4.00	5.00	6.00	2.50	7.75	6.25	9.00	9.75	10.00	12.50	8.50	6.75	6.75	-0.164062	0.124023	0.973633	2.310000	18.900000	-3.780000	1140.00	0.13	-0.12
3.07	1.25	3.00	2.50	1.00	0.50	0.25	0.75	0.25	1.00	0.75	0.00	0.00	0.00	0.00	0.25	0.25	-1.539062	1.469727	3.104004	22.960001	-396.619995	116.830002	140.00	-0.16	0.01	1.25	1.25	2.00	3.25	4.25	5.50	2.50	7.75	6.50	9.50	10.25	10.50	13.00	9.50	7.50	7.50	-0.183594	0.144531	0.970215	2.940000	21.629999	-3.780000	1157.00	0.14	-0.12
3.08	1.50	2.75	2.75	1.25	0.50	0.25	1.00	0.00	1.00	1.00	0.00	0.25	0.25	0.00	0.00	0.00	-1.963867	2.040527	3.317383	24.219999	-414.540009	156.800003	150.00	-0.16	0.02	0.75	1.25	1.25	2.75	3.50	5.25	2.50	7.50	7.25	10.00	10.75	11.00	13.50	10.50	7.75	8.00	-0.158203	0.154785	0.975586	3.780000	24.920000	-5.110000	1168.00	0.16	-0.12
3.09	0.75	3.50	3.25	0.75	0.50	2.00	0.75	1.00	0.50	0.75	0.25	0.25	0.75	0.00	0.00	0.00	-2.465820	2.407715	3.370117	46.549999	-437.010010	203.139999	180.00	-0.16	-0.08	0.75	1.00	1.25	2.50	2.75	5.00	2.25	7.50	7.50	10.25	11.00	11.50	13.75	11.75	8.50	8.50	-0.166016	0.148438	0.965820	4.550000	28.770000	-7.700000	1187.00	0.17	-0.12
3.10	1.25	3.25	2.75	1.00	0.50	0.25	1.00	0.50	1.25	1.00	0.25	0.25	0.00	0.00	0.00	0.00	-3.178223	2.379395	2.911133	78.889999	-449.820007	246.680008	161.00	-0.14	0.01	0.50	0.50	0.75	2.25	2.00	3.25	2.25	7.25	7.75	10.75	11.50	11.75	14.00	13.25	9.00	9.00	-0.164551	0.153320	0.998047	5.110000	35.000000	-9.800000	1179.00	0.19	-0.11
3.11	1.75	3.50	2.75	1.00	0.75	0.50	0.75	0.25	1.00	0.75	0.00	0.25	0.25	0.00	0.00	0.00	-3.713379	1.468262	2.478516	157.430008	-443.519989	284.059998	160.00	-0.18	-0.00	0.25	0.25	0.75	1.75	1.50	2.50	2.00	6.75	8.00	11.00	12.00	12.25	14.25	14.75	9.50	9.25	-0.181152	0.182129	1.015137	6.160000	44.590000	-12.880000	1182.00	0.21	-0.11
3.12	1.25	3.25	3.25	0.50	0.75	0.50	0.75	0.25	1.25	1.00	0.25	0.25	0.00	0.00	0.00	0.00	-4.796875	0.731445	2.291992	230.160004	-413.140015	289.730011	159.00	-0.15	0.02	0.00	0.50	0.25	1.50	1.00	1.50	1.50	6.00	8.25	11.25	12.25	12.50	14.25	16.25	10.00	9.75	-0.221680	0.206055	1.025391	7.280000	56.000000	-16.799999	1169.00	0.23	-0.11
3.13	1.25	2.75	2.75	0.75	0.75	0.00	0.75	0.25	1.00	1.00	0.00	0.50	0.25	0.00	0.25	0.00	-5.982422	-0.237305	1.484375	252.070007	-361.760010	287.980011	147.00	-0.13	0.01	0.00	0.25	0.25	1.50	0.50	1.25	1.25	5.25	8.50	11.50	12.50	12.75	14.00	17.75	10.75	10.00	-0.207031	0.180176	1.064941	8.680000	77.980003	-20.230000	1174.00	0.24	-0.10
3.14	1.00	2.50	3.25	1.00	0.50	0.00	0.75	0.25	1.25	0.75	0.25	0.25	0.50	0.00	0.00	0.00	-7.358398	-1.380371	-0.458496	119.070000	-223.580002	265.720001	148.00	-0.14	0.01	0.00	0.00	0.00	1.00	0.50	0.75	1.00	4.25	8.50	11.50	12.50	12.75	13.75	19.00	11.25	10.00	-0.183594	0.222168	1.175293	14.980000	108.709999	-22.750000	1151.00	0.25	-0.09
3.15	1.25	2.00	2.75	1.00	1.25	0.00	0.75	0.00	0.75	0.75	0.25	0.50	0.25	0.00	0.00	0.00	-7.207031	-1.048340	-1.065430	37.520000	-135.520004	176.680008	137.00	-0.15	0.02	0.00	0.00	0.00	1.00	0.50	0.75	0.75	3.00	8.75	11.50	12.75	12.50	13.25	20.00	11.75	10.25	-0.216309	0.196777	1.338379	27.650000	179.830002	-31.990000	1141.00	0.26	-0.08
3.16	2.25	3.50	3.50	1.50	0.50	0.00	0.75	0.25	0.75	0.50	0.75	0.50	0.25	0.00	0.00	0.00	-9.533691	-1.395996	-1.468262	-5.250000	3.780000	72.870003	177.00	-0.19	-0.01	0.00	0.00	0.00	0.75	0.25	0.25	0.50	2.25	8.50	11.25	12.75	12.50	12.50	21.25	12.00	10.25	-0.325195	0.208008	1.302734	31.290001	218.889999	-36.750000	1114.00	0.27	-0.07
3.17	1.00	3.75	3.75	2.50	0.50	0.00	0.50	0.00	0.25	0.00	0.00	0.25	0.00	0.00	0.00	0.00	-6.270020	-1.914062	-1.880859	-77.139999	177.940002	46.900002	146.00	-0.27	-0.04	0.00	0.00	0.00	0.75	0.00	0.00	0.50	1.75	8.50	11.25	12.50	12.25	11.75	22.25	12.50	10.00	-0.337891	0.229492	1.242188	27.510000	254.100006	-43.119999	1100.00	0.28	-0.07
3.18	13.00	12.75	7.25	6.00	1.00	0.00	0.50	0.00	0.25	0.25	0.00	0.25	0.00	0.00	0.00	0.00	-1.944336	0.298828	2.671387	-126.489998	376.739990	64.400002	465.00	-0.33	-0.02	0.00	0.00	0.00	0.75	0.00	0.25	0.25	1.25	8.50	11.00	12.50	12.00	11.00	23.00	12.50	10.00	-0.354980	0.180176	1.357422	8.050000	282.589996	-47.250000	1085.00	0.28	-0.06
3.19	21.50	18.75	9.25	8.75	0.50	0.00	0.50	0.50	0.00	0.50	0.25	1.25	1.25	0.25	0.50	0.50	0.399902	-1.924805	3.680664	30.240000	429.589996	104.510002	718.00	-0.31	-0.04	0.00	0.00	0.00	0.50	0.00	0.00	0.00	1.00	8.25	10.50	12.25	11.25	10.00	23.50	12.75	9.50	-0.406738	0.231934	1.400391	-5.460000	309.399994	-51.730000	1045.00	0.29	-0.05
3.20	25.50	21.00	12.00	11.25	3.00	3.75	0.50	0.75	0.75	0.50	0.25	1.25	1.75	0.00	0.00	0.25	-1.353027	-4.058594	4.166016	72.309998	470.890015	8.610000	934.00	-0.30	-0.05	0.00	0.00	0.00	0.50	0.00	0.00	0.25	0.75	7.75	10.25	12.00	10.75	9.00	23.75	12.50	8.75	-0.446289	0.246582	1.457520	-22.400000	348.040009	-57.820000	1012.00	0.29	-0.05
3.21	25.25	22.00	13.75	13.25	6.75	8.25	0.75	1.50	0.50	0.50	0.50	1.25	2.50	0.00	0.00	0.25	-1.748047	-0.196777	6.081055	68.879997	506.380005	-148.889999	1108.00	-0.28	-0.06	0.00	0.00	0.00	0.50	0.00	0.00	0.00	0.50	7.50	9.50	11.50	10.25	7.75	23.75	11.75	7.75	-0.543945	0.453125	1.436035	-44.660000	393.119995	-69.790001	954.00	0.29	-0.04
3.22	25.00	22.00	15.00	14.50	8.50	10.75	1.00	4.25	0.75	0.25	0.50	1.25	3.00	0.00	0.25	0.25	-1.059082	2.727539	3.060547	68.599998	323.750000	-132.300003	1245.00	-0.26	-0.08	0.00	0.00	0.00	0.00	0.00	0.00	0.00	0.50	6.75	9.00	11.00	9.25	6.75	23.25	11.00	6.25	-0.603027	0.626465	1.660156	-56.000000	441.630005	-92.330002	882.00	0.30	-0.03
3.23	23.25	21.00	14.75	14.50	9.25	12.50	1.00	7.25	0.75	0.75	0.50	1.50	4.25	0.00	0.00	0.50	-0.721191	1.488281	2.008789	22.400000	221.830002	-26.180000	1311.00	-0.24	-0.10	0.00	0.00	0.00	0.00	0.00	0.00	0.00	0.25	5.50	8.25	10.25	8.50	5.25	22.00	9.75	4.00	-0.750977	0.746582	2.166016	-61.950001	487.899994	-120.470001	781.00	0.30	-0.03
3.24	21.25	19.75	14.25	14.25	9.75	13.25	1.25	8.25	1.25	1.00	0.50	1.50	5.00	0.00	0.25	0.50	-0.215332	-0.272461	2.199219	-61.040001	159.529999	12.810000	1322.00	-0.22	-0.10	0.00	0.00	0.00	0.00	0.00	0.00	0.00	0.00	3.75	7.25	9.00	7.50	4.00	19.75	8.25	0.75	-1.022461	0.859863	2.604980	-67.830002	529.059998	-149.869995	646.00	0.31	-0.02
3.25	20.00	19.25	14.25	14.50	10.75	14.50	1.25	9.25	0.75	1.25	0.75	1.50	6.50	0.00	0.25	0.50	-0.007812	0.058594	0.855469	-92.959999	107.520004	-4.130000	1362.00	-0.21	-0.12	0.00	0.00	0.00	0.00	0.00	0.00	0.00	0.00	1.50	5.50	7.50	5.75	2.25	16.25	6.25	0.00	-1.363770	1.053711	3.246094	-71.889999	555.520020	-176.889999	480.00	0.31	-0.02
3.26	19.75	19.00	14.25	14.50	11.50	15.00	1.50	9.75	1.25	1.25	0.50	1.50	6.75	0.00	0.25	0.50	-0.419922	0.773926	1.217773	-114.379997	98.000000	-6.020000	1391.00	-0.20	-0.11	0.00	0.00	0.00	0.00	0.00	0.00	0.00	0.00	0.50	3.75	5.25	3.50	1.25	12.25	4.50	0.00	-1.355957	0.874023	4.136230	-22.049999	549.429993	-188.300003	327.00	0.32	-0.01
3.27	20.25	18.75	15.00	14.75	12.25	15.25	1.50	10.00	0.75	1.50	0.75	1.50	7.00	0.25	0.25	0.50	-0.375977	0.158691	1.312012	-120.400002	57.680000	0.280000	1425.00	-0.20	-0.11	0.00	0.00	0.00	0.00	0.00	0.00	0.25	0.00	0.25	2.50	3.00	2.25	0.25	8.50	2.75	0.00	-0.109863	1.228027	4.307617	19.110001	473.130005	-221.059998	209.00	0.32	0.01
3.28	20.50	19.25	14.75	14.75	13.25	15.75	1.50	10.25	1.00	1.50	0.50	1.25	7.00	0.50	0.00	0.75	-0.087402	0.058105	1.122559	-94.430000	25.830000	-4.410000	1451.00	-0.20	-0.11	0.00	0.00	0.00	0.00	0.00	0.00	0.25	0.00	0.00	1.50	1.50	1.25	0.50	5.00	1.75	0.00	1.162109	1.155762	2.531738	26.250000	442.750000	-247.029999	124.00	0.32	0.00
3.29	20.50	19.25	14.75	14.50	13.75	15.50	1.75	10.25	1.25	1.75	1.00	1.25	7.00	0.00	0.25	0.75	-0.058594	0.115723	1.041992	-69.230003	25.760000	-3.080000	1465.00	-0.20	-0.11	0.00	0.00	0.00	0.25	0.00	0.00	0.50	0.00	0.00	0.25	0.50	0.50	0.25	1.25	0.75	0.00	1.641602	1.754883	2.854492	23.450001	398.299988	-267.820007	48.00	0.00	0.00
3.30	20.00	18.50	14.50	14.00	14.00	15.25	2.00	10.25	0.75	2.00	1.00	1.50	7.00	0.25	0.25	0.50	-0.109863	0.073730	1.046387	-55.860001	28.559999	-3.080000	1447.00	-0.20	-0.11	0.00	0.00	0.00	0.00	0.00	0.00	0.50	0.00	0.00	0.50	0.75	0.25	0.00	0.50	0.25	0.00	4.367676	2.356445	4.011230	2.940000	256.970001	-301.140015	33.00	0.00	0.00
3.31	19.25	17.75	14.25	13.75	14.00	15.00	2.25	10.00	1.25	2.25	1.00	1.50	7.00	0.25	0.50	0.75	-0.132324	0.116699	1.010742	-42.630001	29.049999	-1.260000	1436.00	-0.19	-0.11	0.00	0.00	0.00	0.00	0.00	0.00	0.75	0.00	0.00	0.75	0.50	0.00	0.00	0.25	0.25	0.00	0.499023	4.306641	8.227051	67.550003	-24.080000	-225.470001	32.00	0.00	0.00
3.32	18.00	17.00	13.75	13.00	13.75	14.50	2.25	10.00	1.50	2.00	1.00	1.50	7.00	0.25	0.25	0.75	-0.069336	0.050293	1.016113	-32.340000	31.010000	0.770000	1388.00	-0.19	-0.11	0.00	0.00	0.00	0.00	0.00	0.00	0.75	0.00	0.00	0.25	0.50	0.00	0.00	0.00	0.25	0.00	2.455566	1.953613	2.874512	129.080002	-229.809998	-127.680000	24.00	0.00	0.00
3.33	17.00	16.25	13.00	12.50	13.25	14.00	2.25	9.75	1.50	2.25	1.25	1.75	7.00	0.50	0.25	0.75	-0.101562	0.108887	1.008301	-23.379999	32.270000	-0.210000	1349.00	-0.18	-0.11	0.00	0.00	0.00	0.00	0.00	0.00	0.75	0.00	0.00	0.25	0.00	0.00	0.00	0.00	0.25	0.00	1.913086	1.502930	0.072266	115.360001	-280.350006	-65.239998	18.00	0.00	0.00
3.34	15.25	15.00	12.25	11.75	12.75	13.50	2.25	9.75	1.50	2.25	1.25	1.75	6.75	0.25	0.25	1.00	-0.139160	0.165527	0.985352	-20.370001	32.480000	-0.700000	1283.00	-0.17	-0.11	0.00	0.00	0.00	0.00	0.00	0.00	0.75	0.00	0.00	0.00	0.00	0.00	0.00	0.00	0.00	0.00	0.781738	1.810059	0.543457	97.440002	-234.919998	-23.730000	12.00	0.00	0.00
3.35	14.00	13.75	11.50	11.25	12.25	12.75	2.25	9.50	1.50	2.50	1.25	2.00	6.75	0.25	0.25	0.50	-0.126953	0.087402	0.960449	-20.650000	32.970001	1.050000	1225.00	-0.17	-0.11	0.00	0.00	0.00	0.00	0.00	0.00	0.75	0.00	0.00	0.00	0.00	0.00	0.00	0.00	0.00	0.00	0.992188	1.768555	0.909180	119.070000	-203.490005	-1.400000	12.00	0.00	0.00
3.36	12.50	13.00	10.75	10.75	11.25	12.25	2.25	9.25	1.75	2.25	1.50	2.00	6.75	0.25	0.25	0.75	-0.112793	0.049805	0.988770	-15.750000	32.619999	2.170000	1168.00	-0.16	-0.12	0.00	0.00	0.00	0.00	0.00	0.00	0.75	0.00	0.00	0.00	0.00	0.00	0.00	0.00	0.00	0.00	1.191895	1.514648	1.389160	160.160004	-220.149994	9.380000	12.00	0.00	0.00
3.37	11.00	12.00	10.25	10.25	10.75	11.50	2.25	9.00	1.75	2.00	1.75	2.25	7.00	0.25	0.50	0.75	-0.088379	0.076172	0.975586	-9.380000	34.230000	2.030000	1118.00	-0.15	-0.12	0.00	0.00	0.00	0.00	0.00	0.00	0.75	0.00	0.00	0.00	0.00	0.00	0.00	0.25	0.00	0.00	1.170410	1.199707	1.732910	188.649994	-257.040009	31.219999	15.00	0.00	0.00
3.38	9.50	10.75	9.50	9.50	10.00	10.75	2.25	8.75	1.50	2.50	1.75	2.50	7.25	0.25	0.25	1.00	-0.090820	0.124023	0.938477	-7.840000	36.959999	-1.120000	1054.00	-0.14	-0.13	0.00	0.00	0.00	0.00	0.00	0.00	0.75	0.00	0.00	0.00	0.00	0.00	0.00	0.00	0.00	0.00	1.115723	0.902832	1.714844	180.389999	-294.489990	62.790001	12.00	0.00	0.00
3.39	8.50	9.75	9.00	9.00	9.25	10.25	2.25	8.75	2.00	3.00	2.00	2.50	7.50	0.25	0.25	1.00	-0.097656	0.110352	0.945801	-10.080000	38.080002	-5.250000	1024.00	-0.13	-0.13	0.00	0.00	0.00	0.00	0.00	0.00	0.75	0.00	0.00	0.00	0.00	0.00	0.00	0.00	0.00	0.00	0.510742	0.628418	1.698730	136.919998	-355.320007	116.340004	12.00	0.00	0.00
3.40	7.50	8.75	8.50	8.75	8.75	9.75	2.25	8.50	2.25	3.50	2.25	2.75	8.00	0.75	0.50	1.25	-0.126465	0.133789	0.935059	-12.530000	36.680000	-8.610000	1006.00	-0.11	-0.13	0.00	0.00	0.00	0.00	0.00	0.00	0.75	0.00	0.00	0.00	0.00	0.00	0.00	0.00	0.00	0.00	0.279785	0.375488	1.607910	145.039993	-375.549988	127.820000	12.00	0.00	0.00
3.41	7.00	8.25	8.25	8.25	8.25	9.25	2.00	8.25	2.00	3.25	2.00	2.75	7.25	0.00	0.25	1.25	-0.147949	0.114258	0.926270	-14.630000	34.580002	-9.730000	940.00	-0.11	-0.13	0.00	0.00	0.00	0.00	0.00	0.00	0.75	0.00	0.00	0.00	0.00	0.00	0.00	0.00	0.00	0.00	0.074219	0.126465	1.545410	154.279999	-387.660004	126.910004	12.00	0.00	0.00
3.42	6.25	7.00	8.00	8.00	7.75	9.00	2.25	8.25	1.75	2.75	2.00	2.25	7.50	0.00	0.00	1.00	-0.164062	0.092773	0.939941	-14.350000	30.380001	-9.590000	891.00	-0.11	-0.14	0.00	0.00	0.00	0.00	0.00	0.00	0.75	0.00	0.00	0.00	0.00	0.00	0.00	0.00	0.00	0.00	-0.068359	-0.003418	1.635254	159.039993	-390.739990	117.809998	12.00	0.00	0.00
3.43	4.50	6.00	6.75	6.50	6.50	7.75	2.00	7.50	0.75	2.75	2.00	2.25	8.00	0.00	0.00	1.00	-0.162598	0.078613	0.957031	-12.250000	26.670000	-8.260000	772.00	-0.10	-0.15	0.00	0.00	0.00	0.00	0.00	0.00	0.75	0.00	0.00	0.00	0.00	0.00	0.00	0.00	0.00	0.00	-0.116211	-0.071289	1.785645	165.690002	-391.369995	105.489998	12.00	0.00	0.00
3.44	5.00	6.50	7.25	7.50	7.00	8.75	2.75	8.25	3.25	4.75	3.50	4.75	9.25	1.00	0.00	1.50	-0.191406	0.060547	0.975586	-4.760000	23.590000	-4.200000	972.00	-0.06	-0.13	0.00	0.00	0.00	0.00	0.00	0.00	0.75	0.00	0.00	0.00	0.00	0.00	0.00	0.00	0.00	0.00	-0.147949	-0.119141	1.972656	177.589996	-394.100006	91.769997	12.00	0.00	0.00
3.45	3.50	5.25	6.00	5.25	5.75	7.50	2.50	7.75	2.00	4.25	3.00	3.75	9.75	1.25	0.75	3.25	-0.166992	0.083496	0.947266	-1.260000	23.030001	-1.820000	843.00	-0.04	-0.15	0.00	0.00	0.00	0.25	0.00	0.00	0.75	0.00	0.00	0.00	0.00	0.00	0.00	0.00	0.00	0.00	-0.189941	-0.200195	2.147461	191.449997	-398.510010	77.980003	15.00	0.00	0.00
3.46	4.25	5.75	6.75	6.00	6.50	8.25	2.50	7.75	2.00	4.25	3.25	4.50	9.25	0.25	1.00	4.00	-0.169922	0.088867	0.943359	0.560000	22.610001	-0.840000	897.00	-0.05	-0.15	0.00	0.00	0.00	0.00	0.00	0.00	0.75	0.00	0.00	0.00	0.00	0.00	0.00	0.00	0.00	0.00	-0.307129	-0.272461	2.252441	200.059998	-402.989990	65.029999	12.00	0.00	0.00
3.47	2.75	5.00	5.50	4.50	5.00	7.75	2.50	8.00	2.25	5.25	4.00	5.75	10.00	0.75	0.00	3.50	-0.177246	0.105469	0.937500	0.070000	22.330000	-1.330000	855.00	-0.02	-0.16	0.00	0.00	0.00	0.00	0.00	0.00	0.75	0.00	0.00	0.00	0.00	0.00	0.00	0.00	0.00	0.00	-0.499512	-0.306641	2.235352	204.050003	-404.040009	53.549999	12.00	0.00	0.00
3.48	3.50	5.75	6.00	5.50	6.00	8.00	2.50	8.75	4.75	7.75	7.25	8.00	11.25	2.25	1.50	6.00	-0.228027	0.080566	0.957031	0.140000	21.139999	-1.820000	1102.00	0.02	-0.14	0.00	0.00	0.00	0.00	0.00	0.00	0.75	0.00	0.00	0.00	0.00	0.00	0.00	0.00	0.00	0.00	-0.765137	-0.205078	2.303711	209.789993	-394.799988	43.189999	12.00	0.00	0.00
3.49	2.25	4.50	5.00	5.00	5.75	7.75	2.75	8.75	5.00	8.00	7.75	8.50	11.75	2.75	2.25	6.75	-0.184570	0.072266	0.942871	1.960000	19.460001	-0.350000	1095.00	0.05	-0.14	0.00	0.00	0.00	0.00	0.00	0.00	0.75	0.00	0.00	0.00	0.00	0.00	0.00	0.00	0.00	0.00	-1.055176	-0.034180	2.405762	216.229996	-378.070007	37.869999	12.00	0.00	0.00
3.50	3.00	5.25	5.75	5.25	5.50	8.00	2.75	9.00	5.00	8.25	8.00	9.00	12.50	3.00	2.75	7.25	-0.200195	0.073242	0.949707	5.390000	18.760000	1.260000	1157.00	0.04	-0.14	0.00	0.00	0.00	0.00	0.00	0.00	0.75	0.00	0.00	0.00	0.00	0.00	0.00	0.00	0.00	0.00	-1.388672	0.124023	2.478516	217.070007	-359.450012	45.639999	12.00	0.00	0.00
3.51	3.25	5.00	5.50	5.00	5.25	7.75	2.75	9.25	6.00	8.75	8.75	9.50	13.50	3.75	3.25	8.00	-0.197754	0.086914	0.949707	8.470000	18.969999	2.030000	1211.00	0.06	-0.14	0.00	0.00	0.00	0.50	0.00	0.00	0.50	0.00	0.00	0.00	0.00	0.00	0.00	0.00	0.00	0.00	-1.910645	0.565918	2.770508	189.979996	-321.649994	105.769997	14.00	0.00	0.00
3.52	3.25	5.25	5.25	4.75	5.00	7.75	2.50	9.50	6.25	9.25	9.00	10.25	14.25	4.50	3.75	9.00	-0.205078	0.104004	0.944336	10.850000	18.690001	2.380000	1251.00	0.07	-0.14	0.00	0.00	0.00	0.00	0.00	0.00	0.75	0.00	0.00	0.00	0.00	0.00	0.00	0.00	0.00	0.00	-2.300781	0.955566	2.944336	168.839996	-311.010010	150.710007	12.00	0.00	0.00
3.53	1.00	4.25	4.25	2.75	3.75	6.25	2.25	9.00	6.00	9.00	8.75	10.00	13.75	4.00	3.00	9.00	-0.197266	0.099609	0.949219	11.970000	18.410000	2.310000	1104.00	0.09	-0.15	0.00	0.00	0.00	0.00	0.00	0.00	0.50	0.00	0.00	0.00	0.00	0.00	0.00	0.00	0.00	0.00	-3.051270	1.098145	2.862305	169.259995	-310.730011	197.680008	8.00	0.00	0.00
3.54	1.25	4.25	3.50	2.50	3.25	6.25	2.25	9.00	6.25	9.25	9.25	10.50	14.50	5.00	4.00	9.75	-0.214355	0.117188	0.961914	12.040000	19.600000	1.750000	1138.00	0.11	-0.15	0.00	0.00	0.00	0.25	0.00	0.00	0.75	0.00	0.00	0.00	0.00	0.00	0.00	0.00	0.00	0.00	-3.916504	0.716797	2.099609	198.100006	-301.489990	238.279999	15.00	0.00	0.00
3.55	1.25	3.75	3.75	2.25	3.00	6.25	2.25	9.25	6.75	9.75	9.75	11.00	15.25	6.00	5.25	11.00	-0.194336	0.138672	0.959473	11.410000	22.469999	0.490000	1197.00	0.12	-0.15	0.00	0.00	0.00	0.00	0.00	0.00	0.50	0.00	0.00	0.00	0.00	0.00	0.00	0.00	0.00	0.00	-4.679688	-0.185547	1.436035	238.139999	-260.399994	274.329987	8.00	0.00	0.00
3.56	1.00	3.75	3.50	2.00	2.50	5.75	2.00	9.25	7.25	10.25	10.25	11.50	15.50	7.50	5.75	12.00	-0.185059	0.131836	0.985840	10.360000	26.460001	-2.030000	1224.00	0.13	-0.14	0.00	0.00	0.00	0.00	0.00	0.00	0.50	0.00	0.00	0.00	0.00	0.00	0.00	0.00	0.00	0.00	-5.273926	-1.401855	0.924805	244.509995	-188.160004	307.860016	8.00	0.00	0.00
3.57	1.75	3.50	3.25	2.00	2.25	5.25	2.00	9.25	7.50	10.50	10.75	12.00	16.00	8.50	6.75	13.25	-0.193359	0.134277	1.006348	9.940000	32.270000	-5.180000	1269.00	0.14	-0.14	0.00	0.00	0.00	0.00	0.00	0.00	0.50	0.00	0.00	0.00	0.00	0.00	0.00	0.00	0.00	0.00	-5.629395	-2.306641	0.708984	185.220001	-108.570000	327.600006	8.00	0.00	0.00
3.58	0.75	3.25	3.00	1.50	1.75	4.50	1.75	9.00	7.75	11.00	11.00	12.50	16.25	9.50	7.25	14.25	-0.202148	0.112305	1.022461	11.550000	39.900002	-7.140000	1264.00	0.16	-0.14	0.00	0.00	0.00	0.00	0.00	0.00	0.50	0.00	0.00	0.00	0.00	0.00	0.00	0.00	0.00	0.00	-5.562012	-2.614258	0.448730	78.680000	-44.939999	301.559998	8.00	0.00	0.00
3.59	0.00	1.75	2.75	0.75	1.25	3.25	1.25	8.50	8.50	12.25	12.25	14.00	18.00	12.00	9.00	16.75	-0.253418	0.098633	1.058594	22.330000	61.599998	-9.380000	1322.00	0.19	-0.14	0.00	0.00	0.00	0.00	0.00	0.00	0.50	0.00	0.00	0.00	0.00	0.00	0.00	0.00	0.00	0.00	-5.123535	-2.319336	0.142090	6.370000	1.610000	217.490005	8.00	0.00	0.00
3.60	0.00	4.00	3.75	2.25	1.25	3.75	1.25	8.50	9.00	12.50	12.75	14.50	18.25	13.25	9.75	17.50	-0.190430	0.116211	1.098633	35.420002	78.190002	-8.400000	1430.00	0.18	-0.13	0.00	0.00	0.00	0.25	0.00	0.00	0.50	0.00	0.00	0.00	0.00	0.00	0.00	0.00	0.00	0.00	-6.074219	-2.540039	-0.468262	-1.260000	31.430000	94.220001	11.00	0.00	0.00
3.61	1.25	4.00	3.75	2.50	1.25	3.50	1.25	8.00	9.25	12.50	12.75	14.75	18.00	14.25	10.50	18.50	-0.272949	0.177246	1.163086	51.240002	97.370003	-8.540000	1463.00	0.18	-0.13	0.00	0.25	0.00	1.00	0.00	0.00	0.50	0.00	0.00	0.00	0.00	0.00	0.00	0.00	0.00	0.00	-6.097168	-3.788574	0.434570	-107.239998	120.889999	12.530000	23.00	0.00	0.00
3.62	1.25	3.50	3.25	1.75	1.00	2.75	0.75	7.00	9.25	12.50	13.00	14.75	17.75	15.50	11.00	19.25	-0.302246	0.126953	1.256348	67.059998	137.759995	-6.790000	1429.00	0.19	-0.12	1.75	1.25	1.25	1.50	0.00	0.00	0.25	0.00	0.00	0.00	0.00	0.00	0.00	0.00	0.00	0.00	-3.001953	-2.185059	0.200195	-323.540009	228.339996	-26.600000	70.00	-0.32	-0.02
3.63	1.75	2.75	3.25	0.75	1.00	2.25	0.75	5.75	9.00	12.25	13.00	14.75	17.50	16.50	11.50	19.75	-0.293457	0.299805	1.237793	85.050003	186.479996	-9.660000	1397.00	0.20	-0.12	6.00	8.00	3.00	5.25	0.00	0.00	0.25	0.00	0.00	0.00	0.00	0.00	0.00	0.00	0.00	0.00	3.550781	1.182129	2.611816	-217.699997	237.649994	-40.880001	252.00	-0.35	-0.06
3.64	1.50	3.75	3.50	2.00	0.75	1.50	0.75	5.00	8.50	12.00	12.75	14.50	16.75	16.75	12.00	20.00	-0.324219	0.178223	1.193848	88.269997	239.889999	-15.190001	1385.00	0.20	-0.11	18.00	18.50	8.00	10.50	0.25	1.00	0.25	0.00	0.00	0.00	0.00	0.00	0.25	0.00	0.00	0.00	0.189941	-0.677246	1.803711	-168.000000	253.750000	-48.509998	635.00	-0.35	-0.05
3.65	0.25	3.75	3.00	1.50	0.75	1.25	0.75	3.75	8.25	11.25	12.75	14.00	16.00	18.00	12.50	20.50	-0.429199	0.257812	1.279785	86.519997	284.690002	-21.210001	1330.00	0.22	-0.11	23.50	21.75	11.50	14.00	1.75	4.75	0.50	1.00	0.00	0.00	0.00	0.25	0.50	0.00	0.00	0.00	-1.748047	0.794434	4.885742	-116.900002	392.700012	-80.779999	903.00	-0.32	-0.06
