# time	left pressure 1[N/cm²]	left pressure 2[N/cm²]	left pressure 3[N/cm²]	left pressure 4[N/cm²]	left pressure 5[N/cm²]	left pressure 6[N/cm²]	left pressure 7[N/cm²]	left pressure 8[N/cm²]	left pressure 9[N/cm²]	left pressure 10[N/cm²]	left pressure 11[N/cm²]	left pressure 12[N/cm²]	left pressure 13[N/cm²]	left pressure 14[N/cm²]	left pressure 15[N/cm²]	left pressure 16[N/cm²]	left acceleration X[g]	left acceleration Y[g]	left acceleration Z[g]	left angular X[dps]	left angular Y[dps]	left angular Z[dps]	left total force[N]	left center of pressure X[%]	left center of pressure Y[%]	right pressure 1[N/cm²]	right pressure 2[N/cm²]	right pressure 3[N/cm²]	right pressure 4[N/cm²]	right pressure 5[N/cm²]	right pressure 6[N/cm²]	right pressure 7[N/cm²]	right pressure 8[N/cm²]	right pressure 9[N/cm²]	right pressure 10[N/cm²]	right pressure 11[N/cm²]	right pressure 12[N/cm²]	right pressure 13[N/cm²]	right pressure 14[N/cm²]	right pressure 15[N/cm²]	right pressure 16[N/cm²]	right acceleration X[g]	right acceleration Y[g]	right acceleration Z[g]	right angular X[dps]	right angular Y[dps]	right angular Z[dps]	right total force[N]	right center of pressure X[%]	right center of pressure Y[%]
0.00																										1.00	1.00	1.50	1.25	2.00	1.25	0.00	1.75	5.25	6.00	6.00	4.25	5.00	5.00	1.00	1.75	-0.208008	0.116211	0.959473	-2.590000	-3.360000	2.450000	457.00	0.15	-0.06
0.01																										1.25	1.25	1.50	1.75	2.00	1.00	0.00	1.75	5.25	6.25	6.25	4.00	5.00	5.00	0.75	1.50	-0.208984	0.114746	0.965332	-2.590000	-3.220000	2.520000	463.00	0.14	-0.06
0.03																										1.00	1.00	1.50	1.75	2.25	1.00	0.00	1.75	5.25	6.50	6.00	4.25	5.00	5.00	1.00	1.50	-0.208008	0.107910	0.959961	-2.520000	-3.150000	2.520000	466.00	0.14	-0.06
0.04	1.50	1.00	2.00	1.00	1.50	0.50	0.50	0.75	4.75	4.00	5.50	5.00	3.50	5.00	0.75	1.00	-0.281250	0.097656	0.934570	-1.680000	6.580000	-1.400000	399.00	0.14	-0.04																									
0.05	1.50	1.00	2.00	1.25	1.50	0.50	0.50	0.75	4.75	4.25	5.50	5.00	3.50	5.00	0.50	1.25	-0.279785	0.101562	0.937500	-1.610000	6.370000	-1.330000	403.00	0.14	-0.04	1.00	1.00	1.25	1.25	2.00	1.00	0.00	2.00	5.50	6.00	6.00	4.00	5.00	5.25	1.00	1.50	-0.210449	0.117676	0.955078	-2.380000	-2.940000	2.590000	457.00	0.15	-0.06
0.06																										1.00	1.50	1.50	1.50	2.00	1.00	0.00	1.75	5.50	6.00	6.00	4.00	5.00	5.00	1.00	1.50	-0.213379	0.115723	0.960938	-2.380000	-3.010000	2.520000	461.00	0.14	-0.06
0.07	1.50	1.25	1.75	1.25	1.50	0.75	0.50	0.75	4.75	4.00	5.75	5.50	3.25	4.75	0.75	1.00	-0.281738	0.102539	0.932129	-1.610000	6.230000	-1.260000	408.00	0.14	-0.04	1.25	1.25	1.25	1.75	2.00	1.00	0.00	1.50	5.25	6.00	6.00	4.25	4.75	5.25	1.00	1.50	-0.207031	0.118164	0.958496	-2.450000	-3.010000	2.520000	457.00	0.14	-0.06
0.08	1.50	0.75	1.75	1.25	1.50	0.75	0.50	0.50	4.75	4.00	5.75	5.25	3.50	5.00	0.75	1.25	-0.278809	0.102539	0.928711	-1.400000	6.300000	-1.330000	403.00	0.15	-0.04	1.00	1.25	1.25	1.50	2.25	1.00	0.00	1.75	5.50	6.25	6.00	4.00	4.75	5.00	1.00	1.50	-0.211914	0.111328	0.963379	-2.380000	-2.940000	2.520000	459.00	0.14	-0.06
0.09	1.25	1.25	1.75	1.00	1.50	0.75	0.50	0.75	4.50	4.00	5.50	5.25	3.25	4.75	0.75	1.00	-0.285645	0.096680	0.932129	-1.610000	6.720000	-1.470000	394.00	0.14	-0.04	1.00	1.25	1.50	1.50	2.00	1.00	0.00	1.50	5.75	6.25	6.50	4.00	4.75	5.25	1.00	1.50	-0.204102	0.114258	0.959961	-2.660000	-3.150000	2.450000	466.00	0.15	-0.05
0.10	1.50	1.50	2.00	1.25	1.50	0.75	0.50	0.75	4.50	4.00	5.75	5.25	3.25	4.75	0.75	1.25	-0.280762	0.096680	0.932129	-1.400000	6.300000	-1.330000	409.00	0.13	-0.05	1.00	1.25	1.75	2.00	1.75	1.00	0.00	1.75	5.50	6.25	6.25	4.00	5.00	5.25	1.00	1.50	-0.207031	0.122070	0.954590	-2.730000	-3.360000	2.520000	471.00	0.14	-0.06
0.11	1.50	1.25	2.00	1.25	1.50	0.75	0.50	0.75	4.75	3.75	5.75	5.25	3.25	5.00	0.50	1.25	-0.279785	0.098633	0.935059	-1.190000	5.950000	-1.190000	406.00	0.13	-0.04	1.25	1.00	1.50	1.50	2.00	1.00	0.00	1.75	5.75	6.00	6.25	4.00	4.75	5.25	0.75	1.75	-0.209473	0.119141	0.959961	-2.730000	-3.290000	2.520000	463.00	0.14	-0.05
0.12	1.50	0.75	2.00	1.00	1.50	0.75	0.50	0.50	4.50	4.00	5.75	5.50	3.25	4.75	0.50	1.25	-0.285645	0.100586	0.935059	-1.190000	5.880000	-1.330000	395.00	0.14	-0.04	1.00	1.25	1.50	1.75	2.00	1.00	0.00	1.75	5.50	6.25	6.25	3.75	4.75	5.25	0.75	1.50	-0.208984	0.116699	0.958496	-2.660000	-3.220000	2.380000	461.00	0.14	-0.05
0.13	1.50	1.25	2.00	1.25	1.50	0.75	0.50	0.75	4.75	4.25	6.00	5.25	3.25	5.00	0.75	1.00	-0.281250	0.098145	0.934570	-1.400000	6.160000	-1.400000	415.00	0.13	-0.04	1.00	1.00	1.50	1.25	2.00	1.00	0.00	1.75	5.75	6.50	6.25	4.00	4.75	5.25	0.75	1.75	-0.212891	0.111328	0.960449	-2.660000	-3.080000	2.450000	463.00	0.15	-0.05
0.14	1.50	1.25	2.00	1.25	1.50	0.75	0.50	0.75	4.50	4.00	5.75	5.50	3.25	5.00	0.75	1.25	-0.280273	0.099121	0.929199	-1.470000	6.300000	-1.470000	411.00	0.13	-0.05	1.25	1.25	1.50	1.75	2.00	0.75	0.00	1.50	5.75	6.25	6.25	4.25	4.75	5.25	1.00	1.75	-0.212402	0.119141	0.958496	-2.520000	-3.010000	2.450000	470.00	0.14	-0.05
0.15	1.25	1.25	1.75	1.00	1.50	0.50	0.50	0.75	4.25	3.75	5.75	5.50	3.50	4.75	0.75	1.25	-0.280273	0.098145	0.931641	-1.400000	6.230000	-1.400000	394.00	0.14	-0.05	1.25	1.00	1.50	1.25	2.00	1.00	0.00	1.75	5.75	6.50	6.50	4.25	4.75	5.50	1.00	1.50	-0.208008	0.116699	0.958008	-2.450000	-2.800000	2.450000	475.00	0.15	-0.05
0.16	1.75	1.00	2.00	1.25	1.50	0.75	0.50	0.75	4.75	4.00	6.00	5.50	3.25	5.00	0.75	1.25	-0.282227	0.100098	0.933105	-1.260000	6.020000	-1.330000	417.00	0.14	-0.04	1.25	1.00	1.50	1.75	1.75	1.00	0.00	1.50	5.75	6.75	6.25	4.00	4.75	5.50	0.75	1.50	-0.202637	0.117676	0.958984	-2.450000	-2.800000	2.520000	468.00	0.15	-0.05
0.17	1.25	1.25	2.00	1.25	1.50	0.50	0.50	0.75	4.75	4.00	6.00	5.50	3.50	4.75	0.75	1.25	-0.286621	0.101562	0.924805	-1.400000	6.090000	-1.330000	412.00	0.14	-0.05	1.00	1.00	1.50	1.50	2.25	1.00	0.00	1.50	6.00	6.50	6.75	4.00	4.75	5.50	0.75	1.50	-0.208984	0.115234	0.962402	-2.450000	-2.800000	2.520000	474.00	0.15	-0.05
0.18	1.25	1.00	2.00	1.25	1.50	0.75	0.50	0.75	4.50	4.00	6.00	5.75	3.25	5.00	0.75	1.25	-0.279785	0.097656	0.930664	-1.330000	6.300000	-1.400000	411.00	0.14	-0.05	1.25	1.00	1.50	2.00	1.75	1.00	0.00	1.75	6.00	7.00	6.50	4.00	4.75	5.25	0.75	1.50	-0.208496	0.116699	0.959473	-2.380000	-2.590000	2.520000	481.00	0.14	-0.05
0.19	1.25	1.00	1.75	1.00	1.50	0.50	0.50	0.50	4.75	4.00	6.25	5.75	3.25	4.75	0.75	1.25	-0.282227	0.101562	0.933105	-1.330000	6.370000	-1.470000	403.00	0.15	-0.04	1.25	1.25	1.25	2.25	2.00	1.00	0.00	1.75	5.75	6.75	7.00	4.00	4.75	5.50	0.75	1.50	-0.208496	0.116699	0.959473	-2.380000	-2.590000	2.520000	488.00	0.14	-0.05
0.20	1.25	1.50	1.75	1.00	1.50	0.75	0.50	0.75	4.50	4.00	6.00	5.75	3.75	5.00	0.50	1.00	-0.282227	0.100098	0.933594	-1.260000	6.510000	-1.470000	411.00	0.14	-0.05	1.00	1.00	1.25	1.25	2.00	1.00	0.00	1.75	6.00	7.00	7.00	4.25	5.00	5.50	0.75	1.50	-0.211914	0.118652	0.959961	-2.310000	-2.520000	2.450000	482.00	0.16	-0.05
0.21	1.25	1.25	2.00	1.00	1.50	0.75	0.50	0.75	4.75	4.25	6.25	5.50	3.50	5.00	0.75	1.25	-0.277344	0.099609	0.927246	-1.330000	6.650000	-1.400000	419.00	0.14	-0.05	1.00	1.00	1.25	1.50	1.75	1.00	0.00	1.75	6.00	6.75	7.00	4.00	5.00	5.50	1.00	1.50	-0.213867	0.114258	0.956055	-2.310000	-2.450000	2.450000	480.00	0.16	-0.05
0.22	1.25	0.75	2.00	1.00	1.25	0.50	0.50	0.75	4.75	4.00	6.25	6.00	3.50	4.75	0.75	1.25	-0.281738	0.104492	0.929688	-1.330000	6.440000	-1.400000	409.00	0.15	-0.05	1.00	1.25	1.50	1.25	1.75	1.00	0.00	1.50	6.00	7.00	7.00	4.25	5.00	5.50	1.00	1.50	-0.207520	0.113770	0.958008	-2.240000	-2.380000	2.450000	484.00	0.16	-0.05
0.23	1.25	1.00	1.75	1.00	1.50	0.75	0.50	0.75	4.50	4.00	6.25	5.75	3.50	5.00	0.75	1.25	-0.282715	0.103027	0.937012	-1.330000	6.300000	-1.400000	411.00	0.15	-0.05	1.25	1.00	1.25	1.50	2.00	1.00	0.00	1.75	6.00	6.75	7.25	4.25	4.75	5.75	1.00	1.50	-0.211914	0.114258	0.957031	-2.240000	-2.310000	2.520000	490.00	0.15	-0.05
0.24	1.50	1.00	2.00	1.25	1.50	0.75	0.50	0.50	4.25	4.00	6.25	6.25	3.50	5.00	0.75	1.25	-0.278320	0.098145	0.937500	-1.400000	6.510000	-1.540000	417.00	0.14	-0.05	0.75	1.00	1.25	1.25	2.00	0.75	0.00	1.50	6.00	7.00	7.25	4.50	4.75	5.50	1.00	1.50	-0.209473	0.114258	0.958008	-2.240000	-2.450000	2.450000	479.00	0.17	-0.05
0.25	1.25	1.25	1.75	1.00	1.50	0.75	0.50	0.75	4.75	4.00	6.25	6.00	3.50	5.00	0.75	1.25	-0.279297	0.100098	0.934082	-1.330000	6.370000	-1.540000	419.00	0.15	-0.05	1.25	0.75	1.50	1.50	2.00	1.00	0.00	1.50	6.25	7.00	7.25	4.25	4.75	5.75	1.00	1.50	-0.209961	0.118652	0.960449	-2.520000	-2.660000	2.520000	493.00	0.16	-0.04
0.26	1.50	1.00	1.75	1.25	1.50	0.50	0.50	0.75	4.75	4.25	6.50	6.25	3.50	5.00	0.50	1.25	-0.276855	0.102539	0.929199	-1.330000	6.230000	-1.470000	424.00	0.14	-0.05	1.00	1.25	1.25	1.25	2.00	0.75	0.00	1.75	6.00	7.00	7.00	4.00	5.00	5.50	1.00	1.75	-0.210449	0.116699	0.958008	-2.380000	-2.800000	2.450000	483.00	0.16	-0.05
0.27	1.50	1.25	2.00	1.25	1.50	0.75	0.50	0.75	4.25	4.00	6.50	6.00	3.75	5.00	0.50	1.25	-0.280273	0.100586	0.937988	-1.400000	5.880000	-1.400000	423.00	0.13	-0.06	0.75	0.75	1.25	1.25	1.75	0.75	0.00	1.50	6.25	7.00	7.00	4.25	5.00	5.75	0.75	1.50	-0.211914	0.117676	0.958496	-2.590000	-3.150000	2.450000	474.00	0.17	-0.04
0.28	1.25	1.25	1.75	1.00	1.50	0.50	0.50	0.75	4.50	4.25	6.75	6.25	3.50	5.00	0.75	1.25	-0.274902	0.101562	0.933594	-1.540000	6.160000	-1.470000	423.00	0.15	-0.05	1.00	1.00	1.75	0.50	1.75	0.75	0.00	1.50	6.25	7.00	7.00	4.00	4.75	5.75	1.00	1.50	-0.208008	0.116211	0.962402	-2.800000	-3.290000	2.590000	474.00	0.17	-0.04
0.29	1.25	1.25	2.00	1.00	1.50	0.75	0.50	0.75	4.75	4.25	6.50	6.25	3.50	5.00	0.75	1.25	-0.279297	0.104980	0.930176	-1.540000	6.230000	-1.470000	429.00	0.14	-0.05	1.00	1.00	1.50	1.50	1.75	1.00	0.00	1.75	6.25	7.00	7.00	4.00	5.00	5.75	1.00	1.50	-0.208984	0.113281	0.954590	-2.660000	-3.150000	2.520000	491.00	0.16	-0.05
0.30	1.25	1.25	1.75	1.00	1.50	0.75	0.50	0.75	5.00	4.25	6.50	6.50	3.75	5.00	0.75	1.25	-0.282227	0.100586	0.932617	-1.540000	6.230000	-1.400000	435.00	0.15	-0.05	1.00	0.75	1.25	1.50	1.75	1.00	0.00	1.50	6.00	7.00	7.00	4.50	4.75	5.75	0.75	1.75	-0.212402	0.117188	0.960449	-2.660000	-3.290000	2.520000	480.00	0.16	-0.05
0.31	1.50	1.25	2.00	1.00	1.50	0.75	0.50	0.75	4.75	4.25	7.25	6.50	3.75	5.00	0.75	1.25	-0.279297	0.093750	0.934082	-1.610000	6.020000	-1.470000	445.00	0.14	-0.05	1.25	1.00	1.25	1.00	1.75	1.00	0.00	1.75	6.25	7.25	7.50	4.25	4.75	5.75	1.00	1.50	-0.209473	0.114746	0.957520	-2.660000	-3.220000	2.520000	493.00	0.16	-0.05
0.32	1.50	1.50	1.75	1.00	1.50	0.75	0.50	0.75	4.75	4.00	7.00	6.50	3.75	5.00	0.75	1.25	-0.280762	0.094727	0.934570	-1.750000	6.230000	-1.470000	439.00	0.14	-0.06	1.00	1.00	1.25	1.50	2.00	0.75	0.00	1.50	6.25	7.25	7.50	4.25	4.75	6.00	1.00	1.25	-0.209473	0.117188	0.959473	-2.660000	-3.080000	2.450000	493.00	0.16	-0.04
0.33	1.50	1.25	1.75	1.00	1.25	0.75	0.50	0.75	5.00	4.25	7.00	6.50	3.75	5.00	0.75	1.25	-0.279297	0.100586	0.932129	-1.890000	6.510000	-1.470000	440.00	0.15	-0.05	1.00	1.25	1.25	1.50	1.75	1.00	0.00	1.75	6.50	7.50	7.50	4.25	5.00	6.00	1.00	1.50	-0.213867	0.115723	0.958984	-2.660000	-3.080000	2.310000	509.00	0.16	-0.05
0.34	1.50	1.00	2.00	1.25	1.50	1.00	0.50	0.75	4.50	4.25	7.00	6.25	3.50	5.00	0.75	1.25	-0.276367	0.100098	0.934570	-1.750000	6.370000	-1.470000	437.00	0.14	-0.05	0.75	0.75	1.25	1.25	2.00	1.00	0.00	2.00	6.50	7.25	7.50	4.25	4.75	5.75	1.00	1.50	-0.206543	0.120605	0.955566	-2.450000	-2.870000	2.310000	498.00	0.17	-0.05
0.35	1.50	1.25	1.75	1.00	1.50	0.50	0.50	0.75	4.75	4.25	6.75	6.50	3.75	5.00	0.75	1.25	-0.280762	0.104492	0.937500	-1.540000	6.230000	-1.470000	434.00	0.15	-0.05	1.00	1.00	1.25	1.25	2.00	0.75	0.00	1.75	6.25	7.25	7.75	4.00	5.00	5.75	0.75	1.25	-0.208496	0.117188	0.964355	-2.450000	-2.870000	2.310000	492.00	0.16	-0.05
0.36	1.25	1.00	2.00	1.00	1.50	0.75	0.50	0.75	5.00	4.50	7.00	6.50	3.75	5.00	0.75	1.25	-0.281250	0.096680	0.935059	-1.680000	6.230000	-1.330000	443.00	0.15	-0.05	0.75	1.00	1.25	1.25	1.75	0.75	0.00	1.75	6.50	7.25	7.50	4.00	4.75	5.75	0.75	1.50	-0.208984	0.118652	0.962402	-2.520000	-2.800000	2.380000	486.00	0.17	-0.04
0.37	1.50	1.25	1.75	1.00	1.75	0.75	0.50	0.75	5.00	4.25	7.00	6.50	3.75	5.00	0.75	1.25	-0.278809	0.099121	0.931641	-1.680000	6.160000	-1.330000	445.00	0.14	-0.05	1.00	1.25	1.25	0.75	1.75	1.00	0.00	1.50	6.25	7.50	7.50	4.25	4.75	5.75	0.75	1.50	-0.208984	0.118652	0.962402	-2.520000	-2.800000	2.380000	486.00	0.17	-0.04
0.38	1.50	1.25	2.00	1.25	1.50	0.50	0.50	0.75	4.75	4.50	7.00	6.50	3.75	5.00	0.75	1.25	-0.274902	0.099121	0.927734	-1.680000	6.090000	-1.260000	445.00	0.14	-0.05	1.00	1.00	1.25	1.50	1.75	0.75	0.00	1.50	6.25	7.50	7.75	4.25	4.75	6.00	1.00	1.50	-0.207031	0.115234	0.957031	-2.520000	-2.870000	2.450000	497.00	0.17	-0.04
0.39	1.50	1.25	1.75	1.25	1.50	0.75	0.50	0.75	5.00	4.50	6.75	6.50	3.75	5.00	0.50	1.25	-0.279785	0.101562	0.937500	-1.610000	6.090000	-1.190000	443.00	0.14	-0.05	0.75	0.50	1.25	1.25	2.00	0.75	0.00	1.75	6.50	7.50	7.50	4.25	5.00	5.75	1.00	1.50	-0.210938	0.115234	0.956543	-2.520000	-3.010000	2.450000	494.00	0.17	-0.04
0.40	1.50	1.00	1.75	1.00	1.25	0.75	0.50	0.75	5.00	4.50	7.00	6.50	3.75	5.00	0.75	1.25	-0.280762	0.099609	0.935547	-1.610000	6.090000	-1.190000	440.00	0.15	-0.05	1.00	0.75	1.25	1.25	1.75	0.75	0.00	1.50	6.50	7.50	7.50	4.25	4.75	6.00	1.00	1.25	-0.208984	0.120605	0.953613	-2.590000	-3.080000	2.520000	491.00	0.17	-0.04
0.41	1.25	1.00	1.75	1.00	1.50	0.75	0.50	0.75	4.75	4.50	7.50	6.50	3.75	5.00	0.75	1.25	-0.280762	0.099609	0.935547	-1.610000	6.090000	-1.190000	442.00	0.15	-0.05	0.75	1.00	1.25	1.00	1.75	0.75	0.00	1.50	6.25	7.50	7.50	4.25	5.00	5.75	1.00	1.50	-0.211914	0.121094	0.961426	-2.590000	-3.010000	2.450000	486.00	0.17	-0.04
0.42	1.50	1.00	1.75	1.00	1.50	0.75	0.50	0.75	4.50	4.50	7.25	6.50	3.75	5.00	1.00	1.25	-0.279297	0.100586	0.932617	-1.610000	6.370000	-1.260000	442.00	0.15	-0.06	1.00	1.00	1.25	1.00	1.75	0.75	0.00	1.50	6.50	7.50	7.75	4.50	4.75	5.75	1.00	1.50	-0.212891	0.115723	0.959473	-2.590000	-3.080000	2.380000	495.00	0.17	-0.04
0.43	1.25	1.00	1.75	1.25	1.50	0.75	0.50	0.75	4.75	4.50	7.25	6.50	3.75	5.00	0.75	1.25	-0.282227	0.096680	0.936035	-1.540000	6.720000	-1.260000	442.00	0.15	-0.06	1.00	0.75	1.00	1.25	2.00	0.75	0.00	1.75	6.50	7.50	7.75	4.50	4.75	6.00	1.00	1.50	-0.211914	0.114258	0.957520	-2.660000	-3.080000	2.450000	502.00	0.17	-0.04
0.44	1.50	1.25	1.75	1.25	1.50	0.50	0.50	0.75	4.75	4.50	7.00	6.50	3.75	5.00	0.75	1.25	-0.279785	0.103516	0.932129	-1.470000	6.720000	-1.120000	442.00	0.15	-0.05	1.00	1.00	1.50	1.00	1.75	1.00	0.00	1.50	6.50	7.50	7.50	4.25	4.75	5.75	1.00	1.50	-0.212891	0.113770	0.957031	-2.520000	-3.080000	2.450000	495.00	0.17	-0.04
0.45	1.25	1.00	1.75	1.00	1.50	0.75	0.50	0.75	4.75	4.25	7.25	6.25	3.75	5.00	0.75	1.25	-0.279297	0.097168	0.937988	-1.610000	6.650000	-1.190000	434.00	0.15	-0.05	0.75	0.75	1.25	1.00	1.75	0.75	0.00	1.75	6.25	7.50	7.50	4.25	4.75	5.75	1.00	1.25	-0.208984	0.121582	0.956543	-2.590000	-3.150000	2.450000	484.00	0.17	-0.04
0.46	1.50	1.00	1.50	1.25	1.50	0.50	0.50	0.75	5.00	4.50	7.25	6.50	3.50	5.00	0.75	1.25	-0.279297	0.096680	0.933105	-1.610000	6.580000	-1.190000	441.00	0.15	-0.05	0.75	0.75	1.75	1.25	2.00	1.00	0.00	1.75	6.25	7.25	7.50	4.25	4.75	5.75	1.00	1.50	-0.210449	0.114258	0.962402	-2.660000	-3.290000	2.380000	497.00	0.16	-0.05
0.47	1.50	1.00	1.75	1.25	1.50	0.75	0.50	0.75	4.75	4.50	7.25	6.50	3.50	5.00	0.75	1.25	-0.281738	0.101562	0.932129	-1.540000	6.440000	-1.190000	443.00	0.15	-0.05	1.00	0.75	1.00	1.25	2.00	0.75	0.00	1.50	6.25	7.00	7.50	4.25	4.75	5.75	1.00	1.50	-0.211426	0.115723	0.960449	-2.660000	-3.290000	2.450000	482.00	0.17	-0.04
0.48	1.50	1.25	1.75	1.00	1.50	0.50	0.50	0.75	5.00	4.00	7.25	6.50	3.50	5.00	0.75	1.25	-0.278809	0.102051	0.929199	-1.680000	6.720000	-1.400000	438.00	0.15	-0.05	1.00	0.50	1.00	1.25	1.75	1.00	0.00	1.75	6.25	7.25	7.50	4.00	4.75	5.75	1.00	1.50	-0.209961	0.118652	0.960938	-2.660000	-3.290000	2.310000	483.00	0.17	-0.05
0.49	1.25	1.25	1.75	1.25	1.50	0.50	0.50	0.75	4.75	4.25	7.25	6.50	3.50	5.00	0.75	1.25	-0.278320	0.098145	0.933105	-1.540000	6.580000	-1.190000	437.00	0.15	-0.05	0.75	0.50	1.00	0.75	1.75	0.75	0.00	1.50	6.25	7.25	7.50	4.00	5.00	6.00	1.00	1.50	-0.209961	0.117676	0.963867	-2.590000	-3.220000	2.380000	473.00	0.18	-0.04
0.50	1.25	1.25	1.75	1.00	1.50	0.50	0.50	0.75	4.75	4.50	7.25	6.50	3.50	5.00	0.75	1.25	-0.278320	0.098145	0.935059	-1.400000	6.440000	-1.050000	437.00	0.15	-0.05	1.00	0.50	1.25	1.25	2.00	1.00	0.00	1.50	6.25	7.25	7.50	4.25	4.75	6.00	1.00	1.25	-0.209961	0.120605	0.965820	-2.590000	-3.290000	2.450000	488.00	0.17	-0.04
0.51	1.25	1.00	1.75	1.00	1.50	0.75	0.50	0.75	5.00	5.00	7.25	6.50	3.50	4.75	0.75	1.25	-0.278809	0.103516	0.932617	-1.610000	6.510000	-1.260000	444.00	0.15	-0.05	0.75	1.00	1.25	1.00	2.00	0.75	0.00	1.50	6.25	7.25	7.50	4.00	5.00	5.75	1.00	1.50	-0.204590	0.114258	0.965332	-2.660000	-3.430000	2.450000	484.00	0.17	-0.04
0.52	1.25	1.25	1.75	1.00	1.25	0.75	0.50	0.75	4.75	4.75	7.25	6.25	3.75	5.00	0.75	1.25	-0.284180	0.100098	0.932129	-1.610000	6.510000	-1.190000	439.00	0.15	-0.05	1.00	0.75	1.25	1.25	1.75	1.00	0.00	1.75	6.25	7.00	7.50	4.25	4.50	6.00	0.75	1.50	-0.212402	0.119629	0.962891	-2.660000	-3.500000	2.380000	486.00	0.17	-0.04
0.53	1.25	1.00	2.00	1.00	1.50	0.75	0.50	0.75	4.75	4.75	7.25	6.50	3.75	5.00	0.75	1.25	-0.279785	0.099609	0.933594	-1.540000	6.370000	-1.050000	445.00	0.15	-0.05	1.00	0.75	1.00	1.00	1.75	0.75	0.00	1.50	6.25	7.50	7.50	4.00	4.75	5.75	1.00	1.25	-0.212402	0.117188	0.952148	-2.730000	-3.500000	2.520000	478.00	0.17	-0.04
0.54	1.50	1.00	2.00	1.00	1.50	0.50	0.50	0.50	5.00	4.75	7.00	6.25	3.50	5.00	0.50	1.25	-0.276367	0.099609	0.932129	-1.610000	6.160000	-1.050000	434.00	0.15	-0.04	1.00	1.25	1.25	1.75	2.00	0.75	0.00	1.75	6.00	7.25	7.50	4.00	5.00	5.75	1.00	1.50	-0.215332	0.121094	0.958008	-2.870000	-3.570000	2.520000	497.00	0.15	-0.05
0.55	1.25	0.75	2.00	1.25	1.50	0.50	0.50	0.50	4.75	4.75	7.00	6.25	3.75	5.00	0.75	1.25	-0.281250	0.100098	0.930176	-1.750000	6.300000	-1.050000	434.00	0.15	-0.05	1.00	0.75	0.75	1.25	2.00	1.00	0.00	1.75	6.25	7.25	7.50	3.75	4.50	5.75	1.00	1.25	-0.210938	0.115234	0.958496	-2.870000	-3.640000	2.450000	479.00	0.17	-0.04
0.56	1.50	1.00	1.75	1.25	1.50	0.50	0.50	0.50	5.00	4.75	7.00	6.50	3.75	5.00	0.75	1.25	-0.278809	0.103027	0.936035	-1.820000	6.370000	-1.120000	442.00	0.15	-0.05	0.75	1.00	1.50	1.25	2.00	1.00	0.00	1.50	6.00	7.25	7.25	4.00	4.50	5.75	1.25	1.25	-0.213379	0.115723	0.958496	-2.870000	-3.570000	2.450000	483.00	0.16	-0.04
0.57	1.25	1.00	2.00	1.25	1.50	0.75	0.50	0.75	5.00	5.00	7.25	6.25	3.50	5.00	0.75	1.25	-0.283691	0.095703	0.930664	-1.890000	6.580000	-1.190000	449.00	0.15	-0.05	1.00	0.75	1.25	1.50	2.00	0.75	0.00	1.75	6.25	7.50	7.50	4.00	4.75	5.75	1.00	1.50	-0.211426	0.116699	0.963867	-2.800000	-3.570000	2.450000	494.00	0.16	-0.04
0.58	1.50	1.25	1.75	1.25	1.50	0.50	0.50	0.75	5.00	4.75	7.25	6.25	3.50	5.00	0.75	1.25	-0.285156	0.094727	0.937500	-1.820000	6.580000	-1.260000	446.00	0.15	-0.05	1.00	1.25	1.25	1.00	1.75	1.00	0.25	1.75	6.50	7.00	7.25	4.00	4.50	5.75	0.75	1.50	-0.208008	0.116211	0.961426	-2.660000	-3.500000	2.450000	487.00	0.16	-0.04
0.59	1.50	1.25	2.00	1.25	1.50	0.50	0.50	0.50	4.75	4.75	7.00	6.25	3.50	5.00	0.75	1.25	-0.279785	0.097656	0.927734	-1.680000	6.650000	-1.260000	439.00	0.14	-0.05	1.25	0.75	1.00	1.50	2.00	1.00	0.00	1.50	6.25	7.25	7.50	4.00	4.75	5.75	0.75	1.25	-0.205566	0.117676	0.962402	-2.520000	-3.360000	2.520000	486.00	0.16	-0.04
0.60	1.25	1.25	1.75	1.25	1.50	0.75	0.50	0.75	4.75	5.00	7.00	6.25	3.50	5.00	0.75	1.25	-0.278320	0.104980	0.937500	-1.680000	6.510000	-1.190000	442.00	0.15	-0.05	1.00	1.00	1.25	1.25	2.00	0.75	0.00	1.75	6.25	7.00	7.50	3.75	4.50	5.50	0.75	1.25	-0.206055	0.114258	0.965820	-2.520000	-3.220000	2.520000	477.00	0.16	-0.04
0.61	1.25	1.00	1.75	1.25	1.50	0.50	0.50	0.75	4.75	5.00	7.25	6.25	3.75	5.00	0.50	1.25	-0.277344	0.099121	0.931641	-1.610000	6.580000	-1.330000	440.00	0.15	-0.05	1.00	1.00	1.50	1.25	2.00	0.75	0.00	1.50	6.25	7.25	7.25	4.25	4.50	5.75	1.00	1.50	-0.214355	0.117676	0.961426	-2.520000	-3.360000	2.520000	488.00	0.16	-0.04
0.62	1.25	1.00	1.75	1.25	1.50	0.50	0.50	0.75	5.00	5.00	7.25	6.50	3.50	5.00	0.50	1.25	-0.280762	0.095215	0.935059	-1.750000	6.440000	-1.330000	443.00	0.15	-0.05	1.50	1.00	1.25	1.25	2.00	0.75	0.00	1.50	6.25	7.00	7.00	4.00	4.50	5.75	0.75	1.50	-0.206055	0.117676	0.957520	-2.520000	-3.290000	2.450000	479.00	0.16	-0.04
0.63	1.25	1.00	1.75	1.00	1.50	0.50	0.50	0.50	4.50	4.75	7.25	6.25	3.50	5.00	0.75	1.25	-0.280273	0.099121	0.939453	-1.820000	6.440000	-1.260000	428.00	0.16	-0.05	1.25	0.75	1.00	1.50	2.00	0.75	0.00	1.50	6.00	7.25	7.00	3.75	4.75	5.75	0.75	1.50	-0.211426	0.115234	0.961914	-2.730000	-3.290000	2.660000	473.00	0.16	-0.04
0.64	1.25	1.00	1.75	1.25	1.50	0.75	0.50	0.75	5.00	5.00	7.25	6.25	3.50	4.75	0.75	1.25	-0.282715	0.103027	0.935059	-1.960000	6.580000	-1.260000	444.00	0.15	-0.05	1.25	0.25	1.50	1.25	2.00	1.00	0.00	1.50	6.00	7.00	7.00	3.75	4.75	5.75	1.00	1.25	-0.209961	0.118652	0.961426	-2.660000	-3.500000	2.590000	473.00	0.16	-0.04
0.65	1.25	1.50	2.00	1.25	1.50	0.50	0.50	0.50	5.00	4.75	7.00	6.50	3.50	5.00	0.75	1.25	-0.284668	0.095215	0.936035	-1.680000	6.300000	-1.120000	444.00	0.15	-0.05	1.00	0.75	1.50	1.50	2.00	1.00	0.00	1.75	6.00	6.75	7.00	3.75	4.75	5.75	1.00	1.50	-0.211426	0.116699	0.961914	-2.590000	-3.640000	2.520000	480.00	0.16	-0.05
0.66	1.25	1.25	1.75	1.25	1.50	0.50	0.50	0.50	5.00	4.50	7.00	6.25	3.50	5.00	0.75	1.25	-0.285156	0.097168	0.934082	-1.610000	6.020000	-1.120000	434.00	0.15	-0.05	1.00	1.00	1.50	1.50	2.00	1.00	0.00	1.75	6.00	7.00	7.00	3.75	4.75	5.50	1.00	1.50	-0.210938	0.115234	0.958496	-2.590000	-3.570000	2.520000	483.00	0.15	-0.05
0.67	1.25	1.50	2.00	1.25	1.50	0.50	0.50	0.50	5.00	4.75	7.25	6.25	3.25	5.00	0.75	1.25	-0.278320	0.097656	0.937012	-1.680000	6.160000	-1.260000	442.00	0.15	-0.04	1.25	1.25	1.50	1.25	2.00	1.25	0.00	1.50	5.75	6.75	6.75	4.00	4.50	5.75	0.75	1.50	-0.206055	0.114746	0.960449	-2.660000	-3.430000	2.660000	476.00	0.15	-0.05
0.68	1.25	1.25	2.00	1.25	1.50	0.75	0.50	0.75	5.00	4.75	7.00	6.25	3.50	5.00	0.75	1.25	-0.281250	0.095703	0.935547	-1.750000	6.160000	-1.260000	446.00	0.14	-0.05	1.00	1.00	1.25	1.75	2.00	1.25	0.00	1.75	6.00	7.25	7.00	4.00	4.25	5.75	1.00	1.25	-0.204102	0.120117	0.957520	-2.450000	-3.150000	2.520000	487.00	0.15	-0.05
0.69	1.25	1.25	2.00	1.00	1.50	0.50	0.50	0.75	5.00	5.00	7.00	6.50	3.25	5.00	0.75	1.00	-0.283691	0.102051	0.933105	-1.750000	6.300000	-1.260000	442.00	0.15	-0.04	1.25	1.25	1.50	1.25	2.25	1.00	0.00	1.75	6.00	7.00	6.75	3.75	4.50	5.75	0.75	1.25	-0.209473	0.116699	0.962891	-2.240000	-3.080000	2.520000	481.00	0.15	-0.04
0.70	1.50	1.25	2.00	1.25	1.50	0.50	0.50	0.50	5.00	4.75	7.25	6.25	3.50	5.00	0.75	1.25	-0.273926	0.097656	0.935547	-1.890000	6.370000	-1.260000	445.00	0.15	-0.04	1.25	1.50	1.50	1.75	2.00	1.25	0.00	1.75	5.75	6.75	6.75	3.75	4.75	5.50	0.75	1.25	-0.211426	0.112793	0.958984	-2.380000	-3.080000	2.520000	483.00	0.14	-0.05
0.71	1.25	1.25	2.00	1.50	1.50	0.50	0.50	0.50	5.00	4.75	7.25	6.00	3.50	5.00	0.75	1.25	-0.282227	0.097656	0.928711	-1.820000	6.580000	-1.330000	442.00	0.15	-0.04	1.25	0.50	1.50	1.75	2.00	1.25	0.00	1.50	5.75	7.00	6.50	3.50	4.50	5.75	0.75	1.50	-0.208008	0.114746	0.959473	-2.450000	-3.080000	2.590000	469.00	0.15	-0.04
0.72	1.50	1.00	2.00	1.25	1.50	0.75	0.50	0.75	4.75	4.75	7.00	6.25	3.50	4.75	0.75	1.00	-0.279785	0.098633	0.930664	-1.890000	6.580000	-1.330000	439.00	0.14	-0.05	1.25	1.00	1.50	1.50	2.00	1.50	0.00	1.50	6.00	7.00	6.50	3.75	4.50	5.50	0.75	1.50	-0.211426	0.113281	0.958984	-2.450000	-3.080000	2.450000	477.00	0.15	-0.04
0.73	1.50	1.00	2.00	1.25	1.75	0.75	0.50	0.75	4.75	4.75	7.00	6.25	3.50	5.00	0.75	1.25	-0.283203	0.101074	0.931641	-1.750000	6.300000	-1.260000	446.00	0.14	-0.05	1.00	1.00	1.50	1.50	2.00	1.25	0.00	1.75	5.75	6.50	6.50	3.50	4.50	5.50	0.75	1.25	-0.203125	0.115723	0.962402	-2.520000	-3.080000	2.520000	463.00	0.15	-0.05
0.74	1.50	1.00	1.75	1.00	1.50	0.50	0.50	0.75	5.00	4.75	7.00	6.25	3.50	5.00	0.75	1.25	-0.281738	0.096680	0.933105	-1.820000	6.300000	-1.260000	438.00	0.15	-0.05	1.00	1.25	1.25	2.00	2.00	1.00	0.00	1.75	6.00	6.75	6.50	3.75	4.50	5.50	0.75	1.50	-0.209961	0.118164	0.960938	-2.520000	-3.220000	2.450000	475.00	0.15	-0.05
0.75	1.50	1.25	2.00	1.25	1.50	0.50	0.50	0.50	5.00	4.75	6.75	6.00	3.25	5.00	0.75	1.25	-0.281738	0.097168	0.930664	-1.960000	6.580000	-1.470000	435.00	0.14	-0.04	1.25	0.75	1.50	2.00	2.00	1.00	0.00	1.75	5.75	6.75	6.50	3.75	4.50	5.50	1.00	1.25	-0.209473	0.119629	0.958984	-2.590000	-3.220000	2.590000	474.00	0.15	-0.05
0.76	1.50	1.00	2.25	1.25	1.50	0.75	0.50	0.75	5.00	4.75	7.00	6.25	3.25	5.00	0.75	1.25	-0.282715	0.103516	0.932617	-1.820000	6.580000	-1.540000	447.00	0.14	-0.04	1.25	1.00	1.00	2.00	2.00	1.25	0.00	1.50	5.75	6.50	6.25	3.75	4.75	5.50	0.75	1.25	-0.214355	0.114258	0.964844	-2.590000	-3.150000	2.520000	464.00	0.14	-0.05
0.77	1.50	1.25	1.75	1.25	1.50	0.75	0.50	0.75	5.00	4.50	7.00	6.25	3.25	4.75	0.75	1.25	-0.281250	0.093262	0.931641	-1.750000	6.510000	-1.470000	439.00	0.14	-0.05	1.50	0.75	1.50	1.75	2.25	1.00	0.00	1.50	5.75	6.75	6.50	3.75	4.75	5.50	0.75	1.25	-0.211426	0.113281	0.962891	-2.520000	-3.150000	2.450000	473.00	0.14	-0.04
0.78	1.50	1.00	2.00	1.25	1.75	0.75	0.50	0.75	5.00	5.25	6.75	6.25	3.25	4.75	0.50	1.00	-0.282715	0.096680	0.936035	-1.750000	6.510000	-1.330000	443.00	0.14	-0.04	1.50	1.00	1.25	2.00	2.00	1.25	0.00	1.75	5.75	6.50	6.50	3.50	4.50	5.50	0.75	1.25	-0.208008	0.118164	0.955078	-2.590000	-3.360000	2.380000	471.00	0.14	-0.05
0.79	1.50	1.50	2.25	1.25	1.75	0.75	0.50	0.75	5.00	5.00	7.00	6.00	3.50	4.75	0.75	1.25	-0.284180	0.100586	0.935059	-1.820000	6.370000	-1.260000	454.00	0.13	-0.05	1.25	1.50	1.50	1.75	2.00	1.00	0.00	1.50	5.75	6.75	6.25	3.50	4.50	5.25	0.75	1.25	-0.208008	0.118164	0.955078	-2.590000	-3.500000	2.520000	465.00	0.14	-0.04
0.80	1.50	1.50	2.00	1.50	1.50	0.75	0.50	0.75	4.75	5.00	7.00	6.00	3.25	5.00	0.75	1.25	-0.278809	0.098145	0.933105	-1.890000	6.300000	-1.330000	448.00	0.14	-0.05	1.25	1.00	1.50	2.00	2.25	1.00	0.00	1.75	5.75	6.25	6.25	3.75	4.25	5.75	0.25	1.25	-0.211426	0.112793	0.958984	-2.800000	-3.780000	2.520000	464.00	0.14	-0.04
0.81	1.50	1.25	2.00	1.00	1.50	0.50	0.50	0.75	4.75	4.75	6.75	6.00	3.25	5.00	0.50	1.25	-0.276855	0.092285	0.929688	-1.750000	6.370000	-1.330000	430.00	0.14	-0.04	1.50	1.00	1.50	2.00	2.00	1.00	0.00	1.50	5.75	6.25	6.25	3.50	4.50	5.50	0.50	1.25	-0.209473	0.115234	0.959961	-2.940000	-3.780000	2.590000	460.00	0.14	-0.04
0.82	1.50	1.00	2.00	1.25	1.75	0.50	0.50	0.75	4.75	4.75	7.00	6.00	3.00	5.00	0.75	1.25	-0.279785	0.096191	0.933105	-1.820000	6.370000	-1.400000	436.00	0.14	-0.04	1.50	1.75	1.75	2.00	2.25	1.25	0.00	1.75	5.50	6.25	6.00	3.75	4.50	5.50	0.75	1.25	-0.213867	0.122559	0.957031	-3.010000	-4.060000	2.590000	478.00	0.12	-0.05
0.83	1.50	1.50	2.00	1.25	1.75	0.75	0.50	0.50	5.00	4.75	6.50	5.75	3.25	5.00	0.50	1.00	-0.277344	0.098633	0.936523	-1.960000	6.370000	-1.330000	433.00	0.13	-0.04	1.50	1.00	1.50	1.75	2.25	1.25	0.00	1.75	5.50	6.50	6.00	3.50	4.50	5.75	0.75	1.25	-0.209473	0.117676	0.953125	-3.150000	-4.480000	2.660000	468.00	0.14	-0.05
0.84	1.50	1.50	2.00	1.75	1.50	0.75	0.50	0.75	4.75	5.00	6.50	5.75	3.25	4.75	0.50	1.00	-0.283691	0.097168	0.936035	-1.960000	6.510000	-1.260000	437.00	0.13	-0.05	1.25	1.25	1.75	1.75	2.00	1.50	0.00	1.75	5.50	6.25	5.75	3.25	4.25	5.50	0.75	1.25	-0.206543	0.119629	0.962891	-3.290000	-4.620000	2.800000	458.00	0.13	-0.05
0.85	1.50	1.50	2.25	1.25	1.50	0.75	0.75	0.50	4.50	4.50	6.50	5.75	3.00	4.75	0.75	1.25	-0.281250	0.100586	0.937500	-2.030000	7.000000	-1.190000	427.00	0.13	-0.04	1.50	1.00	1.75	2.00	2.25	1.25	0.00	1.75	5.25	6.00	5.75	3.75	4.25	5.50	0.75	1.25	-0.212402	0.113281	0.958984	-3.430000	-4.900000	2.870000	460.00	0.13	-0.05
0.86	1.50	1.25	2.25	1.50	1.50	0.75	0.50	0.50	4.50	4.50	6.50	5.75	3.25	4.75	0.50	1.00	-0.283691	0.097168	0.932617	-2.030000	7.350000	-1.120000	422.00	0.13	-0.04	1.50	1.25	2.00	2.25	2.25	1.50	0.00	1.75	5.50	6.25	5.75	3.50	4.25	5.50	0.75	1.25	-0.213379	0.113281	0.953613	-3.570000	-5.320000	3.010000	474.00	0.12	-0.05
0.87	1.50	1.50	2.25	1.25	1.50	0.75	0.50	0.50	4.25	4.25	6.00	5.50	3.00	4.25	0.50	1.00	-0.282227	0.096191	0.930176	-2.100000	8.050000	-1.050000	402.00	0.12	-0.04	1.75	1.25	1.75	2.75	2.25	1.75	0.00	1.75	5.25	6.00	5.50	3.00	4.25	5.25	0.75	1.25	-0.206543	0.107910	0.957520	-3.780000	-6.020000	3.220000	466.00	0.11	-0.05
0.88	1.75	1.50	2.25	1.25	1.50	0.50	0.50	0.50	4.25	4.25	5.75	5.25	2.75	4.50	0.50	1.00	-0.284180	0.094727	0.933594	-1.820000	8.330000	-0.770000	396.00	0.12	-0.04	1.75	0.75	2.25	3.25	2.50	1.75	0.00	1.75	5.25	5.25	5.25	3.00	4.00	5.25	0.75	1.25	-0.212891	0.116211	0.962402	-3.710000	-6.720000	3.640000	463.00	0.10	-0.05
0.89	1.75	1.50	2.25	1.50	1.50	0.50	0.50	0.50	3.75	3.75	5.50	5.25	2.75	4.00	0.75	1.00	-0.277832	0.101562	0.932129	-1.680000	8.820000	-0.770000	383.00	0.11	-0.05	1.75	1.75	2.25	3.25	2.75	2.25	0.25	2.00	5.00	5.50	4.75	3.00	4.25	5.00	1.00	1.00	-0.212402	0.116699	0.958496	-3.780000	-7.140000	3.780000	483.00	0.08	-0.06
0.90	2.00	1.50	2.25	1.25	1.50	0.75	0.50	0.50	3.50	3.75	5.00	5.00	2.50	3.75	0.50	0.75	-0.286133	0.103516	0.928711	-1.960000	9.170000	-0.770000	366.00	0.10	-0.04	2.25	2.00	2.50	3.25	2.75	2.25	0.00	1.75	5.00	5.25	4.50	2.75	4.25	5.00	0.50	1.00	-0.209473	0.116211	0.950684	-3.710000	-7.350000	3.920000	473.00	0.07	-0.05
0.91	1.75	1.50	2.25	1.50	1.50	0.75	0.50	0.50	3.25	3.25	4.50	4.50	2.25	3.50	0.50	0.50	-0.287598	0.096680	0.934082	-2.170000	8.890000	-0.630000	342.00	0.09	-0.04	2.75	2.00	3.00	4.25	3.00	2.50	0.00	2.00	5.00	4.75	4.00	2.25	3.75	5.00	0.75	1.00	-0.200684	0.119629	0.961914	-3.570000	-7.350000	4.060000	486.00	0.04	-0.05
0.92	1.75	1.75	2.50	1.75	1.50	0.75	0.75	0.50	3.00	3.00	4.00	4.25	2.25	3.50	0.50	0.75	-0.280762	0.102051	0.936035	-2.310000	8.540000	-0.490000	341.00	0.08	-0.04	2.50	2.50	3.00	4.75	3.00	3.00	0.00	2.00	4.75	4.50	3.75	2.00	3.75	4.75	0.75	0.75	-0.209473	0.116699	0.966309	-3.220000	-6.790000	3.990000	485.00	0.03	-0.06
0.93	2.00	1.50	2.50	1.75	1.50	0.75	0.50	0.50	2.25	2.75	3.75	3.75	2.00	3.25	0.25	0.50	-0.284668	0.098633	0.933105	-2.170000	8.890000	-0.630000	309.00	0.06	-0.05	3.50	3.50	3.75	5.25	3.50	3.25	0.00	2.00	4.50	4.25	3.50	2.00	3.75	4.50	0.75	0.75	-0.203613	0.113281	0.965820	-2.940000	-6.230000	3.850000	516.00	-0.00	-0.06
0.94	2.00	1.75	2.50	1.50	1.50	0.75	0.50	0.25	2.25	2.75	3.00	3.25	1.75	2.75	0.50	0.50	-0.285645	0.098633	0.937012	-1.680000	9.590000	-0.560000	288.00	0.05	-0.04	4.25	4.25	3.75	6.00	3.50	3.75	0.25	2.00	4.25	3.75	3.00	2.00	3.50	4.25	0.50	0.75	-0.206543	0.121582	0.966797	-2.380000	-5.810000	3.710000	527.00	-0.03	-0.06
0.95	2.25	2.00	2.75	2.00	1.50	0.75	0.50	0.25	2.25	2.25	2.75	2.75	1.75	2.50	0.25	0.50	-0.283203	0.106934	0.934570	-1.750000	10.290000	-0.560000	283.00	0.02	-0.04	5.25	4.50	4.25	6.25	4.00	4.00	0.00	2.25	3.75	3.50	2.75	1.75	3.25	3.75	0.75	0.75	-0.200684	0.112305	0.967773	-1.470000	-5.040000	3.850000	538.00	-0.06	-0.07
0.96	2.25	1.75	2.50	1.75	1.25	0.50	0.50	0.50	2.00	1.75	2.50	2.50	1.50	2.50	0.25	0.50	-0.276367	0.098633	0.939453	-2.310000	10.570000	-0.630000	257.00	0.02	-0.04	6.00	5.25	4.50	7.25	4.00	4.25	0.00	2.00	3.50	3.25	2.25	1.50	3.25	3.50	0.50	0.75	-0.206543	0.109375	0.966309	-0.560000	-4.130000	4.060000	547.00	-0.08	-0.07
0.97	2.25	2.00	2.50	1.50	1.50	0.50	0.50	0.25	1.50	2.00	2.00	2.00	1.50	2.25	0.25	0.25	-0.279297	0.096191	0.937500	-2.520000	10.430000	-0.980000	238.00	-0.00	-0.03	6.75	5.25	4.75	7.75	4.25	4.75	0.00	2.25	3.25	3.00	2.00	1.50	3.00	3.50	0.50	0.75	-0.283203	-0.062988	1.021973	0.490000	-3.150000	4.060000	564.00	-0.10	-0.07
0.98	2.25	1.50	2.50	1.75	1.50	0.25	0.50	0.25	1.75	1.75	1.75	2.00	1.00	2.00	0.50	0.25	-0.285645	0.094727	0.925781	-2.450000	10.010000	-0.980000	228.00	-0.00	-0.02	7.00	5.75	5.25	8.00	4.25	5.00	0.25	2.25	3.00	2.75	2.25	1.00	3.25	3.25	0.50	0.50	-0.277832	0.097656	0.959473	1.190000	-2.520000	3.780000	577.00	-0.11	-0.07
0.99	2.25	1.75	2.50	1.50	1.25	0.50	0.50	0.00	1.25	1.50	1.50	1.75	1.00	2.25	0.25	0.25	-0.285645	0.095703	0.931641	-2.310000	9.870000	-1.120000	208.00	-0.02	-0.02	7.25	5.75	5.25	8.25	4.50	5.00	0.00	2.25	3.00	2.75	2.00	1.25	2.75	3.50	0.50	0.50	-0.190918	0.123535	0.961914	-1.400000	-3.780000	2.870000	579.00	-0.11	-0.07
1.00	2.25	1.50	2.25	1.25	1.25	0.25	0.50	0.00	1.25	1.50	1.50	1.75	1.00	2.25	0.25	0.25	-0.298340	0.098633	0.931152	-2.100000	9.520000	-0.980000	198.00	-0.01	-0.01	7.75	5.75	5.50	8.75	4.50	5.25	0.00	2.25	2.50	2.75	2.25	1.50	3.25	3.25	0.25	0.75	-0.205078	0.121094	0.961426	-2.030000	-3.920000	2.940000	594.00	-0.12	-0.08
1.01	2.25	1.75	2.50	1.50	1.00	0.25	0.50	0.00	1.25	1.50	1.50	1.25	1.00	1.75	0.25	0.00	-0.307129	0.091797	0.934082	-0.980000	9.940000	-0.630000	192.00	-0.03	-0.01	7.75	6.25	6.00	9.00	4.50	5.50	0.00	2.50	2.75	2.25	1.75	1.50	3.00	3.25	0.75	0.50	-0.208496	0.113770	0.966309	-1.890000	-3.990000	2.940000	609.00	-0.12	-0.08
1.02	2.25	1.75	2.25	1.75	1.25	0.50	0.50	0.00	0.75	1.25	1.25	1.00	0.75	1.75	0.25	0.00	-0.300293	0.098633	0.937988	0.210000	10.150000	-0.210000	181.00	-0.06	-0.01	8.25	7.25	6.00	9.25	4.75	5.75	0.00	2.50	2.50	2.25	1.75	1.00	2.75	3.25	0.50	0.50	-0.129883	0.102051	1.016602	-0.000000	-2.730000	1.470000	618.00	-0.14	-0.08
1.03	2.25	1.50	2.25	1.50	1.25	0.50	0.50	0.00	0.75	1.25	1.00	0.75	0.75	1.50	0.25	0.00	-0.290527	0.095703	0.935059	1.400000	10.640000	-0.070000	168.00	-0.07	-0.01	8.50	7.00	6.50	9.50	5.00	6.25	0.00	2.25	2.25	2.25	1.75	1.00	2.75	2.75	0.50	0.75	-0.193359	0.109863	0.962402	0.560000	-3.010000	2.380000	625.00	-0.15	-0.08
1.04	2.25	1.50	2.25	1.25	1.00	0.25	0.50	0.00	0.75	0.75	0.75	0.50	0.50	1.50	0.00	0.00	-0.313477	0.099121	0.973145	3.990000	10.220000	0.280000	145.00	-0.09	0.01	9.00	8.00	6.75	10.00	5.00	6.75	0.00	2.50	2.25	2.25	1.50	1.00	2.25	2.75	0.50	0.75	-0.233887	0.112305	0.966309	0.560000	-3.220000	2.730000	650.00	-0.16	-0.08
1.05	2.25	1.50	2.25	1.50	1.00	0.25	0.50	0.25	0.50	0.75	0.50	0.75	0.50	1.25	0.00	0.00	-2.353027	-0.054199	0.458496	6.860000	8.400000	-0.140000	146.00	-0.11	-0.01	9.50	8.50	7.25	10.25	5.00	7.50	0.00	2.50	2.25	2.00	1.50	1.00	3.00	2.75	0.50	0.50	-0.218750	0.114746	0.970215	1.890000	-2.590000	2.800000	678.00	-0.16	-0.09
1.06	2.25	1.75	2.50	1.75	1.00	0.25	0.25	0.00	0.25	0.50	0.50	0.50	0.25	1.00	0.00	0.00	-0.410156	0.120605	0.932617	13.790000	3.150000	-0.210000	134.00	-0.17	-0.01	10.00	9.00	7.50	10.75	5.25	7.50	0.00	2.50	2.25	1.75	1.25	0.75	2.25	2.50	0.50	0.50	-0.204590	0.131836	0.967773	4.200000	-1.330000	2.940000	683.00	-0.18	-0.08
1.07	2.25	1.75	2.50	1.75	1.00	0.50	0.50	0.00	0.25	0.25	0.50	0.00	0.00	0.75	0.25	0.00	-0.329590	0.105469	0.991211	16.799999	-2.100000	-0.910000	131.00	-0.19	0.00	10.25	9.25	8.00	11.25	5.25	8.00	0.00	2.50	1.75	1.50	1.00	0.50	2.00	2.25	0.50	0.25	-0.207031	0.124512	0.967285	6.160000	-0.210000	2.870000	684.00	-0.19	-0.09
1.08	2.50	1.75	2.25	1.25	1.00	0.25	0.25	0.25	0.00	0.00	0.00	0.00	0.00	1.00	0.00	0.00	-0.280273	0.060059	1.080566	20.580000	-4.620000	0.000000	111.00	-0.23	0.00	11.00	9.75	8.00	11.50	5.25	8.25	0.00	2.50	1.25	1.50	0.50	0.25	2.00	2.00	0.25	0.25	-0.217285	0.123535	0.977051	9.310000	0.840000	2.800000	683.00	-0.21	-0.09
1.09	2.50	1.75	2.50	1.75	1.00	0.25	0.25	0.00	0.00	0.00	0.00	0.00	0.00	0.75	0.00	0.00	-0.244141	0.093262	0.856934	17.990000	-13.020000	-0.840000	113.00	-0.26	0.00	11.50	10.50	8.50	12.00	5.50	8.50	0.00	2.50	1.25	1.50	0.75	0.50	1.75	2.00	0.50	0.25	-0.200684	0.125977	0.964844	13.650000	1.890000	2.800000	717.00	-0.21	-0.09
1.10	2.50	1.75	2.50	1.25	1.00	0.25	0.25	0.00	0.00	0.00	0.00	0.00	0.00	0.75	0.00	0.00	-0.227539	0.098633	0.862305	11.480000	-11.410000	-3.220000	107.00	-0.25	0.01	12.25	11.00	8.75	12.50	5.50	8.75	0.00	2.50	1.25	1.25	0.50	0.00	1.25	2.00	0.25	0.00	-0.200684	0.130371	0.967285	16.450001	2.940000	2.730000	721.00	-0.23	-0.08
1.11	2.50	1.75	2.25	1.50	0.75	0.50	0.25	0.00	0.00	0.00	0.00	0.00	0.00	0.50	0.00	0.00	-0.236816	0.152344	0.871582	5.600000	-9.660000	-4.200000	105.00	-0.27	-0.01	13.00	11.50	8.75	12.50	5.50	8.75	0.00	2.00	1.00	1.25	0.25	0.00	1.00	1.50	0.25	0.00	-0.207031	0.128906	0.980469	19.320000	2.520000	2.590000	714.00	-0.24	-0.08
1.12	2.50	1.75	2.50	1.50	1.00	0.25	0.25	0.00	0.00	0.00	0.00	0.00	0.00	0.50	0.00	0.00	-0.278809	0.196777	0.965820	1.330000	-11.830000	-0.910000	108.00	-0.27	0.00	13.25	12.00	9.00	12.75	5.50	9.00	0.00	2.00	0.50	0.75	0.25	0.00	0.75	1.50	0.00	0.00	-0.202637	0.132812	0.989746	22.469999	1.540000	2.590000	713.00	-0.25	-0.08
1.13	2.75	1.75	2.50	1.50	1.00	0.25	0.25	0.00	0.00	0.00	0.00	0.00	0.00	0.25	0.00	0.00	-0.274902	0.097168	0.914551	-1.470000	-11.480000	2.170000	109.00	-0.29	0.00	13.75	12.50	9.00	13.00	5.50	9.00	0.00	1.75	0.50	0.75	0.00	0.00	0.50	1.00	0.25	0.00	-0.209473	0.146973	0.979004	25.200001	0.630000	2.450000	715.00	-0.26	-0.08
1.14	2.25	2.00	2.25	1.50	0.75	0.25	0.25	0.00	0.00	0.00	0.00	0.00	0.00	0.25	0.00	0.00	-0.257324	0.063477	0.911621	-1.050000	-10.430000	0.770000	100.00	-0.29	-0.01	14.00	12.75	9.25	13.25	5.50	9.25	0.00	1.75	0.25	0.75	0.25	0.00	0.00	0.75	0.00	0.00	-0.210449	0.144531	0.976074	26.040001	-1.330000	2.170000	719.00	-0.27	-0.08
1.15	2.75	2.00	2.50	1.25	1.00	0.25	0.25	0.00	0.00	0.00	0.00	0.00	0.00	0.25	0.00	0.00	-0.258789	0.106445	0.903809	1.050000	-9.380000	-1.050000	108.00	-0.29	0.01	14.75	13.25	9.00	13.50	5.50	9.00	0.00	1.50	0.50	0.25	0.00	0.00	0.25	0.75	0.00	0.00	-0.222656	0.154297	0.988770	26.110001	-3.920000	2.100000	722.00	-0.28	-0.08
1.16	2.75	2.00	2.25	1.50	0.75	0.25	0.25	0.00	0.00	0.00	0.00	0.00	0.00	0.00	0.00	0.00	-0.269043	0.152832	0.921387	1.960000	-8.330000	-0.910000	103.00	-0.31	-0.01	15.25	13.75	9.25	13.50	5.25	9.00	0.00	1.25	0.25	0.25	0.00	0.00	0.00	0.50	0.00	0.00	-0.229004	0.142578	1.029297	21.490000	-8.400000	1.680000	720.00	-0.29	-0.08
1.17	3.00	1.75	2.50	1.75	0.75	0.00	0.25	0.00	0.00	0.00	0.00	0.00	0.00	0.00	0.00	0.00	-0.269531	0.136719	0.950684	1.680000	-8.190000	0.140000	106.00	-0.31	0.00	15.50	14.00	9.25	13.75	5.25	9.00	0.00	1.00	0.00	0.25	0.00	0.00	0.00	0.75	0.00	0.00	-0.229004	0.142578	1.029297	21.490000	-8.400000	1.680000	723.00	-0.29	-0.08
1.18	3.00	2.25	2.25	1.50	1.00	0.00	0.25	0.00	0.00	0.00	0.00	0.00	0.00	0.00	0.00	0.00	-0.267090	0.102539	0.953613	1.820000	-9.170000	0.140000	108.00	-0.31	0.00	15.75	14.25	9.25	13.75	5.00	9.00	0.00	1.00	0.00	0.25	0.00	0.00	0.00	0.50	0.00	0.00	-0.225098	0.201172	0.841309	19.250000	-9.380000	1.400000	723.00	-0.29	-0.08
1.19	3.25	2.25	2.50	2.00	1.00	0.25	0.25	0.00	0.00	0.00	0.00	0.00	0.00	0.00	0.00	0.00	-0.251953	0.096680	0.923340	3.010000	-9.730000	-0.560000	122.00	-0.31	-0.01	16.00	14.50	9.00	13.50	5.00	8.75	0.00	0.75	0.00	0.00	0.00	0.00	0.00	0.25	0.00	0.00	-0.141113	0.158691	1.035645	15.120000	-8.330000	0.350000	711.00	-0.30	-0.08
1.20	3.75	2.75	3.00	2.25	0.75	0.00	0.25	0.00	0.00	0.00	0.00	0.00	0.00	0.00	0.00	0.00	-0.242188	0.109863	0.891113	5.390000	-8.610000	-0.770000	134.00	-0.32	-0.01	16.00	14.50	9.00	13.50	5.00	8.50	0.00	0.75	0.00	0.00	0.00	0.00	0.00	0.00	0.00	0.00	-0.186035	0.178711	0.935547	8.540000	-9.100000	1.960000	706.00	-0.30	-0.08
1.21	4.50	3.00	3.00	2.50	1.00	0.50	0.25	0.00	0.00	0.00	0.00	0.00	0.00	0.00	0.00	0.00	-0.244629	0.125977	0.902344	7.420000	-6.090000	-0.910000	155.00	-0.32	-0.02	15.50	14.50	8.75	13.25	4.50	8.50	0.00	0.50	0.00	0.00	0.00	0.00	0.00	0.25	0.25	0.00	-0.184570	0.179199	0.910645	4.270000	-6.720000	1.890000	691.00	-0.30	-0.08
1.22	5.75	3.75	3.75	3.25	1.25	0.75	0.25	0.00	0.00	0.00	0.00	0.00	0.00	0.00	0.00	0.00	-0.242676	0.131836	0.911621	8.890000	-3.430000	-0.560000	197.00	-0.32	-0.02	15.50	14.25	8.75	13.00	4.50	8.25	0.00	0.50	0.00	0.00	0.00	0.00	0.00	0.50	0.00	0.00	-0.186035	0.202637	0.908691	-0.560000	-3.990000	2.030000	683.00	-0.30	-0.08
1.23	7.50	4.50	3.75	3.75	1.25	0.75	0.25	0.00	0.00	0.00	0.00	0.00	0.00	0.25	0.00	0.00	-0.244141	0.135254	0.927246	9.590000	-1.960000	0.000000	230.00	-0.32	-0.02	14.75	13.50	8.50	12.50	4.00	7.75	0.00	0.50	0.25	0.00	0.00	0.00	0.00	0.00	0.00	0.00	-0.181641	0.173340	0.907227	-5.110000	-0.210000	2.450000	648.00	-0.30	-0.08
1.24	9.25	5.50	4.75	4.75	1.25	0.75	0.25	0.00	0.00	0.00	0.00	0.00	0.00	0.00	0.00	0.00	-0.251465	0.124512	0.929688	10.710000	0.140000	0.210000	277.00	-0.33	-0.02	14.00	13.00	8.25	12.25	4.00	7.50	0.00	0.50	0.00	0.00	0.00	0.00	0.00	0.25	0.00	0.00	-0.184082	0.166504	0.916992	-8.260000	2.730000	1.960000	626.00	-0.30	-0.08
1.25	12.75	6.75	5.50	5.50	1.25	1.25	0.25	0.00	0.00	0.00	0.00	0.00	0.00	0.00	0.00	0.00	-0.251465	0.124512	0.929688	10.710000	0.140000	0.210000	347.00	-0.34	-0.02	13.00	11.75	7.75	11.50	3.50	7.00	0.00	0.50	0.00	0.00	0.00	0.00	0.00	0.00	0.00	0.00	-0.165039	0.173828	0.884766	-11.760000	6.370000	0.840000	578.00	-0.30	-0.08
1.26	15.75	9.00	7.00	6.75	1.50	1.50	0.00	0.00	0.00	0.00	0.00	0.00	0.00	0.25	0.00	0.00	-0.243652	0.125977	0.937012	11.830000	0.770000	0.000000	433.00	-0.34	-0.02	11.25	10.25	7.00	10.25	3.25	6.25	0.00	0.25	0.00	0.00	0.00	0.00	0.00	0.00	0.00	0.00	-0.167969	0.170898	0.884277	-17.850000	11.830000	-0.630000	509.00	-0.30	-0.08
1.27	20.00	11.50	7.50	8.25	1.50	1.75	0.25	0.00	0.00	0.00	0.00	0.00	0.00	0.00	0.00	0.00	-0.250000	0.143555	0.956543	12.810000	1.890000	-0.490000	526.00	-0.34	-0.02	9.25	8.25	6.00	9.00	2.75	5.25	0.00	0.50	0.00	0.00	0.00	0.00	0.00	0.25	0.00	0.00	-0.166504	0.144531	0.902832	-25.760000	18.340000	-3.430000	434.00	-0.29	-0.08
1.28	24.00	14.75	8.75	9.50	1.75	2.25	0.25	0.00	0.00	0.00	0.00	0.00	0.00	0.00	0.00	0.00	-0.247070	0.133789	0.924316	12.390000	2.310000	-0.630000	633.00	-0.34	-0.02	7.00	6.75	5.00	7.75	2.50	4.00	0.00	0.25	0.00	0.00	0.00	0.00	0.00	0.00	0.00	0.00	-0.058594	0.094727	0.992676	-34.930000	23.100000	-9.240000	350.00	-0.30	-0.08
1.29	27.75	18.75	9.75	11.25	1.75	3.00	0.25	0.00	0.00	0.00	0.00	0.00	0.00	0.00	0.00	0.00	-0.241699	0.136719	0.913574	12.880000	4.130000	-0.980000	748.00	-0.35	-0.03	5.00	5.00	3.25	6.00	1.75	1.75	0.00	0.25	0.25	0.25	0.00	0.00	0.00	0.00	0.00	0.00	-0.082031	0.111328	1.022461	-40.040001	25.270000	-16.660000	248.00	-0.29	-0.07
1.30	31.25	22.75	10.50	13.50	1.75	3.50	0.25	0.00	0.00	0.00	0.00	0.00	0.00	0.00	0.00	0.00	-0.234863	0.145996	0.933594	14.000000	5.810000	-1.260000	859.00	-0.35	-0.04	3.00	3.00	2.50	4.25	1.25	0.50	0.00	0.00	0.25	0.00	0.00	0.00	0.00	0.25	0.00	0.00	-0.124023	0.119629	1.133789	-38.430000	22.330000	-24.570000	158.00	-0.29	-0.05
1.31	34.75	26.25	11.25	15.00	2.00	4.25	0.25	0.00	0.00	0.00	0.00	0.00	0.00	0.00	0.00	0.00	-0.239746	0.150391	0.964355	14.490000	5.670000	-1.260000	963.00	-0.35	-0.04	1.75	2.25	1.50	2.75	0.75	0.00	0.00	0.00	0.25	0.00	0.00	0.00	0.00	0.00	0.00	0.00	-0.073730	0.593262	1.027832	-31.920000	18.059999	-49.980000	97.00	-0.30	-0.06
1.32	37.00	29.25	12.25	16.75	2.25	4.75	0.00	0.00	0.00	0.00	0.00	0.00	0.00	0.00	0.00	0.00	-0.235840	0.160645	0.944336	13.370000	4.480000	-1.050000	1049.00	-0.35	-0.04	1.50	1.75	1.00	1.50	0.75	0.00	0.00	0.00	0.00	0.00	0.00	0.00	0.00	0.00	0.00	0.00	0.000977	0.517578	1.319336	20.160000	81.480003	-119.349998	67.00	-0.32	-0.05
1.33	39.25	31.25	13.25	18.25	2.00	5.50	0.25	0.00	0.00	0.00	0.00	0.00	0.00	0.00	0.00	0.00	-0.250977	0.164062	0.977539	11.200000	3.570000	-0.840000	1127.00	-0.35	-0.04	1.00	0.75	0.75	1.25	0.25	0.00	0.00	0.00	0.00	0.00	0.00	0.00	0.00	0.00	0.00	0.00	0.562012	0.360352	1.835938	6.510000	115.360001	-167.509995	42.00	0.00	0.00
1.34	40.25	33.00	13.00	19.00	2.00	5.75	0.00	0.00	0.00	0.00	0.00	0.00	0.00	0.25	0.00	0.00	-0.256836	0.176270	1.014160	9.380000	-0.490000	-0.560000	1160.00	-0.35	-0.05	1.00	1.25	1.00	1.75	0.50	0.00	0.00	0.00	0.00	0.00	0.00	0.00	0.00	0.00	0.00	0.00	0.491211	1.378418	2.746094	-55.439999	91.559998	-186.270004	58.00	-0.31	-0.07
1.35	40.75	34.25	13.25	19.50	2.00	6.00	0.00	0.00	0.00	0.00	0.00	0.00	0.00	0.00	0.00	0.00	-0.247070	0.178223	1.005371	6.860000	-5.040000	-0.070000	1186.00	-0.35	-0.05	1.00	1.25	0.75	0.50	0.25	0.00	0.00	0.00	0.00	0.00	0.00	0.00	0.00	0.00	0.00	0.00	0.961426	1.599121	2.048828	-88.480003	59.920002	-181.440002	38.00	0.00	0.00
1.36	41.00	34.75	13.25	19.75	2.00	6.25	0.00	0.00	0.00	0.00	0.00	0.00	0.00	0.00	0.00	0.00	-0.256836	0.170410	1.008789	4.410000	-9.870000	0.560000	1199.00	-0.35	-0.05	0.25	1.00	0.50	0.50	0.25	0.00	0.00	0.00	0.00	0.00	0.00	0.00	0.00	0.00	0.00	0.00	0.984863	1.650391	1.325195	-79.099998	38.639999	-174.160004	26.00	0.00	0.00
1.37	40.50	34.75	13.00	19.75	1.75	6.00	0.00	0.00	0.00	0.00	0.00	0.00	0.00	0.00	0.00	0.00	-0.242188	0.183105	0.976562	2.310000	-13.790000	0.910000	1185.00	-0.35	-0.05	0.75	1.00	0.50	0.75	0.25	0.00	0.00	0.00	0.00	0.00	0.00	0.00	0.00	0.00	0.00	0.00	1.056152	1.750000	1.031738	-53.480000	33.040001	-166.039993	34.00	0.00	0.00
1.38	40.00	34.75	12.75	19.25	1.50	6.00	0.00	0.00	0.00	0.00	0.00	0.00	0.00	0.00	0.00	0.00	-0.240234	0.171875	0.979980	0.070000	-16.030001	1.610000	1169.00	-0.35	-0.05	0.50	0.75	0.50	0.25	0.25	0.00	0.00	0.00	0.00	0.00	0.00	0.00	0.00	0.00	0.00	0.00	1.253906	1.845215	1.016602	-27.719999	31.150000	-149.100006	23.00	0.00	0.00
1.39	39.25	34.50	12.25	18.75	1.50	5.75	0.00	0.00	0.00	0.00	0.00	0.00	0.00	0.00	0.00	0.00	-0.236328	0.146484	0.960938	-0.980000	-18.410000	1.680000	1145.00	-0.35	-0.05	0.75	0.75	0.50	0.25	0.25	0.00	0.00	0.00	0.00	0.00	0.00	0.00	0.00	0.00	0.00	0.00	1.477539	1.766113	0.903320	13.300000	6.090000	-82.110001	26.00	0.00	0.00
1.40	38.75	33.75	11.75	18.50	1.50	5.50	0.00	0.00	0.00	0.00	0.00	0.00	0.00	0.00	0.00	0.00	-0.230957	0.154297	0.969238	-0.350000	-20.650000	1.610000	1122.00	-0.35	-0.05	0.50	0.50	0.25	0.00	0.25	0.00	0.00	0.00	0.00	0.00	0.00	0.00	0.00	0.00	0.00	0.00	1.500000	1.633789	0.863281	40.950001	-7.980000	-42.279999	15.00	0.00	0.00
1.41	38.25	33.50	11.00	18.00	1.25	5.50	0.00	0.00	0.00	0.00	0.00	0.00	0.00	0.00	0.00	0.00	-0.221680	0.142090	0.921387	0.630000	-21.980000	1.330000	1098.00	-0.35	-0.05	0.50	0.00	0.25	0.00	0.00	0.00	0.00	0.00	0.00	0.00	0.00	0.00	0.00	0.00	0.00	0.00	1.448730	1.419434	0.974609	72.169998	-22.960001	-3.780000	8.00	0.00	0.00
1.42	37.25	33.00	10.75	17.25	1.25	5.25	0.00	0.00	0.00	0.00	0.00	0.00	0.00	0.00	0.00	0.00	-0.205566	0.140625	0.918945	1.750000	-21.210001	0.980000	1069.00	-0.35	-0.05	0.50	0.00	0.00	0.00	0.00	0.00	0.00	0.00	0.00	0.00	0.00	0.00	0.00	0.00	0.00	0.00	1.343750	1.143555	1.059570	97.230003	-39.900002	31.150000	5.00	0.00	0.00
1.43	36.50	32.50	10.50	17.25	1.00	5.25	0.00	0.00	0.00	0.00	0.00	0.00	0.00	0.00	0.00	0.00	-0.198730	0.155273	0.879883	3.500000	-18.549999	0.210000	1051.00	-0.35	-0.05	0.25	0.25	0.00	0.00	0.00	0.00	0.00	0.00	0.00	0.00	0.00	0.00	0.00	0.00	0.00	0.00	1.217773	0.858398	1.128418	109.970001	-57.119999	59.500000	5.00	0.00	0.00
1.44	35.75	32.75	10.00	17.00	1.00	5.00	0.00	0.00	0.00	0.00	0.00	0.00	0.00	0.00	0.00	0.00	-0.182617	0.156250	0.861816	4.620000	-14.910000	-0.350000	1035.00	-0.36	-0.05	0.00	0.25	0.00	0.00	0.00	0.00	0.00	0.00	0.00	0.00	0.00	0.00	0.00	0.00	0.00	0.00	1.099609	0.657715	1.229004	116.760002	-73.779999	80.080002	2.00	0.00	0.00
1.45	35.25	33.00	9.75	17.00	0.75	5.00	0.00	0.00	0.00	0.00	0.00	0.00	0.00	0.00	0.00	0.00	-0.182129	0.167969	0.873047	5.040000	-10.430000	-0.700000	1026.00	-0.36	-0.06	0.00	0.00	0.00	0.00	0.00	0.00	0.00	0.00	0.00	0.00	0.00	0.00	0.00	0.00	0.00	0.00	0.968262	0.486816	1.342285	121.520004	-90.790001	93.449997	0.00	0.00	0.00
1.46	35.50	32.75	9.75	16.75	1.00	5.00	0.00	0.00	0.00	0.00	0.00	0.00	0.00	0.00	0.00	0.00	-0.186523	0.171387	0.881836	3.290000	-4.620000	-0.980000	1027.00	-0.36	-0.05	0.25	0.00	0.00	0.00	0.00	0.00	0.00	0.00	0.00	0.00	0.00	0.00	0.00	0.00	0.00	0.00	0.832031	0.331543	1.395508	121.169998	-108.779999	101.639999	3.00	0.00	0.00
1.47	35.00	32.00	9.75	17.00	1.00	5.00	0.00	0.00	0.00	0.00	0.00	0.00	0.00	0.00	0.00	0.00	-0.179688	0.171875	0.884766	1.050000	0.140000	-1.820000	1017.00	-0.35	-0.05	0.25	0.00	0.00	0.00	0.00	0.00	0.00	0.00	0.00	0.00	0.00	0.00	0.00	0.00	0.00	0.00	0.680176	0.231934	1.399902	114.660004	-124.809998	105.209999	3.00	0.00	0.00
1.48	34.75	32.25	9.75	17.00	1.00	5.00	0.00	0.00	0.00	0.00	0.00	0.00	0.00	0.00	0.00	0.00	-0.189941	0.164062	0.914551	-1.540000	6.230000	-2.800000	1017.00	-0.35	-0.06	0.25	0.00	0.00	0.00	0.00	0.00	0.00	0.00	0.00	0.00	0.00	0.00	0.00	0.00	0.00	0.00	0.528320	0.190430	1.448242	105.910004	-137.690002	105.209999	3.00	0.00	0.00
1.49	35.25	32.50	10.00	16.75	1.00	5.00	0.00	0.00	0.00	0.00	0.00	0.00	0.00	0.00	0.00	0.00	-0.187988	0.154785	0.922852	-1.680000	8.610000	-3.360000	1025.00	-0.36	-0.05	0.25	0.00	0.00	0.00	0.00	0.00	0.00	0.00	0.00	0.00	0.00	0.00	0.00	0.00	0.00	0.00	0.385254	0.174316	1.487305	96.669998	-149.729996	103.949997	3.00	0.00	0.00
1.50	35.25	32.00	10.00	16.75	1.00	5.00	0.00	0.00	0.00	0.00	0.00	0.00	0.00	0.00	0.00	0.00	-0.187500	0.160645	0.918457	-1.120000	10.150000	-3.850000	1020.00	-0.35	-0.05	0.00	0.25	0.00	0.00	0.00	0.00	0.00	0.00	0.00	0.00	0.00	0.00	0.00	0.00	0.00	0.00	0.242188	0.183594	1.485352	87.709999	-161.210007	102.830002	2.00	0.00	0.00
1.51	35.25	31.75	9.75	16.75	1.00	5.25	0.00	0.00	0.00	0.00	0.00	0.00	0.00	0.00	0.00	0.00	-0.186523	0.150879	0.917480	0.070000	12.110000	-4.060000	1018.00	-0.35	-0.05	0.25	0.00	0.00	0.00	0.00	0.00	0.00	0.00	0.00	0.00	0.00	0.00	0.00	0.00	0.00	0.00	0.103516	0.168945	1.456543	83.019997	-169.820007	101.989998	3.00	0.00	0.00
1.52	34.50	31.50	9.75	16.50	1.00	5.00	0.00	0.00	0.00	0.00	0.00	0.00	0.00	0.00	0.00	0.00	-0.180664	0.152344	0.878906	0.560000	15.050000	-4.830000	1002.00	-0.35	-0.05	0.00	0.00	0.00	0.00	0.00	0.00	0.00	0.00	0.00	0.00	0.00	0.00	0.00	0.00	0.00	0.00	-0.047363	0.152344	1.450684	79.379997	-174.160004	101.500000	0.00	0.00	0.00
1.53	34.00	30.25	10.25	16.50	1.00	5.75	0.00	0.00	0.00	0.00	0.00	0.00	0.00	0.00	0.00	0.00	-0.185547	0.163086	0.877441	1.260000	19.320000	-5.670000	999.00	-0.35	-0.05	0.25	0.00	0.00	0.00	0.00	0.00	0.00	0.00	0.00	0.00	0.00	0.00	0.00	0.00	0.00	0.00	-0.168945	0.095703	1.390625	73.290001	-173.880005	101.500000	3.00	0.00	0.00
1.54	33.75	29.75	10.50	16.50	1.25	5.75	0.00	0.00	0.00	0.00	0.00	0.00	0.00	0.00	0.00	0.00	-0.177734	0.145020	0.824707	1.890000	24.570000	-6.370000	998.00	-0.35	-0.05	0.00	0.00	0.00	0.00	0.00	0.00	0.00	0.00	0.00	0.00	0.00	0.00	0.00	0.00	0.00	0.00	-0.301270	-0.013672	1.390625	67.410004	-171.080002	101.290001	0.00	0.00	0.00
1.55	32.75	28.75	10.50	16.50	1.25	6.50	0.00	0.00	0.00	0.00	0.00	0.00	0.00	0.00	0.00	0.00	-0.161133	0.128906	0.751465	3.640000	33.810001	-8.120000	986.00	-0.35	-0.06	0.00	0.25	0.00	0.00	0.00	0.00	0.00	0.00	0.00	0.00	0.00	0.00	0.00	0.00	0.00	0.00	-0.406738	-0.110840	1.371582	60.060001	-166.529999	99.400002	2.00	0.00	0.00
1.56	32.25	27.75	10.50	17.00	1.50	7.25	0.00	0.25	0.00	0.00	0.00	0.00	0.00	0.00	0.00	0.00	-0.184570	0.133789	0.763184	6.370000	46.060001	-10.010000	992.00	-0.34	-0.06	0.00	0.00	0.00	0.00	0.00	0.00	0.00	0.00	0.00	0.00	0.00	0.00	0.00	0.00	0.00	0.00	-0.498535	-0.190430	1.295410	46.130001	-159.180008	96.040001	0.00	0.00	0.00
1.57	30.75	26.50	11.00	17.75	1.75	7.75	0.00	0.00	0.00	0.00	0.00	0.00	0.00	0.00	0.00	0.00	-0.182617	0.112793	0.711914	9.520000	60.619999	-12.600000	983.00	-0.34	-0.06	0.00	0.00	0.00	0.00	0.00	0.00	0.00	0.00	0.00	0.00	0.00	0.00	0.00	0.00	0.00	0.00	-0.590332	-0.205566	1.260742	27.860001	-151.130005	91.209999	0.00	0.00	0.00
1.58	29.75	25.00	11.50	17.75	2.25	8.75	0.00	0.00	0.00	0.00	0.00	0.00	0.00	0.00	0.00	0.00	-0.219238	0.142578	0.810059	14.770000	75.110001	-15.120000	981.00	-0.33	-0.06	0.25	0.00	0.00	0.00	0.00	0.00	0.00	0.00	0.00	0.00	0.00	0.00	0.00	0.00	0.00	0.00	-0.659668	-0.152832	1.279785	10.920000	-143.990005	84.489998	3.00	0.00	0.00
1.59	28.25	24.00	11.50	18.25	2.50	9.50	0.25	0.25	0.00	0.00	0.00	0.00	0.00	0.00	0.00	0.00	-0.250977	0.126465	0.834473	18.969999	84.139999	-17.150000	980.00	-0.33	-0.07	0.00	0.00	0.00	0.00	0.00	0.00	0.00	0.00	0.00	0.00	0.00	0.00	0.00	0.00	0.00	0.00	-0.782715	-0.051270	1.177246	9.240000	-138.389999	72.800003	0.00	0.00	0.00
1.60	26.25	21.50	11.75	18.00	3.25	10.50	0.25	0.50	0.00	0.00	0.00	0.25	0.00	0.00	0.00	0.00	-0.323242	0.006348	0.886230	-19.460001	55.860001	-10.360000	962.00	-0.32	-0.07	0.00	0.00	0.00	0.00	0.00	0.00	0.00	0.00	0.00	0.00	0.00	0.00	0.00	0.00	0.00	0.00	-0.904785	-0.058105	0.950195	11.130000	-132.440002	70.559998	0.00	0.00	0.00
1.61	25.00	19.75	11.50	17.50	4.25	11.75	0.25	1.00	0.25	0.25	0.50	0.75	0.50	0.00	0.00	0.00	-0.189453	0.065918	0.882812	-45.849998	48.860001	-9.380000	978.00	-0.30	-0.08	0.00	0.00	0.00	0.00	0.00	0.00	0.00	0.00	0.00	0.00	0.00	0.00	0.00	0.00	0.00	0.00	-1.018066	-0.035645	0.773438	4.480000	-118.930000	71.680000	0.00	0.00	0.00
1.62	22.50	17.25	11.25	17.00	5.25	12.75	0.25	1.25	0.25	0.75	0.75	1.50	1.25	0.50	0.00	0.00	-0.267578	0.200195	1.026855	-66.989998	40.389999	-11.900000	973.00	-0.27	-0.08	0.00	0.25	0.00	0.00	0.00	0.00	0.00	0.00	0.00	0.00	0.00	0.00	0.00	0.00	0.00	0.00	-1.111328	0.015137	0.659668	-4.200000	-99.680000	75.949997	2.00	0.00	0.00
1.63	20.25	14.75	11.50	16.50	6.25	13.75	0.50	2.00	0.50	1.00	1.25	2.25	2.25	0.50	0.00	0.00	-0.270996	0.134766	1.207520	-85.050003	24.570000	-13.580000	988.00	-0.24	-0.09	0.00	0.00	0.00	0.00	0.00	0.00	0.00	0.00	0.00	0.00	0.00	0.00	0.00	0.00	0.00	0.00	-1.172363	0.068848	0.621582	-9.030000	-78.400002	82.389999	0.00	0.00	0.00
1.64	17.75	11.75	11.25	15.50	7.00	14.25	0.50	2.75	1.00	1.75	2.00	3.50	3.50	1.00	0.25	0.25	-0.297363	0.146973	1.186523	-84.910004	-11.060000	-12.810000	1001.00	-0.20	-0.10	0.00	0.00	0.00	0.00	0.00	0.00	0.00	0.00	0.00	0.00	0.00	0.00	0.00	0.00	0.00	0.00	-1.243652	0.066895	0.561523	-10.150000	-55.580002	88.269997	0.00	0.00	0.00
1.65	13.75	9.25	10.00	14.25	7.25	14.25	0.75	4.50	1.75	2.50	3.50	6.25	5.50	1.25	0.50	0.50	-0.302246	0.088867	1.016602	-60.270000	-30.730000	-9.940000	1028.00	-0.15	-0.12	0.00	0.00	0.00	0.00	0.00	0.00	0.00	0.00	0.00	0.00	0.00	0.00	0.00	0.00	0.00	0.00	-1.319824	0.057129	0.518555	-10.290000	-31.850000	91.279999	0.00	0.00	0.00
1.66	9.75	7.50	9.00	12.50	7.50	14.50	0.75	5.50	3.00	3.50	7.00	7.75	6.50	2.00	0.50	1.00	-0.373047	0.037109	0.992188	-34.090000	-27.510000	-7.210000	1058.00	-0.09	-0.13	0.00	0.00	0.00	0.00	0.00	0.00	0.00	0.00	0.00	0.00	0.00	0.00	0.00	0.00	0.00	0.00	-1.370117	0.010742	0.525879	-10.220000	-7.140000	91.840004	0.00	0.00	0.00
1.67	7.25	6.25	7.75	10.50	7.00	14.75	0.75	6.00	4.25	6.00	8.75	9.25	7.50	3.00	1.00	1.50	-0.397461	0.090820	1.069336	-18.270000	-20.719999	-5.950000	1091.00	-0.04	-0.13	0.00	0.00	0.00	0.00	0.00	0.00	0.00	0.00	0.00	0.25	0.00	0.00	0.00	0.00	0.00	0.00	-1.422852	-0.070312	0.606934	-9.730000	17.990000	90.790001	3.00	0.00	0.00
1.68	5.75	5.25	6.75	9.00	6.75	14.50	1.00	6.75	5.00	7.50	10.50	11.00	8.75	3.75	1.25	2.00	-0.284180	0.093750	0.974609	-6.790000	-9.800000	-4.270000	1133.00	-0.01	-0.13	0.00	0.00	0.00	0.00	0.00	0.00	0.00	0.00	0.00	0.00	0.00	0.00	0.00	0.00	0.00	0.00	-1.480469	-0.195801	0.656738	-15.190001	40.529999	87.849998	0.00	0.00	0.00
1.69	4.25	4.75	5.50	7.50	5.75	14.00	1.00	7.50	6.75	8.25	12.25	13.00	10.00	4.75	1.25	2.50	-0.254883	0.105957	0.964844	6.930000	7.000000	-0.280000	1170.00	0.03	-0.14	0.00	0.00	0.00	0.00	0.00	0.00	0.00	0.00	0.00	0.00	0.00	0.00	0.00	0.00	0.00	0.00	-1.572266	-0.229492	0.717773	-27.160000	58.730000	82.459999	0.00	0.00	0.00
1.70	3.25	3.25	3.75	6.50	4.25	13.25	1.00	8.00	7.25	9.00	14.00	14.75	11.50	5.25	1.75	3.00	-0.232422	0.113770	0.971191	13.020000	15.960000	0.630000	1175.00	0.06	-0.14	0.00	0.00	0.00	0.00	0.00	0.00	0.00	0.00	0.25	0.00	0.00	0.00	0.00	0.00	0.00	0.00	-1.666504	-0.201172	0.726074	-34.090000	71.680000	77.489998	3.00	0.00	0.00
1.71	2.00	2.50	2.75	5.00	3.00	11.00	0.75	8.25	7.75	9.75	15.25	16.50	13.25	6.25	2.00	3.75	-0.235840	0.127441	0.969727	17.990000	25.129999	-1.120000	1165.00	0.10	-0.15	0.00	0.00	0.00	0.00	0.00	0.00	0.00	0.00	0.00	0.00	0.00	0.00	0.00	0.00	0.00	0.00	-1.789551	-0.192383	0.616211	-33.180000	86.940002	73.360001	0.00	0.00	0.00
1.72	1.75	2.25	1.75	2.75	1.25	8.75	0.75	8.00	8.25	10.25	16.75	18.00	14.50	7.75	2.00	4.25	-0.242676	0.122070	0.977051	22.540001	36.259998	-3.780000	1147.00	0.13	-0.15	0.00	0.00	0.00	0.00	0.00	0.00	0.00	0.00	0.00	0.00	0.00	0.00	0.00	0.00	0.00	0.00	-1.913086	-0.257812	0.594238	-33.389999	106.610001	69.440002	0.00	0.00	0.00
1.73	1.25	2.00	1.50	1.75	0.50	6.75	0.75	7.75	8.75	11.00	17.75	19.25	15.25	9.00	2.25	4.75	-0.218262	0.160645	1.060547	39.759998	69.370003	-6.370000	1152.00	0.16	-0.15	0.00	0.00	0.00	0.00	0.00	0.00	0.00	0.00	0.00	0.00	0.00	0.00	0.00	0.00	0.00	0.00	-1.981934	-0.310547	0.642578	-40.599998	125.720001	65.800003	0.00	0.00	0.00
1.74	1.00	2.00	0.75	1.50	0.25	6.00	0.50	7.25	9.25	11.25	18.75	20.25	15.50	9.75	2.50	5.00	-0.214355	0.194336	1.085938	48.860001	111.300003	-6.860000	1159.00	0.17	-0.14	0.00	0.00	0.00	0.00	0.00	0.00	0.00	0.00	0.00	0.00	0.00	0.00	0.00	0.00	0.00	0.00	-1.984863	-0.296875	0.728516	-46.549999	139.860001	61.950001	0.00	0.00	0.00
1.75	0.75	1.25	0.75	1.00	0.00	5.25	0.25	6.75	9.75	12.00	19.25	20.50	15.25	11.50	2.75	5.00	-0.344238	0.097656	1.035645	58.240002	157.009995	-12.950000	1159.00	0.19	-0.14	0.00	0.00	0.00	0.00	0.00	0.00	0.00	0.00	0.00	0.00	0.00	0.00	0.00	0.00	0.00	0.00	-1.902344	-0.344238	0.648926	-44.590000	149.169998	55.299999	0.00	0.00	0.00
1.76	0.50	1.50	0.50	1.25	0.00	4.00	0.25	6.25	10.00	12.25	19.50	20.50	14.50	12.50	2.75	5.50	-0.336426	0.172852	1.205566	61.810001	202.300003	-18.129999	1151.00	0.19	-0.13	0.00	0.00	0.00	0.00	0.00	0.00	0.00	0.00	0.00	0.00	0.00	0.00	0.00	0.00	0.00	0.00	-1.266602	-0.572754	0.359375	-22.120001	158.759995	24.430000	0.00	0.00	0.00
1.77	0.25	1.25	0.25	0.75	0.00	3.25	0.25	5.50	10.25	12.75	19.50	20.25	13.25	13.75	3.00	5.75	-0.294434	0.181641	1.165039	59.290001	247.729996	-22.610001	1128.00	0.21	-0.12	0.00	0.00	0.00	0.00	0.00	0.00	0.00	0.00	0.00	0.00	0.00	0.00	0.00	0.00	0.00	0.00	-1.266602	-0.572754	0.359375	-22.120001	158.759995	24.430000	0.00	0.00	0.00
1.78	0.25	0.50	0.50	0.25	0.00	2.25	0.00	5.25	10.50	13.00	19.25	19.75	12.00	15.00	3.25	5.75	-0.375488	0.174805	1.118164	56.209999	291.829987	-30.170000	1100.00	0.22	-0.10	1.00	1.75	0.50	1.00	0.25	0.00	0.00	0.00	0.00	0.00	0.00	0.00	0.00	0.00	0.00	0.00	-0.674316	-0.756348	0.246582	-7.910000	150.009995	7.840000	46.00	0.00	0.00
1.79	0.50	0.50	0.50	0.00	0.00	1.25	0.00	5.00	10.50	13.25	19.00	18.50	10.25	16.25	4.00	5.75	-0.439941	0.230957	1.156738	52.290001	329.279999	-36.470001	1075.00	0.23	-0.09	11.50	19.00	1.25	7.75	0.00	0.00	0.00	0.00	0.00	0.00	0.00	0.00	0.00	0.00	0.00	0.00	1.521484	-0.301758	2.428711	18.200001	199.779999	-32.900002	393.00	-0.38	-0.09
1.80	0.50	0.00	0.50	0.25	0.00	0.50	0.00	4.75	10.25	13.25	18.25	17.25	8.50	17.00	4.25	5.75	-0.582520	0.274414	1.204590	47.250000	362.040009	-45.430000	1031.00	0.24	-0.08	14.00	19.25	1.75	8.50	0.00	0.00	0.00	0.00	0.00	0.00	0.00	0.00	0.00	0.00	0.00	0.00	-3.044434	2.178223	3.516602	-171.289993	248.220001	-141.820007	435.00	-0.38	-0.08
1.81	0.00	0.00	0.25	0.00	0.00	0.25	0.00	3.75	10.00	12.75	17.25	14.75	7.00	17.75	4.00	5.75	-0.571777	-0.080078	1.278809	38.920002	403.970001	-54.040001	948.00	0.25	-0.06	17.00	19.50	3.75	10.25	0.75	1.00	0.00	0.00	0.00	0.00	0.00	0.00	0.00	0.00	0.00	0.00	-1.229004	0.325195	5.647461	-55.020000	275.799988	8.750000	529.00	-0.36	-0.07
1.82	0.00	0.00	0.25	0.00	0.00	0.25	0.00	3.25	9.25	11.75	15.50	12.50	5.50	18.25	4.00	5.50	-1.106445	-0.331055	1.363770	28.490000	440.299988	-64.400002	868.00	0.26	-0.05	19.25	20.25	4.75	10.75	0.75	1.50	0.00	0.00	0.00	0.00	0.00	0.00	0.00	0.00	0.00	0.00	-0.095703	-1.660156	1.581543	-23.379999	81.550003	8.050000	581.00	-0.36	-0.06
1.83	0.00	0.00	0.50	0.00	0.00	0.00	0.00	2.50	8.25	10.50	13.00	9.75	4.25	18.25	3.25	5.00	-1.026855	0.622070	1.467285	19.180000	472.640015	-78.540001	754.00	0.26	-0.03	20.00	20.50	6.25	11.75	1.25	2.25	0.00	0.25	0.00	0.00	0.00	0.00	0.00	0.00	0.00	0.00	0.355957	0.589844	-1.354980	8.540000	61.320000	-46.200001	636.00	-0.35	-0.06
1.84	0.00	0.00	0.00	0.00	0.00	0.00	0.00	1.75	7.00	8.75	10.25	7.75	2.25	17.75	2.75	4.25	-1.383789	0.694336	1.978027	21.840000	495.250000	-93.940002	621.00	0.28	-0.01	21.50	21.00	8.00	13.75	1.75	4.50	0.00	0.25	0.00	0.00	0.00	0.00	0.00	0.00	0.00	0.00	-0.321289	1.032227	0.729004	25.690001	165.130005	-22.049999	728.00	-0.34	-0.07
1.85	0.00	0.00	0.00	0.00	0.00	0.00	0.00	1.00	5.50	7.25	7.75	5.75	1.50	16.00	2.00	3.00	-2.321289	0.874512	3.389160	35.700001	513.450012	-116.129997	491.00	0.29	0.01	21.75	21.25	9.25	15.25	2.50	6.75	0.00	0.50	0.25	0.00	0.25	0.00	0.00	0.00	0.00	0.00	-0.449707	-0.266113	2.691895	4.200000	150.080002	-6.790000	806.00	-0.32	-0.07
1.86	0.00	0.00	0.00	0.00	0.00	0.00	0.00	0.50	3.75	4.25	4.75	4.00	0.75	14.00	1.25	2.50	-2.301758	0.813477	3.514648	25.200001	520.590027	-154.559998	345.00	0.30	0.02	22.75	21.25	10.00	15.75	2.75	7.75	0.00	0.50	0.00	0.00	0.00	0.00	0.00	0.00	0.00	0.00	-0.232910	0.614746	0.548828	-7.210000	33.670002	-4.620000	838.00	-0.33	-0.07
1.87	0.00	0.00	0.00	0.00	0.00	0.00	0.00	0.00	3.00	2.50	3.25	3.00	0.50	12.25	1.25	1.75	-1.879395	0.909668	2.422852	8.120000	543.200012	-191.309998	262.00	0.32	0.04	23.25	21.50	10.50	16.25	3.50	8.25	0.00	0.75	0.00	0.00	0.00	0.00	0.00	0.00	0.00	0.00	-0.058594	0.107422	0.728516	-25.410000	25.059999	-0.000000	874.00	-0.32	-0.07
1.88	0.00	0.00	0.00	0.00	0.00	0.00	0.00	0.00	1.00	2.00	2.50	2.25	0.25	10.50	1.25	1.00	-3.320312	2.362793	3.622070	7.000000	558.179993	-210.770004	194.00	0.33	0.04	23.50	21.25	10.75	16.50	4.00	8.75	0.00	1.00	0.00	0.00	0.00	0.00	0.00	0.00	0.00	0.00	-0.250000	0.202148	1.151367	-27.860001	24.990000	-2.520000	894.00	-0.32	-0.07
1.89	0.00	0.00	0.00	0.00	0.00	0.25	0.00	0.00	1.25	2.00	2.25	2.25	0.50	7.75	0.50	0.25	-2.827148	2.321289	4.392090	103.389999	517.369995	-176.610001	164.00	0.30	0.03	23.00	20.75	10.75	16.50	4.00	9.00	0.00	0.75	0.25	0.00	0.00	0.00	0.00	0.00	0.00	0.00	-0.272949	0.173340	1.187500	-14.000000	12.250000	-0.490000	887.00	-0.31	-0.07
1.90	0.00	0.00	0.00	0.00	0.00	0.00	0.00	0.00	0.50	1.25	1.50	2.00	0.50	3.00	0.50	0.00	1.706055	0.928223	5.361328	205.449997	314.860016	-182.350006	92.00	0.29	-0.04	22.50	20.75	10.50	16.50	4.00	9.25	0.00	1.00	0.00	0.25	0.00	0.00	0.00	0.00	0.00	0.00	-0.173828	0.165527	0.938965	-3.640000	6.580000	1.050000	884.00	-0.31	-0.08
1.91	0.25	0.25	0.25	0.00	0.00	0.00	0.25	0.00	0.25	0.25	0.75	1.00	0.50	1.50	0.00	0.00	4.044434	0.417480	3.597656	197.330002	212.029999	-202.160004	53.00	0.17	-0.03	22.25	20.50	10.25	16.25	3.75	9.25	0.00	1.25	0.00	0.50	0.00	0.00	0.00	0.00	0.00	0.00	-0.216309	0.185547	1.046387	0.420000	4.620000	1.820000	878.00	-0.31	-0.08
1.92	0.25	0.00	0.25	0.00	0.00	0.00	0.00	0.00	0.25	0.00	0.50	0.75	0.00	0.75	0.00	0.00	3.068848	1.446777	2.872559	62.720001	104.510002	-164.710007	28.00	0.00	0.00	21.00	20.00	9.75	15.75	3.50	9.25	0.00	1.25	0.00	0.25	0.00	0.00	0.00	0.00	0.00	0.00	-0.217773	0.129883	1.043945	8.540000	-1.400000	2.450000	844.00	-0.31	-0.08
1.93	0.25	0.00	0.25	0.00	0.00	0.00	0.25	0.00	0.00	0.25	0.25	0.50	0.00	0.50	0.00	0.00	3.347168	1.826172	4.411621	-78.959999	-100.590004	-100.169998	24.00	0.00	0.00	19.25	19.25	9.25	15.25	3.25	9.25	0.00	1.25	0.00	0.00	0.00	0.00	0.00	0.25	0.00	0.00	-0.185059	0.169922	0.982422	16.170000	-6.440000	2.520000	804.00	-0.31	-0.09
1.94	0.00	0.00	0.00	0.00	0.00	0.00	0.25	0.00	0.25	0.00	0.50	0.75	0.00	0.50	0.00	0.00	2.744141	1.206543	2.586426	-111.160004	-205.940002	-32.200001	24.00	0.00	0.00	17.25	18.00	8.75	14.75	3.00	9.25	0.00	1.25	0.00	0.00	0.00	0.00	0.00	0.00	0.00	0.00	-0.135742	0.206543	0.844727	15.610000	-5.110000	2.380000	756.00	-0.31	-0.09
1.95	0.00	0.00	0.00	0.00	0.00	0.00	0.25	0.00	0.00	0.00	0.25	0.50	0.00	0.50	0.00	0.00	2.661133	1.057129	1.831055	-104.790001	-219.660004	5.810000	16.00	0.00	0.00	15.00	16.00	8.00	13.75	2.75	9.00	0.00	1.50	0.25	0.50	0.00	0.00	0.00	0.00	0.00	0.00	-0.175293	0.192871	0.934570	8.890000	-0.700000	1.890000	702.00	-0.30	-0.09
1.96	0.00	0.00	0.00	0.00	0.00	0.00	0.00	0.00	0.00	0.00	0.25	0.25	0.00	0.50	0.00	0.00	2.408691	1.141113	1.789551	-83.650002	-216.860001	17.990000	10.00	0.00	0.00	12.50	14.00	7.50	12.75	2.50	8.50	0.00	1.25	0.00	0.00	0.25	0.00	0.00	0.00	0.00	0.00	-0.186035	0.177734	0.912598	3.500000	3.150000	2.030000	623.00	-0.30	-0.10
1.97	0.00	0.00	0.50	0.00	0.00	0.00	0.25	0.00	0.00	0.00	0.25	0.25	0.00	0.00	0.00	0.00	2.308105	1.212402	2.116699	-43.680000	-238.559998	26.600000	15.00	0.00	0.00	9.50	12.25	6.50	11.75	2.25	8.25	0.00	1.25	0.00	0.25	0.00	0.00	0.00	0.00	0.00	0.00	-0.177734	0.191895	0.890137	-1.610000	7.630000	2.450000	549.00	-0.29	-0.11
1.98	0.00	0.00	0.00	0.00	0.00	0.00	0.25	0.00	0.00	0.00	0.00	0.25	0.00	0.25	0.00	0.00	2.064453	1.081543	2.360352	-3.500000	-289.380005	39.689999	9.00	0.00	0.00	7.50	10.25	5.50	10.75	2.25	7.75	0.00	1.50	0.00	0.50	0.00	0.00	0.00	0.00	0.00	0.00	-0.171875	0.167969	0.878418	-18.480000	17.639999	1.260000	488.00	-0.28	-0.12
1.99	0.00	0.00	0.25	0.00	0.00	0.00	0.25	0.00	0.00	0.00	0.00	0.25	0.00	0.00	0.00	0.00	1.633789	0.903320	2.340332	14.490000	-349.019989	53.970001	9.00	0.00	0.00	6.25	8.50	5.00	10.00	2.25	7.50	0.00	1.50	0.00	0.50	0.50	0.00	0.50	0.00	0.00	0.00	-0.128418	0.167969	0.875977	-18.480000	17.639999	1.260000	452.00	-0.26	-0.13
2.00	0.00	0.00	0.00	0.00	0.00	0.00	0.25	0.00	0.00	0.00	0.00	0.00	0.00	0.00	0.00	0.00	1.172363	0.772461	2.233398	16.520000	-399.279999	66.360001	4.00	0.00	0.00	5.00	7.25	4.00	9.00	2.00	7.00	0.00	1.50	0.25	0.50	0.75	0.25	0.50	0.00	0.25	0.00	-0.177734	0.155273	0.909668	-42.560001	23.730000	-1.330000	409.00	-0.24	-0.13
2.01	0.25	0.00	0.00	0.00	0.00	0.25	0.25	0.00	0.00	0.00	0.00	0.00	0.00	0.00	0.00	0.00	0.745605	0.693848	2.055176	14.980000	-434.420013	75.250000	9.00	0.00	0.00	3.75	6.00	3.50	8.00	2.00	6.50	0.00	1.75	0.25	1.00	0.75	0.25	1.00	0.00	0.00	0.00	-0.237793	0.148438	1.018555	-53.340000	20.299999	-3.080000	373.00	-0.22	-0.14
2.02	0.00	0.00	0.00	0.00	0.00	0.00	0.25	0.00	0.00	0.00	0.00	0.00	0.00	0.00	0.00	0.00	0.314941	0.654785	1.987793	19.389999	-455.209991	80.709999	4.00	0.00	0.00	2.75	5.00	2.75	7.50	2.00	6.00	0.00	2.00	0.25	0.75	1.00	0.50	1.50	0.00	0.00	0.25	-0.187988	0.167480	1.078125	-56.840000	8.890000	-2.800000	346.00	-0.19	-0.16
2.03	0.00	0.00	0.00	0.00	0.00	0.00	0.25	0.00	0.00	0.00	0.00	0.25	0.00	0.00	0.00	0.00	-0.014160	0.611816	2.042480	33.180000	-465.010010	84.209999	6.00	0.00	0.00	2.00	3.50	2.25	6.00	1.75	5.50	0.00	2.00	0.50	1.50	1.50	0.75	2.25	0.00	0.25	0.25	-0.213867	0.132812	1.042969	-49.980000	-2.940000	-2.870000	323.00	-0.14	-0.17
2.04	0.00	0.00	0.00	0.75	0.00	0.00	0.25	0.00	0.00	0.00	0.00	0.00	0.00	0.00	0.00	0.00	-0.515137	0.511230	2.256836	67.059998	-474.670013	93.379997	12.00	0.00	0.00	1.25	2.50	1.75	5.25	1.75	5.00	0.00	2.25	1.00	2.00	2.00	1.50	3.25	0.00	0.50	0.50	-0.205566	0.138184	1.011719	-31.710001	-9.240000	-2.590000	328.00	-0.07	-0.17
2.05	0.00	0.00	0.25	0.00	0.00	0.00	0.25	0.00	0.00	0.00	0.00	0.00	0.00	0.00	0.00	0.00	-0.515137	0.511230	2.256836	67.059998	-474.670013	93.379997	7.00	0.00	0.00	1.50	1.50	1.50	3.50	1.75	4.50	0.00	2.75	1.25	2.25	2.75	2.00	4.25	0.50	0.50	0.75	-0.226562	0.132324	0.979492	-17.430000	-8.750000	-2.240000	335.00	-0.02	-0.17
2.06	0.25	0.00	0.00	0.00	0.00	0.00	0.25	0.00	0.00	0.00	0.00	0.00	0.00	0.00	0.00	0.00	-0.751465	0.479980	2.589355	77.000000	-481.880005	100.099998	6.00	0.00	0.00	1.00	0.75	1.50	2.50	1.50	3.25	0.00	3.00	1.75	2.50	3.50	3.00	5.00	0.75	0.50	1.00	-0.217773	0.132324	0.970215	-9.730000	-5.880000	-2.240000	337.00	0.04	-0.17
2.07	0.00	0.00	0.25	0.00	0.00	0.00	0.25	0.00	0.00	0.00	0.00	0.00	0.00	0.00	0.00	0.00	-0.933105	0.461914	2.835449	82.669998	-493.850006	106.540001	7.00	0.00	0.00	0.75	1.25	1.00	2.75	1.25	3.25	0.00	3.50	2.25	3.75	7.00	4.50	6.50	1.25	0.50	1.25	-0.211914	0.139648	0.963379	-5.530000	-2.940000	-2.520000	431.00	0.08	-0.17
2.08	0.25	0.00	0.00	0.00	0.00	0.00	0.25	0.00	0.00	0.00	0.00	0.00	0.00	0.00	0.00	0.00	-1.263672	0.437012	3.212402	87.220001	-515.760010	110.949997	6.00	0.00	0.00	0.75	0.50	0.75	1.75	1.00	2.50	0.00	3.75	3.00	4.50	8.50	7.25	7.50	1.75	1.00	2.00	-0.208984	0.132324	0.966797	-3.150000	0.630000	-3.220000	488.00	0.13	-0.17
2.09	0.00	0.00	0.00	0.00	0.00	0.00	0.25	0.00	0.00	0.00	0.00	0.00	0.00	0.00	0.00	0.00	-1.263672	0.437012	3.212402	87.220001	-515.760010	110.949997	4.00	0.00	0.00	0.25	0.25	0.50	1.00	1.00	2.25	0.00	3.75	4.00	7.50	10.00	8.50	8.25	2.75	1.00	2.25	-0.216309	0.134277	0.974121	-1.470000	3.220000	-4.550000	557.00	0.17	-0.15
2.10	0.00	0.00	0.00	0.00	0.00	0.00	0.00	0.00	0.00	0.00	0.00	0.00	0.00	0.00	0.00	0.00	-1.443848	0.502930	3.462891	84.980003	-517.369995	109.129997	0.00	0.00	0.00	0.25	0.50	0.25	0.75	0.50	1.50	0.00	4.25	5.50	8.75	11.25	9.50	8.75	4.00	1.25	2.75	-0.222168	0.119629	0.978516	1.610000	5.810000	-6.090000	624.00	0.18	-0.13
2.11	0.00	0.00	0.00	0.00	0.00	0.00	0.25	0.00	0.00	0.00	0.00	0.00	0.00	0.00	0.00	0.00	-2.389160	0.934082	3.549316	56.700001	-510.369995	128.729996	4.00	0.00	0.00	0.25	0.50	0.00	0.00	0.50	1.50	0.00	4.25	6.75	10.25	13.00	11.00	9.50	5.50	1.50	3.50	-0.219727	0.125000	0.983398	7.000000	11.550000	-6.510000	705.00	0.20	-0.12
2.12	0.00	0.00	0.00	0.00	0.00	0.00	0.25	0.00	0.00	0.00	0.00	0.00	0.00	0.00	0.00	0.00	-3.127441	0.747559	3.678711	75.809998	-496.019989	154.910004	4.00	0.00	0.00	0.50	0.50	0.00	0.25	0.25	1.00	0.00	4.50	8.00	11.50	14.50	12.00	10.25	6.50	2.00	4.75	-0.239258	0.084961	0.953125	11.690000	25.340000	-6.370000	789.00	0.21	-0.11
2.13	0.00	0.00	0.00	0.00	0.00	0.00	0.00	0.00	0.00	0.00	0.00	0.00	0.00	0.00	0.00	0.00	-5.521973	0.233398	3.112793	103.599998	-344.750000	178.779999	0.00	0.00	0.00	0.00	0.75	0.00	0.25	0.25	0.75	0.00	4.50	8.75	12.75	16.00	13.25	10.75	7.75	2.25	5.25	-0.243164	0.107422	0.979492	19.320000	40.250000	-5.460000	855.00	0.22	-0.11
2.14	0.50	0.25	0.00	0.00	0.00	0.00	0.00	0.00	0.00	0.00	0.00	0.00	0.00	0.00	0.00	0.00	-4.160156	-0.398438	1.676270	114.449997	-323.820007	196.839996	7.00	0.00	0.00	0.00	0.25	0.00	0.00	0.25	0.50	0.00	4.50	9.25	14.00	17.25	14.75	11.75	8.75	2.75	5.75	-0.246582	0.123047	1.004395	23.870001	51.450001	-2.800000	919.00	0.23	-0.11
2.15	0.00	0.00	0.00	0.00	0.00	0.00	0.00	0.00	0.00	0.00	0.00	0.00	0.00	0.00	0.00	0.00	-4.870605	0.092285	2.666016	106.889999	-316.470001	200.270004	0.00	0.00	0.00	0.00	0.00	0.00	0.00	0.00	0.75	0.00	4.25	10.00	15.00	18.50	15.75	12.25	10.25	3.00	6.75	-0.242676	0.136719	1.033691	27.230000	66.849998	-0.070000	982.00	0.23	-0.10
2.16	0.00	0.00	0.00	0.00	0.00	0.00	0.00	0.00	0.00	0.00	0.00	0.00	0.00	0.00	0.00	0.00	-5.572266	0.163574	1.121094	107.099998	-305.480011	189.070007	0.00	0.00	0.00	0.00	0.00	0.00	0.00	0.00	0.50	0.00	4.00	11.00	15.75	19.25	16.75	12.75	12.25	3.50	7.25	-0.255859	0.166504	1.067871	30.799999	88.129997	-0.910000	1044.00	0.24	-0.09
2.17	0.00	0.00	0.00	0.00	0.00	0.00	0.00	0.00	0.00	0.00	0.00	0.00	0.00	0.00	0.00	0.00	-5.564941	-0.692383	-0.875000	77.840004	-226.309998	158.830002	0.00	0.00	0.00	0.00	0.25	0.00	0.00	0.00	0.50	0.00	4.00	11.75	16.75	19.75	17.25	12.75	14.00	4.75	7.75	-0.282227	0.217285	1.124023	31.500000	117.250000	-6.230000	1108.00	0.24	-0.09
2.18	0.00	0.00	0.00	0.00	0.00	0.00	0.25	0.00	0.00	0.00	0.00	0.00	0.00	0.00	0.00	0.00	-5.760254	-0.544922	-1.161133	25.129999	-123.620003	111.580002	4.00	0.00	0.00	0.00	0.00	0.00	0.00	0.00	0.75	0.00	3.50	12.50	17.50	20.00	17.25	12.50	16.25	5.25	8.50	-0.308594	0.239258	1.167480	32.060001	155.399994	-14.910000	1147.00	0.25	-0.08
2.19	0.00	0.00	0.00	0.00	0.00	0.00	0.25	0.00	0.00	0.00	0.00	0.00	0.00	0.00	0.00	0.00	-6.035156	-0.146484	-0.229004	-0.770000	-40.529999	94.989998	4.00	0.00	0.00	0.00	0.00	0.00	0.00	0.00	0.75	0.00	3.25	13.25	17.50	20.25	17.25	11.75	18.50	6.25	9.25	-0.396973	0.229004	1.236816	37.240002	252.279999	-35.209999	1183.00	0.25	-0.07
2.20	0.00	0.00	0.00	0.00	0.00	0.00	0.25	0.00	0.00	0.00	0.00	0.00	0.00	0.00	0.00	0.00	-5.975098	-0.272949	-0.212891	10.640000	9.030000	118.370003	4.00	0.00	0.00	0.00	0.00	0.00	0.00	0.00	0.50	0.00	3.25	13.00	17.75	20.00	16.75	11.00	20.25	6.75	10.00	-0.430176	0.229980	1.250000	37.730000	298.339996	-43.680000	1189.00	0.26	-0.06
2.21	0.00	0.00	0.00	0.00	0.00	0.00	0.00	0.00	0.00	0.00	0.00	0.00	0.00	0.00	0.00	0.00	-5.762207	-0.653809	-0.511719	8.750000	52.430000	143.990005	0.00	0.00	0.00	0.00	0.00	0.00	0.00	0.00	0.00	0.00	3.25	13.50	17.75	19.75	16.00	9.75	21.50	6.75	10.50	-0.497070	0.351074	1.348633	34.090000	344.750000	-56.840000	1182.00	0.26	-0.05
2.22	1.25	2.00	0.50	0.50	0.00	0.00	0.00	0.00	0.00	0.00	0.00	0.00	0.00	0.00	0.00	0.00	-8.090820	-0.666504	-2.015625	43.610001	234.570007	112.840004	42.00	0.00	0.00	0.00	0.00	0.00	0.00	0.00	0.00	0.00	3.00	13.25	17.75	19.00	15.00	8.50	23.00	7.25	10.75	-0.524902	0.421875	1.204590	22.190001	396.059998	-78.540001	1165.00	0.27	-0.04
2.23	13.00	23.00	1.25	3.00	0.00	0.00	0.00	0.00	0.00	0.00	0.00	0.00	0.00	0.00	0.00	0.00	0.697266	-2.090820	-0.949219	93.449997	395.779999	44.590000	393.00	-0.40	-0.07	0.00	0.00	0.00	0.00	0.00	0.00	0.00	2.75	12.75	17.50	18.25	13.00	7.00	23.75	7.25	10.50	-0.633789	0.479004	1.370605	6.230000	450.170013	-105.559998	1115.00	0.27	-0.03
2.24	18.25	32.00	1.00	4.25	0.00	0.00	0.00	0.00	0.00	0.00	0.00	0.25	0.00	0.00	0.00	0.00	-0.703125	-1.135742	3.637695	16.100000	428.890015	-85.120003	544.00	-0.39	-0.07	0.00	0.00	0.00	0.00	0.00	0.00	0.00	2.25	11.25	16.50	16.75	11.25	4.50	24.25	7.50	9.50	-0.848633	0.600098	1.447266	-14.910000	511.000000	-134.539993	1023.00	0.28	-0.02
2.25	23.25	38.75	1.50	7.25	0.00	0.00	0.00	0.00	0.00	0.00	0.25	0.25	0.25	0.00	0.00	0.00	-2.442383	-1.109375	2.591309	-26.809999	404.459991	-156.729996	701.00	-0.39	-0.07	0.00	0.00	0.00	0.00	0.00	0.00	0.00	1.75	9.25	14.25	14.25	9.00	1.75	23.25	7.00	8.00	-1.752930	1.691895	1.475586	-9.730000	563.150024	-168.979996	870.00	0.29	-0.01
2.26	27.50	41.25	2.25	10.00	0.00	0.00	0.00	0.00	0.00	0.00	0.50	0.50	0.00	0.00	0.00	0.00	-1.622559	2.881348	4.322754	-55.650002	364.420013	-149.380005	810.00	-0.38	-0.07	0.00	0.00	0.00	0.00	0.00	0.00	0.00	1.00	7.25	11.50	11.50	7.50	0.00	21.00	5.50	6.50	-2.525391	1.673340	2.912598	43.680000	602.700012	-203.910004	701.00	0.29	0.01
2.27	32.00	40.75	4.00	14.75	0.00	0.00	0.00	0.00	0.00	0.00	0.50	0.25	0.25	0.00	0.00	0.00	-1.082520	0.670898	1.907227	-67.760002	329.070007	-72.660004	923.00	-0.38	-0.07	0.00	0.00	0.00	0.00	0.00	0.00	0.00	0.50	5.50	9.00	8.75	4.75	0.00	16.75	3.75	5.50	-3.376953	1.201172	5.117188	71.680000	626.150024	-246.750000	527.00	0.30	0.02
2.28	34.75	38.50	7.75	18.50	1.00	0.50	0.00	0.00	0.00	0.25	0.50	1.00	0.50	0.00	0.00	0.00	-0.614258	-0.040527	2.258789	-79.099998	311.429993	-37.799999	1043.00	-0.36	-0.06	0.00	0.00	0.00	0.00	0.00	0.00	0.00	0.00	3.50	6.00	6.25	2.75	0.00	13.00	2.50	5.00	-2.252930	0.815918	3.638672	40.670002	642.739990	-288.260010	367.00	0.31	0.03
2.29	36.75	36.00	10.50	22.75	1.50	3.50	0.00	0.00	0.00	0.00	0.50	0.75	0.75	0.00	0.00	0.00	-0.528320	-0.381348	1.692871	-41.720001	269.989990	-47.950001	1153.00	-0.35	-0.06	0.00	0.00	0.00	0.00	0.00	0.00	0.00	0.00	2.00	3.75	4.00	1.75	0.00	9.25	1.75	3.75	-3.882812	2.166504	4.353516	4.900000	663.599976	-308.910004	243.00	0.32	0.02
2.30	38.00	34.50	14.00	25.25	2.25	6.00	0.25	0.25	0.00	0.50	0.25	0.50	0.25	0.00	0.00	0.00	-0.541504	0.719238	1.414551	-5.390000	235.339996	-55.720001	1257.00	-0.34	-0.06	0.00	0.00	0.00	0.00	0.00	0.00	0.00	0.00	1.50	3.00	3.00	1.75	0.00	5.50	1.00	2.00	-3.244629	3.147461	5.653809	57.750000	632.520020	-289.730011	169.00	0.30	0.01
2.31	38.50	32.75	16.75	26.00	3.00	7.00	0.25	0.50	0.00	0.25	0.25	0.50	0.50	0.00	0.00	0.00	-0.474121	0.716309	1.581055	-25.059999	211.610001	-30.799999	1307.00	-0.33	-0.06	0.00	0.00	0.00	0.00	0.00	0.00	0.00	0.00	0.75	2.50	2.25	2.00	0.25	2.50	0.75	0.50	-0.568848	2.758301	6.872559	139.789993	483.980011	-251.790009	115.00	0.28	-0.03
2.32	38.25	30.25	17.75	25.75	4.00	7.00	0.25	0.25	0.25	0.50	0.25	0.50	0.50	0.00	0.00	0.00	-0.417969	0.243652	1.395996	-100.730003	75.599998	-13.020000	1303.00	-0.32	-0.05	0.00	0.00	0.00	0.00	0.00	0.00	0.00	0.00	0.25	1.25	0.75	0.75	0.00	1.25	0.50	0.75	3.352051	0.985352	6.379883	194.389999	272.860016	-249.410004	52.00	0.30	-0.03
2.33	37.50	29.50	17.50	25.50	4.50	7.25	0.50	0.25	0.50	0.50	0.25	0.50	0.75	0.25	0.00	0.00	-0.231934	0.186523	0.936035	-51.380001	43.470001	-7.420000	1303.00	-0.32	-0.05	0.00	0.00	0.00	0.00	0.00	0.00	0.00	0.00	0.00	0.75	0.50	0.50	0.00	1.00	0.75	0.25	2.303223	0.834473	2.069336	224.139999	201.600006	-274.540009	36.00	0.00	0.00
2.34	35.75	28.25	17.25	24.50	4.50	7.00	0.50	0.50	0.25	0.50	0.25	0.50	0.75	0.25	0.00	0.00	-0.336426	0.194336	1.187500	-34.090000	32.340000	-4.200000	1257.00	-0.32	-0.05	0.00	0.00	0.00	0.00	0.00	0.00	0.00	0.00	0.25	0.50	0.50	0.00	0.00	1.00	0.75	0.00	3.215820	1.891602	4.292480	68.949997	35.630001	-246.050003	30.00	0.00	0.00
2.35	34.75	26.75	16.50	23.50	4.25	7.00	0.50	0.50	0.50	0.50	0.25	0.25	0.50	0.25	0.00	0.00	-0.314941	0.129395	1.027832	-11.620000	19.600000	-1.610000	1209.00	-0.32	-0.05	0.00	0.00	0.00	0.00	0.00	0.00	0.00	0.00	0.25	0.50	0.75	0.00	0.00	0.75	0.50	0.00	2.755859	1.925293	3.692383	-44.730000	-200.199997	-162.680008	28.00	0.00	0.00
2.36	31.75	25.25	15.25	22.00	4.00	7.00	0.50	0.50	0.25	0.50	0.00	0.25	0.50	0.25	0.00	0.00	-0.224609	0.164062	0.873047	-1.120000	15.120000	-1.610000	1125.00	-0.32	-0.06	0.00	0.25	0.00	0.00	0.00	0.00	0.00	0.00	0.00	0.00	0.50	0.00	0.00	0.75	0.25	0.00	2.030273	2.087891	1.118164	-93.239998	-267.190002	-1.190000	17.00	0.00	0.00
2.37	28.25	23.50	14.00	20.50	3.75	6.75	0.50	0.50	0.75	0.50	0.00	0.25	0.50	0.25	0.00	0.00	-0.238770	0.163574	0.862305	-0.070000	13.160000	-1.750000	1044.00	-0.31	-0.06	0.00	0.00	0.00	0.00	0.00	0.00	0.00	0.00	0.00	0.25	0.00	0.00	0.00	0.25	0.25	0.00	2.030273	2.087891	1.118164	-93.239998	-267.190002	-1.190000	7.00	0.00	0.00
2.38	23.50	20.00	12.25	18.75	3.75	7.00	0.25	0.50	0.25	0.50	0.25	0.50	0.75	0.25	0.00	0.00	-0.226562	0.159668	0.861816	2.240000	10.920000	-2.380000	923.00	-0.30	-0.07	0.00	0.00	0.00	0.00	0.00	0.00	0.00	0.00	0.00	0.00	0.25	0.00	0.00	0.00	0.00	0.00	1.841797	2.012695	0.949219	-12.390000	-239.470001	59.290001	3.00	0.00	0.00
2.39	18.25	17.00	10.25	16.75	3.50	7.00	0.25	0.50	0.50	0.75	0.25	0.50	0.75	0.25	0.00	0.00	-0.216797	0.151367	0.879395	3.360000	11.760000	-2.940000	800.00	-0.29	-0.07	0.00	0.00	0.00	0.00	0.00	0.00	0.00	0.00	0.00	0.25	0.00	0.00	0.00	0.00	0.00	0.00	1.623535	1.170410	1.879883	130.899994	-292.250000	143.919998	3.00	0.00	0.00
2.40	12.50	13.25	8.75	14.50	3.00	6.75	0.25	0.50	0.50	0.50	0.50	0.75	0.75	0.25	0.00	0.00	-0.235352	0.124512	0.918457	0.070000	14.700000	-4.480000	659.00	-0.28	-0.09	0.00	0.00	0.00	0.00	0.00	0.00	0.00	0.00	0.00	0.00	0.00	0.00	0.00	0.00	0.00	0.00	1.227051	0.689941	1.793945	124.529999	-340.549988	173.740005	0.00	0.00	0.00
2.41	8.50	9.75	7.75	11.75	2.75	6.50	0.25	0.75	0.25	0.75	0.75	0.75	1.25	0.00	0.00	0.00	-0.250488	0.165039	0.880371	-7.070000	17.500000	-5.810000	547.00	-0.25	-0.10	0.00	0.00	0.00	0.00	0.00	0.00	0.00	0.00	0.00	0.00	0.25	0.00	0.00	0.00	0.00	0.00	0.787598	0.432129	1.643066	90.860001	-377.440002	191.869995	3.00	0.00	0.00
2.42	6.50	7.75	6.50	9.75	2.50	6.00	0.25	0.75	0.50	1.00	0.75	1.00	1.50	0.00	0.00	0.00	-0.257324	0.159180	0.878418	-17.990000	20.930000	-7.490000	474.00	-0.23	-0.10	0.00	0.00	0.00	0.00	0.00	0.00	0.00	0.00	0.00	0.00	0.00	0.00	0.00	0.00	0.00	0.00	0.421387	0.310059	1.743164	61.389999	-405.720001	195.440002	0.00	0.00	0.00
2.43	5.00	6.00	5.50	8.00	2.50	5.25	0.25	1.00	0.00	0.75	0.75	1.25	2.00	0.00	0.00	0.00	-0.292969	0.169434	0.949707	-28.700001	22.330000	-9.520000	406.00	-0.22	-0.12	0.00	0.00	0.00	0.00	0.00	0.00	0.00	0.00	0.00	0.00	0.00	0.00	0.00	0.00	0.00	0.00	0.181641	0.201660	1.637695	64.610001	-417.829987	186.830002	0.00	0.00	0.00
2.44	3.50	4.25	4.50	6.50	2.00	4.25	0.25	1.00	0.25	1.25	1.25	1.50	2.50	0.00	0.00	0.00	-0.250977	0.172363	0.937500	-35.700001	22.610001	-10.780000	351.00	-0.17	-0.13	0.00	0.00	0.00	0.00	0.00	0.00	0.00	0.00	0.00	0.00	0.00	0.00	0.00	0.00	0.00	0.00	-0.064453	0.072266	1.714355	84.279999	-427.489990	170.520004	0.00	0.00	0.00
2.45	2.50	2.75	3.75	5.25	1.75	3.25	0.25	1.00	0.50	1.50	1.50	2.25	3.00	0.00	0.00	0.25	-0.306152	0.155762	0.990234	-41.930000	18.620001	-11.760000	313.00	-0.12	-0.14	0.00	0.00	0.00	0.00	0.00	0.00	0.00	0.00	0.00	0.00	0.00	0.00	0.00	0.00	0.00	0.00	-0.289062	-0.062988	1.780762	99.540001	-435.679993	153.930008	0.00	0.00	0.00
2.46	2.00	2.50	3.00	3.75	1.25	2.00	0.50	1.00	1.25	1.75	2.25	3.00	3.75	0.50	0.00	0.25	-0.336914	0.139648	1.003906	-40.250000	11.270000	-15.120000	305.00	-0.05	-0.13	0.00	0.00	0.00	0.00	0.00	0.00	0.00	0.00	0.00	0.00	0.00	0.00	0.00	0.00	0.00	0.00	-0.446289	-0.157715	1.815918	96.529999	-438.899994	141.190002	0.00	0.00	0.00
2.47	1.50	1.75	2.50	2.75	1.00	1.25	0.50	1.00	2.00	2.50	3.25	4.00	5.00	1.25	0.25	0.75	-0.285156	0.157715	1.006836	-30.730000	7.910000	-16.170000	326.00	0.04	-0.12	0.00	0.00	0.00	0.00	0.00	0.00	0.00	0.00	0.00	0.00	0.00	0.00	0.00	0.00	0.00	0.00	-0.528320	-0.125977	1.952637	80.989998	-438.059998	133.000000	0.00	0.00	0.00
2.48	1.50	1.75	2.00	2.00	0.75	0.50	0.50	0.75	3.00	3.50	6.00	5.75	5.00	2.00	0.50	1.00	-0.316406	0.120117	0.954590	-17.080000	12.040000	-17.500000	379.00	0.10	-0.10	0.00	0.00	0.00	0.00	0.00	0.00	0.00	0.00	0.00	0.00	0.00	0.00	0.00	0.00	0.00	0.00	-0.599121	-0.014648	2.161133	68.110001	-439.040009	127.400002	0.00	0.00	0.00
2.49	1.25	1.50	1.50	1.25	0.75	0.25	0.25	1.00	4.75	5.50	8.00	7.25	5.50	3.00	0.50	1.25	-0.323730	0.146484	0.937012	-5.670000	18.620001	-18.900000	452.00	0.15	-0.09	0.00	0.00	0.00	0.00	0.00	0.00	0.00	0.00	0.00	0.00	0.00	0.00	0.00	0.00	0.00	0.00	-0.692871	0.082520	2.313965	65.730003	-443.380005	124.949997	0.00	0.00	0.00
2.50	0.75	1.50	1.50	1.00	0.25	0.25	0.25	0.75	7.00	7.50	9.25	8.00	5.50	4.00	0.75	1.50	-0.329590	0.076172	0.980957	0.070000	28.630001	-20.090000	519.00	0.18	-0.06	0.00	0.00	0.00	0.00	0.00	0.00	0.00	0.00	0.00	0.00	0.00	0.00	0.00	0.00	0.00	0.00	-0.819336	0.120605	2.459473	69.230003	-445.970001	125.160004	0.00	0.00	0.00
2.51	0.75	1.00	1.00	0.75	0.25	0.25	0.25	0.75	8.00	8.50	10.75	8.75	6.25	5.50	0.50	2.00	-0.316895	0.115723	0.957031	10.710000	51.099998	-17.010000	572.00	0.20	-0.06	0.00	0.00	0.00	0.00	0.00	0.00	0.00	0.00	0.00	0.00	0.00	0.00	0.00	0.00	0.00	0.00	-0.972656	0.166992	2.658691	73.989998	-444.920013	126.070000	0.00	0.00	0.00
2.52	0.50	1.00	1.25	1.00	0.00	0.00	0.00	0.75	9.00	9.50	12.25	9.75	6.50	7.50	0.75	2.25	-0.343750	0.102539	0.948730	15.190001	63.490002	-13.860000	639.00	0.21	-0.05	0.00	0.00	0.00	0.00	0.00	0.00	0.00	0.00	0.00	0.00	0.00	0.00	0.00	0.00	0.00	0.00	-1.117676	0.260742	2.977539	78.610001	-441.000000	127.680000	0.00	0.00	0.00
2.53	0.75	0.25	0.75	0.50	0.00	0.00	0.00	0.75	10.00	10.50	13.50	11.25	6.75	8.50	1.50	3.25	-0.358887	0.113770	0.950684	16.450001	81.340004	-9.940000	700.00	0.23	-0.05	0.00	0.00	0.00	0.00	0.00	0.00	0.00	0.00	0.00	0.00	0.00	0.00	0.00	0.00	0.00	0.00	-1.299316	0.360352	3.479492	81.410004	-438.830017	130.899994	0.00	0.00	0.00
2.54	0.75	0.75	1.25	0.50	0.00	0.00	0.00	0.75	10.75	11.50	15.00	12.25	7.00	9.50	1.50	3.50	-0.366699	0.113770	0.942871	14.910000	88.970001	-7.980000	769.00	0.22	-0.05	0.00	0.00	0.00	0.00	0.00	0.00	0.00	0.00	0.00	0.00	0.00	0.00	0.00	0.00	0.00	0.00	-1.689941	0.513672	4.105469	78.680000	-446.390015	139.860001	0.00	0.00	0.00
2.55	0.75	0.50	0.75	0.50	0.00	0.00	0.00	0.75	11.50	12.50	16.25	13.50	7.00	11.00	1.75	4.25	-0.379395	0.115234	0.956543	14.630000	97.860001	-6.370000	827.00	0.23	-0.05	0.00	0.00	0.00	0.00	0.00	0.00	0.00	0.00	0.00	0.00	0.00	0.00	0.00	0.00	0.00	0.00	-2.305176	0.575195	4.451172	74.620003	-466.410004	158.619995	0.00	0.00	0.00
2.56	0.00	1.00	0.25	0.25	0.00	0.00	0.00	0.50	12.25	13.25	17.00	14.75	7.50	12.25	1.75	5.00	-0.404297	0.120117	0.934570	15.680000	109.129997	-5.110000	869.00	0.24	-0.05	0.00	0.00	0.00	0.00	0.00	0.00	0.00	0.00	0.00	0.00	0.00	0.00	0.00	0.00	0.00	0.00	-3.136230	0.395996	4.654785	81.900002	-488.880005	178.850006	0.00	0.00	0.00
2.57	0.25	0.50	0.50	0.00	0.00	0.00	0.00	0.75	12.75	14.00	18.00	15.50	7.25	13.75	2.00	5.00	-0.413086	0.133301	0.948730	17.430000	122.430000	-5.600000	917.00	0.25	-0.04	0.00	0.00	0.00	0.00	0.00	0.00	0.00	0.00	0.00	0.00	0.00	0.00	0.00	0.00	0.00	0.00	-4.083496	0.044434	4.458008	103.250000	-506.940002	191.729996	0.00	0.00	0.00
2.58	0.00	0.00	0.25	0.00	0.00	0.00	0.00	0.50	13.50	14.75	18.75	16.25	7.25	15.25	2.50	5.50	-0.437012	0.161133	1.009766	17.990000	139.860001	-6.930000	958.00	0.26	-0.04	0.00	0.00	0.00	0.00	0.00	0.00	0.00	0.00	0.00	0.00	0.00	0.00	0.00	0.00	0.00	0.00	-4.794434	-0.171387	3.314941	102.760002	-510.019989	195.440002	0.00	0.00	0.00
2.59	0.00	0.25	0.00	0.00	0.00	0.00	0.00	0.75	14.00	15.25	19.50	16.50	7.25	16.50	2.50	5.75	-0.449707	0.192871	1.017578	20.650000	162.680008	-10.570000	995.00	0.26	-0.04	0.00	0.00	0.00	0.00	0.00	0.00	0.00	0.00	0.00	0.00	0.00	0.00	0.00	0.00	0.00	0.00	-6.312988	0.196289	-0.340332	16.240000	-417.059998	131.669998	0.00	0.00	0.00
2.60	0.00	0.00	0.00	0.00	0.00	0.00	0.00	0.50	14.50	15.75	19.50	16.50	7.00	18.00	3.25	6.00	-0.499512	0.211426	1.060547	19.950001	192.779999	-17.570000	1021.00	0.26	-0.03	0.00	0.00	0.00	0.00	0.00	0.00	0.00	0.00	0.00	0.00	0.00	0.00	0.00	0.00	0.00	0.00	-6.954102	-0.150879	-1.298340	136.500000	-316.190002	88.410004	0.00	0.00	0.00
2.61	0.00	0.00	0.00	0.50	0.00	0.25	0.00	0.75	15.00	16.00	19.25	16.00	6.50	19.50	4.25	6.50	-0.521973	0.192871	1.115723	19.110001	224.839996	-27.160000	1056.00	0.26	-0.03	0.00	0.00	0.00	0.00	0.00	0.00	0.00	0.00	0.00	0.00	0.00	0.00	0.00	0.00	0.00	0.00	-7.564453	-1.083984	-1.270996	282.100006	-198.660004	66.290001	0.00	0.00	0.00
2.62	0.00	0.00	0.00	0.00	0.00	0.00	0.00	1.00	15.25	16.50	18.75	15.50	5.50	20.25	4.75	6.75	-0.467773	0.243164	0.748047	21.910000	257.529999	-33.670002	1053.00	0.27	-0.02	0.00	0.00	0.00	0.00	0.00	0.00	0.00	0.00	0.00	0.00	0.00	0.00	0.00	0.00	0.00	0.00	-7.827637	-1.944824	-0.931152	297.570007	-90.720001	64.610001	0.00	0.00	0.00
2.63	0.00	0.00	0.00	0.00	0.00	0.00	0.00	0.75	15.25	16.50	18.75	14.50	5.25	21.50	5.25	7.00	-0.434570	0.201660	0.941406	26.740000	299.809998	-39.830002	1054.00	0.27	-0.01	0.00	0.00	0.00	0.00	0.00	0.00	0.00	0.00	0.00	0.00	0.00	0.00	0.00	0.00	0.00	0.00	-7.361328	-2.278809	-0.703125	157.009995	-4.130000	66.779999	0.00	0.00	0.00
2.64	0.00	0.00	0.00	0.00	0.00	0.00	0.00	0.75	15.00	16.50	18.00	13.25	4.25	22.25	5.50	7.00	-0.862305	0.143555	1.094238	27.860001	345.660004	-46.970001	1030.00	0.28	-0.00	0.00	0.00	0.00	0.00	0.00	0.00	0.00	0.00	0.00	0.00	0.00	0.00	0.00	0.00	0.00	0.00	-6.247559	-1.857422	-0.330566	-19.879999	73.989998	65.870003	0.00	0.00	0.00
2.65	0.00	0.00	0.00	0.00	0.00	0.00	0.00	0.75	14.25	16.25	17.25	12.00	2.75	22.75	5.50	6.75	-0.831543	0.395996	1.080566	20.230000	394.100006	-59.500000	987.00	0.28	0.01	0.00	0.00	0.00	0.00	0.00	0.00	0.00	0.00	0.00	0.00	0.00	0.00	0.00	0.00	0.00	0.00	-5.091797	-1.155762	0.661621	-105.000000	140.699997	59.990002	0.00	0.00	0.00
2.66	0.00	0.00	0.00	0.00	0.00	0.00	0.00	0.75	12.75	15.25	15.75	10.25	2.00	23.00	5.50	6.50	-0.947754	0.357422	1.213867	4.900000	441.489990	-81.550003	916.00	0.28	0.01	0.25	0.75	0.00	0.00	0.00	0.00	0.00	0.00	0.00	0.00	0.00	0.00	0.00	0.00	0.00	0.00	15.906250	13.709473	-4.176758	-59.779999	166.669998	17.219999	9.00	0.00	0.00
2.67	0.00	0.00	0.00	0.00	0.00	0.00	0.00	1.00	10.50	13.25	13.75	8.75	1.25	22.75	5.00	5.75	-1.234863	0.556641	1.391602	-1.610000	482.720001	-105.209999	815.00	0.29	0.01	11.25	20.75	0.25	5.25	0.00	0.00	0.00	0.00	0.00	0.00	0.00	0.00	0.00	0.25	0.00	0.00	9.610840	-0.404785	1.040039	113.820000	126.770004	-12.530000	370.00	-0.39	-0.08
2.68	0.00	0.00	0.00	0.00	0.00	0.00	0.00	0.75	8.50	11.25	11.25	7.25	1.00	21.75	4.00	5.00	-1.783691	1.473633	2.071777	6.300000	521.919983	-126.840004	697.00	0.29	0.02	14.75	25.25	0.25	5.50	0.00	0.00	0.00	0.00	0.00	0.00	0.00	0.00	0.00	0.00	0.00	0.00	-2.626953	-5.263672	-4.283691	-17.150000	213.570007	-228.199997	448.00	-0.39	-0.08
2.69	0.00	0.00	0.00	0.00	0.00	0.00	0.00	0.50	6.75	9.00	8.50	5.50	0.50	19.75	2.50	3.75	-3.576660	1.126465	4.008789	43.820000	547.609985	-149.309998	556.00	0.30	0.03	19.75	29.25	1.00	9.00	0.00	0.00	0.00	0.00	0.00	0.00	0.00	0.00	0.25	0.00	0.00	0.00	-2.809570	6.634766	8.002930	-429.450012	550.619995	-385.420013	586.00	-0.39	-0.08
2.70	0.00	0.00	0.00	0.00	0.00	0.00	0.00	0.25	5.50	6.75	5.75	4.00	0.50	16.50	2.00	3.25	-2.584961	0.994629	3.670410	47.950001	562.099976	-189.279999	432.00	0.30	0.04	28.00	32.50	3.50	13.00	0.00	0.25	0.00	0.25	0.00	0.00	0.00	0.25	0.00	0.00	0.00	0.00	-3.180664	1.798828	3.611816	-220.430008	417.619995	-189.279999	780.00	-0.38	-0.06
2.71	0.00	0.00	0.00	0.00	0.00	0.00	0.00	0.00	3.75	3.75	4.00	3.00	0.00	14.50	1.00	2.75	-2.348145	1.166504	2.836914	39.900002	578.270020	-238.419998	311.00	0.32	0.06	29.75	30.00	7.00	15.50	0.50	3.75	0.00	1.00	0.00	0.00	0.00	0.25	0.50	0.00	0.00	0.00	-0.503418	1.747559	4.147461	-112.209999	453.950012	-57.260002	901.00	-0.35	-0.07
2.72	0.00	0.00	0.00	0.00	0.00	0.00	0.00	0.00	2.50	3.25	2.75	2.00	0.50	11.75	0.50	1.50	-3.826172	2.598145	3.961426	43.889999	584.710022	-262.779999	234.00	0.32	0.06	29.25	27.75	8.75	17.50	1.25	7.00	0.00	1.00	0.00	0.00	0.00	0.00	0.00	0.00	0.00	0.00	-0.737305	-1.506348	2.370605	-53.130001	343.839996	-5.810000	953.00	-0.34	-0.07
2.73	0.00	0.00	0.00	0.00	0.00	0.00	0.00	0.00	2.00	2.75	2.00	2.25	0.50	7.75	0.50	0.50	-2.749023	2.415039	4.890625	137.059998	542.010010	-214.759995	178.00	0.31	0.05	28.00	25.50	10.25	18.75	1.75	8.75	0.00	1.00	0.00	0.00	0.00	0.00	0.00	0.00	0.00	0.00	-0.195312	0.024902	1.704590	3.430000	233.309998	-51.029999	974.00	-0.33	-0.08
2.74	0.00	0.00	0.00	0.00	0.00	0.00	0.00	0.00	1.75	2.00	1.25	1.50	0.25	4.25	0.00	0.00	2.475098	0.972656	4.900391	208.180008	316.049988	-229.600006	111.00	0.29	0.06	27.00	24.50	11.50	20.25	2.25	11.25	0.00	2.25	0.00	0.00	0.00	0.50	1.00	0.00	0.00	0.00	-0.411621	0.783691	1.162109	23.450001	209.369995	-56.910000	1051.00	-0.31	-0.09
2.75	0.00	0.00	0.00	0.00	0.00	0.00	0.00	0.00	0.75	0.50	0.50	0.75	0.50	2.00	0.25	0.00	1.750488	0.270996	3.485840	163.800003	217.699997	-252.910004	52.00	0.30	0.02	25.00	23.00	11.75	19.75	2.75	11.75	0.00	3.00	0.25	0.00	0.00	0.25	1.25	0.00	0.00	0.00	-0.437012	-0.755371	-0.710449	-41.090000	105.489998	-2.940000	1039.00	-0.30	-0.10
2.76	0.00	0.75	0.50	0.25	0.00	0.00	0.00	0.00	0.00	0.50	0.50	0.75	0.00	0.50	0.00	0.00	2.095703	2.199219	4.166016	43.259998	140.139999	-193.690002	38.00	0.00	0.00	24.25	22.00	11.50	19.75	2.75	12.25	0.00	3.50	0.00	0.00	0.00	0.50	1.50	0.00	0.00	0.00	-0.083008	-0.127930	1.154297	-48.650002	48.509998	3.710000	1033.00	-0.29	-0.10
2.77	0.00	0.00	0.00	0.00	0.00	0.00	0.25	0.00	0.25	0.25	0.50	0.25	0.00	0.50	0.00	0.00	3.068848	1.866699	5.051758	-94.290001	-101.360001	-92.190002	22.00	0.00	0.00	22.75	21.25	11.25	19.25	2.75	12.25	0.00	4.00	0.00	0.00	0.25	0.50	1.25	0.00	0.00	0.00	-0.213867	0.283691	0.928223	-33.389999	33.180000	-3.220000	1011.00	-0.29	-0.11
2.78	0.00	0.00	0.00	0.00	0.00	0.00	0.00	0.00	0.00	0.25	0.00	0.25	0.00	0.00	0.00	0.00	1.759766	1.560059	3.291504	-176.680008	-257.459991	2.520000	5.00	0.00	0.00	21.75	20.50	10.75	18.75	2.75	12.25	0.00	4.00	0.00	0.00	0.50	0.25	1.50	0.25	0.00	0.00	-0.261230	0.227051	1.211914	-29.190001	29.260000	0.070000	987.00	-0.28	-0.11
2.79	0.00	0.00	0.25	0.00	0.00	0.00	0.00	0.00	0.25	0.50	0.25	0.00	0.00	0.00	0.00	0.00	1.767578	1.257812	2.146973	-213.710007	-298.339996	66.570000	14.00	0.00	0.00	20.50	19.50	10.25	18.00	2.50	11.50	0.00	3.50	0.00	0.00	0.25	0.25	1.25	0.25	0.00	0.00	-0.188477	0.206055	0.952637	-10.080000	10.290000	2.590000	928.00	-0.29	-0.11
2.80	0.00	0.00	0.00	0.00	0.00	0.00	0.00	0.00	0.00	0.50	0.00	0.00	0.00	0.00	0.00	0.00	1.601074	1.249512	1.748535	-207.899994	-300.089996	94.430000	5.00	0.00	0.00	18.50	18.50	9.50	17.00	2.25	11.50	0.00	3.50	0.00	0.00	0.25	0.00	1.25	0.00	0.00	0.00	-0.146484	0.191406	0.902344	-11.060000	10.150000	2.660000	871.00	-0.29	-0.11
2.81	0.00	0.00	0.00	0.00	0.00	0.00	0.00	0.00	0.00	0.25	0.25	0.25	0.00	0.00	0.00	0.00	1.338379	1.290527	1.747070	-156.380005	-309.049988	104.440002	8.00	0.00	0.00	16.75	17.25	9.00	16.00	2.25	10.75	0.00	3.25	0.00	0.00	0.25	0.00	0.75	0.00	0.00	0.00	-0.158203	0.199219	0.950195	-12.810000	10.010000	1.330000	808.00	-0.29	-0.11
2.82	0.00	0.25	0.00	0.00	0.00	0.00	0.00	0.00	0.00	0.00	0.00	0.00	0.00	0.00	0.00	0.00	1.117676	1.164062	1.781250	-80.989998	-337.260010	108.290001	2.00	0.00	0.00	14.00	15.50	8.00	14.75	2.00	10.50	0.00	3.00	0.00	0.00	0.00	0.25	0.75	0.00	0.00	0.00	-0.142090	0.197754	0.888184	-14.630000	11.690000	0.280000	730.00	-0.28	-0.12
2.83	0.00	0.00	0.00	0.00	0.00	0.00	0.25	0.00	0.00	0.00	0.00	0.00	0.00	0.00	0.00	0.00	0.826660	0.915039	1.859863	-15.540000	-376.110016	110.250000	4.00	0.00	0.00	11.75	13.00	7.50	13.50	2.00	9.75	0.00	3.25	0.00	0.00	0.25	0.50	1.00	0.00	0.00	0.00	-0.133301	0.186035	0.877930	-19.460001	14.770000	-1.470000	667.00	-0.27	-0.13
2.84	0.00	0.00	0.00	0.00	0.00	0.00	0.00	0.00	0.00	0.00	0.00	0.00	0.00	0.00	0.00	0.00	0.471191	0.683105	1.848145	15.680000	-414.890015	112.070000	0.00	0.00	0.00	9.25	11.00	6.75	12.50	1.75	9.25	0.00	3.50	0.00	0.00	0.25	0.00	1.00	0.00	0.00	0.00	-0.187988	0.202148	0.890625	-28.000000	17.920000	-3.290000	594.00	-0.26	-0.14
2.85	0.00	0.00	0.00	0.00	0.00	0.00	0.00	0.00	0.00	0.00	0.00	0.00	0.00	0.00	0.00	0.00	0.133789	0.499023	1.838379	16.100000	-445.269989	114.800003	0.00	0.00	0.00	7.50	9.00	5.50	11.25	1.75	8.75	0.00	3.25	0.00	0.25	0.25	0.50	1.75	0.25	0.00	0.00	-0.208008	0.185059	0.931152	-38.080002	20.370001	-4.060000	537.00	-0.24	-0.15
2.86	0.00	0.00	0.00	0.00	0.00	0.00	0.00	0.00	0.00	0.00	0.25	0.00	0.00	0.00	0.00	0.00	-0.200684	0.459473	1.832031	-1.190000	-466.619995	115.989998	3.00	0.00	0.00	6.00	7.25	5.25	10.00	1.75	8.25	0.00	3.25	0.25	0.50	0.25	0.50	2.00	0.00	0.00	0.00	-0.212891	0.180176	0.940918	-42.700001	20.230000	-4.830000	489.00	-0.22	-0.15
2.87	0.00	0.25	0.00	0.00	0.00	0.00	0.25	0.00	0.00	0.00	0.00	0.00	0.00	0.00	0.00	0.00	-0.416504	0.441895	1.906250	-19.879999	-482.580017	114.379997	6.00	0.00	0.00	4.75	5.75	4.50	9.00	1.75	7.75	0.00	3.50	0.25	0.50	0.75	1.00	2.25	0.00	0.00	0.25	-0.216309	0.162598	0.985352	-47.740002	19.389999	-4.550000	456.00	-0.20	-0.17
2.88	0.00	0.00	0.00	0.25	0.00	0.00	0.00	0.00	0.00	0.00	0.00	0.00	0.00	0.00	0.00	0.00	-0.552734	0.444824	1.794434	-29.120001	-494.549988	109.480003	3.00	0.00	0.00	3.75	5.00	3.50	8.00	1.75	6.75	0.00	3.25	0.25	0.75	1.25	1.00	3.00	0.00	0.00	0.50	-0.180664	0.150391	0.972168	-51.799999	14.140000	-3.850000	417.00	-0.17	-0.18
2.89	0.00	0.00	0.00	0.00	0.00	0.00	0.00	0.00	0.00	0.00	0.00	0.00	0.00	0.00	0.00	0.00	-0.739746	0.469238	1.812500	-24.920000	-502.179993	102.620003	0.00	0.00	0.00	2.50	3.00	3.25	6.75	1.50	6.00	0.00	3.25	0.50	1.25	1.50	1.75	4.25	0.00	0.00	0.50	-0.211914	0.135254	1.000000	-49.700001	7.000000	-3.500000	388.00	-0.12	-0.19
2.90	0.00	0.00	0.00	0.00	0.00	0.00	0.00	0.00	0.00	0.00	0.00	0.00	0.00	0.00	0.00	0.00	-0.876953	0.483887	1.926270	-6.440000	-503.440002	93.730003	0.00	0.00	0.00	1.75	2.25	1.75	5.50	1.25	5.25	0.00	3.50	1.00	1.25	2.00	2.00	5.00	0.00	0.25	0.75	-0.203125	0.166016	1.041016	-40.670002	1.470000	-5.460000	361.00	-0.07	-0.21
2.91	0.00	0.25	0.00	0.00	0.00	0.00	0.25	0.00	0.00	0.00	0.00	0.00	0.00	0.00	0.00	0.00	-0.974121	0.475098	2.088379	19.040001	-503.230011	84.070000	6.00	0.00	0.00	1.25	1.75	1.50	4.25	1.00	3.75	0.00	3.25	1.00	2.25	3.25	2.75	5.50	0.50	0.25	1.00	-0.216309	0.156250	1.008789	-24.920000	2.240000	-7.910000	353.00	-0.01	-0.20
2.92	0.00	0.00	0.00	0.00	0.00	0.00	0.00	0.00	0.00	0.00	0.00	0.00	0.00	0.00	0.00	0.00	-1.173340	0.512695	2.623047	49.349998	-509.390015	73.430000	0.00	0.00	0.00	1.00	0.75	1.00	2.75	0.75	1.75	0.00	3.00	1.75	3.00	4.50	4.00	6.00	1.00	0.50	1.50	-0.205566	0.153809	0.982422	-13.300000	7.560000	-10.080000	349.00	0.08	-0.18
2.93	0.00	0.00	0.00	0.00	0.00	0.00	0.00	0.00	0.00	0.00	0.00	0.00	0.00	0.00	0.00	0.00	-1.173340	0.512695	2.623047	49.349998	-509.390015	73.430000	0.00	0.00	0.00	0.50	0.75	1.00	2.00	0.50	0.75	0.00	2.25	3.00	4.00	7.50	6.25	6.75	1.25	0.50	1.50	-0.218262	0.153809	0.970215	-6.580000	12.250000	-12.250000	401.00	0.14	-0.16
2.94	0.00	0.00	0.00	0.00	0.00	0.00	0.00	0.00	0.00	0.00	0.00	0.00	0.00	0.00	0.00	0.00	-1.273926	0.547852	2.847168	51.869999	-513.169983	74.269997	0.00	0.00	0.00	0.50	0.75	0.50	1.00	0.25	0.50	0.00	2.50	3.75	6.75	9.00	8.00	7.50	2.25	0.75	2.00	-0.245117	0.135742	1.082520	0.140000	18.620001	-13.300000	476.00	0.17	-0.14
2.95	0.00	0.00	0.00	0.00	0.00	0.00	0.25	0.00	0.00	0.00	0.00	0.00	0.00	0.00	0.00	0.00	-1.627930	0.848633	3.632324	65.449997	-512.960022	85.680000	4.00	0.00	0.00	0.25	0.50	0.00	1.00	0.00	0.25	0.00	2.25	4.75	8.00	10.25	8.75	7.75	3.25	1.00	2.50	-0.203613	0.144043	1.118652	3.780000	40.250000	-10.640000	519.00	0.20	-0.13
2.96	0.00	0.00	0.00	0.00	0.00	0.00	0.25	0.00	0.00	0.00	0.00	0.00	0.00	0.00	0.00	0.00	-2.078613	1.048340	3.848633	70.000000	-510.649994	108.150002	4.00	0.00	0.00	0.00	0.00	0.00	0.75	0.25	0.00	0.00	2.25	5.75	9.25	11.50	9.75	8.25	4.25	1.25	3.00	-0.265625	0.143555	1.018066	14.280000	73.010002	-11.760000	577.00	0.22	-0.11
2.97	0.00	0.00	0.75	0.00	0.00	0.00	0.00	0.00	0.00	0.00	0.00	0.00	0.00	0.00	0.00	0.00	-2.821289	0.866211	3.463867	91.840004	-505.190002	148.470001	8.00	0.00	0.00	0.00	0.00	0.00	0.25	0.00	0.25	0.00	1.75	7.50	10.50	13.00	10.75	8.25	6.00	1.75	4.25	-0.265625	0.143555	1.018066	14.280000	73.010002	-11.760000	653.00	0.23	-0.09
2.98	0.00	0.00	0.00	0.00	0.00	0.00	0.25	0.00	0.00	0.00	0.00	0.00	0.00	0.00	0.00	0.00	-3.501465	0.403320	3.454590	165.270004	-483.070007	184.660004	4.00	0.00	0.00	0.00	0.25	0.00	0.25	0.00	0.00	0.00	1.75	8.00	11.50	14.25	11.75	8.75	7.50	1.75	5.25	-0.282715	0.142090	1.022949	14.770000	84.070000	-11.340000	716.00	0.24	-0.09
2.99	0.00	0.00	0.00	0.00	0.00	0.00	0.00	0.00	0.00	0.00	0.00	0.00	0.00	0.00	0.00	0.00	-4.038086	-0.067383	3.160156	208.809998	-449.049988	208.949997	0.00	0.00	0.00	0.00	0.75	0.00	0.00	0.00	0.00	0.00	1.75	9.25	12.75	15.25	12.50	9.00	9.00	2.50	6.00	-0.318848	0.192871	0.979492	15.540000	106.050003	-12.040000	793.00	0.24	-0.08
3.00	0.00	0.00	0.00	0.00	0.00	0.00	0.00	0.00	0.00	0.00	0.00	0.00	0.00	0.00	0.00	0.00	-4.444336	-0.354980	2.480469	165.899994	-398.089996	222.460007	0.00	0.00	0.00	0.00	0.00	0.00	0.00	0.00	0.00	0.00	1.50	9.75	13.75	16.50	13.50	9.00	10.75	3.25	6.75	-0.341309	0.168457	1.026367	13.440001	114.730003	-12.390000	849.00	0.25	-0.07
3.01	0.00	0.00	0.00	0.00	0.00	0.00	0.00	0.00	0.00	0.00	0.00	0.00	0.00	0.00	0.00	0.00	-4.611816	-0.409668	1.325195	65.029999	-340.690002	213.009995	0.00	0.00	0.00	0.00	0.00	0.00	0.50	0.00	0.00	0.00	1.50	10.25	14.75	17.00	14.00	9.25	13.25	3.75	7.50	-0.344727	0.167969	1.024902	13.370000	131.880005	-13.020000	915.00	0.25	-0.07
3.02	0.00	0.00	0.00	0.00	0.00	0.00	0.00	0.00	0.00	0.00	0.00	0.00	0.00	0.00	0.00	0.00	-5.267578	-0.296387	0.374512	17.290001	-285.040009	173.809998	0.00	0.00	0.00	0.00	0.00	0.00	0.00	0.00	0.00	0.00	1.50	11.25	15.50	17.75	14.25	9.25	16.00	4.75	8.25	-0.365234	0.203613	1.129395	18.270000	157.990005	-16.030001	979.00	0.26	-0.06
3.03	0.00	0.00	0.00	0.00	0.00	0.00	0.00	0.00	0.00	0.00	0.00	0.00	0.00	0.00	0.00	0.00	-6.129883	-0.325195	-0.333496	59.849998	-234.850006	106.680000	0.00	0.00	0.00	0.00	0.00	0.00	0.00	0.00	0.00	0.00	1.50	12.00	16.00	18.00	14.50	9.00	18.25	5.50	9.25	-0.412598	0.208008	1.166016	20.510000	190.960007	-21.910000	1030.00	0.27	-0.05
3.04	0.00	0.00	0.00	0.00	0.00	0.00	0.25	0.00	0.00	0.00	0.00	0.00	0.00	0.00	0.00	0.00	-6.476562	-0.545898	-0.960449	149.100006	-175.630005	43.470001	4.00	0.00	0.00	0.00	0.00	0.00	0.00	0.00	0.00	0.00	1.50	12.75	16.50	18.00	14.25	8.50	20.50	6.50	9.75	-0.457031	0.205078	1.148438	22.120001	227.080002	-29.190001	1070.00	0.27	-0.04
3.05	0.00	0.00	0.00	0.00	0.00	0.00	0.00	0.00	0.00	0.00	0.00	0.00	0.00	0.00	0.00	0.00	-6.397461	-1.115723	-1.269043	180.039993	-92.889999	11.690000	0.00	0.00	0.00	0.00	0.00	0.00	0.00	0.00	0.00	0.00	0.75	13.25	17.00	17.75	14.00	7.75	22.50	7.00	10.75	-0.478516	0.232910	1.221680	24.430000	266.839996	-37.450001	1086.00	0.28	-0.03
3.06	0.00	0.00	0.00	0.00	0.00	0.00	0.00	0.00	0.00	0.00	0.00	0.00	0.00	0.00	0.00	0.00	-5.958984	-1.260742	-0.958496	108.570000	-3.640000	0.280000	0.00	0.00	0.00	0.00	0.00	0.00	0.00	0.00	0.00	0.00	1.25	13.50	17.00	17.50	13.25	7.25	23.75	7.75	11.25	-0.500977	0.266602	1.317871	25.200001	309.540009	-47.250000	1104.00	0.28	-0.03
3.07	0.00	0.00	0.00	0.00	0.00	0.00	0.00	0.00	0.00	0.00	0.00	0.00	0.00	0.00	0.00	0.00	-5.234863	-0.806641	-0.320801	-2.800000	75.459999	-2.520000	0.00	0.00	0.00	0.00	0.00	0.00	0.00	0.00	0.00	0.00	1.50	13.00	17.00	17.00	12.25	6.00	25.00	8.00	11.50	-0.540039	0.323242	1.276855	18.200001	355.459991	-61.740002	1089.00	0.28	-0.02
3.08	0.00	0.00	0.00	0.00	0.00	0.00	0.00	0.00	0.00	0.00	0.00	0.00	0.00	0.00	0.00	0.00	-4.409180	-0.097656	0.608887	-60.060001	131.949997	2.170000	0.00	0.00	0.00	0.00	0.00	0.00	0.00	0.00	0.00	0.00	2.00	12.50	16.75	16.25	10.75	4.75	25.50	8.25	11.25	-0.631836	0.482910	1.236816	4.760000	405.649994	-85.750000	1058.00	0.28	-0.02
3.09	0.50	0.50	0.50	0.25	0.00	0.00	0.00	0.00	0.00	0.00	0.00	0.00	0.00	0.00	0.00	0.00	12.703125	-3.787109	1.970703	-38.849998	160.509995	3.850000	18.00	0.00	0.00	0.00	0.00	0.00	0.00	0.00	0.00	0.00	1.50	11.25	16.00	15.25	9.75	2.75	26.00	8.25	10.75	-0.760254	0.654785	1.132812	-9.310000	457.170013	-118.090004	990.00	0.29	-0.00
3.10	14.00	23.50	0.75	3.75	0.00	0.00	0.00	0.00	0.00	0.00	0.00	0.00	0.00	0.00	0.00	0.00	2.363770	-0.581543	1.458984	96.669998	309.329987	10.710000	411.00	-0.40	-0.07	0.00	0.00	0.00	0.00	0.00	0.00	0.00	1.25	9.00	14.00	13.50	8.25	0.75	25.25	7.75	9.50	-1.250000	1.214355	1.592285	-0.280000	501.480011	-154.699997	866.00	0.30	0.01
3.11	22.75	37.25	1.00	4.75	0.00	0.00	0.00	0.00	0.00	0.25	0.25	0.50	0.00	0.00	0.00	0.00	0.344727	-1.839844	-2.922363	96.459999	308.700012	-108.849998	652.00	-0.39	-0.07	0.00	0.00	0.00	0.00	0.00	0.00	0.00	1.25	7.25	11.50	11.00	6.75	0.00	23.25	6.50	8.25	-2.169434	2.405762	2.572754	68.110001	552.299988	-191.729996	731.00	0.30	0.01
3.12	27.25	44.50	0.50	8.50	0.00	0.00	0.00	0.00	0.00	0.00	0.25	0.75	0.25	0.00	0.00	0.00	-4.464844	1.353516	5.373535	-17.500000	528.500000	-199.919998	803.00	-0.39	-0.08	0.00	0.00	0.00	0.00	0.00	0.00	0.00	0.25	5.75	9.00	8.50	4.25	0.00	19.00	5.00	7.00	-3.440430	1.495117	4.475586	125.020004	598.220032	-231.559998	559.00	0.31	0.03
3.13	31.00	48.25	3.25	15.75	0.00	0.00	0.00	0.00	0.00	0.00	0.50	1.00	0.75	0.00	0.00	0.00	-2.695801	3.188965	5.923340	-43.680000	509.950012	-129.360001	996.00	-0.37	-0.08	0.00	0.00	0.00	0.00	0.00	0.00	0.00	0.25	3.75	5.75	5.75	2.50	0.00	15.25	3.75	6.25	-2.357422	1.356445	4.028809	115.010002	616.349976	-278.880005	403.00	0.32	0.03
3.14	34.00	45.50	6.75	21.25	0.25	2.00	0.00	0.00	0.00	0.00	0.75	0.75	1.00	0.00	0.00	0.00	-1.759277	-1.328613	3.780273	-70.980003	454.790009	-63.139999	1128.00	-0.36	-0.08	0.00	0.00	0.00	0.00	0.00	0.00	0.00	0.00	2.50	3.75	3.50	1.50	0.00	12.00	2.75	5.50	-3.000977	1.787109	2.830078	75.110001	644.419983	-325.850006	285.00	0.33	0.03
3.15	34.75	42.75	9.50	25.25	1.00	4.25	0.00	0.25	0.00	0.00	0.50	0.75	0.75	0.00	0.00	0.00	-0.806152	0.124512	2.829102	-66.290001	365.260010	-76.580002	1217.00	-0.35	-0.08	0.00	0.00	0.00	0.00	0.00	0.00	0.00	0.00	1.50	2.75	2.75	1.25	0.00	7.75	2.25	4.00	-3.835449	2.762207	5.388184	113.260002	642.809998	-312.760010	202.00	0.33	0.01
3.16	35.75	38.25	13.25	28.25	2.00	7.25	0.25	0.25	0.00	0.00	0.25	0.50	0.50	0.00	0.00	0.00	-0.553223	0.578125	1.547363	-43.400002	310.239990	-81.199997	1300.00	-0.34	-0.08	0.00	0.00	0.00	0.00	0.00	0.00	0.00	0.00	1.00	2.50	2.50	1.25	0.00	3.50	1.00	1.25	-2.186035	2.587891	6.045898	167.369995	549.849976	-296.029999	126.00	0.30	0.00
3.17	37.00	35.00	16.75	29.50	4.50	8.50	0.25	0.50	0.00	0.25	0.25	0.75	1.50	0.00	0.00	0.00	-0.196289	-0.137695	0.277344	-148.750000	187.600006	-12.740000	1395.00	-0.32	-0.07	0.00	0.00	0.00	0.00	0.00	0.00	0.00	0.00	0.75	1.25	0.50	0.25	0.00	2.00	0.50	0.50	0.836426	1.975586	7.142578	167.229996	339.920013	-292.320007	56.00	0.31	0.07
3.18	37.50	31.75	18.75	29.00	5.25	8.75	0.50	0.75	0.50	0.75	0.50	0.75	1.75	0.00	0.00	0.00	-0.240723	-0.031738	1.345215	-154.699997	109.550003	-10.990000	1422.00	-0.31	-0.06	0.25	0.00	0.00	0.00	0.00	0.00	0.00	0.00	0.25	0.50	0.25	0.25	0.00	1.75	0.75	0.25	2.879883	0.622559	3.804688	179.130005	224.419998	-309.470001	40.00	0.00	0.00
3.19	37.25	30.00	19.75	28.00	6.00	8.75	0.50	0.75	0.75	0.75	0.50	0.50	2.00	0.00	0.00	0.00	-0.383301	0.276367	1.240234	-122.849998	66.639999	-12.390000	1415.00	-0.30	-0.06	0.00	0.00	0.00	0.00	0.00	0.00	0.00	0.00	0.25	0.50	0.00	0.00	0.00	1.50	0.50	0.25	2.947266	2.210938	4.559082	-81.900002	-123.550003	-213.430008	28.00	0.00	0.00
3.20	36.00	27.75	19.50	27.00	6.50	8.75	0.50	1.00	0.75	0.75	0.75	0.75	2.25	0.25	0.00	0.00	-0.296387	0.082031	1.275391	-76.930000	33.459999	-7.280000	1386.00	-0.30	-0.06	0.00	0.00	0.00	0.00	0.00	0.00	0.00	0.00	0.00	0.50	0.25	0.00	0.00	1.00	0.50	0.00	1.862305	2.150879	2.921875	-148.259995	-299.179993	-128.380005	22.00	0.00	0.00
3.21	34.50	26.50	19.00	26.00	6.50	8.50	0.75	0.75	1.00	1.00	0.50	0.50	2.25	0.50	0.00	0.25	-0.295898	0.139160	1.000488	-40.459999	16.450001	-4.760000	1344.00	-0.29	-0.06	0.00	0.00	0.00	0.00	0.00	0.00	0.00	0.00	0.25	0.00	0.25	0.00	0.00	0.50	0.25	0.00	1.667480	2.114258	1.533203	-127.889999	-311.149994	-41.790001	13.00	0.00	0.00
3.22	32.75	24.50	18.50	24.75	6.50	8.25	0.75	0.75	1.50	1.00	0.75	0.75	2.00	0.75	0.00	0.25	-0.273926	0.105957	1.004395	-22.820000	10.710000	-3.570000	1297.00	-0.28	-0.05	0.00	0.00	0.00	0.00	0.00	0.00	0.00	0.00	0.00	0.25	0.25	0.00	0.00	0.25	0.25	0.00	1.768066	2.221680	1.253418	-56.139999	-272.369995	38.709999	10.00	0.00	0.00
3.23	29.75	22.50	16.75	23.00	6.50	8.25	0.75	0.75	1.50	1.25	0.75	1.00	2.25	0.50	0.00	0.25	-0.376465	0.225098	0.984375	-10.080000	10.920000	-2.310000	1214.00	-0.28	-0.06	0.00	0.00	0.00	0.00	0.00	0.00	0.00	0.00	0.00	0.00	0.00	0.00	0.00	0.25	0.00	0.00	1.850586	1.979492	1.308594	24.080000	-268.730011	99.050003	2.00	0.00	0.00
3.24	25.75	19.75	15.25	21.00	6.25	8.25	0.75	0.75	1.25	1.00	0.75	1.00	2.25	0.75	0.00	0.25	-0.310059	0.116211	0.984863	-1.680000	11.410000	-1.540000	1102.00	-0.27	-0.06	0.00	0.00	0.00	0.00	0.00	0.00	0.00	0.00	0.00	0.00	0.00	0.00	0.00	0.25	0.25	0.00	1.643066	1.544922	1.782227	85.260002	-305.899994	144.690002	5.00	0.00	0.00
3.25	21.50	17.50	13.50	19.00	5.75	8.00	0.50	1.00	1.25	1.50	0.75	1.00	2.25	0.75	0.00	0.25	-0.345703	0.138184	0.971680	3.780000	11.690000	-1.260000	993.00	-0.26	-0.07	0.00	0.00	0.00	0.00	0.00	0.00	0.00	0.00	0.00	0.00	0.00	0.00	0.00	0.00	0.00	0.00	1.254883	1.040527	1.830078	107.379997	-357.910004	177.800003	0.00	0.00	0.00
3.26	16.00	14.00	11.25	17.00	5.25	7.75	0.50	1.00	1.00	1.25	1.00	1.00	2.75	0.50	0.00	0.25	-0.261719	0.111816	0.942871	7.490000	11.550000	-0.910000	848.00	-0.25	-0.08	0.00	0.00	0.00	0.00	0.00	0.00	0.00	0.00	0.00	0.00	0.00	0.00	0.00	0.00	0.00	0.00	0.789062	0.653809	1.628418	98.489998	-400.399994	195.789993	0.00	0.00	0.00
3.27	11.00	11.25	9.00	14.25	4.75	7.50	0.50	1.25	0.75	1.25	1.25	1.50	2.75	0.50	0.00	0.25	-0.257812	0.124512	0.933594	9.730000	11.830000	-1.260000	716.00	-0.23	-0.10	0.00	0.00	0.00	0.00	0.00	0.00	0.00	0.00	0.00	0.00	0.00	0.00	0.00	0.00	0.00	0.00	0.313477	0.428711	1.983398	83.300003	-426.369995	197.750000	0.00	0.00	0.00
3.28	7.50	8.25	7.75	11.50	4.00	6.75	0.50	1.50	0.75	1.25	1.00	1.75	3.00	0.25	0.00	0.25	-0.240234	0.124023	0.934082	8.540000	12.880000	-2.100000	595.00	-0.20	-0.11	0.00	0.00	0.00	0.00	0.00	0.00	0.00	0.00	0.00	0.00	0.00	0.00	0.00	0.00	0.00	0.00	0.100098	0.247559	1.560547	79.309998	-439.529999	186.830002	0.00	0.00	0.00
3.29	5.50	6.50	6.50	9.00	3.25	6.00	0.50	1.50	0.75	1.25	1.25	2.00	3.50	0.75	0.00	0.25	-0.248535	0.138672	0.932617	4.200000	13.930000	-3.430000	515.00	-0.17	-0.12	0.00	0.00	0.00	0.00	0.00	0.00	0.00	0.00	0.00	0.00	0.00	0.00	0.00	0.00	0.00	0.00	-0.125000	0.197266	1.654297	87.989998	-446.390015	169.820007	0.00	0.00	0.00
3.30	4.00	5.00	5.25	7.25	2.75	5.00	0.50	1.25	0.75	1.25	1.50	2.25	4.00	0.50	0.00	0.50	-0.275879	0.148438	0.923340	-0.770000	15.120000	-5.670000	441.00	-0.14	-0.13	0.00	0.00	0.00	0.00	0.00	0.00	0.00	0.00	0.00	0.00	0.00	0.00	0.00	0.00	0.00	0.00	-0.311035	0.106934	1.835938	101.779999	-453.040009	152.250000	0.00	0.00	0.00
3.31	2.75	3.00	4.00	5.50	2.00	3.50	0.50	1.25	1.00	1.50	2.00	2.75	4.00	0.25	0.00	0.25	-0.257812	0.116699	0.915039	-6.160000	16.870001	-7.140000	365.00	-0.10	-0.13	0.00	0.00	0.00	0.00	0.00	0.00	0.00	0.00	0.00	0.00	0.00	0.00	0.00	0.00	0.00	0.00	-0.501953	0.101074	1.961426	110.320000	-459.200012	138.110001	0.00	0.00	0.00
3.32	2.25	2.50	3.25	3.75	1.50	2.00	0.50	1.00	1.75	2.25	2.50	3.00	4.25	0.75	0.25	0.75	-0.241699	0.129883	0.931641	-10.290000	18.129999	-7.210000	339.00	-0.03	-0.11	0.00	0.00	0.00	0.00	0.00	0.00	0.00	0.00	0.00	0.00	0.00	0.00	0.00	0.00	0.00	0.00	-0.622070	0.121582	2.072754	110.180000	-462.980011	131.809998	0.00	0.00	0.00
3.33	1.75	1.75	2.25	2.75	1.25	1.25	0.50	1.00	2.25	2.75	3.25	3.75	4.50	1.50	0.25	0.75	-0.270996	0.134766	0.925293	-13.230000	18.270000	-10.220000	330.00	0.04	-0.11	0.00	0.00	0.00	0.00	0.00	0.00	0.00	0.00	0.00	0.00	0.00	0.00	0.00	0.00	0.00	0.00	-0.721191	0.173340	2.229492	106.120003	-464.869995	131.320007	0.00	0.00	0.00
3.34	1.25	1.50	2.00	2.00	0.50	0.50	0.50	0.75	3.50	3.25	5.25	4.50	5.00	2.00	0.50	1.00	-0.267090	0.130859	0.958008	-11.270000	22.049999	-12.880000	354.00	0.10	-0.09	0.00	0.00	0.00	0.00	0.00	0.00	0.00	0.00	0.00	0.00	0.00	0.00	0.00	0.00	0.00	0.00	-0.843750	0.247559	2.427734	103.250000	-467.110016	134.610001	0.00	0.00	0.00
3.35	1.00	1.50	2.00	1.50	0.50	0.25	0.25	0.50	4.50	4.00	7.00	5.25	4.75	2.50	0.75	1.25	-0.300781	0.147949	0.942871	-5.950000	28.490000	-15.330000	389.00	0.14	-0.08	0.00	0.00	0.00	0.00	0.00	0.00	0.00	0.00	0.00	0.00	0.00	0.00	0.00	0.00	0.00	0.00	-0.966309	0.354980	2.704102	103.949997	-471.869995	142.100006	0.00	0.00	0.00
3.36	1.00	1.75	0.75	1.25	0.25	0.00	0.25	0.50	5.25	6.00	8.00	6.50	4.75	3.50	0.50	1.25	-0.288086	0.123047	0.995605	2.940000	58.240002	-14.420000	429.00	0.17	-0.07	0.00	0.00	0.00	0.00	0.00	0.00	0.00	0.00	0.00	0.00	0.00	0.00	0.00	0.00	0.00	0.00	-1.097656	0.440918	2.961914	106.540001	-478.170013	153.789993	0.00	0.00	0.00
3.37	0.50	1.75	1.25	0.75	0.25	0.00	0.25	0.25	7.75	7.50	9.00	7.00	4.50	4.00	1.00	1.75	-0.340332	0.135254	0.962402	7.630000	88.620003	-16.379999	495.00	0.19	-0.04	0.00	0.00	0.00	0.00	0.00	0.00	0.00	0.00	0.00	0.00	0.00	0.00	0.00	0.00	0.00	0.00	-1.259766	0.533203	3.193359	107.239998	-484.330017	167.860001	0.00	0.00	0.00
3.38	0.75	0.75	1.25	0.75	0.00	0.00	0.00	0.00	8.50	8.25	10.00	8.00	4.50	5.25	0.75	1.75	-0.344238	0.103516	0.931641	7.140000	95.480003	-17.219999	524.00	0.21	-0.03	0.00	0.00	0.00	0.00	0.00	0.00	0.00	0.00	0.00	0.00	0.00	0.00	0.00	0.00	0.00	0.00	-1.687012	0.567383	3.653809	109.410004	-484.890015	191.800003	0.00	0.00	0.00
3.39	0.50	1.25	0.75	1.00	0.00	0.00	0.00	0.25	9.50	9.25	11.25	8.50	5.00	7.00	1.00	2.00	-0.354980	0.098145	0.933594	8.050000	103.110001	-16.030001	592.00	0.22	-0.03	0.00	0.00	0.00	0.00	0.00	0.00	0.00	0.00	0.00	0.00	0.00	0.00	0.00	0.00	0.00	0.00	-2.049805	0.454102	3.992676	124.250000	-481.250000	196.559998	0.00	0.00	0.00
3.40	0.50	0.75	1.00	0.25	0.25	0.00	0.00	0.25	10.50	10.00	12.50	9.25	5.00	8.75	0.75	2.25	-0.388184	0.083984	0.976074	6.930000	109.199997	-14.000000	641.00	0.23	-0.02	0.00	0.00	0.00	0.00	0.00	0.00	0.00	0.00	0.00	0.00	0.00	0.00	0.00	0.00	0.00	0.00	-2.631836	0.268555	4.217285	145.180008	-480.269989	194.669998	0.00	0.00	0.00
3.41	0.00	0.50	0.50	0.25	0.00	0.00	0.00	0.50	11.25	11.00	13.50	10.00	5.00	10.00	1.50	3.00	-0.393555	0.097168	0.932129	8.680000	113.400002	-11.830000	690.00	0.25	-0.02	0.00	0.00	0.00	0.00	0.00	0.00	0.00	0.00	0.00	0.00	0.00	0.00	0.00	0.00	0.00	0.00	-3.265137	0.040527	4.102539	158.410004	-478.730011	193.830002	0.00	0.00	0.00
3.42	0.00	0.75	0.25	0.00	0.00	0.00	0.00	0.50	12.00	12.00	14.75	11.00	5.50	11.50	1.50	3.75	-0.409180	0.096191	0.888672	11.340000	115.290001	-9.310000	752.00	0.25	-0.02	0.00	0.00	0.00	0.00	0.00	0.00	0.00	0.00	0.00	0.00	0.00	0.00	0.00	0.00	0.00	0.00	-3.767090	-0.185059	3.593262	150.570007	-462.209991	199.710007	0.00	0.00	0.00
3.43	0.00	0.25	0.50	0.25	0.00	0.00	0.00	0.50	13.00	13.00	15.75	12.00	5.25	13.00	2.25	4.50	-0.426270	0.116699	0.909668	10.850000	114.449997	-7.140000	820.00	0.25	-0.02	0.00	0.00	0.00	0.00	0.00	0.00	0.00	0.00	0.00	0.00	0.00	0.00	0.00	0.00	0.00	0.00	-4.513672	-0.452148	2.689453	122.010002	-425.809998	204.610001	0.00	0.00	0.00
3.44	0.00	0.75	0.25	0.25	0.00	0.00	0.00	0.25	13.75	13.75	16.75	13.00	5.50	14.75	2.25	5.25	-0.467773	0.137695	1.020020	10.500000	122.360001	-6.510000	878.00	0.26	-0.02	0.00	0.00	0.00	0.00	0.00	0.00	0.00	0.00	0.00	0.00	0.00	0.00	0.00	0.00	0.00	0.00	-5.446289	-0.378418	0.640137	25.760000	-390.529999	158.199997	0.00	0.00	0.00
3.45	0.00	0.25	0.25	0.00	0.00	0.00	0.00	0.50	14.50	14.50	17.50	13.50	5.50	16.50	2.50	5.50	-0.475098	0.185547	1.013672	11.830000	139.440002	-10.080000	924.00	0.26	-0.01	0.00	0.00	0.00	0.00	0.00	0.00	0.00	0.00	0.00	0.00	0.00	0.00	0.00	0.00	0.00	0.00	-6.241699	-0.006836	-0.777344	15.190001	-329.980011	69.300003	0.00	0.00	0.00
3.46	0.00	0.00	0.25	0.00	0.00	0.00	0.00	0.25	15.00	15.00	17.75	13.75	5.50	17.75	3.25	6.00	-0.508789	0.195312	1.034180	10.920000	162.330002	-18.270000	956.00	0.27	-0.01	0.00	0.00	0.00	0.00	0.00	0.00	0.00	0.00	0.00	0.00	0.00	0.00	0.00	0.00	0.00	0.00	-6.809082	-0.418945	-1.011719	181.509995	-232.820007	3.850000	0.00	0.00	0.00
3.47	0.00	0.00	0.00	0.25	0.00	0.00	0.00	0.50	15.50	15.50	17.75	13.50	5.00	19.50	4.25	6.50	-0.547363	0.136719	1.014648	10.780000	190.470001	-26.040001	992.00	0.27	-0.01	0.00	0.00	0.00	0.00	0.00	0.00	0.00	0.00	0.00	0.00	0.00	0.00	0.00	0.00	0.00	0.00	-6.985352	-1.341797	-0.893066	305.130005	-123.059998	-12.110000	0.00	0.00	0.00
3.48	0.00	0.00	0.25	0.00	0.00	0.00	0.00	0.50	16.00	15.75	17.50	12.75	4.50	21.00	4.75	7.00	-0.573242	0.154297	1.139160	14.840000	220.500000	-30.799999	1008.00	0.27	0.00	0.00	0.00	0.00	0.00	0.00	0.00	0.00	0.00	0.00	0.00	0.00	0.00	0.00	0.00	0.00	0.00	-6.708008	-1.944824	-0.564453	245.210007	-29.400000	3.010000	0.00	0.00	0.00
3.49	0.00	0.00	0.00	0.00	0.00	0.00	0.00	0.50	16.25	16.00	17.25	12.25	3.75	22.00	5.50	7.50	-0.616211	0.142090	1.076660	17.780001	254.800003	-33.950001	1015.00	0.28	0.01	0.00	0.00	0.00	0.00	0.00	0.00	0.00	0.00	0.00	0.00	0.00	0.00	0.00	0.00	0.00	0.00	-5.902344	-1.796875	-0.465332	48.790001	46.830002	19.250000	0.00	0.00	0.00
3.50	0.00	0.00	0.00	0.00	0.00	0.00	0.00	0.50	16.00	16.25	16.75	11.25	3.00	22.75	5.75	7.75	-0.559570	0.183105	1.143066	19.250000	293.160004	-38.990002	1003.00	0.28	0.01	0.00	0.00	0.00	0.00	0.00	0.00	0.00	0.00	0.00	0.00	0.00	0.00	0.00	0.00	0.00	0.00	-5.114746	-0.912109	0.417969	-104.370003	118.510002	38.779999	0.00	0.00	0.00
3.51	0.00	0.00	0.00	0.00	0.00	0.00	0.00	0.50	15.75	16.25	16.00	10.00	2.25	23.50	6.00	7.75	-0.488770	0.358398	1.055664	15.890000	339.920013	-52.080002	981.00	0.29	0.02	0.00	0.00	0.00	0.00	0.00	0.00	0.00	0.00	0.00	0.00	0.00	0.00	0.00	0.00	0.00	0.00	-4.021484	-0.286621	1.363770	-121.590004	164.430008	56.560001	0.00	0.00	0.00
3.52	0.00	0.00	0.00	0.00	0.00	0.00	0.00	0.50	14.50	15.50	15.00	8.75	1.25	23.75	6.00	7.25	-0.903320	0.247559	1.095215	5.180000	385.910004	-72.730003	924.00	0.29	0.03	3.50	9.50	0.25	3.25	0.00	0.00	0.00	0.00	0.00	0.00	0.00	0.00	0.00	0.00	0.00	0.00	-0.652344	-1.141113	4.976074	140.279999	442.470001	26.460001	162.00	-0.38	-0.11
3.53	0.00	0.00	0.00	0.00	0.00	0.00	0.00	0.50	12.75	14.00	13.50	7.50	0.75	23.25	5.75	6.75	-0.991211	0.467285	1.293457	-5.250000	429.660004	-97.230003	842.00	0.29	0.03	13.50	25.00	0.00	6.00	0.00	0.00	0.00	0.00	0.00	0.00	0.00	0.50	0.00	0.00	0.00	0.00	2.546875	-3.747559	-10.253418	38.849998	107.870003	-50.959999	441.00	-0.39	-0.09
3.54	0.00	0.00	0.00	0.00	0.00	0.00	0.00	0.50	10.25	12.00	11.25	6.50	0.25	23.25	5.00	6.25	-1.255371	0.712402	1.713379	-1.260000	473.690002	-117.250000	740.00	0.30	0.04	16.75	27.25	0.50	8.25	0.00	0.00	0.00	0.00	0.00	0.00	0.00	0.00	0.00	0.00	0.00	0.00	-4.500000	-4.123535	1.740723	-334.529999	438.549988	-243.110001	520.00	-0.39	-0.08
3.55	0.00	0.00	0.00	0.00	0.00	0.00	0.00	0.25	8.25	10.00	9.00	4.75	0.25	21.50	3.50	5.00	-2.699707	0.971191	2.941895	23.520000	519.190002	-130.619995	609.00	0.30	0.05	23.75	31.25	2.25	11.75	0.00	0.00	0.00	0.25	0.00	0.00	0.00	0.00	0.25	0.00	0.00	0.00	-1.869629	3.946289	7.141113	-308.980011	507.360016	-253.050003	693.00	-0.38	-0.07
3.56	0.00	0.00	0.00	0.00	0.00	0.00	0.00	0.00	7.00	8.00	6.50	3.00	0.00	18.75	2.50	4.50	-3.297363	1.276367	3.965332	44.170002	547.609985	-162.050003	485.00	0.31	0.07	28.25	30.25	6.00	14.50	0.00	1.75	0.00	0.75	0.00	0.00	0.00	0.00	0.25	0.00	0.00	0.00	-0.537109	0.695312	3.570312	-129.990005	358.190002	-26.880001	829.00	-0.36	-0.07
3.57	0.00	0.00	0.00	0.00	0.00	0.00	0.00	0.00	4.50	5.00	4.00	2.25	0.00	15.75	1.75	3.75	-2.486328	1.332520	2.899414	57.260002	567.770020	-211.399994	349.00	0.32	0.07	29.00	27.75	7.75	16.00	0.50	4.75	0.00	1.00	0.00	0.00	0.00	0.00	0.50	0.00	0.00	0.00	-0.537109	0.695312	3.570312	-129.990005	358.190002	-26.880001	894.00	-0.35	-0.07
3.58	0.00	0.00	0.00	0.00	0.00	0.00	0.00	0.00	3.25	3.50	3.00	1.75	0.50	13.25	1.25	2.75	-3.392090	2.396973	4.593262	85.680000	566.720032	-245.000000	274.00	0.32	0.06	28.25	26.00	9.25	18.00	1.25	7.50	0.00	1.00	0.00	0.00	0.00	0.00	0.50	0.00	0.00	0.00	-0.338867	-1.248047	1.225098	-71.889999	274.399994	-7.140000	947.00	-0.33	-0.08
3.59	0.00	0.00	0.00	0.00	0.00	0.00	0.00	0.00	2.25	2.75	2.50	1.50	0.25	10.00	0.75	1.25	-2.052734	2.222656	5.120117	146.020004	498.470001	-216.649994	202.00	0.32	0.07	27.25	24.25	11.00	19.50	2.00	9.75	0.00	1.25	0.00	0.00	0.00	0.25	0.50	0.00	0.00	0.00	-0.411133	0.849121	1.488770	19.460001	210.419998	-52.290001	996.00	-0.32	-0.08
3.60	0.00	0.00	0.00	0.00	0.00	0.00	0.00	0.00	2.25	2.50	1.50	1.25	0.50	6.50	0.50	0.00	0.315918	1.652344	5.975098	185.570007	387.239990	-214.899994	149.00	0.31	0.08	26.25	23.50	12.00	20.50	2.50	11.75	0.00	2.00	0.00	0.00	0.00	0.25	0.75	0.00	0.00	0.00	-1.305664	2.624512	4.234863	-160.089996	128.869995	-23.730000	1042.00	-0.31	-0.09
3.61	0.00	0.00	0.00	0.00	0.00	0.00	0.00	0.00	1.00	1.25	0.25	0.75	0.25	1.75	0.25	0.00	2.966797	0.742188	6.048828	192.220001	281.750000	-238.350006	56.00	0.29	0.06	25.50	22.25	12.00	20.25	2.75	11.75	0.00	2.75	0.00	0.00	0.00	0.00	1.00	0.00	0.00	0.00	-0.278320	0.185547	1.201172	-86.730003	57.330002	-5.320000	1033.00	-0.30	-0.09
3.62	0.25	0.00	0.50	0.00	0.00	0.00	0.25	0.00	0.25	0.50	0.25	0.00	0.00	0.50	0.00	0.00	1.649902	1.329102	1.830078	130.619995	224.350006	-231.559998	27.00	0.00	0.00	24.50	21.75	12.00	20.00	2.75	12.50	0.00	3.00	0.00	0.00	0.00	0.00	0.50	0.00	0.00	0.00	-0.217285	0.281250	0.841797	-27.510000	30.380001	-6.090000	1023.00	-0.30	-0.10
3.63	0.25	0.75	0.25	0.00	0.00	0.00	0.25	0.00	0.50	0.75	0.25	0.25	0.00	0.75	0.00	0.00	2.708008	2.081543	5.395020	-27.230000	42.070000	-144.059998	42.00	0.00	0.00	23.25	21.25	11.75	19.50	2.75	12.50	0.00	3.25	0.00	0.00	0.00	0.00	1.00	0.25	0.00	0.00	-0.231934	0.314453	1.214355	-23.100000	28.770000	-1.470000	1008.00	-0.30	-0.10
3.64	0.00	0.00	0.00	0.00	0.00	0.00	0.00	0.00	0.50	0.25	0.25	0.00	0.00	1.00	0.00	0.00	2.593262	1.665039	4.327637	-130.130005	-190.820007	-51.170002	20.00	0.00	0.00	22.00	20.25	11.25	18.75	2.75	12.50	0.00	3.00	0.00	0.00	0.00	0.00	0.50	0.00	0.00	0.00	-0.198730	0.105957	1.058594	-12.040000	17.500000	1.260000	961.00	-0.30	-0.10
3.65	0.00	0.00	0.00	0.00	0.00	0.00	0.25	0.00	0.00	0.25	0.25	0.00	0.00	0.00	0.00	0.00	1.716797	1.306152	2.533203	-169.330002	-286.230011	20.299999	9.00	0.00	0.00	20.50	19.50	10.50	18.25	2.50	12.00	0.00	3.25	0.00	0.00	0.00	0.00	0.50	0.00	0.00	0.00	-0.120117	0.250977	0.863770	-6.580000	10.780000	0.910000	921.00	-0.30	-0.10
3.66	0.00	0.00	0.00	0.00	0.00	0.00	0.00	0.00	0.25	0.25	0.00	0.00	0.00	0.00	0.00	0.00	1.877441	1.106934	1.708008	-172.690002	-291.130005	56.490002	6.00	0.00	0.00	18.25	18.25	9.75	17.00	2.25	11.75	0.00	3.00	0.00	0.00	0.00	0.00	0.50	0.00	0.00	0.00	-0.176270	0.212402	0.968750	-10.920000	14.420000	1.540000	855.00	-0.29	-0.11
3.67	0.00	0.00	0.25	0.00	0.00	0.00	0.25	0.00	0.00	0.25	0.25	0.00	0.00	0.00	0.00	0.00	1.622070	1.170898	1.596191	-136.360001	-286.440002	68.459999	12.00	0.00	0.00	15.75	16.25	9.00	16.00	2.25	11.25	0.00	3.00	0.00	0.00	0.00	0.00	0.50	0.00	0.00	0.00	-0.174805	0.199219	0.990723	-11.130000	12.950000	0.560000	786.00	-0.29	-0.11
3.68	0.00	0.00	0.00	0.00	0.00	0.00	0.25	0.00	0.00	0.00	0.00	0.00	0.00	0.00	0.00	0.00	1.380859	1.131836	1.807617	-74.269997	-302.190002	71.610001	4.00	0.00	0.00	13.25	14.50	8.25	14.75	2.00	10.50	0.00	2.75	0.00	0.00	0.00	0.00	0.25	0.00	0.00	0.00	-0.148926	0.204102	0.871582	-10.850000	11.970000	0.350000	705.00	-0.29	-0.12
3.69	0.00	0.25	0.00	0.00	0.00	0.00	0.00	0.00	0.00	0.00	0.00	0.00	0.00	0.00	0.00	0.00	1.154297	0.977539	2.054688	-11.060000	-339.220001	75.389999	2.00	0.00	0.00	11.50	12.75	7.50	13.50	2.00	10.00	0.00	3.00	0.00	0.00	0.00	0.00	0.50	0.00	0.00	0.00	-0.147949	0.208008	0.939453	-14.770000	14.420000	-0.630000	649.00	-0.28	-0.12
3.70	0.00	0.00	0.00	0.00	0.00	0.00	0.25	0.00	0.25	0.00	0.00	0.00	0.00	0.00	0.00	0.00	0.825684	0.747559	2.121582	22.820000	-386.750000	82.879997	7.00	0.00	0.00	9.00	10.75	6.50	12.25	1.75	9.50	0.00	3.00	0.00	0.00	0.00	0.00	0.25	0.00	0.00	0.00	-0.171387	0.210938	0.884277	-20.160000	17.639999	-1.610000	569.00	-0.27	-0.13
3.71	0.00	0.00	0.00	0.00	0.00	0.00	0.00	0.00	0.00	0.00	0.00	0.00	0.00	0.00	0.00	0.00	0.433594	0.610352	2.084473	20.299999	-429.029999	92.470001	0.00	0.00	0.00	7.25	8.75	5.75	11.00	1.50	8.75	0.00	3.00	0.00	0.00	0.25	0.00	0.75	0.00	0.00	0.00	-0.142090	0.184570	0.814941	-29.889999	24.150000	-2.380000	507.00	-0.26	-0.14
