# time	left pressure 1[N/cm²]	left pressure 2[N/cm²]	left pressure 3[N/cm²]	left pressure 4[N/cm²]	left pressure 5[N/cm²]	left pressure 6[N/cm²]	left pressure 7[N/cm²]	left pressure 8[N/cm²]	left pressure 9[N/cm²]	left pressure 10[N/cm²]	left pressure 11[N/cm²]	left pressure 12[N/cm²]	left pressure 13[N/cm²]	left pressure 14[N/cm²]	left pressure 15[N/cm²]	left pressure 16[N/cm²]	left acceleration X[g]	left acceleration Y[g]	left acceleration Z[g]	left angular X[dps]	left angular Y[dps]	left angular Z[dps]	left total force[N]	left center of pressure X[%]	left center of pressure Y[%]	right pressure 1[N/cm²]	right pressure 2[N/cm²]	right pressure 3[N/cm²]	right pressure 4[N/cm²]	right pressure 5[N/cm²]	right pressure 6[N/cm²]	right pressure 7[N/cm²]	right pressure 8[N/cm²]	right pressure 9[N/cm²]	right pressure 10[N/cm²]	right pressure 11[N/cm²]	right pressure 12[N/cm²]	right pressure 13[N/cm²]	right pressure 14[N/cm²]	right pressure 15[N/cm²]	right pressure 16[N/cm²]	right acceleration X[g]	right acceleration Y[g]	right acceleration Z[g]	right angular X[dps]	right angular Y[dps]	right angular Z[dps]	right total force[N]	right center of pressure X[%]	right center of pressure Y[%]
0.00																										4.00	2.25	2.00	1.50	2.00	0.75	0.75	0.50	1.75	1.25	1.25	1.00	0.00	1.75	1.00	0.50	-0.271484	0.050293	0.956055	-5.530000	0.420000	-0.350000	260.00	-0.06	0.01
0.01																										4.25	2.50	1.75	1.25	2.00	0.50	0.75	0.25	2.00	1.25	1.25	1.00	0.00	1.75	1.25	0.25	-0.272461	0.048828	0.935547	-3.430000	0.700000	0.070000	257.00	-0.05	0.02
0.02	8.25	8.25	7.25	8.25	6.50	9.00	3.00	7.75	6.50	5.50	8.50	8.25	10.00	5.50	3.25	5.25	-0.279297	0.002441	0.935059	-1.540000	4.480000	1.330000	1289.00	-0.00	-0.11	4.25	2.25	2.00	1.25	2.00	0.75	1.00	0.50	2.00	1.25	1.50	1.00	0.00	1.75	1.25	0.50	-0.275879	0.052734	0.945801	-2.590000	0.630000	0.140000	273.00	-0.04	0.02
0.03	8.25	8.50	7.25	8.50	6.50	8.75	2.75	7.75	6.25	5.50	8.50	8.25	10.00	5.50	3.00	5.00	-0.285645	-0.000488	0.941895	-1.330000	4.970000	1.400000	1280.00	-0.01	-0.11	4.75	2.00	2.00	1.50	2.00	0.75	1.00	0.50	2.00	1.50	1.50	1.25	0.25	2.00	1.25	0.50	-0.275879	0.046875	0.942383	-2.450000	0.630000	0.070000	289.00	-0.04	0.01
0.04																										4.50	2.25	2.00	2.00	2.00	0.75	1.00	0.50	1.75	1.25	1.50	1.25	0.25	2.00	1.25	0.50	-0.279785	0.053711	0.935547	-2.940000	0.840000	-0.070000	289.00	-0.05	-0.00
0.05	8.25	8.50	7.00	8.50	6.25	8.75	2.75	7.75	6.25	5.50	8.50	8.25	9.50	5.25	3.00	5.00	-0.282715	0.001465	0.943848	-1.120000	6.090000	1.400000	1267.00	-0.01	-0.11	4.50	2.50	2.00	1.75	2.25	0.75	1.00	0.50	2.00	1.25	1.25	0.75	0.00	2.00	1.50	0.75	-0.280762	0.050781	0.942871	-3.290000	0.700000	-0.210000	288.00	-0.05	0.01
0.06	8.25	8.50	7.00	8.50	6.25	8.75	2.75	7.75	6.25	5.25	8.50	8.50	10.00	5.50	3.25	5.00	-0.282715	0.002441	0.936523	-0.980000	6.300000	1.400000	1277.00	-0.00	-0.11	4.50	2.50	2.00	1.75	2.25	1.00	1.00	0.50	2.25	1.50	1.50	1.25	0.50	2.00	1.25	0.75	-0.275391	0.047363	0.939453	-3.220000	0.280000	-0.140000	308.00	-0.04	0.00
0.07	8.00	8.00	6.75	8.25	6.00	8.25	2.75	7.50	6.00	5.25	8.50	8.00	9.50	5.25	3.00	4.25	-0.281250	0.005859	0.941895	-1.050000	6.790000	1.400000	1226.00	-0.01	-0.11	4.75	2.75	2.50	1.25	2.25	1.00	1.00	0.25	2.00	1.50	1.50	1.25	0.25	2.25	1.50	0.50	-0.279297	0.046875	0.937500	-3.220000	-0.070000	0.070000	307.00	-0.05	0.01
0.08	7.75	8.00	6.75	8.25	6.00	9.00	2.50	7.75	5.75	5.25	8.50	8.25	10.25	5.25	3.00	5.00	-0.278320	0.004883	0.939941	-1.190000	7.210000	1.260000	1243.00	-0.00	-0.12	5.00	2.50	2.25	1.50	2.25	1.00	1.00	0.50	2.25	1.50	1.25	1.25	0.00	2.00	1.50	0.50	-0.267090	0.049316	0.934570	-3.220000	-0.350000	0.140000	308.00	-0.05	0.01
0.09	7.75	8.00	6.50	8.25	5.75	8.75	2.50	7.50	5.75	5.25	8.50	8.25	10.00	5.50	2.75	5.00	-0.286133	0.004395	0.934082	-1.330000	7.630000	1.190000	1227.00	-0.00	-0.12	5.00	2.50	2.50	2.00	2.25	1.00	1.00	0.50	2.25	1.50	1.75	1.25	0.25	2.00	1.50	0.50	-0.275391	0.050781	0.930664	-3.290000	-0.560000	0.070000	325.00	-0.05	0.01
0.10	7.50	7.75	6.50	8.00	5.75	8.75	2.50	7.50	6.00	5.25	8.50	8.50	10.00	5.25	3.00	5.00	-0.284180	0.003418	0.939453	-1.470000	7.910000	1.120000	1225.00	0.00	-0.12	5.00	3.00	2.50	1.75	2.25	1.00	1.00	0.50	2.25	1.50	1.75	1.50	0.50	2.00	1.50	0.75	-0.277344	0.055664	0.940918	-3.500000	-0.630000	0.070000	333.00	-0.05	-0.00
0.11	7.25	7.75	6.25	8.00	5.50	8.75	2.25	7.50	5.75	5.00	8.50	8.25	10.00	5.25	3.00	5.00	-0.286621	0.006836	0.941406	-1.540000	8.190000	1.050000	1203.00	0.00	-0.12	5.00	3.25	2.75	2.25	2.50	1.00	1.00	0.50	2.25	1.50	1.50	1.25	0.00	2.25	1.75	0.75	-0.272949	0.052734	0.935547	-3.780000	-0.700000	0.070000	343.00	-0.06	0.00
0.12	7.25	7.50	6.00	7.75	5.50	8.50	2.50	7.25	5.75	5.00	8.50	8.25	10.00	5.25	3.00	5.00	-0.284180	0.000977	0.942871	-1.120000	8.260000	0.700000	1191.00	0.00	-0.12	5.25	3.25	2.75	2.50	2.50	1.25	1.00	0.50	2.50	1.50	1.75	1.25	0.50	2.25	1.50	0.50	-0.275391	0.048340	0.939941	-3.780000	-0.840000	0.140000	358.00	-0.06	-0.00
0.13	5.50	6.00	4.75	6.00	4.25	7.50	2.00	6.00	5.00	4.50	8.25	8.25	9.75	5.00	3.00	5.00	-0.285645	0.008789	0.938965	-0.840000	7.910000	0.910000	1040.00	0.03	-0.12	5.50	3.00	2.75	2.50	2.50	1.50	1.00	0.50	2.25	1.50	1.75	1.25	0.50	2.25	1.50	0.50	-0.270996	0.048828	0.940430	-3.220000	-0.910000	0.140000	358.00	-0.06	-0.00
0.14	7.25	6.25	4.75	6.00	4.25	7.50	2.00	6.00	5.00	3.75	7.75	7.75	8.75	4.25	1.50	3.75	-0.285645	0.006836	0.936035	-0.840000	7.560000	1.120000	1002.00	-0.00	-0.12	5.50	3.50	3.00	2.75	2.75	1.50	1.00	0.50	2.50	1.50	1.75	1.25	0.00	2.25	1.50	0.50	-0.264648	0.050781	0.941406	-3.150000	-0.700000	0.070000	371.00	-0.07	0.00
0.15	5.75	5.75	4.75	5.75	4.00	7.25	2.00	5.75	4.75	4.00	7.75	7.75	8.75	4.50	2.00	3.75	-0.291016	0.008301	0.933594	-0.840000	7.210000	1.120000	974.00	0.01	-0.12	5.50	3.50	2.75	2.75	2.50	1.00	1.00	0.50	2.50	1.50	2.00	1.25	0.75	2.25	1.75	0.75	-0.271484	0.050781	0.938965	-2.870000	-0.420000	-0.070000	373.00	-0.06	-0.01
0.16	7.50	6.75	5.50	7.50	5.25	8.50	2.25	7.50	5.50	4.75	8.50	7.75	8.50	4.00	1.50	3.25	-0.287598	0.005859	0.932617	-0.980000	7.070000	1.050000	1109.00	-0.01	-0.12	5.50	3.75	3.00	2.75	2.75	1.50	1.00	0.50	2.50	1.50	1.75	1.25	1.00	2.25	1.50	0.75	-0.267090	0.053711	0.946289	-3.150000	-0.070000	-0.350000	384.00	-0.07	-0.01
0.17	5.25	5.25	4.25	5.75	4.25	7.00	2.00	6.00	4.50	3.75	8.00	7.75	8.75	3.75	1.50	3.75	-0.289551	0.003906	0.939453	-1.120000	7.000000	0.980000	945.00	0.01	-0.13	5.75	3.75	3.25	3.00	3.00	1.25	1.00	0.50	2.75	1.50	1.50	1.50	0.75	2.50	1.50	0.75	-0.274902	0.052734	0.939453	-3.150000	-0.070000	-0.350000	397.00	-0.07	-0.01
0.18	5.25	5.50	4.25	5.25	4.00	7.25	2.25	6.00	4.50	3.75	8.00	7.50	9.50	3.75	1.50	3.50	-0.285645	0.007324	0.931641	-1.330000	7.000000	0.980000	948.00	0.01	-0.13	5.50	3.75	3.50	3.00	2.75	1.50	1.00	0.50	2.50	1.50	1.75	1.75	0.50	2.50	1.50	1.00	-0.265625	0.044922	0.929199	-3.290000	0.000000	-0.350000	398.00	-0.07	-0.01
0.19	5.00	5.25	3.75	5.50	4.25	7.00	2.00	6.25	4.75	4.75	8.25	7.50	8.50	3.50	1.75	3.50	-0.284668	0.006836	0.932129	-1.540000	6.930000	0.910000	949.00	0.02	-0.13	6.00	3.50	3.00	3.00	2.75	1.50	1.00	0.50	2.75	1.50	1.75	1.75	1.00	2.75	1.50	0.75	-0.269043	0.046875	0.939453	-3.360000	0.210000	-0.490000	405.00	-0.06	-0.01
0.20	6.50	6.50	5.50	7.50	5.00	8.00	2.25	7.00	5.50	4.50	8.50	8.50	9.75	5.00	2.75	4.25	-0.291016	0.007324	0.930176	-1.820000	6.580000	0.910000	1125.00	0.01	-0.12	6.00	3.75	3.50	3.25	3.00	1.75	1.00	0.75	2.75	1.75	1.75	1.50	0.25	2.75	1.75	0.75	-0.269531	0.052734	0.943359	-3.570000	0.210000	-0.560000	422.00	-0.07	-0.01
0.21	6.75	6.50	5.50	7.25	5.00	8.00	2.25	6.75	5.50	4.50	8.50	8.25	9.75	5.00	2.50	4.50	-0.284180	0.011719	0.933594	-1.960000	6.020000	0.980000	1117.00	0.01	-0.12	5.75	4.00	3.75	3.00	3.00	1.50	1.25	0.50	2.75	1.75	1.75	1.50	1.25	2.75	1.75	0.75	-0.269043	0.050293	0.945801	-3.570000	0.070000	-0.560000	428.00	-0.06	-0.01
0.22	6.50	6.50	5.50	7.50	5.00	8.00	2.25	6.75	5.50	4.50	8.50	8.25	9.50	5.00	2.50	4.25	-0.287598	0.005371	0.937012	-2.170000	5.810000	0.910000	1113.00	0.01	-0.12	6.00	4.00	3.50	3.25	3.00	1.50	1.25	0.75	3.00	1.50	2.00	1.50	0.75	2.75	1.50	1.00	-0.270020	0.047852	0.935547	-3.710000	0.210000	-0.350000	433.00	-0.06	-0.01
0.23	7.00	6.50	5.50	7.50	5.00	8.00	2.25	6.75	5.50	4.50	8.50	8.50	9.50	5.00	2.50	4.25	-0.289551	0.004883	0.938477	-2.240000	5.600000	0.840000	1121.00	0.01	-0.12	6.00	4.00	3.75	3.25	3.00	1.50	1.25	0.75	3.00	1.75	2.00	1.25	1.00	2.75	1.75	0.75	-0.268066	0.053711	0.938965	-3.570000	0.490000	-0.280000	439.00	-0.06	-0.01
0.24	7.00	6.00	5.50	7.50	5.00	7.75	2.25	6.50	5.50	4.50	8.50	8.25	9.50	5.00	2.50	4.25	-0.289551	0.004395	0.933594	-2.310000	5.670000	0.910000	1106.00	0.01	-0.12	6.00	4.00	3.75	3.25	3.00	1.50	1.25	0.50	3.00	1.75	1.75	1.50	0.75	2.75	2.00	0.75	-0.269043	0.049316	0.940430	-3.290000	0.350000	-0.350000	436.00	-0.06	-0.00
0.25	6.75	6.50	5.50	7.50	5.00	7.75	2.25	6.50	5.50	4.50	8.50	8.25	9.25	5.00	2.25	4.25	-0.287598	0.004395	0.936523	-2.310000	5.670000	1.050000	1103.00	0.01	-0.12	6.00	4.00	3.75	3.50	3.00	1.75	1.25	0.75	2.75	1.75	1.75	1.75	1.00	2.75	1.75	0.75	-0.267578	0.044434	0.935547	-2.940000	0.350000	-0.000000	445.00	-0.07	-0.02
0.26	6.75	6.50	5.50	7.25	5.00	7.75	2.25	6.50	5.25	4.25	8.25	8.25	9.25	5.00	2.50	4.25	-0.292969	0.003418	0.935059	-2.450000	5.740000	1.120000	1094.00	0.01	-0.12	6.25	4.25	3.75	3.25	3.25	1.50	1.25	0.75	3.00	1.50	1.75	1.50	0.75	2.75	1.50	1.00	-0.267090	0.047852	0.936035	-2.940000	0.630000	-0.070000	441.00	-0.07	-0.01
0.27	6.75	6.50	5.25	7.50	5.00	7.50	2.25	6.25	5.25	4.25	8.25	8.00	9.25	5.00	2.50	4.00	-0.288574	0.004883	0.941406	-2.240000	5.530000	1.190000	1082.00	0.00	-0.12	6.00	4.25	3.75	3.25	3.25	1.75	1.25	0.75	3.00	1.75	2.00	1.75	1.25	2.75	1.75	1.00	-0.267090	0.051758	0.937988	-2.870000	0.630000	-0.070000	458.00	-0.06	-0.02
0.28	7.25	6.50	5.50	7.25	5.00	7.50	2.00	6.25	5.25	4.50	8.25	8.00	9.00	4.50	2.25	4.00	-0.290527	0.008789	0.931641	-2.100000	5.390000	1.260000	1077.00	-0.00	-0.12	6.50	4.25	4.00	3.25	3.25	1.50	1.25	0.75	3.00	1.50	2.00	1.75	1.25	2.75	1.50	0.75	-0.265137	0.046875	0.933594	-2.730000	0.490000	0.070000	456.00	-0.07	-0.01
0.29	7.00	6.50	5.25	7.25	4.75	7.50	2.25	6.25	5.00	4.25	8.00	8.00	9.00	4.75	2.50	4.25	-0.288086	0.004883	0.932617	-2.030000	5.460000	1.330000	1070.00	0.00	-0.12	6.00	4.50	4.00	3.50	3.00	2.00	1.25	0.75	2.50	1.75	2.00	1.25	1.00	2.75	2.00	0.75	-0.267090	0.048828	0.935059	-2.800000	0.490000	-0.000000	452.00	-0.07	-0.02
0.30	7.00	6.50	5.50	7.25	4.75	7.50	2.00	6.25	5.25	4.00	8.25	8.00	9.00	4.75	2.50	4.00	-0.288574	0.006836	0.935059	-2.100000	5.390000	1.330000	1071.00	0.00	-0.12	6.25	4.50	4.00	3.50	3.25	1.75	1.25	0.75	2.75	2.00	2.00	1.50	1.00	2.75	2.00	1.00	-0.270508	0.047363	0.936523	-2.940000	0.420000	0.070000	466.00	-0.07	-0.02
0.31	7.00	6.50	5.50	7.25	5.00	7.75	2.00	6.00	5.25	4.25	8.00	8.00	8.75	3.50	1.25	2.75	-0.288574	0.006836	0.937012	-2.240000	5.530000	1.120000	1037.00	-0.01	-0.12	6.25	4.75	4.00	3.75	3.25	1.75	1.25	0.75	2.75	1.50	1.75	1.50	1.25	2.50	1.75	1.00	-0.268066	0.047363	0.946777	-3.150000	0.490000	-0.070000	460.00	-0.08	-0.02
0.32	6.50	6.25	5.50	7.25	4.75	7.50	2.00	6.00	5.00	4.00	8.00	8.00	9.00	4.75	2.25	4.00	-0.291016	0.009277	0.926270	-2.310000	5.670000	1.120000	1049.00	0.00	-0.12	6.50	4.75	4.00	3.75	3.25	1.75	1.25	0.75	3.00	1.75	2.00	1.75	1.00	2.75	2.00	0.75	-0.267578	0.050781	0.936523	-3.220000	0.490000	-0.210000	476.00	-0.07	-0.02
0.33	6.75	6.50	5.50	7.25	4.75	7.50	2.00	6.00	5.00	4.00	8.00	8.00	8.75	4.50	2.25	3.75	-0.286133	0.007812	0.934570	-2.310000	5.740000	1.120000	1048.00	-0.00	-0.12	6.50	5.00	4.25	3.75	3.25	2.00	1.25	0.75	3.00	1.75	2.00	1.75	1.50	2.75	2.00	0.75	-0.269531	0.051270	0.940918	-3.430000	0.210000	-0.350000	490.00	-0.07	-0.02
0.34	6.75	6.50	5.50	7.25	4.50	7.50	2.00	6.00	5.00	4.25	7.75	7.75	8.75	4.50	2.25	3.50	-0.291016	0.011719	0.934082	-2.310000	5.530000	1.190000	1041.00	-0.00	-0.12	6.50	4.75	4.50	3.75	3.50	1.75	1.25	0.75	3.00	1.75	1.75	1.75	1.50	2.75	1.75	0.75	-0.265137	0.049316	0.939941	-3.500000	0.420000	-0.350000	484.00	-0.08	-0.02
0.35	6.75	6.25	5.25	7.25	4.50	7.25	2.00	5.75	5.00	4.00	7.75	7.75	8.75	4.50	2.25	3.75	-0.285645	0.003906	0.935547	-2.240000	5.320000	1.260000	1027.00	0.00	-0.12	6.50	4.75	4.25	3.75	3.50	2.00	1.25	0.75	3.25	1.75	2.25	1.50	1.50	2.75	2.00	0.75	-0.270508	0.046387	0.936523	-3.640000	0.490000	-0.350000	494.00	-0.07	-0.02
0.36	7.25	6.25	5.25	7.00	4.75	7.25	2.00	5.50	5.00	4.00	7.75	7.75	8.75	4.50	2.00	3.50	-0.292969	0.013184	0.936035	-2.240000	5.460000	1.190000	1024.00	-0.00	-0.11	7.00	5.00	4.50	4.00	3.50	2.00	1.25	1.00	3.00	1.75	2.00	2.00	1.25	2.75	1.75	1.00	-0.274902	0.049316	0.932617	-3.570000	0.700000	-0.420000	508.00	-0.08	-0.02
0.37	7.25	6.25	5.50	7.25	4.75	6.75	2.00	5.75	5.00	4.50	7.75	7.75	8.50	4.25	2.25	3.50	-0.289062	0.007812	0.930664	-2.380000	5.740000	1.260000	1032.00	-0.00	-0.11	7.00	5.00	4.50	4.00	3.50	1.75	1.25	0.75	3.00	2.00	2.00	2.00	1.25	3.00	2.00	1.00	-0.264648	0.051758	0.936523	-3.360000	0.420000	-0.210000	508.00	-0.07	-0.02
0.38	7.00	6.50	5.25	7.00	4.50	7.25	2.00	5.50	4.75	4.00	7.75	7.75	8.50	4.25	2.25	3.50	-0.293945	0.012207	0.933594	-2.520000	5.810000	1.190000	1015.00	-0.00	-0.12	6.75	5.00	4.75	4.00	3.75	1.75	1.25	0.50	3.25	2.00	2.25	1.75	1.25	2.75	2.00	0.75	-0.264648	0.047363	0.941895	-3.430000	0.840000	-0.280000	507.00	-0.07	-0.01
0.39	7.00	6.25	5.25	7.00	4.50	7.00	1.75	5.50	4.75	3.75	7.75	7.50	8.50	4.25	2.25	3.50	-0.294922	0.005859	0.927246	-2.520000	5.810000	1.260000	1000.00	-0.00	-0.12	6.75	4.75	4.50	4.00	3.50	2.00	1.25	0.75	3.25	2.00	2.25	2.00	1.25	3.00	2.00	1.00	-0.264160	0.040527	0.936523	-3.360000	0.910000	-0.280000	513.00	-0.07	-0.02
0.40	7.00	6.50	5.50	7.00	4.50	7.00	2.00	5.50	4.75	3.50	7.75	7.50	8.25	4.00	2.25	3.75	-0.290527	0.008301	0.929199	-2.520000	5.880000	1.400000	1004.00	-0.01	-0.12	7.00	5.00	4.75	4.00	3.50	2.00	1.25	0.75	3.00	2.00	2.00	2.00	1.50	3.00	2.00	0.75	-0.263672	0.051758	0.939453	-3.430000	1.050000	-0.280000	515.00	-0.07	-0.02
0.41	7.00	6.25	5.50	7.25	4.50	6.75	1.75	5.25	4.75	3.75	7.50	7.50	8.25	4.25	2.25	3.50	-0.291992	0.014648	0.935059	-2.520000	5.810000	1.400000	994.00	-0.01	-0.11	7.50	5.00	4.75	4.00	4.00	2.25	1.50	0.75	3.25	1.75	2.25	1.50	1.50	3.00	2.00	1.00	-0.261719	0.042969	0.938477	-3.360000	1.120000	-0.210000	533.00	-0.08	-0.01
0.42	6.75	6.50	5.25	6.75	4.25	6.75	1.75	5.25	4.75	3.75	7.50	7.50	8.25	4.00	2.00	3.25	-0.291016	0.009277	0.930664	-2.450000	5.670000	1.400000	975.00	-0.01	-0.12	7.25	5.00	4.75	4.00	3.75	2.00	1.50	0.75	3.25	1.75	2.25	2.00	1.25	3.25	2.00	1.00	-0.267090	0.045898	0.937988	-3.290000	0.980000	-0.210000	530.00	-0.07	-0.01
0.43	6.75	6.25	5.25	7.00	4.25	6.25	1.75	5.25	4.50	3.75	7.75	7.25	8.25	3.75	2.25	3.50	-0.288086	0.007324	0.937012	-2.450000	5.670000	1.400000	967.00	-0.01	-0.12	7.00	5.00	4.75	4.00	4.00	2.00	1.50	0.75	3.25	2.00	2.25	2.00	1.50	3.00	2.00	1.00	-0.270508	0.044922	0.940430	-3.220000	1.190000	-0.280000	533.00	-0.07	-0.02
0.44	6.75	6.25	5.25	6.75	4.25	6.25	1.75	5.00	4.50	3.75	7.50	7.25	7.75	3.75	1.50	2.75	-0.293457	0.009277	0.935547	-2.520000	5.670000	1.260000	940.00	-0.01	-0.11	7.25	5.00	4.75	4.00	4.00	2.00	1.50	1.00	3.50	1.75	2.25	2.00	1.50	3.00	2.00	1.25	-0.268555	0.050781	0.945801	-3.080000	1.050000	-0.210000	543.00	-0.07	-0.02
0.45	4.75	4.75	3.00	5.00	3.00	4.50	1.50	3.00	2.00	2.00	6.00	6.00	6.50	2.25	1.00	2.25	-0.291016	0.014160	0.934082	-2.660000	5.600000	1.190000	659.00	-0.01	-0.13	7.25	4.75	4.50	4.00	4.00	2.00	1.50	0.75	3.50	2.00	2.25	2.00	2.00	3.00	2.00	1.00	-0.264648	0.049316	0.940430	-3.010000	1.190000	-0.210000	539.00	-0.06	-0.02
0.46	4.25	4.75	3.00	4.75	2.75	4.25	1.50	3.00	2.75	1.75	6.25	6.00	6.00	2.25	0.75	2.00	-0.292969	0.007812	0.925781	-2.800000	5.670000	1.120000	646.00	-0.01	-0.13	7.50	5.00	4.75	4.25	4.25	2.00	1.50	0.75	3.25	2.00	2.25	2.00	1.75	3.00	2.00	1.00	-0.264648	0.046875	0.937012	-3.010000	1.050000	-0.070000	547.00	-0.07	-0.02
0.47	5.00	5.00	3.00	4.50	2.75	4.25	1.50	2.75	2.50	2.25	6.00	6.25	6.25	2.25	0.75	2.25	-0.292480	0.009277	0.930664	-2.940000	5.670000	1.120000	656.00	-0.01	-0.12	7.25	5.00	4.75	4.25	4.50	2.25	1.50	1.00	3.50	2.25	2.25	2.25	1.00	3.00	2.25	1.00	-0.265625	0.046875	0.935059	-3.080000	1.050000	-0.140000	560.00	-0.07	-0.02
0.48	4.75	5.00	2.75	4.25	2.75	4.25	1.50	2.75	2.25	2.00	6.00	5.75	6.00	2.25	1.00	2.00	-0.293945	0.009277	0.931641	-2.870000	5.320000	1.120000	633.00	-0.01	-0.12	7.50	5.00	4.75	4.25	4.25	2.25	1.50	1.00	3.50	1.75	2.25	2.00	1.25	3.25	2.00	1.00	-0.267090	0.048828	0.938965	-3.010000	1.050000	-0.350000	553.00	-0.07	-0.02
0.49	4.75	5.00	3.25	4.25	3.00	3.75	1.50	2.75	2.00	2.25	5.75	5.75	5.75	2.25	1.00	2.00	-0.285645	0.009277	0.932617	-2.940000	5.040000	1.120000	631.00	-0.01	-0.12	7.50	5.00	5.00	4.25	4.25	2.00	1.50	0.75	3.25	2.00	2.25	2.25	1.50	3.25	2.25	1.00	-0.261719	0.046875	0.938965	-3.290000	0.770000	-0.140000	556.00	-0.07	-0.02
0.50	4.50	5.00	2.75	4.75	2.75	4.00	1.50	2.50	2.25	2.25	5.75	5.50	6.00	2.50	0.75	2.00	-0.288086	0.008789	0.934082	-3.010000	5.110000	0.840000	626.00	-0.01	-0.12	7.50	5.00	4.75	4.25	4.50	2.25	1.50	0.75	3.75	2.00	2.25	1.75	1.75	3.25	2.25	1.00	-0.264160	0.047852	0.943848	-3.360000	0.980000	-0.210000	563.00	-0.07	-0.01
0.51	4.75	5.25	3.00	4.25	2.75	4.25	1.50	2.75	2.25	2.25	5.75	5.50	6.00	2.50	0.75	2.00	-0.291992	0.012695	0.933105	-2.940000	5.180000	0.980000	636.00	-0.01	-0.12	8.00	5.00	5.00	4.50	4.50	2.00	1.50	1.00	3.50	2.00	2.25	2.00	1.50	3.00	2.00	1.00	-0.267090	0.044434	0.939453	-3.500000	0.980000	-0.210000	567.00	-0.08	-0.02
0.52	4.75	5.00	3.25	4.75	2.75	4.00	1.50	2.50	2.00	2.00	5.75	5.25	5.75	2.25	1.00	2.25	-0.290039	0.004883	0.932617	-2.940000	5.110000	0.980000	625.00	-0.02	-0.12	7.75	4.75	5.00	4.25	4.50	2.50	1.50	1.00	3.50	2.00	2.25	2.00	1.50	3.25	2.25	1.00	-0.266602	0.046875	0.937012	-3.430000	0.840000	-0.350000	570.00	-0.07	-0.02
0.53	4.50	5.00	3.00	4.25	2.75	3.50	1.50	2.50	2.50	2.25	5.50	5.50	5.50	2.00	1.00	2.00	-0.292969	0.005859	0.932617	-2.870000	5.180000	0.980000	611.00	-0.01	-0.12	7.75	5.00	5.00	4.50	4.25	2.25	1.50	1.00	3.50	2.00	2.25	2.25	1.25	3.25	2.50	1.00	-0.264160	0.047852	0.939941	-3.360000	1.050000	-0.210000	573.00	-0.07	-0.02
0.54	4.50	4.75	3.00	4.50	2.50	3.50	1.25	2.00	2.25	2.00	5.25	5.50	5.50	2.25	0.75	2.00	-0.288574	0.005859	0.933105	-2.800000	5.250000	0.980000	587.00	-0.02	-0.12	7.75	5.00	5.00	4.25	4.50	2.00	1.50	1.00	3.50	2.00	2.50	2.25	1.75	3.00	2.00	1.25	-0.270508	0.056152	0.941895	-3.150000	1.120000	-0.210000	571.00	-0.07	-0.02
0.55	4.25	4.75	2.75	4.25	2.25	3.25	1.50	2.00	2.50	1.75	5.25	5.25	5.25	2.25	1.25	1.50	-0.290039	0.003906	0.930664	-2.660000	5.180000	1.050000	574.00	-0.01	-0.11	7.75	5.25	5.00	4.50	4.75	2.50	1.50	1.00	3.50	2.25	2.25	2.00	1.50	3.00	2.00	1.25	-0.264648	0.042480	0.939453	-3.220000	0.980000	-0.210000	580.00	-0.07	-0.02
0.56	4.50	5.00	3.00	4.25	2.50	3.50	1.25	2.00	2.00	2.25	5.25	5.25	5.50	2.25	0.75	2.00	-0.292969	0.013184	0.934570	-2.730000	5.320000	1.050000	582.00	-0.02	-0.12	7.75	5.00	5.00	4.25	4.50	2.25	1.50	1.00	3.75	2.00	2.25	2.25	1.25	3.00	1.75	1.00	-0.262695	0.042969	0.936035	-3.150000	0.980000	-0.280000	566.00	-0.07	-0.01
0.57	4.50	4.75	2.75	4.00	2.50	3.00	1.25	1.75	2.00	2.25	5.25	5.25	5.25	2.25	0.75	1.75	-0.294434	0.006836	0.941895	-2.800000	5.320000	1.120000	560.00	-0.01	-0.11	7.50	5.00	5.00	4.50	4.75	2.25	1.50	1.00	3.75	2.00	2.25	2.25	1.50	3.50	2.25	1.00	-0.266602	0.042480	0.938965	-3.150000	1.190000	-0.350000	582.00	-0.06	-0.02
0.58	4.50	5.00	2.75	4.00	2.75	3.00	1.25	2.00	2.50	2.75	5.25	5.25	5.25	2.75	0.50	1.75	-0.292969	0.006836	0.934570	-2.800000	5.180000	1.120000	584.00	-0.01	-0.11	7.50	5.00	5.25	4.50	4.75	2.00	1.50	0.75	3.75	2.00	2.50	2.25	1.50	3.25	2.25	1.00	-0.265625	0.045410	0.937500	-3.080000	1.260000	-0.280000	578.00	-0.07	-0.01
0.59	4.25	4.75	3.00	4.00	2.50	3.50	1.25	1.75	2.25	2.00	5.25	5.00	5.25	2.25	0.75	1.75	-0.295898	0.007324	0.937500	-2.800000	5.320000	1.120000	564.00	-0.01	-0.11	7.75	5.00	5.00	4.50	4.50	2.25	1.50	1.00	3.75	2.25	2.75	2.00	1.25	3.00	2.25	1.00	-0.266113	0.050293	0.936523	-2.940000	1.120000	-0.070000	580.00	-0.07	-0.01
0.60	4.00	4.50	2.25	4.00	2.50	3.00	1.50	2.00	2.00	2.00	5.25	5.25	5.25	2.50	0.75	1.75	-0.299805	0.005371	0.933105	-2.660000	5.250000	1.120000	553.00	-0.00	-0.12	8.00	5.25	5.00	4.25	4.75	2.25	1.50	1.00	3.50	1.75	2.25	2.25	1.75	3.25	2.00	1.00	-0.265625	0.045898	0.940430	-2.940000	1.330000	-0.280000	578.00	-0.07	-0.02
0.61	4.25	4.75	2.50	3.50	2.75	2.75	1.25	1.75	2.00	2.50	5.25	4.75	5.25	2.25	1.00	2.00	-0.293945	0.008789	0.932617	-2.660000	5.250000	1.050000	550.00	-0.00	-0.11	8.00	5.25	5.00	4.25	4.75	2.25	1.50	1.00	3.25	2.00	2.25	2.00	1.50	2.75	2.25	1.00	-0.267578	0.045410	0.934570	-2.800000	1.400000	-0.140000	570.00	-0.08	-0.02
0.62	4.25	4.50	2.75	3.75	2.25	2.75	1.25	2.00	2.00	2.00	5.00	5.00	5.25	2.25	0.75	1.75	-0.294922	0.005859	0.937012	-2.660000	5.110000	1.120000	541.00	-0.01	-0.11	7.75	5.25	5.00	4.75	5.00	2.25	1.50	1.00	3.50	1.75	2.50	2.25	1.00	3.00	2.25	0.75	-0.268066	0.049316	0.943359	-2.800000	1.400000	-0.070000	579.00	-0.08	-0.02
0.63	4.25	4.50	2.50	3.75	2.50	3.00	1.25	2.00	1.75	2.00	5.00	5.00	5.00	2.25	0.75	1.75	-0.297363	0.008301	0.936523	-2.800000	5.110000	1.050000	538.00	-0.01	-0.12	8.00	5.25	5.00	4.50	4.75	2.00	1.50	0.75	3.50	1.75	2.25	2.00	1.75	3.25	2.25	1.00	-0.266113	0.056641	0.941406	-2.730000	1.610000	-0.070000	574.00	-0.08	-0.01
0.64	4.25	4.50	2.25	3.50	2.25	2.75	1.25	1.75	1.75	1.75	4.75	4.75	5.00	2.25	1.00	2.00	-0.291504	0.007324	0.929688	-2.940000	5.250000	0.980000	518.00	-0.01	-0.12	8.00	5.50	4.75	4.25	4.50	2.00	1.50	0.75	3.50	2.00	2.25	2.25	1.50	3.00	2.25	1.00	-0.268555	0.044434	0.943848	-2.730000	1.470000	-0.070000	568.00	-0.07	-0.02
0.65	4.25	4.75	2.75	3.75	2.25	2.75	1.25	1.75	2.00	2.00	4.75	4.75	5.25	2.50	0.75	1.75	-0.296387	0.010254	0.937500	-3.080000	5.180000	0.910000	536.00	-0.01	-0.11	8.00	5.50	5.00	4.50	4.75	2.00	1.50	0.75	3.50	1.75	2.25	2.00	1.25	3.00	2.00	1.25	-0.267578	0.041504	0.941406	-2.590000	1.540000	-0.140000	568.00	-0.08	-0.01
0.66	4.00	4.50	2.75	3.75	2.25	2.50	1.50	1.50	2.50	2.25	4.75	4.75	5.00	2.25	0.75	1.75	-0.294922	0.014160	0.934570	-3.080000	5.110000	0.980000	533.00	-0.00	-0.10	8.00	5.50	5.00	4.50	4.50	2.00	1.50	0.50	3.50	2.00	2.00	2.00	1.25	2.75	1.75	1.00	-0.267578	0.049316	0.935547	-2.590000	1.610000	-0.070000	554.00	-0.09	-0.01
0.67	4.50	4.25	2.75	3.75	2.25	2.75	1.25	1.75	2.50	2.00	4.75	4.75	4.50	2.00	0.75	1.75	-0.291504	0.012207	0.936035	-2.940000	5.110000	1.050000	529.00	-0.01	-0.10	8.00	5.50	5.00	4.50	4.75	2.00	1.25	0.75	3.25	2.00	2.00	2.00	1.75	3.00	2.00	1.00	-0.268555	0.049316	0.941895	-2.450000	1.750000	-0.070000	563.00	-0.08	-0.02
0.68	4.00	4.50	2.50	3.50	2.50	2.50	1.25	1.50	2.25	2.25	4.75	4.50	5.00	2.25	0.50	2.00	-0.298828	0.008789	0.937988	-2.870000	5.110000	1.050000	518.00	-0.01	-0.10	8.25	5.50	5.00	4.25	4.75	2.00	1.25	0.75	3.25	1.75	2.00	2.25	0.75	2.75	2.00	1.00	-0.264648	0.042480	0.945312	-2.310000	2.030000	-0.070000	551.00	-0.09	-0.01
0.69	4.50	3.75	2.50	4.00	2.50	2.50	1.25	1.75	2.00	2.00	4.50	4.50	5.00	2.25	0.75	1.50	-0.291992	0.009277	0.931641	-2.940000	4.970000	1.050000	517.00	-0.01	-0.11	7.75	5.50	5.00	4.50	4.50	2.00	1.50	0.75	3.00	1.50	2.25	1.50	1.50	2.75	2.00	0.75	-0.270020	0.049805	0.936035	-1.960000	2.170000	0.070000	543.00	-0.09	-0.02
0.70	4.25	4.25	2.75	3.75	2.50	2.50	1.25	1.50	2.00	2.25	4.50	4.50	4.25	2.25	0.75	1.50	-0.292969	0.009277	0.933594	-2.800000	4.830000	0.980000	511.00	-0.02	-0.10	8.00	5.50	4.75	4.25	4.25	1.75	1.25	0.50	2.75	1.50	2.00	1.50	1.00	2.75	1.75	0.75	-0.269043	0.047852	0.938965	-1.820000	2.170000	0.140000	512.00	-0.10	-0.01
0.71	4.25	4.50	2.50	3.50	2.25	2.50	1.25	1.75	2.00	1.75	4.25	4.50	4.25	2.00	0.75	1.75	-0.290527	0.005371	0.932129	-2.800000	4.830000	1.050000	499.00	-0.02	-0.11	8.00	5.50	4.75	4.25	4.25	1.75	1.25	0.75	3.00	1.25	1.75	1.75	1.00	2.50	1.75	0.75	-0.267090	0.050781	0.944824	-1.610000	1.820000	-0.000000	514.00	-0.10	-0.01
0.72	4.50	3.50	2.50	3.25	2.25	2.25	1.50	1.50	1.75	2.00	4.25	4.50	4.50	2.25	0.75	1.50	-0.291016	0.007812	0.935059	-2.660000	4.830000	1.050000	488.00	-0.01	-0.10	8.25	5.50	4.50	4.25	4.25	1.75	1.25	0.50	2.75	1.50	2.00	1.50	0.75	2.25	1.50	0.75	-0.267090	0.043945	0.940918	-1.610000	1.680000	0.210000	502.00	-0.11	-0.01
0.73	4.25	4.25	2.50	3.50	2.50	2.25	1.25	1.50	2.00	2.00	4.25	4.25	4.25	1.75	0.25	1.50	-0.298340	0.010254	0.928223	-2.520000	4.760000	1.120000	483.00	-0.02	-0.10	8.00	5.75	4.50	4.25	4.25	1.50	1.00	0.50	2.75	1.50	1.75	1.50	0.75	2.50	1.50	0.75	-0.269531	0.049316	0.943848	-1.610000	1.540000	0.070000	494.00	-0.11	-0.01
0.74	4.25	4.25	2.75	3.75	2.50	2.50	1.25	1.50	2.00	2.25	4.25	4.25	4.75	2.25	0.50	1.50	-0.299316	0.007812	0.929199	-2.520000	4.760000	1.190000	507.00	-0.02	-0.10	8.50	5.75	4.50	4.25	3.75	1.50	1.00	0.75	2.50	1.25	1.75	1.25	0.75	2.25	1.50	0.50	-0.266113	0.050293	0.937012	-1.470000	1.330000	0.280000	484.00	-0.13	-0.01
0.75	4.50	4.25	2.25	3.75	2.25	2.25	1.25	1.50	2.25	1.75	4.25	4.00	4.50	2.25	1.00	1.50	-0.293945	0.006836	0.933594	-2.380000	4.690000	1.190000	496.00	-0.01	-0.10	8.25	5.75	4.50	4.50	3.75	1.75	1.00	0.50	2.25	1.50	1.50	1.25	0.75	2.00	1.50	0.75	-0.273926	0.047852	0.941406	-1.330000	1.330000	0.210000	479.00	-0.13	-0.02
0.76	4.00	4.00	2.75	3.50	2.50	2.25	1.25	1.25	2.00	2.25	4.00	4.25	4.50	2.25	0.75	1.50	-0.292480	0.006836	0.934570	-2.100000	4.410000	1.260000	489.00	-0.01	-0.10	8.50	6.00	4.75	4.00	3.75	1.50	1.00	0.75	2.25	1.25	1.50	1.25	0.50	2.25	1.75	0.75	-0.261230	0.063477	0.937988	-0.980000	1.470000	0.280000	482.00	-0.13	-0.01
0.77	4.50	4.25	2.50	3.25	2.50	2.50	1.25	1.50	2.25	2.00	4.00	4.25	5.00	2.25	0.75	1.75	-0.293457	0.008301	0.922852	-1.960000	4.340000	1.330000	505.00	-0.01	-0.10	8.50	5.75	4.25	3.75	3.50	1.25	1.00	0.50	2.50	1.50	1.75	1.00	0.75	2.00	1.50	0.50	-0.267578	0.051758	0.942383	-0.840000	1.540000	0.140000	463.00	-0.13	-0.01
0.78	4.25	5.00	2.50	3.50	2.25	2.75	1.25	1.25	2.00	1.75	4.25	4.00	4.75	2.00	1.00	1.50	-0.297363	0.009766	0.938965	-1.750000	4.410000	1.400000	499.00	-0.02	-0.10	8.25	5.75	4.00	3.75	3.50	1.25	1.00	0.50	2.00	1.25	1.25	1.00	0.25	1.75	1.50	0.75	-0.277832	0.048340	0.939453	-0.630000	1.190000	0.280000	436.00	-0.14	-0.01
0.79	4.25	4.75	2.75	3.75	2.25	2.50	1.25	2.00	1.50	2.00	4.25	4.25	4.75	2.00	0.75	1.50	-0.299316	0.008301	0.937012	-1.540000	4.060000	1.330000	508.00	-0.03	-0.11	8.25	5.75	4.00	3.75	3.25	1.25	0.75	0.50	1.75	1.50	1.50	1.00	0.25	1.75	1.25	0.50	-0.270020	0.049805	0.940918	-0.280000	0.630000	0.210000	426.00	-0.15	-0.01
0.80	5.00	5.00	2.75	4.00	2.50	2.75	1.25	1.75	1.75	1.75	4.00	4.25	4.75	2.00	1.00	1.50	-0.301758	0.007324	0.936523	-1.260000	3.780000	1.540000	524.00	-0.04	-0.11	8.50	6.00	4.00	3.75	3.25	1.00	0.75	0.50	1.50	1.25	1.00	1.50	0.00	2.00	1.25	0.75	-0.309570	0.046387	0.943359	0.070000	0.490000	0.140000	424.00	-0.15	-0.01
0.81	5.00	5.00	3.25	3.75	2.50	3.00	1.25	1.75	1.50	2.00	4.25	4.25	5.25	2.00	0.75	1.75	-0.293457	0.006836	0.935547	-0.630000	3.360000	1.680000	536.00	-0.04	-0.11	8.75	6.00	4.00	3.75	3.00	1.25	0.75	0.50	1.50	1.25	1.25	1.00	0.00	1.75	1.25	0.50	-0.262207	0.052734	0.938965	0.490000	0.140000	0.140000	420.00	-0.16	-0.01
0.82	5.00	5.00	2.75	4.50	2.25	3.00	1.25	2.00	2.25	2.25	4.25	4.25	5.00	1.50	0.75	1.50	-0.295898	0.003906	0.930664	0.140000	3.010000	1.820000	545.00	-0.04	-0.11	8.50	5.75	4.00	3.50	3.00	1.25	0.75	0.50	1.50	1.00	1.25	1.00	0.00	1.75	1.00	0.75	-0.275391	0.049805	0.937988	0.350000	-0.210000	0.210000	407.00	-0.16	-0.01
0.83	5.00	5.00	3.00	4.75	2.75	3.50	1.25	2.25	1.75	2.00	4.00	4.25	5.25	1.75	0.75	1.75	-0.302734	0.009766	0.933594	1.190000	2.590000	2.170000	561.00	-0.04	-0.12	8.25	6.00	4.00	3.50	3.00	1.00	0.75	0.25	1.50	1.00	1.00	1.00	0.00	1.50	1.00	0.25	-0.270508	0.029785	0.947266	-0.000000	0.070000	0.280000	392.00	-0.18	-0.00
0.84	5.25	5.25	3.25	5.00	2.75	3.50	1.25	2.00	1.50	2.00	4.00	4.50	5.25	1.75	0.75	1.50	-0.297852	0.009766	0.934082	1.750000	2.310000	2.450000	566.00	-0.05	-0.12	9.00	6.00	3.75	3.50	2.75	1.00	0.75	0.25	1.25	1.00	1.25	0.75	0.00	1.50	1.00	0.25	-0.273438	0.053223	0.938965	-0.070000	-0.420000	0.350000	390.00	-0.18	-0.00
0.85	5.25	5.50	3.25	5.25	2.50	3.75	1.00	2.25	1.75	2.00	4.00	4.50	5.25	1.50	0.75	1.50	-0.293945	0.012695	0.936523	1.610000	2.380000	2.450000	572.00	-0.06	-0.12	9.00	5.75	3.25	3.50	2.75	1.00	0.75	0.50	1.25	1.00	1.00	1.00	0.00	1.50	1.00	0.50	-0.184082	0.093262	0.926270	-0.140000	-0.770000	-0.140000	388.00	-0.18	-0.01
0.86	5.25	5.75	3.25	5.25	2.50	4.00	1.00	2.25	1.50	1.75	4.00	4.50	5.25	1.50	0.75	1.75	-0.293457	0.011230	0.939453	1.400000	2.730000	2.380000	573.00	-0.06	-0.13	9.25	6.00	3.75	3.50	2.75	1.25	0.50	0.50	1.25	1.25	0.75	1.00	0.25	1.25	1.00	0.25	-0.268066	0.054199	0.930176	-1.050000	-1.330000	0.070000	396.00	-0.19	-0.02
0.87	5.50	5.75	3.25	5.25	2.50	4.25	1.00	2.50	1.00	1.75	4.00	4.25	5.25	1.75	0.50	1.50	-0.293457	0.017578	0.927246	0.840000	3.010000	2.380000	571.00	-0.07	-0.13	9.00	6.25	4.00	3.75	2.75	1.00	0.50	0.50	1.25	1.00	1.00	0.50	0.00	1.25	0.75	0.50	-0.288086	0.033203	0.939941	-1.890000	-1.610000	0.280000	390.00	-0.20	-0.01
0.88	5.50	5.75	3.25	5.50	2.50	4.50	1.00	2.25	1.25	2.25	3.75	4.50	5.50	1.75	0.75	1.75	-0.290039	0.016602	0.932617	0.280000	3.150000	2.170000	589.00	-0.06	-0.13	9.25	6.25	3.75	3.75	2.50	1.00	0.50	0.50	1.25	0.75	1.25	0.75	0.00	1.50	0.75	0.50	-0.201660	0.114746	0.927246	-2.660000	-1.120000	0.140000	392.00	-0.20	-0.01
0.89	5.50	6.00	3.75	5.50	2.75	4.75	1.00	2.75	1.00	1.75	4.00	4.50	5.75	1.50	0.75	1.50	-0.291504	0.013672	0.937988	-0.140000	3.500000	2.030000	604.00	-0.07	-0.14	9.50	6.50	3.75	4.00	2.50	1.00	0.50	0.50	1.25	0.75	1.00	0.50	0.00	1.25	1.00	0.50	-0.260742	0.053711	0.929688	-2.520000	-1.610000	0.280000	395.00	-0.20	-0.02
0.90	5.50	5.75	3.25	5.75	2.50	5.00	1.25	3.00	1.00	1.75	3.75	4.50	5.75	1.00	0.50	1.50	-0.291992	0.017090	0.930176	-0.630000	3.570000	1.820000	596.00	-0.07	-0.14	9.25	6.75	4.00	3.75	2.50	1.00	0.50	0.50	1.00	0.75	0.75	0.50	0.00	1.25	1.00	0.75	-0.268555	0.050781	0.938477	-2.800000	-1.680000	0.070000	390.00	-0.21	-0.02
0.91	5.50	6.25	3.50	5.75	2.50	5.00	1.00	3.00	0.75	1.75	4.25	4.50	5.75	1.50	0.75	1.75	-0.294922	0.014160	0.936035	-1.120000	3.920000	1.610000	611.00	-0.07	-0.14	9.75	6.75	3.25	4.00	2.50	0.50	0.50	0.50	1.00	1.00	1.00	0.50	0.00	1.25	1.00	0.25	-0.317383	0.002441	0.932617	-3.290000	-0.910000	0.210000	386.00	-0.21	-0.01
0.92	5.75	6.25	3.50	6.00	2.75	5.00	1.00	3.00	1.25	1.75	4.00	4.50	6.00	1.25	0.75	1.50	-0.293457	0.011719	0.938477	-1.190000	4.130000	1.540000	623.00	-0.07	-0.14	10.00	7.00	4.00	4.00	2.75	1.00	0.50	0.25	1.00	1.00	0.75	0.50	0.00	1.25	0.75	0.50	-0.252930	0.078125	0.948730	-3.570000	-1.400000	-0.000000	401.00	-0.22	-0.01
0.93	5.75	6.25	3.25	5.75	2.75	5.00	1.00	3.00	0.75	1.75	4.00	4.50	5.75	1.50	0.75	1.50	-0.292480	0.016602	0.934082	-1.400000	4.200000	1.470000	610.00	-0.07	-0.14	10.25	7.00	4.00	3.75	2.75	1.25	0.50	0.25	1.00	1.00	1.00	0.50	0.00	1.25	0.75	0.50	-0.264648	0.054199	0.938477	-4.480000	-1.470000	0.070000	407.00	-0.22	-0.01
0.94	5.75	6.25	3.50	6.00	2.50	5.25	1.00	3.00	0.50	1.75	4.00	4.75	5.75	0.75	0.50	1.50	-0.286133	0.020020	0.929199	-1.260000	4.200000	1.400000	605.00	-0.08	-0.15	10.75	7.50	4.00	4.00	2.75	1.00	0.50	0.50	1.00	1.00	0.75	0.50	0.00	1.25	0.75	0.25	-0.272461	0.052734	0.938477	-5.110000	-1.190000	-0.000000	417.00	-0.23	-0.01
0.95	5.75	6.25	3.75	6.00	2.75	5.00	1.00	3.00	0.75	1.75	3.75	4.50	6.00	1.00	0.50	1.75	-0.293457	0.013672	0.929199	-1.330000	4.200000	1.330000	612.00	-0.08	-0.15	10.75	7.75	4.00	4.00	2.75	1.00	0.50	0.25	1.00	1.00	0.75	0.50	0.00	1.25	0.75	0.25	-0.226074	0.106445	0.938965	-5.670000	-0.630000	-0.000000	415.00	-0.23	-0.01
0.96	5.75	6.25	3.50	6.00	2.75	5.25	1.00	3.25	0.75	1.75	4.00	4.75	6.00	1.25	0.75	1.50	-0.288086	0.015137	0.932617	-1.470000	4.130000	1.330000	626.00	-0.08	-0.15	11.25	7.75	4.25	4.00	2.50	1.00	0.50	0.25	1.00	0.75	0.50	0.50	0.00	1.25	1.00	0.25	-0.286133	0.069336	0.931152	-6.160000	-0.560000	-0.280000	418.00	-0.23	-0.01
0.97	6.00	6.50	3.25	6.00	2.75	5.50	1.00	3.50	1.25	1.50	3.75	4.75	6.00	1.00	0.50	1.50	-0.292969	0.016602	0.936523	-1.680000	4.200000	1.330000	631.00	-0.08	-0.15	12.00	8.25	4.50	4.25	2.50	1.00	0.50	0.25	1.00	1.00	0.75	0.25	0.00	1.25	0.75	0.25	-0.262695	0.049316	0.933105	-6.510000	-0.140000	-0.210000	438.00	-0.24	-0.01
0.98	6.00	6.50	3.50	6.25	2.75	5.25	1.00	3.50	0.50	1.75	4.00	5.00	6.25	1.25	0.75	1.75	-0.293945	0.020508	0.935059	-1.610000	4.130000	1.330000	641.00	-0.08	-0.15	12.50	8.25	4.75	4.50	2.75	1.00	0.50	0.25	1.25	1.00	1.00	0.25	0.00	1.25	0.75	0.25	-0.268066	0.053223	0.942871	-6.720000	0.000000	-0.070000	459.00	-0.24	-0.00
0.99	6.00	6.50	3.50	6.25	2.75	5.50	1.00	3.50	1.00	1.75	3.75	4.75	6.00	1.00	0.75	1.25	-0.295898	0.019043	0.938965	-1.750000	4.130000	1.400000	638.00	-0.08	-0.15	12.75	8.50	4.75	4.50	3.00	1.00	0.50	0.25	1.25	0.75	0.75	0.25	0.00	1.50	1.00	0.75	-0.267578	0.051270	0.929688	-6.930000	0.070000	-0.070000	470.00	-0.23	-0.01
1.00	6.00	6.50	3.75	6.25	2.75	5.25	1.00	3.50	0.50	2.00	3.75	4.50	6.00	1.50	0.50	1.75	-0.288086	0.015137	0.932617	-1.820000	3.990000	1.260000	636.00	-0.08	-0.15	13.25	8.75	5.00	4.50	3.00	1.25	0.50	0.25	1.50	1.00	0.75	0.50	0.00	1.25	1.00	0.25	-0.265625	0.044922	0.930664	-7.210000	0.210000	-0.000000	488.00	-0.23	-0.00
1.01	6.00	6.75	3.75	6.25	2.75	5.50	1.00	3.75	0.50	1.75	3.75	4.50	6.25	1.25	0.50	1.50	-0.288574	0.020508	0.932129	-1.890000	4.060000	1.260000	641.00	-0.09	-0.15	13.50	9.25	4.75	4.75	3.00	1.25	0.75	0.25	1.50	1.00	0.75	0.50	0.00	1.25	0.75	0.25	-0.265137	0.047852	0.938965	-7.280000	0.140000	0.070000	497.00	-0.24	-0.00
1.02	6.00	7.00	3.75	6.50	2.75	5.50	1.00	3.50	0.75	1.25	3.75	4.75	6.00	1.00	0.75	1.50	-0.291992	0.020508	0.939941	-2.240000	4.130000	1.260000	641.00	-0.09	-0.15	14.00	9.25	5.00	5.00	3.00	1.00	0.75	0.50	1.25	1.00	0.75	0.50	0.00	1.50	0.75	0.25	-0.265625	0.046387	0.933594	-7.350000	0.490000	-0.000000	509.00	-0.24	-0.01
1.03	6.25	7.00	3.75	6.25	2.50	5.50	1.00	3.50	0.50	1.50	4.00	4.50	6.25	1.25	0.50	1.50	-0.289062	0.014160	0.928223	-2.450000	4.200000	1.120000	639.00	-0.09	-0.15	14.50	9.75	5.00	5.00	3.00	1.00	0.75	0.25	1.50	1.00	1.00	0.75	0.00	1.25	0.75	0.25	-0.254883	0.047363	0.932617	-7.420000	0.700000	-0.000000	522.00	-0.24	-0.00
1.04	6.25	7.25	3.75	6.50	2.75	5.50	1.00	3.50	0.75	1.50	3.75	4.50	6.00	1.00	0.50	2.00	-0.290039	0.024902	0.928223	-2.800000	4.340000	1.050000	647.00	-0.09	-0.15	14.75	10.25	5.25	5.00	3.25	1.00	0.75	0.50	1.50	1.00	0.75	0.75	0.00	1.25	1.00	0.25	-0.267578	0.048828	0.933594	-7.700000	1.120000	-0.070000	540.00	-0.24	-0.01
1.05	6.25	7.00	4.00	6.50	2.75	5.50	1.00	3.75	1.00	1.75	3.75	4.50	6.00	1.25	0.75	1.25	-0.291504	0.017090	0.942871	-2.870000	4.410000	0.980000	659.00	-0.09	-0.15	15.00	10.50	5.50	5.25	3.50	1.25	0.75	0.25	1.50	1.00	0.75	0.50	0.00	1.25	1.00	0.00	-0.261719	0.046387	0.935547	-7.910000	0.980000	-0.140000	549.00	-0.24	-0.00
1.06	6.25	7.25	3.50	6.25	2.75	5.50	1.00	3.25	0.75	1.25	3.75	5.00	6.00	1.00	0.75	1.50	-0.297852	0.017578	0.940918	-2.660000	4.480000	0.980000	639.00	-0.09	-0.15	15.75	11.00	5.50	5.25	3.50	1.25	1.00	0.25	1.75	1.00	0.75	0.75	0.00	1.75	1.00	0.50	-0.258301	0.048828	0.935059	-8.050000	1.120000	-0.210000	581.00	-0.23	-0.00
1.07	6.25	7.50	3.50	6.50	2.75	5.50	1.00	3.50	0.75	1.50	3.75	4.50	6.00	1.00	0.75	1.25	-0.291016	0.017578	0.936035	-2.240000	4.410000	1.120000	645.00	-0.09	-0.15	16.50	11.25	5.75	6.25	4.00	1.50	1.00	0.50	1.75	1.25	0.75	0.50	0.00	1.75	1.00	0.50	-0.264160	0.042480	0.934570	-7.840000	0.770000	-0.210000	620.00	-0.23	-0.01
1.08	6.25	7.25	4.00	6.50	2.75	5.75	1.00	3.75	1.00	1.50	3.50	4.50	6.00	1.25	0.50	1.25	-0.291992	0.014648	0.940918	-2.100000	4.270000	1.050000	656.00	-0.09	-0.15	17.00	12.00	6.25	6.50	4.25	1.25	1.00	0.50	2.25	1.25	1.25	0.50	0.00	1.50	0.75	0.50	-0.263672	0.038086	0.934570	-7.560000	0.350000	-0.140000	650.00	-0.23	-0.00
1.09	6.00	7.25	4.00	6.50	2.75	5.50	1.00	3.50	0.50	1.50	3.75	4.50	6.00	1.75	0.50	1.50	-0.297363	0.015137	0.936035	-2.100000	4.340000	1.120000	647.00	-0.09	-0.15	18.25	12.75	6.75	6.75	4.50	1.75	1.00	0.50	2.50	1.50	1.25	0.75	0.00	1.75	1.00	0.50	-0.262207	0.038574	0.941406	-6.510000	-1.120000	0.210000	704.00	-0.23	-0.01
1.10	6.25	7.50	3.75	6.50	2.75	5.50	1.00	3.25	0.75	1.50	3.50	4.50	6.00	1.50	0.75	1.25	-0.295410	0.021973	0.936523	-2.170000	4.200000	1.050000	645.00	-0.09	-0.15	18.75	13.75	6.75	7.50	5.00	2.00	1.25	0.50	2.00	1.25	1.50	0.75	0.25	1.75	1.25	0.75	-0.262695	0.044434	0.945801	-5.880000	-1.540000	0.140000	742.00	-0.23	-0.01
1.11	6.25	7.50	3.75	6.25	2.75	5.50	1.00	3.25	0.75	1.50	3.75	4.25	6.00	1.00	0.75	1.50	-0.285156	0.015625	0.930664	-2.240000	4.340000	1.050000	639.00	-0.09	-0.15	19.25	14.50	7.50	7.75	5.50	2.25	1.25	0.50	2.50	1.50	1.25	1.00	0.25	2.00	1.25	0.25	-0.265625	0.044434	0.941895	-5.320000	-2.030000	0.350000	785.00	-0.23	-0.01
1.12	6.25	7.25	4.00	6.50	2.75	5.50	1.00	3.25	0.75	1.50	3.50	4.50	5.25	1.50	0.75	1.50	-0.287598	0.020508	0.936035	-2.450000	4.340000	1.050000	640.00	-0.09	-0.14	20.25	15.25	8.00	8.25	5.75	2.50	1.50	0.75	2.50	1.50	1.50	1.00	0.25	1.75	1.00	0.50	-0.261230	0.038086	0.937988	-4.830000	-2.730000	0.420000	830.00	-0.23	-0.01
1.13	6.25	7.50	3.75	6.50	2.75	5.50	1.00	3.25	0.75	1.25	3.25	4.50	5.75	1.25	0.50	1.25	-0.293457	0.018066	0.936523	-2.660000	4.200000	1.050000	632.00	-0.10	-0.15	20.75	16.25	8.75	9.00	6.25	3.25	1.50	0.75	2.75	1.50	1.75	1.25	0.75	2.25	1.25	0.75	-0.260254	0.044434	0.945312	-4.620000	-3.010000	0.490000	902.00	-0.22	-0.02
1.14	6.50	7.25	3.75	6.25	2.75	5.25	1.00	3.25	0.75	1.75	3.25	4.25	5.50	1.25	0.50	1.00	-0.285645	0.019531	0.929688	-2.730000	4.340000	1.050000	625.00	-0.10	-0.14	21.50	17.00	8.75	9.25	6.50	3.25	1.50	1.00	3.00	1.50	1.75	1.25	0.50	2.00	1.25	1.00	-0.260254	0.041504	0.950684	-4.760000	-3.080000	0.420000	928.00	-0.22	-0.02
1.15	6.25	7.00	4.00	6.00	2.75	5.25	1.00	3.00	0.50	1.25	3.25	4.00	5.50	1.25	0.50	1.50	-0.290527	0.021484	0.938965	-2.660000	4.620000	1.050000	607.00	-0.10	-0.14	22.50	17.25	9.25	9.75	6.75	3.75	1.75	1.00	3.25	1.75	1.75	1.25	0.75	2.25	1.50	0.50	-0.266602	0.040527	0.948730	-4.900000	-3.080000	0.280000	978.00	-0.22	-0.02
1.16	6.50	7.50	3.75	6.50	2.75	5.50	1.00	3.50	1.00	1.50	3.50	4.25	5.50	1.00	0.75	0.75	-0.286133	0.016602	0.931641	-2.940000	5.250000	0.980000	641.00	-0.10	-0.14	23.25	18.00	9.25	10.00	7.00	4.00	1.75	1.00	3.25	1.75	2.00	1.75	0.75	2.50	1.75	0.75	-0.259766	0.041504	0.941895	-5.040000	-2.870000	0.140000	1018.00	-0.21	-0.02
1.17	5.75	6.75	3.25	6.00	2.75	5.00	1.00	2.75	0.75	1.50	3.25	4.00	5.25	1.25	0.75	1.00	-0.294434	0.012207	0.930664	-3.570000	5.530000	0.840000	586.00	-0.09	-0.14	23.50	18.50	9.75	10.75	7.25	4.50	2.00	1.00	3.50	1.75	2.00	1.50	1.25	2.25	2.00	0.75	-0.257324	0.040039	0.942871	-5.040000	-2.450000	-0.000000	1060.00	-0.21	-0.02
1.18	6.25	7.00	3.00	5.75	2.50	5.00	0.75	3.00	0.50	1.50	3.50	4.25	5.25	1.25	0.75	1.25	-0.286621	0.024414	0.931641	-4.270000	5.810000	0.700000	589.00	-0.09	-0.15	24.50	19.00	9.75	11.00	7.75	4.25	2.25	1.00	3.50	2.00	2.25	1.75	1.00	2.50	1.50	1.00	-0.260742	0.041016	0.942871	-5.110000	-2.100000	-0.070000	1091.00	-0.21	-0.02
1.19	5.75	6.75	3.25	5.75	2.50	5.00	1.00	2.50	0.75	1.25	3.50	3.75	5.25	1.50	0.50	1.25	-0.290039	0.021973	0.940430	-4.760000	6.370000	0.630000	574.00	-0.09	-0.14	24.25	19.50	10.25	11.00	8.00	5.00	2.50	1.00	3.50	1.75	2.25	1.75	1.25	2.50	1.75	1.00	-0.254883	0.042480	0.937012	-5.040000	-1.610000	-0.210000	1118.00	-0.21	-0.02
1.20	5.50	6.25	2.75	5.75	2.50	4.75	1.00	2.50	0.75	1.25	3.25	3.75	5.00	1.25	0.75	1.25	-0.291504	0.012207	0.936523	-5.040000	6.860000	0.560000	552.00	-0.09	-0.14	25.25	19.75	10.50	11.50	8.00	5.00	2.75	1.25	3.75	2.00	2.25	1.75	1.25	2.75	1.75	1.00	-0.256348	0.039551	0.941406	-4.970000	-1.470000	-0.350000	1158.00	-0.21	-0.02
1.21	5.50	6.00	2.75	5.50	2.25	4.75	1.00	2.25	0.75	1.25	3.25	3.50	5.25	1.25	0.50	1.00	-0.295898	0.018066	0.940918	-4.830000	7.840000	0.490000	535.00	-0.09	-0.14	25.00	20.00	11.00	11.50	8.50	5.25	3.00	1.25	4.00	2.25	2.25	1.75	1.75	2.75	2.00	1.00	-0.251465	0.044434	0.944336	-4.480000	-0.700000	-0.350000	1191.00	-0.20	-0.02
1.22	5.00	5.50	2.50	4.75	2.00	3.75	1.00	2.00	0.75	1.25	3.00	3.75	4.75	1.00	0.25	1.00	-0.295410	0.016113	0.937500	-4.480000	9.100000	0.560000	483.00	-0.09	-0.14	24.50	19.75	11.25	11.75	8.50	5.25	3.00	1.25	5.00	2.00	2.25	2.00	1.50	2.75	2.00	1.25	-0.258301	0.040527	0.944336	-4.340000	-0.350000	-0.280000	1202.00	-0.19	-0.02
1.23	4.75	4.75	2.25	4.50	2.00	2.75	1.00	1.75	1.00	1.50	3.00	3.50	4.00	1.00	0.50	1.00	-0.296387	0.015137	0.941895	-4.200000	10.990000	0.700000	450.00	-0.07	-0.12	30.75	24.00	12.50	13.50	8.50	6.75	3.50	2.25	5.75	3.25	3.50	3.25	3.25	3.50	2.75	2.25	-0.250000	0.044434	0.945312	-4.060000	0.210000	-0.280000	1486.00	-0.18	-0.03
1.24	3.50	4.50	1.25	3.75	1.75	2.75	1.00	1.25	0.25	1.50	3.50	3.00	3.75	1.50	0.25	1.00	-0.294922	0.015625	0.940918	-3.990000	13.580000	0.700000	390.00	-0.06	-0.13	29.00	24.00	13.75	12.25	9.75	6.25	3.50	1.50	5.25	3.00	3.50	3.25	3.00	4.25	3.00	2.00	-0.253418	0.038086	0.937012	-3.780000	0.700000	-0.280000	1459.00	-0.18	-0.03
1.25	2.75	3.00	1.25	2.50	1.75	1.75	1.00	1.00	0.50	1.25	3.00	4.00	5.25	2.25	1.25	1.50	-0.299316	0.017578	0.937500	-3.500000	16.450001	0.630000	377.00	0.02	-0.14	29.75	23.25	13.00	14.50	10.25	7.75	4.00	2.50	6.25	3.75	3.50	3.25	3.25	4.50	3.50	2.00	-0.255371	0.040527	0.948730	-3.570000	0.910000	-0.350000	1560.00	-0.16	-0.03
1.26	5.00	5.25	2.75	4.50	2.50	3.75	1.25	2.25	2.50	2.50	3.75	4.00	5.25	2.00	1.25	1.50	-0.299805	0.012207	0.942383	-2.870000	20.090000	0.630000	574.00	-0.03	-0.11	29.75	22.00	13.25	14.00	10.00	6.50	4.00	2.50	6.50	3.50	4.00	3.25	3.75	4.25	3.75	2.50	-0.251465	0.042480	0.937500	-3.360000	1.400000	-0.490000	1541.00	-0.16	-0.03
1.27	4.50	3.75	2.75	3.50	2.25	3.50	1.25	2.25	1.25	1.50	3.00	2.75	1.25	0.50	0.25	0.75	-0.312012	0.021484	0.948242	-2.800000	24.850000	0.280000	416.00	-0.09	-0.10	29.50	23.00	14.00	14.25	10.25	7.75	4.25	2.50	6.75	3.25	4.00	3.50	4.00	4.25	3.50	2.25	-0.253418	0.041992	0.937500	-3.150000	1.750000	-0.490000	1584.00	-0.16	-0.03
1.28	0.00	0.25	0.00	0.00	0.75	0.25	0.75	0.25	0.25	1.25	2.50	2.50	1.25	0.50	0.00	0.50	-0.445801	0.000000	0.952637	-3.150000	29.540001	-0.420000	126.00	0.16	-0.12	26.75	21.00	12.50	13.50	10.25	7.75	4.25	2.50	6.75	3.25	3.00	3.75	3.75	4.50	3.50	2.25	-0.258301	0.038574	0.940430	-3.080000	1.890000	-0.420000	1497.00	-0.15	-0.03
1.29	0.00	0.00	0.00	0.00	0.50	0.00	0.75	0.00	0.50	1.25	2.75	2.75	1.00	1.00	0.25	0.50	-0.280273	0.040527	0.997559	-4.480000	38.220001	-3.430000	128.00	0.21	-0.08	21.75	17.50	13.50	14.50	10.50	8.00	4.25	2.50	6.75	3.75	4.00	3.75	4.25	4.75	3.75	2.00	-0.258301	0.037109	0.939941	-3.010000	1.960000	-0.350000	1461.00	-0.13	-0.04
1.30	0.00	0.00	0.00	0.00	0.50	0.00	0.50	0.50	0.00	1.00	2.50	2.75	0.00	0.75	0.25	1.50	-0.409668	0.020996	0.972168	-10.640000	53.060001	-8.400000	113.00	0.20	-0.13	28.50	22.00	13.50	14.25	10.50	8.00	4.25	2.50	6.75	3.50	4.25	3.50	4.00	4.75	3.50	2.50	-0.252441	0.037109	0.935059	-2.730000	2.100000	-0.350000	1575.00	-0.15	-0.03
1.31	0.00	0.00	0.00	0.00	0.25	0.00	0.50	0.00	0.25	0.75	2.25	2.00	0.00	0.25	0.00	0.75	-0.310547	0.053711	1.179688	-11.550000	123.410004	-11.130000	79.00	0.21	-0.09	27.75	21.50	13.25	13.75	10.25	7.75	4.25	2.50	7.00	3.75	4.00	3.75	4.00	4.50	3.75	2.50	-0.253906	0.042969	0.940430	-2.730000	2.380000	-0.420000	1553.00	-0.15	-0.03
1.32	0.00	0.00	0.00	0.00	0.00	0.00	0.25	0.00	0.00	0.75	1.75	1.25	0.00	0.50	0.00	0.50	-0.235840	0.134766	1.185547	-16.590000	150.289993	-17.150000	55.00	0.24	-0.09	27.25	21.00	13.00	13.75	10.25	7.75	4.50	2.50	7.00	3.50	4.50	3.75	4.25	4.75	3.50	2.25	-0.250977	0.038574	0.943359	-2.660000	2.240000	-0.210000	1547.00	-0.14	-0.03
1.33	0.00	0.00	0.00	0.00	0.00	0.00	0.25	0.00	0.00	0.75	2.00	2.00	0.00	1.00	0.00	0.00	-0.354980	0.207031	1.278320	-11.200000	156.869995	-27.440001	68.00	0.24	-0.09	26.75	20.50	12.75	13.50	10.00	7.75	4.25	2.50	7.00	3.50	4.25	3.75	4.25	4.50	3.75	2.50	-0.255859	0.044922	0.937012	-2.800000	2.240000	-0.210000	1522.00	-0.14	-0.03
1.34	0.00	0.00	0.00	0.00	0.00	0.00	0.25	0.00	0.00	0.25	1.00	0.75	0.00	0.00	0.00	0.25	-0.353027	0.218750	1.413086	8.120000	157.570007	-39.410000	29.00	0.00	0.00	26.25	20.25	12.75	13.25	10.25	7.75	4.50	2.50	7.00	3.75	4.25	3.75	4.00	4.50	3.75	2.25	-0.254883	0.035645	0.942871	-3.080000	2.100000	-0.280000	1517.00	-0.14	-0.03
1.35	0.00	0.00	0.00	1.25	0.75	0.25	0.25	0.00	0.00	0.25	1.25	0.25	0.00	0.25	0.00	0.00	-0.455078	0.181641	1.489258	31.080000	156.520004	-47.880001	53.00	-0.00	-0.09	25.75	19.50	12.50	12.75	10.00	7.50	4.50	2.50	7.00	3.50	4.50	3.75	3.50	4.50	3.50	2.25	-0.252441	0.039062	0.936523	-3.290000	1.820000	-0.350000	1481.00	-0.14	-0.03
1.36	0.00	0.00	0.00	0.00	0.00	0.00	0.50	0.00	0.00	0.00	0.50	0.50	0.00	0.00	0.00	0.00	-0.355957	0.188965	1.600586	40.740002	146.229996	-56.279999	20.00	0.00	0.00	24.00	17.75	11.50	12.00	9.75	7.25	4.25	2.25	6.75	3.75	4.50	3.75	4.00	4.75	3.75	2.25	-0.254395	0.034180	0.940430	-3.500000	1.680000	-0.490000	1417.00	-0.13	-0.03
1.37	0.00	0.00	0.00	0.00	0.00	0.00	0.50	0.00	0.00	0.25	0.75	0.00	0.00	0.00	0.00	0.00	0.086914	0.174805	1.369141	38.570000	139.930008	-64.190002	20.00	0.00	0.00	26.25	20.00	13.50	13.50	10.75	7.75	4.50	2.25	6.75	3.75	4.00	3.00	2.50	3.25	2.00	1.25	-0.256348	0.033691	0.937500	-3.640000	1.540000	-0.490000	1461.00	-0.16	-0.02
1.38	0.00	0.00	0.00	0.00	0.00	0.00	0.25	0.00	0.00	0.00	0.50	0.00	0.00	0.00	0.00	0.00	0.229980	0.210449	1.388672	24.990000	127.610001	-69.930000	10.00	0.00	0.00	23.75	17.50	10.50	9.75	9.00	6.50	4.50	2.50	7.00	3.75	4.50	3.75	3.75	4.50	3.50	2.25	-0.255859	0.039062	0.939941	-3.640000	1.260000	-0.420000	1359.00	-0.12	-0.02
1.39	0.00	0.00	0.00	0.00	0.00	0.00	0.25	0.00	0.00	0.00	0.25	0.00	0.00	0.00	0.00	0.00	0.486328	0.277344	1.320801	7.350000	109.620003	-72.239998	7.00	0.00	0.00	23.25	18.25	12.50	12.50	10.25	7.75	4.75	2.50	7.25	4.00	4.75	4.00	4.25	4.75	3.50	1.75	-0.255371	0.038574	0.937988	-3.710000	1.050000	-0.490000	1469.00	-0.13	-0.03
1.40	0.00	0.00	0.00	0.00	0.00	0.00	0.50	0.00	0.00	0.00	0.25	0.00	0.00	0.00	0.00	0.00	0.663086	0.419434	1.208008	-10.360000	96.110001	-69.090004	11.00	0.00	0.00	25.00	19.25	13.25	13.25	11.00	8.25	4.75	2.75	7.25	3.75	4.75	3.75	3.25	4.75	3.50	2.50	-0.248047	0.036621	0.938965	-3.780000	0.840000	-0.420000	1525.00	-0.14	-0.03
1.41	0.00	0.00	0.00	0.00	0.00	0.00	0.50	0.00	0.00	0.00	0.00	0.00	0.00	0.00	0.00	0.00	0.728516	0.502930	1.312988	-24.710001	81.129997	-60.060001	8.00	0.00	0.00	20.00	14.75	11.00	11.00	9.75	7.00	4.50	1.75	6.25	2.75	3.75	3.00	2.25	4.25	4.00	2.25	-0.256836	0.037109	0.934570	-3.990000	0.770000	-0.350000	1263.00	-0.12	-0.02
1.42	0.00	0.00	0.00	0.00	0.00	0.00	0.25	0.00	0.00	0.00	0.00	0.00	0.00	0.00	0.00	0.00	0.927246	0.531250	1.549316	-26.250000	48.650002	-47.740002	4.00	0.00	0.00	25.75	19.00	13.75	13.50	11.25	8.00	5.00	2.25	7.50	4.00	6.25	4.25	4.25	5.00	3.25	1.75	-0.251465	0.035645	0.937500	-4.340000	0.840000	-0.630000	1570.00	-0.13	-0.03
1.43	0.00	0.00	0.00	0.00	0.00	0.00	0.50	0.00	0.00	0.00	0.00	0.00	0.00	0.00	0.00	0.00	0.991211	0.543457	1.459961	-10.150000	8.960000	-33.810001	8.00	0.00	0.00	21.25	17.50	13.00	13.50	11.50	8.50	5.00	2.75	7.75	4.00	5.75	3.00	2.00	4.25	3.50	2.50	-0.250488	0.037109	0.937988	-4.200000	0.770000	-0.630000	1474.00	-0.12	-0.02
1.44	0.00	0.00	0.00	0.00	0.00	0.00	0.50	0.00	0.00	0.00	0.00	0.00	0.00	0.00	0.00	0.00	0.962891	0.446777	1.245605	13.510000	-25.549999	-21.139999	8.00	0.00	0.00	24.75	18.50	13.75	13.25	11.75	8.25	5.00	2.75	7.75	4.00	6.50	4.25	4.25	5.00	3.75	2.50	-0.251465	0.034668	0.935059	-4.200000	0.700000	-0.490000	1584.00	-0.12	-0.03
1.45	0.00	0.00	0.00	0.00	0.00	0.00	0.50	0.00	0.00	0.00	0.00	0.00	0.00	0.00	0.00	0.00	0.904297	0.335449	1.032715	34.860001	-48.299999	-11.130000	8.00	0.00	0.00	24.75	18.00	14.00	13.25	11.75	8.50	5.25	2.75	8.00	4.25	6.75	4.75	4.50	5.25	4.00	2.75	-0.248535	0.032715	0.934570	-3.920000	1.050000	-0.560000	1614.00	-0.11	-0.03
1.46	0.00	0.00	0.00	0.00	0.00	0.00	0.50	0.00	0.00	0.00	0.00	0.00	0.00	0.00	0.00	0.00	0.752930	0.142578	0.903809	55.160000	-69.720001	4.060000	8.00	0.00	0.00	24.25	17.75	13.75	13.25	12.00	8.50	5.25	3.00	8.00	4.75	7.25	5.00	4.50	5.50	4.25	2.75	-0.247070	0.038086	0.934570	-3.780000	1.190000	-0.630000	1629.00	-0.11	-0.03
1.47	0.00	0.00	0.00	0.00	0.00	0.00	0.50	0.00	0.00	0.00	0.00	0.00	0.00	0.00	0.00	0.00	0.657715	0.102051	0.970215	57.330002	-78.400002	10.990000	8.00	0.00	0.00	23.75	16.75	13.50	13.00	12.25	8.50	5.50	3.00	8.25	4.50	7.50	5.00	4.75	5.50	4.25	2.75	-0.250000	0.040039	0.935547	-3.990000	1.540000	-0.770000	1620.00	-0.10	-0.03
1.48	1.25	1.50	0.75	1.00	0.75	1.75	0.75	1.00	0.25	0.75	1.00	0.50	1.75	1.00	0.25	0.25	0.545898	0.052734	1.043945	57.959999	-88.269997	18.200001	169.00	-0.04	-0.12	22.75	16.50	13.50	12.75	12.25	8.50	5.50	3.25	8.50	4.75	7.50	5.25	5.00	5.50	4.50	2.75	-0.253418	0.041016	0.932129	-4.200000	1.680000	-0.700000	1622.00	-0.10	-0.03
1.49	0.00	0.00	0.00	0.00	0.00	0.00	0.25	0.00	0.00	0.00	0.00	0.00	0.00	0.00	0.00	0.00	0.438477	0.005859	1.080566	55.510002	-98.489998	25.690001	4.00	0.00	0.00	22.00	14.75	13.50	12.50	12.50	8.50	5.75	3.00	8.75	5.25	7.75	5.75	5.00	5.75	4.50	3.00	-0.252441	0.032715	0.932129	-4.130000	2.100000	-0.910000	1618.00	-0.09	-0.03
1.50	0.00	0.00	0.00	0.00	0.00	0.00	0.50	0.00	0.00	0.00	0.00	0.00	0.00	0.00	0.00	0.00	0.317871	-0.050781	1.080078	48.230000	-107.379997	33.040001	8.00	0.00	0.00	21.25	14.25	13.25	12.00	12.50	8.50	6.00	3.25	8.75	5.25	8.00	5.75	4.50	5.25	3.75	2.50	-0.245117	0.035156	0.934570	-4.130000	2.450000	-0.980000	1585.00	-0.09	-0.03
1.51	0.50	0.50	0.00	0.75	0.50	1.25	0.75	0.75	0.50	0.25	0.75	0.75	0.25	1.00	0.25	0.50	0.203125	-0.078125	1.042480	36.330002	-113.610001	40.250000	110.00	0.03	-0.09	17.50	11.75	12.25	11.50	12.00	8.00	6.00	3.25	9.25	5.50	7.50	5.00	4.50	6.25	4.00	2.00	-0.248047	0.038086	0.934082	-4.410000	2.730000	-1.120000	1492.00	-0.07	-0.02
1.52	1.50	1.25	0.75	0.75	0.75	1.50	0.75	1.00	0.50	0.25	0.75	0.50	1.25	1.00	0.00	0.25	0.105957	-0.079590	1.057617	21.840000	-115.779999	47.040001	150.00	-0.05	-0.09	19.25	12.25	12.50	11.25	12.50	8.50	6.25	3.25	9.25	5.75	8.25	6.75	5.25	6.50	5.00	3.25	-0.253906	0.037109	0.937988	-4.690000	2.940000	-1.190000	1593.00	-0.06	-0.03
1.53	2.00	1.00	1.00	1.00	1.00	1.50	0.75	1.00	0.75	0.50	1.00	0.25	1.00	1.00	0.50	0.25	-0.003906	-0.077637	1.091797	7.420000	-115.220001	53.200001	172.00	-0.05	-0.06	16.50	10.00	12.00	10.50	12.50	8.50	6.25	3.25	9.50	6.00	8.25	6.75	4.00	6.50	5.00	3.50	-0.248535	0.039062	0.931641	-4.550000	3.500000	-1.190000	1520.00	-0.04	-0.02
1.54	1.00	1.25	1.00	1.00	0.75	1.25	0.75	0.50	0.00	0.50	0.75	0.50	0.75	0.75	0.50	0.50	-0.080566	-0.067383	1.187500	-4.830000	-114.940002	58.660000	135.00	-0.05	-0.09	15.50	9.50	12.00	10.50	12.50	8.50	6.50	3.50	10.00	6.75	8.75	7.75	5.25	6.75	5.00	3.75	-0.251953	0.033203	0.929688	-4.480000	3.990000	-1.260000	1561.00	-0.03	-0.03
1.55	1.00	1.25	0.50	1.00	0.75	1.50	0.75	1.00	0.50	0.50	1.00	0.75	1.00	0.75	0.50	0.50	-0.166992	-0.058594	1.291016	-15.960000	-115.919998	62.930000	156.00	-0.02	-0.11	13.50	8.00	10.75	9.25	11.00	7.25	6.50	2.75	9.75	7.00	9.00	7.50	5.50	6.75	5.00	3.75	-0.252441	0.031738	0.928711	-3.920000	4.550000	-1.260000	1449.00	-0.01	-0.02
1.56	1.00	1.00	0.50	0.75	0.75	1.00	0.75	1.00	0.75	0.50	0.75	0.25	0.50	0.50	0.00	0.00	-0.250000	-0.038086	1.394043	-27.020000	-120.050003	65.169998	124.00	-0.05	-0.06	12.75	7.50	10.50	9.25	12.50	8.25	6.75	3.75	10.50	7.75	9.50	8.00	6.50	7.25	5.50	4.25	-0.247559	0.038574	0.935059	-2.170000	5.530000	-1.050000	1537.00	-0.00	-0.03
1.57	0.00	0.00	0.00	0.00	0.00	0.00	0.25	0.00	0.00	0.00	0.00	0.00	0.00	0.00	0.00	0.00	-0.330078	0.000000	1.490234	-35.770000	-127.680000	65.029999	4.00	0.00	0.00	11.25	7.00	10.25	8.75	12.25	8.50	7.00	3.75	11.00	7.75	9.75	8.25	6.50	7.50	5.75	4.50	-0.242188	0.033691	0.937988	-1.260000	6.440000	-0.980000	1529.00	0.01	-0.03
1.58	0.00	0.00	0.00	0.00	0.00	0.00	0.25	0.00	0.00	0.00	0.00	0.00	0.00	0.00	0.00	0.00	-0.416992	0.044922	1.543945	-39.410000	-137.479996	63.000000	4.00	0.00	0.00	9.75	6.25	9.50	8.25	11.75	8.25	7.00	3.75	11.00	8.00	10.00	8.50	6.50	7.25	5.00	3.75	-0.255371	0.042480	0.934570	-0.350000	7.210000	-0.630000	1474.00	0.02	-0.03
1.59	0.00	0.00	0.00	0.00	0.00	0.00	0.50	0.00	0.00	0.00	0.00	0.00	0.00	0.00	0.00	0.00	-0.478516	0.091309	1.546387	-35.700001	-147.559998	59.570000	8.00	0.00	0.00	9.00	6.00	9.00	8.00	11.50	8.25	7.00	4.25	11.50	8.25	10.50	8.75	7.00	7.00	5.50	5.00	-0.251465	0.037598	0.932617	0.700000	8.190000	-0.490000	1493.00	0.03	-0.04
1.60	0.00	0.00	0.00	0.00	0.00	0.00	0.25	0.00	0.00	0.00	0.00	0.00	0.00	0.00	0.00	0.00	-0.558105	0.141113	1.532715	-24.010000	-156.660004	55.650002	4.00	0.00	0.00	8.25	5.50	8.25	7.50	10.75	7.50	7.25	4.25	11.75	8.25	10.25	9.00	7.75	8.00	6.75	5.25	-0.254883	0.040527	0.929688	1.260000	9.590000	-0.560000	1487.00	0.04	-0.04
1.61	0.00	0.00	0.00	0.00	0.00	0.00	0.50	0.00	0.00	0.00	0.00	0.00	0.00	0.00	0.00	0.00	-0.676758	0.163086	1.390625	9.590000	-167.580002	47.529999	8.00	0.00	0.00	6.25	4.50	6.75	6.00	9.00	6.50	7.00	5.00	12.00	9.00	11.25	9.25	8.25	8.00	7.00	5.50	-0.247559	0.037598	0.930664	2.170000	11.410000	-0.490000	1429.00	0.07	-0.04
1.62	0.00	0.00	0.00	0.00	0.00	0.00	0.25	0.00	0.00	0.00	0.00	0.00	0.00	0.00	0.00	0.00	-0.729004	0.152344	1.300293	22.960001	-167.720001	43.889999	4.00	0.00	0.00	5.50	3.00	5.50	5.00	8.50	6.50	7.00	4.00	10.75	8.50	10.75	9.25	8.00	7.00	6.25	5.00	-0.257812	0.036133	0.936523	3.150000	13.230000	-0.630000	1303.00	0.08	-0.04
1.63	0.00	0.00	0.00	0.00	0.00	0.00	0.50	0.00	0.00	0.00	0.00	0.00	0.00	0.00	0.00	0.00	-0.770996	0.153809	1.197754	30.940001	-164.009995	41.580002	8.00	0.00	0.00	4.50	2.25	5.00	4.00	7.50	6.00	7.00	4.25	10.75	8.75	11.25	9.50	8.50	7.50	6.25	5.25	-0.254883	0.052246	0.927734	3.990000	15.960000	-0.630000	1274.00	0.10	-0.04
1.64	0.00	0.00	0.00	0.00	0.00	0.00	0.50	0.00	0.00	0.00	0.00	0.00	0.00	0.00	0.00	0.00	-0.809082	0.177734	1.094238	32.689999	-156.660004	41.369999	8.00	0.00	0.00	3.50	1.75	3.75	3.50	6.50	6.00	7.00	4.25	11.00	8.75	11.50	10.00	9.00	7.50	6.50	5.25	-0.280762	0.044922	0.930176	4.480000	18.620001	-0.910000	1244.00	0.11	-0.05
1.65	0.00	0.00	0.00	0.00	0.00	0.00	0.50	0.00	0.00	0.00	0.00	0.00	0.00	0.00	0.00	0.00	-0.864258	0.207031	0.995117	30.100000	-146.580002	43.470001	8.00	0.00	0.00	3.00	1.75	2.75	2.50	5.50	5.25	7.00	4.25	11.25	9.25	12.00	10.25	9.25	7.50	6.75	5.50	-0.297852	-0.062988	0.965820	4.410000	20.860001	-1.470000	1218.00	0.13	-0.05
1.66	0.00	0.00	0.00	0.00	0.00	0.00	0.50	0.00	0.00	0.00	0.00	0.00	0.00	0.00	0.00	0.00	-0.933594	0.222656	0.941895	27.719999	-135.520004	47.950001	8.00	0.00	0.00	2.50	1.25	2.25	2.00	4.00	4.25	7.25	4.25	11.50	9.50	12.25	10.50	9.50	7.75	7.00	5.50	-0.253418	0.048340	0.930664	3.290000	24.850000	-2.100000	1189.00	0.15	-0.05
1.67	0.00	0.00	0.00	0.00	0.00	0.00	0.25	0.00	0.00	0.00	0.00	0.00	0.00	0.00	0.00	0.00	-1.036133	0.194824	0.944824	26.600000	-124.110001	52.990002	4.00	0.00	0.00	2.50	1.25	2.00	1.50	3.25	3.50	7.25	3.50	11.75	9.75	12.50	10.75	9.75	7.75	7.00	5.75	-0.267090	0.047363	0.937012	2.170000	28.139999	-2.800000	1166.00	0.16	-0.04
1.68	0.00	0.00	0.00	0.00	0.00	0.00	0.50	0.00	0.00	0.00	0.00	0.00	0.00	0.00	0.00	0.00	-1.081543	0.168945	0.899414	24.360001	-115.919998	57.260002	8.00	0.00	0.00	1.75	0.75	1.50	1.25	2.50	2.75	7.25	3.50	12.25	10.00	12.75	11.00	10.25	8.00	7.25	6.00	-0.275391	0.048340	0.928711	1.190000	31.990000	-3.640000	1153.00	0.18	-0.04
1.69	0.00	0.00	0.00	0.00	0.00	0.00	0.25	0.00	0.00	0.00	0.00	0.00	0.00	0.00	0.00	0.00	-1.133789	0.153320	0.854004	18.760000	-113.050003	59.570000	4.00	0.00	0.00	1.25	1.75	1.50	1.00	3.00	2.75	7.25	3.00	12.50	10.25	13.00	11.25	9.75	8.25	7.25	6.00	-0.270996	0.054688	0.952637	-0.840000	46.619999	-5.810000	1161.00	0.18	-0.04
1.70	0.00	0.00	0.00	0.00	0.00	0.00	0.25	0.00	0.00	0.00	0.00	0.00	0.00	0.00	0.00	0.00	-1.215820	0.121094	0.772461	13.650000	-112.279999	59.150002	4.00	0.00	0.00	0.75	0.50	1.25	0.75	1.75	2.50	7.50	2.75	12.75	10.50	13.25	11.25	9.75	8.25	7.50	6.00	-0.298828	0.033691	0.955078	-1.960000	56.560001	-6.440000	1131.00	0.20	-0.04
1.71	0.00	0.00	0.00	0.00	0.00	0.00	0.25	0.00	0.00	0.00	0.00	0.00	0.00	0.00	0.00	0.00	-1.222168	0.050293	0.613281	11.900000	-111.510002	55.580002	4.00	0.00	0.00	1.25	0.50	0.75	0.75	1.50	1.75	7.25	2.25	12.75	10.75	13.25	11.25	9.50	8.25	7.50	6.00	-0.357422	0.051758	0.917480	-0.630000	67.340004	-7.420000	1107.00	0.20	-0.03
1.72	0.00	0.00	0.00	0.00	0.00	0.00	0.50	0.25	0.00	0.00	0.25	0.00	0.00	0.00	0.00	0.00	-1.259766	0.058105	0.411133	16.309999	-111.230003	50.470001	15.00	0.00	0.00	1.25	0.25	0.75	0.25	1.25	1.50	7.25	2.00	13.00	10.75	13.25	11.25	9.25	8.25	7.50	6.00	-0.300293	0.020508	0.947266	-1.960000	78.959999	-8.050000	1089.00	0.21	-0.03
1.73	0.00	0.00	0.00	0.00	0.00	0.00	0.50	0.00	0.00	0.00	0.00	0.00	0.00	0.00	0.00	0.00	-1.467285	0.011719	0.384766	24.290001	-105.349998	42.349998	8.00	0.00	0.00	0.75	0.00	0.75	0.25	1.25	1.25	7.25	1.75	13.25	10.75	13.25	11.25	9.25	8.50	7.50	6.00	-0.304199	0.048828	0.921387	-4.900000	93.449997	-8.820000	1080.00	0.22	-0.02
1.74	0.00	0.00	0.00	0.00	0.00	0.00	0.50	0.00	0.00	0.00	0.00	0.00	0.00	0.00	0.00	0.00	-1.424805	-0.053223	0.201172	35.700001	-85.610001	31.639999	8.00	0.00	0.00	0.75	0.00	0.50	0.00	1.25	1.00	7.00	1.50	13.25	10.75	13.25	11.00	8.75	8.50	7.50	6.00	-0.356445	0.024902	0.968750	-7.140000	110.040001	-9.800000	1055.00	0.22	-0.02
1.75	0.00	0.00	0.00	0.00	0.00	0.00	0.50	0.00	0.00	0.00	0.00	0.00	0.00	0.00	0.00	0.00	-1.403320	-0.100586	0.042969	45.779999	-63.770000	19.670000	8.00	0.00	0.00	0.25	0.00	0.50	0.00	0.75	1.00	7.00	1.50	13.25	10.75	13.25	11.00	8.25	8.50	7.75	5.75	-0.370117	0.041016	1.001953	-8.400000	131.039993	-11.270000	1040.00	0.23	-0.02
1.76	0.00	0.00	0.00	0.00	0.00	0.00	0.25	0.00	0.00	0.00	0.00	0.00	0.00	0.00	0.00	0.00	-1.376465	-0.112305	0.210938	51.380001	-20.440001	-3.990000	4.00	0.00	0.00	0.75	0.00	0.00	0.00	1.00	0.75	6.75	1.00	13.00	10.75	13.00	10.75	7.75	8.50	7.75	6.00	-0.346191	0.031738	1.052734	-10.640000	152.180008	-12.180000	1015.00	0.23	-0.01
1.77	0.00	0.00	0.00	0.00	0.00	0.00	0.50	0.00	0.00	0.00	0.00	0.00	0.00	0.75	0.50	0.25	0.339844	0.063965	0.246582	46.200001	-2.240000	-13.020000	22.00	0.00	0.00	0.00	0.00	0.25	0.00	1.00	0.75	6.50	1.00	13.00	10.75	12.75	10.50	7.50	8.50	7.75	5.75	-0.395020	0.057617	0.990723	-13.160000	172.899994	-13.790000	996.00	0.23	-0.01
1.78	1.25	1.75	0.50	1.25	0.75	1.00	0.50	1.25	0.25	1.00	0.50	0.75	0.75	0.75	0.50	0.00	-0.937012	-0.727539	-0.891602	-5.110000	76.160004	1.470000	152.00	-0.06	-0.11	0.25	0.00	0.00	0.00	0.75	0.75	6.50	1.00	12.75	10.50	12.50	10.25	7.00	8.50	7.75	5.75	-0.485352	-0.062988	0.933105	-17.990000	193.199997	-17.639999	976.00	0.24	-0.01
1.79	2.00	1.50	1.00	1.00	0.75	1.25	0.50	1.00	0.50	0.00	0.00	0.00	0.00	0.00	0.00	0.00	0.342773	0.229492	0.789551	-42.420002	120.260002	-7.140000	118.00	-0.20	-0.07	0.00	0.00	0.00	0.00	0.75	0.25	6.25	0.75	12.50	10.25	12.25	10.00	5.75	8.50	7.75	5.75	-0.479004	0.024902	1.034180	-23.450001	212.940002	-19.950001	935.00	0.24	-0.00
1.80	0.00	0.00	0.00	0.00	0.00	0.00	0.25	0.00	0.00	0.00	0.00	0.00	0.00	0.00	0.00	0.00	0.196777	0.249023	1.482910	-35.070000	119.629997	-7.070000	4.00	0.00	0.00	0.00	0.00	0.00	0.00	0.50	0.25	6.00	0.50	12.00	10.00	12.00	9.75	5.00	8.25	7.75	5.50	-0.519531	0.033203	1.028320	-30.730000	234.009995	-23.590000	897.00	0.25	-0.00
1.81	0.00	0.00	0.00	0.00	0.00	0.00	0.25	0.00	0.00	0.00	0.00	0.00	0.00	0.00	0.00	0.00	0.056152	0.091309	0.965332	-38.220001	98.629997	-3.500000	4.00	0.00	0.00	0.00	0.00	0.00	0.00	0.50	0.00	5.50	0.25	11.50	9.50	11.25	9.25	3.75	8.25	7.75	5.50	-0.658203	0.051758	1.118164	-38.430000	267.610016	-33.110001	842.00	0.25	0.01
1.82	0.50	0.75	0.00	0.00	0.00	0.00	0.25	0.00	0.00	0.00	0.00	0.00	0.00	0.00	0.00	0.00	0.028809	0.040039	0.533691	-48.509998	98.489998	-5.390000	17.00	0.00	0.00	0.00	0.00	0.00	0.00	0.50	0.25	5.25	0.25	10.75	9.00	10.50	8.75	3.50	8.25	7.75	5.25	-0.735840	0.045898	1.288086	-33.459999	278.880005	-37.029999	807.00	0.25	0.01
1.83	1.50	2.50	0.00	0.00	0.00	0.00	0.25	0.00	0.00	0.00	0.50	0.00	0.00	0.75	0.00	0.25	-0.046875	0.020996	0.571777	-55.860001	112.770004	-6.930000	60.00	-0.20	-0.02	0.00	0.00	0.00	0.00	0.50	0.25	5.00	0.25	10.00	8.25	9.75	8.25	2.50	8.00	7.50	5.25	-0.896973	-0.013184	1.467773	-21.700001	288.890015	-39.549999	754.00	0.25	0.01
1.84	1.75	2.75	0.00	0.00	0.50	0.00	0.25	0.00	0.00	0.00	0.50	0.25	0.25	0.75	0.00	0.00	-0.060547	0.062012	0.841309	-50.820000	125.930000	-5.460000	76.00	-0.20	-0.03	0.00	0.00	0.00	0.00	0.50	0.25	4.25	0.00	9.00	7.50	8.75	8.00	2.75	8.25	7.50	5.00	-1.158203	0.065918	1.750000	-12.040000	301.350006	-38.080002	704.00	0.26	0.01
1.85	2.75	5.00	0.25	0.00	0.00	0.00	0.25	0.00	0.00	0.25	0.25	0.50	0.50	0.25	0.00	0.00	-0.158203	0.001465	1.118652	-40.529999	125.790001	-4.270000	107.00	-0.28	-0.07	0.00	0.00	0.00	0.00	0.50	0.25	3.50	0.00	8.25	6.50	8.00	6.75	2.50	8.00	7.50	4.00	-1.320801	0.047852	1.965332	-3.570000	317.029999	-31.780001	636.00	0.26	0.01
1.86	3.75	5.25	0.00	0.00	0.00	0.00	0.25	0.00	0.00	0.00	0.25	0.25	0.00	0.50	0.00	0.00	-0.225098	-0.070801	1.122559	-39.759998	120.470001	-7.000000	110.00	-0.32	-0.03	0.00	0.00	0.00	0.00	0.50	0.25	2.75	0.00	7.25	5.50	7.50	5.75	1.25	7.75	7.25	3.75	-1.181152	0.022461	1.876953	4.480000	330.820007	-26.809999	562.00	0.27	0.01
1.87	5.00	6.00	0.00	2.75	0.75	1.25	0.25	0.25	0.25	0.00	0.00	0.00	0.00	0.25	0.00	0.00	-0.262207	-0.064941	1.088379	-40.250000	118.860001	-11.690000	188.00	-0.31	-0.07	0.00	0.00	0.00	0.00	0.25	0.00	2.25	0.00	6.25	4.50	6.25	4.75	1.00	7.25	6.75	3.00	-1.114746	-0.028809	1.698242	6.860000	339.850006	-29.820000	479.00	0.28	0.02
1.88	8.75	10.00	1.25	3.75	0.50	0.50	0.25	0.25	0.25	0.00	0.50	0.00	0.00	0.00	0.25	0.00	-0.355957	-0.011230	1.192871	-37.799999	122.709999	-15.330000	292.00	-0.33	-0.06	0.00	0.00	0.00	0.00	0.25	0.00	1.50	0.00	5.25	4.25	5.25	4.25	1.00	6.75	6.00	2.50	-1.117188	0.094238	1.477051	3.290000	347.269989	-36.049999	416.00	0.28	0.01
1.89	9.00	9.75	0.25	4.75	0.50	0.75	0.50	0.25	0.00	0.25	0.50	0.25	0.25	0.00	0.00	0.00	-0.434570	0.157715	1.409180	-22.260000	134.190002	-11.760000	301.00	-0.32	-0.07	0.00	0.00	0.00	0.00	0.25	0.25	1.00	0.00	4.50	4.00	4.75	3.75	0.50	6.25	5.50	2.00	-1.121582	0.163574	1.651855	-3.640000	349.579987	-45.150002	368.00	0.28	0.01
1.90	9.00	9.75	0.00	2.75	0.00	0.00	0.25	0.00	0.00	0.00	0.00	0.00	0.00	0.00	0.00	0.00	-0.612793	0.116699	1.907715	-4.340000	135.309998	-3.010000	237.00	-0.38	-0.05	0.00	0.00	0.00	0.00	0.25	0.00	0.75	0.00	4.00	3.50	4.00	3.00	0.00	5.50	5.00	1.25	-1.576660	0.359863	1.872070	5.180000	330.890015	-47.250000	309.00	0.29	0.03
1.91	10.25	10.75	0.00	3.25	0.00	0.00	0.25	0.00	0.00	0.00	0.00	0.00	0.00	0.00	0.00	0.00	-0.289062	-0.014160	1.319336	-5.180000	99.750000	-3.290000	267.00	-0.38	-0.05	0.00	0.00	0.00	0.00	0.50	0.00	0.50	0.00	2.75	3.00	3.75	2.75	0.00	4.50	4.00	0.75	-1.493164	0.402344	1.519043	19.040001	306.739990	-53.760002	254.00	0.28	0.01
1.92	10.75	11.25	0.75	4.50	0.00	0.00	0.25	0.00	0.00	0.00	0.00	0.00	0.00	0.00	0.00	0.00	-0.249023	0.097168	1.208496	-3.920000	87.989998	-4.690000	302.00	-0.38	-0.05	0.00	0.00	0.00	0.00	0.25	0.00	0.25	0.00	2.00	3.00	3.00	2.25	0.25	3.00	2.75	0.50	-0.732910	0.337891	1.750488	20.719999	284.690002	-65.870003	195.00	0.28	-0.00
1.93	11.25	11.50	0.50	5.25	0.00	0.00	0.25	0.00	0.00	0.00	0.50	0.50	0.00	0.00	0.00	0.00	-0.235840	0.114746	1.157715	-3.990000	77.699997	-3.010000	328.00	-0.36	-0.06	1.25	0.75	0.25	0.00	1.00	1.25	0.50	1.00	1.50	2.75	2.25	1.75	0.00	1.50	1.75	1.00	-0.145508	0.385742	1.624023	19.389999	220.990005	-87.080002	215.00	0.12	-0.04
1.94	11.25	13.00	1.50	5.25	0.25	0.00	0.25	0.00	0.00	0.00	0.00	0.00	0.00	0.00	0.00	0.00	-0.220215	0.068359	1.053223	-4.620000	70.000000	-1.190000	347.00	-0.37	-0.06	0.00	0.00	0.00	0.00	0.25	0.25	0.25	0.00	0.00	2.00	1.75	1.25	0.00	0.75	1.00	0.75	0.265625	0.307617	1.432617	22.960001	197.750000	-93.800003	90.00	0.24	-0.06
1.95	12.00	11.75	1.25	5.50	0.25	0.00	0.25	0.00	0.00	0.00	0.00	0.00	0.00	0.00	0.00	0.00	-0.217285	0.029297	0.974609	-2.800000	66.080002	-1.330000	342.00	-0.37	-0.05	0.00	0.00	0.00	0.00	0.00	0.00	0.25	0.25	0.00	1.25	1.00	0.75	0.00	0.25	0.50	0.25	1.437988	0.382812	1.565430	26.950001	160.229996	-100.029999	52.00	0.23	-0.08
1.96	12.50	12.00	1.50	5.75	0.50	0.00	0.25	0.00	0.00	0.00	0.00	0.00	0.00	0.00	0.00	0.00	-0.223145	0.047363	0.945801	0.420000	65.099998	-2.590000	360.00	-0.37	-0.05	0.00	0.00	0.00	0.00	0.00	0.25	0.25	0.25	0.00	1.25	1.00	0.50	0.00	0.00	0.50	0.75	0.562988	0.456543	0.855469	34.230000	133.699997	-104.580002	53.00	0.21	-0.10
1.97	12.75	12.25	2.25	6.00	0.50	0.00	0.25	0.00	0.00	0.00	0.00	0.00	0.00	0.00	0.00	0.00	-0.233398	0.074219	0.955078	2.800000	65.379997	-3.570000	377.00	-0.37	-0.05	0.00	0.00	0.00	0.00	0.00	0.25	0.25	0.50	0.00	1.00	0.75	0.00	0.00	0.00	0.50	0.50	0.612305	0.619629	2.337402	-1.400000	32.759998	-94.709999	44.00	0.00	0.00
1.98	13.25	13.00	2.00	7.00	0.50	0.00	0.25	0.00	0.00	0.00	0.00	0.00	0.00	0.00	0.00	0.00	-0.285645	0.162598	1.096191	-19.879999	35.349998	0.910000	399.00	-0.37	-0.05	2.00	1.00	1.25	1.00	1.00	1.25	0.50	1.25	1.75	2.00	2.00	0.50	0.00	0.00	0.25	1.75	0.972656	0.576660	2.206543	12.040000	-66.080002	-76.440002	206.00	-0.00	-0.05
1.99	14.25	13.00	2.75	7.50	0.75	0.50	0.25	0.00	0.00	0.00	0.00	0.00	0.00	0.00	0.00	0.00	-0.221191	0.015625	0.746582	-24.430000	21.000000	1.540000	435.00	-0.36	-0.05	0.00	0.00	0.00	0.00	1.00	1.50	0.50	1.25	1.50	2.00	2.00	1.50	1.75	1.50	0.75	0.25	0.701660	0.448730	1.506348	27.860001	-122.639999	-63.139999	184.00	0.16	-0.09
2.00	14.75	13.50	3.50	8.00	0.75	0.50	0.25	0.00	0.00	0.00	0.00	0.00	0.00	0.00	0.00	0.00	-0.215820	0.077148	0.941895	-25.270000	27.650000	-0.140000	461.00	-0.36	-0.05	2.25	0.75	1.25	1.25	1.00	1.75	0.50	1.25	1.50	2.00	1.75	1.50	1.75	1.25	1.75	1.50	0.617676	0.393555	1.002930	24.570000	-156.169998	-53.130001	264.00	0.05	-0.08
2.01	15.50	14.00	3.75	8.50	1.00	1.00	0.25	0.00	0.00	0.00	0.00	0.00	0.00	0.50	0.50	0.50	-0.276367	0.064453	0.991211	-24.990000	29.190001	-0.350000	505.00	-0.33	-0.05	0.00	0.25	1.00	1.00	1.00	1.75	0.50	1.25	1.75	2.00	1.75	1.25	1.75	1.25	1.75	1.50	0.567383	0.315918	0.765625	17.500000	-169.330002	-41.720001	228.00	0.12	-0.09
2.02	15.25	14.25	4.50	8.75	1.25	2.25	0.50	0.25	0.00	0.75	0.75	0.50	0.75	0.75	0.50	0.50	-0.258301	0.045410	0.988281	-25.549999	29.120001	-0.210000	576.00	-0.29	-0.06	2.25	1.00	1.25	1.00	1.00	1.75	0.50	1.25	1.75	2.00	1.75	1.25	1.75	1.50	1.75	1.75	0.478027	0.293945	0.698242	8.540000	-170.940002	-30.030001	268.00	0.05	-0.07
2.03	24.00	19.25	7.00	10.50	2.25	4.00	0.50	1.50	0.50	0.50	1.25	1.00	1.00	0.75	0.50	0.50	-0.268555	0.046387	1.007324	-22.750000	27.860001	-0.350000	848.00	-0.29	-0.06	2.00	1.00	1.25	1.00	1.00	1.25	0.50	1.25	1.50	1.75	1.75	1.25	1.50	1.25	1.75	1.25	0.443848	0.311035	0.777832	-4.480000	-171.710007	-18.129999	245.00	0.05	-0.07
2.04	23.75	19.50	7.50	11.00	2.25	4.75	0.50	1.50	0.25	0.75	1.25	1.25	0.75	1.00	0.75	0.50	-0.271484	0.047363	1.003906	-18.200001	25.410000	-0.070000	874.00	-0.28	-0.06	2.25	0.75	1.25	1.25	1.00	1.50	0.50	1.25	1.50	1.75	1.50	1.25	1.00	1.25	1.75	1.75	0.387207	0.343750	0.889648	-16.590000	-179.199997	-3.500000	247.00	0.04	-0.07
2.05	24.75	19.75	7.75	11.00	2.50	4.50	0.50	1.75	0.25	1.25	1.50	1.25	1.00	1.00	0.50	0.75	-0.260742	0.046387	1.002930	-13.720000	23.100000	0.350000	905.00	-0.28	-0.06	2.25	1.00	1.25	1.00	1.00	1.75	0.50	1.25	1.75	1.75	1.50	1.00	1.50	1.25	1.75	1.50	0.251465	0.332520	1.112305	-31.710001	-217.210007	31.920000	253.00	0.04	-0.07
2.06	24.75	20.00	7.75	11.50	2.50	5.25	0.75	1.75	0.75	0.75	1.50	1.25	1.25	0.75	0.50	0.75	-0.267578	0.051758	0.970215	-7.630000	19.740000	1.050000	928.00	-0.27	-0.06	1.75	0.75	1.25	1.25	0.75	1.50	0.50	1.00	1.50	1.50	1.50	1.00	1.75	1.50	1.50	1.50	0.150391	0.320801	1.168457	-37.869999	-240.100006	48.509998	233.00	0.05	-0.08
2.07	25.50	20.50	8.00	11.75	2.75	5.50	0.75	1.75	0.50	1.00	1.75	1.25	1.50	0.75	0.75	0.50	-0.265625	0.041504	0.971191	-6.930000	18.900000	1.260000	959.00	-0.27	-0.06	1.75	1.00	1.25	1.00	1.00	1.50	0.50	1.25	1.50	1.75	1.50	1.25	1.75	1.25	1.75	1.50	0.061523	0.298340	1.176270	-41.509998	-262.500000	64.400002	246.00	0.05	-0.08
2.08	25.25	20.25	8.00	11.75	2.75	5.50	0.75	1.75	0.50	0.75	1.50	1.50	1.75	1.00	0.50	0.75	-0.270996	0.044922	0.964355	-7.000000	17.850000	1.260000	954.00	-0.27	-0.07	2.25	1.25	1.00	1.25	1.00	1.75	0.50	1.25	1.50	1.50	1.50	1.00	1.75	1.25	1.75	1.50	-0.033203	0.277832	1.167969	-43.189999	-282.660004	78.540001	251.00	0.03	-0.08
2.09	25.00	20.25	8.25	12.00	2.75	5.50	0.75	0.75	0.00	0.25	0.75	0.50	0.00	0.00	0.00	0.00	-0.270996	0.046387	0.947754	-7.560000	16.309999	1.260000	872.00	-0.32	-0.05	2.50	1.00	1.25	1.25	1.25	1.50	0.50	1.25	1.25	1.50	1.50	1.00	1.25	1.25	1.50	1.25	-0.131348	0.266113	1.131348	-41.230000	-300.230011	90.580002	242.00	0.01	-0.07
2.10	17.75	15.75	6.50	10.00	2.00	4.25	0.50	0.50	0.00	0.00	1.00	1.00	0.00	0.00	0.00	0.00	-0.271973	0.048340	0.957520	-8.400000	15.260000	1.190000	673.00	-0.31	-0.06	2.00	1.00	1.25	1.00	1.00	1.50	0.50	1.25	1.50	1.50	1.25	1.00	1.50	1.25	1.75	1.50	-0.272461	0.239746	1.096680	-34.439999	-313.670013	100.309998	238.00	0.04	-0.07
2.11	17.25	15.50	6.75	10.00	1.75	4.75	0.50	0.75	0.00	0.00	1.00	0.75	0.25	0.00	0.00	0.00	-0.277832	0.044922	0.956055	-8.960000	13.790000	0.980000	674.00	-0.31	-0.07	1.75	1.00	1.25	1.25	1.00	1.50	0.50	1.25	1.50	1.50	1.50	0.75	1.75	1.25	1.50	1.50	-0.453613	0.166504	0.979004	-19.809999	-321.019989	108.639999	238.00	0.04	-0.08
2.12	16.75	15.25	6.75	10.00	2.00	4.75	0.50	0.75	0.00	0.00	1.00	0.75	0.25	0.00	0.00	0.00	-0.271484	0.040039	0.948242	-9.520000	12.320000	0.700000	669.00	-0.30	-0.07	2.50	1.00	1.25	1.00	1.00	1.50	0.50	1.25	1.50	1.25	1.25	0.75	1.75	1.25	1.75	1.50	-0.534668	0.046875	0.857422	-3.290000	-319.269989	111.650002	240.00	0.02	-0.07
2.13	16.75	15.25	6.75	10.00	2.25	5.00	0.50	1.00	0.00	0.25	1.25	1.00	1.00	0.00	0.00	0.00	-0.265137	0.034180	0.940430	-10.150000	11.270000	0.490000	695.00	-0.29	-0.08	2.50	1.00	1.25	1.25	1.00	1.75	0.50	1.25	1.50	1.50	1.25	1.25	1.25	1.25	1.75	1.25	-0.647461	-0.041992	0.801758	12.530000	-308.000000	106.750000	249.00	0.02	-0.07
2.14	17.00	15.00	6.75	10.00	2.25	5.25	0.50	1.00	0.00	0.25	1.25	1.25	0.75	0.00	0.00	0.00	-0.270996	0.043945	0.947754	-10.990000	10.570000	0.280000	699.00	-0.29	-0.08	2.25	0.75	1.25	1.25	1.00	1.50	0.50	1.25	1.50	1.50	1.25	0.75	1.75	1.25	1.75	1.50	-0.751953	-0.114746	0.810059	29.469999	-290.290009	96.389999	241.00	0.03	-0.07
2.15	17.25	15.25	7.00	10.00	2.25	5.50	0.50	1.00	0.00	0.50	1.25	1.25	1.00	0.00	0.00	0.00	-0.277344	0.041992	0.937500	-11.480000	9.870000	0.140000	715.00	-0.28	-0.08	2.00	1.00	1.25	1.25	1.00	1.75	0.50	1.25	1.25	1.50	1.25	1.00	1.50	1.00	1.75	1.50	-0.825195	-0.183105	0.904297	46.060001	-269.989990	83.019997	238.00	0.03	-0.09
2.16	16.25	14.75	7.00	10.00	2.50	5.25	0.50	1.00	0.00	0.50	1.25	1.25	1.25	0.00	0.00	0.25	-0.270996	0.040039	0.937500	-12.460000	9.310000	0.000000	703.00	-0.28	-0.08	2.50	1.00	1.25	1.25	1.00	1.75	0.50	1.25	1.25	1.25	1.25	0.75	2.00	1.00	1.75	1.25	-0.847168	-0.196777	1.048828	58.799999	-250.809998	69.160004	241.00	0.01	-0.09
2.17	16.00	14.75	7.00	9.75	2.75	5.50	0.50	1.25	0.00	0.50	1.75	1.50	1.00	0.00	0.00	0.00	-0.269043	0.037109	0.944336	-13.440001	8.890000	-0.140000	712.00	-0.27	-0.08	1.75	1.00	1.25	1.00	1.00	1.50	0.50	1.25	1.50	1.50	1.25	0.75	1.50	1.25	1.25	1.25	-0.900879	-0.145508	1.513184	64.820000	-224.630005	48.720001	225.00	0.03	-0.07
2.18	16.50	14.50	7.25	9.75	2.75	5.50	0.50	1.50	0.00	0.75	1.75	1.50	1.50	0.00	0.00	0.00	-0.275391	0.034180	0.938965	-13.930000	8.400000	-0.280000	730.00	-0.27	-0.08	2.25	0.75	1.50	1.25	1.00	1.50	0.50	1.25	1.50	1.25	1.00	0.75	1.25	1.00	1.50	1.25	-0.958984	-0.081055	1.803711	59.990002	-223.020004	43.750000	227.00	0.01	-0.07
2.19	15.75	14.25	7.25	9.75	2.75	5.50	0.75	1.50	0.00	0.75	1.75	1.75	2.75	1.00	0.75	1.00	-0.273438	0.037598	0.937988	-14.070000	7.560000	-0.210000	761.00	-0.23	-0.09	2.50	1.00	1.00	1.25	1.00	1.75	0.50	1.25	1.25	1.25	1.25	1.00	1.25	1.25	1.50	1.75	-1.026855	-0.039551	1.944824	51.029999	-229.880005	41.230000	236.00	0.02	-0.08
2.20	23.00	18.00	8.75	12.00	4.75	8.00	0.75	3.00	1.00	2.25	2.75	2.50	4.25	1.25	0.75	1.00	-0.272461	0.023438	0.934570	-14.140000	5.880000	-0.140000	1073.00	-0.22	-0.08	2.00	1.00	1.50	1.00	1.00	1.50	0.50	1.25	1.50	1.50	1.25	1.00	1.75	1.25	1.75	1.25	-1.097656	-0.009277	1.911621	40.320000	-240.240005	38.430000	242.00	0.03	-0.08
2.21	22.00	17.75	8.75	11.75	5.00	7.75	0.75	1.75	0.00	1.00	2.25	2.25	2.00	0.50	0.00	0.25	-0.272949	0.026855	0.941895	-13.720000	5.040000	-0.350000	957.00	-0.26	-0.08	2.50	1.00	1.25	1.25	1.00	1.50	0.25	1.25	1.50	1.50	1.25	1.00	1.50	1.25	1.50	1.50	-1.187012	0.042969	1.772461	33.180000	-245.979996	33.110001	240.00	0.02	-0.08
2.22	15.00	13.75	7.25	9.75	4.25	7.00	0.75	3.25	1.25	2.00	3.00	2.75	4.75	1.25	0.75	1.25	-0.273438	0.025879	0.941895	-13.090000	4.270000	-0.350000	893.00	-0.18	-0.10	1.75	1.00	1.25	1.25	1.00	1.75	0.50	1.25	1.50	1.25	1.25	1.00	1.50	1.25	1.50	1.25	-1.269043	0.111328	1.597656	32.270000	-243.180008	26.180000	234.00	0.03	-0.08
2.23	22.00	17.50	9.00	11.75	5.75	8.50	1.00	3.75	1.25	1.75	3.00	3.00	5.25	1.50	1.00	1.00	-0.273438	0.023926	0.947266	-12.600000	3.500000	-0.350000	1112.00	-0.20	-0.09	2.50	0.75	1.00	1.25	1.00	1.50	0.50	1.25	1.25	1.50	1.25	0.75	1.25	1.50	1.50	1.25	-1.349609	0.187500	1.499023	34.439999	-233.869995	19.250000	230.00	0.02	-0.07
2.24	21.50	17.50	9.00	11.75	5.75	8.50	1.00	4.00	1.25	2.00	3.25	3.25	5.50	1.50	1.00	1.25	-0.279297	0.015625	0.949707	-12.180000	3.010000	-0.210000	1123.00	-0.19	-0.09	2.00	0.75	1.25	1.00	1.00	1.50	0.50	1.25	1.50	1.25	1.25	1.00	1.25	1.25	1.75	1.50	-1.412109	0.256348	1.458984	37.660000	-222.250000	15.400000	230.00	0.04	-0.07
2.25	20.75	16.75	9.00	11.50	5.75	8.50	1.00	4.50	1.50	2.25	3.25	3.50	5.50	1.50	1.00	1.25	-0.279785	0.015625	0.945801	-11.550000	2.590000	-0.140000	1122.00	-0.18	-0.09	2.00	1.00	1.00	1.25	1.00	1.75	0.50	1.25	1.50	1.25	1.25	1.00	1.25	1.25	1.75	1.50	-1.450195	0.326172	1.501953	42.209999	-212.940002	16.030001	236.00	0.03	-0.08
2.26	20.25	16.50	9.00	11.50	6.00	8.75	1.00	4.25	1.25	2.25	3.75	3.50	5.75	1.75	1.00	1.25	-0.279785	0.016113	0.939941	-11.060000	2.030000	-0.210000	1122.00	-0.18	-0.10	2.25	1.00	1.50	1.00	1.00	1.50	0.25	1.25	1.25	1.25	1.25	1.00	1.50	1.25	1.75	1.25	-1.473145	0.367188	1.563965	47.110001	-207.970001	21.210001	232.00	0.02	-0.08
2.27	17.75	14.00	8.75	11.25	6.00	8.50	1.25	4.75	1.75	2.00	3.75	3.75	6.25	1.50	1.25	1.25	-0.280762	0.012695	0.946777	-10.640000	1.540000	-0.280000	1085.00	-0.16	-0.10	2.25	1.00	1.00	1.00	1.00	1.50	0.25	1.25	1.50	1.25	1.25	1.00	1.50	1.25	1.50	1.25	-1.488281	0.356445	1.564453	52.709999	-207.410004	29.469999	226.00	0.03	-0.08
2.28	20.75	16.50	9.00	11.50	6.25	9.00	1.25	5.25	1.50	2.25	4.00	4.00	6.25	1.75	1.50	1.50	-0.278320	0.015625	0.950195	-10.150000	1.610000	-0.140000	1179.00	-0.17	-0.10	1.75	1.00	1.50	1.25	1.00	1.50	0.25	1.25	1.25	1.25	1.00	0.50	1.25	1.00	1.50	1.50	-1.496582	0.305664	1.520996	59.220001	-209.300003	39.480000	214.00	0.01	-0.08
2.29	20.25	16.25	9.25	11.50	6.25	9.00	1.25	5.50	1.75	2.50	3.50	4.25	6.50	2.00	1.25	1.25	-0.279785	0.012695	0.941406	-9.310000	1.820000	-0.140000	1182.00	-0.17	-0.10	2.50	0.75	1.50	1.25	1.00	1.75	0.50	1.25	1.50	1.50	1.25	0.75	1.25	1.00	1.75	1.25	-1.464844	0.074219	1.289062	71.050003	-210.210007	60.060001	241.00	0.01	-0.07
2.30	19.75	16.00	9.25	11.25	6.75	9.00	1.25	5.75	2.00	2.50	4.25	4.25	6.50	1.75	1.25	1.50	-0.271973	0.011719	0.938477	-8.540000	1.820000	-0.140000	1192.00	-0.16	-0.10	2.00	1.00	1.25	1.25	1.00	1.25	0.25	1.25	1.25	1.25	1.00	1.00	1.25	1.25	1.50	1.25	-1.507324	-0.066406	1.162109	74.340004	-206.149994	68.459999	218.00	0.02	-0.08
2.31	19.25	15.75	9.25	11.25	7.00	9.00	1.50	6.00	2.25	2.75	4.50	4.75	7.50	2.00	1.50	1.50	-0.274414	0.010742	0.939941	-7.910000	1.820000	0.070000	1225.00	-0.15	-0.10	2.00	1.00	1.50	1.25	1.25	1.50	0.50	1.25	1.75	1.25	1.25	1.00	1.50	1.25	1.50	1.25	-1.510254	-0.212891	1.015625	73.919998	-199.149994	75.040001	243.00	0.02	-0.07
2.32	18.75	15.75	9.25	11.50	7.00	9.25	1.50	6.50	2.50	2.75	5.00	5.25	7.50	2.00	1.50	1.75	-0.276367	0.010254	0.934570	-7.490000	1.890000	0.140000	1250.00	-0.14	-0.11	1.75	0.75	1.00	1.25	1.00	1.50	0.50	1.25	1.25	1.25	1.00	1.00	1.50	1.25	1.75	1.50	-1.522949	-0.326660	0.841797	64.540001	-188.509995	77.139999	223.00	0.04	-0.09
2.33	18.75	15.50	9.25	11.25	7.25	9.50	1.50	7.00	2.50	2.75	5.25	5.75	7.75	2.25	1.50	1.75	-0.268555	0.010742	0.943359	-7.070000	1.820000	0.140000	1272.00	-0.13	-0.11	2.25	0.75	1.50	1.25	1.00	1.25	0.50	1.25	1.50	1.25	1.00	0.75	1.50	1.00	1.50	1.25	-1.536133	-0.380371	0.661133	45.290001	-174.229996	74.059998	226.00	0.01	-0.07
2.34	18.25	15.25	9.25	11.00	7.50	9.50	1.75	7.00	2.50	3.00	5.75	6.00	8.25	2.25	1.75	1.75	-0.278809	0.006836	0.940430	-6.790000	2.030000	0.140000	1287.00	-0.13	-0.11	1.50	0.75	1.00	1.25	1.00	1.75	0.50	1.25	1.50	1.00	1.25	0.75	1.50	1.25	1.50	1.75	-1.544434	-0.379883	0.518066	21.350000	-157.850006	66.010002	223.00	0.04	-0.09
2.35	18.00	14.75	9.25	11.00	7.50	9.50	2.00	7.50	2.75	3.00	6.25	6.25	8.75	2.50	1.50	2.00	-0.274902	0.008301	0.937012	-6.090000	2.660000	0.210000	1310.00	-0.12	-0.11	2.00	0.75	1.50	1.25	1.00	1.50	0.50	1.25	1.50	1.25	1.00	0.75	1.25	1.25	1.75	1.25	-1.551758	-0.347168	0.386719	2.310000	-140.630005	54.529999	229.00	0.02	-0.07
2.36	17.25	14.50	9.25	10.75	7.50	9.75	2.00	7.50	2.75	3.25	7.00	7.00	8.75	2.50	1.50	2.25	-0.268555	0.005859	0.946777	-5.670000	2.870000	0.210000	1320.00	-0.11	-0.11	2.00	0.75	1.00	1.00	1.00	1.75	0.50	1.25	1.50	1.25	1.00	0.75	1.50	1.25	1.75	1.50	-1.565918	-0.317383	0.221191	-3.850000	-122.360001	41.580002	227.00	0.04	-0.08
2.37	16.50	14.00	9.25	10.75	7.75	9.75	2.25	7.75	3.00	3.50	7.50	7.25	9.25	2.75	1.75	2.00	-0.271973	0.005371	0.941895	-5.530000	3.080000	0.140000	1341.00	-0.10	-0.11	1.50	1.00	1.00	1.25	1.00	1.75	0.50	1.25	1.50	1.25	1.00	0.50	1.00	1.25	1.75	1.00	-1.600098	-0.315918	0.007812	3.710000	-100.239998	27.650000	216.00	0.03	-0.07
2.38	15.75	13.50	9.00	10.50	7.75	9.75	2.25	7.75	3.25	3.25	7.75	7.50	9.50	3.00	1.75	2.25	-0.272949	0.006348	0.941406	-5.460000	3.360000	0.000000	1335.00	-0.09	-0.11	1.75	1.00	1.25	1.00	1.00	1.75	0.25	1.25	1.25	1.25	1.00	1.00	1.50	1.25	1.50	1.50	-1.645996	-0.337402	-0.164062	20.230000	-72.449997	12.670000	222.00	0.03	-0.09
2.39	14.50	12.75	9.00	10.25	8.00	9.75	2.75	8.00	3.75	3.75	8.00	8.00	9.75	3.00	1.75	2.50	-0.268555	0.008301	0.935059	-5.530000	3.780000	-0.070000	1351.00	-0.08	-0.11	1.75	1.00	1.25	1.25	0.75	1.75	0.50	1.00	1.00	1.25	1.25	0.75	1.25	1.25	1.50	1.50	-1.662109	-0.354492	-0.161133	37.799999	-42.139999	-3.080000	216.00	0.02	-0.08
2.40	14.25	12.00	8.75	10.00	7.75	9.75	2.75	8.00	4.00	4.25	8.25	8.00	10.00	3.00	2.00	2.75	-0.268555	0.007812	0.937988	-5.530000	4.060000	-0.280000	1350.00	-0.07	-0.11	2.25	1.00	1.50	1.25	1.00	1.75	0.50	1.25	1.25	1.25	1.25	0.75	1.25	1.50	1.75	1.25	-1.637695	-0.370117	-0.062012	49.630001	-14.630000	-17.010000	239.00	0.02	-0.07
2.41	13.25	11.50	8.75	10.00	8.00	10.00	3.00	8.25	4.00	4.25	8.50	8.25	10.25	3.50	2.00	3.00	-0.272461	-0.000977	0.940430	-5.950000	4.550000	-0.490000	1362.00	-0.06	-0.11	1.75	1.00	1.25	1.25	1.00	1.50	0.50	1.25	1.25	1.25	1.25	1.00	1.25	1.25	1.75	1.25	-1.547852	-0.390137	0.230957	48.020000	25.480000	-32.410000	228.00	0.03	-0.08
2.42	12.25	10.50	8.50	9.50	8.00	9.75	3.50	8.25	4.75	4.50	8.75	8.50	10.50	3.75	2.25	3.25	-0.263672	0.009277	0.943848	-6.300000	5.040000	-0.700000	1365.00	-0.05	-0.11	2.00	0.75	1.25	1.00	1.00	1.50	0.50	1.25	1.25	1.25	1.00	1.00	1.25	1.00	1.75	1.25	-1.487793	-0.396973	0.296875	34.090000	41.509998	-33.740002	220.00	0.03	-0.08
2.43	11.50	9.75	8.25	9.25	8.00	9.75	3.75	8.25	5.00	5.00	9.25	8.50	10.50	4.25	2.75	3.25	-0.274902	0.005371	0.934570	-6.580000	5.530000	-0.840000	1373.00	-0.04	-0.11	1.75	1.00	1.25	1.00	1.00	1.25	0.50	1.25	1.25	1.00	1.00	0.75	1.00	1.00	1.50	1.75	-1.442871	-0.366211	0.364746	14.560000	57.540001	-32.410000	209.00	0.02	-0.08
2.44	10.50	9.00	8.00	9.00	8.00	9.50	4.00	8.50	5.25	5.00	9.50	9.00	10.75	4.50	2.50	3.50	-0.273438	0.002441	0.939941	-6.790000	5.810000	-1.050000	1369.00	-0.03	-0.11	0.25	0.00	0.00	0.00	0.25	0.00	0.25	1.00	1.25	1.00	1.25	0.75	0.75	1.25	1.75	1.25	0.230957	-0.231934	0.801758	-24.290001	167.300003	-13.160000	125.00	0.22	-0.07
2.45	9.50	8.25	8.00	8.75	8.00	9.75	4.50	8.50	5.75	6.00	9.75	9.25	11.00	4.75	2.75	3.75	-0.272949	0.000000	0.940918	-6.580000	6.090000	-1.050000	1391.00	-0.01	-0.11	3.50	1.75	1.75	1.25	1.00	1.75	0.50	1.00	0.00	0.00	0.00	0.00	1.25	1.00	1.50	1.25	0.644043	0.531738	0.750977	-20.580000	134.050003	-17.570000	197.00	-0.11	-0.09
2.46	9.00	7.75	7.50	8.25	7.75	9.50	4.75	8.50	6.75	6.50	10.25	9.50	11.00	5.00	3.00	4.25	-0.365723	-0.041016	0.928711	-5.950000	7.000000	-1.120000	1403.00	0.00	-0.10	3.50	2.25	1.50	1.50	1.25	1.50	0.25	1.25	1.00	0.75	0.75	1.00	1.00	1.00	1.50	1.25	0.096680	-0.131836	0.683105	-12.530000	114.169998	-26.670000	243.00	-0.06	-0.08
2.47	8.00	7.25	7.50	8.00	7.75	9.50	5.00	8.50	7.00	7.50	10.50	9.75	11.50	5.50	3.00	4.50	-0.433594	-0.051270	0.923340	-5.530000	7.490000	-1.120000	1420.00	0.01	-0.10	4.50	2.75	1.75	1.50	1.25	1.50	0.25	1.00	1.25	0.75	0.75	0.75	1.50	0.75	1.25	1.25	-0.115723	-0.057617	0.572754	-43.680000	133.490005	-39.900002	258.00	-0.09	-0.07
2.48	7.25	6.50	7.00	7.50	7.50	9.25	5.00	8.50	7.50	7.75	10.75	9.75	11.50	5.75	3.25	5.00	-0.054688	-0.014648	0.962891	-5.040000	7.560000	-1.190000	1406.00	0.02	-0.10	5.25	3.75	2.50	2.00	1.00	1.50	0.25	1.25	1.00	0.50	0.75	0.50	1.25	0.75	1.25	0.00	-0.102539	0.187500	0.787598	-63.000000	155.539993	-47.529999	274.00	-0.15	-0.06
2.49	6.75	6.25	6.75	7.25	7.25	9.25	5.25	8.50	8.00	8.00	11.25	10.25	12.00	6.00	3.50	5.00	-0.307129	-0.013672	0.936035	-4.480000	9.380000	-0.700000	1425.00	0.03	-0.10	4.50	3.00	0.00	0.25	0.25	0.00	0.00	0.00	0.00	0.00	0.25	1.00	0.75	0.75	1.50	1.25	-0.132324	0.380859	0.949219	-60.340000	162.119995	-41.790001	140.00	-0.13	-0.07
2.50	6.00	5.75	6.25	6.50	6.75	9.00	5.25	8.50	8.25	8.25	11.75	10.50	12.25	6.25	3.50	5.25	-0.303711	-0.002441	0.941406	-3.150000	12.740000	-1.400000	1408.00	0.05	-0.10	6.50	6.50	1.75	2.25	1.00	1.25	0.25	1.00	0.75	0.75	0.75	0.75	1.00	0.75	1.50	1.25	-0.183594	0.265137	0.982910	-50.400002	160.160004	-33.040001	312.00	-0.16	-0.07
2.51	5.50	5.25	5.75	6.00	6.25	8.50	5.50	8.50	8.50	8.50	12.00	11.00	12.50	6.75	4.00	5.75	-0.388184	0.002441	0.962402	-3.500000	13.930000	-2.240000	1408.00	0.06	-0.10	8.50	7.75	1.75	2.75	0.75	1.25	0.25	1.00	0.75	0.75	0.50	0.75	1.00	0.75	1.50	1.00	-0.356934	0.201660	1.097168	-54.950001	158.270004	-30.240000	346.00	-0.20	-0.07
2.52	5.25	5.00	5.25	5.50	5.75	8.25	5.75	8.50	9.00	8.75	12.25	11.00	12.50	7.25	4.75	6.00	-0.263184	0.009277	0.948730	-3.990000	15.960000	-1.750000	1414.00	0.07	-0.10	8.00	7.50	0.00	1.25	0.00	0.00	0.00	0.00	0.00	0.00	0.00	0.00	0.00	0.00	0.00	0.00	-1.033203	0.020508	1.799316	-62.230000	162.399994	-23.240000	181.00	-0.40	-0.03
2.53	4.00	4.25	4.50	5.00	5.25	7.75	5.75	8.25	9.50	9.25	12.75	11.25	12.50	7.50	4.50	6.25	-0.283203	0.002930	0.943359	-4.340000	18.270000	-2.030000	1383.00	0.09	-0.10	11.75	11.00	1.00	2.50	0.00	0.00	0.00	0.00	0.00	0.00	0.00	0.00	0.00	0.00	0.00	0.00	-0.666504	-0.071289	1.803711	-12.950000	176.820007	-9.660000	286.00	-0.39	-0.03
2.54	3.75	3.75	4.00	4.50	4.25	7.50	6.00	8.25	10.00	9.50	13.00	11.50	12.75	7.75	5.00	6.25	-0.293945	0.024902	0.942871	-4.830000	20.860001	-2.590000	1379.00	0.10	-0.09	16.00	14.25	1.00	4.00	0.50	0.00	0.00	0.00	0.00	0.00	0.00	0.00	0.00	0.00	0.00	0.00	-0.620605	-0.047852	2.212891	12.250000	162.889999	-8.330000	391.00	-0.39	-0.03
2.55	0.00	0.25	0.50	1.50	2.75	5.00	6.00	7.25	9.25	9.25	12.25	10.75	11.50	7.25	4.00	6.00	-0.284180	-0.064941	0.943359	-5.110000	24.430000	-3.570000	1098.00	0.16	-0.10	18.75	15.75	2.25	5.00	0.50	0.25	0.00	0.25	0.00	0.00	0.00	0.00	0.00	0.00	0.00	0.00	-0.363281	0.194824	1.589844	8.190000	127.540001	-12.320000	471.00	-0.38	-0.03
2.56	0.00	0.00	0.50	0.50	2.00	4.50	6.25	6.75	9.75	9.50	12.50	11.00	11.50	7.50	5.75	6.75	-0.275879	0.006348	0.938477	-4.970000	28.630001	-4.620000	1107.00	0.18	-0.09	19.75	16.50	2.50	5.50	0.50	0.50	0.00	0.25	0.00	0.00	0.00	0.00	0.00	0.00	0.00	0.00	-0.259277	0.254395	1.091797	2.380000	104.790001	-8.960000	502.00	-0.37	-0.04
2.57	2.25	2.50	2.00	2.50	2.25	5.50	6.50	7.50	11.00	9.75	13.50	12.00	12.75	8.75	6.00	6.75	-0.293457	0.010742	0.937012	-4.340000	32.619999	-4.760000	1301.00	0.14	-0.09	20.50	17.50	3.25	5.50	0.75	1.00	0.00	0.25	0.00	0.00	0.00	0.00	0.00	0.00	0.00	0.25	-0.165527	0.015625	2.348633	-0.630000	98.769997	-4.410000	540.00	-0.37	-0.04
2.58	1.25	2.25	1.75	2.25	1.50	2.50	6.25	6.25	10.50	10.00	13.00	11.25	11.50	7.75	5.00	6.50	-0.298828	-0.003906	0.937012	-3.150000	36.540001	-3.920000	1159.00	0.16	-0.08	21.00	17.50	3.25	7.00	1.00	1.00	0.00	0.50	0.00	0.00	0.25	0.25	0.00	0.00	0.25	0.00	-0.315918	0.062012	1.206055	-16.100000	63.070000	-0.770000	578.00	-0.35	-0.04
2.59	0.00	0.00	0.75	2.75	1.75	4.00	6.50	6.25	12.50	11.00	14.25	11.25	11.50	8.00	5.00	6.75	-0.298828	0.013184	0.951660	-1.680000	41.580002	-2.730000	1199.00	0.18	-0.07	21.50	17.75	3.75	7.25	1.25	1.25	0.00	0.50	0.00	0.00	0.25	0.25	0.00	0.00	0.25	0.25	-0.193848	0.035156	0.754395	-26.460001	44.590000	-3.500000	603.00	-0.35	-0.04
2.60	0.00	0.00	0.50	1.00	0.75	1.25	6.50	5.25	11.25	10.25	13.25	11.50	11.50	8.25	5.00	6.75	-0.322266	-0.010254	0.930176	-0.140000	49.770000	-2.940000	1081.00	0.20	-0.07	22.25	18.50	4.75	8.00	1.25	1.50	0.25	0.50	0.00	0.25	0.50	0.50	0.00	0.00	0.25	0.25	-0.215820	0.164551	0.939941	-33.320000	49.349998	-5.530000	656.00	-0.34	-0.04
2.61	0.00	0.00	0.75	0.00	0.50	1.00	6.50	5.25	13.25	10.50	13.50	12.50	12.25	8.75	6.00	6.75	-0.335449	-0.005859	0.933105	0.910000	58.799999	-2.100000	1135.00	0.21	-0.06	23.50	19.50	5.00	8.50	1.50	1.75	0.25	0.50	0.00	0.25	0.75	0.50	0.00	0.00	0.75	0.50	-0.285156	0.117188	1.057129	-37.520000	49.420002	-4.830000	705.00	-0.33	-0.05
2.62	0.00	0.00	0.00	0.00	0.50	0.50	6.50	4.25	11.75	10.75	13.50	11.50	11.25	8.50	5.50	6.75	-0.329102	0.014648	0.942383	1.680000	68.250000	-1.750000	1055.00	0.22	-0.06	24.00	20.00	5.50	9.25	2.00	2.00	0.25	0.50	0.00	0.50	0.75	0.50	0.00	0.25	0.25	0.25	-0.274902	0.080078	1.101562	-29.680000	40.250000	-4.550000	738.00	-0.33	-0.04
2.63	0.00	0.00	0.00	0.00	0.25	0.00	6.25	3.25	12.00	11.00	13.75	11.50	11.00	9.00	5.75	7.25	-0.333496	-0.000977	0.942383	2.520000	80.150002	-1.960000	1043.00	0.23	-0.05	25.50	21.25	5.75	9.75	2.00	2.25	0.25	0.50	0.00	0.50	1.00	1.00	0.00	0.50	0.25	0.50	-0.273926	0.108398	0.995117	-24.920000	29.680000	-4.760000	792.00	-0.32	-0.05
2.64	0.00	0.00	0.00	0.00	0.25	0.25	6.25	3.25	12.25	10.75	13.50	11.50	10.75	9.00	5.50	7.00	-0.346191	-0.007324	0.954102	2.520000	95.550003	-1.960000	1037.00	0.23	-0.05	27.00	22.00	6.50	10.00	2.25	2.50	0.50	0.50	0.75	0.50	0.75	0.75	0.00	0.75	0.25	0.50	-0.266602	0.115723	0.986328	-28.139999	25.340000	-4.270000	846.00	-0.31	-0.04
2.65	0.00	0.00	0.00	0.00	0.50	0.00	6.25	4.25	14.25	11.75	15.00	12.25	11.75	10.00	6.75	7.00	-0.458984	0.017090	0.895996	0.770000	133.630005	-1.260000	1153.00	0.23	-0.05	27.75	23.00	7.25	10.50	2.50	2.50	0.50	0.50	0.75	0.75	1.25	1.00	0.25	0.75	0.50	0.50	-0.264160	0.086914	0.963379	-30.520000	17.570000	-3.920000	899.00	-0.30	-0.04
2.66	0.00	0.00	0.00	0.00	0.25	0.00	6.00	2.00	12.25	11.00	13.75	11.25	10.25	9.25	5.75	7.00	-0.455566	0.016602	0.891602	-3.360000	156.309998	-1.120000	1013.00	0.24	-0.04	28.75	23.75	7.75	11.00	2.75	2.75	0.50	0.75	0.50	0.75	1.25	1.00	0.00	1.00	0.75	0.50	-0.266113	0.084473	0.964355	-28.700001	14.070000	-3.500000	940.00	-0.30	-0.04
2.67	0.00	0.00	0.00	0.00	0.00	0.00	5.75	2.25	12.50	11.00	13.75	11.00	10.00	9.25	5.75	7.00	-0.466309	0.011719	0.936035	-7.630000	183.119995	-0.560000	1008.00	0.24	-0.04	30.00	24.00	8.50	11.50	3.25	3.00	0.50	0.75	0.75	1.00	1.50	1.00	0.50	1.00	0.75	0.75	-0.273926	0.082520	0.972656	-26.670000	11.340000	-3.220000	996.00	-0.29	-0.04
2.68	0.00	0.00	0.00	0.00	0.25	0.00	5.50	1.75	12.75	10.75	13.75	11.00	9.50	9.50	6.00	7.00	-0.509277	-0.031250	0.995605	-12.670000	207.270004	-0.420000	1000.00	0.24	-0.03	31.00	25.00	9.00	12.00	3.50	3.00	0.75	0.75	1.00	1.25	1.50	1.25	0.50	1.25	1.00	0.75	-0.261719	0.074219	0.966797	-24.290001	9.170000	-2.870000	1051.00	-0.29	-0.04
2.69	0.00	0.00	0.00	0.00	0.50	0.25	5.25	1.75	12.75	11.00	13.75	10.75	9.00	9.25	6.00	7.00	-0.544434	-0.003906	0.971191	-15.820000	227.639999	-0.140000	995.00	0.24	-0.03	31.25	24.75	9.50	12.00	4.00	3.25	0.75	0.75	1.25	1.00	1.50	1.50	0.25	1.25	0.75	0.75	-0.272949	0.071777	0.962891	-21.420000	7.140000	-2.590000	1065.00	-0.29	-0.03
2.70	0.00	0.00	0.00	0.00	0.75	1.25	5.25	2.25	13.75	11.50	14.50	10.50	8.25	9.50	6.50	6.75	-0.538086	0.015137	1.033691	-20.160000	249.339996	-0.770000	1043.00	0.23	-0.03	31.25	25.25	10.00	12.50	4.50	3.50	0.75	0.75	1.25	1.25	1.50	1.50	0.75	1.25	1.00	0.50	-0.264648	0.069824	0.964844	-18.059999	5.320000	-2.100000	1100.00	-0.28	-0.04
2.71	0.25	0.00	0.00	0.00	0.75	0.75	5.00	0.50	12.50	11.00	14.00	10.50	8.25	9.75	6.50	7.00	-0.636719	0.020508	0.991699	-23.100000	267.890015	-3.010000	981.00	0.24	-0.02	31.00	25.00	9.75	12.25	5.00	3.50	0.75	0.75	1.25	1.25	1.75	1.50	0.75	1.25	1.25	0.75	-0.271484	0.073730	0.947754	-15.190001	3.990000	-1.750000	1102.00	-0.28	-0.04
2.72	0.00	0.00	0.00	0.00	0.25	0.00	4.50	0.50	11.25	10.25	13.00	9.50	7.00	9.25	6.75	7.25	-0.654785	0.017090	1.023926	-26.809999	283.850006	-7.560000	894.00	0.25	-0.02	31.25	24.75	10.00	13.00	5.00	3.50	1.00	0.75	1.50	1.00	1.75	1.75	0.50	1.50	1.00	0.75	-0.268066	0.066895	0.946777	-12.950000	3.290000	-1.470000	1119.00	-0.27	-0.04
2.73	0.25	0.50	0.75	0.75	0.75	1.00	4.00	1.25	11.75	10.50	13.25	9.75	7.50	10.00	7.50	7.25	-0.713867	0.003418	1.061035	-26.040001	296.589996	-12.880000	978.00	0.23	-0.03	30.75	24.50	10.75	12.75	5.25	3.75	1.00	0.75	1.50	1.50	2.00	1.25	0.75	1.75	1.00	1.00	-0.261230	0.067871	0.949707	-10.920000	2.730000	-1.120000	1132.00	-0.27	-0.03
2.74	0.75	0.00	0.75	0.00	0.75	0.75	3.25	1.00	10.50	9.75	12.25	9.25	7.25	10.00	7.25	7.25	-0.812500	0.107910	1.233887	-17.219999	305.619995	-16.240000	901.00	0.24	-0.03	30.25	24.50	10.50	12.50	5.50	3.75	1.00	0.75	1.75	1.50	1.75	1.50	0.75	1.75	1.25	1.00	-0.263672	0.065430	0.945801	-9.800000	2.450000	-0.840000	1130.00	-0.26	-0.03
2.75	0.50	0.75	0.50	0.75	0.75	0.75	2.75	1.25	9.00	9.00	11.25	8.75	6.75	9.50	7.50	7.00	-0.978027	0.149902	1.320801	-4.270000	318.010010	-18.690001	853.00	0.23	-0.04	30.50	23.75	11.25	12.50	5.75	3.75	1.00	0.75	2.00	1.50	1.75	1.50	1.00	1.50	1.25	0.75	-0.257812	0.069336	0.936035	-9.170000	2.100000	-0.630000	1139.00	-0.26	-0.03
2.76	1.00	0.50	0.50	1.00	0.75	1.50	2.50	1.00	8.00	8.25	10.50	8.00	6.25	9.50	7.50	6.50	-1.346191	0.029785	1.851562	9.730000	330.399994	-11.480000	812.00	0.22	-0.05	29.50	23.50	10.75	12.75	6.00	4.00	1.25	1.00	2.00	1.50	1.75	1.75	0.75	1.75	1.25	1.00	-0.265625	0.063477	0.941406	-8.750000	1.890000	-0.770000	1141.00	-0.25	-0.03
2.77	0.75	0.50	1.75	1.00	0.75	0.75	2.00	1.25	7.25	7.75	9.50	7.50	5.50	9.00	7.25	6.00	-1.543457	0.034180	1.883789	24.990000	344.399994	0.700000	760.00	0.22	-0.04	29.00	23.25	10.75	12.50	6.00	4.25	1.25	1.00	2.00	1.50	1.75	1.75	1.25	1.75	1.25	1.00	-0.263672	0.062988	0.948242	-8.260000	1.470000	-0.840000	1137.00	-0.25	-0.04
2.78	0.50	0.25	0.75	0.75	0.75	1.25	1.75	1.00	6.25	6.75	8.75	7.25	5.00	8.25	7.00	5.50	-1.359375	0.150879	1.666016	43.400002	354.690002	9.380000	682.00	0.23	-0.05	28.75	22.50	11.25	12.50	6.25	4.25	1.25	0.75	2.25	1.50	2.00	1.50	1.00	1.75	1.50	1.00	-0.264648	0.062500	0.941406	-8.050000	1.680000	-0.910000	1136.00	-0.25	-0.03
2.79	0.00	0.00	0.25	0.00	0.25	0.00	1.00	0.00	3.75	5.50	7.75	5.50	1.25	6.75	6.00	4.75	-1.270508	0.204102	1.440918	60.760002	355.670013	11.130000	462.00	0.28	-0.03	28.25	22.00	11.00	12.25	6.50	4.25	1.25	1.00	2.25	1.75	2.00	1.75	1.25	2.25	1.25	0.75	-0.252930	0.054199	0.938965	-7.560000	1.540000	-0.770000	1135.00	-0.24	-0.03
2.80	0.25	0.00	0.00	0.00	0.00	0.00	0.75	0.00	3.25	5.00	7.50	5.25	1.00	6.00	5.50	3.50	-1.723145	0.321777	1.800781	100.099998	342.369995	8.540000	414.00	0.28	-0.03	27.00	21.75	11.25	12.00	6.75	4.50	1.50	1.00	2.25	1.75	2.00	2.00	1.50	2.00	1.25	1.00	-0.254883	0.052734	0.939941	-7.280000	1.470000	-0.770000	1133.00	-0.24	-0.03
2.81	0.00	0.00	0.00	0.00	0.00	0.00	0.75	0.00	3.00	4.75	6.75	4.75	0.25	5.00	4.75	3.75	-1.375000	0.121094	1.800293	118.160004	326.899994	2.940000	367.00	0.28	-0.03	27.25	21.25	11.25	12.00	6.75	4.00	1.50	1.00	2.50	2.00	2.25	2.00	1.25	2.25	1.50	1.25	-0.257324	0.060059	0.939453	-7.140000	1.330000	-0.910000	1138.00	-0.23	-0.03
2.82	0.00	0.00	0.00	0.00	0.00	0.00	0.50	0.00	1.00	4.00	5.25	3.75	0.00	3.00	3.25	1.50	-1.052246	-0.044922	1.912598	123.059998	303.239990	-8.680000	245.00	0.28	-0.05	26.25	20.75	11.00	11.75	7.25	4.50	1.75	0.75	2.75	1.75	2.50	1.75	1.50	2.25	1.75	1.25	-0.257812	0.053711	0.930664	-6.930000	1.330000	-0.980000	1133.00	-0.22	-0.03
2.83	0.00	0.00	0.00	0.00	0.00	0.00	0.50	0.00	0.50	3.00	4.25	2.75	0.00	1.75	2.00	0.75	-0.710938	0.042480	1.888672	126.419998	275.100006	-24.290001	174.00	0.26	-0.05	26.00	20.00	11.00	11.75	7.25	4.75	2.00	1.00	2.75	1.75	2.25	2.00	1.75	2.50	1.75	1.00	-0.261719	0.054199	0.938965	-6.720000	1.050000	-0.910000	1138.00	-0.22	-0.03
2.84	0.00	0.00	0.00	0.00	0.00	0.00	0.50	0.00	0.00	2.75	3.75	2.00	0.00	1.00	1.00	0.00	-0.332520	0.000000	1.763672	128.800003	244.930008	-38.360001	126.00	0.25	-0.06	25.50	19.50	10.75	11.50	7.50	4.75	2.00	1.00	3.25	2.00	2.25	2.25	1.75	2.25	1.50	1.25	-0.260742	0.062988	0.937988	-6.580000	1.260000	-0.980000	1133.00	-0.21	-0.03
2.85	0.00	0.00	0.00	0.00	0.00	0.00	0.50	0.00	0.00	2.00	2.50	1.75	0.00	0.25	0.00	0.00	0.028320	-0.015625	1.572266	126.489998	215.600006	-51.869999	82.00	0.22	-0.07	24.50	19.00	11.25	11.25	7.50	4.75	2.25	1.00	3.25	2.00	2.50	2.25	1.75	2.75	1.75	1.25	-0.263184	0.054688	0.941895	-6.370000	1.400000	-0.910000	1134.00	-0.20	-0.03
2.86	0.00	0.00	0.00	0.00	0.00	0.00	0.50	0.00	0.00	1.25	1.75	0.75	0.00	0.00	0.00	0.00	0.394043	-0.095215	1.433594	121.099998	191.449997	-66.010002	51.00	0.20	-0.04	24.25	18.50	11.25	11.00	7.75	5.00	2.50	1.00	3.75	2.00	2.75	2.25	1.75	3.00	2.00	1.25	-0.256836	0.053711	0.934082	-6.160000	1.120000	-0.770000	1149.00	-0.19	-0.02
2.87	0.00	0.00	0.00	0.00	0.00	0.00	0.50	0.00	0.00	0.75	1.50	0.25	0.00	0.00	0.25	0.00	0.877441	-0.582520	1.122559	119.559998	177.240005	-82.809998	40.00	0.00	0.00	23.50	18.25	11.50	11.00	7.75	5.00	2.50	1.00	4.00	2.25	2.75	2.75	1.75	3.00	1.75	1.50	-0.260742	0.055664	0.940918	-5.950000	1.050000	-0.840000	1152.00	-0.19	-0.02
2.88	0.00	0.00	0.00	0.00	0.00	0.00	0.50	0.00	0.00	0.25	1.00	0.00	0.00	0.00	0.00	0.00	-0.136719	0.302246	1.997070	58.799999	189.770004	-103.599998	23.00	0.00	0.00	22.75	17.50	11.00	10.75	8.00	5.00	2.75	1.25	4.25	2.25	3.00	2.75	2.25	3.00	2.00	1.00	-0.260742	0.052734	0.944336	-5.600000	0.770000	-0.840000	1149.00	-0.18	-0.03
2.89	0.00	0.00	0.00	0.00	0.00	0.00	0.50	0.00	0.00	0.00	1.00	0.00	0.00	0.00	0.00	0.00	0.511719	-0.114746	2.021484	3.080000	92.750000	-109.340004	20.00	0.00	0.00	25.00	16.00	11.25	10.50	8.25	5.25	3.00	1.25	4.75	2.25	3.25	2.50	2.00	3.25	2.00	2.00	-0.254883	0.058594	0.928223	-5.530000	0.420000	-0.980000	1182.00	-0.17	-0.02
2.90	0.00	0.00	0.00	0.00	0.00	0.00	0.50	0.00	0.00	0.25	0.50	0.00	0.00	0.00	0.00	0.00	0.790527	0.267578	2.287598	-2.940000	-16.870001	-102.830002	17.00	0.00	0.00	26.50	18.50	11.00	12.00	9.25	6.00	3.25	1.25	5.00	3.00	4.25	4.00	3.75	3.50	3.50	2.25	-0.265625	0.047852	0.935059	-5.460000	0.560000	-0.980000	1343.00	-0.16	-0.03
2.91	0.00	0.00	0.00	0.00	0.00	0.00	0.50	0.00	0.00	0.00	1.00	0.00	0.00	0.00	0.00	0.00	0.534668	0.252441	1.786621	-3.010000	-93.800003	-93.169998	20.00	0.00	0.00	28.75	20.75	13.75	12.75	9.75	6.75	4.00	2.00	5.00	3.00	4.50	4.25	4.25	4.75	3.50	1.75	-0.263184	0.049316	0.941895	-5.600000	0.350000	-0.910000	1492.00	-0.16	-0.03
2.92	0.00	0.00	0.00	0.00	0.00	0.00	0.25	0.00	0.00	0.25	0.50	0.00	0.00	0.00	0.00	0.00	0.452637	0.325684	1.409668	0.280000	-149.520004	-81.690002	13.00	0.00	0.00	28.00	20.25	13.50	12.75	10.00	7.00	4.00	2.25	7.00	3.50	4.75	4.25	4.25	5.00	3.75	2.50	-0.254883	0.047852	0.927734	-5.530000	0.560000	-0.840000	1533.00	-0.14	-0.03
2.93	0.00	0.00	0.00	0.00	0.00	0.00	0.50	0.00	0.00	0.00	0.50	0.00	0.00	0.00	0.00	0.00	0.396973	0.326172	1.014648	5.320000	-180.809998	-69.300003	14.00	0.00	0.00	27.75	20.00	14.00	13.00	9.50	7.00	4.00	2.25	7.00	4.00	5.25	4.25	4.25	5.25	4.00	2.50	-0.259277	0.050781	0.933105	-5.320000	0.700000	-0.910000	1547.00	-0.14	-0.03
2.94	0.00	0.00	0.00	0.00	0.00	0.00	0.50	0.00	0.00	0.00	0.25	0.00	0.00	0.00	0.00	0.00	0.344238	0.355469	0.810547	11.200000	-195.720001	-54.810001	11.00	0.00	0.00	27.00	19.00	13.75	12.75	10.50	7.25	4.50	2.25	7.50	4.00	5.75	4.75	4.75	5.50	3.75	2.50	-0.257324	0.052246	0.933594	-5.180000	1.050000	-0.980000	1568.00	-0.13	-0.03
2.95	0.00	0.00	0.00	0.00	0.00	0.00	0.50	0.00	0.00	0.00	0.00	0.00	0.00	0.00	0.00	0.00	0.245117	0.360840	0.704102	2.660000	-205.660004	-21.629999	8.00	0.00	0.00	26.25	17.75	13.75	12.50	10.50	7.50	4.75	2.50	7.75	4.00	6.25	4.75	4.75	5.50	4.00	2.75	-0.254883	0.050781	0.929688	-5.040000	1.190000	-1.050000	1569.00	-0.12	-0.03
2.96	0.00	0.00	0.00	0.00	0.00	0.00	0.50	0.00	0.00	0.00	0.25	0.00	0.00	0.00	0.00	0.00	0.175293	0.337891	0.747070	-12.740000	-212.100006	-3.010000	11.00	0.00	0.00	25.50	16.75	13.25	11.75	10.75	7.50	5.00	2.75	8.00	3.25	5.75	5.00	5.00	5.75	4.25	2.75	-0.255371	0.050293	0.937988	-5.040000	1.540000	-1.050000	1547.00	-0.11	-0.03
2.97	0.00	0.00	0.00	0.00	0.00	0.00	0.50	0.00	0.00	0.00	0.00	0.00	0.00	0.00	0.00	0.00	0.113281	0.331055	0.805664	-33.320000	-221.479996	15.680000	8.00	0.00	0.00	24.50	15.50	13.50	11.75	11.00	7.50	5.25	2.75	8.25	4.25	7.50	5.25	5.25	6.25	4.00	3.50	-0.257324	0.052246	0.931152	-5.250000	1.820000	-1.190000	1579.00	-0.10	-0.03
2.98	0.00	0.00	0.00	0.00	0.00	0.00	0.50	0.00	0.00	0.00	0.00	0.00	0.00	0.00	0.00	0.00	0.038086	0.347168	0.859863	-53.970001	-232.540009	33.459999	8.00	0.00	0.00	23.00	14.50	13.50	11.50	11.25	7.75	5.25	2.75	8.50	4.50	7.75	6.00	4.50	6.00	4.75	3.25	-0.252930	0.048828	0.940430	-5.460000	2.100000	-1.190000	1571.00	-0.09	-0.03
2.99	0.00	0.00	0.00	0.00	0.00	0.00	0.50	0.00	0.00	0.00	0.00	0.00	0.00	0.00	0.00	0.00	-0.035156	0.365723	0.915527	-68.180000	-244.580002	49.209999	8.00	0.00	0.00	18.25	11.00	13.25	11.25	11.25	7.75	5.50	2.75	9.00	5.25	8.00	6.25	5.00	6.50	4.75	3.50	-0.252930	0.053223	0.932617	-5.390000	2.450000	-1.260000	1512.00	-0.06	-0.03
3.00	0.00	0.00	0.00	0.00	0.00	0.00	0.50	0.00	0.00	0.00	0.00	0.00	0.00	0.00	0.00	0.00	-0.095215	0.362305	0.972656	-72.309998	-257.670013	62.160000	8.00	0.00	0.00	21.25	12.25	13.00	10.75	11.25	7.50	5.50	3.00	9.25	5.75	8.25	7.00	5.50	7.00	5.00	3.25	-0.250488	0.046875	0.933105	-5.180000	2.870000	-1.330000	1582.00	-0.06	-0.03
3.01	0.00	0.00	0.00	0.00	0.00	0.00	0.50	0.00	0.00	0.00	0.00	0.00	0.00	0.00	0.00	0.00	-0.170410	0.338867	1.018555	-67.199997	-270.410004	71.260002	8.00	0.00	0.00	19.25	11.00	12.75	10.25	11.50	7.75	5.75	3.00	9.50	5.75	8.50	7.25	5.50	7.00	5.00	3.75	-0.252930	0.039062	0.933105	-4.690000	3.360000	-1.330000	1561.00	-0.05	-0.03
3.02	0.00	0.00	0.00	0.00	0.00	0.00	0.25	0.00	0.00	0.00	0.00	0.00	0.00	0.00	0.00	0.00	-0.242676	0.305176	1.057129	-55.930000	-282.170013	76.230003	4.00	0.00	0.00	18.25	9.50	12.50	9.75	11.50	7.25	5.75	2.50	9.25	5.00	8.00	6.50	5.50	7.50	5.25	4.00	-0.250000	0.049316	0.932129	-4.620000	3.850000	-1.540000	1493.00	-0.04	-0.02
3.03	0.00	0.00	0.00	0.00	0.00	0.00	0.50	0.00	0.00	0.00	0.00	0.00	0.00	0.00	0.00	0.00	-0.328613	0.263184	1.101074	-41.860001	-292.529999	77.840004	8.00	0.00	0.00	16.25	8.50	12.00	9.50	11.50	7.50	6.00	3.00	10.25	7.00	9.00	8.00	6.25	7.50	5.25	4.00	-0.254395	0.051270	0.934570	-4.690000	4.340000	-1.540000	1540.00	-0.02	-0.03
3.04	0.00	0.00	0.00	0.00	0.00	0.00	0.50	0.00	0.00	0.00	0.00	0.00	0.00	0.00	0.00	0.00	-0.395020	0.195801	1.128418	-28.000000	-301.279999	76.580002	8.00	0.00	0.00	14.75	7.75	11.25	8.75	11.25	7.25	6.25	2.75	10.00	7.00	8.75	7.50	4.75	7.50	5.50	4.00	-0.261719	0.046875	0.933105	-4.550000	4.830000	-1.610000	1468.00	-0.01	-0.02
3.05	0.00	0.00	0.00	0.00	0.00	0.00	0.50	0.00	0.00	0.00	0.00	0.00	0.00	0.00	0.00	0.00	-0.492676	0.143066	1.164551	-16.799999	-307.579987	72.239998	8.00	0.00	0.00	13.25	7.00	11.25	8.50	11.75	7.50	6.50	3.00	11.00	8.00	9.75	8.25	6.50	8.00	5.75	4.75	-0.255859	0.043945	0.925781	-4.410000	5.530000	-1.680000	1532.00	0.00	-0.02
3.06	0.00	0.00	0.00	0.00	0.00	0.00	0.50	0.00	0.00	0.00	0.00	0.00	0.00	0.00	0.00	0.00	-0.559082	0.111816	1.193359	-6.650000	-311.779999	65.730003	8.00	0.00	0.00	11.75	6.50	10.75	8.00	11.50	7.50	6.75	3.25	11.25	8.00	9.75	7.75	5.25	7.75	6.00	4.25	-0.259766	0.046387	0.928711	-3.920000	6.300000	-1.750000	1486.00	0.01	-0.02
3.07	0.00	0.00	0.00	0.00	0.00	0.00	0.25	0.00	0.00	0.00	0.00	0.00	0.00	0.00	0.00	0.00	-0.654297	0.086914	1.183105	3.640000	-312.829987	57.680000	4.00	0.00	0.00	9.75	5.75	10.00	7.25	11.25	7.25	6.75	3.00	11.75	8.25	10.50	8.75	6.75	8.50	6.25	5.00	-0.252930	0.044922	0.931641	-3.430000	7.140000	-1.750000	1486.00	0.03	-0.02
3.08	0.00	0.00	0.00	0.00	0.00	0.00	0.25	0.00	0.00	0.00	0.00	0.00	0.00	0.00	0.00	0.00	-0.743164	0.073730	1.151855	16.100000	-309.399994	48.930000	4.00	0.00	0.00	9.25	5.50	9.50	6.75	10.75	7.25	7.00	3.25	12.25	8.50	11.00	9.00	7.00	8.75	6.75	5.25	-0.279785	0.035645	0.927246	-3.080000	8.330000	-1.960000	1499.00	0.04	-0.03
3.09	0.00	0.00	0.00	0.00	0.00	0.00	0.25	0.00	0.00	0.00	0.00	0.00	0.00	0.00	0.00	0.00	-0.835938	0.083496	1.145020	30.240000	-300.089996	39.689999	4.00	0.00	0.00	7.75	3.75	6.75	4.50	9.25	6.50	7.00	2.50	11.50	8.50	10.50	8.75	6.25	8.25	6.00	4.50	-0.254395	0.046387	0.926270	-2.940000	9.590000	-1.960000	1320.00	0.07	-0.02
3.10	0.00	0.00	0.00	0.00	0.00	0.00	0.25	0.00	0.00	0.00	0.00	0.00	0.00	0.00	0.00	0.00	-0.908203	0.091797	1.177734	57.889999	-265.089996	22.190001	4.00	0.00	0.00	6.00	2.75	6.75	4.50	9.75	6.00	7.25	2.75	11.75	8.75	11.00	8.75	6.00	8.25	6.25	4.75	-0.257324	0.051758	0.934082	-3.010000	10.780000	-2.170000	1313.00	0.08	-0.02
3.11	0.00	0.00	0.00	0.00	0.00	0.00	0.50	0.00	0.00	0.00	0.00	0.00	0.00	0.00	0.00	0.00	-0.940430	0.117676	1.469727	67.550003	-245.839996	15.400000	8.00	0.00	0.00	5.25	2.00	6.25	3.75	8.25	5.00	7.25	2.25	11.50	8.75	11.00	9.00	6.25	8.50	6.75	5.00	-0.249512	0.028809	0.909668	-2.940000	12.460000	-2.310000	1255.00	0.10	-0.01
3.12	0.00	0.00	0.00	0.00	0.00	0.00	0.50	0.00	0.00	0.00	0.00	0.00	0.00	0.00	0.00	0.00	-0.992188	0.134277	1.925293	74.340004	-237.229996	11.830000	8.00	0.00	0.00	5.00	1.75	5.75	3.00	7.50	5.00	7.25	2.00	12.00	9.00	11.50	9.50	6.75	8.75	7.00	5.25	-0.327148	0.050293	0.959473	-2.380000	14.000000	-2.520000	1254.00	0.11	-0.01
3.13	0.00	0.00	0.00	0.00	0.00	0.00	0.25	0.00	0.00	0.00	0.00	0.00	0.00	0.00	0.00	0.00	-1.070801	0.150391	2.254395	75.739998	-244.089996	11.550000	4.00	0.00	0.00	4.00	1.50	5.00	2.50	6.75	4.00	7.50	2.00	12.25	9.50	11.75	9.75	6.75	8.75	6.75	5.50	-0.280273	0.050781	0.931641	-0.560000	17.990000	-3.220000	1222.00	0.13	-0.01
3.14	0.00	0.00	0.00	0.00	0.00	0.00	0.25	0.00	0.00	0.00	0.00	0.00	0.00	0.00	0.00	0.00	-1.199219	0.198730	2.372559	73.150002	-261.730011	13.580000	4.00	0.00	0.00	3.75	1.50	4.00	2.25	5.75	3.50	7.50	2.00	12.50	9.50	12.25	10.00	7.00	9.00	7.00	5.50	-0.273926	0.042969	0.926758	0.630000	20.930000	-3.570000	1206.00	0.14	-0.01
3.15	0.00	0.00	0.00	0.00	0.00	0.00	0.25	0.00	0.00	0.00	0.00	0.00	0.00	0.00	0.00	0.00	-1.363281	0.273438	2.249512	72.099998	-278.179993	17.010000	4.00	0.00	0.00	2.75	1.00	3.00	1.75	5.00	2.50	7.50	2.00	12.75	10.00	12.50	10.00	7.50	9.00	7.25	5.75	-0.103516	-0.111328	0.937012	1.540000	23.379999	-4.270000	1171.00	0.16	-0.01
3.16	0.00	0.00	0.00	0.00	0.00	0.00	0.50	0.00	0.00	0.00	0.00	0.00	0.00	0.00	0.00	0.00	-1.514160	0.316895	2.008789	74.340004	-284.760010	21.559999	8.00	0.00	0.00	2.00	0.50	2.25	1.25	3.50	2.50	7.50	2.00	13.00	10.25	12.75	10.50	7.50	9.25	7.50	6.25	-0.275879	0.046875	0.925293	1.540000	28.139999	-4.970000	1148.00	0.18	-0.02
3.17	0.00	0.00	0.00	0.00	0.00	0.00	0.25	0.00	0.00	0.00	0.00	0.00	0.00	0.00	0.00	0.00	-1.654297	0.346680	1.841309	76.370003	-281.610016	26.880001	4.00	0.00	0.00	1.75	1.00	1.50	1.00	3.00	2.00	7.50	1.75	13.25	10.50	13.00	10.50	7.75	9.25	7.50	6.75	-0.267578	0.032227	0.945801	0.560000	33.250000	-5.740000	1137.00	0.19	-0.02
3.18	0.00	0.00	0.00	0.00	0.00	0.00	0.25	0.00	0.00	0.00	0.00	0.00	0.00	0.00	0.00	0.00	-1.772461	0.363281	1.761719	75.320000	-274.610016	34.230000	4.00	0.00	0.00	1.00	0.50	1.50	1.00	2.00	2.25	7.50	1.50	13.50	10.50	13.25	10.75	7.75	9.50	7.50	6.75	-0.290039	0.038086	0.952148	-0.280000	38.990002	-6.020000	1121.00	0.20	-0.02
3.19	0.00	0.00	0.00	0.00	0.00	0.00	0.50	0.00	0.00	0.00	0.00	0.00	0.00	0.00	0.00	0.00	-1.882324	0.376465	1.738281	71.400002	-268.519989	44.939999	8.00	0.00	0.00	1.25	0.50	1.25	0.50	1.75	1.50	7.50	1.25	13.25	10.75	13.50	11.00	7.75	9.75	8.25	6.75	-0.305664	0.046875	0.938965	0.420000	48.439999	-6.020000	1115.00	0.21	-0.01
3.20	0.00	0.00	0.00	0.00	0.00	0.00	0.25	0.00	0.00	0.00	0.00	0.00	0.00	0.00	0.00	0.00	-1.969727	0.352051	1.688965	67.340004	-263.899994	58.590000	4.00	0.00	0.00	0.75	0.00	1.25	1.50	2.00	2.00	7.50	2.00	13.25	11.00	13.50	11.50	7.50	10.25	7.75	6.75	-0.306152	0.049805	0.953125	0.490000	59.709999	-6.580000	1143.00	0.20	-0.02
3.21	0.00	0.00	0.00	0.00	0.00	0.00	0.25	0.00	0.00	0.00	0.00	0.00	0.00	0.00	0.00	0.00	-2.027832	0.296875	1.526367	63.070000	-259.000000	73.080002	4.00	0.00	0.00	0.00	0.00	0.00	0.50	1.25	1.25	7.25	1.25	13.50	11.50	14.00	11.25	7.75	9.50	8.25	7.75	-0.327148	0.052246	0.956543	1.260000	71.820000	-8.050000	1092.00	0.23	-0.02
3.22	0.00	0.00	0.00	0.00	0.00	0.00	0.25	0.00	0.00	0.00	0.00	0.00	0.00	0.00	0.00	0.00	-2.103027	0.219727	1.279297	55.930000	-251.229996	84.559998	4.00	0.00	0.00	0.25	0.00	0.50	0.25	1.00	1.00	7.00	1.00	13.75	11.25	14.00	11.25	7.50	10.75	8.25	7.25	-0.306641	0.072266	1.116211	1.540000	83.930000	-9.520000	1091.00	0.23	-0.01
3.23	0.00	0.00	0.00	0.00	0.00	0.00	0.50	0.00	0.00	0.00	0.00	0.00	0.00	0.50	0.00	0.00	-2.214355	0.147949	0.982422	46.060001	-239.680008	89.320000	13.00	0.00	0.00	0.00	0.00	0.00	0.25	0.75	1.00	7.00	1.25	14.25	11.25	14.25	11.75	8.50	11.25	9.00	8.00	-0.324707	0.004395	1.025879	-0.420000	100.099998	-11.970000	1126.00	0.24	-0.02
3.24	0.00	0.00	0.00	0.00	0.00	0.00	0.25	0.00	0.00	0.00	0.00	0.00	0.00	0.00	0.00	0.00	-2.388672	0.049805	0.333496	35.490002	-202.160004	79.169998	4.00	0.00	0.00	0.75	0.25	0.00	0.00	0.50	0.75	6.75	0.75	13.75	11.00	13.75	11.00	7.75	9.75	8.25	7.25	-0.315430	0.042480	0.983398	-3.990000	120.120003	-13.370000	1057.00	0.24	-0.01
3.25	0.00	0.00	0.00	0.00	0.00	0.00	0.25	0.00	0.00	0.00	0.00	0.00	0.00	0.00	0.00	0.00	-2.426758	-0.063965	0.010254	49.770000	-173.389999	71.050003	4.00	0.00	0.00	0.00	0.00	0.00	0.00	0.75	0.75	6.50	1.00	14.50	11.50	14.00	11.25	7.50	10.00	8.75	7.50	-0.463379	0.054688	1.089355	-10.780000	165.130005	-17.780001	1078.00	0.24	-0.01
3.26	0.00	0.00	0.00	0.00	0.00	0.00	0.25	0.00	0.00	0.00	0.00	0.00	0.00	0.00	0.00	0.00	-2.467773	-0.212402	-0.195312	68.879997	-138.949997	63.000000	4.00	0.00	0.00	1.25	1.00	0.50	0.50	0.75	1.50	6.25	1.25	14.25	11.50	14.25	11.50	7.50	10.75	9.50	7.75	-0.408691	0.024902	1.021484	-14.560000	191.029999	-19.110001	1143.00	0.22	-0.02
3.27	0.00	0.00	0.00	0.00	0.00	0.00	0.25	0.00	0.00	0.00	0.00	0.00	0.00	0.00	0.00	0.00	-2.475586	-0.371582	-0.300781	81.480003	-101.779999	55.860001	4.00	0.00	0.00	1.50	0.75	1.25	1.50	1.25	1.75	6.25	1.75	15.75	12.00	14.75	11.50	7.75	11.50	9.75	7.75	-0.459961	0.026367	1.016113	-19.530001	216.440002	-19.670000	1227.00	0.21	-0.02
3.28	0.00	0.00	0.00	0.00	0.00	0.00	0.25	0.00	0.00	0.00	0.00	0.00	0.00	0.00	0.00	0.00	-2.441895	-0.501465	-0.294922	77.769997	-65.730003	48.369999	4.00	0.00	0.00	1.50	0.50	1.00	1.00	1.00	1.75	5.75	1.25	14.75	11.25	13.50	10.50	5.75	11.00	9.75	7.75	-0.526855	0.036133	1.018066	-23.309999	243.389999	-21.070000	1123.00	0.22	-0.01
3.29	0.00	0.00	0.00	0.00	0.00	0.00	0.25	0.00	0.00	0.00	0.00	0.00	0.00	0.00	0.00	0.00	-2.365234	-0.537598	-0.239746	57.820000	-32.410000	41.299999	4.00	0.00	0.00	1.75	0.75	1.00	0.25	0.75	0.25	5.25	0.25	12.50	10.75	13.25	10.75	6.00	10.25	9.50	7.50	-0.585449	0.029297	1.071289	-23.520000	269.850006	-23.240000	1027.00	0.23	-0.01
3.30	0.00	0.00	0.00	0.00	0.00	0.00	0.25	0.00	0.00	0.00	0.00	0.00	0.00	0.00	0.00	0.00	-2.258301	-0.511230	-0.157227	29.400000	-2.590000	36.400002	4.00	0.00	0.00	1.00	0.50	1.25	1.00	1.00	1.50	5.00	1.50	13.75	11.00	13.50	11.00	6.25	11.00	10.00	8.00	-0.622070	0.083984	1.131348	-17.500000	293.720001	-26.389999	1107.00	0.22	-0.02
3.31	0.00	0.00	0.00	0.00	0.00	0.00	0.25	0.00	0.00	0.00	0.00	0.00	0.00	0.00	0.00	0.00	-1.451172	-0.505859	-0.030762	-0.770000	23.940001	34.230000	4.00	0.00	0.00	0.00	0.00	0.00	0.00	0.00	0.00	4.00	0.25	10.50	9.25	11.50	9.75	3.50	9.50	8.75	7.25	-0.760254	0.042969	1.256836	-2.730000	312.130005	-29.330000	834.00	0.26	-0.01
3.32	0.00	0.00	0.00	0.00	0.00	0.00	0.25	0.00	0.00	0.00	0.00	0.00	0.00	0.00	0.00	0.00	-0.047363	-0.442383	-1.020508	-49.630001	131.669998	43.750000	4.00	0.00	0.00	0.00	0.00	0.00	0.00	0.00	0.00	3.25	0.25	9.50	8.25	10.75	9.00	3.00	9.25	9.00	7.50	-0.754395	0.128418	1.444824	16.940001	329.769989	-29.680000	776.00	0.27	-0.01
3.33	0.00	0.00	0.00	0.00	0.00	0.00	0.25	0.00	0.00	0.00	0.00	0.00	0.00	0.00	0.00	0.00	0.053223	0.430176	0.893066	-64.680000	176.680008	33.389999	4.00	0.00	0.00	0.00	0.00	0.00	0.00	0.25	0.00	2.50	0.50	9.25	7.50	9.50	8.25	4.25	10.25	9.75	7.50	-1.272949	0.091309	1.846680	34.090000	341.880005	-27.719999	766.00	0.27	-0.02
3.34	0.00	0.50	0.00	0.00	0.00	0.00	0.25	0.00	0.00	0.00	0.00	0.00	0.00	0.00	0.00	0.00	0.479004	-0.057617	1.679199	-65.309998	164.289993	28.000000	9.00	0.00	0.00	0.75	0.25	0.50	0.75	0.75	1.25	2.25	1.00	8.00	6.00	9.00	8.25	3.75	9.25	9.75	7.00	-1.504883	0.066895	2.208008	46.689999	358.750000	-21.280001	759.00	0.24	-0.04
3.35	0.75	1.25	0.00	0.00	0.00	0.00	0.25	0.00	0.00	0.00	0.75	0.50	0.50	0.25	0.50	0.00	-0.178711	-0.251953	0.852539	-93.239998	141.190002	17.780001	52.00	-0.02	-0.10	0.00	0.00	0.00	0.25	0.00	0.00	1.50	0.00	6.25	5.25	7.75	6.75	2.75	8.50	8.00	5.50	-1.367676	0.120605	2.083496	52.080002	374.779999	-17.219999	573.00	0.28	-0.03
3.36	5.00	5.50	1.00	1.75	0.75	1.00	0.50	0.75	0.00	0.25	0.75	0.00	0.25	0.50	0.25	0.00	-0.032227	-0.288574	0.329102	-112.000000	148.330002	3.360000	208.00	-0.25	-0.07	0.00	0.00	0.00	0.00	0.25	0.00	1.25	0.00	5.25	4.50	6.50	5.75	2.75	8.00	7.50	5.00	-1.169434	0.072754	1.840820	49.070000	383.250000	-22.049999	506.00	0.28	-0.03
3.37	5.50	7.25	1.00	1.75	1.25	0.50	0.50	0.50	0.00	0.25	0.25	0.50	0.50	0.75	0.50	0.00	-0.117188	-0.167969	0.708008	-102.760002	168.910004	-2.030000	235.00	-0.25	-0.06	0.00	0.00	0.00	0.00	0.25	0.00	1.00	0.00	5.00	4.00	5.75	5.25	2.00	7.00	7.00	4.00	-1.677246	0.653320	1.417969	38.150002	395.220001	-35.349998	451.00	0.29	-0.02
3.38	3.75	5.75	0.00	0.00	0.00	0.00	0.00	0.00	0.00	0.00	0.00	0.00	0.00	0.00	0.00	0.00	-0.279297	-0.086914	1.148926	-78.400002	178.289993	-1.400000	100.00	-0.41	-0.05	0.00	0.00	0.00	0.00	0.00	0.25	0.50	0.00	4.00	3.75	5.00	4.25	1.50	6.50	6.25	3.00	-1.627441	0.538574	2.064453	67.760002	376.320007	-40.110001	381.00	0.29	-0.02
3.39	4.75	6.50	0.00	0.00	0.00	0.00	0.00	0.00	0.00	0.00	0.00	0.00	0.00	0.00	0.00	0.00	-0.431152	-0.305176	1.354492	-52.080002	164.990005	-9.450000	119.00	-0.41	-0.04	0.00	0.00	0.00	0.00	0.00	0.00	0.50	0.00	3.75	3.75	4.25	3.75	0.50	5.50	5.50	2.25	-1.218262	0.327148	1.617188	85.260002	355.880005	-51.799999	329.00	0.30	-0.00
3.40	10.25	8.50	0.00	1.25	0.00	0.00	0.00	0.00	0.00	0.00	0.00	0.00	0.00	0.00	0.00	0.00	-0.611328	-0.141602	1.818848	-37.660000	176.259995	-17.570000	217.00	-0.40	-0.02	0.00	0.00	0.00	0.00	0.00	0.00	0.25	0.00	2.25	3.25	3.75	2.75	0.25	4.25	4.75	1.75	-0.828125	0.239746	2.110352	82.809998	326.970001	-66.849998	255.00	0.30	-0.02
3.41	9.25	9.75	0.00	1.75	0.00	0.00	0.00	0.00	0.00	0.00	0.00	0.00	0.00	0.00	0.00	0.00	-0.700195	0.193848	2.310059	0.980000	187.110001	-10.850000	224.00	-0.40	-0.04	0.00	0.00	0.00	0.00	0.25	0.00	0.25	0.00	1.25	3.25	3.00	2.75	0.00	2.50	3.00	1.00	-0.473145	0.148926	1.986328	70.279999	289.309998	-84.209999	192.00	0.28	-0.03
3.42	10.50	10.75	0.00	3.00	0.00	0.00	0.00	0.00	0.00	0.00	0.00	0.00	0.00	0.00	0.00	0.00	-0.493164	0.094727	1.874023	0.980000	160.789993	-6.930000	263.00	-0.39	-0.05	0.00	0.00	0.00	0.00	0.00	0.00	0.00	0.25	0.75	2.50	2.75	2.25	0.50	1.25	2.00	1.00	0.104492	0.125977	1.846191	53.970001	251.300003	-96.389999	146.00	0.27	-0.08
3.43	13.50	11.75	1.00	5.25	0.50	0.00	0.25	0.00	0.00	0.00	0.00	0.00	0.00	0.00	0.00	0.00	-0.330078	0.164551	1.360840	-5.040000	134.820007	-4.200000	356.00	-0.37	-0.04	0.00	0.00	0.00	0.00	0.25	0.00	0.25	0.25	0.00	2.00	2.00	1.25	0.50	0.50	1.25	0.75	0.487305	0.109375	1.639160	35.000000	217.139999	-102.970001	99.00	0.24	-0.10
3.44	12.25	12.00	1.00	5.25	0.25	0.00	0.25	0.00	0.00	0.00	0.00	0.00	0.00	0.00	0.00	0.00	-0.280273	0.065430	1.243652	-6.650000	118.440002	-1.120000	342.00	-0.37	-0.05	0.00	0.00	0.00	0.00	0.00	0.00	0.25	0.25	0.25	1.25	1.25	0.75	0.00	0.50	1.00	0.50	1.541016	0.118652	1.425293	-0.070000	175.210007	-109.410004	68.00	0.25	-0.06
3.45	12.75	12.25	1.25	5.75	0.25	0.00	0.25	0.00	0.00	0.00	0.00	0.00	0.00	0.00	0.00	0.00	-0.257812	0.057129	1.137695	-4.900000	107.239998	-0.560000	359.00	-0.37	-0.05	0.25	0.00	0.00	0.00	0.00	0.25	0.25	0.25	0.00	1.00	1.00	0.50	0.00	0.25	0.50	0.25	0.748047	0.332031	1.078613	-26.880001	141.960007	-111.090004	52.00	0.17	-0.08
3.46	13.25	13.25	2.00	7.50	0.00	0.00	0.00	0.00	0.00	0.00	0.75	0.00	0.00	0.75	0.25	0.25	-0.228516	0.036621	1.036133	-1.820000	99.680000	-1.120000	418.00	-0.34	-0.06	0.00	0.00	0.00	0.00	0.00	0.00	0.25	0.25	0.00	1.25	1.00	0.50	0.00	0.00	0.50	0.25	0.657227	0.615234	2.861328	-80.570000	19.040001	-96.809998	47.00	0.00	0.00
3.47	19.75	16.50	4.75	9.00	1.50	2.50	0.50	0.75	0.25	0.50	0.75	0.50	0.25	0.75	0.25	0.50	-0.564941	0.385742	2.627930	-24.290001	82.809998	-2.870000	663.00	-0.30	-0.05	0.00	0.00	0.00	0.00	0.00	0.00	0.25	0.25	0.00	1.00	0.75	0.25	0.00	0.00	0.50	0.50	1.124512	0.564941	2.514648	-52.920002	-102.480003	-74.410004	40.00	0.00	0.00
3.48	18.75	16.50	5.00	9.00	1.50	2.75	0.50	0.75	0.50	0.00	0.00	0.00	0.00	0.00	0.00	0.25	-0.349609	0.054199	1.266113	-22.260000	49.000000	0.700000	627.00	-0.33	-0.05	0.00	0.00	0.00	0.00	0.00	0.00	0.25	0.25	0.00	0.75	0.75	0.25	0.00	0.00	0.25	0.00	0.742188	0.475098	1.694336	-19.110001	-174.649994	-63.560001	31.00	0.00	0.00
3.49	21.00	17.50	5.75	9.50	1.50	4.25	0.50	1.00	0.50	0.00	0.00	0.00	0.00	0.00	0.00	0.00	-0.199219	0.041016	0.807129	-32.830002	49.070000	0.210000	699.00	-0.33	-0.05	0.00	0.00	0.00	0.00	0.00	0.25	0.25	0.50	0.00	0.75	0.75	0.00	0.00	0.00	0.25	0.25	0.524414	0.319336	0.880859	11.340000	-237.369995	-50.189999	37.00	0.00	0.00
3.50	15.00	13.75	5.00	8.50	1.25	3.25	0.50	1.25	0.50	0.75	1.00	1.00	1.25	1.25	0.50	0.00	-0.275391	0.055664	1.091309	-35.910000	51.520000	-0.700000	622.00	-0.26	-0.07	0.00	0.00	0.00	0.00	0.00	0.00	0.25	0.00	0.00	0.25	0.75	0.00	0.00	0.00	0.25	0.25	0.430664	0.293457	0.780273	20.020000	-241.850006	-43.119999	20.00	0.00	0.00
3.51	22.25	18.00	7.00	10.25	2.25	4.50	0.50	0.00	0.00	0.00	0.25	0.00	0.00	0.00	0.00	0.00	-0.304199	0.053223	1.065918	-31.080000	43.470001	-1.190000	733.00	-0.33	-0.05	0.00	0.00	0.00	0.00	0.00	0.00	0.25	0.25	0.00	0.50	0.50	0.00	0.00	0.00	0.75	0.00	0.365723	0.276367	0.785645	21.980000	-241.710007	-35.279999	28.00	0.00	0.00
3.52	16.25	14.00	5.75	9.00	1.25	2.50	0.25	0.00	0.00	0.00	0.25	0.25	0.00	0.00	0.00	0.00	-0.282715	0.057617	1.036133	-24.010000	36.049999	-1.120000	558.00	-0.34	-0.05	0.00	0.00	0.00	0.00	0.00	0.25	0.25	0.25	0.00	0.25	0.25	0.00	0.00	0.00	0.25	0.25	0.328125	0.247070	0.857910	17.990000	-244.930008	-26.600000	21.00	0.00	0.00
3.53	16.50	14.50	6.00	9.25	1.75	3.00	0.50	0.25	0.00	0.00	0.75	0.50	0.00	0.00	0.00	0.00	-0.279297	0.058594	1.004883	-19.040001	29.960001	-0.770000	600.00	-0.32	-0.06	0.00	0.00	0.00	0.00	0.00	0.00	0.25	0.25	0.00	0.50	0.50	0.00	0.00	0.00	0.00	0.00	0.248047	0.246094	1.000977	10.220000	-255.080002	-15.960000	20.00	0.00	0.00
3.54	15.50	14.50	6.25	9.25	1.75	3.50	0.50	0.25	0.00	0.00	0.75	0.50	0.00	0.00	0.00	0.00	-0.278320	0.052246	0.986328	-19.670000	22.260000	-0.770000	598.00	-0.32	-0.06	0.00	0.00	0.00	0.00	0.25	0.00	0.25	0.00	0.00	0.25	0.25	0.00	0.00	0.00	0.25	0.00	0.153809	0.253418	1.113281	0.280000	-271.459991	-2.520000	16.00	0.00	0.00
3.55	16.50	14.75	6.50	9.50	2.00	4.25	0.50	0.75	0.00	0.00	1.00	1.00	0.00	0.00	0.00	0.00	-0.283691	0.048340	0.977539	-20.299999	18.200001	-0.840000	647.00	-0.30	-0.07	0.00	0.00	0.00	0.00	0.00	0.00	0.25	0.25	0.00	0.25	0.00	0.00	0.00	0.00	0.00	0.25	0.096191	0.251953	1.161133	-9.940000	-290.290009	12.390000	13.00	0.00	0.00
3.56	17.00	14.75	6.75	9.50	2.25	5.00	0.50	0.50	0.00	0.25	1.00	1.00	0.25	0.00	0.00	0.00	-0.285645	0.043945	0.967285	-19.180000	14.770000	-0.700000	668.00	-0.30	-0.07	0.00	0.00	0.00	0.00	0.00	0.00	0.25	0.25	0.00	0.25	0.00	0.00	0.00	0.00	0.00	0.00	0.019043	0.261230	1.174805	-18.620001	-308.489990	27.020000	11.00	0.00	0.00
3.57	16.75	14.75	7.00	9.75	2.25	5.00	0.50	1.00	0.00	0.25	1.50	0.75	0.25	0.00	0.00	0.00	-0.284180	0.044922	0.960449	-17.639999	12.110000	-0.420000	683.00	-0.29	-0.07	0.00	0.00	0.00	0.00	0.00	0.25	0.25	0.25	0.00	0.25	0.00	0.00	0.00	0.00	0.25	0.00	-0.076660	0.264160	1.161133	-23.170000	-322.910004	40.599998	17.00	0.00	0.00
3.58	16.50	14.25	7.00	9.50	2.50	5.00	0.50	1.00	0.00	0.50	1.25	1.00	1.00	0.00	0.00	0.25	-0.275879	0.050781	0.960449	-16.030001	10.010000	-0.140000	686.00	-0.28	-0.07	0.00	0.00	0.00	0.00	0.00	0.00	0.25	0.25	0.00	0.00	0.00	0.00	0.00	0.00	0.00	0.00	-0.158203	0.258789	1.124023	-20.299999	-332.709991	52.779999	8.00	0.00	0.00
3.59	20.50	18.50	8.50	11.75	4.75	7.75	0.75	1.50	0.00	0.50	1.50	1.25	1.00	0.00	0.00	0.25	-0.279297	0.040527	0.959473	-14.210000	8.120000	0.210000	898.00	-0.28	-0.07	0.00	0.00	0.00	0.00	0.00	0.00	0.25	0.25	0.00	0.25	0.00	0.00	0.00	0.00	0.00	0.00	-0.261719	0.233398	1.104492	-11.200000	-337.820007	63.490002	11.00	0.00	0.00
3.60	16.25	14.25	7.00	9.75	3.75	6.50	0.75	1.50	0.00	0.75	1.75	1.50	1.50	0.00	0.00	0.25	-0.281250	0.043945	0.955566	-12.740000	6.720000	0.350000	751.00	-0.26	-0.08	0.00	0.00	0.00	0.00	0.00	0.00	0.00	0.25	0.00	0.00	0.00	0.00	0.00	0.00	0.00	0.25	-0.385742	0.189941	1.059082	0.280000	-337.119995	72.169998	6.00	0.00	0.00
3.61	15.75	14.25	7.00	9.75	4.00	6.50	0.75	1.50	0.00	0.75	1.75	1.75	1.75	0.00	0.00	0.25	-0.278320	0.036133	0.943359	-11.830000	5.600000	0.350000	753.00	-0.25	-0.08	0.00	0.00	0.00	0.00	0.00	0.00	0.25	0.25	0.00	0.00	0.00	0.00	0.00	0.00	0.00	0.00	-0.675781	-0.016113	1.014648	14.490000	-318.709991	78.470001	8.00	0.00	0.00
3.62	15.50	14.00	7.00	9.75	4.00	6.75	0.75	2.00	0.00	0.75	1.75	1.50	1.50	0.00	0.00	0.00	-0.278809	0.036133	0.948242	-11.410000	5.040000	0.210000	753.00	-0.25	-0.09	0.00	0.00	0.00	0.00	0.00	0.00	0.25	0.25	0.00	0.00	0.00	0.00	0.00	0.00	0.00	0.00	-0.781250	-0.134766	1.081543	14.630000	-302.890015	72.660004	8.00	0.00	0.00
3.63	22.75	18.00	8.75	11.75	5.50	8.25	1.00	3.50	1.00	1.75	2.75	2.75	5.00	1.25	1.00	1.00	-0.281250	0.029785	0.949219	-10.710000	4.410000	0.210000	1099.00	-0.21	-0.09	0.00	0.00	0.00	0.00	0.00	0.00	0.25	0.25	0.00	0.00	0.00	0.00	0.00	0.00	0.00	0.00	-0.868652	-0.181152	1.183594	13.580000	-286.510010	60.410000	8.00	0.00	0.00
3.64	22.50	17.50	8.75	11.75	5.50	8.25	1.00	4.00	1.00	2.00	3.00	3.25	5.00	1.50	1.00	1.00	-0.280762	0.035645	0.939941	-10.290000	3.990000	0.140000	1113.00	-0.20	-0.09	0.00	0.00	0.00	0.00	0.00	0.00	0.25	0.25	0.00	0.00	0.00	0.00	0.00	0.00	0.00	0.00	-0.908203	-0.185547	1.325684	16.100000	-272.860016	45.570000	8.00	0.00	0.00
3.65	22.25	17.50	8.75	11.50	5.50	8.50	1.00	4.00	1.75	2.00	3.00	3.00	5.50	1.50	0.75	1.50	-0.277344	0.029785	0.946777	-9.870000	3.710000	0.000000	1123.00	-0.19	-0.09	0.25	0.00	0.00	0.00	0.00	0.00	0.25	0.25	0.00	0.00	0.00	0.00	0.00	0.00	0.00	0.00	-0.919922	-0.132812	1.494629	26.530001	-264.040009	32.200001	11.00	0.00	0.00
3.66	21.50	17.25	8.75	11.50	5.75	8.50	1.00	4.25	1.50	2.00	3.25	3.25	5.25	1.50	1.00	1.25	-0.273926	0.028809	0.941895	-9.660000	3.430000	0.000000	1120.00	-0.19	-0.09	0.00	0.00	0.00	0.00	0.00	0.00	0.25	0.00	0.00	0.00	0.00	0.00	0.00	0.00	0.00	0.00	-0.967285	-0.069824	1.769043	45.220001	-259.630005	21.490000	4.00	0.00	0.00
3.67	21.00	16.75	8.75	11.50	6.00	8.75	1.00	4.00	1.25	2.00	3.50	3.25	5.50	1.50	1.00	1.25	-0.281738	0.035156	0.942383	-9.450000	3.430000	-0.070000	1113.00	-0.19	-0.09	0.00	0.00	0.00	0.00	0.00	0.00	0.00	0.25	0.00	0.00	0.00	0.00	0.00	0.00	0.00	0.00	-1.066895	-0.057129	2.062500	69.720001	-261.869995	13.790000	4.00	0.00	0.00
3.68	21.25	16.50	8.75	11.25	5.75	8.75	1.00	4.25	1.50	2.00	2.50	2.50	3.75	1.00	0.50	1.25	-0.277344	0.024902	0.937500	-9.170000	3.430000	-0.070000	1068.00	-0.21	-0.09	0.00	0.00	0.00	0.00	0.00	0.00	0.25	0.25	0.00	0.00	0.00	0.00	0.00	0.00	0.00	0.00	-1.178711	-0.059082	2.172363	90.930000	-270.480011	9.030000	8.00	0.00	0.00
3.69	19.50	15.75	8.75	11.00	6.00	8.75	1.00	4.25	1.25	1.75	2.75	2.50	3.75	0.25	0.50	1.25	-0.275391	0.026367	0.940430	-8.470000	3.360000	0.140000	1030.00	-0.21	-0.09	0.00	0.00	0.00	0.00	0.00	0.00	0.25	0.00	0.00	0.00	0.00	0.00	0.00	0.00	0.00	0.25	-1.315918	-0.057129	2.085449	101.709999	-279.440002	6.860000	6.00	0.00	0.00
