# time	left pressure 1[N/cm²]	left pressure 2[N/cm²]	left pressure 3[N/cm²]	left pressure 4[N/cm²]	left pressure 5[N/cm²]	left pressure 6[N/cm²]	left pressure 7[N/cm²]	left pressure 8[N/cm²]	left pressure 9[N/cm²]	left pressure 10[N/cm²]	left pressure 11[N/cm²]	left pressure 12[N/cm²]	left pressure 13[N/cm²]	left pressure 14[N/cm²]	left pressure 15[N/cm²]	left pressure 16[N/cm²]	left acceleration X[g]	left acceleration Y[g]	left acceleration Z[g]	left angular X[dps]	left angular Y[dps]	left angular Z[dps]	left total force[N]	left center of pressure X[%]	left center of pressure Y[%]	right pressure 1[N/cm²]	right pressure 2[N/cm²]	right pressure 3[N/cm²]	right pressure 4[N/cm²]	right pressure 5[N/cm²]	right pressure 6[N/cm²]	right pressure 7[N/cm²]	right pressure 8[N/cm²]	right pressure 9[N/cm²]	right pressure 10[N/cm²]	right pressure 11[N/cm²]	right pressure 12[N/cm²]	right pressure 13[N/cm²]	right pressure 14[N/cm²]	right pressure 15[N/cm²]	right pressure 16[N/cm²]	right acceleration X[g]	right acceleration Y[g]	right acceleration Z[g]	right angular X[dps]	right angular Y[dps]	right angular Z[dps]	right total force[N]	right center of pressure X[%]	right center of pressure Y[%]
0.00	6.50	6.25	5.50	6.00	1.75	3.00	1.00	0.50	0.50	3.50	4.50	3.25	0.50	1.50	0.00	3.25	-0.187988	0.081543	0.947754	-3.010000	9.520000	-1.820000	486.00	-0.11	-0.07																									
0.01	6.50	6.25	5.50	5.75	1.75	3.00	1.00	0.50	0.50	3.50	4.50	3.00	0.50	1.50	0.00	3.25	-0.190918	0.074707	0.946289	-4.060000	10.220000	-1.680000	480.00	-0.11	-0.07																									
0.02	6.50	6.25	5.50	5.50	1.75	2.75	1.00	0.50	0.25	3.50	4.50	3.25	0.50	1.25	0.00	3.25	-0.192871	0.084473	0.955078	-4.760000	11.060000	-1.820000	472.00	-0.11	-0.07	0.00	0.00	0.25	0.75	1.25	1.75	2.00	3.75	2.75	3.25	6.00	6.25	6.75	4.75	1.00	2.00	-0.208008	0.094727	1.014648	-30.520000	-47.529999	-1.190000	450.00	0.16	-0.13
0.03	6.75	6.25	5.50	5.50	1.75	2.75	1.00	0.50	0.50	3.75	5.00	3.25	0.25	1.50	0.00	3.25	-0.192383	0.080566	0.953125	-6.090000	11.970000	-1.820000	486.00	-0.10	-0.07	0.00	0.00	0.25	0.50	1.75	2.00	2.00	3.75	2.75	2.75	5.25	6.00	6.75	5.00	0.75	2.25	-0.178223	0.083008	0.992188	-23.870001	-36.820000	-1.120000	441.00	0.16	-0.13
0.04	6.25	6.25	5.50	5.50	1.75	2.50	1.00	0.50	0.50	3.50	5.00	3.25	0.50	1.25	0.00	3.25	-0.202148	0.077637	0.960449	-7.280000	12.880000	-1.890000	475.00	-0.10	-0.07	0.25	0.50	0.75	1.50	2.25	2.50	2.25	3.75	2.75	2.75	5.00	5.25	6.25	5.00	1.00	2.00	-0.165527	0.066406	0.994629	-18.549999	-30.870001	-0.770000	466.00	0.13	-0.12
0.05	6.50	6.00	5.50	5.25	1.75	2.25	1.00	0.50	0.50	3.50	5.00	3.00	0.25	1.75	0.00	3.25	-0.204590	0.071777	0.964844	-7.910000	13.230000	-1.890000	470.00	-0.10	-0.06	0.25	0.50	1.25	1.75	3.00	3.00	2.25	4.50	2.50	2.75	5.00	5.00	6.00	4.75	0.75	1.75	-0.151855	0.062012	1.003418	-13.930000	-26.530001	-0.000000	485.00	0.10	-0.12
0.06	6.25	6.00	5.50	5.50	1.75	2.25	1.00	0.50	0.50	3.50	5.00	3.25	0.50	1.25	0.00	3.50	-0.197754	0.070801	0.956543	-8.470000	12.950000	-1.890000	472.00	-0.10	-0.07	0.75	0.75	1.75	2.50	4.25	3.75	2.50	4.75	2.25	2.75	4.00	4.25	6.00	4.50	1.00	1.50	-0.138184	0.066895	0.997559	-10.220000	-22.610001	0.630000	513.00	0.07	-0.12
0.07	6.25	5.75	5.50	5.25	1.75	2.00	1.00	0.25	0.50	3.50	4.75	3.00	0.50	1.50	0.00	3.50	-0.202148	0.073242	0.965332	-9.100000	13.020000	-1.960000	457.00	-0.10	-0.06	1.00	1.25	2.00	3.00	5.25	4.25	2.50	5.00	2.25	2.50	3.75	4.25	5.75	4.00	1.00	1.50	-0.141113	0.066406	0.990723	-6.930000	-18.969999	1.050000	537.00	0.05	-0.12
0.08	6.25	5.75	5.25	5.25	1.75	2.25	1.00	0.50	0.50	3.50	4.50	3.00	0.25	1.50	0.00	3.25	-0.202637	0.067383	0.965332	-9.100000	12.530000	-2.030000	455.00	-0.10	-0.06	1.00	2.00	2.50	4.00	5.75	4.50	2.50	5.25	2.00	2.25	3.75	4.00	5.50	4.25	0.50	1.50	-0.139648	0.063477	0.995605	-4.130000	-15.750000	1.260000	559.00	0.02	-0.12
0.09	6.25	5.50	5.25	4.75	1.75	2.00	1.00	0.50	0.75	3.50	5.25	3.25	0.50	1.50	0.00	3.25	-0.209961	0.070312	0.964355	-8.540000	12.110000	-1.960000	460.00	-0.09	-0.06	1.50	2.25	2.75	4.25	6.00	5.25	2.50	5.25	1.50	2.00	3.25	3.50	5.50	3.50	0.75	1.25	-0.147461	0.065430	1.006348	-1.960000	-12.950000	2.240000	558.00	0.00	-0.13
0.10	6.00	5.50	5.00	5.00	1.50	2.00	1.00	0.25	0.25	3.75	5.25	3.00	0.25	1.50	0.00	3.25	-0.207031	0.064941	0.960938	-7.560000	11.830000	-1.820000	442.00	-0.09	-0.06	1.75	2.50	3.00	5.00	6.25	5.25	2.50	5.50	1.50	2.00	2.75	3.75	5.75	3.25	0.75	1.25	-0.130371	0.083496	0.947754	0.490000	-10.710000	3.010000	578.00	-0.01	-0.13
0.11	5.75	5.50	4.75	4.75	1.50	1.75	1.00	0.25	0.50	4.00	5.25	3.00	0.25	1.25	0.00	3.25	-0.210938	0.066406	0.961426	-6.510000	11.340000	-1.750000	435.00	-0.08	-0.06	1.75	2.75	3.00	5.00	6.50	5.25	2.50	5.75	1.25	2.00	3.50	3.50	5.25	2.75	0.75	1.25	-0.122070	0.106934	0.942383	1.750000	-9.030000	3.570000	580.00	-0.02	-0.13
0.12	5.50	5.00	4.75	4.25	1.50	1.50	1.00	0.25	0.25	3.75	5.50	3.00	0.50	1.50	0.00	3.25	-0.212402	0.070312	0.967285	-5.320000	10.780000	-1.540000	421.00	-0.07	-0.06	2.00	3.00	3.25	5.25	6.50	6.25	2.50	5.75	1.25	1.75	2.50	3.25	5.25	2.50	0.50	1.00	-0.158203	0.017090	1.055664	1.400000	-7.770000	3.990000	579.00	-0.04	-0.13
0.13	5.25	5.00	4.50	4.50	1.50	1.50	1.00	0.25	0.75	3.75	5.25	3.00	0.50	1.25	0.00	3.25	-0.212402	0.062012	0.966797	-3.570000	10.290000	-1.330000	420.00	-0.07	-0.06	2.50	3.00	3.50	5.50	6.50	6.00	2.50	5.75	1.25	1.75	2.50	3.25	5.25	2.50	0.50	1.00	-0.133301	0.084961	0.962402	0.140000	-6.580000	4.060000	587.00	-0.04	-0.13
0.14	5.25	4.75	4.25	4.25	1.25	1.50	1.00	0.25	0.50	3.50	5.75	3.25	0.25	1.25	0.00	3.25	-0.209961	0.065918	0.957031	-2.520000	10.080000	-1.190000	409.00	-0.07	-0.07	2.50	3.50	3.75	5.50	6.75	6.25	2.50	5.75	1.00	1.50	2.50	2.50	5.25	2.50	0.50	1.00	-0.135742	0.090820	0.969727	-0.980000	-6.160000	3.640000	586.00	-0.05	-0.13
0.15	4.75	4.50	4.00	3.75	1.25	1.25	1.00	0.25	0.50	3.75	5.50	3.25	0.25	1.25	0.00	3.50	-0.209961	0.060547	0.959473	-2.170000	9.940000	-0.980000	392.00	-0.05	-0.06	2.50	3.75	4.00	5.75	6.75	6.50	2.50	5.75	1.00	1.50	2.25	2.75	5.25	2.25	0.50	1.00	-0.172363	0.044922	1.018555	-2.660000	-5.740000	2.940000	595.00	-0.06	-0.13
0.16	4.25	4.00	3.75	3.75	1.25	1.25	1.00	0.25	0.50	3.75	5.50	3.00	0.25	1.50	0.00	3.25	-0.214355	0.074219	0.963379	-2.030000	10.220000	-0.980000	378.00	-0.04	-0.06	2.50	4.00	4.00	5.75	7.00	6.50	2.50	5.75	1.00	1.50	2.25	2.75	5.25	2.25	0.50	1.25	-0.125977	0.082031	0.985840	-4.130000	-5.180000	2.380000	601.00	-0.06	-0.13
0.17	4.75	4.00	3.25	3.25	1.25	1.25	1.00	0.25	0.25	3.75	5.25	3.00	0.00	0.75	0.00	3.25	-0.209473	0.070801	0.954590	-1.820000	10.220000	-1.190000	357.00	-0.05	-0.06	2.75	4.25	4.25	5.75	7.00	6.75	2.50	5.50	1.25	1.25	2.25	2.50	5.00	2.50	0.75	1.00	-0.133301	0.081543	0.984375	-5.040000	-4.550000	1.960000	607.00	-0.06	-0.13
0.18	4.25	3.25	3.25	3.00	1.00	1.00	1.00	0.25	0.25	3.50	5.50	2.75	0.25	1.25	0.00	3.50	-0.211426	0.064453	0.958984	-1.330000	10.080000	-1.120000	342.00	-0.03	-0.06	3.00	4.25	4.25	6.00	7.25	6.75	2.50	5.75	1.00	1.50	2.25	2.25	4.75	2.25	0.50	1.00	-0.142578	0.081055	0.988770	-5.600000	-4.130000	1.960000	609.00	-0.07	-0.13
0.19	4.25	3.00	3.25	3.00	1.00	1.00	0.75	0.25	0.50	3.75	5.50	2.75	0.50	1.25	0.00	3.50	-0.216797	0.063477	0.962891	0.070000	9.310000	-1.400000	344.00	-0.02	-0.06	3.00	4.25	4.50	6.00	7.25	6.75	2.50	5.50	1.25	1.50	2.00	2.25	4.75	2.25	0.25	1.00	-0.145020	0.070801	0.985840	-5.530000	-3.710000	2.240000	606.00	-0.07	-0.12
0.20	3.75	3.50	3.00	3.00	1.25	1.00	1.00	0.25	0.50	4.00	5.75	2.50	0.00	0.75	0.00	3.50	-0.220703	0.067871	0.967285	1.680000	8.050000	-1.190000	341.00	-0.03	-0.06	3.25	4.25	4.50	6.25	7.50	7.00	2.50	5.50	1.25	1.50	2.00	2.25	4.25	1.75	0.50	1.00	-0.145020	0.064453	0.987305	-5.040000	-3.850000	2.590000	611.00	-0.08	-0.12
0.21	3.75	3.00	2.75	3.00	1.00	0.50	0.75	0.00	0.25	3.75	5.50	3.00	0.25	1.25	0.00	3.50	-0.226074	0.076172	0.983887	3.430000	6.230000	-1.120000	321.00	-0.01	-0.06	3.25	4.75	4.75	6.25	7.50	6.75	2.50	5.50	0.75	1.00	1.75	2.00	4.50	2.00	0.50	1.00	-0.146484	0.064453	0.984863	-4.270000	-4.060000	3.010000	603.00	-0.09	-0.12
0.22	3.75	3.00	3.00	2.75	0.75	0.75	0.75	0.00	0.25	3.75	5.50	3.00	0.25	1.00	0.00	3.50	-0.217773	0.052246	0.980469	5.670000	1.190000	-1.120000	319.00	-0.02	-0.07	3.25	4.25	4.50	6.25	7.50	7.00	2.50	5.50	1.00	1.25	1.75	2.00	4.50	2.00	0.50	1.00	-0.145020	0.073730	0.984863	-3.640000	-4.270000	3.220000	604.00	-0.08	-0.12
0.23	3.25	3.00	2.50	2.50	0.75	0.75	0.75	0.00	0.50	3.75	5.50	3.00	0.25	1.50	0.00	3.50	-0.214844	0.041992	0.958008	6.230000	-2.030000	-2.800000	313.00	0.00	-0.06	3.25	5.00	5.00	6.50	7.50	7.00	2.50	5.50	1.00	1.50	1.75	2.00	4.50	2.25	0.50	1.00	-0.146484	0.074707	0.987305	-3.290000	-4.270000	3.360000	624.00	-0.09	-0.12
0.24	3.25	2.50	2.50	2.50	0.75	0.50	0.75	0.00	0.25	3.50	5.50	2.75	0.25	0.75	0.00	3.25	-0.206543	0.026367	0.952148	6.370000	-2.940000	-4.970000	290.00	-0.00	-0.07	3.25	5.00	4.75	7.00	7.75	7.25	2.50	5.50	1.00	1.25	2.00	1.75	4.25	2.00	0.50	1.00	-0.145996	0.070801	0.984375	-3.220000	-4.340000	3.430000	625.00	-0.09	-0.12
0.25	3.25	2.25	2.25	2.50	0.75	0.75	0.75	0.00	0.25	3.50	5.50	2.75	0.00	1.00	0.00	3.50	-0.200195	0.058105	0.969238	6.370000	-2.870000	-6.440000	289.00	0.00	-0.07	3.75	5.00	5.50	6.75	7.75	7.25	2.50	5.25	0.75	1.25	1.75	2.00	4.00	2.25	0.50	1.00	-0.142090	0.069336	0.981934	-3.220000	-4.480000	3.360000	629.00	-0.10	-0.12
0.26	3.25	3.00	2.25	2.50	0.75	0.50	0.75	0.00	0.25	3.25	5.50	3.00	0.00	1.00	0.00	3.50	-0.191406	0.083008	0.935059	6.580000	-1.960000	-7.000000	293.00	-0.01	-0.07	3.75	5.25	5.50	7.25	7.75	7.25	2.50	5.50	1.00	1.00	1.50	1.75	3.50	1.75	0.25	1.00	-0.149902	0.074219	0.984863	-3.430000	-4.760000	3.430000	625.00	-0.11	-0.12
0.27	3.50	2.75	2.25	2.25	0.75	0.50	0.75	0.00	0.25	3.25	5.50	2.75	0.00	0.75	0.00	3.50	-0.193359	0.098145	0.924316	6.300000	-0.210000	-6.510000	286.00	-0.01	-0.07	3.75	5.25	5.50	7.50	8.00	7.25	2.50	5.25	1.00	1.25	1.50	1.75	3.75	2.00	0.50	0.75	-0.141602	0.071777	0.988281	-3.360000	-4.900000	3.360000	634.00	-0.11	-0.11
0.28	3.25	3.00	2.25	2.50	0.75	0.75	0.75	0.00	0.25	3.50	5.50	3.00	0.00	1.00	0.00	3.50	-0.187012	0.115723	0.923340	5.110000	2.660000	-5.460000	298.00	-0.00	-0.07	4.00	5.25	5.75	7.75	8.00	7.50	2.50	5.25	0.75	1.25	1.50	1.50	3.50	1.75	0.50	0.75	-0.144043	0.073730	0.988281	-3.220000	-5.040000	3.220000	635.00	-0.11	-0.11
0.29	3.25	2.50	2.00	2.50	0.75	0.75	0.75	0.00	0.00	3.75	5.00	3.00	0.00	1.00	0.00	3.50	-0.196289	0.105469	0.937012	3.780000	5.250000	-3.710000	285.00	-0.00	-0.07	4.50	5.75	5.75	8.00	8.00	7.50	2.50	5.25	0.75	1.00	1.00	1.75	3.00	1.50	0.50	0.75	-0.115723	0.044434	0.966797	-3.920000	-4.270000	3.500000	636.00	-0.13	-0.11
0.30	3.00	2.75	2.00	2.25	0.75	1.00	0.75	0.00	0.00	3.25	5.75	3.00	0.00	0.75	0.00	3.50	-0.198730	0.096191	0.943848	2.660000	6.860000	-2.100000	285.00	-0.00	-0.08	4.50	6.00	6.25	8.00	8.25	7.75	2.50	5.25	0.75	1.00	1.50	1.50	3.50	1.75	0.50	1.00	-0.128418	0.082031	0.976074	-3.430000	-4.760000	3.360000	660.00	-0.12	-0.11
0.31	3.00	2.25	2.00	2.75	0.75	0.75	0.75	0.25	0.25	3.50	5.75	2.75	0.25	0.75	0.00	3.50	-0.194336	0.083496	0.947266	1.750000	7.910000	-1.470000	292.00	0.01	-0.08	4.75	6.25	6.25	8.00	8.25	7.75	2.50	5.25	0.75	1.00	1.00	1.50	3.25	1.75	0.50	1.00	-0.125488	0.051270	0.988281	-3.570000	-4.690000	3.220000	657.00	-0.13	-0.11
0.32	2.75	2.50	2.00	2.25	0.75	0.50	0.75	0.25	0.00	3.25	5.75	2.75	0.00	1.00	0.00	3.50	-0.200684	0.078613	0.951660	0.910000	8.820000	-1.540000	278.00	0.01	-0.08	5.00	6.50	6.25	8.25	8.25	7.75	2.25	5.25	0.75	1.25	1.25	1.25	3.00	1.75	0.25	0.75	-0.130859	0.077148	0.979980	-3.080000	-4.620000	3.010000	657.00	-0.13	-0.11
0.33	2.75	2.50	2.00	2.50	0.75	0.75	0.75	0.25	0.00	3.50	5.50	3.00	0.25	0.75	0.00	3.50	-0.202148	0.082520	0.949219	-0.070000	9.660000	-1.610000	286.00	0.01	-0.09	5.00	6.50	6.25	8.25	8.25	7.75	2.25	5.25	1.00	0.75	1.50	1.25	3.25	1.50	0.25	0.75	-0.107910	0.108887	0.869141	-3.080000	-4.270000	3.010000	658.00	-0.13	-0.11
0.34	3.00	2.00	1.75	2.50	0.75	1.00	0.75	0.25	0.25	3.50	5.75	2.75	0.25	0.75	0.00	3.50	-0.203125	0.085938	0.950195	-1.190000	10.430000	-1.610000	287.00	0.01	-0.08	5.75	6.50	6.50	8.75	8.50	7.75	2.50	5.25	0.75	1.00	1.50	1.25	3.00	1.75	0.25	0.75	-0.117676	0.076660	0.982422	-3.150000	-3.990000	2.730000	680.00	-0.14	-0.10
0.35	2.50	2.25	1.75	2.25	0.50	0.75	0.75	0.25	0.25	3.50	5.75	2.75	0.25	0.75	0.00	3.75	-0.200684	0.081543	0.955078	-2.310000	10.920000	-1.750000	278.00	0.03	-0.09	5.50	6.75	6.50	8.75	8.50	8.00	2.50	5.00	0.50	1.00	1.50	1.25	2.50	1.75	0.00	0.75	-0.136230	0.067871	0.980469	-3.220000	-3.710000	2.520000	668.00	-0.14	-0.10
0.36	2.50	2.00	2.00	2.50	0.75	1.00	0.75	0.25	0.25	3.50	5.50	3.00	0.25	0.75	0.00	3.50	-0.215332	0.077148	0.958496	-3.360000	11.200000	-2.030000	285.00	0.02	-0.09	6.00	7.00	6.75	8.75	8.50	7.75	2.25	5.00	0.75	1.00	1.25	1.25	3.00	1.75	0.50	0.75	-0.127441	0.067871	0.989258	-3.150000	-3.430000	2.380000	682.00	-0.14	-0.10
0.37	2.75	1.25	1.75	2.50	0.75	0.75	0.75	0.25	0.25	3.50	5.50	2.75	0.25	0.75	0.00	3.75	-0.206543	0.080078	0.953613	-4.340000	11.340000	-1.960000	274.00	0.03	-0.08	6.25	7.00	6.75	8.75	8.50	8.00	2.50	5.00	0.50	0.75	1.25	1.25	3.00	1.50	0.25	0.75	-0.136230	0.067871	0.983887	-3.220000	-3.150000	2.170000	681.00	-0.15	-0.11
0.38	2.75	2.25	2.00	2.25	0.75	0.75	0.75	0.25	0.00	3.50	5.50	3.00	0.25	0.50	0.00	3.75	-0.208008	0.077637	0.960449	-4.900000	11.200000	-2.030000	280.00	0.01	-0.09	5.75	7.00	6.75	8.75	8.25	7.75	2.25	5.00	0.50	0.50	1.75	1.25	2.75	1.50	0.25	0.75	-0.139160	0.071289	0.983887	-3.290000	-2.870000	2.170000	667.00	-0.15	-0.11
0.39	2.25	2.25	1.75	2.25	0.75	1.00	0.75	0.25	0.25	3.50	5.75	2.75	0.50	0.75	0.00	3.75	-0.209473	0.077637	0.956543	-5.250000	11.200000	-2.030000	283.00	0.03	-0.09	6.00	7.25	6.75	8.75	8.50	8.00	2.50	5.00	0.75	0.75	1.25	1.25	2.75	1.75	0.50	0.75	-0.134277	0.072266	0.979492	-3.220000	-2.450000	1.890000	686.00	-0.14	-0.10
0.40	2.25	2.00	1.75	2.25	0.75	1.00	0.75	0.25	0.25	3.50	5.75	2.75	0.25	0.75	0.00	3.50	-0.211426	0.078125	0.958008	-5.530000	10.850000	-2.240000	277.00	0.03	-0.09	6.50	7.25	6.50	8.50	8.50	8.00	2.25	5.00	0.75	1.00	1.25	1.00	2.75	1.75	0.25	0.50	-0.135742	0.062500	0.977051	-3.080000	-2.310000	1.820000	678.00	-0.15	-0.10
0.41	2.25	2.00	1.75	2.25	0.75	1.25	0.75	0.25	0.25	3.25	6.00	2.75	0.25	0.75	0.00	3.75	-0.207520	0.075684	0.958984	-5.600000	10.290000	-2.170000	281.00	0.03	-0.09	6.25	7.00	7.00	8.75	8.25	8.00	2.50	5.00	0.75	1.00	1.25	1.25	2.75	1.75	0.25	0.75	-0.130859	0.062500	0.976562	-2.730000	-2.170000	1.610000	687.00	-0.15	-0.10
0.42	2.50	2.00	1.75	2.25	0.75	1.25	0.75	0.25	0.00	3.50	5.50	3.00	0.50	0.75	0.00	3.75	-0.214355	0.071777	0.962402	-6.090000	9.870000	-2.240000	282.00	0.02	-0.10	6.00	7.00	7.00	8.75	8.25	8.00	2.50	5.00	0.75	1.00	1.25	1.25	3.00	1.50	0.50	0.75	-0.130371	0.064453	0.981934	-2.310000	-2.170000	1.540000	687.00	-0.14	-0.10
0.43	2.50	1.75	2.00	1.75	0.75	1.25	0.75	0.50	0.25	3.25	5.75	3.00	0.25	1.00	0.00	3.75	-0.208008	0.070312	0.951172	-6.650000	8.960000	-2.310000	284.00	0.03	-0.09	6.25	6.75	6.75	8.50	8.25	8.00	2.25	5.25	0.75	0.75	1.50	1.25	3.00	1.75	0.50	0.75	-0.138672	0.063965	0.979004	-1.960000	-2.100000	1.330000	684.00	-0.14	-0.11
0.44	2.25	2.00	2.00	2.25	0.75	1.25	0.75	0.25	0.00	3.50	5.75	3.00	0.50	1.00	0.00	3.75	-0.206543	0.068359	0.963867	-6.510000	8.050000	-2.450000	287.00	0.03	-0.09	6.00	6.75	7.00	8.50	8.25	8.25	2.50	5.25	0.75	1.00	1.50	1.25	3.25	1.75	0.50	1.00	-0.134766	0.066895	0.975586	-1.820000	-1.960000	1.190000	697.00	-0.14	-0.11
0.45	2.25	1.75	1.75	2.25	0.75	1.00	0.75	0.50	0.25	3.75	5.75	3.00	0.75	0.75	0.00	3.75	-0.216309	0.075195	0.962402	-5.880000	7.350000	-2.520000	289.00	0.04	-0.10	5.75	6.75	7.00	8.50	8.00	8.00	2.50	5.25	0.75	1.00	1.50	1.25	3.00	1.75	0.50	1.00	-0.132324	0.074219	0.984375	-1.610000	-1.680000	0.980000	686.00	-0.14	-0.11
0.46	2.25	1.75	1.50	2.25	0.75	1.25	0.75	0.25	0.50	3.50	5.75	3.00	0.50	0.75	0.00	3.75	-0.214844	0.071777	0.952637	-5.250000	7.070000	-2.450000	284.00	0.04	-0.09	5.75	6.50	6.75	8.50	8.00	8.00	2.50	5.25	1.00	1.25	1.50	1.50	3.50	1.75	0.50	1.00	-0.143066	0.060547	0.982910	-1.190000	-1.540000	0.770000	694.00	-0.13	-0.11
0.47	2.25	1.75	1.75	2.50	0.75	0.75	0.75	0.50	0.50	3.75	6.25	3.00	0.50	0.75	0.00	4.00	-0.213867	0.068848	0.958008	-5.040000	6.930000	-2.590000	297.00	0.04	-0.09	5.50	6.25	6.75	8.25	8.00	8.00	2.50	5.50	1.25	1.00	1.75	1.50	3.50	1.75	0.50	1.00	-0.147949	0.062500	0.982910	-0.700000	-1.750000	0.840000	694.00	-0.12	-0.11
0.48	2.00	1.75	1.75	2.25	0.50	1.00	0.75	0.25	0.50	3.50	5.75	3.00	0.50	1.25	0.00	3.75	-0.217285	0.069824	0.960938	-5.040000	7.350000	-2.940000	283.00	0.05	-0.09	5.25	6.50	6.75	8.25	8.00	8.00	2.50	5.75	1.00	1.00	1.75	1.50	3.75	1.50	0.50	1.00	-0.145020	0.072754	0.990234	-0.630000	-1.960000	0.910000	694.00	-0.13	-0.11
0.49	2.00	1.75	1.25	2.25	0.75	1.00	0.75	0.50	0.50	3.50	5.75	3.00	0.50	1.00	0.00	3.75	-0.214355	0.072266	0.960938	-4.620000	7.210000	-2.870000	282.00	0.05	-0.09	5.25	6.25	6.75	8.25	8.00	8.25	2.50	5.75	1.00	1.25	1.75	1.75	4.00	1.75	0.50	1.00	-0.146973	0.073730	0.987305	-0.630000	-1.960000	1.050000	704.00	-0.12	-0.11
0.50	2.00	1.25	1.50	2.25	0.75	1.25	0.75	0.25	0.00	3.75	5.75	3.25	0.25	1.00	0.00	3.75	-0.214355	0.065918	0.959961	-4.060000	7.070000	-2.800000	275.00	0.05	-0.10	5.00	6.00	6.50	8.25	8.00	8.00	2.50	5.75	1.25	1.50	1.75	2.00	3.75	1.75	0.50	1.00	-0.143066	0.071289	0.980469	-0.700000	-2.170000	1.190000	700.00	-0.11	-0.11
0.51	1.75	1.50	1.50	2.00	0.75	1.00	0.75	0.50	0.25	3.75	5.75	3.00	0.50	1.25	0.00	3.75	-0.209961	0.073730	0.959473	-3.570000	7.210000	-2.800000	278.00	0.06	-0.09	5.00	6.00	6.50	8.25	8.00	8.25	2.50	5.75	1.00	1.50	1.75	1.75	4.00	1.75	0.50	1.00	-0.143066	0.062988	0.981934	-0.630000	-2.310000	1.050000	699.00	-0.12	-0.11
0.52	1.50	1.50	2.00	2.25	0.75	1.00	0.75	0.50	0.25	3.75	6.00	3.00	0.50	1.50	0.00	3.75	-0.214844	0.071777	0.961426	-3.080000	7.490000	-2.870000	289.00	0.06	-0.09	4.75	5.75	6.25	8.00	7.75	8.25	2.50	6.00	1.00	1.50	2.00	2.00	4.25	1.75	0.75	1.00	-0.137207	0.072754	0.976074	-0.770000	-2.380000	0.840000	699.00	-0.11	-0.12
0.53	1.25	1.50	1.50	2.25	0.75	1.25	1.00	0.50	0.75	3.75	6.00	3.00	0.50	1.00	0.00	3.75	-0.215820	0.066406	0.956543	-2.800000	7.420000	-2.730000	289.00	0.07	-0.09	4.50	5.75	6.25	8.00	8.00	8.00	2.50	6.00	1.00	1.25	2.25	1.50	4.25	1.75	0.50	1.00	-0.142578	0.066895	0.986328	-0.910000	-2.170000	0.700000	689.00	-0.11	-0.12
0.54	1.50	1.00	1.50	2.25	0.75	1.00	0.75	0.50	0.25	3.75	6.00	3.25	0.75	1.00	0.00	3.75	-0.212402	0.070312	0.955078	-2.590000	7.280000	-2.450000	279.00	0.07	-0.10	4.50	5.75	6.25	8.00	8.00	8.25	2.50	6.00	1.00	1.25	2.00	2.00	4.75	2.00	0.50	1.00	-0.139160	0.073730	0.988281	-1.190000	-1.960000	0.700000	701.00	-0.11	-0.12
0.55	1.50	1.25	2.00	2.25	0.75	0.75	0.75	0.50	0.25	3.75	5.75	3.00	0.50	1.00	0.00	4.00	-0.209961	0.069336	0.953613	-2.520000	7.280000	-2.170000	278.00	0.06	-0.09	4.50	5.50	6.00	8.00	7.75	8.25	2.50	6.00	1.00	1.50	2.25	1.75	4.50	1.75	0.50	1.00	-0.141113	0.067383	0.980469	-1.470000	-1.960000	0.490000	691.00	-0.10	-0.12
0.56	1.50	1.25	1.50	2.00	0.75	0.75	0.75	0.50	0.50	4.00	5.75	3.25	0.50	1.00	0.00	3.75	-0.211426	0.068848	0.958984	-2.520000	7.350000	-2.100000	277.00	0.07	-0.09	4.00	5.50	6.00	7.75	7.75	8.25	2.50	6.00	1.00	1.25	2.25	2.00	5.00	1.75	1.00	1.25	-0.141602	0.072754	0.988281	-1.610000	-1.960000	0.560000	694.00	-0.10	-0.13
0.57	1.50	0.75	1.50	2.00	0.75	1.00	0.75	0.25	0.50	3.50	6.00	3.00	0.75	1.25	0.00	3.75	-0.216797	0.072266	0.959473	-2.170000	7.140000	-1.960000	270.00	0.08	-0.09	4.25	5.50	6.00	7.75	7.75	8.25	2.75	6.25	1.25	1.50	2.50	2.25	5.00	1.75	0.75	1.00	-0.142578	0.078125	0.979492	-1.820000	-1.960000	0.490000	712.00	-0.09	-0.12
0.58	1.50	1.00	1.25	1.50	0.75	1.00	0.75	0.50	0.25	3.75	5.75	3.00	0.50	1.25	0.00	4.00	-0.226074	0.068848	0.967773	-1.050000	6.930000	-1.680000	264.00	0.09	-0.09	4.00	5.25	6.00	7.75	7.75	8.25	2.50	6.25	1.25	1.75	2.25	2.25	4.75	1.75	0.50	1.25	-0.145508	0.069336	0.981934	-2.240000	-2.660000	0.980000	700.00	-0.09	-0.12
0.59	1.50	1.00	1.75	2.00	0.75	0.75	0.75	0.50	0.25	3.75	5.75	3.00	0.50	1.25	0.00	4.00	-0.220215	0.063965	0.965820	0.700000	6.650000	-1.330000	273.00	0.07	-0.09	4.00	5.25	6.00	7.75	8.00	8.25	2.50	6.25	1.25	1.50	2.25	2.25	4.75	2.00	0.50	1.25	-0.149902	0.074707	0.981445	-2.310000	-3.220000	1.260000	702.00	-0.09	-0.12
0.60	1.50	1.25	1.50	2.00	0.75	1.00	0.75	0.25	0.25	3.50	5.50	3.00	0.25	1.25	0.00	3.75	-0.222168	0.076172	0.966797	2.870000	6.020000	-1.400000	262.00	0.07	-0.09	4.00	5.25	6.00	7.75	8.00	8.25	2.50	6.25	1.25	1.50	2.25	2.00	5.00	2.00	0.50	1.25	-0.144043	0.077637	0.987793	-2.380000	-3.710000	1.470000	701.00	-0.09	-0.12
0.61	1.75	1.00	1.50	2.00	0.75	0.75	0.75	0.25	0.25	3.50	5.75	3.00	0.25	1.25	0.00	3.75	-0.229492	0.031250	1.000000	11.200000	1.610000	-1.750000	262.00	0.07	-0.08	4.25	5.25	6.00	7.75	8.00	8.25	2.50	6.25	1.00	1.50	2.00	2.25	5.00	2.00	0.75	1.00	-0.142090	0.073242	0.986816	-2.450000	-4.130000	1.540000	702.00	-0.09	-0.13
0.62	1.75	1.25	1.50	1.75	0.75	0.75	0.75	0.25	0.25	3.50	5.75	3.00	0.25	1.00	0.00	4.00	-0.254883	-0.013672	1.113281	19.389999	-6.370000	-3.080000	261.00	0.07	-0.09	4.00	5.25	6.25	8.00	8.00	8.25	2.50	6.25	1.25	2.00	2.50	2.25	5.00	2.00	0.50	0.75	-0.147949	0.071289	0.981934	-2.800000	-4.480000	1.470000	715.00	-0.09	-0.12
0.63	1.75	1.25	1.50	2.25	0.50	0.75	0.75	0.25	0.00	3.50	5.75	3.00	0.25	1.00	0.00	3.75	-0.247070	-0.072754	1.098145	26.880001	-17.710001	-7.140000	259.00	0.06	-0.09	4.00	5.25	6.25	8.00	8.00	8.25	2.50	6.50	1.25	1.50	2.50	2.25	5.00	2.00	0.75	1.50	-0.140137	0.072266	0.980469	-3.080000	-4.620000	1.540000	720.00	-0.09	-0.13
0.64	1.75	1.50	1.50	2.00	0.50	0.75	0.75	0.00	0.00	3.25	5.50	3.00	0.00	1.00	0.00	4.00	-0.241211	-0.187988	1.113770	31.430000	-28.000000	-16.309999	249.00	0.06	-0.09	4.00	5.50	6.25	8.00	8.25	8.25	2.75	6.25	1.25	1.50	2.25	2.25	5.00	1.75	0.75	1.00	-0.144043	0.076172	0.982422	-3.430000	-4.830000	1.610000	717.00	-0.09	-0.12
0.65	1.50	1.50	1.25	2.00	0.75	0.50	0.75	0.00	0.75	3.50	5.50	3.00	0.00	0.25	0.00	3.75	-0.219727	-0.355469	1.097168	37.029999	-37.170002	-31.360001	248.00	0.06	-0.08	4.25	5.50	6.50	8.00	8.25	8.50	2.75	6.25	1.50	2.00	2.00	2.00	5.00	2.25	0.75	1.25	-0.144043	0.074219	0.987305	-3.640000	-5.250000	1.820000	734.00	-0.09	-0.12
0.66	1.75	1.50	1.00	1.75	0.50	0.25	0.50	0.00	0.00	3.25	5.50	3.00	0.00	0.25	0.00	3.75	-0.232910	-0.514648	1.148926	38.500000	-47.180000	-52.849998	224.00	0.06	-0.10	4.50	5.75	6.50	8.25	8.75	8.50	2.50	6.75	1.25	1.75	2.25	2.25	5.00	2.00	0.75	1.25	-0.142578	0.075684	0.986328	-3.640000	-5.390000	1.750000	749.00	-0.10	-0.12
0.67	1.75	1.50	1.25	1.50	0.25	0.25	0.50	0.00	0.25	3.25	5.25	2.75	0.00	0.50	0.00	4.00	-0.263184	-0.626465	1.163574	36.680000	-56.840000	-83.720001	223.00	0.07	-0.09	4.75	5.75	7.00	8.25	8.75	8.75	2.75	6.50	1.00	1.50	2.00	2.25	5.25	2.25	0.50	1.00	-0.145996	0.067871	0.975586	-3.570000	-5.670000	1.750000	751.00	-0.10	-0.12
0.68	2.00	1.25	1.00	1.25	0.00	0.00	0.50	0.00	0.00	3.25	5.25	2.75	0.00	0.25	0.00	3.75	-0.252930	-0.712891	1.140137	36.680000	-64.330002	-118.860001	205.00	0.07	-0.09	4.75	5.75	7.00	8.50	9.25	8.75	2.75	6.75	1.25	1.75	2.00	2.00	5.00	2.00	0.75	1.25	-0.141113	0.068359	0.979004	-3.430000	-5.950000	1.820000	766.00	-0.10	-0.12
0.69	1.50	1.00	0.75	1.25	0.25	0.00	0.50	0.00	0.00	3.00	5.50	2.75	0.00	0.25	0.00	4.00	-0.257812	-0.634277	1.132324	37.099998	-68.739998	-155.259995	199.00	0.10	-0.10	5.00	5.75	7.25	8.50	9.25	8.75	2.75	6.75	1.25	1.75	2.00	2.25	5.25	2.50	0.50	1.25	-0.145996	0.073730	0.981445	-3.220000	-6.230000	1.890000	778.00	-0.10	-0.12
0.70	1.50	0.75	1.25	0.75	0.25	0.00	0.50	0.00	0.00	3.25	5.25	2.50	0.00	0.00	0.00	3.75	-0.297363	-0.604492	1.109375	36.049999	-71.959999	-190.330002	191.00	0.10	-0.09	5.25	6.00	7.25	8.50	9.50	9.00	2.75	6.75	1.25	1.50	2.00	2.25	5.25	2.00	0.75	1.25	-0.137695	0.071777	0.993164	-2.940000	-6.300000	1.960000	784.00	-0.10	-0.12
0.71	1.00	0.75	0.75	0.75	0.25	0.00	0.50	0.00	0.00	3.25	5.25	2.25	0.00	0.25	0.00	3.75	-0.294434	-0.625488	1.022461	34.720001	-74.480003	-222.880005	179.00	0.12	-0.09	5.25	6.25	7.50	8.75	9.75	9.00	2.75	6.75	1.50	1.50	1.75	2.25	5.00	2.00	0.50	1.00	-0.138184	0.070312	0.982910	-2.660000	-6.230000	2.100000	789.00	-0.11	-0.11
0.72	1.00	0.50	0.50	0.50	0.00	0.00	0.50	0.00	0.00	3.25	5.25	2.75	0.00	0.00	0.00	4.00	-0.283691	-0.574219	1.022949	36.330002	-73.639999	-254.169998	173.00	0.15	-0.10	5.25	6.25	7.50	8.75	10.00	9.25	2.75	6.75	1.50	1.75	2.25	2.25	5.25	2.00	0.75	1.25	-0.140137	0.070312	0.990723	-2.450000	-6.160000	2.240000	809.00	-0.10	-0.11
0.73	0.75	0.00	0.25	0.75	0.00	0.00	0.50	0.00	0.00	3.25	5.25	2.75	0.00	0.00	0.00	4.00	-0.218750	-0.575195	0.998047	39.900002	-73.220001	-283.709991	166.00	0.17	-0.11	5.75	6.25	7.50	9.00	10.00	9.25	2.75	7.00	1.25	1.75	2.00	2.25	5.25	2.25	0.75	1.25	-0.140625	0.069336	0.987793	-2.240000	-6.020000	2.520000	817.00	-0.11	-0.12
0.74	0.25	0.00	0.25	0.00	0.00	0.00	0.50	0.00	0.00	3.00	5.25	2.75	0.00	0.00	0.00	3.75	-0.062988	-0.532227	1.037598	43.400002	-72.099998	-312.760010	149.00	0.22	-0.11	5.75	6.50	7.75	9.00	10.50	9.50	2.75	7.00	1.00	2.00	1.75	2.25	5.25	2.25	0.50	1.00	-0.134766	0.070312	0.986328	-1.960000	-5.880000	2.590000	823.00	-0.11	-0.12
0.75	0.00	0.00	0.00	0.25	0.00	0.00	0.50	0.00	0.00	3.25	5.25	2.75	0.00	0.00	0.00	4.00	-0.022949	-0.413086	1.045898	50.750000	-71.470001	-338.239990	150.00	0.23	-0.12	6.00	6.50	7.75	9.00	10.25	9.50	2.75	6.75	1.25	1.50	1.75	2.25	5.25	2.00	0.75	1.25	-0.135742	0.077637	0.986816	-2.030000	-5.670000	2.450000	819.00	-0.11	-0.11
0.76	0.00	0.00	0.00	0.25	0.00	0.00	0.50	0.00	0.00	3.50	5.25	2.50	0.00	0.00	0.00	3.75	-0.343262	-0.220215	0.812012	61.880001	-68.110001	-352.309998	149.00	0.23	-0.11	6.25	6.75	8.00	9.00	10.50	9.50	2.75	7.00	1.25	1.50	2.00	2.25	5.25	2.00	0.50	1.00	-0.136230	0.072266	0.992188	-2.170000	-5.390000	2.310000	832.00	-0.12	-0.11
0.77	0.00	0.00	0.25	0.00	0.25	0.00	0.50	0.00	0.00	3.50	5.25	2.50	0.00	0.00	0.00	4.00	-0.304688	-0.077148	0.517578	79.309998	-51.099998	-355.529999	153.00	0.22	-0.11	6.25	7.00	8.00	9.25	10.50	9.50	2.75	7.00	1.75	1.50	2.00	2.00	5.25	2.25	0.50	1.00	-0.137207	0.077148	0.988770	-2.380000	-4.970000	2.240000	843.00	-0.11	-0.11
0.78	0.00	0.00	0.00	0.25	0.00	0.00	0.50	0.00	0.00	3.25	5.25	2.50	0.00	0.00	0.00	3.75	-0.464355	0.020508	0.580078	84.349998	-31.150000	-346.079987	146.00	0.23	-0.12	6.00	7.25	8.00	9.25	10.75	9.50	2.75	7.00	1.25	1.25	1.75	2.25	5.25	2.25	0.50	1.00	-0.136230	0.074707	0.980469	-2.870000	-4.550000	2.170000	836.00	-0.12	-0.11
0.79	0.00	0.00	0.00	0.25	0.00	0.00	0.50	0.00	0.00	3.25	5.25	2.50	0.00	0.00	0.00	4.00	-0.300293	0.007812	0.757324	62.720001	-12.250000	-314.019989	147.00	0.23	-0.12	6.75	7.00	8.00	9.25	10.50	9.50	2.75	7.00	1.25	1.50	1.75	2.00	5.00	2.25	0.75	1.25	-0.135254	0.073242	0.980957	-3.010000	-4.340000	2.100000	840.00	-0.12	-0.11
0.80	0.00	0.00	0.00	0.25	0.00	0.00	0.50	0.00	0.00	3.25	5.25	2.50	0.00	0.00	0.00	3.75	-0.289062	0.089355	1.013184	12.110000	5.110000	-266.839996	146.00	0.23	-0.12	6.50	7.25	8.25	9.25	10.50	9.50	2.75	6.75	1.25	1.50	2.00	1.75	5.00	2.00	1.00	1.00	-0.139648	0.071289	0.983398	-3.360000	-4.270000	2.170000	838.00	-0.12	-0.11
0.81	0.00	0.00	0.00	0.50	0.00	0.00	0.75	0.00	0.00	3.25	5.25	2.50	0.00	0.00	0.00	4.00	-0.169434	0.350586	1.224121	-33.320000	11.550000	-213.779999	154.00	0.22	-0.11	6.75	7.50	8.25	9.25	10.75	9.50	2.75	6.75	1.25	1.25	1.75	2.00	5.00	2.00	0.50	1.00	-0.138672	0.072754	0.986816	-3.780000	-4.200000	2.240000	838.00	-0.12	-0.11
0.82	0.00	0.00	0.00	0.00	0.25	0.00	0.50	0.00	0.00	3.25	5.25	2.50	0.00	0.00	0.00	4.00	-0.082520	0.765625	1.252930	-45.009998	-17.290001	-109.620003	147.00	0.23	-0.11	7.00	7.50	8.00	9.50	10.75	9.50	2.75	6.75	1.25	1.50	1.75	2.25	5.00	2.00	0.50	1.00	-0.137207	0.073730	0.989746	-4.060000	-4.060000	2.310000	846.00	-0.12	-0.11
0.83	0.00	0.00	0.00	0.25	0.00	0.00	0.50	0.00	0.00	3.25	5.50	2.50	0.00	0.00	0.00	3.75	-0.090332	0.748535	1.006348	-33.950001	-29.680000	-62.299999	149.00	0.23	-0.12	7.00	7.75	8.25	9.50	11.25	9.50	2.75	6.75	1.25	1.25	1.75	2.00	4.25	1.75	0.50	1.00	-0.139648	0.073730	0.984375	-4.410000	-3.850000	2.380000	843.00	-0.13	-0.11
0.84	0.00	0.00	0.00	0.00	0.00	0.00	0.75	0.00	0.00	3.25	5.25	2.50	0.00	0.00	0.00	4.00	-0.074219	0.725586	0.895020	-25.059999	-30.309999	-19.110001	148.00	0.23	-0.11	7.00	7.75	8.25	9.50	11.00	9.50	2.75	6.50	1.25	1.50	1.75	2.00	4.75	2.00	0.50	1.00	-0.134766	0.061035	0.985840	-4.760000	-3.990000	2.450000	845.00	-0.13	-0.11
0.85	0.00	0.00	0.25	0.75	0.00	0.00	0.50	0.00	0.00	3.00	5.25	2.50	0.00	0.00	0.00	4.00	-0.067871	0.698730	0.905273	-19.809999	-26.740000	19.530001	153.00	0.20	-0.12	7.75	7.50	8.25	9.50	11.25	9.50	2.75	6.50	1.00	1.25	1.75	1.50	4.25	1.75	0.25	1.00	-0.134766	0.076660	0.990234	-5.040000	-4.060000	2.660000	833.00	-0.14	-0.10
0.86	0.00	0.00	0.00	0.50	0.00	0.00	0.75	0.00	0.00	3.50	5.25	2.50	0.00	0.00	0.00	3.75	-0.054199	0.608398	0.907227	-16.940001	-24.639999	54.250000	155.00	0.21	-0.11	7.50	8.00	8.50	9.75	11.25	9.50	2.75	6.50	1.00	1.25	1.50	1.50	4.00	2.00	0.25	0.75	-0.134277	0.066895	0.986816	-5.320000	-3.990000	2.800000	837.00	-0.14	-0.10
0.87	0.00	0.00	0.00	0.50	0.00	0.00	0.50	0.00	0.00	3.25	5.25	2.50	0.00	0.00	0.00	3.75	-0.032715	0.532715	0.872070	-14.840000	-23.660000	85.120003	149.00	0.22	-0.12	7.50	8.00	8.50	9.75	11.00	9.25	2.75	6.25	1.25	1.25	1.25	1.50	3.75	2.00	0.75	0.75	-0.134277	0.072266	0.986328	-5.670000	-3.850000	2.870000	831.00	-0.14	-0.10
0.88	0.00	0.00	0.00	0.25	0.00	0.00	0.50	0.00	0.00	3.25	5.25	2.50	0.00	0.00	0.00	4.00	-0.050293	0.409668	0.816895	-17.080000	-22.680000	112.489998	147.00	0.23	-0.12	8.00	8.25	8.50	9.75	11.25	9.25	2.75	6.00	1.00	1.50	1.25	1.25	3.50	2.00	0.50	0.75	-0.139648	0.070312	0.979492	-6.020000	-3.780000	2.870000	829.00	-0.15	-0.09
0.89	0.00	0.00	0.00	0.25	0.00	0.00	0.50	0.00	0.00	3.25	5.25	2.75	0.00	0.25	0.00	4.00	-0.100098	0.314941	0.750977	-23.309999	-19.530001	135.169998	152.00	0.23	-0.12	7.75	8.50	8.75	9.75	11.00	9.25	2.75	6.00	1.25	1.25	1.50	1.00	3.00	1.75	0.25	0.75	-0.137695	0.051758	0.987305	-6.230000	-3.920000	2.940000	821.00	-0.15	-0.09
0.90	0.00	0.00	0.00	0.25	0.00	0.00	0.50	0.00	0.00	3.25	5.25	2.50	0.00	0.00	0.00	3.75	-0.152344	0.266602	0.712891	-28.559999	-14.210000	151.619995	146.00	0.23	-0.12	8.25	8.75	8.75	9.75	11.50	9.25	2.75	5.75	1.25	1.25	1.25	1.00	3.00	1.75	0.25	0.75	-0.131348	0.062012	0.980957	-6.090000	-4.060000	2.940000	827.00	-0.15	-0.09
0.91	0.25	0.00	0.00	0.25	0.00	0.00	0.50	0.00	0.00	3.25	5.25	2.50	0.00	0.00	0.00	3.75	-0.198242	0.245117	0.717285	-28.980000	-9.100000	161.910004	149.00	0.22	-0.11	8.50	9.00	8.75	10.00	11.25	9.00	2.75	5.75	1.00	1.25	1.25	1.00	3.00	1.75	0.25	0.50	-0.131836	0.064941	0.987305	-5.880000	-4.270000	3.080000	825.00	-0.16	-0.09
0.92	0.00	0.00	0.00	0.25	0.00	0.00	0.50	0.00	0.25	3.25	5.50	2.50	0.00	0.00	0.00	3.75	-0.240234	0.213867	0.695312	-27.230000	-4.060000	167.440002	152.00	0.23	-0.11	8.50	9.00	9.00	10.00	11.25	9.00	2.75	5.50	0.75	1.00	1.00	1.25	2.50	1.75	0.25	0.50	-0.084961	0.086914	0.881348	-5.880000	-3.710000	3.010000	814.00	-0.17	-0.09
0.93	0.00	0.00	0.00	0.25	0.00	0.00	0.50	0.00	0.00	3.50	5.25	2.75	0.00	0.00	0.00	4.00	-0.255859	0.178223	0.711914	-24.990000	0.630000	170.449997	153.00	0.23	-0.12	8.75	9.00	8.75	10.00	11.25	9.00	2.75	5.50	0.75	1.25	1.25	0.75	2.50	1.75	0.25	0.50	-0.112793	0.101562	0.956543	-5.670000	-3.500000	2.520000	813.00	-0.17	-0.09
0.94	0.00	0.00	0.00	0.25	0.00	0.00	0.50	0.00	0.00	3.25	5.25	2.50	0.00	0.00	0.00	4.00	-0.292969	0.106445	0.658203	-22.049999	4.830000	169.470001	147.00	0.23	-0.12	9.25	9.00	9.00	10.00	11.50	9.00	2.50	5.50	1.00	1.00	1.25	1.00	2.25	1.50	0.25	0.50	-0.160156	0.048340	0.993164	-5.460000	-3.850000	2.240000	819.00	-0.17	-0.09
0.95	0.00	0.00	0.00	0.25	0.00	0.00	0.50	0.00	0.00	3.25	5.25	2.75	0.00	0.00	0.00	3.75	-0.320312	0.018555	0.652344	-12.390000	8.820000	158.270004	149.00	0.23	-0.12	9.00	9.25	9.00	10.25	11.50	8.75	2.75	5.50	0.75	1.00	0.75	0.75	2.25	1.75	0.25	0.50	-0.124512	0.063965	0.986328	-5.460000	-3.990000	2.240000	814.00	-0.17	-0.08
0.96	0.00	0.00	0.00	0.25	0.00	0.00	0.50	0.00	0.00	3.25	5.25	2.75	0.00	0.00	0.00	4.00	-0.270020	-0.131836	0.660156	4.060000	10.220000	132.789993	150.00	0.23	-0.12	9.00	9.25	9.00	10.00	11.50	8.75	2.75	5.25	1.00	1.00	1.00	0.75	2.25	1.50	0.50	0.50	-0.097656	0.126465	0.956543	-4.900000	-4.060000	1.960000	814.00	-0.17	-0.08
0.97	0.00	0.00	0.25	0.25	0.00	0.00	0.50	0.00	0.00	3.25	5.50	2.75	0.00	0.00	0.00	4.00	-0.173828	-0.272949	0.689453	10.360000	9.940000	95.760002	155.00	0.22	-0.12	9.25	9.25	9.25	10.00	11.50	8.75	2.75	5.25	1.00	1.00	1.00	0.75	2.25	1.50	0.25	0.50	-0.104492	0.061035	0.964844	-5.250000	-4.410000	1.470000	816.00	-0.17	-0.08
0.98	0.00	0.00	0.00	0.00	0.00	0.25	0.50	0.00	0.00	3.25	5.25	2.75	0.00	0.00	0.00	3.75	-0.033203	-0.270020	0.805664	7.070000	4.690000	51.450001	149.00	0.23	-0.12	9.00	9.00	9.00	10.00	11.75	8.75	2.75	5.25	1.00	1.25	1.25	0.75	2.25	1.75	0.50	0.50	-0.124023	0.058594	0.979492	-5.040000	-2.380000	0.420000	821.00	-0.16	-0.08
0.99	0.50	0.50	0.50	0.75	0.00	0.00	0.50	0.00	0.00	3.00	5.25	2.75	0.00	0.00	0.00	4.00	-0.699707	1.039062	0.603027	88.340004	-5.320000	-16.590000	168.00	0.16	-0.12	8.75	9.00	9.00	9.50	11.50	8.50	2.75	5.25	1.00	1.25	1.25	1.00	2.00	1.50	0.50	0.50	-0.123535	0.061523	0.982910	-4.620000	-1.190000	0.140000	806.00	-0.16	-0.08
1.00	1.25	0.75	1.00	1.25	0.00	0.00	0.50	0.00	0.00	3.00	5.25	2.50	0.00	0.00	0.00	3.75	0.055664	0.050293	1.538086	140.630005	33.389999	-73.220001	185.00	0.10	-0.10	8.50	8.50	8.75	9.50	11.50	8.50	2.75	5.25	1.00	1.25	1.25	1.00	2.50	1.75	0.50	0.75	-0.119141	0.062012	0.996582	-4.270000	0.980000	-0.000000	804.00	-0.16	-0.08
1.01	2.00	2.25	0.75	1.25	0.00	0.00	0.50	0.00	0.00	3.50	4.50	2.75	0.00	0.00	0.00	3.75	-0.254883	2.085449	1.043945	66.150002	20.020000	-98.489998	204.00	0.05	-0.10	7.75	8.25	8.50	9.25	11.25	8.25	2.75	5.25	1.00	1.25	1.25	1.00	2.25	1.75	0.50	0.50	-0.124512	0.063477	0.985840	-4.130000	3.360000	-0.210000	779.00	-0.16	-0.08
1.02	3.00	3.25	1.25	2.25	0.00	0.00	0.50	0.00	0.00	3.00	5.25	2.75	0.00	0.00	0.00	4.00	-0.215820	1.498535	1.399902	44.310001	24.219999	-36.400002	244.00	-0.01	-0.10	7.00	7.75	8.00	8.75	11.25	8.00	2.75	5.00	1.50	1.50	1.25	1.00	2.25	1.75	0.50	0.75	-0.117676	0.058594	0.981934	-4.480000	5.180000	-0.630000	760.00	-0.14	-0.08
1.03	3.50	4.00	1.50	2.50	0.25	0.25	0.50	0.00	0.00	3.25	5.50	2.75	0.00	0.00	0.00	4.00	0.041504	-0.629395	0.954590	29.750000	29.820000	22.049999	273.00	-0.03	-0.09	6.25	6.75	7.75	8.25	10.75	7.75	3.00	5.00	1.50	1.75	1.75	1.25	2.75	1.75	0.25	0.75	-0.143066	0.057129	0.987793	-4.270000	6.370000	-1.050000	742.00	-0.13	-0.08
1.04	3.75	5.00	1.75	3.25	0.00	0.75	0.50	0.00	0.00	3.00	5.25	2.75	0.00	0.00	0.00	4.00	-0.045898	-0.344238	0.923340	28.070000	26.180000	-11.410000	293.00	-0.06	-0.10	5.25	6.25	7.00	7.75	10.50	7.50	2.75	5.00	1.75	1.75	2.00	1.00	2.50	2.25	0.50	0.75	-0.129883	0.055664	0.989258	-3.990000	7.420000	-0.980000	712.00	-0.12	-0.08
1.05	4.50	5.50	2.00	3.25	0.25	0.75	0.25	0.00	0.00	3.25	5.50	3.00	0.00	0.00	0.00	3.75	-0.103516	0.273438	1.020508	42.490002	24.010000	-25.830000	313.00	-0.07	-0.10	4.50	5.50	6.50	7.00	10.00	7.00	2.75	5.00	1.75	2.00	2.00	1.25	2.50	1.75	0.50	1.00	-0.131836	0.062988	0.984863	-3.640000	8.820000	-0.910000	675.00	-0.11	-0.08
1.06	5.50	6.50	2.50	4.50	0.25	1.25	0.25	0.00	0.00	3.00	5.50	2.75	0.00	0.00	0.00	4.00	-0.150391	0.440918	1.017090	46.549999	22.820000	-19.530001	354.00	-0.11	-0.10	3.75	5.00	5.50	6.25	9.50	6.25	3.00	4.75	2.00	2.00	2.25	1.25	2.75	2.25	0.75	1.00	-0.132812	0.065430	0.988281	-3.710000	10.710000	-1.260000	645.00	-0.08	-0.08
1.07	6.75	8.00	3.00	5.25	0.25	1.75	0.25	0.25	0.00	2.75	4.75	3.00	0.00	0.00	0.00	4.00	-0.102539	0.315918	1.013184	39.060001	24.500000	-9.030000	396.00	-0.14	-0.10	2.50	4.00	5.00	5.50	9.00	5.50	2.75	4.50	2.50	2.50	2.50	1.75	2.75	2.50	1.00	1.00	-0.151367	0.071289	0.997070	-3.500000	13.440001	-2.030000	612.00	-0.05	-0.08
1.08	8.25	9.50	3.50	6.75	0.50	2.50	0.50	0.25	0.00	3.00	5.25	3.00	0.25	0.00	0.00	3.75	-0.107910	0.166016	1.047852	31.850000	25.059999	-4.410000	471.00	-0.15	-0.10	2.00	2.50	3.25	4.75	8.00	5.00	2.75	4.00	3.00	2.75	2.75	1.75	3.25	2.75	0.75	1.00	-0.134766	0.059082	0.989746	-3.360000	16.240000	-3.150000	557.00	-0.02	-0.07
1.09	9.00	10.25	4.25	8.25	0.75	2.75	0.50	0.25	0.00	3.00	5.50	3.25	0.25	0.00	0.00	4.00	-0.119629	0.177246	1.057617	27.160000	21.910000	-5.040000	522.00	-0.16	-0.10	1.25	2.25	2.75	3.50	6.75	3.50	2.50	3.50	3.00	3.25	3.25	2.00	3.50	3.00	0.75	1.25	-0.165527	0.079102	1.007324	-3.150000	19.740000	-4.760000	505.00	0.01	-0.07
1.10	9.75	12.00	4.50	8.50	0.25	4.00	0.25	0.50	0.00	3.00	5.50	3.25	0.25	0.00	0.00	4.00	-0.094238	0.279785	0.959473	27.090000	18.969999	-3.430000	560.00	-0.17	-0.11	1.00	1.75	2.00	3.00	5.25	2.50	2.50	2.75	4.00	3.50	3.50	2.25	3.25	3.50	1.00	1.25	-0.241211	0.020996	0.916504	-1.540000	23.520000	-7.770000	471.00	0.05	-0.05
1.11	10.50	14.00	4.75	9.25	0.50	5.50	0.25	0.50	0.00	3.00	5.50	3.25	0.25	0.00	0.00	4.00	-0.120117	0.270508	0.996094	24.219999	19.250000	1.540000	616.00	-0.19	-0.11	0.50	1.25	1.50	2.25	3.50	1.75	2.25	2.00	3.75	3.75	3.75	2.00	3.00	4.00	1.00	1.50	-0.130371	0.104980	1.074707	1.260000	32.060001	-10.430000	407.00	0.09	-0.04
1.12	12.75	15.50	5.75	9.75	0.50	6.25	0.25	1.00	0.00	3.00	5.50	3.00	0.25	0.00	0.00	3.75	-0.133301	0.202637	1.087891	17.639999	15.820000	4.480000	681.00	-0.20	-0.11	0.75	1.00	1.00	2.00	3.00	1.25	2.00	1.75	4.00	4.00	4.00	2.25	2.75	4.50	1.00	1.50	-0.107910	0.104004	1.336914	1.750000	82.459999	-11.270000	394.00	0.11	-0.03
1.13	13.50	16.50	5.75	11.00	0.50	7.25	0.25	1.00	0.00	3.00	5.75	3.00	0.25	0.00	0.00	4.00	-0.105469	0.200195	0.987305	14.700000	10.430000	4.830000	727.00	-0.20	-0.11	0.50	0.50	1.00	1.50	2.00	1.00	2.00	1.25	4.00	4.25	3.75	2.25	2.50	5.00	0.75	1.50	-0.143555	0.152832	1.286133	4.690000	137.059998	-17.710001	359.00	0.14	-0.01
1.14	14.00	17.75	6.50	12.00	0.50	8.00	0.50	1.50	0.00	3.25	5.50	3.00	0.25	0.00	0.00	3.75	-0.095215	0.210449	0.972168	12.740000	9.800000	4.900000	781.00	-0.21	-0.11	0.50	0.50	1.00	2.00	1.75	0.75	1.75	1.25	3.75	3.50	3.50	1.75	2.00	5.50	0.75	1.25	-0.208496	0.096680	1.357910	-2.450000	179.830002	-19.809999	335.00	0.14	-0.01
1.15	14.75	18.50	6.75	12.25	0.50	8.50	0.50	1.50	0.00	3.00	5.50	3.25	0.25	0.00	0.00	4.00	-0.099121	0.202148	0.979492	9.940000	9.380000	4.900000	808.00	-0.21	-0.11	0.25	0.50	1.00	1.25	1.25	0.50	1.50	0.75	3.50	3.50	3.25	1.50	1.75	6.00	1.00	1.50	-0.235840	0.102539	1.307129	-15.190001	215.460007	-24.010000	302.00	0.17	0.01
1.16	15.75	19.50	7.25	12.75	0.50	9.00	0.50	1.50	0.00	3.00	5.75	3.25	0.25	0.00	0.00	4.00	-0.085938	0.208008	0.950684	7.000000	8.960000	4.060000	847.00	-0.21	-0.11	0.00	0.00	0.75	0.75	1.25	0.75	1.25	0.50	2.50	2.50	2.75	1.25	1.00	6.25	1.00	1.25	-0.294922	0.113770	1.377930	-30.730000	240.100006	-25.969999	245.00	0.20	0.02
1.17	16.25	20.25	7.50	13.75	0.75	9.50	0.50	2.00	0.00	3.00	5.75	3.25	0.50	0.00	0.00	3.75	-0.082031	0.223145	0.930664	3.150000	10.570000	3.220000	889.00	-0.22	-0.11	0.00	0.25	0.75	1.25	0.75	0.50	1.25	0.25	2.50	2.50	2.50	1.00	1.00	7.00	0.75	0.75	-0.322754	0.099121	1.530273	-37.869999	253.750000	-27.510000	236.00	0.19	0.04
1.18	17.25	21.00	7.50	14.25	0.75	10.00	0.50	2.00	0.00	3.25	5.75	3.25	0.25	0.00	0.00	4.00	-0.081055	0.208496	0.939453	-1.120000	13.300000	2.660000	919.00	-0.22	-0.11	0.00	0.00	0.50	0.75	0.50	0.25	1.25	0.25	1.75	2.00	2.00	0.75	0.50	7.00	0.75	0.75	-0.458984	0.138184	1.434570	-44.799999	282.799988	-29.260000	193.00	0.23	0.06
1.19	17.75	21.50	7.75	14.75	0.75	10.00	0.50	2.25	0.00	3.25	5.75	3.50	0.50	0.00	0.00	4.00	-0.075684	0.197754	0.954590	-4.900000	15.750000	1.540000	946.00	-0.22	-0.11	0.00	0.00	0.25	0.75	0.50	0.00	1.25	0.25	1.50	1.75	1.50	0.25	0.00	6.75	0.50	0.50	-0.457031	0.125488	1.615234	-55.090000	296.029999	-33.599998	161.00	0.24	0.09
1.20	17.50	22.00	8.00	15.00	0.75	10.75	0.50	2.25	0.00	3.25	5.75	3.00	0.25	0.00	0.00	3.75	-0.104980	0.205078	1.002930	-5.740000	15.610000	1.190000	953.00	-0.22	-0.11	0.00	0.00	0.25	0.50	0.25	0.00	1.25	0.00	1.00	1.25	1.50	0.50	0.50	6.00	0.00	0.25	-0.604492	0.163086	1.738281	-67.550003	301.839996	-38.150002	134.00	0.24	0.09
1.21	18.25	22.75	8.00	15.50	0.75	11.00	0.50	2.25	0.00	3.25	5.75	3.25	0.50	0.00	0.00	4.00	-0.117188	0.188477	1.018066	-2.590000	12.110000	1.820000	982.00	-0.22	-0.11	0.25	0.25	0.00	0.25	0.00	0.00	1.50	0.00	0.50	1.00	1.00	0.00	0.00	5.00	0.00	0.00	-0.477051	0.134277	1.569336	-76.790001	298.760010	-43.820000	100.00	0.23	0.14
1.22	18.25	22.50	8.00	15.75	0.75	11.50	0.50	2.50	0.00	3.25	5.50	3.25	0.25	0.00	0.00	4.00	-0.095215	0.186523	0.988281	0.910000	8.190000	2.100000	987.00	-0.22	-0.12	0.00	0.00	0.25	0.25	0.25	0.25	1.50	0.00	0.75	0.75	0.75	0.25	0.00	3.00	0.00	0.00	-0.363770	0.099121	1.459961	-92.400002	293.790009	-48.930000	87.00	0.19	0.12
1.23	19.00	23.00	8.00	15.75	0.75	11.25	0.50	2.50	0.00	3.00	5.75	3.25	0.50	0.00	0.00	4.25	-0.103516	0.198730	0.990234	3.220000	6.090000	2.100000	1000.00	-0.22	-0.12	0.00	0.00	0.25	0.75	0.25	0.25	1.50	0.00	0.00	0.75	0.75	0.00	0.00	1.50	0.00	0.00	-0.349609	-0.021973	1.607422	-120.540001	282.239990	-49.700001	68.00	0.10	0.08
1.24	18.75	23.00	8.25	16.00	1.00	12.00	0.50	2.50	0.00	3.00	5.75	3.25	0.50	0.00	0.00	4.00	-0.085938	0.189941	0.929688	5.950000	4.550000	1.820000	1012.00	-0.22	-0.12	0.50	0.50	0.25	0.75	0.00	0.00	1.50	0.00	0.00	0.50	0.25	0.00	0.00	0.25	0.00	0.00	0.907715	0.386719	2.140625	-154.210007	245.979996	-45.080002	53.00	-0.05	0.08
1.25	19.00	22.75	8.25	15.75	1.00	12.00	0.50	2.75	0.00	3.25	5.50	3.25	0.50	0.00	0.00	4.00	-0.067871	0.208496	0.897461	5.110000	7.140000	1.680000	1014.00	-0.22	-0.12	0.25	0.00	0.50	0.50	0.00	0.00	1.50	0.00	0.00	0.50	0.25	0.25	0.25	0.75	0.00	0.00	1.016602	0.812988	2.045898	-129.500000	167.300003	-38.150002	55.00	0.06	0.08
1.26	18.75	23.00	8.25	16.50	0.75	12.25	0.50	2.75	0.00	3.25	5.75	3.25	0.75	0.00	0.00	4.25	-0.074707	0.210938	0.915039	2.520000	11.410000	1.120000	1028.00	-0.22	-0.12	0.25	0.50	0.00	0.00	0.25	0.00	1.50	0.00	0.00	0.75	0.25	0.00	0.25	0.00	0.00	0.00	1.288086	0.722656	1.857910	-34.860001	76.230003	-29.680000	45.00	0.00	0.00
1.27	18.50	22.75	8.25	16.50	0.75	12.50	0.50	2.75	0.00	3.50	5.75	3.00	0.50	0.00	0.00	4.00	-0.078613	0.208496	0.919434	-0.070000	14.700000	0.490000	1022.00	-0.22	-0.12	0.00	0.00	0.00	0.50	0.00	0.00	1.75	0.00	0.00	0.25	0.25	0.00	0.00	0.00	0.00	0.00	0.988281	0.174805	1.004395	16.660000	27.790001	-31.430000	37.00	0.00	0.00
1.28	18.25	22.50	8.00	16.50	0.75	13.00	0.50	3.00	0.00	3.75	5.75	3.00	0.50	0.00	0.00	4.00	-0.063965	0.216797	0.875000	-3.360000	18.830000	-0.280000	1026.00	-0.22	-0.12	0.00	0.50	0.25	0.50	0.00	0.25	1.50	0.00	0.00	0.75	0.00	0.00	0.00	0.25	0.00	0.00	0.863770	0.055176	0.866211	16.870001	8.120000	-37.869999	48.00	0.00	0.00
1.29	17.75	22.25	8.00	16.25	1.00	12.75	0.50	3.25	0.00	3.25	6.00	3.25	0.75	0.00	0.00	4.00	-0.098145	0.219238	0.953613	-7.420000	23.590000	-1.120000	1022.00	-0.21	-0.12	0.00	0.50	0.00	0.50	0.25	0.00	1.50	0.00	0.00	0.50	0.00	0.00	0.00	0.00	0.00	0.00	0.823730	0.089844	0.919922	16.799999	-10.850000	-44.520000	41.00	0.00	0.00
1.30	17.00	21.75	7.75	16.25	1.00	13.00	0.50	3.75	0.00	3.50	6.00	3.25	0.75	0.00	0.00	4.00	-0.120605	0.197754	0.989258	-8.540000	23.170000	-1.330000	1020.00	-0.21	-0.13	0.00	0.50	0.00	0.50	0.25	0.25	1.75	0.00	0.00	0.25	0.25	0.00	0.00	0.00	0.00	0.00	0.794434	0.057129	0.931641	30.100000	-33.950001	-52.360001	47.00	0.00	0.00
1.31	16.75	21.75	8.00	16.25	1.00	13.00	0.50	3.75	0.00	3.25	5.75	3.00	0.75	0.00	0.00	4.00	-0.099121	0.211914	0.912109	-9.800000	22.190001	-1.680000	1012.00	-0.21	-0.13	0.00	0.25	0.00	0.50	0.00	0.00	1.50	0.00	0.00	0.50	0.25	0.00	0.00	0.00	0.00	0.00	0.774414	-0.000488	0.918457	44.730000	-57.189999	-59.220001	38.00	0.00	0.00
1.32	16.50	21.25	7.75	16.00	1.00	13.25	0.50	4.00	0.00	3.25	5.75	3.25	0.75	0.00	0.00	4.25	-0.075195	0.223633	0.842285	-15.470000	25.830000	-1.960000	1010.00	-0.21	-0.13	0.00	0.25	0.25	0.75	0.00	0.00	1.75	0.00	0.00	0.50	0.00	0.00	0.00	0.00	0.00	0.00	0.734863	-0.043457	0.931641	50.959999	-78.260002	-61.810001	45.00	0.00	0.00
1.33	16.00	20.50	8.00	15.75	1.00	13.25	0.50	4.00	0.00	3.25	6.00	3.25	0.75	0.00	0.00	4.00	-0.062988	0.217285	0.810547	-28.559999	35.490002	-2.800000	999.00	-0.20	-0.13	0.00	0.00	0.25	0.25	0.25	0.00	1.75	0.00	0.00	0.50	0.00	0.00	0.00	0.00	0.00	0.00	0.703125	-0.046875	0.958984	50.680000	-98.070000	-59.080002	40.00	0.00	0.00
1.34	15.50	20.00	8.00	15.50	1.25	13.00	0.50	4.50	0.00	3.75	6.25	3.50	0.75	0.00	0.00	4.25	-0.045410	0.218262	0.717285	-50.189999	50.330002	-5.110000	1006.00	-0.20	-0.13	0.00	0.25	0.00	0.50	0.00	0.00	1.75	0.00	0.00	0.00	0.00	0.00	0.00	0.00	0.00	0.00	0.668945	-0.033203	0.968750	49.700001	-117.180000	-52.150002	34.00	0.00	0.00
1.35	15.25	19.50	7.75	15.50	1.25	13.25	0.75	4.25	0.00	3.75	6.00	3.25	1.00	0.00	0.00	4.25	-0.036621	0.227051	0.659668	-84.699997	71.260002	-8.680000	996.00	-0.19	-0.13	0.00	0.00	0.00	0.25	0.00	0.00	1.75	0.00	0.00	0.00	0.00	0.00	0.00	0.00	0.00	0.00	0.605469	-0.039551	0.997559	52.500000	-135.169998	-42.630001	29.00	0.00	0.00
1.36	15.00	18.50	8.25	15.00	1.50	13.00	0.75	4.50	0.00	4.00	6.25	3.50	1.00	0.00	0.00	4.00	-0.134277	0.166016	0.976562	-120.610001	90.860001	-12.880000	994.00	-0.19	-0.13	0.00	0.00	0.00	0.50	0.00	0.00	1.75	0.00	0.00	0.25	0.00	0.00	0.00	0.00	0.00	0.00	0.522949	-0.054688	1.051758	56.000000	-152.669998	-32.619999	35.00	0.00	0.00
1.37	14.25	18.50	8.50	14.75	2.00	12.50	0.75	4.50	0.00	4.25	6.50	3.50	1.00	0.00	0.00	4.00	-0.206543	0.082031	1.083984	-133.839996	90.230003	-16.520000	992.00	-0.18	-0.13	0.00	0.00	0.25	1.00	0.00	0.00	1.75	0.00	0.00	0.00	0.00	0.00	0.00	0.00	0.00	0.00	0.446289	-0.041016	1.149414	59.290001	-169.750000	-24.780001	40.00	0.00	0.00
1.38	14.00	18.00	8.50	14.50	2.75	12.00	1.00	4.00	0.25	4.50	6.50	3.50	1.25	0.00	0.00	4.25	-0.242676	0.063477	1.196289	-131.669998	74.410004	-18.620001	990.00	-0.18	-0.12	0.00	0.25	0.00	0.25	0.00	0.00	1.75	0.00	0.00	0.00	0.00	0.00	0.00	0.00	0.00	0.00	0.308105	-0.033691	1.336426	69.860001	-205.380005	-19.110001	32.00	0.00	0.00
1.39	13.75	17.50	8.75	13.75	3.75	11.50	1.00	3.75	0.50	4.25	6.75	3.50	1.00	0.25	0.00	4.50	-0.345215	-0.019531	1.535156	-124.809998	56.560001	-17.219999	984.00	-0.17	-0.11	0.00	0.00	0.00	0.25	0.00	0.00	1.75	0.00	0.00	0.00	0.00	0.00	0.00	0.00	0.00	0.00	0.219238	-0.043945	1.326172	72.660004	-219.800003	-19.320000	29.00	0.00	0.00
1.40	13.50	16.50	9.00	13.50	4.50	11.25	1.00	3.75	0.75	4.50	6.50	3.50	1.00	1.00	0.00	4.25	-0.190918	0.037109	1.075195	-81.199997	17.920000	-13.440001	986.00	-0.17	-0.11	0.00	0.00	0.00	0.50	0.00	0.00	1.75	0.00	0.00	0.00	0.00	0.00	0.00	0.00	0.00	0.00	0.107910	-0.040039	1.315430	74.760002	-228.619995	-18.480000	32.00	0.00	0.00
1.41	13.25	16.00	9.25	13.00	5.50	10.50	1.25	3.50	1.00	4.75	6.75	3.50	1.50	1.25	0.00	4.50	-0.239258	0.043457	1.011719	-42.279999	0.280000	-11.270000	995.00	-0.16	-0.10	0.00	0.25	0.00	0.50	0.00	0.00	1.75	0.00	0.00	0.25	0.00	0.00	0.25	0.00	0.00	0.00	0.019043	-0.028809	1.365723	79.519997	-232.540009	-14.420000	39.00	0.00	0.00
1.42	12.75	15.50	9.50	12.75	5.75	10.25	1.25	3.25	1.50	4.75	6.75	3.75	1.50	1.75	0.00	4.50	-0.194824	0.066895	0.972656	-29.680000	-0.420000	-8.750000	995.00	-0.15	-0.10	0.00	0.25	0.00	0.75	0.00	0.25	1.75	0.00	0.00	0.25	0.00	0.00	0.00	0.00	0.00	0.00	-0.078613	-0.058594	1.392090	85.680000	-233.940002	-6.160000	42.00	0.00	0.00
1.43	12.50	15.00	9.25	12.50	6.50	10.00	1.25	3.25	1.75	4.75	6.75	3.75	1.25	2.25	0.00	4.50	-0.189453	0.035156	0.970703	-22.889999	0.420000	-6.720000	994.00	-0.14	-0.09	0.00	0.25	0.25	0.25	0.00	0.00	1.75	0.00	0.00	0.25	0.00	0.00	0.00	0.00	0.00	0.00	-0.161133	-0.083496	1.414062	86.800003	-231.350006	5.600000	37.00	0.00	0.00
1.44	12.50	14.50	9.50	12.25	7.25	9.75	1.50	3.50	1.75	5.00	6.75	4.00	1.50	2.50	0.00	4.50	-0.167480	0.048828	0.961426	-16.730000	1.050000	-5.460000	1012.00	-0.14	-0.09	0.00	0.25	0.25	0.25	0.25	0.00	1.75	0.00	0.00	0.00	0.00	0.00	0.00	0.00	0.00	0.00	-0.206055	-0.108398	1.497559	82.669998	-225.610001	18.129999	37.00	0.00	0.00
1.45	12.00	14.00	9.50	12.00	7.50	9.75	1.50	3.50	2.00	5.25	7.25	4.00	1.75	2.75	0.00	4.50	-0.190430	0.037109	0.964844	-11.060000	3.500000	-4.410000	1017.00	-0.13	-0.09	0.00	0.00	0.25	0.50	0.25	0.00	1.75	0.00	0.00	0.00	0.25	0.00	0.00	0.00	0.00	0.00	-0.238281	-0.108887	1.723145	76.090004	-221.059998	28.910000	40.00	0.00	0.00
1.46	11.50	13.25	9.50	11.50	8.00	9.75	1.75	3.75	2.00	5.25	7.25	4.00	1.75	3.25	0.00	4.75	-0.178223	0.044434	0.960938	-9.100000	4.410000	-4.270000	1018.00	-0.12	-0.08	0.00	0.00	0.00	0.25	0.00	0.00	1.75	0.25	0.00	0.25	0.00	0.00	0.00	0.00	0.00	0.00	-0.261719	-0.098633	1.938965	70.209999	-223.790009	36.470001	36.00	0.00	0.00
1.47	11.00	12.50	9.50	11.25	8.25	9.75	2.00	3.75	2.75	5.25	7.00	4.25	1.75	3.00	0.00	4.75	-0.180664	0.060059	0.965820	-7.630000	5.110000	-3.990000	1018.00	-0.11	-0.08	0.25	0.00	0.00	0.25	0.00	0.00	1.75	0.00	0.00	0.00	0.00	0.00	0.00	0.00	0.00	0.00	-0.319336	-0.084961	1.993164	65.519997	-232.470001	41.020000	32.00	0.00	0.00
1.48	11.25	12.25	9.25	11.00	8.75	9.50	2.00	4.00	3.00	5.25	7.25	4.00	2.00	3.75	0.25	5.00	-0.180664	0.043457	0.962891	-6.370000	5.880000	-3.640000	1035.00	-0.10	-0.08	0.00	0.00	0.25	0.50	0.25	0.00	1.75	0.00	0.00	0.25	0.00	0.00	0.00	0.00	0.00	0.00	-0.395508	-0.084961	1.918945	60.340000	-239.050003	43.540001	40.00	0.00	0.00
1.49	10.00	11.50	9.50	10.50	9.00	9.75	2.00	4.25	3.00	5.25	7.50	4.25	2.00	3.25	0.25	5.00	-0.177246	0.048828	0.960449	-5.950000	6.370000	-3.500000	1023.00	-0.10	-0.08	0.00	0.00	0.25	0.75	0.00	0.00	1.75	0.00	0.00	0.25	0.00	0.00	0.25	0.00	0.00	0.00	-0.452148	-0.060547	1.868164	56.910000	-240.940002	45.570000	42.00	0.00	0.00
1.50	9.75	10.75	9.25	10.25	9.25	9.50	2.25	4.25	3.50	6.00	7.50	4.25	2.00	3.75	0.50	4.75	-0.179688	0.041504	0.962402	-5.600000	7.070000	-3.360000	1031.00	-0.08	-0.07	0.00	0.00	0.00	0.25	0.00	0.00	1.75	0.00	0.00	0.25	0.00	0.00	0.00	0.00	0.00	0.00	-0.485352	-0.064453	1.847656	55.580002	-240.520004	49.000000	32.00	0.00	0.00
1.51	9.50	10.00	9.25	10.00	9.50	9.50	2.25	4.75	3.25	6.00	7.50	4.25	2.25	3.75	0.25	5.00	-0.173828	0.040039	0.956055	-4.830000	8.050000	-3.290000	1027.00	-0.08	-0.08	0.00	0.00	0.00	0.50	0.00	0.00	1.75	0.00	0.00	0.00	0.00	0.00	0.00	0.00	0.00	0.00	-0.517578	-0.086426	1.805176	51.099998	-239.330002	53.689999	32.00	0.00	0.00
1.52	9.00	9.50	9.00	9.75	9.75	9.50	2.50	4.75	3.75	6.50	7.75	5.00	2.25	3.75	0.50	5.00	-0.168945	0.042480	0.955566	-3.360000	8.890000	-3.080000	1043.00	-0.07	-0.08	0.00	0.00	0.00	0.50	0.00	0.00	1.75	0.00	0.00	0.25	0.00	0.00	0.00	0.00	0.00	0.00	-0.561035	-0.071777	1.720703	44.520000	-236.040009	58.310001	35.00	0.00	0.00
1.53	8.25	8.75	8.75	9.50	9.75	9.50	2.50	5.00	3.75	6.75	7.75	5.00	2.75	4.25	0.25	5.00	-0.174805	0.043457	0.972656	-2.520000	10.780000	-3.080000	1035.00	-0.06	-0.08	0.00	0.25	0.00	0.50	0.00	0.00	1.75	0.00	0.00	0.00	0.00	0.00	0.00	0.00	0.00	0.00	-0.591309	-0.066895	1.625488	38.709999	-229.180008	61.670002	34.00	0.00	0.00
1.54	7.75	7.75	8.50	9.00	9.75	9.50	2.50	5.25	4.50	7.25	8.25	5.00	3.00	4.75	0.50	5.00	-0.181152	0.053711	0.962402	-2.100000	12.810000	-2.940000	1046.00	-0.04	-0.08	0.00	0.00	0.00	0.50	0.00	0.00	1.75	0.00	0.00	0.00	0.00	0.00	0.00	0.00	0.00	0.00	-0.631348	-0.062500	1.538574	32.410000	-218.259995	63.000000	32.00	0.00	0.00
1.55	7.25	7.00	8.50	8.75	9.75	9.25	2.75	5.50	4.50	7.75	8.25	5.75	3.25	4.50	0.75	5.25	-0.180664	0.045898	0.959961	-1.680000	14.350000	-3.080000	1053.00	-0.03	-0.08	0.00	0.25	0.00	0.50	0.00	0.00	1.75	0.00	0.00	0.00	0.25	0.00	0.00	0.00	0.00	0.00	-0.645020	-0.025879	1.498047	26.740000	-204.960007	63.209999	37.00	0.00	0.00
1.56	6.75	6.50	7.75	8.00	9.75	9.25	2.75	5.75	5.00	7.75	8.25	5.75	3.50	5.00	1.00	5.25	-0.177246	0.045410	0.965332	-1.470000	14.700000	-2.940000	1046.00	-0.02	-0.08	0.00	0.00	0.00	0.50	0.00	0.00	1.75	0.00	0.00	0.25	0.00	0.00	0.00	0.25	0.00	0.00	-0.679199	0.013184	1.431641	23.450001	-191.169998	63.349998	37.00	0.00	0.00
1.57	5.75	5.75	7.25	7.50	9.50	9.00	3.00	6.00	5.25	8.00	8.50	6.00	4.00	5.00	0.75	5.50	-0.185547	0.047363	0.958496	-1.120000	15.330000	-3.010000	1034.00	-0.01	-0.08	0.00	0.00	0.00	0.50	0.00	0.00	1.75	0.00	0.00	0.00	0.00	0.00	0.00	0.00	0.00	0.00	-0.696777	0.009277	1.344727	21.559999	-176.820007	63.980000	32.00	0.00	0.00
1.58	5.00	5.00	6.50	7.00	9.25	9.00	3.00	6.00	5.50	8.00	8.75	6.25	4.50	5.25	0.75	5.50	-0.184570	0.048340	0.965820	-0.840000	16.450001	-3.360000	1018.00	0.01	-0.08	0.25	0.00	0.00	0.00	0.00	0.00	1.75	0.00	0.00	0.00	0.00	0.00	0.00	0.00	0.00	0.00	-0.710449	-0.019043	1.246094	13.720000	-149.029999	65.730003	29.00	0.00	0.00
1.59	4.25	4.25	6.25	6.50	9.00	8.50	3.00	6.00	6.50	8.25	9.25	6.50	4.75	5.50	1.25	5.50	-0.184570	0.048340	0.968262	-0.770000	17.150000	-3.570000	1020.00	0.02	-0.08	0.00	0.00	0.00	0.00	0.00	0.00	1.75	0.00	0.00	0.00	0.00	0.00	0.00	0.00	0.00	0.00	-0.706055	0.002930	1.249023	12.670000	-140.979996	65.519997	27.00	0.00	0.00
1.60	3.25	3.25	5.75	6.00	8.75	8.25	3.00	6.25	6.75	8.50	9.50	7.00	5.25	6.00	1.00	5.75	-0.188477	0.046875	0.966797	-0.840000	17.710001	-3.710000	1009.00	0.04	-0.08	0.25	0.25	0.00	0.50	0.00	0.25	1.75	0.00	0.00	0.25	0.00	0.00	0.00	0.00	0.00	0.00	-0.698242	0.015137	1.213867	18.340000	-138.180008	64.540001	42.00	0.00	0.00
1.61	2.75	2.25	5.25	5.25	8.50	8.00	3.25	6.25	7.25	8.75	9.75	7.50	5.25	6.25	1.25	5.75	-0.193848	0.046875	0.982910	-0.840000	18.270000	-3.710000	1001.00	0.06	-0.08	0.00	0.00	0.00	0.50	0.00	0.00	1.75	0.00	0.00	0.00	0.00	0.00	0.00	0.00	0.00	0.00	-0.721680	-0.044922	1.104980	25.620001	-138.600006	62.650002	32.00	0.00	0.00
1.62	2.25	2.00	5.00	4.75	8.25	7.75	3.25	6.25	7.75	9.00	10.00	7.50	5.75	6.50	1.25	6.00	-0.194336	0.038574	0.962891	-0.630000	18.690001	-3.500000	999.00	0.07	-0.08	0.00	0.00	0.00	0.25	0.00	0.00	1.75	0.00	0.00	0.25	0.00	0.00	0.00	0.00	0.00	0.00	-0.761719	-0.122559	0.857910	23.799999	-136.990005	58.029999	32.00	0.00	0.00
1.63	1.50	1.75	3.75	4.25	7.50	7.50	3.25	6.25	8.25	9.50	10.25	7.75	6.00	7.50	1.50	6.00	-0.201172	0.047363	0.958496	-0.560000	19.320000	-3.150000	989.00	0.09	-0.08	0.00	0.00	0.00	0.00	0.00	0.00	1.75	0.00	0.00	0.00	0.00	0.00	0.00	0.00	0.00	0.00	-0.843262	-0.075195	0.676270	7.140000	-128.240005	44.799999	27.00	0.00	0.00
1.64	1.25	1.50	3.25	3.75	7.00	7.00	3.25	6.25	8.75	9.50	10.75	8.00	6.00	7.50	1.50	6.25	-0.193848	0.047852	0.961426	-0.490000	20.090000	-3.290000	978.00	0.10	-0.07	0.00	0.00	0.00	0.00	0.00	0.25	1.75	0.00	0.00	0.25	0.00	0.00	0.00	0.00	0.00	0.00	-0.857422	0.040527	0.572266	2.030000	-114.029999	25.900000	32.00	0.00	0.00
1.65	0.75	1.25	2.75	3.00	6.50	6.75	3.25	6.25	8.75	10.00	11.00	8.25	6.25	8.25	1.75	6.25	-0.192383	0.049805	0.968750	-0.280000	20.790001	-3.640000	970.00	0.12	-0.07	0.00	0.00	0.00	0.00	0.00	0.00	1.75	0.00	0.00	0.00	0.00	0.00	0.00	0.00	0.00	0.00	-0.799316	-0.007812	0.502930	19.110001	-99.330002	6.160000	27.00	0.00	0.00
1.66	0.75	0.25	2.00	3.00	5.75	6.25	3.25	6.25	9.25	10.25	11.50	8.50	6.50	8.50	1.75	6.25	-0.197754	0.043457	0.964844	0.630000	21.910000	-3.990000	960.00	0.13	-0.07	0.00	0.00	0.00	0.00	0.00	0.00	1.75	0.00	0.00	0.00	0.00	0.00	0.00	0.00	0.00	0.00	-0.765137	-0.084473	0.516113	36.680000	-85.959999	-11.270000	27.00	0.00	0.00
1.67	0.50	0.25	1.75	2.00	5.25	6.00	3.00	6.00	9.25	10.50	11.50	8.75	6.50	8.75	2.00	6.50	-0.202148	0.043945	0.961426	1.400000	22.680000	-4.200000	939.00	0.14	-0.07	0.00	0.50	0.00	0.25	0.00	0.25	1.75	0.00	0.25	0.00	0.00	0.00	0.00	0.00	0.00	0.00	-0.695312	-0.138184	0.526367	38.500000	-73.220001	-24.780001	40.00	0.00	0.00
1.68	0.50	0.50	1.25	2.00	4.75	5.50	3.00	6.00	9.75	10.50	12.00	9.00	6.75	9.00	2.00	6.50	-0.199707	0.048828	0.969238	2.450000	23.799999	-4.410000	944.00	0.15	-0.07	0.00	0.00	0.00	0.00	0.00	0.00	1.75	0.00	0.00	0.00	0.00	0.00	0.00	0.00	0.00	0.00	-0.605957	-0.106445	0.558594	26.180000	-61.389999	-32.830002	27.00	0.00	0.00
1.69	0.00	0.00	1.00	1.75	4.00	5.00	3.00	5.75	10.00	11.00	12.50	9.25	7.00	9.25	2.00	6.50	-0.205566	0.047852	0.958984	3.290000	24.639999	-4.060000	931.00	0.17	-0.07	0.00	0.25	0.00	0.25	0.00	0.00	1.75	0.00	0.00	0.00	0.00	0.00	0.00	0.00	0.00	0.00	-0.485352	-0.034180	0.541016	8.190000	-52.009998	-35.980000	32.00	0.00	0.00
1.70	0.00	0.25	1.00	1.50	3.25	5.00	3.00	5.75	10.00	11.00	12.75	9.50	7.00	9.75	2.00	6.75	-0.214355	0.037598	0.959473	3.850000	25.900000	-3.780000	934.00	0.17	-0.07	0.00	0.00	0.00	0.50	0.00	0.00	1.75	0.00	0.00	0.25	0.00	0.00	0.00	0.00	0.00	0.00	-0.402832	0.106445	0.541992	-2.870000	-44.939999	-35.490002	35.00	0.00	0.00
1.71	0.00	0.00	0.75	1.50	3.00	4.00	2.75	5.50	10.50	11.25	13.25	9.75	7.25	10.25	2.00	6.75	-0.221191	0.049316	0.964355	4.900000	27.650000	-4.340000	931.00	0.18	-0.07	0.00	0.25	0.00	0.25	0.00	0.00	1.75	0.00	0.00	0.00	0.00	0.00	0.00	0.00	0.00	0.00	-0.343750	0.161621	0.525391	-3.850000	-38.009998	-32.549999	32.00	0.00	0.00
1.72	0.00	0.00	0.75	1.50	2.50	4.00	2.75	5.50	10.75	11.75	13.50	10.25	7.25	10.75	2.25	6.75	-0.207520	0.049316	0.977051	6.440000	30.590000	-5.250000	949.00	0.19	-0.07	0.00	0.00	0.00	0.50	0.00	0.00	1.75	0.00	0.00	0.00	0.00	0.00	0.00	0.00	0.00	0.00	-0.313965	0.212891	0.528320	-2.870000	-31.290001	-26.880001	32.00	0.00	0.00
1.73	0.00	0.00	0.25	1.50	2.25	3.75	2.75	5.25	11.00	11.75	13.75	10.50	7.50	11.00	2.25	6.75	-0.237305	0.056152	0.958984	8.540000	34.930000	-6.440000	947.00	0.19	-0.07	0.00	0.50	0.00	0.00	0.00	0.00	1.50	0.00	0.00	0.00	0.00	0.00	0.00	0.00	0.00	0.00	-0.309570	0.252441	0.534180	-5.110000	-23.520000	-17.219999	27.00	0.00	0.00
1.74	0.00	0.00	0.50	1.50	2.25	3.25	2.50	5.00	11.00	12.25	14.25	10.75	7.50	11.50	2.50	7.00	-0.226562	0.062500	0.975098	10.220000	37.799999	-7.280000	958.00	0.20	-0.06	0.00	0.00	0.00	0.00	0.00	0.00	1.75	0.00	0.00	0.00	0.00	0.00	0.00	0.00	0.00	0.00	-0.324707	0.307129	0.528320	-11.410000	-14.490000	-2.660000	27.00	0.00	0.00
1.75	0.00	0.00	0.25	1.00	1.75	3.00	2.25	5.00	11.25	12.50	14.50	11.25	7.50	12.25	2.75	7.00	-0.257324	0.093262	1.021484	9.730000	39.480000	-7.420000	960.00	0.21	-0.06	0.00	0.00	0.00	0.25	0.00	0.00	1.75	0.00	0.00	0.00	0.00	0.00	0.00	0.00	0.00	0.00	-0.345703	0.365234	0.545410	-18.340000	-4.830000	15.680000	29.00	0.00	0.00
1.76	0.00	0.00	0.25	1.25	1.75	2.25	2.25	4.50	11.50	12.75	15.00	11.75	7.50	13.25	2.50	7.25	-0.256836	0.035645	0.958984	8.750000	44.660000	-6.230000	971.00	0.21	-0.06	0.00	0.50	0.00	0.50	0.00	0.50	1.75	0.00	0.00	0.00	0.00	0.00	0.00	0.00	0.00	0.00	-0.360840	0.399414	0.540039	-21.700001	4.270000	35.910000	42.00	0.00	0.00
1.77	0.00	0.00	0.00	0.75	1.50	2.25	2.00	4.50	11.75	13.00	15.25	12.00	7.50	14.25	3.00	7.25	-0.246582	0.055664	0.971191	10.360000	52.990002	-5.810000	981.00	0.22	-0.06	0.00	0.00	0.00	0.25	0.00	0.00	1.75	0.00	0.00	0.00	0.00	0.00	0.00	0.00	0.00	0.00	-0.400879	0.399902	0.515625	-20.440001	13.650000	55.790001	29.00	0.00	0.00
1.78	0.00	0.00	0.25	0.75	1.25	2.25	2.00	4.00	12.00	13.25	15.75	12.25	7.50	15.50	3.25	7.50	-0.262695	0.046387	0.964355	11.480000	62.860001	-6.020000	1002.00	0.22	-0.05	0.00	0.25	0.00	0.00	0.00	0.00	1.75	0.00	0.00	0.00	0.00	0.00	0.00	0.00	0.00	0.00	-0.558594	0.311035	0.540039	-8.680000	36.750000	86.590004	29.00	0.00	0.00
1.79	0.00	0.00	0.00	1.00	1.25	1.75	1.75	3.50	12.00	13.50	16.00	12.75	7.50	16.75	4.25	7.50	-0.272461	0.056641	0.995117	13.300000	72.309998	-6.230000	1016.00	0.23	-0.05	0.00	0.00	0.00	0.25	0.00	0.00	1.75	0.00	0.00	0.25	0.00	0.00	0.00	0.00	0.00	0.00	-0.639648	0.235840	0.567383	-7.070000	48.580002	96.389999	32.00	0.00	0.00
1.80	0.00	0.00	0.00	0.75	1.00	1.75	1.75	3.25	12.25	14.00	16.50	12.75	7.25	17.75	4.25	8.00	-0.288574	0.075195	1.002441	14.840000	84.559998	-6.440000	1030.00	0.24	-0.04	0.00	0.00	0.00	0.50	0.00	0.00	1.75	0.00	0.00	0.00	0.00	0.00	0.00	0.00	0.00	0.00	-0.750488	0.197754	0.582031	-7.560000	59.849998	103.180000	32.00	0.00	0.00
1.81	0.00	0.00	0.00	0.50	1.00	1.50	1.50	2.75	12.75	14.25	16.75	13.25	7.25	19.00	5.25	8.25	-0.318359	0.052246	1.012207	16.170000	97.230003	-6.440000	1053.00	0.25	-0.04	0.00	0.00	0.25	0.25	0.00	0.00	1.75	0.00	0.00	0.00	0.00	0.00	0.00	0.00	0.00	0.00	-0.871582	0.149902	0.596680	-7.420000	71.470001	106.400002	32.00	0.00	0.00
1.82	0.00	0.00	0.00	0.75	0.75	0.75	1.25	2.25	12.75	14.50	17.00	13.00	7.00	20.25	5.50	8.50	-0.326660	0.047363	1.015625	16.030001	109.550003	-6.230000	1048.00	0.25	-0.03	0.00	0.00	0.00	0.25	0.00	0.25	1.75	0.00	0.00	0.25	0.00	0.00	0.00	0.00	0.00	0.00	-0.977051	0.098145	0.641113	-5.600000	83.230003	105.559998	35.00	0.00	0.00
1.83	0.00	0.00	0.00	0.25	0.50	1.00	1.00	2.00	12.75	14.75	17.25	13.50	7.00	21.25	6.00	8.75	-0.357422	0.090820	0.996094	15.610000	122.570000	-6.020000	1061.00	0.26	-0.03	0.00	0.00	0.00	0.25	0.00	0.00	1.75	0.00	0.00	0.00	0.00	0.00	0.00	0.00	0.00	0.00	-1.048340	0.033203	0.685059	-2.030000	93.730003	99.889999	29.00	0.00	0.00
1.84	0.00	0.00	0.00	0.75	0.50	0.50	1.00	1.50	13.00	14.75	17.25	13.50	6.50	22.50	6.25	8.75	-0.358887	0.091797	1.017578	15.190001	135.800003	-7.140000	1065.00	0.26	-0.03	0.00	0.00	0.00	0.25	0.00	0.00	1.75	0.00	0.00	0.00	0.00	0.00	0.00	0.00	0.00	0.00	-1.075195	-0.036621	0.749512	2.940000	101.779999	88.830002	29.00	0.00	0.00
1.85	0.00	0.00	0.00	0.50	0.50	0.75	0.75	1.25	13.25	14.50	17.50	13.25	6.50	23.50	6.75	9.00	-0.373047	0.081543	1.009766	13.440001	148.750000	-8.680000	1073.00	0.27	-0.02	0.00	0.75	0.00	0.50	0.00	0.00	1.75	0.00	0.00	0.00	0.00	0.00	0.00	0.00	0.00	0.00	-1.030273	-0.113770	0.860352	6.930000	106.400002	71.400002	39.00	0.00	0.00
1.86	0.00	0.00	0.00	0.25	0.50	0.75	0.50	1.00	13.00	15.00	17.25	13.25	6.00	24.25	6.75	9.25	-0.411621	0.099121	1.008301	9.730000	161.770004	-10.290000	1066.00	0.27	-0.02	1.00	1.50	0.25	1.25	0.25	0.00	1.75	0.00	0.00	0.00	0.00	0.00	0.00	0.00	0.00	0.00	1.223145	-0.204102	3.133301	102.129997	193.619995	42.840000	70.00	-0.18	0.04
1.87	0.00	0.00	0.00	0.50	0.50	0.25	0.25	0.75	13.00	14.75	17.00	13.00	5.75	25.50	7.00	9.25	-0.465820	0.101074	1.041992	4.480000	173.389999	-12.670000	1059.00	0.28	-0.02	2.75	4.00	1.00	1.75	0.25	0.00	1.75	0.00	0.00	0.00	0.00	0.00	0.00	0.00	0.00	0.00	1.256836	-1.302734	-0.179199	14.630000	103.739998	14.560000	125.00	-0.27	0.00
1.88	0.00	0.00	0.00	0.25	0.25	0.00	0.25	0.50	12.75	14.75	16.75	12.50	5.25	26.25	7.25	9.25	-0.510742	0.070801	1.065918	-8.610000	197.750000	-16.870001	1040.00	0.28	-0.01	6.75	7.00	1.50	2.75	0.50	0.00	1.75	0.00	0.00	0.00	0.00	0.00	0.00	0.25	0.00	0.00	-0.630859	-0.565918	-0.329102	-24.360001	165.199997	-44.869999	215.00	-0.31	-0.01
1.89	0.00	0.00	0.00	0.75	0.50	0.00	0.25	0.50	12.75	14.75	16.50	12.00	4.25	26.50	7.50	9.25	-0.537598	0.102539	1.045898	-15.680000	213.500000	-18.270000	1037.00	0.28	-0.00	9.50	9.25	2.75	3.75	0.50	0.00	1.75	0.00	0.00	0.00	0.00	0.00	0.00	0.25	0.00	0.00	-0.298340	1.121094	3.107422	-20.020000	277.200012	-65.660004	289.00	-0.32	-0.01
1.90	0.00	0.00	0.00	0.00	0.00	0.25	0.25	0.25	12.50	14.50	16.00	11.25	3.50	27.25	7.50	9.00	-0.568359	0.111816	1.077148	-22.820000	228.339996	-21.559999	1001.00	0.29	0.00	13.00	11.75	3.75	5.25	1.00	0.00	1.75	0.00	0.00	0.00	0.00	0.00	0.25	0.25	0.00	0.00	-0.627930	0.272949	3.036621	14.280000	199.009995	-16.590000	384.00	-0.33	-0.02
1.91	0.00	0.00	0.00	0.25	0.25	0.50	0.25	0.00	12.25	14.25	15.75	10.50	2.50	27.25	7.25	8.75	-0.609863	0.103027	1.093262	-28.980000	244.509995	-25.129999	977.00	0.29	0.01	15.00	13.75	4.75	5.75	1.00	0.25	1.75	0.00	0.00	0.00	0.00	0.00	0.00	0.25	0.00	0.00	-0.261230	-0.132324	1.442871	-1.540000	163.169998	-15.960000	440.00	-0.33	-0.02
1.92	0.00	0.00	0.00	0.00	0.25	0.00	0.25	0.00	12.00	14.00	15.00	9.50	1.75	27.50	7.25	8.50	-0.654785	0.078613	1.115723	-34.860001	262.850006	-26.950001	938.00	0.30	0.02	15.75	14.25	5.25	6.25	1.00	0.25	1.75	0.00	0.00	0.00	0.00	0.00	0.00	0.00	0.00	0.00	-0.095703	-0.065918	1.866699	11.690000	155.889999	-24.150000	462.00	-0.34	-0.02
1.93	0.00	0.00	0.00	0.00	0.25	0.00	0.25	0.00	11.50	13.75	14.25	8.50	1.25	27.50	7.00	8.25	-0.683105	0.104004	1.078613	-43.400002	281.820007	-28.770000	903.00	0.30	0.03	16.00	14.75	5.75	7.25	1.00	0.25	1.75	0.00	0.00	0.00	0.00	0.00	0.00	0.25	0.00	0.00	-0.173828	0.139648	1.532227	22.750000	141.889999	-29.120001	487.00	-0.33	-0.02
1.94	0.00	0.00	0.00	0.00	0.00	0.00	0.25	0.00	10.75	13.50	13.50	7.75	0.75	27.00	6.50	7.50	-0.737793	0.199219	1.015625	-49.420002	302.820007	-35.070000	854.00	0.30	0.03	16.00	14.50	6.25	7.75	1.25	0.75	1.75	0.00	0.00	0.00	0.00	0.00	0.00	0.50	0.00	0.00	-0.049316	0.237305	1.336914	34.580002	125.510002	-22.190001	506.00	-0.32	-0.02
1.95	0.00	0.00	0.00	0.00	0.00	0.00	0.25	0.00	10.50	13.25	12.75	7.00	0.00	26.50	6.25	7.25	-0.766113	0.252930	1.190430	-66.570000	329.489990	-37.240002	817.00	0.30	0.04	16.25	15.25	6.75	8.25	1.25	1.00	1.75	0.00	0.00	0.00	0.00	0.00	0.25	0.75	0.00	0.00	-0.032715	0.147949	1.070312	35.770000	115.989998	-17.920000	534.00	-0.32	-0.03
1.96	0.00	0.00	0.00	0.00	0.00	0.00	0.50	0.00	9.75	12.75	12.00	6.25	0.00	25.50	5.50	6.75	-0.941406	0.209961	1.174316	-67.340004	342.510010	-53.760002	771.00	0.30	0.04	16.75	15.50	7.50	9.25	1.50	1.50	1.75	0.00	0.00	0.00	0.00	0.00	0.50	0.50	0.00	0.00	-0.031250	0.187988	1.074707	34.020000	112.770004	-15.960000	569.00	-0.32	-0.03
1.97	0.00	0.00	0.00	0.00	0.00	0.00	0.25	0.00	9.00	12.25	10.75	5.75	0.00	24.25	4.50	6.00	-1.069824	0.210938	1.318359	-67.760002	351.679993	-69.580002	709.00	0.30	0.05	17.50	16.00	8.25	10.00	1.75	2.00	1.75	0.50	0.00	0.00	0.00	0.00	0.25	0.50	0.00	0.00	-0.124512	0.202637	1.243164	28.700001	108.639999	-14.980000	612.00	-0.31	-0.04
1.98	0.00	0.00	0.00	0.00	0.00	0.00	0.50	0.00	8.00	11.25	10.00	5.00	0.00	22.25	3.25	5.50	-1.272949	0.332520	1.539551	-59.080002	359.589996	-80.779999	640.00	0.30	0.05	17.75	16.75	8.50	10.50	2.25	3.25	1.75	0.25	0.00	0.00	0.00	0.00	0.50	0.25	0.00	0.00	-0.187012	0.297363	1.315918	4.200000	86.099998	-3.080000	645.00	-0.31	-0.04
1.99	0.00	0.00	0.00	0.00	0.00	0.00	0.50	0.00	7.00	10.75	9.00	5.00	0.00	20.25	1.75	5.00	-1.489258	0.292969	1.581543	-37.170002	360.709991	-89.040001	576.00	0.30	0.05	18.50	17.00	8.75	11.00	2.50	4.00	1.75	0.50	0.00	0.00	0.00	0.00	0.75	0.50	0.00	0.00	-0.171387	0.096191	1.341309	-3.990000	71.959999	3.150000	682.00	-0.31	-0.05
2.00	0.00	0.00	0.00	0.00	0.00	0.00	0.25	0.00	6.00	10.00	8.25	4.75	0.00	17.50	1.00	4.75	-1.476562	0.513184	1.916504	-18.200001	352.940002	-94.430000	508.00	0.30	0.04	18.75	17.50	9.00	11.25	2.75	4.25	1.75	0.50	0.00	0.00	0.00	0.00	0.75	0.25	0.00	0.00	-0.145996	0.071777	1.208984	-1.680000	56.209999	2.450000	698.00	-0.31	-0.05
2.01	0.00	0.00	0.00	0.00	0.00	0.00	0.25	0.00	4.50	9.00	7.75	4.25	0.00	14.25	0.25	4.25	-1.475586	0.311523	1.635254	20.020000	331.660004	-94.849998	429.00	0.29	0.03	18.50	17.50	9.25	11.75	3.25	5.25	1.75	1.00	0.00	0.00	0.00	0.00	0.50	0.25	0.00	0.00	-0.118164	0.135742	1.094238	2.170000	44.939999	1.610000	726.00	-0.30	-0.06
2.02	0.00	0.00	0.00	0.00	0.00	0.00	0.50	0.00	3.00	8.00	7.25	4.50	0.00	10.75	0.25	4.00	-0.959473	0.360840	1.531250	40.880001	320.809998	-104.370003	369.00	0.28	0.01	18.50	17.75	9.50	12.25	3.75	6.00	2.00	0.75	0.00	0.00	0.00	0.00	0.50	0.50	0.00	0.00	-0.129395	0.168457	1.086426	-1.120000	36.750000	2.660000	752.00	-0.30	-0.05
2.03	0.00	0.00	0.00	0.00	0.00	0.00	0.50	0.00	2.75	7.75	7.00	4.00	0.00	7.75	0.00	4.00	-0.403320	0.214355	1.557617	47.599998	318.360016	-119.980003	328.00	0.27	0.00	18.75	17.75	9.75	12.25	4.50	7.00	2.00	1.25	0.00	0.00	0.00	0.00	0.75	0.50	0.00	0.00	-0.122070	0.138184	1.066406	-5.880000	29.400000	4.060000	786.00	-0.29	-0.06
2.04	0.00	0.00	0.00	0.00	0.00	0.00	0.50	0.00	2.00	7.00	7.00	4.00	0.00	4.00	0.00	4.00	-0.347656	0.083984	1.340332	27.650000	317.940002	-137.619995	278.00	0.26	-0.03	18.75	17.75	9.75	12.50	4.75	7.00	2.00	1.25	0.00	0.00	0.00	0.00	0.75	0.50	0.00	0.00	-0.109863	0.118652	1.040039	-8.820000	24.010000	3.850000	792.00	-0.29	-0.06
2.05	0.00	0.00	0.00	0.50	0.00	0.00	0.75	0.00	1.75	6.75	6.75	4.00	0.00	2.00	0.00	3.75	-0.222656	0.142090	1.259766	-9.590000	317.309998	-151.199997	260.00	0.24	-0.05	18.50	18.00	10.00	12.75	4.75	7.50	2.00	1.50	0.00	0.00	0.00	0.00	0.75	0.75	0.00	0.00	-0.093750	0.110352	1.004395	-10.080000	21.490000	2.870000	808.00	-0.28	-0.06
2.06	0.00	0.00	0.00	0.00	0.25	0.00	0.75	0.00	0.75	6.00	6.25	3.75	0.00	1.50	0.00	4.00	-0.108398	0.449219	1.475586	-36.750000	302.119995	-162.050003	226.00	0.24	-0.06	18.50	18.00	10.00	13.00	5.25	7.75	2.00	1.50	0.00	0.00	0.00	0.00	1.00	0.75	0.00	0.00	-0.087402	0.113281	1.016113	-12.740000	20.719999	1.750000	821.00	-0.28	-0.06
2.07	0.00	0.00	0.00	0.00	0.00	0.00	0.75	0.00	1.25	6.25	6.25	3.75	0.00	1.00	0.00	3.75	-0.548340	1.120117	1.726074	-24.360001	266.350006	-148.889999	227.00	0.24	-0.06	18.25	17.50	10.00	13.00	5.50	7.75	2.00	1.50	0.00	0.00	0.00	0.00	0.75	0.50	0.00	0.00	-0.080078	0.125488	0.960449	-15.890000	21.350000	0.980000	813.00	-0.28	-0.06
2.08	0.00	0.00	0.00	0.00	0.00	0.25	0.75	0.00	1.25	6.00	6.50	3.75	0.00	0.75	0.00	4.00	0.099609	1.304199	3.371582	36.610001	142.660004	-111.160004	229.00	0.24	-0.06	17.75	17.25	9.75	12.75	5.75	8.00	2.00	1.75	0.00	0.00	0.00	0.00	1.00	0.75	0.00	0.00	-0.088379	0.096680	0.964844	-19.110001	24.710001	0.420000	813.00	-0.28	-0.07
2.09	0.00	0.00	0.00	0.00	0.00	0.25	0.75	0.00	1.00	5.50	5.50	3.50	0.00	0.75	0.00	4.00	0.216797	0.742188	1.888184	9.800000	-90.650002	-34.580002	207.00	0.24	-0.07	17.75	17.00	10.00	12.75	6.00	8.25	2.00	1.50	0.00	0.00	0.00	0.00	0.75	1.00	0.00	0.00	-0.113281	0.097656	1.004883	-21.000000	26.880001	-0.070000	815.00	-0.28	-0.06
2.10	0.00	0.00	0.00	0.00	0.00	0.00	0.75	0.00	0.75	5.50	6.00	3.50	0.00	1.00	0.00	4.00	0.191895	0.652344	1.402344	-18.620001	-139.229996	-0.910000	209.00	0.24	-0.07	17.25	16.75	10.00	12.75	6.25	8.25	2.00	2.00	0.00	0.00	0.00	0.00	1.25	0.75	0.00	0.00	-0.121094	0.091797	0.992188	-22.610001	27.230000	-0.210000	820.00	-0.27	-0.07
2.11	0.00	0.00	0.00	0.00	0.00	0.00	0.75	0.00	0.75	5.50	6.25	3.50	0.00	0.25	0.00	4.00	0.194824	0.652344	1.057129	-30.660000	-163.240005	25.760000	205.00	0.24	-0.08	16.75	16.50	9.75	12.50	6.25	8.25	2.25	2.25	0.00	0.00	0.00	0.00	1.25	1.00	0.00	0.00	-0.107422	0.096680	0.952148	-26.250000	29.190001	-0.630000	817.00	-0.26	-0.07
2.12	0.00	0.00	0.00	0.00	0.00	0.25	0.75	0.00	1.25	5.25	6.00	3.25	0.00	0.50	0.00	4.00	0.136719	0.584473	0.913086	-31.290001	-175.210007	44.730000	208.00	0.23	-0.06	16.50	16.00	9.75	12.50	6.75	8.25	2.25	2.50	0.00	0.25	0.00	0.25	1.50	1.25	0.00	0.00	-0.110352	0.109863	0.969727	-31.150000	32.410000	-0.700000	829.00	-0.26	-0.07
2.13	0.00	0.00	0.00	0.00	0.00	0.00	0.75	0.00	1.00	5.25	6.00	3.50	0.00	0.50	0.00	4.00	0.118164	0.516113	0.833008	-26.389999	-183.190002	56.700001	205.00	0.24	-0.07	15.75	15.75	9.75	12.25	7.00	8.50	2.25	2.25	0.25	0.25	0.00	0.00	1.50	1.25	0.00	0.00	-0.115723	0.114746	1.026855	-36.259998	34.439999	-1.050000	818.00	-0.25	-0.07
2.14	0.00	0.00	0.00	0.00	0.00	0.00	0.75	0.00	0.75	5.25	6.00	3.50	0.00	0.25	0.00	3.75	0.123047	0.448730	0.895508	-19.040001	-193.130005	63.560001	198.00	0.24	-0.08	15.50	15.25	9.75	12.00	7.25	8.25	2.25	2.75	0.00	0.25	0.00	0.25	1.75	1.50	0.00	0.00	-0.154785	0.072266	1.005371	-38.360001	34.790001	-1.260000	820.00	-0.25	-0.07
2.15	0.00	0.00	0.00	0.00	0.00	0.00	0.75	0.00	0.75	4.75	6.25	3.00	0.00	0.00	0.00	4.00	0.101562	0.381836	1.077637	-6.160000	-212.029999	66.779999	190.00	0.23	-0.08	15.00	15.00	10.00	12.00	7.75	8.50	2.25	3.00	0.00	0.25	0.25	0.25	1.75	1.75	0.00	0.00	-0.152344	0.075195	1.009766	-37.029999	33.880001	-1.190000	832.00	-0.24	-0.07
2.16	0.00	0.00	0.00	0.00	0.00	0.00	0.75	0.00	0.50	5.00	5.75	3.50	0.00	0.00	0.00	4.00	0.083496	0.296875	1.225586	7.770000	-241.009995	65.519997	189.00	0.23	-0.09	14.25	14.50	9.75	11.75	7.75	8.25	2.25	2.75	0.75	0.50	0.25	0.25	1.75	1.75	0.25	0.00	-0.163086	0.074707	1.111816	-32.619999	27.650000	-0.770000	822.00	-0.23	-0.07
2.17	0.00	0.00	0.00	0.00	0.00	0.00	0.75	0.00	0.50	4.75	5.50	3.25	0.00	0.50	0.00	4.00	0.033691	0.196289	1.273926	19.110001	-274.750000	61.250000	185.00	0.24	-0.08	14.00	14.00	9.75	11.50	8.25	8.25	2.50	3.25	0.75	0.50	0.00	0.25	2.00	1.75	0.00	0.00	-0.180176	0.039062	1.048828	-22.610001	15.260000	-0.840000	826.00	-0.23	-0.07
2.18	0.00	0.00	0.00	0.00	0.00	0.25	0.75	0.25	0.50	5.00	6.00	3.50	0.00	0.25	0.00	3.75	-0.023926	0.125977	1.227539	29.540001	-305.690002	55.510002	199.00	0.22	-0.09	13.25	13.50	9.50	11.50	8.50	8.25	2.50	3.25	0.75	0.50	0.50	0.25	2.25	2.00	0.00	0.25	-0.158203	0.063965	0.984375	-12.110000	2.310000	-1.190000	825.00	-0.22	-0.07
2.19	0.00	0.00	0.00	0.00	0.00	0.00	0.75	0.00	0.00	5.00	5.75	3.25	0.00	0.00	0.00	3.75	-0.086426	0.062500	1.077637	41.580002	-328.299988	47.810001	178.00	0.23	-0.10	13.00	13.00	9.50	11.25	8.50	8.25	2.50	3.75	0.75	0.50	0.50	0.50	2.00	2.25	0.25	0.25	-0.162598	0.059570	1.012207	-9.310000	0.000000	-1.190000	828.00	-0.21	-0.07
2.20	0.00	0.00	0.00	0.00	0.00	0.00	0.75	0.00	0.25	5.00	5.75	3.50	0.00	0.25	0.00	4.00	-0.169922	0.009766	0.927734	58.099998	-338.589996	36.889999	188.00	0.24	-0.09	12.00	12.25	9.25	11.25	8.75	8.25	2.50	3.75	1.00	1.00	0.50	0.50	2.50	2.25	0.25	0.25	-0.174316	0.056152	0.982910	-6.440000	-1.470000	-1.190000	823.00	-0.20	-0.07
2.21	0.00	0.00	0.00	0.00	0.00	0.00	0.75	0.00	0.25	4.25	5.50	3.25	0.00	0.00	0.00	4.00	-0.229980	-0.087402	0.812012	79.590004	-337.610016	21.910000	173.00	0.23	-0.10	11.25	11.75	9.25	11.00	9.00	8.25	2.75	3.75	1.00	1.00	0.75	0.75	2.50	2.50	0.25	0.25	-0.160156	0.057617	0.989258	-4.620000	-2.240000	-0.980000	822.00	-0.19	-0.07
2.22	0.00	0.00	0.00	0.00	0.00	0.00	0.75	0.00	0.50	4.50	5.75	3.50	0.00	0.00	0.00	4.00	-0.293945	-0.194336	0.747070	97.720001	-326.829987	3.920000	184.00	0.23	-0.09	11.00	11.25	9.25	10.75	9.00	8.25	2.50	4.50	1.25	1.25	0.75	0.75	3.00	2.25	0.25	0.50	-0.157227	0.062500	0.987793	-3.150000	-2.450000	-0.630000	829.00	-0.18	-0.08
2.23	0.00	0.00	0.00	0.00	0.00	0.00	0.75	0.00	0.50	4.50	5.75	3.50	0.00	0.00	0.00	4.00	-0.363770	-0.270508	0.805664	106.610001	-310.869995	-14.280000	184.00	0.23	-0.09	10.25	10.50	9.00	10.50	9.00	8.25	2.75	4.75	1.25	1.00	1.00	1.00	3.50	2.50	0.50	0.50	-0.168945	0.053711	0.984863	-1.680000	-2.240000	-0.000000	828.00	-0.17	-0.08
2.24	0.00	0.00	0.00	0.00	0.00	0.00	0.75	0.00	0.00	4.50	5.50	3.25	0.00	0.00	0.00	3.75	-0.432617	-0.267578	0.953125	107.449997	-295.959991	-29.680000	171.00	0.23	-0.10	9.75	10.00	8.75	10.50	9.25	8.50	2.75	5.25	1.25	1.25	1.00	1.00	3.75	2.75	0.50	0.50	-0.178223	0.063965	0.980469	-0.490000	-1.960000	0.350000	836.00	-0.16	-0.09
2.25	0.00	0.00	0.00	0.25	0.00	0.00	0.50	0.00	0.00	4.50	5.50	3.50	0.00	0.00	0.00	4.00	-0.450195	-0.206055	1.158203	106.470001	-286.160004	-38.500000	174.00	0.23	-0.12	9.25	9.25	8.50	10.00	9.25	8.50	2.75	5.75	1.75	1.50	1.25	1.25	3.75	2.50	0.50	0.75	-0.143066	0.059570	0.980469	0.280000	-1.470000	0.700000	837.00	-0.15	-0.09
2.26	0.00	0.00	0.00	0.00	0.00	0.00	0.75	0.00	0.25	4.50	5.75	3.50	0.00	0.00	0.00	4.00	-0.459473	-0.156250	1.319336	109.970001	-284.059998	-40.599998	180.00	0.23	-0.10	8.25	8.75	8.50	9.75	9.50	8.50	2.75	6.00	1.50	1.50	1.25	1.25	4.50	2.75	0.50	0.75	-0.180664	0.066406	0.980957	1.190000	-0.770000	0.980000	831.00	-0.14	-0.09
2.27	0.00	0.00	0.25	0.25	0.00	0.00	0.50	0.00	0.00	4.00	6.00	3.50	0.00	0.00	0.00	4.00	-0.476074	-0.170898	1.388672	115.570000	-286.299988	-37.799999	176.00	0.22	-0.12	7.75	8.25	8.25	9.75	9.25	8.75	3.00	6.25	2.00	1.50	1.50	1.50	4.75	2.75	0.50	1.00	-0.181152	0.066406	0.973145	1.820000	-0.350000	0.980000	841.00	-0.13	-0.10
2.28	0.00	0.00	0.00	0.25	0.00	0.00	0.75	0.00	0.00	4.25	6.00	3.50	0.00	0.00	0.00	4.00	-0.542969	-0.205566	1.379883	116.550003	-284.829987	-32.759998	180.00	0.22	-0.11	7.25	8.00	8.00	9.50	9.50	8.50	3.00	6.50	2.00	1.50	1.50	1.75	5.00	3.00	0.50	1.00	-0.152832	0.084961	0.971191	2.030000	0.490000	1.120000	839.00	-0.12	-0.10
2.29	0.00	0.00	0.00	0.00	0.00	0.00	0.75	0.00	0.00	4.25	5.75	3.50	0.00	0.00	0.00	4.00	-0.625977	-0.166992	1.415527	114.800003	-277.829987	-27.650000	175.00	0.23	-0.11	6.75	7.50	7.75	9.25	9.50	8.75	3.00	6.75	2.00	2.00	1.75	2.00	5.00	2.75	0.50	1.00	-0.156738	0.066895	0.979980	2.170000	0.980000	1.050000	838.00	-0.11	-0.10
2.30	0.00	0.00	0.00	0.25	0.00	0.00	0.75	0.00	0.00	4.25	6.00	3.50	0.00	0.00	0.00	4.00	-0.792480	-0.115234	1.404785	117.040001	-260.119995	-16.100000	180.00	0.22	-0.11	6.00	6.75	7.50	8.75	9.50	8.50	3.00	6.75	2.00	1.75	2.25	2.00	5.25	2.75	0.75	1.25	-0.128418	0.079590	0.982422	2.170000	1.610000	0.910000	821.00	-0.10	-0.10
2.31	0.00	0.00	0.00	0.00	0.00	0.00	0.50	0.00	0.00	4.25	5.75	3.50	0.00	0.00	0.00	4.00	-0.813477	-0.071289	1.392090	115.360001	-243.320007	-9.030000	171.00	0.24	-0.12	5.25	6.50	7.50	8.50	9.50	8.75	3.00	7.00	2.50	2.00	2.25	2.25	5.50	3.00	0.75	1.50	-0.162598	0.067383	0.989258	1.890000	2.450000	0.560000	833.00	-0.09	-0.11
2.32	0.00	0.00	0.00	0.25	0.00	0.00	0.50	0.00	0.25	4.00	5.75	3.50	0.00	0.00	0.00	4.00	-0.812012	0.016113	1.660645	119.139999	-228.410004	0.140000	174.00	0.23	-0.11	5.00	5.75	7.00	8.25	9.25	8.75	3.00	7.25	2.25	2.25	2.50	2.50	5.75	3.00	0.75	1.50	-0.188477	0.062500	0.977051	1.890000	3.150000	0.280000	823.00	-0.08	-0.11
2.33	0.00	0.00	0.00	0.00	0.25	0.00	0.75	0.00	0.00	4.00	6.00	3.50	0.00	0.00	0.00	4.00	-0.838379	0.058594	1.945312	131.460007	-226.380005	12.390000	177.00	0.23	-0.11	4.00	5.50	6.75	7.75	9.25	8.75	3.00	7.25	2.50	2.00	2.75	2.75	6.00	3.25	0.75	1.25	-0.166016	0.079590	0.982422	1.540000	3.500000	0.140000	811.00	-0.07	-0.11
2.34	0.00	0.00	0.00	0.25	0.00	0.00	0.50	0.00	0.00	4.00	6.00	4.00	0.00	0.00	0.00	3.75	-0.898926	-0.059570	1.980469	138.460007	-232.330002	25.620001	178.00	0.23	-0.13	3.75	5.25	6.25	7.75	9.25	8.75	3.00	7.50	2.75	2.75	3.00	3.25	6.50	3.25	1.00	1.75	-0.172363	0.072266	0.975586	0.770000	3.360000	-1.260000	833.00	-0.05	-0.12
2.35	0.00	0.00	0.00	0.25	0.00	0.00	0.75	0.00	0.00	4.25	5.50	3.50	0.00	0.00	0.00	4.00	-0.928711	-0.068359	1.956055	130.550003	-234.639999	36.330002	175.00	0.22	-0.11	3.50	5.00	5.75	7.50	9.00	8.50	3.00	7.50	2.50	3.00	3.50	3.50	6.75	3.00	1.00	1.75	-0.160156	0.052246	0.981934	0.910000	3.710000	-2.030000	821.00	-0.05	-0.12
2.36	0.00	0.00	0.00	0.00	0.00	0.00	0.75	0.00	0.00	4.00	5.75	3.25	0.00	0.00	0.00	3.75	-0.960938	-0.006348	1.873047	123.059998	-236.460007	46.549999	168.00	0.23	-0.11	3.00	4.50	5.25	7.00	8.75	8.50	3.00	7.75	2.25	3.00	3.75	4.00	7.25	3.00	1.00	1.75	-0.182129	0.062988	1.001465	2.660000	4.480000	-1.610000	810.00	-0.04	-0.13
2.37	0.00	0.00	0.00	0.00	0.00	0.00	0.50	0.00	0.00	4.25	5.75	3.50	0.00	0.00	0.00	4.00	-0.962891	-0.029297	1.681152	121.520004	-237.020004	58.099998	171.00	0.24	-0.12	2.50	3.75	5.00	6.50	8.50	8.50	3.00	7.75	2.50	3.00	4.00	4.00	7.75	3.25	1.00	2.00	-0.156250	0.061035	0.980957	4.550000	5.810000	-0.280000	801.00	-0.02	-0.13
2.38	0.00	0.00	0.00	0.00	0.00	0.00	0.75	0.00	0.00	4.25	5.75	3.50	0.00	0.00	0.00	4.00	-0.966797	-0.016602	1.574219	120.330002	-231.910004	70.000000	175.00	0.23	-0.11	2.00	3.50	4.50	6.25	8.25	8.50	2.75	7.75	2.75	3.75	4.50	4.75	8.00	3.25	1.25	1.75	-0.202148	0.053711	0.964355	7.560000	8.260000	0.630000	806.00	-0.01	-0.14
2.39	0.00	0.00	0.00	0.25	0.00	0.00	0.50	0.00	0.00	4.25	5.50	3.50	0.00	0.00	0.00	3.75	-0.947754	0.001465	1.570801	117.529999	-223.369995	81.970001	170.00	0.23	-0.12	1.75	3.00	3.50	5.50	8.00	8.50	3.00	7.75	2.75	3.50	5.00	5.50	8.25	3.50	1.25	2.25	-0.170410	0.078613	0.987793	8.960000	8.890000	0.840000	798.00	0.01	-0.14
2.40	0.00	0.00	0.00	0.00	0.00	0.00	0.50	0.00	0.00	4.25	5.50	3.50	0.00	0.00	0.00	4.00	-0.938965	0.043945	1.585938	112.699997	-214.199997	93.870003	168.00	0.24	-0.12	1.75	3.00	3.50	5.25	7.50	8.25	2.75	8.00	3.00	4.00	6.50	6.50	8.50	3.50	1.50	2.50	-0.174805	0.079102	0.975586	9.940000	9.660000	0.980000	828.00	0.02	-0.14
2.41	0.00	0.00	0.00	0.00	0.00	0.00	0.50	0.00	0.00	4.00	5.50	3.25	0.00	0.00	0.00	4.00	-0.943359	0.106934	1.653809	108.220001	-207.130005	106.959999	163.00	0.24	-0.12	1.50	2.50	3.00	5.00	7.25	8.25	2.50	8.25	3.00	4.25	7.50	7.50	9.00	3.75	1.50	2.25	-0.168945	0.095703	0.979492	10.290000	10.430000	0.700000	839.00	0.04	-0.15
2.42	0.00	0.00	0.00	0.25	0.00	0.00	0.75	0.00	0.00	4.25	5.50	3.25	0.00	0.00	0.00	3.75	-0.977539	0.126465	1.652344	102.690002	-203.839996	121.449997	171.00	0.22	-0.11	1.25	1.75	2.50	4.00	7.00	8.25	2.50	8.25	3.25	5.00	8.25	8.00	9.25	3.50	1.25	2.75	-0.186035	0.090332	0.971191	10.710000	11.060000	0.350000	834.00	0.05	-0.15
2.43	0.00	0.00	0.00	0.00	0.00	0.00	0.50	0.00	0.00	4.25	5.50	3.50	0.00	0.00	0.00	3.75	-1.052246	0.130859	1.624512	96.110001	-202.580002	133.979996	167.00	0.24	-0.12	0.75	1.25	2.00	3.75	6.50	8.00	2.50	8.50	3.50	5.50	8.75	8.50	9.50	3.75	1.50	2.75	-0.177246	0.075195	0.979492	10.920000	11.830000	-0.070000	838.00	0.07	-0.15
2.44	0.00	0.00	0.00	0.00	0.00	0.00	0.75	0.00	0.00	4.25	5.75	3.50	0.00	0.00	0.00	3.75	-1.163086	0.092285	1.517578	92.120003	-201.389999	140.630005	173.00	0.23	-0.11	0.75	1.25	2.00	3.50	6.25	8.25	2.50	8.75	3.75	6.25	9.25	8.75	10.00	4.00	1.50	3.00	-0.208496	0.093750	0.980957	11.130000	13.090000	-0.560000	866.00	0.07	-0.15
2.45	0.00	0.00	0.00	0.50	0.00	0.00	0.50	0.00	0.00	4.00	5.75	3.50	0.00	0.00	0.00	4.00	-1.294434	0.016113	1.335449	91.840004	-196.419998	140.070007	174.00	0.22	-0.12	0.75	1.50	1.50	3.25	6.00	8.00	2.50	8.75	4.25	7.50	9.75	9.25	10.25	4.75	1.50	3.25	-0.187988	0.109375	0.975586	11.410000	14.840000	-0.980000	894.00	0.09	-0.15
2.46	0.00	0.00	0.00	0.00	0.00	0.00	0.50	0.00	0.00	4.00	5.50	3.50	0.00	0.00	0.00	4.00	-1.471680	-0.093262	1.111816	92.820000	-185.500000	131.669998	166.00	0.24	-0.12	0.50	0.75	1.25	2.75	5.25	8.00	2.25	8.75	4.25	8.00	10.50	10.00	10.75	5.00	1.75	3.50	-0.125977	0.046875	1.004395	11.410000	17.150000	-1.540000	896.00	0.10	-0.15
2.47	0.00	0.00	0.00	0.00	0.00	0.00	0.50	0.00	0.00	4.00	5.50	3.25	0.00	0.00	0.00	3.75	-1.657715	-0.211914	0.898438	96.809998	-168.350006	115.010002	162.00	0.24	-0.12	0.50	0.75	1.00	2.25	5.00	7.75	2.25	9.00	5.00	8.50	11.00	10.50	11.00	5.50	2.00	4.25	-0.285156	0.094238	1.000000	12.320000	20.440001	-2.520000	925.00	0.11	-0.15
2.48	0.00	0.00	0.00	0.00	0.00	0.00	0.50	0.00	0.00	4.00	5.50	3.25	0.00	0.00	0.00	4.00	-1.880859	-0.385254	0.666992	102.970001	-147.000000	88.760002	163.00	0.24	-0.12	0.50	1.00	0.75	2.00	4.00	7.50	2.00	8.75	5.00	9.00	11.75	11.25	11.50	5.75	2.00	5.00	-0.176270	0.077637	0.986816	12.600000	24.639999	-2.170000	932.00	0.12	-0.15
2.49	0.00	0.00	0.00	0.00	0.00	0.00	0.50	0.00	0.00	4.00	5.75	3.25	0.00	0.00	0.00	4.00	-2.145020	-0.592285	0.413086	110.809998	-122.010002	54.950001	166.00	0.24	-0.12	0.00	0.25	0.75	2.00	3.50	7.25	2.00	8.75	6.00	9.50	12.50	11.75	11.75	6.50	2.25	5.25	-0.182129	0.079590	1.043457	14.280000	29.330000	-3.010000	955.00	0.14	-0.15
2.50	0.00	0.00	0.00	0.00	0.00	0.00	0.50	0.00	0.00	4.25	5.50	3.25	0.00	0.00	0.00	4.00	-2.385742	-0.975098	0.121582	83.440002	-53.970001	-3.290000	166.00	0.24	-0.11	0.00	0.50	0.50	2.00	2.75	6.75	2.00	8.75	6.00	10.00	13.25	12.25	12.25	7.00	2.50	5.25	-0.223145	0.084961	1.002930	17.780001	36.189999	-2.940000	971.00	0.15	-0.15
2.51	0.00	0.00	0.00	0.00	0.00	0.00	0.50	0.00	0.00	4.50	5.75	3.25	0.00	0.00	0.00	3.75	-2.228516	-0.910645	0.179688	34.160000	-14.420000	-20.370001	169.00	0.24	-0.11	0.00	0.25	0.50	2.25	2.00	6.25	1.75	8.50	6.75	10.50	13.75	13.00	12.50	8.00	2.50	5.75	-0.215820	0.053223	0.993164	22.610001	47.110001	-3.220000	991.00	0.16	-0.14
2.52	0.00	0.00	0.00	0.00	0.00	0.00	0.50	0.00	0.00	4.25	5.50	3.25	0.00	0.00	0.00	3.75	-1.963867	-0.614258	0.312500	-14.700000	20.510000	-33.250000	164.00	0.24	-0.11	0.00	0.00	0.50	1.75	1.75	6.25	1.75	8.25	7.25	11.00	14.50	13.50	13.00	8.50	2.50	6.25	-0.222168	0.160645	1.037109	30.940001	59.920002	-3.920000	1013.00	0.17	-0.14
2.53	0.00	0.00	0.00	0.00	0.00	0.00	0.50	0.00	0.00	4.00	5.50	3.25	0.00	0.00	0.00	3.75	-1.721680	-0.315430	0.421875	-43.610001	47.040001	-43.540001	162.00	0.24	-0.12	0.00	0.25	0.50	1.00	1.25	5.50	1.50	8.00	7.50	11.50	15.25	14.00	13.25	9.00	3.00	6.50	-0.229492	0.071289	1.024902	40.320000	76.370003	-4.410000	1021.00	0.18	-0.14
2.54	0.00	0.00	0.00	0.00	0.00	0.00	0.50	0.00	0.00	4.00	5.50	3.25	0.00	0.00	0.00	4.00	-1.534180	-0.111328	0.479980	-55.790001	67.760002	-50.470001	163.00	0.24	-0.12	0.00	0.00	0.25	0.75	0.75	5.25	1.50	7.50	7.50	11.75	15.75	14.50	13.25	10.25	3.25	6.75	-0.241699	0.124023	1.070801	46.970001	94.639999	-4.900000	1025.00	0.19	-0.13
2.55	0.00	0.00	0.00	0.00	0.00	0.00	0.50	0.00	0.00	4.25	5.50	3.50	0.00	0.00	0.00	4.00	-1.415039	0.039062	0.535156	-59.779999	85.470001	-51.939999	168.00	0.24	-0.12	0.00	0.00	0.00	1.00	0.75	5.00	1.25	7.25	7.50	12.00	16.25	15.00	13.25	11.50	3.50	7.00	-0.242188	0.118164	1.081055	50.330002	119.489998	-5.600000	1042.00	0.19	-0.13
2.56	0.00	0.00	0.00	0.00	0.00	0.00	0.50	0.00	0.00	4.00	5.50	3.25	0.00	0.00	0.00	3.75	-1.359375	0.167969	0.646973	-57.189999	99.750000	-47.250000	162.00	0.24	-0.12	0.00	0.00	0.00	0.75	0.50	4.50	1.25	6.75	7.25	12.00	16.50	15.25	13.25	13.00	3.75	7.25	-0.310547	0.146484	1.070801	52.220001	140.419998	-4.970000	1042.00	0.20	-0.13
2.57	0.00	0.00	0.00	0.00	0.00	0.00	0.50	0.00	0.00	3.75	5.50	3.25	0.00	0.00	0.00	3.75	-1.324219	0.240723	0.782715	-48.369999	107.940002	-37.730000	159.00	0.24	-0.12	0.00	0.00	0.00	0.75	0.25	3.75	1.00	6.25	7.50	12.00	17.00	15.50	13.00	14.50	4.25	7.50	-0.297852	0.112305	1.116211	53.760002	155.470001	-4.900000	1049.00	0.21	-0.12
2.58	0.25	0.00	0.00	0.25	0.00	0.00	0.50	0.00	0.00	4.00	5.50	2.75	0.00	0.00	0.00	4.00	0.310059	0.633301	2.510254	-127.470001	169.399994	-17.080000	163.00	0.22	-0.11	0.00	0.00	0.00	0.50	0.25	3.25	1.00	5.75	6.75	11.75	16.75	15.50	12.75	16.00	5.00	7.75	-0.398926	0.155273	1.086914	58.660000	191.940002	-7.420000	1038.00	0.22	-0.12
2.59	0.50	0.50	0.50	0.50	0.00	0.00	0.50	0.00	0.00	3.75	5.50	3.00	0.00	0.00	0.00	3.75	0.988281	0.431641	0.630859	-188.440002	140.210007	-9.660000	177.00	0.17	-0.11	0.00	0.00	0.00	0.50	0.00	2.75	1.00	5.25	6.25	11.50	16.75	15.75	12.50	17.25	5.00	7.75	-0.438477	0.143555	1.105469	68.669998	214.339996	-3.500000	1024.00	0.23	-0.12
2.60	1.25	2.25	0.75	1.75	0.00	0.25	0.50	0.00	0.00	3.75	5.25	3.00	0.00	0.00	0.00	3.75	-0.050781	-0.302246	0.647949	-244.720001	149.800003	-21.629999	218.00	0.07	-0.11	0.00	0.00	0.00	0.50	0.00	1.50	1.00	4.75	5.50	11.00	16.75	15.50	12.25	18.25	5.50	8.00	-0.456543	0.173340	1.178223	79.449997	230.790009	-1.750000	998.00	0.24	-0.11
2.61	3.25	4.75	1.00	1.75	0.00	0.00	0.50	0.00	0.00	3.75	5.50	3.50	0.00	0.00	0.00	4.25	-0.113281	0.227539	1.233398	-259.980011	208.250000	-23.590000	272.00	-0.00	-0.10	0.00	0.00	0.00	0.25	0.00	2.00	0.75	4.50	5.25	10.25	16.25	15.50	11.75	19.25	6.00	8.25	-0.562988	0.207520	1.231445	94.430000	246.680008	0.560000	987.00	0.24	-0.11
2.62	6.75	9.00	2.25	3.25	0.00	0.00	0.50	0.00	0.00	3.75	5.25	3.25	0.00	0.00	0.00	4.00	-0.246582	-0.121582	1.691895	-175.419998	227.080002	7.560000	371.00	-0.11	-0.08	0.00	0.00	0.00	0.00	0.00	1.50	0.75	3.75	4.00	9.75	15.75	15.00	11.25	20.00	6.00	8.25	-0.567383	0.264160	1.154297	99.610001	269.010010	1.610000	938.00	0.25	-0.11
2.63	9.50	12.75	3.25	5.25	0.00	0.00	0.50	0.00	0.00	3.25	5.75	3.25	0.00	0.00	0.00	4.00	-0.370117	-0.581055	1.880859	-115.010002	223.160004	18.129999	467.00	-0.17	-0.08	0.00	0.00	0.00	0.00	0.00	1.00	0.75	3.50	2.75	9.00	15.25	14.75	10.50	20.25	6.00	8.25	-0.544434	0.198242	1.357910	100.730003	293.929993	0.840000	892.00	0.25	-0.11
2.64	13.50	16.00	4.00	5.75	0.00	0.00	0.50	0.00	0.00	4.00	5.25	3.50	0.25	0.00	0.00	4.00	-0.231445	-0.665039	1.442383	-62.510002	225.259995	6.720000	560.00	-0.19	-0.07	0.00	0.00	0.00	0.00	0.00	0.50	0.75	3.00	2.25	8.50	14.50	14.00	10.00	19.75	6.25	8.00	-0.689453	0.333008	1.555176	98.000000	313.880005	-1.260000	844.00	0.26	-0.11
2.65	15.00	18.00	5.75	7.75	0.25	0.50	0.50	0.00	0.00	4.00	5.25	3.50	0.00	0.00	0.00	4.00	-0.401367	-0.304199	1.706543	-18.760000	226.660004	-15.050000	641.00	-0.21	-0.07	0.00	0.00	0.00	0.00	0.00	0.25	0.75	2.75	1.75	7.50	13.50	13.25	9.25	19.25	6.00	7.75	-0.610352	0.406738	1.170410	89.949997	339.920013	-8.260000	788.00	0.26	-0.11
2.66	16.50	18.75	7.00	9.00	0.25	1.50	0.25	0.00	0.00	3.50	5.50	3.50	0.25	0.00	0.00	3.75	-0.440430	0.329102	1.902344	2.240000	215.389999	-26.670000	697.00	-0.22	-0.07	0.00	0.00	0.00	0.00	0.00	0.00	0.75	2.25	1.25	6.50	12.00	12.25	8.50	17.75	5.75	7.00	-0.845215	0.427734	1.566895	72.029999	371.630005	-22.260000	708.00	0.27	-0.11
2.67	17.00	20.25	8.00	10.25	0.50	2.50	0.50	0.00	0.00	3.75	5.50	3.50	0.25	0.25	0.00	3.75	-0.476562	0.401855	1.919922	0.910000	193.759995	-20.440001	763.00	-0.22	-0.07	0.00	0.00	0.00	0.00	0.00	0.00	0.50	1.50	0.50	4.75	10.75	10.75	7.75	15.75	5.25	6.00	-0.917969	0.566895	1.733887	55.790001	397.739990	-34.160000	602.00	0.27	-0.12
2.68	17.50	19.75	8.25	11.25	1.00	3.50	0.50	0.00	0.00	3.50	5.50	3.75	0.25	0.00	0.00	4.00	-0.454590	0.302734	1.803223	-16.799999	161.770004	-11.410000	793.00	-0.22	-0.08	0.00	0.00	0.00	0.00	0.00	0.00	0.50	0.75	0.25	4.00	9.25	9.50	6.50	13.25	4.50	4.75	-1.025879	0.662598	2.062988	50.189999	420.700012	-41.160000	503.00	0.28	-0.11
2.69	17.25	20.50	8.50	12.00	1.25	4.50	0.75	0.50	0.00	4.00	5.50	4.00	0.50	0.50	0.00	4.25	-0.356934	0.155762	1.455566	-31.150000	129.149994	-6.930000	849.00	-0.21	-0.08	0.00	0.00	0.00	0.50	0.00	0.00	0.75	0.25	0.00	2.25	7.50	8.25	5.50	10.00	3.00	3.00	-1.188965	0.303223	2.199707	46.830002	432.390015	-46.900002	391.00	0.26	-0.12
2.70	17.50	20.50	9.00	12.75	1.75	5.50	0.75	0.50	0.00	3.75	5.75	4.00	0.50	0.25	0.00	4.25	-0.290039	0.171875	1.220215	-39.619999	103.250000	-5.880000	879.00	-0.21	-0.09	0.00	0.00	0.00	0.00	0.00	0.00	0.75	0.00	0.00	2.00	5.50	6.75	3.50	7.50	2.25	1.50	-1.104980	0.416504	2.313477	24.850000	432.600006	-48.439999	287.00	0.27	-0.11
2.71	18.50	21.50	9.75	13.50	2.00	6.50	0.75	0.75	0.00	4.00	5.75	3.75	0.50	0.50	0.00	4.00	-0.354004	0.151367	1.448242	-51.660000	87.500000	-4.690000	934.00	-0.22	-0.09	0.00	0.00	0.00	0.00	0.00	0.00	0.75	0.00	0.00	1.50	4.00	4.50	2.50	5.50	1.50	1.00	-0.836426	0.439941	2.206055	2.240000	428.190002	-50.189999	206.00	0.27	-0.10
2.72	19.00	21.50	10.50	14.25	2.25	6.25	1.00	0.75	0.00	4.00	5.75	3.75	0.50	0.50	0.00	4.00	-0.232910	0.031250	1.130859	-51.240002	56.420002	-2.730000	959.00	-0.22	-0.08	0.00	0.00	0.00	0.00	0.00	0.00	1.00	0.00	0.00	1.25	2.75	3.50	2.00	3.00	0.75	0.50	-0.396973	0.585938	2.015625	3.990000	433.860016	-48.650002	147.00	0.25	-0.10
2.73	18.25	21.00	10.25	14.00	2.50	7.50	1.00	1.00	0.00	4.25	6.00	3.75	0.50	0.50	0.00	4.00	-0.244141	0.086914	1.075195	-43.189999	43.119999	-3.290000	967.00	-0.21	-0.09	0.00	0.00	0.00	0.00	0.00	0.00	0.75	0.00	0.00	1.25	1.75	1.75	1.75	1.50	0.00	0.25	0.126953	0.658203	1.812012	42.209999	443.519989	-49.139999	90.00	0.22	-0.10
2.74	19.50	22.00	11.00	14.75	2.75	7.75	1.00	1.00	0.00	4.25	6.00	3.75	0.50	0.50	0.00	4.25	-0.206055	0.093262	1.013672	-36.330002	34.930000	-2.170000	1012.00	-0.21	-0.08	0.00	0.00	0.00	0.00	0.00	0.00	1.00	0.00	0.00	1.00	1.50	1.25	1.00	0.50	0.00	0.00	0.280273	0.226562	1.433594	113.330002	439.320007	-65.169998	67.00	0.20	-0.07
2.75	20.00	22.00	11.00	14.75	3.00	8.00	1.00	1.00	0.00	4.50	6.00	4.00	0.50	0.50	0.00	4.25	-0.208008	0.094727	0.997070	-33.810001	28.210001	-2.170000	1028.00	-0.21	-0.08	0.00	0.00	0.00	0.00	0.00	0.00	1.25	0.00	0.00	1.00	1.25	1.00	0.75	0.50	0.25	0.00	0.530762	-0.353516	2.607422	177.169998	394.940002	-136.919998	66.00	0.20	-0.03
2.76	20.25	22.00	11.25	15.25	3.25	8.00	1.00	1.25	0.00	4.25	6.00	3.75	0.75	0.75	0.00	4.00	-0.212402	0.095703	0.991211	-31.850000	22.750000	-2.590000	1043.00	-0.21	-0.08	0.00	0.00	0.00	0.00	0.00	0.25	1.25	0.00	0.00	1.25	0.75	0.50	0.75	0.50	0.25	0.00	0.166016	0.365234	4.220215	134.820007	240.029999	-171.220001	61.00	0.18	-0.00
2.77	20.25	22.75	11.50	15.00	3.75	8.25	1.00	1.00	0.00	4.50	6.25	4.00	0.50	1.00	0.00	4.00	-0.209473	0.083008	0.998047	-29.400000	16.309999	-2.940000	1062.00	-0.21	-0.08	0.00	0.00	0.00	0.00	0.00	0.00	1.25	0.00	0.00	0.75	1.00	0.25	0.50	0.50	0.00	0.00	1.000000	-0.134277	3.580566	74.620003	57.959999	-172.130005	48.00	0.00	0.00
2.78	19.50	22.50	11.50	15.75	4.25	8.50	1.25	1.25	0.25	4.25	6.00	3.75	0.50	0.50	0.00	4.00	-0.205566	0.072266	1.005371	-25.690001	11.900000	-3.290000	1068.00	-0.21	-0.08	0.00	0.00	0.00	0.00	0.00	0.00	1.25	0.00	0.00	1.25	0.75	0.00	0.00	0.50	0.00	0.00	0.465820	0.011719	1.674805	-65.660004	-152.740005	-161.699997	44.00	0.00	0.00
2.79	20.25	22.25	11.75	15.50	4.75	8.50	1.00	1.25	0.50	4.50	6.25	4.25	0.50	1.00	0.00	4.25	-0.204102	0.076660	0.987305	-19.389999	8.890000	-3.360000	1094.00	-0.20	-0.08	0.00	0.00	0.00	0.00	0.00	0.00	1.25	0.00	0.00	0.50	0.50	0.00	0.25	0.50	0.00	0.00	0.368652	0.166992	1.266602	-96.809998	-174.789993	-158.479996	36.00	0.00	0.00
2.80	20.00	22.00	12.00	15.25	4.75	8.50	1.25	1.25	0.25	4.50	6.00	4.00	0.75	1.00	0.00	4.25	-0.190918	0.073730	0.977051	-14.350000	7.770000	-3.080000	1087.00	-0.21	-0.08	0.00	0.00	0.00	0.50	0.00	0.00	1.25	0.00	0.00	0.75	0.25	0.25	0.50	0.25	0.00	0.00	0.318359	0.300781	1.114746	-110.529999	-188.229996	-154.350006	44.00	0.00	0.00
2.81	20.50	21.75	11.75	15.25	4.75	8.25	1.25	1.50	0.50	4.50	6.00	4.00	0.75	1.25	0.00	4.25	-0.200684	0.061523	0.959473	-11.410000	7.560000	-2.870000	1093.00	-0.20	-0.08	0.00	0.00	0.00	0.00	0.00	0.25	1.00	0.00	0.00	0.50	0.50	0.25	0.00	0.25	0.00	0.00	0.262207	0.459961	1.193848	-114.660004	-212.029999	-147.350006	33.00	0.00	0.00
2.82	19.50	21.50	11.50	15.00	5.00	8.50	1.25	1.50	0.50	4.75	6.25	4.00	0.75	1.25	0.00	4.50	-0.193359	0.072266	0.953613	-10.990000	7.350000	-2.870000	1087.00	-0.20	-0.08	0.00	0.00	0.00	0.00	0.00	0.00	1.25	0.00	0.00	0.50	0.00	0.00	0.25	0.00	0.00	0.00	0.234863	0.547852	1.294922	-110.110001	-246.330002	-135.240005	26.00	0.00	0.00
2.83	19.25	21.00	11.50	14.75	5.00	8.50	1.25	1.50	0.50	4.75	6.25	4.00	1.00	1.25	0.00	4.25	-0.192383	0.083008	0.946289	-11.410000	6.580000	-2.730000	1078.00	-0.19	-0.08	0.00	0.00	0.00	0.00	0.00	0.00	1.25	0.00	0.00	0.00	0.00	0.00	0.00	0.00	0.00	0.00	0.205078	0.596680	1.425781	-101.779999	-288.750000	-119.980003	19.00	0.00	0.00
2.84	18.25	20.00	11.25	14.25	5.00	8.50	1.25	1.50	0.50	4.50	6.50	4.50	0.75	1.50	0.00	4.25	-0.189453	0.067871	0.958496	-14.350000	6.650000	-2.800000	1055.00	-0.19	-0.08	0.00	0.00	0.00	0.00	0.00	1.00	1.25	0.00	0.00	0.25	0.00	0.00	0.25	0.00	0.00	0.00	0.158203	0.631836	1.508301	-95.620003	-336.559998	-102.340004	35.00	0.00	0.00
2.85	17.25	19.00	11.00	13.75	5.50	8.50	1.25	1.75	0.75	4.75	6.50	4.25	1.00	1.25	0.00	4.50	-0.185547	0.071777	0.937500	-16.940001	5.740000	-3.290000	1042.00	-0.18	-0.08	0.00	0.00	0.00	0.00	0.00	0.25	1.25	0.00	0.00	0.00	0.00	0.00	0.00	0.00	0.00	0.00	0.094238	0.660156	1.460449	-95.550003	-381.079987	-82.250000	22.00	0.00	0.00
2.86	16.00	18.25	10.50	13.50	6.00	8.50	1.25	1.75	0.75	5.00	6.50	4.25	1.25	1.75	0.00	4.25	-0.202148	0.069336	0.943848	-18.620001	4.130000	-3.780000	1027.00	-0.17	-0.08	0.00	0.00	0.00	0.00	0.00	0.25	1.25	0.00	0.00	0.00	0.00	0.00	0.00	0.00	0.00	0.00	-0.019043	0.694336	1.374512	-96.110001	-414.470001	-61.180000	22.00	0.00	0.00
2.87	14.75	17.00	10.50	13.00	6.25	8.50	1.25	2.00	1.25	5.25	6.75	4.25	1.25	1.75	0.00	4.50	-0.183105	0.037598	0.916504	-17.639999	3.080000	-3.920000	1016.00	-0.16	-0.08	0.00	0.00	0.00	0.00	0.00	0.00	1.25	0.00	0.00	0.25	0.00	0.00	0.25	0.00	0.00	0.00	-0.128906	0.738281	1.285645	-89.110001	-436.730011	-40.529999	24.00	0.00	0.00
2.88	13.75	15.75	10.00	12.50	6.25	8.50	1.25	2.00	1.50	5.25	7.00	4.50	1.25	2.00	0.00	4.50	-0.151855	0.070801	0.957520	-15.750000	2.590000	-4.340000	994.00	-0.15	-0.08	0.00	0.00	0.00	0.25	0.00	0.00	1.25	0.00	0.00	0.25	0.25	0.00	0.00	0.00	0.00	0.00	-0.218750	0.756836	1.151855	-69.510002	-451.149994	-21.559999	27.00	0.00	0.00
2.89	12.50	14.25	9.75	11.75	6.50	8.25	1.50	2.25	1.50	5.50	7.25	4.50	1.75	2.25	0.00	4.50	-0.169434	0.035645	0.926270	-14.490000	3.290000	-4.830000	976.00	-0.13	-0.08	0.00	0.00	0.00	0.25	0.00	0.00	1.25	0.00	0.25	0.25	0.00	0.00	0.25	0.00	0.00	0.00	-0.364746	0.731445	0.984375	-36.820000	-458.080017	-8.610000	30.00	0.00	0.00
2.90	11.25	12.75	9.50	11.00	7.00	8.25	1.50	2.50	1.75	5.75	7.25	4.75	1.75	2.25	0.00	4.75	-0.200684	0.067383	0.961426	-13.370000	4.550000	-5.250000	957.00	-0.12	-0.08	0.00	0.00	0.25	0.00	0.00	0.00	1.25	0.00	0.25	0.00	0.00	0.00	0.25	0.00	0.00	0.00	-0.513672	0.589355	0.762695	4.620000	-452.200012	-2.100000	27.00	0.00	0.00
2.91	9.75	11.00	9.25	10.25	7.25	8.00	1.75	2.50	2.00	6.00	7.50	4.75	1.75	2.50	0.00	4.75	-0.206543	0.068359	0.967773	-11.690000	6.300000	-5.460000	929.00	-0.10	-0.08	0.25	0.00	0.00	0.00	0.00	0.00	1.25	0.00	0.00	0.00	0.00	0.00	0.00	0.00	0.00	0.00	-0.709961	0.427734	0.645508	40.250000	-427.279999	-1.190000	22.00	0.00	0.00
2.92	9.00	9.75	8.75	9.75	7.25	8.00	1.75	2.75	2.50	6.25	7.50	5.00	2.00	2.75	0.00	4.75	-0.198242	0.055176	0.967285	-9.940000	7.840000	-5.040000	918.00	-0.09	-0.08	0.25	0.00	0.00	0.00	0.00	0.00	1.25	0.00	0.00	0.25	0.00	0.00	0.00	0.00	0.00	0.00	-0.916016	0.306152	0.692383	60.619999	-388.989990	-5.810000	24.00	0.00	0.00
2.93	8.00	8.75	8.75	9.25	7.50	7.75	1.75	2.75	2.75	6.50	7.75	5.00	2.00	2.75	0.25	5.00	-0.194336	0.052246	0.963867	-6.300000	10.080000	-3.570000	906.00	-0.07	-0.08	0.00	0.00	0.50	0.00	0.00	0.00	1.25	0.00	0.00	0.00	0.00	0.00	0.00	0.00	0.00	0.00	-0.991211	0.286133	0.999512	64.750000	-349.089996	-13.020000	25.00	0.00	0.00
2.94	7.25	8.00	8.25	8.50	7.50	7.75	2.00	3.25	3.00	7.00	7.75	5.50	2.50	3.00	0.25	5.25	-0.195312	0.045410	0.946289	-4.690000	11.130000	-3.360000	910.00	-0.05	-0.08	0.00	0.00	0.00	0.00	0.00	0.00	1.25	0.00	0.00	0.00	0.00	0.00	0.00	0.00	0.00	0.25	-1.009277	0.337891	1.391113	62.860001	-325.079987	-15.260000	20.00	0.00	0.00
2.95	6.50	7.00	7.75	8.25	7.50	7.75	2.00	3.75	3.25	7.50	8.00	5.50	2.75	3.25	0.25	5.00	-0.173340	0.050293	0.948730	-3.500000	11.760000	-3.080000	907.00	-0.04	-0.08	0.00	0.00	0.00	0.00	0.00	0.00	1.25	0.00	0.00	0.00	0.00	0.00	0.00	0.00	0.00	0.00	-1.005371	0.318848	1.540527	62.860001	-316.119995	-12.180000	19.00	0.00	0.00
2.96	5.75	6.25	7.50	7.75	7.50	7.50	2.00	4.00	3.75	7.25	8.25	5.50	2.50	3.50	0.50	5.25	-0.203613	0.051270	0.956055	-2.940000	12.390000	-2.940000	895.00	-0.03	-0.08	0.00	0.00	0.25	0.25	0.00	0.00	1.25	0.00	0.00	0.00	0.00	0.00	0.00	0.00	0.00	0.00	-1.035645	0.280762	1.431641	59.500000	-306.250000	-7.280000	24.00	0.00	0.00
2.97	5.00	5.50	7.25	7.25	7.50	7.50	2.25	4.25	4.00	7.50	8.50	6.00	3.25	3.75	0.75	5.25	-0.205078	0.053711	0.959473	-2.310000	12.880000	-2.870000	905.00	-0.01	-0.08	0.00	0.00	0.00	0.00	0.00	0.00	1.25	0.00	0.00	0.00	0.00	0.00	0.00	0.00	0.00	0.00	-1.045898	0.332031	1.406738	54.740002	-287.209991	-3.780000	19.00	0.00	0.00
2.98	4.25	4.75	6.50	6.75	7.25	7.50	2.25	4.75	4.50	7.75	8.50	6.25	3.25	4.00	0.25	5.25	-0.205566	0.050781	0.956055	-1.540000	13.370000	-2.870000	890.00	0.00	-0.08	0.00	0.00	0.00	0.00	0.00	0.00	1.25	0.00	0.00	0.00	0.00	0.00	0.00	0.00	0.00	0.00	-1.020996	0.641602	1.798828	70.419998	-263.619995	7.070000	19.00	0.00	0.00
2.99	3.75	4.00	6.25	6.25	7.25	7.50	2.25	5.00	4.50	8.00	8.75	6.25	3.50	4.25	0.50	5.25	-0.209473	0.049316	0.949219	-0.980000	14.000000	-3.150000	885.00	0.01	-0.09	0.00	0.00	0.00	0.00	0.00	0.00	1.00	0.00	0.00	0.00	0.00	0.00	0.00	0.00	0.00	0.00	-1.015625	0.687012	1.828613	79.730003	-262.500000	21.770000	15.00	0.00	0.00
3.00	2.75	3.25	5.75	5.50	7.25	7.25	2.50	5.25	5.25	8.00	9.25	6.75	4.00	4.75	0.75	5.50	-0.204590	0.058105	0.960449	-0.140000	15.050000	-3.360000	892.00	0.04	-0.08	0.00	0.00	0.00	0.00	0.00	0.00	1.25	0.00	0.00	0.00	0.00	0.00	0.25	0.00	0.00	0.00	-1.009277	0.769043	1.850586	77.000000	-257.529999	41.299999	21.00	0.00	0.00
3.01	2.25	2.50	5.25	5.25	7.00	7.00	2.50	5.50	5.50	8.25	9.50	7.00	4.50	5.00	0.75	5.50	-0.208984	0.049805	0.955078	0.980000	16.030001	-3.500000	888.00	0.05	-0.09	0.00	0.00	0.00	0.00	0.00	0.00	1.25	0.00	0.00	0.00	0.00	0.00	0.00	0.00	0.00	0.00	-1.041992	0.771973	1.734863	75.879997	-251.369995	63.630001	19.00	0.00	0.00
3.02	1.75	2.00	4.25	4.50	6.75	7.00	2.50	5.50	6.25	8.50	9.75	7.25	5.00	5.25	0.75	5.50	-0.213867	0.043945	0.955566	1.890000	17.010000	-4.060000	880.00	0.07	-0.09	0.00	0.50	0.00	0.00	0.00	0.00	1.25	0.00	0.00	0.25	0.00	0.00	0.00	0.00	0.00	0.00	-1.080566	0.652344	1.591309	86.660004	-243.180008	80.080002	26.00	0.00	0.00
3.03	1.00	1.00	3.50	4.25	6.25	7.00	2.25	5.75	6.75	8.75	10.50	7.75	5.50	5.75	1.00	5.75	-0.205566	0.043945	0.957031	3.150000	18.200001	-4.620000	881.00	0.09	-0.09	0.00	0.00	0.00	0.00	0.00	0.00	1.25	0.00	0.00	0.00	0.00	0.00	0.00	0.00	0.00	0.00	-1.059570	0.492676	1.568359	106.959999	-231.490005	88.199997	19.00	0.00	0.00
3.04	0.50	1.25	3.00	3.50	5.75	6.75	2.25	5.75	7.25	9.00	10.75	8.00	5.75	6.25	1.00	5.75	-0.213379	0.047363	0.958984	4.550000	19.530001	-5.110000	877.00	0.10	-0.09	0.00	0.00	0.00	0.25	0.00	0.00	1.25	0.00	0.00	0.25	0.00	0.00	0.00	0.00	0.00	0.00	-1.009277	0.418945	1.823242	138.250000	-223.369995	90.440002	24.00	0.00	0.00
3.05	0.50	0.75	2.50	2.75	5.25	6.50	2.25	6.00	7.75	9.50	11.25	8.50	6.00	7.00	1.25	5.75	-0.214844	0.057129	0.954590	6.160000	20.580000	-5.530000	888.00	0.12	-0.09	0.00	0.00	0.00	0.25	0.00	0.25	1.00	0.00	0.00	0.00	0.00	0.00	0.00	0.00	0.00	0.00	-0.984863	0.316895	2.158691	177.869995	-230.089996	90.300003	21.00	0.00	0.00
3.06	0.50	0.50	2.00	2.50	4.75	6.25	2.25	6.00	8.00	9.50	11.50	9.00	6.50	7.50	1.50	6.00	-0.225098	0.054688	0.956543	7.420000	21.840000	-6.230000	893.00	0.13	-0.09	0.00	0.00	0.00	0.25	0.00	0.00	1.25	0.00	0.00	0.00	0.00	0.00	0.00	0.00	0.00	0.00	-1.023438	0.144531	2.239746	207.550003	-248.080002	90.440002	22.00	0.00	0.00
3.07	0.25	0.25	1.75	2.25	4.25	6.00	2.25	6.00	8.50	10.00	12.50	9.25	6.75	8.25	1.25	6.25	-0.215820	0.060547	0.948730	8.190000	23.240000	-6.790000	906.00	0.15	-0.09	0.00	0.00	0.00	0.25	0.00	0.00	1.25	0.00	0.00	0.00	0.00	0.00	0.00	0.00	0.00	0.00	-1.117676	0.011719	2.127930	212.380005	-264.320007	94.290001	22.00	0.00	0.00
3.08	0.00	0.50	1.00	2.00	3.25	6.00	2.00	6.25	8.75	10.50	13.00	10.00	7.25	9.00	1.50	6.25	-0.203125	0.050781	0.957031	8.890000	24.780001	-7.350000	919.00	0.16	-0.09	0.00	0.00	0.50	0.00	0.00	0.00	1.25	0.00	0.00	0.00	0.00	0.00	0.00	0.00	0.00	0.00	-1.255859	-0.052246	1.952637	191.449997	-269.640015	104.440002	25.00	0.00	0.00
3.09	0.00	0.00	0.75	1.75	3.00	5.50	2.00	6.25	9.00	10.75	13.75	10.75	7.50	9.50	1.75	6.50	-0.211914	0.069824	0.957520	9.660000	26.740000	-7.700000	933.00	0.17	-0.09	0.00	0.00	0.00	0.00	0.00	0.00	1.00	0.00	0.00	0.00	0.00	0.00	0.00	0.00	0.00	0.00	-1.459473	0.002930	1.783203	153.229996	-263.410004	121.099998	15.00	0.00	0.00
3.10	0.00	0.00	0.75	1.25	2.50	5.25	2.00	6.25	9.50	11.25	14.50	11.25	8.00	10.50	2.00	6.50	-0.225586	0.073242	0.964844	10.290000	29.400000	-8.540000	959.00	0.18	-0.09	0.00	0.00	0.00	0.00	0.00	0.25	1.25	0.00	0.00	0.00	0.00	0.00	0.00	0.00	0.00	0.00	-1.691406	0.147949	1.654785	111.160004	-251.160004	142.380005	22.00	0.00	0.00
3.11	0.00	0.00	1.00	1.75	2.00	5.00	1.75	6.25	10.00	11.75	15.25	12.00	8.00	11.25	2.25	6.75	-0.239746	0.087402	0.969238	12.110000	33.250000	-11.270000	994.00	0.18	-0.09	0.00	0.00	0.00	0.25	0.00	0.00	1.25	0.00	0.00	0.00	0.00	0.00	0.00	0.00	0.00	0.00	-1.950195	0.281738	1.468750	76.160004	-238.279999	163.660004	22.00	0.00	0.00
3.12	0.00	0.00	0.25	1.00	1.75	4.75	1.75	6.00	10.25	12.00	16.00	12.75	8.50	12.25	2.50	7.00	-0.236328	0.069336	0.990723	15.890000	40.040001	-12.530000	1006.00	0.20	-0.09	0.00	0.00	0.00	0.00	0.00	0.00	1.25	0.00	0.00	0.00	0.00	0.00	0.00	0.00	0.00	0.00	-2.249512	0.262207	1.051270	58.660000	-225.820007	180.529999	19.00	0.00	0.00
3.13	0.00	0.00	0.50	1.25	1.25	4.25	1.50	5.75	10.50	12.50	16.75	13.25	8.75	13.25	2.75	7.25	-0.246094	0.072754	0.992188	22.120001	48.439999	-13.020000	1029.00	0.20	-0.09	0.00	0.00	0.00	0.00	0.00	0.00	1.25	0.00	0.00	0.00	0.00	0.00	0.00	0.00	0.00	0.00	-2.755859	0.016113	0.435059	66.849998	-206.430008	193.339996	19.00	0.00	0.00
3.14	0.00	0.00	0.25	1.00	1.50	3.25	1.25	5.25	11.00	13.00	17.25	14.00	8.75	14.25	3.00	7.50	-0.272461	0.027344	1.129883	41.369999	65.309998	-10.500000	1042.00	0.21	-0.08	0.00	0.00	0.00	0.00	0.00	0.00	1.00	0.00	0.00	0.00	0.00	0.00	0.00	0.00	0.00	0.00	-3.561035	-0.382812	-0.212402	86.029999	-174.580002	195.020004	15.00	0.00	0.00
3.15	0.00	0.00	0.25	0.75	0.75	3.75	1.00	5.25	11.25	13.25	18.00	14.50	8.75	15.75	3.00	7.50	-0.275391	0.101074	1.020020	39.270000	83.720001	-6.300000	1064.00	0.22	-0.08	0.00	0.00	0.00	0.00	0.00	0.00	1.00	0.00	0.00	0.25	0.00	0.00	0.00	0.00	0.00	0.00	-4.057617	-0.825684	-0.834473	112.209999	-122.639999	174.930008	18.00	0.00	0.00
3.16	0.00	0.00	0.00	0.75	0.75	3.00	0.75	4.75	11.25	13.50	18.50	15.00	8.75	16.75	4.00	7.50	-0.307617	0.081543	1.009766	41.020000	104.860001	-3.500000	1074.00	0.23	-0.08	0.00	0.00	0.00	0.00	0.00	0.00	1.00	0.00	0.00	0.00	0.00	0.00	0.00	0.00	0.00	0.00	-3.854004	-1.139160	-0.589355	117.320000	-42.349998	128.240005	15.00	0.00	0.00
3.17	0.00	0.00	0.00	0.75	0.75	3.25	0.75	4.00	11.50	13.75	19.00	15.25	8.50	18.00	4.25	8.00	-0.322266	0.070801	1.032227	48.160000	123.970001	-1.470000	1093.00	0.23	-0.07	0.00	0.00	0.50	0.00	0.00	0.00	1.00	0.00	0.00	0.25	0.00	0.00	0.00	0.00	0.00	0.00	-3.045898	-1.163574	-0.007812	63.770000	34.580002	80.989998	23.00	0.00	0.00
3.18	0.00	0.00	0.00	0.25	0.50	2.00	0.50	3.50	11.50	13.75	19.25	15.50	8.50	19.00	4.50	7.75	-0.365723	0.084473	1.058105	45.779999	144.199997	0.560000	1075.00	0.24	-0.06	0.00	0.00	0.00	0.00	0.00	0.00	1.00	0.00	0.00	0.00	0.00	0.00	0.25	0.00	0.25	0.00	-1.416992	-0.087402	1.054199	-89.669998	82.389999	47.040001	20.00	0.00	0.00
3.19	0.00	0.00	0.00	0.25	0.50	2.00	0.50	2.75	11.25	13.75	19.25	15.50	8.00	20.00	5.00	8.00	-0.356445	0.136230	1.089355	34.860001	159.250000	0.350000	1071.00	0.25	-0.06	0.75	0.50	0.00	0.75	0.00	0.00	1.25	0.00	0.00	0.00	0.00	0.00	0.25	0.00	0.00	0.00	1.018066	-0.237793	0.131348	-96.809998	192.850006	2.450000	42.00	0.00	0.00
3.20	0.00	0.00	0.00	0.00	0.00	1.50	0.50	2.50	11.25	13.75	19.00	15.50	7.50	21.00	5.00	8.00	-0.395508	0.163574	1.021973	29.680000	172.199997	-3.080000	1055.00	0.26	-0.05	1.75	1.75	1.50	1.00	0.25	0.00	1.00	0.00	0.00	0.00	0.00	0.00	0.00	0.00	0.00	0.00	0.174316	-0.174316	2.631836	-147.279999	218.119995	-43.889999	80.00	-0.26	0.03
3.21	0.00	0.00	0.00	0.00	0.00	1.00	0.25	1.50	11.00	13.50	19.00	15.25	7.25	22.00	5.00	8.00	-0.437012	0.162109	1.054199	26.320000	189.210007	-7.700000	1028.00	0.27	-0.05	4.25	5.50	1.25	2.50	0.25	0.00	1.00	0.00	0.00	0.00	0.00	0.00	0.25	0.00	0.00	0.00	0.020996	0.494629	1.655762	-166.809998	214.410004	-35.209999	156.00	-0.32	-0.04
3.22	0.00	0.00	0.00	0.00	0.25	0.75	0.25	1.00	10.75	13.25	18.75	14.75	6.50	22.75	5.50	8.25	-0.464355	0.165039	1.113770	21.000000	207.690002	-11.270000	1013.00	0.27	-0.04	8.00	9.75	2.00	4.00	0.25	0.00	1.00	0.00	0.00	0.00	0.00	0.00	0.25	0.00	0.00	0.00	-0.473633	-0.033691	1.409668	-152.949997	222.600006	-27.090000	259.00	-0.34	-0.04
3.23	0.00	0.00	0.25	0.00	0.25	0.00	0.25	0.25	10.50	13.00	18.25	14.50	5.50	23.00	5.75	8.00	-0.512695	0.186035	1.150391	14.630000	226.309998	-16.100000	978.00	0.28	-0.03	12.75	13.50	3.25	5.75	0.50	0.00	1.00	0.00	0.00	0.00	0.00	0.00	0.50	0.00	0.00	0.00	-0.187500	0.442383	1.938477	-108.290001	231.419998	-6.510000	381.00	-0.35	-0.04
3.24	0.00	0.00	0.00	0.00	0.00	0.00	0.00	0.25	10.00	12.50	17.75	13.50	5.00	23.75	6.00	8.00	-0.557617	0.212891	1.180176	10.080000	244.930008	-21.280001	945.00	0.28	-0.03	15.25	15.50	5.00	8.00	0.50	0.25	1.00	0.00	0.00	0.00	0.00	0.00	0.25	0.25	0.00	0.00	-0.328125	-0.610352	1.758301	-42.000000	225.330002	14.280000	472.00	-0.34	-0.04
3.25	0.00	0.00	0.00	0.00	0.00	0.00	0.00	0.00	9.50	12.25	17.00	12.50	3.75	24.25	5.75	7.50	-0.594238	0.186523	1.200195	5.740000	265.860016	-26.320000	902.00	0.29	-0.01	17.50	17.25	6.00	9.00	0.75	0.75	1.00	0.00	0.00	0.00	0.00	0.00	0.25	0.00	0.00	0.00	-0.248535	-0.606934	1.881348	5.320000	224.979996	-7.280000	539.00	-0.35	-0.04
3.26	0.00	0.00	0.00	0.00	0.00	0.00	0.25	0.00	8.75	11.75	16.25	11.75	2.50	24.00	5.75	7.25	-0.674805	0.199219	1.244629	0.140000	290.290009	-30.240000	861.00	0.29	-0.01	18.00	18.25	7.25	9.50	1.25	1.50	1.00	0.50	0.00	0.00	0.00	0.00	0.75	0.00	0.00	0.00	-0.339355	-0.027344	1.992188	47.320000	210.839996	-33.459999	599.00	-0.33	-0.05
3.27	0.00	0.00	0.00	0.00	0.00	0.00	0.00	0.00	8.25	11.25	15.25	10.50	1.50	23.75	5.50	7.00	-0.698242	0.255371	1.257324	-3.360000	315.489990	-34.930000	807.00	0.29	-0.00	18.75	18.25	8.00	10.75	1.25	3.00	1.00	0.25	0.00	0.00	0.00	0.25	1.00	0.25	0.00	0.00	-0.264648	0.613281	1.876465	65.449997	184.800003	-38.360001	648.00	-0.32	-0.05
3.28	0.00	0.00	0.00	0.00	0.00	0.00	0.25	0.00	7.75	11.00	14.50	9.75	0.75	22.75	5.25	6.50	-0.787109	0.449707	1.290039	5.530000	339.079987	-42.490002	765.00	0.30	0.01	18.00	18.00	8.00	11.00	1.50	4.25	1.00	0.50	0.00	0.00	0.00	0.25	0.75	0.00	0.00	0.00	-0.265625	0.724609	1.680176	51.310001	157.570007	-20.020000	657.00	-0.32	-0.06
3.29	0.00	0.00	0.00	0.00	0.00	0.00	0.00	0.00	6.75	10.50	13.75	9.25	0.75	21.00	4.50	6.25	-0.798340	0.568359	1.036621	34.580002	362.880005	-55.510002	706.00	0.29	-0.00	17.75	17.75	8.00	12.00	1.00	5.00	1.00	0.75	0.00	0.00	0.00	0.25	1.00	0.00	0.00	0.00	-0.207520	0.509277	1.421875	14.420000	133.490005	-0.070000	671.00	-0.31	-0.07
3.30	0.00	0.00	0.00	0.00	0.00	0.00	0.00	0.00	5.50	10.00	12.75	8.25	0.25	18.50	3.25	5.75	-0.911621	0.714355	1.240234	64.400002	395.500000	-75.739998	622.00	0.29	-0.00	16.75	17.25	8.00	12.00	1.50	6.25	1.25	1.00	0.00	0.00	0.00	0.25	0.75	0.00	0.00	0.00	-0.157227	0.202637	1.170410	-11.830000	113.190002	9.520000	681.00	-0.30	-0.08
3.31	0.00	0.00	0.00	0.00	0.00	0.00	0.00	0.00	4.25	9.00	11.25	7.50	0.00	15.25	2.00	5.00	-1.359863	0.754395	2.013672	99.680000	427.209991	-91.209999	524.00	0.29	-0.01	16.50	17.25	8.25	12.00	1.75	7.75	1.25	1.50	0.00	0.00	0.00	0.25	1.00	0.25	0.00	0.00	-0.118164	0.111328	1.129395	-26.670000	99.680000	7.770000	712.00	-0.29	-0.08
3.32	0.00	0.00	0.00	0.00	0.00	0.00	0.00	0.00	2.75	8.00	9.75	6.50	0.00	12.00	0.75	4.75	-1.385254	0.702148	2.417969	135.169998	437.920013	-96.599998	426.00	0.28	-0.02	16.25	17.50	8.25	12.00	2.25	8.00	1.25	2.00	0.00	0.00	0.00	0.25	1.25	0.00	0.00	0.00	-0.179199	0.160645	1.332031	-36.259998	84.699997	5.530000	728.00	-0.29	-0.09
3.33	0.00	0.00	0.00	0.00	0.00	0.00	0.00	0.00	1.75	7.50	8.50	5.75	0.00	9.00	0.75	4.25	-1.246582	0.283203	2.569824	181.020004	421.049988	-96.110001	358.00	0.28	-0.03	15.75	17.25	8.50	12.75	2.25	8.75	1.25	2.50	0.00	0.00	0.00	0.25	1.50	0.00	0.00	0.00	-0.182129	0.139160	1.187500	-32.970001	69.090004	7.770000	749.00	-0.28	-0.10
3.34	0.00	0.00	0.00	0.00	0.00	0.00	0.25	0.00	2.00	6.50	7.75	5.25	0.00	6.25	0.00	4.00	-1.289551	0.137207	2.492676	196.490005	399.559998	-101.570000	309.00	0.27	-0.03	15.75	16.75	8.50	12.75	2.25	9.00	1.25	2.75	0.00	0.00	0.00	0.25	1.75	0.25	0.00	0.00	-0.132324	0.117188	1.099609	-30.590000	58.029999	8.400000	755.00	-0.28	-0.10
3.35	0.00	0.00	0.00	0.00	0.00	0.00	0.25	0.00	1.50	6.25	7.50	5.00	0.00	3.00	0.00	4.00	-0.000488	0.154297	1.657227	124.669998	376.529999	-146.020004	267.00	0.25	-0.06	15.00	16.75	8.25	12.75	2.25	9.50	1.25	3.50	0.00	0.00	0.00	0.50	1.75	0.50	0.00	0.00	-0.155273	0.131836	1.143066	-30.170000	48.369999	7.350000	766.00	-0.27	-0.11
3.36	0.00	0.00	0.00	0.00	0.00	0.00	0.50	0.00	0.50	5.50	7.00	4.75	0.00	0.75	0.00	4.25	0.195312	0.229492	1.372559	69.440002	368.480011	-173.180008	224.00	0.24	-0.10	14.50	16.50	8.50	12.75	2.75	9.75	1.50	4.50	0.00	0.00	0.00	0.50	2.00	0.50	0.00	0.50	-0.146973	0.150879	1.026367	-31.010000	39.759998	6.160000	794.00	-0.25	-0.11
3.37	0.00	0.00	0.00	0.00	0.00	0.00	0.50	0.00	0.50	5.50	6.50	4.50	0.25	1.00	0.00	4.25	0.332031	0.658203	1.491699	17.639999	346.220001	-191.169998	221.00	0.24	-0.10	13.75	16.00	8.25	12.75	3.00	10.00	1.50	5.25	0.00	0.00	0.00	0.50	2.00	0.25	0.00	0.50	-0.130859	0.133301	1.003906	-34.509998	35.840000	4.410000	793.00	-0.25	-0.12
3.38	0.00	0.00	0.00	0.00	0.00	0.00	0.50	0.00	0.50	5.50	6.50	4.50	0.00	0.50	0.00	4.25	0.312988	1.262207	3.807617	15.260000	236.529999	-177.029999	214.00	0.24	-0.10	13.75	16.00	8.50	12.75	3.50	10.00	1.75	5.50	0.00	0.00	0.00	0.50	2.00	0.25	0.00	0.25	-0.161133	0.113281	1.044922	-40.110001	23.309999	1.400000	808.00	-0.25	-0.12
3.39	0.00	0.00	0.00	0.00	0.00	0.00	0.50	0.00	0.50	6.00	6.50	4.00	0.00	0.75	0.00	4.00	0.771484	1.021973	2.988281	52.920002	76.370003	-147.419998	215.00	0.24	-0.09	13.75	15.50	8.50	13.00	3.75	10.25	1.50	5.75	0.00	0.25	0.25	0.50	2.50	0.50	0.00	0.50	-0.145996	0.104980	1.020996	-37.520000	16.940001	0.490000	824.00	-0.24	-0.12
3.40	0.00	0.00	0.00	0.00	0.00	0.00	0.50	0.00	0.75	5.50	6.25	4.00	0.00	0.50	0.00	4.00	0.910645	0.588379	2.147461	57.820000	-48.650002	-124.250000	208.00	0.24	-0.09	13.50	15.50	8.50	12.75	4.25	10.25	1.75	6.00	0.00	0.00	0.25	0.75	2.50	0.25	0.25	0.50	-0.142578	0.103516	1.008301	-35.209999	13.370000	-0.350000	833.00	-0.23	-0.12
3.41	0.00	0.00	0.00	0.00	0.00	0.00	0.50	0.00	0.50	5.25	6.25	4.00	0.00	0.25	0.00	4.00	0.704590	0.370605	1.457031	32.200001	-113.680000	-109.410004	200.00	0.24	-0.10	13.25	15.25	8.75	13.00	5.25	10.25	1.75	6.25	0.00	0.25	0.50	0.50	2.50	0.25	0.00	0.50	-0.147949	0.086426	1.063477	-32.480000	10.850000	-0.700000	848.00	-0.23	-0.12
3.42	0.00	0.00	0.00	0.00	0.00	0.00	0.50	0.00	0.00	5.50	6.25	4.00	0.00	0.00	0.00	4.25	0.495605	0.320312	1.107910	-0.910000	-136.919998	-96.389999	196.00	0.24	-0.11	13.00	15.00	8.75	12.75	5.25	10.50	1.75	6.50	0.00	0.50	0.50	0.75	2.50	0.50	0.25	0.75	-0.155762	0.078613	1.027344	-26.670000	6.160000	-0.420000	858.00	-0.22	-0.12
3.43	0.00	0.00	0.00	0.00	0.00	0.00	0.50	0.00	0.25	5.25	6.00	3.75	0.00	0.25	0.00	4.00	0.448242	0.367188	0.916992	-36.119999	-150.289993	-84.629997	192.00	0.24	-0.10	13.00	15.00	8.50	12.75	5.50	10.50	1.75	6.50	0.00	0.25	0.50	0.50	2.50	0.50	0.00	0.75	-0.143066	0.084473	1.001953	-20.440001	3.500000	0.210000	850.00	-0.23	-0.12
3.44	0.00	0.00	0.00	0.00	0.00	0.00	0.50	0.00	0.00	5.25	6.00	4.00	0.00	0.00	0.00	4.00	0.367188	0.484375	0.925781	-57.260002	-166.250000	-72.519997	189.00	0.24	-0.11	12.50	14.75	8.50	12.50	5.75	10.25	1.75	6.50	0.00	0.25	0.50	0.50	2.75	0.25	0.00	0.75	-0.145020	0.080078	1.000488	-15.890000	2.310000	0.560000	840.00	-0.22	-0.12
3.45	0.00	0.00	0.00	0.00	0.00	0.00	0.50	0.00	0.00	4.50	6.00	3.75	0.00	0.00	0.00	4.00	0.315430	0.562500	0.974121	-55.230000	-187.880005	-57.260002	179.00	0.24	-0.12	12.25	14.00	8.50	12.25	5.75	10.50	1.75	6.50	0.00	0.50	0.50	0.75	2.75	0.25	0.25	0.75	-0.146484	0.081055	1.001953	-12.740000	1.610000	0.490000	839.00	-0.22	-0.12
3.46	0.00	0.00	0.00	0.00	0.00	0.00	0.50	0.00	0.00	5.00	5.75	3.75	0.00	0.00	0.00	4.00	0.275391	0.578613	1.045898	-38.570000	-214.410004	-38.570000	181.00	0.24	-0.11	12.00	13.75	8.25	12.25	6.00	10.25	2.00	6.75	0.00	0.50	0.75	1.00	3.00	0.50	0.25	0.75	-0.143066	0.086426	0.983887	-10.570000	0.770000	0.280000	848.00	-0.21	-0.12
3.47	0.00	0.00	0.00	0.25	0.00	0.00	0.50	0.00	0.00	4.75	6.00	3.50	0.00	0.00	0.00	4.00	0.210938	0.547363	1.122070	-19.110001	-245.419998	-17.430000	181.00	0.23	-0.11	11.75	13.75	8.50	12.25	6.25	10.25	1.75	6.50	0.00	0.50	0.75	1.00	2.75	0.50	0.25	0.75	-0.142090	0.087402	0.983398	-10.010000	-0.070000	-0.280000	841.00	-0.21	-0.12
3.48	0.00	0.00	0.00	0.00	0.00	0.00	0.50	0.00	0.00	5.25	5.75	3.50	0.00	0.00	0.00	4.00	0.129395	0.484375	1.148926	-6.160000	-275.940002	4.550000	181.00	0.24	-0.11	11.50	13.25	8.25	12.00	6.50	10.25	1.75	6.75	0.00	0.00	0.50	0.50	2.75	0.75	0.25	0.75	-0.147461	0.088867	0.982422	-10.010000	-1.190000	-0.980000	824.00	-0.21	-0.12
3.49	0.00	0.00	0.00	0.00	0.00	0.00	0.50	0.00	0.00	4.75	5.75	3.50	0.00	0.00	0.00	4.00	0.047852	0.430176	1.177246	-1.190000	-301.209991	25.830000	176.00	0.24	-0.11	11.00	12.75	8.25	11.75	6.75	10.25	2.00	6.50	0.25	0.50	0.75	1.00	3.25	0.75	0.00	0.75	-0.135742	0.092285	0.975586	-11.270000	-1.680000	-1.610000	833.00	-0.20	-0.12
3.50	0.00	0.00	0.00	0.00	0.00	0.00	0.75	0.00	0.25	4.50	5.75	3.50	0.00	0.00	0.00	4.00	-0.015625	0.409180	1.249023	3.010000	-322.910004	46.060001	180.00	0.23	-0.10	10.75	12.50	8.25	11.50	7.00	9.75	2.00	6.75	0.00	0.50	0.50	0.75	3.25	0.50	0.25	0.75	-0.138184	0.089355	0.973633	-12.950000	-2.030000	-2.310000	818.00	-0.20	-0.12
3.51	0.00	0.00	0.00	0.00	0.00	0.00	0.50	0.00	0.25	4.75	5.75	3.25	0.00	0.00	0.00	4.00	-0.084473	0.369629	1.292480	12.110000	-344.679993	63.560001	177.00	0.24	-0.10	10.00	12.25	8.25	11.50	7.25	10.25	2.00	6.75	0.00	0.50	0.75	1.00	3.25	0.75	0.25	0.75	-0.154785	0.081543	0.977051	-14.490000	-2.240000	-2.870000	823.00	-0.19	-0.13
3.52	0.00	0.00	0.00	0.00	0.00	0.00	0.50	0.00	0.00	4.75	5.75	3.25	0.00	0.00	0.00	4.00	-0.190918	0.275391	1.206055	24.430000	-362.809998	75.739998	173.00	0.24	-0.11	10.00	11.75	8.25	11.25	7.50	10.00	2.00	6.75	0.25	0.75	1.00	1.00	3.50	0.75	0.25	0.75	-0.139160	0.078613	0.972168	-14.980000	-2.450000	-3.010000	827.00	-0.19	-0.12
3.53	0.00	0.00	0.00	0.00	0.00	0.00	0.50	0.00	0.00	4.50	5.75	3.25	0.00	0.00	0.00	4.00	-0.281738	0.178711	1.084473	38.779999	-372.190002	80.290001	171.00	0.24	-0.11	9.50	11.75	8.25	11.50	8.00	10.00	2.00	7.00	0.00	0.75	1.00	1.25	3.50	1.00	0.25	0.75	-0.150391	0.067871	0.995117	-12.950000	-3.080000	-3.010000	835.00	-0.18	-0.13
3.54	0.00	0.00	0.00	0.00	0.00	0.00	0.50	0.00	0.00	4.25	5.75	3.75	0.00	0.00	0.00	4.00	-0.389648	0.066406	0.978027	56.420002	-369.600006	76.650002	173.00	0.24	-0.12	9.25	11.00	8.00	11.00	8.00	10.00	2.00	6.75	0.50	0.75	1.00	1.50	3.75	1.25	0.75	1.00	-0.138184	0.075195	0.976562	-11.130000	-3.290000	-3.010000	834.00	-0.17	-0.12
3.55	0.00	0.00	0.00	0.00	0.00	0.00	0.50	0.00	0.00	4.25	5.50	3.50	0.00	0.00	0.00	4.00	-0.519531	-0.063965	0.941406	75.949997	-357.279999	63.840000	168.00	0.24	-0.12	8.75	10.25	8.00	11.00	8.25	10.00	2.25	7.25	0.50	1.00	1.25	1.25	4.25	1.00	0.50	1.00	-0.129395	0.075684	0.975586	-9.940000	-2.800000	-2.870000	838.00	-0.16	-0.12
3.56	0.00	0.00	0.00	0.00	0.00	0.00	0.50	0.00	0.00	4.50	5.75	3.75	0.00	0.00	0.00	4.00	-0.808105	-0.227051	1.194336	95.550003	-319.200012	29.960001	176.00	0.24	-0.12	8.50	9.75	7.75	10.75	8.50	10.00	2.25	7.00	0.25	1.00	1.50	1.75	4.50	1.50	0.50	1.00	-0.138672	0.068848	0.984375	-9.030000	-2.170000	-2.870000	835.00	-0.16	-0.13
3.57	0.00	0.00	0.00	0.00	0.00	0.00	0.50	0.00	0.00	4.50	5.75	3.50	0.00	0.00	0.00	4.00	-0.815918	-0.203125	1.410156	83.370003	-306.320007	23.940001	173.00	0.24	-0.11	8.00	9.25	8.00	10.50	8.75	9.75	2.25	7.25	1.00	1.25	1.75	2.00	4.75	1.75	0.75	0.75	-0.145020	0.073242	0.992188	-7.700000	-1.610000	-2.800000	853.00	-0.14	-0.12
3.58	0.00	0.00	0.00	0.00	0.00	0.00	0.50	0.00	0.00	4.25	5.50	3.75	0.00	0.00	0.00	3.75	-0.787109	-0.112305	1.550781	68.599998	-300.089996	25.270000	169.00	0.23	-0.12	7.25	8.50	7.75	10.00	9.00	9.75	2.25	7.50	0.50	1.50	1.75	2.00	5.00	1.75	0.75	1.25	-0.144531	0.076172	0.997070	-6.510000	0.350000	-2.310000	837.00	-0.13	-0.13
3.59	0.00	0.00	0.00	0.50	0.00	0.00	0.50	0.00	0.00	4.25	6.00	3.50	0.00	0.00	0.00	4.00	-0.775879	-0.058105	1.589355	64.820000	-295.540009	28.420000	179.00	0.22	-0.12	7.00	7.75	7.50	9.75	9.00	9.75	2.50	7.50	1.25	1.75	2.00	2.25	5.25	1.75	0.75	1.25	-0.145020	0.073242	0.991699	-6.020000	1.890000	-2.310000	846.00	-0.12	-0.12
3.60	0.00	0.00	0.00	0.00	0.00	0.00	0.50	0.00	0.25	3.75	5.75	3.75	0.00	0.00	0.00	4.00	-0.854492	-0.071289	1.582031	70.840004	-287.839996	27.580000	172.00	0.24	-0.12	6.25	7.25	7.25	9.25	9.25	9.50	2.50	7.50	1.00	1.75	2.25	2.50	5.25	1.75	0.75	1.25	-0.150391	0.072754	0.990234	-5.670000	3.290000	-2.240000	827.00	-0.11	-0.13
3.61	0.00	0.00	0.00	0.00	0.00	0.00	0.50	0.00	0.00	4.00	5.75	3.75	0.00	0.00	0.00	4.00	-0.935547	-0.046387	1.554199	74.620003	-274.399994	23.730000	171.00	0.24	-0.12	5.50	6.50	7.00	8.75	9.25	9.50	2.50	7.50	1.50	2.00	2.75	2.50	5.75	2.00	0.75	1.50	-0.132812	0.070801	0.992188	-5.530000	4.690000	-2.380000	826.00	-0.10	-0.13
3.62	0.00	0.00	0.00	0.00	0.00	0.00	0.50	0.00	0.00	4.50	5.75	3.75	0.00	0.00	0.00	3.75	-0.971680	0.029785	1.719238	75.459999	-259.559998	21.980000	175.00	0.23	-0.12	4.75	6.00	6.75	8.25	9.25	9.25	2.75	7.50	1.75	2.50	2.75	2.75	5.75	2.50	1.00	1.75	-0.172852	0.081543	0.997559	-5.040000	6.160000	-2.590000	826.00	-0.08	-0.12
3.63	0.00	0.00	0.00	0.25	0.00	0.00	0.50	0.00	0.00	4.00	6.00	3.50	0.00	0.00	0.00	3.75	-0.978516	0.153809	2.035156	79.940002	-253.610001	25.270000	172.00	0.23	-0.12	4.25	5.50	6.25	7.75	9.25	9.25	2.75	7.50	2.00	2.50	3.25	3.50	6.75	2.50	1.00	1.75	-0.152832	0.054688	0.974121	-4.620000	7.490000	-2.660000	830.00	-0.06	-0.13
3.64	0.00	0.00	0.00	0.25	0.00	0.00	0.50	0.00	0.00	4.00	5.75	3.50	0.00	0.00	0.00	4.00	-0.968750	0.224609	2.243652	85.470001	-257.880005	33.740002	171.00	0.23	-0.12	3.25	5.00	5.50	7.50	9.00	8.75	2.75	7.50	2.50	3.00	3.75	3.75	7.00	2.75	1.00	2.00	-0.158203	0.049316	1.005371	-3.500000	8.680000	-3.010000	821.00	-0.04	-0.13
3.65	0.00	0.00	0.00	0.00	0.00	0.00	0.50	0.00	0.00	4.25	5.75	3.50	0.00	0.00	0.00	4.25	-1.126465	0.346191	2.177246	81.830002	-263.200012	46.619999	172.00	0.24	-0.12	2.75	4.00	5.00	6.75	9.00	8.50	2.75	7.50	3.00	3.25	4.00	4.25	7.50	3.25	1.00	2.00	-0.157715	0.065918	0.989258	-2.590000	10.080000	-2.730000	816.00	-0.02	-0.13
3.66	0.00	0.00	0.00	0.00	0.00	0.00	0.50	0.00	0.00	4.00	5.75	3.75	0.00	0.25	0.00	4.25	-1.252930	0.372559	1.938965	76.300003	-262.920013	67.830002	174.00	0.24	-0.12	2.25	3.25	4.75	6.00	8.75	8.50	2.75	7.50	2.50	3.75	4.50	4.75	7.50	3.50	1.25	2.25	-0.151367	0.069824	0.984375	-1.820000	11.270000	-2.450000	806.00	-0.01	-0.13
3.67	0.00	0.00	0.00	0.00	0.00	0.00	0.50	0.00	0.00	4.00	5.75	3.50	0.00	0.00	0.00	4.00	-1.315430	0.399902	1.750488	73.500000	-256.899994	90.510002	168.00	0.24	-0.12	2.00	2.75	4.25	5.75	8.50	8.25	2.75	7.75	3.50	4.25	6.25	5.50	7.75	3.50	1.25	2.50	-0.181641	0.071289	0.995605	-0.980000	12.250000	-2.310000	836.00	0.01	-0.13
3.68	0.00	0.00	0.00	0.25	0.00	0.00	0.50	0.00	0.00	4.25	5.75	3.50	0.00	0.00	0.00	4.00	-1.350098	0.393555	1.529297	74.059998	-246.050003	110.459999	174.00	0.23	-0.12	1.50	2.50	2.75	5.00	8.25	8.00	2.75	7.50	3.75	5.50	7.25	6.25	8.25	4.25	1.25	2.50	-0.171875	0.070801	0.984375	-0.280000	13.300000	-2.100000	840.00	0.04	-0.13
