# time	left pressure 1[N/cm²]	left pressure 2[N/cm²]	left pressure 3[N/cm²]	left pressure 4[N/cm²]	left pressure 5[N/cm²]	left pressure 6[N/cm²]	left pressure 7[N/cm²]	left pressure 8[N/cm²]	left pressure 9[N/cm²]	left pressure 10[N/cm²]	left pressure 11[N/cm²]	left pressure 12[N/cm²]	left pressure 13[N/cm²]	left pressure 14[N/cm²]	left pressure 15[N/cm²]	left pressure 16[N/cm²]	left acceleration X[g]	left acceleration Y[g]	left acceleration Z[g]	left angular X[dps]	left angular Y[dps]	left angular Z[dps]	left total force[N]	left center of pressure X[%]	left center of pressure Y[%]	right pressure 1[N/cm²]	right pressure 2[N/cm²]	right pressure 3[N/cm²]	right pressure 4[N/cm²]	right pressure 5[N/cm²]	right pressure 6[N/cm²]	right pressure 7[N/cm²]	right pressure 8[N/cm²]	right pressure 9[N/cm²]	right pressure 10[N/cm²]	right pressure 11[N/cm²]	right pressure 12[N/cm²]	right pressure 13[N/cm²]	right pressure 14[N/cm²]	right pressure 15[N/cm²]	right pressure 16[N/cm²]	right acceleration X[g]	right acceleration Y[g]	right acceleration Z[g]	right angular X[dps]	right angular Y[dps]	right angular Z[dps]	right total force[N]	right center of pressure X[%]	right center of pressure Y[%]
0.00																										4.50	3.00	5.25	6.00	4.25	6.25	1.25	5.00	1.00	1.25	1.00	1.50	5.00	1.75	0.75	0.00	-0.142578	0.121582	0.958984	-2.940000	0.420000	0.140000	576.00	-0.10	-0.13
0.01																										4.50	3.25	5.25	6.00	4.25	6.50	1.25	5.00	1.00	1.00	0.75	1.50	4.75	1.75	0.50	0.00	-0.144043	0.128418	0.967773	-2.940000	0.630000	0.070000	570.00	-0.11	-0.13
0.02	6.75	7.25	8.00	8.50	7.50	10.00	2.00	7.75	1.50	1.75	1.25	2.50	7.00	1.00	0.50	0.50	-0.136230	0.115234	0.962402	-2.870000	4.830000	1.330000	888.00	-0.12	-0.14	4.00	3.00	5.00	6.00	4.50	6.50	1.25	5.00	0.75	1.00	1.00	1.75	4.75	2.25	0.75	0.00	-0.146484	0.133301	0.958496	-2.940000	0.630000	-0.000000	572.00	-0.09	-0.14
0.03	6.75	7.50	8.00	8.25	7.50	10.25	2.00	8.00	1.25	1.75	1.25	2.50	7.00	1.00	0.25	0.50	-0.138184	0.110352	0.955566	-2.940000	4.970000	1.330000	889.00	-0.12	-0.14	4.50	3.00	5.25	6.00	4.50	6.25	1.25	5.00	1.00	1.00	0.75	1.50	5.00	2.00	0.50	0.00	-0.141602	0.122559	0.958496	-2.940000	0.840000	-0.070000	572.00	-0.10	-0.13
0.04	7.00	7.25	8.00	8.25	7.50	10.25	2.00	8.00	1.50	1.75	1.50	2.25	7.25	1.00	0.50	0.75	-0.141113	0.115234	0.957031	-2.870000	4.760000	1.400000	899.00	-0.12	-0.14	5.00	3.00	5.25	6.25	4.50	6.25	1.25	5.00	1.00	1.00	0.75	1.50	5.00	1.75	0.75	0.00	-0.151855	0.127441	0.968750	-2.800000	1.050000	-0.070000	581.00	-0.11	-0.13
0.05	7.00	7.50	8.00	8.50	7.50	10.00	2.25	8.00	1.50	1.75	1.50	2.50	7.00	1.00	0.50	0.75	-0.137207	0.118652	0.959473	-2.870000	4.830000	1.470000	906.00	-0.12	-0.13	4.25	3.00	5.25	6.25	4.50	6.25	1.25	5.00	1.00	1.25	1.00	1.75	4.75	1.50	0.75	0.00	-0.144531	0.128418	0.960449	-3.010000	0.910000	-0.000000	577.00	-0.10	-0.13
0.06	6.75	7.50	8.50	8.50	7.75	10.00	2.00	8.00	1.50	1.75	1.50	2.25	7.25	1.00	0.50	1.00	-0.139648	0.110352	0.960938	-2.870000	4.900000	1.470000	909.00	-0.12	-0.14	4.25	3.00	5.25	6.25	4.50	6.50	1.25	5.00	1.00	1.25	0.75	1.50	5.00	1.75	0.75	0.00	-0.139648	0.125977	0.963867	-3.080000	0.840000	-0.000000	579.00	-0.10	-0.13
0.07	6.75	7.50	8.25	8.50	7.75	10.25	2.00	8.00	1.75	1.75	1.50	2.50	7.00	1.50	0.50	0.75	-0.140625	0.115723	0.954590	-2.870000	4.760000	1.400000	917.00	-0.12	-0.13	4.50	3.00	5.00	6.00	4.25	6.50	1.25	5.00	1.00	1.25	0.75	1.50	4.75	1.50	0.50	0.00	-0.145020	0.129883	0.966309	-2.940000	0.630000	0.140000	565.00	-0.10	-0.13
0.08	7.00	7.50	8.25	8.50	7.75	10.25	2.25	8.00	1.50	1.75	1.50	2.50	7.50	1.00	0.50	0.75	-0.142090	0.112793	0.962891	-2.800000	4.620000	1.470000	920.00	-0.12	-0.14	4.25	3.00	5.25	6.00	4.50	6.50	1.25	5.00	1.00	1.25	1.25	1.75	5.00	1.75	0.50	0.00	-0.145996	0.126465	0.963867	-2.870000	0.700000	-0.000000	582.00	-0.10	-0.13
0.09	6.75	7.50	8.25	8.50	7.75	10.25	2.25	8.00	1.75	1.75	1.50	2.50	7.25	1.00	0.50	0.75	-0.140625	0.114258	0.959961	-2.940000	4.620000	1.330000	918.00	-0.12	-0.13	4.50	3.25	5.25	6.00	4.25	6.50	1.25	5.00	1.25	1.00	0.75	1.25	5.00	2.00	0.50	0.00	-0.140625	0.124023	0.959473	-2.590000	0.770000	-0.000000	575.00	-0.10	-0.13
0.10	7.00	7.50	8.25	8.50	7.75	10.25	2.25	8.00	1.50	1.75	1.50	2.50	7.50	1.25	0.50	0.75	-0.134277	0.111816	0.955078	-2.940000	4.480000	1.470000	922.00	-0.12	-0.13	4.25	3.50	5.25	6.25	4.25	6.50	1.25	5.00	1.00	1.00	1.00	1.25	4.75	1.75	0.75	0.00	-0.145996	0.131836	0.956543	-2.660000	0.840000	-0.070000	576.00	-0.10	-0.13
0.11	7.25	7.50	8.25	8.75	7.75	10.25	2.25	8.00	1.50	1.75	1.50	2.50	7.25	1.00	0.50	0.75	-0.140137	0.116699	0.960449	-2.870000	4.410000	1.400000	923.00	-0.12	-0.13	4.50	3.00	5.25	6.00	4.25	6.25	1.25	5.00	1.00	1.00	1.00	1.25	4.75	1.75	0.75	0.00	-0.144531	0.130371	0.971191	-2.730000	0.910000	-0.210000	567.00	-0.10	-0.13
0.12	7.00	7.50	8.25	8.50	7.75	10.25	2.25	8.00	1.75	1.75	1.25	2.50	7.50	1.00	0.50	0.75	-0.141113	0.112305	0.963379	-2.730000	4.200000	1.400000	921.00	-0.12	-0.13	4.25	3.00	5.25	6.00	4.50	6.25	1.25	5.00	0.75	1.00	0.75	1.50	4.75	1.75	0.75	0.00	-0.145508	0.126953	0.968750	-2.660000	0.910000	-0.140000	564.00	-0.10	-0.13
0.13	7.25	7.50	8.25	8.50	7.75	10.25	2.25	8.00	2.00	2.00	1.75	2.50	7.25	0.75	0.25	0.75	-0.137695	0.117676	0.957520	-2.800000	4.410000	1.470000	928.00	-0.12	-0.13	4.25	3.25	5.25	6.50	4.50	6.50	1.25	5.00	1.00	1.00	0.75	1.25	4.50	1.50	0.50	0.00	-0.139648	0.126953	0.961914	-2.730000	0.910000	-0.000000	569.00	-0.11	-0.13
0.14	7.25	7.50	8.50	8.75	8.00	10.25	2.25	8.00	1.50	1.75	1.50	2.50	7.50	1.25	0.50	0.50	-0.140137	0.118164	0.964355	-2.940000	4.480000	1.470000	933.00	-0.12	-0.13	4.25	3.25	5.25	6.25	4.25	6.25	1.25	5.00	1.00	1.00	1.00	1.25	4.50	1.75	0.75	0.00	-0.139160	0.128418	0.958496	-2.730000	0.840000	-0.000000	568.00	-0.10	-0.13
0.15	7.00	7.75	8.50	8.75	7.75	10.25	2.25	8.00	1.75	2.00	1.50	2.50	7.50	1.00	0.50	0.75	-0.139160	0.117676	0.966797	-3.080000	4.480000	1.400000	935.00	-0.12	-0.13	4.50	3.25	5.25	6.25	4.50	6.50	1.25	5.00	1.00	1.00	0.75	1.25	4.75	1.75	0.75	0.00	-0.143555	0.125488	0.968750	-2.730000	0.840000	-0.070000	576.00	-0.11	-0.13
0.16	7.50	7.50	8.25	8.75	7.75	10.50	2.25	8.00	1.75	1.75	1.25	2.75	7.25	0.75	0.50	0.75	-0.140137	0.115234	0.954102	-3.080000	4.480000	1.470000	931.00	-0.12	-0.13	5.00	3.25	5.25	6.00	4.50	6.25	1.25	5.00	1.00	1.00	0.75	1.50	5.00	1.75	0.75	0.00	-0.145020	0.124512	0.959961	-2.590000	0.770000	-0.000000	581.00	-0.11	-0.13
0.17	7.25	7.50	8.50	8.50	7.75	10.50	2.25	8.00	1.50	1.75	1.50	2.50	7.50	1.25	0.50	0.75	-0.134766	0.113281	0.958984	-2.940000	4.410000	1.330000	931.00	-0.12	-0.13	4.75	3.25	5.25	6.00	4.50	6.75	1.25	5.00	1.00	1.00	1.00	1.50	4.25	1.75	0.50	0.00	-0.142578	0.129883	0.962891	-2.590000	0.770000	0.140000	577.00	-0.11	-0.13
0.18	7.25	7.75	8.50	8.75	8.00	10.50	2.25	8.25	2.00	2.00	1.50	2.50	7.50	1.00	0.25	0.75	-0.139160	0.114258	0.959473	-2.940000	4.270000	1.400000	949.00	-0.12	-0.13	4.25	3.25	5.25	6.50	4.50	6.50	1.25	5.00	0.75	1.25	0.75	1.25	5.00	1.75	0.50	0.00	-0.136719	0.129395	0.969238	-2.590000	0.770000	0.140000	575.00	-0.11	-0.14
0.19	7.25	7.75	8.50	8.75	8.00	10.50	2.50	8.25	1.75	2.00	1.25	2.75	7.50	1.00	0.50	0.75	-0.141602	0.113281	0.957031	-2.940000	4.270000	1.470000	952.00	-0.12	-0.13	4.25	3.00	5.25	6.25	4.25	6.50	1.25	5.00	1.00	1.00	0.75	1.25	4.75	2.00	0.50	0.00	-0.144043	0.128906	0.965820	-2.450000	0.700000	0.070000	567.00	-0.10	-0.13
0.20	7.50	7.75	8.50	8.75	8.00	10.50	2.50	8.25	1.50	1.75	1.50	2.50	7.75	1.00	0.50	0.75	-0.135742	0.114258	0.958496	-3.010000	4.410000	1.400000	951.00	-0.12	-0.13	4.00	3.25	5.25	6.25	4.50	6.75	1.25	5.25	0.75	1.25	0.75	1.00	4.50	1.50	0.75	0.00	-0.136719	0.125000	0.966309	-2.590000	0.840000	-0.140000	569.00	-0.11	-0.14
0.21	7.25	7.75	8.50	8.75	8.00	10.25	2.25	8.25	1.50	2.00	1.50	2.50	7.75	0.75	0.50	0.50	-0.140137	0.117676	0.961914	-3.080000	4.340000	1.330000	940.00	-0.12	-0.14	4.25	3.25	5.25	6.25	4.50	6.50	1.25	5.00	1.00	1.00	0.75	1.25	4.75	1.75	0.50	0.00	-0.145996	0.128418	0.955566	-2.590000	1.050000	-0.000000	570.00	-0.11	-0.13
0.22	7.25	7.75	8.50	8.75	8.00	10.50	2.25	8.25	1.50	2.25	1.75	2.50	7.50	0.75	0.75	0.75	-0.137207	0.115723	0.963867	-3.080000	4.410000	1.330000	951.00	-0.12	-0.13	4.50	3.00	5.25	6.25	4.25	6.75	1.25	5.00	1.00	1.00	0.75	1.25	5.00	1.75	0.75	0.00	-0.145020	0.125977	0.967285	-2.590000	0.840000	-0.000000	576.00	-0.10	-0.13
0.23	7.25	7.75	8.50	8.75	8.00	10.50	2.25	8.25	1.75	2.00	1.50	2.50	7.50	0.75	0.50	0.75	-0.141602	0.120605	0.958496	-3.010000	4.480000	1.260000	946.00	-0.12	-0.13	4.25	3.00	5.25	6.25	4.50	6.25	1.25	5.00	1.00	1.25	0.75	1.50	4.75	1.75	0.50	0.00	-0.143555	0.129395	0.961914	-2.660000	0.910000	-0.070000	571.00	-0.10	-0.13
0.24	7.25	7.50	8.50	8.75	8.25	10.50	2.25	8.25	1.75	2.00	1.50	2.50	7.75	1.00	0.50	0.75	-0.138672	0.114258	0.957520	-3.010000	4.690000	1.470000	951.00	-0.12	-0.13	4.50	3.25	5.25	6.00	4.25	6.75	1.25	5.00	0.75	1.00	0.75	1.25	4.75	1.75	0.25	0.00	-0.143066	0.130859	0.962891	-2.730000	0.770000	-0.070000	564.00	-0.11	-0.14
0.25	7.25	7.75	8.50	8.75	8.25	10.75	2.25	8.25	1.75	2.00	1.50	3.00	7.50	1.50	0.75	1.00	-0.139648	0.116211	0.965820	-2.940000	4.480000	1.400000	969.00	-0.11	-0.13	4.75	3.25	5.25	6.25	4.50	6.75	1.25	5.00	0.75	1.00	1.00	1.25	5.00	1.75	0.50	0.00	-0.145020	0.128418	0.961914	-2.590000	0.770000	-0.000000	581.00	-0.11	-0.13
0.26	7.25	7.75	8.50	8.75	8.25	10.50	2.50	8.25	1.75	2.00	1.25	2.50	7.75	1.00	0.50	0.75	-0.137207	0.117188	0.960938	-3.010000	4.690000	1.400000	955.00	-0.12	-0.13	4.25	3.00	5.25	6.25	4.25	6.50	1.25	5.00	0.75	1.00	0.75	1.50	4.75	1.50	0.50	0.25	-0.150879	0.128418	0.960938	-2.660000	0.630000	-0.000000	563.00	-0.11	-0.14
0.27	7.25	7.75	8.50	8.75	8.25	10.75	2.50	8.25	1.75	2.00	1.50	2.75	7.75	0.75	0.25	0.75	-0.134766	0.107910	0.960449	-2.870000	4.620000	1.470000	958.00	-0.12	-0.13	4.50	3.00	5.25	6.00	4.50	6.75	1.25	5.25	1.00	1.00	0.75	1.25	4.75	1.75	0.50	0.00	-0.136719	0.131836	0.955566	-2.730000	0.560000	0.140000	575.00	-0.11	-0.13
0.28	7.25	7.75	8.50	8.75	8.25	10.50	2.25	8.25	1.75	1.75	1.75	2.50	7.75	1.00	0.25	0.75	-0.138672	0.117188	0.964844	-2.940000	4.900000	1.330000	950.00	-0.12	-0.13	4.25	3.00	5.25	6.50	4.50	6.50	1.25	5.00	1.00	1.00	1.00	1.25	4.75	1.75	0.50	0.00	-0.146484	0.132812	0.962402	-3.010000	0.770000	0.070000	574.00	-0.11	-0.13
0.29	7.25	7.75	8.50	8.75	8.25	10.75	2.50	8.25	1.25	2.00	1.75	2.75	8.00	1.00	0.50	0.75	-0.140137	0.108887	0.964844	-2.870000	4.900000	1.400000	961.00	-0.12	-0.14	4.50	3.25	5.50	6.25	4.50	6.50	1.25	5.25	1.25	1.00	0.75	1.50	4.50	1.75	0.50	0.00	-0.142090	0.128906	0.966797	-3.080000	0.840000	-0.000000	585.00	-0.11	-0.13
0.30	7.75	7.75	8.50	8.75	8.25	10.75	2.50	8.25	1.50	2.00	1.75	2.75	8.00	1.00	0.50	0.75	-0.140625	0.118164	0.958496	-2.870000	4.900000	1.400000	971.00	-0.12	-0.13	4.25	3.25	5.25	6.25	4.50	6.75	1.25	5.25	0.75	1.00	1.00	1.50	4.50	1.75	0.50	0.00	-0.145996	0.128906	0.961426	-3.220000	0.910000	-0.070000	577.00	-0.11	-0.14
0.31	7.50	7.75	8.50	8.75	8.25	10.75	2.50	8.25	1.75	2.25	1.00	2.50	8.00	1.00	0.50	1.00	-0.136719	0.113770	0.959473	-2.870000	4.970000	1.400000	964.00	-0.12	-0.13	4.50	3.00	5.50	6.25	4.50	6.75	1.25	5.25	0.75	1.00	0.75	1.25	4.75	1.75	0.50	0.00	-0.144531	0.129883	0.962402	-3.220000	0.980000	-0.000000	577.00	-0.11	-0.14
0.32	7.50	7.75	8.50	8.75	8.25	10.50	2.50	8.25	1.50	1.75	1.50	2.75	8.00	0.75	0.50	1.00	-0.140137	0.113281	0.961914	-2.800000	4.900000	1.400000	958.00	-0.12	-0.14	4.25	3.25	5.25	6.25	4.50	6.50	1.25	5.25	1.25	0.75	0.75	1.25	5.00	1.50	0.50	0.25	-0.144043	0.132812	0.968262	-3.360000	0.980000	-0.000000	577.00	-0.11	-0.14
0.33	7.50	7.75	8.75	8.75	8.25	10.75	2.50	8.25	1.75	1.75	1.75	2.75	7.75	1.25	0.50	0.75	-0.140625	0.112305	0.958496	-2.870000	4.760000	1.330000	972.00	-0.12	-0.13	4.50	3.25	5.00	6.25	4.25	6.75	1.25	5.00	1.00	1.00	0.75	1.50	4.50	1.75	0.75	0.00	-0.142090	0.126465	0.961914	-3.500000	0.770000	-0.000000	574.00	-0.11	-0.13
0.34	7.50	7.75	8.75	8.75	8.25	10.75	2.50	8.25	1.75	2.25	1.25	2.50	7.75	1.00	0.50	1.00	-0.136719	0.115723	0.959473	-2.800000	4.690000	1.470000	968.00	-0.12	-0.13	4.25	3.00	5.25	6.25	4.50	6.75	1.25	5.25	1.00	1.00	0.75	1.50	4.75	1.75	0.50	0.00	-0.144531	0.125488	0.967285	-3.500000	0.840000	-0.070000	578.00	-0.10	-0.14
0.35	7.75	7.75	8.50	8.75	8.25	10.50	2.50	8.25	1.75	2.00	1.50	2.75	7.75	1.00	0.50	0.75	-0.134277	0.115723	0.963379	-2.730000	4.620000	1.400000	966.00	-0.12	-0.13	4.50	3.00	5.00	6.25	5.00	6.75	1.25	5.25	1.00	1.50	1.00	1.50	4.75	1.50	0.50	0.00	-0.145996	0.129395	0.965820	-3.360000	0.910000	-0.000000	590.00	-0.10	-0.13
0.36	7.50	7.50	8.50	8.75	8.25	10.75	2.50	8.25	1.75	2.00	1.75	2.75	7.75	1.00	0.50	0.75	-0.137695	0.116211	0.956543	-2.730000	4.620000	1.470000	966.00	-0.11	-0.13	4.25	3.00	5.25	6.25	4.75	6.50	1.25	5.25	0.75	1.00	0.75	1.25	4.75	1.75	0.50	0.00	-0.144043	0.125488	0.964355	-3.360000	0.770000	-0.000000	571.00	-0.11	-0.14
0.37	7.50	7.75	8.75	8.75	8.25	10.75	2.25	8.25	1.75	2.00	1.50	2.75	8.00	1.25	0.50	0.50	-0.140625	0.111816	0.959473	-2.800000	4.760000	1.400000	968.00	-0.12	-0.13	4.00	3.00	5.25	6.25	4.75	6.75	1.25	5.00	0.75	1.00	0.75	1.25	4.75	1.75	0.75	0.00	-0.139160	0.133301	0.961426	-3.430000	0.770000	-0.140000	570.00	-0.11	-0.14
0.38	7.50	7.75	8.75	8.75	8.25	10.75	2.50	8.25	1.50	1.75	1.50	2.75	8.00	1.00	0.50	0.75	-0.139160	0.114746	0.962891	-2.730000	4.830000	1.470000	965.00	-0.12	-0.13	4.25	3.25	5.25	6.25	5.00	6.75	1.25	5.00	1.00	1.00	0.75	1.50	4.50	2.00	0.50	0.00	-0.144531	0.132324	0.965820	-3.500000	0.630000	-0.000000	582.00	-0.11	-0.13
0.39	7.50	7.75	8.75	8.75	8.25	10.75	2.50	8.25	1.75	1.75	1.50	2.50	7.75	1.00	0.50	0.75	-0.142578	0.114258	0.962402	-2.660000	4.690000	1.400000	963.00	-0.12	-0.13	4.25	3.25	5.25	6.25	4.75	6.50	1.25	5.00	0.75	1.00	0.75	1.25	5.00	1.50	0.50	0.00	-0.144531	0.125488	0.962891	-3.500000	0.490000	0.070000	570.00	-0.11	-0.14
0.40	7.25	7.75	8.75	9.00	8.25	10.75	2.50	8.25	1.75	2.00	1.75	2.75	7.75	1.00	0.50	0.75	-0.142578	0.116699	0.955566	-2.520000	4.620000	1.470000	972.00	-0.12	-0.13	4.50	3.50	5.25	6.25	4.75	6.75	1.25	5.00	0.75	1.00	0.75	1.25	4.50	1.75	0.50	0.00	-0.145508	0.132324	0.966309	-3.360000	0.560000	0.140000	576.00	-0.11	-0.13
0.41	7.75	7.75	8.75	8.75	8.25	10.75	2.50	8.25	1.50	2.00	1.50	2.75	8.00	1.00	0.50	0.75	-0.141602	0.109375	0.957520	-2.730000	4.690000	1.400000	971.00	-0.12	-0.13	4.75	3.25	5.25	6.25	5.00	6.50	1.25	5.00	1.00	0.75	0.75	1.00	4.50	1.50	0.50	0.00	-0.141113	0.130859	0.969238	-3.360000	0.700000	0.070000	572.00	-0.12	-0.13
0.42	7.50	7.75	8.75	9.00	8.25	10.75	2.50	8.25	1.75	2.00	1.50	2.75	8.00	1.00	0.50	0.75	-0.143555	0.114258	0.961426	-2.870000	4.760000	1.400000	975.00	-0.12	-0.13	4.50	3.25	5.25	6.25	4.75	6.50	1.25	5.00	0.75	1.00	0.75	1.25	4.25	1.75	0.50	0.00	-0.142090	0.129883	0.958984	-3.430000	0.700000	0.070000	568.00	-0.11	-0.13
0.43	7.50	7.75	8.75	9.00	8.25	11.00	2.50	8.50	1.50	1.75	2.00	2.75	8.00	1.00	0.75	1.00	-0.137695	0.113281	0.956543	-2.870000	4.830000	1.330000	985.00	-0.11	-0.14	4.75	3.50	5.25	6.25	4.75	6.75	1.25	5.00	1.00	1.00	0.75	1.25	4.25	1.75	0.75	0.00	-0.138184	0.122559	0.961914	-3.570000	0.770000	-0.000000	583.00	-0.11	-0.13
0.44	7.50	7.50	8.50	8.75	8.25	10.75	2.50	8.25	2.00	1.75	1.50	2.75	8.00	0.75	0.50	0.75	-0.138184	0.112793	0.954590	-2.870000	4.690000	1.260000	964.00	-0.12	-0.13	4.75	3.25	5.50	6.25	5.25	6.50	1.25	5.00	1.00	0.75	0.75	1.00	4.25	1.50	0.75	0.00	-0.141602	0.126953	0.963867	-3.570000	0.840000	-0.070000	578.00	-0.12	-0.12
0.45	7.50	7.75	9.00	9.00	8.25	10.75	2.50	8.50	1.75	1.75	1.50	2.75	8.00	0.75	0.75	0.75	-0.136719	0.111816	0.966309	-2.730000	4.620000	1.400000	979.00	-0.12	-0.13	4.75	3.00	5.25	6.25	4.75	6.50	1.25	5.00	1.00	1.00	0.75	1.25	4.50	1.50	0.50	0.00	-0.146484	0.129883	0.959473	-3.500000	0.980000	-0.000000	572.00	-0.11	-0.13
0.46	7.00	7.50	8.75	9.00	8.25	10.75	2.50	8.50	2.00	1.75	1.75	2.50	8.00	1.00	0.00	0.75	-0.147949	0.118652	0.960449	-2.660000	4.620000	1.400000	965.00	-0.12	-0.13	4.75	3.00	5.25	6.25	4.75	6.50	1.25	5.00	0.75	1.00	0.75	1.25	4.50	1.75	0.50	0.00	-0.140137	0.128906	0.957031	-3.570000	1.190000	-0.140000	571.00	-0.11	-0.13
0.47	7.25	7.75	8.75	9.00	8.50	10.75	2.50	8.50	1.50	2.00	1.75	2.75	8.00	1.00	0.75	0.75	-0.143066	0.110840	0.960449	-2.450000	4.690000	1.540000	981.00	-0.11	-0.14	4.25	3.25	5.25	6.00	5.00	6.50	1.25	5.00	1.00	1.25	0.50	1.25	3.75	1.75	0.50	0.00	-0.136230	0.125488	0.958008	-3.780000	1.400000	-0.210000	564.00	-0.11	-0.12
0.48	7.25	7.75	8.75	9.00	8.25	10.75	2.50	8.50	1.75	2.00	1.50	3.00	8.00	1.00	0.50	0.75	-0.137695	0.113770	0.957520	-2.310000	4.760000	1.470000	979.00	-0.11	-0.13	4.50	3.25	5.25	6.25	5.00	6.75	1.25	4.75	1.00	1.00	0.75	1.25	4.25	1.75	0.50	0.00	-0.145508	0.127930	0.963867	-3.990000	1.680000	-0.210000	573.00	-0.11	-0.13
0.49	7.25	7.75	9.00	9.00	8.25	10.75	2.50	8.25	2.00	2.00	1.50	3.00	8.00	1.00	0.75	1.00	-0.136230	0.115234	0.958008	-2.240000	4.550000	1.540000	986.00	-0.11	-0.13	4.00	2.75	5.25	6.00	5.00	6.50	1.25	5.00	1.00	0.75	1.00	1.25	4.25	1.50	0.75	0.00	-0.147949	0.129883	0.967773	-4.200000	1.680000	-0.210000	561.00	-0.10	-0.13
0.50	7.50	7.75	8.75	9.00	8.25	11.00	2.50	8.50	1.75	2.00	1.50	3.00	8.00	1.00	0.50	0.75	-0.133301	0.110352	0.957520	-2.170000	4.620000	1.470000	985.00	-0.12	-0.13	4.00	3.00	5.25	6.00	4.75	6.50	1.25	4.75	1.00	1.00	0.75	1.50	4.00	1.50	0.50	0.00	-0.146484	0.133789	0.961914	-4.480000	1.750000	-0.350000	554.00	-0.11	-0.13
0.51	7.75	7.75	8.75	9.00	8.25	10.75	2.50	8.50	1.75	1.75	1.75	3.00	8.00	1.00	0.50	0.50	-0.136230	0.113281	0.961426	-2.170000	4.620000	1.400000	983.00	-0.12	-0.13	4.00	3.00	5.25	6.00	4.75	6.50	1.25	4.75	1.00	1.25	0.75	1.25	4.25	1.75	0.50	0.00	-0.139160	0.128418	0.957520	-4.900000	1.960000	-0.210000	559.00	-0.11	-0.13
0.52	7.75	7.75	8.75	9.00	8.25	11.00	2.50	8.50	1.25	2.00	1.75	3.00	8.00	0.75	0.50	0.75	-0.136719	0.115723	0.962402	-2.100000	4.760000	1.400000	981.00	-0.12	-0.14	4.25	3.00	5.00	6.00	5.00	6.50	1.25	4.75	1.00	1.00	1.00	1.25	4.25	1.75	0.50	0.00	-0.151367	0.127441	0.963379	-5.180000	2.310000	-0.420000	562.00	-0.11	-0.13
0.53	7.50	7.75	8.75	9.00	8.25	11.00	2.50	8.50	1.75	2.00	1.75	2.75	8.25	0.75	0.75	0.75	-0.138672	0.114258	0.956055	-2.030000	4.760000	1.400000	987.00	-0.11	-0.14	4.00	2.75	5.00	6.00	5.00	6.50	1.25	4.75	1.25	1.00	1.00	1.50	4.00	1.75	0.50	0.00	-0.142090	0.126465	0.961914	-5.250000	2.450000	-0.490000	561.00	-0.10	-0.12
0.54	7.50	7.75	8.75	9.00	8.25	11.00	2.50	8.50	2.00	2.00	1.75	3.00	8.25	1.00	0.25	1.00	-0.141113	0.110840	0.955566	-2.100000	4.900000	1.470000	992.00	-0.11	-0.13	3.75	2.75	5.00	5.75	5.00	6.25	1.25	4.75	1.00	1.25	1.00	1.25	4.50	1.50	0.75	0.00	-0.144531	0.124023	0.963379	-5.180000	2.520000	-0.490000	553.00	-0.10	-0.13
0.55	7.25	7.75	8.75	9.00	8.25	11.25	2.50	8.50	2.00	2.00	2.00	3.00	8.25	1.00	0.50	0.75	-0.135742	0.114258	0.956543	-2.310000	5.250000	1.260000	996.00	-0.11	-0.13	3.50	2.75	5.00	5.75	4.75	6.25	1.25	4.50	1.00	1.25	0.75	1.50	4.50	1.50	0.50	0.00	-0.148926	0.123535	0.957031	-4.970000	2.450000	-0.560000	541.00	-0.10	-0.13
0.56	7.50	7.75	8.75	9.00	8.50	11.00	2.50	8.50	1.75	2.00	1.75	3.00	8.25	1.00	0.75	1.00	-0.141113	0.110840	0.964844	-2.450000	5.530000	1.120000	997.00	-0.11	-0.13	3.75	2.50	5.00	5.75	4.75	6.25	1.25	4.75	1.25	1.25	1.00	1.50	4.50	1.75	0.50	0.00	-0.151367	0.120605	0.963867	-4.760000	2.240000	-0.420000	554.00	-0.09	-0.13
0.57	7.25	7.50	8.75	9.00	8.25	11.00	2.50	8.50	1.75	2.25	1.75	3.00	8.25	1.00	0.50	1.00	-0.135742	0.108887	0.950684	-2.380000	5.600000	1.050000	989.00	-0.11	-0.14	3.75	2.75	5.00	5.75	4.75	6.25	1.25	4.50	1.00	1.25	1.00	1.50	4.75	2.00	0.75	0.25	-0.145020	0.124512	0.963867	-4.480000	2.030000	-0.350000	558.00	-0.09	-0.13
0.58	7.25	7.75	8.75	9.00	8.25	11.00	2.50	8.50	1.75	2.00	2.00	3.25	8.25	1.25	0.50	1.00	-0.133301	0.116211	0.958496	-2.310000	5.740000	1.050000	996.00	-0.11	-0.14	3.50	2.50	5.00	5.75	4.75	6.25	1.25	4.50	1.00	1.25	1.00	1.25	4.50	2.00	0.50	0.25	-0.153320	0.126465	0.964844	-4.480000	1.890000	-0.350000	544.00	-0.09	-0.13
0.59	7.00	7.75	8.50	8.75	8.25	11.00	2.50	8.75	1.75	2.25	1.75	3.25	8.25	1.00	0.75	1.00	-0.138184	0.114258	0.956055	-2.240000	5.530000	1.120000	992.00	-0.11	-0.14	3.50	2.75	5.00	5.75	5.00	6.00	1.25	4.50	0.75	1.25	1.00	1.50	4.50	1.75	0.75	0.00	-0.151367	0.121582	0.966309	-4.130000	1.540000	-0.210000	545.00	-0.09	-0.13
0.60	7.00	7.50	8.50	9.00	8.25	11.25	2.50	8.75	1.75	2.25	1.75	3.25	8.50	1.25	0.75	0.75	-0.141113	0.108887	0.956543	-2.170000	5.460000	1.050000	999.00	-0.11	-0.14	4.00	2.75	5.00	5.75	4.50	6.25	1.25	4.50	1.00	1.25	1.00	1.50	4.50	1.75	0.75	0.00	-0.151855	0.125000	0.956055	-3.780000	1.400000	-0.070000	551.00	-0.10	-0.13
0.61	7.00	7.50	8.75	8.75	8.25	11.00	2.50	8.75	1.75	2.25	2.00	3.25	8.50	1.00	0.50	1.25	-0.134277	0.117188	0.953613	-2.240000	5.670000	0.840000	997.00	-0.11	-0.14	3.75	2.75	5.00	5.75	4.50	6.00	1.25	4.25	1.00	1.25	1.00	1.75	4.50	2.00	0.75	0.25	-0.150879	0.126953	0.965332	-3.710000	1.190000	-0.070000	548.00	-0.09	-0.13
0.62	6.75	7.50	8.50	8.75	8.25	11.00	2.50	8.75	2.00	2.25	2.00	3.50	8.75	1.25	0.75	1.25	-0.141113	0.119141	0.957520	-2.170000	6.020000	1.050000	1005.00	-0.10	-0.14	3.75	2.50	5.00	5.50	4.75	6.00	1.25	4.50	1.25	1.25	1.00	1.50	4.25	2.00	0.50	0.00	-0.146973	0.124023	0.961914	-3.500000	1.120000	-0.000000	544.00	-0.09	-0.12
0.63	6.75	7.50	8.50	8.50	8.25	11.00	2.50	8.75	2.25	2.25	2.00	3.50	8.75	1.00	0.75	1.25	-0.141113	0.117676	0.959473	-2.240000	6.090000	1.050000	1003.00	-0.10	-0.14	3.50	2.50	4.75	5.75	4.75	6.00	1.25	4.50	1.00	1.25	1.00	1.50	4.75	1.75	0.50	0.25	-0.149414	0.123047	0.970215	-3.220000	1.050000	-0.000000	541.00	-0.09	-0.13
0.64	6.50	7.25	8.25	8.75	8.50	11.00	2.50	8.75	2.00	2.50	2.25	3.25	8.75	1.00	0.50	1.00	-0.136719	0.116699	0.959473	-2.170000	6.230000	1.050000	996.00	-0.10	-0.14	3.50	2.25	5.00	5.50	4.75	6.00	1.25	4.50	1.00	1.00	1.00	1.50	4.50	1.75	0.50	0.00	-0.147949	0.124023	0.959473	-3.080000	0.910000	0.070000	532.00	-0.09	-0.13
0.65	6.50	7.50	8.50	8.75	8.25	11.00	2.50	9.00	2.00	2.25	2.25	3.75	9.00	1.25	0.50	1.00	-0.143555	0.112305	0.958008	-2.100000	6.230000	1.120000	1010.00	-0.10	-0.14	4.00	2.50	5.00	5.50	4.75	6.00	1.25	4.50	1.00	1.25	1.00	1.50	4.75	1.75	0.50	0.00	-0.148926	0.122559	0.968750	-3.080000	0.840000	0.210000	545.00	-0.09	-0.13
0.66	6.50	7.25	8.25	8.75	8.25	11.00	2.50	8.75	2.00	2.50	2.25	3.75	8.75	1.25	0.75	1.25	-0.141113	0.117676	0.961914	-2.030000	6.090000	1.190000	1005.00	-0.09	-0.14	3.75	2.50	4.75	5.50	4.50	6.00	1.25	4.50	1.00	1.25	1.25	1.50	4.25	2.00	0.50	0.25	-0.148438	0.127930	0.967285	-3.080000	0.980000	0.070000	538.00	-0.09	-0.13
0.67	6.50	7.25	8.50	8.75	8.50	11.00	2.50	8.75	2.00	2.75	2.00	3.75	9.00	1.25	0.75	1.25	-0.140625	0.110352	0.952637	-2.100000	5.880000	1.050000	1013.00	-0.09	-0.14	3.75	2.50	5.00	5.50	4.50	6.00	1.25	4.50	1.25	1.25	1.00	1.50	4.25	2.00	0.75	0.00	-0.143555	0.125000	0.963867	-3.150000	0.910000	0.070000	543.00	-0.09	-0.12
0.68	6.50	7.25	8.50	8.75	8.25	10.75	2.50	8.75	2.00	2.50	2.25	4.00	9.00	1.25	0.75	1.25	-0.145996	0.116211	0.958496	-1.960000	5.810000	1.120000	1010.00	-0.09	-0.14	3.75	2.75	5.00	5.50	4.50	5.75	1.25	4.25	1.00	1.00	1.25	1.50	4.00	2.00	0.75	0.00	-0.149902	0.126465	0.961426	-3.290000	0.770000	0.140000	533.00	-0.09	-0.12
0.69	6.25	7.00	8.25	8.50	8.25	11.00	2.50	9.00	2.25	2.25	2.25	3.75	9.00	1.25	0.75	1.50	-0.145996	0.112305	0.962891	-2.170000	5.670000	1.120000	1005.00	-0.09	-0.14	3.75	2.50	5.00	5.75	4.50	5.75	1.25	4.25	1.00	1.25	0.75	1.50	4.00	2.00	0.75	0.00	-0.147949	0.129883	0.959961	-3.220000	0.770000	0.210000	531.00	-0.09	-0.12
0.70	6.25	7.00	8.25	8.75	8.00	11.00	2.50	9.00	1.75	2.50	2.00	4.00	9.00	1.00	0.50	1.75	-0.144043	0.115723	0.966309	-2.240000	5.250000	1.260000	997.00	-0.09	-0.15	3.75	2.75	5.00	5.50	4.25	5.75	1.25	4.25	1.00	1.25	1.00	1.50	4.25	2.00	0.50	0.00	-0.151855	0.120605	0.967773	-3.220000	0.700000	0.210000	529.00	-0.09	-0.12
0.71	6.25	7.25	8.25	8.50	8.25	11.00	2.50	9.00	2.25	2.50	2.25	4.00	9.25	1.50	0.75	1.25	-0.145996	0.114746	0.960449	-2.310000	4.830000	1.330000	1017.00	-0.09	-0.14	4.00	2.50	5.00	5.75	4.50	5.50	1.25	4.25	1.00	1.25	0.75	1.00	4.25	2.00	0.50	0.00	-0.149902	0.123047	0.966309	-3.220000	0.630000	0.210000	524.00	-0.10	-0.12
0.72	6.00	7.25	8.25	8.75	8.50	10.75	2.50	9.00	2.00	2.50	2.25	4.25	9.00	1.50	0.75	1.50	-0.142578	0.111328	0.955566	-2.380000	4.480000	1.470000	1015.00	-0.09	-0.14	4.00	3.00	5.00	5.50	4.25	5.75	1.25	4.25	1.00	1.25	0.75	1.25	4.00	1.75	0.75	0.25	-0.154297	0.127930	0.968750	-3.080000	0.280000	0.350000	529.00	-0.10	-0.12
0.73	6.25	7.25	8.25	8.50	8.50	11.00	2.50	9.00	2.25	2.50	2.25	4.00	9.25	1.50	0.50	1.25	-0.144043	0.112305	0.956055	-2.660000	4.270000	1.400000	1017.00	-0.09	-0.14	4.25	2.50	4.75	5.25	4.25	5.75	1.25	4.00	1.00	1.00	0.75	1.25	4.00	1.75	0.75	0.00	-0.154785	0.120117	0.974121	-2.870000	0.070000	0.490000	512.00	-0.10	-0.12
0.74	6.00	7.00	8.25	8.75	8.25	11.00	2.50	9.00	2.25	2.25	2.25	4.00	9.25	1.25	0.75	1.50	-0.140625	0.115234	0.953125	-2.800000	4.200000	1.330000	1011.00	-0.09	-0.14	4.25	2.75	5.00	5.75	4.25	5.50	1.25	4.25	1.25	1.00	0.50	1.25	3.50	1.75	0.75	0.00	-0.149902	0.122559	0.968262	-2.450000	-0.210000	0.630000	521.00	-0.11	-0.11
0.75	6.00	7.25	8.25	8.50	8.25	11.00	2.50	9.00	2.00	2.25	2.25	4.00	9.00	1.50	0.75	1.25	-0.142090	0.115234	0.959961	-2.870000	4.130000	1.190000	1005.00	-0.09	-0.14	4.00	2.75	5.25	5.75	4.25	5.75	1.25	3.75	1.00	1.00	0.75	1.00	3.25	1.50	0.50	0.00	-0.153320	0.121094	0.965820	-1.890000	-0.560000	0.840000	504.00	-0.12	-0.11
0.76	6.00	7.25	8.50	8.75	8.25	11.00	2.50	9.00	2.00	2.25	2.25	3.75	9.00	1.25	0.75	1.25	-0.137695	0.111328	0.955566	-2.870000	4.130000	1.330000	1006.00	-0.09	-0.14	4.50	2.75	5.25	5.75	4.25	5.50	1.25	3.50	0.75	0.75	0.75	0.75	2.75	1.75	0.00	0.00	-0.155273	0.133301	0.974609	0.770000	-1.120000	1.400000	486.00	-0.13	-0.10
0.77	6.00	7.25	8.25	8.75	8.25	11.00	2.50	9.00	2.00	2.25	2.25	4.25	9.25	1.50	0.50	1.25	-0.141113	0.118652	0.956055	-2.800000	4.130000	1.400000	1011.00	-0.09	-0.14	4.75	3.25	5.25	6.00	4.00	5.50	1.00	3.50	0.75	0.75	0.50	1.00	2.50	1.50	0.25	0.00	-0.163574	0.122070	0.978027	2.170000	-1.470000	1.540000	488.00	-0.14	-0.11
0.78	6.25	7.25	8.25	8.50	8.50	11.00	2.50	9.00	1.75	2.50	2.25	4.00	9.25	1.25	0.50	1.25	-0.140137	0.115234	0.954102	-2.800000	3.990000	1.330000	1008.00	-0.09	-0.14	4.75	3.25	5.25	6.00	3.75	5.50	1.00	3.50	0.75	0.75	0.50	0.50	2.25	1.50	0.25	0.00	-0.158203	0.125488	0.979980	4.340000	-2.380000	2.030000	476.00	-0.15	-0.11
0.79	6.00	7.25	8.25	8.50	8.50	11.00	2.50	9.00	2.25	2.75	2.25	4.25	9.00	1.25	0.50	1.00	-0.141113	0.114746	0.959473	-2.590000	4.060000	1.400000	1014.00	-0.09	-0.14	5.00	3.75	5.50	6.00	4.00	5.50	1.00	3.00	0.75	0.50	0.25	0.50	2.25	1.25	0.25	0.00	-0.164062	0.134766	0.973145	7.420000	-3.570000	2.310000	474.00	-0.16	-0.10
0.80	6.00	7.25	8.25	8.75	8.50	11.00	2.50	9.00	2.25	2.25	2.25	4.00	9.25	1.50	0.75	1.25	-0.145508	0.113770	0.955566	-2.590000	4.060000	1.400000	1017.00	-0.09	-0.14	5.00	3.75	5.50	6.00	3.75	5.50	1.00	2.75	0.25	0.50	0.25	0.25	1.50	1.25	0.00	0.00	-0.165039	0.130371	0.977051	10.640000	-5.040000	2.310000	447.00	-0.18	-0.10
0.81	6.00	7.25	8.25	8.50	8.50	11.00	2.50	9.00	2.00	2.25	2.25	4.25	9.25	1.00	0.75	1.25	-0.142090	0.114258	0.958496	-2.520000	4.130000	1.470000	1009.00	-0.09	-0.15	5.25	4.25	5.50	6.50	3.75	5.50	1.00	2.75	0.50	0.50	0.00	0.25	1.50	1.25	0.00	0.00	-0.135742	0.134766	0.973145	11.480000	-6.020000	1.960000	461.00	-0.19	-0.10
0.82	6.00	7.25	8.25	8.75	8.25	11.00	2.50	9.00	1.75	2.50	2.25	4.00	9.00	1.00	0.75	1.25	-0.139648	0.115234	0.962891	-2.660000	3.990000	1.470000	1003.00	-0.09	-0.15	5.50	4.50	5.50	6.75	3.75	5.50	1.00	2.50	0.50	0.25	0.00	0.25	1.00	1.00	0.25	0.00	-0.086914	0.133789	0.974609	12.180000	-6.930000	1.260000	459.00	-0.20	-0.09
0.83	6.00	7.25	8.50	8.75	8.50	11.25	2.50	9.00	2.00	2.25	2.25	4.25	9.00	1.25	0.75	1.50	-0.139160	0.113281	0.959473	-2.940000	4.130000	1.610000	1019.00	-0.09	-0.14	5.75	4.75	5.75	6.75	3.75	5.50	1.00	2.25	0.50	0.25	0.00	0.25	1.00	1.00	0.00	0.00	-0.149902	0.128418	0.985352	12.670000	-7.420000	0.910000	460.00	-0.20	-0.09
0.84	6.00	7.25	8.25	8.75	8.50	11.00	2.50	9.00	2.00	2.50	2.25	4.25	9.25	1.25	0.75	1.25	-0.141113	0.113770	0.960449	-2.940000	3.920000	1.610000	1017.00	-0.09	-0.14	6.25	5.00	6.25	7.25	3.75	5.25	1.00	2.00	0.25	0.25	0.00	0.00	0.25	1.00	0.00	0.00	-0.142578	0.138672	0.969238	14.420000	-8.680000	0.700000	460.00	-0.22	-0.08
0.85	6.25	7.25	8.75	8.75	8.50	11.25	2.50	9.00	1.75	2.50	2.25	4.00	9.00	1.00	0.75	1.25	-0.144043	0.115234	0.957520	-2.870000	3.570000	1.470000	1018.00	-0.09	-0.14	6.25	5.50	6.25	7.25	3.75	5.25	0.75	2.00	0.25	0.00	0.00	0.25	0.00	1.00	0.00	0.00	-0.128906	0.120605	0.983398	15.610000	-9.310000	0.490000	458.00	-0.23	-0.08
0.86	6.25	7.50	8.75	8.75	8.50	11.25	2.50	9.00	2.00	2.50	2.00	4.00	9.00	1.00	0.75	1.25	-0.143066	0.117188	0.962891	-2.660000	3.150000	1.610000	1021.00	-0.09	-0.14	6.75	5.75	6.75	7.75	3.50	5.25	0.75	1.50	0.25	0.00	0.00	0.25	0.00	1.00	0.00	0.00	-0.139160	0.131348	0.985352	15.540000	-10.010000	0.210000	467.00	-0.24	-0.07
0.87	6.25	7.75	8.50	9.00	8.75	11.50	2.50	9.25	2.00	2.25	2.00	4.00	9.25	1.00	0.75	1.25	-0.147949	0.113770	0.954102	-2.380000	2.870000	1.680000	1033.00	-0.10	-0.15	7.00	6.25	6.75	7.75	3.50	5.25	0.75	1.50	0.00	0.00	0.00	0.25	0.00	0.75	0.00	0.00	-0.128418	0.140625	0.978516	15.960000	-11.480000	-0.210000	469.00	-0.25	-0.08
0.88	6.25	7.50	9.00	9.00	8.75	11.50	2.50	9.00	1.75	2.25	2.00	4.00	9.00	0.75	0.75	1.25	-0.144043	0.115234	0.964844	-2.170000	2.800000	1.750000	1024.00	-0.10	-0.14	7.50	6.50	7.00	7.75	3.50	5.25	0.75	1.25	0.25	0.00	0.00	0.25	0.00	0.75	0.00	0.00	-0.138672	0.164062	0.970215	15.750000	-14.700000	0.420000	480.00	-0.25	-0.07
0.89	6.25	7.75	9.00	9.00	8.75	11.50	2.50	9.00	2.00	2.25	2.00	3.75	9.25	1.00	0.50	1.00	-0.139160	0.109863	0.967773	-1.960000	2.520000	2.030000	1028.00	-0.10	-0.14	7.75	6.75	7.25	8.00	3.50	5.25	0.75	1.25	0.00	0.00	0.00	0.00	0.00	0.75	0.00	0.00	-0.125488	0.157227	0.936035	14.210000	-14.420000	0.770000	485.00	-0.26	-0.07
0.90	7.00	7.75	9.25	9.25	8.75	11.50	2.50	9.00	1.50	2.00	2.00	3.75	9.00	1.25	0.50	1.00	-0.151367	0.113281	0.970215	-1.470000	2.100000	2.310000	1032.00	-0.11	-0.14	8.25	7.25	7.25	8.00	3.25	5.00	0.75	1.00	0.00	0.00	0.00	0.00	0.00	0.50	0.00	0.00	-0.115234	0.160156	0.947754	11.690000	-12.530000	0.420000	483.00	-0.27	-0.07
0.91	6.75	8.00	9.25	9.25	8.75	11.50	2.50	9.00	1.75	2.00	1.75	3.25	8.75	1.25	0.75	1.00	-0.144531	0.113281	0.970215	-1.190000	1.680000	2.450000	1027.00	-0.11	-0.14	8.75	7.75	7.50	8.25	3.50	5.00	0.75	0.75	0.00	0.00	0.00	0.00	0.00	0.75	0.00	0.00	-0.124512	0.168457	0.947266	9.730000	-11.130000	0.140000	501.00	-0.27	-0.06
0.92	7.25	8.25	9.25	9.50	9.00	11.75	2.50	9.00	1.50	1.75	1.50	3.25	8.50	1.00	0.50	0.75	-0.145508	0.116699	0.972168	-0.840000	1.120000	2.800000	1026.00	-0.12	-0.14	9.00	7.75	7.50	8.50	3.25	5.00	0.75	1.00	0.00	0.00	0.00	0.25	0.00	0.50	0.00	0.00	-0.122559	0.166016	0.942383	7.700000	-9.450000	0.070000	508.00	-0.27	-0.07
0.93	7.75	8.25	9.50	9.75	9.00	12.00	2.25	9.00	1.50	1.50	1.25	2.75	8.50	1.00	0.50	0.75	-0.149414	0.117188	0.981445	-0.000000	0.420000	3.220000	1025.00	-0.12	-0.14	9.50	8.25	7.50	8.50	3.25	5.00	0.75	1.00	0.00	0.00	0.00	0.00	0.00	0.75	0.00	0.00	-0.113281	0.170410	0.947266	5.670000	-7.630000	-0.000000	518.00	-0.27	-0.06
0.94	8.25	9.00	9.75	9.75	9.00	12.25	2.25	8.75	1.25	1.75	1.00	2.75	8.25	0.75	0.50	0.50	-0.145020	0.099609	0.958496	1.540000	-1.470000	3.640000	1031.00	-0.13	-0.14	9.25	8.25	7.75	8.50	3.25	5.00	0.75	1.00	0.00	0.00	0.00	0.00	0.00	0.75	0.00	0.00	-0.110352	0.175293	0.936035	3.360000	-5.460000	-0.350000	519.00	-0.27	-0.06
0.95	8.50	9.25	10.00	10.25	9.00	12.25	2.25	8.75	1.25	1.50	1.00	2.25	8.00	0.75	0.50	0.50	-0.149414	0.109863	0.972168	1.820000	-2.240000	2.450000	1034.00	-0.14	-0.14	9.75	8.25	7.75	8.50	3.25	5.00	0.75	0.75	0.00	0.00	0.00	0.00	0.00	0.75	0.00	0.00	-0.108398	0.179199	0.922852	0.210000	-3.290000	-0.350000	520.00	-0.28	-0.06
0.96	9.00	9.50	10.25	10.50	9.25	12.25	2.25	8.75	1.25	1.25	0.75	2.25	7.50	1.00	0.25	0.50	-0.131836	0.117676	0.974121	3.430000	-3.430000	2.170000	1040.00	-0.15	-0.13	10.00	8.75	7.75	8.75	3.25	5.00	0.75	0.75	0.00	0.00	0.00	0.00	0.00	0.50	0.00	0.00	-0.106934	0.175293	0.924805	-4.060000	-0.140000	-0.490000	529.00	-0.28	-0.06
0.97	9.50	10.25	10.50	10.75	9.25	12.50	2.00	8.75	1.25	1.25	0.25	2.25	7.50	0.75	0.25	0.50	-0.143066	0.124023	0.969727	3.850000	-2.940000	1.820000	1050.00	-0.15	-0.13	10.50	9.00	8.00	8.75	3.25	5.00	0.75	1.00	0.00	0.00	0.00	0.25	0.00	0.75	0.00	0.00	-0.114746	0.174805	0.933105	-7.700000	3.080000	-0.560000	549.00	-0.28	-0.06
0.98	10.25	10.75	10.50	10.75	9.25	12.75	2.00	8.50	1.00	1.25	0.75	1.75	6.75	0.75	0.50	0.25	-0.119629	0.121582	0.944824	3.780000	-1.680000	1.750000	1053.00	-0.16	-0.13	10.25	9.00	8.25	8.75	3.25	5.00	1.00	1.00	0.00	0.00	0.00	0.00	0.00	0.75	0.00	0.00	-0.112793	0.167480	0.937012	-10.360000	5.740000	-0.840000	551.00	-0.27	-0.06
0.99	11.00	11.25	10.75	11.00	9.25	12.75	2.00	8.50	1.25	1.25	0.75	1.50	6.50	0.75	0.25	0.25	-0.127441	0.128906	0.956055	3.220000	-0.280000	1.750000	1068.00	-0.17	-0.12	10.25	8.75	8.25	9.00	3.50	5.00	0.75	1.00	0.25	0.25	0.00	0.00	0.00	0.75	0.00	0.00	-0.115234	0.170410	0.938965	-12.600000	8.260000	-0.980000	557.00	-0.27	-0.06
1.00	11.00	11.75	11.00	11.25	9.25	12.75	2.00	8.50	0.50	1.00	0.50	1.25	6.25	0.75	0.25	0.25	-0.127930	0.125977	0.961426	2.800000	0.280000	1.960000	1058.00	-0.18	-0.13	10.50	9.00	8.25	8.75	3.50	5.25	0.75	1.00	0.25	0.00	0.00	0.25	0.00	0.75	0.00	0.00	-0.118164	0.159180	0.936523	-17.219999	12.040000	-1.050000	562.00	-0.27	-0.06
1.01	11.50	12.00	11.00	11.50	9.25	12.75	2.00	8.25	0.75	1.00	0.50	1.50	6.00	0.50	0.25	0.50	-0.119629	0.123047	0.942383	2.450000	1.680000	1.820000	1068.00	-0.18	-0.13	11.25	9.00	8.25	9.00	3.50	5.25	0.75	1.00	0.00	0.25	0.00	0.00	0.00	0.75	0.00	0.00	-0.122070	0.149414	0.937988	-20.230000	13.720000	-1.330000	570.00	-0.28	-0.06
1.02	12.25	12.50	11.25	11.50	9.25	13.00	2.00	8.25	1.00	1.00	0.50	1.25	5.75	0.50	0.25	0.25	-0.111328	0.124512	0.932617	1.890000	2.450000	1.680000	1085.00	-0.18	-0.12	11.00	8.75	8.25	9.25	3.75	5.50	0.75	1.50	0.25	0.00	0.00	0.00	0.00	1.00	0.00	0.00	-0.123535	0.158691	0.950684	-24.920000	14.000000	-1.820000	585.00	-0.27	-0.06
1.03	12.75	12.50	11.25	11.25	9.00	12.75	1.75	8.25	1.25	0.75	0.00	1.50	5.75	0.75	0.25	0.00	-0.107422	0.130371	0.928223	0.490000	3.360000	1.540000	1076.00	-0.18	-0.12	10.75	9.00	8.25	9.25	4.00	5.50	1.00	1.50	0.25	0.25	0.00	0.25	0.00	0.75	0.00	0.00	-0.140625	0.150391	0.993164	-28.910000	12.320000	-1.470000	595.00	-0.26	-0.06
1.04	12.75	12.50	11.00	11.25	9.00	12.75	2.00	8.25	0.75	0.75	0.50	1.25	5.00	0.50	0.25	0.00	-0.104980	0.128906	0.932617	-1.750000	4.830000	1.470000	1063.00	-0.19	-0.12	10.50	8.75	8.25	9.25	4.25	5.50	1.00	1.75	0.00	0.00	0.00	0.00	0.00	0.75	0.00	0.00	-0.122070	0.129395	0.942383	-31.080000	10.570000	-1.330000	588.00	-0.27	-0.07
1.05	12.00	12.50	11.00	11.25	9.00	12.75	2.00	8.25	1.00	1.00	0.50	1.00	5.25	0.75	0.50	0.25	-0.108398	0.128418	0.940430	-4.130000	6.650000	1.400000	1067.00	-0.18	-0.12	10.50	8.75	8.25	9.00	4.75	6.00	1.00	2.00	0.25	0.50	0.00	0.25	0.50	1.00	0.00	0.00	-0.121582	0.131348	0.947754	-33.110001	10.500000	-1.680000	620.00	-0.25	-0.07
1.06	12.50	12.50	11.00	11.50	9.00	12.75	2.00	8.00	0.75	1.00	0.50	1.50	5.25	0.25	0.25	0.00	-0.116211	0.128418	0.935059	-5.880000	7.910000	1.120000	1065.00	-0.19	-0.12	10.50	8.25	8.25	9.00	5.50	6.50	1.00	2.25	0.50	0.75	0.00	0.25	0.50	1.00	0.00	0.00	-0.141113	0.137207	1.002930	-33.670002	10.150000	-1.820000	640.00	-0.23	-0.07
1.07	12.25	12.25	11.00	11.25	9.00	12.75	1.75	8.25	1.00	1.25	0.50	1.25	5.50	0.75	0.25	0.25	-0.109375	0.126953	0.939941	-7.490000	9.380000	1.050000	1069.00	-0.18	-0.12	9.75	8.25	8.50	9.25	5.50	6.75	1.00	2.50	0.50	0.50	0.25	0.50	1.00	1.00	0.50	0.00	-0.153320	0.120117	0.993652	-28.420000	7.980000	-1.190000	658.00	-0.22	-0.08
1.08	12.00	12.00	10.75	11.00	9.00	12.75	2.00	8.25	1.00	1.00	0.50	1.25	5.25	0.50	0.25	0.00	-0.126953	0.125977	0.958496	-8.190000	10.290000	0.840000	1052.00	-0.18	-0.12	9.75	8.25	8.50	9.25	6.00	7.25	1.25	3.00	0.75	1.00	0.25	0.50	1.50	1.25	0.50	0.00	-0.156250	0.120117	0.988770	-21.490000	4.200000	-0.140000	699.00	-0.20	-0.08
1.09	11.50	11.75	10.50	11.00	9.00	12.50	2.00	8.25	0.50	1.25	0.75	1.75	5.75	0.75	0.25	0.00	-0.117676	0.117676	0.944824	-7.840000	11.200000	0.280000	1050.00	-0.18	-0.13	10.00	8.00	8.50	9.50	6.25	7.50	1.25	3.50	0.75	0.75	0.50	0.75	2.00	1.25	0.50	0.00	-0.141602	0.121582	0.958008	-17.010000	2.310000	0.210000	724.00	-0.20	-0.09
1.10	11.25	11.50	10.25	10.75	9.00	12.50	2.00	8.50	1.50	1.25	0.75	1.75	6.00	0.75	0.50	0.50	-0.124512	0.115234	0.942871	-7.140000	11.690000	0.000000	1065.00	-0.16	-0.12	9.75	8.25	9.00	9.50	6.50	7.75	1.25	3.75	0.75	1.25	0.75	0.75	2.00	1.25	0.25	0.00	-0.154785	0.124512	0.970215	-13.370000	0.000000	0.210000	746.00	-0.19	-0.09
1.11	10.75	11.00	10.25	10.50	9.00	12.50	2.25	8.75	1.25	1.25	1.00	2.00	6.50	1.00	0.50	0.50	-0.106445	0.113281	0.937500	-6.090000	13.160000	-0.350000	1069.00	-0.16	-0.13	9.50	8.00	8.75	9.50	6.75	8.00	1.25	4.25	0.75	1.25	0.50	1.00	3.25	1.50	0.75	0.00	-0.151855	0.126953	0.966309	-9.800000	-2.100000	0.350000	772.00	-0.18	-0.10
1.12	9.75	10.50	9.75	10.25	8.75	12.25	2.25	9.00	1.25	1.50	1.25	2.50	7.25	1.00	0.50	0.50	-0.128906	0.118164	0.959473	-4.690000	15.470000	-0.840000	1060.00	-0.14	-0.13	10.50	8.50	9.75	10.75	7.25	8.25	1.50	5.25	1.00	1.25	1.25	1.00	3.50	1.75	0.75	0.25	-0.131836	0.126953	0.957031	-7.280000	-5.110000	0.700000	863.00	-0.17	-0.10
1.13	9.25	9.75	9.50	10.00	8.50	12.25	2.25	9.25	1.50	1.75	1.50	2.50	8.00	1.00	0.75	0.50	-0.099121	0.114746	0.978516	-0.910000	16.240000	-1.190000	1061.00	-0.13	-0.14	10.75	9.50	10.25	12.25	8.50	10.00	1.75	6.50	2.50	2.75	2.00	2.00	5.50	3.00	2.00	1.00	-0.136719	0.125488	0.965820	-6.160000	-6.510000	0.980000	1069.00	-0.13	-0.10
1.14	8.00	9.00	9.25	9.50	8.25	11.75	2.50	9.25	1.50	2.00	2.00	3.00	8.50	1.25	0.75	0.75	-0.114746	0.130859	0.975098	1.820000	19.740000	-1.540000	1048.00	-0.12	-0.14	12.25	11.75	12.00	13.50	9.25	11.00	2.25	7.00	2.50	2.50	2.00	2.50	5.75	3.00	2.75	1.50	-0.130371	0.122070	0.964355	-4.690000	-7.140000	1.190000	1199.00	-0.13	-0.10
1.15	7.00	8.00	8.50	9.00	7.75	11.50	2.25	8.75	0.50	1.25	0.75	2.50	8.25	0.25	0.00	0.25	-0.093750	0.101562	0.996582	3.850000	24.219999	-1.960000	924.00	-0.14	-0.15	15.50	12.75	11.25	13.75	9.75	11.25	2.25	7.50	3.00	2.75	2.25	3.00	6.25	3.50	2.50	1.25	-0.125000	0.113770	0.976562	-3.080000	-6.930000	1.610000	1281.00	-0.13	-0.10
1.16	6.25	7.00	8.00	8.50	7.25	11.00	2.25	9.50	1.75	2.50	2.25	4.50	9.75	1.25	1.00	1.25	-0.132812	0.118652	0.999512	7.700000	27.930000	-2.450000	1007.00	-0.08	-0.15	15.50	12.75	12.75	14.50	10.00	11.75	2.25	7.50	2.75	2.75	2.25	2.75	6.25	3.50	2.25	1.50	-0.130371	0.128418	0.978027	-1.890000	-5.600000	2.030000	1309.00	-0.14	-0.09
1.17	4.50	5.50	6.25	6.75	5.75	9.75	2.00	8.75	0.75	1.25	1.50	4.00	9.25	0.25	0.25	1.00	-0.107422	0.111816	1.017578	11.410000	33.180000	-4.480000	814.00	-0.09	-0.18	16.50	13.75	13.00	14.50	10.75	12.25	2.50	7.75	3.00	3.00	2.50	3.00	7.25	3.75	3.00	1.25	-0.127441	0.131836	0.967773	-1.540000	-3.990000	2.030000	1388.00	-0.13	-0.09
1.18	3.50	5.25	5.50	5.50	4.50	8.75	1.75	8.50	0.25	2.00	1.75	5.75	10.00	0.50	0.25	1.50	-0.213379	0.132812	1.049805	16.100000	39.619999	-6.650000	777.00	-0.06	-0.20	16.50	14.25	13.50	15.25	11.25	13.00	2.75	8.00	3.25	3.25	2.75	3.50	7.50	3.75	3.00	1.75	-0.119629	0.129883	0.975098	-2.170000	-2.240000	1.750000	1451.00	-0.13	-0.10
1.19	3.25	4.25	5.00	5.00	3.00	8.00	1.50	8.25	0.75	1.75	2.50	6.50	10.25	1.00	0.75	2.75	-0.145020	0.162109	1.022461	22.330000	49.209999	-9.310000	759.00	-0.03	-0.20	16.50	14.00	13.75	15.25	11.50	13.25	2.75	8.25	3.25	3.25	2.75	3.50	8.00	4.00	3.25	1.75	-0.125488	0.134277	0.973633	-3.150000	-0.700000	1.190000	1472.00	-0.13	-0.10
1.20	2.00	3.25	4.00	3.25	1.75	7.00	1.00	7.75	0.25	1.75	3.25	7.50	10.25	1.00	1.00	3.50	-0.160645	0.128418	1.150391	45.080002	68.879997	-12.880000	678.00	0.00	-0.23	16.75	14.25	13.50	15.25	12.00	13.25	3.00	8.25	3.50	3.25	2.75	3.75	8.25	4.00	3.00	1.75	-0.126465	0.127441	0.975586	-3.920000	0.630000	0.700000	1490.00	-0.13	-0.09
1.21	2.50	2.50	3.25	1.50	1.00	5.75	1.00	6.50	0.00	1.50	4.00	7.25	10.25	1.25	1.25	5.25	-0.147949	0.221191	1.429688	73.639999	108.989998	-15.680000	617.00	0.03	-0.23	16.50	14.00	13.25	15.50	12.00	13.25	3.00	8.25	3.75	3.50	3.00	3.75	8.50	4.25	3.25	2.00	-0.124023	0.130859	0.975586	-4.340000	1.540000	0.070000	1503.00	-0.12	-0.09
1.22	1.50	2.50	3.00	1.00	0.75	4.75	1.00	5.75	1.75	2.50	5.75	8.25	11.00	2.25	2.75	6.00	-0.281250	0.189453	1.268066	112.070000	188.160004	-19.950001	675.00	0.09	-0.20	16.00	14.25	13.25	15.25	12.25	13.50	3.25	8.50	3.50	3.75	3.00	4.00	8.50	4.25	3.50	2.00	-0.121094	0.123535	0.961426	-4.480000	2.310000	-0.350000	1516.00	-0.12	-0.10
1.23	1.50	4.00	3.75	2.50	1.50	5.50	1.00	4.75	1.00	2.25	5.50	8.00	10.25	2.75	3.25	6.25	-0.216309	0.295898	1.486328	133.350006	260.610016	-29.120001	704.00	0.06	-0.19	16.00	14.00	13.25	15.25	12.50	13.50	3.25	8.50	3.25	4.00	3.25	4.25	9.00	4.25	4.00	2.25	-0.123047	0.125000	0.965820	-4.620000	3.220000	-0.700000	1534.00	-0.11	-0.10
1.24	0.75	2.25	2.00	1.25	0.50	3.00	0.75	1.00	0.00	0.50	3.50	6.25	8.25	2.00	2.75	6.50	-0.145508	0.157227	2.009766	128.100006	354.619995	-39.619999	426.00	0.10	-0.21	15.75	13.75	13.25	15.00	12.75	13.50	3.25	8.50	3.75	4.25	3.50	4.75	9.00	4.50	4.00	2.50	-0.115234	0.130371	0.961914	-4.410000	4.410000	-0.350000	1551.00	-0.11	-0.10
1.25	0.25	0.00	1.25	0.00	0.00	1.50	0.50	0.75	0.00	0.25	3.25	5.75	7.25	0.75	1.25	5.25	-0.291504	0.158203	1.735352	105.769997	375.760010	-37.869999	284.00	0.17	-0.25	15.25	13.50	13.00	15.00	12.50	13.50	3.25	8.75	4.00	4.50	3.75	4.75	9.25	4.75	4.00	2.25	-0.118164	0.121094	0.958008	-4.200000	5.600000	-0.350000	1553.00	-0.10	-0.10
1.26	0.00	1.00	1.00	0.00	0.25	1.75	0.50	0.50	0.00	0.50	3.00	5.00	5.25	0.25	0.75	4.25	-0.448242	0.156250	2.057129	85.260002	392.910004	-35.840000	246.00	0.13	-0.24	14.75	12.75	12.75	14.75	12.50	13.25	3.50	8.75	4.00	4.75	4.00	5.50	9.75	4.75	3.75	2.25	-0.125000	0.120117	0.963867	-3.640000	6.230000	-0.280000	1551.00	-0.09	-0.10
1.27	0.25	0.75	1.50	0.00	0.00	1.75	0.75	0.75	0.00	0.00	1.25	3.50	2.00	0.00	0.00	2.75	-0.379883	0.321289	1.888184	86.379997	389.059998	-23.870001	164.00	0.06	-0.21	14.25	12.25	12.50	14.25	12.50	13.25	3.50	8.75	4.25	4.75	4.25	5.50	10.00	5.00	4.00	2.50	-0.126953	0.117188	0.969727	-3.220000	6.720000	-0.280000	1547.00	-0.09	-0.10
1.28	0.00	0.50	1.25	0.00	0.00	1.00	0.50	0.00	0.00	0.00	1.00	2.25	0.50	0.00	0.00	0.50	-0.504883	0.645020	2.088379	103.110001	365.470001	-22.190001	86.00	0.03	-0.15	13.75	11.75	12.25	14.00	12.25	13.00	3.50	8.75	3.75	4.75	4.00	6.00	9.75	5.00	4.25	2.50	-0.125000	0.124023	0.958008	-2.870000	7.070000	-0.000000	1521.00	-0.08	-0.10
1.29	0.00	0.75	1.50	0.00	0.00	0.75	0.50	0.00	0.00	0.00	0.00	1.25	0.00	0.00	0.00	0.00	-0.514648	0.152832	1.759766	121.940002	329.489990	-27.650000	57.00	-0.10	-0.08	13.25	11.25	12.25	14.00	12.25	13.00	3.50	8.75	4.25	5.00	5.00	6.50	10.25	5.00	4.75	2.75	-0.125977	0.114746	0.957031	-2.590000	7.280000	0.210000	1549.00	-0.07	-0.10
1.30	0.75	0.00	0.00	0.00	0.00	0.25	0.25	0.25	0.00	0.00	0.00	0.50	0.00	0.00	0.00	0.00	0.053223	-0.009277	0.995605	102.059998	285.110016	-30.730000	26.00	0.00	0.00	12.75	10.50	11.75	13.50	12.00	13.00	3.50	8.75	4.50	5.50	5.00	6.75	10.25	5.00	4.50	3.00	-0.133789	0.117188	0.961426	-2.450000	7.210000	0.350000	1532.00	-0.07	-0.10
1.31	0.00	0.00	0.25	0.00	0.00	0.00	0.50	0.00	0.00	0.00	0.00	0.25	0.00	0.00	0.00	0.00	1.260742	0.272461	0.949707	70.559998	235.759995	-40.110001	14.00	0.00	0.00	11.50	10.25	11.50	13.25	12.00	12.75	3.50	8.75	4.75	5.50	6.00	7.00	10.50	5.25	4.75	3.00	-0.129883	0.122070	0.940430	-2.450000	6.790000	0.350000	1531.00	-0.06	-0.10
1.32	0.00	1.00	0.50	0.00	0.00	0.00	0.50	0.00	0.00	0.00	0.00	0.00	0.00	0.00	0.00	0.00	2.312012	-0.204590	2.257324	11.830000	144.270004	-59.290001	24.00	0.00	0.00	11.25	9.75	11.25	13.00	12.00	12.75	3.50	9.00	5.00	6.00	6.25	7.50	10.75	5.50	5.00	3.25	-0.123047	0.123047	0.954590	-2.450000	6.370000	0.350000	1549.00	-0.05	-0.10
1.33	0.25	0.50	1.25	0.00	0.00	0.25	0.75	0.00	0.00	0.00	0.00	0.25	0.00	0.00	0.00	0.00	1.713867	0.056641	2.000488	-29.190001	27.370001	-75.180000	41.00	0.00	0.00	10.75	9.50	11.00	12.75	12.00	12.75	3.50	9.00	5.00	6.50	6.50	7.75	10.75	5.50	5.00	3.25	-0.134766	0.121094	0.957031	-2.520000	6.090000	0.350000	1546.00	-0.04	-0.10
1.34	0.00	0.50	0.75	0.00	0.00	0.25	0.50	0.00	0.00	0.00	0.00	0.00	0.00	0.00	0.00	0.00	2.199219	-0.069336	1.384277	-50.540001	-70.349998	-79.309998	25.00	0.00	0.00	10.75	9.00	10.75	12.75	11.75	12.75	3.75	9.00	5.00	7.25	7.00	8.00	11.25	5.75	5.00	3.50	-0.133301	0.124512	0.969238	-2.590000	6.300000	0.210000	1565.00	-0.04	-0.10
1.35	0.00	0.00	0.25	0.00	0.00	0.00	0.50	0.00	0.00	0.00	0.00	0.00	0.00	0.00	0.00	0.00	1.724121	0.194824	0.616211	-40.459999	-113.540001	-90.860001	11.00	0.00	0.00	9.50	8.75	10.50	12.25	11.75	12.75	3.75	9.00	5.25	7.25	7.25	8.00	11.25	5.75	5.25	3.50	-0.129883	0.122070	0.960938	-2.730000	6.370000	0.210000	1548.00	-0.03	-0.11
1.36	0.00	0.00	0.50	0.00	0.00	0.00	0.75	0.00	0.00	0.00	0.00	0.00	0.00	0.00	0.00	0.00	1.519531	0.144043	0.734375	-28.700001	-128.660004	-97.720001	18.00	0.00	0.00	9.25	8.25	10.00	12.25	11.75	12.75	3.75	9.00	5.00	7.50	7.50	8.25	11.50	6.00	5.50	4.00	-0.134766	0.121582	0.961914	-2.730000	5.950000	0.280000	1550.00	-0.02	-0.11
1.37	0.00	0.00	0.00	0.00	0.00	0.00	0.50	0.00	0.00	0.00	0.00	0.00	0.00	0.00	0.00	0.00	1.491211	0.257812	0.947266	-27.719999	-148.960007	-95.550003	8.00	0.00	0.00	9.00	8.25	10.00	11.75	11.75	12.75	3.75	9.00	5.00	7.75	8.00	8.50	11.50	6.25	5.50	4.25	-0.127930	0.121094	0.960938	-2.660000	5.740000	0.210000	1556.00	-0.02	-0.11
1.38	0.00	0.00	0.00	0.00	0.00	0.00	0.75	0.00	0.00	0.00	0.00	0.00	0.00	0.00	0.00	0.00	1.223145	0.490723	1.236816	-42.840000	-212.029999	-72.730003	12.00	0.00	0.00	8.75	8.00	9.75	11.75	11.50	12.75	4.00	9.00	5.50	7.75	7.75	8.50	11.75	6.50	6.25	4.00	-0.134277	0.120605	0.956055	-2.380000	6.090000	-0.000000	1565.00	-0.01	-0.11
1.39	0.50	1.50	1.75	0.75	0.50	1.75	0.75	0.75	0.75	0.25	0.00	0.50	0.00	0.00	0.00	0.00	0.993164	0.575684	1.267090	-41.720001	-242.130005	-59.220001	122.00	-0.13	-0.06	8.25	7.50	9.50	11.25	11.50	12.50	4.00	9.25	5.75	8.00	8.00	8.75	12.00	6.75	6.25	4.25	-0.129883	0.119141	0.958008	-1.890000	6.650000	-0.420000	1565.00	-0.00	-0.11
1.40	0.00	0.00	1.25	0.00	0.25	1.25	0.75	0.00	0.25	0.25	0.00	0.00	0.00	0.00	0.00	0.00	0.744629	0.612793	1.328125	-33.110001	-269.010010	-45.570000	52.00	-0.08	0.03	8.00	7.25	9.25	10.75	11.50	12.75	4.00	9.25	5.75	8.25	8.25	9.00	12.25	6.75	6.25	4.75	-0.133789	0.118652	0.955566	-1.470000	7.210000	-0.560000	1567.00	0.00	-0.11
1.41	0.25	2.25	2.25	0.00	0.00	0.25	0.75	0.00	0.00	0.00	0.00	0.25	0.00	0.00	0.00	0.00	0.488281	0.596680	1.375000	-21.490000	-292.950012	-31.080000	71.00	-0.24	0.00	7.75	7.00	9.00	10.50	11.25	12.50	4.00	9.25	6.00	8.50	8.50	9.25	12.50	7.25	6.25	5.00	-0.134277	0.115723	0.959961	-0.980000	7.700000	-0.630000	1570.00	0.01	-0.11
1.42	0.50	1.50	1.75	0.00	0.00	0.00	0.50	0.00	0.00	0.75	0.00	0.25	0.00	0.00	0.00	0.00	0.240723	0.561035	1.399902	-11.410000	-312.549988	-15.680000	62.00	-0.18	0.03	7.25	6.75	8.75	10.00	11.00	12.25	4.00	9.25	6.25	8.75	8.75	9.50	12.75	7.50	6.75	5.00	-0.131836	0.121582	0.958496	-0.350000	8.890000	-0.700000	1570.00	0.02	-0.11
1.43	0.25	1.50	1.25	0.00	0.00	0.25	0.75	0.00	0.00	0.00	0.00	0.25	0.00	0.25	0.00	0.25	-0.004883	0.550781	1.432129	-5.180000	-326.130005	1.190000	55.00	-0.16	0.01	7.00	6.50	8.50	9.75	10.75	12.00	4.25	9.25	6.25	8.75	9.00	9.75	13.00	7.75	6.75	5.00	-0.135254	0.127930	0.958984	-0.280000	9.730000	-1.050000	1567.00	0.02	-0.11
1.44	0.75	1.50	1.75	0.25	0.50	1.25	0.75	0.25	0.50	0.75	0.00	0.25	0.00	0.25	0.25	0.00	-0.292969	0.601074	1.454590	-3.990000	-331.239990	19.389999	109.00	-0.11	-0.01	5.75	5.75	7.50	9.00	9.00	9.75	3.75	8.75	6.25	9.00	9.25	10.00	13.25	8.00	7.00	5.25	-0.139648	0.123535	0.957520	-0.280000	10.360000	-1.190000	1477.00	0.04	-0.11
1.45	0.00	0.25	0.25	0.00	0.00	0.50	0.75	0.00	0.00	0.00	0.00	0.00	0.00	0.00	0.00	0.00	-0.496582	0.675781	1.466797	-2.450000	-327.040009	36.610001	24.00	0.00	0.00	4.00	4.00	5.75	7.00	9.00	9.75	3.75	9.25	6.75	9.25	9.25	10.00	13.00	7.75	7.00	5.00	-0.144531	0.129395	0.960938	-0.350000	10.990000	-0.910000	1407.00	0.06	-0.11
1.46	0.00	0.50	1.00	0.00	0.00	0.50	0.75	0.00	0.00	0.00	0.00	0.00	0.00	0.00	0.00	0.00	-0.656738	0.797363	1.435547	0.770000	-316.260010	52.709999	36.00	0.00	0.00	5.75	5.00	7.25	8.50	10.50	11.50	3.75	8.75	6.50	8.75	9.25	10.25	12.75	7.75	7.75	6.25	-0.139160	0.130859	0.964844	-0.700000	11.830000	-0.910000	1511.00	0.04	-0.11
1.47	0.00	0.00	0.00	0.00	0.00	0.00	0.75	0.00	0.00	0.00	0.00	0.00	0.00	0.00	0.00	0.00	-0.857910	0.978516	1.490723	3.850000	-298.829987	69.230003	12.00	0.00	0.00	5.00	3.00	5.00	6.75	9.25	10.00	3.50	8.50	6.75	9.25	10.00	10.50	13.50	9.00	7.75	6.25	-0.143066	0.120605	0.958496	-1.260000	12.740000	-0.700000	1432.00	0.07	-0.11
1.48	0.00	0.25	1.50	0.00	0.00	0.00	0.75	0.00	0.00	0.00	0.00	0.00	0.00	0.00	0.00	0.00	-1.076660	1.157227	1.650879	5.530000	-278.390015	88.059998	33.00	0.00	0.00	2.25	2.25	5.25	6.50	8.25	9.75	4.00	9.00	6.75	9.75	9.75	10.25	13.75	8.50	7.00	5.75	-0.153320	0.124023	0.961914	-1.260000	16.100000	-1.610000	1381.00	0.08	-0.11
1.49	0.00	0.00	1.00	0.00	0.00	0.25	0.75	0.00	0.00	0.00	0.00	0.00	0.00	0.00	0.00	0.00	-1.321777	1.432617	1.911133	2.590000	-262.149994	110.250000	28.00	0.00	0.00	5.00	3.75	5.75	7.00	8.75	9.75	3.75	8.50	7.00	9.75	10.25	11.00	13.25	9.25	7.75	6.75	-0.133789	0.125488	0.971680	-1.190000	18.690001	-1.890000	1468.00	0.07	-0.11
1.50	0.00	0.00	0.00	0.00	0.00	0.00	0.75	0.00	0.00	0.00	0.00	0.00	0.00	0.00	0.00	0.00	-1.604004	1.772949	2.102051	-1.960000	-255.850006	136.570007	12.00	0.00	0.00	3.00	2.50	4.00	5.25	7.25	8.50	3.50	8.25	7.00	9.50	10.00	10.50	13.50	9.50	7.75	6.50	-0.162598	0.127441	0.983887	-1.050000	22.330000	-1.820000	1341.00	0.10	-0.11
1.51	0.00	0.00	0.25	0.00	0.00	0.00	0.50	0.00	0.00	0.00	0.00	0.00	0.00	0.00	0.00	0.00	-2.042480	2.083496	1.935059	-5.670000	-259.489990	164.080002	11.00	0.00	0.00	3.00	1.75	4.00	4.75	6.50	8.00	3.25	8.25	7.75	10.00	10.50	11.00	13.50	10.00	8.00	6.75	-0.125488	0.157715	0.977539	-1.820000	26.460001	-1.750000	1345.00	0.11	-0.11
1.52	0.00	0.00	0.25	0.00	0.00	0.00	0.75	0.00	0.00	0.00	0.00	0.00	0.00	0.00	0.00	0.00	-2.172852	1.548340	1.195312	37.869999	-267.260010	197.259995	15.00	0.00	0.00	2.50	1.75	3.25	4.00	5.50	7.25	3.25	8.00	7.50	10.00	10.50	11.00	13.50	11.00	8.25	7.00	-0.173828	0.120117	0.980469	-2.730000	31.080000	-4.060000	1306.00	0.13	-0.11
1.53	1.50	2.75	2.25	1.00	0.75	2.00	1.00	0.75	0.75	0.75	0.00	0.00	0.25	0.00	0.00	0.00	-3.420410	-0.088867	0.777344	175.630005	-222.740005	208.039993	167.00	-0.16	-0.04	2.25	1.25	2.50	3.00	4.50	6.25	3.00	7.50	7.75	10.25	10.75	11.25	13.50	11.75	8.50	7.25	-0.216309	0.124512	0.986328	-2.240000	36.400002	-5.810000	1264.00	0.15	-0.11
1.54	1.00	2.25	1.25	0.75	0.75	1.75	1.00	0.25	0.50	0.75	0.00	0.25	0.50	0.50	0.00	0.00	-3.744141	-0.988281	0.302246	137.410004	-174.089996	205.940002	137.00	-0.12	-0.04	1.75	1.25	2.00	2.75	3.50	5.25	2.75	7.00	8.00	10.50	11.00	11.25	13.25	12.75	9.00	7.50	-0.129883	0.146973	1.006836	-1.470000	44.450001	-6.860000	1237.00	0.16	-0.10
1.55	1.00	2.25	2.25	0.50	0.75	2.25	1.00	0.75	0.75	0.75	0.00	0.25	0.50	0.50	0.00	0.00	-3.881348	-1.389648	-0.010742	44.869999	-125.650002	192.919998	164.00	-0.12	-0.05	1.25	0.75	1.75	2.25	2.50	4.50	2.50	6.00	8.25	10.50	11.00	11.25	13.00	13.75	9.00	7.50	-0.150391	0.169922	1.031250	-1.540000	55.510002	-7.770000	1186.00	0.18	-0.10
1.56	1.25	2.50	2.25	1.50	0.50	2.00	1.00	0.75	0.25	0.25	0.00	0.25	0.00	0.25	0.00	0.00	-3.910156	-1.274902	-0.265625	-51.520000	-80.989998	142.309998	155.00	-0.19	-0.07	1.25	0.50	1.25	1.75	2.00	3.00	2.00	5.25	8.25	10.75	11.25	11.25	12.50	14.75	9.50	7.75	-0.151367	0.138184	1.110840	-0.490000	76.019997	-9.730000	1144.00	0.20	-0.09
1.57	1.75	3.25	3.00	1.75	0.50	1.00	1.00	0.00	0.00	0.00	0.00	0.00	0.25	0.25	0.00	0.00	-4.341309	-1.414062	-1.088379	-104.790001	39.480000	48.160000	149.00	-0.25	-0.03	1.00	1.00	1.00	1.25	1.50	2.00	1.75	3.75	8.50	10.50	11.25	11.25	12.00	15.75	9.75	7.75	-0.248535	0.151367	1.127930	6.300000	105.769997	-13.650000	1098.00	0.22	-0.08
1.58	1.50	0.00	0.50	0.00	0.00	0.00	0.75	0.00	0.00	0.00	0.00	0.00	0.00	0.00	0.00	0.00	-0.979980	-1.163574	-0.861816	-156.940002	165.759995	-34.299999	35.00	0.00	0.00	1.25	0.75	1.00	1.25	1.25	1.75	1.50	2.50	8.50	10.25	11.25	11.00	11.25	16.75	9.75	7.75	-0.165527	0.285645	1.195312	16.590000	136.850006	-19.460001	1064.00	0.22	-0.07
1.59	2.25	4.00	2.00	1.25	0.25	0.25	0.75	0.00	0.00	0.00	0.00	0.00	0.00	0.00	0.00	0.00	0.627441	-0.375977	2.859863	-176.330002	250.460007	-70.980003	123.00	-0.31	-0.02	0.50	0.50	0.75	1.25	1.00	1.50	1.25	1.50	8.50	10.25	11.00	10.50	10.50	17.50	9.75	7.50	-0.192383	0.163574	1.266113	14.770000	168.210007	-22.610001	1013.00	0.24	-0.06
1.60	5.00	6.00	3.00	1.00	0.00	0.00	0.25	0.00	0.00	0.00	0.00	0.00	0.00	0.00	0.00	0.00	1.386719	0.836914	1.537598	-78.120003	153.860001	-38.849998	170.00	-0.36	-0.01	1.00	0.25	0.50	0.50	0.75	1.25	1.00	1.25	8.25	10.00	11.00	10.25	9.50	18.25	10.00	7.50	-0.355957	0.205566	1.243652	14.980000	218.259995	-33.389999	981.00	0.25	-0.05
1.61	7.75	7.75	4.25	3.00	0.25	0.00	0.50	0.00	0.00	0.00	0.00	0.00	0.00	0.00	0.00	0.00	0.201172	-0.576660	0.331055	40.950001	106.050003	-4.760000	265.00	-0.35	-0.02	0.50	0.00	0.25	0.50	0.75	0.50	0.75	0.50	8.00	9.75	10.75	9.75	8.50	19.00	10.00	7.00	-0.323730	0.253906	1.309082	-2.100000	232.399994	-37.099998	924.00	0.27	-0.04
1.62	8.50	9.25	5.25	4.50	0.50	0.00	0.50	0.00	0.00	0.00	0.00	0.00	0.00	0.00	0.00	0.00	-0.578125	-0.643555	0.241211	49.139999	196.210007	-36.470001	322.00	-0.34	-0.03	0.75	0.25	0.25	0.50	0.50	0.50	0.75	0.50	7.75	9.00	10.25	9.25	7.50	19.25	9.75	6.50	-0.365234	0.213379	1.181152	-6.090000	240.240005	-43.540001	890.00	0.27	-0.04
1.63	9.75	10.00	6.00	5.75	1.00	0.75	0.50	0.00	0.00	0.00	0.00	0.00	0.50	0.25	0.00	0.00	-0.512207	0.979980	2.505371	40.810001	252.630005	-66.500000	389.00	-0.32	-0.04	0.00	0.00	0.25	0.25	0.50	0.25	0.50	0.25	7.50	8.50	10.00	8.50	5.50	19.50	9.75	6.00	-0.447754	0.219727	1.268555	-15.960000	254.589996	-49.910000	824.00	0.29	-0.02
1.64	15.00	13.25	8.75	9.00	2.75	5.00	0.75	0.75	0.50	0.00	0.25	0.00	0.00	0.00	0.00	0.00	-0.468262	0.565918	2.597656	50.540001	167.580002	-51.520000	645.00	-0.30	-0.05	0.00	0.00	0.00	0.25	0.75	0.00	0.50	0.25	7.00	8.00	9.50	8.00	3.75	19.25	9.25	5.25	-0.488281	0.306641	1.276855	-28.350000	269.709991	-57.330002	768.00	0.29	-0.01
1.65	14.75	13.75	9.25	9.50	3.75	7.00	1.00	1.25	0.25	0.50	0.25	0.75	1.25	0.00	0.25	0.25	-0.438965	0.570801	1.618652	41.720001	101.500000	-30.240000	735.00	-0.27	-0.07	0.25	0.00	0.00	0.00	0.50	0.00	0.50	0.50	6.25	7.50	9.00	7.50	2.25	19.25	9.00	4.25	-0.517090	0.243164	1.346191	-38.849998	280.420013	-65.029999	718.00	0.30	-0.00
1.66	15.00	14.00	9.25	9.75	4.00	7.50	1.00	1.75	0.00	0.50	0.75	1.50	1.50	0.25	0.00	0.00	-0.297363	0.229004	1.504395	0.980000	67.830002	-2.240000	771.00	-0.26	-0.08	0.00	0.00	0.00	0.00	0.25	0.00	0.25	0.25	5.50	6.75	8.50	6.00	1.25	18.75	8.50	2.75	-0.633301	0.385254	1.519043	-45.290001	286.860016	-72.169998	633.00	0.31	0.01
1.67	14.00	13.50	9.25	9.75	4.00	8.00	1.00	2.00	0.75	0.25	0.50	1.00	1.75	0.50	0.00	0.25	-0.297363	0.229004	1.504395	0.980000	67.830002	-2.240000	771.00	-0.25	-0.08	0.00	0.00	0.00	0.00	0.00	0.25	0.25	0.00	4.75	5.50	7.75	5.00	1.00	18.00	8.00	1.50	-0.690430	0.367188	1.362793	-43.540001	296.940002	-81.550003	561.00	0.31	0.02
1.68	13.50	13.50	9.00	9.75	4.25	8.25	1.00	2.25	0.50	0.25	0.00	1.00	1.75	0.25	0.00	0.25	0.042480	0.131836	0.767090	6.580000	35.420002	-5.040000	760.00	-0.25	-0.09	0.00	0.00	0.00	0.00	0.25	0.00	0.25	0.00	3.25	5.00	7.00	3.75	0.00	16.75	7.25	0.00	-0.626953	0.293945	1.436523	-46.270000	306.040009	-91.000000	472.00	0.32	0.03
1.69	13.25	13.75	9.00	10.00	4.50	9.00	1.00	3.25	0.50	0.25	0.00	0.75	2.00	0.25	0.25	0.25	-0.042480	0.347168	0.832031	-15.400000	32.270000	-6.300000	794.00	-0.24	-0.10	0.00	0.00	0.00	0.00	0.00	0.00	0.25	0.00	2.00	4.00	5.75	2.75	0.00	15.25	6.25	0.00	-0.763184	0.342285	1.584961	-50.400002	309.679993	-98.980003	389.00	0.33	0.04
1.70	13.75	14.25	9.50	10.50	5.50	9.50	1.00	4.25	0.75	0.75	0.25	0.75	3.00	0.25	0.00	0.25	-0.166992	0.373535	0.903320	-36.330002	29.820000	-2.870000	870.00	-0.23	-0.10	0.00	0.00	0.00	0.00	0.00	0.00	0.25	0.00	0.75	3.00	4.50	2.25	0.00	13.50	5.25	0.00	-0.724609	0.347656	1.744629	-39.060001	307.860016	-103.180000	312.00	0.34	0.03
1.71	14.50	14.50	10.00	10.75	5.75	10.00	1.25	5.50	0.50	0.50	0.25	0.75	3.00	0.25	0.00	0.25	-0.114258	0.292969	0.915527	-61.670002	31.920000	-1.190000	918.00	-0.23	-0.11	0.00	0.00	0.00	0.00	0.00	0.00	0.25	0.00	0.75	2.50	3.00	1.50	0.00	11.50	4.00	0.00	-0.741699	0.175293	1.547363	-35.209999	310.450012	-108.500000	247.00	0.34	0.05
1.72	14.75	15.25	10.50	11.00	6.25	11.00	1.25	6.00	0.50	1.00	0.00	0.75	2.50	0.00	0.00	0.00	-0.105957	0.175781	1.019531	-76.930000	31.990000	-3.010000	958.00	-0.23	-0.11	0.00	0.00	0.00	0.00	0.00	0.00	0.25	0.00	0.25	2.25	2.25	1.00	0.00	9.25	2.25	0.00	-0.671387	0.380371	1.931641	-21.700001	299.179993	-113.680000	182.00	0.34	0.06
1.73	12.50	11.75	9.00	9.50	6.00	10.00	1.25	5.75	0.50	0.25	0.00	0.00	1.50	0.25	0.00	0.00	-0.136230	0.162109	1.049316	-78.750000	30.940001	-5.250000	817.00	-0.23	-0.10	0.00	0.00	0.00	0.00	0.00	0.00	0.25	0.00	0.25	2.00	1.50	1.00	0.00	7.25	1.25	0.00	-0.759766	0.413574	1.890625	-21.210001	290.640015	-121.099998	141.00	0.33	0.06
1.74	11.25	12.75	10.00	10.00	6.25	10.25	1.00	6.25	0.00	0.00	0.00	0.25	1.75	0.00	0.00	0.00	-0.176758	0.180176	1.083008	-68.459999	26.530001	-4.550000	834.00	-0.24	-0.12	0.00	0.00	0.00	0.00	0.00	0.00	0.50	0.00	0.00	1.25	1.00	0.50	0.00	5.25	0.75	0.00	-0.384277	0.456543	1.157715	-16.730000	282.589996	-126.629997	97.00	0.32	0.08
1.75	13.25	13.50	10.00	10.25	7.25	10.50	1.25	7.00	0.50	0.75	0.25	1.00	3.50	0.25	0.25	0.25	-0.125977	0.110840	1.044434	-56.490002	21.070000	-3.080000	950.00	-0.21	-0.11	0.00	0.00	0.00	0.00	0.00	0.00	0.50	0.00	0.00	1.00	0.75	0.50	0.00	2.25	0.25	0.00	-0.007324	0.557129	1.229492	-40.180000	285.390015	-138.110001	58.00	0.28	0.06
1.76	15.25	14.75	11.00	11.25	8.00	11.50	1.25	7.50	0.50	0.75	0.00	0.75	3.75	0.25	0.50	0.25	-0.109863	0.125977	1.013184	-47.389999	16.520000	-2.730000	1038.00	-0.22	-0.11	0.00	0.00	0.00	0.00	0.00	0.00	0.50	0.00	0.00	0.50	0.50	0.00	0.00	0.75	0.25	0.00	0.149414	0.892578	1.440430	-26.040001	254.940002	-144.479996	29.00	0.00	0.00
1.77	16.00	15.25	11.50	11.50	8.50	12.25	1.50	7.50	0.75	0.75	0.25	1.00	3.75	0.75	0.25	0.25	-0.117188	0.125488	0.990723	-40.110001	13.580000	-2.100000	1090.00	-0.21	-0.11	0.00	0.00	0.00	0.00	0.00	0.00	0.50	0.00	0.00	0.25	0.50	0.00	0.00	0.75	0.00	0.00	2.040527	1.165527	3.191895	7.420000	189.910004	-145.949997	24.00	0.00	0.00
1.78	15.75	15.00	11.50	11.50	8.50	11.75	1.50	7.50	0.50	0.75	0.25	1.00	4.00	0.50	0.00	0.25	-0.118164	0.118652	0.983887	-33.389999	12.110000	-1.400000	1073.00	-0.21	-0.11	0.00	0.00	0.00	0.00	0.00	0.00	0.50	0.00	0.00	0.25	0.00	0.00	0.00	0.25	0.00	0.00	0.497559	1.406250	3.952637	38.920002	50.959999	-121.379997	13.00	0.00	0.00
1.79	16.50	15.50	11.25	12.00	9.00	12.50	1.50	8.00	0.75	1.00	0.25	1.00	5.00	0.50	0.25	0.50	-0.120605	0.103027	0.967773	-28.070000	11.130000	-0.700000	1133.00	-0.21	-0.11	0.00	0.00	0.00	0.00	0.00	0.00	0.75	0.00	0.00	0.00	0.00	0.00	0.00	0.25	0.00	0.00	1.515625	0.772461	2.197266	23.170000	-69.510002	-88.340004	15.00	0.00	0.00
1.80	16.50	15.75	11.75	12.00	9.25	12.75	1.50	8.25	1.25	1.25	0.25	1.00	5.00	0.50	0.50	0.50	-0.119629	0.104980	0.968262	-25.410000	11.200000	-0.140000	1164.00	-0.20	-0.11	0.00	0.00	0.00	0.00	0.00	0.00	0.50	0.00	0.00	0.25	0.00	0.00	0.00	0.25	0.00	0.00	1.211914	0.780762	1.385254	-18.620001	-137.339996	-62.580002	13.00	0.00	0.00
1.81	16.50	15.50	11.75	11.75	9.50	12.00	1.50	8.25	0.75	0.75	0.00	1.00	5.25	0.75	0.00	0.25	-0.119629	0.109863	0.979004	-24.290001	11.550000	0.420000	1135.00	-0.21	-0.11	0.00	0.00	0.00	0.00	0.00	0.00	0.50	0.00	0.00	0.25	0.00	0.00	0.00	0.25	0.00	0.00	0.951660	0.889160	1.016602	-46.900002	-159.320007	-45.639999	13.00	0.00	0.00
1.82	16.75	15.25	11.75	12.00	9.75	13.00	1.75	8.25	1.25	1.25	0.75	1.25	5.50	1.00	0.25	0.25	-0.119141	0.117188	0.977051	-22.820000	11.620000	0.770000	1189.00	-0.19	-0.11	0.00	0.00	0.00	0.00	0.00	0.00	0.50	0.00	0.00	0.00	0.00	0.00	0.00	0.25	0.00	0.00	0.909180	1.020996	0.810059	-37.240002	-159.809998	-34.509998	11.00	0.00	0.00
1.83	15.75	15.00	11.75	12.00	10.00	13.25	1.75	8.50	0.75	1.50	0.25	1.25	5.50	0.75	0.25	0.50	-0.126953	0.113770	0.965332	-20.020000	10.920000	1.260000	1174.00	-0.19	-0.11	0.00	0.00	0.00	0.00	0.00	0.00	0.50	0.00	0.00	0.00	0.00	0.00	0.00	0.00	0.00	0.00	0.829590	1.027832	0.863770	-4.410000	-162.190002	-26.600000	8.00	0.00	0.00
1.84	15.75	15.25	12.00	12.00	10.50	13.50	2.00	8.50	1.25	1.00	0.50	1.00	5.50	0.75	0.00	0.25	-0.130371	0.117188	0.977539	-18.969999	10.220000	1.330000	1190.00	-0.20	-0.11	0.00	0.00	0.00	0.00	0.00	0.00	0.75	0.00	0.00	0.00	0.00	0.00	0.00	0.00	0.00	0.00	0.708496	0.816406	1.051758	53.410000	-185.009995	-5.180000	12.00	0.00	0.00
1.85	16.25	15.00	12.00	12.00	10.50	13.50	2.00	8.75	1.25	1.75	0.75	1.50	5.75	0.75	0.50	0.25	-0.128906	0.102539	0.974609	-16.730000	9.030000	1.470000	1222.00	-0.19	-0.11	0.00	0.00	0.00	0.00	0.00	0.00	0.50	0.00	0.00	0.00	0.00	0.00	0.00	0.00	0.00	0.00	0.645996	0.734375	1.156738	56.209999	-203.070007	10.850000	8.00	0.00	0.00
1.86	13.00	13.25	10.50	10.75	9.50	12.25	2.00	8.25	0.50	1.75	1.00	1.25	5.75	1.00	0.25	0.25	-0.120605	0.101562	0.972168	-14.840000	8.260000	1.330000	1088.00	-0.18	-0.12	0.00	0.00	0.00	0.00	0.00	0.00	0.50	0.00	0.00	0.00	0.00	0.00	0.00	0.00	0.00	0.00	0.575195	0.713867	1.263184	49.630001	-223.720001	28.700001	8.00	0.00	0.00
1.87	15.00	13.50	10.75	12.00	11.00	13.50	2.50	8.75	1.25	2.00	0.75	1.25	6.00	1.25	0.25	0.25	-0.125977	0.106445	0.970703	-13.370000	7.700000	1.050000	1196.00	-0.18	-0.11	0.00	0.00	0.00	0.00	0.00	0.00	0.50	0.00	0.00	0.00	0.00	0.00	0.00	0.25	0.00	0.00	0.500977	0.694336	1.290039	45.849998	-245.559998	45.709999	11.00	0.00	0.00
1.88	16.00	15.00	12.00	12.00	11.25	13.75	2.50	9.00	1.50	2.00	0.75	1.50	6.25	1.50	0.25	0.50	-0.121582	0.104004	0.969238	-13.160000	7.560000	0.560000	1261.00	-0.18	-0.11	0.00	0.00	0.00	0.00	0.00	0.00	0.50	0.00	0.00	0.00	0.00	0.00	0.00	0.00	0.00	0.00	0.386230	0.649414	1.293457	51.029999	-266.839996	59.220001	8.00	0.00	0.00
1.89	15.75	14.75	12.00	12.00	11.25	13.75	2.75	9.00	1.50	2.25	1.25	1.50	6.25	1.25	0.50	0.50	-0.130371	0.102051	0.975098	-13.160000	7.420000	0.140000	1269.00	-0.17	-0.11	0.00	0.00	0.00	0.00	0.00	0.00	0.50	0.00	0.00	0.00	0.00	0.00	0.00	0.00	0.00	0.00	0.240234	0.585449	1.300293	64.889999	-284.200012	68.250000	8.00	0.00	0.00
1.90	15.75	15.25	12.00	12.00	11.50	14.00	2.50	9.00	1.25	2.25	0.75	1.50	6.25	1.00	0.50	0.50	-0.124512	0.100098	0.961914	-12.670000	7.000000	-0.140000	1264.00	-0.18	-0.11	0.00	0.00	0.00	0.00	0.00	0.00	0.50	0.00	0.00	0.00	0.00	0.00	0.00	0.00	0.00	0.00	0.111816	0.479980	1.315430	82.110001	-297.429993	73.290001	8.00	0.00	0.00
1.91	15.75	15.00	12.00	12.00	11.75	13.75	2.75	9.00	1.50	2.25	1.25	1.50	6.50	1.00	0.25	0.50	-0.121094	0.094727	0.964355	-12.460000	7.280000	-0.210000	1274.00	-0.17	-0.11	0.00	0.00	0.00	0.00	0.00	0.00	0.50	0.00	0.00	0.00	0.00	0.00	0.00	0.00	0.00	0.00	-0.016602	0.383789	1.348145	97.370003	-307.019989	74.269997	8.00	0.00	0.00
1.92	15.75	14.75	12.00	12.00	12.00	13.75	2.75	9.00	1.75	2.50	1.25	1.50	6.50	1.00	0.25	0.50	-0.125488	0.096680	0.961426	-11.830000	7.490000	-0.140000	1281.00	-0.17	-0.10	0.00	0.00	0.00	0.00	0.00	0.00	0.50	0.00	0.00	0.00	0.00	0.00	0.00	0.00	0.00	0.00	-0.128418	0.292480	1.391602	109.830002	-312.200012	71.330002	8.00	0.00	0.00
1.93	15.75	14.75	12.00	11.75	12.00	14.00	3.00	9.00	1.75	2.50	1.50	2.00	6.50	1.25	0.50	0.75	-0.130371	0.081055	0.964355	-10.710000	7.420000	0.000000	1301.00	-0.16	-0.10	0.00	0.00	0.00	0.00	0.00	0.00	0.50	0.00	0.00	0.00	0.00	0.00	0.00	0.00	0.00	0.00	-0.236328	0.224121	1.453613	120.820000	-314.440002	65.379997	8.00	0.00	0.00
1.94	15.25	14.25	12.00	11.75	12.00	14.00	3.00	9.00	2.00	2.50	1.50	1.75	6.50	1.75	0.75	0.50	-0.126465	0.089355	0.962402	-9.240000	7.070000	0.490000	1297.00	-0.16	-0.10	0.00	0.00	0.00	0.00	0.00	0.00	0.50	0.00	0.00	0.00	0.00	0.00	0.00	0.00	0.00	0.00	-0.351562	0.174316	1.527832	131.250000	-315.350006	56.980000	8.00	0.00	0.00
1.95	15.25	14.25	11.75	11.75	12.00	14.00	3.00	9.00	1.75	2.50	1.50	2.00	6.75	1.00	0.50	0.50	-0.142578	0.085938	0.968750	-7.560000	6.720000	0.910000	1285.00	-0.16	-0.11	0.00	0.00	0.00	0.00	0.00	0.00	0.50	0.00	0.00	0.00	0.00	0.00	0.00	0.00	0.00	0.00	-0.457031	0.144531	1.591797	141.750000	-314.230011	46.689999	8.00	0.00	0.00
1.96	15.25	13.75	11.75	11.75	12.25	14.00	3.00	9.25	2.00	2.50	1.75	1.75	6.75	1.25	0.50	0.50	-0.136719	0.084473	0.976074	-5.880000	6.440000	1.330000	1293.00	-0.16	-0.10	0.00	0.00	0.00	0.00	0.00	0.00	0.50	0.00	0.00	0.00	0.00	0.00	0.00	0.00	0.00	0.00	-0.672363	0.182129	1.682617	159.809998	-304.290009	25.059999	8.00	0.00	0.00
1.97	15.00	14.00	12.00	11.75	12.25	13.75	3.00	9.25	2.00	2.50	1.50	2.00	7.25	1.25	0.50	0.50	-0.122070	0.079102	0.960938	-4.410000	6.160000	1.820000	1298.00	-0.16	-0.11	0.00	0.00	0.00	0.00	0.00	0.00	0.50	0.00	0.00	0.00	0.00	0.00	0.00	0.00	0.00	0.00	-0.852051	0.255371	1.676758	164.009995	-294.070007	21.700001	8.00	0.00	0.00
1.98	14.50	14.25	11.75	11.75	12.25	14.00	3.00	9.25	2.00	2.75	1.75	2.00	7.25	1.25	0.50	0.75	-0.128418	0.091797	0.968262	-3.290000	5.530000	1.750000	1302.00	-0.15	-0.11	0.00	0.00	0.00	0.00	0.00	0.00	0.50	0.00	0.00	0.00	0.00	0.00	0.00	0.25	0.00	0.00	-1.020508	0.367676	1.767578	165.339996	-279.299988	27.930000	11.00	0.00	0.00
1.99	14.50	14.00	11.75	11.75	12.50	14.00	3.25	9.25	1.00	3.25	1.50	2.25	7.50	1.25	0.50	0.75	-0.125488	0.089844	0.952148	-3.500000	5.180000	1.540000	1300.00	-0.16	-0.11	0.00	0.00	0.00	0.00	0.00	0.00	0.50	0.00	0.00	0.00	0.00	0.00	0.00	0.00	0.00	0.00	-1.127930	0.544922	1.966797	165.479996	-265.579987	43.470001	8.00	0.00	0.00
2.00	15.25	13.75	11.75	11.75	12.50	14.00	3.25	9.25	2.00	3.00	1.75	2.50	7.75	1.00	0.50	0.75	-0.126465	0.092773	0.951660	-3.990000	4.830000	1.190000	1323.00	-0.15	-0.11	0.00	0.00	0.00	0.00	0.00	0.00	0.50	0.00	0.00	0.00	0.00	0.00	0.00	0.00	0.00	0.00	-1.207031	0.691895	2.134277	167.580002	-254.589996	65.800003	8.00	0.00	0.00
2.01	14.75	13.75	11.75	11.75	12.50	14.25	3.25	9.50	2.00	3.00	1.50	2.50	7.75	1.25	0.50	0.75	-0.128418	0.096191	0.955078	-4.620000	4.550000	0.980000	1324.00	-0.15	-0.11	0.00	0.00	0.00	0.00	0.00	0.00	0.50	0.00	0.00	0.00	0.00	0.00	0.00	0.00	0.00	0.00	-1.451660	0.691895	2.258301	175.070007	-243.529999	88.550003	8.00	0.00	0.00
2.02	14.75	13.75	11.75	11.75	12.75	14.00	3.25	9.75	2.00	2.75	1.50	2.50	8.00	1.25	0.50	1.00	-0.120605	0.087891	0.956543	-5.180000	4.760000	0.910000	1330.00	-0.15	-0.11	0.00	0.00	0.00	0.00	0.00	0.00	0.50	0.00	0.00	0.00	0.00	0.00	0.00	0.00	0.00	0.00	-1.819824	0.664062	2.299316	179.059998	-230.649994	108.919998	8.00	0.00	0.00
2.03	15.00	13.50	11.75	11.75	13.00	14.00	3.50	9.75	2.00	3.25	2.00	2.75	8.25	1.50	0.75	0.75	-0.126953	0.088867	0.964844	-5.460000	5.320000	0.980000	1357.00	-0.14	-0.11	0.00	0.00	0.00	0.00	0.00	0.00	0.50	0.00	0.00	0.00	0.00	0.00	0.00	0.00	0.00	0.00	-2.102051	0.587402	2.147461	177.520004	-218.259995	133.210007	8.00	0.00	0.00
2.04	14.50	13.50	11.75	11.50	13.00	14.25	3.50	9.75	2.25	3.50	2.25	2.75	8.25	1.50	0.50	0.75	-0.127930	0.086426	0.957031	-5.390000	5.670000	1.050000	1358.00	-0.14	-0.11	0.00	0.00	0.00	0.00	0.00	0.00	0.50	0.00	0.00	0.00	0.00	0.00	0.00	0.00	0.00	0.00	-2.331055	0.280273	1.836426	180.250000	-207.410004	163.869995	8.00	0.00	0.00
2.05	14.25	13.00	11.75	11.75	13.25	14.00	3.50	9.75	2.25	3.50	2.00	2.75	8.50	1.50	0.50	1.00	-0.125488	0.083008	0.966309	-4.760000	5.810000	1.330000	1354.00	-0.14	-0.11	0.00	0.00	0.00	0.00	0.00	0.00	0.50	0.00	0.00	0.00	0.00	0.00	0.00	0.00	0.00	0.00	-2.513184	-0.210449	1.600586	193.619995	-190.119995	196.350006	8.00	0.00	0.00
2.06	14.00	13.00	11.75	11.50	13.00	14.25	3.75	10.00	2.25	3.50	2.25	3.50	8.75	1.50	0.75	1.00	-0.135742	0.082031	0.962891	-3.780000	6.370000	1.540000	1373.00	-0.13	-0.11	0.00	0.00	0.00	0.00	0.00	0.00	0.50	0.00	0.00	0.00	0.00	0.00	0.00	0.00	0.00	0.00	-2.758301	-0.675781	1.377930	199.779999	-168.630005	227.360001	8.00	0.00	0.00
2.07	13.75	12.75	11.50	11.50	13.00	14.25	3.75	10.00	2.75	3.50	2.25	3.50	9.00	1.50	0.50	1.25	-0.133301	0.085938	0.959473	-2.940000	7.210000	1.680000	1373.00	-0.13	-0.11	0.00	0.00	0.00	0.00	0.00	0.00	0.50	0.00	0.00	0.00	0.00	0.00	0.00	0.00	0.00	0.00	-3.020996	-1.034668	1.180176	186.059998	-145.180008	252.559998	8.00	0.00	0.00
2.08	13.75	12.50	11.50	11.25	13.25	14.00	4.00	10.25	2.50	3.75	2.75	3.50	9.50	1.50	0.75	1.25	-0.140625	0.077637	0.967773	-2.240000	7.630000	1.820000	1388.00	-0.12	-0.11	0.00	0.00	0.00	0.00	0.00	0.00	0.50	0.00	0.00	0.00	0.00	0.00	0.00	0.00	0.00	0.00	-3.221680	-1.375488	0.507812	83.300003	-101.010002	247.380005	8.00	0.00	0.00
2.09	13.00	12.50	11.25	11.50	13.25	14.25	4.00	10.25	2.75	4.00	2.75	3.75	9.75	1.75	0.75	1.25	-0.128906	0.090820	0.963867	-2.030000	8.050000	1.820000	1397.00	-0.12	-0.11	0.00	0.00	0.00	0.00	0.00	0.00	0.50	0.00	0.00	0.00	0.00	0.00	0.00	0.00	0.00	0.00	-3.191406	-1.386719	0.239258	32.759998	-79.239998	205.660004	8.00	0.00	0.00
2.10	13.00	12.25	11.25	11.25	13.25	14.25	4.00	10.50	2.75	4.00	3.00	4.25	10.00	1.75	0.75	1.25	-0.123047	0.085938	0.956543	-2.380000	8.750000	1.540000	1407.00	-0.11	-0.11	0.00	0.00	0.00	0.00	0.00	0.00	0.50	0.00	0.00	0.00	0.00	0.00	0.00	0.00	0.00	0.00	-3.096191	-1.215332	0.055664	1.470000	-55.860001	139.369995	8.00	0.00	0.00
2.11	12.50	11.75	11.25	11.00	13.00	14.25	4.25	10.50	2.75	4.50	3.50	4.75	10.25	1.75	0.75	1.50	-0.125000	0.082520	0.955078	-2.310000	8.890000	1.050000	1415.00	-0.11	-0.11	0.00	0.00	0.00	0.00	0.00	0.00	0.50	0.00	0.00	0.00	0.00	0.00	0.00	0.00	0.00	0.00	-2.958984	-0.974609	0.005859	-5.600000	-29.820000	60.410000	8.00	0.00	0.00
2.12	12.00	11.75	10.75	11.00	13.00	14.25	4.25	10.75	3.00	4.75	3.75	5.50	10.75	2.25	1.00	1.75	-0.131348	0.087891	0.947754	-2.520000	9.100000	0.630000	1439.00	-0.10	-0.12	0.00	0.00	0.00	0.00	0.00	0.00	0.50	0.00	0.00	0.00	0.00	0.00	0.00	0.00	0.00	0.00	-2.720703	-0.717773	0.046387	2.730000	-2.240000	-12.180000	8.00	0.00	0.00
2.13	11.50	11.25	10.75	10.75	13.00	14.25	4.50	10.75	3.25	5.50	4.25	6.25	11.00	1.75	1.00	2.00	-0.122070	0.089355	0.956543	-2.450000	11.060000	0.140000	1455.00	-0.09	-0.12	0.00	0.00	0.00	0.00	0.00	0.00	0.50	0.00	0.00	0.00	0.00	0.00	0.00	0.00	0.00	0.00	-2.416992	-0.477539	0.172363	12.530000	22.540001	-63.349998	8.00	0.00	0.00
2.14	11.25	10.75	10.50	10.50	13.00	14.00	4.50	10.75	3.50	5.75	5.00	6.75	11.50	2.25	1.00	2.25	-0.126465	0.089355	0.960938	-1.750000	12.810000	-0.140000	1470.00	-0.08	-0.12	0.00	0.00	0.00	0.00	0.00	0.00	0.50	0.00	0.00	0.00	0.00	0.00	0.00	0.00	0.00	0.00	-2.089844	-0.351074	0.338867	14.700000	43.750000	-90.090004	8.00	0.00	0.00
2.15	10.25	10.50	10.25	10.25	12.75	14.00	4.75	11.00	4.00	6.50	5.50	7.50	12.00	2.25	1.50	2.75	-0.136719	0.078125	0.967773	-1.190000	15.400000	-0.140000	1499.00	-0.06	-0.12	0.25	0.00	0.00	0.00	0.00	0.00	0.50	0.00	0.00	0.00	0.00	0.00	0.00	0.00	0.00	0.00	-1.628906	-0.360352	1.724609	-171.639999	130.199997	-41.720001	11.00	0.00	0.00
2.16	9.50	10.00	10.00	10.00	12.50	13.75	5.00	11.25	4.25	7.25	6.50	8.00	12.50	2.50	1.50	3.00	-0.135254	0.087891	0.961426	-0.280000	17.570000	-0.210000	1519.00	-0.05	-0.12	1.50	0.75	0.50	0.25	0.00	0.00	0.50	0.00	0.00	0.00	0.00	0.00	0.00	0.00	0.00	0.00	0.354980	0.406738	0.401855	-248.149994	151.619995	-36.540001	42.00	0.00	0.00
2.17	9.25	9.25	9.50	9.75	12.25	13.75	5.00	11.25	5.00	7.75	7.50	8.50	13.25	2.75	1.50	4.00	-0.135254	0.079102	0.965820	0.560000	20.090000	-0.070000	1546.00	-0.04	-0.12	3.00	2.50	1.50	1.50	0.00	0.00	0.25	0.00	0.00	0.00	0.00	0.00	0.00	0.00	0.00	0.00	0.574219	0.642090	1.324707	-192.149994	137.479996	-26.040001	100.00	-0.34	-0.02
2.18	8.00	8.75	9.00	9.50	11.75	13.25	5.00	11.25	5.00	8.25	8.00	9.00	13.75	3.00	1.75	4.50	-0.137207	0.094238	0.962402	1.820000	23.100000	-0.140000	1536.00	-0.02	-0.12	5.50	6.75	2.75	3.75	0.00	0.00	0.25	0.00	0.00	0.00	0.00	0.25	0.00	0.00	0.00	0.00	0.357422	-0.631836	0.846680	-154.839996	129.779999	-6.790000	216.00	-0.34	-0.05
2.19	7.25	8.25	8.75	9.25	11.50	13.25	5.00	11.25	5.25	8.50	8.25	9.50	14.25	3.75	2.25	5.50	-0.134766	0.093262	0.982422	2.170000	25.969999	-0.700000	1551.00	-0.01	-0.12	10.00	10.75	5.00	7.25	0.25	0.50	0.25	0.00	0.00	0.00	0.00	0.25	0.00	0.00	0.00	0.00	-0.270508	-1.210938	1.790527	-146.300003	213.850006	-23.730000	385.00	-0.34	-0.05
2.20	6.75	7.75	8.25	8.50	10.75	12.75	5.00	11.25	5.75	9.00	8.75	10.00	14.75	4.25	2.75	6.25	-0.158203	0.112793	0.973633	2.940000	28.910000	-1.190000	1555.00	0.00	-0.12	14.50	13.75	7.75	9.25	0.75	2.00	0.25	0.25	0.00	0.00	0.00	0.50	0.00	0.00	0.00	0.00	-1.557617	1.065430	4.937500	-38.009998	282.589996	-70.000000	555.00	-0.33	-0.05
2.21	6.25	7.00	7.75	8.25	10.00	12.25	5.00	11.25	6.50	9.25	9.25	10.50	15.50	5.00	3.00	7.25	-0.168945	0.067871	0.982422	3.710000	31.500000	-2.100000	1565.00	0.02	-0.12	16.25	15.25	9.00	10.50	1.75	3.75	0.50	0.50	0.00	0.00	0.00	0.50	0.00	0.00	0.00	0.00	-0.816895	0.674316	2.437012	-31.639999	139.089996	-44.660000	661.00	-0.32	-0.06
2.22	5.50	6.50	7.25	7.75	9.50	11.75	4.75	11.25	6.75	9.75	9.75	11.00	15.75	5.50	3.50	7.75	-0.164551	0.078125	0.985352	4.830000	33.740002	-2.240000	1560.00	0.03	-0.13	16.00	15.50	9.50	10.75	1.50	4.75	0.50	1.00	0.00	0.00	0.00	0.25	0.25	0.00	0.00	0.00	-0.378906	0.508789	1.099121	-47.040001	66.080002	-5.460000	687.00	-0.31	-0.07
2.23	5.50	6.00	6.50	7.50	8.50	11.25	4.50	11.00	7.75	10.25	10.25	11.50	16.25	6.25	5.00	8.50	-0.153320	0.090332	1.003418	5.880000	36.259998	-2.310000	1581.00	0.05	-0.12	15.50	14.75	9.25	10.50	1.50	5.00	0.75	1.25	0.00	0.00	0.00	0.50	0.25	0.25	0.00	0.00	0.008301	0.024902	1.276855	-46.060001	67.480003	10.500000	684.00	-0.30	-0.07
2.24	5.00	6.00	6.25	6.50	7.25	10.50	4.25	10.75	8.00	10.50	10.75	12.00	16.50	7.25	5.50	9.25	-0.172363	0.104980	0.986328	7.420000	40.110001	-2.940000	1568.00	0.06	-0.12	13.25	13.25	8.75	9.75	1.50	5.25	0.75	1.50	0.00	0.00	0.00	0.50	0.50	0.25	0.00	0.00	-0.032227	-0.002930	1.053711	-32.830002	52.779999	-0.630000	638.00	-0.29	-0.08
2.25	2.75	4.25	5.25	5.75	6.25	9.75	3.50	10.50	7.75	10.50	10.25	11.50	16.50	8.00	6.25	9.75	-0.177246	0.114258	1.059082	9.100000	44.660000	-4.130000	1470.00	0.09	-0.13	11.50	12.50	8.75	9.75	1.75	5.50	0.75	2.00	0.00	0.00	0.00	0.25	1.25	0.25	0.00	0.00	-0.219238	0.432617	0.896973	-25.059999	43.119999	-5.530000	629.00	-0.28	-0.09
2.26	4.25	5.25	5.25	5.50	5.00	8.75	3.00	10.00	8.50	11.50	11.25	12.75	16.25	8.00	6.25	10.25	-0.231934	0.121094	1.007324	11.340000	52.220001	-4.620000	1499.00	0.09	-0.13	11.25	12.00	8.75	10.25	1.75	6.50	0.75	2.75	0.00	0.00	0.00	0.50	1.50	0.50	0.00	0.00	-0.243652	0.388184	0.907715	-30.309999	38.639999	4.200000	659.00	-0.26	-0.10
2.27	1.25	3.00	4.75	3.00	3.00	7.25	2.00	9.00	8.25	10.75	11.00	12.25	15.75	9.00	6.25	11.00	-0.155273	0.123047	1.009766	15.120000	63.420002	-6.370000	1320.00	0.13	-0.13	11.50	12.50	9.00	10.75	2.00	7.00	1.00	3.50	0.00	0.25	0.25	0.50	1.75	0.50	0.00	0.00	-0.186035	0.223145	1.009766	-43.680000	31.990000	5.530000	709.00	-0.25	-0.11
2.28	1.75	2.75	3.75	3.00	2.25	6.50	1.75	8.25	8.00	11.00	11.25	12.50	15.75	9.75	6.75	11.75	-0.231934	0.193359	1.030273	33.320000	93.449997	-8.890000	1298.00	0.14	-0.13	11.75	13.25	9.25	11.00	2.50	7.75	1.00	4.00	0.00	0.50	0.50	1.00	2.25	0.50	0.00	0.00	-0.187988	0.339355	0.967285	-51.380001	17.639999	0.770000	765.00	-0.24	-0.11
2.29	1.50	2.50	3.00	2.00	1.50	5.50	1.25	7.50	8.00	11.00	11.25	12.50	15.50	10.75	7.25	12.25	-0.219727	0.130371	1.205078	46.549999	114.800003	-8.680000	1246.00	0.16	-0.13	13.50	14.00	10.00	11.75	3.00	8.00	1.00	4.50	0.00	0.50	0.25	0.75	2.25	1.00	0.00	0.00	-0.129883	0.273926	0.914551	-62.790001	14.210000	-1.050000	827.00	-0.24	-0.11
2.30	1.50	2.50	2.75	1.50	1.25	5.25	1.00	6.25	8.25	11.75	11.50	12.50	15.75	13.25	8.50	13.00	-0.307129	0.161133	1.091309	59.500000	151.339996	-9.940000	1265.00	0.18	-0.12	14.00	14.75	10.75	12.25	3.50	8.25	1.00	5.00	0.00	0.50	0.25	0.75	2.25	0.50	0.25	0.00	-0.127441	0.171387	1.036133	-68.529999	13.790000	-2.520000	871.00	-0.24	-0.11
2.31	0.00	2.00	3.50	1.50	1.75	5.50	1.00	5.75	8.75	11.25	11.25	12.25	14.75	12.50	7.75	13.25	-0.208496	0.197266	1.162109	73.500000	189.979996	-10.780000	1225.00	0.18	-0.12	15.00	15.25	11.00	12.25	4.50	8.75	1.00	5.25	0.00	0.50	0.50	0.50	2.75	0.75	0.25	0.00	-0.132812	0.172852	1.007324	-59.220001	9.870000	-3.640000	919.00	-0.24	-0.10
2.32	1.00	2.75	3.50	2.25	1.00	2.75	0.50	2.75	7.75	10.50	11.25	13.00	13.75	13.00	8.00	13.50	-0.320312	0.166016	1.116699	71.610001	223.369995	-10.570000	1139.00	0.19	-0.11	15.25	15.00	11.25	12.75	5.00	8.75	1.00	5.50	0.00	0.50	0.50	0.50	3.00	0.75	0.25	0.00	-0.121094	0.152344	0.996094	-43.750000	10.290000	-2.170000	941.00	-0.24	-0.11
2.33	0.50	3.50	2.75	0.75	0.50	3.00	0.75	2.25	7.50	10.25	11.25	12.50	13.50	15.00	8.75	13.75	-0.385742	0.154297	1.119141	69.300003	244.790009	-12.600000	1120.00	0.21	-0.10	15.75	15.00	11.25	13.00	5.50	9.00	1.00	6.00	0.25	0.75	0.75	1.00	3.50	0.75	0.25	0.00	-0.129883	0.145508	0.988281	-33.740002	8.050000	-0.980000	987.00	-0.23	-0.11
2.34	1.25	2.00	2.00	0.25	0.50	2.50	0.75	1.50	7.00	10.00	11.00	11.50	13.00	16.25	9.75	13.75	-0.356445	0.245117	1.296387	68.739998	264.459991	-14.560000	1074.00	0.22	-0.09	15.50	14.75	11.25	12.50	6.00	9.50	1.25	6.25	0.25	0.75	0.75	0.50	3.50	0.75	0.25	0.00	-0.109375	0.170410	0.951660	-25.480000	6.510000	0.070000	990.00	-0.22	-0.11
2.35	0.75	1.75	2.25	0.00	1.25	1.75	0.50	1.25	6.00	9.25	11.00	11.25	11.75	14.75	9.00	13.75	-0.370605	0.205566	1.286133	56.840000	274.540009	-18.129999	998.00	0.23	-0.09	15.50	14.50	11.25	12.50	6.25	9.50	1.25	6.75	0.25	1.00	0.75	1.25	4.25	0.75	0.50	0.00	-0.123047	0.179688	0.961914	-22.120001	6.650000	0.770000	1020.00	-0.21	-0.11
2.36	0.75	1.75	2.25	0.25	0.50	2.00	0.50	1.00	5.25	8.75	10.75	10.75	10.50	15.00	8.75	13.25	-0.505371	0.352051	1.300781	52.639999	293.089996	-24.150000	950.00	0.23	-0.09	14.75	14.25	11.50	12.25	6.50	9.75	1.25	7.00	0.25	1.00	0.75	1.25	5.00	1.00	0.25	0.00	-0.128418	0.186035	0.955566	-20.790001	7.140000	0.560000	1026.00	-0.21	-0.11
2.37	0.75	2.25	2.00	0.25	0.00	1.25	0.50	0.75	4.00	8.25	10.50	10.25	9.75	14.75	8.50	12.25	-0.490723	0.309570	1.366211	50.330002	321.860016	-33.950001	883.00	0.23	-0.10	14.00	13.50	11.25	12.25	6.75	9.75	1.25	7.25	0.50	1.25	0.75	1.25	5.50	1.00	0.50	0.00	-0.135254	0.174316	0.955566	-20.719999	7.420000	0.840000	1028.00	-0.20	-0.12
2.38	0.75	1.50	1.50	0.25	0.25	1.25	0.50	0.25	1.75	7.50	10.00	9.75	8.50	14.25	8.25	11.00	-0.521973	0.391602	1.656738	44.660000	348.040009	-42.980000	785.00	0.24	-0.10	13.75	13.50	11.25	12.25	7.00	10.00	1.25	7.50	0.50	1.50	0.75	1.50	6.00	1.50	0.75	0.00	-0.129883	0.177246	0.963867	-20.860001	7.210000	0.560000	1053.00	-0.19	-0.12
2.39	0.75	0.75	1.75	0.00	0.00	0.75	0.50	0.00	0.75	7.25	9.75	9.25	7.50	13.75	7.50	9.25	-0.576172	0.448730	1.208984	39.060001	373.589996	-53.619999	705.00	0.25	-0.10	13.50	13.00	13.25	14.00	7.25	10.25	1.25	7.50	0.50	1.25	1.00	2.00	6.50	1.50	2.00	1.00	-0.149902	0.181152	0.974609	-21.070000	6.090000	-0.000000	1128.00	-0.17	-0.12
2.40	0.00	0.50	1.50	0.00	0.00	0.50	0.50	0.00	0.00	6.00	9.00	8.50	6.00	12.50	6.75	7.75	-0.766602	0.397461	1.460938	34.160000	406.070007	-66.639999	603.00	0.26	-0.10	12.50	12.75	11.25	12.50	7.75	10.25	1.25	7.75	2.00	2.00	2.00	2.50	6.75	1.50	0.50	0.00	-0.134766	0.154297	0.964355	-19.740000	4.270000	-0.280000	1108.00	-0.16	-0.12
2.41	0.00	1.00	1.25	0.25	0.00	1.00	0.50	0.00	0.00	5.00	8.50	8.00	4.25	10.75	5.75	5.50	-0.961914	0.691406	1.835938	18.549999	428.470001	-75.949997	533.00	0.25	-0.10	17.25	16.50	12.00	14.75	9.00	12.50	1.50	8.50	2.00	2.75	2.25	3.00	8.50	2.50	2.25	1.25	-0.132812	0.150391	0.971191	-17.430000	3.290000	-0.210000	1364.00	-0.15	-0.12
2.42	0.00	0.75	1.00	0.00	0.00	0.50	0.50	0.00	0.00	3.75	7.50	7.25	1.75	9.50	4.00	3.50	-1.028809	0.497559	1.982910	36.610001	424.829987	-78.540001	418.00	0.25	-0.08	16.75	16.25	13.50	14.50	9.25	13.00	1.50	8.75	2.00	3.00	2.50	3.25	9.00	2.75	2.25	1.50	-0.132324	0.159180	0.974609	-15.400000	3.430000	-0.560000	1402.00	-0.15	-0.12
2.43	0.25	0.50	1.00	0.00	0.00	0.75	0.50	0.00	0.00	2.50	6.25	5.50	0.75	8.00	2.25	1.75	-0.590820	0.411133	1.905273	47.740002	423.290009	-82.949997	318.00	0.24	-0.06	16.50	15.75	13.50	14.75	9.50	12.75	1.75	8.75	2.25	3.00	2.50	3.00	9.50	2.75	2.25	1.25	-0.130371	0.154297	0.969238	-13.300000	3.920000	-1.120000	1405.00	-0.15	-0.11
2.44	0.00	0.00	1.00	0.00	0.00	0.25	0.25	0.00	0.00	2.75	4.00	3.50	0.00	6.00	0.75	0.50	-0.694824	0.199707	2.158691	49.700001	398.440002	-91.699997	204.00	0.25	-0.03	16.00	15.25	13.25	14.75	9.75	12.75	1.50	9.00	2.25	3.00	2.50	3.75	9.75	3.00	2.25	1.75	-0.133301	0.161133	0.965820	-10.080000	4.200000	-2.100000	1410.00	-0.14	-0.12
2.45	0.00	0.00	0.00	0.00	0.00	0.00	0.50	0.00	0.00	1.25	2.50	2.00	0.00	3.75	0.00	0.50	-0.465332	0.409668	2.261719	44.450001	375.130005	-93.660004	112.00	0.27	-0.02	15.25	15.00	13.25	14.50	9.75	13.00	1.75	9.00	2.00	3.00	2.75	4.00	10.00	3.00	2.25	1.75	-0.138184	0.155273	0.962891	-9.100000	4.270000	-2.380000	1408.00	-0.13	-0.12
2.46	0.00	0.00	0.00	0.00	0.00	0.50	0.50	0.00	0.00	1.50	1.50	0.75	0.00	2.00	0.00	0.50	-0.451660	0.537109	1.207520	56.420002	360.290009	-95.760002	79.00	0.23	-0.01	15.00	14.25	13.00	14.25	10.00	13.00	1.75	9.00	2.50	3.25	3.00	4.00	10.25	3.00	2.50	2.00	-0.134277	0.152344	0.966797	-8.260000	4.340000	-2.170000	1414.00	-0.13	-0.12
2.47	0.00	0.00	0.00	0.00	0.00	0.00	0.50	0.00	0.00	1.00	1.00	0.75	0.00	0.00	0.00	0.00	-0.024414	0.593750	0.837402	84.699997	365.049988	-101.080002	40.00	0.00	0.00	14.50	13.75	12.75	14.00	10.00	12.75	2.00	9.25	2.50	3.50	3.00	4.50	10.50	2.75	2.50	1.75	-0.132812	0.153809	0.951660	-7.840000	4.620000	-1.680000	1410.00	-0.12	-0.12
2.48	0.00	0.00	0.00	0.00	0.00	0.00	0.50	0.00	0.00	0.25	0.00	0.00	0.00	0.00	0.00	0.00	-0.044922	0.612793	1.464844	113.610001	314.230011	-109.970001	11.00	0.00	0.00	14.25	13.25	12.50	14.00	10.25	12.75	2.00	9.25	2.75	3.50	3.00	4.75	10.75	3.00	3.00	2.00	-0.136719	0.151855	0.957520	-7.910000	5.180000	-1.330000	1420.00	-0.11	-0.12
2.49	0.00	0.00	0.00	0.00	0.00	0.00	0.50	0.00	0.00	0.25	0.00	0.00	0.00	0.00	0.00	0.00	1.341797	-0.332031	2.038574	124.320000	245.699997	-131.039993	11.00	0.00	0.00	13.75	12.50	12.25	13.75	10.25	13.00	2.00	9.25	2.50	3.75	3.25	5.00	10.75	3.25	2.75	2.25	-0.138672	0.150879	0.966309	-8.120000	5.530000	-1.330000	1410.00	-0.11	-0.12
2.50	0.00	0.00	0.25	0.00	0.00	0.00	0.50	0.00	0.00	0.00	0.00	0.00	0.00	0.00	0.00	0.00	0.471680	1.091797	4.036133	90.090004	114.449997	-154.559998	11.00	0.00	0.00	13.25	12.25	12.25	13.25	10.25	12.75	2.00	9.50	2.75	4.00	3.50	5.50	11.00	3.25	2.75	2.50	-0.128906	0.150879	0.957520	-7.840000	5.670000	-0.980000	1416.00	-0.10	-0.12
2.51	0.00	0.00	0.25	0.00	0.00	0.00	0.50	0.00	0.00	0.25	0.00	0.00	0.00	0.00	0.00	0.00	1.367188	-0.111328	2.992188	-0.770000	-54.810001	-132.649994	14.00	0.00	0.00	12.75	11.50	12.00	13.00	10.50	12.75	2.00	9.50	3.00	4.00	3.75	6.00	11.50	3.50	3.00	2.50	-0.138672	0.145508	0.965820	-7.770000	5.740000	-0.910000	1422.00	-0.09	-0.12
2.52	0.00	0.00	0.25	0.00	0.00	0.00	0.75	0.00	0.00	0.00	0.00	0.00	0.00	0.00	0.00	0.00	1.158203	0.461426	1.740234	-40.740002	-172.619995	-119.840004	15.00	0.00	0.00	11.50	11.00	11.75	13.00	10.50	12.75	2.25	9.50	3.00	4.25	3.75	6.75	11.50	3.50	3.25	2.50	-0.132324	0.145020	0.973145	-7.000000	6.090000	-0.980000	1418.00	-0.08	-0.13
2.53	0.00	0.00	0.25	0.00	0.00	0.00	0.75	0.00	0.00	0.00	0.00	0.00	0.00	0.00	0.00	0.00	0.749023	0.679688	1.180664	-47.880001	-225.119995	-117.599998	15.00	0.00	0.00	11.00	10.25	11.75	12.75	10.50	12.75	2.00	9.50	3.00	4.50	4.25	7.50	11.75	3.50	3.25	3.00	-0.128418	0.151367	0.962891	-6.300000	6.090000	-0.980000	1420.00	-0.08	-0.13
2.54	0.00	0.00	0.25	0.00	0.00	0.00	0.75	0.00	0.00	0.00	0.00	0.00	0.00	0.00	0.00	0.00	0.697266	0.724609	0.881348	-14.770000	-240.449997	-117.879997	15.00	0.00	0.00	10.75	9.75	11.50	12.50	10.50	12.50	2.25	9.50	3.00	4.75	4.25	7.50	12.00	3.75	3.50	3.00	-0.126465	0.147949	0.954590	-5.950000	6.650000	-0.980000	1418.00	-0.07	-0.13
2.55	0.00	0.00	0.00	0.00	0.00	0.00	0.75	0.00	0.00	0.25	0.00	0.00	0.00	0.00	0.00	0.00	0.652344	0.745605	0.728516	25.410000	-245.630005	-117.250000	15.00	0.00	0.00	9.75	9.25	11.00	12.25	10.25	12.25	2.25	9.50	3.25	4.75	5.50	8.00	12.25	4.00	3.75	3.25	-0.129395	0.155273	0.955078	-6.160000	7.210000	-1.120000	1419.00	-0.06	-0.13
2.56	0.00	0.00	0.25	0.00	0.00	0.00	0.75	0.00	0.00	0.25	0.00	0.00	0.00	0.00	0.00	0.00	0.547852	0.678711	0.782715	53.410000	-251.020004	-110.529999	18.00	0.00	0.00	9.50	8.75	10.75	11.75	10.50	12.25	2.25	9.50	3.25	5.25	5.75	8.00	12.50	4.00	3.75	3.50	-0.134766	0.149902	0.959961	-6.860000	8.190000	-2.100000	1418.00	-0.05	-0.13
2.57	0.00	0.00	0.00	0.00	0.00	0.00	0.75	0.00	0.00	0.00	0.00	0.00	0.00	0.00	0.00	0.00	0.342285	0.668945	0.966797	55.299999	-269.989990	-73.849998	12.00	0.00	0.00	9.25	8.25	10.25	11.50	10.25	12.00	2.25	9.50	3.25	5.75	6.00	8.25	12.75	4.25	3.75	3.75	-0.134766	0.141113	0.968262	-6.370000	8.400000	-2.310000	1412.00	-0.04	-0.13
2.58	0.00	0.00	0.25	0.00	0.00	0.00	0.75	0.00	0.00	0.00	0.00	0.00	0.00	0.00	0.00	0.00	0.276855	0.714844	1.055176	38.220001	-283.290009	-45.920002	15.00	0.00	0.00	8.50	8.00	10.00	11.00	10.00	11.75	2.25	9.50	3.50	6.00	6.00	8.50	12.75	4.50	4.00	4.00	-0.136230	0.140625	0.960938	-5.530000	8.890000	-2.310000	1402.00	-0.03	-0.13
2.59	0.00	0.00	0.25	0.00	0.00	0.25	0.75	0.00	0.00	0.00	0.00	0.00	0.00	0.00	0.00	0.00	0.207520	0.782715	1.061523	23.450001	-296.799988	-15.750000	18.00	0.00	0.00	7.50	7.25	9.50	10.50	10.00	12.00	2.25	9.50	3.75	6.50	7.50	8.75	13.00	5.00	4.00	4.25	-0.137207	0.138672	0.962402	-4.550000	9.100000	-2.240000	1412.00	-0.02	-0.13
2.60	0.00	0.00	0.50	0.00	0.00	0.00	0.75	0.00	0.00	0.00	0.00	0.00	0.00	0.00	0.00	0.00	0.122070	0.813477	1.072266	16.450001	-307.790009	13.860000	18.00	0.00	0.00	7.25	6.75	9.25	10.25	9.75	11.75	2.25	9.50	3.75	6.75	7.75	9.00	13.25	4.75	4.50	4.50	-0.142090	0.144043	0.954590	-3.500000	9.730000	-2.030000	1408.00	-0.01	-0.13
2.61	0.00	0.00	0.25	0.00	0.00	0.00	0.75	0.00	0.00	0.00	0.00	0.00	0.00	0.00	0.00	0.00	0.035645	0.820312	1.051758	18.480000	-316.049988	40.740002	15.00	0.00	0.00	6.50	5.00	7.75	9.75	9.75	11.50	2.25	9.75	4.00	7.50	8.00	9.25	13.50	5.00	4.75	4.50	-0.134277	0.143555	0.967285	-2.730000	10.220000	-2.030000	1384.00	0.00	-0.14
2.62	0.00	0.00	0.00	0.00	0.00	0.00	0.75	0.00	0.00	0.00	0.00	0.00	0.00	0.00	0.00	0.00	-0.059082	0.788574	1.050293	27.650000	-320.809998	63.209999	12.00	0.00	0.00	6.50	6.25	8.75	9.50	9.50	11.50	2.50	9.50	3.75	7.75	8.25	9.50	13.75	5.00	5.00	5.00	-0.140625	0.146484	0.963867	-2.590000	10.710000	-2.450000	1416.00	0.00	-0.13
2.63	0.00	0.00	0.25	0.00	0.00	0.00	0.75	0.00	0.00	0.00	0.00	0.00	0.00	0.00	0.00	0.00	-0.157227	0.708984	1.070312	40.880001	-322.420013	80.849998	15.00	0.00	0.00	5.75	5.75	8.25	9.00	9.25	11.25	2.25	9.00	3.75	8.00	8.50	9.75	14.00	5.25	5.00	5.25	-0.138672	0.145508	0.945312	-2.520000	11.130000	-2.870000	1387.00	0.01	-0.14
2.64	0.00	0.00	0.25	0.00	0.00	0.00	0.75	0.00	0.00	0.00	0.00	0.00	0.00	0.00	0.00	0.00	-0.239258	0.598145	1.127930	53.410000	-322.420013	93.379997	15.00	0.00	0.00	6.25	5.75	7.75	8.75	9.25	11.00	2.25	9.50	4.50	8.25	9.00	10.25	14.50	5.75	5.00	5.25	-0.137207	0.144043	0.940430	-2.800000	11.480000	-3.360000	1423.00	0.02	-0.13
2.65	0.00	0.00	0.50	0.00	0.00	0.00	0.75	0.00	0.00	0.00	0.00	0.00	0.00	0.00	0.00	0.00	-0.307617	0.514160	1.212402	64.750000	-321.160004	100.660004	18.00	0.00	0.00	6.00	5.25	7.25	7.75	8.50	10.50	2.25	9.25	4.25	8.50	9.00	10.25	14.75	6.00	5.50	6.00	-0.145996	0.143066	0.953125	-3.010000	11.690000	-3.780000	1392.00	0.03	-0.14
2.66	0.00	0.00	0.25	0.00	0.00	0.00	0.75	0.00	0.00	0.00	0.00	0.00	0.00	0.00	0.00	0.00	-0.374512	0.411621	1.313477	76.300003	-318.290009	102.340004	15.00	0.00	0.00	5.50	5.00	7.00	7.75	8.75	10.50	2.50	9.75	4.75	8.75	9.50	10.75	15.00	6.50	6.00	6.25	-0.146484	0.147949	0.956055	-3.080000	11.900000	-4.200000	1432.00	0.04	-0.13
2.67	0.00	0.00	0.50	0.00	0.00	0.00	0.75	0.00	0.00	0.00	0.00	0.00	0.00	0.00	0.00	0.00	-0.419434	0.332031	1.429199	86.029999	-315.140015	99.470001	18.00	0.00	0.00	5.25	4.50	6.00	6.00	8.50	10.00	2.25	9.50	5.00	9.00	9.75	11.00	14.75	6.25	5.75	6.50	-0.143066	0.147949	0.956543	-2.940000	12.320000	-4.760000	1380.00	0.05	-0.13
2.68	0.00	0.00	0.50	0.00	0.00	0.00	0.75	0.00	0.00	0.00	0.00	0.00	0.00	0.00	0.00	0.00	-0.487793	0.271484	1.561035	93.309998	-312.549988	94.150002	18.00	0.00	0.00	5.25	2.25	4.25	5.75	7.75	9.00	2.25	9.25	5.00	9.25	10.00	11.25	14.50	7.00	5.50	6.25	-0.148926	0.149414	0.966797	-2.240000	14.210000	-4.970000	1317.00	0.07	-0.13
2.69	0.00	0.00	0.75	0.00	0.00	0.25	0.75	0.00	0.00	0.00	0.00	0.00	0.00	0.00	0.00	0.00	-0.584961	0.235840	1.656738	97.790001	-310.380005	88.900002	24.00	0.00	0.00	5.00	3.75	5.50	6.50	8.00	10.00	2.25	9.25	4.00	8.75	9.50	10.75	14.50	6.75	5.50	6.75	-0.153809	0.151367	0.972656	-1.190000	15.680000	-5.810000	1337.00	0.05	-0.14
2.70	0.00	0.00	0.75	0.00	0.00	0.00	0.75	0.00	0.00	0.00	0.00	0.00	0.00	0.00	0.00	0.00	-0.697754	0.249023	1.695312	96.879997	-305.899994	85.540001	22.00	0.00	0.00	2.50	2.50	4.25	5.25	6.75	8.50	2.00	9.00	4.25	9.00	10.00	11.25	14.75	7.00	6.00	7.50	-0.162109	0.148438	0.959961	-0.210000	17.500000	-6.440000	1258.00	0.09	-0.15
2.71	0.00	0.00	0.25	0.00	0.00	0.00	0.75	0.00	0.00	0.00	0.00	0.00	0.00	0.00	0.00	0.00	-0.770020	0.313965	1.692383	90.930000	-296.309998	86.449997	15.00	0.00	0.00	2.50	2.25	3.75	4.75	6.00	8.00	2.00	8.75	4.75	9.25	10.00	11.50	15.00	7.50	6.50	7.50	-0.158203	0.145508	0.958496	-0.210000	19.530001	-6.510000	1250.00	0.10	-0.14
2.72	0.00	0.50	0.50	0.00	0.00	0.25	0.75	0.00	0.00	0.00	0.00	0.00	0.00	0.00	0.00	0.00	-0.819824	0.480957	2.225586	83.510002	-279.579987	106.050003	26.00	0.00	0.00	2.50	1.75	3.75	4.25	5.50	7.75	2.00	8.75	5.00	9.50	10.25	11.75	15.00	8.00	6.75	8.00	-0.160156	0.149414	0.970703	-0.980000	21.490000	-6.790000	1252.00	0.11	-0.14
2.73	0.00	0.00	0.75	0.00	0.00	0.25	0.75	0.00	0.00	0.00	0.00	0.00	0.00	0.00	0.00	0.00	-0.873535	0.573242	2.530273	72.940002	-284.829987	124.879997	24.00	0.00	0.00	2.00	1.75	2.75	3.50	5.00	7.25	1.75	8.50	5.00	9.75	10.50	11.75	15.50	8.25	7.00	8.25	-0.173828	0.146973	0.966309	-1.120000	23.170000	-6.930000	1222.00	0.12	-0.15
2.74	0.00	0.25	1.00	0.00	0.00	1.25	0.75	0.00	0.00	0.25	0.00	0.00	0.00	0.00	0.00	0.00	-0.997070	0.728027	2.836914	56.000000	-297.149994	147.979996	45.00	0.00	0.00	2.00	1.50	2.50	3.00	4.25	6.75	1.75	8.50	5.25	10.00	11.00	12.25	15.50	9.00	7.50	8.50	-0.181152	0.145508	0.948730	-0.420000	24.990000	-7.280000	1228.00	0.13	-0.14
2.75	0.00	0.25	0.75	0.00	0.00	0.50	0.75	0.00	0.00	0.00	0.00	0.00	0.00	0.00	0.00	0.00	-1.154297	0.943359	3.119141	40.250000	-314.160004	173.039993	30.00	0.00	0.00	1.50	1.00	2.50	2.50	3.50	6.00	1.50	8.25	5.50	10.25	11.25	12.50	15.75	9.50	7.75	8.75	-0.170898	0.135254	0.958008	1.190000	27.440001	-7.910000	1209.00	0.15	-0.14
2.76	0.00	0.50	1.00	0.00	0.00	0.25	0.75	0.00	0.00	0.00	0.00	0.00	0.00	0.00	0.00	0.00	-1.499023	1.161133	3.083984	28.630001	-337.399994	195.229996	33.00	0.00	0.00	1.50	1.25	1.75	2.25	2.75	5.50	1.50	8.00	6.00	10.25	11.25	12.75	16.00	10.25	8.00	9.00	-0.178223	0.159180	0.987793	1.820000	30.940001	-7.140000	1204.00	0.16	-0.14
2.77	0.00	0.75	2.00	0.00	0.25	0.25	0.75	0.00	0.00	0.00	0.00	0.00	0.00	0.00	0.00	0.00	-1.980469	0.885742	2.686523	52.920002	-359.170013	210.070007	50.00	-0.19	0.07	1.00	0.75	1.25	1.75	2.00	5.00	1.25	7.50	6.00	10.75	11.75	13.00	15.75	11.00	8.25	9.50	-0.182129	0.162598	0.984375	2.940000	36.189999	-7.560000	1178.00	0.18	-0.14
2.78	0.00	0.50	1.25	0.00	0.25	1.00	0.75	0.00	0.00	0.00	0.00	0.00	0.00	0.00	0.00	0.00	-2.827637	0.439941	2.299805	109.059998	-368.059998	208.600006	48.00	0.00	0.00	0.75	1.00	1.00	1.50	1.50	3.75	1.25	7.25	6.25	10.75	12.00	13.00	15.75	12.00	8.75	9.75	-0.205078	0.168945	0.991699	3.850000	43.119999	-9.450000	1170.00	0.19	-0.14
2.79	0.00	1.00	1.25	0.00	0.25	0.75	0.75	0.00	0.00	0.50	0.00	0.00	0.00	0.00	0.00	0.00	-3.692383	-0.082031	1.401367	128.029999	-352.730011	198.800003	55.00	-0.14	0.01	0.75	0.25	0.75	1.25	1.25	2.75	1.00	6.25	6.75	10.75	12.00	13.00	15.50	13.00	9.00	10.00	-0.199707	0.146973	1.054688	5.110000	54.389999	-10.640000	1139.00	0.21	-0.13
2.80	0.00	0.75	1.25	0.75	0.00	1.00	1.00	0.00	0.00	0.00	0.00	0.00	0.00	0.00	0.00	0.00	-4.596191	-0.479492	0.311035	111.720001	-314.790009	192.220001	60.00	-0.17	-0.02	0.25	0.25	0.25	1.25	0.75	2.25	0.75	5.50	7.00	11.00	12.00	13.00	15.00	14.00	9.50	10.00	-0.183105	0.202148	1.138184	11.900000	94.639999	-17.219999	1115.00	0.22	-0.12
2.81	0.00	0.50	0.75	0.00	0.25	0.50	0.75	0.00	0.00	0.00	0.00	0.00	0.00	0.00	0.00	0.00	-5.375977	-0.659180	-0.662109	63.349998	-251.649994	183.259995	35.00	0.00	0.00	0.25	0.25	0.00	1.25	0.75	1.75	0.75	4.75	6.75	11.00	12.00	13.00	14.75	15.00	9.75	10.00	-0.260742	0.206055	1.160156	18.410000	119.489998	-22.889999	1100.00	0.23	-0.12
2.82	0.00	0.75	1.25	0.00	0.00	0.00	0.50	0.00	0.00	0.00	0.00	0.00	0.00	0.00	0.00	0.00	-5.704590	-0.622070	-1.121582	10.430000	-170.380005	151.830002	31.00	0.00	0.00	0.00	0.25	0.00	0.75	0.50	1.50	0.50	3.25	7.00	10.75	12.00	12.75	13.75	16.00	10.00	10.00	-0.250488	0.175781	1.264648	21.910000	150.009995	-26.530001	1057.00	0.25	-0.11
2.83	0.00	0.75	1.00	0.00	0.25	0.50	0.75	0.00	0.00	0.00	0.00	0.00	0.00	0.00	0.00	0.00	-4.956055	-0.378418	-1.374512	-11.340000	-78.190002	85.540001	41.00	0.00	0.00	0.50	0.00	0.00	0.75	0.50	1.00	0.25	2.25	7.25	10.75	12.00	12.25	13.00	17.00	10.25	10.00	-0.283203	0.224121	1.269531	22.330000	183.119995	-30.730000	1036.00	0.25	-0.09
2.84	0.25	1.00	1.50	0.00	0.25	0.50	0.75	0.00	0.00	0.00	0.00	0.00	0.00	0.00	0.00	0.00	-3.851074	-0.063965	-0.904297	9.240000	10.920000	0.770000	53.00	-0.20	0.03	0.25	0.25	0.25	0.50	0.25	0.75	0.00	1.50	7.00	10.25	11.75	12.00	12.00	18.00	10.50	9.75	-0.340820	0.299805	1.240723	18.969999	215.040009	-39.270000	999.00	0.26	-0.09
2.85	0.00	0.25	1.25	0.00	0.00	0.00	0.50	0.00	0.00	0.00	0.00	0.00	0.00	0.00	0.00	0.00	-2.937988	0.114258	0.177246	48.790001	68.110001	-74.129997	26.00	0.00	0.00	0.25	0.00	0.00	0.25	0.25	0.50	0.00	1.25	6.75	10.00	11.75	11.50	11.00	18.25	10.50	9.50	-0.366211	0.258301	1.372070	3.430000	243.880005	-48.860001	963.00	0.27	-0.08
2.86	0.00	0.25	1.00	0.00	0.00	0.00	0.50	0.00	0.00	0.00	0.00	0.00	0.00	0.00	0.00	0.00	-3.948242	-2.327637	-0.174805	60.549999	73.010002	-96.599998	23.00	0.00	0.00	0.25	0.00	0.00	0.25	0.25	0.50	0.00	1.00	6.50	9.50	11.25	11.00	10.00	18.75	10.25	9.00	-0.372070	0.330078	1.388672	-4.690000	265.649994	-59.500000	927.00	0.28	-0.07
2.87	1.50	3.00	1.75	0.00	0.00	0.00	0.50	0.00	0.00	0.00	0.00	0.00	0.00	0.00	0.00	0.00	1.350586	0.870117	0.330078	-245.000000	188.580002	67.340004	77.00	-0.32	0.01	0.50	0.00	0.00	0.00	0.00	0.25	0.00	0.50	5.75	9.00	11.00	10.25	8.75	18.50	10.00	8.00	-0.461914	0.393555	1.359375	-13.370000	299.390015	-72.309998	862.00	0.28	-0.06
2.88	5.75	8.50	3.75	3.50	0.00	0.00	0.50	0.00	0.00	0.00	0.00	0.00	0.00	0.00	0.00	0.00	0.947266	-0.844727	-0.367188	-5.180000	150.850006	128.240005	247.00	-0.35	-0.04	0.25	0.00	0.00	0.00	0.00	0.25	0.00	0.75	5.25	8.25	10.50	9.50	7.75	18.25	9.50	7.00	-0.481445	0.477539	1.283691	-28.210001	334.529999	-88.269997	810.00	0.29	-0.06
2.89	12.50	11.25	7.00	5.50	0.75	0.25	0.50	0.00	0.50	0.00	0.00	0.50	0.00	0.00	0.00	0.00	-0.999512	-2.411133	1.286621	25.620001	297.360016	86.309998	439.00	-0.33	-0.02	0.00	0.00	0.00	0.00	0.00	0.00	0.00	0.50	3.50	7.75	10.00	9.00	6.00	17.25	8.75	5.75	-0.608398	0.460938	1.601074	-36.610001	364.630005	-105.840004	716.00	0.29	-0.06
2.90	10.00	12.00	7.50	7.75	0.50	0.75	0.25	0.00	0.00	0.00	0.00	0.75	0.00	0.00	0.00	0.00	-1.138672	-1.438965	3.856934	28.420000	393.679993	0.630000	446.00	-0.33	-0.05	0.00	0.00	0.00	0.00	0.00	0.25	0.00	0.25	1.75	6.75	9.25	8.00	4.25	16.00	8.00	3.75	-0.667969	0.535645	1.876465	-39.619999	380.309998	-118.020004	610.00	0.30	-0.06
2.91	19.50	17.00	10.00	10.25	3.00	5.50	0.75	1.00	0.00	0.00	0.00	0.00	1.25	0.25	0.00	0.00	-1.050293	-0.289062	5.109863	35.139999	307.510010	-70.139999	781.00	-0.31	-0.06	0.00	0.00	0.00	0.00	0.00	0.00	0.00	0.25	0.75	5.75	8.50	7.25	2.75	14.00	7.00	1.50	-0.643066	0.637207	1.726562	-39.340000	391.440002	-130.690002	506.00	0.30	-0.06
2.92	19.75	17.50	10.75	11.75	5.50	8.25	1.00	1.75	0.50	0.00	0.25	1.00	1.25	0.00	0.25	0.00	-0.509766	1.430664	1.878906	39.970001	212.660004	-82.320000	918.00	-0.28	-0.07	0.00	0.00	0.00	0.00	0.00	0.00	0.00	0.00	0.00	4.75	7.50	5.75	1.25	11.50	5.50	0.00	-1.101074	-0.099609	2.281738	0.980000	388.989990	-142.240005	388.00	0.30	-0.05
2.93	19.25	17.75	11.50	12.00	6.25	9.75	1.00	3.25	0.25	0.25	0.00	1.25	2.00	0.00	0.00	0.00	-0.534668	1.000000	2.151855	-17.850000	191.309998	-31.920000	982.00	-0.26	-0.08	0.00	0.00	0.00	0.00	0.00	0.25	0.00	0.00	0.00	3.50	5.75	4.25	0.75	9.25	3.75	0.00	-1.335938	0.308594	2.439941	-11.970000	366.799988	-136.850006	294.00	0.30	-0.04
2.94	17.00	16.25	10.75	11.50	6.50	10.25	1.00	4.50	0.25	0.25	0.50	1.25	2.50	0.25	0.00	0.25	-0.447266	0.169434	1.992676	-37.869999	156.029999	8.960000	970.00	-0.24	-0.10	0.00	0.00	0.00	0.00	0.00	0.00	0.00	0.00	0.00	3.00	4.00	2.75	0.00	7.00	2.00	0.00	-0.481934	0.416992	2.217773	0.770000	339.500000	-137.550003	200.00	0.31	-0.01
2.95	15.50	15.50	11.00	11.50	6.75	11.00	1.00	6.50	0.25	0.25	0.25	1.00	2.75	0.25	0.25	0.25	-0.122070	0.073730	1.389160	-59.990002	102.059998	4.480000	994.00	-0.23	-0.11	0.00	0.00	0.00	0.00	0.00	0.00	0.00	0.00	0.00	2.25	2.50	2.00	0.25	5.00	1.25	0.00	-0.713379	0.507812	2.187012	7.210000	313.250000	-145.809998	140.00	0.31	-0.02
2.96	14.50	15.25	10.75	11.50	7.25	11.75	1.25	7.75	0.25	0.50	0.25	1.25	4.00	0.25	0.25	0.00	-0.135254	0.242676	0.940918	-62.299999	72.940002	-0.350000	1033.00	-0.22	-0.12	0.00	0.00	0.00	0.00	0.00	0.00	0.25	0.00	0.00	1.25	1.50	1.50	0.00	2.25	0.75	0.00	0.175293	0.558105	0.961914	13.720000	304.779999	-158.550003	82.00	0.28	-0.03
2.97	14.25	15.50	10.75	11.75	7.50	12.25	1.25	8.25	0.75	0.75	0.50	1.00	4.75	0.25	0.00	0.25	-0.292969	0.357910	1.274414	-70.769997	67.970001	2.240000	1068.00	-0.21	-0.12	0.00	0.00	0.00	0.00	0.00	0.00	0.25	0.00	0.00	1.25	1.00	0.75	0.00	1.00	0.75	0.00	-0.182617	0.528320	1.108887	-4.060000	311.010010	-172.970001	56.00	0.27	-0.02
2.98	14.75	15.25	11.00	12.00	8.00	12.75	1.25	8.50	0.75	0.75	0.50	1.25	5.00	0.00	0.25	0.50	-0.224609	0.224609	1.046875	-73.639999	46.270000	3.150000	1101.00	-0.20	-0.13	0.00	0.00	0.00	0.00	0.00	0.00	0.50	0.00	0.00	0.25	0.50	0.75	0.00	0.25	0.25	0.00	1.412598	0.717285	2.189941	10.150000	274.119995	-189.630005	31.00	0.00	0.00
2.99	15.75	16.00	11.50	12.25	8.75	13.25	1.50	8.75	0.25	0.75	0.50	1.25	5.50	0.25	0.50	0.50	-0.128418	0.175293	0.999512	-79.590004	32.689999	-1.190000	1155.00	-0.20	-0.12	0.00	0.00	0.00	0.00	0.00	0.00	0.25	0.00	0.00	0.25	0.50	0.50	0.00	0.00	0.00	0.00	0.493652	1.663086	2.247559	60.200001	155.820007	-202.649994	18.00	0.00	0.00
3.00	15.50	15.75	11.75	12.25	9.00	13.50	1.50	9.00	0.50	1.00	0.75	1.50	5.25	0.25	0.25	0.25	-0.159180	0.156738	1.063477	-72.660004	22.960001	-3.290000	1168.00	-0.20	-0.12	0.00	0.00	0.00	0.00	0.00	0.00	0.50	0.00	0.00	0.25	0.50	0.25	0.00	0.00	0.25	0.00	1.137695	1.301758	3.459961	57.750000	10.640000	-179.410004	23.00	0.00	0.00
3.01	14.75	15.50	12.00	12.50	9.50	13.75	1.50	9.25	0.25	1.25	0.75	1.50	5.50	0.25	0.50	0.50	-0.129883	0.145996	1.000977	-59.220001	15.680000	-3.010000	1182.00	-0.19	-0.13	0.00	0.00	0.00	0.00	0.00	0.00	0.50	0.00	0.00	0.00	0.25	0.25	0.00	0.00	0.00	0.00	1.369141	0.630371	1.936035	43.400002	-89.180000	-151.619995	14.00	0.00	0.00
3.02	15.75	15.50	12.00	12.25	9.75	13.75	1.50	9.25	0.75	1.25	0.50	1.50	5.75	0.25	0.50	0.25	-0.125977	0.103027	0.996582	-39.340000	15.330000	-1.680000	1199.00	-0.19	-0.12	0.00	0.00	0.00	0.00	0.00	0.00	0.50	0.00	0.00	0.25	0.25	0.00	0.00	0.00	0.00	0.00	0.950684	0.793457	1.162109	7.910000	-148.889999	-131.180008	14.00	0.00	0.00
3.03	15.75	15.25	11.75	12.00	10.00	13.75	1.50	9.25	1.00	1.00	0.75	1.50	6.00	0.50	0.50	0.50	-0.128906	0.108887	1.005371	-29.750000	14.350000	-0.630000	1203.00	-0.19	-0.12	0.00	0.00	0.00	0.00	0.00	0.00	0.50	0.00	0.00	0.25	0.00	0.00	0.00	0.25	0.00	0.00	0.696289	0.841309	0.883301	-19.389999	-166.529999	-113.330002	13.00	0.00	0.00
3.04	15.00	15.00	11.75	12.00	10.50	13.75	1.75	9.50	1.00	1.25	0.75	1.75	6.00	0.50	0.50	0.75	-0.121094	0.116699	0.976074	-21.139999	12.880000	0.910000	1213.00	-0.18	-0.12	0.00	0.00	0.00	0.00	0.00	0.00	0.50	0.00	0.00	0.00	0.00	0.00	0.00	0.00	0.00	0.00	0.613770	1.066895	0.621582	7.210000	-167.020004	-82.250000	8.00	0.00	0.00
3.05	15.00	14.75	11.50	12.00	10.50	14.00	1.75	9.75	0.75	1.50	0.75	2.00	6.50	0.50	0.75	0.25	-0.123535	0.123535	0.979004	-16.170000	13.020000	1.750000	1222.00	-0.18	-0.13	0.00	0.00	0.00	0.00	0.00	0.00	0.50	0.00	0.00	0.00	0.00	0.00	0.00	0.00	0.00	0.00	0.522461	1.063965	0.687500	40.459999	-170.309998	-64.120003	8.00	0.00	0.00
3.06	14.25	14.25	11.25	11.75	10.50	14.00	1.75	10.00	1.00	1.50	1.00	2.00	7.50	0.50	0.50	0.50	-0.120605	0.130859	0.973145	-12.810000	11.970000	1.680000	1221.00	-0.17	-0.13	0.00	0.00	0.00	0.00	0.00	0.00	0.50	0.00	0.00	0.00	0.00	0.00	0.00	0.25	0.00	0.00	0.497559	0.976074	0.742676	66.290001	-176.330002	-42.349998	11.00	0.00	0.00
3.07	13.75	14.00	11.25	11.50	10.25	13.75	1.75	10.00	1.00	1.50	1.00	2.00	7.50	0.50	0.50	0.75	-0.129395	0.139648	0.951660	-12.460000	11.340000	1.190000	1205.00	-0.17	-0.13	0.00	0.00	0.00	0.00	0.00	0.00	0.50	0.00	0.00	0.00	0.00	0.00	0.00	0.00	0.00	0.00	0.460449	0.878906	0.855469	75.879997	-184.800003	-15.540000	8.00	0.00	0.00
3.08	14.00	13.75	11.00	11.50	11.00	13.75	1.75	10.00	1.00	1.50	1.00	1.75	6.75	0.00	0.50	1.00	-0.136719	0.140625	0.967285	-13.370000	11.270000	1.120000	1198.00	-0.17	-0.13	0.00	0.00	0.00	0.00	0.00	0.00	0.50	0.00	0.00	0.00	0.00	0.00	0.00	0.00	0.00	0.00	0.430176	0.828125	0.932129	71.540001	-195.509995	13.790000	8.00	0.00	0.00
3.09	12.25	13.50	11.00	11.25	10.75	13.75	2.00	10.25	1.00	1.50	1.25	2.25	8.25	0.50	0.50	0.75	-0.132812	0.121094	0.976562	-13.370000	10.920000	1.120000	1204.00	-0.16	-0.14	0.00	0.00	0.00	0.00	0.00	0.00	0.50	0.00	0.00	0.00	0.00	0.00	0.00	0.00	0.00	0.00	0.396484	0.824707	1.014160	63.840000	-207.899994	42.910000	8.00	0.00	0.00
3.10	13.25	13.75	10.75	11.50	11.00	13.75	2.00	10.25	1.00	2.00	1.50	2.25	8.50	0.75	0.50	0.75	-0.136230	0.118164	0.974121	-11.690000	9.730000	1.680000	1234.00	-0.16	-0.13	0.00	0.00	0.00	0.00	0.00	0.00	0.50	0.00	0.00	0.00	0.00	0.00	0.00	0.00	0.00	0.00	0.319824	0.837402	1.101074	63.980000	-222.320007	69.440002	8.00	0.00	0.00
3.11	12.75	13.25	10.75	11.50	10.75	13.75	2.00	10.25	1.25	1.75	1.25	2.50	8.75	0.75	0.50	0.75	-0.135742	0.105469	0.975098	-9.590000	9.520000	1.890000	1223.00	-0.15	-0.13	0.00	0.00	0.00	0.00	0.00	0.00	0.50	0.00	0.00	0.00	0.00	0.00	0.00	0.00	0.00	0.00	0.242676	0.770020	1.203125	72.519997	-238.419998	91.349998	8.00	0.00	0.00
3.12	12.75	13.00	10.75	11.50	11.00	13.50	2.00	10.25	1.25	2.00	1.50	2.50	8.75	0.75	0.50	1.00	-0.137695	0.107910	0.984375	-6.930000	9.450000	1.610000	1228.00	-0.15	-0.13	0.00	0.00	0.00	0.00	0.00	0.00	0.50	0.00	0.00	0.00	0.00	0.00	0.00	0.00	0.00	0.00	0.155762	0.670410	1.290527	84.279999	-255.850006	107.520004	8.00	0.00	0.00
3.13	12.00	12.75	10.75	11.25	11.00	13.50	2.25	10.25	1.25	1.75	1.75	2.50	9.25	1.00	0.50	1.00	-0.136230	0.110352	0.975586	-4.480000	9.520000	1.260000	1225.00	-0.15	-0.13	0.00	0.00	0.00	0.00	0.00	0.00	0.50	0.00	0.00	0.00	0.00	0.00	0.00	0.00	0.00	0.00	0.068359	0.540527	1.347656	95.900002	-273.140015	116.970001	8.00	0.00	0.00
3.14	11.75	12.50	10.50	11.25	10.75	13.50	2.25	10.50	1.25	2.00	1.50	2.75	9.25	0.75	0.50	0.75	-0.120117	0.117676	0.959961	-3.010000	9.800000	0.840000	1217.00	-0.15	-0.14	0.00	0.00	0.00	0.00	0.00	0.00	0.50	0.00	0.00	0.00	0.00	0.00	0.00	0.00	0.00	0.00	-0.033203	0.432617	1.416016	107.520004	-288.329987	119.139999	8.00	0.00	0.00
3.15	11.25	12.25	10.25	11.00	10.75	13.50	2.25	10.50	1.25	2.25	1.75	3.00	9.50	0.75	0.50	1.25	-0.118164	0.121582	0.951660	-2.800000	9.870000	0.210000	1217.00	-0.14	-0.14	0.00	0.00	0.00	0.00	0.00	0.00	0.50	0.00	0.00	0.00	0.00	0.00	0.00	0.00	0.00	0.00	-0.129395	0.337402	1.484375	119.489998	-300.929993	115.639999	8.00	0.00	0.00
3.16	11.00	11.75	10.25	11.00	10.50	13.50	2.25	10.50	1.50	2.25	1.75	3.25	9.75	1.00	0.75	1.00	-0.127930	0.125977	0.953125	-3.150000	9.520000	-0.630000	1218.00	-0.13	-0.14	0.00	0.00	0.00	0.00	0.00	0.00	0.50	0.00	0.00	0.00	0.00	0.00	0.00	0.00	0.00	0.00	-0.315430	0.166016	1.628418	140.910004	-315.839996	97.370003	8.00	0.00	0.00
3.17	10.75	11.50	10.25	10.75	10.50	13.25	2.25	10.50	1.50	2.25	1.75	3.50	10.00	0.75	0.75	1.25	-0.139160	0.116699	0.956543	-4.620000	8.820000	-1.680000	1212.00	-0.13	-0.14	0.00	0.00	0.00	0.00	0.00	0.00	0.50	0.00	0.00	0.00	0.00	0.00	0.00	0.00	0.00	0.00	-0.404297	0.113281	1.726562	149.240005	-318.149994	85.959999	8.00	0.00	0.00
3.18	10.25	11.25	10.00	10.75	10.50	13.25	2.25	10.75	1.75	2.25	2.00	3.75	10.00	1.00	0.75	1.25	-0.139648	0.120117	0.954590	-5.180000	8.470000	-1.680000	1216.00	-0.12	-0.14	0.00	0.00	0.00	0.00	0.00	0.00	0.50	0.00	0.00	0.00	0.00	0.00	0.00	0.00	0.00	0.00	-0.485352	0.075195	1.792969	157.080002	-318.429993	73.080002	8.00	0.00	0.00
3.19	10.25	11.00	9.75	10.50	10.50	13.25	2.50	10.75	1.50	2.75	2.00	4.00	10.25	1.00	0.75	1.25	-0.136230	0.116211	0.951660	-5.600000	8.260000	-1.400000	1219.00	-0.12	-0.14	0.00	0.00	0.00	0.00	0.00	0.00	0.50	0.00	0.00	0.00	0.00	0.00	0.00	0.00	0.00	0.00	-0.617676	0.070801	1.821777	165.690002	-316.679993	59.220001	8.00	0.00	0.00
3.20	9.75	10.50	10.00	10.50	10.50	13.25	2.50	10.75	1.75	2.50	2.25	4.25	10.50	1.25	0.75	1.50	-0.133789	0.115723	0.954102	-5.950000	8.330000	-0.700000	1224.00	-0.11	-0.14	0.00	0.00	0.00	0.00	0.00	0.00	0.50	0.00	0.00	0.00	0.00	0.00	0.00	0.00	0.00	0.00	-0.814453	0.166016	1.785645	175.910004	-308.769989	46.200001	8.00	0.00	0.00
3.21	9.75	10.50	9.75	10.50	10.50	13.25	2.50	11.00	1.75	2.75	2.50	4.25	10.75	1.25	0.75	1.50	-0.135254	0.107910	0.961426	-5.530000	8.890000	0.070000	1233.00	-0.11	-0.14	0.00	0.00	0.00	0.00	0.00	0.00	0.25	0.00	0.00	0.00	0.00	0.00	0.00	0.00	0.00	0.00	-0.990723	0.274414	1.805176	182.559998	-293.160004	40.950001	4.00	0.00	0.00
3.22	9.75	10.50	10.00	10.25	10.50	13.25	2.50	11.00	2.00	2.75	2.75	5.00	11.00	1.25	0.75	1.75	-0.137695	0.113281	0.952637	-5.110000	9.520000	0.420000	1252.00	-0.10	-0.14	0.00	0.00	0.00	0.00	0.00	0.00	0.50	0.00	0.00	0.00	0.00	0.00	0.00	0.00	0.00	0.00	-1.104004	0.403320	2.058594	182.839996	-276.290009	47.529999	8.00	0.00	0.00
3.23	9.25	10.00	9.75	10.25	10.50	13.25	2.75	11.00	2.00	3.00	2.75	5.25	11.25	1.50	1.00	1.75	-0.130859	0.121094	0.951660	-5.670000	10.220000	0.560000	1256.00	-0.10	-0.14	0.00	0.00	0.00	0.00	0.00	0.00	0.50	0.00	0.00	0.00	0.00	0.00	0.00	0.00	0.00	0.00	-1.147461	0.580078	2.317871	178.220001	-266.489990	64.400002	8.00	0.00	0.00
3.24	8.75	9.50	9.75	10.00	10.25	13.25	2.75	11.25	2.00	3.25	3.00	5.75	11.50	1.25	1.00	2.25	-0.133301	0.123535	0.953613	-6.650000	10.430000	-0.140000	1258.00	-0.09	-0.15	0.00	0.00	0.00	0.00	0.00	0.00	0.50	0.00	0.00	0.00	0.00	0.00	0.00	0.00	0.00	0.00	-1.257324	0.696289	2.511719	179.759995	-262.920013	85.680000	8.00	0.00	0.00
3.25	8.50	9.25	9.50	10.00	10.50	13.00	3.00	11.25	2.50	3.50	3.25	6.50	12.00	1.50	1.00	2.50	-0.138672	0.118164	0.949707	-7.070000	10.220000	-0.770000	1284.00	-0.08	-0.15	0.00	0.00	0.00	0.00	0.00	0.00	0.25	0.00	0.00	0.00	0.00	0.00	0.00	0.00	0.00	0.00	-1.590332	0.824707	2.663086	189.839996	-257.250000	102.199997	4.00	0.00	0.00
3.26	8.25	9.00	9.25	9.75	10.50	13.00	3.00	11.25	2.50	3.75	3.50	6.75	12.25	1.50	1.00	2.50	-0.129883	0.118164	0.956543	-7.630000	10.570000	-1.120000	1283.00	-0.08	-0.15	0.00	0.00	0.00	0.00	0.00	0.00	0.50	0.00	0.00	0.00	0.00	0.00	0.00	0.00	0.00	0.00	-2.113770	0.882324	2.556152	202.160004	-251.509995	116.550003	8.00	0.00	0.00
3.27	7.75	9.00	9.25	9.75	10.50	13.25	3.25	11.25	2.25	4.00	4.25	7.50	12.50	1.75	1.00	3.00	-0.141602	0.111328	0.954102	-7.560000	10.780000	-1.400000	1309.00	-0.07	-0.15	0.00	0.00	0.00	0.00	0.00	0.00	0.50	0.00	0.00	0.00	0.00	0.00	0.00	0.00	0.00	0.00	-2.580078	0.711426	2.176270	216.580002	-246.960007	137.199997	8.00	0.00	0.00
3.28	7.50	8.75	9.00	9.75	10.50	13.00	3.50	11.50	3.00	4.50	4.50	8.00	12.75	1.75	1.25	3.25	-0.151367	0.104980	0.958496	-6.510000	11.060000	-1.050000	1337.00	-0.06	-0.15	0.00	0.00	0.00	0.00	0.00	0.00	0.50	0.00	0.00	0.00	0.00	0.00	0.00	0.00	0.00	0.00	-3.141113	-0.123047	1.080078	240.800003	-199.990005	197.750000	8.00	0.00	0.00
3.29	7.50	8.25	9.00	9.50	10.25	13.00	3.50	11.50	3.00	4.50	5.25	8.25	13.25	1.75	1.25	3.75	-0.146484	0.099609	0.960938	-4.970000	11.690000	-0.280000	1346.00	-0.05	-0.15	0.00	0.00	0.00	0.00	0.00	0.00	0.25	0.00	0.00	0.00	0.00	0.00	0.00	0.00	0.00	0.00	-3.396484	-0.695801	0.862305	246.889999	-153.720001	233.660004	4.00	0.00	0.00
3.30	7.00	8.00	8.75	9.25	10.25	12.75	3.50	11.50	3.25	5.25	5.75	8.50	13.25	2.25	1.50	4.25	-0.149902	0.093750	0.968750	-2.940000	12.390000	0.350000	1360.00	-0.04	-0.15	0.00	0.00	0.00	0.00	0.00	0.00	0.50	0.00	0.00	0.00	0.00	0.00	0.00	0.00	0.00	0.00	-3.605469	-1.230469	0.689453	216.860001	-104.090004	259.839996	8.00	0.00	0.00
3.31	6.50	8.00	8.50	9.25	10.00	13.00	3.50	11.50	3.25	5.75	6.50	8.75	13.75	2.25	1.50	5.00	-0.152344	0.104004	0.979980	-0.980000	13.370000	0.980000	1377.00	-0.03	-0.15	0.00	0.00	0.00	0.00	0.00	0.00	0.25	0.00	0.00	0.00	0.00	0.00	0.00	0.00	0.00	0.00	-3.608398	-1.534180	0.437988	147.839996	-60.619999	264.600006	4.00	0.00	0.00
3.32	6.25	7.50	8.50	9.00	9.75	12.75	3.50	11.50	3.50	6.50	7.25	9.00	14.00	2.25	2.00	5.25	-0.154297	0.103027	0.959473	2.940000	16.309999	1.960000	1393.00	-0.02	-0.15	0.00	0.00	0.00	0.00	0.00	0.00	0.25	0.00	0.00	0.00	0.00	0.00	0.00	0.00	0.00	0.00	-3.474609	-1.626465	0.323730	70.419998	-28.000000	239.190002	4.00	0.00	0.00
3.33	6.00	7.25	8.00	8.75	9.50	12.75	3.50	11.75	4.00	6.50	7.75	9.50	14.75	2.50	2.00	5.75	-0.149902	0.113281	0.970703	3.360000	17.080000	2.100000	1411.00	-0.01	-0.15	0.00	0.00	0.00	0.00	0.00	0.00	0.25	0.00	0.00	0.00	0.00	0.00	0.00	0.00	0.00	0.00	-3.230957	-1.489258	0.241699	6.930000	-2.170000	184.309998	4.00	0.00	0.00
3.34	5.75	7.00	7.75	8.50	9.25	12.50	3.50	11.75	4.00	6.75	8.00	9.75	15.00	2.50	2.25	6.25	-0.150879	0.117676	0.963379	3.850000	17.990000	1.750000	1411.00	-0.01	-0.15	0.00	0.00	0.00	0.00	0.00	0.00	0.25	0.00	0.00	0.00	0.00	0.00	0.00	0.00	0.00	0.00	-2.928711	-1.166992	0.150879	-26.950001	20.230000	108.989998	4.00	0.00	0.00
3.35	5.50	6.75	7.50	8.25	9.00	12.50	3.50	11.75	4.00	7.50	8.25	10.00	15.50	3.00	2.25	6.75	-0.157715	0.115723	0.965332	4.200000	19.530001	1.750000	1423.00	0.00	-0.15	0.00	0.00	0.00	0.00	0.00	0.00	0.25	0.00	0.00	0.00	0.00	0.00	0.00	0.00	0.00	0.00	-2.592773	-0.759277	0.236816	-22.960001	41.930000	29.960001	4.00	0.00	0.00
3.36	5.50	6.50	7.00	8.00	8.50	12.00	3.25	11.75	4.75	7.75	8.50	10.50	15.75	3.00	2.50	7.25	-0.165527	0.125488	0.951660	4.480000	20.299999	1.050000	1426.00	0.01	-0.15	0.00	0.00	0.00	0.00	0.00	0.00	0.25	0.00	0.00	0.00	0.00	0.00	0.00	0.00	0.00	0.00	-2.251465	-0.525879	0.403320	3.010000	61.110001	-32.270000	4.00	0.00	0.00
3.37	5.00	6.25	6.75	7.50	8.25	12.00	3.25	11.75	5.00	8.00	8.75	10.75	16.25	3.25	2.75	7.50	-0.162109	0.119629	0.964844	3.920000	21.000000	0.630000	1429.00	0.02	-0.15	0.00	0.00	0.00	0.00	0.00	0.00	0.25	0.00	0.00	0.00	0.00	0.00	0.00	0.00	0.00	0.00	-3.555176	-2.894531	-0.601074	-15.820000	52.639999	-48.509998	4.00	0.00	0.00
3.38	4.75	6.25	6.50	7.50	8.00	11.75	3.25	11.75	5.00	8.00	9.25	11.25	16.50	3.50	3.00	8.00	-0.164551	0.119141	0.950684	3.570000	21.980000	0.280000	1439.00	0.02	-0.15	0.25	0.00	0.00	0.00	0.00	0.00	0.25	0.00	0.00	0.00	0.00	0.00	0.00	0.00	0.00	0.00	0.377441	-0.482910	1.079590	-268.100006	177.800003	-15.050000	7.00	0.00	0.00
3.39	4.75	6.00	6.00	7.25	7.50	11.25	3.00	11.25	5.00	8.25	9.50	11.50	16.50	4.00	3.50	8.50	-0.169922	0.123535	0.965820	3.500000	23.309999	0.140000	1425.00	0.03	-0.15	1.25	1.25	0.75	0.50	0.00	0.00	0.25	0.00	0.00	0.00	0.00	0.00	0.00	0.00	0.00	0.00	-0.175781	1.021484	0.773438	-296.660004	201.669998	-2.520000	46.00	0.00	0.00
3.40	3.75	5.25	4.25	6.00	6.25	11.00	3.00	11.75	5.00	8.75	9.25	11.75	17.00	4.50	3.25	9.00	-0.163086	0.121582	0.986328	3.570000	25.410000	0.280000	1375.00	0.05	-0.16	3.50	3.50	1.75	2.25	0.00	0.00	0.25	0.00	0.00	0.00	0.00	0.00	0.00	0.00	0.00	0.00	0.303711	-0.792969	1.006836	-184.380005	173.949997	16.030001	127.00	-0.34	-0.04
3.41	4.25	5.50	5.25	6.00	6.50	10.75	3.00	11.75	6.00	9.25	10.25	12.50	17.50	5.00	5.25	9.50	-0.174805	0.120117	0.966309	3.150000	27.580000	0.560000	1471.00	0.06	-0.15	6.25	8.00	3.75	5.00	0.00	0.00	0.25	0.00	0.00	0.00	0.00	0.00	0.00	0.00	0.00	0.00	-0.375977	-1.104980	2.402832	-159.949997	241.430008	-24.780001	261.00	-0.35	-0.05
3.42	2.25	5.00	5.25	6.00	6.00	10.25	2.75	11.50	6.75	9.25	10.50	12.75	17.75	5.75	5.75	10.25	-0.179688	0.122559	0.971680	2.800000	30.100000	0.420000	1459.00	0.08	-0.15	11.75	12.00	5.75	8.50	0.50	1.50	0.25	0.25	0.00	0.00	0.00	0.25	0.00	0.00	0.00	0.00	-0.553711	-0.213379	2.819824	-115.849998	279.860016	-70.629997	461.00	-0.34	-0.06
3.43	2.25	2.75	4.25	4.25	4.00	9.00	2.50	10.75	6.00	9.25	10.25	12.00	17.25	6.00	5.25	10.25	-0.181641	0.117676	0.979004	3.150000	33.740002	0.910000	1317.00	0.10	-0.16	15.50	14.25	8.75	10.50	1.25	3.75	0.50	0.50	0.00	0.00	0.00	0.50	0.00	0.00	0.00	0.00	-0.668457	0.485840	2.446777	-93.379997	206.919998	-65.730003	634.00	-0.32	-0.06
3.44	1.50	3.75	3.75	2.75	3.25	8.50	2.00	10.50	6.25	9.50	10.50	12.50	16.75	6.50	5.25	11.00	-0.197754	0.114258	0.983887	5.460000	38.709999	1.260000	1287.00	0.11	-0.16	16.25	15.50	9.50	11.50	1.75	5.00	0.50	1.50	0.00	0.00	0.00	0.50	0.00	0.00	0.00	0.00	-0.677734	0.380371	1.583008	-85.120003	92.470001	-14.630000	713.00	-0.31	-0.07
3.45	1.50	3.00	3.25	2.50	2.75	7.75	2.00	10.25	7.00	9.75	10.75	12.75	17.25	7.50	6.00	11.75	-0.177246	0.128418	0.996582	9.030000	45.360001	1.610000	1298.00	0.13	-0.16	16.00	15.00	9.75	11.00	2.00	5.75	0.50	2.00	0.00	0.00	0.00	0.50	0.25	0.25	0.00	0.00	-0.274902	0.097656	1.281738	-77.070000	78.400002	11.480000	727.00	-0.30	-0.08
3.46	1.00	3.25	2.50	2.25	2.00	7.50	1.75	9.75	7.00	10.00	11.00	13.25	17.25	8.00	7.00	13.25	-0.208496	0.122070	1.007812	10.920000	53.060001	1.890000	1294.00	0.14	-0.16	14.00	13.50	9.50	10.75	2.00	6.00	0.75	2.25	0.00	0.00	0.00	0.50	1.00	0.00	0.00	0.00	0.002441	0.062012	1.255371	-61.810001	67.410004	5.600000	700.00	-0.28	-0.09
3.47	1.00	4.25	3.75	1.75	1.75	6.75	1.25	9.25	7.50	10.75	11.25	13.25	17.25	8.50	7.00	13.25	-0.222168	0.228516	0.993164	23.660000	72.730003	-0.770000	1308.00	0.14	-0.15	13.00	12.25	9.25	10.50	2.25	6.00	0.75	2.75	0.00	0.00	0.00	0.50	1.75	0.25	0.00	0.00	-0.077637	0.230469	0.844238	-42.349998	45.360001	-0.980000	690.00	-0.27	-0.09
3.48	2.25	3.75	2.25	1.50	1.00	5.75	1.25	8.50	7.50	10.50	11.50	13.50	17.25	9.75	7.25	14.00	-0.231445	0.168945	1.047363	32.410000	88.269997	-3.010000	1285.00	0.15	-0.15	11.25	11.50	9.00	10.50	2.25	7.00	0.75	3.75	0.00	0.00	0.25	0.75	2.00	0.25	0.00	0.00	-0.217773	0.346191	0.982422	-49.420002	46.689999	4.340000	697.00	-0.25	-0.11
3.49	1.50	5.00	3.00	3.25	1.75	6.25	1.25	8.50	8.00	11.00	11.75	13.75	17.25	10.50	7.75	14.75	-0.215332	0.144531	1.208984	48.230000	100.099998	-3.710000	1370.00	0.14	-0.14	11.00	12.00	9.25	10.75	2.50	7.75	1.00	4.75	0.00	0.25	0.50	0.75	2.50	0.50	0.00	0.00	-0.320312	0.242676	1.083496	-54.389999	35.420002	7.630000	750.00	-0.23	-0.12
3.50	0.25	2.50	2.25	1.25	0.50	5.00	0.75	7.25	7.25	10.50	12.00	13.75	17.00	11.50	8.25	15.00	-0.263184	0.187012	1.125488	59.920002	129.850006	-6.020000	1239.00	0.18	-0.15	11.75	12.50	9.75	11.25	3.25	8.00	1.00	5.50	0.00	0.25	0.50	0.75	3.00	0.50	0.00	0.00	-0.174316	0.260742	0.933105	-54.950001	17.290001	4.760000	805.00	-0.23	-0.12
3.51	0.75	2.25	2.00	0.00	0.50	3.50	0.75	5.75	7.50	10.50	12.00	13.75	16.50	12.50	8.50	15.75	-0.311523	0.208496	1.134766	72.379997	161.910004	-9.730000	1197.00	0.20	-0.13	12.75	13.25	10.25	11.75	3.75	8.50	1.00	5.75	0.00	0.50	0.50	0.75	2.75	0.75	0.25	0.00	-0.142090	0.282227	0.929199	-65.099998	11.200000	1.260000	858.00	-0.23	-0.12
3.52	1.00	1.25	2.50	0.00	1.25	3.00	0.75	4.00	7.00	10.00	12.00	13.50	16.00	13.25	8.75	16.00	-0.272949	0.153809	1.156738	72.029999	194.949997	-11.830000	1160.00	0.21	-0.12	13.75	13.75	11.00	12.25	5.25	9.00	1.00	6.00	0.00	0.50	0.50	1.00	3.25	0.75	0.00	0.00	-0.136230	0.148438	1.026367	-65.940002	7.770000	-3.780000	922.00	-0.23	-0.11
3.53	0.50	1.50	1.75	0.50	0.25	2.25	0.75	2.50	6.75	10.25	11.75	13.25	15.50	13.75	9.25	16.25	-0.352539	0.178711	1.094727	63.840000	219.309998	-9.940000	1109.00	0.23	-0.12	14.75	14.00	11.50	12.75	5.75	9.00	1.00	6.25	0.00	0.75	0.75	1.00	3.50	1.00	0.25	0.00	-0.130859	0.139160	1.011719	-52.570000	6.790000	-2.660000	971.00	-0.22	-0.11
3.54	0.25	1.50	1.75	0.00	0.50	1.75	0.50	2.00	6.25	9.75	11.75	13.00	14.50	14.25	9.25	16.50	-0.373535	0.210938	1.111816	62.230000	242.550003	-10.290000	1065.00	0.24	-0.12	15.75	14.25	11.75	12.75	6.25	9.50	1.00	6.75	0.50	0.75	0.75	1.00	4.25	1.00	0.50	0.00	-0.123047	0.122559	1.007324	-38.220001	6.230000	-0.840000	1026.00	-0.21	-0.11
3.55	0.50	1.00	1.75	0.00	0.25	1.75	0.75	1.00	6.00	9.25	11.50	12.75	13.75	14.75	9.50	16.25	-0.384766	0.225098	1.230957	63.910000	259.350006	-11.130000	1032.00	0.24	-0.11	15.50	14.50	12.00	12.75	6.75	9.50	1.25	6.75	0.50	1.00	0.75	1.25	4.50	0.75	0.50	0.00	-0.106445	0.143066	0.988770	-26.389999	6.370000	0.210000	1044.00	-0.21	-0.11
3.56	0.50	1.25	1.50	0.00	0.25	1.25	0.50	1.00	5.25	8.75	11.50	12.25	13.00	15.50	9.50	16.00	-0.432617	0.286133	1.273926	62.930000	271.459991	-12.950000	997.00	0.25	-0.11	14.50	14.00	11.50	12.50	7.00	9.75	1.25	7.00	0.25	1.00	1.00	1.00	5.00	1.00	0.50	0.00	-0.122559	0.146484	0.974121	-19.950001	7.630000	0.770000	1032.00	-0.20	-0.11
3.57	0.00	1.50	1.50	0.00	0.25	1.50	0.50	1.00	4.00	8.25	11.25	12.00	12.00	15.25	9.50	15.75	-0.491699	0.284668	1.142090	58.939999	290.640015	-16.240000	955.00	0.25	-0.11	14.25	13.50	11.50	12.25	7.25	9.50	1.25	7.25	0.25	1.25	1.00	1.25	5.50	1.00	0.50	0.00	-0.136719	0.152344	0.990723	-15.680000	7.210000	1.260000	1036.00	-0.20	-0.12
3.58	0.50	1.50	1.75	0.00	0.00	1.00	0.25	0.25	2.50	8.00	11.00	11.50	11.00	15.00	9.25	14.75	-0.485840	0.486816	1.307129	57.330002	317.589996	-24.710001	884.00	0.25	-0.11	13.75	13.00	11.50	12.00	7.25	9.50	1.25	7.50	0.25	1.50	1.00	1.50	5.75	1.25	0.75	0.25	-0.137207	0.156738	0.958984	-12.040000	5.950000	1.470000	1041.00	-0.19	-0.12
3.59	0.50	1.25	1.25	0.00	0.00	0.75	0.50	0.50	1.00	7.75	11.00	11.00	10.00	14.75	9.00	13.50	-0.500977	0.498535	1.367188	61.459999	346.570007	-40.110001	829.00	0.25	-0.12	13.75	12.50	10.75	11.50	7.50	9.75	1.25	7.75	0.50	1.50	1.00	1.75	6.25	1.25	0.50	0.25	-0.127930	0.172363	0.950195	-12.460000	5.600000	1.260000	1040.00	-0.18	-0.12
3.60	0.00	1.00	1.00	0.00	0.00	1.00	0.25	0.00	0.00	7.00	10.50	10.50	8.75	13.75	8.25	11.50	-0.596680	0.422363	1.389160	50.540001	377.579987	-56.980000	732.00	0.26	-0.13	13.00	12.25	11.25	12.00	7.75	10.00	1.25	7.75	0.50	1.50	1.25	1.75	6.25	1.25	1.00	0.25	-0.124512	0.158203	0.965332	-14.630000	5.320000	0.770000	1055.00	-0.18	-0.12
3.61	0.00	0.25	0.25	0.00	0.00	1.00	0.00	0.00	0.00	6.25	10.00	9.75	7.75	12.75	7.25	9.25	-0.985840	0.821777	1.936035	41.230000	458.290009	-82.320000	645.00	0.28	-0.13	16.50	12.25	11.00	11.75	8.00	10.00	1.50	8.00	0.50	1.75	1.50	2.00	6.75	1.25	1.50	1.00	-0.132324	0.149902	0.974121	-14.420000	4.760000	0.910000	1124.00	-0.17	-0.11
3.62	0.25	0.50	0.50	0.00	0.00	0.00	0.25	0.00	0.00	5.00	9.00	9.00	5.50	11.25	5.75	7.00	-1.190430	0.557617	2.237793	56.349998	465.850006	-89.529999	546.00	0.27	-0.11	16.00	14.50	13.00	13.75	9.25	12.00	1.50	8.75	2.00	2.75	2.50	3.50	8.75	2.75	2.50	1.75	-0.119141	0.149902	0.974609	-12.950000	5.180000	0.770000	1351.00	-0.14	-0.11
3.63	0.00	0.00	0.75	0.00	0.00	0.00	0.25	0.00	0.00	3.50	8.00	8.00	3.25	9.25	4.25	5.25	-1.229004	0.497070	2.591309	53.830002	467.320007	-94.639999	433.00	0.27	-0.11	14.75	14.25	12.75	14.00	9.25	12.00	1.50	8.75	2.25	3.00	2.50	3.50	9.50	2.75	2.25	2.00	-0.120117	0.148438	0.970215	-11.900000	6.440000	0.490000	1346.00	-0.13	-0.12
3.64	1.50	1.00	1.75	0.00	0.25	2.00	0.50	1.00	0.50	4.50	8.00	8.00	4.50	9.00	3.75	4.25	-0.814453	0.445312	1.957520	70.910004	455.839996	-90.300003	537.00	0.19	-0.11	13.75	13.50	12.50	13.75	9.25	12.00	1.75	8.75	2.25	3.00	2.75	4.00	9.50	3.00	2.50	2.00	-0.117676	0.152344	0.961914	-11.690000	7.910000	-1.400000	1339.00	-0.12	-0.12
3.65	1.25	2.50	2.00	0.25	0.25	1.75	0.25	0.00	0.50	3.25	6.50	6.50	3.75	6.75	2.75	3.00	-1.018066	0.373047	2.282715	84.139999	426.579987	-100.029999	436.00	0.15	-0.10	13.50	13.00	12.25	13.50	9.25	11.75	1.75	8.75	2.50	3.25	2.75	4.00	9.75	3.00	2.50	2.00	-0.126953	0.148438	0.957520	-11.760000	7.840000	-2.170000	1331.00	-0.12	-0.12
3.66	0.00	0.25	0.25	0.00	0.25	1.00	0.50	0.00	0.25	2.75	3.75	5.00	0.25	5.25	1.75	2.00	-0.578125	0.365234	2.454102	78.680000	391.160004	-106.540001	247.00	0.24	-0.07	12.25	11.75	11.50	13.00	8.75	9.00	1.75	8.75	2.50	3.50	3.00	4.25	10.00	2.75	2.50	2.50	-0.133301	0.147949	0.972656	-11.130000	7.350000	-2.520000	1262.00	-0.11	-0.12
