# time	left pressure 1[N/cm²]	left pressure 2[N/cm²]	left pressure 3[N/cm²]	left pressure 4[N/cm²]	left pressure 5[N/cm²]	left pressure 6[N/cm²]	left pressure 7[N/cm²]	left pressure 8[N/cm²]	left pressure 9[N/cm²]	left pressure 10[N/cm²]	left pressure 11[N/cm²]	left pressure 12[N/cm²]	left pressure 13[N/cm²]	left pressure 14[N/cm²]	left pressure 15[N/cm²]	left pressure 16[N/cm²]	left acceleration X[g]	left acceleration Y[g]	left acceleration Z[g]	left angular X[dps]	left angular Y[dps]	left angular Z[dps]	left total force[N]	left center of pressure X[%]	left center of pressure Y[%]	right pressure 1[N/cm²]	right pressure 2[N/cm²]	right pressure 3[N/cm²]	right pressure 4[N/cm²]	right pressure 5[N/cm²]	right pressure 6[N/cm²]	right pressure 7[N/cm²]	right pressure 8[N/cm²]	right pressure 9[N/cm²]	right pressure 10[N/cm²]	right pressure 11[N/cm²]	right pressure 12[N/cm²]	right pressure 13[N/cm²]	right pressure 14[N/cm²]	right pressure 15[N/cm²]	right pressure 16[N/cm²]	right acceleration X[g]	right acceleration Y[g]	right acceleration Z[g]	right angular X[dps]	right angular Y[dps]	right angular Z[dps]	right total force[N]	right center of pressure X[%]	right center of pressure Y[%]
0.00																										2.75	5.50	3.50	6.75	2.00	5.50	0.50	5.25	0.75	1.75	2.25	2.25	4.75	0.75	0.50	1.25	-0.162109	0.130371	0.974121	2.450000	-0.980000	2.240000	496.00	-0.09	-0.18
0.01																										2.25	5.25	3.25	6.75	2.00	5.50	0.50	5.75	1.25	1.50	2.75	2.50	5.00	1.25	0.50	1.25	-0.165527	0.125977	0.971191	2.380000	-0.840000	1.960000	512.00	-0.07	-0.18
0.02																										2.50	5.25	3.25	6.75	1.75	5.50	0.50	5.75	1.00	1.75	2.50	2.25	5.00	0.75	0.25	1.25	-0.166016	0.133789	0.976562	1.680000	-0.630000	1.680000	499.00	-0.08	-0.19
0.03																										2.25	4.75	3.25	6.50	1.75	5.25	0.50	6.00	1.25	1.75	2.25	2.50	5.00	1.00	0.25	1.25	-0.169434	0.126465	0.979980	0.910000	-0.840000	1.540000	496.00	-0.07	-0.18
0.04																										2.25	4.75	3.00	6.50	1.75	5.50	0.50	6.00	0.75	1.75	3.00	2.50	5.25	1.00	0.50	1.25	-0.169434	0.128418	0.975586	0.560000	-1.050000	1.470000	502.00	-0.07	-0.19
0.05																										2.25	4.00	2.75	6.25	1.75	5.25	0.50	6.00	1.00	2.00	2.50	2.75	5.50	0.75	0.50	1.50	-0.167969	0.126953	0.971680	0.700000	-1.330000	1.330000	491.00	-0.06	-0.19
0.06	0.00	0.00	0.00	0.00	0.00	0.00	0.50	0.00	0.00	3.00	4.50	2.75	0.00	0.00	0.00	3.00	-0.181641	0.224609	0.977051	-11.760000	-13.440001	8.470000	131.00	0.23	-0.12	1.50	3.00	2.75	5.75	1.75	5.25	0.50	6.00	1.00	1.75	2.75	3.00	5.50	1.00	0.25	1.50	-0.167480	0.125488	0.975586	1.260000	-1.470000	0.980000	471.00	-0.04	-0.20
0.07	0.00	0.00	0.00	0.00	0.00	0.00	0.50	0.00	0.00	2.75	4.25	2.75	0.00	0.00	0.00	3.00	-0.253418	0.190918	0.889648	-12.950000	-14.630000	-3.290000	126.00	0.23	-0.12	1.50	3.50	2.50	5.75	1.75	5.25	0.50	6.25	1.25	2.00	2.75	2.75	5.50	1.00	0.25	1.25	-0.164062	0.127930	0.975586	1.540000	-1.470000	0.770000	478.00	-0.04	-0.20
0.08	0.00	0.00	0.00	0.00	0.00	0.00	0.50	0.00	0.00	3.00	5.00	3.25	0.00	0.50	0.00	3.00	-0.399902	-0.055176	1.205078	-15.680000	-12.530000	-9.800000	146.00	0.24	-0.11	1.75	3.25	2.50	5.50	1.50	5.00	0.50	6.25	1.00	1.75	2.75	2.75	6.00	1.00	0.25	1.25	-0.169434	0.138672	0.973633	1.470000	-1.190000	0.700000	469.00	-0.04	-0.20
0.09	0.00	0.00	0.00	0.00	0.00	0.00	0.50	0.00	0.00	2.75	4.75	2.75	0.00	0.50	0.00	3.00	-0.215332	0.033203	0.880371	-13.090000	-3.570000	-6.370000	136.00	0.24	-0.11	1.75	3.00	2.50	5.25	1.50	5.00	0.50	6.25	1.00	1.75	2.75	3.00	6.00	1.00	0.25	1.50	-0.173340	0.130859	0.971680	1.330000	-1.260000	0.560000	468.00	-0.04	-0.20
0.10	0.25	0.25	0.00	0.00	0.00	0.00	0.50	0.00	0.00	3.00	4.75	3.00	0.00	0.75	0.00	3.00	-0.250488	0.096680	0.978027	-11.060000	-0.910000	-2.520000	148.00	0.22	-0.10	1.50	2.75	2.25	5.00	1.50	4.75	0.50	6.50	0.75	1.75	3.00	3.50	6.00	1.00	0.25	1.50	-0.172852	0.137695	0.963867	1.330000	-1.400000	0.280000	463.00	-0.03	-0.21
0.11	0.00	0.00	0.00	0.00	0.00	0.00	0.50	0.00	0.00	3.25	4.75	2.50	0.00	0.25	0.00	3.00	-0.259277	0.118164	0.951172	-9.870000	1.190000	-0.700000	136.00	0.24	-0.11	1.00	2.50	1.75	4.50	1.50	4.75	0.50	6.25	1.00	1.75	2.75	3.25	6.25	1.00	0.25	1.50	-0.166016	0.137207	0.971191	1.540000	-1.190000	-0.210000	441.00	-0.01	-0.22
0.12	0.25	0.25	0.25	0.00	0.00	0.00	0.50	0.00	0.00	3.25	5.00	2.75	0.25	0.25	0.00	3.25	-0.251953	0.118164	0.958008	-10.220000	3.360000	-0.980000	153.00	0.21	-0.11	1.00	2.00	1.75	4.25	1.25	4.50	0.50	6.25	1.00	1.75	2.75	3.25	6.25	1.00	0.25	1.50	-0.166992	0.141602	0.978027	1.330000	-0.700000	-0.980000	428.00	-0.00	-0.22
0.13	0.25	0.50	0.25	0.00	0.25	0.00	0.50	0.00	0.00	3.50	5.00	3.00	0.25	0.75	0.00	3.25	-0.256348	0.122559	0.958496	-9.870000	4.410000	-2.240000	167.00	0.20	-0.10	0.50	1.75	1.50	3.50	1.00	4.00	0.50	6.00	0.75	1.75	3.25	3.00	6.25	1.25	0.50	1.50	-0.168945	0.141602	0.969727	-0.420000	0.420000	-2.030000	402.00	0.02	-0.22
0.14	0.00	0.00	0.00	0.00	0.00	0.00	0.75	0.00	0.25	3.50	5.50	3.50	0.00	0.00	0.00	3.25	-0.253418	0.106934	0.946777	-8.400000	5.530000	-3.080000	163.00	0.23	-0.11	1.00	1.50	1.50	3.25	1.00	3.25	0.50	5.75	1.00	1.75	2.75	3.25	6.50	1.25	0.50	1.50	-0.175293	0.138184	0.967773	-1.470000	1.120000	-2.660000	393.00	0.02	-0.22
0.15	0.00	0.00	0.00	0.00	0.00	0.00	0.50	0.00	0.25	3.50	5.00	2.75	0.00	1.00	0.00	3.25	-0.257812	0.107422	0.949219	-7.210000	5.320000	-2.660000	155.00	0.24	-0.09	1.00	1.00	1.50	3.25	1.00	2.75	0.25	5.50	1.00	1.75	2.75	3.50	6.50	1.25	0.25	1.50	-0.181641	0.135254	0.965820	-2.520000	1.610000	-3.360000	375.00	0.03	-0.22
0.16	0.00	0.00	0.00	0.00	0.00	0.00	0.50	0.00	0.25	3.25	5.25	3.00	0.25	1.00	0.00	3.25	-0.262207	0.101562	0.940918	-5.810000	5.320000	-2.310000	160.00	0.24	-0.10	0.50	1.00	1.25	2.25	1.00	2.25	0.25	5.25	0.75	1.75	3.25	3.50	6.25	1.25	0.50	1.50	-0.173828	0.135742	0.968750	-4.060000	2.100000	-3.710000	349.00	0.05	-0.23
0.17	0.00	0.00	0.00	0.00	0.00	0.00	0.50	0.00	0.00	3.25	5.25	3.50	0.00	1.00	0.00	3.25	-0.246094	0.103516	0.922852	-6.720000	5.110000	-2.240000	160.00	0.24	-0.11	0.25	1.00	1.00	2.00	1.00	2.00	0.25	4.75	1.00	1.75	3.00	3.50	6.25	1.50	0.50	1.50	-0.170410	0.141602	0.972656	-5.390000	2.870000	-4.200000	334.00	0.07	-0.22
0.18	0.00	0.00	0.00	0.00	0.00	0.00	0.75	0.00	0.25	3.50	5.50	3.00	0.00	1.50	0.00	3.50	-0.246582	0.107910	0.932617	-7.560000	3.570000	-2.450000	172.00	0.25	-0.08	0.50	0.75	1.00	2.00	0.75	1.25	0.25	4.25	1.00	1.75	3.50	3.50	6.00	1.25	0.25	1.50	-0.169434	0.159668	0.981445	-6.580000	3.920000	-6.580000	314.00	0.07	-0.21
0.19	0.00	0.00	0.00	0.00	0.00	0.00	0.75	0.00	0.50	3.50	5.50	2.75	0.25	2.00	0.00	3.25	-0.245605	0.105469	0.937012	-8.470000	1.330000	-2.450000	178.00	0.25	-0.07	0.75	0.25	0.75	1.75	0.75	1.25	0.25	3.50	1.00	2.00	3.50	3.25	5.75	1.25	0.00	1.25	-0.181641	0.151855	0.982910	-6.650000	5.180000	-9.240000	289.00	0.08	-0.20
0.20	0.00	0.00	0.25	0.00	0.25	0.00	0.50	0.00	0.50	3.75	5.75	3.00	0.25	2.00	0.00	3.75	-0.248047	0.101074	0.928223	-9.310000	-0.420000	-2.450000	190.00	0.24	-0.07	0.50	0.50	0.75	1.75	0.75	0.50	0.25	2.75	1.00	1.75	3.00	3.25	5.75	1.50	0.25	1.25	-0.142578	0.203613	0.978027	-4.760000	6.510000	-16.590000	266.00	0.10	-0.20
0.21	0.00	0.00	0.00	0.00	0.25	0.00	0.75	0.00	0.75	3.75	6.00	3.25	0.25	2.25	0.00	3.50	-0.252441	0.115234	0.952148	-9.730000	-1.610000	-2.800000	201.00	0.24	-0.06	0.50	0.25	0.75	1.50	0.50	0.25	0.25	2.00	0.75	1.75	3.00	3.25	5.50	1.50	0.25	1.00	-0.142578	0.207031	0.974121	-4.060000	7.630000	-27.440001	237.00	0.11	-0.19
0.22	0.00	0.00	0.25	0.00	0.50	0.00	0.75	0.00	1.00	4.00	6.25	3.25	0.50	2.50	0.25	3.75	-0.249023	0.094727	0.929199	-9.660000	-2.940000	-2.940000	223.00	0.24	-0.06	0.25	0.00	0.75	1.25	0.50	0.25	0.00	1.50	1.00	1.50	3.00	3.25	5.50	1.75	0.25	1.00	-0.168457	0.218262	0.969238	-4.620000	7.700000	-35.700001	221.00	0.14	-0.19
0.23	0.00	0.00	0.25	0.00	0.50	0.00	1.00	0.00	1.25	4.00	6.25	3.25	0.00	2.50	0.00	4.00	-0.233887	0.097168	0.921387	-10.500000	-5.040000	-2.940000	224.00	0.23	-0.04	0.25	0.25	0.50	1.25	0.50	0.00	0.00	1.25	0.75	1.50	2.75	3.25	5.25	2.00	0.25	1.00	-0.166016	0.213379	0.945801	-6.160000	8.330000	-43.049999	208.00	0.14	-0.19
0.24	0.00	0.00	0.25	0.00	0.75	0.00	0.75	0.00	1.25	4.00	6.50	3.25	0.50	3.50	0.00	3.75	-0.221191	0.101074	0.928223	-14.910000	-8.890000	-2.940000	237.00	0.24	-0.04	0.00	0.00	0.50	1.25	0.50	0.25	0.00	1.25	1.00	1.50	2.75	3.00	5.25	1.50	0.25	1.00	-0.168457	0.257812	0.955566	-3.220000	7.140000	-55.230000	202.00	0.15	-0.19
0.25	0.00	0.00	0.75	0.00	0.75	0.00	0.75	0.00	1.50	4.25	6.50	3.25	0.75	3.75	0.00	3.75	-0.234863	0.104492	0.953125	-16.799999	-10.640000	-3.290000	253.00	0.23	-0.04	0.00	0.00	0.25	1.00	0.25	0.00	0.00	1.00	1.25	1.50	2.50	2.75	5.00	1.75	0.00	1.00	-0.171387	0.309570	0.925293	3.710000	6.160000	-74.690002	183.00	0.17	-0.18
0.26	0.00	0.00	0.50	0.00	1.00	0.00	1.00	0.00	1.75	4.75	6.50	3.50	0.25	4.50	0.25	4.00	-0.246582	0.094727	0.958984	-15.750000	-9.520000	-3.710000	274.00	0.23	-0.02	0.00	0.00	0.25	0.75	0.25	0.00	0.00	0.75	1.00	1.25	2.50	2.50	4.50	1.75	0.25	1.00	-0.169434	0.310547	0.939941	10.570000	-0.560000	-99.750000	166.00	0.18	-0.18
0.27	0.25	0.50	1.00	0.25	1.25	0.00	1.00	0.25	2.00	5.00	7.00	3.50	0.75	5.00	0.25	4.25	-0.240234	0.081543	0.961426	-13.300000	-7.630000	-3.430000	317.00	0.20	-0.03	0.00	0.00	0.25	0.00	0.25	0.00	0.00	0.50	1.25	1.25	2.50	2.75	4.50	1.50	0.25	1.00	-0.168457	0.313965	0.941406	17.430000	-6.510000	-125.580002	158.00	0.21	-0.17
0.28	0.50	0.75	1.00	0.00	1.25	0.00	1.00	0.25	2.50	5.00	7.00	3.75	1.00	5.25	0.50	4.25	-0.236328	0.079102	0.957520	-10.360000	-5.460000	-2.520000	335.00	0.20	-0.02	0.00	0.00	0.00	0.25	0.00	0.00	0.00	0.75	0.75	1.50	2.25	2.75	4.00	1.50	0.00	1.00	-0.199707	0.187012	0.985840	22.330000	-8.470000	-145.039993	145.00	0.21	-0.19
0.29	0.75	0.75	1.00	0.50	1.25	0.25	1.25	0.25	2.50	5.50	7.50	3.75	1.00	5.25	0.50	4.25	-0.230469	0.082520	0.956543	-8.330000	-2.170000	-1.400000	360.00	0.19	-0.03	0.00	0.00	0.25	0.25	0.00	0.00	0.00	0.75	1.00	1.50	2.50	2.25	4.00	1.75	0.25	1.00	-0.232422	0.146973	0.950195	22.820000	-10.220000	-152.320007	153.00	0.20	-0.17
0.30	0.75	0.75	1.25	0.25	1.25	0.00	1.00	0.25	2.50	5.25	7.00	3.75	1.00	6.00	0.25	4.25	-0.231445	0.089355	0.955566	-6.580000	0.490000	-0.910000	350.00	0.19	-0.02	0.00	0.00	0.25	0.75	0.00	0.00	0.00	0.50	0.75	1.50	2.25	2.00	3.75	1.75	0.25	1.00	-0.184570	0.151855	0.935059	23.590000	-13.300000	-154.770004	144.00	0.19	-0.17
0.31	0.75	1.00	1.25	0.25	1.25	0.25	1.00	0.50	3.00	5.75	7.25	3.50	1.25	6.25	0.50	4.25	-0.229980	0.093750	0.954102	-5.040000	2.660000	-1.050000	377.00	0.19	-0.02	0.00	0.00	0.25	0.50	0.00	0.00	0.00	0.50	1.00	1.75	2.25	2.00	3.50	1.75	0.00	1.00	-0.223633	0.081543	0.926270	23.240000	-20.299999	-153.580002	143.00	0.20	-0.15
0.32	0.50	0.75	1.25	1.00	1.75	0.25	1.00	0.25	3.25	5.75	7.25	3.75	1.00	6.25	0.50	4.00	-0.235352	0.087402	0.954590	-3.920000	3.920000	-1.260000	385.00	0.18	-0.02	0.00	0.00	0.25	0.75	0.00	0.00	0.00	0.25	1.25	1.50	2.25	2.00	3.50	1.50	0.25	0.75	-0.215332	0.041992	0.935547	22.120001	-28.139999	-148.259995	141.00	0.19	-0.14
0.33	0.50	1.25	1.50	0.50	1.50	0.25	1.25	0.25	3.25	6.00	7.50	3.75	1.00	6.75	0.50	4.25	-0.237305	0.081543	0.953125	-3.290000	4.760000	-1.260000	398.00	0.18	-0.01	0.00	0.00	0.00	0.50	0.25	0.00	0.00	0.50	1.00	1.50	2.00	2.00	3.50	1.75	0.25	0.75	-0.207520	-0.235352	1.012207	13.720000	-27.790001	-114.239998	139.00	0.20	-0.15
0.34	0.75	1.00	1.25	0.75	1.75	0.00	1.25	0.50	3.00	6.00	7.50	4.00	1.00	6.75	0.25	4.25	-0.233398	0.085449	0.959961	-2.310000	6.020000	-1.260000	399.00	0.18	-0.02	0.00	0.00	0.50	0.50	0.25	0.00	0.00	0.50	1.25	1.50	2.25	1.50	3.25	1.75	0.25	0.75	-0.188477	-0.211914	1.008301	1.470000	-20.510000	-71.680000	143.00	0.19	-0.12
0.35	0.50	1.00	1.25	1.00	1.75	0.00	1.25	0.50	3.25	6.25	7.50	4.00	1.00	7.00	0.50	4.25	-0.231445	0.084961	0.958008	-1.750000	6.860000	-1.120000	410.00	0.18	-0.02	0.00	0.00	0.50	1.00	0.50	0.00	0.00	0.50	1.25	1.50	2.25	1.75	3.00	2.00	0.00	0.75	-0.180176	-0.134766	0.994141	-2.030000	-16.870001	-32.689999	151.00	0.16	-0.12
0.36	0.50	1.00	1.25	1.00	1.75	0.00	1.25	0.25	3.50	6.25	7.50	3.75	1.00	6.75	0.50	4.50	-0.232422	0.082520	0.955078	-1.050000	8.050000	-1.120000	406.00	0.19	-0.01	0.00	0.00	0.50	1.00	0.50	0.00	0.00	0.50	1.25	1.50	2.00	1.75	3.00	2.00	0.25	0.75	-0.189453	-0.016602	0.980469	0.420000	-15.750000	-5.180000	151.00	0.17	-0.12
0.37	0.50	0.75	1.50	0.75	1.50	0.00	1.00	0.25	3.25	6.50	7.50	4.00	1.25	6.75	0.50	4.25	-0.228516	0.088379	0.946289	-0.210000	8.680000	-1.120000	400.00	0.19	-0.01	0.00	0.00	0.75	1.00	0.50	0.25	0.25	0.50	1.25	1.75	2.25	1.75	2.75	2.00	0.50	0.75	-0.189453	0.065430	0.960449	5.320000	-16.450001	9.100000	166.00	0.16	-0.10
0.38	0.50	0.50	1.25	0.75	1.75	0.25	1.25	0.25	3.25	6.75	7.50	3.75	1.25	6.75	0.50	4.25	-0.235840	0.083496	0.948242	0.840000	8.470000	-0.980000	404.00	0.19	-0.01	0.00	0.00	0.50	0.75	0.50	0.00	0.25	0.50	1.00	1.50	2.25	1.75	3.00	1.75	0.25	0.50	-0.194824	0.108398	0.974121	6.440000	-15.540000	13.370000	148.00	0.17	-0.12
0.39	0.50	0.75	1.25	0.75	1.50	0.00	1.25	0.25	3.25	6.50	7.50	3.75	1.25	6.75	0.50	4.50	-0.234863	0.081055	0.950684	1.330000	7.910000	-0.770000	400.00	0.20	-0.01	0.25	0.00	0.75	0.75	0.50	0.00	0.25	0.75	1.25	1.50	2.25	1.75	3.25	1.75	0.25	0.75	-0.194824	0.116211	0.975586	6.440000	-13.300000	13.370000	164.00	0.15	-0.11
0.40	0.50	0.75	1.25	0.50	1.50	0.00	1.00	0.25	3.25	6.50	7.50	4.00	1.25	6.50	0.50	4.50	-0.231445	0.088379	0.943848	1.400000	7.840000	-0.560000	394.00	0.20	-0.02	0.25	0.00	0.50	0.75	0.50	0.00	0.25	0.75	1.00	1.50	2.25	2.00	3.25	2.00	0.25	0.75	-0.186035	0.128418	0.966797	6.370000	-11.900000	12.390000	162.00	0.16	-0.12
0.41	0.50	0.75	1.25	0.75	1.50	0.25	1.00	0.25	3.25	6.75	7.75	3.75	1.00	6.25	0.50	4.50	-0.232422	0.083496	0.950684	0.980000	7.840000	-0.420000	398.00	0.19	-0.02	0.00	0.00	0.50	1.00	0.50	0.00	0.25	0.75	1.25	1.50	2.00	1.50	3.50	1.75	0.50	0.75	-0.196289	0.130371	0.964844	5.040000	-10.850000	11.130000	161.00	0.16	-0.12
0.42	0.50	0.75	1.25	0.50	1.50	0.00	1.25	0.25	3.25	6.50	7.50	4.00	1.00	6.50	0.50	4.50	-0.234863	0.088867	0.951660	0.630000	7.980000	-0.420000	395.00	0.20	-0.01	0.50	0.00	0.75	0.75	0.75	0.00	0.25	0.50	1.50	1.50	2.25	1.75	3.25	1.75	0.25	0.50	-0.185059	0.132324	0.958496	1.680000	-9.100000	8.680000	167.00	0.14	-0.09
0.43	0.50	0.75	1.25	0.75	1.50	0.25	1.00	0.25	3.25	6.25	7.50	4.00	1.25	6.50	0.50	4.25	-0.238281	0.088379	0.948730	0.630000	8.050000	-0.350000	395.00	0.19	-0.02	0.50	0.25	0.75	1.25	0.50	0.50	0.25	0.50	1.25	1.50	2.50	2.00	3.00	1.50	0.50	0.75	-0.192383	0.140625	0.966797	-1.540000	-8.610000	6.650000	179.00	0.12	-0.11
0.44	0.50	0.75	1.50	0.75	1.50	0.00	1.00	0.25	3.25	6.50	7.50	4.00	1.00	6.25	0.50	4.25	-0.229980	0.085938	0.950195	0.980000	7.770000	-0.140000	394.00	0.19	-0.01	0.50	0.25	0.75	1.00	0.75	0.25	0.25	0.50	1.25	1.50	2.00	1.50	3.00	1.50	0.25	0.75	-0.183105	0.125000	0.963867	-4.270000	-8.680000	5.390000	163.00	0.11	-0.10
0.45	0.50	1.25	1.25	0.75	1.50	0.25	1.00	0.25	3.00	6.75	7.50	4.00	1.25	6.00	0.50	4.25	-0.231445	0.087891	0.948730	1.260000	7.000000	0.070000	398.00	0.18	-0.02	0.50	0.75	1.00	1.50	0.75	0.25	0.25	0.50	1.25	1.50	2.00	1.75	3.00	1.75	0.25	0.50	-0.183594	0.121582	0.970215	-6.090000	-8.610000	4.900000	180.00	0.08	-0.10
0.46	0.25	1.25	1.25	0.75	1.50	0.00	1.00	0.25	2.75	6.50	7.25	4.00	1.25	6.00	0.50	4.25	-0.232910	0.086914	0.954590	1.260000	7.280000	0.070000	384.00	0.19	-0.03	0.50	0.50	1.00	1.75	0.75	0.25	0.25	0.50	1.25	1.50	2.00	1.50	2.75	1.25	0.25	0.50	-0.190430	0.112793	0.971191	-7.000000	-8.400000	4.760000	171.00	0.07	-0.10
0.47	0.50	1.25	1.50	1.00	1.50	0.50	1.00	0.50	2.75	6.50	7.25	3.75	1.00	5.75	0.00	4.25	-0.231934	0.094238	0.948730	1.190000	7.910000	0.070000	389.00	0.17	-0.03	0.75	0.50	1.00	2.00	1.00	0.25	0.25	0.75	1.25	1.50	2.00	1.25	3.00	1.50	0.25	0.50	-0.159668	0.104980	0.978027	-7.000000	-7.980000	4.830000	185.00	0.06	-0.10
0.48	0.50	1.25	1.25	1.00	1.50	0.25	1.00	0.25	2.75	6.25	7.50	4.00	1.00	5.75	0.50	4.25	-0.233398	0.085938	0.949707	1.400000	8.400000	-0.140000	388.00	0.18	-0.03	1.00	0.75	1.50	2.00	1.00	0.25	0.50	0.75	1.00	1.50	2.00	1.25	2.75	1.25	0.25	0.50	-0.175293	0.110840	0.972656	-6.300000	-7.490000	5.040000	191.00	0.03	-0.09
0.49	0.50	0.75	1.25	1.00	1.25	0.25	1.00	0.25	2.50	6.25	7.25	3.75	1.25	5.75	0.50	4.25	-0.232910	0.091797	0.950684	1.400000	8.540000	-0.140000	374.00	0.18	-0.03	0.75	1.00	1.50	2.25	1.00	0.00	0.25	0.50	1.25	1.25	1.75	1.25	2.25	1.50	0.25	0.25	-0.181152	0.106934	0.960449	-5.390000	-6.860000	5.110000	178.00	0.03	-0.08
0.50	0.50	1.50	1.25	1.00	1.25	0.50	1.00	0.25	2.75	6.75	7.50	3.75	1.00	5.75	0.25	4.25	-0.235352	0.087402	0.946289	1.540000	8.540000	-0.210000	390.00	0.17	-0.03	1.00	1.00	1.75	2.50	1.25	0.25	0.50	0.75	1.25	1.25	1.50	1.50	2.50	1.25	0.25	0.50	-0.190918	0.101074	0.974609	-4.690000	-6.370000	4.900000	201.00	0.01	-0.09
0.51	0.25	1.00	1.25	1.00	1.25	0.25	1.00	0.25	2.50	6.25	7.25	4.00	1.00	5.50	0.50	4.25	-0.235352	0.094727	0.945801	2.030000	8.330000	-0.070000	372.00	0.18	-0.03	1.00	0.75	1.50	2.50	1.25	0.25	0.50	0.50	1.25	1.50	1.50	1.25	2.50	1.25	0.25	0.50	-0.169922	0.112305	0.974121	-3.990000	-5.670000	4.480000	192.00	0.02	-0.08
0.52	0.50	1.00	1.25	1.00	1.25	0.00	1.00	0.25	2.50	6.25	7.25	3.75	1.00	5.25	0.25	4.25	-0.236816	0.092285	0.950195	2.660000	8.050000	0.070000	364.00	0.18	-0.03	1.00	1.00	1.50	2.25	1.25	0.50	0.50	0.75	1.25	1.75	1.50	0.75	2.50	1.25	0.25	0.50	-0.181152	0.113281	0.973145	-3.640000	-4.690000	3.850000	195.00	0.01	-0.08
0.53	0.25	1.00	1.00	0.75	1.25	0.00	1.00	0.25	2.50	5.75	7.00	3.50	1.00	5.50	0.25	4.00	-0.236328	0.092773	0.952148	3.220000	7.840000	0.210000	347.00	0.19	-0.02	1.00	1.25	1.50	2.00	1.25	0.25	0.50	0.50	1.25	1.75	1.50	1.00	2.25	1.00	0.25	0.50	-0.178223	0.114746	0.973145	-3.150000	-3.500000	3.080000	186.00	0.01	-0.07
0.54	0.25	0.75	1.00	0.75	1.25	0.00	1.00	0.25	2.25	6.00	7.00	3.75	1.00	5.25	0.25	4.25	-0.236816	0.094238	0.946289	3.430000	7.840000	0.280000	345.00	0.19	-0.03	1.00	1.00	1.50	2.75	1.25	0.50	0.50	0.50	1.25	1.25	1.50	1.25	2.50	1.25	0.25	0.50	-0.181641	0.109375	0.968262	-3.150000	-3.290000	3.010000	197.00	0.00	-0.09
0.55	0.25	0.75	0.75	0.50	1.25	0.00	1.00	0.25	2.00	5.75	7.00	3.75	1.00	5.25	0.25	4.25	-0.233398	0.092773	0.949707	3.360000	7.770000	0.350000	334.00	0.20	-0.03	1.25	1.50	1.75	2.50	1.25	0.50	0.50	0.75	1.25	1.50	1.75	1.00	2.00	1.50	0.25	0.50	-0.185059	0.105957	0.965332	-3.220000	-3.220000	2.590000	208.00	-0.01	-0.07
0.56	0.50	1.00	1.00	0.75	1.00	0.50	1.00	0.25	2.25	5.75	7.00	3.75	1.00	5.25	0.25	4.25	-0.235840	0.094727	0.947266	2.870000	7.000000	0.070000	350.00	0.18	-0.03	1.00	1.50	1.75	2.50	1.25	0.25	0.25	0.50	1.00	1.25	1.50	1.00	2.00	1.00	0.00	0.50	-0.180664	0.106445	0.969727	-2.940000	-3.290000	2.800000	180.00	-0.03	-0.09
0.57	0.25	0.75	1.00	0.25	1.00	0.25	1.00	0.25	1.75	5.75	7.00	3.75	1.25	5.00	0.25	4.50	-0.231445	0.095215	0.947754	2.380000	6.860000	-0.210000	332.00	0.20	-0.04	1.50	1.75	1.75	2.50	1.00	0.50	0.25	0.50	1.25	1.25	1.50	1.00	2.25	1.25	0.00	0.50	-0.183105	0.107910	0.970215	-2.800000	-3.360000	2.730000	195.00	-0.03	-0.08
0.58	0.25	0.75	0.75	0.50	1.25	0.00	1.00	0.25	1.75	5.75	6.75	3.75	1.25	5.25	0.25	4.25	-0.233887	0.097656	0.943359	1.960000	6.510000	-0.560000	330.00	0.20	-0.04	1.25	1.50	2.00	2.50	1.25	0.00	0.50	0.50	1.25	1.75	1.75	0.75	2.00	1.00	0.00	0.50	-0.173340	0.106934	0.963867	-2.590000	-3.220000	2.870000	195.00	-0.02	-0.06
0.59	0.50	1.00	0.75	0.75	1.00	0.00	1.00	0.25	2.00	5.50	7.00	3.75	0.75	5.00	0.25	4.25	-0.231445	0.098145	0.939453	1.680000	6.230000	-0.700000	332.00	0.19	-0.03	1.50	1.50	1.75	3.00	1.25	0.50	0.50	0.50	1.25	1.25	1.50	0.75	2.00	1.00	0.00	0.50	-0.174805	0.115723	0.964844	-2.310000	-2.870000	2.940000	198.00	-0.04	-0.07
0.60	0.50	0.75	1.00	0.50	1.00	0.25	1.00	0.25	2.00	5.50	6.75	3.75	1.25	5.00	0.25	4.25	-0.229980	0.099121	0.950684	1.400000	6.160000	-0.770000	334.00	0.19	-0.04	1.25	1.50	1.25	2.00	1.00	0.25	0.50	0.50	1.00	1.25	1.50	1.25	2.25	1.00	0.00	0.50	-0.176758	0.106445	0.970703	-2.240000	-2.870000	2.870000	177.00	-0.01	-0.09
0.61	0.50	0.75	0.75	0.75	1.00	0.25	1.00	0.25	1.75	5.50	7.00	3.75	1.25	5.00	0.25	4.25	-0.237305	0.099609	0.941406	1.190000	6.090000	-0.910000	334.00	0.19	-0.04	1.25	1.75	1.75	2.75	1.25	0.25	0.50	0.50	1.00	1.50	1.50	0.75	1.75	1.00	0.00	0.25	-0.180664	0.105469	0.973145	-2.100000	-2.870000	2.940000	188.00	-0.05	-0.07
0.62	0.25	0.75	1.00	0.75	1.00	0.00	1.00	0.25	2.00	5.50	7.00	4.00	0.75	4.50	0.25	4.25	-0.232910	0.097168	0.946289	0.700000	6.230000	-1.050000	328.00	0.19	-0.04	1.25	1.75	2.00	2.50	1.00	0.25	0.50	0.50	1.00	1.25	1.25	0.75	2.00	1.00	0.00	0.25	-0.175781	0.105957	0.967285	-1.960000	-2.800000	2.800000	182.00	-0.05	-0.07
0.63	0.50	0.75	1.00	0.75	1.00	0.00	1.00	0.25	1.75	5.50	7.00	4.00	1.00	5.00	0.25	4.25	-0.233887	0.097168	0.946289	0.210000	6.300000	-1.120000	334.00	0.19	-0.04	1.50	1.25	1.75	2.25	1.25	0.25	0.50	0.50	0.75	1.25	1.50	0.75	2.00	0.75	0.00	0.50	-0.181641	0.112793	0.970703	-1.890000	-2.940000	2.940000	176.00	-0.04	-0.08
0.64	0.25	0.75	1.00	0.75	1.25	0.25	1.00	0.50	1.50	5.25	6.75	3.75	1.25	5.00	0.25	4.25	-0.236328	0.094238	0.948730	0.070000	6.020000	-1.050000	332.00	0.18	-0.05	1.50	1.75	2.00	2.75	1.00	0.25	0.50	0.50	1.25	1.50	1.50	1.00	1.75	0.75	0.00	0.25	-0.176758	0.107910	0.966309	-1.680000	-3.010000	2.870000	194.00	-0.05	-0.07
0.65	0.50	0.75	1.00	0.75	1.00	0.50	1.00	0.50	1.75	5.25	7.00	3.75	1.00	5.00	0.25	4.50	-0.232422	0.096680	0.949707	-0.280000	6.020000	-1.120000	339.00	0.18	-0.05	1.25	1.75	1.75	2.75	1.25	0.00	0.50	0.50	1.00	1.25	1.25	0.75	1.75	0.75	0.00	0.50	-0.177734	0.113281	0.970215	-1.750000	-2.940000	2.730000	179.00	-0.05	-0.07
0.66	0.25	1.00	1.00	0.50	1.00	0.25	1.00	0.25	2.00	5.25	7.00	4.00	1.00	4.75	0.00	4.25	-0.241211	0.104004	0.945312	-0.630000	6.020000	-1.120000	330.00	0.19	-0.04	1.50	1.75	2.00	2.75	1.25	0.50	0.50	0.75	1.00	1.25	1.25	0.75	2.00	0.75	0.25	0.25	-0.178711	0.109375	0.972656	-1.960000	-3.010000	2.870000	197.00	-0.06	-0.08
0.67	0.50	0.75	0.75	0.75	1.00	0.25	1.00	0.50	1.50	5.25	7.00	4.00	1.25	4.75	0.25	4.25	-0.231445	0.100586	0.946777	-0.910000	6.090000	-1.190000	332.00	0.18	-0.06	1.50	1.75	1.75	2.75	1.00	0.00	0.25	0.25	1.00	0.75	1.25	1.00	1.75	0.75	0.00	0.25	-0.179688	0.113770	0.971191	-1.960000	-3.010000	2.940000	167.00	-0.07	-0.08
0.68	0.25	1.00	1.00	0.75	1.25	0.25	1.00	0.25	1.75	5.75	7.25	3.75	1.00	5.00	0.25	4.25	-0.236328	0.101074	0.947754	-0.910000	5.950000	-1.120000	342.00	0.18	-0.04	1.50	2.00	2.00	2.75	1.25	0.25	0.25	0.50	1.00	1.25	1.25	0.75	1.75	1.00	0.00	0.25	-0.175293	0.108398	0.970703	-2.100000	-3.010000	3.150000	186.00	-0.07	-0.07
0.69	0.50	0.75	1.00	0.75	1.00	0.50	1.00	0.25	1.50	5.50	7.00	4.00	1.50	5.00	0.25	4.25	-0.234375	0.100098	0.944336	-0.980000	5.880000	-0.980000	341.00	0.18	-0.05	1.75	2.00	1.50	3.00	1.00	0.25	0.25	0.50	0.75	1.00	1.00	0.75	1.25	0.50	0.00	0.25	-0.183594	0.109375	0.971680	-2.240000	-3.360000	3.080000	166.00	-0.10	-0.08
0.70	0.25	0.75	0.75	0.75	1.00	0.50	1.00	0.25	1.50	5.25	7.00	4.00	1.25	4.75	0.25	4.25	-0.237793	0.094238	0.945312	-1.260000	5.740000	-0.980000	328.00	0.19	-0.05	1.50	2.00	2.00	3.25	1.25	0.25	0.50	0.50	0.75	1.50	1.25	0.50	1.25	0.75	0.00	0.25	-0.185059	0.107422	0.975586	-1.470000	-3.430000	3.150000	186.00	-0.09	-0.07
0.71	0.50	1.00	1.00	0.75	1.25	0.25	1.00	0.50	1.50	5.25	7.00	4.00	1.25	4.75	0.25	4.25	-0.236328	0.096191	0.946777	-1.470000	5.740000	-0.980000	340.00	0.17	-0.05	1.75	2.00	2.00	3.00	1.00	0.25	0.25	0.50	0.75	1.00	1.00	0.50	1.50	0.75	0.00	0.25	-0.182129	0.112793	0.969727	-0.770000	-3.640000	3.150000	174.00	-0.10	-0.08
0.72	0.50	0.75	1.00	0.75	1.25	0.25	1.00	0.25	1.75	5.25	6.75	4.00	1.25	5.00	0.25	4.25	-0.232910	0.100586	0.942871	-1.540000	5.810000	-1.050000	337.00	0.18	-0.04	2.00	2.00	1.75	3.25	1.00	0.50	0.25	0.25	0.75	1.00	1.00	0.75	1.25	0.50	0.00	0.25	-0.181152	0.113281	0.965332	-0.770000	-4.270000	3.290000	173.00	-0.12	-0.08
0.73	0.25	1.00	1.25	1.00	1.00	0.25	1.00	0.50	1.50	5.25	7.00	4.00	1.25	4.75	0.25	4.25	-0.235840	0.098145	0.950195	-1.400000	5.810000	-0.910000	340.00	0.17	-0.06	1.75	2.50	2.50	3.50	1.25	0.25	0.25	0.50	0.75	1.00	1.00	0.50	1.25	0.50	0.00	0.25	-0.180176	0.113770	0.967285	-1.610000	-4.690000	3.500000	188.00	-0.13	-0.07
0.74	0.50	1.00	1.00	1.00	1.25	0.25	1.00	0.50	1.75	5.00	7.00	4.00	1.25	5.00	0.25	4.50	-0.235352	0.102051	0.951660	-1.190000	6.020000	-0.840000	347.00	0.17	-0.05	2.00	3.00	2.50	3.50	1.25	0.25	0.25	0.50	0.75	1.00	1.00	0.50	1.50	0.50	0.00	0.25	-0.174805	0.113770	0.967773	-1.820000	-4.480000	3.640000	197.00	-0.14	-0.08
0.75	0.50	1.00	1.00	1.00	1.25	0.25	1.00	0.50	1.75	5.00	7.00	4.00	1.25	4.75	0.25	4.25	-0.229492	0.097656	0.942383	-1.050000	6.160000	-0.700000	343.00	0.17	-0.05	2.50	3.00	2.50	3.75	1.25	0.25	0.50	0.50	0.50	0.75	1.00	0.50	1.50	0.50	0.00	0.25	-0.177246	0.110352	0.963867	-1.890000	-4.270000	3.500000	203.00	-0.15	-0.08
0.76	0.25	1.25	1.25	1.00	1.00	0.25	1.00	0.25	1.50	5.25	7.00	3.75	1.25	4.75	0.25	4.25	-0.234375	0.101074	0.947266	-0.910000	6.230000	-0.700000	336.00	0.17	-0.05	2.25	3.00	2.50	4.00	0.75	0.50	0.25	0.50	0.75	1.00	1.00	0.25	1.00	0.50	0.00	0.25	-0.172852	0.111328	0.971191	-1.960000	-4.060000	3.220000	195.00	-0.16	-0.08
0.77	0.50	1.00	1.25	1.00	1.25	0.50	1.00	0.25	1.75	5.00	7.00	3.75	1.25	4.50	0.25	4.25	-0.232422	0.104980	0.947754	-0.560000	6.720000	-0.700000	340.00	0.16	-0.05	2.25	3.25	2.50	4.00	1.25	0.50	0.25	0.50	0.75	1.25	0.75	0.50	1.00	0.50	0.00	0.25	-0.177246	0.113281	0.965332	-2.170000	-4.060000	3.150000	206.00	-0.16	-0.07
0.78	0.50	1.00	1.25	1.00	1.25	0.50	1.00	0.50	1.25	5.00	7.00	4.00	1.25	4.75	0.25	4.25	-0.234863	0.099609	0.953613	-0.350000	7.000000	-0.630000	342.00	0.16	-0.06	2.50	3.25	2.75	4.00	1.25	0.50	0.25	0.50	0.75	0.75	0.75	0.50	1.25	0.50	0.00	0.25	-0.175293	0.112793	0.963379	-2.450000	-3.990000	3.150000	208.00	-0.17	-0.08
0.79	0.25	1.25	1.25	1.00	1.25	0.50	1.00	0.50	1.50	5.00	7.00	4.00	1.25	4.25	0.00	4.50	-0.233887	0.098633	0.948242	-0.140000	7.280000	-0.700000	340.00	0.16	-0.06	2.50	3.50	2.50	4.00	1.25	0.75	0.25	0.50	0.50	1.00	0.75	0.50	1.00	0.25	0.00	0.25	-0.183594	0.117188	0.966309	-2.800000	-3.920000	3.290000	205.00	-0.18	-0.08
0.80	0.50	1.00	1.25	1.00	1.00	0.25	1.00	0.25	1.50	4.75	6.75	3.25	1.25	4.25	0.25	4.50	-0.235352	0.096191	0.939941	-0.070000	7.420000	-0.560000	320.00	0.17	-0.05	2.50	3.25	2.75	4.25	1.25	0.50	0.25	0.50	0.75	1.00	1.00	0.25	1.25	0.50	0.00	0.25	-0.178223	0.113281	0.973633	-3.150000	-3.640000	3.290000	213.00	-0.16	-0.07
0.81	0.50	1.25	1.25	1.25	1.25	0.25	1.00	0.25	1.25	5.00	6.75	3.75	1.25	4.25	0.25	4.25	-0.233887	0.099121	0.946777	-0.000000	7.490000	-0.630000	331.00	0.16	-0.06	2.50	3.50	2.75	4.50	1.25	0.50	0.25	0.50	0.50	1.00	1.00	0.25	1.25	0.50	0.00	0.25	-0.180664	0.117188	0.965332	-3.220000	-3.570000	3.220000	215.00	-0.17	-0.08
0.82	0.50	1.00	1.25	1.00	1.00	0.00	1.00	0.25	1.25	5.00	6.75	3.75	1.00	4.50	0.25	4.25	-0.235352	0.098633	0.943359	-0.000000	7.350000	-0.560000	321.00	0.17	-0.05	2.50	3.75	2.75	4.25	1.25	0.75	0.25	0.50	0.50	1.00	0.75	0.50	1.00	0.50	0.00	0.25	-0.174805	0.105469	0.961426	-3.150000	-3.570000	3.150000	215.00	-0.18	-0.08
0.83	0.50	1.25	1.00	1.00	1.25	0.25	1.00	0.25	1.50	4.50	6.75	3.75	1.25	4.25	0.25	4.25	-0.237793	0.099609	0.949707	0.140000	7.140000	-0.490000	324.00	0.16	-0.06	3.00	4.00	3.00	4.50	1.25	0.50	0.25	0.50	0.75	1.00	1.00	0.50	1.00	0.50	0.00	0.25	-0.178711	0.109863	0.963867	-3.220000	-3.710000	2.800000	232.00	-0.18	-0.07
0.84	0.50	1.25	1.00	1.25	1.00	0.25	1.00	0.25	1.50	4.75	6.50	3.75	1.00	4.00	0.00	4.00	-0.232422	0.104980	0.948730	0.140000	7.420000	-0.560000	315.00	0.16	-0.05	2.75	4.00	3.25	4.75	1.25	0.50	0.25	0.50	0.75	0.75	0.75	0.50	1.00	0.75	0.00	0.25	-0.174805	0.114258	0.965332	-3.290000	-4.270000	2.730000	231.00	-0.18	-0.07
0.85	0.75	1.25	1.00	0.75	1.00	0.50	1.00	0.50	1.25	4.75	6.50	3.75	0.75	4.00	0.00	4.25	-0.235840	0.105469	0.946289	0.140000	7.840000	-0.700000	315.00	0.15	-0.06	3.00	4.25	2.75	5.00	1.25	0.50	0.50	0.50	0.75	0.75	1.00	0.25	1.25	0.50	0.00	0.25	-0.178223	0.106445	0.971191	-3.220000	-4.620000	2.800000	237.00	-0.18	-0.08
0.86	0.50	1.00	1.00	1.00	1.00	0.25	1.00	0.25	1.25	5.00	6.75	3.50	0.75	4.00	0.00	4.25	-0.233398	0.104004	0.944824	0.140000	7.770000	-0.490000	309.00	0.17	-0.05	3.25	4.50	3.00	4.75	1.50	0.75	0.25	0.75	0.50	1.00	1.00	0.50	1.25	0.50	0.00	0.25	-0.182129	0.107422	0.967285	-2.870000	-4.480000	3.010000	250.00	-0.18	-0.09
0.87	0.50	1.00	1.25	1.00	1.00	0.25	1.00	0.25	1.25	4.75	6.50	3.50	1.00	4.00	0.25	4.25	-0.237793	0.104980	0.940430	0.070000	7.560000	-0.350000	311.00	0.16	-0.05	3.25	5.00	3.25	5.00	1.25	0.75	0.50	0.50	0.50	1.00	0.75	0.25	1.25	0.25	0.00	0.25	-0.176758	0.117188	0.972168	-2.310000	-4.200000	3.010000	250.00	-0.20	-0.08
0.88	0.50	1.00	0.75	1.25	1.00	0.25	1.00	0.25	1.00	4.75	7.00	3.50	1.00	3.75	0.00	4.25	-0.235840	0.104492	0.943848	-0.000000	7.280000	-0.280000	306.00	0.16	-0.06	3.25	4.75	3.25	5.00	1.25	0.75	0.25	0.50	1.00	0.75	1.00	0.50	0.75	0.50	0.00	0.00	-0.179199	0.114746	0.979980	-1.960000	-4.200000	3.080000	249.00	-0.19	-0.07
0.89	0.50	1.25	1.00	1.25	0.75	0.50	0.75	0.25	1.25	4.50	6.75	3.50	1.00	3.75	0.00	4.25	-0.238770	0.101074	0.944824	-0.420000	7.490000	-0.420000	305.00	0.16	-0.07	3.25	5.00	3.50	5.00	1.25	0.75	0.25	0.50	0.75	0.75	1.00	0.75	1.25	0.50	0.00	0.25	-0.173340	0.112793	0.965820	-1.820000	-4.130000	3.150000	259.00	-0.19	-0.08
0.90	0.50	1.00	1.00	1.00	1.00	0.50	1.00	0.25	1.00	4.50	6.25	3.75	1.00	3.75	0.25	4.25	-0.240234	0.108887	0.938965	-0.630000	7.840000	-0.700000	303.00	0.16	-0.06	3.50	5.00	3.50	5.25	1.25	0.75	0.50	0.50	0.50	0.75	1.00	0.25	1.25	0.25	0.00	0.25	-0.175781	0.112305	0.964844	-2.100000	-4.550000	3.150000	258.00	-0.21	-0.08
0.91	0.75	1.00	1.25	1.00	1.00	0.50	0.75	0.25	1.00	4.50	6.50	3.75	1.00	3.75	0.25	4.25	-0.230957	0.105957	0.942383	-0.700000	8.400000	-0.840000	307.00	0.15	-0.07	3.50	5.00	3.75	5.25	1.25	1.25	0.25	0.50	0.75	0.75	1.00	0.25	1.25	0.25	0.00	0.25	-0.171387	0.111816	0.953613	-2.310000	-5.320000	3.150000	265.00	-0.21	-0.08
0.92	0.25	1.00	1.00	0.75	1.00	0.25	1.00	0.25	1.25	4.25	6.75	3.50	0.75	3.75	0.00	4.25	-0.239746	0.104980	0.945801	-0.490000	8.610000	-0.910000	294.00	0.17	-0.06	3.50	5.25	3.75	5.50	1.50	1.25	0.50	0.75	0.75	0.75	1.00	0.75	1.50	0.50	0.00	0.25	-0.175293	0.112793	0.969238	-3.220000	-5.880000	3.220000	290.00	-0.19	-0.09
0.93	0.25	1.00	1.00	0.75	0.75	0.00	1.00	0.25	1.25	4.50	6.25	3.50	0.75	3.50	0.00	4.00	-0.235352	0.103027	0.948242	-0.420000	8.540000	-0.770000	282.00	0.17	-0.05	3.75	5.25	3.75	5.50	1.50	1.00	0.50	0.75	0.75	0.75	1.00	0.50	1.50	0.50	0.00	0.25	-0.183105	0.107910	0.968262	-3.780000	-6.370000	2.870000	288.00	-0.19	-0.08
0.94	0.50	1.00	1.00	0.75	0.75	0.00	1.00	0.00	0.75	4.25	6.25	3.25	0.75	3.50	0.00	4.00	-0.237793	0.103027	0.940918	-0.490000	8.470000	-0.770000	269.00	0.17	-0.05	3.75	5.25	4.00	5.75	1.50	1.25	0.50	0.75	0.25	0.75	1.00	0.50	1.25	0.50	0.00	0.25	-0.171875	0.114258	0.969238	-3.850000	-6.650000	2.800000	287.00	-0.21	-0.09
0.95	0.00	0.50	0.75	0.25	0.75	0.00	0.75	0.00	1.25	4.25	6.25	3.25	0.50	3.25	0.00	4.25	-0.239258	0.107910	0.948730	-0.490000	8.400000	-0.840000	251.00	0.21	-0.05	3.75	5.50	4.00	5.75	1.75	1.50	0.50	0.75	0.75	1.00	1.25	0.50	1.25	0.50	0.00	0.25	-0.182617	0.115234	0.963379	-3.920000	-7.000000	3.010000	307.00	-0.19	-0.08
0.96	0.00	0.75	0.50	0.50	0.75	0.00	0.75	0.00	1.00	4.25	6.25	3.25	0.50	3.00	0.00	4.00	-0.239258	0.106934	0.945312	-0.630000	8.820000	-0.770000	246.00	0.20	-0.06	4.25	5.75	4.25	6.00	1.75	1.50	0.50	0.75	0.75	1.00	0.75	0.50	1.50	0.50	0.00	0.25	-0.173828	0.106445	0.963379	-4.060000	-7.350000	3.220000	317.00	-0.20	-0.08
0.97	0.00	0.25	0.50	0.00	0.50	0.00	0.75	0.00	0.75	4.25	6.25	3.50	0.50	3.25	0.00	4.00	-0.238770	0.107910	0.951172	-0.560000	9.100000	-0.770000	235.00	0.23	-0.06	4.25	6.00	4.50	6.50	1.75	1.50	0.50	1.25	1.00	1.00	1.25	0.75	1.50	0.50	0.25	0.25	-0.175293	0.105469	0.965820	-4.200000	-8.190000	3.430000	349.00	-0.18	-0.09
0.98	0.00	0.50	0.25	0.50	0.75	0.00	0.75	0.00	1.25	4.25	6.25	3.25	0.75	3.00	0.00	4.00	-0.238281	0.106934	0.946289	-0.560000	9.870000	-1.120000	247.00	0.21	-0.06	4.50	6.75	4.75	6.75	2.00	1.75	0.50	1.00	0.75	1.00	1.00	0.75	1.50	0.25	0.00	0.25	-0.171387	0.109375	0.968262	-3.640000	-8.750000	3.430000	355.00	-0.20	-0.09
0.99	0.00	0.00	0.25	0.00	0.50	0.00	0.75	0.00	0.75	4.25	6.00	3.25	0.50	3.00	0.00	4.00	-0.233398	0.110352	0.940430	-0.770000	10.430000	-1.260000	223.00	0.24	-0.06	4.75	7.25	5.00	7.25	2.00	2.25	0.50	1.00	0.75	1.25	1.00	0.50	2.00	0.25	0.00	0.25	-0.165527	0.112793	0.973145	-2.870000	-8.610000	3.220000	380.00	-0.21	-0.09
1.00	0.00	0.00	0.00	0.00	0.25	0.00	0.75	0.00	0.75	4.25	6.00	3.25	0.50	3.00	0.00	3.75	-0.233398	0.100586	0.944824	-0.420000	10.850000	-1.190000	216.00	0.25	-0.06	5.25	7.75	5.25	7.50	2.25	2.25	0.50	1.00	1.00	1.25	1.25	0.75	1.50	0.50	0.00	0.25	-0.167969	0.110352	0.977539	-2.310000	-8.190000	3.150000	404.00	-0.20	-0.08
1.01	0.00	0.00	0.25	0.00	0.25	0.00	0.75	0.00	1.00	4.00	6.00	3.50	0.25	2.50	0.00	4.25	-0.235840	0.104980	0.934082	0.210000	11.760000	-1.330000	218.00	0.24	-0.06	5.75	7.75	5.50	8.00	2.25	2.75	0.50	1.25	0.75	1.00	1.50	0.75	2.00	0.25	0.00	0.25	-0.176270	0.127441	0.979980	-2.520000	-7.700000	2.870000	426.00	-0.21	-0.10
1.02	0.00	0.00	0.00	0.00	0.25	0.00	0.75	0.00	0.75	4.25	6.25	3.25	0.50	2.75	0.00	4.00	-0.229980	0.113281	0.958008	0.210000	13.300000	-1.820000	217.00	0.25	-0.06	6.00	8.25	5.75	8.25	2.50	2.75	0.50	1.25	0.75	1.25	1.25	1.00	1.75	0.50	0.00	0.25	-0.170410	0.114258	0.980957	-2.940000	-7.210000	2.940000	444.00	-0.21	-0.09
1.03	0.00	0.00	0.00	0.00	0.25	0.00	0.75	0.00	1.00	4.25	6.25	3.25	0.25	2.75	0.00	4.00	-0.228027	0.111328	0.968262	0.350000	16.309999	-3.010000	219.00	0.25	-0.06	6.00	8.50	5.75	8.25	2.50	3.25	0.50	1.25	0.50	0.75	1.25	0.75	1.50	0.50	0.00	0.50	-0.172363	0.112793	0.970703	-2.730000	-6.300000	3.080000	440.00	-0.22	-0.10
1.04	0.00	0.25	0.00	0.00	0.00	0.00	0.75	0.00	0.75	4.50	6.50	3.25	0.75	2.50	0.25	4.00	-0.186035	0.170898	0.976562	-0.560000	21.490000	-5.530000	225.00	0.24	-0.07	6.50	9.00	6.25	8.50	2.50	3.25	0.50	1.25	0.75	1.25	1.25	1.00	2.00	0.50	0.00	0.50	-0.169922	0.108887	0.979004	-2.520000	-5.740000	3.080000	473.00	-0.21	-0.09
1.05	0.00	0.00	0.00	0.00	0.00	0.00	0.75	0.00	0.75	4.50	6.25	3.25	0.50	2.50	0.00	4.25	-0.245605	0.215332	1.050293	-1.610000	33.950001	-10.220000	217.00	0.25	-0.07	6.75	9.25	6.25	8.75	2.50	3.75	0.50	1.25	0.75	1.00	1.50	1.00	2.00	0.50	0.00	0.25	-0.167480	0.110840	0.973145	-2.520000	-5.250000	3.080000	485.00	-0.21	-0.10
1.06	0.00	0.50	0.25	0.00	0.00	0.00	0.50	0.00	0.75	4.50	6.25	3.25	0.75	2.25	0.00	4.00	-0.189941	0.175293	1.124023	22.680000	75.389999	-13.720000	219.00	0.23	-0.08	7.00	9.50	6.50	9.00	2.50	3.50	0.50	1.75	0.00	1.25	1.50	1.00	1.75	0.75	0.00	0.25	-0.166992	0.110352	0.976562	-2.520000	-5.040000	3.150000	493.00	-0.22	-0.10
1.07	0.00	0.00	0.00	0.00	0.00	0.00	0.50	0.00	0.00	4.00	5.75	3.25	0.00	2.25	0.00	4.00	-0.263672	0.101074	1.079102	23.590000	103.599998	-14.560000	185.00	0.25	-0.09	7.75	9.50	6.75	9.00	2.75	4.00	0.50	1.50	1.00	0.75	1.25	0.75	2.25	0.25	0.00	0.50	-0.172363	0.096680	0.976562	-1.330000	-4.970000	3.150000	512.00	-0.22	-0.09
1.08	0.00	0.00	0.00	0.00	0.00	0.00	0.50	0.00	0.25	3.75	5.75	3.00	0.25	1.50	0.00	4.00	-0.372559	0.140137	1.335449	23.379999	128.449997	-15.330000	179.00	0.25	-0.09	8.00	10.25	6.75	9.25	2.50	3.75	0.50	1.50	0.75	1.00	1.25	0.75	2.00	0.50	0.00	0.50	-0.166504	0.110840	0.975098	0.070000	-4.970000	3.290000	518.00	-0.22	-0.09
1.09	0.00	0.00	0.00	0.00	0.00	0.00	0.50	0.00	0.00	3.75	5.75	3.00	0.00	0.50	0.00	3.75	-0.444824	0.118652	1.353027	24.219999	148.680008	-16.730000	163.00	0.24	-0.11	8.00	10.00	7.00	9.50	2.75	4.00	0.50	1.75	1.00	1.00	1.00	1.00	2.00	1.00	0.00	0.50	-0.162109	0.112793	0.975586	0.700000	-4.620000	3.290000	538.00	-0.21	-0.09
1.10	0.00	0.00	0.00	0.00	0.00	0.00	0.50	0.00	0.25	3.25	5.50	2.75	0.00	0.25	0.00	4.00	-0.236328	0.190430	1.371094	29.049999	165.059998	-19.180000	155.00	0.24	-0.11	8.00	10.25	7.00	9.75	2.75	4.25	0.50	1.50	0.75	1.25	1.00	0.75	1.75	0.50	0.00	0.25	-0.165039	0.117188	0.972168	0.770000	-4.200000	3.150000	531.00	-0.23	-0.09
1.11	0.00	0.00	0.00	0.00	0.00	0.00	0.50	0.00	0.00	3.25	5.50	2.75	0.00	0.25	0.00	3.75	-0.300293	0.056641	1.299316	18.200001	171.289993	-16.030001	151.00	0.24	-0.11	8.75	10.50	7.25	9.75	2.75	4.50	0.50	1.50	0.75	1.25	1.25	0.75	2.00	0.25	0.00	0.25	-0.164551	0.117188	0.979980	0.420000	-3.780000	3.010000	549.00	-0.23	-0.09
1.12	0.00	1.00	0.00	0.00	0.00	0.00	0.50	0.00	0.00	3.25	5.50	2.75	0.00	0.00	0.00	4.00	-0.238770	0.126465	1.378906	16.450001	174.229996	-11.550000	159.00	0.20	-0.12	8.50	10.75	7.25	9.75	2.50	4.25	0.50	1.50	0.50	0.75	1.00	0.50	2.00	0.25	0.00	0.25	-0.169434	0.118164	0.974121	-0.210000	-3.290000	2.800000	530.00	-0.24	-0.09
1.13	0.00	0.00	0.00	0.00	0.00	0.00	0.50	0.00	0.00	3.00	5.25	2.75	0.00	0.00	0.00	3.75	0.424805	0.196777	1.409668	27.090000	174.720001	-7.420000	143.00	0.24	-0.12	8.50	10.75	7.50	9.50	2.75	4.25	0.50	1.50	0.50	1.00	1.00	0.75	1.75	0.25	0.00	0.25	-0.170898	0.111816	0.979492	0.700000	-2.520000	2.730000	536.00	-0.24	-0.09
1.14	0.00	0.25	0.00	0.00	0.00	0.00	0.50	0.00	0.00	3.00	5.25	2.75	0.00	0.00	0.00	3.75	0.469727	0.342773	1.798828	24.010000	159.809998	5.250000	146.00	0.23	-0.12	8.75	10.50	7.50	9.75	2.75	4.25	0.50	1.50	0.75	0.75	1.00	1.00	2.00	0.25	0.00	0.25	-0.172363	0.112305	0.969727	1.190000	-2.310000	2.940000	544.00	-0.23	-0.09
1.15	0.00	0.00	0.00	0.00	0.00	0.00	0.50	0.00	0.00	3.00	5.00	2.75	0.00	0.00	0.00	3.75	0.915039	0.200195	2.200195	-5.250000	116.340004	21.700001	141.00	0.24	-0.12	8.50	10.75	7.50	9.75	2.50	4.00	0.50	1.25	0.50	1.00	0.75	0.75	1.25	0.00	0.00	0.25	-0.157227	0.113770	0.971191	0.910000	-1.960000	3.010000	520.00	-0.25	-0.09
1.16	0.25	0.25	0.00	0.00	0.00	0.00	0.50	0.00	0.00	3.00	5.25	2.50	0.00	0.00	0.00	3.75	0.992676	0.029297	1.609375	-34.509998	62.930000	34.509998	146.00	0.22	-0.12	9.00	10.75	7.50	9.75	2.50	4.25	0.50	1.50	0.50	0.75	0.75	0.75	1.75	0.25	0.00	0.50	-0.164551	0.120117	0.967285	0.420000	-1.890000	2.800000	537.00	-0.24	-0.09
1.17	0.00	0.00	0.00	0.00	0.00	0.00	0.50	0.00	0.00	3.00	5.00	2.75	0.00	0.00	0.00	3.75	1.042969	-0.150391	1.094238	-38.150002	30.799999	33.320000	141.00	0.24	-0.12	9.25	11.50	7.50	9.75	2.50	4.00	0.50	1.25	0.50	0.75	0.75	0.50	1.75	0.25	0.00	0.25	-0.160645	0.118164	0.964844	-0.560000	-1.960000	2.590000	536.00	-0.25	-0.09
1.18	0.00	0.25	0.00	0.00	0.00	0.00	0.50	0.00	0.00	3.25	5.00	2.75	0.00	0.00	0.00	3.75	1.042969	-0.253906	0.928711	-23.520000	17.219999	17.850000	146.00	0.23	-0.12	9.00	11.00	7.25	9.75	2.50	4.00	0.50	1.50	0.50	0.75	0.75	0.75	1.75	0.00	0.00	0.25	-0.167480	0.118164	0.971680	-1.260000	-2.100000	2.450000	530.00	-0.25	-0.09
1.19	0.00	0.00	0.00	0.00	0.00	0.00	0.50	0.00	0.00	3.25	5.00	2.50	0.00	0.00	0.00	3.75	1.029785	-0.180176	1.012207	-21.629999	-13.230000	-17.710001	141.00	0.24	-0.12	8.75	10.75	7.25	9.75	2.50	4.00	0.50	1.25	0.50	0.75	0.75	0.75	1.75	0.25	0.00	0.25	-0.167480	0.115723	0.966797	-1.330000	-2.450000	2.450000	524.00	-0.25	-0.09
1.20	0.00	0.25	0.00	0.00	0.00	0.00	0.50	0.00	0.00	3.25	5.00	2.75	0.00	0.00	0.00	3.75	0.987793	-0.080078	0.909180	-28.700001	-30.870001	-27.580000	146.00	0.23	-0.12	9.25	10.75	7.25	9.75	2.50	4.00	0.50	1.25	0.50	0.75	0.75	0.75	1.75	0.25	0.00	0.25	-0.165039	0.113281	0.956543	-1.470000	-2.940000	2.380000	529.00	-0.25	-0.09
1.21	0.00	0.00	0.00	0.00	0.00	0.00	0.50	0.00	0.00	3.00	5.00	2.25	0.00	0.00	0.00	3.75	0.924805	-0.019531	0.836914	-29.540001	-42.630001	-33.810001	135.00	0.24	-0.12	9.00	11.00	7.25	9.75	2.25	4.00	0.50	1.00	0.50	0.75	0.75	0.75	1.50	0.50	0.00	0.25	-0.156738	0.113281	0.970703	-2.030000	-3.500000	2.240000	522.00	-0.25	-0.09
1.22	0.00	0.00	0.00	0.00	0.00	0.00	0.50	0.00	0.00	3.00	5.25	2.50	0.00	0.00	0.00	3.75	0.825684	0.102051	0.911621	-21.840000	-52.500000	-36.610001	141.00	0.24	-0.12	9.00	11.00	7.50	9.75	2.50	3.75	0.50	1.25	0.75	0.75	0.75	0.50	1.75	0.50	0.00	0.25	-0.166504	0.118652	0.968262	-2.730000	-3.780000	1.960000	531.00	-0.24	-0.08
1.23	0.00	0.00	0.00	0.00	0.00	0.00	0.50	0.00	0.00	3.25	5.00	2.50	0.00	0.00	0.00	3.75	0.724609	0.190918	1.079590	-9.170000	-65.309998	-35.349998	141.00	0.24	-0.12	8.75	11.00	7.50	9.75	2.50	4.00	0.50	1.50	0.50	0.75	0.75	0.75	2.00	0.25	0.00	0.25	-0.165527	0.118164	0.965820	-3.290000	-3.780000	1.960000	535.00	-0.24	-0.09
1.24	0.00	0.00	0.00	0.00	0.00	0.00	0.50	0.00	0.00	3.00	5.00	2.50	0.00	0.00	0.00	3.75	0.588867	0.264648	1.231934	6.510000	-84.279999	-30.309999	138.00	0.24	-0.12	8.75	11.00	7.50	9.75	2.50	3.75	0.50	1.50	0.50	0.75	0.50	0.75	1.50	0.00	0.00	0.25	-0.166504	0.114746	0.970703	-3.500000	-3.780000	2.100000	523.00	-0.25	-0.09
1.25	0.00	0.00	0.00	0.00	0.00	0.00	0.50	0.00	0.00	3.00	5.00	2.50	0.00	0.00	0.00	3.75	0.442871	0.242188	1.306152	17.360001	-106.610001	-22.960001	138.00	0.24	-0.12	9.25	11.00	7.50	9.75	2.50	4.00	0.50	1.50	0.50	0.75	0.75	0.75	1.75	0.50	0.00	0.00	-0.171387	0.111328	0.969727	-2.870000	-3.990000	2.100000	539.00	-0.25	-0.09
1.26	0.00	0.00	0.00	0.00	0.00	0.00	0.50	0.00	0.00	3.00	5.00	2.25	0.00	0.00	0.00	3.75	0.269531	0.212891	1.296387	20.160000	-127.680000	-15.540000	135.00	0.24	-0.12	9.50	11.00	7.50	9.75	2.50	4.00	0.50	1.25	0.75	0.75	1.00	0.50	1.75	0.25	0.00	0.25	-0.160156	0.119141	0.965332	-2.450000	-4.060000	2.100000	540.00	-0.25	-0.08
1.27	0.00	0.00	0.00	0.00	0.00	0.00	0.50	0.00	0.00	3.00	4.75	2.25	0.00	0.00	0.00	3.50	0.111816	0.199707	1.230469	17.360001	-143.149994	-10.150000	131.00	0.24	-0.11	9.75	11.00	7.50	10.00	2.50	4.00	0.25	1.25	0.25	1.00	1.00	1.00	1.50	0.50	0.00	0.00	-0.165039	0.115723	0.962402	-3.080000	-4.060000	2.100000	541.00	-0.25	-0.09
1.28	0.00	0.00	0.00	0.00	0.00	0.00	0.50	0.00	0.00	3.00	5.00	2.75	0.00	0.00	0.00	3.75	-0.051758	0.207520	1.174316	16.100000	-150.990005	-7.420000	141.00	0.24	-0.12	9.50	11.00	7.50	9.75	2.50	4.00	0.50	1.25	0.50	0.75	0.75	1.00	1.75	0.50	0.00	0.00	-0.165039	0.112305	0.965332	-3.850000	-4.130000	1.960000	540.00	-0.25	-0.09
1.29	0.00	0.00	0.00	0.00	0.00	0.00	0.50	0.00	0.00	3.00	5.00	2.50	0.00	0.00	0.00	3.75	-0.195801	0.208984	1.131348	20.440001	-152.460007	-5.950000	138.00	0.24	-0.12	9.50	11.00	7.50	10.00	2.50	4.00	0.50	1.25	0.75	0.75	0.75	0.50	1.75	0.50	0.00	0.25	-0.164551	0.118164	0.968750	-4.270000	-4.060000	1.820000	542.00	-0.25	-0.08
1.30	0.00	0.00	0.00	0.00	0.00	0.00	0.50	0.00	0.00	3.00	5.00	2.50	0.00	0.00	0.00	3.75	-0.342285	0.188477	1.107910	27.650000	-149.169998	-3.920000	138.00	0.24	-0.12	9.25	11.00	8.00	10.00	2.50	4.00	0.50	1.25	0.50	1.00	0.75	0.75	1.25	0.50	0.00	0.25	-0.164551	0.110840	0.967773	-4.690000	-4.270000	1.680000	543.00	-0.25	-0.08
1.31	0.00	0.00	0.00	0.00	0.00	0.00	0.50	0.00	0.00	3.00	5.00	2.75	0.00	0.00	0.00	3.75	-0.452148	0.186035	1.091309	31.290001	-142.240005	-0.280000	141.00	0.24	-0.12	9.25	11.25	7.75	10.00	2.50	4.00	0.50	1.25	0.50	1.00	0.75	0.75	1.50	0.50	0.00	0.50	-0.170898	0.120117	0.966797	-5.040000	-4.410000	1.680000	546.00	-0.24	-0.09
1.32	0.00	0.00	0.00	0.00	0.00	0.00	0.50	0.00	0.00	2.75	4.75	2.50	0.00	0.00	0.00	3.50	-0.571777	0.244141	1.255371	32.480000	-135.100006	6.580000	131.00	0.24	-0.12	9.75	11.25	8.00	10.25	2.50	4.00	0.50	1.50	0.75	1.00	1.00	0.75	1.75	0.50	0.00	0.25	-0.162598	0.111328	0.969238	-5.320000	-4.480000	1.750000	567.00	-0.24	-0.08
1.33	0.00	0.25	0.00	0.00	0.00	0.00	0.50	0.00	0.00	3.00	4.75	2.50	0.00	0.00	0.00	3.50	-0.660645	0.375488	1.542969	35.490002	-138.039993	19.670000	136.00	0.23	-0.12	9.50	11.25	8.00	10.00	2.75	4.00	0.50	1.25	0.50	1.00	0.75	0.75	1.75	0.50	0.00	0.25	-0.166016	0.107910	0.970703	-2.940000	-4.620000	2.100000	555.00	-0.24	-0.08
1.34	0.00	0.00	0.00	0.00	0.00	0.00	0.50	0.00	0.00	3.25	5.25	2.50	0.00	0.00	0.00	3.75	-0.697266	0.408691	1.623535	34.509998	-156.309998	38.500000	143.00	0.24	-0.12	9.75	11.25	8.00	10.25	2.75	4.00	0.50	1.25	0.75	1.00	0.75	0.75	1.75	0.50	0.00	0.25	-0.163086	0.115234	0.969238	-2.240000	-4.760000	2.240000	563.00	-0.24	-0.08
1.35	0.00	0.00	0.00	0.00	0.00	0.00	0.50	0.00	0.00	3.00	5.00	2.25	0.00	0.00	0.00	3.75	-0.760742	0.350586	1.440430	26.880001	-178.009995	58.730000	135.00	0.24	-0.12	9.50	11.00	8.25	10.25	3.00	4.50	0.50	1.25	0.50	1.00	0.75	0.75	2.00	0.25	0.00	0.25	-0.166992	0.118164	0.970703	-2.170000	-4.970000	2.240000	566.00	-0.24	-0.09
1.36	0.00	0.00	0.00	0.00	0.00	0.00	0.50	0.00	0.00	3.00	5.00	2.25	0.00	0.00	0.00	3.75	-0.839355	0.254883	1.086914	17.990000	-187.180008	75.320000	135.00	0.24	-0.12	10.25	11.75	8.25	10.50	3.00	4.50	0.50	1.50	0.75	1.00	1.00	0.75	2.00	0.25	0.00	0.25	-0.170898	0.107422	0.977539	-1.820000	-4.970000	2.380000	593.00	-0.24	-0.09
1.37	0.00	0.00	0.00	0.00	0.00	0.00	0.50	0.00	0.00	3.25	5.00	2.25	0.00	0.00	0.00	3.75	-0.947266	0.204590	0.840820	11.900000	-177.100006	85.400002	138.00	0.24	-0.11	10.00	11.75	8.25	10.25	3.25	4.75	0.50	1.75	0.75	0.75	1.00	1.00	2.00	0.25	0.00	0.00	-0.165039	0.111816	0.971191	-1.680000	-4.970000	2.450000	596.00	-0.24	-0.09
1.38	0.00	0.00	0.00	0.00	0.00	0.00	0.50	0.00	0.00	3.00	4.75	2.25	0.00	0.00	0.00	3.75	-1.041016	0.188477	0.768066	8.400000	-154.839996	90.650002	133.00	0.24	-0.12	9.75	12.25	8.25	10.50	3.00	4.75	0.50	1.50	0.75	1.00	1.00	0.75	1.75	0.25	0.00	0.25	-0.166992	0.111328	0.974121	-1.330000	-4.620000	2.660000	593.00	-0.24	-0.09
1.39	0.00	0.00	0.00	0.00	0.00	0.00	0.50	0.00	0.00	3.00	5.00	2.50	0.00	0.00	0.00	3.75	-1.098145	0.206055	0.810059	5.320000	-132.509995	93.800003	138.00	0.24	-0.12	10.75	12.00	8.25	10.75	3.00	5.00	0.50	1.75	0.75	0.75	1.00	0.50	2.00	0.50	0.00	0.25	-0.160156	0.120605	0.973633	-1.610000	-4.340000	2.520000	610.00	-0.24	-0.09
1.40	0.00	0.00	0.00	0.00	0.00	0.00	0.50	0.00	0.00	3.00	5.00	2.75	0.00	0.00	0.00	3.75	-1.219727	0.178711	0.828613	-3.220000	-106.190002	96.180000	141.00	0.24	-0.12	10.25	11.75	8.25	10.50	3.25	5.00	0.50	1.75	0.50	0.75	1.00	1.00	2.00	0.50	0.00	0.25	-0.160645	0.113770	0.978027	-2.450000	-4.130000	2.310000	604.00	-0.24	-0.09
1.41	0.00	0.00	0.00	0.00	0.00	0.00	0.50	0.00	0.00	3.00	5.00	2.50	0.00	0.00	0.00	3.50	-1.274902	0.120117	0.719238	-10.080000	-96.250000	93.239998	137.00	0.24	-0.12	10.75	11.75	8.50	10.50	3.25	5.00	0.25	1.50	0.75	0.75	1.25	1.00	2.00	0.50	0.00	0.25	-0.158691	0.118164	0.974609	-3.220000	-3.850000	2.170000	610.00	-0.24	-0.09
1.42	0.00	0.00	0.00	0.00	0.00	0.00	0.50	0.00	0.00	3.00	4.75	2.50	0.00	0.00	0.00	3.75	-1.321777	0.076172	0.565430	-14.910000	-81.690002	85.820000	135.00	0.24	-0.12	10.25	11.75	8.25	10.75	3.25	5.00	0.50	1.50	0.75	0.75	1.00	1.25	2.00	0.50	0.00	0.00	-0.162598	0.113281	0.977539	-4.340000	-3.430000	1.960000	608.00	-0.24	-0.09
1.43	0.00	0.00	0.00	0.00	0.00	0.00	0.50	0.00	0.00	3.00	4.75	2.25	0.00	0.00	0.00	3.75	-1.298340	0.066406	0.532715	-14.560000	-61.950001	73.290001	133.00	0.24	-0.12	10.25	11.75	8.50	10.50	3.50	5.00	0.50	1.75	1.00	1.00	1.25	1.25	2.25	0.75	0.00	0.00	-0.160645	0.113281	0.966797	-5.110000	-3.010000	1.680000	627.00	-0.23	-0.09
1.44	0.00	0.00	0.00	0.00	0.00	0.00	0.50	0.00	0.00	3.00	4.75	2.50	0.00	0.00	0.00	3.75	-1.298828	0.111328	0.511719	-6.930000	-45.779999	57.260002	135.00	0.24	-0.12	10.00	11.50	8.25	10.25	3.25	5.00	0.50	1.50	0.50	1.00	1.25	1.00	2.50	0.50	0.00	0.25	-0.162109	0.120605	0.977051	-5.110000	-2.450000	1.610000	602.00	-0.23	-0.09
1.45	0.00	0.00	0.00	0.00	0.00	0.00	0.50	0.00	0.00	3.00	4.75	2.50	0.00	0.00	0.00	3.75	-1.378418	0.057617	0.524414	8.190000	-33.740002	40.110001	135.00	0.24	-0.12	9.50	11.50	8.25	10.50	3.50	5.00	0.50	1.50	0.50	1.00	1.00	1.50	2.00	0.50	0.00	0.25	-0.161133	0.110840	0.975098	-5.040000	-2.030000	1.540000	601.00	-0.23	-0.09
1.46	0.00	0.00	0.00	0.00	0.00	0.00	0.25	0.00	0.00	3.25	4.75	2.50	0.00	0.00	0.00	3.75	-1.392578	-0.033203	0.439941	17.920000	-22.120001	20.930000	134.00	0.24	-0.13	9.75	11.25	8.00	10.25	3.50	5.00	0.50	1.75	0.75	1.00	1.00	1.25	2.25	0.75	0.00	0.25	-0.165039	0.110840	0.973145	-4.830000	-1.470000	1.330000	604.00	-0.23	-0.09
1.47	0.00	0.00	0.00	0.00	0.00	0.00	0.50	0.00	0.00	3.00	4.50	2.75	0.00	0.00	0.00	3.50	-1.400879	-0.095215	0.383301	14.910000	-6.300000	-0.560000	134.00	0.24	-0.12	9.50	11.00	8.00	10.00	3.50	4.50	0.50	1.50	0.75	1.25	1.25	1.25	2.50	0.50	0.00	0.00	-0.162598	0.116699	0.973145	-4.970000	-0.910000	1.260000	591.00	-0.22	-0.09
1.48	0.00	0.00	0.00	0.00	0.00	0.00	0.50	0.00	0.00	3.00	4.75	2.50	0.00	0.00	0.00	3.50	-1.387695	-0.092285	0.362793	6.790000	11.690000	-22.610001	134.00	0.24	-0.12	8.75	10.50	7.75	9.75	3.50	4.25	0.50	1.75	0.75	1.25	0.75	0.50	2.50	0.50	0.00	0.50	-0.161133	0.115723	0.973633	-5.040000	-0.280000	1.190000	564.00	-0.23	-0.09
1.49	0.00	0.00	0.00	0.00	0.00	0.00	0.50	0.00	0.00	2.50	5.00	2.75	0.00	0.00	0.00	3.75	-1.347656	-0.064453	0.408203	2.380000	29.049999	-44.869999	135.00	0.24	-0.13	8.50	10.00	7.50	9.50	3.25	4.25	0.50	1.50	0.75	1.25	1.50	1.25	2.50	0.50	0.00	0.25	-0.170410	0.112793	0.970703	-5.460000	0.280000	0.980000	559.00	-0.21	-0.09
1.50	0.00	0.25	0.00	0.00	0.00	0.00	0.50	0.00	0.00	3.00	5.00	2.75	0.00	0.00	0.00	3.50	-1.295410	-0.014160	0.483398	4.620000	44.099998	-68.040001	142.00	0.23	-0.12	8.00	9.25	7.25	9.25	3.25	3.75	0.50	1.50	1.00	1.25	1.50	1.25	2.25	0.75	0.00	0.25	-0.153809	0.113281	0.965820	-6.370000	0.490000	0.910000	539.00	-0.21	-0.09
1.51	0.00	0.00	0.00	0.00	0.00	0.00	0.50	0.00	0.00	2.75	5.00	2.50	0.00	0.00	0.00	3.75	-1.215820	0.043457	0.533691	6.300000	56.139999	-90.160004	135.00	0.24	-0.12	7.25	8.75	6.75	9.00	3.25	3.75	0.50	1.50	1.00	1.25	1.75	1.50	2.50	0.75	0.00	0.25	-0.160645	0.111816	0.971191	-7.070000	0.910000	0.420000	526.00	-0.19	-0.09
1.52	0.00	0.25	0.25	0.00	0.00	0.00	0.50	0.00	0.00	3.25	4.50	2.25	0.00	0.00	0.00	3.75	0.376465	0.128906	2.112305	-7.980000	123.410004	-105.070000	138.00	0.22	-0.11	7.00	8.25	6.75	8.50	3.25	3.00	0.50	1.50	1.25	1.25	1.75	1.50	2.50	0.75	0.00	0.50	-0.158691	0.111328	0.962402	-7.910000	1.330000	0.140000	510.00	-0.19	-0.09
1.53	0.00	0.25	0.00	0.00	0.00	0.00	0.50	0.00	0.00	3.00	4.25	2.25	0.00	0.00	0.00	3.75	0.411621	0.438477	1.421387	-27.090000	74.410004	-114.169998	130.00	0.23	-0.12	6.25	7.50	6.25	8.25	3.00	2.50	0.50	1.25	1.25	1.75	2.00	1.50	2.75	1.25	0.25	0.25	-0.148926	0.112305	0.968750	-9.380000	2.590000	-0.280000	491.00	-0.16	-0.08
1.54	0.50	0.75	0.00	0.00	0.00	0.00	0.50	0.00	0.00	2.75	4.25	2.25	0.00	0.00	0.00	3.75	-0.108398	0.504883	0.022949	-23.450001	50.680000	-106.680000	137.00	0.18	-0.11	5.50	6.75	6.00	7.75	3.00	2.25	0.75	1.25	1.50	2.00	1.75	1.50	2.50	1.00	0.00	0.75	-0.155762	0.104004	0.973633	-9.520000	4.410000	-0.980000	468.00	-0.15	-0.08
1.55	0.50	0.75	0.25	0.00	0.00	0.00	0.50	0.00	0.00	3.25	4.25	2.25	0.00	0.00	0.00	3.50	-0.187988	0.695312	0.481445	-22.469999	105.279999	-91.699997	144.00	0.17	-0.10	4.50	5.75	5.00	7.00	3.00	1.50	0.75	1.25	1.75	2.00	2.25	1.50	3.00	1.25	0.00	0.50	-0.165527	0.100098	0.987305	-8.890000	6.580000	-1.610000	434.00	-0.13	-0.08
1.56	0.75	1.25	0.00	0.00	0.00	0.00	0.50	0.00	0.00	2.75	4.25	2.50	0.00	0.00	0.00	3.75	-0.134277	1.118652	1.312500	-5.390000	134.259995	-59.290001	147.00	0.15	-0.11	3.25	5.25	4.25	6.25	2.50	1.25	0.75	1.25	2.00	2.25	2.50	1.75	2.75	1.75	0.25	0.50	-0.152832	0.078613	0.986816	-7.840000	8.680000	-1.960000	408.00	-0.09	-0.08
1.57	1.00	2.25	0.25	0.00	0.00	0.00	0.50	0.00	0.00	2.75	4.25	2.25	0.00	0.00	0.00	3.75	-0.264648	0.933105	1.306152	24.010000	120.120003	-13.510000	159.00	0.10	-0.11	2.00	3.50	2.75	5.25	2.25	1.00	0.50	1.00	2.00	2.25	2.50	2.00	2.50	2.00	0.50	0.75	-0.173828	0.104492	0.991699	-6.370000	10.080000	-1.750000	344.00	-0.04	-0.08
1.58	1.75	3.25	0.25	0.00	0.00	0.00	0.25	0.00	0.00	3.00	4.50	2.25	0.00	0.00	0.00	3.75	-0.250488	0.370117	1.092285	29.260000	116.199997	15.190001	177.00	0.06	-0.11	1.50	2.50	2.25	4.50	2.00	0.50	0.50	1.00	2.50	2.50	3.00	2.00	3.25	2.25	0.25	0.50	-0.194824	0.107910	0.979492	-5.390000	11.620000	-1.960000	327.00	0.00	-0.08
1.59	2.00	4.00	0.50	0.25	0.00	0.00	0.50	0.00	0.00	2.75	4.25	2.75	0.00	0.00	0.00	3.75	-0.218750	0.093750	1.226562	15.190001	124.180000	20.090000	196.00	0.03	-0.10	1.00	1.50	1.50	3.25	1.75	0.25	0.75	0.75	2.75	2.75	3.25	2.25	3.00	2.50	0.25	0.75	-0.175293	0.121582	0.992188	-5.390000	13.440001	-3.430000	298.00	0.06	-0.06
1.60	2.25	5.25	0.75	0.50	0.00	0.00	0.50	0.00	0.00	2.75	4.50	2.50	0.00	0.00	0.00	3.50	-0.269043	-0.182617	1.277344	9.100000	98.489998	2.730000	214.00	-0.01	-0.10	0.75	1.00	1.25	2.25	1.25	0.00	0.50	0.50	2.75	3.00	3.50	2.00	3.00	2.75	0.75	0.75	-0.169922	0.175781	1.036133	-7.770000	16.730000	-6.020000	271.00	0.11	-0.05
1.61	3.00	5.75	1.00	1.25	0.00	0.00	0.25	0.00	0.00	2.50	4.25	2.25	0.00	0.00	0.00	3.75	-0.290039	0.001953	1.317871	14.280000	84.489998	-10.430000	227.00	-0.06	-0.10	0.25	0.25	1.00	1.75	1.00	0.00	0.50	0.25	3.25	3.25	3.75	2.50	2.75	3.25	0.75	0.75	-0.143555	0.078613	1.043457	-13.650000	27.020000	-9.870000	263.00	0.16	-0.03
1.62	3.50	7.00	1.00	1.75	0.00	0.00	0.50	0.00	0.00	2.75	4.25	2.50	0.00	0.00	0.00	3.75	-0.245605	0.289062	1.181641	16.660000	67.970001	-15.890000	259.00	-0.08	-0.10	0.25	0.00	0.75	1.50	0.75	0.00	0.25	0.25	3.50	3.25	3.75	2.50	2.75	3.50	0.50	1.00	-0.228516	0.166504	1.055664	-8.750000	52.570000	-12.600000	253.00	0.18	-0.03
1.63	3.75	9.00	1.00	2.00	0.00	0.00	0.50	0.00	0.00	3.00	4.50	2.50	0.00	0.00	0.00	3.75	-0.189453	0.450195	0.913574	16.170000	62.650002	-10.080000	288.00	-0.10	-0.10	0.00	0.00	0.75	1.25	0.50	0.00	0.25	0.00	3.25	3.00	4.50	2.50	2.00	4.25	0.25	1.00	-0.207031	0.099609	1.128418	-1.470000	83.650002	-15.470000	240.00	0.20	-0.02
1.64	4.25	10.00	1.50	2.25	0.00	0.00	0.25	0.00	0.00	3.25	4.75	2.75	0.00	0.00	0.00	3.75	-0.180664	0.324707	0.923828	12.180000	68.389999	-0.630000	314.00	-0.11	-0.10	0.00	0.00	0.75	1.00	0.50	0.00	0.00	0.00	3.50	3.25	4.25	2.00	2.00	4.25	0.75	0.75	-0.251953	0.131348	1.184570	2.380000	112.559998	-17.780001	236.00	0.22	-0.01
1.65	5.00	11.25	1.50	3.00	0.00	0.00	0.50	0.00	0.00	2.75	4.75	2.75	0.00	0.00	0.00	3.50	-0.197754	0.129395	1.017090	8.470000	70.349998	3.080000	339.00	-0.14	-0.10	0.25	0.00	0.25	0.50	0.25	0.00	0.00	0.00	3.50	3.25	4.00	2.25	1.75	5.25	0.50	1.00	-0.187500	0.109863	1.225586	9.170000	138.600006	-22.400000	229.00	0.24	0.00
1.66	5.25	12.25	1.75	3.75	0.00	0.00	0.50	0.00	0.00	2.75	4.50	2.50	0.00	0.00	0.00	3.75	-0.192871	0.075195	1.104492	13.020000	65.730003	-0.210000	358.00	-0.15	-0.10	0.00	0.00	0.25	0.25	0.25	0.00	0.00	0.00	3.00	3.25	4.00	1.75	1.75	5.50	0.75	1.00	-0.297363	0.202637	1.165527	5.320000	166.110001	-27.790001	217.00	0.26	0.01
1.67	6.50	13.50	2.50	5.00	0.25	0.00	0.50	0.25	0.00	3.00	4.75	3.00	0.00	0.00	0.00	3.75	-0.291992	0.363770	1.140625	-13.650000	33.950001	-6.650000	422.00	-0.16	-0.10	0.00	0.00	0.00	0.25	0.25	0.00	0.00	0.00	2.75	2.75	3.50	1.75	1.00	6.00	0.75	1.00	-0.270020	0.247070	1.204590	2.870000	182.630005	-34.930000	198.00	0.28	0.02
1.68	6.75	15.00	2.25	5.25	0.00	0.75	0.50	0.00	0.00	2.75	4.50	2.50	0.00	0.00	0.00	3.75	-0.244629	0.165527	0.943848	-10.150000	19.180000	-0.980000	429.00	-0.18	-0.10	0.00	0.00	0.00	0.00	0.00	0.00	0.00	0.00	2.75	2.75	3.50	1.25	0.50	6.50	0.75	1.00	-0.351562	0.132812	1.339355	-9.450000	189.630005	-40.250000	187.00	0.30	0.05
1.69	7.25	16.50	2.50	5.75	0.25	0.75	0.50	0.00	0.00	3.00	4.75	2.75	0.25	0.00	0.00	4.00	-0.178223	0.163086	0.945312	-10.850000	28.350000	-0.070000	470.00	-0.19	-0.10	0.00	0.00	0.00	0.00	0.00	0.00	0.00	0.00	1.75	2.75	2.75	1.00	0.00	6.75	0.75	1.00	-0.421875	0.185059	1.214355	-21.559999	203.559998	-41.930000	162.00	0.31	0.06
1.70	7.50	18.00	2.50	6.25	0.25	1.00	0.50	0.25	0.25	2.50	5.00	2.25	0.00	0.00	0.00	3.75	-0.245605	0.169922	1.062012	-10.640000	20.160000	-0.560000	491.00	-0.20	-0.10	0.00	0.00	0.00	0.00	0.00	0.00	0.00	0.00	2.50	2.25	2.50	1.00	0.00	6.75	1.00	0.75	-0.428223	0.171387	1.254395	-10.570000	223.720001	-43.820000	165.00	0.31	0.08
1.71	7.75	18.50	2.75	7.50	0.25	1.00	0.50	0.25	0.00	3.00	4.75	3.00	0.00	0.00	0.00	3.75	-0.220703	0.186523	0.947266	-7.070000	13.580000	-0.770000	522.00	-0.20	-0.11	0.00	0.00	0.00	0.00	0.00	0.00	0.00	0.00	1.50	2.25	2.25	0.75	0.00	6.50	0.75	0.75	-0.427246	0.230469	1.295898	-7.980000	245.000000	-46.130001	142.00	0.32	0.07
1.72	8.25	19.25	3.00	7.50	0.25	1.25	0.50	0.25	0.00	3.00	5.00	3.00	0.25	0.00	0.00	4.00	-0.194336	0.195312	0.972168	-6.160000	13.720000	-0.490000	545.00	-0.20	-0.11	0.00	0.00	0.00	0.00	0.00	0.00	0.00	0.00	1.25	1.75	2.00	0.75	0.00	6.25	0.25	0.50	-0.519531	0.284668	1.474609	-4.550000	264.390015	-50.540001	122.00	0.32	0.08
1.73	8.50	19.75	3.00	8.25	0.25	1.50	0.50	0.50	0.00	3.00	5.00	2.75	0.25	0.00	0.00	4.00	-0.220703	0.178711	0.981934	-4.690000	12.110000	-0.420000	565.00	-0.20	-0.11	0.00	0.00	0.00	0.00	0.00	0.00	0.00	0.00	1.00	1.50	1.50	0.50	0.00	5.50	0.25	0.50	-0.671387	0.402344	1.734375	17.570000	286.369995	-62.020000	102.00	0.33	0.08
1.74	8.75	20.25	3.25	8.50	0.50	2.00	0.50	0.50	0.00	3.00	4.75	2.75	0.25	0.00	0.00	3.75	-0.225098	0.176758	0.990234	-1.470000	9.310000	0.210000	582.00	-0.21	-0.11	0.00	0.00	0.00	0.00	0.00	0.00	0.00	0.00	0.50	1.25	1.25	0.25	0.00	4.25	0.25	0.00	-0.635742	0.535645	1.915039	45.570000	294.279999	-70.980003	74.00	0.33	0.09
1.75	8.50	21.25	3.50	9.00	0.25	1.75	0.50	0.50	0.00	2.75	5.00	3.00	0.25	0.00	0.00	4.00	-0.214355	0.182617	0.954590	0.840000	7.000000	0.350000	595.00	-0.21	-0.12	0.00	0.00	0.00	0.00	0.00	0.00	0.00	0.00	0.50	0.50	1.00	0.00	0.00	2.75	0.00	0.00	-0.619629	0.424805	1.896484	64.889999	293.440002	-83.300003	46.00	0.00	0.00
1.76	8.50	21.50	3.50	9.25	0.25	2.25	0.50	0.50	0.00	3.25	4.75	3.25	0.25	0.00	0.00	3.75	-0.193848	0.187012	0.914062	0.560000	7.070000	0.560000	609.00	-0.21	-0.12	0.00	0.00	0.00	0.00	0.00	0.00	0.00	0.00	0.25	0.75	0.50	0.00	0.00	1.50	0.00	0.00	-0.653809	0.428711	1.925781	61.880001	288.119995	-97.510002	29.00	0.00	0.00
1.77	8.50	21.25	3.50	9.50	0.50	2.25	0.50	0.50	0.00	3.00	4.75	2.75	0.25	0.00	0.00	3.75	-0.197266	0.195312	0.931641	-1.540000	8.820000	0.350000	605.00	-0.21	-0.12	0.00	0.00	0.00	0.00	0.00	0.00	0.00	0.00	0.00	0.50	0.50	0.00	0.00	0.25	0.00	0.00	-0.619141	0.458008	1.866699	54.320000	285.179993	-110.180000	13.00	0.00	0.00
1.78	9.25	22.25	3.50	9.75	0.25	2.50	0.50	0.50	0.00	3.00	5.00	3.00	0.25	0.00	0.00	3.75	-0.209961	0.184570	0.977051	-2.030000	8.820000	0.070000	630.00	-0.22	-0.12	0.00	0.00	0.00	0.00	0.00	0.00	0.00	0.00	0.00	0.50	0.25	0.00	0.00	0.00	0.00	0.00	-0.389648	0.345215	1.763672	34.580002	280.070007	-121.449997	8.00	0.00	0.00
1.79	9.50	22.75	3.75	10.25	0.25	3.00	0.50	0.75	0.00	3.25	5.00	3.00	0.25	0.00	0.00	3.75	-0.215332	0.166016	0.980957	1.610000	6.090000	0.280000	657.00	-0.21	-0.12	0.00	0.00	0.00	0.00	0.00	0.00	0.00	0.00	0.00	0.00	0.00	0.00	0.00	0.00	0.00	0.00	0.255859	0.456055	1.642578	1.120000	265.299988	-129.289993	0.00	0.00	0.00
1.80	9.75	23.25	4.00	10.75	0.25	3.00	0.50	0.75	0.00	3.00	5.00	2.75	0.00	0.00	0.00	3.75	-0.198242	0.180664	0.952148	4.340000	4.060000	0.560000	665.00	-0.22	-0.12	0.00	0.00	0.00	0.00	0.00	0.00	0.00	0.00	0.00	0.00	0.00	0.00	0.00	0.00	0.00	0.00	0.105957	0.968262	1.612793	-42.279999	237.440002	-109.690002	0.00	0.00	0.00
1.81	9.50	24.00	3.75	11.00	0.50	3.00	0.50	0.75	0.00	3.25	5.00	3.00	0.25	0.00	0.00	3.75	-0.201660	0.187012	0.940430	5.250000	3.780000	0.840000	679.00	-0.22	-0.12	0.00	0.00	0.00	0.00	0.00	0.00	0.00	0.00	0.00	0.00	0.00	0.00	0.00	0.00	0.00	0.00	0.635254	1.192383	2.908203	-14.350000	158.339996	-71.750000	0.00	0.00	0.00
1.82	9.50	24.00	4.25	11.25	0.50	3.50	0.75	0.75	0.00	3.00	5.00	3.00	0.25	0.00	0.00	4.00	-0.195801	0.184570	0.938477	5.460000	4.130000	0.630000	696.00	-0.22	-0.12	0.00	0.00	0.00	0.00	0.00	0.00	0.00	0.00	0.00	0.00	0.00	0.00	0.00	0.00	0.00	0.00	0.854004	0.638672	1.832031	0.280000	68.879997	-39.410000	0.00	0.00	0.00
1.83	9.50	24.75	4.25	11.75	0.25	3.75	0.50	1.00	0.00	3.00	5.25	3.00	0.25	0.00	0.00	3.75	-0.198730	0.191895	0.938965	5.110000	4.690000	0.490000	709.00	-0.22	-0.12	0.00	0.00	0.00	0.00	0.00	0.00	0.00	0.00	0.00	0.00	0.00	0.00	0.00	0.00	0.00	0.00	0.815430	0.308594	1.331543	-11.620000	15.120000	-27.370001	0.00	0.00	0.00
1.84	10.50	25.00	4.00	12.00	0.25	4.00	0.50	1.00	0.00	3.00	5.00	3.00	0.50	0.00	0.00	3.75	-0.200195	0.188477	0.947266	4.550000	5.180000	0.350000	724.00	-0.22	-0.12	0.00	0.00	0.00	0.00	0.00	0.00	0.00	0.00	0.00	0.00	0.00	0.00	0.00	0.00	0.00	0.00	0.814941	0.142090	0.862793	-31.639999	-7.980000	-30.240000	0.00	0.00	0.00
1.85	10.00	25.25	4.25	12.25	0.25	4.00	0.50	1.25	0.00	3.25	5.25	2.75	0.00	0.00	0.00	3.75	-0.193848	0.198730	0.931152	4.410000	5.250000	0.070000	729.00	-0.22	-0.12	0.00	0.00	0.00	0.00	0.00	0.00	0.00	0.00	0.00	0.00	0.00	0.00	0.00	0.00	0.00	0.00	0.783691	0.227539	0.715820	-35.840000	-15.890000	-40.320000	0.00	0.00	0.00
1.86	10.00	25.00	4.25	12.00	0.25	4.25	0.50	1.00	0.00	2.75	5.00	3.00	0.25	0.00	0.00	3.75	-0.187012	0.203125	0.906250	1.750000	7.210000	-0.210000	720.00	-0.23	-0.12	0.00	0.00	0.00	0.00	0.00	0.00	0.00	0.00	0.00	0.00	0.00	0.00	0.00	0.00	0.00	0.00	0.796387	0.338867	0.795898	-18.480000	-23.660000	-49.209999	0.00	0.00	0.00
1.87	9.75	25.00	4.25	12.50	0.50	4.75	0.50	1.25	0.00	3.00	5.00	3.00	0.75	0.00	0.00	3.75	-0.183594	0.201660	0.905762	-2.870000	10.150000	-0.840000	742.00	-0.22	-0.13	0.00	0.00	0.00	0.00	0.00	0.00	0.00	0.00	0.00	0.00	0.00	0.00	0.00	0.00	0.00	0.00	0.807617	0.412598	0.913574	7.280000	-40.529999	-51.869999	0.00	0.00	0.00
1.88	10.25	24.25	4.50	12.75	0.50	4.50	0.75	1.50	0.00	3.00	5.50	3.00	0.50	0.00	0.00	3.75	-0.197754	0.199219	0.936035	-7.070000	12.810000	-1.330000	753.00	-0.21	-0.13	0.00	0.00	0.00	0.00	0.00	0.00	0.00	0.00	0.00	0.00	0.00	0.00	0.00	0.00	0.00	0.00	0.800781	0.424805	0.996094	25.620001	-66.360001	-46.549999	0.00	0.00	0.00
1.89	9.00	23.50	4.00	12.00	0.25	4.50	0.50	1.50	0.00	2.75	5.25	3.00	0.50	0.00	0.00	3.75	-0.210938	0.182617	0.972168	-6.930000	13.160000	-1.540000	708.00	-0.21	-0.13	0.00	0.00	0.00	0.00	0.00	0.00	0.00	0.00	0.00	0.00	0.00	0.00	0.00	0.00	0.00	0.00	0.772461	0.404785	0.976074	28.770000	-95.900002	-35.139999	0.00	0.00	0.00
1.90	9.00	23.25	4.00	12.00	0.25	4.50	0.50	1.50	0.00	3.00	5.50	3.00	0.50	0.00	0.00	3.75	-0.213867	0.186523	0.962891	-4.060000	10.920000	-1.540000	711.00	-0.21	-0.13	0.00	0.00	0.00	0.00	0.00	0.00	0.00	0.00	0.00	0.00	0.00	0.00	0.00	0.00	0.00	0.00	0.711914	0.408691	0.928711	23.030001	-121.940002	-20.650000	0.00	0.00	0.00
1.91	8.75	22.50	4.00	12.00	0.25	4.75	0.75	1.50	0.00	3.00	5.25	2.75	0.50	0.00	0.00	3.75	-0.215820	0.185059	0.961914	-0.630000	8.470000	-1.190000	703.00	-0.21	-0.13	0.00	0.00	0.00	0.00	0.00	0.00	0.00	0.00	0.00	0.00	0.00	0.00	0.00	0.00	0.00	0.00	0.642090	0.434082	0.880371	21.350000	-142.729996	-5.740000	0.00	0.00	0.00
1.92	8.50	23.25	3.75	12.00	0.25	4.75	0.50	1.75	0.00	3.00	5.25	2.75	0.50	0.00	0.00	3.75	-0.185547	0.191406	0.922363	1.680000	6.790000	-1.120000	704.00	-0.21	-0.14	0.00	0.00	0.00	0.00	0.00	0.00	0.00	0.00	0.00	0.00	0.00	0.00	0.00	0.00	0.00	0.00	0.556152	0.446777	0.861816	32.689999	-159.600006	7.910000	0.00	0.00	0.00
1.93	8.75	22.50	3.75	11.75	0.25	4.75	0.50	1.75	0.00	2.75	5.25	3.00	0.50	0.00	0.00	3.75	-0.186523	0.208008	0.901367	-0.560000	8.260000	-1.610000	697.00	-0.21	-0.14	0.00	0.00	0.00	0.00	0.00	0.00	0.00	0.00	0.00	0.00	0.00	0.00	0.00	0.00	0.00	0.00	0.371582	0.323242	0.925781	77.419998	-186.479996	27.860001	0.00	0.00	0.00
1.94	8.50	22.75	3.75	11.50	0.25	4.75	0.50	1.75	0.00	2.75	5.50	3.00	0.75	0.00	0.00	3.75	-0.197754	0.196289	0.919434	-3.780000	10.080000	-2.100000	699.00	-0.20	-0.14	0.00	0.00	0.00	0.00	0.00	0.00	0.00	0.00	0.00	0.00	0.00	0.00	0.00	0.00	0.00	0.00	0.260254	0.235352	1.020996	91.769997	-198.240005	36.959999	0.00	0.00	0.00
1.95	8.50	21.75	3.75	11.25	0.25	5.25	0.50	2.00	0.00	3.25	5.75	3.25	0.75	0.00	0.00	3.75	-0.187500	0.189941	0.898438	-6.790000	12.040000	-2.660000	707.00	-0.19	-0.14	0.00	0.00	0.00	0.00	0.00	0.00	0.00	0.00	0.00	0.00	0.00	0.00	0.00	0.00	0.00	0.00	0.187988	0.162109	1.098145	91.000000	-209.860001	46.410000	0.00	0.00	0.00
1.96	8.00	21.50	3.75	11.00	0.25	5.25	0.50	2.25	0.00	3.25	5.25	3.25	0.75	0.00	0.00	3.75	-0.200195	0.187500	0.918945	-10.290000	14.490000	-2.870000	695.00	-0.19	-0.14	0.00	0.00	0.00	0.00	0.00	0.00	0.00	0.00	0.00	0.00	0.00	0.00	0.00	0.00	0.00	0.00	0.096191	0.132812	1.161133	85.540001	-221.479996	54.250000	0.00	0.00	0.00
1.97	7.50	21.00	3.50	11.00	0.25	5.75	0.50	2.25	0.00	3.25	5.50	3.25	0.75	0.00	0.00	3.75	-0.225586	0.173828	0.994629	-9.240000	13.510000	-2.730000	691.00	-0.19	-0.14	0.00	0.00	0.00	0.00	0.00	0.00	0.00	0.00	0.00	0.00	0.00	0.00	0.00	0.00	0.00	0.00	-0.000488	0.094727	1.219727	86.379997	-233.589996	57.750000	0.00	0.00	0.00
1.98	8.00	20.25	3.50	11.00	0.25	5.50	0.50	2.75	0.00	3.00	5.50	3.25	1.00	0.00	0.00	4.00	-0.218262	0.172363	0.963867	-4.760000	10.290000	-2.660000	695.00	-0.19	-0.15	0.00	0.00	0.00	0.00	0.00	0.00	0.00	0.00	0.00	0.00	0.00	0.00	0.00	0.00	0.00	0.00	-0.118164	0.051270	1.267090	95.900002	-243.949997	55.439999	0.00	0.00	0.00
1.99	7.25	19.75	3.25	10.50	0.25	5.50	0.50	2.75	0.00	3.00	5.50	3.25	1.25	0.00	0.00	3.75	-0.208984	0.192383	0.931641	-3.290000	9.380000	-2.450000	675.00	-0.18	-0.15	0.00	0.00	0.00	0.00	0.00	0.00	0.00	0.00	0.00	0.00	0.00	0.00	0.00	0.00	0.00	0.00	-0.259766	0.008789	1.355469	108.010002	-253.330002	49.420002	0.00	0.00	0.00
2.00	7.00	19.50	3.25	10.25	0.25	6.00	0.50	2.75	0.00	3.00	5.75	3.25	1.00	0.00	0.00	3.75	-0.211426	0.188965	0.943848	-4.690000	9.660000	-2.520000	673.00	-0.18	-0.15	0.00	0.00	0.00	0.00	0.00	0.00	0.00	0.00	0.00	0.00	0.00	0.00	0.00	0.00	0.00	0.00	-0.391113	-0.021484	1.489258	114.590004	-262.010010	42.490002	0.00	0.00	0.00
2.01	7.00	18.50	3.25	10.25	0.25	6.00	0.50	3.50	0.00	3.25	5.50	3.50	1.25	0.00	0.00	4.00	-0.204590	0.180664	0.938477	-5.600000	9.380000	-2.800000	681.00	-0.17	-0.16	0.00	0.00	0.00	0.00	0.00	0.00	0.00	0.00	0.00	0.00	0.00	0.00	0.00	0.00	0.00	0.00	-0.529785	-0.015137	1.624512	111.020004	-269.989990	37.240002	0.00	0.00	0.00
2.02	6.75	18.00	3.00	10.00	0.25	6.00	0.50	4.00	0.00	3.25	5.50	3.50	1.25	0.00	0.00	4.00	-0.208496	0.193848	0.934570	-6.510000	9.520000	-2.660000	676.00	-0.16	-0.16	0.00	0.00	0.00	0.00	0.00	0.00	0.00	0.00	0.00	0.00	0.00	0.00	0.00	0.00	0.00	0.00	-0.663086	0.067383	1.752930	102.410004	-279.860016	32.830002	0.00	0.00	0.00
2.03	6.50	17.50	3.00	9.75	0.25	5.75	0.50	4.25	0.00	3.25	5.50	3.50	1.25	0.00	0.00	3.75	-0.214355	0.177246	0.950684	-5.740000	8.960000	-2.520000	666.00	-0.16	-0.16	0.00	0.00	0.00	0.00	0.00	0.00	0.00	0.00	0.00	0.00	0.00	0.00	0.00	0.00	0.00	0.00	-0.789551	0.125977	1.821289	96.250000	-290.220001	28.210001	0.00	0.00	0.00
2.04	6.00	16.50	3.00	9.50	0.25	6.25	0.50	5.00	0.00	3.25	5.75	3.50	1.50	0.00	0.00	3.75	-0.208008	0.184082	0.935059	-5.250000	8.260000	-2.380000	671.00	-0.15	-0.17	0.00	0.00	0.00	0.00	0.00	0.00	0.00	0.00	0.00	0.00	0.00	0.00	0.00	0.00	0.00	0.00	-0.965332	0.186523	1.774902	94.290001	-299.529999	22.960001	0.00	0.00	0.00
2.05	6.25	17.00	3.00	9.75	0.50	6.50	0.50	5.25	0.00	3.25	6.00	3.75	1.75	0.00	0.00	4.00	-0.202637	0.184570	0.933105	-6.650000	8.050000	-2.800000	699.00	-0.15	-0.17	0.00	0.00	0.00	0.00	0.00	0.00	0.00	0.00	0.00	0.00	0.00	0.00	0.00	0.00	0.00	0.00	-1.170410	0.246094	1.695801	91.980003	-304.709991	18.830000	0.00	0.00	0.00
2.06	5.75	15.25	2.75	9.50	0.50	6.50	0.75	5.50	0.00	3.00	5.75	3.25	2.00	0.00	0.00	4.00	-0.215332	0.170410	0.952148	-7.700000	7.910000	-3.010000	671.00	-0.14	-0.17	0.00	0.00	0.00	0.00	0.00	0.00	0.00	0.00	0.00	0.00	0.00	0.00	0.00	0.00	0.00	0.00	-1.370117	0.342773	1.532715	85.680000	-304.220001	18.830000	0.00	0.00	0.00
2.07	5.75	15.50	3.00	9.50	0.50	7.00	0.75	5.75	0.00	3.25	6.00	4.00	2.25	0.25	0.00	4.00	-0.223145	0.174316	0.948730	-5.040000	6.650000	-2.590000	703.00	-0.13	-0.17	0.00	0.00	0.00	0.00	0.00	0.00	0.00	0.00	0.00	0.00	0.00	0.00	0.00	0.00	0.00	0.00	-1.525879	0.453125	1.344727	75.320000	-296.239990	25.059999	0.00	0.00	0.00
2.08	5.50	15.00	2.75	9.50	0.25	7.00	0.75	6.00	0.00	3.50	6.25	3.75	2.25	0.00	0.00	4.00	-0.216309	0.181152	0.938965	-4.060000	6.300000	-2.380000	694.00	-0.13	-0.18	0.00	0.00	0.00	0.00	0.00	0.00	0.00	0.00	0.00	0.00	0.00	0.00	0.00	0.00	0.00	0.00	-1.618652	0.577637	1.185547	65.449997	-279.510010	36.330002	0.00	0.00	0.00
2.09	5.50	14.75	3.00	9.25	0.50	7.25	0.75	6.25	0.00	3.50	6.00	4.25	2.25	0.00	0.00	4.25	-0.214355	0.178711	0.935059	-4.690000	6.090000	-2.380000	705.00	-0.12	-0.18	0.00	0.00	0.00	0.00	0.00	0.00	0.00	0.00	0.00	0.00	0.00	0.00	0.00	0.00	0.00	0.00	-1.667480	0.701172	1.083496	64.190002	-258.230011	51.170002	0.00	0.00	0.00
2.10	5.00	14.00	3.00	9.50	0.50	7.50	0.75	6.50	0.00	3.50	6.25	4.25	2.75	0.25	0.00	4.25	-0.210938	0.177246	0.938477	-6.230000	6.230000	-2.520000	712.00	-0.11	-0.18	0.00	0.00	0.00	0.00	0.00	0.00	0.00	0.00	0.00	0.00	0.00	0.00	0.00	0.00	0.00	0.00	-1.661133	0.744629	0.972168	75.389999	-235.970001	69.230003	0.00	0.00	0.00
2.11	5.25	13.25	2.75	9.00	0.25	7.25	0.75	6.50	0.00	3.50	6.00	4.25	2.50	0.00	0.00	4.25	-0.211914	0.180664	0.943359	-6.860000	6.230000	-2.590000	687.00	-0.11	-0.18	0.00	0.00	0.00	0.00	0.00	0.00	0.00	0.00	0.00	0.00	0.00	0.00	0.00	0.00	0.00	0.00	-1.646484	0.680664	0.913086	98.139999	-209.789993	88.480003	0.00	0.00	0.00
2.12	5.00	13.00	3.00	9.50	0.50	7.50	0.75	6.75	0.00	3.50	6.25	4.50	3.00	0.25	0.00	4.25	-0.216797	0.177734	0.941895	-7.140000	6.510000	-2.170000	711.00	-0.11	-0.19	0.00	0.00	0.00	0.00	0.00	0.00	0.00	0.00	0.00	0.00	0.00	0.00	0.00	0.00	0.00	0.00	-1.605957	0.461426	0.852539	127.190002	-179.339996	107.239998	0.00	0.00	0.00
2.13	5.00	12.75	2.75	9.50	0.50	7.50	0.75	7.00	0.00	3.75	6.25	4.75	3.25	0.50	0.00	4.50	-0.213379	0.169434	0.950195	-6.370000	6.580000	-1.680000	721.00	-0.10	-0.19	0.00	0.00	0.00	0.00	0.00	0.00	0.00	0.00	0.00	0.00	0.00	0.00	0.00	0.00	0.00	0.00	-1.524414	-0.177246	0.999023	163.940002	-114.309998	136.360001	0.00	0.00	0.00
2.14	4.50	12.25	2.75	9.00	0.50	7.75	0.75	7.25	0.00	3.50	6.50	4.50	3.25	0.25	0.00	4.25	-0.204102	0.169434	0.948730	-5.950000	7.210000	-1.470000	706.00	-0.10	-0.19	0.00	0.00	0.00	0.00	0.00	0.00	0.00	0.00	0.00	0.00	0.00	0.00	0.00	0.00	0.00	0.00	-1.507812	-0.478027	1.154297	160.649994	-87.360001	145.039993	0.00	0.00	0.00
2.15	4.25	11.25	2.75	9.00	0.50	7.75	0.75	7.50	0.00	3.50	6.50	5.00	3.50	0.00	0.00	4.50	-0.210938	0.168945	0.945312	-5.670000	7.420000	-1.330000	705.00	-0.09	-0.20	0.00	0.00	0.00	0.00	0.00	0.00	0.00	0.00	0.00	0.00	0.00	0.00	0.00	0.00	0.00	0.00	-1.518066	-0.846191	1.244141	137.550003	-68.110001	148.399994	0.00	0.00	0.00
2.16	4.00	10.50	2.50	8.75	0.50	7.75	0.75	7.75	0.00	4.00	6.50	5.00	3.75	0.00	0.00	4.25	-0.213379	0.166016	0.944336	-4.480000	6.860000	-1.260000	699.00	-0.08	-0.20	0.00	0.00	0.00	0.00	0.00	0.00	0.00	0.00	0.00	0.00	0.00	0.00	0.00	0.00	0.00	0.00	-1.560547	-1.080078	1.311035	86.239998	-58.799999	141.610001	0.00	0.00	0.00
2.17	3.75	10.25	2.25	8.75	0.75	8.00	0.75	7.75	0.00	3.75	6.50	5.25	4.25	0.25	0.00	4.50	-0.217773	0.171875	0.941406	-4.060000	6.790000	-1.120000	705.00	-0.07	-0.20	0.00	0.00	0.00	0.00	0.00	0.00	0.00	0.00	0.00	0.00	0.00	0.00	0.00	0.00	0.00	0.00	-1.586426	-1.084961	1.260742	21.700001	-56.630001	124.040001	0.00	0.00	0.00
2.18	3.75	9.75	2.50	8.75	0.50	8.00	0.75	8.00	0.25	3.75	6.75	5.25	4.75	0.50	0.00	4.50	-0.216797	0.163574	0.939453	-4.550000	6.370000	-1.050000	717.00	-0.07	-0.20	0.00	0.00	0.00	0.00	0.00	0.00	0.00	0.00	0.00	0.00	0.00	0.00	0.00	0.00	0.00	0.00	-1.624512	-0.868652	1.166504	-30.030001	-59.360001	98.139999	0.00	0.00	0.00
2.19	3.25	9.75	2.25	8.75	0.50	8.25	0.75	8.25	0.00	3.75	6.75	5.50	5.00	0.00	0.00	4.50	-0.223633	0.173340	0.939941	-4.410000	5.950000	-0.980000	712.00	-0.07	-0.21	0.00	0.00	0.00	0.00	0.00	0.00	0.00	0.00	0.00	0.00	0.00	0.00	0.00	0.00	0.00	0.00	-1.692871	-0.631836	0.974121	-56.279999	-64.050003	67.690002	0.00	0.00	0.00
2.20	3.50	9.75	2.25	8.75	0.75	8.25	0.75	8.50	0.00	3.75	6.75	5.75	5.00	0.25	0.25	4.50	-0.213867	0.173828	0.934082	-4.830000	5.740000	-1.050000	729.00	-0.06	-0.21	0.00	0.00	0.00	0.00	0.00	0.00	0.00	0.00	0.00	0.00	0.00	0.00	0.00	0.00	0.00	0.00	-1.754883	-0.479004	0.702637	-61.670002	-62.090000	35.279999	0.00	0.00	0.00
2.21	3.25	9.50	2.25	8.75	0.75	8.50	0.75	8.25	0.00	3.50	6.75	6.00	5.50	0.50	0.00	4.50	-0.221191	0.166992	0.939453	-5.320000	5.530000	-1.400000	727.00	-0.06	-0.21	0.00	0.00	0.00	0.00	0.00	0.00	0.00	0.00	0.00	0.00	0.00	0.00	0.00	0.00	0.00	0.00	-1.792969	-0.403809	0.458984	-57.610001	-45.990002	4.900000	0.00	0.00	0.00
2.22	3.25	9.75	2.50	8.75	0.75	8.75	0.75	8.75	0.00	3.75	7.00	6.25	5.75	0.75	0.25	4.50	-0.212402	0.180176	0.944336	-6.020000	5.250000	-1.820000	757.00	-0.05	-0.21	0.00	0.00	0.00	0.00	0.00	0.00	0.00	0.00	0.00	0.00	0.00	0.00	0.00	0.00	0.00	0.00	-1.758301	-0.355957	0.375488	-53.689999	-18.690001	-20.370001	0.00	0.00	0.00
2.23	3.25	9.50	2.25	8.75	1.00	8.75	0.75	8.75	0.00	4.00	7.25	6.50	6.00	0.75	0.25	4.75	-0.202637	0.177734	0.925293	-7.770000	4.550000	-2.660000	766.00	-0.05	-0.21	0.00	0.00	0.00	0.00	0.00	0.00	0.00	0.00	0.00	0.00	0.00	0.00	0.00	0.00	0.00	0.00	-1.687988	-0.324707	0.440430	-50.889999	12.040000	-37.939999	0.00	0.00	0.00
2.24	3.25	9.25	2.25	8.75	1.00	8.75	0.75	9.00	0.00	4.00	7.25	6.75	6.25	1.00	0.25	4.75	-0.200684	0.173828	0.938477	-15.400000	2.940000	-4.970000	774.00	-0.05	-0.21	0.00	0.00	0.00	0.00	0.00	0.00	0.00	0.00	0.00	0.00	0.00	0.00	0.00	0.00	0.00	0.00	-3.189941	-0.303223	0.311523	-51.869999	37.310001	-49.700001	0.00	0.00	0.00
2.25	3.00	8.75	2.25	8.50	1.00	8.75	0.75	9.00	0.00	3.75	7.50	7.25	6.75	1.00	0.25	5.00	-0.204102	0.163086	0.948730	-17.150000	3.220000	-5.950000	776.00	-0.04	-0.22	0.25	0.50	0.25	0.00	0.00	0.00	0.00	0.00	0.00	0.00	0.00	0.00	0.00	0.00	0.00	0.00	1.243164	0.181641	0.073730	-112.559998	109.340004	-87.360001	10.00	0.00	0.00
2.26	3.00	8.25	2.50	8.25	1.25	8.75	0.75	9.00	0.50	4.25	7.50	7.50	7.00	1.25	0.50	5.00	-0.213379	0.163086	0.955078	-18.340000	3.640000	-6.790000	795.00	-0.03	-0.21	0.50	0.75	0.00	0.25	0.00	0.00	0.00	0.00	0.00	0.00	0.00	0.00	0.00	0.00	0.00	0.00	0.179688	0.468262	2.024902	-160.789993	134.259995	-121.379997	15.00	0.00	0.00
2.27	2.50	7.75	2.25	8.00	1.25	8.75	0.75	9.00	0.25	4.25	7.75	7.75	7.00	1.50	0.50	5.00	-0.211426	0.166016	0.941406	-19.110001	4.200000	-7.210000	784.00	-0.02	-0.21	1.00	1.25	0.25	0.50	0.00	0.00	0.00	0.00	0.00	0.00	0.00	0.00	0.00	0.00	0.00	0.00	-0.020020	0.420410	1.333008	-173.320007	93.660004	-121.940002	30.00	0.00	0.00
2.28	2.25	6.75	2.25	7.50	1.50	8.25	1.00	8.75	0.50	4.75	8.00	8.00	7.00	1.75	0.50	5.25	-0.211426	0.154297	0.941895	-20.299999	4.900000	-7.490000	781.00	-0.00	-0.21	1.00	2.25	0.50	0.75	0.00	0.00	0.00	0.00	0.00	0.00	0.00	0.00	0.00	0.00	0.00	0.00	-0.357422	0.665039	0.986328	-157.919998	86.870003	-103.669998	45.00	0.00	0.00
2.29	1.50	6.00	2.25	6.75	1.50	7.75	0.75	8.75	0.50	4.75	8.00	8.00	7.00	2.25	0.25	5.00	-0.220703	0.145508	0.956543	-18.270000	6.090000	-7.350000	749.00	0.01	-0.21	1.50	2.75	0.50	1.00	0.00	0.00	0.00	0.00	0.00	0.00	0.00	0.00	0.00	0.00	0.00	0.00	-0.280762	0.673340	1.080078	-130.059998	113.120003	-72.519997	57.00	-0.37	-0.08
2.30	1.50	5.00	1.75	6.25	1.25	7.50	0.75	8.50	0.50	4.75	8.25	8.50	7.25	2.50	0.50	5.25	-0.222656	0.144531	0.959961	-12.390000	8.400000	-6.370000	736.00	0.03	-0.21	2.00	3.75	0.75	1.50	0.00	0.00	0.00	0.00	0.00	0.00	0.00	0.00	0.00	0.00	0.00	0.00	-0.206055	0.762207	1.455078	-84.000000	132.020004	-31.500000	80.00	-0.37	-0.08
2.31	1.00	4.75	1.50	5.50	1.50	7.50	0.75	8.75	1.00	5.00	8.50	8.75	7.25	2.75	0.50	5.25	-0.220215	0.144043	0.958008	-6.930000	10.850000	-5.320000	741.00	0.04	-0.21	2.50	4.75	1.00	2.25	0.00	0.00	0.00	0.00	0.00	0.00	0.00	0.00	0.00	0.00	0.00	0.00	-0.281250	0.346191	1.731934	-63.279999	126.279999	-1.890000	105.00	-0.37	-0.09
2.32	1.00	3.00	0.75	4.50	1.00	6.75	0.75	8.50	0.50	5.00	8.50	8.75	7.50	2.75	0.50	5.25	-0.211426	0.145508	0.950195	-3.570000	13.020000	-4.550000	683.00	0.06	-0.22	3.00	5.25	1.00	2.25	0.00	0.00	0.00	0.00	0.00	0.00	0.00	0.00	0.00	0.00	0.00	0.00	-0.304688	0.092285	1.570801	-58.520000	106.750000	8.960000	115.00	-0.37	-0.08
2.33	0.25	2.00	1.00	4.00	1.25	6.25	0.75	8.75	0.50	5.00	9.00	9.00	7.75	3.25	0.50	5.25	-0.213379	0.155273	0.955566	-2.590000	15.120000	-4.340000	679.00	0.08	-0.22	3.25	5.25	1.25	2.50	0.00	0.00	0.00	0.00	0.00	0.00	0.00	0.00	0.00	0.00	0.00	0.00	-0.107910	-0.193848	1.176270	-32.970001	75.180000	0.210000	123.00	-0.37	-0.08
2.34	0.00	1.00	0.50	2.50	0.75	6.00	0.75	8.50	1.25	5.25	9.25	9.25	7.75	3.25	0.75	5.50	-0.212402	0.145508	0.944824	-2.170000	16.450001	-4.200000	655.00	0.11	-0.21	3.50	5.75	1.25	3.00	0.00	0.00	0.00	0.00	0.00	0.00	0.00	0.00	0.00	0.00	0.00	0.00	-0.091309	-0.032715	1.018066	-13.090000	68.180000	-8.890000	136.00	-0.37	-0.08
2.35	0.00	0.25	0.00	1.00	0.50	5.00	0.75	8.50	1.25	5.50	9.75	9.50	8.00	3.75	1.00	5.50	-0.208984	0.156738	0.943848	-2.380000	17.850000	-4.410000	632.00	0.14	-0.21	4.25	6.75	1.50	3.75	0.00	0.00	0.00	0.00	0.00	0.00	0.00	0.00	0.00	0.00	0.00	0.00	-0.094727	0.223145	0.942383	2.590000	66.570000	-12.810000	164.00	-0.37	-0.08
2.36	0.00	0.00	0.25	0.75	0.50	4.75	0.75	8.00	1.25	5.25	10.25	10.00	7.75	4.25	1.00	5.50	-0.215820	0.147461	0.945801	-2.100000	20.230000	-6.300000	629.00	0.15	-0.21	4.50	7.50	1.75	3.75	0.00	0.00	0.00	0.00	0.00	0.00	0.00	0.00	0.00	0.00	0.00	0.00	-0.123047	0.372070	0.928223	5.950000	68.669998	-10.220000	176.00	-0.37	-0.08
2.37	0.00	0.00	0.00	0.50	0.25	2.75	0.75	7.75	1.50	6.00	10.50	10.25	7.75	4.50	0.75	5.50	-0.207031	0.179199	0.994629	-0.770000	24.360001	-9.240000	611.00	0.17	-0.20	6.00	8.75	2.00	5.00	0.00	0.00	0.00	0.00	0.00	0.00	0.00	0.00	0.00	0.00	0.00	0.00	-0.140137	0.333496	0.934082	0.980000	71.889999	-3.920000	220.00	-0.37	-0.08
2.38	0.00	0.00	0.00	0.00	0.00	2.00	0.75	7.25	1.50	6.75	10.75	10.25	8.00	5.00	0.75	5.75	-0.203125	0.192383	0.993652	0.770000	32.270000	-11.060000	605.00	0.18	-0.19	6.75	9.50	2.75	5.75	0.00	0.00	0.00	0.00	0.00	0.00	0.00	0.00	0.00	0.00	0.00	0.00	-0.207031	0.256836	1.045898	2.940000	76.230003	1.190000	251.00	-0.36	-0.07
2.39	0.00	0.00	0.00	0.00	0.00	2.50	0.75	6.50	1.00	6.50	11.25	10.50	7.75	5.00	0.75	5.75	-0.237305	0.146484	1.014160	16.240000	58.730000	-13.090000	596.00	0.18	-0.19	7.50	10.25	3.25	6.25	0.25	0.00	0.00	0.00	0.00	0.00	0.00	0.00	0.00	0.00	0.00	0.00	-0.252930	0.122070	1.273438	-7.070000	72.730003	-1.540000	280.00	-0.36	-0.07
2.40	0.00	0.00	0.00	0.00	0.00	0.25	0.50	5.75	1.75	7.00	11.25	10.75	7.50	5.25	0.75	5.50	-0.211914	0.193848	1.034180	27.790001	79.449997	-12.040000	573.00	0.20	-0.18	8.50	10.50	4.25	7.75	0.50	0.50	0.00	0.00	0.00	0.00	0.00	0.00	0.00	0.00	0.00	0.00	-0.347168	0.325684	1.244629	-40.950001	24.780001	-3.010000	328.00	-0.35	-0.07
2.41	0.00	0.00	0.00	0.00	0.00	0.00	0.50	5.25	1.75	7.00	11.50	10.75	7.25	5.25	0.75	5.75	-0.258301	0.068359	1.104492	30.870001	101.010002	-11.970000	564.00	0.21	-0.17	9.25	11.75	4.75	8.50	0.00	0.50	0.00	0.00	0.00	0.00	0.00	0.00	0.00	0.00	0.00	0.00	-0.197266	0.135254	1.042969	-28.910000	5.250000	1.470000	356.00	-0.35	-0.07
2.42	0.00	0.00	0.00	0.00	0.00	0.00	0.50	4.00	2.00	7.00	11.75	10.50	7.00	5.50	0.75	5.75	-0.271973	0.166504	1.058594	31.570000	123.059998	-10.080000	548.00	0.22	-0.16	10.00	12.50	5.00	8.50	0.50	1.00	0.00	0.25	0.00	0.00	0.00	0.00	0.00	0.00	0.00	0.00	-0.139160	0.148926	1.037109	-26.740000	9.870000	0.910000	388.00	-0.34	-0.07
2.43	0.00	0.00	0.00	0.00	0.00	0.00	0.25	3.00	1.75	6.75	11.75	10.50	7.25	5.50	0.75	5.75	-0.329590	0.166016	1.053223	35.070000	144.690002	-7.910000	526.00	0.22	-0.16	10.00	12.75	5.25	9.00	0.50	1.25	0.00	0.25	0.00	0.00	0.00	0.00	0.50	0.00	0.00	0.00	-0.174805	0.166016	1.008301	-24.430000	6.090000	0.350000	405.00	-0.34	-0.08
2.44	0.00	0.00	0.00	0.00	0.00	0.00	0.25	1.50	1.75	7.00	11.75	10.25	6.25	6.00	0.75	5.75	-0.297363	0.066406	1.415039	46.270000	191.449997	-6.860000	498.00	0.24	-0.14	11.00	13.00	5.75	9.50	0.50	1.50	0.00	0.50	0.00	0.00	0.00	0.00	0.25	0.00	0.00	0.00	-0.162598	0.180176	0.958984	-23.870001	6.440000	0.770000	433.00	-0.34	-0.08
2.45	0.00	0.00	0.00	0.00	0.00	0.00	0.25	0.75	1.00	6.75	11.50	10.00	6.00	6.25	0.75	5.75	-0.384277	0.194824	1.108887	50.259998	205.169998	-4.340000	469.00	0.24	-0.14	11.00	13.50	6.25	9.75	0.75	1.50	0.25	0.25	0.00	0.00	0.00	0.00	0.25	0.25	0.00	0.00	-0.159668	0.155273	1.024902	-23.660000	6.230000	1.400000	451.00	-0.33	-0.07
2.46	0.00	0.00	0.00	0.00	0.00	0.00	0.25	0.25	1.00	6.50	11.00	9.50	5.25	6.00	0.75	5.75	-0.415039	0.199707	1.165039	55.720001	226.449997	-6.090000	440.00	0.25	-0.13	11.75	13.75	7.00	10.00	1.00	1.50	0.25	0.25	0.00	0.00	0.00	0.00	0.25	0.25	0.00	0.00	-0.166992	0.148926	0.998047	-21.280001	2.590000	1.120000	475.00	-0.33	-0.06
2.47	0.00	0.00	0.00	0.00	0.00	0.00	0.25	0.00	0.50	6.25	11.00	9.50	5.00	6.00	0.75	5.75	-0.448730	0.160645	1.284668	53.830002	248.149994	-7.280000	425.00	0.25	-0.14	12.00	14.00	7.25	10.25	1.00	2.00	0.25	0.50	0.00	0.00	0.00	0.00	0.25	0.00	0.00	0.00	-0.154785	0.147461	0.984863	-19.950001	1.400000	1.330000	493.00	-0.33	-0.07
2.48	0.00	0.00	0.00	0.00	0.00	0.00	0.25	0.00	0.50	6.25	10.50	9.00	4.00	5.75	0.75	5.50	-0.532227	0.200195	1.300293	51.450001	272.440002	-5.740000	402.00	0.25	-0.13	12.00	14.25	7.50	10.50	1.25	2.00	0.25	0.25	0.00	0.00	0.00	0.00	0.50	0.00	0.00	0.00	-0.156738	0.150879	0.965820	-19.740000	1.540000	1.680000	502.00	-0.33	-0.07
2.49	0.00	0.00	0.00	0.00	0.00	0.00	0.00	0.00	0.00	6.00	10.00	8.50	3.00	5.25	1.00	5.50	-0.646484	0.203125	1.369141	56.279999	294.630005	-4.130000	368.00	0.26	-0.13	12.00	14.50	7.75	10.25	1.25	2.25	0.25	0.25	0.00	0.00	0.00	0.00	0.25	0.00	0.00	0.00	-0.161133	0.140625	0.986816	-19.879999	1.400000	2.030000	505.00	-0.33	-0.07
2.50	0.00	0.00	0.00	0.00	0.00	0.00	0.00	0.00	0.00	5.50	9.50	8.00	2.00	5.00	0.50	5.50	-0.666504	0.265137	1.414062	61.529999	312.619995	-4.130000	336.00	0.26	-0.13	12.75	14.50	8.25	10.75	1.50	2.50	0.50	0.50	0.00	0.00	0.00	0.00	0.25	0.00	0.00	0.00	-0.160645	0.137695	0.995117	-18.480000	0.840000	2.030000	536.00	-0.32	-0.06
2.51	0.00	0.00	0.00	0.00	0.00	0.00	0.00	0.00	0.00	5.50	8.75	7.25	1.50	4.00	0.75	5.25	-0.819336	0.132324	1.642578	58.029999	328.299988	-6.230000	309.00	0.26	-0.13	12.50	14.75	8.00	11.00	1.50	2.50	0.25	0.50	0.00	0.00	0.00	0.00	0.25	0.00	0.00	0.25	-0.163574	0.130371	0.985352	-15.330000	-0.210000	2.170000	534.00	-0.32	-0.07
2.52	0.00	0.00	0.00	0.00	0.00	0.00	0.00	0.00	0.00	5.00	8.00	6.50	0.75	3.50	0.50	5.00	-0.796875	0.228027	1.573242	52.920002	343.980011	-4.060000	273.00	0.26	-0.12	12.75	14.75	8.25	11.00	1.50	2.50	0.25	0.25	0.00	0.00	0.00	0.00	0.25	0.25	0.00	0.00	-0.158691	0.134766	0.973633	-12.880000	-0.490000	2.240000	536.00	-0.32	-0.06
2.53	0.00	0.00	0.00	0.00	0.00	0.00	0.00	0.00	0.00	5.00	7.75	6.00	0.50	3.00	0.25	4.50	-0.853027	0.405273	1.832520	52.849998	356.369995	-2.100000	254.00	0.26	-0.12	12.75	14.50	8.50	11.00	1.50	2.75	0.25	0.25	0.00	0.25	0.00	0.00	0.25	0.00	0.00	0.00	-0.159180	0.137207	0.988770	-9.240000	-1.400000	2.660000	540.00	-0.32	-0.06
2.54	0.00	0.00	0.00	0.00	0.00	0.00	0.00	0.00	0.00	4.50	7.00	5.50	0.50	1.50	0.25	4.25	-0.974121	0.613770	2.346680	75.529999	353.920013	-6.440000	221.00	0.25	-0.14	12.50	15.00	8.50	11.25	1.50	2.75	0.25	0.50	0.00	0.00	0.25	0.00	0.50	0.00	0.00	0.00	-0.158691	0.135742	0.982422	-7.490000	-1.680000	2.590000	550.00	-0.32	-0.07
2.55	0.00	0.00	0.00	0.00	0.00	0.00	0.00	0.00	0.00	4.75	6.75	5.25	0.75	1.00	0.00	3.75	-0.667969	0.500488	1.990723	97.720001	354.760010	-12.110000	211.00	0.24	-0.14	13.25	15.00	8.50	11.25	1.50	3.00	0.25	0.50	0.25	0.00	0.25	0.00	0.25	0.00	0.00	0.00	-0.175293	0.126465	0.997070	-1.820000	-2.870000	2.590000	562.00	-0.32	-0.07
2.56	0.00	0.00	0.00	0.00	0.00	0.00	0.00	0.00	0.00	4.50	6.50	5.00	0.25	0.00	0.00	3.75	-0.645996	0.834473	1.813477	130.690002	355.600006	-15.610000	190.00	0.24	-0.15	13.00	15.00	8.75	11.25	1.75	3.00	0.25	0.25	0.00	0.50	0.25	0.00	0.25	0.00	0.00	0.00	-0.153809	0.136719	0.969238	1.680000	-3.500000	2.730000	563.00	-0.32	-0.07
2.57	0.00	0.00	0.00	0.00	0.00	0.00	0.00	0.00	0.00	4.25	6.00	4.50	0.25	0.00	0.00	3.75	-0.335449	0.574219	1.623535	172.410004	355.179993	-26.809999	177.00	0.24	-0.15	13.00	15.00	8.50	11.50	1.75	3.00	0.25	0.50	0.25	0.00	0.25	0.00	0.50	0.25	0.00	0.25	-0.150391	0.148438	0.968750	0.980000	-3.570000	2.450000	571.00	-0.31	-0.07
2.58	0.00	0.00	0.00	0.00	0.00	0.00	0.25	0.00	0.00	4.25	5.75	4.25	0.25	0.00	0.00	3.75	0.211426	0.265137	1.227539	187.250000	350.420013	-42.980000	176.00	0.24	-0.14	13.00	15.00	8.50	11.50	1.50	3.25	0.25	0.50	0.00	0.00	0.25	0.00	0.50	0.00	0.00	0.00	-0.154785	0.136230	0.966309	-0.770000	-3.360000	2.240000	564.00	-0.32	-0.07
2.59	0.00	0.00	0.00	0.00	0.00	0.00	0.25	0.00	0.00	4.25	6.00	4.25	0.00	0.00	0.00	3.75	0.316895	0.116211	1.754395	128.940002	334.320007	-68.250000	176.00	0.24	-0.13	13.00	15.25	8.50	11.50	1.50	3.00	0.25	0.50	0.00	0.00	0.25	0.25	0.25	0.00	0.00	0.00	-0.154785	0.138184	0.964844	-1.680000	-3.080000	1.960000	564.00	-0.32	-0.07
2.60	0.00	0.00	0.00	0.00	0.00	0.00	0.00	0.00	0.25	4.50	6.00	4.00	0.00	0.00	0.00	3.75	0.432617	0.327148	3.162109	24.780001	246.050003	-74.340004	176.00	0.24	-0.13	13.00	15.25	8.75	11.75	1.50	3.25	0.25	0.50	0.25	0.00	0.00	0.00	0.25	0.00	0.00	0.00	-0.146484	0.136719	0.967773	-2.170000	-2.940000	2.030000	570.00	-0.32	-0.07
2.61	0.00	0.00	0.00	0.00	0.00	0.00	0.00	0.00	0.00	4.50	6.25	3.75	0.00	0.00	0.00	3.50	0.794434	0.003906	2.291504	-28.770000	145.880005	-80.220001	171.00	0.24	-0.13	12.75	15.25	8.75	11.75	1.50	3.25	0.25	0.50	0.00	0.00	0.00	0.00	0.50	0.00	0.00	0.00	-0.154785	0.135742	0.956543	-2.870000	-2.660000	2.240000	566.00	-0.32	-0.07
2.62	0.00	0.00	0.00	0.00	0.00	0.00	0.25	0.00	0.00	4.25	6.00	3.75	0.00	0.00	0.00	3.75	0.675293	0.135254	1.995605	-51.590000	65.099998	-96.180000	171.00	0.24	-0.13	13.50	15.00	8.75	11.75	1.50	3.50	0.25	0.50	0.00	0.00	0.25	0.00	0.50	0.00	0.00	0.00	-0.153320	0.146484	0.957520	-5.110000	-1.960000	2.590000	577.00	-0.32	-0.07
2.63	0.00	0.00	0.00	0.00	0.00	0.00	0.25	0.00	0.00	4.00	5.75	3.75	0.00	0.00	0.00	3.75	0.678223	0.018555	1.598633	-46.480000	6.020000	-121.169998	166.00	0.24	-0.13	13.00	14.75	8.50	11.50	1.75	3.25	0.25	0.50	0.00	0.25	0.00	0.00	0.25	0.00	0.00	0.00	-0.160156	0.143066	0.966309	-7.770000	-1.190000	2.590000	562.00	-0.32	-0.07
2.64	0.00	0.00	0.00	0.00	0.00	0.00	0.25	0.00	0.00	4.25	5.75	3.50	0.00	0.00	0.00	3.50	0.608398	0.019043	1.320312	-36.470001	-35.490002	-147.910004	164.00	0.24	-0.12	13.00	15.00	8.75	11.50	1.75	3.75	0.50	0.50	0.25	0.50	0.25	0.00	0.00	0.00	0.00	0.00	-0.149902	0.135254	0.965820	-9.800000	-1.050000	2.240000	583.00	-0.31	-0.07
2.65	0.00	0.00	0.00	0.00	0.00	0.00	0.25	0.00	0.00	4.00	5.75	3.50	0.00	0.00	0.00	3.75	0.545898	0.050781	1.220215	-36.470001	-68.529999	-168.770004	163.00	0.24	-0.13	12.75	14.75	8.50	11.75	1.75	3.00	0.25	0.50	0.00	0.50	0.50	0.00	0.50	0.00	0.00	0.00	-0.160156	0.132324	0.966797	-10.780000	-1.050000	2.030000	570.00	-0.31	-0.07
2.66	0.00	0.00	0.00	0.00	0.00	0.00	0.25	0.00	0.00	3.75	5.75	3.25	0.00	0.00	0.00	3.75	0.431641	0.285156	1.123047	-79.730003	-126.070000	-181.089996	158.00	0.24	-0.13	12.50	14.50	8.50	11.50	1.75	3.50	0.25	0.50	0.25	0.25	0.25	0.00	0.75	0.00	0.00	0.00	-0.153809	0.123535	0.975098	-10.780000	-0.980000	1.960000	568.00	-0.31	-0.07
2.67	0.00	0.00	0.00	0.00	0.00	0.00	0.25	0.00	0.00	3.75	5.50	3.50	0.00	0.00	0.00	3.75	0.382812	0.429688	1.057129	-100.940002	-150.149994	-175.279999	158.00	0.24	-0.13	12.50	14.75	8.50	11.50	1.75	3.50	0.50	0.50	0.25	0.50	0.25	0.00	0.50	0.00	0.00	0.00	-0.154785	0.122070	0.979980	-9.800000	-1.120000	1.960000	574.00	-0.30	-0.07
2.68	0.00	0.00	0.00	0.00	0.00	0.00	0.25	0.00	0.00	3.75	5.50	3.50	0.00	0.00	0.00	3.50	0.309082	0.542480	1.022461	-110.459999	-169.470001	-163.940002	157.00	0.24	-0.13	12.25	14.25	8.25	11.25	1.50	3.50	0.25	0.25	0.25	0.50	0.50	0.00	0.50	0.00	0.00	0.00	-0.157715	0.131348	0.966309	-8.400000	-1.330000	1.890000	554.00	-0.31	-0.07
2.69	0.00	0.00	0.00	0.00	0.00	0.00	0.25	0.00	0.00	3.50	5.50	3.25	0.00	0.00	0.00	3.50	0.217285	0.623047	0.990234	-111.440002	-185.080002	-150.710007	151.00	0.24	-0.13	11.75	14.25	8.25	11.25	2.00	3.25	0.50	0.50	0.25	0.50	0.50	0.00	0.50	0.00	0.00	0.00	-0.157715	0.124023	0.980469	-6.720000	-1.540000	1.960000	559.00	-0.30	-0.07
2.70	0.00	0.00	0.00	0.00	0.00	0.00	0.25	0.00	0.00	3.75	5.25	3.25	0.00	0.00	0.00	3.75	0.149414	0.690430	0.954102	-106.820000	-197.539993	-136.500000	153.00	0.24	-0.13	11.75	14.00	8.25	11.25	1.75	3.25	0.50	0.75	0.25	0.75	0.50	0.00	0.50	0.00	0.00	0.00	-0.162109	0.128906	0.982910	-4.480000	-1.820000	2.100000	560.00	-0.30	-0.07
2.71	0.00	0.00	0.00	0.00	0.00	0.00	0.25	0.00	0.00	3.50	5.25	3.25	0.00	0.00	0.00	3.75	0.084473	0.751465	0.927246	-96.879997	-207.830002	-121.239998	150.00	0.24	-0.13	11.25	13.75	8.00	11.25	1.50	3.25	0.50	0.75	0.00	0.50	0.50	0.00	0.50	0.00	0.00	0.00	-0.160156	0.122070	0.986328	-2.520000	-2.170000	2.310000	541.00	-0.30	-0.08
2.72	0.00	0.00	0.00	0.00	0.00	0.00	0.25	0.00	0.00	3.25	5.00	3.00	0.00	0.00	0.00	3.75	0.008301	0.798340	0.926758	-80.150002	-216.790009	-103.949997	142.00	0.24	-0.13	11.25	13.75	8.25	11.25	1.75	3.75	0.25	0.50	0.25	0.50	0.50	0.25	0.50	0.25	0.00	0.25	-0.164551	0.116699	0.967773	1.120000	-2.660000	2.660000	554.00	-0.29	-0.08
2.73	0.00	0.00	0.00	0.00	0.00	0.00	0.25	0.00	0.00	3.50	5.25	3.25	0.00	0.00	0.00	3.50	-0.090332	0.842773	0.934082	-59.500000	-224.419998	-84.279999	149.00	0.24	-0.13	10.75	13.50	8.00	11.00	1.75	3.75	0.25	0.75	0.00	0.50	0.50	0.25	0.50	0.00	0.00	0.25	-0.154785	0.130859	0.966309	2.100000	-4.060000	2.730000	539.00	-0.30	-0.08
2.74	0.00	0.00	0.00	0.00	0.00	0.00	0.50	0.00	0.00	3.50	5.25	3.00	0.00	0.00	0.00	3.75	-0.184082	0.869629	0.958008	-37.520000	-232.190002	-61.180000	151.00	0.24	-0.12	10.50	13.25	8.00	10.75	1.75	4.00	0.25	0.75	0.25	0.75	0.50	0.25	0.75	0.00	0.00	0.00	-0.145020	0.139160	0.965332	1.680000	-4.200000	2.520000	541.00	-0.29	-0.08
2.75	0.00	0.00	0.00	0.00	0.00	0.00	0.25	0.00	0.00	3.50	5.25	3.00	0.00	0.00	0.00	3.75	-0.270996	0.886230	0.996582	-17.710001	-238.979996	-34.369999	147.00	0.24	-0.13	10.75	13.00	8.00	10.75	1.50	4.00	0.50	1.00	0.25	0.75	0.50	0.25	1.00	0.00	0.00	0.50	-0.155273	0.128906	0.967773	1.400000	-4.060000	2.450000	551.00	-0.28	-0.08
2.76	0.00	0.00	0.00	0.00	0.00	0.00	0.25	0.00	0.00	3.50	5.00	3.25	0.00	0.00	0.00	3.75	-0.337402	0.898438	1.061035	-2.520000	-246.470001	-4.060000	147.00	0.24	-0.13	10.25	12.75	7.75	10.75	1.75	4.25	0.25	1.00	0.25	0.75	0.75	0.00	1.00	0.00	0.00	0.00	-0.154297	0.133789	0.965332	0.490000	-4.130000	2.240000	540.00	-0.28	-0.09
2.77	0.00	0.00	0.00	0.00	0.00	0.00	0.25	0.00	0.00	3.50	5.25	3.00	0.00	0.00	0.00	3.75	-0.403320	0.885742	1.120605	9.030000	-255.500000	27.580000	147.00	0.24	-0.13	10.00	12.50	7.75	11.25	1.75	4.50	0.25	1.00	0.00	0.50	0.75	0.50	1.00	0.00	0.00	0.25	-0.155273	0.135742	0.970215	-0.490000	-4.690000	2.170000	544.00	-0.28	-0.09
2.78	0.00	0.00	0.00	0.00	0.00	0.00	0.25	0.00	0.00	3.50	5.00	3.00	0.00	0.00	0.00	3.50	-0.501953	0.850098	1.139648	23.240000	-264.950012	57.889999	143.00	0.24	-0.13	9.75	12.50	7.75	11.00	1.75	4.75	0.50	1.25	0.25	0.50	0.75	0.25	1.50	0.00	0.00	0.25	-0.158691	0.129883	0.973145	0.070000	-5.180000	1.820000	554.00	-0.27	-0.10
2.79	0.00	0.00	0.00	0.00	0.00	0.00	0.25	0.00	0.00	3.50	5.00	2.75	0.00	0.00	0.00	3.50	-0.630371	0.780762	1.138672	43.750000	-270.200012	83.440002	141.00	0.24	-0.12	9.50	12.25	7.50	11.00	1.75	5.00	0.25	1.25	0.25	1.00	0.75	0.50	1.25	0.25	0.00	0.25	-0.159668	0.129395	0.959961	0.420000	-5.460000	1.890000	553.00	-0.26	-0.10
2.80	0.00	0.00	0.00	0.00	0.00	0.00	0.25	0.00	0.00	3.75	5.00	3.00	0.00	0.00	0.00	3.75	-0.765625	0.703613	1.189941	68.739998	-271.600006	104.370003	147.00	0.24	-0.12	9.25	12.00	7.75	11.00	1.75	5.00	0.25	1.25	0.75	1.00	0.75	0.75	1.00	0.00	0.00	0.00	-0.151367	0.132324	0.960449	-0.350000	-5.390000	1.960000	554.00	-0.26	-0.09
2.81	0.00	0.00	0.00	0.00	0.00	0.00	0.25	0.00	0.00	3.50	5.25	3.00	0.00	0.00	0.00	3.50	-0.857910	0.636230	1.226074	91.629997	-270.059998	121.169998	146.00	0.24	-0.13	9.25	12.00	7.50	11.00	1.75	5.00	0.50	1.50	0.25	0.75	1.00	0.75	1.50	0.00	0.25	0.00	-0.156250	0.134277	0.961426	-0.980000	-4.830000	2.100000	560.00	-0.25	-0.10
2.82	0.00	0.00	0.00	0.00	0.00	0.00	0.50	0.00	0.00	3.50	5.25	3.50	0.00	0.00	0.00	3.50	-0.957031	0.532227	1.280762	106.959999	-267.260010	135.100006	155.00	0.23	-0.12	9.00	12.00	7.50	11.00	2.00	5.25	0.50	2.00	0.25	0.50	0.75	0.50	1.50	0.00	0.00	0.25	-0.149414	0.132324	0.962891	-1.120000	-4.690000	1.960000	561.00	-0.26	-0.11
2.83	0.00	0.00	0.00	0.00	0.00	0.00	0.25	0.00	0.00	3.25	5.00	3.25	0.00	0.00	0.00	3.75	-1.030762	0.454102	1.333008	111.930000	-264.040009	146.440002	145.00	0.24	-0.13	9.00	11.75	7.50	11.00	2.00	5.00	0.25	1.75	0.25	0.75	0.75	1.00	1.75	0.25	0.00	0.25	-0.153320	0.129883	0.966797	-1.400000	-4.900000	1.960000	561.00	-0.25	-0.11
2.84	0.00	0.00	0.00	0.00	0.00	0.00	0.25	0.00	0.00	3.50	5.00	3.00	0.00	0.00	0.00	3.50	-1.099121	0.381348	1.405273	105.279999	-261.309998	155.820007	143.00	0.24	-0.13	8.75	11.75	7.50	10.75	2.00	6.00	0.50	2.25	0.50	0.50	1.00	1.00	2.00	0.25	0.00	0.00	-0.155762	0.132324	0.966309	-1.890000	-4.900000	1.960000	582.00	-0.24	-0.11
2.85	0.00	0.00	0.00	0.00	0.00	0.00	0.25	0.00	0.00	3.50	5.25	3.00	0.00	0.00	0.00	3.50	-1.216309	0.366211	1.480469	90.510002	-257.950012	162.399994	146.00	0.24	-0.13	8.50	11.50	7.50	11.00	2.00	6.00	0.25	2.25	0.25	0.50	1.00	0.75	2.00	0.25	0.00	0.25	-0.150391	0.134766	0.971680	-2.240000	-4.620000	1.960000	571.00	-0.24	-0.12
2.86	0.00	0.00	0.00	0.00	0.00	0.00	0.25	0.00	0.00	3.50	5.00	3.00	0.00	0.00	0.00	3.75	-1.322754	0.362793	1.533203	72.940002	-254.940002	166.039993	145.00	0.24	-0.13	8.25	11.25	7.50	10.75	2.00	6.25	0.25	2.50	0.00	1.00	1.25	1.00	2.25	0.00	0.25	0.50	-0.154785	0.133789	0.964844	-2.800000	-4.410000	1.820000	581.00	-0.23	-0.12
2.87	0.00	0.00	0.00	0.00	0.00	0.00	0.25	0.00	0.00	3.25	5.00	3.00	0.00	0.00	0.00	3.50	-1.538086	0.435059	1.571777	40.320000	-253.889999	167.229996	141.00	0.24	-0.13	8.00	11.00	7.50	11.00	2.25	6.75	0.50	2.75	0.50	0.75	1.25	1.00	2.25	0.50	0.00	0.50	-0.158691	0.135742	0.964355	-3.500000	-4.410000	1.680000	600.00	-0.22	-0.12
2.88	0.00	0.00	0.00	0.00	0.00	0.00	0.25	0.00	0.00	3.50	5.00	3.25	0.00	0.00	0.00	3.50	-1.638184	0.459961	1.532715	31.290001	-254.660004	164.710007	146.00	0.24	-0.13	8.25	11.00	7.50	10.75	2.25	6.75	0.50	3.00	0.50	0.75	1.25	1.25	2.50	0.50	0.00	0.50	-0.147461	0.137695	0.963867	-4.970000	-4.550000	1.610000	609.00	-0.22	-0.12
2.89	0.00	0.00	0.00	0.00	0.00	0.00	0.25	0.00	0.00	3.50	5.00	3.25	0.00	0.00	0.00	3.75	-1.742676	0.437988	1.423828	28.139999	-252.910004	162.539993	147.00	0.24	-0.13	7.75	10.75	7.25	10.75	2.50	7.00	0.50	3.50	0.75	0.75	1.50	1.50	3.00	0.50	0.25	0.50	-0.141113	0.137695	0.935059	-7.000000	-5.040000	1.330000	627.00	-0.20	-0.13
2.90	0.00	0.00	0.00	0.00	0.00	0.00	0.25	0.00	0.00	3.25	5.00	3.00	0.00	0.00	0.00	3.75	-1.841797	0.381348	1.264648	32.689999	-246.050003	159.110001	142.00	0.24	-0.13	7.50	10.25	7.25	10.50	2.75	7.00	0.50	3.75	0.50	1.00	2.00	1.75	3.50	0.50	0.25	0.75	-0.139160	0.136230	0.966797	-8.540000	-4.410000	0.770000	637.00	-0.19	-0.13
2.91	0.00	0.00	0.00	0.00	0.00	0.00	0.25	0.00	0.00	3.50	5.00	3.50	0.00	0.00	0.00	3.75	-1.920410	0.300293	1.091797	46.270000	-232.540009	154.000000	150.00	0.24	-0.13	7.25	9.50	7.00	10.25	2.75	7.50	0.50	4.00	0.75	1.25	2.25	2.00	3.50	0.75	0.25	0.50	-0.156738	0.125977	0.976562	-7.350000	-2.310000	0.140000	643.00	-0.17	-0.13
2.92	0.00	0.00	0.00	0.00	0.00	0.00	0.25	0.00	0.00	3.50	5.00	3.25	0.00	0.00	0.00	3.50	-2.031250	0.191406	0.998535	66.779999	-212.800003	147.699997	146.00	0.24	-0.13	6.50	9.25	6.75	10.25	3.00	7.50	0.50	4.50	1.00	1.75	2.25	2.25	4.50	0.75	0.25	0.50	-0.160156	0.126465	0.988770	-5.390000	0.420000	0.420000	660.00	-0.16	-0.14
2.93	0.00	0.00	0.00	0.00	0.00	0.00	0.25	0.00	0.00	3.50	5.25	3.25	0.00	0.00	0.00	3.50	-2.185547	0.059082	0.905273	89.040001	-190.610001	139.930008	149.00	0.24	-0.13	6.25	8.75	6.50	9.75	2.75	7.25	0.50	5.00	1.00	1.75	2.25	2.25	4.50	1.25	0.25	1.00	-0.160156	0.125488	0.981445	-1.890000	4.480000	1.400000	654.00	-0.14	-0.14
2.94	0.00	0.00	0.00	0.00	0.00	0.00	0.25	0.00	0.00	3.50	5.00	3.25	0.00	0.00	0.00	3.75	-2.343262	-0.096191	0.784180	100.519997	-166.460007	129.500000	147.00	0.24	-0.13	5.50	8.25	6.00	9.25	2.75	7.25	0.50	5.25	1.25	1.75	2.75	2.50	5.00	1.25	0.25	0.75	-0.150879	0.126953	0.980957	-0.140000	5.390000	1.890000	648.00	-0.13	-0.15
2.95	0.00	0.00	0.00	0.00	0.00	0.00	0.25	0.00	0.00	3.25	5.00	3.00	0.00	0.00	0.00	3.75	-2.399902	-0.219727	0.664551	89.809998	-142.100006	112.910004	142.00	0.24	-0.13	5.00	7.50	5.50	9.00	2.75	7.00	0.50	5.50	1.50	1.75	3.00	2.75	5.25	1.25	0.75	1.00	-0.162109	0.137207	0.981934	1.190000	6.090000	2.380000	646.00	-0.11	-0.15
2.96	0.00	0.00	0.00	0.00	0.00	0.00	0.25	0.00	0.00	3.25	5.00	3.00	0.00	0.00	0.00	3.75	-2.476074	-0.344727	0.434570	63.840000	-119.419998	88.900002	142.00	0.24	-0.13	4.00	6.75	5.25	8.50	2.75	7.00	0.50	6.25	1.25	2.00	3.25	3.25	5.50	1.25	0.50	1.00	-0.156250	0.148438	0.984863	1.540000	6.510000	1.960000	639.00	-0.09	-0.17
2.97	0.00	0.00	0.00	0.00	0.00	0.00	0.25	0.00	0.00	3.25	5.00	3.00	0.00	0.00	0.00	3.75	-2.500977	-0.355957	0.264648	39.900002	-94.849998	57.610001	142.00	0.24	-0.13	3.50	5.75	4.50	8.00	2.50	6.50	0.50	6.00	1.25	2.25	3.50	3.50	5.75	1.50	0.75	1.50	-0.168945	0.141113	0.975586	0.630000	7.350000	1.260000	616.00	-0.07	-0.17
2.98	0.00	0.00	0.00	0.00	0.00	0.00	0.25	0.00	0.00	3.25	4.75	3.25	0.00	0.00	0.00	3.75	-2.510742	-0.323730	0.153320	30.380001	-67.410004	20.510000	142.00	0.24	-0.14	2.50	5.00	3.25	7.50	2.25	6.50	0.50	6.50	1.25	2.25	3.75	3.75	6.50	1.50	0.50	1.50	-0.154785	0.144531	0.972656	-0.420000	8.260000	0.630000	594.00	-0.05	-0.19
2.99	0.00	0.00	0.00	0.00	0.00	0.00	0.25	0.00	0.00	3.25	5.25	3.00	0.00	0.00	0.00	3.75	-2.486816	-0.260742	0.094238	35.420002	-41.930000	-16.799999	145.00	0.24	-0.13	2.00	4.00	2.75	6.25	1.75	5.75	0.50	6.50	2.00	2.50	4.50	4.25	7.00	2.00	1.00	1.75	-0.166016	0.142578	0.975098	-1.050000	9.660000	-0.000000	587.00	-0.01	-0.18
3.00	0.00	0.00	0.00	0.00	0.00	0.00	0.25	0.00	0.00	3.50	5.00	3.25	0.00	0.00	0.00	3.50	-2.465820	-0.197266	0.109863	45.570000	-20.650000	-47.250000	146.00	0.24	-0.13	1.25	2.25	2.00	5.50	1.50	5.00	0.50	6.25	2.25	2.75	5.75	4.75	7.00	2.25	1.00	2.00	-0.165039	0.136230	0.988770	-1.610000	11.130000	-0.560000	560.00	0.03	-0.19
3.01	0.00	0.00	0.00	0.00	0.00	0.00	0.25	0.00	0.00	3.00	5.00	3.25	0.00	0.00	0.00	3.75	-4.592285	-0.705566	-0.670898	46.619999	-7.140000	-68.250000	142.00	0.24	-0.14	0.75	1.00	1.75	4.50	1.25	4.25	0.50	6.00	2.50	2.75	6.50	5.00	7.50	2.50	1.25	2.25	-0.163574	0.126465	0.991699	-1.470000	13.580000	-0.980000	539.00	0.07	-0.18
3.02	0.00	0.00	0.00	0.00	0.00	0.00	0.25	0.00	0.00	3.00	4.75	3.00	0.00	0.00	0.00	3.75	-2.638672	-1.264648	-0.907715	-74.830002	96.180000	-83.720001	137.00	0.24	-0.14	0.00	1.00	1.00	2.75	0.75	2.25	0.50	5.75	2.50	3.00	7.50	5.25	7.50	3.00	1.00	2.25	-0.158691	0.140625	1.009766	0.840000	16.870001	-2.870000	490.00	0.11	-0.19
3.03	0.00	0.25	0.00	0.00	0.00	0.00	0.25	0.00	0.00	2.75	4.50	3.00	0.00	0.00	0.00	3.75	0.050781	0.735840	0.510742	-167.089996	203.839996	-112.980003	134.00	0.23	-0.14	0.00	0.50	0.75	2.25	0.50	1.75	0.50	5.25	2.75	3.25	8.00	6.00	7.50	3.50	1.25	2.75	-0.028320	0.187500	1.205566	7.490000	30.590000	-4.410000	490.00	0.14	-0.18
3.04	0.25	0.50	0.00	0.00	0.00	0.00	0.25	0.00	0.00	2.75	4.50	3.00	0.00	0.00	0.00	3.75	-0.107910	1.070801	2.511719	-149.589996	203.770004	-88.970001	139.00	0.21	-0.14	0.00	0.50	0.25	1.50	0.50	0.75	0.25	4.00	2.75	3.50	8.00	6.25	7.50	3.75	1.50	2.75	-0.148926	0.177246	1.109863	28.210001	68.459999	-9.310000	452.00	0.17	-0.17
3.05	0.50	1.75	0.50	0.00	0.00	0.00	0.25	0.00	0.00	2.75	4.50	3.25	0.00	0.00	0.00	3.50	-0.137695	0.905273	1.780762	-115.360001	143.500000	-40.250000	160.00	0.13	-0.13	0.00	0.00	0.25	1.25	0.25	0.25	0.25	2.50	2.75	3.25	8.25	6.50	7.25	4.25	1.50	3.25	-0.149414	0.141602	1.153809	37.590000	107.309998	-12.530000	421.00	0.20	-0.15
3.06	1.50	3.75	0.50	0.25	0.00	0.00	0.25	0.00	0.00	3.00	4.25	3.00	0.00	0.00	0.00	4.00	-0.279785	0.752930	0.797852	-96.040001	139.440002	-0.910000	191.00	0.05	-0.12	0.00	0.00	0.25	0.75	0.00	0.00	0.00	1.50	2.50	3.00	8.25	6.25	7.00	4.75	1.75	3.25	-0.196289	0.148438	1.333496	47.740002	144.759995	-16.309999	387.00	0.22	-0.15
3.07	2.50	5.25	0.50	0.50	0.00	0.00	0.25	0.00	0.00	2.75	4.50	3.00	0.00	0.00	0.00	3.75	-0.289551	0.065430	1.196777	-70.769997	190.750000	28.980000	217.00	-0.01	-0.11	0.00	0.00	0.75	0.75	0.00	0.00	0.00	0.50	2.25	3.00	8.00	6.50	6.50	5.50	1.75	3.50	-0.218262	0.198730	1.219238	48.439999	180.389999	-20.580000	378.00	0.23	-0.13
3.08	3.25	6.75	0.75	0.75	0.00	0.00	0.25	0.00	0.00	3.00	4.75	3.25	0.00	0.00	0.00	3.75	-0.564453	-0.595703	2.026367	-31.920000	161.350006	22.750000	252.00	-0.04	-0.11	0.00	0.00	0.00	0.00	0.00	0.00	0.00	0.25	2.00	2.75	7.75	6.00	5.75	5.50	1.75	4.00	-0.304199	0.180664	1.296387	37.660000	211.680008	-22.330000	340.00	0.26	-0.13
3.09	3.50	7.50	1.00	1.50	0.00	0.00	0.25	0.00	0.00	2.50	4.75	3.25	0.00	0.00	0.00	3.75	-0.447754	-0.383789	1.665527	-23.450001	116.760002	-7.350000	267.00	-0.07	-0.11	0.00	0.00	0.00	0.25	0.00	0.00	0.00	0.00	1.75	2.50	7.50	5.50	5.25	6.00	1.75	4.75	-0.314941	0.122070	1.349121	49.700001	232.470001	-18.830000	329.00	0.26	-0.12
3.10	4.00	8.50	1.00	2.00	0.00	0.00	0.50	0.00	0.00	2.50	4.50	3.25	0.00	0.00	0.00	3.50	-0.279785	0.124512	1.231445	-10.920000	83.440002	-26.670000	287.00	-0.09	-0.11	0.00	0.00	0.00	0.00	0.00	0.00	0.00	0.00	1.50	2.00	7.00	4.75	3.75	6.50	2.00	5.00	-0.337402	0.216797	1.435059	47.529999	255.570007	-18.270000	300.00	0.28	-0.11
3.11	4.50	9.75	1.25	1.50	0.25	0.00	0.50	0.00	0.00	2.75	4.50	3.25	0.00	0.00	0.00	3.75	-0.154785	0.337402	0.800293	1.610000	73.220001	-25.200001	308.00	-0.11	-0.10	0.00	0.00	0.00	0.00	0.00	0.00	0.00	0.00	1.00	1.75	6.00	4.25	2.50	6.50	1.75	5.00	-0.427734	0.310059	1.334961	35.490002	280.559998	-21.840000	262.00	0.29	-0.10
3.12	5.00	10.50	1.75	3.00	0.00	0.00	0.50	0.00	0.00	2.75	4.00	3.25	0.00	0.00	0.00	4.25	-0.132812	0.322754	0.752441	13.160000	86.660004	-15.260000	337.00	-0.13	-0.10	0.00	0.00	0.00	0.00	0.00	0.00	0.00	0.00	0.50	1.75	4.50	3.50	1.50	6.50	1.75	5.00	-0.511230	0.277344	1.801758	24.500000	301.209991	-29.120001	223.00	0.30	-0.09
3.13	5.50	12.25	2.00	4.00	0.25	0.00	0.50	0.00	0.00	3.00	4.25	3.50	0.25	0.00	0.00	3.75	-0.207031	0.410156	1.121582	-31.500000	64.050003	-4.270000	382.00	-0.14	-0.10	0.00	0.00	0.00	0.00	0.00	0.00	0.00	0.00	0.25	1.25	3.50	2.75	1.25	6.00	1.75	4.50	-0.689453	0.589355	1.948242	29.610001	350.070007	-34.299999	187.00	0.31	-0.09
3.14	6.50	13.00	3.25	5.00	0.00	1.00	0.25	0.00	0.00	3.00	4.25	3.50	0.00	0.00	0.00	4.00	-0.348633	0.115234	1.244629	-36.400002	49.770000	-0.630000	427.00	-0.17	-0.10	0.00	0.00	0.00	0.00	0.00	0.00	0.00	0.00	0.00	1.00	2.50	2.25	0.75	5.50	1.75	3.75	-0.626465	0.336914	2.109863	52.360001	373.519989	-45.009998	153.00	0.32	-0.08
3.15	6.25	13.00	2.50	5.25	0.00	0.25	0.50	0.00	0.00	3.00	4.25	3.00	0.00	0.00	0.00	3.75	-0.239746	0.125000	1.069336	-39.759998	47.320000	-2.870000	408.00	-0.17	-0.10	0.00	0.00	0.00	0.00	0.00	0.00	0.00	0.00	0.00	0.75	1.75	1.25	0.50	4.50	0.75	2.75	-0.722656	0.394531	2.333984	34.090000	380.869995	-51.799999	105.00	0.32	-0.06
3.16	6.00	12.75	2.50	5.25	0.25	0.25	0.50	0.00	0.00	3.00	4.50	3.00	0.00	0.00	0.00	4.00	-0.240234	0.143066	1.023438	-34.299999	35.139999	-3.710000	410.00	-0.16	-0.10	0.00	0.00	0.00	0.00	0.00	0.00	0.00	0.00	0.00	0.25	1.25	0.75	0.00	3.00	0.50	1.50	-0.681641	0.720215	2.304199	30.450001	388.500000	-58.869999	63.00	0.33	-0.03
3.17	6.50	14.25	2.75	5.75	0.25	0.75	0.50	0.00	0.00	3.25	4.50	3.50	0.00	0.00	0.00	3.75	-0.209961	0.153320	0.901855	-33.599998	32.549999	-3.430000	449.00	-0.17	-0.10	0.00	0.00	0.00	0.00	0.00	0.00	0.00	0.00	0.00	0.25	0.75	0.50	0.00	1.50	0.25	0.50	-0.544434	0.719727	2.306641	54.110001	389.130005	-73.220001	34.00	0.00	0.00
3.18	7.00	14.75	3.50	7.00	0.75	1.25	0.75	0.25	0.00	3.25	5.00	3.50	0.25	0.00	0.00	4.00	-0.250488	0.131836	1.012207	-31.850000	19.460001	-4.060000	508.00	-0.17	-0.10	0.00	0.00	0.00	0.00	0.00	0.00	0.00	0.00	0.00	0.00	0.75	0.25	0.00	0.50	0.00	0.00	-0.302734	0.836914	2.334473	80.779999	383.739990	-86.940002	15.00	0.00	0.00
3.19	7.50	16.25	3.75	7.50	0.75	1.00	0.75	0.25	0.00	3.25	5.00	3.50	0.25	0.00	0.00	4.00	-0.235840	0.115234	0.944824	-29.960001	12.180000	-4.690000	533.00	-0.18	-0.10	0.00	0.00	0.00	0.00	0.00	0.00	0.00	0.00	0.00	0.00	0.25	0.00	0.00	0.00	0.00	0.00	0.101562	0.798340	2.121582	115.010002	364.630005	-102.410004	3.00	0.00	0.00
3.20	8.25	16.75	4.50	8.00	1.00	1.25	0.75	0.25	0.00	3.50	5.50	3.75	0.25	0.25	0.00	4.00	-0.223633	0.150391	0.957031	-28.139999	10.570000	-3.780000	577.00	-0.17	-0.10	0.00	0.00	0.00	0.25	0.00	0.00	0.00	0.00	0.00	0.00	0.00	0.00	0.00	0.00	0.00	0.00	1.988770	0.784668	1.848145	124.599998	330.890015	-119.840004	3.00	0.00	0.00
3.21	8.50	17.25	4.75	8.25	1.25	1.75	0.75	0.25	0.00	3.25	5.00	3.50	0.25	0.00	0.00	4.00	-0.225586	0.124512	0.971680	-28.840000	8.680000	-3.640000	585.00	-0.19	-0.10	0.00	0.00	0.00	0.00	0.00	0.00	0.00	0.00	0.00	0.00	0.00	0.00	0.00	0.00	0.00	0.00	0.210938	1.243652	3.175781	61.180000	254.169998	-103.459999	0.00	0.00	0.00
3.22	8.75	17.50	5.00	8.50	1.25	1.50	0.75	0.25	0.00	3.50	5.25	3.50	0.25	0.25	0.00	3.75	-0.233398	0.127930	0.984863	-26.809999	6.580000	-3.500000	599.00	-0.19	-0.10	0.00	0.00	0.00	0.00	0.00	0.00	0.00	0.00	0.00	0.00	0.00	0.00	0.00	0.00	0.00	0.00	1.611328	1.036621	3.325684	8.050000	108.779999	-52.290001	0.00	0.00	0.00
3.23	8.75	17.50	5.50	8.75	1.50	1.50	0.75	0.25	0.00	3.75	5.50	3.50	0.25	0.25	0.00	4.00	-0.210449	0.118164	0.938965	-23.379999	5.250000	-3.220000	617.00	-0.18	-0.09	0.00	0.00	0.00	0.00	0.00	0.00	0.00	0.00	0.00	0.25	0.00	0.00	0.00	0.00	0.00	0.00	1.430664	0.282227	2.169434	-55.090000	-9.240000	-19.950001	3.00	0.00	0.00
3.24	8.75	18.25	5.50	9.00	1.75	1.75	0.75	0.50	0.00	3.75	6.00	3.50	0.50	0.50	0.00	4.00	-0.204590	0.113770	0.951172	-23.520000	3.500000	-3.430000	645.00	-0.18	-0.10	0.00	0.00	0.00	0.00	0.00	0.00	0.00	0.00	0.00	0.00	0.00	0.00	0.00	0.00	0.00	0.00	1.329590	-0.045410	1.309082	-96.669998	-66.360001	-24.570000	0.00	0.00	0.00
3.25	8.75	18.00	5.75	9.25	2.00	1.75	0.75	0.50	0.00	3.75	5.75	3.50	0.50	1.00	0.00	4.00	-0.223145	0.127441	0.973145	-22.820000	1.820000	-3.710000	653.00	-0.17	-0.09	0.00	0.00	0.25	0.00	0.00	0.00	0.00	0.00	0.00	0.00	0.00	0.00	0.00	0.00	0.00	0.00	1.271973	-0.092773	0.855469	-94.639999	-83.090004	-56.560001	3.00	0.00	0.00
3.26	9.75	20.00	6.50	9.75	2.00	2.25	0.75	0.50	0.25	4.00	5.75	3.75	0.50	1.25	0.00	4.00	-0.229492	0.122070	0.962402	-20.719999	1.260000	-3.500000	711.00	-0.18	-0.09	0.00	0.00	0.00	0.00	0.00	0.00	0.00	0.00	0.00	0.00	0.00	0.00	0.00	0.00	0.00	0.00	1.168945	0.072754	0.861816	-52.570000	-88.410004	-93.519997	0.00	0.00	0.00
3.27	10.00	19.50	6.75	9.75	2.50	2.25	1.00	0.50	0.00	4.00	6.00	4.00	0.75	1.75	0.00	4.25	-0.217773	0.109863	0.953613	-18.830000	1.750000	-3.500000	731.00	-0.17	-0.09	0.00	0.00	0.00	0.00	0.00	0.00	0.00	0.00	0.00	0.00	0.00	0.00	0.00	0.00	0.00	0.00	1.161621	0.204102	1.041504	-2.940000	-102.760002	-116.480003	0.00	0.00	0.00
3.28	8.75	18.75	6.50	9.50	2.25	2.00	1.00	0.50	0.00	4.00	6.00	4.00	0.75	1.50	0.00	4.25	-0.208984	0.100098	0.955566	-16.309999	2.520000	-3.570000	698.00	-0.17	-0.09	0.00	0.00	0.00	0.00	0.00	0.00	0.00	0.00	0.00	0.00	0.00	0.00	0.00	0.00	0.00	0.00	1.095215	0.290039	1.228027	24.360001	-131.600006	-119.279999	0.00	0.00	0.00
3.29	9.25	18.75	6.75	9.75	2.75	2.25	1.00	0.50	0.50	4.25	6.00	4.00	0.75	2.00	0.00	4.25	-0.208984	0.100098	0.955566	-16.309999	2.520000	-3.570000	731.00	-0.16	-0.08	0.00	0.00	0.00	0.00	0.00	0.00	0.00	0.00	0.00	0.00	0.00	0.00	0.00	0.00	0.00	0.00	1.015137	0.291504	1.317871	20.719999	-169.050003	-105.279999	0.00	0.00	0.00
3.30	9.50	18.50	7.00	9.75	2.75	2.00	1.00	0.50	0.25	4.25	5.75	4.00	1.00	2.25	0.00	4.25	-0.216309	0.102539	0.963379	-16.100000	2.310000	-3.640000	729.00	-0.16	-0.08	0.00	0.00	0.00	0.00	0.00	0.00	0.00	0.00	0.00	0.00	0.00	0.00	0.00	0.00	0.00	0.00	0.910156	0.336914	1.267090	-3.220000	-206.990005	-83.580002	0.00	0.00	0.00
3.31	8.25	17.00	7.00	9.25	3.00	2.00	1.00	0.50	0.25	4.25	6.00	3.75	0.75	2.25	0.00	4.25	-0.220215	0.097656	0.962891	-13.790000	3.360000	-3.360000	698.00	-0.15	-0.08	0.00	0.00	0.00	0.00	0.00	0.00	0.00	0.00	0.00	0.00	0.00	0.00	0.00	0.00	0.00	0.00	0.771973	0.396484	1.173340	-18.969999	-239.820007	-63.070000	0.00	0.00	0.00
3.32	8.50	17.50	7.75	9.50	2.75	2.25	1.00	0.75	0.50	4.50	6.25	4.00	0.75	2.25	0.00	4.25	-0.218262	0.100586	0.953613	-11.200000	4.270000	-2.870000	731.00	-0.15	-0.08	0.00	0.00	0.00	0.00	0.00	0.00	0.00	0.00	0.00	0.00	0.00	0.00	0.00	0.00	0.00	0.00	0.612305	0.406250	1.071289	-8.610000	-264.320007	-47.389999	0.00	0.00	0.00
3.33	9.00	17.50	7.25	9.50	3.00	2.25	1.00	0.50	0.75	4.50	6.50	3.75	1.00	2.25	0.25	4.25	-0.217285	0.094727	0.954102	-9.380000	4.690000	-2.450000	738.00	-0.14	-0.08	0.00	0.00	0.00	0.00	0.00	0.00	0.00	0.00	0.00	0.00	0.00	0.00	0.00	0.00	0.00	0.00	0.315918	0.225586	0.994629	63.000000	-286.440002	-30.030001	0.00	0.00	0.00
3.34	7.75	15.50	7.00	8.75	3.00	2.25	1.00	0.50	0.75	4.75	6.25	3.75	1.00	2.50	0.00	4.25	-0.212891	0.096680	0.964355	-8.190000	4.900000	-2.100000	695.00	-0.13	-0.08	0.00	0.00	0.00	0.00	0.00	0.00	0.00	0.00	0.00	0.00	0.00	0.00	0.00	0.00	0.00	0.00	0.164551	0.083008	1.072754	88.480003	-291.339996	-25.200001	0.00	0.00	0.00
3.35	8.25	16.25	7.00	9.25	3.00	2.25	1.00	0.75	0.75	4.75	6.50	4.00	1.00	2.75	0.25	4.50	-0.207520	0.089844	0.954102	-7.210000	5.040000	-2.030000	727.00	-0.13	-0.08	0.00	0.00	0.00	0.00	0.00	0.00	0.00	0.00	0.00	0.00	0.00	0.00	0.00	0.00	0.00	0.00	0.028320	0.001953	1.197754	93.169998	-296.799988	-22.820000	0.00	0.00	0.00
3.36	8.00	16.00	7.25	9.25	3.50	2.00	1.00	0.50	1.00	4.75	6.25	4.00	1.00	3.00	0.25	4.50	-0.211426	0.091797	0.958496	-6.370000	5.740000	-2.100000	727.00	-0.13	-0.08	0.00	0.00	0.00	0.00	0.00	0.00	0.00	0.00	0.00	0.00	0.00	0.00	0.00	0.00	0.00	0.00	-0.076660	0.067871	1.350586	88.269997	-304.500000	-21.350000	0.00	0.00	0.00
3.37	7.75	15.50	7.00	8.75	3.50	2.00	1.00	0.50	1.00	4.75	6.50	4.00	1.00	3.00	0.25	4.25	-0.216309	0.089355	0.951660	-5.390000	6.300000	-1.960000	713.00	-0.12	-0.07	0.00	0.00	0.00	0.00	0.00	0.00	0.00	0.00	0.00	0.00	0.00	0.00	0.00	0.00	0.00	0.00	-0.197754	0.137207	1.504883	91.070000	-315.630005	-20.090000	0.00	0.00	0.00
3.38	7.50	14.75	7.00	8.50	3.50	2.00	1.00	0.50	1.00	4.75	6.50	4.00	1.00	3.00	0.25	4.50	-0.209473	0.094238	0.947754	-4.340000	6.650000	-1.680000	702.00	-0.12	-0.07	0.00	0.00	0.00	0.00	0.00	0.00	0.00	0.00	0.00	0.00	0.00	0.00	0.00	0.00	0.00	0.00	-0.372070	0.154785	1.621582	107.309998	-328.160004	-20.860001	0.00	0.00	0.00
3.39	7.25	14.00	7.00	8.50	3.75	1.75	1.00	0.50	1.50	5.00	6.50	4.00	1.25	3.50	0.25	4.25	-0.212891	0.092773	0.954102	-3.430000	6.930000	-1.750000	707.00	-0.10	-0.07	0.00	0.00	0.00	0.00	0.00	0.00	0.00	0.00	0.00	0.00	0.00	0.00	0.00	0.00	0.00	0.00	-0.583984	0.153809	1.719727	126.349998	-339.640015	-22.540001	0.00	0.00	0.00
3.40	7.00	13.00	6.75	8.25	3.75	1.75	1.00	0.75	1.25	4.75	6.50	4.00	1.25	3.50	0.25	4.25	-0.212891	0.092285	0.957520	-2.940000	7.630000	-1.890000	687.00	-0.10	-0.07	0.00	0.00	0.00	0.00	0.00	0.00	0.00	0.00	0.00	0.00	0.00	0.00	0.00	0.00	0.00	0.00	-0.770508	0.180176	1.824707	135.800003	-348.600006	-20.090000	0.00	0.00	0.00
3.41	6.50	12.50	6.50	8.00	3.50	1.75	1.00	0.50	1.25	4.75	6.50	4.25	1.25	3.50	0.25	4.50	-0.208008	0.095215	0.946289	-2.310000	8.470000	-2.030000	669.00	-0.09	-0.07	0.00	0.00	0.00	0.00	0.00	0.00	0.00	0.00	0.00	0.00	0.00	0.00	0.00	0.00	0.00	0.00	-0.932617	0.242676	1.841309	135.800003	-354.899994	-8.610000	0.00	0.00	0.00
3.42	6.25	11.75	6.50	8.00	3.75	1.75	1.00	0.75	1.25	5.00	6.50	4.25	1.25	3.75	0.25	4.50	-0.214355	0.093262	0.956543	-1.470000	8.260000	-1.960000	671.00	-0.08	-0.07	0.00	0.00	0.00	0.00	0.00	0.00	0.00	0.00	0.00	0.00	0.00	0.00	0.00	0.00	0.00	0.00	-1.103516	0.297363	1.815918	130.270004	-356.440002	11.760000	0.00	0.00	0.00
3.43	6.00	11.50	6.25	7.75	3.50	1.75	1.00	0.75	1.50	4.75	6.75	4.25	1.00	3.50	0.25	4.25	-0.212891	0.090820	0.952637	-0.420000	7.840000	-1.610000	656.00	-0.08	-0.07	0.00	0.00	0.00	0.00	0.00	0.00	0.00	0.00	0.00	0.00	0.00	0.00	0.00	0.00	0.00	0.00	-1.292969	0.371094	1.784180	121.449997	-350.769989	39.480000	0.00	0.00	0.00
3.44	5.75	10.50	6.25	7.75	3.50	1.75	1.00	0.75	1.50	4.75	6.75	4.25	1.25	3.50	0.25	4.25	-0.211426	0.092773	0.946289	0.070000	7.280000	-1.470000	646.00	-0.07	-0.07	0.00	0.00	0.00	0.00	0.00	0.00	0.00	0.00	0.00	0.00	0.00	0.00	0.00	0.00	0.00	0.00	-1.440918	0.429688	1.723145	109.550003	-337.610016	72.519997	0.00	0.00	0.00
3.45	5.50	10.00	6.00	7.50	3.50	1.75	1.00	0.75	1.50	5.75	6.50	4.25	1.25	3.50	0.25	4.25	-0.207520	0.087402	0.944824	-0.280000	6.440000	-1.400000	641.00	-0.07	-0.07	0.00	0.00	0.00	0.00	0.00	0.00	0.00	0.00	0.00	0.00	0.00	0.00	0.00	0.00	0.00	0.00	-1.581543	0.495117	1.664551	97.510002	-318.500000	107.660004	0.00	0.00	0.00
3.46	5.50	9.75	6.00	7.50	3.50	1.75	1.00	0.75	1.25	5.50	7.00	4.50	1.25	3.75	0.25	4.50	-0.206543	0.094727	0.950195	-0.630000	6.090000	-1.330000	644.00	-0.06	-0.07	0.00	0.00	0.00	0.50	0.00	0.00	0.00	0.00	0.00	0.00	0.00	0.00	0.00	0.00	0.00	0.00	-1.734375	0.529785	1.614746	92.050003	-296.309998	141.470001	5.00	0.00	0.00
3.47	5.25	9.50	5.50	7.00	3.50	1.50	1.00	0.75	1.75	5.25	7.00	4.50	1.50	3.75	0.25	4.50	-0.209961	0.087402	0.953613	-0.560000	5.810000	-1.260000	632.00	-0.05	-0.07	0.00	0.00	0.00	0.00	0.00	0.00	0.00	0.00	0.00	0.00	0.00	0.00	0.00	0.00	0.00	0.00	-1.858887	0.475098	1.583984	98.419998	-273.209991	170.589996	0.00	0.00	0.00
3.48	5.00	9.25	5.50	7.25	3.50	2.00	1.00	0.75	1.75	5.00	7.25	4.50	1.50	4.00	0.00	4.50	-0.208496	0.095215	0.954590	-0.350000	5.670000	-1.260000	635.00	-0.05	-0.07	0.00	0.00	0.00	0.00	0.00	0.00	0.00	0.00	0.00	0.00	0.00	0.00	0.00	0.00	0.00	0.00	-1.989746	0.330566	1.531250	113.260002	-252.559998	192.850006	0.00	0.00	0.00
3.49	4.75	8.75	5.50	7.00	3.50	2.00	1.00	1.00	1.25	5.75	7.25	4.75	1.50	4.00	0.25	4.50	-0.206543	0.092285	0.946777	-0.070000	5.670000	-1.330000	635.00	-0.04	-0.08	0.00	0.00	0.00	0.25	0.00	0.00	0.00	0.00	0.00	0.00	0.00	0.00	0.00	0.00	0.00	0.00	-2.161621	0.171387	1.509277	126.559998	-230.300003	208.389999	3.00	0.00	0.00
3.50	4.50	8.50	5.50	6.75	3.50	2.00	1.25	1.00	1.75	5.75	7.25	4.75	1.50	4.25	0.25	4.50	-0.211426	0.089355	0.946289	0.070000	5.390000	-1.400000	640.00	-0.03	-0.07	0.00	0.00	0.00	0.00	0.00	0.00	0.00	0.00	0.00	0.00	0.00	0.00	0.00	0.00	0.00	0.00	-2.359863	-0.127930	1.427734	125.090004	-204.050003	218.610001	0.00	0.00	0.00
3.51	4.25	8.25	5.25	6.75	3.50	2.00	1.00	1.00	1.75	5.50	7.25	4.75	1.75	4.50	0.75	4.75	-0.208008	0.092285	0.949707	0.980000	4.480000	-1.610000	637.00	-0.02	-0.07	0.00	0.00	0.00	0.00	0.00	0.00	0.00	0.00	0.00	0.00	0.00	0.00	0.00	0.00	0.00	0.00	-2.525391	-0.354980	1.308594	100.870003	-176.539993	220.430008	0.00	0.00	0.00
3.52	4.25	7.50	5.25	6.75	3.75	2.25	1.00	1.25	1.75	5.75	7.50	5.00	2.00	4.25	0.50	4.50	-0.209473	0.089355	0.946777	1.820000	4.340000	-1.400000	643.00	-0.02	-0.08	0.00	0.00	0.00	0.00	0.00	0.00	0.00	0.00	0.00	0.00	0.00	0.00	0.00	0.00	0.00	0.00	-2.648926	-0.447754	1.161621	63.630001	-150.990005	212.729996	0.00	0.00	0.00
3.53	3.75	7.50	5.00	6.50	3.75	2.25	1.00	1.50	1.75	6.00	7.50	5.00	2.00	4.50	0.25	4.75	-0.209961	0.093750	0.948242	2.730000	4.760000	-0.770000	639.00	-0.01	-0.08	0.00	0.00	0.00	0.00	0.00	0.00	0.00	0.00	0.00	0.00	0.00	0.00	0.00	0.00	0.00	0.00	-2.702148	-0.409668	0.658691	-6.440000	-106.190002	165.199997	0.00	0.00	0.00
3.54	3.75	7.25	5.00	6.50	3.75	2.75	1.00	1.50	1.75	6.00	7.50	5.25	2.00	4.75	0.50	4.75	-0.208984	0.088379	0.946289	3.850000	4.690000	-0.140000	650.00	-0.01	-0.08	0.00	0.00	0.00	0.00	0.00	0.00	0.00	0.00	0.00	0.00	0.00	0.00	0.00	0.00	0.00	0.00	-2.632324	-0.314453	0.420898	-23.100000	-80.779999	126.770004	0.00	0.00	0.00
3.55	3.50	7.25	5.00	6.25	3.75	3.00	1.00	1.75	2.00	6.50	7.75	5.25	2.25	4.50	0.50	4.75	-0.203613	0.094238	0.945312	4.830000	4.690000	0.280000	662.00	-0.00	-0.08	0.00	0.00	0.00	0.00	0.00	0.00	0.00	0.00	0.00	0.00	0.00	0.00	0.00	0.00	0.00	0.00	-2.532227	-0.266602	0.290039	-20.020000	-50.189999	83.930000	0.00	0.00	0.00
3.56	3.50	7.25	4.75	6.25	3.75	3.00	1.25	2.00	1.75	6.25	7.75	5.75	2.50	4.50	0.50	5.00	-0.205566	0.095703	0.951660	5.460000	4.970000	0.910000	670.00	-0.00	-0.09	0.00	0.00	0.00	0.00	0.00	0.00	0.00	0.00	0.00	0.00	0.00	0.00	0.00	0.00	0.00	0.00	-2.396484	-0.253418	0.251465	-6.300000	-17.430000	43.400002	0.00	0.00	0.00
3.57	2.75	7.00	4.75	6.50	3.75	3.25	1.25	2.25	1.75	6.00	8.00	5.75	2.75	5.00	0.50	5.00	-0.212402	0.096191	0.956543	5.740000	5.110000	1.120000	676.00	0.01	-0.10	0.00	0.00	0.00	0.00	0.00	0.00	0.00	0.00	0.00	0.00	0.00	0.00	0.00	0.00	0.00	0.00	-2.220215	-0.244141	0.323730	1.890000	14.210000	9.730000	0.00	0.00	0.00
3.58	3.00	7.00	4.75	6.50	3.75	3.75	1.00	2.75	1.75	6.50	8.00	6.25	3.25	4.75	0.50	5.00	-0.205078	0.102051	0.954590	6.160000	4.900000	1.050000	700.00	0.01	-0.10	0.00	0.00	0.00	0.25	0.00	0.00	0.00	0.00	0.00	0.00	0.00	0.00	0.00	0.00	0.00	0.00	-2.071777	-0.151855	0.543457	-0.000000	39.689999	-14.770000	3.00	0.00	0.00
3.59	3.00	7.00	4.50	6.25	3.75	4.00	1.25	3.50	2.00	6.50	8.25	6.50	3.25	4.75	0.50	5.00	-0.207031	0.108887	0.953125	6.440000	5.110000	0.840000	721.00	0.01	-0.11	0.00	0.00	0.00	0.00	0.00	0.00	0.00	0.00	0.00	0.00	0.00	0.00	0.00	0.00	0.00	0.00	-1.901367	-0.057129	0.706055	-13.370000	52.849998	-30.940001	0.00	0.00	0.00
3.60	2.75	6.75	4.25	6.50	4.25	4.25	1.25	4.25	1.75	7.00	8.25	6.50	3.75	5.25	0.75	5.00	-0.203613	0.105957	0.947266	6.090000	5.530000	0.280000	749.00	0.02	-0.11	0.00	0.00	0.00	0.00	0.00	0.00	0.00	0.00	0.00	0.00	0.00	0.00	0.00	0.00	0.00	0.00	-1.747559	0.087402	0.774414	-34.930000	56.139999	-42.000000	0.00	0.00	0.00
3.61	2.75	6.50	4.25	6.25	4.25	4.25	1.25	4.75	1.75	6.75	8.50	6.75	4.25	5.25	0.75	5.00	-0.204590	0.114258	0.948730	5.530000	6.160000	-0.350000	759.00	0.02	-0.12	0.25	0.00	0.00	0.00	0.00	0.00	0.00	0.00	0.00	0.00	0.00	0.00	0.00	0.00	0.00	0.00	-0.125000	-0.201172	2.737793	-98.840004	179.550003	-70.840004	3.00	0.00	0.00
3.62	2.50	6.25	4.00	5.75	4.25	4.50	1.25	5.25	2.25	7.00	8.75	7.25	4.75	5.25	0.75	5.25	-0.193848	0.115234	0.953613	4.900000	7.140000	-0.910000	778.00	0.03	-0.12	0.75	1.00	0.25	0.25	0.00	0.00	0.00	0.00	0.00	0.00	0.00	0.00	0.00	0.00	0.00	0.00	-0.057617	0.537109	0.488770	-158.199997	147.770004	-84.419998	23.00	0.00	0.00
3.63	2.00	6.00	3.75	6.00	4.00	4.25	1.25	5.50	2.25	7.00	9.00	7.50	5.25	5.50	0.50	5.25	-0.203125	0.109375	0.954102	4.060000	8.610000	-1.750000	778.00	0.04	-0.13	1.50	2.50	0.50	0.75	0.00	0.00	0.00	0.00	0.00	0.00	0.00	0.00	0.00	0.00	0.00	0.00	-0.027344	0.940430	0.934082	-165.759995	119.559998	-60.340000	52.00	-0.38	-0.07
3.64	1.50	5.25	3.25	5.50	3.75	4.00	1.00	5.50	2.25	7.25	9.25	8.00	5.50	5.50	0.75	5.25	-0.210938	0.110352	0.953613	3.430000	10.290000	-2.100000	761.00	0.05	-0.13	2.25	4.25	0.25	2.25	0.00	0.00	0.00	0.00	0.00	0.00	0.00	0.00	0.00	0.00	0.00	0.00	-0.322754	1.104980	0.991211	-110.389999	155.889999	-7.560000	90.00	-0.37	-0.10
3.65	1.50	4.50	3.00	5.25	3.75	4.00	1.25	5.75	2.50	7.25	9.25	8.00	5.75	6.00	0.75	5.25	-0.212402	0.111328	0.964844	2.660000	11.830000	-2.240000	766.00	0.06	-0.13	3.50	5.75	0.75	2.00	0.00	0.00	0.00	0.00	0.00	0.00	0.00	0.00	0.00	0.00	0.00	0.00	-0.259277	0.609375	1.517090	-61.040001	186.479996	44.869999	119.00	-0.38	-0.08
3.66	0.75	3.25	2.25	4.25	3.25	3.50	1.25	5.75	2.50	7.50	9.75	8.25	5.75	6.00	1.00	5.25	-0.207031	0.113281	0.959961	2.030000	12.880000	-2.450000	730.00	0.09	-0.13	4.50	7.75	1.00	2.75	0.00	0.00	0.00	0.00	0.00	0.00	0.00	0.00	0.00	0.00	0.00	0.00	-0.212891	-0.033203	1.719727	-24.639999	184.169998	73.290001	159.00	-0.38	-0.08
3.67	0.50	2.25	1.75	3.00	3.00	3.00	1.00	5.50	2.50	7.50	10.00	8.50	6.00	6.75	0.75	5.50	-0.209473	0.111328	0.955566	1.330000	14.280000	-2.870000	695.00	0.12	-0.13	7.00	9.50	1.25	3.50	0.00	0.00	0.00	0.00	0.00	0.00	0.00	0.00	0.00	0.00	0.00	0.00	-0.365723	-0.735840	2.038574	-2.380000	164.430008	66.849998	212.00	-0.38	-0.07
3.68	0.50	1.75	1.50	2.50	2.50	2.50	1.00	5.50	2.75	7.75	10.25	8.75	6.25	6.75	1.00	5.50	-0.211914	0.115723	0.958496	0.280000	15.820000	-3.080000	688.00	0.13	-0.13	8.00	10.50	1.75	4.25	0.00	0.00	0.00	0.00	0.00	0.00	0.00	0.00	0.00	0.00	0.00	0.00	-0.348145	-1.003906	1.898438	6.790000	130.130005	28.210001	246.00	-0.38	-0.06
3.69	0.25	1.25	1.00	1.50	2.00	1.50	1.00	5.25	2.75	7.75	10.50	9.00	6.00	7.50	1.00	5.50	-0.212891	0.123535	0.952637	-0.840000	18.059999	-3.290000	653.00	0.16	-0.13	8.75	11.50	2.00	5.00	0.00	0.00	0.00	0.00	0.00	0.00	0.00	0.00	0.00	0.00	0.00	0.00	-0.217773	-0.514648	1.501465	14.630000	96.459999	-20.020000	274.00	-0.37	-0.07
3.70	0.00	0.00	0.25	0.50	1.50	0.75	1.00	4.75	3.00	8.00	10.75	9.00	6.00	7.75	1.00	5.50	-0.221680	0.108398	0.959473	-1.610000	20.930000	-3.780000	609.00	0.20	-0.12	9.25	12.50	2.25	5.25	0.00	0.00	0.00	0.00	0.00	0.00	0.00	0.00	0.25	0.00	0.00	0.00	-0.093750	0.258789	1.130859	40.880001	81.059998	-42.560001	296.00	-0.37	-0.07
3.71	0.00	0.00	0.50	0.25	1.25	0.50	1.00	4.00	3.50	8.25	11.25	9.25	6.00	8.50	1.00	5.50	-0.208008	0.136230	0.964355	-2.170000	25.270000	-3.780000	616.00	0.21	-0.11	9.25	13.50	2.75	6.25	0.00	0.25	0.00	0.00	0.00	0.00	0.00	0.00	0.00	0.00	0.00	0.00	-0.101562	0.702148	0.978516	54.459999	78.400002	-38.290001	322.00	-0.37	-0.07
3.72	0.00	0.00	0.00	0.00	0.25	0.00	0.75	2.75	3.75	8.50	11.50	9.25	6.00	8.25	1.00	5.50	-0.212891	0.227051	1.030762	6.860000	63.630001	-10.080000	574.00	0.23	-0.10	9.25	13.75	3.00	7.50	0.00	0.00	0.00	0.00	0.00	0.00	0.00	0.00	0.25	0.00	0.00	0.00	-0.135254	0.658691	0.917480	53.830002	83.019997	-19.040001	340.00	-0.36	-0.08
3.73	0.00	0.00	0.00	0.00	0.50	0.00	0.75	1.75	4.00	8.25	11.50	9.00	5.50	9.00	1.00	5.50	-0.269531	0.121094	1.066406	15.190001	110.320000	-10.430000	562.00	0.24	-0.09	9.00	14.25	3.00	8.25	0.00	0.50	0.00	0.00	0.00	0.00	0.00	0.00	0.25	0.00	0.00	0.00	-0.218262	0.236816	1.379883	16.730000	87.220001	-10.920000	356.00	-0.36	-0.09
