# time	left pressure 1[N/cm²]	left pressure 2[N/cm²]	left pressure 3[N/cm²]	left pressure 4[N/cm²]	left pressure 5[N/cm²]	left pressure 6[N/cm²]	left pressure 7[N/cm²]	left pressure 8[N/cm²]	left pressure 9[N/cm²]	left pressure 10[N/cm²]	left pressure 11[N/cm²]	left pressure 12[N/cm²]	left pressure 13[N/cm²]	left pressure 14[N/cm²]	left pressure 15[N/cm²]	left pressure 16[N/cm²]	left acceleration X[g]	left acceleration Y[g]	left acceleration Z[g]	left angular X[dps]	left angular Y[dps]	left angular Z[dps]	left total force[N]	left center of pressure X[%]	left center of pressure Y[%]	right pressure 1[N/cm²]	right pressure 2[N/cm²]	right pressure 3[N/cm²]	right pressure 4[N/cm²]	right pressure 5[N/cm²]	right pressure 6[N/cm²]	right pressure 7[N/cm²]	right pressure 8[N/cm²]	right pressure 9[N/cm²]	right pressure 10[N/cm²]	right pressure 11[N/cm²]	right pressure 12[N/cm²]	right pressure 13[N/cm²]	right pressure 14[N/cm²]	right pressure 15[N/cm²]	right pressure 16[N/cm²]	right acceleration X[g]	right acceleration Y[g]	right acceleration Z[g]	right angular X[dps]	right angular Y[dps]	right angular Z[dps]	right total force[N]	right center of pressure X[%]	right center of pressure Y[%]
0.00																										4.75	6.75	5.00	7.50	1.00	0.75	0.25	0.00	1.50	1.25	1.25	0.75	1.25	2.50	0.50	1.25	-0.252930	0.070801	0.953613	-2.450000	-3.570000	2.030000	370.00	-0.16	-0.06
0.01																										5.00	7.00	5.00	7.50	1.00	1.00	0.25	0.00	1.25	1.25	1.00	0.75	1.00	2.50	0.50	1.25	-0.255371	0.067871	0.957031	-2.450000	-3.500000	2.030000	370.00	-0.17	-0.06
0.02																										5.25	7.00	5.25	7.50	1.00	0.75	0.25	0.25	1.50	1.25	1.25	0.75	1.25	2.25	0.75	1.00	-0.251953	0.068359	0.953125	-2.380000	-3.500000	1.960000	383.00	-0.16	-0.06
0.03																										5.00	7.25	5.00	7.50	1.00	1.00	0.25	0.00	1.25	1.00	1.00	0.50	1.00	2.25	0.75	1.00	-0.224121	-0.034180	0.981445	-2.660000	-3.710000	1.750000	366.00	-0.18	-0.06
0.04																										5.00	7.25	5.50	7.50	1.00	0.75	0.25	0.00	1.25	1.25	1.25	0.50	0.75	2.25	0.75	1.25	-0.253418	0.071777	0.951172	-2.520000	-3.780000	1.890000	373.00	-0.17	-0.05
0.05																										5.00	7.50	5.25	7.75	1.00	0.75	0.25	0.00	1.25	1.25	1.00	0.75	0.75	2.50	0.50	1.00	-0.260254	0.065430	0.958008	-1.470000	-4.480000	2.310000	374.00	-0.18	-0.05
0.06	4.75	4.50	4.00	2.75	1.00	0.50	0.50	0.25	3.00	2.25	1.50	1.50	0.75	3.25	0.50	0.25	-0.300781	0.063477	0.933105	-1.540000	5.880000	-1.260000	328.00	-0.07	0.01	5.50	7.75	5.50	8.00	1.00	0.75	0.25	0.00	1.25	1.00	1.00	0.50	0.75	1.75	0.50	1.00	-0.250977	0.074707	0.951172	-0.770000	-5.040000	2.450000	375.00	-0.20	-0.06
0.07	4.75	4.75	3.75	2.75	1.25	0.50	0.50	0.50	3.00	2.00	1.50	1.50	1.00	3.50	0.50	0.25	-0.298340	0.062012	0.928711	-1.610000	5.880000	-1.120000	336.00	-0.06	-0.00	5.75	7.75	5.75	8.00	0.75	1.00	0.25	0.00	1.00	1.00	0.75	0.50	1.00	1.75	0.25	1.00	-0.248047	0.071777	0.947754	-0.700000	-5.320000	2.730000	374.00	-0.21	-0.06
0.08	4.75	4.75	3.75	3.25	1.25	0.50	0.50	0.25	3.00	2.25	1.25	1.75	1.00	3.00	0.50	0.25	-0.301758	0.065430	0.927246	-1.680000	5.740000	-1.050000	336.00	-0.07	-0.00	5.75	8.00	5.75	8.00	1.00	1.00	0.25	0.00	1.25	1.00	1.00	0.50	0.50	2.25	0.50	0.75	-0.247559	0.074707	0.954102	-1.050000	-5.180000	2.590000	386.00	-0.20	-0.05
0.09	5.00	5.00	4.25	2.75	1.25	0.50	0.50	0.50	3.00	1.75	1.25	1.50	0.75	3.00	0.50	0.25	-0.295898	0.058105	0.926758	-1.890000	5.530000	-1.120000	335.00	-0.08	0.00	5.75	8.00	6.00	8.00	1.00	0.75	0.25	0.00	1.00	1.00	0.75	0.25	0.50	2.00	0.50	0.75	-0.234375	0.066406	0.962402	-1.330000	-5.180000	2.450000	375.00	-0.21	-0.05
0.10	5.00	4.50	4.25	2.75	1.25	0.75	0.50	0.25	3.00	2.00	1.25	1.75	1.00	3.50	0.75	0.25	-0.293945	0.065430	0.931152	-2.030000	5.670000	-1.120000	343.00	-0.07	0.00	6.00	8.25	6.25	8.50	0.75	0.50	0.25	0.00	1.00	0.75	0.75	0.25	0.75	1.75	0.50	0.75	-0.240234	0.072266	0.955078	-1.960000	-4.900000	2.100000	381.00	-0.22	-0.05
0.11	5.00	4.75	4.25	3.25	1.25	0.75	0.50	0.25	3.00	2.00	1.25	1.50	1.00	3.50	0.50	0.25	-0.293945	0.061523	0.930664	-2.030000	5.530000	-1.120000	346.00	-0.08	-0.00	6.00	8.25	6.00	8.50	1.00	0.75	0.25	0.00	1.00	0.75	0.50	0.50	0.25	1.75	0.50	0.50	-0.243652	0.071777	0.959473	-2.450000	-4.620000	2.100000	378.00	-0.23	-0.05
0.12	5.25	5.00	4.25	3.00	1.25	0.50	0.50	0.25	2.75	2.00	1.25	1.75	1.00	3.25	0.50	0.25	-0.298828	0.060547	0.928223	-2.170000	5.460000	-1.190000	343.00	-0.08	-0.00	6.25	8.25	6.00	8.25	1.00	0.75	0.25	0.00	1.00	1.00	0.50	0.25	0.50	1.50	0.50	0.75	-0.250977	0.070801	0.952148	-2.450000	-4.480000	2.100000	379.00	-0.23	-0.05
0.13	5.25	5.25	4.00	3.25	1.25	0.50	0.50	0.25	3.00	2.25	1.25	1.50	1.00	3.25	0.25	0.25	-0.302734	0.058594	0.929199	-0.770000	4.830000	-0.630000	345.00	-0.09	-0.00	6.00	8.25	6.25	8.50	1.00	0.75	0.25	0.00	0.75	1.00	0.75	0.50	0.50	2.00	0.50	0.50	-0.250000	0.067383	0.952148	-2.380000	-4.550000	2.100000	387.00	-0.22	-0.05
0.14	5.50	5.25	4.25	3.25	1.25	0.75	0.50	0.25	2.75	2.00	1.25	1.50	1.00	3.00	0.25	0.25	-0.300781	0.057617	0.928223	1.050000	4.410000	-0.140000	346.00	-0.10	-0.01	6.50	8.50	6.00	8.50	0.75	0.75	0.25	0.00	0.50	0.75	0.50	0.25	0.50	1.50	0.50	0.50	-0.247070	0.077148	0.963379	-2.310000	-4.270000	2.100000	373.00	-0.25	-0.06
0.15	5.75	5.25	4.50	3.50	1.25	0.50	0.50	0.50	2.50	2.00	1.50	1.50	0.75	2.75	0.25	0.25	-0.300293	0.062988	0.927246	2.380000	4.270000	0.280000	350.00	-0.11	-0.01	6.25	8.50	6.25	8.50	0.75	0.75	0.25	0.00	0.50	0.75	0.50	0.25	0.25	1.50	0.25	0.00	-0.258789	0.065918	0.953613	-1.610000	-4.480000	2.310000	366.00	-0.26	-0.05
0.16	6.00	5.50	4.50	3.75	1.25	0.50	0.50	0.25	2.50	2.00	1.25	1.50	1.00	3.25	0.50	0.25	-0.300293	0.067871	0.937988	2.380000	4.130000	0.630000	360.00	-0.11	-0.01	6.50	8.50	6.00	8.50	0.75	0.75	0.00	0.00	0.50	0.75	0.25	0.25	0.50	1.50	0.25	0.00	-0.251953	0.075684	0.974121	-0.700000	-4.900000	2.520000	361.00	-0.26	-0.06
0.17	6.25	5.75	4.50	3.75	1.25	0.75	0.50	0.25	2.25	2.00	1.25	1.50	1.00	3.00	0.25	0.25	-0.304688	0.063965	0.933105	2.310000	3.850000	1.050000	360.00	-0.12	-0.01	6.75	8.75	6.25	8.50	0.75	0.50	0.00	0.00	0.25	0.50	0.50	0.25	0.25	1.50	0.25	0.00	-0.239258	0.088379	0.940430	-0.210000	-5.320000	2.520000	361.00	-0.27	-0.06
0.18	7.00	6.25	5.25	4.50	1.25	0.75	0.50	0.25	2.50	2.00	1.25	2.00	0.75	2.75	0.25	0.25	-0.298828	0.066406	0.937988	2.450000	3.500000	1.050000	393.00	-0.13	-0.01	6.75	8.75	6.25	8.50	0.75	0.75	0.00	0.00	0.50	0.50	0.50	0.00	0.00	1.25	0.00	0.00	-0.263184	0.068359	0.962402	-0.000000	-6.370000	2.730000	357.00	-0.28	-0.05
0.19	7.00	6.75	5.25	4.50	1.25	1.00	0.50	0.25	2.25	1.75	1.25	1.50	1.00	2.75	0.25	0.00	-0.293457	0.064453	0.935059	2.450000	3.500000	1.050000	390.00	-0.15	-0.02	7.00	8.75	6.25	8.50	0.50	0.50	0.00	0.00	0.25	0.25	0.50	0.00	0.00	1.25	0.00	0.00	-0.249023	0.035156	0.959961	0.560000	-7.560000	2.730000	349.00	-0.29	-0.05
0.20	8.00	7.25	5.50	5.00	1.25	0.75	0.50	0.50	2.50	1.75	1.00	1.25	0.75	2.25	0.25	0.25	-0.295410	0.062988	0.925781	2.730000	3.780000	0.910000	407.00	-0.17	-0.02	7.00	9.00	6.25	8.50	0.75	0.25	0.00	0.00	0.25	0.50	0.25	0.00	0.00	0.75	0.00	0.00	-0.232422	0.085449	0.950684	0.560000	-8.960000	2.730000	347.00	-0.30	-0.05
0.21	8.50	7.75	5.50	5.00	1.25	1.00	0.50	0.50	2.25	1.75	1.25	1.50	0.75	2.25	0.25	0.25	-0.277344	0.068848	0.893066	3.220000	3.780000	0.840000	422.00	-0.17	-0.02	7.00	9.00	6.50	8.50	0.50	0.25	0.00	0.00	0.25	0.50	0.25	0.25	0.00	0.75	0.25	0.00	-0.243652	0.074219	0.975586	0.560000	-10.430000	2.730000	352.00	-0.30	-0.06
0.22	8.25	8.25	5.50	5.00	1.25	1.00	0.50	0.50	2.00	1.75	1.25	1.50	0.75	2.25	0.50	0.00	-0.279297	0.067383	0.921875	3.500000	4.200000	0.840000	422.00	-0.17	-0.03	6.75	9.00	6.25	8.50	0.50	0.25	0.00	0.00	0.00	0.25	0.00	0.00	0.00	0.75	0.00	0.00	-0.235352	0.074707	0.963379	-0.630000	-10.920000	2.590000	333.00	-0.32	-0.06
0.23	9.00	8.50	6.00	5.50	1.25	1.00	0.50	0.50	1.75	1.75	1.25	1.50	1.00	2.00	0.25	0.25	-0.291016	0.074707	0.928711	3.080000	5.320000	0.490000	438.00	-0.19	-0.03	7.25	9.25	6.00	8.50	0.50	0.00	0.00	0.00	0.00	0.25	0.25	0.00	0.00	0.75	0.00	0.00	-0.237305	0.071289	0.942871	-0.770000	-11.060000	2.590000	337.00	-0.32	-0.06
0.24	8.75	8.50	5.75	5.50	1.25	1.00	0.25	0.50	1.25	1.75	1.25	1.50	1.00	1.75	0.25	0.25	-0.293945	0.063477	0.929199	3.010000	5.600000	0.420000	420.00	-0.20	-0.04	7.25	9.00	6.00	8.50	0.50	0.25	0.00	0.00	0.00	0.00	0.00	0.00	0.00	0.50	0.00	0.00	-0.224121	0.067383	0.955078	-2.520000	-10.220000	2.310000	331.00	-0.33	-0.06
0.25	9.00	8.75	6.00	5.50	1.25	1.00	0.50	0.50	1.75	1.50	1.25	1.75	1.25	1.75	0.25	0.25	-0.296875	0.070801	0.929199	3.430000	5.810000	0.490000	441.00	-0.19	-0.04	7.25	9.00	6.00	8.25	0.50	0.25	0.00	0.00	0.00	0.25	0.00	0.00	0.00	0.50	0.00	0.00	-0.234375	0.072266	0.951172	-3.570000	-9.800000	2.100000	330.00	-0.32	-0.06
0.26	9.00	9.25	6.00	5.50	1.25	1.25	0.50	0.50	1.50	1.50	1.25	1.75	1.00	1.75	0.25	0.25	-0.294922	0.068848	0.930176	4.550000	5.460000	0.700000	442.00	-0.20	-0.04	7.00	9.00	6.00	8.25	0.50	0.00	0.00	0.00	0.00	0.00	0.25	0.25	0.00	0.50	0.00	0.00	-0.234863	0.080078	0.966309	-4.060000	-9.940000	2.030000	328.00	-0.32	-0.06
0.27	9.50	9.50	6.25	5.75	1.25	1.25	0.25	0.50	1.50	1.75	1.25	1.75	1.00	1.75	0.25	0.25	-0.293945	0.069824	0.931152	5.530000	4.620000	0.980000	454.00	-0.20	-0.04	7.00	9.00	6.25	8.25	0.50	0.00	0.00	0.00	0.00	0.00	0.00	0.00	0.00	0.25	0.00	0.00	-0.236816	0.073242	0.952637	-4.550000	-9.940000	1.960000	323.00	-0.33	-0.06
0.28	9.75	10.50	6.25	5.75	1.00	1.50	0.25	0.75	1.50	1.75	1.25	1.75	1.25	2.00	0.50	0.25	-0.294434	0.072754	0.935059	5.950000	4.480000	0.910000	477.00	-0.20	-0.05	7.00	9.00	6.00	8.25	0.50	0.00	0.00	0.00	0.00	0.00	0.00	0.00	0.00	0.50	0.00	0.00	-0.235352	0.073730	0.956055	-4.410000	-9.660000	1.960000	323.00	-0.33	-0.06
0.29	9.75	10.50	6.25	6.25	1.25	1.50	0.25	0.75	1.25	1.50	1.25	1.50	1.25	1.75	0.25	0.25	-0.294922	0.071777	0.929688	5.740000	4.340000	0.770000	472.00	-0.21	-0.05	7.00	8.75	6.00	8.25	0.50	0.00	0.00	0.00	0.25	0.00	0.00	0.00	0.00	0.25	0.00	0.00	-0.248047	0.086426	0.959473	-2.100000	-9.380000	2.310000	321.00	-0.33	-0.06
0.30	10.25	11.00	6.75	6.50	1.25	1.50	0.25	0.75	1.50	1.75	1.25	1.75	1.25	1.50	0.25	0.25	-0.289062	0.078125	0.931152	5.250000	4.340000	0.560000	496.00	-0.21	-0.05	7.00	8.75	5.75	8.25	0.50	0.00	0.00	0.00	0.00	0.00	0.00	0.00	0.00	0.50	0.00	0.00	-0.234375	0.068848	0.965820	-2.030000	-10.080000	2.450000	317.00	-0.33	-0.06
0.31	10.25	11.25	6.50	6.50	1.00	1.75	0.25	0.75	1.00	1.50	1.00	1.50	1.25	1.25	0.25	0.25	-0.293945	0.078125	0.929688	4.550000	4.340000	0.420000	479.00	-0.23	-0.06	7.00	9.00	6.00	8.25	0.25	0.00	0.00	0.00	0.00	0.00	0.00	0.00	0.00	0.25	0.00	0.00	-0.226562	0.065430	0.954102	-2.170000	-10.780000	2.590000	318.00	-0.34	-0.06
0.32	10.50	11.75	6.50	7.00	1.00	1.50	0.25	0.75	1.00	1.50	1.25	1.75	1.00	1.25	0.25	0.25	-0.295898	0.083984	0.931152	3.920000	4.480000	0.210000	492.00	-0.23	-0.06	7.25	8.75	5.75	8.25	0.25	0.00	0.00	0.00	0.00	0.00	0.00	0.00	0.00	0.25	0.00	0.00	-0.227539	0.071289	0.961426	-1.540000	-10.850000	2.730000	315.00	-0.34	-0.06
0.33	10.50	11.25	6.50	7.00	1.00	1.75	0.25	0.75	1.00	1.50	1.00	1.50	1.50	1.25	0.25	0.25	-0.289551	0.080566	0.930664	3.430000	4.550000	0.000000	489.00	-0.23	-0.06	7.00	9.25	6.00	8.00	0.50	0.00	0.00	0.00	0.00	0.00	0.00	0.00	0.00	0.25	0.00	0.00	-0.256836	0.003418	0.960938	-1.260000	-11.550000	2.450000	320.00	-0.34	-0.06
0.34	10.50	12.25	6.50	7.25	1.00	1.75	0.25	0.75	1.00	1.25	1.00	1.75	1.25	1.00	0.00	0.25	-0.289062	0.083496	0.934082	2.870000	4.830000	-0.210000	495.00	-0.24	-0.07	7.00	9.25	6.00	8.25	0.25	0.00	0.00	0.00	0.00	0.00	0.00	0.00	0.00	0.50	0.00	0.00	-0.221680	0.069336	0.949219	-1.190000	-11.270000	1.470000	322.00	-0.33	-0.06
0.35	10.25	12.00	6.50	7.50	1.00	1.75	0.25	0.75	1.00	1.50	1.00	1.25	1.25	1.25	0.25	0.25	-0.293945	0.078613	0.935547	2.310000	5.040000	-0.350000	494.00	-0.23	-0.06	7.00	9.00	6.00	8.25	0.25	0.00	0.00	0.00	0.00	0.00	0.00	0.00	0.00	0.25	0.00	0.00	-0.216309	0.091309	0.941406	-1.400000	-10.220000	1.470000	318.00	-0.34	-0.06
0.36	10.75	12.50	6.50	7.25	1.25	2.00	0.25	0.75	1.00	1.25	1.00	1.50	1.25	1.25	0.00	0.25	-0.289551	0.081543	0.935547	1.960000	5.110000	-0.420000	504.00	-0.24	-0.06	7.25	9.25	6.00	8.50	0.25	0.00	0.00	0.00	0.00	0.00	0.00	0.00	0.00	0.25	0.00	0.00	-0.218750	0.082031	0.952637	-1.680000	-9.170000	2.310000	325.00	-0.34	-0.06
0.37	10.75	12.75	6.75	7.50	1.00	2.00	0.25	1.00	0.75	1.50	1.25	1.25	1.25	1.25	0.25	0.25	-0.285645	0.089844	0.930176	1.470000	5.180000	-0.630000	515.00	-0.24	-0.07	7.25	9.25	5.75	8.50	0.50	0.00	0.00	0.00	0.00	0.00	0.00	0.00	0.00	0.50	0.00	0.00	-0.216309	0.074219	0.947754	-2.240000	-7.840000	2.730000	327.00	-0.33	-0.06
0.38	11.50	13.00	6.50	7.75	1.00	2.25	0.25	0.75	0.75	1.50	1.00	1.50	1.25	1.00	0.00	0.25	-0.285645	0.092773	0.925781	0.700000	5.460000	-0.910000	519.00	-0.25	-0.07	7.75	9.25	6.00	8.50	0.50	0.00	0.00	0.00	0.00	0.00	0.00	0.00	0.00	0.25	0.00	0.00	-0.206055	0.074219	0.932617	-2.520000	-6.090000	2.800000	333.00	-0.34	-0.06
0.39	11.00	12.75	6.50	7.75	1.00	2.00	0.25	0.75	0.75	1.50	1.00	1.50	1.25	0.75	0.00	0.25	-0.280762	0.082031	0.917969	-0.280000	5.530000	-1.120000	507.00	-0.25	-0.07	7.50	9.50	5.75	8.25	0.25	0.00	0.00	0.00	0.00	0.00	0.00	0.00	0.00	0.25	0.00	0.00	-0.209473	0.076172	0.931641	-2.730000	-3.570000	2.730000	325.00	-0.34	-0.06
0.40	10.75	12.50	6.50	7.50	1.00	1.75	0.25	0.75	0.75	1.25	1.00	1.50	1.50	1.00	0.25	0.00	-0.279297	0.096191	0.924316	-1.610000	6.090000	-1.750000	500.00	-0.24	-0.07	7.75	9.25	6.25	8.50	0.50	0.00	0.00	0.00	0.00	0.00	0.00	0.00	0.00	0.25	0.00	0.00	-0.215820	0.072754	0.932617	-3.150000	-0.980000	2.730000	336.00	-0.34	-0.06
0.41	11.00	12.25	6.25	7.50	1.00	2.00	0.25	0.75	1.25	1.50	1.25	1.50	1.25	1.25	0.00	0.00	-0.289551	0.085938	0.936523	-2.870000	6.720000	-2.030000	509.00	-0.23	-0.06	7.50	9.50	6.00	8.50	0.50	0.00	0.00	0.00	0.00	0.00	0.00	0.00	0.00	0.25	0.00	0.00	-0.218750	0.075684	0.953125	-3.780000	0.350000	2.520000	333.00	-0.34	-0.06
0.42	10.25	11.50	6.50	7.50	1.00	1.75	0.25	0.75	1.00	1.50	1.25	1.50	1.25	1.25	0.00	0.25	-0.291016	0.083984	0.937988	-3.850000	7.070000	-2.170000	492.00	-0.23	-0.06	7.50	9.50	6.25	8.50	0.50	0.00	0.00	0.00	0.00	0.00	0.00	0.00	0.00	0.50	0.00	0.00	-0.225098	0.067383	0.958008	-4.830000	2.800000	2.240000	338.00	-0.33	-0.06
0.43	10.50	11.75	6.50	7.25	1.25	1.75	0.25	0.75	1.25	1.75	1.25	1.50	1.50	1.00	0.00	0.25	-0.289062	0.081543	0.931152	-4.620000	7.560000	-2.450000	503.00	-0.23	-0.06	7.75	9.50	6.25	8.75	0.50	0.25	0.00	0.00	0.00	0.00	0.00	0.00	0.00	0.50	0.00	0.00	-0.220703	0.068359	0.949707	-4.200000	3.850000	2.170000	346.00	-0.33	-0.06
0.44	10.00	11.25	6.25	7.00	1.00	1.75	0.25	0.75	1.00	1.50	1.25	1.25	1.25	1.25	0.00	0.25	-0.292969	0.082031	0.931152	-5.180000	7.700000	-2.660000	477.00	-0.23	-0.06	7.75	9.75	6.25	8.75	0.50	0.25	0.00	0.00	0.00	0.00	0.25	0.00	0.00	0.50	0.00	0.00	-0.238770	0.079102	1.000488	-3.640000	3.220000	2.170000	351.00	-0.33	-0.06
0.45	9.75	10.75	6.25	7.25	1.25	1.50	0.25	0.75	1.25	1.50	1.25	1.50	1.25	1.25	0.00	0.25	-0.293945	0.083008	0.936523	-5.460000	7.560000	-2.730000	478.00	-0.22	-0.06	7.75	9.75	6.50	8.75	0.50	0.25	0.00	0.00	0.00	0.00	0.00	0.00	0.00	0.50	0.25	0.00	-0.251465	0.069336	0.989746	-2.310000	-0.280000	2.660000	354.00	-0.32	-0.06
0.46	9.50	10.50	6.25	6.75	1.25	1.50	0.25	0.75	1.25	1.25	1.00	1.75	1.25	1.75	0.00	0.25	-0.292969	0.080078	0.938965	-6.020000	7.560000	-2.940000	469.00	-0.22	-0.06	8.00	10.00	6.75	9.00	0.25	0.25	0.00	0.00	0.00	0.00	0.00	0.00	0.00	0.50	0.00	0.00	-0.231934	0.073242	0.955566	-0.980000	-1.960000	2.940000	359.00	-0.33	-0.06
0.47	9.50	10.00	6.25	7.00	1.25	1.25	0.25	0.75	1.00	1.50	1.00	1.50	1.00	1.50	0.25	0.25	-0.299805	0.088379	0.943848	-6.230000	7.560000	-2.940000	460.00	-0.22	-0.06	8.25	10.50	6.50	9.25	0.50	0.25	0.00	0.00	0.00	0.00	0.00	0.00	0.00	0.75	0.00	0.00	-0.235840	0.070801	0.949219	-0.140000	-1.610000	3.290000	371.00	-0.33	-0.06
0.48	9.00	10.00	6.00	6.75	1.00	1.00	0.25	0.50	0.75	1.50	1.00	1.50	1.00	1.50	0.00	0.00	-0.304199	0.080078	0.950684	-3.430000	6.300000	-2.660000	433.00	-0.23	-0.06	8.00	11.00	6.75	9.50	0.50	0.25	0.00	0.00	0.00	0.00	0.00	0.00	0.00	0.75	0.25	0.00	-0.234375	0.074707	0.949707	1.890000	-2.590000	3.640000	381.00	-0.32	-0.06
0.49	8.75	9.50	6.00	6.50	1.00	1.00	0.25	0.75	0.75	1.25	1.00	1.50	1.00	1.50	0.00	0.00	-0.300293	0.082520	0.937988	0.210000	4.200000	-2.170000	424.00	-0.23	-0.06	8.50	11.25	6.75	9.75	0.50	0.25	0.00	0.00	0.00	0.00	0.00	0.00	0.00	1.00	0.00	0.00	-0.210938	0.027832	0.961914	3.570000	-1.820000	4.270000	391.00	-0.33	-0.06
0.50	8.75	9.25	6.00	6.50	1.00	1.00	0.00	0.50	0.75	1.25	1.00	1.25	0.75	1.25	0.00	0.00	-0.289551	0.077148	0.916504	1.260000	3.220000	-1.820000	407.00	-0.24	-0.05	9.00	12.00	7.25	10.00	0.75	0.75	0.00	0.00	0.00	0.00	0.00	0.00	0.00	0.75	0.25	0.00	-0.237305	0.074219	0.962891	5.320000	-1.400000	4.550000	420.00	-0.32	-0.06
0.51	8.75	9.00	6.00	6.25	1.00	1.00	0.00	0.50	0.75	1.25	1.00	1.25	0.75	1.25	0.25	0.00	-0.279785	0.076660	0.928223	0.630000	3.570000	-1.890000	405.00	-0.23	-0.05	9.25	12.50	7.25	10.25	0.50	0.75	0.00	0.00	0.00	0.00	0.00	0.00	0.00	0.75	0.00	0.00	-0.226074	0.089844	0.958984	6.160000	-1.190000	4.620000	424.00	-0.33	-0.06
0.52	8.25	8.75	6.00	6.00	1.25	1.00	0.00	0.50	1.00	1.25	0.75	1.25	1.00	1.25	0.25	0.00	-0.280762	0.088379	0.930664	-0.210000	4.760000	-2.100000	400.00	-0.23	-0.05	9.75	13.00	7.50	10.75	0.50	0.50	0.00	0.00	0.00	0.00	0.00	0.00	0.25	1.00	0.00	0.00	-0.224121	0.088379	0.964844	5.110000	-0.560000	4.620000	444.00	-0.33	-0.06
0.53	7.75	8.25	5.50	5.75	1.00	1.00	0.00	0.50	0.75	1.00	1.00	1.00	0.50	1.00	0.00	0.00	-0.287598	0.081543	0.929688	-1.260000	5.880000	-2.310000	364.00	-0.24	-0.05	10.00	13.50	7.75	11.00	0.75	1.00	0.00	0.00	0.00	0.00	0.50	0.00	0.00	1.00	0.00	0.00	-0.209473	0.033691	0.967773	3.220000	-0.210000	4.130000	468.00	-0.32	-0.06
0.54	7.50	7.75	5.50	5.50	1.00	1.00	0.00	0.25	0.75	1.25	0.75	1.25	0.50	1.25	0.25	0.00	-0.298340	0.082520	0.942383	-2.800000	7.000000	-2.520000	358.00	-0.23	-0.05	10.75	13.75	7.75	11.25	0.75	1.00	0.00	0.00	0.00	0.00	0.00	0.00	0.00	1.00	0.00	0.00	-0.227539	0.100098	0.954102	2.100000	0.000000	4.200000	475.00	-0.33	-0.06
0.55	7.00	7.25	5.25	5.00	0.75	0.50	0.00	0.25	0.75	1.50	0.50	1.00	0.50	1.25	0.00	0.00	-0.294434	0.076172	0.939453	-5.460000	8.050000	-3.010000	326.00	-0.23	-0.04	10.75	14.25	8.00	11.75	0.75	1.25	0.00	0.00	0.00	0.00	0.00	0.25	0.25	1.00	0.00	0.00	-0.222168	0.091797	0.964355	1.120000	0.350000	4.060000	496.00	-0.32	-0.07
0.56	6.50	6.75	4.75	4.75	0.75	0.50	0.00	0.00	0.50	1.00	0.50	1.00	0.25	1.25	0.00	0.00	-0.296875	0.084961	0.944824	-7.000000	8.400000	-3.430000	294.00	-0.24	-0.04	11.25	15.00	8.00	12.00	0.75	0.75	0.00	0.00	0.00	0.25	0.25	0.25	0.50	1.25	0.00	0.00	-0.235352	0.078125	0.959961	0.490000	1.050000	3.990000	515.00	-0.31	-0.07
0.57	6.50	6.25	4.25	4.25	1.00	0.50	0.00	0.00	0.50	1.00	0.75	0.75	0.25	1.00	0.25	0.00	-0.292480	0.079590	0.938477	-8.400000	8.960000	-3.990000	281.00	-0.24	-0.03	11.50	15.25	8.25	12.25	0.75	1.00	0.00	0.00	0.00	0.25	0.00	0.25	0.25	1.00	0.00	0.00	-0.228516	0.085938	0.970703	0.910000	1.330000	3.990000	521.00	-0.32	-0.07
0.58	5.50	6.00	3.75	3.50	0.75	0.25	0.00	0.00	0.25	1.00	0.75	0.75	0.00	1.25	0.00	0.00	-0.283691	0.077148	0.937988	-9.800000	9.450000	-4.340000	243.00	-0.24	-0.03	11.75	15.75	8.50	12.50	0.75	1.50	0.00	0.00	0.25	0.00	0.00	0.00	0.00	1.00	0.00	0.00	-0.215332	0.079102	0.960938	2.170000	1.470000	3.990000	535.00	-0.32	-0.06
0.59	5.00	5.00	3.50	3.25	0.75	0.00	0.00	0.00	0.25	1.00	0.50	0.50	0.00	1.00	0.00	0.00	-0.285156	0.071289	0.967773	-9.940000	9.170000	-4.760000	213.00	-0.25	-0.02	12.25	16.00	8.75	13.00	0.75	1.50	0.00	0.00	0.00	0.00	0.50	0.00	0.25	0.75	0.00	0.00	-0.230469	0.080566	0.999512	5.460000	0.770000	4.620000	553.00	-0.32	-0.07
0.60	4.25	4.25	2.75	2.50	0.50	0.00	0.00	0.00	0.25	1.00	0.50	0.50	0.00	0.50	0.00	0.00	-0.286621	0.057129	0.936035	-10.710000	6.370000	-5.250000	175.00	-0.25	-0.03	12.75	17.00	8.75	13.50	0.75	1.75	0.00	0.00	0.00	0.00	0.25	0.00	0.50	0.75	0.00	0.00	-0.239746	0.107422	0.986816	14.070000	-4.200000	6.510000	575.00	-0.33	-0.07
0.61	3.25	3.50	2.25	1.50	0.50	0.00	0.00	0.00	0.00	0.75	0.50	0.25	0.00	0.25	0.00	0.00	-0.274414	0.069824	0.907715	-14.000000	3.500000	-6.510000	131.00	-0.26	-0.03	13.50	17.75	9.00	14.00	0.75	2.25	0.00	0.25	0.00	0.00	0.25	0.25	0.50	1.00	0.25	0.25	-0.239746	0.107422	0.986816	14.070000	-4.200000	6.510000	616.00	-0.31	-0.08
0.62	2.50	3.00	1.75	1.25	0.25	0.00	0.00	0.00	0.25	0.75	0.50	0.25	0.00	0.50	0.00	0.00	-0.291992	0.106934	0.911133	-19.040001	-0.210000	-8.890000	113.00	-0.22	-0.02	14.25	18.00	9.00	14.50	1.00	2.25	0.00	0.25	0.00	0.25	0.25	0.50	0.75	0.75	0.00	0.25	-0.227539	0.089355	0.970703	14.630000	-4.340000	6.860000	637.00	-0.31	-0.08
0.63	2.25	2.00	0.75	1.00	0.25	0.00	0.00	0.00	0.00	0.50	0.00	0.25	0.00	0.25	0.00	0.00	-0.358887	0.080566	0.761230	-30.730000	3.010000	-15.120000	74.00	-0.27	-0.03	14.50	18.75	9.25	14.75	0.75	2.50	0.00	0.00	0.00	0.00	0.50	0.50	0.50	0.75	0.25	0.25	-0.221680	0.096680	0.958984	13.300000	-4.550000	6.440000	648.00	-0.32	-0.08
0.64	1.50	1.75	0.75	0.75	0.00	0.00	0.00	0.00	0.25	0.50	0.00	0.25	0.00	0.00	0.00	0.00	-0.200195	0.011230	1.200684	-13.650000	18.760000	-32.200001	59.00	-0.25	-0.03	14.75	19.25	9.25	15.00	0.75	2.75	0.00	0.25	0.00	0.00	0.25	0.25	0.75	0.50	0.00	0.25	-0.230957	0.106445	0.958008	11.270000	-4.060000	5.880000	657.00	-0.32	-0.08
0.65	1.25	1.00	0.75	0.75	0.00	0.00	0.00	0.00	0.00	0.50	0.00	0.00	0.00	0.00	0.00	0.00	-0.264648	0.263184	0.995605	-0.560000	31.010000	-40.110001	44.00	0.00	0.00	15.00	19.75	9.25	15.50	0.75	3.00	0.00	0.25	0.00	0.25	0.50	0.25	0.75	0.75	0.25	0.25	-0.226562	0.107910	0.957520	7.980000	-3.570000	5.180000	682.00	-0.31	-0.08
0.66	0.00	0.00	0.50	0.25	0.00	0.00	0.00	0.00	0.00	0.50	0.00	0.00	0.00	0.00	0.00	0.00	-0.442871	0.206543	1.054199	-10.010000	45.639999	-42.910000	14.00	0.00	0.00	15.00	20.00	9.50	15.50	0.75	3.50	0.00	0.25	0.00	0.25	0.50	0.75	1.00	0.75	0.25	0.25	-0.226562	0.101562	0.942383	4.270000	-3.080000	4.270000	700.00	-0.31	-0.09
0.67	0.75	0.75	0.25	0.00	0.00	0.00	0.00	0.00	0.00	0.25	0.00	0.00	0.00	0.50	0.00	0.00	-0.331055	0.181152	1.304199	-38.920002	58.310001	-49.770000	24.00	0.00	0.00	15.00	20.25	9.25	15.75	0.75	3.25	0.00	0.25	0.00	0.25	0.50	0.50	0.75	0.50	0.00	0.50	-0.223633	0.113281	0.946289	1.190000	-2.590000	3.430000	692.00	-0.31	-0.09
0.68	0.50	0.25	0.50	0.00	0.00	0.00	0.00	0.00	0.00	0.25	0.00	0.00	0.00	0.00	0.00	0.00	0.038086	0.261230	1.244629	-73.639999	62.580002	-56.420002	16.00	0.00	0.00	15.75	20.25	9.75	16.00	0.75	3.25	0.00	0.50	0.00	0.00	0.50	0.75	1.00	0.50	0.25	0.50	-0.226074	0.109863	0.946777	-2.170000	-1.470000	2.730000	716.00	-0.31	-0.09
0.69	0.00	0.00	0.50	0.00	0.00	0.00	0.00	0.00	0.00	0.00	0.00	0.00	0.00	0.00	0.00	0.00	-0.029297	0.406738	1.540527	-82.180000	55.020000	-60.760002	6.00	0.00	0.00	15.75	20.50	9.50	15.75	0.75	3.75	0.00	0.50	0.00	0.25	0.50	0.50	1.00	0.50	0.00	0.50	-0.227539	0.098145	0.965332	-4.340000	-0.770000	2.240000	716.00	-0.31	-0.09
0.70	0.50	0.00	0.00	0.00	0.00	0.00	0.00	0.00	0.00	0.00	0.00	0.00	0.00	0.00	0.00	0.00	0.187500	0.520996	1.498047	-49.420002	47.110001	-62.510002	5.00	0.00	0.00	15.50	20.50	9.75	15.75	0.75	3.75	0.00	0.50	0.00	0.25	0.50	0.50	1.00	0.50	0.00	0.50	-0.229004	0.102051	0.961914	-5.250000	-0.560000	1.750000	716.00	-0.31	-0.09
0.71	0.50	0.50	0.25	0.25	0.00	0.00	0.00	0.00	0.00	0.00	0.00	0.00	0.00	0.00	0.00	0.00	0.320312	0.439941	1.223145	-19.389999	35.910000	-65.309998	15.00	0.00	0.00	15.75	20.25	9.50	16.00	0.75	3.75	0.00	0.50	0.00	0.50	0.50	0.50	1.25	0.50	0.00	0.25	-0.226074	0.101562	0.958496	-5.390000	-0.420000	1.330000	720.00	-0.31	-0.09
0.72	0.25	0.75	0.00	0.00	0.00	0.00	0.00	0.00	0.00	0.00	0.00	0.00	0.00	0.00	0.00	0.00	0.324219	0.420410	1.125000	-7.910000	28.490000	-66.500000	9.00	0.00	0.00	15.50	20.25	9.50	16.00	1.00	4.00	0.00	0.50	0.00	0.50	0.75	0.50	1.00	0.50	0.00	0.50	-0.233398	0.101074	0.964844	-5.320000	-0.140000	1.050000	724.00	-0.30	-0.09
0.73	0.50	0.25	0.00	0.00	0.00	0.00	0.00	0.00	0.00	0.00	0.00	0.00	0.00	0.00	0.00	0.00	0.406250	0.421387	1.044434	-6.300000	27.020000	-63.770000	7.00	0.00	0.00	15.25	20.00	9.75	16.00	1.00	4.00	0.00	0.50	0.00	0.25	0.75	0.50	1.00	0.50	0.00	0.50	-0.230957	0.102539	0.946289	-5.810000	0.140000	0.700000	720.00	-0.31	-0.09
0.74	0.50	0.25	0.25	0.00	0.00	0.00	0.00	0.00	0.00	0.00	0.00	0.00	0.00	0.00	0.00	0.00	0.490723	0.465820	1.021484	-6.650000	26.250000	-58.240002	10.00	0.00	0.00	15.25	19.75	9.50	15.75	1.00	3.75	0.00	0.50	0.00	0.00	0.50	0.50	1.25	0.50	0.00	0.50	-0.226074	0.104980	0.947266	-6.790000	0.490000	0.560000	706.00	-0.31	-0.09
0.75	0.75	0.50	0.00	0.00	0.00	0.00	0.00	0.00	0.00	0.00	0.00	0.00	0.00	0.00	0.00	0.00	0.608398	0.489746	0.979980	-0.350000	24.430000	-50.189999	12.00	0.00	0.00	15.00	19.50	9.50	15.50	1.00	3.75	0.00	0.50	0.25	0.50	0.75	0.50	1.00	0.50	0.25	0.75	-0.231445	0.092773	0.961914	-7.700000	0.910000	0.210000	711.00	-0.30	-0.09
0.76	0.50	0.00	0.25	0.00	0.00	0.00	0.00	0.00	0.00	0.25	0.00	0.00	0.00	0.00	0.00	0.00	0.704102	0.477051	0.979492	9.730000	20.930000	-38.500000	11.00	0.00	0.00	14.75	19.25	9.50	15.50	1.00	3.75	0.00	0.50	0.25	0.75	0.75	0.50	1.00	0.50	0.00	0.50	-0.232910	0.091797	0.958984	-8.470000	1.260000	-0.070000	705.00	-0.30	-0.09
0.77	0.25	0.75	0.00	0.00	0.00	0.00	0.00	0.00	0.00	0.00	0.00	0.00	0.00	0.00	0.00	0.00	0.736328	0.378418	1.046387	26.880001	11.970000	-8.330000	9.00	0.00	0.00	14.50	19.25	9.50	15.25	1.00	3.75	0.00	0.50	0.25	0.50	1.00	0.50	1.00	0.75	0.00	0.50	-0.242188	0.096680	0.974121	-8.050000	0.560000	-0.140000	702.00	-0.30	-0.09
0.78	0.50	0.25	0.00	0.00	0.00	0.00	0.00	0.00	0.00	0.00	0.00	0.00	0.00	0.00	0.00	0.00	0.756348	0.291504	1.134766	28.630001	3.780000	7.280000	7.00	0.00	0.00	14.50	18.75	9.50	15.25	0.75	3.75	0.25	0.50	0.25	0.50	1.00	0.75	1.00	0.50	0.25	0.50	-0.244141	0.097656	0.966797	-5.880000	-1.120000	-0.000000	702.00	-0.29	-0.09
0.79	0.50	0.25	0.25	0.00	0.00	0.00	0.00	0.00	0.00	0.00	0.00	0.00	0.00	0.00	0.00	0.00	0.767578	0.185547	1.163574	26.389999	-7.210000	21.280001	10.00	0.00	0.00	14.25	18.75	9.50	15.00	1.00	3.75	0.00	0.50	0.25	0.50	0.75	0.50	1.25	0.50	0.25	0.50	-0.237305	0.098633	0.967773	-4.480000	-2.520000	0.140000	692.00	-0.29	-0.09
0.80	0.50	0.50	0.00	0.00	0.00	0.00	0.00	0.00	0.00	0.00	0.00	0.00	0.00	0.00	0.00	0.00	0.750977	0.085938	1.147461	23.240000	-18.690001	31.360001	10.00	0.00	0.00	14.50	18.50	9.50	15.00	1.00	3.75	0.00	0.50	0.50	0.25	0.50	0.50	1.00	0.50	0.25	0.75	-0.229980	0.100586	0.955078	-4.270000	-3.360000	0.070000	690.00	-0.30	-0.08
0.81	0.75	0.25	0.00	0.00	0.00	0.00	0.00	0.00	0.00	0.00	0.00	0.00	0.00	0.00	0.00	0.00	0.716309	0.001953	1.140625	21.420000	-29.820000	36.119999	10.00	0.00	0.00	14.25	18.50	9.50	15.00	1.00	3.50	0.00	0.50	0.25	0.50	0.50	0.50	1.00	0.50	0.25	0.50	-0.239746	0.099609	0.947266	-4.410000	-3.710000	-0.000000	682.00	-0.30	-0.08
0.82	0.00	0.25	0.00	0.00	0.00	0.00	0.00	0.00	0.00	0.00	0.00	0.00	0.00	0.25	0.00	0.00	0.661621	-0.063477	1.216309	24.080000	-40.599998	36.119999	4.00	0.00	0.00	14.25	18.50	9.50	14.75	1.00	3.50	0.25	0.50	0.00	0.50	0.75	0.75	1.00	1.00	0.25	0.75	-0.229492	0.096680	0.947754	-4.690000	-3.920000	-0.070000	691.00	-0.29	-0.08
0.83	0.25	0.25	0.00	0.00	0.00	0.00	0.00	0.00	0.00	0.00	0.00	0.00	0.00	0.00	0.00	0.00	0.617188	-0.118652	1.270508	30.100000	-52.570000	32.689999	5.00	0.00	0.00	14.25	18.25	9.50	14.75	1.25	3.50	0.25	0.75	0.50	0.25	0.50	0.50	1.00	1.00	0.50	0.75	-0.230957	0.091797	0.943848	-5.180000	-3.710000	0.070000	697.00	-0.28	-0.08
0.84	0.50	0.25	0.00	0.00	0.00	0.00	0.00	0.00	0.00	0.25	0.00	0.00	0.00	0.00	0.00	0.00	0.567383	-0.165527	1.339844	32.900002	-65.660004	27.160000	10.00	0.00	0.00	14.75	18.25	9.75	15.00	1.00	3.50	0.25	0.50	0.25	0.50	0.75	1.00	1.25	1.00	0.25	0.75	-0.225586	0.093750	0.937988	-5.530000	-2.870000	-0.000000	707.00	-0.28	-0.08
0.85	0.00	0.25	0.00	0.00	0.00	0.00	0.00	0.00	0.00	0.00	0.00	0.00	0.00	0.00	0.00	0.00	0.499512	-0.195312	1.360352	31.290001	-78.400002	21.280001	2.00	0.00	0.00	15.00	18.00	9.75	14.75	1.00	3.50	0.25	0.75	0.50	0.75	0.75	1.00	1.50	1.25	0.25	1.00	-0.229492	0.099121	0.947754	-5.740000	-2.100000	0.070000	720.00	-0.27	-0.08
0.86	0.00	0.00	0.00	0.00	0.00	0.00	0.00	0.00	0.00	0.00	0.00	0.00	0.00	0.00	0.00	0.00	0.447754	-0.179199	1.370117	26.670000	-90.230003	15.330000	0.00	0.00	0.00	15.00	18.00	9.75	14.75	1.00	3.50	0.25	0.75	0.75	0.50	1.00	0.75	1.50	1.25	0.25	1.00	-0.235352	0.095215	0.948730	-5.880000	-1.540000	0.140000	721.00	-0.27	-0.08
0.87	0.00	0.00	0.00	0.00	0.00	0.00	0.00	0.00	0.00	0.00	0.00	0.00	0.00	0.00	0.00	0.00	0.388184	-0.142578	1.366699	22.960001	-101.220001	9.100000	0.00	0.00	0.00	14.50	17.75	9.75	14.75	1.25	3.75	0.25	0.75	0.50	0.75	1.00	1.00	1.75	1.50	0.50	1.00	-0.230957	0.086426	0.956543	-5.950000	-1.120000	0.280000	728.00	-0.26	-0.08
0.88	0.25	0.25	0.00	0.00	0.00	0.00	0.00	0.00	0.00	0.00	0.00	0.00	0.00	0.00	0.00	0.00	0.333008	-0.093262	1.336914	23.240000	-110.320000	2.450000	5.00	0.00	0.00	14.25	17.75	9.75	14.50	1.25	3.50	0.25	0.75	0.50	0.50	1.00	1.00	1.75	1.50	0.75	1.00	-0.233887	0.086426	0.956543	-5.950000	-1.050000	0.350000	720.00	-0.26	-0.08
0.89	0.25	0.00	0.00	0.00	0.00	0.00	0.00	0.00	0.00	0.00	0.00	0.00	0.00	0.00	0.00	0.00	0.269531	-0.065430	1.316406	28.980000	-117.459999	-4.060000	3.00	0.00	0.00	14.25	17.50	10.00	14.50	1.50	3.50	0.25	0.50	0.75	1.00	0.75	0.75	1.75	1.50	0.75	1.00	-0.240234	0.093750	0.961914	-6.090000	-0.980000	0.420000	722.00	-0.26	-0.08
0.90	1.00	0.00	0.00	0.00	0.00	0.00	0.00	0.00	0.00	0.00	0.00	0.00	0.00	0.00	0.00	0.00	0.220215	-0.055664	1.310547	38.290001	-122.779999	-9.310000	10.00	0.00	0.00	14.25	17.25	9.75	14.50	1.50	3.50	0.25	0.75	1.00	1.00	1.00	0.75	1.75	1.50	0.75	1.25	-0.245117	0.096191	0.967773	-6.650000	-0.910000	0.280000	728.00	-0.25	-0.08
0.91	0.50	0.00	0.00	0.00	0.00	0.00	0.00	0.00	0.00	0.25	0.00	0.00	0.00	0.00	0.00	0.00	0.167480	-0.076172	1.323730	45.150002	-126.910004	-12.810000	8.00	0.00	0.00	14.25	17.25	9.75	14.25	1.50	3.50	0.25	0.50	1.00	1.00	1.00	1.25	1.75	1.75	0.75	1.25	-0.234863	0.085449	0.952148	-6.720000	-0.840000	0.280000	729.00	-0.25	-0.08
0.92	0.00	0.00	0.00	0.00	0.00	0.00	0.00	0.00	0.00	0.00	0.00	0.00	0.00	0.00	0.00	0.00	0.103516	-0.103516	1.359863	45.849998	-130.619995	-14.770000	0.00	0.00	0.00	13.75	17.00	10.00	14.25	1.50	3.50	0.25	0.75	1.25	1.50	1.25	1.00	1.75	1.75	0.50	1.25	-0.235840	0.083496	0.942383	-7.000000	-0.910000	0.140000	734.00	-0.24	-0.07
0.93	1.00	0.25	0.00	0.00	0.00	0.00	0.00	0.00	0.00	0.00	0.00	0.00	0.00	0.00	0.00	0.00	0.061035	-0.109863	1.381836	42.000000	-135.240005	-15.120000	13.00	0.00	0.00	13.75	16.75	9.75	14.00	1.75	3.50	0.25	0.75	1.25	1.00	1.25	1.25	2.00	1.75	0.50	1.25	-0.229980	0.086426	0.943359	-8.120000	-0.700000	-0.280000	729.00	-0.24	-0.08
0.94	0.25	0.25	0.00	0.00	0.00	0.00	0.00	0.00	0.00	0.00	0.00	0.00	0.00	0.00	0.00	0.00	0.019531	-0.092285	1.380371	35.910000	-140.630005	-13.790000	5.00	0.00	0.00	13.25	16.25	9.75	13.75	1.75	3.50	0.25	1.00	1.50	1.50	1.25	1.00	2.25	2.25	0.75	1.25	-0.232910	0.086914	0.946777	-9.030000	-0.420000	-0.840000	735.00	-0.23	-0.07
0.95	0.25	0.25	0.00	0.00	0.00	0.00	0.00	0.00	0.00	0.00	0.00	0.00	0.00	0.00	0.00	0.00	-0.020996	-0.063477	1.383301	29.400000	-145.880005	-11.410000	5.00	0.00	0.00	12.75	16.00	9.75	13.75	1.50	3.75	0.50	1.00	1.25	1.25	1.25	1.25	2.50	2.50	1.00	1.50	-0.235840	0.090820	0.958496	-10.710000	0.560000	-1.260000	736.00	-0.22	-0.08
0.96	0.75	0.50	0.00	0.00	0.00	0.00	0.00	0.00	0.00	0.00	0.00	0.00	0.00	0.00	0.00	0.00	-0.074219	-0.009277	1.386719	25.340000	-150.779999	-8.050000	12.00	0.00	0.00	12.25	15.50	9.50	13.25	2.00	3.75	0.50	1.00	1.75	1.50	1.50	1.25	2.50	2.75	1.00	1.75	-0.235840	0.086914	0.950195	-12.810000	1.610000	-1.820000	739.00	-0.21	-0.07
0.97	0.25	0.00	0.00	0.00	0.00	0.00	0.00	0.00	0.00	0.00	0.00	0.00	0.00	0.00	0.00	0.00	-0.183594	0.034668	1.263184	24.010000	-155.539993	-3.920000	3.00	0.00	0.00	12.00	15.00	9.50	13.00	2.00	3.50	0.75	1.00	2.25	1.75	1.75	1.25	2.50	3.25	1.00	2.00	-0.241211	0.083008	0.960449	-14.210000	2.380000	-2.240000	747.00	-0.19	-0.07
0.98	0.25	0.00	0.00	0.00	0.00	0.00	0.00	0.00	0.00	0.00	0.00	0.00	0.00	0.00	0.00	0.00	-0.252930	0.081055	1.172852	25.059999	-157.779999	4.480000	3.00	0.00	0.00	11.50	14.50	9.25	12.75	2.00	3.50	0.75	1.00	2.75	1.75	1.75	1.50	2.50	3.25	1.25	1.75	-0.234375	0.079102	0.947266	-14.630000	2.870000	-2.450000	743.00	-0.18	-0.07
0.99	0.50	0.00	0.00	0.00	0.00	0.00	0.00	0.00	0.00	0.00	0.00	0.00	0.00	0.00	0.00	0.00	-0.314453	0.054688	1.082520	27.510000	-153.020004	8.050000	5.00	0.00	0.00	10.75	13.75	9.25	12.25	2.25	3.75	1.00	1.25	3.00	2.25	1.75	1.75	2.75	3.50	1.25	2.00	-0.235840	0.077637	0.957520	-15.400000	3.850000	-2.730000	752.00	-0.16	-0.06
1.00	0.00	0.00	0.00	0.00	0.00	0.00	0.00	0.00	0.00	0.25	0.00	0.00	0.00	0.00	0.00	0.00	-0.368652	0.024902	1.025879	30.170000	-145.949997	10.220000	3.00	0.00	0.00	10.25	13.00	9.00	12.00	2.25	3.25	1.00	1.00	3.75	2.50	2.00	1.75	3.00	4.00	1.25	2.00	-0.235840	0.077637	0.957520	-15.400000	3.850000	-2.730000	747.00	-0.15	-0.06
1.01	0.25	0.00	0.00	0.00	0.00	0.00	0.00	0.00	0.00	0.25	0.00	0.00	0.00	0.00	0.00	0.00	-0.435059	-0.023438	0.981445	32.060001	-137.479996	10.360000	5.00	0.00	0.00	9.50	12.25	8.75	11.50	2.25	3.00	1.50	1.25	4.50	2.75	2.25	1.75	3.00	4.50	1.50	2.25	-0.243652	0.064941	0.965332	-16.170000	4.340000	-2.870000	756.00	-0.12	-0.05
1.02	0.00	0.00	0.00	0.00	0.00	0.00	0.00	0.00	0.00	0.25	0.00	0.00	0.00	0.00	0.00	0.00	-0.509766	-0.068359	0.935547	34.860001	-128.729996	7.980000	3.00	0.00	0.00	9.00	11.50	8.50	11.00	2.50	3.00	1.75	1.00	5.50	3.25	2.25	2.00	3.25	5.25	1.75	2.25	-0.240234	0.077148	0.957520	-17.710001	5.600000	-3.080000	770.00	-0.10	-0.04
1.03	0.50	0.25	0.00	0.00	0.00	0.00	0.00	0.00	0.00	0.25	0.00	0.00	0.00	0.25	0.00	0.00	-0.580078	-0.124023	0.903320	37.660000	-120.190002	3.010000	12.00	0.00	0.00	8.50	10.75	8.25	10.75	2.50	2.75	2.25	1.25	6.25	4.00	2.50	2.25	3.50	5.75	1.75	2.75	-0.250000	0.066895	0.964844	-17.850000	7.000000	-3.360000	793.00	-0.08	-0.03
1.04	0.25	0.00	0.00	0.00	0.00	0.00	0.00	0.00	0.00	0.00	0.00	0.00	0.00	0.00	0.00	0.00	-0.634766	-0.170410	0.866211	39.340000	-111.790001	-4.060000	3.00	0.00	0.00	7.50	9.75	7.75	10.00	2.50	2.75	2.50	1.25	7.25	4.50	3.00	2.25	3.25	6.00	1.75	2.75	-0.254395	0.061523	0.969727	-17.500000	7.280000	-3.290000	787.00	-0.05	-0.03
1.05	0.75	0.25	0.00	0.00	0.00	0.00	0.00	0.00	0.00	0.25	0.00	0.00	0.00	0.00	0.00	0.00	-0.702637	-0.211914	0.811523	39.759998	-103.389999	-12.600000	13.00	0.00	0.00	6.75	9.00	7.50	9.50	2.50	2.25	3.00	1.00	8.00	5.25	3.50	2.25	3.25	7.00	2.00	2.75	-0.255371	0.066406	0.972656	-17.500000	8.050000	-3.150000	797.00	-0.03	-0.01
1.06	0.25	0.00	0.00	0.25	0.00	0.25	0.00	0.00	0.00	0.00	0.00	0.00	0.00	0.00	0.00	0.00	-0.763184	-0.248047	0.770020	37.730000	-94.919998	-22.190001	8.00	0.00	0.00	6.00	8.25	6.75	9.00	2.50	1.75	3.25	1.00	8.50	6.50	3.50	2.50	3.25	7.25	2.25	3.00	-0.255859	0.055176	0.965820	-17.219999	9.030000	-3.150000	795.00	-0.00	-0.01
1.07	0.00	0.25	0.00	0.00	0.00	0.00	0.00	0.00	0.00	0.00	0.00	0.00	0.00	0.00	0.00	0.00	-0.823242	-0.291016	0.714355	31.570000	-85.400002	-32.340000	2.00	0.00	0.00	5.25	7.25	6.25	8.25	2.25	1.50	3.75	1.00	9.50	7.50	4.00	2.75	3.75	8.00	2.25	3.25	-0.259766	0.062500	0.956055	-17.150000	10.430000	-3.080000	810.00	0.03	0.00
1.08	0.50	0.00	0.00	0.00	0.00	0.00	0.00	0.00	0.00	0.00	0.00	0.00	0.00	0.00	0.00	0.00	-0.887695	-0.264648	0.678223	22.260000	-75.949997	-42.070000	5.00	0.00	0.00	4.50	6.50	5.75	7.75	2.00	1.25	4.00	0.75	10.50	8.25	4.50	2.75	3.50	8.50	2.50	3.50	-0.268555	0.053711	0.974121	-16.660000	12.250000	-3.010000	811.00	0.05	0.01
1.09	0.00	0.50	0.00	0.00	0.00	0.00	0.00	0.00	0.00	0.00	0.00	0.00	0.00	0.00	0.00	0.00	-0.936035	-0.200195	0.594238	13.860000	-65.169998	-50.049999	5.00	0.00	0.00	3.50	5.75	5.25	6.75	2.00	1.00	4.50	0.50	11.50	8.75	5.00	2.75	3.50	9.00	2.50	4.00	-0.284180	0.056641	0.975098	-15.750000	14.420000	-2.940000	808.00	0.08	0.02
1.10	0.50	0.00	0.00	0.00	0.00	0.00	0.00	0.00	0.00	0.00	0.00	0.00	0.00	0.00	0.00	0.00	-0.996094	-0.142090	0.488281	8.260000	-53.549999	-54.740002	5.00	0.00	0.00	3.00	5.00	4.25	5.75	1.75	0.50	5.00	0.50	12.50	9.25	5.25	3.25	3.50	9.75	2.75	4.00	-0.283691	0.048340	0.961914	-14.910000	17.219999	-2.800000	809.00	0.10	0.03
1.11	0.00	0.00	0.00	0.00	0.00	0.00	0.00	0.00	0.00	0.00	0.00	0.00	0.00	0.00	0.00	0.00	-1.044922	-0.073242	0.413574	4.340000	-38.849998	-55.299999	0.00	0.00	0.00	2.25	4.00	3.25	5.25	1.25	0.25	5.00	0.25	13.25	9.75	6.25	3.25	3.75	10.25	3.00	4.50	-0.278809	0.061035	0.967285	-13.930000	20.090000	-3.010000	800.00	0.13	0.04
1.12	0.25	0.00	0.00	0.00	0.00	0.00	0.00	0.00	0.00	0.00	0.00	0.00	0.00	0.00	0.00	0.00	-1.103516	-0.030273	0.384277	-0.140000	-22.469999	-50.680000	3.00	0.00	0.00	1.75	2.75	2.50	4.00	1.00	0.00	5.25	0.00	14.50	10.50	6.75	3.25	3.75	11.25	3.00	4.50	-0.291992	0.036621	0.968262	-12.950000	22.540001	-2.940000	794.00	0.17	0.05
1.13	0.00	0.00	0.00	0.00	0.00	0.00	0.00	0.00	0.00	0.00	0.00	0.00	0.00	0.00	0.00	0.00	-1.154297	0.018555	0.386719	-7.420000	-5.250000	-41.160000	0.00	0.00	0.00	1.00	2.00	1.75	3.00	0.75	0.00	5.50	0.00	15.25	11.00	7.00	3.25	3.75	11.75	3.25	4.75	-0.256836	0.031738	0.953125	-12.390000	26.250000	-3.010000	787.00	0.19	0.06
1.14	0.25	0.00	0.00	0.00	0.00	0.00	0.00	0.00	0.00	0.00	0.00	0.00	0.00	0.00	0.00	0.00	-1.222168	0.067383	0.404785	-16.940001	11.830000	-27.580000	3.00	0.00	0.00	0.75	2.00	1.50	2.50	0.50	0.00	5.50	0.00	16.25	11.50	7.25	3.25	3.25	12.50	3.50	5.00	-0.111328	0.038086	1.050293	-15.820000	35.490002	-4.550000	800.00	0.20	0.07
1.15	0.00	0.00	0.00	0.00	0.00	0.00	0.00	0.00	0.00	0.00	0.00	0.00	0.00	0.00	0.00	0.00	-1.264160	0.107910	0.412109	-27.020000	29.049999	-11.620000	0.00	0.00	0.00	0.50	1.00	1.25	1.50	0.50	0.00	5.50	0.00	17.00	12.00	7.25	3.25	3.00	13.25	3.50	4.75	-0.276367	0.017578	1.050293	-13.020000	58.240002	-5.810000	793.00	0.22	0.08
1.16	0.25	0.00	0.00	0.00	0.00	0.00	0.00	0.00	0.00	0.00	0.00	0.00	0.00	0.00	0.00	0.00	-1.307129	0.136230	0.405762	-34.790001	46.480000	6.090000	3.00	0.00	0.00	0.50	1.00	1.00	1.50	0.25	0.00	5.75	0.00	17.75	12.50	7.00	2.75	3.00	13.75	3.75	4.75	-0.314453	0.058105	0.995117	-12.460000	75.949997	-5.600000	805.00	0.23	0.09
1.17	0.25	0.00	0.00	0.00	0.00	0.00	0.00	0.00	0.00	0.00	0.00	0.00	0.00	0.00	0.00	0.00	-1.354980	0.103516	0.449707	-48.720001	83.930000	40.880001	3.00	0.00	0.00	0.00	0.75	1.00	0.75	0.25	0.00	5.50	0.00	18.50	12.75	7.00	2.50	2.50	14.50	3.75	4.75	-0.331055	0.020996	1.021484	-14.560000	90.440002	-5.110000	797.00	0.24	0.10
1.18	0.00	0.25	0.00	0.00	0.00	0.00	0.00	0.00	0.00	0.00	0.00	0.00	0.00	0.00	0.00	0.00	-1.321289	0.103516	0.449707	-48.720001	83.930000	40.880001	2.00	0.00	0.00	0.00	0.50	0.50	0.75	0.00	0.00	5.50	0.00	19.00	13.00	6.50	2.50	2.00	15.00	3.75	5.00	-0.364258	0.007812	1.004395	-18.410000	106.540001	-6.090000	792.00	0.25	0.10
1.19	0.50	0.25	0.00	0.00	0.00	0.00	0.00	0.00	0.00	0.00	0.00	0.00	0.00	0.00	0.00	0.00	4.444336	1.873535	3.294922	-40.529999	173.110001	34.720001	7.00	0.00	0.00	0.00	0.00	0.50	0.00	0.00	0.00	5.50	0.00	19.75	13.50	6.50	2.00	2.00	15.75	3.75	5.00	-0.339844	0.026855	0.999023	-24.639999	122.220001	-7.350000	795.00	0.26	0.11
1.20	1.50	2.00	0.50	0.25	0.00	0.00	0.00	0.00	0.00	0.00	0.00	0.00	0.00	0.00	0.00	0.00	0.568848	0.616699	0.780273	-0.840000	111.230003	28.840000	42.00	0.00	0.00	0.25	0.00	0.00	0.00	0.00	0.00	5.50	0.00	20.25	13.75	5.75	2.00	1.25	16.50	4.00	4.75	-0.413086	0.033691	1.054199	-40.880001	149.800003	-10.920000	794.00	0.27	0.12
1.21	2.25	3.00	0.75	0.25	0.00	0.00	0.00	0.00	0.00	0.00	0.00	0.00	0.00	0.00	0.00	0.00	0.486328	-0.345215	-0.147461	-50.259998	88.129997	-6.090000	62.00	-0.39	-0.03	0.00	0.00	0.25	0.00	0.00	0.00	5.50	0.00	20.50	14.00	5.50	1.50	1.25	16.75	3.75	4.75	-0.413086	0.033691	1.054199	-40.880001	149.800003	-10.920000	792.00	0.27	0.13
1.22	3.00	4.25	0.75	0.50	0.00	0.00	0.00	0.00	0.00	0.00	0.00	0.00	0.00	0.00	0.00	0.00	0.047363	-0.402832	-0.436523	-134.960007	145.460007	-44.590000	84.00	-0.39	-0.04	0.00	0.25	0.25	0.50	0.00	0.00	5.25	0.00	20.50	13.75	4.50	0.75	0.75	17.25	3.75	4.50	-0.445312	0.034668	1.126465	-54.110001	163.029999	-12.950000	774.00	0.27	0.14
1.23	4.25	5.25	0.75	1.00	0.00	0.00	0.00	0.00	0.00	0.00	0.00	0.00	0.00	0.00	0.00	0.00	-0.209473	0.170410	1.130371	-149.589996	209.160004	-51.099998	112.00	-0.39	-0.04	0.00	0.00	0.00	0.00	0.00	0.00	5.25	0.00	20.75	13.50	3.50	0.50	0.00	17.75	3.75	4.50	-0.515625	-0.018555	1.084473	-78.050003	193.899994	-19.250000	748.00	0.28	0.15
1.24	5.75	7.50	1.00	1.50	0.00	0.00	0.00	0.00	0.00	0.00	0.00	0.00	0.00	0.00	0.00	0.00	-0.537598	0.186523	2.153809	-103.180000	206.570007	-28.630001	156.00	-0.39	-0.05	0.00	0.00	0.00	0.00	0.00	0.00	5.25	0.00	20.50	13.50	3.25	0.00	0.00	18.25	3.75	4.50	-0.543945	0.014160	1.112305	-88.760002	207.270004	-21.980000	741.00	0.28	0.15
1.25	8.00	10.25	1.50	1.75	0.00	0.00	0.00	0.00	0.00	0.00	0.00	0.00	0.00	0.00	0.00	0.00	-0.493652	0.031250	1.646484	-41.369999	173.740005	-4.340000	213.00	-0.39	-0.04	0.00	0.00	0.00	0.00	0.00	0.00	5.25	0.00	20.00	13.25	2.50	0.00	0.00	18.50	3.50	4.50	-0.595215	0.051270	1.006836	-94.849998	219.800003	-25.690001	724.00	0.28	0.16
1.26	11.50	13.50	2.00	2.50	0.00	0.00	0.00	0.00	0.00	0.00	0.00	0.00	0.00	0.00	0.00	0.00	-0.186035	0.139160	1.035645	12.110000	171.009995	13.930000	293.00	-0.39	-0.04	0.00	0.00	0.00	0.00	0.00	0.00	5.50	0.00	19.50	12.75	2.00	0.00	0.00	18.75	3.25	4.25	-0.622070	0.056152	1.064941	-98.209999	235.059998	-30.870001	709.00	0.28	0.16
1.27	14.00	17.00	2.25	3.50	0.00	0.00	0.00	0.00	0.00	0.00	0.00	0.00	0.00	0.00	0.00	0.00	-0.242188	-0.187500	1.259277	36.189999	181.649994	20.090000	365.00	-0.39	-0.05	0.00	0.00	0.00	0.00	0.00	0.00	5.50	0.00	18.25	12.00	1.50	0.00	0.00	19.00	3.00	4.00	-0.649414	0.025391	1.164062	-105.489998	251.580002	-39.480000	678.00	0.28	0.16
1.28	17.00	20.00	3.00	4.00	0.00	0.00	0.00	0.00	0.00	0.00	0.00	0.00	0.00	0.00	0.00	0.00	-0.469727	-0.392090	1.793457	52.430000	178.220001	10.710000	437.00	-0.39	-0.04	0.00	0.00	0.00	0.00	0.00	0.00	5.50	0.00	16.25	11.00	1.25	0.00	0.00	19.00	2.75	3.50	-0.742676	-0.120117	1.167480	-120.540001	262.920013	-49.630001	633.00	0.28	0.17
1.29	20.50	23.25	3.50	5.25	0.00	0.00	0.00	0.00	0.00	0.00	0.00	0.00	0.00	0.00	0.00	0.00	-0.490234	-0.062012	1.753906	62.860001	157.220001	-3.290000	523.00	-0.39	-0.04	0.00	0.00	0.00	0.00	0.00	0.00	5.25	0.00	14.50	10.00	1.00	0.00	0.00	18.75	2.50	3.25	-1.021973	-0.142090	1.565430	-131.809998	270.200012	-57.049999	587.00	0.28	0.17
1.30	22.00	25.00	4.25	6.75	0.00	0.00	0.00	0.00	0.00	0.00	0.00	0.00	0.00	0.00	0.00	0.00	-0.418457	0.287598	1.697754	63.980000	136.430008	-7.840000	579.00	-0.38	-0.04	0.00	0.00	0.00	0.00	0.00	0.00	5.00	0.00	12.25	9.00	0.25	0.00	0.00	18.50	1.75	2.75	-1.162109	-0.216797	1.514160	-136.500000	274.119995	-59.709999	523.00	0.28	0.17
1.31	23.00	26.25	4.50	7.75	0.25	0.00	0.00	0.00	0.00	0.00	0.00	0.00	0.00	0.00	0.00	0.00	-0.305664	0.448242	1.328613	58.450001	118.370003	-0.840000	618.00	-0.38	-0.05	0.00	0.00	0.00	0.00	0.00	0.00	4.75	0.00	10.25	8.25	0.25	0.00	0.00	17.50	1.50	2.50	-1.145020	0.150879	1.751953	-116.690002	280.140015	-54.950001	473.00	0.28	0.17
1.32	23.75	27.50	5.50	8.25	0.25	0.25	0.00	0.00	0.00	0.00	0.00	0.00	0.00	0.00	0.00	0.00	-0.248535	0.289062	1.110352	49.209999	109.760002	9.170000	656.00	-0.38	-0.05	0.00	0.00	0.00	0.00	0.00	0.00	4.00	0.00	8.50	7.50	0.00	0.00	0.00	16.50	1.25	2.00	-1.055664	0.310059	1.796387	-92.610001	303.380005	-67.690002	414.00	0.29	0.17
1.33	24.00	28.75	5.75	9.50	0.25	0.00	0.00	0.00	0.00	0.00	0.00	0.00	0.00	0.00	0.00	0.00	-0.232910	0.103027	1.015137	37.869999	108.150002	11.760000	684.00	-0.38	-0.05	0.00	0.00	0.00	0.00	0.00	0.00	3.25	0.00	7.25	6.00	0.00	0.00	0.00	14.50	1.25	2.25	-1.241699	0.224609	1.595215	-91.419998	303.450012	-85.750000	355.00	0.29	0.17
1.34	25.25	28.50	7.00	10.25	0.50	0.50	0.00	0.00	0.00	0.00	0.00	0.00	0.00	0.00	0.00	0.00	-0.246582	0.081055	0.996582	28.070000	107.379997	7.840000	725.00	-0.37	-0.05	0.00	0.00	0.00	0.00	0.00	0.00	2.50	0.00	6.25	5.00	0.25	0.00	0.00	12.25	1.00	2.00	-1.305176	0.413574	1.633301	-91.559998	310.730011	-109.199997	300.00	0.29	0.16
1.35	25.75	29.75	6.75	11.00	0.50	0.75	0.00	0.00	0.00	0.00	0.00	0.00	0.00	0.00	0.00	0.00	-0.263672	0.129395	1.032715	19.389999	105.209999	3.430000	750.00	-0.37	-0.05	0.00	0.00	0.00	0.00	0.00	0.00	1.75	0.00	5.00	3.75	0.00	0.00	0.00	9.75	1.00	1.50	-1.250488	0.260254	2.106934	-84.840004	302.470001	-118.930000	233.00	0.30	0.16
1.36	27.00	30.75	7.50	11.75	0.50	1.25	0.00	0.25	0.00	0.00	0.00	0.00	0.00	0.00	0.00	0.00	-0.273926	0.167480	1.038086	11.620000	102.129997	1.610000	798.00	-0.37	-0.05	0.00	0.00	0.00	0.00	0.00	0.00	1.00	0.00	4.25	3.00	0.25	0.00	0.00	7.75	0.75	1.25	-1.092773	0.370117	1.851562	-93.730003	297.220001	-134.050003	185.00	0.30	0.16
1.37	27.25	31.25	8.00	12.50	0.50	1.25	0.00	0.25	0.00	0.00	0.00	0.25	0.00	0.00	0.00	0.00	-0.403320	0.480957	1.122070	-23.799999	77.139999	-2.450000	822.00	-0.36	-0.06	0.00	0.00	0.00	0.00	0.00	0.00	0.50	0.00	3.00	3.00	0.25	0.00	0.00	6.00	0.50	0.50	-0.968750	0.364746	1.853027	-96.599998	284.690002	-140.839996	140.00	0.31	0.16
1.38	27.50	31.50	8.50	12.75	0.50	1.50	0.00	0.50	0.00	0.00	0.00	0.25	0.00	0.00	0.00	0.00	-0.239746	0.138672	0.986328	-28.210001	54.599998	-3.010000	841.00	-0.36	-0.06	0.00	0.00	0.00	0.00	0.00	0.00	0.25	0.00	2.25	2.25	0.50	0.00	0.00	3.75	0.50	0.25	-0.746094	0.526367	1.612793	-92.540001	266.489990	-146.789993	100.00	0.30	0.15
1.39	28.25	31.00	8.75	13.25	0.75	1.75	0.00	0.25	0.00	0.25	0.00	0.25	0.25	0.00	0.00	0.00	-0.287598	0.138672	0.986328	-28.210001	54.599998	-3.010000	859.00	-0.36	-0.06	0.00	0.00	0.00	0.00	0.00	0.00	0.25	0.00	1.75	1.25	0.25	0.00	0.00	1.75	0.00	0.00	-0.389160	0.639160	1.531738	-80.919998	251.720001	-142.169998	57.00	0.28	0.18
1.40	28.50	30.75	8.75	13.50	0.75	2.00	0.00	0.25	0.00	0.25	0.00	0.25	0.25	0.00	0.00	0.00	-0.279785	0.109863	1.020996	-25.690001	45.150002	-2.450000	865.00	-0.36	-0.06	0.00	0.25	0.00	0.00	0.00	0.00	0.25	0.00	1.00	1.25	0.25	0.00	0.00	1.00	0.00	0.00	0.105469	0.395996	1.554688	-66.709999	202.229996	-131.110001	43.00	0.00	0.00
1.41	28.25	30.75	9.00	13.75	0.75	2.25	0.00	0.50	0.00	0.25	0.25	0.25	0.25	0.00	0.00	0.00	-0.287109	0.101074	1.005371	-21.420000	35.490002	-2.450000	877.00	-0.35	-0.06	0.00	0.25	0.00	0.00	0.00	0.00	0.00	0.00	0.75	1.25	0.00	0.00	0.00	0.75	0.00	0.00	-0.156250	1.329102	1.188965	-119.209999	153.440002	-63.840000	31.00	0.00	0.00
1.42	27.50	30.25	9.00	14.00	1.00	2.00	0.00	0.50	0.00	0.50	0.25	0.50	0.50	0.00	0.00	0.00	-0.283691	0.101562	0.995117	-16.309999	27.230000	-2.240000	875.00	-0.35	-0.06	0.00	0.25	0.00	0.25	0.00	0.00	0.00	0.00	1.00	1.00	0.00	0.00	0.00	0.50	0.25	0.00	0.471680	1.125000	2.239746	-107.029999	-1.680000	112.699997	35.00	0.00	0.00
1.43	28.00	30.25	9.00	14.25	1.00	2.25	0.00	0.50	0.00	0.50	0.50	0.50	0.25	0.00	0.00	0.00	-0.286621	0.111816	0.988281	-11.270000	21.559999	-1.890000	886.00	-0.35	-0.06	0.00	0.25	0.00	0.00	0.00	0.00	0.00	0.00	0.75	0.75	0.00	0.00	0.00	0.50	0.25	0.00	0.315918	0.833496	1.653809	-105.559998	-81.830002	169.190002	27.00	0.00	0.00
1.44	27.50	30.00	9.00	14.25	0.75	2.25	0.00	0.50	0.00	0.50	0.25	0.75	0.25	0.00	0.00	0.00	-0.284180	0.109375	0.964844	-7.700000	17.010000	-1.680000	876.00	-0.35	-0.06	0.00	0.00	0.00	0.00	0.00	0.00	0.00	0.00	0.50	1.00	0.00	0.00	0.00	0.50	0.00	0.00	0.308105	0.652832	1.201660	-102.970001	-128.169998	199.220001	21.00	0.00	0.00
1.45	27.50	29.75	8.75	14.00	0.75	2.25	0.00	0.50	0.00	0.75	0.25	0.50	0.25	0.00	0.00	0.00	-0.278809	0.108398	0.948242	-5.880000	14.490000	-1.610000	868.00	-0.35	-0.06	0.00	0.25	0.00	0.00	0.00	0.00	0.00	0.00	0.50	0.75	0.00	0.00	0.00	0.00	0.00	0.00	0.264160	0.499023	0.873047	-85.959999	-147.839996	207.759995	17.00	0.00	0.00
1.46	26.75	29.25	9.00	14.00	1.00	2.50	0.00	0.50	0.00	0.75	0.25	0.75	0.50	0.00	0.00	0.00	-0.280762	0.104004	0.948242	-4.550000	12.670000	-1.470000	869.00	-0.34	-0.06	0.00	0.00	0.00	0.25	0.00	0.00	0.00	0.00	0.00	0.25	0.00	0.00	0.00	0.25	0.00	0.00	0.239258	0.345703	0.669434	-55.720001	-150.779999	201.039993	7.00	0.00	0.00
1.47	26.25	28.75	9.25	14.25	1.00	2.75	0.00	0.50	0.00	0.75	0.50	0.50	0.50	0.00	0.00	0.00	-0.282715	0.105957	0.946289	-3.920000	11.480000	-1.750000	867.00	-0.34	-0.06	0.00	0.00	0.00	0.00	0.00	0.00	0.00	0.00	0.25	0.00	0.00	0.00	0.00	0.25	0.00	0.00	0.219238	0.220703	0.641113	-23.450001	-146.160004	184.660004	5.00	0.00	0.00
1.48	26.25	28.25	9.00	14.00	0.75	2.50	0.00	0.50	0.00	0.75	0.25	1.00	0.50	0.00	0.00	0.00	-0.281738	0.104492	0.946777	-3.780000	10.290000	-1.960000	854.00	-0.34	-0.06	0.00	0.00	0.00	0.00	0.00	0.00	0.00	0.00	0.00	0.25	0.00	0.00	0.00	0.00	0.00	0.00	0.195801	0.111816	0.716309	0.700000	-141.960007	163.449997	3.00	0.00	0.00
1.49	26.00	28.25	9.25	13.75	0.75	2.75	0.00	0.50	0.00	0.75	0.75	0.75	0.50	0.00	0.00	0.00	-0.270996	0.106934	0.930664	-3.710000	9.730000	-2.240000	857.00	-0.34	-0.06	0.00	0.00	0.00	0.00	0.00	0.00	0.00	0.00	0.00	0.25	0.00	0.00	0.00	0.00	0.00	0.00	0.200195	0.031250	0.865234	11.060000	-144.199997	141.399994	3.00	0.00	0.00
1.50	25.50	27.50	9.00	13.50	1.00	2.75	0.00	0.50	0.00	0.75	0.50	0.75	0.50	0.00	0.00	0.00	-0.272461	0.105469	0.934570	-3.570000	9.520000	-2.520000	839.00	-0.34	-0.06	0.00	0.00	0.00	0.00	0.00	0.00	0.00	0.00	0.00	0.00	0.00	0.00	0.00	0.00	0.00	0.00	0.200195	-0.010254	1.030762	7.560000	-155.750000	120.889999	0.00	0.00	0.00
1.51	25.00	27.00	9.00	13.50	1.00	2.75	0.00	0.75	0.00	0.75	0.75	0.50	0.50	0.00	0.00	0.00	-0.276367	0.104004	0.930176	-3.290000	9.660000	-2.870000	833.00	-0.33	-0.06	0.00	0.25	0.00	0.00	0.00	0.00	0.00	0.00	0.25	0.00	0.00	0.00	0.00	0.00	0.00	0.00	0.180664	0.003906	1.156738	-6.230000	-176.470001	103.459999	6.00	0.00	0.00
1.52	24.75	26.50	9.00	13.25	1.00	2.75	0.00	0.50	0.00	0.75	0.75	0.75	0.50	0.00	0.00	0.00	-0.276367	0.105469	0.931641	-2.520000	9.590000	-2.940000	822.00	-0.33	-0.06	0.00	0.00	0.00	0.00	0.00	0.00	0.00	0.00	0.00	0.00	0.00	0.00	0.00	0.00	0.00	0.00	0.156738	0.066895	1.183594	-22.260000	-203.000000	88.480003	0.00	0.00	0.00
1.53	24.00	26.00	8.75	13.00	1.00	2.75	0.00	0.50	0.00	0.75	0.75	0.75	0.75	0.00	0.00	0.00	-0.282715	0.099609	0.938477	-1.470000	9.380000	-2.800000	807.00	-0.33	-0.06	0.00	0.25	0.00	0.25	0.00	0.00	0.00	0.00	0.00	0.00	0.00	0.00	0.00	0.00	0.00	0.00	0.097656	0.178711	1.144043	-31.150000	-229.949997	76.160004	5.00	0.00	0.00
1.54	24.00	25.50	8.75	12.75	0.75	2.75	0.00	0.75	0.00	0.75	0.75	1.00	0.50	0.00	0.00	0.00	-0.278809	0.105469	0.925293	-0.560000	9.030000	-2.660000	801.00	-0.33	-0.07	0.00	0.25	0.00	0.00	0.00	0.00	0.00	0.00	0.00	0.00	0.00	0.00	0.00	0.00	0.00	0.00	0.017578	0.257812	1.082520	-26.880001	-252.910004	66.849998	2.00	0.00	0.00
1.55	23.25	25.25	8.75	12.75	1.00	3.00	0.00	0.75	0.00	1.00	1.00	1.25	0.75	0.25	0.00	0.00	-0.272949	0.102051	0.921387	-0.420000	9.520000	-2.590000	808.00	-0.32	-0.07	0.00	0.00	0.00	0.00	0.00	0.00	0.00	0.00	0.00	0.00	0.00	0.00	0.00	0.00	0.00	0.00	-0.074219	0.298340	0.992676	-12.600000	-269.709991	59.990002	0.00	0.00	0.00
1.56	22.25	24.25	8.50	12.50	1.00	3.00	0.00	0.75	0.25	1.00	1.00	1.25	0.75	0.25	0.00	0.00	-0.265625	0.106934	0.907227	-0.560000	10.080000	-2.660000	787.00	-0.31	-0.07	0.00	0.00	0.00	0.00	0.00	0.00	0.00	0.00	0.00	0.00	0.00	0.00	0.00	0.00	0.00	0.00	-0.152832	0.313477	0.963379	4.060000	-279.860016	55.299999	0.00	0.00	0.00
1.57	22.50	23.75	8.25	12.25	1.00	3.00	0.00	1.00	0.00	1.25	0.75	1.25	1.00	0.00	0.00	0.00	-0.268555	0.101562	0.907715	-1.470000	11.410000	-3.010000	780.00	-0.32	-0.07	0.00	0.25	0.00	0.00	0.00	0.00	0.00	0.00	0.00	0.00	0.00	0.00	0.00	0.00	0.00	0.00	-0.238770	0.317383	0.961914	17.290001	-284.690002	52.009998	2.00	0.00	0.00
1.58	21.50	23.00	8.50	12.00	1.00	3.25	0.00	1.00	0.00	1.25	1.00	1.25	1.25	0.50	0.25	0.00	-0.270508	0.105469	0.916992	-2.940000	12.880000	-3.360000	777.00	-0.30	-0.07	0.00	0.00	0.00	0.00	0.00	0.00	0.00	0.00	0.00	0.00	0.00	0.00	0.00	0.00	0.00	0.00	-0.311035	0.346191	1.002930	25.760000	-286.579987	50.820000	0.00	0.00	0.00
1.59	20.75	22.00	8.25	11.75	1.00	3.25	0.00	1.25	0.25	1.25	1.25	1.50	1.50	0.50	0.25	0.00	-0.294434	0.102051	0.935547	-5.530000	13.160000	-4.620000	769.00	-0.29	-0.07	0.00	0.25	0.00	0.00	0.00	0.00	0.00	0.00	0.00	0.00	0.00	0.00	0.00	0.00	0.00	0.00	-0.351074	0.370117	1.080078	30.590000	-287.420013	52.290001	2.00	0.00	0.00
1.60	20.50	21.25	8.50	11.50	1.00	3.25	0.25	1.25	0.50	1.25	1.25	1.50	1.50	0.50	0.25	0.00	-0.294434	0.102051	0.935547	-5.530000	13.160000	-4.620000	766.00	-0.29	-0.07	0.00	0.00	0.00	0.00	0.00	0.00	0.00	0.00	0.00	0.00	0.00	0.00	0.00	0.00	0.00	0.00	-0.436523	0.422852	1.269043	36.049999	-291.410004	61.320000	0.00	0.00	0.00
1.61	20.00	20.25	8.25	11.25	1.25	3.25	0.25	1.25	0.50	1.50	1.25	2.00	1.75	0.75	0.50	0.00	-0.288086	0.106934	0.933594	-6.440000	11.620000	-4.760000	764.00	-0.27	-0.07	0.00	0.00	0.00	0.00	0.00	0.00	0.00	0.00	0.00	0.00	0.00	0.00	0.00	0.00	0.00	0.00	-0.436523	0.422852	1.269043	36.049999	-291.410004	61.320000	0.00	0.00	0.00
1.62	19.50	19.50	8.25	10.50	1.25	3.50	0.25	1.50	0.50	1.50	1.50	2.00	2.00	0.75	0.50	0.00	-0.289062	0.100586	0.938965	-5.600000	11.060000	-4.550000	755.00	-0.27	-0.07	0.00	0.00	0.00	0.00	0.00	0.00	0.00	0.00	0.00	0.00	0.00	0.00	0.00	0.00	0.00	0.00	-0.486816	0.447754	1.340332	40.250000	-295.820007	66.849998	0.00	0.00	0.00
1.63	18.50	18.50	8.50	10.50	1.25	3.25	0.25	1.50	0.50	1.75	1.50	2.25	2.00	0.75	0.25	0.25	-0.293457	0.104004	0.927734	-4.830000	10.780000	-4.200000	739.00	-0.26	-0.07	0.00	0.25	0.00	0.00	0.00	0.00	0.00	0.00	0.00	0.00	0.00	0.00	0.00	0.00	0.00	0.00	-0.611816	0.464355	1.451660	55.790001	-304.220001	77.419998	2.00	0.00	0.00
1.64	17.75	18.00	8.25	10.00	1.25	3.50	0.25	1.75	0.75	2.00	1.50	2.25	2.25	1.25	0.50	0.25	-0.280273	0.101562	0.920898	-4.550000	10.920000	-4.200000	740.00	-0.24	-0.08	0.00	0.00	0.00	0.00	0.00	0.00	0.00	0.00	0.00	0.00	0.00	0.00	0.00	0.00	0.00	0.00	-0.666016	0.453613	1.482422	64.889999	-304.850006	82.320000	0.00	0.00	0.00
1.65	17.25	17.00	8.25	9.75	1.50	3.25	0.25	1.75	0.75	2.25	1.75	2.50	2.50	1.25	0.50	0.25	-0.277832	0.098145	0.915039	-5.250000	11.200000	-4.270000	733.00	-0.23	-0.08	0.00	0.00	0.00	0.00	0.00	0.00	0.00	0.00	0.00	0.00	0.00	0.00	0.00	0.00	0.00	0.00	-0.713379	0.434082	1.545898	74.129997	-303.029999	85.889999	0.00	0.00	0.00
1.66	16.25	15.75	8.00	9.50	1.50	3.50	0.25	2.00	0.75	2.50	1.75	2.75	3.00	1.50	0.50	0.25	-0.279785	0.098145	0.917480	-6.790000	12.040000	-4.620000	724.00	-0.22	-0.08	0.00	0.00	0.00	0.00	0.00	0.00	0.00	0.00	0.00	0.00	0.00	0.00	0.00	0.00	0.00	0.00	-0.753418	0.402344	1.625000	83.019997	-299.320007	88.340004	0.00	0.00	0.00
1.67	15.25	14.75	8.00	9.25	1.75	3.50	0.50	2.25	1.25	2.25	2.25	3.50	3.00	1.75	0.50	0.50	-0.274414	0.104004	0.917969	-8.960000	13.720000	-5.250000	733.00	-0.20	-0.08	0.00	0.00	0.00	0.00	0.00	0.00	0.00	0.00	0.00	0.00	0.00	0.00	0.00	0.00	0.00	0.00	-0.799805	0.380859	1.740234	91.419998	-294.839996	89.459999	0.00	0.00	0.00
1.68	14.25	13.50	7.75	8.75	1.75	3.25	0.50	2.25	1.50	2.75	3.00	3.50	3.50	2.00	0.75	0.50	-0.284668	0.102051	0.927734	-10.920000	15.540000	-6.020000	725.00	-0.17	-0.08	0.00	0.00	0.00	0.00	0.00	0.00	0.00	0.00	0.00	0.00	0.00	0.00	0.00	0.00	0.00	0.00	-0.846680	0.355957	1.872070	99.260002	-291.410004	89.739998	0.00	0.00	0.00
1.69	13.25	12.00	7.50	8.50	1.75	3.50	0.75	2.50	1.75	3.25	3.25	4.25	3.75	2.00	0.75	0.50	-0.297363	0.093262	0.921387	-11.970000	16.520000	-6.230000	727.00	-0.15	-0.08	0.00	0.00	0.00	0.00	0.00	0.00	0.00	0.00	0.00	0.00	0.00	0.00	0.00	0.00	0.00	0.00	-0.904785	0.302734	2.014648	106.470001	-289.660004	89.669998	0.00	0.00	0.00
1.70	11.75	10.50	7.25	7.75	1.75	3.75	1.00	2.75	2.25	3.50	3.75	5.00	5.00	2.75	1.00	0.75	-0.293945	0.089355	0.935059	-12.320000	17.570000	-6.230000	741.00	-0.11	-0.09	0.00	0.00	0.00	0.00	0.00	0.00	0.00	0.00	0.00	0.00	0.00	0.00	0.00	0.00	0.00	0.00	-0.962891	0.249023	2.124512	112.489998	-288.679993	88.690002	0.00	0.00	0.00
1.71	10.00	8.75	6.75	7.50	2.00	3.00	1.00	3.25	3.00	4.25	5.00	5.75	5.00	3.25	1.00	0.75	-0.306641	0.092773	0.945801	-11.900000	18.549999	-6.230000	743.00	-0.08	-0.09	0.00	0.00	0.00	0.00	0.00	0.00	0.00	0.00	0.00	0.00	0.00	0.00	0.00	0.00	0.00	0.00	-1.058105	0.197266	2.192383	117.949997	-288.679993	86.379997	0.00	0.00	0.00
1.72	8.75	7.75	6.50	6.75	1.75	3.00	1.25	3.50	3.25	4.25	6.25	6.25	5.50	3.75	1.25	1.00	-0.309570	0.089355	0.939453	-10.570000	18.830000	-6.090000	749.00	-0.05	-0.09	0.00	0.00	0.00	0.00	0.00	0.00	0.00	0.00	0.00	0.00	0.00	0.00	0.00	0.00	0.00	0.00	-1.203613	0.147461	2.252930	124.809998	-287.420013	82.739998	0.00	0.00	0.00
1.73	7.50	6.75	6.00	6.50	1.75	2.75	1.75	3.75	4.00	5.75	7.25	7.25	6.00	4.25	1.25	1.25	-0.311523	0.079102	0.937500	-9.240000	19.180000	-5.810000	784.00	-0.01	-0.09	0.00	0.00	0.00	0.00	0.00	0.00	0.00	0.00	0.00	0.00	0.00	0.00	0.00	0.00	0.00	0.00	-1.443359	0.089355	2.377441	131.180008	-285.950012	78.120003	0.00	0.00	0.00
1.74	6.50	5.75	5.50	5.50	1.75	2.50	2.25	4.00	5.00	7.00	8.00	7.75	6.50	5.00	1.75	1.25	-0.308105	0.091309	0.939941	-8.890000	20.090000	-5.460000	811.00	0.02	-0.08	0.00	0.00	0.00	0.00	0.00	0.00	0.00	0.00	0.00	0.00	0.00	0.00	0.00	0.00	0.00	0.00	-1.650879	0.005859	2.511719	130.270004	-290.010010	72.940002	0.00	0.00	0.00
1.75	5.25	5.25	5.00	5.00	1.50	2.25	2.75	4.25	5.75	7.50	8.50	8.00	6.50	5.25	1.75	1.25	-0.314941	0.087891	0.934570	-9.100000	21.210001	-5.390000	814.00	0.05	-0.08	0.00	0.00	0.00	0.00	0.00	0.00	0.00	0.00	0.00	0.00	0.00	0.00	0.00	0.00	0.00	0.00	-1.869629	-0.066895	2.500000	118.300003	-302.820007	66.639999	0.00	0.00	0.00
1.76	4.25	4.25	4.25	3.75	1.50	1.75	3.25	4.25	6.75	8.50	9.00	8.75	7.00	6.00	1.75	1.50	-0.315430	0.091309	0.939453	-8.750000	23.309999	-5.530000	823.00	0.08	-0.07	0.00	0.00	0.00	0.00	0.00	0.00	0.00	0.00	0.00	0.00	0.00	0.00	0.00	0.00	0.00	0.00	-2.079102	-0.093262	2.184082	100.029999	-317.100006	58.029999	0.00	0.00	0.00
1.77	3.50	3.25	3.50	3.00	1.25	1.50	3.75	4.25	8.00	9.00	9.75	9.25	7.25	6.75	2.25	1.75	-0.321289	0.075684	0.935547	-8.120000	26.530001	-5.950000	841.00	0.11	-0.06	0.00	0.00	0.00	0.00	0.00	0.00	0.00	0.00	0.00	0.00	0.00	0.00	0.00	0.00	0.00	0.00	-2.225586	-0.139648	1.647949	95.480003	-319.619995	49.279999	0.00	0.00	0.00
1.78	2.50	2.50	2.50	2.50	1.25	0.75	4.25	4.25	8.75	9.75	10.25	9.75	7.50	7.50	2.50	1.75	-0.323242	0.096680	0.943359	-6.930000	30.660000	-7.420000	846.00	0.14	-0.05	0.00	0.00	0.00	0.00	0.00	0.00	0.00	0.00	0.00	0.00	0.00	0.00	0.00	0.00	0.00	0.00	-2.452637	-0.314453	1.171875	110.389999	-303.380005	39.689999	0.00	0.00	0.00
1.79	2.25	2.25	2.00	1.50	0.75	0.75	4.75	4.00	9.50	10.25	11.00	10.25	7.50	8.00	2.75	1.75	-0.337891	0.102539	0.949707	-5.950000	34.930000	-9.660000	858.00	0.16	-0.04	0.00	0.00	0.00	0.00	0.00	0.00	0.00	0.00	0.00	0.00	0.00	0.00	0.00	0.00	0.00	0.00	-2.810059	-0.510742	0.725098	137.059998	-272.790009	25.690001	0.00	0.00	0.00
1.80	1.25	1.00	1.50	0.75	0.50	0.75	5.00	3.75	10.50	11.00	11.50	10.50	7.75	8.50	3.00	2.00	-0.310547	0.095703	0.950195	-5.110000	41.580002	-16.309999	859.00	0.18	-0.04	0.00	0.00	0.00	0.00	0.00	0.00	0.00	0.00	0.00	0.00	0.00	0.00	0.00	0.00	0.00	0.00	-3.165039	-0.717773	0.308594	149.800003	-236.110001	4.830000	0.00	0.00	0.00
1.81	0.75	0.75	0.75	0.75	0.50	0.75	5.25	3.50	11.00	11.50	12.00	11.00	7.75	9.00	3.25	2.00	-0.363770	0.084961	0.959961	-0.280000	85.820000	-13.580000	872.00	0.20	-0.03	0.00	0.00	0.00	0.00	0.00	0.00	0.00	0.00	0.00	0.00	0.00	0.00	0.00	0.00	0.00	0.00	-3.771484	-1.180664	-0.276367	136.779999	-156.520004	-23.379999	0.00	0.00	0.00
1.82	0.25	0.50	0.75	0.50	0.50	0.50	5.50	3.25	11.75	12.25	12.25	11.00	7.50	9.50	3.75	2.00	-0.381836	0.071777	0.958496	-0.000000	105.000000	-11.550000	887.00	0.21	-0.03	0.00	0.00	0.00	0.00	0.00	0.00	0.00	0.00	0.00	0.00	0.00	0.00	0.00	0.00	0.00	0.00	-3.771484	-1.180664	-0.276367	136.779999	-156.520004	-23.379999	0.00	0.00	0.00
1.83	0.25	0.25	0.50	0.50	0.25	0.25	5.50	2.75	12.50	12.75	12.25	11.00	7.50	9.75	4.25	2.00	-0.416504	0.062988	0.930664	0.560000	120.750000	-9.660000	891.00	0.22	-0.02	0.00	0.00	0.00	0.00	0.00	0.00	0.00	0.00	0.00	0.00	0.00	0.00	0.00	0.00	0.00	0.00	-3.493164	-1.494141	-0.496094	22.190001	-43.119999	-36.330002	0.00	0.00	0.00
1.84	0.00	0.00	0.75	0.00	0.00	0.00	5.50	2.50	13.00	13.25	12.50	11.25	7.00	10.25	4.50	2.00	-0.426758	0.065918	0.948730	-0.000000	137.410004	-7.350000	894.00	0.23	-0.01	0.00	0.00	0.00	0.00	0.00	0.00	0.00	0.00	0.00	0.00	0.00	0.00	0.00	0.00	0.00	0.00	-3.060059	-1.236328	-0.077148	-75.250000	18.620001	-52.360001	0.00	0.00	0.00
1.85	0.00	0.00	0.25	0.00	0.00	0.00	5.50	2.25	13.75	13.75	12.50	11.00	6.75	10.75	4.75	2.00	-0.431152	0.063477	0.948242	0.070000	155.750000	-6.720000	901.00	0.23	-0.00	0.00	0.00	0.00	0.00	0.00	0.00	0.00	0.00	0.00	0.00	0.00	0.00	0.00	0.00	0.00	0.00	-2.666992	-0.855957	0.544922	-155.750000	67.269997	-65.379997	0.00	0.00	0.00
1.86	0.00	0.00	0.25	0.00	0.00	0.00	5.50	2.00	14.00	14.00	12.50	11.00	6.50	10.75	4.75	2.00	-0.489258	0.087402	0.967773	-1.750000	179.339996	-7.700000	901.00	0.24	0.00	0.00	0.50	0.00	0.50	0.00	0.00	0.00	0.00	0.00	0.00	0.00	0.00	0.00	0.00	0.00	0.00	2.520996	2.682617	4.836426	-217.000000	149.660004	-111.230003	10.00	0.00	0.00
1.87	0.00	0.00	0.25	0.00	0.00	0.00	5.50	1.75	14.25	14.50	12.50	10.75	6.25	11.00	4.75	2.00	-0.522949	0.078125	0.987305	-6.160000	208.880005	-7.910000	903.00	0.24	0.01	0.75	2.00	0.25	1.50	0.00	0.00	0.00	0.00	0.00	0.00	0.00	0.00	0.00	0.00	0.00	0.00	1.986816	0.543945	1.114746	-201.600006	76.160004	-104.230003	45.00	0.00	0.00
1.88	0.00	0.00	0.00	0.00	0.00	0.00	5.25	1.50	14.25	14.25	12.00	10.25	5.75	11.00	5.00	2.00	-0.584961	0.059570	1.043945	-6.720000	231.070007	-7.770000	878.00	0.24	0.01	1.75	4.00	1.00	2.50	0.00	0.00	0.00	0.00	0.00	0.00	0.00	0.00	0.00	0.00	0.00	0.00	0.097656	0.302734	0.063477	-195.509995	62.369999	-99.959999	94.00	-0.36	-0.10
1.89	0.00	0.00	0.00	0.00	0.00	0.00	5.25	1.50	14.00	14.00	11.50	9.75	5.50	11.00	5.00	2.00	-0.593750	0.082031	1.062500	-6.230000	251.300003	-8.470000	859.00	0.24	0.01	3.00	5.25	1.25	3.75	0.00	0.00	0.00	0.00	0.00	0.00	0.00	0.00	0.00	0.00	0.00	0.00	0.006836	0.203125	-0.296875	-260.679993	108.430000	-111.650002	134.00	-0.36	-0.09
1.90	0.00	0.00	0.00	0.00	0.00	0.00	5.00	1.25	13.75	13.50	11.25	9.50	5.25	11.00	5.00	2.00	-0.686523	0.126465	1.227051	-3.080000	268.239990	-9.590000	836.00	0.25	0.02	4.75	7.50	1.50	4.50	0.00	0.00	0.00	0.00	0.00	0.00	0.00	0.00	0.00	0.00	0.00	0.00	-0.130371	1.402344	0.909668	-272.160004	158.690002	-75.949997	184.00	-0.36	-0.09
1.91	0.00	0.00	0.00	0.00	0.00	0.00	4.75	1.00	12.75	13.00	10.25	8.50	4.75	11.00	5.50	2.00	-0.682617	0.105469	1.196777	-0.980000	281.959991	-11.200000	790.00	0.25	0.02	7.75	9.75	2.00	5.25	0.00	0.00	0.00	0.00	0.00	0.00	0.00	0.00	0.00	0.00	0.00	0.00	-0.346191	0.978027	1.341797	-165.059998	179.830002	9.240000	250.00	-0.37	-0.07
1.92	0.00	0.00	0.00	0.00	0.00	0.00	4.25	1.00	11.75	12.00	9.25	7.75	4.50	11.25	5.50	2.00	-0.801270	0.061035	1.232422	7.980000	301.420013	-12.180000	740.00	0.25	0.02	11.00	13.00	2.50	6.00	0.00	0.00	0.00	0.00	0.00	0.00	0.00	0.00	0.00	0.00	0.00	0.00	-0.398926	-0.055664	1.194824	-74.480003	191.169998	66.639999	327.00	-0.37	-0.06
1.93	0.00	0.00	0.00	0.00	0.00	0.00	3.75	0.75	10.50	11.00	7.75	6.50	3.50	11.00	5.50	2.25	-1.104492	0.095215	1.667969	12.810000	324.239990	-14.140000	664.00	0.26	0.03	14.00	15.50	3.25	8.00	0.00	0.00	0.00	0.00	0.00	0.00	0.00	0.00	0.00	0.00	0.00	0.00	-0.228027	-0.779297	1.318848	-64.820000	212.800003	65.660004	412.00	-0.37	-0.06
1.94	0.00	0.00	0.00	0.00	0.00	0.00	3.00	0.75	9.25	10.00	6.50	5.50	2.75	10.75	5.50	2.00	-1.305176	0.147949	1.666992	23.799999	350.350006	-9.590000	592.00	0.26	0.03	16.75	17.75	4.25	9.00	0.00	0.00	0.00	0.00	0.00	0.00	0.00	0.00	0.00	0.00	0.00	0.00	-0.354492	-1.069824	1.944824	-59.220001	219.869995	34.020000	483.00	-0.37	-0.05
1.95	0.00	0.00	0.00	0.00	0.00	0.00	2.50	0.50	8.25	9.00	4.50	4.00	1.75	10.50	5.25	1.75	-1.204590	0.292480	2.363281	38.500000	371.140015	-8.470000	506.00	0.27	0.05	18.75	19.75	5.75	10.00	0.00	0.00	0.00	0.00	0.00	0.00	0.00	0.00	0.00	0.00	0.00	0.00	-0.483887	-0.594727	1.937012	-19.180000	209.440002	3.010000	550.00	-0.37	-0.05
1.96	0.00	0.00	0.00	0.00	0.00	0.00	1.75	0.00	7.50	8.25	3.50	3.75	1.25	10.00	5.00	1.50	-1.129883	0.495117	1.707520	30.520000	394.799988	-21.280001	443.00	0.28	0.06	20.25	21.00	7.00	11.00	0.00	0.00	0.00	0.00	0.00	0.00	0.00	0.00	0.00	0.00	0.00	0.00	-0.480469	0.069336	1.997559	16.170000	195.860001	-12.040000	602.00	-0.37	-0.05
1.97	0.00	0.00	0.00	0.00	0.00	0.00	1.00	0.00	5.50	7.25	2.50	2.25	0.75	9.25	4.25	1.25	-1.169434	0.640137	2.111328	23.730000	420.420013	-48.720001	349.00	0.29	0.07	20.75	21.50	7.50	11.75	0.00	0.00	0.00	0.00	0.00	0.00	0.00	0.00	0.00	0.00	0.00	0.00	-0.414062	0.454590	1.613281	26.880001	173.669998	-9.030000	625.00	-0.37	-0.05
1.98	0.00	0.00	0.00	0.00	0.00	0.00	0.50	0.00	5.00	5.75	1.75	1.75	0.25	8.25	3.75	1.00	-1.700684	0.626465	1.834961	70.419998	437.570007	-84.629997	287.00	0.30	0.08	20.25	21.50	7.75	12.75	0.00	0.50	0.00	0.00	0.00	0.00	0.00	0.00	0.00	0.00	0.00	0.00	-0.284668	0.248535	1.342773	24.780001	155.050003	3.080000	639.00	-0.36	-0.06
1.99	0.00	0.00	0.00	0.00	0.00	0.00	0.25	0.00	3.50	5.25	1.00	2.00	0.25	7.50	3.25	0.75	-1.700684	0.626465	1.834961	70.419998	437.570007	-84.629997	240.00	0.31	0.07	20.00	21.50	8.25	13.00	0.00	0.50	0.00	0.00	0.00	0.00	0.00	0.00	0.00	0.00	0.00	0.00	-0.222656	0.055176	1.099609	12.880000	132.229996	-3.150000	645.00	-0.36	-0.06
2.00	0.00	0.00	0.00	0.00	0.00	0.00	0.00	0.00	3.25	4.50	1.50	2.00	0.00	6.00	2.00	0.25	-1.646484	0.524414	2.479492	87.220001	429.589996	-90.300003	200.00	0.30	0.07	20.00	21.25	8.50	13.75	0.25	1.00	0.00	0.50	0.00	0.00	0.00	0.00	0.00	0.00	0.00	0.00	-0.222656	0.055176	1.099609	12.880000	132.229996	-3.150000	670.00	-0.35	-0.06
2.01	0.00	0.00	0.00	0.00	0.00	0.00	0.00	0.00	2.75	4.00	1.25	1.00	0.00	4.75	1.50	0.00	-1.224121	0.474609	2.599121	88.129997	401.170013	-103.949997	157.00	0.30	0.09	19.75	21.25	9.00	14.25	0.25	1.25	0.00	0.25	0.00	0.00	0.00	0.00	0.50	0.00	0.00	0.00	-0.235840	0.280273	1.036133	8.680000	127.050003	-6.510000	681.00	-0.35	-0.06
2.02	0.00	0.00	0.00	0.00	0.00	0.00	0.00	0.00	2.00	3.50	1.25	1.25	0.00	2.75	0.75	0.00	-0.225586	0.318359	1.905762	66.150002	317.799988	-132.369995	120.00	0.28	0.06	19.25	21.00	9.50	14.75	0.25	2.00	0.00	0.25	0.00	0.00	0.00	0.25	0.25	0.00	0.00	0.00	-0.315918	0.160156	1.199219	0.910000	123.270004	-3.360000	693.00	-0.34	-0.07
2.03	0.00	0.00	0.00	0.00	0.00	0.00	0.00	0.00	1.50	2.25	1.00	1.00	0.25	0.75	0.00	0.00	0.671875	0.426270	2.291992	62.790001	251.300003	-137.270004	73.00	0.25	0.04	19.00	21.00	9.75	14.75	0.50	2.25	0.00	0.25	0.00	0.00	0.25	0.75	1.25	0.00	0.00	0.00	-0.213379	-0.021484	1.076660	-46.689999	56.279999	2.660000	716.00	-0.33	-0.07
2.04	0.00	0.00	0.00	0.00	0.00	0.00	0.00	0.00	0.75	2.00	0.25	0.50	0.00	0.75	0.25	0.00	0.778320	0.271484	0.743164	41.230000	196.350006	-146.509995	48.00	0.00	0.00	18.75	20.50	10.00	15.00	0.50	2.75	0.00	0.25	0.00	0.00	0.25	0.75	1.00	0.00	0.00	0.00	-0.224121	0.152832	0.997559	-44.310001	38.430000	-0.630000	717.00	-0.33	-0.07
2.05	0.00	0.00	0.00	0.00	0.00	0.00	0.00	0.00	0.25	2.50	0.25	0.25	0.00	0.25	0.00	0.00	-0.071777	0.927246	3.223633	18.690001	119.699997	-132.509995	37.00	0.00	0.00	18.75	20.25	10.25	15.00	0.75	2.75	0.00	0.50	0.00	0.00	0.50	0.75	1.25	0.00	0.00	0.00	-0.261230	0.136230	1.032715	-45.290001	30.170000	-0.700000	729.00	-0.32	-0.08
2.06	0.25	0.50	0.00	0.00	0.00	0.00	0.00	0.00	0.50	1.75	0.50	0.00	0.00	0.50	0.00	0.00	0.874512	0.722168	2.121582	24.570000	7.350000	-104.720001	41.00	0.00	0.00	18.50	20.00	10.25	14.75	1.00	2.50	0.00	0.50	0.00	0.50	0.75	0.75	1.25	0.00	0.00	0.00	-0.270020	0.077637	1.050781	-36.820000	20.580000	-0.420000	729.00	-0.32	-0.07
2.07	0.00	0.00	0.00	0.00	0.00	0.00	0.00	0.00	0.50	1.50	0.25	0.25	0.00	0.25	0.00	0.00	0.723633	0.519043	1.808105	3.990000	-82.320000	-67.690002	30.00	0.00	0.00	18.00	19.50	10.50	14.75	0.75	3.00	0.00	0.50	0.00	0.50	0.75	0.75	1.50	0.00	0.00	0.00	-0.212402	0.117676	0.967285	-26.600000	13.790000	-0.350000	727.00	-0.31	-0.08
2.08	0.00	0.00	0.00	0.00	0.00	0.00	0.00	0.00	0.25	1.50	0.00	0.00	0.00	0.25	0.00	0.00	0.546875	0.426758	1.355469	-29.750000	-130.199997	-31.780001	21.00	0.00	0.00	17.75	19.00	10.25	14.50	1.00	3.25	0.00	0.75	0.25	0.50	1.00	0.75	1.75	0.00	0.25	0.00	-0.233398	0.103516	0.981934	-21.210001	11.060000	-0.000000	734.00	-0.30	-0.08
2.09	0.00	0.00	0.00	0.00	0.00	0.00	0.00	0.00	0.00	1.00	0.25	0.25	0.00	0.00	0.00	0.00	0.524414	0.397949	0.940918	-51.520000	-149.449997	-2.310000	16.00	0.00	0.00	17.00	18.25	10.50	14.50	1.00	4.00	0.25	1.00	0.25	0.75	1.25	1.25	2.25	0.50	0.00	0.00	-0.254395	0.120117	1.002930	-15.190001	8.470000	0.280000	755.00	-0.28	-0.08
2.10	0.00	0.00	0.00	0.00	0.00	0.00	0.00	0.00	0.25	1.00	0.00	0.00	0.00	0.00	0.00	0.00	0.475098	0.350098	0.708984	-61.529999	-153.580002	19.320000	14.00	0.00	0.00	16.25	17.75	10.25	14.00	1.25	3.50	0.00	1.00	0.25	0.75	1.50	1.00	2.25	0.75	0.25	0.25	-0.240234	0.147461	0.971680	-8.890000	6.790000	1.050000	734.00	-0.28	-0.08
2.11	0.00	0.00	0.00	0.00	0.00	0.00	0.00	0.00	0.75	1.00	0.00	0.00	0.00	0.00	0.00	0.00	0.436035	0.306152	0.618652	-59.920002	-151.759995	33.670002	20.00	0.00	0.00	15.25	17.00	9.75	13.75	1.00	3.50	0.25	1.00	0.25	1.00	1.75	1.25	2.75	0.75	0.25	0.75	-0.237305	0.135742	0.956543	-5.390000	6.580000	1.330000	724.00	-0.26	-0.09
2.12	0.00	0.00	0.00	0.00	0.00	0.00	0.00	0.00	0.00	1.00	0.00	0.00	0.00	0.00	0.00	0.00	0.418457	0.246582	0.611328	-50.540001	-150.360001	41.580002	10.00	0.00	0.00	14.00	16.50	9.75	13.50	1.00	4.25	0.25	1.25	0.75	1.00	1.75	1.50	3.00	1.25	0.00	0.75	-0.229492	0.140137	0.934570	-2.730000	6.580000	1.610000	729.00	-0.25	-0.09
2.13	0.00	0.00	0.00	0.00	0.00	0.00	0.00	0.00	0.00	1.00	0.00	0.00	0.00	0.00	0.00	0.00	0.394531	0.175781	0.682617	-41.020000	-152.880005	44.310001	10.00	0.00	0.00	13.25	15.50	9.50	13.00	1.25	3.75	0.25	1.25	0.75	1.25	1.50	1.50	3.50	1.25	0.25	1.00	-0.254395	0.138184	0.974121	-0.980000	5.880000	1.680000	709.00	-0.24	-0.09
2.14	0.25	0.00	0.00	0.00	0.00	0.00	0.00	0.00	0.25	1.25	0.00	0.00	0.00	0.00	0.00	0.00	0.355957	0.111816	0.823242	-35.420002	-161.139999	43.400002	19.00	0.00	0.00	12.00	15.00	9.25	12.75	1.25	3.75	0.25	1.25	0.25	1.25	1.50	2.00	3.50	1.50	0.25	1.00	-0.244141	0.063477	0.971191	0.350000	5.460000	1.750000	687.00	-0.23	-0.10
2.15	0.00	0.00	0.00	0.00	0.00	0.00	0.00	0.00	0.00	1.00	0.00	0.25	0.00	0.25	0.00	0.00	0.305664	0.069336	0.966797	-35.349998	-177.100006	40.389999	15.00	0.00	0.00	11.00	14.25	8.75	12.25	1.25	3.75	0.25	1.50	0.75	1.25	1.75	1.75	3.75	1.50	0.25	1.00	-0.241211	0.110352	0.951660	0.980000	5.390000	1.610000	671.00	-0.22	-0.10
2.16	0.00	0.00	0.00	0.00	0.00	0.00	0.00	0.00	0.00	1.00	0.00	0.00	0.00	0.00	0.00	0.00	0.231934	0.070801	1.061523	-40.389999	-198.800003	36.540001	10.00	0.00	0.00	10.00	13.25	8.50	12.00	1.25	4.00	0.25	1.75	1.00	1.25	2.00	2.00	3.75	1.75	0.50	1.75	-0.241211	0.120605	0.958984	1.120000	5.460000	1.260000	670.00	-0.20	-0.11
2.17	0.00	0.00	0.00	0.00	0.00	0.00	0.00	0.00	0.00	0.75	0.00	0.00	0.00	0.00	0.00	0.00	0.153320	0.109863	1.148438	-47.529999	-223.089996	32.970001	8.00	0.00	0.00	9.00	12.25	8.00	11.75	1.25	3.75	0.25	1.75	1.00	1.50	2.25	2.25	4.25	2.00	0.50	1.50	-0.232910	0.126953	0.931641	0.770000	5.810000	0.840000	652.00	-0.18	-0.11
2.18	0.00	0.00	0.00	0.00	0.00	0.00	0.00	0.00	0.00	0.25	0.00	0.00	0.00	0.00	0.00	0.00	0.048828	0.160645	1.181152	-53.340000	-247.660004	29.610001	3.00	0.00	0.00	8.25	11.50	7.75	11.00	1.25	3.00	0.25	1.50	1.25	1.75	2.25	2.50	4.25	1.75	0.50	1.75	-0.247559	0.109863	0.955566	-0.000000	6.230000	0.420000	622.00	-0.17	-0.11
2.19	0.00	0.00	0.00	0.00	0.00	0.00	0.00	0.00	0.00	0.50	0.00	0.00	0.00	0.00	0.00	0.00	-0.042969	0.226562	1.193359	-56.139999	-271.600006	26.180000	5.00	0.00	0.00	7.75	10.50	7.50	10.50	1.50	3.50	0.25	2.00	1.00	1.75	2.25	2.25	5.00	2.00	0.50	2.00	-0.249023	0.117188	0.950195	-0.980000	6.370000	0.280000	620.00	-0.16	-0.12
2.20	0.25	0.00	0.00	0.00	0.00	0.00	0.00	0.00	0.50	1.00	0.00	0.00	0.00	0.00	0.00	0.00	-0.153809	0.281738	1.166016	-54.599998	-291.829987	22.750000	20.00	0.00	0.00	7.00	10.00	7.00	10.25	1.25	3.50	0.25	2.25	1.50	2.00	2.50	2.50	5.00	2.25	0.75	2.25	-0.249512	0.106934	0.970703	-2.170000	6.790000	0.210000	621.00	-0.14	-0.12
2.21	0.00	0.00	0.00	0.00	0.00	0.00	0.00	0.00	0.00	0.50	0.00	0.00	0.00	0.00	0.00	0.00	-0.260742	0.337402	1.129395	-50.470001	-306.600006	20.230000	5.00	0.00	0.00	6.50	9.00	6.75	9.75	1.00	3.75	0.25	2.25	1.75	2.00	3.00	3.25	5.00	2.25	0.75	2.50	-0.248047	0.105469	0.971191	-3.220000	7.630000	0.210000	616.00	-0.12	-0.12
2.22	0.00	0.00	0.00	0.00	0.00	0.00	0.00	0.00	0.00	0.50	0.00	0.00	0.00	0.00	0.00	0.00	-0.354980	0.387207	1.143555	-44.799999	-316.190002	18.760000	5.00	0.00	0.00	6.00	8.50	6.25	9.25	1.25	3.25	0.25	2.50	1.50	2.25	3.25	3.00	5.25	2.50	1.00	2.50	-0.248047	0.105469	0.971191	-3.220000	7.630000	0.210000	602.00	-0.10	-0.12
2.23	0.00	0.00	0.00	0.00	0.00	0.00	0.00	0.00	0.25	0.25	0.00	0.00	0.00	0.00	0.00	0.00	-0.428223	0.416992	1.171387	-39.270000	-322.910004	18.760000	6.00	0.00	0.00	5.25	7.75	5.75	8.75	1.25	3.00	0.25	2.50	2.00	2.25	3.25	3.75	5.50	2.75	1.00	2.50	-0.247559	0.113770	0.941895	-4.200000	7.770000	-0.700000	592.00	-0.08	-0.12
2.24	0.00	0.25	0.00	0.00	0.00	0.00	0.00	0.00	0.00	0.25	0.00	0.00	0.00	0.00	0.00	0.00	-0.556641	0.483887	1.340820	-28.350000	-331.730011	25.760000	5.00	0.00	0.00	5.00	7.50	5.50	8.50	1.25	3.25	0.25	2.50	2.25	2.50	4.00	3.50	5.75	2.75	1.00	2.75	-0.265137	0.120117	0.952637	-3.570000	7.560000	-0.910000	599.00	-0.07	-0.12
2.25	0.00	0.00	0.00	0.00	0.00	0.00	0.00	0.00	0.00	0.25	0.00	0.00	0.00	0.00	0.00	0.00	-0.608398	0.502930	1.390137	-23.660000	-335.510010	30.940001	3.00	0.00	0.00	4.25	6.75	5.00	8.00	1.25	2.75	0.50	2.75	2.50	2.75	4.00	4.00	6.00	3.00	0.75	3.00	-0.262695	0.105469	0.945801	-2.800000	7.490000	-0.910000	590.00	-0.05	-0.13
2.26	0.00	0.00	0.00	0.00	0.00	0.00	0.00	0.00	0.00	0.50	0.00	0.00	0.00	0.00	0.00	0.00	-0.664062	0.437012	1.457031	-20.790001	-340.130005	38.290001	5.00	0.00	0.00	3.50	6.25	5.00	7.75	1.00	2.25	0.50	2.75	2.50	3.00	4.50	4.25	6.25	3.50	1.00	3.00	-0.263184	0.126465	0.957520	-1.820000	7.350000	-0.770000	586.00	-0.03	-0.13
2.27	0.00	0.00	0.00	0.00	0.00	0.00	0.00	0.00	0.00	0.00	0.00	0.00	0.00	0.00	0.00	0.00	-0.702637	0.577148	1.621582	-16.030001	-343.700012	45.360001	0.00	0.00	0.00	3.25	5.50	4.50	7.50	1.00	2.00	0.50	3.00	2.75	3.25	5.00	4.75	7.00	3.75	1.00	3.50	-0.262207	0.113281	0.950684	-0.980000	7.210000	-0.490000	597.00	-0.00	-0.13
2.28	0.00	0.00	0.00	0.00	0.00	0.00	0.00	0.00	0.00	0.00	0.00	0.00	0.00	0.00	0.00	0.00	-0.724121	0.607422	1.785645	-3.640000	-352.100006	51.799999	0.00	0.00	0.00	2.25	5.25	3.75	7.00	1.00	2.00	0.50	3.00	3.00	3.50	6.00	5.50	7.25	4.25	1.50	4.00	-0.265137	0.106445	0.943359	0.210000	6.650000	-0.420000	609.00	0.03	-0.14
2.29	0.00	0.00	0.00	0.00	0.00	0.00	0.00	0.00	0.25	0.25	0.00	0.00	0.00	0.00	0.00	0.00	-0.804199	0.612793	1.952148	10.290000	-362.880005	57.750000	6.00	0.00	0.00	2.25	4.75	3.25	6.25	0.75	1.75	0.50	3.25	3.25	3.75	7.25	6.25	7.50	4.25	1.50	4.25	-0.268066	0.122070	0.940918	1.610000	6.440000	-0.280000	620.00	0.05	-0.14
2.30	0.00	0.00	0.00	0.00	0.00	0.00	0.00	0.00	0.00	0.25	0.00	0.00	0.00	0.00	0.00	0.00	-0.868652	0.595215	2.081055	20.790001	-374.010010	63.630001	3.00	0.00	0.00	2.00	3.75	2.75	5.75	1.00	1.00	0.50	3.50	3.75	3.75	7.50	6.75	8.00	4.75	1.50	4.75	-0.274414	0.107910	0.948730	1.820000	7.140000	-0.140000	621.00	0.08	-0.14
2.31	0.00	0.00	0.00	0.00	0.00	0.00	0.00	0.00	0.00	0.00	0.00	0.00	0.00	0.00	0.00	0.00	-0.949707	0.587402	2.187988	27.299999	-382.970001	68.040001	0.00	0.00	0.00	1.50	3.25	2.75	5.25	0.75	1.25	0.50	4.00	4.50	4.50	8.25	7.75	8.25	5.25	1.75	5.00	-0.269043	0.123047	0.953125	1.610000	8.190000	-0.560000	660.00	0.10	-0.13
2.32	0.00	0.00	0.00	0.00	0.00	0.00	0.00	0.00	0.00	0.00	0.00	0.00	0.00	0.00	0.00	0.00	-1.036621	0.580078	2.317871	33.110001	-388.429993	69.510002	0.00	0.00	0.00	1.75	2.75	2.25	4.75	0.75	1.00	0.75	3.50	4.75	5.00	8.50	8.00	8.50	5.75	2.00	5.25	-0.263184	0.132812	0.951660	-0.560000	10.430000	-1.540000	664.00	0.11	-0.13
2.33	0.00	0.00	0.00	0.00	0.00	0.00	0.00	0.00	0.00	0.25	0.00	0.00	0.00	0.00	0.00	0.00	-1.157227	0.588867	2.453125	41.090000	-390.250000	66.919998	3.00	0.00	0.00	1.00	2.00	2.00	4.00	0.50	1.75	0.75	4.00	5.75	6.50	9.00	8.50	8.75	6.50	2.50	6.00	-0.277832	0.108887	0.943359	-3.010000	12.880000	-2.870000	709.00	0.14	-0.12
2.34	0.00	0.00	0.00	0.00	0.00	0.00	0.00	0.00	0.00	0.25	0.00	0.00	0.00	0.00	0.00	0.00	-1.354980	0.625977	2.633301	51.170002	-389.549988	60.130001	3.00	0.00	0.00	0.50	1.25	1.50	2.75	0.50	0.25	0.75	3.75	6.25	7.25	9.50	8.75	9.00	7.50	2.50	6.25	-0.265625	0.118652	0.957520	-4.690000	15.190001	-4.270000	692.00	0.18	-0.11
2.35	0.00	0.00	0.00	0.00	0.00	0.00	0.00	0.00	0.00	0.00	0.00	0.00	0.00	0.00	0.00	0.00	-1.603516	0.712402	2.787109	61.740002	-386.679993	50.400002	0.00	0.00	0.00	0.50	1.75	1.00	2.50	0.25	0.50	1.00	3.75	7.50	8.00	10.00	9.25	9.25	8.25	2.75	6.50	-0.271484	0.129395	0.911133	-5.320000	18.690001	-5.250000	739.00	0.18	-0.10
2.36	0.00	0.00	0.00	0.00	0.00	0.00	0.00	0.00	0.00	0.00	0.00	0.00	0.00	0.00	0.00	0.00	-1.958984	0.758789	2.603516	78.120003	-382.549988	40.670002	0.00	0.00	0.00	0.00	1.00	1.00	1.25	0.00	0.75	1.00	3.50	8.00	8.75	10.50	9.50	9.25	9.00	3.25	7.00	-0.291016	0.108398	0.953613	-5.320000	21.350000	-5.670000	746.00	0.21	-0.09
2.37	0.00	0.00	0.00	0.00	0.00	0.00	0.00	0.00	0.00	0.00	0.00	0.00	0.00	0.00	0.00	0.00	-2.178711	0.577637	2.599609	128.029999	-379.890015	34.509998	0.00	0.00	0.00	0.00	0.25	0.50	1.25	0.00	0.00	1.25	3.50	8.75	9.25	10.75	10.00	9.50	9.75	3.75	7.25	-0.282715	0.095215	0.946289	-4.060000	24.500000	-6.090000	767.00	0.23	-0.08
2.38	0.00	0.25	0.00	0.00	0.00	0.00	0.00	0.00	0.25	0.00	0.00	0.00	0.00	0.00	0.00	0.00	-2.598145	0.430664	2.445801	189.770004	-372.470001	28.420000	6.00	0.00	0.00	0.00	0.25	0.25	0.25	0.00	0.50	1.25	3.25	9.50	9.50	11.25	10.25	9.50	10.50	4.00	7.50	-0.288574	0.104492	0.995605	5.320000	33.740002	-8.680000	786.00	0.24	-0.08
2.39	0.00	0.00	0.00	0.00	0.00	0.00	0.00	0.00	0.00	0.00	0.00	0.00	0.00	0.00	0.00	0.00	-2.752930	0.128906	1.970703	235.059998	-352.730011	23.590000	0.00	0.00	0.00	0.00	0.25	0.00	0.50	0.00	0.00	1.25	3.00	10.00	10.00	11.50	10.50	9.50	11.75	5.00	7.75	-0.269531	0.119141	1.040039	2.100000	50.049999	-5.040000	816.00	0.24	-0.07
2.40	0.00	0.00	0.00	0.00	0.00	0.00	0.00	0.00	0.00	0.25	0.00	0.00	0.00	0.00	0.00	0.00	-3.071289	-0.307617	1.620605	277.829987	-329.070007	23.450001	3.00	0.00	0.00	0.00	0.00	0.00	0.50	0.00	0.00	1.25	2.75	10.50	10.25	11.75	10.75	9.50	12.50	5.00	8.00	-0.351074	0.144531	0.939941	4.970000	64.820000	-4.200000	832.00	0.25	-0.06
2.41	0.00	0.00	0.00	0.00	0.00	0.00	0.00	0.00	0.00	0.00	0.00	0.00	0.00	0.00	0.00	0.00	-3.512207	-0.864258	1.143066	312.690002	-300.369995	27.370001	0.00	0.00	0.00	0.00	0.00	0.00	0.25	0.00	0.00	1.25	2.50	11.25	10.50	11.75	10.75	9.50	13.50	5.75	8.25	-0.303223	0.171875	1.015625	7.140000	75.949997	-3.430000	856.00	0.25	-0.06
2.42	0.00	0.00	0.00	0.00	0.00	0.00	0.00	0.00	0.00	0.25	0.00	0.00	0.00	0.00	0.00	0.00	-4.105469	-1.442871	0.480957	288.820007	-262.079987	27.510000	3.00	0.00	0.00	0.00	0.00	0.00	0.00	0.00	0.00	1.25	2.25	11.75	10.75	12.00	11.00	9.50	14.25	6.00	8.25	-0.354980	0.125977	0.980957	6.510000	106.260002	-2.800000	872.00	0.26	-0.05
2.43	0.00	0.00	0.00	0.00	0.00	0.00	0.00	0.00	0.00	0.00	0.00	0.00	0.00	0.00	0.00	0.00	-4.833008	-1.731445	-0.502930	193.199997	-212.100006	10.710000	0.00	0.00	0.00	0.00	0.00	0.00	0.00	0.00	0.00	1.25	1.75	12.00	10.75	12.00	11.25	9.50	15.00	6.00	8.50	-0.377441	0.114746	0.979004	5.810000	123.900002	-3.850000	878.00	0.26	-0.05
2.44	0.00	0.00	0.00	0.00	0.00	0.00	0.00	0.00	0.00	0.00	0.00	0.00	0.00	0.00	0.00	0.00	-5.318848	-1.606934	-1.089844	82.669998	-148.680008	-19.040001	0.00	0.00	0.00	0.00	0.00	0.00	0.00	0.00	0.00	1.25	1.50	12.25	11.00	12.00	11.25	9.25	15.75	6.25	8.75	-0.398438	0.119141	0.985352	6.370000	143.360001	-3.850000	889.00	0.27	-0.04
2.45	0.00	0.00	0.00	0.00	0.00	0.00	0.00	0.00	0.00	0.00	0.00	0.00	0.00	0.00	0.00	0.00	-3.981934	-0.922363	-0.195801	-45.639999	4.200000	-81.199997	0.00	0.00	0.00	0.00	0.00	0.00	0.00	0.00	0.00	1.25	1.00	12.25	11.25	12.00	11.25	9.00	16.25	6.25	8.50	-0.429688	0.124512	1.003418	7.910000	163.589996	-3.570000	884.00	0.27	-0.03
2.46	0.00	0.00	0.00	0.00	0.00	0.00	0.00	0.00	0.00	0.25	0.00	0.00	0.00	0.00	0.00	0.00	-2.933594	-2.437012	-1.112305	-130.759995	12.320000	-77.209999	3.00	0.00	0.00	0.00	0.00	0.00	0.00	0.00	0.00	1.00	1.00	12.25	11.25	12.00	11.25	8.75	17.00	6.50	8.75	-0.448242	0.108398	1.024902	11.620000	184.449997	-3.150000	889.00	0.27	-0.03
2.47	1.25	2.00	0.50	0.75	0.00	0.00	0.00	0.00	0.00	0.00	0.00	0.00	0.00	0.00	0.00	0.00	2.696289	-0.209473	-0.024414	-223.369995	139.720001	-29.120001	45.00	0.00	0.00	0.00	0.00	0.00	0.00	0.00	0.00	1.00	1.00	12.00	11.00	11.75	11.00	8.50	17.50	6.75	8.75	-0.537598	0.120605	1.087402	15.680000	206.080002	-3.780000	882.00	0.27	-0.03
2.48	2.75	4.50	0.75	1.25	0.00	0.00	0.00	0.00	0.00	0.00	0.00	0.00	0.00	0.00	0.00	0.00	0.847168	0.807617	1.159180	-245.210007	167.160004	-3.080000	92.00	-0.38	-0.07	0.00	0.00	0.00	0.00	0.00	0.00	1.00	1.00	11.50	11.00	11.50	11.00	8.00	18.00	7.00	8.75	-0.578125	0.152832	1.164551	17.780001	230.580002	-5.110000	876.00	0.27	-0.03
2.49	6.25	8.50	1.00	2.25	0.00	0.00	0.00	0.00	0.00	0.00	0.00	0.00	0.00	0.00	0.00	0.00	0.123047	-0.326660	-0.408691	-216.860001	177.240005	21.770000	179.00	-0.38	-0.06	0.00	0.00	0.00	0.00	0.00	0.00	1.00	1.00	10.50	10.50	11.00	10.50	7.75	18.50	7.00	9.00	-0.656738	0.210449	1.291992	18.270000	258.089996	-9.100000	850.00	0.28	-0.03
2.50	9.25	13.75	1.25	3.25	0.00	0.00	0.00	0.00	0.00	0.00	0.00	0.00	0.00	0.00	0.00	0.00	-0.625977	-0.211426	0.591797	-186.270004	241.919998	42.910000	272.00	-0.39	-0.06	0.00	0.00	0.00	0.00	0.00	0.00	1.00	1.00	9.25	10.00	10.25	9.75	7.50	18.50	7.00	9.00	-0.726562	0.290039	1.492676	17.990000	283.149994	-15.610000	811.00	0.28	-0.04
2.51	14.75	19.50	1.75	4.50	0.00	0.00	0.00	0.00	0.00	0.00	0.00	0.00	0.00	0.00	0.00	0.00	-0.637207	-0.666016	1.667969	-89.040001	306.459991	65.449997	401.00	-0.39	-0.06	0.00	0.00	0.00	0.00	0.00	0.00	1.00	1.00	8.25	9.00	9.25	8.75	6.50	18.50	7.50	9.25	-0.826172	0.130371	1.395020	10.990000	312.549988	-22.400000	764.00	0.28	-0.03
2.52	19.25	24.50	2.50	5.00	0.00	0.00	0.00	0.00	0.00	0.00	0.00	0.00	0.00	0.00	0.00	0.00	-0.922852	-1.270508	2.609375	-5.740000	308.420013	60.970001	508.00	-0.39	-0.05	0.00	0.00	0.00	0.00	0.00	0.00	1.00	0.75	7.50	8.00	8.00	7.75	5.75	18.50	7.25	9.00	-1.193848	0.202148	1.701660	15.960000	346.570007	-22.260000	706.00	0.29	-0.03
2.53	23.00	28.50	2.75	7.00	0.00	0.00	0.00	0.00	0.00	0.00	0.00	0.25	0.00	0.00	0.00	0.00	-0.837891	-1.256348	2.454590	28.700001	281.399994	19.600000	611.00	-0.38	-0.05	0.00	0.00	0.00	0.00	0.00	0.00	0.75	0.50	6.00	7.25	6.50	6.50	5.00	18.25	7.00	8.50	-1.490723	0.398926	2.399902	26.950001	380.309998	-18.969999	628.00	0.30	-0.02
2.54	26.00	31.25	3.50	8.00	0.00	0.00	0.00	0.00	0.00	0.00	0.00	0.00	0.00	0.00	0.00	0.00	-0.620117	-0.083984	2.242676	34.090000	254.029999	-24.850000	684.00	-0.39	-0.05	0.00	0.00	0.00	0.00	0.00	0.00	0.50	0.00	5.00	5.75	4.75	5.00	3.75	17.25	6.50	7.75	-1.176758	0.350098	2.850586	27.510000	406.980011	-31.010000	525.00	0.31	-0.01
2.55	27.00	32.50	4.00	8.75	0.00	0.00	0.00	0.00	0.00	0.00	0.00	0.00	0.00	0.00	0.00	0.00	-0.415527	1.122559	1.895020	33.950001	223.020004	-27.160000	719.00	-0.38	-0.05	0.00	0.00	0.00	0.00	0.00	0.00	0.50	0.00	3.50	4.75	3.50	3.50	2.50	15.75	5.75	6.50	-1.274902	0.703613	2.338379	14.770000	440.299988	-54.040001	428.00	0.32	0.00
2.56	27.75	33.25	5.75	9.50	0.00	0.00	0.00	0.25	0.00	0.00	0.00	0.00	0.00	0.00	0.00	0.00	-0.379395	0.905273	1.440430	22.120001	199.919998	4.550000	765.00	-0.38	-0.05	0.00	0.00	0.00	0.00	0.00	0.00	0.00	0.00	2.00	3.50	2.75	2.75	1.50	13.75	4.75	5.75	-1.476562	0.554199	2.587891	7.490000	472.290009	-83.580002	332.00	0.33	-0.00
2.57	27.50	33.00	5.75	10.75	0.25	0.25	0.00	0.00	0.00	0.00	0.00	0.00	0.00	0.00	0.00	0.00	-0.280762	-0.099609	1.325195	11.550000	187.460007	24.150000	776.00	-0.38	-0.05	0.00	0.00	0.00	0.00	0.00	0.00	0.00	0.00	1.50	2.50	1.75	2.00	1.25	11.75	4.25	5.25	-0.875488	0.863770	3.005371	9.940000	498.049988	-103.809998	269.00	0.34	-0.00
2.58	28.25	33.50	6.75	11.75	0.25	0.50	0.00	0.00	0.00	0.00	0.00	0.00	0.00	0.00	0.00	0.00	-0.294434	-0.468262	1.245117	8.400000	175.839996	10.500000	813.00	-0.37	-0.05	0.00	0.00	0.00	0.00	0.00	0.00	0.00	0.00	1.25	2.00	1.75	1.50	0.75	10.00	3.00	4.50	-1.576660	0.818848	2.611328	10.010000	517.720032	-119.980003	219.00	0.34	0.00
2.59	28.00	33.25	7.00	13.25	0.25	0.50	0.00	0.00	0.00	0.00	0.00	0.25	0.00	0.00	0.00	0.00	-0.256348	0.081055	1.110840	8.820000	165.059998	-12.040000	830.00	-0.37	-0.06	0.00	0.00	0.00	0.00	0.00	0.00	0.00	0.00	1.00	2.00	1.50	1.50	0.50	8.00	2.25	3.25	-1.465820	1.162109	2.539551	8.050000	522.340027	-134.399994	179.00	0.34	0.01
2.60	28.75	33.00	7.75	13.75	0.50	1.00	0.00	0.25	0.00	0.00	0.00	0.00	0.00	0.00	0.00	0.00	-0.270508	0.509766	1.017090	5.880000	159.529999	-13.300000	859.00	-0.37	-0.06	0.00	0.00	0.00	0.00	0.00	0.00	0.00	0.00	0.50	1.75	1.75	1.25	0.75	6.25	1.50	1.75	-0.507812	0.830566	2.109863	-7.350000	432.179993	-155.470001	141.00	0.32	-0.01
2.61	29.25	33.00	8.50	15.00	0.50	1.75	0.00	0.25	0.00	0.00	0.00	0.00	0.00	0.00	0.00	0.00	-0.299805	0.229980	1.061523	-1.680000	157.570007	-2.520000	894.00	-0.36	-0.06	0.00	0.00	0.00	0.00	0.00	0.00	0.00	0.00	0.25	1.00	1.25	1.00	0.25	3.75	1.25	0.75	-0.507812	0.830566	2.109863	-7.350000	432.179993	-155.470001	89.00	0.33	-0.01
2.62	29.00	32.25	8.75	15.25	0.75	2.00	0.00	0.75	0.00	0.00	0.00	0.50	0.00	0.00	0.00	0.00	-0.406738	0.533203	1.233887	-55.930000	124.879997	-6.370000	909.00	-0.35	-0.06	0.00	0.00	0.00	0.00	0.00	0.00	0.00	0.00	0.00	0.50	0.75	0.50	0.25	1.50	0.50	0.25	1.559082	0.961914	2.398438	37.869999	236.600006	-157.289993	40.00	0.00	0.00
2.63	28.75	31.75	9.00	15.50	0.75	2.50	0.00	0.50	0.00	0.25	0.25	0.25	0.25	0.00	0.00	0.00	-0.360352	0.115723	1.082031	-53.900002	99.400002	-5.600000	913.00	-0.35	-0.06	0.00	0.50	0.00	0.50	0.00	0.00	0.00	0.00	0.00	0.50	0.50	0.25	0.00	0.75	0.50	0.00	0.002930	1.218750	2.598633	62.160000	190.119995	-152.180008	35.00	0.00	0.00
2.64	28.00	30.75	9.25	15.00	1.00	2.50	0.00	0.50	0.00	0.75	0.75	0.75	0.50	0.00	0.00	0.00	-0.227051	0.150391	0.968262	-59.709999	97.300003	-5.530000	914.00	-0.34	-0.06	0.00	0.25	0.00	0.00	0.00	0.00	0.00	0.00	0.00	0.25	0.50	0.00	0.00	0.75	0.25	0.00	0.916992	0.794922	2.849121	86.309998	47.599998	-125.930000	19.00	0.00	0.00
2.65	27.25	29.75	9.50	14.75	1.00	2.50	0.00	0.75	0.00	1.00	1.00	0.75	0.50	0.25	0.00	0.00	-0.316406	0.113770	1.089844	-68.320000	85.610001	-6.580000	909.00	-0.33	-0.06	0.00	0.00	0.00	0.00	0.00	0.00	0.00	0.00	0.00	0.25	0.25	0.00	0.00	0.50	0.25	0.00	1.161133	0.595215	2.278809	59.150002	-78.610001	-86.239998	12.00	0.00	0.00
2.66	26.50	29.00	9.50	14.50	1.00	2.75	0.25	0.75	0.25	1.25	1.00	1.25	0.75	0.25	0.00	0.00	-0.294922	0.108398	0.994141	-43.470001	41.650002	-8.260000	911.00	-0.32	-0.06	0.00	0.25	0.00	0.00	0.00	0.00	0.00	0.00	0.00	0.00	0.25	0.00	0.00	0.50	0.25	0.00	0.596191	0.446777	1.677246	-1.330000	-164.430008	-41.230000	12.00	0.00	0.00
2.67	25.25	27.50	9.50	13.75	1.00	2.25	0.25	0.75	0.25	1.50	1.25	1.25	1.00	0.50	0.00	0.00	-0.279785	0.109375	0.998047	-34.930000	28.770000	-7.770000	880.00	-0.31	-0.06	0.00	0.00	0.00	0.25	0.00	0.00	0.00	0.00	0.00	0.00	0.25	0.00	0.00	0.25	0.25	0.00	0.453613	0.428711	1.305664	-54.389999	-208.529999	-6.650000	10.00	0.00	0.00
2.68	24.00	25.75	9.50	13.25	1.25	2.50	0.25	0.75	0.50	2.00	1.50	1.50	1.25	0.75	0.25	0.00	-0.302734	0.094238	0.985352	-29.540001	22.400000	-7.210000	872.00	-0.29	-0.06	0.00	0.00	0.00	0.00	0.00	0.00	0.00	0.00	0.00	0.25	0.00	0.00	0.00	0.00	0.00	0.00	0.444336	0.430664	0.962402	-79.449997	-230.300003	17.360001	3.00	0.00	0.00
2.69	22.75	24.00	9.25	12.25	1.50	2.25	0.50	0.75	1.25	2.00	1.50	1.75	1.00	1.00	0.25	0.00	-0.305664	0.080078	0.962891	-25.059999	18.760000	-6.930000	845.00	-0.28	-0.05	0.00	0.00	0.00	0.00	0.00	0.00	0.00	0.00	0.00	0.00	0.00	0.00	0.00	0.00	0.00	0.00	0.397461	0.436523	0.802734	-74.550003	-243.460007	32.830002	0.00	0.00	0.00
2.70	21.25	22.75	9.25	11.75	1.25	2.25	0.50	0.75	1.25	2.25	1.75	1.75	1.50	1.50	0.25	0.25	-0.287598	0.081543	0.958008	-20.650000	16.799999	-6.300000	825.00	-0.26	-0.05	0.00	0.00	0.00	0.00	0.00	0.00	0.00	0.00	0.00	0.00	0.25	0.00	0.00	0.00	0.25	0.00	0.340820	0.414062	0.687988	-50.330002	-251.229996	42.209999	5.00	0.00	0.00
2.71	20.00	21.25	9.00	10.75	1.50	2.00	0.75	0.75	1.50	2.00	1.75	1.75	1.50	1.75	0.25	0.25	-0.293457	0.082031	0.958496	-17.150000	15.750000	-5.670000	791.00	-0.26	-0.05	0.00	0.00	0.00	0.00	0.00	0.00	0.00	0.00	0.00	0.00	0.00	0.00	0.00	0.00	0.00	0.00	0.289062	0.343750	0.628418	-19.389999	-254.380005	48.369999	0.00	0.00	0.00
2.72	19.00	19.50	8.75	10.25	1.50	2.00	0.75	0.75	1.75	2.25	1.75	2.00	1.50	1.75	0.25	0.25	-0.291992	0.077637	0.940918	-14.350000	14.840000	-5.250000	765.00	-0.24	-0.05	0.00	0.00	0.00	0.00	0.00	0.00	0.00	0.00	0.00	0.00	0.25	0.00	0.00	0.00	0.00	0.00	0.245117	0.253418	0.626465	7.700000	-255.149994	52.990002	3.00	0.00	0.00
2.73	17.25	17.75	8.50	9.50	1.50	1.75	0.75	0.75	2.00	2.50	2.00	2.00	1.75	1.75	0.50	0.25	-0.287598	0.066406	0.935059	-11.690000	14.420000	-4.620000	730.00	-0.23	-0.05	0.00	0.00	0.00	0.00	0.00	0.00	0.00	0.00	0.00	0.00	0.00	0.00	0.00	0.00	0.00	0.00	0.179199	0.185059	0.725586	23.799999	-256.480011	57.049999	0.00	0.00	0.00
2.74	15.50	16.00	8.00	9.00	1.50	1.75	1.00	0.75	2.25	2.75	2.00	2.00	1.75	2.25	0.50	0.25	-0.295898	0.058105	0.960449	-9.450000	14.210000	-4.060000	699.00	-0.21	-0.04	0.00	0.00	0.00	0.00	0.00	0.00	0.00	0.00	0.00	0.00	0.00	0.00	0.00	0.00	0.00	0.00	0.112793	0.128418	0.849121	26.600000	-261.309998	62.160000	0.00	0.00	0.00
2.75	14.25	14.00	7.75	8.25	1.50	1.50	1.00	0.75	2.75	2.75	2.00	2.25	1.50	2.25	0.25	0.50	-0.319824	0.042480	0.966309	-7.840000	14.560000	-3.920000	660.00	-0.19	-0.04	0.00	0.00	0.00	0.00	0.00	0.00	0.00	0.00	0.00	0.00	0.00	0.00	0.00	0.25	0.00	0.00	0.062988	0.082520	0.984863	17.990000	-272.160004	68.599998	2.00	0.00	0.00
2.76	11.50	12.25	7.50	7.75	1.50	1.50	1.00	0.75	2.75	3.25	2.25	2.50	1.75	2.75	0.50	0.50	-0.306641	0.047363	0.928711	-7.350000	15.610000	-3.990000	626.00	-0.16	-0.04	0.00	0.00	0.00	0.00	0.00	0.00	0.00	0.00	0.00	0.00	0.00	0.00	0.00	0.00	0.00	0.00	-0.025879	0.088867	1.100098	3.710000	-287.700012	75.529999	0.00	0.00	0.00
2.77	10.25	10.25	7.25	7.50	1.50	1.50	1.00	1.00	3.25	3.25	2.75	2.50	2.00	2.75	0.50	0.50	-0.261230	0.097656	0.889160	-7.000000	16.940001	-3.850000	607.00	-0.14	-0.04	0.00	0.00	0.00	0.00	0.00	0.00	0.00	0.00	0.00	0.00	0.00	0.00	0.00	0.00	0.00	0.00	-0.123535	0.113770	1.218262	-10.990000	-305.690002	82.250000	0.00	0.00	0.00
2.78	9.00	9.00	6.50	6.75	1.75	1.25	1.25	0.75	3.75	3.25	3.00	2.50	1.75	3.25	0.75	0.50	-0.295410	0.066895	0.948730	-8.120000	17.780001	-4.550000	580.00	-0.11	-0.03	0.00	0.25	0.00	0.25	0.00	0.00	0.00	0.00	0.00	0.00	0.00	0.00	0.00	0.00	0.00	0.00	-0.217285	0.166992	1.297852	-21.559999	-323.890015	88.269997	5.00	0.00	0.00
2.79	8.25	8.25	6.25	6.25	1.50	1.25	1.50	0.75	4.25	3.50	3.00	3.00	2.00	3.25	0.75	0.50	-0.311523	0.062500	0.939941	-8.680000	18.410000	-4.970000	575.00	-0.09	-0.02	0.00	0.00	0.00	0.00	0.00	0.00	0.00	0.00	0.00	0.00	0.00	0.00	0.00	0.00	0.00	0.00	-0.311523	0.195312	1.342285	-25.549999	-341.250000	92.889999	0.00	0.00	0.00
2.80	7.25	7.25	5.75	5.75	1.50	1.00	2.00	0.75	4.50	3.75	3.50	3.00	2.25	3.50	0.75	0.50	-0.298828	0.062988	0.939941	-9.590000	18.340000	-5.320000	564.00	-0.06	-0.02	0.00	0.00	0.00	0.00	0.00	0.00	0.00	0.00	0.00	0.00	0.00	0.00	0.00	0.00	0.00	0.00	-0.397461	0.204590	1.359863	-22.680000	-355.110016	94.430000	0.00	0.00	0.00
2.81	6.25	6.50	5.50	5.25	1.50	0.75	2.25	0.75	5.00	4.25	3.75	3.25	2.25	4.00	0.75	0.75	-0.298828	0.071289	0.937500	-9.800000	18.059999	-5.740000	562.00	-0.03	-0.01	0.00	0.00	0.00	0.25	0.00	0.00	0.00	0.00	0.00	0.00	0.00	0.00	0.00	0.00	0.00	0.00	-0.603516	0.198242	1.401367	-0.000000	-369.950012	87.849998	3.00	0.00	0.00
2.82	5.75	5.75	5.00	5.00	1.50	1.00	2.50	0.75	5.25	4.50	4.00	3.50	2.25	4.00	0.50	0.75	-0.301758	0.054688	0.930176	-9.380000	17.780001	-5.740000	557.00	-0.02	-0.01	0.00	0.00	0.00	0.00	0.00	0.00	0.00	0.00	0.00	0.00	0.00	0.00	0.00	0.00	0.00	0.00	-0.701172	0.175781	1.475586	6.510000	-371.070007	81.620003	0.00	0.00	0.00
2.83	5.25	5.25	4.75	4.50	1.50	1.00	3.00	1.00	6.50	5.25	4.75	3.50	2.75	4.25	1.00	0.75	-0.302734	0.063477	0.937500	-8.890000	17.500000	-5.530000	594.00	0.01	-0.00	0.00	0.00	0.00	0.00	0.00	0.00	0.00	0.00	0.00	0.00	0.00	0.00	0.00	0.00	0.00	0.00	-0.693359	0.185059	1.573730	15.680000	-373.380005	74.129997	0.00	0.00	0.00
2.84	4.75	4.75	4.00	3.50	1.50	0.75	3.25	1.00	6.75	6.00	5.25	4.00	2.50	4.75	1.00	0.75	-0.298828	0.061523	0.923828	-7.980000	17.290001	-5.390000	590.00	0.04	0.00	0.00	0.00	0.00	0.00	0.00	0.00	0.00	0.00	0.00	0.00	0.00	0.00	0.00	0.00	0.00	0.00	-0.766113	0.197754	1.678223	31.920000	-376.250000	64.540001	0.00	0.00	0.00
2.85	4.25	4.00	4.00	3.25	1.25	0.75	3.50	0.75	7.50	6.75	6.00	4.50	2.75	5.00	1.25	0.75	-0.309570	0.056152	0.932129	-7.140000	17.430000	-5.320000	610.00	0.07	0.01	0.00	0.00	0.00	0.00	0.00	0.00	0.00	0.00	0.00	0.00	0.00	0.00	0.00	0.00	0.00	0.00	-0.828125	0.159180	1.816406	47.040001	-380.309998	54.880001	0.00	0.00	0.00
2.86	3.25	3.50	3.25	2.50	1.25	0.75	3.75	1.00	8.00	7.50	6.75	4.50	3.00	5.25	1.25	1.00	-0.311523	0.055664	0.934082	-6.860000	18.129999	-5.530000	614.00	0.10	0.01	0.00	0.00	0.00	0.00	0.00	0.00	0.00	0.00	0.00	0.00	0.00	0.00	0.00	0.00	0.00	0.00	-0.883301	0.131348	1.933105	55.090000	-384.369995	46.830002	0.00	0.00	0.00
2.87	3.00	3.00	2.75	2.50	1.25	0.50	4.25	0.75	8.50	8.00	7.75	5.00	3.00	5.25	1.25	1.00	-0.326660	0.055176	0.926758	-6.230000	20.299999	-6.720000	629.00	0.11	0.02	0.00	0.00	0.00	0.00	0.00	0.00	0.00	0.00	0.00	0.00	0.00	0.00	0.00	0.00	0.00	0.00	-0.955566	0.138672	2.044434	56.070000	-388.500000	41.020000	0.00	0.00	0.00
2.88	2.50	2.50	2.50	2.00	1.00	0.50	4.50	0.75	9.00	8.25	7.75	5.75	3.25	6.00	1.25	1.00	-0.313965	0.070801	0.920410	-8.120000	22.330000	-7.280000	638.00	0.13	0.02	0.00	0.00	0.00	0.00	0.00	0.00	0.00	0.00	0.00	0.00	0.00	0.00	0.00	0.00	0.00	0.00	-1.055664	0.191895	2.156738	56.070000	-390.600006	38.220001	0.00	0.00	0.00
2.89	2.25	1.75	2.50	1.75	1.00	0.25	4.75	1.00	9.50	8.75	8.25	5.75	3.00	6.25	1.50	1.00	-0.322754	0.069824	0.926758	-7.980000	23.590000	-8.260000	650.00	0.15	0.02	0.00	0.00	0.00	0.00	0.00	0.00	0.00	0.00	0.00	0.00	0.00	0.00	0.00	0.00	0.00	0.00	-1.193359	0.240723	2.300781	59.360001	-390.459991	38.430000	0.00	0.00	0.00
2.90	1.75	1.50	2.00	1.25	0.75	0.25	5.25	0.75	10.25	9.25	8.50	6.50	3.25	7.00	2.00	1.25	-0.331055	0.058105	0.928711	-7.420000	24.780001	-9.660000	674.00	0.17	0.03	0.00	0.00	0.00	0.25	0.00	0.00	0.00	0.00	0.00	0.00	0.00	0.00	0.00	0.00	0.00	0.00	-1.397949	0.259766	2.458984	66.360001	-389.059998	42.000000	3.00	0.00	0.00
2.91	1.25	1.00	1.75	1.00	0.50	0.25	5.50	0.75	10.75	9.75	9.00	7.25	3.50	7.50	2.00	1.25	-0.296875	0.058594	0.906738	-6.300000	26.740000	-10.920000	691.00	0.19	0.03	0.00	0.00	0.00	0.00	0.00	0.00	0.00	0.00	0.00	0.00	0.00	0.00	0.00	0.00	0.00	0.00	-1.658691	0.260742	2.672363	74.480003	-387.869995	47.320000	0.00	0.00	0.00
2.92	1.00	0.75	1.00	0.75	0.50	0.25	5.50	0.50	11.50	10.25	9.50	7.50	3.75	8.00	2.00	1.25	-0.338379	0.031738	1.018555	-3.010000	28.770000	-13.160000	700.00	0.20	0.03	0.00	0.00	0.00	0.00	0.00	0.00	0.00	0.00	0.00	0.00	0.00	0.00	0.00	0.00	0.00	0.00	-1.963867	0.204102	2.851074	80.919998	-388.989990	51.099998	0.00	0.00	0.00
2.93	1.00	0.25	1.25	0.25	0.25	0.25	5.75	0.75	12.25	11.00	10.00	7.75	4.00	8.50	2.50	1.50	-0.315918	0.036133	0.967285	-2.800000	40.389999	-9.100000	736.00	0.21	0.03	0.00	0.00	0.00	0.00	0.00	0.00	0.00	0.00	0.00	0.00	0.00	0.00	0.00	0.00	0.00	0.00	-2.326660	0.164551	2.895020	85.190002	-393.750000	50.680000	0.00	0.00	0.00
2.94	0.75	0.50	0.75	0.25	0.50	0.00	6.00	1.00	12.75	11.50	10.25	8.00	4.00	9.00	2.75	1.50	-0.353027	0.053711	0.938477	-0.910000	52.779999	-7.910000	762.00	0.22	0.03	0.00	0.00	0.00	0.00	0.00	0.00	0.00	0.00	0.00	0.00	0.00	0.00	0.00	0.00	0.00	0.00	-2.670898	0.110352	2.662109	83.720001	-400.750000	45.849998	0.00	0.00	0.00
2.95	0.25	0.50	1.25	0.00	0.25	0.00	6.00	1.00	13.50	12.25	10.50	8.25	4.00	9.50	3.00	1.75	-0.354492	0.045410	0.951660	-0.630000	62.580002	-7.420000	788.00	0.22	0.04	0.00	0.00	0.00	0.00	0.00	0.00	0.00	0.00	0.00	0.00	0.00	0.00	0.00	0.00	0.00	0.00	-2.955078	0.087891	2.206055	75.879997	-401.100006	34.790001	0.00	0.00	0.00
2.96	0.25	0.25	0.75	0.00	0.25	0.00	6.25	0.75	14.00	12.75	10.75	8.50	4.00	10.00	3.25	1.75	-0.357422	0.034180	0.956543	-0.490000	73.639999	-6.790000	804.00	0.23	0.04	0.00	0.00	0.00	0.00	0.00	0.00	0.00	0.00	0.00	0.00	0.00	0.00	0.00	0.00	0.00	0.00	-3.189453	0.031738	1.685059	76.019997	-385.700012	21.700001	0.00	0.00	0.00
2.97	0.25	0.00	0.50	0.00	0.25	0.00	6.25	0.50	14.75	13.25	11.00	8.25	4.00	10.50	3.75	1.75	-0.393555	0.060547	0.935059	-0.420000	86.309998	-6.860000	819.00	0.24	0.05	0.00	0.00	0.00	0.00	0.00	0.00	0.00	0.00	0.00	0.00	0.00	0.00	0.00	0.00	0.00	0.00	-3.365234	-0.211426	1.084961	95.690002	-356.160004	9.730000	0.00	0.00	0.00
2.98	0.25	0.00	0.50	0.00	0.00	0.00	6.25	0.50	15.25	13.50	11.25	8.50	3.75	11.00	4.25	1.75	-0.397949	0.052734	0.935547	-1.820000	99.959999	-7.910000	838.00	0.24	0.05	0.00	0.00	0.00	0.00	0.00	0.00	0.00	0.00	0.00	0.00	0.00	0.00	0.00	0.00	0.00	0.00	-3.633301	-0.551270	0.507324	127.959999	-317.170013	-7.630000	0.00	0.00	0.00
2.99	0.00	0.00	0.25	0.00	0.00	0.00	6.25	0.25	15.75	14.00	11.25	8.50	3.50	11.50	5.25	1.75	-0.434082	0.043945	0.944336	-5.180000	115.290001	-8.820000	854.00	0.25	0.05	0.00	0.00	0.00	0.00	0.00	0.00	0.00	0.00	0.00	0.00	0.00	0.00	0.00	0.00	0.00	0.00	-4.702148	-1.315430	-0.529785	161.350006	-222.529999	-54.670002	0.00	0.00	0.00
3.00	0.00	0.00	0.00	0.00	0.00	0.00	6.25	0.00	16.50	14.25	11.00	8.50	3.25	11.75	5.25	1.75	-0.440918	0.037598	0.959961	-12.110000	135.589996	-8.470000	857.00	0.25	0.06	0.00	0.00	0.00	0.00	0.00	0.00	0.00	0.00	0.00	0.00	0.00	0.00	0.00	0.00	0.00	0.00	-4.702148	-1.315430	-0.529785	161.350006	-222.529999	-54.670002	0.00	0.00	0.00
3.01	0.00	0.00	0.00	0.00	0.00	0.00	6.25	0.00	17.00	14.50	11.00	8.25	2.75	12.00	5.25	2.00	-0.468262	0.047852	0.974609	-15.820000	153.160004	-7.630000	862.00	0.25	0.06	0.00	0.00	0.00	0.00	0.00	0.00	0.00	0.00	0.00	0.00	0.00	0.00	0.00	0.00	0.00	0.00	-5.021484	-1.611328	-1.028809	134.960007	-158.759995	-66.150002	0.00	0.00	0.00
3.02	0.00	0.50	0.00	0.00	0.00	0.00	6.00	0.00	17.00	14.75	11.00	8.00	2.50	12.25	5.75	1.75	-0.500977	0.024414	0.978027	-18.900000	170.380005	-7.070000	867.00	0.25	0.06	0.00	0.25	0.00	0.00	0.00	0.00	0.00	0.00	0.00	0.00	0.00	0.00	0.00	0.00	0.00	0.00	-3.960938	-1.431641	-0.553711	-67.620003	2.520000	-108.360001	2.00	0.00	0.00
3.03	0.00	0.00	0.00	0.00	0.00	0.00	6.00	0.00	17.25	15.00	10.75	8.00	2.25	12.50	5.50	1.75	-0.519043	0.011719	0.956055	-21.000000	189.910004	-5.950000	863.00	0.25	0.07	0.00	0.00	0.00	0.00	0.00	0.00	0.00	0.00	0.00	0.00	0.00	0.00	0.00	0.00	0.00	0.00	-3.306641	-0.776367	0.321777	-171.220001	69.790001	-129.919998	0.00	0.00	0.00
3.04	0.00	0.00	0.00	0.00	0.00	0.00	6.00	0.00	17.25	15.00	10.50	7.75	2.00	12.50	5.50	2.00	-0.574707	0.011230	0.969727	-21.420000	212.100006	-4.830000	857.00	0.26	0.07	0.50	1.25	0.25	0.75	0.00	0.00	0.00	0.00	0.00	0.00	0.00	0.00	0.00	0.00	0.00	0.00	1.264160	-0.924805	7.983887	-179.059998	435.470001	-157.080002	28.00	0.00	0.00
3.05	0.00	0.00	0.00	0.00	0.00	0.00	5.75	0.00	17.00	15.00	10.50	7.50	2.00	12.75	6.00	2.00	-0.604004	0.048340	1.034668	-19.950001	233.660004	-3.710000	855.00	0.26	0.07	1.75	3.25	1.00	1.75	0.00	0.00	0.00	0.00	0.00	0.00	0.00	0.00	0.00	0.00	0.00	0.00	1.604980	0.760742	-1.792969	-151.830002	153.580002	-135.380005	78.00	-0.36	-0.08
3.06	0.00	0.00	0.00	0.00	0.00	0.00	5.75	0.00	16.25	14.50	10.25	7.25	1.75	13.00	6.00	2.00	-0.710938	0.087402	1.116699	-2.800000	272.579987	-2.100000	834.00	0.26	0.07	4.00	5.75	1.75	3.75	0.00	0.00	0.00	0.00	0.00	0.00	0.00	0.00	0.00	0.00	0.00	0.00	0.020508	0.205078	-0.984375	-279.089996	101.430000	-132.300003	155.00	-0.36	-0.08
3.07	0.00	0.00	0.00	0.00	0.00	0.00	5.50	0.00	15.25	14.00	9.75	6.75	1.75	12.75	6.00	2.00	-0.710938	0.087402	1.116699	-2.800000	272.579987	-2.100000	800.00	0.26	0.07	7.50	8.25	1.75	5.00	0.00	0.00	0.00	0.00	0.00	0.00	0.00	0.00	0.00	0.00	0.00	0.00	-0.290039	1.362793	0.098145	-365.119995	222.949997	-112.910004	228.00	-0.37	-0.06
3.08	0.00	0.00	0.00	0.00	0.00	0.00	5.25	0.00	13.75	13.00	8.75	6.00	1.75	12.75	6.00	2.25	-1.058594	-0.134766	1.384277	17.710001	324.519989	-8.820000	749.00	0.26	0.07	10.75	11.25	2.50	6.00	0.00	0.00	0.00	0.00	0.00	0.00	0.00	0.00	0.00	0.00	0.00	0.00	-0.683105	1.676270	1.600586	-266.140015	283.290009	-13.370000	309.00	-0.37	-0.06
3.09	0.00	0.00	0.00	0.00	0.00	0.00	4.75	0.00	12.25	11.75	7.50	5.00	1.50	13.00	6.00	2.50	-1.322266	-0.029785	1.732422	24.639999	353.500000	-4.060000	686.00	0.27	0.07	15.75	15.50	4.00	7.50	0.00	0.00	0.00	0.00	0.00	0.00	0.00	0.00	0.00	0.00	0.00	0.00	-0.880371	0.295898	2.104004	-106.190002	275.519989	88.620003	433.00	-0.37	-0.05
3.10	0.00	0.00	0.00	0.00	0.00	0.00	4.25	0.00	10.50	10.75	5.75	4.25	1.00	12.75	6.00	2.25	-1.555664	0.091309	2.335449	34.720001	380.029999	3.850000	611.00	0.27	0.08	20.25	18.75	6.00	9.00	0.00	0.00	0.00	0.00	0.00	0.00	0.00	0.00	0.00	0.00	0.00	0.00	-0.622559	-1.109375	2.154785	-33.810001	272.860016	114.029999	548.00	-0.37	-0.04
3.11	0.00	0.00	0.00	0.00	0.00	0.00	3.25	0.00	9.00	9.50	4.25	3.00	0.75	12.00	5.75	2.00	-1.434082	0.131836	1.962402	31.710001	410.480011	8.050000	522.00	0.28	0.08	22.50	20.75	7.50	10.25	0.00	0.00	0.00	0.00	0.00	0.00	0.00	0.00	0.00	0.00	0.00	0.00	-0.794434	-1.530762	2.161133	-8.610000	274.190002	73.570000	620.00	-0.37	-0.04
3.12	0.00	0.00	0.00	0.00	0.00	0.00	2.50	0.00	8.00	8.25	2.75	1.75	0.50	11.50	5.50	1.75	-1.481934	0.397949	2.233887	23.799999	443.799988	-8.330000	445.00	0.29	0.09	23.50	21.75	8.50	11.00	0.00	0.00	0.00	0.00	0.00	0.00	0.00	0.00	0.00	0.00	0.00	0.00	-0.691406	-0.820312	2.101562	27.860001	260.470001	21.139999	659.00	-0.37	-0.04
3.13	0.00	0.00	0.00	0.00	0.00	0.00	1.50	0.00	7.25	7.75	2.25	1.75	0.00	10.50	4.50	1.25	-1.931152	0.516602	1.693359	17.920000	473.549988	-34.930000	384.00	0.30	0.10	23.75	21.75	9.25	12.00	0.25	0.00	0.00	0.00	0.00	0.00	0.00	0.00	0.00	0.00	0.00	0.00	-0.490234	0.459473	1.906738	47.180000	229.180008	-3.850000	684.00	-0.36	-0.04
3.14	0.00	0.00	0.00	0.00	0.00	0.00	1.00	0.00	5.75	6.50	1.25	1.50	0.00	9.25	3.75	1.25	-1.974121	0.445312	2.113770	31.780001	478.100006	-61.110001	312.00	0.30	0.10	22.75	21.50	9.75	12.75	0.25	0.25	0.00	0.00	0.00	0.00	0.00	0.25	0.25	0.00	0.00	0.00	-0.402344	0.539062	1.486328	47.389999	199.430008	7.140000	692.00	-0.36	-0.05
3.15	0.00	0.00	0.00	0.00	0.00	0.00	0.25	0.00	4.25	5.50	1.50	1.50	0.00	7.75	3.00	1.00	-1.956055	0.520508	2.970215	29.750000	479.709991	-77.209999	251.00	0.31	0.08	22.25	21.00	10.25	13.25	0.25	0.75	0.00	0.00	0.00	0.00	0.00	0.00	0.25	0.00	0.00	0.00	-0.296875	0.017090	1.246094	37.310001	181.020004	16.730000	696.00	-0.35	-0.05
3.16	0.00	0.00	0.00	0.00	0.00	0.50	0.00	0.00	3.75	4.75	1.25	1.50	0.00	6.75	2.00	0.25	-1.427734	0.709961	3.100586	19.389999	452.549988	-94.080002	213.00	0.29	0.08	21.75	20.75	10.75	14.00	0.50	1.25	0.00	0.00	0.00	0.00	0.00	0.00	0.50	0.00	0.00	0.00	-0.260742	-0.130371	1.138672	30.799999	168.279999	7.770000	713.00	-0.35	-0.05
3.17	0.00	0.00	0.00	0.00	0.00	0.00	0.00	0.00	2.50	4.00	1.00	1.50	0.00	5.00	1.25	0.25	-0.959473	0.716309	2.383301	4.830000	405.299988	-115.500000	158.00	0.30	0.07	21.00	20.25	11.25	14.75	0.50	1.75	0.00	0.50	0.00	0.00	0.00	0.75	1.25	0.00	0.00	0.00	-0.314941	-0.048828	1.131348	29.190001	160.229996	-3.570000	742.00	-0.33	-0.06
3.18	0.00	0.00	0.00	0.00	0.00	0.00	0.00	0.00	2.50	3.50	1.00	1.25	0.00	2.50	0.75	0.00	0.161621	0.758301	2.517578	1.890000	342.019989	-126.559998	122.00	0.28	0.08	20.50	19.75	11.75	14.75	0.75	2.00	0.00	0.50	0.00	0.00	0.50	0.75	1.75	0.00	0.00	0.00	-0.552734	0.121094	1.396973	-12.600000	103.459999	4.690000	753.00	-0.32	-0.07
3.19	0.00	0.00	0.00	0.00	0.00	0.50	0.00	0.00	2.00	2.25	0.75	0.50	0.00	1.25	0.25	0.00	1.137207	0.593750	2.666016	17.850000	267.679993	-127.120003	81.00	0.24	0.08	20.50	19.25	12.00	15.00	1.00	2.75	0.00	0.75	0.00	0.00	0.75	1.00	2.00	0.00	0.00	0.00	-0.152344	0.015137	1.031738	-46.060001	60.760002	3.150000	776.00	-0.31	-0.07
3.20	0.00	0.00	0.00	0.00	0.00	0.00	0.00	0.00	1.25	2.25	0.25	0.50	0.00	1.00	0.00	0.00	0.320801	0.602051	0.855957	37.660000	230.440002	-150.779999	56.00	0.27	0.10	20.75	19.00	12.50	15.00	1.25	3.75	0.00	0.75	0.00	0.00	0.50	1.00	2.00	0.25	0.00	0.00	-0.281738	0.086914	1.177734	-41.580002	34.230000	-1.330000	795.00	-0.31	-0.07
3.21	0.25	0.00	0.00	0.00	0.00	0.00	0.00	0.00	0.75	1.75	0.25	0.00	0.00	1.25	0.00	0.00	0.153809	0.722656	3.142578	47.599998	127.820000	-150.360001	44.00	0.00	0.00	20.75	18.75	12.75	15.00	1.25	3.00	0.00	1.00	0.00	0.50	0.75	1.25	2.25	0.75	0.00	0.00	-0.232910	0.113770	1.022949	-31.080000	11.970000	-1.960000	808.00	-0.30	-0.07
3.22	0.25	0.00	0.00	0.00	0.00	0.00	0.00	0.00	0.75	1.75	0.25	0.00	0.00	0.25	0.00	0.00	1.094238	0.328125	3.827637	53.480000	7.770000	-129.430008	35.00	0.00	0.00	20.50	18.50	12.50	14.75	1.25	3.25	0.00	0.75	0.00	0.50	0.75	1.00	2.25	0.50	0.00	0.00	-0.227051	0.096191	1.000000	-22.680000	6.230000	-1.890000	792.00	-0.30	-0.07
3.23	0.00	0.00	0.00	0.00	0.00	0.00	0.00	0.00	0.25	1.75	0.00	0.00	0.00	0.25	0.00	0.00	0.716797	0.446289	2.059082	15.890000	-90.090004	-98.419998	24.00	0.00	0.00	20.25	18.00	13.00	14.50	1.50	3.00	0.00	0.75	0.00	0.50	1.25	1.50	2.50	0.75	0.00	0.25	-0.223633	0.122559	0.995117	-16.520000	3.710000	-1.540000	803.00	-0.29	-0.07
3.24	0.00	0.00	0.00	0.00	0.00	0.00	0.00	0.00	0.50	1.25	0.25	0.00	0.00	0.25	0.00	0.00	0.551270	0.411621	1.514648	-44.380001	-152.110001	-66.989998	24.00	0.00	0.00	19.25	16.75	12.25	14.25	1.25	3.25	0.25	0.75	0.25	0.75	1.00	1.25	2.50	1.00	0.25	0.25	-0.218262	0.108398	0.980957	-12.180000	2.870000	-1.400000	780.00	-0.28	-0.07
3.25	0.00	0.00	0.00	0.00	0.00	0.00	0.00	0.00	0.25	1.50	0.00	0.00	0.00	0.25	0.00	0.00	0.528320	0.459473	1.021973	-84.769997	-182.350006	-40.810001	21.00	0.00	0.00	19.00	16.50	12.25	14.00	1.75	3.50	0.25	0.75	0.50	0.75	1.00	1.25	2.75	1.50	0.00	0.25	-0.219727	0.097656	0.972168	-8.470000	2.170000	-0.980000	787.00	-0.27	-0.06
3.26	0.00	0.00	0.00	0.00	0.00	0.00	0.00	0.00	0.50	1.25	0.00	0.00	0.00	0.25	0.00	0.00	0.470703	0.493652	0.710938	-96.809998	-195.860001	-21.490000	22.00	0.00	0.00	18.00	15.50	12.00	13.50	1.50	3.00	0.25	1.00	0.50	1.00	1.50	1.75	2.75	1.50	0.25	0.75	-0.231934	0.101074	0.973633	-5.530000	1.820000	-0.490000	774.00	-0.25	-0.07
3.27	0.00	0.00	0.00	0.00	0.00	0.00	0.00	0.00	0.25	0.75	0.00	0.00	0.00	0.00	0.00	0.00	0.382812	0.508789	0.469238	-54.250000	-200.970001	1.260000	11.00	0.00	0.00	17.25	15.00	11.75	13.00	1.75	3.00	0.25	1.00	0.50	1.00	1.25	1.25	2.75	1.75	0.25	0.25	-0.220703	0.107422	0.950684	-3.220000	1.890000	-0.210000	747.00	-0.26	-0.07
3.28	0.00	0.00	0.00	0.00	0.00	0.25	0.00	0.00	0.00	1.00	0.00	0.00	0.00	0.00	0.00	0.00	0.382812	0.508789	0.469238	-54.250000	-200.970001	1.260000	13.00	0.00	0.00	16.50	13.75	11.25	12.75	1.50	3.00	0.25	0.75	0.25	0.75	1.25	1.75	2.75	1.75	0.25	0.75	-0.222168	0.113281	0.947266	-1.540000	2.380000	-0.140000	715.00	-0.25	-0.07
3.29	0.00	0.00	0.00	0.00	0.00	0.00	0.00	0.00	0.00	0.75	0.00	0.00	0.00	0.00	0.00	0.00	0.266113	0.383789	0.620605	3.780000	-201.880005	13.300000	8.00	0.00	0.00	15.00	13.25	10.75	12.50	1.50	2.75	0.00	0.75	0.25	1.00	1.25	1.50	2.75	1.75	0.50	0.75	-0.231934	0.133301	0.945801	-0.980000	2.730000	-0.070000	683.00	-0.25	-0.07
3.30	0.00	0.00	0.00	0.00	0.00	0.00	0.00	0.00	0.00	0.75	0.00	0.00	0.00	0.00	0.00	0.00	0.201172	0.325195	0.776367	17.639999	-209.300003	19.460001	8.00	0.00	0.00	13.75	12.50	10.50	11.75	1.75	2.75	0.25	1.00	0.50	1.00	1.75	1.50	3.25	2.25	0.25	0.75	-0.236816	0.115234	0.957031	-1.260000	2.590000	-0.210000	677.00	-0.23	-0.07
3.31	0.00	0.00	0.00	0.00	0.00	0.00	0.00	0.00	0.00	0.75	0.00	0.00	0.00	0.00	0.00	0.00	0.125488	0.286621	0.920410	18.480000	-222.809998	27.719999	8.00	0.00	0.00	12.50	11.50	9.75	11.25	1.75	2.50	0.25	1.25	0.50	1.25	1.50	2.00	3.25	2.25	0.50	1.00	-0.229980	0.115234	0.958984	-1.750000	2.870000	-0.560000	651.00	-0.21	-0.08
3.32	0.00	0.00	0.00	0.00	0.00	0.00	0.00	0.00	0.00	1.00	0.00	0.00	0.00	0.00	0.00	0.00	0.048828	0.277832	1.017578	10.080000	-240.309998	38.150002	10.00	0.00	0.00	11.50	10.75	9.50	11.00	1.50	2.25	0.25	1.00	0.75	1.25	1.50	1.75	3.00	2.25	0.50	1.00	-0.226562	0.115234	0.951660	-2.660000	3.430000	-0.980000	617.00	-0.21	-0.08
3.33	0.00	0.00	0.00	0.00	0.00	0.00	0.00	0.00	0.00	0.75	0.00	0.00	0.00	0.00	0.00	0.00	-0.018555	0.286133	1.102539	-2.450000	-259.769989	49.560001	8.00	0.00	0.00	10.25	10.00	9.25	10.25	1.75	2.50	0.25	1.25	1.00	1.00	1.75	1.75	3.25	2.50	1.00	1.00	-0.208008	0.123047	0.930664	-4.200000	4.060000	-1.750000	609.00	-0.19	-0.08
3.34	0.00	0.00	0.00	0.00	0.00	0.00	0.00	0.00	0.00	0.75	0.00	0.00	0.00	0.00	0.00	0.00	-0.104492	0.301270	1.154297	-11.970000	-279.860016	60.130001	8.00	0.00	0.00	9.50	9.25	8.75	9.75	1.75	2.50	0.25	1.25	1.00	1.25	1.75	1.75	3.25	2.50	0.50	1.25	-0.229004	0.122559	0.943848	-6.300000	4.760000	-2.730000	582.00	-0.18	-0.08
3.35	0.00	0.00	0.00	0.00	0.00	0.00	0.00	0.00	0.00	0.50	0.00	0.00	0.00	0.00	0.00	0.00	-0.196289	0.315430	1.180664	-15.820000	-299.040009	68.949997	5.00	0.00	0.00	8.75	8.50	8.75	9.50	1.50	2.00	0.25	1.25	1.50	1.50	2.00	2.00	3.75	3.00	0.75	1.50	-0.225586	0.110352	0.950195	-8.470000	5.880000	-3.220000	583.00	-0.15	-0.08
3.36	0.00	0.00	0.00	0.00	0.00	0.00	0.00	0.00	0.00	0.50	0.00	0.00	0.00	0.00	0.00	0.00	-0.282227	0.305664	1.197266	-14.420000	-315.279999	75.320000	5.00	0.00	0.00	8.25	8.00	8.25	9.00	1.75	2.25	0.25	1.25	1.50	1.75	2.50	2.50	3.75	3.00	1.00	1.25	-0.228027	0.109375	0.945312	-9.590000	7.210000	-3.360000	582.00	-0.14	-0.08
3.37	0.00	0.00	0.00	0.00	0.00	0.00	0.00	0.00	0.00	0.25	0.00	0.00	0.00	0.00	0.00	0.00	-0.369141	0.298340	1.213867	-9.800000	-328.089996	79.449997	3.00	0.00	0.00	7.75	7.50	8.00	8.50	1.75	2.00	0.25	1.25	1.75	1.75	2.50	2.50	4.00	3.50	1.00	1.75	-0.231445	0.093262	0.956543	-9.450000	8.400000	-3.220000	574.00	-0.12	-0.08
3.38	0.25	0.00	0.00	0.00	0.00	0.00	0.00	0.00	0.00	0.25	0.00	0.00	0.00	0.00	0.00	0.00	-0.443848	0.281738	1.221191	-4.550000	-337.610016	81.830002	5.00	0.00	0.00	7.00	7.00	7.25	8.25	1.75	2.00	0.50	1.50	2.00	2.25	2.50	2.50	4.50	4.00	1.00	1.75	-0.236328	0.106445	0.962891	-8.400000	9.450000	-2.870000	575.00	-0.10	-0.08
3.39	0.00	0.00	0.00	0.00	0.00	0.00	0.00	0.00	0.00	0.25	0.00	0.00	0.00	0.00	0.00	0.00	-0.513672	0.274414	1.282715	0.840000	-343.910004	82.669998	3.00	0.00	0.00	6.25	6.25	7.25	7.75	1.75	1.50	0.50	1.25	2.50	2.00	3.00	2.75	4.50	4.00	1.00	2.00	-0.239258	0.103516	0.956055	-7.560000	10.010000	-2.590000	559.00	-0.08	-0.07
3.40	0.00	0.00	0.00	0.00	0.00	0.00	0.00	0.00	0.00	0.25	0.00	0.00	0.00	0.00	0.00	0.00	-0.570312	0.256348	1.372070	6.650000	-347.899994	82.599998	3.00	0.00	0.00	5.75	5.75	6.75	7.50	1.50	1.50	0.50	1.25	2.75	2.50	3.00	3.25	5.00	4.50	1.25	2.25	-0.245605	0.110352	0.957031	-7.000000	10.220000	-2.310000	564.00	-0.06	-0.08
3.41	0.00	0.00	0.00	0.00	0.00	0.00	0.00	0.00	0.00	0.50	0.00	0.00	0.00	0.00	0.00	0.00	-0.616699	0.261230	1.477051	12.530000	-351.610016	82.180000	5.00	0.00	0.00	5.50	5.50	6.25	7.50	1.50	1.25	0.50	1.50	3.00	3.00	3.25	3.25	5.00	5.00	1.00	2.25	-0.248047	0.105469	0.958496	-6.510000	10.220000	-2.590000	568.00	-0.04	-0.08
3.42	0.00	0.00	0.00	0.00	0.00	0.00	0.00	0.00	0.00	0.25	0.00	0.00	0.00	0.00	0.00	0.00	-0.683105	0.266602	1.630859	18.270000	-356.019989	82.320000	3.00	0.00	0.00	4.75	5.00	6.00	6.50	1.50	1.25	0.50	1.75	3.75	3.50	3.75	3.50	5.25	5.25	1.25	2.25	-0.256836	0.102051	0.960449	-6.020000	9.520000	-3.010000	575.00	-0.01	-0.07
3.43	0.00	0.00	0.00	0.00	0.00	0.00	0.00	0.00	0.00	0.00	0.00	0.00	0.00	0.00	0.00	0.00	-0.734863	0.257812	1.770996	23.170000	-361.899994	84.559998	0.00	0.00	0.00	4.25	4.25	5.75	6.25	1.50	1.25	0.75	1.75	4.50	3.50	4.50	4.00	5.25	5.75	1.50	2.50	-0.251953	0.106445	0.962402	-6.230000	9.660000	-3.010000	592.00	0.01	-0.07
3.44	0.00	0.00	0.00	0.00	0.00	0.00	0.00	0.00	0.00	0.25	0.00	0.00	0.00	0.00	0.00	0.00	-0.786621	0.247070	1.952148	25.620001	-370.299988	87.639999	3.00	0.00	0.00	3.75	4.00	5.50	5.25	1.50	1.25	0.75	1.75	5.25	4.25	5.25	4.25	5.50	6.50	2.00	2.75	-0.253906	0.100098	0.960449	-7.070000	9.940000	-2.870000	614.00	0.04	-0.06
3.45	0.00	0.00	0.00	0.00	0.00	0.00	0.00	0.00	0.00	0.25	0.00	0.00	0.00	0.00	0.00	0.00	-0.850586	0.243164	2.143066	26.880001	-382.059998	91.139999	3.00	0.00	0.00	3.25	3.50	5.00	5.00	1.50	1.00	0.75	1.50	6.00	4.75	5.75	5.00	5.75	7.25	2.25	3.00	-0.250000	0.107910	0.962402	-8.050000	11.270000	-3.430000	631.00	0.07	-0.05
3.46	0.00	0.00	0.00	0.00	0.00	0.00	0.00	0.00	0.00	0.25	0.00	0.00	0.00	0.00	0.00	0.00	-0.932617	0.254395	2.312012	27.719999	-395.079987	94.570000	3.00	0.00	0.00	2.75	2.75	4.00	4.50	1.25	1.00	1.00	1.75	7.00	5.75	7.25	5.50	6.00	8.00	2.25	3.50	-0.254883	0.103027	0.964844	-8.820000	13.300000	-4.200000	662.00	0.11	-0.05
3.47	0.00	0.00	0.00	0.00	0.00	0.00	0.00	0.00	0.00	0.25	0.00	0.00	0.00	0.00	0.00	0.00	-1.019043	0.236328	2.503906	28.980000	-407.820007	97.370003	3.00	0.00	0.00	2.00	1.75	3.50	3.25	1.25	0.50	1.00	1.50	7.75	7.25	8.00	6.25	6.25	8.50	2.75	3.50	-0.263672	0.100586	0.966797	-9.170000	15.750000	-4.900000	670.00	0.15	-0.04
3.48	0.00	0.00	0.00	0.00	0.00	0.00	0.00	0.00	0.00	0.25	0.00	0.00	0.00	0.00	0.00	0.00	-1.312012	0.222168	2.868652	28.910000	-427.700012	97.300003	3.00	0.00	0.00	1.75	1.50	3.00	2.50	1.00	0.25	1.50	1.50	8.75	8.00	8.50	7.00	6.25	9.50	3.50	3.75	-0.275879	0.102539	0.973145	-8.890000	18.969999	-5.530000	705.00	0.17	-0.03
3.49	0.00	0.00	0.00	0.00	0.00	0.00	0.00	0.00	0.00	0.00	0.00	0.00	0.00	0.00	0.00	0.00	-1.312012	0.222168	2.868652	28.910000	-427.700012	97.300003	0.00	0.00	0.00	1.25	0.75	2.00	2.00	0.50	0.25	1.50	1.50	9.50	8.75	8.75	7.50	6.50	10.25	3.25	4.75	-0.271484	0.102051	0.937500	-7.770000	22.120001	-6.160000	708.00	0.20	-0.03
3.50	0.00	0.00	0.00	0.00	0.00	0.00	0.00	0.00	0.00	0.00	0.00	0.00	0.00	0.00	0.00	0.00	-2.036133	0.242188	3.114746	33.599998	-433.230011	80.570000	0.00	0.00	0.00	1.25	1.00	2.00	1.00	0.50	0.25	1.75	1.25	10.25	9.25	9.25	8.00	6.75	11.50	3.75	5.25	-0.295410	0.086914	1.032227	-9.240000	25.760000	-8.120000	745.00	0.21	-0.02
3.51	0.00	0.00	0.00	0.00	0.00	0.00	0.00	0.00	0.00	0.00	0.00	0.00	0.00	0.00	0.00	0.00	-2.457031	0.266602	2.988770	39.970001	-430.360016	61.459999	0.00	0.00	0.00	0.75	0.75	1.25	1.25	0.25	0.25	2.00	1.00	11.25	10.00	9.50	8.00	7.25	12.50	4.50	5.75	-0.279297	0.142578	0.948730	-5.250000	31.010000	-10.430000	776.00	0.23	-0.02
3.52	0.00	0.00	0.00	0.00	0.00	0.00	0.00	0.00	0.00	0.25	0.00	0.00	0.00	0.00	0.00	0.00	-2.846680	0.317871	2.603027	47.250000	-419.440002	35.279999	3.00	0.00	0.00	0.00	0.25	1.00	0.50	0.25	0.00	2.25	1.00	12.25	10.25	9.75	8.25	7.00	13.75	4.75	6.00	-0.279785	-0.009766	1.015625	-2.100000	42.630001	-8.680000	788.00	0.25	-0.01
3.53	0.00	0.00	0.00	0.00	0.00	0.00	0.00	0.00	0.00	0.00	0.00	0.00	0.00	0.00	0.00	0.00	-3.130859	0.342773	1.860840	67.690002	-393.190002	3.920000	0.00	0.00	0.00	0.00	0.50	1.00	0.50	0.25	0.00	2.25	0.75	13.25	10.50	10.00	8.50	7.00	14.75	5.50	6.25	-0.289062	0.081543	0.983398	0.980000	60.549999	-5.880000	825.00	0.25	-0.00
3.54	0.00	0.00	0.00	0.00	0.00	0.00	0.00	0.00	0.00	0.00	0.00	0.00	0.00	0.00	0.00	0.00	-3.359375	0.170898	1.080566	131.949997	-352.869995	-29.820000	0.00	0.00	0.00	0.00	0.00	0.50	0.50	0.00	0.00	2.50	0.75	13.75	11.00	10.25	8.50	6.75	15.75	5.75	6.25	-0.319336	0.087402	0.987793	1.190000	70.769997	-3.920000	839.00	0.26	0.00
3.55	0.00	0.00	0.00	0.00	0.00	0.25	0.00	0.00	0.00	0.00	0.00	0.00	0.00	0.00	0.00	0.00	-3.703613	-0.220215	0.595703	241.430008	-306.250000	-60.970001	3.00	0.00	0.00	0.00	0.00	0.25	0.25	0.00	0.00	2.50	0.75	14.50	11.50	10.25	8.50	6.75	16.50	6.25	6.50	-0.322754	0.081055	0.991699	1.330000	82.110001	-3.290000	861.00	0.27	0.01
3.56	0.00	0.00	0.00	0.00	0.00	0.00	0.00	0.00	0.00	0.25	0.00	0.00	0.00	0.00	0.00	0.00	-4.285645	-0.832031	0.367676	329.980011	-260.049988	-76.720001	3.00	0.00	0.00	0.00	0.00	0.00	0.00	0.00	0.00	2.50	0.50	15.25	11.75	10.25	8.75	6.50	17.25	6.25	6.50	-0.343750	0.087402	1.000000	0.910000	93.870003	-3.290000	871.00	0.27	0.01
3.57	0.00	0.00	0.00	0.00	0.00	0.00	0.00	0.00	0.00	0.00	0.00	0.00	0.00	0.00	0.00	0.00	-5.139160	-1.514648	-0.190918	328.230011	-212.940002	-67.690002	0.00	0.00	0.00	0.00	0.00	0.00	0.00	0.00	0.00	2.25	0.00	15.50	12.00	10.50	8.75	6.25	18.00	6.50	6.75	-0.367676	0.108398	0.977539	-0.700000	104.720001	-4.060000	877.00	0.28	0.02
3.58	0.00	0.00	0.00	0.00	0.00	0.00	0.00	0.00	0.00	0.25	0.00	0.00	0.00	0.00	0.00	0.00	-5.473145	-1.965332	-0.964844	210.070007	-152.600006	-47.599998	3.00	0.00	0.00	0.00	0.00	0.00	0.00	0.00	0.00	2.25	0.00	16.00	12.50	10.25	8.50	6.00	18.25	6.75	6.75	-0.377441	0.114746	0.964355	-3.430000	116.760002	-5.740000	886.00	0.28	0.02
3.59	0.00	0.00	0.00	0.00	0.00	0.00	0.00	0.00	0.00	0.00	0.00	0.00	0.00	0.00	0.00	0.00	-4.813965	-1.859863	-1.269531	25.620001	-66.220001	-43.330002	0.00	0.00	0.00	0.00	0.00	0.00	0.00	0.00	0.00	2.00	0.00	16.25	12.75	10.25	8.50	5.75	19.00	6.75	6.75	-0.401855	0.088379	1.005859	-6.860000	131.600006	-6.510000	892.00	0.28	0.03
3.60	0.00	0.00	0.00	0.00	0.00	0.00	0.00	0.00	0.00	0.25	0.00	0.00	0.00	0.00	0.00	0.00	-3.978027	-1.063477	-0.549805	-126.980003	24.920000	-57.540001	3.00	0.00	0.00	0.00	0.00	0.00	0.00	0.00	0.00	2.00	0.00	16.25	12.75	10.25	8.25	5.50	19.25	6.75	6.75	-0.453125	0.093262	1.037109	-13.230000	168.490005	-7.070000	889.00	0.28	0.03
3.61	0.00	0.00	0.00	0.00	0.00	0.00	0.00	0.00	0.00	0.00	0.00	0.00	0.00	0.00	0.00	0.00	-3.117676	-0.220703	0.684082	-186.759995	88.059998	-69.440002	0.00	0.00	0.00	0.00	0.00	0.00	0.00	0.00	0.00	1.75	0.00	16.25	12.75	10.00	8.00	5.00	19.50	6.75	7.00	-0.453125	0.093262	1.037109	-13.230000	168.490005	-7.070000	879.00	0.28	0.03
3.62	1.25	1.50	0.25	0.25	0.00	0.00	0.00	0.00	0.00	0.00	0.00	0.00	0.00	0.00	0.00	0.00	-0.592285	0.045410	7.447754	-183.539993	274.260010	-82.040001	32.00	0.00	0.00	0.00	0.00	0.00	0.00	0.00	0.00	1.75	0.00	16.00	12.75	9.75	8.00	4.50	20.00	7.00	7.00	-0.522461	0.119141	1.099609	-20.719999	217.000000	-12.670000	876.00	0.28	0.03
3.63	2.75	4.50	0.50	1.25	0.00	0.00	0.00	0.00	0.00	0.00	0.00	0.00	0.00	0.00	0.00	0.00	1.432129	0.998535	-1.742188	-138.039993	171.779999	-47.250000	89.00	-0.38	-0.07	0.00	0.00	0.00	0.00	0.00	0.00	2.00	0.00	15.50	12.75	9.50	7.75	4.00	20.25	7.00	7.00	-0.601074	0.149414	1.279297	-23.799999	241.639999	-16.799999	866.00	0.28	0.04
3.64	6.25	8.25	1.00	2.25	0.00	0.00	0.00	0.00	0.00	0.00	0.00	0.00	0.00	0.00	0.00	0.00	0.831055	0.319336	0.021973	-168.279999	153.089996	-28.840000	176.00	-0.38	-0.06	0.00	0.00	0.00	0.00	0.00	0.00	2.00	0.00	14.25	12.25	9.00	7.00	3.25	20.25	7.00	7.00	-0.647461	0.177734	1.286133	-28.420000	267.540009	-20.230000	825.00	0.29	0.04
3.65	9.25	14.25	1.25	3.00	0.00	0.00	0.00	0.00	0.00	0.00	0.00	0.00	0.00	0.00	0.00	0.00	0.011719	0.251953	-0.387207	-189.630005	203.419998	-15.260000	274.00	-0.39	-0.06	0.00	0.00	0.00	0.00	0.00	0.00	2.00	0.00	13.00	11.50	8.25	6.00	2.50	20.25	6.75	7.00	-0.766602	0.204102	1.375488	-31.920000	297.360016	-29.190001	773.00	0.29	0.05
3.66	15.00	20.75	1.75	4.50	0.00	0.00	0.00	0.00	0.00	0.00	0.00	0.00	0.00	0.00	0.00	0.00	-0.900879	0.466797	1.280273	-119.139999	259.980011	26.110001	415.00	-0.39	-0.06	0.00	0.00	0.00	0.00	0.00	0.00	2.00	0.00	11.00	10.50	7.50	4.75	2.00	20.75	6.75	7.00	-0.921875	0.132812	1.524902	-36.189999	328.579987	-41.860001	715.00	0.30	0.05
3.67	21.25	26.25	2.50	5.25	0.00	0.00	0.00	0.00	0.00	0.00	0.00	0.00	0.00	0.00	0.00	0.00	-0.856934	-0.584961	2.320312	-31.360001	299.950012	61.320000	547.00	-0.39	-0.05	0.00	0.00	0.00	0.00	0.00	0.00	1.75	0.00	9.25	9.25	5.75	3.50	1.25	20.50	6.50	6.75	-1.276367	0.057129	2.093262	-42.279999	357.000000	-48.650002	631.00	0.30	0.06
3.68	24.00	29.25	3.00	6.50	0.00	0.00	0.00	0.00	0.00	0.00	0.00	0.00	0.00	0.00	0.00	0.00	-0.820801	-0.816406	2.739258	11.410000	299.040009	49.070000	622.00	-0.39	-0.05	0.00	0.00	0.00	0.00	0.00	0.00	1.50	0.00	7.50	8.25	4.00	2.50	0.50	20.00	6.25	6.00	-1.335938	0.347168	2.649902	-50.119999	380.380005	-46.200001	548.00	0.31	0.07
3.69	26.00	31.25	3.25	8.00	0.00	0.00	0.00	0.00	0.00	0.00	0.00	0.00	0.00	0.00	0.00	0.00	-0.745605	-0.624512	2.457031	19.879999	276.500000	18.270000	681.00	-0.39	-0.05	0.00	0.00	0.00	0.00	0.00	0.00	1.25	0.00	6.25	7.50	2.75	1.50	0.50	19.00	5.50	5.25	-1.266602	0.710938	2.073730	-47.040001	411.739990	-51.939999	476.00	0.32	0.08
3.70	27.50	31.50	4.25	8.75	0.25	0.00	0.00	0.00	0.00	0.00	0.00	0.00	0.00	0.00	0.00	0.00	-0.354980	0.574219	1.571289	23.730000	232.050003	6.300000	721.00	-0.38	-0.05	0.00	0.00	0.00	0.00	0.00	0.00	0.75	0.00	5.00	6.00	1.75	1.00	0.00	17.00	5.00	4.75	-1.481934	0.622070	2.392578	-49.490002	478.940002	-80.989998	391.00	0.33	0.08
3.71	27.75	33.00	5.00	10.00	0.00	0.00	0.00	0.00	0.00	0.00	0.00	0.00	0.00	0.00	0.00	0.00	-0.345215	0.102539	1.384766	24.219999	218.470001	18.969999	756.00	-0.38	-0.05	0.00	0.00	0.00	0.00	0.00	0.00	0.25	0.00	3.50	4.50	1.50	1.00	0.00	14.50	4.00	3.75	-1.572754	0.636230	2.520508	-21.629999	504.000000	-97.230003	309.00	0.34	0.08
