# time	left pressure 1[N/cm²]	left pressure 2[N/cm²]	left pressure 3[N/cm²]	left pressure 4[N/cm²]	left pressure 5[N/cm²]	left pressure 6[N/cm²]	left pressure 7[N/cm²]	left pressure 8[N/cm²]	left pressure 9[N/cm²]	left pressure 10[N/cm²]	left pressure 11[N/cm²]	left pressure 12[N/cm²]	left pressure 13[N/cm²]	left pressure 14[N/cm²]	left pressure 15[N/cm²]	left pressure 16[N/cm²]	left acceleration X[g]	left acceleration Y[g]	left acceleration Z[g]	left angular X[dps]	left angular Y[dps]	left angular Z[dps]	left total force[N]	left center of pressure X[%]	left center of pressure Y[%]	right pressure 1[N/cm²]	right pressure 2[N/cm²]	right pressure 3[N/cm²]	right pressure 4[N/cm²]	right pressure 5[N/cm²]	right pressure 6[N/cm²]	right pressure 7[N/cm²]	right pressure 8[N/cm²]	right pressure 9[N/cm²]	right pressure 10[N/cm²]	right pressure 11[N/cm²]	right pressure 12[N/cm²]	right pressure 13[N/cm²]	right pressure 14[N/cm²]	right pressure 15[N/cm²]	right pressure 16[N/cm²]	right acceleration X[g]	right acceleration Y[g]	right acceleration Z[g]	right angular X[dps]	right angular Y[dps]	right angular Z[dps]	right total force[N]	right center of pressure X[%]	right center of pressure Y[%]
0.00	2.75	0.75	4.00	2.00	2.50	0.00	2.50	3.25	0.00	0.25	0.00	0.00	2.25	0.00	0.00	0.50	-0.169922	0.062500	0.963867	-6.930000	4.550000	0.420000	264.00	-0.12	-0.07																									
0.01	2.75	0.25	3.75	2.25	2.75	0.00	2.50	3.25	0.00	0.00	0.00	0.00	2.50	0.00	0.00	0.25	-0.172363	0.055176	0.961426	-5.950000	4.270000	0.630000	260.00	-0.12	-0.08																									
0.02	2.50	1.25	4.00	2.00	2.75	0.00	2.50	3.50	0.00	0.25	0.00	0.00	2.25	0.00	0.00	0.25	-0.166504	0.064453	0.961426	-5.180000	3.780000	0.770000	272.00	-0.12	-0.08																									
0.03	2.50	1.00	4.00	2.25	2.50	0.00	2.75	3.75	0.00	0.25	0.00	0.00	2.50	0.00	0.00	0.50	-0.169434	0.065918	0.954102	-5.040000	3.290000	0.910000	281.00	-0.11	-0.08																									
0.04	2.75	1.00	3.00	2.00	2.75	0.00	2.75	3.75	0.00	0.25	0.00	0.00	2.25	0.00	0.00	0.25	-0.171875	0.070312	0.953125	-5.250000	2.730000	0.910000	268.00	-0.11	-0.08	2.75	0.75	1.75	1.50	5.00	4.00	4.00	7.50	3.00	3.00	2.75	5.25	9.50	2.75	1.75	5.00	-0.095215	0.104980	0.969238	-2.030000	2.240000	-0.280000	710.00	0.06	-0.14
0.05	2.25	1.00	3.75	1.75	2.75	0.00	2.75	3.75	0.00	0.25	0.00	0.00	2.00	0.00	0.00	0.25	-0.170898	0.063965	0.962402	-5.390000	3.150000	0.840000	266.00	-0.11	-0.08	1.75	1.00	1.25	0.75	5.75	6.25	4.25	7.50	2.75	2.50	2.50	5.75	10.00	3.50	2.00	5.25	-0.096191	0.112305	0.961914	-2.100000	2.170000	-0.070000	736.00	0.07	-0.15
0.06	2.75	1.00	4.00	2.25	3.00	0.00	2.75	3.75	0.00	0.25	0.00	0.00	2.75	0.00	0.00	0.50	-0.171875	0.067871	0.957031	-5.320000	3.500000	0.770000	292.00	-0.11	-0.08	4.50	2.25	3.75	2.50	5.75	6.00	4.25	7.50	3.00	2.75	3.00	5.50	9.50	2.25	1.75	5.25	-0.099121	0.105957	0.968262	-2.660000	1.890000	-0.140000	818.00	0.02	-0.13
0.07	2.50	0.50	4.00	2.25	2.75	0.00	2.75	4.25	0.25	0.25	0.00	0.00	2.00	0.00	0.00	0.50	-0.167480	0.067383	0.958496	-5.110000	3.850000	0.840000	286.00	-0.10	-0.08	2.75	1.00	1.75	1.50	5.00	5.25	4.00	7.00	1.75	1.75	1.75	4.50	9.75	2.25	1.00	4.25	-0.096191	0.109375	0.969238	-3.080000	1.470000	-0.280000	652.00	0.04	-0.15
0.08	2.50	0.75	3.75	2.00	2.75	0.00	2.75	3.75	0.50	0.50	0.00	0.00	2.00	0.00	0.00	0.50	-0.165527	0.060059	0.957031	-4.690000	4.130000	0.910000	281.00	-0.10	-0.06	2.75	1.00	2.00	1.50	5.00	5.50	4.00	7.25	1.75	1.75	1.75	4.25	9.50	2.50	1.25	4.50	-0.095703	0.111816	0.971191	-3.430000	0.420000	-0.070000	663.00	0.04	-0.15
0.09	2.50	0.50	4.00	1.75	2.75	0.00	2.75	3.75	0.50	0.25	0.00	0.00	2.00	0.00	0.00	0.25	-0.168945	0.058594	0.956543	-4.200000	4.410000	0.980000	274.00	-0.10	-0.06	2.50	0.75	2.00	1.50	5.00	5.25	4.00	7.00	1.50	1.75	1.75	4.50	9.25	2.25	0.75	4.25	-0.093750	0.111328	0.978027	-4.130000	0.140000	-0.420000	638.00	0.03	-0.15
0.10	2.50	0.50	3.75	2.00	2.75	0.00	3.00	3.75	0.25	0.25	0.00	0.00	2.25	0.00	0.00	0.75	-0.169922	0.059082	0.965820	-3.500000	4.550000	1.120000	280.00	-0.10	-0.07	1.25	0.50	1.00	0.75	5.25	5.25	4.25	7.50	2.75	2.25	2.25	4.25	9.50	2.50	1.75	5.25	-0.097656	0.111816	0.977051	-4.620000	0.000000	-0.630000	664.00	0.07	-0.15
0.11	2.25	0.75	3.75	1.75	2.75	0.00	2.75	3.75	0.50	0.25	0.00	0.00	2.25	0.00	0.00	0.50	-0.166016	0.063965	0.956543	-2.870000	4.690000	1.260000	275.00	-0.09	-0.07	3.75	1.75	2.75	2.25	6.25	6.00	4.25	7.50	2.25	2.50	2.50	6.25	10.75	3.75	2.00	5.25	-0.094727	0.105957	0.983398	-5.040000	0.140000	-0.490000	813.00	0.04	-0.14
0.12	2.50	1.25	3.75	1.75	3.00	0.00	2.75	4.00	0.50	0.50	0.00	0.00	2.75	0.00	0.00	0.50	-0.165527	0.059570	0.958496	-2.240000	4.480000	1.330000	297.00	-0.09	-0.08	4.25	2.00	3.75	2.50	6.50	6.00	4.75	8.00	3.50	3.00	2.75	6.25	11.00	4.00	2.75	5.25	-0.094727	0.106445	0.980469	-4.760000	0.420000	-0.350000	896.00	0.04	-0.12
0.13	2.50	1.00	4.00	2.25	2.75	0.00	2.75	4.00	0.25	0.50	0.00	0.00	3.00	0.00	0.00	0.50	-0.169922	0.058105	0.956543	-2.240000	4.270000	1.330000	299.00	-0.10	-0.09	5.00	2.25	3.50	2.75	6.75	6.00	4.75	8.25	3.50	2.75	2.75	5.25	10.25	4.00	2.50	5.25	-0.098633	0.102539	0.973633	-4.270000	0.630000	-0.350000	890.00	0.03	-0.12
0.14	2.25	0.75	4.25	2.00	2.75	0.00	2.75	4.00	0.50	0.00	0.00	0.00	2.50	0.00	0.00	0.50	-0.166504	0.065430	0.955566	-2.940000	4.690000	1.050000	287.00	-0.10	-0.08	2.50	0.75	3.25	3.00	6.75	6.25	4.50	8.25	3.25	3.25	2.50	6.50	11.25	3.50	2.25	5.25	-0.098145	0.104980	0.974609	-3.570000	0.630000	0.070000	861.00	0.05	-0.14
0.15	2.25	0.75	4.00	2.25	2.75	0.00	2.75	4.00	0.25	0.25	0.00	0.00	3.00	0.00	0.00	0.50	-0.168945	0.060547	0.961914	-3.780000	4.970000	0.840000	291.00	-0.10	-0.09	3.00	1.00	2.00	1.50	5.75	5.75	4.50	8.00	3.25	3.00	2.50	6.50	11.00	3.75	1.25	4.00	-0.098145	0.108887	0.975586	-3.150000	0.840000	-0.000000	792.00	0.06	-0.14
0.16	2.25	1.00	3.75	1.50	3.00	0.00	2.75	4.00	0.25	0.50	0.00	0.00	2.75	0.00	0.00	0.50	-0.174805	0.063965	0.964355	-4.200000	5.040000	0.770000	285.00	-0.09	-0.08	4.75	2.00	3.75	2.75	5.75	5.00	4.25	7.50	1.75	1.75	1.50	5.00	10.25	2.50	1.25	4.00	-0.090820	0.109863	0.971191	-2.660000	0.840000	0.210000	754.00	0.00	-0.14
0.17	2.50	0.75	3.75	1.75	2.75	0.00	2.75	4.00	0.50	0.50	0.00	0.00	2.75	0.00	0.00	0.50	-0.173828	0.059082	0.952637	-4.270000	5.250000	0.770000	289.00	-0.09	-0.08	2.00	1.00	2.25	1.25	6.00	5.25	4.25	7.50	1.50	2.00	2.00	5.50	10.00	2.50	1.50	4.25	-0.092285	0.107910	0.971191	-2.590000	0.840000	0.070000	695.00	0.05	-0.15
0.18	2.25	0.75	3.75	1.75	2.75	0.00	3.00	4.25	0.50	0.25	0.00	0.00	3.00	0.00	0.00	0.50	-0.167969	0.064453	0.961426	-4.200000	5.250000	0.840000	294.00	-0.08	-0.08	4.50	2.25	3.75	2.75	6.75	6.25	4.75	8.50	3.25	2.25	1.75	5.00	10.00	3.00	2.50	5.25	-0.095703	0.107910	0.977051	-2.800000	1.190000	-0.070000	859.00	0.02	-0.13
0.19	2.00	0.50	3.75	1.50	3.00	0.00	3.00	4.00	0.50	0.50	0.00	0.00	3.25	0.00	0.00	0.50	-0.168945	0.058594	0.958496	-4.200000	5.390000	0.770000	290.00	-0.07	-0.08	2.50	1.00	2.00	1.25	5.75	4.50	4.50	7.75	1.75	2.00	1.50	4.75	10.00	2.50	0.75	4.00	-0.100586	0.106445	0.973145	-2.940000	1.470000	-0.000000	673.00	0.04	-0.15
0.20	2.50	0.50	3.75	1.50	2.75	0.00	2.75	3.75	0.50	0.50	0.00	0.00	2.75	0.00	0.00	0.50	-0.168945	0.057617	0.954102	-3.500000	5.390000	0.910000	279.00	-0.08	-0.07	2.25	0.50	1.00	0.75	5.75	4.25	4.50	7.50	1.50	1.50	1.75	5.50	10.75	3.50	2.00	4.75	-0.095703	0.111328	0.974121	-3.080000	1.400000	-0.000000	677.00	0.07	-0.16
0.21	2.00	0.50	3.50	1.50	3.00	0.00	2.75	4.00	0.50	0.50	0.00	0.25	2.75	0.00	0.00	0.75	-0.167969	0.058594	0.955078	-3.430000	5.250000	0.980000	282.00	-0.07	-0.08	2.25	0.50	1.00	0.75	5.50	4.50	4.50	7.75	1.50	1.50	1.25	4.75	10.00	2.50	1.00	4.00	-0.094238	0.107422	0.977051	-3.430000	1.540000	-0.280000	635.00	0.05	-0.16
0.22	2.00	0.75	3.50	1.50	3.00	0.00	3.00	4.00	0.25	0.50	0.00	0.00	3.00	0.00	0.00	0.75	-0.166016	0.059082	0.959473	-3.500000	5.180000	1.120000	285.00	-0.08	-0.08	1.75	0.75	0.50	1.00	5.75	5.00	4.50	7.75	2.50	2.25	1.50	5.00	10.25	2.75	1.25	4.00	-0.100586	0.111328	0.978516	-3.570000	1.610000	-0.490000	673.00	0.06	-0.15
0.23	2.00	0.50	3.75	1.50	2.75	0.00	3.00	4.00	0.25	0.50	0.00	0.00	2.75	0.00	0.00	0.75	-0.166016	0.062012	0.955078	-3.570000	4.900000	1.190000	280.00	-0.08	-0.08	2.75	1.00	1.75	1.25	5.50	5.00	4.50	7.75	1.50	1.75	1.50	4.75	10.25	2.75	1.00	4.25	-0.094727	0.105469	0.975098	-3.570000	1.470000	-0.420000	678.00	0.04	-0.15
0.24	2.00	0.25	3.50	1.75	3.00	0.00	3.00	4.00	0.75	0.50	0.00	0.00	2.75	0.00	0.00	0.75	-0.171387	0.061523	0.961426	-3.500000	4.900000	1.120000	288.00	-0.07	-0.07	2.75	1.00	2.00	1.50	5.75	4.75	4.75	7.75	1.75	1.75	1.50	5.00	10.25	2.50	1.00	4.25	-0.095215	0.106445	0.973633	-3.500000	1.470000	-0.420000	693.00	0.04	-0.15
0.25	2.25	0.00	3.75	1.00	2.75	0.00	2.75	4.00	0.50	0.75	0.00	0.00	3.00	0.00	0.00	0.75	-0.168457	0.057617	0.966797	-3.430000	4.830000	1.120000	276.00	-0.06	-0.08	2.50	1.00	1.75	1.25	5.75	4.75	4.50	7.75	2.00	1.75	1.50	4.50	10.00	2.25	1.00	4.00	-0.095703	0.107910	0.970703	-3.290000	1.190000	-0.350000	671.00	0.04	-0.15
0.26	2.00	0.25	3.75	1.25	3.00	0.00	3.00	4.00	0.75	0.75	0.00	0.00	3.00	0.00	0.00	0.75	-0.171387	0.057617	0.961914	-3.360000	4.830000	1.120000	290.00	-0.06	-0.07	2.50	1.00	1.75	1.50	5.75	4.75	4.50	7.75	1.75	1.50	1.25	4.75	10.25	2.50	1.00	4.25	-0.098145	0.109863	0.981934	-3.220000	0.630000	-0.280000	674.00	0.04	-0.15
0.27	1.75	0.25	3.75	1.50	3.00	0.00	3.00	4.25	0.75	0.50	0.00	0.00	2.75	0.00	0.00	0.50	-0.168457	0.061523	0.963379	-3.290000	4.760000	1.120000	287.00	-0.06	-0.07	2.75	1.00	1.75	1.25	5.75	5.00	4.50	7.75	1.75	1.75	1.50	4.50	10.25	2.75	1.00	4.25	-0.095703	0.106445	0.974609	-2.940000	0.140000	-0.280000	682.00	0.04	-0.15
0.28	2.00	0.25	3.50	1.50	3.00	0.00	3.25	4.00	0.75	0.50	0.00	0.00	3.00	0.00	0.00	0.75	-0.166992	0.058594	0.959473	-3.430000	5.040000	1.260000	291.00	-0.06	-0.07	2.50	1.00	1.75	1.25	5.75	4.75	4.50	7.75	1.75	1.75	1.50	4.75	10.25	2.75	1.00	4.25	-0.101074	0.113281	0.981445	-2.800000	0.000000	-0.350000	679.00	0.04	-0.15
0.29	2.00	0.25	3.50	1.00	3.00	0.00	3.00	4.00	0.25	0.50	0.00	0.00	3.00	0.00	0.00	0.75	-0.169434	0.062012	0.967285	-3.290000	5.110000	1.330000	274.00	-0.06	-0.08	2.50	0.75	1.75	1.25	5.50	4.25	4.50	7.50	2.00	1.75	1.75	4.25	9.75	2.75	0.75	4.25	-0.093262	0.106934	0.979980	-3.010000	0.280000	-0.280000	657.00	0.04	-0.14
0.30	2.00	0.50	3.50	1.25	3.00	0.00	3.25	4.00	0.50	0.50	0.00	0.00	2.75	0.00	0.00	0.75	-0.171875	0.062500	0.965332	-2.870000	5.180000	1.400000	285.00	-0.07	-0.07	2.25	0.75	1.25	1.25	5.50	4.50	4.50	7.75	1.75	1.75	1.50	4.50	10.25	2.75	0.75	4.25	-0.096680	0.112305	0.979492	-2.940000	0.490000	-0.070000	656.00	0.05	-0.15
0.31	2.00	0.25	3.50	1.50	3.00	0.00	3.25	4.00	0.75	0.75	0.00	0.25	3.00	0.00	0.00	0.75	-0.173828	0.056641	0.960449	-2.800000	4.970000	1.400000	297.00	-0.05	-0.07	1.25	0.00	0.75	0.50	5.50	4.00	4.50	7.50	1.75	1.75	1.75	4.75	10.25	2.75	1.25	4.25	-0.098633	0.113281	0.979492	-3.010000	0.630000	-0.140000	623.00	0.08	-0.16
0.32	2.25	0.50	3.75	1.50	3.00	0.00	3.25	4.00	0.75	0.75	0.00	0.00	2.50	0.00	0.00	0.75	-0.173340	0.056641	0.961426	-2.660000	4.900000	1.400000	298.00	-0.07	-0.06	2.75	1.00	1.75	1.25	6.00	5.00	4.50	7.75	2.25	1.75	1.50	4.50	10.25	3.00	1.25	4.25	-0.090332	0.108887	0.976074	-3.080000	0.630000	-0.070000	697.00	0.04	-0.14
0.33	2.25	0.75	3.75	1.75	3.00	0.00	3.00	3.75	0.75	0.50	0.00	0.00	3.00	0.00	0.00	0.50	-0.166504	0.061035	0.962402	-2.520000	4.900000	1.400000	295.00	-0.08	-0.07	2.75	0.75	1.25	0.25	5.75	5.50	5.00	8.50	3.50	3.00	2.75	6.50	11.25	4.25	2.50	5.50	-0.090820	0.104004	0.970703	-3.080000	0.980000	-0.210000	813.00	0.08	-0.14
0.34	2.50	0.75	3.50	1.50	3.00	0.00	3.00	3.75	0.50	0.50	0.00	0.00	2.75	0.00	0.00	0.75	-0.165527	0.057617	0.955078	-2.660000	4.970000	1.330000	288.00	-0.08	-0.07	4.75	2.00	3.25	2.50	6.75	5.75	5.00	8.50	3.25	3.00	2.50	6.50	11.25	4.25	2.50	5.25	-0.097656	0.108887	0.975586	-3.150000	0.980000	-0.000000	906.00	0.04	-0.13
0.35	2.00	0.50	3.75	1.50	3.00	0.00	3.00	4.25	0.75	0.25	0.00	0.00	3.00	0.00	0.00	0.50	-0.164551	0.062012	0.959961	-3.010000	4.550000	1.190000	292.00	-0.07	-0.08	1.75	0.25	0.75	0.75	5.25	3.75	4.75	7.50	1.75	1.75	1.75	5.25	10.00	2.75	1.25	4.25	-0.099609	0.106934	0.982910	-3.010000	0.840000	0.070000	636.00	0.07	-0.15
0.36	2.00	0.75	3.50	2.00	3.00	0.00	3.00	3.75	0.75	0.50	0.00	0.00	3.25	0.00	0.00	0.75	-0.170898	0.060059	0.960449	-3.290000	4.550000	1.120000	296.00	-0.07	-0.08	0.75	0.25	0.75	0.25	5.25	4.00	4.75	7.50	1.75	1.75	1.50	4.75	10.00	2.50	1.00	4.50	-0.097656	0.109863	0.973145	-2.730000	0.350000	0.210000	609.00	0.08	-0.16
0.37	2.50	0.25	3.75	1.75	3.00	0.00	3.00	4.00	0.25	0.75	0.00	0.00	2.75	0.00	0.00	0.50	-0.171875	0.056152	0.964355	-3.360000	4.830000	1.050000	290.00	-0.08	-0.07	4.50	2.00	3.50	2.75	6.75	5.50	5.00	8.50	3.50	3.00	2.50	6.75	11.25	4.25	2.50	5.25	-0.086426	0.104980	0.977051	-2.380000	0.210000	0.070000	913.00	0.04	-0.13
0.38	2.25	0.50	4.00	1.25	3.00	0.00	3.00	3.75	0.50	0.50	0.00	0.00	2.75	0.00	0.00	0.50	-0.171387	0.059570	0.956543	-3.220000	4.970000	0.980000	284.00	-0.08	-0.06	5.00	2.25	3.25	2.50	6.75	5.50	5.00	7.75	2.00	1.75	1.50	5.00	10.25	3.00	1.00	4.50	-0.095215	0.108887	0.972168	-2.310000	-0.070000	0.070000	793.00	0.00	-0.13
0.39	2.25	0.75	3.75	1.50	3.00	0.00	3.00	4.00	0.50	0.25	0.00	0.00	2.75	0.00	0.00	0.50	-0.173340	0.057129	0.960938	-3.080000	5.180000	1.120000	288.00	-0.08	-0.07	2.00	0.75	1.50	1.00	5.75	4.50	5.00	7.75	1.75	1.50	1.25	5.00	10.00	2.50	0.75	4.75	-0.098145	0.111816	0.978516	-2.520000	0.070000	-0.000000	663.00	0.05	-0.15
0.40	2.25	0.50	3.75	1.50	3.00	0.00	3.00	3.50	0.50	0.50	0.00	0.00	2.75	0.00	0.00	0.75	-0.169434	0.054199	0.964844	-2.870000	4.900000	1.190000	281.00	-0.08	-0.06	1.25	0.25	1.25	1.00	5.75	4.50	5.00	7.75	2.00	2.25	1.75	5.25	10.25	3.25	1.25	4.50	-0.098145	0.109863	0.975098	-2.730000	0.000000	-0.000000	680.00	0.07	-0.15
0.41	2.00	0.25	3.50	1.50	3.00	0.00	3.00	3.50	0.50	0.50	0.00	0.00	2.75	0.00	0.00	0.50	-0.174316	0.057129	0.960449	-2.730000	4.690000	1.400000	271.00	-0.07	-0.06	4.50	2.00	3.50	2.50	6.75	5.75	5.00	8.50	3.25	2.75	2.50	5.25	10.00	2.75	0.75	4.25	-0.097656	0.110352	0.976074	-3.080000	0.000000	0.070000	838.00	0.02	-0.12
0.42	2.25	0.75	3.75	1.50	2.75	0.00	3.25	3.50	0.50	0.25	0.00	0.00	3.00	0.00	0.00	0.75	-0.170898	0.057617	0.965332	-2.730000	4.830000	1.400000	284.00	-0.08	-0.07	1.25	0.25	1.25	1.50	5.75	3.75	5.00	7.50	1.75	1.50	1.50	4.75	10.00	2.75	0.75	4.00	-0.097656	0.111328	0.978027	-3.360000	0.210000	0.070000	637.00	0.06	-0.15
0.43	2.50	0.25	3.50	1.25	3.00	0.00	3.25	3.75	0.50	0.50	0.00	0.00	2.75	0.00	0.00	0.75	-0.167969	0.060547	0.965332	-2.800000	4.970000	1.400000	284.00	-0.07	-0.06	2.50	0.75	1.75	1.25	6.00	4.75	5.00	7.75	1.50	1.75	1.50	4.50	10.00	2.75	1.00	4.00	-0.101074	0.107910	0.985840	-3.290000	0.350000	0.140000	677.00	0.04	-0.15
0.44	1.75	0.75	3.50	1.50	3.00	0.00	3.25	3.25	0.50	0.25	0.00	0.00	2.50	0.00	0.00	0.50	-0.169434	0.057129	0.958008	-2.870000	5.110000	1.400000	268.00	-0.08	-0.06	3.00	1.00	1.75	1.25	6.00	4.75	5.00	7.75	1.50	2.00	2.25	5.75	11.00	4.25	2.25	5.00	-0.098145	0.099121	0.977051	-3.150000	0.350000	0.490000	755.00	0.06	-0.14
0.45	1.75	0.75	3.75	1.50	3.00	0.00	3.25	3.75	0.25	0.50	0.00	0.00	2.50	0.00	0.00	0.50	-0.169434	0.054199	0.957520	-2.940000	4.900000	1.400000	279.00	-0.08	-0.07	2.00	0.50	1.25	2.50	6.75	5.25	5.00	7.75	1.75	1.50	1.25	4.75	10.25	2.75	1.00	4.00	-0.100586	0.107910	0.981934	-2.800000	0.420000	0.560000	696.00	0.04	-0.15
0.46	1.75	0.50	3.75	1.25	3.00	0.00	3.25	3.50	0.50	0.75	0.00	0.00	2.00	0.00	0.00	0.50	-0.174805	0.063477	0.960449	-3.150000	4.760000	1.400000	271.00	-0.07	-0.05	2.75	0.75	1.50	1.00	5.75	4.50	5.00	7.75	1.25	1.50	1.00	4.50	9.75	2.75	0.75	3.75	-0.094238	0.107422	0.978027	-2.590000	0.000000	0.770000	649.00	0.04	-0.15
0.47	2.50	0.50	3.50	1.25	2.75	0.00	3.25	3.50	0.50	0.50	0.00	0.00	2.50	0.00	0.00	0.50	-0.171387	0.055664	0.967285	-3.220000	4.760000	1.470000	275.00	-0.08	-0.05	2.00	0.25	0.75	0.50	5.50	4.25	5.00	7.50	1.75	1.50	1.25	4.25	9.75	2.75	1.00	4.25	-0.093750	0.106934	0.962402	-2.870000	-0.280000	0.840000	624.00	0.06	-0.15
0.48	2.25	0.75	3.50	1.50	3.00	0.00	3.25	3.25	0.50	0.50	0.00	0.00	2.25	0.00	0.00	0.50	-0.180176	0.055664	0.972656	-2.100000	4.970000	1.470000	274.00	-0.08	-0.05	2.25	1.00	1.75	1.50	6.25	5.00	5.00	8.00	2.50	2.00	1.75	5.00	10.50	3.75	1.50	4.50	-0.094238	0.114746	0.974121	-3.080000	-0.770000	0.910000	739.00	0.05	-0.14
0.49	2.25	0.75	3.75	1.50	2.75	0.00	3.25	3.25	0.50	0.00	0.00	0.00	2.50	0.00	0.00	0.50	-0.171875	0.059082	0.954590	-1.120000	5.180000	1.680000	271.00	-0.09	-0.05	3.00	1.25	2.00	1.50	6.25	5.25	5.00	8.00	2.50	2.25	1.50	5.00	10.25	3.25	1.50	4.25	-0.092773	0.110352	0.980957	-3.640000	-0.630000	0.630000	747.00	0.04	-0.14
0.50	2.50	0.25	3.75	1.50	2.75	0.00	3.25	3.25	0.50	0.00	0.00	0.00	2.00	0.00	0.00	0.50	-0.171875	0.054199	0.958496	-1.260000	5.180000	1.680000	264.00	-0.09	-0.04	3.75	1.50	3.00	2.25	6.50	5.25	5.00	8.00	2.00	2.00	1.75	5.00	10.25	3.50	1.50	4.50	-0.091797	0.104004	0.982910	-3.850000	-0.560000	0.420000	779.00	0.03	-0.13
0.51	2.25	0.50	3.75	1.75	3.00	0.00	3.25	3.25	0.50	0.25	0.00	0.00	2.00	0.00	0.00	0.50	-0.170898	0.057129	0.963379	-1.540000	5.250000	1.750000	273.00	-0.09	-0.04	3.50	1.50	2.50	2.00	6.50	5.25	5.00	8.00	2.75	2.00	1.75	5.00	10.25	3.75	1.75	4.25	-0.091797	0.108887	0.980469	-3.920000	-0.490000	0.560000	782.00	0.04	-0.13
0.52	2.25	0.75	4.00	1.50	3.00	0.00	3.25	3.25	0.25	0.50	0.00	0.00	1.75	0.00	0.00	0.50	-0.170898	0.061523	0.962891	-1.540000	5.600000	1.890000	272.00	-0.10	-0.04	3.25	1.50	2.75	2.25	6.75	5.50	5.00	8.25	3.00	2.25	1.75	5.00	10.50	4.00	1.75	4.50	-0.097168	0.106445	0.983398	-3.850000	-0.560000	0.560000	808.00	0.04	-0.13
0.53	2.50	1.00	3.75	2.00	3.00	0.00	3.25	3.25	0.50	0.25	0.00	0.00	1.75	0.00	0.00	0.50	-0.173828	0.063477	0.964355	-1.400000	5.670000	1.960000	281.00	-0.10	-0.04	4.00	2.00	3.25	2.50	6.75	5.50	5.00	8.25	2.75	2.25	1.75	5.00	10.50	4.00	2.00	4.25	-0.095703	0.106934	0.979004	-3.570000	0.000000	0.490000	828.00	0.03	-0.13
0.54	2.50	1.00	4.00	1.75	3.00	0.00	3.25	3.25	0.25	0.25	0.00	0.00	1.75	0.00	0.00	0.25	-0.173340	0.058594	0.967285	-1.400000	5.460000	1.960000	276.00	-0.11	-0.04	5.00	2.50	4.00	3.00	7.25	6.00	5.00	8.25	3.00	2.25	1.75	5.00	10.75	3.75	1.50	4.50	-0.090332	0.104492	0.977539	-3.430000	0.070000	0.700000	871.00	0.01	-0.12
0.55	2.50	1.25	4.25	2.00	3.00	0.00	3.25	3.00	0.25	0.25	0.00	0.00	2.00	0.00	0.00	0.50	-0.179199	0.056152	0.964844	-0.070000	5.390000	2.310000	284.00	-0.11	-0.04	4.25	1.75	3.75	2.75	7.00	5.75	5.00	8.25	2.75	2.00	1.75	4.75	10.50	3.75	1.75	4.25	-0.093262	0.105957	0.981934	-3.500000	-0.140000	0.980000	832.00	0.02	-0.12
0.56	3.00	1.25	4.25	2.25	3.00	0.00	3.25	3.00	0.00	0.25	0.00	0.00	2.25	0.00	0.00	0.25	-0.183105	0.063965	0.958984	2.100000	5.670000	2.730000	290.00	-0.13	-0.05	4.25	1.75	3.50	2.50	7.00	5.75	5.00	8.00	2.75	2.00	1.50	5.00	10.25	3.75	1.75	4.25	-0.092773	0.107910	0.979980	-3.430000	-0.280000	1.050000	820.00	0.02	-0.12
0.57	2.50	1.25	4.25	2.75	2.75	0.00	3.00	3.00	0.00	0.00	0.00	0.00	1.50	0.00	0.00	0.25	-0.173828	0.062500	0.962402	2.800000	5.950000	3.010000	274.00	-0.14	-0.05	5.00	2.25	3.75	2.50	6.75	5.75	5.00	8.00	2.50	1.75	1.25	4.50	10.00	3.00	1.25	3.75	-0.094238	0.106934	0.979492	-3.220000	-0.420000	1.260000	800.00	0.00	-0.12
0.58	3.50	1.75	4.50	3.00	3.00	0.00	3.00	3.00	0.25	0.00	0.00	0.00	1.50	0.00	0.00	0.25	-0.178711	0.062988	0.960938	3.780000	5.950000	3.290000	303.00	-0.15	-0.04	3.75	1.25	4.25	3.25	7.25	6.75	5.00	8.25	2.50	1.50	1.25	4.25	9.75	3.00	1.00	3.00	-0.100586	0.106934	0.979004	-3.220000	-0.350000	1.400000	798.00	-0.00	-0.13
0.59	3.25	1.75	4.75	3.00	3.00	0.00	3.25	3.00	0.00	0.25	0.00	0.00	1.00	0.00	0.00	0.25	-0.178223	0.059570	0.968262	6.510000	5.390000	3.780000	302.00	-0.15	-0.04	4.25	1.75	4.00	3.25	7.25	6.25	5.00	8.25	2.50	1.50	1.25	4.25	9.75	3.00	1.25	3.25	-0.097168	0.108887	0.979492	-2.660000	-0.420000	1.400000	804.00	-0.00	-0.13
0.60	3.75	2.50	5.00	3.50	2.75	0.00	3.25	2.50	0.00	0.00	0.00	0.00	1.00	0.00	0.00	0.00	-0.186523	0.061035	0.968750	9.170000	4.550000	4.270000	308.00	-0.18	-0.03	5.25	2.75	4.50	3.50	7.50	6.75	5.00	8.25	2.75	2.00	1.50	4.50	10.25	3.50	1.75	3.25	-0.096191	0.109863	0.983398	-1.890000	-0.560000	1.610000	874.00	-0.01	-0.12
0.61	4.25	3.00	5.25	4.00	2.50	0.00	3.00	2.75	0.00	0.00	0.00	0.00	0.25	0.00	0.00	0.00	-0.180664	0.069824	0.986328	13.370000	3.360000	5.040000	318.00	-0.20	-0.03	5.50	2.75	5.50	4.25	7.75	7.00	5.00	8.25	2.75	1.75	1.50	4.25	10.00	3.25	1.75	3.00	-0.096680	0.110352	0.976562	-1.610000	-0.910000	2.100000	892.00	-0.02	-0.12
0.62	4.75	3.50	5.25	4.25	2.75	0.00	3.00	2.50	0.00	0.00	0.00	0.00	0.25	0.00	0.00	0.00	-0.187500	0.072754	0.979980	20.650000	0.910000	5.810000	330.00	-0.21	-0.03	5.75	3.00	5.50	5.00	7.75	6.25	5.00	7.75	2.50	2.00	1.25	4.00	9.75	3.25	1.50	2.75	-0.101074	0.101074	0.985352	-0.910000	-0.980000	2.520000	876.00	-0.03	-0.11
0.63	5.25	4.50	6.00	5.00	2.50	0.00	3.00	2.50	0.00	0.00	0.00	0.00	0.00	0.00	0.00	0.00	-0.177246	0.076660	0.970703	24.850000	-1.680000	5.740000	359.00	-0.22	-0.03	5.50	3.25	5.50	4.75	7.75	7.00	5.00	8.25	2.00	1.50	1.00	3.25	9.00	2.50	1.50	2.00	-0.095703	0.111328	0.987305	0.840000	-1.260000	2.590000	847.00	-0.04	-0.12
0.64	5.25	5.00	6.00	5.50	2.50	0.00	3.00	2.00	0.00	0.00	0.00	0.00	0.00	0.00	0.00	0.00	-0.190918	0.089844	1.012695	26.670000	-6.930000	5.460000	362.00	-0.23	-0.03	6.00	3.50	5.00	3.00	6.75	6.50	5.00	7.75	2.00	1.50	1.00	3.25	9.00	2.75	1.25	2.00	-0.108887	0.111816	0.995117	4.130000	-1.750000	2.800000	801.00	-0.04	-0.11
0.65	6.00	5.50	6.50	5.50	2.50	0.00	2.75	2.00	0.00	0.00	0.00	0.00	0.00	0.00	0.00	0.00	-0.152832	0.078613	0.958984	21.770000	-7.630000	4.340000	377.00	-0.24	-0.03	6.25	3.75	7.50	5.25	7.75	7.00	5.00	7.75	1.50	1.50	0.75	2.00	8.50	2.50	1.50	1.75	-0.112793	0.106445	0.992188	5.810000	-2.590000	2.730000	852.00	-0.07	-0.11
0.66	7.25	5.75	6.50	5.75	2.50	0.00	2.75	2.00	0.00	0.00	0.00	0.00	0.75	0.00	0.00	0.00	-0.147949	0.061035	0.968750	20.719999	-7.770000	3.710000	404.00	-0.24	-0.03	6.50	4.25	7.75	6.25	7.75	7.25	4.75	7.75	2.25	1.25	0.75	2.50	8.00	2.00	1.50	1.50	-0.097656	0.105469	0.985352	7.770000	-3.500000	3.080000	876.00	-0.07	-0.11
0.67	7.00	6.00	6.75	6.50	2.50	0.00	2.75	1.75	0.00	0.00	0.00	0.00	0.00	0.00	0.00	0.00	-0.220215	0.057617	0.960938	21.840000	-7.700000	2.940000	404.00	-0.25	-0.03	6.25	4.25	7.50	6.25	7.75	7.25	4.75	7.50	1.50	1.00	0.50	2.25	7.25	1.50	1.25	1.25	-0.070312	0.116211	0.991211	9.030000	-1.680000	3.640000	831.00	-0.09	-0.11
0.68	7.25	6.25	7.00	6.50	2.50	0.00	2.75	1.50	0.00	0.00	0.00	0.00	0.00	0.00	0.00	0.50	-0.157715	0.107422	0.981934	20.650000	-7.070000	2.100000	412.00	-0.25	-0.02	10.50	6.50	9.00	8.25	8.00	7.75	4.75	7.75	2.00	1.25	1.00	2.25	7.50	1.75	1.50	1.50	-0.077148	0.119629	0.983398	10.920000	-3.920000	3.150000	982.00	-0.11	-0.10
0.69	11.75	9.25	9.00	9.00	4.00	2.00	3.00	3.00	0.50	0.25	0.00	0.00	1.00	0.25	0.00	0.50	-0.178223	0.109375	0.900391	18.549999	-6.720000	1.750000	640.00	-0.24	-0.05	9.75	6.25	8.25	7.25	7.50	7.25	4.50	7.25	1.50	0.75	0.25	1.75	5.50	1.00	0.75	1.00	-0.083496	0.105469	0.987305	13.440001	-4.060000	2.520000	861.00	-0.13	-0.09
0.70	12.00	9.75	9.00	9.00	4.00	2.00	3.00	3.00	0.25	0.00	0.00	0.00	1.00	0.25	0.00	0.50	-0.139160	0.108398	0.955566	15.400000	-5.670000	1.540000	641.00	-0.25	-0.05	11.25	7.00	9.25	8.75	7.50	7.25	4.75	7.50	1.50	1.25	0.50	2.00	5.75	1.25	1.00	1.25	-0.100098	0.129883	1.004883	16.240000	-5.950000	2.380000	944.00	-0.13	-0.09
0.71	12.50	9.75	9.00	9.25	3.75	2.00	3.00	2.75	0.25	0.00	0.00	0.00	0.00	0.00	0.00	0.00	-0.162598	0.110352	1.008301	12.950000	-5.670000	1.540000	628.00	-0.26	-0.04	12.50	7.00	8.00	7.75	6.75	7.50	4.50	7.50	1.25	0.75	0.50	0.50	5.25	1.25	0.75	0.75	-0.085938	0.122559	0.989258	19.320000	-9.870000	2.800000	884.00	-0.15	-0.09
0.72	8.50	8.25	7.50	7.75	2.50	0.00	2.75	0.75	0.00	0.00	0.00	0.00	0.00	0.00	0.00	0.00	-0.187500	0.093262	0.941895	11.690000	-7.560000	1.400000	451.00	-0.28	-0.02	11.50	7.00	8.25	8.25	7.25	7.75	4.50	7.25	1.25	0.75	0.50	1.25	4.00	1.00	0.50	0.50	-0.079102	0.132324	0.989258	20.790001	-12.040000	2.800000	876.00	-0.15	-0.09
0.73	8.25	8.25	7.50	7.75	2.25	0.00	2.75	0.50	0.00	0.00	0.00	0.00	0.00	0.00	0.00	0.00	-0.135742	0.123535	0.943359	9.240000	-7.000000	0.910000	441.00	-0.28	-0.02	13.50	8.25	8.75	9.00	6.75	7.00	4.25	6.50	0.25	0.50	0.50	1.00	2.50	0.75	0.00	0.75	-0.078125	0.132812	0.962891	20.650000	-12.460000	2.730000	854.00	-0.19	-0.08
0.74	12.00	9.75	8.75	9.00	3.25	1.25	3.00	1.75	0.00	0.00	0.00	0.00	0.25	0.00	0.00	0.50	-0.149902	0.122070	0.955566	7.560000	-6.510000	0.980000	586.00	-0.27	-0.03	15.50	7.75	9.00	9.00	6.25	7.00	4.50	6.50	0.00	0.00	0.00	0.25	3.00	0.00	0.25	0.25	-0.067871	0.145020	0.975586	18.830000	-10.920000	2.590000	847.00	-0.21	-0.08
0.75	11.50	9.75	8.75	8.75	3.00	0.75	3.00	1.50	0.00	0.00	0.00	0.00	0.00	0.00	0.00	0.25	-0.144043	0.118652	0.975586	6.440000	-6.020000	0.910000	561.00	-0.27	-0.03	12.25	10.00	11.00	10.00	6.75	7.25	4.25	6.25	0.50	0.00	0.00	0.00	2.00	0.00	0.00	0.25	-0.080078	0.153809	0.963867	16.870001	-9.590000	2.240000	862.00	-0.21	-0.08
0.76	12.00	10.00	8.75	9.25	3.25	1.00	3.00	1.25	0.00	0.00	0.00	0.00	0.25	0.00	0.00	0.25	-0.141113	0.115234	0.965332	5.950000	-6.300000	0.840000	579.00	-0.27	-0.03	19.50	8.50	8.75	9.75	6.00	7.75	4.50	6.50	0.00	0.00	0.00	0.25	2.00	0.00	0.00	0.00	-0.078125	0.158203	0.955078	14.070000	-7.350000	2.240000	898.00	-0.22	-0.07
0.77	12.75	10.50	9.25	9.25	3.25	1.25	3.00	1.75	0.00	0.00	0.00	0.00	0.00	0.00	0.00	0.25	-0.132324	0.125000	0.944336	5.600000	-6.370000	0.840000	608.00	-0.28	-0.03	16.25	9.75	10.00	10.00	6.00	7.00	4.50	6.25	0.25	0.00	0.00	0.25	1.50	0.00	0.00	0.00	-0.083984	0.155762	0.960938	7.700000	-4.410000	1.750000	878.00	-0.22	-0.07
0.78	12.25	10.25	8.75	9.25	3.25	0.50	3.00	1.00	0.00	0.00	0.00	0.00	0.00	0.00	0.00	0.25	-0.139160	0.119629	0.941406	5.320000	-5.810000	0.840000	572.00	-0.28	-0.02	17.75	10.50	10.25	10.00	6.00	7.00	4.25	6.25	0.00	0.00	0.00	0.00	1.75	0.00	0.00	0.00	-0.076660	0.150879	0.972656	5.740000	-4.270000	1.540000	897.00	-0.23	-0.07
0.79	13.50	11.00	9.25	9.50	3.00	1.00	3.25	1.50	0.25	0.00	0.00	0.00	0.25	0.00	0.00	0.75	-0.137695	0.122559	0.941895	4.620000	-4.830000	0.910000	627.00	-0.27	-0.03	17.75	11.00	10.50	10.25	6.00	7.00	4.25	6.25	0.00	0.00	0.00	0.00	1.25	0.00	0.00	0.00	-0.088867	0.152344	0.968262	4.480000	-4.270000	1.680000	904.00	-0.23	-0.07
0.80	12.75	10.50	8.75	9.00	2.75	0.50	3.00	1.25	0.00	0.00	0.00	0.00	0.00	0.00	0.00	0.50	-0.114746	0.138672	0.922852	1.680000	-0.420000	0.420000	577.00	-0.28	-0.02	18.00	11.75	10.50	10.50	6.00	7.00	4.25	6.00	0.00	0.00	0.00	0.00	1.50	0.00	0.00	0.00	-0.080566	0.156738	0.974609	3.220000	-3.850000	1.540000	915.00	-0.24	-0.07
0.81	13.25	11.00	9.25	9.50	2.50	0.50	3.00	1.25	0.00	0.00	0.00	0.00	0.00	0.00	0.00	0.25	-0.115234	0.141602	0.919434	-0.560000	2.660000	0.700000	595.00	-0.29	-0.02	19.25	12.00	10.75	11.00	6.00	7.00	4.25	6.00	0.00	0.00	0.00	0.00	1.25	0.25	0.00	0.00	-0.077148	0.153809	0.976074	3.290000	-4.060000	1.470000	941.00	-0.24	-0.06
0.82	12.25	10.50	8.75	9.00	2.50	0.25	3.00	0.75	0.00	0.00	0.00	0.00	0.00	0.00	0.00	0.25	-0.118652	0.141602	0.910156	-2.940000	6.300000	0.630000	555.00	-0.29	-0.02	19.75	12.50	11.00	11.25	6.00	7.25	4.25	6.00	0.00	0.00	0.00	0.50	1.25	0.00	0.00	0.00	-0.081055	0.151855	0.970215	3.150000	-4.060000	1.470000	964.00	-0.24	-0.07
0.83	12.00	10.25	8.75	9.00	2.50	0.00	2.75	0.75	0.00	0.00	0.00	0.00	0.00	0.00	0.00	0.00	-0.124512	0.149902	0.937012	-5.530000	9.520000	0.840000	541.00	-0.29	-0.02	20.00	13.25	10.75	10.75	5.75	7.25	4.25	6.00	0.00	0.00	0.00	0.00	1.25	0.00	0.00	0.00	-0.070801	0.152832	0.968750	2.800000	-3.850000	1.120000	957.00	-0.24	-0.06
0.84	11.75	10.00	8.50	8.75	2.50	0.00	2.75	0.75	0.00	0.00	0.00	0.00	0.00	0.00	0.00	0.25	-0.129395	0.137207	0.932617	-7.770000	12.250000	0.840000	532.00	-0.29	-0.02	20.50	13.75	11.50	11.50	6.00	7.25	4.25	6.00	0.00	0.00	0.00	0.25	1.50	0.00	0.00	0.00	-0.078613	0.156250	0.968262	2.380000	-3.850000	0.980000	994.00	-0.24	-0.07
0.85	11.25	10.00	8.50	9.00	2.50	0.25	2.75	0.50	0.00	0.00	0.00	0.00	0.00	0.00	0.00	0.00	-0.127930	0.129883	0.939453	-9.870000	15.330000	0.630000	526.00	-0.29	-0.02	20.75	13.75	11.50	11.75	6.00	7.25	4.25	5.75	0.00	0.00	0.00	0.00	0.75	0.00	0.00	0.00	-0.072754	0.149414	0.974609	2.030000	-3.780000	0.840000	985.00	-0.25	-0.06
0.86	11.25	9.75	8.50	8.75	2.50	0.25	3.00	0.75	0.00	0.00	0.00	0.00	0.00	0.00	0.00	0.00	-0.134277	0.130859	0.943848	-11.830000	18.410000	0.000000	529.00	-0.28	-0.02	21.25	14.00	11.75	12.00	5.75	7.50	4.25	6.00	0.00	0.00	0.00	0.25	1.00	0.00	0.00	0.00	-0.075195	0.161621	0.980957	2.380000	-4.130000	0.700000	1009.00	-0.25	-0.06
0.87	11.00	9.50	8.25	8.50	2.50	0.00	3.00	0.50	0.00	0.00	0.00	0.00	0.00	0.00	0.00	0.00	-0.125488	0.123535	0.931641	-13.300000	21.490000	-0.490000	510.00	-0.29	-0.01	21.00	14.50	11.75	12.00	6.00	7.50	4.25	6.00	0.00	0.00	0.00	0.25	1.00	0.00	0.00	0.00	-0.061523	0.157227	0.956055	2.170000	-3.850000	0.490000	1014.00	-0.25	-0.06
0.88	10.50	9.25	8.25	8.50	2.50	0.00	3.00	0.50	0.00	0.00	0.00	0.00	0.00	0.00	0.00	0.25	-0.119629	0.130859	0.934570	-15.050000	25.270000	-1.050000	504.00	-0.28	-0.01	22.25	15.00	12.25	12.50	6.00	7.50	4.25	6.00	0.00	0.00	0.00	0.00	1.00	0.00	0.00	0.00	-0.065918	0.165527	0.957031	0.630000	-2.870000	0.140000	1043.00	-0.25	-0.06
0.89	11.00	9.50	8.50	8.50	2.75	0.00	3.00	1.00	0.00	0.00	0.00	0.00	0.00	0.25	0.00	0.50	-0.127441	0.128418	0.937500	-17.219999	29.820000	-1.610000	530.00	-0.27	-0.02	22.50	15.50	12.25	12.50	6.00	7.75	4.25	6.00	0.00	0.00	0.00	0.25	1.25	0.00	0.00	0.00	-0.078125	0.163086	0.971191	-0.700000	-2.870000	-0.140000	1059.00	-0.25	-0.06
0.90	10.50	8.75	8.25	8.25	2.75	0.50	3.00	1.00	0.25	0.00	0.00	0.00	0.00	0.00	0.00	0.50	-0.123535	0.130371	0.930176	-20.510000	35.560001	-2.730000	518.00	-0.27	-0.02	22.75	15.50	12.25	12.75	6.00	8.00	4.25	6.25	0.25	0.00	0.00	0.25	1.25	0.00	0.00	0.00	-0.068848	0.154785	0.957031	-0.700000	-3.220000	-0.210000	1075.00	-0.25	-0.06
0.91	8.50	7.50	7.50	7.50	2.50	0.00	3.00	0.50	0.00	0.00	0.00	0.00	0.00	0.00	0.00	0.25	-0.133789	0.125488	0.946777	-24.430000	42.070000	-4.200000	442.00	-0.27	-0.01	22.50	16.00	12.00	11.50	5.75	7.25	4.25	6.00	0.00	0.00	0.00	0.00	0.50	0.00	0.00	0.00	-0.065430	0.166016	0.959961	-1.820000	-3.010000	-0.490000	1030.00	-0.26	-0.06
0.92	7.25	6.50	6.50	6.25	2.25	0.00	3.00	0.25	0.50	0.00	0.00	0.00	0.00	0.00	0.00	0.50	-0.125977	0.119141	0.975586	-27.160000	48.090000	-5.740000	392.00	-0.25	0.00	18.75	14.00	11.25	11.25	6.00	7.50	4.25	6.25	0.25	0.00	0.00	0.50	1.50	0.50	0.25	0.25	-0.064453	0.159180	0.956543	-3.640000	-2.590000	-0.700000	993.00	-0.23	-0.07
0.93	7.00	6.00	6.50	5.75	2.25	0.25	3.00	0.75	0.25	0.00	0.00	0.00	0.00	0.00	0.00	0.50	-0.185547	-0.083984	1.101562	-17.639999	49.840000	-7.700000	386.00	-0.25	-0.00	23.25	16.25	13.00	14.50	7.00	9.00	4.50	7.00	0.75	0.00	0.25	0.75	2.50	0.25	1.00	0.75	-0.069336	0.162598	0.956055	-5.530000	-2.520000	-0.700000	1205.00	-0.23	-0.07
0.94	6.50	5.50	6.25	5.25	2.25	0.00	3.00	0.50	0.00	0.00	0.00	0.00	0.00	0.25	0.00	0.50	-0.347168	0.031250	1.396973	-7.350000	65.099998	-17.360001	358.00	-0.25	0.00	27.75	20.00	12.75	14.50	6.50	8.50	4.25	6.50	0.00	0.00	0.00	0.00	1.25	0.00	0.00	0.00	-0.077637	0.160645	0.958496	-7.350000	-2.800000	-0.840000	1214.00	-0.26	-0.06
0.95	5.75	5.00	5.75	5.00	2.25	0.00	3.00	0.50	0.50	0.00	0.00	0.00	0.00	0.25	0.00	0.25	-0.334961	0.482422	1.435059	4.060000	120.190002	-46.830002	341.00	-0.23	0.01	20.00	15.50	12.00	13.25	6.75	8.75	4.25	6.75	0.00	0.00	0.00	0.00	1.75	0.00	0.00	0.00	-0.083008	0.156738	0.967773	-8.470000	-4.340000	-0.420000	1072.00	-0.24	-0.08
0.96	5.50	4.75	5.50	4.50	2.25	0.00	2.75	0.25	0.25	0.00	0.00	0.00	0.00	0.00	0.00	0.25	-0.169434	0.431152	2.060059	-20.020000	142.309998	-57.260002	313.00	-0.25	0.01	25.00	19.00	13.75	14.25	8.00	8.75	4.50	6.75	0.00	0.00	0.00	0.50	2.25	1.00	0.50	1.00	-0.078125	0.155273	0.949707	-9.660000	-6.370000	0.210000	1247.00	-0.24	-0.07
0.97	5.50	4.75	5.25	4.50	1.75	0.00	3.00	0.25	0.25	0.00	0.00	0.00	0.00	0.00	0.00	0.50	0.044434	0.751953	1.941406	-59.639999	153.440002	-59.990002	309.00	-0.24	0.01	32.25	24.75	17.00	18.25	8.50	11.00	4.75	7.75	1.50	0.75	0.50	1.25	3.25	1.00	1.25	1.00	-0.070801	0.165527	0.962402	-12.600000	-7.560000	0.560000	1591.00	-0.23	-0.07
0.98	5.25	4.00	5.25	4.25	2.00	0.00	3.00	0.25	0.50	0.00	0.00	0.00	0.00	0.00	0.00	0.25	0.436523	0.925293	1.897949	-81.760002	160.649994	-65.730003	301.00	-0.23	0.02	34.25	26.25	18.25	19.25	9.00	11.75	4.75	7.75	1.50	1.00	0.75	1.25	4.00	1.25	1.50	1.00	-0.081543	0.150391	0.972656	-15.680000	-8.680000	0.700000	1689.00	-0.23	-0.07
0.99	5.25	4.25	5.25	3.75	2.00	0.00	2.75	0.50	0.25	0.00	0.00	0.00	0.00	0.25	0.00	0.00	0.920410	1.436523	1.845703	-39.130001	153.789993	-62.090000	295.00	-0.24	0.02	35.00	26.75	18.75	19.75	9.75	12.25	4.75	7.75	1.50	1.00	0.75	1.25	4.25	1.25	1.25	1.00	-0.064453	0.164551	0.983398	-17.920000	-9.100000	0.840000	1729.00	-0.23	-0.07
1.00	5.25	3.75	5.00	3.50	2.00	0.00	3.00	0.00	0.00	0.00	0.00	0.00	0.00	0.00	0.00	0.25	1.185059	1.080078	1.690918	-9.240000	138.529999	-57.610001	275.00	-0.24	0.03	36.50	27.75	19.50	20.50	10.25	12.75	5.00	8.00	1.50	1.25	0.50	1.50	4.25	1.25	1.25	0.75	-0.060547	0.152832	1.001465	-20.090000	-7.210000	0.280000	1796.00	-0.23	-0.07
1.01	4.75	3.75	5.00	3.00	1.75	0.00	2.75	0.00	0.25	0.00	0.00	0.00	0.00	0.00	0.00	0.50	1.529297	1.063477	1.438965	-0.210000	123.900002	-50.259998	261.00	-0.23	0.04	35.25	29.00	19.25	20.75	10.50	12.50	5.00	8.25	1.50	1.00	0.50	1.00	4.50	1.00	1.00	1.00	-0.054199	0.149414	1.015137	-17.080000	-5.880000	-0.210000	1788.00	-0.24	-0.07
1.02	5.00	4.50	5.00	4.00	1.75	0.00	3.00	0.00	0.25	0.00	0.00	0.00	0.00	0.25	0.00	0.25	1.811523	0.961914	1.244629	11.830000	107.169998	-42.349998	289.00	-0.24	0.03	39.25	29.75	20.25	21.25	11.00	13.25	5.00	8.25	1.00	0.75	0.50	1.00	4.50	1.25	1.25	1.00	-0.061523	0.156738	1.000977	-12.740000	-5.040000	-0.630000	1869.00	-0.24	-0.07
1.03	5.00	3.75	5.00	3.50	2.00	0.00	3.00	0.75	0.25	0.00	0.00	0.00	0.00	0.25	0.00	0.50	2.098145	0.825684	1.124023	26.950001	86.519997	-36.750000	292.00	-0.22	0.02	38.75	30.00	20.25	21.00	11.00	13.00	5.00	8.25	1.50	1.25	0.75	1.25	4.50	1.25	1.25	1.00	-0.056152	0.149902	1.015137	-5.950000	-3.920000	-0.980000	1879.00	-0.24	-0.07
1.04	4.75	4.00	5.00	3.25	2.00	0.00	3.00	0.00	0.00	0.00	0.00	0.00	0.00	0.00	0.00	0.25	2.323242	0.690918	0.932129	42.139999	61.110001	-32.480000	269.00	-0.24	0.03	38.25	30.00	20.25	21.25	11.00	13.75	5.00	8.25	1.50	1.25	0.75	1.25	5.00	1.00	1.25	1.00	-0.057129	0.157715	1.007324	0.140000	-3.220000	-1.470000	1887.00	-0.23	-0.07
1.05	4.25	3.75	5.00	3.50	1.75	0.00	3.00	0.00	0.25	0.00	0.00	0.00	0.00	0.00	0.00	0.25	2.460938	0.593750	0.877930	55.369999	32.619999	-27.719999	264.00	-0.23	0.03	39.50	30.25	20.25	21.50	11.25	13.75	5.00	8.50	1.50	1.00	0.50	1.25	5.00	1.25	1.50	0.75	-0.055176	0.156738	1.002930	4.060000	-2.100000	-1.820000	1912.00	-0.24	-0.07
1.06	4.75	4.00	4.75	3.00	1.50	0.00	3.25	0.25	0.25	0.00	0.00	0.00	0.00	0.00	0.00	0.25	2.489258	0.470703	0.798340	68.599998	1.820000	-21.490000	269.00	-0.23	0.03	39.00	29.75	20.00	21.25	11.00	13.75	5.00	8.25	1.25	1.00	0.50	1.25	5.25	1.00	1.25	1.00	-0.055176	0.162109	1.000977	7.700000	-1.610000	-1.820000	1883.00	-0.24	-0.07
1.07	4.75	3.50	4.50	3.25	2.00	0.00	3.00	0.00	0.00	0.00	0.00	0.00	0.00	0.00	0.00	0.25	2.417969	0.376465	0.794922	80.989998	-25.340000	-13.370000	258.00	-0.24	0.04	38.00	29.25	19.75	21.00	10.75	13.50	5.00	8.25	1.50	1.00	0.50	1.25	5.25	1.00	1.25	1.00	-0.055176	0.158203	0.990723	10.220000	-0.560000	-2.100000	1859.00	-0.23	-0.07
1.08	4.50	3.75	4.50	3.50	2.00	0.00	2.75	0.00	0.25	0.00	0.00	0.00	0.00	0.00	0.00	0.25	2.244141	0.321289	0.854004	93.099998	-48.369999	-2.240000	260.00	-0.23	0.03	37.50	28.50	19.50	20.50	10.50	13.50	4.75	8.25	1.50	1.00	0.50	1.25	5.25	1.00	1.25	1.00	-0.055664	0.164551	0.989746	11.270000	0.910000	-2.310000	1829.00	-0.23	-0.07
1.09	5.00	3.75	4.50	3.25	1.75	0.00	2.75	0.00	0.00	0.00	0.00	0.00	0.00	0.00	0.00	0.50	1.748535	0.235352	1.119629	109.550003	-85.260002	13.860000	257.00	-0.24	0.03	36.75	27.50	19.00	20.00	10.00	13.00	4.75	8.25	1.25	0.75	0.50	1.25	5.00	1.25	1.25	1.00	-0.068359	0.164551	0.997070	12.810000	2.030000	-2.380000	1780.00	-0.23	-0.07
1.10	4.50	3.75	4.25	3.25	2.25	0.00	3.00	0.00	0.00	0.00	0.00	0.00	0.00	0.00	0.00	0.50	1.456055	0.187988	1.327148	108.989998	-96.459999	63.420002	259.00	-0.23	0.03	35.75	26.75	18.25	19.50	9.75	13.00	4.75	8.25	1.50	0.75	0.50	1.25	5.00	1.00	1.25	1.00	-0.063965	0.152832	0.977539	14.630000	2.730000	-2.730000	1744.00	-0.23	-0.07
1.11	4.25	3.75	4.25	3.00	1.75	0.00	3.00	0.00	0.00	0.00	0.00	0.00	0.00	0.00	0.00	0.25	1.150391	0.113281	1.577637	100.730003	-110.459999	91.419998	246.00	-0.23	0.03	34.50	25.50	17.75	19.00	9.50	12.75	4.75	8.25	1.50	1.00	0.75	1.25	5.25	1.25	1.00	1.00	-0.050293	0.165527	0.936523	13.160000	4.410000	-3.150000	1707.00	-0.23	-0.07
1.12	4.50	3.50	4.25	2.75	1.75	0.00	3.00	0.00	0.00	0.00	0.00	0.00	0.00	0.00	0.00	0.50	0.820312	0.104004	1.753906	88.830002	-127.190002	117.949997	244.00	-0.23	0.04	33.25	24.25	17.25	18.50	9.00	12.75	4.75	8.25	1.25	0.75	0.50	1.50	5.25	1.25	1.50	1.00	-0.055176	0.176758	0.942871	8.050000	7.070000	-3.430000	1662.00	-0.22	-0.08
1.13	4.50	3.25	4.00	3.00	1.75	0.00	2.75	0.00	0.25	0.00	0.00	0.00	0.00	0.00	0.00	0.50	0.451660	0.079102	1.839355	76.860001	-142.940002	141.820007	241.00	-0.23	0.04	32.00	23.00	16.75	17.75	9.00	12.50	4.50	8.25	1.50	0.25	0.00	0.25	3.25	0.00	0.00	0.00	-0.074219	0.154785	0.965332	2.100000	8.750000	-3.640000	1537.00	-0.25	-0.07
1.14	4.00	3.00	4.00	3.00	2.00	0.00	3.00	0.00	0.00	0.00	0.00	0.00	0.00	0.25	0.00	0.25	0.092285	0.032715	1.843750	63.000000	-152.809998	161.279999	237.00	-0.22	0.04	30.75	21.50	16.50	17.25	8.75	12.25	4.50	8.25	1.50	0.75	0.50	1.50	5.50	1.00	1.25	1.00	-0.071777	0.155762	0.937500	0.420000	8.400000	-3.920000	1569.00	-0.22	-0.08
1.15	4.00	2.75	3.50	1.75	1.75	0.00	3.00	0.00	0.00	0.00	0.00	0.00	0.00	0.00	0.00	0.00	-0.236816	0.019531	1.800781	44.869999	-156.660004	175.279999	207.00	-0.22	0.06	29.75	20.50	16.00	16.75	8.50	12.00	4.50	8.50	1.25	1.00	0.50	1.25	5.75	1.00	1.50	1.25	-0.061035	0.169434	0.906738	-5.180000	9.170000	-3.990000	1537.00	-0.21	-0.08
1.16	4.00	2.50	3.75	2.75	1.75	0.00	2.75	0.00	0.00	0.00	0.00	0.00	0.00	0.00	0.00	0.00	-0.498047	0.037109	1.739746	23.870001	-154.000000	184.589996	215.00	-0.23	0.04	28.75	19.75	15.50	16.25	8.50	12.50	4.50	8.50	1.50	1.00	0.50	1.50	6.25	1.25	1.50	1.00	-0.064941	0.163086	0.922852	-15.120000	11.760000	-4.200000	1524.00	-0.21	-0.08
1.17	4.00	3.00	3.75	2.25	1.50	0.00	3.00	0.00	0.25	0.00	0.00	0.00	0.00	0.25	0.00	0.25	-0.701660	0.055664	1.777832	4.200000	-147.419998	191.449997	223.00	-0.21	0.05	28.00	16.00	14.50	15.75	8.50	10.50	4.50	8.50	1.00	1.25	0.50	1.75	7.00	1.25	1.25	1.25	-0.060059	0.142090	0.916016	-26.250000	14.700000	-4.550000	1440.00	-0.20	-0.08
1.18	4.00	2.75	4.00	2.50	1.25	0.00	3.00	0.00	0.25	0.00	0.00	0.00	0.00	0.00	0.00	0.25	-0.835449	0.102539	1.903809	-12.320000	-144.970001	197.610001	221.00	-0.22	0.05	26.75	16.75	15.00	15.25	8.00	13.00	4.75	8.75	1.75	1.50	0.75	2.00	7.50	1.25	1.25	1.00	-0.058105	0.148438	0.913574	-41.369999	18.270000	-5.320000	1488.00	-0.19	-0.09
1.19	3.50	3.00	3.75	2.50	1.75	0.00	3.00	0.25	0.25	0.00	0.00	0.00	0.00	0.00	0.00	0.25	-0.953613	0.095215	1.874023	-28.559999	-152.320007	200.970001	225.00	-0.21	0.04	25.25	15.00	14.25	14.75	9.50	13.00	5.00	9.00	2.00	1.75	0.75	2.25	8.50	1.25	1.25	1.50	-0.064941	0.177734	0.955078	-57.680000	15.050000	-6.300000	1486.00	-0.18	-0.09
1.20	3.50	2.75	3.75	2.25	1.50	0.00	2.75	0.00	0.25	0.00	0.00	0.00	0.00	0.00	0.00	0.50	-1.087891	0.080566	1.698730	-43.330002	-162.820007	198.100006	210.00	-0.21	0.05	24.25	13.75	14.25	13.75	10.00	12.75	5.00	9.00	2.00	2.00	1.25	2.50	9.00	1.50	1.75	1.75	-0.081055	0.135254	0.976074	-60.340000	8.960000	-6.930000	1479.00	-0.16	-0.09
1.21	3.50	2.75	4.00	2.25	1.50	0.00	3.00	0.00	0.00	0.00	0.00	0.00	0.00	0.00	0.00	0.25	-1.247070	0.058594	1.364258	-54.880001	-168.139999	186.690002	212.00	-0.22	0.05	22.50	11.25	13.75	12.75	10.75	13.00	5.25	9.25	2.25	2.25	1.25	3.00	10.00	1.50	1.75	2.00	-0.046875	0.153809	1.039062	-54.670002	3.990000	-7.280000	1459.00	-0.15	-0.09
1.22	3.25	3.00	4.00	2.50	1.50	0.00	3.00	0.00	0.00	0.00	0.00	0.00	0.00	0.25	0.00	0.25	-1.432617	0.060059	1.029785	-59.220001	-160.860001	170.589996	217.00	-0.21	0.04	20.50	9.50	13.25	12.00	11.25	12.75	5.50	9.25	2.50	2.75	2.00	3.75	10.50	1.75	1.75	2.50	-0.081055	0.132812	1.005371	-40.810001	-3.430000	-7.980000	1448.00	-0.13	-0.09
1.23	3.50	2.75	3.75	1.75	1.50	0.00	3.00	0.25	0.25	0.00	0.00	0.00	0.00	0.00	0.00	0.25	-1.623047	0.088379	0.788086	-65.519997	-142.940002	153.229996	211.00	-0.20	0.05	19.00	8.50	13.00	10.75	11.75	12.75	5.75	9.50	2.75	3.25	2.50	4.25	11.00	2.25	1.75	3.25	-0.074707	0.106934	0.984375	-30.100000	-7.700000	-7.770000	1451.00	-0.11	-0.09
1.24	3.75	2.75	3.75	2.25	1.75	0.00	3.00	0.00	0.25	0.00	0.00	0.00	0.00	0.25	0.00	0.25	-1.994629	0.502441	0.656250	-82.110001	-110.320000	121.520004	221.00	-0.20	0.06	17.50	7.25	12.25	9.75	12.25	12.50	5.75	9.75	3.00	4.25	3.00	4.75	11.75	2.50	2.00	3.75	-0.087891	0.097656	1.005371	-16.170000	-4.620000	-7.770000	1450.00	-0.09	-0.09
1.25	3.25	3.00	3.75	2.25	1.75	0.00	3.00	0.00	0.25	0.25	0.00	0.00	0.00	0.00	0.00	0.50	-2.268066	0.595215	0.428711	-69.230003	-104.440002	106.330002	220.00	-0.20	0.05	14.75	6.75	11.25	9.00	12.50	12.25	6.00	9.75	3.50	5.50	3.75	6.25	12.25	2.75	2.50	4.75	-0.068359	0.093750	1.001465	-9.170000	0.980000	-7.840000	1462.00	-0.06	-0.10
1.26	3.75	2.50	4.25	2.50	1.75	0.00	3.00	0.25	0.25	0.00	0.00	0.00	0.00	0.25	0.00	0.00	-2.611816	0.494141	0.166016	-38.779999	-91.489998	87.290001	230.00	-0.20	0.05	12.50	6.00	10.00	8.25	12.25	12.00	6.25	10.00	4.25	7.50	5.50	7.50	13.00	3.25	2.75	5.50	-0.059082	0.083496	0.999023	-3.220000	7.210000	-8.260000	1494.00	-0.03	-0.10
1.27	3.50	2.75	3.75	2.00	1.50	0.00	3.00	0.25	0.25	0.25	0.00	0.00	0.00	0.00	0.00	0.25	-2.931641	0.190918	-0.065430	-12.670000	-65.519997	61.950001	216.00	-0.20	0.05	10.50	5.25	9.25	7.50	12.00	11.50	6.25	10.25	4.75	8.00	7.25	8.00	13.50	3.75	3.00	6.75	-0.073730	0.089844	1.009766	2.940000	13.230000	-8.680000	1500.00	-0.01	-0.10
1.28	3.50	2.50	4.00	2.25	1.75	0.00	3.00	0.25	0.00	0.00	0.00	0.00	0.00	0.25	0.00	0.25	-3.148926	0.027344	-0.025879	-1.960000	-30.870001	28.139999	219.00	-0.20	0.05	8.75	4.75	8.00	6.75	11.50	11.25	6.25	10.25	5.50	8.75	7.75	8.75	14.25	4.50	3.75	8.00	-0.102539	0.077637	1.002441	9.100000	18.620001	-8.470000	1505.00	0.01	-0.11
1.29	3.50	3.00	3.75	2.00	1.75	0.00	3.00	0.25	0.00	0.00	0.00	0.00	0.00	0.00	0.00	0.50	-3.226074	0.069824	0.233398	0.420000	-0.910000	-11.760000	217.00	-0.21	0.04	7.75	4.50	7.25	6.25	10.50	10.75	6.25	10.50	6.00	9.50	8.50	9.25	15.00	5.00	4.25	9.25	-0.024902	0.107910	1.023926	14.350000	25.059999	-8.330000	1517.00	0.03	-0.11
1.30	3.50	3.50	3.75	2.00	1.75	0.00	3.00	0.00	0.00	0.25	0.00	0.00	0.00	0.00	0.00	0.25	-3.240234	0.167969	0.448242	1.050000	12.810000	-55.580002	219.00	-0.21	0.05	7.25	4.00	6.50	5.50	9.50	10.50	6.25	10.50	7.00	10.25	9.00	10.00	16.00	5.75	5.00	10.50	-0.041016	0.123535	1.025391	18.200001	31.500000	-9.240000	1543.00	0.05	-0.11
1.31	3.75	2.75	4.00	1.75	1.75	0.00	2.75	0.00	0.25	0.00	0.00	0.00	0.00	0.25	0.00	0.25	-3.256348	0.247559	0.364746	-0.910000	18.620001	-102.129997	214.00	-0.21	0.06	6.50	3.75	5.75	5.25	8.50	9.75	6.00	10.50	7.50	10.75	9.75	10.50	16.50	6.75	6.00	12.00	-0.052734	0.130371	1.018555	21.280001	38.430000	-11.060000	1557.00	0.07	-0.11
1.32	3.50	2.75	4.00	2.00	1.75	0.00	2.75	0.00	0.25	0.00	0.00	0.00	0.00	0.00	0.00	0.25	-3.253906	0.434082	0.233398	-5.040000	32.970001	-146.860001	211.00	-0.21	0.05	6.25	3.50	5.25	4.75	7.50	9.25	5.75	10.50	7.75	11.50	10.00	11.00	17.25	7.75	7.00	13.50	-0.073730	0.117676	1.079590	24.780001	47.250000	-13.930000	1574.00	0.08	-0.12
1.33	3.50	2.25	4.00	2.00	1.75	0.00	2.75	0.25	0.25	0.00	0.00	0.00	0.00	0.00	0.00	0.50	-0.894531	-0.843262	2.781738	-49.630001	68.110001	-166.039993	212.00	-0.20	0.05	6.00	3.00	4.75	4.25	6.75	9.00	5.50	10.25	8.00	11.75	10.50	11.50	17.50	8.50	7.75	14.75	-0.080566	0.150391	1.138672	37.310001	66.360001	-16.100000	1577.00	0.10	-0.12
1.34	3.75	3.00	4.00	2.75	1.75	0.00	3.00	0.00	0.00	0.00	0.00	0.00	0.00	0.00	0.00	0.25	0.916504	0.708496	1.421875	-97.580002	89.180000	-152.389999	226.00	-0.22	0.04	5.25	3.00	3.25	3.50	5.00	7.25	5.00	9.75	7.50	11.75	10.50	11.75	18.00	9.25	8.75	16.25	-0.079590	0.172363	1.135254	46.340000	85.260002	-17.920000	1511.00	0.12	-0.12
1.35	5.25	4.50	5.00	3.25	2.25	0.00	2.75	0.25	0.25	0.00	0.00	0.00	0.00	0.00	0.00	0.25	1.317871	2.162109	0.603516	-76.300003	80.919998	-98.699997	286.00	-0.24	0.02	3.00	1.25	0.75	1.25	4.00	7.00	4.75	9.75	8.00	12.25	10.25	11.00	16.75	9.00	8.25	16.00	-0.139160	0.187988	1.215332	58.240002	105.769997	-21.210001	1371.00	0.15	-0.13
1.36	7.00	5.75	5.50	5.00	2.00	0.00	2.75	0.25	0.00	0.00	0.00	0.00	0.00	0.00	0.00	0.25	0.508789	1.017578	-0.383301	-32.549999	107.800003	-33.810001	339.00	-0.27	0.01	5.00	2.00	2.50	3.00	4.50	7.75	4.00	8.75	8.00	12.25	10.75	12.00	17.25	10.50	9.50	17.25	-0.135254	0.184082	1.195312	81.269997	132.369995	-26.600000	1488.00	0.14	-0.12
1.37	9.00	8.00	6.75	5.50	2.00	0.00	2.75	0.75	0.00	0.00	0.00	0.00	0.00	0.00	0.00	0.25	0.075195	0.830078	0.541504	-5.880000	179.830002	10.080000	414.00	-0.28	-0.01	3.25	1.00	2.25	2.00	3.00	6.75	3.75	8.25	7.00	11.50	10.75	11.50	16.25	9.75	9.25	18.25	-0.168945	0.252930	1.415039	115.500000	188.089996	-36.820000	1358.00	0.16	-0.13
1.38	12.00	9.75	7.50	7.00	1.50	0.00	3.00	0.25	0.00	0.00	0.00	0.00	0.25	0.00	0.00	0.25	-0.517090	0.338379	1.178223	-17.150000	206.639999	32.410000	485.00	-0.29	-0.00	3.25	1.25	1.25	2.75	3.50	7.50	4.00	8.00	7.25	11.75	10.25	11.00	15.75	10.50	10.25	18.25	-0.230957	0.224121	1.405762	98.699997	210.419998	-40.250000	1381.00	0.16	-0.12
1.39	16.00	13.00	8.50	8.50	2.00	0.00	2.75	0.25	0.00	0.00	0.00	0.00	0.00	0.00	0.00	0.50	-0.554688	-0.506836	3.027344	-17.920000	231.770004	-9.870000	594.00	-0.31	-0.01	3.00	1.00	1.00	1.75	2.25	6.00	3.75	7.50	7.75	11.50	9.50	10.50	15.00	11.25	10.50	18.75	-0.272949	0.334961	1.410645	80.849998	248.080002	-42.000000	1311.00	0.17	-0.12
1.40	20.00	15.75	10.00	9.75	2.25	0.00	2.75	0.00	0.00	0.00	0.00	0.00	0.00	0.00	0.00	0.50	-0.787109	0.793457	3.617188	-17.850000	187.039993	-31.990000	699.00	-0.32	-0.01	2.75	0.75	1.00	1.25	2.00	6.00	3.50	7.50	6.25	10.50	9.00	10.00	14.25	11.75	10.50	18.50	-0.231934	0.396973	1.517090	66.849998	291.130005	-48.580002	1245.00	0.18	-0.12
1.41	20.75	16.75	11.25	10.50	3.00	1.00	3.00	0.75	0.00	0.00	0.00	0.00	0.00	0.25	0.00	0.25	-0.458984	0.233398	1.736816	-36.330002	86.940002	-20.230000	780.00	-0.31	-0.02	1.25	0.00	0.00	0.75	1.75	6.75	3.50	7.75	7.50	11.00	9.75	10.50	14.75	13.25	10.50	18.25	-0.282227	0.542969	1.674316	60.270000	320.179993	-60.619999	1267.00	0.20	-0.12
1.42	22.75	18.00	12.25	9.75	3.00	0.00	3.00	0.00	0.00	0.00	0.00	0.00	0.00	0.00	0.00	0.00	0.009277	0.409180	0.820801	-56.980000	57.540001	-12.390000	790.00	-0.32	-0.00	2.00	0.50	0.25	0.75	1.25	5.25	3.25	6.75	6.00	10.00	8.50	9.00	12.50	11.75	10.50	17.75	-0.334473	0.567871	2.084473	42.840000	338.380005	-80.500000	1136.00	0.20	-0.12
1.43	21.00	18.25	10.75	12.50	4.75	1.50	3.00	0.25	0.00	0.00	0.00	0.00	0.00	0.00	0.00	0.00	-0.615234	0.073730	2.203125	-84.070000	67.970001	-9.520000	831.00	-0.31	-0.02	2.25	0.50	0.50	0.75	1.25	5.00	3.50	6.25	5.50	10.00	8.25	8.50	12.00	12.50	10.25	16.25	-0.372559	0.558105	1.640137	24.010000	377.299988	-104.790001	1110.00	0.19	-0.11
1.44	17.00	14.75	11.00	10.50	5.50	2.25	3.00	1.50	0.00	0.00	0.00	0.00	0.00	0.00	0.00	0.00	-0.354004	0.059570	1.367188	-84.139999	33.320000	-13.160000	768.00	-0.29	-0.03	2.25	0.50	0.25	0.75	1.25	4.25	3.50	5.50	5.50	10.00	8.00	7.75	10.50	10.50	9.75	14.00	-0.605469	0.763672	2.050781	-5.880000	420.630005	-129.779999	1022.00	0.19	-0.10
1.45	24.25	19.25	13.25	13.25	7.50	5.25	3.50	3.75	0.50	0.00	0.00	0.00	0.75	0.25	0.00	0.25	-0.210938	0.116211	1.106445	-69.019997	9.730000	-11.270000	1079.00	-0.27	-0.04	1.75	0.50	0.25	0.50	0.75	3.00	3.50	5.00	5.00	9.50	7.50	7.25	9.25	9.00	8.75	10.75	-0.760254	1.219727	2.287598	-28.770000	476.000000	-165.270004	903.00	0.20	-0.10
1.46	26.00	19.75	15.25	13.50	8.00	5.75	3.50	4.50	0.50	0.25	0.00	0.00	1.00	0.25	0.00	0.50	-0.106445	0.138672	1.036621	-61.250000	7.770000	-5.880000	1163.00	-0.27	-0.04	1.75	0.25	0.00	0.25	0.50	0.75	3.25	2.75	3.50	8.50	6.50	6.00	7.75	7.25	7.00	8.00	-0.497559	1.400879	2.809082	-44.660000	525.349976	-205.940002	698.00	0.21	-0.08
1.47	26.50	20.00	15.50	13.75	8.25	6.50	3.75	5.25	0.50	0.00	0.00	0.00	1.25	0.25	0.00	0.75	-0.141113	0.140625	1.100586	-46.340000	7.350000	-2.520000	1206.00	-0.26	-0.05	1.50	0.00	0.00	0.00	0.25	1.00	3.25	1.50	2.75	7.50	4.50	4.25	5.50	5.50	5.50	5.50	-1.138184	1.616211	3.714844	-52.290001	557.970032	-241.639999	534.00	0.21	-0.06
1.48	26.50	20.00	15.50	13.75	8.75	6.75	3.75	5.75	0.50	0.00	0.00	0.00	1.25	0.50	0.00	0.50	-0.146484	0.025391	1.070801	-22.330000	7.420000	-1.330000	1225.00	-0.26	-0.05	0.25	0.25	0.75	0.00	0.00	0.25	3.50	2.00	3.75	6.75	2.75	4.25	3.75	3.25	3.50	2.75	-1.234863	1.823730	4.157227	-68.459999	573.299988	-261.589996	441.00	0.20	-0.04
1.49	26.25	19.75	15.25	13.75	9.00	7.00	3.50	6.00	0.75	0.50	0.00	0.00	1.50	0.50	0.00	0.50	-0.136719	0.083496	1.017578	-0.910000	7.700000	-0.070000	1234.00	-0.25	-0.05	1.00	0.25	0.00	0.00	0.00	0.50	3.50	0.75	2.25	4.75	2.00	3.25	3.25	1.25	2.00	1.50	-0.396973	2.158691	4.640625	-58.450001	517.299988	-284.899994	311.00	0.18	-0.03
1.50	26.00	19.50	15.25	13.75	8.75	7.50	3.75	6.25	0.50	0.25	0.00	0.00	1.75	0.25	0.00	0.25	-0.136230	0.098633	0.986816	10.290000	9.870000	1.400000	1232.00	-0.25	-0.06	3.50	1.25	1.50	1.50	0.75	2.00	4.00	1.50	2.50	3.50	1.25	1.00	0.75	1.75	3.00	2.50	0.579102	2.119629	3.742188	-72.239998	512.400024	-319.760010	386.00	0.05	-0.00
1.51	25.25	19.25	15.00	13.50	8.75	7.50	3.50	6.25	0.50	0.25	0.00	0.00	2.00	0.00	0.00	0.50	-0.118164	0.074219	0.974121	13.790000	12.390000	1.260000	1212.00	-0.25	-0.06	4.00	1.75	2.00	2.00	1.00	2.00	4.25	1.00	2.25	2.75	1.75	2.00	2.50	1.75	2.50	2.00	1.636719	2.692871	4.563477	-95.129997	413.700012	-319.269989	421.00	0.03	-0.02
1.52	24.50	18.75	14.50	13.50	8.25	7.25	3.75	6.50	1.00	0.50	0.00	0.00	2.25	0.25	0.00	0.25	-0.119629	0.081543	0.987793	15.890000	15.820000	0.700000	1205.00	-0.25	-0.06	4.00	1.50	1.75	2.00	1.00	1.50	4.25	1.00	2.25	2.75	1.75	2.00	2.50	1.75	2.50	1.75	2.699707	8.426270	5.581055	-116.550003	255.500000	-211.470001	408.00	0.04	-0.02
1.53	23.50	18.25	14.25	13.00	7.75	7.50	3.50	6.75	0.50	0.50	0.00	0.00	2.25	0.25	0.00	0.50	-0.113281	0.092773	0.948242	16.309999	19.600000	0.000000	1171.00	-0.25	-0.07	4.25	1.75	1.50	1.75	1.00	2.00	4.25	1.25	2.25	2.75	1.75	1.50	2.25	1.50	2.50	1.50	4.238770	3.161621	3.988770	-16.590000	-48.230000	-40.880001	405.00	0.03	-0.02
1.54	22.25	17.25	13.50	12.50	7.75	7.25	3.50	6.75	0.75	0.50	0.00	0.25	3.00	0.25	0.00	0.50	-0.123535	0.107422	0.966309	8.330000	26.180000	-2.870000	1142.00	-0.24	-0.07	3.75	1.75	1.50	1.50	0.75	1.75	4.00	1.25	2.50	2.50	1.75	1.75	1.75	1.50	2.25	1.50	3.500977	1.693848	1.764160	-38.080002	-160.860001	52.570000	382.00	0.03	-0.01
1.55	20.50	16.00	13.00	12.25	7.25	7.25	3.50	6.75	0.50	0.50	0.00	0.25	2.75	0.00	0.00	0.50	-0.142090	0.097656	0.964844	8.120000	27.020000	-3.850000	1086.00	-0.24	-0.07	3.75	1.75	1.75	1.75	1.00	1.75	4.25	1.25	2.25	2.50	1.25	1.50	2.00	1.75	2.00	1.50	3.016113	1.724609	1.409668	-99.680000	-171.220001	80.639999	385.00	0.02	-0.01
1.56	18.75	14.50	12.25	11.50	7.00	6.75	3.50	7.25	1.00	0.50	0.00	0.25	3.25	0.00	0.00	0.50	-0.134277	0.114258	0.933594	5.810000	27.510000	-4.480000	1045.00	-0.22	-0.08	3.50	1.50	1.50	1.75	0.75	1.50	4.25	1.00	2.00	2.25	1.25	1.75	2.50	1.50	1.75	1.75	3.061523	1.965332	1.347168	-51.450001	-183.330002	73.779999	364.00	0.03	-0.02
1.57	17.00	13.00	11.50	10.75	6.50	6.75	3.25	7.25	0.75	0.75	0.25	0.50	4.25	0.25	0.00	0.50	-0.124512	0.104980	0.912109	-3.640000	27.719999	-5.320000	998.00	-0.21	-0.09	4.00	1.50	1.75	1.75	1.00	1.50	4.25	1.00	2.00	2.00	1.25	1.50	2.00	1.50	2.00	1.50	2.674316	1.469238	1.941406	42.910000	-225.119995	60.060001	367.00	0.02	-0.01
1.58	15.00	11.50	10.75	10.00	6.25	6.50	3.25	7.50	1.00	1.00	0.25	0.50	5.00	0.25	0.00	0.75	-0.142578	0.085938	0.965332	-14.840000	24.639999	-6.090000	955.00	-0.19	-0.09	3.75	1.75	1.75	1.50	0.75	1.25	4.00	1.00	2.25	1.75	1.25	1.50	2.00	1.50	2.00	1.50	2.477051	0.755859	2.083008	96.040001	-284.480011	54.180000	354.00	0.02	-0.01
1.59	12.75	10.00	10.00	9.50	5.75	6.25	3.25	7.50	1.00	1.00	0.25	0.75	5.50	0.25	0.00	1.00	-0.138184	0.092285	0.947266	-17.290001	18.969999	-6.860000	900.00	-0.18	-0.10	4.00	1.75	1.75	1.75	1.00	1.50	4.25	1.00	1.75	2.00	1.00	1.25	2.25	1.50	2.00	1.50	2.049805	0.369141	2.093262	91.070000	-338.100006	56.420002	362.00	0.01	-0.01
1.60	11.00	8.75	9.25	8.50	6.00	5.75	3.25	7.75	1.50	1.25	0.50	1.25	6.25	0.50	0.00	1.00	-0.157715	0.127930	0.991211	-17.639999	14.350000	-7.070000	876.00	-0.15	-0.11	3.75	1.00	1.25	1.75	1.00	1.50	4.25	1.00	2.00	2.00	1.00	1.50	2.25	1.25	2.00	1.50	1.201172	0.236816	1.826172	76.650002	-409.709991	72.029999	350.00	0.03	-0.01
1.61	9.25	7.75	8.75	8.00	5.75	5.75	3.25	8.00	1.25	1.50	0.75	1.50	7.50	0.75	0.00	1.00	-0.157227	0.108887	0.945801	-14.070000	12.040000	-6.930000	854.00	-0.14	-0.12	3.75	1.75	1.25	1.75	0.75	1.50	4.00	1.00	2.00	1.50	1.00	1.25	1.75	1.50	1.75	1.50	0.799316	0.087891	1.808105	94.010002	-424.760010	79.870003	337.00	0.01	-0.01
1.62	8.00	6.75	8.25	7.00	5.50	5.25	3.50	8.00	1.75	1.50	0.75	2.00	8.25	0.75	0.00	1.75	-0.178711	0.095215	0.983887	-10.850000	11.900000	-7.350000	831.00	-0.11	-0.12	3.50	1.75	1.50	1.75	1.00	1.50	4.25	1.00	1.75	1.75	1.00	1.25	1.75	1.25	2.00	1.50	0.450684	-0.091797	1.876465	107.870003	-433.230011	89.459999	344.00	0.01	-0.01
1.63	7.00	5.75	6.75	3.75	4.00	1.50	3.50	7.50	1.75	0.75	0.50	1.25	7.50	0.75	0.25	2.25	-0.157715	0.101562	0.926758	-7.420000	12.460000	-9.240000	660.00	-0.10	-0.11	3.50	1.75	1.50	1.75	1.00	1.50	4.00	1.00	1.75	1.75	1.00	1.50	1.75	1.25	2.00	1.25	0.168457	-0.173340	1.967285	112.699997	-438.970001	99.400002	341.00	0.01	-0.01
1.64	5.50	5.00	7.00	5.25	5.00	4.00	3.25	7.25	0.75	1.50	0.75	1.75	8.25	0.00	0.00	1.75	-0.170410	0.112793	0.958984	-3.360000	14.210000	-12.040000	687.00	-0.10	-0.14	3.75	1.50	1.50	1.75	0.75	1.00	4.00	1.00	2.00	1.50	1.00	1.50	2.00	1.50	1.50	1.50	-0.077637	-0.149902	2.070801	110.320000	-441.279999	110.180000	334.00	0.01	-0.01
1.65	2.25	0.25	4.75	1.50	3.25	0.25	3.25	7.50	1.00	2.00	1.75	2.75	9.00	0.00	0.00	3.00	-0.190430	0.083008	0.954590	5.880000	18.270000	-15.330000	516.00	0.01	-0.16	3.75	1.50	1.50	1.50	0.75	1.50	4.00	1.25	1.75	1.75	1.00	1.25	2.00	1.50	1.75	1.25	-0.237305	-0.084961	2.187500	105.699997	-440.299988	122.220001	338.00	0.01	-0.01
1.66	1.50	0.50	4.00	0.00	3.25	0.50	3.25	7.75	2.25	3.00	2.50	4.25	9.75	0.25	0.25	4.50	-0.154785	0.121094	0.985840	16.799999	24.150000	-18.059999	566.00	0.06	-0.16	4.00	1.50	1.50	1.75	0.75	1.25	4.00	1.25	2.00	1.50	1.00	1.50	1.75	1.25	1.75	1.25	-0.352539	-0.060059	2.359863	104.790001	-437.220001	134.539993	340.00	0.01	-0.01
1.67	0.50	0.00	3.25	0.00	2.50	0.75	3.00	8.00	3.00	2.50	3.75	5.75	10.75	1.00	1.00	6.00	-0.151855	0.065430	1.005371	30.380001	33.880001	-18.760000	605.00	0.11	-0.17	3.50	1.50	1.50	1.75	1.00	1.50	4.00	1.00	1.75	1.75	1.00	1.25	1.75	1.25	1.50	1.00	-0.491699	-0.073730	2.512207	111.020004	-433.019989	143.500000	328.00	0.00	-0.01
1.68	0.50	0.00	2.25	0.00	2.50	0.00	2.75	8.00	4.00	4.75	5.25	7.25	11.25	1.50	1.25	7.00	-0.142578	0.066406	1.025879	48.369999	44.310001	-19.950001	672.00	0.14	-0.16	3.75	1.75	1.50	1.50	0.75	1.50	4.00	1.00	1.75	1.50	1.00	1.25	1.75	1.25	1.75	1.00	-0.702637	-0.064941	2.556641	113.889999	-426.790009	145.809998	328.00	0.00	-0.01
1.69	0.25	0.00	2.75	0.00	2.00	0.00	2.75	8.00	4.75	6.00	7.50	8.25	12.25	3.25	2.25	8.25	-0.192383	0.113770	0.982422	87.709999	72.239998	-21.000000	777.00	0.16	-0.15	3.50	1.50	1.25	1.50	0.75	1.25	4.00	1.00	1.75	1.25	1.00	1.25	1.75	1.25	1.75	0.75	-0.915039	0.096680	2.598633	103.809998	-413.839996	140.350006	312.00	0.01	-0.00
1.70	2.75	2.00	3.50	1.75	2.50	0.00	2.50	9.00	7.25	8.00	8.25	9.00	13.75	5.00	4.25	9.75	-0.244141	0.144043	1.022949	100.519997	82.040001	-23.379999	1012.00	0.13	-0.13	3.75	1.50	1.50	1.50	1.00	1.25	4.00	1.00	1.75	1.25	0.75	1.25	2.00	1.25	1.50	1.00	-1.060059	0.455566	2.788574	88.620003	-395.989990	134.259995	319.00	-0.00	-0.00
1.71	1.50	1.50	3.50	1.75	2.00	1.75	2.75	9.00	7.75	8.50	8.50	9.75	15.00	6.50	5.25	11.50	-0.240723	0.205078	0.988281	99.190002	90.370003	-25.340000	1083.00	0.15	-0.13	3.25	1.25	1.25	1.50	1.00	1.50	4.00	1.00	2.00	1.25	0.75	1.50	1.75	1.50	1.50	1.00	-1.197754	0.877441	3.164551	79.730003	-384.790009	137.270004	317.00	0.02	-0.00
1.72	1.25	0.25	3.00	1.00	1.75	1.25	2.50	9.00	7.75	8.75	9.25	10.50	15.50	7.75	6.75	13.25	-0.212891	0.191895	0.982422	85.820000	99.610001	-27.650000	1104.00	0.17	-0.13	3.50	1.25	1.25	1.25	0.75	1.25	4.00	1.00	2.00	1.50	0.75	1.25	1.75	1.25	2.00	1.00	-1.438477	1.205078	3.442383	77.699997	-386.959991	153.930008	314.00	0.02	0.00
1.73	1.25	0.75	2.50	1.25	1.50	2.00	2.50	9.25	8.25	9.25	9.75	11.25	16.75	9.00	7.75	14.75	-0.284668	0.237793	1.126465	80.290001	109.270004	-30.870001	1187.00	0.18	-0.14	3.00	1.25	1.25	1.50	1.00	1.25	4.00	1.00	1.50	1.50	0.75	1.25	1.75	1.25	1.50	0.75	-2.305664	1.282715	3.427246	89.389999	-390.670013	220.080002	300.00	0.01	-0.01
1.74	1.00	0.25	2.25	1.50	1.50	1.50	2.00	9.25	8.25	9.25	10.25	11.50	16.75	10.00	8.25	16.25	-0.306152	0.261230	1.131348	79.239998	123.270004	-35.770000	1197.00	0.19	-0.14	3.50	1.75	1.25	1.25	0.75	1.25	4.00	1.00	1.50	1.50	0.75	1.50	1.25	1.50	1.75	1.25	-2.876953	1.012695	3.353027	93.449997	-379.679993	262.779999	311.00	0.01	-0.00
1.75	1.50	0.75	2.75	1.25	1.25	1.50	2.00	9.25	8.50	9.75	10.25	11.75	16.50	10.50	8.50	17.00	-0.329590	0.301270	1.301270	73.500000	146.300003	-42.770000	1230.00	0.19	-0.13	3.50	1.50	1.50	1.50	1.00	1.25	4.00	1.00	1.75	1.25	0.75	1.25	1.25	1.00	1.50	1.00	-3.618652	0.039062	3.352539	50.400002	-333.269989	304.989990	307.00	-0.00	0.00
1.76	0.50	0.25	2.25	0.25	0.75	1.25	1.75	8.75	8.25	9.50	10.50	12.00	16.50	11.75	9.25	17.75	-0.372559	0.447266	1.262695	63.420002	172.899994	-49.349998	1198.00	0.21	-0.13	3.00	1.25	1.25	1.25	0.75	0.75	4.00	1.00	1.75	1.25	0.75	1.25	1.50	1.00	1.50	1.00	-4.450684	0.405273	2.333496	-6.300000	-305.829987	332.850006	286.00	0.02	0.01
1.77	1.00	0.00	1.25	0.75	0.00	0.25	1.75	8.50	8.25	9.50	10.75	12.00	16.50	12.50	10.00	18.50	-0.409668	0.502930	1.289062	70.209999	205.169998	-61.459999	1192.00	0.22	-0.13	3.50	1.25	1.25	1.50	0.75	1.25	4.00	1.00	1.50	1.50	0.75	1.25	2.00	1.25	1.50	1.00	-4.947266	1.292969	2.649414	23.590000	-315.140015	356.790009	307.00	0.01	-0.01
1.78	1.00	0.00	1.50	1.25	0.25	1.25	1.75	8.50	8.75	10.00	11.00	12.25	16.75	13.50	10.50	19.25	-0.406738	0.433594	1.395996	73.010002	241.779999	-72.449997	1257.00	0.21	-0.13	3.25	1.25	1.00	1.25	0.75	1.25	4.00	1.00	1.50	1.50	0.75	1.25	2.00	1.25	1.50	1.00	-5.124512	0.410645	1.472168	37.799999	-304.220001	365.190002	298.00	0.02	-0.01
1.79	1.25	0.75	1.75	2.00	0.75	1.25	1.75	8.50	9.00	10.00	11.00	12.25	16.25	14.25	11.00	19.00	-0.365723	0.280273	1.528320	77.910004	275.730011	-82.949997	1295.00	0.21	-0.12	3.00	1.50	1.00	1.50	1.00	1.25	4.00	1.00	1.50	1.50	0.75	1.25	1.75	1.25	1.25	1.00	-6.732910	0.463867	0.309570	5.530000	-251.930008	318.709991	298.00	0.01	-0.01
1.80	1.00	1.00	2.50	1.50	0.50	1.00	1.75	8.25	9.00	10.00	10.75	11.75	15.75	14.50	11.25	18.50	-0.339355	0.254395	1.647461	69.860001	321.440002	-88.970001	1277.00	0.21	-0.12	0.00	0.00	0.00	0.00	0.00	0.00	3.75	0.00	0.00	0.00	0.00	0.00	0.00	0.00	0.00	0.50	-8.254395	0.517090	-0.511230	63.490002	-191.520004	216.229996	65.00	0.09	0.22
1.81	1.00	0.75	1.75	0.75	0.00	0.75	2.00	8.00	9.25	9.75	10.75	11.50	14.75	14.50	11.50	18.00	-0.437500	0.454102	1.636230	54.389999	367.360016	-96.529999	1236.00	0.22	-0.11	0.75	0.25	0.00	0.50	0.50	0.25	3.75	0.00	0.25	0.00	0.00	0.00	0.00	0.00	0.00	0.00	-8.682129	-0.590332	-0.956055	148.330002	-111.510002	97.720001	91.00	-0.02	0.16
1.82	1.50	1.00	2.00	1.25	0.50	0.50	2.25	7.50	9.00	10.00	10.50	11.00	13.75	14.50	11.75	16.75	-0.989258	0.696777	3.920898	-34.860001	436.799988	-110.180000	1228.00	0.21	-0.11	1.25	0.50	0.00	0.50	0.00	0.00	3.75	0.00	0.00	0.25	0.00	0.25	0.00	0.00	0.00	0.00	-7.776367	-1.427734	-0.746582	138.110001	-3.500000	12.110000	93.00	-0.04	0.15
1.83	1.00	0.00	2.00	1.25	0.25	0.00	2.25	6.75	8.75	10.25	10.50	10.50	12.50	14.00	11.25	15.25	-0.708008	0.517090	1.295410	-10.360000	504.559998	-135.169998	1153.00	0.22	-0.10	5.00	2.00	2.25	2.00	1.25	0.75	4.00	0.75	1.25	0.75	0.50	1.00	1.50	0.75	1.25	1.00	-9.584961	-2.222168	-0.611328	32.270000	81.970001	-16.379999	315.00	-0.06	0.01
1.84	0.75	0.00	1.75	0.00	0.75	0.00	1.75	5.50	8.50	10.00	10.25	9.75	11.00	12.25	10.50	12.25	-1.229980	1.161621	3.559570	-18.900000	587.859985	-174.369995	1035.00	0.23	-0.09	6.25	4.00	3.50	2.75	1.25	0.75	3.75	1.00	1.00	0.50	0.00	0.25	0.00	0.00	0.50	1.00	-0.257812	-1.698242	-0.112305	-90.930000	293.510010	-38.990002	324.00	-0.17	0.02
1.85	1.25	0.50	1.50	0.75	0.50	0.00	2.00	3.00	7.75	9.50	10.00	9.25	10.25	10.50	9.25	9.25	-1.304688	1.351074	3.700195	15.890000	625.239990	-183.259995	930.00	0.22	-0.08	14.50	9.75	5.75	5.25	1.50	0.50	3.75	1.00	1.00	0.25	0.00	0.75	1.25	0.75	0.75	0.75	-0.127930	0.869629	2.009277	-105.139999	259.630005	-29.889999	555.00	-0.23	-0.01
1.86	0.75	0.00	2.00	0.75	0.25	0.25	2.25	2.50	6.75	8.75	9.00	8.25	9.00	8.00	7.00	6.75	-2.313477	1.941406	4.245605	65.169998	642.530029	-175.910004	800.00	0.22	-0.07	20.25	18.25	8.75	7.75	1.00	0.75	3.75	1.00	0.75	0.25	0.00	1.00	1.75	1.00	1.00	1.25	-1.125488	0.160645	1.933105	-102.340004	263.970001	-7.770000	782.00	-0.26	-0.03
1.87	0.50	0.25	1.75	1.50	0.50	0.25	2.25	1.25	5.75	7.75	7.75	6.75	7.50	5.75	4.75	5.00	-2.177246	1.698730	5.586426	144.830002	638.890015	-187.039993	660.00	0.20	-0.07	30.75	25.25	10.25	9.50	1.00	1.25	3.50	1.00	0.75	0.00	0.00	1.00	1.50	0.25	0.75	0.00	-0.680664	-0.063477	1.904785	-67.550003	346.010010	-7.700000	990.00	-0.30	-0.02
1.88	1.25	0.00	2.00	0.00	1.25	0.50	2.00	1.25	5.00	5.75	5.50	5.25	5.25	4.00	3.25	3.00	-1.073730	1.207520	5.317383	206.570007	620.900024	-226.449997	515.00	0.18	-0.05	35.00	27.75	11.75	11.00	1.00	1.50	3.50	0.25	0.25	0.00	0.00	0.25	0.00	0.75	0.50	0.75	-0.669922	-0.991211	3.019531	-13.370000	342.440002	-20.160000	1066.00	-0.32	-0.01
1.89	0.75	0.00	2.50	1.25	0.50	0.25	2.50	0.50	3.25	3.75	4.00	3.50	3.50	2.75	1.50	2.50	0.097656	0.671387	4.004883	191.869995	584.429993	-285.040009	378.00	0.15	-0.03	31.00	26.50	13.00	11.75	1.50	1.00	3.50	0.50	0.00	0.00	0.00	0.00	0.00	0.00	0.00	0.00	-0.979492	-0.633301	3.121094	14.000000	335.860016	-70.209999	1013.00	-0.33	-0.01
1.90	1.75	0.75	2.00	0.75	1.00	0.00	2.50	0.00	2.50	3.00	2.75	2.50	2.50	0.75	1.00	1.75	1.194824	1.559082	5.927734	147.770004	541.520020	-323.890015	297.00	0.09	-0.01	33.50	28.00	16.75	15.75	3.00	4.00	4.00	2.25	0.00	0.00	0.00	0.00	0.75	0.00	0.25	0.00	-0.733398	1.696289	3.419922	-13.090000	288.260010	-97.160004	1251.00	-0.31	-0.03
1.91	1.75	0.50	2.25	1.25	0.75	0.00	2.75	0.00	0.50	2.00	1.50	1.00	0.00	0.75	0.50	1.50	0.067383	1.924316	4.144043	158.130005	368.480011	-362.950012	202.00	0.01	0.04	35.50	29.75	18.25	18.50	5.75	7.25	4.25	5.25	0.00	0.00	0.00	0.25	1.25	0.00	0.00	0.00	-0.761230	1.008301	2.474121	-105.699997	176.820007	-43.750000	1473.00	-0.29	-0.05
1.92	2.00	1.00	3.00	0.75	1.00	0.00	3.00	0.00	1.25	2.00	1.50	0.50	0.00	0.25	0.25	1.25	2.642090	4.432617	6.540039	106.540001	140.490005	-255.080002	216.00	-0.02	0.07	36.25	29.00	19.00	18.00	7.25	8.00	4.50	6.25	0.00	0.00	0.00	0.25	2.25	0.00	0.00	0.00	-0.281738	0.397949	1.399902	-157.570007	106.540001	-3.150000	1534.00	-0.28	-0.06
1.93	2.00	1.00	3.00	1.00	0.75	0.00	3.00	0.00	1.25	2.00	1.25	0.25	0.00	0.50	0.00	1.25	2.435547	1.943848	3.521973	-1.470000	-40.529999	-77.980003	210.00	-0.02	0.08	35.25	26.75	16.25	17.00	8.75	8.25	4.75	7.00	0.75	0.00	0.25	1.00	3.50	1.00	1.25	1.00	-0.031738	-0.460449	1.619141	-138.600006	64.680000	-4.620000	1556.00	-0.25	-0.06
1.94	2.25	0.75	2.50	1.25	1.00	0.00	3.00	0.00	1.25	2.00	0.75	0.00	0.00	0.25	0.00	1.00	1.752930	1.973145	3.009766	-113.120003	-94.500000	43.400002	197.00	-0.04	0.09	39.25	32.25	22.50	21.25	10.00	10.00	5.00	7.75	1.50	1.00	0.50	1.50	4.75	1.00	1.25	1.00	-0.187012	0.112305	1.286133	-98.769997	27.580000	-11.970000	1879.00	-0.24	-0.06
1.95	2.00	0.50	3.00	1.00	0.75	0.00	3.00	0.00	1.00	1.75	1.00	0.00	0.25	0.25	0.00	0.75	2.345215	1.792480	2.196289	-150.850006	-118.020004	119.980003	189.00	-0.04	0.09	40.00	31.25	22.25	20.50	10.50	10.25	5.00	8.00	1.75	1.00	0.50	1.50	5.00	1.00	1.50	1.25	-0.078125	0.380371	1.106934	-77.139999	23.520000	-7.070000	1888.00	-0.24	-0.06
1.96	2.50	1.50	2.50	1.25	1.00	0.00	3.00	0.00	0.75	1.50	0.75	0.00	0.00	0.25	0.00	0.75	2.044434	1.524414	2.600098	-129.360001	-155.539993	149.729996	193.00	-0.08	0.08	38.00	30.25	21.75	20.00	10.75	10.25	5.00	8.25	1.50	1.00	0.75	1.50	5.25	1.25	1.50	1.25	-0.076660	0.126465	1.082520	-56.139999	24.710001	-2.100000	1855.00	-0.23	-0.06
1.97	2.25	1.25	2.75	1.00	1.00	0.00	3.00	0.00	1.00	1.25	0.50	0.00	0.00	0.25	0.00	0.75	1.920898	1.001465	2.613770	-75.250000	-218.960007	150.080002	186.00	-0.08	0.09	36.75	28.75	21.00	19.25	10.75	10.00	5.00	8.25	1.75	1.25	0.75	1.50	5.00	1.25	1.50	1.25	-0.057617	0.163086	1.004395	-14.980000	14.980000	-4.270000	1808.00	-0.23	-0.06
1.98	2.50	1.25	2.25	1.00	1.00	0.00	2.75	0.00	0.50	1.25	0.50	0.00	0.00	0.25	0.00	0.50	1.666016	0.473633	2.589355	-43.470001	-291.899994	132.789993	170.00	-0.10	0.08	34.50	26.50	20.00	18.25	10.75	9.75	5.25	8.25	1.50	1.25	0.75	1.50	5.25	1.00	1.50	1.50	-0.045898	0.154785	1.001953	-9.170000	17.920000	-2.870000	1735.00	-0.22	-0.06
1.99	2.00	1.00	2.75	1.00	1.00	0.00	3.00	0.00	0.00	1.25	0.50	0.00	0.00	0.00	0.00	0.50	0.958008	0.455566	2.279785	-5.250000	-428.820007	83.370003	163.00	-0.11	0.08	32.00	24.00	18.50	16.50	10.25	9.50	5.00	8.25	1.50	1.50	0.75	1.50	5.25	1.25	1.25	1.25	-0.041016	0.068848	1.016602	-4.830000	22.260000	-2.380000	1630.00	-0.22	-0.06
2.00	2.00	1.25	2.50	1.50	1.00	0.00	3.00	0.00	0.50	1.25	0.50	0.00	0.00	0.00	0.00	0.50	0.574707	0.447266	2.113281	21.139999	-480.619995	69.230003	175.00	-0.10	0.07	28.00	21.00	17.00	15.75	10.00	9.50	5.00	8.25	2.00	1.50	0.75	1.50	5.50	1.25	1.50	1.25	-0.040527	0.111328	1.001953	1.400000	25.480000	-2.590000	1537.00	-0.20	-0.07
2.01	2.25	0.75	2.75	1.00	1.00	0.00	2.75	0.00	0.25	1.00	0.25	0.00	0.00	0.00	0.00	0.50	0.205078	0.367676	1.967285	48.369999	-517.020020	62.090000	157.00	-0.12	0.09	24.25	17.25	15.25	14.25	9.25	9.00	5.00	8.25	1.75	1.50	0.75	1.75	6.00	1.50	1.50	1.00	-0.016602	0.130371	0.969238	3.150000	30.100000	-2.520000	1407.00	-0.19	-0.07
2.02	2.25	1.00	2.50	1.25	0.75	0.00	2.75	0.00	0.50	0.25	0.25	0.00	0.00	0.50	0.00	0.50	-0.164062	0.301270	1.852051	71.330002	-538.229980	59.920002	156.00	-0.12	0.09	20.25	11.25	11.00	11.75	8.50	8.50	5.00	8.00	0.75	1.50	0.75	1.75	4.25	0.25	1.00	0.75	-0.033691	0.112305	1.007812	2.730000	34.790001	-2.940000	1151.00	-0.18	-0.08
2.03	2.25	0.25	2.50	1.00	1.00	0.00	2.75	0.00	0.75	0.50	0.25	0.00	0.00	0.00	0.00	0.50	-0.435547	0.238281	1.797852	88.690002	-544.880005	62.160000	150.00	-0.10	0.11	11.00	8.25	9.25	8.25	6.75	7.00	4.75	7.75	0.50	0.75	0.00	1.50	5.50	0.00	0.00	0.50	-0.041504	0.099609	1.003418	6.090000	36.189999	-4.130000	879.00	-0.16	-0.10
2.04	2.25	1.25	2.75	1.25	1.00	0.00	2.75	0.00	0.50	0.50	0.25	0.00	0.00	0.00	0.00	0.50	-0.692383	0.202637	1.822266	99.680000	-541.239990	71.190002	163.00	-0.13	0.08	9.00	6.00	7.75	7.25	6.00	6.25	4.75	7.75	0.50	1.00	0.25	1.25	5.75	0.25	0.00	0.25	-0.054199	0.134277	0.979980	11.620000	35.910000	-6.090000	791.00	-0.14	-0.11
2.05	2.25	1.00	2.50	0.50	1.00	0.00	3.00	0.00	0.25	0.50	0.00	0.00	0.00	0.00	0.00	0.50	-0.795898	0.165527	1.889160	104.370003	-533.820007	87.360001	146.00	-0.13	0.11	6.50	4.00	5.75	5.25	5.00	5.25	4.50	7.50	1.00	0.75	0.25	1.25	6.50	0.25	0.00	0.50	-0.078125	0.134766	0.984375	12.250000	35.980000	-8.470000	675.00	-0.11	-0.12
2.06	2.50	0.75	2.25	0.75	0.75	0.00	2.75	0.00	0.25	0.50	0.00	0.00	0.00	0.00	0.00	0.50	-0.911621	0.159180	1.973145	101.080002	-522.900024	104.510002	139.00	-0.13	0.10	6.25	3.50	5.50	5.00	4.50	5.50	4.50	7.75	0.75	1.00	0.25	1.50	7.00	0.25	0.50	1.00	-0.072754	0.139648	0.959961	8.750000	36.400002	-9.940000	678.00	-0.09	-0.13
2.07	2.00	1.50	2.75	1.25	0.75	0.00	3.00	0.00	0.50	0.75	0.00	0.00	0.00	0.25	0.00	0.50	-0.969727	0.251953	2.202637	88.199997	-509.600006	120.889999	166.00	-0.12	0.09	5.50	2.75	4.00	3.50	3.50	5.00	4.50	7.50	0.75	1.00	0.25	2.00	8.00	0.25	0.50	2.00	-0.075195	0.127441	0.983887	4.900000	36.189999	-11.690000	624.00	-0.06	-0.14
2.08	2.00	0.75	3.00	1.00	0.75	0.00	3.00	0.00	0.50	0.50	0.00	0.00	0.00	0.00	0.00	0.50	-0.983398	0.415039	2.551270	69.090004	-501.760010	138.110001	153.00	-0.12	0.10	4.50	1.75	2.75	2.50	2.75	4.25	4.50	7.50	0.75	1.25	0.75	2.25	8.75	0.25	0.75	2.25	-0.084473	0.138672	1.046387	6.020000	36.889999	-12.460000	581.00	-0.03	-0.16
2.09	2.00	1.50	3.00	1.25	1.25	0.00	2.75	0.00	0.25	0.50	0.00	0.00	0.00	0.00	0.00	0.25	-1.131836	0.642578	2.883301	46.200001	-503.790009	163.589996	160.00	-0.16	0.08	4.00	1.50	1.50	2.50	2.25	3.50	4.25	7.25	0.75	1.50	1.00	2.75	9.50	0.50	1.00	3.50	-0.109375	0.124023	1.067871	28.630001	52.570000	-15.890000	565.00	0.00	-0.17
2.10	2.00	0.75	2.75	1.00	1.00	0.00	3.00	0.00	0.00	0.25	0.00	0.00	0.00	0.00	0.00	0.25	-1.267578	0.877441	3.167480	20.299999	-510.160004	202.089996	141.00	-0.15	0.10	3.25	0.75	3.00	3.25	3.00	4.75	4.50	7.75	1.25	2.00	1.50	4.50	11.00	2.25	2.75	6.50	-0.126953	0.136230	1.033203	43.820000	62.650002	-16.379999	720.00	0.04	-0.16
2.11	2.00	0.75	2.75	1.50	0.75	0.00	2.75	0.00	0.00	0.25	0.25	0.00	0.00	0.00	0.00	0.50	-1.582520	1.026855	3.297852	10.080000	-516.530029	243.250000	145.00	-0.15	0.07	4.75	2.00	2.75	2.75	2.00	3.75	4.25	7.00	1.50	2.25	2.25	4.25	10.25	1.00	1.75	7.00	-0.152832	0.155273	1.102051	57.330002	68.949997	-18.270000	685.00	0.02	-0.16
2.12	2.00	0.25	3.00	1.25	1.00	0.00	3.00	0.00	0.00	0.50	0.00	0.00	0.00	0.00	0.00	0.50	-2.068848	1.098633	3.451172	21.559999	-515.900024	272.860016	147.00	-0.13	0.10	2.25	1.00	1.00	0.75	1.25	2.25	4.00	6.75	1.50	3.00	2.75	5.00	11.00	1.75	3.00	8.25	-0.177734	0.169922	1.025879	66.500000	79.239998	-20.860001	625.00	0.11	-0.18
2.13	1.75	1.25	2.50	1.50	1.00	0.00	3.00	0.00	0.25	0.00	0.00	0.00	0.00	0.00	0.00	0.50	-3.257324	0.899902	3.912109	57.540001	-505.470001	302.399994	149.00	-0.15	0.08	2.25	0.75	0.50	1.00	1.00	2.25	4.00	6.75	1.75	3.50	3.50	6.50	11.75	2.50	4.00	9.50	-0.178711	0.211914	1.007324	72.029999	87.779999	-24.150000	684.00	0.13	-0.18
2.14	2.00	0.75	2.50	1.00	1.00	0.00	3.00	0.00	0.25	0.25	0.00	0.00	0.00	0.00	0.00	0.25	-4.175293	0.722168	3.825195	53.689999	-505.330017	307.369995	142.00	-0.14	0.10	1.75	0.75	0.50	0.75	0.75	2.00	3.75	6.75	2.50	4.25	5.25	7.75	12.00	3.50	5.00	11.25	-0.215332	0.250000	1.015625	80.010002	92.820000	-29.400000	753.00	0.15	-0.17
2.15	2.00	0.75	2.50	1.00	1.25	0.00	2.75	0.00	0.50	0.25	0.00	0.00	0.00	0.00	0.00	0.50	-5.116211	0.601074	3.125488	23.730000	-495.390015	301.279999	146.00	-0.13	0.10	1.50	0.25	0.00	1.00	0.50	2.00	3.75	6.75	4.50	6.00	7.00	8.25	13.00	5.00	6.25	13.00	-0.196289	0.242188	1.042969	85.610001	100.870003	-33.320000	861.00	0.18	-0.15
2.16	2.00	0.75	2.50	0.75	1.00	0.00	3.00	0.00	0.25	0.25	0.00	0.00	0.00	0.00	0.00	0.75	-6.202637	0.741211	2.090820	-24.500000	-453.250000	284.269989	142.00	-0.12	0.10	2.50	1.25	1.25	2.00	1.00	2.25	3.50	6.75	3.50	7.00	7.75	8.75	13.50	6.25	8.00	15.50	-0.220703	0.270020	1.133301	86.449997	108.779999	-38.920002	977.00	0.16	-0.15
2.17	2.25	0.75	2.50	1.00	1.00	0.00	2.75	0.00	0.50	0.00	0.00	0.00	0.00	0.00	0.00	0.75	-6.855469	1.087891	1.004883	-55.369999	-377.649994	257.390015	144.00	-0.13	0.10	0.75	0.50	0.00	0.50	0.00	2.00	3.25	6.75	3.50	7.75	8.00	9.25	14.00	7.50	8.50	16.50	-0.238281	0.308105	1.075684	89.389999	118.580002	-44.520000	943.00	0.21	-0.16
2.18	2.25	1.00	2.50	0.50	1.00	0.00	2.75	0.00	0.25	0.00	0.00	0.00	0.00	0.00	0.00	0.50	-7.611328	1.473145	0.079590	-39.830002	-294.630005	213.149994	136.00	-0.15	0.10	1.50	0.25	0.00	0.50	0.00	2.25	3.00	6.75	3.75	8.00	8.50	10.00	14.50	8.50	9.25	18.00	-0.295898	0.395020	1.055664	94.779999	130.130005	-53.689999	1000.00	0.21	-0.16
2.19	1.75	1.50	2.50	0.75	1.00	0.00	2.75	0.00	0.00	0.00	0.00	0.00	0.00	0.00	0.00	0.50	-9.367188	1.351074	-0.505371	38.709999	-224.910004	133.279999	135.00	-0.16	0.08	1.50	0.25	0.00	0.50	0.00	2.50	2.75	6.75	4.00	8.25	9.00	10.25	14.75	9.25	10.25	19.50	-0.298340	0.469727	1.064941	103.529999	143.009995	-66.290001	1043.00	0.21	-0.15
2.20	2.00	1.00	3.25	0.75	1.50	0.00	2.75	0.00	0.00	0.00	0.25	0.00	0.00	0.00	0.00	0.50	-9.655762	0.180664	-1.012695	157.430008	-140.139999	43.680000	150.00	-0.16	0.09	1.25	0.00	0.00	0.50	0.00	2.25	2.75	7.00	4.00	8.25	9.00	10.50	15.00	10.00	11.00	20.75	-0.314453	0.399902	1.205078	119.070000	168.770004	-90.720001	1067.00	0.22	-0.16
2.21	2.00	0.50	2.75	1.00	1.25	0.25	2.75	0.00	0.25	0.00	0.00	0.00	0.00	0.00	0.00	0.50	-8.585449	-1.099609	-0.481934	172.479996	-23.870001	-9.800000	143.00	-0.14	0.09	1.00	0.25	0.00	0.25	0.00	2.50	2.75	7.00	4.00	8.00	9.25	10.75	15.25	10.50	12.00	21.75	-0.375977	0.460938	1.146484	125.300003	183.610001	-101.220001	1094.00	0.22	-0.16
2.22	2.25	1.50	2.50	1.25	1.00	0.00	2.75	0.25	0.00	0.00	0.25	0.00	0.00	0.00	0.00	0.50	-14.625977	-1.099121	1.632324	50.049999	189.000000	-18.760000	153.00	-0.16	0.06	2.00	0.00	0.00	0.25	0.00	2.75	3.00	7.00	4.00	8.00	9.25	10.75	15.00	11.00	12.50	22.00	-0.365723	0.423340	1.262207	120.470001	205.800003	-111.090004	1120.00	0.22	-0.15
2.23	3.75	2.25	4.25	2.00	1.50	0.00	2.75	0.25	0.00	0.00	0.00	0.00	0.00	0.00	0.00	0.50	-3.200684	-1.282227	-0.403809	-64.050003	333.339996	-68.389999	211.00	-0.21	0.05	0.75	0.00	0.00	0.25	0.00	4.25	3.25	7.75	6.00	9.00	10.25	11.75	16.50	13.75	15.00	25.00	-0.360840	0.350098	1.458984	108.639999	235.479996	-118.790001	1289.00	0.23	-0.14
2.24	8.50	6.00	5.50	4.75	1.50	0.25	2.75	0.25	0.00	0.00	0.00	0.00	0.00	0.00	0.00	0.25	-0.703613	2.020996	3.749023	-124.809998	353.570007	-86.940002	353.00	-0.27	0.01	2.25	0.75	0.75	1.50	0.25	4.00	3.25	7.75	6.25	9.25	10.25	11.75	16.00	14.00	15.50	25.00	-0.372559	0.305176	1.535645	93.379997	272.510010	-121.940002	1348.00	0.21	-0.14
2.25	17.50	13.75	7.75	8.00	1.25	0.00	2.75	0.25	0.00	0.00	0.00	0.00	0.00	0.00	0.00	0.25	1.209473	1.347656	1.529785	-184.520004	307.369995	-33.950001	593.00	-0.32	-0.01	3.00	1.00	0.75	1.75	0.25	4.25	3.50	7.50	6.25	9.25	10.25	11.50	16.00	14.00	16.25	25.25	-0.455566	0.405273	1.517090	85.959999	321.089996	-124.180000	1372.00	0.20	-0.13
2.26	23.50	18.50	9.00	9.00	1.50	0.00	2.50	0.50	0.00	0.00	0.00	0.00	0.00	0.00	0.00	0.50	-1.294922	0.357910	1.236328	-171.360001	410.480011	4.410000	740.00	-0.33	-0.01	1.25	0.00	0.50	1.25	0.00	2.50	3.25	7.25	5.75	8.75	9.25	10.75	14.00	11.50	14.25	22.50	-0.407715	0.709473	1.591797	83.370003	382.899994	-131.880005	1187.00	0.22	-0.14
2.27	27.00	21.25	10.25	10.50	1.25	0.25	2.50	0.25	0.25	0.00	0.00	0.00	0.00	0.00	0.00	0.50	-1.583984	-0.465332	3.584961	-43.820000	506.799988	41.299999	840.00	-0.33	-0.01	0.75	0.00	0.00	0.25	0.00	2.25	3.25	6.50	4.50	9.50	10.25	11.25	14.75	12.00	15.75	22.75	-0.591309	1.019531	1.933105	78.190002	447.160004	-155.050003	1186.00	0.24	-0.14
2.28	28.75	22.50	12.25	12.50	1.75	3.75	2.50	2.00	0.00	0.00	0.00	0.00	0.75	0.00	0.00	0.50	-1.119629	1.094727	3.492676	-6.580000	344.049988	-55.090000	1001.00	-0.31	-0.04	0.75	0.00	0.00	0.00	0.00	1.75	3.25	5.75	3.75	8.25	9.50	10.00	13.25	8.75	12.75	18.25	-0.739258	1.541504	2.122070	74.830002	521.429993	-192.710007	1011.00	0.23	-0.14
2.29	29.50	23.25	14.50	14.25	3.25	8.00	3.00	4.75	0.00	0.00	0.00	0.00	0.50	0.00	0.00	0.50	-0.951172	1.251953	2.217285	-92.120003	222.949997	-35.770000	1186.00	-0.29	-0.06	1.00	0.00	0.00	0.00	0.00	1.00	3.25	5.00	3.00	7.50	8.75	9.00	12.00	6.75	10.25	14.00	-0.923828	1.834961	2.501953	87.639999	581.770020	-238.910004	869.00	0.23	-0.14
2.30	29.00	22.50	15.50	14.75	5.75	9.75	3.00	7.75	0.00	0.00	0.00	0.50	1.75	0.00	0.00	0.50	-0.435059	-0.023438	2.184082	-149.240005	118.090004	-2.520000	1309.00	-0.26	-0.08	0.75	0.00	0.00	0.00	0.00	0.75	3.25	2.50	2.00	6.00	7.50	7.75	10.00	5.00	7.75	9.50	-2.449707	2.756836	3.469238	112.910004	621.739990	-262.989990	671.00	0.23	-0.13
2.31	27.50	21.75	15.75	14.00	6.50	10.00	3.25	8.25	0.00	0.00	0.00	0.25	2.50	0.00	0.00	0.50	-0.306152	-0.350098	1.532715	-125.790001	34.790001	-8.750000	1307.00	-0.26	-0.08	0.50	0.50	0.25	0.00	0.00	0.50	3.25	2.00	1.50	3.75	4.50	5.50	8.25	2.50	5.75	6.75	-1.992188	2.485840	4.911133	143.360001	619.780029	-263.970001	493.00	0.21	-0.14
2.32	28.50	21.25	16.00	15.00	7.75	10.75	3.50	9.00	0.00	0.00	0.25	0.50	2.00	0.00	0.00	0.75	-0.126465	0.038086	0.921875	-88.760002	16.309999	-10.220000	1372.00	-0.25	-0.08	1.25	0.00	0.00	1.25	0.00	0.75	3.50	1.50	2.75	3.50	3.50	4.00	7.75	2.00	3.50	4.75	-1.992188	1.119141	5.657715	170.100006	593.320007	-285.179993	446.00	0.17	-0.11
2.33	28.00	21.00	15.75	15.00	8.00	11.25	3.50	9.25	0.25	0.00	0.25	0.75	5.00	0.25	0.00	0.50	-0.180176	0.384766	1.085449	-65.800003	22.260000	-1.960000	1409.00	-0.24	-0.09	0.00	0.00	0.00	0.00	0.00	0.00	3.25	0.50	0.00	1.00	0.50	3.00	6.25	2.00	3.00	2.00	0.624512	2.155273	4.241211	149.800003	486.010010	-381.429993	237.00	0.22	-0.13
2.34	27.25	20.25	15.50	14.75	8.25	11.25	3.50	9.50	0.25	0.00	0.25	1.00	5.00	0.25	0.00	0.75	-0.101074	0.092285	1.026367	-51.730000	26.670000	0.280000	1399.00	-0.23	-0.09	1.25	0.00	0.00	0.00	0.00	0.00	3.75	0.25	0.00	0.00	0.00	0.75	1.75	0.00	1.00	0.25	3.140137	2.633789	4.559570	137.759995	370.089996	-397.250000	118.00	0.08	0.03
2.35	26.50	20.00	15.25	14.50	8.25	11.00	3.75	9.50	0.25	0.25	0.25	0.75	4.75	0.25	0.00	0.50	-0.122070	-0.022949	1.022949	-30.660000	23.660000	-1.680000	1379.00	-0.23	-0.09	1.25	0.00	0.00	0.00	0.00	0.00	3.75	0.00	0.00	0.50	0.00	1.00	1.25	1.25	2.25	1.75	1.847656	3.175293	5.530273	159.809998	192.430008	-457.869995	153.00	0.16	0.03
2.36	26.00	19.25	14.75	14.00	8.00	10.75	3.75	9.50	0.75	0.25	0.25	0.75	5.00	0.00	0.00	0.75	-0.087891	0.124512	0.976562	-12.740000	21.490000	-0.910000	1356.00	-0.23	-0.09	3.25	1.50	1.25	1.25	0.50	1.50	4.00	0.50	1.50	1.75	1.25	2.00	2.50	1.25	2.25	1.75	3.801758	3.749512	5.436035	87.290001	-72.239998	-342.579987	330.00	0.04	-0.02
2.37	24.50	18.25	14.25	13.75	8.00	10.75	3.75	9.50	0.25	0.50	0.25	0.75	5.00	0.25	0.00	0.75	-0.077148	0.113281	0.965820	-7.140000	25.549999	-0.210000	1318.00	-0.22	-0.09	0.00	0.00	0.00	0.00	0.00	0.00	3.75	0.00	0.00	0.25	0.00	0.50	0.00	0.00	0.00	0.00	2.712402	1.867676	3.150879	-33.110001	-208.320007	-136.149994	70.00	0.10	0.19
2.38	22.75	17.00	13.50	13.00	7.75	10.50	3.75	9.50	0.50	0.50	0.25	0.75	5.00	0.25	0.00	0.75	-0.116699	0.055176	1.006836	0.140000	28.630001	-0.910000	1265.00	-0.22	-0.09	0.75	0.00	0.00	0.00	0.00	0.00	3.75	0.00	0.00	0.25	0.00	0.25	0.00	0.00	0.25	0.00	2.281250	1.821289	2.549316	-192.639999	-227.220001	-20.230000	79.00	0.05	0.19
2.39	20.75	15.75	12.50	12.25	7.50	10.00	3.50	9.50	0.50	0.50	0.25	0.75	5.25	0.50	0.00	0.50	-0.068359	0.085449	0.988281	10.010000	29.889999	-0.630000	1199.00	-0.21	-0.10	1.00	0.00	0.00	0.00	0.00	0.00	3.75	0.00	0.00	0.25	0.00	0.25	0.00	0.00	0.00	0.00	2.421387	2.777344	2.283691	-255.570007	-245.210007	74.129997	79.00	0.02	0.20
2.40	18.25	14.00	11.50	11.50	6.75	10.00	3.50	9.50	0.75	0.50	0.50	1.00	5.50	0.25	0.00	0.75	-0.070801	0.085938	0.971680	15.190001	32.270000	-0.420000	1134.00	-0.20	-0.11	1.25	0.00	0.00	0.00	0.00	0.00	3.75	0.00	0.00	0.00	0.00	0.00	0.00	0.00	0.00	0.00	2.264648	2.064941	2.492676	-222.389999	-293.089996	130.479996	76.00	-0.01	0.22
2.41	15.75	12.25	10.25	10.50	6.00	9.50	3.25	9.00	0.75	0.50	0.25	0.00	4.75	0.00	0.00	0.00	-0.084473	0.115234	0.972656	16.799999	34.930000	-1.680000	1005.00	-0.20	-0.11	0.75	0.00	0.00	0.00	0.00	0.00	3.75	0.00	0.00	0.25	0.00	0.00	0.00	0.00	0.00	0.00	1.918457	1.338867	2.411621	-156.520004	-355.739990	145.880005	73.00	0.03	0.22
2.42	8.50	8.00	8.00	9.75	4.75	7.75	3.25	8.75	0.00	0.00	0.00	0.25	4.75	0.00	0.00	0.00	-0.085449	0.126465	0.964355	16.799999	36.400002	-1.820000	787.00	-0.18	-0.14	1.00	0.00	0.00	0.00	0.00	0.00	3.75	0.00	0.00	0.00	0.00	0.00	0.00	0.00	0.00	0.00	1.530762	0.479980	2.341309	-117.389999	-413.279999	134.889999	73.00	0.01	0.22
2.43	7.75	8.25	8.00	8.50	5.25	8.50	3.50	9.75	0.75	0.75	0.50	1.50	8.00	0.50	0.00	0.50	-0.125000	0.137695	0.925293	3.780000	36.540001	-3.990000	880.00	-0.14	-0.15	1.00	0.25	0.00	0.25	0.00	0.00	3.75	0.00	0.00	0.00	0.00	0.00	0.00	0.00	0.00	0.00	1.143555	0.194824	2.206543	-101.220001	-461.790009	103.320000	79.00	-0.02	0.19
2.44	8.00	7.00	7.25	7.75	4.50	7.75	3.25	9.50	0.75	1.00	0.50	1.75	8.25	0.50	0.00	0.75	-0.139648	0.108887	0.951172	-7.770000	35.560001	-3.710000	835.00	-0.13	-0.15	1.25	0.00	0.00	0.00	0.00	0.00	3.75	0.00	0.00	0.00	0.00	0.00	0.00	0.00	0.00	0.00	0.779297	0.156738	2.069824	-78.959999	-499.940002	63.910000	76.00	-0.01	0.22
2.45	7.00	5.75	6.50	7.00	3.75	7.50	3.25	9.50	1.00	1.00	1.00	1.75	8.75	0.75	0.00	0.75	-0.053711	0.075684	0.966309	-12.180000	37.240002	-3.640000	797.00	-0.11	-0.16	1.00	0.25	0.00	0.00	0.00	0.00	3.75	0.00	0.00	0.00	0.00	0.00	0.00	0.00	0.00	0.00	0.115234	0.046387	1.772461	9.800000	-537.250000	-3.290000	76.00	-0.01	0.21
2.46	5.75	5.00	6.00	5.50	4.00	6.50	3.50	9.50	1.25	1.25	1.00	2.50	9.00	1.00	0.00	1.00	-0.074219	0.119141	1.048828	0.630000	42.349998	-5.670000	768.00	-0.08	-0.16	1.00	0.25	0.00	0.00	0.00	0.00	3.75	0.00	0.00	0.00	0.00	0.00	0.00	0.00	0.25	0.00	-0.121582	0.062500	1.676270	47.740002	-535.150024	-18.969999	78.00	0.01	0.20
2.47	5.25	3.75	5.25	5.00	3.50	5.75	3.50	9.00	2.00	1.25	1.75	2.75	9.50	1.00	0.00	1.75	-0.156738	0.084961	1.017090	17.780001	51.450001	-12.460000	743.00	-0.06	-0.15	1.25	0.00	0.00	0.00	0.00	0.00	3.75	0.00	0.00	0.00	0.00	0.00	0.00	0.00	0.00	0.00	-0.305664	0.220215	1.823242	71.400002	-522.970032	-21.910000	76.00	-0.01	0.22
2.48	4.75	3.75	5.00	3.50	3.25	5.25	3.50	8.75	2.25	2.00	2.00	3.50	10.25	1.50	0.25	2.00	-0.172852	0.164551	1.046875	34.160000	63.070000	-16.520000	743.00	-0.03	-0.15	1.50	0.00	0.00	0.00	0.00	0.00	3.75	0.00	0.00	0.00	0.00	0.00	0.00	0.00	0.00	0.00	-0.376465	0.432129	2.056152	93.660004	-509.739990	-12.950000	79.00	-0.02	0.21
2.49	4.00	3.00	4.75	3.75	3.25	4.25	3.25	8.75	2.50	2.50	2.75	5.00	10.75	1.50	0.50	3.25	-0.165039	0.132324	1.003906	51.310001	75.320000	-20.790001	761.00	-0.00	-0.16	1.00	0.00	0.00	0.00	0.00	0.00	3.75	0.00	0.00	0.00	0.00	0.00	0.00	0.00	0.00	0.00	-0.472656	0.504883	2.236328	119.910004	-503.089996	11.060000	73.00	0.01	0.22
2.50	4.00	2.75	4.25	3.00	3.00	3.50	3.25	8.50	3.25	3.25	4.00	6.25	11.50	2.50	1.25	5.75	-0.222656	0.158691	1.040039	68.879997	83.860001	-24.710001	815.00	0.04	-0.15	1.00	0.00	0.00	0.00	0.00	0.00	3.75	0.00	0.00	0.00	0.00	0.00	0.00	0.00	0.00	0.00	-0.606934	0.487793	2.422852	142.449997	-499.660004	42.700001	73.00	0.01	0.22
2.51	3.50	2.75	4.25	2.50	2.50	3.00	3.00	8.25	3.50	4.00	5.75	7.75	12.00	3.75	2.00	6.75	-0.237793	0.189453	0.998535	80.150002	90.019997	-26.950001	863.00	0.07	-0.15	0.50	0.00	0.00	0.00	0.00	0.00	3.75	0.00	0.00	0.00	0.00	0.00	0.00	0.00	0.00	0.00	-0.606445	0.522949	2.625977	156.449997	-494.339996	73.639999	67.00	0.04	0.23
2.52	2.25	1.50	3.50	1.75	2.00	1.25	2.75	8.00	4.75	4.50	7.25	8.00	12.50	5.75	2.75	7.75	-0.271484	0.271484	1.015137	86.590004	99.470001	-31.850000	865.00	0.12	-0.14	1.00	0.00	0.00	0.00	0.00	0.00	3.50	0.00	0.00	0.00	0.00	0.00	0.00	0.00	0.00	0.00	-0.602051	0.573730	3.099121	174.580002	-489.580017	101.290001	69.00	0.00	0.22
2.53	2.75	1.75	3.25	1.50	1.75	1.75	2.50	7.75	5.25	6.00	7.75	8.50	13.00	7.00	4.00	9.00	-0.239746	0.242676	1.020996	80.290001	112.070000	-37.520000	935.00	0.13	-0.13	1.00	0.00	0.00	0.00	0.00	0.00	3.75	0.00	0.25	0.25	0.00	0.25	0.00	0.50	0.75	0.25	-0.897461	0.544434	3.439453	197.330002	-493.850006	129.570007	97.00	0.09	0.17
2.54	2.75	1.50	3.50	1.25	1.25	2.25	2.50	7.75	6.00	7.00	8.25	9.00	13.25	8.50	5.75	9.75	-0.285645	0.273438	1.136719	71.540001	127.050003	-43.750000	1007.00	0.15	-0.12	2.50	1.00	1.00	1.25	0.75	1.25	4.00	0.75	1.50	1.00	0.75	1.00	1.50	1.00	1.25	0.75	-1.491211	0.636719	3.677246	201.669998	-499.799988	158.339996	263.00	0.02	0.01
2.55	2.75	1.25	2.75	1.75	1.50	1.75	2.25	8.00	7.00	7.25	8.50	9.50	13.50	9.25	6.50	11.00	-0.337891	0.325684	1.125488	66.570000	142.869995	-49.209999	1050.00	0.16	-0.12	3.00	1.50	1.25	1.25	0.75	1.25	4.00	0.75	1.50	1.00	0.75	1.25	1.75	1.00	1.25	0.75	-2.043945	0.809570	3.653809	192.779999	-492.589996	185.990005	282.00	0.00	-0.00
2.56	1.50	1.50	2.75	2.00	1.25	0.50	2.25	7.50	7.25	7.75	9.00	9.75	13.75	10.75	7.50	11.75	-0.392578	0.362305	1.122559	67.760002	160.789993	-57.610001	1065.00	0.18	-0.12	2.75	1.25	1.50	1.50	0.75	1.25	4.25	0.75	1.50	1.00	0.50	1.00	1.50	1.00	1.00	0.75	-3.073242	0.958008	3.751465	162.190002	-441.070007	252.839996	276.00	-0.00	0.01
2.57	2.25	2.00	2.25	1.50	1.00	1.50	2.00	7.50	7.50	8.00	9.25	10.00	13.50	11.50	7.75	12.75	-0.433594	0.332520	1.244141	67.480003	182.770004	-64.680000	1097.00	0.18	-0.12	2.50	1.75	1.25	1.25	0.75	1.25	4.00	0.75	1.25	1.25	0.50	1.00	1.50	1.25	1.50	1.00	-3.711426	1.007324	3.635742	132.229996	-415.450012	290.500000	277.00	0.01	-0.00
2.58	2.50	1.25	2.75	1.75	1.00	1.00	2.00	7.00	7.75	8.25	9.50	10.25	13.75	12.50	8.50	13.75	-0.374512	0.250000	1.313477	63.560001	243.250000	-73.010002	1125.00	0.18	-0.11	2.75	1.25	1.25	1.50	0.75	1.25	4.00	0.75	1.50	1.00	0.50	1.00	1.75	1.00	1.00	1.00	-4.257812	0.967773	3.305664	108.709999	-393.540009	328.790009	272.00	0.00	-0.00
2.59	2.50	1.25	2.50	2.00	1.00	1.25	1.75	7.25	8.25	8.00	9.75	10.00	13.25	13.00	9.00	13.75	-0.402344	0.218262	1.479492	56.349998	278.880005	-77.629997	1138.00	0.18	-0.11	3.25	1.25	1.00	1.50	0.75	1.25	4.00	0.75	1.25	1.00	0.50	1.00	1.50	1.00	1.25	0.25	-4.885254	0.760742	2.732910	106.889999	-367.149994	361.619995	268.00	-0.01	0.01
2.60	2.50	1.50	2.75	1.00	1.25	1.25	2.00	6.50	8.50	8.75	9.75	10.00	13.00	13.25	9.50	13.75	-0.403809	0.272461	1.683105	37.029999	319.619995	-81.199997	1144.00	0.19	-0.10	3.25	1.00	1.50	1.00	0.50	0.00	3.75	0.00	0.00	0.00	0.00	0.00	0.00	0.00	0.00	0.00	-5.633301	0.315918	1.963867	109.199997	-324.029999	384.929993	145.00	-0.16	0.11
2.61	2.25	1.25	2.50	1.75	0.75	0.25	2.00	6.25	8.75	9.00	9.75	10.00	12.50	13.75	9.50	13.25	-0.536621	0.349121	1.455078	21.280001	367.989990	-86.660004	1126.00	0.20	-0.09	0.75	0.00	0.00	0.00	0.00	0.00	3.75	0.00	0.00	0.00	0.00	0.00	0.00	0.00	0.00	0.00	-6.042969	-0.209961	0.617188	82.529999	-256.269989	388.500000	70.00	0.02	0.23
2.62	2.00	0.75	3.00	1.25	0.75	0.50	2.50	6.00	9.00	9.25	9.75	9.75	11.75	13.50	10.25	13.00	-0.596191	0.554688	2.374512	0.420000	448.000000	-95.059998	1127.00	0.20	-0.09	0.50	0.00	0.00	0.00	0.00	0.00	3.75	0.00	0.00	0.00	0.00	0.00	0.00	0.00	0.00	0.00	-8.341309	0.031250	0.202637	89.809998	-194.669998	317.239990	67.00	0.04	0.23
2.63	1.75	0.50	2.50	0.50	1.50	1.00	2.25	5.50	9.00	9.50	10.00	9.25	11.00	13.25	10.00	12.00	-0.928223	0.715820	2.985352	-17.080000	489.790009	-109.690002	1090.00	0.21	-0.08	0.75	0.00	0.00	0.00	0.00	0.00	3.75	0.00	0.00	0.00	0.00	0.00	0.00	0.00	0.00	0.00	-8.925781	-0.636719	-0.530273	138.740005	-143.570007	188.649994	70.00	0.02	0.23
2.64	2.25	1.25	2.75	1.50	0.50	0.50	2.25	4.25	8.75	9.75	9.75	8.75	10.25	12.50	10.00	10.00	-2.279297	2.953125	1.362793	7.560000	552.580017	-132.229996	1045.00	0.20	-0.07	0.75	0.00	0.00	0.00	0.00	0.00	3.75	0.00	0.00	0.00	0.00	0.00	0.00	0.00	0.00	0.00	-8.009277	-1.210938	-0.539551	145.110001	-61.740002	63.070000	70.00	0.02	0.23
2.65	2.25	0.75	2.25	1.00	0.50	0.00	2.50	3.50	8.25	9.50	9.75	8.50	9.25	10.75	8.75	8.25	-1.337402	1.505371	3.375977	58.939999	607.390015	-165.270004	950.00	0.20	-0.06	1.00	0.00	0.00	0.00	0.00	0.00	3.75	0.00	0.00	0.00	0.00	0.00	0.00	0.00	0.00	0.00	-6.766113	-1.093262	0.053223	101.150002	36.680000	0.490000	73.00	0.01	0.22
2.66	1.50	0.00	2.00	0.75	0.00	0.00	2.25	2.50	7.50	8.75	9.00	7.75	8.25	8.50	7.00	6.25	-1.903320	1.385742	4.270508	68.389999	626.500000	-168.279999	802.00	0.21	-0.06	1.75	0.25	0.00	0.00	0.50	0.00	3.75	0.00	0.00	0.00	0.00	0.00	0.00	0.00	0.00	0.00	-5.437988	-0.521973	0.742676	58.029999	109.900002	-7.210000	90.00	-0.05	0.19
2.67	1.00	0.25	2.25	1.25	0.50	0.00	2.25	1.75	6.75	7.75	8.00	6.50	6.75	6.50	5.25	4.75	-2.240723	1.752441	4.740723	102.620003	647.289978	-155.119995	692.00	0.20	-0.05	4.25	1.75	1.50	0.75	0.25	0.00	3.50	0.75	0.75	0.00	0.00	0.50	0.00	0.00	0.00	0.25	-6.510742	0.835938	3.578125	15.820000	237.790009	-22.960001	184.00	-0.14	0.07
2.68	1.50	0.25	2.25	0.00	0.75	0.00	2.50	0.25	5.50	6.25	6.25	4.75	5.00	5.00	2.75	2.75	-2.035156	1.196777	5.706055	185.779999	635.390015	-174.789993	519.00	0.19	-0.01	10.50	9.75	5.25	3.50	0.00	0.75	3.50	0.50	0.00	0.00	0.25	1.00	2.00	0.50	0.50	0.00	-1.448242	0.078613	-0.128418	-82.180000	302.049988	-66.360001	442.00	-0.24	-0.02
2.69	1.50	0.00	2.25	0.75	0.00	0.50	2.50	0.25	4.50	3.50	4.00	3.75	3.50	2.50	1.25	2.25	-1.138672	0.701172	5.957031	201.669998	609.140015	-213.710007	382.00	0.15	-0.01	30.50	25.75	9.25	9.50	1.00	0.00	3.50	0.50	0.00	0.00	0.25	1.25	2.00	0.00	0.00	0.00	-1.406250	-0.081055	2.228027	-40.110001	416.290009	9.520000	945.00	-0.32	-0.02
2.70	2.00	1.00	2.50	1.00	0.25	0.00	2.75	0.00	1.75	1.50	2.50	2.50	2.50	1.75	1.00	1.50	0.085938	0.819336	4.708008	125.020004	579.320007	-255.290009	283.00	0.07	-0.01	37.75	32.75	12.25	14.00	0.50	1.00	3.50	1.25	0.00	0.00	0.00	1.25	2.50	0.75	0.75	0.75	-1.166016	-0.905762	3.490723	-4.130000	552.229980	-1.470000	1229.00	-0.31	-0.04
2.71	1.25	0.75	2.75	1.25	1.00	0.00	2.75	0.00	2.00	1.50	1.75	1.25	1.75	1.25	0.25	1.25	2.305664	2.539551	5.397461	75.949997	502.250000	-262.149994	246.00	0.04	0.02	38.25	32.75	13.75	17.50	2.00	6.25	3.50	3.50	0.00	0.00	0.00	1.00	1.25	0.00	0.00	0.25	-0.788086	-0.004395	4.896484	26.809999	603.609985	-63.000000	1379.00	-0.31	-0.06
2.72	2.25	1.00	3.00	1.75	1.25	0.00	3.00	0.25	0.75	0.75	0.75	0.50	0.00	0.25	0.00	0.75	2.093262	-1.018066	7.091309	117.599998	291.619995	-321.440002	202.00	-0.09	0.05	36.75	32.50	18.00	20.75	5.00	9.75	4.25	7.50	0.00	0.00	0.00	0.75	2.75	0.00	0.00	0.25	-1.828613	2.467773	5.454102	-140.979996	409.220001	-81.199997	1618.00	-0.28	-0.07
2.73	2.50	1.00	3.00	1.00	1.50	0.00	2.50	0.00	0.75	1.50	1.25	0.00	0.00	0.75	0.00	1.00	2.309570	1.280762	3.471191	44.240002	-170.309998	-219.940002	201.00	-0.06	0.07	36.00	30.25	20.00	20.75	7.50	10.75	4.50	8.25	0.00	0.00	0.00	1.00	4.00	0.00	0.25	0.25	-1.055664	1.013672	3.295898	-283.429993	185.149994	-45.150002	1688.00	-0.26	-0.08
2.74	2.00	1.25	2.75	1.00	1.25	0.00	3.00	0.00	0.75	1.25	0.75	0.00	0.00	0.50	0.00	1.00	1.447266	1.305664	2.628906	-118.720001	-205.309998	-126.349998	189.00	-0.07	0.08	40.25	32.75	22.25	22.00	10.25	12.50	5.00	9.00	1.25	0.75	1.00	2.25	5.75	1.00	1.50	1.50	-0.276367	-0.162598	2.049316	-292.179993	101.010002	-17.360001	1978.00	-0.23	-0.07
2.75	2.00	0.75	2.50	1.25	1.25	0.00	3.00	0.00	0.25	1.50	0.75	0.00	0.00	0.25	0.00	1.00	1.814941	2.115723	2.056152	-180.320007	-224.070007	-51.590000	178.00	-0.07	0.07	37.75	30.00	23.25	22.00	11.75	12.50	5.25	9.25	1.50	1.00	0.75	2.25	6.75	1.25	1.75	1.50	-0.137695	-0.412598	1.324219	-178.779999	49.139999	-14.350000	1978.00	-0.22	-0.07
2.76	2.25	0.50	3.00	1.50	1.00	0.00	3.00	0.00	0.75	0.50	0.00	0.00	0.00	0.50	0.00	1.00	1.649902	2.104004	1.998047	-168.839996	-264.179993	11.410000	173.00	-0.10	0.09	37.50	29.25	23.00	21.50	12.75	12.75	5.50	9.50	1.75	1.50	0.75	2.25	7.25	1.50	2.00	2.00	-0.226074	0.307617	1.094727	-90.720001	10.290000	-12.810000	2004.00	-0.21	-0.07
2.77	1.75	1.25	2.75	1.25	1.50	0.00	3.00	0.00	0.25	0.50	0.50	0.00	0.00	0.75	0.00	0.50	1.425781	1.750488	1.862305	-101.430000	-313.880005	55.580002	173.00	-0.10	0.08	37.00	27.75	23.00	21.00	13.75	12.50	5.75	9.50	2.25	1.50	1.00	2.50	7.50	1.50	2.00	2.25	-0.070312	0.298340	1.010254	-64.540001	-0.770000	-5.040000	2007.00	-0.21	-0.07
2.78	2.50	0.75	3.25	1.25	0.75	0.00	3.00	0.00	0.50	0.75	0.25	0.00	0.00	0.25	0.00	0.75	1.081543	1.280762	1.634766	-46.689999	-358.119995	86.519997	174.00	-0.11	0.09	35.75	26.75	22.50	20.50	14.25	12.25	6.00	9.50	2.25	1.50	1.00	2.25	7.50	1.75	1.75	2.00	-0.095215	-0.106445	1.152344	-45.990002	-3.920000	-5.670000	1973.00	-0.21	-0.07
2.79	2.25	1.50	3.00	1.00	1.00	0.00	3.00	0.00	0.75	0.50	0.25	0.00	0.00	0.25	0.00	0.50	0.830078	1.015137	1.597656	-15.610000	-393.610016	107.520004	175.00	-0.12	0.09	35.00	26.25	22.00	19.75	14.25	11.75	6.00	9.25	2.50	1.50	1.00	2.50	7.25	1.75	1.50	2.00	-0.089355	0.167969	1.086914	-22.120001	-0.070000	-6.370000	1936.00	-0.20	-0.07
2.80	2.50	0.50	2.75	1.00	1.25	0.00	3.00	0.00	1.00	0.75	0.00	0.00	0.00	0.25	0.00	0.50	0.625977	0.804688	1.555176	5.250000	-422.170013	118.930000	171.00	-0.09	0.11	33.25	24.00	21.25	19.25	13.75	11.25	6.00	9.25	2.50	1.75	1.00	2.50	7.25	1.75	1.75	2.00	-0.018066	0.044922	1.012695	-4.340000	17.080000	-3.850000	1872.00	-0.20	-0.07
2.81	2.25	1.50	3.00	0.00	1.00	0.00	3.00	0.00	0.50	0.50	0.25	0.00	0.00	0.00	0.00	0.50	0.387207	0.645996	1.498047	26.040001	-444.500000	120.400002	157.00	-0.12	0.11	31.50	22.50	20.00	18.00	13.50	11.00	6.00	9.25	2.25	1.75	1.00	2.25	7.25	1.75	1.50	2.00	-0.020996	0.073242	1.000977	3.850000	22.469999	-3.990000	1792.00	-0.19	-0.07
2.82	2.25	1.00	3.00	1.50	1.00	0.00	3.00	0.00	0.25	0.50	0.00	0.00	0.00	0.00	0.00	0.00	0.156738	0.577148	1.459961	48.230000	-458.500000	116.900002	161.00	-0.15	0.09	28.25	20.00	18.50	16.75	12.50	10.25	5.75	9.00	2.25	1.50	0.75	2.25	7.25	1.75	1.50	2.00	-0.020508	0.053223	1.009277	11.480000	27.650000	-3.990000	1661.00	-0.19	-0.07
2.83	2.50	1.50	3.25	1.25	1.00	0.00	3.00	0.00	0.25	0.75	0.00	0.00	0.00	0.25	0.00	0.50	-0.037598	0.459473	1.472168	71.820000	-463.399994	111.720001	177.00	-0.14	0.08	24.00	16.75	16.50	15.25	11.75	9.75	5.75	9.00	2.25	1.75	1.00	2.50	7.25	1.75	1.75	1.75	-0.024414	0.082520	1.012207	19.530001	32.340000	-3.640000	1533.00	-0.17	-0.07
2.84	2.50	1.00	2.50	1.00	1.25	0.00	3.25	0.00	0.25	0.50	0.00	0.00	0.00	0.00	0.00	0.25	-0.202148	0.304688	1.544922	94.360001	-461.510010	106.260002	160.00	-0.14	0.10	21.50	13.50	14.50	13.00	10.50	9.50	5.50	8.75	2.25	1.50	0.75	2.50	7.75	1.75	1.50	1.75	-0.013672	0.084961	1.002930	26.389999	36.540001	-2.940000	1391.00	-0.16	-0.08
2.85	2.25	1.25	2.75	1.00	1.00	0.00	3.00	0.00	0.25	0.50	0.00	0.00	0.00	0.00	0.00	0.50	-0.346191	0.160156	1.735840	109.900002	-457.100006	100.590004	157.00	-0.14	0.09	17.25	10.25	12.75	11.75	9.25	9.00	5.25	8.75	2.25	2.00	0.75	2.50	8.00	1.00	0.25	1.25	-0.000488	0.095215	0.993652	31.150000	40.180000	-2.730000	1232.00	-0.15	-0.09
2.86	2.25	1.00	2.75	1.25	1.00	0.00	3.00	0.00	0.75	0.50	0.00	0.00	0.00	0.25	0.00	0.25	-0.519043	0.048828	2.020996	116.550003	-455.000000	95.550003	166.00	-0.12	0.10	9.50	6.25	9.25	9.50	8.00	7.75	5.00	8.50	1.50	1.75	0.75	2.50	8.25	1.50	1.75	2.00	-0.039062	0.132812	1.012695	34.020000	43.540001	-3.290000	1012.00	-0.10	-0.11
2.87	2.50	1.25	3.00	1.50	1.00	0.00	2.75	0.00	0.00	0.75	0.00	0.00	0.00	0.00	0.00	0.50	-0.675781	-0.007324	2.171387	111.580002	-458.989990	96.250000	164.00	-0.16	0.07	8.00	5.75	6.50	6.75	5.50	6.25	4.75	8.00	0.50	0.50	0.00	1.50	7.75	0.25	0.00	1.00	-0.102051	0.157715	0.993652	33.740002	46.549999	-5.250000	772.00	-0.13	-0.13
2.88	2.25	1.25	3.00	1.00	0.75	0.00	3.00	0.00	0.25	0.75	0.00	0.00	0.00	0.00	0.00	0.50	-0.742188	0.201172	2.547363	78.400002	-481.600006	113.750000	160.00	-0.14	0.09	6.00	3.75	5.50	5.25	4.25	5.50	4.50	7.75	0.75	0.50	0.00	1.50	8.25	0.25	0.00	1.00	-0.065430	0.188965	0.970703	29.190001	48.930000	-8.680000	675.00	-0.10	-0.14
2.89	2.50	1.00	2.75	1.00	1.00	0.00	3.00	0.00	0.00	0.25	0.00	0.00	0.00	0.00	0.00	0.25	-0.766602	0.367188	2.729004	71.190002	-495.179993	128.309998	150.00	-0.16	0.09	5.25	2.25	4.25	4.00	3.25	5.00	4.50	7.50	1.00	0.75	0.00	2.00	8.50	0.25	0.00	1.25	-0.121094	0.135254	0.967773	25.760000	49.000000	-14.070000	615.00	-0.07	-0.15
2.90	2.00	1.25	2.75	1.25	1.00	0.00	2.75	0.00	0.25	0.25	0.00	0.00	0.00	0.00	0.00	0.50	-0.852539	0.511230	2.943359	73.290001	-505.820007	147.559998	150.00	-0.15	0.08	4.75	1.75	3.00	2.75	2.50	4.00	4.25	7.25	0.50	0.50	0.00	2.00	8.50	1.50	1.75	2.00	-0.073730	0.171875	0.956543	24.219999	46.060001	-18.340000	571.00	-0.03	-0.15
2.91	2.50	1.00	2.75	1.25	1.00	0.00	3.00	0.00	1.00	0.00	0.00	0.00	0.00	0.00	0.00	0.00	-1.088867	0.588379	3.176270	78.190002	-511.559998	175.070007	163.00	-0.14	0.11	3.75	1.00	1.75	1.00	1.50	3.00	4.25	7.00	0.75	0.75	0.00	2.50	9.00	0.50	0.25	2.25	-0.046875	0.175293	0.982422	26.950001	48.860001	-25.549999	480.00	-0.00	-0.17
2.92	2.50	1.50	3.00	1.50	1.00	0.00	3.00	0.00	0.00	0.00	0.00	0.00	0.00	0.00	0.00	0.25	-1.443848	0.618652	3.470703	79.730003	-510.720001	209.300003	161.00	-0.18	0.07	2.50	1.00	1.50	1.25	1.75	2.50	4.25	6.50	0.75	1.00	0.50	2.75	9.25	0.50	0.75	3.50	-0.039062	0.120117	1.038574	34.369999	58.939999	-28.280001	481.00	0.03	-0.18
2.93	2.50	1.00	3.50	1.25	1.00	0.00	3.00	0.00	0.25	0.00	0.00	0.00	0.00	0.00	0.00	0.50	-1.882324	0.605469	3.795410	77.489998	-505.049988	245.279999	164.00	-0.16	0.09	2.75	0.75	1.00	1.00	1.00	3.25	4.00	6.25	1.25	1.25	1.00	3.50	10.00	1.00	1.25	5.00	-0.187012	0.174805	1.022461	60.410000	74.900002	-32.270000	515.00	0.06	-0.18
2.94	2.00	0.75	2.75	1.00	0.75	0.00	3.00	0.00	0.25	0.00	0.00	0.00	0.00	0.25	0.00	0.25	-2.445801	0.623535	4.165039	78.889999	-499.029999	276.640015	142.00	-0.14	0.11	2.50	0.75	1.00	1.00	1.00	1.75	4.00	6.25	1.00	1.75	1.50	4.50	10.25	1.50	2.00	7.00	-0.170410	0.227539	1.032227	70.769997	84.139999	-36.259998	541.00	0.09	-0.18
2.95	2.25	0.75	3.00	1.50	1.00	0.00	3.00	0.00	0.25	0.25	0.00	0.00	0.00	0.00	0.00	0.50	-3.242188	0.486816	4.347656	81.129997	-498.119995	297.429993	158.00	-0.15	0.09	2.00	0.50	0.75	1.00	0.50	1.75	3.75	6.00	1.50	2.25	2.25	6.00	10.75	2.00	2.75	8.75	-0.164551	0.239258	1.026855	79.940002	92.470001	-42.910000	583.00	0.12	-0.19
2.96	2.25	1.00	2.50	0.50	1.00	0.00	2.75	0.00	0.25	0.00	0.00	0.00	0.00	0.00	0.00	0.25	-4.231445	0.314453	3.955078	59.150002	-494.830017	301.910004	134.00	-0.15	0.11	1.75	0.50	0.25	0.75	0.50	1.75	3.50	5.75	1.75	3.00	3.25	7.50	11.50	3.00	4.25	10.00	-0.223633	0.238770	1.014648	87.220001	97.510002	-47.180000	644.00	0.15	-0.18
2.97	2.25	1.00	2.75	1.50	1.00	0.00	2.75	0.00	0.25	0.00	0.00	0.00	0.00	0.00	0.00	0.25	-5.389160	0.470215	2.938965	1.890000	-471.239990	286.299988	149.00	-0.17	0.08	1.50	0.00	0.00	0.50	0.25	1.25	3.50	6.00	2.50	3.50	4.00	8.00	12.25	5.00	5.25	11.50	-0.217285	0.294922	1.041504	86.660004	105.910004	-50.330002	702.00	0.18	-0.17
2.98	2.25	1.00	3.00	1.75	1.25	0.00	2.75	0.00	0.00	0.00	0.00	0.00	0.00	0.00	0.00	0.50	-6.440918	1.010742	1.583008	-56.070000	-411.670013	253.960007	156.00	-0.18	0.07	0.00	0.00	0.00	1.25	0.25	2.25	3.25	6.00	2.25	4.25	5.50	8.50	12.50	6.75	7.50	13.50	-0.263184	0.394043	1.003906	93.169998	113.889999	-57.260002	786.00	0.20	-0.17
2.99	2.25	0.75	3.25	1.00	1.00	0.00	2.75	0.00	0.00	0.00	0.00	0.00	0.00	0.00	0.00	0.25	-7.550293	1.665527	0.277832	-46.200001	-332.779999	200.690002	143.00	-0.17	0.09	1.25	0.25	0.00	0.50	0.00	1.75	3.00	6.25	3.00	4.75	7.25	9.25	13.25	7.50	8.00	14.75	-0.261230	0.468750	1.071777	98.279999	120.260002	-68.809998	857.00	0.20	-0.16
3.00	2.00	1.00	3.00	1.00	1.25	0.00	2.75	0.00	0.25	0.00	0.00	0.00	0.00	0.25	0.00	0.25	-9.529785	1.330566	-0.639648	73.360001	-257.600006	117.389999	149.00	-0.15	0.10	1.25	0.00	0.00	0.75	0.00	1.75	3.00	6.25	3.00	5.25	8.00	9.50	13.75	8.50	8.75	16.25	-0.289062	0.508301	1.125488	104.790001	132.369995	-83.090004	907.00	0.21	-0.16
3.01	2.75	1.25	2.75	1.00	1.25	0.00	2.75	0.00	0.25	0.00	0.00	0.00	0.00	0.25	0.00	0.25	-9.988770	-0.385254	-0.987305	212.520004	-159.529999	38.009998	157.00	-0.17	0.09	1.00	0.25	0.00	0.50	0.00	1.75	2.75	6.50	3.25	7.25	8.75	10.00	14.50	10.50	11.00	17.50	-0.285645	0.446777	1.269043	113.540001	142.800003	-98.279999	1003.00	0.22	-0.15
3.02	2.50	1.00	3.25	1.25	1.00	0.00	3.00	0.00	0.00	0.00	0.00	0.00	0.00	0.00	0.00	0.50	-8.162598	-1.810547	-0.703613	162.680008	-25.830000	8.680000	157.00	-0.17	0.08	1.00	0.50	0.00	0.50	0.00	2.00	2.75	6.50	3.50	7.00	8.50	10.75	14.00	10.00	10.50	18.50	-0.332031	0.409668	1.253418	120.820000	152.250000	-112.419998	1006.00	0.22	-0.16
3.03	2.25	1.25	3.00	1.25	1.25	0.00	3.00	0.25	0.00	0.00	0.00	0.00	0.00	0.00	0.00	0.50	-8.194336	0.675293	0.551270	40.040001	276.010010	-53.060001	161.00	-0.16	0.07	0.25	0.00	0.00	0.25	0.00	1.75	3.00	7.00	5.00	6.75	8.50	10.25	13.75	11.00	11.00	19.00	-0.341797	0.384277	1.259277	118.020004	168.419998	-123.690002	1027.00	0.23	-0.14
3.04	3.50	2.00	4.25	2.00	1.50	0.00	2.75	0.50	0.00	0.00	0.00	0.00	0.00	0.00	0.00	0.50	-3.962402	-0.416016	-1.804688	-46.759998	328.299988	-114.099998	210.00	-0.20	0.04	0.25	0.00	0.00	0.00	0.00	1.75	3.00	6.25	4.50	7.50	8.50	10.25	13.75	11.50	11.75	19.50	-0.319824	0.303223	1.314941	107.379997	193.830002	-130.970001	1029.00	0.24	-0.14
3.05	8.00	6.00	5.25	4.75	1.50	0.00	3.00	0.00	0.00	0.00	0.00	0.00	0.00	0.25	0.00	0.50	-0.421387	3.033691	0.918457	-144.479996	332.850006	-111.230003	345.00	-0.27	0.02	1.25	0.00	0.00	0.25	0.00	2.75	3.25	6.75	5.75	8.25	9.25	10.75	14.25	13.25	14.25	21.75	-0.353027	0.177734	1.416992	76.300003	265.089996	-128.729996	1172.00	0.23	-0.13
3.06	17.75	14.25	8.00	8.00	1.25	0.00	2.75	0.25	0.00	0.00	0.00	0.00	0.00	0.00	0.00	0.25	-0.598633	1.914062	1.627441	-137.690002	406.489990	-39.480000	604.00	-0.32	-0.01	2.50	1.00	0.75	1.50	0.25	3.50	3.50	7.25	6.75	8.75	10.00	11.00	15.00	14.25	15.25	21.75	-0.470703	0.435059	1.639648	71.260002	314.720001	-125.020004	1304.00	0.21	-0.12
3.07	25.25	20.00	9.50	9.75	1.25	0.00	2.75	0.25	0.25	0.00	0.00	0.00	0.00	0.00	0.00	0.25	-2.433105	-0.350586	5.286621	-63.279999	566.090027	19.250000	789.00	-0.33	-0.01	1.25	0.00	0.00	0.25	0.00	2.00	3.25	6.50	6.75	8.75	10.00	10.75	14.25	13.75	13.00	19.50	-0.589355	0.643555	1.807617	67.830002	377.720001	-130.270004	1164.00	0.23	-0.12
3.08	29.00	22.50	11.50	12.00	1.75	1.00	2.50	0.75	0.00	0.00	0.00	0.00	0.00	0.00	0.00	0.50	-1.348633	-1.047852	5.945312	26.040001	569.729980	8.400000	928.00	-0.33	-0.02	0.75	0.00	0.00	0.00	0.00	1.50	3.50	6.00	5.00	8.00	9.00	10.00	13.00	11.25	13.25	18.50	-0.306641	0.825684	1.810059	61.459999	441.630005	-155.680008	1053.00	0.24	-0.13
3.09	30.00	23.50	13.50	13.75	2.50	5.50	3.00	2.50	0.00	0.00	0.00	0.00	0.00	0.00	0.00	0.25	-1.289062	0.769531	4.149902	4.480000	408.380005	-44.170002	1094.00	-0.31	-0.04	0.25	0.00	0.00	0.00	0.00	1.00	3.25	5.25	4.50	7.75	9.00	9.50	12.25	9.75	12.75	17.00	-0.794434	1.610840	1.775391	67.620003	508.549988	-189.630005	974.00	0.24	-0.13
3.10	29.00	22.25	15.00	14.50	5.50	8.75	3.25	6.25	0.00	0.00	0.00	0.25	0.50	0.00	0.00	0.25	-0.805664	1.069824	2.306152	-104.370003	242.130005	-42.279999	1246.00	-0.28	-0.06	0.00	0.00	0.00	0.00	0.00	1.00	3.25	4.25	3.75	7.75	9.00	9.00	11.25	7.75	10.50	13.00	-0.745117	1.389648	2.389648	83.860001	575.470032	-225.470001	860.00	0.24	-0.13
3.11	28.25	21.50	16.00	15.00	6.50	10.00	3.50	8.00	0.00	0.00	0.00	0.25	1.25	0.00	0.00	0.50	-0.622559	-0.076172	2.165527	-200.270004	113.959999	-11.760000	1317.00	-0.26	-0.07	0.25	0.00	0.00	0.00	0.00	1.25	3.50	2.50	2.50	5.75	8.25	8.75	10.75	6.00	8.75	9.25	-1.693848	2.219238	3.180176	101.779999	616.630005	-241.850006	726.00	0.23	-0.13
3.12	26.50	18.50	12.50	12.00	7.00	9.00	3.50	8.00	0.00	0.00	0.00	0.00	1.00	0.00	0.00	0.25	-0.329102	-0.074707	1.469238	-204.889999	52.080002	-8.260000	1175.00	-0.26	-0.07	0.00	0.00	0.00	0.00	0.00	0.25	3.25	0.50	2.75	3.75	5.00	6.25	8.00	3.75	6.00	7.25	-2.616699	2.399902	4.751465	137.759995	622.580017	-241.360001	498.00	0.25	-0.11
3.13	27.00	19.75	16.00	14.75	9.00	11.00	4.00	9.00	0.75	0.25	0.50	0.75	4.00	0.25	0.00	0.75	-0.113281	0.061035	1.024902	-113.050003	15.050000	-14.350000	1403.00	-0.23	-0.08	0.75	0.00	0.00	0.75	0.00	1.50	3.50	1.50	3.25	3.00	3.25	5.50	7.50	3.25	5.25	4.50	-2.062988	1.160156	5.904297	171.430008	596.119995	-253.399994	487.00	0.20	-0.10
3.14	26.75	19.25	15.75	14.50	9.75	11.25	4.00	9.25	0.50	0.25	0.25	0.75	5.00	0.75	0.00	0.50	-0.239746	0.395020	1.144531	-58.799999	3.430000	-3.290000	1412.00	-0.23	-0.08	0.25	0.00	0.00	0.00	0.00	0.25	3.50	0.50	1.00	0.50	2.25	4.25	6.00	2.00	4.25	4.00	-0.727051	1.401367	4.992676	145.740005	525.979980	-294.839996	314.00	0.22	-0.12
3.15	25.75	19.00	15.75	14.25	10.00	11.25	4.50	9.50	1.00	0.50	0.50	0.50	4.75	1.00	0.00	0.75	-0.089355	0.073242	1.043457	-47.950001	7.070000	-1.120000	1422.00	-0.22	-0.08	0.50	0.00	0.00	0.00	0.00	0.00	3.50	1.00	0.75	0.00	0.00	2.00	3.00	2.00	3.25	2.75	0.896973	1.503906	3.830566	116.830002	463.330017	-335.089996	214.00	0.20	-0.06
3.16	25.50	18.50	15.25	14.25	10.25	11.00	4.50	9.50	1.25	0.50	0.25	0.50	4.50	0.75	0.00	0.50	-0.083496	-0.061523	0.986328	-29.889999	8.890000	-3.500000	1402.00	-0.22	-0.08	3.25	1.25	1.75	1.75	0.75	1.50	4.25	1.25	1.75	1.00	1.25	2.50	3.00	1.50	3.00	2.00	7.051758	-5.462402	6.224609	128.029999	173.180008	-409.850006	377.00	0.04	-0.04
3.17	25.00	18.25	15.00	14.00	10.25	10.75	4.75	9.25	1.50	0.75	0.25	0.75	4.75	1.00	0.00	0.75	-0.065430	0.057129	1.003906	-3.150000	15.890000	0.350000	1401.00	-0.21	-0.08	3.25	1.00	1.25	1.50	0.75	1.25	4.00	0.75	1.75	1.75	1.25	0.75	0.00	0.00	0.00	0.00	2.654785	3.883789	5.829102	151.690002	-114.309998	-419.440002	250.00	-0.04	0.04
3.18	23.75	17.25	14.50	13.50	10.00	10.50	4.75	9.25	1.75	0.75	0.50	0.50	4.75	1.00	0.00	0.50	-0.124512	0.055664	1.008301	2.450000	21.490000	-0.420000	1360.00	-0.21	-0.08	0.50	0.00	0.00	0.00	0.00	0.00	3.75	0.00	0.00	0.50	0.00	0.50	0.00	0.00	0.50	0.50	2.513672	1.225586	3.140137	29.750000	-251.930008	-294.980011	88.00	0.10	0.15
3.19	22.00	16.25	14.00	13.00	10.00	10.50	4.75	9.25	1.50	0.75	0.50	0.75	4.50	0.75	0.00	0.75	-0.072266	0.034180	0.978027	9.520000	25.830000	-0.140000	1315.00	-0.20	-0.08	0.75	0.00	0.00	0.00	0.00	0.00	3.75	0.00	1.50	1.00	0.00	0.00	0.00	0.00	1.25	1.25	2.247070	1.600586	2.501953	-118.790001	-267.399994	-205.100006	125.00	0.15	0.15
3.20	20.50	15.00	13.00	12.50	9.75	10.00	4.50	9.50	2.00	0.75	0.75	0.75	5.25	1.00	0.00	0.50	-0.090820	0.039551	0.994141	17.360001	29.400000	0.210000	1276.00	-0.19	-0.08	1.50	0.00	0.00	0.00	0.00	0.00	3.75	0.00	0.00	0.00	0.00	0.00	0.00	0.00	0.00	0.00	2.135254	3.147461	2.064453	-154.630005	-280.769989	-130.899994	79.00	-0.02	0.21
3.21	18.00	13.50	12.00	11.75	9.25	9.75	4.50	9.25	2.00	1.25	0.75	1.00	5.50	1.50	0.00	0.50	-0.101562	0.072754	1.014648	24.430000	33.810001	0.910000	1214.00	-0.18	-0.09	0.00	0.00	0.00	0.00	0.00	0.00	4.00	0.00	0.00	0.25	0.00	0.00	0.00	0.00	0.00	0.00	2.073242	2.614746	2.120605	-117.250000	-319.339996	-43.470001	69.00	0.09	0.24
3.22	15.50	11.75	11.00	11.00	8.50	9.50	4.25	9.50	1.75	1.00	0.75	1.00	5.75	0.75	0.00	0.50	-0.077637	0.075195	0.989746	29.680000	38.290001	1.540000	1124.00	-0.17	-0.10	0.25	0.00	0.00	0.00	0.00	0.00	3.75	0.00	0.00	0.00	0.00	0.00	0.00	0.00	0.00	0.00	1.806152	1.903809	1.872559	-57.750000	-361.059998	24.780001	65.00	0.06	0.24
3.23	13.00	10.25	10.00	9.75	8.00	9.00	4.00	9.50	1.50	0.50	1.25	1.25	6.25	1.00	0.00	1.00	-0.098633	0.088867	0.978516	33.110001	40.810001	1.260000	1046.00	-0.16	-0.11	1.00	0.00	0.00	0.00	0.00	0.00	3.75	0.00	0.00	0.00	0.00	0.00	0.00	0.00	0.00	0.00	1.364746	1.320312	1.708984	-36.470001	-390.459991	75.879997	73.00	0.01	0.22
3.24	10.50	8.75	9.00	9.00	7.00	8.50	3.75	9.50	1.75	0.75	1.00	1.50	6.75	1.25	0.00	0.75	-0.105957	0.116699	0.962891	32.549999	40.599998	0.420000	972.00	-0.14	-0.12	0.50	0.00	0.00	0.00	0.00	0.00	3.75	0.00	0.00	0.50	0.00	0.50	1.00	0.75	1.25	1.00	1.079102	0.977051	1.624023	-28.980000	-409.640015	107.730003	116.00	0.15	0.07
3.25	8.25	7.25	8.00	8.00	6.00	8.00	3.75	9.50	1.50	1.25	1.00	1.75	7.50	1.00	0.00	1.25	-0.142578	0.133301	0.958496	26.809999	43.540001	-0.420000	902.00	-0.12	-0.13	1.50	0.00	0.00	0.25	0.00	0.00	4.00	0.00	0.00	0.25	0.00	0.25	0.50	1.00	1.25	1.00	0.748535	0.753418	1.557129	-9.800000	-422.799988	119.559998	126.00	0.09	0.10
3.26	7.00	6.00	6.50	7.00	5.50	7.50	3.50	9.25	1.00	1.00	1.25	2.00	8.00	1.00	0.00	1.25	-0.148926	0.155273	0.954102	19.389999	46.270000	-1.400000	825.00	-0.11	-0.14	2.00	0.50	0.00	0.00	0.25	1.00	4.25	0.50	1.50	1.25	0.50	1.00	1.00	1.00	1.25	0.75	0.484863	0.500977	1.561523	16.940001	-431.760010	118.160004	211.00	0.08	0.05
3.27	5.25	5.25	6.00	5.75	4.75	6.25	3.50	9.00	1.25	0.75	1.25	2.00	6.75	0.00	0.00	0.75	-0.066406	0.102539	1.007324	14.210000	53.200001	-1.750000	725.00	-0.10	-0.15	3.25	1.25	1.50	1.50	0.75	1.25	4.25	1.00	1.50	1.00	0.50	0.50	0.00	0.00	0.00	0.00	0.288574	0.234375	1.676758	45.360001	-438.269989	108.290001	240.00	-0.07	0.04
3.28	1.25	0.00	3.25	0.50	2.75	1.75	3.00	7.75	0.75	0.50	0.75	1.25	7.25	0.00	0.00	0.75	-0.070801	0.089355	1.033691	28.350000	66.360001	-7.210000	404.00	-0.00	-0.18	0.00	0.00	0.00	0.00	0.00	0.25	4.00	0.00	0.00	0.50	0.50	1.00	1.50	1.25	1.25	0.75	0.131348	0.052734	1.821289	69.930000	-445.899994	93.099998	136.00	0.18	0.03
3.29	0.00	0.00	1.25	0.00	2.25	0.75	3.00	7.25	0.50	0.50	1.00	1.50	7.25	0.00	0.00	2.25	-0.127930	0.131348	1.036133	46.340000	78.190002	-12.110000	345.00	0.06	-0.22	1.25	0.00	0.00	0.00	0.00	0.00	4.00	0.00	0.00	0.00	0.00	0.00	0.00	0.00	0.00	0.00	-0.161621	-0.027344	2.244141	112.840004	-465.010010	63.279999	80.00	-0.01	0.22
3.30	3.25	2.50	2.50	0.00	1.00	0.00	2.75	6.50	2.25	2.25	2.75	3.75	9.25	1.75	0.75	3.25	-0.142090	0.096680	1.055176	59.500000	89.879997	-14.280000	522.00	0.06	-0.15	0.00	0.00	0.00	0.00	0.00	0.00	3.75	0.00	0.00	0.25	0.00	0.00	0.00	0.00	0.00	0.00	-0.318848	0.006836	2.379883	131.180008	-476.350006	57.540001	65.00	0.09	0.23
3.31	2.25	0.00	1.75	0.00	1.25	0.00	2.75	5.75	2.00	3.25	3.75	4.50	9.75	2.75	1.50	4.25	-0.198242	0.128906	1.037598	71.540001	98.000000	-16.870001	523.00	0.12	-0.15	0.25	0.00	0.00	0.00	0.00	0.00	3.75	0.00	0.00	0.00	0.00	0.00	0.00	0.00	0.00	0.00	-0.477539	0.031250	2.394531	138.880005	-482.230011	66.500000	65.00	0.06	0.24
3.32	2.50	2.25	3.50	1.75	2.25	1.00	3.00	6.25	4.25	3.75	5.25	5.50	9.75	4.00	2.00	5.75	-0.229492	0.229980	0.979980	75.809998	117.320000	-28.139999	720.00	0.09	-0.12	0.00	0.00	0.00	0.00	0.00	0.00	3.75	0.00	0.00	0.00	0.00	0.00	0.00	0.00	0.00	0.00	-0.617188	0.051270	2.389648	130.130005	-479.010010	88.760002	62.00	0.08	0.24
3.33	1.25	0.50	2.75	1.00	1.50	0.25	3.00	5.75	5.00	4.50	6.50	6.75	10.50	4.75	3.00	7.25	-0.262207	0.271484	1.011719	61.810001	126.559998	-34.299999	726.00	0.15	-0.12	0.00	0.00	0.00	0.00	0.00	0.00	3.75	0.00	0.00	0.00	0.00	0.00	0.00	0.00	0.00	0.00	-0.715820	0.264648	2.456543	112.139999	-468.649994	117.739998	62.00	0.08	0.24
3.34	2.50	1.50	3.25	1.50	2.25	0.50	2.50	5.75	5.25	5.50	7.25	7.50	11.00	7.00	4.25	8.00	-0.296387	0.379883	0.990234	57.889999	133.279999	-41.369999	843.00	0.14	-0.11	0.00	0.00	0.00	0.00	0.00	0.00	3.75	0.00	0.00	0.00	0.00	0.00	0.00	0.00	0.00	0.00	-0.854980	0.531250	2.517578	103.809998	-456.470001	148.960007	62.00	0.08	0.24
3.35	2.25	1.00	3.00	1.25	1.50	0.75	2.50	5.25	6.25	6.50	7.75	8.00	11.00	7.75	5.25	9.00	-0.341309	0.402344	0.996582	54.250000	140.910004	-52.220001	876.00	0.16	-0.10	0.00	0.00	0.00	0.00	0.00	0.00	3.75	0.00	0.00	0.00	0.00	0.00	0.00	0.00	0.00	0.00	-1.049316	0.669434	2.626953	113.750000	-438.690002	178.919998	62.00	0.08	0.24
3.36	2.25	1.00	3.00	1.75	1.50	0.50	2.25	5.25	6.75	7.25	8.00	8.25	11.50	9.00	5.50	9.75	-0.344727	0.468750	1.064941	49.560001	151.410004	-66.989998	920.00	0.17	-0.10	0.00	0.00	0.00	0.00	0.00	0.00	3.75	0.00	0.00	0.00	0.00	0.00	0.00	0.00	0.00	0.00	-1.308594	0.661621	2.836426	124.529999	-414.959991	202.300003	62.00	0.08	0.24
3.37	1.75	0.50	2.50	1.50	0.75	0.75	2.25	4.75	7.50	7.25	8.25	8.25	11.25	9.75	7.25	10.50	-0.370117	0.395020	1.126953	45.920002	164.919998	-81.269997	929.00	0.19	-0.09	1.25	0.00	0.00	0.00	0.00	0.00	3.75	0.00	0.00	0.00	0.00	0.00	0.00	0.00	0.00	0.00	-1.601074	0.796387	3.132324	127.330002	-389.690002	219.380005	76.00	-0.01	0.22
3.38	2.00	0.75	3.50	2.00	1.25	1.00	2.25	4.75	7.75	7.75	8.50	8.50	11.00	10.75	7.50	10.75	-0.425781	0.341797	1.085938	41.860001	178.220001	-93.449997	988.00	0.18	-0.09	0.50	0.00	0.00	0.00	0.00	0.00	3.75	0.00	0.00	0.00	0.00	0.00	0.00	0.00	0.00	0.00	-1.912109	0.943359	3.573730	129.850006	-371.070007	236.389999	67.00	0.04	0.23
3.39	2.00	0.25	2.50	2.00	1.25	0.00	2.00	5.00	8.25	8.00	8.75	8.75	11.25	11.75	8.00	11.00	-0.394043	0.223633	1.106934	39.619999	191.869995	-101.779999	993.00	0.20	-0.09	0.25	0.00	0.00	0.00	0.00	0.00	3.75	0.00	0.00	0.00	0.00	0.00	0.00	0.00	0.00	0.00	-2.315430	0.852539	3.921875	129.850006	-371.070007	258.860016	65.00	0.06	0.24
3.40	1.50	1.00	2.25	1.50	1.00	0.00	2.00	4.75	8.50	8.50	9.00	8.75	11.00	12.50	8.50	11.25	-0.388672	0.103027	1.273438	36.049999	208.949997	-104.720001	1003.00	0.20	-0.08	2.75	1.25	1.25	1.00	0.00	0.00	3.75	0.00	0.00	0.00	0.00	0.00	0.00	0.00	0.00	0.00	-2.943359	0.745117	3.769531	111.790001	-384.860016	285.179993	133.00	-0.15	0.11
3.41	1.50	0.25	2.75	1.50	0.75	0.50	2.00	4.50	9.25	8.75	9.25	8.75	11.00	13.50	9.00	11.00	-0.388184	0.065918	1.365723	28.770000	230.930008	-101.430000	1030.00	0.21	-0.07	3.00	1.00	1.25	1.25	0.75	1.25	4.25	0.75	1.50	1.25	0.50	1.00	0.50	0.00	0.00	0.00	-4.127441	0.678711	2.077637	64.190002	-379.890015	324.730011	238.00	-0.05	0.04
3.42	1.25	2.00	2.50	1.50	0.75	0.00	2.00	5.00	9.50	8.75	9.25	8.50	10.50	14.00	10.50	10.75	-0.475586	0.124023	1.237305	20.299999	267.470001	-95.900002	1060.00	0.21	-0.07	0.00	0.50	1.25	1.25	0.75	1.00	4.25	0.75	1.00	1.25	0.75	1.00	0.50	0.50	0.50	0.00	-4.566895	0.271484	1.538574	85.820000	-337.959991	328.929993	202.00	0.04	0.03
3.43	1.00	0.25	2.00	0.75	0.75	0.00	2.00	4.75	9.75	9.25	9.25	8.50	10.25	14.50	10.00	10.50	-0.358398	0.366699	3.414551	-13.230000	346.640015	-83.720001	1025.00	0.23	-0.07	1.00	0.00	0.00	0.00	0.00	0.00	3.75	0.00	0.00	0.00	0.00	0.00	1.00	1.00	1.00	0.00	-4.796875	-0.434570	1.050781	110.389999	-283.850006	327.179993	103.00	0.10	0.12
3.44	1.25	0.25	2.50	1.50	0.25	0.75	2.00	4.50	10.00	9.75	9.50	8.50	9.75	14.75	10.50	10.25	-0.150879	0.212891	3.020996	-52.430000	373.869995	-91.349998	1056.00	0.22	-0.06	1.00	0.00	0.00	0.00	0.00	0.00	3.75	0.00	0.00	0.00	0.00	0.00	0.00	0.00	0.75	1.00	-5.958496	-0.644043	1.014648	101.779999	-227.220001	292.739990	88.00	0.07	0.16
3.45	1.75	0.25	1.25	1.50	1.00	0.00	2.25	3.75	10.25	10.00	9.50	8.50	9.50	14.50	10.75	9.25	-0.316895	0.369629	1.921387	-13.860000	418.250000	-115.919998	1036.00	0.22	-0.05	2.50	0.75	1.25	1.00	0.75	1.00	4.00	0.75	1.25	0.00	0.25	1.00	1.00	1.00	1.25	0.50	-7.709961	-0.741211	0.598145	127.889999	-205.240005	206.850006	231.00	0.00	0.02
3.46	0.75	0.75	2.00	0.75	0.75	0.00	2.25	3.00	10.00	10.00	9.50	8.25	8.75	14.00	10.00	8.25	-1.073730	0.959473	2.584961	-16.030001	489.580017	-123.830002	982.00	0.23	-0.04	2.75	1.00	1.25	1.25	0.75	1.00	4.00	0.75	1.25	1.00	0.75	1.25	1.00	0.75	1.00	0.50	-8.431152	-1.359375	-0.490234	111.510002	-165.410004	97.370003	254.00	-0.00	0.01
3.47	0.75	0.50	2.25	1.00	0.75	0.00	2.25	2.00	9.75	10.00	9.50	7.75	8.00	12.25	9.25	6.75	-1.687012	0.924316	3.034180	13.440001	587.580017	-165.830002	919.00	0.23	-0.04	3.25	0.75	1.25	1.25	0.00	1.00	3.75	0.00	0.00	0.00	0.00	0.00	0.00	0.00	0.00	0.00	-7.720703	-1.124023	-0.989746	62.930000	-68.879997	2.100000	148.00	-0.16	0.08
3.48	1.50	0.25	2.00	0.75	0.50	0.00	2.25	1.75	9.00	9.50	9.00	7.25	7.50	10.25	8.25	5.25	-2.291992	1.981934	3.333008	55.439999	622.580017	-164.500000	840.00	0.22	-0.03	3.50	1.25	0.75	0.25	0.25	0.00	3.75	0.00	0.00	0.00	0.00	0.25	0.00	0.00	0.00	0.00	-12.397949	-0.971191	0.323242	21.980000	30.799999	-39.200001	132.00	-0.15	0.13
3.49	0.75	0.25	1.75	0.50	0.50	0.00	2.50	1.00	8.25	8.75	8.25	6.00	5.50	7.75	6.00	3.00	-2.565430	1.949219	4.995117	141.119995	654.780029	-154.699997	694.00	0.22	-0.01	6.50	5.25	5.50	5.25	1.00	0.75	3.75	1.00	1.00	0.00	0.25	0.75	1.50	0.75	1.00	0.75	-6.073242	-0.799316	-2.615234	-29.540001	232.259995	-82.389999	419.00	-0.16	-0.02
3.50	1.00	0.00	1.50	0.25	0.50	0.00	2.50	0.25	7.50	7.75	7.50	5.00	4.50	5.75	4.00	2.00	-2.233887	1.519043	5.964844	227.430008	640.220032	-185.360001	576.00	0.22	0.00	23.50	19.00	7.00	8.50	0.75	0.50	3.50	0.00	0.00	0.00	0.00	0.00	0.25	0.00	0.00	0.00	-2.961426	2.306641	2.804199	-49.000000	430.500000	-150.500000	719.00	-0.33	-0.01
3.51	1.50	0.00	2.00	0.50	0.50	0.00	2.50	0.75	6.00	5.75	5.25	3.75	3.00	3.75	2.50	0.50	-1.400879	1.257812	6.271973	255.919998	621.460022	-233.100006	456.00	0.17	0.01	30.75	28.75	11.75	12.00	0.50	0.25	3.50	0.50	0.00	0.00	0.00	0.50	0.00	0.00	0.00	0.00	-0.044922	1.786621	5.246582	-48.369999	427.070007	-117.739998	1005.00	-0.33	-0.02
3.52	1.25	0.25	2.75	0.25	0.75	0.00	2.50	0.00	4.25	4.25	3.50	2.25	1.75	2.25	1.50	1.00	-0.049316	1.077637	5.847656	198.800003	601.859985	-299.880005	339.00	0.14	0.04	43.50	33.25	21.25	16.00	2.00	3.25	3.50	1.75	0.50	0.00	0.00	0.50	0.00	0.25	0.75	0.75	-1.393555	0.033691	6.725586	4.550000	619.849976	-51.799999	1456.00	-0.31	-0.02
3.53	1.75	0.50	2.25	0.75	0.75	0.00	2.50	0.00	3.00	2.25	2.50	1.75	0.75	1.50	0.50	0.75	2.340332	1.921387	5.620117	130.270004	541.169983	-337.959991	260.00	0.08	0.05	36.25	30.75	18.75	19.50	5.25	8.25	4.00	5.75	0.00	0.00	0.00	0.75	1.00	0.00	0.00	0.25	-1.743652	-0.345215	6.096191	-117.669998	472.989990	-44.170002	1525.00	-0.29	-0.06
3.54	1.25	0.50	3.00	0.75	1.25	0.00	3.00	0.00	1.75	2.00	1.00	0.25	0.00	0.75	0.00	0.75	-0.466309	2.785645	3.839355	138.039993	329.350006	-337.750000	203.00	0.01	0.10	37.25	31.50	21.00	20.25	7.50	9.50	4.50	7.50	0.00	0.00	0.00	1.50	3.50	0.75	0.00	1.00	-1.544922	0.695312	4.788574	-239.960007	215.669998	-42.700001	1703.00	-0.26	-0.07
3.55	2.25	1.25	2.75	1.25	1.00	0.00	2.75	0.00	1.50	2.00	1.00	0.00	0.00	0.50	0.00	0.75	2.361328	2.812988	6.921875	88.410004	39.689999	-204.960007	209.00	-0.05	0.08	42.00	30.00	20.25	19.50	10.00	9.75	5.00	8.00	0.00	0.50	1.00	2.25	5.50	1.00	1.50	1.50	-0.146484	0.128418	1.999023	-249.199997	99.540001	-21.350000	1840.00	-0.24	-0.07
3.56	2.00	1.25	2.50	1.25	1.00	0.00	3.00	0.00	1.75	1.50	0.75	0.00	0.00	0.75	0.00	0.50	1.772949	1.738281	3.332031	-23.450001	-144.759995	-23.450001	203.00	-0.04	0.10	40.25	30.25	24.50	22.25	12.50	12.00	5.50	9.25	1.75	1.00	1.25	2.50	6.25	1.25	1.75	1.75	-0.180664	-0.290527	1.258301	-168.839996	45.990002	-7.700000	2044.00	-0.22	-0.07
3.57	2.00	1.00	3.00	1.25	1.00	0.00	3.00	0.00	1.50	1.50	0.75	0.00	0.00	1.00	0.00	0.75	0.717773	1.721680	2.663086	-169.539993	-202.509995	113.680000	207.00	-0.04	0.10	39.75	29.75	25.00	22.50	14.00	12.75	5.75	9.50	2.00	1.50	1.00	2.50	6.75	1.25	1.75	2.00	-0.183594	0.260742	1.252930	-90.019997	2.940000	-9.940000	2090.00	-0.22	-0.07
3.58	1.75	1.00	2.50	1.00	0.50	0.00	3.25	0.00	1.25	1.25	0.50	0.00	0.00	0.75	0.00	0.75	1.333008	1.735840	1.579102	-205.589996	-208.180008	192.360001	181.00	-0.04	0.10	39.50	29.25	24.75	22.75	15.00	13.00	6.00	9.50	2.50	1.75	1.25	2.75	7.00	1.50	1.75	2.25	-0.103516	0.180176	1.148438	-57.189999	-10.150000	-3.640000	2123.00	-0.21	-0.06
3.59	2.00	1.00	2.50	1.00	1.00	0.00	2.75	0.00	0.75	1.75	0.75	0.00	0.00	0.25	0.00	0.50	1.226562	1.558105	1.679688	-179.479996	-217.210007	220.500000	177.00	-0.06	0.09	39.00	28.50	24.50	22.25	15.25	12.75	6.25	9.75	2.50	1.75	1.25	2.50	7.00	1.50	1.75	2.25	-0.020020	-0.062988	1.116211	-35.980000	-5.390000	-1.820000	2106.00	-0.21	-0.06
3.60	1.75	0.50	2.50	0.75	1.00	0.00	3.00	0.00	1.00	1.25	0.50	0.00	0.00	0.00	0.00	0.50	1.160156	1.200195	1.904785	-113.050003	-251.720001	221.059998	163.00	-0.05	0.11	38.00	28.25	24.00	22.00	15.25	12.75	6.25	9.50	2.50	2.25	1.25	2.50	6.75	1.50	1.75	2.25	-0.050293	0.062500	1.086426	-14.840000	2.030000	-3.010000	2082.00	-0.21	-0.06
3.61	2.25	1.00	2.75	1.25	1.50	0.00	2.75	0.00	0.75	0.75	0.25	0.00	0.00	0.00	0.00	0.50	1.167480	0.767090	1.927246	-67.129997	-304.640015	209.720001	172.00	-0.11	0.09	36.75	27.25	23.25	21.50	14.75	12.25	6.25	9.50	2.50	2.00	1.25	2.25	6.75	1.50	1.75	2.00	-0.030762	0.129395	1.050781	-4.830000	10.850000	-1.470000	2024.00	-0.21	-0.06
3.62	2.00	0.50	2.50	1.50	1.00	0.00	2.75	0.00	0.25	0.50	0.50	0.00	0.00	0.25	0.00	0.50	0.677246	0.483887	1.903320	-45.570000	-417.480011	171.430008	154.00	-0.11	0.08	35.25	26.00	22.25	20.25	14.25	11.50	6.00	9.25	2.50	2.00	1.25	2.50	6.50	1.50	1.75	2.00	-0.005859	0.050781	1.029785	0.210000	19.740000	-1.890000	1944.00	-0.20	-0.06
3.63	1.75	1.25	2.75	1.25	1.00	0.00	3.00	0.00	0.00	0.75	0.00	0.00	0.25	0.75	0.00	0.50	0.432129	0.458496	1.787598	-39.549999	-461.790009	150.009995	163.00	-0.11	0.07	33.25	24.50	21.00	19.25	13.50	10.75	6.00	9.00	2.50	1.75	1.25	2.25	6.00	1.25	1.75	2.00	-0.023438	0.080078	1.041992	6.440000	27.650000	-3.010000	1845.00	-0.20	-0.06
3.64	1.75	1.25	2.50	1.25	1.00	0.00	2.75	0.00	0.25	0.00	0.00	0.00	0.00	0.25	0.00	0.50	0.154297	0.380371	1.702637	-29.610001	-492.450012	127.959999	144.00	-0.14	0.08	30.00	22.25	19.25	18.25	12.25	10.25	5.75	8.75	2.50	2.00	1.00	2.00	6.00	1.50	1.75	1.75	-0.019531	0.078125	1.020508	12.810000	34.720001	-3.220000	1720.00	-0.20	-0.07
3.65	2.50	1.25	2.50	1.00	0.75	0.25	2.75	0.00	0.25	0.50	0.00	0.00	0.00	0.00	0.00	0.50	-0.086914	0.276855	1.640137	-16.799999	-510.019989	107.520004	153.00	-0.15	0.08	27.50	19.50	17.25	16.50	10.75	9.25	5.50	8.50	2.25	2.00	1.00	2.00	5.50	1.50	1.50	1.75	-0.021484	0.062988	0.984863	22.889999	44.869999	-3.780000	1570.00	-0.19	-0.07
3.66	1.50	1.25	2.75	1.00	1.00	0.00	2.75	0.00	0.00	0.25	0.25	0.00	0.00	0.50	0.00	0.00	-0.348145	0.208008	1.620605	-3.360000	-519.470032	90.440002	143.00	-0.13	0.09	24.00	16.00	13.75	13.75	9.00	9.00	5.25	8.25	2.50	2.00	0.75	1.75	5.25	1.50	1.50	1.50	-0.001953	0.094238	0.982422	24.990000	47.950001	-3.780000	1381.00	-0.18	-0.07
