# time	left pressure 1[N/cm²]	left pressure 2[N/cm²]	left pressure 3[N/cm²]	left pressure 4[N/cm²]	left pressure 5[N/cm²]	left pressure 6[N/cm²]	left pressure 7[N/cm²]	left pressure 8[N/cm²]	left pressure 9[N/cm²]	left pressure 10[N/cm²]	left pressure 11[N/cm²]	left pressure 12[N/cm²]	left pressure 13[N/cm²]	left pressure 14[N/cm²]	left pressure 15[N/cm²]	left pressure 16[N/cm²]	left acceleration X[g]	left acceleration Y[g]	left acceleration Z[g]	left angular X[dps]	left angular Y[dps]	left angular Z[dps]	left total force[N]	left center of pressure X[%]	left center of pressure Y[%]	right pressure 1[N/cm²]	right pressure 2[N/cm²]	right pressure 3[N/cm²]	right pressure 4[N/cm²]	right pressure 5[N/cm²]	right pressure 6[N/cm²]	right pressure 7[N/cm²]	right pressure 8[N/cm²]	right pressure 9[N/cm²]	right pressure 10[N/cm²]	right pressure 11[N/cm²]	right pressure 12[N/cm²]	right pressure 13[N/cm²]	right pressure 14[N/cm²]	right pressure 15[N/cm²]	right pressure 16[N/cm²]	right acceleration X[g]	right acceleration Y[g]	right acceleration Z[g]	right angular X[dps]	right angular Y[dps]	right angular Z[dps]	right total force[N]	right center of pressure X[%]	right center of pressure Y[%]
0.00																										0.50	0.00	0.50	0.75	1.00	0.25	1.75	3.75	7.50	7.50	7.75	6.25	7.75	11.25	2.00	3.25	-0.184570	0.058105	1.028809	14.980000	76.650002	-15.750000	641.00	0.21	-0.05
0.01																										0.50	0.00	0.00	0.50	0.75	0.25	1.50	3.75	8.50	8.50	9.00	7.75	8.00	14.00	2.50	4.75	-0.227051	0.068848	1.014160	20.370001	89.180000	-16.309999	718.00	0.23	-0.05
0.02																										0.75	0.00	0.00	0.50	0.50	0.25	1.25	3.75	9.25	9.50	10.00	8.75	8.50	16.00	3.25	5.50	-0.234863	0.078125	1.093262	25.900000	101.150002	-17.080000	788.00	0.24	-0.05
0.03	0.00	0.00	0.00	0.00	0.00	0.00	0.00	0.00	0.00	0.00	0.00	0.00	0.00	0.00	0.00	0.25	-4.464844	0.328125	0.673340	-123.830002	-314.440002	310.309998	1.00	0.00	0.00	0.50	0.25	0.00	0.50	0.25	0.00	1.25	3.50	10.00	10.25	11.00	9.50	8.75	18.75	4.00	6.25	-0.258789	0.106445	1.159668	31.570000	117.389999	-16.520000	852.00	0.25	-0.04
0.04																										0.50	0.00	0.00	0.00	0.00	0.00	1.00	3.00	10.75	11.00	11.75	9.75	8.75	20.25	5.25	7.00	-0.277344	0.160156	1.128418	30.660000	165.619995	-21.629999	889.00	0.26	-0.04
0.05	0.00	0.00	0.00	0.00	0.00	0.00	0.00	0.00	0.00	0.00	0.00	0.00	0.00	0.00	0.00	0.00	-7.388672	2.086914	-1.159180	-118.230003	-196.350006	142.869995	0.00	0.00	0.00	0.50	0.00	0.00	0.50	0.00	0.00	0.75	2.50	10.75	11.50	12.25	10.25	8.75	22.50	6.00	7.50	-0.277344	0.160156	1.128418	30.660000	165.619995	-21.629999	928.00	0.26	-0.03
0.06	0.00	0.00	0.00	0.00	0.00	0.00	0.00	0.00	0.00	0.00	0.00	0.00	0.00	0.00	0.00	0.25	-6.870605	1.159668	-1.736328	121.520004	-92.750000	41.860001	1.00	0.00	0.00	0.25	0.00	0.00	0.25	0.00	0.00	0.50	2.00	11.25	11.50	12.50	10.50	8.75	23.75	6.50	7.75	-0.304688	0.163086	1.235840	26.250000	187.529999	-26.740000	941.00	0.27	-0.03
0.07	0.00	0.00	0.50	0.00	0.00	0.00	0.00	0.00	0.00	0.00	0.00	0.00	0.00	0.00	0.00	0.00	-6.261230	-0.378906	-0.586914	225.190002	28.559999	22.540001	6.00	0.00	0.00	0.50	0.00	0.00	0.00	0.00	0.00	0.25	1.50	11.25	11.75	12.50	10.50	8.50	24.50	7.25	8.00	-0.395020	0.169434	1.130371	23.940001	216.580002	-31.639999	945.00	0.28	-0.03
0.08	0.00	0.00	0.00	0.00	0.00	0.00	0.00	0.00	0.00	0.00	0.00	0.00	0.00	0.00	0.00	0.00	-5.197754	-1.163086	0.210938	98.139999	116.410004	58.029999	0.00	0.00	0.00	0.25	0.00	0.00	0.00	0.00	0.00	0.00	1.25	11.25	11.75	12.50	10.50	8.25	25.50	7.75	8.25	-0.398926	0.135254	1.249512	21.840000	245.350006	-32.830002	948.00	0.28	-0.02
0.09	0.00	0.00	0.50	0.75	0.00	0.00	0.00	0.00	0.00	0.00	0.00	0.00	0.00	0.00	0.00	0.00	-4.179199	-0.244629	0.807129	-58.590000	158.339996	84.629997	14.00	0.00	0.00	0.00	0.00	0.00	0.00	0.00	0.00	0.00	0.75	11.00	11.50	12.25	10.25	7.75	26.00	7.50	8.00	-0.359375	0.137207	1.470215	8.820000	300.230011	-35.980000	922.00	0.29	-0.02
0.10	1.00	2.50	1.25	3.00	0.00	0.00	0.00	0.00	0.00	0.00	0.00	0.00	0.00	0.00	0.00	0.00	1.349609	-0.831055	0.728516	25.410000	337.260010	42.630001	80.00	-0.34	-0.11	0.25	0.00	0.00	0.00	0.00	0.00	0.00	0.25	10.25	11.00	12.00	9.75	7.25	25.75	7.75	7.75	-0.554199	0.272461	1.831055	-15.260000	394.519989	-48.369999	889.00	0.29	-0.01
0.11	9.00	13.50	3.75	5.50	0.25	0.00	0.00	0.00	0.00	0.00	0.00	0.00	0.00	0.00	0.00	0.00	-0.061035	-0.099121	5.104004	-79.730003	352.100006	-1.120000	322.00	-0.37	-0.06	0.00	0.00	0.00	0.00	0.00	0.00	0.00	0.25	9.50	10.75	11.25	9.50	6.50	25.50	7.75	7.00	-0.935547	0.479004	1.972168	-20.160000	444.360016	-56.910000	851.00	0.30	-0.01
0.12	21.75	26.75	7.75	10.25	0.50	0.00	0.00	0.00	0.00	0.00	0.00	0.00	0.00	0.00	0.00	0.00	-0.695801	-0.676758	0.415527	32.340000	320.670013	13.230000	676.00	-0.37	-0.05	0.00	0.00	0.00	0.00	0.00	0.00	0.00	0.00	8.00	9.75	10.50	8.75	5.50	24.50	7.00	6.00	-0.738281	0.457520	2.550781	-6.720000	500.290009	-72.099998	771.00	0.30	-0.01
0.13	28.50	33.00	10.75	15.75	1.50	1.50	0.25	0.00	0.00	0.00	0.00	0.00	0.00	0.00	0.00	0.25	-1.145996	-0.533691	3.034668	77.629997	455.209991	-30.380001	929.00	-0.36	-0.05	0.00	0.00	0.00	0.00	0.00	0.00	0.00	0.00	6.50	8.50	9.25	7.50	4.25	22.50	6.25	4.25	-0.862793	0.652344	3.084961	3.500000	553.000000	-86.660004	667.00	0.30	-0.00
0.14	30.25	34.50	13.25	18.75	3.00	3.75	0.25	0.25	0.00	0.00	0.25	0.00	0.00	0.00	0.00	0.25	-1.998535	1.443359	6.147461	81.900002	435.049988	-51.520000	1070.00	-0.34	-0.06	0.25	0.00	0.00	0.00	0.00	0.00	0.00	0.00	5.00	7.00	7.75	5.50	2.25	19.25	5.00	2.25	-1.375000	0.934082	4.050781	45.990002	603.330017	-94.150002	528.00	0.30	0.02
0.15	28.50	33.00	14.00	19.50	5.00	5.75	0.50	0.50	0.00	0.00	0.25	0.25	0.25	0.00	0.00	0.25	-1.317383	0.987793	4.335449	7.490000	314.089996	-34.369999	1110.00	-0.33	-0.06	0.00	0.00	0.00	0.00	0.00	0.00	0.00	0.00	3.00	4.25	4.75	3.50	1.25	14.75	3.00	1.25	-0.807617	1.063477	4.025391	131.669998	639.450012	-104.160004	345.00	0.31	0.03
0.16	26.50	31.00	14.50	19.25	6.00	7.00	0.50	1.00	0.00	0.00	0.25	0.00	0.50	0.00	0.00	0.00	-0.070312	-0.189453	1.278809	-47.599998	156.029999	-10.710000	1104.00	-0.32	-0.07	0.00	0.00	0.00	0.00	0.00	0.00	0.00	0.00	1.50	2.75	2.75	2.25	0.75	9.50	1.25	0.00	-0.853516	0.616699	4.571777	233.169998	669.970032	-111.160004	201.00	0.31	0.04
0.17	25.00	29.75	14.50	20.00	6.75	8.00	0.50	1.50	0.00	0.00	0.25	0.25	0.50	0.00	0.00	0.25	-0.397461	0.340820	1.675293	-46.689999	123.900002	-7.700000	1116.00	-0.31	-0.07	0.00	0.00	0.00	0.00	0.00	0.00	0.25	0.00	1.00	1.75	2.00	1.50	1.00	5.00	0.25	0.00	-0.228027	0.268066	5.829590	306.950012	671.789978	-137.550003	126.00	0.29	0.02
0.18	24.00	29.00	14.50	20.00	7.25	8.75	0.50	2.00	0.25	0.25	0.50	0.25	0.75	0.00	0.00	0.25	-0.354980	0.213379	1.173828	-52.150002	73.989998	-0.280000	1131.00	-0.30	-0.08	0.25	0.00	0.00	0.00	0.00	0.00	0.25	0.00	0.25	0.75	0.75	0.50	0.50	1.50	0.25	0.00	1.798828	0.361816	4.018555	263.760010	645.679993	-195.089996	50.00	0.24	0.00
0.19	23.00	28.75	14.75	20.25	7.25	9.00	0.75	2.25	0.50	0.25	0.50	0.00	0.75	0.25	0.00	0.25	-0.163574	-0.029297	1.129395	-38.080002	40.529999	0.630000	1137.00	-0.29	-0.08	0.25	0.00	0.00	0.00	0.00	0.00	0.50	0.00	0.25	0.50	0.75	0.50	0.50	1.25	0.00	0.00	0.376465	1.691895	6.988770	135.100006	476.140015	-209.160004	47.00	0.00	0.00
0.20	22.75	28.00	14.50	20.00	7.75	9.50	0.75	2.50	0.00	0.25	0.50	0.00	0.75	0.25	0.00	0.25	-0.139648	0.149902	1.070801	-23.450001	28.630001	-1.960000	1130.00	-0.29	-0.08	0.25	0.00	0.00	0.00	0.00	0.00	0.25	0.00	0.25	0.25	0.75	0.25	0.50	1.25	0.25	0.00	2.334961	2.018066	6.123535	12.530000	123.270004	-96.459999	40.00	0.00	0.00
0.21	21.75	27.50	14.25	19.50	7.75	9.75	0.75	2.50	0.25	0.25	0.50	0.25	1.00	0.50	0.00	0.25	-0.093262	0.122070	0.988281	-15.610000	23.100000	-1.260000	1120.00	-0.29	-0.08	0.00	0.00	0.00	0.00	0.00	0.00	0.25	0.00	0.25	0.25	0.50	0.00	1.00	1.50	0.00	0.00	1.873047	1.804688	3.287598	-68.180000	-105.279999	23.309999	36.00	0.00	0.00
0.22	20.50	26.00	14.00	19.25	7.75	9.75	0.75	2.75	0.00	0.25	0.50	0.25	1.00	0.50	0.00	0.25	-0.036621	0.049805	0.977539	-12.530000	25.059999	-2.520000	1088.00	-0.28	-0.08	0.00	0.00	0.00	0.00	0.00	0.00	0.25	0.00	0.00	0.25	0.50	0.25	0.50	1.50	0.00	0.00	1.488281	1.517578	1.542969	-97.370003	-133.699997	102.690002	31.00	0.00	0.00
0.23	19.25	25.00	13.50	18.25	7.75	9.50	0.75	3.25	0.75	0.50	0.50	0.25	1.25	0.75	0.00	0.00	-0.069336	0.126953	0.974121	-11.550000	28.139999	-4.130000	1070.00	-0.27	-0.08	0.00	0.00	0.00	0.00	0.00	0.00	0.25	0.00	0.00	0.25	0.50	0.25	0.50	1.00	0.00	0.00	1.542969	1.375977	1.746582	-31.570000	-113.330002	134.820007	27.00	0.00	0.00
0.24	17.25	22.50	12.50	17.00	7.50	9.50	0.75	3.25	0.75	0.50	0.75	0.50	1.25	0.50	0.00	0.25	-0.054688	0.075195	0.977051	-13.860000	32.130001	-4.620000	1003.00	-0.26	-0.09	0.25	0.00	0.00	0.00	0.00	0.00	0.25	0.00	0.00	0.00	0.25	0.00	0.50	1.00	0.00	0.00	1.787598	0.641602	2.421387	59.639999	-148.889999	128.589996	22.00	0.00	0.00
0.25	15.00	19.50	11.75	15.75	7.25	9.00	0.75	3.25	0.50	0.75	0.75	0.25	1.25	1.00	0.00	0.25	-0.064941	0.081543	0.955566	-17.780001	37.029999	-5.460000	923.00	-0.25	-0.09	0.00	0.00	0.00	0.00	0.00	0.00	0.25	0.00	0.00	0.00	0.25	0.00	0.50	1.00	0.00	0.00	1.628906	0.012695	2.486816	98.070000	-232.259995	102.970001	19.00	0.00	0.00
0.26	11.75	17.50	10.50	14.25	7.00	8.75	1.00	3.50	0.75	0.75	0.75	0.50	1.25	1.00	0.00	0.25	-0.122559	0.034180	1.086914	-17.710001	39.619999	-4.480000	848.00	-0.24	-0.09	0.25	0.00	0.00	0.00	0.00	0.00	0.25	0.00	0.00	0.00	0.00	0.00	0.50	0.75	0.00	0.00	1.225098	-0.342773	2.147949	71.959999	-317.309998	79.940002	17.00	0.00	0.00
0.27	9.25	14.50	9.50	12.75	6.75	8.25	1.00	3.25	1.00	0.75	1.00	0.75	1.50	1.25	0.00	0.25	-0.087891	0.058105	0.964355	-13.440001	36.750000	-4.830000	768.00	-0.22	-0.10	0.00	0.00	0.00	0.00	0.00	0.00	0.50	0.00	0.00	0.00	0.00	0.00	0.75	0.75	0.00	0.00	0.856934	-0.430664	1.740234	20.440001	-375.970001	62.930000	20.00	0.00	0.00
0.28	7.75	11.75	9.00	11.00	6.25	7.75	1.00	3.50	1.00	1.00	1.00	0.75	1.75	1.25	0.00	0.25	-0.071289	0.072754	0.944336	-12.250000	37.380001	-3.640000	700.00	-0.20	-0.10	0.50	0.00	0.00	0.00	0.00	0.00	0.25	0.00	0.00	0.00	0.00	0.00	0.00	0.25	0.00	0.00	0.294434	-0.322754	1.505859	-25.620001	-433.369995	35.910000	11.00	0.00	0.00
0.29	6.50	9.25	7.75	9.50	6.00	7.25	1.00	3.50	1.25	1.00	1.50	0.75	2.00	1.25	0.00	0.50	-0.090820	0.042480	0.966797	-11.900000	39.410000	-2.800000	637.00	-0.18	-0.10	0.25	0.00	0.00	0.00	0.00	0.00	0.25	0.00	0.00	0.00	0.00	0.00	0.25	0.25	0.00	0.00	0.294434	-0.322754	1.505859	-25.620001	-433.369995	35.910000	11.00	0.00	0.00
0.30	5.25	7.50	7.00	8.50	5.50	6.75	1.00	3.50	1.25	1.00	1.50	0.75	2.00	1.25	0.00	0.25	-0.085449	0.023438	0.995117	-9.940000	40.670002	-3.080000	577.00	-0.17	-0.10	0.25	0.00	0.00	0.00	0.00	0.00	0.25	0.25	0.00	0.00	0.00	0.00	0.25	0.25	0.00	0.00	-0.094727	-0.398438	1.502441	-17.010000	-458.500000	17.639999	14.00	0.00	0.00
0.31	3.75	6.00	5.50	7.50	5.00	6.25	1.25	3.50	1.75	1.25	1.75	1.00	2.00	1.75	0.25	0.50	-0.125000	0.078613	0.968262	-8.820000	41.790001	-4.130000	535.00	-0.13	-0.10	0.25	0.00	0.00	0.00	0.00	0.00	0.50	0.00	0.00	0.00	0.00	0.00	0.25	0.25	0.00	0.00	-0.240234	-0.390137	1.562500	-15.260000	-465.010010	13.930000	14.00	0.00	0.00
0.32	2.75	4.75	4.75	6.25	4.50	5.50	1.25	3.50	2.00	1.50	1.75	1.25	2.50	2.00	0.25	0.50	-0.129883	0.069336	0.990234	-9.660000	41.930000	-6.160000	493.00	-0.10	-0.10	0.00	0.00	0.00	0.00	0.00	0.00	0.25	0.00	0.00	0.00	0.00	0.00	0.00	0.00	0.00	0.00	-0.349609	-0.371094	1.602539	-15.260000	-469.839996	15.260000	4.00	0.00	0.00
0.33	2.00	3.75	4.00	5.50	4.00	5.00	1.25	3.50	2.50	1.75	2.00	1.50	2.75	2.25	0.25	0.50	-0.139648	0.054199	0.978516	-9.170000	40.950001	-9.100000	467.00	-0.06	-0.10	0.00	0.00	0.00	0.00	0.00	0.00	0.25	0.00	0.00	0.00	0.00	0.00	0.25	0.00	0.00	0.00	-0.389160	-0.343262	1.697266	-16.730000	-472.149994	20.930000	6.00	0.00	0.00
0.34	1.50	3.00	3.00	5.25	3.50	4.25	1.50	3.50	3.00	2.00	2.50	1.75	3.00	2.75	0.50	0.75	-0.161133	0.037109	0.958496	-7.000000	41.299999	-12.810000	458.00	-0.02	-0.10	0.25	0.00	0.00	0.00	0.00	0.00	0.25	0.00	0.00	0.00	0.00	0.00	0.00	0.00	0.00	0.00	-0.443848	-0.310547	1.874023	-18.549999	-473.339996	30.240000	6.00	0.00	0.00
0.35	1.00	2.00	2.75	4.25	3.25	3.25	1.50	3.25	3.75	2.50	2.75	2.25	3.25	3.75	0.25	1.00	-0.172852	0.031250	0.993652	-5.530000	43.959999	-16.030001	445.00	0.02	-0.08	0.00	0.00	0.00	0.00	0.00	0.00	0.25	0.00	0.00	0.00	0.00	0.00	0.25	0.00	0.00	0.00	-0.461914	-0.323730	2.172852	-21.070000	-475.299988	38.150002	6.00	0.00	0.00
0.36	1.00	1.50	2.00	3.75	2.75	2.75	1.75	3.25	4.50	2.75	3.00	2.50	3.75	5.00	0.50	1.00	-0.158691	0.031250	0.976562	-5.320000	50.119999	-20.090000	455.00	0.06	-0.07	0.00	0.00	0.00	0.00	0.00	0.00	0.25	0.00	0.00	0.00	0.00	0.00	0.00	0.25	0.00	0.00	-0.527832	-0.392578	2.455078	-21.000000	-482.720001	38.779999	6.00	0.00	0.00
0.37	0.75	1.25	2.00	3.50	2.25	2.25	1.75	3.25	5.50	3.50	3.50	2.75	4.75	5.50	0.75	1.25	-0.196777	0.047852	0.951172	-3.710000	54.880001	-20.510000	482.00	0.09	-0.06	0.00	0.00	0.00	0.00	0.00	0.00	0.50	0.00	0.00	0.00	0.00	0.00	0.00	0.00	0.00	0.00	-0.669922	-0.445801	2.684082	-21.490000	-494.059998	29.120001	8.00	0.00	0.00
0.38	0.75	1.00	1.75	2.75	2.25	2.00	2.00	3.25	7.50	4.25	5.00	3.50	5.00	7.25	1.00	1.00	-0.177734	0.054199	0.970215	-3.500000	61.180000	-20.440001	546.00	0.13	-0.04	0.00	0.00	0.00	0.00	0.00	0.00	0.25	0.00	0.00	0.00	0.00	0.00	0.00	0.00	0.00	0.00	-0.875977	-0.517090	2.770508	-22.049999	-503.230011	8.540000	4.00	0.00	0.00
0.39	0.75	0.75	1.50	2.75	1.75	1.75	2.00	3.25	8.50	5.75	6.00	4.00	5.50	8.50	1.25	1.75	-0.183594	0.055664	0.991699	-1.610000	70.000000	-21.210001	598.00	0.15	-0.03	0.25	0.00	0.00	0.00	0.00	0.00	0.25	0.00	0.00	0.00	0.00	0.00	0.00	0.00	0.00	0.00	-1.131348	-0.496094	2.946289	-17.920000	-504.839996	-23.170000	6.00	0.00	0.00
0.40	0.50	1.25	1.50	2.50	1.75	1.25	2.25	3.00	9.50	7.50	7.50	5.00	6.00	9.75	1.50	2.00	-0.257812	0.062988	0.987305	1.120000	79.940002	-22.469999	669.00	0.17	-0.03	0.25	0.00	0.00	0.00	0.00	0.00	0.25	0.00	0.00	0.00	0.00	0.00	0.25	0.00	0.00	0.00	-1.425781	-0.321777	3.207031	-5.390000	-499.869995	-60.900002	9.00	0.00	0.00
0.41	0.25	0.75	1.25	1.75	1.50	1.25	2.25	3.00	10.25	8.25	8.25	6.00	6.50	11.25	1.75	3.00	-0.257812	0.055176	0.999512	3.850000	90.230003	-23.590000	709.00	0.19	-0.03	0.25	0.00	0.00	0.00	0.00	0.00	0.25	0.00	0.00	0.00	0.00	0.00	0.00	0.00	0.00	0.00	-1.961426	-0.060547	3.536133	17.150000	-492.450012	-90.440002	6.00	0.00	0.00
0.42	0.25	0.25	0.75	2.00	1.25	1.00	2.25	2.75	11.25	8.75	9.00	7.00	6.50	12.50	2.25	4.00	-0.289551	0.077148	0.997070	7.770000	100.660004	-26.110001	750.00	0.21	-0.02	0.00	0.00	0.00	0.00	0.00	0.00	0.25	0.00	0.00	0.00	0.00	0.00	0.00	0.00	0.00	0.00	-2.605957	0.013184	3.620605	48.020000	-483.420013	-98.419998	4.00	0.00	0.00
0.43	0.50	0.00	1.00	1.50	0.75	0.75	2.00	2.75	12.00	9.50	9.75	7.50	6.75	14.00	2.75	5.00	-0.260742	0.058594	1.044922	12.040000	111.160004	-28.070000	792.00	0.22	-0.02	0.00	0.00	0.00	0.00	0.00	0.00	0.25	0.00	0.00	0.00	0.00	0.00	0.00	0.00	0.00	0.00	-3.287109	-0.076172	3.491211	65.029999	-469.980011	-81.340004	4.00	0.00	0.00
0.44	0.25	0.00	0.75	1.50	0.75	0.25	2.00	2.75	12.50	10.25	10.50	8.00	7.00	15.50	3.25	5.25	-0.326660	0.068848	1.065430	15.260000	122.709999	-29.820000	831.00	0.23	-0.02	0.00	0.00	0.00	0.25	0.00	0.00	0.25	0.00	0.00	0.00	0.00	0.00	0.00	0.00	0.00	0.00	-3.843750	0.030762	3.241699	36.889999	-451.709991	-44.170002	7.00	0.00	0.00
0.45	0.00	0.25	0.50	1.25	0.50	0.50	1.50	2.25	13.00	10.75	11.25	8.50	7.00	16.75	4.25	6.00	-0.354980	0.080566	1.081055	21.770000	135.729996	-30.520000	860.00	0.24	-0.02	0.25	0.00	0.00	0.00	0.00	0.00	0.25	0.00	0.00	0.00	0.00	0.00	0.00	0.00	0.00	0.00	-4.211426	0.542969	2.540527	-10.360000	-425.250000	6.860000	6.00	0.00	0.00
0.46	0.50	0.00	0.75	1.00	0.25	0.25	1.25	2.25	13.25	11.00	11.75	9.00	7.00	18.25	5.25	6.50	-0.329102	0.087402	1.129395	26.670000	157.360001	-30.240000	896.00	0.25	-0.02	0.00	0.00	0.00	0.00	0.00	0.00	0.25	0.00	0.00	0.00	0.00	0.00	0.00	0.00	0.00	0.00	-4.446777	0.776855	1.160156	-13.860000	-382.549988	87.010002	4.00	0.00	0.00
0.47	0.00	0.00	0.00	1.00	0.00	0.00	0.75	2.00	13.50	11.50	12.25	9.25	7.00	19.50	6.00	6.75	-0.315918	0.069824	1.192383	28.420000	181.300003	-31.010000	902.00	0.26	-0.02	0.00	0.00	0.00	0.00	0.00	0.00	0.25	0.00	0.00	0.00	0.25	0.00	0.00	0.00	0.00	0.00	-5.657715	0.478027	-0.047363	1.960000	-318.079987	168.279999	6.00	0.00	0.00
0.48	0.00	0.00	0.00	1.00	0.00	0.00	0.50	1.75	13.75	11.50	12.50	9.50	6.75	20.50	6.50	7.00	-0.399902	0.132812	1.118652	29.400000	206.710007	-32.900002	915.00	0.27	-0.01	0.00	0.00	0.00	0.00	0.00	0.00	0.25	0.00	0.00	0.25	0.25	0.00	0.00	0.00	0.00	0.00	-7.604980	0.098145	-0.801270	16.240000	-237.229996	185.990005	9.00	0.00	0.00
0.49	0.00	0.00	0.25	0.50	0.00	0.00	0.25	1.50	13.75	11.75	12.75	9.25	6.50	21.25	6.75	7.25	-0.400391	0.103516	1.141113	25.900000	237.930008	-34.930000	916.00	0.27	-0.01	0.00	0.00	0.00	0.00	0.00	0.00	0.25	0.00	0.00	0.00	0.00	0.00	0.00	0.00	0.00	0.00	-7.651855	-0.556152	-1.759277	41.860001	-137.339996	167.160004	4.00	0.00	0.00
0.50	0.00	0.00	0.00	0.25	0.00	0.00	0.00	1.25	13.50	11.75	12.75	9.25	6.25	22.00	6.75	7.25	-0.434570	-0.017090	1.163574	27.090000	268.029999	-34.720001	904.00	0.28	-0.01	0.25	0.00	0.00	0.25	0.00	0.00	0.25	0.00	0.00	0.25	0.00	0.00	0.00	0.00	0.00	0.00	-5.295898	-1.276367	-0.439941	1.050000	84.769997	159.250000	12.00	0.00	0.00
0.51	0.00	0.00	0.00	0.25	0.00	0.00	0.00	0.75	13.50	11.75	12.75	9.25	5.75	22.25	7.25	7.25	-0.626465	0.035645	1.155273	19.740000	292.179993	-29.120001	899.00	0.28	-0.00	0.25	0.00	0.00	0.00	0.00	0.00	0.25	0.00	0.00	0.00	0.00	0.00	0.25	0.00	0.00	0.00	-4.098145	-1.187012	0.543945	-20.790001	133.699997	154.490005	9.00	0.00	0.00
0.52	0.00	0.00	0.00	0.00	0.00	0.00	0.00	0.50	12.75	11.50	12.50	9.00	5.25	22.00	7.25	7.00	-0.677246	0.108887	1.328125	10.290000	331.170013	-27.090000	867.00	0.29	0.00	0.00	0.00	0.00	0.00	0.00	0.00	0.25	0.00	0.00	0.00	0.00	0.00	0.00	0.00	0.00	0.00	-3.078613	-0.831055	0.976074	-31.010000	140.699997	121.870003	4.00	0.00	0.00
0.53	0.00	0.00	0.00	0.00	0.00	0.00	0.00	0.25	12.25	11.00	12.00	8.75	4.75	21.75	7.50	6.50	-0.640625	0.211426	1.537109	-3.080000	377.230011	-31.219999	837.00	0.29	0.01	1.00	1.00	0.75	0.25	0.00	0.00	0.25	0.00	0.00	0.00	0.00	0.00	0.00	0.00	0.00	0.00	-0.195312	-1.196777	2.956055	61.180000	318.709991	42.490002	34.00	0.00	0.00
0.54	0.00	0.00	0.00	0.00	0.00	0.00	0.00	0.25	10.75	10.50	11.25	8.00	4.00	21.25	7.25	6.00	-1.088379	0.383789	1.693359	-11.620000	423.570007	-40.670002	780.00	0.29	0.01	6.00	7.00	2.00	3.75	0.00	0.00	0.25	0.00	0.00	0.00	0.00	0.00	0.00	0.00	0.00	0.00	-0.070801	0.031250	2.651855	3.710000	268.239990	-17.290001	194.00	-0.36	-0.05
0.55	0.00	0.00	0.00	0.00	0.00	0.00	0.00	0.25	9.50	9.50	10.25	7.25	3.25	20.00	6.50	5.25	-1.015625	0.493652	2.475098	-7.980000	472.149994	-52.849998	706.00	0.30	0.01	15.25	15.50	6.25	7.75	0.25	0.00	0.50	0.00	0.00	0.00	0.00	0.00	0.25	0.00	0.00	0.00	-0.192871	-0.021973	-1.305664	73.570000	284.269989	-30.450001	468.00	-0.35	-0.04
0.56	0.00	0.00	0.00	0.00	0.00	0.00	0.00	0.00	8.00	8.00	8.75	6.00	2.00	18.25	6.00	4.25	-1.049805	0.537598	2.612793	11.690000	518.349976	-62.160000	602.00	0.30	0.02	22.25	20.75	9.00	10.50	0.75	0.00	0.50	0.00	0.00	0.00	0.00	0.50	0.75	0.00	0.00	0.00	-1.739258	0.237793	4.357422	83.019997	481.040009	-40.599998	664.00	-0.35	-0.04
0.57	0.00	0.00	0.00	0.00	0.00	0.00	0.00	0.00	6.25	6.00	6.75	4.50	1.25	15.50	4.75	3.00	-1.436523	0.883301	3.443359	85.680000	590.169983	-68.180000	471.00	0.31	0.03	25.75	23.50	11.25	13.00	2.75	1.75	0.50	0.25	0.00	0.00	0.25	0.25	0.75	0.00	0.00	0.00	-2.199707	0.895996	6.654297	88.830002	434.420013	-32.900002	823.00	-0.34	-0.04
0.58	0.00	0.00	0.25	0.00	0.00	0.00	0.00	0.00	4.50	3.75	4.00	2.50	1.00	12.00	3.25	2.00	-1.411133	0.661621	3.868164	174.860001	617.679993	-78.050003	325.00	0.31	0.04	26.50	23.75	12.75	14.25	6.00	3.75	0.75	0.50	0.00	0.00	0.00	0.00	1.00	0.00	0.00	0.00	-1.310547	0.689941	4.815918	-13.020000	315.209991	-27.860001	926.00	-0.32	-0.04
0.59	0.00	0.00	0.00	0.00	0.00	0.00	0.00	0.00	2.50	2.50	3.00	1.25	0.50	8.25	1.50	1.25	-0.837891	0.236328	4.203613	252.770004	640.080017	-95.199997	200.00	0.31	0.05	26.00	22.75	13.25	14.50	7.00	5.00	0.75	1.00	0.00	0.25	0.25	0.50	1.00	0.00	0.00	0.00	-0.572266	0.110840	2.063965	-83.720001	182.630005	-8.890000	962.00	-0.31	-0.05
0.60	0.00	0.00	0.00	0.00	0.00	0.00	0.00	0.00	1.75	2.25	2.00	0.75	0.25	4.00	0.25	0.75	0.040527	0.239258	4.637695	277.200012	642.320007	-135.100006	118.00	0.30	0.06	24.50	21.75	13.00	14.25	7.75	6.00	1.00	1.50	0.00	0.00	0.50	0.50	1.25	0.00	0.00	0.00	0.093262	-0.425781	0.997559	-63.349998	124.739998	-2.100000	965.00	-0.30	-0.05
0.61	0.00	0.00	0.00	0.25	0.00	0.25	0.25	0.00	0.75	1.00	0.50	0.25	0.00	2.25	0.00	0.50	0.789551	-0.414551	3.071289	231.490005	629.580017	-207.199997	59.00	0.25	0.07	23.50	20.75	13.00	14.50	8.25	7.00	1.00	1.75	0.00	0.25	0.50	0.50	1.25	0.25	0.00	0.00	-0.259766	0.112305	1.501953	-22.540001	107.660004	-7.280000	973.00	-0.29	-0.06
0.62	0.00	0.00	0.00	0.25	0.00	0.00	0.00	0.00	1.00	1.00	0.50	0.25	0.00	1.25	0.00	0.25	0.122070	1.924316	8.285156	110.879997	427.140015	-226.169998	46.00	0.00	0.00	23.00	20.25	13.00	14.50	8.50	7.75	1.00	2.25	0.00	0.25	0.75	0.75	1.75	0.00	0.00	0.00	-0.410156	0.340820	1.540039	-8.540000	63.560001	-1.400000	989.00	-0.28	-0.07
0.63	0.00	0.00	0.00	0.00	0.00	0.00	0.25	0.00	0.50	0.75	0.50	0.00	0.00	0.50	0.00	0.50	1.644043	1.505859	6.336426	-52.220001	91.699997	-135.940002	30.00	0.00	0.00	22.25	20.25	13.25	14.50	8.75	8.00	1.25	2.25	0.25	0.25	0.75	0.50	1.75	0.25	0.25	0.00	-0.188477	-0.036133	1.122559	-7.840000	22.120001	4.130000	999.00	-0.27	-0.06
0.64	0.00	0.00	0.00	0.50	0.00	0.00	0.25	0.00	0.50	0.75	0.75	0.00	0.00	0.50	0.00	0.25	1.297852	2.020020	3.630371	-152.250000	-123.129997	-32.340000	37.00	0.00	0.00	22.00	19.75	13.00	14.50	8.75	8.25	1.25	2.50	0.00	0.25	0.75	0.50	1.75	0.25	0.00	0.00	-0.102539	0.038574	1.037598	1.190000	7.350000	3.150000	989.00	-0.27	-0.07
0.65	0.00	0.00	0.00	0.00	0.00	0.00	0.25	0.00	0.25	0.75	0.50	0.25	0.00	1.00	0.00	0.25	1.243652	1.760254	1.784180	-154.979996	-160.229996	31.639999	33.00	0.00	0.00	21.25	19.25	12.75	14.50	8.75	8.25	1.25	3.00	0.00	0.25	0.75	0.50	2.00	0.50	0.00	0.00	-0.087402	0.110840	1.025879	5.880000	3.220000	4.410000	986.00	-0.27	-0.07
0.66	0.00	0.00	0.00	0.25	0.00	0.00	0.25	0.00	0.00	0.75	0.50	0.00	0.00	0.00	0.00	0.25	1.245605	1.654785	1.647461	-87.430000	-147.770004	58.520000	21.00	0.00	0.00	20.25	18.50	12.25	14.00	8.50	8.50	1.25	3.00	0.00	0.25	0.75	0.75	2.00	0.50	0.00	0.00	-0.038574	0.041504	1.004395	6.230000	4.550000	4.760000	960.00	-0.26	-0.07
0.67	0.00	0.00	0.25	0.50	0.00	0.00	0.00	0.00	0.00	0.25	0.50	0.00	0.00	0.00	0.00	0.25	1.291504	1.135742	2.135742	-22.190001	-173.039993	75.040001	17.00	0.00	0.00	19.00	18.00	12.00	13.50	8.25	8.25	1.25	3.00	0.00	0.50	0.75	0.75	2.00	0.25	0.00	0.00	-0.055176	0.080566	1.009766	7.000000	7.980000	3.850000	930.00	-0.26	-0.08
0.68	0.00	0.00	0.25	0.25	0.00	0.00	0.00	0.00	0.00	0.25	0.50	0.00	0.00	0.00	0.25	0.25	1.269043	0.635742	2.209961	-3.430000	-234.430008	82.879997	17.00	0.00	0.00	17.50	16.75	11.50	13.00	7.75	8.25	1.25	3.00	0.25	0.50	0.75	0.75	2.25	0.75	0.00	0.00	-0.024414	0.078125	0.954102	3.640000	15.260000	2.520000	896.00	-0.25	-0.08
0.69	0.00	0.00	0.25	0.00	0.00	0.00	0.00	0.00	0.00	0.25	0.25	0.00	0.00	0.00	0.00	0.25	1.003418	0.364746	1.998535	-28.490000	-302.610016	81.199997	9.00	0.00	0.00	16.25	15.00	10.75	12.25	7.50	7.75	1.25	3.00	0.25	0.50	1.00	0.75	2.00	0.50	0.00	0.25	-0.024414	0.078125	0.954102	3.640000	15.260000	2.520000	842.00	-0.25	-0.08
0.70	0.00	0.00	0.00	0.00	0.00	0.00	0.00	0.00	0.00	0.00	0.25	0.00	0.00	0.00	0.00	0.25	0.722656	0.312500	1.709961	-62.160000	-355.880005	72.449997	4.00	0.00	0.00	14.00	13.75	10.00	11.50	6.75	7.25	1.00	3.00	0.25	0.50	1.00	0.75	2.00	0.75	0.00	0.00	-0.053223	0.045410	0.988770	1.470000	23.379999	1.400000	774.00	-0.24	-0.08
0.71	0.00	0.00	0.00	0.25	0.00	0.00	0.00	0.00	0.00	0.00	0.25	0.00	0.00	0.00	0.00	0.00	0.491211	0.344238	1.529785	-75.389999	-392.910004	58.170002	5.00	0.00	0.00	12.50	11.75	9.25	10.75	6.50	7.25	1.25	3.00	0.25	0.50	1.00	1.00	2.50	0.75	0.00	0.00	-0.037598	0.061523	0.964355	2.940000	25.480000	1.330000	731.00	-0.23	-0.09
0.72	0.00	0.00	0.00	0.00	0.00	0.00	0.00	0.00	0.00	0.00	0.25	0.00	0.00	0.00	0.00	0.25	0.218262	0.350586	1.398926	-62.650002	-420.839996	41.580002	4.00	0.00	0.00	9.75	10.00	8.50	9.75	6.00	6.50	1.25	2.75	0.00	0.50	1.00	1.00	2.50	1.00	0.00	0.00	-0.040527	0.082031	0.979980	2.450000	29.120001	1.050000	649.00	-0.22	-0.09
0.73	0.00	0.00	0.00	0.00	0.00	0.00	0.00	0.00	0.00	0.00	0.00	0.00	0.00	0.00	0.00	0.25	-0.047852	0.311035	1.291016	-36.400002	-440.440002	26.250000	1.00	0.00	0.00	8.25	8.50	7.50	9.00	5.25	6.00	1.00	3.00	0.50	0.75	1.25	1.00	2.50	1.25	0.00	0.00	-0.072754	0.079590	0.997559	1.260000	31.780001	0.980000	600.00	-0.20	-0.10
0.74	0.00	0.00	0.00	0.00	0.00	0.00	0.00	0.00	0.00	0.00	0.00	0.00	0.00	0.00	0.00	0.00	-0.252441	0.253418	1.207520	-12.810000	-450.170013	15.960000	0.00	0.00	0.00	6.50	7.00	6.75	8.25	5.00	5.75	1.25	3.25	0.50	0.50	1.25	1.50	3.25	1.25	0.00	0.00	-0.101562	0.077637	0.984863	-0.350000	32.130001	0.210000	563.00	-0.17	-0.11
0.75	0.00	0.00	0.00	0.00	0.00	0.00	0.00	0.00	0.00	0.00	0.00	0.00	0.00	0.00	0.00	0.00	-0.519043	0.218262	1.252930	-0.700000	-451.149994	12.040000	0.00	0.00	0.00	5.25	5.75	5.75	7.75	4.50	5.25	1.25	3.00	0.50	1.00	1.25	1.00	3.50	1.50	0.00	0.25	-0.078125	0.085938	0.978027	-3.220000	32.200001	-1.750000	513.00	-0.15	-0.11
0.76	0.00	0.00	0.25	0.00	0.00	0.00	0.00	0.00	0.00	0.00	0.00	0.00	0.00	0.00	0.00	0.00	-0.519043	0.265137	1.252930	0.910000	-446.529999	13.720000	3.00	0.00	0.00	4.25	4.75	5.00	6.50	3.75	4.75	1.25	3.25	0.50	0.75	1.50	1.50	3.50	1.75	0.00	0.00	-0.070312	0.097656	0.992676	-5.740000	31.990000	-5.040000	467.00	-0.13	-0.12
0.77	0.00	0.00	0.25	0.25	0.00	0.00	0.00	0.00	0.00	0.00	0.00	0.00	0.00	0.00	0.00	0.25	-0.518066	0.370117	1.405762	0.490000	-442.959991	20.580000	7.00	0.00	0.00	3.00	3.25	4.25	6.00	3.50	4.25	1.50	3.25	0.75	1.25	1.75	1.75	4.25	2.50	0.25	0.00	-0.120117	0.078613	0.958496	-7.490000	31.570000	-9.310000	451.00	-0.08	-0.12
0.78	0.00	0.00	0.00	0.00	0.00	0.00	0.00	0.00	0.00	0.00	0.00	0.00	0.00	0.00	0.00	0.25	-0.528320	0.470703	1.649902	4.620000	-444.570007	32.200001	1.00	0.00	0.00	2.75	2.50	3.25	5.25	3.25	3.50	1.50	3.75	1.25	1.25	2.25	2.25	5.00	3.25	0.00	0.25	-0.117676	0.078125	1.009766	-7.070000	31.150000	-11.410000	448.00	-0.04	-0.12
0.79	0.00	0.00	0.00	0.25	0.00	0.00	0.00	0.00	0.00	0.00	0.00	0.00	0.00	0.00	0.00	0.25	-0.662598	0.653320	2.115723	22.400000	-465.570007	63.139999	4.00	0.00	0.00	2.25	2.00	3.00	5.00	3.00	3.00	1.75	3.75	1.75	1.75	2.50	2.25	5.25	4.25	0.50	0.50	-0.163086	0.062988	0.999023	-3.990000	30.590000	-14.560000	460.00	-0.01	-0.11
0.80	0.00	0.00	0.00	0.00	0.00	0.00	0.00	0.00	0.00	0.00	0.00	0.00	0.00	0.00	0.00	0.25	-0.748535	0.687988	2.320801	30.170000	-478.309998	80.010002	1.00	0.00	0.00	2.25	2.00	2.75	3.50	2.75	3.25	1.75	4.00	2.00	2.25	2.75	3.00	5.75	5.50	0.25	0.75	-0.141113	0.075195	0.971191	-1.540000	30.799999	-14.980000	477.00	0.02	-0.11
0.81	0.00	0.00	0.00	0.00	0.00	0.00	0.00	0.00	0.00	0.00	0.00	0.00	0.00	0.00	0.00	0.00	-0.861816	0.712402	2.621582	43.680000	-489.019989	92.540001	0.00	0.00	0.00	1.50	1.25	2.00	3.50	2.50	2.75	2.00	4.50	2.75	2.25	3.25	3.25	6.25	6.75	0.50	1.00	-0.170898	0.066406	1.008301	1.260000	32.619999	-14.000000	494.00	0.07	-0.11
0.82	0.00	0.00	0.00	0.00	0.00	0.00	0.00	0.00	0.00	0.00	0.00	0.00	0.00	0.00	0.00	0.00	-1.124512	0.737793	2.981445	68.389999	-499.730011	97.370003	0.00	0.00	0.00	1.75	1.00	1.50	2.75	2.25	2.25	2.00	5.00	3.25	3.00	3.75	3.75	7.25	7.50	0.50	1.25	-0.195312	0.045898	0.999512	4.480000	35.070000	-12.810000	521.00	0.09	-0.11
0.83	0.00	0.00	0.00	0.00	0.00	0.00	0.00	0.00	0.00	0.00	0.00	0.00	0.00	0.00	0.00	0.00	-1.568848	0.791504	3.189941	91.070000	-510.440002	98.279999	0.00	0.00	0.00	1.00	0.75	1.50	2.50	2.25	2.25	2.00	5.25	4.50	3.50	4.50	4.50	8.00	8.75	0.75	2.00	-0.158203	0.065430	0.999023	7.770000	39.830002	-11.830000	573.00	0.12	-0.10
0.84	0.00	0.00	0.00	0.00	0.00	0.00	0.00	0.00	0.00	0.00	0.00	0.00	0.00	0.00	0.00	0.25	-2.127441	0.827637	3.224609	106.260002	-513.729980	99.330002	1.00	0.00	0.00	1.00	0.75	0.75	2.00	1.75	2.00	2.00	5.50	5.25	4.25	6.25	5.75	8.50	10.00	1.25	2.00	-0.198730	0.068848	1.042969	11.550000	47.250000	-11.830000	624.00	0.15	-0.10
0.85	0.00	0.00	0.00	0.00	0.00	0.00	0.00	0.00	0.00	0.00	0.00	0.00	0.00	0.00	0.00	0.25	-2.647461	0.795898	3.265625	115.430000	-504.700012	105.559998	1.00	0.00	0.00	0.75	0.25	0.75	1.50	1.50	1.50	2.00	5.50	6.25	5.75	8.00	7.50	9.00	11.50	1.25	2.75	-0.178223	0.082031	1.018066	14.560000	57.330002	-12.320000	690.00	0.18	-0.09
0.86	0.00	0.00	0.00	0.00	0.00	0.00	0.00	0.00	0.00	0.00	0.00	0.00	0.00	0.00	0.25	0.00	-3.198242	0.745117	3.203125	108.919998	-488.040009	120.959999	3.00	0.00	0.00	0.75	0.25	0.75	1.25	1.00	1.00	2.00	5.75	7.25	7.50	8.75	8.00	9.25	13.00	1.75	3.50	-0.179688	0.088379	1.060059	18.340000	69.510002	-13.160000	749.00	0.19	-0.08
0.87	0.00	0.00	0.00	0.25	0.00	0.00	0.00	0.00	0.00	0.00	0.00	0.00	0.00	0.00	0.00	0.25	-3.665039	0.586426	2.965332	97.790001	-465.290009	146.440002	4.00	0.00	0.00	1.00	0.50	0.25	1.25	1.00	0.75	1.75	5.50	7.75	8.25	9.25	8.75	9.75	14.50	2.25	5.25	-0.214355	0.104980	1.041016	22.330000	81.900002	-14.910000	798.00	0.20	-0.08
0.88	0.00	0.25	0.00	0.00	0.00	0.00	0.00	0.00	0.00	0.00	0.00	0.00	0.00	0.00	0.00	0.00	-4.152832	0.354004	2.545410	93.660004	-428.750000	179.059998	2.00	0.00	0.00	0.75	0.00	0.00	0.75	0.50	0.50	1.50	5.50	8.50	8.75	10.25	9.25	10.00	16.50	3.00	5.75	-0.219727	0.117676	1.061035	26.880001	92.050003	-16.799999	831.00	0.22	-0.07
0.89	0.00	0.00	0.25	0.00	0.00	0.00	0.00	0.00	0.00	0.00	0.00	0.00	0.00	0.00	0.00	0.25	-4.517578	0.105957	1.741211	50.610001	-371.070007	224.000000	4.00	0.00	0.00	0.75	0.00	0.00	0.75	0.25	0.25	1.50	5.25	9.25	9.50	10.75	9.75	10.25	17.75	3.75	6.50	-0.234863	0.098633	1.137695	34.299999	119.910004	-19.389999	874.00	0.23	-0.07
0.90	0.00	0.00	0.00	0.00	0.00	0.00	0.00	0.00	0.00	0.00	0.00	0.00	0.00	0.00	0.00	0.00	-5.049805	0.065918	0.236816	-31.500000	-303.170013	263.410004	0.00	0.00	0.00	0.50	0.00	0.00	0.00	0.25	0.00	1.00	5.00	9.50	10.00	11.50	10.25	10.50	19.50	4.50	7.25	-0.230469	0.108398	1.193848	34.230000	143.360001	-19.530001	900.00	0.25	-0.07
0.91	0.00	0.50	0.50	0.00	0.00	0.00	0.00	0.00	0.00	0.00	0.00	0.00	0.00	0.00	0.00	0.25	-7.462402	0.912109	-0.498047	-98.209999	-250.809998	208.600006	12.00	0.00	0.00	0.50	0.00	0.00	0.00	0.00	0.00	0.75	5.00	9.75	10.50	12.00	10.75	10.25	21.00	5.75	7.50	-0.267578	0.191895	1.127441	32.130001	165.899994	-22.469999	938.00	0.25	-0.06
0.92	0.00	0.00	0.00	0.25	0.00	0.00	0.00	0.00	0.00	0.00	0.00	0.00	0.00	0.00	0.00	0.00	-7.739258	1.213867	-1.991699	-6.580000	-167.789993	94.570000	3.00	0.00	0.00	0.75	0.00	0.00	0.75	0.00	0.00	0.50	4.25	10.00	10.75	12.50	11.25	10.25	22.25	6.50	8.00	-0.260742	0.115234	1.286621	33.180000	186.970001	-28.210001	971.00	0.25	-0.06
0.93	0.00	0.00	0.00	0.00	0.00	0.00	0.00	0.00	0.00	0.00	0.00	0.00	0.00	0.00	0.00	0.25	-6.911133	0.474609	-1.635742	156.800003	-33.599998	28.910000	1.00	0.00	0.00	0.25	0.00	0.00	0.00	0.00	0.00	0.25	3.50	10.25	11.00	12.50	11.25	10.25	23.00	7.25	8.50	-0.275391	0.065918	1.202148	32.689999	212.800003	-30.380001	965.00	0.27	-0.05
0.94	0.00	0.00	0.25	0.00	0.00	0.00	0.00	0.00	0.00	0.00	0.00	0.00	0.00	0.00	0.00	0.00	-5.793945	-0.326660	-0.115234	203.210007	83.090004	38.009998	3.00	0.00	0.00	0.00	0.00	0.00	0.00	0.00	0.00	0.00	2.75	10.00	11.00	12.75	11.25	10.00	23.75	7.25	8.50	-0.413574	0.203613	1.318359	31.290001	240.449997	-30.100000	951.00	0.27	-0.05
0.95	0.00	0.00	0.00	0.25	0.00	0.00	0.00	0.00	0.00	0.00	0.00	0.00	0.00	0.00	0.00	0.25	-4.670898	-0.653809	0.655273	99.820000	148.470001	81.410004	4.00	0.00	0.00	0.25	0.00	0.00	0.00	0.00	0.00	0.00	2.00	9.50	11.00	12.75	11.25	9.50	24.25	7.75	8.75	-0.441406	0.170410	1.512207	22.330000	290.989990	-31.639999	942.00	0.28	-0.05
0.96	0.25	1.00	0.75	1.50	0.00	0.00	0.00	0.00	0.00	0.00	0.00	0.00	0.00	0.00	0.00	0.25	-7.149902	-0.793457	2.748047	-33.459999	231.910004	90.300003	38.00	0.00	0.00	0.25	0.00	0.00	0.00	0.00	0.00	0.00	1.75	9.00	10.50	12.50	11.00	9.25	24.00	8.00	8.25	-0.463867	0.250488	1.725098	18.620001	339.640015	-36.259998	917.00	0.28	-0.05
0.97	2.75	5.25	2.00	3.75	0.25	0.00	0.00	0.00	0.00	0.00	0.00	0.00	0.00	0.00	0.00	0.00	1.500488	0.177734	-0.732910	-47.250000	360.640015	62.580002	143.00	-0.35	-0.08	0.00	0.00	0.00	0.00	0.00	0.00	0.00	1.25	8.00	10.25	12.00	10.75	8.50	23.75	7.75	8.00	-0.552734	0.261719	1.854492	15.260000	380.519989	-42.070000	870.00	0.29	-0.04
0.98	12.75	18.75	4.25	8.00	0.25	0.00	0.00	0.00	0.00	0.00	0.00	0.00	0.00	0.00	0.00	0.25	0.095215	-1.425781	1.415039	-111.230003	307.230011	39.689999	444.00	-0.37	-0.07	0.00	0.00	0.00	0.00	0.00	0.00	0.00	0.75	7.00	9.25	11.25	10.25	7.75	23.00	7.50	7.00	-0.902344	0.560059	2.046387	19.389999	432.880005	-48.650002	805.00	0.29	-0.04
0.99	23.50	29.00	8.00	12.00	0.75	1.00	0.00	0.00	0.00	0.00	0.00	0.00	0.00	0.00	0.00	0.00	-0.848633	-1.201660	1.378418	-80.500000	334.459991	6.720000	750.00	-0.36	-0.06	0.25	0.00	0.00	0.00	0.00	0.00	0.00	0.75	5.25	8.25	10.25	9.25	7.00	20.75	6.50	5.50	-1.035156	0.623535	3.116211	40.740002	491.399994	-61.180000	709.00	0.29	-0.05
1.00	29.00	33.50	10.50	16.75	1.75	3.00	0.00	0.00	0.00	0.00	0.00	0.25	0.00	0.00	0.00	0.00	-1.717773	0.944336	5.426758	17.570000	392.559998	-74.129997	964.00	-0.35	-0.06	0.25	0.00	0.00	0.00	0.00	0.00	0.00	0.00	3.50	6.75	8.75	8.00	5.50	18.25	5.50	3.50	-1.033203	0.542969	3.050293	57.889999	549.150024	-73.080002	575.00	0.29	-0.04
1.01	29.75	33.25	13.00	19.00	3.00	4.50	0.25	0.25	0.00	0.00	0.00	0.00	0.00	0.00	0.00	0.25	-0.885742	1.593262	3.012695	-35.139999	265.089996	-47.040001	1058.00	-0.34	-0.06	0.25	0.00	0.00	0.00	0.00	0.00	0.00	0.00	2.00	4.00	6.75	6.25	4.25	14.25	3.75	1.75	-1.058594	0.905273	4.023438	99.120003	598.289978	-78.959999	414.00	0.29	-0.05
1.02	28.75	32.00	14.00	19.25	5.00	6.25	0.25	0.75	0.00	0.00	0.25	0.00	0.25	0.00	0.00	0.25	-0.229492	0.154297	1.535156	-99.190002	204.680008	-2.730000	1104.00	-0.33	-0.06	0.00	0.00	0.00	0.00	0.00	0.00	0.00	0.00	0.75	2.00	3.75	4.00	2.75	10.00	2.00	1.00	-1.014160	0.613770	3.709961	165.130005	626.220032	-83.440002	248.00	0.30	-0.05
1.03	27.50	30.25	14.50	19.50	6.00	7.25	0.50	1.25	0.00	0.00	0.25	0.25	0.50	0.00	0.00	0.25	-0.238770	-0.516602	1.768066	-100.940002	176.050003	-1.120000	1121.00	-0.31	-0.07	0.25	0.00	0.00	0.00	0.00	0.00	0.00	0.00	0.25	1.75	2.50	2.50	1.75	6.00	0.50	0.25	-0.425293	0.520508	4.733887	252.279999	654.989990	-92.959999	150.00	0.28	-0.05
1.04	25.75	29.00	14.50	19.75	6.75	8.25	0.50	1.50	0.00	0.00	0.50	0.25	0.75	0.00	0.00	0.00	-0.429688	0.264160	1.711914	-76.510002	124.739998	-9.590000	1121.00	-0.31	-0.07	0.00	0.00	0.00	0.00	0.00	0.00	0.25	0.00	0.50	1.00	1.50	1.25	1.50	2.50	0.25	0.00	0.593750	0.403320	4.881836	308.209991	658.700012	-116.410004	87.00	0.26	-0.06
1.05	24.50	28.25	14.75	19.50	7.50	8.75	0.75	1.75	0.25	0.25	0.25	0.25	0.50	0.00	0.00	0.25	-0.321777	0.260742	1.089844	-67.340004	78.540001	-0.280000	1124.00	-0.30	-0.07	0.00	0.00	0.00	0.00	0.00	0.00	0.25	0.25	0.00	0.00	1.00	1.00	0.75	1.00	0.00	0.00	1.850098	0.045898	3.602539	297.429993	623.349976	-174.020004	44.00	0.00	0.00
1.06	24.00	27.50	14.75	19.50	7.75	9.50	0.75	2.00	0.25	0.25	0.50	0.25	0.75	0.25	0.00	0.25	-0.232422	-0.121582	1.262207	-51.380001	54.459999	2.310000	1134.00	-0.29	-0.07	0.00	0.00	0.00	0.00	0.00	0.00	0.25	0.00	0.25	0.25	0.75	0.50	0.50	1.00	0.25	0.00	0.831055	1.220703	6.823730	184.240005	462.559998	-219.309998	38.00	0.00	0.00
1.07	22.50	26.00	14.50	19.00	8.00	9.50	0.75	2.50	0.50	0.25	0.50	0.25	1.00	0.25	0.00	0.25	-0.143066	0.081055	1.078613	-28.350000	38.639999	-2.170000	1112.00	-0.28	-0.08	0.25	0.00	0.00	0.00	0.00	0.00	0.25	0.00	0.00	0.25	0.75	0.50	0.50	1.00	0.00	0.00	2.658203	1.661621	6.065430	62.580002	122.220001	-146.089996	35.00	0.00	0.00
1.08	21.25	25.00	14.25	18.25	8.25	9.75	0.75	2.75	0.50	0.75	0.50	0.25	1.00	0.75	0.00	0.25	-0.141113	0.108887	1.019043	-18.340000	32.689999	-1.190000	1098.00	-0.27	-0.08	0.00	0.00	0.00	0.00	0.00	0.00	0.25	0.00	0.00	0.25	0.50	0.25	1.00	1.00	0.00	0.00	1.953613	1.490234	4.024902	-37.590000	-133.979996	-46.480000	31.00	0.00	0.00
1.09	19.25	23.25	13.50	17.75	8.00	9.75	1.00	2.75	0.50	0.50	1.00	0.25	1.25	0.50	0.00	0.25	-0.094727	0.028320	1.012695	-14.490000	31.850000	-1.960000	1051.00	-0.27	-0.08	0.25	0.00	0.00	0.00	0.00	0.00	0.25	0.00	0.00	0.00	0.50	0.25	0.50	0.75	0.00	0.00	1.642090	1.399902	2.037109	-77.139999	-197.190002	20.930000	25.00	0.00	0.00
1.10	17.00	21.25	12.50	16.50	8.00	9.50	1.00	3.25	0.75	0.75	1.00	0.50	1.50	1.00	0.00	0.25	-0.121582	0.066895	0.994629	-9.590000	30.450001	-1.960000	1004.00	-0.25	-0.08	0.00	0.00	0.00	0.00	0.00	0.00	0.25	0.00	0.00	0.00	0.25	0.25	0.50	0.75	0.00	0.00	1.530762	0.755371	2.029785	25.410000	-203.000000	58.869999	20.00	0.00	0.00
1.11	14.50	18.25	11.75	15.25	7.75	9.25	1.00	3.50	0.75	0.75	1.25	0.50	1.50	0.75	0.00	0.25	-0.083984	0.084961	0.956543	-8.890000	32.619999	-2.170000	927.00	-0.24	-0.09	0.25	0.00	0.00	0.00	0.00	0.00	0.25	0.00	0.00	0.00	0.25	0.00	0.25	0.75	0.00	0.00	1.394043	0.292480	2.236816	52.220001	-260.470001	56.070000	18.00	0.00	0.00
1.12	12.50	16.25	10.50	13.50	7.50	9.00	1.00	3.50	1.00	1.00	1.25	0.75	1.50	1.25	0.00	0.25	-0.101562	0.057129	0.969727	-11.200000	36.259998	-2.870000	862.00	-0.23	-0.09	0.00	0.00	0.00	0.00	0.00	0.00	0.25	0.00	0.00	0.00	0.25	0.25	0.50	0.50	0.00	0.00	1.033691	-0.079590	2.034668	29.469999	-329.769989	55.160000	18.00	0.00	0.00
1.13	9.25	13.50	9.50	12.25	7.25	8.50	1.00	3.50	1.00	1.25	1.25	0.75	1.50	1.00	0.00	0.25	-0.145996	0.062500	0.980469	-10.640000	36.470001	-2.940000	771.00	-0.21	-0.09	0.00	0.00	0.00	0.00	0.00	0.00	0.25	0.25	0.00	0.00	0.25	0.00	0.50	0.25	0.00	0.00	0.657227	-0.246094	1.720703	-21.420000	-381.570007	56.000000	17.00	0.00	0.00
1.14	8.00	11.00	8.50	10.75	6.75	8.00	1.00	3.75	1.00	0.75	1.25	0.50	1.75	1.00	0.00	0.25	-0.130859	0.065430	0.969238	-10.150000	35.349998	-3.010000	694.00	-0.20	-0.10	0.00	0.00	0.00	0.00	0.00	0.00	0.25	0.00	0.00	0.00	0.25	0.00	0.25	0.00	0.00	0.00	0.377441	-0.224609	1.564941	-68.389999	-411.110016	54.810001	9.00	0.00	0.00
1.15	6.50	8.50	8.00	9.50	6.25	7.50	1.25	3.50	1.25	1.00	1.50	0.75	1.75	1.25	0.00	0.50	-0.133301	0.039551	0.987305	-9.940000	35.700001	-2.380000	640.00	-0.18	-0.09	0.00	0.00	0.00	0.00	0.00	0.00	0.25	0.00	0.00	0.00	0.00	0.00	0.25	0.25	0.00	0.00	0.160645	-0.144531	1.573242	-90.790001	-431.059998	50.889999	8.00	0.00	0.00
1.16	5.25	7.25	7.00	8.25	6.00	7.00	1.25	3.50	1.75	1.25	1.50	0.75	2.00	1.50	0.00	0.50	-0.144043	0.032715	0.963867	-7.910000	35.560001	-1.820000	596.00	-0.15	-0.09	0.00	0.00	0.00	0.00	0.00	0.00	0.25	0.00	0.00	0.00	0.00	0.00	0.25	0.00	0.00	0.00	-0.015137	-0.135254	1.557129	-88.340004	-449.260010	42.770000	6.00	0.00	0.00
1.17	4.00	6.00	6.00	7.50	5.50	6.50	1.25	3.75	1.75	1.75	1.50	1.00	2.25	1.50	0.25	0.50	-0.096191	0.046387	0.973145	-6.090000	35.770000	-2.590000	558.00	-0.13	-0.10	0.00	0.00	0.00	0.00	0.00	0.00	0.25	0.00	0.00	0.00	0.00	0.00	0.50	0.00	0.00	0.00	-0.223145	-0.156250	1.511719	-74.340004	-462.140015	31.010000	8.00	0.00	0.00
1.18	2.75	5.00	5.00	6.75	5.00	6.00	1.50	3.50	2.25	1.75	1.75	1.00	2.25	2.00	0.25	0.50	-0.134277	0.073242	0.985840	-5.810000	37.099998	-3.780000	519.00	-0.10	-0.09	0.00	0.00	0.00	0.00	0.00	0.00	0.25	0.00	0.00	0.00	0.00	0.00	0.00	0.00	0.00	0.00	-0.375977	-0.157227	1.495117	-59.709999	-468.160004	18.549999	4.00	0.00	0.00
1.19	2.00	4.00	4.25	5.50	4.75	5.50	1.50	3.50	2.75	2.00	2.00	1.25	2.75	2.75	0.00	0.75	-0.179199	0.050293	0.961426	-7.420000	38.009998	-4.970000	496.00	-0.06	-0.09	0.25	0.00	0.00	0.00	0.00	0.00	0.25	0.00	0.00	0.00	0.00	0.00	0.25	0.00	0.00	0.00	-0.467773	-0.138184	1.549316	-48.650002	-469.279999	9.450000	9.00	0.00	0.00
1.20	1.75	3.00	3.50	5.00	3.75	4.75	1.75	3.25	3.00	2.25	2.25	1.50	2.50	3.00	0.50	0.75	-0.155273	0.026855	0.962402	-7.210000	39.270000	-7.420000	467.00	-0.03	-0.08	0.00	0.00	0.00	0.00	0.00	0.00	0.25	0.00	0.00	0.00	0.00	0.00	0.00	0.25	0.00	0.00	-0.492188	-0.103516	1.656250	-41.790001	-467.880005	6.510000	6.00	0.00	0.00
1.21	1.75	2.25	3.00	4.00	3.50	4.00	2.00	3.25	3.75	2.50	2.75	1.75	3.00	3.75	0.50	1.00	-0.163574	0.053711	0.973145	-5.250000	43.470001	-11.550000	469.00	0.01	-0.07	0.25	0.00	0.00	0.00	0.00	0.00	0.25	0.00	0.00	0.00	0.00	0.00	0.25	0.00	0.00	0.00	-0.490723	-0.041504	1.882812	-37.799999	-467.179993	9.800000	9.00	0.00	0.00
1.22	1.25	2.00	2.75	3.75	3.00	3.25	1.75	3.25	4.75	2.75	3.00	2.00	3.00	4.25	0.75	1.25	-0.184570	0.053223	0.949219	-4.410000	46.830002	-13.930000	468.00	0.04	-0.06	0.00	0.00	0.00	0.00	0.00	0.00	0.25	0.00	0.00	0.00	0.00	0.00	0.00	0.00	0.00	0.00	-0.491699	0.006836	2.137207	-34.369999	-471.239990	15.190001	4.00	0.00	0.00
1.23	1.00	1.50	2.25	3.50	2.75	2.75	2.00	3.25	5.50	3.00	3.25	2.25	3.50	5.50	0.75	1.25	-0.197266	0.065430	0.974121	-3.500000	51.310001	-16.100000	480.00	0.07	-0.05	0.00	0.00	0.00	0.00	0.00	0.00	0.25	0.00	0.00	0.00	0.00	0.00	0.00	0.00	0.00	0.00	-0.529785	0.076660	2.424805	-27.440001	-481.179993	17.290001	4.00	0.00	0.00
1.24	1.00	1.25	2.00	3.00	2.50	2.25	2.00	3.00	6.75	3.75	3.75	2.50	3.75	6.50	0.75	1.50	-0.197754	0.053711	0.980957	-3.360000	56.700001	-17.080000	502.00	0.10	-0.03	0.00	0.00	0.00	0.00	0.00	0.00	0.25	0.00	0.00	0.00	0.00	0.00	0.00	0.00	0.00	0.00	-0.663086	0.113770	2.651855	-15.050000	-493.850006	14.980000	4.00	0.00	0.00
1.25	0.75	1.25	1.75	2.75	2.00	2.00	2.25	3.00	8.25	4.50	5.00	3.00	4.00	8.25	1.00	1.75	-0.207031	0.047363	0.976562	-1.540000	63.209999	-17.219999	556.00	0.13	-0.02	0.00	0.00	0.00	0.00	0.00	0.00	0.25	0.00	0.00	0.00	0.00	0.00	0.00	0.00	0.00	0.00	-0.824707	0.128418	2.895020	3.570000	-506.170013	8.260000	4.00	0.00	0.00
1.26	0.50	0.75	1.50	2.75	1.75	1.50	2.25	2.75	9.00	6.25	6.25	3.50	5.00	9.50	1.25	2.00	-0.278320	0.054688	1.016113	-0.490000	71.120003	-18.200001	604.00	0.16	-0.02	0.00	0.00	0.00	0.00	0.00	0.00	0.25	0.00	0.00	0.00	0.00	0.00	0.00	0.00	0.00	0.00	-1.029785	0.165039	3.126465	23.590000	-514.989990	-2.240000	4.00	0.00	0.00
1.27	0.25	0.25	1.00	2.25	1.50	1.25	2.25	2.75	9.75	8.00	7.50	4.25	5.25	10.50	1.50	2.50	-0.258301	0.029297	0.996094	1.540000	80.080002	-18.620001	645.00	0.19	-0.01	0.00	0.00	0.00	0.00	0.00	0.00	0.25	0.00	0.00	0.00	0.00	0.00	0.00	0.00	0.00	0.00	-1.388672	0.329102	3.363281	37.170002	-518.210022	-12.460000	4.00	0.00	0.00
1.28	0.50	0.50	1.00	2.00	1.25	1.00	2.25	2.75	10.75	8.50	8.25	5.00	5.75	11.75	2.00	3.25	-0.269531	0.074219	0.990723	5.670000	90.650002	-19.320000	700.00	0.20	-0.01	0.00	0.00	0.00	0.00	0.00	0.00	0.25	0.00	0.00	0.00	0.00	0.00	0.00	0.00	0.00	0.00	-2.643066	0.483887	3.321289	69.230003	-493.570007	0.210000	4.00	0.00	0.00
1.29	0.50	0.25	0.75	1.75	1.25	1.00	2.25	2.75	11.50	9.00	9.00	6.00	6.00	13.00	2.25	4.50	-0.320312	0.077637	1.005859	9.940000	101.570000	-21.350000	748.00	0.21	-0.01	0.00	0.00	0.00	0.00	0.00	0.00	0.25	0.00	0.00	0.00	0.00	0.00	0.25	0.00	0.00	0.00	-2.643066	0.483887	3.321289	69.230003	-493.570007	0.210000	6.00	0.00	0.00
1.30	0.00	0.25	0.50	1.25	1.00	0.75	2.25	2.50	12.00	9.75	9.75	6.75	6.25	14.50	2.75	5.25	-0.284180	0.065918	1.001465	12.880000	111.930000	-23.660000	780.00	0.23	-0.01	0.00	0.00	0.00	0.00	0.00	0.00	0.25	0.00	0.00	0.00	0.00	0.00	0.00	0.00	0.00	0.00	-3.500488	0.256836	3.282227	65.099998	-445.269989	67.970001	4.00	0.00	0.00
1.31	0.25	0.25	0.50	1.25	0.50	0.25	2.00	2.50	12.75	10.50	10.75	7.50	6.25	15.75	4.25	5.75	-0.355957	0.084961	1.052734	16.660000	123.550003	-24.290001	833.00	0.24	-0.01	0.25	0.00	0.00	0.00	0.00	0.00	0.25	0.00	0.00	0.00	0.00	0.25	0.00	0.00	0.00	0.00	-3.967773	0.458984	2.364746	0.560000	-417.619995	131.949997	9.00	0.00	0.00
1.32	0.00	0.00	0.25	1.00	0.25	0.25	1.75	2.25	13.25	11.00	11.25	7.75	6.50	17.25	4.75	6.25	-0.339844	0.100586	1.064941	20.370001	139.369995	-24.290001	855.00	0.25	-0.01	0.00	0.00	0.00	0.00	0.00	0.00	0.25	0.00	0.00	0.00	0.25	0.00	0.50	0.00	0.00	0.00	-5.250977	0.760742	0.905762	-59.220001	-370.649994	186.899994	11.00	0.00	0.00
1.33	0.00	0.00	0.25	1.25	0.00	0.25	1.25	2.00	13.50	11.50	12.00	8.00	6.25	18.50	5.50	6.75	-0.323242	0.091797	1.184082	24.920000	160.229996	-26.389999	881.00	0.26	-0.01	0.00	0.00	0.00	0.00	0.00	0.00	0.25	0.00	0.00	0.00	0.25	0.25	0.25	0.00	0.00	0.00	-7.387695	1.056641	-0.569336	-42.700001	-303.380005	187.669998	11.00	0.00	0.00
1.34	0.00	0.00	0.00	0.50	0.00	0.00	1.00	1.75	14.00	11.75	12.50	8.50	6.25	19.50	6.00	7.25	-0.365723	0.088867	1.076660	24.150000	182.279999	-27.090000	896.00	0.27	-0.01	0.00	0.00	0.00	0.00	0.00	0.00	0.25	0.00	0.00	0.00	0.25	0.00	0.00	0.00	0.00	0.00	-7.874023	0.581055	-1.864258	65.800003	-200.899994	154.070007	6.00	0.00	0.00
1.35	0.00	0.00	0.00	0.75	0.00	0.00	0.75	1.50	14.00	12.00	12.75	8.50	6.00	20.50	6.25	7.50	-0.421875	0.055176	1.110352	23.590000	208.110001	-28.910000	907.00	0.27	-0.00	0.00	0.00	0.00	0.00	0.00	0.00	0.25	0.00	0.00	0.00	0.25	0.00	0.00	0.00	0.00	0.00	-7.247070	-0.188965	-1.551270	132.860001	-63.700001	132.789993	6.00	0.00	0.00
1.36	0.00	0.00	0.00	0.50	0.00	0.00	0.50	1.00	14.00	12.00	12.75	8.75	5.50	21.25	6.50	7.75	-0.425781	0.056152	1.112305	24.010000	238.419998	-28.770000	901.00	0.28	0.00	0.00	0.00	0.00	0.00	0.00	0.00	0.25	0.00	0.00	0.00	0.00	0.25	0.00	0.00	0.00	0.00	-6.074707	-0.518066	-0.340332	107.660004	50.610001	141.470001	6.00	0.00	0.00
1.37	0.00	0.00	0.00	0.00	0.00	0.00	0.25	0.75	14.00	12.00	13.00	8.50	5.50	21.75	7.00	8.00	-0.709473	-0.071289	1.030273	23.240000	263.200012	-26.530001	899.00	0.29	0.00	0.25	0.00	0.00	0.00	0.00	0.00	0.25	0.00	0.00	0.00	0.25	0.00	0.00	0.00	0.00	0.00	-4.728516	-0.487793	0.414062	51.099998	113.540001	166.110001	9.00	0.00	0.00
1.38	0.00	0.00	0.00	0.00	0.00	0.00	0.00	0.25	13.50	11.75	12.75	8.50	5.00	22.00	7.00	7.75	-0.567383	0.058594	1.274902	16.030001	298.130005	-24.150000	872.00	0.29	0.01	0.00	0.00	0.00	0.00	0.00	0.00	0.25	0.00	0.00	0.00	0.00	0.00	0.00	0.00	0.00	0.00	-3.566895	-0.189453	0.707031	20.299999	138.880005	178.220001	4.00	0.00	0.00
1.39	0.00	0.00	0.00	0.00	0.00	0.00	0.00	0.25	13.00	11.75	12.50	8.25	4.25	21.75	7.25	7.50	-0.691895	0.179688	1.575684	2.730000	379.679993	-31.360001	853.00	0.29	0.01	0.75	0.25	0.75	0.50	0.00	0.00	0.25	0.00	0.00	0.00	0.00	0.00	0.25	0.00	0.00	0.00	-4.702148	0.649414	3.415527	84.489998	210.699997	117.739998	30.00	0.00	0.00
1.40	0.00	0.00	0.00	0.00	0.00	0.00	0.00	0.00	11.75	11.25	12.00	8.00	3.25	21.50	7.00	7.25	-0.691895	0.179688	1.575684	2.730000	379.679993	-31.360001	805.00	0.30	0.01	3.75	4.25	1.75	3.00	0.00	0.00	0.25	0.00	0.00	0.00	0.00	0.00	0.25	0.00	0.00	0.00	-0.060059	-0.694824	-3.963867	83.230003	247.520004	70.559998	136.00	-0.34	-0.06
1.41	0.00	0.00	0.00	0.00	0.00	0.00	0.00	0.00	10.75	10.50	11.25	7.25	2.50	20.75	6.75	6.50	-0.849121	0.188965	1.734375	1.330000	437.640015	-35.070000	749.00	0.30	0.02	13.00	14.00	4.00	7.75	0.25	0.00	0.25	0.00	0.00	0.00	0.00	0.25	0.25	0.00	0.00	0.00	-0.573730	-0.569336	-0.217285	21.559999	256.200012	26.320000	404.00	-0.35	-0.06
1.42	0.00	0.00	0.00	0.00	0.00	0.00	0.00	0.00	9.00	9.00	9.75	6.00	1.75	19.50	6.25	5.75	-1.100586	0.642090	2.993164	29.120001	527.659973	-46.549999	655.00	0.30	0.02	21.00	20.50	8.00	10.25	0.75	0.00	0.25	0.00	0.00	0.00	0.00	0.25	0.75	0.00	0.00	0.00	-0.757812	-0.823242	2.785156	39.060001	385.559998	-9.030000	629.00	-0.35	-0.04
1.43	0.00	0.00	0.00	0.00	0.00	0.00	0.00	0.00	7.50	7.75	8.25	5.00	1.00	17.50	5.25	5.00	-1.479004	0.291992	3.248047	59.990002	573.299988	-45.360001	558.00	0.31	0.03	24.50	23.00	10.50	12.75	2.00	2.25	0.50	0.25	0.00	0.00	0.00	0.25	1.00	0.00	0.00	0.00	-1.909180	0.737793	6.036133	27.580000	469.420013	-55.790001	791.00	-0.34	-0.05
1.44	0.00	0.00	0.00	0.00	0.00	0.00	0.00	0.00	5.50	5.25	5.75	3.00	0.25	14.25	4.00	3.50	-1.542969	0.769043	3.629395	116.830002	611.799988	-43.889999	403.00	0.31	0.04	25.50	23.75	12.00	14.25	4.75	4.25	0.50	0.75	0.00	0.00	0.00	0.25	1.25	0.00	0.00	0.00	-1.508789	1.157227	5.095703	18.270000	361.619995	-45.779999	904.00	-0.32	-0.05
1.45	0.00	0.00	0.00	0.00	0.00	0.00	0.00	0.00	3.25	2.75	3.50	1.50	0.25	10.50	2.50	2.25	-0.969238	0.460938	4.319336	205.449997	642.390015	-53.060001	254.00	0.32	0.05	25.00	23.00	12.50	14.50	6.25	5.25	0.75	1.25	0.00	0.00	0.00	0.50	1.25	0.00	0.00	0.00	-0.801758	0.660645	2.935059	-59.430000	224.839996	-14.420000	941.00	-0.31	-0.06
1.46	0.00	0.00	0.00	0.00	0.00	0.00	0.00	0.00	2.00	2.25	2.50	1.00	0.25	6.50	1.00	0.75	-0.715820	0.433105	4.542969	273.489990	661.570007	-67.970001	158.00	0.31	0.06	24.50	22.00	12.50	14.50	7.25	6.50	0.75	1.75	0.00	0.00	0.00	0.25	1.25	0.25	0.00	0.00	-0.018555	-0.436035	1.128906	-82.459999	148.750000	-4.480000	959.00	-0.30	-0.06
1.47	0.00	0.00	0.00	0.00	0.00	0.00	0.00	0.00	1.75	1.50	1.50	0.25	0.25	2.75	0.50	0.50	0.568848	-0.331543	4.536133	293.720001	655.690002	-117.320000	90.00	0.30	0.07	23.00	21.25	13.00	14.75	7.75	7.75	0.75	2.25	0.00	0.00	0.00	0.25	1.50	0.50	0.00	0.00	-0.128418	-0.050781	1.374512	-52.290001	122.639999	-11.830000	975.00	-0.29	-0.07
1.48	0.00	0.00	0.00	0.00	0.00	0.25	0.00	0.00	0.50	1.25	1.00	0.25	0.00	1.50	0.00	0.50	-0.266602	-0.108398	2.746582	236.880005	625.659973	-198.100006	51.00	0.27	0.03	22.50	20.50	12.75	14.50	8.00	8.25	1.00	2.50	0.00	0.00	0.25	0.50	1.75	0.75	0.00	0.00	-0.463379	0.411133	1.587891	-36.820000	80.010002	-6.930000	983.00	-0.28	-0.07
1.49	0.00	0.00	0.00	0.00	0.00	0.25	0.00	0.00	0.75	1.00	0.75	0.00	0.25	1.00	0.00	0.50	1.168945	1.864258	8.452637	100.870003	334.809998	-187.600006	44.00	0.00	0.00	22.25	20.25	12.75	14.75	8.25	8.50	1.00	3.00	0.00	0.00	0.25	0.50	2.00	1.00	0.00	0.00	-0.189941	0.005859	1.250977	-31.219999	37.380001	2.870000	998.00	-0.27	-0.07
1.50	0.00	0.00	0.00	0.00	0.00	0.25	0.00	0.00	0.75	1.00	0.50	0.00	0.00	0.50	0.00	0.25	1.856934	1.643066	5.411133	-48.020000	9.800000	-90.019997	34.00	0.00	0.00	21.25	20.00	12.50	14.75	8.50	8.75	1.00	3.25	0.00	0.25	0.50	0.50	2.25	0.75	0.00	0.00	-0.081055	0.145508	1.026367	-1.120000	10.920000	2.100000	997.00	-0.27	-0.08
1.51	0.00	0.00	0.00	0.00	0.00	0.00	0.00	0.00	0.50	1.00	0.75	0.00	0.00	0.50	0.00	0.25	1.381836	1.962891	3.018066	-135.589996	-138.320007	3.990000	30.00	0.00	0.00	20.25	19.50	12.25	14.50	8.50	9.00	1.00	3.50	0.00	0.25	0.50	0.50	2.25	1.25	0.00	0.00	-0.054199	0.030273	1.035645	1.540000	10.290000	3.430000	988.00	-0.26	-0.08
1.52	0.00	0.00	0.25	0.00	0.00	0.00	0.00	0.00	0.00	0.75	0.75	0.00	0.00	0.00	0.00	0.25	1.436523	1.745117	1.721680	-109.620003	-148.050003	54.950001	20.00	0.00	0.00	19.00	18.25	12.00	14.00	8.25	9.00	1.25	3.75	0.00	0.25	0.50	0.75	2.00	1.25	0.00	0.00	-0.050781	0.072754	1.007812	4.200000	11.830000	1.960000	960.00	-0.25	-0.08
1.53	0.00	0.00	0.25	0.00	0.00	0.00	0.00	0.00	0.00	0.50	0.50	0.00	0.00	0.00	0.00	0.25	1.453613	1.520508	2.005859	-20.370001	-153.509995	80.290001	15.00	0.00	0.00	18.50	17.50	11.50	13.50	8.00	8.75	1.00	3.75	0.25	0.50	0.50	0.75	2.50	1.00	0.00	0.00	-0.053711	0.078613	1.010742	4.480000	14.700000	1.540000	936.00	-0.25	-0.08
1.54	0.00	0.00	0.00	0.00	0.00	0.00	0.00	0.00	0.25	0.25	0.25	0.00	0.00	0.25	0.00	0.25	1.454102	0.880859	2.451172	50.119999	-206.639999	94.639999	12.00	0.00	0.00	16.50	16.00	11.00	13.00	7.75	8.50	1.00	4.00	0.25	0.25	0.75	0.50	2.50	1.25	0.00	0.00	-0.023438	0.087891	0.969727	0.700000	18.129999	0.070000	888.00	-0.24	-0.09
1.55	0.00	0.00	0.00	0.00	0.00	0.00	0.00	0.00	0.00	0.25	0.50	0.25	0.00	0.00	0.00	0.25	1.294434	0.426270	2.395508	62.439999	-284.970001	98.699997	12.00	0.00	0.00	13.75	14.50	10.25	12.25	7.25	8.25	1.00	4.00	0.25	0.50	0.75	1.00	2.75	1.25	0.00	0.00	-0.044922	0.069336	0.991699	-3.220000	22.540001	-1.820000	831.00	-0.23	-0.09
1.56	0.00	0.00	0.00	0.00	0.00	0.00	0.00	0.00	0.00	0.25	0.25	0.00	0.00	0.00	0.00	0.25	0.916504	0.206055	2.120117	34.930000	-358.119995	98.349998	7.00	0.00	0.00	12.50	12.75	9.50	11.25	6.75	7.75	1.00	3.75	0.25	0.50	1.00	0.75	2.00	1.25	0.00	0.00	-0.073730	0.043945	1.007812	-2.450000	24.500000	-2.100000	762.00	-0.23	-0.09
1.57	0.00	0.00	0.00	0.25	0.00	0.00	0.00	0.00	0.00	0.00	0.00	0.00	0.00	0.00	0.00	0.25	0.584961	0.123047	1.822754	2.730000	-410.410004	93.870003	4.00	0.00	0.00	10.50	10.50	8.75	10.25	6.25	7.50	1.00	3.50	0.00	0.50	1.00	0.75	2.75	1.25	0.00	0.00	-0.032227	0.069336	0.964355	-1.050000	25.760000	-1.960000	692.00	-0.22	-0.10
1.58	0.00	0.00	0.00	0.00	0.00	0.00	0.00	0.00	0.00	0.00	0.00	0.00	0.25	0.00	0.00	0.25	0.269531	0.084473	1.654785	-11.760000	-445.410004	84.209999	4.00	0.00	0.00	8.50	9.00	8.00	9.50	5.75	6.75	1.00	3.50	0.25	0.25	1.00	1.25	3.00	1.00	0.00	0.00	-0.029297	0.059570	0.978027	-1.750000	29.330000	-1.470000	633.00	-0.20	-0.11
1.59	0.00	0.00	0.00	0.00	0.00	0.00	0.00	0.00	0.00	0.00	0.00	0.00	0.00	0.00	0.00	0.00	-0.034180	0.035156	1.552734	-7.840000	-470.959991	70.559998	0.00	0.00	0.00	6.75	7.50	7.00	8.75	5.25	6.00	1.00	3.25	0.25	0.50	1.00	1.00	3.50	1.25	0.25	0.00	-0.051758	0.055176	0.980469	-2.590000	32.060001	-1.820000	574.00	-0.18	-0.11
1.60	0.00	0.00	0.00	0.00	0.00	0.00	0.00	0.00	0.00	0.00	0.00	0.00	0.00	0.00	0.00	0.25	-0.304688	0.002441	1.442871	4.270000	-487.059998	56.630001	1.00	0.00	0.00	5.50	6.50	6.25	7.75	4.75	5.75	1.25	3.25	0.50	1.00	1.50	1.25	3.25	1.25	0.00	0.00	-0.081543	0.082031	0.979492	-4.200000	34.090000	-2.800000	539.00	-0.16	-0.11
1.61	0.00	0.00	0.00	0.00	0.00	0.00	0.00	0.00	0.00	0.00	0.00	0.00	0.00	0.00	0.00	0.25	-0.515625	-0.051270	1.343262	14.280000	-490.839996	45.920002	1.00	0.00	0.00	4.50	4.50	5.00	7.00	4.00	5.00	1.00	3.00	0.50	0.75	1.50	1.50	3.75	1.75	0.25	0.25	-0.093262	0.074707	0.983398	-7.420000	34.580002	-4.900000	477.00	-0.13	-0.12
1.62	0.00	0.00	0.00	0.00	0.00	0.00	0.00	0.00	0.00	0.00	0.00	0.00	0.00	0.00	0.00	0.25	-0.636230	-0.044922	1.337891	14.910000	-484.750000	39.830002	1.00	0.00	0.00	3.50	3.50	4.25	6.00	3.75	4.25	1.00	3.25	0.50	1.25	1.50	1.50	4.25	1.75	0.00	0.25	-0.124512	0.096680	0.954102	-8.820000	34.720001	-8.330000	438.00	-0.11	-0.13
1.63	0.00	0.00	0.00	0.00	0.00	0.00	0.00	0.00	0.00	0.00	0.00	0.00	0.00	0.00	0.00	0.00	-0.634277	0.155762	1.624512	3.360000	-469.769989	43.889999	0.00	0.00	0.00	2.75	2.75	3.25	5.00	3.25	3.50	1.50	3.00	1.00	1.25	1.75	1.75	4.25	2.50	0.25	0.00	-0.092773	0.068848	0.984375	-10.500000	32.900002	-11.620000	411.00	-0.06	-0.12
1.64	0.00	0.00	0.00	0.25	0.00	0.00	0.00	0.00	0.00	0.00	0.00	0.00	0.00	0.00	0.00	0.25	-0.638184	0.266113	1.915039	5.950000	-471.029999	53.340000	4.00	0.00	0.00	2.75	1.50	2.75	4.50	3.00	2.75	1.50	3.25	1.25	1.75	1.75	2.25	4.75	3.50	0.25	0.25	-0.078125	0.054199	1.000000	-9.800000	33.250000	-14.980000	409.00	-0.02	-0.11
1.65	0.00	0.00	0.00	0.00	0.00	0.00	0.00	0.00	0.00	0.00	0.00	0.00	0.00	0.00	0.00	0.00	-0.645508	0.321289	2.194336	12.530000	-479.360016	65.870003	0.00	0.00	0.00	2.00	2.00	2.25	4.00	2.75	2.25	1.50	3.25	2.00	2.00	2.50	2.50	5.00	4.25	0.25	0.25	-0.138184	0.044434	1.017578	-7.910000	34.230000	-17.990000	418.00	0.01	-0.10
1.66	0.00	0.00	0.00	0.00	0.00	0.00	0.00	0.00	0.00	0.00	0.00	0.00	0.00	0.00	0.00	0.25	-0.696289	0.368652	2.450195	16.590000	-490.910004	79.449997	1.00	0.00	0.00	1.75	1.25	1.75	3.00	2.50	2.00	1.75	3.25	2.75	2.50	2.75	2.75	5.50	5.75	0.25	0.50	-0.152832	0.076660	0.996094	-4.900000	35.560001	-20.440001	429.00	0.06	-0.09
1.67	0.00	0.00	0.00	0.00	0.00	0.00	0.00	0.00	0.00	0.00	0.25	0.00	0.00	0.00	0.00	0.00	-0.847168	0.393066	2.750977	22.889999	-503.369995	90.580002	3.00	0.00	0.00	1.50	1.00	1.75	2.75	2.25	1.50	1.75	3.75	3.50	2.75	3.50	3.50	6.25	7.00	0.50	0.75	-0.184570	0.033203	0.985840	-1.890000	37.799999	-19.809999	470.00	0.09	-0.09
1.68	0.00	0.00	0.00	0.00	0.00	0.00	0.00	0.00	0.00	0.00	0.00	0.00	0.00	0.00	0.00	0.25	-1.199707	0.430664	2.960449	34.439999	-515.479980	96.389999	1.00	0.00	0.00	1.50	0.75	1.25	2.25	2.00	1.25	2.00	3.50	4.25	3.75	4.00	4.00	7.00	8.00	0.75	1.25	-0.157227	0.042480	1.031738	2.240000	46.830002	-16.170000	502.00	0.13	-0.08
1.69	0.00	0.00	0.00	0.00	0.00	0.00	0.00	0.00	0.00	0.00	0.00	0.00	0.00	0.00	0.00	0.00	-1.597656	0.439453	3.096191	45.009998	-521.989990	97.580002	0.00	0.00	0.00	1.25	0.25	1.00	1.75	1.75	1.25	2.00	3.75	5.75	4.50	5.75	4.75	7.75	9.50	0.75	1.50	-0.211914	0.042480	1.031738	2.240000	46.830002	-16.170000	562.00	0.16	-0.07
1.70	0.00	0.00	0.00	0.00	0.00	0.25	0.00	0.00	0.00	0.00	0.00	0.00	0.00	0.00	0.00	0.00	-2.089355	0.457520	3.119629	52.430000	-517.299988	96.389999	3.00	0.00	0.00	1.00	0.00	1.00	1.50	1.50	0.75	2.25	4.25	7.00	6.25	7.75	6.00	8.25	11.00	1.25	2.00	-0.177734	0.032227	1.036621	10.570000	63.139999	-16.520000	652.00	0.18	-0.06
1.71	0.00	0.00	0.00	0.00	0.00	0.00	0.00	0.00	0.00	0.00	0.00	0.00	0.00	0.00	0.00	0.00	-2.661621	0.422852	3.058105	60.549999	-501.269989	97.090004	0.00	0.00	0.00	1.00	0.25	0.75	1.50	1.25	0.50	2.00	4.25	7.75	8.00	8.25	7.50	8.75	13.00	1.25	2.75	-0.205078	0.041992	1.092773	14.980000	75.389999	-16.030001	716.00	0.19	-0.06
1.72	0.00	0.00	0.00	0.00	0.00	0.00	0.00	0.00	0.00	0.00	0.00	0.00	0.00	0.25	0.00	0.00	-3.310059	0.216797	3.171875	69.370003	-475.510010	98.139999	2.00	0.00	0.00	0.75	0.00	0.75	1.25	1.00	0.50	2.00	4.25	8.75	8.50	9.00	8.00	9.25	14.50	1.75	3.25	-0.238281	0.104492	1.037598	18.830000	87.500000	-16.309999	763.00	0.21	-0.05
1.73	0.00	0.00	0.00	0.00	0.00	0.00	0.00	0.00	0.00	0.00	0.00	0.00	0.00	0.00	0.00	0.00	-3.486328	-0.532227	3.058594	38.080002	-409.570007	86.099998	0.00	0.00	0.00	1.00	0.25	0.50	0.75	0.75	0.25	1.75	4.25	9.00	9.25	10.00	8.75	9.50	16.25	2.50	4.75	-0.228516	0.090820	1.073242	21.840000	98.489998	-18.129999	813.00	0.22	-0.05
1.74	0.00	0.00	0.00	0.00	0.00	0.00	0.00	0.00	0.00	0.00	0.00	0.00	0.00	0.00	0.00	0.00	-4.126465	0.023926	3.215820	-5.250000	-391.860016	85.540001	0.00	0.00	0.00	0.75	0.00	0.00	0.75	0.50	0.00	1.50	4.00	9.75	10.00	10.75	9.25	9.75	18.25	3.00	5.75	-0.212891	0.158203	1.188477	24.080000	112.000000	-20.510000	850.00	0.24	-0.05
1.75	0.00	0.00	0.00	0.00	0.00	0.00	0.00	0.00	0.00	0.00	0.00	0.00	0.00	0.00	0.00	0.00	-5.016113	0.166992	2.263672	-31.360001	-372.399994	96.040001	0.00	0.00	0.00	0.50	0.00	0.00	0.50	0.25	0.00	1.25	3.75	10.25	10.50	11.50	10.00	10.00	19.75	3.75	6.25	-0.224609	0.105957	1.207031	28.350000	131.389999	-19.600000	887.00	0.25	-0.05
1.76	0.00	0.00	0.00	0.00	0.00	0.00	0.00	0.00	0.00	0.00	0.00	0.00	0.00	0.00	0.00	0.00	-4.768066	0.052246	-0.115723	-73.150002	-319.829987	118.790001	0.00	0.00	0.00	0.75	0.00	0.00	0.00	0.00	0.00	1.00	3.25	10.50	11.00	11.75	10.25	9.75	21.25	5.25	6.75	-0.372559	0.171875	1.137207	30.520000	157.639999	-22.680000	913.00	0.26	-0.04
1.77	0.00	0.00	0.00	0.00	0.00	0.00	0.00	0.00	0.00	0.00	0.00	0.00	0.00	0.00	0.00	0.00	-6.625977	0.858398	-0.549805	-138.250000	-246.050003	96.040001	0.00	0.00	0.00	0.50	0.00	0.00	0.25	0.00	0.00	0.75	2.75	10.75	11.25	12.00	10.50	9.50	22.25	6.00	7.25	-0.327637	0.199707	1.159180	30.170000	185.360001	-29.049999	930.00	0.26	-0.04
1.78	0.00	0.00	0.00	0.00	0.00	0.00	0.00	0.00	0.25	0.00	0.00	0.00	0.00	0.00	0.00	0.25	-7.498535	1.546387	-1.470703	-78.470001	-158.619995	29.960001	5.00	0.00	0.00	0.50	0.00	0.00	0.25	0.00	0.00	0.25	2.25	11.00	11.50	12.25	10.50	9.50	23.50	6.50	7.50	-0.289062	0.150391	1.271484	29.330000	210.350006	-36.049999	940.00	0.27	-0.04
1.79	0.00	0.00	0.00	0.00	0.00	0.00	0.00	0.00	0.00	0.00	0.25	0.00	0.00	0.00	0.00	0.25	-7.129883	0.874512	-1.638184	81.900002	-47.040001	3.080000	4.00	0.00	0.00	0.00	0.00	0.00	0.00	0.00	0.00	0.00	1.75	11.00	11.75	12.25	10.75	9.25	24.25	7.00	7.75	-0.404297	0.108887	1.327148	27.370001	240.660004	-39.060001	937.00	0.28	-0.03
1.80	0.25	0.00	0.50	0.50	0.00	0.00	0.00	0.00	0.00	0.00	0.00	0.00	0.00	0.00	0.00	0.00	-6.357910	-0.030762	-0.775391	153.930008	67.970001	34.230000	14.00	0.00	0.00	0.00	0.00	0.00	0.00	0.00	0.00	0.00	1.50	10.75	11.50	12.25	10.75	9.00	25.00	7.50	7.75	-0.401367	0.091309	1.346680	15.540000	283.570007	-41.369999	937.00	0.28	-0.03
1.81	1.00	2.00	1.25	2.25	0.00	0.00	0.00	0.00	0.00	0.00	0.00	0.00	0.00	0.00	0.00	0.00	-6.052734	-1.944824	-1.770996	-11.550000	318.500000	64.820000	67.00	-0.34	-0.09	0.00	0.00	0.00	0.00	0.00	0.00	0.00	0.75	10.25	11.50	12.00	10.50	8.50	24.75	7.25	7.50	-0.552734	0.077148	1.457031	4.830000	327.459991	-38.430000	903.00	0.29	-0.03
1.82	6.00	9.75	2.75	5.25	0.00	0.00	0.00	0.00	0.00	0.00	0.00	0.00	0.00	0.00	0.00	0.00	-0.403809	0.224609	2.652832	-108.430000	380.029999	19.950001	240.00	-0.36	-0.08	0.25	0.00	0.00	0.00	0.00	0.00	0.00	0.50	9.50	11.00	11.75	10.00	8.00	24.50	7.50	7.00	-0.497559	0.144043	1.610352	-1.820000	370.510010	-38.080002	872.00	0.29	-0.02
1.83	18.25	24.75	6.75	9.50	0.50	0.00	0.00	0.00	0.00	0.00	0.00	0.00	0.00	0.00	0.00	0.25	1.311035	-0.116699	3.120605	-159.669998	276.290009	1.960000	603.00	-0.37	-0.06	0.00	0.00	0.00	0.00	0.00	0.00	0.00	0.50	8.50	10.50	11.25	9.75	7.25	23.75	7.25	6.00	-0.545898	0.268066	1.432129	-10.850000	419.860016	-40.670002	823.00	0.29	-0.02
1.84	26.25	30.25	9.25	13.25	1.25	1.00	0.25	0.00	0.00	0.00	0.00	0.00	0.00	0.00	0.00	0.00	-1.428711	-0.549316	5.085938	-68.040001	457.309998	-44.869999	827.00	-0.36	-0.05	0.25	0.00	0.00	0.00	0.00	0.00	0.00	0.00	7.00	9.50	10.50	8.75	6.25	22.00	6.50	4.75	-0.927734	0.662109	2.310547	2.240000	472.220001	-49.349998	731.00	0.29	-0.02
1.85	29.00	32.00	11.50	16.25	2.50	2.25	0.25	0.00	0.00	0.00	0.00	0.00	0.00	0.00	0.00	0.00	-1.429688	0.339355	4.475586	-38.009998	351.399994	-53.410000	957.00	-0.35	-0.05	0.00	0.00	0.00	0.00	0.00	0.00	0.00	0.00	5.50	8.00	9.00	7.75	5.00	19.50	5.50	2.75	-0.737793	0.401367	3.258789	9.590000	519.890015	-59.779999	613.00	0.30	-0.02
1.86	28.50	31.00	13.50	17.50	4.50	3.25	0.25	0.00	0.00	0.00	0.25	0.00	0.00	0.00	0.00	0.00	-0.479004	0.875977	1.982910	-56.070000	238.699997	-23.660000	1014.00	-0.34	-0.05	0.00	0.00	0.00	0.00	0.00	0.00	0.00	0.00	3.75	6.50	7.00	6.00	3.25	15.75	3.50	1.00	-1.509277	0.602051	3.618164	20.160000	572.950012	-63.910000	458.00	0.30	-0.01
1.87	26.75	29.25	13.75	17.75	5.50	4.50	0.50	0.25	0.00	0.00	0.00	0.00	0.25	0.00	0.00	0.00	-0.075684	-0.313965	1.296387	-74.129997	205.029999	2.240000	1017.00	-0.33	-0.05	0.00	0.00	0.00	0.00	0.00	0.00	0.00	0.00	2.00	4.00	4.50	3.50	2.00	11.00	2.25	0.50	-1.127930	0.941406	3.906250	60.689999	614.950012	-68.669998	289.00	0.30	-0.00
1.88	25.50	28.00	14.00	18.25	6.50	6.25	0.50	0.75	0.00	0.00	0.50	0.25	0.25	0.00	0.00	0.25	-0.534180	-0.301270	1.971191	-68.949997	171.220001	-8.190000	1048.00	-0.31	-0.06	0.00	0.00	0.00	0.00	0.00	0.00	0.00	0.00	1.25	2.50	2.75	2.50	1.50	6.50	0.50	0.25	-0.677246	0.585449	3.992676	134.750000	644.210022	-79.099998	173.00	0.29	-0.01
1.89	24.50	27.00	14.75	18.75	7.50	7.50	0.75	1.25	0.25	0.00	0.25	0.00	0.50	0.00	0.00	0.25	-0.388672	0.469238	1.437988	-63.700001	113.260002	-12.950000	1078.00	-0.30	-0.06	0.00	0.00	0.00	0.00	0.00	0.00	0.25	0.00	0.75	1.75	1.75	1.50	1.75	2.50	0.25	0.00	1.363770	-0.046875	4.822754	220.220001	646.590027	-126.070000	105.00	0.26	-0.05
1.90	24.00	26.50	15.00	19.00	8.00	8.00	0.75	1.75	0.00	0.25	0.25	0.00	0.50	0.00	0.00	0.25	-0.445801	0.094238	1.437500	-54.950001	63.700001	-0.210000	1092.00	-0.30	-0.07	0.00	0.00	0.00	0.00	0.00	0.00	0.25	0.00	0.25	0.75	0.75	0.75	0.75	1.25	0.00	0.00	0.380859	0.438477	3.246094	173.600006	597.940002	-191.589996	48.00	0.00	0.00
1.91	23.50	26.00	15.25	19.25	8.50	8.50	0.75	1.75	0.25	0.25	0.25	0.00	0.25	0.50	0.00	0.25	-0.166016	-0.117676	1.143066	-29.260000	32.689999	0.420000	1104.00	-0.29	-0.07	0.25	0.00	0.00	0.00	0.00	0.00	0.25	0.00	0.00	0.75	0.75	0.75	0.50	0.75	0.00	0.00	1.715332	1.904785	7.433594	108.919998	298.269989	-185.009995	41.00	0.00	0.00
1.92	23.00	25.50	15.00	19.00	8.50	8.75	0.75	2.00	0.25	0.25	0.50	0.00	0.50	0.25	0.00	0.25	-0.200684	0.119629	1.062012	-10.220000	19.950001	-0.700000	1098.00	-0.29	-0.07	0.00	0.00	0.00	0.00	0.00	0.00	0.25	0.00	0.25	0.75	1.00	0.75	0.00	0.50	0.00	0.00	2.074219	1.208496	5.295898	29.049999	-33.459999	-109.199997	38.00	0.00	0.00
1.93	22.25	25.00	14.75	18.75	8.50	9.00	0.75	2.25	0.25	0.50	0.50	0.00	0.50	0.50	0.00	0.25	-0.116211	0.031738	1.000977	-2.730000	16.030001	1.680000	1091.00	-0.29	-0.07	0.00	0.00	0.00	0.00	0.00	0.00	0.25	0.00	0.00	0.50	0.75	0.50	0.25	0.50	0.00	0.00	1.505859	1.324219	2.728516	-42.490002	-190.330002	-36.049999	29.00	0.00	0.00
1.94	21.25	24.00	14.25	18.25	8.25	9.00	0.75	2.50	0.50	0.25	0.50	0.25	0.75	0.75	0.00	0.25	-0.065918	0.046387	0.959961	2.170000	17.150000	0.700000	1069.00	-0.28	-0.07	0.00	0.00	0.00	0.00	0.00	0.00	0.25	0.00	0.00	0.50	0.75	0.25	0.00	0.25	0.00	0.00	1.216309	1.196289	1.386230	-61.250000	-193.130005	11.550000	22.00	0.00	0.00
1.95	19.00	22.75	13.50	17.50	8.25	9.00	1.00	2.50	0.25	0.50	0.50	0.25	0.75	0.75	0.00	0.25	-0.080078	0.129395	0.962402	2.030000	21.350000	0.140000	1021.00	-0.27	-0.08	0.00	0.00	0.00	0.00	0.00	0.00	0.25	0.00	0.25	0.50	0.50	0.75	0.00	0.25	0.00	0.00	1.241211	1.045898	1.479004	-29.330000	-169.119995	39.130001	28.00	0.00	0.00
1.96	17.25	20.75	12.50	16.50	8.00	9.00	1.00	2.75	0.50	0.75	0.75	0.25	1.00	0.50	0.00	0.25	-0.067871	0.056152	0.945312	-1.890000	26.389999	0.280000	972.00	-0.26	-0.08	0.25	0.00	0.00	0.00	0.00	0.00	0.25	0.00	0.00	0.00	0.25	0.25	0.00	0.25	0.00	0.00	1.416504	0.673828	1.932617	11.410000	-187.880005	48.580002	14.00	0.00	0.00
1.97	14.75	18.75	11.50	15.00	7.75	8.75	1.00	2.75	0.75	0.75	0.75	0.00	1.00	0.75	0.00	0.25	-0.071289	0.065918	0.953613	-4.760000	31.150000	-0.840000	897.00	-0.25	-0.08	0.25	0.00	0.00	0.00	0.00	0.00	0.25	0.00	0.00	0.25	0.25	0.25	0.25	0.00	0.00	0.00	1.258789	0.362305	2.136719	26.460001	-248.080002	45.500000	16.00	0.00	0.00
1.98	12.50	16.00	10.50	13.75	7.50	8.50	1.00	3.25	1.00	0.75	1.00	0.50	1.50	0.50	0.00	0.25	-0.114258	0.069336	0.979492	-6.090000	33.670002	-1.400000	839.00	-0.24	-0.09	0.00	0.00	0.00	0.00	0.00	0.00	0.25	0.00	0.00	0.00	0.25	0.25	0.00	0.00	0.00	0.00	0.961426	0.147461	1.974609	11.480000	-318.640015	40.389999	9.00	0.00	0.00
1.99	9.75	13.75	9.50	12.00	7.00	8.00	1.00	3.25	1.00	1.00	1.00	0.50	1.50	0.75	0.25	0.50	-0.110840	0.063477	0.970215	-6.650000	35.349998	-2.030000	758.00	-0.22	-0.09	0.00	0.00	0.00	0.00	0.00	0.00	0.25	0.00	0.00	0.00	0.25	0.00	0.25	0.00	0.00	0.00	0.648438	0.060547	1.702637	-16.940001	-373.100006	35.000000	9.00	0.00	0.00
2.00	7.75	10.75	8.50	10.25	6.50	7.75	1.00	3.25	1.00	1.00	1.75	0.50	2.00	0.75	0.00	0.50	-0.114258	0.051758	0.965820	-6.860000	37.240002	-1.610000	680.00	-0.20	-0.10	0.00	0.00	0.00	0.00	0.00	0.00	0.25	0.00	0.00	0.25	0.25	0.00	0.25	0.00	0.00	0.00	0.383301	0.064941	1.483398	-40.180000	-405.720001	28.840000	11.00	0.00	0.00
2.01	6.50	8.50	7.75	9.00	6.00	7.25	1.00	3.25	1.25	1.00	1.25	0.75	1.50	0.75	0.00	0.25	-0.126465	0.041016	0.962402	-6.230000	38.290001	-1.050000	609.00	-0.19	-0.09	0.00	0.00	0.00	0.00	0.00	0.00	0.25	0.00	0.00	0.00	0.00	0.25	0.00	0.00	0.00	0.00	0.193848	0.110352	1.420410	-47.180000	-424.410004	23.450001	6.00	0.00	0.00
2.02	5.00	7.00	6.75	8.25	5.75	6.75	1.25	3.50	1.50	1.00	1.25	0.75	1.75	1.00	0.25	0.50	-0.134277	0.051758	0.971680	-4.620000	37.799999	-1.120000	571.00	-0.16	-0.10	0.00	0.00	0.00	0.00	0.00	0.00	0.25	0.00	0.00	0.00	0.00	0.00	0.00	0.00	0.00	0.00	-0.024414	0.063965	1.382324	-43.610001	-437.709991	18.480000	4.00	0.00	0.00
2.03	4.00	6.00	5.75	7.00	5.25	6.25	1.25	3.75	1.75	1.25	1.50	1.00	2.00	1.00	0.25	0.50	-0.132324	0.069824	0.976074	-4.620000	38.709999	-2.800000	533.00	-0.14	-0.10	0.00	0.00	0.00	0.00	0.00	0.00	0.25	0.00	0.00	0.00	0.00	0.00	0.00	0.00	0.00	0.00	-0.139648	0.081543	1.354004	-38.220001	-447.299988	11.130000	4.00	0.00	0.00
2.04	2.75	5.00	5.00	6.25	4.75	5.75	1.25	3.50	1.75	1.50	1.75	1.50	2.25	1.25	0.00	0.50	-0.250488	0.054688	0.946777	-4.620000	40.529999	-6.930000	491.00	-0.11	-0.11	0.00	0.00	0.00	0.00	0.00	0.00	0.25	0.00	0.00	0.00	0.25	0.00	0.00	0.00	0.00	0.00	-0.292480	0.107422	1.371094	-30.380001	-452.059998	5.320000	6.00	0.00	0.00
2.05	2.25	4.00	4.00	5.50	4.25	5.50	1.50	3.75	2.25	2.00	2.50	1.50	2.75	1.50	0.25	0.75	-0.183594	0.049316	0.952148	-3.360000	40.250000	-8.400000	487.00	-0.07	-0.11	0.00	0.00	0.00	0.00	0.00	0.00	0.25	0.00	0.00	0.00	0.00	0.00	0.25	0.00	0.00	0.00	-0.411133	0.152344	1.434082	-20.580000	-452.480011	2.590000	6.00	0.00	0.00
2.06	1.75	3.00	3.50	5.00	3.75	5.00	1.50	3.75	2.75	2.00	2.75	1.75	2.75	1.75	0.25	0.75	-0.176758	0.037598	0.979492	-1.330000	42.279999	-9.520000	465.00	-0.04	-0.10	0.00	0.00	0.00	0.00	0.00	0.00	0.25	0.00	0.00	0.00	0.00	0.25	0.00	0.00	0.00	0.00	-0.492188	0.203125	1.595703	-11.690000	-452.480011	4.690000	6.00	0.00	0.00
2.07	1.25	2.00	2.75	4.50	3.25	4.25	1.50	3.75	3.50	2.75	3.00	2.25	3.50	2.25	0.25	0.75	-0.238770	-0.058105	0.953613	2.170000	44.380001	-9.590000	459.00	0.00	-0.10	0.00	0.00	0.00	0.00	0.00	0.00	0.25	0.00	0.00	0.00	0.00	0.00	0.00	0.00	0.00	0.00	-0.630371	0.389160	1.737305	-4.830000	-456.330017	14.910000	4.00	0.00	0.00
2.08	1.25	2.25	2.50	3.75	2.75	4.25	1.75	3.75	4.50	3.00	3.50	2.50	3.75	3.00	0.25	0.75	-0.222656	0.006836	0.981934	3.780000	46.689999	-10.640000	481.00	0.03	-0.09	0.00	0.00	0.00	0.00	0.00	0.00	0.25	0.00	0.00	0.00	0.00	0.00	0.25	0.00	0.00	0.00	-0.250977	0.690430	2.130859	-19.670000	-452.130005	41.790001	6.00	0.00	0.00
2.09	1.00	2.00	2.00	3.50	2.25	3.50	1.75	4.00	5.50	3.75	4.75	3.25	4.00	4.25	0.50	1.00	-0.178711	0.062500	0.971191	6.860000	52.080002	-11.480000	516.00	0.07	-0.08	0.25	0.00	0.00	0.00	0.00	0.00	0.25	0.00	0.00	0.00	0.00	0.00	0.00	0.00	0.00	0.00	-0.647461	0.505859	2.402344	15.750000	-477.679993	65.940002	6.00	0.00	0.00
2.10	1.00	1.50	1.50	3.00	2.25	3.00	1.75	4.25	6.50	5.25	5.75	3.50	5.25	5.00	0.50	1.00	-0.196777	0.061035	1.006836	8.050000	58.310001	-11.830000	558.00	0.10	-0.07	0.00	0.00	0.00	0.00	0.00	0.00	0.25	0.00	0.00	0.00	0.00	0.00	0.00	0.00	0.00	0.00	-0.776367	0.459473	2.635742	38.009998	-483.839996	73.849998	4.00	0.00	0.00
2.11	0.25	1.25	1.50	2.50	2.00	2.50	2.00	4.25	8.00	6.50	7.25	4.25	5.75	6.50	0.75	1.50	-0.210449	0.058105	0.964355	9.590000	65.800003	-13.020000	617.00	0.14	-0.06	0.00	0.00	0.00	0.00	0.00	0.00	0.25	0.00	0.00	0.00	0.00	0.00	0.00	0.00	0.00	0.00	-1.005371	0.454102	2.902344	52.570000	-487.970001	75.459999	4.00	0.00	0.00
2.12	0.50	1.25	1.00	2.50	1.50	2.50	2.00	4.25	8.75	7.75	8.00	5.50	6.25	8.00	1.00	1.50	-0.218750	0.048340	1.006836	11.480000	76.300003	-14.420000	672.00	0.15	-0.06	0.00	0.00	0.00	0.00	0.00	0.00	0.25	0.00	0.00	0.00	0.00	0.00	0.25	0.00	0.00	0.00	-1.364746	0.544922	3.060059	61.320000	-490.209991	72.029999	6.00	0.00	0.00
2.13	0.50	0.50	1.00	2.00	1.25	2.25	2.00	4.25	9.50	8.50	9.00	6.50	6.75	9.00	1.25	2.00	-0.282715	0.093750	0.987793	14.210000	86.379997	-16.170000	711.00	0.17	-0.05	0.00	0.00	0.00	0.00	0.00	0.00	0.25	0.00	0.00	0.00	0.00	0.00	0.00	0.00	0.00	0.00	-1.909180	0.689453	3.170410	67.410004	-484.890015	69.370003	4.00	0.00	0.00
2.14	0.25	0.75	0.50	1.50	1.00	1.50	2.00	4.25	10.25	9.25	10.00	7.50	7.25	10.25	1.50	2.25	-0.251953	0.092773	1.016113	17.010000	95.129997	-18.270000	746.00	0.19	-0.05	0.25	0.00	0.00	0.00	0.00	0.00	0.25	0.00	0.00	0.00	0.00	0.00	0.00	0.00	0.00	0.00	-2.547363	0.694336	3.179688	76.160004	-472.429993	76.720001	6.00	0.00	0.00
2.15	0.25	0.25	0.75	1.50	0.75	1.50	1.75	4.00	10.75	10.00	10.75	8.00	7.50	11.50	1.75	3.00	-0.301270	0.094727	1.062012	18.549999	107.520004	-20.930000	781.00	0.20	-0.05	0.00	0.00	0.00	0.00	0.00	0.00	0.25	0.00	0.00	0.00	0.00	0.00	0.00	0.00	0.00	0.00	-3.083008	0.400391	3.422363	98.559998	-457.799988	96.739998	4.00	0.00	0.00
2.16	0.25	0.25	0.25	1.50	0.50	1.00	1.75	3.75	11.50	10.75	11.75	8.75	7.75	12.75	2.25	4.00	-0.331543	0.085449	1.042969	22.330000	120.959999	-23.170000	823.00	0.22	-0.04	0.00	0.00	0.00	0.00	0.00	0.00	0.25	0.00	0.00	0.00	0.00	0.00	0.00	0.00	0.00	0.00	-3.601074	0.239746	3.295898	87.010002	-446.739990	123.480003	4.00	0.00	0.00
2.17	0.25	0.25	0.00	1.25	0.25	0.75	1.50	3.50	12.00	11.25	12.50	9.50	7.75	14.00	2.50	4.75	-0.291992	0.072754	1.115234	27.580000	137.059998	-23.520000	849.00	0.23	-0.04	0.00	0.00	0.00	0.00	0.00	0.00	0.25	0.00	0.00	0.00	0.25	0.00	0.00	0.00	0.00	0.00	-3.876465	0.344727	2.308105	30.730000	-424.619995	163.800003	6.00	0.00	0.00
2.18	0.00	0.00	0.00	1.50	0.00	0.50	1.25	3.25	12.25	12.00	13.25	9.75	7.75	15.50	3.00	5.25	-0.319824	0.038574	1.147949	30.309999	157.080002	-24.570000	876.00	0.24	-0.04	0.00	0.00	0.00	0.00	0.00	0.00	0.25	0.00	0.00	0.00	0.25	0.00	0.00	0.00	0.00	0.00	-4.719727	0.565430	0.950684	-28.000000	-373.660004	206.500000	6.00	0.00	0.00
2.19	0.00	0.00	0.25	0.50	0.00	0.25	0.75	2.75	12.75	12.25	13.75	10.25	7.75	16.75	3.25	5.50	-0.343262	0.096680	1.250977	31.990000	178.500000	-25.830000	885.00	0.25	-0.03	0.00	0.00	0.00	0.00	0.00	0.00	0.25	0.00	0.00	0.00	0.25	0.75	0.00	0.00	0.00	0.00	-6.725098	1.013184	-0.151367	-40.040001	-305.970001	192.570007	14.00	0.00	0.00
2.20	0.00	0.00	0.00	0.50	0.00	0.00	0.50	2.25	12.75	12.50	14.25	10.50	7.50	17.75	4.00	6.00	-0.419922	0.117188	1.083984	32.689999	203.770004	-28.000000	895.00	0.26	-0.03	0.00	0.00	0.00	0.00	0.00	0.00	0.25	0.00	0.00	0.00	0.25	0.00	0.00	0.00	0.00	0.00	-7.602539	0.857422	-1.440430	59.360001	-223.509995	129.149994	6.00	0.00	0.00
2.21	0.00	0.00	0.00	0.50	0.00	0.50	0.25	1.75	12.75	12.50	14.75	10.75	7.25	18.50	5.00	6.25	-0.475586	0.143555	1.078125	30.380001	232.540009	-28.350000	913.00	0.26	-0.03	0.00	0.00	0.00	0.00	0.00	0.00	0.25	0.00	0.00	0.00	0.25	0.00	0.00	0.00	0.00	0.00	-7.442871	0.093750	-1.606934	179.759995	-108.430000	71.820000	6.00	0.00	0.00
2.22	0.00	0.00	0.00	0.00	0.00	0.00	0.00	1.25	12.50	12.50	14.50	10.75	6.75	19.25	5.75	6.50	-0.438965	0.015137	1.303711	30.380001	269.010010	-27.160000	896.00	0.27	-0.02	0.00	0.00	0.00	0.00	0.00	0.00	0.25	0.00	0.00	0.00	0.00	0.00	0.00	0.00	0.00	0.00	-6.417969	-0.599121	-0.776855	192.919998	8.610000	54.110001	4.00	0.00	0.00
2.23	0.00	0.00	0.00	0.00	0.00	0.00	0.00	0.75	12.25	12.25	14.50	10.75	6.50	19.75	5.75	6.50	-0.666992	0.036133	1.168457	34.230000	290.640015	-21.210001	885.00	0.28	-0.02	0.00	0.00	0.00	0.00	0.00	0.00	0.25	0.00	0.00	0.00	0.00	0.25	0.00	0.00	0.00	0.00	-5.015625	-0.743652	0.134766	130.339996	88.269997	75.599998	6.00	0.00	0.00
2.24	0.00	0.00	0.00	0.00	0.00	0.00	0.00	0.75	11.50	12.25	14.50	10.50	6.00	19.50	6.00	6.50	-0.555176	0.064941	1.341797	28.139999	337.470001	-16.170000	869.00	0.28	-0.02	0.00	0.00	0.00	0.00	0.00	0.00	0.25	0.00	0.00	0.00	0.00	0.00	0.25	0.00	0.00	0.00	-3.823730	-0.510742	0.680176	59.360001	126.349998	102.830002	6.00	0.00	0.00
2.25	0.00	0.00	0.00	0.00	0.00	0.00	0.00	0.50	10.75	11.50	14.00	10.00	5.50	19.25	6.00	6.25	-0.916016	0.389648	1.958008	11.830000	421.119995	-17.710001	829.00	0.28	-0.02	1.75	1.50	1.00	2.00	0.00	0.00	0.25	0.00	0.00	0.00	0.00	0.00	0.00	0.00	0.00	0.00	-4.006348	-0.528809	2.375000	-12.810000	297.920013	89.669998	69.00	-0.32	-0.05
2.26	0.00	0.00	0.00	0.00	0.00	0.00	0.00	0.25	9.50	10.75	13.25	9.50	4.75	18.75	6.00	5.75	-0.994141	0.392090	2.170410	11.830000	421.119995	-17.710001	774.00	0.29	-0.01	7.00	8.50	2.50	5.00	0.00	0.00	0.25	0.00	0.00	0.00	0.00	0.00	0.00	0.00	0.00	0.00	-1.500000	-0.666016	-1.497070	-74.129997	254.309998	56.420002	237.00	-0.36	-0.06
2.27	0.00	0.00	0.00	0.00	0.00	0.00	0.00	0.25	8.25	9.75	12.00	8.50	3.75	17.75	5.50	5.00	-0.989746	0.307617	2.910156	53.689999	531.580017	-41.439999	697.00	0.29	-0.01	17.50	17.50	6.25	9.00	0.25	0.00	0.25	0.00	0.00	0.00	0.00	0.00	0.25	0.00	0.00	0.00	-0.288574	-0.982422	0.300781	-44.240002	253.889999	43.330002	519.00	-0.36	-0.04
2.28	0.00	0.00	0.00	0.00	0.00	0.00	0.00	0.00	6.75	8.25	10.00	7.50	2.25	15.75	4.50	4.00	-1.444336	0.559570	3.356445	76.160004	573.369995	-46.060001	581.00	0.29	-0.00	23.50	22.50	9.25	11.50	1.25	1.00	0.25	0.00	0.00	0.00	0.00	0.00	0.00	0.00	0.00	0.00	-1.206055	-1.952637	2.372559	-1.960000	399.910004	5.390000	708.00	-0.35	-0.04
2.29	0.00	0.00	0.00	0.00	0.00	0.00	0.00	0.00	5.00	6.00	8.00	5.50	1.50	12.75	3.00	2.75	-1.588379	0.657715	3.827148	120.120003	605.849976	-46.200001	438.00	0.29	0.00	26.00	23.75	11.75	13.75	4.25	3.50	0.50	0.25	0.00	0.00	0.00	0.50	1.00	0.00	0.00	0.00	-1.775879	1.459473	5.528320	8.400000	370.790009	-67.480003	880.00	-0.33	-0.05
2.30	0.00	0.00	0.00	0.00	0.00	0.00	0.00	0.00	3.00	3.25	5.00	3.50	1.00	9.50	2.00	1.75	-1.020020	0.666016	4.114258	193.550003	638.119995	-49.700001	283.00	0.30	0.01	25.75	23.50	12.75	14.50	6.00	6.25	0.75	1.00	0.00	0.00	0.00	0.50	1.25	0.00	0.00	0.00	-0.714844	0.913574	2.508301	-82.669998	220.220001	-17.500000	961.00	-0.31	-0.06
2.31	0.00	0.00	0.00	0.00	0.00	0.00	0.00	0.00	2.25	2.25	2.75	2.25	0.50	5.75	0.50	0.75	-0.777344	0.502930	4.544434	256.480011	661.220032	-61.599998	168.00	0.29	0.03	24.75	22.50	13.00	14.50	7.25	7.00	0.75	1.25	0.00	0.00	0.00	0.50	1.50	0.00	0.00	0.00	-0.079102	-0.636719	1.468262	-112.139999	144.550003	4.200000	972.00	-0.30	-0.06
2.32	0.00	0.00	0.25	0.00	0.00	0.00	0.00	0.00	1.00	2.00	1.50	1.25	0.25	2.75	0.25	0.50	0.406250	-0.060547	4.824219	292.950012	654.010010	-103.040001	97.00	0.27	0.02	23.50	21.25	13.00	14.75	8.00	7.75	1.00	2.00	0.00	0.00	0.25	0.50	1.75	0.00	0.00	0.00	-0.010254	-0.184082	1.825684	-66.290001	112.000000	-10.570000	986.00	-0.29	-0.07
2.33	0.00	0.00	0.00	0.00	0.00	0.25	0.00	0.00	0.75	1.25	0.75	0.75	0.00	1.00	0.00	0.50	0.605469	-0.447754	3.053711	284.410004	652.750000	-175.630005	53.00	0.25	0.00	22.25	20.75	13.00	14.50	8.50	8.25	1.00	2.75	0.00	0.00	0.50	0.50	1.50	0.00	0.00	0.00	-0.458984	0.516602	1.510254	-37.660000	65.379997	-3.080000	989.00	-0.28	-0.07
2.34	0.00	0.00	0.00	0.00	0.00	0.25	0.00	0.00	0.25	1.00	0.75	0.00	0.00	0.75	0.00	0.25	0.556152	1.482422	8.672363	153.160004	446.459991	-203.630005	32.00	0.00	0.00	21.75	20.25	12.75	14.50	8.75	8.50	1.00	2.75	0.00	0.25	0.50	0.50	2.00	0.50	0.00	0.00	-0.138672	-0.136719	1.140625	-24.080000	28.630001	5.530000	993.00	-0.27	-0.07
2.35	0.00	0.00	0.00	0.00	0.00	0.25	0.00	0.00	0.25	0.50	0.75	0.25	0.00	0.75	0.00	0.25	2.014648	1.439453	6.339844	-16.309999	99.610001	-124.040001	29.00	0.00	0.00	21.25	20.00	12.75	14.75	8.75	8.75	1.25	3.00	0.00	0.25	0.50	1.00	2.00	0.75	0.00	0.00	-0.158203	0.017578	1.086426	-5.740000	9.450000	2.380000	1006.00	-0.26	-0.07
2.36	0.00	0.00	0.00	0.00	0.00	0.25	0.00	0.00	0.00	0.25	1.00	0.00	0.00	0.25	0.00	0.25	1.373535	1.828613	3.772461	-122.570000	-137.550003	-29.260000	19.00	0.00	0.00	21.00	19.50	12.50	14.50	8.75	8.75	1.25	3.50	0.25	0.25	0.25	0.50	2.00	0.75	0.00	0.00	-0.079102	0.125000	0.978516	1.470000	3.220000	3.710000	996.00	-0.26	-0.07
2.37	0.00	0.00	0.00	0.00	0.00	0.25	0.00	0.00	0.25	0.75	0.75	0.25	0.00	0.50	0.00	0.25	1.242188	1.641113	1.886230	-119.070000	-187.250000	22.469999	30.00	0.00	0.00	19.75	19.00	12.25	14.25	8.50	9.00	1.25	3.50	0.00	0.00	1.00	0.75	2.00	0.75	0.00	0.00	-0.040527	0.012207	0.997559	2.870000	6.230000	3.710000	978.00	-0.26	-0.08
2.38	0.00	0.00	0.00	0.00	0.00	0.00	0.00	0.00	0.00	0.50	0.75	0.00	0.00	0.50	0.00	0.25	1.262207	1.495605	1.556152	-43.959999	-175.419998	39.759998	19.00	0.00	0.00	18.75	18.00	11.75	13.75	8.25	8.75	1.25	3.75	0.25	0.50	0.75	0.75	2.50	1.00	0.00	0.00	-0.046387	0.092285	0.987793	4.410000	10.220000	1.960000	958.00	-0.25	-0.08
2.39	0.00	0.50	0.00	0.25	0.00	0.00	0.00	0.00	0.00	0.25	0.75	0.00	0.00	0.25	0.00	0.25	1.307129	0.979980	2.029297	30.940001	-197.190002	51.450001	21.00	0.00	0.00	17.25	17.00	11.25	13.25	8.00	8.75	1.25	3.75	0.25	0.50	0.75	1.00	2.50	0.75	0.00	0.00	-0.067383	0.074707	1.004395	3.220000	15.610000	1.750000	920.00	-0.24	-0.08
2.40	0.00	0.00	0.00	0.00	0.00	0.25	0.00	0.00	0.00	0.25	0.50	0.00	0.00	0.00	0.00	0.25	1.230469	0.487793	2.290527	56.840000	-260.260010	56.139999	12.00	0.00	0.00	15.50	15.00	10.75	12.75	8.00	8.50	1.25	3.75	0.00	0.50	1.00	0.75	2.75	1.00	0.00	0.00	-0.034180	0.091797	0.962402	0.770000	19.389999	-0.000000	871.00	-0.24	-0.09
2.41	0.00	0.00	0.00	0.00	0.00	0.00	0.00	0.00	0.00	0.25	0.25	0.00	0.00	0.00	0.00	0.00	0.900391	0.202148	2.101074	30.870001	-337.540009	56.209999	5.00	0.00	0.00	13.25	13.75	10.00	12.00	7.50	8.25	1.25	4.00	0.25	0.75	1.00	1.00	2.75	0.75	0.00	0.00	-0.054688	0.076660	0.989746	-3.010000	23.940001	-0.980000	821.00	-0.23	-0.09
2.42	0.00	0.00	0.00	0.00	0.00	0.00	0.00	0.00	0.00	0.00	0.00	0.00	0.00	0.00	0.00	0.25	0.540527	0.120117	1.817383	-14.700000	-399.630005	54.250000	1.00	0.00	0.00	11.25	11.75	9.25	11.00	7.25	7.75	1.25	4.00	0.50	0.50	1.25	1.00	2.75	0.75	0.00	0.00	-0.097168	0.047852	1.018555	-2.660000	26.180000	-1.400000	758.00	-0.21	-0.10
2.43	0.00	0.00	0.00	0.00	0.00	0.00	0.00	0.00	0.00	0.00	0.25	0.00	0.00	0.00	0.00	0.25	0.253418	0.166016	1.596680	-43.610001	-440.160004	50.540001	4.00	0.00	0.00	9.50	9.75	8.25	10.00	6.50	7.25	1.00	3.75	0.25	1.25	1.00	1.25	3.00	1.25	0.00	0.00	-0.067871	0.073730	0.979492	-0.910000	26.670000	-1.260000	689.00	-0.20	-0.10
2.44	0.00	0.00	0.00	0.00	0.00	0.00	0.00	0.00	0.00	0.00	0.00	0.00	0.00	0.00	0.00	0.00	-0.027832	0.221191	1.469727	-44.380001	-466.480011	46.200001	0.00	0.00	0.00	7.50	8.25	7.75	9.00	5.75	6.75	1.25	3.75	0.50	0.75	1.25	1.25	3.00	0.75	0.25	0.00	-0.046875	0.061035	0.969727	-1.470000	29.610001	-0.350000	627.00	-0.18	-0.11
2.45	0.00	0.00	0.25	0.00	0.00	0.00	0.00	0.00	0.25	0.00	0.00	0.00	0.00	0.00	0.00	0.25	-0.255371	0.169922	1.343262	-30.030001	-481.739990	43.470001	7.00	0.00	0.00	6.00	6.75	6.75	8.25	5.25	6.00	1.25	3.75	0.75	1.00	1.50	1.50	3.25	1.00	0.00	0.00	-0.078613	0.049316	0.990723	-2.450000	32.900002	-0.140000	577.00	-0.16	-0.11
2.46	0.00	0.00	0.00	0.00	0.00	0.00	0.00	0.00	0.00	0.00	0.00	0.00	0.00	0.00	0.00	0.25	-0.567383	0.098145	1.315918	-19.600000	-482.929993	47.740002	1.00	0.00	0.00	5.00	5.50	5.75	7.50	4.75	5.25	1.25	3.50	1.00	1.25	1.75	1.50	3.75	1.00	0.25	0.25	-0.075195	0.063965	0.977051	-2.730000	35.490002	-0.910000	536.00	-0.14	-0.11
2.47	0.00	0.00	0.25	0.00	0.00	0.00	0.00	0.00	0.00	0.00	0.00	0.00	0.00	0.00	0.00	0.00	-0.599609	0.158203	1.412598	-28.070000	-477.610016	52.150002	3.00	0.00	0.00	3.75	4.25	4.50	6.25	4.00	4.50	1.50	3.50	1.00	1.25	2.00	1.75	4.00	1.50	0.00	0.25	-0.116699	0.079102	0.994141	-4.830000	36.259998	-2.170000	480.00	-0.10	-0.12
2.48	0.00	0.00	0.00	0.25	0.00	0.00	0.00	0.00	0.00	0.25	0.00	0.00	0.00	0.00	0.00	0.25	-0.553223	0.264160	1.592285	-31.710001	-474.670013	58.590000	7.00	0.00	0.00	2.75	2.50	3.75	5.75	3.50	4.25	1.50	3.50	1.50	1.75	2.00	2.25	4.50	1.75	0.00	0.00	-0.115234	0.103516	0.989746	-7.350000	35.910000	-4.270000	453.00	-0.06	-0.12
2.49	0.00	0.00	0.00	0.00	0.00	0.00	0.00	0.00	0.00	0.00	0.00	0.00	0.00	0.00	0.00	0.25	-0.540527	0.335449	1.786133	-25.900000	-477.330017	67.970001	1.00	0.00	0.00	2.50	2.00	3.00	4.75	3.25	3.25	1.50	3.50	1.75	2.00	2.50	2.25	4.75	2.50	0.25	0.25	-0.156250	0.061523	1.037109	-6.020000	37.029999	-10.360000	437.00	-0.03	-0.11
2.50	0.00	0.00	0.00	0.00	0.00	0.00	0.00	0.00	0.00	0.00	0.00	0.00	0.00	0.25	0.00	0.25	-0.556152	0.311035	1.922852	-14.630000	-481.950012	77.980003	3.00	0.00	0.00	1.75	1.75	2.25	4.00	2.75	2.25	1.75	3.25	2.25	2.75	3.00	2.75	5.00	3.25	0.25	0.25	-0.145996	0.069824	0.994141	-4.900000	39.410000	-14.630000	427.00	0.02	-0.10
2.51	0.00	0.00	0.00	0.00	0.00	0.00	0.00	0.00	0.00	0.25	0.25	0.00	0.00	0.00	0.00	0.00	-0.638672	0.258301	2.148438	-1.120000	-485.239990	83.790001	5.00	0.00	0.00	1.50	1.00	2.00	3.25	2.25	2.00	1.75	3.50	2.75	2.75	3.25	2.75	5.50	4.50	0.25	0.50	-0.166504	0.059082	0.994629	-3.430000	43.470001	-17.780001	428.00	0.06	-0.10
2.52	0.00	0.00	0.00	0.00	0.00	0.00	0.00	0.00	0.00	0.00	0.00	0.00	0.00	0.00	0.00	0.00	-0.787598	0.254883	2.463867	11.060000	-489.720001	85.120003	0.00	0.00	0.00	1.50	1.00	1.50	2.75	2.00	1.25	1.75	3.50	3.75	3.25	4.00	3.75	6.25	5.75	0.50	0.75	-0.177734	0.058594	1.007324	-0.770000	47.950001	-18.900000	464.00	0.10	-0.09
2.53	0.00	0.00	0.00	0.00	0.00	0.00	0.00	0.00	0.00	0.00	0.00	0.00	0.00	0.00	0.00	0.25	-0.981445	0.244629	2.816895	20.299999	-496.649994	83.440002	1.00	0.00	0.00	1.25	0.75	1.50	2.25	1.75	1.25	1.75	3.50	4.75	4.25	5.50	4.25	7.00	7.25	0.50	0.75	-0.175293	0.062012	0.995117	1.400000	53.200001	-18.690001	514.00	0.13	-0.08
2.54	0.00	0.00	0.00	0.00	0.00	0.00	0.00	0.00	0.00	0.00	0.00	0.00	0.00	0.00	0.00	0.00	-1.358887	0.315918	3.020996	23.660000	-502.950012	82.669998	0.00	0.00	0.00	1.25	0.25	0.75	2.00	1.50	1.00	1.75	3.50	6.00	6.00	7.25	5.75	7.50	8.25	0.75	1.25	-0.192383	0.049316	1.008789	4.340000	59.570000	-18.900000	580.00	0.16	-0.07
2.55	0.00	0.00	0.00	0.00	0.00	0.00	0.00	0.00	0.00	0.00	0.00	0.00	0.00	0.00	0.00	0.00	-1.829590	0.312500	3.086914	23.870001	-501.619995	86.660004	0.00	0.00	0.00	0.75	0.25	0.75	1.00	1.25	0.50	1.75	3.50	7.50	7.50	8.00	7.25	8.00	9.75	0.75	1.50	-0.202637	0.057617	1.066895	7.980000	69.300003	-17.570000	633.00	0.19	-0.06
2.56	0.00	0.00	0.00	0.00	0.00	0.00	0.00	0.00	0.00	0.00	0.00	0.00	0.00	0.00	0.00	0.00	-2.382324	0.244141	3.101562	24.360001	-489.510010	93.169998	0.00	0.00	0.00	0.75	0.00	0.75	1.00	1.25	0.50	1.75	3.25	8.00	8.25	8.75	7.75	8.50	11.25	1.00	2.00	-0.216797	0.073242	1.050781	11.900000	81.129997	-16.450001	677.00	0.20	-0.05
2.57	0.00	0.00	0.00	0.00	0.00	0.00	0.00	0.00	0.00	0.00	0.00	0.00	0.00	0.00	0.00	0.00	-3.064941	-0.027344	3.203613	30.799999	-468.160004	96.599998	0.00	0.00	0.00	0.50	0.50	0.25	1.00	0.75	0.50	1.50	3.50	8.75	9.00	9.75	8.50	8.75	13.00	1.50	2.50	-0.265625	0.083984	1.033203	17.010000	92.400002	-17.290001	729.00	0.21	-0.06
2.58	0.00	0.00	0.00	0.00	0.00	0.00	0.00	0.00	0.00	0.00	0.00	0.00	0.00	0.00	0.00	0.00	-3.642090	-0.366211	3.259277	40.810001	-447.860016	91.559998	0.00	0.00	0.00	0.50	0.00	0.25	0.75	0.50	0.00	1.50	3.00	9.50	9.75	10.25	9.00	9.00	14.75	1.75	3.25	-0.256348	0.083496	1.015625	20.719999	102.620003	-17.850000	758.00	0.23	-0.04
2.59	0.00	0.00	0.00	0.00	0.00	0.00	0.00	0.00	0.00	0.00	0.00	0.00	0.00	0.00	0.00	0.25	-4.028320	-0.529785	2.927246	14.840000	-431.339996	83.580002	1.00	0.00	0.00	0.50	0.00	0.00	0.75	0.25	0.00	1.25	3.00	9.75	10.25	11.00	9.50	9.25	16.25	2.50	4.25	-0.276855	0.078125	1.068359	24.500000	113.190002	-18.760000	798.00	0.24	-0.05
2.60	0.00	0.00	0.00	0.00	0.00	0.00	0.00	0.00	0.00	0.00	0.00	0.00	0.00	0.00	0.00	0.00	-4.333496	-0.203125	2.173340	-49.000000	-399.000000	81.340004	0.00	0.00	0.00	0.25	0.00	0.00	0.25	0.00	0.00	1.00	2.75	10.25	11.00	11.75	10.00	9.50	18.00	3.25	5.25	-0.479004	-0.050293	0.584473	35.349998	116.970001	-16.730000	838.00	0.25	-0.04
2.61	0.00	0.00	0.00	0.00	0.00	0.00	0.00	0.00	0.25	0.00	0.00	0.00	0.00	0.00	0.00	0.00	-4.753906	0.399902	1.264160	-110.599998	-344.750000	91.769997	3.00	0.00	0.00	0.25	0.00	0.00	0.00	0.00	0.00	0.75	2.25	10.75	11.50	12.25	10.50	9.50	19.75	3.75	6.00	-0.372559	0.206543	1.169434	31.780001	143.850006	-19.670000	870.00	0.26	-0.04
2.62	0.00	0.00	0.00	0.00	0.00	0.00	0.00	0.00	0.00	0.00	0.00	0.00	0.00	0.00	0.00	0.25	-5.407715	1.076172	-0.164062	-150.570007	-282.660004	89.809998	1.00	0.00	0.00	0.25	0.00	0.00	0.00	0.00	0.00	0.50	1.75	11.25	12.00	12.75	10.75	9.50	21.25	5.00	6.25	-0.324707	0.238281	1.164551	26.740000	172.410004	-28.000000	906.00	0.27	-0.03
2.63	0.00	0.00	0.25	0.00	0.00	0.00	0.00	0.00	0.00	0.00	0.00	0.00	0.00	0.00	0.00	0.00	-7.265625	1.897461	-0.861816	-107.870003	-218.330002	37.029999	3.00	0.00	0.00	0.00	0.00	0.00	0.00	0.00	0.00	0.25	1.50	11.25	12.25	13.00	11.00	9.25	22.25	6.00	6.50	-0.339355	0.180664	1.178711	22.469999	194.320007	-36.259998	922.00	0.28	-0.03
2.64	0.00	0.00	0.00	0.00	0.00	0.00	0.00	0.00	0.00	0.00	0.00	0.00	0.00	0.00	0.00	0.00	-7.089844	1.430664	-2.007812	58.939999	-121.309998	-4.060000	0.00	0.00	0.00	0.00	0.00	0.00	0.00	0.00	0.00	0.00	1.25	11.50	12.50	13.00	11.00	9.00	23.50	6.50	6.75	-0.385742	0.125000	1.161621	17.290001	219.729996	-40.670002	935.00	0.28	-0.03
2.65	0.00	0.00	0.00	0.00	0.00	0.00	0.00	0.00	0.00	0.00	0.00	0.00	0.00	0.00	0.00	0.00	-6.556641	0.172363	-1.392090	172.619995	8.680000	17.010000	0.00	0.00	0.00	0.00	0.00	0.00	0.00	0.00	0.00	0.00	1.00	11.50	12.50	13.00	11.00	8.75	24.00	6.75	7.00	-0.435547	0.097168	1.330566	3.570000	256.480011	-42.910000	937.00	0.28	-0.02
2.66	0.00	0.00	0.00	0.00	0.00	0.00	0.00	0.00	0.25	0.00	0.25	0.00	0.00	0.00	0.00	0.00	-5.697266	-0.645996	-0.200195	123.059998	118.510002	76.230003	6.00	0.00	0.00	0.00	0.00	0.00	0.00	0.00	0.00	0.00	0.50	11.25	12.50	13.00	11.00	8.25	24.25	7.00	6.75	-0.617676	-0.003418	1.299805	-3.780000	292.390015	-40.320000	926.00	0.29	-0.02
2.67	0.00	0.00	0.25	0.25	0.00	0.00	0.00	0.00	0.00	0.00	0.00	0.00	0.00	0.00	0.00	0.00	-4.377441	-0.339355	0.652344	0.070000	176.190002	119.559998	6.00	0.00	0.00	0.00	0.00	0.00	0.00	0.00	0.00	0.00	0.25	10.50	12.25	12.75	10.75	8.00	24.50	7.25	6.25	-0.514648	0.139648	1.448730	-10.570000	325.429993	-36.400002	904.00	0.29	-0.02
2.68	1.25	3.00	1.50	2.50	0.25	0.00	0.00	0.00	0.00	0.00	0.00	0.00	0.00	0.00	0.00	0.00	-0.016113	-0.403809	3.333008	-33.670002	280.209991	31.570000	87.00	-0.34	-0.09	0.50	0.00	0.00	0.00	0.00	0.00	0.00	0.00	10.00	12.00	12.50	10.50	7.50	24.00	7.00	6.00	-0.852539	0.387207	1.556641	-14.560000	414.119995	-44.310001	878.00	0.29	-0.02
2.69	8.25	14.00	3.25	7.00	0.25	0.00	0.00	0.00	0.00	0.00	0.00	0.00	0.00	0.00	0.00	0.25	-0.479492	-0.627930	0.176758	-49.349998	261.519989	-7.840000	331.00	-0.36	-0.08	0.25	0.00	0.00	0.00	0.00	0.00	0.00	0.00	8.75	11.50	11.75	9.75	6.50	23.00	7.00	5.00	-0.945312	0.335938	2.119629	-1.610000	457.450012	-53.830002	816.00	0.29	-0.01
2.70	20.75	26.50	7.25	11.00	0.75	0.25	0.00	0.00	0.00	0.00	0.00	0.00	0.00	0.00	0.00	0.00	-1.011230	-0.807129	2.145508	-13.580000	428.959991	-28.559999	671.00	-0.37	-0.06	0.25	0.00	0.00	0.00	0.00	0.00	0.00	0.00	7.25	10.25	11.00	9.00	5.50	21.50	6.00	3.50	-0.881348	0.506836	3.030273	6.510000	503.160004	-63.490002	727.00	0.29	-0.01
2.71	28.25	32.75	10.50	16.00	1.75	2.00	0.25	0.00	0.00	0.00	0.00	0.00	0.00	0.00	0.00	0.25	-2.196289	0.892578	6.616211	-6.230000	458.779999	-65.309998	933.00	-0.35	-0.06	0.00	0.00	0.00	0.00	0.00	0.00	0.00	0.00	6.00	9.25	9.50	8.00	4.00	18.75	5.00	1.50	-1.522461	0.384277	3.496582	25.549999	555.030029	-67.900002	614.00	0.29	-0.01
2.72	30.50	34.25	13.50	19.00	4.50	4.25	0.25	0.25	0.00	0.00	0.00	0.00	0.00	0.00	0.00	0.00	-1.512695	1.058105	4.701172	-47.950001	334.110016	-52.920002	1093.00	-0.34	-0.06	0.00	0.00	0.00	0.00	0.00	0.00	0.00	0.00	4.50	7.50	7.75	6.25	2.25	14.75	3.25	0.50	-1.299316	0.750000	3.830078	62.160000	600.460022	-68.180000	466.00	0.29	0.00
2.73	29.75	32.50	14.50	19.50	5.75	6.00	0.50	0.75	0.00	0.00	0.25	0.00	0.25	0.00	0.00	0.25	-0.570312	0.311035	2.186035	-97.019997	223.580002	-11.270000	1136.00	-0.32	-0.06	0.00	0.00	0.00	0.00	0.00	0.00	0.00	0.00	2.50	5.50	5.00	4.25	1.50	10.00	1.75	0.00	-0.797852	0.539062	3.823730	133.000000	626.919983	-76.720001	304.00	0.29	0.00
2.74	27.50	30.75	14.75	19.50	6.50	6.75	0.50	1.00	0.00	0.00	0.25	0.00	0.50	0.00	0.00	0.25	-0.290039	-0.522949	1.573242	-105.279999	171.430008	-1.050000	1122.00	-0.32	-0.06	0.00	0.00	0.00	0.00	0.00	0.00	0.00	0.00	1.50	3.75	3.50	2.50	1.25	6.00	0.50	0.00	-0.611816	0.328125	4.338867	200.130005	651.840027	-80.430000	189.00	0.28	-0.00
2.75	26.25	29.25	15.25	19.50	7.50	7.75	0.50	1.50	0.00	0.00	0.25	0.25	0.50	0.00	0.00	0.25	-0.453125	0.025391	1.639648	-81.830002	134.960007	-12.460000	1133.00	-0.31	-0.07	0.00	0.00	0.00	0.00	0.00	0.00	0.25	0.00	1.50	2.75	2.00	1.75	1.00	2.25	0.25	0.00	0.851074	-0.142090	4.847656	207.970001	638.679993	-114.520004	122.00	0.26	-0.00
2.76	25.50	28.25	15.25	19.50	8.00	8.25	0.75	1.75	0.25	0.25	0.25	0.00	0.50	0.00	0.00	0.25	-0.431641	0.270996	1.421875	-71.400002	86.590004	-6.230000	1138.00	-0.30	-0.07	0.00	0.00	0.00	0.00	0.00	0.00	0.25	0.00	0.75	1.75	0.50	1.00	0.25	1.00	0.00	0.00	1.355957	-0.413086	3.280762	147.279999	611.520020	-170.449997	58.00	0.25	0.03
2.77	24.75	27.75	15.25	19.50	8.50	8.50	0.75	2.00	0.50	0.25	0.25	0.25	0.75	0.50	0.00	0.25	-0.323730	-0.213379	1.333008	-44.450001	45.709999	-0.070000	1150.00	-0.29	-0.07	0.00	0.00	0.00	0.00	0.00	0.00	0.25	0.00	0.50	1.00	1.00	0.75	0.50	0.75	0.00	0.00	0.945312	2.232910	8.489258	96.110001	385.279999	-152.460007	50.00	0.00	0.00
2.78	24.25	27.50	15.25	19.50	8.50	9.00	0.75	2.25	0.25	0.50	0.50	0.25	0.75	0.50	0.00	0.25	-0.175781	0.027344	1.061523	-17.780001	25.059999	-2.310000	1154.00	-0.29	-0.07	0.25	0.00	0.00	0.00	0.00	0.00	0.25	0.00	0.25	1.00	1.00	0.75	0.25	0.50	0.00	0.00	2.274902	1.294434	5.914551	4.340000	38.150002	-69.580002	45.00	0.00	0.00
2.79	23.25	26.25	15.25	19.00	8.75	9.00	0.75	2.25	0.75	0.50	0.50	0.00	0.75	0.75	0.00	0.25	-0.138184	0.119629	1.040039	-6.370000	17.360001	-1.050000	1135.00	-0.28	-0.07	0.00	0.00	0.00	0.00	0.00	0.00	0.25	0.00	0.25	1.00	0.75	0.50	0.25	0.25	0.00	0.00	1.333496	1.459961	3.369629	-81.059998	-173.600006	14.280000	35.00	0.00	0.00
2.80	22.50	26.00	14.50	18.50	8.50	9.25	1.00	2.75	0.50	0.50	0.75	0.00	0.75	0.75	0.00	0.25	-0.090820	-0.006836	0.987793	0.280000	15.750000	-0.140000	1122.00	-0.28	-0.07	0.00	0.00	0.00	0.00	0.00	0.00	0.25	0.00	0.25	0.75	0.75	0.50	0.50	0.25	0.00	0.00	1.073242	1.319336	1.806641	-98.000000	-200.199997	66.430000	34.00	0.00	0.00
2.81	20.75	24.50	14.00	18.00	8.25	9.25	1.00	2.75	0.00	0.75	0.75	0.25	1.00	0.75	0.00	0.25	-0.104004	0.108887	0.988770	4.830000	16.590000	-0.840000	1077.00	-0.27	-0.08	0.00	0.00	0.00	0.00	0.00	0.00	0.25	0.00	0.25	0.50	0.75	0.50	0.50	0.25	0.00	0.00	1.236816	1.117188	1.497070	-46.340000	-181.930008	87.220001	32.00	0.00	0.00
2.82	19.25	22.75	13.25	17.00	8.00	9.00	0.75	2.50	0.50	0.50	0.50	0.50	1.00	1.00	0.00	0.25	-0.091797	0.077637	0.965332	4.130000	20.230000	-0.280000	1019.00	-0.27	-0.08	0.00	0.00	0.00	0.00	0.00	0.00	0.25	0.00	0.25	0.50	0.50	0.00	0.25	0.00	0.00	0.00	1.346680	0.694824	2.021484	17.850000	-203.559998	82.529999	20.00	0.00	0.00
2.83	17.25	21.00	12.25	16.00	7.50	8.75	0.75	2.75	0.50	0.50	0.75	0.25	1.00	0.75	0.00	0.25	-0.094727	0.069336	0.966309	2.800000	23.870001	-1.120000	953.00	-0.27	-0.08	0.00	0.00	0.00	0.00	0.00	0.00	0.25	0.00	0.00	0.50	0.50	0.50	0.25	0.00	0.00	0.00	1.281250	0.300293	2.227539	51.170002	-266.350006	63.840000	22.00	0.00	0.00
2.84	14.00	19.00	11.25	14.75	7.25	8.50	0.75	2.75	0.75	0.50	0.75	0.25	1.00	0.75	0.00	0.25	-0.085449	0.099609	0.921387	-0.420000	26.320000	-1.610000	874.00	-0.26	-0.09	0.00	0.00	0.00	0.00	0.00	0.00	0.25	0.00	0.00	0.25	0.25	0.25	0.00	0.00	0.00	0.00	0.982910	0.053711	1.978516	43.049999	-340.829987	46.900002	12.00	0.00	0.00
2.85	12.25	16.25	10.25	13.25	6.50	8.00	0.75	2.50	0.50	0.75	0.75	0.25	1.00	0.75	0.00	0.25	-0.094727	0.060059	0.964844	-3.920000	29.469999	-2.030000	785.00	-0.25	-0.09	0.00	0.00	0.00	0.00	0.00	0.00	0.25	0.00	0.25	0.25	0.25	0.25	0.00	0.00	0.00	0.00	0.617676	-0.030762	1.701172	11.900000	-396.059998	33.950001	15.00	0.00	0.00
2.86	9.75	13.75	9.50	12.00	6.00	7.50	0.75	2.75	0.50	0.75	1.00	0.25	1.25	0.75	0.00	0.25	-0.120605	0.070801	0.966797	-4.480000	30.870001	-2.660000	712.00	-0.24	-0.09	0.00	0.00	0.00	0.00	0.00	0.00	0.25	0.00	0.00	0.25	0.25	0.00	0.25	0.00	0.00	0.00	0.345703	-0.027832	1.556152	-17.219999	-429.239990	22.960001	11.00	0.00	0.00
2.87	8.00	11.50	8.50	10.50	5.75	7.25	0.75	2.50	0.75	1.00	0.75	0.50	1.25	0.50	0.00	0.25	-0.082520	0.067871	0.930664	-5.670000	32.340000	-2.450000	640.00	-0.22	-0.09	0.00	0.00	0.00	0.00	0.00	0.00	0.25	0.00	0.00	0.00	0.00	0.25	0.00	0.00	0.00	0.00	0.131836	0.031738	1.523926	-29.820000	-452.690002	13.930000	6.00	0.00	0.00
2.88	6.50	9.25	7.50	9.25	5.25	6.75	0.75	2.50	0.75	1.00	1.00	0.50	1.25	0.50	0.00	0.25	-0.107910	0.041016	0.956543	-6.580000	34.580002	-2.100000	570.00	-0.21	-0.10	0.00	0.00	0.00	0.00	0.00	0.00	0.25	0.00	0.00	0.00	0.00	0.00	0.25	0.00	0.00	0.00	-0.069824	0.046875	1.435059	-25.549999	-470.330017	8.120000	6.00	0.00	0.00
2.89	5.50	7.50	6.75	8.50	5.00	6.25	1.00	2.75	0.75	1.00	1.50	0.75	1.50	0.50	0.00	0.25	-0.110352	0.081055	0.947754	-7.700000	36.189999	-3.290000	537.00	-0.19	-0.10	0.00	0.00	0.00	0.00	0.00	0.00	0.25	0.00	0.00	0.00	0.00	0.00	0.25	0.00	0.00	0.00	-0.375000	0.006348	1.447754	-9.380000	-481.600006	-2.520000	6.00	0.00	0.00
2.90	4.25	6.25	5.75	7.50	4.75	6.25	1.00	3.00	1.00	1.25	1.50	1.00	1.75	0.75	0.00	0.50	-0.120117	0.049805	0.962891	-9.030000	35.910000	-5.040000	506.00	-0.16	-0.11	0.00	0.00	0.00	0.00	0.00	0.00	0.25	0.00	0.00	0.00	0.00	0.00	0.00	0.00	0.00	0.00	-0.475586	0.038086	1.531738	-1.540000	-481.809998	-2.590000	4.00	0.00	0.00
2.91	3.50	5.25	5.25	6.50	4.25	5.75	1.00	3.25	1.50	1.50	1.75	1.00	2.25	1.25	0.00	0.50	-0.132324	0.033691	0.977539	-9.100000	36.119999	-6.790000	485.00	-0.13	-0.11	0.00	0.00	0.00	0.00	0.00	0.00	0.25	0.00	0.25	0.00	0.00	0.00	0.00	0.00	0.00	0.00	-0.506348	0.041016	1.653320	5.740000	-480.899994	2.870000	7.00	0.00	0.00
2.92	2.75	4.25	4.25	5.50	4.00	5.50	1.25	3.50	1.75	1.50	2.00	1.50	2.25	1.75	0.25	0.50	-0.182129	0.056152	0.953125	-7.840000	35.279999	-9.030000	466.00	-0.09	-0.11	0.00	0.00	0.00	0.00	0.00	0.00	0.25	0.00	0.00	0.00	0.00	0.00	0.00	0.00	0.00	0.00	-0.505371	0.070312	1.794434	11.200000	-479.989990	12.670000	4.00	0.00	0.00
2.93	2.00	3.25	3.75	5.00	3.75	5.25	1.50	3.75	2.50	1.75	2.50	1.75	2.75	2.00	0.25	0.75	-0.157715	0.024902	0.957031	-5.390000	34.790001	-11.130000	469.00	-0.05	-0.10	0.00	0.00	0.00	0.00	0.00	0.00	0.25	0.00	0.00	0.00	0.00	0.00	0.00	0.00	0.00	0.00	-0.524902	0.108398	2.036621	13.860000	-480.549988	24.430000	4.00	0.00	0.00
2.94	1.50	2.50	3.25	4.50	3.50	5.00	1.50	3.75	3.25	2.50	2.75	2.00	3.25	2.75	0.25	0.75	-0.167480	0.028809	0.967773	-2.030000	36.470001	-12.740000	474.00	-0.01	-0.10	0.00	0.00	0.00	0.00	0.00	0.00	0.25	0.00	0.00	0.00	0.00	0.00	0.00	0.00	0.00	0.00	-0.572266	0.127441	2.342285	17.290001	-484.610016	34.650002	4.00	0.00	0.00
2.95	1.25	2.25	2.50	4.25	3.25	4.50	1.75	4.50	3.75	2.75	3.00	2.50	3.75	3.50	0.50	1.00	-0.136719	0.057129	0.977539	1.750000	38.570000	-13.300000	496.00	0.02	-0.10	0.00	0.00	0.00	0.00	0.00	0.00	0.25	0.00	0.00	0.00	0.00	0.00	0.00	0.00	0.00	0.00	-0.701660	0.143066	2.574707	24.639999	-494.480011	41.230000	4.00	0.00	0.00
2.96	1.25	1.75	2.25	3.50	3.00	4.00	2.00	5.00	4.75	3.25	3.75	3.00	5.00	4.50	0.50	1.00	-0.148438	0.057129	0.965820	3.570000	43.049999	-13.580000	535.00	0.05	-0.09	0.00	0.00	0.00	0.00	0.00	0.00	0.25	0.00	0.00	0.00	0.00	0.00	0.00	0.00	0.00	0.00	-0.859375	0.137207	2.742676	36.750000	-504.630005	42.070000	4.00	0.00	0.00
2.97	0.75	1.00	1.75	3.25	2.75	3.75	2.25	5.00	6.75	4.25	5.50	3.75	5.75	5.50	0.75	1.25	-0.202637	0.070801	0.980957	5.040000	50.680000	-14.490000	594.00	0.10	-0.08	0.00	0.00	0.00	0.00	0.00	0.00	0.25	0.00	0.25	0.00	0.00	0.00	0.00	0.00	0.00	0.00	-1.053223	0.171875	2.976074	52.360001	-508.619995	35.770000	7.00	0.00	0.00
2.98	0.75	1.00	1.25	3.00	2.25	3.25	2.25	5.25	7.75	5.50	7.00	4.50	6.50	7.50	1.00	1.75	-0.193848	0.048828	1.000000	7.490000	58.869999	-16.240000	658.00	0.13	-0.07	0.00	0.00	0.00	0.00	0.00	0.00	0.25	0.00	0.00	0.00	0.00	0.00	0.00	0.00	0.00	0.00	-1.460938	0.333496	3.177246	62.439999	-508.339996	25.760000	4.00	0.00	0.00
2.99	0.50	1.00	1.25	2.75	2.00	3.00	2.50	5.25	8.50	7.50	8.00	5.75	6.75	9.00	1.00	2.00	-0.179199	0.025391	1.000000	10.920000	68.739998	-17.990000	721.00	0.15	-0.06	0.00	0.00	0.00	0.00	0.00	0.00	0.25	0.00	0.00	0.00	0.00	0.00	0.00	0.00	0.00	0.00	-2.018066	0.416504	3.185547	74.970001	-500.149994	22.960001	4.00	0.00	0.00
3.00	0.50	0.75	1.00	2.00	1.75	2.25	2.50	5.25	9.25	8.25	8.75	6.75	7.50	10.25	1.50	3.00	-0.273926	0.081055	0.990723	16.100000	79.940002	-19.740000	761.00	0.17	-0.06	0.00	0.00	0.00	0.00	0.00	0.00	0.25	0.00	0.00	0.00	0.00	0.00	0.00	0.00	0.00	0.00	-2.529297	0.371094	3.233398	94.010002	-480.200012	31.360001	4.00	0.00	0.00
3.01	0.25	0.50	1.00	1.50	1.50	2.00	2.25	5.25	10.00	9.00	9.50	7.75	8.00	11.50	1.75	3.75	-0.231934	0.067871	1.027832	19.460001	92.050003	-19.670000	799.00	0.19	-0.06	0.00	0.00	0.00	0.00	0.00	0.00	0.25	0.00	0.00	0.00	0.00	0.00	0.00	0.00	0.00	0.00	-3.045898	0.244629	3.382324	109.620003	-454.580017	51.520000	4.00	0.00	0.00
3.02	0.25	0.50	0.75	1.75	1.00	1.75	2.25	5.25	10.75	9.75	10.50	8.50	8.25	12.75	2.25	4.75	-0.282227	0.088379	1.046387	23.870001	105.489998	-21.770000	850.00	0.20	-0.06	0.00	0.00	0.00	0.00	0.00	0.00	0.25	0.00	0.00	0.00	0.00	0.00	0.00	0.00	0.00	0.00	-3.501953	0.167969	3.423828	87.709999	-434.700012	84.349998	4.00	0.00	0.00
3.03	0.25	0.25	0.25	1.50	1.00	1.00	2.00	5.00	11.50	10.25	11.50	9.00	8.50	14.50	2.75	5.25	-0.273926	0.099609	1.067383	24.710001	118.580002	-23.100000	880.00	0.21	-0.05	0.00	0.00	0.00	0.00	0.00	0.00	0.25	0.00	0.00	0.00	0.25	0.25	0.00	0.00	0.00	0.00	-3.929688	0.426270	2.710938	21.980000	-415.869995	133.490005	9.00	0.00	0.00
3.04	0.00	0.25	0.25	1.50	0.50	0.75	1.75	4.75	12.00	11.00	12.00	9.50	8.50	15.75	4.00	5.75	-0.310547	0.103027	1.142578	27.510000	135.869995	-26.110001	913.00	0.23	-0.05	0.00	0.00	0.00	0.00	0.00	0.00	0.25	0.00	0.00	0.00	0.00	0.00	0.00	0.00	0.00	0.00	-4.556641	0.644531	1.080078	-34.509998	-376.179993	196.000000	4.00	0.00	0.00
3.05	0.00	0.00	0.00	1.00	0.25	0.75	1.25	4.25	12.50	11.25	12.75	10.00	8.50	17.00	4.75	6.00	-0.342285	0.089355	1.160156	32.270000	156.380005	-29.889999	926.00	0.24	-0.05	0.00	0.00	0.00	0.00	0.00	0.00	0.25	0.00	0.00	0.25	0.25	0.25	0.00	0.00	0.00	0.00	-6.627441	0.996094	-0.157715	-48.299999	-308.209991	211.119995	12.00	0.00	0.00
3.06	0.00	0.00	0.00	1.00	0.00	0.50	0.75	3.75	12.75	11.75	13.25	10.25	8.25	18.25	5.50	6.50	-0.297363	0.051758	1.184570	32.200001	181.160004	-30.940001	941.00	0.25	-0.04	0.00	0.00	0.00	0.00	0.00	0.00	0.25	0.00	0.25	0.00	0.25	0.25	0.00	0.00	0.00	0.00	-7.668457	0.864746	-1.444824	43.119999	-220.080002	167.509995	12.00	0.00	0.00
3.07	0.25	0.25	0.00	0.75	0.00	0.25	0.50	3.00	13.00	11.75	13.75	10.50	8.00	19.00	5.75	6.75	-0.376465	0.071777	1.110840	32.130001	235.619995	-29.049999	945.00	0.25	-0.04	0.00	0.00	0.00	0.00	0.00	0.00	0.25	0.00	0.00	0.00	0.25	0.25	0.00	0.00	0.00	0.00	-7.457520	0.069824	-1.533691	170.240005	-99.820000	120.400002	9.00	0.00	0.00
3.08	0.00	0.00	0.00	1.00	0.00	0.00	0.25	2.50	13.00	12.00	13.75	10.25	7.50	19.75	6.00	6.75	-0.376465	0.071777	1.110840	32.130001	235.619995	-29.049999	933.00	0.26	-0.03	0.00	0.00	0.00	0.00	0.00	0.00	0.25	0.00	0.00	0.00	0.25	0.00	0.00	0.00	0.00	0.00	-6.579102	-0.704590	-0.570312	187.389999	17.990000	107.590004	6.00	0.00	0.00
3.09	0.00	0.00	0.00	0.00	0.00	0.00	0.00	1.75	12.50	11.75	13.75	10.25	7.00	20.00	6.25	6.75	-0.449707	0.041016	1.310059	29.610001	275.309998	-28.350000	898.00	0.27	-0.02	0.00	0.00	0.00	0.00	0.00	0.00	0.25	0.00	0.00	0.00	0.25	0.00	0.00	0.00	0.00	0.00	-4.144043	-0.677734	0.424316	28.139999	145.669998	154.910004	6.00	0.00	0.00
3.10	0.00	0.00	0.00	0.00	0.00	0.00	0.00	1.25	12.25	11.75	13.50	10.25	6.25	20.25	6.50	6.75	-0.346191	0.178711	1.587891	24.570000	320.950012	-27.299999	883.00	0.28	-0.02	0.00	0.00	0.00	0.00	0.00	0.00	0.25	0.00	0.00	0.00	0.00	0.25	0.00	0.00	0.00	0.00	-6.527344	0.774902	2.555176	4.620000	195.300003	132.089996	6.00	0.00	0.00
3.11	0.00	0.00	0.00	0.00	0.00	0.00	0.00	1.25	11.50	11.25	13.25	9.75	5.75	20.00	6.50	6.50	-0.706055	0.146973	1.821289	6.930000	409.079987	-34.650002	852.00	0.28	-0.02	1.25	1.25	1.00	1.50	0.00	0.00	0.25	0.00	0.00	0.00	0.00	0.25	0.00	0.00	0.00	0.00	1.936035	-0.635742	-2.852051	48.509998	280.000000	90.510002	58.00	-0.29	-0.05
3.12	0.00	0.00	0.00	0.00	0.00	0.00	0.00	0.50	10.50	10.75	12.50	9.00	5.00	19.75	6.25	6.25	-0.861328	0.403809	2.105957	1.050000	463.959991	-39.060001	794.00	0.29	-0.01	6.50	8.00	2.00	5.00	0.00	0.00	0.25	0.00	0.00	0.00	0.00	0.00	0.25	0.00	0.00	0.00	0.771484	-1.771484	0.738281	-43.049999	263.480011	36.610001	224.00	-0.35	-0.07
3.13	0.00	0.00	0.00	0.00	0.00	0.00	0.00	0.25	9.00	9.75	11.25	8.25	3.75	18.75	6.00	5.50	-0.971680	0.537109	2.717285	30.450001	520.030029	-48.790001	713.00	0.29	-0.00	16.00	16.75	6.25	8.50	0.25	0.00	0.25	0.00	0.00	0.00	0.00	0.00	0.25	0.00	0.00	0.00	-0.476074	-0.948242	1.542969	-28.980000	340.200012	-3.360000	491.00	-0.36	-0.05
3.14	0.00	0.00	0.00	0.00	0.00	0.00	0.00	0.00	7.50	8.25	9.50	6.75	2.50	17.50	5.00	4.50	-1.106934	0.267090	3.266602	50.400002	566.020020	-57.330002	602.00	0.30	0.01	22.25	21.50	8.75	11.25	1.00	1.00	0.25	0.00	0.00	0.00	0.00	0.25	0.50	0.00	0.00	0.00	-1.460449	-0.308594	5.037598	-6.510000	453.809998	-55.860001	682.00	-0.35	-0.05
3.15	0.00	0.00	0.00	0.00	0.00	0.00	0.00	0.00	5.50	6.25	7.75	5.00	1.50	14.75	3.75	3.25	-1.587402	0.540527	3.633301	80.500000	608.510010	-56.000000	467.00	0.30	0.01	25.50	23.50	11.25	13.50	2.75	3.75	0.50	0.25	0.00	0.00	0.00	0.50	1.00	0.00	0.00	0.00	-1.453125	1.087891	5.337891	24.990000	388.010010	-63.349998	850.00	-0.33	-0.05
3.16	0.00	0.00	0.00	0.00	0.00	0.00	0.00	0.00	3.75	3.50	4.75	3.50	1.00	11.25	2.50	2.25	-1.268555	0.826660	4.132324	145.039993	645.820007	-55.720001	315.00	0.31	0.02	25.75	23.50	12.50	14.50	5.50	5.25	0.75	1.00	0.00	0.00	0.25	0.25	1.00	0.00	0.00	0.00	-1.234863	1.245117	3.691406	-61.320000	247.660004	-31.920000	939.00	-0.31	-0.05
3.17	0.00	0.00	0.00	0.00	0.00	0.00	0.00	0.00	2.00	2.50	3.00	1.75	0.50	7.25	1.25	1.00	-0.898438	0.500977	4.606934	219.729996	666.190002	-65.519997	187.00	0.31	0.03	25.00	22.75	12.75	14.50	6.75	6.25	0.75	1.50	0.00	0.00	0.00	0.50	1.25	0.00	0.00	0.00	-0.126953	-0.226074	1.743164	-114.870003	144.970001	-1.820000	962.00	-0.30	-0.06
3.18	0.00	0.00	0.00	0.00	0.00	0.00	0.00	0.00	1.50	2.00	1.75	1.00	0.00	2.75	0.50	0.75	-0.170410	0.016113	4.615723	277.549988	678.580017	-86.379997	102.00	0.29	0.04	24.00	21.75	12.75	14.50	7.50	7.25	0.75	2.00	0.00	0.00	0.00	0.25	1.25	0.00	0.00	0.00	0.023926	-0.471680	1.213379	-83.440002	117.040001	-7.000000	966.00	-0.30	-0.06
3.19	0.00	0.00	0.00	0.00	0.00	0.00	0.00	0.00	0.75	1.00	0.75	0.25	0.00	1.50	0.00	0.50	1.304199	-0.400879	3.831543	286.790009	658.000000	-147.070007	46.00	0.00	0.00	23.00	21.00	12.75	14.25	7.75	8.00	1.00	2.50	0.00	0.00	0.25	0.50	1.50	0.00	0.00	0.00	-0.284668	0.411621	1.515625	-44.799999	88.410004	-10.220000	976.00	-0.29	-0.07
3.20	0.00	0.00	0.00	0.00	0.00	0.00	0.00	0.25	0.50	0.75	0.50	0.25	0.00	1.25	0.00	0.50	-0.014160	1.037109	6.645020	189.770004	503.019989	-211.750000	39.00	0.00	0.00	22.00	20.50	12.50	14.25	8.00	8.25	1.00	2.75	0.00	0.00	0.25	0.50	1.50	0.25	0.00	0.00	-0.316406	0.222168	1.347168	-34.160000	46.830002	2.030000	970.00	-0.28	-0.07
3.21	0.00	0.00	0.25	0.00	0.00	0.00	0.00	0.00	0.50	0.75	0.75	0.00	0.00	0.00	0.00	0.25	2.344238	1.060059	6.533691	23.309999	171.779999	-148.330002	26.00	0.00	0.00	21.50	20.00	12.50	14.50	8.25	8.50	1.00	3.00	0.00	0.00	0.25	0.75	1.75	0.75	0.00	0.00	-0.090820	-0.112793	1.084961	-17.710001	21.559999	3.850000	981.00	-0.27	-0.07
3.22	0.00	0.00	0.00	0.00	0.00	0.00	0.00	0.00	0.25	0.75	0.75	0.00	0.00	0.00	0.00	0.25	1.660156	1.757324	4.128906	-106.889999	-85.120003	-52.080002	20.00	0.00	0.00	20.75	19.50	12.50	14.25	8.00	8.75	1.00	3.25	0.00	0.25	0.25	0.25	2.00	0.75	0.00	0.00	-0.075684	0.180664	0.997559	-3.430000	12.250000	1.400000	969.00	-0.27	-0.08
3.23	0.00	0.00	0.00	0.00	0.00	0.00	0.00	0.00	0.00	0.50	0.50	0.00	0.00	0.00	0.00	0.50	1.544434	1.691406	2.025391	-132.649994	-144.830002	9.660000	13.00	0.00	0.00	20.00	19.00	12.00	14.00	8.00	8.75	1.00	3.50	0.00	0.25	0.50	0.75	2.00	0.75	0.00	0.00	-0.065918	0.063965	1.037109	-2.240000	11.480000	3.360000	960.00	-0.26	-0.08
3.24	0.00	0.00	0.00	0.25	0.00	0.00	0.00	0.00	0.00	0.50	0.50	0.00	0.00	0.25	0.00	0.25	1.570312	1.616699	1.665039	-57.750000	-131.529999	34.509998	17.00	0.00	0.00	18.50	18.00	11.50	13.50	7.75	8.75	1.00	4.00	0.00	0.00	0.50	0.75	2.25	0.75	0.00	0.00	-0.021484	0.049316	0.972656	0.280000	12.740000	1.890000	929.00	-0.26	-0.09
3.25	0.00	0.00	0.00	0.00	0.00	0.00	0.00	0.00	0.00	0.25	0.25	0.25	0.00	0.00	0.00	0.25	1.588379	1.095215	2.290527	25.410000	-158.130005	50.400002	9.00	0.00	0.00	16.75	16.50	11.00	13.25	7.75	8.50	1.00	3.75	0.00	0.25	0.50	1.00	2.50	0.75	0.00	0.00	-0.056641	0.124023	1.000977	-0.000000	17.010000	1.330000	890.00	-0.25	-0.09
3.26	0.00	0.00	0.00	0.25	0.00	0.00	0.00	0.00	0.00	0.25	0.25	0.00	0.00	0.25	0.00	0.25	1.542480	0.507324	2.453613	51.660000	-228.619995	57.400002	11.00	0.00	0.00	15.25	15.00	10.50	12.50	7.50	8.25	1.00	3.75	0.25	0.50	0.75	0.75	2.50	1.00	0.00	0.00	-0.028320	0.142090	0.943848	-3.010000	21.000000	0.770000	849.00	-0.24	-0.09
3.27	0.00	0.00	0.00	0.00	0.00	0.25	0.00	0.00	0.00	0.25	0.25	0.00	0.00	0.25	0.00	0.50	1.203125	0.203125	2.128418	18.410000	-306.179993	57.680000	13.00	0.00	0.00	13.50	13.50	10.00	11.75	7.25	8.00	1.00	3.75	0.00	0.50	0.75	1.00	2.75	1.00	0.00	0.00	-0.043457	0.099121	0.981934	-7.770000	23.660000	-0.840000	799.00	-0.23	-0.09
3.28	0.00	0.00	0.00	0.00	0.00	0.00	0.00	0.00	0.00	0.00	0.25	0.00	0.00	0.00	0.00	0.25	0.852539	0.152832	1.793457	-30.309999	-363.440002	53.060001	4.00	0.00	0.00	11.75	11.75	9.25	11.00	6.75	7.50	1.25	3.75	0.00	0.50	1.00	1.25	2.75	1.25	0.00	0.00	-0.072266	0.061035	0.986328	-5.810000	24.850000	-1.470000	749.00	-0.22	-0.10
3.29	0.00	0.00	0.25	0.00	0.00	0.00	0.25	0.00	0.00	0.00	0.25	0.00	0.00	0.00	0.00	0.00	0.565430	0.199707	1.597656	-51.939999	-401.519989	43.400002	9.00	0.00	0.00	9.50	9.75	8.50	10.00	6.25	7.25	1.00	3.75	0.50	0.75	1.00	1.25	2.75	1.25	0.00	0.00	-0.041504	0.071289	0.978027	-4.480000	25.900000	-1.190000	685.00	-0.20	-0.10
3.30	0.00	0.00	0.00	0.00	0.00	0.00	0.00	0.00	0.00	0.00	0.00	0.00	0.00	0.00	0.00	0.25	0.228027	0.199219	1.508789	-42.209999	-429.519989	31.150000	1.00	0.00	0.00	8.00	8.25	7.75	9.25	5.75	6.75	1.00	3.75	0.50	0.75	1.00	1.25	3.00	1.25	0.00	0.00	-0.045410	0.063477	0.979492	-4.130000	29.120001	-0.980000	630.00	-0.19	-0.11
3.31	0.00	0.00	0.00	0.00	0.00	0.00	0.00	0.00	0.00	0.00	0.25	0.00	0.00	0.00	0.00	0.25	-0.301270	0.142090	1.492188	-16.870001	-451.850006	19.879999	4.00	0.00	0.00	6.50	7.00	6.75	8.50	5.25	6.00	1.00	3.50	0.50	1.00	1.25	1.25	3.25	1.25	0.00	0.00	-0.048340	0.080566	0.978516	-4.270000	31.500000	-1.820000	574.00	-0.17	-0.11
3.32	0.00	0.00	0.25	0.00	0.00	0.00	0.00	0.00	0.00	0.00	0.00	0.00	0.00	0.00	0.00	0.25	-0.500977	0.020508	1.416992	4.970000	-471.380005	11.200000	4.00	0.00	0.00	5.00	5.75	6.00	7.75	5.00	5.50	1.25	3.50	0.50	1.00	1.50	1.25	3.50	1.75	0.00	0.00	-0.091309	0.078125	0.978516	-4.830000	33.110001	-3.360000	535.00	-0.15	-0.11
3.33	0.00	0.00	0.00	0.00	0.00	0.00	0.00	0.00	0.00	0.00	0.00	0.00	0.00	0.00	0.00	0.00	-0.586914	0.075684	1.506348	-3.780000	-471.380005	13.650000	0.00	0.00	0.00	3.75	4.25	5.25	6.50	4.25	5.00	1.25	3.25	0.50	0.75	1.50	1.75	4.00	2.00	0.25	0.25	-0.073242	0.069336	0.989258	-6.300000	33.250000	-5.740000	481.00	-0.12	-0.12
3.34	0.00	0.00	0.00	0.00	0.00	0.00	0.00	0.00	0.00	0.00	0.00	0.00	0.00	0.00	0.00	0.00	-0.601562	0.187988	1.607910	-11.410000	-472.570007	19.600000	0.00	0.00	0.00	3.00	3.00	4.25	5.50	3.50	4.25	1.50	3.25	0.75	1.25	1.75	1.75	4.25	2.75	0.25	0.25	-0.113770	0.089355	0.968262	-7.000000	33.670002	-9.240000	447.00	-0.07	-0.12
3.35	0.00	0.00	0.00	0.00	0.00	0.00	0.00	0.00	0.00	0.00	0.00	0.00	0.00	0.00	0.00	0.00	-0.622070	0.295898	1.727051	-6.930000	-474.670013	28.000000	0.00	0.00	0.00	2.25	2.50	3.50	5.00	3.25	3.25	1.50	3.25	1.25	1.50	2.50	2.00	4.25	3.25	0.25	0.25	-0.120605	0.077637	0.983398	-7.140000	34.230000	-11.480000	431.00	-0.04	-0.11
3.36	0.00	0.00	0.00	0.00	0.00	0.00	0.00	0.00	0.00	0.00	0.00	0.00	0.00	0.00	0.00	0.00	-0.675293	0.360840	1.906738	10.150000	-477.470001	37.099998	0.00	0.00	0.00	2.00	2.00	2.75	4.50	2.75	2.50	1.50	3.50	2.25	2.00	2.50	2.25	5.00	4.25	0.25	0.50	-0.162109	0.083984	0.989258	-5.530000	35.070000	-13.720000	438.00	0.01	-0.10
3.37	0.00	0.00	0.00	0.00	0.00	0.00	0.00	0.00	0.00	0.00	0.00	0.00	0.00	0.00	0.00	0.00	-0.766602	0.424805	2.140137	29.680000	-481.880005	47.180000	0.00	0.00	0.00	1.50	1.50	2.25	3.25	2.50	2.25	1.75	3.25	2.50	2.25	2.75	3.00	5.25	5.25	0.25	0.25	-0.162109	0.067871	0.983887	-4.200000	37.170002	-15.050000	429.00	0.05	-0.09
3.38	0.00	0.00	0.25	0.00	0.00	0.00	0.00	0.00	0.00	0.00	0.00	0.00	0.00	0.00	0.00	0.00	-0.850098	0.454590	2.389648	42.209999	-486.570007	60.480000	3.00	0.00	0.00	1.50	1.00	1.50	3.25	2.25	1.50	1.75	3.25	3.00	2.75	3.00	3.00	5.50	6.50	0.50	0.75	-0.154297	0.056641	0.991211	-1.680000	40.250000	-15.190001	437.00	0.08	-0.08
3.39	0.00	0.00	0.00	0.00	0.00	0.00	0.00	0.00	0.00	0.00	0.00	0.00	0.00	0.00	0.00	0.00	-0.985352	0.505371	2.680664	49.420002	-492.100006	74.830002	0.00	0.00	0.00	1.50	0.75	1.75	2.50	1.75	1.25	1.75	3.00	4.00	3.50	4.00	3.75	6.50	7.50	0.75	0.75	-0.170410	0.054199	1.022461	1.120000	44.869999	-14.630000	477.00	0.12	-0.07
3.40	0.00	0.00	0.00	0.00	0.00	0.00	0.00	0.00	0.00	0.00	0.00	0.00	0.00	0.00	0.00	0.00	-1.263184	0.578125	2.945312	55.650002	-497.000000	87.570000	0.00	0.00	0.00	1.25	0.50	1.25	2.75	1.75	1.00	1.75	3.50	5.50	4.50	5.50	4.50	7.25	8.75	0.75	1.25	-0.139160	0.049316	1.006348	3.780000	51.310001	-13.860000	547.00	0.14	-0.07
3.41	0.00	0.00	0.00	0.00	0.00	0.00	0.00	0.00	0.00	0.00	0.00	0.00	0.00	0.00	0.00	0.00	-1.675293	0.704102	3.131836	61.599998	-498.330017	99.050003	0.00	0.00	0.00	0.75	0.50	0.75	1.50	1.25	0.75	1.75	3.50	6.50	6.00	7.50	5.75	7.75	10.25	0.75	1.50	-0.201660	0.069824	1.038574	7.980000	59.360001	-14.490000	596.00	0.18	-0.06
3.42	0.00	0.00	0.00	0.00	0.00	0.00	0.00	0.00	0.00	0.00	0.00	0.00	0.00	0.00	0.00	0.25	-2.193848	0.741211	3.238281	65.099998	-492.730011	112.139999	1.00	0.00	0.00	0.75	0.25	0.50	1.75	1.00	0.25	1.75	3.75	7.50	7.75	8.25	7.00	8.00	11.50	1.25	2.00	-0.181641	0.050293	1.056641	12.040000	69.370003	-14.350000	662.00	0.20	-0.06
3.43	0.00	0.75	0.00	0.00	0.25	0.00	0.00	0.00	0.00	0.00	0.00	0.00	0.00	0.00	0.00	0.00	-2.797852	0.651855	3.329102	69.720001	-482.230011	127.889999	10.00	0.00	0.00	1.00	0.50	0.50	1.00	0.75	0.25	1.75	3.75	8.25	8.50	9.00	8.00	8.50	13.25	1.50	2.50	-0.215820	0.086426	1.027832	15.890000	80.779999	-14.070000	717.00	0.21	-0.05
3.44	0.00	0.00	0.00	0.00	0.00	0.00	0.00	0.25	0.00	0.00	0.00	0.00	0.00	0.00	0.00	0.00	-3.406250	0.353027	3.247070	73.570000	-468.440002	145.320007	4.00	0.00	0.00	0.75	0.50	0.25	1.00	0.50	0.00	1.50	3.50	9.00	9.25	9.75	8.50	9.00	15.00	2.00	3.50	-0.249512	0.131348	1.019531	20.580000	90.860001	-16.450001	759.00	0.22	-0.05
3.45	0.00	0.00	0.00	0.00	0.00	0.00	0.00	0.00	0.00	0.00	0.00	0.00	0.00	0.00	0.00	0.25	-4.054199	-0.055664	2.957031	78.120003	-447.649994	160.789993	1.00	0.00	0.00	0.50	0.00	0.00	1.25	0.25	0.00	1.50	3.00	9.50	9.75	10.50	9.25	9.50	16.75	2.50	4.50	-0.255371	0.100586	1.056152	24.430000	99.610001	-18.690001	799.00	0.24	-0.05
3.46	0.00	0.00	0.00	0.00	0.00	0.00	0.00	0.00	0.00	0.00	0.00	0.00	0.00	0.00	0.00	0.25	-4.521973	-0.299805	2.370117	39.200001	-411.320007	173.389999	1.00	0.00	0.00	0.25	0.00	0.00	0.75	0.25	0.00	1.25	3.25	10.00	10.50	11.50	9.75	9.75	18.25	3.25	5.25	-0.222168	0.223633	1.222656	27.370001	110.599998	-19.600000	848.00	0.25	-0.05
3.47	0.00	0.00	0.00	0.00	0.00	0.00	0.00	0.00	0.00	0.00	0.00	0.00	0.00	0.00	0.00	0.00	-4.813965	-0.207520	1.480469	-45.709999	-352.239990	200.059998	0.00	0.00	0.00	0.25	0.00	0.00	0.25	0.00	0.00	1.00	2.75	10.50	11.00	11.75	10.50	9.75	19.75	4.00	6.25	-0.234863	0.087402	1.223145	31.920000	127.540001	-17.430000	877.00	0.26	-0.04
3.48	0.00	0.00	0.00	0.00	0.00	0.00	0.00	0.00	0.00	0.00	0.00	0.00	0.00	0.00	0.00	0.00	-5.316895	0.188965	-0.112793	-144.410004	-284.760010	219.240005	0.00	0.00	0.00	0.25	0.00	0.00	0.00	0.00	0.00	0.75	2.50	11.00	11.25	12.25	10.75	9.75	21.00	5.25	6.75	-0.249023	0.140137	1.275879	32.900002	150.779999	-20.090000	910.00	0.26	-0.04
3.49	0.00	0.00	0.00	0.00	0.00	0.00	0.00	0.00	0.00	0.00	0.25	0.00	0.00	0.00	0.00	0.00	-7.712891	1.261719	-0.808105	-190.889999	-224.070007	143.009995	3.00	0.00	0.00	0.25	0.00	0.00	0.00	0.00	0.00	0.50	2.00	11.00	11.75	12.75	11.00	9.75	22.50	6.00	7.00	-0.409180	0.183105	0.990234	27.090000	199.850006	-34.509998	934.00	0.27	-0.04
3.50	0.00	0.00	0.00	0.00	0.00	0.00	0.00	0.00	0.00	0.00	0.00	0.00	0.00	0.00	0.00	0.25	-7.671387	1.362305	-2.202148	-50.189999	-130.479996	32.480000	1.00	0.00	0.00	0.25	0.00	0.00	0.00	0.00	0.00	0.00	1.50	11.25	12.00	13.00	11.00	9.50	23.25	6.50	7.25	-0.406738	0.132812	1.175781	24.850000	226.100006	-39.410000	938.00	0.28	-0.03
3.51	0.00	0.00	0.00	0.00	0.00	0.00	0.00	0.00	0.00	0.00	0.00	0.00	0.00	0.00	0.00	0.00	-6.955566	0.086914	-1.781250	127.889999	5.180000	-15.470000	0.00	0.00	0.00	0.00	0.00	0.00	0.00	0.00	0.00	0.00	1.50	11.00	12.00	12.75	11.25	9.25	24.25	7.00	7.50	-0.432129	0.091309	1.356934	11.690000	270.339996	-40.599998	945.00	0.28	-0.03
3.52	0.00	0.00	0.25	0.50	0.00	0.00	0.00	0.00	0.00	0.00	0.00	0.00	0.00	0.00	0.00	0.00	-5.887207	-0.955078	-0.478027	128.380005	125.580002	1.680000	8.00	0.00	0.00	0.25	0.00	0.00	0.00	0.00	0.00	0.00	0.75	10.75	12.00	12.75	11.00	9.00	24.50	7.50	7.50	-0.531250	0.136719	1.468750	5.740000	306.670013	-38.009998	936.00	0.28	-0.03
3.53	0.75	1.75	1.25	2.00	0.25	0.00	0.00	0.00	0.00	0.00	0.00	0.00	0.00	0.00	0.00	0.00	0.215332	0.739258	-3.083008	-58.240002	339.989990	7.910000	63.00	-0.32	-0.09	0.00	0.00	0.00	0.00	0.00	0.00	0.00	0.50	10.00	11.75	12.50	11.00	8.50	24.50	7.50	7.25	-0.383301	0.278809	1.582520	-0.910000	362.459991	-42.770000	908.00	0.29	-0.03
3.54	5.75	9.50	2.75	4.75	0.25	0.00	0.00	0.00	0.00	0.00	0.00	0.00	0.00	0.00	0.00	0.25	0.788574	-1.041992	1.992676	-46.970001	322.000000	14.980000	234.00	-0.36	-0.07	0.00	0.00	0.00	0.00	0.00	0.00	0.00	0.50	9.25	11.50	12.25	10.50	8.00	24.25	7.25	6.75	-0.713867	0.062500	2.225098	-12.250000	393.890015	-47.389999	876.00	0.29	-0.03
3.55	18.75	24.00	6.75	9.25	0.50	0.00	0.00	0.00	0.00	0.00	0.00	0.00	0.00	0.00	0.00	0.00	-1.118652	-0.855469	1.458496	3.640000	359.029999	18.129999	597.00	-0.37	-0.05	0.00	0.00	0.00	0.00	0.00	0.00	0.00	0.00	8.00	10.75	11.50	10.00	7.25	23.25	7.00	5.75	-0.987305	0.691406	2.035156	-3.850000	450.170013	-56.560001	808.00	0.29	-0.02
3.56	26.50	31.25	9.50	14.75	1.50	1.00	0.25	0.00	0.00	0.00	0.00	0.00	0.00	0.00	0.00	0.25	-1.688965	-0.156250	5.261230	11.830000	493.429993	-29.960001	862.00	-0.36	-0.05	0.25	0.00	0.00	0.00	0.00	0.00	0.00	0.00	6.75	9.75	10.50	9.00	5.75	21.25	6.25	4.00	-0.895996	0.458984	3.459473	10.850000	508.059998	-72.239998	716.00	0.29	-0.02
3.57	29.25	33.00	13.00	18.75	3.00	4.00	0.25	0.25	0.00	0.00	0.00	0.00	0.00	0.00	0.00	0.25	-1.870117	0.632812	6.188477	14.280000	400.959991	-41.930000	1043.00	-0.34	-0.06	0.25	0.00	0.00	0.00	0.00	0.00	0.00	0.00	5.25	8.25	8.75	7.75	4.50	18.50	5.00	2.00	-1.360352	0.716797	3.174805	20.160000	565.320007	-81.129997	591.00	0.29	-0.01
3.58	28.75	32.50	14.50	19.75	5.50	6.25	0.50	0.50	0.00	0.00	0.25	0.00	0.00	0.00	0.00	0.25	-0.982910	0.893555	3.195801	-52.849998	250.880005	-21.840000	1123.00	-0.33	-0.06	0.00	0.00	0.00	0.00	0.00	0.00	0.00	0.00	3.75	6.25	7.00	5.75	2.75	14.25	3.25	0.75	-1.549805	1.012695	4.348633	62.930000	611.869995	-86.099998	432.00	0.29	-0.01
3.59	26.75	30.00	14.75	19.25	6.50	7.25	0.50	1.25	0.00	0.00	0.25	0.00	0.25	0.00	0.00	0.25	-0.175781	-0.220215	1.358887	-94.989998	170.169998	0.140000	1112.00	-0.32	-0.07	0.00	0.00	0.00	0.00	0.00	0.00	0.00	0.00	1.75	3.50	4.00	3.50	1.75	9.25	1.50	0.00	-0.903809	0.802734	4.045898	144.830002	643.159973	-97.090004	248.00	0.30	-0.01
3.60	24.50	28.00	14.75	19.25	7.25	8.00	0.75	1.50	0.25	0.25	0.50	0.00	0.50	0.00	0.00	0.25	-0.372559	-0.327637	1.498047	-75.110001	142.449997	-5.040000	1105.00	-0.30	-0.07	0.00	0.00	0.00	0.00	0.00	0.00	0.00	0.00	1.50	2.50	2.75	2.50	1.25	5.00	0.50	0.00	-0.592285	0.687988	4.858398	238.210007	665.979980	-106.190002	160.00	0.28	-0.01
3.61	23.75	27.25	15.00	19.25	8.00	8.75	0.75	2.00	0.50	0.00	0.25	0.25	0.50	0.25	0.00	0.25	-0.477539	0.438965	1.330078	-55.580002	88.900002	-7.840000	1120.00	-0.29	-0.07	0.00	0.00	0.00	0.00	0.00	0.00	0.25	0.00	0.75	1.25	1.25	1.25	0.75	1.75	0.25	0.00	1.391113	-0.075684	5.418457	270.690002	651.140015	-147.979996	77.00	0.26	-0.02
3.62	22.75	26.75	15.25	19.75	8.25	9.25	0.75	2.25	0.25	0.50	0.50	0.25	0.50	0.25	0.00	0.25	-0.289551	0.141602	1.228516	-39.689999	45.360001	0.210000	1130.00	-0.29	-0.07	0.00	0.00	0.00	0.00	0.00	0.00	0.25	0.00	0.25	1.00	1.00	0.75	1.00	1.00	0.00	0.00	0.849609	-0.401855	3.419922	210.419998	602.419983	-222.320007	53.00	0.24	-0.07
3.63	22.50	26.50	15.00	19.50	8.25	9.25	0.75	2.50	0.75	0.50	0.50	0.00	0.75	0.75	0.00	0.25	-0.136230	-0.029785	1.059082	-18.620001	23.520000	0.070000	1133.00	-0.28	-0.07	0.00	0.00	0.00	0.00	0.00	0.00	0.25	0.25	0.25	0.75	0.75	0.75	0.50	0.50	0.00	0.00	1.861816	2.096680	7.866211	111.440002	307.160004	-211.050003	43.00	0.00	0.00
3.64	22.00	26.00	14.75	19.25	8.25	9.50	1.00	2.50	0.75	0.50	0.50	0.25	1.00	0.50	0.00	0.25	-0.149414	0.171875	1.017578	-4.830000	13.720000	-1.330000	1127.00	-0.28	-0.07	0.00	0.00	0.00	0.00	0.00	0.00	0.25	0.00	0.25	0.50	1.00	0.50	0.75	0.50	0.00	0.00	2.104004	1.343750	5.326660	12.320000	-18.969999	-128.240005	39.00	0.00	0.00
3.65	21.50	25.25	14.75	19.00	8.25	9.75	1.00	2.50	0.50	0.50	0.75	0.25	0.75	0.50	0.00	0.25	-0.071289	0.023438	0.970215	-1.540000	13.650000	-0.070000	1112.00	-0.28	-0.08	0.00	0.00	0.00	0.00	0.00	0.00	0.25	0.00	0.00	0.50	0.75	0.50	0.25	0.50	0.00	0.00	1.504883	1.686035	2.599121	-50.820000	-160.160004	-48.650002	29.00	0.00	0.00
3.66	19.50	24.25	14.00	18.25	8.00	9.75	1.00	2.75	0.50	0.50	0.75	0.25	1.00	0.75	0.00	0.25	-0.102539	0.062500	0.980957	0.910000	16.450001	-2.310000	1071.00	-0.27	-0.08	0.00	0.00	0.00	0.00	0.00	0.00	0.25	0.00	0.00	0.25	0.75	0.50	0.25	0.50	0.00	0.00	1.411133	1.451660	1.332031	-40.810001	-155.119995	9.660000	26.00	0.00	0.00
3.67	18.25	22.75	13.25	17.25	7.75	9.25	0.75	2.50	0.50	0.50	0.50	0.25	1.00	0.75	0.00	0.25	-0.086914	0.118164	0.952148	-0.280000	20.090000	-2.590000	1007.00	-0.27	-0.08	0.00	0.00	0.00	0.00	0.00	0.00	0.25	0.00	0.00	0.00	0.50	0.25	0.50	0.25	0.00	0.00	1.530273	1.250488	1.760742	11.830000	-141.750000	44.029999	18.00	0.00	0.00
3.68	16.25	20.75	12.25	16.25	7.50	9.25	1.00	2.50	0.50	0.75	1.00	0.50	1.00	0.75	0.00	0.00	-0.068359	0.050293	0.954590	-3.500000	25.549999	-3.080000	955.00	-0.26	-0.08	0.00	0.00	0.00	0.00	0.00	0.00	0.25	0.00	0.00	0.25	0.50	0.25	0.25	0.00	0.00	0.00	1.415527	0.437988	2.281250	74.970001	-267.399994	62.510002	16.00	0.00	0.00
