# time	left pressure 1[N/cm²]	left pressure 2[N/cm²]	left pressure 3[N/cm²]	left pressure 4[N/cm²]	left pressure 5[N/cm²]	left pressure 6[N/cm²]	left pressure 7[N/cm²]	left pressure 8[N/cm²]	left pressure 9[N/cm²]	left pressure 10[N/cm²]	left pressure 11[N/cm²]	left pressure 12[N/cm²]	left pressure 13[N/cm²]	left pressure 14[N/cm²]	left pressure 15[N/cm²]	left pressure 16[N/cm²]	left acceleration X[g]	left acceleration Y[g]	left acceleration Z[g]	left angular X[dps]	left angular Y[dps]	left angular Z[dps]	left total force[N]	left center of pressure X[%]	left center of pressure Y[%]	right pressure 1[N/cm²]	right pressure 2[N/cm²]	right pressure 3[N/cm²]	right pressure 4[N/cm²]	right pressure 5[N/cm²]	right pressure 6[N/cm²]	right pressure 7[N/cm²]	right pressure 8[N/cm²]	right pressure 9[N/cm²]	right pressure 10[N/cm²]	right pressure 11[N/cm²]	right pressure 12[N/cm²]	right pressure 13[N/cm²]	right pressure 14[N/cm²]	right pressure 15[N/cm²]	right pressure 16[N/cm²]	right acceleration X[g]	right acceleration Y[g]	right acceleration Z[g]	right angular X[dps]	right angular Y[dps]	right angular Z[dps]	right total force[N]	right center of pressure X[%]	right center of pressure Y[%]
0.00																										2.25	3.50	2.50	4.25	1.00	0.75	0.25	0.25	0.50	1.25	1.00	0.25	0.50	0.75	0.00	0.00	-0.155273	0.127441	0.969238	1.120000	-3.080000	3.290000	200.00	-0.17	-0.07
0.01																										2.50	3.75	2.25	4.25	1.00	0.50	0.25	0.50	0.50	1.00	1.00	0.00	0.50	0.75	0.00	0.00	-0.161621	0.126465	0.972168	0.980000	-2.660000	3.150000	198.00	-0.19	-0.07
0.02	2.25	5.25	2.25	3.50	1.50	0.50	1.25	0.25	1.50	5.25	5.50	3.50	0.50	3.75	0.00	3.50	-0.229492	0.082031	0.944824	3.990000	11.900000	-0.910000	404.00	0.03	-0.05	3.00	4.00	2.50	3.75	0.75	0.75	0.25	0.25	0.25	1.00	1.00	0.00	0.50	0.75	0.00	0.00	-0.153320	0.129883	0.969727	1.120000	-2.380000	3.220000	196.00	-0.20	-0.06
0.03	1.75	5.00	2.25	3.00	1.50	0.75	1.50	0.25	1.50	5.25	5.75	3.50	0.50	3.00	0.00	3.50	-0.225098	0.087891	0.945801	4.690000	11.130000	-0.700000	394.00	0.03	-0.05	2.75	3.75	2.50	4.00	1.00	0.75	0.50	0.50	0.25	1.25	1.00	0.25	0.00	0.75	0.00	0.00	-0.153809	0.125977	0.974609	0.770000	-2.240000	3.010000	205.00	-0.19	-0.06
0.04	1.75	4.25	2.25	2.75	1.50	0.50	1.25	0.25	1.25	5.00	5.75	3.50	0.50	3.25	0.00	3.50	-0.227051	0.088379	0.945801	5.670000	10.220000	-0.630000	374.00	0.04	-0.05	2.50	4.25	2.50	4.25	1.00	0.50	0.25	0.50	0.50	1.00	1.00	0.00	0.50	0.50	0.00	0.00	-0.158691	0.131836	0.971680	-0.000000	-2.100000	3.080000	203.00	-0.20	-0.07
0.05	2.00	3.50	1.75	2.50	1.50	0.50	1.25	0.25	1.25	5.00	5.75	3.75	0.50	3.00	0.00	3.50	-0.232422	0.091309	0.947754	6.300000	9.380000	-0.490000	362.00	0.06	-0.05	2.25	3.75	2.50	4.50	1.00	0.75	0.25	0.50	0.25	1.25	1.00	0.00	0.00	0.50	0.00	0.00	-0.154785	0.134277	0.964844	0.070000	-2.310000	2.870000	197.00	-0.20	-0.07
0.06	1.25	3.50	1.75	2.25	1.25	0.50	1.25	0.25	1.25	5.25	5.50	3.50	0.50	2.50	0.00	3.50	-0.230469	0.093262	0.948242	6.790000	8.680000	-0.490000	342.00	0.07	-0.06	2.50	4.25	2.50	4.50	1.00	0.75	0.25	0.50	0.50	1.25	1.00	0.00	0.00	0.50	0.00	0.00	-0.164062	0.133789	0.968750	-0.140000	-2.660000	2.870000	207.00	-0.20	-0.07
0.07	1.00	3.25	1.75	2.25	1.25	0.50	1.25	0.50	1.00	5.00	5.75	3.75	0.75	2.50	0.00	3.50	-0.235352	0.097656	0.944336	6.720000	8.190000	-0.490000	342.00	0.07	-0.07	2.75	4.25	2.50	4.50	0.75	0.50	0.25	0.50	0.25	1.25	1.00	0.00	0.50	0.50	0.00	0.00	-0.156250	0.131348	0.967773	-1.190000	-3.080000	2.730000	205.00	-0.21	-0.08
0.08	1.25	3.00	1.50	2.00	1.25	0.50	1.25	0.25	1.00	5.00	5.50	3.50	0.50	2.50	0.00	3.75	-0.232422	0.096680	0.950684	6.230000	7.630000	-0.490000	327.00	0.08	-0.06	2.25	3.75	2.25	4.25	0.75	0.50	0.25	0.50	0.00	0.75	0.75	0.00	0.25	0.75	0.00	0.00	-0.159180	0.129883	0.966797	-2.450000	-3.360000	2.660000	179.00	-0.22	-0.08
0.09	1.25	2.50	1.50	2.25	1.25	0.50	1.25	0.25	0.50	4.75	5.75	3.75	0.75	2.25	0.00	3.75	-0.240234	0.093750	0.943848	6.090000	7.560000	-0.280000	321.00	0.08	-0.07	3.00	4.25	2.50	4.75	1.00	1.00	0.25	0.50	0.25	1.50	0.75	0.00	0.25	0.75	0.00	0.00	-0.153809	0.125000	0.958008	-3.360000	-3.780000	2.520000	219.00	-0.20	-0.07
0.10	0.75	2.75	1.50	2.25	1.25	0.50	1.25	0.50	0.75	5.00	5.75	3.75	0.75	2.50	0.00	3.75	-0.229004	0.095215	0.944336	5.460000	7.420000	-0.210000	330.00	0.08	-0.07	2.75	4.00	2.75	4.50	1.00	0.50	0.50	0.25	0.50	1.00	1.00	0.00	0.25	0.50	0.00	0.00	-0.159668	0.128418	0.966797	-3.990000	-3.990000	2.450000	207.00	-0.20	-0.05
0.11	1.00	3.00	1.25	2.00	1.00	0.50	1.25	0.50	0.50	4.75	5.75	3.75	0.50	2.25	0.00	3.50	-0.226074	0.097656	0.938965	4.060000	7.140000	-0.350000	315.00	0.08	-0.08	2.75	4.00	2.50	4.25	0.75	0.50	0.25	0.50	0.25	1.00	0.75	0.00	0.25	0.50	0.00	0.00	-0.161621	0.124512	0.966797	-3.780000	-3.920000	2.380000	193.00	-0.22	-0.07
0.12	1.25	2.50	1.50	2.00	1.25	0.50	1.00	0.25	0.75	5.00	5.75	3.75	0.50	2.00	0.00	3.50	-0.221680	0.108887	0.946777	3.010000	6.370000	-0.630000	315.00	0.08	-0.07	2.75	4.25	2.50	4.50	1.00	0.75	0.50	0.50	0.25	1.25	0.50	0.00	0.00	0.75	0.00	0.00	-0.161133	0.123047	0.970215	-3.500000	-3.920000	2.310000	207.00	-0.21	-0.06
0.13	1.00	2.75	1.25	2.00	1.25	0.50	1.25	0.25	0.75	4.75	5.50	3.75	0.75	2.25	0.00	3.50	-0.229492	0.098633	0.944336	2.170000	6.020000	-0.840000	315.00	0.08	-0.07	3.00	4.25	2.50	4.50	1.00	0.50	0.25	0.25	0.00	1.00	1.00	0.00	0.25	0.75	0.00	0.00	-0.153809	0.122559	0.970703	-3.570000	-3.990000	2.310000	201.00	-0.22	-0.07
0.14	1.00	3.25	1.50	1.75	1.25	0.50	1.25	0.50	0.50	4.75	5.75	3.75	0.50	2.00	0.00	3.75	-0.237305	0.102539	0.949707	1.470000	6.230000	-0.910000	320.00	0.07	-0.08	3.00	5.00	2.50	3.75	1.00	0.75	0.25	0.25	0.25	1.00	1.00	0.00	0.50	0.75	0.00	0.00	-0.157227	0.129395	0.967773	-3.640000	-3.850000	2.240000	208.00	-0.21	-0.07
0.15	1.00	3.00	1.25	2.00	1.25	0.50	1.00	0.50	0.25	5.00	5.50	3.50	0.50	1.50	0.00	3.75	-0.226562	0.106445	0.954590	0.980000	6.370000	-0.910000	303.00	0.07	-0.09	2.75	4.50	2.75	4.50	1.00	0.75	0.25	0.50	0.25	1.25	1.25	0.00	0.50	0.50	0.00	0.00	-0.159180	0.126465	0.975098	-3.710000	-3.920000	2.170000	218.00	-0.20	-0.08
0.16	1.00	2.75	1.50	2.00	1.25	0.50	1.25	0.25	0.50	4.75	5.75	3.75	0.50	1.75	0.00	3.75	-0.229980	0.104980	0.940430	0.490000	6.440000	-0.980000	312.00	0.07	-0.08	3.25	4.50	2.50	5.00	0.75	0.75	0.25	0.50	0.00	0.75	1.00	0.00	0.25	0.50	0.00	0.00	-0.159668	0.122559	0.964844	-3.500000	-3.640000	2.310000	210.00	-0.24	-0.08
0.17	1.25	2.75	1.50	1.75	1.00	0.75	1.00	0.50	0.50	4.75	5.75	3.50	0.50	2.00	0.00	3.75	-0.234375	0.098633	0.948730	0.070000	6.440000	-1.050000	311.00	0.07	-0.08	2.75	4.25	2.75	4.75	1.00	0.75	0.25	0.25	0.00	1.00	0.75	0.00	0.25	0.75	0.00	0.25	-0.157227	0.125488	0.967285	-3.290000	-3.430000	2.310000	205.00	-0.22	-0.07
0.18	1.00	2.50	1.50	2.00	1.25	0.50	1.00	0.50	0.25	4.75	6.00	3.75	0.75	1.75	0.00	3.75	-0.230957	0.100098	0.944824	0.140000	6.370000	-0.980000	311.00	0.08	-0.09	2.75	4.50	2.75	4.50	1.00	0.50	0.50	0.50	0.50	1.25	1.00	0.00	0.50	0.75	0.00	0.00	-0.162109	0.130371	0.971191	-3.080000	-3.290000	2.380000	222.00	-0.19	-0.06
0.19	0.75	2.75	1.50	2.25	1.25	0.75	1.00	0.25	0.50	4.75	6.00	3.75	0.50	2.00	0.00	3.75	-0.229004	0.102539	0.946777	0.210000	6.230000	-0.910000	316.00	0.08	-0.08	3.00	4.50	2.75	4.50	0.75	0.75	0.25	0.25	0.25	1.00	0.75	0.00	0.25	0.75	0.00	0.00	-0.160156	0.125977	0.973633	-2.800000	-3.080000	2.660000	207.00	-0.22	-0.06
0.20	0.50	2.50	1.25	1.75	1.00	0.50	1.25	0.50	0.50	4.50	5.75	3.50	0.50	1.75	0.00	3.75	-0.225098	0.104492	0.944336	-0.000000	5.530000	-0.700000	295.00	0.09	-0.08	2.50	4.50	2.50	4.75	0.75	0.75	0.25	0.50	0.75	1.00	1.00	0.00	0.25	0.75	0.00	0.00	-0.162109	0.125000	0.966797	-2.660000	-2.940000	2.730000	214.00	-0.19	-0.07
0.21	1.00	2.75	1.50	2.00	1.25	0.75	1.25	0.25	0.50	4.50	6.25	3.50	0.50	1.75	0.00	3.50	-0.229492	0.101562	0.946777	-0.350000	5.530000	-0.910000	313.00	0.07	-0.08	2.75	4.00	2.50	4.25	0.75	0.50	0.50	0.25	0.50	1.25	0.75	0.00	0.00	0.75	0.00	0.25	-0.162598	0.119629	0.970703	-3.010000	-2.870000	2.660000	200.00	-0.20	-0.05
0.22	1.00	2.75	1.50	2.00	1.25	0.50	1.25	0.50	0.25	4.75	5.75	3.75	0.75	1.75	0.00	3.75	-0.223633	0.107422	0.946777	-0.910000	5.740000	-0.980000	314.00	0.07	-0.09	3.00	4.25	2.50	4.75	1.00	0.75	0.25	0.25	0.25	1.00	1.00	0.00	0.25	0.75	0.00	0.00	-0.157715	0.123047	0.977051	-3.150000	-2.940000	2.520000	210.00	-0.21	-0.07
0.23	1.00	3.00	1.50	2.00	1.00	0.50	1.00	0.50	0.50	4.75	6.00	3.75	0.75	1.75	0.00	3.75	-0.225586	0.105469	0.942871	-1.260000	5.390000	-0.980000	316.00	0.07	-0.09	2.75	4.50	2.25	4.25	0.75	0.50	0.50	0.50	0.50	1.00	0.75	0.00	0.50	0.75	0.00	0.00	-0.154297	0.126953	0.965332	-3.290000	-2.660000	2.520000	206.00	-0.20	-0.07
0.24	1.00	2.75	1.50	2.00	1.25	0.25	1.25	0.25	0.50	4.75	5.75	3.75	0.50	2.00	0.00	3.75	-0.228027	0.101074	0.940918	-1.540000	5.390000	-1.120000	311.00	0.08	-0.07	2.50	4.25	2.50	4.75	1.00	0.75	0.25	0.25	0.25	1.25	1.00	0.00	0.25	0.75	0.00	0.00	-0.156738	0.125488	0.966309	-3.500000	-2.660000	2.450000	207.00	-0.20	-0.07
0.25	1.00	2.75	1.50	2.00	1.25	0.75	1.25	0.50	0.50	4.75	6.50	3.75	0.50	2.00	0.00	4.00	-0.231934	0.100098	0.951660	-1.610000	5.600000	-1.120000	330.00	0.08	-0.08	2.50	4.00	2.50	4.50	0.75	0.75	0.50	0.25	0.25	1.25	1.00	0.00	0.50	0.75	0.00	0.00	-0.159668	0.127441	0.972168	-3.640000	-2.800000	2.310000	205.00	-0.19	-0.07
0.26	1.25	2.50	1.25	2.00	1.25	0.50	1.25	0.50	0.50	4.50	6.50	3.50	0.75	1.75	0.00	3.75	-0.228516	0.103516	0.944824	-1.400000	5.740000	-1.120000	318.00	0.08	-0.08	2.75	4.00	2.50	4.50	1.00	0.50	0.50	0.25	0.50	1.00	0.75	0.00	0.25	0.75	0.00	0.00	-0.157715	0.121094	0.965332	-3.780000	-2.870000	2.310000	204.00	-0.20	-0.05
0.27	1.00	3.00	1.50	2.00	1.25	0.75	1.25	0.50	0.50	4.75	6.25	3.75	0.50	2.00	0.00	3.75	-0.224121	0.106445	0.945312	-0.910000	5.880000	-1.050000	328.00	0.07	-0.08	2.50	4.00	2.25	4.50	1.00	0.75	0.25	0.25	0.50	1.00	1.00	0.00	0.25	1.00	0.00	0.25	-0.162109	0.128906	0.967285	-3.920000	-2.800000	2.240000	203.00	-0.19	-0.06
0.28	1.00	2.50	1.25	1.75	1.25	0.50	1.25	0.25	0.75	4.50	6.50	3.75	0.75	2.00	0.00	3.75	-0.229004	0.105957	0.949707	-0.840000	5.670000	-1.050000	317.00	0.09	-0.07	2.75	4.25	2.50	4.25	1.00	0.50	0.25	0.25	0.25	1.25	0.75	0.00	0.00	0.75	0.00	0.00	-0.162109	0.126953	0.975098	-3.920000	-2.870000	2.170000	197.00	-0.21	-0.06
0.29	1.25	3.00	1.25	1.75	1.25	0.50	1.25	0.50	0.75	4.50	6.25	3.50	0.75	2.25	0.00	3.75	-0.227051	0.103516	0.949707	-1.050000	5.740000	-1.330000	325.00	0.08	-0.07	2.75	4.00	2.00	4.00	0.75	0.25	0.25	0.25	0.50	1.25	1.00	0.00	0.25	0.50	0.00	0.00	-0.158691	0.124023	0.965820	-3.920000	-3.010000	2.240000	186.00	-0.20	-0.06
0.30	0.75	2.50	1.50	1.75	1.25	0.75	1.00	0.50	0.75	4.75	6.50	3.75	0.50	2.00	0.00	3.75	-0.231445	0.100586	0.948730	-1.260000	5.880000	-1.470000	320.00	0.09	-0.08	2.75	3.75	2.50	4.50	0.75	0.50	0.50	0.25	0.50	1.25	1.00	0.00	0.00	0.75	0.00	0.00	-0.162598	0.121582	0.975098	-3.850000	-3.010000	2.240000	202.00	-0.19	-0.05
0.31	1.00	2.75	1.50	2.00	1.25	0.50	1.25	0.50	0.25	4.50	6.50	3.75	0.75	2.00	0.00	4.00	-0.231934	0.103516	0.949219	-1.190000	5.600000	-1.260000	323.00	0.08	-0.09	2.50	4.00	2.50	4.00	0.75	0.75	0.50	0.00	0.50	1.00	0.75	0.00	0.25	0.75	0.00	0.00	-0.167480	0.117188	0.972656	-3.360000	-2.800000	2.380000	192.00	-0.20	-0.05
0.32	0.75	2.75	1.25	1.75	1.25	0.50	1.25	0.50	0.25	4.75	6.50	3.50	0.75	2.25	0.00	3.75	-0.234863	0.104492	0.947754	-1.050000	5.460000	-1.050000	316.00	0.09	-0.08	2.50	4.25	2.50	4.50	1.00	0.50	0.25	0.25	0.50	1.25	1.00	0.00	0.25	1.00	0.00	0.00	-0.160645	0.121582	0.971191	-2.870000	-2.730000	2.520000	207.00	-0.19	-0.06
0.33	0.75	2.75	1.25	1.75	1.25	0.25	1.25	0.50	0.50	4.50	6.50	3.50	0.75	2.00	0.00	3.75	-0.223145	0.102539	0.948730	-1.120000	5.670000	-1.120000	312.00	0.09	-0.08	2.75	4.00	2.00	4.25	0.75	0.50	0.50	0.25	0.25	0.75	1.00	0.00	0.25	0.50	0.00	0.00	-0.160645	0.121582	0.974609	-2.660000	-2.660000	2.520000	187.00	-0.21	-0.07
0.34	1.00	2.75	1.50	2.25	1.25	0.50	1.25	0.50	0.50	4.50	6.25	3.75	0.75	2.25	0.00	4.00	-0.214844	0.105469	0.946289	-2.940000	3.920000	-1.190000	329.00	0.08	-0.08	2.75	4.00	2.25	4.00	0.75	0.25	0.25	0.00	0.50	1.00	1.00	0.00	0.25	0.75	0.00	0.00	-0.169922	0.124512	0.977051	-2.310000	-2.590000	2.520000	185.00	-0.20	-0.05
0.35	1.25	2.50	1.50	1.75	1.00	0.50	1.25	0.50	0.50	4.50	6.50	3.75	0.75	2.25	0.00	4.00	-0.228027	0.105957	0.946777	-4.060000	3.710000	-1.400000	323.00	0.09	-0.08	2.50	4.00	2.25	4.00	0.75	0.50	0.50	0.25	0.75	1.00	0.75	0.00	0.25	0.75	0.00	0.00	-0.171875	0.123047	0.977051	-0.490000	-2.240000	2.660000	193.00	-0.19	-0.05
0.36	1.00	3.00	1.25	2.00	1.25	0.50	1.25	0.50	0.25	5.00	6.25	3.50	0.75	2.25	0.00	3.75	-0.226074	0.104980	0.955078	-4.060000	4.410000	-1.540000	323.00	0.08	-0.08	2.75	4.00	2.00	4.00	0.75	0.50	0.25	0.25	0.25	1.25	1.00	0.00	0.25	1.00	0.00	0.00	-0.164551	0.124023	0.970703	1.190000	-1.890000	2.870000	190.00	-0.19	-0.06
0.37	1.00	2.75	1.50	2.25	1.25	0.75	1.25	0.50	0.50	4.25	6.50	3.75	0.75	2.50	0.00	4.00	-0.224609	0.104980	0.947754	-3.500000	4.760000	-1.470000	334.00	0.08	-0.08	2.75	3.75	2.00	4.00	0.75	0.50	0.25	0.25	0.25	1.00	0.75	0.00	0.00	0.50	0.00	0.00	-0.161621	0.123535	0.972656	1.680000	-1.680000	2.870000	176.00	-0.22	-0.06
0.38	1.00	2.75	1.50	1.50	1.25	0.75	1.25	0.50	0.50	4.50	6.25	3.75	0.75	2.50	0.25	4.00	-0.229980	0.105469	0.951172	-3.010000	5.040000	-1.470000	328.00	0.09	-0.08	2.75	4.00	2.25	4.00	0.75	0.50	0.25	0.25	0.25	0.75	0.75	0.00	0.00	0.50	0.00	0.00	-0.169434	0.105469	0.975586	3.150000	-1.400000	3.080000	179.00	-0.23	-0.06
0.39	1.00	2.75	1.50	1.75	1.00	0.50	1.25	0.50	0.50	4.75	6.25	3.50	0.75	2.50	0.00	4.00	-0.233887	0.098145	0.949707	-2.730000	5.390000	-1.260000	323.00	0.09	-0.08	2.50	4.00	2.25	3.75	0.75	0.25	0.25	0.00	0.25	0.50	0.75	0.00	0.00	0.25	0.00	0.00	-0.161133	0.124512	0.975586	3.220000	-1.680000	3.080000	162.00	-0.25	-0.06
0.40	1.25	2.75	1.50	2.00	1.25	0.75	1.25	0.50	0.50	4.50	6.25	3.75	0.75	2.75	0.25	4.00	-0.225586	0.099121	0.947754	-2.380000	5.600000	-1.260000	338.00	0.08	-0.08	2.50	4.00	2.25	3.75	0.75	0.25	0.25	0.00	0.25	1.00	0.75	0.00	0.00	0.50	0.00	0.00	-0.171875	0.137207	0.978027	3.990000	-2.030000	3.010000	169.00	-0.23	-0.05
0.41	1.00	3.00	1.50	1.75	1.25	0.50	1.25	0.50	0.50	4.50	6.25	3.50	1.00	2.75	0.00	4.25	-0.218262	0.104492	0.950195	-1.680000	5.810000	-1.190000	331.00	0.08	-0.08	2.75	4.00	2.00	3.75	0.75	0.00	0.25	0.00	0.25	1.00	0.50	0.00	0.00	0.50	0.00	0.00	-0.174316	0.119629	0.980957	9.100000	-3.220000	3.430000	164.00	-0.24	-0.04
0.42	1.00	3.00	1.25	2.00	1.25	0.25	1.25	0.50	0.50	4.50	6.25	3.50	1.00	2.75	0.00	4.25	-0.226074	0.104004	0.947754	-1.120000	5.950000	-1.260000	328.00	0.09	-0.08	2.50	4.25	2.25	3.75	0.75	0.25	0.25	0.25	0.25	1.00	0.75	0.00	0.00	0.00	0.00	0.00	-0.174316	0.119629	0.980957	9.100000	-3.220000	3.430000	171.00	-0.24	-0.06
0.43	1.00	2.75	1.50	2.00	1.25	0.75	1.25	0.50	0.50	4.25	6.25	3.50	0.75	2.75	0.00	4.00	-0.224121	0.104492	0.950684	-0.910000	6.160000	-1.260000	328.00	0.08	-0.08	2.75	4.00	2.25	4.00	0.75	0.25	0.25	0.00	0.25	0.75	0.75	0.00	0.00	0.25	0.00	0.00	-0.153809	0.134766	0.960449	8.960000	-3.500000	3.080000	170.00	-0.25	-0.05
0.44	1.00	2.75	1.50	1.75	1.25	0.50	1.25	0.50	0.50	4.25	6.25	3.75	0.75	2.75	0.00	4.25	-0.230957	0.102051	0.949707	-0.700000	6.300000	-1.190000	326.00	0.09	-0.08	2.75	4.00	1.75	4.00	0.25	0.75	0.25	0.00	0.00	1.00	0.50	0.00	0.00	0.25	0.00	0.00	-0.162598	0.156250	0.979980	-0.070000	-3.010000	1.470000	161.00	-0.26	-0.07
0.45	1.00	2.75	1.25	2.00	1.25	0.75	1.25	0.50	0.25	4.50	6.50	3.50	0.50	3.00	0.00	4.25	-0.230957	0.100586	0.953613	-0.280000	6.300000	-1.050000	328.00	0.09	-0.08	3.00	4.25	2.25	4.25	0.50	0.00	0.25	0.00	0.00	0.75	0.50	0.00	0.00	0.25	0.00	0.00	-0.188965	0.131836	1.043457	-3.570000	-2.590000	0.980000	166.00	-0.27	-0.06
0.46	1.00	2.75	1.25	1.75	1.00	0.50	1.25	0.50	0.25	4.50	6.25	3.50	0.50	2.75	0.25	4.00	-0.233398	0.099609	0.948242	0.560000	6.090000	-0.910000	316.00	0.09	-0.08	3.00	4.75	2.25	4.25	0.50	0.25	0.25	0.00	0.00	0.75	0.50	0.00	0.00	0.00	0.00	0.00	-0.179199	0.129395	0.988770	-1.120000	-2.450000	1.540000	172.00	-0.28	-0.07
0.47	1.25	2.50	1.50	2.00	1.25	0.75	1.25	0.50	0.50	4.50	6.25	3.75	0.75	2.75	0.25	4.25	-0.232910	0.101562	0.948242	0.980000	5.810000	-0.770000	337.00	0.09	-0.08	3.00	4.25	2.25	3.75	0.50	0.00	0.25	0.00	0.00	0.50	0.50	0.00	0.00	0.00	0.00	0.00	-0.176270	0.118652	1.003418	2.730000	-2.730000	1.750000	156.00	-0.29	-0.06
0.48	1.00	3.00	1.50	1.75	1.25	0.50	1.25	0.50	0.75	4.25	6.25	3.75	0.75	2.75	0.00	4.25	-0.228027	0.106934	0.948730	1.330000	5.740000	-0.560000	332.00	0.09	-0.08	3.00	4.50	2.25	3.50	0.00	0.25	0.25	0.00	0.00	1.00	0.50	0.00	0.00	0.25	0.00	0.00	-0.186035	0.130371	0.995605	7.000000	-3.430000	1.960000	160.00	-0.27	-0.06
0.49	1.00	3.00	1.50	2.00	1.25	0.75	1.25	0.50	0.50	4.25	6.25	3.75	0.75	2.50	0.25	4.00	-0.225586	0.107422	0.948730	1.260000	6.020000	-0.700000	333.00	0.08	-0.08	3.00	4.50	2.00	4.00	0.50	0.00	0.25	0.00	0.25	0.50	0.25	0.00	0.00	0.00	0.00	0.00	-0.179199	0.153809	0.995605	8.470000	-4.830000	2.170000	159.00	-0.29	-0.06
0.50	1.25	3.25	1.50	2.25	1.25	0.75	1.25	0.50	0.50	4.25	6.50	3.50	1.00	2.50	0.25	4.25	-0.224121	0.105957	0.949219	1.330000	5.740000	-0.630000	344.00	0.07	-0.09	3.00	5.00	2.00	4.00	0.50	0.00	0.00	0.00	0.00	0.50	0.25	0.00	0.00	0.00	0.00	0.00	-0.153320	0.145020	0.941895	8.820000	-6.300000	2.380000	157.00	-0.31	-0.08
0.51	1.25	3.25	1.25	2.25	1.25	1.00	1.25	0.50	0.25	4.50	6.50	3.75	0.75	3.00	0.25	4.25	-0.224609	0.103516	0.946289	1.680000	5.460000	-0.350000	348.00	0.08	-0.09	3.00	4.75	2.00	3.75	0.50	0.00	0.00	0.00	0.00	0.50	0.00	0.00	0.00	0.00	0.00	0.00	-0.145020	0.152832	0.940918	7.630000	-6.790000	2.240000	149.00	-0.32	-0.07
0.52	1.25	3.25	1.50	2.25	1.25	0.75	1.25	0.50	0.25	4.25	6.50	3.75	0.75	2.50	0.00	4.25	-0.226074	0.106445	0.947754	2.100000	5.110000	-0.070000	339.00	0.07	-0.09	3.25	4.50	2.00	3.50	0.25	0.00	0.00	0.00	0.00	0.75	0.25	0.00	0.00	0.00	0.00	0.00	-0.151367	0.149414	0.960938	4.970000	-6.230000	2.310000	149.00	-0.31	-0.06
0.53	1.25	3.50	1.50	2.50	1.25	0.75	1.25	0.75	0.25	4.50	6.25	3.75	0.75	2.50	0.00	4.00	-0.230957	0.107910	0.949219	1.890000	5.320000	-0.210000	346.00	0.06	-0.09	3.50	3.75	2.50	2.50	0.25	0.00	0.00	0.00	0.00	0.50	0.25	0.00	0.00	0.00	0.00	0.00	-0.166504	0.133301	0.973145	4.830000	-6.580000	2.380000	137.00	-0.31	-0.04
0.54	1.25	3.75	1.75	2.50	1.25	0.75	1.25	0.50	0.75	4.50	6.00	3.50	0.75	2.50	0.00	4.00	-0.236816	0.109863	0.955078	3.080000	6.020000	-0.070000	349.00	0.05	-0.08	3.00	4.75	2.25	3.50	0.25	0.00	0.00	0.00	0.25	0.75	0.25	0.00	0.00	0.00	0.00	0.00	-0.156250	0.129395	0.957520	5.110000	-6.580000	2.310000	155.00	-0.29	-0.06
0.55	1.50	4.00	1.50	2.75	1.25	1.00	1.25	0.75	0.50	4.25	6.25	3.50	0.75	2.25	0.00	4.00	-0.226562	0.109375	0.952148	3.990000	6.580000	0.280000	355.00	0.04	-0.09	3.25	4.75	2.00	3.50	0.25	0.00	0.00	0.00	0.00	0.50	0.25	0.00	0.00	0.00	0.00	0.00	-0.163086	0.138184	0.965332	4.760000	-7.000000	2.030000	149.00	-0.32	-0.07
0.56	1.50	4.50	2.00	3.00	1.25	1.00	1.00	0.75	0.25	4.25	6.25	3.75	0.75	1.75	0.00	4.00	-0.230469	0.108887	0.952148	5.250000	7.000000	0.490000	359.00	0.02	-0.10	3.00	5.00	2.00	3.25	0.25	0.00	0.00	0.00	0.00	0.50	0.25	0.00	0.00	0.00	0.00	0.00	-0.150391	0.154297	0.947266	3.920000	-6.580000	1.960000	146.00	-0.32	-0.07
0.57	1.75	4.75	2.00	3.00	1.25	1.25	1.25	0.75	0.25	4.25	6.00	3.25	0.50	1.75	0.00	4.00	-0.222168	0.111816	0.946777	5.530000	7.280000	0.700000	360.00	0.01	-0.09	3.00	4.50	2.00	3.50	0.25	0.00	0.00	0.00	0.00	0.75	0.25	0.00	0.00	0.00	0.00	0.00	-0.154785	0.159180	0.962891	3.010000	-6.370000	2.030000	146.00	-0.30	-0.07
0.58	2.00	5.00	2.25	3.25	1.50	1.00	1.00	0.75	0.25	4.00	6.00	3.50	0.50	1.25	0.00	4.00	-0.217285	0.115234	0.943848	4.760000	7.140000	0.630000	363.00	-0.00	-0.10	3.25	4.75	2.00	3.25	0.25	0.00	0.00	0.00	0.00	0.50	0.25	0.00	0.00	0.00	0.00	0.00	-0.167480	0.155273	0.960449	2.730000	-6.370000	2.170000	146.00	-0.32	-0.06
0.59	2.00	5.00	2.00	3.50	1.25	1.25	1.00	0.75	0.25	4.00	6.00	3.50	0.75	1.25	0.00	3.75	-0.223633	0.110352	0.949707	4.480000	7.140000	0.490000	364.00	-0.00	-0.10	3.50	4.75	2.00	3.25	0.25	0.00	0.00	0.00	0.00	0.50	0.00	0.00	0.00	0.00	0.00	0.00	-0.168457	0.150879	0.974609	3.640000	-7.210000	2.450000	146.00	-0.33	-0.06
0.60	2.25	5.50	2.25	4.00	1.25	1.25	1.00	0.75	0.00	3.75	5.75	3.50	0.50	1.00	0.00	3.75	-0.232910	0.115234	0.942383	4.130000	7.350000	0.420000	366.00	-0.03	-0.11	3.25	5.00	2.00	3.25	0.25	0.00	0.00	0.00	0.00	0.25	0.25	0.00	0.00	0.00	0.00	0.00	-0.161621	0.149902	0.979492	4.480000	-7.630000	2.380000	146.00	-0.33	-0.07
0.61	2.50	5.75	2.25	4.00	1.50	1.25	1.00	0.75	0.00	4.00	5.75	3.50	0.75	1.25	0.00	4.00	-0.216797	0.119141	0.955566	3.220000	7.140000	0.210000	382.00	-0.03	-0.11	3.25	5.00	2.00	3.25	0.25	0.00	0.00	0.00	0.00	0.50	0.00	0.00	0.00	0.00	0.00	0.00	-0.161621	0.156738	0.964355	4.340000	-7.770000	2.170000	146.00	-0.33	-0.07
0.62	3.00	6.00	2.50	4.50	1.25	1.25	1.00	0.75	0.00	4.25	5.75	3.50	0.50	1.00	0.00	3.75	-0.231934	0.112793	0.955566	4.900000	6.790000	0.210000	392.00	-0.04	-0.10	3.50	5.00	2.00	4.00	0.00	0.00	0.00	0.00	0.00	0.25	0.25	0.00	0.00	0.00	0.00	0.00	-0.162598	0.162109	0.958984	3.430000	-7.560000	2.170000	154.00	-0.33	-0.08
0.63	3.00	6.50	2.50	4.50	1.50	1.50	1.00	0.75	0.00	4.25	5.75	3.25	0.25	0.75	0.00	4.00	-0.227051	0.116211	0.946777	6.720000	7.000000	0.560000	397.00	-0.05	-0.10	3.25	5.00	2.00	3.25	0.25	0.00	0.00	0.00	0.00	0.25	0.00	0.00	0.00	0.00	0.00	0.00	-0.150391	0.158691	0.942383	3.360000	-7.070000	2.660000	143.00	-0.34	-0.07
0.64	3.25	7.25	2.50	5.00	1.50	1.50	1.00	0.75	0.00	4.00	6.00	3.50	0.25	0.50	0.00	3.75	-0.220215	0.117188	0.937500	7.000000	6.720000	0.700000	411.00	-0.06	-0.11	3.25	5.00	1.75	3.50	0.25	0.00	0.00	0.00	0.00	0.00	0.25	0.00	0.00	0.00	0.00	0.00	-0.151367	0.156250	0.951172	2.170000	-5.950000	2.520000	143.00	-0.34	-0.08
0.65	3.50	8.00	2.50	5.00	1.50	1.50	1.00	0.50	0.00	4.00	5.75	3.25	0.50	0.50	0.00	4.00	-0.224609	0.124023	0.942871	6.580000	6.160000	0.350000	415.00	-0.07	-0.10	3.50	5.00	1.75	3.50	0.25	0.00	0.00	0.00	0.00	0.25	0.25	0.00	0.00	0.00	0.00	0.00	-0.161133	0.167480	0.984375	1.890000	-5.740000	2.310000	148.00	-0.33	-0.07
0.66	3.75	8.25	2.75	5.25	1.50	1.50	1.00	0.50	0.00	4.00	6.00	3.50	0.00	0.50	0.00	3.75	-0.219727	0.128418	0.953125	5.390000	5.670000	0.000000	425.00	-0.08	-0.10	3.50	5.00	2.00	3.50	0.25	0.00	0.00	0.00	0.00	0.50	0.25	0.00	0.00	0.00	0.00	0.00	-0.166016	0.156250	0.970215	2.870000	-6.580000	2.520000	154.00	-0.32	-0.07
0.67	4.00	9.00	3.00	5.25	1.50	1.75	1.00	0.50	0.00	4.00	5.75	3.25	0.25	0.00	0.00	3.75	-0.231934	0.123535	0.952148	7.210000	5.250000	0.070000	432.00	-0.10	-0.10	3.25	5.00	2.25	3.50	0.25	0.00	0.00	0.00	0.00	0.25	0.25	0.00	0.00	0.00	0.00	0.00	-0.148926	0.161133	0.950684	3.080000	-6.510000	2.450000	151.00	-0.33	-0.07
0.68	4.50	9.50	3.25	5.50	1.50	1.50	1.00	0.75	0.00	4.00	5.75	3.50	0.25	0.50	0.00	3.75	-0.224121	0.129395	0.945801	8.330000	5.180000	0.210000	456.00	-0.10	-0.10	3.25	5.00	1.75	3.25	0.25	0.00	0.00	0.00	0.00	0.00	0.00	0.00	0.00	0.00	0.00	0.00	-0.143555	0.165039	0.934570	1.820000	-5.460000	1.890000	138.00	-0.35	-0.07
0.69	4.25	10.00	3.25	5.75	1.50	1.50	1.00	0.75	0.00	4.00	6.25	3.25	0.00	0.75	0.00	4.00	-0.220215	0.126953	0.941895	7.840000	4.760000	0.140000	464.00	-0.10	-0.10	3.25	5.00	2.00	3.50	0.25	0.00	0.00	0.00	0.00	0.25	0.25	0.00	0.00	0.00	0.00	0.00	-0.153320	0.168457	0.962402	0.420000	-4.340000	1.820000	148.00	-0.33	-0.07
0.70	5.00	11.00	3.00	5.75	1.50	1.75	1.00	0.75	0.00	4.00	5.75	3.25	0.25	0.25	0.00	3.75	-0.221680	0.132324	0.940918	6.090000	4.690000	-0.070000	473.00	-0.12	-0.10	3.25	4.75	2.00	3.50	0.25	0.00	0.00	0.00	0.00	0.00	0.25	0.00	0.00	0.00	0.00	0.00	-0.151855	0.166992	0.959961	-0.350000	-3.850000	1.960000	143.00	-0.34	-0.07
0.71	5.50	11.00	3.75	6.00	1.50	1.75	1.00	0.75	0.00	3.75	5.75	3.25	0.25	0.00	0.00	3.75	-0.220703	0.129395	0.935547	4.970000	4.900000	-0.280000	484.00	-0.13	-0.10	3.25	5.00	2.25	3.25	0.25	0.00	0.00	0.00	0.00	0.50	0.25	0.00	0.00	0.00	0.00	0.00	-0.155762	0.166992	0.954102	-0.490000	-4.060000	1.820000	151.00	-0.32	-0.06
0.72	5.50	11.75	3.25	6.25	1.75	1.75	1.00	0.75	0.00	3.75	5.75	3.25	0.00	0.25	0.00	3.75	-0.226074	0.127441	0.939941	3.990000	5.180000	-0.490000	491.00	-0.13	-0.10	3.25	5.00	2.00	3.25	0.00	0.00	0.00	0.00	0.00	0.00	0.25	0.00	0.00	0.00	0.00	0.00	-0.140137	0.169434	0.944824	-1.050000	-3.640000	1.820000	140.00	-0.34	-0.07
0.73	5.75	12.75	3.25	6.50	1.50	1.50	1.00	0.50	0.00	3.75	6.00	3.50	0.25	0.25	0.00	3.75	-0.231934	0.132324	0.949707	4.340000	5.110000	-0.630000	504.00	-0.13	-0.10	3.75	5.00	2.00	3.50	0.25	0.00	0.00	0.00	0.00	0.25	0.00	0.00	0.00	0.00	0.00	0.00	-0.144531	0.178223	0.936523	-3.010000	-3.150000	1.610000	151.00	-0.34	-0.06
0.74	6.50	13.00	3.50	6.50	1.50	1.75	1.00	0.75	0.00	3.75	5.50	3.25	0.25	0.25	0.00	3.75	-0.219238	0.128906	0.937012	4.830000	5.250000	-0.560000	515.00	-0.14	-0.10	3.50	5.00	2.00	3.50	0.25	0.00	0.00	0.00	0.00	0.25	0.25	0.00	0.00	0.00	0.00	0.00	-0.160645	0.156250	0.961426	-4.760000	-2.800000	2.030000	151.00	-0.33	-0.07
0.75	6.50	13.00	3.50	7.00	1.75	1.75	1.00	0.75	0.00	3.75	5.75	3.25	0.25	0.00	0.00	3.75	-0.225586	0.132324	0.954102	4.690000	4.970000	-0.560000	524.00	-0.14	-0.10	3.75	5.25	2.25	4.00	0.25	0.00	0.00	0.00	0.00	0.25	0.00	0.00	0.00	0.00	0.00	0.00	-0.170410	0.147949	0.971191	-4.410000	-3.710000	2.030000	161.00	-0.34	-0.07
0.76	6.50	13.50	3.50	7.00	1.50	1.75	1.00	0.75	0.00	3.75	5.75	3.25	0.25	0.00	0.00	3.75	-0.225586	0.133301	0.946777	5.180000	4.690000	-0.490000	526.00	-0.15	-0.10	3.75	5.50	2.25	4.25	0.25	0.00	0.00	0.00	0.00	0.25	0.50	0.00	0.00	0.00	0.00	0.00	-0.158691	0.162109	0.962402	-3.780000	-4.200000	2.660000	172.00	-0.32	-0.07
0.77	7.00	14.00	3.75	7.00	1.50	2.00	1.00	0.75	0.00	3.50	5.75	3.25	0.00	0.00	0.00	3.75	-0.212891	0.134277	0.944336	4.340000	4.830000	-0.490000	536.00	-0.16	-0.10	4.00	5.50	2.25	4.50	0.50	0.00	0.00	0.00	0.00	0.25	0.25	0.00	0.00	0.00	0.00	0.00	-0.146973	0.166992	0.942871	-4.760000	-3.640000	3.430000	177.00	-0.33	-0.07
0.78	6.75	14.00	3.75	7.25	1.50	2.00	1.00	0.75	0.25	3.50	5.75	3.25	0.25	0.25	0.00	3.75	-0.212891	0.138184	0.930664	2.170000	5.320000	-0.840000	544.00	-0.15	-0.10	4.25	5.75	2.75	5.00	0.25	0.00	0.00	0.25	0.00	0.25	0.25	0.00	0.00	0.00	0.00	0.00	-0.139160	0.153320	0.929199	-6.930000	-3.010000	3.710000	194.00	-0.32	-0.08
0.79	6.75	14.25	4.00	7.00	1.50	2.00	1.00	0.75	0.00	3.75	5.75	3.25	0.25	0.00	0.00	3.75	-0.216309	0.140625	0.937988	-0.980000	6.230000	-1.120000	543.00	-0.15	-0.10	5.25	6.75	3.00	5.25	0.50	0.00	0.00	0.00	0.00	0.50	0.25	0.00	0.00	0.00	0.00	0.00	-0.147461	0.163574	0.937500	-10.290000	-2.170000	3.640000	221.00	-0.33	-0.06
0.80	7.00	14.00	3.25	7.00	1.50	2.00	1.00	0.75	0.00	3.75	5.75	3.25	0.25	0.25	0.00	3.75	-0.222168	0.136230	0.950195	-2.940000	6.790000	-1.190000	538.00	-0.15	-0.10	6.00	7.75	3.25	5.75	0.50	0.25	0.00	0.00	0.00	0.25	0.25	0.00	0.00	0.00	0.00	0.00	-0.170898	0.150391	0.994629	-10.780000	-3.010000	3.640000	246.00	-0.33	-0.07
0.81	6.75	14.25	3.75	7.25	1.50	1.75	1.00	0.75	0.00	3.75	5.75	3.25	0.00	0.00	0.00	3.75	-0.225098	0.132324	0.954102	-1.540000	6.580000	-1.190000	539.00	-0.15	-0.10	6.50	8.50	3.75	6.50	0.75	0.50	0.25	0.00	0.00	0.25	0.00	0.00	0.00	0.00	0.00	0.00	-0.164551	0.158691	0.953613	-8.750000	-5.880000	3.920000	279.00	-0.33	-0.06
0.82	6.75	13.75	3.75	7.25	1.50	2.00	1.00	0.75	0.00	3.75	5.75	3.25	0.00	0.00	0.00	3.75	-0.219238	0.131836	0.941406	-0.560000	6.720000	-1.050000	537.00	-0.15	-0.10	7.75	9.75	4.00	7.50	0.75	1.00	0.25	0.25	0.00	0.25	0.50	0.00	0.00	0.00	0.00	0.00	-0.159180	0.167969	0.957031	-8.260000	-6.930000	4.970000	331.00	-0.32	-0.07
0.83	7.00	13.75	3.50	7.25	1.75	1.75	1.00	0.75	0.00	3.75	5.75	3.25	0.25	0.00	0.00	3.75	-0.214355	0.136719	0.930664	-1.190000	7.140000	-1.260000	539.00	-0.15	-0.10	8.75	10.75	4.75	8.25	1.00	1.75	0.25	0.25	0.00	0.25	0.50	0.00	0.00	0.00	0.00	0.00	-0.166504	0.130859	0.973633	-7.630000	-7.840000	5.460000	378.00	-0.32	-0.07
0.84	6.75	13.50	3.50	7.00	1.25	1.75	1.00	0.75	0.00	3.75	5.75	3.00	0.00	0.00	0.00	4.00	-0.228027	0.138672	0.944824	-3.780000	8.050000	-2.310000	522.00	-0.15	-0.10	9.25	12.00	5.50	9.25	1.25	2.00	0.25	0.50	0.00	0.25	0.50	0.00	0.00	0.00	0.00	0.00	-0.132324	0.209473	0.987793	-4.200000	-8.120000	5.950000	424.00	-0.31	-0.08
0.85	6.75	13.00	3.50	7.00	1.50	1.75	1.00	0.75	0.00	3.75	5.75	3.25	0.00	0.25	0.00	3.75	-0.229004	0.138184	0.944824	-3.710000	8.190000	-2.590000	524.00	-0.15	-0.10	10.00	12.75	6.00	9.50	1.25	2.50	0.25	0.50	0.00	0.50	0.25	0.00	0.00	0.00	0.00	0.00	-0.132324	0.151855	0.978516	-3.010000	-6.860000	5.880000	452.00	-0.31	-0.08
0.86	6.75	12.75	3.50	6.75	1.50	1.75	1.00	0.75	0.00	3.75	5.75	3.00	0.25	0.25	0.00	4.00	-0.224121	0.130371	0.946289	-2.660000	7.910000	-2.380000	519.00	-0.14	-0.10	11.00	13.75	6.25	10.25	1.25	3.00	0.25	0.50	0.00	0.25	0.50	0.00	0.00	0.00	0.00	0.00	-0.165527	0.131836	1.029785	0.350000	-7.140000	5.250000	488.00	-0.32	-0.08
0.87	6.50	12.50	3.50	6.75	1.50	1.75	0.75	0.75	0.00	3.75	5.75	3.25	0.25	0.25	0.00	3.75	-0.215820	0.133301	0.933594	-3.640000	8.260000	-2.450000	512.00	-0.14	-0.10	11.50	14.25	6.75	10.25	1.50	3.25	0.25	1.00	0.00	0.50	0.25	0.00	0.00	0.00	0.00	0.00	-0.131836	0.145508	0.971680	1.120000	-6.370000	4.130000	517.00	-0.31	-0.08
0.88	6.25	12.25	3.25	6.50	1.50	1.50	1.00	0.75	0.00	3.75	5.75	3.25	0.25	0.00	0.00	4.00	-0.212891	0.136719	0.939941	-6.510000	8.820000	-2.590000	502.00	-0.14	-0.10	11.75	14.50	7.25	10.50	1.50	3.75	0.25	0.75	0.00	0.25	0.25	0.00	0.00	0.00	0.00	0.00	-0.152344	0.149414	1.019043	3.920000	-6.930000	3.430000	529.00	-0.31	-0.08
0.89	6.25	11.25	2.75	6.25	1.25	1.25	1.00	0.75	0.00	4.00	5.75	3.25	0.25	0.00	0.00	3.75	-0.212891	0.133789	0.938477	-9.240000	9.590000	-2.660000	480.00	-0.13	-0.10	12.25	15.00	7.25	10.75	1.50	4.00	0.25	0.75	0.00	0.50	0.50	0.25	0.00	0.00	0.00	0.00	-0.096191	0.116211	1.000977	7.700000	-8.960000	1.960000	552.00	-0.31	-0.08
0.90	6.00	10.75	3.00	6.00	1.50	1.50	1.00	0.75	0.00	4.00	5.75	3.50	0.25	0.25	0.00	3.75	-0.212402	0.134766	0.938477	-12.250000	10.290000	-2.730000	483.00	-0.12	-0.10	12.75	15.25	7.50	11.00	1.50	4.25	0.25	1.00	0.00	0.50	0.50	0.00	0.00	0.00	0.00	0.00	-0.108398	0.188965	0.948730	4.830000	-11.480000	-2.870000	569.00	-0.31	-0.08
0.91	5.50	9.50	2.50	5.50	1.25	1.25	1.00	0.75	0.00	4.00	5.75	3.50	0.25	0.50	0.00	3.75	-0.206543	0.136230	0.949707	-15.190001	11.760000	-3.220000	452.00	-0.10	-0.10	12.75	15.75	7.50	11.00	1.50	4.50	0.25	0.75	0.00	0.50	0.50	0.00	0.00	0.00	0.00	0.00	-0.152832	0.262207	0.921875	4.060000	-11.270000	-3.570000	572.00	-0.31	-0.08
0.92	4.75	8.25	2.25	5.25	1.25	1.00	1.00	0.50	0.00	4.25	6.00	3.50	0.25	0.25	0.00	4.00	-0.194336	0.128906	0.942383	-18.549999	13.370000	-3.920000	425.00	-0.08	-0.10	12.75	15.50	7.50	11.00	1.50	4.50	0.25	1.00	0.00	0.50	0.50	0.00	0.00	0.00	0.00	0.00	-0.171387	0.478516	0.730469	-5.600000	3.360000	4.690000	574.00	-0.31	-0.08
0.93	3.50	6.50	1.75	4.00	1.25	0.75	1.00	0.50	0.00	4.50	6.00	3.50	0.00	0.50	0.00	4.00	-0.233887	0.118164	0.969727	-19.250000	14.560000	-4.410000	377.00	-0.04	-0.10	12.25	15.25	7.50	11.00	1.50	4.75	0.25	1.00	0.00	0.75	0.25	0.25	0.00	0.00	0.00	0.00	-0.054199	0.066895	1.291504	-28.420000	10.080000	5.460000	572.00	-0.30	-0.08
0.94	2.25	5.25	1.00	2.75	0.75	0.50	1.00	0.50	0.00	4.25	6.00	3.50	0.50	0.75	0.00	4.00	-0.187500	0.137207	0.967285	-14.420000	16.450001	-4.060000	326.00	0.01	-0.11	12.25	15.25	7.75	11.00	1.50	4.75	0.25	1.00	0.00	0.50	0.50	0.25	0.25	0.00	0.00	0.00	-0.175781	0.058105	1.085938	-18.410000	2.240000	-1.190000	577.00	-0.30	-0.09
0.95	1.25	3.00	0.75	1.25	0.50	0.00	1.00	0.50	0.00	4.50	6.25	3.50	0.25	0.75	0.00	4.00	-0.208496	0.131348	0.992676	-11.130000	19.389999	-4.480000	271.00	0.08	-0.10	11.75	14.75	7.50	10.75	1.50	4.50	0.25	1.00	0.00	0.25	0.50	0.25	0.25	0.00	0.00	0.00	-0.156250	0.217773	0.962402	-5.950000	1.260000	1.260000	556.00	-0.30	-0.09
0.96	0.25	1.25	0.25	0.25	0.25	0.00	0.75	0.25	0.00	4.25	6.50	3.75	0.25	1.00	0.00	4.00	-0.354980	0.187012	0.790527	-7.910000	23.450001	-6.860000	222.00	0.18	-0.11	11.50	14.50	7.50	10.75	1.50	4.50	0.25	1.25	0.00	0.50	0.25	0.25	0.00	0.00	0.00	0.00	-0.124512	0.106934	0.988770	-6.090000	2.590000	1.680000	553.00	-0.30	-0.09
0.97	0.00	0.75	0.00	0.25	0.00	0.00	0.75	0.25	0.00	4.50	6.25	3.50	0.25	1.00	0.00	4.00	0.086426	-0.030762	1.470215	-11.690000	51.730000	-14.910000	207.00	0.21	-0.11	11.25	14.00	7.25	10.50	1.50	4.25	0.25	1.25	0.00	0.50	0.50	0.00	0.50	0.00	0.00	0.00	-0.187500	0.161621	0.984863	-1.960000	0.630000	0.910000	542.00	-0.30	-0.09
0.98	0.00	1.50	0.00	0.00	0.00	0.00	0.75	0.00	0.00	4.25	6.00	3.50	0.00	1.00	0.00	4.25	-0.166992	0.088867	1.392090	23.170000	137.270004	-15.120000	201.00	0.20	-0.10	10.75	13.75	7.25	10.25	1.50	4.00	0.25	1.00	0.00	0.75	0.50	0.00	0.50	0.00	0.00	0.00	-0.127930	0.147461	0.942383	-0.140000	0.350000	1.540000	528.00	-0.30	-0.09
0.99	0.00	0.50	0.00	0.00	0.00	0.00	0.50	0.25	0.00	4.00	5.75	3.25	0.00	1.25	0.00	4.00	-0.433105	0.009277	1.467285	24.290001	211.960007	-13.860000	185.00	0.23	-0.11	10.50	13.25	7.00	10.25	1.25	4.00	0.25	1.25	0.00	1.00	0.50	0.25	0.25	0.00	0.00	0.00	-0.141113	0.148438	0.958008	-1.890000	0.140000	0.560000	522.00	-0.29	-0.09
1.00	0.00	0.25	0.00	0.00	0.00	0.00	0.50	0.00	0.00	4.00	6.00	3.25	0.00	0.25	0.00	3.75	-0.294434	0.066895	1.809570	8.750000	257.390015	-10.780000	171.00	0.23	-0.11	9.75	12.75	6.50	10.00	1.25	3.75	0.25	1.25	0.00	0.50	0.50	0.25	0.50	0.00	0.00	0.00	-0.142090	0.154785	0.944336	-5.040000	0.770000	0.210000	495.00	-0.29	-0.09
1.01	0.00	0.00	0.00	0.00	0.00	0.00	0.50	0.00	0.00	4.00	5.75	3.00	0.00	0.25	0.00	4.00	-0.261230	0.287109	1.979004	-1.400000	292.529999	-10.290000	165.00	0.24	-0.11	9.50	12.50	6.50	9.75	1.25	3.75	0.25	1.25	0.00	0.50	0.75	0.50	0.50	0.00	0.00	0.00	-0.150879	0.149902	0.965332	-7.490000	0.980000	-0.280000	493.00	-0.29	-0.10
1.02	0.00	0.25	0.00	0.00	0.00	0.00	0.50	0.00	0.00	3.75	5.75	2.75	0.00	0.00	0.00	3.75	-0.009766	0.108887	1.789062	-24.080000	313.880005	-8.330000	159.00	0.23	-0.11	9.00	12.00	6.50	9.75	1.00	3.25	0.25	1.00	0.00	0.50	0.75	0.00	0.50	0.00	0.00	0.00	-0.156250	0.142090	0.983887	-6.230000	0.140000	-0.560000	466.00	-0.29	-0.09
1.03	0.00	0.25	0.00	0.00	0.00	0.00	0.50	0.00	0.00	3.50	5.50	3.25	0.00	0.00	0.00	3.75	-0.339355	0.088867	1.986816	-39.340000	317.799988	0.350000	159.00	0.23	-0.12	8.50	11.00	6.00	9.25	1.25	3.50	0.25	1.00	0.00	0.75	0.75	0.25	0.75	0.00	0.00	0.00	-0.151855	0.142090	0.968262	-3.220000	-0.420000	-0.350000	453.00	-0.28	-0.09
1.04	0.00	0.00	0.00	0.00	0.00	0.00	0.75	0.00	0.00	3.50	5.25	3.00	0.00	0.00	0.00	4.00	1.751465	0.467773	2.770020	-98.279999	298.059998	10.640000	156.00	0.23	-0.11	8.00	10.75	6.00	9.00	1.00	3.25	0.25	1.25	0.00	0.75	0.50	0.00	0.75	0.00	0.00	0.00	-0.151367	0.159180	0.959961	-1.680000	-1.470000	-0.490000	436.00	-0.28	-0.10
1.05	0.00	0.25	0.00	0.00	0.00	0.00	0.50	0.00	0.00	3.50	5.50	3.25	0.00	0.25	0.00	4.00	1.605469	-0.149414	2.431152	-197.330002	164.639999	32.060001	162.00	0.23	-0.12	7.50	10.00	5.75	9.00	1.00	3.25	0.25	1.50	0.00	0.75	0.75	0.50	0.50	0.00	0.00	0.00	-0.157715	0.153809	0.945312	-2.030000	-2.030000	-0.490000	431.00	-0.27	-0.10
1.06	0.00	0.00	0.00	0.00	0.00	0.00	0.50	0.00	0.00	3.25	5.25	3.25	0.00	0.00	0.00	3.75	2.335938	1.093750	2.914062	-72.239998	86.239998	32.759998	151.00	0.24	-0.13	7.25	9.50	5.75	8.75	1.00	3.50	0.25	1.25	0.00	0.75	0.75	0.50	1.00	0.00	0.00	0.00	-0.149902	0.160156	0.951660	-4.690000	-2.310000	-0.630000	424.00	-0.26	-0.10
1.07	0.00	0.00	0.00	0.00	0.00	0.00	0.50	0.00	0.00	3.75	5.25	3.00	0.00	0.00	0.00	4.00	2.435547	-0.059082	1.436035	138.809998	-6.650000	22.400000	155.00	0.24	-0.12	7.00	9.25	5.50	8.50	1.25	3.50	0.25	1.50	0.00	0.75	1.00	0.75	1.00	0.00	0.00	0.00	-0.163086	0.144531	0.961426	-6.160000	-2.940000	-0.840000	426.00	-0.25	-0.11
1.08	0.00	0.00	0.00	0.00	0.00	0.00	0.50	0.00	0.00	3.50	5.50	3.00	0.00	0.00	0.00	4.00	1.813965	-1.393555	0.514648	94.430000	-22.750000	10.850000	155.00	0.24	-0.12	6.50	8.75	5.50	8.50	1.25	3.75	0.25	1.75	0.00	0.75	1.25	0.50	1.25	0.00	0.00	0.00	-0.154297	0.128418	0.961426	-5.320000	-3.640000	-0.980000	424.00	-0.25	-0.12
1.09	0.00	0.00	0.00	0.00	0.00	0.00	0.50	0.00	0.00	3.50	5.50	2.75	0.00	0.00	0.00	4.00	1.766113	-0.475586	1.042969	-104.510002	-10.570000	4.340000	152.00	0.24	-0.12	6.50	8.50	5.25	8.50	1.25	3.75	0.25	1.75	0.00	0.75	1.00	0.75	1.75	0.00	0.00	0.00	-0.158691	0.133789	0.966309	-2.870000	-4.550000	-0.770000	424.00	-0.24	-0.12
1.10	0.00	0.00	0.00	0.00	0.00	0.00	0.75	0.00	0.00	3.25	5.50	3.00	0.00	0.00	0.00	4.00	1.711426	0.538574	1.724121	-148.820007	-36.470001	11.970000	156.00	0.23	-0.11	6.00	8.50	5.25	8.25	1.25	4.25	0.25	2.00	0.00	0.75	1.00	1.00	2.50	0.00	0.00	0.00	-0.152832	0.145508	0.943848	-2.240000	-5.390000	-0.840000	434.00	-0.23	-0.13
1.11	0.00	0.00	0.00	0.00	0.00	0.00	0.75	0.00	0.00	3.50	5.50	2.75	0.00	0.00	0.00	3.75	1.641602	0.357910	1.497559	-56.349998	-88.970001	18.410000	155.00	0.23	-0.11	6.25	8.25	5.25	8.25	1.50	4.25	0.25	3.00	0.00	1.25	0.75	1.25	2.50	0.00	0.00	0.00	-0.149414	0.124512	0.957031	-2.170000	-6.370000	-1.190000	458.00	-0.21	-0.14
1.12	0.00	0.00	0.00	0.00	0.00	0.00	0.50	0.00	0.00	3.50	5.50	3.00	0.00	0.00	0.00	3.75	1.382812	-0.203613	1.163086	-4.900000	-124.949997	17.850000	154.00	0.24	-0.12	6.00	8.00	5.00	8.25	1.50	5.00	0.25	3.00	0.00	1.00	1.25	1.50	3.00	0.00	0.00	0.00	-0.146973	0.126465	0.944336	-0.980000	-7.560000	-1.820000	468.00	-0.20	-0.15
1.13	0.00	0.00	0.00	0.00	0.00	0.00	0.50	0.00	0.00	3.50	5.50	3.00	0.00	0.00	0.00	4.00	1.134766	-0.264648	1.159668	-35.840000	-141.820007	18.129999	155.00	0.24	-0.12	6.00	8.00	5.25	8.50	1.50	5.75	0.25	5.00	0.00	1.25	1.50	2.00	4.25	0.00	0.00	0.00	-0.120117	0.135742	0.940430	-0.700000	-8.750000	-2.170000	533.00	-0.17	-0.17
1.14	0.00	0.00	0.00	0.00	0.00	0.00	0.50	0.00	0.00	3.75	5.50	2.50	0.00	0.00	0.00	4.00	0.953613	-0.009277	1.242188	-65.239998	-158.479996	22.120001	152.00	0.24	-0.11	6.00	8.00	5.00	8.50	1.75	6.50	0.25	6.00	0.00	1.00	2.00	2.25	5.00	0.00	0.00	0.25	-0.182617	0.167969	1.001465	0.210000	-8.820000	-2.730000	570.00	-0.16	-0.18
1.15	0.00	0.00	0.00	0.00	0.00	0.00	0.50	0.00	0.00	3.50	5.75	3.00	0.00	0.00	0.00	4.00	0.788086	0.086914	1.249512	-54.389999	-179.130005	25.690001	158.00	0.24	-0.12	5.75	7.75	5.25	8.50	2.25	7.50	0.25	6.50	0.00	1.25	2.25	3.00	7.00	0.00	0.00	0.00	-0.147949	0.151367	0.935059	1.050000	-7.770000	-1.400000	621.00	-0.14	-0.19
1.16	0.00	0.00	0.00	0.00	0.00	0.00	0.50	0.00	0.00	3.50	5.50	3.00	0.00	0.00	0.00	4.00	0.616211	0.007324	1.262207	-31.500000	-198.240005	28.000000	155.00	0.24	-0.12	6.00	7.75	5.00	8.75	2.50	8.00	0.50	7.50	0.00	1.75	2.50	4.00	8.00	0.50	0.00	0.50	-0.132324	0.184082	0.924805	-1.540000	-5.600000	-0.280000	684.00	-0.12	-0.19
1.17	0.00	0.00	0.00	0.00	0.00	0.00	0.50	0.00	0.00	3.50	5.25	3.00	0.00	0.00	0.00	4.00	0.383789	-0.104004	1.244141	-22.680000	-215.600006	28.350000	153.00	0.24	-0.12	5.50	7.25	5.25	8.75	2.75	8.75	0.50	8.00	0.25	1.75	3.00	5.75	8.50	0.50	0.00	0.50	-0.126953	0.155762	0.956543	-3.920000	-0.560000	-0.630000	727.00	-0.10	-0.20
1.18	0.00	0.00	0.00	0.00	0.00	0.00	0.50	0.00	0.00	3.50	5.50	3.25	0.00	0.00	0.00	4.25	0.130859	-0.063965	1.169922	-22.889999	-229.389999	24.850000	159.00	0.24	-0.13	5.25	7.00	5.25	8.50	3.50	9.00	0.50	8.50	0.00	2.00	4.00	7.25	9.25	1.25	0.25	0.75	-0.130859	0.173340	0.967773	-3.010000	2.800000	-2.240000	781.00	-0.08	-0.20
1.19	0.25	0.50	0.00	0.00	0.00	0.00	0.50	0.00	0.00	3.50	5.50	3.00	0.00	0.00	0.00	4.00	-0.132324	-0.039551	1.104980	-18.900000	-237.790009	18.340000	162.00	0.21	-0.12	4.25	6.25	4.75	8.25	3.75	9.00	0.50	9.00	0.25	2.25	5.25	8.00	10.00	1.50	0.25	1.25	-0.136719	0.162598	0.997070	-0.350000	4.410000	-3.290000	804.00	-0.05	-0.21
1.20	0.00	0.00	0.00	0.00	0.00	0.00	0.75	0.00	0.00	3.25	5.25	3.00	0.00	0.00	0.00	4.00	-0.404297	-0.016602	1.089844	-10.780000	-241.149994	9.940000	154.00	0.23	-0.11	3.75	5.25	4.00	7.75	3.75	9.00	0.75	9.25	0.25	2.25	6.75	8.50	10.50	2.25	1.00	1.75	-0.173828	0.105469	1.010742	2.660000	6.440000	-5.320000	825.00	-0.03	-0.21
1.21	0.00	0.00	0.00	0.00	0.00	0.00	0.75	0.00	0.00	3.25	5.25	3.00	0.00	0.00	0.00	4.00	-0.687012	0.015625	1.058105	-4.900000	-240.729996	2.940000	154.00	0.23	-0.11	2.75	4.00	3.25	6.50	3.25	8.75	0.75	9.50	0.75	2.75	7.75	9.25	11.50	3.00	0.75	2.25	-0.115723	0.177734	1.018066	4.690000	8.680000	-5.320000	822.00	0.01	-0.21
1.22	0.00	0.25	0.00	0.00	0.00	0.00	0.50	0.00	0.00	3.50	5.50	3.00	0.00	0.00	0.00	4.00	-1.042480	0.124512	0.997559	-6.230000	-235.270004	1.750000	157.00	0.23	-0.12	2.25	2.75	2.00	5.50	2.50	8.00	0.75	9.50	1.25	3.00	8.50	10.00	12.25	4.25	1.25	3.25	-0.210938	0.191406	1.010254	5.740000	11.620000	-7.840000	817.00	0.05	-0.21
1.23	0.00	0.00	0.00	0.00	0.00	0.00	0.75	0.00	0.00	3.50	5.25	2.75	0.00	0.00	0.00	4.00	-1.321289	0.179199	0.899414	-6.580000	-223.020004	6.860000	154.00	0.23	-0.11	1.25	1.25	0.50	3.50	1.50	6.75	0.50	9.50	1.00	3.75	9.25	10.75	12.75	6.50	1.75	5.00	-0.094727	0.236328	1.024902	9.170000	17.639999	-14.560000	785.00	0.10	-0.22
1.24	0.00	0.00	0.00	0.00	0.00	0.00	0.75	0.00	0.00	3.50	5.25	3.00	0.00	0.00	0.00	3.75	-1.606445	0.154297	0.875488	3.220000	-206.080002	15.190001	155.00	0.23	-0.11	0.75	1.25	0.50	2.75	0.50	5.25	0.25	8.75	1.50	3.50	9.75	11.25	13.00	7.75	2.25	6.00	0.069824	0.400879	1.382324	32.410000	60.130001	-41.720001	767.00	0.13	-0.22
1.25	0.00	0.00	0.00	0.00	0.00	0.00	0.50	0.00	0.00	3.25	5.75	3.00	0.00	0.00	0.00	3.75	-1.868652	-0.028809	0.758301	11.200000	-186.619995	23.379999	154.00	0.24	-0.12	0.25	0.50	0.00	1.75	0.25	3.50	0.00	8.00	1.50	3.25	10.25	11.50	12.75	9.50	2.75	6.50	-0.193848	0.163086	1.272461	59.990002	134.539993	-45.290001	727.00	0.17	-0.21
1.26	0.00	0.00	0.00	0.00	0.00	0.00	0.50	0.00	0.00	3.50	5.25	2.75	0.00	0.00	0.00	3.75	-2.251953	-0.197266	0.566895	-2.240000	-130.410004	30.309999	148.00	0.24	-0.12	0.25	0.00	0.00	1.00	0.00	2.50	0.00	7.00	1.25	3.25	10.50	11.50	12.00	11.75	3.25	6.75	-0.278320	0.356934	1.661133	81.690002	219.940002	-52.920002	704.00	0.20	-0.20
1.27	0.00	0.00	0.00	0.00	0.00	0.00	0.50	0.00	0.00	3.50	5.50	3.00	0.00	0.00	0.00	4.00	-2.319336	-0.228027	0.564941	-10.920000	-99.190002	26.320000	155.00	0.24	-0.12	0.00	0.00	0.00	1.00	0.00	1.25	0.00	5.75	1.00	3.25	10.25	11.00	11.00	13.75	3.75	7.00	-0.237305	0.265625	1.515137	53.970001	313.320007	-63.209999	673.00	0.22	-0.18
1.28	0.00	0.00	0.00	0.00	0.00	0.00	0.50	0.00	0.00	3.50	5.50	3.00	0.00	0.00	0.00	4.00	-2.403320	-0.187500	0.621582	-19.250000	-71.610001	16.799999	155.00	0.24	-0.12	0.00	0.00	0.00	0.25	0.00	0.50	0.00	4.50	0.75	3.00	9.75	10.00	9.50	15.75	4.00	7.25	-0.431152	0.463379	1.700684	19.670000	407.329987	-73.639999	623.00	0.25	-0.16
1.29	0.00	0.00	0.00	0.00	0.00	0.00	0.50	0.00	0.00	3.00	5.25	3.00	0.00	0.00	0.00	4.00	-2.503906	-0.047363	0.650879	-24.780001	-49.840000	3.010000	147.00	0.24	-0.13	0.00	0.00	0.00	0.00	0.00	0.25	0.00	2.50	0.25	3.00	9.00	9.00	8.00	16.50	4.25	7.25	-0.413086	0.559082	2.174805	21.629999	483.209991	-95.059998	559.00	0.27	-0.13
1.30	0.00	0.00	0.00	0.00	0.00	0.00	0.50	0.00	0.00	3.50	5.50	3.00	0.00	0.00	0.00	3.75	-2.594238	0.127441	0.544922	-30.590000	-29.190001	-15.120000	154.00	0.24	-0.12	0.00	0.00	0.00	0.00	0.00	0.00	0.00	1.50	0.00	2.50	7.75	7.75	6.25	16.75	4.25	6.75	-0.466797	0.469238	2.297363	-7.630000	557.059998	-111.720001	490.00	0.29	-0.11
1.31	0.00	0.00	0.00	0.00	0.00	0.00	0.75	0.00	0.00	3.50	5.50	3.00	0.00	0.00	0.00	4.00	-2.676270	0.340820	0.432617	-31.990000	-5.040000	-35.630001	159.00	0.23	-0.11	0.00	0.00	0.00	0.00	0.00	0.00	0.00	0.50	0.00	2.25	5.50	5.50	3.50	15.25	3.75	6.00	-0.694824	0.694336	2.917969	-36.049999	621.739990	-120.540001	379.00	0.31	-0.08
1.32	0.00	0.00	0.00	0.00	0.00	0.00	0.75	0.00	0.00	3.25	5.25	3.00	0.00	0.00	0.00	4.00	-2.750977	0.573242	0.344727	-28.000000	20.160000	-56.630001	154.00	0.23	-0.11	0.00	0.00	0.00	0.00	0.00	0.00	0.00	0.00	0.00	1.75	3.25	3.25	1.75	13.00	3.00	4.75	-0.976074	0.779297	3.873535	-1.820000	680.260010	-122.919998	270.00	0.33	-0.04
1.33	0.00	0.00	0.00	0.00	0.00	0.00	0.50	0.00	0.00	3.50	5.50	3.00	0.00	0.00	0.00	4.00	-2.822754	0.821777	0.246582	-16.450001	43.889999	-79.590004	155.00	0.24	-0.12	0.00	0.00	0.00	0.00	0.00	0.00	0.00	0.00	0.00	1.25	2.00	2.00	0.75	9.50	2.50	2.75	-0.902832	0.705566	4.348145	2.730000	712.390015	-132.580002	184.00	0.34	-0.02
1.34	0.00	0.00	0.00	0.00	0.00	0.00	0.50	0.00	0.00	3.25	5.25	2.75	0.00	0.00	0.00	4.00	-3.757324	1.310059	-0.630371	89.809998	124.389999	-68.180000	147.00	0.24	-0.12	0.00	0.00	0.00	0.00	0.00	0.00	0.00	0.00	0.00	0.75	1.50	1.00	0.25	6.50	1.25	0.75	-0.781738	1.047852	4.788086	-5.810000	711.059998	-153.229996	109.00	0.35	0.02
1.35	0.00	0.50	0.00	0.00	0.00	0.00	0.75	0.00	0.00	3.75	5.25	2.75	0.00	0.00	0.00	3.75	-1.219238	-0.038574	1.796875	147.839996	252.839996	-21.350000	159.00	0.21	-0.11	0.00	0.00	0.00	0.00	0.00	0.00	0.00	0.00	0.00	0.50	0.75	0.75	0.00	2.00	0.00	0.00	-0.384766	1.510254	5.369629	-23.030001	688.659973	-182.350006	38.00	0.00	0.00
1.36	0.75	1.25	0.00	0.00	0.00	0.00	0.75	0.00	0.00	3.25	5.25	2.75	0.00	0.00	0.00	4.00	0.036133	0.379395	3.064453	140.419998	234.779999	-12.600000	170.00	0.16	-0.11	0.00	0.00	0.00	0.00	0.00	0.00	0.00	0.00	0.00	0.00	0.50	0.00	0.00	0.25	0.00	0.00	0.936035	1.807617	5.442871	-0.980000	642.739990	-201.880005	7.00	0.00	0.00
1.37	2.25	3.00	0.25	0.25	0.00	0.00	0.75	0.00	0.00	3.50	5.00	2.50	0.00	0.00	0.00	3.75	0.449219	-0.628418	1.670898	106.400002	113.190002	-29.260000	203.00	0.06	-0.09	0.50	0.00	0.00	0.25	0.00	0.00	0.00	0.00	0.00	0.00	0.50	0.00	0.00	0.00	0.00	0.00	5.227051	1.361816	3.945312	14.840000	521.780029	-210.910004	13.00	0.00	0.00
1.38	3.50	5.00	0.25	0.50	0.00	0.00	0.50	0.00	0.00	3.25	5.00	2.50	0.00	0.00	0.00	3.75	-0.056152	0.234863	0.287109	85.260002	93.029999	-69.510002	231.00	-0.01	-0.09	0.00	0.00	0.00	0.00	0.00	0.00	0.00	0.00	0.00	0.00	0.25	0.00	0.25	0.00	0.00	0.00	0.034180	4.694824	11.981445	-10.990000	287.489990	-136.430008	5.00	0.00	0.00
1.39	4.50	7.50	1.00	0.50	0.00	0.00	0.75	0.00	0.00	3.25	5.00	2.25	0.00	0.00	0.00	3.75	-0.208496	1.991211	1.250488	59.990002	133.419998	-62.230000	274.00	-0.07	-0.08	0.00	0.00	0.00	0.00	0.00	0.00	0.00	0.00	0.00	0.00	0.00	0.00	0.00	0.00	0.00	0.00	3.589355	1.131348	4.312500	44.450001	-42.910000	-36.959999	0.00	0.00	0.00
1.40	9.00	10.25	1.75	2.25	0.50	0.00	0.75	0.00	0.00	3.50	5.00	2.75	0.00	0.00	0.00	4.00	-0.425293	1.447266	1.169434	24.570000	133.070007	0.490000	388.00	-0.14	-0.07	0.00	0.00	0.00	0.00	0.00	0.00	0.00	0.00	0.00	0.00	0.00	0.00	0.00	0.00	0.00	0.00	2.642578	-0.021484	1.295410	25.340000	-189.350006	-26.740000	0.00	0.00	0.00
1.41	10.75	13.75	3.25	3.25	0.75	0.00	0.75	0.00	0.00	3.25	5.00	3.00	0.00	0.00	0.00	4.00	-0.319336	-0.016113	0.975586	-15.120000	139.509995	37.799999	469.00	-0.18	-0.07	0.00	0.00	0.00	0.00	0.00	0.00	0.00	0.00	0.00	0.00	0.00	0.00	0.00	0.00	0.00	0.00	2.043945	0.180176	1.692383	-49.070000	-106.750000	-103.459999	0.00	0.00	0.00
1.42	13.50	16.00	4.25	4.25	1.25	0.25	1.00	0.00	0.00	3.50	5.00	2.75	0.00	0.00	0.00	4.00	-0.512207	-0.989258	1.775391	-24.360001	140.139999	18.340000	552.00	-0.20	-0.06	0.00	0.00	0.00	0.00	0.00	0.00	0.00	0.00	0.00	0.00	0.00	0.00	0.00	0.00	0.00	0.00	2.043945	0.180176	1.692383	-49.070000	-106.750000	-103.459999	0.00	0.00	0.00
1.43	15.75	17.50	5.50	5.00	2.00	0.50	1.00	0.00	0.00	3.75	5.25	2.75	0.00	0.25	0.00	4.00	-0.599121	-0.349121	1.776367	-9.520000	102.550003	-24.290001	630.00	-0.21	-0.05	0.00	0.00	0.00	0.00	0.00	0.00	0.00	0.00	0.00	0.00	0.00	0.00	0.00	0.00	0.00	0.00	2.009277	0.605957	2.707031	-31.010000	-159.039993	-119.139999	0.00	0.00	0.00
1.44	15.75	19.50	6.50	5.75	2.50	0.25	1.00	0.00	0.00	3.75	5.25	3.00	0.00	0.50	0.00	4.00	-0.532715	1.179199	1.821777	21.700001	49.490002	-24.710001	675.00	-0.21	-0.05	0.00	0.00	0.00	0.00	0.00	0.00	0.00	0.00	0.00	0.00	0.00	0.00	0.00	0.00	0.00	0.00	1.622070	0.195312	1.919922	15.330000	-324.519989	-124.320000	0.00	0.00	0.00
1.45	16.25	19.50	7.00	5.75	2.75	0.50	1.00	0.00	0.00	4.00	5.50	2.75	0.00	0.75	0.00	4.00	-0.286133	0.106934	0.833984	-13.230000	14.210000	-3.920000	696.00	-0.21	-0.05	0.25	0.00	0.00	0.00	0.00	0.00	0.00	0.00	0.00	0.00	0.00	0.00	0.00	0.00	0.00	0.00	1.365723	0.333496	1.626953	14.770000	-357.000000	-125.860001	3.00	0.00	0.00
1.46	17.25	20.25	7.00	6.50	2.75	0.75	1.00	0.00	0.00	4.00	5.50	2.75	0.00	0.75	0.00	3.75	-0.181641	-0.044922	1.044922	-31.150000	8.470000	-2.800000	723.00	-0.22	-0.05	0.00	0.00	0.00	0.00	0.00	0.00	0.00	0.00	0.00	0.00	0.00	0.00	0.00	0.00	0.00	0.00	1.199219	0.535645	1.593750	32.830002	-374.290009	-118.230003	0.00	0.00	0.00
1.47	16.25	21.00	7.00	6.75	3.00	1.00	1.00	0.25	0.00	4.00	5.50	2.75	0.00	1.00	0.00	3.75	-0.270508	0.129395	0.975586	-6.790000	1.610000	-0.350000	734.00	-0.21	-0.05	0.00	0.00	0.00	0.00	0.00	0.00	0.00	0.00	0.00	0.00	0.00	0.00	0.00	0.00	0.00	0.00	1.048828	0.645508	1.682129	73.919998	-392.910004	-100.169998	0.00	0.00	0.00
1.48	16.00	21.50	7.00	7.50	3.00	0.75	1.00	0.25	0.00	4.00	5.25	3.00	0.00	1.00	0.00	4.00	-0.277832	0.093750	0.983887	-0.070000	3.220000	0.910000	743.00	-0.21	-0.06	0.00	0.00	0.00	0.00	0.00	0.00	0.00	0.00	0.00	0.00	0.00	0.00	0.00	0.00	0.00	0.00	0.847656	0.622559	1.803223	116.620003	-414.260010	-73.989998	0.00	0.00	0.00
1.49	15.75	21.25	7.00	7.75	3.00	1.00	1.00	0.25	0.00	4.00	5.25	2.75	0.00	0.75	0.00	3.75	-0.246582	0.101074	0.958008	5.950000	5.040000	1.260000	737.00	-0.22	-0.06	0.00	0.00	0.00	0.00	0.00	0.00	0.00	0.00	0.00	0.00	0.00	0.00	0.00	0.00	0.00	0.00	0.602051	0.566406	1.914551	140.279999	-434.980011	-43.119999	0.00	0.00	0.00
1.50	15.25	21.25	6.75	7.75	2.75	1.25	1.00	0.25	0.00	4.25	5.25	2.75	0.00	1.00	0.00	4.00	-0.250488	0.103027	0.954102	9.380000	6.300000	1.260000	735.00	-0.21	-0.06	0.00	0.25	0.00	0.00	0.00	0.00	0.25	0.00	0.00	0.00	0.00	0.00	0.00	0.00	0.00	0.00	0.402832	0.556152	2.020508	146.369995	-449.890015	-14.000000	6.00	0.00	0.00
1.51	15.00	21.00	6.50	8.00	2.50	1.00	1.00	0.25	0.00	4.00	5.50	2.75	0.00	0.75	0.00	3.75	-0.247559	0.095703	0.974121	13.720000	8.260000	0.840000	721.00	-0.21	-0.06	0.00	0.00	0.00	0.00	0.00	0.00	0.00	0.00	0.00	0.00	0.00	0.00	0.00	0.00	0.00	0.00	0.188477	0.522949	2.125000	156.449997	-461.369995	6.230000	0.00	0.00	0.00
1.52	14.00	20.50	6.50	8.00	2.25	1.00	1.00	0.25	0.00	3.75	5.25	3.00	0.00	0.75	0.00	4.00	-0.239258	0.094238	0.939941	18.129999	9.450000	0.420000	702.00	-0.21	-0.07	0.00	0.00	0.00	0.00	0.00	0.00	0.00	0.00	0.00	0.00	0.00	0.00	0.00	0.00	0.00	0.00	-0.180176	0.521973	2.311035	183.610001	-474.110016	14.140000	0.00	0.00	0.00
1.53	12.75	19.50	6.00	7.75	2.00	1.25	1.00	0.50	0.00	4.00	5.25	3.00	0.00	0.50	0.00	4.00	-0.220215	0.100586	0.940430	18.480000	8.820000	-0.770000	676.00	-0.20	-0.07	0.00	0.00	0.00	0.00	0.00	0.00	0.00	0.00	0.00	0.00	0.00	0.00	0.00	0.00	0.00	0.00	-0.663086	0.491211	2.514160	221.059998	-486.850006	18.690001	0.00	0.00	0.00
1.54	11.00	18.00	5.50	7.50	1.75	1.00	1.00	0.50	0.00	4.00	5.50	3.00	0.25	0.50	0.00	4.00	-0.217285	0.126465	0.909668	17.639999	8.610000	-2.240000	635.00	-0.19	-0.08	0.00	0.00	0.00	0.00	0.00	0.00	0.00	0.00	0.00	0.00	0.00	0.00	0.00	0.00	0.00	0.00	-1.185547	0.367676	2.624512	252.559998	-495.179993	32.830002	0.00	0.00	0.00
1.55	9.50	15.25	5.25	6.75	1.50	1.00	1.00	0.50	0.00	4.00	5.50	3.00	0.00	0.50	0.00	3.75	-0.212891	0.145508	0.930176	13.230000	9.310000	-3.150000	577.00	-0.17	-0.08	0.00	0.00	0.00	0.00	0.00	0.00	0.25	0.00	0.00	0.00	0.00	0.00	0.00	0.00	0.00	0.00	-1.801270	0.188477	2.708496	266.140015	-495.179993	61.180000	4.00	0.00	0.00
1.56	7.75	13.00	4.25	6.25	1.25	1.25	0.75	0.50	0.00	4.00	5.50	3.00	0.00	0.75	0.00	4.00	-0.233887	0.144043	0.916504	7.210000	10.780000	-3.570000	521.00	-0.15	-0.09	0.00	0.00	0.00	0.00	0.00	0.00	0.25	0.00	0.00	0.00	0.00	0.00	0.00	0.00	0.00	0.00	-2.437500	0.122559	2.770508	254.869995	-485.239990	102.410004	4.00	0.00	0.00
1.57	6.50	10.00	3.25	5.50	1.25	1.00	1.00	0.50	0.00	4.00	5.75	3.25	0.25	0.50	0.00	4.00	-0.255371	0.127930	0.935059	1.470000	11.690000	-3.430000	468.00	-0.12	-0.09	0.00	0.00	0.00	0.00	0.00	0.00	0.00	0.00	0.00	0.00	0.00	0.00	0.00	0.00	0.00	0.00	-3.192383	0.014648	2.761230	235.339996	-468.720001	154.139999	0.00	0.00	0.00
1.58	5.25	8.25	2.75	4.75	1.00	1.00	1.00	0.50	0.00	4.25	6.00	3.50	0.25	0.75	0.00	3.75	-0.246582	0.125977	0.928223	-0.770000	11.830000	-2.520000	431.00	-0.08	-0.09	0.00	0.00	0.00	0.00	0.00	0.00	0.00	0.00	0.00	0.00	0.00	0.00	0.00	0.00	0.00	0.00	-4.036621	-0.148438	2.698242	227.639999	-446.250000	211.820007	0.00	0.00	0.00
1.59	4.25	6.75	2.25	4.00	1.00	1.25	1.00	0.75	0.00	4.25	6.25	3.25	0.25	0.75	0.00	4.00	-0.216797	0.111328	0.897949	-5.530000	9.730000	-2.730000	401.00	-0.05	-0.10	0.00	0.00	0.00	0.00	0.00	0.00	0.25	0.00	0.00	0.00	0.00	0.00	0.00	0.00	0.00	0.00	-5.020508	-0.333496	2.548340	222.110001	-412.510010	268.450012	4.00	0.00	0.00
1.60	3.00	5.75	1.75	3.00	1.00	0.75	0.75	0.75	0.00	4.25	6.25	3.75	0.50	1.00	0.00	4.00	-0.227539	0.101562	0.948242	-9.380000	7.000000	-4.270000	362.00	-0.01	-0.11	0.00	0.00	0.00	0.00	0.00	0.00	0.00	0.00	0.00	0.00	0.00	0.00	0.00	0.00	0.00	0.00	-6.140625	-0.385742	2.413574	212.940002	-370.929993	319.059998	0.00	0.00	0.00
1.61	1.75	4.00	1.25	2.25	0.75	0.75	1.00	0.75	0.00	4.75	6.50	4.25	0.75	1.25	0.00	4.25	-0.255371	0.119629	0.967285	-9.450000	5.600000	-5.880000	339.00	0.05	-0.11	0.00	0.00	0.00	0.00	0.00	0.00	0.00	0.00	0.00	0.00	0.00	0.00	0.00	0.00	0.00	0.00	-7.245117	-0.466309	1.859375	200.899994	-322.980011	360.149994	0.00	0.00	0.00
1.62	0.75	2.50	0.50	1.75	0.50	0.50	1.00	0.75	0.00	4.50	6.75	4.25	1.00	1.25	0.00	4.50	-0.273438	0.102051	0.964355	-5.740000	6.790000	-5.320000	299.00	0.10	-0.12	0.00	0.00	0.00	0.00	0.00	0.00	0.25	0.00	0.00	0.00	0.00	0.00	0.00	0.00	0.00	0.00	-7.847656	-0.825684	0.819824	174.369995	-257.179993	382.970001	4.00	0.00	0.00
1.63	0.50	1.50	0.50	1.00	0.75	0.50	1.00	1.25	0.00	4.75	7.00	5.00	1.50	1.75	0.00	4.50	-0.265137	0.091309	0.941895	-1.400000	9.520000	-3.570000	311.00	0.14	-0.13	0.00	0.00	0.00	0.00	0.00	0.00	0.00	0.00	0.00	0.00	0.00	0.00	0.00	0.00	0.00	0.00	-8.598633	-2.031250	-1.425293	56.420002	-95.900002	367.920013	0.00	0.00	0.00
1.64	0.00	0.50	0.25	0.75	0.50	0.50	1.00	1.25	0.25	5.25	7.50	5.50	2.00	2.00	0.00	4.50	-0.170410	0.166504	1.026855	-0.980000	10.080000	-3.290000	314.00	0.18	-0.13	0.50	0.75	0.00	0.25	0.00	0.00	0.00	0.00	0.00	0.00	0.00	0.00	0.00	0.00	0.00	0.00	-11.789551	-2.191406	-2.749023	-108.919998	256.549988	189.210007	15.00	0.00	0.00
1.65	0.00	1.25	0.25	0.00	0.75	0.50	0.75	1.50	0.75	5.75	7.75	6.50	2.50	2.50	0.00	4.75	-0.271484	0.099121	0.893555	-4.060000	8.050000	-3.010000	351.00	0.18	-0.13	1.75	3.00	0.50	1.00	0.00	0.00	0.00	0.00	0.00	0.00	0.00	0.00	0.00	0.00	0.00	0.00	-1.915527	-1.860840	2.121582	-140.000000	508.480011	79.169998	62.00	-0.38	-0.07
1.66	0.00	0.50	0.00	0.25	0.50	0.25	1.00	2.00	0.50	6.25	8.25	7.00	3.25	3.00	0.50	5.00	-0.238281	0.142578	0.935547	-2.800000	10.220000	-4.410000	379.00	0.20	-0.14	7.25	8.75	1.50	3.50	0.00	0.00	0.00	0.00	0.00	0.00	0.00	0.00	0.00	0.00	0.00	0.00	-1.670898	-2.488770	8.164551	-151.550003	530.250000	-9.100000	211.00	-0.38	-0.06
1.67	0.00	0.50	0.00	0.00	0.25	0.25	1.00	2.25	0.50	6.50	8.75	7.75	5.00	3.50	0.25	5.25	-0.254883	0.146973	0.966797	1.540000	11.760000	-7.490000	412.00	0.21	-0.15	12.75	12.50	3.00	5.50	0.00	0.00	0.00	0.00	0.00	0.00	0.00	0.00	0.00	0.00	0.00	0.00	-0.612305	-0.280273	5.554199	-41.439999	267.049988	-39.480000	341.00	-0.37	-0.04
1.68	0.00	0.25	0.00	0.00	0.25	0.50	0.75	2.50	0.75	7.25	9.25	8.75	6.00	4.75	0.25	5.25	-0.262695	0.112793	0.951660	10.010000	17.219999	-7.420000	458.00	0.21	-0.15	14.00	14.00	4.25	6.25	0.25	0.00	0.00	0.00	0.00	0.00	0.00	0.00	0.00	0.00	0.00	0.00	-0.737305	-0.778320	1.054688	27.860001	128.240005	-69.580002	392.00	-0.37	-0.04
1.69	0.00	0.00	0.00	0.00	0.50	0.50	0.75	2.75	1.25	7.75	10.25	9.25	6.50	5.50	0.75	5.50	-0.283691	0.117676	0.924316	9.240000	17.639999	-5.740000	507.00	0.22	-0.15	14.25	13.75	5.75	7.75	0.25	0.00	0.25	0.00	0.00	0.00	0.00	0.00	0.00	0.00	0.00	0.00	-0.388184	2.108398	0.664062	-0.070000	187.949997	-96.599998	430.00	-0.36	-0.04
1.70	0.00	0.00	0.00	0.00	0.25	0.25	1.00	4.25	1.75	8.00	11.25	10.25	7.25	6.75	0.75	5.75	-0.265137	0.122070	0.919434	9.520000	17.500000	-4.830000	577.00	0.21	-0.15	15.50	14.25	7.50	9.00	1.00	1.00	0.50	0.00	0.00	0.00	0.00	0.00	0.00	1.00	0.00	0.00	-0.623535	1.460449	2.053223	-35.490002	212.660004	-25.059999	512.00	-0.33	-0.04
1.71	0.00	0.00	0.00	0.00	0.25	0.25	1.00	5.25	2.75	8.50	12.25	11.00	8.00	7.75	1.25	6.25	-0.261230	0.100098	0.928223	11.270000	17.150000	-4.130000	652.00	0.21	-0.14	16.25	13.50	9.25	10.00	1.75	0.75	0.50	0.25	0.00	0.00	0.00	0.00	0.50	1.00	0.00	0.00	-0.571289	-0.281738	1.209961	-131.669998	67.340004	5.250000	557.00	-0.32	-0.03
1.72	0.00	0.00	0.00	0.00	0.25	0.50	1.00	5.75	3.25	9.00	13.25	12.25	9.00	9.00	1.25	6.50	-0.259766	0.129883	0.929199	14.560000	18.059999	-4.200000	718.00	0.21	-0.14	17.75	13.25	10.50	10.50	2.75	1.25	0.75	0.50	0.75	0.00	0.00	0.00	0.50	2.00	0.25	0.25	-0.216797	-0.448730	1.231445	-122.360001	-10.430000	-8.680000	636.00	-0.29	-0.02
1.73	0.00	0.00	0.00	0.00	0.25	0.75	1.00	6.25	4.00	9.50	14.50	13.50	9.75	10.50	1.75	7.00	-0.248535	0.152344	0.999512	20.160000	26.670000	-7.000000	797.00	0.22	-0.14	18.25	14.00	11.50	11.00	4.50	2.00	0.75	1.00	1.00	0.25	0.00	0.00	0.75	2.25	0.00	0.25	-0.423828	0.136719	1.237305	-68.669998	-27.930000	-11.200000	707.00	-0.27	-0.03
1.74	0.00	0.00	0.00	0.00	0.00	0.50	0.75	6.50	4.50	10.25	15.50	14.25	10.50	12.00	2.25	7.25	-0.257812	0.159180	1.044922	28.559999	46.340000	-12.810000	851.00	0.22	-0.14	19.25	14.75	12.00	11.75	5.25	2.00	0.75	0.75	1.00	0.25	0.00	0.00	0.75	2.25	0.00	0.00	-0.212891	0.216309	1.047363	-41.369999	-17.010000	1.960000	741.00	-0.28	-0.02
1.75	0.00	0.00	0.00	0.00	0.00	0.75	0.75	6.50	5.25	10.50	16.50	15.50	11.25	13.75	2.75	8.00	-0.271973	0.155273	1.077148	42.560001	75.669998	-16.520000	920.00	0.23	-0.13	20.00	14.75	12.00	12.00	5.75	2.50	1.00	0.50	0.75	0.50	0.00	0.00	0.50	1.50	0.00	0.00	-0.221191	0.103516	1.110352	-27.860001	-5.530000	2.170000	753.00	-0.28	-0.02
1.76	0.00	0.00	0.00	0.00	0.00	0.50	0.50	6.25	5.50	11.00	17.00	16.25	11.75	15.50	3.00	8.50	-0.312988	0.193359	1.112793	62.510002	115.010002	-16.730000	956.00	0.23	-0.13	19.50	15.00	12.00	12.00	5.50	2.50	0.75	0.50	0.75	0.50	0.25	0.00	0.25	1.25	0.00	0.00	-0.192383	0.049805	1.057129	-7.420000	2.030000	4.130000	742.00	-0.29	-0.03
1.77	0.00	0.00	0.00	0.00	0.00	0.50	0.50	5.75	5.50	11.00	17.50	17.00	12.25	16.75	4.75	9.00	-0.274902	0.072754	1.333496	75.180000	159.949997	-17.150000	998.00	0.24	-0.12	19.25	15.00	11.75	12.00	5.25	2.75	0.75	0.25	0.25	0.50	0.25	0.00	0.25	1.00	0.00	0.00	-0.153320	0.083008	1.034180	12.180000	9.170000	7.350000	725.00	-0.30	-0.03
1.78	0.00	0.00	0.00	0.00	0.00	0.00	0.25	5.25	5.50	11.00	17.50	17.25	12.00	18.25	5.25	9.50	-0.375000	0.206543	1.194336	82.389999	211.190002	-17.430000	1002.00	0.25	-0.12	18.00	15.00	10.75	11.50	3.75	2.25	0.50	0.50	0.25	0.25	0.00	0.00	0.00	0.75	0.00	0.00	-0.186035	0.082031	1.075684	29.260000	17.010000	8.470000	664.00	-0.31	-0.04
1.79	0.00	0.00	0.00	0.00	0.00	0.00	0.25	4.75	5.50	10.75	17.50	17.50	11.75	19.00	5.75	10.25	-0.445312	0.234375	1.367676	94.290001	276.010010	-19.879999	1008.00	0.25	-0.12	16.25	14.00	9.50	10.50	2.75	1.25	0.50	0.25	0.25	0.00	0.00	0.00	0.00	0.00	0.00	0.00	-0.226562	0.066895	1.155762	47.670002	22.610001	9.660000	577.00	-0.32	-0.03
1.80	0.00	0.00	0.00	0.00	0.00	0.00	0.25	3.75	4.75	10.75	17.25	16.75	10.75	19.75	6.25	10.75	-0.433105	0.103027	1.719238	105.910004	346.500000	-21.000000	978.00	0.26	-0.11	13.00	12.75	8.00	9.50	1.75	0.75	0.25	0.00	0.00	0.00	0.00	0.00	0.00	0.00	0.00	0.00	-0.229004	0.086914	1.116211	69.230003	16.309999	11.340000	477.00	-0.34	-0.04
1.81	0.00	0.00	0.00	0.00	0.00	0.00	0.00	3.00	4.25	10.50	16.75	16.25	9.50	20.25	6.50	11.25	-0.574707	0.278320	1.625488	105.699997	414.540009	-19.530001	942.00	0.27	-0.10	9.50	10.50	6.00	8.25	0.75	0.50	0.25	0.25	0.00	0.00	0.00	0.00	0.00	0.00	0.00	0.00	-0.166504	0.078613	0.965820	89.739998	-0.210000	10.710000	374.00	-0.34	-0.06
1.82	0.00	0.00	0.00	0.00	0.00	0.00	0.00	2.00	3.00	10.25	16.00	15.00	8.00	19.75	6.50	11.75	-0.696289	0.316895	1.895020	91.070000	497.839996	-24.010000	872.00	0.27	-0.10	6.50	7.50	4.25	6.25	0.25	0.00	0.25	0.00	0.00	0.00	0.00	0.00	0.00	0.00	0.00	0.00	-0.079102	-0.006836	0.898926	92.889999	-11.550000	7.210000	259.00	-0.34	-0.06
1.83	0.00	0.00	0.00	0.00	0.00	0.00	0.00	1.25	1.25	10.00	14.75	13.25	6.50	18.75	6.50	11.50	-0.813965	0.533691	2.161621	81.059998	577.500000	-35.840000	781.00	0.28	-0.10	3.25	5.75	2.00	4.00	0.50	0.00	0.25	0.00	0.00	0.00	0.00	0.00	0.00	0.00	0.00	0.00	-0.099609	0.174316	0.777832	82.599998	-2.030000	5.040000	162.00	-0.34	-0.07
1.84	0.00	0.00	0.00	0.00	0.00	0.00	0.00	0.50	0.50	8.75	12.50	11.00	5.00	16.75	6.25	10.25	-1.222168	0.316406	3.186035	85.260002	661.989990	-46.200001	660.00	0.29	-0.09	1.75	3.00	0.75	2.00	0.00	0.00	0.25	0.00	0.00	0.25	0.25	0.00	0.00	0.00	0.00	0.00	-0.184570	0.474121	0.451172	4.270000	78.400002	15.330000	85.00	-0.30	-0.07
1.85	0.00	0.00	0.00	0.00	0.00	0.00	0.00	0.00	0.00	7.75	10.00	8.75	2.75	13.75	5.25	8.25	-1.972168	0.628418	4.169434	68.389999	730.520020	-41.439999	519.00	0.30	-0.08	1.00	1.00	0.25	1.00	0.00	0.00	0.25	0.00	0.00	0.50	0.50	0.00	0.50	0.00	0.00	0.00	-0.963867	-0.444824	0.849121	-54.180000	97.160004	24.570000	52.00	-0.16	-0.08
1.86	0.00	0.00	0.00	0.00	0.00	0.00	0.00	0.00	0.00	6.25	8.00	7.00	1.50	9.75	3.75	6.00	-2.699219	0.872070	5.753418	92.750000	768.109985	-35.420002	391.00	0.29	-0.08	0.50	1.00	0.00	0.75	0.00	0.00	0.25	0.25	0.00	0.75	0.00	0.25	0.50	0.00	0.00	0.00	-0.478516	-0.083008	1.244141	-135.100006	144.479996	65.379997	45.00	0.00	0.00
1.87	0.00	0.00	0.00	0.00	0.00	0.00	0.00	0.00	0.00	5.50	7.25	6.00	0.75	5.75	2.00	4.50	-2.392090	0.809082	5.973633	77.699997	761.320007	-49.279999	298.00	0.28	-0.09	0.00	0.25	0.00	0.00	0.00	0.00	0.25	0.00	0.00	0.75	0.75	0.75	0.75	0.25	0.00	0.00	0.411133	-0.027344	1.942871	-81.199997	144.899994	68.250000	38.00	0.00	0.00
1.88	0.00	0.00	0.00	0.00	0.00	0.00	0.00	0.00	0.00	5.00	6.50	5.50	0.75	1.75	0.25	4.25	-1.051758	1.515625	7.151855	81.480003	713.299988	-49.279999	225.00	0.25	-0.13	0.00	0.00	0.00	0.00	0.00	0.00	0.00	0.00	0.00	1.00	1.25	1.00	1.50	0.00	0.00	0.00	0.031250	0.223145	0.964355	20.930000	115.430000	31.430000	47.00	0.00	0.00
1.89	0.00	0.00	0.00	0.00	0.00	0.00	0.25	0.00	0.00	4.75	6.50	5.50	0.50	1.50	0.25	4.25	3.734375	1.060059	3.882324	353.709991	497.279999	-167.789993	222.00	0.25	-0.13	0.00	0.00	0.00	0.00	0.00	0.00	0.00	0.00	0.25	1.00	1.50	1.25	1.75	0.00	0.00	0.00	-0.259277	0.253418	0.682617	35.840000	92.190002	22.680000	58.00	0.21	-0.19
1.90	0.00	0.00	0.00	0.00	0.00	0.00	0.25	0.00	0.00	4.75	6.25	5.00	0.50	0.75	0.00	4.25	1.738770	1.785645	9.472168	199.919998	121.520004	-220.570007	205.00	0.24	-0.13	0.00	0.00	0.00	0.00	0.00	0.00	0.25	0.00	0.00	1.50	1.75	2.00	2.75	0.50	0.00	0.00	-0.187988	0.214355	0.802246	-11.900000	69.440002	28.630001	87.00	0.21	-0.19
1.91	0.00	0.00	0.00	0.00	0.00	0.00	0.50	0.00	0.00	4.75	6.00	5.00	0.00	0.50	0.00	4.25	2.785645	-1.003906	4.440430	101.919998	-138.880005	-259.070007	200.00	0.24	-0.12	0.00	0.00	0.00	0.00	0.00	0.00	0.25	0.00	0.25	2.00	2.25	2.50	3.75	1.25	0.00	0.25	-0.178711	0.359863	0.746582	-16.870001	35.630001	17.990000	122.00	0.22	-0.17
1.92	0.00	0.00	0.00	0.00	0.00	0.00	0.50	0.00	0.00	4.50	6.00	4.75	0.25	0.50	0.00	4.25	1.768555	-0.296875	2.706055	15.330000	-216.369995	-330.190002	197.00	0.24	-0.13	0.00	0.00	0.00	0.00	0.00	0.00	0.25	0.00	0.50	2.50	2.75	3.00	4.50	1.50	0.00	0.50	-0.257812	0.353516	0.728027	-19.460001	5.460000	0.140000	151.00	0.23	-0.16
1.93	0.00	0.00	0.00	0.00	0.00	0.00	0.50	0.00	0.00	4.25	5.75	4.50	0.00	0.25	0.00	4.25	1.392090	0.614258	2.900879	-9.730000	-220.990005	-364.559998	185.00	0.24	-0.13	0.00	0.00	0.00	0.00	0.00	0.00	0.25	0.00	0.75	3.00	3.50	3.75	5.00	2.25	0.25	1.00	-0.244629	0.316406	0.844238	-29.120001	-16.799999	-15.120000	192.00	0.24	-0.15
1.94	0.00	0.00	0.00	0.00	0.00	0.00	0.50	0.00	0.00	4.25	5.75	4.25	0.00	0.25	0.00	4.25	1.697754	1.011719	2.989258	15.890000	-261.239990	-340.549988	182.00	0.24	-0.12	0.00	0.00	0.00	0.00	0.00	0.00	0.25	0.50	1.00	3.75	4.50	4.25	5.50	3.25	0.50	1.25	-0.310547	0.177734	0.833008	-27.020000	-32.480000	-29.120001	243.00	0.23	-0.14
1.95	0.00	0.00	0.00	0.00	0.00	0.00	0.50	0.00	0.00	4.00	5.50	4.25	0.00	0.25	0.00	4.00	1.467773	0.781250	2.849609	14.490000	-329.350006	-284.059998	176.00	0.24	-0.12	0.00	0.00	0.00	0.00	0.25	0.00	0.25	1.00	2.00	4.50	7.00	6.00	6.25	5.50	0.75	1.50	-0.322266	0.144531	0.873535	-29.260000	-46.830002	-32.060001	348.00	0.24	-0.12
1.96	0.00	0.00	0.00	0.00	0.00	0.00	0.50	0.00	0.00	4.00	5.75	4.25	0.00	0.00	0.00	4.00	1.290039	0.691895	2.126953	-29.960001	-379.329987	-212.660004	176.00	0.23	-0.13	0.00	0.00	0.00	0.00	0.00	0.00	0.25	1.00	2.75	6.25	8.50	7.50	7.50	7.25	1.25	2.25	-0.278809	0.150879	0.877441	-32.340000	-52.779999	-30.100000	440.00	0.24	-0.11
1.97	0.00	0.00	0.00	0.00	0.00	0.00	0.50	0.00	0.00	4.00	5.50	4.00	0.00	0.00	0.00	4.25	1.183594	0.733887	1.687500	-87.779999	-398.929993	-138.809998	172.00	0.24	-0.13	0.00	0.00	0.00	0.00	0.00	0.00	0.25	1.50	4.00	8.00	9.75	8.25	8.25	9.50	1.75	3.00	-0.229980	0.062500	1.072266	-29.400000	-51.450001	-27.020000	539.00	0.25	-0.10
1.98	0.00	0.00	0.00	0.00	0.00	0.00	0.50	0.00	0.00	3.75	5.50	3.75	0.00	0.00	0.00	4.00	1.047852	0.854004	1.512207	-100.800003	-402.779999	-71.610001	166.00	0.24	-0.13	0.00	0.00	0.00	0.00	0.00	0.00	0.25	1.50	5.75	9.25	10.75	9.00	8.50	12.25	2.50	4.50	-0.236816	0.085938	1.126465	-21.490000	-34.020000	-21.000000	635.00	0.26	-0.08
1.99	0.00	0.00	0.00	0.00	0.00	0.00	0.50	0.00	0.00	3.75	5.75	3.75	0.00	0.00	0.00	4.00	0.908203	0.797363	1.437012	-65.099998	-408.519989	-13.510000	168.00	0.24	-0.13	0.00	0.00	0.00	0.00	0.00	0.00	0.25	2.00	6.50	10.00	11.75	9.75	9.00	15.25	3.25	5.75	-0.289062	0.084473	1.153809	-10.360000	-2.170000	-14.910000	723.00	0.26	-0.07
2.00	0.00	0.00	0.00	0.00	0.00	0.00	0.50	0.00	0.00	3.75	5.50	3.75	0.00	0.00	0.00	4.00	0.692871	0.604004	1.407227	-14.770000	-419.299988	31.570000	166.00	0.24	-0.13	0.00	0.00	0.00	0.00	0.00	0.00	0.25	1.75	7.25	10.75	12.75	10.50	9.25	18.00	3.75	6.50	-0.269531	0.107910	1.230957	2.940000	38.430000	-9.240000	790.00	0.27	-0.06
2.01	0.00	0.00	0.00	0.00	0.00	0.00	0.50	0.00	0.00	3.75	5.50	3.75	0.00	0.25	0.00	4.00	0.520020	0.434082	1.432617	17.500000	-430.149994	59.920002	168.00	0.24	-0.12	0.00	0.00	0.00	0.00	0.00	0.00	0.00	1.75	7.75	11.00	13.00	10.75	9.50	20.50	5.50	7.25	-0.278809	0.192871	1.284668	16.379999	91.000000	-7.910000	846.00	0.27	-0.06
2.02	0.00	0.00	0.00	0.00	0.00	0.00	0.50	0.00	0.00	3.50	5.50	3.75	0.00	0.00	0.00	4.00	0.402832	0.361816	1.535645	29.820000	-439.390015	73.360001	163.00	0.24	-0.13	0.00	0.00	0.00	0.00	0.00	0.00	0.00	1.00	8.00	11.50	13.25	11.00	9.00	22.75	6.50	8.00	-0.283203	0.179199	1.335938	28.700001	152.809998	-12.600000	878.00	0.28	-0.05
2.03	0.00	0.00	0.00	0.00	0.00	0.00	0.50	0.00	0.00	3.50	5.25	3.75	0.00	0.00	0.00	4.00	0.243652	0.363770	1.793945	44.590000	-449.959991	75.949997	160.00	0.24	-0.13	0.00	0.00	0.00	0.00	0.00	0.00	0.00	0.75	8.00	11.75	13.50	11.00	8.75	24.25	7.00	8.50	-0.304199	0.169434	1.295898	33.040001	219.309998	-15.400000	898.00	0.29	-0.04
2.04	0.00	0.00	0.00	0.00	0.00	0.00	0.50	0.00	0.00	3.75	5.50	3.50	0.00	0.25	0.00	4.00	0.032715	0.240723	2.081543	75.809998	-465.500000	66.010002	165.00	0.24	-0.12	0.00	0.00	0.00	0.00	0.00	0.00	0.00	0.50	8.00	11.50	13.25	10.75	8.00	25.50	7.50	9.00	-0.496582	0.311035	1.591309	11.480000	352.450012	-28.139999	899.00	0.29	-0.04
2.05	0.00	0.00	0.00	0.00	0.00	0.00	0.50	0.00	0.00	3.50	5.50	3.75	0.00	0.00	0.00	4.25	-0.387695	0.026855	2.462891	120.750000	-486.360016	39.900002	164.00	0.24	-0.13	0.00	0.00	0.00	0.00	0.00	0.00	0.00	0.00	7.75	11.25	12.75	10.00	7.00	26.25	8.00	9.00	-0.596680	0.301758	1.824707	8.400000	413.489990	-38.990002	875.00	0.30	-0.03
2.06	0.00	0.00	0.00	0.00	0.00	0.00	0.50	0.00	0.00	3.50	5.25	3.75	0.00	0.00	0.00	4.00	-0.957520	-0.009766	2.835938	165.339996	-513.380005	7.070000	160.00	0.24	-0.13	0.00	0.00	0.00	0.00	0.00	0.00	0.00	0.00	7.25	11.25	12.00	9.50	6.00	26.75	8.00	9.25	-0.449707	0.351562	1.665039	11.410000	480.410004	-50.470001	852.00	0.30	-0.02
2.07	0.00	0.00	0.00	0.00	0.00	0.25	0.50	0.00	0.00	3.50	5.25	3.50	0.00	0.00	0.00	4.00	-1.629395	0.137207	2.985352	199.850006	-543.900024	-13.090000	161.00	0.23	-0.13	0.00	0.00	0.00	0.00	0.00	0.00	0.00	0.00	6.00	11.00	11.25	8.75	4.50	26.25	8.25	9.00	-0.696777	0.481445	2.189453	-2.800000	556.010010	-73.010002	801.00	0.31	-0.02
2.08	0.00	0.00	0.00	0.00	0.00	0.00	0.50	0.00	0.00	3.50	5.50	3.50	0.00	0.00	0.00	4.00	-2.165039	0.292969	2.958496	211.470001	-563.500000	-6.720000	160.00	0.24	-0.13	0.00	0.00	0.00	0.00	0.00	0.00	0.00	0.00	5.00	9.75	10.50	7.75	3.00	24.25	7.50	8.00	-0.935547	0.703613	2.358398	2.730000	638.750000	-92.820000	714.00	0.31	-0.01
2.09	0.00	0.00	0.00	0.00	0.00	0.00	0.50	0.00	0.00	3.50	5.50	3.50	0.00	0.00	0.00	3.75	-2.735352	0.461426	2.819336	209.440002	-563.989990	27.230000	159.00	0.24	-0.12	0.00	0.00	0.00	0.00	0.00	0.00	0.00	0.00	3.25	8.50	8.75	6.25	2.50	21.25	6.75	7.00	-1.279785	0.674316	3.477051	53.060001	712.880005	-97.090004	600.00	0.31	-0.01
2.10	0.00	0.00	0.00	0.00	0.00	0.00	0.50	0.00	0.00	3.50	5.25	3.25	0.00	0.00	0.00	4.00	-3.744141	0.635254	2.716309	201.880005	-524.440002	147.979996	155.00	0.24	-0.12	0.00	0.00	0.00	0.00	0.00	0.00	0.00	0.00	1.75	6.00	6.25	3.50	2.00	16.50	5.00	5.00	-2.454102	0.702148	5.303711	112.910004	761.039978	-93.519997	425.00	0.32	-0.01
2.11	0.00	0.00	0.00	0.00	0.00	0.00	0.50	0.00	0.00	3.50	5.50	3.50	0.00	0.00	0.00	4.00	-4.253906	0.530273	2.676270	206.220001	-490.420013	207.550003	160.00	0.24	-0.13	0.00	0.00	0.00	0.00	0.00	0.00	0.00	0.00	1.00	3.50	3.00	1.75	1.25	11.25	3.25	2.75	-2.691406	1.500488	6.323242	168.210007	768.950012	-91.209999	255.00	0.33	0.01
2.12	0.00	0.00	0.00	0.00	0.00	0.00	0.50	0.00	0.00	3.50	5.25	3.50	0.00	0.00	0.00	4.00	-5.030273	0.365723	2.547852	212.869995	-444.709991	251.020004	158.00	0.24	-0.13	0.00	0.00	0.00	0.00	0.00	0.00	0.00	0.00	0.50	2.00	2.00	1.00	0.50	6.25	1.50	0.50	-1.878906	1.498535	7.456543	223.089996	726.530029	-114.029999	135.00	0.32	0.02
2.13	0.00	0.00	0.00	0.00	0.00	0.00	0.25	0.00	0.00	3.50	5.50	3.75	0.00	0.00	0.00	4.00	-6.116211	0.268066	2.247070	219.589996	-385.839996	280.420013	159.00	0.24	-0.14	0.00	0.00	0.00	0.00	0.00	0.00	0.00	0.00	0.00	1.00	0.75	0.25	0.50	1.25	0.00	0.00	0.210449	1.970703	7.538086	254.940002	658.979980	-159.389999	36.00	0.00	0.00
2.14	0.00	0.00	0.00	0.00	0.00	0.00	0.25	0.00	0.00	3.50	5.50	3.75	0.00	0.00	0.00	4.00	-7.038574	-0.039551	1.365723	206.990005	-318.779999	299.390015	159.00	0.24	-0.14	0.00	0.00	0.00	0.00	0.00	0.00	0.00	0.00	0.00	0.75	0.75	0.00	0.00	0.50	0.00	0.00	4.301758	0.632812	5.239746	296.940002	550.409973	-224.000000	20.00	0.00	0.00
2.15	0.00	0.00	0.00	0.00	0.00	0.00	0.50	0.00	0.00	3.75	5.50	3.75	0.00	0.00	0.00	4.00	-7.670410	-0.421875	0.291016	167.720001	-239.680008	306.250000	166.00	0.24	-0.13	0.00	0.00	0.00	0.00	0.00	0.00	0.00	0.00	0.00	0.50	0.50	0.00	0.00	0.00	0.00	0.00	0.285645	3.971191	4.506348	249.059998	399.630005	-270.200012	10.00	0.00	0.00
2.16	0.00	0.00	0.00	0.00	0.00	0.25	0.25	0.00	0.00	3.50	5.50	3.50	0.00	0.00	0.00	3.75	-7.940918	-0.780273	-0.646484	100.449997	-142.940002	287.839996	158.00	0.23	-0.14	0.00	0.00	0.00	0.00	0.00	0.00	0.00	0.00	0.00	0.50	0.50	0.00	0.00	0.25	0.00	0.00	2.030762	2.654785	6.798340	101.150002	-6.720000	-169.610001	13.00	0.00	0.00
2.17	0.00	0.00	0.00	0.00	0.00	0.00	0.50	0.00	0.00	3.50	5.75	3.50	0.00	0.00	0.00	4.00	-7.963867	-0.741699	-1.149414	30.660000	-36.889999	231.770004	163.00	0.24	-0.13	0.00	0.00	0.00	0.00	0.00	0.00	0.00	0.00	0.00	0.25	0.25	0.00	0.00	0.50	0.00	0.00	2.396484	0.643066	4.089844	0.980000	-246.050003	-99.680000	9.00	0.00	0.00
2.18	0.00	0.00	0.00	0.00	0.00	0.00	0.50	0.00	0.00	3.50	5.50	3.75	0.00	0.00	0.00	4.00	-7.770020	-0.415039	-1.078125	-1.260000	57.330002	137.970001	163.00	0.24	-0.13	0.00	0.00	0.00	0.00	0.00	0.00	0.00	0.00	0.00	0.00	0.25	0.00	0.00	0.00	0.00	0.00	1.778320	0.031250	1.920898	-78.260002	-271.110016	-151.059998	3.00	0.00	0.00
2.19	0.00	0.00	0.00	0.00	0.00	0.00	0.25	0.00	0.00	3.75	5.50	4.00	0.00	0.00	0.00	4.00	-7.177246	-0.035645	-0.530273	15.610000	125.370003	27.580000	165.00	0.24	-0.14	0.00	0.00	0.00	0.00	0.00	0.00	0.00	0.00	0.00	0.00	0.00	0.00	0.00	0.00	0.00	0.00	1.339355	0.727051	2.451172	-116.199997	-239.190002	-219.240005	0.00	0.00	0.00
2.20	0.00	0.00	0.00	0.00	0.00	0.00	0.25	0.00	0.00	3.50	5.50	3.75	0.00	0.00	0.00	4.00	-7.565918	-0.040039	-1.724121	44.170002	156.660004	-67.620003	159.00	0.24	-0.14	0.00	0.00	0.00	0.00	0.00	0.00	0.00	0.00	0.00	0.00	0.00	0.00	0.00	0.50	0.00	0.00	1.602051	1.204590	3.062012	-99.050003	-281.959991	-243.529999	4.00	0.00	0.00
2.21	4.25	9.00	0.25	0.00	0.00	0.00	0.25	0.00	0.00	3.50	5.25	3.75	0.00	0.00	0.00	4.00	2.193848	0.364258	-4.395508	18.480000	292.670013	-75.180000	286.00	-0.05	-0.11	0.00	0.00	0.00	0.00	0.00	0.00	0.25	0.00	0.00	0.00	0.00	0.00	0.00	0.00	0.00	0.00	0.880371	1.180664	3.084473	-72.800003	-384.369995	-233.869995	4.00	0.00	0.00
2.22	19.50	27.50	1.25	3.00	0.00	0.00	0.00	0.00	0.00	3.50	5.75	4.00	0.00	0.00	0.00	4.00	-0.500977	0.964355	1.583008	-41.230000	390.110016	-55.230000	663.00	-0.24	-0.08	0.00	0.00	0.00	0.00	0.00	0.00	0.25	0.00	0.00	0.00	0.00	0.00	0.00	0.00	0.00	0.00	0.880371	1.051758	2.318848	-71.120003	-462.070007	-203.350006	4.00	0.00	0.00
2.23	26.50	34.50	3.50	7.75	0.00	0.00	0.00	0.00	0.00	3.25	5.75	4.25	0.00	0.00	0.00	4.00	-2.618652	0.192871	3.956543	45.570000	544.530029	-28.770000	877.00	-0.27	-0.07	0.00	0.00	0.00	0.00	0.00	0.00	0.25	0.00	0.00	0.00	0.00	0.00	0.00	0.00	0.00	0.00	0.619629	1.157227	1.763184	-87.779999	-488.809998	-159.039993	4.00	0.00	0.00
2.24	27.25	34.75	6.75	10.25	0.25	0.50	0.25	0.00	0.00	3.25	5.75	4.50	0.00	0.00	0.00	4.00	-3.010254	0.103516	6.036621	11.340000	576.729980	-56.209999	965.00	-0.27	-0.07	0.00	0.00	0.00	0.00	0.00	0.00	0.25	0.00	0.00	0.00	0.00	0.00	0.00	0.00	0.00	0.00	0.440918	1.448242	1.551758	-5.320000	-481.110016	-47.110001	4.00	0.00	0.00
2.25	24.75	31.25	8.25	11.75	1.00	1.25	0.50	0.50	0.00	3.00	5.75	4.25	0.00	0.00	0.00	3.75	-2.197754	0.193848	6.106934	-69.440002	443.869995	-87.709999	961.00	-0.26	-0.07	0.00	0.00	0.00	0.00	0.00	0.00	0.25	0.00	0.00	0.00	0.00	0.00	0.00	0.00	0.00	0.00	0.257812	1.219238	1.613770	77.629997	-481.110016	8.050000	4.00	0.00	0.00
2.26	23.00	28.25	9.00	11.75	1.50	1.50	0.50	0.50	0.00	3.25	5.25	4.25	0.00	0.00	0.00	4.00	-0.833984	0.478516	1.705078	-120.750000	182.419998	-58.450001	931.00	-0.25	-0.07	0.00	0.00	0.00	0.00	0.00	0.00	0.25	0.00	0.00	0.00	0.00	0.00	0.00	0.00	0.00	0.00	0.011719	0.934082	1.748535	125.720001	-481.179993	54.320000	4.00	0.00	0.00
2.27	22.25	26.75	9.50	12.25	1.75	2.25	0.75	0.75	0.00	3.25	5.50	4.50	0.50	0.00	0.00	4.00	-0.315430	0.427734	0.371582	-100.029999	110.180000	-36.330002	949.00	-0.24	-0.08	0.00	0.00	0.00	0.00	0.00	0.00	0.25	0.00	0.00	0.00	0.00	0.00	0.00	0.00	0.00	0.00	-0.157715	0.735352	1.881836	135.729996	-481.880005	83.370003	4.00	0.00	0.00
2.28	21.25	25.75	10.00	13.25	2.25	3.00	0.75	1.00	0.00	2.75	5.50	4.25	0.75	0.00	0.00	4.00	-0.431641	-0.034668	1.477539	-81.410004	91.840004	-7.000000	957.00	-0.24	-0.08	0.00	0.00	0.00	0.00	0.00	0.00	0.25	0.00	0.00	0.00	0.00	0.00	0.00	0.00	0.00	0.00	-0.311523	0.602051	2.035645	146.160004	-485.450012	89.669998	4.00	0.00	0.00
2.29	21.75	26.50	10.75	13.75	2.50	3.50	0.75	1.25	0.00	3.50	5.50	4.25	1.00	0.25	0.00	4.00	-0.296387	0.009766	1.150391	-66.989998	44.170002	-6.370000	1007.00	-0.23	-0.08	0.00	0.00	0.00	0.00	0.00	0.00	0.25	0.00	0.00	0.00	0.00	0.00	0.00	0.00	0.00	0.00	-0.459961	0.386230	2.252441	180.039993	-491.330017	71.260002	4.00	0.00	0.00
2.30	22.25	26.75	11.00	13.75	2.75	3.50	1.00	1.00	0.00	3.50	5.50	4.25	0.75	0.50	0.00	4.00	-0.322754	0.287109	1.012207	-52.220001	21.420000	-8.330000	1020.00	-0.23	-0.07	0.00	0.00	0.00	0.00	0.00	0.00	0.25	0.00	0.00	0.00	0.00	0.00	0.00	0.00	0.00	0.00	-0.835449	0.124023	2.660645	231.770004	-499.100006	31.219999	4.00	0.00	0.00
2.31	22.00	25.75	10.75	13.00	3.00	3.25	0.75	0.75	0.00	3.50	5.50	4.00	0.75	0.25	0.00	4.00	-0.243652	0.112305	1.084473	-15.190001	19.950001	-3.290000	985.00	-0.24	-0.07	0.00	0.00	0.00	0.00	0.00	0.00	0.25	0.00	0.00	0.00	0.00	0.00	0.00	0.00	0.00	0.00	-1.385254	-0.100098	3.005859	280.769989	-512.539978	-12.530000	4.00	0.00	0.00
2.32	20.75	24.75	10.25	12.25	2.50	2.75	1.00	0.75	0.00	3.25	5.25	4.00	0.75	0.25	0.00	4.00	-0.270996	0.196777	0.982910	-0.140000	21.210001	-0.560000	937.00	-0.23	-0.07	0.00	0.00	0.00	0.00	0.00	0.00	0.25	0.00	0.00	0.00	0.00	0.00	0.00	0.00	0.00	0.00	-1.858887	-0.135742	3.116211	302.610016	-525.210022	-35.070000	4.00	0.00	0.00
2.33	19.75	23.75	9.25	11.00	2.00	2.25	1.00	0.50	0.00	3.25	5.25	4.00	0.25	0.25	0.00	4.00	-0.298828	0.148926	1.021973	6.720000	25.410000	3.710000	873.00	-0.23	-0.07	0.00	0.00	0.00	0.00	0.00	0.00	0.25	0.00	0.00	0.00	0.00	0.00	0.00	0.00	0.00	0.00	-2.250977	-0.010254	3.101562	298.480011	-527.520020	-20.299999	4.00	0.00	0.00
2.34	17.25	21.25	8.25	9.25	1.50	1.25	0.75	0.50	0.00	3.25	5.25	4.00	0.25	0.25	0.00	4.00	-0.242676	0.127930	1.026367	13.440001	25.690001	6.090000	774.00	-0.22	-0.07	0.00	0.00	0.00	0.00	0.00	0.00	0.25	0.00	0.00	0.00	0.00	0.00	0.00	0.00	0.00	0.00	-2.722168	0.159668	3.020508	288.890015	-520.450012	31.710001	4.00	0.00	0.00
2.35	13.25	18.00	7.00	8.25	1.00	0.75	0.75	0.25	0.00	3.50	5.25	3.50	0.25	0.00	0.00	4.00	-0.223145	0.091797	0.977051	24.500000	9.590000	5.600000	658.00	-0.21	-0.07	0.00	0.00	0.00	0.00	0.00	0.00	0.25	0.00	0.00	0.00	0.00	0.00	0.00	0.00	0.00	0.00	-3.223633	0.209473	2.921875	283.709991	-503.440002	110.809998	4.00	0.00	0.00
2.36	12.00	17.25	6.00	7.50	0.75	0.50	0.75	0.25	0.00	3.25	5.25	3.75	0.00	0.00	0.00	4.00	-0.105469	0.046875	0.787598	26.180000	5.810000	3.150000	611.00	-0.20	-0.08	0.00	0.00	0.00	0.00	0.00	0.00	0.25	0.00	0.00	0.00	0.00	0.00	0.00	0.00	0.00	0.00	-3.854492	0.035156	3.031738	285.670013	-473.410004	196.559998	4.00	0.00	0.00
2.37	8.75	14.00	5.00	6.25	0.25	0.25	0.75	0.25	0.00	3.25	5.25	3.50	0.25	0.00	0.00	4.00	-0.064941	0.099609	0.708984	15.750000	16.520000	-2.940000	514.00	-0.17	-0.09	0.00	0.00	0.00	0.00	0.00	0.00	0.25	0.00	0.00	0.00	0.00	0.00	0.00	0.00	0.00	0.00	-4.775879	-0.155762	3.317871	295.820007	-436.730011	266.350006	4.00	0.00	0.00
2.38	6.75	10.25	3.50	5.00	0.50	0.25	0.75	0.25	0.00	3.50	5.50	3.75	0.25	0.00	0.00	4.00	-0.032715	0.235840	0.745117	-1.820000	28.700001	-8.820000	439.00	-0.13	-0.09	0.00	0.00	0.00	0.00	0.00	0.00	0.25	0.00	0.00	0.00	0.00	0.00	0.00	0.00	0.00	0.00	-6.208008	-0.243164	3.405273	321.929993	-400.679993	323.820007	4.00	0.00	0.00
2.39	5.00	7.50	2.75	3.75	0.25	0.00	0.75	0.25	0.00	3.50	5.50	4.25	0.25	0.00	0.00	4.00	-0.077637	0.278320	0.780762	-15.190001	34.930000	-9.380000	373.00	-0.08	-0.10	0.00	0.00	0.00	0.00	0.00	0.00	0.25	0.00	0.00	0.00	0.00	0.00	0.00	0.00	0.00	0.00	-7.747559	-0.515625	2.771484	340.899994	-362.320007	380.309998	4.00	0.00	0.00
2.40	3.50	6.25	1.75	3.50	0.50	0.00	0.75	0.50	0.00	4.00	6.00	4.00	0.50	0.00	0.00	3.75	-0.166016	0.244629	0.754395	-26.460001	45.360001	-8.120000	348.00	-0.04	-0.11	0.00	0.00	0.00	0.00	0.00	0.00	0.25	0.00	0.00	0.00	0.00	0.00	0.00	0.00	0.00	0.00	-8.462402	-1.231934	1.020996	315.630005	-303.519989	432.390015	4.00	0.00	0.00
2.41	2.00	4.00	1.00	1.75	0.25	0.25	0.75	0.50	0.00	3.75	5.75	4.50	0.25	0.25	0.00	4.00	-0.344238	0.072266	1.357910	-51.029999	42.139999	-8.680000	285.00	0.03	-0.12	0.00	0.00	0.00	0.00	0.00	0.00	0.00	0.00	0.00	0.00	0.00	0.00	0.00	0.00	0.00	0.00	-8.267578	-2.119629	-1.036133	171.850006	-61.810001	399.980011	0.00	0.00	0.00
2.42	1.00	3.00	1.00	1.25	0.25	0.25	0.75	0.50	0.00	4.25	6.00	4.50	1.00	0.25	0.00	4.00	-0.254883	0.090820	0.977539	-47.110001	28.700001	-9.310000	275.00	0.08	-0.13	0.00	0.00	0.00	0.00	0.00	0.00	0.00	0.00	0.00	0.00	0.00	0.00	0.00	0.00	0.00	0.00	-8.267578	-2.119629	-1.036133	171.850006	-61.810001	399.980011	0.00	0.00	0.00
2.43	0.50	1.50	0.75	0.25	0.25	0.75	0.75	0.75	0.00	4.50	6.50	4.75	1.25	0.25	0.00	4.00	-0.272949	0.099609	1.007812	-39.549999	18.830000	-8.260000	264.00	0.14	-0.14	0.00	0.00	0.00	0.00	0.00	0.00	0.00	0.00	0.00	0.00	0.00	0.00	0.00	0.00	0.00	0.00	-7.944824	-2.045410	-0.496094	104.790001	50.820000	286.720001	0.00	0.00	0.00
2.44	0.00	1.00	0.50	0.75	0.50	0.50	0.75	1.00	0.00	4.75	6.50	5.00	1.75	1.00	0.00	4.25	-0.237305	0.122559	0.970215	-30.940001	10.850000	-6.720000	278.00	0.16	-0.15	0.00	0.00	0.00	0.00	0.00	0.00	0.00	0.00	0.00	0.00	0.00	0.00	0.00	0.00	0.00	0.00	-6.482422	-2.117676	0.367676	24.639999	130.899994	23.450001	0.00	0.00	0.00
2.45	0.25	1.25	0.50	0.50	0.50	0.25	0.75	1.25	0.00	4.75	7.25	5.75	2.50	1.25	0.00	4.50	-0.232422	0.140137	0.952148	-26.670000	4.760000	-6.650000	307.00	0.16	-0.15	0.00	0.00	0.00	0.00	0.00	0.00	0.00	0.00	0.00	0.00	0.00	0.00	0.00	0.00	0.00	0.00	-5.416504	-1.499023	0.576172	-20.580000	143.149994	-80.150002	0.00	0.00	0.00
2.46	0.00	1.00	0.50	0.25	0.50	0.50	0.75	2.00	0.00	5.50	7.75	6.50	3.25	1.50	0.00	4.75	-0.224609	0.128418	0.913574	-24.219999	0.420000	-7.560000	344.00	0.17	-0.17	1.75	3.50	0.75	0.50	0.00	0.00	0.25	0.00	0.00	0.00	0.00	0.00	0.00	0.00	0.00	0.00	1.591797	-1.125488	4.759766	-158.619995	350.700012	-116.550003	68.00	-0.36	-0.04
2.47	0.00	0.50	0.50	0.50	0.50	0.75	0.75	2.50	0.00	6.00	8.00	7.50	5.25	2.25	0.00	5.00	-0.225098	0.118164	0.929199	-21.420000	-5.250000	-8.050000	396.00	0.18	-0.18	11.25	15.00	1.75	5.00	0.00	0.00	0.00	0.00	0.00	0.00	0.00	0.00	0.00	0.00	0.00	0.00	0.731445	1.722168	2.792969	-235.759995	323.190002	-130.830002	329.00	-0.38	-0.06
2.48	0.00	0.50	0.75	0.50	1.00	1.00	0.75	4.25	0.50	7.00	8.75	8.00	6.00	3.50	0.25	5.25	-0.225098	0.104980	0.919922	-16.240000	-10.500000	-8.120000	485.00	0.17	-0.17	20.75	21.00	4.00	8.25	0.00	0.00	0.00	0.00	0.00	0.00	0.00	0.00	0.00	0.00	0.00	0.00	-1.995605	1.131348	2.306641	-198.660004	472.290009	-56.560001	543.00	-0.38	-0.05
2.49	0.00	0.00	0.25	1.00	1.00	1.50	1.00	5.25	0.50	7.75	9.75	9.00	7.00	5.00	0.50	5.50	-0.245117	0.118652	0.942871	-9.030000	-11.410000	-8.190000	559.00	0.17	-0.17	23.25	20.75	7.25	10.25	0.00	0.00	0.00	0.00	0.00	0.00	0.00	0.00	0.00	0.00	0.00	0.00	-3.007812	0.238281	6.872559	-124.809998	533.679993	-13.720000	625.00	-0.37	-0.04
2.50	0.00	0.00	0.25	0.50	1.25	1.75	1.00	6.00	1.25	8.00	10.75	10.00	7.75	6.75	1.00	5.75	-0.196777	0.144531	0.961914	-3.360000	-7.140000	-8.330000	632.00	0.18	-0.16	23.00	19.75	8.25	10.25	0.00	0.00	0.00	0.00	0.00	0.00	0.00	0.00	0.00	0.00	0.00	0.00	-1.600586	-1.131348	5.586914	-91.000000	368.970001	5.390000	624.00	-0.37	-0.03
2.51	0.00	0.00	0.50	0.25	1.25	1.50	1.00	6.75	1.75	8.75	12.00	11.50	8.75	8.25	1.00	6.00	-0.262695	0.123535	0.979004	0.560000	5.040000	-8.540000	707.00	0.19	-0.16	21.00	18.25	9.00	10.75	0.25	0.25	0.00	0.00	0.00	0.00	0.00	0.00	0.00	0.00	0.00	0.00	-0.253906	-0.498535	1.628418	-66.220001	206.639999	-43.820000	609.00	-0.36	-0.04
2.52	0.00	0.00	0.25	0.00	1.50	1.50	1.00	7.25	2.75	9.50	13.50	12.75	9.75	9.75	1.50	6.50	-0.190430	0.113281	1.022461	12.950000	26.740000	-5.740000	791.00	0.20	-0.15	19.00	17.25	9.25	11.25	0.50	1.00	0.25	0.25	0.00	0.00	0.00	0.00	0.00	0.00	0.00	0.00	-0.157227	0.580078	0.947266	4.550000	163.100006	-58.520000	606.00	-0.35	-0.04
2.53	0.00	0.00	0.00	0.00	0.50	1.00	1.00	7.50	3.75	10.25	15.00	14.25	11.00	11.25	2.00	7.00	-0.221680	0.153320	1.080566	21.559999	44.730000	-9.870000	859.00	0.21	-0.15	17.75	17.25	9.75	12.00	0.75	2.00	0.25	0.50	0.00	0.00	0.00	0.00	0.50	0.50	0.00	0.00	-1.168945	1.619141	4.250488	0.630000	150.639999	-33.040001	633.00	-0.33	-0.06
2.54	0.00	0.00	0.00	0.00	0.25	0.75	0.75	7.25	4.25	10.75	16.00	15.50	11.75	13.50	2.50	7.25	-0.264648	0.010742	1.185547	40.320000	81.970001	-18.830000	914.00	0.22	-0.14	17.00	17.00	10.00	12.50	1.00	2.50	0.50	0.75	0.00	0.00	0.00	0.00	0.75	0.00	0.00	0.25	-0.531250	0.218750	1.643555	-34.020000	61.110001	0.630000	646.00	-0.32	-0.06
2.55	0.00	0.00	0.00	0.00	0.00	0.50	0.50	6.75	4.00	11.00	17.00	16.50	12.25	15.25	3.00	8.00	-0.236328	0.236816	1.216309	77.559998	148.750000	-18.480000	946.00	0.23	-0.14	17.25	16.75	9.75	12.25	1.00	2.00	0.50	1.00	0.00	0.00	0.00	0.00	0.75	0.25	0.00	0.25	-0.128906	-0.091797	1.227539	-36.820000	22.960001	3.990000	641.00	-0.32	-0.06
2.56	0.00	0.00	0.00	0.00	0.00	0.25	0.25	5.75	4.50	11.00	17.25	17.50	12.00	16.75	4.00	8.25	-0.308594	0.004395	1.654785	98.419998	228.830002	-19.460001	967.00	0.24	-0.13	17.00	16.50	9.75	12.50	1.00	3.25	0.50	0.75	0.00	0.00	0.00	0.00	0.50	0.25	0.00	0.00	-0.283691	0.225586	1.263184	-14.350000	0.070000	-1.680000	646.00	-0.32	-0.06
2.57	0.00	0.00	0.00	0.00	0.00	0.00	0.25	4.75	4.50	11.00	17.00	17.25	12.00	18.00	5.00	8.75	-0.353516	0.292969	1.429688	100.379997	303.170013	-20.650000	967.00	0.25	-0.12	16.75	16.50	9.50	12.00	0.75	3.00	0.50	0.75	0.00	0.00	0.00	0.00	0.50	0.25	0.00	0.25	-0.219727	0.304688	0.972656	0.140000	-4.690000	1.190000	631.00	-0.32	-0.06
2.58	0.00	0.00	0.00	0.00	0.00	0.00	0.00	3.25	3.75	10.75	16.75	17.00	11.00	19.25	5.75	9.00	-0.490234	0.207031	1.844238	105.209999	398.510010	-29.400000	934.00	0.26	-0.11	15.50	15.75	9.00	11.00	0.75	2.00	0.50	0.50	0.00	0.00	0.00	0.00	0.25	0.25	0.00	0.00	-0.146973	0.195312	0.999512	-2.170000	0.910000	2.590000	576.00	-0.33	-0.06
2.59	0.00	0.00	0.00	0.00	0.00	0.00	0.00	2.00	3.25	10.50	16.25	16.25	9.50	19.75	6.00	9.50	-0.433594	0.186523	1.733398	116.129997	475.929993	-30.309999	889.00	0.27	-0.10	14.50	15.00	8.00	10.50	0.50	2.00	0.50	0.25	0.00	0.00	0.00	0.00	0.25	0.00	0.00	0.25	-0.154785	0.155762	0.994629	0.420000	0.280000	2.100000	535.00	-0.33	-0.06
2.60	0.00	0.00	0.00	0.00	0.00	0.00	0.00	1.25	1.75	10.25	15.75	15.25	8.25	19.25	6.00	9.50	-0.558105	0.402344	1.768555	117.739998	558.039978	-40.180000	825.00	0.27	-0.10	12.75	14.00	7.50	9.75	0.50	1.50	0.25	0.25	0.00	0.00	0.00	0.00	0.00	0.00	0.00	0.00	-0.131348	0.152832	0.975586	7.560000	0.350000	2.590000	481.00	-0.34	-0.06
2.61	0.00	0.00	0.00	0.00	0.00	0.00	0.00	0.75	0.00	9.50	14.75	14.00	7.00	17.50	5.50	9.25	-0.722168	0.565430	2.251465	120.330002	654.080017	-61.250000	731.00	0.28	-0.11	10.25	12.25	6.25	9.50	0.25	1.50	0.25	0.00	0.00	0.00	0.00	0.00	0.00	0.00	0.00	0.00	-0.080566	0.176270	0.872559	11.760000	2.240000	2.170000	416.00	-0.34	-0.07
2.62	0.00	0.00	0.00	0.00	0.00	0.00	0.00	0.50	0.00	8.50	12.50	11.50	5.25	15.00	5.00	8.25	-1.290039	0.351562	3.479980	123.830002	741.090027	-69.860001	619.00	0.28	-0.11	8.25	10.50	5.00	8.25	0.00	1.00	0.25	0.50	0.00	0.00	0.00	0.00	0.00	0.00	0.00	0.25	-0.043457	0.216309	0.843750	9.590000	6.720000	2.730000	352.00	-0.33	-0.08
2.63	0.00	0.00	0.00	0.00	0.00	0.00	0.00	0.25	0.00	6.75	10.00	9.00	3.25	11.50	3.50	6.50	-2.334473	0.909668	4.995605	151.130005	794.640015	-53.480000	472.00	0.28	-0.10	6.25	8.50	3.50	7.00	0.00	0.75	0.25	0.50	0.00	0.00	0.00	0.00	0.00	0.00	0.00	0.25	-0.048340	0.240723	0.861328	2.520000	12.460000	5.040000	280.00	-0.33	-0.09
2.64	0.00	0.00	0.00	0.00	0.00	0.00	0.00	0.00	0.00	6.25	8.25	7.25	1.75	7.75	2.25	5.25	-2.656250	0.815430	6.439453	204.960007	821.799988	-34.230000	361.00	0.28	-0.10	4.75	7.25	2.75	6.50	0.00	1.25	0.25	0.50	0.00	0.00	0.00	0.00	0.00	0.00	0.00	0.00	-0.174316	0.235840	0.907227	-8.890000	22.540001	9.310000	243.00	-0.32	-0.10
2.65	0.00	0.00	0.00	0.00	0.00	0.00	0.00	0.00	0.00	5.75	7.50	6.00	1.00	3.50	0.25	4.00	-2.342773	0.737305	6.801270	181.440002	810.739990	-30.799999	265.00	0.26	-0.11	3.25	5.50	1.50	5.00	0.00	0.50	0.25	0.50	0.00	0.00	0.00	0.00	0.25	0.00	0.00	0.25	-0.158203	0.208984	0.890137	-16.170000	29.680000	12.110000	176.00	-0.31	-0.12
2.66	0.00	0.00	0.00	0.00	0.00	0.00	0.00	0.00	0.00	4.75	6.50	5.50	0.50	1.50	0.00	4.25	0.014160	1.502441	7.502441	239.540009	729.609985	-30.520000	216.00	0.25	-0.13	2.25	4.25	1.00	4.00	0.00	0.50	0.25	0.50	0.00	0.00	0.00	0.00	0.50	0.00	0.00	0.00	-0.124023	0.180664	0.789551	-28.910000	36.820000	13.160000	139.00	-0.30	-0.13
2.67	0.00	0.00	0.00	0.00	0.00	0.25	0.25	0.00	0.25	5.00	6.50	5.50	0.50	1.00	0.00	4.25	5.464844	-0.243652	6.363770	324.380005	586.250000	-89.879997	224.00	0.24	-0.13	1.25	3.50	0.50	3.75	0.00	0.25	0.25	1.00	0.00	0.25	0.25	0.00	1.25	0.00	0.00	0.25	-0.021484	0.232910	0.883789	-50.400002	41.790001	8.540000	131.00	-0.22	-0.18
2.68	0.00	0.00	0.00	0.00	0.00	0.00	0.25	0.00	0.00	4.75	6.50	5.50	0.25	0.75	0.00	4.25	1.745117	2.691895	10.616699	206.080002	284.970001	-187.180008	211.00	0.24	-0.13	1.00	2.75	0.25	2.75	0.25	0.50	0.25	1.50	0.00	0.25	0.75	0.00	1.50	0.00	0.00	0.25	-0.098633	0.166016	0.882324	-65.519997	33.810001	2.450000	128.00	-0.16	-0.20
2.69	0.00	0.00	0.00	0.00	0.00	0.00	0.25	0.00	0.00	4.75	6.50	5.00	0.25	0.50	0.00	4.00	3.576660	-0.872559	5.066406	136.080002	-36.540001	-206.850006	202.00	0.24	-0.13	1.00	1.75	0.50	2.50	0.25	0.50	0.50	1.75	0.25	1.00	1.00	0.50	2.00	0.00	0.00	0.50	-0.249512	0.178223	1.026855	-79.239998	18.900000	-7.420000	151.00	-0.07	-0.18
2.70	0.00	0.00	0.00	0.00	0.00	0.25	0.25	0.00	0.00	4.75	6.25	5.00	0.25	0.25	0.00	4.25	2.244629	-0.549316	3.165527	45.430000	-144.130005	-272.299988	202.00	0.23	-0.14	0.25	1.50	0.75	0.25	0.00	0.25	0.50	2.25	0.00	1.25	1.50	1.00	3.25	0.25	0.00	0.75	-0.217773	0.126465	1.020020	-64.750000	3.920000	-9.520000	146.00	0.04	-0.22
2.71	0.00	0.00	0.00	0.00	0.00	0.00	0.50	0.00	0.00	4.50	6.25	5.00	0.00	0.25	0.00	4.25	1.830566	0.503906	3.139648	6.790000	-144.830002	-331.450012	198.00	0.24	-0.13	0.50	1.50	0.50	1.25	0.50	1.00	0.50	2.75	0.25	1.50	2.50	1.75	3.75	0.25	0.25	1.50	-0.180664	0.142090	1.006836	-37.869999	0.560000	-8.400000	213.00	0.04	-0.21
2.72	0.00	0.00	0.00	0.00	0.00	0.00	0.50	0.00	0.00	4.50	6.00	4.75	0.25	0.25	0.00	4.00	2.180664	1.278320	3.586426	11.830000	-192.360001	-325.640015	194.00	0.24	-0.13	0.50	1.25	0.50	1.25	0.50	1.50	0.50	3.50	0.50	1.75	2.75	2.00	4.50	0.75	0.25	1.50	-0.178223	0.137207	0.974609	-20.580000	1.400000	-8.050000	249.00	0.06	-0.21
2.73	0.00	0.00	0.00	0.00	0.00	0.00	0.50	0.00	0.00	4.25	5.75	4.50	0.00	0.00	0.00	4.00	1.387207	1.097168	2.895020	-39.900002	-378.070007	-238.490005	181.00	0.23	-0.13	0.50	1.00	0.75	2.00	0.75	1.75	0.50	5.25	1.00	2.25	3.75	2.75	5.75	1.25	0.50	1.75	-0.185547	0.141602	0.987793	-12.180000	3.430000	-8.400000	339.00	0.07	-0.21
2.74	0.00	0.00	0.00	0.00	0.00	0.00	0.50	0.00	0.00	4.25	5.75	4.25	0.00	0.00	0.00	4.00	1.023438	1.098145	2.230957	-88.690002	-431.690002	-201.039993	179.00	0.23	-0.13	0.25	0.75	0.50	1.50	0.75	1.50	0.75	6.25	1.50	2.75	5.75	4.25	7.25	2.00	0.25	2.25	-0.177734	0.119141	0.979492	-3.920000	6.370000	-7.700000	411.00	0.11	-0.21
2.75	0.00	0.00	0.00	0.00	0.00	0.00	0.50	0.00	0.00	4.00	5.50	4.50	0.00	0.00	0.00	4.00	0.678223	1.190918	1.938965	-116.760002	-463.119995	-163.800003	176.00	0.23	-0.13	0.25	1.00	0.00	1.25	0.75	1.50	0.75	7.00	2.25	3.25	7.75	6.75	8.50	2.75	1.00	2.75	-0.166992	0.142578	0.968262	2.240000	9.940000	-6.650000	506.00	0.13	-0.20
2.76	0.00	0.00	0.00	0.00	0.00	0.00	0.50	0.00	0.00	4.00	5.75	4.00	0.00	0.00	0.00	4.00	0.356445	1.284668	1.738770	-107.870003	-480.410004	-123.830002	174.00	0.24	-0.13	0.00	1.25	0.00	1.00	0.75	1.50	0.75	7.50	3.00	4.25	9.00	8.00	9.25	4.50	1.50	4.50	-0.167480	0.131836	0.982910	5.950000	15.890000	-8.750000	594.00	0.16	-0.19
2.77	0.00	0.00	0.00	0.00	0.00	0.00	0.50	0.00	0.00	3.75	5.50	3.75	0.00	0.00	0.00	4.00	0.066406	1.270508	1.620117	-69.300003	-488.250000	-79.449997	166.00	0.24	-0.13	0.00	0.00	0.00	0.75	0.50	1.50	0.75	7.50	3.75	6.00	10.25	9.00	10.00	6.25	1.75	5.50	-0.180176	0.157227	1.033691	11.410000	23.240000	-10.920000	658.00	0.18	-0.17
2.78	0.00	0.00	0.00	0.00	0.00	0.00	0.50	0.00	0.00	3.75	5.50	3.75	0.00	0.00	0.00	4.00	-0.139648	1.145020	1.554688	-19.320000	-489.369995	-31.850000	166.00	0.24	-0.13	0.00	0.00	0.00	0.25	0.25	1.00	0.50	7.50	4.25	7.50	11.00	10.00	10.75	8.00	2.75	6.25	-0.191895	0.179688	1.095703	19.040001	40.040001	-12.600000	717.00	0.20	-0.16
2.79	0.00	0.00	0.00	0.00	0.00	0.00	0.50	0.00	0.00	3.50	5.50	4.00	0.00	0.00	0.00	4.00	-0.361816	0.977051	1.619141	21.139999	-486.640015	13.930000	166.00	0.24	-0.13	0.00	0.00	0.00	0.00	0.00	0.75	0.50	7.00	5.00	8.25	12.00	10.50	11.00	10.25	3.50	7.00	-0.184082	0.237793	1.154785	32.270000	69.370003	-15.260000	768.00	0.22	-0.14
2.80	0.00	0.00	0.00	0.00	0.00	0.00	0.50	0.00	0.00	3.50	5.50	4.00	0.00	0.00	0.00	3.75	-0.514160	0.876953	1.761230	46.900002	-481.809998	52.570000	164.00	0.23	-0.13	0.00	0.00	0.00	0.00	0.00	0.25	0.25	6.00	5.50	8.75	12.75	11.25	11.25	13.00	5.25	7.75	-0.150391	0.186523	1.224609	45.709999	124.669998	-16.379999	819.00	0.24	-0.13
2.81	0.00	0.00	0.00	0.00	0.00	0.00	0.50	0.00	0.00	3.50	5.25	3.75	0.00	0.00	0.00	4.00	-0.633789	0.809082	1.967773	65.730003	-480.130005	81.620003	160.00	0.24	-0.13	0.00	0.00	0.00	0.00	0.00	0.00	0.00	5.25	6.00	9.00	13.00	11.25	11.00	15.50	6.00	8.50	-0.310547	0.309082	1.279297	59.570000	183.050003	-23.100000	844.00	0.25	-0.11
2.82	0.00	0.00	0.00	0.00	0.00	0.00	0.50	0.00	0.00	3.50	5.50	3.75	0.00	0.00	0.00	4.00	-0.792480	0.743164	2.188965	88.410004	-482.649994	99.680000	163.00	0.24	-0.13	0.00	0.00	0.00	0.00	0.00	0.00	0.00	3.50	6.00	9.00	13.00	11.25	10.25	17.50	6.75	9.25	-0.327148	0.277832	1.336914	61.670002	252.279999	-30.730000	840.00	0.26	-0.10
2.83	0.00	0.00	0.00	0.00	0.00	0.00	0.50	0.00	0.00	3.50	5.50	3.75	0.00	0.00	0.00	4.25	-0.995117	0.711914	2.497559	112.910004	-487.200012	108.290001	164.00	0.24	-0.13	0.00	0.00	0.00	0.00	0.00	0.00	0.00	2.00	6.00	9.00	12.75	11.00	9.25	19.50	7.25	9.75	-0.469238	0.234375	1.609375	41.369999	346.010010	-37.029999	828.00	0.28	-0.08
2.84	0.00	0.00	0.00	0.00	0.00	0.00	0.50	0.00	0.00	3.25	5.50	3.50	0.00	0.00	0.00	4.00	-1.344727	0.764160	2.805664	131.809998	-496.019989	111.580002	158.00	0.24	-0.13	0.00	0.00	0.00	0.00	0.00	0.00	0.00	1.00	5.50	8.50	12.25	10.25	8.25	20.25	7.75	10.25	-0.431152	0.452637	1.972656	64.680000	491.750000	-49.980000	793.00	0.29	-0.07
2.85	0.00	0.00	0.00	0.00	0.00	0.00	0.50	0.00	0.00	3.75	5.25	3.75	0.00	0.00	0.00	4.00	-1.822754	0.831543	2.974121	152.600006	-511.000000	113.470001	163.00	0.24	-0.13	0.00	0.00	0.00	0.00	0.00	0.00	0.00	0.25	5.25	8.25	11.75	9.75	7.50	20.50	7.75	10.50	-0.492676	0.451660	2.119629	65.169998	574.770020	-73.500000	763.00	0.29	-0.06
2.86	0.00	0.00	0.00	0.00	0.00	0.00	0.50	0.00	0.00	3.75	5.50	3.75	0.00	0.00	0.00	4.25	-2.309082	0.886230	2.989258	181.860001	-523.039978	118.930000	167.00	0.24	-0.13	0.00	0.00	0.00	0.00	0.00	0.00	0.00	0.00	3.75	8.00	10.75	8.75	6.25	19.50	7.75	10.00	-0.667969	0.295410	2.598633	37.799999	664.369995	-94.919998	693.00	0.30	-0.06
2.87	0.00	0.00	0.00	0.00	0.00	0.00	0.50	0.00	0.00	3.50	5.50	3.75	0.00	0.00	0.00	4.00	-2.818848	0.801270	2.858887	207.830002	-526.260010	132.089996	163.00	0.24	-0.13	0.00	0.00	0.00	0.00	0.00	0.00	0.00	0.00	2.25	6.75	9.25	8.00	5.00	17.00	7.25	8.75	-1.208008	1.009766	3.393066	30.309999	748.299988	-106.889999	593.00	0.30	-0.07
2.88	0.00	0.00	0.00	0.00	0.00	0.00	0.50	0.00	0.00	3.75	5.50	3.75	0.00	0.00	0.00	4.00	-3.276367	0.705566	2.645508	221.270004	-514.640015	157.289993	166.00	0.24	-0.13	0.00	0.00	0.00	0.00	0.00	0.00	0.00	0.00	1.25	4.25	7.00	5.75	3.50	13.25	6.00	7.00	-1.799316	0.810547	4.906250	72.519997	815.500000	-110.040001	439.00	0.31	-0.07
2.89	0.00	0.00	0.00	0.00	0.00	0.00	0.50	0.00	0.00	3.50	5.50	3.75	0.00	0.00	0.00	4.00	-3.660645	0.560059	2.571289	223.229996	-488.529999	197.190002	163.00	0.24	-0.13	0.00	0.00	0.00	0.00	0.00	0.00	0.00	0.00	0.50	2.50	3.75	3.00	2.00	9.25	4.50	5.00	-2.580078	1.230957	6.423828	88.970001	827.260010	-116.760002	274.00	0.32	-0.06
2.90	0.00	0.00	0.00	0.00	0.00	0.00	0.50	0.00	0.00	3.50	5.50	3.75	0.00	0.00	0.00	4.00	-4.166504	0.403320	2.641602	221.410004	-451.220001	240.589996	163.00	0.24	-0.13	0.00	0.00	0.00	0.00	0.00	0.00	0.00	0.00	0.25	1.50	2.00	1.50	1.25	5.25	2.50	1.75	-1.773438	1.583008	7.060547	148.259995	793.520020	-117.389999	147.00	0.32	-0.05
2.91	0.00	0.00	0.00	0.00	0.00	0.00	0.50	0.00	0.00	3.75	5.50	3.75	0.00	0.00	0.00	4.00	-4.924316	0.278320	2.744629	223.860001	-405.579987	275.380005	166.00	0.24	-0.13	0.00	0.00	0.00	0.00	0.00	0.00	0.00	0.00	0.00	1.00	1.25	1.00	0.75	1.00	0.00	0.25	-0.020508	2.140625	7.334961	221.410004	717.919983	-138.809998	50.00	0.25	-0.12
2.92	0.00	0.00	0.00	0.00	0.00	0.00	0.50	0.00	0.00	3.50	5.50	3.75	0.00	0.00	0.00	4.00	-6.004883	0.020996	2.624512	218.119995	-358.470001	295.540009	163.00	0.24	-0.13	0.00	0.00	0.00	0.00	0.00	0.00	0.00	0.00	0.00	0.25	0.50	0.25	0.00	0.00	0.00	0.00	4.297852	0.726562	5.531250	327.600006	588.419983	-189.910004	10.00	0.00	0.00
2.93	0.00	0.00	0.00	0.00	0.00	0.00	0.25	0.00	0.00	3.50	5.50	3.75	0.00	0.00	0.00	3.75	-6.922852	-0.459473	1.728027	173.320007	-311.360016	293.369995	158.00	0.24	-0.14	0.00	0.00	0.00	0.00	0.00	0.00	0.00	0.00	0.00	0.50	0.50	0.00	0.00	0.00	0.00	0.00	1.316406	2.877441	3.897949	366.380005	424.480011	-290.989990	10.00	0.00	0.00
2.94	0.00	0.00	0.00	0.00	0.00	0.00	0.50	0.00	0.00	3.75	5.75	3.75	0.00	0.00	0.00	4.00	-7.882812	-0.906738	-1.107422	29.610001	-167.649994	220.500000	168.00	0.24	-0.13	0.00	0.00	0.00	0.00	0.00	0.00	0.00	0.00	0.00	0.25	0.50	0.00	0.00	0.00	0.00	0.00	2.127441	1.917480	7.652832	226.589996	20.230000	-261.100006	8.00	0.00	0.00
2.95	0.00	0.00	0.00	0.00	0.00	0.00	0.25	0.00	0.00	3.75	5.25	3.75	0.00	0.00	0.00	4.25	-7.910156	-0.654785	-1.541504	-9.030000	-53.200001	149.869995	161.00	0.24	-0.14	0.00	0.00	0.00	0.00	0.00	0.00	0.00	0.00	0.00	0.25	0.50	0.00	0.00	0.00	0.00	0.00	2.494141	0.284668	4.543945	43.119999	-248.710007	-204.399994	8.00	0.00	0.00
2.96	0.00	0.00	0.00	0.00	0.00	0.00	0.25	0.00	0.00	3.50	5.50	3.75	0.00	0.00	0.00	4.00	-7.827637	-0.275879	-1.101074	-20.299999	46.549999	76.230003	159.00	0.24	-0.14	0.00	0.00	0.00	0.00	0.00	0.00	0.00	0.00	0.00	0.00	0.00	0.00	0.00	0.00	0.00	0.00	1.847656	0.124023	2.388672	-84.769997	-331.589996	-223.229996	0.00	0.00	0.00
2.97	0.00	0.00	0.00	0.00	0.00	0.00	0.25	0.00	0.00	3.50	5.50	3.75	0.00	0.00	0.00	4.00	-7.322754	0.053223	-0.599121	-6.440000	116.270004	16.590000	159.00	0.24	-0.14	0.00	0.00	0.00	0.00	0.00	0.00	0.00	0.00	0.00	0.00	0.00	0.00	0.00	0.00	0.00	0.00	1.458008	0.895508	2.229004	-112.349998	-310.799988	-257.670013	0.00	0.00	0.00
2.98	0.00	0.00	0.00	0.00	0.00	0.00	0.25	0.00	0.00	3.50	5.50	3.75	0.00	0.00	0.00	3.75	-8.595215	-0.140137	-2.802734	-11.550000	140.070007	-29.469999	158.00	0.24	-0.14	0.00	0.00	0.00	0.00	0.00	0.00	0.00	0.00	0.00	0.00	0.00	0.00	0.00	0.00	0.00	0.00	1.632324	1.170410	2.398438	-65.099998	-313.250000	-266.000000	0.00	0.00	0.00
2.99	2.50	5.25	0.25	0.00	0.00	0.00	0.25	0.00	0.00	3.50	5.50	3.50	0.00	0.00	0.00	4.00	1.359863	-0.297852	-7.088867	18.969999	279.440002	-26.809999	234.00	0.03	-0.11	0.00	0.00	0.00	0.00	0.00	0.00	0.25	0.00	0.00	0.00	0.00	0.00	0.00	0.00	0.00	0.00	1.423340	1.069824	2.502930	-3.010000	-364.769989	-243.460007	4.00	0.00	0.00
3.00	17.25	25.00	1.50	1.50	0.00	0.00	0.00	0.00	0.00	3.50	5.75	3.75	0.00	0.00	0.00	4.00	-0.891113	0.501953	1.844238	-17.780001	433.160004	-30.100000	600.00	-0.23	-0.07	0.00	0.00	0.00	0.00	0.00	0.00	0.25	0.00	0.00	0.00	0.00	0.00	0.00	0.00	0.00	0.00	1.151855	0.919434	2.204102	13.160000	-418.739990	-197.399994	4.00	0.00	0.00
3.01	27.25	35.25	3.25	5.75	0.00	0.00	0.00	0.00	0.00	3.25	5.50	4.00	0.00	0.00	0.00	3.75	-2.771973	-0.020996	4.345703	64.889999	595.630005	-33.250000	860.00	-0.28	-0.07	0.00	0.00	0.00	0.00	0.00	0.00	0.25	0.00	0.00	0.00	0.00	0.00	0.00	0.00	0.00	0.00	0.923828	0.928711	1.850098	-7.420000	-449.820007	-138.949997	4.00	0.00	0.00
3.02	27.00	35.00	6.25	9.75	0.25	0.50	0.25	0.00	0.00	3.25	5.50	4.50	0.00	0.00	0.00	4.00	-3.096191	0.124023	5.331543	42.279999	632.169983	-69.440002	951.00	-0.27	-0.07	0.00	0.00	0.00	0.00	0.00	0.00	0.00	0.00	0.00	0.00	0.00	0.00	0.00	0.00	0.00	0.00	0.751953	0.976074	1.724609	-16.309999	-461.019989	-80.080002	0.00	0.00	0.00
3.03	25.00	31.25	8.25	13.00	1.00	2.50	0.50	0.50	0.00	3.25	5.50	4.50	0.25	0.00	0.00	4.25	-1.925781	1.391602	5.973633	-40.740002	525.140015	-96.879997	999.00	-0.26	-0.08	0.00	0.00	0.00	0.00	0.00	0.00	0.25	0.00	0.00	0.00	0.00	0.00	0.00	0.00	0.00	0.00	0.349121	0.929688	1.669434	14.280000	-466.760010	-28.210001	4.00	0.00	0.00
3.04	21.25	28.25	9.00	13.25	1.25	3.25	0.50	0.75	0.00	3.25	5.50	4.75	0.50	0.00	0.00	4.00	-1.553711	0.168457	2.920410	-101.709999	245.419998	-42.910000	962.00	-0.24	-0.09	0.00	0.00	0.00	0.00	0.00	0.00	0.00	0.00	0.00	0.25	0.00	0.00	0.00	0.00	0.00	0.00	0.136719	0.450684	1.946777	119.489998	-487.760010	40.950001	3.00	0.00	0.00
3.05	18.75	25.50	9.00	13.00	1.50	3.75	0.75	1.25	0.00	3.50	5.75	4.50	1.00	0.00	0.00	4.00	-0.309082	0.104980	0.883301	-93.099998	103.809998	-13.790000	934.00	-0.22	-0.09	0.00	0.00	0.00	0.00	0.00	0.00	0.25	0.00	0.00	0.00	0.00	0.00	0.00	0.00	0.00	0.00	-0.094727	0.224609	1.979004	131.320007	-498.470001	56.139999	4.00	0.00	0.00
3.06	16.75	25.00	9.00	13.50	1.75	4.50	0.75	1.75	0.00	3.75	5.75	4.75	1.50	0.50	0.00	4.00	-0.385742	0.107910	1.327637	-67.550003	53.130001	-8.680000	947.00	-0.21	-0.10	0.00	0.00	0.00	0.00	0.00	0.00	0.00	0.00	0.00	0.00	0.00	0.00	0.00	0.00	0.00	0.00	-0.289062	0.201660	2.027344	126.070000	-503.790009	53.549999	0.00	0.00	0.00
3.07	16.50	24.50	9.25	14.25	2.00	5.50	0.75	2.00	0.00	3.75	5.75	4.50	1.75	0.50	0.00	4.00	-0.305176	0.305664	0.940918	-43.119999	23.379999	-5.040000	968.00	-0.21	-0.10	0.00	0.00	0.00	0.00	0.00	0.00	0.25	0.00	0.00	0.00	0.00	0.00	0.00	0.00	0.00	0.00	-0.482910	0.265137	2.181152	143.009995	-507.010010	35.630001	4.00	0.00	0.00
3.08	16.75	24.25	9.50	14.00	2.50	5.75	1.00	2.00	0.00	4.00	6.00	4.75	1.75	0.50	0.00	4.00	-0.249512	0.274414	0.946777	-47.459999	19.809999	-5.740000	988.00	-0.20	-0.10	0.00	0.00	0.00	0.00	0.00	0.00	0.00	0.00	0.00	0.00	0.00	0.00	0.00	0.00	0.00	0.00	-0.698730	0.255859	2.474121	191.240005	-511.070007	9.100000	0.00	0.00	0.00
3.09	17.25	23.75	9.75	13.75	2.50	5.50	1.00	2.00	0.00	3.75	6.00	4.75	1.50	0.75	0.00	4.00	-0.340820	0.171875	1.115234	-43.330002	16.799999	-9.380000	983.00	-0.20	-0.10	0.00	0.00	0.00	0.00	0.00	0.00	0.00	0.00	0.00	0.00	0.00	0.00	0.00	0.00	0.00	0.00	-1.047852	0.164551	2.851562	246.889999	-518.840027	-15.750000	0.00	0.00	0.00
3.10	16.50	22.50	9.25	12.75	2.25	5.00	1.00	1.50	0.00	3.75	5.75	4.50	1.50	0.75	0.00	4.00	-0.231934	0.147949	1.023926	-22.469999	16.100000	-8.400000	926.00	-0.20	-0.09	0.00	0.00	0.00	0.00	0.00	0.00	0.00	0.00	0.00	0.00	0.00	0.00	0.00	0.00	0.00	0.00	-1.529297	0.141602	3.118652	276.570007	-524.789978	-21.980000	0.00	0.00	0.00
3.11	15.25	21.50	8.75	11.50	2.25	4.25	0.75	1.25	0.00	3.75	5.75	4.50	1.25	0.50	0.00	4.00	-0.218750	0.172852	0.949707	-9.940000	20.580000	-5.810000	865.00	-0.20	-0.09	0.00	0.00	0.00	0.00	0.00	0.00	0.00	0.00	0.00	0.00	0.00	0.00	0.00	0.00	0.00	0.00	-1.840332	0.055664	3.123047	277.690002	-522.549988	-4.760000	0.00	0.00	0.00
3.12	13.75	19.25	8.25	9.75	2.00	3.50	1.00	1.00	0.00	3.75	5.75	4.25	0.75	0.50	0.00	4.00	-0.262207	0.157715	0.973633	-8.190000	25.340000	-4.410000	786.00	-0.19	-0.09	0.00	0.00	0.00	0.00	0.00	0.00	0.25	0.00	0.00	0.00	0.00	0.00	0.00	0.00	0.00	0.00	-2.235352	0.115234	3.049316	267.610016	-510.720001	27.230000	4.00	0.00	0.00
3.13	11.25	16.25	7.00	8.75	1.50	2.75	0.75	0.75	0.00	4.00	6.00	4.25	0.75	0.75	0.00	3.75	-0.220703	0.147461	0.927734	-7.560000	30.380001	-3.360000	692.00	-0.17	-0.09	0.00	0.00	0.00	0.00	0.00	0.00	0.00	0.00	0.00	0.00	0.00	0.00	0.00	0.00	0.00	0.00	-2.751953	0.332520	3.177246	266.209991	-493.010010	74.760002	0.00	0.00	0.00
3.14	7.75	11.50	5.50	7.00	1.25	1.50	0.75	0.25	0.00	3.75	5.75	4.00	0.25	0.50	0.00	4.25	-0.185547	0.163086	0.903320	-7.700000	34.790001	-1.540000	541.00	-0.14	-0.09	0.00	0.00	0.00	0.00	0.00	0.00	0.00	0.00	0.00	0.00	0.00	0.00	0.00	0.00	0.00	0.00	-3.292969	0.348633	3.336426	270.059998	-474.110016	140.559998	0.00	0.00	0.00
3.15	6.50	9.50	4.75	5.50	1.00	1.00	0.75	0.25	0.00	4.00	5.75	4.00	0.50	0.50	0.00	4.00	-0.083008	0.129883	0.893066	-12.530000	38.150002	-0.770000	480.00	-0.11	-0.09	0.00	0.00	0.00	0.00	0.00	0.00	0.25	0.00	0.00	0.00	0.00	0.00	0.00	0.00	0.00	0.00	-4.009277	0.133301	3.331055	275.450012	-454.580017	207.899994	4.00	0.00	0.00
3.16	4.75	6.75	3.00	4.00	0.75	0.75	0.75	0.50	0.00	4.00	6.00	4.25	0.75	1.25	0.00	4.00	-0.091309	0.098145	0.956543	-29.190001	35.349998	-5.040000	412.00	-0.05	-0.10	0.00	0.00	0.00	0.00	0.00	0.00	0.00	0.00	0.00	0.00	0.00	0.00	0.00	0.00	0.00	0.00	-4.950195	-0.009766	3.293457	290.429993	-429.100006	263.619995	0.00	0.00	0.00
3.17	3.25	5.00	1.75	1.75	0.50	0.00	0.75	0.25	0.00	4.00	6.25	4.50	0.75	0.75	0.00	4.00	-0.210449	0.111816	1.002441	-29.120001	30.380001	-7.700000	328.00	0.01	-0.10	0.00	0.00	0.00	0.00	0.00	0.00	0.25	0.00	0.00	0.00	0.00	0.00	0.00	0.00	0.00	0.00	-6.177734	-0.132324	2.970703	319.690002	-388.570007	314.579987	4.00	0.00	0.00
3.18	1.50	3.50	1.25	1.25	0.00	0.00	0.75	0.25	0.00	4.25	6.00	4.75	1.00	1.00	0.00	4.00	-0.260254	0.135254	0.930664	-25.690001	24.850000	-8.680000	287.00	0.08	-0.11	0.00	0.00	0.00	0.00	0.00	0.00	0.00	0.00	0.00	0.00	0.00	0.00	0.00	0.00	0.00	0.00	-7.328613	-0.563965	2.065430	328.860016	-323.049988	368.130005	0.00	0.00	0.00
3.19	0.50	1.00	0.25	0.25	0.25	0.00	0.75	0.50	0.00	4.50	6.50	5.00	1.00	1.75	0.25	4.00	-0.254883	0.125977	0.942383	-26.460001	21.559999	-6.930000	257.00	0.18	-0.12	0.00	0.00	0.00	0.00	0.00	0.00	0.00	0.00	0.00	0.00	0.00	0.00	0.00	0.00	0.00	0.00	-7.825684	-1.213867	0.586426	281.750000	-228.970001	415.100006	0.00	0.00	0.00
3.20	0.00	0.50	0.25	0.25	0.25	0.00	0.75	0.25	0.00	5.00	7.00	5.00	1.50	1.25	0.00	4.25	-0.225586	0.068359	0.951172	-27.020000	21.420000	-1.330000	253.00	0.21	-0.13	0.00	0.00	0.00	0.00	0.00	0.00	0.00	0.00	0.00	0.00	0.00	0.00	0.00	0.00	0.00	0.00	-7.972168	-1.478516	-0.435547	186.759995	-114.379997	420.420013	0.00	0.00	0.00
3.21	0.00	1.00	0.75	0.25	0.25	0.00	1.00	0.25	0.00	5.00	7.50	5.50	2.00	2.00	0.00	4.25	-0.207520	0.083984	1.129883	-16.030001	37.730000	5.530000	288.00	0.19	-0.12	0.00	0.00	0.00	0.00	0.00	0.00	0.00	0.00	0.00	0.00	0.00	0.00	0.00	0.00	0.00	0.00	-7.977051	-1.299316	-0.867676	109.620003	2.660000	352.799988	0.00	0.00	0.00
3.22	0.00	0.50	0.00	0.00	0.00	0.00	0.75	0.50	0.00	5.25	7.50	6.00	2.25	1.75	0.50	4.75	-0.282227	0.147949	0.941406	6.230000	48.439999	0.000000	286.00	0.22	-0.14	0.00	0.00	0.00	0.00	0.00	0.00	0.00	0.00	0.00	0.00	0.00	0.00	0.00	0.00	0.00	0.00	-7.764648	-1.060059	-0.528809	107.520004	98.699997	244.790009	0.00	0.00	0.00
3.23	0.00	0.00	0.00	0.00	0.00	0.00	0.75	0.50	0.00	6.00	8.00	6.75	3.00	2.75	0.00	4.75	-0.279297	0.177246	0.897949	12.110000	50.330002	-3.850000	312.00	0.23	-0.14	0.00	0.00	0.00	0.00	0.00	0.00	0.00	0.00	0.00	0.00	0.00	0.00	0.00	0.00	0.00	0.00	-10.867188	-1.090332	0.150391	150.289993	156.729996	145.880005	0.00	0.00	0.00
3.24	0.00	0.00	0.00	0.50	0.25	0.00	0.75	0.50	0.00	6.50	8.25	7.25	3.75	3.75	0.25	5.00	-0.270996	0.162109	0.910156	13.160000	46.340000	-9.170000	352.00	0.23	-0.14	2.00	4.75	0.25	1.25	0.00	0.00	0.00	0.00	0.00	0.00	0.00	0.00	0.00	0.00	0.00	0.00	1.818848	-1.967285	-5.363281	-78.260002	318.640015	19.809999	81.00	-0.39	-0.10
3.25	0.00	0.00	0.00	0.00	0.25	0.00	0.75	0.75	0.50	7.50	9.00	8.00	5.00	4.25	0.25	5.00	-0.284668	0.154297	0.798828	9.170000	36.889999	-12.250000	398.00	0.23	-0.13	10.75	15.50	1.25	5.25	0.00	0.00	0.00	0.00	0.00	0.00	0.00	0.00	0.00	0.00	0.00	0.00	-0.175293	-0.985840	1.971680	-226.309998	504.140015	-120.190002	325.00	-0.38	-0.07
3.26	0.00	0.00	0.00	0.00	0.00	0.00	0.75	0.75	1.00	7.75	9.75	8.75	5.75	5.50	0.50	5.25	-0.286133	0.106445	0.828125	-1.260000	21.770000	-13.510000	442.00	0.24	-0.13	20.00	21.00	4.75	9.25	0.00	0.00	0.00	0.00	0.00	0.00	0.00	0.00	0.00	0.00	0.00	0.00	-3.007812	1.085449	6.411133	-129.850006	604.380005	-143.430008	555.00	-0.37	-0.05
3.27	0.00	0.25	0.00	0.00	0.25	0.00	0.75	1.00	1.50	8.50	10.75	9.50	6.50	7.75	1.00	5.50	-0.281250	0.115723	0.887207	-7.280000	9.450000	-11.900000	515.00	0.24	-0.12	22.00	20.75	9.00	12.00	0.25	1.00	0.00	0.00	0.00	0.00	0.00	0.00	0.00	0.00	0.00	0.00	-3.039062	0.437988	7.262207	-133.000000	569.520020	-137.759995	664.00	-0.36	-0.05
3.28	0.00	0.00	0.00	0.00	0.25	0.00	0.50	1.25	2.75	9.50	12.00	10.50	7.25	9.50	0.75	6.25	-0.291504	0.139160	0.949707	-9.380000	4.620000	-10.570000	586.00	0.25	-0.11	21.50	17.75	11.00	12.75	1.25	3.00	0.50	0.75	0.00	0.00	0.00	0.00	0.75	0.00	0.00	0.00	-2.482422	2.929199	10.711914	-242.690002	422.799988	-111.090004	720.00	-0.33	-0.05
3.29	0.00	0.00	0.00	0.00	0.00	0.00	0.75	1.75	3.50	10.25	13.25	11.50	7.75	11.00	1.75	6.50	-0.270508	0.121094	1.003418	-5.390000	9.240000	-9.590000	665.00	0.25	-0.10	19.50	15.25	11.75	12.50	2.00	3.50	0.50	1.25	0.00	0.00	0.00	0.00	1.75	0.25	0.25	0.75	-1.088379	-0.051270	3.702637	-230.930008	169.330002	-31.990000	721.00	-0.30	-0.06
3.30	0.00	0.25	0.00	0.00	0.00	0.00	0.50	1.75	5.00	11.00	14.50	12.50	8.25	13.00	2.25	7.00	-0.304688	0.123535	1.040039	5.950000	29.960001	-10.080000	744.00	0.25	-0.09	17.00	13.25	11.75	12.25	2.75	3.25	0.75	1.25	0.25	0.00	0.00	0.00	2.00	1.00	0.50	1.00	-0.266113	-0.752441	1.845215	-128.589996	39.410000	-4.270000	699.00	-0.28	-0.06
3.31	0.00	0.00	0.00	0.00	0.00	0.00	0.50	1.75	5.25	11.75	15.50	13.75	8.75	15.50	3.00	7.50	-0.277344	0.110840	1.103516	17.710001	62.299999	-8.610000	813.00	0.26	-0.09	16.75	13.25	12.00	12.00	3.50	4.00	0.75	1.50	0.50	0.00	0.00	0.00	2.25	1.50	0.75	1.50	-0.273926	0.303711	0.814453	-41.790001	-11.130000	-3.080000	732.00	-0.26	-0.06
3.32	0.00	0.00	0.00	0.00	0.00	0.00	0.50	1.50	5.75	12.25	16.25	14.25	9.00	17.50	4.00	8.25	-0.297363	0.139648	1.191895	32.060001	105.559998	-7.910000	868.00	0.26	-0.08	17.00	13.50	12.25	12.50	4.00	4.50	0.75	1.50	0.50	0.00	0.00	0.00	2.50	1.75	1.00	1.50	-0.179688	0.304199	1.051758	-49.560001	-5.810000	5.460000	763.00	-0.25	-0.06
3.33	0.00	0.00	0.00	0.00	0.00	0.00	0.25	1.00	7.00	12.75	16.75	14.75	9.00	19.25	5.25	8.75	-0.344238	0.208496	1.164551	48.160000	154.979996	-11.410000	919.00	0.27	-0.07	16.75	13.25	12.50	12.75	5.00	5.00	0.75	1.75	1.00	0.25	0.00	0.00	2.25	2.00	1.00	1.50	-0.186523	0.053711	1.105957	-41.650002	-5.250000	1.050000	793.00	-0.24	-0.06
3.34	0.00	0.00	0.00	0.00	0.00	0.00	0.00	0.75	7.00	13.00	17.00	15.00	8.75	20.75	6.00	9.25	-0.379883	0.241211	1.213379	61.740002	209.160004	-19.110001	941.00	0.27	-0.07	17.25	14.00	12.25	12.75	4.75	4.75	0.75	1.50	0.50	0.00	0.00	0.00	2.50	2.00	1.00	1.50	-0.196777	0.133789	1.113770	-16.309999	-2.660000	3.080000	786.00	-0.25	-0.06
3.35	0.00	0.00	0.00	0.00	0.00	0.00	0.00	0.50	7.25	12.75	16.75	14.50	8.00	22.00	6.25	9.75	-0.415527	0.201660	1.369629	60.410000	265.019989	-27.440001	939.00	0.28	-0.06	17.00	14.00	12.00	12.50	4.50	4.75	0.75	1.50	0.50	0.25	0.00	0.00	2.00	1.50	0.75	1.25	-0.101562	0.104980	1.041016	1.610000	5.180000	5.530000	765.00	-0.26	-0.06
3.36	0.00	0.00	0.00	0.00	0.00	0.00	0.00	0.25	6.75	12.75	16.50	14.25	7.00	22.75	6.50	10.00	-0.551270	0.205078	1.474609	47.529999	321.579987	-29.469999	925.00	0.28	-0.05	15.75	14.00	11.25	11.50	3.75	3.75	0.75	1.25	0.50	0.00	0.00	0.00	1.50	1.25	0.75	1.00	-0.159668	0.151855	1.029297	12.460000	12.250000	5.320000	699.00	-0.27	-0.06
3.37	0.00	0.00	0.00	0.00	0.00	0.00	0.00	0.00	6.50	12.50	15.75	13.50	5.75	23.25	6.75	10.25	-0.609375	0.289551	1.750000	50.400002	455.209991	-27.650000	897.00	0.29	-0.05	14.50	13.25	10.25	11.50	3.00	3.25	0.75	0.75	0.75	0.00	0.00	0.00	1.75	0.75	0.75	1.00	-0.190430	0.115723	1.020020	20.020000	16.450001	5.880000	648.00	-0.27	-0.06
3.38	0.00	0.00	0.00	0.00	0.00	0.00	0.00	0.00	5.25	12.00	15.00	12.25	4.25	23.00	6.75	10.00	-0.658203	0.224609	1.876465	42.349998	538.440002	-34.369999	838.00	0.29	-0.04	12.50	12.50	9.25	10.50	2.25	2.50	0.50	0.75	0.00	0.00	0.00	0.00	1.00	0.50	0.25	0.75	-0.133301	0.114258	0.988281	29.400000	19.320000	8.610000	553.00	-0.29	-0.06
3.39	0.00	0.00	0.00	0.00	0.00	0.00	0.00	0.00	3.25	11.50	14.00	11.25	3.00	22.00	6.50	9.75	-0.870605	0.241211	2.434570	32.970001	624.330017	-42.840000	762.00	0.30	-0.04	9.75	11.25	7.75	9.50	1.50	2.00	0.50	0.75	0.25	0.00	0.00	0.00	1.00	0.50	0.25	0.75	-0.097656	0.145996	0.953125	34.720001	18.690001	10.850000	475.00	-0.28	-0.07
3.40	0.00	0.00	0.00	0.00	0.00	0.00	0.00	0.00	1.50	10.50	12.25	9.75	1.75	19.75	6.00	8.75	-1.588867	0.583984	3.185059	46.900002	702.169983	-41.020000	654.00	0.30	-0.05	7.50	9.00	6.00	8.00	0.75	1.00	0.50	0.50	0.00	0.00	0.00	0.00	1.00	0.50	0.50	0.25	-0.063477	0.146973	0.931641	33.250000	18.129999	9.870000	369.00	-0.28	-0.07
3.41	0.00	0.00	0.00	0.00	0.00	0.00	0.00	0.00	0.50	8.50	10.00	8.00	1.25	16.00	4.75	7.25	-2.268066	0.504883	4.552246	118.790001	746.270020	-22.610001	521.00	0.30	-0.05	5.00	7.00	4.00	6.50	0.25	0.75	0.25	0.75	0.00	0.00	0.00	0.00	1.00	0.25	0.00	0.50	-0.090820	0.177734	0.885742	8.470000	22.820000	5.180000	272.00	-0.29	-0.10
3.42	0.00	0.00	0.00	0.00	0.00	0.00	0.00	0.00	0.00	7.00	8.25	6.75	0.75	11.50	3.00	5.50	-3.117676	0.303711	6.223633	159.110001	747.950012	-12.530000	396.00	0.30	-0.06	2.50	4.75	1.75	4.25	0.00	0.25	0.25	0.50	0.25	0.00	0.00	0.00	1.00	0.00	0.25	0.25	-0.090820	0.177734	0.885742	8.470000	22.820000	5.180000	166.00	-0.26	-0.12
3.43	0.00	0.00	0.00	0.00	0.00	0.00	0.00	0.00	0.00	6.25	7.25	5.75	0.75	6.50	1.50	4.50	-2.391113	0.252930	6.877930	150.710007	721.349976	-7.770000	304.00	0.28	-0.08	1.75	2.50	1.00	2.50	0.00	0.00	0.25	0.50	0.00	0.00	0.25	0.00	0.00	0.25	0.00	0.00	-0.094727	0.075684	1.016113	1.540000	28.000000	7.630000	96.00	-0.27	-0.09
3.44	0.00	0.00	0.00	0.00	0.00	0.00	0.00	0.00	0.00	5.50	6.50	5.25	0.75	2.50	0.00	4.25	-0.163086	0.913574	7.232422	159.880005	669.059998	-12.180000	232.00	0.25	-0.12	0.75	1.25	0.50	1.75	0.00	0.00	0.25	0.25	0.00	0.25	0.25	0.00	1.00	0.00	0.00	0.25	-0.107422	0.128418	0.981445	2.870000	46.619999	12.110000	67.00	-0.17	-0.15
3.45	0.00	0.25	0.00	0.00	0.00	0.00	0.25	0.00	0.00	4.75	6.25	5.25	0.25	1.50	0.00	4.25	3.626953	-0.770020	5.479980	196.630005	575.049988	-61.599998	215.00	0.24	-0.12	0.50	1.00	0.00	0.50	0.00	0.00	0.25	0.25	0.00	0.50	0.25	0.00	1.50	0.00	0.00	0.25	-0.292480	0.055664	0.893555	-8.050000	52.080002	24.080000	50.00	0.00	0.00
3.46	0.00	0.00	0.00	0.00	0.00	0.00	0.25	0.00	0.00	4.50	6.25	5.00	0.25	1.25	0.00	4.25	1.047363	3.484375	9.217285	168.559998	359.589996	-192.919998	205.00	0.25	-0.13	0.00	0.50	0.00	0.50	0.00	0.00	0.25	0.25	0.25	1.00	0.50	0.50	1.75	0.00	0.00	0.25	-0.050781	0.157715	1.080566	-13.580000	68.389999	30.520000	58.00	0.09	-0.18
3.47	0.00	0.00	0.00	0.00	0.00	0.00	0.50	0.00	0.00	4.75	6.50	5.00	0.00	0.50	0.00	4.25	3.148438	-0.339844	6.373047	175.559998	13.300000	-208.320007	205.00	0.24	-0.12	0.00	0.00	0.00	0.00	0.00	0.00	0.25	0.25	0.00	0.75	1.00	0.75	2.50	0.25	0.00	0.50	-0.080566	0.212891	0.951660	-1.330000	65.239998	20.930000	60.00	0.19	-0.23
3.48	0.00	0.00	0.00	0.00	0.00	0.00	0.25	0.00	0.00	4.75	6.00	4.75	0.00	0.25	0.00	4.25	2.461914	0.102539	3.422363	136.570007	-145.740005	-256.480011	192.00	0.24	-0.13	0.00	0.00	0.00	0.00	0.00	0.00	0.25	0.25	0.00	1.25	1.50	1.50	3.00	0.25	0.00	0.50	-0.145996	0.276367	0.867676	7.700000	50.959999	6.580000	83.00	0.20	-0.23
3.49	0.00	0.00	0.00	0.00	0.00	0.00	0.50	0.00	0.00	4.50	6.00	4.50	0.00	0.50	0.00	4.00	1.822754	0.401367	3.016113	74.760002	-170.940002	-287.279999	191.00	0.24	-0.12	0.00	0.00	0.00	0.00	0.00	0.00	0.25	0.50	0.25	1.25	1.75	1.75	3.75	0.75	0.00	1.25	-0.206055	0.253418	0.814941	-5.040000	29.750000	-1.330000	110.00	0.21	-0.22
3.50	0.00	0.00	0.00	0.00	0.00	0.00	0.50	0.00	0.00	4.25	5.75	4.50	0.00	0.00	0.00	4.25	1.959473	0.982910	3.104004	30.170000	-187.740005	-268.799988	183.00	0.24	-0.13	0.00	0.00	0.00	0.00	0.00	0.00	0.25	0.50	0.25	1.50	2.50	2.25	4.75	0.75	0.00	1.25	-0.190430	0.248535	0.830078	-21.910000	6.160000	-8.190000	135.00	0.21	-0.22
3.51	0.00	0.00	0.00	0.00	0.00	0.00	0.50	0.00	0.00	4.25	5.75	4.50	0.00	0.00	0.00	4.25	2.030273	1.051270	3.183594	-7.000000	-244.300003	-212.309998	183.00	0.24	-0.13	0.00	0.00	0.00	0.25	0.00	0.00	0.25	0.75	0.50	2.00	3.00	3.00	5.50	1.25	0.50	1.50	-0.196289	0.208496	0.840820	-27.090000	-17.500000	-16.379999	180.00	0.21	-0.21
3.52	0.00	0.00	0.00	0.00	0.00	0.00	0.50	0.00	0.00	4.25	5.75	4.50	0.00	0.00	0.00	4.00	1.692383	0.924316	2.914551	-41.930000	-316.610016	-143.149994	181.00	0.23	-0.13	0.00	0.00	0.00	0.00	0.00	0.00	0.25	1.50	0.50	2.75	3.75	4.00	6.25	1.75	0.50	2.00	-0.206055	0.161133	0.933594	-32.200001	-36.400002	-21.210001	229.00	0.21	-0.21
3.53	0.00	0.00	0.00	0.00	0.00	0.00	0.50	0.00	0.00	4.00	5.75	4.25	0.00	0.00	0.00	4.25	1.478516	0.711426	2.501953	-78.260002	-369.670013	-77.559998	178.00	0.24	-0.13	0.00	0.00	0.00	0.00	0.00	0.00	0.25	2.00	1.25	3.50	5.75	6.00	7.50	2.75	0.75	2.25	-0.209473	0.131348	0.887207	-36.400002	-48.160000	-24.010000	319.00	0.21	-0.19
3.54	0.00	0.00	0.00	0.00	0.00	0.00	0.50	0.00	0.00	4.00	5.50	4.25	0.00	0.00	0.00	4.00	1.258301	0.622070	2.258789	-107.029999	-402.779999	-22.960001	174.00	0.23	-0.13	0.00	0.00	0.00	0.00	0.25	0.00	0.50	2.75	2.25	4.50	7.75	7.50	8.25	4.25	1.00	3.50	-0.145508	0.134766	0.947754	-35.980000	-53.340000	-23.799999	426.00	0.21	-0.16
3.55	0.00	0.00	0.00	0.00	0.00	0.00	0.50	0.00	0.00	3.75	5.50	4.00	0.00	0.25	0.00	4.25	1.029785	0.573242	2.258789	-115.150002	-429.519989	19.530001	172.00	0.24	-0.13	0.00	0.00	0.00	0.00	0.00	0.00	0.50	3.50	3.25	7.00	9.25	8.50	9.00	7.00	1.25	5.00	-0.184082	0.134277	1.076660	-31.219999	-41.790001	-22.750000	541.00	0.23	-0.14
3.56	0.00	0.00	0.00	0.00	0.00	0.00	0.50	0.00	0.00	4.00	5.50	4.00	0.00	0.00	0.00	4.00	0.746582	0.498047	2.371582	-106.190002	-460.529999	48.860001	171.00	0.24	-0.13	0.00	0.00	0.00	0.25	0.25	0.00	0.50	4.75	4.75	8.25	10.50	9.00	9.50	8.50	2.25	5.75	-0.187012	0.074219	1.123047	-13.440001	-9.800000	-21.000000	648.00	0.22	-0.13
3.57	0.00	0.25	0.00	0.00	0.00	0.00	0.50	0.00	0.00	3.75	5.25	4.00	0.00	0.00	0.00	4.00	0.382324	0.380859	2.355469	-89.459999	-496.510010	64.190002	168.00	0.23	-0.13	0.00	0.00	0.00	0.00	0.00	0.00	0.50	4.50	5.50	9.25	11.25	10.00	9.75	11.00	3.25	6.50	-0.181152	0.114746	1.188477	-0.980000	24.290001	-17.990000	715.00	0.24	-0.11
3.58	0.00	0.00	0.00	0.00	0.00	0.00	0.50	0.00	0.00	3.75	5.25	3.75	0.00	0.00	0.00	4.00	-0.352051	0.326172	2.323730	-53.900002	-541.729980	55.720001	163.00	0.24	-0.13	0.00	0.00	0.00	0.00	0.00	0.00	0.25	3.75	6.50	10.00	12.00	10.50	10.00	13.75	3.75	7.25	-0.199219	0.161133	1.263672	10.640000	66.290001	-15.820000	769.00	0.25	-0.10
3.59	0.00	0.00	0.00	0.00	0.00	0.00	0.50	0.00	0.00	3.75	5.50	3.75	0.00	0.00	0.00	4.00	-0.648438	0.405762	2.519531	-30.030001	-554.260010	40.110001	166.00	0.24	-0.13	0.00	0.00	0.00	0.00	0.00	0.00	0.25	3.00	7.50	10.50	12.75	11.00	10.00	16.00	5.00	8.00	-0.184570	0.143555	1.324707	33.040001	126.070000	-13.930000	826.00	0.26	-0.08
3.60	0.00	0.00	0.00	0.00	0.00	0.00	0.50	0.00	0.00	3.75	5.75	4.00	0.00	0.00	0.00	4.00	-0.939453	0.498047	2.791016	-1.540000	-568.890015	24.710001	171.00	0.24	-0.13	0.00	0.00	0.00	0.00	0.00	0.00	0.00	2.00	7.50	10.75	13.00	11.00	9.75	18.25	6.00	9.00	-0.300781	0.193848	1.391113	58.450001	194.110001	-15.540000	845.00	0.27	-0.07
3.61	0.00	0.00	0.00	0.00	0.00	0.00	0.50	0.00	0.00	3.75	5.50	3.75	0.00	0.00	0.00	4.00	-1.026855	0.733398	3.166016	20.299999	-573.580017	12.530000	166.00	0.24	-0.13	0.00	0.00	0.00	0.00	0.00	0.00	0.00	1.25	7.50	10.75	13.00	11.00	9.00	20.25	6.75	9.50	-0.267090	0.175293	1.412109	58.939999	260.190002	-16.309999	854.00	0.28	-0.06
3.62	0.00	0.00	0.00	0.00	0.00	0.00	0.50	0.00	0.00	3.50	5.75	3.75	0.00	0.00	0.00	4.00	-1.646484	0.724609	3.408691	57.330002	-592.900024	3.570000	166.00	0.24	-0.13	0.00	0.00	0.00	0.00	0.00	0.00	0.00	0.25	7.50	10.75	12.75	10.75	8.50	22.00	7.25	10.00	-0.311523	0.255859	1.546387	37.869999	328.440002	-19.250000	853.00	0.29	-0.05
3.63	0.00	0.00	0.00	0.00	0.00	0.00	0.50	0.00	0.00	3.75	5.50	3.50	0.00	0.00	0.00	4.00	-2.188965	0.701660	3.571777	101.290001	-605.289978	-1.890000	163.00	0.24	-0.12	0.00	0.00	0.00	0.00	0.00	0.00	0.00	0.00	7.00	10.25	12.25	10.00	7.50	22.75	7.75	10.50	-0.475098	0.691895	1.988770	26.040001	465.570007	-49.490002	830.00	0.30	-0.04
3.64	0.00	0.00	0.00	0.00	0.00	0.00	0.50	0.00	0.00	3.75	5.50	3.50	0.00	0.25	0.00	4.25	-2.762207	0.724121	3.524414	140.630005	-607.809998	-0.420000	167.00	0.24	-0.12	0.00	0.00	0.00	0.00	0.00	0.00	0.00	0.00	6.25	10.00	11.50	9.25	6.50	23.00	8.00	10.50	-0.426758	0.492188	1.849121	33.740002	532.489990	-75.739998	797.00	0.30	-0.04
3.65	0.00	0.00	0.00	0.00	0.00	0.00	0.50	0.00	0.00	3.50	5.25	3.50	0.00	0.00	0.00	4.00	-3.301758	0.789551	3.376953	166.039993	-593.599976	10.430000	158.00	0.24	-0.13	0.00	0.00	0.00	0.00	0.00	0.00	0.00	0.00	5.00	9.25	10.25	8.25	5.25	22.50	7.75	10.25	-0.764160	0.489746	2.205566	2.800000	607.809998	-100.800003	731.00	0.30	-0.03
3.66	0.00	0.00	0.00	0.00	0.00	0.00	0.50	0.00	0.00	3.50	5.25	3.50	0.00	0.00	0.00	4.00	-3.832031	0.884766	3.122559	180.600006	-563.359985	32.619999	158.00	0.24	-0.13	0.00	0.00	0.00	0.00	0.00	0.00	0.00	0.00	3.00	8.50	9.25	7.50	4.00	20.00	7.25	9.25	-0.907227	0.740723	2.822754	5.390000	688.940002	-113.400002	635.00	0.31	-0.04
3.67	0.00	0.00	0.00	0.00	0.00	0.00	0.50	0.00	0.00	3.50	5.75	3.75	0.00	0.00	0.00	4.25	-4.167480	0.897949	2.811035	196.770004	-519.679993	66.709999	167.00	0.24	-0.13	0.00	0.00	0.00	0.00	0.00	0.00	0.00	0.00	1.75	6.75	7.75	5.50	2.75	16.75	6.25	7.75	-1.698242	0.629883	3.968262	39.410000	751.239990	-112.349998	507.00	0.31	-0.04
3.68	0.00	0.00	0.00	0.00	0.00	0.00	0.25	0.00	0.00	3.50	5.50	3.75	0.00	0.00	0.00	4.00	-4.463379	0.620605	2.595703	227.149994	-462.140015	112.629997	159.00	0.24	-0.14	0.00	0.00	0.00	0.00	0.00	0.00	0.00	0.00	1.00	4.25	4.50	3.00	2.00	12.50	5.00	6.00	-2.311523	1.032715	5.454590	66.919998	777.770020	-110.110001	345.00	0.32	-0.03
