# time	left pressure 1[N/cm²]	left pressure 2[N/cm²]	left pressure 3[N/cm²]	left pressure 4[N/cm²]	left pressure 5[N/cm²]	left pressure 6[N/cm²]	left pressure 7[N/cm²]	left pressure 8[N/cm²]	left pressure 9[N/cm²]	left pressure 10[N/cm²]	left pressure 11[N/cm²]	left pressure 12[N/cm²]	left pressure 13[N/cm²]	left pressure 14[N/cm²]	left pressure 15[N/cm²]	left pressure 16[N/cm²]	left acceleration X[g]	left acceleration Y[g]	left acceleration Z[g]	left angular X[dps]	left angular Y[dps]	left angular Z[dps]	left total force[N]	left center of pressure X[%]	left center of pressure Y[%]	right pressure 1[N/cm²]	right pressure 2[N/cm²]	right pressure 3[N/cm²]	right pressure 4[N/cm²]	right pressure 5[N/cm²]	right pressure 6[N/cm²]	right pressure 7[N/cm²]	right pressure 8[N/cm²]	right pressure 9[N/cm²]	right pressure 10[N/cm²]	right pressure 11[N/cm²]	right pressure 12[N/cm²]	right pressure 13[N/cm²]	right pressure 14[N/cm²]	right pressure 15[N/cm²]	right pressure 16[N/cm²]	right acceleration X[g]	right acceleration Y[g]	right acceleration Z[g]	right angular X[dps]	right angular Y[dps]	right angular Z[dps]	right total force[N]	right center of pressure X[%]	right center of pressure Y[%]
0.00	1.25	0.25	0.25	0.25	0.00	0.25	0.00	0.25	0.00	0.50	0.50	0.00	0.00	1.00	0.25	0.25	-0.295898	0.049316	0.917480	-0.910000	2.520000	0.210000	60.00	-0.01	-0.02																									
0.01	1.25	0.00	0.50	0.50	0.00	0.25	0.00	0.25	0.00	0.50	0.25	0.00	0.00	0.50	0.25	0.00	-0.297852	0.039062	0.918945	-0.910000	2.310000	0.280000	54.00	-0.09	-0.02	8.50	5.75	7.00	6.00	3.00	3.75	1.25	1.75	2.75	1.75	2.50	2.50	2.00	2.25	1.00	0.50	-0.256348	0.091309	0.922363	-2.450000	-5.530000	1.540000	670.00	-0.12	-0.05
0.02	1.25	0.00	0.50	0.50	0.00	0.00	0.00	0.75	0.00	0.75	0.25	0.00	0.00	0.50	0.25	0.00	-0.295410	0.043945	0.926270	-1.050000	2.310000	0.140000	63.00	-0.06	-0.06	8.50	5.75	7.00	5.75	2.75	4.00	1.25	1.75	2.50	1.75	2.50	2.50	2.00	2.25	1.00	0.50	-0.251953	0.089844	0.920410	-2.520000	-5.600000	1.470000	663.00	-0.12	-0.05
0.03	1.50	0.50	1.00	0.25	0.00	0.00	0.00	0.50	0.00	0.50	0.50	0.00	0.00	0.25	0.50	0.00	-0.291992	0.056152	0.926270	-1.330000	2.310000	0.000000	71.00	-0.11	-0.03	8.75	5.75	6.75	6.00	2.75	4.00	1.25	1.75	2.50	1.75	2.50	2.50	2.00	2.50	1.50	0.75	-0.257812	0.091309	0.918945	-2.520000	-5.390000	1.470000	676.00	-0.11	-0.05
0.04	1.00	0.25	0.75	0.25	0.00	0.25	0.00	0.50	0.25	0.75	0.50	0.25	0.25	0.50	0.00	0.25	-0.298340	0.044434	0.926758	-1.610000	2.240000	-0.070000	73.00	-0.03	-0.06	8.50	5.50	6.75	5.75	2.75	4.00	1.25	1.75	2.75	1.50	2.75	2.75	2.00	2.00	1.50	0.75	-0.256836	0.088379	0.928711	-2.660000	-5.320000	1.400000	669.00	-0.11	-0.05
0.05	0.75	0.00	1.00	0.50	0.00	0.50	0.00	0.75	0.25	0.50	0.25	0.00	0.00	0.50	0.75	0.00	-0.300781	0.042480	0.922852	-1.750000	2.240000	-0.070000	77.00	-0.02	-0.07	8.50	5.50	7.00	5.75	2.75	3.75	1.25	1.75	2.75	2.25	2.75	2.50	2.00	2.00	1.25	0.75	-0.258301	0.090332	0.921387	-2.520000	-5.180000	1.400000	672.00	-0.11	-0.05
0.06	1.25	0.00	1.00	0.50	0.00	0.25	0.00	1.00	0.25	0.75	0.25	0.00	0.00	0.50	0.25	0.00	-0.299805	0.042969	0.927734	-1.680000	2.030000	-0.070000	81.00	-0.06	-0.06	8.25	5.25	6.75	6.00	3.00	3.75	1.25	1.50	2.75	2.00	2.50	2.50	2.00	2.50	1.00	0.50	-0.263672	0.086914	0.925781	-2.520000	-5.250000	1.470000	659.00	-0.11	-0.05
0.07	1.00	0.00	0.75	0.25	0.00	0.25	0.00	1.00	0.25	0.50	0.50	0.25	0.00	0.50	0.50	0.25	-0.298340	0.049805	0.930176	-1.610000	1.960000	0.070000	80.00	0.01	-0.09	8.25	5.50	6.75	6.00	3.00	3.75	1.25	1.75	3.00	2.25	2.50	2.50	2.00	2.25	1.25	0.75	-0.259277	0.091309	0.922363	-2.520000	-5.390000	1.470000	676.00	-0.10	-0.05
0.08	0.75	0.00	1.00	0.50	0.00	0.25	0.00	0.75	0.00	0.75	0.50	0.25	0.00	0.25	0.25	0.00	-0.296875	0.045410	0.925293	-1.610000	1.820000	0.280000	71.00	-0.05	-0.09	8.00	5.25	7.00	5.75	3.00	3.75	1.50	1.50	3.00	2.00	2.50	2.75	2.25	2.25	1.25	0.75	-0.258789	0.095215	0.927246	-2.660000	-5.530000	1.540000	673.00	-0.10	-0.05
0.09	1.00	0.00	0.75	0.25	0.00	0.00	0.00	0.75	0.00	0.75	0.25	0.00	0.00	0.50	0.25	0.00	-0.298828	0.041016	0.930176	-1.750000	1.750000	0.350000	60.00	-0.04	-0.05	8.25	5.00	6.75	5.75	3.00	3.75	1.25	1.75	2.75	2.25	3.00	2.50	2.25	2.00	1.00	0.75	-0.252930	0.088867	0.926270	-2.520000	-5.530000	1.470000	666.00	-0.10	-0.05
0.10	1.25	0.00	0.50	0.50	0.00	0.25	0.00	0.75	0.00	0.50	0.75	0.00	0.00	0.50	0.75	0.00	-0.302734	0.048828	0.921387	-1.750000	1.610000	0.420000	76.00	-0.01	-0.08	8.00	5.25	6.75	5.75	2.75	3.75	1.50	1.75	3.25	2.25	2.75	2.50	2.25	2.25	1.25	0.50	-0.257812	0.092773	0.928223	-2.590000	-5.600000	1.540000	676.00	-0.10	-0.05
0.11	1.00	0.00	1.00	0.00	0.00	0.00	0.00	0.50	0.25	0.50	0.25	0.25	0.00	1.00	0.00	0.00	-0.302246	0.046875	0.931641	-1.680000	1.330000	0.560000	61.00	-0.01	0.02	8.25	5.00	6.75	5.75	3.00	3.75	1.25	1.75	3.00	2.25	2.75	2.75	2.25	2.50	1.50	0.75	-0.260254	0.092285	0.922363	-2.660000	-5.740000	1.400000	682.00	-0.09	-0.05
0.12	0.75	0.00	1.00	0.00	0.00	0.00	0.00	0.75	0.25	0.50	0.25	0.25	0.00	0.25	0.50	0.00	-0.292480	0.047363	0.931152	-1.610000	1.120000	0.700000	62.00	-0.00	-0.05	8.00	5.00	6.75	5.75	2.75	3.25	1.25	1.50	3.00	2.00	2.75	2.50	2.00	2.25	1.25	0.75	-0.261230	0.086914	0.924316	-2.730000	-5.880000	1.470000	650.00	-0.10	-0.04
0.13	0.75	0.25	0.75	0.25	0.00	0.25	0.00	1.00	0.25	0.50	0.50	0.25	0.00	0.75	0.25	0.00	-0.294922	0.046387	0.926758	-1.680000	1.120000	0.490000	77.00	-0.00	-0.08	8.00	5.00	6.75	5.50	2.75	3.50	1.25	1.50	3.00	2.00	3.00	2.75	2.25	2.25	1.50	0.75	-0.259277	0.090820	0.919434	-2.730000	-5.810000	1.540000	662.00	-0.09	-0.05
0.14	1.00	0.00	1.25	0.25	0.00	0.25	0.00	0.25	0.25	0.75	0.25	0.00	0.00	0.50	0.50	0.00	-0.305176	0.041992	0.927246	-1.680000	1.050000	0.560000	68.00	-0.03	0.02	8.25	5.00	6.75	5.50	3.00	3.75	1.50	1.50	3.25	2.25	3.00	2.75	2.25	2.75	1.50	0.75	-0.257812	0.088867	0.919434	-2.870000	-5.810000	1.540000	688.00	-0.09	-0.04
0.15	1.25	0.00	0.75	0.50	0.00	0.00	0.00	0.25	0.25	1.00	0.50	0.25	0.00	0.75	0.25	0.00	-0.291016	0.045898	0.928223	-1.750000	0.980000	0.700000	73.00	-0.01	0.01	8.00	5.00	6.75	5.75	3.00	3.50	1.50	1.75	3.25	2.25	3.00	2.75	2.25	2.50	1.25	0.75	-0.261230	0.097656	0.930664	-2.660000	-5.740000	1.680000	684.00	-0.09	-0.05
0.16	1.00	0.25	0.75	0.50	0.00	0.00	0.00	1.00	0.25	0.50	0.50	0.00	0.00	0.25	0.25	0.00	-0.294434	0.043457	0.927734	-1.750000	0.910000	0.630000	72.00	-0.07	-0.08	7.75	4.75	6.50	5.50	2.75	3.50	1.50	1.50	3.00	2.25	3.00	2.50	2.00	2.50	1.50	1.00	-0.261230	0.087891	0.925293	-2.590000	-5.670000	1.750000	658.00	-0.09	-0.04
0.17	1.25	0.50	0.75	0.50	0.00	0.00	0.00	0.50	0.25	0.75	0.25	0.25	0.00	0.50	0.75	0.00	-0.293945	0.047852	0.932617	-1.750000	1.120000	0.700000	81.00	-0.03	-0.04	8.00	5.00	6.75	5.50	2.75	3.50	1.50	1.75	3.25	2.50	3.00	2.75	2.50	2.75	1.25	0.75	-0.259277	0.090332	0.926270	-2.520000	-5.880000	1.680000	685.00	-0.08	-0.05
0.18	1.00	0.00	0.75	0.00	0.00	0.50	0.00	0.50	0.00	0.75	0.25	0.00	0.00	0.50	0.00	0.00	-0.297852	0.045898	0.925781	-1.820000	1.050000	0.630000	56.00	-0.07	-0.04	8.00	5.00	6.50	5.50	2.75	3.50	1.50	1.75	3.25	2.50	3.00	2.75	2.25	2.50	1.50	0.50	-0.260254	0.096680	0.926270	-2.520000	-6.090000	1.750000	678.00	-0.08	-0.04
0.19	1.00	0.25	1.00	0.50	0.00	0.25	0.00	1.00	0.00	0.50	0.50	0.25	0.00	0.25	0.25	0.25	-0.291992	0.049316	0.926758	-1.960000	1.260000	0.420000	79.00	-0.07	-0.11	7.75	4.75	6.75	5.75	2.75	3.50	1.50	1.75	3.75	2.25	3.00	2.75	2.25	2.75	1.50	0.75	-0.260254	0.090820	0.928711	-2.450000	-6.230000	1.750000	688.00	-0.08	-0.04
0.20	0.75	0.00	0.75	0.00	0.00	0.25	0.00	0.75	0.25	0.75	0.50	0.25	0.00	0.50	0.50	0.00	-0.294922	0.051758	0.931152	-2.030000	1.260000	0.280000	70.00	0.04	-0.06	7.75	4.75	6.75	5.50	2.50	3.50	1.50	1.75	3.50	2.50	3.25	3.00	2.50	3.00	1.25	0.75	-0.262695	0.092285	0.925293	-2.590000	-6.370000	1.750000	689.00	-0.07	-0.04
0.21	1.00	0.50	0.75	0.00	0.00	0.50	0.00	0.75	0.25	0.75	0.50	0.25	0.00	0.50	0.50	0.25	-0.293457	0.043457	0.932129	-2.030000	1.400000	0.210000	84.00	-0.01	-0.07	8.00	4.75	6.75	5.50	2.75	3.75	1.50	1.75	3.25	2.25	3.00	2.75	2.25	3.00	1.50	0.75	-0.255859	0.089355	0.925781	-2.660000	-6.440000	1.680000	686.00	-0.08	-0.04
0.22	1.00	0.00	1.00	0.50	0.00	0.50	0.00	0.75	0.25	1.00	0.25	0.50	0.00	0.50	0.50	0.00	-0.298828	0.044922	0.924805	-2.030000	1.540000	0.210000	90.00	-0.01	-0.07	7.75	4.50	6.75	5.50	2.75	3.50	1.50	1.75	3.50	2.50	3.00	3.00	2.25	2.50	1.25	1.00	-0.255371	0.085449	0.918457	-2.730000	-6.510000	1.680000	680.00	-0.08	-0.04
0.23	1.00	0.00	0.75	0.00	0.00	0.00	0.00	1.00	0.00	0.50	0.50	0.00	0.00	0.50	0.25	0.00	-0.294434	0.048340	0.931641	-1.890000	1.540000	0.280000	61.00	-0.03	-0.07	7.75	4.75	6.75	5.50	2.75	3.50	1.50	1.75	3.25	2.50	3.00	2.75	2.50	2.75	1.25	1.00	-0.262207	0.090820	0.924805	-2.730000	-6.580000	1.610000	681.00	-0.08	-0.05
0.24	0.75	0.50	1.00	0.50	0.00	0.25	0.00	0.50	0.00	0.75	0.50	0.25	0.00	0.50	0.50	0.00	-0.296875	0.044922	0.930664	-2.030000	1.750000	0.140000	77.00	-0.04	-0.07	8.00	4.50	6.75	5.50	2.75	3.50	1.50	1.75	3.50	2.50	3.25	3.00	2.25	2.75	1.25	1.00	-0.256348	0.086914	0.925781	-2.730000	-6.510000	1.680000	689.00	-0.08	-0.04
0.25	1.00	0.00	1.00	0.50	0.00	0.00	0.00	0.50	0.25	1.00	0.25	0.00	0.00	0.50	0.75	0.00	-0.298828	0.047852	0.927246	-2.100000	1.750000	0.140000	75.00	0.00	-0.01	8.00	4.75	6.50	5.25	3.00	3.50	1.50	1.75	4.00	2.75	3.25	3.00	2.50	2.25	1.25	0.75	-0.256348	0.090820	0.926758	-2.730000	-6.370000	1.680000	695.00	-0.07	-0.04
0.26	0.75	0.00	0.75	0.25	0.00	0.00	0.00	0.25	0.25	1.00	0.25	0.25	0.00	0.50	0.00	0.00	-0.296387	0.046387	0.927246	-2.100000	1.750000	0.140000	55.00	0.00	0.02	8.00	4.50	6.75	5.50	2.75	3.25	1.50	1.75	3.50	2.50	3.25	3.00	2.25	2.75	1.25	0.75	-0.259277	0.091797	0.921387	-2.730000	-6.160000	1.610000	684.00	-0.08	-0.04
0.27	1.25	0.00	0.50	0.50	0.00	0.00	0.00	1.00	0.25	0.75	0.25	0.25	0.00	0.25	0.50	0.25	-0.301758	0.047852	0.930176	-2.170000	1.680000	0.280000	77.00	-0.02	-0.08	8.00	4.75	6.75	5.50	2.75	3.25	1.50	1.75	3.75	2.50	3.25	3.00	2.50	2.75	1.25	1.00	-0.262207	0.090820	0.925781	-2.520000	-6.020000	1.610000	695.00	-0.07	-0.04
0.28	1.00	0.00	1.00	0.25	0.00	0.25	0.00	1.00	0.00	0.75	0.25	0.50	0.00	0.75	0.50	0.00	-0.296387	0.048340	0.924316	-2.240000	1.890000	0.210000	83.00	-0.00	-0.08	7.75	4.75	6.50	5.25	2.75	3.25	1.50	1.75	3.50	2.75	3.25	3.00	2.50	2.50	1.25	1.00	-0.262207	0.089844	0.919922	-2.380000	-6.020000	1.680000	682.00	-0.07	-0.04
0.29	1.00	0.25	1.00	0.50	0.00	0.75	0.00	0.75	0.25	0.75	0.25	0.25	0.00	0.75	0.50	0.00	-0.292969	0.044434	0.926758	-2.240000	1.890000	0.280000	92.00	-0.03	-0.07	7.75	4.50	6.75	5.25	2.75	3.50	1.50	1.75	3.50	2.50	3.25	3.00	2.50	2.75	1.50	0.75	-0.265625	0.094727	0.928223	-2.310000	-5.670000	1.610000	687.00	-0.07	-0.04
0.30	1.00	0.00	0.50	0.25	0.00	0.00	0.00	0.50	0.00	0.75	0.50	0.25	0.00	0.25	0.25	0.00	-0.294434	0.047852	0.934082	-2.240000	1.890000	0.140000	56.00	-0.02	-0.06	7.75	4.50	6.75	5.25	3.00	3.50	1.50	1.75	4.00	2.75	3.25	3.25	2.50	2.75	1.50	0.75	-0.265625	0.094727	0.928223	-2.310000	-5.670000	1.610000	704.00	-0.07	-0.04
0.31	1.00	0.25	1.00	0.50	0.00	0.25	0.00	0.75	0.00	0.75	0.50	0.25	0.00	0.50	0.25	0.00	-0.296875	0.043457	0.933105	-2.240000	1.820000	0.140000	79.00	-0.06	-0.08	7.50	4.25	6.75	5.25	2.75	3.50	1.50	1.75	3.75	2.75	3.50	3.00	2.50	2.75	1.50	0.75	-0.261230	0.090332	0.926758	-2.240000	-5.670000	1.680000	691.00	-0.06	-0.04
0.32	1.00	0.00	0.50	0.00	0.00	0.00	0.00	0.50	0.50	0.75	0.50	0.25	0.00	0.25	0.50	0.25	-0.298340	0.052734	0.925293	-2.240000	2.030000	0.070000	65.00	0.06	-0.02	8.00	4.25	6.75	5.50	2.75	3.25	1.50	1.75	4.00	2.50	3.50	3.25	2.50	2.75	1.75	1.25	-0.264648	0.089355	0.918945	-2.380000	-5.810000	1.610000	707.00	-0.06	-0.04
0.33	1.00	0.00	1.00	0.25	0.00	0.00	0.00	0.50	0.25	1.00	0.50	0.25	0.00	0.00	0.50	0.00	-0.298340	0.052734	0.925293	-2.240000	2.030000	0.070000	70.00	-0.01	-0.03	7.75	4.25	6.50	5.25	2.75	3.25	1.50	2.00	4.00	2.75	3.50	3.25	2.50	2.75	1.75	1.00	-0.262695	0.094238	0.928223	-2.450000	-5.880000	1.540000	704.00	-0.06	-0.04
0.34	0.75	0.00	0.75	0.50	0.00	0.50	0.00	0.50	0.25	1.00	0.75	0.00	0.00	0.25	0.50	0.00	-0.299316	0.046875	0.934082	-2.450000	2.100000	-0.070000	76.00	0.00	-0.06	7.75	4.00	6.50	5.25	2.75	3.25	1.75	1.75	3.75	2.75	3.50	3.25	2.75	3.00	1.50	1.00	-0.264648	0.092285	0.923340	-2.520000	-5.810000	1.470000	699.00	-0.06	-0.04
0.35	0.75	0.00	0.75	0.50	0.00	0.50	0.00	1.00	0.00	0.50	0.50	0.25	0.00	0.50	0.50	0.00	-0.299316	0.046387	0.932617	-2.520000	2.030000	0.000000	78.00	-0.02	-0.12	8.00	4.25	6.75	5.25	2.50	3.50	1.75	2.00	4.00	2.50	3.75	3.00	2.50	3.00	1.50	1.00	-0.261719	0.089844	0.925781	-2.450000	-5.740000	1.470000	711.00	-0.06	-0.04
0.36	0.75	0.00	0.50	0.25	0.00	0.25	0.00	1.00	0.25	0.75	0.50	0.00	0.00	0.50	0.75	0.00	-0.298828	0.043945	0.931641	-2.380000	2.030000	0.000000	75.00	0.05	-0.08	7.50	4.00	6.75	5.25	2.50	3.50	1.75	1.75	4.00	2.75	3.75	3.25	2.75	2.50	1.50	1.00	-0.259766	0.092285	0.930176	-2.520000	-5.670000	1.540000	701.00	-0.06	-0.04
0.37	0.50	0.00	0.75	0.25	0.00	0.00	0.00	1.00	0.00	0.75	0.50	0.50	0.00	0.00	0.50	0.00	-0.299316	0.050781	0.925781	-2.450000	1.890000	-0.070000	66.00	0.02	-0.13	7.50	4.25	6.50	5.25	2.75	3.50	1.75	2.00	3.75	2.75	3.75	3.25	2.50	3.00	1.50	1.00	-0.262695	0.090332	0.929688	-2.520000	-5.600000	1.680000	707.00	-0.06	-0.04
0.38	0.75	0.25	0.50	0.25	0.00	0.50	0.00	0.75	0.25	0.75	0.25	0.00	0.00	0.50	0.25	0.00	-0.299316	0.045898	0.927246	-2.310000	1.750000	0.070000	67.00	-0.02	-0.07	7.75	3.75	6.75	5.00	2.75	3.25	1.75	1.75	4.25	3.00	3.50	3.25	2.75	3.00	1.75	0.75	-0.264648	0.091797	0.923340	-2.380000	-5.460000	1.610000	709.00	-0.05	-0.04
0.39	0.75	0.00	0.50	0.25	0.00	0.00	0.00	0.75	0.25	0.50	0.50	0.50	0.25	0.50	0.50	0.00	-0.300781	0.047852	0.927246	-2.310000	1.820000	0.070000	69.00	0.05	-0.09	7.50	3.75	6.75	5.00	2.75	3.25	1.75	1.75	4.25	2.75	3.75	3.25	2.75	3.00	1.75	1.00	-0.263672	0.090820	0.926270	-2.240000	-5.530000	1.610000	707.00	-0.05	-0.04
0.40	1.00	0.00	1.00	0.00	0.00	0.00	0.00	0.75	0.50	0.75	0.25	0.50	0.00	0.50	0.50	0.00	-0.297852	0.046387	0.929688	-2.310000	1.960000	0.070000	77.00	0.03	-0.02	7.75	4.00	6.50	5.00	2.50	3.25	1.75	2.00	4.25	3.00	3.75	3.25	3.00	3.25	1.50	1.00	-0.256836	0.093750	0.926270	-2.240000	-5.460000	1.750000	716.00	-0.05	-0.04
0.41	0.75	0.00	0.50	0.00	0.00	0.00	0.00	0.50	0.25	0.75	0.50	0.25	0.00	0.50	0.50	0.00	-0.298828	0.047363	0.930176	-2.310000	2.030000	0.070000	59.00	0.07	-0.03	7.25	3.75	6.25	5.00	2.75	3.25	1.75	2.00	4.00	3.00	4.00	3.25	2.50	3.00	1.50	1.00	-0.265137	0.086914	0.925781	-2.450000	-5.390000	1.820000	699.00	-0.05	-0.04
0.42	0.50	0.00	0.75	0.00	0.00	0.25	0.00	1.00	0.25	0.75	0.50	0.25	0.00	0.50	0.75	0.25	-0.300293	0.044434	0.928711	-2.100000	1.890000	0.140000	76.00	0.08	-0.09	7.25	3.75	6.50	5.00	2.75	3.25	1.75	2.00	4.50	3.00	3.75	3.50	2.75	3.00	1.75	1.00	-0.263672	0.093750	0.922852	-2.380000	-5.530000	1.750000	716.00	-0.04	-0.04
0.43	0.75	0.50	0.75	0.00	0.00	0.00	0.00	0.75	0.00	0.75	0.25	0.25	0.00	0.25	0.50	0.00	-0.300781	0.047852	0.936035	-2.240000	2.030000	0.070000	63.00	-0.03	-0.08	7.25	3.75	6.25	5.00	2.50	3.25	1.75	2.00	4.25	3.00	4.00	3.50	2.75	3.00	2.00	1.00	-0.263672	0.091309	0.921875	-2.380000	-5.460000	1.680000	711.00	-0.04	-0.04
0.44	0.75	0.25	0.50	0.25	0.00	0.00	0.00	0.75	0.25	0.75	0.50	0.25	0.00	0.50	0.50	0.00	-0.303711	0.041504	0.930664	-2.310000	1.960000	0.070000	70.00	0.03	-0.07	7.25	3.75	6.50	5.00	2.75	3.25	1.75	1.75	4.50	3.00	3.75	3.50	3.00	3.00	1.25	1.25	-0.268555	0.098633	0.923828	-2.310000	-5.670000	1.610000	709.00	-0.04	-0.04
0.45	0.50	0.00	0.75	0.25	0.00	0.25	0.00	0.50	0.50	0.75	0.50	0.25	0.00	0.50	0.50	0.00	-0.295898	0.046387	0.924805	-2.240000	1.890000	0.070000	70.00	0.06	-0.03	7.25	3.75	6.50	4.75	2.75	3.25	1.75	1.75	4.50	3.25	4.25	3.50	3.00	3.00	1.75	1.00	-0.262695	0.088867	0.923828	-2.520000	-5.810000	1.750000	720.00	-0.04	-0.04
0.46	0.75	0.00	0.75	0.00	0.00	0.00	0.00	0.50	0.00	0.75	0.50	0.25	0.00	0.75	0.25	0.00	-0.298340	0.041992	0.925781	-2.240000	1.820000	0.070000	58.00	0.04	-0.03	7.25	3.50	6.50	5.00	2.50	3.25	1.75	2.25	4.00	3.25	4.50	3.75	3.00	3.00	1.75	1.00	-0.263672	0.086914	0.916504	-2.590000	-5.810000	1.680000	724.00	-0.04	-0.05
0.47	0.75	0.00	0.50	0.25	0.00	0.00	0.00	0.50	0.25	1.00	0.50	0.25	0.00	0.25	0.50	0.00	-0.294434	0.051270	0.930176	-2.170000	1.680000	0.140000	63.00	0.05	-0.04	7.00	3.75	6.25	5.00	2.50	3.25	1.75	2.00	4.75	3.00	4.75	3.50	3.00	3.50	2.00	1.00	-0.263184	0.096191	0.920898	-2.660000	-5.740000	1.540000	733.00	-0.03	-0.04
0.48	0.75	0.00	0.75	0.00	0.00	0.25	0.00	0.50	0.00	0.75	0.75	0.00	0.00	0.50	0.75	0.00	-0.298340	0.045898	0.926270	-2.170000	1.680000	0.140000	65.00	0.05	-0.04	6.75	3.50	6.25	4.75	2.50	3.00	2.00	2.00	4.75	3.25	4.50	3.75	3.00	3.50	1.50	1.00	-0.259766	0.093262	0.925293	-2.730000	-5.810000	1.540000	722.00	-0.02	-0.04
0.49	0.50	0.00	1.00	0.00	0.00	0.25	0.00	1.00	0.25	0.75	0.50	0.25	0.00	0.50	0.75	0.00	-0.298340	0.048340	0.926270	-2.170000	1.540000	0.210000	78.00	0.06	-0.08	6.75	3.25	6.25	5.00	2.50	3.00	2.00	2.00	4.25	3.25	4.75	3.75	3.00	3.00	1.75	1.00	-0.261719	0.090820	0.920898	-2.660000	-5.740000	1.610000	716.00	-0.03	-0.04
0.50	0.75	0.00	0.75	0.00	0.00	0.25	0.00	0.75	0.25	1.00	0.50	0.25	0.00	0.75	0.50	0.25	-0.298828	0.043457	0.928711	-2.170000	1.610000	0.210000	77.00	0.07	-0.05	6.50	3.50	6.25	4.75	2.75	3.00	2.00	2.00	4.75	3.25	5.00	3.75	3.00	3.25	2.25	1.00	-0.258789	0.094727	0.928223	-2.590000	-5.880000	1.680000	735.00	-0.02	-0.04
0.51	0.50	0.25	0.75	0.25	0.00	0.00	0.00	1.00	0.25	0.75	0.50	0.25	0.00	0.50	0.50	0.00	-0.303711	0.044434	0.930176	-2.170000	1.610000	0.280000	74.00	0.03	-0.09	6.75	3.25	6.25	4.50	2.75	3.25	2.00	2.00	4.75	3.25	4.75	4.00	3.00	3.25	1.75	1.00	-0.260742	0.089844	0.917480	-2.590000	-5.880000	1.680000	729.00	-0.02	-0.04
0.52	0.50	0.00	1.00	0.00	0.00	0.25	0.00	0.25	0.00	1.00	0.50	0.25	0.00	0.25	0.25	0.00	-0.301758	0.046387	0.929688	-2.100000	1.610000	0.280000	55.00	0.01	-0.03	6.50	3.25	6.00	4.75	2.50	3.00	2.00	1.75	4.25	3.50	5.00	3.75	3.00	3.50	2.00	1.00	-0.265137	0.087891	0.923828	-2.450000	-5.740000	1.680000	716.00	-0.01	-0.04
0.53	0.75	0.00	0.25	0.00	0.00	0.25	0.00	0.50	0.25	0.75	0.50	0.25	0.00	0.25	0.25	0.00	-0.301758	0.046387	0.926758	-2.100000	1.610000	0.210000	53.00	0.04	-0.06	6.50	3.00	6.25	4.50	2.50	3.25	2.00	2.00	4.75	3.25	5.00	3.75	3.00	3.25	2.00	1.25	-0.264648	0.089355	0.926758	-2.520000	-5.810000	1.680000	725.00	-0.01	-0.04
0.54	0.50	0.00	0.50	0.00	0.00	0.25	0.00	0.75	0.25	0.75	0.50	0.25	0.00	0.50	0.50	0.00	-0.300293	0.052734	0.928223	-2.240000	1.680000	0.210000	64.00	0.08	-0.07	6.75	3.25	6.00	4.50	2.50	3.25	2.00	2.00	5.25	3.25	5.25	3.75	3.00	3.50	1.75	1.00	-0.266113	0.090332	0.923340	-2.660000	-5.740000	1.610000	736.00	-0.01	-0.04
0.55	0.50	0.00	0.75	0.25	0.00	0.00	0.00	0.50	0.25	1.00	0.50	0.00	0.00	0.25	0.00	0.00	-0.298340	0.046875	0.926270	-2.380000	1.890000	0.210000	54.00	0.00	-0.02	6.75	3.00	6.00	4.50	2.50	3.00	2.00	1.75	5.00	3.25	5.00	3.75	3.00	3.50	2.00	1.25	-0.264160	0.093750	0.923340	-2.730000	-5.740000	1.540000	723.00	-0.01	-0.03
0.56	0.75	0.00	0.50	0.00	0.00	0.25	0.00	0.50	0.25	0.75	0.50	0.50	0.00	0.75	0.50	0.25	-0.293457	0.046387	0.930176	-2.380000	1.960000	0.140000	70.00	0.09	-0.05	6.50	3.00	6.00	4.25	2.50	3.00	2.00	2.00	4.75	3.50	5.25	4.00	3.25	3.50	2.25	1.00	-0.274414	0.095703	0.923828	-2.660000	-5.670000	1.610000	731.00	-0.00	-0.04
0.57	0.75	0.25	0.50	0.00	0.00	0.00	0.00	1.00	0.00	0.75	0.50	0.25	0.00	0.75	0.50	0.00	-0.304688	0.040039	0.935059	-2.380000	1.820000	0.070000	70.00	0.04	-0.09	6.50	3.00	5.75	4.50	2.75	3.00	2.00	2.00	5.00	3.50	5.50	4.00	3.00	3.50	1.75	1.25	-0.268555	0.091797	0.923340	-2.590000	-5.950000	1.610000	734.00	-0.00	-0.04
0.58	0.25	0.00	0.50	0.00	0.00	0.25	0.00	0.50	0.00	0.75	0.25	0.25	0.00	0.50	0.50	0.00	-0.300293	0.049316	0.928711	-2.310000	1.820000	0.070000	49.00	0.00	0.00	6.25	3.00	5.75	4.50	2.75	3.00	2.00	2.00	4.75	3.50	5.25	3.75	3.00	4.00	2.25	1.00	-0.268555	0.091797	0.923340	-2.590000	-5.950000	1.610000	731.00	-0.00	-0.04
0.59	0.50	0.00	0.50	0.00	0.00	0.25	0.00	0.50	0.25	0.75	0.50	0.25	0.00	0.00	0.50	0.25	-0.301758	0.043945	0.932617	-2.310000	1.820000	0.070000	56.00	0.06	-0.08	6.50	3.00	5.75	4.50	2.50	3.00	2.25	2.00	4.50	3.50	5.50	3.75	3.25	3.50	2.25	1.25	-0.265137	0.092285	0.924316	-2.730000	-6.020000	1.680000	733.00	-0.00	-0.04
0.60	0.50	0.25	0.50	0.00	0.00	0.00	0.00	0.75	0.00	0.75	0.50	0.25	0.00	0.50	0.25	0.00	-0.300781	0.045898	0.931641	-2.240000	1.750000	0.140000	56.00	0.04	-0.09	6.25	3.00	5.75	4.50	2.50	3.00	2.25	2.00	5.25	3.50	5.50	4.00	3.00	3.75	2.25	1.25	-0.266602	0.085938	0.923340	-2.730000	-6.020000	1.610000	745.00	0.00	-0.04
0.61	0.75	0.00	0.75	0.25	0.00	0.25	0.00	0.50	0.25	1.00	0.75	0.75	0.00	0.50	0.50	0.00	-0.296875	0.050781	0.940918	-2.310000	1.540000	0.140000	81.00	0.06	-0.06	6.25	3.00	5.75	4.50	2.50	3.00	2.25	2.00	5.00	3.75	5.50	3.75	3.25	3.50	2.00	1.25	-0.265137	0.086914	0.925293	-2.800000	-6.020000	1.610000	738.00	0.00	-0.04
0.62	0.50	0.00	0.50	0.00	0.00	0.50	0.00	0.50	0.00	0.75	0.50	0.00	0.00	0.25	0.75	0.00	-0.305176	0.044434	0.929688	-2.380000	1.400000	0.280000	56.00	0.06	-0.08	6.25	2.75	6.00	4.25	2.50	3.00	2.25	2.00	5.00	3.75	5.50	4.25	3.25	3.50	2.00	1.00	-0.269531	0.093262	0.924316	-2.800000	-6.160000	1.610000	740.00	0.00	-0.04
0.63	0.75	0.00	0.75	0.00	0.00	0.00	0.00	0.75	0.25	0.75	0.50	0.25	0.00	0.75	0.50	0.00	-0.304199	0.047852	0.926758	-2.310000	1.470000	0.280000	69.00	0.06	-0.04	6.25	3.00	5.75	4.50	2.50	3.00	2.25	2.00	5.00	3.75	5.50	4.00	3.25	3.75	2.00	1.25	-0.270508	0.092285	0.923828	-2.800000	-6.160000	1.680000	744.00	0.00	-0.04
0.64	0.75	0.00	0.75	0.00	0.00	0.00	0.00	1.00	0.00	0.75	0.75	0.00	0.00	0.50	0.25	0.25	-0.299805	0.043457	0.930176	-2.240000	1.330000	0.210000	66.00	0.03	-0.08	6.25	2.75	5.75	4.50	2.50	3.00	2.25	2.00	5.00	3.75	5.50	4.00	3.25	3.50	2.25	1.25	-0.267578	0.084961	0.930664	-2.870000	-6.370000	1.750000	741.00	0.00	-0.04
0.65	0.75	0.00	0.75	0.00	0.00	0.75	0.00	1.00	0.00	0.75	0.25	0.25	0.00	0.25	0.50	0.00	-0.299316	0.046387	0.932617	-2.240000	1.260000	0.140000	72.00	-0.01	-0.12	6.50	3.00	5.75	4.25	2.50	3.00	2.25	2.00	5.00	3.75	5.50	3.75	3.25	3.75	2.50	1.25	-0.271484	0.092773	0.923340	-2.800000	-6.650000	1.820000	747.00	0.00	-0.04
0.66	0.50	0.00	0.50	0.25	0.00	0.25	0.00	1.00	0.25	0.75	0.50	0.25	0.00	0.25	0.75	0.00	-0.304199	0.045410	0.929199	-2.170000	1.260000	0.210000	72.00	0.06	-0.11	6.25	3.00	5.75	4.50	2.75	2.75	2.25	2.00	5.00	3.75	5.50	4.00	3.00	3.75	2.00	1.25	-0.271973	0.094238	0.922363	-2.940000	-6.720000	1.750000	741.00	0.00	-0.04
0.67	0.50	0.00	0.25	0.00	0.00	0.00	0.00	1.00	0.25	0.75	0.50	0.25	0.00	0.50	0.50	0.00	-0.302734	0.042969	0.934082	-2.170000	1.120000	0.350000	62.00	0.10	-0.09	6.50	3.00	5.75	4.25	2.50	2.75	2.25	2.00	5.25	3.75	5.50	4.00	3.25	3.75	2.00	1.00	-0.267090	0.091797	0.922363	-3.080000	-6.860000	1.750000	742.00	0.00	-0.03
0.68	0.75	0.00	0.75	0.25	0.00	0.25	0.00	0.75	0.25	0.75	0.50	0.25	0.00	0.25	0.25	0.00	-0.298828	0.043457	0.938965	-2.100000	0.980000	0.420000	68.00	-0.01	-0.07	6.25	3.00	5.75	4.00	2.50	3.00	2.25	2.00	5.00	3.50	5.25	4.25	3.25	3.50	2.25	1.25	-0.262207	0.093262	0.919922	-3.010000	-6.790000	1.610000	735.00	0.00	-0.04
0.69	0.50	0.00	0.75	0.00	0.00	0.25	0.00	0.75	0.25	0.75	0.50	0.25	0.00	0.50	0.75	0.00	-0.296387	0.044922	0.928223	-2.100000	0.840000	0.490000	70.00	0.08	-0.06	6.25	3.00	5.75	4.25	2.50	2.75	2.25	2.00	5.00	3.75	5.75	4.00	3.25	3.50	2.25	1.25	-0.266602	0.092773	0.928223	-3.010000	-6.790000	1.610000	741.00	0.01	-0.04
0.70	0.75	0.00	0.75	0.25	0.00	0.00	0.00	0.75	0.25	0.75	0.25	0.00	0.00	0.50	0.25	0.00	-0.301270	0.041504	0.931152	-2.240000	0.840000	0.630000	61.00	-0.00	-0.04	6.50	3.00	5.75	4.25	2.50	2.75	2.25	2.00	5.00	3.50	5.50	4.00	3.25	3.50	2.00	1.00	-0.269043	0.087891	0.927734	-3.080000	-6.930000	1.680000	733.00	-0.00	-0.04
0.71	0.75	0.00	0.25	0.00	0.00	0.25	0.00	0.50	0.25	0.75	0.75	0.25	0.00	0.75	0.75	0.00	-0.297852	0.048828	0.933594	-2.310000	1.050000	0.630000	68.00	0.11	-0.04	6.50	3.00	5.75	4.25	2.50	3.00	2.50	2.00	5.00	3.75	5.50	4.00	3.00	3.75	1.75	1.25	-0.268555	0.085938	0.923340	-3.010000	-7.070000	1.750000	742.00	0.00	-0.03
0.72	0.75	0.00	0.75	0.25	0.00	0.25	0.00	1.00	0.25	0.75	0.50	0.25	0.00	0.25	0.50	0.25	-0.297852	0.046875	0.930176	-2.170000	0.840000	0.700000	77.00	0.02	-0.10	6.25	3.00	5.75	4.25	2.50	2.50	2.25	2.00	5.00	3.75	5.50	4.00	3.00	3.50	2.00	1.25	-0.266602	0.094238	0.923828	-3.010000	-7.210000	1.820000	729.00	0.00	-0.03
0.73	0.50	0.00	0.50	0.00	0.00	0.00	0.00	0.75	0.25	0.75	0.50	0.25	0.00	0.50	0.50	0.00	-0.302734	0.044434	0.933105	-2.380000	0.700000	0.770000	60.00	0.09	-0.06	6.50	3.25	5.75	4.25	2.50	2.75	2.25	2.00	5.00	3.75	5.50	4.00	3.00	3.75	2.25	1.25	-0.267090	0.090332	0.923340	-3.080000	-7.210000	1.820000	743.00	0.00	-0.03
0.74	0.75	0.00	1.00	0.00	0.00	0.00	0.00	0.75	0.25	1.00	0.50	0.25	0.00	0.50	0.50	0.00	-0.304199	0.042969	0.927734	-2.380000	0.700000	0.630000	73.00	0.04	-0.03	6.50	3.00	5.75	4.50	2.50	2.75	2.25	2.00	5.00	3.75	5.50	4.00	3.25	3.50	2.00	1.25	-0.265625	0.088379	0.926758	-3.080000	-7.490000	1.820000	741.00	0.00	-0.04
0.75	0.75	0.00	0.50	0.50	0.00	0.50	0.00	0.50	0.25	1.00	0.25	0.00	0.00	0.50	0.50	0.00	-0.302246	0.042480	0.930664	-2.520000	0.630000	0.700000	69.00	0.01	-0.05	6.50	3.25	6.00	4.50	2.50	3.00	2.25	2.00	5.00	3.50	5.50	4.00	3.00	3.50	2.25	1.00	-0.268555	0.094727	0.923828	-3.080000	-7.700000	2.030000	746.00	-0.00	-0.04
0.76	0.75	0.25	1.00	0.25	0.00	0.00	0.00	0.75	0.25	0.75	0.25	0.00	0.00	0.75	0.75	0.00	-0.303223	0.047852	0.928711	-2.590000	0.490000	0.700000	76.00	0.02	-0.03	6.50	3.25	6.00	4.75	2.75	3.00	2.25	2.00	5.00	3.25	5.50	4.00	3.00	3.50	2.00	1.00	-0.272949	0.087402	0.920898	-3.220000	-7.910000	1.890000	746.00	-0.01	-0.04
0.77	0.75	0.00	0.50	0.50	0.00	0.00	0.00	0.75	0.25	1.00	0.25	0.25	0.00	0.75	0.25	0.00	-0.299316	0.041992	0.925293	-2.730000	0.490000	0.700000	70.00	0.03	-0.05	6.75	3.25	6.00	4.75	2.50	3.00	2.25	1.75	4.75	3.50	5.25	3.75	3.00	3.25	2.00	1.25	-0.268066	0.093750	0.923828	-3.290000	-8.120000	1.890000	734.00	-0.01	-0.04
0.78	1.00	0.00	0.75	0.00	0.00	0.00	0.00	1.00	0.25	0.75	0.50	0.25	0.00	0.25	0.25	0.00	-0.299805	0.042480	0.929688	-3.430000	0.700000	0.630000	69.00	-0.00	-0.07	6.75	3.25	5.75	4.50	2.75	3.25	2.25	2.00	4.75	3.50	5.50	3.75	3.00	3.25	2.00	1.00	-0.271973	0.088867	0.922363	-3.150000	-8.400000	2.100000	740.00	-0.01	-0.04
0.79	1.00	0.00	0.75	0.25	0.00	0.75	0.25	0.75	0.25	0.75	0.00	0.25	0.00	0.00	0.25	0.25	-0.297852	0.044922	0.929688	-3.640000	0.700000	0.630000	75.00	-0.06	-0.07	6.75	3.50	6.00	4.75	2.75	2.75	2.00	2.00	4.75	3.25	5.25	3.50	3.00	3.25	1.75	0.75	-0.261719	0.093262	0.916992	-3.220000	-8.750000	2.100000	724.00	-0.02	-0.04
0.80	1.25	0.00	0.75	0.00	0.00	0.25	0.00	0.50	0.00	0.75	0.25	0.25	0.00	0.25	0.25	0.25	-0.300293	0.041992	0.930664	-3.570000	0.490000	0.630000	61.00	-0.05	-0.05	7.00	3.75	6.00	5.00	2.75	3.00	2.25	2.00	4.50	3.25	5.25	3.75	2.75	3.25	2.00	1.00	-0.264160	0.093750	0.925293	-3.360000	-8.750000	1.960000	742.00	-0.02	-0.04
0.81	0.75	0.25	1.00	0.00	0.00	0.25	0.00	0.75	0.25	0.50	0.25	0.25	0.00	0.75	0.50	0.00	-0.298340	0.044434	0.935059	-3.500000	0.350000	0.700000	73.00	0.01	-0.05	6.75	3.25	6.25	5.00	2.75	3.25	2.25	2.00	4.25	3.25	5.25	3.50	2.75	3.00	1.75	1.00	-0.261230	0.089844	0.924316	-3.290000	-8.540000	1.820000	727.00	-0.03	-0.04
0.82	0.75	0.00	0.75	0.00	0.00	0.00	0.00	0.75	0.00	0.75	0.25	0.00	0.00	0.50	0.25	0.00	-0.301758	0.048828	0.938477	-3.570000	0.140000	0.770000	54.00	-0.00	-0.05	7.00	3.50	6.25	5.00	2.75	3.25	2.25	2.00	4.25	3.25	5.25	3.75	2.75	3.00	1.75	1.00	-0.260254	0.094238	0.923828	-3.430000	-8.470000	1.890000	736.00	-0.03	-0.04
0.83	0.75	0.00	1.00	0.25	0.00	0.00	0.00	0.75	0.00	1.00	0.50	0.25	0.00	0.50	0.00	0.00	-0.302246	0.047363	0.936523	-3.710000	0.210000	0.840000	66.00	-0.02	-0.06	7.25	3.75	6.25	5.00	2.75	3.25	2.25	2.00	4.25	3.00	5.25	3.25	2.50	3.00	2.00	1.00	-0.268066	0.086426	0.922852	-3.500000	-8.470000	1.890000	733.00	-0.03	-0.04
0.84	1.00	0.00	1.00	0.00	0.00	0.00	0.00	0.50	0.25	0.75	0.50	0.25	0.00	0.50	0.25	0.00	-0.294434	0.047852	0.935547	-3.920000	0.420000	0.770000	66.00	0.00	-0.01	7.25	3.75	6.25	5.00	2.75	3.25	2.25	2.00	4.25	3.00	5.00	3.50	2.50	3.00	2.00	1.00	-0.265137	0.083496	0.925781	-3.430000	-8.470000	2.030000	734.00	-0.03	-0.04
0.85	0.50	0.00	1.00	0.00	0.00	0.00	0.00	0.50	0.25	0.75	0.50	0.25	0.00	0.25	0.50	0.00	-0.297852	0.049805	0.930176	-4.620000	0.840000	0.700000	60.00	0.05	-0.03	7.50	4.00	6.50	5.25	3.00	3.25	2.00	1.75	4.25	2.75	5.00	3.25	2.50	2.75	1.75	0.75	-0.259766	0.087402	0.927246	-3.500000	-8.680000	2.100000	727.00	-0.05	-0.04
0.86	1.00	0.25	0.75	0.50	0.00	0.25	0.00	0.25	0.00	0.75	0.25	0.25	0.00	0.75	0.25	0.00	-0.297363	0.044434	0.937012	-5.460000	1.260000	0.280000	66.00	-0.05	-0.03	7.50	4.25	6.50	5.25	2.75	3.25	2.00	1.75	4.25	2.75	4.75	3.25	2.50	3.00	1.50	1.00	-0.267090	0.095215	0.931152	-3.430000	-8.750000	2.170000	724.00	-0.05	-0.04
0.87	1.25	0.25	1.00	0.25	0.00	0.00	0.25	0.50	0.25	0.75	0.25	0.25	0.00	0.50	0.00	0.00	-0.294434	0.042480	0.925781	-6.440000	1.820000	-0.140000	73.00	-0.07	0.01	7.50	4.25	6.50	5.25	2.75	3.25	2.00	1.75	4.00	2.75	4.75	3.25	2.50	2.75	1.75	0.75	-0.267090	0.090332	0.930664	-3.570000	-8.960000	2.310000	719.00	-0.05	-0.04
0.88	1.25	0.25	0.75	0.00	0.00	0.50	0.00	0.50	0.25	1.00	0.25	0.25	0.00	0.50	0.25	0.00	-0.299805	0.044922	0.940918	-7.210000	2.450000	-0.420000	75.00	-0.03	-0.03	7.75	4.25	6.50	5.25	2.75	3.00	2.00	1.75	3.50	2.50	4.75	3.25	2.25	2.75	1.25	0.75	-0.262207	0.088379	0.938477	-3.430000	-9.450000	2.450000	699.00	-0.06	-0.04
0.89	1.50	0.00	0.75	0.25	0.00	0.00	0.25	0.25	0.00	0.75	0.25	0.00	0.00	0.50	0.00	0.00	-0.310547	0.055664	0.954590	-7.630000	3.360000	-0.840000	58.00	-0.10	0.04	8.00	4.75	7.00	5.50	2.75	3.25	1.75	1.50	3.25	2.50	4.25	2.75	2.00	2.50	1.25	0.75	-0.269531	0.093262	0.929688	-3.500000	-10.080000	2.590000	690.00	-0.08	-0.04
0.90	1.50	0.25	1.00	0.25	0.00	0.00	0.25	0.00	0.00	0.75	0.00	0.00	0.00	0.25	0.00	0.00	-0.309570	0.032715	0.942383	-9.870000	3.570000	-1.610000	54.00	-0.17	0.08	8.50	5.00	7.25	5.50	2.75	3.25	1.75	1.50	2.75	2.25	4.00	2.75	2.00	2.00	1.25	0.50	-0.273926	0.091309	0.925781	-3.920000	-10.990000	2.450000	682.00	-0.10	-0.04
0.91	1.25	0.50	1.25	0.25	0.00	0.00	0.00	0.00	0.25	0.75	0.50	0.00	0.00	0.50	0.00	0.00	-0.307617	0.085938	0.939453	-13.720000	4.130000	-4.060000	66.00	-0.11	0.05	8.75	5.50	7.25	5.75	2.50	3.25	1.50	1.50	2.50	2.25	4.00	2.50	1.50	2.00	1.25	0.50	-0.270996	0.092285	0.932617	-4.270000	-11.900000	2.240000	674.00	-0.11	-0.04
0.92	1.50	0.25	1.00	0.25	0.00	0.25	0.00	0.25	0.25	0.75	0.25	0.00	0.00	0.50	0.00	0.00	-0.331055	0.041504	0.943848	-26.530001	1.750000	-7.910000	67.00	-0.11	0.02	9.75	6.00	7.50	6.00	2.75	3.00	1.50	1.25	2.50	2.00	3.50	2.25	1.50	2.25	1.00	0.50	-0.270996	0.096680	0.930176	-4.550000	-12.880000	2.310000	681.00	-0.12	-0.03
0.93	2.25	0.75	1.25	0.25	0.00	0.00	0.25	0.00	0.00	0.75	0.25	0.00	0.00	0.50	0.00	0.00	-0.331055	0.041504	0.943848	-26.530001	1.750000	-7.910000	78.00	-0.19	0.06	10.00	6.50	7.75	6.25	2.50	2.75	1.25	1.50	2.00	1.50	3.25	2.00	1.25	1.75	0.75	0.25	-0.227539	0.093262	0.926270	-4.690000	-13.440001	2.940000	657.00	-0.15	-0.04
0.94	2.25	0.75	1.50	0.25	0.00	0.00	0.25	0.00	0.25	1.00	0.00	0.00	0.00	0.50	0.00	0.00	-0.322754	0.003418	0.957031	-37.170002	-3.080000	-9.940000	85.00	-0.17	0.08	11.25	7.50	8.00	6.50	2.50	3.00	1.25	1.25	1.50	1.50	2.75	1.75	1.00	1.50	0.50	0.25	-0.283691	0.084473	0.942871	-4.620000	-14.420000	2.800000	663.00	-0.18	-0.04
0.95	2.25	0.50	1.75	0.25	0.00	0.00	0.25	0.00	0.25	0.75	0.25	0.00	0.00	0.25	0.00	0.00	-0.338867	-0.043457	0.959473	-39.480000	-5.600000	-10.500000	83.00	-0.18	0.08	11.75	8.00	8.00	7.00	2.50	2.75	1.00	1.00	1.50	1.25	2.50	1.50	0.75	1.75	0.50	0.25	-0.229492	0.049805	0.933594	-4.410000	-15.120000	1.540000	660.00	-0.19	-0.04
0.96	2.50	0.00	1.75	0.50	0.00	0.50	0.25	0.00	0.00	0.75	0.25	0.00	0.00	0.25	0.00	0.00	-0.338379	-0.075684	0.937500	-40.459999	-8.190000	-11.970000	87.00	-0.20	0.05	12.50	8.50	8.00	7.00	2.50	3.00	0.75	1.00	0.75	1.25	2.25	1.25	0.25	1.25	0.50	0.00	-0.256836	0.097168	0.928223	-4.620000	-14.490000	1.050000	644.00	-0.22	-0.04
0.97	2.75	0.75	2.00	0.50	0.00	0.00	0.25	0.00	0.00	0.50	0.00	0.00	0.00	0.50	0.00	0.00	-0.316895	-0.034180	0.933594	-40.740002	-10.010000	-13.510000	91.00	-0.24	0.06	12.75	9.25	8.25	7.25	2.50	2.50	0.75	0.75	0.75	1.00	2.00	1.25	0.50	1.25	0.00	0.25	-0.263672	0.092285	0.929688	-5.320000	-13.160000	0.560000	642.00	-0.23	-0.04
0.98	3.50	1.00	2.25	0.75	0.00	0.00	0.25	0.00	0.25	0.75	0.00	0.00	0.00	0.25	0.00	0.00	-0.296387	0.007812	0.965820	-42.490002	-11.200000	-14.070000	115.00	-0.25	0.06	13.75	9.75	8.50	7.50	2.25	2.50	0.75	0.75	0.50	0.75	1.75	1.25	0.25	1.00	0.25	0.00	-0.256348	0.082520	0.930176	-5.390000	-11.900000	0.070000	650.00	-0.25	-0.04
0.99	3.75	1.00	2.00	0.50	0.25	0.00	0.25	0.00	0.25	0.50	0.25	0.00	0.00	0.25	0.00	0.00	-0.293457	0.062500	0.985352	-46.130001	-13.370000	-13.300000	114.00	-0.25	0.06	14.00	10.25	8.50	7.50	2.25	2.50	0.50	0.50	0.75	0.50	1.75	1.00	0.00	0.25	0.00	0.00	-0.260742	0.076660	0.930664	-4.830000	-11.410000	0.140000	634.00	-0.27	-0.04
1.00	4.00	1.25	2.25	0.75	0.00	0.00	0.25	0.00	0.25	0.75	0.00	0.00	0.00	0.00	0.00	0.00	-0.301270	0.053711	1.012695	-51.590000	-15.750000	-12.110000	121.00	-0.27	0.05	14.75	10.75	8.50	7.50	2.00	2.25	0.50	0.50	0.25	0.75	1.50	0.75	0.00	0.50	0.00	0.00	-0.269531	0.078125	0.942383	-3.500000	-11.690000	0.280000	633.00	-0.28	-0.03
1.01	4.25	1.50	2.25	0.50	0.00	0.00	0.25	0.00	0.25	1.00	0.00	0.00	0.00	0.25	0.00	0.00	-0.312988	0.007812	1.011719	-57.820000	-18.900000	-11.760000	129.00	-0.25	0.06	15.50	11.50	8.50	7.50	2.00	2.00	0.50	0.50	0.00	0.50	1.25	1.00	0.00	0.75	0.00	0.00	-0.259766	0.087402	0.936523	-1.820000	-12.600000	0.700000	643.00	-0.29	-0.04
1.02	5.00	1.50	2.75	0.50	0.00	0.00	0.25	0.00	0.25	0.50	0.00	0.00	0.00	0.25	0.00	0.00	-0.322754	-0.050293	0.972168	-61.670002	-21.420000	-11.900000	139.00	-0.29	0.06	16.25	12.00	8.75	7.75	1.75	2.00	0.25	0.50	0.25	0.50	1.00	0.75	0.00	0.50	0.00	0.00	-0.373047	0.069824	0.944824	0.210000	-14.630000	0.910000	652.00	-0.30	-0.03
1.03	5.00	1.50	2.75	0.75	0.00	0.00	0.25	0.00	0.00	1.00	0.00	0.00	0.00	0.25	0.00	0.00	-0.287109	-0.094727	0.919922	-62.020000	-20.230000	-13.090000	144.00	-0.28	0.05	16.25	12.50	8.75	7.75	2.00	1.50	0.25	0.25	0.25	0.50	1.00	0.50	0.00	0.25	0.00	0.00	-0.252441	0.046875	0.988281	4.900000	-19.600000	0.420000	644.00	-0.31	-0.03
1.04	5.25	2.00	2.75	0.25	0.00	0.00	0.50	0.00	0.25	0.75	0.00	0.00	0.00	0.00	0.00	0.00	-0.246094	-0.095703	0.905762	-60.689999	-17.080000	-15.260000	149.00	-0.28	0.07	16.75	13.00	8.75	8.00	1.75	1.50	0.00	0.25	0.00	0.25	0.75	0.50	0.00	0.50	0.00	0.00	-0.254395	0.087891	0.937988	10.850000	-38.009998	1.190000	644.00	-0.32	-0.03
1.05	5.25	2.00	2.75	0.75	0.00	0.00	0.50	0.00	0.25	0.50	0.00	0.00	0.00	0.00	0.00	0.00	-0.212402	-0.037109	0.911133	-57.400002	-13.160000	-16.799999	153.00	-0.29	0.05	17.25	13.50	8.75	8.00	1.50	1.25	0.25	0.25	0.00	0.25	0.75	0.50	0.00	0.25	0.00	0.00	-0.237793	0.115723	0.989258	8.890000	-41.020000	1.890000	651.00	-0.32	-0.03
1.06	5.25	2.00	3.00	0.50	0.00	0.00	0.50	0.00	0.00	0.50	0.00	0.00	0.00	0.25	0.00	0.00	-0.204102	0.026367	0.919434	-54.670002	-9.660000	-15.750000	151.00	-0.30	0.06	17.50	13.75	8.75	7.75	1.25	0.75	0.00	0.25	0.00	0.25	1.00	0.50	0.00	0.00	0.00	0.00	-0.231934	0.126465	0.952148	5.320000	-44.939999	2.800000	640.00	-0.33	-0.03
1.07	5.50	2.25	2.75	1.00	0.00	0.00	0.50	0.00	0.25	0.75	0.00	0.00	0.00	0.25	0.00	0.00	-0.213379	0.035156	0.927734	-53.200001	-6.790000	-12.390000	167.00	-0.28	0.05	18.00	14.00	8.75	7.75	1.25	0.75	0.00	0.25	0.00	0.25	0.75	0.25	0.00	0.00	0.00	0.00	-0.219727	0.099121	0.941895	3.430000	-45.639999	3.500000	642.00	-0.33	-0.03
1.08	5.00	1.75	2.75	1.25	0.00	0.00	0.50	0.00	0.25	0.50	0.00	0.00	0.00	0.00	0.00	0.00	-0.238770	-0.031250	0.946289	-52.990002	-3.920000	-9.520000	153.00	-0.29	0.04	18.25	14.50	8.50	8.00	1.25	0.75	0.00	0.00	0.25	0.25	0.50	0.50	0.00	0.25	0.00	0.00	-0.220215	0.085449	0.957520	2.870000	-45.430000	3.710000	653.00	-0.33	-0.03
1.09	5.00	2.00	2.50	0.50	0.00	0.00	0.50	0.00	0.25	0.75	0.00	0.00	0.00	0.00	0.00	0.00	-0.281738	-0.138672	0.928223	-57.049999	3.430000	-13.440001	146.00	-0.28	0.06	18.00	14.75	8.75	8.00	1.00	0.75	0.00	0.00	0.00	0.00	0.50	0.50	0.00	0.25	0.00	0.00	-0.231445	0.090332	0.964844	2.520000	-45.500000	3.080000	646.00	-0.34	-0.03
1.10	5.00	2.00	2.50	0.50	0.00	0.00	0.50	0.00	0.25	0.75	0.00	0.00	0.00	0.00	0.00	0.00	-0.268066	-0.122070	0.893555	-58.799999	8.890000	-18.059999	146.00	-0.28	0.06	18.75	15.00	8.75	8.00	1.00	0.75	0.00	0.00	0.00	0.25	0.50	0.25	0.00	0.00	0.00	0.00	-0.225586	0.106934	0.969238	3.080000	-46.689999	3.290000	655.00	-0.34	-0.03
1.11	4.50	1.75	2.25	0.50	0.00	0.00	0.75	0.00	0.00	0.50	0.00	0.00	0.00	0.25	0.00	0.00	-0.254883	-0.102051	0.949219	-60.830002	16.030001	-23.240000	134.00	-0.27	0.06	19.00	15.25	8.75	7.75	1.00	0.25	0.00	0.00	0.00	0.00	0.50	0.25	0.00	0.00	0.00	0.00	-0.207520	0.122559	0.936523	2.870000	-47.529999	4.130000	648.00	-0.35	-0.03
1.12	3.50	1.50	2.00	0.25	0.00	0.00	0.75	0.00	0.25	0.50	0.00	0.00	0.00	0.00	0.00	0.00	-0.261230	-0.065918	1.037598	-66.220001	22.469999	-28.210001	113.00	-0.25	0.07	19.25	15.50	8.50	7.75	1.00	0.75	0.00	0.00	0.00	0.00	0.50	0.25	0.00	0.00	0.00	0.00	-0.180664	0.116699	0.890137	1.750000	-45.779999	4.900000	657.00	-0.35	-0.03
1.13	3.00	1.00	1.75	0.50	0.00	0.00	0.75	0.00	0.25	0.50	0.00	0.00	0.00	0.00	0.00	0.00	-0.305176	-0.067871	1.089844	-75.809998	27.090000	-32.830002	102.00	-0.24	0.07	20.00	16.25	8.50	8.25	0.75	0.25	0.00	0.00	0.00	0.25	0.50	0.00	0.00	0.00	0.00	0.00	-0.167969	0.117188	0.911621	0.630000	-42.840000	5.460000	671.00	-0.35	-0.03
1.14	2.25	0.75	1.50	0.25	0.00	0.00	0.75	0.00	0.50	0.75	0.00	0.00	0.00	0.50	0.00	0.00	-0.354492	-0.042480	1.134766	-88.550003	31.219999	-38.709999	95.00	-0.14	0.10	20.00	16.25	8.50	8.25	0.75	0.50	0.00	0.00	0.00	0.00	0.25	0.50	0.00	0.00	0.00	0.00	-0.163086	0.111328	0.897949	-0.910000	-39.900002	5.950000	675.00	-0.35	-0.03
1.15	2.00	0.50	1.00	0.50	0.00	0.00	0.50	0.00	0.25	1.00	0.00	0.00	0.00	0.25	0.00	0.00	-0.390137	-0.002441	1.197266	-106.120003	34.860001	-47.459999	78.00	-0.15	0.08	19.75	16.75	8.50	8.25	0.75	0.25	0.00	0.00	0.00	0.00	0.00	0.25	0.00	0.00	0.00	0.00	-0.149414	0.111328	0.898438	-2.380000	-36.470001	6.230000	667.00	-0.36	-0.03
1.16	1.50	0.50	0.75	0.00	0.00	0.00	0.50	0.00	0.00	0.50	0.00	0.00	0.00	0.00	0.00	0.00	-0.600098	0.071289	1.090332	-133.139999	30.240000	-59.500000	49.00	0.00	0.00	20.25	17.50	8.75	8.25	1.00	0.25	0.00	0.00	0.00	0.00	0.25	0.00	0.00	0.00	0.00	0.00	-0.149902	0.104004	0.896484	-3.710000	-32.759998	6.300000	689.00	-0.36	-0.03
1.17	1.00	0.00	0.25	0.00	0.00	0.00	0.25	0.00	0.25	0.50	0.00	0.00	0.00	0.00	0.00	0.00	-0.293457	-0.332520	1.287109	-161.139999	28.840000	-72.519997	30.00	0.00	0.00	20.50	17.75	9.00	8.50	0.75	0.00	0.00	0.00	0.00	0.00	0.25	0.25	0.00	0.00	0.00	0.00	-0.152832	0.079590	0.904297	-4.970000	-29.540001	5.810000	698.00	-0.36	-0.03
1.18	1.00	0.00	0.25	0.25	0.00	0.00	0.25	0.00	0.00	0.50	0.00	0.00	0.00	0.00	0.00	0.00	-0.424316	0.033203	1.310059	-135.380005	66.570000	-73.220001	30.00	0.00	0.00	21.25	17.75	9.00	8.50	0.50	0.50	0.00	0.00	0.00	0.00	0.00	0.25	0.00	0.00	0.00	0.00	-0.139648	0.087402	0.894043	-5.460000	-26.110001	4.900000	707.00	-0.36	-0.03
1.19	0.50	0.00	0.50	0.00	0.00	0.00	0.25	0.00	0.00	0.25	0.00	0.00	0.00	0.00	0.00	0.00	-0.220703	-0.011230	1.342773	-132.930008	90.230003	-77.699997	20.00	0.00	0.00	21.50	18.25	9.00	8.75	0.75	0.50	0.00	0.00	0.00	0.00	0.25	0.00	0.00	0.00	0.00	0.00	-0.130371	0.077637	0.884766	-6.020000	-18.340000	2.800000	722.00	-0.36	-0.03
1.20	0.75	0.00	0.00	0.00	0.00	0.00	0.00	0.00	0.00	0.25	0.00	0.00	0.00	0.00	0.00	0.00	-0.142578	0.107422	1.522949	-136.990005	103.320000	-77.419998	12.00	0.00	0.00	22.00	18.75	9.00	8.75	0.75	0.25	0.00	0.00	0.00	0.00	0.25	0.25	0.00	0.00	0.00	0.00	-0.124512	0.087891	0.897949	-6.440000	-13.720000	1.750000	734.00	-0.36	-0.03
1.21	0.75	0.25	0.00	0.00	0.00	0.00	0.00	0.00	0.00	0.00	0.00	0.00	0.00	0.00	0.00	0.00	0.148438	1.158691	1.438965	-140.279999	112.699997	-60.689999	12.00	0.00	0.00	22.00	19.25	9.00	9.00	0.50	0.25	0.00	0.00	0.00	0.00	0.00	0.25	0.00	0.00	0.00	0.00	-0.150391	0.087402	0.967773	-4.900000	-11.970000	1.470000	736.00	-0.36	-0.03
1.22	0.50	0.00	0.00	0.00	0.00	0.00	0.00	0.00	0.00	0.25	0.00	0.00	0.00	0.00	0.00	0.00	0.367188	1.450684	1.785156	-92.330002	115.360001	-4.760000	9.00	0.00	0.00	22.50	19.25	9.25	8.75	0.75	0.25	0.00	0.00	0.00	0.00	0.25	0.00	0.00	0.00	0.00	0.00	-0.172363	0.072266	1.000488	-2.590000	-14.000000	1.540000	746.00	-0.36	-0.03
1.23	0.25	0.00	0.00	0.00	0.00	0.00	0.00	0.00	0.00	0.25	0.00	0.00	0.00	0.00	0.00	0.00	0.726562	1.580078	2.053711	-13.860000	100.940002	56.910000	6.00	0.00	0.00	22.75	19.25	9.50	9.00	0.75	0.25	0.00	0.00	0.00	0.00	0.00	0.00	0.00	0.00	0.00	0.00	-0.153320	0.072266	0.986816	-0.420000	-16.170000	0.980000	752.00	-0.36	-0.03
1.24	0.50	0.00	0.00	0.00	0.00	0.00	0.00	0.00	0.00	0.00	0.00	0.00	0.00	0.00	0.00	0.00	1.192871	0.997070	1.603516	49.139999	43.049999	151.479996	6.00	0.00	0.00	22.50	19.25	9.25	9.00	0.75	0.50	0.00	0.00	0.00	0.00	0.25	0.25	0.00	0.00	0.00	0.00	-0.135254	0.083984	0.963867	2.310000	-18.059999	0.490000	755.00	-0.36	-0.03
1.25	0.25	0.00	0.25	0.00	0.00	0.00	0.00	0.00	0.00	0.25	0.00	0.00	0.00	0.00	0.00	0.00	1.327148	0.680176	1.329102	77.489998	19.110001	178.710007	10.00	0.00	0.00	22.50	19.25	9.25	9.25	0.75	0.00	0.00	0.00	0.00	0.00	0.25	0.25	0.00	0.00	0.00	0.00	-0.128418	0.115723	0.953125	4.690000	-18.059999	1.190000	752.00	-0.36	-0.03
1.26	0.50	0.25	0.25	0.00	0.00	0.00	0.00	0.00	0.00	0.25	0.00	0.00	0.00	0.00	0.00	0.00	1.433105	0.262695	1.197754	115.290001	0.490000	190.470001	15.00	0.00	0.00	22.50	19.00	9.00	9.00	0.75	0.25	0.00	0.00	0.00	0.00	0.00	0.00	0.00	0.00	0.00	0.00	-0.131348	0.116699	0.936523	6.230000	-17.150000	2.380000	740.00	-0.36	-0.03
1.27	0.50	0.00	0.00	0.00	0.00	0.00	0.00	0.00	0.00	0.00	0.00	0.00	0.00	0.00	0.00	0.00	1.494141	-0.161621	1.168945	144.970001	-16.940001	189.419998	6.00	0.00	0.00	22.00	19.00	9.25	9.25	1.00	0.00	0.00	0.00	0.00	0.00	0.00	0.00	0.00	0.00	0.00	0.00	-0.122559	0.084473	0.912598	7.770000	-15.260000	2.870000	740.00	-0.36	-0.03
1.28	0.25	0.25	0.00	0.00	0.00	0.00	0.00	0.25	0.00	0.25	0.00	0.00	0.00	0.00	0.00	0.00	1.522949	-0.549805	1.205566	162.750000	-33.389999	178.990005	14.00	0.00	0.00	22.25	18.75	9.00	9.00	0.75	0.00	0.00	0.00	0.00	0.00	0.25	0.00	0.00	0.00	0.00	0.00	-0.115723	0.063477	0.896484	9.590000	-12.530000	2.100000	734.00	-0.36	-0.03
1.29	0.00	0.00	0.00	0.00	0.00	0.00	0.00	0.00	0.00	0.00	0.00	0.00	0.00	0.00	0.00	0.00	1.497559	-0.992188	1.248535	164.990005	-49.770000	158.550003	0.00	0.00	0.00	22.00	18.50	9.00	9.00	0.75	0.25	0.00	0.00	0.00	0.00	0.25	0.00	0.00	0.00	0.00	0.00	-0.116699	0.075684	0.904785	10.920000	-9.100000	0.560000	731.00	-0.36	-0.03
1.30	0.75	0.00	0.25	0.00	0.00	0.00	0.00	0.00	0.00	0.25	0.00	0.00	0.00	0.00	0.00	0.00	1.443359	-1.324707	1.244141	149.380005	-66.360001	127.889999	16.00	0.00	0.00	21.50	18.25	9.00	9.00	0.75	0.50	0.00	0.00	0.00	0.00	0.00	0.25	0.00	0.00	0.00	0.00	-0.122559	0.100586	0.906738	10.710000	-5.880000	-0.630000	725.00	-0.36	-0.03
1.31	0.50	0.00	0.25	0.00	0.00	0.00	0.00	0.00	0.00	0.50	0.00	0.00	0.00	0.00	0.00	0.00	1.360352	-1.554688	1.241699	122.989998	-82.739998	88.690002	16.00	0.00	0.00	21.00	17.75	8.75	8.75	0.50	0.50	0.00	0.00	0.00	0.00	0.00	0.25	0.00	0.00	0.00	0.00	-0.122070	0.135254	0.897461	8.960000	-2.590000	-0.980000	704.00	-0.36	-0.03
1.32	0.00	0.00	0.00	0.00	0.00	0.00	0.00	0.00	0.00	0.50	0.00	0.00	0.00	0.00	0.00	0.00	1.299316	-1.642578	1.217285	96.459999	-98.980003	44.590000	6.00	0.00	0.00	21.00	17.75	8.75	8.75	0.75	0.25	0.00	0.00	0.00	0.00	0.00	0.00	0.00	0.00	0.00	0.00	-0.119141	0.145996	0.891602	6.510000	0.840000	-0.490000	701.00	-0.36	-0.03
1.33	0.50	0.00	0.00	0.00	0.00	0.25	0.00	0.00	0.00	0.25	0.00	0.00	0.00	0.00	0.00	0.00	1.208008	-1.605957	1.169434	75.949997	-112.980003	0.770000	13.00	0.00	0.00	20.25	17.50	8.50	8.75	0.75	0.25	0.00	0.00	0.00	0.00	0.00	0.25	0.00	0.00	0.00	0.00	-0.119629	0.107910	0.873535	1.400000	7.840000	-0.840000	688.00	-0.36	-0.03
1.34	0.25	0.00	0.00	0.00	0.00	0.00	0.00	0.00	0.00	0.00	0.00	0.00	0.00	0.00	0.00	0.00	1.105957	-1.496094	1.109863	62.299999	-122.989998	-36.049999	3.00	0.00	0.00	20.50	17.00	8.50	8.50	0.50	0.50	0.00	0.00	0.00	0.00	0.00	0.25	0.00	0.00	0.00	0.00	-0.119141	0.104492	0.853516	-0.350000	12.040000	-1.960000	683.00	-0.36	-0.03
1.35	0.00	0.00	0.00	0.00	0.00	0.00	0.00	0.00	0.00	0.25	0.00	0.00	0.00	0.00	0.00	0.00	0.999512	-1.346680	1.099609	50.189999	-129.500000	-62.230000	3.00	0.00	0.00	20.50	17.00	8.25	8.50	0.50	0.50	0.00	0.00	0.00	0.00	0.25	0.00	0.00	0.00	0.00	0.00	-0.130371	0.109863	0.864258	-1.960000	16.870001	-2.940000	679.00	-0.36	-0.03
1.36	0.00	0.00	0.00	0.00	0.00	0.00	0.00	0.25	0.00	0.25	0.00	0.00	0.00	0.00	0.00	0.00	0.886719	-1.145020	1.133789	38.009998	-133.419998	-75.809998	8.00	0.00	0.00	20.00	16.75	8.75	8.50	0.50	0.50	0.00	0.00	0.00	0.00	0.00	0.00	0.00	0.00	0.00	0.00	-0.132324	0.101562	0.845215	-3.430000	22.049999	-3.850000	674.00	-0.36	-0.03
1.37	0.00	0.00	0.00	0.00	0.00	0.00	0.00	0.25	0.00	0.50	0.00	0.00	0.00	0.00	0.00	0.00	0.782227	-0.999023	1.183594	26.880001	-134.610001	-76.650002	11.00	0.00	0.00	20.75	16.25	8.50	8.75	0.50	0.25	0.00	0.00	0.00	0.00	0.00	0.00	0.00	0.00	0.00	0.00	-0.131836	0.111816	0.838867	-4.620000	28.210001	-4.690000	674.00	-0.36	-0.03
1.38	0.25	0.00	0.25	0.25	0.00	0.00	0.00	0.00	0.00	0.00	0.00	0.00	0.00	0.00	0.00	0.00	0.479004	-0.689453	1.280762	-3.500000	-133.910004	-51.590000	10.00	0.00	0.00	20.25	16.50	8.50	8.50	0.50	0.75	0.00	0.00	0.00	0.00	0.00	0.00	0.00	0.00	0.00	0.00	-0.125488	0.106445	0.836914	-5.460000	34.860001	-5.460000	674.00	-0.36	-0.03
1.39	0.25	0.00	0.00	0.00	0.00	0.00	0.00	0.25	0.00	0.50	0.00	0.00	0.00	0.00	0.00	0.00	0.293945	-0.507812	1.351562	-14.770000	-131.600006	-31.290001	14.00	0.00	0.00	20.00	16.50	8.75	8.75	0.75	0.75	0.00	0.00	0.00	0.00	0.00	0.00	0.00	0.00	0.00	0.00	-0.141602	0.094727	0.807617	-6.230000	42.700001	-5.950000	681.00	-0.36	-0.03
1.40	0.25	0.00	0.00	0.00	0.00	0.00	0.00	0.25	0.00	0.00	0.00	0.00	0.00	0.00	0.00	0.00	0.087891	-0.339844	1.502930	-17.290001	-129.570007	-8.330000	8.00	0.00	0.00	20.00	16.25	8.75	8.75	0.75	1.25	0.00	0.00	0.00	0.00	0.00	0.00	0.00	0.00	0.00	0.00	-0.104492	0.113770	0.737305	-8.260000	54.110001	-6.790000	685.00	-0.35	-0.03
1.41	0.00	0.00	0.00	0.00	0.00	0.00	0.00	0.00	0.00	0.25	0.00	0.00	0.00	0.00	0.00	0.00	-0.103027	-0.210938	1.620605	-14.560000	-130.970001	15.120000	3.00	0.00	0.00	19.50	16.25	8.75	9.00	1.00	1.50	0.00	0.00	0.00	0.00	0.00	0.00	0.00	0.00	0.00	0.00	-0.119629	0.138672	0.698242	-14.630000	71.820000	-8.190000	688.00	-0.35	-0.04
1.42	0.00	0.00	0.00	0.00	0.00	0.00	0.00	0.00	0.00	0.25	0.00	0.00	0.00	0.00	0.00	0.00	-0.331055	-0.106445	1.674805	-15.260000	-133.979996	38.290001	3.00	0.00	0.00	19.75	15.75	8.75	9.25	1.25	2.25	0.25	0.25	0.00	0.00	0.50	0.00	0.00	0.00	0.00	0.00	-0.360352	0.352051	1.866211	-31.990000	96.599998	-10.220000	718.00	-0.34	-0.04
1.43	0.00	0.00	0.00	0.00	0.00	0.00	0.00	0.00	0.00	0.00	0.00	0.00	0.00	0.00	0.00	0.00	-0.538574	-0.013672	1.807129	-25.200001	-138.460007	59.920002	0.00	0.00	0.00	19.25	15.25	9.00	9.25	1.50	3.00	0.50	0.50	0.00	0.00	0.00	0.25	0.00	0.00	0.00	0.00	-0.285645	0.156250	1.024414	-56.490002	94.849998	-6.860000	728.00	-0.33	-0.04
1.44	0.50	0.00	0.25	0.00	0.00	0.00	0.00	0.00	0.00	0.25	0.00	0.00	0.00	0.00	0.00	0.00	-1.274902	0.665527	1.773926	1.260000	-123.270004	92.540001	13.00	0.00	0.00	18.50	14.75	9.00	9.00	2.00	3.00	0.50	0.75	0.00	0.25	0.75	0.50	0.00	0.50	0.25	0.00	-0.419434	-0.061035	1.743164	-65.169998	56.279999	-5.880000	745.00	-0.31	-0.04
1.45	0.50	0.00	0.00	0.00	0.00	0.00	0.00	0.00	0.00	0.00	0.00	0.00	0.00	0.00	0.00	0.00	-1.129883	0.303711	1.357910	-15.960000	-128.869995	113.540001	6.00	0.00	0.00	18.00	13.75	9.00	8.75	2.25	3.25	0.75	1.00	0.50	0.50	0.75	0.50	0.00	0.50	0.00	0.00	-0.388672	-0.031738	0.878906	-22.260000	10.290000	-6.650000	748.00	-0.29	-0.04
1.46	0.25	0.00	0.00	0.00	0.00	0.00	0.00	0.00	0.00	0.25	0.00	0.00	0.00	0.00	0.00	0.00	-1.161621	0.360840	1.548828	-30.870001	-130.970001	130.690002	6.00	0.00	0.00	17.75	13.00	9.00	8.50	2.50	3.50	1.00	1.00	1.00	0.75	0.75	0.75	0.00	0.75	0.25	0.00	-0.202637	0.127930	0.918945	-8.190000	4.130000	-3.500000	764.00	-0.27	-0.03
1.47	0.25	0.00	0.25	0.00	0.00	0.00	0.00	0.00	0.00	0.25	0.00	0.00	0.00	0.00	0.00	0.00	-1.131348	0.173828	1.668945	-56.139999	-140.910004	141.680008	10.00	0.00	0.00	16.75	12.25	8.75	8.25	2.75	3.50	1.25	1.00	1.25	1.00	1.25	1.00	0.00	0.75	0.75	0.00	-0.244141	0.071777	0.914062	-10.780000	10.010000	-3.290000	767.00	-0.25	-0.03
1.48	0.50	0.00	0.00	0.00	0.00	0.00	0.00	0.50	0.00	0.25	0.00	0.00	0.00	0.00	0.00	0.00	-1.223633	0.204102	1.756836	-78.260002	-158.410004	151.059998	18.00	0.00	0.00	15.75	11.00	8.50	8.00	3.25	3.25	1.75	1.25	1.75	1.50	1.50	1.25	0.50	1.50	0.75	0.25	-0.276855	0.060059	0.919434	-11.760000	14.210000	-3.710000	786.00	-0.21	-0.03
1.49	0.00	0.00	0.00	0.00	0.00	0.00	0.00	0.00	0.00	0.00	0.00	0.00	0.00	0.00	0.00	0.00	-1.378418	0.103516	1.402344	-95.900002	-178.570007	157.500000	0.00	0.00	0.00	14.75	9.75	8.50	7.50	3.25	3.50	2.50	1.50	3.00	1.50	1.75	1.75	1.00	1.75	1.25	0.25	-0.260742	0.057129	0.950195	-10.850000	13.790000	-2.730000	817.00	-0.18	-0.02
1.50	0.00	0.00	0.00	0.00	0.00	0.00	0.00	0.00	0.00	0.00	0.00	0.00	0.00	0.25	0.00	0.00	-1.879395	0.364258	0.810547	-97.440002	-180.460007	160.160004	3.00	0.00	0.00	13.00	8.75	8.00	7.25	3.50	3.50	3.50	1.75	4.00	2.25	2.25	2.00	1.25	2.00	1.75	0.50	-0.291992	0.073730	0.965332	-9.940000	14.210000	-2.240000	848.00	-0.13	-0.02
1.51	0.00	0.00	0.00	0.00	0.00	0.00	0.00	0.00	0.00	0.25	0.00	0.00	0.00	0.00	0.00	0.00	-2.116699	0.431641	-0.062012	-74.830002	-150.779999	155.259995	3.00	0.00	0.00	11.25	7.00	7.75	6.25	3.50	3.25	4.25	1.75	5.00	2.50	2.75	2.50	1.50	2.75	1.75	0.50	-0.289551	0.071777	0.943359	-9.310000	15.540000	-1.680000	842.00	-0.09	-0.01
1.52	0.00	0.00	0.00	0.00	0.00	0.00	0.00	0.00	0.00	0.25	0.00	0.00	0.00	0.00	0.00	0.00	-2.778320	0.193359	-0.385742	1.960000	-55.230000	106.820000	3.00	0.00	0.00	10.25	6.00	7.50	6.00	3.50	3.00	5.00	1.75	5.75	3.00	3.50	2.75	2.00	3.25	2.25	0.75	-0.283203	0.066406	0.936523	-7.280000	16.450001	-0.840000	871.00	-0.06	-0.00
1.53	0.25	0.00	0.00	0.00	0.00	0.00	0.00	0.00	0.00	0.25	0.00	0.00	0.00	0.00	0.00	0.00	-2.778320	0.193359	-0.385742	1.960000	-55.230000	106.820000	6.00	0.00	0.00	8.75	5.25	6.75	5.00	3.25	2.75	5.25	2.00	7.25	3.75	4.75	3.25	2.25	4.25	2.50	1.00	-0.303223	0.086426	0.927734	-5.600000	17.710001	-0.280000	895.00	-0.02	0.00
1.54	0.00	0.00	0.00	0.00	0.00	0.00	0.00	0.00	0.00	0.25	0.00	0.00	0.00	0.00	0.00	0.00	-2.668457	-0.073730	-0.079590	49.420002	12.600000	23.030001	3.00	0.00	0.00	7.75	4.00	6.00	4.50	3.25	1.75	5.50	2.00	8.00	5.00	5.50	3.75	2.50	5.00	3.00	1.25	-0.308594	0.095215	0.920410	-5.530000	19.530001	-0.140000	905.00	0.02	0.01
1.55	0.00	0.00	0.00	0.00	0.00	0.00	0.00	0.25	0.00	0.00	0.00	0.00	0.00	0.00	0.00	0.00	-2.354492	-0.039062	0.053711	45.920002	35.279999	-18.900000	5.00	0.00	0.00	6.75	3.25	5.50	3.50	2.50	1.75	6.00	2.00	8.75	6.00	6.25	4.25	3.00	5.25	3.75	1.25	-0.296387	0.079590	0.917480	-7.140000	20.299999	0.490000	921.00	0.05	0.01
1.56	0.00	0.00	0.00	0.00	0.00	0.00	0.00	0.00	0.00	0.00	0.00	0.00	0.00	0.00	0.00	0.00	-2.097656	0.130859	0.230469	34.860001	54.459999	-54.670002	0.00	0.00	0.00	5.75	2.75	5.00	2.75	2.00	1.00	6.25	2.00	9.25	7.00	7.00	5.25	3.25	6.00	4.00	1.50	-0.278809	0.054688	0.947754	-8.610000	22.540001	1.190000	932.00	0.09	0.02
1.57	0.00	0.00	0.00	0.00	0.00	0.00	0.00	0.00	0.00	0.00	0.00	0.00	0.00	0.00	0.00	0.00	-3.035156	0.592773	0.725586	23.520000	63.279999	-80.010002	0.00	0.00	0.00	5.00	2.00	4.00	1.75	1.50	0.50	6.50	1.75	10.00	7.50	7.50	5.50	3.50	7.00	4.25	1.75	-0.299316	0.066895	0.937988	-9.100000	27.020000	2.240000	919.00	0.12	0.03
1.58	0.75	0.25	0.00	0.00	0.00	0.00	0.00	0.00	0.00	0.00	0.00	0.00	0.00	0.00	0.00	0.00	-1.650391	0.336426	-0.615723	71.750000	129.919998	-62.160000	12.00	0.00	0.00	4.25	1.50	2.75	1.75	1.00	0.25	6.75	1.50	10.50	7.75	8.00	6.25	3.75	7.75	4.75	2.00	-0.295410	0.067871	0.940430	-8.610000	34.580002	2.660000	923.00	0.15	0.03
1.59	0.75	0.00	0.00	0.00	0.00	0.00	0.00	0.00	0.00	0.00	0.00	0.00	0.00	0.00	0.00	0.00	-0.639648	0.166016	1.235840	53.830002	199.990005	-53.689999	9.00	0.00	0.00	3.75	1.50	2.75	1.50	0.75	0.00	6.75	1.25	11.50	8.25	8.25	6.50	3.75	8.25	5.00	2.00	-0.295410	0.043945	0.925781	-5.670000	47.740002	1.260000	938.00	0.16	0.03
1.60	1.25	0.50	0.50	0.50	0.00	0.00	0.00	0.00	0.00	0.25	0.00	0.00	0.00	0.00	0.00	0.00	0.342285	0.536621	2.166992	42.840000	197.960007	-41.230000	37.00	0.00	0.00	2.50	1.25	2.25	0.75	0.50	0.00	6.75	1.00	11.75	8.50	8.25	6.75	4.00	8.75	5.25	2.50	-0.315430	0.056641	0.999512	-0.490000	70.489998	0.070000	920.00	0.18	0.03
1.61	2.75	0.75	0.75	0.50	0.00	0.00	0.00	0.00	0.00	0.25	0.00	0.00	0.00	0.00	0.00	0.00	0.343750	0.718262	1.655762	58.799999	135.869995	-16.520000	62.00	-0.34	0.03	2.50	1.25	2.00	0.75	0.50	0.00	6.75	0.75	12.25	8.75	8.50	7.00	4.00	9.00	5.00	2.50	-0.328613	0.073730	0.992188	4.200000	94.849998	-0.490000	929.00	0.19	0.04
1.62	3.75	1.75	1.50	0.25	0.00	0.00	0.00	0.00	0.00	0.00	0.00	0.00	0.00	0.00	0.00	0.00	-0.014648	0.565918	0.354492	71.889999	118.510002	12.390000	89.00	-0.37	0.03	2.50	1.25	1.50	0.75	0.25	0.00	6.75	0.50	12.50	9.00	9.00	7.00	3.25	9.25	5.25	2.75	-0.298340	0.123047	0.951172	2.730000	144.270004	-2.660000	927.00	0.20	0.04
1.63	5.00	2.50	1.75	0.50	0.00	0.00	0.00	0.00	0.00	0.00	0.00	0.00	0.00	0.00	0.00	0.00	-0.256836	0.374512	0.923340	79.800003	159.389999	41.860001	119.00	-0.37	0.02	2.25	1.00	1.00	0.25	0.75	0.00	6.50	0.25	13.00	9.00	9.00	6.75	3.25	9.75	5.25	3.25	-0.405273	0.095215	1.046875	-0.490000	168.559998	-3.710000	918.00	0.21	0.05
1.64	5.50	3.00	1.75	0.75	0.00	0.00	0.00	0.00	0.00	0.00	0.00	0.00	0.00	0.00	0.00	0.00	-0.445801	-0.112305	1.720703	72.099998	169.050003	52.150002	134.00	-0.37	0.01	2.00	1.00	1.00	0.25	0.25	0.00	6.25	0.00	13.00	9.00	9.25	7.00	2.50	10.00	5.75	4.00	-0.426758	0.081055	1.109863	-4.060000	192.289993	-5.880000	912.00	0.22	0.05
1.65	7.25	4.00	2.00	1.00	0.00	0.00	0.00	0.00	0.00	0.00	0.00	0.00	0.00	0.00	0.00	0.00	-0.588867	-0.416992	1.491699	56.139999	144.270004	38.500000	174.00	-0.38	0.01	2.00	1.00	1.00	0.00	0.00	0.00	6.25	0.00	13.25	9.25	9.00	6.75	2.25	10.50	5.50	4.25	-0.488281	0.062500	1.083008	-8.750000	216.229996	-7.770000	907.00	0.22	0.05
1.66	8.75	4.75	2.75	1.50	0.00	0.00	0.00	0.00	0.00	0.25	0.00	0.00	0.00	0.00	0.00	0.00	-0.532715	-0.528809	1.117676	46.689999	137.270004	12.040000	220.00	-0.36	0.01	1.25	0.75	0.75	0.00	0.25	0.00	6.00	0.00	13.00	9.25	9.00	6.50	1.75	10.75	5.50	5.00	-0.525879	0.079590	1.090820	-14.140000	242.339996	-9.100000	886.00	0.23	0.05
1.67	10.25	5.00	3.50	2.00	0.00	0.00	0.00	0.00	0.00	0.25	0.00	0.00	0.00	0.00	0.00	0.00	-0.358398	-0.122070	1.239746	42.139999	138.460007	-11.060000	258.00	-0.36	0.01	1.25	0.50	0.25	0.00	0.25	0.00	5.75	0.00	12.75	9.00	9.00	6.50	1.50	10.75	5.25	5.50	-0.578613	0.087402	1.202637	-16.309999	263.200012	-11.060000	862.00	0.24	0.05
1.68	11.25	6.75	4.25	3.00	0.00	0.00	0.00	0.00	0.00	0.00	0.00	0.00	0.00	0.00	0.00	0.00	-0.437500	0.219238	1.219238	39.480000	134.750000	-17.639999	310.00	-0.37	-0.00	0.75	0.50	0.25	0.00	0.00	0.00	5.75	0.00	12.25	8.75	8.75	6.00	1.25	11.25	5.25	6.00	-0.631348	0.100098	1.192871	-20.160000	283.920013	-13.650000	838.00	0.25	0.06
1.69	12.50	7.75	5.25	3.50	0.25	0.00	0.25	0.00	0.00	0.25	0.00	0.00	0.00	0.00	0.00	0.00	-0.380859	0.342285	2.630371	88.199997	118.580002	4.620000	367.00	-0.35	0.00	1.25	0.75	0.00	0.00	0.00	0.00	5.50	0.00	11.75	8.50	8.25	5.75	1.00	11.50	5.00	6.25	-0.700195	0.127930	1.232422	-21.139999	304.920013	-17.150000	818.00	0.24	0.06
1.70	13.50	8.00	5.50	4.75	0.50	0.25	0.25	0.25	0.00	0.50	0.25	0.00	0.00	0.25	0.00	0.00	-0.500977	0.040527	1.010742	34.930000	38.500000	-4.550000	422.00	-0.33	-0.01	1.00	0.25	0.25	0.00	0.00	0.00	5.25	0.00	11.00	8.00	7.75	5.00	1.00	11.50	5.00	6.25	-0.839844	0.124023	1.385254	-21.350000	324.029999	-21.700001	774.00	0.25	0.06
1.71	14.00	8.50	6.00	4.75	0.50	0.50	0.50	0.50	0.25	0.75	0.00	0.00	0.00	1.00	0.00	0.00	-0.347168	0.109375	1.061035	5.880000	18.340000	-6.300000	464.00	-0.31	-0.01	0.25	0.25	0.00	0.00	0.00	0.00	5.00	0.00	10.00	7.25	7.00	4.25	1.00	11.75	4.50	6.25	-1.130371	0.129395	1.634766	-19.250000	340.200012	-25.549999	709.00	0.26	0.06
1.72	14.50	8.75	6.50	5.00	0.50	0.75	0.75	1.50	0.00	0.75	0.25	0.00	0.00	1.00	0.00	0.00	-0.300781	-0.018066	0.946777	-8.330000	7.770000	-5.670000	508.00	-0.29	-0.02	0.75	0.25	0.00	0.00	0.00	0.00	4.25	0.00	9.00	6.00	5.75	3.25	0.75	11.50	4.00	6.00	-1.394043	0.235352	2.083984	-13.720000	354.269989	-25.620001	630.00	0.26	0.07
1.73	15.25	9.00	7.50	5.25	1.00	1.25	1.00	0.50	0.75	1.00	0.50	0.00	0.00	1.00	0.00	0.00	-0.280273	-0.019043	0.963867	-9.380000	6.230000	-5.390000	554.00	-0.28	-0.00	0.50	0.25	0.00	0.00	0.00	0.00	3.50	0.00	8.25	5.00	4.75	2.00	0.75	11.25	3.00	5.75	-1.387207	0.365723	2.291016	-6.440000	369.600006	-27.160000	544.00	0.27	0.08
1.74	16.25	9.25	7.75	5.50	1.00	1.00	1.50	0.75	1.00	1.00	0.25	0.00	0.00	1.00	0.00	0.00	-0.311035	0.033203	0.939941	-9.380000	5.250000	-4.550000	587.00	-0.28	0.00	0.00	0.25	0.00	0.00	0.00	0.00	2.50	0.00	7.50	3.75	3.50	1.75	0.50	10.50	2.25	5.00	-1.387695	0.354004	2.061523	4.760000	383.390015	-30.240000	449.00	0.28	0.08
1.75	16.75	9.75	8.25	5.75	1.00	1.25	1.75	1.75	1.25	1.00	0.25	0.00	0.00	1.50	0.50	0.00	-0.321777	0.000977	0.959961	-9.520000	3.290000	-3.080000	650.00	-0.25	-0.00	0.00	0.25	0.00	0.00	0.00	0.00	1.75	0.00	6.25	2.75	2.75	1.50	0.50	9.50	1.25	4.00	-1.411621	0.151367	2.322754	18.480000	399.700012	-31.430000	362.00	0.28	0.09
1.76	17.25	10.25	8.50	6.00	1.00	1.00	2.00	1.00	1.50	1.25	0.50	0.00	0.00	1.50	0.50	0.00	-0.298828	-0.013672	0.930176	-7.280000	1.750000	-1.400000	666.00	-0.25	0.01	0.00	0.25	0.00	0.00	0.00	0.00	0.75	0.00	5.25	2.50	2.25	1.50	0.00	8.50	1.25	2.75	-1.234863	-0.261230	2.635254	12.250000	413.980011	-38.990002	296.00	0.29	0.09
1.77	17.25	10.50	8.50	6.00	1.25	1.00	2.25	1.00	1.75	1.25	0.50	0.00	0.00	1.25	0.00	0.00	-0.274902	-0.011230	0.935059	-4.200000	1.820000	0.070000	672.00	-0.25	0.01	0.00	0.25	0.00	0.00	0.00	0.00	0.25	0.00	3.75	2.25	1.75	1.00	0.25	7.25	0.75	1.25	-1.126953	0.445801	3.322266	-48.299999	433.369995	-45.570000	222.00	0.30	0.09
1.78	17.50	10.75	8.75	6.75	1.25	1.50	2.50	1.25	1.75	1.25	0.50	0.25	0.00	1.75	0.75	0.00	-0.283203	-0.010742	0.940430	-0.000000	2.450000	1.260000	724.00	-0.24	0.00	0.00	0.25	0.00	0.00	0.00	0.00	0.00	0.00	2.25	2.00	1.50	1.00	0.00	5.00	0.25	0.25	-0.473633	0.564453	3.339844	-48.090000	421.260010	-40.320000	150.00	0.29	0.09
1.79	17.75	11.25	8.75	7.00	1.25	1.75	2.50	1.00	1.75	1.25	0.50	0.25	0.00	1.50	0.25	0.00	-0.283691	-0.004883	0.939941	4.690000	2.870000	2.590000	726.00	-0.25	0.00	0.00	0.25	0.00	0.00	0.00	0.00	0.00	0.00	1.25	1.25	1.00	0.75	0.00	2.00	0.00	0.00	0.791016	0.224121	2.910645	-43.189999	367.850006	-32.060001	80.00	0.26	0.07
1.80	18.25	11.25	9.00	7.00	1.50	1.50	2.50	1.75	1.75	1.25	0.75	0.25	0.00	1.50	0.50	0.25	-0.289062	0.009766	0.953125	10.640000	4.130000	4.340000	757.00	-0.24	-0.00	0.50	0.50	0.25	0.00	0.00	0.00	0.00	0.00	0.50	0.75	0.50	0.25	0.00	1.25	0.00	0.00	2.798340	0.872070	2.862305	-61.599998	241.430008	-25.830000	54.00	0.11	0.06
1.81	17.75	11.50	9.00	7.50	1.25	2.00	2.50	1.00	1.50	1.50	0.75	0.25	0.00	1.50	0.75	0.00	-0.289062	0.009766	0.953125	10.640000	4.130000	4.340000	750.00	-0.24	-0.00	0.00	0.25	0.00	0.25	0.00	0.00	0.00	0.00	0.25	0.75	0.50	0.00	0.00	0.00	0.00	0.00	-0.361328	0.960938	6.198730	-41.790001	89.669998	-11.200000	26.00	0.00	0.00
1.82	17.25	11.50	8.75	7.50	1.25	2.25	2.25	1.75	1.75	1.25	0.75	0.50	0.00	1.50	1.00	0.00	-0.284180	0.014160	0.954102	12.950000	4.550000	4.760000	760.00	-0.23	-0.02	0.00	0.25	0.00	0.00	0.00	0.00	0.00	0.00	0.50	0.75	0.00	0.00	0.00	0.25	0.25	0.00	2.738770	0.519043	3.180664	-8.610000	-78.610001	-5.040000	26.00	0.00	0.00
1.83	17.00	11.25	8.75	7.75	1.25	2.25	2.25	2.00	1.25	1.50	0.75	0.25	0.00	1.50	0.50	0.25	-0.294434	0.027344	0.946777	15.190001	4.410000	5.250000	749.00	-0.24	-0.02	0.00	0.25	0.00	0.00	0.00	0.00	0.00	0.00	0.50	0.50	0.25	0.00	0.00	0.25	0.00	0.00	1.581543	0.306641	1.860352	-8.120000	-158.410004	3.570000	22.00	0.00	0.00
1.84	17.00	11.75	8.50	7.75	1.25	3.00	2.00	2.00	1.00	1.50	0.75	0.75	0.00	1.00	0.75	0.00	-0.283203	0.037598	0.952637	17.780001	3.010000	5.740000	756.00	-0.24	-0.03	0.50	0.25	0.00	0.00	0.00	0.00	0.00	0.00	0.25	0.50	0.25	0.00	0.00	0.25	0.25	0.00	1.452148	0.238281	1.576660	0.700000	-174.369995	2.240000	28.00	0.00	0.00
1.85	16.25	11.25	8.50	7.50	1.25	3.25	1.75	1.75	1.25	1.25	0.50	0.75	0.00	1.00	0.50	0.50	-0.291016	0.040039	0.952148	15.400000	3.640000	4.900000	730.00	-0.24	-0.03	0.00	0.25	0.00	0.00	0.00	0.00	0.00	0.00	0.00	0.25	0.25	0.25	0.00	0.25	0.00	0.00	1.543457	0.173828	1.400391	25.410000	-181.089996	-7.280000	15.00	0.00	0.00
1.86	15.75	10.75	8.50	7.75	1.25	2.75	1.75	2.25	1.25	1.00	0.75	0.25	0.00	1.25	0.75	0.25	-0.285645	0.045410	0.949219	11.130000	4.620000	3.500000	722.00	-0.24	-0.03	0.00	0.25	0.00	0.00	0.00	0.00	0.00	0.00	0.00	0.25	0.00	0.00	0.00	0.00	0.00	0.00	1.339355	0.081055	1.766602	63.980000	-200.899994	-16.660000	6.00	0.00	0.00
1.87	15.75	10.50	8.25	7.50	1.00	2.75	1.50	2.00	1.00	1.25	0.75	0.50	0.00	1.00	0.75	0.25	-0.284668	0.043945	0.937012	6.860000	5.180000	2.100000	700.00	-0.24	-0.03	0.00	0.25	0.00	0.00	0.00	0.00	0.00	0.00	0.00	0.25	0.00	0.00	0.00	0.25	0.00	0.00	1.256836	-0.186035	2.031738	92.820000	-238.559998	-22.889999	8.00	0.00	0.00
1.88	15.25	10.25	8.00	7.25	1.00	3.00	1.50	2.00	1.00	1.25	0.75	0.50	0.00	1.00	0.75	0.50	-0.277344	0.041016	0.936035	3.290000	5.460000	0.770000	689.00	-0.24	-0.04	0.00	0.25	0.25	0.00	0.00	0.00	0.00	0.00	0.00	0.25	0.00	0.25	0.00	0.00	0.00	0.00	1.065918	-0.385254	2.132324	92.959999	-290.920013	-28.840000	12.00	0.00	0.00
1.89	14.75	9.75	8.00	7.25	1.00	2.50	1.50	2.00	0.75	1.25	0.75	0.50	0.00	1.00	0.50	0.25	-0.282715	0.032715	0.932129	1.190000	5.460000	0.140000	662.00	-0.24	-0.04	0.00	0.25	0.00	0.00	0.00	0.00	0.00	0.00	0.00	0.25	0.00	0.00	0.00	0.50	0.00	0.00	0.779785	-0.394531	1.960938	73.919998	-343.000000	-33.459999	11.00	0.00	0.00
1.90	14.25	9.50	8.00	7.00	1.00	2.50	1.50	1.75	0.75	1.25	0.75	0.50	0.00	0.75	1.00	0.00	-0.289062	0.027832	0.936523	0.210000	5.320000	0.210000	648.00	-0.24	-0.03	0.00	0.25	0.00	0.25	0.00	0.00	0.00	0.00	0.00	0.00	0.00	0.00	0.00	0.00	0.00	0.00	0.513184	-0.346680	1.688965	58.450001	-381.079987	-34.580002	6.00	0.00	0.00
1.91	14.25	9.50	7.75	7.00	1.00	2.25	1.25	2.00	0.75	1.00	1.00	0.50	0.00	0.75	0.75	0.25	-0.281250	0.033691	0.927246	-0.560000	5.390000	0.490000	640.00	-0.24	-0.04	0.00	0.00	0.00	0.00	0.00	0.00	0.00	0.00	0.00	0.25	0.00	0.00	0.00	0.00	0.00	0.00	0.259766	-0.313477	1.458008	58.240002	-402.850006	-33.250000	3.00	0.00	0.00
1.92	13.50	9.00	7.50	6.75	1.00	2.25	1.50	1.75	0.50	1.25	0.75	0.50	0.00	0.50	0.50	0.50	-0.284180	0.020996	0.926758	-1.960000	6.020000	0.560000	610.00	-0.25	-0.04	0.00	0.00	0.00	0.00	0.00	0.00	0.00	0.00	0.00	0.00	0.00	0.00	0.00	0.00	0.00	0.00	-0.181641	-0.376953	1.301270	86.870003	-412.720001	-33.740002	0.00	0.00	0.00
1.93	13.25	8.75	7.50	6.50	1.00	2.25	1.50	2.75	0.50	1.25	0.75	0.50	0.00	0.75	1.00	0.00	-0.282715	0.033691	0.916016	-3.220000	6.580000	0.420000	625.00	-0.23	-0.05	0.00	0.25	0.00	0.00	0.00	0.00	0.00	0.00	0.00	0.00	0.00	0.00	0.00	0.00	0.00	0.00	-0.354980	-0.444336	1.271484	104.580002	-410.130005	-37.730000	3.00	0.00	0.00
1.94	12.75	8.50	7.25	6.25	0.75	2.00	1.75	2.00	1.00	1.25	1.00	0.50	0.00	0.75	0.75	0.25	-0.279297	0.029785	0.916504	-3.430000	6.440000	0.000000	603.00	-0.23	-0.03	0.25	0.00	0.00	0.00	0.00	0.00	0.00	0.00	0.00	0.00	0.00	0.00	0.00	0.00	0.00	0.00	-0.491211	-0.540527	1.403320	118.650002	-403.970001	-45.990002	3.00	0.00	0.00
1.95	12.75	8.25	7.50	6.50	0.75	2.00	1.75	2.00	1.00	1.50	0.75	0.50	0.00	0.75	0.75	0.25	-0.263184	0.030273	0.908691	-3.360000	6.020000	-0.700000	607.00	-0.22	-0.03	0.00	0.25	0.00	0.00	0.00	0.00	0.00	0.00	0.00	0.00	0.00	0.00	0.00	0.00	0.00	0.00	-0.601074	-0.633789	1.541016	122.570000	-395.360016	-54.670002	3.00	0.00	0.00
1.96	12.25	8.00	7.25	6.25	1.00	2.50	2.00	2.75	0.75	1.50	0.75	0.75	0.00	1.25	0.50	0.25	-0.270508	0.027344	0.908691	-3.570000	6.160000	-1.750000	620.00	-0.21	-0.04	0.00	0.25	0.00	0.00	0.00	0.00	0.00	0.00	0.00	0.00	0.00	0.00	0.00	0.00	0.00	0.00	-0.669434	-0.703125	1.685059	112.840004	-387.450012	-59.290001	3.00	0.00	0.00
1.97	12.00	7.75	7.50	6.25	1.00	2.25	2.25	2.25	1.25	1.50	1.00	0.75	0.00	1.00	1.00	0.50	-0.270996	0.033203	0.917969	-3.430000	6.720000	-2.800000	626.00	-0.20	-0.03	0.00	0.25	0.00	0.00	0.00	0.00	0.00	0.00	0.00	0.00	0.00	0.00	0.00	0.00	0.00	0.00	-0.742676	-0.710449	1.791016	96.180000	-381.149994	-60.270000	3.00	0.00	0.00
1.98	11.25	7.25	7.25	6.00	1.00	2.50	2.75	2.25	1.75	2.00	1.00	1.00	0.25	1.25	1.50	0.50	-0.274902	0.025391	0.925781	-6.440000	9.520000	-4.830000	645.00	-0.17	-0.03	0.00	0.25	0.00	0.00	0.00	0.00	0.00	0.00	0.00	0.00	0.00	0.00	0.00	0.00	0.00	0.00	-0.808594	-0.649902	1.845215	81.690002	-373.309998	-58.099998	3.00	0.00	0.00
1.99	11.25	7.00	7.50	6.00	1.25	2.50	3.00	2.50	2.00	2.00	1.50	1.00	0.25	1.75	1.50	0.50	-0.288574	0.021484	0.921875	-7.980000	10.780000	-5.250000	674.00	-0.15	-0.02	0.00	0.00	0.25	0.00	0.00	0.00	0.00	0.00	0.00	0.00	0.00	0.00	0.00	0.00	0.00	0.00	-0.893066	-0.582031	1.926758	72.940002	-363.649994	-53.130001	3.00	0.00	0.00
2.00	10.75	6.75	7.25	5.75	1.25	2.50	3.50	2.50	3.00	2.25	1.50	1.00	0.50	1.75	1.25	0.50	-0.293945	-0.001953	0.932617	-7.560000	11.130000	-4.900000	685.00	-0.14	-0.01	0.00	0.00	0.00	0.00	0.00	0.00	0.00	0.00	0.00	0.00	0.00	0.00	0.00	0.00	0.00	0.00	-0.976562	-0.518066	2.046387	65.800003	-353.709991	-43.959999	0.00	0.00	0.00
2.01	10.25	6.25	7.25	5.50	1.50	2.50	4.00	3.00	3.50	2.50	1.75	1.25	1.00	2.00	1.50	0.50	-0.304199	0.023926	0.915527	-6.580000	11.060000	-4.060000	720.00	-0.11	-0.02	0.00	0.00	0.00	0.00	0.00	0.00	0.00	0.00	0.00	0.00	0.00	0.00	0.00	0.00	0.00	0.00	-1.086914	-0.473145	2.176758	54.040001	-344.329987	-29.400000	0.00	0.00	0.00
2.02	9.75	6.00	7.00	5.50	1.50	2.50	4.50	2.75	4.25	3.00	2.00	1.25	1.25	2.50	2.00	0.75	-0.294434	0.017090	0.921387	-5.530000	11.130000	-3.430000	748.00	-0.09	-0.01	0.00	0.25	0.00	0.00	0.00	0.00	0.00	0.00	0.00	0.00	0.00	0.00	0.00	0.00	0.00	0.00	-1.211914	-0.441406	2.264648	31.710001	-336.769989	-11.130000	3.00	0.00	0.00
2.03	9.25	5.50	7.00	5.25	1.75	2.50	5.00	3.00	5.50	3.25	2.25	1.50	1.00	2.75	1.75	1.00	-0.308105	0.017578	0.932617	-5.180000	11.900000	-3.080000	777.00	-0.07	0.00	0.00	0.00	0.00	0.00	0.00	0.00	0.00	0.00	0.00	0.00	0.00	0.00	0.00	0.00	0.00	0.00	-1.365234	-0.272949	2.275879	-4.410000	-329.700012	7.000000	0.00	0.00	0.00
2.04	8.50	5.00	7.00	5.00	1.75	3.00	5.25	3.25	6.25	3.75	2.75	2.00	1.00	3.25	2.25	1.00	-0.305664	0.021484	0.925781	-5.530000	12.810000	-2.800000	817.00	-0.04	0.00	0.00	0.00	0.00	0.00	0.00	0.00	0.00	0.00	0.00	0.00	0.00	0.00	0.00	0.00	0.00	0.00	-1.470215	-0.054688	2.244629	-40.320000	-318.500000	27.299999	0.00	0.00	0.00
2.05	7.50	5.00	6.50	4.75	1.75	2.50	5.50	3.00	7.00	5.00	3.00	2.25	1.50	3.75	2.75	1.00	-0.311035	0.019043	0.943848	-6.020000	14.560000	-2.660000	838.00	-0.01	0.01	0.00	0.00	0.00	0.00	0.00	0.00	0.00	0.00	0.00	0.00	0.00	0.00	0.00	0.00	0.00	0.00	-1.625977	0.153320	2.262695	-63.000000	-304.360016	52.500000	0.00	0.00	0.00
2.06	7.00	3.75	6.00	4.00	1.75	2.25	5.75	3.75	7.75	5.50	3.25	2.25	2.00	4.75	3.50	1.50	-0.320801	0.026855	0.938477	-6.230000	17.290001	-3.080000	865.00	0.02	0.01	0.00	0.00	0.00	0.00	0.00	0.00	0.00	0.00	0.00	0.00	0.00	0.00	0.00	0.00	0.00	0.00	-1.933105	0.349121	2.364258	-72.379997	-290.149994	80.570000	0.00	0.00	0.00
2.07	6.00	3.00	5.75	3.00	1.75	2.25	6.00	3.50	8.50	6.50	4.75	3.00	2.00	5.25	4.75	1.50	-0.326172	0.023926	0.942383	-6.300000	20.230000	-3.920000	901.00	0.06	0.01	0.00	0.00	0.00	0.00	0.00	0.00	0.00	0.00	0.00	0.00	0.00	0.00	0.00	0.00	0.00	0.00	-2.674316	0.509766	2.854492	-82.250000	-303.519989	135.940002	0.00	0.00	0.00
2.08	4.75	1.50	5.00	3.00	1.50	2.00	6.25	3.00	9.25	7.00	5.25	3.25	2.50	5.75	4.50	1.75	-0.300781	0.035156	0.917969	-4.830000	23.590000	-5.250000	884.00	0.09	0.02	0.00	0.00	0.75	0.00	0.00	0.00	0.00	0.00	0.00	0.00	0.00	0.00	0.00	0.00	0.00	0.00	-3.145508	0.696289	2.770996	-83.930000	-335.510010	157.430008	10.00	0.00	0.00
2.09	3.75	2.00	4.75	2.25	1.25	1.25	6.25	3.75	10.00	7.50	6.00	3.50	2.75	7.00	5.25	2.25	-0.321289	0.020996	0.955078	-2.660000	28.980000	-6.930000	923.00	0.11	0.02	0.00	0.00	0.00	0.00	0.00	0.00	0.00	0.00	0.00	0.00	0.00	0.00	0.00	0.00	0.00	0.00	-3.670898	0.960449	2.227051	-71.889999	-372.959991	172.130005	0.00	0.00	0.00
2.10	2.75	1.25	3.50	1.50	1.00	1.50	6.50	3.50	10.75	8.00	6.75	4.00	4.00	7.75	5.50	2.75	-0.326172	0.015137	0.956543	-0.910000	35.630001	-8.540000	936.00	0.15	0.01	0.00	0.00	0.00	0.00	0.00	0.00	0.00	0.00	0.00	0.00	0.00	0.00	0.00	0.00	0.00	0.00	-4.400391	1.206543	1.356934	-31.920000	-406.839996	175.139999	0.00	0.00	0.00
2.11	2.25	1.00	2.00	1.25	0.75	0.50	6.50	3.25	11.50	8.25	7.25	5.00	4.00	8.50	5.75	3.00	-0.332520	0.017090	0.950195	1.050000	43.680000	-9.450000	929.00	0.17	0.02	0.00	0.00	0.50	0.00	0.00	0.00	0.00	0.00	0.00	0.00	0.00	0.00	0.00	0.00	0.00	0.00	-6.285645	1.206055	0.189941	72.519997	-425.529999	179.619995	7.00	0.00	0.00
2.12	1.75	0.00	2.00	0.50	0.50	0.00	6.75	3.00	12.25	8.75	7.75	5.25	4.25	9.00	6.00	3.25	-0.298828	-0.097656	1.033203	3.920000	66.220001	-2.940000	932.00	0.20	0.03	0.00	0.00	0.00	0.00	0.00	0.00	0.00	0.00	0.00	0.00	0.00	0.00	0.00	0.00	0.00	0.00	-7.315430	0.275879	-1.901855	217.699997	-393.119995	177.309998	0.00	0.00	0.00
2.13	1.25	0.50	1.25	0.50	0.25	0.00	6.75	2.50	13.00	9.00	7.75	5.75	4.50	9.75	6.25	3.50	-0.298828	-0.097656	1.033203	3.920000	66.220001	-2.940000	945.00	0.21	0.03	0.00	0.00	0.00	0.00	0.00	0.00	0.00	0.00	0.00	0.00	0.00	0.00	0.00	0.00	0.00	0.00	-6.410645	-0.693359	-3.125977	325.220001	-261.170013	158.339996	0.00	0.00	0.00
2.14	0.75	0.00	1.00	0.50	0.25	0.25	6.75	2.00	13.50	9.25	8.25	6.00	4.25	10.00	7.00	4.00	-0.412598	0.034668	1.003418	11.830000	113.889999	3.920000	957.00	0.22	0.03	0.00	0.00	0.00	0.00	0.00	0.00	0.00	0.00	0.00	0.00	0.00	0.00	0.00	0.00	0.00	0.00	-4.952148	-1.423340	-3.200684	280.279999	-67.620003	114.660004	0.00	0.00	0.00
2.15	0.75	0.25	0.75	0.50	0.00	0.00	6.50	0.75	14.00	9.50	8.25	6.25	3.50	10.50	6.75	4.25	-0.414062	0.045898	1.027344	10.640000	146.649994	3.290000	932.00	0.23	0.05	0.00	0.00	0.00	0.00	0.00	0.00	0.00	0.00	0.00	0.00	0.00	0.00	0.00	0.25	0.00	0.00	-3.909668	-1.417480	-1.844238	107.449997	115.150002	61.040001	3.00	0.00	0.00
2.16	0.25	0.00	0.75	0.00	0.00	0.00	6.50	0.75	14.00	9.75	8.50	6.25	2.75	10.75	7.00	4.50	-0.448730	0.064453	1.090332	6.930000	188.020004	-0.280000	923.00	0.25	0.05	0.00	0.00	0.00	0.00	0.00	0.00	0.00	0.00	0.25	0.00	0.00	0.00	0.00	0.00	0.00	0.00	-3.142578	-0.718262	-0.008301	-66.570000	236.320007	32.480000	4.00	0.00	0.00
2.17	0.25	0.25	0.75	0.00	0.00	0.00	6.50	0.00	14.50	9.75	8.25	6.25	2.00	11.25	7.25	4.75	-0.519043	0.091797	1.126465	-1.540000	234.220001	-6.930000	919.00	0.25	0.06	0.00	0.25	0.00	0.00	0.00	0.00	0.00	0.00	0.00	0.00	0.00	0.00	0.00	0.00	0.00	0.00	-2.683105	-0.134766	1.450195	-162.190002	281.190002	34.439999	3.00	0.00	0.00
2.18	0.00	0.00	0.00	0.00	0.00	0.00	6.25	0.00	14.50	9.75	8.25	6.00	1.75	11.50	7.25	4.75	-0.571289	0.131836	1.243164	-11.270000	267.820007	-17.080000	895.00	0.26	0.07	2.00	1.00	0.75	0.25	0.00	0.00	0.00	0.00	0.00	0.00	0.00	0.00	0.00	0.00	0.00	0.00	-0.543945	0.186035	4.237305	-10.080000	354.339996	4.760000	49.00	0.00	0.00
2.19	0.00	0.00	0.00	0.00	0.00	0.00	6.00	0.00	14.25	9.75	8.25	5.75	0.75	12.00	7.50	5.25	-0.596191	0.127930	1.230957	-23.030001	299.390015	-28.559999	885.00	0.27	0.07	5.25	2.50	1.25	0.25	0.00	0.00	0.00	0.00	0.00	0.00	0.00	0.00	0.00	0.00	0.00	0.00	0.818359	0.012207	2.548828	2.870000	195.160004	-13.300000	113.00	-0.38	0.03
2.20	0.00	0.00	0.00	0.00	0.00	0.00	5.75	0.00	14.00	9.50	8.00	5.50	0.25	12.00	7.25	5.50	-0.691406	0.121094	1.283691	-34.160000	333.200012	-38.360001	860.00	0.27	0.07	8.25	4.00	2.00	0.75	0.00	0.00	0.00	0.00	0.00	0.00	0.00	0.00	0.00	0.00	0.00	0.00	-0.124512	0.067383	0.298828	-32.480000	103.599998	-26.320000	183.00	-0.38	0.02
2.21	0.00	0.00	0.00	0.00	0.00	0.00	5.50	0.00	13.50	9.00	7.75	5.00	0.00	12.25	6.75	5.50	-0.780273	0.107910	1.532715	-42.770000	365.399994	-45.709999	826.00	0.27	0.08	10.25	7.25	2.50	1.50	0.00	0.00	0.00	0.00	0.00	0.00	0.00	0.00	0.00	0.00	0.00	0.00	-0.482422	0.022461	1.327637	-11.690000	185.149994	-11.340000	260.00	-0.38	-0.00
2.22	0.00	0.00	0.00	0.00	0.00	0.00	5.00	0.00	12.00	8.50	6.75	4.00	0.00	12.50	6.50	5.75	-1.038086	0.195312	1.649414	-43.259998	394.239990	-49.980000	763.00	0.27	0.08	12.50	9.25	4.25	2.00	0.00	0.00	0.00	0.00	0.00	0.00	0.00	0.00	0.00	0.00	0.00	0.00	-1.045410	-0.250488	3.043457	44.170002	288.540009	22.960001	340.00	-0.38	-0.00
2.23	0.00	0.00	0.00	0.00	0.00	0.00	4.25	0.00	10.50	7.50	5.75	3.50	0.50	12.50	6.00	5.75	-1.337402	0.356445	2.038574	-21.980000	421.679993	-51.520000	694.00	0.28	0.07	15.00	11.25	5.25	3.00	0.00	0.00	0.00	0.00	0.00	0.00	0.00	0.00	0.00	0.50	0.00	0.00	-0.995117	-0.658691	2.438965	52.500000	227.220001	3.290000	424.00	-0.36	-0.00
2.24	0.00	0.00	0.00	0.00	0.00	0.00	3.75	0.00	9.00	6.00	4.25	2.75	0.75	12.25	5.25	5.50	-1.612305	0.293457	2.610840	14.840000	444.570007	-44.939999	604.00	0.28	0.08	17.50	13.25	5.75	4.25	0.00	0.00	0.00	0.00	0.25	0.00	0.00	0.00	0.00	0.00	0.00	0.00	-0.646484	-0.265137	1.849609	52.990002	199.710007	-29.260000	499.00	-0.37	-0.01
2.25	0.00	0.00	0.00	0.00	0.00	0.00	2.75	0.00	7.25	4.75	3.25	2.00	0.50	11.50	4.25	5.25	-1.833496	0.148926	3.007812	46.340000	455.980011	-29.610001	496.00	0.29	0.08	18.00	14.00	7.00	5.00	0.25	0.00	0.00	0.00	0.00	0.00	0.00	0.00	0.00	0.00	0.00	0.00	-0.466797	0.486328	1.782715	57.750000	186.410004	-40.950001	540.00	-0.37	-0.01
2.26	0.00	0.00	0.00	0.00	0.00	0.00	2.00	0.00	5.75	3.50	2.25	1.75	0.00	9.75	2.75	4.25	-1.633789	0.085938	2.886719	79.099998	464.100006	-11.900000	380.00	0.29	0.09	18.50	15.25	7.50	6.25	0.50	0.00	0.00	0.00	0.00	0.00	0.25	0.00	0.00	0.50	0.00	0.00	-0.483398	0.674805	1.529785	53.760002	164.149994	-24.010000	594.00	-0.35	-0.02
2.27	0.00	0.00	0.00	0.00	0.00	0.00	1.25	0.00	4.50	2.75	2.25	1.25	0.75	8.50	2.00	2.75	-1.333984	-0.351074	2.979492	100.519997	476.420013	-4.620000	308.00	0.30	0.08	18.25	15.00	8.25	7.00	0.75	0.00	0.00	0.00	0.00	0.00	0.25	0.00	0.00	0.75	0.00	0.00	-0.411621	0.271484	1.312012	40.040001	156.380005	-3.010000	614.00	-0.35	-0.02
2.28	0.00	0.00	0.00	0.00	0.00	0.00	0.75	0.00	3.25	2.75	1.75	0.75	0.00	6.75	1.75	1.00	-1.331543	-0.519043	3.074219	75.110001	496.089996	-9.870000	227.00	0.30	0.10	18.50	15.00	8.25	8.00	1.00	0.50	0.00	0.00	0.00	0.00	0.50	0.25	0.00	0.50	0.00	0.00	-0.616699	0.523926	2.466797	14.350000	145.669998	0.490000	644.00	-0.34	-0.03
2.29	0.00	0.00	0.00	0.00	0.00	0.00	0.25	0.00	2.25	2.50	1.50	0.50	0.00	4.50	0.50	0.75	-0.285156	-0.157715	4.014648	34.790001	507.149994	-5.950000	153.00	0.30	0.10	18.00	15.50	8.50	8.00	1.25	1.00	0.00	0.25	0.25	0.00	0.25	0.50	0.00	0.50	0.00	0.00	-0.413574	0.195801	1.177246	-19.670000	101.290001	2.870000	665.00	-0.33	-0.03
2.30	0.25	0.00	0.00	0.00	0.00	0.00	0.25	0.25	1.00	2.00	0.75	0.25	0.00	2.00	0.75	0.25	1.444336	-0.199707	3.653809	11.760000	473.619995	-6.370000	96.00	0.26	0.06	19.00	15.25	9.00	8.25	1.50	1.00	0.25	0.50	0.25	0.00	0.50	0.25	0.00	1.25	0.50	0.00	-0.304688	0.083008	1.101562	-46.060001	92.120003	0.490000	711.00	-0.31	-0.03
2.31	0.50	0.00	0.00	0.00	0.00	0.00	0.00	0.00	0.75	1.25	0.25	0.00	0.00	1.00	0.00	0.00	3.117676	-0.084473	3.068848	-25.969999	344.750000	-6.300000	47.00	0.00	0.00	19.25	15.50	9.25	8.50	1.75	1.50	0.25	0.25	0.25	0.50	0.75	0.50	0.00	1.25	0.00	0.00	-0.320312	0.110840	1.171387	-41.369999	55.650002	-0.910000	735.00	-0.31	-0.03
2.32	0.25	0.00	0.00	0.00	0.00	0.00	0.00	0.00	0.50	1.50	0.00	0.00	0.00	0.75	0.25	0.00	0.450195	-0.136719	6.971680	-37.520000	175.070007	-10.290000	40.00	0.00	0.00	19.50	16.00	9.25	8.50	2.00	1.25	0.25	0.25	0.50	0.50	0.50	0.25	0.00	1.00	0.00	0.00	-0.358398	0.057617	0.974121	-24.150000	13.790000	-4.270000	738.00	-0.31	-0.02
2.33	0.00	0.00	0.00	0.00	0.00	0.00	0.00	0.00	0.00	1.50	0.25	0.00	0.00	0.50	0.00	0.00	2.483887	0.132812	3.979492	-29.469999	-25.059999	-3.430000	27.00	0.00	0.00	19.75	16.00	9.75	8.75	2.00	1.50	0.25	0.25	0.50	0.75	0.75	0.75	0.00	2.25	0.00	0.00	-0.251953	0.079590	0.989746	-17.010000	-0.140000	-2.800000	780.00	-0.29	-0.02
2.34	0.00	0.00	0.00	0.00	0.00	0.00	0.00	0.00	0.50	1.25	0.25	0.00	0.00	0.50	0.00	0.00	1.458496	0.328613	2.568359	-30.380001	-155.050003	15.890000	32.00	0.00	0.00	19.50	16.00	9.50	8.75	2.00	1.25	0.50	0.25	0.25	0.50	0.75	0.75	0.00	1.25	0.00	0.00	-0.253418	0.065430	0.980469	-14.070000	-3.640000	-1.470000	757.00	-0.30	-0.03
2.35	0.00	0.00	0.00	0.00	0.00	0.25	0.00	0.00	0.00	1.25	0.25	0.00	0.00	0.50	0.00	0.00	1.313965	0.271484	1.679688	-24.219999	-200.199997	35.840000	27.00	0.00	0.00	19.25	16.00	9.50	8.50	2.00	1.25	0.50	0.25	0.00	0.25	0.50	0.75	0.00	1.00	0.00	0.00	-0.250000	0.061523	0.960449	-10.990000	-4.060000	-0.560000	738.00	-0.31	-0.03
2.36	0.00	0.00	0.00	0.00	0.00	0.00	0.00	0.00	0.00	1.25	0.25	0.00	0.00	0.00	0.00	0.00	1.217773	0.157715	1.314453	-7.700000	-207.619995	49.000000	19.00	0.00	0.00	19.00	15.25	9.25	8.25	2.00	1.25	0.50	0.25	0.50	0.25	0.50	0.50	0.00	1.00	0.75	0.00	-0.231445	0.060059	0.943359	-6.650000	-2.240000	0.770000	734.00	-0.30	-0.02
2.37	0.00	0.00	0.00	0.00	0.00	0.00	0.00	0.25	0.25	1.00	0.25	0.00	0.00	0.00	0.00	0.00	1.068848	-0.032715	1.451172	14.070000	-216.089996	51.660000	24.00	0.00	0.00	18.25	15.00	9.25	8.25	1.75	1.00	0.25	0.25	0.50	0.50	0.50	0.25	0.00	1.00	0.00	0.00	-0.224121	0.060547	0.926270	-5.110000	-0.770000	1.190000	702.00	-0.31	-0.02
2.38	0.00	0.00	0.00	0.00	0.00	0.25	0.00	0.00	0.00	0.75	0.25	0.00	0.00	0.25	0.00	0.00	0.944336	-0.282715	1.625488	33.389999	-238.770004	46.060001	18.00	0.00	0.00	17.75	14.25	8.75	8.00	1.50	0.75	0.50	0.25	0.50	0.25	0.75	0.50	0.00	1.00	0.00	0.00	-0.231934	0.062012	0.924316	-3.780000	0.490000	1.820000	679.00	-0.31	-0.02
2.39	0.00	0.00	0.00	0.00	0.00	0.00	0.00	0.25	0.00	0.75	0.25	0.00	0.00	0.50	0.00	0.00	0.757812	-0.448242	1.684570	41.020000	-273.559998	33.250000	22.00	0.00	0.00	16.75	13.25	8.75	7.75	1.50	0.75	0.25	0.25	0.50	0.75	0.50	0.00	0.00	1.50	0.00	0.00	-0.224121	0.067383	0.934570	-3.640000	1.610000	2.030000	649.00	-0.30	-0.02
2.40	0.00	0.00	0.00	0.00	0.00	0.00	0.00	0.00	0.00	0.50	0.00	0.00	0.00	0.25	0.00	0.00	0.510742	-0.531738	1.623047	41.860001	-309.470001	16.450001	9.00	0.00	0.00	16.00	12.50	8.50	7.25	1.50	1.00	0.50	0.25	0.50	0.75	0.50	0.50	0.00	1.50	0.00	0.00	-0.237305	0.066895	0.936035	-3.640000	2.310000	1.890000	636.00	-0.29	-0.02
2.41	0.00	0.00	0.00	0.00	0.00	0.00	0.00	0.25	0.00	0.75	0.00	0.00	0.00	0.00	0.00	0.00	0.271484	-0.576660	1.505859	42.630001	-339.640015	-1.120000	14.00	0.00	0.00	15.25	11.50	8.00	7.00	1.25	0.50	0.50	0.00	0.75	0.50	0.50	0.50	0.00	0.50	0.25	0.00	-0.233887	0.067871	0.931152	-3.990000	2.380000	1.470000	585.00	-0.30	-0.01
2.42	0.00	0.00	0.00	0.00	0.00	0.00	0.00	0.25	0.00	0.75	0.00	0.00	0.00	0.00	0.00	0.00	0.058594	-0.591309	1.412598	44.939999	-361.410004	-17.570000	14.00	0.00	0.00	14.75	10.75	8.00	6.50	1.25	0.25	0.50	0.00	0.75	0.75	0.75	0.50	0.00	1.00	0.00	0.00	-0.240234	0.072754	0.921875	-6.160000	3.150000	0.560000	569.00	-0.29	-0.01
2.43	0.00	0.00	0.00	0.00	0.00	0.00	0.00	0.50	0.00	0.50	0.00	0.00	0.00	0.00	0.00	0.00	-0.128418	-0.597656	1.381836	47.810001	-377.019989	-32.130001	15.00	0.00	0.00	13.75	9.75	7.75	6.25	1.25	0.25	0.50	0.25	0.50	0.50	0.75	0.75	0.00	0.75	0.00	0.00	-0.228027	0.082520	0.911133	-9.450000	4.830000	-1.050000	537.00	-0.29	-0.01
2.44	0.00	0.00	0.00	0.00	0.00	0.00	0.00	0.25	0.00	0.50	0.00	0.00	0.00	0.00	0.00	0.00	-0.447754	-0.616211	1.308594	49.630001	-396.059998	-55.439999	11.00	0.00	0.00	13.00	9.25	7.50	6.00	1.25	0.25	0.50	0.25	0.75	0.50	0.75	0.75	0.00	0.75	0.00	0.00	-0.217285	0.069824	0.918457	-12.320000	6.370000	-2.520000	520.00	-0.28	-0.01
2.45	0.00	0.00	0.00	0.00	0.00	0.00	0.00	0.00	0.00	0.50	0.00	0.00	0.00	0.00	0.00	0.00	-0.558594	-0.630371	1.269531	48.020000	-397.809998	-64.540001	6.00	0.00	0.00	11.50	7.75	7.50	5.50	1.25	0.25	0.75	0.00	0.50	1.00	1.00	0.50	0.00	0.25	0.50	0.00	-0.247559	0.063965	0.919434	-13.720000	7.000000	-3.710000	481.00	-0.27	-0.01
2.46	0.00	0.00	0.00	0.00	0.00	0.00	0.00	0.00	0.00	0.50	0.00	0.00	0.00	0.00	0.00	0.00	-0.666016	-0.676758	1.265137	43.259998	-394.660004	-73.430000	6.00	0.00	0.00	11.00	7.00	7.25	5.25	1.25	0.00	1.00	0.00	1.25	1.00	1.00	0.75	0.00	1.25	0.00	0.00	-0.268555	0.046875	0.918457	-14.210000	7.210000	-3.780000	480.00	-0.24	0.01
2.47	0.50	0.00	0.00	0.00	0.00	0.00	0.00	0.00	0.00	0.25	0.00	0.00	0.00	0.00	0.00	0.00	-0.802734	-0.657715	1.283203	34.790001	-387.309998	-81.480003	9.00	0.00	0.00	10.50	6.50	6.75	5.00	1.25	0.00	1.00	0.25	1.50	1.25	1.25	1.00	0.00	1.00	0.00	0.00	-0.269531	0.048828	0.911133	-14.770000	8.050000	-3.430000	474.00	-0.22	0.01
2.48	0.00	0.00	0.00	0.00	0.00	0.25	0.00	0.00	0.00	0.25	0.00	0.00	0.00	0.00	0.00	0.00	-0.838379	-0.597656	1.338379	24.219999	-377.089996	-84.769997	6.00	0.00	0.00	9.75	6.00	6.75	4.50	1.25	0.50	1.50	0.00	2.00	1.25	1.25	0.75	0.00	1.00	0.50	0.00	-0.255859	0.052246	0.911621	-16.940001	10.570000	-3.920000	474.00	-0.20	0.02
2.49	0.25	0.00	0.00	0.00	0.00	0.00	0.00	0.25	0.00	0.50	0.00	0.00	0.00	0.00	0.00	0.00	-0.866699	-0.544434	1.472656	17.080000	-366.730011	-81.900002	14.00	0.00	0.00	9.50	5.50	6.75	4.00	1.00	0.00	2.25	0.25	2.50	1.75	1.00	0.75	0.00	1.25	0.50	0.00	-0.257812	0.050293	0.902832	-18.620001	13.160000	-4.900000	481.00	-0.17	0.04
2.50	0.00	0.00	0.00	0.00	0.00	1.00	0.00	0.25	0.00	0.50	0.00	0.00	0.00	0.00	0.00	0.00	-0.893066	-0.518555	1.611328	16.170000	-359.029999	-73.360001	24.00	0.00	0.00	9.00	5.00	6.75	4.00	1.50	0.00	3.25	0.25	3.50	1.75	1.50	1.00	0.25	2.00	0.50	0.00	-0.233398	0.050781	0.901367	-15.050000	13.020000	-5.880000	529.00	-0.13	0.05
2.51	0.00	0.00	0.00	0.00	0.00	0.00	0.00	0.00	0.00	0.25	0.00	0.00	0.00	0.00	0.00	0.00	-0.950684	-0.515625	1.787598	18.830000	-353.220001	-60.549999	3.00	0.00	0.00	8.50	4.50	6.50	3.25	1.75	0.25	4.00	0.25	4.75	2.25	1.75	1.25	0.25	2.25	0.00	0.00	-0.233887	0.054688	0.915527	-11.060000	11.480000	-6.300000	552.00	-0.09	0.06
2.52	0.00	0.00	0.00	0.00	0.00	0.00	0.00	0.25	0.00	0.75	0.00	0.00	0.00	0.00	0.00	0.00	-1.089355	-0.565430	1.948730	20.510000	-350.559998	-45.290001	14.00	0.00	0.00	8.25	4.00	6.50	3.00	1.75	0.00	5.00	0.25	5.75	2.75	2.50	1.50	0.50	2.75	1.00	0.25	-0.252930	0.049316	0.918945	-7.910000	10.500000	-6.720000	611.00	-0.05	0.07
2.53	0.00	0.00	0.00	0.00	0.00	0.50	0.00	0.00	0.00	0.50	0.00	0.00	0.00	0.00	0.00	0.00	-1.231934	-0.520508	2.166016	8.680000	-350.209991	-30.730000	13.00	0.00	0.00	7.75	3.50	6.25	2.75	2.00	0.00	5.25	0.50	7.25	3.25	2.75	1.75	1.00	3.50	1.25	0.25	-0.279785	0.045898	0.953613	-6.440000	10.850000	-7.070000	657.00	-0.01	0.07
2.54	0.00	0.00	0.00	0.00	0.00	0.00	0.00	0.00	0.00	0.25	0.00	0.00	0.00	0.25	0.00	0.00	-1.313965	-0.467285	2.370605	-16.730000	-350.420013	-16.170000	6.00	0.00	0.00	7.50	3.00	6.00	2.25	2.00	0.00	5.75	0.50	8.25	5.00	3.25	2.25	0.75	5.00	1.75	0.25	-0.314941	0.032227	0.943848	-6.160000	13.160000	-7.070000	716.00	0.03	0.08
2.55	0.00	0.00	0.00	0.00	0.00	0.00	0.00	0.00	0.00	0.50	0.00	0.00	0.00	0.00	0.00	0.00	-1.369629	-0.301270	2.524902	-47.250000	-351.119995	-0.490000	6.00	0.00	0.00	6.75	2.25	5.75	2.00	2.00	0.00	6.25	0.50	9.00	5.75	5.00	2.50	1.00	5.25	2.00	0.50	-0.297363	0.035645	0.932617	-5.810000	16.100000	-6.720000	757.00	0.06	0.08
2.56	0.00	0.00	0.00	0.00	0.00	0.00	0.00	0.25	0.00	0.25	0.00	0.00	0.00	0.00	0.00	0.00	-1.499512	-0.106445	2.669922	-76.019997	-353.570007	15.960000	8.00	0.00	0.00	5.75	1.25	5.25	1.25	1.75	0.00	6.50	0.50	9.75	6.50	5.75	3.00	1.50	5.50	2.25	0.75	-0.304199	0.045898	0.933594	-4.760000	19.670000	-6.720000	767.00	0.09	0.08
2.57	0.00	0.00	0.00	0.00	0.00	0.00	0.00	0.00	0.00	0.25	0.00	0.00	0.00	0.00	0.00	0.00	-1.732422	0.097168	2.815430	-99.120003	-354.690002	31.780001	3.00	0.00	0.00	5.00	1.50	4.75	1.00	1.75	0.00	6.75	0.50	10.75	7.25	6.25	3.50	1.75	7.25	2.50	0.75	-0.308594	0.061035	0.939941	-3.360000	23.799999	-7.840000	816.00	0.11	0.08
2.58	0.00	0.00	0.00	0.00	0.00	0.00	0.00	0.00	0.00	0.25	0.00	0.00	0.00	0.00	0.00	0.00	-3.281250	1.097168	2.756348	-117.879997	-369.670013	56.840000	3.00	0.00	0.00	4.00	1.00	4.00	0.75	1.25	0.00	7.00	0.50	11.50	7.75	7.00	4.00	2.25	8.00	3.00	0.75	-0.321777	0.074707	0.973145	-2.730000	28.350000	-10.360000	836.00	0.14	0.08
2.59	0.00	0.00	0.00	0.00	0.00	0.00	0.00	0.00	0.00	0.25	0.00	0.00	0.00	0.00	0.00	0.00	-2.292969	0.571289	1.978027	-61.459999	-363.929993	81.830002	3.00	0.00	0.00	3.25	0.75	2.75	0.75	0.75	0.00	7.00	0.50	12.25	8.25	7.50	5.00	2.25	8.25	3.50	1.00	-0.302246	0.062500	0.936035	-3.010000	33.599998	-12.810000	848.00	0.17	0.07
2.60	0.00	0.00	0.00	0.00	0.00	0.00	0.00	0.00	0.00	0.00	0.00	0.00	0.00	0.00	0.00	0.00	-3.529297	0.792480	2.590332	-59.010002	-379.260010	82.809998	0.00	0.00	0.00	2.75	0.50	2.50	0.50	0.50	0.00	7.25	0.50	13.00	8.50	8.00	5.25	2.75	8.75	3.75	1.25	-0.338379	0.065430	0.927246	-3.850000	38.779999	-14.630000	872.00	0.18	0.07
2.61	0.00	0.00	0.00	0.00	0.00	0.00	0.00	0.00	0.00	0.25	0.00	0.00	0.00	0.00	0.00	0.00	-4.297852	0.788086	1.984375	-67.620003	-399.839996	76.160004	3.00	0.00	0.00	2.25	0.50	2.00	0.25	0.25	0.00	7.25	0.25	13.75	9.00	8.25	5.50	2.50	9.25	4.25	1.50	-0.317383	0.016113	1.044434	-4.340000	50.680000	-13.300000	883.00	0.20	0.07
2.62	0.00	0.00	0.00	0.00	0.00	0.00	0.00	0.25	0.00	0.25	0.00	0.00	0.00	0.00	0.25	0.00	-6.045410	0.807129	0.688965	-31.430000	-393.679993	51.590000	11.00	0.00	0.00	2.50	0.50	1.50	0.25	0.25	0.00	7.25	0.25	14.50	9.25	8.75	6.00	2.50	9.75	5.00	1.50	-0.343262	0.029785	0.992676	-1.400000	71.959999	-11.830000	921.00	0.21	0.07
2.63	0.00	0.00	0.00	0.00	0.00	0.00	0.00	0.25	0.00	0.00	0.00	0.00	0.00	0.00	0.00	0.00	-7.500488	0.764160	-1.741211	66.150002	-353.360016	8.470000	5.00	0.00	0.00	2.00	0.50	1.00	0.25	0.00	0.00	7.25	0.25	15.00	9.75	9.00	6.25	2.75	10.50	4.75	2.00	-0.335938	0.027832	1.013672	0.140000	96.739998	-10.850000	936.00	0.22	0.07
2.64	0.00	0.00	0.00	0.00	0.00	0.00	0.00	0.00	0.00	0.25	0.00	0.00	0.00	0.00	0.00	0.00	-8.757812	0.548828	-3.352539	192.009995	-259.420013	-31.710001	3.00	0.00	0.00	1.25	0.50	0.75	0.00	0.25	0.00	7.00	0.00	15.75	10.00	9.50	6.50	2.50	10.75	5.25	2.25	-0.389648	-0.005371	1.044434	-1.470000	120.330002	-8.750000	946.00	0.23	0.07
2.65	0.50	0.00	0.00	0.00	0.00	0.00	0.00	0.50	0.00	0.00	0.00	0.00	0.00	0.00	0.00	0.00	-6.554688	-0.038574	-4.386719	279.160004	-1.540000	-28.910000	15.00	0.00	0.00	1.75	0.25	0.50	0.00	0.00	0.00	7.00	0.00	16.25	10.25	9.75	6.75	2.75	11.50	5.00	2.50	-0.426758	-0.029297	1.051758	-8.610000	165.970001	2.310000	969.00	0.23	0.07
2.66	1.25	0.50	0.50	0.00	0.00	0.00	0.00	0.00	0.00	0.00	0.00	0.00	0.00	0.00	0.00	0.00	-5.570801	-0.326660	-2.942383	141.190002	233.589996	-27.650000	28.00	0.00	0.00	1.00	0.00	0.50	0.00	0.00	0.00	7.00	0.00	16.25	10.50	10.00	6.50	2.25	11.75	5.75	3.00	-0.459961	-0.000977	1.114746	-13.370000	191.660004	8.190000	970.00	0.24	0.07
2.67	4.00	2.25	1.00	0.00	0.00	0.00	0.00	0.00	0.00	0.00	0.00	0.00	0.00	0.00	0.00	0.00	-0.955566	0.041992	0.069336	-7.980000	416.989990	-18.969999	88.00	-0.39	0.03	0.50	0.25	0.75	0.00	0.00	0.00	6.75	0.00	16.50	10.75	10.00	6.75	2.25	12.25	5.75	3.00	-0.490234	0.061035	1.158203	-16.870001	226.520004	9.590000	981.00	0.24	0.07
2.68	8.50	5.50	1.75	1.25	0.00	0.00	0.00	0.00	0.00	0.00	0.00	0.00	0.00	0.00	0.00	0.00	-0.908691	1.171387	4.106445	18.620001	452.830017	12.460000	206.00	-0.38	-0.00	0.00	0.00	0.00	0.00	0.00	0.00	6.75	0.00	16.25	10.75	10.25	6.50	1.50	12.50	6.00	4.50	-0.552246	0.129395	1.244141	-21.280001	268.519989	3.080000	965.00	0.26	0.07
2.69	13.00	9.50	3.00	2.00	0.00	0.00	0.00	0.00	0.00	0.00	0.00	0.00	0.00	0.00	0.00	0.00	-0.645508	0.492676	3.585938	57.820000	318.429993	51.660000	332.00	-0.38	-0.01	0.00	0.00	0.25	0.00	0.00	0.00	6.50	0.00	16.00	10.50	10.00	6.50	1.50	12.50	5.50	4.75	-0.601562	0.149414	1.234375	-26.670000	309.959991	-8.750000	950.00	0.26	0.07
2.70	16.25	11.50	3.75	3.25	0.00	0.00	0.00	0.00	0.00	0.00	0.00	0.00	0.00	0.00	0.00	0.00	-0.962402	0.008301	1.547852	56.139999	260.329987	64.260002	421.00	-0.38	-0.01	0.00	0.00	0.00	0.00	0.00	0.00	6.25	0.00	15.00	10.25	9.75	6.00	1.50	13.00	5.50	5.50	-0.676758	0.110352	1.278809	-32.619999	347.760010	-20.860001	923.00	0.26	0.07
2.71	18.00	13.25	5.25	5.00	0.00	0.00	0.00	0.00	0.00	0.00	0.00	0.00	0.00	0.00	0.00	0.00	-0.954590	-0.485352	1.724121	38.360001	320.600006	60.130001	505.00	-0.37	-0.02	0.25	0.00	0.00	0.00	0.00	0.00	6.00	0.00	14.25	9.75	9.25	5.25	1.50	12.75	5.50	5.50	-0.790039	0.155762	1.372559	-38.150002	381.149994	-30.100000	886.00	0.26	0.07
2.72	19.00	14.25	5.75	5.75	0.00	0.25	0.00	0.00	0.00	0.00	0.00	0.00	0.00	0.00	0.00	0.00	-1.011230	-0.655273	2.605957	82.250000	259.140015	6.790000	548.00	-0.37	-0.02	0.00	0.00	0.00	0.00	0.00	0.00	5.75	0.00	12.75	9.00	8.50	5.00	1.50	12.50	5.00	5.50	-1.166992	0.229004	1.701660	-36.119999	411.110016	-39.200001	824.00	0.26	0.07
2.73	19.50	15.50	7.50	7.50	0.25	0.00	0.00	0.00	0.00	0.00	0.00	0.00	0.00	0.00	0.00	0.00	-1.011230	-0.655273	2.605957	82.250000	259.140015	6.790000	614.00	-0.36	-0.02	0.00	0.00	0.00	0.00	0.00	0.00	5.25	0.00	10.75	8.00	7.50	4.00	1.25	12.25	4.25	5.25	-1.438965	0.285645	2.189453	-28.490000	435.330017	-48.160000	730.00	0.27	0.07
2.74	19.50	15.75	8.25	8.50	0.25	0.75	0.00	0.25	0.00	0.00	0.00	0.00	0.00	0.00	0.00	0.00	-0.729980	0.868164	2.334961	104.370003	223.160004	-7.630000	655.00	-0.36	-0.03	0.00	0.00	0.00	0.00	0.00	0.00	5.00	0.00	9.25	6.50	6.00	2.75	1.25	12.00	3.25	4.75	-1.960938	0.581543	2.904785	-9.590000	453.040009	-53.689999	631.00	0.27	0.08
2.75	20.00	16.50	9.00	9.25	0.50	3.00	0.00	1.25	0.00	0.25	0.25	0.00	0.00	0.25	0.00	0.00	-0.805176	0.372070	2.265137	10.500000	157.009995	6.510000	748.00	-0.33	-0.05	0.00	0.00	0.00	0.00	0.00	0.00	3.50	0.00	8.00	5.00	4.25	2.00	0.50	10.50	2.00	3.75	-2.088379	0.363281	3.023926	17.920000	467.950012	-52.849998	489.00	0.27	0.10
2.76	20.25	16.25	9.25	9.50	0.75	3.75	0.00	1.50	0.00	0.25	0.50	0.25	0.00	0.25	0.00	0.00	-0.536133	-0.047363	1.357422	-20.440001	82.389999	7.420000	779.00	-0.32	-0.06	0.00	0.00	0.00	0.00	0.00	0.00	2.25	0.00	6.75	3.50	3.00	2.00	0.50	9.25	1.00	2.00	-1.944824	0.116211	3.153809	42.279999	480.130005	-48.509998	377.00	0.28	0.10
2.77	20.00	16.25	9.50	9.75	0.75	4.25	0.00	1.75	0.00	0.50	0.75	0.50	0.00	0.75	0.00	0.00	-0.280273	0.055664	1.052246	-6.300000	32.060001	1.260000	808.00	-0.31	-0.06	0.00	0.00	0.00	0.00	0.00	0.00	1.00	0.00	5.00	3.00	2.75	1.50	0.25	7.75	0.25	0.75	-1.683105	-0.154785	3.622070	44.730000	484.049988	-54.740002	276.00	0.28	0.11
2.78	20.25	16.50	9.75	10.00	1.00	5.00	0.25	2.25	0.00	0.50	0.75	0.50	0.00	1.25	0.00	0.00	-0.353027	0.128906	1.002441	-2.170000	10.780000	-1.120000	853.00	-0.29	-0.06	0.00	0.00	0.00	0.00	0.00	0.00	0.50	0.00	2.75	2.25	2.25	1.50	0.00	6.00	0.25	0.25	-1.346680	0.132324	3.808105	5.880000	495.040009	-67.480003	193.00	0.29	0.09
2.79	20.75	17.00	9.75	10.25	1.00	5.00	0.25	2.25	0.00	1.00	0.75	1.00	0.00	1.00	0.00	0.00	-0.351074	0.080078	1.012207	-6.580000	4.410000	-1.540000	878.00	-0.29	-0.06	0.00	0.00	0.00	0.00	0.00	0.00	0.00	0.00	2.00	2.00	1.50	1.00	0.00	2.75	0.00	0.00	-0.735352	0.581055	4.302246	-33.389999	492.660004	-73.779999	115.00	0.28	0.08
2.80	21.00	17.25	10.25	10.25	1.00	5.25	0.25	2.25	0.00	0.75	0.75	0.50	0.00	0.75	0.00	0.00	-0.301270	0.082520	0.984375	-8.190000	2.450000	-2.310000	881.00	-0.30	-0.06	0.25	0.25	0.00	0.00	0.00	0.00	0.00	0.00	1.00	1.25	0.75	0.50	0.00	1.25	0.00	0.00	2.333496	0.457031	3.341797	-73.150002	353.010010	-51.799999	65.00	0.21	0.07
2.81	21.00	17.00	10.00	10.25	1.00	5.25	0.25	2.25	0.00	1.00	0.75	0.50	0.25	0.50	0.00	0.00	-0.267578	0.076660	0.977051	-7.840000	2.800000	-1.890000	878.00	-0.30	-0.06	0.00	0.00	0.00	0.00	0.00	0.00	0.00	0.00	0.50	1.00	0.50	0.25	0.00	1.00	0.25	0.00	0.285645	0.595703	4.496094	-161.419998	205.800003	10.360000	43.00	0.00	0.00
2.82	20.75	16.75	10.00	10.25	1.00	5.00	0.25	2.00	0.00	1.00	0.75	0.50	0.00	1.00	0.25	0.00	-0.276855	0.073730	0.968750	-7.700000	3.780000	-2.170000	870.00	-0.29	-0.06	0.25	0.25	0.00	0.00	0.00	0.00	0.00	0.00	0.25	0.75	0.50	0.00	0.00	1.00	0.00	0.00	2.555664	1.337402	4.646973	-139.509995	17.850000	73.010002	35.00	0.00	0.00
2.83	20.50	16.75	9.75	10.25	0.75	4.75	0.25	2.00	0.00	0.75	0.50	0.50	0.00	0.75	0.00	0.00	-0.293945	0.061035	0.971191	-7.000000	4.410000	-2.940000	846.00	-0.30	-0.06	0.00	0.00	0.00	0.00	0.00	0.00	0.00	0.00	0.50	0.75	0.50	0.25	0.00	0.50	0.00	0.00	1.841309	0.636719	2.815918	-119.910004	-120.540001	118.790001	32.00	0.00	0.00
2.84	20.25	16.25	9.75	9.75	1.00	4.25	0.25	1.75	0.00	0.75	0.75	0.50	0.00	0.50	0.00	0.00	-0.262207	0.053711	0.956543	-5.460000	5.110000	-3.010000	823.00	-0.30	-0.06	0.00	0.00	0.00	0.00	0.00	0.00	0.00	0.00	0.75	0.75	0.50	0.25	0.00	0.75	0.00	0.00	1.682129	0.313477	2.099121	-100.870003	-180.320007	135.169998	38.00	0.00	0.00
2.85	20.00	16.00	9.50	9.75	0.75	4.50	0.25	1.75	0.00	0.50	0.50	0.25	0.00	0.50	0.00	0.00	-0.254395	0.049316	0.931152	-2.520000	6.160000	-2.800000	805.00	-0.31	-0.06	0.00	0.00	0.00	0.00	0.00	0.00	0.00	0.00	0.00	0.50	0.00	0.00	0.00	0.25	0.00	0.00	1.650879	-0.029297	1.750000	-63.700001	-202.580002	127.889999	9.00	0.00	0.00
2.86	19.00	15.50	9.25	9.50	0.75	4.25	0.25	2.00	0.00	0.50	0.50	0.50	0.00	0.50	0.00	0.00	-0.237793	0.064453	0.928711	-1.050000	8.540000	-2.590000	784.00	-0.30	-0.06	0.00	0.00	0.00	0.00	0.00	0.00	0.00	0.00	0.25	0.50	0.25	0.00	0.00	0.50	0.00	0.00	1.485840	-0.279297	2.015625	-25.129999	-234.220001	100.800003	18.00	0.00	0.00
2.87	18.50	14.75	9.00	9.00	0.75	3.75	0.25	1.50	0.00	0.75	0.50	0.50	0.00	0.25	0.00	0.00	-0.226562	0.077148	0.914551	-1.680000	11.060000	-3.500000	745.00	-0.31	-0.06	0.00	0.00	0.00	0.00	0.00	0.00	0.00	0.00	0.50	0.25	0.25	0.00	0.00	0.50	0.00	0.00	1.356934	-0.526367	2.226074	3.780000	-286.089996	63.980000	19.00	0.00	0.00
2.88	17.50	14.50	8.75	9.00	0.50	3.25	0.00	1.50	0.00	0.75	0.50	0.25	0.00	0.50	0.00	0.00	-0.255859	0.075684	0.932129	-2.030000	11.550000	-4.410000	712.00	-0.31	-0.06	0.00	0.00	0.00	0.00	0.00	0.00	0.00	0.00	0.00	0.25	0.00	0.00	0.00	0.00	0.00	0.00	1.090332	-0.600586	2.194336	14.420000	-347.269989	25.410000	3.00	0.00	0.00
2.89	16.75	13.75	8.25	8.75	0.50	2.75	0.25	1.75	0.00	0.75	0.25	0.50	0.00	0.25	0.00	0.00	-0.271484	0.061035	0.919922	-3.430000	11.550000	-7.840000	684.00	-0.31	-0.06	0.00	0.00	0.00	0.00	0.00	0.00	0.00	0.00	0.25	0.25	0.00	0.25	0.00	0.00	0.00	0.00	0.732422	-0.583496	1.995117	9.100000	-400.890015	-9.170000	10.00	0.00	0.00
2.90	16.25	12.75	8.25	8.25	0.50	2.75	0.25	1.25	0.00	0.75	0.25	0.00	0.00	0.25	0.00	0.00	-0.242676	0.109863	0.920898	-5.460000	12.110000	-9.450000	645.00	-0.31	-0.05	0.00	0.25	0.00	0.00	0.00	0.00	0.00	0.00	0.00	0.25	0.25	0.00	0.00	0.00	0.00	0.00	0.418945	-0.521484	1.756836	-2.730000	-438.339996	-37.450001	9.00	0.00	0.00
2.91	15.75	11.75	8.00	8.00	0.50	2.25	0.25	1.50	0.00	0.75	0.50	0.25	0.00	0.50	0.00	0.00	-0.214844	0.142090	0.909668	-9.170000	12.880000	-10.150000	628.00	-0.30	-0.05	0.00	0.25	0.00	0.00	0.00	0.00	0.00	0.00	0.00	0.25	0.00	0.00	0.00	0.00	0.00	0.00	0.139648	-0.447754	1.565430	-13.580000	-460.250000	-60.760002	6.00	0.00	0.00
2.92	15.00	11.00	7.75	7.75	0.50	1.75	0.25	1.25	0.00	1.00	0.75	0.50	0.00	0.25	0.25	0.00	-0.232422	0.120117	0.925293	-13.580000	13.370000	-9.030000	603.00	-0.29	-0.05	0.00	0.00	0.00	0.00	0.00	0.00	0.00	0.00	0.00	0.25	0.00	0.00	0.00	0.25	0.00	0.00	-0.147461	-0.342773	1.441895	-17.990000	-470.260010	-80.430000	6.00	0.00	0.00
2.93	14.00	10.25	7.25	7.25	0.50	1.75	0.25	1.00	0.25	1.00	0.50	0.00	0.00	0.50	0.00	0.25	-0.250977	0.068848	0.938965	-17.010000	13.510000	-7.770000	560.00	-0.30	-0.04	0.00	0.00	0.00	0.00	0.00	0.00	0.00	0.00	0.00	0.00	0.00	0.00	0.00	0.00	0.00	0.00	-0.359863	-0.273438	1.358398	-12.740000	-471.730011	-96.040001	0.00	0.00	0.00
2.94	13.50	9.50	7.50	6.75	0.50	1.50	0.50	1.75	0.25	1.00	0.75	0.75	0.00	0.75	0.25	0.00	-0.264648	0.071289	0.919922	-17.430000	12.950000	-7.700000	574.00	-0.27	-0.05	0.00	0.00	0.00	0.00	0.00	0.00	0.00	0.00	0.00	0.25	0.00	0.00	0.00	0.00	0.00	0.00	-0.528809	-0.241211	1.271973	1.050000	-466.970001	-105.349998	3.00	0.00	0.00
2.95	12.75	8.75	7.25	6.50	0.50	1.00	0.50	1.25	0.50	1.25	1.00	0.50	0.00	0.50	0.50	0.00	-0.263184	0.070312	0.914551	-17.639999	12.880000	-7.840000	541.00	-0.26	-0.04	0.00	0.00	0.00	0.00	0.00	0.00	0.00	0.00	0.00	0.00	0.00	0.00	0.00	0.00	0.00	0.00	-0.699219	-0.224121	1.382324	23.660000	-438.410004	-107.940002	0.00	0.00	0.00
2.96	12.50	8.00	7.25	6.00	0.50	1.25	0.75	1.00	0.50	1.25	1.00	0.50	0.00	1.25	0.00	0.25	-0.256836	0.054688	0.910156	-16.660000	13.510000	-8.610000	530.00	-0.25	-0.02	0.00	0.00	0.00	0.00	0.00	0.00	0.00	0.00	0.00	0.25	0.00	0.00	0.00	0.00	0.00	0.00	-0.781250	-0.203613	1.539551	18.270000	-421.750000	-103.809998	3.00	0.00	0.00
2.97	12.00	7.75	7.50	5.75	0.75	2.00	0.75	1.75	1.00	1.50	1.00	0.75	0.00	1.00	0.25	0.50	-0.257812	0.052734	0.893555	-14.910000	15.050000	-9.940000	564.00	-0.23	-0.04	0.00	0.00	0.00	0.00	0.00	0.00	0.00	0.00	0.00	0.00	0.00	0.00	0.00	0.00	0.00	0.00	-0.829590	-0.120117	1.678223	8.120000	-408.450012	-98.279999	0.00	0.00	0.00
2.98	11.50	7.00	7.50	5.50	0.50	1.00	1.25	1.50	1.25	1.75	1.25	0.75	0.00	1.25	0.75	0.25	-0.270508	0.054199	0.926270	-12.810000	16.799999	-10.920000	551.00	-0.20	-0.02	0.75	0.00	0.00	0.00	0.00	0.00	0.00	0.00	0.00	0.00	0.00	0.00	0.00	0.00	0.00	0.00	-0.919922	-0.040039	1.803711	0.910000	-397.809998	-92.260002	9.00	0.00	0.00
2.99	10.75	6.75	7.25	5.25	1.00	1.25	1.50	2.00	1.75	2.00	1.25	1.00	0.75	1.50	0.75	0.25	-0.287598	0.039551	0.929688	-9.520000	16.799999	-10.780000	580.00	-0.17	-0.03	0.00	0.00	0.00	0.00	0.00	0.00	0.00	0.00	0.00	0.00	0.00	0.00	0.00	0.00	0.00	0.00	-1.000000	0.045898	1.912109	0.770000	-387.730011	-84.910004	0.00	0.00	0.00
3.00	10.50	6.00	7.00	5.00	0.75	0.75	2.00	2.25	2.25	2.25	1.50	1.25	0.50	2.00	1.50	0.25	-0.418945	-0.210938	0.956543	-5.670000	15.260000	-9.590000	595.00	-0.14	-0.01	0.00	0.00	0.00	0.00	0.00	0.00	0.00	0.00	0.00	0.25	0.00	0.00	0.00	0.00	0.00	0.00	-1.063477	0.141113	1.989746	5.670000	-376.459991	-76.160004	3.00	0.00	0.00
3.01	10.00	5.75	7.25	5.25	0.75	2.00	2.50	2.25	2.75	2.50	2.00	1.50	0.75	2.25	1.75	1.00	-0.309082	-0.037109	0.944336	-1.120000	13.440001	-6.650000	652.00	-0.11	-0.02	0.00	0.00	0.00	0.00	0.00	0.00	0.00	0.00	0.00	0.00	0.00	0.00	0.00	0.00	0.00	0.00	-1.114746	0.208496	1.996582	7.700000	-363.089996	-66.919998	0.00	0.00	0.00
3.02	9.25	5.25	7.00	5.00	1.00	2.00	3.00	3.00	3.50	3.00	2.25	1.50	1.50	2.75	1.75	1.25	-0.280273	0.053711	0.909668	3.150000	12.810000	-5.180000	692.00	-0.08	-0.02	0.00	0.00	0.00	0.00	0.00	0.00	0.00	0.00	0.00	0.00	0.00	0.00	0.00	0.00	0.00	0.00	-1.258301	0.355469	2.218262	21.070000	-345.100006	-54.810001	0.00	0.00	0.00
3.03	8.50	4.75	6.75	4.00	1.25	1.50	3.50	3.25	4.50	3.50	2.75	2.25	1.75	3.50	2.25	1.25	-0.304199	0.063965	0.951172	7.210000	14.910000	-3.850000	725.00	-0.04	-0.01	0.00	0.00	0.00	0.00	0.00	0.00	0.00	0.00	0.00	0.00	0.00	0.00	0.00	0.00	0.00	0.00	-1.362305	0.444336	2.338379	33.950001	-325.149994	-41.230000	0.00	0.00	0.00
3.04	7.50	3.75	6.25	3.75	1.25	1.75	3.75	3.50	5.50	4.25	3.25	2.75	2.50	4.00	3.25	1.50	-0.323730	0.070801	0.950195	8.960000	16.870001	-4.130000	768.00	0.00	-0.02	0.00	0.00	0.00	0.00	0.00	0.00	0.00	0.00	0.00	0.00	0.00	0.00	0.00	0.00	0.00	0.00	-1.521484	0.564453	2.559082	40.950001	-308.769989	-23.100000	0.00	0.00	0.00
3.05	6.50	2.50	5.75	3.00	1.25	2.00	4.25	3.75	6.50	5.00	5.00	3.25	3.25	4.50	3.50	1.75	-0.333008	0.065918	0.943359	11.060000	18.200001	-4.690000	813.00	0.04	-0.02	0.00	0.00	0.00	0.00	0.00	0.00	0.00	0.00	0.00	0.00	0.00	0.00	0.00	0.00	0.00	0.00	-1.682129	0.766602	2.679688	47.599998	-298.549988	3.220000	0.00	0.00	0.00
3.06	5.50	2.25	5.50	3.00	1.25	1.75	4.50	4.75	7.25	5.75	5.25	3.75	4.75	5.25	4.75	2.25	-0.314941	0.056152	0.950195	12.810000	19.600000	-4.900000	886.00	0.07	-0.03	0.00	0.00	0.00	0.00	0.00	0.00	0.00	0.00	0.00	0.00	0.00	0.00	0.00	0.00	0.00	0.00	-1.926270	0.952148	2.758301	63.910000	-295.260010	39.480000	0.00	0.00	0.00
3.07	4.25	1.75	4.50	2.25	1.00	2.25	4.75	5.00	8.00	7.00	6.00	4.25	5.25	5.50	5.25	2.50	-0.318359	0.074707	0.932617	13.160000	22.820000	-5.110000	913.00	0.10	-0.03	0.00	0.00	0.00	0.00	0.00	0.00	0.00	0.00	0.00	0.00	0.00	0.00	0.00	0.00	0.00	0.00	-2.415039	1.004395	2.786621	85.470001	-298.760010	84.279999	0.00	0.00	0.00
3.08	3.00	1.25	3.75	1.25	0.75	1.50	5.00	5.25	8.50	7.50	6.75	5.25	5.75	6.75	5.50	2.75	-0.321777	0.095215	0.954590	12.250000	29.960001	-6.720000	923.00	0.14	-0.03	0.00	0.00	0.00	0.00	0.00	0.00	0.00	0.00	0.00	0.00	0.00	0.00	0.00	0.00	0.00	0.00	-2.330566	0.798828	2.604492	106.190002	-313.459991	134.750000	0.00	0.00	0.00
3.09	2.25	0.75	3.00	1.25	0.50	1.25	5.00	5.25	9.25	7.75	7.25	6.00	6.50	7.75	6.00	3.50	-0.311523	0.086914	0.957520	13.090000	39.689999	-10.010000	951.00	0.16	-0.04	0.00	0.00	0.00	0.00	0.00	0.00	0.00	0.00	0.00	0.00	0.00	0.00	0.00	0.00	0.00	0.00	-3.452148	0.134766	2.535645	150.639999	-340.899994	197.050003	0.00	0.00	0.00
3.10	1.50	0.50	1.50	1.00	0.50	1.75	5.25	5.50	10.00	8.25	8.00	7.00	7.00	8.75	6.50	4.50	-0.371582	0.117188	0.934082	13.860000	51.450001	-10.850000	999.00	0.18	-0.04	0.00	0.00	0.00	0.00	0.00	0.00	0.00	0.00	0.00	0.00	0.00	0.00	0.00	0.00	0.00	0.00	-4.198242	-0.532227	2.014160	85.330002	-388.570007	251.720001	0.00	0.00	0.00
3.11	0.75	0.00	1.25	0.75	0.25	1.00	5.25	5.25	10.75	8.75	8.25	7.50	7.50	9.50	7.25	5.00	-0.301270	0.114258	1.003906	21.700001	67.059998	-10.780000	1013.00	0.20	-0.04	0.00	0.00	0.00	0.00	0.00	0.00	0.00	0.00	0.00	0.00	0.00	0.00	0.00	0.00	0.00	0.00	-6.129395	-0.936035	0.884277	72.660004	-405.649994	208.880005	0.00	0.00	0.00
3.12	0.75	0.00	1.25	0.50	0.00	0.50	5.25	5.00	11.50	9.25	8.75	8.00	7.75	10.25	7.50	5.25	-0.353027	0.060059	1.014160	28.559999	86.940002	-8.330000	1041.00	0.21	-0.03	0.00	0.00	0.00	0.00	0.00	0.00	0.00	0.00	0.00	0.00	0.00	0.00	0.00	0.00	0.00	0.00	-7.485840	-0.983887	-0.949219	141.470001	-400.540009	96.180000	0.00	0.00	0.00
3.13	1.00	0.00	0.75	0.25	0.00	0.00	5.25	5.00	12.00	9.50	9.00	8.25	8.25	10.75	8.00	5.75	-0.404297	0.051758	1.011230	32.970001	112.070000	-5.040000	1064.00	0.22	-0.03	0.00	0.00	0.00	0.00	0.00	0.00	0.00	0.00	0.50	0.00	0.00	0.00	0.00	0.00	0.00	0.00	-7.125488	-0.941406	-2.566406	233.589996	-317.450012	-36.610001	8.00	0.00	0.00
3.14	0.25	0.25	0.50	0.00	0.00	0.00	5.25	4.00	12.50	9.75	9.25	8.50	8.50	11.25	8.25	6.25	-0.403809	0.054199	1.048828	36.540001	143.009995	-1.190000	1064.00	0.23	-0.03	0.00	0.00	0.00	0.00	0.00	0.00	0.00	0.00	0.00	0.00	0.00	0.25	0.00	0.00	0.00	0.00	-5.915039	-1.095215	-3.052734	262.570007	-157.710007	-133.559998	3.00	0.00	0.00
3.15	0.25	0.00	0.00	0.00	0.00	0.00	5.25	3.00	12.75	10.00	9.50	8.75	8.25	11.75	8.25	6.50	-0.428223	0.047363	1.076172	36.259998	185.500000	2.450000	1054.00	0.24	-0.02	0.00	0.00	0.25	0.00	0.00	0.00	0.00	0.00	0.00	0.00	0.00	0.00	0.00	0.00	0.00	0.00	-4.446289	-0.886719	-2.293457	169.050003	19.670000	-179.199997	3.00	0.00	0.00
3.16	0.00	0.00	0.00	0.00	0.00	0.00	5.25	2.25	12.75	10.00	9.75	8.75	8.25	12.00	8.25	6.75	-0.452148	0.140625	1.129883	27.790001	236.880005	2.660000	1044.00	0.25	-0.02	0.00	0.00	0.00	0.00	0.00	0.00	0.00	0.00	0.00	0.00	0.00	0.00	0.00	0.00	0.00	0.00	-3.752930	-0.166016	-0.443359	24.080000	152.600006	-179.059998	0.00	0.00	0.00
3.17	0.00	0.00	0.00	0.00	0.00	0.00	5.00	1.50	12.50	10.00	10.00	8.75	8.00	12.25	8.25	7.25	-0.541016	0.148926	1.202148	22.750000	284.690002	-1.960000	1029.00	0.25	-0.01	0.00	0.00	0.25	0.00	0.00	0.00	0.00	0.00	0.00	0.00	0.00	0.00	0.00	0.00	0.00	0.00	-3.236328	0.750000	1.262695	-71.680000	215.250000	-138.880005	3.00	0.00	0.00
3.18	0.00	0.00	0.00	0.00	0.00	0.00	4.75	0.50	12.25	10.00	9.75	8.75	7.75	12.50	8.25	7.50	-0.671875	0.218750	1.283691	18.480000	366.100006	-18.059999	1001.00	0.26	-0.01	1.25	0.50	0.75	0.00	0.00	0.00	0.00	0.00	0.00	0.00	0.00	0.00	0.00	0.00	0.00	0.00	-1.736328	1.751465	5.940430	-220.919998	320.320007	-39.480000	31.00	0.00	0.00
3.19	0.00	0.00	0.00	0.00	0.00	0.00	4.00	0.75	11.50	9.75	9.50	8.50	7.50	12.50	8.00	7.75	-0.812012	0.256348	1.484863	21.700001	403.549988	-25.480000	967.00	0.26	-0.01	5.50	2.50	1.50	0.25	0.00	0.00	0.00	0.00	0.00	0.00	0.00	0.00	0.00	0.00	0.00	0.00	1.074707	1.921387	1.252441	-251.720001	224.979996	28.910000	119.00	-0.38	0.03
3.20	0.00	0.00	0.00	0.00	0.00	0.00	3.50	0.00	10.50	9.00	9.25	8.00	7.00	12.50	7.75	7.75	-1.049316	0.327148	1.781738	33.880001	435.540009	-28.630001	901.00	0.27	-0.01	9.75	6.50	2.25	1.25	0.00	0.00	0.00	0.00	0.00	0.00	0.00	0.00	0.00	0.00	0.00	0.00	0.318359	0.627441	0.820801	-116.129997	154.139999	121.099998	239.00	-0.38	0.00
3.21	0.00	0.00	0.00	0.00	0.00	0.00	2.75	0.00	9.00	8.00	8.50	7.50	6.50	12.75	7.50	8.00	-1.474609	0.381348	2.248047	54.389999	462.630005	-24.430000	832.00	0.28	-0.02	13.00	10.00	3.00	2.00	0.00	0.00	0.00	0.00	0.00	0.00	0.00	0.00	0.00	0.00	0.00	0.00	-0.914062	-2.522949	1.359375	-16.030001	234.710007	193.690002	338.00	-0.38	-0.01
3.22	0.00	0.00	0.00	0.00	0.00	0.00	2.00	0.00	7.75	6.50	7.25	5.75	5.75	12.50	6.75	7.75	-2.020996	0.469238	3.068848	68.250000	481.529999	-14.000000	721.00	0.28	-0.02	15.75	13.00	5.00	3.00	0.00	0.00	0.00	0.00	0.00	0.00	0.00	0.00	0.00	0.00	0.00	0.00	-0.914062	-2.522949	1.359375	36.400002	349.510010	181.020004	445.00	-0.38	-0.01
3.23	0.00	0.00	0.00	0.00	0.00	0.00	1.50	0.00	6.25	5.00	5.25	4.50	5.25	11.75	6.00	7.25	-2.170410	0.357422	3.590332	89.879997	491.190002	3.290000	604.00	0.29	-0.02	19.25	15.25	5.50	4.75	0.00	0.00	0.00	0.00	0.00	0.00	0.00	0.00	0.00	0.50	0.00	0.00	-1.597656	-2.887207	3.407227	52.009998	361.970001	84.629997	548.00	-0.37	-0.02
3.24	0.00	0.00	0.00	0.00	0.00	0.00	0.75	0.00	5.00	3.25	3.75	3.25	4.00	10.25	5.00	5.75	-1.743164	0.029785	3.323730	101.849998	507.779999	12.180000	465.00	0.30	-0.02	20.75	17.25	7.75	6.00	0.00	0.00	0.00	0.00	0.00	0.00	0.00	0.00	0.00	0.25	0.00	0.00	-0.733398	1.260742	1.993164	29.330000	258.510010	-100.239998	632.00	-0.37	-0.02
3.25	0.00	0.00	0.00	0.00	0.00	0.00	0.50	0.00	3.75	3.25	2.75	2.00	2.75	9.00	4.00	5.00	-1.743652	-0.414551	3.226074	98.980003	540.679993	12.390000	369.00	0.31	-0.00	21.50	17.75	8.50	7.25	0.25	0.00	0.00	0.00	0.00	0.00	0.00	0.25	0.00	0.25	0.00	0.00	-0.709473	2.079590	1.920898	33.740002	255.430008	-43.820000	680.00	-0.36	-0.02
3.26	0.00	0.00	0.00	0.00	0.00	0.00	0.25	0.00	2.75	2.75	2.25	1.25	1.50	7.50	2.50	3.50	-1.760742	-0.035156	4.556152	80.010002	581.909973	26.180000	271.00	0.31	0.01	21.00	17.50	9.00	8.00	0.75	0.00	0.00	0.00	0.00	0.00	0.50	0.50	0.00	0.25	0.00	0.00	-0.626953	0.513184	1.804199	23.240000	245.210007	31.990000	703.00	-0.35	-0.03
3.27	0.00	0.00	0.00	0.00	0.00	0.00	0.00	0.00	1.75	2.25	2.00	1.25	0.25	5.00	1.50	1.25	-1.204590	-0.221191	5.020508	79.730003	593.250000	45.290001	176.00	0.31	0.03	21.00	18.00	9.25	8.75	1.00	0.75	0.00	0.25	0.00	0.00	0.25	0.00	0.00	0.25	0.00	0.00	-0.782227	-0.817871	3.217285	-27.020000	216.089996	24.850000	730.00	-0.35	-0.03
3.28	0.00	0.00	0.00	0.00	0.00	0.00	0.00	0.00	0.75	2.00	1.25	0.75	0.25	2.00	0.50	0.50	0.972656	-0.845215	5.026367	69.860001	571.830017	52.849998	94.00	0.29	0.01	20.75	18.00	9.50	9.00	1.50	0.75	0.00	0.00	0.00	0.25	0.50	0.25	0.00	0.25	0.00	0.00	-0.589844	0.111816	1.706055	-30.940001	140.699997	-2.380000	745.00	-0.34	-0.03
3.29	0.25	0.00	0.25	0.00	0.00	0.00	0.00	0.00	0.00	1.25	1.00	0.25	0.00	1.00	0.75	0.00	2.548828	-1.052246	2.634277	36.119999	431.130005	55.790001	57.00	0.23	0.00	20.50	17.50	9.75	9.25	1.50	1.25	0.00	0.50	0.00	0.00	0.50	0.50	0.00	1.00	0.00	0.00	-0.377930	0.290527	1.013184	-32.549999	112.070000	-1.610000	766.00	-0.33	-0.04
3.30	0.25	0.00	0.00	0.00	0.00	0.00	0.00	0.25	0.50	1.25	0.50	0.25	0.00	0.75	0.25	0.50	0.801270	-0.934570	3.321289	-104.090004	309.119995	50.259998	54.00	0.22	0.00	21.00	17.25	10.25	9.50	2.00	1.25	0.00	0.25	0.00	0.50	0.50	0.50	0.00	1.00	0.00	0.00	-0.339844	-0.032715	1.342285	-37.170002	99.540001	3.500000	788.00	-0.32	-0.03
3.31	0.00	0.00	0.00	0.00	0.00	0.00	0.00	0.00	0.25	1.25	0.50	0.00	0.00	0.50	0.50	0.00	1.750977	-0.460449	6.309082	-166.809998	52.080002	51.799999	37.00	0.00	0.00	20.75	17.25	10.25	9.50	2.00	1.25	0.25	0.25	0.00	0.50	0.50	0.50	0.00	0.75	0.00	0.00	-0.390625	-0.014648	1.390625	-17.010000	53.130001	1.890000	787.00	-0.32	-0.03
3.32	0.25	0.00	0.00	0.00	0.00	0.00	0.00	0.50	0.25	1.00	0.50	0.00	0.00	0.25	0.00	0.00	1.030273	-0.661621	2.383301	-218.259995	-212.240005	12.390000	37.00	0.00	0.00	20.00	17.00	10.25	9.50	2.00	1.25	0.25	0.25	0.00	0.25	0.75	0.25	0.00	1.00	0.00	0.00	-0.336914	0.081055	0.985352	-9.590000	13.160000	0.560000	774.00	-0.32	-0.03
3.33	0.00	0.00	0.00	0.00	0.00	0.00	0.00	0.25	0.00	1.25	0.25	0.00	0.00	0.50	0.25	0.00	1.030273	-0.661621	2.383301	-218.259995	-212.240005	12.390000	31.00	0.00	0.00	20.00	16.75	10.00	9.25	2.25	1.50	0.25	0.25	0.00	0.25	0.50	0.50	0.00	0.75	0.00	0.00	-0.254883	0.082520	0.985352	-8.190000	4.200000	3.780000	769.00	-0.32	-0.03
3.34	0.00	0.00	0.00	0.00	0.00	0.00	0.00	0.00	0.00	1.00	0.25	0.00	0.00	0.25	0.00	0.00	1.154297	-0.748535	2.055176	-143.710007	-214.199997	-77.980003	18.00	0.00	0.00	19.50	16.00	9.50	9.00	1.75	1.50	0.25	0.25	0.00	0.00	0.50	0.50	0.00	0.75	0.00	0.00	-0.279297	0.058594	0.990234	-6.510000	0.700000	4.760000	735.00	-0.32	-0.03
3.35	0.00	0.00	0.00	0.00	0.00	0.00	0.00	0.00	0.00	1.00	0.25	0.00	0.00	0.00	0.00	0.00	0.937500	-0.807129	2.453125	-116.410004	-251.509995	-131.320007	16.00	0.00	0.00	18.50	15.50	9.00	8.75	1.50	1.25	0.00	0.25	0.00	0.00	0.50	0.50	0.00	0.75	0.00	0.00	-0.282715	0.094727	0.960938	-4.550000	-1.960000	6.440000	696.00	-0.33	-0.04
3.36	0.00	0.00	0.00	0.00	0.00	0.00	0.00	0.00	0.00	1.00	0.25	0.00	0.00	0.25	0.25	0.00	0.632324	-0.826660	2.510254	-111.790001	-308.630005	-184.309998	21.00	0.00	0.00	17.25	15.00	9.00	8.50	1.25	1.25	0.00	0.25	0.50	0.00	0.25	0.25	0.00	0.00	0.00	0.00	-0.254395	0.094727	0.940918	-2.100000	-3.220000	9.240000	662.00	-0.33	-0.03
3.37	0.00	0.00	0.00	0.00	0.00	0.00	0.00	0.25	0.00	1.00	0.25	0.00	0.00	0.00	0.25	0.00	0.255859	-0.682617	2.323242	-124.250000	-364.420013	-232.259995	23.00	0.00	0.00	16.25	13.50	8.25	8.00	1.00	1.00	0.00	0.25	0.00	0.00	0.25	0.50	0.00	0.50	0.00	0.00	-0.199707	0.057129	1.004883	4.480000	-5.390000	10.850000	611.00	-0.33	-0.04
3.38	0.00	0.00	0.00	0.00	0.00	0.00	0.00	0.00	0.00	0.75	0.25	0.00	0.00	0.50	0.00	0.00	-0.111816	-0.442871	2.065918	-137.759995	-406.769989	-271.529999	18.00	0.00	0.00	14.50	12.25	8.00	7.50	0.75	0.75	0.00	0.25	0.00	0.00	0.50	0.50	0.00	0.50	0.00	0.00	-0.194824	0.118652	0.844238	11.690000	-7.280000	9.170000	562.00	-0.33	-0.04
3.39	0.00	0.00	0.00	0.00	0.00	0.00	0.00	0.25	0.00	0.75	0.00	0.00	0.00	0.00	0.00	0.00	-0.387695	-0.179688	1.853027	-139.720001	-432.390015	-301.559998	14.00	0.00	0.00	13.00	11.00	7.50	7.00	0.75	0.75	0.00	0.25	0.00	0.00	0.50	0.25	0.00	0.50	0.00	0.00	-0.179199	0.110840	0.865723	8.330000	-0.280000	8.190000	513.00	-0.33	-0.04
3.40	0.00	0.00	0.00	0.00	0.00	0.00	0.00	0.00	0.00	1.00	0.00	0.00	0.00	0.00	0.00	0.00	-0.581055	0.050293	1.643066	-126.699997	-445.339996	-320.950012	12.00	0.00	0.00	11.50	9.50	7.00	6.25	0.50	0.75	0.00	0.25	0.00	0.00	0.25	0.50	0.00	0.25	0.00	0.00	-0.179688	0.095215	0.863770	4.270000	5.390000	6.160000	456.00	-0.33	-0.04
3.41	0.00	0.00	0.00	0.00	0.00	0.00	0.00	0.00	0.00	0.75	0.00	0.00	0.00	0.00	0.00	0.00	-0.747559	0.256348	1.481445	-101.430000	-447.860016	-328.299988	9.00	0.00	0.00	10.00	8.25	6.25	6.00	0.50	0.75	0.00	0.00	0.00	0.00	0.25	0.50	0.00	0.25	0.00	0.00	-0.176758	0.113770	0.828125	0.280000	11.760000	4.130000	405.00	-0.33	-0.04
3.42	0.00	0.00	0.00	0.00	0.00	0.00	0.00	0.00	0.00	0.50	0.00	0.00	0.00	0.00	0.00	0.00	-0.854004	0.407715	1.364258	-71.400002	-441.140015	-323.679993	6.00	0.00	0.00	9.00	7.00	5.75	5.50	0.50	0.25	0.00	0.00	0.00	0.00	0.50	0.25	0.00	0.25	0.00	0.00	-0.171875	0.123535	0.810547	-5.040000	22.260000	2.870000	359.00	-0.32	-0.03
3.43	0.00	0.00	0.00	0.00	0.00	0.00	0.00	0.25	0.00	0.50	0.00	0.00	0.00	0.00	0.00	0.00	-0.906250	0.508789	1.217773	-42.910000	-432.110016	-308.420013	11.00	0.00	0.00	8.25	6.00	5.25	5.00	0.50	0.50	0.00	0.25	0.25	0.00	0.25	0.50	0.00	0.25	0.00	0.00	-0.261719	0.070312	1.079590	-4.410000	28.910000	4.270000	338.00	-0.31	-0.04
3.44	0.00	0.00	0.00	0.00	0.00	0.00	0.00	0.00	0.00	0.75	0.00	0.00	0.00	0.00	0.00	0.00	-0.979492	0.667969	1.153320	-15.540000	-419.160004	-283.709991	9.00	0.00	0.00	7.25	5.25	5.00	4.50	0.25	0.75	0.00	0.25	0.00	0.25	0.75	0.50	0.00	0.25	0.00	0.00	-0.243652	0.093750	0.899902	2.730000	20.440001	4.060000	312.00	-0.29	-0.04
3.45	0.00	0.00	0.00	0.00	0.00	0.00	0.00	0.00	0.00	0.50	0.00	0.00	0.00	0.25	0.00	0.00	-1.020020	0.782227	1.200195	8.820000	-401.100006	-249.199997	9.00	0.00	0.00	6.50	5.25	5.00	4.50	0.50	0.00	0.00	0.50	0.00	0.25	0.75	0.50	0.25	0.75	0.00	0.00	-0.240234	0.116211	0.942871	7.000000	15.540000	3.920000	309.00	-0.27	-0.05
3.46	0.00	0.00	0.00	0.00	0.00	0.00	0.00	0.25	0.00	0.50	0.00	0.00	0.00	0.00	0.00	0.00	-0.958008	0.863281	1.335938	28.700001	-383.459991	-207.899994	11.00	0.00	0.00	6.25	4.25	4.50	4.00	0.50	0.75	0.00	0.50	0.00	0.50	1.25	1.25	0.50	0.50	0.25	0.00	-0.247559	0.104004	0.921387	9.800000	8.540000	2.870000	313.00	-0.23	-0.06
3.47	0.00	0.00	0.00	0.00	0.00	0.00	0.00	0.00	0.00	0.50	0.00	0.00	0.00	0.00	0.00	0.00	-0.966797	0.943359	1.546875	43.119999	-370.019989	-161.070007	6.00	0.00	0.00	6.00	3.25	4.50	3.75	0.50	1.00	0.25	0.50	0.75	0.75	1.50	1.50	0.50	1.00	0.00	0.00	-0.245605	0.119141	0.897949	7.910000	6.230000	0.140000	327.00	-0.18	-0.04
3.48	0.00	0.00	0.00	0.00	0.00	0.00	0.00	0.00	0.00	0.25	0.00	0.00	0.00	0.00	0.00	0.00	-0.979492	0.979980	1.714355	52.849998	-360.010010	-109.830002	3.00	0.00	0.00	5.50	3.00	4.25	3.25	0.75	0.75	0.50	0.75	1.00	1.00	1.25	1.75	1.00	1.25	0.25	0.00	-0.263672	0.108398	0.873047	5.250000	8.610000	-2.310000	335.00	-0.14	-0.04
3.49	0.00	0.00	0.00	0.00	0.00	0.00	0.00	0.00	0.00	0.25	0.00	0.00	0.00	0.00	0.00	0.00	-1.073730	0.890137	2.063477	75.250000	-343.209991	-8.050000	3.00	0.00	0.00	5.75	2.50	4.50	2.75	0.75	0.75	0.75	1.00	2.00	1.25	1.75	1.50	1.25	1.50	0.75	0.50	-0.231934	0.115234	0.863281	3.710000	14.140000	-4.690000	375.00	-0.09	-0.02
3.50	0.00	0.00	0.00	0.00	0.00	0.00	0.00	0.00	0.00	0.25	0.00	0.00	0.00	0.00	0.00	0.00	-1.149902	0.742676	2.275391	90.230003	-334.320007	34.369999	3.00	0.00	0.00	5.50	2.25	4.25	2.75	1.00	1.25	1.00	1.00	2.50	2.00	2.00	2.25	1.75	2.25	0.75	0.50	-0.235352	0.095703	0.900391	2.310000	19.950001	-6.930000	422.00	-0.05	-0.03
3.51	0.00	0.00	0.00	0.00	0.00	0.00	0.00	0.00	0.00	0.25	0.00	0.00	0.00	0.00	0.00	0.00	-1.301758	0.519531	2.535645	104.720001	-326.760010	70.070000	3.00	0.00	0.00	5.25	2.00	4.75	2.50	1.25	1.00	1.25	1.25	4.00	2.50	3.00	2.75	2.50	3.00	1.25	1.00	-0.299316	0.114258	0.938477	0.700000	20.650000	-8.330000	502.00	0.00	-0.02
3.52	0.25	0.00	0.00	0.00	0.00	0.00	0.00	0.00	0.00	0.50	0.00	0.00	0.00	0.00	0.00	0.00	-1.469238	0.334961	2.809082	112.489998	-325.850006	100.590004	9.00	0.00	0.00	5.00	1.75	4.00	2.00	1.00	1.00	1.50	1.50	5.25	3.25	3.75	3.25	3.00	3.75	1.25	1.00	-0.321289	0.076660	0.936523	2.940000	15.190001	-5.390000	543.00	0.04	-0.01
3.53	0.00	0.00	0.00	0.00	0.00	0.00	0.00	0.00	0.00	0.50	0.00	0.00	0.00	0.00	0.00	0.00	-1.656738	0.211426	3.026367	113.959999	-332.149994	128.169998	6.00	0.00	0.00	4.25	1.50	4.00	1.75	1.50	1.25	2.50	2.00	6.00	4.50	5.75	3.75	3.75	4.75	2.25	1.25	-0.296875	0.076660	0.951172	2.940000	15.190001	-5.390000	655.00	0.08	-0.02
3.54	0.00	0.00	0.00	0.00	0.00	0.00	0.00	0.00	0.00	0.25	0.00	0.00	0.00	0.00	0.00	0.00	-1.933105	0.052734	3.240723	111.790001	-347.829987	153.720001	3.00	0.00	0.00	3.25	1.25	3.25	1.25	1.00	1.00	3.25	2.00	7.50	5.75	6.00	5.00	4.50	5.25	2.50	1.25	-0.314941	0.125977	0.924316	3.500000	20.299999	-4.410000	700.00	0.12	-0.01
3.55	0.00	0.00	0.00	0.00	0.00	0.00	0.00	0.25	0.00	0.25	0.00	0.00	0.00	0.00	0.00	0.00	-2.274414	-0.056641	3.334961	104.300003	-373.170013	176.330002	8.00	0.00	0.00	2.75	0.75	2.25	0.75	1.00	0.75	4.00	2.25	8.50	6.50	7.00	6.00	5.00	5.50	2.75	1.50	-0.310547	0.088379	0.930664	1.750000	26.740000	-5.810000	746.00	0.15	-0.01
3.56	0.00	0.00	0.00	0.00	0.00	0.00	0.00	0.00	0.00	0.00	0.00	0.00	0.00	0.00	0.00	0.00	-2.681641	-0.123535	3.311035	88.480003	-401.869995	193.970001	0.00	0.00	0.00	2.00	0.75	1.50	0.75	0.75	0.75	4.75	2.50	9.00	7.25	7.50	6.50	5.50	6.75	3.25	1.75	-0.327148	0.091309	0.936035	-1.120000	33.180000	-5.250000	797.00	0.17	-0.01
3.57	0.00	0.00	0.00	0.00	0.00	0.00	0.00	0.00	0.00	0.00	0.00	0.00	0.00	0.00	0.00	0.00	-3.169922	-0.109863	3.038574	57.540001	-425.670013	203.559998	0.00	0.00	0.00	1.25	0.50	0.75	0.25	0.25	0.00	5.00	2.50	9.50	7.75	8.25	7.00	5.75	7.75	4.00	2.00	-0.266602	0.104492	0.971191	-1.400000	42.349998	-5.880000	810.00	0.20	-0.01
3.58	0.00	0.00	0.00	0.00	0.00	0.00	0.00	0.00	0.00	0.00	0.00	0.00	0.00	0.00	0.00	0.00	-3.878418	-0.010254	2.380859	28.770000	-437.920013	205.240005	0.00	0.00	0.00	0.75	0.50	0.75	0.25	0.25	0.00	5.25	2.25	10.25	8.25	8.75	7.25	5.75	8.25	4.50	2.50	-0.302246	0.164062	1.021973	2.800000	56.980000	-8.050000	845.00	0.21	-0.00
3.59	0.00	0.00	0.00	0.00	0.00	0.00	0.00	0.25	0.00	0.00	0.00	0.00	0.00	0.00	0.00	0.00	-5.593262	0.257324	1.655762	7.280000	-435.679993	188.300003	5.00	0.00	0.00	0.50	0.50	0.00	0.00	0.00	0.00	5.25	2.00	11.00	8.75	9.25	7.75	6.25	8.75	5.00	2.75	-0.331543	0.119141	0.989746	5.810000	81.970001	-11.480000	870.00	0.23	-0.00
3.60	0.00	0.00	0.00	0.00	0.00	0.00	0.00	0.00	0.00	0.25	0.00	0.00	0.00	0.00	0.00	0.00	-8.203125	0.585938	-0.068848	-7.420000	-419.929993	118.020004	3.00	0.00	0.00	0.25	0.25	0.25	0.00	0.00	0.00	5.50	2.00	12.00	9.00	9.75	8.00	6.25	9.25	5.00	3.25	-0.327637	0.126465	1.045410	11.760000	113.750000	-15.540000	908.00	0.23	-0.00
3.61	0.00	0.00	0.25	0.00	0.00	0.00	0.00	0.00	0.00	0.25	0.00	0.00	0.00	0.00	0.00	0.00	-9.450195	0.868164	-2.443848	106.540001	-360.640015	26.530001	6.00	0.00	0.00	1.00	0.25	0.00	0.00	0.00	0.00	5.50	1.75	12.50	9.50	10.00	8.25	6.50	9.75	5.25	4.50	-0.349121	0.152344	1.035645	14.770000	149.380005	-19.950001	949.00	0.23	0.00
3.62	0.00	0.00	0.00	0.00	0.00	0.00	0.00	0.00	0.00	0.00	0.00	0.00	0.00	0.00	0.00	0.00	-7.997559	0.541016	-3.944824	275.100006	-198.520004	-16.799999	0.00	0.00	0.00	0.00	0.25	0.00	0.00	0.00	0.00	5.25	1.50	13.00	10.00	10.75	8.50	6.25	10.25	5.75	5.00	-0.421875	0.138184	1.072266	14.350000	186.619995	-23.240000	966.00	0.24	0.00
3.63	0.00	0.00	0.00	0.00	0.00	0.00	0.00	0.00	0.00	0.50	0.00	0.00	0.00	0.00	0.00	0.00	-4.082031	-0.248047	-0.531250	130.199997	178.360001	-59.220001	6.00	0.00	0.00	0.25	0.00	0.00	0.00	0.00	0.00	5.25	1.50	13.50	10.50	10.75	8.75	6.25	11.00	6.00	5.75	-0.463867	0.078613	1.080566	13.930000	221.830002	-22.680000	999.00	0.25	0.00
3.64	0.25	0.00	0.50	0.00	0.00	0.00	0.00	0.00	0.00	0.00	0.00	0.00	0.00	0.00	0.00	0.00	-7.244141	-1.591797	2.734375	-12.390000	222.880005	37.520000	10.00	0.00	0.00	0.00	0.00	0.00	0.00	0.00	0.00	5.25	1.25	13.25	10.50	11.00	8.75	6.00	11.25	6.50	6.25	-0.495605	0.058594	1.166992	12.250000	257.459991	-17.850000	1000.00	0.25	0.00
3.65	3.50	2.75	0.75	0.50	0.00	0.00	0.00	0.00	0.00	0.00	0.00	0.00	0.00	0.00	0.00	0.00	0.880371	1.200684	-2.431641	6.090000	246.119995	101.220001	90.00	-0.38	-0.01	0.00	0.00	0.00	0.00	0.00	0.00	5.00	1.00	13.25	10.50	11.50	8.75	6.00	11.50	6.25	6.50	-0.550781	0.118652	1.226562	10.920000	299.950012	-14.000000	998.00	0.25	0.00
3.66	11.00	8.25	1.75	2.00	0.00	0.00	0.00	0.00	0.00	0.00	0.00	0.00	0.00	0.00	0.00	0.00	-0.178711	0.192871	2.619629	13.300000	299.320007	133.350006	277.00	-0.39	-0.01	0.00	0.00	0.00	0.00	0.00	0.00	4.75	0.75	12.50	10.50	11.25	8.50	5.75	11.75	6.25	7.00	-0.623047	0.200195	1.294434	14.700000	344.119995	-15.120000	975.00	0.26	0.00
3.67	18.00	13.00	3.75	3.75	0.00	0.00	0.00	0.00	0.00	0.00	0.00	0.00	0.00	0.00	0.00	0.00	-0.519043	-1.647461	1.473145	2.870000	329.070007	128.729996	466.00	-0.38	-0.01	0.00	0.00	0.00	0.00	0.00	0.00	4.25	0.50	11.75	10.00	11.00	8.25	5.25	11.75	5.75	7.25	-0.680664	0.211426	1.374023	18.549999	389.549988	-19.950001	927.00	0.26	0.00
3.68	22.00	15.50	5.25	4.50	0.00	0.00	0.00	0.00	0.00	0.00	0.00	0.00	0.00	0.00	0.00	0.00	-1.292969	-1.839844	1.924316	0.210000	396.059998	72.239998	573.00	-0.38	-0.01	0.00	0.00	0.00	0.00	0.00	0.00	3.50	0.25	10.25	9.25	10.00	7.75	5.00	11.75	5.75	7.25	-1.156250	0.420898	1.805664	42.279999	474.459991	-25.830000	855.00	0.26	-0.00
3.69	24.00	17.50	7.50	5.50	0.00	0.00	0.00	0.00	0.00	0.00	0.00	0.00	0.00	0.00	0.00	0.00	-1.779785	-0.887695	3.677246	63.279999	412.929993	27.580000	663.00	-0.37	-0.01	0.00	0.00	0.00	0.00	0.00	0.00	2.75	0.00	9.00	8.00	8.75	7.00	4.50	11.75	5.00	7.00	-1.949219	0.675293	2.492188	76.930000	507.570007	-19.040001	761.00	0.27	-0.00
3.70	24.50	18.50	8.25	7.50	0.00	0.00	0.00	0.00	0.00	0.00	0.00	0.00	0.00	0.00	0.00	0.00	-1.419434	-0.069336	3.376953	87.150002	356.019989	-8.050000	716.00	-0.37	-0.02	0.00	0.00	0.00	0.00	0.00	0.00	2.00	0.00	8.00	6.50	7.50	5.75	4.00	11.25	3.75	6.25	-2.444336	1.029785	3.533203	139.300003	529.200012	4.060000	651.00	0.27	0.00
