# time	left pressure 1[N/cm²]	left pressure 2[N/cm²]	left pressure 3[N/cm²]	left pressure 4[N/cm²]	left pressure 5[N/cm²]	left pressure 6[N/cm²]	left pressure 7[N/cm²]	left pressure 8[N/cm²]	left pressure 9[N/cm²]	left pressure 10[N/cm²]	left pressure 11[N/cm²]	left pressure 12[N/cm²]	left pressure 13[N/cm²]	left pressure 14[N/cm²]	left pressure 15[N/cm²]	left pressure 16[N/cm²]	left acceleration X[g]	left acceleration Y[g]	left acceleration Z[g]	left angular X[dps]	left angular Y[dps]	left angular Z[dps]	left total force[N]	left center of pressure X[%]	left center of pressure Y[%]	right pressure 1[N/cm²]	right pressure 2[N/cm²]	right pressure 3[N/cm²]	right pressure 4[N/cm²]	right pressure 5[N/cm²]	right pressure 6[N/cm²]	right pressure 7[N/cm²]	right pressure 8[N/cm²]	right pressure 9[N/cm²]	right pressure 10[N/cm²]	right pressure 11[N/cm²]	right pressure 12[N/cm²]	right pressure 13[N/cm²]	right pressure 14[N/cm²]	right pressure 15[N/cm²]	right pressure 16[N/cm²]	right acceleration X[g]	right acceleration Y[g]	right acceleration Z[g]	right angular X[dps]	right angular Y[dps]	right angular Z[dps]	right total force[N]	right center of pressure X[%]	right center of pressure Y[%]
0.00																										0.00	0.00	0.00	0.00	0.00	0.00	0.00	0.00	0.00	0.00	0.00	0.00	0.00	0.50	0.25	0.00	0.097168	1.541016	1.030762	-75.949997	-20.440001	114.309998	8.00	0.00	0.00
0.01																										0.00	0.00	0.00	0.00	0.00	0.00	0.00	0.00	0.00	0.00	0.00	0.00	0.00	0.75	0.00	0.00	0.334473	1.375488	0.941895	-53.760002	-51.170002	168.350006	7.00	0.00	0.00
0.02																										0.00	0.00	0.00	0.00	0.00	0.00	0.00	0.00	0.00	0.00	0.00	0.00	0.00	0.75	0.00	0.00	0.170898	1.014648	0.625977	-54.950001	-65.870003	207.339996	7.00	0.00	0.00
0.03	7.75	7.75	8.50	9.25	9.75	10.50	1.75	8.75	4.00	3.25	2.50	3.25	8.75	3.25	1.50	2.00	-0.152832	0.088867	0.961914	-2.660000	1.540000	0.700000	1099.00	-0.08	-0.12	0.00	0.00	0.00	0.00	0.00	0.00	0.00	0.00	0.00	0.00	0.00	0.00	0.00	0.25	0.00	0.00	0.090820	1.001953	0.511230	-45.709999	-67.129997	225.960007	2.00	0.00	0.00
0.04	7.75	8.00	8.50	9.25	10.00	11.00	2.00	8.75	3.75	3.25	2.50	3.50	8.75	3.25	1.75	2.00	-0.152344	0.089355	0.967773	-2.170000	1.120000	0.840000	1117.00	-0.08	-0.12	0.00	0.00	0.00	0.00	0.00	0.00	0.00	0.00	0.00	0.00	0.00	0.00	0.00	0.25	0.00	0.00	0.047363	0.876465	0.626465	-19.740000	-68.389999	228.339996	2.00	0.00	0.00
0.05	7.75	8.00	8.75	9.50	10.25	11.50	2.25	9.00	4.00	3.50	3.00	4.00	9.00	3.50	1.75	2.00	-0.148926	0.090332	0.965820	-1.680000	0.560000	1.120000	1162.00	-0.07	-0.12	0.00	0.00	0.00	0.00	0.00	0.00	0.00	0.00	0.00	0.00	0.00	0.00	0.00	0.50	0.00	0.00	-0.004883	0.729004	0.660156	-0.350000	-71.610001	225.680008	5.00	0.00	0.00
0.06	8.25	8.00	8.75	9.50	10.50	11.50	2.25	9.25	4.00	3.75	2.50	4.00	9.25	3.50	1.50	2.00	-0.145508	0.081055	0.958984	-1.400000	0.140000	1.190000	1172.00	-0.07	-0.12	0.00	0.00	0.00	0.00	0.00	0.00	0.00	0.00	0.00	0.00	0.00	0.00	0.00	0.00	0.00	0.00	-0.065918	0.669434	0.635254	7.490000	-72.800003	223.930008	0.00	0.00	0.00
0.07	8.25	8.25	9.00	9.50	10.75	11.75	2.25	9.25	4.00	3.50	3.00	4.00	9.50	3.50	1.75	2.00	-0.143555	0.081055	0.967285	-1.260000	0.070000	1.400000	1191.00	-0.07	-0.12	0.00	0.00	0.00	0.00	0.00	0.00	0.00	0.00	0.00	0.00	0.00	0.00	0.00	0.00	0.00	0.00	-0.119141	0.615234	0.620117	16.170000	-71.050003	221.759995	0.00	0.00	0.00
0.08	8.25	8.25	9.00	9.75	11.25	12.00	2.25	9.50	4.00	3.75	3.00	4.00	10.00	3.75	1.75	2.25	-0.154297	0.082520	0.963379	-1.120000	0.210000	1.540000	1219.00	-0.07	-0.12	0.00	0.00	0.00	0.00	0.00	0.00	0.00	0.00	0.00	0.00	0.00	0.00	0.00	0.25	0.00	0.00	-0.204102	0.362793	0.683105	40.040001	-62.369999	211.119995	2.00	0.00	0.00
0.09	8.75	8.50	9.50	10.00	11.50	12.50	2.50	9.75	4.50	3.50	3.00	4.50	10.00	3.50	1.75	2.00	-0.149902	0.081055	0.979492	-0.910000	-0.000000	1.890000	1260.00	-0.07	-0.12	0.00	0.00	0.00	0.00	0.00	0.00	0.00	0.00	0.00	0.00	0.00	0.00	0.00	0.00	0.00	0.00	-0.298340	0.207031	0.528809	45.080002	-53.619999	199.850006	0.00	0.00	0.00
0.10	9.00	8.75	9.75	10.50	11.75	12.75	2.75	10.00	4.25	4.00	3.00	4.25	10.25	3.75	1.75	2.25	-0.145508	0.087891	0.964355	-0.910000	-0.140000	2.170000	1294.00	-0.07	-0.12	0.00	0.00	0.00	0.00	0.00	0.00	0.00	0.00	0.00	0.00	0.00	0.00	0.00	0.00	0.00	0.00	-0.405273	-0.053223	0.284668	42.700001	-31.850000	179.270004	0.00	0.00	0.00
0.11	9.00	8.75	9.75	10.50	12.00	12.75	2.75	10.00	4.25	4.00	3.00	4.75	10.25	3.75	1.75	2.25	-0.145996	0.087402	0.963379	-0.840000	-0.210000	2.310000	1303.00	-0.07	-0.12	0.00	0.00	0.00	0.00	0.00	0.00	0.00	0.00	0.00	0.00	0.00	0.00	0.00	0.00	0.00	0.00	-0.355957	-0.146484	0.514648	42.840000	-3.150000	147.070007	0.00	0.00	0.00
0.12	9.00	9.00	9.75	10.75	12.00	13.00	2.75	10.25	4.25	4.00	3.00	4.75	10.50	3.75	2.00	2.50	-0.145020	0.084473	0.964355	-0.980000	-0.000000	2.310000	1322.00	-0.07	-0.12	0.00	0.00	0.00	0.00	0.00	0.00	0.00	0.00	0.00	0.00	0.00	0.00	0.00	0.00	0.00	0.00	-4.207031	-2.918457	2.131836	28.980000	11.480000	94.989998	0.00	0.00	0.00
0.13	9.50	9.00	10.00	11.00	12.50	13.25	2.75	10.25	4.25	4.00	3.00	5.00	10.75	4.00	1.75	2.50	-0.145508	0.089844	0.961914	-1.260000	-0.070000	2.240000	1347.00	-0.07	-0.12	0.00	0.00	0.25	0.25	0.00	0.00	0.00	0.00	0.00	0.00	0.00	0.00	0.25	0.00	0.00	0.00	-3.636719	-2.933105	3.667969	-194.529999	99.820000	36.750000	8.00	0.00	0.00
0.14	9.50	9.25	10.25	11.00	12.75	13.50	3.00	10.50	4.50	4.25	3.75	4.75	10.50	3.75	1.75	2.50	-0.141113	0.088867	0.958984	-1.680000	0.630000	1.960000	1375.00	-0.07	-0.12	0.75	0.25	0.75	0.75	0.50	0.00	0.00	0.25	0.00	0.00	0.00	0.00	0.25	0.00	0.00	0.00	-1.332031	-0.462402	2.248047	-185.149994	82.879997	-34.090000	42.00	0.00	0.00
0.15	10.00	9.75	10.50	11.25	12.75	13.75	3.00	10.50	4.50	4.25	3.25	5.00	10.75	3.75	1.75	2.50	-0.141113	0.088379	0.966797	-1.820000	1.120000	1.890000	1394.00	-0.08	-0.12	0.75	0.25	0.75	0.75	0.75	0.00	0.25	0.25	0.00	0.00	0.50	0.00	0.00	0.00	0.00	0.00	-0.422852	-0.113770	1.220215	-51.730000	5.530000	-37.660000	52.00	-0.17	-0.03
0.16	10.75	9.75	10.50	11.25	13.00	13.75	3.00	10.50	4.75	4.25	3.50	5.00	11.00	3.75	2.00	2.50	-0.142090	0.086426	0.969238	-1.820000	1.820000	1.610000	1417.00	-0.08	-0.11	1.50	0.50	1.25	0.75	1.00	0.25	0.25	0.25	0.00	0.25	0.00	0.00	0.50	0.00	0.00	0.00	0.078125	0.308105	0.661133	-30.030001	3.150000	-15.750000	77.00	-0.20	-0.03
0.17	10.50	10.00	10.50	11.50	13.00	14.00	3.00	10.75	4.25	4.00	3.00	5.00	11.00	4.00	1.75	2.50	-0.137695	0.088379	0.961426	-1.750000	2.520000	1.610000	1410.00	-0.08	-0.12	1.25	0.50	1.75	0.50	1.00	0.25	0.25	0.25	0.25	0.50	0.25	0.00	0.75	0.25	0.00	0.00	0.022949	0.172363	1.161133	-46.130001	11.060000	1.470000	91.00	-0.13	-0.01
0.18	10.50	10.00	10.50	11.50	13.25	14.00	3.25	10.75	4.50	4.25	3.25	5.25	11.00	4.00	2.00	2.50	-0.133301	0.086914	0.970215	-1.680000	3.360000	1.610000	1433.00	-0.08	-0.12	1.25	0.75	1.75	1.25	1.25	0.00	0.50	0.50	0.25	0.25	0.25	0.00	0.25	0.25	0.25	0.00	-0.133789	0.088379	0.936523	-36.400002	1.680000	2.380000	106.00	-0.14	-0.02
0.19	10.75	10.00	10.50	11.50	13.25	14.00	3.25	10.75	4.25	4.00	3.25	5.25	11.25	3.75	2.00	2.25	-0.139648	0.087891	0.964355	-1.680000	4.130000	1.540000	1428.00	-0.08	-0.12	1.25	0.75	1.75	1.25	1.50	0.50	0.50	0.50	0.25	0.50	0.50	0.00	1.00	0.50	0.00	0.00	-0.208008	0.148926	1.063477	-33.250000	1.610000	-2.100000	128.00	-0.11	-0.05
0.20	10.50	10.00	10.75	11.50	13.25	14.00	3.00	10.75	4.25	4.00	3.00	5.00	11.00	4.00	1.75	2.50	-0.136719	0.084961	0.961426	-1.820000	4.760000	1.470000	1417.00	-0.08	-0.12	2.25	0.75	2.00	1.25	1.50	0.50	0.50	0.50	0.50	0.50	0.50	0.00	1.00	0.50	0.00	0.00	-0.166504	0.113770	0.982910	-17.219999	3.710000	-1.050000	146.00	-0.13	-0.02
0.21	10.75	10.00	10.75	11.50	13.25	14.00	3.00	10.75	4.50	4.25	3.00	5.50	11.25	4.00	1.75	2.50	-0.142090	0.090332	0.959473	-1.680000	4.760000	1.470000	1434.00	-0.08	-0.12	2.00	0.75	1.75	1.25	1.50	0.50	0.50	0.75	0.25	0.75	0.50	0.00	1.00	0.75	0.00	0.00	-0.171387	0.058105	0.974121	-11.270000	2.800000	-0.350000	145.00	-0.11	-0.04
0.22	10.75	10.00	10.75	11.50	13.25	14.25	3.25	10.75	4.50	4.00	3.25	5.50	11.00	4.00	1.75	2.50	-0.146484	0.084961	0.958008	-1.470000	4.760000	1.610000	1439.00	-0.08	-0.12	1.50	0.75	1.75	1.25	1.50	0.50	0.50	0.75	0.50	0.75	0.50	0.00	1.00	0.75	0.25	0.00	-0.189453	0.064941	0.979004	-4.060000	1.400000	-0.000000	146.00	-0.08	-0.04
0.23	10.75	10.00	10.75	11.50	13.25	14.00	3.25	10.75	4.50	4.00	3.50	5.50	11.00	3.75	1.75	2.50	-0.145996	0.083008	0.959473	-1.400000	4.970000	1.610000	1436.00	-0.08	-0.12	1.50	0.75	1.75	1.25	1.50	0.50	0.50	0.75	0.75	0.75	0.50	0.00	1.50	0.75	0.25	0.00	-0.184570	0.099121	0.969238	1.190000	0.280000	1.120000	154.00	-0.07	-0.05
0.24	10.50	10.00	10.75	11.50	13.00	14.00	3.00	10.75	4.25	4.00	3.25	5.75	11.00	3.75	2.00	2.25	-0.143066	0.090820	0.958984	-0.980000	4.900000	1.470000	1424.00	-0.08	-0.12	1.50	0.75	1.75	1.25	1.50	0.75	0.50	0.50	0.75	1.00	0.50	0.00	1.25	1.00	0.50	0.00	-0.174316	0.116699	0.972656	2.590000	0.140000	1.960000	159.00	-0.05	-0.03
0.25	10.25	9.75	10.75	11.50	13.00	14.25	3.00	10.75	4.25	3.75	3.25	5.50	11.25	3.75	1.75	2.50	-0.145996	0.083008	0.964844	-0.630000	5.040000	1.610000	1417.00	-0.08	-0.12	1.75	0.75	1.75	1.25	1.50	0.50	0.50	1.00	0.75	1.00	0.50	0.25	1.75	1.00	0.25	0.00	-0.173828	0.124512	0.972656	2.380000	-0.210000	1.470000	172.00	-0.05	-0.06
0.26	10.75	9.75	10.50	11.50	13.00	14.00	3.00	10.75	4.25	4.00	3.00	5.50	11.00	3.50	1.75	2.50	-0.143066	0.085449	0.961914	0.490000	4.760000	1.820000	1412.00	-0.08	-0.12	1.50	0.75	2.00	1.00	1.75	0.75	0.50	0.75	0.25	1.00	0.50	0.00	2.25	0.75	0.25	0.00	-0.177734	0.144043	0.961426	1.610000	-0.490000	0.140000	163.00	-0.07	-0.07
0.27	10.75	10.25	10.75	11.50	13.00	14.25	3.00	10.75	4.25	3.75	3.00	5.50	11.25	3.75	1.50	2.50	-0.143066	0.085449	0.961914	0.490000	4.760000	1.820000	1422.00	-0.08	-0.12	1.50	0.50	2.00	1.50	1.75	0.75	0.50	1.25	0.75	1.00	0.50	0.25	2.25	1.00	0.50	0.00	-0.176758	0.143555	0.962891	-0.350000	-0.840000	-1.400000	190.00	-0.04	-0.08
0.28	10.50	10.00	10.50	11.50	13.00	14.25	2.75	10.75	4.25	3.75	3.25	5.75	11.25	3.50	2.00	2.25	-0.145020	0.086914	0.958984	1.190000	4.620000	1.960000	1417.00	-0.08	-0.12	1.25	0.75	2.25	1.50	1.75	0.75	0.50	1.25	0.50	1.00	0.50	0.00	2.50	1.25	0.50	0.00	-0.178223	0.131836	0.960938	-2.730000	-1.190000	-2.520000	191.00	-0.04	-0.08
0.29	10.75	10.25	10.50	11.50	12.75	14.25	2.75	11.00	4.25	3.75	3.50	5.75	11.50	3.25	1.75	2.25	-0.136719	0.088867	0.966797	2.660000	4.200000	2.170000	1424.00	-0.08	-0.12	1.50	0.75	2.25	1.50	2.00	1.25	0.50	1.25	0.75	1.00	0.50	0.00	2.50	1.00	0.50	0.00	-0.171875	0.124023	0.957031	-4.130000	-1.610000	-3.150000	204.00	-0.05	-0.08
0.30	10.50	10.25	10.50	11.50	12.75	14.25	2.75	11.00	4.00	3.75	3.00	5.75	11.25	3.25	1.75	2.25	-0.149414	0.090332	0.969727	3.500000	4.340000	2.380000	1409.00	-0.08	-0.12	1.25	1.00	2.25	1.75	1.75	1.25	0.50	1.25	0.75	1.00	0.50	0.25	2.25	1.25	0.50	0.00	-0.171387	0.119141	0.968750	-5.320000	-1.610000	-3.220000	207.00	-0.05	-0.08
0.31	10.50	10.25	10.50	11.50	12.50	14.25	2.75	11.00	3.75	3.50	3.25	5.75	11.25	3.25	1.75	2.00	-0.138184	0.096191	0.968750	4.060000	5.110000	2.590000	1401.00	-0.09	-0.13	1.75	0.75	2.25	2.00	1.75	1.00	0.50	1.25	0.75	0.75	0.75	0.00	2.50	1.25	0.50	0.00	-0.179688	0.109863	0.971680	-5.950000	-1.260000	-2.800000	209.00	-0.05	-0.08
0.32	10.00	10.00	10.50	11.50	12.25	14.00	2.50	11.00	3.75	3.25	3.00	5.75	11.25	3.25	1.25	2.00	-0.131836	0.100586	0.960938	3.850000	5.950000	2.380000	1371.00	-0.09	-0.13	1.75	1.00	2.00	2.25	1.75	1.25	0.50	1.00	0.75	1.00	0.50	0.00	2.25	1.25	0.50	0.00	-0.167480	0.104980	0.964355	-5.460000	-0.980000	-1.050000	208.00	-0.06	-0.08
0.33	10.00	10.00	10.25	11.25	12.25	14.00	2.50	11.00	3.75	3.25	3.00	5.50	11.50	3.00	1.50	2.25	-0.136719	0.097168	0.960449	3.220000	6.370000	2.170000	1367.00	-0.09	-0.13	1.75	0.75	2.50	2.00	2.00	1.00	0.75	1.25	1.00	1.00	0.75	0.00	2.25	1.25	0.25	0.00	-0.162109	0.105469	0.964844	-5.180000	-0.700000	-0.140000	221.00	-0.06	-0.06
0.34	9.50	9.50	10.25	11.25	12.00	14.00	2.50	11.00	3.50	3.25	2.75	6.00	11.50	3.00	1.50	2.00	-0.143066	0.094727	0.957031	2.730000	6.370000	1.960000	1351.00	-0.08	-0.13	2.00	0.75	2.75	2.00	2.00	1.50	0.50	1.25	0.75	1.00	0.50	0.00	2.50	1.25	0.25	0.00	-0.167969	0.107910	0.963867	-4.830000	-0.280000	0.350000	224.00	-0.07	-0.07
0.35	9.75	9.75	10.00	11.25	12.00	14.00	2.50	11.00	3.50	3.00	3.00	5.75	11.25	2.50	1.50	2.00	-0.139160	0.096680	0.960449	2.590000	6.230000	1.890000	1343.00	-0.09	-0.13	2.25	1.00	2.75	2.00	2.00	1.25	0.75	1.25	0.75	1.00	0.50	0.00	2.25	1.00	0.50	0.00	-0.162598	0.107910	0.964355	-4.480000	-0.070000	0.840000	229.00	-0.08	-0.06
0.36	9.75	9.75	10.00	11.00	11.75	14.00	2.25	11.00	3.50	3.00	3.00	5.75	11.50	2.75	1.75	2.00	-0.145020	0.099121	0.965332	2.520000	6.580000	1.820000	1341.00	-0.09	-0.14	2.00	1.25	2.75	2.00	2.00	1.25	0.75	1.25	0.75	1.00	0.50	0.50	2.50	1.25	0.75	0.00	-0.169922	0.109863	0.965332	-3.920000	0.280000	1.050000	242.00	-0.06	-0.07
0.37	9.50	9.75	10.00	11.00	11.50	13.75	2.25	10.75	3.50	3.00	3.00	5.75	11.50	2.75	1.50	2.00	-0.145996	0.099121	0.961914	2.310000	7.070000	1.750000	1325.00	-0.09	-0.14	2.25	1.25	3.00	2.25	2.25	1.25	0.50	1.50	0.75	1.00	0.50	0.50	2.75	1.25	0.50	0.25	-0.162598	0.109375	0.960449	-3.360000	0.280000	1.260000	255.00	-0.07	-0.09
0.38	9.25	9.50	9.75	11.00	11.50	14.00	2.25	10.75	3.50	3.00	3.00	5.75	11.50	2.50	1.50	2.25	-0.137695	0.097656	0.957031	1.960000	7.350000	1.680000	1319.00	-0.08	-0.14	2.00	1.00	2.75	2.25	2.25	1.25	0.75	1.25	1.00	1.00	0.75	0.00	2.75	1.25	0.50	0.00	-0.159180	0.117188	0.963867	-3.010000	0.210000	1.260000	246.00	-0.06	-0.07
0.39	9.25	9.25	9.75	10.75	11.25	13.75	2.00	10.75	3.25	2.75	3.00	6.00	11.25	2.25	1.75	2.00	-0.141602	0.104492	0.959961	1.820000	7.350000	1.400000	1296.00	-0.09	-0.14	2.25	1.00	3.00	2.25	2.25	1.50	0.75	1.25	1.00	1.00	0.75	0.00	2.75	1.25	0.50	0.00	-0.165039	0.108887	0.958496	-2.730000	0.140000	1.120000	255.00	-0.07	-0.07
0.40	9.25	9.25	9.75	10.75	11.00	13.75	2.00	10.75	3.00	2.75	2.75	5.75	11.25	2.25	1.50	2.00	-0.142578	0.105957	0.962402	1.540000	7.210000	1.400000	1281.00	-0.09	-0.14	1.75	1.00	2.75	2.25	2.25	1.50	0.75	1.50	0.75	1.00	0.75	0.25	3.00	1.25	0.50	0.00	-0.159668	0.115723	0.961426	-2.730000	-0.070000	0.840000	252.00	-0.06	-0.09
0.41	9.00	9.00	9.50	10.50	10.75	13.50	1.75	10.75	3.25	3.00	2.75	6.25	11.25	2.75	1.50	2.25	-0.140625	0.101074	0.961914	1.470000	6.930000	1.470000	1278.00	-0.08	-0.14	2.00	1.00	3.00	2.50	2.25	1.50	0.75	1.50	1.00	1.25	0.75	0.25	2.75	1.25	0.50	0.00	-0.166504	0.111328	0.963867	-3.010000	0.070000	0.350000	265.00	-0.06	-0.08
0.42	8.75	9.00	9.50	10.50	10.50	13.50	1.75	10.75	3.00	3.00	2.75	6.00	11.50	2.00	1.75	2.00	-0.141113	0.101074	0.957031	1.120000	6.790000	1.400000	1263.00	-0.08	-0.15	2.25	1.00	2.75	2.25	2.25	1.50	0.75	1.75	0.75	1.50	0.75	0.50	2.25	1.25	0.75	0.00	-0.159668	0.118164	0.958984	-3.080000	0.350000	-0.280000	266.00	-0.06	-0.08
0.43	9.00	9.00	9.50	10.50	10.50	13.50	1.75	10.75	3.00	2.75	2.50	6.00	11.25	2.00	1.50	2.25	-0.145996	0.100098	0.954102	-0.140000	6.090000	1.120000	1256.00	-0.09	-0.15	2.25	1.25	3.00	2.25	2.25	1.75	0.75	1.75	1.00	1.00	1.00	0.25	3.00	1.50	0.50	0.00	-0.163574	0.117676	0.960938	-3.430000	0.490000	-0.490000	279.00	-0.06	-0.08
0.44	8.75	8.75	9.25	10.50	10.25	13.25	1.75	10.75	3.00	2.75	2.75	6.00	11.25	2.25	1.50	2.00	-0.142578	0.104980	0.956543	-0.840000	5.740000	1.050000	1245.00	-0.08	-0.15	2.25	1.00	3.00	2.25	2.50	1.75	0.75	1.75	1.00	1.00	0.75	0.50	3.00	1.25	0.75	0.00	-0.165527	0.113770	0.961426	-3.220000	0.630000	-0.910000	280.00	-0.06	-0.08
0.45	8.50	8.75	9.25	10.25	10.25	13.50	1.75	10.50	2.75	2.50	2.50	6.00	11.25	2.00	1.50	2.00	-0.146973	0.100586	0.956543	-1.330000	5.600000	1.050000	1227.00	-0.09	-0.15	2.25	1.25	3.00	2.50	2.50	1.75	0.75	1.75	0.75	1.25	1.00	0.75	2.75	1.50	0.50	0.00	-0.162109	0.112305	0.961426	-3.080000	0.700000	-0.770000	288.00	-0.06	-0.09
0.46	9.00	8.75	9.25	10.25	10.00	13.25	1.50	10.50	2.75	2.75	2.75	6.00	11.25	1.75	1.75	2.00	-0.146484	0.104980	0.954590	-1.750000	5.320000	1.190000	1228.00	-0.09	-0.15	2.25	1.25	3.25	2.25	2.50	1.75	0.75	2.00	1.00	1.50	0.75	0.50	3.25	1.50	0.50	0.00	-0.164551	0.111328	0.965332	-2.940000	0.560000	-0.630000	297.00	-0.05	-0.09
0.47	8.75	8.75	9.25	10.50	10.00	13.50	1.50	10.50	2.75	2.75	2.50	6.00	11.25	2.00	1.75	1.75	-0.144531	0.105469	0.955566	-2.240000	5.180000	1.120000	1230.00	-0.09	-0.15	2.00	1.00	3.25	2.25	2.50	1.75	0.75	1.75	1.25	1.25	1.00	0.50	3.25	1.50	0.75	0.00	-0.165039	0.106934	0.964844	-2.730000	0.420000	-0.560000	294.00	-0.04	-0.08
0.48	8.50	8.50	9.25	10.25	10.00	13.25	1.75	10.50	3.00	2.50	2.75	6.00	11.25	1.75	1.50	1.75	-0.143066	0.106445	0.950684	-2.730000	5.180000	1.050000	1221.00	-0.09	-0.15	2.25	1.00	3.00	2.50	2.75	2.00	0.75	2.00	1.00	1.50	0.75	0.25	3.50	1.25	0.75	0.00	-0.167480	0.116699	0.965820	-2.590000	0.350000	-0.420000	300.00	-0.05	-0.09
0.49	8.75	8.50	9.25	10.25	10.00	13.25	1.50	10.50	2.75	2.50	2.75	6.00	11.00	1.75	1.50	2.00	-0.144531	0.106445	0.958496	-3.150000	5.110000	1.050000	1215.00	-0.09	-0.15	2.00	1.00	3.25	2.25	2.75	2.25	0.75	2.00	0.75	1.00	1.00	0.50	3.50	1.50	0.75	0.00	-0.164062	0.111816	0.957031	-2.450000	0.350000	-0.350000	300.00	-0.05	-0.10
0.50	8.75	8.50	9.25	10.25	9.75	13.25	1.50	10.50	2.75	2.75	3.00	5.75	11.00	1.75	1.50	1.75	-0.146484	0.105469	0.957520	-3.570000	5.110000	1.050000	1213.00	-0.09	-0.15	2.25	1.00	3.25	2.50	2.75	2.00	0.75	2.00	1.00	1.25	1.00	0.50	4.00	1.50	0.75	0.00	-0.166992	0.112305	0.968262	-2.310000	0.140000	-0.350000	313.00	-0.05	-0.10
0.51	8.25	8.50	9.25	10.25	9.75	13.25	1.50	10.50	2.75	2.75	2.75	6.00	11.00	1.75	1.75	2.00	-0.139648	0.107910	0.964355	-3.500000	4.830000	1.190000	1212.00	-0.08	-0.15	2.50	1.25	3.25	2.50	2.50	2.25	0.75	2.25	1.00	1.25	1.00	1.00	3.50	1.75	0.75	0.00	-0.166992	0.106934	0.967285	-2.380000	-0.070000	-0.210000	326.00	-0.05	-0.10
0.52	8.50	8.50	9.25	10.00	9.75	13.25	1.50	10.50	2.75	2.75	2.50	6.00	11.00	2.00	1.50	2.25	-0.148438	0.102539	0.957520	-3.430000	4.830000	1.190000	1210.00	-0.08	-0.15	2.25	1.00	3.00	2.50	2.50	2.25	0.75	2.25	0.75	1.50	1.00	0.75	4.00	1.50	0.75	0.00	-0.167969	0.116211	0.964844	-2.590000	-0.140000	-0.350000	317.00	-0.04	-0.11
0.53	8.25	8.50	9.00	10.25	9.75	13.00	1.50	10.50	2.75	2.25	2.50	5.75	11.00	1.75	1.50	2.00	-0.142578	0.102539	0.956055	-3.500000	5.250000	1.260000	1192.00	-0.09	-0.15	2.50	1.25	3.25	2.50	2.75	2.25	0.75	2.25	1.00	1.25	1.00	0.50	3.75	1.50	0.50	0.25	-0.157227	0.117188	0.957031	-2.940000	0.000000	-0.350000	322.00	-0.06	-0.10
0.54	8.50	8.50	9.00	10.25	9.75	13.25	1.50	10.25	3.00	2.50	2.75	6.00	11.00	1.75	1.75	2.00	-0.145020	0.106445	0.960938	-3.430000	5.320000	1.260000	1208.00	-0.08	-0.15	2.50	1.50	3.25	2.75	2.75	2.25	0.75	2.25	1.00	1.50	1.00	1.00	3.50	1.75	0.50	0.25	-0.163574	0.110352	0.962891	-3.220000	0.000000	-0.490000	336.00	-0.05	-0.10
0.55	8.50	8.75	9.00	10.00	9.75	13.25	1.50	10.25	3.00	2.50	2.75	6.25	11.00	2.00	1.50	2.00	-0.147949	0.101074	0.955566	-3.430000	5.600000	1.260000	1210.00	-0.08	-0.15	2.25	1.25	3.50	2.75	2.75	2.50	0.75	2.25	1.00	1.50	1.00	0.75	4.25	1.75	0.75	0.00	-0.166504	0.111816	0.959961	-3.500000	0.070000	-0.560000	343.00	-0.04	-0.10
0.56	8.50	8.50	9.00	10.00	9.75	13.50	1.50	10.25	3.00	2.50	2.50	6.00	10.75	1.75	1.50	2.00	-0.146973	0.101562	0.959961	-3.570000	5.740000	1.190000	1200.00	-0.09	-0.15																									
0.57	8.50	8.50	9.00	10.00	9.75	13.25	1.50	10.25	3.00	2.75	2.75	6.00	11.00	1.75	1.50	2.00	-0.143066	0.101562	0.959961	-3.570000	5.670000	1.330000	1205.00	-0.08	-0.15	2.50	1.00	3.50	3.00	3.00	2.50	0.75	2.25	1.00	1.50	1.00	0.75	4.25	1.75	0.50	0.25	-0.167480	0.108398	0.957520	-4.130000	0.350000	-0.420000	347.00	-0.05	-0.10
0.58	8.25	8.25	9.00	10.00	9.50	13.25	1.50	10.25	2.75	2.50	2.75	6.25	11.00	1.75	1.75	2.00	-0.146484	0.100098	0.957520	-3.500000	5.740000	1.260000	1196.00	-0.08	-0.15	2.50	1.25	3.50	3.00	3.00	2.75	0.75	2.50	0.75	1.50	1.00	0.75	4.50	1.50	0.75	0.00	-0.166504	0.105469	0.960938	-3.990000	0.350000	-0.140000	355.00	-0.06	-0.12
0.59	8.00	8.50	9.00	9.75	9.50	13.25	1.50	10.25	3.00	2.75	2.75	6.25	10.75	2.00	1.50	1.75	-0.148926	0.102539	0.965820	-3.360000	5.810000	1.400000	1195.00	-0.08	-0.15	2.25	1.25	4.00	3.00	3.00	2.50	0.75	2.50	1.25	1.50	1.00	0.75	4.25	1.50	0.75	0.25	-0.164551	0.110840	0.965332	-3.920000	0.420000	-0.000000	362.00	-0.05	-0.10
0.60	8.00	8.25	9.00	9.75	9.50	13.00	1.50	10.25	3.00	2.50	3.00	6.25	11.00	1.75	1.75	2.25	-0.146973	0.102051	0.962891	-3.290000	5.810000	1.400000	1196.00	-0.08	-0.15	2.50	1.25	4.00	3.00	2.75	2.50	0.75	2.50	1.25	1.50	1.00	0.50	4.25	1.50	0.75	0.25	-0.164551	0.109375	0.961426	-3.640000	0.560000	0.210000	359.00	-0.05	-0.10
0.61	8.25	8.25	9.00	10.00	9.50	13.00	1.50	10.25	3.00	2.75	2.75	6.25	10.75	1.75	1.75	2.25	-0.146484	0.105957	0.960938	-3.220000	5.670000	1.260000	1199.00	-0.08	-0.15	2.25	1.25	3.50	3.00	3.00	2.50	0.75	2.50	1.00	1.50	1.00	1.00	4.00	1.75	0.75	0.25	-0.158203	0.105469	0.962891	-3.360000	0.420000	0.210000	355.00	-0.04	-0.11
0.62	8.25	8.25	8.75	9.75	9.25	13.00	1.50	10.25	3.25	2.50	2.75	6.25	10.75	2.00	1.50	1.75	-0.143066	0.101074	0.961426	-3.290000	5.600000	1.330000	1187.00	-0.08	-0.15	2.50	1.25	3.75	3.25	3.00	2.75	0.75	2.50	1.00	1.50	1.00	0.75	4.25	1.75	0.75	0.00	-0.161133	0.111816	0.966309	-3.360000	0.560000	0.210000	365.00	-0.05	-0.11
0.63	8.00	8.25	8.75	9.75	9.25	12.75	1.50	10.25	3.00	2.75	2.75	6.00	11.00	2.00	1.75	2.00	-0.143066	0.104980	0.964355	-3.430000	5.810000	1.330000	1184.00	-0.08	-0.15	2.50	1.25	3.75	3.00	3.25	2.50	0.75	2.50	1.25	1.25	1.25	0.75	4.50	1.75	1.00	0.25	-0.164551	0.111816	0.964355	-3.010000	0.490000	0.280000	372.00	-0.04	-0.10
0.64	8.00	8.25	8.75	9.75	9.25	12.75	1.50	10.25	3.00	2.75	3.00	6.25	11.00	2.00	1.75	2.00	-0.150391	0.097168	0.962402	-3.500000	5.950000	1.190000	1190.00	-0.08	-0.15	2.50	1.50	4.00	3.25	3.00	3.00	0.75	2.50	1.25	1.50	1.00	1.00	4.50	1.50	0.50	0.00	-0.160645	0.107422	0.960938	-2.870000	0.490000	0.280000	377.00	-0.06	-0.11
0.65	8.00	8.25	8.75	9.75	9.25	13.00	1.50	10.25	3.00	2.50	2.50	6.00	11.00	1.75	1.75	2.00	-0.144043	0.099609	0.953613	-3.430000	5.740000	1.190000	1179.00	-0.08	-0.15	2.50	1.50	3.75	3.25	3.25	3.00	0.75	2.50	1.00	1.50	1.00	0.75	4.75	1.50	0.75	0.25	-0.161133	0.110352	0.964355	-2.730000	0.350000	0.280000	377.00	-0.06	-0.11
0.66	8.25	8.25	8.75	9.75	9.25	12.75	1.50	10.25	3.00	2.50	2.75	6.25	10.75	1.75	1.75	2.25	-0.148438	0.103027	0.962402	-3.360000	5.670000	1.120000	1184.00	-0.08	-0.15	3.00	1.50	4.00	3.25	3.00	3.00	0.75	2.50	1.50	1.50	1.00	1.00	4.25	1.75	0.75	0.50	-0.160156	0.106934	0.966309	-2.590000	0.350000	0.350000	392.00	-0.05	-0.10
0.67	8.00	8.25	8.75	9.75	9.00	12.75	1.50	10.00	3.00	2.50	2.75	6.25	10.75	2.00	1.75	2.00	-0.145508	0.103516	0.958984	-3.290000	5.530000	1.050000	1175.00	-0.08	-0.15	2.50	1.25	4.00	3.25	3.25	3.25	0.75	2.75	1.00	1.50	1.00	0.75	4.25	1.50	1.00	0.25	-0.163574	0.114746	0.964355	-2.450000	0.210000	0.490000	383.00	-0.06	-0.11
0.68	7.75	8.25	8.75	9.75	9.00	12.50	1.50	10.00	2.75	2.75	2.50	6.25	10.75	2.00	1.75	2.00	-0.143555	0.100586	0.960449	-3.360000	5.670000	0.910000	1166.00	-0.08	-0.15	2.75	1.25	4.25	3.50	3.25	3.25	0.75	2.75	1.00	1.50	1.25	1.00	4.50	1.50	1.00	0.25	-0.159180	0.111328	0.969238	-2.100000	0.210000	0.210000	400.00	-0.06	-0.11
0.69	7.75	8.00	8.50	9.50	9.00	12.75	1.50	10.00	3.00	2.75	2.75	6.00	10.75	2.00	1.75	2.00	-0.144531	0.101074	0.960449	-3.500000	5.810000	0.910000	1164.00	-0.08	-0.15	2.50	1.75	4.00	3.50	3.25	3.00	0.75	2.75	1.50	1.25	1.25	0.75	4.25	1.50	0.75	0.25	-0.164551	0.117676	0.964844	-2.100000	0.210000	0.210000	392.00	-0.06	-0.11
0.70	8.25	8.00	8.75	9.75	9.00	12.75	1.50	10.00	2.75	2.50	2.75	6.25	10.75	2.00	1.50	2.00	-0.145996	0.104004	0.950195	-3.430000	5.810000	0.980000	1169.00	-0.08	-0.15	2.75	1.75	4.25	3.75	3.25	3.00	0.75	3.00	1.25	1.25	1.00	0.75	4.50	1.50	0.75	0.25	-0.164551	0.104004	0.968750	-2.170000	0.140000	0.350000	401.00	-0.07	-0.11
0.71	7.75	8.00	8.75	9.50	9.00	12.75	1.50	10.00	3.25	2.25	2.75	6.25	10.75	1.75	1.50	2.00	-0.150879	0.102051	0.962891	-3.430000	5.880000	0.910000	1162.00	-0.08	-0.15	2.75	1.50	4.25	3.75	3.25	3.25	0.75	3.00	1.00	1.25	1.00	0.75	4.50	1.50	0.75	0.00	-0.164062	0.115234	0.966797	-1.610000	0.000000	0.420000	396.00	-0.07	-0.12
0.72	7.50	8.00	8.50	9.50	9.00	12.50	1.50	10.00	3.00	2.50	2.75	6.00	10.50	2.25	1.75	2.00	-0.148926	0.103027	0.955078	-3.500000	5.880000	1.050000	1155.00	-0.08	-0.15	2.75	1.50	4.50	4.00	3.50	3.25	0.75	3.00	1.00	1.25	1.00	0.75	4.00	1.25	1.25	0.25	-0.164062	0.114746	0.978516	-0.910000	-0.420000	0.420000	406.00	-0.07	-0.11
0.73	7.75	7.75	8.50	9.50	8.75	12.50	1.50	10.00	3.00	2.50	3.00	6.00	10.50	2.00	1.50	2.25	-0.154297	0.103027	0.955078	-3.500000	5.740000	1.120000	1151.00	-0.08	-0.15	3.00	1.75	4.50	3.50	3.50	3.50	0.75	2.75	0.75	1.50	1.00	0.75	4.25	1.50	0.75	0.00	-0.172852	0.119629	0.967285	0.770000	-1.470000	0.490000	401.00	-0.08	-0.11
0.74	7.50	8.00	8.50	9.50	9.00	12.50	1.50	9.75	3.00	2.75	2.75	6.00	10.50	2.00	1.50	1.75	-0.148926	0.101562	0.962402	-3.570000	5.460000	0.980000	1147.00	-0.08	-0.15	3.50	1.75	4.50	4.00	3.50	3.50	0.75	2.75	1.00	1.00	0.75	0.50	4.00	1.50	0.75	0.00	-0.169434	0.115723	0.969727	2.030000	-2.660000	0.910000	402.00	-0.09	-0.10
0.75	7.75	7.75	8.50	9.50	9.00	12.50	1.50	9.75	3.00	2.50	2.75	6.00	10.50	2.00	1.75	2.00	-0.144531	0.097168	0.952637	-3.570000	5.390000	0.980000	1149.00	-0.08	-0.15	3.75	2.00	4.75	4.00	3.50	3.50	0.75	3.00	1.00	1.00	0.75	0.75	3.50	1.50	0.50	0.00	-0.166504	0.118652	0.970703	2.940000	-3.430000	1.260000	410.00	-0.10	-0.10
0.76	7.75	8.00	8.50	9.25	8.75	12.50	1.50	9.75	2.75	2.50	3.00	6.00	10.50	2.00	1.75	2.00	-0.153809	0.103516	0.954102	-3.500000	5.110000	1.120000	1144.00	-0.08	-0.15	3.75	2.50	5.00	4.50	3.50	3.75	0.75	2.75	0.50	1.00	0.50	0.25	3.25	1.25	0.25	0.00	-0.167480	0.114258	0.977051	4.200000	-4.550000	1.400000	399.00	-0.13	-0.10
0.77	7.50	7.75	8.50	9.50	8.75	12.50	1.50	9.75	2.75	2.50	2.75	6.00	10.25	2.00	1.75	2.00	-0.146484	0.102539	0.957031	-3.500000	4.830000	1.050000	1137.00	-0.08	-0.15	4.25	2.50	5.25	4.75	3.75	4.00	0.50	2.50	0.50	0.50	0.50	0.00	3.00	1.25	0.25	0.00	-0.179688	0.124023	0.985840	6.160000	-5.880000	1.610000	398.00	-0.15	-0.10
0.78	7.50	8.00	8.50	9.50	8.75	12.25	1.50	9.75	3.00	2.25	3.00	5.75	10.50	2.00	1.50	2.25	-0.144531	0.099609	0.959961	-3.570000	4.760000	1.050000	1138.00	-0.08	-0.15	4.50	3.00	5.25	5.25	3.50	4.00	0.50	2.50	0.25	0.75	0.25	0.00	2.75	0.75	0.50	0.00	-0.177734	0.113770	0.987793	9.310000	-7.560000	1.960000	401.00	-0.17	-0.11
0.79	7.50	8.00	8.50	9.50	8.75	12.25	1.50	9.75	3.00	2.75	2.75	6.00	10.25	2.00	1.75	2.00	-0.150879	0.104004	0.963867	-3.640000	4.830000	0.980000	1143.00	-0.08	-0.15	4.75	3.50	5.50	5.25	4.00	4.50	0.50	2.50	0.25	0.50	0.00	0.00	2.25	0.75	0.25	0.00	-0.170898	0.107422	0.988281	14.630000	-9.660000	2.380000	411.00	-0.19	-0.10
0.80	7.50	8.00	8.50	9.50	8.75	12.25	1.50	9.75	2.75	2.50	3.00	6.00	10.25	2.00	2.00	2.00	-0.148438	0.097168	0.962891	-3.640000	4.690000	1.050000	1142.00	-0.08	-0.15	5.25	3.75	5.75	5.50	3.75	4.50	0.50	2.25	0.25	0.25	0.00	0.00	2.00	0.75	0.25	0.00	-0.158203	0.110352	0.987305	26.110001	-15.470000	2.730000	413.00	-0.20	-0.10
0.81	7.50	8.00	8.50	9.50	8.75	12.25	1.50	9.75	3.00	2.25	2.75	6.00	10.25	2.00	1.75	2.00	-0.145508	0.097656	0.961914	-3.710000	4.620000	1.050000	1137.00	-0.08	-0.15	5.50	4.25	6.25	6.00	3.75	4.50	0.25	2.00	0.00	0.00	0.00	0.00	1.25	0.75	0.00	0.00	-0.163086	0.111328	1.006348	29.469999	-17.430000	2.100000	408.00	-0.23	-0.09
0.82	7.75	7.75	8.50	9.50	8.75	12.25	1.50	9.75	3.00	2.75	2.75	5.75	10.25	2.00	1.75	1.75	-0.151855	0.101562	0.963379	-3.570000	4.550000	1.120000	1139.00	-0.08	-0.15	5.75	4.50	6.25	6.50	3.75	4.75	0.25	1.75	0.00	0.00	0.00	0.00	1.25	0.50	0.00	0.00	-0.166992	0.133789	0.989746	33.459999	-20.160000	2.240000	416.00	-0.24	-0.09
0.83	7.50	8.00	8.50	9.50	9.00	12.25	1.50	9.50	3.25	2.50	2.50	5.75	10.00	2.00	1.75	1.75	-0.156738	0.099609	0.956543	-3.640000	4.830000	1.120000	1133.00	-0.08	-0.14	6.25	5.00	6.75	6.75	3.50	4.75	0.25	1.75	0.00	0.00	0.00	0.00	1.00	0.50	0.00	0.00	-0.132324	0.141602	0.972656	34.230000	-21.139999	1.120000	430.00	-0.24	-0.09
0.84	7.50	8.00	8.50	9.25	8.75	12.00	1.50	9.50	3.00	2.75	2.50	5.75	10.00	2.00	1.75	2.00	-0.152832	0.097656	0.961426	-3.850000	4.900000	0.980000	1125.00	-0.08	-0.14	6.50	5.75	7.00	7.00	3.50	4.50	0.25	1.75	0.00	0.00	0.00	0.00	0.50	0.50	0.00	0.00	-0.125977	0.145996	0.943848	32.270000	-20.580000	-0.280000	439.00	-0.25	-0.08
0.85	8.00	8.00	8.50	9.25	8.75	12.00	1.50	9.50	3.00	2.50	2.50	5.50	10.00	1.75	1.75	2.00	-0.148438	0.100586	0.960938	-3.990000	4.900000	1.050000	1122.00	-0.08	-0.14	7.50	6.25	7.25	7.50	3.25	4.50	0.25	1.25	0.00	0.00	0.00	0.00	0.50	0.50	0.00	0.00	-0.141602	0.163574	0.966797	28.139999	-19.460001	-1.470000	453.00	-0.27	-0.08
0.86	7.75	8.00	8.75	9.25	8.75	12.00	1.50	9.50	3.00	2.50	2.50	5.50	10.00	2.00	1.50	1.75	-0.150391	0.096191	0.962891	-4.060000	4.620000	1.120000	1120.00	-0.08	-0.14	8.00	6.50	7.50	7.50	3.25	4.50	0.25	1.25	0.00	0.00	0.00	0.00	0.75	0.50	0.00	0.00	-0.147949	0.189453	0.976562	25.620001	-19.670000	-1.540000	467.00	-0.27	-0.07
0.87	7.50	8.00	8.50	9.25	8.75	12.00	1.50	9.50	2.75	2.25	2.25	5.25	10.00	1.75	1.75	1.75	-0.158203	0.095703	0.959473	-4.340000	4.340000	1.120000	1103.00	-0.08	-0.15	8.25	7.00	7.50	7.75	3.00	4.50	0.25	1.25	0.00	0.00	0.00	0.00	0.25	0.25	0.00	0.00	-0.124023	0.163086	0.937012	22.820000	-18.549999	-1.400000	467.00	-0.28	-0.07
0.88	7.75	8.25	8.50	9.50	8.75	12.00	1.50	9.25	2.75	2.25	2.25	5.25	9.75	1.75	1.50	1.50	-0.153809	0.098633	0.959961	-4.480000	3.920000	1.120000	1100.00	-0.09	-0.15	9.25	7.75	7.50	8.00	3.00	4.25	0.25	1.00	0.00	0.00	0.00	0.00	0.00	0.25	0.00	0.00	-0.124512	0.184570	0.930664	18.690001	-15.960000	-1.470000	480.00	-0.29	-0.07
0.89	8.25	8.25	8.75	9.75	8.75	12.00	1.25	9.25	2.75	2.25	2.00	5.25	9.50	1.75	1.50	1.75	-0.159180	0.097656	0.966797	-3.990000	2.660000	1.540000	1104.00	-0.09	-0.14	9.75	8.00	7.75	8.00	3.00	4.50	0.25	1.00	0.00	0.00	0.00	0.00	0.25	0.00	0.00	0.00	-0.128418	0.184570	0.930176	14.560000	-13.370000	-1.680000	494.00	-0.29	-0.07
0.90	8.25	8.25	9.00	9.75	9.00	12.00	1.25	9.25	2.75	2.00	2.25	5.00	9.25	1.75	1.50	1.50	-0.154297	0.094727	0.965332	-3.780000	2.100000	1.610000	1104.00	-0.10	-0.14	10.25	8.50	8.00	8.00	2.75	4.25	0.00	0.75	0.00	0.00	0.00	0.00	0.50	0.25	0.00	0.00	-0.118652	0.188477	0.932617	11.270000	-11.270000	-1.680000	498.00	-0.29	-0.07
0.91	8.50	8.50	9.00	9.75	9.00	12.00	1.25	9.00	2.50	2.00	2.25	4.75	9.25	1.75	1.50	1.25	-0.163086	0.076660	0.980957	-3.080000	1.260000	1.820000	1097.00	-0.10	-0.14	10.50	8.75	8.00	8.25	2.75	4.25	0.00	0.75	0.00	0.00	0.00	0.00	0.25	0.00	0.00	0.00	-0.123047	0.190430	0.940918	8.540000	-9.170000	-1.540000	502.00	-0.30	-0.07
0.92	8.50	8.75	9.25	10.00	9.25	12.00	1.25	9.00	3.00	2.00	1.75	4.25	8.75	1.50	1.50	1.25	-0.157227	0.094238	0.970703	-2.100000	0.350000	2.030000	1097.00	-0.11	-0.14	11.00	9.00	8.00	8.25	2.75	4.25	0.25	0.50	0.00	0.00	0.00	0.00	0.25	0.25	0.00	0.00	-0.125488	0.181641	0.945801	6.440000	-7.840000	-0.560000	512.00	-0.30	-0.06
0.93	9.00	9.00	9.50	10.25	9.25	12.00	1.25	9.00	2.25	1.75	1.75	4.00	8.50	1.50	1.25	1.25	-0.154785	0.097168	0.971191	-1.050000	-0.560000	2.520000	1090.00	-0.12	-0.14	11.50	9.25	8.50	8.50	2.75	4.25	0.00	0.50	0.00	0.00	0.00	0.00	0.25	0.00	0.00	0.00	-0.118164	0.198730	0.932129	4.340000	-6.230000	-0.700000	523.00	-0.31	-0.06
0.94	9.50	9.25	9.50	10.50	9.25	12.25	1.25	8.75	2.25	1.50	1.50	3.50	8.25	1.25	1.25	1.00	-0.159668	0.090332	0.988770	1.470000	-1.820000	2.940000	1082.00	-0.12	-0.14	11.75	9.50	8.50	8.50	2.75	4.00	0.00	0.75	0.00	0.00	0.00	0.00	0.50	0.25	0.00	0.00	-0.116211	0.198730	0.940918	1.820000	-4.130000	-0.350000	534.00	-0.30	-0.06
0.95	10.00	9.75	9.75	10.50	9.25	12.25	1.00	8.75	1.75	1.25	1.50	3.25	8.00	1.50	1.50	1.25	-0.144531	0.093262	0.974609	5.250000	-4.200000	2.800000	1083.00	-0.13	-0.14	12.25	9.75	8.75	8.75	2.75	4.25	0.00	0.50	0.00	0.00	0.00	0.00	0.00	0.00	0.00	0.00	-0.115723	0.189453	0.938477	-0.070000	-2.450000	0.210000	540.00	-0.31	-0.06
0.96	10.75	10.25	10.25	11.00	9.25	12.50	1.00	8.50	2.00	1.25	1.25	2.75	7.75	1.25	1.25	1.00	-0.149414	0.097656	0.976074	7.980000	-5.670000	2.800000	1093.00	-0.14	-0.13	12.50	9.50	8.50	9.00	3.00	4.00	0.00	0.50	0.00	0.00	0.00	0.00	0.00	0.00	0.00	0.00	-0.118164	0.191895	0.943848	-2.030000	-0.630000	0.280000	541.00	-0.31	-0.05
0.97	11.75	11.00	10.50	11.25	9.25	12.50	0.75	8.50	1.75	1.00	1.00	2.50	7.50	1.00	1.00	0.75	-0.171387	0.099609	0.977051	10.710000	-7.280000	2.380000	1093.00	-0.16	-0.13	12.50	9.75	8.75	9.00	2.75	4.25	0.00	0.50	0.00	0.00	0.00	0.00	0.00	0.00	0.00	0.00	-0.119629	0.187012	0.944824	-3.360000	0.770000	0.490000	546.00	-0.31	-0.06
0.98	12.00	11.50	10.75	11.75	9.25	12.50	0.75	8.25	2.00	0.75	0.75	1.75	6.75	1.00	1.00	0.75	-0.168945	0.096680	1.016113	16.170000	-10.360000	2.100000	1088.00	-0.16	-0.13	13.25	9.75	9.00	9.00	2.75	4.25	0.00	0.75	0.00	0.00	0.00	0.00	0.00	0.25	0.00	0.00	-0.122559	0.184082	0.962891	-3.430000	1.190000	0.490000	564.00	-0.31	-0.05
0.99	13.00	12.00	11.00	11.75	9.00	12.50	0.75	8.00	1.50	0.75	0.75	2.00	6.50	1.00	1.00	0.75	-0.148926	0.091797	1.008301	25.969999	-14.630000	2.800000	1093.00	-0.17	-0.13	13.00	10.25	9.00	9.00	2.75	4.25	0.00	1.00	0.00	0.00	0.00	0.00	0.00	0.00	0.00	0.00	-0.119629	0.186523	0.952148	-3.430000	1.400000	0.210000	568.00	-0.31	-0.06
1.00	14.00	12.50	11.00	12.00	9.00	12.50	0.50	7.75	1.50	0.75	0.75	2.00	6.00	1.25	1.00	0.75	-0.132324	0.103516	0.990234	34.860001	-18.830000	2.870000	1102.00	-0.18	-0.12	12.75	10.25	8.75	9.00	2.75	4.25	0.00	0.50	0.00	0.00	0.00	0.00	0.25	0.00	0.00	0.00	-0.119629	0.188477	0.952148	-3.640000	2.100000	0.280000	556.00	-0.31	-0.06
1.01	14.50	13.50	11.25	12.25	8.75	12.50	0.75	7.75	1.50	0.50	0.75	2.25	5.25	1.00	1.00	0.50	-0.114258	0.095215	0.962402	38.220001	-19.950001	1.610000	1114.00	-0.18	-0.12	12.75	10.25	9.25	9.25	2.75	4.50	0.00	0.50	0.00	0.00	0.00	0.00	0.25	0.00	0.00	0.00	-0.123535	0.184570	0.962402	-3.640000	2.520000	0.420000	568.00	-0.31	-0.06
1.02	12.50	12.00	10.00	10.75	7.75	11.00	0.25	7.25	1.25	0.00	0.25	2.00	5.00	1.00	1.00	0.50	-0.119141	0.144531	0.978027	36.540001	-23.030001	1.960000	977.00	-0.19	-0.13	13.75	10.25	9.00	9.50	2.75	4.75	0.25	0.50	0.00	0.00	0.00	0.00	0.25	0.00	0.00	0.00	-0.126465	0.177246	0.970215	-3.430000	2.450000	0.350000	587.00	-0.31	-0.06
1.03	10.75	13.25	9.75	10.50	7.75	11.75	0.25	6.25	0.00	0.00	0.25	1.25	4.25	1.00	1.00	0.50	-0.097168	0.145020	0.926270	34.299999	-18.830000	3.290000	922.00	-0.20	-0.13	13.25	10.25	9.00	9.50	3.00	4.75	0.00	0.75	0.00	0.00	0.00	0.00	0.25	0.25	0.00	0.00	-0.126953	0.185547	0.957520	-3.010000	2.030000	0.350000	587.00	-0.30	-0.06
1.04	16.75	15.00	11.75	12.50	8.75	13.25	0.50	7.50	1.00	0.50	0.25	1.50	4.50	1.25	1.00	0.75	-0.091797	0.151367	0.928711	29.190001	-16.520000	2.870000	1140.00	-0.20	-0.11	13.75	10.75	9.00	9.50	2.75	5.00	0.00	1.00	0.00	0.00	0.00	0.00	0.00	0.00	0.00	0.00	-0.121582	0.185059	0.948730	-3.500000	2.660000	0.280000	597.00	-0.31	-0.06
1.05	14.50	13.75	10.75	11.75	8.50	12.25	0.25	6.75	1.00	0.25	0.25	1.25	3.75	1.00	0.75	0.50	-0.080078	0.153320	0.918457	23.799999	-13.720000	2.240000	1029.00	-0.21	-0.12	14.00	10.50	9.50	9.75	3.00	5.00	0.00	1.00	0.00	0.00	0.00	0.00	0.00	0.00	0.00	0.00	-0.124512	0.183105	0.965820	-3.850000	2.730000	0.420000	609.00	-0.31	-0.06
1.06	15.50	14.25	11.00	12.00	8.25	12.50	0.25	6.75	1.25	0.00	0.00	1.25	3.50	1.00	1.00	0.50	-0.077148	0.163086	0.915527	18.059999	-10.150000	1.750000	1050.00	-0.21	-0.11	13.75	11.25	9.25	9.75	3.00	5.00	0.00	1.00	0.00	0.00	0.00	0.00	0.25	0.25	0.00	0.00	-0.129883	0.182617	0.962402	-3.780000	2.310000	0.350000	615.00	-0.30	-0.06
1.07	14.50	13.50	10.00	11.25	7.50	11.50	0.25	6.00	0.00	0.00	0.00	0.50	1.50	0.00	0.00	0.00	-0.091797	0.164062	0.938965	12.600000	-7.420000	1.540000	908.00	-0.25	-0.11	14.50	11.25	9.25	10.00	3.00	5.00	0.25	1.00	0.00	0.00	0.00	0.00	0.50	0.25	0.00	0.00	-0.125488	0.185547	0.953613	-4.060000	2.380000	0.070000	633.00	-0.30	-0.06
1.08	13.25	13.00	9.75	10.75	7.75	11.50	0.25	5.75	0.75	0.00	0.00	0.75	2.00	0.25	0.25	0.25	-0.087402	0.168945	0.915527	7.140000	-5.880000	1.820000	903.00	-0.23	-0.11	14.00	11.25	9.50	9.75	3.00	5.25	0.25	1.25	0.00	0.00	0.00	0.00	0.00	0.75	0.00	0.00	-0.126465	0.189941	0.948730	-4.970000	2.800000	0.070000	635.00	-0.29	-0.06
1.09	15.00	15.50	11.25	12.00	7.75	12.50	0.25	5.50	0.50	0.00	0.00	1.00	2.00	0.50	0.50	0.00	-0.069336	0.164062	0.898438	1.400000	-2.170000	1.820000	992.00	-0.24	-0.11	14.00	11.25	9.50	10.00	3.00	5.25	0.00	1.25	0.00	0.00	0.00	0.00	0.50	0.25	0.00	0.00	-0.131348	0.187500	0.949219	-6.650000	3.500000	0.140000	634.00	-0.30	-0.07
1.10	14.00	13.50	10.25	11.00	7.75	11.25	0.25	5.50	0.50	0.00	0.00	0.75	1.75	0.00	0.00	0.00	-0.075684	0.157715	0.905762	-4.130000	2.520000	1.330000	906.00	-0.24	-0.11	14.25	11.25	9.50	10.50	3.00	5.75	0.25	1.50	0.00	0.00	0.00	0.00	0.50	0.25	0.00	0.00	-0.122070	0.185547	0.950684	-8.120000	3.850000	0.280000	657.00	-0.29	-0.07
1.11	13.75	13.50	10.00	11.00	7.50	11.25	0.25	5.25	0.25	0.00	0.00	0.75	1.75	0.25	0.25	0.25	-0.079102	0.169434	0.922852	-8.540000	6.930000	0.840000	896.00	-0.24	-0.11	14.00	11.75	9.75	10.50	3.25	6.00	0.25	1.50	0.00	0.00	0.00	0.00	0.25	0.00	0.00	0.00	-0.114746	0.187012	0.925293	-10.220000	4.900000	0.140000	663.00	-0.30	-0.07
1.12	14.00	13.25	10.00	11.00	7.50	11.00	0.25	5.25	0.75	0.00	0.00	0.50	2.00	0.25	0.25	0.00	-0.096191	0.157715	0.949219	-10.500000	9.170000	0.770000	899.00	-0.24	-0.11	14.75	11.75	9.75	10.75	3.50	6.25	0.25	1.75	0.00	0.00	0.00	0.00	0.75	0.25	0.00	0.00	-0.116211	0.181641	0.927246	-13.440001	6.930000	-0.070000	692.00	-0.29	-0.07
1.13	13.75	13.25	10.00	10.75	7.50	11.00	0.25	5.00	0.75	0.00	0.00	0.50	1.00	0.25	0.25	0.25	-0.098633	0.148926	0.940430	-11.130000	10.150000	0.770000	881.00	-0.24	-0.10	14.75	11.75	10.00	11.00	3.50	6.50	0.25	2.00	0.00	0.00	0.00	0.00	0.75	0.25	0.00	0.00	-0.117676	0.173340	0.935059	-16.870001	9.170000	-0.280000	705.00	-0.29	-0.08
1.14	13.75	13.25	9.75	10.75	7.50	10.75	0.25	4.75	0.50	0.00	0.00	0.50	1.50	0.25	0.50	0.25	-0.095703	0.150391	0.943848	-11.620000	11.550000	0.560000	875.00	-0.24	-0.10	15.00	11.75	10.00	10.75	3.50	6.75	0.25	2.25	0.00	0.00	0.00	0.00	1.50	0.25	0.00	0.00	-0.128418	0.176758	0.961914	-19.670000	10.010000	-0.420000	719.00	-0.28	-0.08
1.15	13.75	13.00	9.75	10.75	7.50	10.75	0.25	4.75	0.50	0.00	0.00	0.75	1.50	0.25	0.50	0.25	-0.104004	0.152832	0.971191	-11.270000	12.320000	0.630000	875.00	-0.24	-0.10	15.00	11.75	10.25	11.00	3.75	7.25	0.25	2.50	0.00	0.00	0.00	0.00	1.50	0.50	0.00	0.00	-0.124023	0.170898	0.959961	-21.770000	9.940000	-0.420000	741.00	-0.27	-0.08
1.16	13.25	13.25	10.00	10.75	7.50	10.75	0.25	5.00	0.50	0.00	0.00	0.50	1.50	0.25	0.50	0.00	-0.104492	0.147949	0.962891	-10.360000	11.830000	0.700000	875.00	-0.24	-0.10	14.75	12.00	10.25	11.50	4.25	7.50	0.25	2.75	0.00	0.25	0.00	0.00	1.75	0.50	0.00	0.00	-0.135254	0.164551	0.954590	-25.690001	9.590000	-0.000000	765.00	-0.27	-0.09
1.17	13.50	13.25	10.00	10.75	7.25	10.75	0.25	5.25	1.25	0.25	0.25	1.25	3.00	1.00	0.75	0.25	-0.103516	0.149902	0.952637	-9.730000	11.830000	0.560000	929.00	-0.21	-0.11	14.75	12.00	10.75	11.50	4.50	8.00	0.25	3.25	0.00	0.25	0.00	0.00	2.00	0.50	0.00	0.00	-0.146973	0.153809	0.979980	-26.880001	8.330000	0.280000	791.00	-0.26	-0.09
1.18	16.25	15.75	12.00	12.75	8.25	11.00	0.25	5.00	1.50	0.25	0.25	0.50	1.50	0.25	0.25	0.25	-0.112793	0.147461	0.969727	-9.030000	11.830000	0.490000	1013.00	-0.24	-0.09	15.75	12.50	10.75	12.00	5.00	8.25	0.25	3.50	0.00	0.50	0.25	0.00	2.75	0.50	0.00	0.00	-0.151367	0.148438	0.969727	-25.969999	5.670000	0.350000	839.00	-0.26	-0.09
1.19	18.50	16.25	11.75	12.75	8.25	12.00	0.25	5.00	0.75	0.00	0.00	0.50	1.25	0.50	0.00	0.25	-0.106445	0.140137	0.958008	-8.680000	11.200000	0.490000	1033.00	-0.25	-0.09	15.50	13.00	11.00	12.25	5.75	8.75	0.50	4.00	0.00	0.50	0.25	0.00	2.75	0.50	0.00	0.00	-0.150391	0.150391	0.972656	-24.150000	3.080000	0.840000	874.00	-0.25	-0.10
1.20	13.50	13.25	10.00	10.75	7.50	10.75	0.25	4.50	0.25	0.00	0.00	0.50	1.25	0.50	0.50	0.00	-0.106445	0.147461	0.947754	-9.030000	11.340000	0.420000	866.00	-0.24	-0.10	16.50	13.25	11.25	13.00	6.25	9.00	0.50	5.00	0.00	0.50	0.25	0.00	3.25	0.75	0.25	0.00	-0.138184	0.148438	0.972168	-22.330000	1.470000	1.120000	936.00	-0.24	-0.10
1.21	13.75	13.00	10.00	11.00	7.75	10.75	0.25	5.00	1.00	0.00	0.25	1.00	2.75	1.00	1.00	0.50	-0.106934	0.145020	0.940430	-9.870000	12.180000	0.210000	927.00	-0.21	-0.10	16.50	15.50	13.25	15.75	7.50	10.50	0.50	5.50	0.25	0.50	0.25	0.25	3.50	0.75	0.50	0.00	-0.136719	0.143555	0.979492	-19.950001	0.280000	1.400000	1069.00	-0.24	-0.10
1.22	15.75	14.25	10.50	11.00	7.50	10.75	0.25	3.75	0.25	0.25	0.25	1.25	2.00	0.00	0.00	0.00	-0.098145	0.146484	0.928223	-11.270000	13.650000	0.070000	909.00	-0.25	-0.10	16.75	14.25	12.00	13.75	7.00	9.50	0.75	5.75	1.00	1.00	1.00	1.50	5.75	2.00	1.50	0.75	-0.145508	0.140625	0.982910	-16.170000	-1.260000	1.890000	1098.00	-0.19	-0.10
1.23	15.00	13.25	10.25	11.00	7.50	10.75	0.25	4.25	0.00	0.00	0.00	0.75	2.75	1.00	0.50	0.00	-0.103027	0.145508	0.917480	-13.300000	16.100000	-0.070000	902.00	-0.24	-0.10	22.00	19.25	15.00	16.50	8.50	12.00	0.50	7.00	1.50	1.50	1.00	1.50	6.00	2.25	1.75	0.75	-0.128418	0.148438	0.967773	-13.300000	-2.030000	2.310000	1362.00	-0.20	-0.10
1.24	14.75	13.25	10.25	11.00	7.50	10.75	0.25	4.50	0.00	0.00	0.00	0.00	1.50	0.00	0.00	0.00	-0.091309	0.137207	0.898926	-16.590000	19.740000	0.000000	868.00	-0.26	-0.10	22.75	19.50	15.25	17.00	8.75	12.75	0.75	7.50	1.75	1.75	1.50	1.50	6.25	2.25	1.75	1.00	-0.125977	0.141602	0.969727	-12.670000	-1.330000	2.450000	1423.00	-0.20	-0.10
1.25	14.00	12.75	10.00	10.50	8.25	12.25	0.50	6.00	1.25	0.50	0.50	0.75	3.50	1.25	1.25	0.75	-0.076660	0.138184	0.872559	-21.490000	25.129999	-0.490000	989.00	-0.20	-0.11	23.25	20.00	15.25	17.00	9.00	13.25	0.75	7.50	2.00	1.75	1.50	1.50	6.75	2.25	2.00	1.00	-0.132324	0.142578	0.975586	-11.690000	-0.770000	2.380000	1454.00	-0.20	-0.10
1.26	16.75	14.25	11.25	11.75	8.50	12.25	0.50	6.25	1.50	0.75	0.50	1.00	3.25	0.00	0.00	0.25	-0.068848	0.126465	0.857910	-27.440001	32.410000	-1.260000	1051.00	-0.22	-0.10	22.75	20.00	15.75	17.50	9.50	13.50	1.00	8.00	1.75	2.00	1.50	1.75	6.75	2.50	2.00	1.00	-0.128418	0.147949	0.965820	-10.850000	0.140000	2.240000	1486.00	-0.19	-0.10
1.27	12.00	10.25	8.75	9.75	7.50	10.50	0.25	6.00	1.00	0.75	0.75	1.25	4.25	1.25	1.00	0.50	-0.114746	0.106445	1.090332	-35.560001	39.830002	-2.590000	894.00	-0.18	-0.12	23.25	20.50	15.75	18.00	10.00	14.00	1.00	8.00	1.75	2.00	1.50	2.00	7.50	2.50	2.00	1.00	-0.130859	0.137207	0.973633	-10.920000	0.980000	1.960000	1524.00	-0.19	-0.10
1.28	14.00	12.75	10.75	11.50	8.50	12.50	0.75	7.50	1.50	1.00	0.75	1.50	5.00	1.00	1.25	0.75	-0.129883	0.132812	1.017090	-38.430000	32.130001	-3.360000	1078.00	-0.18	-0.12	23.50	20.50	15.50	18.25	10.00	14.50	1.00	8.25	2.00	2.25	1.75	2.00	7.75	2.50	2.00	1.00	-0.129395	0.136719	0.968262	-9.800000	0.630000	1.120000	1549.00	-0.19	-0.10
1.29	13.00	12.00	10.25	11.00	8.50	12.25	0.75	7.75	2.00	1.25	1.25	1.75	5.75	1.25	1.25	0.75	-0.105957	0.107422	0.948730	-32.759998	30.450001	-3.010000	1076.00	-0.16	-0.12	23.25	20.25	16.25	18.00	10.25	14.50	1.25	8.25	1.75	2.50	1.50	2.25	7.75	2.75	2.00	1.00	-0.131348	0.135254	0.967285	-9.380000	0.490000	1.050000	1559.00	-0.19	-0.10
1.30	12.00	10.75	9.50	10.50	8.25	12.25	0.75	8.00	2.00	1.25	1.25	2.00	6.75	1.50	1.50	1.00	-0.153809	0.086914	1.111816	-26.740000	33.389999	-3.710000	1057.00	-0.15	-0.13	23.50	20.25	16.00	18.00	10.75	15.00	1.25	8.50	2.00	2.25	1.75	2.25	8.25	2.75	2.00	1.00	-0.119629	0.140137	0.969727	-8.820000	0.840000	0.980000	1583.00	-0.18	-0.10
1.31	9.75	9.50	9.00	9.75	7.75	11.75	0.75	8.25	1.75	1.75	2.00	2.50	7.75	0.75	1.50	1.00	-0.172852	0.103027	1.020996	-12.740000	29.049999	-4.130000	1015.00	-0.13	-0.14	23.00	20.00	16.00	18.00	11.00	15.00	1.25	8.50	2.00	2.25	1.75	2.25	8.50	2.75	2.25	1.25	-0.114746	0.135742	0.961426	-9.030000	1.680000	0.770000	1584.00	-0.18	-0.10
1.32	7.75	7.75	8.00	9.00	7.00	11.25	0.75	8.50	2.25	1.75	1.75	3.00	8.75	0.50	0.25	0.25	-0.121094	0.098633	1.005371	-1.470000	29.750000	-4.130000	941.00	-0.12	-0.15	23.50	20.00	16.00	18.00	11.25	15.25	1.25	8.75	2.25	2.25	2.00	2.25	9.00	3.00	2.00	1.50	-0.127441	0.130371	0.961914	-9.170000	2.170000	0.420000	1612.00	-0.18	-0.10
1.33	5.75	6.50	6.50	7.75	5.25	9.50	0.50	8.00	0.75	0.75	1.00	2.50	8.50	0.25	0.50	0.75	-0.135742	0.147461	1.016113	15.890000	35.980000	-6.510000	772.00	-0.12	-0.18	22.75	19.50	15.75	17.75	11.50	15.00	1.25	8.75	2.25	2.25	2.00	2.50	9.25	3.00	2.00	1.50	-0.125977	0.130371	0.962402	-8.260000	2.590000	0.280000	1598.00	-0.17	-0.11
1.34	5.25	5.75	5.50	7.00	3.75	8.75	0.25	8.25	0.75	0.75	1.50	3.25	9.25	0.25	0.75	1.50	0.059570	0.170898	1.167480	23.520000	44.170002	-12.110000	740.00	-0.10	-0.20	22.25	19.00	15.50	17.50	11.75	15.25	1.25	9.00	2.50	2.50	2.00	3.00	9.50	3.50	2.25	1.25	-0.121094	0.139160	0.958008	-7.770000	3.290000	-0.070000	1612.00	-0.17	-0.11
1.35	4.25	5.00	4.50	5.75	2.25	7.75	0.25	7.75	1.50	1.25	1.75	4.00	9.75	0.50	0.75	1.50	-0.232910	0.228027	1.183105	42.000000	56.700001	-16.590000	691.00	-0.07	-0.20	21.25	18.75	15.25	17.25	11.75	15.25	1.25	9.00	2.50	2.75	2.25	3.25	10.00	3.25	2.50	1.75	-0.125000	0.132324	0.964355	-7.210000	4.200000	-0.350000	1609.00	-0.16	-0.11
1.36	5.00	5.50	5.25	6.25	2.50	8.00	0.25	7.75	2.25	2.00	3.25	7.00	11.00	1.75	2.50	3.25	-0.120605	0.268555	1.120605	77.629997	85.470001	-24.290001	850.00	-0.03	-0.19	20.25	18.00	15.00	17.00	12.00	15.00	1.50	9.25	2.50	2.75	2.25	3.50	10.50	3.50	2.75	1.75	-0.124023	0.127930	0.958496	-6.510000	5.040000	-0.560000	1605.00	-0.15	-0.11
1.37	2.00	4.75	3.00	5.75	2.00	7.00	0.25	6.75	2.00	1.75	3.50	7.00	10.75	1.75	2.50	4.00	-0.300781	0.091797	1.478516	119.559998	176.680008	-28.770000	739.00	0.01	-0.21	19.75	17.50	14.75	16.50	12.00	15.00	1.50	9.25	2.50	3.00	2.50	3.75	10.75	3.50	2.75	1.75	-0.126465	0.129395	0.961426	-6.230000	6.020000	-0.770000	1596.00	-0.15	-0.11
1.38	3.75	5.00	4.25	5.25	1.50	6.50	0.00	5.75	1.50	1.75	3.00	7.00	10.25	1.75	2.50	4.50	-0.052246	0.495605	1.467773	137.130005	249.479996	-34.860001	723.00	-0.01	-0.20	18.75	16.25	14.25	16.00	12.00	14.75	1.75	9.25	2.50	3.25	2.75	4.00	11.00	3.75	3.00	2.00	-0.128906	0.122070	0.971680	-5.600000	6.860000	-0.700000	1579.00	-0.14	-0.11
1.39	3.00	5.00	3.50	5.00	1.50	5.75	0.00	4.50	1.25	1.50	3.25	6.75	9.25	1.25	2.50	4.00	-0.316895	0.302734	1.303223	130.690002	297.149994	-37.799999	650.00	-0.01	-0.20	17.75	15.50	14.00	15.75	12.00	14.50	1.75	9.25	3.00	3.25	3.00	4.50	11.25	4.00	3.00	2.00	-0.127930	0.127930	0.967285	-4.830000	7.560000	-0.420000	1571.00	-0.13	-0.11
1.40	3.25	4.50	3.50	4.75	1.25	5.25	0.00	3.25	1.00	1.25	3.00	6.25	8.50	1.75	2.50	4.00	-0.299316	0.309082	1.965820	129.500000	336.279999	-42.630001	597.00	-0.01	-0.19	16.75	14.75	13.50	15.25	11.75	14.50	2.00	9.50	3.25	3.25	3.00	5.00	11.50	4.50	3.25	2.50	-0.131348	0.130859	0.955566	-4.550000	8.750000	-0.140000	1568.00	-0.12	-0.11
1.41	3.25	5.00	3.50	4.75	1.00	5.00	0.00	2.50	0.75	1.00	2.50	5.75	7.75	1.25	2.00	3.50	-0.280762	0.218750	1.527832	122.989998	348.040009	-40.110001	545.00	-0.03	-0.19	15.50	14.00	13.00	15.00	12.00	14.50	2.00	9.50	3.25	3.25	3.25	5.25	11.75	4.50	3.50	2.75	-0.131836	0.128418	0.949707	-5.040000	8.890000	-0.210000	1553.00	-0.11	-0.12
1.42	4.75	4.75	3.25	4.25	1.00	4.25	0.00	2.50	0.75	1.00	2.00	4.75	6.25	1.25	2.00	2.50	-0.345703	0.245605	2.024414	123.620003	342.579987	-40.320000	505.00	-0.05	-0.17	14.75	13.00	12.75	14.50	12.00	14.25	2.00	9.50	3.50	3.75	3.50	6.25	12.00	4.75	3.75	2.75	-0.131836	0.130859	0.947754	-5.810000	9.170000	-0.490000	1553.00	-0.10	-0.12
1.43	3.25	3.75	3.50	4.25	1.00	4.25	0.00	2.50	0.50	0.75	1.75	4.50	6.25	0.25	1.50	2.00	-0.301758	0.637695	1.849121	139.020004	323.470001	-38.639999	450.00	-0.06	-0.19	13.75	12.00	12.25	14.25	12.00	14.00	2.25	9.75	3.75	3.75	4.00	7.00	12.25	5.00	3.75	3.25	-0.127441	0.133789	0.954102	-6.440000	9.240000	-0.630000	1554.00	-0.08	-0.12
1.44	3.25	4.25	3.25	4.00	1.25	4.00	0.00	1.00	0.25	0.75	1.75	3.25	3.50	1.00	1.25	1.00	-0.146973	0.874512	1.703125	170.240005	297.850006	-43.400002	379.00	-0.09	-0.15	12.00	10.50	11.75	13.75	12.00	14.00	2.50	9.75	4.00	4.25	4.50	7.50	12.75	5.25	4.25	3.25	-0.131836	0.125488	0.958008	-6.790000	9.240000	-0.770000	1544.00	-0.07	-0.12
1.45	3.00	3.25	3.50	4.25	1.25	3.50	0.00	1.75	1.00	0.75	1.75	3.25	4.25	0.75	1.00	1.00	0.040527	0.480469	1.757324	177.800003	258.440002	-63.560001	391.00	-0.07	-0.15	11.00	9.75	11.50	13.25	11.75	13.75	2.50	9.75	4.50	4.50	5.25	8.00	13.00	5.75	4.75	3.50	-0.132324	0.123535	0.955566	-6.650000	10.010000	-0.770000	1549.00	-0.05	-0.12
1.46	3.25	4.25	3.50	3.75	1.25	3.25	0.00	2.00	1.00	1.00	1.50	3.00	3.00	0.75	1.25	0.75	0.597168	-0.132812	1.038574	137.550003	216.300003	-84.419998	386.00	-0.08	-0.14	9.75	8.75	11.00	12.75	11.75	13.75	2.50	9.75	4.75	5.25	6.00	8.25	13.25	6.00	5.00	4.25	-0.150391	0.125977	0.950195	-6.370000	10.780000	-0.630000	1548.00	-0.04	-0.12
1.47	2.75	4.25	3.25	4.25	1.25	3.50	0.00	1.75	1.25	0.75	1.25	2.50	3.50	1.00	1.00	1.25	2.211914	-0.181152	1.780273	70.489998	160.089996	-94.500000	381.00	-0.08	-0.14	9.25	8.00	10.25	12.25	11.50	13.50	2.75	9.75	5.00	5.50	6.75	8.75	13.50	6.50	5.00	4.50	-0.140137	0.122559	0.962891	-5.110000	11.550000	-0.630000	1547.00	-0.03	-0.12
1.48	3.75	4.00	3.50	4.00	1.00	3.00	0.00	1.75	1.00	0.75	1.50	2.50	3.25	1.00	1.25	0.75	2.317871	0.189453	1.243652	-23.240000	-19.040001	-83.580002	378.00	-0.09	-0.13	8.25	7.50	9.75	11.50	11.50	13.50	2.75	10.00	5.25	6.25	7.75	9.00	14.00	7.25	5.50	4.75	-0.141602	0.112305	0.966797	-3.430000	11.900000	-0.490000	1565.00	-0.01	-0.12
1.49	2.75	3.50	2.50	4.25	1.25	3.00	0.00	1.50	0.75	0.75	1.25	2.00	3.00	1.25	0.75	0.75	1.891602	0.502930	0.855957	-13.790000	-60.549999	-79.309998	333.00	-0.09	-0.14	7.50	6.75	9.00	10.75	11.25	13.25	2.75	10.00	5.50	6.75	8.00	9.25	14.50	7.75	5.75	5.00	-0.137695	0.127441	0.966797	-1.750000	12.670000	-0.280000	1554.00	0.00	-0.12
1.50	3.25	3.50	2.75	3.50	1.25	3.25	0.00	1.50	1.00	1.00	1.25	1.75	3.25	1.00	1.00	0.50	1.876953	0.298828	0.935547	-2.870000	-82.739998	-72.940002	341.00	-0.09	-0.13	7.00	6.50	8.50	10.00	11.00	13.00	2.75	10.00	5.50	7.25	8.25	9.75	14.75	8.25	6.50	5.25	-0.147461	0.117676	0.971191	-0.420000	13.720000	-0.770000	1556.00	0.01	-0.12
1.51	3.00	3.75	3.00	3.25	1.00	2.75	0.00	1.75	1.00	0.75	1.00	2.00	2.50	1.00	1.00	0.50	1.770508	0.334473	1.110840	-9.870000	-112.349998	-58.939999	326.00	-0.09	-0.13	6.50	6.00	8.00	9.25	10.25	12.25	2.75	9.50	5.00	7.00	8.50	10.00	13.75	7.50	5.75	4.50	-0.144531	0.116699	0.975098	1.260000	15.260000	-1.190000	1470.00	0.02	-0.12
1.52	2.75	3.50	3.25	3.25	1.00	3.00	0.00	1.00	1.00	0.50	1.00	2.00	3.50	0.75	1.00	0.75	1.616211	0.340332	1.171875	-22.330000	-146.440002	-42.910000	320.00	-0.09	-0.14	5.75	5.25	7.50	8.75	10.00	12.00	3.00	10.00	6.75	7.75	8.50	9.75	15.00	9.00	7.25	5.50	-0.151367	0.129395	0.964355	2.730000	17.360001	-0.700000	1528.00	0.04	-0.12
1.53	2.75	3.75	2.75	3.25	1.00	3.25	0.00	1.75	1.25	1.00	1.00	1.50	3.00	1.00	1.00	0.50	1.388672	0.346680	1.166016	-28.980000	-178.639999	-31.639999	331.00	-0.09	-0.13	5.50	5.25	7.00	8.25	9.50	11.75	2.75	10.00	7.00	8.25	9.25	10.25	15.25	9.25	7.50	5.25	-0.141113	0.129395	0.967773	3.780000	18.059999	-1.470000	1530.00	0.05	-0.12
1.54	1.75	2.50	2.50	3.25	0.75	2.75	0.00	1.50	1.25	0.75	1.00	1.75	3.00	0.75	0.75	0.75	1.145508	0.321777	1.212891	-28.280001	-206.360001	-26.740000	288.00	-0.06	-0.15	4.25	3.75	5.75	6.50	8.00	9.75	2.75	9.75	7.25	8.50	9.75	11.25	14.75	10.00	7.75	6.75	-0.150391	0.128418	0.965332	4.130000	19.670000	-2.030000	1456.00	0.08	-0.12
1.55	2.75	3.00	2.75	3.25	1.00	3.25	0.00	1.50	1.25	0.75	0.50	1.75	1.50	0.75	1.25	1.00	0.914551	0.285156	1.272461	-24.990000	-230.790009	-24.780001	303.00	-0.09	-0.12	1.50	1.75	5.00	6.00	8.00	9.00	2.50	9.50	6.75	8.50	10.25	11.25	15.50	10.25	7.75	7.00	-0.157715	0.127441	0.974609	4.480000	22.469999	-1.960000	1382.00	0.10	-0.13
1.56	3.25	3.50	2.75	3.25	1.00	3.00	0.00	1.75	1.25	0.50	0.75	1.50	2.00	1.00	1.00	0.25	0.675293	0.258301	1.343750	-23.379999	-252.770004	-24.010000	312.00	-0.11	-0.12	1.50	3.00	4.75	5.00	7.50	9.75	2.25	9.25	7.00	8.25	10.00	11.75	16.75	10.50	8.00	6.75	-0.157715	0.131836	0.971191	4.550000	24.990000	-1.330000	1393.00	0.10	-0.13
1.57	2.25	3.00	2.25	3.50	0.75	3.00	0.00	1.75	1.50	1.00	1.00	1.50	2.50	1.25	1.00	0.25	0.448730	0.261230	1.390137	-22.750000	-271.880005	-23.379999	309.00	-0.07	-0.13	1.00	1.00	2.00	3.75	5.50	7.75	2.00	8.75	7.00	8.50	10.00	11.50	16.00	11.25	8.50	7.75	-0.158691	0.128418	0.971191	5.110000	28.910000	-1.750000	1270.00	0.14	-0.13
1.58	2.50	3.50	2.25	3.25	1.00	3.25	0.00	2.25	1.00	1.00	0.75	1.00	1.50	1.00	1.00	0.50	0.246094	0.283203	1.418945	-19.460001	-286.510010	-22.469999	302.00	-0.10	-0.13	1.50	1.25	2.50	3.25	4.75	7.25	1.75	8.75	7.25	8.75	10.50	11.75	16.25	12.25	8.25	7.50	-0.178711	0.130371	0.994141	6.930000	33.599998	-1.610000	1282.00	0.14	-0.13
1.59	3.00	3.50	2.50	2.75	1.00	3.00	0.00	1.50	1.50	0.75	0.50	1.00	2.00	1.00	1.00	0.25	0.040527	0.309082	1.444336	-13.230000	-296.100006	-21.070000	294.00	-0.10	-0.11	1.25	0.50	1.75	3.00	4.00	6.50	1.50	8.25	7.75	9.00	11.50	12.75	16.50	13.25	8.75	7.75	-0.187988	0.111816	0.976074	7.840000	39.830002	-1.890000	1281.00	0.16	-0.13
1.60	3.00	2.25	2.75	2.75	1.00	3.00	0.00	1.50	1.50	0.50	0.50	1.00	2.00	1.25	0.75	0.50	-0.141602	0.338379	1.462891	-6.790000	-299.529999	-17.290001	282.00	-0.09	-0.10	1.25	0.75	1.50	2.25	3.00	5.75	1.50	8.25	7.50	9.00	11.25	12.50	16.75	14.50	9.00	8.00	-0.117188	0.193848	1.012695	9.030000	46.759998	-1.400000	1259.00	0.17	-0.13
1.61	2.50	3.00	2.75	2.75	1.00	2.50	0.00	1.00	1.00	0.75	0.75	1.00	2.75	1.25	0.75	0.50	-0.300781	0.403809	1.495605	-5.460000	-297.640015	-8.470000	275.00	-0.09	-0.12	0.75	0.50	1.50	1.50	2.00	5.00	1.00	7.75	7.75	9.25	11.50	12.75	16.75	15.50	9.50	8.25	-0.154785	0.162109	1.054688	11.480000	59.150002	-1.610000	1233.00	0.19	-0.13
1.62	2.75	3.25	2.50	2.75	0.75	2.75	0.00	1.25	1.50	0.75	0.50	1.00	2.25	0.75	1.50	0.25	-0.440918	0.517090	1.539551	-11.550000	-291.059998	8.190000	284.00	-0.09	-0.11	0.75	0.50	1.00	1.50	1.50	4.25	0.75	7.25	7.75	9.25	11.75	12.75	16.50	16.50	9.75	8.50	-0.181152	0.199219	1.057617	15.960000	76.370003	-4.410000	1214.00	0.20	-0.12
1.63	2.75	3.00	2.75	2.75	1.00	3.25	0.00	1.50	1.50	0.75	0.25	0.50	1.75	0.75	1.00	0.50	-0.720703	0.952148	1.744141	-36.119999	-267.399994	61.880001	280.00	-0.11	-0.11	0.50	0.25	0.75	0.75	1.00	2.75	0.75	6.25	8.00	9.25	12.00	12.75	16.25	17.50	10.00	8.50	-0.148438	0.215332	1.268066	21.629999	99.260002	-9.520000	1172.00	0.22	-0.12
1.64	2.50	3.25	2.50	2.50	1.00	3.00	0.00	2.00	1.50	0.75	0.50	0.75	3.00	1.25	1.00	0.50	-0.875000	1.235840	2.027832	-32.130001	-258.790009	94.290001	301.00	-0.08	-0.13	0.25	0.25	0.75	1.00	0.75	2.00	0.50	5.50	8.25	9.25	12.25	13.00	16.00	18.75	10.50	8.75	-0.225586	0.225586	1.130859	43.540001	149.660004	-17.780001	1170.00	0.23	-0.11
1.65	3.00	3.25	2.75	2.75	1.00	3.00	0.00	1.25	1.25	0.50	0.50	0.75	2.50	0.75	1.00	0.50	-1.205566	1.501953	2.370117	-19.670000	-259.350006	124.529999	285.00	-0.11	-0.12	0.00	0.25	0.50	0.75	0.75	2.00	0.25	4.50	8.00	9.25	12.00	12.75	15.25	19.50	10.75	8.75	-0.222656	0.186035	1.439941	43.610001	184.100006	-21.629999	1133.00	0.24	-0.10
1.66	2.50	2.75	2.75	3.00	1.00	3.00	0.00	1.50	1.25	0.50	0.50	0.75	2.00	0.75	1.00	0.25	-1.695312	1.593750	1.993652	-4.970000	-274.820007	153.509995	275.00	-0.11	-0.12	0.00	0.00	0.25	0.50	0.50	0.75	0.25	3.25	8.00	9.00	12.25	12.75	14.50	20.50	11.00	8.75	-0.315918	0.170898	1.213379	38.779999	215.040009	-25.270000	1091.00	0.26	-0.09
1.67	2.50	3.50	2.75	2.75	1.00	3.00	0.00	1.50	1.25	0.75	0.25	0.75	1.50	1.25	0.75	0.50	-2.116211	1.036133	1.750488	64.540001	-286.720001	176.680008	278.00	-0.11	-0.11	0.00	0.00	0.00	0.25	0.50	0.50	0.00	2.50	8.00	8.75	12.00	12.25	13.50	21.00	11.25	8.75	-0.364746	0.245605	1.281250	37.799999	246.399994	-30.100000	1052.00	0.27	-0.08
1.68	2.75	3.50	2.50	3.00	1.00	3.00	0.00	1.50	1.50	0.50	0.25	1.00	2.25	1.00	0.75	0.50	-2.848145	0.546387	1.381836	122.010002	-278.320007	180.949997	289.00	-0.11	-0.12	0.00	0.00	0.25	0.25	0.25	0.25	0.00	1.50	7.75	8.50	12.00	11.75	12.50	21.75	11.25	8.50	-0.315918	0.448242	1.419922	36.959999	268.309998	-37.170002	1017.00	0.28	-0.07
1.69	2.25	2.00	2.50	2.75	1.00	3.00	0.00	1.50	1.25	0.50	0.25	1.00	2.00	0.75	1.00	0.50	-3.486816	-0.037598	0.670898	121.239998	-246.050003	178.850006	260.00	-0.09	-0.12	0.00	0.00	0.00	0.00	0.25	0.25	0.00	1.00	7.50	8.25	11.75	11.25	11.50	22.00	11.25	8.25	-0.424805	0.241699	1.190430	23.309999	288.750000	-46.200001	979.00	0.29	-0.07
1.70	2.50	3.25	2.75	3.00	1.00	3.00	0.00	1.50	1.75	1.00	0.25	0.25	2.25	1.00	1.00	0.50	-4.007812	-0.375977	-0.012695	79.730003	-195.300003	177.589996	290.00	-0.10	-0.10	0.00	0.00	0.00	0.00	0.25	0.00	0.00	1.00	7.00	8.00	11.50	10.75	10.50	22.00	11.00	7.75	-0.508301	0.307617	1.214844	6.930000	318.570007	-57.540001	942.00	0.29	-0.06
1.71	2.25	3.00	2.75	2.75	0.75	2.50	0.00	1.25	1.00	0.25	0.00	0.50	2.00	0.25	0.00	0.00	-4.301270	-0.553711	-0.456543	27.020000	-129.779999	168.839996	226.00	-0.17	-0.13	0.00	0.00	0.00	0.00	0.00	0.00	0.00	1.00	6.50	7.50	11.25	10.25	9.75	21.75	10.75	7.25	-0.424316	0.286133	1.389160	-7.700000	346.429993	-66.709999	902.00	0.29	-0.06
1.72	0.75	1.25	2.25	2.00	0.75	2.50	0.00	0.75	0.00	0.00	0.00	0.00	0.00	0.00	0.00	0.00	-5.743652	-0.466797	-0.733887	-6.440000	-55.090000	128.169998	124.00	-0.23	-0.13	0.00	0.00	0.00	0.00	0.00	0.00	0.00	0.50	5.75	7.00	10.75	9.50	8.75	21.00	10.25	6.25	-0.600098	0.571777	1.550293	-15.120000	369.040009	-73.989998	835.00	0.30	-0.06
1.73	3.25	4.25	2.75	3.50	1.00	2.50	0.00	1.25	1.75	0.75	0.25	0.25	1.50	1.00	0.75	0.75	-5.766602	-1.133789	-2.337402	-30.030001	73.010002	59.990002	293.00	-0.13	-0.09	0.00	0.00	0.00	0.00	0.00	0.00	0.00	0.50	5.00	6.00	10.00	8.75	7.75	20.25	9.25	5.00	-0.661621	0.444824	1.313965	-6.160000	394.660004	-87.360001	760.00	0.30	-0.05
1.74	2.75	3.25	2.25	2.00	0.25	0.00	0.00	0.00	0.00	0.00	0.00	0.00	0.00	0.00	0.00	0.00	-0.515625	-0.507812	0.174805	-110.250000	248.009995	-3.290000	118.00	-0.34	-0.04	0.00	0.00	0.00	0.00	0.00	0.00	0.00	0.25	3.50	5.00	9.00	7.75	6.75	18.75	8.25	3.00	-0.993164	0.235840	2.012207	-20.299999	417.269989	-101.919998	654.00	0.30	-0.05
1.75	5.25	5.25	3.50	3.25	0.25	0.00	0.00	0.00	0.00	0.00	0.00	0.00	0.00	0.00	0.00	0.00	1.253906	0.072754	2.787109	-151.970001	285.529999	-28.559999	197.00	-0.35	-0.04	0.00	0.00	0.00	0.00	0.00	0.00	0.00	0.25	2.00	3.75	7.75	6.50	5.50	16.50	7.00	1.25	-0.962402	0.386719	2.228516	-35.770000	421.959991	-106.400002	532.00	0.30	-0.05
1.76	6.00	7.75	3.75	5.00	0.50	0.50	0.00	0.00	0.00	0.00	0.00	0.00	0.00	0.00	0.00	0.00	1.094238	0.560059	1.997559	-50.610001	184.660004	11.970000	264.00	-0.35	-0.06	0.00	0.00	0.00	0.00	0.00	0.00	0.00	0.00	1.25	2.75	6.25	5.00	4.00	14.50	5.50	0.00	-0.945801	0.059082	2.307617	1.540000	426.089996	-115.849998	414.00	0.31	-0.04
1.77	8.75	10.25	5.25	5.75	0.25	0.25	0.00	0.00	0.00	0.00	0.00	0.00	0.00	0.00	0.00	0.00	-0.071777	-0.724609	-0.208496	22.960001	135.520004	25.969999	341.00	-0.35	-0.05	0.00	0.00	0.00	0.00	0.00	0.00	0.00	0.00	0.25	2.00	4.50	3.25	2.25	11.50	4.50	0.00	-1.120605	0.796875	2.905762	-3.430000	408.660004	-120.680000	295.00	0.32	-0.03
1.78	10.00	9.75	5.25	7.50	0.50	1.00	0.00	0.00	0.75	0.50	0.25	0.00	0.25	0.00	0.00	0.00	-0.736328	0.396973	3.344727	2.170000	303.309998	-57.119999	405.00	-0.31	-0.05	0.00	0.00	0.00	0.00	0.00	0.00	0.00	0.00	0.25	1.50	3.00	2.00	2.00	8.50	2.75	0.00	-0.459961	0.640137	2.928223	2.590000	392.070007	-139.860001	207.00	0.32	-0.03
1.79	13.25	13.00	7.75	9.00	1.50	5.00	0.00	1.00	0.75	1.00	1.00	1.75	2.00	0.25	0.75	0.50	-0.749023	0.538574	3.546387	11.690000	217.559998	-56.630001	664.00	-0.24	-0.09	0.00	0.00	0.00	0.00	0.00	0.00	0.00	0.00	0.00	1.25	1.75	1.00	1.25	6.00	1.50	0.00	-0.640137	0.805176	2.212891	27.299999	371.000000	-143.500000	130.00	0.32	-0.01
1.80	12.75	12.75	7.75	8.75	2.50	5.75	0.00	1.50	0.75	0.50	0.75	1.25	2.25	0.75	1.00	0.50	-0.583008	0.693848	1.596680	-6.230000	120.540001	-35.630001	678.00	-0.24	-0.09	0.00	0.00	0.00	0.00	0.00	0.00	0.00	0.00	0.00	1.25	1.50	0.75	0.50	2.50	0.75	0.00	0.053223	1.533691	1.459473	35.000000	383.390015	-161.979996	77.00	0.30	-0.03
1.81	13.50	11.75	8.50	9.00	2.50	5.25	0.00	0.75	0.00	0.00	0.00	0.00	0.75	0.00	0.00	0.00	-0.293457	0.472656	1.458496	-36.750000	93.870003	-10.080000	595.00	-0.31	-0.07	0.00	0.00	0.00	0.00	0.00	0.00	0.00	0.00	0.00	0.25	0.50	0.00	0.50	0.75	0.25	0.00	0.612793	1.409180	1.777344	94.430000	296.309998	-173.110001	23.00	0.00	0.00
1.82	11.50	11.00	7.25	9.25	3.00	7.50	0.25	2.00	1.00	0.50	0.75	0.75	0.50	0.00	0.00	0.00	-0.234375	0.058594	1.376953	-31.920000	77.699997	4.620000	645.00	-0.25	-0.09	0.00	0.00	0.00	0.00	0.00	0.00	0.00	0.00	0.00	0.25	0.50	0.00	0.00	0.00	0.00	0.00	3.884277	1.084961	3.196777	153.720001	202.020004	-196.979996	9.00	0.00	0.00
1.83	13.50	13.00	7.75	9.50	3.00	7.50	0.25	2.25	1.25	0.50	0.75	1.25	2.00	0.75	0.75	0.75	-0.014648	-0.101074	0.917969	-23.450001	57.750000	-1.890000	744.00	-0.23	-0.09	0.00	0.00	0.00	0.00	0.00	0.00	0.00	0.00	0.00	0.00	0.25	0.25	0.00	0.00	0.50	0.00	0.742188	1.774414	5.986816	115.709999	15.190001	-174.720001	11.00	0.00	0.00
1.84	13.50	10.75	8.00	8.50	3.00	8.50	0.25	2.00	0.00	1.00	0.25	0.75	1.75	0.50	0.50	0.25	0.026367	0.140137	0.698730	-31.430000	48.439999	-15.330000	686.00	-0.25	-0.09	0.00	0.00	0.00	0.00	0.00	0.00	0.00	0.00	0.00	0.00	0.25	0.00	0.00	0.00	0.00	0.00	2.036133	0.605957	2.968262	64.959999	-161.490005	-130.479996	3.00	0.00	0.00
1.85	14.00	14.25	9.00	10.75	5.25	9.25	0.25	2.75	0.00	0.25	0.00	0.25	3.25	0.00	0.00	0.00	-0.127441	0.416504	0.856445	-61.880001	42.840000	-15.260000	800.00	-0.26	-0.10	0.00	0.00	0.00	0.00	0.00	0.00	0.00	0.00	0.00	0.00	0.00	0.00	0.00	0.00	0.00	0.00	1.813477	0.777832	1.547363	1.400000	-239.889999	-104.580002	0.00	0.00	0.00
1.86	13.00	12.75	8.25	10.00	5.75	9.50	0.50	3.50	0.00	1.00	0.75	1.25	3.75	1.00	0.75	0.25	-0.229980	0.317383	1.035156	-83.300003	40.950001	-6.370000	834.00	-0.21	-0.11	0.00	0.00	0.00	0.00	0.00	0.00	0.00	0.00	0.00	0.00	0.00	0.00	0.00	0.00	0.00	0.00	1.328613	1.010254	1.256348	-29.400000	-255.220001	-95.340004	0.00	0.00	0.00
1.87	14.00	14.25	9.25	10.25	6.25	9.50	0.25	4.00	0.00	0.00	0.00	0.25	2.50	0.00	0.25	0.00	-0.145020	0.122559	1.051270	-90.090004	36.959999	-4.130000	826.00	-0.25	-0.11	0.00	0.00	0.00	0.00	0.00	0.00	0.00	0.00	0.00	0.00	0.00	0.00	0.00	0.00	0.00	0.00	1.216309	1.359375	1.231445	1.680000	-255.430008	-91.209999	0.00	0.00	0.00
1.88	13.25	13.75	10.50	11.50	7.50	11.25	0.75	6.50	1.50	1.25	0.75	1.00	4.00	0.75	1.00	0.50	-0.157227	0.061523	1.059082	-83.580002	32.549999	-6.370000	1014.00	-0.19	-0.11	0.00	0.00	0.00	0.00	0.00	0.00	0.00	0.00	0.00	0.00	0.00	0.00	0.00	0.00	0.00	0.00	1.019043	0.983398	1.398926	92.400002	-287.559998	-70.980003	0.00	0.00	0.00
1.89	14.00	13.75	9.75	11.00	7.25	9.75	0.50	6.00	0.00	1.00	0.25	0.25	2.50	0.00	0.00	0.00	-0.187012	0.147461	1.124512	-69.019997	19.250000	-6.090000	900.00	-0.24	-0.11	0.00	0.00	0.00	0.00	0.00	0.00	0.00	0.00	0.00	0.00	0.00	0.00	0.00	0.00	0.00	0.00	0.921387	0.783203	1.405273	94.849998	-308.700012	-46.480000	0.00	0.00	0.00
1.90	15.25	14.00	10.00	11.00	7.75	11.25	0.50	6.75	2.00	1.25	1.00	1.25	5.00	1.25	1.25	0.75	-0.168945	0.098145	1.020508	-52.220001	12.040000	-3.500000	1061.00	-0.18	-0.11	0.00	0.00	0.00	0.00	0.00	0.00	0.00	0.00	0.00	0.00	0.00	0.00	0.00	0.00	0.00	0.00	0.797852	0.733887	1.416504	74.059998	-327.320007	-17.150000	0.00	0.00	0.00
1.91	18.25	16.00	11.75	12.75	9.50	12.25	0.75	7.50	1.75	1.50	1.25	2.00	5.00	1.25	1.00	0.75	-0.119629	0.061035	0.977539	-40.810001	9.660000	-2.800000	1215.00	-0.19	-0.10	0.00	0.00	0.00	0.00	0.00	0.00	0.00	0.00	0.00	0.00	0.00	0.00	0.00	0.00	0.00	0.00	0.644043	0.770996	1.451660	55.650002	-342.720001	10.220000	0.00	0.00	0.00
1.92	19.00	16.50	12.00	12.50	10.00	12.50	0.75	7.50	0.75	0.50	0.25	0.50	3.75	1.00	0.75	1.00	-0.127441	0.086914	0.963379	-30.660000	7.840000	-2.170000	1168.00	-0.22	-0.10	0.00	0.00	0.00	0.00	0.00	0.00	0.00	0.00	0.00	0.00	0.00	0.00	0.00	0.00	0.00	0.00	0.476074	0.762695	1.501953	58.170002	-357.839996	31.430000	0.00	0.00	0.00
1.93	18.50	16.25	12.00	12.50	10.00	12.50	1.00	8.00	2.00	1.50	1.00	1.25	5.75	1.50	1.25	1.00	-0.150391	0.077637	0.994629	-26.389999	8.890000	-1.190000	1248.00	-0.19	-0.10	0.00	0.00	0.00	0.00	0.00	0.00	0.00	0.00	0.00	0.00	0.00	0.00	0.00	0.00	0.00	0.00	0.295898	0.679199	1.515625	78.750000	-372.260010	45.570000	0.00	0.00	0.00
1.94	18.25	16.50	12.00	12.75	11.00	13.00	1.00	8.25	2.00	2.25	1.00	1.25	5.75	1.50	1.00	1.00	-0.168457	0.071289	1.011719	-19.389999	5.530000	0.070000	1278.00	-0.18	-0.10	0.00	0.00	0.00	0.00	0.00	0.00	0.00	0.00	0.00	0.00	0.00	0.00	0.00	0.00	0.00	0.00	0.101562	0.532715	1.524414	104.090004	-382.690002	53.830002	0.00	0.00	0.00
1.95	18.25	16.00	12.25	12.75	11.50	13.25	1.25	8.25	2.25	2.00	1.50	2.00	6.00	1.50	1.25	1.25	-0.142090	0.081055	0.974609	-14.000000	4.060000	0.630000	1311.00	-0.17	-0.10	0.00	0.00	0.00	0.00	0.00	0.00	0.00	0.00	0.00	0.00	0.00	0.00	0.00	0.00	0.00	0.00	-0.079590	0.395996	1.555176	125.930000	-386.750000	58.170002	0.00	0.00	0.00
1.96	17.75	16.00	12.00	12.75	12.00	13.50	1.25	8.50	2.00	2.00	1.50	2.00	6.25	1.50	1.25	1.00	-0.130371	0.080566	0.984375	-11.830000	4.970000	0.910000	1313.00	-0.17	-0.11	0.00	0.00	0.00	0.00	0.00	0.00	0.00	0.00	0.00	0.00	0.00	0.00	0.00	0.00	0.00	0.00	-0.212402	0.266602	1.609375	141.680008	-385.279999	59.709999	0.00	0.00	0.00
1.97	17.75	15.75	12.00	12.75	12.00	14.00	1.50	8.75	2.50	2.25	1.75	2.00	6.75	1.50	1.25	1.00	-0.141602	0.075684	0.968750	-10.360000	6.650000	0.840000	1342.00	-0.17	-0.11	0.00	0.00	0.00	0.00	0.00	0.00	0.00	0.00	0.00	0.00	0.00	0.00	0.00	0.00	0.00	0.00	-0.335449	0.186523	1.740723	153.089996	-380.799988	58.380001	0.00	0.00	0.00
1.98	17.25	15.50	11.75	12.50	12.25	13.75	1.50	9.00	2.50	2.25	1.75	2.00	7.00	1.75	1.50	1.25	-0.140625	0.082031	0.969238	-8.750000	8.050000	0.910000	1341.00	-0.16	-0.11	0.00	0.00	0.00	0.00	0.00	0.00	0.00	0.00	0.00	0.00	0.00	0.00	0.00	0.00	0.00	0.00	-0.428223	0.145508	1.894043	163.589996	-375.059998	53.480000	0.00	0.00	0.00
1.99	16.75	15.00	11.50	12.50	12.50	13.75	1.50	9.00	2.50	2.50	1.75	2.25	7.50	1.75	1.50	1.25	-0.129395	0.072754	0.978516	-7.700000	9.520000	0.980000	1341.00	-0.16	-0.11	0.00	0.00	0.00	0.00	0.00	0.00	0.00	0.00	0.00	0.00	0.00	0.00	0.00	0.00	0.00	0.00	-0.545410	0.110840	2.031738	174.930008	-369.880005	45.009998	0.00	0.00	0.00
2.00	16.00	14.50	11.50	12.25	12.25	13.75	1.50	9.25	2.75	2.50	2.00	2.50	8.00	1.75	1.50	1.50	-0.127930	0.078125	0.967773	-6.790000	10.710000	0.420000	1341.00	-0.15	-0.11	0.00	0.00	0.00	0.00	0.00	0.00	0.00	0.00	0.00	0.00	0.00	0.00	0.00	0.00	0.00	0.00	-0.991699	0.193359	2.202148	199.500000	-359.170013	25.549999	0.00	0.00	0.00
2.01	15.75	14.25	11.25	12.00	12.25	13.50	2.00	9.25	2.75	2.75	2.00	2.75	8.25	1.75	1.50	1.25	-0.127930	0.090820	0.964355	-6.510000	11.970000	-0.420000	1341.00	-0.14	-0.11	0.00	0.00	0.00	0.00	0.00	0.00	0.00	0.00	0.00	0.00	0.00	0.00	0.00	0.00	0.00	0.00	-1.336914	0.310547	2.191895	196.839996	-346.640015	30.380001	0.00	0.00	0.00
2.02	15.25	13.75	11.00	11.75	12.25	13.25	2.00	9.50	3.00	3.00	2.25	3.00	8.50	2.00	1.50	1.25	-0.133301	0.099609	0.961426	-6.930000	13.160000	-1.540000	1343.00	-0.14	-0.11	0.00	0.00	0.00	0.00	0.00	0.00	0.00	0.00	0.00	0.00	0.00	0.00	0.00	0.00	0.00	0.00	-1.597656	0.577148	2.402344	184.029999	-329.140015	48.720001	0.00	0.00	0.00
2.03	14.25	12.75	10.75	11.50	12.00	13.00	2.25	9.25	3.25	3.25	2.50	3.25	9.00	2.00	1.50	1.50	-0.131836	0.086914	0.961914	-8.120000	14.350000	-2.380000	1327.00	-0.13	-0.11	0.00	0.00	0.00	0.00	0.00	0.00	0.00	0.00	0.00	0.00	0.00	0.00	0.00	0.00	0.00	0.00	-1.798340	0.896973	2.733398	171.850006	-314.440002	77.209999	0.00	0.00	0.00
2.04	13.50	12.25	10.50	11.25	12.00	12.75	2.25	9.50	3.25	3.75	2.75	3.25	9.25	2.25	1.50	1.75	-0.142090	0.088867	0.962402	-9.170000	15.540000	-2.870000	1324.00	-0.12	-0.11	0.00	0.00	0.00	0.00	0.00	0.00	0.00	0.00	0.00	0.00	0.00	0.00	0.00	0.00	0.00	0.00	-2.060059	1.093262	2.837891	169.610001	-309.119995	111.510002	0.00	0.00	0.00
2.05	12.75	11.50	10.00	11.00	11.75	12.75	2.50	9.50	3.25	3.75	2.75	3.75	9.50	2.25	1.50	1.75	-0.158203	0.078125	0.970215	-9.590000	16.590000	-2.590000	1308.00	-0.11	-0.11	0.00	0.00	0.00	0.00	0.00	0.00	0.00	0.00	0.00	0.00	0.00	0.00	0.00	0.00	0.00	0.00	-2.554199	1.028809	2.774414	190.050003	-308.279999	148.889999	0.00	0.00	0.00
2.06	11.50	10.75	9.75	10.75	11.50	12.50	2.50	9.50	4.00	4.25	3.25	4.00	9.75	2.25	1.75	1.75	-0.158203	0.061035	0.959473	-8.050000	16.590000	-2.030000	1304.00	-0.10	-0.11	0.00	0.00	0.00	0.00	0.00	0.00	0.00	0.00	0.00	0.00	0.00	0.00	0.00	0.00	0.00	0.00	-3.087402	0.626465	2.411621	218.960007	-302.329987	183.259995	0.00	0.00	0.00
2.07	10.75	10.25	9.75	10.50	11.25	12.25	2.75	9.50	4.00	4.25	3.25	4.50	10.00	3.00	1.75	2.00	-0.145996	0.069824	0.964355	-4.760000	17.710001	-0.910000	1303.00	-0.09	-0.11	0.00	0.00	0.00	0.00	0.00	0.00	0.00	0.00	0.00	0.00	0.00	0.00	0.00	0.00	0.00	0.00	-3.573242	-0.001953	1.823242	246.259995	-282.170013	217.070007	0.00	0.00	0.00
2.08	9.75	9.75	9.25	10.00	11.00	12.00	2.75	9.50	4.25	4.75	4.00	5.50	10.25	2.50	2.00	2.25	-0.153809	0.072754	0.962891	-4.130000	17.990000	-1.260000	1300.00	-0.07	-0.12	0.00	0.00	0.00	0.00	0.00	0.00	0.00	0.00	0.00	0.00	0.00	0.00	0.00	0.00	0.00	0.00	-4.198242	-0.914551	1.283203	266.420013	-241.430008	255.290009	0.00	0.00	0.00
2.09	9.25	9.25	9.00	9.75	10.75	11.75	2.75	9.75	4.75	4.75	4.50	5.75	10.25	2.75	2.00	2.50	-0.156738	0.077637	0.960938	-3.850000	17.570000	-1.960000	1301.00	-0.06	-0.12	0.00	0.00	0.00	0.00	0.00	0.00	0.00	0.00	0.00	0.00	0.00	0.00	0.00	0.00	0.00	0.00	-4.828125	-1.764648	0.793457	248.850006	-183.470001	294.070007	0.00	0.00	0.00
2.10	8.50	8.50	8.75	9.50	10.50	11.50	2.75	9.50	4.75	5.75	4.75	6.25	10.75	2.75	2.00	2.75	-0.160156	0.084961	0.960449	-3.990000	17.290001	-2.170000	1295.00	-0.05	-0.12	0.00	0.00	0.00	0.00	0.00	0.00	0.00	0.00	0.00	0.00	0.00	0.00	0.00	0.00	0.00	0.00	-5.109863	-2.278809	0.225098	168.490005	-120.540001	313.529999	0.00	0.00	0.00
2.11	8.25	8.00	8.50	9.25	10.25	11.50	3.00	9.50	5.00	6.25	5.25	6.75	11.00	3.00	2.00	3.00	-0.167969	0.070801	0.966309	-3.780000	17.080000	-2.170000	1309.00	-0.04	-0.12	0.00	0.00	0.00	0.00	0.00	0.00	0.00	0.00	0.00	0.00	0.00	0.00	0.00	0.00	0.00	0.00	-5.183594	-2.259277	-0.170410	63.840000	-58.170002	290.220001	0.00	0.00	0.00
2.12	7.50	8.00	8.25	9.00	10.00	11.50	3.00	9.75	5.25	6.75	6.00	7.50	11.50	3.50	2.50	3.50	-0.169434	0.063965	0.941406	-3.710000	16.379999	-1.540000	1340.00	-0.03	-0.12	0.00	0.00	0.00	0.00	0.00	0.00	0.00	0.00	0.00	0.00	0.00	0.00	0.00	0.00	0.00	0.00	-4.159180	-1.209961	-0.086426	-13.300000	53.200001	106.540001	0.00	0.00	0.00
2.13	7.25	7.75	8.00	8.75	10.00	11.25	3.25	9.75	5.50	7.50	6.50	7.75	11.75	3.50	2.50	3.75	-0.168945	0.059570	0.963867	-3.360000	15.820000	-0.910000	1354.00	-0.02	-0.12	0.00	0.00	0.00	0.00	0.00	0.00	0.00	0.00	0.00	0.00	0.00	0.00	0.00	0.00	0.00	0.00	-3.659180	-0.886719	0.348145	24.150000	80.150002	7.210000	0.00	0.00	0.00
2.14	7.00	7.25	7.75	8.50	9.75	11.00	3.25	9.75	5.75	7.75	7.50	8.00	12.00	3.75	2.50	4.00	-0.168457	0.067871	0.963379	-2.100000	15.540000	-0.630000	1361.00	-0.01	-0.12	0.00	0.00	0.00	0.00	0.00	0.00	0.00	0.00	0.00	0.00	0.00	0.00	0.00	0.00	0.00	0.00	-5.315918	-2.932617	0.451660	-95.059998	114.660004	6.440000	0.00	0.00	0.00
2.15	6.75	6.75	7.75	8.25	9.50	11.00	3.25	10.00	6.50	8.00	7.75	8.50	12.50	4.00	2.75	5.00	-0.170410	0.069336	0.962891	-1.050000	15.960000	-0.630000	1390.00	0.00	-0.12	0.50	0.25	0.00	0.25	0.00	0.00	0.00	0.00	0.00	0.00	0.00	0.00	0.00	0.00	0.00	0.00	0.161621	-0.499023	0.552734	-296.029999	211.539993	8.400000	11.00	0.00	0.00
2.16	6.50	6.75	7.25	8.00	9.25	10.75	3.50	10.00	6.50	8.25	8.00	8.75	12.75	4.50	3.00	5.50	-0.165527	0.067871	0.958984	-0.000000	16.590000	-0.840000	1397.00	0.01	-0.12	3.25	2.75	1.50	1.75	0.00	0.00	0.00	0.00	0.00	0.00	0.00	0.00	0.00	0.00	0.00	0.00	0.488281	0.773926	1.096191	-246.889999	235.199997	18.969999	104.00	-0.36	-0.04
2.17	6.00	6.50	7.00	8.00	9.00	10.75	3.50	10.00	7.00	8.50	8.25	9.00	13.25	4.50	3.50	5.75	-0.176758	0.062012	0.966797	1.120000	17.290001	-0.280000	1411.00	0.02	-0.12	8.75	9.75	3.50	5.00	0.00	0.00	0.00	0.00	0.00	0.00	0.00	0.00	0.00	0.00	0.00	0.00	1.269043	-0.596191	1.530273	-145.389999	204.119995	51.380001	300.00	-0.36	-0.05
2.18	6.00	6.25	6.50	7.75	8.75	10.50	3.25	10.00	7.00	8.75	8.75	9.75	13.75	5.00	3.75	6.25	-0.173828	0.067383	0.960449	2.800000	17.570000	0.070000	1421.00	0.03	-0.12	16.50	16.50	7.50	9.00	0.25	0.50	0.00	0.00	0.00	0.00	0.00	0.00	0.25	0.00	0.00	0.00	-0.281738	-1.697754	1.094727	-69.090004	266.700012	13.650000	564.00	-0.36	-0.05
2.19	5.75	6.00	6.50	7.25	8.50	10.25	3.25	10.25	7.75	9.25	9.00	10.00	14.25	5.25	4.00	6.75	-0.172363	0.071289	0.958984	4.340000	18.270000	0.140000	1443.00	0.03	-0.12	20.00	19.50	9.75	12.00	1.25	3.00	0.00	0.50	0.00	0.00	0.00	0.00	0.25	0.00	0.00	0.00	-1.406250	-1.318848	3.523438	-49.070000	344.890015	-65.239998	747.00	-0.34	-0.06
2.20	5.25	5.75	6.25	7.25	8.25	10.00	3.25	10.25	8.00	9.50	9.50	10.50	15.00	6.00	5.00	7.50	-0.187988	0.068848	0.961914	4.970000	19.250000	0.350000	1474.00	0.05	-0.12	21.25	20.25	11.50	13.25	2.00	5.00	0.00	1.25	0.00	0.00	0.00	0.25	0.50	0.00	0.00	0.00	-1.259277	1.174805	4.081055	-73.430000	230.580002	-84.980003	855.00	-0.32	-0.07
2.21	5.50	5.75	5.75	7.00	7.75	9.75	3.25	10.25	8.25	10.00	9.75	11.00	15.25	6.75	5.50	7.75	-0.165039	0.071289	0.963867	5.320000	20.790001	0.140000	1493.00	0.06	-0.12	20.25	20.00	11.75	13.25	2.50	6.00	0.00	2.00	0.00	0.00	0.00	0.25	1.25	0.00	0.00	0.00	-0.800293	1.135254	2.032715	-25.969999	83.160004	-38.570000	882.00	-0.31	-0.08
2.22	5.25	5.50	5.50	6.50	7.25	9.75	3.00	10.25	8.50	10.25	10.50	11.25	15.75	7.50	6.00	8.50	-0.179688	0.090332	0.962891	4.760000	24.150000	-0.350000	1508.00	0.07	-0.12	18.75	18.50	11.00	12.75	2.75	6.25	0.25	2.75	0.00	0.00	0.25	0.25	1.75	0.00	0.00	0.00	-0.034180	0.351562	0.802246	-49.700001	89.180000	8.190000	865.00	-0.29	-0.09
2.23	5.25	5.50	5.25	6.25	6.75	9.25	3.00	10.25	8.75	10.75	10.75	12.00	16.25	8.00	6.75	9.00	-0.198730	0.093750	0.985840	4.620000	27.020000	-1.400000	1532.00	0.07	-0.12	16.75	17.00	11.00	12.50	3.00	7.25	0.25	3.75	0.00	0.00	0.00	0.25	2.50	0.25	0.00	0.00	0.133789	-0.202148	1.168945	-56.070000	88.410004	7.280000	862.00	-0.28	-0.10
2.24	5.00	5.25	5.25	6.00	6.25	8.75	3.00	10.25	9.00	11.25	11.25	12.50	16.75	9.00	7.25	9.75	-0.214355	0.080078	0.977051	5.040000	30.590000	-1.890000	1557.00	0.09	-0.12	16.00	16.75	11.25	12.75	3.25	8.00	0.50	5.25	0.00	0.00	0.25	0.25	4.25	0.25	0.00	0.00	-0.393555	0.532227	0.991699	-57.049999	43.750000	1.190000	918.00	-0.26	-0.12
2.25	4.50	5.25	5.00	5.50	5.75	8.50	2.50	10.00	9.50	11.50	11.50	12.75	17.00	10.00	7.75	10.50	-0.141113	0.111328	0.986816	7.560000	36.540001	-3.080000	1558.00	0.10	-0.12	16.75	16.75	11.50	13.25	3.75	8.75	0.50	6.00	0.00	0.00	0.00	0.50	4.00	0.25	0.00	0.00	-0.139160	0.259277	0.997070	-73.779999	33.599998	5.460000	960.00	-0.25	-0.12
2.26	4.50	5.00	4.00	5.50	4.75	8.25	2.25	9.75	9.75	12.00	12.25	13.25	17.50	11.25	8.25	11.50	-0.215820	0.088867	0.996094	9.380000	44.170002	-4.340000	1572.00	0.11	-0.12	17.25	17.75	12.25	13.75	5.00	9.00	0.50	6.50	0.00	0.25	0.25	0.50	5.00	0.50	0.25	0.00	-0.162109	0.234375	0.996582	-83.090004	22.400000	0.350000	1038.00	-0.24	-0.12
2.27	3.25	2.75	2.50	4.00	3.00	6.75	1.75	8.75	9.00	11.25	11.50	12.75	16.25	11.00	7.75	11.25	-0.196289	0.103516	1.029297	13.930000	53.970001	-4.900000	1380.00	0.14	-0.13	18.25	18.00	12.75	14.25	5.75	9.00	0.50	6.50	0.00	0.25	0.25	0.25	5.00	0.25	0.50	0.00	-0.183594	0.210449	1.078125	-80.709999	17.710001	-0.980000	1070.00	-0.24	-0.11
2.28	2.25	2.50	2.75	3.25	2.25	6.00	1.00	8.25	9.25	12.00	12.00	13.25	16.50	12.50	9.50	13.00	-0.230957	0.075195	1.040527	19.040001	64.190002	-5.040000	1392.00	0.16	-0.13	19.00	18.50	13.25	14.50	6.25	9.50	0.50	7.00	0.00	0.25	0.25	0.50	5.00	0.50	0.25	0.00	-0.084961	0.156250	1.037598	-66.150002	13.860000	-1.680000	1116.00	-0.24	-0.11
2.29	2.25	2.75	1.75	3.50	1.75	5.50	0.75	8.00	9.50	11.75	12.25	13.25	16.75	13.00	8.50	12.75	-0.139648	0.114258	1.147461	27.650000	77.489998	-4.060000	1363.00	0.16	-0.13	18.75	18.50	13.50	14.25	7.00	9.75	0.50	7.25	0.00	0.50	0.50	0.75	5.25	0.50	0.25	0.00	-0.086914	0.186523	0.991211	-53.200001	13.930000	-2.520000	1140.00	-0.24	-0.11
2.30	2.50	3.75	2.00	2.50	1.75	5.00	0.25	7.25	9.50	12.00	12.50	13.50	16.75	14.50	9.25	13.75	-0.270020	0.124512	1.105957	38.360001	100.379997	-3.850000	1377.00	0.17	-0.12	18.50	17.50	13.25	13.75	7.25	9.75	0.75	7.00	0.00	0.50	0.50	0.75	5.75	0.75	0.50	0.00	-0.112305	0.138184	1.007812	-43.049999	15.260000	-2.240000	1131.00	-0.23	-0.11
2.31	2.00	2.25	2.00	2.00	1.00	4.00	0.00	6.00	9.50	12.00	13.50	14.25	16.50	14.50	9.50	14.00	-0.258301	0.152832	1.140137	50.959999	130.059998	-6.090000	1327.00	0.19	-0.12	18.50	16.75	13.00	13.25	7.50	9.75	0.50	7.50	0.50	1.50	1.00	1.25	6.50	1.00	0.75	0.00	-0.110352	0.139160	0.988281	-31.710001	13.720000	-1.190000	1164.00	-0.21	-0.11
2.32	2.00	1.75	2.00	2.75	1.00	4.00	0.00	5.25	9.25	11.75	12.50	13.75	16.25	15.50	10.00	14.50	-0.288574	0.175293	1.143555	65.029999	162.539993	-8.330000	1310.00	0.19	-0.12	20.25	18.25	15.00	15.25	8.50	11.25	0.75	7.75	0.25	1.00	0.75	1.00	7.00	1.75	1.50	0.50	-0.086914	0.164062	0.937500	-23.799999	13.230000	-0.490000	1293.00	-0.21	-0.11
2.33	2.50	3.00	2.00	3.00	0.75	5.00	0.00	5.75	9.00	11.50	12.50	13.50	15.50	16.25	10.50	15.00	-0.259277	0.132324	1.291992	70.419998	199.710007	-11.690000	1348.00	0.18	-0.12	18.00	17.75	14.25	14.75	8.75	11.25	0.75	7.75	0.25	1.75	1.50	2.00	8.00	2.00	1.75	1.00	-0.103516	0.176758	0.941406	-23.100000	14.840000	-0.280000	1297.00	-0.19	-0.12
2.34	2.25	2.00	2.75	2.00	0.50	2.00	0.00	3.75	8.50	11.25	12.50	13.25	15.00	17.00	10.50	15.25	-0.363281	0.166992	1.228027	72.730003	236.250000	-14.560000	1251.00	0.21	-0.10	17.00	16.75	13.75	11.50	8.50	9.75	0.75	7.75	1.50	2.00	1.50	2.25	9.00	1.75	1.50	1.25	-0.131348	0.152832	0.972168	-22.750000	15.890000	0.350000	1239.00	-0.17	-0.11
2.35	1.75	2.00	2.00	2.00	0.50	2.25	0.00	3.00	8.75	11.00	12.25	13.00	14.00	17.50	11.00	15.00	-0.425293	0.196777	1.219727	74.129997	270.410004	-18.480000	1221.00	0.22	-0.10	16.50	15.50	13.00	13.50	9.00	11.50	1.00	8.75	1.50	2.25	1.75	2.75	9.50	2.00	2.00	1.25	-0.115234	0.162109	0.969238	-20.020000	15.400000	-0.000000	1307.00	-0.16	-0.12
2.36	2.75	2.25	1.75	1.50	0.00	3.25	0.00	2.50	7.75	10.25	12.00	12.50	13.00	18.00	10.75	14.75	-0.328125	0.327148	1.358887	67.410004	294.489990	-25.059999	1183.00	0.21	-0.10	15.25	14.00	12.50	13.25	8.75	11.25	0.75	8.50	0.25	2.25	1.75	3.00	10.00	2.50	2.00	1.75	-0.118164	0.139160	0.977051	-16.379999	15.610000	-0.840000	1252.00	-0.15	-0.13
2.37	1.75	1.25	1.50	1.75	0.25	1.75	0.00	2.25	7.25	9.75	12.00	12.00	12.00	18.25	10.75	14.25	-0.488281	0.345703	1.316895	40.180000	337.470001	-42.209999	1114.00	0.23	-0.09	13.25	12.50	12.00	12.50	9.00	11.25	1.00	9.00	1.50	2.50	2.00	3.25	10.50	2.25	2.25	1.50	-0.110352	0.163086	0.962891	-14.070000	15.750000	-1.540000	1245.00	-0.13	-0.13
2.38	1.50	1.50	1.25	1.00	0.25	1.50	0.00	1.50	6.00	9.75	12.50	12.25	11.50	21.00	12.25	14.25	-0.530273	0.344238	1.550781	23.170000	371.769989	-52.430000	1115.00	0.24	-0.09	11.75	11.00	11.50	11.75	8.75	10.75	1.00	9.00	1.75	2.25	2.00	3.50	10.75	2.50	2.25	2.00	-0.121094	0.160156	0.957031	-13.860000	15.400000	-2.940000	1200.00	-0.12	-0.13
2.39	3.00	2.50	2.25	2.75	0.50	1.00	0.00	2.75	6.50	9.50	12.50	11.75	10.25	20.75	12.00	12.50	-0.683594	0.666016	1.814453	11.410000	409.640015	-64.750000	1164.00	0.21	-0.08	10.25	9.50	10.75	11.00	8.25	9.25	1.00	9.00	1.75	2.75	2.50	4.00	11.25	2.75	2.50	2.00	-0.107910	0.166016	0.954102	-14.420000	14.770000	-4.620000	1153.00	-0.10	-0.14
2.40	2.50	2.75	2.25	1.75	0.75	2.75	0.00	2.50	5.75	8.75	11.75	11.00	9.50	20.00	10.50	10.25	-0.816895	0.568359	1.659668	12.110000	460.809998	-82.879997	1087.00	0.20	-0.08	9.25	8.75	10.25	10.75	8.50	10.50	1.00	9.00	1.75	2.75	2.75	5.00	11.50	3.00	2.75	1.75	-0.110352	0.172852	0.944824	-15.960000	14.490000	-6.860000	1164.00	-0.09	-0.14
2.41	2.25	2.75	0.50	0.25	0.50	2.25	0.00	2.25	5.25	8.25	11.00	9.50	7.00	15.00	7.75	7.25	-1.107910	0.602539	2.094238	-4.760000	513.030029	-99.400002	874.00	0.21	-0.08	7.75	7.75	9.50	10.00	8.50	10.25	1.00	9.00	1.75	3.00	3.25	6.25	12.00	3.00	2.00	2.50	-0.118164	0.156738	0.960938	-17.360001	14.490000	-8.190000	1139.00	-0.07	-0.15
2.42	2.75	2.50	1.50	1.50	0.25	2.00	0.00	1.75	3.75	7.75	10.00	9.25	7.00	15.25	7.50	6.00	-1.313965	0.785645	3.312988	5.040000	527.380005	-103.040001	841.00	0.19	-0.08	6.75	5.50	7.00	7.25	7.25	8.25	0.75	8.25	0.75	2.00	2.75	6.00	11.25	2.75	3.25	3.00	-0.147949	0.145508	0.966797	-16.170000	14.770000	-8.400000	960.00	-0.05	-0.16
2.43	2.25	2.25	1.50	1.75	0.50	2.50	0.00	1.25	3.50	6.50	8.75	8.00	6.00	12.50	6.00	4.75	-1.219238	0.244141	2.430664	18.900000	534.799988	-110.389999	730.00	0.18	-0.08	6.00	5.50	7.75	8.00	7.25	8.25	0.75	8.50	1.25	2.75	2.75	7.50	11.50	2.25	2.00	2.25	-0.125977	0.143066	0.966309	-15.680000	15.470000	-7.700000	986.00	-0.05	-0.17
2.44	2.25	2.75	2.00	2.00	0.50	2.75	0.00	1.50	3.00	5.50	7.75	7.00	5.00	9.50	4.50	2.75	-1.481934	0.125488	3.669922	42.910000	511.559998	-107.029999	643.00	0.14	-0.09	4.75	4.25	6.50	6.75	6.75	8.00	0.75	8.75	2.00	4.00	4.50	7.50	12.25	4.00	3.75	4.25	-0.143066	0.145020	0.957031	-14.210000	16.379999	-7.560000	1024.00	0.00	-0.16
2.45	1.00	0.00	0.50	0.25	0.00	1.00	0.00	0.00	0.25	2.50	4.25	4.00	2.00	6.00	1.25	0.75	-0.379883	-0.591797	2.745117	38.009998	478.519989	-111.370003	252.00	0.21	-0.08	4.25	4.25	7.50	7.75	7.75	9.25	1.00	9.00	2.25	4.00	6.00	8.25	13.00	4.25	4.00	4.25	-0.143066	0.119629	0.977539	-12.180000	16.799999	-7.630000	1119.00	0.00	-0.16
2.46	0.75	0.75	0.75	0.25	0.00	1.00	0.00	0.50	0.00	2.00	3.00	2.50	1.00	2.75	0.75	0.75	-0.278809	0.340332	2.164551	36.470001	449.679993	-110.250000	182.00	0.14	-0.11	4.25	3.50	5.50	5.50	6.25	7.25	0.75	8.50	1.50	3.75	5.50	8.00	12.25	3.50	3.00	3.50	-0.136230	0.141113	0.969727	-10.920000	17.150000	-6.510000	954.00	0.01	-0.17
2.47	0.75	0.25	1.00	0.25	0.00	0.50	0.00	0.25	0.00	1.75	1.75	1.75	0.75	0.75	0.75	0.25	0.190918	0.963379	1.317383	29.330000	463.890015	-121.239998	121.00	0.10	-0.10	4.00	3.75	6.75	7.00	7.50	8.75	0.75	8.50	2.00	5.75	6.75	8.50	12.50	4.00	3.75	4.25	-0.147949	0.134277	0.966309	-9.310000	17.920000	-6.440000	1090.00	0.01	-0.16
2.48	1.00	0.25	1.00	0.50	0.00	0.50	0.00	0.00	0.00	1.00	0.75	1.00	0.25	0.50	0.25	0.25	0.659180	1.042480	2.166992	64.540001	402.360016	-124.949997	81.00	-0.00	-0.07	2.75	2.25	4.75	4.75	5.75	7.50	1.00	9.00	2.25	5.75	7.50	8.75	13.00	4.75	4.25	5.00	-0.162598	0.137207	0.971680	-5.880000	18.620001	-6.860000	1023.00	0.06	-0.17
2.49	1.00	1.00	0.75	0.25	0.00	0.25	0.00	0.00	0.00	1.00	1.00	0.50	0.75	0.00	0.50	0.00	3.315430	-0.736328	3.092285	107.449997	305.829987	-148.190002	78.00	-0.03	-0.09	4.00	3.25	5.00	5.75	7.00	8.50	1.00	9.25	4.00	7.50	8.25	9.75	13.50	5.50	5.00	5.00	-0.158691	0.138672	0.964844	-4.480000	18.900000	-7.280000	1178.00	0.05	-0.15
2.50	1.00	0.25	0.75	0.75	0.00	0.75	0.00	0.00	0.00	1.00	0.75	0.25	0.50	0.50	0.25	0.00	0.862793	1.833984	5.089844	85.820000	94.430000	-138.809998	76.00	-0.04	-0.07	3.50	2.75	5.00	4.50	5.50	7.00	0.75	8.50	2.75	7.00	8.50	9.50	13.75	6.25	5.50	5.50	-0.157715	0.130371	0.969238	-3.780000	19.320000	-6.020000	1095.00	0.07	-0.16
2.51	1.00	0.75	0.75	0.50	0.00	0.75	0.00	0.00	0.00	1.00	0.25	0.00	0.25	0.00	0.25	0.00	1.605957	-0.238770	2.984863	2.870000	-82.879997	-100.309998	62.00	-0.13	-0.06	1.75	1.50	3.75	3.50	5.00	6.75	0.75	8.50	3.00	7.50	8.50	9.75	14.00	7.00	6.00	5.50	-0.159180	0.127441	0.951172	-2.660000	19.809999	-5.250000	1053.00	0.10	-0.16
2.52	0.75	0.25	0.25	0.25	0.00	0.50	0.00	0.00	0.00	0.50	0.25	0.00	0.50	0.00	0.00	0.00	0.838379	0.871094	1.041016	-55.439999	-222.529999	-92.190002	36.00	0.00	0.00	1.50	1.25	3.00	3.75	4.75	6.25	0.50	8.25	3.25	7.50	9.00	10.00	14.25	7.50	6.25	6.25	-0.165039	0.131348	0.963867	-1.890000	20.370001	-4.620000	1051.00	0.11	-0.16
2.53	0.50	0.25	0.75	0.50	0.00	0.50	0.00	0.00	0.00	0.25	0.00	0.00	0.00	0.00	0.00	0.00	0.837891	1.054688	0.766113	7.280000	-227.639999	-99.330002	32.00	0.00	0.00	1.50	1.25	2.50	2.75	4.00	5.75	0.50	8.25	3.75	7.75	9.25	10.25	14.25	8.00	6.75	6.75	-0.159180	0.142578	0.958496	-1.680000	21.280001	-4.550000	1047.00	0.13	-0.16
2.54	1.25	0.25	0.25	0.75	0.00	0.50	0.00	0.00	0.00	0.50	0.00	0.00	0.00	0.00	0.00	0.00	0.749023	0.855957	0.846191	68.459999	-235.759995	-103.459999	40.00	0.00	0.00	1.25	0.75	2.25	2.25	3.50	5.25	0.50	8.25	4.25	8.00	9.50	10.75	14.50	8.50	7.00	7.00	-0.177246	0.135254	0.956543	-1.330000	22.120001	-5.390000	1048.00	0.14	-0.16
2.55	1.00	0.50	0.75	0.25	0.00	0.50	0.00	0.00	0.00	0.25	0.00	0.00	0.00	0.00	0.00	0.00	0.621094	0.714844	0.954102	106.120003	-248.080002	-98.419998	37.00	0.00	0.00	0.75	0.75	1.50	1.75	2.75	5.00	0.50	8.00	4.50	8.25	10.00	11.00	14.75	9.00	7.50	7.50	-0.179199	0.131836	0.950684	-1.680000	22.680000	-6.160000	1042.00	0.16	-0.16
2.56	0.75	0.25	0.50	0.50	0.00	0.50	0.00	0.00	0.00	0.00	0.00	0.00	0.00	0.00	0.00	0.00	0.529297	0.620605	1.044434	109.760002	-264.739990	-82.739998	29.00	0.00	0.00	0.50	0.75	1.25	1.50	2.25	4.25	0.50	8.00	5.00	8.50	10.25	11.50	15.00	9.75	7.75	7.75	-0.140625	0.107422	0.982422	-1.890000	23.379999	-6.300000	1050.00	0.17	-0.16
2.57	0.75	0.50	0.75	0.75	0.00	0.75	0.00	0.00	0.00	0.25	0.00	0.00	0.00	0.00	0.00	0.00	0.423340	0.590820	1.143066	92.610001	-284.760010	-58.660000	43.00	0.00	0.00	0.00	0.25	0.75	1.50	2.00	3.50	0.25	7.75	5.00	8.75	10.50	11.50	15.00	10.50	8.25	8.00	-0.179688	0.149414	0.958496	-1.260000	24.710001	-6.790000	1033.00	0.19	-0.16
2.58	0.75	0.50	0.50	0.25	0.00	0.50	0.00	0.00	0.00	0.00	0.00	0.00	0.00	0.00	0.00	0.00	0.333496	0.640137	1.234375	69.860001	-307.089996	-30.240000	29.00	0.00	0.00	0.50	0.25	0.75	1.25	1.75	2.50	0.25	7.50	5.50	9.00	10.75	11.75	15.25	11.25	8.50	8.50	-0.182617	0.131348	0.971680	-0.560000	25.969999	-7.420000	1048.00	0.20	-0.15
2.59	0.50	0.25	0.75	0.25	0.00	0.75	0.00	0.00	0.00	0.00	0.00	0.00	0.00	0.00	0.00	0.00	0.237305	0.686035	1.240234	53.689999	-329.559998	-1.470000	29.00	0.00	0.00	0.00	0.50	0.50	0.75	1.25	2.50	0.25	7.50	5.50	9.25	11.00	12.25	15.25	12.00	8.75	8.75	-0.181641	0.145020	0.956055	0.280000	28.350000	-8.050000	1052.00	0.21	-0.15
2.60	1.00	0.50	0.50	0.75	0.00	0.50	0.00	0.00	0.00	0.00	0.00	0.00	0.00	0.00	0.00	0.00	0.124512	0.707520	1.203125	48.930000	-348.040009	24.150000	37.00	0.00	0.00	0.00	0.00	0.50	0.75	1.00	1.75	0.25	7.00	6.25	9.50	11.50	12.25	15.50	12.75	9.00	9.00	-0.196777	0.134277	0.986816	1.610000	33.950001	-9.660000	1060.00	0.22	-0.14
2.61	0.50	0.25	0.50	0.25	0.00	0.50	0.00	0.00	0.00	0.00	0.00	0.00	0.00	0.00	0.00	0.00	0.015625	0.664062	1.186035	53.900002	-360.500000	45.080002	23.00	0.00	0.00	0.00	0.00	0.25	1.00	0.50	1.00	0.00	6.75	6.00	10.00	11.75	12.50	15.25	14.00	9.50	9.25	-0.192871	0.152832	0.975098	2.170000	39.759998	-10.710000	1061.00	0.23	-0.14
2.62	0.75	0.50	0.50	0.25	0.00	0.50	0.00	0.00	0.00	0.00	0.00	0.00	0.00	0.00	0.00	0.00	-0.099609	0.587891	1.170410	63.700001	-367.640015	61.110001	29.00	0.00	0.00	0.00	0.00	0.00	0.50	0.50	1.00	0.00	6.25	6.75	10.00	11.75	12.75	15.25	14.50	9.75	9.25	-0.201660	0.145996	1.006348	4.200000	46.480000	-11.760000	1065.00	0.24	-0.13
2.63	0.50	0.25	0.50	0.00	0.00	0.25	0.00	0.00	0.00	0.00	0.00	0.00	0.00	0.00	0.00	0.00	-0.193848	0.489746	1.186523	72.800003	-370.089996	72.870003	17.00	0.00	0.00	0.00	0.00	0.00	0.25	0.25	0.75	0.00	5.75	7.00	10.25	12.00	12.75	15.50	15.50	10.25	9.50	-0.205566	0.126953	1.030762	7.490000	55.510002	-12.740000	1076.00	0.25	-0.12
2.64	0.50	0.25	0.50	0.25	0.00	0.25	0.00	0.00	0.00	0.00	0.00	0.00	0.00	0.00	0.00	0.00	-0.256836	0.399414	1.232910	79.449997	-369.459991	81.620003	20.00	0.00	0.00	0.00	0.00	0.25	0.75	0.25	0.50	0.00	5.25	7.50	10.50	12.25	13.25	15.25	16.25	10.50	9.75	-0.203125	0.154297	1.017578	10.990000	65.519997	-14.210000	1101.00	0.25	-0.12
2.65	0.50	0.50	0.25	0.25	0.00	0.25	0.00	0.00	0.00	0.00	0.00	0.00	0.00	0.00	0.00	0.00	-0.332031	0.326660	1.289551	85.330002	-365.959991	86.449997	20.00	0.00	0.00	0.00	0.00	0.00	0.25	0.25	0.25	0.00	5.00	7.25	10.50	12.50	13.00	15.00	17.25	10.75	10.00	-0.246582	0.155273	1.000000	16.379999	76.090004	-15.890000	1093.00	0.25	-0.11
2.66	0.75	0.50	0.25	0.25	0.00	0.25	0.00	0.00	0.00	0.00	0.00	0.00	0.00	0.00	0.00	0.00	-0.384277	0.255371	1.408203	93.519997	-360.429993	86.449997	23.00	0.00	0.00	0.00	0.00	0.00	0.00	0.00	0.00	0.00	4.25	7.50	10.75	12.50	13.00	15.00	18.00	11.50	10.25	-0.261230	0.106934	1.030273	21.559999	88.129997	-16.379999	1095.00	0.26	-0.11
2.67	0.50	0.00	0.00	0.25	0.00	0.00	0.00	0.00	0.00	0.00	0.00	0.00	0.00	0.00	0.00	0.00	-0.512207	0.123535	1.742676	115.220001	-353.989990	73.150002	9.00	0.00	0.00	0.00	0.00	0.00	0.00	0.00	0.00	0.00	3.50	7.50	10.50	12.50	13.25	14.75	18.75	11.75	10.50	-0.258789	0.116699	1.060547	25.760000	102.900002	-15.470000	1091.00	0.27	-0.10
2.68	0.25	0.00	0.00	0.00	0.00	0.00	0.00	0.00	0.00	0.00	0.00	0.00	0.00	0.00	0.00	0.00	-0.612305	0.078613	1.887695	125.370003	-353.920013	63.070000	3.00	0.00	0.00	0.00	0.00	0.00	0.00	0.00	0.00	0.00	3.00	7.75	10.75	12.75	13.25	14.50	19.75	12.25	10.50	-0.301758	0.119629	1.075684	27.090000	122.080002	-14.140000	1105.00	0.27	-0.09
2.69	0.00	0.00	0.25	0.25	0.00	0.00	0.00	0.00	0.00	0.00	0.00	0.00	0.00	0.00	0.00	0.00	-0.728516	0.115723	2.102539	135.169998	-354.339996	53.619999	6.00	0.00	0.00	0.00	0.00	0.00	0.00	0.00	0.00	0.00	2.25	7.50	10.75	13.00	13.00	14.00	20.50	12.50	10.50	-0.308105	0.160645	1.144531	26.950001	144.270004	-14.070000	1094.00	0.28	-0.09
2.70	0.00	0.00	0.50	0.00	0.00	0.25	0.00	0.00	0.00	0.00	0.00	0.00	0.00	0.00	0.00	0.00	-0.868164	0.237793	2.317871	137.130005	-353.920013	50.750000	9.00	0.00	0.00	0.00	0.00	0.00	0.00	0.00	0.00	0.00	1.75	7.50	10.50	12.75	13.00	13.50	21.25	12.75	10.75	-0.347168	0.222656	1.168457	26.040001	170.380005	-16.870001	1086.00	0.28	-0.08
2.71	0.25	0.50	0.25	0.25	0.00	0.25	0.00	0.00	0.00	0.00	0.00	0.00	0.00	0.00	0.00	0.00	-0.963867	0.424805	2.478516	124.529999	-355.390015	62.439999	17.00	0.00	0.00	0.00	0.00	0.00	0.00	0.00	0.00	0.00	1.50	7.50	10.50	12.75	12.50	12.75	22.00	13.25	10.50	-0.363281	0.258789	1.263672	20.860001	199.289993	-22.190001	1080.00	0.28	-0.08
2.72	0.25	0.00	0.25	0.00	0.00	0.00	0.00	0.00	0.00	0.00	0.00	0.00	0.00	0.00	0.00	0.00	-1.090820	0.752930	2.690430	98.419998	-356.929993	91.840004	6.00	0.00	0.00	0.00	0.00	0.00	0.00	0.00	0.00	0.00	1.25	7.25	10.25	12.50	12.25	12.00	22.75	13.00	10.25	-0.437988	0.392578	1.234863	2.870000	249.550003	-43.610001	1060.00	0.29	-0.07
2.73	0.50	0.25	0.50	0.50	0.00	0.25	0.00	0.00	0.00	0.00	0.00	0.00	0.00	0.00	0.00	0.00	-1.247070	1.125488	2.968262	71.470001	-359.309998	136.570007	23.00	0.00	0.00	0.00	0.00	0.00	0.00	0.00	0.00	0.00	1.00	7.00	10.00	12.25	11.75	11.00	23.00	13.00	9.75	-0.485352	0.270996	1.310547	-5.740000	285.179993	-58.240002	1030.00	0.29	-0.07
2.74	0.50	0.25	0.75	0.25	0.00	0.25	0.00	0.00	0.00	0.00	0.00	0.00	0.00	0.00	0.00	0.00	-1.442871	1.445312	3.259277	62.580002	-370.440002	188.789993	23.00	0.00	0.00	0.00	0.00	0.00	0.00	0.00	0.00	0.00	1.00	6.50	9.50	12.00	11.25	10.00	23.25	12.50	9.00	-0.560547	0.257812	1.540039	-21.350000	326.899994	-67.900002	992.00	0.29	-0.06
2.75	0.50	0.25	0.50	0.00	0.00	0.75	0.00	0.00	0.00	0.00	0.00	0.00	0.00	0.00	0.00	0.00	-1.916992	1.568848	3.308105	72.519997	-389.480011	235.270004	23.00	0.00	0.00	0.00	0.00	0.00	0.00	0.00	0.00	0.00	0.50	6.00	9.00	11.75	10.75	9.00	22.75	12.00	8.25	-0.685059	0.685547	1.567871	-35.000000	374.220001	-81.340004	938.00	0.30	-0.06
2.76	0.50	0.25	0.25	0.00	0.00	0.00	0.00	0.00	0.00	0.00	0.00	0.00	0.00	0.00	0.00	0.00	-2.570801	1.105957	2.645996	110.949997	-406.279999	270.549988	11.00	0.00	0.00	0.00	0.00	0.00	0.00	0.00	0.00	0.00	0.50	5.00	8.25	11.00	10.00	8.25	21.75	11.00	6.75	-0.736328	0.792969	1.972656	-26.460001	426.160004	-107.449997	861.00	0.30	-0.06
2.77	0.50	0.00	0.25	0.00	0.00	0.00	0.00	0.00	0.00	0.00	0.00	0.00	0.00	0.00	0.00	0.00	-3.558105	0.130371	2.370117	185.289993	-400.959991	288.049988	9.00	0.00	0.00	0.00	0.00	0.00	0.00	0.00	0.00	0.00	0.00	3.50	7.50	10.25	9.00	7.50	20.25	9.75	5.00	-0.879395	0.724121	2.133789	-32.689999	471.309998	-134.820007	757.00	0.30	-0.06
2.78	0.75	0.25	0.75	0.75	0.00	0.00	0.00	0.00	0.00	0.00	0.00	0.00	0.00	0.00	0.00	0.00	-4.697754	-0.729980	1.532715	186.410004	-366.170013	289.239990	29.00	0.00	0.00	0.00	0.00	0.00	0.00	0.00	0.00	0.00	0.25	1.50	6.50	9.25	8.25	5.75	18.00	8.25	2.75	-1.081055	0.719238	2.509277	-40.389999	501.970001	-154.770004	633.00	0.30	-0.06
2.79	0.25	0.00	0.50	0.75	0.00	0.00	0.00	0.00	0.00	0.00	0.00	0.00	0.00	0.00	0.00	0.00	-5.749512	-1.263672	0.317383	115.709999	-311.920013	286.019989	18.00	0.00	0.00	0.00	0.00	0.00	0.00	0.00	0.00	0.00	0.00	0.25	5.00	8.00	6.75	3.50	14.25	6.50	0.75	-1.010254	0.836426	3.051270	-10.220000	508.130005	-157.360001	474.00	0.30	-0.06
2.80	0.25	0.25	0.25	0.75	0.00	0.25	0.00	0.00	0.00	0.00	0.00	0.00	0.00	0.00	0.00	0.00	-6.470703	-1.222168	-0.812988	16.799999	-236.110001	264.040009	20.00	0.00	0.00	0.00	0.00	0.00	0.00	0.00	0.00	0.00	0.00	0.00	3.50	6.00	4.75	2.25	11.00	5.00	0.00	-1.657715	0.038086	3.498535	23.660000	497.489990	-164.990005	344.00	0.31	-0.05
2.81	0.75	0.25	0.50	0.00	0.00	0.00	0.00	0.00	0.00	0.00	0.00	0.00	0.00	0.00	0.00	0.00	-5.548828	-0.316895	-1.258789	-34.720001	-140.350006	194.250000	17.00	0.00	0.00	0.00	0.00	0.00	0.00	0.00	0.00	0.00	0.00	0.00	2.50	4.00	2.50	1.50	8.00	2.50	0.00	-0.999512	0.399414	3.792480	32.689999	460.040009	-158.550003	220.00	0.31	-0.03
2.82	0.25	0.50	0.25	0.50	0.00	0.00	0.00	0.00	0.00	0.00	0.00	0.00	0.00	0.00	0.00	0.00	-4.453125	-0.304199	-0.181152	50.610001	28.350000	-42.980000	17.00	0.00	0.00	0.00	0.00	0.00	0.00	0.00	0.00	0.00	0.00	0.00	1.75	2.50	1.75	1.00	5.25	1.50	0.00	-0.731934	0.709473	3.542480	29.330000	413.489990	-165.830002	144.00	0.31	-0.04
2.83	1.25	1.50	1.00	0.75	0.00	1.00	0.00	0.00	0.00	0.25	0.00	0.00	0.00	0.00	0.25	0.00	-7.765137	-2.552734	1.092285	5.880000	45.779999	-28.840000	68.00	-0.26	-0.08	0.00	0.00	0.00	0.00	0.00	0.00	0.00	0.00	0.00	1.00	1.75	1.00	0.75	1.75	1.00	0.25	1.310059	0.625000	1.615723	24.990000	403.130005	-186.199997	79.00	0.29	-0.09
2.84	4.25	5.00	2.75	2.50	0.25	0.00	0.00	0.00	0.00	0.00	0.00	0.00	0.00	0.00	0.00	0.00	0.229492	-1.192383	0.481934	-250.250000	219.029999	8.330000	165.00	-0.35	-0.04	0.00	0.00	0.00	0.00	0.00	0.00	0.00	0.00	0.00	0.50	0.75	0.00	0.25	0.25	0.50	0.00	3.066895	0.586914	3.307617	39.619999	281.260010	-221.830002	25.00	0.00	0.00
2.85	11.50	10.75	5.25	7.50	1.25	1.75	0.00	0.75	0.75	0.00	1.00	1.50	1.50	0.75	0.50	0.50	0.107910	0.669922	2.218262	-129.009995	270.130005	62.860001	510.00	-0.25	-0.07	0.00	0.00	0.00	0.00	0.00	0.00	0.00	0.00	0.00	0.50	0.75	0.00	0.00	0.25	0.25	0.00	0.744141	2.739746	5.055176	71.260002	108.919998	-215.600006	19.00	0.00	0.00
2.86	13.75	14.00	7.00	8.00	0.50	1.25	0.00	0.25	0.00	0.00	0.25	1.50	1.75	0.25	0.75	0.50	0.133789	-3.063477	1.219727	-0.910000	316.540009	87.919998	554.00	-0.29	-0.07	0.00	0.00	0.00	0.00	0.00	0.00	0.00	0.00	0.00	0.50	0.50	0.00	0.00	0.00	0.25	0.00	2.010254	0.849121	3.183594	51.450001	-89.739998	-161.839996	14.00	0.00	0.00
2.87	20.00	15.00	8.75	9.50	2.00	4.50	0.00	1.50	0.75	0.25	1.25	1.25	1.00	0.00	0.50	0.25	-1.979980	-1.940918	3.303711	13.860000	456.820007	6.090000	759.00	-0.28	-0.06	0.00	0.00	0.00	0.00	0.00	0.00	0.00	0.00	0.00	0.25	0.50	0.00	0.00	0.00	0.00	0.00	1.640625	0.976074	1.537598	35.420002	-199.220001	-123.270004	9.00	0.00	0.00
2.88	16.25	15.50	9.50	10.25	3.25	5.50	0.00	0.50	0.00	0.25	1.00	1.75	2.25	0.00	0.00	0.50	-1.525879	-0.402832	6.573242	33.389999	448.980011	-83.300003	750.00	-0.28	-0.08	0.00	0.00	0.00	0.00	0.00	0.00	0.00	0.00	0.00	0.00	0.00	0.00	0.00	0.00	0.00	0.00	0.948730	1.107422	0.832520	-0.770000	-227.220001	-101.290001	0.00	0.00	0.00
2.89	16.25	16.50	11.75	12.00	7.25	10.00	0.00	3.50	0.75	0.25	1.25	2.00	3.00	0.75	1.00	1.00	-1.058594	1.432129	3.808594	16.940001	327.040009	-96.110001	1005.00	-0.23	-0.10	0.00	0.00	0.00	0.00	0.00	0.00	0.00	0.00	0.00	0.00	0.00	0.00	0.00	0.00	0.00	0.00	0.772949	1.252441	0.756836	7.560000	-217.350006	-82.459999	0.00	0.00	0.00
2.90	23.50	20.25	13.50	14.00	8.50	12.25	0.25	6.75	0.75	0.50	1.00	2.00	5.00	1.00	1.00	1.00	-0.683105	0.918457	2.171875	-34.930000	231.070007	-28.840000	1291.00	-0.22	-0.10	0.00	0.00	0.00	0.00	0.00	0.00	0.00	0.00	0.00	0.00	0.00	0.00	0.00	0.00	0.00	0.00	0.756836	1.322754	0.675781	37.799999	-213.639999	-63.980000	0.00	0.00	0.00
2.91	21.75	18.75	12.75	13.75	8.75	12.75	0.25	7.75	1.25	0.75	1.25	2.25	5.25	1.00	1.00	1.00	-0.453125	0.017578	2.115234	-106.959999	149.449997	3.360000	1288.00	-0.21	-0.11	0.00	0.00	0.00	0.00	0.00	0.00	0.00	0.00	0.00	0.00	0.00	0.00	0.00	0.00	0.00	0.00	0.653809	1.182617	0.991699	67.690002	-224.210007	-42.840000	0.00	0.00	0.00
2.92	20.00	18.25	12.50	13.50	9.00	13.50	0.25	8.50	1.50	1.00	1.25	2.25	6.25	1.00	1.25	1.00	-0.075684	-0.047363	0.949707	-88.340004	86.800003	0.490000	1300.00	-0.20	-0.12	0.00	0.00	0.00	0.00	0.00	0.00	0.00	0.00	0.00	0.00	0.00	0.00	0.00	0.00	0.00	0.00	0.627441	0.977539	1.082031	80.360001	-242.970001	-14.980000	0.00	0.00	0.00
2.93	19.00	17.50	12.75	13.50	9.50	13.75	0.50	9.00	1.75	1.25	1.25	2.25	7.50	0.75	1.25	1.00	-0.143555	0.340820	1.116211	-85.820000	80.290001	-3.080000	1322.00	-0.19	-0.12	0.00	0.00	0.00	0.00	0.00	0.00	0.00	0.00	0.00	0.00	0.00	0.00	0.00	0.00	0.00	0.00	0.613770	0.832031	1.138672	71.470001	-264.880005	16.520000	0.00	0.00	0.00
2.94	18.75	17.25	12.50	13.50	10.00	14.50	0.50	9.50	1.50	1.25	1.25	2.50	7.75	1.25	1.00	1.25	-0.395996	0.327148	1.208008	-83.230003	49.630001	-0.560000	1342.00	-0.18	-0.12	0.00	0.00	0.00	0.00	0.00	0.00	0.00	0.00	0.00	0.00	0.00	0.00	0.00	0.00	0.00	0.00	0.506348	0.816406	1.167480	57.330002	-285.600006	45.150002	0.00	0.00	0.00
2.95	19.00	17.50	12.75	13.75	10.75	14.75	0.75	9.75	1.75	1.25	1.25	2.00	8.00	1.00	1.25	1.25	-0.172852	0.131348	1.058594	-76.860001	25.340000	-1.820000	1374.00	-0.18	-0.12	0.00	0.00	0.00	0.00	0.00	0.00	0.00	0.00	0.00	0.00	0.00	0.00	0.00	0.00	0.00	0.00	0.379883	0.790039	1.255371	53.970001	-304.220001	67.129997	0.00	0.00	0.00
2.96	19.50	17.50	13.00	13.50	11.50	15.00	0.75	10.00	1.50	1.50	1.25	2.25	8.00	1.25	1.25	1.00	-0.123047	0.146973	1.002441	-51.660000	12.810000	-4.270000	1399.00	-0.18	-0.12	0.00	0.00	0.00	0.00	0.00	0.00	0.00	0.00	0.00	0.00	0.00	0.00	0.00	0.00	0.00	0.00	0.102539	0.597656	1.316895	80.570000	-339.989990	91.769997	0.00	0.00	0.00
2.97	19.50	17.50	13.00	13.50	12.00	15.00	0.75	10.00	1.75	1.50	1.50	2.25	8.00	1.25	1.00	0.75	-0.082520	0.097168	1.004395	-41.860001	14.210000	-2.870000	1407.00	-0.18	-0.12	0.00	0.00	0.00	0.00	0.00	0.00	0.00	0.00	0.00	0.00	0.00	0.00	0.00	0.00	0.00	0.00	-0.028809	0.478516	1.318359	97.160004	-352.380005	95.620003	0.00	0.00	0.00
2.98	19.25	17.00	13.00	13.25	12.25	14.75	1.00	10.25	2.00	1.75	1.50	2.50	8.25	1.25	1.25	1.25	-0.101562	0.082520	1.006836	-31.990000	15.820000	-2.310000	1422.00	-0.17	-0.12	0.00	0.00	0.00	0.00	0.00	0.00	0.00	0.00	0.00	0.00	0.00	0.00	0.00	0.00	0.00	0.00	-0.149414	0.362305	1.342285	111.300003	-358.959991	95.480003	0.00	0.00	0.00
2.99	18.75	16.75	12.50	13.00	12.25	14.50	1.00	10.25	1.75	1.50	1.50	2.00	8.50	1.25	1.25	1.00	-0.131836	0.102539	1.011230	-23.730000	15.260000	-0.630000	1390.00	-0.17	-0.12	0.00	0.00	0.00	0.00	0.00	0.00	0.00	0.00	0.00	0.00	0.00	0.00	0.00	0.00	0.00	0.00	-0.241211	0.276367	1.413574	123.900002	-360.220001	92.050003	0.00	0.00	0.00
3.00	18.25	16.25	12.50	13.00	12.50	14.75	1.00	10.25	2.00	1.75	1.50	2.50	8.75	1.75	1.25	1.25	-0.125000	0.091309	0.989258	-17.500000	14.210000	0.910000	1406.00	-0.16	-0.12	0.00	0.00	0.00	0.00	0.00	0.00	0.00	0.00	0.00	0.00	0.00	0.00	0.00	0.00	0.00	0.00	-0.297852	0.212891	1.556641	135.940002	-359.029999	85.959999	0.00	0.00	0.00
3.01	18.00	16.00	12.25	12.75	12.50	14.50	1.00	10.25	2.00	2.00	1.75	2.75	9.00	1.25	1.50	1.50	-0.100098	0.113770	0.964355	-13.230000	13.650000	1.470000	1402.00	-0.16	-0.12	0.00	0.00	0.00	0.00	0.00	0.00	0.00	0.00	0.00	0.00	0.00	0.00	0.00	0.00	0.00	0.00	-0.333984	0.172363	1.732422	147.699997	-358.190002	78.120003	0.00	0.00	0.00
3.02	17.00	15.25	12.00	12.50	12.75	14.25	1.25	10.25	1.75	2.00	1.75	2.75	9.25	1.50	1.25	1.25	-0.101562	0.119629	0.952637	-12.320000	14.210000	0.980000	1378.00	-0.16	-0.12	0.00	0.00	0.00	0.00	0.00	0.00	0.00	0.00	0.00	0.00	0.00	0.00	0.00	0.00	0.00	0.00	-0.401855	0.144043	1.906250	157.919998	-360.079987	69.019997	0.00	0.00	0.00
3.03	16.50	15.00	11.75	12.25	12.50	14.00	1.25	10.50	2.00	2.25	1.75	2.75	9.25	1.25	1.75	1.25	-0.120117	0.117188	0.973145	-13.790000	15.330000	0.840000	1372.00	-0.15	-0.12	0.00	0.00	0.00	0.00	0.00	0.00	0.00	0.00	0.00	0.00	0.00	0.00	0.00	0.00	0.00	0.00	-0.514648	0.127930	2.000000	168.210007	-362.600006	59.360001	0.00	0.00	0.00
3.04	15.50	14.25	11.50	12.00	12.25	14.00	1.25	10.50	2.25	2.50	2.00	3.00	9.25	1.75	1.50	1.50	-0.129883	0.088867	0.987305	-13.090000	16.520000	1.400000	1360.00	-0.14	-0.12	0.00	0.00	0.00	0.00	0.00	0.00	0.00	0.00	0.00	0.00	0.00	0.00	0.00	0.00	0.00	0.00	-0.681152	0.139648	2.019043	182.279999	-361.829987	48.439999	0.00	0.00	0.00
3.05	15.00	13.75	11.00	11.75	12.00	13.75	1.25	10.25	2.25	2.00	2.25	3.25	9.50	1.50	1.25	1.50	-0.116211	0.096191	0.982422	-9.520000	17.080000	1.750000	1327.00	-0.14	-0.13	0.00	0.00	0.00	0.00	0.00	0.00	0.00	0.00	0.00	0.00	0.00	0.00	0.00	0.00	0.00	0.00	-0.836914	0.211914	2.113770	202.649994	-353.360016	35.700001	0.00	0.00	0.00
3.06	14.00	13.00	10.75	11.50	11.75	13.50	1.25	10.25	2.50	2.50	2.25	3.25	9.75	1.50	1.50	1.75	-0.112793	0.092773	0.969727	-5.950000	18.340000	1.330000	1312.00	-0.13	-0.13	0.00	0.00	0.00	0.00	0.00	0.00	0.00	0.00	0.00	0.00	0.00	0.00	0.00	0.00	0.00	0.00	-1.041504	0.298340	2.254395	221.339996	-338.660004	27.090000	0.00	0.00	0.00
3.07	12.50	12.25	10.25	11.00	11.50	13.25	1.25	10.25	2.25	2.50	2.25	3.50	10.00	1.75	1.50	1.75	-0.118652	0.101074	0.971191	-3.430000	19.389999	0.210000	1273.00	-0.12	-0.13	0.00	0.00	0.00	0.00	0.00	0.00	0.00	0.00	0.00	0.00	0.00	0.00	0.00	0.00	0.00	0.00	-1.305176	0.375000	2.493164	224.279999	-324.100006	29.960001	0.00	0.00	0.00
3.08	11.75	11.50	9.75	11.00	11.25	13.00	1.25	10.25	2.75	2.50	2.50	4.00	10.25	2.00	1.50	1.75	-0.115723	0.104004	0.953125	-2.100000	19.530001	-0.910000	1266.00	-0.11	-0.13	0.00	0.00	0.00	0.00	0.00	0.00	0.00	0.00	0.00	0.00	0.00	0.00	0.00	0.00	0.00	0.00	-1.696289	0.736816	3.145508	202.160004	-317.730011	74.199997	0.00	0.00	0.00
3.09	10.75	11.00	9.50	10.50	10.75	12.75	1.25	10.25	2.50	2.75	2.75	4.25	10.50	1.75	1.50	1.50	-0.121582	0.110840	0.955078	-1.820000	19.389999	-2.310000	1235.00	-0.11	-0.14	0.00	0.00	0.00	0.00	0.00	0.00	0.00	0.00	0.00	0.00	0.00	0.00	0.00	0.00	0.00	0.00	-2.132812	0.879395	3.193848	198.729996	-325.989990	99.120003	0.00	0.00	0.00
3.10	10.00	10.25	9.25	10.25	10.50	12.50	1.25	10.25	2.50	3.00	2.75	4.50	10.75	2.00	1.75	2.25	-0.125977	0.125000	0.954590	-2.730000	19.250000	-4.270000	1225.00	-0.10	-0.14	0.00	0.00	0.00	0.00	0.00	0.00	0.00	0.00	0.00	0.00	0.00	0.00	0.00	0.00	0.00	0.00	-2.633301	0.770996	2.848145	211.399994	-333.059998	125.650002	0.00	0.00	0.00
3.11	9.50	9.50	9.25	9.75	10.00	12.50	1.25	10.25	3.00	3.00	3.00	5.00	11.00	2.00	1.50	2.00	-0.142090	0.112305	0.956055	-5.460000	17.710001	-4.550000	1213.00	-0.09	-0.14	0.00	0.00	0.00	0.00	0.00	0.00	0.00	0.00	0.00	0.00	0.00	0.00	0.00	0.00	0.00	0.00	-3.004395	0.263184	2.170898	240.449997	-325.640015	152.180008	0.00	0.00	0.00
3.12	8.75	9.00	8.75	9.75	9.75	12.00	1.50	10.25	3.00	3.25	3.50	5.50	11.25	2.00	2.00	2.50	-0.150391	0.101074	0.964844	-5.880000	16.799999	-3.570000	1214.00	-0.08	-0.14	0.00	0.00	0.00	0.00	0.00	0.00	0.00	0.00	0.00	0.00	0.00	0.00	0.00	0.00	0.00	0.00	-3.516113	-0.553711	1.684570	279.929993	-294.559998	187.949997	0.00	0.00	0.00
3.13	8.75	8.50	8.75	9.50	9.75	12.00	1.50	10.25	3.00	3.50	3.50	6.00	11.50	2.00	1.75	2.50	-0.138184	0.089355	0.955566	-5.040000	16.240000	-2.590000	1214.00	-0.07	-0.14	0.00	0.00	0.00	0.00	0.00	0.00	0.00	0.00	0.00	0.00	0.00	0.00	0.00	0.00	0.00	0.00	-4.137207	-1.489258	1.207031	283.920013	-243.389999	236.040009	0.00	0.00	0.00
3.14	8.00	8.25	8.50	9.25	9.50	11.75	1.50	10.25	3.25	3.50	3.75	6.75	11.75	2.50	1.75	2.75	-0.144043	0.100098	0.960938	-3.500000	15.960000	-1.750000	1215.00	-0.06	-0.15	0.00	0.00	0.00	0.00	0.00	0.00	0.00	0.00	0.00	0.00	0.00	0.00	0.00	0.00	0.00	0.00	-4.849609	-2.175781	0.675781	226.169998	-181.580002	285.040009	0.00	0.00	0.00
3.15	7.25	7.75	8.25	9.00	9.25	11.75	1.50	10.25	3.25	4.00	4.00	7.00	12.25	2.25	1.75	3.00	-0.136719	0.094727	0.960449	-2.310000	16.240000	-1.050000	1208.00	-0.05	-0.15	0.00	0.00	0.00	0.00	0.00	0.00	0.00	0.00	0.00	0.00	0.00	0.00	0.00	0.00	0.00	0.00	-5.137695	-2.475098	0.116211	120.750000	-110.320000	305.410004	0.00	0.00	0.00
3.16	7.00	7.50	8.00	8.75	9.00	11.50	1.50	10.25	3.75	4.25	4.25	7.75	12.50	2.50	1.75	3.50	-0.142578	0.101074	0.957031	-1.820000	16.379999	-1.190000	1219.00	-0.04	-0.15	0.00	0.00	0.00	0.00	0.00	0.00	0.00	0.00	0.00	0.00	0.00	0.00	0.00	0.00	0.00	0.00	-4.787598	-2.313477	-0.189941	3.570000	-40.320000	268.239990	0.00	0.00	0.00
3.17	6.75	7.50	7.75	8.75	9.00	11.25	1.50	10.25	3.75	4.25	5.00	8.00	12.75	2.75	2.25	3.75	-0.150391	0.106934	0.936035	-1.960000	16.450001	-2.170000	1234.00	-0.04	-0.15	0.00	0.00	0.00	0.00	0.00	0.00	0.00	0.00	0.00	0.00	0.00	0.00	0.00	0.00	0.00	0.00	-4.095215	-1.638184	-0.248047	-63.630001	17.780001	175.000000	0.00	0.00	0.00
3.18	6.25	6.50	7.50	8.50	8.50	11.50	1.50	10.50	4.00	5.25	6.50	8.25	13.00	2.75	2.00	4.25	-0.148438	0.111816	0.948730	-2.730000	16.170000	-3.010000	1251.00	-0.02	-0.15	0.00	0.00	0.00	0.00	0.00	0.00	0.00	0.00	0.00	0.00	0.00	0.00	0.00	0.00	0.00	0.00	-4.827637	-1.521484	-0.260742	-40.180000	53.480000	56.209999	0.00	0.00	0.00
3.19	6.25	6.50	7.25	8.25	8.25	11.00	1.50	10.50	4.50	5.75	6.50	8.50	13.50	3.00	2.50	4.50	-0.155273	0.096191	0.954102	-3.360000	15.820000	-2.660000	1266.00	-0.01	-0.15	0.00	0.00	0.00	0.00	0.00	0.00	0.00	0.00	0.00	0.00	0.00	0.00	0.00	0.00	0.00	0.00	-4.185547	-2.566895	0.064941	-79.590004	136.779999	-17.710001	0.00	0.00	0.00
3.20	6.00	6.50	7.25	8.00	8.25	10.75	1.50	10.50	4.50	6.25	7.25	8.75	13.75	2.75	2.50	5.25	-0.159180	0.098633	0.949707	-2.800000	15.890000	-1.960000	1279.00	-0.01	-0.15	0.50	0.50	0.50	0.25	0.00	0.00	0.00	0.00	0.00	0.00	0.00	0.00	0.00	0.00	0.00	0.00	-0.470215	-0.014160	2.126953	-326.410004	269.570007	-67.690002	20.00	0.00	0.00
3.21	6.00	6.25	6.50	7.75	8.00	11.00	1.50	10.50	5.00	6.75	7.75	9.25	14.25	3.25	3.00	5.50	-0.163574	0.095703	0.971191	-1.820000	16.450001	-1.120000	1305.00	0.00	-0.15	3.75	4.00	2.00	1.75	0.00	0.00	0.00	0.00	0.00	0.00	0.00	0.00	0.00	0.00	0.00	0.00	0.468750	0.093262	2.694336	-203.559998	232.750000	-49.840000	128.00	-0.36	-0.04
3.22	5.50	6.00	6.25	7.50	7.75	10.50	1.50	10.50	5.00	7.50	8.00	9.75	14.50	3.75	3.00	6.25	-0.160156	0.097168	0.961914	-1.050000	17.570000	-0.560000	1310.00	0.02	-0.15	10.25	11.25	4.75	5.50	0.00	0.00	0.00	0.00	0.00	0.00	0.00	0.00	0.00	0.00	0.00	0.00	0.717285	-0.031738	1.496094	-81.410004	212.520004	-36.680000	353.00	-0.36	-0.04
3.23	5.50	6.00	6.25	7.25	7.50	10.50	1.50	10.50	5.25	7.75	8.25	10.25	15.00	4.00	3.25	6.75	-0.159180	0.097168	0.951172	-0.350000	18.690001	-0.350000	1332.00	0.02	-0.15	17.00	16.25	7.75	8.75	0.25	0.75	0.00	0.00	0.00	0.00	0.00	0.00	0.00	0.00	0.00	0.00	-1.158203	-1.219727	2.916504	-47.040001	314.929993	-77.559998	567.00	-0.36	-0.04
3.24	5.00	5.75	6.00	7.25	7.00	10.50	1.50	10.75	5.75	8.00	8.75	10.50	15.50	4.25	3.50	7.50	-0.166992	0.108398	0.954590	-0.140000	19.389999	-0.280000	1352.00	0.03	-0.15	19.50	18.50	9.50	11.25	1.00	3.50	0.00	0.75	0.00	0.00	0.00	0.00	0.50	0.00	0.00	0.00	-1.589355	2.960938	5.112793	-44.520000	386.260010	-118.160004	729.00	-0.33	-0.06
3.25	5.25	5.50	5.75	6.75	6.75	10.25	1.75	10.75	6.25	8.50	9.25	11.00	15.75	4.50	4.00	7.75	-0.156738	0.109375	0.944824	-0.770000	20.160000	0.140000	1378.00	0.04	-0.15	20.50	19.25	11.50	13.25	2.25	6.50	0.00	1.75	0.00	0.00	0.00	0.50	1.00	0.00	0.00	0.00	-1.009766	1.016602	2.793457	-44.240002	222.040009	-54.670002	874.00	-0.31	-0.08
3.26	5.00	5.50	5.50	6.75	6.50	10.00	1.50	10.25	7.00	8.75	9.50	10.75	14.75	5.00	3.50	7.75	-0.171875	0.113281	0.962891	-0.980000	22.400000	-0.350000	1356.00	0.04	-0.14	19.75	18.75	11.75	13.25	2.50	7.00	0.00	2.50	0.00	0.00	0.00	0.25	1.25	0.00	0.00	0.00	-0.511719	0.278809	0.823242	-55.930000	97.650002	3.990000	884.00	-0.30	-0.08
3.27	3.00	4.00	4.00	5.25	5.25	8.75	1.50	10.00	6.50	8.50	9.25	11.00	15.50	4.75	3.50	8.25	-0.177734	0.105469	0.969727	-0.840000	24.290001	-1.050000	1246.00	0.07	-0.15	17.50	17.00	11.25	12.75	2.75	7.25	0.25	3.50	0.00	0.00	0.25	0.25	2.25	0.00	0.00	0.00	0.170410	-0.055176	1.162598	-70.629997	85.820000	11.200000	868.00	-0.28	-0.10
3.28	2.75	3.75	3.75	5.00	5.00	8.50	1.50	10.00	7.00	9.00	9.75	11.25	15.25	5.50	5.00	9.00	-0.171875	0.108887	0.974121	-0.490000	26.740000	-1.540000	1276.00	0.09	-0.15	16.25	16.00	11.00	12.50	3.00	8.00	0.50	5.25	0.00	0.00	0.25	0.50	3.50	0.25	0.00	0.00	-0.010254	0.136230	1.079102	-63.980000	73.500000	0.840000	900.00	-0.26	-0.11
3.29	2.00	3.00	2.50	3.25	4.50	9.00	1.50	10.75	8.00	9.50	10.25	11.75	16.25	6.75	5.75	9.50	-0.210449	0.108398	0.984863	0.070000	30.380001	-1.750000	1301.00	0.11	-0.15	14.75	15.25	11.00	12.75	3.50	8.50	0.50	6.00	0.00	0.00	0.50	0.50	4.00	0.00	0.00	0.00	-0.391602	0.451660	1.169434	-75.110001	66.500000	1.750000	908.00	-0.25	-0.12
3.30	3.50	4.75	3.75	5.25	4.75	8.50	1.50	10.75	8.50	10.50	11.25	13.00	18.00	8.25	7.25	11.25	-0.167480	0.058594	0.996582	2.520000	36.259998	-1.890000	1474.00	0.10	-0.14	15.25	15.25	11.50	13.25	4.25	8.75	0.50	6.75	0.00	0.25	0.50	0.50	5.00	0.00	0.25	0.00	-0.370605	0.344727	1.133301	-80.570000	42.980000	5.810000	965.00	-0.24	-0.13
3.31	3.75	4.50	3.75	5.25	4.00	8.00	1.25	10.50	9.00	11.00	11.75	13.75	18.25	9.50	7.75	12.25	-0.205078	0.105469	0.994629	4.130000	42.420002	-2.030000	1504.00	0.11	-0.14	16.75	16.50	12.50	12.75	5.25	9.50	0.50	7.00	0.00	1.25	1.50	1.50	5.25	0.50	0.00	0.00	-0.089844	0.227539	0.884277	-83.370003	23.100000	2.870000	1065.00	-0.22	-0.12
3.32	1.75	1.75	1.75	3.25	2.50	7.00	0.75	9.25	8.25	10.50	11.25	13.25	17.00	9.25	7.50	12.25	-0.202148	0.099609	0.986328	7.770000	50.049999	-2.660000	1301.00	0.15	-0.15	17.25	17.00	13.00	14.00	6.50	9.75	0.50	7.25	0.00	0.50	0.25	0.50	5.00	0.25	0.00	0.00	-0.120117	0.173828	1.055664	-78.260002	12.670000	-0.910000	1080.00	-0.24	-0.12
3.33	3.25	4.25	3.00	2.75	2.25	7.00	0.75	9.50	9.50	11.75	12.75	14.50	18.75	12.00	8.75	14.00	-0.220703	0.116699	1.000488	11.830000	59.290001	-3.710000	1484.00	0.14	-0.14	18.25	17.00	13.50	13.75	7.00	10.25	0.50	7.50	0.25	0.50	0.50	0.75	5.25	0.50	0.00	0.00	-0.075195	0.166992	0.999023	-64.820000	12.040000	-1.680000	1124.00	-0.23	-0.11
3.34	3.00	4.50	2.75	4.25	2.25	6.25	0.50	9.00	9.75	12.00	13.00	15.00	19.00	13.25	9.50	15.25	-0.216309	0.111328	1.111328	21.280001	70.980003	-3.220000	1523.00	0.15	-0.14	17.00	16.50	13.25	13.75	7.50	10.25	0.50	7.50	0.00	0.50	0.75	0.75	6.00	0.25	0.00	0.00	-0.135254	0.116211	1.056152	-50.470001	13.020000	-0.910000	1112.00	-0.23	-0.12
3.35	2.75	4.00	2.75	4.00	1.75	6.00	0.25	8.50	10.00	12.25	13.25	15.00	18.75	14.25	10.00	16.00	-0.241699	0.112793	1.081543	31.780001	87.080002	-3.290000	1517.00	0.16	-0.13	17.00	15.75	11.75	12.50	7.75	10.25	0.75	7.75	0.25	1.50	1.00	1.25	5.75	0.25	0.25	0.25	-0.102539	0.120605	1.010742	-32.830002	11.270000	0.140000	1108.00	-0.21	-0.12
3.36	2.50	3.25	2.75	4.25	1.75	5.50	0.25	7.75	10.00	12.25	13.50	15.25	18.50	15.00	10.50	16.75	-0.208496	0.109375	1.164551	42.279999	116.550003	-3.570000	1511.00	0.17	-0.13	15.25	15.50	13.00	13.00	7.75	10.25	0.50	7.75	0.25	1.00	0.75	1.00	6.25	0.25	0.25	0.00	-0.098145	0.148926	0.974121	-21.280001	10.850000	1.330000	1094.00	-0.21	-0.12
3.37	3.00	3.75	2.50	3.00	0.75	2.75	0.00	6.75	9.75	12.25	13.25	15.50	18.25	16.00	11.25	17.50	-0.286133	0.146484	1.163086	56.980000	146.720001	-2.940000	1455.00	0.18	-0.12	15.50	13.25	11.50	11.25	7.75	9.75	0.75	7.75	0.00	0.50	0.75	1.00	6.25	0.50	1.50	1.25	-0.111328	0.165527	0.966797	-14.840000	11.340000	2.310000	1048.00	-0.20	-0.12
3.38	2.75	4.50	2.00	4.00	1.25	4.50	0.00	5.75	9.50	12.00	13.50	15.00	17.75	17.00	11.75	18.00	-0.238770	0.209961	1.160156	71.470001	184.380005	-6.790000	1480.00	0.18	-0.12	16.00	15.25	12.50	11.00	7.75	10.25	0.75	8.00	0.00	1.00	0.75	1.25	6.75	0.75	0.75	0.25	-0.144043	0.164062	0.974121	-11.760000	11.410000	2.590000	1095.00	-0.20	-0.12
3.39	3.00	2.75	2.50	3.50	1.00	4.00	0.00	4.75	9.25	11.75	13.25	15.00	17.00	18.00	12.25	18.00	-0.306641	0.207031	1.292969	71.889999	224.979996	-8.260000	1438.00	0.19	-0.11	14.00	13.00	10.50	10.25	8.00	10.00	0.75	8.00	0.25	1.25	1.25	1.25	7.00	0.50	0.50	0.75	-0.130859	0.164062	0.969238	-9.380000	9.730000	2.590000	1028.00	-0.19	-0.13
3.40	2.75	3.00	2.50	3.50	1.25	3.75	0.00	3.25	8.75	11.50	13.25	14.50	16.25	18.75	12.25	18.00	-0.393066	0.190430	1.183594	71.260002	259.279999	-11.690000	1397.00	0.19	-0.11	16.00	14.50	13.25	13.50	9.00	11.75	0.75	9.00	1.50	2.00	2.00	2.50	9.25	1.75	1.50	1.50	-0.114258	0.166016	0.958496	-8.960000	8.820000	2.310000	1286.00	-0.16	-0.12
3.41	2.00	2.75	3.25	3.75	0.50	3.75	0.00	3.50	8.50	11.00	13.00	14.00	15.00	19.25	12.50	18.00	-0.378906	0.365723	1.389648	60.549999	303.869995	-25.129999	1371.00	0.20	-0.11	14.25	13.75	12.75	13.50	9.00	11.75	0.75	9.00	1.50	2.00	2.00	2.50	9.50	1.75	2.25	2.00	-0.124023	0.151855	0.977539	-7.700000	8.890000	1.610000	1266.00	-0.15	-0.13
3.42	2.00	3.00	2.75	3.50	1.00	3.25	0.00	2.50	8.00	10.50	12.75	13.50	13.75	19.50	12.50	17.50	-0.482422	0.340332	1.319824	45.849998	326.410004	-32.830002	1314.00	0.20	-0.10	13.50	12.50	12.50	13.00	8.75	11.50	0.75	9.00	1.75	2.25	2.25	2.75	10.00	2.00	2.25	1.75	-0.103027	0.160645	0.965332	-5.740000	9.590000	0.910000	1248.00	-0.14	-0.13
3.43	2.50	2.50	3.00	3.25	0.75	3.25	0.00	3.25	7.50	9.75	12.50	12.75	12.50	20.00	12.25	16.50	-0.507812	0.409180	1.528320	34.790001	360.149994	-45.920002	1281.00	0.20	-0.10	12.75	11.75	11.75	12.50	8.75	11.50	1.00	9.25	1.50	2.25	2.25	3.25	10.25	2.00	2.25	1.75	-0.111816	0.161621	0.962891	-5.530000	10.500000	0.210000	1230.00	-0.13	-0.13
3.44	0.25	1.50	0.75	1.00	0.00	1.00	0.00	1.25	5.25	8.75	11.25	11.00	10.25	17.00	10.00	13.50	-0.495117	0.541504	1.861328	23.309999	399.209991	-60.830002	951.00	0.25	-0.10	8.75	8.25	11.00	11.75	8.25	11.00	1.00	9.25	1.75	2.25	2.25	2.50	10.25	2.00	2.50	2.00	-0.122070	0.163086	0.951660	-5.670000	10.430000	-2.590000	1118.00	-0.11	-0.14
3.45	0.75	0.75	0.25	0.50	0.25	1.50	0.00	1.25	3.75	8.25	11.00	10.50	9.00	16.75	9.50	11.50	-0.681641	0.714355	1.469238	23.240000	444.920013	-78.540001	879.00	0.26	-0.10	8.00	7.25	8.25	10.00	8.25	9.75	0.75	8.75	0.25	2.00	2.00	2.75	9.75	0.75	1.00	1.00	-0.120117	0.165527	0.956543	-6.650000	10.220000	-3.710000	954.00	-0.12	-0.16
3.46	0.00	1.50	1.75	1.75	0.50	2.75	0.00	2.25	4.50	8.25	11.50	10.75	8.00	15.50	8.50	8.75	-0.913086	0.575684	1.790039	13.580000	503.369995	-100.590004	916.00	0.22	-0.10	8.00	7.75	9.25	10.00	7.75	10.25	0.75	9.50	1.25	2.50	2.50	4.25	11.00	2.25	2.25	2.00	-0.121094	0.160645	0.955078	-7.140000	10.220000	-4.270000	1073.00	-0.09	-0.16
3.47	0.75	1.50	0.25	0.25	0.00	0.75	0.00	1.25	1.75	6.75	9.50	9.00	6.25	15.00	7.75	7.25	-1.108887	0.872559	2.360840	-8.330000	543.619995	-115.360001	704.00	0.25	-0.10	7.50	6.75	9.00	10.50	8.00	11.00	1.00	9.50	1.75	2.50	2.75	4.75	11.50	2.50	3.00	2.50	-0.120605	0.155762	0.955078	-7.280000	10.500000	-3.920000	1111.00	-0.07	-0.16
3.48	1.50	2.50	1.50	1.50	0.25	2.00	0.00	1.50	2.75	6.75	9.25	9.00	6.50	13.50	6.25	5.50	-1.240723	0.638672	2.595215	22.400000	546.909973	-120.050003	747.00	0.19	-0.09	7.50	7.25	9.00	10.25	7.75	10.75	1.00	9.75	1.75	2.75	2.75	5.00	12.00	2.75	3.25	2.75	-0.129883	0.152832	0.959473	-6.510000	10.220000	-3.290000	1128.00	-0.07	-0.16
3.49	1.25	2.25	1.25	1.50	0.25	2.50	0.00	1.50	2.50	5.50	8.00	7.75	5.25	10.00	4.50	3.50	-1.687988	0.931641	3.183594	41.439999	543.200012	-119.209999	622.00	0.18	-0.10	5.25	5.25	6.50	8.25	6.75	10.25	1.00	9.75	2.25	2.50	3.00	6.00	12.25	3.00	3.50	3.25	-0.133789	0.153320	0.973633	-6.510000	9.940000	-2.660000	1039.00	-0.03	-0.17
3.50	1.75	1.75	1.75	1.75	0.25	2.25	0.00	1.00	2.25	4.50	6.50	5.25	2.25	7.50	3.25	2.00	-1.056152	0.604004	3.176758	59.779999	505.890015	-123.760002	485.00	0.14	-0.07	6.00	5.25	8.25	9.25	7.50	10.75	1.00	9.75	2.25	3.00	3.25	6.50	12.75	2.75	3.75	3.50	-0.131348	0.159668	0.949219	-6.090000	9.730000	-2.170000	1117.00	-0.04	-0.16
3.51	0.25	0.50	0.25	0.00	0.00	1.00	0.00	0.25	0.00	1.50	3.75	3.25	1.75	4.50	1.50	0.50	-0.522949	0.674316	3.158691	62.790001	465.779999	-131.389999	203.00	0.22	-0.11	6.25	5.75	8.00	9.25	7.50	10.50	1.00	9.75	2.25	3.00	3.75	7.50	13.00	3.00	4.00	4.00	-0.124512	0.155273	0.950684	-6.300000	9.870000	-2.380000	1147.00	-0.03	-0.16
3.52	0.50	0.75	0.50	0.25	0.00	0.75	0.00	0.25	0.00	1.75	2.50	2.25	1.75	1.25	1.00	0.75	0.011719	0.252441	1.065918	65.800003	458.709991	-141.330002	154.00	0.14	-0.15	5.50	5.50	7.50	8.75	7.50	10.50	1.00	10.00	2.00	3.00	3.50	7.75	13.25	3.25	4.25	4.50	-0.131836	0.160156	0.948730	-6.860000	9.940000	-2.590000	1135.00	-0.02	-0.17
3.53	0.50	0.00	0.75	0.75	0.00	1.00	0.00	0.00	0.25	1.25	1.50	1.00	1.25	0.25	0.50	0.25	0.674316	0.870605	2.263184	77.349998	426.649994	-144.690002	104.00	0.07	-0.13	5.50	5.25	7.25	8.75	7.25	10.75	1.00	10.00	2.00	2.75	5.50	8.25	13.00	3.50	4.50	4.75	-0.134766	0.149414	0.961426	-7.280000	9.940000	-2.870000	1159.00	-0.02	-0.17
3.54	1.00	0.25	0.25	0.00	0.00	0.75	0.00	0.00	0.00	1.00	1.00	0.50	0.25	0.00	0.25	0.00	0.180176	0.772949	2.625977	115.919998	344.119995	-153.930008	60.00	0.01	-0.08	5.75	5.00	6.75	8.25	7.25	10.50	1.00	10.00	2.00	2.50	5.00	8.00	12.50	3.50	5.00	4.75	-0.136230	0.153809	0.958984	-7.210000	10.010000	-3.290000	1134.00	-0.01	-0.17
3.55	0.25	0.25	0.00	0.25	0.00	0.25	0.00	0.00	0.00	1.00	1.00	0.25	0.00	0.00	0.50	0.00	0.427734	1.773926	3.628418	136.639999	237.160004	-168.559998	43.00	0.00	0.00	4.25	4.25	5.25	6.50	6.00	8.50	0.75	9.00	1.50	3.25	6.50	8.75	13.50	3.25	4.50	4.75	-0.137695	0.149414	0.962891	-7.210000	9.940000	-3.010000	1039.00	0.01	-0.18
3.56	0.25	0.00	0.50	0.25	0.00	0.25	0.00	0.00	0.00	0.75	0.50	0.00	0.00	0.00	0.25	0.00	1.199707	0.673340	2.137207	-53.340000	-155.470001	-68.459999	32.00	0.00	0.00	4.50	3.25	5.25	7.25	6.75	9.00	1.00	10.00	2.50	3.75	7.50	9.50	14.75	4.25	5.75	5.25	-0.141602	0.151367	0.959473	-5.530000	10.780000	-2.730000	1155.00	0.03	-0.17
3.57	0.00	0.50	0.25	0.50	0.00	0.25	0.00	0.00	0.00	0.50	0.25	0.00	0.00	0.00	0.25	0.00	0.770508	0.986328	1.139648	-85.750000	-213.220001	-56.770000	28.00	0.00	0.00	4.75	4.00	5.00	7.25	6.25	8.75	0.75	10.00	2.75	4.25	7.75	9.75	15.25	4.50	6.00	5.75	-0.135742	0.145508	0.953613	-4.970000	11.480000	-2.590000	1177.00	0.03	-0.17
3.58	0.00	0.00	0.25	0.00	0.00	0.00	0.00	0.00	0.00	0.25	0.25	0.00	0.00	0.00	0.00	0.00	0.742676	1.003906	0.773926	-40.810001	-219.940002	-61.110001	9.00	0.00	0.00	4.25	3.50	4.00	5.75	6.00	9.75	0.75	9.00	2.00	3.75	8.00	9.75	14.25	3.50	5.50	5.50	-0.139160	0.145020	0.959473	-4.550000	12.530000	-2.730000	1089.00	0.04	-0.18
3.59	0.25	0.00	0.00	0.25	0.00	0.25	0.00	0.00	0.00	0.00	0.00	0.00	0.00	0.00	0.00	0.00	0.663086	0.923828	0.704102	23.450001	-222.320007	-71.190002	9.00	0.00	0.00	1.00	1.50	3.50	5.50	5.50	8.25	0.75	9.75	3.00	5.00	8.00	9.75	14.00	3.50	5.50	5.75	-0.138184	0.149414	0.964844	-4.060000	13.440001	-2.940000	1039.00	0.07	-0.19
3.60	0.00	0.00	0.00	0.00	0.00	0.00	0.00	0.00	0.00	0.00	0.00	0.00	0.00	0.00	0.00	0.00	0.567871	0.688965	0.832031	71.610001	-232.680008	-77.279999	0.00	0.00	0.00	0.00	0.75	1.75	4.00	5.00	7.75	0.75	9.00	1.50	4.25	8.00	10.00	14.50	4.25	5.75	6.25	-0.145020	0.155273	0.962891	-3.850000	14.980000	-3.780000	947.00	0.10	-0.21
3.61	0.50	2.00	1.25	1.75	0.50	1.75	0.00	0.75	1.25	1.00	0.75	0.50	1.25	0.75	0.75	0.50	0.484375	0.586426	0.902832	89.669998	-247.449997	-74.340004	175.00	-0.03	-0.11	2.25	2.50	4.00	5.25	6.25	8.25	0.75	9.50	2.00	4.50	8.75	10.75	15.00	4.75	6.25	6.75	-0.155762	0.151367	0.968750	-3.640000	16.520000	-5.040000	1107.00	0.07	-0.19
3.62	0.75	1.25	0.00	0.00	0.00	0.00	0.00	0.00	0.00	0.00	0.00	0.75	1.25	0.50	0.50	0.50	0.417480	0.482422	0.989258	79.940002	-266.000000	-61.459999	55.00	0.01	-0.18	1.25	1.00	2.25	4.50	5.00	8.75	1.00	10.25	4.25	7.75	10.00	12.00	15.75	5.75	7.25	8.00	-0.157227	0.151367	0.969238	-4.060000	17.780001	-5.600000	1191.00	0.11	-0.18
3.63	1.25	1.25	0.75	0.50	0.00	0.00	0.00	0.00	0.00	0.00	0.00	0.00	0.00	0.00	0.00	0.00	0.324707	0.516113	1.025391	58.799999	-284.549988	-41.090000	42.00	0.00	0.00	1.25	1.50	2.00	3.50	4.50	7.50	0.75	9.25	3.25	7.00	9.50	11.50	15.75	6.00	6.75	7.75	-0.153809	0.144043	0.961426	-4.620000	18.690001	-5.810000	1100.00	0.12	-0.18
3.64	0.00	0.00	0.00	0.00	0.00	0.00	0.00	0.00	0.00	0.00	0.00	0.00	0.00	0.00	0.00	0.00	0.246094	0.583496	1.034668	37.450001	-301.630005	-17.219999	0.00	0.00	0.00	0.50	0.75	1.75	3.25	4.00	7.00	0.75	9.25	2.75	7.50	10.00	11.75	16.25	6.75	7.00	8.00	-0.155762	0.152832	0.957031	-4.830000	19.809999	-6.230000	1089.00	0.13	-0.19
3.65	0.00	0.00	0.00	0.00	0.00	0.00	0.00	0.00	0.00	0.00	0.00	0.00	0.00	0.00	0.00	0.00	0.158203	0.635254	1.039551	24.780001	-316.470001	6.370000	0.00	0.00	0.00	0.50	1.00	1.50	2.75	3.50	6.75	0.50	9.25	3.50	7.75	10.25	12.00	16.50	7.50	7.50	8.50	-0.161621	0.154297	0.963867	-4.760000	20.719999	-6.440000	1107.00	0.14	-0.18
