# time	left pressure 1[N/cm²]	left pressure 2[N/cm²]	left pressure 3[N/cm²]	left pressure 4[N/cm²]	left pressure 5[N/cm²]	left pressure 6[N/cm²]	left pressure 7[N/cm²]	left pressure 8[N/cm²]	left pressure 9[N/cm²]	left pressure 10[N/cm²]	left pressure 11[N/cm²]	left pressure 12[N/cm²]	left pressure 13[N/cm²]	left pressure 14[N/cm²]	left pressure 15[N/cm²]	left pressure 16[N/cm²]	left acceleration X[g]	left acceleration Y[g]	left acceleration Z[g]	left angular X[dps]	left angular Y[dps]	left angular Z[dps]	left total force[N]	left center of pressure X[%]	left center of pressure Y[%]	right pressure 1[N/cm²]	right pressure 2[N/cm²]	right pressure 3[N/cm²]	right pressure 4[N/cm²]	right pressure 5[N/cm²]	right pressure 6[N/cm²]	right pressure 7[N/cm²]	right pressure 8[N/cm²]	right pressure 9[N/cm²]	right pressure 10[N/cm²]	right pressure 11[N/cm²]	right pressure 12[N/cm²]	right pressure 13[N/cm²]	right pressure 14[N/cm²]	right pressure 15[N/cm²]	right pressure 16[N/cm²]	right acceleration X[g]	right acceleration Y[g]	right acceleration Z[g]	right angular X[dps]	right angular Y[dps]	right angular Z[dps]	right total force[N]	right center of pressure X[%]	right center of pressure Y[%]
0.00	0.75	1.25	1.25	2.25	1.50	1.50	0.50	1.25	2.50	1.25	1.75	1.25	1.75	2.25	0.50	0.00	-0.183594	0.043945	0.957031	-2.240000	6.230000	-1.190000	234.00	0.03	-0.06																									
0.01	0.50	1.25	1.50	2.25	1.25	1.25	0.50	1.25	2.50	1.00	1.25	1.25	1.75	2.50	0.25	0.25	-0.183594	0.041016	0.959961	-2.100000	6.300000	-0.910000	222.00	0.03	-0.06																									
0.02	0.50	1.50	1.50	2.25	1.50	1.25	0.75	1.25	2.25	1.25	1.50	1.50	1.75	2.50	0.25	0.25	-0.189941	0.038574	0.965332	-1.960000	6.300000	-0.910000	235.00	0.03	-0.06																									
0.03	0.75	1.25	1.25	2.25	1.25	1.00	0.50	1.25	2.50	1.25	1.75	1.50	2.00	2.25	0.25	0.25	-0.193848	0.040039	0.958496	-1.890000	6.370000	-0.910000	229.00	0.04	-0.07	1.00	1.25	1.75	3.25	2.50	2.75	1.75	4.75	4.00	3.75	4.00	3.75	6.25	5.75	0.75	1.25	-0.129883	0.064453	0.981445	-1.890000	-3.010000	2.030000	524.00	0.08	-0.10
0.04	0.50	0.75	1.50	2.25	1.25	1.50	0.75	1.25	2.50	1.25	1.50	1.25	1.75	2.25	0.50	0.25	-0.186035	0.037109	0.964355	-1.960000	6.300000	-0.910000	229.00	0.05	-0.06	0.75	1.50	1.75	3.25	2.50	2.75	1.75	4.75	3.75	3.75	4.00	4.00	6.25	5.75	0.50	1.25	-0.131348	0.062988	0.988770	-1.890000	-3.080000	1.960000	520.00	0.08	-0.11
0.05	0.50	1.00	1.25	2.25	1.50	1.25	0.75	1.25	2.50	1.25	1.50	1.50	1.75	2.50	0.25	0.25	-0.181152	0.041992	0.957031	-2.030000	6.160000	-0.980000	231.00	0.05	-0.06	0.75	1.50	1.75	2.75	2.50	2.75	1.75	4.50	4.50	3.75	4.00	3.75	6.25	5.75	0.75	1.50	-0.136719	0.068848	0.982910	-1.820000	-2.800000	1.890000	522.00	0.09	-0.10
0.06	0.50	1.50	0.75	2.25	1.50	1.25	0.75	1.25	2.25	1.25	1.50	1.50	1.75	2.50	0.50	0.25	-0.184082	0.043945	0.953125	-2.100000	6.020000	-1.050000	230.00	0.05	-0.07	0.75	1.00	1.75	2.50	2.50	3.00	1.75	4.75	4.25	4.00	4.00	4.25	6.25	5.75	0.75	1.25	-0.135254	0.070801	0.984375	-1.890000	-2.660000	1.890000	525.00	0.10	-0.10
0.07	0.50	1.25	1.25	2.50	1.25	1.25	0.50	1.25	2.25	1.25	1.50	1.25	1.75	2.75	0.25	0.25	-0.190918	0.041016	0.956543	-2.100000	6.370000	-1.260000	226.00	0.04	-0.07	1.00	1.00	1.50	2.75	2.50	2.75	1.75	5.00	4.25	3.50	4.00	4.00	6.75	6.00	0.75	1.50	-0.135254	0.066406	0.985352	-1.890000	-2.660000	1.820000	528.00	0.10	-0.11
0.08	0.50	1.25	1.25	2.50	1.50	1.25	0.75	1.25	2.50	1.50	1.50	1.25	1.75	2.50	0.25	0.25	-0.183594	0.040527	0.961426	-2.170000	6.370000	-1.330000	236.00	0.04	-0.06	0.75	1.50	1.50	2.75	2.50	2.50	1.75	4.75	4.25	3.75	4.00	4.00	6.50	5.75	0.50	1.50	-0.134766	0.069336	0.989258	-1.820000	-2.520000	1.890000	519.00	0.09	-0.10
0.09	0.50	1.25	1.25	2.25	1.50	1.25	0.50	1.25	2.75	1.25	1.50	1.50	1.75	2.25	0.50	0.25	-0.186035	0.040039	0.958496	-2.170000	6.370000	-1.260000	233.00	0.05	-0.06	0.75	1.25	1.50	3.00	2.50	2.75	1.75	5.00	4.25	3.50	4.00	3.75	6.75	6.25	0.75	1.25	-0.134277	0.072754	0.985840	-1.820000	-2.450000	1.890000	529.00	0.09	-0.11
0.10	0.50	1.25	1.50	2.25	1.50	1.25	0.75	1.25	2.75	1.75	1.50	1.25	1.75	2.25	0.25	0.00	-0.188965	0.044434	0.958496	-2.170000	6.440000	-1.190000	239.00	0.04	-0.05	0.75	1.00	1.75	2.75	2.50	2.75	1.75	5.00	4.25	3.75	3.75	4.00	6.50	6.00	0.75	1.50	-0.139648	0.071289	0.990234	-2.030000	-2.310000	1.750000	526.00	0.10	-0.10
0.11	0.50	1.00	1.50	2.25	1.50	1.25	0.75	1.25	2.75	1.25	1.50	1.25	1.75	2.50	0.50	0.25	-0.183105	0.041504	0.955566	-1.960000	6.440000	-1.260000	237.00	0.05	-0.05	0.75	1.25	1.75	2.50	2.50	2.75	1.75	4.75	4.00	3.25	4.00	4.00	6.50	6.00	0.50	1.50	-0.132324	0.065918	0.984375	-2.100000	-2.380000	1.890000	514.00	0.09	-0.11
0.12	0.50	0.75	1.25	2.25	1.50	1.25	0.75	1.25	2.75	1.25	1.75	1.25	2.00	2.50	0.50	0.00	-0.188477	0.041504	0.959961	-1.960000	7.000000	-1.400000	236.00	0.06	-0.05	0.75	1.25	1.50	2.75	2.50	2.75	1.75	5.00	4.25	3.75	4.00	4.00	6.75	6.25	0.75	1.50	-0.138672	0.068848	0.987305	-2.100000	-2.310000	1.960000	533.00	0.10	-0.11
0.13	0.75	1.25	1.50	2.50	1.50	1.25	0.50	1.00	2.75	1.25	1.50	1.25	2.00	2.50	0.00	0.25	-0.185059	0.045410	0.957031	-1.890000	6.930000	-1.190000	234.00	0.03	-0.05	0.75	1.25	1.50	3.00	2.50	2.75	1.75	5.00	4.25	3.50	4.00	3.75	6.75	6.25	0.50	1.50	-0.137695	0.065430	0.987305	-2.240000	-2.590000	1.820000	528.00	0.09	-0.11
0.14	0.50	1.50	1.25	2.25	1.50	1.25	0.50	1.25	2.75	1.50	1.50	1.25	1.75	2.75	0.50	0.25	-0.190918	0.044922	0.965820	-1.820000	6.930000	-1.190000	240.00	0.05	-0.05	0.75	1.50	1.50	3.00	2.25	3.00	1.75	5.00	4.25	3.50	4.25	4.00	6.75	6.50	0.50	1.25	-0.134277	0.068848	0.983398	-2.030000	-2.590000	1.890000	536.00	0.09	-0.11
0.15	0.50	1.25	1.50	2.25	1.50	1.00	0.75	1.25	2.75	1.25	1.75	1.25	1.75	2.50	0.50	0.25	-0.186035	0.039062	0.964355	-1.680000	6.790000	-1.260000	239.00	0.05	-0.05	0.75	1.00	1.50	3.00	2.50	2.75	1.75	5.00	4.25	3.50	4.00	3.75	6.75	6.50	0.75	1.25	-0.137695	0.065430	0.984375	-2.100000	-2.590000	1.890000	529.00	0.10	-0.10
0.16	0.50	1.00	1.25	2.25	1.50	1.00	0.75	1.00	2.50	1.25	1.50	1.25	1.75	2.75	0.25	0.25	-0.186523	0.040527	0.962891	-1.820000	6.930000	-1.260000	224.00	0.05	-0.04	1.00	1.25	1.75	3.00	2.50	2.50	1.75	5.00	4.25	3.50	4.00	4.00	7.00	6.25	0.50	1.50	-0.139160	0.071289	0.989258	-2.170000	-2.450000	1.890000	535.00	0.09	-0.11
0.17	0.50	1.25	1.25	2.25	1.50	1.00	0.75	1.25	2.75	1.50	1.50	1.25	1.75	2.75	0.50	0.25	-0.183105	0.040527	0.960449	-1.750000	7.000000	-1.400000	239.00	0.06	-0.05	0.50	1.25	1.50	2.50	2.50	2.50	1.75	5.00	4.25	3.50	3.75	4.25	6.75	6.25	0.50	1.25	-0.133301	0.068848	0.983398	-2.240000	-2.310000	1.820000	518.00	0.10	-0.11
0.18	0.50	1.50	1.75	2.25	1.50	1.25	0.75	1.25	2.50	1.50	1.50	1.25	1.75	2.50	0.50	0.25	-0.189941	0.039062	0.964844	-1.750000	7.070000	-1.400000	244.00	0.04	-0.05	0.75	1.00	1.75	2.50	2.50	2.75	2.00	5.00	4.25	3.25	4.00	4.00	6.75	6.75	0.75	1.25	-0.139648	0.072754	0.984375	-2.240000	-2.030000	1.680000	532.00	0.10	-0.10
0.19	0.50	1.50	1.25	2.25	1.50	1.25	0.75	1.25	2.75	1.50	1.50	1.25	1.75	2.75	0.25	0.25	-0.187988	0.041992	0.963379	-1.680000	6.860000	-1.330000	241.00	0.05	-0.05	0.50	1.25	1.50	2.75	2.50	2.50	2.00	5.00	4.25	3.75	4.00	4.00	6.75	6.50	0.75	1.25	-0.134277	0.061523	0.980469	-2.240000	-1.960000	1.820000	532.00	0.10	-0.10
0.20	0.50	1.25	1.50	2.50	1.50	1.25	0.75	1.25	2.75	1.25	1.75	1.25	1.75	2.50	0.50	0.00	-0.189941	0.045410	0.963867	-1.750000	7.070000	-1.330000	244.00	0.04	-0.05	0.75	1.50	1.50	2.75	2.25	2.75	1.75	5.00	4.25	3.50	4.00	4.00	7.00	6.75	0.75	1.00	-0.134277	0.064453	0.981934	-2.240000	-1.890000	1.750000	533.00	0.10	-0.11
0.21	0.75	1.00	1.25	2.25	1.50	1.25	0.75	1.25	2.50	1.75	1.75	1.25	1.75	2.25	0.50	0.25	-0.185547	0.037109	0.961426	-1.470000	7.070000	-1.470000	239.00	0.05	-0.05	0.75	1.25	1.50	2.50	2.25	2.25	2.00	5.00	4.25	3.50	4.00	3.75	7.00	6.75	0.50	1.25	-0.134277	0.064941	0.983398	-2.240000	-1.750000	1.610000	523.00	0.10	-0.10
0.22	0.50	1.25	1.25	2.00	1.25	1.25	0.75	1.25	2.75	1.50	1.75	1.50	1.75	3.00	0.50	0.25	-0.186523	0.040039	0.960938	-1.470000	7.070000	-1.330000	243.00	0.07	-0.05	0.75	1.00	1.75	2.75	2.25	2.50	2.00	5.00	4.25	3.50	4.00	4.00	7.00	7.00	0.75	1.50	-0.136230	0.067871	0.986816	-2.100000	-1.680000	1.610000	537.00	0.10	-0.10
0.23	0.75	1.25	1.50	2.25	1.25	1.25	0.75	1.25	2.75	1.50	1.75	1.50	1.75	2.50	0.25	0.25	-0.187012	0.042480	0.961914	-1.400000	7.350000	-1.330000	245.00	0.04	-0.05	0.75	1.00	1.50	2.25	2.25	2.50	1.75	5.00	4.25	3.50	4.00	4.00	7.00	7.00	0.75	1.50	-0.132324	0.069336	0.980957	-2.310000	-1.610000	1.540000	525.00	0.11	-0.10
0.24	0.25	1.75	1.25	2.00	1.50	1.25	0.75	1.25	3.00	1.50	1.75	1.25	2.00	2.75	0.50	0.00	-0.188477	0.044434	0.958496	-1.260000	7.420000	-1.330000	247.00	0.06	-0.05	0.75	1.00	1.50	2.50	2.25	2.50	2.00	5.00	4.25	3.50	4.00	4.00	7.25	7.00	0.75	1.25	-0.137207	0.066895	0.990234	-2.450000	-1.540000	1.400000	533.00	0.11	-0.10
0.25	0.50	1.25	1.00	2.00	1.50	1.00	0.75	1.25	2.75	1.75	1.50	1.50	2.00	2.75	0.50	0.00	-0.186035	0.040527	0.963379	-1.260000	7.490000	-1.400000	239.00	0.07	-0.05	0.75	1.00	1.75	2.50	2.25	2.50	2.00	5.00	4.25	3.75	4.25	4.00	7.00	7.00	0.50	1.50	-0.144531	0.067871	0.987793	-2.800000	-1.750000	1.400000	537.00	0.11	-0.10
0.26	0.50	1.25	1.25	2.25	1.25	1.25	0.75	1.25	2.75	1.25	1.75	1.25	2.00	2.75	0.50	0.00	-0.186523	0.036133	0.959473	-1.330000	7.630000	-1.470000	240.00	0.06	-0.05	0.50	1.00	1.25	2.50	2.25	2.25	2.00	5.00	4.25	3.75	3.75	4.00	7.25	7.50	0.25	1.50	-0.140625	0.064941	0.981934	-2.870000	-1.680000	1.540000	525.00	0.11	-0.10
0.27	0.75	1.25	1.25	2.25	1.25	1.25	0.75	1.25	2.75	1.25	1.75	1.50	2.00	2.75	0.50	0.25	-0.191406	0.043457	0.957520	-1.330000	7.700000	-1.610000	246.00	0.05	-0.06	0.50	1.00	1.50	2.50	2.25	2.50	2.00	5.00	4.25	3.50	4.00	4.00	7.25	7.50	0.75	1.50	-0.132812	0.073730	0.980957	-2.800000	-1.540000	1.470000	536.00	0.11	-0.10
0.28	0.50	0.75	1.25	2.25	1.50	1.25	0.75	1.25	2.75	1.50	1.75	1.50	2.25	3.00	0.25	0.25	-0.188965	0.040527	0.960449	-1.400000	7.490000	-1.610000	246.00	0.07	-0.05	0.50	1.25	1.25	2.50	2.25	2.50	2.00	5.25	4.25	3.50	4.00	4.00	7.25	7.50	0.75	1.50	-0.133301	0.070312	0.982422	-2.940000	-1.120000	1.470000	539.00	0.11	-0.11
0.29	0.50	1.50	1.25	2.25	1.25	1.25	0.75	1.25	3.00	1.75	1.75	1.25	2.00	2.75	0.25	0.25	-0.189453	0.045898	0.958984	-1.330000	7.560000	-1.680000	249.00	0.06	-0.05	0.75	1.00	1.25	2.75	2.25	2.00	2.00	5.00	4.50	3.75	4.00	4.00	7.00	8.00	0.75	1.50	-0.138184	0.066895	0.989746	-3.360000	-0.910000	1.400000	541.00	0.12	-0.09
0.30	0.50	1.00	1.50	2.25	1.50	1.00	0.75	1.25	3.00	1.50	1.75	1.50	2.00	2.50	0.50	0.00	-0.187988	0.042969	0.962402	-1.330000	7.770000	-1.750000	246.00	0.06	-0.05	0.50	1.00	1.50	2.00	2.00	2.00	2.00	5.00	4.50	3.50	4.00	4.00	7.00	7.75	0.75	1.50	-0.141602	0.069336	0.987305	-3.640000	-0.630000	1.190000	525.00	0.12	-0.09
0.31	0.25	1.00	1.25	2.25	1.25	1.00	0.75	1.25	3.00	1.75	1.75	1.75	2.00	3.00	0.50	0.25	-0.190430	0.044922	0.958496	-1.190000	7.910000	-1.680000	249.00	0.08	-0.05	0.50	1.00	1.25	2.25	2.00	2.25	2.00	5.00	4.75	3.50	4.00	4.00	7.25	7.75	0.75	1.75	-0.141602	0.063477	0.981934	-3.570000	-0.770000	1.050000	535.00	0.12	-0.10
0.32	0.25	0.75	1.00	2.25	1.25	1.00	0.75	1.25	3.00	1.50	1.75	1.50	2.00	2.75	0.50	0.25	-0.193848	0.040039	0.957520	-0.980000	7.700000	-1.260000	237.00	0.08	-0.05	0.50	0.75	1.25	2.00	2.25	2.25	2.00	4.75	4.75	3.50	4.00	4.25	7.25	8.00	0.75	1.75	-0.141602	0.063477	0.981934	-3.570000	-0.770000	1.050000	533.00	0.13	-0.09
0.33	0.50	0.75	1.00	2.00	1.25	1.00	0.75	1.25	3.00	1.75	1.75	1.50	2.00	3.00	0.50	0.25	-0.193848	0.040039	0.959473	-1.120000	7.770000	-1.330000	241.00	0.09	-0.04	0.75	0.75	1.25	1.75	2.00	2.00	2.00	5.00	4.75	3.75	4.00	3.75	7.25	8.25	0.75	1.75	-0.144043	0.067871	0.984375	-3.430000	-0.910000	1.190000	531.00	0.13	-0.09
0.34	0.50	1.00	1.25	2.25	1.25	1.00	0.75	1.25	3.00	1.75	1.75	1.75	2.25	3.25	0.50	0.25	-0.193848	0.042969	0.957520	-1.050000	7.980000	-1.470000	256.00	0.08	-0.05	0.50	1.00	1.25	2.25	2.00	1.75	2.00	5.00	4.50	3.75	4.00	4.00	7.25	8.50	0.75	1.50	-0.137695	0.070801	0.981445	-3.850000	-0.980000	1.120000	534.00	0.13	-0.09
0.35	0.75	1.00	1.25	2.25	1.25	1.00	0.75	1.25	3.00	1.50	1.75	1.50	1.75	2.75	0.50	0.25	-0.191895	0.041992	0.960938	-1.050000	8.120000	-1.470000	245.00	0.06	-0.04	0.25	0.75	1.25	2.00	2.25	1.75	2.00	4.75	4.75	3.75	4.00	3.75	7.00	8.50	0.75	1.50	-0.140137	0.069336	0.984375	-4.060000	-1.050000	1.050000	523.00	0.14	-0.09
0.36	0.50	0.75	1.25	1.75	1.25	1.00	0.75	1.25	3.00	1.75	2.00	1.50	2.00	2.75	0.25	0.25	-0.193848	0.042969	0.965332	-1.050000	7.980000	-1.470000	239.00	0.08	-0.04	0.50	0.75	1.25	2.25	2.00	1.75	2.00	5.00	4.75	3.50	3.75	4.00	7.00	8.75	0.75	1.50	-0.145996	0.056152	0.988281	-4.060000	-1.260000	0.910000	529.00	0.13	-0.09
0.37	0.50	1.00	1.00	2.00	1.25	1.00	0.75	1.25	3.50	1.50	2.00	1.50	2.00	3.00	0.50	0.25	-0.190430	0.043457	0.956543	-1.120000	7.910000	-1.470000	250.00	0.09	-0.04	0.50	1.00	1.50	2.00	2.00	1.50	2.00	4.75	4.75	3.50	4.00	4.00	7.25	8.75	0.75	1.50	-0.137207	0.064941	0.991211	-3.920000	-1.400000	1.120000	530.00	0.13	-0.09
0.38	0.25	1.25	1.00	2.50	1.25	1.00	0.75	1.25	3.25	1.75	1.75	1.50	2.25	2.75	0.25	0.25	-0.187988	0.047363	0.957520	-1.050000	7.770000	-1.540000	249.00	0.07	-0.05	0.25	0.75	1.50	2.25	2.00	1.50	2.00	4.75	4.75	3.50	4.00	4.00	7.25	8.75	1.00	1.75	-0.143555	0.062500	0.985840	-3.710000	-1.330000	1.260000	532.00	0.14	-0.09
0.39	0.50	0.75	1.00	2.00	1.25	1.00	0.75	1.25	3.00	1.75	2.00	1.50	2.00	3.00	0.50	0.25	-0.196777	0.037598	0.958984	-1.190000	7.630000	-1.610000	244.00	0.09	-0.04	0.50	1.00	1.00	2.25	2.00	1.50	2.00	4.50	4.75	3.50	3.75	4.00	7.00	8.75	0.75	1.75	-0.142578	0.066895	0.985352	-3.430000	-1.400000	1.260000	520.00	0.14	-0.08
0.40	0.25	1.00	1.00	1.75	1.25	1.00	0.75	1.25	3.25	1.50	1.75	1.50	1.75	2.75	0.25	0.25	-0.195801	0.040039	0.959473	-1.260000	7.630000	-1.540000	232.00	0.09	-0.04	0.50	0.75	1.00	2.00	1.75	1.50	2.00	4.50	4.75	3.50	3.75	3.75	7.00	8.75	0.75	1.75	-0.142090	0.066895	0.979980	-3.570000	-1.470000	1.190000	509.00	0.14	-0.08
0.41	0.25	1.00	1.00	2.00	1.25	1.00	0.75	1.25	3.00	1.75	2.00	1.75	2.00	3.00	0.25	0.25	-0.193359	0.043945	0.958496	-1.190000	7.490000	-1.400000	244.00	0.09	-0.05	0.25	0.75	1.25	2.00	2.00	1.50	2.00	4.25	4.50	3.75	3.75	4.00	7.00	9.00	1.00	1.50	-0.145020	0.069336	0.988770	-3.710000	-1.400000	1.050000	514.00	0.14	-0.08
0.42	0.25	1.25	1.00	2.00	1.25	1.25	0.75	1.25	3.00	1.75	2.00	1.50	2.00	3.00	0.50	0.25	-0.192871	0.043945	0.958496	-1.050000	7.140000	-1.330000	249.00	0.08	-0.05	0.50	0.75	1.25	2.00	2.00	1.50	2.25	4.25	5.25	3.50	3.75	3.75	7.25	9.00	0.75	1.50	-0.142578	0.065918	0.989746	-3.920000	-1.400000	1.120000	524.00	0.14	-0.07
0.43	0.25	0.75	1.00	1.75	1.25	0.75	0.75	1.50	3.75	1.50	2.00	1.75	2.00	3.00	0.50	0.25	-0.193359	0.039551	0.957031	-1.120000	6.930000	-1.400000	250.00	0.11	-0.04	0.50	1.00	1.00	2.25	1.75	1.25	2.00	4.25	5.25	3.75	3.75	4.00	7.00	9.00	0.75	1.75	-0.142578	0.062012	0.982422	-3.990000	-1.540000	1.050000	522.00	0.14	-0.08
0.44	0.50	0.75	1.25	2.00	1.25	1.00	0.75	1.25	3.25	1.75	2.00	1.50	2.25	3.50	0.25	0.25	-0.192383	0.041992	0.960938	-1.260000	6.930000	-1.400000	254.00	0.09	-0.04	0.50	1.00	1.25	2.00	1.75	1.25	2.25	4.00	5.50	3.50	4.00	3.75	7.00	9.00	0.75	1.75	-0.146973	0.061035	0.979492	-3.990000	-1.820000	1.190000	523.00	0.14	-0.07
0.45	0.50	1.00	1.25	2.25	1.25	1.00	0.75	1.50	3.25	1.75	2.00	1.75	2.25	3.00	0.50	0.25	-0.195801	0.040039	0.959473	-1.260000	6.930000	-1.400000	264.00	0.08	-0.05	0.50	1.00	1.00	2.00	2.00	1.00	2.25	4.25	5.50	3.75	3.50	4.00	7.00	9.00	1.00	1.75	-0.141602	0.063477	0.991699	-3.850000	-2.030000	1.400000	526.00	0.15	-0.07
0.46	0.50	1.00	1.00	1.75	1.25	1.00	0.75	1.25	3.25	1.75	2.00	1.75	2.25	2.75	0.50	0.25	-0.193848	0.040039	0.963379	-1.400000	7.000000	-1.540000	249.00	0.09	-0.05	0.50	0.75	1.25	2.00	1.75	1.25	2.25	4.25	5.50	3.50	3.75	3.75	7.00	9.25	0.75	1.75	-0.148438	0.067383	0.985840	-3.710000	-2.170000	1.400000	524.00	0.15	-0.07
0.47	0.25	0.75	1.00	1.75	1.25	1.00	0.75	1.50	3.00	1.75	1.75	1.75	2.25	3.25	0.50	0.25	-0.195801	0.041016	0.958496	-1.470000	6.860000	-1.540000	247.00	0.10	-0.05	0.25	0.75	1.25	1.75	1.75	1.00	2.25	4.25	5.50	3.75	3.75	3.75	7.00	9.25	0.75	1.75	-0.144531	0.057617	0.979980	-3.710000	-2.240000	1.400000	518.00	0.15	-0.07
0.48	0.50	1.00	1.25	2.00	1.25	1.00	0.75	1.25	3.50	2.00	2.00	1.75	2.25	3.25	0.50	0.25	-0.200195	0.035645	0.963379	-1.470000	6.930000	-1.400000	265.00	0.09	-0.04	0.25	1.00	1.25	2.25	1.75	1.25	2.25	4.00	5.50	3.50	3.75	3.75	7.25	9.25	0.75	1.50	-0.147949	0.062988	0.983398	-3.570000	-2.520000	1.400000	523.00	0.14	-0.07
0.49	0.25	1.00	0.75	1.75	1.25	1.00	0.75	1.25	3.25	1.75	2.00	1.75	2.25	3.50	0.50	0.25	-0.201660	0.044434	0.960449	-1.540000	7.070000	-1.470000	250.00	0.11	-0.04	0.00	0.50	1.50	1.75	1.75	1.25	2.25	4.00	5.50	3.50	3.75	4.00	7.00	9.25	0.75	1.75	-0.152832	0.064941	0.987305	-3.570000	-2.590000	1.470000	515.00	0.16	-0.07
0.50	0.50	0.75	1.25	1.75	1.00	1.00	0.75	1.50	3.00	1.75	2.00	1.75	2.25	3.25	0.50	0.25	-0.194824	0.041992	0.955566	-1.190000	6.790000	-1.260000	252.00	0.09	-0.05	0.50	1.00	1.25	1.50	1.75	1.00	2.25	4.00	5.50	3.75	3.75	3.50	7.25	9.25	0.75	1.75	-0.148438	0.062500	0.987793	-3.430000	-2.660000	1.470000	516.00	0.15	-0.06
0.51	0.25	1.00	1.00	2.00	1.25	1.00	0.75	1.50	3.25	1.75	2.00	1.75	2.25	3.50	0.50	0.25	-0.195312	0.041504	0.960449	-1.190000	6.580000	-1.190000	260.00	0.10	-0.05	0.50	1.00	1.25	2.00	2.00	1.00	2.25	4.00	5.50	3.50	3.50	3.50	7.00	9.25	0.75	1.75	-0.144531	0.063965	0.985840	-3.290000	-2.800000	1.540000	517.00	0.14	-0.06
0.52	0.25	1.00	1.00	1.75	1.25	1.00	0.75	1.50	3.50	1.75	2.00	2.00	2.25	3.50	0.50	0.25	-0.198242	0.043945	0.958496	-1.330000	6.650000	-1.050000	263.00	0.10	-0.05	0.25	0.25	1.25	1.75	1.75	1.00	2.00	4.00	5.50	3.75	3.50	3.75	7.25	9.25	0.75	1.75	-0.151855	0.058105	0.982910	-3.150000	-2.660000	1.610000	505.00	0.16	-0.07
0.53	0.25	1.00	1.00	2.00	1.25	1.25	0.75	1.50	3.75	2.00	2.00	1.75	2.50	3.25	0.50	0.25	-0.199219	0.041504	0.958496	-1.260000	6.580000	-1.050000	272.00	0.10	-0.05	0.25	0.50	1.25	2.25	1.75	1.00	2.25	4.00	5.50	3.75	3.75	3.75	7.00	9.50	0.75	1.50	-0.141602	0.059570	0.979980	-3.570000	-2.310000	1.540000	518.00	0.15	-0.06
0.54	0.50	1.25	1.00	2.00	1.25	1.25	0.75	1.50	3.50	2.00	2.00	1.75	2.25	3.50	0.50	0.25	-0.198242	0.037598	0.958984	-1.190000	6.860000	-1.120000	273.00	0.09	-0.05	0.75	0.75	1.25	1.75	1.75	1.00	2.25	4.00	5.50	3.50	3.75	3.50	7.00	9.25	0.75	1.75	-0.149414	0.067871	0.984863	-3.710000	-2.310000	1.470000	514.00	0.15	-0.06
0.55	0.25	1.00	1.00	2.00	1.25	1.00	0.75	1.50	3.75	2.00	2.25	1.75	2.50	3.75	0.50	0.25	-0.192383	0.042480	0.960449	-1.190000	6.650000	-1.050000	276.00	0.11	-0.04	0.75	1.00	0.75	2.00	1.75	1.00	2.25	3.75	5.75	3.75	3.50	3.50	7.00	9.50	0.75	1.75	-0.146484	0.061523	0.986328	-3.710000	-2.240000	1.330000	515.00	0.15	-0.06
0.56	0.25	0.75	1.00	1.75	1.25	1.00	0.75	1.50	3.50	2.00	2.25	1.50	2.25	3.50	0.25	0.25	-0.197266	0.046875	0.959473	-1.190000	6.720000	-1.190000	258.00	0.11	-0.04	0.25	1.00	1.25	2.00	1.75	1.00	2.25	4.00	6.00	3.50	3.75	3.75	7.00	9.50	1.00	1.75	-0.149902	0.053223	0.987793	-3.710000	-2.240000	1.330000	528.00	0.15	-0.06
0.57	0.50	1.00	1.25	1.75	1.25	1.00	0.75	1.25	3.75	2.00	2.00	1.75	2.25	3.25	0.50	0.25	-0.201660	0.037109	0.956543	-1.330000	6.860000	-1.260000	266.00	0.10	-0.03	0.50	0.75	1.25	2.00	1.75	0.50	2.25	3.75	5.75	3.50	3.50	3.50	6.75	9.50	0.75	1.75	-0.145996	0.061035	0.984863	-3.780000	-2.310000	1.330000	506.00	0.15	-0.05
0.58	0.50	1.25	0.75	2.00	1.25	0.75	0.75	1.50	3.50	1.75	2.00	2.00	2.50	3.50	0.50	0.25	-0.196777	0.040527	0.957031	-1.260000	7.140000	-1.330000	267.00	0.10	-0.05	0.50	1.00	1.00	2.00	1.75	0.75	2.25	3.75	5.75	3.50	3.50	3.50	7.00	9.50	0.75	1.75	-0.150879	0.058594	0.989258	-3.710000	-2.380000	1.330000	510.00	0.15	-0.06
0.59	0.25	0.75	1.25	1.75	1.25	1.00	0.75	1.50	3.50	1.75	2.00	1.75	2.50	3.50	0.50	0.25	-0.196777	0.038086	0.958984	-1.330000	6.930000	-1.330000	263.00	0.10	-0.05	0.25	0.75	1.25	2.00	1.75	1.00	2.25	3.75	5.50	3.50	3.75	3.50	7.00	9.50	0.75	1.75	-0.145508	0.061035	0.980957	-3.710000	-2.380000	1.400000	510.00	0.15	-0.06
0.60	0.00	0.75	1.00	1.75	1.25	1.00	0.75	1.50	3.75	2.00	2.00	2.00	2.50	3.50	0.50	0.25	-0.198730	0.042969	0.960449	-1.400000	6.930000	-1.190000	266.00	0.12	-0.05	0.50	0.75	1.50	1.75	1.75	0.75	2.25	3.75	5.75	3.75	3.75	3.25	6.75	9.25	0.75	1.50	-0.142090	0.063965	0.982910	-3.780000	-2.520000	1.400000	508.00	0.15	-0.05
0.61	0.50	0.75	1.00	1.75	1.00	1.00	0.75	1.50	3.50	2.00	2.25	2.00	2.25	3.50	0.50	0.25	-0.198730	0.042969	0.960449	-1.400000	6.930000	-1.190000	266.00	0.11	-0.05	0.50	0.50	1.00	1.75	1.75	1.00	2.25	3.50	6.00	3.50	3.50	3.25	6.75	9.75	0.75	1.75	-0.140137	0.061035	0.979980	-3.850000	-2.450000	1.330000	502.00	0.16	-0.05
0.62	0.25	1.00	0.75	1.75	1.00	1.00	0.75	1.50	3.75	1.75	2.25	1.75	2.50	3.50	0.50	0.25	-0.192871	0.038574	0.957520	-1.400000	6.930000	-1.190000	263.00	0.11	-0.05	0.50	0.75	1.25	2.00	1.75	1.00	2.50	3.50	6.00	3.75	3.50	3.50	6.75	9.75	0.75	1.75	-0.143555	0.062500	0.992676	-3.920000	-2.380000	1.190000	519.00	0.15	-0.05
0.63	0.25	0.75	1.00	1.75	1.00	1.00	0.75	1.50	3.75	1.75	2.00	1.75	2.25	3.50	0.50	0.25	-0.197266	0.042969	0.958008	-1.330000	6.790000	-0.980000	259.00	0.11	-0.04	0.50	0.25	1.00	2.00	1.50	0.75	2.50	3.50	6.00	3.75	3.50	3.50	7.00	9.75	0.75	1.50	-0.149902	0.063965	0.989258	-3.850000	-2.310000	1.190000	507.00	0.16	-0.05
0.64	0.50	1.25	1.00	1.75	1.00	1.25	0.75	1.25	3.75	2.00	2.25	1.75	2.50	3.25	0.50	0.25	-0.195312	0.038086	0.961914	-1.330000	6.860000	-1.050000	270.00	0.10	-0.04	0.50	0.50	1.00	2.25	1.75	0.75	2.25	3.50	6.25	3.50	3.50	3.25	7.00	9.75	0.75	1.75	-0.148926	0.055664	0.990234	-3.780000	-2.380000	1.260000	511.00	0.16	-0.05
0.65	0.25	1.00	1.00	1.75	1.00	1.25	0.75	1.50	4.00	2.00	2.25	2.00	2.25	3.25	0.75	0.25	-0.192383	0.044922	0.961426	-1.400000	6.860000	-0.980000	275.00	0.11	-0.04	0.50	1.00	1.25	2.00	1.75	0.50	2.25	3.50	6.00	3.50	3.25	3.50	7.00	9.25	1.00	1.50	-0.148926	0.057129	0.986816	-3.570000	-2.380000	1.260000	506.00	0.15	-0.05
0.66	0.50	0.50	1.00	1.75	1.25	1.00	0.75	1.50	3.25	1.75	2.25	1.75	2.50	3.50	0.50	0.25	-0.195312	0.042480	0.959473	-1.400000	6.720000	-1.050000	260.00	0.11	-0.05	0.50	1.00	1.25	2.00	1.75	0.75	2.25	3.50	6.00	3.50	3.50	3.50	6.75	10.00	0.75	1.50	-0.151855	0.059082	0.986328	-3.290000	-2.380000	1.540000	513.00	0.15	-0.05
0.67	0.25	0.75	1.00	1.75	1.25	1.00	0.75	1.50	3.75	2.00	2.25	2.00	2.50	3.50	0.50	0.25	-0.199707	0.044922	0.958496	-1.400000	6.580000	-1.050000	271.00	0.11	-0.05	0.25	0.75	1.25	2.25	1.75	0.75	2.25	3.25	6.00	3.50	3.25	3.50	6.75	9.75	0.75	1.75	-0.153809	0.059570	0.979004	-3.150000	-2.660000	1.610000	504.00	0.16	-0.05
0.68	0.25	0.75	0.75	2.00	1.25	1.00	0.75	1.50	4.00	2.00	2.25	2.00	2.50	3.25	0.50	0.25	-0.194336	0.043457	0.964355	-1.400000	6.510000	-1.120000	272.00	0.11	-0.05	0.25	0.75	1.25	1.75	1.75	0.75	2.25	3.25	6.25	3.75	3.50	3.25	6.75	10.00	0.50	1.75	-0.145996	0.056641	0.986816	-3.010000	-2.800000	1.680000	504.00	0.16	-0.04
0.69	0.25	0.50	1.00	1.75	1.25	1.00	0.75	1.50	3.75	2.00	2.25	2.00	2.50	3.50	0.50	0.25	-0.193359	0.040527	0.959473	-1.470000	6.860000	-1.330000	269.00	0.12	-0.04	0.25	0.75	1.00	1.75	1.75	0.75	2.50	3.25	6.00	3.50	3.50	3.25	6.75	10.00	0.75	1.75	-0.146973	0.058105	0.984863	-3.080000	-2.940000	1.680000	501.00	0.16	-0.04
0.70	0.25	0.75	1.00	1.75	1.25	1.00	0.75	1.50	3.75	2.00	2.25	2.00	2.25	3.50	0.25	0.25	-0.194336	0.041504	0.962891	-1.540000	7.000000	-1.400000	266.00	0.11	-0.04	0.50	0.75	1.25	1.50	1.75	0.75	2.25	3.50	6.00	3.75	3.50	3.25	6.50	9.75	0.75	1.75	-0.151855	0.063965	0.987793	-3.360000	-2.800000	1.540000	502.00	0.16	-0.04
0.71	0.50	0.75	1.00	1.75	1.25	1.25	0.75	1.50	3.50	2.00	2.25	2.00	2.50	3.50	0.50	0.25	-0.196289	0.043457	0.959473	-1.540000	6.790000	-1.260000	273.00	0.10	-0.05	0.25	0.75	1.25	2.00	1.75	0.75	2.50	3.25	6.00	3.50	3.25	3.25	6.50	9.75	0.75	1.50	-0.148438	0.054199	0.984375	-3.500000	-3.010000	1.470000	499.00	0.16	-0.04
0.72	0.25	0.75	1.00	2.00	1.25	1.00	0.75	1.50	4.00	2.00	2.25	2.00	2.50	3.50	0.50	0.25	-0.190430	0.038574	0.963867	-1.540000	6.790000	-1.190000	277.00	0.11	-0.04	0.50	0.75	1.25	2.00	1.75	0.75	2.50	3.25	6.00	3.50	3.50	3.50	6.50	10.00	0.75	1.50	-0.153320	0.057617	0.986328	-3.500000	-2.870000	1.470000	509.00	0.16	-0.04
0.73	0.50	0.75	1.00	1.75	1.00	1.25	0.75	1.75	3.75	2.00	2.25	2.00	2.75	4.00	0.50	0.25	-0.196777	0.049805	0.957520	-1.540000	6.580000	-1.050000	284.00	0.11	-0.05	0.50	0.75	1.25	1.75	1.75	0.75	2.50	3.25	6.25	3.50	3.50	3.50	6.50	10.00	0.75	1.50	-0.145508	0.062988	0.991211	-3.500000	-3.010000	1.330000	509.00	0.16	-0.04
0.74	0.25	0.75	0.75	1.75	1.00	1.00	0.75	1.50	4.00	2.25	2.00	2.00	2.50	3.50	0.50	0.25	-0.196777	0.042969	0.960449	-1.680000	6.440000	-1.050000	269.00	0.12	-0.04	0.50	1.00	1.00	2.25	1.75	0.50	2.25	3.25	6.25	3.50	3.25	3.25	6.75	9.75	0.75	1.75	-0.149902	0.059570	0.985352	-3.500000	-2.940000	1.330000	504.00	0.16	-0.04
0.75	0.25	0.50	1.00	1.50	1.25	1.00	0.75	1.50	3.75	2.00	2.25	2.00	2.50	3.50	0.50	0.25	-0.197754	0.041016	0.954102	-1.750000	6.580000	-1.190000	266.00	0.12	-0.04	0.50	1.00	1.25	1.75	1.50	0.50	2.25	3.25	6.25	3.50	3.50	3.25	6.50	9.75	0.75	1.75	-0.143555	0.055664	0.984863	-3.080000	-2.800000	1.470000	499.00	0.16	-0.04
0.76	0.25	0.75	1.00	1.75	1.00	1.25	0.75	1.50	3.75	2.00	2.25	2.00	2.25	3.25	0.50	0.25	-0.200684	0.041016	0.951660	-1.330000	5.530000	-0.840000	267.00	0.11	-0.05	0.25	1.00	1.50	2.00	1.75	0.50	2.50	3.25	6.00	3.50	3.25	3.25	6.50	9.75	1.00	1.75	-0.144531	0.054199	0.984375	-2.730000	-2.590000	1.610000	505.00	0.16	-0.04
0.77	0.25	1.00	1.00	1.75	1.25	1.25	0.75	1.50	4.00	1.75	2.00	2.00	2.50	3.50	0.50	0.25	-0.197754	0.036133	0.952148	-1.120000	5.040000	-0.490000	274.00	0.11	-0.04	0.50	0.50	1.25	2.00	1.75	0.25	2.25	3.25	6.00	3.50	3.25	3.00	6.25	9.75	0.75	1.75	-0.145020	0.056152	0.982910	-2.380000	-2.380000	1.890000	486.00	0.16	-0.04
0.78	0.25	1.00	1.00	1.75	1.25	1.25	0.75	1.75	3.75	2.00	2.25	1.75	2.50	3.75	0.50	0.25	-0.203613	0.038574	0.952148	-0.630000	4.270000	-0.070000	280.00	0.11	-0.05	0.25	1.00	1.25	2.00	1.75	0.50	2.25	3.25	6.00	3.50	3.50	3.00	6.25	9.75	0.75	1.50	-0.150879	0.060059	0.988770	-2.100000	-2.100000	2.170000	492.00	0.16	-0.04
0.79	0.25	1.00	1.00	1.50	1.25	1.50	0.75	1.50	3.75	2.00	2.25	2.25	2.50	3.50	0.50	0.25	-0.200195	0.034180	0.953125	0.070000	3.710000	0.140000	279.00	0.11	-0.05	0.50	0.75	1.00	2.00	1.75	0.50	2.25	3.00	6.00	3.75	3.25	3.00	6.25	9.50	0.75	1.75	-0.142090	0.052734	0.989258	-1.890000	-1.750000	2.240000	485.00	0.16	-0.04
0.80	0.25	1.25	1.25	2.00	1.25	1.50	0.75	1.75	3.75	2.00	2.50	2.00	2.75	3.50	0.50	0.25	-0.195312	0.039551	0.959961	0.910000	3.150000	0.420000	295.00	0.09	-0.06	0.25	0.75	1.00	1.75	1.50	0.50	2.25	3.00	6.00	3.50	3.25	3.25	6.25	9.50	0.50	1.50	-0.152344	0.061035	0.995605	-1.750000	-1.120000	2.380000	473.00	0.17	-0.04
0.81	0.50	1.00	1.25	2.00	1.25	1.50	0.75	2.00	3.75	2.00	2.50	2.00	2.75	3.50	0.50	0.25	-0.193848	0.038086	0.957031	1.890000	2.660000	1.050000	300.00	0.09	-0.06	0.50	0.75	1.25	1.50	1.50	0.50	2.25	2.75	6.00	3.25	3.25	3.00	6.25	9.25	0.75	1.50	-0.155273	0.056152	0.996094	-1.400000	-0.630000	2.590000	467.00	0.16	-0.03
0.82	0.50	1.00	1.25	2.25	1.50	1.75	0.75	2.00	4.00	2.25	2.25	1.75	2.50	3.25	0.50	0.25	-0.192871	0.044922	0.958984	2.590000	2.520000	1.610000	304.00	0.08	-0.06	0.50	0.50	1.00	1.75	1.50	0.50	2.25	3.00	5.75	3.25	3.25	3.25	6.00	9.25	0.50	1.25	-0.158691	0.059570	0.990234	-0.910000	-0.210000	2.940000	462.00	0.16	-0.04
0.83	0.50	1.00	1.50	2.25	1.50	2.00	0.75	2.25	3.75	2.00	2.25	2.00	2.75	3.25	0.50	0.25	-0.202637	0.049316	0.964355	2.660000	1.960000	1.960000	312.00	0.07	-0.07	0.50	0.50	1.00	1.75	1.50	0.25	2.25	2.75	5.50	3.50	3.00	2.75	6.00	8.75	0.75	1.25	-0.160645	0.061523	0.983398	-0.630000	-0.210000	3.360000	445.00	0.16	-0.03
0.84	0.50	1.25	1.25	2.75	1.75	2.25	0.75	2.25	3.75	2.25	2.50	2.00	2.75	3.00	0.50	0.25	-0.196777	0.053711	0.962891	2.380000	1.120000	1.820000	326.00	0.06	-0.08	0.25	0.50	1.25	2.00	1.25	0.25	2.25	2.50	5.50	3.00	3.00	3.25	5.75	9.00	0.75	1.00	-0.161621	0.057129	0.989746	-0.770000	-0.910000	3.570000	440.00	0.16	-0.03
0.85	0.75	1.25	1.25	2.50	1.75	2.50	0.75	2.50	3.50	1.75	2.00	2.00	2.50	2.75	0.50	0.25	-0.207520	0.053223	0.960938	1.260000	-1.470000	1.540000	314.00	0.05	-0.08	0.50	0.50	1.00	1.75	1.50	0.25	2.25	2.50	5.50	3.00	3.00	2.75	5.75	8.75	0.50	1.00	-0.160645	0.059082	0.984375	-1.260000	-2.240000	3.850000	430.00	0.16	-0.03
0.86	0.50	1.50	1.50	3.00	2.00	2.50	0.75	2.50	3.25	2.00	2.25	2.00	3.00	3.00	0.50	0.25	-0.206543	0.050293	0.967773	0.630000	-2.800000	1.470000	333.00	0.05	-0.09	0.25	0.50	1.00	1.75	1.25	0.25	2.00	2.25	5.25	3.00	2.75	2.50	5.50	8.50	0.50	0.75	-0.163086	0.060547	0.984375	-1.540000	-4.130000	4.130000	403.00	0.17	-0.03
0.87	0.50	1.50	1.50	2.75	2.00	3.00	0.75	2.75	3.00	2.00	2.25	1.75	2.75	2.75	0.50	0.25	-0.195312	0.049805	0.964844	0.280000	-3.990000	1.330000	330.00	0.04	-0.10	0.25	0.75	1.00	2.00	1.50	0.25	2.00	2.00	5.00	2.75	2.50	2.50	5.25	8.00	0.50	0.50	-0.170410	0.056641	0.979492	-1.680000	-6.930000	4.200000	391.00	0.15	-0.03
0.88	1.00	1.75	1.75	3.25	2.25	3.50	0.75	3.00	3.00	1.75	2.00	1.75	2.75	2.50	0.25	0.25	-0.192871	0.043945	0.965332	-0.140000	-4.620000	1.260000	347.00	0.01	-0.10	0.50	1.00	1.25	2.00	1.50	0.25	2.00	2.25	4.75	2.50	2.50	2.50	5.25	7.50	0.50	0.75	-0.163086	0.061035	0.974121	-1.750000	-10.570000	4.620000	393.00	0.14	-0.04
0.89	1.00	2.00	2.00	3.75	2.50	3.75	0.75	3.25	2.75	1.75	2.00	1.75	2.75	2.50	0.25	0.25	-0.188477	0.052246	0.960449	-0.140000	-5.460000	1.050000	364.00	-0.01	-0.11	0.50	0.50	1.50	2.25	1.25	0.25	2.00	1.75	3.75	2.25	2.00	2.50	5.00	7.00	0.25	0.50	-0.162598	0.057617	0.973633	-1.890000	-14.280000	4.900000	353.00	0.13	-0.04
0.90	1.25	2.25	2.25	4.00	2.75	4.25	0.75	3.25	2.75	1.50	1.75	1.75	2.75	2.25	0.50	0.25	-0.183594	0.044434	0.963379	0.140000	-5.740000	1.190000	378.00	-0.02	-0.11	0.75	1.00	1.50	2.00	1.25	0.50	1.75	1.75	3.50	2.00	2.25	2.00	4.50	6.50	0.50	0.50	-0.162598	0.064453	0.982422	-1.890000	-16.940001	5.390000	342.00	0.12	-0.04
0.91	1.25	2.50	2.50	4.75	2.75	4.50	0.75	3.25	2.25	1.75	1.75	1.75	2.50	2.00	0.50	0.25	-0.175293	0.051270	0.967285	0.350000	-5.390000	1.050000	386.00	-0.04	-0.12	0.75	1.50	1.50	2.75	1.50	0.50	1.75	1.75	3.25	2.00	2.00	1.75	4.25	6.00	0.25	0.50	-0.148438	0.058594	0.980469	-1.960000	-18.340000	5.390000	340.00	0.09	-0.04
0.92	1.50	2.50	3.00	5.00	2.75	5.25	0.75	3.25	2.00	1.25	1.50	1.50	2.75	2.25	0.25	0.00	-0.171875	0.051270	0.959473	0.490000	-4.410000	0.840000	391.00	-0.06	-0.12	0.75	1.00	1.50	2.50	1.75	0.50	1.75	1.75	3.00	1.75	2.00	1.50	4.25	5.50	0.50	0.25	-0.135254	0.056152	0.992188	-1.540000	-18.059999	4.900000	323.00	0.09	-0.04
0.93	1.50	3.25	3.25	5.25	3.00	5.50	0.75	3.50	2.25	1.50	1.25	1.50	2.50	2.00	0.25	0.25	-0.167969	0.049316	0.967773	0.700000	-3.290000	0.770000	413.00	-0.07	-0.12	0.75	1.75	1.75	2.75	1.75	1.00	1.75	1.75	2.50	1.75	1.75	1.50	3.75	5.00	0.25	0.25	-0.133301	0.056152	1.000000	-1.540000	-18.059999	4.900000	321.00	0.06	-0.05
0.94	1.75	3.50	3.50	5.50	3.25	6.00	0.75	3.75	2.00	1.25	1.25	1.25	2.50	1.75	0.25	0.00	-0.161133	0.056641	0.968750	0.630000	-1.890000	0.840000	424.00	-0.09	-0.13	1.00	1.50	2.00	3.50	1.75	1.00	1.75	1.75	2.00	1.50	1.50	1.50	3.50	4.00	0.00	0.25	-0.118164	0.062500	0.991699	-0.210000	-16.240000	4.900000	307.00	0.03	-0.07
0.95	2.00	3.75	3.50	5.50	3.50	6.00	0.75	3.75	1.75	1.25	1.25	1.50	2.25	1.75	0.25	0.25	-0.157227	0.059082	0.963867	0.420000	-0.000000	0.700000	430.00	-0.09	-0.13	1.00	1.75	2.25	4.00	2.25	1.00	1.75	1.50	1.75	1.25	1.50	1.25	3.00	3.50	0.00	0.25	-0.107422	0.062500	0.990234	0.350000	-14.630000	4.690000	302.00	-0.00	-0.06
0.96	2.00	4.00	3.50	5.75	3.25	6.00	0.75	3.75	1.25	1.00	1.25	1.25	2.25	1.75	0.25	0.00	-0.165039	0.056152	0.966797	-0.070000	2.240000	0.210000	419.00	-0.10	-0.14	1.75	1.75	2.50	3.75	2.00	1.50	1.50	1.50	1.50	1.25	1.25	1.00	2.75	3.00	0.25	0.25	-0.117188	0.062500	0.991211	0.910000	-12.740000	4.410000	297.00	-0.03	-0.07
0.97	2.25	4.00	3.75	5.75	3.75	6.25	0.75	3.50	1.50	1.00	1.25	1.00	2.50	1.75	0.25	0.25	-0.154785	0.059570	0.967285	-0.700000	4.130000	-0.210000	433.00	-0.10	-0.13	1.50	2.00	2.50	4.25	2.25	1.25	1.50	1.50	1.50	1.25	1.25	1.00	2.50	2.00	0.25	0.25	-0.113281	0.057617	0.984375	1.540000	-11.340000	4.200000	291.00	-0.04	-0.07
0.98	2.00	4.25	3.75	5.75	3.50	6.00	0.75	3.75	1.50	0.75	1.00	1.25	2.25	1.50	0.25	0.00	-0.159180	0.062012	0.967285	-1.330000	5.670000	-0.490000	423.00	-0.11	-0.13	1.75	2.25	2.75	5.00	2.25	1.75	1.50	1.50	1.25	1.25	1.00	0.75	2.50	2.25	0.25	0.00	-0.115723	0.062012	0.972656	1.960000	-10.150000	4.130000	305.00	-0.07	-0.08
0.99	2.25	4.00	3.75	5.75	3.25	6.00	0.50	3.50	2.00	1.00	1.00	1.00	2.00	1.50	0.25	0.00	-0.160156	0.062012	0.966309	-2.170000	7.000000	-0.770000	417.00	-0.11	-0.12	2.25	2.25	3.00	5.00	2.25	2.00	1.50	1.50	1.00	1.00	1.00	0.75	2.25	1.50	0.25	0.00	-0.111328	0.058594	0.977539	2.030000	-9.170000	4.130000	301.00	-0.09	-0.08
1.00	2.00	3.75	3.50	5.75	3.25	6.00	0.50	3.25	1.75	1.00	1.25	1.00	2.00	1.25	0.25	0.00	-0.157227	0.059082	0.963379	-3.010000	8.400000	-0.980000	403.00	-0.11	-0.13	2.25	3.00	3.00	5.00	2.25	2.25	1.25	1.50	1.00	1.25	1.00	0.75	2.25	1.50	0.00	0.00	-0.106934	0.060059	0.977051	1.960000	-8.540000	4.060000	307.00	-0.10	-0.09
1.01	2.00	4.00	3.50	5.50	3.25	5.75	0.50	3.25	1.75	0.75	0.75	1.00	2.00	1.50	0.25	0.00	-0.154785	0.052246	0.962891	-3.640000	9.940000	-1.330000	394.00	-0.11	-0.13	2.50	3.25	3.25	5.25	2.50	2.25	1.50	1.50	1.25	1.00	1.00	1.00	1.75	1.25	0.00	0.00	-0.110840	0.064453	0.971680	1.540000	-8.190000	4.060000	321.00	-0.11	-0.08
1.02	2.00	3.50	3.00	5.50	3.00	5.50	0.50	3.00	1.25	0.75	1.00	1.00	1.75	1.25	0.25	0.00	-0.159180	0.057129	0.966309	-3.920000	11.410000	-1.680000	366.00	-0.12	-0.13	2.50	3.75	3.25	5.25	2.50	2.25	1.50	1.50	1.00	1.00	1.00	1.00	2.00	1.00	0.25	0.25	-0.115723	0.055664	0.970215	0.910000	-8.190000	4.130000	326.00	-0.12	-0.09
1.03	1.75	3.25	3.00	4.75	3.00	5.25	0.75	2.75	1.50	1.00	1.00	1.00	1.25	2.25	0.50	0.00	-0.156738	0.055176	0.961426	-4.200000	13.020000	-1.890000	363.00	-0.09	-0.11	2.50	3.50	3.50	5.75	2.75	2.50	1.50	1.50	0.75	1.25	1.00	1.00	1.75	1.00	0.00	0.00	-0.113281	0.067871	0.979004	0.350000	-8.820000	4.270000	331.00	-0.13	-0.09
1.04	1.50	3.00	2.75	4.50	2.50	5.00	0.50	2.75	1.75	0.75	1.00	1.00	1.50	1.50	0.00	0.00	-0.154785	0.056152	0.960449	-4.620000	14.980000	-2.520000	332.00	-0.10	-0.12	2.75	4.00	4.00	5.75	2.75	2.75	1.25	1.75	0.75	1.25	1.00	0.75	2.25	1.25	0.00	0.00	-0.111328	0.067383	0.968262	-0.630000	-9.590000	4.410000	350.00	-0.13	-0.09
1.05	1.25	2.25	2.50	4.00	2.25	4.50	0.50	2.50	1.25	1.00	1.25	1.00	1.75	1.50	0.25	0.00	-0.157227	0.056641	0.963379	-4.970000	16.870001	-2.870000	306.00	-0.08	-0.13	3.00	4.75	4.25	6.25	3.00	3.50	1.25	1.75	0.75	0.75	1.00	0.75	2.00	1.00	0.25	0.00	-0.119141	0.065430	0.972168	-1.750000	-10.500000	4.550000	372.00	-0.15	-0.10
1.06	1.00	2.25	2.00	3.50	2.00	3.75	0.50	2.50	1.50	1.00	1.00	1.25	1.75	1.50	0.25	0.00	-0.165039	0.051758	0.954590	-5.670000	22.260000	-4.830000	284.00	-0.06	-0.13	3.75	5.00	4.50	7.00	3.25	3.75	1.50	1.75	1.00	1.25	1.00	1.00	2.25	1.25	0.25	0.00	-0.120117	0.064453	0.975586	-2.310000	-11.480000	4.690000	418.00	-0.14	-0.09
1.07	0.75	1.75	1.75	3.00	1.50	3.25	0.50	2.25	1.50	1.00	1.25	0.75	1.50	1.75	0.25	0.00	-0.118164	0.045410	0.978027	-5.040000	25.340000	-6.650000	252.00	-0.04	-0.12	4.00	5.50	5.00	7.75	3.75	4.25	1.50	2.00	1.00	1.00	1.50	1.25	2.75	1.25	0.00	0.00	-0.113281	0.064941	0.979980	-2.660000	-12.320000	4.690000	460.00	-0.15	-0.10
1.08	0.50	1.50	1.25	2.50	1.25	2.50	0.50	2.00	1.75	1.00	1.25	1.25	1.50	1.75	0.25	0.00	-0.160156	0.019043	0.985840	-2.660000	30.660000	-8.890000	229.00	-0.01	-0.11	4.50	6.25	5.50	8.00	3.75	4.75	1.25	2.00	1.00	1.00	0.75	1.00	2.50	1.00	0.25	0.00	-0.118652	0.073730	0.985352	-3.150000	-13.300000	4.760000	470.00	-0.17	-0.10
1.09	0.50	1.00	1.25	2.00	1.00	1.75	0.25	1.50	1.75	1.00	1.25	1.00	1.25	1.75	0.25	0.00	-0.154785	0.117188	1.034668	3.640000	41.720001	-12.390000	192.00	0.01	-0.09	5.25	7.00	6.00	8.75	4.50	5.25	1.50	2.50	1.25	1.25	1.25	0.75	2.50	1.25	0.00	0.25	-0.116211	0.065918	0.973145	-3.570000	-14.140000	4.690000	533.00	-0.16	-0.09
1.10	0.50	0.75	0.75	1.75	0.50	1.00	0.25	1.25	1.50	1.00	1.25	1.25	1.50	1.50	0.25	0.00	-0.166992	0.241211	1.164062	21.350000	67.550003	-23.730000	164.00	0.04	-0.10	6.00	7.75	6.50	9.25	5.00	6.00	1.50	2.75	0.75	1.25	1.00	1.00	2.25	1.00	0.00	0.25	-0.110840	0.065918	0.981445	-3.990000	-14.980000	4.620000	565.00	-0.18	-0.10
1.11	0.25	0.75	0.25	1.75	0.50	0.75	0.00	0.75	1.75	0.75	1.00	0.75	1.25	1.50	0.25	0.00	-0.083984	0.125488	1.285156	28.840000	109.550003	-32.410000	132.00	0.06	-0.08	7.25	8.75	7.25	9.75	5.50	6.75	1.50	2.75	1.25	1.00	1.25	0.75	2.50	1.00	0.00	0.00	-0.111328	0.071289	0.983887	-4.130000	-15.820000	4.550000	620.00	-0.19	-0.09
1.12	0.25	0.75	0.50	1.75	0.25	0.50	0.00	0.50	1.00	0.75	0.75	1.00	0.75	1.25	0.25	0.00	-0.186523	0.031250	1.197266	23.730000	148.750000	-39.480000	109.00	0.03	-0.09	8.50	9.50	7.75	10.25	6.00	7.25	1.75	3.00	1.25	1.00	1.00	0.75	2.50	1.00	0.00	0.00	-0.108398	0.067871	0.996582	-3.780000	-15.890000	4.480000	667.00	-0.19	-0.09
1.13	0.00	0.75	0.50	1.50	0.00	0.50	0.00	0.50	0.50	0.50	0.75	0.75	0.75	1.50	0.00	0.00	-0.181152	0.135254	1.198242	23.660000	181.440002	-44.939999	89.00	0.03	-0.12	9.25	10.50	8.25	10.75	6.25	8.00	1.75	3.25	1.00	1.00	1.25	1.00	2.75	0.75	0.00	0.00	-0.086426	0.066406	0.994629	-3.150000	-14.980000	3.850000	711.00	-0.20	-0.09
1.14	0.00	0.50	0.25	1.25	0.00	0.25	0.00	0.25	0.75	0.50	0.75	0.50	0.25	0.75	0.25	0.00	-0.152344	0.240723	1.332031	26.320000	206.430008	-56.490002	67.00	0.05	-0.08	9.75	11.50	8.50	11.25	6.50	8.25	1.75	3.25	1.25	1.00	1.00	0.75	2.50	1.00	0.00	0.00	-0.083496	0.066406	0.992188	-3.220000	-13.720000	3.710000	737.00	-0.20	-0.09
1.15	0.00	0.50	0.25	1.25	0.00	0.00	0.00	0.00	0.50	0.25	0.75	0.00	0.25	0.75	0.00	0.00	-0.211426	0.194824	1.354492	26.320000	225.330002	-68.389999	47.00	0.00	0.00	10.25	12.00	8.75	11.50	6.75	8.50	1.75	3.75	1.25	1.00	1.25	1.00	2.50	1.00	0.00	0.25	-0.085449	0.061523	0.988281	-3.150000	-11.900000	3.360000	772.00	-0.20	-0.09
1.16	0.25	0.25	0.50	1.00	0.00	0.25	0.00	0.00	0.50	0.25	0.25	0.25	0.00	0.25	0.00	0.00	-0.051758	0.184082	1.379883	24.850000	237.160004	-77.070000	41.00	0.00	0.00	11.25	12.50	9.00	11.75	7.00	8.75	1.75	3.75	1.00	1.00	1.00	0.75	2.50	1.50	0.00	0.00	-0.083008	0.060059	0.990723	-2.870000	-9.870000	3.010000	793.00	-0.21	-0.09
1.17	0.25	0.50	0.25	1.25	0.00	0.00	0.00	0.00	0.00	0.00	0.25	0.00	0.00	0.25	0.00	0.00	-0.162109	0.217285	1.371582	22.400000	241.149994	-86.169998	28.00	0.00	0.00	11.75	13.00	9.00	12.00	7.00	9.00	1.75	4.00	1.25	1.00	1.25	1.00	2.50	0.75	0.00	0.00	-0.077148	0.057617	0.986816	-2.310000	-7.980000	2.870000	814.00	-0.21	-0.09
1.18	0.00	0.50	0.75	0.75	0.00	0.00	0.00	0.00	0.25	0.00	0.00	0.25	0.00	0.00	0.00	0.00	0.212402	0.456055	1.453125	35.560001	239.050003	-98.139999	27.00	0.00	0.00	12.25	13.25	9.50	12.25	7.00	9.25	1.75	4.00	1.00	1.25	1.25	0.75	3.00	1.00	0.25	0.25	-0.083008	0.062500	0.999512	-1.680000	-6.020000	2.660000	840.00	-0.20	-0.09
1.19	0.00	0.50	0.25	1.00	0.00	0.00	0.00	0.00	0.00	0.00	0.00	0.25	0.00	0.00	0.00	0.00	0.663086	0.749512	2.212891	32.340000	199.289993	-92.680000	21.00	0.00	0.00	12.00	13.25	9.25	12.25	7.25	9.25	1.75	4.25	1.25	1.25	1.25	1.00	2.75	1.25	0.25	0.25	-0.088379	0.062988	0.990723	-1.190000	-4.270000	2.660000	847.00	-0.20	-0.09
1.20	0.00	0.50	0.50	1.00	0.00	0.00	0.00	0.00	0.00	0.00	0.00	0.00	0.00	0.00	0.00	0.00	1.120605	0.801758	2.525391	6.510000	115.430000	-68.529999	21.00	0.00	0.00	12.25	13.25	9.50	12.25	7.25	9.50	1.75	4.00	1.50	1.25	1.00	0.75	3.00	1.00	0.00	0.25	-0.082031	0.055664	0.985840	-0.560000	-2.730000	2.730000	846.00	-0.20	-0.09
1.21	0.25	0.25	0.00	1.00	0.00	0.00	0.00	0.00	0.00	0.00	0.00	0.00	0.00	0.00	0.00	0.00	1.173828	0.788574	1.531250	-7.350000	41.369999	-38.920002	16.00	0.00	0.00	11.75	13.25	9.50	12.25	7.25	9.50	1.75	4.75	1.25	1.25	1.25	1.00	3.25	1.00	0.25	0.25	-0.080566	0.063965	0.995117	-0.000000	-1.330000	2.800000	859.00	-0.20	-0.10
1.22	0.00	0.50	0.25	0.75	0.00	0.00	0.00	0.00	0.00	0.00	0.00	0.00	0.00	0.00	0.00	0.00	1.068848	0.724121	0.823730	1.960000	14.000000	-18.549999	16.00	0.00	0.00	11.75	13.00	9.50	12.00	7.25	9.50	1.75	5.00	1.25	1.25	1.25	1.00	3.25	1.25	0.25	0.25	-0.089844	0.061523	0.992676	0.280000	0.210000	2.870000	860.00	-0.19	-0.10
1.23	0.00	0.50	0.25	1.00	0.00	0.00	0.00	0.00	0.25	0.00	0.25	0.00	0.00	0.00	0.00	0.00	1.089355	0.663086	0.808105	20.719999	10.150000	-6.370000	24.00	0.00	0.00	11.50	12.75	9.25	12.00	7.25	9.50	1.75	5.00	1.25	1.75	1.50	1.25	3.25	1.25	0.00	0.25	-0.083008	0.062500	0.990723	0.490000	1.680000	2.660000	860.00	-0.19	-0.10
1.24	0.00	0.25	0.00	1.00	0.00	0.00	0.00	0.00	0.50	0.00	0.00	0.00	0.00	0.00	0.00	0.00	1.240723	0.518066	1.180176	38.570000	-27.930000	18.129999	20.00	0.00	0.00	10.75	12.50	9.00	11.75	7.25	9.50	1.75	5.25	1.25	1.50	1.25	1.00	3.25	1.25	0.00	0.25	-0.087402	0.067871	0.986816	0.350000	2.730000	2.380000	841.00	-0.19	-0.10
1.25	0.00	0.50	0.25	1.25	0.00	0.00	0.00	0.00	0.25	0.00	0.00	0.00	0.00	0.00	0.00	0.00	1.240723	0.518066	1.180176	38.570000	-27.930000	18.129999	24.00	0.00	0.00	10.25	11.75	9.00	11.50	7.00	9.25	1.75	5.25	1.25	1.50	1.25	1.00	2.75	1.25	0.00	0.25	-0.090332	0.067383	0.979492	-0.000000	3.570000	1.890000	816.00	-0.19	-0.10
1.26	0.25	0.75	0.25	1.00	0.00	0.00	0.00	0.00	0.00	0.00	0.00	0.00	0.00	0.00	0.00	0.00	1.192383	0.436035	1.067871	40.740002	-56.000000	30.100000	23.00	0.00	0.00	9.75	11.50	8.75	11.25	7.00	9.25	1.75	5.25	1.25	1.50	1.50	1.25	3.75	1.50	0.25	0.25	-0.085938	0.075684	0.977539	-0.560000	4.130000	1.470000	822.00	-0.17	-0.11
1.27	0.25	0.25	0.00	0.75	0.00	0.00	0.00	0.00	0.00	0.00	0.00	0.00	0.00	0.00	0.00	0.00	0.998047	0.270508	1.052246	50.750000	-96.250000	46.830002	13.00	0.00	0.00	9.50	11.00	8.50	11.25	7.00	9.25	1.75	5.50	1.75	1.50	1.50	1.50	3.75	1.50	0.00	0.50	-0.089355	0.071777	0.985352	-1.050000	4.480000	0.980000	824.00	-0.17	-0.11
1.28	0.00	0.25	0.25	1.00	0.00	0.00	0.00	0.00	0.25	0.00	0.00	0.00	0.00	0.25	0.00	0.00	0.873535	0.182129	1.107910	53.900002	-113.400002	53.480000	21.00	0.00	0.00	8.75	10.50	8.25	11.00	6.75	9.25	2.00	5.75	1.75	1.50	2.00	1.00	4.00	1.50	0.25	0.50	-0.097168	0.075195	0.989746	-1.610000	4.620000	0.420000	815.00	-0.16	-0.11
1.29	0.25	0.25	0.25	0.75	0.00	0.00	0.00	0.00	0.00	0.00	0.00	0.00	0.00	0.25	0.00	0.00	0.733887	0.101074	1.125488	53.830002	-128.729996	59.290001	18.00	0.00	0.00	8.25	10.00	8.25	10.75	6.75	9.25	2.00	5.75	2.00	1.75	1.75	1.50	4.25	1.75	0.25	0.50	-0.098145	0.073242	0.977539	-1.820000	4.620000	-0.000000	816.00	-0.15	-0.11
1.30	0.00	0.50	0.00	1.00	0.00	0.00	0.00	0.00	0.00	0.00	0.00	0.00	0.00	0.00	0.00	0.00	0.591309	0.037109	1.192383	52.290001	-141.050003	64.190002	16.00	0.00	0.00	7.50	9.25	8.00	10.50	6.75	9.00	2.00	6.00	1.75	1.75	2.00	1.75	4.25	1.50	0.25	0.50	-0.104980	0.072266	0.979980	-2.170000	4.340000	-0.280000	796.00	-0.14	-0.11
1.31	0.00	0.00	0.00	1.00	0.00	0.00	0.00	0.00	0.00	0.00	0.00	0.00	0.00	0.00	0.00	0.00	0.452148	-0.016602	1.288574	50.119999	-152.389999	68.180000	11.00	0.00	0.00	7.25	8.50	7.75	10.25	6.50	9.00	2.00	6.00	1.75	1.75	2.25	2.00	5.00	1.50	0.00	0.50	-0.099609	0.063965	0.982910	-1.820000	3.640000	-0.490000	788.00	-0.14	-0.12
1.32	0.00	0.25	0.00	1.00	0.00	0.00	0.00	0.00	0.00	0.00	0.00	0.00	0.00	0.00	0.00	0.00	0.310547	-0.071289	1.350586	46.130001	-163.380005	71.260002	13.00	0.00	0.00	6.75	8.50	7.50	10.00	6.50	9.00	2.00	6.25	2.00	2.00	2.25	2.00	5.00	1.75	0.25	0.50	-0.099609	0.063965	0.982910	-1.820000	3.640000	-0.490000	791.00	-0.13	-0.12
1.33	0.00	0.25	0.00	0.50	0.00	0.00	0.00	0.00	0.00	0.00	0.00	0.25	0.00	0.00	0.00	0.00	0.149902	-0.122070	1.364258	39.970001	-172.410004	73.220001	10.00	0.00	0.00	6.25	7.75	7.50	9.75	6.50	9.25	2.00	6.50	2.25	2.00	2.25	2.00	5.25	2.00	0.25	0.50	-0.112305	0.062012	0.982910	-0.490000	2.800000	-0.140000	791.00	-0.12	-0.12
1.34	0.00	0.50	0.00	0.75	0.00	0.00	0.00	0.00	0.00	0.00	0.00	0.00	0.00	0.00	0.00	0.00	0.013672	-0.153320	1.356934	32.619999	-177.520004	72.730003	13.00	0.00	0.00	6.25	7.50	7.25	9.25	6.75	9.00	2.25	6.50	2.25	2.50	2.50	2.50	5.50	2.25	0.25	0.50	-0.104004	0.069824	0.982910	0.140000	2.520000	-0.140000	801.00	-0.11	-0.12
1.35	0.00	0.25	0.25	1.00	0.00	0.00	0.00	0.00	0.00	0.00	0.00	0.00	0.00	0.00	0.00	0.00	-0.113281	-0.178223	1.359375	24.500000	-179.339996	69.160004	16.00	0.00	0.00	5.50	7.25	7.00	9.25	6.50	9.00	2.25	6.75	2.50	2.75	2.75	2.50	5.50	2.50	0.50	0.75	-0.109375	0.071289	0.989746	0.420000	2.520000	-0.210000	804.00	-0.09	-0.12
1.36	0.00	0.00	0.25	0.50	0.00	0.00	0.00	0.00	0.00	0.00	0.00	0.00	0.00	0.00	0.00	0.00	-0.237793	-0.170898	1.361328	15.680000	-178.220001	62.790001	8.00	0.00	0.00	5.00	6.50	6.50	9.00	6.75	9.00	2.25	7.00	2.75	2.50	3.00	2.50	6.00	2.50	0.25	0.75	-0.118164	0.077637	0.981445	0.420000	2.310000	-0.210000	795.00	-0.09	-0.12
1.37	0.00	0.25	0.25	0.75	0.00	0.00	0.00	0.00	0.00	0.00	0.00	0.00	0.00	0.00	0.00	0.00	-0.335449	-0.166992	1.342285	7.280000	-175.139999	54.810001	13.00	0.00	0.00	5.00	6.25	6.25	8.75	6.50	9.00	2.25	7.25	2.75	3.00	3.00	3.00	6.25	3.00	0.50	1.00	-0.101074	0.072266	0.988281	-0.070000	2.380000	-0.490000	809.00	-0.07	-0.12
1.38	0.00	0.25	0.00	0.75	0.00	0.00	0.00	0.00	0.00	0.00	0.00	0.00	0.00	0.25	0.00	0.00	-0.426758	-0.130859	1.368164	0.140000	-170.800003	45.709999	13.00	0.00	0.00	4.50	5.75	6.25	8.50	6.75	9.00	2.25	7.25	3.00	3.00	3.25	3.00	6.50	3.25	0.50	0.75	-0.120117	0.072754	0.997070	-1.050000	2.800000	-0.910000	808.00	-0.07	-0.12
1.39	0.00	0.25	0.00	0.75	0.00	0.00	0.00	0.00	0.00	0.00	0.25	0.00	0.00	0.00	0.00	0.00	-0.480957	-0.071777	1.382812	-5.670000	-167.509995	36.189999	13.00	0.00	0.00	4.00	5.50	5.75	8.25	6.50	8.75	2.50	7.50	3.00	3.50	3.25	3.00	7.00	3.50	0.50	1.00	-0.110352	0.077148	0.988770	-2.030000	3.290000	-1.330000	808.00	-0.05	-0.12
1.40	0.00	0.00	0.00	0.75	0.00	0.00	0.00	0.00	0.00	0.00	0.00	0.00	0.00	0.00	0.00	0.00	-0.541504	-0.024902	1.319824	-9.520000	-164.919998	27.719999	8.00	0.00	0.00	3.25	5.25	5.75	8.00	6.50	8.75	2.50	7.50	3.75	3.25	4.00	3.25	7.25	3.75	0.50	0.75	-0.104492	0.079102	0.988770	-2.870000	4.410000	-1.890000	816.00	-0.04	-0.12
1.41	0.00	0.00	0.00	0.50	0.00	0.00	0.00	0.00	0.00	0.00	0.00	0.00	0.00	0.00	0.00	0.00	-0.617676	0.019043	1.228027	-12.460000	-159.600006	21.210001	5.00	0.00	0.00	3.25	5.00	5.25	7.50	6.50	8.75	2.75	7.50	3.75	4.25	4.25	4.00	7.75	4.50	0.75	1.25	-0.099609	0.075684	0.992188	-3.990000	5.950000	-2.380000	843.00	-0.02	-0.12
1.42	0.00	0.25	0.00	1.00	0.00	0.00	0.00	0.00	0.25	0.00	0.00	0.00	0.00	0.00	0.00	0.00	-0.686523	0.060059	1.228516	-16.100000	-152.320007	17.010000	17.00	0.00	0.00	2.75	4.50	5.00	7.25	6.50	8.75	2.75	7.75	4.75	4.25	5.25	4.00	8.00	5.00	0.75	1.25	-0.117676	0.073730	0.982910	-4.900000	7.560000	-3.010000	862.00	-0.01	-0.12
1.43	0.00	0.50	0.25	0.75	0.00	0.00	0.00	0.00	0.00	0.00	0.00	0.00	0.00	0.00	0.00	0.00	-0.764648	0.083008	1.192383	-19.950001	-146.229996	15.820000	16.00	0.00	0.00	2.75	3.75	4.50	6.75	6.25	8.50	2.75	7.75	5.00	4.75	5.75	4.75	8.25	5.75	0.50	1.25	-0.111328	0.069336	1.001953	-5.250000	9.240000	-3.430000	866.00	0.01	-0.11
1.44	0.00	0.25	0.25	0.50	0.00	0.00	0.00	0.00	0.00	0.00	0.00	0.00	0.00	0.00	0.00	0.00	-0.877930	0.087891	1.104004	-22.120001	-139.720001	16.940001	11.00	0.00	0.00	2.25	3.00	4.00	6.25	6.00	8.25	3.00	7.75	5.50	5.75	6.25	5.50	8.25	6.25	0.75	1.50	-0.122070	0.063965	0.992676	-4.550000	11.200000	-3.710000	879.00	0.03	-0.11
1.45	0.00	0.25	0.00	0.75	0.00	0.00	0.00	0.00	0.00	0.00	0.25	0.00	0.00	0.00	0.00	0.00	-1.002441	0.099121	1.026855	-21.350000	-131.039993	18.620001	13.00	0.00	0.00	2.25	3.00	3.25	6.00	5.75	7.75	3.00	7.75	6.00	7.00	7.50	6.00	8.50	7.00	1.00	1.75	-0.125000	0.078125	0.994141	-4.130000	13.300000	-4.060000	910.00	0.05	-0.11
1.46	0.00	0.25	0.00	0.50	0.00	0.00	0.00	0.00	0.00	0.00	0.00	0.00	0.00	0.00	0.00	0.00	-1.134277	0.102539	0.984375	-19.320000	-120.820000	20.790001	8.00	0.00	0.00	1.50	2.50	2.50	5.25	5.50	7.75	3.25	7.75	6.75	7.50	8.00	6.25	8.75	7.50	1.00	1.75	-0.117188	0.072266	0.998535	-4.410000	16.100000	-4.480000	912.00	0.07	-0.10
1.47	0.00	0.00	0.25	0.50	0.00	0.00	0.00	0.00	0.00	0.00	0.00	0.00	0.00	0.00	0.00	0.00	-1.266113	0.093750	0.890625	-18.830000	-109.480003	22.610001	8.00	0.00	0.00	1.25	2.00	2.50	5.00	5.00	7.50	3.50	7.75	7.50	8.00	8.50	7.50	9.00	8.25	1.25	2.25	-0.111816	0.069824	0.996094	-4.270000	19.320000	-4.900000	945.00	0.09	-0.10
1.48	0.00	0.25	0.00	0.50	0.00	0.00	0.00	0.00	0.00	0.00	0.00	0.00	0.00	0.00	0.00	0.00	-1.562500	0.084473	0.643555	-26.110001	-79.029999	23.379999	8.00	0.00	0.00	1.25	1.75	2.25	4.25	4.50	6.75	3.50	7.50	8.25	8.50	8.75	8.00	9.25	9.00	1.25	2.50	-0.128906	0.074707	1.001465	-3.990000	22.889999	-5.250000	947.00	0.10	-0.09
1.49	0.00	0.25	0.00	0.25	0.00	0.00	0.00	0.00	0.00	0.00	0.00	0.00	0.00	0.00	0.00	0.00	-1.676270	0.095703	0.547852	-32.759998	-59.010002	22.610001	5.00	0.00	0.00	1.00	1.50	1.75	3.75	3.75	6.25	3.50	7.50	8.75	9.00	9.75	8.25	9.50	10.25	1.50	3.00	-0.138672	0.068359	1.032715	-2.520000	26.389999	-5.880000	960.00	0.12	-0.09
1.50	0.00	0.25	0.25	0.25	0.00	0.00	0.00	0.00	0.00	0.00	0.00	0.00	0.00	0.00	0.00	0.00	-1.775879	0.149414	0.480957	-40.740002	-38.009998	21.139999	8.00	0.00	0.00	0.50	1.25	1.25	3.50	3.00	5.75	3.50	7.50	9.25	9.50	10.00	8.75	9.75	11.00	1.75	3.00	-0.138184	0.058594	1.069336	-0.210000	30.660000	-6.580000	962.00	0.14	-0.09
1.51	0.00	0.25	0.00	0.75	0.00	0.00	0.00	0.00	0.00	0.00	0.00	0.00	0.00	0.00	0.00	0.00	-1.821289	0.228516	0.447266	-44.310001	-18.200001	19.389999	11.00	0.00	0.00	0.50	1.25	1.25	2.75	2.50	5.00	3.50	7.25	9.50	10.00	10.50	9.00	9.75	12.00	1.75	3.50	-0.169434	0.121582	1.023438	2.100000	36.119999	-8.260000	963.00	0.15	-0.08
1.52	0.00	0.25	0.00	0.75	0.00	0.00	0.00	0.00	0.00	0.00	0.00	0.00	0.00	0.00	0.00	0.00	-1.847168	0.314941	0.362305	-38.920002	-0.000000	17.360001	11.00	0.00	0.00	0.50	1.00	0.75	2.00	1.75	3.75	3.25	7.00	10.25	10.50	10.75	9.50	10.00	13.00	1.75	4.25	-0.139160	0.037109	1.112793	7.980000	56.139999	-13.860000	956.00	0.17	-0.08
1.53	0.00	0.00	0.00	1.00	0.00	0.00	0.00	0.00	0.00	0.00	0.00	0.00	0.00	0.00	0.00	0.00	-1.863281	0.360840	0.291016	-25.900000	19.740000	14.840000	11.00	0.00	0.00	0.50	1.00	0.50	2.25	1.50	3.00	3.25	6.75	10.75	11.00	11.50	9.75	10.25	14.00	2.50	5.00	-0.133789	0.072754	1.085449	7.000000	72.519997	-11.620000	986.00	0.18	-0.07
1.54	0.00	0.00	0.00	0.25	0.00	0.00	0.00	0.00	0.25	0.00	0.00	0.00	0.00	0.00	0.00	0.00	-1.824707	0.359375	0.251465	-11.900000	41.580002	12.530000	6.00	0.00	0.00	0.25	0.75	0.50	1.50	1.00	2.75	3.00	6.25	11.25	11.25	12.00	10.00	10.00	15.00	2.50	5.50	-0.205078	0.160156	1.068359	5.810000	87.080002	-11.550000	979.00	0.20	-0.07
1.55	0.00	0.25	0.00	0.75	0.00	0.00	0.00	0.00	0.00	0.00	0.00	0.00	0.00	0.00	0.00	0.00	-1.729980	0.321777	0.292969	-1.610000	63.279999	11.270000	11.00	0.00	0.00	0.50	1.00	0.25	1.75	0.75	2.00	2.75	6.00	11.50	11.50	12.25	10.25	10.25	16.00	3.00	5.75	-0.170410	0.062012	1.095703	5.950000	100.519997	-12.460000	994.00	0.20	-0.06
1.56	0.25	0.25	0.25	1.25	0.00	0.00	0.00	0.00	0.00	0.00	0.00	0.00	0.00	0.00	0.00	0.00	-2.872070	-0.227051	-0.045410	-11.690000	72.870003	11.480000	21.00	0.00	0.00	0.00	0.25	0.25	1.25	0.50	1.25	2.50	5.50	12.00	12.00	12.50	10.50	10.00	16.75	3.00	6.25	-0.231445	0.068359	1.117676	8.190000	114.449997	-12.530000	978.00	0.22	-0.06
1.57	0.75	0.75	0.25	1.50	0.00	0.00	0.00	0.00	0.00	0.00	0.00	0.00	0.00	0.00	0.00	0.00	0.542480	0.512207	0.215820	-64.400002	135.660004	-1.610000	34.00	0.00	0.00	0.00	0.25	0.25	1.25	0.50	1.00	2.25	5.00	12.50	12.00	12.75	10.50	9.75	17.75	3.25	6.50	-0.238770	0.060547	1.156738	9.660000	128.520004	-11.410000	983.00	0.23	-0.05
1.58	1.00	2.00	1.25	1.75	0.25	0.00	0.00	0.00	0.00	0.00	0.00	0.00	0.00	0.00	0.00	0.00	0.520508	0.518555	2.215332	-76.510002	131.669998	3.780000	65.00	-0.33	-0.07	0.00	0.75	0.00	1.00	0.00	0.50	1.75	4.00	12.25	12.00	12.75	10.50	9.50	19.00	3.50	6.50	-0.250977	0.078125	1.090332	11.550000	142.869995	-10.570000	957.00	0.24	-0.04
1.59	1.50	3.00	1.50	2.75	0.00	0.00	0.00	0.00	0.00	0.00	0.00	0.00	0.00	0.00	0.00	0.00	-0.078613	-0.125977	0.342285	-93.169998	90.580002	11.760000	90.00	-0.34	-0.09	0.00	0.00	0.00	0.50	0.00	0.00	1.50	3.25	12.00	12.00	13.00	10.50	9.25	19.75	3.75	6.75	-0.325684	0.111816	1.020020	14.070000	158.830002	-10.920000	931.00	0.25	-0.04
1.60	2.75	5.25	2.00	3.50	0.25	0.00	0.00	0.00	0.00	0.00	0.00	0.00	0.00	0.00	0.00	0.00	0.011719	-0.148438	0.509766	-84.349998	141.820007	11.200000	140.00	-0.35	-0.08	0.00	0.00	0.00	0.00	0.00	0.00	1.25	2.25	11.75	12.25	12.75	10.50	8.75	20.50	4.00	6.75	-0.304688	0.102539	1.145996	15.610000	178.850006	-12.040000	908.00	0.26	-0.03
1.61	4.00	7.50	2.50	4.50	0.25	0.00	0.00	0.00	0.00	0.00	0.00	0.00	0.00	0.00	0.00	0.00	-0.187988	-0.521973	1.569336	-46.830002	172.899994	11.200000	190.00	-0.35	-0.08	0.00	0.00	0.00	0.00	0.00	0.00	1.00	1.75	11.50	12.00	12.75	10.25	8.25	21.00	4.75	7.00	-0.336914	0.095703	1.149414	12.740000	198.449997	-14.000000	897.00	0.27	-0.02
1.62	6.50	9.75	3.25	5.25	0.25	0.00	0.00	0.00	0.00	0.00	0.00	0.00	0.00	0.00	0.00	0.00	-0.491211	-0.583008	1.609863	-13.370000	168.559998	-3.220000	254.00	-0.36	-0.07	0.00	0.00	0.00	0.00	0.00	0.00	0.75	1.25	11.25	11.75	12.50	10.00	8.00	21.50	5.00	6.75	-0.436523	0.122070	1.167969	9.310000	217.910004	-16.799999	878.00	0.27	-0.02
1.63	8.25	12.25	4.00	6.75	0.50	0.25	0.00	0.00	0.00	0.00	0.00	0.00	0.00	0.00	0.00	0.00	-0.408691	0.190430	1.719238	2.170000	156.029999	-20.160000	325.00	-0.36	-0.07	0.00	0.00	0.00	0.00	0.00	0.00	0.50	0.75	10.50	11.50	12.25	9.75	7.50	21.75	5.00	6.75	-0.438965	0.123047	1.215332	4.410000	240.729996	-20.020000	847.00	0.28	-0.02
1.64	9.25	14.00	4.75	7.75	1.00	0.50	0.00	0.00	0.00	0.00	0.00	0.00	0.00	0.00	0.00	0.00	-0.350586	0.560059	1.556641	10.430000	138.110001	-13.160000	379.00	-0.35	-0.07	0.00	0.00	0.00	0.00	0.00	0.00	0.50	0.25	10.00	11.25	11.75	9.25	6.75	21.75	5.00	6.50	-0.297363	0.106445	1.182129	-0.840000	267.540009	-24.710001	812.00	0.28	-0.01
1.65	9.75	15.25	5.50	8.50	1.00	1.00	0.00	0.00	0.00	0.00	0.00	0.00	0.00	0.00	0.00	0.00	-0.281250	0.317871	1.269043	-6.300000	127.540001	1.610000	418.00	-0.35	-0.07	0.00	0.00	0.00	0.00	0.00	0.00	0.25	0.00	9.00	10.50	11.25	8.75	6.00	21.75	5.00	6.00	-0.472168	0.157715	1.183105	-6.440000	281.470001	-26.320000	763.00	0.29	-0.01
1.66	10.75	15.75	6.50	9.25	1.50	1.25	0.00	0.00	0.00	0.00	0.00	0.00	0.00	0.00	0.00	0.00	-0.271484	-0.053711	1.391602	-15.610000	122.290001	9.590000	460.00	-0.34	-0.07	0.00	0.00	0.00	0.00	0.00	0.00	0.25	0.00	8.25	10.00	10.75	8.25	5.00	21.00	5.00	5.50	-0.665527	0.325195	1.292480	-9.030000	297.500000	-30.590000	720.00	0.29	-0.00
1.67	11.25	16.75	7.25	9.75	2.00	2.25	0.00	0.25	0.00	0.00	0.00	0.00	0.25	0.00	0.00	0.00	-0.340332	-0.129883	1.417480	-13.300000	104.650002	3.780000	511.00	-0.33	-0.07	0.00	0.00	0.00	0.00	0.00	0.00	0.25	0.00	7.25	9.25	10.25	7.75	4.25	20.25	4.50	5.00	-0.615234	0.355957	1.639160	-1.260000	318.709991	-42.980000	668.00	0.29	-0.00
1.68	11.25	17.50	8.00	10.75	2.25	2.75	0.25	0.25	0.00	0.00	0.00	0.00	0.00	0.00	0.00	0.00	-0.352051	0.081055	1.361816	-11.060000	77.209999	-0.630000	547.00	-0.33	-0.07	0.00	0.00	0.00	0.00	0.00	0.00	0.00	0.00	6.00	8.25	9.00	7.00	3.25	18.75	4.00	4.25	-0.602051	0.377930	1.623047	-0.700000	335.790009	-53.270000	586.00	0.30	-0.00
1.69	11.75	17.75	8.50	11.75	2.75	3.50	0.25	0.25	0.00	0.00	0.00	0.00	0.25	0.00	0.00	0.00	-0.207520	0.030762	1.065430	-29.049999	41.650002	2.800000	587.00	-0.32	-0.08	0.00	0.00	0.00	0.00	0.00	0.00	0.00	0.00	5.00	7.50	8.00	5.50	2.25	16.75	3.50	3.00	-0.770508	0.244629	1.772461	4.060000	359.170013	-60.900002	501.00	0.30	0.01
1.70	12.50	18.25	8.50	12.25	3.00	4.00	0.25	0.50	0.50	0.00	0.00	0.00	0.25	0.00	0.00	0.00	-0.225098	0.020020	1.100098	-26.950001	30.380001	1.260000	623.00	-0.31	-0.07	0.00	0.00	0.00	0.00	0.00	0.00	0.25	0.00	3.25	6.00	6.50	4.00	1.25	14.00	2.50	2.25	-0.934570	0.362793	1.927734	8.960000	374.429993	-60.060001	388.00	0.30	0.02
1.71	12.75	18.75	9.00	12.75	3.75	4.50	0.50	0.75	0.50	0.00	0.25	0.00	0.25	0.25	0.00	0.00	-0.222656	0.060547	1.045410	-19.600000	17.430000	0.420000	667.00	-0.30	-0.07	0.00	0.00	0.00	0.00	0.00	0.00	0.25	0.00	2.00	4.75	5.00	3.00	1.25	11.25	2.25	1.50	-0.757812	0.578613	1.854004	43.470001	390.040009	-63.840000	302.00	0.30	0.01
1.72	13.00	18.75	9.25	13.75	4.00	5.50	0.50	1.00	0.75	0.25	0.00	0.25	0.50	0.25	0.00	0.00	-0.165039	0.036133	0.986328	-14.000000	11.620000	0.560000	709.00	-0.29	-0.08	0.00	0.00	0.00	0.00	0.00	0.00	0.25	0.00	1.25	3.75	3.50	2.25	1.25	8.25	1.25	0.75	-0.570312	0.325684	1.896484	94.220001	399.489990	-72.239998	218.00	0.30	0.01
1.73	13.00	19.50	9.25	14.00	4.75	6.25	0.50	1.00	0.75	0.25	0.50	0.25	0.50	0.25	0.00	0.00	-0.186523	0.031250	1.033203	-10.220000	9.450000	0.420000	741.00	-0.28	-0.08	0.00	0.00	0.00	0.00	0.00	0.00	0.25	0.00	1.00	3.00	2.50	1.75	0.25	5.75	0.75	0.75	-0.372070	0.050293	2.107910	106.330002	407.190002	-88.129997	156.00	0.30	0.02
1.74	13.00	19.50	9.50	14.50	5.00	6.75	0.50	1.25	0.75	0.25	0.25	0.25	0.50	0.25	0.00	0.00	-0.194824	0.048828	1.005371	-7.490000	6.370000	0.070000	758.00	-0.28	-0.08	0.00	0.00	0.00	0.00	0.00	0.00	0.50	0.00	0.50	2.25	2.00	1.25	0.25	2.75	0.50	0.25	-0.063477	0.180176	2.044922	98.070000	403.480011	-100.730003	104.00	0.27	0.01
1.75	12.75	19.50	9.75	14.50	5.25	7.25	0.50	1.50	0.75	0.00	0.50	0.50	0.75	0.50	0.00	0.00	-0.154297	0.058594	0.954590	-6.720000	5.740000	0.000000	777.00	-0.28	-0.09	0.00	0.00	0.00	0.00	0.00	0.00	0.50	0.00	0.25	2.00	1.50	0.75	0.50	1.25	0.25	0.25	0.780762	0.501953	1.060547	104.860001	381.290009	-117.180000	74.00	0.25	-0.01
1.76	12.50	19.75	10.00	14.50	5.75	7.50	0.75	1.75	0.75	0.50	0.50	0.50	0.75	0.75	0.00	0.00	-0.173828	0.046875	0.966797	-6.930000	7.840000	-0.700000	803.00	-0.27	-0.09	0.00	0.00	0.00	0.00	0.00	0.00	0.50	0.00	0.25	1.75	0.75	0.25	0.50	1.00	0.25	0.00	-0.000000	0.821289	3.415527	114.029999	282.519989	-127.889999	55.00	0.24	0.03
1.77	12.50	19.25	10.00	15.00	6.00	8.00	0.75	2.00	1.25	0.75	0.75	0.50	1.00	0.75	0.00	0.00	-0.150879	0.059570	0.953613	-7.070000	9.100000	-0.980000	830.00	-0.25	-0.09	0.00	0.00	0.00	0.00	0.00	0.00	0.50	0.00	0.25	1.00	0.75	0.75	0.00	0.50	0.00	0.00	0.670410	0.670898	3.661133	123.970001	97.090004	-105.139999	41.00	0.00	0.00
1.78	12.25	19.00	10.00	15.00	6.25	8.25	0.75	2.00	1.25	0.75	0.75	0.50	1.00	0.75	0.00	0.00	-0.169922	0.046387	0.972168	-7.140000	10.360000	-1.050000	830.00	-0.25	-0.09	0.00	0.00	0.00	0.00	0.00	0.00	0.50	0.00	0.25	1.00	0.75	0.50	0.00	0.25	0.00	0.00	1.034668	0.267578	2.497070	80.290001	-58.029999	-65.800003	37.00	0.00	0.00
1.79	12.00	18.25	10.25	14.75	6.50	8.50	0.75	2.25	1.50	0.75	1.00	0.75	1.25	1.25	0.00	0.00	-0.174805	0.041504	0.979004	-6.580000	11.410000	-1.260000	845.00	-0.24	-0.09	0.00	0.00	0.00	0.00	0.00	0.25	0.50	0.00	0.00	1.00	1.00	0.00	0.00	0.50	0.00	0.00	0.583008	0.321289	1.360840	3.220000	-131.110001	-29.820000	35.00	0.00	0.00
1.80	11.50	18.00	10.00	14.50	6.75	8.50	1.00	2.50	1.25	0.75	1.00	0.75	1.50	1.25	0.00	0.00	-0.181641	0.036133	0.976074	-5.740000	11.690000	-1.540000	841.00	-0.24	-0.09	0.00	0.00	0.00	0.00	0.00	0.00	0.50	0.00	0.00	1.00	0.50	0.00	0.00	0.50	0.00	0.00	0.457031	0.398438	0.749023	-45.570000	-137.970001	-2.310000	27.00	0.00	0.00
1.81	10.75	17.50	10.00	14.25	6.75	8.75	1.00	2.75	1.75	0.75	0.75	0.75	1.50	1.00	0.00	0.00	-0.173340	0.041016	0.981445	-4.690000	11.550000	-1.820000	835.00	-0.23	-0.09	0.00	0.00	0.00	0.00	0.00	0.00	0.50	0.00	0.00	0.75	0.25	0.25	0.00	0.00	0.00	0.00	0.445312	0.460449	0.566895	-50.540001	-123.129997	14.980000	21.00	0.00	0.00
1.82	10.75	16.75	9.75	14.00	6.75	8.50	1.00	2.75	1.75	1.00	1.00	1.00	1.50	1.25	0.00	0.00	-0.168945	0.039062	0.970215	-3.640000	11.060000	-1.820000	829.00	-0.22	-0.09	0.00	0.00	0.00	0.00	0.00	0.00	0.50	0.00	0.00	0.25	0.00	0.00	0.00	0.25	0.00	0.00	0.437988	0.469727	0.643555	-27.930000	-114.660004	26.320000	12.00	0.00	0.00
1.83	9.75	16.25	9.50	13.75	7.00	8.75	1.00	3.00	1.75	1.00	1.25	0.75	1.50	1.50	0.25	0.00	-0.182129	0.037109	0.975098	-2.940000	11.130000	-1.890000	823.00	-0.21	-0.09	0.00	0.00	0.00	0.00	0.00	0.00	0.50	0.00	0.00	0.25	0.25	0.00	0.00	0.00	0.00	0.00	0.464844	0.411133	0.812988	0.770000	-120.190002	36.400002	13.00	0.00	0.00
1.84	9.50	15.50	9.50	13.50	7.00	8.75	1.00	3.25	2.50	1.25	1.25	1.00	1.75	1.25	0.25	0.25	-0.183105	0.037109	0.971680	-2.450000	10.920000	-2.030000	831.00	-0.20	-0.09	0.00	0.00	0.00	0.25	0.00	0.00	0.50	0.00	0.00	0.50	0.00	0.00	0.00	0.00	0.00	0.00	0.454590	0.273926	0.955078	15.680000	-138.669998	47.389999	16.00	0.00	0.00
1.85	9.00	15.00	9.50	13.25	7.00	8.75	1.25	3.50	2.00	1.25	1.25	1.00	1.75	1.50	0.25	0.00	-0.184082	0.038086	0.963379	-1.890000	10.570000	-2.100000	820.00	-0.20	-0.09	0.00	0.00	0.00	0.00	0.00	0.00	0.50	0.00	0.00	0.25	0.00	0.00	0.00	0.00	0.00	0.00	0.424805	0.175781	1.062500	7.070000	-164.360001	59.639999	10.00	0.00	0.00
1.86	8.75	14.25	9.25	12.75	7.00	8.75	1.25	3.75	2.50	1.25	1.25	1.00	1.75	1.50	0.25	0.25	-0.176758	0.038574	0.964844	-1.540000	10.010000	-2.170000	814.00	-0.19	-0.09	0.00	0.00	0.00	0.00	0.00	0.00	0.50	0.00	0.00	0.50	0.00	0.00	0.00	0.00	0.00	0.00	0.361816	0.145020	1.097168	-18.620001	-192.360001	72.660004	13.00	0.00	0.00
1.87	8.50	13.75	9.00	12.75	7.00	8.75	1.25	3.75	2.25	1.25	1.25	1.25	2.00	1.50	0.25	0.00	-0.183105	0.036621	0.965332	-1.050000	9.730000	-2.380000	804.00	-0.19	-0.09	0.00	0.00	0.00	0.00	0.00	0.00	0.50	0.00	0.00	0.25	0.00	0.00	0.00	0.00	0.00	0.00	0.294922	0.198730	1.080078	-43.750000	-218.050003	84.699997	10.00	0.00	0.00
1.88	8.25	13.25	9.00	12.25	6.75	8.75	1.25	4.00	2.50	1.25	1.50	1.25	2.00	1.25	0.25	0.00	-0.178711	0.032715	0.963379	-0.420000	9.450000	-2.450000	797.00	-0.19	-0.09	0.00	0.25	0.00	0.00	0.00	0.00	0.50	0.00	0.00	0.50	0.00	0.00	0.00	0.00	0.00	0.00	0.206055	0.264160	1.045410	-55.160000	-239.119995	94.430000	15.00	0.00	0.00
1.89	8.00	12.50	8.75	12.00	7.00	8.75	1.25	4.50	2.50	1.50	1.50	1.25	2.00	1.50	0.25	0.00	-0.173340	0.040527	0.959473	0.910000	9.100000	-2.380000	797.00	-0.18	-0.10	0.00	0.00	0.25	0.00	0.00	0.00	0.50	0.00	0.00	0.25	0.00	0.00	0.00	0.00	0.00	0.00	0.113770	0.275391	1.011719	-53.060001	-255.990005	102.129997	13.00	0.00	0.00
1.90	7.25	11.75	8.75	11.75	7.00	8.75	1.25	4.75	2.50	1.50	1.50	1.25	2.25	1.75	0.25	0.25	-0.176270	0.047852	0.962402	0.910000	9.100000	-2.380000	789.00	-0.17	-0.10	0.00	0.00	0.00	0.00	0.00	0.00	0.50	0.00	0.00	0.25	0.00	0.00	0.00	0.00	0.00	0.00	0.021484	0.244629	0.990723	-45.849998	-269.079987	108.290001	10.00	0.00	0.00
1.91	7.25	11.00	8.50	11.25	6.75	9.00	1.25	4.75	2.75	1.75	1.75	1.25	2.25	1.75	0.25	0.25	-0.169434	0.043945	0.959473	1.050000	9.660000	-2.380000	782.00	-0.16	-0.10	0.00	0.00	0.00	0.00	0.00	0.00	0.50	0.00	0.00	0.00	0.00	0.00	0.00	0.00	0.00	0.00	-0.183105	0.145020	1.083496	-39.759998	-287.209991	116.129997	8.00	0.00	0.00
1.92	7.00	10.50	8.25	11.25	7.25	9.00	1.25	5.00	3.00	1.50	2.00	1.50	2.50	1.75	0.25	0.25	-0.169922	0.051758	0.948242	0.490000	10.220000	-2.730000	789.00	-0.15	-0.10	0.00	0.00	0.00	0.00	0.00	0.00	0.50	0.00	0.00	0.50	0.00	0.00	0.00	0.00	0.00	0.00	-0.183105	0.145020	1.083496	-39.759998	-287.209991	116.129997	13.00	0.00	0.00
1.93	6.75	9.75	8.25	10.75	7.00	9.00	1.50	5.00	2.75	1.50	2.00	1.50	2.50	2.25	0.25	0.25	-0.179688	0.044922	0.952637	-0.140000	10.780000	-3.220000	776.00	-0.15	-0.10	0.00	0.00	0.00	0.25	0.00	0.00	0.50	0.00	0.00	0.25	0.00	0.00	0.00	0.00	0.00	0.00	-0.407227	0.069336	1.130371	-49.700001	-303.730011	116.129997	13.00	0.00	0.00
1.94	6.00	9.25	8.00	10.25	7.00	8.75	1.50	5.50	3.00	2.00	2.00	1.50	2.75	2.00	0.50	0.25	-0.180664	0.046387	0.958496	-0.420000	11.130000	-3.430000	772.00	-0.13	-0.10	0.00	0.00	0.00	0.00	0.00	0.00	0.50	0.00	0.00	0.25	0.00	0.00	0.00	0.00	0.00	0.00	-0.480957	0.048828	1.156250	-50.820000	-306.809998	110.599998	10.00	0.00	0.00
1.95	6.00	8.50	8.00	9.75	7.25	8.75	1.50	5.50	3.25	1.75	2.00	1.75	3.00	2.50	0.25	0.25	-0.179199	0.042480	0.960449	-0.420000	11.200000	-3.710000	769.00	-0.13	-0.10	0.00	0.00	0.00	0.00	0.00	0.00	0.50	0.00	0.00	0.50	0.00	0.00	0.00	0.00	0.00	0.00	-0.549316	0.036133	1.196289	-47.880001	-306.459991	100.519997	13.00	0.00	0.00
1.96	5.25	8.00	7.75	9.50	7.25	8.75	1.75	5.75	3.75	1.75	2.25	2.00	3.25	2.25	0.50	0.25	-0.181152	0.043945	0.955566	-0.350000	11.410000	-3.640000	773.00	-0.11	-0.10	0.00	0.00	0.00	0.25	0.00	0.00	0.50	0.00	0.00	0.00	0.00	0.00	0.00	0.00	0.00	0.00	-0.637695	0.022461	1.286621	-43.540001	-304.779999	86.660004	10.00	0.00	0.00
1.97	5.25	7.50	7.50	9.25	7.50	8.75	1.75	5.75	4.25	2.25	2.25	2.00	3.50	2.50	0.50	0.25	-0.179199	0.041016	0.959961	-0.000000	12.180000	-3.780000	782.00	-0.10	-0.09	0.00	0.00	0.00	0.00	0.00	0.00	0.50	0.00	0.00	0.00	0.00	0.00	0.00	0.00	0.00	0.00	-0.699707	0.039551	1.355469	-42.139999	-302.049988	71.470001	8.00	0.00	0.00
1.98	4.75	7.00	7.25	8.75	7.25	9.00	2.00	6.00	4.00	2.25	2.50	2.25	3.75	2.50	0.50	0.25	-0.177734	0.039062	0.963379	0.210000	12.810000	-4.060000	776.00	-0.09	-0.10	0.00	0.00	0.00	0.00	0.00	0.00	0.50	0.00	0.00	0.00	0.00	0.00	0.00	0.00	0.00	0.00	-0.750000	0.090332	1.429688	-43.189999	-297.500000	57.959999	8.00	0.00	0.00
1.99	4.00	6.25	7.00	8.25	7.50	8.75	2.00	6.25	5.00	2.50	2.75	2.50	4.00	2.75	0.50	0.50	-0.178711	0.042969	0.959473	0.490000	13.370000	-4.200000	783.00	-0.07	-0.09	0.00	0.00	0.25	0.00	0.00	0.00	0.50	0.00	0.00	0.00	0.00	0.00	0.00	0.00	0.00	0.00	-0.779297	0.147461	1.532227	-43.820000	-292.040009	47.250000	10.00	0.00	0.00
2.00	3.75	6.00	6.75	7.75	7.50	9.00	2.25	6.25	5.00	2.75	3.00	2.75	4.75	3.25	0.75	0.50	-0.168457	0.046387	0.955566	0.910000	14.140000	-4.410000	798.00	-0.06	-0.10	0.00	0.00	0.00	0.00	0.00	0.00	0.50	0.00	0.00	0.00	0.00	0.00	0.00	0.00	0.00	0.00	-0.799805	0.192871	1.645020	-42.279999	-287.140015	38.500000	8.00	0.00	0.00
2.01	3.00	5.50	6.25	7.50	7.50	8.75	2.25	6.50	5.25	3.00	3.50	3.00	5.00	3.00	0.75	0.50	-0.180176	0.044922	0.959961	0.980000	16.030001	-4.690000	792.00	-0.05	-0.10	0.00	0.00	0.00	0.00	0.00	0.00	0.50	0.00	0.00	0.00	0.00	0.00	0.00	0.00	0.00	0.00	-0.823242	0.237305	1.788086	-38.150002	-283.779999	29.889999	8.00	0.00	0.00
2.02	2.75	5.00	6.00	7.00	7.25	8.75	2.50	6.75	5.75	3.50	3.75	3.25	5.25	3.50	0.75	0.50	-0.180664	0.044434	0.955566	1.050000	17.710001	-4.970000	805.00	-0.03	-0.10	0.00	0.00	0.00	0.00	0.00	0.00	0.50	0.00	0.00	0.00	0.00	0.00	0.00	0.00	0.00	0.00	-0.845703	0.269531	1.875000	-32.549999	-283.010010	20.650000	8.00	0.00	0.00
2.03	2.75	4.50	5.25	6.50	7.25	8.50	2.75	7.00	6.50	4.00	4.00	3.75	5.75	4.00	0.75	0.75	-0.182617	0.035156	0.952637	1.470000	19.250000	-4.970000	824.00	-0.01	-0.09	0.00	0.00	0.00	0.00	0.00	0.00	0.50	0.00	0.00	0.00	0.00	0.00	0.00	0.00	0.00	0.00	-0.896973	0.305176	1.874023	-25.760000	-282.589996	11.270000	8.00	0.00	0.00
2.04	2.25	3.75	5.00	6.00	7.00	8.50	2.75	7.00	7.25	4.25	5.25	4.25	6.00	4.75	0.75	0.75	-0.186035	0.044922	0.959473	2.170000	20.930000	-5.320000	840.00	0.01	-0.09	0.00	0.00	0.00	0.00	0.00	0.00	0.50	0.00	0.00	0.00	0.00	0.00	0.00	0.00	0.00	0.00	-0.984863	0.358398	1.836426	-17.570000	-277.690002	2.800000	8.00	0.00	0.00
2.05	2.00	3.75	4.75	5.50	6.75	8.25	3.00	7.25	7.50	5.25	6.25	4.50	6.50	5.25	0.75	0.75	-0.191406	0.043457	0.974609	2.730000	23.170000	-5.670000	867.00	0.02	-0.09	0.00	0.00	0.00	0.00	0.00	0.00	0.50	0.00	0.00	0.00	0.00	0.00	0.00	0.00	0.00	0.00	-1.104492	0.423340	1.833984	-9.870000	-267.329987	-4.270000	8.00	0.00	0.00
2.06	1.50	3.00	4.00	5.00	6.25	8.00	3.00	7.25	8.00	6.00	6.75	5.25	7.00	6.00	1.00	0.75	-0.203613	0.038086	0.960938	3.430000	25.410000	-5.950000	874.00	0.05	-0.09	0.00	0.00	0.00	0.00	0.00	0.00	0.50	0.00	0.00	0.00	0.00	0.00	0.00	0.00	0.00	0.00	-1.256348	0.476074	1.994141	-5.110000	-256.619995	-8.610000	8.00	0.00	0.00
2.07	1.25	2.75	3.25	5.00	6.00	7.75	3.25	7.25	8.75	6.75	7.50	6.00	7.50	6.75	1.00	1.00	-0.204590	0.048340	0.958008	4.410000	28.350000	-6.510000	904.00	0.06	-0.08	0.00	0.00	0.00	0.00	0.00	0.00	0.50	0.00	0.00	0.25	0.00	0.00	0.00	0.00	0.00	0.00	-1.429199	0.512695	2.162598	-5.740000	-255.009995	-9.450000	10.00	0.00	0.00
2.08	1.25	2.50	2.75	4.50	5.25	7.50	3.25	7.50	9.00	7.50	8.25	6.75	7.75	7.75	1.25	1.00	-0.207031	0.061523	0.963379	4.970000	31.500000	-7.070000	924.00	0.08	-0.08	0.00	0.00	0.00	0.00	0.00	0.00	0.50	0.00	0.00	0.25	0.00	0.00	0.00	0.00	0.00	0.00	-1.616699	0.563477	2.156250	-6.930000	-265.299988	-5.740000	10.00	0.00	0.00
2.09	1.00	2.25	2.25	4.00	4.75	7.00	3.25	7.50	9.50	8.25	8.75	7.50	8.00	8.00	1.25	1.25	-0.199707	0.041504	0.967285	6.790000	35.139999	-8.540000	930.00	0.10	-0.08	0.00	0.25	0.00	0.00	0.00	0.25	0.50	0.00	0.00	0.25	0.00	0.00	0.00	0.00	0.00	0.00	-1.743652	0.568848	1.876953	0.420000	-278.880005	2.730000	15.00	0.00	0.00
2.10	0.50	1.50	2.00	3.50	4.00	6.50	3.25	7.50	10.00	8.75	9.50	8.00	8.50	8.75	1.25	1.50	-0.242188	0.056641	0.974121	10.150000	44.869999	-11.340000	933.00	0.12	-0.08	0.00	0.00	0.00	0.00	0.00	0.00	0.50	0.00	0.00	0.00	0.00	0.00	0.00	0.00	0.00	0.00	-1.966797	0.498535	1.449707	17.710001	-285.040009	13.860000	8.00	0.00	0.00
2.11	0.75	1.50	1.75	3.25	3.25	5.75	3.00	7.25	10.50	9.00	10.00	8.50	8.75	9.50	1.25	1.75	-0.234375	0.056641	0.985840	10.150000	44.869999	-11.340000	936.00	0.13	-0.08	0.00	0.00	0.00	0.00	0.00	0.00	0.50	0.00	0.00	0.00	0.00	0.00	0.00	0.00	0.00	0.00	-2.432617	0.382812	0.981934	31.570000	-275.730011	19.530001	8.00	0.00	0.00
2.12	0.50	1.00	1.00	3.25	2.50	5.25	3.00	7.00	10.75	9.50	10.75	9.00	9.00	10.00	1.25	1.75	-0.227051	0.062012	1.006348	13.790000	61.320000	-13.020000	931.00	0.14	-0.08	0.00	0.00	0.00	0.00	0.00	0.00	0.50	0.00	0.00	0.25	0.00	0.00	0.00	0.00	0.00	0.00	-3.155762	0.312500	0.438477	36.820000	-254.449997	16.170000	10.00	0.00	0.00
2.13	0.50	0.75	1.00	2.50	2.00	4.50	2.75	6.75	11.25	10.00	11.50	9.25	9.25	10.75	1.50	2.00	-0.239746	0.034180	1.020508	14.070000	73.150002	-12.320000	934.00	0.16	-0.07	0.00	0.00	0.00	0.00	0.00	0.00	0.50	0.00	0.00	0.25	0.00	0.00	0.00	0.00	0.00	0.00	-4.214355	0.012695	-0.759277	73.709999	-173.320007	7.350000	10.00	0.00	0.00
2.14	0.25	1.00	0.50	2.25	1.50	4.00	2.75	6.50	11.75	10.50	12.00	10.00	9.25	11.25	1.75	2.25	-0.255859	0.041016	1.041992	15.470000	87.010002	-10.220000	944.00	0.17	-0.07	0.00	0.00	0.00	0.00	0.00	0.00	0.50	0.00	0.00	0.25	0.00	0.00	0.00	0.00	0.00	0.00	-4.009766	-0.234375	-0.988281	79.800003	-98.349998	8.820000	10.00	0.00	0.00
2.15	0.50	0.50	0.25	1.75	1.00	3.25	2.50	6.50	12.00	11.00	12.75	10.50	9.25	12.00	2.00	2.25	-0.298828	0.098633	1.006348	22.400000	100.519997	-9.450000	946.00	0.18	-0.07	0.00	0.00	0.00	0.00	0.00	0.00	0.50	0.00	0.00	0.25	0.00	0.00	0.00	0.00	0.00	0.00	-3.389648	-0.401367	-0.739258	50.119999	-10.990000	14.490000	10.00	0.00	0.00
2.16	0.00	0.75	0.25	1.75	0.75	2.50	2.00	6.00	12.50	11.50	13.25	10.75	9.25	12.50	2.00	2.50	-0.288574	0.089355	1.031738	28.559999	113.750000	-9.940000	943.00	0.19	-0.07	0.00	0.50	0.00	0.00	0.00	0.00	0.50	0.00	0.00	0.50	0.00	0.00	0.00	0.00	0.00	0.00	-2.705566	-0.325195	-0.057129	-0.980000	61.670002	26.250000	17.00	0.00	0.00
2.17	0.00	0.00	0.50	1.00	0.25	2.00	1.75	5.50	12.25	11.50	13.75	11.25	9.25	13.00	2.00	2.75	-0.323242	0.079102	1.092285	32.759998	130.059998	-9.590000	921.00	0.21	-0.06	0.00	0.00	0.00	0.25	0.00	0.00	0.50	0.00	0.00	0.00	0.00	0.00	0.00	0.00	0.00	0.00	-3.688965	-0.776855	0.506348	-50.750000	96.250000	43.470001	10.00	0.00	0.00
2.18	0.00	0.25	0.25	0.75	0.25	1.50	1.25	5.25	12.50	12.00	14.00	11.50	9.00	13.50	2.25	3.25	-0.287109	0.052734	1.167480	39.480000	150.500000	-9.730000	922.00	0.22	-0.06	0.00	0.00	0.25	1.00	0.00	0.00	0.50	0.00	0.00	0.50	0.00	0.00	0.00	0.00	0.00	0.00	-0.654297	-0.204590	0.447754	-119.559998	186.270004	32.200001	27.00	0.00	0.00
2.19	0.00	0.00	0.00	1.00	0.00	0.75	1.00	4.75	12.50	12.00	14.50	11.75	9.00	14.00	2.50	3.25	-0.368164	0.074219	1.098145	42.770000	170.800003	-9.870000	912.00	0.23	-0.06	0.50	1.00	0.75	1.50	0.00	0.00	0.50	0.00	0.00	0.00	0.00	0.00	0.00	0.00	0.00	0.00	-0.419922	0.002441	2.325195	-113.330002	185.430008	24.990000	47.00	0.00	0.00
2.20	0.00	0.00	0.00	0.50	0.00	0.50	0.50	4.00	12.00	11.75	14.50	11.75	8.50	14.25	2.25	3.25	-0.394531	0.109863	1.060547	46.130001	189.979996	-10.920000	871.00	0.24	-0.06	1.75	3.00	1.50	2.50	0.25	0.00	0.50	0.00	0.00	0.00	0.00	0.00	0.00	0.00	0.00	0.00	0.359375	-0.194336	1.380371	-84.279999	139.369995	35.980000	100.00	-0.31	-0.05
2.21	0.00	0.00	0.00	0.50	0.00	0.25	0.25	3.25	11.75	11.75	14.50	11.75	8.25	14.75	2.25	3.50	-0.446777	0.153320	1.147461	43.119999	215.180008	-13.090000	853.00	0.24	-0.05	4.50	5.75	2.50	4.75	0.25	0.00	0.50	0.00	0.00	0.00	0.00	0.00	0.00	0.00	0.00	0.00	-0.163086	-0.678223	0.038574	-37.450001	125.090004	46.340000	190.00	-0.33	-0.06
2.22	0.00	0.00	0.00	0.25	0.00	0.00	0.00	2.25	11.25	11.50	14.25	11.75	7.75	14.75	2.25	3.50	-0.420898	0.114746	1.389160	47.040001	248.080002	-16.379999	813.00	0.25	-0.04	9.25	10.25	4.25	6.25	0.50	0.00	0.50	0.00	0.00	0.00	0.00	0.00	0.00	0.00	0.00	0.00	-0.317871	-1.286621	1.123047	-3.010000	209.720001	20.370001	319.00	-0.35	-0.04
2.23	0.00	0.00	0.00	0.50	0.00	0.00	0.00	2.00	10.50	11.25	14.00	11.25	7.25	14.75	2.25	3.75	-0.529297	0.150879	1.375488	44.520000	272.860016	-19.040001	788.00	0.25	-0.04	13.00	13.00	7.25	8.75	1.25	0.25	0.50	0.00	0.00	0.00	0.00	0.00	0.25	0.00	0.00	0.00	-0.745117	-0.269043	3.176758	44.450001	259.209991	-18.690001	457.00	-0.34	-0.04
2.24	0.00	0.75	0.00	0.00	0.00	0.00	0.00	1.75	10.00	10.75	13.75	10.75	6.50	14.50	2.50	3.25	-0.561523	0.241211	1.604492	45.570000	314.369995	-26.389999	758.00	0.25	-0.04	15.25	15.25	8.75	10.50	2.50	1.50	0.75	0.00	0.00	0.00	0.00	0.25	0.50	0.00	0.00	0.00	-0.829102	0.642578	2.704590	55.090000	205.380005	-27.090000	573.00	-0.32	-0.05
2.25	0.00	0.00	0.00	0.00	0.00	0.00	0.00	1.25	8.75	10.00	12.75	9.75	5.75	13.75	2.25	2.75	-0.589844	0.208984	1.687500	37.170002	345.450012	-32.340000	680.00	0.26	-0.04	16.25	16.50	9.75	11.25	4.00	2.75	0.75	0.25	0.00	0.00	0.25	0.25	0.50	0.00	0.00	0.00	-0.644531	0.731445	2.663574	-1.820000	141.889999	-5.320000	651.00	-0.31	-0.05
2.26	0.00	0.00	0.00	0.00	0.00	0.00	0.00	0.75	7.75	9.00	11.50	9.00	5.00	12.50	1.75	2.25	-0.873535	0.314453	1.891602	33.529999	383.320007	-37.450001	602.00	0.26	-0.03	16.75	16.75	10.00	11.75	5.00	3.75	1.00	0.50	0.00	0.25	0.25	0.00	0.50	0.00	0.00	0.00	-0.305664	0.005859	1.484863	-42.630001	78.610001	8.190000	696.00	-0.30	-0.05
2.27	0.00	0.00	0.00	0.00	0.00	0.00	0.00	0.50	6.25	7.75	10.00	7.75	3.75	10.75	1.25	1.50	-0.775879	0.576172	2.595703	53.200001	427.420013	-43.400002	502.00	0.26	-0.03	15.50	16.25	10.00	11.75	5.50	4.25	1.00	0.75	0.00	0.25	0.00	0.00	1.00	0.00	0.00	0.00	-0.025879	-0.145020	1.050781	-34.439999	56.980000	4.550000	695.00	-0.30	-0.06
2.28	0.00	0.25	0.00	0.00	0.00	0.00	0.00	0.25	4.50	5.75	8.25	6.25	3.00	8.25	1.00	0.75	-0.791504	0.416504	2.665039	103.389999	476.839996	-49.139999	388.00	0.26	-0.03	16.00	16.00	10.25	12.00	5.75	5.00	1.00	1.00	0.00	0.75	0.25	0.50	0.75	0.25	0.00	0.00	-0.130371	0.088867	1.159668	-13.440001	48.790001	1.680000	731.00	-0.28	-0.06
2.29	0.00	0.00	0.00	0.00	0.00	0.00	0.00	0.00	2.50	3.75	6.50	5.00	1.75	5.75	0.75	0.50	-0.791504	0.416504	2.665039	103.389999	476.839996	-49.139999	267.00	0.27	-0.04	15.50	15.75	10.25	12.50	5.75	5.75	1.25	1.25	0.25	0.75	0.50	0.50	1.00	0.00	0.00	0.00	-0.204590	0.169434	1.166016	-6.090000	34.509998	5.600000	751.00	-0.27	-0.06
2.30	0.00	0.00	0.00	0.00	0.00	0.00	0.00	0.00	2.00	2.50	4.25	3.75	1.50	3.50	0.50	0.25	-0.746582	0.554199	2.271973	150.360001	479.779999	-52.570000	186.00	0.26	-0.05	15.00	15.75	10.25	12.50	6.00	6.50	1.25	1.75	0.00	0.75	0.75	0.50	1.00	0.25	0.00	0.00	-0.150391	0.037109	1.069824	-6.160000	19.180000	6.720000	766.00	-0.27	-0.07
2.31	0.00	0.00	0.00	0.00	0.00	0.00	0.00	0.00	1.75	2.00	3.00	2.50	1.00	2.25	0.25	0.00	-0.149414	0.540527	2.043945	241.570007	481.040009	-89.529999	132.00	0.26	-0.04	14.75	15.50	10.25	12.50	6.25	7.25	1.25	2.00	0.25	1.00	0.50	0.75	1.50	0.25	0.00	0.00	-0.119629	0.125000	1.019043	-2.940000	5.530000	4.620000	786.00	-0.26	-0.08
2.32	0.00	0.00	0.00	0.00	0.00	0.00	0.00	0.00	1.00	1.25	1.50	1.50	0.75	1.25	0.00	0.00	0.202148	0.540527	1.765625	241.570007	481.040009	-89.529999	75.00	0.25	-0.04	14.50	15.50	10.25	12.75	6.25	7.75	1.25	2.50	0.25	1.00	0.75	0.50	1.50	0.25	0.00	0.00	-0.119629	0.125000	1.019043	-2.940000	5.530000	4.620000	799.00	-0.25	-0.08
2.33	0.00	0.00	0.00	0.25	0.00	0.25	0.00	0.00	0.50	0.75	1.00	1.00	0.25	0.50	0.00	0.00	-0.515137	0.163086	0.799805	210.979996	507.290009	-175.350006	47.00	0.00	0.00	13.75	15.00	10.25	12.50	6.50	8.00	1.50	3.00	0.25	0.75	1.00	0.50	1.50	0.50	0.00	0.00	-0.094727	0.058105	0.990234	-5.670000	3.710000	2.660000	803.00	-0.24	-0.08
2.34	0.00	0.00	0.00	0.00	0.00	0.00	0.00	0.00	0.50	0.75	1.00	0.75	0.50	0.75	0.00	0.00	-0.014160	0.280273	3.887207	113.400002	454.860016	-185.500000	43.00	0.00	0.00	14.00	14.75	10.00	12.50	7.00	8.50	1.50	3.25	0.25	1.00	1.00	0.75	2.00	0.50	0.00	0.25	-0.092285	0.102539	0.987305	-6.160000	3.500000	1.190000	826.00	-0.23	-0.09
2.35	0.00	0.00	0.00	0.00	0.00	0.00	0.00	0.00	0.25	0.75	1.00	0.75	0.25	0.50	0.00	0.00	0.557129	0.609375	4.256348	7.630000	302.610016	-158.830002	36.00	0.00	0.00	13.50	14.25	10.00	12.50	7.00	8.50	1.75	3.50	0.50	1.25	1.00	1.25	2.25	0.50	0.25	0.00	-0.101074	0.068848	1.011719	-7.560000	4.130000	-0.210000	838.00	-0.22	-0.09
2.36	0.00	0.00	0.00	0.00	0.00	0.00	0.00	0.00	0.50	0.75	0.75	0.75	0.25	0.25	0.00	0.00	1.312500	0.872070	3.921875	-94.010002	86.660004	-96.669998	34.00	0.00	0.00	13.00	14.00	10.00	12.25	7.25	8.50	1.75	3.75	0.75	0.75	1.25	0.75	2.50	0.75	0.25	0.25	-0.103516	0.063965	1.002441	-7.490000	4.130000	-1.050000	836.00	-0.22	-0.09
2.37	0.00	0.00	0.00	0.00	0.00	0.00	0.00	0.00	0.50	0.25	0.75	0.50	0.25	0.25	0.00	0.00	1.063477	0.953613	2.885742	-138.809998	-102.199997	-30.799999	27.00	0.00	0.00	12.25	13.50	10.00	12.00	7.25	8.75	1.75	4.25	0.75	1.25	1.25	1.00	2.75	1.00	0.25	0.25	-0.104980	0.063965	1.007812	-6.230000	4.620000	-1.120000	843.00	-0.21	-0.09
2.38	0.00	0.00	0.00	0.25	0.00	0.00	0.00	0.00	0.50	0.25	0.50	0.25	0.00	0.00	0.00	0.00	0.775879	0.727051	1.757812	-140.979996	-202.649994	6.230000	20.00	0.00	0.00	11.75	13.00	9.75	11.75	7.50	8.50	1.75	4.25	0.75	1.50	1.50	1.25	3.00	1.00	0.00	0.25	-0.111816	0.054199	1.019531	-4.480000	5.600000	-0.910000	835.00	-0.20	-0.09
2.39	0.00	0.00	0.00	0.00	0.00	0.25	0.00	0.00	0.25	0.00	0.25	0.50	0.00	0.25	0.00	0.00	0.723633	0.545898	0.912598	-108.430000	-239.750000	14.350000	16.00	0.00	0.00	11.00	12.25	9.50	11.50	7.50	8.50	2.00	5.00	1.25	0.75	1.25	1.00	3.00	0.75	0.00	0.25	-0.103027	0.058594	1.004395	-2.870000	7.000000	-0.420000	822.00	-0.20	-0.10
2.40	0.00	0.00	0.00	0.00	0.00	0.00	0.00	0.00	0.25	0.00	0.25	0.50	0.00	0.25	0.00	0.00	0.545898	0.444336	0.557129	-72.800003	-248.570007	3.220000	13.00	0.00	0.00	10.00	11.25	9.25	11.25	7.50	8.25	2.00	5.00	1.25	1.50	1.25	1.25	3.25	0.75	0.25	0.25	-0.110352	0.057129	0.997070	-1.190000	8.330000	0.280000	809.00	-0.18	-0.10
2.41	0.00	0.00	0.00	0.00	0.00	0.00	0.00	0.00	0.50	0.00	0.50	0.25	0.25	0.00	0.00	0.00	0.415039	0.386719	0.436035	-39.970001	-247.029999	-11.970000	17.00	0.00	0.00	9.25	10.50	9.25	11.00	7.25	8.25	2.00	5.25	1.25	1.50	1.50	1.25	3.25	1.00	0.25	0.25	-0.114746	0.055664	0.997559	0.630000	8.960000	0.630000	797.00	-0.17	-0.10
2.42	0.00	0.00	0.00	0.00	0.00	0.25	0.00	0.00	0.00	0.00	0.00	0.25	0.00	0.00	0.00	0.00	0.347656	0.309082	0.469238	-17.360001	-245.210007	-22.469999	5.00	0.00	0.00	8.75	9.50	8.75	10.75	7.00	8.00	2.00	5.25	0.75	1.50	1.75	1.50	3.50	1.00	0.25	0.50	-0.116699	0.068359	0.995605	1.680000	8.750000	0.700000	771.00	-0.17	-0.11
2.43	0.00	0.00	0.00	0.25	0.00	0.00	0.00	0.00	0.25	0.00	0.25	0.00	0.00	0.00	0.00	0.00	0.258301	0.272461	0.571289	-10.080000	-247.309998	-26.740000	9.00	0.00	0.00	8.00	9.25	8.50	10.25	7.00	8.00	2.00	5.25	1.50	2.00	1.75	1.50	3.50	1.00	0.25	0.25	-0.112305	0.074707	0.989746	1.610000	8.050000	0.210000	767.00	-0.16	-0.10
2.44	0.00	0.00	0.00	0.00	0.00	0.00	0.00	0.00	0.00	0.00	0.00	0.00	0.00	0.00	0.00	0.00	0.169922	0.291992	0.704590	-17.150000	-253.470001	-24.920000	0.00	0.00	0.00	7.25	8.50	8.25	10.00	6.75	7.75	2.00	5.25	1.25	2.00	1.75	1.50	3.50	1.25	0.50	0.50	-0.120117	0.075195	0.982910	0.700000	6.720000	-0.350000	744.00	-0.15	-0.10
2.45	0.00	0.00	0.00	0.00	0.00	0.00	0.00	0.00	0.00	0.00	0.00	0.00	0.00	0.00	0.00	0.00	0.109375	0.354004	0.830078	-31.080000	-262.429993	-17.920000	0.00	0.00	0.00	7.00	7.75	7.75	9.50	6.75	7.75	2.00	5.50	1.50	1.75	2.00	1.75	4.00	1.00	0.25	0.50	-0.118164	0.084961	0.986328	-0.420000	5.320000	-1.260000	733.00	-0.14	-0.11
2.46	0.00	0.00	0.00	0.50	0.00	0.00	0.00	0.00	0.00	0.00	0.00	0.00	0.00	0.00	0.00	0.00	0.059082	0.450195	0.917969	-41.509998	-273.700012	-6.300000	5.00	0.00	0.00	6.25	7.50	7.75	9.50	6.75	7.75	2.00	5.50	1.50	2.00	2.00	2.00	4.25	1.25	0.25	0.50	-0.117676	0.078613	0.977539	-1.190000	4.200000	-1.890000	732.00	-0.13	-0.11
2.47	0.00	0.00	0.00	0.00	0.00	0.25	0.00	0.00	0.00	0.00	0.00	0.00	0.00	0.00	0.00	0.00	-0.002441	0.536621	0.987305	-41.369999	-286.019989	8.540000	3.00	0.00	0.00	6.25	7.00	7.50	9.00	6.50	7.75	2.00	5.75	1.25	1.75	2.00	1.75	4.25	1.50	0.00	0.50	-0.106445	0.070801	0.979004	-1.610000	3.710000	-2.450000	711.00	-0.13	-0.11
2.48	0.00	0.00	0.00	0.00	0.00	0.00	0.00	0.00	0.00	0.00	0.00	0.00	0.00	0.00	0.00	0.00	-0.069336	0.593750	1.026367	-31.990000	-299.110016	25.059999	0.00	0.00	0.00	5.75	6.50	7.50	8.75	6.75	7.50	2.00	6.00	1.50	2.00	2.25	2.25	4.75	1.50	0.25	0.50	-0.105469	0.064941	0.978516	-1.890000	3.710000	-2.590000	723.00	-0.12	-0.12
2.49	0.00	0.00	0.00	0.00	0.00	0.00	0.00	0.00	0.25	0.00	0.00	0.00	0.00	0.00	0.00	0.00	-0.165039	0.615723	1.049316	-17.290001	-310.660004	42.490002	3.00	0.00	0.00	5.25	6.25	7.25	8.50	6.50	7.50	2.25	6.00	2.00	2.25	2.50	2.25	5.00	1.50	0.50	0.75	-0.108398	0.066895	0.981445	-1.820000	4.200000	-2.660000	729.00	-0.10	-0.11
2.50	0.00	0.00	0.00	0.00	0.00	0.00	0.00	0.00	0.00	0.00	0.00	0.00	0.00	0.00	0.00	0.00	-0.276367	0.593750	1.074219	-4.690000	-319.339996	61.389999	0.00	0.00	0.00	4.50	5.50	6.75	8.00	6.75	7.50	2.25	6.50	2.25	2.50	2.75	2.50	5.25	1.75	0.25	0.75	-0.101562	0.068848	0.977539	-1.540000	5.390000	-2.590000	727.00	-0.09	-0.12
2.51	0.00	0.00	0.00	0.00	0.00	0.00	0.00	0.00	0.00	0.00	0.00	0.00	0.00	0.00	0.00	0.00	-0.410156	0.561035	1.140137	3.360000	-325.079987	80.989998	0.00	0.00	0.00	4.25	5.25	6.50	7.75	6.75	7.50	2.50	6.75	2.00	2.25	2.50	3.00	5.50	1.75	0.50	1.00	-0.098633	0.070312	0.980469	-1.540000	7.000000	-2.730000	727.00	-0.08	-0.12
2.52	0.00	0.00	0.00	0.00	0.00	0.00	0.00	0.00	0.00	0.00	0.00	0.00	0.00	0.00	0.00	0.00	-0.543945	0.531250	1.211914	9.170000	-329.070007	98.070000	0.00	0.00	0.00	3.75	4.75	6.25	7.50	6.75	7.50	2.50	6.75	2.75	3.25	3.25	2.75	6.00	2.25	0.50	1.00	-0.119141	0.065918	1.001465	-0.490000	10.010000	-3.430000	746.00	-0.06	-0.12
2.53	0.00	0.00	0.00	0.00	0.00	0.00	0.00	0.00	0.00	0.00	0.00	0.00	0.00	0.00	0.00	0.00	-0.700195	0.403809	1.405273	3.080000	-333.619995	122.500000	0.00	0.00	0.00	3.00	4.00	5.50	6.75	6.50	7.25	2.75	7.00	3.00	3.25	3.75	3.25	6.50	2.25	0.50	0.75	-0.101074	0.067383	1.000000	-0.490000	11.340000	-3.780000	733.00	-0.04	-0.12
2.54	0.00	0.00	0.00	0.00	0.00	0.00	0.00	0.00	0.00	0.00	0.00	0.00	0.00	0.00	0.00	0.00	-0.754395	0.356934	1.507812	0.490000	-335.649994	128.869995	0.00	0.00	0.00	2.75	3.50	5.25	6.50	6.50	7.25	2.75	7.25	3.50	3.50	3.50	3.50	6.75	3.00	0.75	0.75	-0.123535	0.073730	0.994141	-0.770000	13.020000	-4.690000	745.00	-0.02	-0.12
2.55	0.00	0.00	0.00	0.00	0.00	0.00	0.00	0.00	0.00	0.00	0.00	0.00	0.00	0.00	0.00	0.00	-0.808594	0.332520	1.591309	-8.890000	-336.910004	133.279999	0.00	0.00	0.00	2.50	3.00	4.50	6.00	6.25	7.00	2.75	7.25	4.25	4.00	4.00	3.75	7.50	3.50	0.75	1.25	-0.139648	0.071289	0.989746	-0.560000	14.350000	-5.740000	754.00	-0.00	-0.12
2.56	0.00	0.25	0.00	0.00	0.00	0.00	0.00	0.00	0.00	0.00	0.00	0.00	0.00	0.00	0.00	0.00	-0.898438	0.348145	1.716309	-20.090000	-335.929993	134.539993	2.00	0.00	0.00	2.00	2.50	4.25	5.25	6.00	6.75	3.00	7.50	4.25	4.50	5.00	4.25	7.75	4.25	0.75	1.25	-0.148926	0.080078	1.000000	-0.000000	15.540000	-5.880000	765.00	0.02	-0.12
2.57	0.00	0.00	0.00	0.00	0.00	0.00	0.00	0.00	0.00	0.00	0.00	0.00	0.00	0.00	0.00	0.00	-1.020508	0.371582	1.834961	-23.799999	-334.459991	131.669998	0.00	0.00	0.00	1.25	2.25	4.00	5.50	6.00	6.75	3.00	7.50	5.50	4.75	5.50	4.75	8.00	4.50	0.75	1.50	-0.137695	0.074219	0.991211	0.560000	17.080000	-6.230000	790.00	0.03	-0.11
2.58	0.00	0.00	0.00	0.00	0.00	0.00	0.00	0.00	0.00	0.00	0.00	0.00	0.00	0.00	0.00	0.00	-1.223145	0.348633	2.020508	-17.430000	-334.670013	123.760002	0.00	0.00	0.00	1.25	2.00	3.25	4.50	5.50	6.50	3.25	7.50	5.75	5.50	6.75	5.00	8.50	5.25	1.00	1.75	-0.167480	0.077148	1.001465	1.470000	19.320000	-6.720000	806.00	0.06	-0.11
2.59	0.00	0.00	0.00	0.00	0.00	0.00	0.00	0.00	0.00	0.00	0.00	0.00	0.00	0.00	0.00	0.00	-1.452637	0.293945	2.248535	-5.670000	-339.709991	112.209999	0.00	0.00	0.00	0.75	1.75	2.25	4.00	5.00	5.75	3.00	7.50	6.50	6.50	7.50	6.50	8.50	6.00	0.75	1.75	-0.144531	0.080566	0.985352	2.520000	21.490000	-7.210000	812.00	0.08	-0.11
2.60	0.00	0.00	0.00	0.00	0.00	0.25	0.00	0.00	0.00	0.00	0.00	0.00	0.00	0.00	0.00	0.00	-1.790039	0.197266	2.409668	4.830000	-349.579987	98.419998	3.00	0.00	0.00	1.00	1.75	2.00	4.00	4.75	6.00	3.00	7.50	6.25	7.50	8.00	7.00	8.75	6.75	1.00	2.25	-0.161133	0.083008	1.004395	3.850000	23.940001	-8.120000	843.00	0.09	-0.11
2.61	0.00	0.00	0.00	0.00	0.00	0.00	0.00	0.00	0.00	0.00	0.00	0.00	0.00	0.00	0.00	0.00	-2.176270	0.065430	2.404297	14.630000	-358.820007	84.070000	0.00	0.00	0.00	0.75	1.50	2.00	3.50	4.00	5.50	3.00	7.50	7.50	7.75	8.50	7.75	9.00	7.25	1.25	2.50	-0.186523	0.073730	0.987305	5.180000	26.880001	-8.820000	862.00	0.11	-0.10
2.62	0.00	0.00	0.00	0.25	0.00	0.00	0.00	0.00	0.00	0.00	0.00	0.00	0.00	0.00	0.00	0.00	-2.562500	-0.063965	2.181641	19.950001	-360.290009	69.790001	3.00	0.00	0.00	0.75	1.50	1.75	3.25	3.50	5.00	3.00	7.50	7.75	8.25	9.00	8.25	9.25	7.75	1.25	2.50	-0.193848	0.063477	0.983887	7.630000	29.400000	-9.590000	871.00	0.12	-0.10
2.63	0.00	0.00	0.00	0.00	0.00	0.00	0.00	0.00	0.00	0.00	0.00	0.00	0.00	0.00	0.00	0.00	-2.901367	-0.170410	1.861816	18.059999	-349.299988	55.020000	0.00	0.00	0.00	0.00	1.50	1.25	2.75	3.25	4.75	2.75	7.50	8.00	9.00	9.75	8.50	9.75	8.50	1.25	3.25	-0.132324	0.083008	0.989746	8.610000	33.529999	-8.470000	879.00	0.13	-0.10
2.64	0.00	0.00	0.00	0.00	0.00	0.00	0.00	0.00	0.00	0.00	0.00	0.00	0.00	0.00	0.00	0.00	-3.106934	-0.233398	1.487305	10.150000	-325.920013	39.270000	0.00	0.00	0.00	0.25	1.00	1.00	2.25	2.50	4.00	2.75	7.50	8.50	9.25	10.25	9.25	10.00	9.00	1.75	3.75	-0.134766	0.104004	1.017090	10.780000	38.920002	-8.330000	889.00	0.15	-0.10
2.65	0.00	0.00	0.00	0.00	0.00	0.00	0.00	0.00	0.00	0.00	0.00	0.00	0.00	0.00	0.00	0.00	-3.110840	-0.212891	0.995117	-10.850000	-290.920013	21.980000	0.00	0.00	0.00	0.00	1.00	1.00	2.00	2.00	3.50	2.75	7.50	9.00	10.00	10.75	9.50	10.25	9.75	1.75	4.75	-0.179199	0.087891	1.050781	12.600000	46.900002	-9.310000	909.00	0.16	-0.10
2.66	0.00	0.00	0.00	0.00	0.00	0.00	0.00	0.00	0.00	0.00	0.00	0.00	0.00	0.00	0.00	0.00	-3.282227	-0.123535	0.658691	-40.320000	-244.790009	8.750000	0.00	0.00	0.00	0.25	0.75	0.50	2.25	1.50	2.50	2.50	7.25	9.25	10.50	11.25	10.00	10.50	10.75	2.25	5.25	-0.199219	0.099121	1.048828	14.980000	57.119999	-9.800000	920.00	0.18	-0.10
2.67	0.00	0.00	0.00	0.00	0.00	0.00	0.00	0.00	0.00	0.00	0.00	0.00	0.00	0.00	0.00	0.00	-3.418945	0.037598	0.111816	-85.050003	-198.029999	-10.430000	0.00	0.00	0.00	0.25	0.50	0.25	1.50	1.25	2.00	2.25	7.00	9.75	11.00	12.00	10.50	10.50	11.75	2.50	5.75	-0.196289	0.086914	1.093262	17.710001	69.440002	-10.150000	930.00	0.19	-0.09
2.68	0.00	0.00	0.00	0.00	0.00	0.00	0.00	0.00	0.00	0.00	0.00	0.00	0.00	0.00	0.00	0.00	-4.402344	0.638672	-0.127441	-125.160004	-162.539993	-52.080002	0.00	0.00	0.00	0.00	0.25	0.25	0.75	1.25	1.75	2.00	6.50	10.00	11.25	12.25	10.75	10.75	12.75	3.00	6.00	-0.199707	0.104004	1.062012	21.700001	82.529999	-11.480000	931.00	0.21	-0.09
2.69	0.00	0.00	0.00	0.00	0.00	0.00	0.00	0.00	0.00	0.00	0.00	0.00	0.00	0.00	0.00	0.00	-4.744141	1.160156	-0.804688	-67.340004	-127.820000	-85.750000	0.00	0.00	0.00	0.00	0.00	0.25	0.75	0.50	1.50	1.75	6.00	10.50	11.75	12.75	11.00	10.75	13.75	3.25	6.50	-0.208984	0.126465	1.090332	25.270000	94.080002	-12.040000	940.00	0.22	-0.08
2.70	0.00	0.00	0.00	0.00	0.00	0.00	0.00	0.00	0.25	0.00	0.00	0.00	0.00	0.00	0.00	0.00	-4.406738	0.971191	-1.437988	75.180000	-69.440002	-82.110001	3.00	0.00	0.00	0.00	0.50	0.00	0.75	0.50	0.75	1.50	5.75	10.50	12.00	13.25	11.25	10.50	14.75	3.50	6.75	-0.278320	0.071777	1.099609	30.380001	108.500000	-11.900000	947.00	0.22	-0.08
2.71	0.00	0.00	0.00	0.25	0.00	0.00	0.00	0.00	0.00	0.00	0.00	0.00	0.00	0.00	0.00	0.00	-3.862793	0.326660	-1.128906	171.850006	18.059999	-46.410000	3.00	0.00	0.00	0.00	0.25	0.00	0.75	0.25	0.50	1.25	5.25	10.50	12.00	13.50	11.25	10.50	16.00	3.75	7.00	-0.271973	0.049316	1.146973	32.480000	124.180000	-9.030000	945.00	0.23	-0.07
2.72	0.00	0.00	0.00	0.25	0.00	0.00	0.00	0.00	0.00	0.00	0.00	0.00	0.00	0.00	0.00	0.00	-5.849609	-2.864258	-0.531738	105.209999	83.650002	33.180000	3.00	0.00	0.00	0.00	0.00	0.00	1.00	0.00	0.25	1.00	4.75	10.25	12.25	13.50	11.50	10.50	17.00	3.75	7.25	-0.279785	0.083984	1.136230	30.870001	139.580002	-5.810000	940.00	0.24	-0.07
2.73	0.25	0.75	0.75	1.25	0.00	0.00	0.00	0.00	0.00	0.00	0.00	0.00	0.00	0.00	0.00	0.00	0.569824	0.994629	-0.250000	-119.629997	243.600006	68.459999	32.00	0.00	0.00	0.00	0.00	0.00	0.50	0.00	0.00	0.75	3.75	10.00	12.00	13.50	11.75	10.25	17.50	4.50	7.50	-0.367676	0.142090	1.144043	33.599998	169.820007	-7.770000	921.00	0.25	-0.07
2.74	1.00	1.75	0.75	2.25	0.00	0.00	0.00	0.00	0.00	0.00	0.00	0.00	0.00	0.00	0.00	0.00	0.081543	-0.823242	0.329590	-101.290001	159.320007	123.270004	60.00	-0.34	-0.11	0.00	0.00	0.00	0.25	0.00	0.00	0.75	2.75	9.75	12.00	13.50	11.75	9.75	18.25	5.00	7.50	-0.385254	0.198242	1.141113	32.340000	191.589996	-11.830000	907.00	0.26	-0.06
2.75	2.25	4.50	1.50	3.75	0.00	0.00	0.00	0.00	0.00	0.00	0.00	0.00	0.00	0.00	0.00	0.00	-0.122559	-1.340820	0.419922	-120.330002	198.520004	78.959999	123.00	-0.35	-0.10	0.00	0.00	0.00	0.00	0.00	0.00	0.50	1.75	9.25	11.75	13.50	11.50	9.50	18.75	5.25	7.50	-0.419922	0.181641	1.170410	28.559999	218.330002	-17.920000	878.00	0.27	-0.05
2.76	5.75	8.75	2.50	5.00	0.25	0.00	0.00	0.00	0.00	0.00	0.00	0.00	0.00	0.00	0.00	0.00	-0.231934	-1.877930	1.473145	-74.340004	272.019989	38.220001	226.00	-0.36	-0.07	0.00	0.00	0.00	0.00	0.00	0.00	0.25	1.25	8.75	11.50	13.25	11.50	9.00	18.75	5.25	7.75	-0.443359	0.217285	1.236328	24.710001	249.410004	-24.080000	852.00	0.27	-0.05
2.77	9.00	13.50	4.50	8.00	0.75	0.50	0.00	0.00	0.00	0.00	0.00	0.00	0.00	0.00	0.00	0.00	-0.877930	-0.903809	2.709473	-6.510000	276.640015	-17.850000	369.00	-0.35	-0.07	0.00	0.00	0.00	0.00	0.00	0.00	0.00	1.00	8.00	10.75	13.00	11.00	8.75	18.75	5.50	7.50	-0.455078	0.247559	1.438965	23.309999	275.799988	-30.660000	818.00	0.28	-0.05
2.78	13.00	17.50	7.25	10.00	1.50	2.00	0.00	0.00	0.00	0.00	0.00	0.25	0.00	0.00	0.00	0.00	-0.942871	0.992188	3.053711	30.450001	230.089996	-40.459999	527.00	-0.34	-0.07	0.00	0.00	0.00	0.00	0.00	0.00	0.00	0.50	7.00	10.25	12.50	10.75	8.00	18.25	5.50	7.00	-0.435059	0.273926	1.659668	17.990000	302.540009	-36.959999	771.00	0.28	-0.05
2.79	15.75	20.00	8.75	12.50	2.50	3.25	0.25	0.25	0.00	0.00	0.00	0.25	0.50	0.00	0.00	0.00	-1.020020	0.596680	2.626953	-40.670002	145.669998	-4.900000	659.00	-0.33	-0.07	0.00	0.00	0.00	0.00	0.00	0.00	0.00	0.50	6.00	9.50	12.00	10.25	7.50	17.50	5.00	6.50	-0.712891	0.431641	1.579590	17.990000	336.910004	-42.840000	721.00	0.28	-0.06
2.80	16.25	20.50	9.50	13.50	4.00	4.25	0.25	0.25	0.00	0.00	0.00	0.00	0.25	0.00	0.00	0.00	-0.357910	-0.154297	1.441406	-80.570000	83.300003	6.790000	711.00	-0.32	-0.07	0.00	0.00	0.00	0.00	0.00	0.00	0.00	0.00	4.75	8.50	10.75	9.50	6.50	16.00	4.75	5.50	-0.645996	0.400879	2.225586	38.290001	371.839996	-55.510002	636.00	0.28	-0.06
2.81	15.75	20.50	9.75	14.00	4.50	5.50	0.25	1.00	0.25	0.00	0.00	0.25	0.50	0.25	0.00	0.00	-0.149902	-0.184570	1.233398	-62.650002	59.990002	-1.610000	755.00	-0.30	-0.08	0.00	0.00	0.00	0.00	0.00	0.00	0.00	0.00	2.75	7.50	10.00	8.50	5.50	13.75	4.00	4.25	-0.605957	0.237793	2.109375	37.310001	410.130005	-63.490002	538.00	0.28	-0.07
2.82	15.25	19.50	9.75	13.75	5.25	6.25	0.50	1.25	0.25	0.00	0.25	0.50	0.50	0.50	0.00	0.00	-0.274902	0.141113	1.146973	-38.570000	40.740002	-3.220000	769.00	-0.29	-0.08	0.00	0.00	0.00	0.00	0.00	0.00	0.00	0.00	1.75	6.00	8.75	7.50	3.75	11.00	3.00	2.75	-0.824707	0.442383	2.488770	49.209999	435.750000	-62.580002	429.00	0.28	-0.07
2.83	14.25	19.00	9.75	13.75	5.75	7.00	0.50	1.25	0.50	0.00	0.50	0.25	0.75	0.75	0.00	0.00	-0.176270	0.009766	1.078613	-25.129999	27.510000	1.890000	775.00	-0.28	-0.08	0.00	0.00	0.00	0.00	0.00	0.00	0.00	0.00	1.00	4.25	7.00	5.75	2.50	8.00	1.75	1.75	-0.800781	0.606934	2.415039	71.959999	451.709991	-64.680000	309.00	0.28	-0.07
2.84	13.75	18.50	10.00	14.00	5.75	7.50	0.50	1.75	0.50	0.25	0.50	0.50	0.75	0.75	0.00	0.00	-0.185547	0.002930	1.020508	-13.230000	17.080000	1.540000	789.00	-0.27	-0.08	0.00	0.00	0.00	0.00	0.00	0.00	0.25	0.00	0.25	3.00	5.00	3.75	2.00	5.50	1.00	1.25	-0.426270	0.621094	2.437012	132.720001	458.779999	-72.590004	212.00	0.27	-0.08
2.85	13.00	18.00	10.00	14.00	6.25	8.00	0.75	2.00	0.75	0.50	0.75	1.00	1.25	0.75	0.00	0.00	-0.188477	0.082520	0.983398	-4.760000	11.480000	1.260000	814.00	-0.25	-0.09	0.00	0.00	0.00	0.00	0.00	0.00	0.25	0.00	0.75	2.50	3.25	2.50	1.50	2.75	0.50	0.75	-0.220215	0.700684	2.422363	207.479996	465.010010	-84.769997	146.00	0.26	-0.07
2.86	12.00	17.50	9.75	14.25	6.50	8.25	0.75	2.50	1.25	0.50	1.00	0.75	1.25	0.75	0.25	0.00	-0.148438	0.048828	0.978027	-3.150000	10.570000	1.260000	821.00	-0.24	-0.09	0.00	0.00	0.00	0.00	0.00	0.00	0.25	0.00	0.25	2.00	2.25	1.75	1.25	1.50	0.25	0.25	-0.100098	0.479492	2.474609	269.360016	463.679993	-104.230003	98.00	0.25	-0.09
2.87	11.75	16.75	9.75	14.00	6.75	8.75	0.75	3.25	1.25	0.75	1.00	0.75	1.50	1.25	0.00	0.00	-0.145020	0.043945	0.969727	-3.080000	10.990000	0.280000	835.00	-0.23	-0.09	0.00	0.00	0.00	0.00	0.00	0.00	0.25	0.00	0.00	1.25	1.25	1.00	0.75	0.50	0.25	0.00	0.494629	0.167480	2.045898	283.010010	453.179993	-139.229996	54.00	0.23	-0.10
2.88	11.00	16.25	9.75	13.75	7.00	9.00	1.00	4.00	1.50	0.75	1.25	1.00	1.50	1.25	0.00	0.00	-0.153809	0.055664	0.973145	-2.940000	10.850000	-0.350000	849.00	-0.22	-0.10	0.00	0.00	0.00	0.00	0.00	0.25	0.50	0.00	0.00	1.75	1.25	1.25	0.75	0.75	0.25	0.25	0.140137	0.276855	1.704590	227.360001	419.790009	-180.320007	72.00	0.22	-0.08
2.89	10.00	15.50	9.75	13.50	7.25	9.50	1.00	4.50	1.50	1.00	1.50	1.25	2.00	1.50	0.25	0.00	-0.146973	0.047363	0.967773	-2.940000	11.130000	-1.190000	861.00	-0.20	-0.10	0.00	0.00	0.00	0.00	0.00	0.00	0.50	0.00	0.00	1.50	1.25	0.75	0.50	0.25	0.00	0.00	1.218750	0.355469	4.461914	116.340004	222.460007	-165.199997	51.00	0.21	-0.05
2.90	9.25	14.75	9.50	13.50	7.50	9.25	1.00	5.00	2.00	1.50	1.50	1.25	2.00	1.50	0.00	0.00	-0.157715	0.050781	0.978516	-3.290000	11.480000	-2.030000	861.00	-0.19	-0.10	0.00	0.00	0.00	0.00	0.00	0.00	0.50	0.00	0.00	1.00	1.00	0.75	0.00	0.25	0.00	0.00	1.122070	0.690430	3.627930	19.950001	5.600000	-107.870003	39.00	0.00	0.00
2.91	9.00	13.75	9.50	13.00	7.75	9.50	1.25	5.25	2.50	1.25	1.50	1.25	2.25	2.00	0.25	0.25	-0.158691	0.044922	0.972656	-3.850000	11.760000	-2.730000	871.00	-0.18	-0.10	0.00	0.00	0.00	0.00	0.00	0.00	0.50	0.00	0.00	0.75	0.75	0.50	0.00	0.00	0.00	0.00	0.764160	0.552734	1.115234	-70.209999	-175.000000	-28.559999	29.00	0.00	0.00
2.92	8.50	12.50	9.25	12.50	8.00	9.50	1.75	5.50	2.50	1.50	2.00	1.50	2.50	2.00	0.25	0.25	-0.157227	0.021484	0.982910	-4.270000	14.770000	-3.360000	873.00	-0.16	-0.10	0.00	0.00	0.00	0.00	0.00	0.00	0.50	0.00	0.00	1.00	0.25	0.25	0.00	0.00	0.00	0.00	0.764160	0.552734	1.115234	-70.209999	-175.000000	-28.559999	23.00	0.00	0.00
2.93	7.75	11.50	9.00	11.75	8.00	9.25	1.50	5.50	2.75	1.75	1.75	1.50	2.75	2.25	0.25	0.00	-0.157227	0.021484	0.982910	-4.270000	14.770000	-3.360000	844.00	-0.16	-0.10	0.00	0.00	0.00	0.00	0.00	0.00	0.50	0.00	0.00	0.75	0.50	0.00	0.00	0.00	0.00	0.00	0.598145	0.457031	0.534668	-14.980000	-164.919998	-18.270000	21.00	0.00	0.00
2.94	7.25	10.00	8.50	11.25	8.00	9.25	1.75	5.50	3.00	1.75	2.00	1.75	2.75	2.25	0.50	0.25	-0.144531	0.025391	0.977539	-3.710000	16.660000	-3.150000	831.00	-0.14	-0.10	0.00	0.00	0.00	0.00	0.00	0.00	0.50	0.00	0.00	0.25	0.50	0.00	0.00	0.00	0.00	0.00	0.586426	0.369141	0.662598	17.290001	-166.809998	-15.750000	15.00	0.00	0.00
2.95	6.25	9.00	8.50	10.50	7.75	9.00	2.00	5.75	3.25	2.00	2.00	1.75	3.00	2.25	0.50	0.25	-0.156250	0.032715	0.970215	-2.660000	17.990000	-2.730000	813.00	-0.13	-0.09	0.00	0.00	0.00	0.00	0.00	0.00	0.50	0.00	0.25	0.50	0.25	0.00	0.00	0.00	0.00	0.00	0.556152	0.236328	0.812500	32.200001	-183.399994	-7.770000	19.00	0.00	0.00
2.96	5.75	8.00	8.00	9.50	7.75	9.00	2.00	5.75	3.75	2.25	2.25	2.00	3.25	2.75	0.50	0.25	-0.157715	0.028809	0.968750	-0.560000	18.760000	-2.660000	803.00	-0.11	-0.09	0.00	0.00	0.00	0.00	0.00	0.00	0.50	0.00	0.00	0.25	0.25	0.00	0.00	0.00	0.00	0.00	0.509277	0.134277	0.945801	22.750000	-208.180008	4.200000	13.00	0.00	0.00
2.97	5.00	7.25	7.50	9.00	7.75	8.75	2.00	5.75	4.25	2.50	2.50	2.00	3.50	2.25	0.50	0.25	-0.164551	0.037109	0.956055	0.070000	18.830000	-2.940000	784.00	-0.10	-0.09	0.00	0.00	0.00	0.00	0.00	0.00	0.50	0.00	0.00	0.25	0.25	0.00	0.00	0.00	0.00	0.00	0.442383	0.075195	1.009277	-3.780000	-235.199997	18.059999	13.00	0.00	0.00
2.98	4.25	6.50	7.25	8.50	7.50	8.75	2.25	5.75	4.50	2.75	2.75	2.00	3.50	2.75	0.50	0.25	-0.166992	0.045410	0.967773	0.070000	19.040001	-3.570000	775.00	-0.08	-0.09	0.00	0.00	0.00	0.00	0.00	0.25	0.50	0.00	0.00	0.50	0.00	0.00	0.00	0.00	0.00	0.00	0.365723	0.096191	1.065918	-32.759998	-259.910004	30.799999	15.00	0.00	0.00
2.99	3.75	5.75	6.50	8.25	7.25	8.25	2.25	6.00	5.00	2.75	2.75	2.50	3.75	3.25	0.50	0.25	-0.172852	0.046875	0.966797	-0.350000	19.040001	-4.130000	766.00	-0.07	-0.09	0.00	0.00	0.00	0.00	0.00	0.00	0.50	0.25	0.00	0.25	0.00	0.00	0.00	0.00	0.00	0.00	0.270020	0.152832	1.109863	-51.520000	-281.679993	41.369999	14.00	0.00	0.00
3.00	3.25	5.50	6.25	7.75	7.25	8.25	2.25	6.00	5.25	3.00	3.00	2.50	3.75	3.50	0.75	0.50	-0.165039	0.040527	0.969238	-0.840000	19.320000	-4.550000	764.00	-0.05	-0.09	0.00	0.00	0.00	0.00	0.00	0.00	0.50	0.00	0.00	0.25	0.00	0.00	0.00	0.00	0.00	0.00	0.179199	0.205078	1.141602	-53.549999	-302.119995	49.349998	10.00	0.00	0.00
3.01	2.75	5.00	5.50	7.00	7.00	8.00	2.50	6.00	5.50	3.00	3.25	2.75	4.75	3.75	0.50	0.50	-0.176758	0.039551	0.963379	-0.910000	19.460001	-4.900000	753.00	-0.04	-0.09	0.00	0.00	0.00	0.00	0.00	0.25	0.50	0.00	0.00	0.25	0.00	0.00	0.00	0.00	0.00	0.00	0.065918	0.233398	1.192383	-42.279999	-320.459991	55.020000	13.00	0.00	0.00
3.02	2.25	4.25	5.00	6.50	6.75	7.75	2.75	6.25	6.25	3.25	3.50	3.00	5.00	3.75	0.50	0.50	-0.173340	0.037598	0.966309	-0.700000	19.950001	-5.180000	752.00	-0.02	-0.09	0.00	0.00	0.00	0.00	0.00	0.00	0.50	0.00	0.00	0.50	0.00	0.00	0.00	0.00	0.00	0.00	-0.050293	0.202637	1.232910	-27.930000	-335.929993	59.290001	13.00	0.00	0.00
3.03	2.00	3.75	4.50	6.00	6.50	7.75	2.50	6.25	7.25	3.75	3.75	3.25	5.00	4.25	0.75	0.50	-0.171387	0.041016	0.962402	-0.420000	20.930000	-5.460000	758.00	0.00	-0.08	0.00	0.00	0.00	0.00	0.00	0.00	0.50	0.00	0.00	0.50	0.00	0.00	0.00	0.00	0.00	0.00	-0.208008	0.190430	1.259766	-19.389999	-347.130005	62.510002	13.00	0.00	0.00
3.04	2.00	3.00	4.25	5.50	6.25	7.50	2.75	6.25	7.50	4.00	4.00	3.50	5.25	4.50	0.75	0.50	-0.168457	0.039551	0.964355	-0.350000	22.190001	-5.530000	756.00	0.02	-0.08	0.00	0.00	0.00	0.00	0.00	0.00	0.50	0.00	0.00	0.25	0.00	0.00	0.00	0.00	0.00	0.00	-0.387207	0.181641	1.267578	-16.240000	-354.480011	66.080002	10.00	0.00	0.00
3.05	1.50	3.00	3.50	5.25	6.00	7.25	2.75	6.25	8.00	4.50	4.50	3.75	5.50	5.00	0.75	0.50	-0.181641	0.037598	0.961914	-0.280000	23.520000	-5.810000	760.00	0.03	-0.08	0.00	0.00	0.00	0.00	0.00	0.00	0.50	0.00	0.00	0.25	0.00	0.00	0.00	0.00	0.00	0.00	-0.559082	0.169434	1.266113	-11.340000	-357.489990	71.330002	10.00	0.00	0.00
3.06	1.50	2.25	3.50	5.00	5.75	6.75	3.00	6.25	8.25	5.00	5.25	4.00	5.75	5.25	0.75	0.75	-0.174316	0.039551	0.954102	-0.210000	24.780001	-6.300000	771.00	0.05	-0.07	0.00	0.00	0.00	0.00	0.00	0.00	0.50	0.00	0.00	0.25	0.00	0.00	0.00	0.00	0.00	0.00	-0.638672	0.129395	1.283691	-5.110000	-353.429993	74.900002	10.00	0.00	0.00
3.07	0.75	2.50	2.75	4.25	5.25	6.50	2.75	6.25	8.75	5.25	6.00	4.00	6.00	5.25	0.75	0.75	-0.180176	0.037598	0.963867	0.630000	25.760000	-6.860000	756.00	0.06	-0.07	0.00	0.00	0.00	0.00	0.00	0.00	0.50	0.00	0.00	0.25	0.00	0.00	0.00	0.00	0.00	0.00	-0.727051	0.108887	1.377930	-0.910000	-345.730011	75.879997	10.00	0.00	0.00
3.08	1.00	2.25	2.50	4.00	5.25	6.25	3.00	6.25	9.00	6.25	6.75	5.00	6.25	6.00	1.00	0.75	-0.190430	0.047852	0.967773	0.280000	27.719999	-7.560000	795.00	0.08	-0.07	0.00	0.00	0.00	0.00	0.00	0.50	0.50	0.00	0.00	0.25	0.00	0.00	0.00	0.00	0.00	0.00	-0.811035	0.094238	1.515625	0.070000	-339.779999	76.019997	16.00	0.00	0.00
3.09	0.75	1.75	2.25	3.75	4.75	5.75	3.00	6.25	9.50	7.50	7.50	5.25	6.50	6.75	1.00	1.00	-0.209961	0.046387	0.964844	0.070000	29.120001	-8.120000	811.00	0.10	-0.07	0.00	0.00	0.00	0.00	0.00	0.00	0.50	0.00	0.00	0.25	0.00	0.00	0.00	0.00	0.00	0.00	-0.837402	0.114258	1.654785	-5.600000	-337.119995	77.000000	10.00	0.00	0.00
3.10	1.00	1.75	1.75	3.50	4.50	5.50	3.25	6.00	9.75	7.75	7.75	5.75	6.75	7.00	1.00	1.00	-0.194336	0.032715	0.964355	0.420000	30.520000	-8.750000	818.00	0.10	-0.06	0.00	0.00	0.00	0.25	0.00	0.00	0.50	0.00	0.00	0.25	0.00	0.00	0.00	0.00	0.00	0.00	-0.881348	0.138672	1.745605	-14.840000	-335.860016	80.080002	13.00	0.00	0.00
3.11	0.50	1.50	1.75	3.25	3.75	5.25	3.25	6.00	10.25	8.00	8.25	6.25	7.00	7.75	1.25	1.00	-0.170410	0.048340	0.973145	0.350000	32.549999	-9.660000	828.00	0.12	-0.06	0.00	0.00	0.00	0.00	0.00	0.00	0.50	0.00	0.00	0.00	0.00	0.00	0.00	0.00	0.00	0.00	-0.931152	0.175293	1.801758	-21.490000	-333.200012	83.160004	8.00	0.00	0.00
3.12	0.75	1.25	1.25	3.00	3.25	4.75	3.00	6.00	10.50	8.50	8.50	6.50	7.00	8.25	1.25	1.25	-0.225586	0.040527	0.974121	1.120000	35.070000	-10.010000	825.00	0.13	-0.06	0.00	0.00	0.00	0.00	0.00	0.00	0.50	0.00	0.00	0.00	0.00	0.00	0.00	0.00	0.00	0.00	-0.965820	0.187500	1.857910	-21.350000	-328.160004	83.370003	8.00	0.00	0.00
3.13	0.25	0.75	1.00	2.75	3.00	4.00	3.00	6.00	10.75	8.50	9.00	7.00	7.25	8.75	1.25	1.25	-0.221191	0.034668	0.970703	2.170000	37.310001	-10.360000	819.00	0.15	-0.06	0.00	0.00	0.00	0.00	0.00	0.00	0.50	0.00	0.00	0.00	0.00	0.00	0.00	0.00	0.00	0.00	-1.128906	0.137695	2.192383	-9.520000	-317.170013	69.440002	8.00	0.00	0.00
3.14	0.25	0.75	1.00	2.25	2.50	4.00	3.00	5.75	11.25	9.00	9.25	7.50	7.25	9.25	1.25	1.50	-0.224121	0.058594	0.957520	3.780000	39.340000	-10.850000	829.00	0.16	-0.06	0.00	0.00	0.00	0.00	0.00	0.00	0.25	0.00	0.00	0.00	0.00	0.00	0.00	0.00	0.00	0.00	-1.271484	0.103027	2.323730	-7.000000	-318.779999	57.049999	4.00	0.00	0.00
3.15	0.25	0.75	1.00	2.25	2.25	3.25	3.00	5.75	11.50	9.25	10.00	7.50	7.50	9.50	1.50	1.50	-0.227539	0.034668	0.973633	5.040000	42.349998	-10.290000	839.00	0.16	-0.05	0.00	0.00	0.00	0.00	0.00	0.00	0.50	0.00	0.00	0.00	0.00	0.00	0.00	0.00	0.00	0.00	-1.509766	0.120605	2.313477	-13.160000	-322.489990	43.400002	8.00	0.00	0.00
3.16	0.25	0.50	0.75	2.00	2.00	3.25	3.00	5.50	11.75	9.75	10.50	8.00	7.50	10.25	1.50	1.75	-0.235352	0.011230	0.971680	7.980000	46.619999	-9.870000	851.00	0.17	-0.05	0.00	0.25	0.00	0.00	0.00	0.00	0.50	0.00	0.00	0.50	0.00	0.00	0.00	0.00	0.00	0.00	-1.817383	0.191895	2.237305	-27.719999	-322.420013	30.380001	15.00	0.00	0.00
3.17	0.00	0.50	0.50	1.75	1.50	2.75	2.75	5.50	12.00	10.00	10.75	8.50	7.75	10.50	1.50	1.75	-0.248535	0.038086	0.976074	12.180000	56.630001	-8.470000	846.00	0.18	-0.05	0.00	0.00	0.00	0.00	0.00	0.00	0.50	0.00	0.00	0.25	0.00	0.00	0.00	0.00	0.00	0.00	-2.113770	0.296387	2.053711	-47.529999	-316.540009	18.200001	10.00	0.00	0.00
3.18	0.25	0.50	0.25	1.75	1.25	2.00	2.50	5.50	12.25	10.25	11.25	8.75	8.00	11.00	1.75	2.00	-0.256348	0.051758	0.975098	14.980000	63.349998	-8.680000	856.00	0.19	-0.05	0.00	0.00	0.00	0.00	0.00	0.25	0.50	0.00	0.00	0.25	0.00	0.00	0.00	0.00	0.00	0.00	-2.307129	0.463379	1.690918	-64.889999	-302.399994	7.700000	13.00	0.00	0.00
3.19	0.00	0.00	0.25	1.75	1.00	2.25	2.50	5.25	12.50	10.50	12.00	9.25	8.00	11.75	2.00	2.00	-0.256348	0.062988	0.989258	17.010000	70.559998	-8.960000	873.00	0.20	-0.05	0.00	0.00	0.00	0.00	0.00	0.00	0.50	0.00	0.00	0.00	0.00	0.00	0.00	0.00	0.00	0.00	-2.446289	0.544434	1.275391	-56.070000	-277.760010	8.610000	8.00	0.00	0.00
3.20	0.00	0.25	0.00	1.50	0.50	1.50	2.25	5.00	12.75	11.00	12.25	9.50	8.00	12.50	2.00	2.25	-0.300293	0.068359	1.016602	17.010000	77.769997	-9.310000	870.00	0.21	-0.05	0.00	0.00	0.00	0.00	0.00	0.00	0.50	0.00	0.00	0.25	0.00	0.00	0.00	0.00	0.00	0.00	-2.824707	0.479980	0.757324	-31.990000	-248.430008	17.710001	10.00	0.00	0.00
3.21	0.00	0.25	0.25	1.00	0.25	1.50	2.00	5.00	13.00	11.50	12.75	9.75	8.25	13.00	2.25	2.50	-0.289551	0.071777	0.983887	18.549999	85.820000	-9.660000	887.00	0.21	-0.05	0.00	0.00	0.00	0.00	0.00	0.00	0.50	0.00	0.00	0.25	0.00	0.00	0.00	0.00	0.00	0.00	-3.991211	0.536133	0.252441	-16.309999	-221.339996	16.100000	10.00	0.00	0.00
3.22	0.00	0.00	0.25	1.50	0.25	1.25	1.75	4.50	13.00	11.75	13.25	10.25	8.25	13.75	2.25	3.00	-0.303223	0.043457	1.046387	20.650000	95.620003	-10.010000	899.00	0.22	-0.04	0.00	0.00	0.00	0.00	0.00	0.00	0.50	0.00	0.00	0.25	0.00	0.00	0.00	0.00	0.00	0.00	-4.736328	0.467773	-0.550781	34.580002	-190.119995	12.810000	10.00	0.00	0.00
3.23	0.00	0.00	0.00	1.00	0.25	1.00	1.50	4.00	13.25	12.00	13.75	10.75	8.00	14.25	2.50	3.25	-0.335449	0.041504	1.038086	21.700001	108.849998	-9.450000	899.00	0.23	-0.04	0.00	0.00	0.00	0.00	0.00	0.00	0.50	0.00	0.00	0.25	0.00	0.00	0.00	0.00	0.00	0.00	-4.712891	0.051270	-1.157227	101.080002	-128.520004	19.389999	10.00	0.00	0.00
3.24	0.00	0.00	0.00	0.75	0.00	0.50	1.25	3.50	13.50	12.25	14.00	10.75	8.00	15.00	2.75	3.75	-0.339355	0.046875	1.039062	21.280001	121.940002	-7.140000	897.00	0.24	-0.04	0.00	0.00	0.00	0.00	0.00	0.00	0.50	0.00	0.00	0.50	0.00	0.00	0.00	0.00	0.00	0.00	-4.063477	-0.350586	-1.074219	106.470001	-33.599998	36.540001	13.00	0.00	0.00
3.25	0.00	0.00	0.00	0.50	0.00	0.75	1.00	3.25	13.50	12.25	14.25	11.00	7.75	15.75	2.75	4.00	-0.350586	0.055176	1.047852	22.750000	134.330002	-4.690000	900.00	0.24	-0.03	0.00	0.00	0.00	0.00	0.00	0.00	0.50	0.00	0.00	0.25	0.00	0.00	0.00	0.00	0.00	0.00	-3.175781	-0.522461	-0.339844	39.200001	58.590000	57.540001	10.00	0.00	0.00
3.26	0.00	0.00	0.00	0.50	0.00	0.25	0.75	2.75	13.50	12.50	14.50	11.25	7.50	16.25	2.75	4.25	-0.376953	0.070801	1.068359	27.580000	149.029999	-5.040000	894.00	0.25	-0.03	0.00	0.00	0.25	0.00	0.00	0.00	0.50	0.00	0.00	0.25	0.00	0.00	0.00	0.00	0.00	0.00	-2.307617	-0.129883	0.508301	-28.139999	110.459999	81.340004	13.00	0.00	0.00
3.27	0.00	0.00	0.00	0.25	0.00	0.00	0.50	2.00	13.25	12.50	14.75	11.25	7.25	17.00	3.00	4.50	-0.395020	0.117188	1.105957	28.210001	169.610001	-8.330000	881.00	0.26	-0.02	0.00	1.25	0.50	0.75	0.00	0.00	0.50	0.00	0.00	0.00	0.00	0.00	0.00	0.00	0.00	0.00	-1.236328	-0.134277	0.922363	-36.610001	205.520004	67.340004	33.00	0.00	0.00
3.28	0.00	0.00	0.00	0.50	0.00	0.00	0.00	1.50	13.00	12.25	14.50	11.00	6.75	17.75	3.25	4.75	-0.497559	0.148438	1.101074	28.559999	194.809998	-12.950000	864.00	0.26	-0.02	0.50	1.25	1.00	1.25	0.00	0.00	0.50	0.00	0.00	0.00	0.00	0.00	0.00	0.00	0.00	0.00	-0.437988	0.026855	1.573242	-36.750000	201.389999	54.459999	49.00	0.00	0.00
3.29	0.00	0.00	0.00	0.00	0.00	0.00	0.00	1.25	12.75	12.25	14.50	11.00	6.50	18.00	3.25	4.75	-0.493164	0.173828	1.169922	24.010000	217.279999	-17.430000	851.00	0.27	-0.02	2.50	4.25	1.50	3.00	0.25	0.00	0.50	0.00	0.00	0.00	0.00	0.00	0.00	0.00	0.00	0.00	0.834473	0.013184	1.485840	-39.060001	155.470001	58.520000	125.00	-0.32	-0.06
3.30	0.00	0.00	0.00	0.00	0.00	0.00	0.00	1.00	12.25	12.00	14.00	10.50	5.75	18.25	3.75	4.75	-0.416504	0.142578	1.248535	25.059999	251.300003	-24.780001	828.00	0.27	-0.01	6.50	8.00	3.25	5.25	0.25	0.00	0.50	0.00	0.00	0.00	0.00	0.00	0.00	0.00	0.00	0.00	0.139648	-0.864258	0.117676	-14.700000	136.639999	56.770000	245.00	-0.34	-0.05
3.31	0.00	0.00	0.00	0.00	0.00	0.00	0.00	0.50	11.75	11.50	13.75	10.00	5.50	18.50	3.75	4.50	-0.672363	0.088867	1.519043	21.420000	273.489990	-29.330000	800.00	0.28	-0.01	10.25	11.50	5.00	8.00	0.50	0.00	0.50	0.00	0.00	0.00	0.00	0.00	0.25	0.00	0.00	0.00	-0.948730	-0.485352	3.612793	42.000000	304.570007	-16.170000	371.00	-0.34	-0.05
3.32	0.00	0.00	0.00	0.00	0.00	0.00	0.00	0.50	11.00	11.00	13.50	9.75	4.75	18.25	3.75	4.25	-0.592285	0.199707	1.414062	13.860000	302.119995	-33.950001	769.00	0.28	-0.01	13.50	14.25	7.75	9.75	1.50	0.50	0.50	0.00	0.00	0.00	0.00	0.00	0.25	0.00	0.00	0.00	-0.948730	-0.485352	3.612793	42.000000	304.570007	-16.170000	496.00	-0.34	-0.05
3.33	0.00	0.00	0.00	0.00	0.00	0.00	0.00	0.25	10.00	10.50	12.50	9.00	4.00	17.50	3.50	3.50	-0.807617	0.264648	1.396484	7.210000	333.760010	-38.920002	709.00	0.28	-0.00	15.25	15.75	9.25	11.00	2.75	3.50	0.75	0.25	0.00	0.00	0.00	0.00	0.50	0.00	0.00	0.00	-0.717285	0.927734	2.283691	-3.570000	149.240005	-10.080000	614.00	-0.32	-0.06
3.34	0.00	0.00	0.00	0.00	0.00	0.00	0.00	0.00	8.75	9.50	11.50	8.25	3.25	16.50	3.00	2.75	-0.840820	0.324707	1.942383	22.960001	379.540009	-47.459999	636.00	0.28	0.00	16.00	16.25	10.00	11.50	4.50	4.50	1.00	0.75	0.00	0.00	0.00	0.25	0.75	0.00	0.00	0.00	-0.272461	0.058105	1.288574	-63.209999	72.730003	5.530000	687.00	-0.30	-0.06
3.35	0.00	0.00	0.00	0.00	0.00	0.00	0.00	0.00	7.75	8.25	10.00	7.00	2.50	14.50	2.50	1.75	-0.874023	0.276367	2.251953	31.639999	420.769989	-52.639999	547.00	0.28	0.01	15.25	16.00	10.25	11.75	5.75	5.25	1.00	1.00	0.00	0.25	0.25	0.25	1.00	0.00	0.00	0.00	0.072754	-0.262207	1.051270	-59.360001	57.750000	2.380000	716.00	-0.29	-0.06
3.36	0.00	0.00	0.00	0.00	0.00	0.00	0.00	0.00	5.75	7.00	8.50	5.75	1.50	12.00	1.75	1.25	-1.051270	0.473145	2.407227	40.529999	457.239990	-54.880001	438.00	0.28	0.01	15.00	15.50	10.00	12.25	6.00	6.00	1.00	1.75	0.00	0.25	0.25	0.00	1.25	0.25	0.00	0.00	-0.317383	0.129395	1.244629	-41.860001	48.020000	-1.610000	735.00	-0.28	-0.07
3.37	0.00	0.00	0.00	0.00	0.00	0.00	0.00	0.00	4.50	5.00	6.75	4.75	1.25	9.25	1.25	0.75	-0.783691	0.587402	2.428711	67.830002	476.769989	-56.279999	339.00	0.28	0.01	14.50	15.25	10.25	12.00	6.50	6.50	1.00	1.75	0.00	0.50	0.50	0.00	1.25	0.50	0.00	0.00	-0.230469	0.136719	1.265625	-31.570000	28.070000	3.220000	746.00	-0.27	-0.07
3.38	0.00	0.00	0.00	0.00	0.00	0.00	0.00	0.00	2.75	3.50	4.75	3.00	1.00	6.25	1.00	0.25	-0.432129	0.546387	2.612305	191.309998	487.970001	-81.900002	228.00	0.28	0.01	14.25	15.00	10.25	12.25	6.75	7.25	1.50	2.50	0.00	0.50	0.75	0.50	1.75	1.25	0.00	0.25	-0.105957	-0.020020	1.008301	-18.549999	10.780000	3.570000	794.00	-0.24	-0.08
3.39	0.00	0.00	0.00	0.00	0.00	0.00	0.00	0.00	2.25	2.25	3.00	2.00	0.75	4.00	0.50	0.00	-0.176270	0.217773	2.605957	219.309998	494.970001	-107.169998	151.00	0.28	0.02	13.75	14.75	10.75	12.50	7.25	7.75	1.50	2.75	0.25	0.75	0.25	0.50	2.00	1.75	0.00	0.00	-0.130371	0.100098	1.031738	-7.700000	5.320000	2.660000	815.00	-0.24	-0.08
3.40	0.00	0.00	0.00	0.00	0.00	0.25	0.00	0.00	2.00	1.75	1.75	1.50	0.50	2.00	0.50	0.25	0.359375	-0.004395	1.903320	187.529999	498.330017	-142.729996	109.00	0.26	0.01	13.50	14.50	10.50	12.50	7.50	8.25	1.50	3.25	0.25	1.00	0.50	0.75	2.00	1.50	0.00	0.25	-0.121582	0.087891	1.033203	-6.090000	3.920000	2.730000	830.00	-0.23	-0.08
3.41	0.00	0.00	0.00	0.00	0.00	0.00	0.00	0.00	1.25	1.00	1.25	1.00	0.25	1.25	0.25	0.00	-0.548340	0.240723	0.479492	127.889999	507.989990	-186.550003	66.00	0.27	0.02	12.75	13.75	10.50	12.25	8.00	8.00	1.75	3.75	0.50	1.00	1.00	0.75	2.50	1.25	0.00	0.25	-0.106934	0.031738	0.998535	-4.690000	2.590000	1.680000	838.00	-0.22	-0.08
3.42	0.00	0.00	0.00	0.00	0.00	0.00	0.00	0.00	1.25	1.25	1.00	0.75	0.25	0.50	0.25	0.00	-0.030762	0.642090	4.751953	43.750000	421.750000	-191.240005	57.00	0.26	0.02	12.25	13.50	10.25	12.25	8.00	8.50	1.75	4.50	1.00	1.00	1.00	1.00	3.25	2.00	0.00	0.25	-0.112305	0.084473	1.000488	-2.800000	1.610000	1.120000	866.00	-0.20	-0.09
3.43	0.00	0.00	0.00	0.00	0.00	0.25	0.00	0.00	0.75	1.00	1.00	0.75	0.25	0.75	0.25	0.00	0.708984	0.985352	4.251465	-19.250000	229.809998	-148.539993	53.00	0.24	-0.02	12.00	12.75	10.25	12.25	8.25	8.75	2.00	5.00	0.75	1.25	1.00	1.00	3.00	2.00	0.25	0.50	-0.099121	0.070801	0.992188	-3.500000	1.540000	-0.000000	875.00	-0.19	-0.09
3.44	0.00	0.00	0.00	0.00	0.00	0.00	0.00	0.00	0.75	1.00	1.00	0.50	0.25	0.50	0.00	0.00	1.207520	1.148438	3.668945	-68.739998	10.990000	-81.760002	42.00	0.00	0.00	11.50	12.50	10.00	12.00	8.50	8.50	2.00	5.25	1.00	1.25	1.25	1.25	3.50	2.00	0.25	0.25	-0.104980	0.061035	0.990723	-4.620000	2.310000	-1.120000	877.00	-0.18	-0.09
3.45	0.00	0.00	0.00	0.00	0.00	0.00	0.00	0.00	0.50	0.75	0.75	0.50	0.00	0.50	0.00	0.00	0.781250	1.076660	2.334961	-84.419998	-136.009995	-21.070000	32.00	0.00	0.00	11.00	11.75	10.00	11.75	8.50	8.75	2.25	5.75	1.00	1.50	1.25	1.50	3.75	2.50	0.25	0.25	-0.104004	0.052246	1.003418	-4.270000	3.430000	-1.470000	888.00	-0.17	-0.09
3.46	0.00	0.00	0.00	0.00	0.00	0.00	0.00	0.00	0.50	0.75	0.50	0.25	0.00	0.50	0.00	0.00	0.659180	0.779785	1.127930	-66.709999	-196.630005	14.630000	26.00	0.00	0.00	10.00	11.00	9.50	11.50	8.50	8.75	2.25	5.75	1.25	1.75	1.25	1.25	3.75	2.50	0.25	0.50	-0.099121	0.063965	1.013672	-3.360000	5.600000	-1.400000	867.00	-0.16	-0.10
3.47	0.00	0.00	0.00	0.00	0.00	0.00	0.00	0.00	0.75	0.75	0.50	0.00	0.25	0.25	0.00	0.00	0.530762	0.629883	0.539062	-33.529999	-203.770004	25.549999	27.00	0.00	0.00	9.00	10.00	9.50	11.00	8.50	8.50	2.50	6.00	1.50	1.50	1.50	1.25	4.00	2.50	0.25	0.50	-0.095703	0.057129	1.012695	-2.940000	8.890000	-1.260000	852.00	-0.15	-0.10
3.48	0.00	0.00	0.00	0.00	0.00	0.00	0.00	0.00	0.50	0.25	0.25	0.25	0.00	0.00	0.00	0.00	0.433594	0.480957	0.377441	-0.700000	-193.899994	24.570000	14.00	0.00	0.00	8.25	9.25	9.00	10.50	8.25	8.25	2.50	6.00	1.75	1.50	1.75	1.50	4.00	2.50	0.25	0.50	-0.096191	0.055664	1.007324	-2.030000	12.180000	-1.050000	830.00	-0.14	-0.10
3.49	0.00	0.00	0.00	0.00	0.00	0.25	0.00	0.00	0.00	0.25	0.50	0.25	0.00	0.25	0.00	0.00	0.409180	0.384277	0.446777	23.240000	-189.910004	22.540001	15.00	0.00	0.00	7.50	8.25	8.50	10.00	8.00	8.00	2.50	6.00	1.75	1.75	2.00	1.50	4.25	2.75	0.25	0.50	-0.104004	0.065430	0.989746	-1.260000	14.490000	-0.910000	806.00	-0.13	-0.10
3.50	0.00	0.00	0.00	0.00	0.00	0.00	0.00	0.00	0.25	0.25	0.25	0.25	0.00	0.25	0.00	0.00	0.358398	0.292480	0.572754	33.950001	-196.139999	23.450001	13.00	0.00	0.00	6.25	7.25	8.25	9.25	7.50	8.25	2.50	6.00	1.75	1.75	2.00	1.75	4.75	3.25	0.25	0.75	-0.105469	0.068359	0.990723	-1.540000	16.030001	-1.120000	782.00	-0.11	-0.10
3.51	0.00	0.00	0.00	0.00	0.00	0.00	0.00	0.00	0.00	0.00	0.00	0.25	0.25	0.00	0.00	0.00	0.278809	0.223633	0.723145	28.210001	-209.509995	27.440001	5.00	0.00	0.00	5.75	6.50	7.50	8.75	7.50	7.50	2.50	6.00	2.25	2.25	2.25	2.00	4.75	3.00	0.00	0.75	-0.120117	0.069336	0.989746	-2.660000	16.379999	-1.750000	760.00	-0.10	-0.10
3.52	0.00	0.00	0.00	0.00	0.00	0.25	0.00	0.00	0.25	0.00	0.00	0.00	0.00	0.25	0.00	0.00	0.223633	0.202637	0.852051	9.800000	-227.639999	33.599998	8.00	0.00	0.00	4.50	5.75	7.25	8.25	7.25	7.25	2.50	6.00	2.50	2.25	2.25	2.00	5.00	3.25	0.25	0.75	-0.127441	0.064453	0.982422	-4.200000	13.860000	-3.360000	737.00	-0.09	-0.10
3.53	0.00	0.00	0.00	0.00	0.00	0.00	0.00	0.00	0.25	0.00	0.00	0.00	0.00	0.00	0.00	0.00	0.184570	0.256836	0.974609	-12.390000	-248.149994	41.720001	3.00	0.00	0.00	4.00	5.25	6.75	8.00	7.00	7.00	2.50	6.00	2.75	2.50	2.50	2.25	5.00	3.75	0.50	0.75	-0.129883	0.067871	0.984375	-4.550000	12.670000	-4.060000	732.00	-0.07	-0.10
3.54	0.00	0.00	0.00	0.00	0.00	0.00	0.00	0.00	0.00	0.00	0.00	0.00	0.00	0.00	0.00	0.00	0.144531	0.323242	1.066895	-25.200001	-269.220001	50.259998	0.00	0.00	0.00	3.50	5.00	6.50	7.50	6.75	6.50	2.75	5.75	3.00	2.75	2.75	2.00	5.00	4.00	0.25	1.00	-0.132812	0.060059	0.986816	-4.900000	11.900000	-5.110000	714.00	-0.06	-0.09
3.55	0.00	0.00	0.00	0.25	0.00	0.00	0.00	0.00	0.00	0.00	0.00	0.00	0.00	0.00	0.00	0.00	0.093262	0.387695	1.179199	-21.770000	-292.880005	57.889999	3.00	0.00	0.00	3.25	3.75	6.00	7.00	6.75	6.50	2.75	6.00	3.25	3.00	2.75	2.50	5.25	4.25	0.75	0.75	-0.115234	0.051270	0.997559	-4.760000	11.620000	-5.810000	712.00	-0.04	-0.10
3.56	0.00	0.00	0.00	0.00	0.00	0.00	0.00	0.00	0.00	0.00	0.00	0.00	0.25	0.00	0.00	0.00	-0.131836	0.354004	1.177734	16.660000	-337.610016	66.430000	2.00	0.00	0.00	2.75	3.75	5.75	6.50	6.50	6.00	2.75	6.00	3.50	3.25	3.00	2.50	5.50	4.75	0.50	0.75	-0.133789	0.057617	0.985840	-4.410000	11.410000	-6.020000	703.00	-0.03	-0.09
3.57	0.00	0.00	0.00	0.00	0.00	0.00	0.00	0.00	0.00	0.00	0.00	0.00	0.00	0.00	0.00	0.00	-0.131836	0.354004	1.177734	16.660000	-337.610016	66.430000	0.00	0.00	0.00	2.50	3.00	5.25	6.00	6.50	6.00	2.75	5.75	3.75	3.50	3.00	3.00	5.50	5.00	0.50	0.75	-0.129395	0.061523	0.993164	-3.920000	11.550000	-5.880000	692.00	-0.01	-0.09
3.58	0.00	0.00	0.00	0.00	0.00	0.00	0.00	0.00	0.00	0.00	0.00	0.00	0.00	0.00	0.00	0.00	-0.258789	0.276855	1.176270	32.900002	-350.700012	69.090004	0.00	0.00	0.00	2.50	2.75	5.00	5.50	6.25	5.50	2.75	5.75	4.25	3.50	3.25	3.00	5.75	5.25	0.75	1.00	-0.123535	0.052734	1.001465	-3.570000	12.320000	-5.950000	691.00	0.00	-0.09
3.59	0.00	0.00	0.00	0.00	0.00	0.00	0.00	0.00	0.00	0.00	0.00	0.00	0.00	0.00	0.00	0.00	-0.490234	0.217773	1.278809	33.950001	-359.450012	78.750000	0.00	0.00	0.00	1.50	2.75	4.00	5.50	6.00	5.25	2.75	5.75	5.00	3.75	4.00	3.00	6.00	5.75	0.50	1.00	-0.134766	0.057617	0.995605	-3.220000	13.510000	-6.370000	688.00	0.02	-0.09
3.60	0.00	0.00	0.00	0.00	0.00	0.25	0.00	0.00	0.00	0.00	0.00	0.00	0.00	0.00	0.00	0.00	-0.638672	0.145508	1.365723	25.830000	-360.989990	87.220001	3.00	0.00	0.00	1.75	2.25	4.00	4.75	5.75	5.25	3.00	5.75	5.25	4.00	4.00	3.25	6.50	6.50	0.75	1.00	-0.137695	0.060059	0.991699	-2.660000	14.770000	-7.070000	700.00	0.04	-0.08
3.61	0.00	0.00	0.00	0.00	0.00	0.00	0.00	0.00	0.00	0.00	0.00	0.00	0.00	0.25	0.00	0.00	-0.763672	0.185547	1.434082	24.570000	-363.369995	93.660004	2.00	0.00	0.00	1.50	1.75	3.75	4.75	5.50	4.75	3.00	6.00	6.00	4.75	4.50	3.75	7.00	6.75	0.75	1.25	-0.139648	0.062500	0.993164	-3.080000	16.660000	-7.210000	722.00	0.05	-0.08
3.62	0.00	0.00	0.00	0.00	0.00	0.00	0.00	0.00	0.00	0.00	0.00	0.00	0.00	0.00	0.00	0.00	-0.831543	0.147949	1.504883	25.760000	-364.000000	95.970001	0.00	0.00	0.00	1.25	1.75	3.00	4.25	5.00	5.00	3.00	6.00	6.50	5.75	5.00	4.25	7.00	7.50	0.75	1.25	-0.135254	0.063477	0.990723	-3.570000	18.480000	-7.700000	736.00	0.07	-0.08
3.63	0.00	0.00	0.00	0.00	0.00	0.00	0.00	0.00	0.00	0.00	0.00	0.00	0.00	0.00	0.00	0.00	-0.875977	0.152832	1.620117	20.160000	-362.179993	97.370003	0.00	0.00	0.00	1.00	1.50	2.50	3.75	5.00	4.00	3.25	6.00	7.25	5.75	6.00	4.75	7.25	8.00	0.75	1.75	-0.139160	0.058105	0.993164	-3.920000	20.299999	-8.540000	748.00	0.09	-0.07
3.64	0.00	0.00	0.00	0.00	0.00	0.25	0.00	0.00	0.00	0.00	0.00	0.00	0.00	0.00	0.00	0.00	-0.938965	0.180664	1.771973	7.280000	-359.869995	101.220001	3.00	0.00	0.00	1.00	1.00	2.50	3.75	4.50	3.75	3.25	5.75	7.75	7.25	6.50	5.00	7.75	8.50	1.00	2.00	-0.155762	0.049316	1.000000	-3.920000	22.190001	-9.310000	774.00	0.11	-0.07
3.65	0.00	0.00	0.00	0.00	0.00	0.00	0.00	0.00	0.00	0.00	0.00	0.00	0.00	0.00	0.00	0.00	-1.033691	0.218750	1.902832	-6.650000	-357.839996	106.889999	0.00	0.00	0.00	1.00	1.25	2.00	3.25	4.00	3.00	3.25	5.50	8.00	7.75	7.25	5.50	8.00	9.25	1.00	2.00	-0.162109	0.049805	0.990234	-3.570000	24.290001	-9.730000	778.00	0.12	-0.06
3.66	0.00	0.00	0.00	0.00	0.00	0.00	0.00	0.00	0.00	0.00	0.00	0.00	0.00	0.00	0.00	0.00	-1.208496	0.267578	2.033203	-12.670000	-356.369995	112.349998	0.00	0.00	0.00	0.75	1.25	1.75	2.50	3.50	2.25	3.25	5.50	8.50	8.00	8.00	6.00	8.00	9.75	1.00	2.25	-0.170898	0.044434	1.001465	-2.380000	26.180000	-10.080000	779.00	0.14	-0.06
3.67	0.00	0.00	0.00	0.00	0.00	0.00	0.00	0.00	0.00	0.00	0.00	0.00	0.00	0.00	0.00	0.00	-1.429688	0.277832	2.220703	-8.050000	-355.320007	116.830002	0.00	0.00	0.00	0.50	1.25	1.50	2.50	3.00	2.25	3.25	5.50	9.00	8.75	8.25	6.50	8.25	10.50	1.25	2.50	-0.185059	0.057617	1.012695	-0.420000	28.980000	-10.080000	803.00	0.15	-0.06
3.68	0.00	0.00	0.00	0.25	0.00	0.00	0.00	0.00	0.00	0.00	0.00	0.00	0.00	0.00	0.00	0.00	-1.743164	0.205078	2.395020	0.420000	-356.089996	119.349998	3.00	0.00	0.00	0.50	0.50	1.25	2.25	2.75	1.75	3.25	5.50	9.50	9.00	8.75	7.25	8.25	11.25	1.25	2.75	-0.176758	0.051270	1.002441	0.910000	31.990000	-10.010000	812.00	0.17	-0.05
3.69	0.00	0.00	0.00	0.00	0.00	0.00	0.00	0.00	0.00	0.00	0.00	0.00	0.00	0.00	0.00	0.00	-2.105469	0.066406	2.549805	7.420000	-358.540009	118.510002	0.00	0.00	0.00	0.50	0.75	1.25	1.75	2.25	1.25	3.25	5.50	9.75	9.50	9.25	7.75	8.50	12.25	1.50	3.00	-0.166992	0.052734	0.964355	4.060000	35.279999	-10.360000	832.00	0.18	-0.05
3.70	0.00	0.00	0.00	0.00	0.00	0.00	0.00	0.00	0.00	0.00	0.00	0.00	0.00	0.00	0.00	0.00	-2.511230	-0.080566	2.492188	11.550000	-360.290009	113.959999	0.00	0.00	0.00	0.25	0.50	0.50	1.50	1.75	1.00	3.00	5.25	10.50	9.75	10.00	8.25	8.75	13.00	1.50	3.25	-0.189941	0.060059	0.987793	4.900000	39.689999	-9.870000	835.00	0.19	-0.05
3.71	0.00	0.00	0.00	0.00	0.00	0.00	0.00	0.00	0.00	0.00	0.00	0.00	0.00	0.00	0.00	0.00	-2.895020	-0.203125	2.145996	8.610000	-354.619995	105.559998	0.00	0.00	0.00	0.25	0.75	0.50	1.50	1.50	1.00	3.00	5.00	10.75	10.25	10.25	8.50	8.75	13.75	2.00	4.25	-0.204590	0.056152	1.002930	6.230000	45.220001	-9.170000	862.00	0.20	-0.05
