# time	left pressure 1[N/cm²]	left pressure 2[N/cm²]	left pressure 3[N/cm²]	left pressure 4[N/cm²]	left pressure 5[N/cm²]	left pressure 6[N/cm²]	left pressure 7[N/cm²]	left pressure 8[N/cm²]	left pressure 9[N/cm²]	left pressure 10[N/cm²]	left pressure 11[N/cm²]	left pressure 12[N/cm²]	left pressure 13[N/cm²]	left pressure 14[N/cm²]	left pressure 15[N/cm²]	left pressure 16[N/cm²]	left acceleration X[g]	left acceleration Y[g]	left acceleration Z[g]	left angular X[dps]	left angular Y[dps]	left angular Z[dps]	left total force[N]	left center of pressure X[%]	left center of pressure Y[%]	right pressure 1[N/cm²]	right pressure 2[N/cm²]	right pressure 3[N/cm²]	right pressure 4[N/cm²]	right pressure 5[N/cm²]	right pressure 6[N/cm²]	right pressure 7[N/cm²]	right pressure 8[N/cm²]	right pressure 9[N/cm²]	right pressure 10[N/cm²]	right pressure 11[N/cm²]	right pressure 12[N/cm²]	right pressure 13[N/cm²]	right pressure 14[N/cm²]	right pressure 15[N/cm²]	right pressure 16[N/cm²]	right acceleration X[g]	right acceleration Y[g]	right acceleration Z[g]	right angular X[dps]	right angular Y[dps]	right angular Z[dps]	right total force[N]	right center of pressure X[%]	right center of pressure Y[%]
0.00																										4.75	4.25	3.25	4.25	1.00	0.00	0.00	0.00	0.00	0.00	0.00	0.00	0.00	0.50	0.00	0.00	-0.192871	0.060547	0.968262	-1.750000	-5.950000	2.030000	186.00	-0.32	-0.04
0.01																										4.50	4.50	3.25	4.00	0.75	0.00	0.00	0.00	0.00	0.00	0.00	0.00	0.00	0.75	0.00	0.00	-0.188965	0.062500	0.966309	-1.680000	-5.950000	1.960000	183.00	-0.31	-0.04
0.02																										4.50	4.50	3.25	4.25	0.75	0.00	0.00	0.00	0.00	0.00	0.00	0.00	0.00	0.75	0.00	0.00	-0.188477	0.066406	0.972656	-1.680000	-5.950000	2.100000	186.00	-0.31	-0.04
0.03																										4.25	3.75	3.25	3.75	0.75	0.00	0.00	0.00	0.00	0.00	0.00	0.00	0.00	1.00	0.25	0.00	-0.197266	0.069824	0.970215	-1.680000	-5.810000	1.960000	175.00	-0.29	-0.03
0.04																										4.25	4.00	3.00	3.75	1.00	0.00	0.00	0.00	0.00	0.00	0.00	0.00	0.00	1.25	0.25	0.00	-0.189941	0.062012	0.976074	-1.610000	-5.460000	1.960000	180.00	-0.28	-0.03
0.05																										4.00	4.00	3.00	3.75	1.00	0.00	0.00	0.00	0.25	0.00	0.00	0.00	0.00	1.25	0.25	0.00	-0.193359	0.067871	0.973633	-1.610000	-5.250000	1.750000	180.00	-0.27	-0.03
0.06	5.75	8.25	6.00	9.25	2.25	2.75	0.50	0.25	1.25	0.25	0.25	0.75	2.00	5.50	0.50	1.75	-0.213379	0.064453	0.954102	-1.890000	5.740000	-1.680000	478.00	-0.16	-0.06	3.75	4.00	2.75	4.00	1.00	0.00	0.00	0.00	0.25	0.00	0.00	0.00	0.00	1.50	0.00	0.00	-0.195312	0.058105	0.971680	-1.820000	-5.040000	1.890000	177.00	-0.27	-0.03
0.07	5.50	8.25	6.00	9.25	2.25	3.25	0.50	0.25	1.00	0.50	0.25	0.75	1.50	5.25	0.75	1.75	-0.209473	0.061523	0.949219	-1.960000	5.880000	-1.820000	477.00	-0.16	-0.07	3.75	3.75	2.75	3.75	1.00	0.00	0.00	0.00	0.25	0.00	0.00	0.00	0.00	1.50	0.50	0.00	-0.192383	0.065430	0.968750	-1.820000	-4.690000	1.750000	177.00	-0.24	-0.03
0.08	5.50	8.00	6.00	9.25	2.25	3.25	0.50	0.25	1.25	0.25	0.50	1.00	1.75	5.50	0.75	1.75	-0.207520	0.066895	0.954102	-2.170000	6.020000	-2.030000	485.00	-0.15	-0.07	3.75	3.75	2.75	3.75	0.75	0.00	0.00	0.00	0.00	0.00	0.00	0.00	0.00	1.50	0.25	0.00	-0.198730	0.067871	0.970215	-1.960000	-4.620000	1.820000	169.00	-0.26	-0.03
0.09	5.25	7.75	6.00	9.00	2.00	3.25	0.50	0.25	1.25	0.25	0.25	0.75	1.75	5.75	0.50	1.75	-0.207520	0.066895	0.954102	-2.170000	6.020000	-2.030000	468.00	-0.15	-0.06	3.50	3.75	2.50	3.50	0.75	0.00	0.00	0.00	0.00	0.00	0.00	0.00	0.00	1.50	0.25	0.00	-0.188477	0.067871	0.972168	-1.960000	-4.410000	1.820000	161.00	-0.26	-0.03
0.10	5.50	8.00	6.25	9.00	2.00	3.25	0.50	0.50	1.25	0.50	0.50	1.00	1.50	5.75	0.75	1.75	-0.206543	0.065430	0.951660	-2.030000	5.740000	-1.750000	488.00	-0.14	-0.06	3.50	3.25	2.75	3.75	1.00	0.00	0.00	0.00	0.25	0.00	0.00	0.00	0.00	1.75	0.00	0.00	-0.190918	0.066895	0.966309	-1.890000	-4.480000	1.820000	167.00	-0.25	-0.02
0.11	5.50	7.50	6.00	8.75	2.25	3.00	0.50	0.25	1.25	0.50	0.50	0.50	1.75	6.00	0.75	1.75	-0.208496	0.066406	0.955078	-2.030000	5.880000	-1.890000	473.00	-0.14	-0.06	3.25	3.50	2.50	3.50	0.75	0.00	0.00	0.00	0.25	0.00	0.00	0.00	0.00	1.75	0.25	0.00	-0.187988	0.065918	0.970215	-1.960000	-4.410000	1.890000	161.00	-0.24	-0.02
0.12	5.50	7.50	6.00	8.75	2.25	3.25	0.50	0.50	1.00	0.75	0.50	0.75	1.75	6.25	1.00	2.00	-0.209961	0.067383	0.952637	-2.030000	6.020000	-1.890000	488.00	-0.13	-0.06	3.25	3.25	2.75	3.25	0.75	0.00	0.00	0.00	0.25	0.00	0.00	0.00	0.00	1.75	0.25	0.00	-0.190430	0.069824	0.965332	-1.960000	-4.410000	1.750000	159.00	-0.24	-0.02
0.13	5.25	7.25	5.75	9.00	2.00	3.00	0.50	0.25	1.50	0.50	0.75	1.00	1.75	6.00	1.00	1.75	-0.211426	0.069336	0.945312	-2.100000	6.020000	-1.890000	479.00	-0.13	-0.06	3.25	3.00	2.50	3.25	1.00	0.00	0.00	0.00	0.00	0.00	0.00	0.00	0.00	1.75	0.25	0.00	-0.193848	0.065430	0.973145	-2.030000	-4.340000	1.750000	153.00	-0.24	-0.02
0.14	5.25	7.25	5.75	8.75	2.25	3.25	0.50	0.25	1.50	0.75	0.50	1.00	1.75	6.50	0.75	1.75	-0.212891	0.065430	0.951172	-2.100000	5.950000	-1.820000	484.00	-0.12	-0.06	3.25	3.00	2.50	3.25	0.75	0.00	0.00	0.00	0.25	0.00	0.00	0.00	0.00	2.25	0.25	0.00	-0.184082	0.065430	0.963867	-1.960000	-4.200000	1.750000	158.00	-0.21	-0.01
0.15	5.50	7.50	5.75	8.75	2.25	3.25	0.50	0.25	1.50	0.50	0.50	0.75	1.75	6.25	0.50	1.75	-0.217285	0.065918	0.957520	-2.170000	6.160000	-1.890000	479.00	-0.14	-0.06	3.25	3.00	2.25	3.00	0.75	0.00	0.00	0.00	0.25	0.00	0.00	0.00	0.00	2.25	0.50	0.00	-0.187988	0.066895	0.974609	-2.030000	-4.550000	1.890000	155.00	-0.20	-0.01
0.16	5.25	7.50	5.75	8.75	2.25	3.00	0.50	0.25	1.50	0.75	0.75	1.25	2.00	6.25	1.00	2.00	-0.216309	0.068848	0.950684	-2.170000	6.090000	-1.890000	493.00	-0.12	-0.06	3.00	3.25	2.50	3.25	0.75	0.00	0.00	0.00	0.25	0.00	0.00	0.00	0.00	2.25	0.50	0.00	-0.189941	0.068359	0.968262	-1.820000	-4.830000	1.890000	160.00	-0.20	-0.02
0.17	5.25	7.25	5.75	8.50	2.00	3.00	0.50	0.50	1.75	0.75	0.75	1.00	1.75	6.50	0.75	2.00	-0.215820	0.065918	0.951660	-2.450000	6.160000	-1.820000	487.00	-0.12	-0.06	3.00	3.00	2.50	3.00	0.75	0.00	0.00	0.00	0.25	0.00	0.00	0.00	0.00	2.00	0.50	0.00	-0.185547	0.061035	0.969238	-1.750000	-4.900000	1.820000	153.00	-0.21	-0.01
0.18	5.00	7.00	5.50	8.50	2.25	3.25	0.50	0.25	1.50	0.50	1.00	1.00	1.75	6.75	1.00	2.00	-0.208984	0.063477	0.953125	-2.310000	6.230000	-1.820000	482.00	-0.11	-0.06	3.25	3.25	2.50	2.75	1.00	0.00	0.00	0.00	0.25	0.00	0.00	0.00	0.00	2.25	0.50	0.00	-0.188965	0.062500	0.974121	-1.960000	-5.460000	1.890000	160.00	-0.20	-0.01
0.19	5.00	7.25	5.75	8.50	2.25	2.75	0.50	0.25	1.75	0.75	0.50	1.25	2.00	6.50	0.75	2.00	-0.217285	0.070801	0.955078	-2.310000	6.370000	-1.820000	482.00	-0.11	-0.06	3.25	3.00	2.50	3.00	0.75	0.00	0.00	0.00	0.50	0.00	0.00	0.00	0.00	2.25	0.50	0.25	-0.188965	0.062500	0.974121	-1.960000	-5.460000	1.890000	163.00	-0.19	-0.01
0.20	5.00	6.75	5.75	8.25	2.00	2.75	0.50	0.25	1.50	0.75	0.75	1.00	1.75	6.75	0.75	2.00	-0.209961	0.064941	0.947266	-2.310000	6.440000	-1.820000	469.00	-0.11	-0.05	3.00	3.00	2.50	3.25	0.75	0.00	0.00	0.00	0.25	0.00	0.00	0.00	0.00	2.50	1.00	0.25	-0.180176	0.060059	0.974609	-1.890000	-5.390000	1.960000	167.00	-0.17	-0.02
0.21	5.00	6.75	5.75	8.25	2.00	2.25	0.50	0.25	1.50	0.50	1.00	1.25	1.75	6.75	1.00	2.00	-0.210938	0.064453	0.949707	-2.170000	6.650000	-1.890000	469.00	-0.11	-0.05	3.00	3.00	2.50	3.25	0.75	0.00	0.00	0.00	0.25	0.00	0.00	0.00	0.00	2.50	0.75	0.25	-0.183105	0.070312	0.969727	-2.100000	-5.390000	2.030000	164.00	-0.18	-0.02
0.22	5.00	6.75	5.50	8.00	2.00	2.75	0.50	0.25	1.75	0.75	0.75	1.00	2.00	6.75	0.75	2.00	-0.215332	0.067383	0.958008	-2.100000	6.720000	-1.890000	469.00	-0.11	-0.05	3.00	3.00	2.75	3.25	1.00	0.00	0.00	0.00	0.25	0.00	0.00	0.00	0.00	2.50	0.75	0.25	-0.189453	0.063477	0.981445	-2.100000	-5.390000	2.100000	170.00	-0.18	-0.01
0.23	4.75	6.75	5.50	8.00	2.25	2.75	0.50	0.50	1.50	0.75	0.75	1.25	1.75	7.00	1.00	2.00	-0.215332	0.065430	0.945801	-2.170000	6.790000	-1.820000	475.00	-0.10	-0.06	3.00	3.00	2.50	3.25	1.00	0.00	0.00	0.00	0.50	0.00	0.00	0.00	0.25	2.75	1.00	0.25	-0.185547	0.069824	0.969727	-1.890000	-5.250000	2.030000	177.00	-0.15	-0.01
0.24	4.25	6.75	5.50	8.00	2.00	2.75	0.50	0.50	1.50	0.75	0.75	1.25	2.00	7.00	0.75	2.00	-0.208008	0.067383	0.951172	-2.170000	7.140000	-1.820000	467.00	-0.10	-0.06	3.25	3.00	2.75	3.25	1.00	0.00	0.00	0.00	0.00	0.00	0.00	0.00	0.00	2.75	1.00	0.75	-0.189453	0.065918	0.971191	-2.030000	-5.320000	1.820000	177.00	-0.17	-0.02
0.25	4.50	6.25	5.50	8.00	2.25	2.25	0.50	0.25	2.00	0.50	1.25	1.00	1.75	7.00	1.00	2.00	-0.209473	0.068359	0.953125	-2.100000	7.350000	-1.820000	465.00	-0.09	-0.05	3.25	3.00	2.50	3.00	1.00	0.00	0.00	0.00	0.25	0.00	0.00	0.00	0.00	2.50	1.00	0.75	-0.183594	0.067383	0.971191	-2.170000	-5.460000	1.960000	172.00	-0.16	-0.02
0.26	4.25	6.25	5.25	8.00	2.00	2.50	0.50	0.25	1.75	1.00	1.00	1.25	1.75	7.00	1.00	2.00	-0.207520	0.063477	0.950684	-2.030000	7.210000	-1.680000	462.00	-0.09	-0.05	3.25	2.75	2.75	3.00	1.00	0.00	0.00	0.00	0.25	0.00	0.00	0.00	0.00	2.50	1.00	1.00	-0.184082	0.070312	0.974121	-2.100000	-5.250000	1.890000	174.00	-0.16	-0.01
0.27	4.50	6.25	5.25	7.75	2.25	2.25	0.50	0.25	1.75	1.00	0.75	1.25	1.75	6.75	0.75	2.00	-0.213379	0.062500	0.949707	-1.960000	7.210000	-1.750000	454.00	-0.09	-0.05	3.25	3.00	2.75	3.25	1.00	0.00	0.00	0.00	0.25	0.00	0.00	0.00	0.00	2.50	1.25	1.25	-0.189941	0.062500	0.974121	-2.030000	-5.180000	1.890000	183.00	-0.15	-0.02
0.28	4.25	6.00	5.00	7.50	2.00	2.25	0.50	0.25	2.00	1.00	1.00	1.25	1.75	7.25	0.75	2.00	-0.208496	0.059570	0.950684	-1.960000	7.420000	-1.890000	451.00	-0.08	-0.04	3.25	3.25	2.75	3.00	1.00	0.00	0.00	0.00	0.50	0.00	0.00	0.00	0.00	2.75	1.25	1.50	-0.183594	0.069824	0.973633	-2.030000	-4.970000	1.890000	189.00	-0.13	-0.02
0.29	4.25	6.00	5.00	7.50	2.00	2.00	0.50	0.25	2.00	1.25	1.00	1.50	2.00	7.00	1.00	2.00	-0.215332	0.062500	0.957031	-1.750000	7.350000	-1.820000	456.00	-0.07	-0.05	3.00	3.00	2.75	3.50	1.00	0.00	0.00	0.00	0.25	0.00	0.00	0.00	0.00	2.50	1.25	1.50	-0.186523	0.066895	0.965332	-2.100000	-4.830000	1.890000	185.00	-0.14	-0.03
0.30	4.00	5.75	5.00	7.50	1.75	2.00	0.50	0.25	2.00	1.00	1.25	1.25	1.75	7.50	0.75	2.25	-0.212402	0.058105	0.951660	-1.610000	7.210000	-1.680000	447.00	-0.07	-0.04	2.75	3.00	2.75	3.25	1.00	0.00	0.00	0.00	0.00	0.00	0.00	0.00	0.00	2.75	1.50	1.75	-0.182129	0.064453	0.970703	-1.960000	-4.690000	1.750000	182.00	-0.13	-0.03
0.31	4.00	5.75	5.00	7.50	2.00	2.00	0.50	0.25	2.00	1.25	1.25	1.25	1.75	7.50	1.00	2.25	-0.211426	0.065430	0.954590	-1.540000	7.210000	-1.680000	455.00	-0.07	-0.04	3.00	3.00	2.75	3.25	1.00	0.00	0.00	0.00	0.00	0.00	0.00	0.00	0.25	2.50	1.75	2.00	-0.181641	0.063477	0.977051	-1.890000	-4.620000	1.820000	189.00	-0.12	-0.04
0.32	3.75	5.75	4.75	7.00	2.00	2.25	0.50	0.00	1.75	1.00	1.25	1.25	1.75	7.50	1.00	2.00	-0.207520	0.068359	0.951660	-1.680000	7.350000	-1.750000	436.00	-0.07	-0.04	3.00	3.25	3.00	3.25	1.00	0.00	0.00	0.00	0.25	0.00	0.00	0.00	0.00	2.75	1.75	2.00	-0.185059	0.066895	0.980957	-1.960000	-4.690000	1.820000	197.00	-0.12	-0.03
0.33	3.75	5.50	4.75	7.00	1.75	2.00	0.50	0.25	1.75	1.00	1.25	1.00	1.75	7.75	1.00	2.25	-0.210938	0.065430	0.950195	-1.680000	7.350000	-1.610000	432.00	-0.06	-0.04	3.25	2.75	2.75	3.25	1.00	0.00	0.00	0.00	0.25	0.25	0.00	0.00	0.25	2.75	1.75	2.25	-0.184570	0.062500	0.970215	-1.960000	-4.690000	1.960000	198.00	-0.10	-0.03
0.34	4.00	5.25	4.75	6.75	1.75	1.75	0.50	0.25	2.00	0.75	1.25	1.25	2.00	7.50	1.25	2.25	-0.215332	0.065430	0.947266	-1.750000	7.210000	-1.610000	433.00	-0.05	-0.04	3.00	3.00	2.75	3.25	1.00	0.00	0.00	0.00	0.25	0.00	0.00	0.00	0.25	2.50	1.75	2.25	-0.185059	0.065918	0.977051	-1.890000	-4.830000	1.960000	193.00	-0.11	-0.04
0.35	3.25	5.25	4.75	6.75	2.00	2.00	0.50	0.25	2.00	1.00	1.25	1.25	2.00	7.50	1.00	2.00	-0.215332	0.067383	0.944336	-1.750000	7.280000	-1.680000	430.00	-0.05	-0.04	3.00	3.00	2.50	3.25	1.00	0.00	0.00	0.00	0.50	0.00	0.00	0.00	0.00	2.50	1.75	2.25	-0.187988	0.063477	0.975586	-1.960000	-4.760000	2.030000	192.00	-0.11	-0.03
0.36	3.50	5.25	4.50	6.75	2.00	2.00	0.50	0.00	2.25	1.25	1.50	1.50	2.00	7.50	0.75	2.25	-0.214844	0.063965	0.951172	-1.750000	7.140000	-1.610000	435.00	-0.05	-0.04	3.00	2.75	2.50	3.25	1.00	0.00	0.00	0.00	0.50	0.00	0.00	0.00	0.00	2.50	2.00	2.25	-0.183105	0.062500	0.969727	-1.960000	-4.970000	1.960000	192.00	-0.10	-0.03
0.37	3.50	5.25	4.75	6.50	1.75	1.75	0.50	0.25	2.50	1.00	1.50	1.25	1.75	7.50	1.00	2.25	-0.212891	0.063477	0.950684	-1.750000	6.930000	-1.610000	432.00	-0.04	-0.04	2.75	2.50	2.50	3.00	1.25	0.00	0.00	0.00	0.25	0.00	0.00	0.00	0.25	2.75	1.75	2.50	-0.183105	0.062500	0.969727	-1.960000	-4.970000	1.960000	187.00	-0.09	-0.03
0.38	3.50	5.00	4.25	6.50	2.00	1.75	0.50	0.00	2.00	1.50	1.25	1.25	1.75	7.75	1.00	2.00	-0.213379	0.060547	0.954102	-1.750000	7.140000	-1.540000	420.00	-0.04	-0.03	2.75	2.75	2.75	3.00	1.00	0.00	0.00	0.00	0.25	0.00	0.00	0.00	0.25	2.50	1.75	2.50	-0.181152	0.068359	0.974121	-2.030000	-4.900000	1.890000	187.00	-0.10	-0.04
0.39	3.25	5.00	4.50	6.25	2.00	1.75	0.50	0.25	2.50	1.25	1.25	1.50	1.75	7.75	1.00	2.00	-0.213379	0.060547	0.954102	-1.750000	7.140000	-1.540000	428.00	-0.04	-0.03	3.00	2.50	2.75	3.75	1.25	0.00	0.00	0.00	0.00	0.00	0.00	0.00	0.25	2.50	1.75	2.50	-0.180664	0.064453	0.976074	-1.960000	-5.320000	1.960000	195.00	-0.11	-0.05
0.40	3.25	5.00	4.25	6.25	1.75	1.75	0.50	0.25	2.25	1.00	1.50	1.50	1.75	7.50	1.00	2.00	-0.213379	0.061523	0.949707	-1.890000	6.650000	-1.470000	417.00	-0.04	-0.04	2.75	2.50	2.75	3.25	1.00	0.00	0.00	0.00	0.50	0.00	0.00	0.00	0.00	2.50	2.00	2.50	-0.178223	0.064941	0.972168	-2.030000	-5.460000	1.960000	191.00	-0.09	-0.03
0.41	3.25	5.00	4.00	6.50	1.75	1.75	0.50	0.25	2.25	1.25	1.50	1.75	2.00	7.75	1.00	2.25	-0.210449	0.063965	0.954590	-1.820000	6.440000	-1.470000	428.00	-0.03	-0.04	2.75	2.75	2.75	3.00	1.25	0.00	0.00	0.00	0.50	0.00	0.00	0.00	0.50	2.75	2.00	2.50	-0.180664	0.062500	0.974121	-2.240000	-5.740000	2.030000	200.00	-0.08	-0.03
0.42	3.25	4.75	3.75	6.50	2.00	1.25	0.50	0.25	2.25	1.25	1.25	1.50	2.00	7.50	1.00	2.25	-0.214355	0.065430	0.956543	-1.820000	6.300000	-1.470000	413.00	-0.03	-0.04	2.75	2.75	2.50	3.25	1.25	0.00	0.00	0.00	0.00	0.00	0.00	0.00	0.25	2.50	2.00	2.50	-0.186035	0.063477	0.975586	-2.240000	-5.810000	1.960000	189.00	-0.10	-0.05
0.43	3.25	5.00	4.00	6.25	1.75	1.75	0.50	0.25	2.00	1.25	1.50	1.50	1.75	7.75	1.00	2.25	-0.215332	0.067871	0.953125	-1.820000	6.370000	-1.610000	417.00	-0.03	-0.04	2.75	2.50	2.50	3.25	1.00	0.00	0.00	0.00	0.50	0.00	0.00	0.00	0.25	2.50	1.75	2.50	-0.174805	0.070312	0.972656	-2.310000	-5.740000	1.750000	188.00	-0.09	-0.04
0.44	3.25	5.00	3.75	6.25	1.75	1.50	0.50	0.00	2.25	1.25	1.50	1.50	1.75	7.75	1.25	2.00	-0.211914	0.058105	0.949707	-1.890000	6.440000	-1.540000	412.00	-0.03	-0.04	2.50	2.25	2.25	2.75	1.25	0.00	0.00	0.00	0.50	0.00	0.00	0.00	0.00	2.25	2.00	2.50	-0.182129	0.068359	0.974121	-2.520000	-5.670000	1.890000	176.00	-0.07	-0.03
0.45	3.00	4.75	4.00	6.25	1.75	1.50	0.50	0.25	2.50	1.25	1.50	1.75	2.00	7.75	1.00	2.25	-0.216797	0.061035	0.958496	-1.750000	6.720000	-1.610000	421.00	-0.02	-0.04	2.50	2.50	2.50	3.00	1.00	0.00	0.00	0.00	0.50	0.00	0.00	0.00	0.25	2.50	1.75	2.50	-0.181152	0.066406	0.976562	-2.730000	-5.670000	1.820000	183.00	-0.08	-0.04
0.46	2.75	4.50	4.00	6.50	1.75	1.75	0.50	0.25	2.50	1.25	1.50	1.75	2.00	7.75	1.00	2.25	-0.213379	0.061523	0.951660	-1.680000	6.860000	-1.540000	421.00	-0.02	-0.04	2.50	2.50	2.25	2.75	1.25	0.00	0.00	0.00	0.50	0.25	0.00	0.00	0.00	2.25	1.75	2.50	-0.181152	0.065430	0.977539	-2.730000	-5.670000	1.750000	178.00	-0.08	-0.03
0.47	2.75	4.50	3.75	6.00	2.00	1.50	0.50	0.25	2.25	1.25	1.50	1.75	1.75	8.00	1.25	2.25	-0.210449	0.068848	0.952148	-1.400000	6.790000	-1.470000	413.00	-0.01	-0.04	2.50	2.50	2.25	2.75	1.25	0.00	0.00	0.00	0.50	0.25	0.00	0.00	0.25	2.25	1.75	2.50	-0.178711	0.062988	0.975098	-2.660000	-5.460000	1.890000	180.00	-0.08	-0.03
0.48	3.00	4.50	3.75	6.25	1.75	1.25	0.50	0.00	2.50	1.50	1.75	1.75	2.00	7.75	1.00	2.25	-0.214355	0.064941	0.946777	-1.330000	7.000000	-1.400000	414.00	-0.01	-0.03	2.25	2.00	2.50	2.75	1.25	0.00	0.00	0.00	0.00	0.25	0.00	0.00	0.25	2.25	1.75	2.50	-0.180664	0.068359	0.973145	-2.660000	-5.250000	1.820000	169.00	-0.08	-0.04
0.49	2.75	4.25	4.00	6.00	1.75	1.75	0.50	0.25	2.50	1.50	1.75	2.00	2.00	7.75	1.25	2.25	-0.216309	0.064941	0.958008	-1.330000	7.280000	-1.680000	424.00	-0.01	-0.04	2.50	2.50	2.25	2.50	1.00	0.00	0.00	0.00	0.50	0.00	0.00	0.00	0.25	2.25	1.50	2.25	-0.174805	0.066895	0.980469	-2.310000	-5.040000	1.960000	168.00	-0.09	-0.03
0.50	2.50	4.25	3.75	5.75	1.75	1.50	0.50	0.25	2.75	1.25	1.75	1.75	2.25	7.75	1.25	2.25	-0.213867	0.062500	0.958496	-1.260000	7.000000	-1.610000	414.00	0.00	-0.04	2.00	2.25	2.25	2.50	1.25	0.00	0.00	0.00	0.50	0.25	0.00	0.00	0.25	2.00	1.50	2.25	-0.174316	0.069824	0.975586	-2.030000	-4.760000	1.960000	164.00	-0.08	-0.03
0.51	2.75	4.00	3.50	5.75	1.75	1.25	0.50	0.25	2.50	1.50	1.75	1.75	2.00	7.75	1.00	2.25	-0.213867	0.063965	0.949219	-1.330000	7.280000	-1.610000	403.00	-0.00	-0.04	2.00	2.00	2.00	2.75	1.25	0.00	0.00	0.00	0.50	0.25	0.00	0.00	0.25	2.25	1.50	2.25	-0.173828	0.065918	0.972656	-2.100000	-4.340000	1.960000	164.00	-0.07	-0.03
0.52	2.50	4.00	3.25	5.50	1.75	1.50	0.50	0.00	2.75	1.25	2.00	1.75	2.25	7.75	1.25	2.25	-0.214844	0.067871	0.952148	-1.190000	7.210000	-1.680000	402.00	0.01	-0.04	1.75	2.00	2.00	2.25	1.25	0.00	0.00	0.00	0.50	0.50	0.25	0.00	0.25	1.75	1.50	2.25	-0.177734	0.068359	0.975586	-2.240000	-3.990000	1.890000	157.00	-0.06	-0.03
0.53	2.50	3.75	3.50	5.50	1.75	1.50	0.50	0.25	2.75	1.50	2.00	2.00	2.25	7.75	1.25	2.25	-0.216797	0.062988	0.952637	-1.190000	7.070000	-1.540000	411.00	0.01	-0.04	2.00	1.75	1.75	2.50	1.25	0.00	0.00	0.00	0.75	0.50	0.25	0.00	0.50	1.50	1.25	1.75	-0.174805	0.064941	0.979492	-2.380000	-3.850000	1.820000	155.00	-0.07	-0.03
0.54	2.50	4.25	3.00	5.50	1.50	1.00	0.50	0.25	2.75	1.75	2.25	2.00	2.25	7.75	1.25	2.25	-0.214844	0.062500	0.947266	-1.260000	6.930000	-1.540000	407.00	0.02	-0.04	1.75	1.75	2.25	2.75	1.00	0.00	0.00	0.00	0.75	0.50	0.25	0.00	0.50	1.50	1.25	2.00	-0.172363	0.067871	0.972168	-2.660000	-3.710000	1.750000	159.00	-0.07	-0.04
0.55	2.50	3.75	3.25	5.50	1.50	1.50	0.50	0.25	2.75	1.75	2.25	2.25	2.25	8.00	1.00	2.00	-0.218750	0.063477	0.952637	-1.260000	6.860000	-1.540000	412.00	0.02	-0.04	1.75	2.00	2.00	2.25	1.00	0.00	0.00	0.00	0.75	0.75	0.50	0.00	0.50	1.50	1.00	1.75	-0.177246	0.069824	0.979004	-2.870000	-3.920000	1.680000	154.00	-0.07	-0.03
0.56	2.25	3.50	3.00	5.50	1.75	1.25	0.50	0.25	2.25	1.75	2.25	2.25	2.25	7.75	1.00	2.25	-0.214355	0.062012	0.947754	-1.330000	6.650000	-1.470000	397.00	0.02	-0.05	1.75	2.00	2.00	2.00	1.00	0.00	0.00	0.00	0.75	0.75	0.25	0.00	0.50	1.25	1.25	1.50	-0.170410	0.065918	0.976562	-3.150000	-4.270000	1.610000	148.00	-0.07	-0.03
0.57	2.25	3.50	3.00	5.50	1.75	1.25	0.50	0.25	2.75	1.75	2.25	2.25	2.25	8.00	1.25	2.25	-0.216309	0.068359	0.956543	-1.470000	6.510000	-1.470000	408.00	0.03	-0.04	1.50	1.75	1.75	2.50	1.00	0.00	0.00	0.00	0.50	1.00	0.50	0.00	0.25	1.25	0.75	1.25	-0.175293	0.069824	0.975586	-3.430000	-4.200000	1.540000	139.00	-0.08	-0.03
0.58	2.00	3.75	3.00	5.25	1.75	1.50	0.50	0.25	2.75	2.00	2.25	2.25	2.25	8.00	1.25	2.25	-0.210449	0.062988	0.944824	-1.540000	6.440000	-1.470000	410.00	0.03	-0.04	1.50	1.75	1.50	2.25	1.00	0.00	0.00	0.00	1.00	1.25	0.75	0.00	0.50	1.25	0.75	1.00	-0.177734	0.071289	0.970703	-3.640000	-4.200000	1.680000	146.00	-0.05	-0.02
0.59	2.00	3.50	3.00	5.25	1.25	1.50	0.50	0.25	3.25	1.75	2.50	2.50	2.25	7.75	1.25	2.25	-0.217285	0.065430	0.952637	-1.750000	6.300000	-1.470000	410.00	0.04	-0.04	1.75	2.00	1.75	2.00	1.00	0.00	0.00	0.00	1.00	1.25	0.75	0.00	0.50	1.00	0.50	0.75	-0.178711	0.060059	0.978516	-3.780000	-3.850000	1.610000	145.00	-0.08	-0.02
0.60	2.25	3.50	3.00	5.25	1.50	1.25	0.50	0.50	2.75	2.00	2.50	2.50	2.25	7.75	1.25	2.25	-0.217285	0.065430	0.952637	-1.750000	6.300000	-1.470000	412.00	0.03	-0.04	1.50	2.00	1.75	2.00	1.25	0.00	0.00	0.00	1.00	1.25	0.50	0.00	0.75	1.00	0.50	0.75	-0.172363	0.062988	0.971191	-4.060000	-2.800000	1.470000	145.00	-0.08	-0.02
0.61	2.00	3.50	3.00	5.00	1.50	1.50	0.50	0.25	3.00	2.00	2.75	2.75	2.50	8.00	1.25	2.00	-0.216309	0.064453	0.949219	-1.750000	6.510000	-1.610000	417.00	0.04	-0.04	1.50	1.75	1.75	2.75	1.00	0.00	0.00	0.00	1.50	1.25	0.75	0.00	0.50	1.25	0.25	0.75	-0.178223	0.065430	0.975586	-4.200000	-2.030000	1.470000	154.00	-0.07	-0.01
0.62	1.75	3.25	2.75	5.00	1.50	1.25	0.50	0.25	2.75	2.00	2.75	2.75	2.25	8.25	1.25	2.25	-0.215332	0.054688	0.954102	-1.680000	6.650000	-1.540000	405.00	0.05	-0.04	1.50	2.00	1.75	2.00	1.00	0.00	0.00	0.00	1.50	1.50	1.00	0.00	0.50	0.75	0.50	0.25	-0.180176	0.062012	0.974609	-4.340000	-1.680000	1.400000	149.00	-0.06	-0.00
0.63	1.75	3.00	2.75	5.00	1.75	1.00	0.50	0.25	2.75	2.00	2.75	2.50	2.25	8.00	1.25	2.00	-0.210938	0.064941	0.958984	-1.610000	6.860000	-1.540000	396.00	0.05	-0.04	1.50	1.75	1.75	2.00	1.25	0.00	0.00	0.00	1.25	1.50	1.25	0.00	0.50	0.50	0.25	0.25	-0.179688	0.062012	0.968750	-4.060000	-1.610000	1.540000	144.00	-0.08	-0.01
0.64	1.75	3.00	2.75	5.00	1.50	1.25	0.50	0.25	3.00	2.00	2.75	2.75	2.25	8.00	1.00	2.00	-0.218262	0.065430	0.948242	-1.540000	7.210000	-1.540000	400.00	0.05	-0.04	1.25	2.00	1.50	2.00	1.25	0.00	0.00	0.00	1.50	2.00	1.00	0.00	0.75	0.50	0.00	0.25	-0.171875	0.065430	0.974609	-3.920000	-1.540000	1.610000	147.00	-0.07	-0.01
0.65	1.75	3.00	2.75	5.00	1.50	1.00	0.50	0.00	2.75	2.00	3.00	3.00	2.50	8.25	1.25	2.00	-0.214844	0.061523	0.951172	-1.400000	7.420000	-1.540000	402.00	0.06	-0.04	1.25	1.75	1.75	2.25	1.00	0.00	0.00	0.00	1.75	1.75	1.25	0.00	0.50	0.75	0.25	0.00	-0.175293	0.057129	0.971191	-3.710000	-1.400000	1.610000	152.00	-0.05	0.00
0.66	1.75	2.00	2.50	4.25	1.75	1.00	0.50	0.25	3.25	2.00	3.25	2.75	2.25	8.00	1.50	2.25	-0.217285	0.063477	0.953125	-1.330000	7.560000	-1.540000	395.00	0.08	-0.03	1.25	1.75	1.75	2.00	1.25	0.00	0.00	0.00	1.75	2.00	1.25	0.00	0.50	0.75	0.00	0.00	-0.175293	0.061523	0.974609	-3.500000	-1.190000	1.680000	152.00	-0.05	0.01
0.67	1.75	3.00	2.25	4.50	1.50	1.00	0.50	0.25	3.00	2.00	3.25	3.00	2.50	8.00	1.50	2.25	-0.212402	0.060059	0.951660	-1.260000	7.350000	-1.540000	403.00	0.07	-0.04	1.25	1.75	1.50	1.75	1.00	0.00	0.00	0.00	1.75	2.00	1.50	0.00	0.50	0.50	0.00	0.00	-0.179688	0.065918	0.970703	-3.290000	-1.330000	1.750000	144.00	-0.04	0.01
0.68	1.75	2.75	2.50	4.75	1.50	1.00	0.50	0.00	3.25	2.25	3.25	3.25	2.50	8.00	1.25	2.00	-0.210938	0.062012	0.949707	-1.190000	7.210000	-1.330000	406.00	0.07	-0.04	1.25	1.75	1.75	1.75	1.00	0.00	0.00	0.00	2.00	2.25	1.25	0.00	0.25	0.75	0.00	0.00	-0.181641	0.065918	0.967773	-3.290000	-1.400000	1.680000	150.00	-0.04	0.03
0.69	1.75	2.50	2.50	4.00	1.50	1.00	0.50	0.25	3.25	2.25	3.25	3.25	2.50	8.00	1.25	2.00	-0.212891	0.061523	0.950684	-1.400000	6.860000	-1.330000	400.00	0.08	-0.04	1.25	1.75	1.75	2.00	1.00	0.00	0.00	0.00	2.00	2.25	1.25	0.00	0.50	0.75	0.00	0.00	-0.178711	0.057617	0.977539	-3.010000	-1.960000	1.750000	155.00	-0.04	0.02
0.70	1.75	2.50	2.25	4.25	1.25	1.00	0.50	0.25	3.25	2.25	3.25	3.25	2.50	8.00	1.25	2.25	-0.215820	0.066406	0.948730	-1.680000	6.650000	-1.400000	398.00	0.08	-0.04	1.50	1.25	1.50	2.25	1.25	0.00	0.00	0.00	2.00	2.50	1.50	0.00	0.75	0.75	0.00	0.00	-0.176758	0.059082	0.970703	-2.940000	-2.240000	1.820000	163.00	-0.02	0.01
0.71	1.50	2.50	2.25	4.50	1.50	0.50	0.50	0.25	3.25	2.25	3.50	3.25	2.75	8.00	1.25	2.00	-0.215332	0.063477	0.949707	-1.610000	6.230000	-1.400000	399.00	0.09	-0.04	1.25	1.50	1.25	1.75	1.25	0.00	0.00	0.00	2.25	2.50	1.50	0.00	0.50	0.50	0.00	0.00	-0.175293	0.059082	0.972656	-2.870000	-2.870000	1.820000	153.00	-0.01	0.02
0.72	1.50	2.50	2.25	4.75	1.50	0.75	0.50	0.25	3.25	2.25	3.25	3.25	2.50	8.00	1.25	2.00	-0.207520	0.059570	0.947754	-1.680000	6.090000	-1.470000	400.00	0.08	-0.04	1.25	1.50	1.50	1.75	1.00	0.00	0.00	0.00	2.25	2.75	1.50	0.25	0.50	0.75	0.00	0.00	-0.175781	0.064941	0.969727	-2.870000	-3.080000	1.820000	161.00	-0.00	0.02
0.73	1.25	2.50	2.25	4.25	1.25	1.00	0.50	0.25	3.25	2.50	3.50	3.00	2.50	8.00	1.25	2.00	-0.217285	0.061035	0.952637	-1.960000	6.090000	-1.680000	394.00	0.09	-0.04	1.25	1.50	1.75	2.00	1.00	0.00	0.00	0.00	2.25	2.75	1.75	0.00	0.25	0.50	0.00	0.00	-0.174316	0.063965	0.974609	-2.870000	-2.940000	1.890000	162.00	-0.02	0.03
0.74	1.50	2.50	2.00	4.50	1.50	1.00	0.50	0.25	3.25	2.50	3.50	3.25	2.50	8.00	1.25	2.00	-0.209961	0.065918	0.946289	-2.100000	6.090000	-1.610000	402.00	0.09	-0.04	1.25	1.75	1.75	1.75	1.00	0.00	0.00	0.00	2.25	2.75	1.50	0.00	0.25	0.75	0.00	0.00	-0.179199	0.060547	0.975586	-2.730000	-2.380000	1.820000	161.00	-0.02	0.03
0.75	1.50	2.25	2.25	4.00	1.25	0.75	0.50	0.25	3.25	2.50	3.75	3.25	2.50	8.25	1.25	2.00	-0.216309	0.063477	0.950684	-2.100000	6.300000	-1.610000	397.00	0.10	-0.03	1.25	1.50	1.75	2.00	1.00	0.00	0.00	0.00	2.25	3.00	1.50	0.00	0.50	0.75	0.00	0.00	-0.171875	0.057129	0.972168	-2.590000	-2.310000	1.750000	166.00	-0.01	0.02
0.76	1.50	2.50	2.25	3.75	1.50	0.75	0.50	0.25	3.25	2.50	3.75	3.25	2.75	8.25	1.25	2.00	-0.208008	0.065430	0.953125	-2.100000	6.720000	-1.820000	401.00	0.10	-0.04	1.25	1.50	1.50	1.75	1.25	0.00	0.00	0.00	2.50	3.25	1.50	0.00	0.50	0.75	0.00	0.00	-0.179199	0.065430	0.976074	-2.380000	-2.520000	1.890000	169.00	0.00	0.03
0.77	1.25	2.50	2.00	4.00	1.25	1.00	0.50	0.25	3.50	2.50	3.75	3.50	2.50	8.25	1.25	2.00	-0.215332	0.066406	0.952637	-2.030000	6.790000	-1.750000	402.00	0.10	-0.04	1.50	2.00	1.75	1.75	1.25	0.00	0.00	0.00	2.25	3.00	1.75	0.00	0.50	0.50	0.00	0.00	-0.175293	0.058594	0.973633	-2.170000	-2.800000	1.960000	174.00	-0.03	0.02
0.78	1.25	2.50	2.00	4.00	1.25	1.00	0.50	0.25	3.25	2.75	4.00	3.50	2.50	8.25	1.25	2.00	-0.220215	0.065918	0.948730	-2.100000	6.930000	-1.750000	404.00	0.10	-0.04	1.00	1.75	1.50	2.00	1.00	0.00	0.00	0.00	2.50	3.25	1.75	0.25	0.50	0.50	0.00	0.00	-0.180176	0.056641	0.974121	-2.030000	-3.080000	1.960000	172.00	0.00	0.02
0.79	1.50	2.75	2.00	3.75	1.25	1.00	0.50	0.25	3.50	2.50	4.00	3.50	2.50	8.25	1.25	2.25	-0.215332	0.061523	0.953613	-1.960000	7.000000	-1.750000	408.00	0.10	-0.04	1.25	1.75	1.50	1.50	1.00	0.00	0.00	0.00	2.75	3.25	1.75	0.00	0.25	0.50	0.00	0.00	-0.180176	0.060059	0.974121	-1.890000	-3.220000	2.030000	168.00	0.01	0.04
0.80	1.50	2.25	2.00	3.75	1.25	0.75	0.50	0.25	3.25	3.00	4.00	3.50	2.50	8.00	1.50	2.00	-0.218262	0.066406	0.956055	-1.890000	6.790000	-1.540000	402.00	0.11	-0.04	1.25	1.75	1.50	1.75	1.00	0.00	0.00	0.00	2.50	3.25	1.75	0.00	0.25	0.75	0.00	0.00	-0.172852	0.062500	0.977051	-1.610000	-3.430000	2.100000	169.00	0.00	0.03
0.81	1.25	2.50	2.00	4.00	1.50	0.75	0.50	0.25	4.00	2.75	4.00	3.50	2.50	8.00	1.50	1.75	-0.218262	0.066406	0.956055	-1.890000	6.790000	-1.540000	413.00	0.10	-0.03	1.50	1.50	1.50	1.75	1.00	0.00	0.00	0.00	2.25	3.25	1.75	0.00	0.50	0.75	0.00	0.00	-0.175781	0.060059	0.973145	-1.680000	-3.500000	2.030000	169.00	-0.00	0.03
0.82	1.25	2.25	1.75	3.50	1.25	0.75	0.50	0.25	3.50	2.75	4.00	3.50	2.50	8.25	1.25	1.75	-0.210449	0.064453	0.951660	-1.820000	7.140000	-1.540000	393.00	0.11	-0.03	1.25	2.00	1.50	2.00	1.00	0.00	0.00	0.00	2.50	3.50	2.00	0.25	0.50	0.75	0.00	0.00	-0.178711	0.062988	0.975586	-1.610000	-3.500000	2.170000	184.00	0.00	0.02
0.83	1.25	2.25	1.75	3.75	1.25	0.75	0.50	0.25	3.75	3.00	4.50	3.50	2.50	8.00	1.25	1.75	-0.218262	0.062012	0.960938	-1.820000	7.280000	-1.540000	404.00	0.11	-0.03	1.50	2.00	1.25	1.75	1.00	0.00	0.00	0.00	2.50	3.50	2.00	0.25	0.75	0.50	0.25	0.00	-0.179688	0.059082	0.974609	-1.540000	-3.640000	2.100000	184.00	0.01	0.01
0.84	1.25	2.00	1.50	3.50	1.25	0.75	0.50	0.25	3.75	2.75	4.25	3.75	2.50	8.00	1.50	2.00	-0.217285	0.064453	0.950195	-1.820000	7.350000	-1.610000	398.00	0.12	-0.04	1.25	1.50	1.50	2.00	1.00	0.00	0.00	0.00	2.00	3.50	2.00	0.25	0.50	0.75	0.00	0.00	-0.178223	0.062500	0.971680	-1.470000	-3.850000	2.170000	173.00	0.01	0.01
0.85	1.25	2.50	1.75	3.50	1.50	0.50	0.50	0.50	3.50	2.75	4.50	3.75	2.50	8.25	1.25	2.00	-0.214844	0.062500	0.948242	-1.820000	7.700000	-1.610000	408.00	0.11	-0.04	1.25	1.50	1.50	1.75	1.25	0.00	0.00	0.00	2.50	3.25	1.75	0.25	0.50	0.75	0.25	0.00	-0.182129	0.062500	0.970703	-1.260000	-4.200000	2.240000	177.00	0.02	0.02
0.86	1.00	2.50	1.50	3.25	1.50	0.75	0.50	0.25	3.75	3.00	4.75	3.50	2.50	8.25	1.50	1.75	-0.217773	0.063477	0.946289	-1.750000	7.840000	-1.610000	406.00	0.12	-0.03	1.00	1.50	1.50	2.00	1.25	0.00	0.00	0.00	2.25	3.25	2.00	0.25	1.00	0.75	0.00	0.25	-0.179199	0.061035	0.974121	-1.050000	-4.760000	2.310000	180.00	0.02	-0.00
0.87	1.50	2.50	1.50	3.25	1.25	0.75	0.50	0.25	3.50	3.00	4.50	3.50	2.50	8.25	1.25	1.75	-0.216797	0.061523	0.950684	-1.680000	7.770000	-1.470000	400.00	0.12	-0.03	1.25	1.75	1.25	2.00	1.00	0.00	0.00	0.00	2.50	3.50	2.25	0.25	0.75	0.75	0.00	0.00	-0.177734	0.063965	0.974609	-0.980000	-5.250000	2.450000	184.00	0.02	0.01
0.88	1.25	2.00	1.75	2.75	1.25	0.75	0.50	0.25	3.25	2.75	5.00	3.75	2.50	8.25	1.25	1.75	-0.219727	0.058594	0.952637	-1.750000	7.630000	-1.470000	392.00	0.13	-0.03	1.25	1.50	1.50	2.00	1.25	0.00	0.00	0.00	2.25	3.00	2.00	0.25	0.75	0.75	0.00	0.00	-0.175293	0.067383	0.974609	-0.840000	-5.460000	2.520000	176.00	0.00	0.01
0.89	1.00	1.75	1.75	3.00	1.25	0.50	0.50	0.25	3.75	2.75	4.75	3.75	2.25	8.00	1.25	1.75	-0.213379	0.063477	0.950195	-1.680000	7.420000	-1.540000	387.00	0.13	-0.03	1.25	1.75	1.50	2.00	1.00	0.00	0.00	0.00	2.25	3.00	2.25	0.50	0.75	0.75	0.00	0.00	-0.172363	0.060059	0.977051	-0.560000	-5.530000	2.450000	181.00	0.01	-0.00
0.90	1.00	1.75	1.75	2.50	1.25	0.50	0.50	0.25	3.75	2.75	4.75	3.50	2.50	8.00	1.50	1.75	-0.215820	0.060547	0.952637	-1.890000	7.560000	-1.680000	383.00	0.14	-0.03	1.25	1.75	1.50	2.00	1.00	0.00	0.00	0.00	2.25	2.75	2.00	0.25	1.00	0.75	0.00	0.25	-0.175293	0.068359	0.978027	-0.560000	-5.670000	2.520000	177.00	0.00	-0.00
0.91	1.25	2.25	1.50	2.75	1.25	0.75	0.50	0.25	4.00	2.75	4.50	3.50	2.50	8.00	1.25	1.75	-0.218750	0.064453	0.948242	-2.100000	7.630000	-1.820000	391.00	0.13	-0.03	1.25	2.00	1.25	2.00	1.00	0.00	0.00	0.00	2.25	2.75	2.00	0.75	0.75	0.75	0.00	0.25	-0.172363	0.066406	0.975586	-0.700000	-5.670000	2.520000	179.00	0.00	-0.01
0.92	1.00	2.00	1.75	2.75	1.25	0.50	0.50	0.25	3.75	2.75	5.00	3.50	2.50	8.25	1.25	1.75	-0.215820	0.061035	0.952148	-2.100000	7.630000	-1.680000	391.00	0.13	-0.03	1.50	2.00	1.25	2.00	1.00	0.00	0.00	0.00	1.75	2.50	2.00	0.50	0.75	1.00	0.00	0.50	-0.175293	0.066406	0.972656	-0.630000	-5.670000	2.450000	174.00	-0.01	-0.02
0.93	1.00	2.00	1.75	2.75	1.25	0.50	0.50	0.25	3.75	3.00	5.00	3.50	2.25	8.00	1.25	1.50	-0.216309	0.065918	0.958984	-2.240000	7.490000	-1.610000	388.00	0.13	-0.02	1.25	1.50	1.50	1.75	1.00	0.00	0.00	0.00	2.00	2.50	1.75	0.25	1.25	1.00	0.00	0.25	-0.178223	0.063965	0.977051	-0.770000	-5.670000	2.450000	167.00	0.01	-0.01
0.94	1.25	2.25	1.75	2.75	1.25	0.50	0.50	0.25	4.00	3.00	5.00	3.50	2.25	8.00	1.25	1.75	-0.215820	0.060059	0.950195	-2.310000	7.700000	-1.750000	397.00	0.13	-0.02	1.25	1.75	1.75	2.00	1.00	0.00	0.00	0.00	2.00	2.50	2.00	0.50	1.25	1.25	0.25	0.25	-0.174805	0.067871	0.976562	-0.910000	-5.460000	2.380000	185.00	0.01	-0.01
0.95	1.00	1.75	1.50	2.75	1.25	0.50	0.50	0.00	3.50	3.00	4.75	3.25	2.25	8.00	1.00	1.50	-0.221191	0.062012	0.945312	-2.310000	7.770000	-1.610000	367.00	0.14	-0.02	1.25	1.75	1.50	2.00	1.00	0.00	0.00	0.00	1.50	2.25	2.00	0.25	1.25	1.50	0.25	0.50	-0.171875	0.067871	0.976562	-1.050000	-5.250000	2.240000	174.00	0.01	-0.02
0.96	1.00	2.00	2.00	2.50	1.25	0.75	0.50	0.00	3.50	2.75	4.75	3.25	2.25	8.00	1.25	1.50	-0.213379	0.057129	0.952637	-2.310000	7.770000	-1.680000	375.00	0.13	-0.02	1.50	1.75	1.75	2.50	1.00	0.00	0.00	0.00	2.00	2.00	1.75	0.25	1.00	1.50	0.25	0.50	-0.171387	0.065430	0.973145	-1.890000	-5.180000	2.030000	184.00	-0.01	-0.01
0.97	0.75	2.25	1.75	2.75	1.00	0.50	0.50	0.00	3.50	2.50	4.50	3.00	2.00	7.75	1.00	1.75	-0.214844	0.060547	0.950195	-2.310000	7.770000	-1.610000	356.00	0.13	-0.02	1.25	1.75	1.75	2.25	1.25	0.00	0.00	0.00	1.50	2.25	1.75	0.25	1.00	1.25	0.25	0.50	-0.171387	0.065430	0.973145	-1.890000	-5.180000	2.030000	176.00	-0.02	-0.02
0.98	1.25	1.25	1.50	2.75	1.25	0.25	0.50	0.25	3.75	2.50	4.50	3.00	2.00	7.75	1.00	1.50	-0.217285	0.061035	0.950195	-2.310000	7.700000	-1.400000	355.00	0.14	-0.01	1.75	1.75	1.50	2.25	1.25	0.00	0.00	0.00	1.50	2.00	2.00	0.50	1.00	1.50	0.00	0.50	-0.171387	0.062500	0.974609	-2.170000	-5.180000	1.960000	180.00	-0.02	-0.02
0.99	1.00	1.75	1.25	3.50	1.00	0.75	0.50	0.00	3.75	2.75	4.50	2.75	1.75	7.75	1.25	1.50	-0.218262	0.060059	0.948242	-2.240000	7.840000	-1.400000	362.00	0.13	-0.02	1.75	1.75	1.75	2.50	1.25	0.00	0.00	0.00	1.75	2.00	1.50	0.25	1.25	1.75	0.25	0.50	-0.172363	0.062988	0.972656	-2.450000	-5.320000	1.960000	188.00	-0.02	-0.01
1.00	1.50	1.75	1.50	3.00	1.25	0.50	0.50	0.25	3.25	2.25	4.25	3.00	2.00	7.75	1.25	1.25	-0.225098	0.059570	0.946289	-2.310000	7.700000	-1.330000	357.00	0.12	-0.02	1.50	2.00	1.75	2.25	1.25	0.00	0.00	0.00	1.25	2.00	1.50	0.50	1.25	1.75	0.50	0.50	-0.166992	0.066406	0.978027	-2.660000	-5.460000	1.960000	184.00	-0.02	-0.03
1.01	1.25	2.25	1.50	3.00	1.00	0.50	0.50	0.00	3.25	2.00	4.25	2.50	1.75	7.50	1.25	1.50	-0.216797	0.060547	0.951660	-2.310000	7.280000	-1.120000	342.00	0.12	-0.02	1.75	1.75	2.00	2.50	1.25	0.00	0.00	0.00	1.50	1.75	1.50	0.25	1.00	1.75	0.50	0.50	-0.166016	0.064453	0.974121	-2.660000	-5.530000	2.100000	185.00	-0.03	-0.01
1.02	1.00	1.50	1.75	2.75	1.25	0.75	0.50	0.00	3.50	2.25	4.00	2.50	1.75	7.50	1.00	1.50	-0.215332	0.062988	0.948730	-2.450000	6.580000	-1.260000	339.00	0.13	-0.01	1.75	2.25	2.00	2.75	1.25	0.00	0.00	0.00	1.25	1.75	1.75	0.50	1.00	1.75	0.50	0.50	-0.171387	0.070312	0.974121	-2.590000	-5.530000	1.890000	195.00	-0.04	-0.03
1.03	1.00	2.25	1.50	3.00	1.25	0.50	0.50	0.25	3.25	2.25	3.75	2.50	1.75	7.50	1.00	1.50	-0.220703	0.060059	0.951172	-2.450000	6.230000	-1.260000	341.00	0.11	-0.02	1.75	1.75	2.25	2.50	1.50	0.00	0.00	0.00	1.25	1.75	1.50	0.25	1.50	1.75	0.50	0.75	-0.173340	0.063477	0.979492	-2.590000	-5.530000	1.960000	193.00	-0.03	-0.03
1.04	1.25	2.00	1.75	3.00	1.25	0.50	0.50	0.25	3.00	2.00	3.50	2.25	1.75	7.50	1.00	1.25	-0.213867	0.059082	0.947754	-2.590000	6.510000	-1.400000	331.00	0.10	-0.02	1.75	2.25	2.00	2.75	1.25	0.00	0.00	0.00	1.25	1.75	1.75	0.50	1.00	1.75	0.25	0.50	-0.166992	0.065918	0.976562	-2.660000	-5.180000	1.890000	192.00	-0.05	-0.03
1.05	1.50	2.25	2.00	2.75	1.00	0.50	0.50	0.00	3.25	2.00	3.50	2.25	1.75	7.25	1.00	1.25	-0.219727	0.056152	0.948242	-2.590000	7.000000	-1.470000	331.00	0.10	-0.01	2.25	2.25	2.25	2.75	1.50	0.00	0.00	0.00	1.25	1.75	1.50	0.50	1.25	1.50	0.25	0.50	-0.167969	0.066895	0.975098	-2.730000	-4.970000	1.820000	200.00	-0.07	-0.03
1.06	1.25	2.25	2.00	3.25	1.25	0.50	0.50	0.00	2.50	2.25	3.50	2.00	1.75	7.50	1.00	1.25	-0.219238	0.059570	0.948730	-2.590000	7.280000	-1.470000	329.00	0.09	-0.02	2.00	2.25	2.25	3.00	1.50	0.00	0.00	0.00	1.25	1.50	1.50	0.50	1.25	1.75	0.25	0.50	-0.168945	0.064941	0.974121	-2.730000	-4.760000	1.750000	200.00	-0.06	-0.03
1.07	1.50	2.25	2.00	3.25	1.25	0.50	0.50	0.00	3.25	2.00	3.25	2.25	1.50	7.50	0.75	1.25	-0.216797	0.057129	0.944336	-2.520000	7.280000	-1.400000	334.00	0.09	-0.01	2.00	2.25	2.25	2.75	1.25	0.00	0.00	0.00	1.25	1.75	1.50	0.50	1.25	2.00	0.50	0.50	-0.167480	0.065430	0.978027	-2.730000	-4.830000	1.890000	202.00	-0.04	-0.03
1.08	1.50	2.25	1.50	3.25	1.00	0.50	0.50	0.25	3.25	2.00	3.00	2.00	1.50	7.00	1.00	1.00	-0.221680	0.057617	0.949707	-2.310000	7.420000	-1.260000	321.00	0.09	-0.01	2.25	2.50	2.25	3.00	1.50	0.00	0.00	0.00	1.50	1.75	1.50	0.50	1.25	1.75	0.25	0.50	-0.166992	0.062500	0.971680	-2.660000	-4.620000	1.890000	211.00	-0.06	-0.03
1.09	1.50	2.25	2.00	3.00	1.25	0.50	0.50	0.00	2.75	1.75	3.00	1.75	1.50	7.00	1.00	1.25	-0.215332	0.060547	0.951660	-2.100000	7.280000	-1.120000	312.00	0.08	-0.01	2.25	2.25	2.25	3.00	1.50	0.00	0.00	0.00	1.25	1.50	1.50	0.50	1.25	1.75	0.75	0.50	-0.167480	0.064941	0.974609	-2.800000	-4.410000	1.960000	208.00	-0.06	-0.03
1.10	1.25	2.75	2.00	3.25	1.25	0.50	0.50	0.00	2.75	1.50	3.00	1.75	1.25	7.25	1.00	1.00	-0.221680	0.060059	0.946777	-2.030000	7.420000	-1.190000	313.00	0.08	-0.01	2.25	2.00	2.25	3.00	1.25	0.00	0.00	0.00	1.25	1.50	1.50	0.50	1.25	2.00	0.50	0.75	-0.170410	0.065430	0.975098	-2.800000	-4.480000	1.820000	204.00	-0.05	-0.03
1.11	1.50	2.25	2.00	2.75	1.25	0.75	0.50	0.00	2.50	1.75	2.75	1.50	1.25	7.00	1.00	1.00	-0.222656	0.060059	0.953613	-1.960000	7.560000	-1.050000	300.00	0.08	-0.00	2.25	2.25	2.50	3.25	1.50	0.00	0.00	0.00	1.50	1.50	1.50	0.50	1.25	2.00	0.50	0.75	-0.166992	0.063965	0.975586	-2.730000	-4.620000	1.820000	217.00	-0.05	-0.03
1.12	1.50	2.25	2.00	3.25	1.25	0.75	0.50	0.00	2.50	1.25	2.75	1.25	1.50	6.50	0.75	1.00	-0.220215	0.062012	0.946777	-1.330000	7.630000	-0.700000	293.00	0.06	-0.01	2.25	2.75	2.50	3.25	1.50	0.00	0.00	0.00	1.00	1.75	1.25	0.50	1.00	2.00	0.50	0.50	-0.168457	0.067871	0.977539	-2.520000	-4.690000	1.820000	212.00	-0.08	-0.03
1.13	1.25	2.50	2.00	3.25	1.25	0.50	0.50	0.00	2.00	1.25	2.00	1.25	1.25	6.75	0.75	1.00	-0.220703	0.059082	0.949219	-0.980000	7.630000	-0.770000	276.00	0.05	-0.01	2.75	3.00	2.75	3.50	1.50	0.00	0.00	0.00	1.00	1.50	1.50	0.50	1.00	1.75	0.50	0.50	-0.166992	0.065430	0.977539	-2.240000	-4.830000	1.890000	223.00	-0.10	-0.04
1.14	1.25	2.50	2.50	3.25	1.50	0.75	0.50	0.00	2.50	1.25	2.00	1.25	1.00	6.50	0.50	0.75	-0.224121	0.055664	0.947266	-0.910000	7.700000	-0.630000	285.00	0.04	0.00	2.50	3.00	2.75	3.25	1.50	0.00	0.00	0.00	1.00	1.25	1.50	0.50	1.25	2.00	0.50	0.75	-0.165527	0.062500	0.974121	-2.170000	-5.110000	2.100000	221.00	-0.09	-0.04
1.15	1.75	2.50	2.00	3.50	1.25	0.75	0.50	0.00	2.00	1.00	1.75	0.75	1.25	6.50	0.50	1.00	-0.220215	0.060547	0.951660	-0.490000	7.630000	-0.420000	271.00	0.03	-0.01	2.75	3.00	2.75	3.75	1.75	0.00	0.00	0.00	1.25	1.25	1.25	0.25	1.75	1.75	0.50	0.75	-0.164551	0.063477	0.978027	-1.610000	-5.810000	2.240000	232.00	-0.10	-0.04
1.16	1.75	3.00	2.00	3.75	1.50	0.75	0.50	0.00	1.75	1.00	1.50	1.00	1.00	6.00	0.50	0.75	-0.223633	0.061523	0.950195	-0.350000	8.190000	-0.420000	270.00	0.00	-0.01	2.75	3.00	3.00	4.25	1.50	0.00	0.00	0.00	1.00	1.25	1.25	0.50	1.75	2.00	0.50	0.50	-0.166504	0.062500	0.976074	-1.260000	-6.370000	2.450000	237.00	-0.10	-0.05
1.17	2.00	3.00	2.25	4.25	1.25	0.75	0.50	0.00	1.75	0.75	1.00	0.75	1.00	5.75	0.50	0.50	-0.217773	0.062012	0.956543	-0.210000	8.610000	-0.630000	264.00	-0.02	-0.01	3.00	3.25	3.25	4.00	1.50	0.00	0.00	0.00	1.00	1.25	1.25	0.50	1.50	2.00	0.50	0.50	-0.166016	0.064453	0.978516	-1.330000	-6.790000	2.590000	240.00	-0.11	-0.04
1.18	2.25	3.00	2.50	4.25	1.50	0.50	0.50	0.00	1.50	0.50	1.00	0.50	1.00	5.75	0.50	0.50	-0.225586	0.060547	0.954102	-0.350000	8.330000	-0.490000	261.00	-0.04	-0.01	3.25	3.25	3.25	4.25	1.75	0.00	0.00	0.00	0.75	1.25	1.25	0.50	1.75	2.00	0.25	0.50	-0.161621	0.068848	0.978027	-1.610000	-6.510000	2.590000	244.00	-0.12	-0.05
1.19	2.00	3.00	2.50	4.25	1.50	0.75	0.50	0.00	1.50	0.25	0.75	0.25	1.00	5.25	0.25	0.50	-0.225586	0.061523	0.948242	-0.490000	7.910000	-0.490000	246.00	-0.05	-0.01	3.25	3.50	3.50	5.00	1.75	0.25	0.00	0.00	0.75	1.25	1.00	0.25	1.75	1.75	0.25	0.50	-0.166992	0.064941	0.979980	-1.960000	-6.160000	2.590000	253.00	-0.14	-0.06
1.20	2.00	3.75	2.50	4.50	1.25	0.75	0.50	0.00	1.50	0.00	0.50	0.50	1.00	5.00	0.50	0.50	-0.224121	0.061523	0.948242	-0.840000	7.490000	-0.490000	251.00	-0.07	-0.02	3.25	3.25	3.50	4.50	1.75	0.00	0.00	0.00	0.75	0.75	1.00	0.50	1.25	1.75	0.50	0.50	-0.165527	0.067383	0.975586	-2.170000	-4.970000	2.310000	238.00	-0.14	-0.05
1.21	2.50	3.75	2.75	4.75	1.25	0.75	0.50	0.00	1.25	0.00	0.50	0.25	1.00	5.00	0.50	0.25	-0.222168	0.063477	0.952637	-1.120000	6.860000	-0.420000	255.00	-0.09	-0.02	3.50	3.75	3.75	4.75	1.75	0.00	0.00	0.00	0.75	1.25	1.00	0.50	1.50	1.75	0.50	0.50	-0.163086	0.063965	0.975098	-2.100000	-4.270000	2.450000	258.00	-0.14	-0.05
1.22	2.75	4.00	3.00	5.00	1.50	0.75	0.50	0.00	1.25	0.00	0.25	0.25	0.50	5.00	0.25	0.25	-0.217773	0.059570	0.945801	-1.190000	6.300000	-0.350000	258.00	-0.11	-0.01	3.50	3.75	3.50	4.75	1.75	0.00	0.00	0.00	0.50	0.75	1.00	0.25	1.50	2.00	0.25	0.50	-0.162598	0.062012	0.976562	-1.890000	-3.570000	2.450000	244.00	-0.16	-0.05
1.23	2.75	4.75	3.25	5.25	1.25	1.00	0.50	0.00	1.00	0.00	0.00	0.00	0.75	4.50	0.25	0.25	-0.221191	0.060059	0.953125	-1.540000	4.620000	-0.070000	260.00	-0.14	-0.03	3.50	4.00	3.75	5.00	1.75	0.00	0.00	0.00	0.75	0.75	1.00	0.50	1.50	1.75	0.50	0.50	-0.158691	0.065918	0.983398	-1.540000	-2.520000	2.450000	258.00	-0.15	-0.05
1.24	3.00	4.75	3.25	5.25	1.50	1.00	0.50	0.00	0.50	0.00	0.00	0.00	0.25	4.25	0.50	0.25	-0.222168	0.058105	0.950195	-2.100000	3.710000	-0.070000	255.00	-0.16	-0.03	3.25	3.00	3.50	4.50	1.75	0.00	0.00	0.00	0.50	1.00	0.75	0.25	1.25	1.75	0.50	0.50	-0.160645	0.063477	0.981934	-0.910000	-1.400000	2.310000	230.00	-0.15	-0.04
1.25	3.25	5.00	3.50	5.50	1.50	0.75	0.50	0.00	0.50	0.00	0.00	0.00	0.50	4.50	0.25	0.25	-0.216309	0.062012	0.945801	-2.660000	2.940000	-0.070000	264.00	-0.16	-0.03	3.25	3.50	3.25	4.25	1.50	0.00	0.00	0.00	0.25	1.25	0.75	0.25	1.50	1.75	0.50	0.50	-0.164062	0.066895	0.983398	-0.420000	0.770000	2.100000	228.00	-0.15	-0.05
1.26	3.50	5.25	3.75	6.00	1.75	1.00	0.50	0.00	1.00	0.00	0.00	0.00	0.50	4.00	0.25	0.25	-0.218262	0.060547	0.940430	-3.290000	1.960000	0.000000	285.00	-0.17	-0.03	3.00	3.00	2.75	3.75	1.50	0.00	0.00	0.00	0.75	1.00	1.00	0.50	1.25	1.75	0.50	0.50	-0.164551	0.072266	0.989746	0.070000	3.780000	1.750000	217.00	-0.12	-0.05
1.27	4.00	5.75	4.00	6.00	1.75	1.00	0.50	0.00	0.75	0.00	0.00	0.00	0.25	4.25	0.25	0.25	-0.213867	0.057617	0.947754	-3.780000	1.400000	0.000000	295.00	-0.18	-0.03	2.25	2.50	2.50	3.25	1.25	0.00	0.00	0.00	0.50	1.00	1.00	0.50	1.25	2.00	0.75	0.50	-0.166016	0.066406	0.984863	0.630000	7.280000	1.330000	195.00	-0.09	-0.05
1.28	4.25	6.75	4.50	7.00	1.75	1.25	0.50	0.00	0.75	0.00	0.00	0.00	0.50	3.75	0.25	0.25	-0.223633	0.060059	0.948730	-4.270000	0.490000	-0.070000	324.00	-0.20	-0.04	1.75	2.25	2.00	2.75	1.00	0.00	0.00	0.00	0.75	1.25	1.25	0.50	1.25	1.75	0.50	0.50	-0.168457	0.071777	0.985352	1.050000	11.340000	0.910000	177.00	-0.06	-0.05
1.29	4.75	7.50	4.75	7.75	1.75	1.50	0.50	0.00	1.00	0.00	0.00	0.00	0.50	4.00	0.25	0.25	-0.215820	0.062500	0.948242	-4.620000	-0.630000	-0.140000	355.00	-0.20	-0.04	1.25	1.50	1.25	2.00	1.00	0.00	0.00	0.00	0.75	1.00	1.00	0.25	1.25	1.75	0.50	0.50	-0.184570	0.074707	0.981445	1.260000	15.890000	0.280000	141.00	-0.02	-0.04
1.30	5.50	8.25	5.50	8.50	2.00	1.50	0.50	0.00	0.75	0.00	0.00	0.00	0.50	4.00	0.25	0.00	-0.216797	0.061035	0.947266	-4.900000	-2.030000	-0.070000	384.00	-0.22	-0.04	0.75	1.00	1.00	1.25	0.75	0.00	0.00	0.00	0.50	1.00	1.00	0.50	1.25	1.75	0.25	0.50	-0.155762	0.100586	1.028320	0.280000	21.210001	-0.840000	114.00	0.02	-0.05
1.31	6.25	9.50	6.00	9.25	2.25	2.00	0.50	0.00	1.00	0.00	0.00	0.00	0.25	3.25	0.25	0.25	-0.215820	0.057129	0.949707	-5.670000	-3.360000	-0.140000	422.00	-0.23	-0.05	0.50	0.75	0.75	0.75	0.25	0.00	0.00	0.00	0.50	1.00	0.75	0.00	1.00	1.50	0.50	0.50	-0.160156	0.077148	1.023438	-1.050000	27.160000	-2.660000	86.00	0.07	-0.03
1.32	7.50	11.00	6.50	9.75	2.50	2.00	0.50	0.00	1.00	0.00	0.00	0.00	0.50	3.50	0.00	0.25	-0.209961	0.060547	0.952637	-6.230000	-4.410000	-0.140000	464.00	-0.24	-0.05	0.25	0.50	0.25	0.75	0.25	0.00	0.00	0.00	0.75	1.00	1.00	0.25	1.00	1.50	0.25	0.50	-0.155273	0.125977	1.044434	-4.970000	34.790001	-6.020000	81.00	0.13	-0.04
1.33	8.50	12.50	7.50	11.00	2.50	2.50	0.75	0.00	0.75	0.00	0.00	0.00	0.50	3.50	0.50	0.25	-0.207031	0.060547	0.951660	-6.650000	-5.180000	-0.070000	524.00	-0.25	-0.05	0.00	0.00	0.00	0.50	0.00	0.00	0.00	0.00	0.25	1.00	0.50	0.25	0.50	1.25	0.50	0.50	-0.123047	0.044922	1.014160	-24.850000	53.410000	-13.930000	50.00	0.00	0.00
1.34	9.00	13.75	8.00	12.25	2.75	2.75	0.75	0.25	0.75	0.00	0.00	0.00	0.75	3.75	0.00	0.25	-0.205078	0.061523	0.952148	-7.350000	-5.670000	-0.350000	568.00	-0.25	-0.06	0.00	0.25	0.00	0.00	0.00	0.00	0.00	0.00	0.25	0.75	0.50	0.00	0.50	1.25	0.25	0.50	-0.215332	-0.090820	1.107910	-41.299999	68.809998	-18.340000	39.00	0.00	0.00
1.35	9.75	16.25	8.50	13.50	3.00	3.00	0.75	0.00	1.00	0.00	0.00	0.00	0.75	3.75	0.00	0.25	-0.208008	0.051758	0.952637	-8.190000	-5.880000	-0.700000	623.00	-0.26	-0.06	0.00	0.00	0.00	0.00	0.00	0.00	0.00	0.00	0.00	0.50	0.25	0.00	0.25	1.25	0.25	0.00	-0.195312	0.245605	1.131348	-26.670000	121.309998	-18.059999	23.00	0.00	0.00
1.36	11.25	17.50	9.00	14.75	3.50	3.50	0.75	0.25	1.00	0.25	0.00	0.00	0.75	3.75	0.00	0.25	-0.194824	0.056152	0.957031	-8.680000	-5.530000	-1.120000	687.00	-0.26	-0.06	0.00	0.00	0.00	0.00	0.00	0.00	0.00	0.00	0.00	0.25	0.00	0.00	0.00	0.75	0.00	0.00	-0.278809	0.141113	1.187988	-26.460001	152.600006	-25.969999	9.00	0.00	0.00
1.37	13.00	19.00	9.50	15.50	4.00	4.00	0.75	0.25	1.00	0.00	0.00	0.00	0.75	3.75	0.25	0.25	-0.200684	0.056641	0.962402	-8.610000	-4.550000	-1.330000	744.00	-0.26	-0.06	0.00	0.00	0.00	0.00	0.00	0.00	0.00	0.00	0.00	0.25	0.00	0.00	0.00	0.50	0.00	0.00	-0.278809	0.141113	1.187988	-26.460001	152.600006	-25.969999	7.00	0.00	0.00
1.38	14.00	20.25	10.25	17.00	4.50	4.25	0.75	0.25	1.00	0.00	0.00	0.00	0.75	4.00	0.25	0.25	-0.202637	0.054199	0.963379	-8.400000	-3.640000	-1.540000	801.00	-0.27	-0.06	0.00	0.00	0.00	0.00	0.00	0.00	0.00	0.00	0.00	0.00	0.00	0.00	0.00	0.25	0.00	0.00	-0.251953	0.212402	1.196289	-32.410000	150.850006	-38.220001	2.00	0.00	0.00
1.39	14.75	21.25	10.25	17.00	5.00	4.75	0.75	0.25	1.25	0.25	0.00	0.00	0.75	4.25	0.50	0.25	-0.193359	0.056152	0.955078	-7.840000	-2.380000	-1.890000	839.00	-0.26	-0.06	0.00	0.00	0.00	0.00	0.00	0.00	0.00	0.00	0.00	0.00	0.00	0.00	0.00	0.00	0.00	0.00	-0.231934	0.340332	1.147461	-31.080000	147.000000	-46.619999	0.00	0.00	0.00
1.40	15.75	22.00	11.00	17.50	5.25	4.75	0.75	0.25	1.50	0.25	0.00	0.00	0.75	4.25	0.50	0.25	-0.190918	0.050293	0.953125	-7.350000	-1.190000	-2.030000	876.00	-0.26	-0.06	0.00	0.00	0.00	0.00	0.00	0.00	0.00	0.00	0.00	0.00	0.00	0.00	0.00	0.00	0.00	0.00	0.028320	0.271484	1.429199	-19.040001	129.289993	-58.380001	0.00	0.00	0.00
1.41	16.00	23.25	11.25	18.00	5.25	4.75	0.75	0.25	2.00	0.25	0.00	0.00	0.75	4.00	0.25	0.25	-0.194824	0.048340	0.963379	-6.650000	0.070000	-2.170000	900.00	-0.26	-0.06	0.00	0.00	0.00	0.00	0.00	0.00	0.00	0.00	0.00	0.00	0.00	0.00	0.00	0.00	0.00	0.00	0.912598	0.404785	1.527344	-20.510000	96.669998	-65.660004	0.00	0.00	0.00
1.42	16.25	22.75	11.75	18.25	5.50	4.75	0.75	0.25	1.50	0.50	0.00	0.00	1.00	4.25	0.25	0.00	-0.194824	0.046875	0.957520	-5.810000	1.400000	-2.240000	908.00	-0.26	-0.06	0.00	0.00	0.00	0.00	0.00	0.00	0.00	0.00	0.00	0.00	0.00	0.00	0.00	0.00	0.00	0.00	1.056641	0.536621	1.703613	-26.530001	54.810001	-61.740002	0.00	0.00	0.00
1.43	17.00	24.00	11.75	18.75	6.00	5.00	0.75	0.25	2.00	0.25	0.00	0.00	0.75	4.00	0.50	0.25	-0.192383	0.047852	0.965820	-5.040000	2.730000	-2.100000	945.00	-0.26	-0.06	0.00	0.00	0.00	0.00	0.00	0.00	0.00	0.00	0.00	0.00	0.00	0.00	0.00	0.00	0.00	0.00	0.988281	0.761719	1.366211	-21.559999	21.910000	-43.959999	0.00	0.00	0.00
1.44	17.75	24.25	12.25	18.75	6.00	5.25	0.75	0.25	2.00	0.50	0.00	0.00	0.50	4.00	0.25	0.25	-0.193359	0.046875	0.959961	-3.220000	5.390000	-1.680000	961.00	-0.26	-0.05	0.00	0.00	0.00	0.00	0.00	0.00	0.00	0.00	0.00	0.00	0.00	0.00	0.00	0.00	0.00	0.00	1.033203	0.581055	0.989746	2.030000	-3.640000	-31.920000	0.00	0.00	0.00
1.45	17.00	24.00	12.00	18.50	6.00	5.25	0.75	0.50	2.00	0.25	0.00	0.00	0.75	3.75	0.50	0.25	-0.190430	0.048828	0.965332	-2.170000	6.860000	-1.470000	949.00	-0.26	-0.06	0.00	0.00	0.00	0.00	0.00	0.00	0.00	0.00	0.00	0.00	0.00	0.00	0.00	0.00	0.00	0.00	0.987305	0.437988	0.980957	23.309999	-17.150000	-25.969999	0.00	0.00	0.00
1.46	16.50	24.25	12.25	18.50	6.00	5.25	0.75	0.25	2.00	0.75	0.00	0.00	0.50	4.25	0.25	0.25	-0.192871	0.044922	0.958008	-1.470000	7.700000	-1.330000	950.00	-0.26	-0.05	0.00	0.25	0.00	0.00	0.00	0.00	0.00	0.00	0.00	0.00	0.00	0.00	0.00	0.00	0.00	0.00	0.987305	0.372070	1.115723	34.090000	-29.540001	-20.230000	2.00	0.00	0.00
1.47	16.75	23.75	12.25	18.50	6.00	5.25	0.75	0.25	1.75	0.50	0.00	0.00	0.75	4.25	0.25	0.25	-0.200195	0.046387	0.957520	-0.770000	7.980000	-1.190000	945.00	-0.26	-0.05	0.00	0.00	0.00	0.00	0.00	0.00	0.00	0.00	0.00	0.00	0.00	0.00	0.00	0.00	0.00	0.00	0.946777	0.345703	1.128418	42.000000	-46.970001	-14.350000	0.00	0.00	0.00
1.48	16.25	23.00	11.75	18.25	6.00	5.25	0.75	0.25	1.75	0.75	0.00	0.00	0.75	4.25	0.25	0.25	-0.198730	0.046387	0.965332	-0.280000	8.610000	-1.190000	927.00	-0.26	-0.05	0.00	0.00	0.00	0.00	0.00	0.00	0.00	0.00	0.00	0.00	0.00	0.00	0.00	0.00	0.00	0.00	0.864746	0.237305	1.108887	52.709999	-63.000000	-9.590000	0.00	0.00	0.00
1.49	15.75	22.75	11.50	17.75	5.75	5.00	0.75	0.25	1.75	0.50	0.00	0.00	0.75	3.75	0.50	0.50	-0.197266	0.049805	0.951660	0.070000	8.750000	-1.050000	903.00	-0.26	-0.06	0.00	0.00	0.00	0.00	0.00	0.00	0.00	0.00	0.00	0.00	0.00	0.00	0.00	0.00	0.00	0.00	0.784668	0.140137	1.125000	59.709999	-76.019997	-5.740000	0.00	0.00	0.00
1.50	15.50	23.00	11.50	17.75	5.75	5.00	0.75	0.25	2.25	0.50	0.00	0.00	0.75	4.50	0.50	0.25	-0.192383	0.052246	0.957520	0.140000	8.190000	-0.910000	914.00	-0.25	-0.05	0.00	0.00	0.00	0.00	0.00	0.00	0.00	0.00	0.00	0.00	0.00	0.00	0.00	0.00	0.00	0.00	0.703125	0.074219	1.148438	60.970001	-87.500000	-1.680000	0.00	0.00	0.00
1.51	14.75	21.75	11.50	17.25	5.75	5.00	0.75	0.25	2.00	0.50	0.00	0.00	0.75	4.25	0.50	0.50	-0.191895	0.051270	0.958008	-0.000000	7.840000	-1.050000	885.00	-0.25	-0.05	0.00	0.00	0.00	0.00	0.00	0.00	0.00	0.00	0.00	0.00	0.00	0.00	0.00	0.00	0.00	0.00	0.596191	0.021484	1.133301	59.150002	-96.879997	2.800000	0.00	0.00	0.00
1.52	14.25	21.25	11.00	17.25	5.75	5.00	0.75	0.25	2.00	0.50	0.25	0.00	0.75	4.00	0.50	0.25	-0.190430	0.051270	0.955078	-0.140000	7.280000	-1.190000	869.00	-0.25	-0.06	0.00	0.00	0.00	0.00	0.00	0.00	0.00	0.00	0.00	0.00	0.00	0.00	0.00	0.00	0.00	0.00	0.481445	-0.034668	1.097656	55.439999	-102.199997	6.720000	0.00	0.00	0.00
1.53	13.75	21.00	10.50	16.75	5.75	5.00	0.75	0.25	2.25	0.75	0.50	0.00	1.00	4.00	0.50	0.25	-0.193848	0.046875	0.953613	-0.700000	6.440000	-1.400000	861.00	-0.24	-0.06	0.00	0.00	0.00	0.00	0.00	0.00	0.00	0.00	0.00	0.00	0.00	0.00	0.00	0.00	0.00	0.00	0.370605	-0.054688	1.073730	50.189999	-103.529999	10.360000	0.00	0.00	0.00
1.54	13.00	20.00	10.75	16.50	5.50	5.00	0.75	0.25	2.00	0.75	0.25	0.00	1.00	4.25	0.50	0.50	-0.197266	0.050781	0.954590	-0.840000	5.740000	-1.330000	839.00	-0.24	-0.06	0.00	0.00	0.00	0.00	0.00	0.00	0.00	0.00	0.00	0.00	0.00	0.00	0.00	0.00	0.00	0.00	0.260254	-0.059082	1.075684	43.680000	-101.500000	13.580000	0.00	0.00	0.00
1.55	12.50	19.50	10.50	16.25	5.50	5.00	0.75	0.25	2.50	1.00	0.25	0.25	1.00	4.25	0.25	0.50	-0.200684	0.046875	0.958008	-1.050000	5.530000	-1.470000	833.00	-0.23	-0.05	0.00	0.00	0.00	0.00	0.00	0.00	0.00	0.00	0.00	0.00	0.00	0.00	0.00	0.00	0.00	0.00	0.172363	-0.064453	1.101562	36.259998	-97.930000	16.590000	0.00	0.00	0.00
1.56	11.75	18.75	10.50	15.75	5.50	5.00	0.75	0.25	2.50	1.00	0.50	0.00	1.00	4.75	0.75	0.50	-0.196777	0.049805	0.952637	-1.260000	5.040000	-1.540000	822.00	-0.22	-0.05	0.00	0.00	0.00	0.00	0.00	0.00	0.00	0.00	0.00	0.00	0.00	0.00	0.00	0.00	0.00	0.00	-0.092773	-0.064941	1.089355	28.630001	-89.389999	22.120001	0.00	0.00	0.00
1.57	11.25	18.00	10.25	15.75	5.50	5.00	0.75	0.50	2.50	1.00	0.50	0.50	1.25	4.50	0.50	0.75	-0.194336	0.049805	0.952148	-1.540000	4.690000	-1.680000	815.00	-0.22	-0.06	0.00	0.00	0.00	0.00	0.00	0.00	0.00	0.00	0.00	0.00	0.00	0.00	0.00	0.00	0.00	0.00	-0.092773	-0.064941	1.089355	28.630001	-89.389999	22.120001	0.00	0.00	0.00
1.58	11.25	17.75	10.00	15.50	5.75	5.25	0.75	0.50	2.75	1.25	0.75	0.50	1.25	4.75	0.75	0.50	-0.190430	0.048828	0.954590	-1.820000	3.850000	-1.820000	825.00	-0.21	-0.06	0.00	0.00	0.00	0.00	0.00	0.00	0.00	0.00	0.00	0.00	0.00	0.00	0.00	0.00	0.00	0.00	-0.212402	-0.097168	1.057617	28.210001	-81.550003	22.889999	0.00	0.00	0.00
1.59	10.75	17.00	9.75	15.25	5.75	5.25	0.75	0.50	3.00	1.25	1.25	0.75	1.50	5.00	0.75	0.50	-0.196289	0.047363	0.950195	-1.960000	3.640000	-2.030000	822.00	-0.20	-0.06	0.00	0.00	0.00	0.00	0.00	0.00	0.00	0.00	0.00	0.00	0.00	0.00	0.00	0.00	0.00	0.00	-0.401855	-0.074219	1.247070	28.000000	-68.389999	21.210001	0.00	0.00	0.00
1.60	10.50	16.75	10.00	15.00	6.00	5.50	0.75	0.50	3.25	1.50	1.25	1.00	1.50	5.00	0.75	0.75	-0.194824	0.053223	0.957520	-1.820000	3.780000	-2.240000	833.00	-0.19	-0.05	0.00	0.00	0.00	0.00	0.00	0.00	0.00	0.00	0.00	0.00	0.00	0.00	0.00	0.00	0.00	0.00	-0.464844	-0.103027	1.299805	29.540001	-70.489998	20.719999	0.00	0.00	0.00
1.61	9.75	16.50	9.75	15.00	6.00	5.50	0.75	0.50	3.25	2.00	1.25	1.25	1.75	5.25	0.75	0.75	-0.187500	0.050781	0.957031	-1.820000	3.990000	-2.240000	832.00	-0.18	-0.06	0.00	0.00	0.00	0.00	0.00	0.00	0.00	0.00	0.00	0.00	0.00	0.00	0.00	0.00	0.00	0.00	-0.561035	-0.148438	1.316895	29.330000	-76.440002	20.230000	0.00	0.00	0.00
1.62	9.50	15.50	9.75	14.25	5.75	5.50	0.75	0.50	3.75	2.00	1.50	1.25	1.75	5.50	0.75	0.75	-0.190430	0.046875	0.961426	-2.170000	4.410000	-2.310000	821.00	-0.17	-0.05	0.00	0.00	0.00	0.00	0.00	0.00	0.00	0.00	0.00	0.00	0.00	0.00	0.00	0.00	0.00	0.00	-0.651855	-0.209473	1.241211	27.370001	-83.440002	18.620001	0.00	0.00	0.00
1.63	9.00	15.00	9.50	14.25	5.75	5.50	0.75	0.75	3.75	2.50	1.75	1.50	2.00	5.50	1.25	1.00	-0.190430	0.046875	0.961426	-2.170000	4.410000	-2.310000	831.00	-0.15	-0.06	0.00	0.00	0.00	0.00	0.00	0.00	0.00	0.00	0.00	0.00	0.00	0.00	0.00	0.00	0.00	0.00	-0.734863	-0.256348	1.133301	24.850000	-87.989998	15.120000	0.00	0.00	0.00
1.64	8.75	14.00	9.25	13.75	6.00	5.50	0.75	0.75	4.25	2.50	2.25	1.75	2.00	5.75	1.25	1.00	-0.190918	0.047363	0.955566	-2.310000	4.620000	-2.380000	831.00	-0.14	-0.05	0.00	0.75	0.00	0.00	0.00	0.00	0.00	0.00	0.00	0.00	0.00	0.00	0.00	0.00	0.00	0.00	-0.803711	-0.253418	1.041992	23.660000	-89.040001	10.360000	7.00	0.00	0.00
1.65	8.75	13.00	9.25	13.25	5.75	5.50	0.75	0.75	4.50	3.00	2.25	2.00	2.25	6.25	1.00	1.25	-0.190430	0.047852	0.952148	-2.310000	4.970000	-2.520000	829.00	-0.13	-0.05	0.00	0.00	0.00	0.00	0.00	0.00	0.00	0.00	0.00	0.00	0.00	0.00	0.00	0.00	0.00	0.00	-0.856934	-0.254883	0.946289	21.980000	-87.010002	5.950000	0.00	0.00	0.00
1.66	8.00	12.00	9.00	13.25	6.00	5.50	0.75	0.75	4.75	3.25	3.00	2.50	2.25	7.00	1.00	1.25	-0.192383	0.046875	0.953125	-0.840000	6.790000	-2.310000	838.00	-0.11	-0.05	0.00	0.00	0.00	0.00	0.00	0.00	0.00	0.00	0.00	0.00	0.00	0.00	0.00	0.00	0.00	0.00	-0.908203	-0.277344	0.863770	17.290001	-81.340004	1.330000	0.00	0.00	0.00
1.67	7.75	11.25	8.75	12.50	5.75	5.50	0.75	0.75	5.25	3.75	3.25	2.75	2.50	7.25	1.25	1.50	-0.186523	0.045410	0.960938	-0.000000	7.770000	-2.100000	840.00	-0.09	-0.05	0.00	0.00	0.00	0.00	0.00	0.00	0.00	0.00	0.00	0.00	0.00	0.00	0.00	0.00	0.00	0.00	-0.937500	-0.264648	0.831055	10.080000	-73.709999	-3.920000	0.00	0.00	0.00
1.68	7.25	10.50	8.50	12.00	5.75	5.50	0.75	1.00	5.25	4.25	4.00	3.25	3.00	7.75	1.25	1.50	-0.190918	0.043945	0.958008	1.050000	8.610000	-1.960000	850.00	-0.08	-0.05	0.00	0.00	0.00	0.00	0.00	0.00	0.00	0.00	0.00	0.00	0.00	0.00	0.00	0.00	0.00	0.00	-0.957031	-0.216797	0.794434	3.920000	-66.709999	-9.240000	0.00	0.00	0.00
1.69	6.50	9.50	8.00	11.25	5.50	5.25	0.75	1.00	5.50	4.75	5.25	3.75	3.00	8.25	1.50	1.75	-0.188477	0.049805	0.953125	2.240000	9.730000	-1.750000	849.00	-0.05	-0.05	0.00	0.00	0.00	0.00	0.00	0.00	0.00	0.00	0.00	0.00	0.00	0.00	0.00	0.00	0.00	0.00	-0.974121	-0.159180	0.732422	0.560000	-60.200001	-14.350000	0.00	0.00	0.00
1.70	6.00	8.75	7.75	10.75	5.50	5.00	0.75	1.00	6.00	5.25	6.00	5.00	3.50	8.50	1.75	1.75	-0.190918	0.049805	0.959961	3.360000	10.990000	-1.680000	868.00	-0.03	-0.05	0.00	0.00	0.00	0.00	0.00	0.00	0.00	0.00	0.00	0.00	0.00	0.00	0.00	0.00	0.00	0.00	-0.992676	-0.092773	0.674316	-0.280000	-52.849998	-18.900000	0.00	0.00	0.00
1.71	5.75	8.00	7.50	9.75	5.25	5.00	0.75	1.00	6.00	6.25	7.00	6.00	4.00	8.75	1.75	2.00	-0.193359	0.048340	0.959961	4.410000	12.040000	-1.750000	881.00	-0.01	-0.05	0.00	0.00	0.00	0.00	0.00	0.00	0.00	0.00	0.00	0.00	0.00	0.00	0.00	0.00	0.00	0.00	-0.976562	-0.046875	0.640137	1.610000	-45.150002	-22.889999	0.00	0.00	0.00
1.72	5.00	7.25	6.75	9.50	5.00	4.75	0.75	1.25	6.00	7.00	7.75	6.50	4.75	9.00	1.75	2.25	-0.195801	0.050781	0.961914	5.040000	13.720000	-1.960000	885.00	0.01	-0.06	0.00	0.00	0.00	0.00	0.00	0.00	0.00	0.00	0.00	0.00	0.00	0.00	0.00	0.00	0.00	0.00	-0.958496	-0.011230	0.643555	4.830000	-38.849998	-26.250000	0.00	0.00	0.00
1.73	4.50	6.75	6.00	8.75	4.75	4.25	0.75	1.00	6.75	7.50	8.25	7.00	5.25	9.50	2.00	2.25	-0.195312	0.056152	0.951660	5.250000	15.610000	-2.310000	883.00	0.03	-0.05	0.00	0.00	0.00	0.00	0.00	0.00	0.00	0.00	0.00	0.00	0.00	0.00	0.00	0.00	0.00	0.00	-0.937988	0.009277	0.623047	8.330000	-33.880001	-29.260000	0.00	0.00	0.00
1.74	3.50	6.00	5.25	8.25	4.25	3.75	0.75	1.00	7.50	8.00	8.75	7.75	5.50	9.75	2.00	2.50	-0.203125	0.061035	0.958984	5.250000	16.940001	-2.450000	875.00	0.06	-0.05	0.00	0.00	0.00	0.00	0.00	0.00	0.00	0.00	0.00	0.00	0.00	0.00	0.00	0.00	0.00	0.00	-0.922852	0.010742	0.635742	11.410000	-29.820000	-32.480000	0.00	0.00	0.00
1.75	3.50	5.50	5.25	7.50	3.25	3.25	0.50	1.00	7.75	8.50	9.25	8.25	6.00	10.25	2.50	3.00	-0.202637	0.062500	0.958984	5.390000	18.480000	-2.660000	877.00	0.07	-0.06	0.00	0.00	0.00	0.00	0.00	0.00	0.00	0.00	0.00	0.00	0.00	0.00	0.00	0.00	0.00	0.00	-0.907715	-0.028809	0.627930	11.410000	-26.320000	-36.259998	0.00	0.00	0.00
1.76	2.50	4.75	4.25	6.50	3.00	2.75	0.50	1.25	8.00	9.00	9.75	8.75	6.25	10.75	2.25	3.00	-0.200684	0.063477	0.959473	5.390000	20.790001	-3.080000	856.00	0.10	-0.06	0.00	0.00	0.00	0.00	0.00	0.00	0.00	0.00	0.00	0.00	0.00	0.00	0.00	0.00	0.00	0.00	-0.892090	-0.030762	0.651367	9.660000	-23.450001	-41.650002	0.00	0.00	0.00
1.77	2.00	3.50	3.25	5.75	2.50	2.50	0.50	1.00	8.25	9.25	10.25	9.25	6.75	11.50	2.50	3.50	-0.202148	0.068848	0.952148	5.460000	23.030001	-3.500000	841.00	0.13	-0.06	0.00	0.00	0.00	0.00	0.00	0.00	0.00	0.00	0.00	0.00	0.00	0.00	0.00	0.00	0.00	0.00	-0.852051	-0.003418	0.669434	9.940000	-22.400000	-48.090000	0.00	0.00	0.00
1.78	1.50	2.50	2.50	5.25	2.00	1.50	0.50	0.75	8.25	9.75	10.75	9.50	6.75	12.00	2.75	3.50	-0.208008	0.065430	0.956055	5.530000	25.270000	-3.710000	812.00	0.15	-0.05	0.00	0.00	0.00	0.00	0.00	0.00	0.00	0.00	0.00	0.00	0.00	0.00	0.00	0.00	0.00	0.00	-0.822754	0.040527	0.666504	13.720000	-23.030001	-61.529999	0.00	0.00	0.00
1.79	1.00	2.50	2.00	3.75	1.50	1.25	0.50	0.75	8.75	10.25	11.25	10.00	7.25	12.50	2.75	3.75	-0.216797	0.063477	0.961426	5.670000	27.440001	-4.340000	809.00	0.18	-0.05	0.00	0.00	0.00	0.00	0.00	0.00	0.00	0.00	0.00	0.00	0.00	0.00	0.00	0.00	0.00	0.00	-3.128906	-0.452637	-0.518555	-7.070000	-42.630001	-66.570000	0.00	0.00	0.00
1.80	0.25	1.50	1.00	2.75	1.25	1.00	0.50	0.75	8.75	10.50	11.75	10.50	7.50	13.25	3.00	4.00	-0.217285	0.062500	0.956543	5.460000	29.469999	-4.690000	790.00	0.21	-0.05	0.00	0.00	0.00	0.00	0.00	0.00	0.00	0.00	0.00	0.00	0.00	0.00	0.00	0.00	0.00	0.00	-0.996094	-0.009766	-0.586426	-56.840000	23.799999	-87.430000	0.00	0.00	0.00
1.81	0.25	1.25	0.75	2.00	1.00	0.25	0.25	0.75	9.00	11.00	12.00	11.00	7.50	13.50	2.75	4.00	-0.217285	0.067871	0.955566	5.530000	31.430000	-5.320000	778.00	0.22	-0.05	0.00	0.50	0.00	0.00	0.00	0.00	0.00	0.00	0.00	0.00	0.00	0.00	0.00	0.00	0.00	0.00	-0.612305	0.686035	1.960449	-48.299999	73.430000	-85.120003	5.00	0.00	0.00
1.82	0.00	1.25	0.75	2.00	0.75	0.25	0.25	0.50	9.25	11.50	12.50	11.50	8.00	14.00	3.00	4.25	-0.243164	0.065918	0.959961	5.390000	33.389999	-6.160000	801.00	0.23	-0.05	0.75	1.50	0.25	0.75	0.00	0.00	0.00	0.00	0.00	0.00	0.00	0.00	0.00	0.00	0.00	0.00	-0.082031	1.102539	1.232910	-22.680000	46.410000	-42.910000	33.00	0.00	0.00
1.83	0.25	0.50	0.75	1.25	0.25	0.00	0.00	0.25	9.25	11.75	12.75	11.75	8.00	14.50	3.50	4.25	-0.207031	0.050293	0.911133	4.060000	39.270000	-7.770000	790.00	0.24	-0.05	2.00	2.50	0.75	2.00	0.25	0.00	0.00	0.00	0.00	0.00	0.00	0.00	0.00	0.00	0.00	0.00	-0.249023	0.252441	1.011230	-15.470000	56.420002	-5.740000	77.00	-0.35	-0.07
1.84	0.25	0.50	0.25	0.75	0.50	0.25	0.00	0.25	9.75	12.25	13.00	11.75	7.75	15.00	3.25	4.25	-0.240234	0.036621	0.968262	-2.660000	42.770000	-10.220000	798.00	0.25	-0.04	3.50	4.00	1.00	2.25	0.25	0.00	0.00	0.00	0.00	0.00	0.00	0.00	0.00	0.00	0.00	0.00	-0.232422	0.172852	1.438477	-29.469999	84.000000	4.340000	112.00	-0.36	-0.06
1.85	0.00	0.00	0.00	0.75	0.25	0.00	0.00	0.25	9.75	12.50	13.00	12.00	7.75	15.25	3.75	4.25	-0.251465	0.061523	1.105957	-3.710000	57.610001	-6.300000	795.00	0.26	-0.04	4.50	4.75	1.25	3.25	0.00	0.00	0.00	0.00	0.00	0.00	0.00	0.00	0.00	0.00	0.00	0.00	-0.297852	0.017090	1.634277	-36.820000	71.750000	3.500000	140.00	-0.36	-0.06
1.86	0.00	0.25	0.00	0.25	0.25	0.00	0.00	0.25	10.00	12.75	13.25	11.75	7.25	15.75	4.00	4.00	-0.266602	0.055664	1.000977	3.500000	92.680000	-7.210000	799.00	0.26	-0.03	5.50	5.25	2.00	3.00	0.25	0.00	0.00	0.00	0.00	0.00	0.00	0.00	0.00	0.00	0.00	0.00	-0.217773	0.041504	1.152832	-35.770000	49.980000	-0.210000	163.00	-0.36	-0.04
1.87	0.00	0.00	0.00	0.25	0.00	0.00	0.00	0.00	10.00	13.00	13.00	11.50	6.75	16.00	3.75	3.75	-0.317383	0.071777	1.084473	-12.390000	156.240005	-13.090000	781.00	0.27	-0.03	6.75	5.75	2.50	3.75	0.25	0.00	0.00	0.00	0.00	0.00	0.00	0.00	0.00	0.00	0.00	0.00	-0.128418	0.143555	0.920898	-24.150000	45.709999	1.330000	195.00	-0.36	-0.04
1.88	0.00	0.00	0.00	0.00	0.00	0.00	0.00	0.00	10.25	13.25	12.75	11.00	6.25	16.50	4.25	4.00	-0.362305	0.070312	1.073242	-24.639999	180.389999	-15.540000	783.00	0.27	-0.02	7.00	5.75	2.75	4.50	0.25	0.00	0.00	0.00	0.00	0.00	0.00	0.00	0.00	0.00	0.00	0.00	-0.148438	0.102539	0.936523	-13.230000	48.090000	5.670000	208.00	-0.36	-0.04
1.89	0.00	0.75	0.00	0.00	0.00	0.00	0.00	0.00	10.50	13.50	12.25	10.00	5.75	17.00	5.00	3.75	-0.369141	0.070801	1.135254	-31.850000	202.649994	-18.410000	786.00	0.27	-0.01	8.25	6.50	3.25	5.25	0.50	0.00	0.00	0.00	0.00	0.00	0.00	0.00	0.00	0.00	0.00	0.00	-0.163574	0.080078	0.966797	-9.730000	48.369999	6.510000	245.00	-0.35	-0.04
1.90	0.00	0.00	0.00	0.00	0.00	0.00	0.00	0.00	10.75	13.50	11.75	9.25	5.00	16.75	4.25	3.50	-0.440430	0.083496	1.084961	-36.750000	222.320007	-22.400000	752.00	0.28	0.00	9.25	7.50	4.00	5.50	0.75	0.00	0.00	0.00	0.00	0.00	0.00	0.00	0.00	0.00	0.00	0.00	-0.187012	0.130859	1.020020	-8.540000	44.730000	6.020000	278.00	-0.35	-0.04
1.91	0.00	0.00	0.00	0.00	0.00	0.00	0.00	0.00	11.00	13.25	11.00	8.50	4.25	17.50	5.00	3.25	-0.457031	0.114746	1.201172	-45.639999	238.699997	-27.790001	743.00	0.28	0.01	10.00	8.25	4.50	6.00	0.75	0.00	0.00	0.00	0.00	0.00	0.00	0.00	0.00	0.00	0.00	0.00	-0.200195	0.105957	1.021484	-7.980000	39.970001	7.140000	304.00	-0.35	-0.04
1.92	0.00	0.50	0.00	0.00	0.00	0.00	0.00	0.00	11.00	13.25	10.25	7.25	3.25	17.25	4.75	3.00	-0.510742	0.107422	1.156738	-60.060001	257.739990	-34.020000	712.00	0.28	0.02	10.75	9.00	5.75	7.50	0.75	0.00	0.00	0.00	0.00	0.00	0.00	0.00	0.00	0.00	0.00	0.00	-0.192383	0.047852	0.980957	-5.810000	37.240002	7.210000	349.00	-0.35	-0.04
1.93	0.00	0.00	0.00	0.00	0.00	0.00	0.00	0.00	11.25	13.00	9.00	6.00	2.75	17.25	4.75	2.75	-0.568359	0.106445	1.205566	-72.379997	278.320007	-42.560001	676.00	0.29	0.04	12.00	10.00	6.75	8.00	1.00	0.00	0.00	0.00	0.00	0.00	0.00	0.00	0.00	0.00	0.00	0.00	-0.190918	0.042969	0.926758	-0.770000	36.959999	6.020000	390.00	-0.35	-0.04
1.94	0.00	0.25	0.00	0.00	0.00	0.00	0.00	0.00	11.25	12.50	8.00	5.00	1.50	17.00	4.25	2.00	-0.610840	0.074707	1.152832	-86.029999	301.000000	-52.150002	629.00	0.29	0.06	13.50	10.50	7.25	8.50	1.25	0.25	0.00	0.00	0.00	0.00	0.00	0.00	0.00	0.00	0.00	0.00	-0.187012	0.080078	0.762207	-19.110001	5.180000	4.480000	427.00	-0.34	-0.03
1.95	0.00	0.25	0.00	0.00	0.00	0.00	0.00	0.00	11.00	12.00	7.25	3.75	1.25	16.50	3.75	1.50	-0.640137	0.071777	1.152344	-101.010002	326.059998	-61.320000	585.00	0.29	0.07	14.50	11.25	7.75	9.25	1.25	0.00	0.00	0.00	0.00	0.00	0.00	0.00	0.00	0.00	0.00	0.00	-0.169434	0.061035	0.976562	-30.309999	-6.160000	2.450000	455.00	-0.35	-0.03
1.96	0.00	0.00	0.00	0.00	0.00	0.00	0.00	0.00	10.50	11.50	5.75	2.25	1.00	15.75	3.50	1.00	-0.684570	0.066895	1.249023	-114.520004	350.420013	-70.139999	526.00	0.30	0.09	14.75	12.00	8.25	9.50	1.50	0.25	0.00	0.00	0.00	0.00	0.00	0.00	0.00	0.00	0.00	0.00	-0.196777	0.068359	1.004395	-25.969999	-18.480000	2.310000	479.00	-0.34	-0.03
1.97	0.00	0.00	0.00	0.00	0.00	0.00	0.00	0.00	10.00	10.75	5.00	1.25	0.00	14.75	2.50	0.50	-0.823242	-0.022949	1.398926	-129.289993	370.929993	-79.029999	463.00	0.30	0.11	16.00	12.50	8.75	10.00	1.50	0.50	0.00	0.00	0.00	0.00	0.00	0.00	0.00	0.00	0.00	0.00	-0.196777	0.068359	1.004395	-25.969999	-18.480000	2.310000	510.00	-0.34	-0.03
1.98	0.00	0.25	0.00	0.00	0.00	0.00	0.00	0.00	8.75	10.00	3.75	1.00	0.00	13.50	1.75	0.25	-0.911621	0.171875	1.560547	-145.180008	385.000000	-88.269997	405.00	0.30	0.12	16.75	13.00	9.25	10.50	1.75	0.75	0.00	0.00	0.00	0.00	0.00	0.00	0.00	0.00	0.00	0.00	-0.197266	0.053711	1.043457	-21.559999	-20.160000	2.520000	539.00	-0.34	-0.03
1.99	0.00	0.00	0.00	0.00	0.00	0.00	0.00	0.00	7.75	9.25	3.25	0.50	0.00	12.25	0.75	0.25	-1.263672	0.158691	1.662109	-146.020004	388.989990	-99.540001	350.00	0.30	0.13	17.50	13.50	9.75	11.00	2.00	1.00	0.00	0.00	0.00	0.00	0.00	0.00	0.00	0.00	0.00	0.00	-0.173340	0.073242	0.972656	-9.940000	-22.820000	1.890000	568.00	-0.34	-0.04
2.00	0.00	0.00	0.00	0.00	0.00	0.00	0.00	0.00	7.00	8.50	2.50	0.25	0.00	11.00	0.50	0.25	-1.544922	0.192383	1.951172	-148.399994	384.510010	-112.559998	309.00	0.30	0.14	18.50	14.25	10.00	11.50	2.25	1.50	0.00	0.00	0.00	0.25	0.00	0.00	0.25	0.00	0.00	0.00	-0.172363	0.077148	0.978027	-8.470000	-22.330000	1.540000	606.00	-0.33	-0.04
2.01	0.50	0.00	0.00	0.00	0.00	0.00	0.00	0.00	5.75	8.00	1.75	0.25	0.00	9.75	0.00	0.25	-1.592773	0.183105	1.958008	-134.190002	366.239990	-126.070000	269.00	0.29	0.14	19.25	14.75	10.50	11.75	2.50	2.00	0.00	0.00	0.00	0.25	0.00	0.00	0.25	0.00	0.00	0.25	-0.166016	0.071777	0.988770	-7.210000	-21.280001	1.470000	636.00	-0.33	-0.04
2.02	0.00	0.00	0.00	0.00	0.00	0.00	0.00	0.00	5.25	7.00	1.75	0.00	0.00	8.25	0.50	0.25	-0.984375	0.763672	2.101074	-130.690002	342.790009	-138.110001	237.00	0.30	0.14	19.50	15.00	11.00	12.00	2.75	2.50	0.00	0.25	0.00	0.00	0.00	0.00	0.50	0.00	0.00	0.00	-0.155273	0.076660	0.965332	-6.020000	-20.510000	1.190000	660.00	-0.33	-0.04
2.03	0.00	0.00	0.00	0.00	0.00	0.00	0.00	0.00	3.75	5.00	1.00	0.00	0.00	6.00	0.25	0.25	-1.266602	0.400879	1.802734	-98.419998	297.360016	-143.710007	167.00	0.30	0.14	19.25	15.00	10.75	12.25	3.00	2.50	0.00	0.25	0.00	0.50	0.25	0.00	0.75	0.25	0.00	0.25	-0.155762	0.072754	0.975098	-4.830000	-19.950001	1.050000	673.00	-0.32	-0.05
2.04	0.00	0.00	0.00	0.00	0.00	0.00	0.00	0.00	2.75	3.00	0.50	0.00	0.00	2.25	0.00	0.00	-0.535645	0.644043	1.713867	-70.840004	247.169998	-145.320007	92.00	0.28	0.16	19.00	15.00	11.00	12.50	3.75	2.75	0.00	0.25	0.25	0.75	0.25	0.00	1.00	0.50	0.25	0.50	-0.151367	0.075684	0.984863	-4.060000	-17.500000	0.980000	701.00	-0.30	-0.05
2.05	0.00	0.00	0.00	0.00	0.00	0.00	0.00	0.00	2.75	2.25	0.25	0.00	0.00	0.25	0.00	0.00	0.108887	0.587402	1.638672	-43.330002	195.440002	-146.089996	64.00	0.25	0.18	18.50	14.50	11.25	12.50	4.50	3.25	0.00	0.50	0.25	0.50	0.50	0.00	1.25	0.50	0.25	0.50	-0.155273	0.074219	0.981934	-4.270000	-15.400000	0.700000	714.00	-0.29	-0.05
2.06	0.00	0.00	0.00	0.00	0.00	0.00	0.00	0.00	1.75	1.50	0.25	0.00	0.00	0.00	0.00	0.00	2.223145	1.454590	2.324707	-32.340000	137.899994	-143.430008	41.00	0.00	0.00	18.25	14.25	11.25	12.25	4.75	3.50	0.00	0.50	0.25	1.00	0.75	0.25	1.50	1.00	0.25	0.50	-0.152344	0.072754	0.979492	-4.550000	-14.000000	0.630000	729.00	-0.28	-0.05
2.07	0.00	0.75	0.00	0.00	0.00	0.00	0.00	0.00	1.75	0.75	0.25	0.00	0.00	0.25	0.00	0.00	1.400391	1.264648	2.371094	-26.250000	28.139999	-85.470001	42.00	0.00	0.00	17.25	13.75	11.25	12.25	5.25	4.00	0.00	0.75	1.00	1.00	1.25	0.50	2.00	1.00	0.50	0.75	-0.161621	0.076660	0.982910	-4.830000	-12.040000	0.490000	755.00	-0.25	-0.05
2.08	0.00	0.00	0.00	0.00	0.00	0.00	0.00	0.00	0.75	0.75	0.00	0.00	0.25	0.00	0.00	0.00	0.776855	0.743652	0.836426	-37.660000	-100.029999	18.270000	20.00	0.00	0.00	16.75	13.00	11.25	12.00	5.75	4.00	0.00	0.75	1.25	1.50	1.50	0.50	2.25	1.25	0.50	0.75	-0.152832	0.073730	0.987305	-4.760000	-9.730000	0.210000	761.00	-0.24	-0.05
2.09	0.00	0.00	0.00	0.00	0.00	0.00	0.00	0.00	0.50	1.00	0.00	0.00	0.00	0.00	0.00	0.00	0.576660	1.027832	0.873047	-44.240002	-90.230003	49.490002	17.00	0.00	0.00	16.00	12.50	10.75	11.75	5.75	4.00	0.00	1.00	1.75	1.75	1.50	1.00	2.50	1.75	0.75	1.25	-0.155762	0.072754	0.983887	-4.550000	-8.190000	0.210000	770.00	-0.22	-0.05
2.10	0.50	0.50	0.00	0.00	0.00	0.00	0.00	0.00	0.50	0.50	0.00	0.00	0.00	0.00	0.00	0.00	0.680176	0.906250	1.112305	-12.180000	-89.739998	69.510002	22.00	0.00	0.00	14.50	11.75	10.50	11.50	5.75	4.00	0.00	1.00	1.75	2.25	2.25	1.00	2.50	2.00	0.75	1.50	-0.152344	0.074219	0.985352	-4.060000	-6.160000	0.490000	759.00	-0.20	-0.06
2.11	0.00	0.00	0.00	0.00	0.00	0.00	0.00	0.00	0.50	0.25	0.00	0.00	0.00	0.00	0.00	0.00	0.667480	0.690918	1.356445	29.610001	-110.949997	76.790001	9.00	0.00	0.00	13.50	11.00	10.25	11.00	6.00	3.50	0.00	0.75	2.75	2.75	2.75	1.75	2.75	2.25	0.75	1.50	-0.152344	0.070801	0.991699	-3.150000	-3.990000	0.630000	762.00	-0.17	-0.05
2.12	0.00	0.25	0.00	0.00	0.00	0.00	0.00	0.00	0.00	0.25	0.00	0.00	0.00	0.00	0.00	0.00	0.641113	0.440918	1.477539	58.730000	-141.960007	77.559998	5.00	0.00	0.00	12.25	9.75	9.75	10.50	5.75	3.25	0.00	0.75	3.50	3.25	3.75	2.00	3.25	2.25	1.00	2.00	-0.149902	0.078613	0.983398	-2.240000	-2.380000	0.910000	759.00	-0.14	-0.05
2.13	0.00	0.00	0.00	0.00	0.00	0.00	0.00	0.00	0.00	0.25	0.00	0.00	0.00	0.00	0.00	0.00	0.575684	0.303223	1.481445	71.120003	-174.580002	75.459999	3.00	0.00	0.00	10.50	9.25	9.25	10.00	5.75	3.25	0.00	1.00	3.75	3.75	4.50	2.25	3.25	3.00	1.00	2.25	-0.151367	0.069336	0.992188	-1.190000	-0.840000	0.840000	756.00	-0.12	-0.05
2.14	0.00	0.00	0.00	0.00	0.00	0.00	0.00	0.00	0.25	0.25	0.00	0.00	0.00	0.00	0.00	0.00	0.465820	0.266113	1.461914	80.500000	-204.750000	70.279999	6.00	0.00	0.00	9.25	8.50	8.75	9.50	5.50	2.75	0.00	1.00	4.25	4.75	6.00	2.75	3.75	3.25	1.25	2.75	-0.154297	0.069824	0.990723	-0.070000	1.330000	0.980000	767.00	-0.09	-0.05
2.15	0.00	0.00	0.00	0.00	0.00	0.00	0.00	0.00	0.00	0.00	0.00	0.00	0.00	0.00	0.00	0.00	0.346680	0.188965	1.386719	95.129997	-230.229996	61.950001	0.00	0.00	0.00	8.00	7.75	8.00	8.75	5.00	2.25	0.00	0.75	5.25	5.50	7.50	3.25	4.25	3.75	1.25	2.75	-0.155762	0.073730	0.987793	1.260000	3.500000	1.330000	766.00	-0.05	-0.05
2.16	0.00	0.00	0.00	0.00	0.00	0.00	0.00	0.00	0.25	0.00	0.00	0.00	0.00	0.00	0.00	0.00	0.218750	0.101562	1.301758	112.559998	-249.690002	52.709999	3.00	0.00	0.00	7.00	6.75	7.50	8.00	4.75	2.00	0.00	0.75	6.00	6.75	8.25	3.75	4.25	4.50	1.50	3.00	-0.148926	0.069336	0.994141	2.310000	5.670000	1.680000	773.00	-0.02	-0.04
2.17	0.00	0.00	0.00	0.00	0.00	0.00	0.00	0.00	0.00	0.00	0.00	0.00	0.00	0.00	0.00	0.00	0.099121	0.012695	1.245605	125.230003	-262.570007	44.730000	0.00	0.00	0.00	5.75	5.75	6.50	7.50	4.00	1.50	0.00	0.75	6.25	7.75	8.75	4.75	5.00	5.00	1.75	3.25	-0.162598	0.062012	0.982422	3.430000	7.700000	1.890000	765.00	0.02	-0.05
2.18	0.00	0.00	0.00	0.00	0.00	0.00	0.00	0.00	0.00	0.00	0.00	0.00	0.00	0.00	0.00	0.00	-0.031250	-0.039062	1.219727	129.850006	-269.779999	40.250000	0.00	0.00	0.00	4.50	5.25	5.75	6.75	3.50	1.00	0.00	0.75	7.00	8.25	9.50	5.00	5.00	5.50	1.75	4.00	-0.154785	0.072266	0.987305	4.270000	9.870000	2.030000	754.00	0.05	-0.05
2.19	0.50	0.00	0.00	0.00	0.00	0.00	0.00	0.00	0.00	0.00	0.00	0.00	0.00	0.00	0.00	0.00	-0.134277	-0.054688	1.224121	126.770004	-273.279999	39.970001	5.00	0.00	0.00	3.50	4.50	5.00	5.25	2.75	0.75	0.00	0.75	7.00	8.75	10.00	6.00	5.00	6.25	2.00	4.25	-0.145020	0.068359	0.987305	5.460000	14.840000	1.470000	732.00	0.08	-0.05
2.20	0.00	0.00	0.00	0.00	0.00	0.00	0.00	0.00	0.00	0.00	0.00	0.00	0.00	0.00	0.00	0.00	-0.212891	-0.050293	1.273438	119.139999	-274.679993	41.930000	0.00	0.00	0.00	2.50	2.50	3.50	4.75	2.50	0.00	0.00	0.50	7.50	9.25	10.50	7.25	5.25	7.00	2.25	5.00	-0.161621	0.078613	0.981934	5.670000	16.379999	1.190000	712.00	0.13	-0.05
2.21	0.00	0.00	0.00	0.00	0.00	0.00	0.00	0.00	0.00	0.00	0.00	0.00	0.00	0.00	0.00	0.00	-0.292969	-0.012207	1.345703	113.820000	-275.450012	44.660000	0.00	0.00	0.00	1.25	2.00	2.50	3.25	2.00	0.00	0.00	0.25	7.50	9.50	11.00	7.75	5.50	7.25	2.50	5.25	-0.173828	0.078125	0.983398	5.600000	17.780001	0.980000	679.00	0.17	-0.05
2.22	0.00	0.00	0.00	0.00	0.00	0.00	0.00	0.00	0.00	0.00	0.00	0.00	0.00	0.00	0.00	0.00	-0.376465	-0.009277	1.427246	115.989998	-276.640015	45.990002	0.00	0.00	0.00	1.00	1.00	1.50	2.25	1.50	0.00	0.00	0.25	7.75	10.25	11.50	8.25	5.75	8.00	2.50	5.50	-0.170898	0.083008	0.985840	4.760000	19.040001	0.490000	671.00	0.20	-0.05
2.23	0.00	0.00	0.00	0.00	0.00	0.00	0.00	0.00	0.00	0.00	0.00	0.00	0.00	0.00	0.00	0.00	-0.492676	-0.026855	1.493652	122.430000	-277.829987	45.080002	0.00	0.00	0.00	0.25	1.00	1.25	1.50	1.00	0.00	0.00	0.25	8.00	10.50	12.00	8.50	6.00	8.50	2.75	5.50	-0.188477	0.078125	0.976074	3.850000	20.930000	-0.210000	670.00	0.22	-0.05
2.24	0.00	0.00	0.00	0.00	0.00	0.00	0.00	0.00	0.00	0.00	0.00	0.00	0.00	0.00	0.00	0.00	-0.636230	-0.038086	1.470215	125.860001	-277.899994	42.910000	0.00	0.00	0.00	0.00	0.00	0.50	1.00	0.75	0.00	0.00	0.25	8.25	10.75	12.25	9.00	6.00	9.25	2.75	5.75	-0.215332	0.104980	0.977051	2.870000	22.469999	-1.260000	663.00	0.24	-0.05
2.25	0.00	0.00	0.00	0.00	0.00	0.00	0.00	0.00	0.00	0.00	0.00	0.00	0.00	0.00	0.00	0.00	-0.788086	-0.026855	1.393066	124.669998	-272.860016	41.439999	0.00	0.00	0.00	0.00	0.25	0.50	0.50	0.25	0.00	0.00	0.00	8.50	11.50	12.75	9.25	6.25	9.75	3.25	6.00	-0.203125	0.109375	0.948242	-0.700000	25.200001	-3.570000	682.00	0.25	-0.04
2.26	0.00	0.25	0.00	0.00	0.00	0.00	0.00	0.00	0.00	0.00	0.00	0.00	0.00	0.00	0.00	0.00	-1.001953	0.064453	1.289551	107.660004	-237.860001	41.580002	2.00	0.00	0.00	0.00	0.25	0.25	0.25	0.25	0.00	0.00	0.25	9.00	11.75	13.00	9.25	6.25	10.75	3.25	6.25	-0.181152	0.091797	0.982910	-3.640000	27.160000	-5.180000	702.00	0.26	-0.04
2.27	0.00	0.00	0.00	0.00	0.00	0.00	0.00	0.00	0.00	0.00	0.00	0.00	0.00	0.00	0.00	0.00	-1.001953	0.064453	1.289551	107.660004	-237.860001	41.580002	0.00	0.00	0.00	0.00	0.25	0.00	0.25	0.25	0.00	0.00	0.00	9.25	12.00	13.25	9.50	6.25	11.50	3.50	6.25	-0.196777	0.073242	0.979004	-6.020000	29.260000	-5.670000	716.00	0.26	-0.04
2.28	0.00	0.00	0.00	0.00	0.00	0.00	0.00	0.00	0.00	0.00	0.00	0.00	0.00	0.00	0.00	0.00	-1.106445	0.309570	1.578125	100.029999	-204.399994	53.900002	0.00	0.00	0.00	0.00	0.00	0.00	0.00	0.00	0.00	0.00	0.00	9.50	12.50	13.50	9.50	6.25	12.50	3.75	6.25	-0.161133	0.062988	1.045898	-7.280000	34.020000	-4.760000	730.00	0.27	-0.03
2.29	0.00	0.00	0.00	0.00	0.00	0.00	0.00	0.00	0.00	0.00	0.00	0.00	0.00	0.00	0.00	0.00	-1.259766	0.183105	1.531250	106.190002	-199.919998	65.449997	0.00	0.00	0.00	0.00	0.00	0.00	0.00	0.00	0.00	0.00	0.00	9.75	12.75	13.75	10.00	6.25	13.00	4.50	6.50	-0.210449	0.075684	0.979980	-3.780000	44.310001	-4.550000	757.00	0.27	-0.03
2.30	0.00	0.00	0.00	0.00	0.00	0.00	0.00	0.00	0.00	0.00	0.00	0.00	0.00	0.00	0.00	0.00	-1.462891	0.001465	1.374512	107.660004	-191.029999	76.720001	0.00	0.00	0.00	0.00	0.00	0.00	0.00	0.00	0.00	0.00	0.00	10.00	13.00	14.00	9.75	6.25	13.75	4.50	6.50	-0.217285	0.085449	0.993652	-3.920000	51.240002	-4.970000	770.00	0.27	-0.03
2.31	0.00	0.00	0.00	0.00	0.00	0.00	0.00	0.00	0.00	0.00	0.00	0.00	0.00	0.00	0.00	0.00	-1.632324	-0.178223	1.240723	100.239998	-173.949997	85.050003	0.00	0.00	0.00	0.00	0.00	0.00	0.00	0.00	0.00	0.00	0.00	10.25	13.50	14.00	10.00	6.00	14.25	4.50	6.50	-0.221191	0.071777	0.984863	-6.440000	57.049999	-5.810000	783.00	0.27	-0.03
2.32	0.00	0.00	0.00	0.00	0.00	0.00	0.00	0.00	0.00	0.00	0.00	0.00	0.00	0.00	0.00	0.00	-1.748535	-0.299316	1.147461	87.220001	-152.320007	89.529999	0.00	0.00	0.00	0.00	0.00	0.00	0.00	0.00	0.00	0.00	0.00	10.50	13.75	14.25	10.00	6.00	15.25	5.25	6.75	-0.239746	0.079590	0.971680	-9.870000	62.369999	-5.670000	809.00	0.28	-0.02
2.33	0.00	0.00	0.00	0.00	0.00	0.00	0.00	0.00	0.00	0.00	0.00	0.00	0.00	0.00	0.00	0.00	-1.811523	-0.369629	1.177734	79.379997	-131.529999	91.699997	0.00	0.00	0.00	0.00	0.00	0.00	0.00	0.00	0.00	0.00	0.00	10.75	14.00	14.25	10.00	5.75	15.75	5.50	6.75	-0.244629	0.073730	0.971191	-10.500000	67.900002	-5.810000	820.00	0.28	-0.02
2.34	0.00	0.00	0.00	0.00	0.00	0.00	0.00	0.00	0.00	0.00	0.00	0.00	0.00	0.00	0.00	0.00	-1.876465	-0.452148	1.264160	83.510002	-117.669998	93.309998	0.00	0.00	0.00	0.00	0.00	0.00	0.00	0.00	0.00	0.00	0.00	11.00	14.25	14.50	10.00	5.75	16.50	5.75	7.00	-0.269531	0.071289	0.980469	-10.220000	72.800003	-5.600000	839.00	0.28	-0.02
2.35	0.00	0.00	0.00	0.00	0.00	0.00	0.00	0.00	0.00	0.00	0.00	0.00	0.00	0.00	0.00	0.00	-1.954590	-0.534668	1.304199	87.919998	-113.750000	95.059998	0.00	0.00	0.00	0.00	0.00	0.00	0.00	0.00	0.00	0.00	0.00	11.25	14.50	14.50	10.00	5.75	17.00	6.00	7.00	-0.280273	0.066406	0.991211	-9.380000	75.949997	-5.250000	851.00	0.28	-0.02
2.36	0.00	0.00	0.00	0.00	0.00	0.00	0.00	0.00	0.00	0.00	0.00	0.00	0.00	0.00	0.00	0.00	-2.099609	-0.562500	1.137695	81.129997	-117.879997	98.980003	0.00	0.00	0.00	0.00	0.00	0.00	0.00	0.00	0.00	0.00	0.00	11.50	14.75	14.75	10.00	5.50	17.75	6.00	7.25	-0.307129	0.061523	0.992676	-7.350000	84.629997	-3.710000	865.00	0.28	-0.01
2.37	0.00	0.00	0.00	0.00	0.00	0.00	0.00	0.00	0.00	0.00	0.00	0.00	0.00	0.00	0.00	0.00	-2.327637	-0.554199	0.823242	68.250000	-121.449997	105.489998	0.00	0.00	0.00	0.00	0.00	0.00	0.00	0.00	0.00	0.00	0.00	11.50	15.00	14.75	10.00	5.50	18.00	6.50	7.25	-0.307129	0.061523	0.992676	-7.350000	84.629997	-3.710000	875.00	0.28	-0.01
2.38	0.00	0.00	0.00	0.00	0.00	0.00	0.00	0.00	0.00	0.00	0.00	0.00	0.00	0.00	0.00	0.00	-2.591309	-0.576660	0.439941	56.700001	-117.040001	111.090004	0.00	0.00	0.00	0.00	0.00	0.00	0.00	0.00	0.00	0.00	0.00	12.00	15.25	14.50	10.00	5.25	18.75	6.75	7.25	-0.334473	0.073242	0.985840	-7.700000	99.610001	-3.640000	889.00	0.28	-0.01
2.39	0.00	0.00	0.00	0.00	0.00	0.00	0.00	0.00	0.00	0.00	0.00	0.00	0.00	0.00	0.00	0.00	-2.828613	-0.677734	0.081055	49.349998	-101.290001	111.230003	0.00	0.00	0.00	0.00	0.00	0.00	0.00	0.00	0.00	0.00	0.00	12.25	15.50	14.75	9.75	5.25	19.25	7.00	7.50	-0.347168	0.078125	0.990723	-8.610000	108.080002	-4.060000	903.00	0.28	-0.01
2.40	0.00	0.00	0.00	0.00	0.00	0.00	0.00	0.00	0.00	0.00	0.00	0.00	0.00	0.00	0.00	0.00	-2.952637	-0.817383	-0.166016	44.520000	-75.250000	102.900002	0.00	0.00	0.00	0.00	0.00	0.00	0.00	0.00	0.00	0.00	0.00	12.50	15.75	14.50	9.75	5.00	19.75	7.50	7.50	-0.372070	0.065918	0.990723	-9.730000	116.900002	-4.900000	913.00	0.29	-0.00
2.41	0.00	0.00	0.00	0.00	0.00	0.00	0.00	0.00	0.00	0.00	0.00	0.00	0.00	0.00	0.00	0.00	-2.928711	-0.921875	-0.282227	40.389999	-42.279999	86.660004	0.00	0.00	0.00	0.00	0.00	0.00	0.00	0.00	0.00	0.00	0.00	12.75	16.00	14.50	9.75	4.50	20.25	7.50	7.50	-0.391602	0.065430	0.990723	-10.080000	126.770004	-5.460000	919.00	0.29	0.00
2.42	0.00	0.00	0.00	0.00	0.00	0.00	0.00	0.00	0.00	0.00	0.00	0.00	0.00	0.00	0.00	0.00	-2.801270	-0.966797	-0.156250	38.500000	-8.400000	66.220001	0.00	0.00	0.00	0.00	0.00	0.00	0.00	0.00	0.00	0.00	0.00	13.00	16.00	14.25	9.50	4.50	20.50	7.50	7.75	-0.414551	0.066406	0.995605	-9.940000	138.250000	-5.810000	921.00	0.29	0.00
2.43	0.00	0.00	0.00	0.00	0.00	0.00	0.00	0.00	0.00	0.00	0.00	0.00	0.00	0.00	0.00	0.00	-2.549316	-0.953613	0.085449	34.439999	18.129999	45.150002	0.00	0.00	0.00	0.00	0.00	0.00	0.00	0.00	0.00	0.00	0.00	13.25	16.25	14.25	9.25	4.25	20.75	7.75	7.75	-0.436523	0.063477	0.980957	-9.520000	152.389999	-6.580000	927.00	0.29	0.01
2.44	0.00	0.00	0.00	0.00	0.00	0.00	0.00	0.00	0.00	0.00	0.00	0.00	0.00	0.00	0.00	0.00	-3.946777	-2.377930	1.324707	-39.689999	76.300003	34.160000	0.00	0.00	0.00	0.00	0.00	0.00	0.00	0.00	0.00	0.00	0.00	13.50	16.50	14.00	9.25	4.00	20.75	7.75	7.75	-0.443359	0.085938	0.999512	-9.240000	168.350006	-8.260000	928.00	0.29	0.01
2.45	0.00	0.00	0.00	0.00	0.00	0.00	0.00	0.00	0.00	0.00	0.00	0.00	0.00	0.00	0.00	0.00	-1.469238	-0.666504	-0.775391	-143.919998	142.660004	10.220000	0.00	0.00	0.00	0.00	0.00	0.00	0.00	0.00	0.00	0.00	0.00	13.50	16.50	14.00	9.00	4.00	20.75	7.75	7.75	-0.479004	0.084473	1.012207	-8.890000	185.500000	-10.850000	925.00	0.29	0.01
2.46	0.50	1.00	0.25	0.00	0.00	0.00	0.00	0.00	0.00	0.00	0.00	0.00	0.00	0.00	0.00	0.00	-0.433105	-0.045898	1.721680	-159.809998	168.139999	-13.650000	17.00	0.00	0.00	0.00	0.00	0.00	0.00	0.00	0.00	0.00	0.00	13.25	16.50	13.75	8.75	3.50	20.75	8.00	7.75	-0.516113	0.091309	1.023926	-8.050000	204.470001	-14.140000	915.00	0.29	0.01
2.47	0.75	2.25	0.00	1.00	0.00	0.00	0.00	0.00	0.00	0.00	0.00	0.00	0.00	0.00	0.00	0.00	-0.100586	-0.053223	2.209961	-158.479996	118.020004	-15.750000	39.00	0.00	0.00	0.00	0.00	0.00	0.00	0.00	0.00	0.00	0.00	13.00	16.50	13.50	8.50	3.00	20.50	7.75	7.50	-0.555176	0.071289	1.043945	-9.870000	225.470001	-17.290001	896.00	0.29	0.02
2.48	2.75	5.50	0.75	3.25	0.00	0.00	0.00	0.00	0.00	0.00	0.00	0.00	0.00	0.00	0.00	0.00	-0.307617	-0.128418	0.760254	-121.029999	160.089996	-6.650000	123.00	-0.37	-0.10	0.00	0.00	0.00	0.00	0.00	0.00	0.00	0.00	12.75	16.50	13.25	8.25	2.75	20.25	8.00	7.25	-0.583008	0.073242	1.039062	-14.560000	251.649994	-20.719999	884.00	0.29	0.02
2.49	6.25	9.75	2.25	5.25	0.25	0.00	0.00	0.00	0.00	0.00	0.00	0.00	0.00	0.00	0.00	0.00	-0.307617	-0.128418	0.760254	-121.029999	160.089996	-6.650000	240.00	-0.36	-0.08	0.00	0.00	0.00	0.00	0.00	0.00	0.00	0.00	12.00	16.00	13.00	7.75	2.00	20.00	7.75	7.00	-0.637695	0.071777	1.093262	-22.820000	282.450012	-24.360001	849.00	0.29	0.02
2.50	8.25	11.75	3.50	7.25	0.50	0.25	0.00	0.00	0.00	0.00	0.00	0.00	0.00	0.00	0.00	0.00	-0.488770	0.110840	1.704590	-19.320000	183.960007	-8.120000	320.00	-0.36	-0.07	0.00	0.00	0.00	0.00	0.00	0.00	0.00	0.00	11.25	15.75	12.50	7.25	2.00	19.75	7.50	7.00	-0.686523	0.099121	1.092773	-33.110001	317.170013	-29.469999	821.00	0.29	0.02
2.51	9.50	13.00	4.75	8.00	0.75	0.75	0.00	0.00	0.00	0.00	0.00	0.00	0.00	0.00	0.00	0.00	-0.943359	0.307617	3.706543	-52.009998	118.090004	-9.170000	375.00	-0.35	-0.07	0.00	0.00	0.00	0.00	0.00	0.00	0.00	0.00	10.25	14.50	11.75	5.75	1.00	19.00	7.50	6.25	-0.796875	0.128906	1.223633	-43.820000	351.119995	-36.259998	752.00	0.30	0.03
2.52	10.50	14.00	5.25	9.00	1.00	0.75	0.00	0.00	0.25	0.00	0.00	0.00	0.00	0.00	0.00	0.00	-0.456543	0.037598	1.647461	-91.070000	50.540001	-6.020000	417.00	-0.34	-0.07	0.00	0.00	0.00	0.00	0.00	0.00	0.00	0.00	8.75	13.25	10.75	4.75	0.25	18.25	7.00	5.75	-0.986328	0.134766	1.303223	-53.549999	379.890015	-44.590000	677.00	0.30	0.03
2.53	11.00	13.75	6.00	9.50	1.00	0.75	0.25	0.00	0.00	0.00	0.00	0.00	0.00	0.00	0.00	0.00	-0.257324	0.040039	1.018066	-91.349998	11.060000	-5.180000	435.00	-0.34	-0.06	0.00	0.00	0.00	0.00	0.00	0.00	0.00	0.00	7.25	11.75	9.75	3.25	0.50	17.25	6.50	5.25	-1.462891	0.125000	1.729492	-64.260002	398.720001	-53.340000	602.00	0.30	0.04
2.54	11.50	14.50	7.00	10.00	1.25	1.25	0.25	0.00	0.25	0.00	0.00	0.00	0.00	0.00	0.00	0.00	-0.221191	0.055176	0.996094	-86.029999	-10.500000	-5.110000	475.00	-0.33	-0.06	0.00	0.00	0.00	0.00	0.00	0.00	0.00	0.00	5.75	10.75	8.50	2.25	0.00	15.75	5.50	4.00	-1.730469	0.229980	2.098633	-59.779999	402.360016	-56.070000	513.00	0.31	0.04
2.55	12.50	15.00	8.00	10.75	1.75	1.50	0.25	0.00	0.50	0.25	0.00	0.00	0.00	0.00	0.00	0.00	-0.294922	-0.010742	1.023926	-50.049999	-27.510000	-4.060000	523.00	-0.32	-0.05	0.00	0.00	0.00	0.00	0.00	0.00	0.00	0.00	5.00	9.50	7.50	1.75	0.25	13.50	3.75	3.00	-1.781250	-0.002441	1.960938	-54.180000	398.649994	-59.990002	434.00	0.30	0.05
2.56	12.75	15.75	8.50	11.75	1.50	2.00	0.50	0.00	0.75	0.00	0.00	0.00	0.25	0.25	0.00	0.00	-0.277832	0.034668	0.956543	-29.540001	-28.700001	-4.130000	561.00	-0.32	-0.06	0.00	0.00	0.00	0.00	0.00	0.00	0.00	0.00	4.00	8.50	5.75	1.00	0.00	11.25	3.00	2.00	-1.202148	0.365723	1.989746	5.180000	384.790009	-47.250000	350.00	0.31	0.06
2.57	14.00	16.50	9.00	12.75	2.00	2.25	0.50	0.00	0.75	0.50	0.25	0.00	0.25	1.00	0.00	0.00	-0.241211	0.048828	0.956543	-18.620001	-25.270000	-3.290000	619.00	-0.30	-0.05	0.00	0.00	0.00	0.00	0.00	0.00	0.00	0.00	3.00	7.50	4.50	0.75	0.00	9.00	2.00	1.25	-1.202148	0.365723	1.989746	5.180000	384.790009	-47.250000	277.00	0.30	0.06
2.58	15.75	17.00	9.75	13.75	2.25	2.75	0.50	0.00	0.75	0.50	0.25	0.25	0.50	0.75	0.00	0.25	-0.235352	0.038574	0.949219	-13.790000	-21.840000	-3.360000	674.00	-0.30	-0.05	0.00	0.00	0.00	0.00	0.00	0.00	0.00	0.00	2.00	6.50	3.50	0.75	0.00	7.00	1.50	0.75	-1.146973	0.604980	2.413574	40.250000	364.980011	-59.779999	218.00	0.30	0.06
2.59	15.25	17.50	10.00	14.00	2.50	3.00	0.50	0.00	1.50	0.75	0.50	0.00	0.25	1.50	0.00	0.00	-0.217773	0.039551	0.960449	-12.670000	-19.040001	-3.850000	699.00	-0.28	-0.05	0.00	0.00	0.00	0.00	0.00	0.00	0.00	0.00	1.25	5.25	2.75	0.50	0.00	3.50	0.75	0.00	-0.235840	0.630859	2.052246	99.120003	320.250000	-96.669998	143.00	0.28	0.05
2.60	15.75	18.25	10.75	14.25	3.00	3.50	0.50	0.25	1.50	1.25	0.75	0.50	1.00	2.00	0.25	0.25	-0.211914	0.039062	0.969238	-10.990000	-17.010000	-3.640000	765.00	-0.26	-0.05	0.00	0.00	0.00	0.00	0.00	0.00	0.00	0.00	0.50	3.50	2.00	0.00	0.00	1.25	0.00	0.00	-0.108398	0.500488	1.726074	118.160004	268.869995	-119.070000	74.00	0.26	0.05
2.61	14.75	17.50	10.75	14.00	3.25	3.75	0.50	0.00	2.00	1.25	1.00	1.00	1.25	2.25	0.25	0.50	-0.207031	0.041992	0.956543	-8.680000	-13.720000	-2.800000	767.00	-0.25	-0.05	0.00	0.00	0.00	0.00	0.00	0.00	0.00	0.00	0.50	2.50	1.00	0.00	0.00	0.50	0.00	0.00	2.541992	1.234375	2.753418	111.230003	177.589996	-137.130005	47.00	0.00	0.00
2.62	14.00	17.25	11.00	14.75	4.00	4.50	0.75	0.50	2.50	1.25	1.50	1.00	1.25	2.75	0.25	0.50	-0.212891	0.036133	0.959961	-6.720000	-9.450000	-2.450000	812.00	-0.23	-0.05	0.00	0.00	0.00	0.00	0.00	0.00	0.00	0.00	0.25	2.00	1.00	0.00	0.00	0.00	0.00	0.00	-0.128418	1.322266	4.703613	70.489998	-8.190000	-80.430000	35.00	0.00	0.00
2.63	13.50	16.25	10.75	14.25	5.00	4.50	0.75	0.50	3.00	1.50	1.75	1.25	1.75	3.25	0.50	0.75	-0.209473	0.034180	0.960938	-5.460000	-5.950000	-2.310000	827.00	-0.21	-0.05	0.00	0.00	0.00	0.00	0.00	0.00	0.00	0.00	0.00	1.50	1.00	0.00	0.00	0.00	0.00	0.00	1.312500	0.467773	1.980469	10.010000	-158.970001	-31.990000	26.00	0.00	0.00
2.64	12.75	15.50	10.75	14.25	5.00	4.75	0.75	0.50	3.00	2.00	2.25	1.75	1.75	3.25	0.50	0.75	-0.196777	0.029785	0.964844	-3.990000	-3.570000	-1.890000	831.00	-0.19	-0.05	0.00	0.00	0.00	0.00	0.00	0.00	0.00	0.00	0.00	1.25	0.25	0.00	0.00	0.00	0.00	0.00	0.692871	0.009277	0.731934	-51.450001	-175.490005	-15.120000	16.00	0.00	0.00
2.65	11.50	14.75	10.50	13.75	5.25	4.75	0.75	0.75	4.00	2.50	3.00	2.50	2.25	3.75	0.75	1.00	-0.198730	0.032227	0.952637	-2.380000	-0.420000	-1.750000	856.00	-0.16	-0.05	0.00	0.00	0.00	0.00	0.00	0.00	0.00	0.00	0.00	0.75	0.50	0.00	0.00	0.00	0.00	0.00	0.303711	0.849121	0.786133	-65.660004	-137.759995	-15.960000	13.00	0.00	0.00
2.66	9.75	12.25	9.75	12.75	5.25	4.75	0.75	0.75	4.50	3.00	3.50	3.00	2.25	4.50	0.50	1.00	-0.205566	0.033691	0.965332	-0.560000	2.730000	-1.400000	821.00	-0.13	-0.05	0.00	0.00	0.00	0.00	0.00	0.00	0.00	0.00	0.00	1.00	0.50	0.00	0.00	0.00	0.00	0.00	0.645508	0.875977	0.941406	-11.550000	-125.160004	-15.820000	16.00	0.00	0.00
2.67	8.75	11.50	9.25	12.00	5.25	4.75	0.75	0.75	5.25	3.50	5.00	3.50	3.00	5.00	1.00	1.25	-0.206543	0.029785	0.970215	1.750000	6.720000	-1.120000	844.00	-0.10	-0.05	0.00	0.00	0.00	0.00	0.00	0.00	0.00	0.00	0.00	0.50	0.25	0.00	0.00	0.00	0.00	0.00	0.668457	0.620117	1.227051	54.389999	-148.330002	-15.330000	8.00	0.00	0.00
2.68	7.50	9.75	8.75	10.50	5.25	4.25	0.75	1.00	5.25	3.75	6.25	4.25	3.25	5.50	1.00	1.50	-0.188477	0.033203	0.962402	3.500000	10.710000	-0.840000	822.00	-0.07	-0.05	0.00	0.00	0.00	0.00	0.00	0.00	0.00	0.00	0.00	0.50	0.00	0.00	0.00	0.00	0.00	0.00	0.608398	0.299805	1.313477	88.550003	-182.770004	-11.270000	5.00	0.00	0.00
2.69	6.50	8.50	8.00	9.50	4.75	3.75	0.75	1.00	6.25	5.25	7.50	5.50	3.75	6.00	1.25	1.75	-0.206055	0.029785	0.969727	7.140000	17.850000	-0.700000	838.00	-0.03	-0.05	0.00	0.00	0.00	0.00	0.00	0.00	0.00	0.00	0.00	0.25	0.00	0.00	0.00	0.00	0.00	0.00	0.590332	0.156738	1.260254	82.739998	-214.339996	0.070000	3.00	0.00	0.00
2.70	5.50	7.25	7.00	8.25	4.50	3.00	0.75	0.75	6.75	6.50	8.00	6.50	4.00	6.50	1.25	2.00	-0.200684	0.041016	0.964844	8.190000	21.139999	-0.700000	820.00	0.00	-0.05	0.00	0.00	0.00	0.00	0.00	0.00	0.00	0.00	0.00	0.50	0.00	0.00	0.00	0.00	0.00	0.00	0.472656	0.224121	1.285645	62.439999	-241.290009	15.820000	5.00	0.00	0.00
2.71	4.25	6.25	6.00	7.50	3.50	2.75	0.75	0.75	7.50	7.50	8.75	7.25	4.50	7.50	1.50	2.25	-0.198730	0.037109	0.971191	8.120000	24.080000	-0.560000	817.00	0.04	-0.05	0.00	0.00	0.00	0.00	0.00	0.00	0.00	0.00	0.00	0.25	0.00	0.00	0.00	0.00	0.00	0.00	0.407715	0.292969	1.303223	51.799999	-265.790009	33.110001	3.00	0.00	0.00
2.72	3.25	5.25	5.00	6.25	3.00	2.00	0.50	0.75	8.00	7.75	9.25	7.75	5.00	8.00	1.75	2.50	-0.200684	0.044922	0.969727	7.700000	27.160000	-0.770000	788.00	0.07	-0.05	0.00	0.00	0.00	0.00	0.00	0.00	0.00	0.00	0.00	0.00	0.00	0.00	0.00	0.00	0.00	0.00	0.329102	0.280762	1.350586	54.250000	-289.519989	49.139999	0.00	0.00	0.00
2.73	2.25	3.75	3.75	5.00	2.50	1.50	0.50	0.50	8.25	8.25	10.00	8.00	5.25	8.50	2.00	2.50	-0.211914	0.049316	0.964355	6.650000	31.500000	-1.680000	749.00	0.11	-0.04	0.00	0.00	0.00	0.00	0.00	0.00	0.00	0.00	0.00	0.00	0.00	0.00	0.00	0.00	0.00	0.00	0.242188	0.196777	1.370605	60.130001	-312.130005	62.580002	0.00	0.00	0.00
2.74	1.75	2.50	3.00	4.25	2.00	1.00	0.50	0.25	8.50	8.50	10.50	8.75	5.25	8.75	2.00	2.75	-0.217285	0.046387	0.953613	5.180000	34.860001	-2.450000	724.00	0.14	-0.04	0.00	0.00	0.00	0.00	0.00	0.00	0.00	0.00	0.00	0.00	0.00	0.00	0.00	0.00	0.00	0.00	0.125977	0.077148	1.349609	62.299999	-332.010010	72.169998	0.00	0.00	0.00
2.75	0.75	2.00	2.00	3.25	1.75	0.50	0.50	0.25	8.75	9.00	10.75	8.75	5.50	9.25	2.00	2.75	-0.229980	0.048340	0.956543	3.920000	36.750000	-3.010000	696.00	0.17	-0.04	0.00	0.00	0.00	0.00	0.00	0.00	0.00	0.00	0.00	0.00	0.00	0.00	0.00	0.00	0.00	0.00	0.007812	-0.005371	1.332031	61.529999	-345.309998	76.300003	0.00	0.00	0.00
2.76	0.50	1.50	1.00	1.50	1.25	0.25	0.50	0.00	9.25	9.25	11.25	9.00	5.50	9.75	2.00	3.00	-0.236816	0.052734	0.949219	2.240000	38.990002	-3.640000	669.00	0.21	-0.03	0.00	0.00	0.00	0.00	0.00	0.00	0.00	0.00	0.00	0.00	0.00	0.00	0.00	0.00	0.00	0.00	-0.120605	-0.062500	1.342773	60.340000	-352.029999	74.620003	0.00	0.00	0.00
2.77	0.25	0.50	0.50	1.50	0.75	0.00	0.50	0.00	9.25	10.00	11.50	9.25	5.25	10.25	2.25	3.00	-0.244141	0.063965	0.957031	2.100000	39.689999	-3.360000	661.00	0.23	-0.03	0.00	0.00	0.00	0.00	0.00	0.00	0.00	0.00	0.00	0.00	0.00	0.00	0.00	0.00	0.00	0.00	-0.237305	-0.088867	1.396973	61.880001	-355.250000	67.550003	0.00	0.00	0.00
2.78	0.00	0.00	0.75	1.00	0.50	0.00	0.25	0.00	9.75	10.25	12.00	9.50	5.25	10.50	2.00	3.00	-0.244629	0.062012	0.953613	-0.210000	40.250000	-4.340000	661.00	0.24	-0.02	0.00	0.00	0.00	0.00	0.00	0.00	0.00	0.00	0.00	0.00	0.00	0.00	0.00	0.00	0.00	0.00	-0.418457	-0.083008	1.716797	71.820000	-364.420013	45.779999	0.00	0.00	0.00
2.79	0.00	0.25	0.00	1.00	0.50	0.00	0.25	0.00	10.00	10.75	12.25	9.50	5.25	11.25	2.25	3.50	-0.261719	0.039551	0.970703	-6.650000	40.740002	-4.270000	678.00	0.25	-0.02	0.00	0.00	0.00	0.00	0.00	0.00	0.00	0.00	0.00	0.00	0.00	0.00	0.00	0.00	0.00	0.00	-0.520996	-0.033203	1.838379	73.709999	-372.820007	34.720001	0.00	0.00	0.00
2.80	0.00	0.00	0.00	0.25	0.00	0.00	0.25	0.00	10.25	11.00	12.75	10.00	5.00	11.50	2.25	3.75	-0.249512	0.035645	0.968750	-10.080000	43.959999	-3.920000	680.00	0.26	-0.02	0.00	0.00	0.00	0.00	0.00	0.00	0.00	0.00	0.00	0.00	0.00	0.00	0.00	0.00	0.00	0.00	-0.672852	0.055176	1.893555	75.879997	-378.980011	24.500000	0.00	0.00	0.00
2.81	0.00	0.00	0.00	0.75	0.00	0.00	0.25	0.00	10.50	11.25	13.00	9.75	5.00	12.00	2.50	3.50	-0.246094	0.060059	0.946777	-1.050000	60.760002	-5.390000	696.00	0.26	-0.02	0.00	0.00	0.00	0.00	0.00	0.00	0.00	0.00	0.00	0.00	0.00	0.00	0.00	0.00	0.00	0.00	-0.812988	0.187988	1.867676	79.870003	-380.450012	19.740000	0.00	0.00	0.00
2.82	0.00	0.00	0.00	0.50	0.25	0.00	0.25	0.00	10.50	11.75	13.00	9.50	4.75	12.50	2.50	3.50	-0.274414	0.055176	0.956543	-0.140000	69.860001	-5.180000	701.00	0.26	-0.01	0.00	0.00	0.00	0.00	0.00	0.00	0.00	0.00	0.00	0.00	0.00	0.00	0.00	0.00	0.00	0.00	-0.977051	0.354492	1.831543	83.790001	-373.309998	24.570000	0.00	0.00	0.00
2.83	0.00	0.00	0.00	0.00	0.00	0.00	0.00	0.00	11.00	12.25	12.75	9.75	4.50	12.75	2.25	3.50	-0.406250	0.055664	1.034668	-1.190000	73.849998	-6.790000	698.00	0.27	-0.01	0.00	0.00	0.00	0.00	0.00	0.00	0.00	0.00	0.00	0.00	0.00	0.00	0.00	0.00	0.00	0.00	-1.156250	0.502441	1.712891	83.230003	-355.459991	38.570000	0.00	0.00	0.00
2.84	0.00	0.00	0.00	0.00	0.00	0.00	0.00	0.00	11.00	12.25	13.25	10.00	4.25	13.25	2.50	3.50	-0.303223	0.054688	0.937988	-3.990000	75.180000	-5.600000	711.00	0.27	-0.01	0.00	0.00	0.00	0.00	0.00	0.00	0.00	0.00	0.00	0.00	0.00	0.00	0.00	0.00	0.00	0.00	-1.337891	0.594727	1.616699	77.840004	-325.360016	58.799999	0.00	0.00	0.00
2.85	0.00	0.00	0.00	0.00	0.00	0.00	0.00	0.00	11.50	12.50	13.75	9.75	4.00	13.75	2.50	3.50	-0.307129	0.048340	0.929688	-6.930000	75.110001	-6.860000	725.00	0.27	-0.00	0.00	0.00	0.00	0.00	0.00	0.00	0.00	0.00	0.00	0.00	0.00	0.00	0.00	0.00	0.00	0.00	-1.484863	0.788086	1.853027	85.750000	-294.559998	83.230003	0.00	0.00	0.00
2.86	0.00	0.00	0.00	0.00	0.00	0.00	0.00	0.00	11.50	13.00	13.50	9.75	4.00	14.00	3.00	3.25	-0.316895	0.042969	0.929688	-7.490000	73.919998	-8.120000	733.00	0.27	0.00	0.00	0.00	0.00	0.00	0.00	0.00	0.00	0.00	0.00	0.00	0.00	0.00	0.00	0.00	0.00	0.00	-1.633301	0.843750	2.106445	119.209999	-281.049988	109.270004	0.00	0.00	0.00
2.87	0.00	0.00	0.00	0.00	0.00	0.00	0.00	0.00	11.50	13.00	14.00	9.75	4.00	14.50	3.25	3.75	-0.329102	0.033691	0.926270	-7.070000	72.379997	-8.120000	748.00	0.27	-0.00	0.00	0.00	0.00	0.00	0.00	0.00	0.00	0.00	0.00	0.00	0.00	0.00	0.00	0.00	0.00	0.00	-1.865234	0.396484	2.259277	156.449997	-281.470001	131.110001	0.00	0.00	0.00
2.88	0.00	0.00	0.00	0.00	0.00	0.00	0.00	0.00	11.75	13.50	14.00	9.75	3.75	15.00	3.00	3.75	-0.344727	0.042480	0.916504	-6.440000	70.699997	-8.050000	756.00	0.27	0.00	0.00	0.00	0.00	0.00	0.00	0.00	0.00	0.00	0.00	0.00	0.00	0.00	0.00	0.00	0.00	0.00	-2.146973	-0.150879	2.098633	151.410004	-282.660004	145.669998	0.00	0.00	0.00
2.89	0.00	0.00	0.00	0.00	0.00	0.00	0.00	0.00	11.75	13.75	13.75	10.00	3.75	15.25	3.00	3.75	-0.350586	0.033203	0.913574	-5.460000	69.370003	-8.050000	761.00	0.27	0.00	0.00	0.00	0.00	0.00	0.00	0.00	0.00	0.00	0.00	0.00	0.00	0.00	0.00	0.00	0.00	0.00	-2.274414	-0.353516	1.771484	103.389999	-274.610016	151.199997	0.00	0.00	0.00
2.90	0.00	0.00	0.00	0.00	0.00	0.00	0.00	0.00	11.75	14.00	14.25	10.25	3.75	15.50	3.25	3.75	-0.365723	0.027344	0.921875	-1.470000	69.300003	-7.700000	776.00	0.27	0.00	0.00	0.00	0.00	0.00	0.00	0.00	0.00	0.00	0.00	0.00	0.00	0.00	0.00	0.00	0.00	0.00	-2.348145	-0.186523	1.472656	58.730000	-258.019989	148.539993	0.00	0.00	0.00
2.91	0.00	0.00	0.00	0.00	0.00	0.00	0.00	0.00	12.00	14.25	14.75	10.50	4.00	16.00	3.50	3.75	-0.365723	0.027344	0.921875	-1.470000	69.300003	-7.700000	799.00	0.27	0.00	0.00	0.00	0.00	0.00	0.00	0.00	0.00	0.00	0.00	0.00	0.00	0.00	0.00	0.00	0.00	0.00	-2.363281	-0.062012	1.150879	49.139999	-239.330002	140.279999	0.00	0.00	0.00
2.92	0.00	0.00	0.00	0.00	0.00	0.00	0.00	0.00	12.00	14.50	14.75	10.75	4.00	16.50	3.25	3.75	-0.399902	0.028320	0.931641	1.960000	77.910004	-5.950000	806.00	0.27	0.00	0.00	0.00	0.00	0.00	0.00	0.00	0.00	0.00	0.00	0.00	0.00	0.00	0.00	0.00	0.00	0.00	-2.616699	-0.236328	0.979004	73.080002	-220.919998	123.760002	0.00	0.00	0.00
2.93	0.00	0.00	0.00	0.00	0.00	0.00	0.00	0.00	12.00	14.75	14.50	10.75	4.25	16.75	4.00	4.00	-0.408691	0.036133	0.952637	2.660000	85.260002	-5.390000	819.00	0.27	-0.00	0.00	0.00	0.00	0.00	0.00	0.00	0.00	0.00	0.00	0.00	0.00	0.00	0.00	0.00	0.00	0.00	-2.960938	-0.544434	0.592773	90.860001	-202.789993	95.340004	0.00	0.00	0.00
2.94	0.00	0.00	0.00	0.00	0.00	0.00	0.00	0.00	12.25	15.00	15.00	11.00	4.50	17.00	4.25	4.00	-0.416016	0.037109	0.957031	2.520000	94.080002	-5.250000	840.00	0.27	-0.00	0.00	0.00	0.00	0.00	0.00	0.00	0.00	0.00	0.00	0.00	0.00	0.00	0.00	0.00	0.00	0.00	-3.345215	-0.750000	0.191895	93.660004	-176.680008	59.709999	0.00	0.00	0.00
2.95	0.00	0.00	0.00	0.00	0.00	0.00	0.00	0.00	12.50	15.25	14.75	11.25	4.50	17.50	4.75	4.00	-0.443848	0.043457	0.943848	1.050000	104.019997	-5.740000	855.00	0.28	-0.00	0.00	0.00	0.00	0.00	0.00	0.00	0.00	0.00	0.00	0.00	0.00	0.00	0.00	0.00	0.00	0.00	-3.633789	-0.954102	-0.178711	94.080002	-141.190002	26.180000	0.00	0.00	0.00
2.96	0.00	0.00	0.00	0.00	0.00	0.00	0.00	0.00	12.75	15.75	15.00	11.25	4.75	17.75	4.75	4.00	-0.459473	0.042480	0.932129	-1.680000	114.520004	-7.070000	871.00	0.28	-0.00	0.00	0.00	0.00	0.00	0.00	0.00	0.00	0.00	0.00	0.00	0.00	0.00	0.00	0.00	0.00	0.00	-3.526855	-1.307129	-0.375488	56.209999	-44.520000	-8.470000	0.00	0.00	0.00
2.97	0.00	0.00	0.00	0.00	0.00	0.00	0.00	0.00	12.75	16.00	14.75	11.00	4.25	18.25	5.00	4.25	-0.471680	0.047852	0.960449	-5.040000	126.070000	-8.400000	872.00	0.28	0.00	0.00	0.00	0.00	0.00	0.00	0.00	0.00	0.00	0.00	0.00	0.00	0.00	0.00	0.00	0.00	0.00	-3.526855	-1.307129	-0.375488	56.209999	-44.520000	-8.470000	0.00	0.00	0.00
2.98	0.00	0.00	0.00	0.00	0.00	0.00	0.00	0.00	12.75	16.25	14.75	10.75	4.25	18.75	5.00	4.25	-0.499512	0.056152	0.961914	-8.680000	138.110001	-10.500000	876.00	0.28	0.01	0.00	0.00	0.00	0.00	0.00	0.00	0.00	0.00	0.00	0.00	0.00	0.00	0.00	0.00	0.00	0.00	-3.118164	-1.103516	-0.127441	5.250000	4.270000	-13.090000	0.00	0.00	0.00
2.99	0.00	0.00	0.00	0.00	0.00	0.00	0.00	0.00	13.00	16.25	14.50	10.75	4.00	19.00	5.50	4.25	-0.508789	0.062500	0.962891	-13.580000	151.830002	-13.230000	882.00	0.28	0.01	0.00	0.00	0.00	0.00	0.00	0.00	0.00	0.00	0.00	0.00	0.00	0.00	0.00	0.00	0.00	0.00	-2.833984	-1.410645	-0.161133	-110.250000	141.610001	-38.080002	0.00	0.00	0.00
3.00	0.00	0.00	0.00	0.00	0.00	0.00	0.00	0.00	13.00	16.50	14.25	10.00	3.50	19.25	5.50	4.25	-0.543945	0.072266	0.965820	-19.809999	168.210007	-17.150000	872.00	0.28	0.01	0.25	0.00	0.00	0.00	0.00	0.00	0.00	0.00	0.00	0.00	0.00	0.00	0.00	0.00	0.00	0.00	-0.569824	0.148926	1.151367	-183.050003	187.039993	-87.639999	3.00	0.00	0.00
3.01	0.00	0.00	0.00	0.00	0.00	0.00	0.00	0.00	13.50	17.00	14.00	9.75	3.50	19.75	6.00	4.75	-0.585449	0.069824	0.982422	-26.250000	186.690002	-22.820000	891.00	0.28	0.02	1.00	1.50	0.25	1.00	0.00	0.00	0.00	0.00	0.00	0.00	0.00	0.00	0.00	0.00	0.00	0.00	-0.165039	0.733887	2.778809	-202.720001	152.880005	-86.870003	38.00	0.00	0.00
3.02	0.00	0.00	0.00	0.00	0.00	0.00	0.00	0.00	13.50	16.75	13.50	9.00	2.75	19.50	6.00	4.75	-0.621094	0.079590	1.009766	-35.000000	208.180008	-29.540001	866.00	0.28	0.02	3.75	5.50	1.00	2.25	0.00	0.00	0.00	0.00	0.00	0.00	0.00	0.00	0.00	0.00	0.00	0.00	-0.148438	0.421387	2.250488	-192.149994	120.540001	-39.410000	125.00	-0.37	-0.07
3.03	0.00	0.00	0.00	0.00	0.00	0.00	0.00	0.00	13.25	16.75	13.00	8.00	2.50	19.75	6.25	4.50	-0.662109	0.074707	1.007812	-43.889999	232.470001	-37.660000	848.00	0.29	0.03	10.75	10.00	2.00	5.25	0.00	0.00	0.00	0.00	0.00	0.00	0.00	0.00	0.00	0.00	0.00	0.00	-0.473633	-0.035645	1.162109	-163.589996	181.930008	-9.240000	283.00	-0.37	-0.05
3.04	0.00	0.00	0.00	0.00	0.00	0.00	0.00	0.00	13.25	16.50	12.50	7.25	2.00	19.50	6.00	4.50	-0.706543	0.071289	1.039551	-55.160000	262.360016	-47.389999	823.00	0.29	0.04	15.75	13.00	4.50	7.75	0.00	0.00	0.00	0.00	0.00	0.00	0.00	0.00	0.00	0.00	0.00	0.00	-0.609375	-0.101562	2.226074	-150.009995	248.149994	-9.660000	418.00	-0.37	-0.04
3.05	0.00	0.00	0.00	0.00	0.00	0.00	0.00	0.00	13.25	16.25	11.75	6.25	1.50	19.00	6.25	4.00	-0.756836	0.080078	1.053711	-68.529999	299.670013	-58.029999	794.00	0.29	0.04	19.50	15.00	7.50	9.00	0.25	0.00	0.00	0.00	0.00	0.00	0.00	0.00	0.00	0.00	0.00	0.00	-0.584473	-0.240723	2.574707	-101.010002	209.089996	-2.030000	525.00	-0.36	-0.03
3.06	0.00	0.00	0.00	0.00	0.00	0.00	0.00	0.00	13.00	15.75	10.75	5.25	1.25	18.75	6.00	3.50	-0.812500	0.055664	1.150391	-85.750000	342.299988	-68.809998	755.00	0.29	0.05	21.25	15.75	8.50	9.75	0.50	0.00	0.00	0.00	0.00	0.00	0.00	0.00	0.00	0.00	0.00	0.00	-0.318848	-0.082520	1.227539	-59.849998	159.740005	-5.740000	572.00	-0.36	-0.03
3.07	0.00	0.00	0.00	0.00	0.00	0.00	0.00	0.00	12.50	14.50	10.00	3.75	0.50	18.00	5.25	2.75	-0.949219	0.092285	1.274902	-104.440002	388.709991	-80.220001	686.00	0.29	0.07	21.25	15.50	9.50	10.50	1.00	0.25	0.00	0.00	0.00	0.00	0.00	0.00	0.00	0.00	0.00	0.00	-0.145996	0.166016	0.938965	-22.330000	156.869995	-3.010000	597.00	-0.35	-0.03
3.08	0.00	0.00	0.00	0.00	0.00	0.00	0.00	0.00	11.00	13.25	8.75	3.00	0.75	17.50	5.00	2.50	-1.222168	0.060547	1.554199	-118.090004	428.470001	-91.980003	627.00	0.30	0.07	21.75	15.50	10.25	11.00	1.50	0.75	0.00	0.00	0.00	0.00	0.00	0.00	0.00	0.00	0.00	0.00	-0.227539	0.101074	1.178223	-2.100000	157.080002	2.590000	627.00	-0.35	-0.03
3.09	0.00	0.00	0.00	0.00	0.00	0.00	0.00	0.00	9.00	11.75	7.75	1.50	0.00	16.25	3.75	1.75	-1.724609	0.003906	2.179688	-128.380005	454.860016	-102.410004	524.00	0.30	0.08	21.75	15.50	11.00	12.00	2.00	1.25	0.00	0.00	0.00	0.00	0.00	0.00	0.00	0.00	0.00	0.00	-0.604492	0.596680	3.510254	-112.209999	87.570000	-8.190000	658.00	-0.34	-0.03
3.10	0.00	0.00	0.00	0.00	0.00	0.00	0.00	0.00	7.75	10.25	6.25	1.25	0.00	14.50	2.25	1.00	-2.325195	-0.302734	2.361328	-129.850006	468.860016	-108.919998	439.00	0.30	0.09	21.50	15.00	11.75	12.25	2.25	1.75	0.00	0.00	0.00	0.00	0.00	0.00	0.00	0.00	0.00	0.00	-0.332520	0.010254	1.084961	-106.120003	10.150000	-5.740000	670.00	-0.34	-0.03
3.11	0.00	0.00	0.00	0.00	0.00	0.00	0.00	0.00	6.50	9.25	4.75	1.00	0.00	12.75	1.50	1.00	-2.518555	0.354980	2.582031	-122.919998	466.200012	-106.610001	371.00	0.30	0.10	21.50	15.25	12.00	12.75	2.50	2.50	0.00	0.00	0.00	0.25	0.25	0.00	0.25	0.00	0.00	0.00	-0.208008	-0.030273	1.330566	-61.180000	-21.559999	0.630000	699.00	-0.33	-0.04
3.12	0.00	0.00	0.00	0.00	0.00	0.00	0.00	0.00	5.75	8.25	3.50	0.50	0.00	10.75	1.00	0.75	-1.349121	0.820312	2.779785	-13.440001	405.720001	-119.419998	309.00	0.30	0.11	21.75	15.00	12.50	13.00	2.75	2.75	0.00	0.25	0.00	0.50	0.25	0.00	0.50	0.00	0.00	0.50	-0.203125	0.052734	0.980957	-22.820000	-30.170000	1.820000	724.00	-0.32	-0.04
3.13	0.00	0.00	0.00	0.00	0.00	0.00	0.00	0.00	5.25	7.75	3.25	0.25	0.00	8.25	0.50	0.50	-0.832031	0.534668	2.918945	30.730000	358.399994	-135.240005	264.00	0.29	0.12	21.25	15.25	12.75	13.25	3.50	3.25	0.00	0.50	0.25	0.50	0.25	0.25	1.00	0.00	0.00	0.75	-0.179199	0.073242	0.986816	-8.610000	-27.510000	2.590000	756.00	-0.31	-0.05
3.14	0.00	0.00	0.00	0.00	0.00	0.00	0.00	0.00	3.75	5.50	1.50	0.25	0.00	4.50	0.25	0.25	0.096191	0.358887	2.075195	31.990000	293.440002	-152.529999	167.00	0.29	0.12	20.75	15.00	13.00	13.50	4.25	4.00	0.00	0.50	0.75	0.50	0.50	0.00	1.50	0.00	0.00	0.75	-0.159668	0.055664	0.988770	-3.640000	-22.400000	2.940000	781.00	-0.29	-0.05
3.15	0.00	0.00	0.00	0.00	0.00	0.00	0.00	0.00	2.00	3.75	1.25	0.00	0.00	1.25	0.00	0.00	0.534668	0.565430	1.868164	4.760000	230.089996	-166.389999	89.00	0.26	0.11	20.25	14.50	12.75	13.50	4.75	4.75	0.00	0.75	0.75	1.00	0.75	0.50	1.75	0.00	0.00	1.50	-0.163086	0.070312	0.990723	0.490000	-16.870001	3.500000	805.00	-0.28	-0.05
3.16	0.00	0.00	0.00	0.00	0.00	0.00	0.00	0.00	1.25	3.50	0.75	0.00	0.00	0.75	0.00	0.00	1.077148	2.268066	2.642090	-34.580002	134.050003	-108.010002	67.00	0.26	0.11	19.25	14.00	12.50	13.50	5.00	5.00	0.00	1.00	0.75	1.25	1.25	1.25	2.50	0.00	0.25	2.00	-0.162598	0.071777	0.982422	3.080000	-11.900000	3.920000	824.00	-0.25	-0.06
3.17	0.00	0.00	0.00	0.00	0.00	0.00	0.00	0.00	1.50	2.75	0.75	0.00	0.00	0.25	0.00	0.00	0.767090	1.694824	3.545898	-2.170000	-17.920000	-28.280001	58.00	0.25	0.11	18.25	13.50	12.25	13.25	5.00	5.75	0.00	1.25	0.75	1.25	1.25	1.25	3.00	0.25	0.50	2.25	-0.156738	0.079102	0.978516	6.230000	-5.460000	4.130000	826.00	-0.24	-0.07
3.18	0.00	0.00	0.00	0.00	0.00	0.00	0.00	0.00	1.00	2.25	0.50	0.00	0.00	0.00	0.00	0.00	0.795410	0.871094	1.273926	-27.440001	-93.309998	43.400002	42.00	0.00	0.00	17.00	13.00	12.00	13.00	5.25	6.00	0.00	1.50	1.00	1.50	2.00	1.75	4.00	0.50	0.75	3.00	-0.161133	0.079102	0.978516	6.230000	-5.460000	4.130000	849.00	-0.21	-0.08
3.19	0.00	0.00	0.00	0.00	0.00	0.00	0.00	0.00	1.00	2.50	0.50	0.00	0.00	0.00	0.00	0.00	0.303223	0.876465	1.021484	-52.009998	-96.459999	87.989998	44.00	0.00	0.00	15.00	12.00	11.50	12.50	5.25	6.00	0.00	2.00	1.00	1.75	2.50	2.25	5.00	0.50	0.75	3.50	-0.163574	0.080566	0.983398	6.790000	-0.700000	3.570000	840.00	-0.19	-0.09
3.20	0.00	0.00	0.00	0.00	0.00	0.00	0.00	0.00	0.75	1.50	0.75	0.00	0.00	0.00	0.00	0.00	0.445801	0.727051	1.089355	-39.270000	-93.449997	107.730003	33.00	0.00	0.00	13.50	11.00	10.75	12.00	5.00	6.00	0.00	2.00	1.25	1.50	3.25	2.50	5.25	0.75	0.75	4.00	-0.149902	0.084961	0.988281	7.000000	0.980000	3.710000	817.00	-0.17	-0.10
3.21	0.00	0.00	0.00	0.00	0.00	0.00	0.00	0.00	0.75	1.25	0.25	0.00	0.00	0.00	0.00	0.00	0.502930	0.434570	1.299805	-4.480000	-116.900002	105.699997	25.00	0.00	0.00	11.50	10.25	10.00	11.25	5.00	6.00	0.00	2.75	1.00	2.00	3.50	3.00	5.50	1.00	1.00	5.25	-0.153809	0.079590	0.991211	8.260000	3.570000	3.570000	808.00	-0.15	-0.11
3.22	0.00	0.00	0.00	0.00	0.00	0.00	0.00	0.00	1.00	1.50	0.50	0.00	0.00	0.00	0.00	0.00	0.474609	0.189453	1.360352	27.440001	-151.970001	90.790001	34.00	0.00	0.00	9.75	9.25	9.25	10.50	4.50	6.00	0.00	3.00	1.25	2.25	4.25	3.25	6.75	0.75	1.25	5.50	-0.159180	0.087891	0.985840	9.730000	6.300000	3.500000	791.00	-0.12	-0.12
3.23	0.00	0.00	0.00	0.00	0.00	0.00	0.00	0.00	0.50	0.75	0.00	0.00	0.00	0.00	0.00	0.00	0.437988	0.029297	1.306152	45.920002	-186.339996	75.739998	14.00	0.00	0.00	8.25	8.50	8.25	10.00	4.00	5.50	0.00	3.25	1.50	2.25	5.75	4.00	7.50	1.25	1.25	6.00	-0.158691	0.089844	0.995117	10.920000	8.190000	3.570000	786.00	-0.09	-0.13
3.24	0.00	0.00	0.00	0.00	0.00	0.00	0.00	0.00	0.25	0.50	0.00	0.00	0.00	0.00	0.00	0.00	0.343262	-0.021973	1.303711	50.259998	-216.509995	65.590004	8.00	0.00	0.00	7.25	7.25	7.50	9.00	3.25	5.25	0.00	3.25	1.25	2.50	6.75	5.00	7.75	1.25	1.25	6.50	-0.156738	0.092285	0.985352	11.480000	9.450000	3.850000	759.00	-0.07	-0.14
3.25	0.00	0.00	0.00	0.00	0.00	0.00	0.00	0.00	0.25	0.50	0.00	0.00	0.00	0.00	0.00	0.00	0.269531	0.026855	1.359375	47.950001	-245.070007	61.529999	8.00	0.00	0.00	5.50	6.50	6.50	8.25	2.75	4.75	0.00	3.25	1.25	2.50	7.50	6.00	8.25	1.25	1.75	6.75	-0.159668	0.087402	0.979004	11.690000	10.850000	3.780000	733.00	-0.04	-0.16
3.26	0.00	0.00	0.00	0.00	0.00	0.00	0.00	0.00	0.00	0.50	0.00	0.00	0.00	0.00	0.00	0.00	0.205566	0.071289	1.345703	44.240002	-273.839996	62.299999	5.00	0.00	0.00	4.25	5.25	5.25	7.75	2.50	4.00	0.00	3.50	1.25	2.75	8.25	7.25	8.50	1.75	1.75	7.00	-0.162598	0.097168	0.977051	11.830000	12.040000	3.780000	713.00	-0.00	-0.17
3.27	0.00	0.00	0.00	0.00	0.00	0.00	0.00	0.00	0.00	0.00	0.00	0.00	0.00	0.00	0.00	0.00	0.079590	0.093750	1.297852	42.420002	-299.179993	66.220001	0.00	0.00	0.00	3.00	4.00	4.00	6.75	2.00	3.00	0.00	3.50	1.25	3.00	8.75	7.75	9.00	1.50	2.00	7.25	-0.163574	0.091309	0.985352	11.550000	13.230000	3.570000	667.00	0.03	-0.18
3.28	0.00	0.00	0.00	0.00	0.00	0.00	0.00	0.00	0.00	0.00	0.00	0.00	0.00	0.00	0.00	0.00	-0.037109	0.092285	1.242676	41.230000	-317.799988	70.980003	0.00	0.00	0.00	1.75	3.25	3.00	5.50	1.50	1.75	0.00	3.50	1.50	3.25	9.25	8.50	9.25	2.00	2.25	7.50	-0.166016	0.103516	0.968262	10.430000	14.700000	2.590000	633.00	0.07	-0.19
3.29	0.00	0.00	0.00	0.00	0.00	0.00	0.00	0.00	0.00	0.00	0.00	0.00	0.00	0.00	0.00	0.00	-0.154297	0.077637	1.186035	38.220001	-330.399994	74.690002	0.00	0.00	0.00	1.00	2.25	1.75	4.25	1.00	1.25	0.00	3.25	1.25	3.50	9.50	8.75	9.75	1.75	2.25	7.75	-0.169922	0.105469	0.968262	8.890000	15.330000	1.820000	581.00	0.11	-0.20
3.30	0.00	0.00	0.00	0.00	0.00	0.00	0.00	0.00	0.25	0.00	0.00	0.00	0.00	0.00	0.00	0.00	-0.385254	0.118164	1.155762	33.459999	-340.130005	76.650002	3.00	0.00	0.00	0.25	1.25	1.25	3.00	0.75	0.50	0.00	3.00	1.25	3.75	10.00	9.00	10.00	2.25	2.50	7.75	-0.164551	0.099121	0.980957	7.350000	15.400000	0.980000	550.00	0.15	-0.20
3.31	0.00	0.00	0.00	0.00	0.00	0.00	0.00	0.00	0.00	0.00	0.00	0.00	0.00	0.00	0.00	0.00	-0.385254	0.118164	1.155762	33.459999	-340.130005	76.650002	0.00	0.00	0.00	0.25	0.75	0.25	2.00	0.50	0.00	0.00	2.75	1.50	4.25	10.50	9.25	10.25	2.25	2.50	8.25	-0.183105	0.109863	0.973633	5.250000	15.330000	0.140000	532.00	0.18	-0.20
3.32	0.00	0.00	0.00	0.00	0.00	0.00	0.00	0.00	0.00	0.00	0.00	0.00	0.00	0.00	0.00	0.00	-0.471680	0.129883	1.187500	35.279999	-339.920013	75.180000	0.00	0.00	0.00	0.00	0.25	0.25	1.50	0.25	0.00	0.00	2.50	1.75	4.50	11.00	9.75	10.50	3.00	2.75	8.00	-0.208496	0.109863	0.983398	0.910000	14.280000	-0.350000	539.00	0.21	-0.20
3.33	0.00	0.00	0.00	0.00	0.00	0.00	0.00	0.00	0.00	0.00	0.00	0.00	0.00	0.00	0.00	0.00	-0.658203	0.127441	1.386719	42.630001	-338.660004	66.849998	0.00	0.00	0.00	0.00	0.00	0.25	0.00	0.25	0.00	0.00	2.25	2.00	5.50	11.25	10.25	10.50	3.00	3.00	8.50	-0.182129	0.118164	0.976074	-3.150000	12.880000	-1.050000	544.00	0.23	-0.19
3.34	0.00	0.00	0.00	0.00	0.00	0.00	0.00	0.00	0.00	0.00	0.00	0.00	0.00	0.00	0.00	0.00	-0.764648	0.127930	1.510254	52.290001	-340.339996	59.430000	0.00	0.00	0.00	0.00	0.00	0.00	0.00	0.00	0.00	0.00	1.75	2.25	6.50	11.75	10.25	10.75	3.25	3.25	8.50	-0.196289	0.115723	0.975586	-4.340000	15.190001	-3.290000	556.00	0.24	-0.18
3.35	0.00	0.00	0.00	0.00	0.00	0.00	0.00	0.00	0.00	0.00	0.00	0.00	0.00	0.00	0.00	0.00	-0.857422	0.095703	1.502441	62.230000	-341.250000	48.650002	0.00	0.00	0.00	0.00	0.00	0.00	0.25	0.00	0.00	0.00	1.25	3.00	7.50	12.00	10.50	10.50	4.50	3.25	8.75	-0.180664	0.108887	0.984863	-8.330000	20.160000	-4.970000	587.00	0.24	-0.16
3.36	0.00	0.00	0.00	0.00	0.00	0.00	0.00	0.00	0.00	0.00	0.00	0.00	0.00	0.00	0.00	0.00	-0.947266	0.140137	1.625000	68.669998	-341.179993	34.230000	0.00	0.00	0.00	0.00	0.00	0.00	0.00	0.00	0.00	0.00	1.00	3.25	7.75	12.25	10.75	10.25	6.00	3.50	8.75	-0.200195	0.105957	0.964844	-7.000000	34.930000	-6.860000	605.00	0.25	-0.14
3.37	0.00	0.00	0.00	0.00	0.00	0.00	0.00	0.00	0.00	0.00	0.00	0.00	0.00	0.00	0.00	0.00	-1.083984	0.179199	1.640137	75.599998	-339.779999	20.160000	0.00	0.00	0.00	0.00	0.00	0.00	0.00	0.00	0.00	0.00	0.75	3.75	8.25	12.75	10.75	10.00	7.00	3.50	8.75	-0.200195	0.105957	0.964844	-7.000000	34.930000	-6.860000	624.00	0.25	-0.13
3.38	0.00	0.00	0.00	0.00	0.00	0.00	0.00	0.00	0.00	0.00	0.00	0.00	0.00	0.00	0.00	0.00	-1.178223	0.233887	1.599121	82.250000	-334.880005	8.120000	0.00	0.00	0.00	0.00	0.00	0.00	0.00	0.00	0.00	0.00	0.50	4.75	9.00	13.00	11.00	9.75	8.25	4.00	9.00	-0.216797	0.100586	0.974121	-9.800000	41.860001	-7.350000	662.00	0.26	-0.11
3.39	0.00	0.00	0.00	0.00	0.00	0.00	0.00	0.00	0.00	0.00	0.00	0.00	0.00	0.00	0.00	0.00	-1.277832	0.279785	1.523438	87.989998	-323.049988	-2.380000	0.00	0.00	0.00	0.00	0.00	0.00	0.00	0.00	0.00	0.00	0.25	5.75	9.25	13.00	11.00	9.75	9.25	4.00	9.25	-0.227539	0.093262	0.980469	-11.270000	45.920002	-7.350000	683.00	0.26	-0.10
3.40	0.00	0.00	0.00	0.00	0.00	0.00	0.00	0.00	0.00	0.00	0.00	0.00	0.00	0.00	0.00	0.00	-1.381836	0.326660	1.494629	93.309998	-303.519989	-11.900000	0.00	0.00	0.00	0.00	0.00	0.00	0.00	0.00	0.00	0.00	0.00	6.75	10.00	13.25	11.00	9.75	10.50	5.00	9.25	-0.240234	0.094238	0.990723	-12.320000	50.400002	-7.420000	724.00	0.27	-0.09
3.41	0.00	0.00	0.00	0.00	0.00	0.00	0.00	0.00	0.00	0.00	0.00	0.00	0.00	0.00	0.00	0.00	-1.474121	0.433105	1.573242	98.910004	-281.470001	-17.639999	0.00	0.00	0.00	0.00	0.00	0.00	0.00	0.00	0.00	0.00	0.00	7.50	10.50	13.50	11.00	9.25	11.75	5.25	9.25	-0.248047	0.102051	0.976074	-13.650000	56.630001	-8.260000	751.00	0.27	-0.08
3.42	0.00	0.00	0.00	0.00	0.00	0.00	0.00	0.00	0.00	0.00	0.00	0.00	0.00	0.00	0.00	0.00	-1.547852	0.618652	1.708496	112.840004	-265.510010	-15.540000	0.00	0.00	0.00	0.00	0.00	0.00	0.00	0.00	0.00	0.00	0.25	8.00	10.75	13.75	11.00	9.00	13.00	5.50	9.50	-0.254883	0.101562	0.990234	-15.330000	63.630001	-10.150000	779.00	0.27	-0.07
3.43	0.00	0.00	0.00	0.00	0.00	0.00	0.00	0.00	0.00	0.00	0.00	0.00	0.00	0.00	0.00	0.00	-1.637695	0.632324	1.714355	134.610001	-255.710007	-5.110000	0.00	0.00	0.00	0.00	0.00	0.00	0.00	0.00	0.00	0.00	0.25	8.75	11.25	13.50	11.00	9.00	14.25	6.00	9.50	-0.262207	0.078613	0.958008	-19.040001	70.699997	-11.620000	807.00	0.27	-0.06
3.44	0.00	0.00	0.00	0.00	0.00	0.00	0.00	0.00	0.00	0.00	0.00	0.00	0.00	0.00	0.00	0.00	-1.822754	0.466797	1.633789	156.169998	-244.509995	10.360000	0.00	0.00	0.00	0.00	0.00	0.00	0.00	0.00	0.00	0.00	0.00	9.25	11.75	13.75	10.75	8.50	15.25	6.00	9.50	-0.278320	0.081055	0.978516	-19.950001	76.019997	-11.830000	819.00	0.28	-0.05
3.45	0.00	0.00	0.00	0.00	0.00	0.00	0.00	0.00	0.00	0.00	0.00	0.00	0.00	0.00	0.00	0.00	-2.012207	0.199219	1.472168	169.399994	-226.029999	27.230000	0.00	0.00	0.00	0.00	0.00	0.00	0.00	0.00	0.00	0.00	0.00	9.75	12.25	13.75	10.75	8.50	16.00	6.50	9.75	-0.292480	0.074219	0.978027	-18.690001	80.849998	-11.410000	844.00	0.28	-0.05
3.46	0.00	0.00	0.00	0.00	0.00	0.00	0.00	0.00	0.25	0.00	0.00	0.00	0.00	0.00	0.00	0.00	-2.145020	-0.147461	1.287109	173.949997	-201.039993	44.520000	3.00	0.00	0.00	0.00	0.00	0.00	0.00	0.00	0.00	0.00	0.00	10.00	12.25	13.75	10.75	8.25	16.50	6.50	9.75	-0.312012	0.062988	0.986328	-17.290001	86.449997	-10.220000	849.00	0.28	-0.04
3.47	0.00	0.00	0.00	0.00	0.00	0.00	0.00	0.00	0.00	0.00	0.00	0.00	0.00	0.00	0.00	0.00	-2.333496	-0.652344	1.223145	172.550003	-171.289993	63.209999	0.00	0.00	0.00	0.00	0.00	0.00	0.00	0.00	0.00	0.00	0.00	10.50	12.75	13.75	10.50	8.00	17.50	6.75	10.00	-0.314453	0.060059	0.971191	-15.890000	92.470001	-8.960000	869.00	0.28	-0.04
3.48	0.00	0.00	0.00	0.00	0.00	0.00	0.00	0.00	0.00	0.00	0.00	0.00	0.00	0.00	0.00	0.00	-2.590332	-1.098145	1.071777	144.619995	-146.440002	79.940002	0.00	0.00	0.00	0.00	0.00	0.00	0.00	0.00	0.00	0.00	0.00	10.75	13.00	13.75	10.50	8.00	18.25	7.25	10.00	-0.333008	0.062988	0.981445	-13.650000	99.610001	-7.910000	886.00	0.28	-0.03
3.49	0.00	0.00	0.00	0.00	0.00	0.00	0.00	0.00	0.00	0.00	0.00	0.00	0.00	0.00	0.00	0.00	-3.032227	-1.236328	0.806641	88.970001	-130.059998	90.650002	0.00	0.00	0.00	0.00	0.00	0.00	0.00	0.00	0.00	0.00	0.00	11.25	13.25	13.75	10.50	7.50	18.50	7.50	9.75	-0.354004	0.058594	0.985840	-11.200000	108.080002	-6.930000	894.00	0.28	-0.03
3.50	0.00	0.00	0.00	0.00	0.00	0.00	0.00	0.00	0.00	0.00	0.00	0.00	0.00	0.00	0.00	0.00	-3.500000	-1.181152	0.416992	54.250000	-116.830002	96.949997	0.00	0.00	0.00	0.00	0.00	0.00	0.00	0.00	0.00	0.00	0.00	11.25	13.50	13.75	10.50	7.75	19.00	7.75	10.00	-0.372070	0.069824	0.995117	-8.470000	118.090004	-6.090000	907.00	0.28	-0.03
3.51	0.00	0.00	0.00	0.00	0.00	0.00	0.00	0.00	0.00	0.00	0.00	0.00	0.00	0.00	0.00	0.00	-3.887207	-1.424316	-0.116699	59.430000	-97.650002	98.840004	0.00	0.00	0.00	0.00	0.00	0.00	0.00	0.00	0.00	0.00	0.00	11.50	13.75	13.75	10.25	7.75	19.25	7.75	10.00	-0.393066	0.067383	0.988281	-4.760000	129.500000	-5.530000	913.00	0.28	-0.03
3.52	0.00	0.00	0.00	0.00	0.00	0.00	0.00	0.00	0.00	0.00	0.00	0.00	0.00	0.00	0.00	0.00	-4.019043	-1.880859	-0.562012	66.010002	-60.760002	92.750000	0.00	0.00	0.00	0.00	0.00	0.00	0.00	0.00	0.00	0.00	0.00	11.50	14.00	14.00	10.25	7.50	19.50	7.75	9.75	-0.419434	0.068848	0.992676	-1.890000	143.080002	-4.970000	917.00	0.28	-0.02
3.53	0.00	0.00	0.00	0.00	0.00	0.00	0.00	0.00	0.00	0.00	0.00	0.00	0.00	0.00	0.00	0.00	-3.708496	-2.204102	-0.703125	33.810001	-2.800000	75.669998	0.00	0.00	0.00	0.00	0.00	0.00	0.00	0.00	0.00	0.00	0.00	11.50	14.25	13.75	10.50	7.50	20.00	8.00	10.00	-0.441895	0.065918	0.995605	1.190000	158.479996	-4.550000	928.00	0.29	-0.02
3.54	0.00	0.00	0.00	0.00	0.00	0.00	0.00	0.00	0.00	0.00	0.00	0.00	0.00	0.00	0.00	0.00	-2.945801	-2.659668	-0.590820	-47.459999	57.330002	48.020000	0.00	0.00	0.00	0.00	0.00	0.00	0.00	0.00	0.00	0.00	0.00	11.25	14.25	14.00	10.25	7.25	20.00	8.00	9.75	-0.475098	0.082031	1.034180	2.870000	175.419998	-4.900000	921.00	0.29	-0.02
3.55	0.00	0.00	0.00	0.00	0.00	0.00	0.00	0.00	0.00	0.00	0.00	0.00	0.00	0.00	0.00	0.00	-0.872559	-0.495605	0.706055	-180.389999	225.470001	-26.320000	0.00	0.00	0.00	0.00	0.00	0.00	0.00	0.00	0.00	0.00	0.00	11.00	14.25	14.00	10.00	6.75	20.00	8.25	9.75	-0.500977	0.098145	1.039062	5.600000	196.770004	-7.000000	913.00	0.29	-0.02
3.56	0.00	0.50	0.00	0.00	0.00	0.00	0.00	0.00	0.00	0.00	0.00	0.00	0.00	0.00	0.00	0.00	-0.454590	-0.104980	2.313965	-187.529999	208.039993	-48.509998	5.00	0.00	0.00	0.00	0.00	0.00	0.00	0.00	0.00	0.00	0.00	10.50	14.25	13.75	10.00	6.50	20.50	8.50	9.50	-0.570801	0.137695	1.068359	2.520000	250.529999	-18.480000	907.00	0.29	-0.02
3.57	1.00	1.75	0.50	0.75	0.00	0.00	0.00	0.00	0.00	0.00	0.00	0.00	0.00	0.00	0.00	0.00	-0.196289	0.291992	1.826660	-199.500000	132.440002	-44.869999	40.00	0.00	0.00	0.00	0.00	0.00	0.00	0.00	0.00	0.00	0.00	10.25	14.25	13.50	9.75	6.00	20.00	8.50	9.50	-0.570801	0.137695	1.068359	2.520000	250.529999	-18.480000	890.00	0.29	-0.02
3.58	4.00	7.75	1.00	4.00	0.00	0.00	0.00	0.00	0.00	0.00	0.00	0.00	0.00	0.00	0.00	0.00	-0.661621	-0.630371	1.792480	-138.809998	183.680008	-18.059999	168.00	-0.37	-0.10	0.00	0.00	0.00	0.00	0.00	0.00	0.00	0.00	9.50	14.00	13.25	9.25	5.25	19.75	8.50	9.25	-0.666992	0.109375	1.147949	-16.940001	323.329987	-34.020000	860.00	0.29	-0.02
3.59	9.75	13.00	3.50	7.50	0.25	0.00	0.00	0.00	0.00	0.00	0.00	0.00	0.00	0.00	0.00	0.00	-0.781738	-0.466797	1.895020	-83.090004	252.979996	-17.639999	345.00	-0.36	-0.07	0.00	0.00	0.00	0.00	0.00	0.00	0.00	0.00	9.00	13.50	12.75	8.50	5.00	19.25	8.25	9.00	-0.751465	0.092285	1.330078	-27.930000	364.279999	-36.400002	824.00	0.29	-0.02
3.60	15.00	16.00	7.00	9.00	0.75	0.25	0.00	0.00	0.00	0.00	0.00	0.00	0.00	0.00	0.00	0.00	-0.585449	0.275391	2.104492	-35.910000	232.470001	-18.620001	490.00	-0.36	-0.05	0.00	0.00	0.00	0.00	0.00	0.00	0.00	0.00	7.50	12.25	12.00	7.75	3.50	18.75	8.00	8.50	-0.973145	0.119629	1.462891	-34.860001	401.309998	-36.189999	753.00	0.30	-0.01
3.61	17.25	16.75	8.50	10.50	1.00	0.75	0.00	0.00	1.50	0.00	0.00	0.00	0.00	0.00	0.00	0.00	-0.736328	0.458984	1.716797	-28.630001	176.470001	-11.060000	582.00	-0.33	-0.03	0.00	0.00	0.00	0.00	0.00	0.00	0.00	0.00	6.25	10.75	10.75	6.75	2.50	18.25	7.50	7.75	-1.461914	0.162598	1.916504	-32.900002	429.799988	-35.980000	676.00	0.30	-0.01
3.62	18.25	16.50	9.25	11.25	1.25	1.00	0.25	0.00	0.25	0.00	0.00	0.00	0.00	0.00	0.00	0.00	-0.443848	-0.026855	1.548340	-111.720001	70.699997	-6.790000	599.00	-0.34	-0.04	0.00	0.00	0.00	0.00	0.00	0.00	0.00	0.00	4.75	9.50	9.25	5.25	2.25	17.00	6.75	6.75	-1.959961	0.181641	2.317383	-18.270000	443.660004	-32.200001	585.00	0.30	-0.01
3.63	17.75	16.25	10.25	12.00	1.75	1.50	0.25	0.00	0.00	0.00	0.25	0.00	0.00	0.00	0.00	0.00	-0.268066	-0.010254	1.126953	-120.050003	10.920000	-7.630000	621.00	-0.34	-0.04	0.00	0.00	0.00	0.00	0.00	0.00	0.00	0.00	4.00	8.50	8.00	3.75	1.75	15.00	5.75	5.50	-2.028809	-0.453613	2.172363	0.700000	452.059998	-29.960001	497.00	0.31	-0.00
3.64	18.25	16.00	10.75	12.25	2.00	2.00	0.25	0.00	0.50	0.75	0.25	0.00	0.00	0.00	0.00	0.00	-0.286133	-0.083496	1.266113	-71.470001	-34.160000	-5.670000	655.00	-0.32	-0.04	0.00	0.00	0.00	0.00	0.00	0.00	0.00	0.00	2.50	7.50	6.25	2.25	0.75	12.75	4.25	4.50	-1.664062	0.598145	2.590820	3.010000	453.459991	-14.490000	384.00	0.31	0.01
3.65	17.75	15.50	11.00	12.75	2.50	2.25	0.25	0.00	1.25	0.50	0.25	0.25	0.50	0.25	0.00	0.00	-0.296387	-0.030273	0.962891	-35.070000	-41.930000	-5.670000	678.00	-0.30	-0.04	0.00	0.00	0.00	0.00	0.00	0.00	0.00	0.00	2.25	6.25	5.00	2.00	1.00	10.25	3.25	3.50	-1.195801	0.543457	2.477051	28.630001	448.140015	-28.490000	317.00	0.31	0.01
3.66	18.50	14.25	12.50	13.00	3.00	2.50	0.50	0.00	1.50	0.50	0.75	0.50	1.00	1.00	0.00	0.00	-0.235840	0.028809	0.950195	-19.320000	-35.700001	-4.830000	728.00	-0.28	-0.03	0.00	0.00	0.00	0.00	0.00	0.00	0.00	0.00	1.75	5.00	3.75	1.00	0.25	8.00	2.25	2.00	-0.944824	0.810547	2.549316	48.160000	433.580017	-57.470001	229.00	0.31	0.03
3.67	17.75	15.00	12.50	13.50	3.75	3.25	0.50	0.00	1.50	1.00	1.00	0.75	1.00	2.00	0.00	0.25	-0.239746	0.041504	0.958984	-13.720000	-28.980000	-3.990000	769.00	-0.26	-0.04	0.00	0.00	0.00	0.00	0.00	0.00	0.00	0.00	1.00	4.25	3.25	1.50	0.75	5.75	1.75	0.75	-0.495605	0.949219	2.598633	69.510002	410.829987	-81.690002	185.00	0.30	0.00
3.68	17.00	14.75	12.75	13.25	4.50	3.50	0.50	0.00	2.25	1.25	1.50	1.00	1.25	2.50	0.00	0.50	-0.208008	0.038574	0.965332	-12.040000	-21.629999	-3.640000	798.00	-0.24	-0.03	0.00	0.00	0.00	0.00	0.00	0.00	0.00	0.00	0.50	2.75	2.25	0.50	0.00	1.75	0.50	0.00	0.033691	0.891602	2.382324	112.209999	376.040009	-100.800003	84.00	0.28	0.02
3.69	16.00	14.00	12.75	13.00	5.25	4.00	0.50	0.25	3.00	1.25	1.50	1.50	1.50	3.25	0.50	0.50	-0.214844	0.015625	0.969727	-8.890000	-15.050000	-2.800000	824.00	-0.21	-0.03	0.25	0.00	0.00	0.00	0.00	0.00	0.00	0.00	0.25	1.75	1.25	0.00	0.00	0.75	0.00	0.00	0.271484	0.544434	1.839844	148.399994	303.869995	-129.149994	44.00	0.00	0.00
3.70	15.50	13.75	12.75	13.00	6.00	4.25	0.75	0.50	4.00	2.00	2.25	2.00	2.00	4.00	0.50	0.75	-0.206055	0.042480	0.963379	-4.900000	-8.400000	-1.610000	882.00	-0.18	-0.03	0.00	0.00	0.00	0.00	0.00	0.00	0.00	0.00	0.25	1.50	1.00	0.50	0.00	0.50	0.00	0.00	3.253906	1.000488	5.094238	129.289993	149.380005	-150.430008	39.00	0.00	0.00
3.71	15.00	13.00	13.00	13.00	6.25	4.50	0.75	0.50	4.75	2.50	2.75	2.75	2.25	5.00	0.50	0.75	-0.204102	0.036133	0.962891	-1.890000	-2.660000	-0.560000	917.00	-0.16	-0.03	0.00	0.00	0.00	0.00	0.00	0.00	0.00	0.00	0.00	1.75	0.75	0.00	0.00	0.25	0.00	0.00	0.469727	1.351562	6.356445	92.540001	-100.800003	-104.720001	28.00	0.00	0.00
3.72	13.50	12.00	12.50	12.75	6.50	4.75	0.75	0.75	5.00	3.00	3.75	3.25	2.75	5.25	0.75	1.00	-0.199707	0.029785	0.963867	0.070000	1.330000	-0.070000	927.00	-0.14	-0.04	0.00	0.00	0.00	0.00	0.00	0.00	0.00	0.00	0.00	1.50	0.75	0.00	0.00	0.00	0.00	0.00	1.515625	-0.092285	1.600586	3.430000	-220.570007	-60.130001	23.00	0.00	0.00
