# time	left pressure 1[N/cm²]	left pressure 2[N/cm²]	left pressure 3[N/cm²]	left pressure 4[N/cm²]	left pressure 5[N/cm²]	left pressure 6[N/cm²]	left pressure 7[N/cm²]	left pressure 8[N/cm²]	left pressure 9[N/cm²]	left pressure 10[N/cm²]	left pressure 11[N/cm²]	left pressure 12[N/cm²]	left pressure 13[N/cm²]	left pressure 14[N/cm²]	left pressure 15[N/cm²]	left pressure 16[N/cm²]	left acceleration X[g]	left acceleration Y[g]	left acceleration Z[g]	left angular X[dps]	left angular Y[dps]	left angular Z[dps]	left total force[N]	left center of pressure X[%]	left center of pressure Y[%]	right pressure 1[N/cm²]	right pressure 2[N/cm²]	right pressure 3[N/cm²]	right pressure 4[N/cm²]	right pressure 5[N/cm²]	right pressure 6[N/cm²]	right pressure 7[N/cm²]	right pressure 8[N/cm²]	right pressure 9[N/cm²]	right pressure 10[N/cm²]	right pressure 11[N/cm²]	right pressure 12[N/cm²]	right pressure 13[N/cm²]	right pressure 14[N/cm²]	right pressure 15[N/cm²]	right pressure 16[N/cm²]	right acceleration X[g]	right acceleration Y[g]	right acceleration Z[g]	right angular X[dps]	right angular Y[dps]	right angular Z[dps]	right total force[N]	right center of pressure X[%]	right center of pressure Y[%]
0.00																										10.50	7.75	6.75	7.00	5.00	4.75	1.00	1.75	3.75	2.25	2.75	3.25	4.25	3.75	3.50	1.50	-0.249023	0.076660	0.933105	-3.290000	1.470000	-0.280000	797.00	-0.08	-0.06
0.01																										11.25	7.75	6.75	7.50	5.00	4.75	1.00	1.75	4.00	2.75	2.75	3.00	3.50	4.00	3.25	1.50	-0.258789	0.078125	0.942383	-3.290000	1.400000	-0.210000	811.00	-0.09	-0.05
0.02	8.00	8.00	4.75	6.00	2.00	3.00	0.25	0.50	0.50	0.75	1.25	1.75	1.00	1.00	0.50	0.75	-0.282715	0.018066	0.936523	-3.080000	4.620000	1.120000	452.00	-0.21	-0.08	11.25	7.75	7.00	7.25	5.25	4.75	1.00	1.75	3.75	2.50	3.00	3.25	4.00	4.00	3.25	1.50	-0.254395	0.073730	0.938965	-3.430000	1.330000	-0.210000	818.00	-0.09	-0.06
0.03	8.00	7.75	4.50	6.00	1.75	2.75	0.25	0.75	1.00	1.00	1.50	1.25	1.25	0.75	0.50	0.50	-0.277344	0.016113	0.939941	-3.220000	4.620000	1.120000	450.00	-0.20	-0.07	11.25	7.75	7.00	7.50	5.00	4.50	1.00	1.50	4.00	2.25	3.00	3.00	3.75	4.00	3.25	1.50	-0.259766	0.074707	0.936035	-3.500000	1.400000	-0.350000	806.00	-0.09	-0.05
0.04	8.00	7.75	4.00	6.00	1.75	2.75	0.25	0.75	1.00	1.25	1.25	1.25	1.25	0.75	0.50	0.50	-0.273926	0.020020	0.934082	-3.290000	4.690000	0.980000	444.00	-0.20	-0.07	11.25	7.75	7.00	7.25	5.25	4.50	1.00	1.75	3.75	2.25	2.75	3.25	4.00	4.00	3.25	1.25	-0.258789	0.077148	0.939453	-3.430000	1.540000	-0.420000	808.00	-0.09	-0.05
0.05	7.75	8.00	4.75	5.75	1.75	2.75	0.25	0.75	1.00	1.00	1.75	1.50	1.25	1.00	0.25	0.50	-0.277832	0.019043	0.937012	-3.360000	4.620000	0.910000	455.00	-0.20	-0.07	11.25	7.75	7.00	7.50	5.00	4.50	1.00	1.75	4.00	2.50	3.00	3.00	4.00	3.75	3.50	1.50	-0.259766	0.076660	0.939453	-3.430000	1.540000	-0.280000	816.00	-0.09	-0.05
0.06	7.75	7.75	4.50	6.00	2.00	2.75	0.25	0.75	1.00	1.25	1.50	1.25	1.50	0.75	0.50	0.50	-0.280762	0.018066	0.939941	-3.290000	4.690000	0.840000	456.00	-0.19	-0.07	11.25	7.75	7.00	7.50	5.00	4.50	1.00	1.75	4.25	2.50	3.00	3.25	4.00	4.00	3.25	1.50	-0.252441	0.071777	0.934082	-3.290000	1.470000	-0.350000	822.00	-0.08	-0.05
0.07	7.25	7.75	4.75	5.75	2.00	2.50	0.25	0.75	0.50	1.00	1.50	1.25	1.00	1.00	0.25	0.50	-0.276855	0.017090	0.935547	-3.290000	4.690000	0.840000	432.00	-0.21	-0.07	11.25	7.75	7.00	7.50	5.25	4.50	1.00	1.75	3.50	2.50	2.75	3.00	3.50	3.50	1.50	0.00	-0.256836	0.077148	0.934570	-3.360000	1.400000	-0.350000	770.00	-0.11	-0.05
0.08	7.75	7.75	4.50	6.00	1.75	2.75	0.25	0.75	1.25	1.25	1.50	1.50	0.50	0.50	0.25	0.75	-0.279785	0.018555	0.935059	-3.360000	4.690000	0.840000	446.00	-0.20	-0.07	8.25	6.25	5.50	6.00	4.00	2.50	0.75	0.50	2.25	1.25	1.75	1.75	1.50	2.50	1.75	0.50	-0.256348	0.067383	0.937500	-3.360000	1.470000	-0.280000	541.00	-0.13	-0.04
0.09	7.75	7.75	4.50	6.00	2.00	2.50	0.25	0.75	1.00	1.25	1.50	1.00	1.50	1.00	0.25	0.50	-0.279785	0.017578	0.938965	-3.290000	4.830000	0.910000	449.00	-0.20	-0.07	8.75	6.50	5.75	6.25	4.25	3.00	0.75	0.75	2.25	1.25	1.75	2.00	2.25	2.50	2.00	0.75	-0.256836	0.070801	0.937012	-3.290000	1.470000	-0.210000	582.00	-0.13	-0.05
0.10	7.75	7.75	4.25	6.00	2.00	2.50	0.25	0.75	0.75	1.00	1.50	1.25	1.50	0.75	0.25	0.50	-0.277344	0.018555	0.934082	-3.220000	4.830000	0.910000	441.00	-0.20	-0.08	8.00	6.25	5.25	6.00	4.25	2.50	0.75	0.75	2.25	1.25	2.50	2.25	2.00	3.50	2.75	1.25	-0.256348	0.069824	0.937500	-3.220000	1.540000	-0.140000	586.00	-0.09	-0.05
0.11	8.00	7.75	4.75	5.75	2.00	2.50	0.50	0.50	1.00	1.25	1.75	1.25	1.25	0.75	0.50	0.50	-0.274902	0.012207	0.932129	-3.290000	4.480000	0.910000	456.00	-0.19	-0.06	13.00	8.50	7.50	8.00	5.75	4.00	1.00	1.50	3.75	2.50	2.75	3.00	3.50	3.75	3.00	2.00	-0.252930	0.077148	0.935547	-3.220000	1.540000	-0.140000	840.00	-0.11	-0.05
0.12	8.00	7.75	4.50	5.75	1.75	2.75	0.25	0.50	1.25	1.25	1.50	1.00	1.25	1.00	0.50	0.75	-0.274902	0.014160	0.936523	-3.430000	4.340000	0.980000	451.00	-0.19	-0.06	13.50	8.75	7.50	8.00	5.75	4.50	1.00	1.50	4.00	2.25	3.00	3.25	3.50	4.25	3.50	1.25	-0.249023	0.079590	0.938477	-3.360000	1.610000	-0.210000	867.00	-0.10	-0.05
0.13	7.75	7.50	4.50	5.75	2.00	2.75	0.25	0.50	1.25	1.25	1.50	1.50	1.25	1.00	0.25	0.50	-0.285645	0.019531	0.938965	-3.640000	4.410000	0.910000	450.00	-0.19	-0.07	14.00	9.00	8.00	8.00	6.00	4.25	1.00	1.50	4.00	2.25	2.75	3.00	3.50	3.75	2.50	0.50	-0.255859	0.080078	0.937988	-3.360000	1.540000	-0.280000	855.00	-0.12	-0.04
0.14	7.50	7.50	4.50	5.75	1.75	2.75	0.25	0.50	1.25	1.25	1.50	1.25	1.50	0.75	0.50	0.75	-0.274414	0.015137	0.936523	-3.780000	4.690000	0.840000	445.00	-0.19	-0.07	8.75	7.25	6.00	6.00	5.00	4.00	1.00	1.50	3.75	2.25	2.75	3.25	3.75	4.25	3.75	1.50	-0.256348	0.072266	0.936035	-3.500000	1.400000	-0.210000	741.00	-0.06	-0.05
0.15	7.75	7.75	4.25	5.75	2.00	2.50	0.25	1.00	0.75	1.00	1.50	1.25	1.25	1.00	0.50	0.50	-0.275391	0.017578	0.931641	-3.710000	4.760000	0.910000	445.00	-0.20	-0.08	9.75	7.25	6.25	6.50	5.00	2.75	1.00	0.75	2.50	1.25	2.00	2.00	2.25	2.75	1.75	0.25	-0.256836	0.078125	0.936035	-3.850000	1.610000	-0.420000	623.00	-0.13	-0.04
0.16	7.50	7.50	4.50	5.75	2.00	2.50	0.25	0.75	1.00	1.25	1.50	1.50	1.50	0.75	0.25	0.75	-0.274902	0.013184	0.937988	-3.570000	4.550000	0.840000	446.00	-0.19	-0.08	10.75	8.00	7.75	8.25	6.00	4.50	1.25	1.25	3.25	1.75	2.50	2.75	2.25	3.25	2.25	0.75	-0.252441	0.074707	0.938965	-3.850000	1.680000	-0.560000	771.00	-0.12	-0.04
0.17	7.50	7.50	4.50	5.75	2.00	2.50	0.25	0.50	1.00	1.25	1.50	1.25	1.75	1.00	0.50	0.50	-0.284668	0.017090	0.937500	-3.500000	4.690000	0.980000	445.00	-0.19	-0.07	9.50	7.00	6.25	6.50	5.00	3.00	1.00	0.50	2.50	1.50	2.25	2.25	2.25	3.00	2.00	0.25	-0.253418	0.073730	0.937012	-3.710000	1.680000	-0.490000	631.00	-0.12	-0.04
0.18	7.50	7.50	4.50	5.50	2.00	2.75	0.25	0.75	1.00	1.00	1.50	1.25	1.25	1.00	0.50	0.75	-0.280762	0.014648	0.936523	-3.430000	4.760000	0.910000	443.00	-0.19	-0.07	9.75	7.00	6.00	6.00	5.00	2.25	1.00	0.75	2.50	1.25	2.00	2.25	2.25	2.75	2.00	0.75	-0.259766	0.078125	0.937012	-3.570000	1.400000	-0.350000	615.00	-0.12	-0.04
0.19	7.50	7.50	4.25	5.75	2.00	2.50	0.50	0.75	1.25	1.00	1.50	1.50	1.50	1.00	0.50	0.50	-0.280762	0.014648	0.933594	-3.500000	4.830000	0.910000	452.00	-0.18	-0.07	9.25	6.75	6.00	6.25	5.00	2.50	1.00	0.75	2.75	1.25	2.00	2.25	2.00	2.75	2.00	0.50	-0.254883	0.076660	0.936523	-3.500000	1.400000	-0.280000	612.00	-0.12	-0.03
0.20	7.50	7.50	4.25	5.50	2.00	2.75	0.25	0.75	1.25	1.25	1.75	1.25	1.25	0.50	0.50	0.75	-0.276855	0.013672	0.934082	-3.430000	4.900000	0.980000	445.00	-0.19	-0.07	9.25	7.00	6.25	6.25	5.00	2.75	1.00	0.50	2.75	1.25	2.25	2.25	2.50	2.75	2.00	1.00	-0.256836	0.075195	0.935547	-3.640000	1.540000	-0.490000	627.00	-0.12	-0.04
0.21	7.25	7.50	4.25	5.50	2.00	2.50	0.50	1.00	1.50	1.50	1.75	1.25	1.75	1.00	0.25	0.50	-0.278320	0.015625	0.935547	-3.360000	4.830000	0.910000	459.00	-0.17	-0.07	9.50	6.75	6.25	6.25	5.25	3.00	1.00	0.75	3.00	2.25	3.00	2.25	2.00	3.00	2.00	0.50	-0.254883	0.080078	0.932617	-3.570000	1.680000	-0.630000	656.00	-0.11	-0.03
0.22	7.50	7.00	4.25	5.50	2.00	2.75	0.50	1.00	1.25	1.25	1.50	1.50	1.50	0.75	0.50	0.50	-0.284180	0.015137	0.933594	-3.360000	4.830000	0.770000	451.00	-0.18	-0.07	9.25	6.75	6.25	6.25	5.00	3.00	1.00	0.75	3.00	1.50	2.00	2.50	2.50	3.25	2.00	0.50	-0.248535	0.074219	0.940430	-3.710000	1.750000	-0.700000	640.00	-0.11	-0.04
0.23	7.25	7.00	4.25	5.50	2.00	2.50	0.25	0.75	1.25	1.50	1.75	1.50	2.00	1.50	0.50	0.75	-0.277832	0.012207	0.934082	-3.430000	4.760000	0.840000	456.00	-0.16	-0.07	9.25	6.75	6.00	6.00	5.00	3.00	1.00	0.75	2.75	1.50	3.00	3.75	4.25	4.75	3.75	2.00	-0.248535	0.075684	0.938965	-3.780000	1.820000	-0.700000	715.00	-0.06	-0.05
0.24	7.50	7.00	4.00	5.50	2.25	2.50	0.50	0.75	1.25	1.25	2.00	1.25	2.00	1.50	0.50	0.50	-0.277832	0.017090	0.938477	-3.570000	4.900000	0.770000	458.00	-0.16	-0.07	10.50	6.25	6.00	6.25	5.25	3.00	1.25	0.75	3.00	2.00	3.25	4.00	4.50	4.50	3.75	1.50	-0.254395	0.069336	0.935547	-3.710000	1.890000	-0.630000	747.00	-0.06	-0.05
0.25	7.25	7.00	4.25	5.25	2.00	2.50	0.50	0.75	1.00	1.25	1.75	1.50	1.75	0.75	0.50	0.50	-0.281738	0.017090	0.939453	-3.500000	4.830000	0.840000	440.00	-0.18	-0.07	9.25	6.50	6.00	6.00	5.25	3.00	1.25	2.00	4.75	2.75	3.00	3.50	4.50	4.75	3.75	1.75	-0.259766	0.070801	0.939453	-3.780000	2.030000	-0.630000	782.00	-0.04	-0.05
0.26	7.50	7.00	4.25	5.25	1.75	2.50	0.50	1.00	1.25	1.50	2.00	1.50	1.25	1.00	0.50	0.50	-0.281250	0.013184	0.935547	-3.290000	4.760000	0.770000	451.00	-0.17	-0.07	8.75	6.50	6.25	6.00	5.25	3.25	1.00	1.00	3.00	1.75	2.25	2.50	2.50	3.50	2.25	0.25	-0.252930	0.074219	0.934570	-3.640000	1.890000	-0.490000	648.00	-0.10	-0.04
0.27	7.25	7.00	4.25	5.50	2.00	2.75	0.50	0.75	1.50	1.50	1.75	1.75	2.00	1.00	0.50	0.75	-0.280273	0.016113	0.933105	-3.360000	4.690000	0.840000	465.00	-0.16	-0.07	9.00	6.25	6.25	6.00	5.25	3.00	1.00	0.75	3.00	1.50	2.25	2.50	2.75	3.25	2.25	0.50	-0.258789	0.073242	0.933594	-3.430000	1.820000	-0.350000	640.00	-0.10	-0.04
0.28	7.00	6.75	4.00	5.25	2.00	2.50	0.50	1.00	1.25	1.25	1.75	1.50	1.75	1.00	0.50	0.50	-0.277344	0.018066	0.932617	-3.220000	4.830000	0.910000	441.00	-0.16	-0.07	8.50	6.25	6.00	5.75	5.25	2.75	1.00	0.75	3.00	2.00	2.50	2.50	2.75	3.50	2.50	0.75	-0.265137	0.075195	0.933105	-3.220000	1.750000	-0.280000	641.00	-0.09	-0.04
0.29	7.00	6.50	4.00	5.25	2.00	2.25	0.50	0.75	1.25	1.50	1.75	1.25	2.00	1.25	0.50	0.50	-0.270996	0.020020	0.937012	-3.290000	5.040000	0.910000	436.00	-0.16	-0.07	8.50	6.00	6.00	5.75	5.25	3.00	1.25	1.00	3.25	1.75	2.50	2.75	2.50	3.50	2.50	0.75	-0.253906	0.076172	0.936523	-3.360000	2.030000	-0.490000	651.00	-0.08	-0.04
0.30	7.00	6.75	4.25	5.00	2.00	2.50	0.50	1.00	1.25	1.50	2.00	1.50	1.75	1.00	0.50	0.75	-0.275879	0.015625	0.935547	-3.290000	4.900000	0.840000	449.00	-0.16	-0.07	8.25	6.25	6.00	5.75	5.25	3.00	1.25	0.75	3.50	1.75	2.50	2.75	3.25	3.50	2.50	0.50	-0.255859	0.070801	0.939941	-3.290000	2.100000	-0.490000	655.00	-0.08	-0.04
0.31	7.00	6.50	4.25	5.25	1.75	2.50	0.50	0.75	1.25	1.50	2.00	1.50	1.75	1.25	0.50	0.50	-0.278809	0.016602	0.933594	-3.290000	4.830000	0.910000	443.00	-0.16	-0.07	8.75	6.00	5.75	5.75	5.25	3.00	1.25	0.75	3.50	1.75	2.75	2.75	2.75	3.75	2.25	0.75	-0.257812	0.074219	0.938477	-3.500000	2.030000	-0.560000	654.00	-0.08	-0.03
0.32	6.75	6.25	3.75	5.00	2.00	2.50	0.50	0.75	1.50	1.50	1.75	1.50	1.50	1.00	0.50	0.75	-0.277832	0.013184	0.930664	-3.360000	4.900000	0.840000	429.00	-0.15	-0.07	8.25	6.00	5.75	5.75	5.25	3.00	1.25	0.75	3.50	2.00	2.75	3.00	3.00	3.75	2.50	0.75	-0.259766	0.074219	0.936035	-3.500000	2.170000	-0.490000	660.00	-0.07	-0.04
0.33	6.50	6.25	3.75	5.00	2.00	2.50	0.50	0.75	1.50	1.25	1.75	1.75	2.00	1.25	0.50	0.75	-0.278809	0.016113	0.939453	-3.500000	4.760000	0.770000	433.00	-0.14	-0.07	8.00	5.75	5.75	5.75	5.50	3.25	1.25	1.00	3.75	2.00	2.75	3.00	3.00	3.75	2.50	1.00	-0.256836	0.076660	0.938965	-3.430000	2.240000	-0.560000	670.00	-0.07	-0.04
0.34	6.75	6.25	3.75	5.00	2.00	2.50	0.50	0.75	1.75	1.50	2.00	1.75	2.00	1.25	0.50	0.75	-0.276855	0.014160	0.935059	-3.430000	4.830000	0.770000	445.00	-0.14	-0.07	8.00	5.75	6.00	5.50	5.50	3.00	1.25	1.00	3.50	1.75	2.50	2.75	3.00	4.00	2.50	0.75	-0.256836	0.072754	0.937012	-3.430000	2.170000	-0.350000	655.00	-0.07	-0.04
0.35	6.50	6.25	4.00	5.00	2.00	2.50	0.50	0.75	1.75	1.50	1.75	1.75	2.00	1.25	0.50	0.50	-0.276855	0.014160	0.937988	-3.500000	5.040000	0.630000	441.00	-0.14	-0.07	8.25	5.75	5.75	5.50	5.50	3.25	1.25	1.00	3.50	1.75	2.75	3.00	3.00	4.00	2.50	1.00	-0.253418	0.070801	0.939453	-3.360000	1.890000	-0.210000	665.00	-0.07	-0.04
0.36	7.00	6.25	3.75	5.00	2.00	2.50	0.50	0.75	1.75	1.50	2.00	1.50	2.00	1.00	0.75	0.75	-0.277344	0.013672	0.933594	-3.430000	4.970000	0.770000	446.00	-0.14	-0.07	8.00	5.75	5.75	5.50	5.50	3.25	1.25	1.00	3.75	2.00	2.75	3.00	3.25	4.00	2.50	0.50	-0.259277	0.068848	0.936523	-3.290000	1.960000	-0.350000	668.00	-0.07	-0.04
0.37	6.75	6.00	3.75	5.00	2.00	2.50	0.50	0.75	1.50	1.50	2.25	1.75	2.25	1.25	0.50	0.75	-0.284668	0.011719	0.936523	-3.360000	5.040000	0.770000	444.00	-0.14	-0.07	8.00	5.75	5.75	5.50	5.50	3.00	1.25	1.00	3.75	2.00	2.75	3.25	3.25	4.00	2.75	0.50	-0.258789	0.078613	0.934082	-3.220000	1.960000	-0.420000	671.00	-0.06	-0.04
0.38	6.75	6.00	4.00	4.50	2.00	2.50	0.50	0.75	1.50	1.50	2.00	1.50	2.00	1.25	0.50	0.75	-0.278320	0.016113	0.938965	-3.290000	4.830000	0.700000	433.00	-0.14	-0.07	7.75	5.50	5.75	5.50	5.50	3.25	1.25	1.00	3.75	2.00	3.00	3.00	3.00	4.00	2.50	0.75	-0.258789	0.070801	0.941895	-3.290000	2.030000	-0.420000	665.00	-0.06	-0.04
0.39	6.50	6.00	4.00	4.50	2.00	2.25	0.50	0.75	1.25	1.25	1.75	1.75	2.25	1.25	0.75	0.50	-0.275879	0.013672	0.934082	-3.290000	4.900000	0.700000	425.00	-0.14	-0.07	8.00	5.25	5.75	5.50	5.25	3.25	1.25	1.00	3.75	2.00	3.00	3.00	3.00	3.75	2.50	0.75	-0.255859	0.072266	0.937012	-3.150000	1.820000	-0.210000	660.00	-0.06	-0.04
0.40	6.50	6.00	4.00	4.75	2.00	2.25	0.50	0.75	1.75	1.50	1.75	1.75	1.75	1.25	0.50	0.75	-0.281738	0.014160	0.931641	-3.290000	4.830000	0.840000	432.00	-0.14	-0.06	7.50	5.50	5.50	5.50	5.50	3.25	1.25	0.75	3.75	2.00	2.75	3.25	3.25	3.75	2.50	0.75	-0.254883	0.069824	0.937012	-3.080000	1.750000	-0.280000	655.00	-0.06	-0.04
0.41	6.50	6.00	4.00	4.50	2.00	2.00	0.50	0.75	1.75	1.50	1.75	1.25	1.75	1.50	0.75	0.50	-0.279297	0.018066	0.932617	-3.220000	4.620000	0.910000	424.00	-0.14	-0.05	7.75	5.50	5.75	5.50	5.25	3.00	1.25	1.00	4.00	2.00	3.00	3.25	3.25	4.00	2.75	0.25	-0.259277	0.067871	0.929688	-3.150000	1.610000	-0.280000	668.00	-0.06	-0.04
0.42	6.25	6.00	4.00	4.50	2.00	2.50	0.50	0.75	1.50	1.50	1.75	1.75	2.25	1.25	0.50	0.75	-0.275879	0.014160	0.938965	-3.150000	4.340000	0.910000	430.00	-0.14	-0.07	7.75	5.50	5.75	5.50	5.50	3.25	1.25	0.75	4.00	2.00	3.00	3.00	3.00	3.75	2.50	0.75	-0.254883	0.072754	0.937500	-3.080000	1.540000	-0.210000	662.00	-0.06	-0.03
0.43	6.50	6.00	3.75	4.50	2.00	2.25	0.50	1.00	1.75	1.50	2.00	1.75	2.00	1.25	0.75	0.75	-0.279297	0.012695	0.929199	-3.290000	4.480000	0.840000	438.00	-0.13	-0.07	7.50	5.50	5.75	5.50	5.25	3.25	1.25	1.00	3.75	1.75	3.00	3.25	3.00	3.75	2.50	0.75	-0.252930	0.080566	0.933105	-3.080000	1.680000	-0.210000	657.00	-0.06	-0.04
0.44	6.25	6.00	3.75	4.50	2.25	2.50	0.50	0.75	1.75	1.50	1.75	1.75	2.00	1.25	0.50	0.50	-0.276367	0.012695	0.932617	-3.360000	4.620000	0.840000	430.00	-0.14	-0.07	7.50	5.50	5.75	5.50	5.25	3.00	1.25	1.00	4.00	2.00	3.00	3.25	3.25	3.75	2.75	1.00	-0.249023	0.068848	0.937500	-3.150000	1.610000	-0.140000	667.00	-0.05	-0.04
0.45	6.25	6.00	4.00	4.75	2.00	2.50	0.50	0.75	1.75	1.50	1.75	1.75	2.00	1.25	0.50	0.75	-0.284668	0.014160	0.935059	-3.430000	4.620000	0.840000	434.00	-0.14	-0.07	7.75	5.25	5.75	5.50	5.50	3.00	1.25	1.00	3.75	2.00	3.00	3.25	3.50	4.00	2.50	0.75	-0.252930	0.071289	0.935059	-3.220000	1.540000	-0.210000	667.00	-0.06	-0.04
0.46	6.50	6.00	4.00	4.00	2.00	2.25	0.50	0.75	1.50	1.50	1.75	1.50	1.75	1.25	0.50	0.75	-0.286133	0.013672	0.940918	-3.220000	4.690000	0.910000	416.00	-0.14	-0.06	7.50	5.50	5.75	5.25	5.50	3.25	1.50	0.75	4.00	2.00	3.00	3.25	3.50	4.00	2.75	0.75	-0.253418	0.070312	0.936523	-3.220000	1.610000	-0.280000	673.00	-0.05	-0.04
0.47	6.25	5.75	3.75	4.25	2.00	2.00	0.50	0.75	1.50	1.50	2.25	1.75	2.00	1.50	0.50	0.75	-0.280273	0.015137	0.932129	-3.080000	4.620000	0.980000	421.00	-0.13	-0.06	7.75	5.50	5.75	5.50	5.50	3.25	1.25	1.00	3.75	2.00	3.00	3.50	3.50	4.00	3.00	0.75	-0.257324	0.071777	0.937012	-3.150000	1.610000	-0.280000	681.00	-0.05	-0.04
0.48	6.25	6.00	3.75	4.75	2.00	2.00	0.50	0.75	1.50	1.25	1.75	1.75	1.75	1.50	0.50	0.50	-0.281250	0.009277	0.937988	-3.010000	4.550000	0.910000	417.00	-0.14	-0.06	7.50	5.25	5.75	5.50	5.50	2.75	1.25	1.00	4.00	2.00	3.00	3.25	2.75	4.00	2.50	1.00	-0.256348	0.069336	0.930176	-3.150000	1.610000	-0.280000	659.00	-0.06	-0.03
0.49	6.25	5.75	3.75	4.00	2.00	2.00	0.50	0.75	1.75	1.50	2.00	1.75	2.00	1.50	0.50	0.75	-0.279785	0.012695	0.939453	-2.940000	4.480000	1.050000	419.00	-0.12	-0.06	7.75	5.50	6.00	5.25	5.25	3.25	1.50	1.25	3.50	2.25	3.25	3.25	3.25	4.00	2.50	0.50	-0.255371	0.070801	0.932617	-3.010000	1.610000	-0.280000	676.00	-0.06	-0.04
0.50	6.00	5.75	3.75	4.25	2.00	1.75	0.50	0.75	1.50	1.75	2.00	1.75	1.75	1.25	0.50	0.50	-0.280273	0.011719	0.931641	-2.800000	4.550000	1.050000	409.00	-0.13	-0.06	7.50	5.25	5.75	5.50	5.50	3.25	1.50	1.00	4.25	2.00	3.00	3.50	3.25	4.00	2.50	0.75	-0.253418	0.071289	0.933105	-2.940000	1.470000	-0.280000	679.00	-0.05	-0.04
0.51	6.00	5.75	3.75	4.25	2.00	1.75	0.50	0.50	1.50	1.50	1.75	1.75	2.00	1.50	0.75	0.75	-0.279785	0.009277	0.941406	-2.730000	4.550000	1.050000	408.00	-0.13	-0.06	8.00	5.25	5.75	5.50	5.50	3.00	1.25	1.00	4.00	1.75	3.00	3.50	3.25	4.00	2.50	0.75	-0.257324	0.070801	0.938965	-2.800000	1.540000	-0.210000	671.00	-0.06	-0.04
0.52	6.25	5.75	3.50	4.00	2.00	2.25	0.50	0.75	1.25	1.50	1.75	1.75	1.75	1.50	0.50	0.75	-0.278809	0.017090	0.936523	-2.520000	4.410000	1.120000	407.00	-0.13	-0.07	7.75	5.25	5.75	5.50	5.50	3.25	1.25	0.75	3.75	2.00	3.25	3.25	2.50	3.75	2.75	0.75	-0.259766	0.072754	0.939453	-2.870000	1.610000	-0.140000	660.00	-0.06	-0.03
0.53	6.25	5.75	3.75	4.50	2.25	2.75	0.50	0.75	1.25	1.25	1.75	1.75	1.75	1.50	0.50	0.75	-0.280273	0.008789	0.942871	-2.660000	4.410000	1.050000	422.00	-0.14	-0.07	7.50	5.25	5.75	5.50	5.50	3.25	1.25	1.00	4.00	2.00	3.00	3.25	3.00	4.00	2.50	0.75	-0.256836	0.068848	0.934082	-2.940000	1.470000	-0.210000	666.00	-0.06	-0.04
0.54	6.00	6.00	4.00	4.25	2.00	2.25	0.50	0.75	1.75	1.50	1.75	1.50	1.75	1.25	0.50	0.75	-0.277344	0.014160	0.942383	-2.590000	4.550000	1.120000	417.00	-0.14	-0.06	7.75	5.25	5.75	5.50	5.50	3.25	1.50	1.00	4.00	2.00	3.00	3.25	3.50	3.75	2.75	0.75	-0.254395	0.068848	0.937012	-2.800000	1.330000	-0.070000	678.00	-0.05	-0.04
0.55	6.25	6.00	4.00	4.25	2.00	2.25	0.50	0.75	1.25	1.25	2.00	1.25	2.00	1.50	0.75	0.75	-0.275391	0.011230	0.936035	-2.450000	4.480000	1.190000	418.00	-0.14	-0.07	7.50	5.25	5.75	5.50	5.50	3.50	1.50	0.75	3.75	2.00	3.00	3.25	3.00	3.75	2.50	0.75	-0.260742	0.074707	0.931641	-2.940000	1.330000	-0.070000	663.00	-0.06	-0.04
0.56	6.25	6.00	3.75	4.50	2.00	2.00	0.50	0.75	1.50	1.50	1.75	1.75	1.50	1.50	0.75	0.75	-0.282227	0.013672	0.939941	-2.240000	4.410000	1.260000	419.00	-0.13	-0.06	7.75	5.25	5.75	5.50	5.50	3.25	1.25	1.00	3.75	2.00	3.00	3.50	3.00	4.00	2.50	1.00	-0.257324	0.075195	0.935059	-3.080000	1.400000	-0.140000	670.00	-0.06	-0.04
0.57	6.25	6.00	3.75	4.50	2.00	2.25	0.50	0.75	2.00	1.25	1.75	1.50	1.50	1.50	0.50	0.50	-0.280273	0.011719	0.937500	-2.310000	4.200000	1.190000	419.00	-0.14	-0.06	8.00	5.25	5.75	5.50	5.50	3.00	1.25	1.00	3.75	2.00	3.00	3.50	3.25	4.00	2.75	0.75	-0.256836	0.070312	0.932617	-3.150000	1.540000	-0.350000	673.00	-0.06	-0.04
0.58	6.75	6.00	4.00	4.50	1.75	2.00	0.50	0.75	1.75	1.50	1.75	1.50	1.75	1.25	0.75	0.50	-0.279297	0.017090	0.936523	-2.450000	4.550000	1.120000	424.00	-0.14	-0.06	8.00	5.25	6.00	5.50	5.50	3.00	1.25	1.00	3.75	1.75	3.00	3.00	3.00	4.00	2.50	0.75	-0.257812	0.073730	0.936035	-3.010000	1.400000	-0.280000	662.00	-0.06	-0.03
0.59	6.25	6.00	4.00	4.25	2.00	1.75	0.50	0.75	1.50	1.25	1.75	1.50	1.75	1.25	0.50	0.75	-0.279785	0.013184	0.939941	-2.520000	4.410000	1.120000	408.00	-0.14	-0.06	7.75	5.25	5.75	5.50	5.50	3.25	1.25	1.00	4.00	2.00	3.00	3.50	3.25	3.75	2.50	0.75	-0.252441	0.075684	0.935547	-3.080000	1.330000	-0.210000	672.00	-0.06	-0.04
0.60	6.50	6.00	3.75	4.25	2.00	2.00	0.50	0.75	1.75	1.50	1.75	1.50	2.00	1.25	0.50	0.75	-0.275879	0.013672	0.934082	-2.590000	4.270000	1.120000	419.00	-0.14	-0.06	8.00	5.50	5.75	5.50	5.50	3.25	1.25	0.75	3.75	1.75	3.00	3.00	3.00	4.00	2.50	0.50	-0.262207	0.072754	0.936035	-3.220000	1.330000	-0.280000	659.00	-0.07	-0.03
0.61	6.50	6.00	3.50	4.75	2.00	2.00	0.50	0.75	1.50	1.25	1.75	1.50	1.50	1.25	0.75	0.75	-0.274902	0.008789	0.933594	-2.660000	4.270000	1.050000	414.00	-0.14	-0.06	7.75	5.25	5.75	5.25	5.50	3.25	1.25	1.00	3.75	1.75	3.25	3.25	3.00	3.75	2.75	0.50	-0.254395	0.068359	0.941895	-3.220000	1.610000	-0.490000	661.00	-0.06	-0.04
0.62	6.00	5.75	3.75	4.50	2.00	2.50	0.50	0.75	1.50	1.75	1.75	1.25	1.75	1.50	0.50	0.50	-0.276367	0.015625	0.938965	-2.800000	4.270000	1.050000	415.00	-0.14	-0.06	7.75	5.25	6.00	5.50	5.50	3.25	1.50	0.75	4.00	1.75	3.25	3.00	3.00	3.75	2.75	0.75	-0.254883	0.070801	0.939453	-3.150000	1.610000	-0.350000	670.00	-0.06	-0.03
0.63	6.25	5.75	3.50	4.25	1.75	2.00	0.50	0.50	1.50	1.25	1.50	1.50	1.75	1.50	0.50	0.75	-0.282715	0.009766	0.930664	-2.800000	4.340000	0.980000	394.00	-0.14	-0.06	7.75	5.25	6.00	5.50	5.50	3.25	1.25	1.00	3.75	2.00	3.00	3.25	3.00	4.00	2.50	0.75	-0.260254	0.070801	0.935547	-2.940000	1.820000	-0.210000	668.00	-0.06	-0.04
0.64	6.50	6.25	4.00	4.25	2.00	2.25	0.50	0.75	2.00	1.25	1.75	1.75	1.75	1.50	0.75	0.75	-0.280762	0.015625	0.937500	-2.730000	4.480000	0.980000	434.00	-0.13	-0.06	7.75	5.25	6.00	5.50	5.75	3.00	1.50	0.75	3.75	1.75	2.75	3.25	3.25	3.75	2.50	0.75	-0.254883	0.071289	0.939941	-2.940000	1.820000	-0.210000	663.00	-0.06	-0.03
0.65	6.25	6.00	4.00	4.75	2.00	2.00	0.50	0.75	2.00	1.25	2.00	1.50	1.50	1.50	0.75	0.75	-0.279297	0.011230	0.934570	-2.800000	4.340000	1.050000	430.00	-0.13	-0.06	8.00	5.25	5.75	5.50	5.50	3.00	1.50	1.00	4.00	1.75	3.00	3.25	3.25	4.00	2.50	0.75	-0.258301	0.071289	0.928223	-2.800000	1.890000	-0.140000	672.00	-0.06	-0.03
0.66	6.25	5.75	3.75	4.50	2.00	2.50	0.50	0.75	1.50	1.50	1.75	1.50	1.75	1.50	0.50	0.75	-0.278809	0.016602	0.935547	-2.800000	4.340000	0.980000	419.00	-0.14	-0.06	7.75	5.25	5.75	5.50	5.50	3.25	1.25	0.75	4.00	1.75	2.75	3.25	3.00	4.00	2.50	1.00	-0.258789	0.069824	0.936523	-2.940000	1.890000	-0.350000	661.00	-0.06	-0.03
0.67	6.25	6.00	3.50	4.25	2.00	2.25	0.50	0.50	1.75	1.25	1.75	1.50	2.00	1.25	0.50	0.75	-0.278320	0.010254	0.942871	-2.870000	4.200000	1.050000	409.00	-0.14	-0.06	7.75	5.25	6.00	5.50	5.50	3.00	1.25	1.00	3.75	1.75	3.00	3.50	3.00	3.75	2.50	0.75	-0.252930	0.078125	0.938965	-2.940000	1.890000	-0.140000	663.00	-0.06	-0.04
0.68	6.25	5.75	3.75	4.25	2.00	2.25	0.50	0.75	1.50	1.25	2.00	1.50	1.75	1.50	0.50	0.75	-0.277832	0.012695	0.937988	-2.870000	4.270000	1.050000	413.00	-0.14	-0.06	7.75	5.25	5.75	5.50	5.50	3.00	1.25	1.00	3.75	2.00	3.00	3.25	3.25	3.75	2.50	0.75	-0.256348	0.067383	0.935059	-3.010000	1.750000	-0.210000	662.00	-0.06	-0.04
0.69	6.25	5.75	3.75	4.25	2.00	2.00	0.50	0.75	1.75	1.25	1.75	1.50	2.25	1.25	0.75	0.50	-0.279297	0.006836	0.938965	-2.940000	4.410000	0.980000	415.00	-0.13	-0.06	7.50	5.25	5.75	5.25	5.50	3.00	1.25	1.00	4.00	2.00	3.00	3.00	2.75	4.25	2.75	0.50	-0.258301	0.071289	0.939453	-2.730000	1.540000	-0.280000	659.00	-0.05	-0.03
0.70	6.25	5.75	3.75	4.25	2.00	2.25	0.50	1.00	1.75	1.75	1.75	1.50	2.00	1.50	0.50	0.75	-0.278320	0.008301	0.937500	-2.800000	4.130000	0.980000	426.00	-0.13	-0.06	8.00	5.25	5.75	5.50	5.50	3.00	1.25	1.00	3.75	2.00	2.75	3.25	3.25	4.00	2.50	0.50	-0.256836	0.069336	0.940430	-2.660000	1.260000	-0.140000	663.00	-0.06	-0.04
0.71	6.25	6.00	4.25	4.25	2.00	2.00	0.50	0.75	1.50	1.75	1.50	1.50	2.00	1.25	0.25	0.75	-0.281738	0.011719	0.938477	-2.240000	4.060000	1.120000	416.00	-0.14	-0.06	7.75	5.25	5.75	5.50	5.50	3.00	1.25	0.75	3.75	1.75	2.75	3.00	2.75	3.75	2.50	0.50	-0.255371	0.072266	0.940430	-2.800000	1.120000	-0.070000	643.00	-0.07	-0.03
0.72	6.25	6.00	3.75	4.25	2.00	2.25	0.50	0.75	1.50	1.25	1.50	1.25	1.75	1.50	0.50	0.50	-0.286133	0.011719	0.945312	-1.120000	3.920000	1.330000	406.00	-0.15	-0.06	8.00	5.25	5.75	5.50	5.50	3.00	1.25	1.00	4.00	2.00	2.75	3.00	3.00	3.75	2.50	0.50	-0.258301	0.070801	0.940918	-2.940000	1.120000	-0.140000	659.00	-0.06	-0.03
0.73	6.25	6.00	4.00	4.25	2.00	2.25	0.50	0.75	1.50	1.50	1.50	1.75	2.00	1.50	0.50	0.75	-0.270996	0.011719	0.931641	0.350000	3.920000	1.610000	421.00	-0.14	-0.06	7.75	5.25	5.75	5.50	5.50	3.00	1.25	0.75	3.50	1.75	2.75	3.25	2.75	3.75	2.25	0.50	-0.258301	0.075684	0.938477	-2.590000	1.260000	-0.140000	640.00	-0.07	-0.03
0.74	6.75	6.25	3.75	5.00	2.00	2.50	0.50	0.75	1.00	1.50	1.75	1.50	2.00	1.25	0.50	0.50	-0.280762	0.009766	0.937988	1.120000	3.500000	1.750000	427.00	-0.15	-0.07	8.25	5.25	5.75	5.50	5.50	2.75	1.25	0.75	3.50	1.75	2.50	3.00	2.25	3.75	2.25	0.50	-0.261719	0.074219	0.935059	-1.750000	1.050000	-0.000000	632.00	-0.08	-0.03
0.75	7.00	6.25	4.00	5.00	2.00	2.50	0.50	1.00	1.50	1.50	1.75	1.50	2.00	1.00	0.75	0.50	-0.280273	0.015625	0.935547	1.680000	3.080000	2.030000	445.00	-0.15	-0.07	8.00	5.25	5.75	5.50	5.25	2.75	1.00	0.75	3.50	1.75	2.50	2.75	2.50	3.50	2.25	0.50	-0.254395	0.073730	0.935547	-0.140000	0.700000	-0.000000	619.00	-0.08	-0.03
0.76	7.00	6.25	4.25	5.00	2.25	2.50	0.25	1.00	1.50	1.25	1.75	1.75	1.75	1.25	0.50	0.50	-0.280273	0.015137	0.938965	2.520000	2.450000	2.240000	444.00	-0.15	-0.07	8.25	5.25	5.75	5.50	5.25	3.00	1.00	0.75	3.25	1.50	2.25	2.50	2.00	3.25	2.25	1.25	-0.259277	0.073730	0.932617	-0.280000	0.630000	0.070000	610.00	-0.09	-0.03
0.77	7.75	6.75	4.50	5.25	2.00	2.50	0.25	1.00	1.00	1.00	1.50	1.75	2.25	1.25	0.50	1.00	-0.281738	0.013672	0.943848	3.360000	2.170000	2.450000	456.00	-0.17	-0.08	10.00	5.25	5.75	5.25	5.25	2.75	1.00	1.00	3.25	1.50	2.25	2.50	2.00	3.50	2.00	0.50	-0.258301	0.075195	0.944336	-0.210000	0.630000	0.280000	623.00	-0.10	-0.02
0.78	8.00	7.00	4.50	5.50	2.00	3.25	0.25	1.00	1.00	1.25	1.50	1.50	2.25	1.00	0.25	0.50	-0.279297	0.009766	0.945801	4.830000	2.310000	2.870000	465.00	-0.18	-0.08	8.25	5.50	6.00	5.50	5.25	2.50	0.75	0.50	3.00	1.50	2.00	2.50	1.75	3.50	1.75	0.50	-0.260254	0.077148	0.937988	0.140000	0.700000	0.280000	585.00	-0.10	-0.02
0.79	7.75	7.75	4.50	5.75	2.00	3.50	0.25	1.00	1.00	1.25	1.50	1.50	2.00	1.00	0.50	0.75	-0.284180	0.015137	0.946289	6.790000	2.450000	3.290000	477.00	-0.18	-0.09	9.00	5.50	5.75	5.50	5.25	2.50	0.75	0.50	2.50	1.00	2.00	2.25	1.75	3.00	1.75	0.25	-0.260742	0.076172	0.939941	0.630000	0.490000	0.350000	569.00	-0.12	-0.03
0.80	8.50	8.25	4.75	6.00	2.00	3.50	0.25	1.00	0.75	1.00	1.50	1.25	2.00	0.50	0.50	0.50	-0.277832	0.025879	0.946289	10.150000	2.380000	3.990000	481.00	-0.20	-0.09	9.00	5.75	5.75	5.50	5.00	2.50	0.75	0.75	2.50	1.00	1.75	2.00	1.50	3.00	1.50	0.25	-0.267578	0.075684	0.947266	2.030000	0.350000	0.560000	561.00	-0.13	-0.03
0.81	8.75	8.50	4.50	6.75	2.00	3.50	0.00	1.00	0.25	1.25	1.25	1.50	1.75	0.75	0.25	0.75	-0.286133	0.018066	0.943359	11.690000	2.380000	4.200000	483.00	-0.21	-0.10	9.25	6.00	6.00	5.50	5.00	2.50	0.50	0.50	2.00	1.00	1.25	1.75	1.25	2.75	1.50	0.00	-0.263184	0.076660	0.946289	3.850000	-0.350000	0.840000	540.00	-0.15	-0.03
0.82	9.25	9.00	4.75	7.25	1.75	4.00	0.00	1.00	0.50	0.75	1.25	1.50	2.00	0.50	0.50	0.75	-0.282227	0.035645	0.940918	11.900000	2.240000	4.130000	506.00	-0.22	-0.10	9.25	6.75	5.75	5.50	4.75	2.25	0.25	0.50	1.75	1.00	1.25	1.75	1.25	2.50	1.25	0.25	-0.257812	0.073730	0.941895	4.900000	-0.420000	0.910000	527.00	-0.16	-0.03
0.83	9.50	9.50	4.75	7.50	1.75	4.25	0.00	1.00	0.50	1.00	1.00	1.25	1.25	0.50	0.25	0.25	-0.275879	0.029785	0.944824	12.110000	1.750000	3.990000	504.00	-0.24	-0.09	9.50	6.50	5.75	5.50	4.50	2.25	0.25	0.50	1.25	0.75	1.25	1.50	1.00	2.25	1.25	0.00	-0.197266	0.108887	0.939941	5.250000	-0.350000	0.560000	505.00	-0.18	-0.03
0.84	10.25	9.75	4.75	7.75	1.75	4.00	0.00	0.75	0.25	0.75	1.25	1.25	1.00	0.25	0.25	0.50	-0.275391	0.032227	0.944336	11.690000	1.470000	3.990000	505.00	-0.25	-0.09	9.75	6.75	5.75	5.50	4.25	2.00	0.25	0.50	1.25	0.75	1.25	1.25	0.75	2.00	1.00	0.25	-0.236816	0.095703	0.933594	4.690000	-0.280000	0.560000	495.00	-0.19	-0.03
0.85	10.75	10.50	4.75	8.00	1.50	4.00	0.00	0.75	0.00	0.75	1.00	1.00	0.75	0.25	0.00	0.25	-0.281250	0.022461	0.936523	10.500000	1.190000	3.710000	502.00	-0.27	-0.09	9.75	6.75	5.75	5.50	4.00	2.25	0.25	0.25	1.00	0.75	1.00	1.00	0.50	2.00	1.00	0.00	-0.245605	0.081055	0.943848	3.780000	-0.070000	0.490000	478.00	-0.20	-0.03
0.86	11.25	11.00	4.75	8.25	1.50	4.00	0.00	0.75	0.00	0.75	0.75	0.75	0.50	0.50	0.25	0.25	-0.276367	0.037109	0.939453	9.590000	0.840000	3.290000	513.00	-0.27	-0.08	9.75	6.75	5.75	5.50	3.75	1.75	0.25	0.50	1.00	0.75	1.00	1.25	0.75	1.75	1.00	0.00	-0.246094	0.084961	0.938477	2.800000	0.210000	0.700000	476.00	-0.20	-0.03
0.87	11.25	11.00	4.50	8.50	1.50	3.75	0.00	0.50	0.00	0.50	1.00	1.00	0.25	0.00	0.00	0.50	-0.276367	0.027344	0.940918	9.310000	0.420000	3.010000	500.00	-0.29	-0.09	9.75	6.75	5.75	5.25	3.50	1.50	0.25	0.25	1.00	0.50	1.00	1.00	0.50	1.75	0.75	0.00	-0.254883	0.086914	0.942383	2.380000	0.490000	0.350000	452.00	-0.21	-0.02
0.88	12.00	11.25	4.75	8.50	1.50	3.75	0.00	0.50	0.25	0.50	0.50	0.75	0.50	0.25	0.00	0.50	-0.267090	0.040527	0.932617	7.210000	0.140000	2.590000	514.00	-0.29	-0.08	9.50	6.50	5.50	5.00	3.25	1.50	0.00	0.25	1.00	0.50	0.75	0.75	0.25	1.75	1.00	0.00	-0.260254	0.086914	0.941895	1.890000	-0.140000	0.350000	428.00	-0.22	-0.02
0.89	12.50	11.75	4.50	8.75	1.50	3.75	0.00	0.50	0.25	0.50	0.75	0.75	0.00	0.00	0.00	0.00	-0.140137	0.104492	0.944824	5.390000	0.420000	1.610000	517.00	-0.30	-0.08	10.00	6.75	5.50	5.25	3.25	1.25	0.00	0.25	0.75	0.50	0.75	0.75	0.00	1.75	0.75	0.00	-0.258301	0.089355	0.938477	0.700000	-0.910000	0.280000	428.00	-0.23	-0.02
0.90	13.00	12.25	4.75	8.75	1.25	4.00	0.00	0.50	0.00	0.25	0.50	0.50	0.00	0.00	0.00	0.50	-0.326660	0.011719	0.920410	5.180000	-0.350000	1.960000	522.00	-0.31	-0.08	9.75	6.75	5.25	5.00	3.00	1.00	0.00	0.25	0.75	0.50	0.50	0.75	0.50	1.50	0.50	0.00	-0.232422	0.080078	0.931641	-0.280000	-1.680000	-0.000000	410.00	-0.24	-0.02
0.91	13.50	12.50	4.50	8.75	1.25	4.00	0.00	0.25	0.00	0.25	0.50	0.50	0.00	0.00	0.25	0.25	-0.257324	0.043457	0.944824	3.220000	-0.280000	2.100000	524.00	-0.31	-0.08	10.00	7.00	5.50	5.25	3.00	1.00	0.00	0.00	0.50	0.25	0.50	0.50	0.00	1.25	0.50	0.00	-0.270020	0.089355	0.947754	-0.070000	-2.940000	0.560000	400.00	-0.26	-0.02
0.92	13.75	13.00	4.50	9.00	1.50	3.75	0.00	0.50	0.00	0.25	0.00	0.00	0.00	0.00	0.00	0.25	0.117188	0.201660	1.004883	4.410000	-0.140000	0.350000	525.00	-0.33	-0.07	10.50	7.00	5.50	5.25	2.75	1.00	0.00	0.25	0.50	0.50	0.50	0.50	0.00	1.25	0.50	0.00	-0.240723	0.134277	0.935547	1.120000	-4.340000	0.350000	410.00	-0.26	-0.02
0.93	14.50	13.25	4.75	9.00	1.25	3.75	0.00	0.25	0.00	0.25	0.50	0.50	0.50	0.00	0.00	0.00	-0.257812	0.043945	0.948730	4.340000	-1.750000	1.470000	546.00	-0.32	-0.07	11.25	7.00	5.50	5.25	2.75	1.00	0.00	0.00	0.25	0.25	0.25	0.50	0.00	1.25	0.50	0.00	-0.353027	0.023926	0.937988	1.120000	-5.390000	0.770000	405.00	-0.28	-0.02
0.94	14.25	13.50	4.75	9.25	1.25	3.75	0.00	0.25	0.00	0.50	0.50	0.50	0.00	0.00	0.00	0.00	-0.735840	-0.123535	0.848633	3.360000	-1.260000	1.330000	547.00	-0.32	-0.07	11.75	7.25	5.50	5.25	2.75	0.75	0.00	0.00	0.50	0.25	0.25	0.50	0.00	1.00	0.50	0.00	-0.268555	0.090332	0.944336	1.820000	-6.650000	1.260000	412.00	-0.28	-0.01
0.95	15.50	14.00	5.00	9.25	1.50	3.50	0.00	0.25	0.00	0.25	0.25	0.50	0.00	0.00	0.00	0.00	-0.259766	0.041504	0.923828	1.330000	-0.490000	1.750000	564.00	-0.33	-0.07	12.25	8.00	5.50	5.25	2.50	0.75	0.00	0.00	0.00	0.00	0.25	0.25	0.00	1.25	0.25	0.00	-0.244629	0.115723	0.956543	2.310000	-7.910000	1.680000	408.00	-0.30	-0.02
0.96	15.75	14.00	5.00	9.25	1.25	3.00	0.00	0.25	0.00	0.00	0.50	0.25	0.00	0.00	0.00	0.25	-0.298340	0.025879	0.939453	0.560000	-0.350000	1.470000	556.00	-0.33	-0.06	13.00	8.50	5.50	5.25	2.50	0.75	0.00	0.00	0.00	0.00	0.25	0.25	0.00	1.00	0.50	0.00	-0.266113	0.174805	0.943359	2.660000	-8.890000	1.400000	422.00	-0.30	-0.02
0.97	16.25	14.75	5.00	9.50	1.25	3.50	0.00	0.25	0.00	0.00	0.25	0.50	0.00	0.00	0.00	0.00	-0.292480	0.064941	0.914062	-1.470000	-1.050000	1.400000	577.00	-0.33	-0.07	13.00	9.00	5.50	5.50	2.25	0.50	0.00	0.00	0.00	0.00	0.00	0.00	0.00	1.00	0.50	0.00	-0.071777	0.212402	1.028320	3.010000	-7.000000	0.210000	419.00	-0.32	-0.02
0.98	16.25	14.50	5.00	9.50	1.25	3.50	0.00	0.00	0.00	0.00	0.50	0.25	0.00	0.00	0.00	0.00	-0.256348	0.052734	0.899902	-2.100000	0.070000	1.330000	570.00	-0.33	-0.06	14.25	9.25	5.50	5.75	2.25	1.00	0.00	0.00	0.00	0.00	0.00	0.00	0.00	0.75	0.25	0.00	-0.233398	0.089355	0.960449	0.490000	-7.840000	1.890000	439.00	-0.32	-0.02
0.99	16.25	14.75	5.00	9.50	1.25	3.25	0.00	0.25	0.00	0.50	0.25	0.25	0.00	0.00	0.00	0.00	-0.262695	0.053223	0.944824	-3.570000	1.610000	1.190000	577.00	-0.33	-0.06	15.50	10.00	5.75	5.75	2.25	0.75	0.00	0.00	0.00	0.00	0.00	0.00	0.00	0.50	0.25	0.00	-0.389648	0.005371	0.890137	-0.490000	-6.930000	1.540000	459.00	-0.33	-0.02
1.00	16.50	14.25	4.75	9.50	1.25	3.00	0.00	0.25	0.00	0.00	0.00	0.25	0.00	0.00	0.00	0.25	-0.420898	-0.119629	0.863281	-3.150000	2.590000	-0.280000	561.00	-0.34	-0.06	16.00	10.75	5.75	6.00	2.25	0.75	0.00	0.00	0.00	0.00	0.00	0.00	0.00	0.50	0.25	0.00	-0.241211	0.099609	0.936035	-0.000000	-6.790000	1.540000	475.00	-0.34	-0.02
1.01	16.50	14.75	5.00	9.25	1.00	3.25	0.00	0.00	0.00	0.00	0.25	0.00	0.00	0.00	0.00	0.00	-0.259277	0.058594	0.913574	-4.060000	2.520000	0.630000	561.00	-0.34	-0.06	16.25	11.50	5.75	6.00	2.25	1.00	0.00	0.00	0.00	0.00	0.00	0.00	0.00	0.25	0.25	0.00	-0.240234	0.099609	0.914551	-1.120000	-5.950000	1.820000	486.00	-0.34	-0.02
1.02	16.50	14.50	4.75	9.25	1.00	3.25	0.00	0.00	0.00	0.25	0.00	0.00	0.00	0.00	0.00	0.00	-0.253418	0.047363	0.921387	-6.790000	4.060000	0.980000	555.00	-0.34	-0.06	16.75	12.25	6.00	6.50	2.25	0.75	0.00	0.00	0.00	0.00	0.00	0.00	0.00	0.50	0.25	0.00	-0.241699	0.084961	0.931641	-2.170000	-4.410000	1.820000	507.00	-0.34	-0.02
1.03	16.25	14.50	5.00	9.25	1.25	2.75	0.00	0.00	0.00	0.25	0.25	0.00	0.00	0.00	0.00	0.00	-0.252930	0.046387	0.950195	-7.700000	5.040000	0.770000	555.00	-0.34	-0.06	18.75	13.00	5.75	6.75	2.25	1.00	0.00	0.00	0.00	0.00	0.00	0.00	0.00	0.50	0.00	0.00	-0.241699	0.103516	0.925781	-2.590000	-3.360000	1.470000	538.00	-0.34	-0.02
1.04	15.50	14.25	4.75	9.00	1.25	3.00	0.00	0.00	0.00	0.00	0.00	0.25	0.00	0.00	0.00	0.00	0.184570	0.232422	0.941406	-7.350000	6.370000	-0.770000	538.00	-0.34	-0.06	19.00	14.25	6.00	7.25	2.25	0.75	0.00	0.00	0.00	0.00	0.00	0.00	0.00	0.25	0.00	0.00	-0.234863	0.084961	0.929688	-2.380000	-2.870000	1.540000	557.00	-0.35	-0.02
1.05	15.25	13.75	4.50	9.00	1.00	2.50	0.00	0.00	0.00	0.25	0.25	0.00	0.00	0.00	0.00	0.00	-0.262695	0.055664	0.941406	-8.050000	6.510000	0.350000	521.00	-0.34	-0.06	20.00	15.50	6.25	7.75	2.25	1.00	0.00	0.00	0.00	0.00	0.00	0.00	0.00	0.50	0.25	0.00	-0.203125	0.120117	0.938965	-2.800000	-2.100000	1.260000	598.00	-0.34	-0.03
1.06	14.50	13.25	4.25	8.75	1.00	2.50	0.00	0.00	0.00	0.00	0.00	0.00	0.00	0.00	0.00	0.00	-0.266602	0.040039	0.921875	-10.500000	9.450000	0.840000	496.00	-0.35	-0.06	21.75	16.25	6.25	8.25	2.50	1.25	0.00	0.00	0.00	0.25	0.00	0.00	0.00	0.25	0.25	0.00	-0.233887	0.086426	0.918457	-3.290000	-1.260000	0.840000	638.00	-0.34	-0.03
1.07	13.50	12.75	3.75	8.50	1.25	2.25	0.00	0.50	0.25	0.00	0.25	0.00	0.00	0.00	0.00	0.00	-0.264160	0.042480	0.949707	-11.270000	11.130000	0.770000	485.00	-0.33	-0.07	23.25	18.00	6.75	8.50	2.50	1.25	0.00	0.00	0.00	0.00	0.00	0.00	0.00	0.25	0.25	0.00	-0.230957	0.084961	0.915527	-3.990000	-0.070000	0.490000	679.00	-0.35	-0.03
1.08	12.00	11.50	3.50	8.00	1.00	2.00	0.00	0.00	0.00	0.25	0.50	0.00	0.00	0.00	0.00	0.00	-0.196777	0.079590	0.982422	-12.040000	14.070000	0.000000	435.00	-0.33	-0.07	24.75	19.75	7.25	9.00	2.75	1.50	0.00	0.00	0.00	0.00	0.00	0.00	0.00	0.50	0.25	0.00	-0.243652	0.098633	0.899902	-4.830000	0.980000	0.140000	734.00	-0.35	-0.03
1.09	10.00	10.00	2.50	7.25	0.75	1.25	0.00	0.00	0.00	0.00	0.25	0.00	0.00	0.00	0.00	0.00	-0.244629	0.039062	0.931152	-14.420000	15.610000	0.000000	358.00	-0.34	-0.07	26.75	21.50	8.00	9.50	3.00	1.75	0.00	0.00	0.25	0.00	0.00	0.00	0.00	0.50	0.25	0.00	-0.237305	0.087402	0.906738	-6.440000	2.520000	0.140000	799.00	-0.34	-0.03
1.10	8.00	8.50	2.00	6.00	0.75	1.00	0.00	0.00	0.50	0.50	0.00	0.00	0.00	0.00	0.00	0.00	-0.244141	0.041504	0.962891	-19.320000	24.010000	-1.540000	306.00	-0.32	-0.06	28.25	23.75	8.25	10.75	3.00	2.00	0.00	0.00	0.25	0.00	0.00	0.00	0.00	0.75	0.25	0.00	-0.239746	0.095215	0.937500	-7.490000	4.060000	-0.000000	862.00	-0.34	-0.03
1.11	6.50	7.25	1.25	4.50	0.50	0.25	0.00	0.00	0.00	0.25	0.25	0.00	0.00	0.00	0.00	0.00	-0.236816	0.038574	0.953613	-20.020000	27.090000	-2.660000	230.00	-0.35	-0.07	29.50	24.25	8.75	11.50	3.25	2.25	0.00	0.25	0.00	0.00	0.00	0.00	0.00	0.50	0.25	0.00	-0.246094	0.091797	0.969238	-5.810000	3.290000	0.350000	900.00	-0.34	-0.04
1.12	5.00	5.50	1.25	2.75	0.50	0.50	0.00	0.00	0.00	0.25	0.50	0.00	0.00	0.00	0.00	0.25	-0.303223	-0.047852	0.842773	-20.510000	29.120001	-4.900000	182.00	-0.32	-0.06	31.00	26.50	9.00	12.25	3.75	2.50	0.00	0.25	0.00	0.00	0.25	0.00	0.00	0.50	0.25	0.00	-0.249023	0.088867	0.958008	-5.250000	2.730000	0.210000	964.00	-0.34	-0.04
1.13	2.50	2.25	0.50	0.75	0.50	0.50	0.00	0.00	0.25	0.50	0.00	0.00	0.00	0.00	0.00	0.00	-0.216797	0.101074	0.971191	-19.460001	33.670002	-12.320000	87.00	-0.28	-0.02	32.00	27.25	9.25	12.75	3.75	3.00	0.00	0.25	0.25	0.00	0.25	0.00	0.00	0.50	0.25	0.00	-0.246582	0.090332	0.955566	-5.250000	2.380000	0.280000	1001.00	-0.34	-0.04
1.14	2.50	1.25	0.25	0.00	0.00	0.00	0.00	0.00	0.00	0.00	0.25	0.25	0.00	0.00	0.00	0.00	-0.224121	0.036621	1.121582	-39.270000	55.790001	-29.469999	50.00	0.00	0.00	33.00	28.00	9.50	13.25	3.75	3.00	0.00	0.25	0.00	0.00	0.00	0.25	0.00	0.75	0.50	0.00	-0.233398	0.097656	0.951660	-6.020000	2.450000	0.280000	1031.00	-0.34	-0.04
1.15	0.00	0.50	0.00	0.25	0.00	0.00	0.00	0.00	0.00	0.25	0.25	0.00	0.00	0.00	0.00	0.00	-0.192871	0.168457	1.372070	-22.960001	105.000000	-45.220001	14.00	0.00	0.00	33.75	28.50	9.50	14.00	4.00	3.50	0.00	0.00	0.25	0.00	0.00	0.00	0.00	0.50	0.50	0.00	-0.240723	0.092773	0.947266	-6.650000	2.800000	0.140000	1056.00	-0.34	-0.04
1.16	0.25	0.00	0.25	0.25	0.00	0.00	0.00	0.25	0.00	0.00	0.00	0.00	0.00	0.00	0.00	0.00	-0.109863	0.143555	1.483398	-4.270000	145.600006	-69.090004	13.00	0.00	0.00	33.75	28.75	9.75	14.00	4.25	3.25	0.00	0.50	0.25	0.00	0.25	0.00	0.00	0.00	0.50	0.00	-0.241699	0.092285	0.950684	-7.140000	3.430000	-0.070000	1068.00	-0.34	-0.04
1.17	0.00	0.00	0.00	0.00	0.00	0.00	0.00	0.00	0.00	0.00	0.00	0.00	0.00	0.00	0.00	0.00	-0.150391	0.255859	1.652344	26.460001	158.830002	-84.070000	0.00	0.00	0.00	33.50	28.75	9.50	14.25	4.25	3.50	0.00	0.25	0.25	0.25	0.00	0.25	0.00	0.50	0.50	0.00	-0.239258	0.092285	0.952637	-6.860000	3.430000	-0.140000	1072.00	-0.34	-0.04
1.18	0.50	0.00	0.00	0.00	0.00	0.00	0.00	0.00	0.00	0.00	0.00	0.00	0.00	0.00	0.00	0.00	-0.029297	0.285645	1.658203	57.889999	158.479996	-92.820000	6.00	0.00	0.00	33.25	28.75	9.75	14.25	4.50	3.75	0.00	0.25	0.25	0.00	0.25	0.00	0.00	0.50	0.50	0.00	-0.240723	0.090820	0.949707	-6.510000	3.430000	-0.280000	1075.00	-0.34	-0.04
1.19	0.25	0.00	0.00	0.00	0.00	0.00	0.00	0.00	0.50	0.00	0.00	0.00	0.00	0.00	0.00	0.00	0.179199	0.315918	1.688965	67.199997	150.639999	-101.919998	10.00	0.00	0.00	32.75	28.25	9.75	14.25	4.50	3.50	0.00	0.50	0.25	0.25	0.25	0.25	0.00	0.25	0.50	0.00	-0.242676	0.086914	0.943359	-6.090000	3.500000	-0.350000	1069.00	-0.33	-0.04
1.20	0.25	0.00	0.00	0.00	0.00	0.00	0.00	0.00	0.00	0.00	0.00	0.00	0.00	0.00	0.00	0.00	0.106934	0.455078	1.898438	56.840000	132.930008	-107.940002	3.00	0.00	0.00	32.00	27.75	9.75	14.25	4.25	3.75	0.00	0.25	0.25	0.25	0.25	0.25	0.00	0.50	0.50	0.00	-0.239258	0.089844	0.946777	-5.950000	3.430000	-0.280000	1054.00	-0.33	-0.04
1.21	0.00	0.00	0.00	0.00	0.00	0.00	0.00	0.00	0.00	0.00	0.00	0.00	0.00	0.00	0.00	0.00	0.375000	0.465332	2.029297	33.180000	102.900002	-106.470001	0.00	0.00	0.00	32.00	27.50	9.50	14.00	4.75	3.75	0.00	0.25	0.00	0.25	0.25	0.25	0.00	0.25	0.25	0.00	-0.245117	0.088379	0.948242	-6.020000	3.430000	-0.280000	1042.00	-0.34	-0.04
1.22	0.00	0.00	0.00	0.00	0.00	0.00	0.00	0.00	0.00	0.00	0.00	0.00	0.00	0.00	0.00	0.00	0.568848	0.506836	1.807129	10.430000	68.250000	-96.459999	0.00	0.00	0.00	31.00	27.00	9.50	14.00	4.50	3.75	0.00	0.00	0.00	0.25	0.50	0.25	0.00	0.50	0.50	0.00	-0.243652	0.089355	0.947754	-6.020000	3.570000	-0.420000	1027.00	-0.33	-0.04
1.23	0.00	0.00	0.00	0.00	0.00	0.00	0.00	0.00	0.00	0.00	0.00	0.00	0.00	0.00	0.00	0.00	0.666504	0.483887	1.419434	-4.900000	43.049999	-83.580002	0.00	0.00	0.00	31.25	26.50	9.50	14.00	4.75	3.75	0.00	0.25	0.25	0.25	0.25	0.25	0.00	0.75	0.25	0.00	-0.241211	0.088379	0.946777	-6.090000	3.570000	-0.350000	1032.00	-0.33	-0.04
1.24	0.00	0.00	0.00	0.00	0.00	0.00	0.00	0.00	0.00	0.00	0.00	0.00	0.00	0.00	0.00	0.00	0.875488	0.461914	0.939453	0.350000	25.969999	-59.709999	0.00	0.00	0.00	30.50	26.00	9.50	13.50	4.75	3.75	0.00	0.25	0.75	0.25	0.50	0.25	0.00	0.25	0.50	0.00	-0.248047	0.085449	0.937988	-6.300000	3.710000	-0.420000	1021.00	-0.32	-0.04
1.25	0.00	0.00	0.00	0.00	0.00	0.00	0.00	0.00	0.00	0.00	0.00	0.00	0.00	0.00	0.00	0.00	0.974121	0.432617	0.930664	19.879999	21.559999	-49.279999	0.00	0.00	0.00	31.00	25.75	9.25	13.50	4.75	4.00	0.00	0.50	0.50	0.50	0.50	0.25	0.00	0.50	0.50	0.00	-0.247559	0.083984	0.944824	-6.580000	3.570000	-0.350000	1030.00	-0.32	-0.04
1.26	0.00	0.00	0.00	0.00	0.00	0.00	0.00	0.00	0.00	0.00	0.00	0.00	0.00	0.00	0.00	0.00	1.064453	0.378906	0.988770	41.720001	13.440001	-38.639999	0.00	0.00	0.00	30.25	25.50	9.50	13.50	4.75	4.00	0.25	0.25	0.25	0.25	0.50	0.25	0.00	0.50	0.50	0.00	-0.245605	0.083984	0.947266	-6.580000	3.290000	-0.350000	1015.00	-0.32	-0.04
1.27	0.25	0.00	0.00	0.00	0.00	0.00	0.00	0.00	0.00	0.00	0.00	0.00	0.00	0.00	0.00	0.00	1.137695	0.323730	1.030762	58.029999	0.350000	-27.160000	3.00	0.00	0.00	30.00	25.00	9.25	13.25	5.00	4.00	0.25	0.00	0.25	0.25	0.75	0.25	0.00	0.50	0.50	0.00	-0.249023	0.085938	0.949707	-6.230000	2.940000	-0.280000	1003.00	-0.32	-0.04
1.28	0.00	0.00	0.00	0.00	0.00	0.00	0.00	0.00	0.00	0.00	0.00	0.00	0.00	0.00	0.00	0.00	1.173340	0.247070	1.060547	66.430000	-16.240000	-13.720000	0.00	0.00	0.00	29.75	24.50	9.50	13.25	5.00	4.00	0.25	0.25	0.25	0.50	0.25	0.50	0.00	0.50	0.50	0.00	-0.244629	0.080566	0.944336	-6.160000	2.870000	-0.350000	1002.00	-0.32	-0.04
1.29	0.00	0.00	0.00	0.00	0.00	0.00	0.00	0.00	0.00	0.00	0.00	0.00	0.00	0.00	0.00	0.00	1.159668	0.159668	1.070312	67.129997	-33.950001	0.630000	0.00	0.00	0.00	29.00	24.25	9.25	13.00	5.00	4.00	0.25	0.25	0.50	0.50	0.25	0.25	0.00	0.50	0.50	0.00	-0.250488	0.085938	0.942383	-5.880000	2.590000	-0.350000	986.00	-0.32	-0.04
1.30	0.00	0.00	0.00	0.00	0.00	0.00	0.00	0.00	0.00	0.00	0.00	0.00	0.00	0.00	0.00	0.00	1.106934	0.083984	1.035645	61.110001	-51.310001	14.700000	0.00	0.00	0.00	29.00	24.00	9.25	13.00	5.00	3.75	0.25	0.25	0.50	0.50	0.50	0.25	0.00	0.50	0.50	0.00	-0.247070	0.081543	0.940918	-5.810000	2.310000	-0.350000	983.00	-0.32	-0.04
1.31	0.25	0.00	0.00	0.00	0.00	0.00	0.00	0.00	0.00	0.00	0.00	0.00	0.00	0.00	0.00	0.00	1.011719	0.000488	0.991211	52.080002	-66.639999	27.650000	3.00	0.00	0.00	28.50	23.75	9.25	13.25	5.00	4.00	0.25	0.25	0.50	0.50	0.50	0.25	0.00	0.25	0.25	0.00	-0.246582	0.084961	0.937988	-6.230000	2.240000	-0.350000	976.00	-0.32	-0.04
1.32	0.00	0.00	0.00	0.00	0.00	0.00	0.00	0.00	0.00	0.00	0.00	0.00	0.00	0.00	0.00	0.00	0.901855	-0.069336	0.994141	43.750000	-78.820000	38.500000	0.00	0.00	0.00	28.75	23.00	9.50	13.00	5.25	4.00	0.25	0.25	0.75	0.25	0.50	0.25	0.00	0.50	0.50	0.00	-0.245117	0.080566	0.945312	-7.140000	2.520000	-0.420000	980.00	-0.31	-0.04
1.33	0.00	0.00	0.00	0.00	0.00	0.00	0.00	0.00	0.00	0.00	0.00	0.00	0.00	0.00	0.00	0.00	0.798828	-0.126953	1.029297	37.310001	-88.620003	47.040001	0.00	0.00	0.00	28.00	23.25	9.50	12.75	5.50	4.25	0.25	0.25	0.50	0.50	0.75	0.25	0.00	0.50	0.75	0.00	-0.249512	0.073242	0.936523	-7.700000	2.660000	-0.700000	982.00	-0.31	-0.04
1.34	0.00	0.00	0.00	0.00	0.00	0.00	0.00	0.00	0.00	0.00	0.00	0.00	0.00	0.00	0.00	0.00	0.685547	-0.169922	1.075684	32.480000	-97.860001	53.619999	0.00	0.00	0.00	27.75	23.00	9.50	13.00	5.50	4.25	0.25	0.25	0.50	0.50	0.50	0.50	0.00	0.50	0.50	0.00	-0.239746	0.081055	0.930176	-8.050000	2.520000	-0.700000	977.00	-0.31	-0.04
1.35	0.00	0.00	0.00	0.00	0.00	0.00	0.00	0.00	0.00	0.00	0.00	0.00	0.00	0.00	0.00	0.00	0.557617	-0.223633	1.119141	27.440001	-106.120003	58.310001	0.00	0.00	0.00	27.75	22.75	9.50	13.00	5.75	4.50	0.25	0.25	0.75	0.50	0.75	0.50	0.00	0.75	0.75	0.00	-0.247559	0.076172	0.934082	-9.450000	2.590000	-1.190000	992.00	-0.30	-0.04
1.36	0.00	0.00	0.00	0.00	0.00	0.00	0.00	0.00	0.00	0.00	0.00	0.00	0.00	0.00	0.00	0.00	0.427734	-0.271973	1.167969	20.510000	-112.910004	61.670002	0.00	0.00	0.00	27.50	22.50	9.75	13.00	6.00	4.25	0.25	0.50	0.75	0.75	0.75	0.50	0.00	0.75	0.75	0.00	-0.245117	0.077148	0.934082	-10.290000	2.520000	-1.330000	997.00	-0.30	-0.04
1.37	0.00	0.00	0.00	0.00	0.00	0.00	0.00	0.00	0.00	0.00	0.00	0.00	0.00	0.00	0.00	0.00	0.293457	-0.276367	1.287109	11.760000	-119.139999	63.840000	0.00	0.00	0.00	27.00	22.25	9.75	12.75	6.25	4.75	0.50	0.25	0.75	0.50	1.00	0.25	0.00	0.50	0.50	0.00	-0.239258	0.077148	0.930664	-11.130000	2.100000	-1.470000	986.00	-0.30	-0.04
1.38	0.00	0.00	0.00	0.00	0.00	0.00	0.00	0.00	0.00	0.00	0.00	0.00	0.00	0.00	0.00	0.00	0.155762	-0.276367	1.399902	1.540000	-126.489998	64.959999	0.00	0.00	0.00	26.75	22.00	10.25	12.75	6.50	4.75	0.50	0.50	1.25	0.75	1.00	0.75	0.00	0.75	0.75	0.00	-0.252441	0.074219	0.932129	-12.250000	2.100000	-1.680000	1015.00	-0.29	-0.04
1.39	0.00	0.00	0.00	0.00	0.00	0.00	0.00	0.00	0.00	0.00	0.00	0.00	0.00	0.00	0.00	0.00	-0.122070	-0.223633	1.497070	-16.660000	-144.339996	63.349998	0.00	0.00	0.00	26.25	21.50	11.00	12.75	7.00	5.00	0.50	0.75	1.25	0.75	1.00	0.50	0.00	0.75	1.00	0.00	-0.242676	0.073242	0.936035	-13.230000	2.170000	-1.890000	1027.00	-0.28	-0.04
1.40	0.00	0.00	0.00	0.00	0.00	0.00	0.00	0.00	0.50	0.00	0.00	0.00	0.00	0.00	0.00	0.00	-0.259766	-0.172852	1.496094	-21.000000	-151.550003	60.340000	7.00	0.00	0.00	25.75	21.25	11.00	12.75	7.25	5.25	0.75	0.75	1.50	1.00	1.00	0.75	0.25	1.50	0.50	0.00	-0.245117	0.071289	0.940430	-13.580000	1.820000	-1.960000	1042.00	-0.27	-0.03
1.41	0.00	0.00	0.00	0.00	0.00	0.00	0.00	0.00	0.00	0.00	0.00	0.00	0.00	0.00	0.00	0.00	-0.377930	-0.116211	1.467773	-21.070000	-156.240005	55.790001	0.00	0.00	0.00	25.00	20.25	11.00	12.25	7.75	5.25	0.75	0.75	1.75	1.25	1.25	1.00	0.00	1.25	1.25	0.25	-0.250977	0.070801	0.937500	-13.370000	1.680000	-2.100000	1041.00	-0.26	-0.03
1.42	0.00	0.00	0.00	0.00	0.00	0.00	0.00	0.00	0.00	0.00	0.00	0.00	0.00	0.00	0.00	0.00	-0.486816	-0.062500	1.473145	-18.410000	-158.130005	50.400002	0.00	0.00	0.00	22.25	20.50	11.50	13.00	8.50	5.50	1.00	1.50	3.50	1.25	1.50	2.25	1.75	2.75	2.25	1.00	-0.243652	0.071289	0.937012	-13.160000	1.330000	-2.030000	1144.00	-0.21	-0.04
1.43	0.00	0.00	0.00	0.00	0.00	0.00	0.00	0.00	0.00	0.00	0.00	0.00	0.00	0.00	0.00	0.00	-0.567383	0.013184	1.526855	-13.160000	-160.089996	44.520000	0.00	0.00	0.00	28.25	19.25	11.50	12.75	8.50	5.75	1.50	1.75	3.00	1.50	2.25	1.75	1.25	2.75	2.50	1.00	-0.246094	0.068848	0.940918	-12.600000	0.840000	-2.030000	1209.00	-0.22	-0.03
1.44	0.00	0.00	0.00	0.00	0.00	0.00	0.00	0.00	0.00	0.00	0.00	0.00	0.00	0.00	0.00	0.00	-0.647949	0.079590	1.539551	-7.000000	-163.800003	38.639999	0.00	0.00	0.00	32.50	25.00	14.25	16.25	10.25	8.00	2.00	2.00	4.50	2.25	3.00	2.75	2.75	3.00	2.25	1.25	-0.244629	0.062988	0.936035	-11.690000	1.120000	-2.100000	1516.00	-0.21	-0.04
1.45	0.00	0.00	0.00	0.00	0.00	0.00	0.00	0.00	0.00	0.00	0.00	0.00	0.00	0.00	0.00	0.00	-0.717285	0.142090	1.502441	0.700000	-169.050003	32.900002	0.00	0.00	0.00	24.50	19.50	11.75	13.75	9.75	7.00	2.00	1.50	3.25	1.75	2.00	1.75	0.75	2.50	2.50	1.25	-0.242188	0.063965	0.934570	-10.570000	1.330000	-1.890000	1216.00	-0.21	-0.03
1.46	0.00	0.00	0.00	0.00	0.00	0.00	0.00	0.00	0.00	0.00	0.00	0.00	0.00	0.00	0.00	0.00	-0.806641	0.178223	1.479980	8.890000	-173.740005	28.000000	0.00	0.00	0.00	22.50	17.25	11.50	12.50	9.50	7.25	3.00	1.50	4.00	1.75	3.00	3.50	3.25	2.00	2.50	1.50	-0.248535	0.060547	0.932129	-9.380000	1.470000	-1.750000	1232.00	-0.18	-0.04
1.47	0.00	0.00	0.00	0.00	0.00	0.00	0.00	0.00	0.00	0.00	0.00	0.00	0.00	0.00	0.00	0.00	-0.870117	0.204590	1.385254	14.490000	-176.889999	24.780001	0.00	0.00	0.00	19.50	17.00	13.25	14.50	11.25	7.75	3.50	2.75	6.50	2.75	3.75	3.25	4.00	4.00	3.00	1.50	-0.250977	0.063965	0.935059	-6.160000	2.590000	-1.400000	1381.00	-0.14	-0.04
1.48	0.00	0.00	0.00	0.00	0.00	0.00	0.00	0.00	0.00	0.00	0.00	0.00	0.00	0.00	0.00	0.00	-0.937500	0.204102	1.246094	16.170000	-178.009995	23.030001	0.00	0.00	0.00	19.25	17.00	12.00	14.00	11.00	7.75	4.00	2.00	6.25	2.75	4.25	4.25	4.75	4.50	3.25	1.75	-0.208984	0.052734	0.931641	-4.830000	3.570000	-1.400000	1379.00	-0.13	-0.04
1.49	0.00	0.00	0.00	0.00	0.00	0.00	0.00	0.00	0.00	0.00	0.00	0.00	0.00	0.00	0.00	0.00	-1.031250	0.202148	1.119629	15.330000	-175.490005	22.049999	0.00	0.00	0.00	22.75	15.50	12.75	13.75	12.00	9.25	5.00	3.50	7.75	4.00	7.00	6.00	5.50	4.75	3.50	2.50	-0.254883	0.060059	0.928711	-3.850000	4.760000	-1.260000	1585.00	-0.10	-0.04
1.50	0.00	0.00	0.00	0.00	0.00	0.00	0.00	0.00	0.00	0.00	0.00	0.00	0.00	0.00	0.00	0.00	-1.113770	0.217773	0.993652	14.350000	-168.839996	21.700001	0.00	0.00	0.00	20.00	12.50	12.25	13.00	11.75	9.25	5.25	4.00	8.25	4.50	7.75	7.00	6.25	5.25	3.75	2.75	-0.270508	0.066895	0.945801	-3.010000	6.300000	-1.260000	1567.00	-0.08	-0.04
1.51	0.00	0.00	0.00	0.00	0.00	0.00	0.00	0.00	0.00	0.00	0.00	0.00	0.00	0.00	0.00	0.00	-1.161621	0.216309	0.845703	13.650000	-159.669998	21.700001	0.00	0.00	0.00	16.50	10.00	11.25	12.00	11.75	9.25	5.50	4.75	8.75	5.25	8.25	7.75	6.50	5.75	4.25	2.75	-0.260742	0.048340	0.927246	-2.100000	7.910000	-1.120000	1538.00	-0.05	-0.05
1.52	0.00	0.00	0.00	0.00	0.00	0.00	0.00	0.00	0.00	0.00	0.00	0.00	0.00	0.25	0.00	0.00	-1.217773	0.213379	0.660156	13.370000	-147.559998	21.700001	2.00	0.00	0.00	13.00	8.25	9.75	10.50	11.50	9.50	6.00	5.50	9.25	6.00	9.25	8.25	8.00	6.00	4.50	3.00	-0.246094	0.057129	0.927734	-1.470000	10.360000	-0.980000	1519.00	-0.02	-0.06
1.53	0.00	0.00	0.00	0.00	0.00	0.00	0.00	0.00	0.00	0.00	0.00	0.00	0.00	0.00	0.00	0.00	-1.375977	0.193359	0.561523	15.260000	-133.070007	21.420000	0.00	0.00	0.00	9.75	7.00	8.75	9.50	10.75	9.25	6.25	5.75	9.75	7.25	10.00	8.75	8.50	6.25	5.00	3.75	-0.237793	0.055176	0.934570	-1.820000	13.160000	-1.050000	1494.00	0.01	-0.06
1.54	0.00	0.00	0.00	0.00	0.00	0.00	0.00	0.00	0.00	0.00	0.00	0.00	0.00	0.00	0.00	0.00	-1.596191	0.100098	0.337402	24.150000	-98.910004	17.219999	0.00	0.00	0.00	8.50	6.00	7.00	6.75	9.00	7.50	6.50	5.00	9.00	7.00	9.75	8.75	9.00	6.50	5.00	4.25	-0.190430	0.066406	0.937012	-3.640000	16.940001	-1.820000	1359.00	0.03	-0.06
1.55	0.00	0.00	0.00	0.00	0.00	0.00	0.00	0.00	0.00	0.00	0.00	0.00	0.00	0.00	0.00	0.00	-1.695312	0.070312	0.241211	24.920000	-81.059998	11.690000	0.00	0.00	0.00	6.50	4.00	5.75	5.25	8.00	7.00	7.00	5.25	10.25	8.00	11.00	9.75	9.75	6.75	5.00	4.00	-0.259277	0.076172	0.952637	-5.530000	21.350000	-2.590000	1341.00	0.06	-0.06
1.56	0.00	0.00	0.00	0.00	0.00	0.00	0.00	0.00	0.00	0.00	0.00	0.00	0.00	0.00	0.00	0.00	-1.787109	0.070312	0.200195	24.430000	-62.860001	4.900000	0.00	0.00	0.00	4.50	3.00	4.00	4.50	7.00	6.25	7.25	5.50	10.50	8.25	11.00	9.50	9.25	6.50	4.50	3.75	-0.259766	0.057617	0.938477	-5.530000	26.320000	-3.570000	1254.00	0.08	-0.06
1.57	0.00	0.00	0.00	0.00	0.00	0.00	0.00	0.00	0.00	0.00	0.00	0.00	0.00	0.00	0.00	0.00	-1.847168	0.066406	0.073242	25.200001	-42.700001	-2.030000	0.00	0.00	0.00	3.00	1.75	2.75	3.00	5.75	5.25	7.75	5.50	11.25	8.75	11.50	10.00	9.75	7.00	5.00	4.50	-0.381348	0.256348	0.989258	-4.970000	29.330000	-3.360000	1220.00	0.12	-0.05
1.58	0.00	0.00	0.00	0.00	0.00	0.00	0.00	0.00	0.00	0.00	0.00	0.00	0.00	0.00	0.00	0.00	-1.875488	0.052246	-0.106445	25.410000	-17.360001	-8.820000	0.00	0.00	0.00	1.50	1.50	2.25	1.75	4.00	4.25	7.75	5.25	12.00	9.50	12.00	10.25	10.25	7.25	5.00	4.75	-0.253418	0.055176	0.928711	-3.290000	34.790001	-3.710000	1179.00	0.15	-0.05
1.59	0.00	0.00	0.00	0.00	0.00	0.00	0.00	0.00	0.00	0.00	0.00	0.00	0.00	0.00	0.00	0.00	-4.289551	0.755859	-2.854492	16.940001	-7.700000	-23.660000	0.00	0.00	0.00	1.75	0.75	1.50	1.50	2.75	3.25	8.00	5.00	12.25	9.75	12.50	10.75	10.25	7.50	5.50	5.00	-0.267090	0.043457	0.967285	-1.050000	52.150002	-5.460000	1163.00	0.16	-0.05
1.60	0.00	0.00	0.00	0.00	0.00	0.00	0.00	0.00	0.00	0.00	0.00	0.00	0.00	0.00	0.00	0.00	-1.759277	-0.421875	-1.776855	6.930000	121.800003	-9.800000	0.00	0.00	0.00	1.25	0.50	1.50	1.00	2.00	2.00	8.00	4.00	12.75	10.25	13.00	11.00	10.50	7.75	5.75	5.25	-0.263184	0.087402	0.941895	-0.840000	65.870003	-6.720000	1138.00	0.18	-0.04
1.61	0.75	1.00	0.00	0.00	0.00	0.00	0.00	0.00	0.00	0.00	0.00	0.00	0.00	0.00	0.00	0.00	-0.078125	0.378418	1.254883	-26.880001	214.690002	-8.820000	19.00	0.00	0.00	1.00	0.50	1.25	0.75	1.75	2.00	7.75	4.00	13.25	10.75	13.25	11.25	10.50	8.00	6.25	5.50	-0.429199	-0.051270	0.813477	-0.070000	80.150002	-7.280000	1150.00	0.19	-0.04
1.62	1.50	2.50	0.00	0.25	0.00	0.00	0.00	0.00	0.00	0.00	0.00	0.00	0.00	0.00	0.00	0.00	0.294434	0.424316	1.883301	-29.190001	196.770004	-4.480000	45.00	0.00	0.00	0.25	0.50	1.25	0.50	1.25	1.25	7.75	3.50	13.50	11.00	13.50	11.25	10.50	8.25	6.50	5.50	-0.325195	0.031738	1.078613	-0.280000	101.709999	-7.980000	1130.00	0.20	-0.03
1.63	2.50	4.25	0.00	0.25	0.00	0.00	0.00	0.00	0.00	0.00	0.00	0.00	0.00	0.00	0.00	0.00	-0.053223	0.068359	1.074707	-49.070000	155.820007	-3.780000	74.00	-0.41	-0.06	0.50	0.25	0.75	0.50	1.25	0.75	7.75	3.00	13.75	11.50	13.75	11.25	10.25	8.50	6.75	5.50	-0.341309	0.020996	0.903809	-3.920000	129.430008	-9.170000	1125.00	0.21	-0.03
1.64	3.75	5.25	0.00	0.50	0.00	0.00	0.00	0.00	0.00	0.00	0.00	0.00	0.00	0.00	0.00	0.00	-0.194336	0.028320	0.370605	-74.480003	155.820007	-7.560000	101.00	-0.40	-0.05	0.25	0.25	0.75	0.25	1.00	0.75	7.75	2.75	14.00	11.50	13.75	11.25	10.00	8.50	6.75	5.75	-0.149414	0.093750	1.235352	-9.310000	162.680008	-10.710000	1115.00	0.21	-0.03
1.65	5.00	6.00	0.00	1.00	0.00	0.00	0.00	0.00	0.00	0.00	0.00	0.00	0.00	0.00	0.00	0.00	-0.318848	0.235352	0.916016	-65.309998	181.229996	-1.890000	129.00	-0.40	-0.05	0.00	0.25	0.50	0.00	0.75	0.75	7.50	2.75	14.00	11.75	13.75	11.25	9.50	8.75	7.00	5.75	-0.255371	0.185547	1.424805	-13.580000	194.740005	-12.950000	1102.00	0.22	-0.02
1.66	5.50	7.50	0.00	1.25	0.00	0.00	0.00	0.00	0.00	0.00	0.00	0.00	0.00	0.00	0.00	0.00	-0.388184	0.053223	1.579590	-45.009998	184.589996	8.050000	153.00	-0.40	-0.06	0.00	0.00	0.00	0.00	0.50	0.25	7.50	2.00	13.75	12.00	14.00	11.25	9.00	9.00	7.50	6.00	-0.511719	0.027832	0.827148	-18.410000	217.699997	-15.820000	1079.00	0.23	-0.02
1.67	7.50	8.75	0.00	1.50	0.00	0.00	0.00	0.00	0.00	0.00	0.00	0.00	0.00	0.00	0.00	0.00	-0.405273	-0.227051	1.591309	-40.110001	167.020004	8.260000	191.00	-0.40	-0.05	0.00	0.00	0.25	0.00	0.75	0.75	7.75	2.25	14.50	12.25	13.75	12.00	9.50	9.50	8.25	6.50	-0.440430	0.033203	0.974609	-23.240000	237.720001	-19.040001	1140.00	0.23	-0.02
1.68	8.75	9.50	0.00	2.00	0.00	0.00	0.00	0.00	0.00	0.00	0.00	0.00	0.00	0.00	0.00	0.00	-0.370605	-0.387207	1.351074	-38.639999	153.509995	-0.280000	219.00	-0.40	-0.05	1.00	0.75	1.50	0.75	1.25	0.25	7.75	3.25	16.00	13.00	15.00	11.50	8.75	10.00	8.75	6.50	-0.505859	0.059570	0.973633	-30.309999	258.649994	-22.889999	1241.00	0.21	-0.02
1.69	10.75	11.25	0.00	3.50	0.00	0.00	0.00	0.00	0.00	0.00	0.00	0.00	0.00	0.00	0.00	0.00	-0.685547	0.103516	1.713867	-13.370000	161.910004	-20.020000	277.00	-0.39	-0.05	1.00	0.50	1.25	1.25	1.25	1.25	7.50	3.00	15.25	12.25	14.50	11.75	8.00	9.75	9.00	6.75	-0.500000	0.054199	1.032227	-38.150002	277.410004	-27.580000	1218.00	0.21	-0.02
1.70	12.50	13.00	0.00	4.75	0.00	0.00	0.00	0.00	0.00	0.00	0.00	0.00	0.00	0.00	0.00	0.00	-0.546875	0.220703	1.852539	9.240000	157.639999	-13.160000	329.00	-0.39	-0.06	0.75	0.75	1.25	0.75	1.25	1.25	7.25	2.75	14.75	12.25	14.00	11.50	8.50	10.00	9.25	7.25	-0.571777	0.001953	1.111328	-46.689999	295.610016	-33.389999	1201.00	0.21	-0.02
1.71	10.00	11.00	0.00	3.00	0.00	0.00	0.00	0.00	0.00	0.00	0.00	0.00	0.00	0.00	0.00	0.00	-0.431641	0.131836	1.688965	4.760000	133.770004	-6.930000	260.00	-0.39	-0.05	1.00	0.75	1.25	1.00	1.25	1.25	6.75	2.75	13.75	11.50	13.00	10.75	8.00	9.75	9.25	7.25	-0.960449	0.141602	1.263672	-33.110001	323.190002	-44.099998	1148.00	0.21	-0.02
1.72	12.50	13.00	0.25	5.25	0.00	0.00	0.00	0.00	0.00	0.00	0.00	0.00	0.00	0.00	0.00	0.00	-0.273438	0.098145	1.264648	-1.540000	111.650002	-3.920000	338.00	-0.39	-0.06	1.25	0.50	1.50	1.25	1.00	0.75	6.25	2.50	12.25	10.25	11.75	10.00	7.75	9.75	9.50	7.00	-1.195312	0.145020	1.609863	-11.900000	345.239990	-51.099998	1074.00	0.21	-0.03
1.73	15.75	14.50	1.00	5.00	0.00	0.00	0.00	0.00	0.00	0.00	0.00	0.00	0.00	0.00	0.00	0.00	-0.215332	0.054199	0.968262	-1.400000	102.199997	-3.990000	396.00	-0.39	-0.04	0.75	0.50	1.25	0.75	1.25	1.00	5.50	2.00	10.50	9.00	10.50	9.25	7.50	10.00	9.50	7.00	-1.639160	0.155762	2.462402	0.210000	379.470001	-55.160000	982.00	0.22	-0.03
1.74	11.00	12.00	0.25	5.50	0.00	0.00	0.00	0.00	0.00	0.00	0.00	0.00	0.00	0.00	0.00	0.00	-0.208984	0.089844	0.882324	2.310000	103.110001	-3.990000	314.00	-0.38	-0.07	1.00	0.50	1.00	0.75	1.00	1.00	5.00	1.25	8.00	6.75	8.25	7.75	4.25	8.50	8.00	5.25	-2.105957	0.306641	2.852051	13.090000	423.360016	-51.730000	782.00	0.21	-0.02
1.75	11.75	12.50	0.75	6.00	0.00	0.00	0.00	0.00	0.00	0.00	0.00	0.00	0.00	0.00	0.00	0.00	-0.234375	0.090820	0.922852	4.200000	105.840004	-3.780000	340.00	-0.38	-0.06	0.00	0.00	0.00	0.00	0.25	0.00	3.50	0.00	6.50	5.00	7.00	6.25	3.75	8.00	7.50	4.50	-1.706543	0.264648	2.468750	36.330002	461.860016	-55.650002	585.00	0.27	-0.01
1.76	13.00	12.75	1.50	7.25	0.00	0.00	0.00	0.00	0.00	0.00	0.00	0.00	0.00	0.00	0.00	0.00	-0.254395	0.107910	0.932129	3.850000	108.080002	-3.150000	381.00	-0.37	-0.06	0.00	0.00	0.00	0.00	0.00	0.00	2.25	0.00	5.75	4.25	5.50	5.25	2.75	7.25	6.75	3.00	-1.361816	0.314453	2.245117	44.520000	489.929993	-71.540001	480.00	0.28	-0.01
1.77	13.25	13.25	2.25	7.75	0.00	0.00	0.00	0.00	0.00	0.00	0.00	0.00	0.00	0.00	0.00	0.00	-0.375977	0.085938	0.975586	-28.350000	60.410000	2.100000	404.00	-0.37	-0.06	0.00	0.00	0.00	0.00	0.00	0.00	1.50	0.00	5.00	3.75	4.50	4.50	2.25	6.50	6.00	1.75	-1.806641	0.651367	2.343750	39.900002	509.880005	-83.720001	403.00	0.28	-0.00
1.78	21.00	17.75	5.25	9.75	1.00	2.25	0.00	0.00	0.00	0.00	0.00	0.25	0.00	0.00	0.00	0.00	-0.226074	0.001465	0.604492	-48.720001	42.770000	0.490000	639.00	-0.35	-0.05	0.00	0.00	0.00	0.00	0.00	0.00	0.75	0.00	3.25	3.00	3.75	3.50	1.50	5.50	5.25	1.00	-1.996582	0.826660	3.194824	59.500000	495.809998	-88.550003	308.00	0.29	-0.01
1.79	22.00	18.25	6.00	10.25	1.50	2.50	0.25	0.25	0.00	0.00	0.25	0.00	0.00	0.00	0.00	0.00	-0.255371	0.071777	1.045898	-51.660000	49.910000	-2.240000	688.00	-0.35	-0.05	0.00	0.00	0.00	0.00	0.00	0.00	0.25	0.00	2.75	2.75	3.25	2.75	0.50	4.00	3.75	0.50	-1.459473	0.497070	2.165039	77.070000	479.989990	-96.529999	231.00	0.29	0.00
1.80	22.75	18.50	6.50	10.50	1.50	3.25	0.00	0.25	0.00	0.25	0.75	0.25	0.00	0.00	0.00	0.00	-0.335938	0.048340	1.161621	-43.680000	43.680000	-2.590000	724.00	-0.34	-0.05	0.00	0.00	0.00	0.00	0.00	0.00	0.00	0.00	1.25	2.25	2.75	2.00	0.00	1.75	2.25	0.00	-0.369629	0.396484	3.500977	83.930000	428.049988	-108.430000	140.00	0.28	-0.02
1.81	23.00	19.00	7.25	10.75	1.75	3.75	0.00	0.25	0.00	0.25	0.75	0.25	0.00	0.00	0.00	0.00	-0.315918	0.042969	1.082520	-34.439999	32.759998	-2.590000	753.00	-0.33	-0.05	0.00	0.00	0.00	0.00	0.00	0.00	0.00	0.00	0.25	1.75	1.75	1.50	0.00	0.75	1.75	0.25	0.187012	0.535156	3.092773	71.260002	361.130005	-132.160004	89.00	0.28	-0.07
1.82	23.25	19.25	7.75	10.75	2.00	4.00	0.00	0.25	0.00	0.25	0.25	0.25	0.00	0.00	0.00	0.00	-0.302734	0.053223	1.029785	-25.549999	24.500000	-1.960000	765.00	-0.34	-0.05	0.00	0.00	0.00	0.00	0.00	0.00	0.25	0.00	0.75	1.75	1.75	1.00	0.50	0.75	1.50	0.50	1.028320	0.688477	3.040527	48.930000	307.230011	-151.270004	98.00	0.27	-0.04
1.83	16.00	15.25	6.25	9.50	1.50	2.25	0.00	0.00	0.00	0.25	0.00	0.00	0.00	0.00	0.00	0.00	-0.295898	0.053223	0.983887	-20.090000	18.760000	-1.470000	572.00	-0.34	-0.05	0.00	0.00	0.00	0.00	0.00	0.00	0.00	0.00	0.00	0.75	0.75	0.00	0.00	0.00	0.00	0.00	0.194336	1.717773	2.833496	19.670000	212.029999	-121.940002	17.00	0.00	0.00
1.84	23.25	19.00	8.00	11.00	2.25	4.00	0.00	0.50	0.00	0.50	0.50	0.25	0.00	0.00	0.25	0.00	-0.289062	0.041992	0.973145	-12.530000	12.670000	-0.560000	784.00	-0.33	-0.05	0.00	0.00	0.00	0.00	0.00	0.00	0.00	0.00	0.00	0.50	0.50	0.00	0.00	0.00	0.00	0.00	1.721680	1.327148	3.633789	-9.310000	48.020000	-66.849998	11.00	0.00	0.00
1.85	23.50	18.75	8.00	11.00	2.25	4.00	0.00	0.50	0.00	0.50	0.75	0.00	0.00	0.00	0.00	0.00	-0.284180	0.047852	0.956055	-7.700000	10.920000	-0.070000	781.00	-0.33	-0.05	0.00	0.00	0.00	0.00	0.00	0.00	0.00	0.00	0.00	0.50	0.25	0.00	0.00	0.00	0.00	0.25	1.392090	1.127441	3.093262	8.470000	-98.629997	-8.960000	10.00	0.00	0.00
1.86	21.00	18.25	8.00	11.00	2.50	4.50	0.00	0.25	0.00	0.50	0.75	0.50	0.00	0.00	0.25	0.00	-0.279297	0.044434	0.945801	-4.340000	9.590000	0.350000	762.00	-0.32	-0.06	0.00	0.00	0.00	0.00	0.00	0.00	0.00	0.00	0.00	0.25	0.50	0.25	0.00	0.00	0.50	0.50	0.812012	0.777344	2.383301	-0.000000	-197.539993	28.070000	20.00	0.00	0.00
1.87	23.50	19.00	8.25	11.25	2.50	5.00	0.00	0.75	0.00	0.25	1.00	0.50	0.00	0.00	0.00	0.25	-0.280762	0.051758	0.939453	-2.310000	8.960000	0.630000	816.00	-0.32	-0.06	0.00	0.00	0.00	0.00	0.00	0.00	0.00	0.00	0.25	0.75	0.75	0.50	0.00	0.25	0.50	0.50	0.733398	0.610840	2.118652	-18.620001	-251.300003	50.820000	37.00	0.00	0.00
1.88	23.25	18.75	8.25	11.25	2.50	5.25	0.00	0.75	0.00	0.75	1.00	0.75	0.50	0.00	0.25	0.25	-0.278320	0.045410	0.934082	-1.540000	8.610000	0.840000	830.00	-0.31	-0.06	0.00	0.00	0.00	0.00	0.25	0.00	0.00	0.25	0.75	1.00	0.75	0.25	0.00	0.50	0.00	0.00	0.651367	0.291992	1.182129	-20.020000	-271.110016	63.279999	45.00	0.00	0.00
1.89	22.50	18.50	8.25	11.25	2.50	5.25	0.00	0.75	0.00	1.00	0.75	1.00	0.50	0.50	0.00	0.25	-0.277832	0.050781	0.924316	-1.610000	8.330000	0.910000	824.00	-0.30	-0.06	0.00	0.00	0.00	0.00	0.25	0.75	0.00	0.50	0.75	1.00	1.00	0.75	0.75	0.50	1.25	0.75	0.509277	0.246094	1.007812	-25.620001	-273.350006	67.900002	93.00	0.20	-0.12
1.90	22.25	18.00	8.00	11.25	2.75	5.50	0.00	1.25	0.00	0.75	1.00	0.75	1.00	0.00	0.25	0.50	-0.279297	0.050293	0.923828	-2.940000	8.260000	0.770000	829.00	-0.30	-0.07	0.00	0.00	0.00	0.00	0.00	0.00	0.00	0.00	0.00	0.00	0.00	0.00	0.00	0.00	0.00	0.00	0.461426	0.172852	0.984863	-35.070000	-273.910004	68.180000	0.00	0.00	0.00
1.91	21.75	17.75	8.00	11.00	3.00	5.50	0.00	1.00	0.00	0.75	1.00	1.00	1.00	0.00	0.00	0.00	-0.287109	0.047852	0.928711	-4.550000	8.050000	0.560000	813.00	-0.30	-0.07	0.00	0.00	0.00	0.00	0.00	0.00	0.00	0.00	0.00	0.00	0.00	0.00	0.00	0.00	0.00	0.00	0.400879	0.124512	1.048340	-41.509998	-280.420013	67.059998	0.00	0.00	0.00
1.92	13.75	13.25	6.25	9.00	1.75	4.00	0.00	0.00	0.00	0.00	0.00	0.00	0.00	0.00	0.00	0.00	-0.277344	0.053223	0.927734	-6.860000	7.980000	0.140000	542.00	-0.33	-0.06	0.00	0.00	0.00	0.00	0.00	0.00	0.00	0.00	0.00	0.00	0.00	0.00	0.00	0.00	0.00	0.00	0.326660	0.107910	1.166504	-43.959999	-293.790009	65.379997	0.00	0.00	0.00
1.93	20.50	16.50	8.00	10.75	3.00	6.00	0.00	1.50	0.00	0.50	1.25	1.25	1.00	0.00	0.00	0.00	-0.278320	0.043457	0.916504	-9.240000	7.910000	-0.210000	801.00	-0.29	-0.07	0.00	0.00	0.00	0.00	0.00	0.00	0.00	0.00	0.00	0.00	0.00	0.00	0.00	0.00	0.00	0.00	0.257812	0.085938	1.286621	-44.939999	-313.250000	62.790001	0.00	0.00	0.00
1.94	13.25	12.50	6.50	8.75	2.25	4.75	0.00	0.00	0.00	0.00	0.25	0.25	0.00	0.00	0.00	0.00	-0.273438	0.041992	0.926270	-11.550000	7.420000	-0.700000	549.00	-0.32	-0.07	0.00	0.00	0.00	0.00	0.00	0.00	0.00	0.00	0.00	0.00	0.00	0.00	0.00	0.00	0.00	0.00	0.177246	0.046875	1.301270	-45.360001	-335.579987	58.520000	0.00	0.00	0.00
1.95	12.75	12.00	6.50	8.75	2.25	4.25	0.00	0.25	0.00	0.00	0.50	0.50	0.25	0.00	0.00	0.00	-0.271973	0.041016	0.918945	-14.070000	6.650000	-1.190000	545.00	-0.31	-0.07	0.00	0.00	0.00	0.00	0.00	0.00	0.00	0.00	0.00	0.00	0.00	0.00	0.00	0.00	0.00	0.00	-0.045898	0.032227	1.225586	-38.920002	-371.700012	43.680000	0.00	0.00	0.00
1.96	12.00	11.50	6.25	8.50	2.75	4.50	0.00	0.75	0.00	0.25	0.75	1.00	0.50	0.00	0.00	0.00	-0.273438	0.038086	0.916992	-17.010000	5.810000	-1.610000	557.00	-0.29	-0.08	0.00	0.00	0.00	0.00	0.50	0.50	0.00	0.75	0.75	1.00	0.75	0.50	0.75	0.75	1.25	0.75	-0.145020	0.050293	1.153320	-27.299999	-379.820007	35.139999	94.00	0.20	-0.10
1.97	11.25	11.00	6.25	8.50	2.75	5.00	0.25	1.50	0.00	0.25	0.75	1.25	1.25	0.00	0.00	0.00	-0.277832	0.032227	0.938965	-18.969999	5.180000	-2.100000	575.00	-0.27	-0.09	0.50	0.50	0.75	0.75	0.50	0.75	0.00	0.75	1.00	1.00	0.50	0.75	1.25	0.75	1.25	0.75	-0.230469	0.087891	1.144531	-10.640000	-383.670013	28.000000	134.00	0.08	-0.10
1.98	11.00	10.50	6.25	8.50	3.00	5.00	0.25	1.25	0.00	0.25	1.25	1.25	1.50	0.00	0.00	0.00	-0.290527	0.033203	0.939941	-19.320000	4.340000	-2.240000	575.00	-0.26	-0.09	0.75	0.50	1.00	0.25	0.50	1.00	0.00	0.75	1.00	0.75	0.50	0.75	1.25	0.75	1.25	0.75	-0.312012	0.153809	1.224121	7.840000	-385.209991	23.940001	134.00	0.07	-0.10
1.99	10.00	10.00	6.25	8.00	3.00	5.25	0.25	1.50	0.00	0.75	1.75	1.75	2.00	0.00	0.00	0.00	-0.284180	0.030762	0.940430	-17.150000	2.520000	-2.170000	581.00	-0.23	-0.10	0.75	0.50	1.25	1.00	0.50	0.75	0.00	0.50	1.00	0.75	0.50	0.50	1.25	0.75	1.25	0.50	-0.391602	0.196289	1.327148	26.320000	-385.910004	24.780001	134.00	0.04	-0.08
2.00	9.50	9.75	6.25	8.00	3.25	5.00	0.50	2.00	0.00	1.25	2.50	2.50	3.75	0.00	0.00	0.00	-0.287109	0.021484	0.947754	-15.890000	2.310000	-2.030000	625.00	-0.20	-0.11	0.75	0.50	1.00	0.75	0.50	1.00	0.00	0.50	1.00	0.75	0.75	0.50	1.00	0.75	1.25	1.00	-0.462891	0.230469	1.500488	42.700001	-388.079987	30.380001	135.00	0.05	-0.08
2.01	13.50	11.25	7.75	9.00	5.75	7.75	0.75	4.00	1.50	2.00	3.50	3.75	5.75	1.25	1.25	1.25	-0.293457	0.021973	0.944824	-14.420000	2.450000	-1.960000	924.00	-0.15	-0.11	0.50	0.50	0.75	0.75	0.50	1.00	0.00	0.75	1.00	0.75	0.50	0.50	1.00	0.75	1.00	0.50	-0.557129	0.253418	1.670410	54.180000	-392.000000	39.689999	124.00	0.05	-0.10
2.02	12.50	10.50	7.75	8.75	5.75	7.50	1.00	4.50	1.75	2.25	3.75	4.50	6.25	1.25	1.25	1.50	-0.294922	0.016602	0.937988	-13.300000	2.870000	-2.100000	936.00	-0.13	-0.11	0.75	0.75	0.75	0.75	0.50	1.00	0.00	0.50	1.00	0.50	0.50	0.50	1.00	0.75	1.00	0.75	-0.699707	0.273926	1.753906	62.930000	-395.779999	51.310001	124.00	0.03	-0.09
2.03	11.00	9.25	7.50	8.50	5.75	7.75	1.25	4.75	2.00	2.75	4.50	5.00	6.50	2.00	1.25	1.50	-0.292480	0.015625	0.940918	-12.110000	3.500000	-2.100000	944.00	-0.10	-0.11	1.00	0.50	1.00	0.50	0.50	1.00	0.00	0.75	1.00	0.50	0.75	0.50	0.75	0.75	1.25	1.25	-0.834961	0.295898	1.719238	73.290001	-394.589996	63.349998	135.00	0.05	-0.09
2.04	9.00	8.75	7.00	8.00	5.75	7.50	1.50	5.25	2.75	3.00	6.25	5.75	7.75	2.00	1.50	1.75	-0.297363	0.011719	0.945801	-10.850000	4.270000	-1.960000	972.00	-0.07	-0.12	0.50	0.25	1.00	0.75	0.50	0.75	0.00	0.75	1.00	0.75	0.50	0.50	0.75	1.00	1.25	0.75	-0.926270	0.289551	1.734863	85.750000	-382.480011	73.080002	126.00	0.07	-0.08
2.05	8.75	7.75	7.00	7.75	5.75	7.75	2.00	5.75	3.00	3.25	7.25	7.00	8.00	2.25	1.75	2.25	-0.288574	0.008301	0.935547	-9.380000	4.900000	-1.610000	1019.00	-0.05	-0.12	0.50	0.50	0.75	0.75	0.50	0.50	0.00	0.75	1.00	0.75	0.50	0.75	0.75	0.75	1.00	0.75	-1.037598	0.309570	1.745605	97.930000	-359.100006	78.750000	120.00	0.07	-0.09
2.06	7.75	7.25	6.50	7.50	5.75	7.50	2.25	5.50	2.75	3.75	7.75	7.50	8.75	2.50	1.75	2.50	-0.279297	0.012207	0.940918	-8.540000	5.950000	-1.680000	1015.00	-0.04	-0.12	0.00	0.00	0.00	0.00	0.00	1.00	0.00	0.50	1.00	0.50	0.50	0.75	0.75	0.75	0.75	1.00	-1.207520	0.351562	1.913086	108.290001	-331.799988	82.459999	83.00	0.19	-0.12
2.07	7.25	6.25	6.25	6.75	5.75	7.50	3.00	6.25	4.00	4.25	8.25	8.00	9.00	3.00	2.00	2.75	-0.562500	-0.011719	0.947266	-7.630000	7.420000	-2.030000	1058.00	-0.01	-0.12	0.00	0.00	0.00	0.00	0.00	0.00	0.00	0.75	1.00	0.50	0.75	0.75	0.75	1.00	1.25	0.75	-1.603516	0.449707	2.984375	133.630005	-313.320007	96.110001	85.00	0.25	-0.10
2.08	6.25	5.50	5.75	6.00	5.50	7.50	3.50	6.50	5.00	5.00	9.00	8.25	9.50	3.50	2.25	3.00	-0.280762	0.008789	0.938477	-6.860000	8.750000	-2.520000	1082.00	0.01	-0.11	0.00	0.00	0.00	0.00	0.00	0.00	0.00	0.00	0.00	0.00	0.00	0.00	0.00	0.00	0.00	0.00	-1.910156	0.374023	2.966309	136.009995	-327.320007	109.340004	0.00	0.00	0.00
2.09	5.25	5.00	5.50	5.50	5.50	7.25	3.75	6.75	5.25	6.00	9.25	8.75	10.00	4.00	2.75	3.50	-0.459473	0.139648	0.910645	-5.950000	10.150000	-1.960000	1103.00	0.03	-0.11	0.00	0.00	0.00	0.00	0.00	0.00	0.00	0.00	0.00	0.00	0.00	0.00	0.00	0.00	0.00	0.00	-2.230469	0.219727	2.618164	125.160004	-336.630005	120.470001	0.00	0.00	0.00
2.10	5.00	3.75	5.00	4.75	5.00	7.00	4.25	6.75	6.00	7.00	10.00	9.25	10.25	4.50	2.75	3.75	-0.317383	0.017090	0.941406	-5.040000	12.530000	-1.470000	1117.00	0.05	-0.10	0.00	0.00	0.00	0.00	0.00	0.00	0.00	0.00	0.00	0.00	0.00	0.00	0.00	0.00	0.00	0.00	-2.503906	0.063477	2.271973	101.570000	-331.589996	123.129997	0.00	0.00	0.00
2.11	3.00	2.50	3.25	3.25	4.50	6.50	5.00	6.75	7.00	7.75	10.50	9.50	10.50	5.00	3.00	4.00	-0.301758	0.010742	0.937988	-4.410000	14.910000	-2.450000	1085.00	0.09	-0.10	0.00	0.00	0.00	0.00	0.00	0.00	0.00	0.00	0.00	0.00	0.00	0.00	0.00	0.00	0.00	0.00	-2.740234	0.015137	2.087891	75.949997	-318.640015	118.440002	0.00	0.00	0.00
2.12	2.75	1.75	2.75	2.50	3.50	6.25	5.25	6.50	7.75	8.25	11.00	10.00	10.75	5.25	3.25	4.25	-0.295410	0.017090	0.937012	-4.690000	17.570000	-3.360000	1082.00	0.11	-0.10	0.00	0.00	0.00	0.00	0.00	0.00	0.00	0.00	0.00	0.00	0.00	0.00	0.00	0.00	0.00	0.00	-2.908203	-0.010254	1.898438	58.730000	-307.720001	112.139999	0.00	0.00	0.00
2.13	1.75	1.25	2.25	2.00	2.75	5.50	5.50	6.50	8.50	8.75	11.75	10.25	11.00	6.00	3.75	4.50	-0.290527	0.030762	0.935547	-6.090000	24.010000	-4.340000	1084.00	0.13	-0.09	0.00	0.00	0.00	0.00	0.00	0.00	0.00	0.00	0.00	0.00	0.00	0.00	0.00	0.00	0.00	0.00	-3.020020	-0.131348	1.518555	50.400002	-298.480011	105.980003	0.00	0.00	0.00
2.14	1.25	0.50	1.50	1.50	2.50	5.00	5.75	6.25	9.00	9.25	12.25	10.75	11.50	6.50	3.75	5.00	-0.311035	0.002930	0.932617	-6.300000	28.139999	-5.320000	1083.00	0.15	-0.09	0.00	0.00	0.00	0.00	0.00	0.00	0.00	0.00	0.00	0.00	0.00	0.00	0.00	0.00	0.00	0.00	-3.258301	-0.317383	1.127441	45.360001	-284.829987	95.900002	0.00	0.00	0.00
2.15	1.25	0.50	1.25	1.00	1.50	4.25	6.00	6.25	9.75	9.50	12.75	11.00	11.25	6.25	2.75	4.75	-0.327637	0.116699	0.937988	-5.600000	31.990000	-6.020000	1062.00	0.16	-0.08	0.00	0.00	0.00	0.00	0.00	0.00	0.00	0.00	0.00	0.00	0.00	0.00	0.00	0.00	0.00	0.00	-3.477539	-0.504883	0.673828	41.160000	-263.899994	80.080002	0.00	0.00	0.00
2.16	0.50	0.50	1.00	0.00	1.50	3.00	6.25	5.00	9.50	10.00	12.25	11.25	11.75	7.50	4.25	5.75	-0.308105	0.009277	0.937988	-5.110000	36.750000	-6.440000	1046.00	0.18	-0.08	0.00	0.00	0.00	0.00	0.00	0.00	0.00	0.00	0.00	0.00	0.00	0.00	0.00	0.00	0.00	0.00	-3.702148	-0.641602	0.104980	24.920000	-235.410004	56.209999	0.00	0.00	0.00
2.17	0.00	0.00	0.25	0.00	0.75	0.00	6.50	4.50	9.75	9.75	12.50	10.75	10.50	6.50	4.50	6.00	-0.329102	-0.004395	0.936523	-5.180000	43.049999	-5.530000	958.00	0.21	-0.06	0.00	0.00	0.00	0.00	0.00	0.00	0.00	0.00	0.00	0.00	0.00	0.00	0.00	0.00	0.00	0.00	-3.915527	-0.617188	-0.530273	-1.050000	-198.240005	25.059999	0.00	0.00	0.00
2.18	0.00	0.00	0.25	0.00	0.75	0.50	6.75	5.00	12.50	11.25	14.25	11.75	12.00	8.00	5.00	6.00	-0.321777	0.000488	0.937988	-3.920000	53.200001	-4.690000	1098.00	0.21	-0.06	0.00	0.00	0.00	0.00	0.00	0.00	0.00	0.00	0.00	0.00	0.00	0.00	0.00	0.00	0.00	0.00	-4.027344	-0.492188	-0.990723	-13.090000	-150.080002	-6.860000	0.00	0.00	0.00
2.19	0.50	0.00	0.25	0.00	0.50	1.25	7.00	4.75	13.00	11.50	14.25	11.50	10.75	8.00	4.50	6.00	-0.356934	-0.001953	0.941406	-2.730000	67.620003	-4.410000	1099.00	0.21	-0.05	0.00	0.00	0.00	0.00	0.00	0.00	0.00	0.00	0.00	0.00	0.00	0.00	0.00	0.00	0.00	0.00	-3.766602	-0.340332	-0.964844	21.420000	-32.340000	-45.080002	0.00	0.00	0.00
2.20	0.00	0.00	0.00	0.00	0.25	0.75	7.25	4.00	13.75	12.00	15.00	12.25	11.25	8.75	5.50	6.25	-0.391113	0.016602	0.945801	0.140000	85.959999	-4.060000	1132.00	0.22	-0.04	0.00	0.00	0.00	0.00	0.00	0.00	0.00	0.00	0.00	0.00	0.00	0.00	0.00	0.00	0.00	0.00	-3.564941	-0.321777	-0.707520	24.080000	22.750000	-47.110001	0.00	0.00	0.00
2.21	0.00	0.00	0.00	0.00	0.50	1.25	7.25	4.00	14.50	12.25	15.25	12.00	11.75	9.50	6.00	6.75	-0.379395	0.011230	0.961426	3.010000	109.270004	-3.430000	1174.00	0.22	-0.04	0.00	0.00	0.00	0.00	0.00	0.00	0.00	0.00	0.00	0.00	0.00	0.00	0.00	0.00	0.00	0.00	-3.117676	-0.260742	-0.397461	4.270000	72.309998	-40.040001	0.00	0.00	0.00
2.22	0.00	0.00	0.00	0.00	0.00	0.25	7.00	3.00	15.00	12.75	15.50	12.25	11.00	9.75	6.50	7.00	-0.405762	0.012207	0.919434	3.640000	140.070007	-3.150000	1157.00	0.23	-0.03	0.00	0.00	0.00	0.00	0.00	0.00	0.00	0.00	0.00	0.00	0.00	0.00	0.00	0.00	0.00	0.00	1.247070	0.067871	0.692383	-53.060001	248.149994	13.020000	0.00	0.00	0.00
2.23	0.00	0.00	0.00	0.00	0.00	0.00	7.00	2.50	15.25	13.00	15.75	12.25	10.75	10.50	6.75	7.50	-0.426758	0.006836	0.963867	1.610000	176.610001	-2.730000	1165.00	0.24	-0.03	1.75	1.25	0.00	0.00	0.00	0.00	0.00	0.00	0.00	0.00	0.00	0.00	0.00	0.00	0.00	0.00	0.403320	1.296387	0.321289	-81.760002	244.440002	17.080000	32.00	0.00	0.00
2.24	0.00	0.00	0.00	0.00	0.00	0.00	6.50	1.25	14.50	12.75	15.50	12.00	10.00	10.00	6.50	7.25	-0.467773	-0.008789	0.986328	-4.620000	221.550003	-1.890000	1101.00	0.24	-0.02	5.50	4.50	1.50	1.50	0.00	0.00	0.00	0.00	0.00	0.00	0.00	0.00	0.00	0.00	0.00	0.00	-0.184570	-0.170898	0.354492	-81.760002	227.710007	19.670000	144.00	-0.38	-0.02
2.25	0.00	0.00	0.00	0.00	0.00	0.00	6.75	1.75	16.00	13.25	16.00	12.00	10.25	11.25	7.25	7.75	-0.525391	0.007324	0.948242	-10.640000	260.470001	-1.680000	1172.00	0.24	-0.02	5.50	5.00	0.00	0.50	0.00	0.00	0.00	0.00	0.00	0.00	0.00	0.00	0.00	0.00	0.00	0.00	-0.445312	-0.039062	0.280762	-111.300003	252.070007	12.880000	119.00	-0.40	-0.02
2.26	0.00	0.00	0.00	0.00	0.00	0.00	6.25	1.75	15.75	13.25	16.00	11.75	9.75	11.50	7.50	8.00	-0.555664	0.007812	0.988770	-18.760000	292.459991	-1.050000	1159.00	0.24	-0.02	8.50	8.00	0.00	0.25	0.00	0.00	0.00	0.25	0.25	0.25	0.25	0.25	0.25	0.75	1.00	0.25	-0.742188	0.435547	1.222168	-94.849998	274.610016	18.549999	218.00	-0.28	-0.03
2.27	0.00	0.00	0.00	0.00	0.00	0.00	6.25	0.75	15.50	13.00	16.00	11.25	9.25	11.75	7.75	8.50	-0.616211	-0.002930	0.957031	-24.360001	320.040009	-1.470000	1134.00	0.25	-0.01	17.00	16.25	2.00	3.50	0.50	0.75	0.00	0.25	0.50	0.00	0.25	0.25	0.25	0.25	0.50	0.50	-0.937500	-0.380371	1.868652	-76.019997	277.549988	26.389999	468.00	-0.34	-0.04
2.28	0.00	0.00	0.00	0.00	0.00	0.00	5.75	1.00	15.00	13.00	15.75	11.25	8.75	11.75	8.25	8.75	-0.721680	0.031250	0.975098	-35.279999	362.950012	-8.960000	1122.00	0.25	-0.02	25.25	24.00	2.25	3.75	0.00	0.00	0.00	0.00	0.00	0.00	0.00	0.00	0.00	0.00	0.00	0.00	-1.290527	-0.870605	2.568848	-82.180000	272.089996	9.520000	600.00	-0.39	-0.03
2.29	0.00	0.00	0.00	0.00	0.00	0.00	5.50	0.75	14.00	12.50	15.50	10.75	8.50	11.75	8.25	9.00	-0.847168	0.024414	1.114746	-29.889999	378.350006	-11.340000	1084.00	0.25	-0.02	23.75	23.25	2.50	5.50	0.25	0.00	0.00	0.00	0.00	0.00	0.00	0.00	0.00	0.00	0.00	0.00	-1.463379	-0.730957	3.290527	-6.790000	297.779999	-6.230000	602.00	-0.39	-0.04
2.30	0.00	0.00	0.00	0.00	0.50	0.00	5.25	0.00	12.75	12.00	14.50	10.25	8.25	11.50	8.25	9.50	-1.080078	0.075684	1.353027	-11.620000	395.709991	-11.340000	1031.00	0.26	-0.02	27.25	24.75	3.25	7.25	0.50	0.25	0.00	0.00	0.00	0.00	0.00	0.00	0.00	0.00	0.00	0.00	-0.710449	-0.205566	3.529297	25.480000	251.580002	-36.189999	693.00	-0.38	-0.04
2.31	0.00	0.00	0.00	0.00	0.00	0.00	4.50	0.75	10.50	10.50	13.00	9.50	8.00	11.25	8.50	9.25	-1.538086	0.165039	1.746582	17.219999	419.929993	-10.990000	947.00	0.26	-0.03	27.50	24.75	4.00	8.00	0.50	0.50	0.00	0.00	0.00	0.00	0.00	0.00	0.00	0.00	0.00	0.00	-0.133789	0.388672	0.539062	2.240000	130.410004	-18.549999	717.00	-0.38	-0.04
2.32	0.00	0.00	0.00	0.00	0.00	0.00	3.75	0.50	8.75	9.00	11.25	8.50	7.50	11.50	8.50	9.00	-2.472168	0.064453	3.151367	47.810001	461.369995	2.240000	853.00	0.27	-0.03	28.50	24.75	4.75	9.25	0.75	1.25	0.00	0.00	0.00	0.00	0.00	0.00	0.00	0.00	0.00	0.00	-0.174316	0.013184	0.631836	-2.310000	152.039993	-8.190000	764.00	-0.37	-0.04
2.33	0.00	0.00	0.00	0.00	0.25	0.25	2.75	0.50	7.50	7.75	9.50	7.50	7.00	10.25	7.75	8.50	-3.030762	0.300293	3.577148	69.440002	522.900024	25.129999	751.00	0.26	-0.04	29.25	25.75	5.50	10.25	1.25	1.75	0.00	0.25	0.00	0.00	0.00	0.25	0.00	0.00	0.00	0.00	-0.487305	-0.062988	1.651367	-21.559999	109.690002	-6.860000	823.00	-0.36	-0.04
2.34	0.00	0.00	0.00	0.00	0.00	0.00	2.00	0.25	6.50	6.50	8.50	6.50	6.00	9.25	7.25	7.50	-2.211914	0.423340	3.153320	106.330002	559.859985	36.820000	646.00	0.27	-0.04	29.50	26.00	6.50	10.75	1.50	2.25	0.00	0.25	0.00	0.00	0.00	0.25	0.00	0.00	0.00	0.00	-0.244629	0.061523	0.854492	-33.740002	60.130001	-9.240000	856.00	-0.36	-0.04
2.35	0.00	0.00	0.00	0.00	0.00	0.00	1.00	0.00	5.25	5.00	7.75	5.50	4.75	8.25	6.50	6.50	-2.977539	0.743164	2.911621	132.020004	573.299988	32.619999	535.00	0.28	-0.05	31.25	26.00	7.75	11.75	2.00	2.50	0.00	0.50	0.00	0.00	0.25	0.25	0.00	0.00	0.25	0.00	-0.220215	0.190430	0.843750	-54.180000	64.470001	-10.290000	922.00	-0.35	-0.04
2.36	0.00	0.00	0.00	0.00	0.00	0.00	0.50	0.00	3.00	4.00	6.50	5.00	3.00	6.50	5.50	5.25	-2.192383	0.269531	3.318848	155.960007	574.559998	21.980000	412.00	0.29	-0.06	32.00	26.25	8.50	12.00	2.50	3.00	0.00	0.75	0.00	0.00	0.25	0.50	0.00	0.75	0.75	0.00	-0.325684	0.082031	1.255859	-57.820000	60.480000	-9.170000	976.00	-0.33	-0.04
2.37	0.00	0.00	0.00	0.00	0.00	0.00	0.25	0.00	3.75	4.25	5.00	2.50	0.75	5.25	4.00	3.00	-1.001953	0.004883	4.223145	156.800003	535.429993	-4.620000	312.00	0.29	-0.00	32.25	26.75	9.25	12.25	3.00	3.50	0.00	0.50	0.25	0.25	0.50	0.50	0.00	0.25	0.50	0.00	-0.262695	0.087891	1.002441	-55.720001	43.750000	-8.610000	1006.00	-0.33	-0.04
2.38	0.00	0.00	0.00	0.00	0.00	0.00	0.00	0.00	1.00	3.75	4.75	3.25	0.50	2.50	2.25	1.75	0.013184	0.114258	3.883301	142.940002	461.019989	-41.509998	213.00	0.28	-0.07	32.50	26.25	9.50	12.25	3.25	3.50	0.00	1.00	0.00	0.50	0.50	1.00	0.00	0.50	0.50	0.00	-0.248047	0.106934	1.009277	-49.279999	34.439999	-7.070000	1025.00	-0.33	-0.04
2.39	0.00	0.00	0.00	0.00	0.00	0.00	0.25	0.00	1.25	2.00	2.25	1.00	0.00	0.25	0.00	0.50	1.049805	-0.085938	3.706543	124.180000	374.290009	-74.830002	87.00	0.24	0.01	32.25	26.00	9.75	12.75	3.75	4.00	0.25	0.75	0.25	0.50	0.75	1.00	0.50	1.00	0.25	0.00	-0.259766	0.095215	0.990234	-41.860001	27.370001	-5.530000	1054.00	-0.32	-0.04
2.40	0.00	0.00	0.00	0.00	0.00	0.00	0.25	0.00	1.00	2.25	2.25	1.25	0.00	0.75	0.25	0.75	1.619141	-0.085938	2.678711	107.800003	290.290009	-104.019997	98.00	0.25	-0.01	31.75	25.75	10.25	12.50	4.25	4.00	0.25	0.75	0.50	0.50	0.75	1.00	0.25	0.75	0.75	0.00	-0.251953	0.111816	0.987305	-36.750000	22.190001	-4.620000	1060.00	-0.31	-0.04
2.41	0.00	0.00	0.00	0.00	0.00	0.00	0.00	0.00	0.50	2.00	2.25	1.00	0.00	0.50	0.25	0.75	0.468750	-0.128418	-1.116699	109.550003	312.829987	-126.629997	79.00	0.26	-0.05	37.50	29.50	10.50	13.00	4.25	4.00	0.25	0.75	0.50	0.50	1.00	1.00	0.25	0.75	1.00	0.00	-0.256836	0.085449	0.979980	-31.850000	17.990000	-3.850000	1177.00	-0.32	-0.04
2.42	0.00	0.00	0.00	0.00	0.00	0.00	0.00	0.00	0.00	1.25	2.00	0.75	0.00	0.25	0.00	0.75	0.869141	0.870117	4.266113	-19.040001	196.070007	-133.350006	53.00	0.25	-0.10	30.50	25.00	10.25	12.50	5.25	4.50	0.25	1.00	0.75	0.75	1.00	1.25	0.50	0.75	1.00	0.00	-0.256348	0.078613	0.968750	-26.530001	14.210000	-3.080000	1077.00	-0.29	-0.04
2.43	0.00	0.00	0.00	0.00	0.00	0.00	0.00	0.25	0.50	1.50	1.75	0.75	0.00	0.25	0.00	0.25	1.159668	0.600586	3.029785	12.880000	-131.529999	-58.170002	61.00	0.23	-0.06	29.25	23.75	10.25	12.25	5.50	4.50	0.25	1.00	0.50	0.75	1.00	1.00	0.50	0.75	1.00	0.00	-0.248535	0.067383	0.955566	-17.639999	9.940000	-2.030000	1044.00	-0.29	-0.04
2.44	0.00	0.00	0.00	0.00	0.00	0.00	0.00	0.00	0.00	0.00	0.00	0.00	0.00	0.00	0.00	0.00	0.844238	0.479492	2.343262	2.520000	-235.899994	-33.670002	0.00	0.00	0.00	28.25	22.50	10.00	12.00	5.50	4.50	0.50	1.00	0.75	1.00	1.25	1.00	0.50	1.00	0.75	0.25	-0.250488	0.072754	0.949707	-14.840000	8.540000	-1.540000	1029.00	-0.29	-0.04
2.45	0.00	0.00	0.00	0.25	0.00	0.00	0.00	0.25	0.25	1.00	1.00	0.25	0.00	0.00	0.00	0.25	0.751465	0.369629	1.693359	-15.750000	-285.670013	-19.879999	38.00	0.00	0.00	26.00	21.25	10.00	11.75	5.75	4.75	0.50	0.75	1.00	1.00	1.25	1.25	0.75	0.75	1.00	0.25	-0.228027	0.077637	0.951660	-14.140000	8.050000	-1.400000	999.00	-0.28	-0.04
2.46	0.00	0.00	0.00	0.00	0.00	0.00	0.00	0.00	0.25	0.00	0.00	0.00	0.00	0.00	0.00	0.00	0.705078	0.354492	1.576172	-31.500000	-309.119995	-13.580000	4.00	0.00	0.00	24.50	19.75	9.50	11.25	6.00	5.00	0.50	1.00	1.00	1.00	1.25	1.50	0.75	1.00	1.00	0.25	-0.245117	0.069336	0.952148	-13.510000	7.630000	-1.400000	970.00	-0.27	-0.05
2.47	0.00	0.00	0.00	0.00	0.00	0.00	0.00	0.00	0.00	0.00	0.00	0.00	0.00	0.00	0.00	0.00	0.589355	0.377930	1.186035	-37.590000	-317.380005	-9.660000	0.00	0.00	0.00	22.25	18.00	9.50	10.75	6.00	4.75	0.75	1.00	1.25	1.00	1.50	1.25	1.00	1.25	1.00	0.50	-0.264648	0.060547	0.949707	-13.160000	7.560000	-1.540000	932.00	-0.25	-0.04
2.48	0.00	0.00	0.00	0.00	0.00	0.00	0.00	0.25	0.25	0.75	0.50	0.00	0.00	0.25	0.00	0.00	0.458496	0.367676	1.176758	-35.349998	-325.989990	-6.440000	24.00	0.00	0.00	20.50	16.00	9.00	10.00	6.25	4.75	0.75	1.00	1.50	1.00	1.75	1.75	1.25	1.50	1.25	0.00	-0.246582	0.065430	0.937012	-12.530000	7.420000	-1.750000	896.00	-0.24	-0.04
2.49	0.00	0.00	0.00	0.00	0.00	0.00	0.00	0.00	0.25	0.50	0.50	0.25	0.00	0.00	0.00	0.00	0.306641	0.349121	1.266113	-25.830000	-341.179993	-3.290000	18.00	0.00	0.00	18.50	14.50	8.75	9.50	6.25	4.75	0.75	1.00	1.50	1.50	1.75	1.75	1.50	1.50	1.25	0.50	-0.263672	0.060059	0.938965	-12.530000	7.420000	-2.170000	861.00	-0.22	-0.05
2.50	0.00	0.00	0.00	0.00	0.00	0.00	0.00	0.00	0.00	0.00	0.00	0.00	0.00	0.00	0.00	0.00	0.083496	0.318359	1.355469	-13.930000	-363.089996	0.770000	0.00	0.00	0.00	17.00	12.75	8.50	9.00	6.50	4.75	1.00	1.00	1.75	1.25	2.00	2.00	1.50	1.50	1.25	0.50	-0.244141	0.062012	0.935059	-12.880000	7.420000	-2.520000	831.00	-0.21	-0.04
2.51	0.00	0.00	0.00	0.00	0.00	0.00	0.00	0.00	0.00	0.50	0.00	0.00	0.00	0.00	0.00	0.00	-0.096191	0.264648	1.380859	-7.560000	-388.779999	4.060000	6.00	0.00	0.00	15.50	10.50	8.25	8.25	6.50	4.50	1.25	1.00	2.25	1.50	2.00	2.00	1.75	1.75	1.50	0.25	-0.261719	0.053223	0.937988	-13.230000	7.490000	-2.940000	796.00	-0.18	-0.04
2.52	0.00	0.00	0.00	0.00	0.00	0.00	0.00	0.00	0.00	0.00	0.25	0.00	0.00	0.00	0.00	0.00	-0.287109	0.243164	1.348633	-5.320000	-411.529999	6.510000	3.00	0.00	0.00	14.00	9.25	8.00	7.75	6.50	4.25	1.50	1.25	2.75	1.50	2.25	2.50	2.25	2.25	1.50	0.50	-0.257324	0.058105	0.938477	-13.580000	7.280000	-3.010000	789.00	-0.16	-0.04
2.53	0.00	0.00	0.00	0.00	0.00	0.00	0.00	0.00	0.00	0.25	0.00	0.00	0.00	0.00	0.00	0.00	-0.381836	0.205566	1.244629	-7.280000	-424.480011	8.470000	3.00	0.00	0.00	12.50	7.75	7.75	7.50	6.75	4.00	1.75	1.00	3.00	1.75	3.00	2.50	1.25	2.25	1.75	1.00	-0.255371	0.048340	0.933105	-13.860000	7.420000	-3.500000	763.00	-0.14	-0.03
2.54	0.00	0.00	0.00	0.00	0.00	0.00	0.00	0.00	0.00	0.00	0.00	0.00	0.00	0.00	0.00	0.00	-0.465332	0.202637	1.153320	-12.250000	-428.260010	9.730000	0.00	0.00	0.00	11.00	7.00	7.50	6.75	6.75	3.50	2.50	1.00	3.75	1.75	3.00	3.00	2.50	2.75	1.75	1.00	-0.264648	0.043457	0.946289	-13.300000	8.050000	-3.500000	765.00	-0.11	-0.03
2.55	0.00	0.00	0.00	0.00	0.00	0.00	0.00	0.00	0.00	0.00	0.00	0.00	0.00	0.00	0.00	0.00	-0.558594	0.216797	1.200684	-16.799999	-426.649994	10.570000	0.00	0.00	0.00	9.50	6.25	7.25	6.25	6.75	3.50	3.00	1.00	4.50	2.50	3.50	3.25	2.75	3.00	2.25	1.00	-0.263672	0.051270	0.943848	-9.730000	7.770000	-3.150000	778.00	-0.08	-0.02
2.56	0.00	0.00	0.00	0.00	0.00	0.00	0.00	0.00	0.00	0.00	0.00	0.00	0.00	0.00	0.00	0.00	-0.642090	0.241211	1.250977	-17.219999	-422.799988	12.040000	0.00	0.00	0.00	8.75	5.75	7.00	5.75	6.75	3.50	3.50	1.00	5.25	2.75	4.00	3.50	2.50	3.25	2.50	1.00	-0.270020	0.043457	0.939453	-7.910000	8.050000	-3.080000	789.00	-0.05	-0.01
2.57	0.00	0.00	0.00	0.00	0.00	0.00	0.00	0.00	0.00	0.00	0.00	0.00	0.00	0.00	0.00	0.00	-0.703613	0.275879	1.318359	-12.180000	-418.250000	13.860000	0.00	0.00	0.00	7.75	5.25	6.75	5.25	6.75	3.25	4.00	1.00	5.75	2.25	5.00	3.75	3.50	4.00	2.75	1.50	-0.266113	0.043945	0.938965	-6.930000	8.190000	-2.800000	807.00	-0.03	-0.01
2.58	0.00	0.00	0.00	0.00	0.00	0.00	0.00	0.00	0.00	0.00	0.00	0.00	0.00	0.00	0.00	0.00	-0.870605	0.332520	1.544922	15.330000	-409.709991	19.180000	0.00	0.00	0.00	7.25	4.00	6.25	4.50	6.75	3.00	4.50	1.25	6.50	3.00	6.00	4.25	3.00	4.00	3.00	1.50	-0.260254	0.046875	0.930176	-6.650000	8.470000	-3.080000	818.00	-0.00	-0.01
2.59	0.00	0.00	0.00	0.00	0.00	0.00	0.00	0.00	0.00	0.00	0.00	0.00	0.00	0.00	0.00	0.00	-0.977539	0.330566	1.629395	37.380001	-405.790009	22.540001	0.00	0.00	0.00	6.50	3.75	6.00	4.00	6.50	3.00	5.00	1.00	7.25	3.50	7.25	5.00	3.25	4.75	3.00	1.75	-0.262207	0.042969	0.935059	-6.650000	8.610000	-3.220000	849.00	0.02	-0.00
2.60	0.00	0.00	0.00	0.00	0.00	0.00	0.00	0.25	0.00	0.00	0.00	0.00	0.00	0.00	0.00	0.00	-1.089844	0.349121	1.662109	62.790001	-398.929993	26.530001	4.00	0.00	0.00	6.00	3.00	5.75	3.50	6.50	3.00	5.25	1.25	7.75	3.75	7.75	5.00	3.75	5.25	3.25	2.00	-0.239746	0.065430	0.933594	-6.860000	8.680000	-3.640000	864.00	0.04	-0.00
2.61	0.00	0.00	0.00	0.00	0.00	0.00	0.00	0.00	0.00	0.00	0.00	0.00	0.00	0.00	0.00	0.00	-1.155273	0.331055	1.713379	89.739998	-385.910004	30.799999	0.00	0.00	0.00	5.25	2.50	5.50	2.75	6.50	2.50	5.50	1.25	8.25	4.25	8.25	6.25	4.00	5.50	3.75	2.00	-0.381836	0.083496	0.982422	-6.720000	8.540000	-4.060000	880.00	0.07	-0.00
2.62	0.00	0.00	0.00	0.00	0.00	0.00	0.00	0.00	0.00	0.00	0.00	0.00	0.00	0.00	0.00	0.00	-1.230957	0.330078	1.909668	115.919998	-363.860016	33.459999	0.00	0.00	0.00	5.25	2.25	5.25	2.75	6.25	2.25	5.75	1.00	8.75	6.00	8.75	7.00	4.75	5.75	4.00	2.25	0.036133	0.034180	0.934570	-6.580000	7.700000	-4.340000	924.00	0.08	-0.00
2.63	0.00	0.00	0.00	0.00	0.00	0.00	0.00	0.00	0.00	0.00	0.00	0.00	0.00	0.00	0.00	0.00	-1.412109	0.373047	2.331543	137.619995	-337.959991	35.139999	0.00	0.00	0.00	4.25	1.75	4.75	2.00	6.25	2.25	6.00	1.25	9.50	6.00	9.25	7.75	5.00	6.25	4.50	2.00	-0.211426	-0.098145	0.901367	-6.230000	8.260000	-4.130000	937.00	0.10	-0.00
2.64	0.00	0.00	0.00	0.00	0.00	0.00	0.00	0.00	0.00	0.00	0.00	0.00	0.00	0.00	0.00	0.00	-1.682129	0.419434	2.936035	149.309998	-324.799988	40.880001	0.00	0.00	0.00	3.50	1.75	4.50	1.75	6.00	2.00	6.50	1.25	9.75	7.00	9.50	8.00	5.25	6.75	4.75	3.00	-0.015137	-0.170410	0.916504	-5.950000	9.030000	-4.620000	961.00	0.12	-0.00
2.65	0.00	0.00	0.00	0.00	0.00	0.00	0.00	0.00	0.00	0.00	0.00	0.00	0.00	0.00	0.00	0.00	-1.991699	0.508789	3.283691	145.250000	-333.829987	53.970001	0.00	0.00	0.00	2.50	1.00	3.50	2.00	5.75	1.75	6.75	1.25	10.25	7.75	10.25	8.25	5.25	7.25	5.00	3.50	-0.332520	0.027832	0.926270	-4.830000	11.410000	-4.620000	969.00	0.14	-0.00
2.66	0.00	0.00	0.00	0.00	0.00	0.25	0.00	0.00	0.00	0.00	0.00	0.00	0.00	0.00	0.00	0.00	-2.322754	0.568848	3.129395	129.289993	-353.500000	74.059998	3.00	0.00	0.00	2.50	1.00	3.00	1.25	5.50	1.75	7.00	1.50	11.00	8.25	10.75	8.75	6.00	7.25	5.50	4.00	-0.120605	-0.091797	0.892090	-3.990000	13.440001	-5.180000	1003.00	0.15	-0.00
2.67	0.00	0.00	0.00	0.00	0.00	0.00	0.00	0.00	0.00	0.00	0.00	0.00	0.00	0.00	0.00	0.00	-2.635254	0.513184	2.649902	112.840004	-365.540009	97.720001	0.00	0.00	0.00	1.25	0.50	2.75	1.00	5.00	1.50	7.25	1.50	11.50	8.75	11.25	9.25	6.00	7.75	5.75	4.50	-0.272949	0.131836	0.950195	-0.630000	19.670000	-4.620000	1008.00	0.17	-0.00
2.68	0.00	0.00	0.00	0.00	0.00	0.00	0.00	0.00	0.00	0.00	0.00	0.00	0.00	0.00	0.00	0.00	-2.864746	0.386719	2.195312	102.760002	-360.640015	120.190002	0.00	0.00	0.00	1.50	0.75	2.00	0.75	4.00	1.50	7.50	1.75	12.00	9.00	11.75	9.75	6.50	8.00	6.00	5.00	-0.201660	0.032715	0.930176	0.700000	24.500000	-4.830000	1031.00	0.18	-0.01
2.69	0.00	0.00	0.00	0.00	0.00	0.00	0.00	0.00	0.00	0.00	0.00	0.00	0.00	0.00	0.00	0.00	-3.058105	0.265137	1.922852	92.470001	-345.380005	138.600006	0.00	0.00	0.00	1.00	0.50	1.25	0.50	3.00	1.00	7.75	1.75	12.75	9.75	12.50	10.25	7.00	8.50	6.75	5.25	-0.270996	0.039062	0.937012	1.610000	30.240000	-5.460000	1050.00	0.20	-0.01
2.70	0.00	0.00	0.00	0.00	0.00	0.00	0.00	0.00	0.00	0.00	0.00	0.00	0.00	0.00	0.00	0.00	-3.349609	0.201660	1.695801	69.860001	-331.589996	151.410004	0.00	0.00	0.00	0.75	0.00	1.25	0.50	2.25	1.00	7.75	1.50	13.25	10.25	13.00	10.50	7.75	8.75	6.75	5.50	-0.284668	0.027832	0.934570	2.730000	37.170002	-5.460000	1062.00	0.21	-0.01
2.71	0.00	0.00	0.00	0.00	0.00	0.00	0.00	0.00	0.00	0.00	0.00	0.00	0.00	0.00	0.00	0.00	-3.625488	0.127930	1.222168	37.869999	-318.779999	153.509995	0.00	0.00	0.00	0.50	0.25	1.00	0.25	1.75	0.50	7.75	1.50	13.75	10.75	13.50	11.00	8.00	9.00	7.50	6.25	-0.270996	0.009766	0.941895	3.080000	46.200001	-5.040000	1085.00	0.22	-0.01
2.72	0.00	0.00	0.00	0.00	0.00	0.25	0.00	0.00	0.25	0.00	0.00	0.00	0.00	0.00	0.00	0.00	-3.921875	0.105957	0.540039	10.290000	-298.970001	138.250000	7.00	0.00	0.00	0.00	0.25	1.00	0.25	1.00	0.75	7.75	1.50	14.00	11.00	14.00	11.25	8.25	9.25	7.75	6.50	-0.281738	0.037598	0.959473	4.410000	61.320000	-6.300000	1098.00	0.22	-0.01
2.73	0.00	0.00	0.00	0.00	0.00	0.00	0.00	0.00	0.00	0.00	0.00	0.00	0.00	0.00	0.00	0.00	-4.499023	-0.109863	-0.675781	78.540001	-219.029999	84.000000	0.00	0.00	0.00	0.00	0.00	0.75	0.00	1.00	0.50	7.75	1.25	14.75	11.50	14.50	11.50	8.50	9.50	8.00	7.00	-0.316895	0.024414	0.983398	4.410000	77.559998	-7.210000	1118.00	0.23	-0.01
2.74	0.00	0.00	0.00	0.00	0.00	0.00	0.00	0.00	0.00	0.00	0.00	0.00	0.00	0.00	0.00	0.00	-4.720215	-0.502441	-0.976562	151.130005	-161.419998	65.239998	0.00	0.00	0.00	0.00	0.00	0.75	0.00	1.00	1.00	8.00	1.00	15.00	12.50	16.00	12.25	9.00	10.75	9.00	8.25	-0.272461	0.038086	1.119629	7.000000	100.590004	-8.540000	1200.00	0.23	-0.01
2.75	0.00	0.00	0.00	0.00	0.00	0.25	0.00	0.00	0.00	0.00	0.00	0.00	0.00	0.00	0.00	0.00	-4.752441	-0.896484	-1.156250	175.559998	-98.769997	45.500000	3.00	0.00	0.00	0.00	0.00	1.00	0.00	1.25	1.00	7.75	1.00	17.00	13.00	16.25	12.50	8.75	10.50	9.25	8.25	-0.329590	0.052246	1.132812	5.950000	131.250000	-10.920000	1240.00	0.23	-0.01
2.76	0.00	0.00	0.00	0.00	0.00	0.00	0.00	0.00	0.00	0.00	0.00	0.00	0.00	0.00	0.00	0.00	-4.546387	-1.083008	-1.154785	141.610001	-36.820000	23.590000	0.00	0.00	0.00	0.00	0.00	0.00	0.00	0.50	0.00	7.75	0.75	15.25	12.25	15.25	11.75	8.25	10.50	9.00	7.75	-0.407227	0.087891	1.040039	-0.490000	168.490005	-14.070000	1138.00	0.24	-0.01
2.77	0.00	0.00	0.00	0.00	0.00	0.00	0.00	0.00	0.00	0.00	0.00	0.00	0.00	0.00	0.00	0.00	-9.079102	-0.807129	-5.351074	47.389999	-32.200001	-14.280000	0.00	0.00	0.00	0.00	0.25	0.00	0.00	0.50	0.25	7.50	0.50	15.75	12.50	15.25	12.00	8.00	10.75	9.00	7.75	-0.416016	0.046875	0.996094	-6.790000	209.509995	-17.500000	1148.00	0.24	-0.00
2.78	0.00	0.00	0.00	0.00	0.00	0.00	0.00	0.00	0.00	0.00	0.00	0.00	0.00	0.00	0.00	0.00	-0.988281	-1.074219	-2.202637	-115.220001	229.600006	23.170000	0.00	0.00	0.00	0.00	0.00	0.00	0.00	0.25	0.00	7.50	1.00	18.50	13.75	16.50	12.75	8.50	12.50	10.25	8.25	-0.548828	0.033203	0.856445	-14.980000	245.699997	-20.370001	1263.00	0.25	-0.00
2.79	1.50	3.25	0.00	0.00	0.00	0.00	0.00	0.00	0.00	0.00	0.00	0.00	0.00	0.00	0.00	0.00	-1.083984	0.329590	0.987793	-135.449997	359.380005	12.670000	50.00	0.00	0.00	0.00	0.00	0.00	0.00	0.25	0.00	7.50	0.25	15.75	12.75	15.25	11.50	7.50	10.75	9.25	7.75	-0.453125	0.020020	1.128418	-34.090000	310.519989	-26.670000	1131.00	0.25	0.00
2.80	4.00	5.25	0.00	0.00	0.00	0.00	0.00	0.00	0.00	0.00	0.00	0.00	0.00	0.00	0.00	0.00	0.065918	-0.259277	2.007812	-175.559998	311.500000	7.210000	98.00	-0.41	-0.04	0.00	0.00	0.00	0.00	0.25	0.00	7.50	0.25	15.50	12.75	15.00	11.50	6.75	10.75	9.25	7.75	-0.519043	-0.007324	0.898926	-42.139999	340.480011	-29.469999	1117.00	0.25	0.00
2.81	4.25	6.00	0.00	0.00	0.00	0.00	0.00	0.00	0.00	0.00	0.00	0.00	0.00	0.00	0.00	0.00	-0.972656	-0.251953	0.782227	-181.160004	266.350006	6.650000	109.00	-0.41	-0.04	0.00	0.00	0.00	0.00	0.25	0.00	7.00	0.50	14.50	12.50	14.75	11.50	6.00	10.50	9.25	8.00	-0.616211	0.084961	1.132324	-40.670002	362.600006	-34.090000	1085.00	0.25	-0.00
2.82	7.00	8.75	0.00	0.00	0.00	0.00	0.00	0.00	0.00	0.00	0.00	0.00	0.00	0.00	0.00	0.00	-1.297852	-0.030273	1.201660	-148.190002	293.720001	16.660000	167.00	-0.41	-0.04	0.00	0.00	0.00	0.00	0.25	0.00	6.50	0.75	13.00	11.75	14.25	11.25	6.00	10.25	9.50	8.25	-1.036133	0.335449	1.150879	-16.870001	381.709991	-36.959999	1045.00	0.25	-0.01
2.83	9.25	12.00	0.00	1.00	0.00	0.00	0.00	0.00	0.00	0.00	0.00	0.00	0.00	0.00	0.00	0.00	-1.262695	-0.686035	2.763184	-92.959999	320.600006	31.080000	238.00	-0.40	-0.05	0.00	0.00	0.00	0.00	0.00	0.00	5.75	0.25	11.00	10.25	12.75	10.50	5.75	9.75	9.25	8.00	-1.137207	0.167969	1.732910	31.920000	401.940002	-34.299999	938.00	0.26	-0.01
2.84	11.50	12.50	0.00	3.25	0.00	0.00	0.00	0.00	0.00	0.00	0.00	0.00	0.00	0.00	0.00	0.00	-2.107910	-1.291504	4.071289	-25.340000	329.839996	23.100000	295.00	-0.39	-0.05	0.00	0.00	0.00	0.00	0.25	0.00	5.00	0.25	9.00	8.50	11.00	9.50	5.25	9.75	9.25	8.25	-1.799316	0.104492	2.432129	79.379997	434.209991	-25.480000	846.00	0.26	-0.02
2.85	12.75	13.25	0.00	5.25	0.00	0.00	0.00	0.00	0.00	0.00	0.00	0.00	0.00	0.00	0.00	0.00	-1.005859	-0.839844	3.266602	20.299999	282.450012	-12.810000	341.00	-0.39	-0.06	0.00	0.00	0.00	0.00	0.00	0.00	3.75	0.00	7.50	6.25	9.25	8.25	5.00	9.25	8.75	7.25	-2.795410	0.037598	3.800781	85.610001	495.110016	-10.010000	718.00	0.27	-0.03
2.86	14.25	14.00	0.50	7.25	0.00	0.00	0.00	0.00	0.00	0.00	0.00	0.00	0.00	0.00	0.00	0.00	-0.520996	0.295898	2.166504	38.500000	205.449997	-39.130001	395.00	-0.38	-0.06	0.00	0.00	0.00	0.00	0.00	0.00	2.75	0.00	6.00	4.25	7.75	7.00	5.00	8.25	8.00	6.00	-2.540039	-0.068359	3.579590	85.540001	549.710022	2.800000	600.00	0.27	-0.04
2.87	13.25	13.50	1.75	6.75	0.00	0.00	0.00	0.00	0.00	0.00	0.00	0.00	0.00	0.00	0.00	0.00	-0.233887	0.672363	0.970215	34.230000	160.160004	-27.719999	388.00	-0.38	-0.06	0.00	0.00	0.00	0.00	0.00	0.00	1.75	0.00	5.25	3.75	6.25	5.75	4.00	7.25	7.00	5.00	-2.117676	0.087891	2.800781	81.830002	583.729980	-3.150000	499.00	0.28	-0.04
2.88	14.50	14.00	2.50	8.50	0.00	0.50	0.00	0.00	0.00	0.00	0.00	0.00	0.00	0.00	0.00	0.00	-0.583496	-0.052734	1.376465	-38.290001	111.930000	1.680000	443.00	-0.37	-0.06	0.25	0.50	1.00	0.00	0.00	0.00	0.75	0.00	4.75	3.75	5.25	5.00	3.00	6.25	6.00	3.00	-2.581055	0.925293	3.526367	77.279999	593.109985	-4.690000	434.00	0.26	-0.03
2.89	22.00	18.25	5.25	10.50	1.25	4.00	0.00	0.50	0.00	0.00	0.25	0.50	0.00	0.00	0.00	0.00	-0.178711	-0.086426	0.651367	-64.610001	68.669998	-3.150000	702.00	-0.34	-0.06	0.00	0.00	0.00	0.00	0.00	0.00	0.25	0.00	2.75	3.00	4.25	4.00	2.00	5.00	5.00	1.25	-1.978027	0.600098	3.274414	107.099998	593.950012	-15.470000	302.00	0.29	-0.04
2.90	22.50	18.50	6.75	11.00	1.50	5.00	0.00	1.00	0.00	0.25	0.25	0.50	0.25	0.00	0.00	0.00	-0.306641	0.178711	1.047363	-77.349998	68.809998	-8.120000	763.00	-0.33	-0.07	0.00	0.00	0.00	0.00	0.00	0.00	0.00	0.00	1.75	2.75	3.25	2.50	0.00	2.25	3.00	0.25	-0.767578	0.775879	4.807129	124.389999	548.729980	-39.340000	179.00	0.29	-0.02
2.91	23.00	18.50	7.50	11.00	2.00	5.25	0.00	1.00	0.00	0.00	0.00	0.00	0.00	0.00	0.00	0.00	-0.357422	0.053223	1.319824	-79.029999	58.869999	-7.210000	773.00	-0.33	-0.06	0.00	0.00	0.00	0.00	0.25	0.00	0.25	0.50	2.75	3.50	3.75	3.50	1.50	2.50	3.25	1.75	1.942871	0.321289	4.299316	151.550003	367.850006	-92.260002	263.00	0.26	-0.05
2.92	21.00	18.25	8.00	11.25	2.75	5.50	0.00	0.00	0.00	0.00	0.00	0.00	0.00	0.00	0.00	0.00	-0.286621	0.033203	1.089844	-66.849998	37.520000	-6.860000	752.00	-0.33	-0.06	1.25	0.50	1.00	0.75	0.75	1.00	0.00	0.00	2.25	2.75	2.75	2.50	2.00	2.25	2.75	1.25	1.964844	-0.130859	3.204590	153.300003	251.369995	-111.370003	264.00	0.15	-0.05
2.93	15.75	14.25	6.75	9.50	2.00	4.25	0.00	0.25	0.00	0.00	0.25	0.00	0.00	0.00	0.00	0.00	-0.295410	0.062988	1.015625	-56.630001	24.710001	-6.160000	600.00	-0.33	-0.06	1.50	1.00	1.50	0.75	0.50	1.25	0.25	1.00	2.00	2.50	2.50	2.25	1.25	2.00	2.25	0.75	0.371582	1.604980	3.854980	86.239998	209.020004	-109.480003	268.00	0.10	-0.06
2.94	15.25	13.75	7.00	9.25	2.50	4.50	0.00	0.75	0.00	0.00	0.25	0.50	0.00	0.00	0.00	0.00	-0.273926	0.045898	1.006836	-48.020000	16.450001	-5.250000	612.00	-0.31	-0.07	1.50	1.00	1.25	1.00	0.75	1.00	0.00	0.75	1.75	2.25	2.25	2.25	1.50	2.00	2.25	1.25	2.552246	0.942383	4.833984	40.320000	2.030000	-78.260002	256.00	0.10	-0.07
2.95	22.50	17.75	9.00	11.25	5.25	7.50	0.25	2.75	0.25	0.75	1.25	1.50	3.50	0.50	0.50	0.50	-0.278809	0.051270	0.979004	-40.810001	10.360000	-4.550000	970.00	-0.25	-0.08	1.50	0.75	1.00	1.25	0.75	0.75	0.25	0.75	1.75	2.25	1.25	0.25	0.00	0.00	0.00	0.50	1.705078	0.865234	3.480957	31.639999	-177.940002	-38.990002	157.00	-0.02	-0.02
2.96	22.00	17.25	9.25	11.25	5.75	7.25	0.25	3.00	0.25	1.00	1.50	1.75	3.75	0.75	0.50	0.50	-0.282715	0.039062	0.982422	-34.860001	6.370000	-4.060000	983.00	-0.24	-0.08	0.00	0.25	0.00	0.00	0.00	0.00	0.00	0.00	0.00	1.00	1.75	0.75	0.00	0.00	0.00	0.00	1.062988	0.359863	2.696777	6.370000	-285.179993	-20.580000	43.00	0.00	0.00
2.97	21.00	16.25	9.25	11.00	6.00	7.75	0.25	3.25	0.50	1.25	2.00	2.00	4.50	0.75	0.50	1.00	-0.271484	0.021484	0.972656	-27.510000	4.970000	-3.080000	997.00	-0.23	-0.09	0.00	0.00	0.00	0.00	0.00	0.00	0.00	0.00	0.00	0.25	0.50	0.25	0.00	0.00	0.00	0.00	0.975586	0.260742	1.933594	-4.760000	-330.329987	-15.960000	11.00	0.00	0.00
2.98	19.75	15.50	9.00	10.75	6.00	7.75	0.50	3.00	0.00	1.25	1.50	1.50	4.00	0.75	0.50	0.00	-0.282227	0.029785	0.968262	-20.440001	5.250000	-2.170000	940.00	-0.24	-0.09	0.00	0.00	0.00	0.00	0.00	0.00	0.00	0.00	0.00	0.00	0.25	0.00	0.00	0.00	0.00	0.00	0.778320	0.159668	1.428223	-3.640000	-342.649994	-15.750000	3.00	0.00	0.00
2.99	19.00	14.75	9.00	10.25	6.25	8.00	0.50	4.00	1.00	1.00	2.25	2.00	5.50	0.75	0.00	0.00	-0.265137	0.025879	0.955078	-15.470000	5.600000	-1.400000	975.00	-0.21	-0.09	0.00	0.00	0.00	0.00	0.00	0.00	0.00	0.00	0.00	0.00	0.25	0.00	0.00	0.00	0.00	0.00	0.631348	0.123047	1.306152	-5.600000	-347.690002	-19.040001	3.00	0.00	0.00
3.00	11.25	10.50	7.00	8.25	5.25	6.25	0.25	2.75	0.00	0.50	1.75	3.25	5.75	0.00	0.75	0.25	-0.266113	0.020508	0.946289	-12.950000	6.580000	-0.840000	732.00	-0.19	-0.12	0.00	0.00	0.00	0.00	0.00	0.00	0.00	0.00	0.00	0.00	0.00	0.00	0.00	0.00	0.00	0.00	0.597656	0.105957	1.342773	-6.930000	-358.540009	-22.190001	0.00	0.00	0.00
3.01	11.50	11.00	8.25	8.75	6.00	6.00	0.50	4.50	1.50	1.75	2.75	2.75	5.00	1.00	0.50	0.50	-0.263184	0.021484	0.939941	-11.690000	8.120000	-0.770000	843.00	-0.16	-0.11	0.00	0.00	0.00	0.00	0.00	0.00	0.00	0.00	0.00	0.00	0.00	0.00	0.00	0.00	0.00	0.00	0.297852	0.066406	1.473633	-3.850000	-379.329987	-23.660000	0.00	0.00	0.00
3.02	10.25	8.75	7.50	8.75	5.75	7.75	0.75	5.00	1.50	1.75	3.25	4.25	6.50	1.75	1.00	1.00	-0.265625	0.025879	0.945312	-12.040000	9.450000	-1.120000	880.00	-0.12	-0.12	0.00	0.00	0.00	0.00	0.00	0.00	0.00	0.00	0.00	0.00	0.00	0.00	0.00	0.00	0.00	0.00	0.139160	0.053223	1.572266	6.580000	-405.579987	-21.980000	0.00	0.00	0.00
3.03	12.00	10.00	7.50	8.50	6.00	7.50	1.00	5.00	2.25	2.00	3.50	4.50	6.75	2.25	1.25	1.25	-0.266113	0.019043	0.951660	-14.420000	10.990000	-2.450000	944.00	-0.12	-0.11	0.00	0.00	0.00	0.00	0.00	0.00	0.00	0.00	0.00	0.00	0.00	0.00	0.00	0.00	0.00	0.00	-0.126953	-0.068848	1.405273	20.299999	-447.649994	-14.350000	0.00	0.00	0.00
3.04	10.50	8.75	7.25	7.75	5.75	7.00	1.00	4.00	3.00	2.25	4.00	4.75	6.75	2.50	1.25	1.25	-0.273438	0.010254	0.941406	-14.630000	11.410000	-2.800000	901.00	-0.10	-0.10	0.00	0.00	0.00	0.00	0.00	0.00	0.00	0.00	0.00	0.00	0.00	0.00	0.00	0.00	0.00	0.00	-0.241699	-0.083984	1.293945	19.809999	-458.080017	-9.450000	0.00	0.00	0.00
3.05	9.25	7.50	6.75	7.00	5.75	6.75	1.25	4.50	3.00	2.75	5.50	5.75	7.50	3.00	1.25	1.25	-0.270508	0.007812	0.949219	-14.350000	11.760000	-2.940000	915.00	-0.07	-0.11	0.00	0.00	0.00	0.00	0.00	0.00	0.00	0.00	0.00	0.00	0.00	0.00	0.00	0.00	0.00	0.00	-0.342773	-0.081055	1.214844	18.900000	-459.619995	-3.150000	0.00	0.00	0.00
3.06	7.75	6.50	6.50	6.50	5.50	6.00	1.50	4.25	4.25	3.25	6.25	6.00	7.50	3.00	1.75	1.50	-0.280762	-0.000488	0.943848	-13.790000	12.390000	-3.010000	909.00	-0.04	-0.10	0.00	0.00	0.00	0.00	0.00	0.00	0.00	0.00	0.00	0.00	0.00	0.00	0.00	0.00	0.00	0.00	-0.426270	-0.061035	1.189453	20.860001	-453.950012	3.850000	0.00	0.00	0.00
3.07	7.00	5.75	5.75	5.50	5.25	5.75	2.00	3.75	5.00	3.50	7.50	6.50	7.50	3.75	1.75	1.75	-0.288574	0.004395	0.939453	-12.740000	13.160000	-3.290000	908.00	-0.01	-0.09	0.00	0.00	0.00	0.00	0.00	0.00	0.00	0.00	0.00	0.00	0.00	0.00	0.00	0.00	0.00	0.00	-0.485840	-0.038574	1.244141	28.350000	-444.920013	11.410000	0.00	0.00	0.00
3.08	6.00	4.50	5.00	3.75	4.00	2.50	2.25	1.75	4.00	3.50	7.00	6.00	6.00	2.75	1.00	1.25	-0.254395	-0.004395	0.929199	-11.480000	14.280000	-3.430000	711.00	0.00	-0.07	0.00	0.00	0.00	0.00	0.00	0.00	0.00	0.00	0.00	0.00	0.00	0.00	0.00	0.00	0.00	0.00	-0.521484	0.002930	1.462402	41.509998	-437.989990	19.530001	0.00	0.00	0.00
3.09	1.50	0.00	1.75	0.00	3.00	0.50	2.75	1.25	4.50	3.50	7.50	6.75	6.25	3.00	0.75	1.25	-0.282227	0.010254	0.944336	-10.570000	15.680000	-3.360000	517.00	0.14	-0.06	0.00	0.00	0.00	0.00	0.00	0.00	0.00	0.00	0.00	0.00	0.00	0.00	0.00	0.00	0.00	0.00	-0.643555	0.042480	1.750488	60.270000	-435.190002	29.469999	0.00	0.00	0.00
3.10	0.75	0.00	1.25	0.00	3.00	0.25	3.50	1.25	6.00	5.00	8.50	8.00	8.50	5.00	2.75	2.25	-0.283203	0.007324	0.941406	-9.870000	17.570000	-3.780000	645.00	0.18	-0.06	0.00	0.00	0.00	0.00	0.00	0.00	0.00	0.00	0.00	0.00	0.00	0.00	0.00	0.00	0.00	0.00	-0.782715	-0.006836	1.827637	85.889999	-435.820007	42.700001	0.00	0.00	0.00
3.11	0.25	0.00	1.00	0.00	2.00	0.00	3.75	1.50	6.25	4.50	8.25	7.50	7.00	4.00	1.50	1.50	-0.286133	0.000000	0.937500	-9.030000	19.250000	-4.130000	577.00	0.19	-0.05	0.00	0.00	0.00	0.00	0.00	0.00	0.00	0.00	0.00	0.00	0.00	0.00	0.00	0.00	0.00	0.00	-0.906250	-0.101074	1.826660	111.650002	-432.179993	54.389999	0.00	0.00	0.00
3.12	0.00	0.00	0.00	0.00	1.75	0.00	4.25	1.00	7.00	5.50	8.50	7.75	7.50	4.25	1.75	2.00	-0.282227	-0.067383	0.935059	-7.980000	21.350000	-4.760000	599.00	0.21	-0.04	0.00	0.00	0.00	0.00	0.00	0.00	0.00	0.00	0.00	0.00	0.00	0.00	0.00	0.00	0.00	0.00	-0.997070	-0.225098	1.811035	136.080002	-417.269989	59.639999	0.00	0.00	0.00
3.13	0.00	0.00	0.00	0.00	1.50	0.00	4.75	0.50	7.50	6.50	9.00	8.00	7.50	5.00	1.75	1.75	-0.300293	-0.010742	0.935547	-7.350000	23.240000	-5.390000	629.00	0.21	-0.03	0.00	0.00	0.00	0.00	0.00	0.00	0.00	0.00	0.00	0.00	0.00	0.00	0.00	0.00	0.00	0.00	-1.126465	-0.261230	1.915039	152.039993	-391.230011	56.490002	0.00	0.00	0.00
3.14	0.00	0.00	0.00	0.00	1.00	0.00	5.00	0.75	7.75	7.25	9.50	8.25	7.50	5.00	2.00	2.25	-0.299316	-0.001465	0.927246	-6.440000	24.360001	-5.390000	658.00	0.22	-0.03	0.00	0.25	0.00	0.00	0.00	0.00	0.00	0.00	0.00	0.00	0.00	0.00	0.00	0.00	0.00	0.00	-1.283691	-0.181152	2.209961	154.210007	-360.500000	51.520000	3.00	0.00	0.00
3.15	0.00	0.00	0.00	0.00	1.00	0.00	5.25	0.75	8.25	7.75	9.75	8.50	8.00	5.50	2.00	2.25	-0.304688	-0.009277	0.918945	-5.740000	25.059999	-5.040000	690.00	0.22	-0.03	0.00	0.00	0.00	0.00	0.00	0.00	0.00	0.00	0.00	0.00	0.00	0.00	0.00	0.00	0.00	0.00	-1.756348	0.212402	3.474609	124.669998	-346.850006	68.110001	0.00	0.00	0.00
3.16	0.00	0.00	0.00	0.00	1.25	1.00	5.50	2.00	9.50	8.75	10.75	9.25	9.25	7.25	3.50	3.50	-0.312012	0.000000	0.926270	-5.740000	25.830000	-4.900000	831.00	0.21	-0.04	0.00	0.00	0.50	0.75	0.50	1.00	0.00	0.75	0.75	0.50	0.00	0.00	0.00	0.00	0.00	0.00	-2.114746	0.259277	3.401367	102.900002	-364.980011	90.370003	62.00	-0.05	-0.10
3.17	0.25	0.00	0.25	0.25	1.25	0.00	5.75	2.50	10.50	9.25	11.25	9.75	9.50	7.50	3.75	3.50	-0.310059	0.003906	0.931152	-6.930000	29.049999	-5.250000	880.00	0.21	-0.04	0.00	0.00	0.00	0.00	0.00	0.00	0.00	0.00	0.00	0.00	0.00	0.00	0.00	0.00	0.00	0.00	-2.528809	0.208984	2.977051	83.930000	-375.200012	110.250000	0.00	0.00	0.00
3.18	0.00	0.00	0.25	0.00	0.75	0.75	6.00	2.00	11.00	9.50	11.75	10.00	9.50	7.75	5.00	3.50	-0.313477	-0.022949	0.931152	-7.000000	31.430000	-5.600000	908.00	0.22	-0.03	0.00	0.00	0.00	0.00	0.00	0.00	0.00	0.00	0.00	0.00	0.00	0.00	0.00	0.75	1.00	0.50	-2.933105	0.125977	2.582520	67.830002	-369.250000	123.830002	21.00	0.00	0.00
3.19	0.25	0.00	0.50	0.00	1.00	0.50	6.25	1.75	11.50	10.00	12.25	10.25	10.00	8.25	4.75	4.25	-0.319336	-0.012695	0.925293	-5.670000	35.279999	-5.950000	946.00	0.22	-0.03	1.25	1.00	1.00	0.75	0.50	0.75	0.00	0.75	1.00	0.50	1.00	1.00	1.00	0.50	1.00	0.50	-3.198730	0.046875	2.215332	51.450001	-355.880005	136.570007	144.00	0.01	-0.10
3.20	0.25	0.00	0.00	0.00	0.50	1.00	6.50	1.75	12.25	10.25	12.75	9.75	8.75	7.25	3.50	3.25	-0.335449	-0.011719	0.925781	-4.830000	38.430000	-5.320000	916.00	0.22	-0.02	0.00	0.00	0.00	0.00	0.00	0.00	0.00	0.00	0.00	0.00	0.00	0.00	0.00	0.00	0.00	0.00	-3.379883	-0.070312	1.795898	28.280001	-340.690002	152.039993	0.00	0.00	0.00
3.21	0.00	0.00	0.00	0.00	0.50	0.50	6.50	1.75	12.75	11.00	13.25	10.75	10.25	8.75	5.50	5.50	-0.344727	-0.011719	0.920898	-4.480000	41.930000	-3.990000	1005.00	0.23	-0.03	0.50	0.50	1.00	0.75	0.50	1.00	0.00	0.50	0.50	0.25	0.00	0.00	0.00	0.00	0.00	0.00	-3.624023	-0.208984	1.266113	-0.910000	-318.500000	163.660004	68.00	-0.15	-0.08
3.22	0.00	0.00	0.00	0.00	0.25	0.50	6.75	1.75	13.50	11.25	13.75	11.25	10.25	9.25	5.50	5.50	-0.354004	-0.011230	0.926758	-4.130000	48.720001	-3.010000	1036.00	0.23	-0.03	0.00	0.00	0.00	0.00	0.00	0.00	0.00	0.00	0.00	0.00	0.00	0.00	0.00	0.00	0.00	0.00	-4.041992	-0.354492	0.630371	-26.740000	-289.239990	159.669998	0.00	0.00	0.00
3.23	0.00	0.00	0.00	0.00	0.25	1.00	7.00	2.00	14.00	11.75	14.00	11.25	10.25	9.50	5.75	5.50	-0.351562	-0.010742	0.934082	-4.480000	57.119999	-3.010000	1071.00	0.23	-0.02	0.00	0.00	0.00	0.00	0.25	0.50	0.00	0.25	0.75	0.50	0.75	0.50	0.25	0.25	1.00	0.25	-4.334473	-0.459473	-0.075684	-38.920002	-251.020004	134.889999	62.00	0.20	-0.07
3.24	0.00	0.00	0.00	0.00	0.00	0.00	6.75	0.00	12.50	11.25	13.25	10.50	9.25	8.75	5.00	5.50	-0.358398	0.007324	0.935059	-4.410000	67.690002	-3.290000	949.00	0.24	-0.01	0.00	0.00	0.00	0.00	0.00	0.00	0.00	0.00	0.00	0.00	0.00	0.00	0.00	0.00	0.00	0.00	-4.747559	-0.522949	-0.694824	-32.900002	-204.119995	91.209999	0.00	0.00	0.00
3.25	0.00	0.00	0.00	0.00	0.00	0.00	7.00	0.75	14.00	11.50	13.75	11.25	9.75	10.00	6.25	6.00	-0.390137	-0.014648	0.922852	-4.690000	82.669998	-3.430000	1038.00	0.24	-0.01	0.00	0.00	0.00	0.00	0.00	0.00	0.00	0.00	0.00	0.00	0.00	0.00	0.00	0.00	0.00	0.00	-4.915039	-0.580078	-1.256348	-4.760000	-147.559998	40.880001	0.00	0.00	0.00
3.26	0.00	0.00	0.25	0.00	0.00	0.00	7.00	0.75	15.75	13.00	14.00	11.50	10.25	9.50	5.25	5.25	-0.396484	-0.018555	0.919434	-6.650000	100.800003	-3.710000	1073.00	0.24	-0.01	0.00	0.00	0.00	0.00	0.00	0.00	0.00	0.00	0.00	0.00	0.00	0.00	0.00	0.00	0.00	0.00	-4.800293	-0.689941	-1.489746	32.900002	-80.849998	-5.460000	0.00	0.00	0.00
3.27	0.00	0.00	0.00	0.00	0.00	0.00	6.75	0.00	13.75	12.25	13.75	10.75	9.00	10.00	5.50	5.75	-0.414062	-0.026367	0.943359	-9.240000	124.040001	-3.150000	1003.00	0.24	-0.00	0.00	0.00	0.00	0.00	0.00	0.00	0.00	0.00	0.00	0.25	0.50	0.50	1.25	0.75	1.00	0.50	-9.100098	-1.214844	-2.015625	-38.779999	-28.770000	-71.610001	47.00	0.00	0.00
3.28	0.00	0.00	0.00	0.00	0.00	0.00	6.75	0.75	16.75	12.50	14.75	11.50	9.75	12.00	6.50	6.25	-0.449219	-0.008301	0.944824	-15.680000	160.089996	-2.520000	1122.00	0.25	-0.00	3.00	1.75	1.50	1.25	0.50	0.00	0.00	0.25	0.00	0.50	0.00	0.00	1.00	0.75	1.00	0.50	1.462402	-0.719238	-1.220703	37.380001	271.250000	-41.020000	131.00	-0.15	-0.05
3.29	0.00	0.00	0.00	0.00	0.00	0.00	6.50	0.00	14.50	12.50	15.25	10.75	8.75	11.75	7.00	6.50	-0.464844	-0.001953	0.981445	-19.809999	196.490005	-2.730000	1066.00	0.25	-0.00	5.25	4.25	2.00	1.75	1.00	0.75	0.00	0.75	0.50	0.50	0.50	0.25	0.75	0.75	0.75	0.50	0.017090	0.024414	2.058105	-32.689999	358.260010	-70.419998	228.00	-0.19	-0.06
3.30	0.00	0.00	0.00	0.00	0.00	0.00	6.75	0.75	17.50	13.75	15.75	11.25	8.75	13.00	7.00	6.50	-0.526855	-0.015137	0.973145	-26.740000	230.369995	-4.340000	1162.00	0.25	0.01	8.75	7.75	0.25	0.50	0.25	0.75	0.00	0.50	0.50	0.25	0.25	0.25	0.50	0.00	0.00	0.25	-0.125488	0.286133	0.041504	-112.209999	267.679993	-82.459999	228.00	-0.31	-0.05
3.31	0.00	0.00	0.00	0.00	0.00	0.00	6.50	0.25	17.50	14.00	15.50	11.00	8.25	13.50	7.50	6.75	-0.543945	-0.023438	0.986328	-36.959999	261.309998	-6.720000	1154.00	0.25	0.01	12.75	11.75	2.00	2.50	0.75	0.50	0.00	0.50	0.50	0.25	0.00	0.25	0.25	0.50	0.75	0.25	-1.229004	0.499023	0.769043	-140.210007	274.119995	-79.449997	370.00	-0.31	-0.04
3.32	0.00	0.00	0.00	0.00	0.00	0.25	6.50	0.25	17.50	14.00	15.50	10.50	7.75	13.50	7.75	7.00	-0.621582	-0.064453	0.959961	-58.730000	314.929993	-11.690000	1151.00	0.25	0.01	18.25	16.50	2.00	3.00	0.50	0.50	0.00	0.25	0.50	0.00	0.25	0.75	0.25	0.50	1.00	0.25	-1.282227	1.445312	1.926758	-132.789993	313.739990	-49.630001	488.00	-0.33	-0.03
3.33	0.00	0.00	0.00	0.00	0.00	0.00	6.25	0.00	15.25	13.75	15.00	10.00	5.50	12.00	7.25	7.00	-0.605469	0.066406	0.895020	-69.160004	338.519989	-14.840000	1052.00	0.25	0.02	24.25	23.25	2.25	4.00	0.50	0.50	0.00	0.25	0.50	0.00	0.25	0.25	0.50	0.25	0.75	0.50	-1.334473	0.549805	2.692383	-87.010002	310.239990	9.100000	632.00	-0.35	-0.04
3.34	0.00	0.00	0.00	0.00	0.00	0.00	6.25	0.00	16.75	13.75	15.00	9.75	6.75	13.25	8.00	7.75	-0.774902	0.099609	0.833008	-78.120003	361.899994	-23.520000	1107.00	0.26	0.02	23.50	22.50	1.50	3.75	0.00	0.00	0.00	0.00	0.00	0.00	0.00	0.00	0.00	0.00	0.00	0.00	-1.937500	-1.271973	3.425781	-34.299999	328.720001	30.170000	556.00	-0.39	-0.03
3.35	0.00	0.00	0.00	0.00	0.00	0.00	6.00	0.00	15.25	13.00	14.25	8.75	6.00	11.75	7.50	7.50	-0.901367	0.069824	1.050781	-75.250000	382.549988	-30.450001	1025.00	0.26	0.02	26.50	23.75	2.50	5.25	0.25	0.00	0.00	0.00	0.00	0.00	0.00	0.00	0.00	0.00	0.00	0.00	-1.161621	-0.991699	3.802734	1.890000	301.070007	-2.590000	635.00	-0.39	-0.03
3.36	0.00	0.00	0.00	0.00	0.00	0.00	5.50	0.25	13.75	12.25	13.75	9.00	6.25	12.75	8.50	8.50	-1.187012	0.067871	1.361328	-48.790001	400.540009	-31.639999	1017.00	0.26	0.00	27.75	25.00	4.00	7.00	0.25	0.00	0.00	0.00	0.00	0.00	0.00	0.00	0.00	0.00	0.00	0.00	-0.434570	-0.030762	2.395508	29.540001	205.100006	-40.529999	701.00	-0.38	-0.03
3.37	0.00	0.00	0.00	0.00	0.00	0.00	5.00	0.00	11.25	10.50	12.25	8.25	6.25	12.50	8.25	8.50	-1.898438	0.098633	2.138184	-7.910000	429.730011	-29.960001	918.00	0.26	-0.00	29.25	25.50	5.25	8.75	0.75	0.25	0.00	0.00	0.00	0.00	0.00	0.00	0.00	0.00	0.00	0.00	-0.135742	0.606934	0.588867	45.430000	157.500000	-40.529999	769.00	-0.38	-0.03
3.38	0.00	0.00	0.00	0.00	0.25	0.00	4.75	0.25	9.00	8.75	10.50	7.50	6.25	12.50	8.25	8.00	-3.096191	0.340820	3.176758	36.330002	483.980011	-19.740000	837.00	0.26	-0.01	30.75	26.50	6.75	10.00	1.25	1.50	0.00	0.25	0.00	0.00	0.00	0.25	0.00	0.00	0.00	0.00	-0.109375	0.459961	0.191895	39.900002	179.830002	-22.049999	857.00	-0.36	-0.04
3.39	0.00	0.00	0.00	0.00	0.00	0.00	3.75	0.00	8.00	7.50	9.25	6.00	6.00	11.00	7.25	7.50	-3.244629	0.556152	3.655762	84.070000	547.049988	-0.700000	723.00	0.27	-0.01	31.75	27.25	7.75	11.25	1.50	2.00	0.00	0.50	0.00	0.00	0.25	0.50	0.00	0.00	0.00	0.00	-0.312988	0.011719	1.047363	-44.520000	72.379997	-8.190000	922.00	-0.36	-0.04
3.40	0.00	0.00	0.00	0.00	0.00	0.00	2.50	0.00	6.75	6.50	8.25	5.50	5.50	9.75	6.75	6.50	-2.684570	0.072266	3.413086	145.180008	576.239990	5.810000	628.00	0.27	-0.02	32.00	27.25	8.50	12.00	2.00	2.50	0.00	0.50	0.00	0.00	0.50	1.00	0.00	0.00	0.00	0.00	-0.213867	0.175293	0.934570	-44.590000	68.250000	-10.850000	963.00	-0.35	-0.04
3.41	0.00	0.00	0.00	0.00	0.00	0.00	1.50	0.00	6.00	5.50	7.50	5.00	4.25	8.25	5.75	5.25	-2.838379	-0.200684	3.586426	136.080002	581.840027	-10.990000	530.00	0.28	-0.03	33.50	27.75	9.25	12.75	2.50	3.00	0.00	1.00	0.00	0.00	1.00	1.00	0.00	0.50	0.25	0.00	-0.339355	0.116699	1.240234	-60.130001	60.200001	-9.170000	1037.00	-0.33	-0.05
3.42	0.00	0.00	0.00	0.00	0.00	0.00	0.75	0.00	5.00	5.25	6.25	3.75	1.75	6.75	4.25	3.50	-2.089844	0.182129	3.719238	94.360001	579.599976	-41.580002	407.00	0.28	-0.00	33.50	27.75	9.75	13.00	3.00	3.25	0.00	0.75	0.00	0.25	0.75	1.00	0.00	0.25	0.25	0.00	-0.243164	0.086914	1.053223	-61.040001	41.790001	-7.210000	1049.00	-0.33	-0.04
3.43	0.00	0.00	0.00	0.00	0.00	0.00	0.50	0.00	3.75	4.50	5.00	3.75	0.50	5.00	2.75	1.50	-0.684082	0.344238	4.744141	76.860001	507.149994	-69.720001	305.00	0.28	0.00	32.75	27.25	10.25	13.50	3.50	3.75	0.00	1.00	0.00	0.50	1.00	1.50	0.50	0.50	0.25	0.00	-0.249512	0.101562	1.018066	-51.170002	30.170000	-5.600000	1082.00	-0.32	-0.05
3.44	0.00	0.00	0.00	0.00	0.00	0.00	0.50	0.00	1.00	3.00	3.75	2.50	0.00	2.00	1.25	1.25	0.459473	0.354004	4.125488	55.650002	399.209991	-102.410004	169.00	0.26	-0.03	32.50	27.75	10.75	13.25	4.25	4.75	0.25	1.00	0.25	0.75	1.25	1.25	0.00	1.00	0.50	0.00	-0.319336	0.090332	1.038086	-42.560001	22.190001	-4.130000	1121.00	-0.31	-0.05
3.45	0.00	0.00	0.00	0.00	0.00	0.00	0.25	0.00	1.25	3.00	2.25	1.00	0.00	2.00	0.50	0.75	1.661621	0.351074	3.360840	33.250000	290.010010	-122.220001	122.00	0.27	0.03	32.25	26.75	10.00	13.75	4.75	4.75	0.25	1.25	0.50	0.50	1.25	1.50	1.25	0.50	0.50	0.00	-0.240723	0.080566	0.986816	-33.670002	15.610000	-3.150000	1126.00	-0.30	-0.05
3.46	0.00	0.00	0.00	0.00	0.00	0.00	0.25	0.00	1.25	2.25	2.25	1.00	0.00	0.75	0.25	0.50	1.109863	0.353516	-0.335938	28.630001	243.320007	-116.760002	98.00	0.25	0.01	31.75	26.00	11.00	13.75	5.25	5.00	0.25	1.25	0.50	0.75	1.50	1.75	1.00	0.50	0.75	0.00	-0.249512	0.077637	0.993164	-26.670000	11.480000	-2.310000	1143.00	-0.29	-0.05
3.47	0.00	0.00	0.25	0.00	0.00	0.00	0.00	0.00	0.50	2.00	2.00	1.00	0.00	0.75	0.25	0.50	2.155762	1.232910	4.290527	-83.510002	60.760002	-41.299999	80.00	0.24	-0.03	30.75	25.50	10.75	13.50	5.25	5.00	0.25	1.50	0.25	1.00	1.25	1.75	1.00	0.25	0.50	0.00	-0.236328	0.079590	0.973633	-21.210001	9.310000	-2.030000	1116.00	-0.30	-0.05
3.48	0.00	0.00	0.00	0.00	0.00	0.25	0.00	0.00	0.50	1.00	2.00	0.50	0.00	0.00	1.00	0.25	1.464844	1.148438	3.268066	-27.160000	-101.779999	11.900000	63.00	0.25	-0.06	29.00	24.25	10.75	13.25	5.50	5.25	0.25	1.50	0.50	1.00	1.75	1.75	1.50	0.75	0.75	0.25	-0.244141	0.062012	0.958984	-15.540000	8.050000	-1.540000	1110.00	-0.28	-0.06
3.49	0.00	0.00	0.00	0.00	0.00	0.00	0.00	0.00	0.25	1.50	1.00	0.25	0.00	0.00	0.00	0.25	1.000000	0.696289	2.568848	-23.870001	-212.309998	41.720001	36.00	0.00	0.00	27.50	23.00	10.25	12.75	5.25	5.25	0.25	1.25	0.50	1.00	1.75	1.75	1.50	0.75	0.50	0.25	-0.204590	0.061523	0.964355	-10.640000	7.560000	-1.120000	1058.00	-0.28	-0.06
3.50	0.00	0.00	0.00	0.00	0.00	0.00	0.25	0.00	0.25	1.00	1.00	0.25	0.00	0.25	0.25	0.25	0.979980	0.490723	1.908691	-31.150000	-268.309998	54.670002	40.00	0.00	0.00	25.75	21.00	10.00	12.25	5.50	5.50	0.25	1.25	0.25	1.00	1.75	2.00	1.75	0.75	0.75	0.25	-0.237793	0.054688	0.957031	-7.350000	7.210000	-0.770000	1020.00	-0.27	-0.06
3.51	0.00	0.00	0.00	0.00	0.00	0.00	0.00	0.00	0.25	1.25	1.00	0.50	0.00	0.50	0.00	0.00	0.927246	0.365234	1.511230	-39.130001	-288.610016	54.950001	40.00	0.00	0.00	23.75	19.50	9.25	11.75	5.50	5.50	0.50	1.50	0.50	1.25	1.75	2.00	2.00	0.50	1.00	0.25	-0.243652	0.061523	0.950195	-4.340000	7.770000	-0.560000	984.00	-0.26	-0.06
3.52	0.00	0.00	0.00	0.00	0.00	0.00	0.00	0.00	0.25	0.75	0.75	0.50	0.00	0.25	0.00	0.00	0.810547	0.378418	1.323242	-34.860001	-300.929993	50.400002	29.00	0.00	0.00	21.25	17.50	9.00	11.25	5.50	5.75	0.50	1.50	0.50	1.25	2.00	2.25	2.00	1.00	0.75	0.25	-0.210938	0.073242	0.939453	-4.830000	8.190000	-0.840000	937.00	-0.25	-0.07
3.53	0.00	0.00	0.00	0.00	0.00	0.00	0.00	0.00	0.00	0.75	0.50	0.00	0.00	0.00	0.00	0.00	0.613770	0.348633	1.333496	-15.260000	-316.260010	46.759998	14.00	0.00	0.00	23.75	19.00	8.50	10.25	5.25	5.50	0.50	1.50	0.50	1.00	2.00	2.25	2.00	1.00	0.75	0.25	-0.227051	0.066406	0.931152	-6.300000	8.610000	-1.330000	954.00	-0.25	-0.06
3.54	0.00	0.00	0.00	0.00	0.00	0.00	0.00	0.00	0.00	0.25	0.50	0.00	0.00	0.00	0.00	0.00	0.432129	0.264648	1.362305	13.020000	-336.489990	44.380001	9.00	0.00	0.00	17.50	13.75	8.00	9.50	5.25	5.50	0.50	1.75	0.75	1.25	2.25	2.50	2.25	0.50	1.00	0.25	-0.235352	0.061523	0.942383	-8.260000	8.890000	-1.820000	832.00	-0.22	-0.07
3.55	0.00	0.00	0.00	0.00	0.00	0.00	0.00	0.00	0.00	0.00	0.00	0.00	0.00	0.00	0.00	0.00	0.246582	0.168457	1.387207	39.759998	-361.130005	42.560001	0.00	0.00	0.00	15.75	11.50	7.75	9.25	5.25	5.50	0.50	1.75	0.75	1.00	2.50	3.00	2.75	1.00	1.00	0.50	-0.238281	0.060059	0.937988	-10.220000	8.820000	-2.380000	800.00	-0.20	-0.08
3.56	0.00	0.00	0.00	0.00	0.00	0.00	0.00	0.00	0.00	0.00	0.00	0.00	0.00	0.00	0.00	0.00	0.029785	0.068848	1.386230	57.260002	-385.420013	41.299999	0.00	0.00	0.00	14.00	10.00	7.50	8.50	5.25	5.25	0.50	1.50	0.75	1.75	3.00	3.00	2.75	1.00	1.00	0.50	-0.236816	0.059082	0.935059	-11.690000	8.960000	-2.870000	760.00	-0.18	-0.08
3.57	0.00	0.00	0.00	0.00	0.00	0.00	0.00	0.00	0.00	0.00	0.00	0.00	0.00	0.00	0.00	0.00	-0.145996	-0.016113	1.338867	61.950001	-406.000000	40.040001	0.00	0.00	0.00	12.00	8.50	7.25	8.00	5.50	5.25	0.75	1.50	1.00	1.50	3.00	3.25	3.00	1.25	1.50	0.75	-0.245117	0.055176	0.940430	-12.600000	8.610000	-3.360000	736.00	-0.16	-0.08
3.58	0.00	0.00	0.00	0.00	0.00	0.00	0.00	0.00	0.00	0.00	0.00	0.00	0.00	0.00	0.00	0.00	-0.292969	-0.046387	1.312012	55.650002	-420.559998	38.360001	0.00	0.00	0.00	11.00	7.50	6.75	7.25	5.50	5.00	1.00	1.50	1.25	1.75	3.25	3.50	2.75	1.25	1.50	0.75	-0.238770	0.059570	0.941406	-13.650000	8.400000	-3.640000	711.00	-0.14	-0.07
3.59	0.00	0.00	0.00	0.00	0.25	0.00	0.00	0.00	0.25	0.25	0.00	0.00	0.00	0.00	0.00	0.00	-0.423828	-0.055664	1.297852	40.810001	-429.309998	36.820000	9.00	0.00	0.00	9.25	6.75	6.50	6.75	5.50	5.00	1.25	1.50	1.75	1.75	3.75	4.00	3.00	1.75	1.75	0.50	-0.250000	0.048828	0.942871	-14.700000	8.190000	-4.130000	706.00	-0.11	-0.07
3.60	0.00	0.00	0.00	0.00	0.00	0.00	0.00	0.00	0.00	0.00	0.25	0.00	0.00	0.00	0.00	0.00	-0.513184	-0.030273	1.276367	22.750000	-433.649994	35.139999	3.00	0.00	0.00	8.50	6.00	6.50	6.25	5.50	4.50	1.50	1.25	2.25	1.75	4.00	4.00	3.50	2.25	1.75	1.00	-0.250488	0.050293	0.935059	-15.260000	7.700000	-4.480000	700.00	-0.09	-0.07
3.61	0.00	0.00	0.00	0.00	0.00	0.00	0.00	0.00	0.00	0.25	0.00	0.00	0.00	0.00	0.00	0.00	-0.624023	0.025879	1.291016	6.650000	-433.299988	33.040001	3.00	0.00	0.00	8.00	5.25	6.25	5.75	5.75	4.25	2.00	1.25	3.00	2.00	4.25	4.75	3.75	2.50	2.00	1.25	-0.246094	0.045898	0.929688	-15.330000	7.070000	-4.620000	720.00	-0.06	-0.06
3.62	0.00	0.00	0.00	0.00	0.00	0.00	0.00	0.00	0.00	0.00	0.00	0.00	0.00	0.00	0.00	0.00	-0.835938	0.166992	1.358398	-4.130000	-421.890015	30.309999	0.00	0.00	0.00	7.50	5.00	6.25	5.25	6.00	4.25	2.75	1.50	3.75	2.50	5.75	4.75	3.75	3.00	2.50	1.25	-0.254883	0.040039	0.931641	-14.700000	6.300000	-4.620000	769.00	-0.04	-0.05
3.63	0.00	0.00	0.00	0.00	0.00	0.00	0.00	0.00	0.00	0.00	0.00	0.00	0.00	0.25	0.00	0.00	-0.921387	0.229492	1.446289	2.730000	-413.839996	30.730000	2.00	0.00	0.00	6.75	4.00	5.75	5.00	6.00	4.00	3.50	1.25	4.25	2.75	6.50	5.50	4.25	3.50	2.75	1.75	-0.250000	0.041016	0.931152	-12.180000	5.670000	-4.410000	789.00	-0.01	-0.05
3.64	0.00	0.00	0.00	0.00	0.00	0.00	0.00	0.00	0.00	0.00	0.00	0.00	0.00	0.00	0.00	0.00	-1.011719	0.265625	1.562988	16.030001	-403.410004	31.080000	0.00	0.00	0.00	6.25	3.25	5.50	4.25	6.25	3.75	4.00	1.25	5.00	3.00	7.75	6.50	4.75	3.75	3.00	2.00	-0.249512	0.038086	0.932129	-10.990000	5.600000	-4.410000	823.00	0.02	-0.04
3.65	0.00	0.00	0.00	0.00	0.00	0.00	0.00	0.00	0.00	0.25	0.00	0.00	0.00	0.00	0.00	0.00	-1.068359	0.299316	1.715820	36.889999	-392.980011	31.710001	3.00	0.00	0.00	6.00	3.25	5.75	4.00	6.25	3.50	4.50	1.50	6.00	3.50	8.00	7.50	4.75	4.25	3.25	2.00	-0.245605	0.046875	0.939453	-10.010000	5.600000	-4.130000	872.00	0.03	-0.04
3.66	0.00	0.00	0.00	0.00	0.00	0.00	0.00	0.00	0.00	0.25	0.00	0.00	0.00	0.00	0.00	0.00	-1.125977	0.310059	1.897461	62.790001	-382.059998	33.040001	3.00	0.00	0.00	5.75	2.25	5.50	3.25	6.25	3.50	5.00	1.50	7.00	4.00	8.50	7.75	5.00	5.00	3.50	2.50	-0.271484	0.033203	0.888184	-9.450000	5.880000	-4.060000	899.00	0.06	-0.03
3.67	0.00	0.00	0.00	0.00	0.00	0.00	0.00	0.00	0.00	0.00	0.00	0.00	0.00	0.00	0.00	0.00	-1.229980	0.354004	2.090332	92.190002	-367.360016	34.580002	0.00	0.00	0.00	5.50	2.25	5.50	2.50	6.50	3.25	5.25	1.25	7.75	4.75	9.00	8.00	5.50	5.25	3.75	2.75	-0.056152	-0.048340	0.926270	-9.310000	5.740000	-4.270000	926.00	0.07	-0.02
3.68	0.00	0.00	0.00	0.00	0.00	0.00	0.00	0.00	0.00	0.00	0.00	0.00	0.00	0.25	0.00	0.00	-1.490723	0.449219	2.476074	121.870003	-347.059998	37.310001	2.00	0.00	0.00	5.25	2.00	5.25	2.50	6.25	3.25	5.75	1.50	8.25	5.75	9.50	8.25	5.50	6.00	4.25	2.75	-0.294922	0.060059	0.905762	-8.820000	7.140000	-4.340000	967.00	0.08	-0.02
3.69	0.00	0.00	0.00	0.00	0.00	0.00	0.00	0.00	0.00	0.00	0.00	0.00	0.00	0.00	0.00	0.00	-1.824707	0.513672	3.043945	146.229996	-337.959991	45.080002	0.00	0.00	0.00	4.75	1.50	5.00	2.00	6.25	3.00	6.00	1.50	8.75	7.00	10.00	8.75	5.75	6.50	4.75	3.50	-0.138184	-0.020996	0.930664	-7.910000	8.260000	-4.830000	998.00	0.10	-0.02
