# time	left pressure 1[N/cm²]	left pressure 2[N/cm²]	left pressure 3[N/cm²]	left pressure 4[N/cm²]	left pressure 5[N/cm²]	left pressure 6[N/cm²]	left pressure 7[N/cm²]	left pressure 8[N/cm²]	left pressure 9[N/cm²]	left pressure 10[N/cm²]	left pressure 11[N/cm²]	left pressure 12[N/cm²]	left pressure 13[N/cm²]	left pressure 14[N/cm²]	left pressure 15[N/cm²]	left pressure 16[N/cm²]	left acceleration X[g]	left acceleration Y[g]	left acceleration Z[g]	left angular X[dps]	left angular Y[dps]	left angular Z[dps]	left total force[N]	left center of pressure X[%]	left center of pressure Y[%]	right pressure 1[N/cm²]	right pressure 2[N/cm²]	right pressure 3[N/cm²]	right pressure 4[N/cm²]	right pressure 5[N/cm²]	right pressure 6[N/cm²]	right pressure 7[N/cm²]	right pressure 8[N/cm²]	right pressure 9[N/cm²]	right pressure 10[N/cm²]	right pressure 11[N/cm²]	right pressure 12[N/cm²]	right pressure 13[N/cm²]	right pressure 14[N/cm²]	right pressure 15[N/cm²]	right pressure 16[N/cm²]	right acceleration X[g]	right acceleration Y[g]	right acceleration Z[g]	right angular X[dps]	right angular Y[dps]	right angular Z[dps]	right total force[N]	right center of pressure X[%]	right center of pressure Y[%]
0.00	1.25	0.00	1.75	0.75	2.25	0.00	2.25	0.50	4.25	2.75	1.75	0.50	4.50	7.50	1.25	3.00	-0.197266	0.084473	0.952637	2.170000	10.360000	0.630000	379.00	0.17	0.03	1.00	0.50	1.25	0.50	2.00	0.00	3.25	1.75	3.25	2.25	0.50	1.00	5.25	7.25	2.25	3.00	-0.160645	0.108887	0.972168	0.560000	4.550000	-0.910000	394.00	0.16	-0.01
0.01	0.75	0.00	1.75	0.25	2.25	0.00	2.25	0.75	5.00	3.25	1.75	1.00	5.50	8.50	2.00	3.50	-0.204590	0.088867	0.961914	2.520000	11.340000	0.700000	424.00	0.19	0.01	1.25	0.50	1.00	0.75	2.00	0.00	3.25	1.50	3.25	2.00	0.25	0.75	5.00	7.25	2.00	3.00	-0.159668	0.100586	0.972656	0.910000	4.760000	-1.050000	379.00	0.16	-0.00
0.02	3.25	2.50	4.00	3.25	4.25	0.50	2.50	2.25	6.50	4.25	2.75	2.00	6.50	9.25	2.50	3.75	-0.203613	0.084473	0.951660	3.150000	11.900000	0.910000	679.00	0.09	-0.02	1.25	0.50	1.25	0.25	2.00	0.00	3.25	1.25	3.00	2.00	0.25	0.75	5.25	7.50	2.25	3.50	-0.157715	0.097168	0.981934	1.050000	4.900000	-0.910000	378.00	0.16	-0.00
0.03	1.50	0.00	1.50	0.25	3.00	0.00	2.50	0.50	5.50	3.00	1.50	0.50	5.00	8.50	1.75	3.00	-0.200684	0.084961	0.960938	3.570000	12.530000	1.120000	423.00	0.18	0.04	1.00	0.50	1.25	0.25	2.00	0.00	3.25	1.25	3.00	1.75	0.25	0.75	5.00	7.50	2.25	3.25	-0.156738	0.108887	0.977051	2.660000	5.040000	-0.840000	369.00	0.17	0.00
0.04	3.25	2.50	3.75	3.25	4.25	0.00	2.75	2.25	6.75	4.50	2.50	1.75	6.75	10.50	2.75	4.25	-0.200684	0.094727	0.967285	5.460000	13.160000	1.260000	695.00	0.10	-0.01	1.00	0.50	1.25	0.50	2.00	0.00	3.25	1.00	3.00	1.75	0.25	1.00	5.00	7.50	2.25	3.25	-0.157715	0.111816	0.976562	3.990000	4.760000	-0.980000	371.00	0.17	0.00
0.05	3.75	3.00	4.00	3.50	4.50	0.50	2.75	2.50	6.75	4.25	2.75	1.50	6.75	10.50	3.00	3.75	-0.209961	0.099121	0.952148	6.720000	13.020000	0.700000	722.00	0.08	-0.01	1.25	0.25	1.00	0.25	1.75	0.00	3.25	1.00	2.75	2.00	0.25	1.00	5.00	7.50	2.50	3.00	-0.164062	0.104004	0.982910	4.830000	5.600000	-1.120000	363.00	0.18	0.00
0.06	3.50	3.00	4.00	3.50	4.25	0.00	2.75	2.00	6.50	4.50	2.50	1.75	6.75	10.50	3.00	4.00	-0.210938	0.095215	0.954102	7.350000	13.510000	0.420000	702.00	0.09	-0.01	1.00	0.50	1.50	0.25	1.75	0.00	3.25	1.25	3.00	1.75	0.25	0.75	5.00	7.50	2.25	3.00	-0.166504	0.112305	0.979492	4.620000	6.580000	-0.980000	368.00	0.17	0.00
0.07	3.50	3.00	3.75	3.25	4.00	0.50	2.75	2.00	6.50	4.25	2.50	1.75	6.50	10.25	2.50	3.00	-0.212402	0.094727	0.958984	7.630000	14.280000	0.350000	680.00	0.09	-0.01	1.25	0.25	1.25	0.25	1.75	0.00	3.25	1.25	3.00	2.00	0.25	0.75	4.75	7.50	2.25	3.25	-0.164551	0.112793	0.976562	4.550000	6.650000	-0.840000	367.00	0.17	0.01
0.08	0.75	0.00	1.75	0.50	2.75	0.00	2.50	0.25	5.25	2.75	1.50	0.25	4.75	9.00	1.75	2.75	-0.210449	0.090332	0.933594	8.400000	15.610000	0.350000	405.00	0.19	0.05	1.00	0.50	1.00	0.25	2.00	0.00	3.25	1.00	3.00	2.00	0.25	0.75	5.00	7.75	2.00	3.25	-0.170410	0.116699	0.974121	4.340000	6.370000	-1.050000	364.00	0.17	0.01
0.09	0.75	0.00	1.25	0.50	2.75	0.00	2.50	1.00	6.25	4.50	2.75	1.75	6.50	10.50	3.00	3.75	-0.221680	0.105469	0.947754	7.210000	14.910000	0.560000	528.00	0.21	0.01	1.00	0.50	1.25	0.25	1.75	0.00	3.25	1.00	3.00	2.00	0.25	0.75	4.75	7.75	2.25	3.25	-0.171875	0.106934	0.971680	3.710000	6.580000	-1.050000	365.00	0.17	0.01
0.10	0.75	0.00	1.50	0.25	2.50	0.00	2.50	0.25	5.25	2.50	1.25	0.25	4.75	9.25	2.00	3.25	-0.225098	0.096191	0.951172	3.850000	13.930000	0.840000	399.00	0.20	0.05	1.00	0.00	1.25	0.50	1.75	0.00	3.25	1.00	3.00	1.75	0.25	0.75	4.75	7.75	2.25	3.25	-0.169922	0.105469	0.974121	3.080000	6.650000	-0.770000	360.00	0.18	0.01
0.11	1.00	0.00	1.75	0.25	2.50	0.00	2.50	0.00	5.25	2.75	1.25	0.25	5.00	9.00	1.75	3.00	-0.218262	0.100098	0.944824	3.710000	13.650000	1.120000	399.00	0.19	0.05	1.00	0.25	1.00	0.25	1.75	0.00	3.25	1.00	3.25	2.00	0.25	0.75	4.75	7.75	1.75	3.25	-0.173828	0.111816	0.973633	2.800000	6.230000	-0.490000	357.00	0.18	0.01
0.12	0.75	0.00	1.50	0.25	2.50	0.00	2.25	0.00	5.25	2.50	1.50	0.25	4.50	9.25	1.75	3.25	-0.221680	0.109375	0.938477	3.430000	13.300000	1.050000	388.00	0.20	0.05	1.00	0.25	1.25	0.25	1.50	0.00	3.25	1.00	3.00	1.75	0.25	0.75	4.50	7.75	2.50	3.25	-0.172363	0.110840	0.970703	2.170000	5.740000	-0.420000	357.00	0.18	0.01
0.13	0.50	0.00	1.50	0.50	2.50	0.00	2.25	0.00	5.00	2.75	1.25	0.25	4.50	9.00	1.75	3.00	-0.226562	0.101562	0.944824	3.150000	12.950000	0.840000	381.00	0.20	0.05	0.75	0.50	0.75	0.50	1.75	0.00	3.25	1.00	3.00	1.75	0.25	0.75	4.75	7.75	2.50	3.25	-0.177246	0.119629	0.970215	1.400000	5.600000	-0.420000	359.00	0.18	0.00
0.14	1.00	0.00	1.50	0.50	2.50	0.00	2.25	0.00	5.25	2.75	1.25	0.25	4.75	9.00	2.00	3.00	-0.228027	0.106445	0.949707	2.730000	12.460000	0.840000	395.00	0.19	0.05	1.00	0.50	1.00	0.50	1.75	0.00	3.25	0.75	3.00	1.75	0.25	0.75	4.75	8.00	2.50	3.50	-0.172363	0.122070	0.965332	1.050000	3.710000	-0.630000	364.00	0.18	0.01
0.15	0.75	0.00	1.50	0.75	2.50	0.00	2.25	0.00	5.00	3.00	1.50	0.25	4.50	9.00	1.75	3.25	-0.220215	0.103027	0.956055	3.360000	11.620000	0.980000	394.00	0.19	0.05	1.00	0.50	1.25	0.25	1.50	0.00	3.25	0.75	3.00	1.75	0.25	0.75	4.75	7.75	2.50	3.25	-0.171875	0.120117	0.977539	0.980000	3.150000	-0.910000	357.00	0.18	0.01
0.16	0.75	0.00	1.00	0.25	2.25	0.00	2.25	0.00	5.00	3.00	1.25	0.25	4.50	9.00	2.00	3.00	-0.225586	0.107422	0.945312	3.360000	10.430000	0.840000	377.00	0.21	0.05	1.25	0.25	0.50	0.25	1.50	0.00	3.25	0.75	2.75	2.00	0.00	0.75	4.75	8.00	2.50	3.50	-0.182617	0.118164	0.967285	0.840000	3.220000	-1.050000	349.00	0.19	0.01
0.17	0.25	0.00	1.25	0.25	2.25	0.00	2.25	0.00	5.00	2.75	1.00	0.25	4.75	9.00	2.00	3.25	-0.230957	0.104492	0.947266	3.010000	10.080000	0.560000	373.00	0.22	0.05	0.75	0.50	1.00	0.25	1.50	0.00	3.25	1.00	3.00	1.75	0.25	0.50	4.75	8.00	2.50	3.50	-0.178711	0.112793	0.974609	0.630000	3.220000	-0.910000	357.00	0.19	0.01
0.18	0.50	0.00	1.00	0.25	2.25	0.00	2.25	0.00	5.00	2.50	1.25	0.25	4.75	9.25	2.25	3.25	-0.228027	0.105957	0.952637	2.590000	10.710000	0.350000	378.00	0.22	0.05	1.25	0.25	0.75	0.50	1.50	0.00	3.25	0.75	3.00	2.00	0.50	0.75	4.50	8.00	2.50	3.50	-0.173828	0.120117	0.963867	0.560000	3.080000	-0.700000	362.00	0.19	0.01
0.19	0.50	0.00	1.25	0.25	2.00	0.00	2.25	0.00	5.00	2.75	1.25	0.50	4.50	9.00	2.00	3.25	-0.222168	0.103516	0.949707	2.520000	11.200000	0.420000	376.00	0.22	0.05	1.00	0.50	1.00	0.25	1.50	0.00	3.25	0.75	3.00	2.00	0.25	0.75	4.75	8.00	2.50	3.50	-0.179688	0.122559	0.971680	0.070000	3.220000	-0.560000	361.00	0.19	0.01
0.20	0.50	0.00	1.25	0.75	2.25	0.00	2.25	0.00	5.00	3.00	1.25	0.50	5.00	9.25	2.25	3.25	-0.232910	0.114746	0.949707	2.450000	11.480000	0.490000	398.00	0.21	0.04	0.75	0.50	0.75	0.25	1.50	0.00	3.25	0.75	3.00	1.75	0.25	0.75	4.75	8.00	2.50	3.50	-0.180176	0.117676	0.975098	-0.140000	3.430000	-0.700000	352.00	0.20	0.01
0.21	1.00	0.00	1.50	0.75	2.25	0.00	2.25	0.00	5.00	2.75	1.50	0.50	5.00	9.25	2.25	3.00	-0.235840	0.105469	0.949707	2.240000	11.830000	0.630000	405.00	0.19	0.04	0.75	0.25	1.00	0.50	1.50	0.00	3.25	0.75	3.00	1.75	0.25	0.75	4.75	8.00	2.75	3.50	-0.172363	0.120605	0.984863	-0.070000	3.500000	-0.630000	359.00	0.19	0.01
0.22	1.00	0.00	1.00	0.50	2.25	0.00	2.25	0.00	5.00	2.75	1.50	0.00	5.00	9.25	2.25	3.25	-0.236816	0.110840	0.950684	1.960000	12.040000	0.770000	391.00	0.21	0.04	0.50	0.25	0.75	0.25	1.50	0.00	3.25	0.75	3.00	1.75	0.25	0.75	5.00	8.00	2.75	3.50	-0.180664	0.130371	0.970703	0.560000	3.430000	-0.560000	352.00	0.21	0.01
0.23	1.00	0.00	1.00	0.25	2.00	0.00	2.50	0.00	5.00	2.75	1.50	0.25	5.00	9.25	2.25	3.25	-0.237305	0.117676	0.951172	1.400000	11.760000	0.980000	392.00	0.21	0.04	1.00	0.25	1.00	0.25	1.50	0.00	3.25	0.75	3.25	2.00	0.25	0.75	4.50	8.00	2.75	3.75	-0.175781	0.121582	0.982422	0.840000	3.710000	-0.840000	364.00	0.19	0.02
0.24	0.75	0.00	1.25	0.25	2.00	0.00	2.25	0.00	4.75	2.75	1.25	0.25	4.75	9.00	2.25	3.25	-0.229980	0.114258	0.950195	1.330000	11.690000	0.770000	377.00	0.21	0.04	1.00	0.25	0.75	0.25	1.25	0.00	3.25	0.75	3.25	1.75	0.25	0.75	4.75	8.25	2.75	3.75	-0.173340	0.118652	0.977539	0.980000	3.780000	-0.910000	360.00	0.20	0.01
0.25	0.75	0.00	1.00	0.00	2.00	0.00	2.25	0.00	5.00	2.75	1.50	0.00	4.75	9.25	2.25	3.25	-0.238281	0.121094	0.944336	1.470000	10.640000	0.420000	377.00	0.22	0.05	0.75	0.25	0.75	0.25	1.50	0.00	3.25	0.75	3.25	1.75	0.50	0.75	4.50	8.25	2.75	3.75	-0.181641	0.124023	0.974121	1.470000	4.200000	-0.840000	361.00	0.20	0.01
0.26	0.25	0.00	1.25	0.50	2.00	0.00	2.25	0.00	5.00	2.75	1.25	0.25	4.75	9.25	2.25	3.25	-0.235840	0.119629	0.952148	1.610000	10.850000	0.140000	381.00	0.22	0.04	1.00	0.50	1.00	0.25	1.50	0.00	3.25	0.75	3.00	2.00	0.25	0.75	5.00	8.00	2.75	3.75	-0.179199	0.127930	0.970703	1.820000	4.690000	-1.050000	368.00	0.19	0.01
0.27	0.50	0.00	1.50	0.50	2.00	0.00	2.25	0.00	5.25	2.75	1.25	0.00	4.50	9.25	2.50	3.25	-0.242188	0.117188	0.952637	1.610000	11.270000	-0.070000	388.00	0.21	0.05	1.00	0.25	1.00	0.25	1.50	0.00	3.25	1.00	2.75	1.75	0.25	0.50	5.00	8.00	2.75	3.75	-0.183594	0.127930	0.966797	1.890000	5.810000	-0.980000	360.00	0.19	0.00
0.28	0.75	0.00	1.00	0.50	2.25	0.00	2.25	0.00	5.00	2.75	1.25	0.25	4.50	9.25	2.25	3.25	-0.240723	0.112793	0.946777	1.610000	11.410000	0.000000	384.00	0.21	0.05	0.50	0.25	1.00	0.00	1.25	0.00	3.25	0.75	2.75	1.75	0.50	0.50	4.50	8.25	2.75	3.75	-0.186523	0.125488	0.962402	1.470000	6.230000	-0.770000	345.00	0.21	0.01
0.29	0.50	0.00	1.00	0.50	1.75	0.00	2.25	0.00	4.75	2.50	1.00	0.00	4.25	9.25	2.50	3.25	-0.239746	0.111816	0.935547	1.680000	11.900000	0.350000	363.00	0.22	0.05	0.50	0.25	1.25	0.25	1.25	0.00	3.25	0.75	2.75	2.00	0.25	0.50	4.50	8.25	3.00	3.75	-0.184570	0.124023	0.969238	0.910000	6.720000	-0.840000	354.00	0.20	0.01
0.30	1.00	0.00	1.25	0.00	2.00	0.00	2.25	0.00	5.00	2.75	1.00	0.00	4.25	9.25	2.25	3.25	-0.243652	0.115234	0.952637	1.330000	12.460000	0.560000	373.00	0.21	0.06	1.00	0.25	0.75	0.25	1.25	0.00	3.25	0.75	2.75	1.75	0.25	0.75	5.00	8.25	2.75	3.75	-0.188965	0.126465	0.968262	0.700000	6.790000	-0.840000	355.00	0.20	0.00
0.31	0.75	0.00	1.25	0.50	1.75	0.00	2.25	0.00	5.00	2.75	1.00	0.50	4.25	9.25	2.50	3.25	-0.246094	0.116699	0.942871	1.400000	13.230000	0.700000	382.00	0.21	0.05	1.00	0.50	1.00	0.25	1.25	0.00	3.25	0.75	2.75	2.00	0.25	0.50	4.75	8.25	3.00	3.75	-0.192383	0.125488	0.973145	0.770000	6.300000	-0.630000	361.00	0.19	0.01
0.32	1.00	0.25	1.25	0.25	1.75	0.00	2.25	0.00	4.75	2.75	1.25	0.25	4.25	9.25	2.50	3.25	-0.248047	0.117188	0.941406	1.540000	13.720000	0.910000	380.00	0.21	0.05	0.25	0.00	1.00	0.00	1.25	0.00	3.25	0.50	2.50	1.75	0.25	0.50	4.50	8.25	2.75	3.75	-0.191895	0.126953	0.967773	0.840000	5.460000	-0.490000	329.00	0.22	0.02
0.33	0.75	0.00	1.25	0.25	2.00	0.00	2.25	0.00	5.00	2.50	1.25	0.00	4.25	9.25	2.25	3.00	-0.243164	0.122070	0.943359	1.750000	13.650000	1.260000	371.00	0.21	0.06	1.00	0.25	0.75	0.25	1.25	0.00	3.25	0.75	3.00	1.75	0.25	0.75	4.75	8.25	3.25	4.00	-0.191895	0.126465	0.958496	0.980000	4.760000	-0.420000	364.00	0.21	0.01
0.34	0.50	0.00	1.00	0.00	1.75	0.00	2.25	0.00	5.00	2.75	1.50	0.00	4.00	9.00	2.50	3.25	-0.250488	0.122559	0.929199	1.610000	12.530000	1.330000	365.00	0.23	0.06	1.50	0.25	1.00	0.25	1.25	0.00	3.25	0.50	2.75	1.75	0.25	0.75	4.75	8.25	3.00	4.00	-0.193359	0.125977	0.958008	0.700000	4.200000	-0.280000	362.00	0.19	0.01
0.35	0.50	0.00	1.25	0.50	1.75	0.00	2.25	0.00	4.75	2.75	1.25	0.25	3.50	9.00	2.25	3.00	-0.254395	0.123047	0.932129	1.190000	11.550000	1.120000	361.00	0.22	0.06	1.00	0.25	0.75	0.50	1.25	0.00	3.25	0.75	2.75	1.75	0.25	0.75	5.00	8.25	3.00	3.75	-0.196777	0.130371	0.960449	0.350000	3.220000	0.140000	361.00	0.20	0.00
0.36	0.75	0.00	1.25	0.50	2.00	0.00	2.25	0.00	5.00	2.50	1.25	0.00	3.75	9.25	2.25	3.25	-0.246582	0.126465	0.932617	0.490000	10.500000	0.980000	371.00	0.21	0.06	1.00	0.00	1.00	0.25	1.25	0.00	3.25	0.50	2.75	2.00	0.25	0.75	4.75	8.25	2.75	3.75	-0.192383	0.132324	0.956055	-0.350000	2.170000	0.140000	352.00	0.20	0.01
0.37	0.75	0.00	1.25	0.25	1.75	0.00	2.25	0.00	5.00	2.75	1.25	0.25	3.75	9.25	2.50	3.00	-0.246582	0.125000	0.925781	-0.630000	9.380000	0.910000	372.00	0.22	0.06	0.75	0.25	0.75	0.25	1.25	0.00	3.00	0.75	3.00	2.00	0.25	0.75	4.75	8.25	2.75	3.75	-0.191406	0.121094	0.959473	-1.260000	1.400000	0.140000	352.00	0.21	0.01
0.38	1.50	0.00	1.75	0.75	2.00	0.00	2.25	0.00	5.50	3.75	2.25	1.00	5.50	10.50	3.50	4.25	-0.251465	0.126953	0.933594	-1.400000	7.980000	0.490000	481.00	0.20	0.03	0.75	0.50	0.75	0.25	1.00	0.00	3.25	0.75	2.75	1.75	0.25	0.75	4.50	8.00	3.00	4.00	-0.197754	0.132324	0.951660	-2.100000	0.350000	0.140000	349.00	0.20	0.00
0.39	3.00	1.75	3.25	2.50	2.50	0.00	2.75	0.50	6.00	3.75	2.50	1.25	5.75	10.75	3.75	4.00	-0.253906	0.120117	0.929688	-2.240000	5.880000	0.140000	597.00	0.13	0.01	0.75	0.00	0.75	0.25	1.25	0.00	3.25	0.50	2.75	1.75	0.25	0.50	4.75	8.50	3.25	4.00	-0.200684	0.139648	0.955566	-3.010000	-1.400000	0.070000	350.00	0.22	0.01
0.40	2.75	2.25	3.25	2.75	2.75	0.00	2.75	0.75	6.25	4.00	2.00	1.25	6.00	10.50	3.75	4.00	-0.252441	0.125000	0.932129	-2.800000	4.760000	0.210000	610.00	0.12	0.01	1.25	0.25	1.00	0.00	1.25	0.00	3.25	0.75	3.00	1.75	0.25	0.75	4.75	8.50	3.25	4.00	-0.194824	0.133789	0.962402	-3.430000	-1.820000	-0.210000	369.00	0.20	0.01
0.41	3.25	2.25	3.50	2.50	2.50	0.00	2.75	0.50	6.00	3.75	2.25	1.25	5.75	10.75	3.75	4.25	-0.258789	0.117676	0.929688	-3.010000	3.850000	0.280000	606.00	0.12	0.01	1.00	0.50	0.75	0.00	1.25	0.00	3.25	0.75	3.00	1.75	0.25	0.75	4.75	8.50	3.00	4.00	-0.199707	0.127441	0.955566	-3.990000	-2.170000	-0.280000	363.00	0.20	0.01
0.42	3.00	2.25	3.25	2.75	2.75	0.00	2.75	0.75	6.00	4.00	2.00	1.25	5.75	10.75	3.75	4.25	-0.261719	0.121582	0.935059	-3.430000	3.150000	0.490000	611.00	0.12	0.01	0.75	0.25	0.75	0.00	1.25	0.00	3.25	0.75	2.75	1.75	0.50	0.75	5.00	8.50	3.00	4.25	-0.193359	0.124023	0.960449	-4.830000	-2.660000	-0.000000	360.00	0.21	0.00
0.43	3.00	2.00	3.25	3.00	2.75	0.00	2.75	0.75	6.00	4.00	2.25	1.25	5.75	10.50	3.75	4.25	-0.256348	0.122070	0.931641	-3.780000	2.450000	0.770000	612.00	0.12	0.01	0.75	0.00	0.75	0.50	1.25	0.00	3.25	0.75	3.00	2.00	0.25	0.75	5.00	8.50	3.00	4.25	-0.195801	0.130859	0.960449	-5.600000	-3.080000	0.280000	367.00	0.21	0.00
0.44	3.00	2.00	3.25	2.50	2.50	0.00	2.75	0.50	5.75	3.75	2.00	1.25	5.50	10.25	3.50	4.00	-0.257812	0.116699	0.940918	-4.130000	1.680000	1.050000	580.00	0.12	0.01	0.75	0.50	0.50	0.25	1.25	0.00	3.25	0.75	2.75	2.00	0.25	1.00	4.75	8.50	3.25	4.00	-0.189941	0.132324	0.969727	-6.020000	-3.850000	0.630000	365.00	0.21	0.00
0.45	1.75	0.25	1.75	1.00	2.00	0.00	2.50	0.00	5.50	2.75	1.50	0.25	4.50	9.50	2.75	3.50	-0.253906	0.117188	0.935059	-4.550000	1.260000	1.190000	434.00	0.18	0.05	1.00	0.50	0.75	0.00	1.25	0.00	3.25	0.75	3.00	2.00	0.50	0.75	4.50	8.50	3.00	4.00	-0.194336	0.126953	0.965332	-6.160000	-4.690000	0.700000	366.00	0.21	0.01
0.46	1.25	0.25	1.75	1.25	2.00	0.00	2.50	0.00	5.50	3.25	1.75	0.50	4.50	9.50	2.75	3.25	-0.250977	0.117188	0.942383	-4.760000	0.770000	1.400000	441.00	0.19	0.04	0.50	0.25	0.75	0.25	1.25	0.00	3.25	0.75	3.00	2.00	0.50	0.75	5.00	8.50	3.00	4.25	-0.192383	0.131348	0.958496	-6.300000	-5.250000	0.910000	367.00	0.21	0.00
0.47	1.25	0.00	1.75	0.75	2.00	0.00	2.50	0.00	5.50	3.00	1.50	0.25	4.50	9.50	2.50	3.25	-0.250000	0.125000	0.930664	-4.900000	0.350000	1.260000	421.00	0.19	0.05	0.50	0.50	1.00	0.25	1.25	0.00	3.25	0.75	3.00	2.00	0.50	0.75	5.25	8.50	3.00	4.00	-0.189453	0.125000	0.969727	-6.440000	-5.950000	1.190000	373.00	0.21	0.00
0.48	1.00	0.25	1.50	1.00	2.00	0.00	2.50	0.00	5.50	3.25	1.75	0.25	4.50	9.50	2.75	3.25	-0.249023	0.123535	0.935059	-5.530000	0.280000	1.120000	429.00	0.20	0.05	0.75	0.25	1.00	0.25	1.25	0.00	3.50	1.00	3.25	2.00	0.75	1.00	5.25	8.25	3.25	4.00	-0.183105	0.133301	0.968262	-6.440000	-6.510000	1.400000	392.00	0.20	-0.00
0.49	1.00	0.00	1.50	1.00	1.75	0.00	2.50	0.00	5.25	3.00	1.25	0.00	4.25	9.25	2.25	3.00	-0.248535	0.119141	0.941895	-5.670000	-0.210000	0.910000	397.00	0.20	0.05	0.75	0.25	0.75	0.25	1.25	0.00	3.25	1.00	3.25	2.00	0.50	1.25	5.25	8.25	3.00	4.25	-0.181641	0.136719	0.980957	-6.580000	-6.930000	1.190000	383.00	0.21	-0.01
0.50	0.75	0.00	1.75	0.25	2.00	0.00	2.50	0.00	5.25	3.00	1.50	0.25	4.50	9.25	2.50	3.25	-0.243164	0.120117	0.938477	-5.530000	-0.840000	0.840000	403.00	0.21	0.05	1.00	0.25	1.00	0.25	1.50	0.00	3.25	1.00	3.00	2.00	0.75	1.00	5.25	8.50	3.00	4.50	-0.185547	0.133789	0.971191	-7.210000	-7.070000	0.700000	392.00	0.20	-0.01
0.51	1.25	0.00	1.75	0.50	2.00	0.00	2.50	0.00	5.50	2.75	1.50	0.25	4.00	9.25	2.50	3.00	-0.250488	0.125977	0.938477	-5.880000	-1.190000	0.700000	407.00	0.20	0.06	0.75	0.25	1.00	0.25	1.25	0.00	3.25	1.00	3.25	2.25	0.50	1.25	5.50	8.50	3.25	4.25	-0.181641	0.127930	0.969727	-7.490000	-6.370000	0.420000	397.00	0.21	-0.01
0.52	0.50	0.00	1.25	0.50	2.00	0.00	2.50	0.00	5.00	2.75	1.25	0.00	3.75	9.00	2.25	2.75	-0.251465	0.118652	0.942383	-5.950000	-1.260000	0.420000	370.00	0.21	0.06	0.50	0.00	0.75	0.50	1.50	0.00	3.25	1.00	3.25	2.25	0.50	1.25	5.50	8.50	3.25	4.50	-0.186035	0.125000	0.973145	-7.210000	-5.740000	0.210000	396.00	0.21	-0.01
0.53	0.50	0.00	1.00	0.25	1.75	0.00	2.25	0.00	5.00	2.75	1.50	0.25	4.25	9.00	2.25	3.00	-0.243164	0.117188	0.947754	-5.810000	-1.120000	0.420000	369.00	0.22	0.05	0.75	0.00	1.00	0.25	1.25	0.00	3.50	1.00	3.25	2.25	0.50	1.25	5.75	8.50	3.25	4.50	-0.180176	0.126465	0.977539	-7.070000	-4.830000	0.140000	402.00	0.21	-0.01
0.54	0.50	0.00	1.25	0.25	1.75	0.00	2.50	0.00	5.00	3.00	1.25	0.25	4.00	9.00	2.00	3.25	-0.246094	0.120605	0.945801	-5.810000	-0.910000	0.490000	372.00	0.22	0.06	0.50	0.25	1.00	0.25	1.50	0.00	3.50	1.25	3.25	2.00	0.50	1.25	5.50	8.50	3.00	4.50	-0.186523	0.123535	0.975098	-6.510000	-4.270000	0.350000	401.00	0.20	-0.01
0.55	0.75	0.00	1.50	0.50	1.75	0.00	2.50	0.00	5.00	2.75	1.25	0.00	4.25	9.00	2.25	3.00	-0.246582	0.109863	0.950684	-5.460000	0.210000	0.700000	379.00	0.21	0.06	1.25	0.00	0.75	0.25	1.50	0.00	3.25	1.00	3.25	2.25	0.75	1.00	5.50	8.50	3.00	4.50	-0.180664	0.124023	0.975098	-5.810000	-3.640000	0.490000	398.00	0.20	-0.00
0.56	0.50	0.00	1.00	0.50	2.00	0.00	2.25	0.00	5.00	2.75	1.50	0.00	4.00	9.00	2.25	3.00	-0.240723	0.117188	0.947266	-4.970000	0.840000	0.840000	370.00	0.22	0.05	0.50	0.25	0.75	0.25	1.50	0.00	3.50	1.00	3.25	2.25	0.75	1.00	5.75	8.75	3.50	4.50	-0.178223	0.123047	0.982422	-5.110000	-3.220000	0.490000	407.00	0.21	-0.01
0.57	1.00	0.00	1.00	0.50	1.75	0.00	2.50	0.00	5.00	2.75	1.50	0.25	4.25	8.75	2.50	3.00	-0.244629	0.112305	0.941895	-4.340000	1.750000	0.910000	382.00	0.21	0.05	1.00	0.25	0.50	0.25	1.50	0.00	3.50	1.00	3.25	2.25	0.75	1.25	5.75	8.50	3.00	4.50	-0.180664	0.123047	0.980469	-4.410000	-2.730000	0.560000	404.00	0.20	-0.01
0.58	1.00	0.00	1.25	0.50	1.75	0.00	2.50	0.00	5.00	3.00	1.50	0.25	4.00	9.00	2.00	3.00	-0.243652	0.114746	0.941406	-3.990000	2.520000	0.980000	382.00	0.20	0.06	1.00	0.25	1.00	0.25	1.25	0.00	3.50	1.00	3.25	2.50	0.75	1.25	5.50	8.50	3.00	4.50	-0.180176	0.120117	0.974609	-3.640000	-2.380000	0.700000	408.00	0.20	-0.01
0.59	0.75	0.00	1.25	0.25	2.00	0.00	2.50	0.00	5.00	3.00	1.25	0.25	4.00	8.75	2.25	2.75	-0.239258	0.110840	0.953613	-3.640000	2.940000	1.190000	376.00	0.21	0.06	0.75	0.25	1.00	0.25	1.50	0.00	3.50	1.00	3.50	2.25	0.75	1.00	5.75	8.50	3.25	4.50	-0.175781	0.121582	0.981445	-3.220000	-1.960000	0.840000	411.00	0.20	-0.00
0.60	1.25	0.00	1.25	0.00	2.00	0.00	2.50	0.00	4.75	3.00	1.50	0.00	4.25	8.75	2.00	3.00	-0.239746	0.120117	0.945312	-3.570000	3.570000	1.260000	376.00	0.20	0.06	1.25	0.50	1.00	0.25	1.50	0.00	3.50	1.00	3.25	2.50	0.75	1.25	5.75	8.50	3.25	4.50	-0.180176	0.125000	0.978027	-2.870000	-1.400000	0.770000	422.00	0.19	-0.01
0.61	0.50	0.00	1.25	0.50	1.75	0.00	2.50	0.00	5.00	3.00	1.50	0.25	4.25	8.75	2.25	3.00	-0.233887	0.118652	0.951172	-3.570000	4.480000	1.190000	380.00	0.21	0.05	0.75	0.50	0.75	0.25	1.50	0.00	3.50	1.25	3.50	2.50	0.75	1.25	5.75	8.75	3.25	4.75	-0.182617	0.125000	0.972168	-2.800000	-1.120000	0.630000	424.00	0.20	-0.01
0.62	0.25	0.00	1.25	0.25	1.75	0.00	2.50	0.00	5.00	2.75	1.25	0.00	4.00	9.00	2.25	3.00	-0.237305	0.113770	0.944824	-3.710000	5.040000	1.050000	365.00	0.22	0.06	1.00	0.25	0.75	0.25	1.25	0.00	3.50	1.25	3.25	2.25	0.75	1.25	5.50	8.75	3.25	4.50	-0.180664	0.124512	0.969727	-2.660000	-0.980000	0.350000	411.00	0.20	-0.01
0.63	0.50	0.00	1.25	0.00	1.75	0.00	2.50	0.00	5.00	3.00	1.50	0.00	4.00	8.75	2.25	3.00	-0.236328	0.113770	0.950195	-3.010000	4.830000	1.050000	368.00	0.22	0.06	1.00	0.25	0.75	0.25	1.50	0.00	3.50	1.25	3.25	2.50	0.75	1.25	5.50	8.75	3.25	4.75	-0.183105	0.125488	0.967285	-2.380000	-1.050000	-0.140000	419.00	0.20	-0.01
0.64	0.25	0.00	1.25	0.25	1.75	0.00	2.50	0.00	5.00	3.00	1.50	0.25	4.25	9.00	2.00	3.00	-0.240723	0.119141	0.947754	-2.380000	4.550000	0.840000	373.00	0.22	0.05	0.25	0.25	0.75	0.50	1.25	0.00	3.50	1.25	3.50	2.50	1.00	1.00	5.75	8.50	3.25	4.75	-0.177246	0.126465	0.967773	-2.310000	-0.910000	-0.280000	414.00	0.21	-0.01
0.65	1.25	0.00	1.25	0.50	1.75	0.00	2.50	0.00	5.00	3.00	1.50	0.25	3.75	8.75	2.00	2.75	-0.238770	0.116211	0.950684	-2.310000	4.690000	0.630000	379.00	0.20	0.06	1.00	0.25	0.75	0.25	1.50	0.00	3.50	1.25	3.00	2.25	0.75	1.00	5.50	8.50	3.25	4.75	-0.182617	0.126953	0.978516	-2.380000	-0.840000	-0.210000	407.00	0.20	-0.01
0.66	0.75	0.00	1.50	0.50	1.75	0.00	2.50	0.00	5.00	3.00	1.25	0.25	4.00	9.00	2.25	2.75	-0.238281	0.113770	0.942383	-2.240000	5.110000	0.420000	381.00	0.21	0.06	0.75	0.25	1.00	0.25	1.50	0.00	3.50	1.25	3.25	2.25	0.75	1.25	5.75	8.50	3.25	4.75	-0.177246	0.121094	0.962402	-2.450000	-0.560000	-0.140000	416.00	0.20	-0.01
0.67	0.75	0.00	1.50	0.25	1.75	0.00	2.50	0.00	5.00	2.75	1.25	0.25	4.00	8.75	2.00	3.00	-0.243164	0.116211	0.938965	-2.240000	5.390000	0.490000	371.00	0.21	0.06	1.00	0.25	1.00	0.25	1.25	0.00	3.50	1.25	3.25	2.25	0.75	1.25	6.00	8.50	3.25	4.75	-0.182617	0.122559	0.961914	-2.940000	-0.560000	0.280000	418.00	0.20	-0.02
0.68	0.75	0.00	1.50	0.25	1.75	0.00	2.25	0.00	5.00	3.00	1.25	0.00	4.00	8.75	2.00	2.50	-0.244629	0.118652	0.944336	-2.450000	5.390000	0.700000	364.00	0.21	0.06	1.00	0.50	0.75	0.50	1.50	0.00	3.50	1.25	3.50	2.50	0.75	1.25	6.00	8.50	3.25	4.50	-0.180176	0.120605	0.968750	-3.430000	-1.050000	0.770000	429.00	0.19	-0.01
0.69	0.50	0.00	1.00	0.75	1.75	0.00	2.50	0.00	5.00	2.75	1.25	0.00	3.75	8.75	2.00	3.00	-0.243164	0.111328	0.939941	-3.360000	4.690000	1.120000	363.00	0.21	0.06	1.00	0.25	1.00	0.50	1.50	0.00	3.50	1.25	3.50	2.25	0.75	1.25	5.75	8.50	3.50	4.75	-0.180664	0.126465	0.964844	-3.850000	-1.680000	0.980000	428.00	0.20	-0.01
0.70	0.75	0.00	1.25	0.50	1.75	0.00	2.50	0.00	5.00	2.75	1.25	0.00	3.75	8.75	2.00	2.75	-0.243652	0.107910	0.933594	-3.710000	3.850000	1.330000	365.00	0.21	0.06	1.00	0.00	1.00	0.50	1.25	0.00	3.50	1.50	3.25	2.50	0.75	1.25	5.75	8.50	3.25	4.50	-0.187988	0.123535	0.962402	-3.990000	-2.100000	1.050000	422.00	0.20	-0.02
0.71	0.50	0.00	1.25	0.75	2.00	0.00	2.50	0.00	5.00	2.75	1.50	0.25	4.25	8.75	2.00	2.75	-0.243164	0.113770	0.932617	-4.060000	2.590000	1.610000	378.00	0.20	0.05	1.25	0.25	0.75	0.50	1.25	0.00	3.50	1.50	3.50	2.50	0.75	1.50	5.50	8.50	3.25	4.75	-0.187012	0.124512	0.958008	-4.550000	-2.660000	1.400000	430.00	0.19	-0.02
0.72	0.75	0.00	1.50	0.75	2.00	0.00	2.50	0.00	5.00	3.00	1.25	0.25	4.00	8.75	2.00	3.00	-0.242676	0.109375	0.931152	-4.480000	1.260000	1.610000	383.00	0.20	0.05	0.75	0.25	0.75	0.25	1.25	0.00	3.50	1.50	3.25	2.50	1.00	1.50	6.00	8.50	3.00	5.00	-0.184570	0.117188	0.951172	-5.600000	-3.080000	1.750000	424.00	0.20	-0.02
0.73	1.00	0.00	1.50	1.00	2.00	0.00	2.50	0.00	5.00	3.25	1.50	0.25	4.50	8.75	2.25	3.00	-0.241699	0.109375	0.921387	-4.970000	-0.280000	1.820000	402.00	0.19	0.04	0.50	0.00	0.75	0.25	1.50	0.00	3.50	1.50	3.50	2.75	1.00	1.50	6.25	8.25	3.50	5.00	-0.190918	0.109863	0.940430	-6.930000	-3.360000	2.240000	434.00	0.21	-0.02
0.74	1.25	0.75	2.00	1.00	2.00	0.00	2.50	0.00	5.25	3.25	2.00	0.75	5.00	8.75	2.50	3.25	-0.250488	0.102051	0.926758	-5.250000	-1.820000	2.450000	443.00	0.17	0.03	1.25	0.25	0.75	0.25	1.25	0.00	3.50	2.00	3.50	2.75	1.25	2.00	6.00	8.25	3.25	5.00	-0.189941	0.098145	0.968750	-8.120000	-8.190000	4.830000	453.00	0.19	-0.03
0.75	1.25	0.50	1.75	1.00	2.00	0.00	2.50	0.25	5.25	3.50	1.75	0.75	5.25	8.50	2.75	4.25	-0.249023	0.100586	0.928223	-5.390000	-4.060000	3.220000	450.00	0.18	0.02	0.75	0.25	0.75	0.25	1.25	0.25	3.75	2.00	3.25	3.00	1.50	2.00	6.75	8.00	3.00	5.00	-0.171875	0.106934	0.987793	-5.110000	-12.880000	6.930000	459.00	0.19	-0.04
0.76	3.00	2.50	3.50	3.25	2.75	0.25	3.00	1.00	5.75	5.00	3.25	1.75	6.50	9.00	2.75	4.00	-0.243164	0.096680	0.928223	-5.110000	-6.930000	4.130000	639.00	0.10	-0.01	0.75	0.25	0.50	0.25	1.25	0.00	3.75	2.50	3.25	2.75	1.50	2.00	7.00	7.75	2.50	5.00	-0.177734	0.118652	0.985352	-1.470000	-16.309999	8.260000	453.00	0.19	-0.05
0.77	2.50	2.00	3.00	3.00	2.75	0.25	3.00	1.50	5.75	4.50	3.25	2.00	6.75	8.75	3.25	4.25	-0.240723	0.084473	0.937988	-4.200000	-10.990000	5.390000	632.00	0.12	-0.02	0.25	0.25	0.75	0.50	1.25	0.25	3.75	3.00	3.00	2.50	1.25	2.25	7.25	7.25	2.50	5.00	-0.193359	0.122070	0.987793	1.750000	-18.480000	8.960000	456.00	0.18	-0.07
0.78	2.75	2.00	2.75	2.50	2.75	0.00	3.25	2.00	6.00	4.50	3.00	2.25	7.25	8.25	3.00	4.25	-0.236328	0.098633	0.940918	-4.340000	-15.260000	6.790000	636.00	0.12	-0.02	1.00	0.25	0.50	0.25	1.25	0.25	3.75	3.25	2.75	2.25	1.25	1.75	7.50	6.75	2.00	4.50	-0.195312	0.129395	0.959961	2.310000	-20.580000	9.870000	439.00	0.17	-0.07
0.79	3.00	2.00	3.25	3.00	2.75	0.25	3.00	3.00	5.75	4.50	3.25	2.50	7.75	7.75	2.75	5.00	-0.235352	0.110352	0.930176	-5.390000	-19.740000	7.980000	671.00	0.10	-0.05	1.00	0.25	0.75	0.50	1.25	0.50	4.00	3.50	2.50	1.75	1.25	2.00	7.50	6.25	1.50	3.50	-0.167480	0.162598	0.942871	-1.260000	-23.799999	11.060000	434.00	0.15	-0.08
0.80	3.00	2.50	3.25	3.00	3.00	0.50	3.25	4.00	5.75	4.50	3.75	2.75	8.50	7.00	2.75	4.75	-0.237305	0.113281	0.930176	-8.470000	-24.290001	9.170000	710.00	0.09	-0.06	1.00	0.50	1.00	0.50	1.25	0.50	4.00	3.75	2.00	1.50	0.75	1.25	7.25	5.50	1.00	3.00	-0.175781	0.150391	0.928223	-9.170000	-27.230000	12.040000	401.00	0.13	-0.09
0.81	3.25	2.25	3.25	3.25	3.00	0.50	3.25	5.00	5.50	4.25	3.75	3.00	8.50	6.25	2.50	4.75	-0.226074	0.131836	0.926758	-14.350000	-29.190001	9.940000	716.00	0.08	-0.07	1.50	0.50	0.75	0.75	1.50	0.75	4.00	4.25	1.50	1.25	0.75	1.25	6.75	4.50	0.50	2.00	-0.205078	0.170410	0.949219	-18.059999	-32.830002	12.390000	385.00	0.09	-0.10
0.82	3.25	2.50	3.50	3.25	3.00	0.00	3.50	5.50	5.25	4.00	3.00	2.50	8.50	5.00	0.75	3.50	-0.221191	0.124023	0.922852	-22.049999	-34.020000	9.590000	668.00	0.06	-0.07	1.75	0.25	1.50	0.50	1.50	1.00	4.25	5.00	1.25	1.00	0.50	1.00	6.25	3.50	0.50	1.25	-0.163086	0.152832	0.937988	-27.160000	-39.340000	11.130000	381.00	0.06	-0.10
0.83	1.00	0.00	1.50	1.00	2.50	0.00	3.25	5.25	4.00	2.50	2.25	1.75	7.75	3.75	0.50	3.00	-0.233398	0.122559	0.939941	-30.030001	-39.759998	9.380000	475.00	0.11	-0.09	1.75	0.75	1.75	1.00	2.25	1.00	4.25	5.25	1.25	1.00	0.50	1.25	6.00	2.50	0.25	1.00	-0.138184	0.077148	0.954590	-27.440001	-37.380001	10.920000	395.00	0.03	-0.11
0.84	1.25	0.25	1.50	1.25	2.75	0.00	3.25	6.75	3.75	2.75	2.50	2.75	9.00	4.00	1.50	3.25	-0.161621	0.201660	1.027832	-28.840000	-36.750000	6.160000	552.00	0.11	-0.12	2.25	1.00	2.00	1.25	2.50	1.00	4.50	5.50	1.25	0.50	0.00	0.75	5.00	2.25	1.25	1.50	-0.152832	0.103516	1.039062	-25.059999	-35.630001	12.390000	406.00	0.02	-0.10
0.85	1.75	0.50	2.25	2.00	3.50	0.25	3.25	6.75	2.75	2.00	1.50	1.25	7.75	2.00	0.00	1.75	-0.029297	0.068359	0.949219	-26.530001	-33.320000	5.180000	483.00	0.04	-0.12	3.00	1.25	2.75	2.00	3.25	2.25	4.25	5.50	0.75	0.50	0.25	1.00	4.25	1.00	0.25	0.25	-0.142090	0.130859	1.014648	-20.719999	-30.450001	12.180000	416.00	-0.05	-0.10
0.86	2.50	1.75	3.75	5.00	4.50	1.25	3.50	7.25	2.00	1.75	1.25	1.25	7.50	1.75	0.00	1.75	-0.169434	0.094238	1.015625	-24.990000	-31.080000	5.530000	573.00	-0.02	-0.13	4.00	1.75	3.75	2.75	4.50	3.00	4.25	5.50	0.50	0.50	0.25	0.50	3.25	0.75	0.25	0.00	-0.068359	0.116699	0.968262	-15.400000	-25.480000	11.200000	455.00	-0.09	-0.09
0.87	4.75	5.50	7.50	8.00	6.50	5.00	3.75	8.25	3.75	2.75	2.25	1.75	8.25	3.00	1.00	2.00	-0.141602	0.080566	1.018555	-19.250000	-27.510000	5.950000	893.00	-0.05	-0.11	5.25	2.25	5.00	4.00	5.00	3.50	4.25	5.50	0.50	0.25	0.00	0.25	2.50	0.50	0.00	0.00	-0.111328	0.109863	1.077148	4.690000	-19.110001	5.250000	495.00	-0.13	-0.08
0.88	8.75	7.50	8.50	8.75	7.00	5.50	3.75	8.25	3.50	2.75	2.00	1.50	7.75	2.50	0.50	1.75	-0.072754	0.049805	1.016602	-10.710000	-21.280001	6.440000	966.00	-0.09	-0.10	6.00	3.50	5.50	5.00	5.00	3.25	4.25	5.25	0.50	0.25	0.25	0.50	1.75	0.25	0.25	0.00	-0.074707	0.079590	1.048340	22.120001	-10.710000	4.340000	527.00	-0.15	-0.07
0.89	10.00	8.50	9.25	9.25	7.25	6.00	3.75	8.25	3.00	2.50	1.75	1.00	7.50	2.50	0.75	1.50	-0.138184	0.093262	1.026855	-2.940000	-12.530000	6.650000	994.00	-0.11	-0.09	6.50	4.00	5.75	5.25	5.00	3.50	4.00	5.00	0.25	0.25	0.00	0.00	1.50	0.25	0.00	0.00	-0.073730	0.117188	1.042969	33.880001	-15.120000	4.410000	521.00	-0.17	-0.07
0.90	12.00	9.50	9.75	9.75	7.25	6.00	3.75	8.25	2.50	2.25	2.00	1.00	7.00	2.25	0.50	1.25	-0.141113	0.080566	1.006348	3.430000	-4.130000	6.160000	1020.00	-0.13	-0.09	7.00	4.25	6.25	5.25	4.75	3.50	4.00	5.00	0.00	0.00	0.00	0.25	1.00	0.00	0.00	0.00	-0.088379	0.145508	1.001465	38.779999	-20.020000	3.850000	521.00	-0.18	-0.07
0.91	13.00	10.00	10.00	10.00	7.25	6.50	3.75	8.25	2.75	2.00	1.75	1.00	6.50	2.00	0.75	1.00	-0.144531	0.082031	0.985840	7.980000	3.150000	5.390000	1041.00	-0.14	-0.09	7.25	4.50	6.25	5.50	4.50	3.25	4.00	4.50	0.00	0.00	0.00	0.25	0.75	0.00	0.00	0.00	-0.081543	0.131836	0.958984	36.400002	-17.920000	3.150000	513.00	-0.19	-0.06
0.92	13.50	10.50	10.25	10.50	7.00	6.50	3.50	8.00	2.50	2.00	1.75	1.00	6.00	2.25	0.50	1.50	-0.149902	0.093262	0.975098	11.900000	7.980000	4.900000	1044.00	-0.14	-0.09	7.25	4.50	6.25	5.50	4.25	3.25	4.00	4.25	0.25	0.00	0.00	0.25	0.00	0.00	0.00	0.00	-0.095703	0.141602	0.948730	30.940001	-13.510000	2.450000	502.00	-0.19	-0.05
0.93	14.00	11.25	10.25	10.50	7.00	6.75	3.50	8.00	2.50	1.75	1.75	0.75	5.75	1.75	0.50	1.00	-0.145508	0.112305	0.971191	15.050000	7.420000	4.480000	1044.00	-0.15	-0.09	8.00	5.00	6.50	5.50	4.00	2.75	4.00	4.00	0.00	0.00	0.00	0.25	0.25	0.00	0.00	0.00	-0.103027	0.140137	0.964844	25.059999	-11.550000	2.170000	505.00	-0.20	-0.05
0.94	13.75	11.25	10.25	10.50	6.75	6.75	3.50	7.75	2.50	1.75	1.50	0.50	5.25	1.75	0.50	1.00	-0.141602	0.091309	0.968262	16.940001	6.510000	3.360000	1024.00	-0.16	-0.09	8.25	5.00	6.25	5.50	3.75	2.75	4.00	3.50	0.00	0.00	0.00	0.00	0.25	0.00	0.00	0.00	-0.114258	0.134277	0.980957	21.350000	-9.170000	1.960000	490.00	-0.21	-0.04
0.95	14.50	11.25	10.25	10.75	6.50	6.50	3.50	7.50	2.50	1.50	1.00	0.50	3.50	1.25	0.00	1.00	-0.150391	0.115234	0.965820	17.360001	6.720000	2.520000	990.00	-0.17	-0.08	8.25	5.00	6.75	5.75	3.50	2.75	3.75	3.25	0.00	0.00	0.00	0.25	0.25	0.00	0.00	0.00	-0.115723	0.129883	1.017578	20.160000	-11.550000	1.330000	491.00	-0.21	-0.04
0.96	14.50	11.00	10.25	10.50	6.50	6.25	3.50	7.50	1.75	1.50	1.25	0.50	4.00	1.75	0.25	0.75	-0.155273	0.104004	0.948242	13.370000	7.490000	1.190000	984.00	-0.17	-0.08	8.50	5.00	6.75	5.50	3.50	2.50	3.75	3.00	0.00	0.00	0.00	0.25	0.25	0.00	0.00	0.00	-0.114258	0.139648	0.984375	20.510000	-15.820000	1.470000	484.00	-0.22	-0.04
0.97	9.75	9.25	8.50	9.00	5.50	4.75	3.25	5.75	0.50	0.50	0.50	0.00	2.00	1.50	0.25	1.00	-0.155273	0.104004	0.948242	13.370000	7.490000	1.190000	747.00	-0.19	-0.08	9.25	5.00	7.00	5.75	3.50	2.25	4.00	3.00	0.00	0.00	0.00	0.25	0.25	0.00	0.00	0.00	-0.093262	0.153320	0.954590	19.879999	-18.129999	1.750000	499.00	-0.22	-0.03
0.98	14.25	11.25	10.25	10.50	6.25	6.00	3.50	6.00	1.25	1.25	1.00	0.00	2.75	1.75	0.00	0.00	-0.158203	0.117676	0.980957	10.990000	5.110000	0.910000	915.00	-0.19	-0.07	9.75	5.75	7.50	6.25	3.25	2.75	3.75	2.75	0.00	0.00	0.00	0.00	0.50	0.00	0.00	0.00	-0.082031	0.155273	0.922852	17.219999	-18.200001	1.750000	519.00	-0.23	-0.03
0.99	11.25	9.75	9.00	9.75	5.50	5.25	3.25	6.25	1.75	1.25	1.25	0.00	1.75	0.75	0.00	0.00	-0.158203	0.106445	0.937988	8.190000	4.690000	1.960000	815.00	-0.19	-0.07	9.75	5.75	7.50	6.25	3.25	2.75	3.75	2.75	0.00	0.00	0.00	0.25	0.25	0.00	0.00	0.00	-0.071289	0.157227	0.929199	11.760000	-14.000000	1.470000	519.00	-0.23	-0.03
1.00	14.75	11.50	10.50	10.50	6.00	5.50	3.25	6.00	1.50	1.25	0.75	0.00	0.50	1.00	0.00	0.00	-0.150879	0.100098	0.943848	5.320000	4.760000	2.030000	886.00	-0.21	-0.06	11.00	6.25	7.75	6.50	3.25	2.50	3.75	2.75	0.00	0.00	0.00	0.00	0.50	0.00	0.00	0.00	-0.060547	0.165039	0.930664	9.380000	-11.410000	1.540000	541.00	-0.24	-0.03
1.01	11.25	9.00	8.25	8.75	5.00	3.50	3.00	4.75	0.75	1.25	0.25	0.00	2.25	1.50	0.00	0.25	-0.153809	0.104004	0.940430	3.430000	5.600000	1.890000	718.00	-0.20	-0.07	11.75	7.00	8.00	7.50	3.25	3.00	4.00	3.00	0.00	0.00	0.00	0.00	0.25	0.00	0.00	0.00	-0.064941	0.180176	0.927734	6.860000	-8.820000	1.400000	584.00	-0.24	-0.04
1.02	10.00	9.50	9.50	10.25	5.50	4.50	3.25	5.25	1.25	1.00	1.00	0.00	1.50	1.00	0.25	0.25	-0.154785	0.111816	0.945312	1.680000	7.630000	1.540000	777.00	-0.19	-0.07	12.75	7.00	8.00	7.75	3.50	3.25	3.75	3.25	0.00	0.00	0.00	0.25	0.00	0.00	0.00	0.00	-0.060547	0.181152	0.925781	4.060000	-6.650000	1.050000	605.00	-0.24	-0.04
1.03	9.50	9.00	8.25	8.75	5.00	3.00	3.00	3.50	0.00	0.75	1.25	0.25	2.50	1.50	0.25	0.75	-0.154297	0.108887	0.932617	-1.120000	10.010000	0.910000	678.00	-0.19	-0.07	12.75	7.75	8.50	8.00	3.50	3.50	3.75	3.25	0.00	0.00	0.00	0.00	0.50	0.00	0.00	0.00	-0.061035	0.181641	0.922852	0.840000	-4.270000	0.910000	626.00	-0.24	-0.04
1.04	12.25	9.75	9.25	9.50	5.25	4.50	3.25	4.75	0.75	1.25	0.75	0.00	1.50	1.25	0.00	0.25	-0.163086	0.109375	0.965820	-2.730000	11.830000	0.280000	773.00	-0.20	-0.06	13.75	8.50	9.00	8.50	3.50	4.00	3.75	3.75	0.00	0.00	0.00	0.25	0.00	0.00	0.00	0.00	-0.065430	0.182617	0.929199	-3.640000	-2.100000	0.560000	670.00	-0.25	-0.05
1.05	12.00	9.00	9.50	9.75	5.50	4.75	3.00	4.25	1.25	1.00	0.75	0.00	0.00	0.25	0.00	0.00	-0.147949	0.110352	0.943848	-4.270000	13.720000	-0.280000	742.00	-0.22	-0.05	14.50	9.00	9.25	8.75	3.75	4.25	3.75	3.75	0.00	0.00	0.00	0.25	0.25	0.00	0.00	0.00	-0.078613	0.185059	0.960938	-6.510000	-1.470000	0.700000	697.00	-0.25	-0.05
1.06	12.00	9.50	9.00	9.25	5.25	4.25	3.25	5.00	1.50	1.25	1.00	0.00	2.00	1.50	0.25	0.50	-0.145508	0.114258	0.937500	-6.860000	16.379999	-0.980000	788.00	-0.18	-0.06	15.50	9.25	9.50	9.50	4.00	5.00	3.75	4.00	0.00	0.00	0.00	0.50	0.50	0.00	0.00	0.00	-0.084961	0.172852	0.957031	-8.260000	-1.960000	0.910000	745.00	-0.24	-0.05
1.07	12.00	9.50	9.25	9.25	5.25	4.50	3.50	4.75	1.50	1.25	1.50	0.50	2.25	1.25	0.25	0.50	-0.132324	0.108887	0.909668	-11.550000	20.650000	-2.310000	806.00	-0.18	-0.06	17.00	10.25	9.75	10.00	4.00	5.00	3.75	4.25	0.00	0.00	0.00	0.25	0.25	0.00	0.00	0.00	-0.075684	0.169434	0.959961	-9.730000	-2.870000	1.190000	780.00	-0.25	-0.05
1.08	9.75	8.25	8.25	8.50	5.00	3.00	3.50	4.50	1.25	1.00	1.00	0.00	1.00	1.00	0.00	0.25	-0.126465	0.110352	0.912598	-18.620001	27.160000	-3.920000	685.00	-0.19	-0.05	17.50	11.50	10.50	10.50	4.75	5.25	4.00	4.75	0.00	0.00	0.00	0.00	0.50	0.00	0.00	0.00	-0.083008	0.161621	0.965332	-11.060000	-3.850000	1.190000	837.00	-0.25	-0.05
1.09	9.25	8.00	8.50	8.50	5.00	3.50	3.50	4.75	1.75	1.75	1.50	0.50	2.25	1.50	0.75	0.50	-0.154297	0.096680	1.022461	-25.830000	32.549999	-4.830000	744.00	-0.15	-0.06	19.00	12.50	11.25	11.50	5.25	5.75	4.00	5.25	0.00	0.00	0.00	0.00	0.75	0.00	0.00	0.00	-0.072266	0.156250	0.947754	-12.460000	-5.040000	1.540000	908.00	-0.25	-0.06
1.10	6.25	5.25	6.00	5.75	3.50	0.00	3.00	2.50	0.75	0.75	1.00	0.00	0.25	0.75	0.00	0.00	-0.169434	0.100098	1.011719	-19.600000	31.920000	-6.020000	439.00	-0.18	-0.02	20.00	14.00	11.50	12.25	5.75	6.75	4.00	5.75	0.00	0.00	0.00	0.25	0.75	0.00	0.00	0.00	-0.067871	0.162598	0.920898	-20.930000	-5.110000	1.120000	975.00	-0.25	-0.06
1.11	6.00	4.50	5.25	4.50	2.75	1.50	3.00	3.75	1.75	1.75	2.00	0.50	1.50	0.50	0.00	0.00	-0.144043	0.096191	1.007812	-10.150000	35.279999	-6.860000	486.00	-0.12	-0.05	22.00	15.50	12.50	13.25	6.25	7.50	4.25	6.00	0.25	0.00	0.00	0.25	1.25	0.00	0.25	0.00	-0.082031	0.153809	0.980957	-28.000000	-4.690000	1.120000	1072.00	-0.25	-0.06
1.12	6.25	5.25	6.00	5.75	3.25	1.25	3.25	3.50	2.00	2.00	1.75	0.50	2.75	1.50	0.50	0.75	-0.097656	0.174805	1.043457	3.290000	39.759998	-7.910000	559.00	-0.11	-0.05	22.75	17.00	13.00	14.00	6.75	8.00	4.25	6.25	0.00	0.00	0.00	0.25	1.50	0.00	0.00	0.00	-0.091797	0.145020	1.056152	-33.250000	-6.650000	1.330000	1122.00	-0.25	-0.07
1.13	6.00	5.00	5.50	5.25	3.00	1.00	3.00	3.00	2.00	1.50	1.75	0.25	2.75	1.75	0.50	0.50	-0.192871	0.113281	1.379395	58.240002	109.199997	-16.660000	515.00	-0.11	-0.04	25.25	18.75	14.00	16.75	8.00	8.25	4.50	7.25	0.00	0.00	0.00	0.25	1.75	0.00	0.25	0.25	-0.094238	0.149902	1.012207	-33.250000	-9.380000	1.330000	1259.00	-0.25	-0.07
1.14	5.25	5.00	3.50	3.25	2.50	1.00	3.00	1.75	1.75	1.75	1.00	0.50	2.00	0.50	0.00	0.00	-0.362305	0.626465	1.752930	66.010002	165.410004	-23.660000	397.00	-0.12	-0.03	27.00	25.00	13.50	16.75	8.00	9.50	4.75	7.50	0.75	0.50	0.75	1.25	3.25	1.00	1.25	0.75	-0.073242	0.136230	1.014648	-32.689999	-9.940000	1.540000	1433.00	-0.23	-0.08
1.15	5.25	4.75	3.75	2.25	1.75	0.00	2.75	1.75	1.75	1.50	1.50	0.25	1.75	1.50	0.50	0.75	-0.061035	0.314941	2.150879	20.930000	195.789993	-43.540001	378.00	-0.09	-0.01	32.50	26.00	17.00	19.50	9.50	11.75	5.00	8.00	1.50	1.00	0.75	1.25	4.25	1.00	1.00	0.50	-0.056641	0.160645	1.007324	-31.990000	-8.750000	1.190000	1660.00	-0.23	-0.07
1.16	5.25	4.00	5.00	4.75	2.25	0.50	2.75	1.25	1.50	1.50	1.25	0.00	1.25	1.50	0.50	0.50	-0.088867	0.432617	1.774414	-30.870001	238.490005	-48.090000	404.00	-0.12	-0.01	33.75	28.25	19.00	20.25	10.25	12.00	5.00	8.00	1.25	0.75	1.00	1.25	4.25	1.00	1.00	0.75	-0.047852	0.139160	1.010742	-29.540001	-7.000000	0.490000	1740.00	-0.23	-0.07
1.17	5.00	3.75	4.50	4.25	2.25	0.25	2.75	0.75	1.50	1.00	0.75	0.00	1.00	1.25	0.50	0.50	-0.218750	0.419434	1.674316	-55.439999	267.820007	-60.619999	359.00	-0.13	0.01	36.75	29.50	19.75	20.25	10.75	12.50	5.00	8.25	1.50	1.00	0.75	1.25	3.75	0.75	1.25	1.00	-0.057617	0.155762	1.020020	-26.250000	-5.530000	0.070000	1812.00	-0.24	-0.07
1.18	4.75	0.50	3.25	3.75	2.25	0.25	2.75	0.50	1.25	1.25	1.00	0.00	0.75	1.25	0.50	0.50	-0.346191	0.864258	2.010742	-69.019997	287.279999	-77.349998	298.00	-0.09	0.03	37.00	30.00	19.50	19.50	10.75	11.25	5.00	8.25	1.50	1.00	0.75	0.75	4.75	1.00	1.25	0.75	-0.058105	0.143555	1.013184	-23.240000	-4.130000	-0.350000	1798.00	-0.24	-0.07
1.19	5.00	3.75	4.75	4.50	2.25	0.25	3.00	0.50	1.00	1.00	1.50	0.00	1.00	1.25	0.50	0.50	0.540527	1.111328	2.533691	-94.080002	265.790009	-79.870003	366.00	-0.13	0.00	36.00	30.50	19.25	21.25	11.75	13.00	5.00	8.50	1.75	1.25	1.00	1.25	4.75	1.25	1.00	1.00	-0.065430	0.140625	1.038574	-17.639999	-3.290000	-0.700000	1863.00	-0.23	-0.07
1.20	5.00	3.00	4.75	4.25	2.50	0.50	3.00	0.50	1.00	1.00	1.00	0.00	1.00	1.25	0.25	0.25	1.615234	1.994629	2.061035	-126.559998	223.440002	-46.060001	352.00	-0.14	0.01	37.75	30.00	20.50	21.75	12.00	13.50	5.00	8.50	1.75	1.25	0.75	1.25	5.00	1.25	1.25	1.25	-0.055664	0.128418	1.028809	-8.680000	-3.780000	-0.910000	1911.00	-0.23	-0.07
1.21	5.00	3.75	5.00	4.50	2.25	0.25	3.00	0.25	0.75	1.00	1.25	0.00	1.25	1.25	0.25	0.75	1.765137	1.720703	2.418945	-69.790001	158.479996	9.660000	360.00	-0.14	0.00	37.75	30.50	20.75	21.75	11.75	13.25	5.00	8.50	1.75	1.00	1.00	1.25	5.00	1.25	1.25	1.00	-0.049316	0.138184	1.019043	-1.050000	-2.380000	-1.260000	1912.00	-0.23	-0.07
1.22	5.00	3.50	4.25	4.50	2.25	0.25	3.00	0.50	1.00	1.25	1.00	0.00	0.75	1.50	0.25	0.75	2.403809	1.610352	1.237793	5.110000	96.879997	36.889999	354.00	-0.13	0.01	37.25	30.00	20.25	21.50	11.75	13.25	5.00	8.50	1.75	1.00	1.00	1.25	5.25	1.00	1.50	1.00	-0.059570	0.132812	1.036621	6.930000	-1.330000	-1.470000	1895.00	-0.23	-0.07
1.23	4.75	3.50	4.25	4.25	2.25	0.25	3.00	0.50	1.00	1.00	1.00	0.00	1.00	1.25	0.25	0.25	2.499512	0.940430	1.041504	41.509998	67.129997	48.369999	342.00	-0.14	0.01	36.75	29.50	20.00	21.00	11.25	13.25	5.00	8.50	1.50	1.00	0.75	1.25	5.00	1.00	1.50	1.00	-0.051270	0.149902	1.004395	19.600000	0.630000	-2.310000	1861.00	-0.23	-0.07
1.24	5.00	3.00	4.25	4.50	2.50	0.00	3.00	0.25	1.00	1.25	1.25	0.00	0.75	1.00	0.00	0.50	2.713867	0.695312	0.890137	46.549999	40.880001	45.290001	338.00	-0.14	0.02	35.50	29.00	19.50	20.50	10.75	12.75	5.00	8.50	1.50	1.00	0.50	1.25	5.00	1.00	1.25	0.75	-0.057129	0.151367	0.985840	20.580000	2.240000	-2.590000	1810.00	-0.23	-0.07
1.25	5.00	3.25	4.50	4.00	2.25	0.50	3.00	0.25	1.25	0.75	1.00	0.00	1.00	1.25	0.25	0.50	2.844238	0.560059	1.062500	58.660000	4.200000	36.049999	343.00	-0.14	0.02	34.75	27.50	18.75	20.00	10.25	12.75	5.00	8.25	1.50	1.00	0.75	1.25	4.00	1.00	1.25	0.75	-0.054688	0.145996	0.969238	18.760000	4.690000	-3.150000	1755.00	-0.23	-0.07
1.26	4.75	3.50	4.25	3.75	2.00	0.25	2.75	0.00	0.75	0.50	0.75	0.00	0.00	1.00	0.00	0.00	2.818848	0.317871	1.023926	72.449997	-37.660000	25.480000	292.00	-0.18	0.03	32.75	24.50	17.75	19.50	9.75	12.25	4.75	8.25	1.50	1.00	0.75	1.25	5.00	1.00	1.00	1.00	-0.053711	0.165527	0.952148	14.210000	7.630000	-3.570000	1676.00	-0.23	-0.07
1.27	3.50	1.50	3.00	2.75	1.50	0.00	2.75	0.00	0.25	0.25	0.75	0.00	0.00	0.50	0.00	0.25	2.641602	0.193359	0.982910	76.440002	-73.570000	17.360001	209.00	-0.16	0.05	32.00	25.00	17.50	18.75	9.50	12.00	4.75	8.25	1.50	0.75	1.00	1.00	5.00	1.00	1.25	1.00	-0.048828	0.159180	0.930176	8.540000	10.850000	-3.850000	1654.00	-0.22	-0.07
1.28	3.75	2.25	3.25	3.00	1.75	0.00	2.75	0.00	0.25	0.75	0.50	0.00	0.00	0.75	0.00	0.00	2.103516	0.184570	1.130371	84.070000	-115.010002	20.230000	232.00	-0.17	0.05	30.75	23.00	16.75	17.75	9.25	11.50	4.50	8.25	1.50	1.00	0.50	1.50	5.00	1.00	1.25	1.00	-0.064941	0.153809	0.945801	1.820000	14.000000	-4.200000	1589.00	-0.22	-0.07
1.29	3.50	1.75	3.25	2.75	1.75	0.00	2.75	0.00	0.75	0.50	0.50	0.00	0.00	0.75	0.00	0.25	1.798828	0.195801	1.407227	95.620003	-128.380005	33.180000	227.00	-0.15	0.06	26.00	16.50	12.00	12.25	7.50	9.00	4.50	7.50	0.00	0.00	0.00	0.00	4.00	0.25	0.50	0.75	-0.063477	0.140625	0.931152	-3.920000	16.309999	-4.410000	1200.00	-0.23	-0.07
1.30	4.00	2.50	3.75	3.50	1.75	0.00	3.00	0.00	1.00	0.50	1.00	0.00	0.50	1.25	0.00	0.50	1.416016	0.263184	1.663574	108.080002	-144.410004	54.599998	279.00	-0.13	0.04	27.25	19.75	15.75	16.50	8.75	11.50	4.75	8.00	1.25	1.00	0.75	1.50	5.75	1.25	1.00	1.00	-0.062988	0.139648	0.942383	-10.080000	19.110001	-4.550000	1489.00	-0.21	-0.08
1.31	4.50	2.50	3.75	3.75	2.00	0.00	2.75	0.00	0.75	0.75	0.75	0.00	0.50	1.25	0.00	0.50	1.032227	0.223633	2.009766	117.879997	-163.309998	81.269997	283.00	-0.15	0.03	25.75	17.50	15.00	15.50	8.50	11.25	4.75	8.25	1.50	0.75	1.25	1.50	5.75	1.00	1.25	1.25	-0.089844	0.121094	0.964355	-13.580000	19.740000	-4.620000	1435.00	-0.20	-0.08
1.32	4.50	3.00	3.75	4.00	2.00	0.50	2.75	0.00	1.00	0.75	1.00	0.00	0.75	1.00	0.25	0.50	0.614258	0.139160	2.295898	118.370003	-187.880005	107.800003	307.00	-0.14	0.02	23.50	15.75	14.00	14.50	8.75	11.00	4.75	8.25	1.75	1.25	1.00	1.25	6.25	1.00	1.25	0.75	-0.074707	0.127930	0.939453	-17.920000	19.740000	-4.830000	1373.00	-0.19	-0.08
1.33	4.25	3.00	4.00	3.50	2.00	0.25	3.00	0.00	0.75	1.00	0.75	0.00	1.00	1.00	0.00	0.50	0.184082	-0.084473	2.365234	102.059998	-215.809998	128.869995	298.00	-0.14	0.02	22.50	14.75	13.75	14.00	8.75	11.25	5.00	8.75	1.75	1.25	1.00	1.50	6.75	1.25	1.25	1.25	-0.078125	0.136719	0.937500	-28.490000	20.650000	-5.460000	1370.00	-0.18	-0.08
1.34	4.25	2.50	3.75	3.75	2.00	0.25	3.00	0.00	1.00	0.75	1.00	0.00	1.00	1.25	0.25	0.50	-0.205078	-0.223633	2.269043	74.900002	-237.440002	136.149994	301.00	-0.12	0.02	21.25	12.50	13.25	13.25	8.75	11.25	5.00	8.75	1.75	1.75	1.00	1.75	7.75	1.25	1.50	1.50	-0.072266	0.098145	0.912598	-50.049999	16.660000	-6.440000	1341.00	-0.17	-0.09
1.35	4.00	2.75	3.25	3.25	2.00	0.00	3.00	0.25	1.00	0.75	1.00	0.00	0.75	1.00	0.00	0.25	-0.530762	-0.236328	2.169922	52.570000	-250.250000	127.050003	281.00	-0.13	0.03	19.50	11.25	13.00	12.50	9.25	11.25	5.00	9.00	2.00	1.75	1.00	2.00	8.75	1.50	1.25	1.50	-0.063477	0.133789	0.966309	-56.279999	13.370000	-7.560000	1322.00	-0.15	-0.09
1.36	4.00	2.50	3.75	3.50	2.00	0.00	2.75	0.25	1.00	0.50	1.00	0.00	1.00	1.00	0.25	0.50	-0.806152	-0.212891	1.970215	38.990002	-253.960007	107.379997	288.00	-0.13	0.02	18.00	9.25	12.50	11.75	9.75	11.25	5.25	9.25	2.25	2.00	1.25	2.25	9.50	1.50	1.50	1.50	-0.114746	0.107910	1.062988	-55.860001	10.080000	-8.400000	1306.00	-0.14	-0.09
1.37	3.75	2.50	3.75	3.75	2.00	0.25	3.00	0.25	1.00	0.75	0.75	0.00	1.00	1.25	0.25	0.25	-1.033203	-0.099609	1.810547	30.240000	-248.080002	86.239998	296.00	-0.12	0.02	16.50	8.25	12.00	10.50	10.50	11.00	5.50	9.50	2.50	2.50	1.50	2.50	10.00	1.75	1.50	1.75	-0.108887	0.092285	1.140625	-44.240002	-0.840000	-8.820000	1296.00	-0.12	-0.09
1.38	4.50	2.75	3.75	3.50	2.00	0.00	3.00	0.00	0.75	0.75	0.75	0.00	1.00	1.25	0.00	0.50	-1.198242	0.057129	1.754395	24.150000	-234.990005	72.800003	292.00	-0.14	0.03	15.00	7.50	11.50	9.75	11.00	10.75	5.50	9.50	2.75	2.75	2.00	3.00	10.50	2.00	1.75	2.00	-0.078613	0.111328	0.939941	-30.100000	-6.720000	-9.730000	1289.00	-0.10	-0.10
1.39	4.00	2.50	4.00	3.25	2.00	0.00	3.00	0.00	1.25	0.75	1.00	0.00	1.00	1.25	0.00	0.50	-1.324707	0.212891	1.848633	20.299999	-224.070007	73.849998	293.00	-0.12	0.04	13.50	6.75	11.25	9.25	11.75	10.75	6.00	9.75	3.00	3.50	2.25	3.75	11.00	2.25	2.00	2.25	-0.099121	0.095215	0.988281	-25.340000	-7.840000	-9.940000	1311.00	-0.09	-0.10
1.40	4.00	2.50	3.50	3.75	2.00	0.00	3.00	0.00	1.00	0.75	1.00	0.00	0.50	1.00	0.00	0.50	-1.474609	0.188965	1.757324	10.220000	-219.800003	88.690002	283.00	-0.13	0.03	12.00	6.00	10.50	8.50	12.25	10.50	6.00	9.75	3.50	4.50	3.00	3.75	11.50	2.75	2.25	3.25	-0.098145	0.074707	0.987793	-19.460001	-5.880000	-10.430000	1317.00	-0.07	-0.09
1.41	4.00	2.50	3.25	3.75	2.00	0.00	3.00	0.00	0.75	0.75	1.00	0.00	0.75	1.50	0.00	0.50	-1.738770	0.167969	1.431152	-7.980000	-213.220001	107.099998	283.00	-0.13	0.03	10.50	5.75	10.00	7.75	12.50	10.25	6.25	10.00	4.50	5.50	3.50	4.75	12.00	3.25	2.25	3.75	-0.086914	0.067383	0.996582	-11.760000	-0.770000	-9.870000	1346.00	-0.04	-0.09
1.42	4.00	3.00	3.75	3.50	2.00	0.00	3.00	0.00	0.75	0.75	1.00	0.00	0.50	1.25	0.25	0.50	-2.019531	0.182617	0.995117	-25.340000	-195.160004	118.930000	289.00	-0.13	0.03	9.25	5.25	9.25	7.25	12.25	10.00	6.50	10.25	5.00	7.50	4.25	6.00	12.75	4.00	3.00	4.75	-0.112305	0.056152	1.012695	-4.550000	4.340000	-8.960000	1395.00	-0.02	-0.10
1.43	4.00	2.50	3.75	3.50	1.75	0.00	3.00	0.00	0.75	1.00	1.25	0.00	0.75	1.00	0.25	0.50	-2.254395	0.250488	0.760742	-31.290001	-167.509995	122.150002	287.00	-0.12	0.03	8.25	4.75	8.50	6.75	12.00	9.75	6.50	10.50	5.75	8.25	5.75	7.50	13.50	4.75	3.50	5.50	-0.044434	0.056152	0.991699	2.660000	10.080000	-8.050000	1440.00	0.00	-0.10
1.44	4.00	2.00	3.75	3.00	1.75	0.00	3.00	0.00	1.00	1.00	1.00	0.00	0.25	1.25	0.00	0.25	-2.651367	0.255371	0.549805	-29.889999	-116.550003	123.760002	270.00	-0.12	0.05	7.50	4.75	7.75	6.00	11.25	9.50	6.75	10.50	6.75	8.75	7.25	8.00	14.25	5.50	4.00	7.00	-0.062988	0.058105	1.000977	9.590000	16.309999	-7.140000	1477.00	0.02	-0.10
1.45	4.00	2.75	3.75	3.25	2.00	0.00	3.00	0.00	0.75	1.00	1.00	0.00	1.00	1.50	0.25	0.50	-2.791016	0.225586	0.428223	-31.570000	-93.730003	126.770004	294.00	-0.12	0.03	6.75	4.00	7.00	5.50	10.50	9.25	6.75	10.75	7.50	9.75	7.75	8.50	15.00	6.50	5.00	8.25	-0.068359	0.065918	1.004395	15.190001	23.030001	-6.650000	1507.00	0.05	-0.10
1.46	3.75	2.25	3.75	3.50	2.00	0.00	2.75	0.50	1.00	1.00	1.00	0.00	1.00	1.00	0.25	0.75	-2.896484	0.119141	0.367676	-31.500000	-70.629997	128.100006	294.00	-0.11	0.01	6.00	3.50	6.00	5.00	9.50	9.00	6.50	10.75	8.00	10.25	8.25	8.75	15.75	7.25	5.75	9.50	-0.056641	0.099609	1.027832	19.250000	31.710001	-7.350000	1508.00	0.06	-0.10
1.47	4.00	2.75	3.75	3.75	2.00	0.25	2.75	0.50	1.00	1.25	1.25	0.25	0.25	1.25	0.25	0.25	-2.950684	-0.007324	0.299805	-34.369999	-46.480000	121.870003	308.00	-0.12	0.02	5.75	3.50	5.50	4.25	8.25	8.50	6.25	10.75	8.50	11.00	8.75	9.50	16.50	8.25	7.00	10.75	-0.085938	0.102051	1.053223	23.240000	50.049999	-10.360000	1533.00	0.08	-0.10
1.48	4.25	2.75	3.75	4.00	2.00	0.00	2.75	0.00	1.00	0.50	0.75	0.00	0.50	1.00	0.00	0.25	-3.025879	-0.046387	0.276855	-35.560001	-21.210001	105.559998	283.00	-0.16	0.03	5.25	2.75	5.00	3.75	7.25	8.00	6.00	10.75	8.75	11.50	9.25	10.00	17.00	9.00	7.75	12.25	-0.057617	0.112305	1.202637	31.710001	65.099998	-13.370000	1536.00	0.10	-0.11
1.49	4.25	2.75	3.50	3.50	2.00	0.00	2.75	0.25	1.25	0.75	1.25	0.00	0.75	1.00	0.00	0.50	-3.061035	-0.070801	0.308105	-34.369999	3.570000	76.930000	294.00	-0.13	0.02	5.00	2.75	5.00	3.75	6.50	7.50	5.75	10.50	9.00	12.00	9.75	10.25	17.50	10.00	8.50	14.00	-0.071289	0.177734	1.136230	38.779999	83.440002	-17.010000	1560.00	0.11	-0.11
1.50	4.00	2.75	3.75	3.25	1.75	0.00	2.75	0.25	1.00	1.00	1.00	0.00	0.75	1.25	0.00	0.50	-3.042480	0.035645	0.414551	-32.689999	25.969999	35.560001	287.00	-0.13	0.03	4.00	2.25	4.00	3.25	5.75	6.50	5.25	9.50	8.25	11.25	9.00	10.00	16.00	9.50	8.25	14.25	-0.157715	0.114746	1.153809	44.869999	102.690002	-21.210001	1429.00	0.12	-0.11
1.51	4.00	3.00	3.75	3.75	2.00	0.00	2.75	0.00	0.75	0.50	0.75	0.00	1.00	1.00	0.25	0.50	-2.951172	0.185059	0.561523	-26.950001	41.790001	-12.460000	285.00	-0.15	0.02	1.00	0.75	1.25	2.50	4.75	5.50	4.75	9.00	8.25	11.50	9.00	10.00	15.75	10.75	9.25	15.00	-0.183594	0.155273	1.178711	59.430000	127.120003	-24.430000	1325.00	0.16	-0.11
1.52	4.25	2.00	3.50	3.50	2.00	0.00	2.75	0.00	1.00	0.75	1.00	0.00	0.50	1.00	0.00	0.50	-2.850586	0.282715	0.577148	-22.750000	52.220001	-60.760002	273.00	-0.13	0.04	2.00	0.50	1.50	1.25	3.00	5.50	4.00	8.25	8.25	11.75	9.25	10.25	16.75	11.75	9.50	16.00	-0.229492	0.189453	1.264160	81.900002	167.440002	-29.820000	1312.00	0.18	-0.12
1.53	4.50	3.00	4.00	3.50	2.25	0.00	2.75	0.25	1.00	0.75	1.25	0.00	1.00	1.50	0.00	0.25	-2.770020	0.524414	0.623047	-25.969999	64.330002	-104.580002	310.00	-0.13	0.02	1.00	0.50	1.25	1.00	2.50	5.25	3.75	8.25	8.25	11.50	9.00	9.75	15.50	12.00	10.00	16.50	-0.208984	0.229004	1.418945	123.970001	191.660004	-33.670002	1270.00	0.19	-0.12
1.54	3.00	1.00	2.50	1.50	1.75	0.00	2.75	0.25	1.00	0.75	1.00	0.00	0.75	1.00	0.00	0.25	0.239258	0.814941	1.192871	-69.930000	89.599998	-119.000000	215.00	-0.08	0.06	1.25	0.75	1.50	1.25	2.25	5.25	3.50	8.00	8.50	12.50	9.50	10.25	15.00	12.75	10.50	17.00	-0.246582	0.150391	1.375000	104.230003	206.080002	-36.330002	1307.00	0.19	-0.11
1.55	5.75	4.75	5.00	4.25	2.00	0.00	2.75	0.25	0.75	0.50	0.75	0.00	0.50	0.75	0.00	0.25	0.949219	1.250977	0.997070	-84.699997	68.879997	-112.419998	336.00	-0.20	0.01	1.75	1.00	1.50	1.25	2.00	4.75	3.25	7.50	8.00	11.50	8.75	9.25	14.00	13.50	11.00	17.75	-0.337891	0.245117	1.240234	96.529999	232.190002	-40.950001	1263.00	0.19	-0.11
1.56	6.00	5.00	4.75	3.50	1.75	0.00	2.75	0.00	0.00	0.25	0.25	0.00	0.00	0.75	0.00	0.25	0.000977	1.133789	0.208496	-44.869999	120.959999	-28.280001	299.00	-0.23	0.03	1.00	0.25	1.50	1.00	1.50	5.00	3.25	7.00	7.75	11.25	8.75	8.75	13.50	13.25	11.50	18.50	-0.316895	0.335449	1.483398	85.610001	265.929993	-47.389999	1223.00	0.20	-0.11
1.57	8.00	6.00	5.50	5.50	2.25	0.00	2.75	0.50	0.50	0.50	0.50	0.00	1.25	1.00	0.00	0.50	0.000977	1.133789	0.208496	-44.869999	120.959999	-28.280001	407.00	-0.21	-0.01	1.50	0.50	1.50	0.75	1.25	3.75	3.25	6.50	8.00	11.75	9.00	9.00	13.25	15.25	12.50	18.00	-0.303711	0.453613	1.471680	71.959999	297.500000	-56.910000	1242.00	0.21	-0.10
1.58	9.75	8.00	6.50	6.00	2.25	0.00	2.75	0.25	0.50	0.25	1.00	0.00	1.25	1.00	0.00	0.50	-0.283203	0.973633	0.986816	-11.480000	160.930008	17.850000	464.00	-0.23	-0.01	3.00	1.50	2.25	1.25	2.00	5.25	3.50	7.00	8.25	12.25	9.25	8.75	11.75	13.75	11.50	17.00	-0.351074	0.639648	1.693359	56.000000	325.149994	-72.730003	1287.00	0.18	-0.09
1.59	12.75	10.25	7.50	7.75	2.25	0.50	2.75	0.75	0.75	0.25	0.50	0.00	1.25	0.75	0.00	0.50	0.025391	-0.726074	0.524414	-29.960001	155.259995	32.759998	564.00	-0.25	-0.02	1.50	0.75	1.00	0.75	1.00	3.50	3.25	5.75	7.00	11.00	8.25	7.75	10.50	13.25	11.50	15.25	-0.594238	0.989746	1.605469	-3.080000	390.179993	-123.199997	1102.00	0.21	-0.09
1.60	17.50	13.75	8.50	9.00	2.25	0.50	2.75	0.50	0.50	0.75	0.50	0.00	1.25	1.25	0.00	0.50	-0.004883	-0.527344	0.271484	-46.060001	163.800003	0.140000	682.00	-0.27	-0.02	0.50	0.50	2.00	0.50	1.50	3.50	3.25	5.00	6.25	11.00	8.25	7.25	9.75	13.25	10.50	12.75	-0.483887	1.070312	2.288086	-28.980000	429.029999	-162.190002	1041.00	0.21	-0.08
1.61	22.25	17.00	10.00	10.50	2.75	1.00	2.75	0.50	0.75	0.50	0.50	0.00	0.50	1.00	0.00	0.25	-0.438965	0.039062	1.329590	-37.450001	198.940002	-28.490000	807.00	-0.29	-0.01	0.00	0.00	0.00	0.00	0.25	1.75	3.25	3.75	5.75	10.75	7.75	6.50	8.75	10.50	9.00	9.75	-0.499023	1.761719	2.162109	-57.820000	470.470001	-204.190002	849.00	0.24	-0.08
1.62	20.50	17.75	11.00	11.50	3.00	2.00	3.00	0.50	0.00	0.00	0.00	0.00	0.00	0.00	0.00	0.00	-0.870605	0.466797	4.145508	-30.940001	214.199997	-32.549999	800.00	-0.31	-0.02	2.25	0.00	0.25	0.00	0.50	0.75	3.25	2.50	5.25	10.00	7.75	6.50	8.00	9.25	7.50	7.50	-0.857910	1.924805	2.903809	-59.849998	511.769989	-258.019989	783.00	0.22	-0.06
1.63	18.25	15.50	10.50	11.00	3.25	2.00	3.00	0.75	0.00	0.00	0.00	0.00	0.00	0.25	0.00	0.00	-0.604492	0.192383	2.182617	-40.810001	102.480003	-14.490000	750.00	-0.30	-0.02	0.25	0.00	0.00	0.00	0.25	0.75	3.50	2.25	6.00	9.25	7.00	5.25	6.00	6.75	6.75	5.75	-1.539551	1.942871	2.859375	-76.370003	543.760010	-304.920013	672.00	0.24	-0.05
1.64	19.25	16.25	11.00	11.25	4.75	3.25	3.00	1.25	0.00	0.00	0.00	0.00	0.00	0.00	0.00	0.50	-0.127441	0.378418	0.927734	-57.470001	42.279999	-12.950000	819.00	-0.29	-0.03	1.50	1.50	1.50	1.25	0.75	2.00	3.75	1.75	5.25	7.75	4.75	3.75	5.00	5.75	5.50	4.00	-1.560059	1.940430	5.416016	-47.950001	547.890015	-326.339996	637.00	0.16	-0.04
1.65	19.25	16.25	11.50	11.50	5.75	4.25	3.25	2.25	0.25	0.25	0.00	0.00	0.00	0.25	0.00	0.00	-0.035156	0.140625	0.899902	-70.139999	51.520000	-13.160000	879.00	-0.28	-0.04	1.50	0.75	1.25	1.50	1.00	2.25	3.75	1.75	4.00	6.00	3.25	2.75	4.00	4.00	4.50	2.75	-1.132324	2.329102	4.936523	-43.189999	508.830017	-348.250000	524.00	0.14	-0.04
1.66	19.50	16.50	12.00	11.75	6.25	5.00	3.25	3.00	0.00	0.25	0.25	0.00	0.75	0.25	0.00	0.50	-0.162598	-0.341797	1.995117	-72.239998	47.389999	-10.500000	930.00	-0.27	-0.05	3.00	1.50	2.50	1.75	1.00	2.00	4.00	1.50	4.00	4.50	2.50	2.25	2.75	2.50	3.25	2.50	-0.010254	1.864258	5.034180	-47.880001	499.519989	-379.470001	491.00	0.08	-0.02
1.67	30.00	22.00	15.75	14.75	8.00	8.00	3.50	6.00	1.25	0.75	0.75	0.00	2.25	1.25	0.25	0.50	-0.281738	0.142090	1.332031	-56.630001	15.260000	-8.890000	1352.00	-0.25	-0.05	3.00	2.00	2.75	1.75	1.50	2.00	4.25	1.50	2.75	2.75	2.00	2.00	2.75	2.25	2.75	2.00	1.699707	2.437012	4.384766	-138.949997	444.220001	-402.850006	452.00	0.04	-0.02
1.68	29.75	21.75	16.00	15.00	8.50	8.00	3.50	6.50	1.25	1.00	1.00	0.25	3.00	1.25	0.25	0.75	-0.136719	0.182617	1.016602	-45.009998	5.040000	-6.510000	1384.00	-0.24	-0.06	3.25	1.75	2.75	2.00	1.25	2.00	4.00	1.50	2.75	3.00	2.00	1.75	2.00	2.00	2.50	2.00	-0.081055	12.257324	5.738281	-130.970001	268.380005	-303.170013	436.00	0.04	-0.02
1.69	29.75	22.00	16.25	15.00	8.75	8.25	3.75	6.75	1.25	1.25	0.75	0.00	3.25	1.25	0.00	0.50	-0.139160	0.121094	1.038086	-41.439999	11.270000	-4.410000	1399.00	-0.24	-0.06	3.25	1.75	2.50	1.75	1.25	2.00	4.00	1.25	2.75	2.75	2.00	1.50	2.00	1.75	2.50	1.75	3.763672	4.847656	7.442383	-34.160000	55.790001	-39.270000	416.00	0.04	-0.01
1.70	29.25	21.50	15.75	15.00	8.50	8.25	3.50	7.00	1.50	1.00	0.75	0.25	2.75	1.50	0.25	0.50	-0.135254	0.092773	1.077637	-28.490000	13.020000	-2.590000	1384.00	-0.24	-0.06	3.00	1.75	2.50	1.50	1.25	1.75	4.00	1.25	2.25	2.25	1.75	1.75	2.25	1.75	2.50	1.75	3.179199	2.326660	1.826172	-110.949997	-116.129997	175.000000	397.00	0.04	-0.02
1.71	28.75	21.00	15.50	14.75	8.50	8.50	3.50	7.00	1.50	1.00	1.00	0.00	3.00	1.25	0.25	0.50	-0.114746	0.121094	1.003418	-11.340000	13.790000	-1.330000	1370.00	-0.24	-0.06	3.00	1.50	2.50	1.50	1.25	1.75	4.25	1.25	2.50	2.50	1.75	1.75	2.25	1.75	2.00	1.50	3.413086	2.193359	1.738770	-71.820000	-135.869995	186.690002	398.00	0.04	-0.01
1.72	27.50	20.25	15.00	14.25	8.50	8.50	3.50	7.25	1.25	1.00	1.00	0.25	3.50	1.50	0.25	0.50	-0.094727	0.131348	0.911621	-4.270000	17.780001	-0.700000	1347.00	-0.23	-0.06	3.00	1.50	2.75	1.50	1.25	1.75	4.00	1.25	2.25	2.25	1.75	1.25	2.00	1.75	2.00	1.25	3.057129	1.636719	2.575195	15.470000	-200.970001	179.270004	381.00	0.03	-0.01
1.73	26.00	19.25	14.50	13.75	8.25	8.25	3.50	7.50	1.25	1.50	1.00	0.00	4.00	1.25	0.00	0.50	-0.110352	0.073242	1.029785	-18.129999	33.740002	-2.380000	1308.00	-0.23	-0.07	3.00	1.50	2.25	1.50	1.00	1.75	4.00	1.25	2.00	2.00	1.50	1.50	2.25	1.75	1.75	1.50	2.804199	0.776367	2.601562	54.459999	-288.540009	172.970001	366.00	0.03	-0.02
1.74	24.25	17.50	13.75	13.25	8.00	8.25	3.50	7.50	1.50	1.25	1.00	0.25	4.75	1.25	0.25	0.50	-0.125977	0.126953	0.966309	-14.560000	36.889999	-3.570000	1266.00	-0.21	-0.07	2.75	1.50	2.25	1.50	1.00	1.75	4.00	1.00	2.00	2.00	1.50	1.50	2.25	1.25	2.00	1.25	2.271973	0.432617	2.499512	32.900002	-369.110016	164.149994	356.00	0.03	-0.02
1.75	21.25	15.75	12.75	12.25	7.75	7.75	3.50	7.50	1.75	1.50	1.00	0.50	4.75	1.50	0.25	0.75	-0.082031	0.082031	0.887695	-21.070000	41.369999	-5.390000	1194.00	-0.20	-0.07	3.00	1.75	2.25	1.50	1.00	1.50	4.00	1.00	2.00	1.75	1.50	1.25	2.00	1.50	1.50	1.25	1.720215	0.399414	2.233887	9.800000	-433.790009	151.130005	347.00	0.01	-0.01
1.76	18.50	13.50	11.75	11.25	7.50	7.50	3.50	7.50	1.50	1.75	1.25	0.75	5.50	1.75	0.25	0.75	-0.116699	0.126465	0.980957	-36.400002	42.279999	-8.260000	1125.00	-0.18	-0.08	2.75	1.50	1.75	1.25	0.75	1.50	4.00	1.00	2.00	1.50	1.25	1.00	1.25	1.50	1.75	1.00	1.139648	0.264648	1.922363	15.330000	-475.929993	131.039993	315.00	0.02	0.01
1.77	15.75	11.25	10.50	10.00	7.00	6.75	3.50	7.50	2.50	2.00	1.25	0.75	5.75	1.50	0.25	0.75	-0.185547	0.088379	1.043457	-34.720001	36.889999	-9.940000	1043.00	-0.16	-0.08	2.50	1.50	1.50	1.25	1.00	1.50	4.00	0.75	1.75	1.50	1.25	1.00	1.25	1.00	1.25	0.50	0.623047	0.053223	1.711426	41.439999	-492.589996	108.220001	291.00	0.01	0.01
1.78	13.00	9.25	9.50	9.00	6.50	6.25	3.50	7.75	2.25	2.25	1.50	1.00	6.00	1.75	0.50	1.25	-0.178711	0.060547	0.992188	-15.890000	30.799999	-9.310000	975.00	-0.14	-0.09	1.75	0.75	1.25	0.75	0.50	1.00	4.00	0.50	1.50	1.50	1.00	0.75	0.50	0.75	0.75	0.50	0.253906	-0.107422	1.748047	64.959999	-491.820007	87.709999	226.00	0.03	0.05
1.79	9.75	7.75	8.50	8.00	6.00	5.50	3.50	7.50	2.50	2.50	1.75	1.25	6.50	2.25	0.50	1.25	-0.156738	0.098145	0.987793	-5.250000	28.630001	-8.680000	902.00	-0.11	-0.09	0.50	0.00	0.00	0.00	0.00	0.00	3.75	0.00	0.75	0.50	0.25	0.00	0.00	0.00	0.25	0.00	0.011230	-0.030273	1.988281	78.120003	-486.080017	75.389999	90.00	0.10	0.20
1.80	8.25	6.50	7.75	7.00	5.50	4.75	3.50	7.50	3.00	2.75	2.25	1.50	7.50	2.00	0.50	1.50	-0.185059	0.072266	0.990234	-0.140000	27.719999	-8.330000	863.00	-0.09	-0.10	0.00	0.00	0.00	0.00	0.00	0.00	3.75	0.00	0.00	0.00	0.00	0.00	0.00	0.00	0.00	0.00	-0.214844	0.078125	2.184570	84.419998	-484.049988	76.860001	62.00	0.08	0.24
1.81	7.00	5.50	7.00	6.00	5.00	4.50	3.50	7.50	3.25	3.00	2.50	2.00	8.25	2.50	0.75	2.00	-0.128418	0.100098	0.986328	5.810000	27.230000	-8.820000	842.00	-0.06	-0.10	0.00	0.00	0.00	0.00	0.00	0.00	3.75	0.00	0.00	0.00	0.00	0.00	0.00	0.00	0.00	0.00	-0.441406	0.190430	2.240723	90.090004	-482.860016	89.599998	62.00	0.08	0.24
1.82	6.00	4.50	6.25	5.50	4.50	0.00	3.25	5.75	1.50	2.25	2.00	1.50	7.75	0.75	0.00	1.50	-0.156250	0.133789	0.968750	11.130000	29.469999	-10.430000	635.00	-0.08	-0.10	0.00	0.00	0.00	0.00	0.00	0.00	3.75	0.00	0.00	0.00	0.00	0.00	0.00	0.00	0.00	0.00	-0.667480	0.304199	2.224609	96.879997	-474.880005	107.239998	62.00	0.08	0.24
1.83	2.25	1.00	3.50	2.25	2.50	0.25	3.00	5.75	2.00	2.75	2.50	2.50	9.25	2.50	1.25	3.25	-0.152832	0.121582	0.992676	16.520000	34.720001	-12.950000	545.00	0.05	-0.13	0.00	0.00	0.00	0.00	0.00	0.00	3.75	0.00	0.00	0.00	0.00	0.00	0.00	0.00	0.00	0.00	-0.933594	0.635254	2.351562	116.620003	-435.470001	135.869995	62.00	0.08	0.24
1.84	1.75	0.00	2.75	1.25	2.00	0.00	3.00	5.50	3.00	3.25	3.00	3.00	9.75	2.00	0.50	3.25	-0.170898	0.019043	1.062500	27.719999	44.450001	-16.799999	518.00	0.09	-0.13	0.00	0.00	0.00	0.00	0.00	0.00	3.50	0.00	0.00	0.00	0.00	0.00	0.00	0.00	0.00	0.00	-1.011230	0.844238	2.486328	122.849998	-411.809998	145.529999	58.00	0.08	0.24
1.85	1.50	0.25	2.25	0.50	1.75	0.00	3.00	5.75	3.75	4.25	3.75	3.75	9.50	3.25	1.00	4.50	-0.171387	0.112793	0.972168	41.720001	58.590000	-16.379999	565.00	0.12	-0.12	0.00	0.00	0.00	0.00	0.00	0.00	3.75	0.00	0.00	0.25	0.00	0.00	0.00	0.00	0.00	0.00	-1.075195	1.104492	2.754883	130.410004	-388.290009	155.610001	65.00	0.09	0.23
1.86	1.00	0.00	2.00	0.50	1.75	0.00	2.75	5.25	4.25	5.50	5.00	4.75	10.00	3.00	1.75	6.00	-0.215820	0.175293	1.000000	57.959999	65.870003	-19.250000	609.00	0.15	-0.12	0.00	0.00	0.00	0.00	0.00	0.00	3.50	0.00	0.00	0.00	0.00	0.00	0.00	0.00	0.00	0.00	-1.224609	1.327637	3.139648	141.539993	-370.790009	169.889999	58.00	0.08	0.24
1.87	2.00	0.00	1.50	0.75	1.25	0.00	2.75	5.50	5.00	7.25	7.00	6.75	11.25	5.00	2.75	7.75	-0.225098	0.168457	0.963867	74.620003	72.870003	-25.059999	744.00	0.17	-0.12	0.00	0.00	0.00	0.00	0.00	0.00	3.50	0.00	0.00	0.00	0.00	0.00	0.00	0.00	0.00	0.00	-1.554199	1.363281	3.439941	147.279999	-359.940002	190.820007	58.00	0.08	0.24
1.88	0.25	0.00	0.75	1.00	1.00	0.00	2.50	5.50	5.75	7.75	7.50	7.75	11.75	5.75	3.75	8.75	-0.229004	0.219238	0.959961	80.639999	84.699997	-32.830002	773.00	0.20	-0.12	0.00	0.00	0.00	0.00	0.00	0.00	3.50	0.00	0.00	0.25	0.00	0.00	0.00	0.00	0.00	0.00	-1.936523	1.175293	3.549805	149.869995	-352.239990	217.490005	60.00	0.09	0.23
1.89	1.50	0.50	1.50	1.75	1.25	0.50	2.50	6.75	7.75	8.50	8.50	9.00	13.75	8.00	6.25	10.75	-0.294434	0.188477	1.015137	76.440002	90.720001	-37.939999	984.00	0.18	-0.12	0.00	0.00	0.00	0.00	0.00	0.00	3.50	0.00	0.00	0.25	0.00	0.00	0.00	0.00	0.00	0.00	-2.416992	0.776367	3.591797	153.020004	-342.579987	247.240005	60.00	0.09	0.23
1.90	2.25	1.75	2.25	2.00	1.25	0.75	2.25	6.75	8.00	8.75	9.00	9.25	13.75	8.75	6.75	12.25	-0.271484	0.216309	1.011719	70.419998	101.570000	-43.400002	1052.00	0.17	-0.11	0.00	0.00	0.00	0.00	0.00	0.00	3.75	0.00	0.50	0.75	0.25	0.00	0.00	0.25	0.00	0.25	-3.233887	-0.856934	3.849121	99.610001	-292.040009	281.190002	84.00	0.13	0.20
1.91	0.50	0.00	0.25	0.25	0.50	0.00	2.00	6.25	8.00	9.25	9.50	10.00	14.75	10.25	8.00	13.75	-0.303711	0.291992	1.023438	62.580002	112.419998	-49.490002	1006.00	0.23	-0.12	0.75	0.00	0.50	0.00	0.25	0.25	3.75	0.00	1.00	0.50	0.00	0.00	0.00	0.00	0.25	0.00	-4.154297	-0.705078	2.635742	19.250000	-264.529999	302.540009	105.00	0.05	0.19
1.92	0.25	0.00	0.00	0.50	0.00	0.00	1.75	6.00	7.50	9.00	9.25	9.50	13.50	10.25	7.50	14.00	-0.357910	0.315430	1.035156	60.689999	124.949997	-56.840000	954.00	0.23	-0.12	0.25	0.25	0.25	0.00	0.25	0.50	3.75	0.00	0.75	0.75	0.25	0.00	0.00	0.25	0.25	0.00	-3.892578	0.234375	3.421875	41.930000	-277.690002	323.959991	106.00	0.08	0.16
1.93	0.25	0.00	0.25	0.25	0.00	0.00	1.75	6.00	8.00	9.25	9.50	9.75	13.50	11.25	8.25	14.75	-0.362305	0.336914	1.147949	55.930000	142.729996	-63.000000	992.00	0.24	-0.12	0.75	0.25	0.75	0.00	0.25	0.50	3.75	0.00	1.00	0.75	0.25	0.25	0.25	0.50	0.25	0.00	-4.974609	-0.405273	3.004395	69.019997	-325.360016	351.890015	129.00	0.06	0.14
1.94	2.25	1.50	1.25	2.25	0.75	1.25	1.75	7.25	9.25	10.50	10.25	10.75	14.75	13.50	9.50	16.25	-0.388184	0.395996	1.184570	53.619999	161.979996	-68.389999	1219.00	0.20	-0.11	1.00	0.50	0.75	0.25	0.50	0.50	3.75	0.50	1.00	1.00	0.25	0.25	0.50	0.50	0.50	0.00	-5.307129	-0.780273	0.937012	-10.080000	-320.739990	353.850006	157.00	0.04	0.08
1.95	1.25	0.00	1.00	2.25	0.75	0.75	1.75	6.75	9.00	10.50	10.50	10.75	14.50	14.25	9.75	16.00	-0.432617	0.339844	1.256348	54.110001	185.570007	-75.949997	1181.00	0.22	-0.11	1.25	0.50	1.00	0.25	0.50	0.75	3.75	0.50	1.25	1.00	0.50	0.25	0.50	0.50	0.75	0.25	-8.639160	0.288086	-0.770508	7.630000	-180.949997	136.639999	177.00	0.04	0.07
1.96	0.00	0.00	0.25	0.00	0.00	0.00	1.50	6.00	8.50	9.75	9.75	10.00	13.25	13.75	9.25	15.75	-0.395996	0.372559	1.325195	50.889999	209.509995	-84.840004	1039.00	0.25	-0.11	1.50	1.00	1.50	0.75	0.75	1.00	4.00	0.50	1.50	1.00	0.75	0.50	0.75	0.50	1.00	0.50	-8.279297	-0.887207	-0.794922	114.239998	-102.269997	12.250000	223.00	0.02	0.04
1.97	1.75	0.75	1.50	1.75	0.75	0.50	1.75	6.75	9.75	10.50	10.50	10.50	14.00	16.25	11.00	16.50	-0.430664	0.379883	1.305664	48.580002	238.559998	-95.410004	1230.00	0.22	-0.10	2.75	1.50	2.00	1.75	0.50	0.00	4.00	0.50	1.25	0.75	0.75	0.75	1.00	1.00	1.25	0.50	-10.468750	-2.272461	-0.287109	78.680000	-34.299999	-39.340000	251.00	-0.02	0.03
1.98	1.75	0.75	1.50	2.75	0.75	0.75	2.00	6.75	9.75	11.00	10.50	10.50	13.50	17.00	11.25	16.00	-0.407227	0.264160	1.510742	38.920002	273.489990	-105.559998	1257.00	0.21	-0.09	2.50	1.25	1.50	0.75	0.00	0.00	3.50	0.00	0.00	0.25	0.00	0.25	0.25	0.50	0.75	0.75	-5.270996	-2.485840	-2.999512	-40.740002	140.350006	-52.290001	152.00	-0.07	0.08
1.99	2.25	1.75	2.00	3.00	1.00	1.25	2.00	6.25	10.50	11.25	10.25	10.00	12.75	16.00	9.75	13.50	-0.445312	0.182129	1.643555	17.080000	318.079987	-110.739998	1239.00	0.19	-0.08	10.50	8.50	5.75	5.00	1.25	1.00	4.00	0.75	1.25	0.25	0.25	0.00	0.00	0.00	0.00	0.00	-2.574707	0.392578	1.763184	-104.580002	377.790009	-155.259995	463.00	-0.24	0.01
2.00	0.00	0.00	0.50	1.00	0.25	0.00	2.00	5.00	9.50	10.75	10.00	9.50	11.75	16.50	11.00	13.00	-0.502441	0.378906	1.583008	-7.000000	382.269989	-113.540001	1087.00	0.25	-0.08	15.00	14.00	5.75	8.00	1.25	0.75	3.75	0.75	0.75	0.25	0.25	0.75	2.00	0.75	1.00	1.00	0.059570	1.833984	3.603516	-95.269997	361.970001	-150.919998	643.00	-0.24	-0.03
2.01	1.75	0.75	1.75	2.50	0.50	0.75	2.25	5.00	10.00	11.50	10.25	9.25	11.25	16.25	11.00	11.25	-0.024902	0.320801	0.645508	-41.650002	453.040009	-120.820000	1161.00	0.21	-0.07	33.75	29.75	11.75	10.00	0.25	0.00	3.25	0.00	0.00	0.00	0.00	0.00	0.25	0.25	0.50	0.75	-1.193848	1.035645	3.834961	-136.779999	319.200012	-109.760002	1016.00	-0.34	-0.01
2.02	2.25	1.75	2.00	2.25	0.50	0.25	2.25	3.75	9.75	11.50	10.25	8.75	10.25	14.75	10.00	9.00	-1.433105	1.017090	2.875977	-53.970001	582.539978	-153.440002	1093.00	0.20	-0.06	38.75	33.00	14.75	13.75	1.50	1.25	3.75	1.25	1.00	0.00	0.50	0.75	1.75	1.00	1.00	0.75	-1.515625	0.987793	2.500977	-130.619995	404.390015	-58.730000	1301.00	-0.30	-0.02
2.03	2.00	1.25	1.25	2.25	0.75	0.25	2.25	2.50	9.00	10.75	9.75	8.25	9.50	12.25	8.50	7.00	-1.656250	1.014648	3.145996	-35.209999	614.599976	-173.809998	968.00	0.21	-0.05	43.00	36.50	16.75	15.25	1.50	2.25	3.50	1.25	0.00	0.00	0.50	0.50	0.75	0.00	0.50	0.00	-1.184082	-0.391602	5.715820	-43.470001	501.690002	-17.219999	1389.00	-0.33	-0.03
2.04	2.50	0.75	2.00	1.75	0.75	1.00	2.50	1.25	8.00	9.50	9.00	7.25	8.25	9.00	6.25	5.00	-2.453613	1.656738	4.232910	2.450000	631.190002	-186.059998	836.00	0.19	-0.04	37.25	28.00	18.75	16.75	5.00	5.25	4.00	2.50	0.00	0.00	0.00	0.25	0.50	0.00	0.00	0.00	-1.045898	-0.575195	4.367676	-74.480003	385.839996	-45.290001	1371.00	-0.30	-0.03
2.05	1.75	0.75	1.00	1.75	0.50	0.00	2.50	1.00	7.00	8.25	7.75	5.25	7.00	6.50	4.75	3.75	-2.656738	2.220703	5.384766	81.900002	650.159973	-175.139999	671.00	0.19	-0.04	37.00	30.50	19.25	18.75	6.50	9.00	4.25	5.75	0.00	0.00	0.00	0.00	2.25	0.00	0.25	0.50	-0.928223	1.003906	2.513672	-105.629997	240.029999	-63.139999	1563.00	-0.28	-0.06
2.06	2.00	1.50	1.50	2.25	0.50	0.50	2.50	0.50	6.00	7.00	6.25	4.00	5.75	5.25	2.75	2.25	-2.393066	1.712402	6.218262	185.430008	628.320007	-203.279999	575.00	0.15	-0.03	36.25	29.25	21.00	19.25	8.50	8.75	4.50	7.00	0.25	0.00	0.00	0.50	1.50	0.00	0.50	1.00	-0.611816	-0.219727	2.278809	-142.520004	70.349998	-6.790000	1624.00	-0.27	-0.06
2.07	2.00	0.50	1.75	1.75	0.50	0.25	2.75	0.50	5.00	5.25	4.75	2.25	3.50	3.50	1.50	2.00	-0.786133	1.438965	6.840820	202.580002	613.830017	-244.440002	439.00	0.14	0.00	38.75	27.75	21.50	18.75	9.50	9.00	4.75	8.00	1.25	0.75	0.50	1.25	4.25	0.75	1.25	1.25	-0.125977	-0.140137	1.208008	-97.650002	27.510000	-9.240000	1753.00	-0.24	-0.06
2.08	1.75	1.00	2.50	2.50	0.75	0.00	2.75	0.25	3.25	4.00	3.50	1.75	2.25	2.25	1.25	1.00	1.328125	1.203613	5.604492	113.889999	575.539978	-308.489990	363.00	0.08	0.01	42.25	32.50	24.25	22.00	11.25	11.25	5.00	8.25	1.50	0.50	1.00	1.50	4.50	1.00	1.00	1.00	-0.079102	0.265137	1.228027	-69.090004	21.629999	-7.420000	1979.00	-0.25	-0.06
2.09	2.75	2.00	2.50	2.25	1.00	0.75	3.00	0.00	2.50	3.00	2.25	1.00	1.50	2.00	1.00	1.25	2.101562	2.381836	6.848145	51.869999	415.660004	-307.019989	338.00	0.02	0.02	39.00	31.25	23.75	21.75	11.25	10.75	5.00	8.25	1.75	0.50	1.00	1.50	4.75	1.00	1.00	1.00	-0.145996	0.205566	1.181641	-35.980000	17.290001	-1.540000	1920.00	-0.24	-0.06
2.10	2.75	1.75	3.00	2.75	1.00	0.50	3.00	0.00	2.75	3.25	2.50	1.00	1.75	2.25	0.75	1.25	0.433594	4.510254	2.050781	90.510002	210.559998	-240.729996	355.00	0.02	0.02	39.00	30.75	23.25	21.00	11.00	11.00	5.00	8.50	1.50	0.75	0.75	1.50	5.00	1.00	1.25	1.00	-0.088867	0.047363	1.133789	-7.210000	13.650000	-0.350000	1906.00	-0.24	-0.06
2.11	2.75	1.75	2.00	2.25	1.00	0.25	3.00	0.00	3.00	3.25	2.75	0.50	1.25	1.75	0.75	1.00	2.888672	2.107422	4.610840	-2.170000	-38.220001	-89.879997	324.00	0.03	0.04	38.25	30.00	22.75	20.25	10.25	10.75	5.00	8.25	1.50	1.00	0.75	1.50	5.00	1.25	1.25	1.00	-0.067383	0.093750	1.062988	14.210000	13.930000	-1.400000	1864.00	-0.24	-0.06
2.12	2.50	1.50	2.00	2.50	0.75	0.75	3.00	0.00	2.50	3.00	2.50	0.50	1.00	1.75	0.25	0.50	1.519531	1.807129	2.567383	-112.770004	-107.870003	43.959999	301.00	0.01	0.03	36.75	28.50	20.25	19.50	9.50	10.25	4.75	8.25	1.50	0.50	0.75	1.25	4.75	1.00	1.25	1.00	-0.054199	0.185547	1.029785	26.950001	14.420000	-1.050000	1760.00	-0.24	-0.07
2.13	2.75	1.50	2.00	2.00	0.75	0.50	3.00	0.00	1.75	2.75	2.25	0.50	1.25	1.75	0.25	0.75	1.984863	1.758789	2.515625	-171.360001	-114.590004	117.389999	282.00	0.01	0.03	33.00	26.50	19.00	18.25	8.75	9.75	4.75	8.00	1.25	0.75	0.50	1.25	3.50	1.00	0.50	0.50	-0.025879	0.156738	0.994141	31.010000	15.120000	-0.840000	1621.00	-0.24	-0.06
2.14	2.25	2.00	2.25	2.25	1.00	0.50	3.00	0.00	1.75	2.25	2.00	0.00	1.25	1.75	0.50	1.00	1.970215	1.749512	2.712891	-161.350006	-152.039993	157.639999	281.00	-0.00	0.03	31.75	23.25	14.75	15.00	6.75	8.75	4.50	7.50	0.00	0.25	0.25	0.25	2.75	0.00	0.00	0.00	-0.049316	0.130371	1.000000	32.830002	17.500000	-1.820000	1372.00	-0.26	-0.07
2.15	2.50	2.00	2.50	2.00	1.00	0.75	3.00	0.00	1.75	2.50	2.00	0.25	1.25	1.75	0.25	0.75	1.720703	1.046875	2.868164	-114.309998	-238.770004	169.259995	288.00	-0.01	0.03	23.50	17.75	13.25	13.25	6.00	7.75	4.25	7.25	0.00	0.00	0.00	0.25	3.00	0.00	0.00	0.00	-0.034180	0.149414	0.919434	32.410000	19.389999	-3.360000	1151.00	-0.25	-0.08
2.16	2.25	1.50	2.25	2.75	1.00	0.25	3.00	0.00	2.00	2.25	2.00	0.50	1.50	1.75	0.25	0.75	1.071777	0.422852	2.148438	-87.080002	-395.850006	136.360001	286.00	0.00	0.02	19.50	14.75	11.25	11.50	5.25	7.75	4.00	7.25	0.00	0.00	0.00	0.25	3.00	0.00	0.00	0.00	0.017090	0.186523	0.865234	25.059999	24.430000	-4.550000	1017.00	-0.24	-0.08
2.17	2.50	1.50	2.25	3.00	1.00	0.25	3.00	0.00	1.75	2.00	1.75	0.00	1.25	1.75	0.25	0.50	1.071777	0.422852	2.148438	-87.080002	-395.850006	136.360001	273.00	-0.02	0.03	16.25	11.25	9.75	10.25	5.00	7.25	4.25	7.00	0.00	0.00	0.00	0.25	3.25	0.00	0.00	0.00	0.014648	0.229004	0.877930	10.850000	35.070000	-5.110000	905.00	-0.22	-0.09
2.18	2.75	2.25	2.25	2.50	1.00	0.25	3.00	0.25	1.50	2.00	1.75	0.00	1.50	1.50	0.25	0.50	0.469238	0.341797	1.711426	-79.029999	-479.850006	70.910004	278.00	-0.04	0.02	12.50	8.75	8.50	9.00	4.25	6.75	4.25	7.00	0.00	0.00	0.00	0.25	3.00	0.00	0.00	0.00	-0.016602	0.199219	1.000488	2.240000	40.740002	-5.670000	790.00	-0.20	-0.10
2.19	2.50	1.75	2.25	1.50	1.00	0.50	3.00	0.00	1.75	2.00	1.75	0.00	1.25	1.75	0.25	0.50	0.147949	0.324707	1.570312	-63.700001	-505.330017	35.000000	260.00	-0.01	0.05	9.50	6.75	7.25	7.50	3.75	6.00	4.25	6.75	0.00	0.00	0.00	0.25	2.75	0.00	0.00	0.00	-0.080566	0.151367	0.926758	-0.070000	41.439999	-7.280000	681.00	-0.19	-0.10
2.20	3.00	1.50	2.25	2.00	1.00	0.25	2.75	0.00	1.75	1.75	1.75	0.00	1.25	1.50	0.25	1.00	-0.141113	0.363770	1.481445	-45.360001	-521.710022	2.520000	260.00	-0.02	0.04	6.75	5.75	5.25	6.25	3.25	6.25	4.50	7.25	1.25	0.00	0.00	0.25	3.75	0.00	0.00	0.00	-0.044434	0.158203	0.884277	-8.820000	47.740002	-7.420000	638.00	-0.15	-0.11
2.21	2.50	1.75	2.25	2.50	1.00	0.50	3.00	0.00	1.75	2.00	1.75	0.00	1.25	1.75	0.00	0.50	-0.339844	0.474609	1.410645	-25.340000	-528.710022	-23.100000	269.00	-0.03	0.04	6.25	3.50	4.25	5.00	2.50	5.00	4.25	6.50	0.00	0.25	0.25	0.50	4.25	0.00	0.00	0.00	-0.099609	0.145996	0.855469	-24.290001	57.260002	-9.940000	537.00	-0.14	-0.13
2.22	2.75	2.00	2.00	2.75	1.00	0.75	3.00	0.00	1.25	1.75	1.25	0.00	1.25	1.50	0.25	0.50	-0.521973	0.637207	1.323242	0.420000	-526.820007	-38.849998	263.00	-0.05	0.02	5.25	2.75	3.00	4.00	2.00	4.25	4.25	6.50	0.25	0.75	0.50	0.75	5.25	0.00	0.00	0.25	-0.041992	0.115723	1.062012	-35.420002	60.410000	-12.530000	502.00	-0.10	-0.14
2.23	2.75	2.00	2.25	2.50	1.00	0.50	3.00	0.00	1.50	1.50	1.50	0.00	1.00	1.25	0.00	0.50	-0.678223	0.820312	1.330566	31.290001	-514.289978	-40.529999	256.00	-0.06	0.03	5.75	3.75	4.00	5.00	3.00	5.25	4.50	7.50	2.25	2.00	1.50	2.50	6.75	0.75	0.50	1.00	-0.128906	0.187500	1.204590	-15.330000	59.500000	-13.230000	692.00	-0.06	-0.12
2.24	3.00	0.75	2.00	2.75	1.00	0.25	3.00	0.00	1.50	1.50	1.50	0.00	1.25	1.25	0.00	0.50	-0.815918	0.888184	1.301758	60.410000	-495.880005	-26.950001	245.00	-0.04	0.04	4.00	1.75	1.50	2.50	2.00	3.25	4.25	7.00	0.75	1.25	0.75	1.75	8.25	0.50	0.25	2.50	-0.187500	0.129883	1.021484	3.150000	57.820000	-10.990000	514.00	-0.02	-0.16
2.25	2.50	2.25	2.00	3.25	1.00	0.50	3.00	0.00	1.50	1.75	1.25	0.00	1.25	1.50	0.00	0.75	-0.790039	0.916504	1.546387	87.150002	-477.470001	-7.140000	267.00	-0.05	0.02	5.25	3.00	3.00	3.75	2.50	4.50	4.50	7.75	2.75	3.00	2.25	3.75	10.50	2.50	2.50	4.25	-0.218750	0.009277	1.005371	18.200001	55.650002	-5.950000	776.00	0.02	-0.14
2.26	2.75	2.00	2.25	2.75	1.00	0.50	3.00	0.00	1.25	1.75	1.50	0.00	1.25	1.50	0.00	1.00	-0.770020	0.991211	1.916016	117.250000	-465.850006	19.110001	266.00	-0.05	0.02	5.00	2.75	2.25	3.50	2.50	4.50	4.50	7.75	2.75	3.50	3.00	6.00	11.50	2.75	2.50	7.00	-0.139648	0.082520	0.975098	27.299999	54.810001	-0.210000	827.00	0.04	-0.15
2.27	2.75	1.75	2.75	3.00	1.00	0.50	3.00	0.00	1.25	1.75	1.50	0.00	1.00	1.75	0.00	0.50	-0.728027	1.004883	2.468262	147.000000	-464.450012	54.320000	269.00	-0.06	0.03	4.75	2.25	2.00	3.00	2.50	4.50	4.50	8.00	3.25	4.00	4.25	7.50	12.75	3.25	3.75	8.75	-0.062988	0.192871	1.020996	29.610001	54.459999	1.820000	900.00	0.07	-0.15
2.28	2.50	1.75	2.25	2.50	1.00	0.50	3.00	0.00	1.50	1.50	1.50	0.00	1.00	1.25	0.00	0.50	-0.902832	1.198730	3.053223	162.259995	-474.529999	105.279999	250.00	-0.05	0.03	4.25	2.50	1.50	3.00	2.50	4.25	4.50	8.25	3.75	6.00	6.25	8.25	13.75	4.25	4.75	10.50	-0.107422	0.274414	0.949707	42.000000	50.400002	-6.860000	994.00	0.10	-0.15
2.29	3.00	2.00	2.25	2.50	1.00	0.25	3.00	0.00	1.75	1.75	1.50	0.00	1.00	1.50	0.25	0.25	-1.252441	1.268555	3.448730	157.779999	-492.660004	176.259995	266.00	-0.04	0.04	1.75	0.75	0.00	1.00	1.00	2.50	4.00	7.75	2.75	5.75	6.00	8.25	13.75	4.25	4.75	11.50	-0.096191	0.302734	0.974609	51.450001	49.279999	-19.530001	836.00	0.15	-0.17
2.30	2.75	2.50	2.25	2.50	1.00	0.25	3.00	0.00	1.50	1.25	1.25	0.00	1.25	1.75	0.00	0.50	-1.657715	1.141602	3.588379	149.660004	-506.380005	242.619995	259.00	-0.06	0.03	1.50	0.75	0.00	1.00	1.00	2.75	3.75	8.00	3.50	6.50	7.75	9.25	14.75	6.25	6.25	13.50	-0.174805	0.348633	1.004395	83.230003	59.010002	-44.939999	944.00	0.17	-0.16
2.31	2.75	2.00	2.50	3.00	1.00	0.50	2.75	0.00	1.00	1.50	1.25	0.00	1.25	1.50	0.00	0.50	-2.275391	1.038086	3.738770	172.690002	-506.450012	284.410004	255.00	-0.07	0.02	1.00	0.50	0.00	1.00	0.50	2.50	3.50	8.00	3.75	7.50	8.50	10.00	15.00	8.00	7.75	16.75	-0.192871	0.385254	1.013184	102.269997	71.610001	-59.010002	1010.00	0.19	-0.16
2.32	2.50	2.00	2.25	2.50	1.00	0.50	2.75	0.00	1.25	1.25	1.75	0.00	1.25	1.50	0.00	0.50	-3.062012	0.771973	4.028320	218.050003	-497.420013	304.220001	250.00	-0.05	0.02	3.50	1.75	0.00	2.00	0.50	3.25	3.25	8.25	5.75	8.00	9.25	11.00	16.25	8.75	8.75	17.50	-0.236328	0.400879	1.135254	113.470001	85.190002	-70.559998	1161.00	0.17	-0.15
2.33	2.50	1.75	2.25	3.00	1.00	0.25	2.75	0.00	1.25	1.75	1.50	0.25	1.00	1.25	0.00	0.50	-7.626953	-0.426758	2.422852	227.850006	-503.230011	328.230011	251.00	-0.05	0.02	1.50	0.25	0.00	0.75	0.25	3.50	3.00	8.25	5.75	8.25	9.75	11.50	16.50	9.75	9.50	19.00	-0.250000	0.377441	1.177734	114.379997	102.620003	-80.639999	1148.00	0.20	-0.15
2.34	2.75	1.75	2.25	2.50	1.00	0.00	3.00	0.00	1.25	1.25	1.50	0.00	1.00	1.50	0.00	0.50	-4.879395	-1.319824	2.790527	140.910004	-437.640015	334.179993	243.00	-0.05	0.04	1.00	0.00	0.00	0.00	0.25	3.25	2.75	8.25	5.75	9.00	10.25	11.75	17.00	10.75	10.50	20.00	-0.325195	0.441406	1.229980	99.330002	129.009995	-88.410004	1172.00	0.21	-0.15
2.35	2.75	1.75	2.25	2.50	1.00	0.25	3.00	0.00	1.25	1.25	1.50	0.00	1.50	1.75	0.00	0.25	-6.867188	-0.165039	3.311523	14.280000	-399.980011	332.079987	252.00	-0.05	0.03	0.75	0.25	0.00	0.50	0.00	3.25	2.50	8.25	5.50	8.50	10.25	11.75	16.75	11.25	11.25	21.00	-0.394043	0.561035	1.369141	103.320000	162.680008	-99.050003	1178.00	0.22	-0.16
2.36	2.50	1.75	2.25	2.25	1.00	0.25	2.75	0.00	1.00	1.25	1.25	0.25	1.75	1.25	0.00	0.50	-7.451172	0.135254	1.085449	-112.419998	-362.880005	297.290009	237.00	-0.05	0.01	0.00	0.00	0.00	1.75	0.50	5.00	2.75	8.75	6.75	9.25	11.00	13.00	18.25	14.25	13.75	23.75	-0.347168	0.503906	1.476562	123.410004	192.710007	-112.559998	1358.00	0.22	-0.15
2.37	2.25	2.00	2.50	1.75	1.00	0.25	2.75	0.25	0.75	1.00	1.50	0.00	1.75	1.75	0.25	0.50	-9.196289	1.727051	-0.648926	-211.050003	-298.269989	169.470001	239.00	-0.04	0.01	0.25	0.25	0.00	0.75	0.00	3.75	2.75	8.00	5.50	8.25	10.25	11.75	16.50	12.50	12.25	22.25	-0.307129	0.385742	1.486328	130.759995	223.440002	-123.340004	1207.00	0.22	-0.15
2.38	2.75	1.75	2.50	2.50	1.00	0.25	2.75	0.25	1.25	1.25	1.25	0.00	1.50	1.25	0.00	0.50	-10.296875	2.878418	-1.664062	-63.209999	-210.559998	-14.840000	249.00	-0.06	0.02	1.25	0.50	0.00	0.50	0.00	3.50	2.75	7.75	5.25	8.25	10.00	11.25	15.25	12.75	12.50	22.50	-0.309570	0.278809	1.491211	129.779999	264.670013	-130.410004	1193.00	0.22	-0.15
2.39	2.50	2.00	2.25	2.25	1.25	0.25	2.75	0.00	1.25	1.25	1.50	0.00	1.25	1.25	0.25	0.50	-8.921875	1.047852	-1.300293	222.880005	-92.680000	-129.850006	245.00	-0.05	0.03	0.50	0.00	0.00	0.50	0.00	3.50	3.00	7.75	5.25	8.25	9.75	11.25	15.50	12.75	13.25	22.25	-0.325684	0.171387	1.760742	113.820000	318.850006	-131.250000	1191.00	0.23	-0.15
2.40	3.75	2.50	2.50	2.50	1.50	0.00	2.75	0.75	0.75	0.75	1.25	0.00	1.25	1.50	0.00	0.25	-12.105469	-3.460938	-1.426270	243.669998	10.010000	-114.590004	265.00	-0.10	0.01	0.50	0.25	0.00	0.50	0.00	3.25	3.00	7.50	5.00	8.25	9.75	10.75	14.50	12.25	13.50	21.25	-0.287109	0.450684	1.893066	90.090004	379.470001	-131.039993	1159.00	0.23	-0.14
2.41	5.25	3.75	3.75	3.75	1.50	0.50	2.75	0.25	1.00	0.50	1.00	0.00	1.50	1.50	0.00	0.00	-1.051270	-0.052246	0.841309	-93.099998	294.630005	11.130000	321.00	-0.15	0.01	1.25	1.25	0.00	0.75	0.25	2.75	3.25	7.75	5.00	8.25	9.75	10.25	13.75	11.00	13.00	20.00	-0.402832	0.889648	2.020020	79.029999	448.839996	-141.050003	1149.00	0.21	-0.14
2.42	12.50	9.00	6.75	5.75	1.50	0.25	2.75	0.75	1.00	0.50	0.75	0.00	1.25	1.00	0.00	0.25	-1.002441	1.533203	2.466309	-175.699997	397.739990	20.160000	513.00	-0.24	-0.00	0.25	0.25	0.00	0.00	0.00	2.00	3.25	6.50	5.50	8.25	9.50	9.75	13.00	9.25	12.00	17.25	-0.671387	1.186523	2.439453	73.779999	523.250000	-169.259995	1033.00	0.23	-0.13
2.43	19.00	14.75	7.50	8.00	1.25	0.50	2.50	0.75	1.00	0.75	0.75	0.00	1.25	1.00	0.00	0.25	0.191406	0.063477	1.888184	-209.300003	284.549988	82.250000	679.00	-0.27	-0.02	0.25	0.00	0.00	0.00	0.00	1.50	3.25	5.25	2.75	7.25	8.75	8.75	11.50	7.00	9.50	13.00	-1.404297	2.552246	3.950195	94.010002	655.270020	-256.410004	844.00	0.23	-0.15
2.44	24.50	18.75	9.00	9.00	1.00	0.25	2.50	0.50	0.75	0.50	0.75	0.00	1.75	1.50	0.00	0.75	-0.730469	-0.399902	0.612305	-179.479996	289.589996	100.239998	808.00	-0.29	-0.02	1.75	0.25	0.00	0.00	0.00	0.25	3.25	2.75	2.25	5.50	7.50	7.50	9.75	5.25	6.75	8.50	-2.060547	2.978027	5.900879	142.449997	681.380005	-280.279999	660.00	0.21	-0.13
2.45	26.75	20.50	9.75	10.00	1.25	1.00	2.50	1.00	0.75	0.50	0.75	0.25	1.50	1.25	0.25	0.25	-0.860840	-1.439941	2.271973	-77.209999	400.190002	96.250000	891.00	-0.29	-0.02	0.00	0.00	0.00	0.00	0.00	0.25	3.25	1.00	1.50	3.00	4.25	5.00	7.25	3.25	4.75	5.75	-1.610352	1.917480	6.292480	198.100006	652.539978	-296.170013	422.00	0.23	-0.12
2.46	29.25	22.25	12.00	11.75	1.75	2.75	2.75	1.25	0.75	0.75	1.00	0.00	1.75	1.25	0.00	0.25	-1.531250	-2.016113	3.256836	24.570000	413.489990	49.700001	1022.00	-0.29	-0.03	0.00	0.00	0.00	0.00	0.00	0.00	3.25	0.25	0.25	1.25	1.50	2.75	4.75	0.75	2.50	3.25	-0.928223	1.827148	6.187988	168.559998	578.059998	-336.700012	224.00	0.21	-0.12
2.47	29.75	23.25	13.50	13.50	2.50	5.00	2.75	2.00	1.00	0.25	0.75	0.00	1.50	1.50	0.00	0.25	-0.690918	-0.844238	3.062988	71.750000	346.290009	-41.369999	1121.00	-0.28	-0.04	0.00	0.00	0.00	0.00	0.00	0.00	3.25	0.00	0.00	0.50	0.75	2.00	3.00	0.00	1.00	1.25	0.685059	1.824707	5.089844	108.150002	505.820007	-379.329987	138.00	0.18	-0.08
2.48	30.50	23.50	14.50	14.50	4.50	7.75	3.00	4.00	1.00	0.25	0.75	0.00	2.50	0.75	0.00	0.50	-0.572754	1.752930	2.127441	15.260000	227.779999	-33.180000	1254.00	-0.27	-0.05	0.00	0.00	0.00	0.00	0.00	0.00	3.75	0.25	0.00	0.00	0.25	0.50	0.25	0.00	0.50	0.75	3.725098	3.195312	5.199219	79.029999	414.610016	-389.480011	87.00	0.13	0.10
2.49	27.50	20.50	14.50	13.50	4.75	8.50	3.00	5.75	0.00	0.00	0.00	0.00	0.75	0.00	0.00	0.50	-0.645996	0.491699	2.034180	-53.830002	175.350006	0.070000	1170.00	-0.28	-0.06	0.25	0.25	0.00	0.00	0.00	0.00	3.75	0.00	0.00	0.25	0.50	0.25	0.00	0.00	0.25	0.25	2.422852	3.732910	5.072266	109.410004	230.720001	-446.809998	83.00	0.09	0.15
2.50	19.75	17.25	13.00	14.75	5.50	9.25	3.25	7.25	0.75	0.50	1.00	0.50	3.25	1.25	0.00	0.25	-0.264160	-0.163574	1.830566	-63.770000	109.410004	-6.300000	1160.00	-0.22	-0.09	0.00	0.00	0.00	0.00	0.00	0.00	3.75	0.00	0.00	0.25	0.25	0.25	0.00	0.00	0.00	0.00	4.056152	3.720215	5.857422	72.309998	-57.680000	-342.649994	70.00	0.10	0.20
2.51	27.75	21.50	14.75	14.50	5.75	9.75	3.25	7.50	0.00	0.00	0.00	0.00	1.25	0.00	0.00	0.00	-0.259766	0.265625	1.326660	-39.340000	59.709999	-12.950000	1259.00	-0.27	-0.07	0.00	0.00	0.00	0.00	0.00	0.00	3.75	0.00	0.00	0.25	0.00	0.00	0.00	0.00	0.00	0.00	3.238770	1.599609	3.340820	-36.540001	-211.750000	-164.360001	65.00	0.09	0.23
2.52	18.75	15.75	11.25	12.50	5.75	9.75	3.25	7.75	0.25	0.00	0.50	0.00	1.50	0.00	0.00	0.00	-0.263672	0.391113	1.141113	-33.250000	37.099998	-8.610000	1049.00	-0.24	-0.09	0.50	0.25	0.00	0.00	0.00	0.00	3.75	0.00	0.00	0.00	0.00	0.25	0.00	0.00	0.00	0.00	2.967773	2.049805	2.537598	-188.789993	-237.440002	-70.070000	73.00	0.03	0.20
2.53	18.25	18.50	12.75	13.50	6.00	10.00	3.25	8.25	0.50	0.75	0.25	0.00	2.25	0.75	0.00	0.00	-0.136719	0.307129	1.064453	-41.930000	29.680000	-5.880000	1139.00	-0.23	-0.09	0.50	0.00	0.00	0.00	0.00	0.00	3.75	0.00	0.00	0.00	0.00	0.00	0.00	0.00	0.00	0.00	2.955078	3.026855	2.366211	-223.300003	-259.630005	8.540000	67.00	0.04	0.23
2.54	17.00	15.00	10.75	11.25	5.00	8.50	3.25	7.50	0.00	0.00	0.25	0.00	2.00	0.00	0.00	0.00	-0.116211	0.059082	1.023438	-42.630001	28.770000	-6.650000	971.00	-0.24	-0.09	0.75	0.25	0.00	0.25	0.00	0.00	3.75	0.00	0.00	0.00	0.00	0.00	0.00	0.00	0.00	0.00	2.834961	2.241211	2.365723	-147.419998	-313.529999	56.209999	76.00	-0.00	0.20
2.55	19.25	14.75	11.00	10.75	5.25	8.25	3.25	7.75	1.00	0.50	1.00	0.75	4.75	1.25	0.00	0.50	-0.099121	0.131348	0.980957	-36.750000	27.860001	-8.540000	1073.00	-0.20	-0.09	0.75	0.25	0.00	0.00	0.00	0.00	3.75	0.00	0.00	0.00	0.00	0.00	0.00	0.00	0.00	0.00	1.843262	0.334473	2.226074	-64.750000	-418.670013	80.849998	73.00	0.01	0.21
2.56	17.00	14.75	11.75	10.50	5.25	8.25	3.00	7.75	0.00	0.25	0.25	0.00	2.50	0.00	0.00	0.00	-0.086914	0.186523	0.928711	-38.080002	32.619999	-8.120000	979.00	-0.23	-0.09	1.00	0.25	0.00	0.00	0.00	0.00	3.75	0.00	0.00	0.00	0.00	0.00	0.00	0.00	0.00	0.00	1.433594	0.212891	2.129883	-75.669998	-458.500000	65.449997	76.00	-0.01	0.21
2.57	16.50	14.50	10.00	9.75	5.75	8.25	3.25	8.00	0.25	0.50	0.50	0.00	2.75	0.25	0.00	0.00	-0.111816	0.135254	0.951172	-45.220001	40.950001	-7.000000	969.00	-0.22	-0.09	0.75	0.00	0.00	0.00	0.00	0.00	3.75	0.00	0.00	0.00	0.00	0.00	0.00	0.00	0.00	0.00	1.022461	0.128418	1.925781	-54.250000	-489.580017	38.220001	70.00	0.02	0.23
2.58	18.00	13.75	11.00	11.50	6.25	9.25	3.50	8.50	1.50	1.25	1.50	0.75	5.50	1.25	0.25	0.75	-0.103516	0.068359	1.020020	-52.290001	45.500000	-7.560000	1131.00	-0.18	-0.10	0.75	0.00	0.00	0.00	0.00	0.00	3.75	0.00	0.00	0.00	0.00	0.00	0.00	0.00	0.00	0.00	0.633789	-0.063477	1.748535	-8.120000	-504.279999	9.240000	70.00	0.02	0.23
2.59	16.75	12.00	10.25	10.50	6.00	8.75	3.50	8.50	1.25	1.75	1.25	1.00	6.00	1.50	0.00	0.50	-0.090332	0.071777	0.960938	-53.340000	44.590000	-9.170000	1074.00	-0.17	-0.10	0.75	0.00	0.00	0.00	0.00	0.00	3.75	0.00	0.00	0.00	0.00	0.00	0.00	0.00	0.00	0.00	0.326172	-0.217773	1.700195	32.270000	-503.160004	-13.650000	70.00	0.02	0.23
2.60	14.00	10.00	9.50	9.50	6.00	8.50	3.50	8.75	2.00	1.75	1.75	1.25	6.50	1.25	0.25	0.75	-0.096680	0.122070	0.980469	-52.990002	41.369999	-9.940000	1028.00	-0.15	-0.10	0.75	0.00	0.00	0.00	0.00	0.00	3.75	0.00	0.00	0.00	0.00	0.00	0.00	0.00	0.00	0.00	0.033203	-0.172852	1.841797	58.730000	-496.299988	-28.280001	70.00	0.02	0.23
2.61	11.50	8.50	8.50	8.50	5.75	8.00	3.50	8.75	2.25	2.00	1.75	1.75	7.75	1.50	0.50	1.00	-0.134277	0.097168	0.994629	-44.380001	35.490002	-8.610000	983.00	-0.12	-0.11	1.25	0.00	0.00	0.25	0.00	0.00	3.75	0.00	0.00	0.00	0.00	0.00	0.00	0.00	0.00	0.00	-0.151367	-0.022949	1.964844	81.199997	-490.279999	-31.920000	79.00	-0.02	0.20
2.62	9.25	7.00	7.50	7.75	5.50	7.50	3.50	9.00	2.25	2.50	2.25	2.00	8.75	1.75	0.50	0.75	-0.139648	0.080566	0.974121	-9.590000	26.110001	-9.380000	941.00	-0.10	-0.12	0.75	0.00	0.00	0.00	0.00	0.00	4.00	0.00	0.00	0.00	0.00	0.00	0.00	0.00	0.00	0.00	-0.298340	0.164062	2.297852	107.660004	-486.429993	-24.570000	74.00	0.03	0.23
2.63	5.50	3.25	5.00	4.50	3.50	4.75	3.25	8.00	0.75	1.25	1.50	1.50	8.25	0.50	0.00	0.50	-0.147949	0.142090	0.990234	-1.190000	27.650000	-9.660000	640.00	-0.08	-0.15	0.75	0.00	0.00	0.00	0.00	0.00	4.00	0.00	0.00	0.00	0.00	0.00	0.00	0.00	0.00	0.00	-0.375488	0.228027	2.324707	127.610001	-484.330017	3.990000	74.00	0.03	0.23
2.64	3.75	2.00	3.75	2.75	3.00	4.00	3.25	8.00	1.50	1.50	2.50	3.50	9.00	0.50	0.00	1.25	-0.145996	0.096680	0.991699	9.030000	31.639999	-11.550000	616.00	-0.02	-0.16	0.50	0.00	0.00	0.00	0.00	0.00	3.75	0.00	0.00	0.00	0.00	0.00	0.00	0.00	0.00	0.00	-0.462402	0.303223	2.467285	131.389999	-478.869995	47.250000	67.00	0.04	0.23
2.65	3.25	1.25	2.75	2.25	2.50	4.00	3.00	8.50	2.25	2.50	2.50	3.50	10.00	0.75	0.25	2.25	-0.100098	0.013184	1.083984	18.900000	39.689999	-14.840000	625.00	0.01	-0.17	0.50	0.00	0.00	0.00	0.00	0.00	3.75	0.00	0.00	0.00	0.00	0.00	0.00	0.00	0.00	0.00	-0.602051	0.454102	2.567871	129.220001	-465.920013	93.169998	67.00	0.04	0.23
2.66	1.50	0.50	1.50	1.50	2.00	4.00	3.00	8.75	3.00	3.25	5.75	6.25	11.00	2.25	0.25	4.00	-0.163086	0.120117	1.057129	41.860001	57.680000	-18.620001	694.00	0.08	-0.18	0.75	0.00	0.00	0.00	0.00	0.00	3.75	0.00	0.00	0.00	0.00	0.00	0.00	0.00	0.00	0.00	-1.025879	0.641113	3.005859	130.270004	-423.640015	154.630005	70.00	0.02	0.23
2.67	1.25	0.00	1.75	0.75	1.50	1.00	3.00	8.00	2.75	3.75	6.00	7.75	12.50	2.25	0.75	5.75	-0.121582	0.166504	1.033691	65.519997	78.470001	-21.490000	679.00	0.12	-0.18	0.25	0.00	0.00	0.00	0.00	0.00	3.75	0.00	0.00	0.00	0.00	0.00	0.00	0.00	0.00	0.00	-1.322754	0.933105	3.492188	136.500000	-407.470001	169.889999	65.00	0.06	0.24
2.68	1.00	0.00	1.75	2.00	1.25	1.00	2.75	7.75	3.50	4.50	7.50	8.00	12.75	4.25	3.00	7.75	-0.167969	0.233887	1.095215	89.250000	97.300003	-24.500000	777.00	0.14	-0.17	0.25	0.00	0.00	0.00	0.00	0.00	3.75	0.00	0.00	0.00	0.00	0.00	0.00	0.00	0.00	0.00	-1.743164	1.129395	4.051270	145.529999	-405.160004	191.029999	65.00	0.06	0.24
2.69	3.25	2.00	3.25	3.00	1.75	3.25	2.75	8.25	5.25	7.50	8.00	9.00	14.00	6.75	4.25	9.00	-0.208008	0.196289	1.073730	109.340004	112.070000	-30.520000	1027.00	0.12	-0.14	0.25	0.00	0.00	0.00	0.00	0.00	3.50	0.00	0.00	0.00	0.00	0.00	0.00	0.00	0.00	0.00	-2.234863	1.069336	4.364746	146.369995	-419.019989	227.149994	60.00	0.06	0.24
2.70	3.25	2.50	3.25	3.25	1.75	2.50	2.75	8.25	6.75	7.75	8.75	9.50	14.25	7.75	5.50	10.50	-0.255859	0.299805	1.129883	104.440002	127.610001	-38.220001	1100.00	0.13	-0.13	0.25	0.00	0.00	0.00	0.00	0.00	3.75	0.00	0.00	0.00	0.00	0.00	0.00	0.00	0.00	0.00	-2.880371	0.903809	4.308105	136.360001	-436.589996	274.679993	65.00	0.06	0.24
2.71	2.50	1.75	2.75	2.75	1.50	2.25	2.25	7.75	7.25	8.00	9.00	9.75	14.25	8.75	6.50	11.50	-0.243164	0.290527	1.085938	89.459999	147.210007	-49.560001	1092.00	0.15	-0.13	0.25	0.25	0.00	0.00	0.00	0.00	3.75	0.00	0.00	0.00	0.00	0.00	0.00	0.00	0.00	0.00	-3.614746	0.698730	3.843750	118.790001	-441.839996	325.220001	67.00	0.04	0.22
2.72	2.75	1.50	2.50	2.75	1.00	2.00	2.00	7.50	7.25	8.25	9.25	9.75	14.00	10.00	7.25	12.25	-0.318359	0.337402	1.041016	70.699997	162.680008	-58.029999	1100.00	0.16	-0.12	0.25	0.00	0.00	0.00	0.00	0.00	3.75	0.00	0.00	0.00	0.00	0.00	0.00	0.00	0.00	0.00	-4.325195	0.611816	3.218262	92.889999	-429.309998	372.890015	65.00	0.06	0.24
2.73	2.25	1.50	2.25	2.75	1.00	1.75	2.00	7.00	8.00	8.50	9.75	10.25	14.25	11.50	8.00	13.25	-0.388672	0.543457	1.155762	65.660004	180.949997	-69.440002	1136.00	0.17	-0.12	0.25	0.00	0.00	0.00	0.25	0.75	4.25	0.75	1.50	1.00	0.75	0.50	1.25	1.00	0.75	0.75	-4.900391	0.618652	2.774414	68.879997	-401.309998	411.600006	178.00	0.14	0.05
2.74	2.50	1.75	2.25	2.50	1.00	1.75	2.00	7.00	8.00	8.75	10.00	10.25	14.00	13.00	8.25	13.75	-0.409180	0.488281	1.218262	60.060001	200.199997	-83.370003	1161.00	0.18	-0.11	0.75	0.00	0.00	0.00	0.25	0.00	3.75	0.00	0.00	0.00	0.00	0.00	0.00	0.00	0.00	0.00	-5.514648	0.615234	2.183594	48.160000	-370.649994	437.290009	73.00	0.02	0.22
2.75	2.50	1.25	2.25	2.75	1.00	1.50	2.00	6.50	8.50	9.00	10.00	10.25	13.75	13.75	9.25	14.00	-0.422852	0.319336	1.174316	61.950001	217.000000	-96.949997	1175.00	0.19	-0.10	0.00	0.00	0.00	0.00	0.00	0.00	3.75	0.00	0.00	0.00	0.00	0.00	0.00	0.00	0.00	0.00	-5.892578	0.572266	0.900879	25.340000	-326.549988	439.950012	62.00	0.08	0.24
2.76	2.25	0.00	2.00	2.50	1.00	1.25	2.00	6.25	9.00	9.25	10.00	10.25	13.50	14.25	9.50	14.00	-0.373047	0.226074	1.244141	59.709999	237.160004	-104.580002	1162.00	0.20	-0.10	0.00	0.00	0.00	0.00	0.25	0.00	3.75	0.00	0.00	0.00	0.00	0.00	0.00	0.00	0.00	0.00	-8.202637	0.779297	0.034668	66.989998	-278.179993	356.299988	65.00	0.07	0.23
2.77	2.75	1.25	2.50	2.75	1.25	1.25	2.00	6.25	9.25	9.50	10.00	10.00	12.75	14.75	10.00	13.50	-0.421875	0.188965	1.460449	28.700001	298.619995	-111.370003	1196.00	0.19	-0.09	0.75	0.00	0.25	1.25	1.00	1.00	4.00	0.75	0.50	0.00	0.00	0.00	0.00	0.00	0.00	0.00	-9.724121	-0.021484	-0.482422	206.779999	-234.779999	194.669998	136.00	-0.04	0.06
2.78	2.75	1.75	2.25	2.25	1.00	1.00	2.00	5.50	9.75	10.00	10.25	9.75	12.25	15.50	10.00	12.75	-0.459961	0.297363	1.518066	2.030000	350.559998	-113.120003	1184.00	0.19	-0.08	0.25	0.00	0.00	0.00	0.00	0.00	3.75	0.00	0.00	0.00	0.00	0.00	0.00	0.00	0.00	0.00	-9.394531	-1.860840	-0.974609	258.720001	-150.009995	43.959999	65.00	0.06	0.24
2.79	3.00	2.25	1.50	2.50	1.00	1.00	2.25	5.25	9.75	10.25	10.25	9.50	11.50	15.25	10.00	11.75	-0.370117	0.541992	3.103516	-37.730000	409.570007	-120.959999	1171.00	0.19	-0.08	2.00	1.25	0.00	0.00	0.75	0.00	3.75	0.00	0.00	0.00	0.00	0.00	0.00	0.00	0.00	0.00	-6.070312	-1.373047	0.629395	63.560001	91.070000	-41.020000	106.00	-0.10	0.15
2.80	2.50	1.25	2.00	2.25	0.75	0.75	2.25	5.00	9.75	10.25	10.25	9.25	11.00	15.00	10.25	10.25	-0.134766	0.388184	1.678711	-54.459999	486.779999	-134.960007	1132.00	0.20	-0.07	0.00	1.00	0.50	1.00	1.50	0.00	3.75	0.50	0.50	0.00	0.00	0.00	0.00	0.00	0.00	0.00	3.654785	-1.583008	-2.312988	100.169998	272.019989	-102.059998	123.00	-0.04	0.09
2.81	2.25	1.25	2.00	2.75	0.75	0.75	2.25	3.50	9.75	10.50	10.00	8.75	10.00	14.00	9.50	8.50	-1.170898	0.846191	2.804199	-48.020000	543.900024	-143.570007	1067.00	0.20	-0.06	13.75	9.50	5.50	5.50	1.50	0.50	3.75	1.00	1.00	0.25	0.50	0.75	1.25	0.75	1.00	0.75	0.151367	-0.252930	2.042480	-26.320000	385.910004	-173.110001	553.00	-0.22	-0.01
2.82	1.50	1.50	1.25	2.25	0.50	0.25	2.25	2.00	9.00	10.25	9.75	8.00	9.25	12.00	8.25	6.75	-2.123047	1.359863	1.710449	-31.710001	575.330017	-165.130005	936.00	0.21	-0.05	28.75	25.25	9.00	7.00	0.25	0.50	3.75	0.25	0.00	0.00	0.00	0.00	0.25	0.25	0.00	0.00	0.590820	2.628418	0.731445	-118.020004	355.950012	-120.120003	853.00	-0.33	-0.01
2.83	2.00	1.25	1.75	2.25	0.75	1.00	2.50	1.75	8.25	9.25	9.25	7.50	8.25	9.25	6.75	5.25	-1.600098	1.385254	3.053223	-14.280000	604.099976	-187.809998	863.00	0.19	-0.05	40.25	29.75	10.50	11.50	0.25	0.00	3.50	0.50	0.00	0.00	0.00	0.00	0.00	0.00	0.00	0.00	-1.785645	1.759766	1.356934	-90.790001	465.920013	-38.009998	1090.00	-0.35	-0.01
2.84	2.00	1.50	2.00	2.25	0.75	0.75	2.50	1.25	7.50	8.25	8.25	6.00	7.25	6.75	5.00	3.00	-2.668945	2.400879	3.353516	48.299999	632.940002	-190.680008	740.00	0.17	-0.04	37.50	33.50	13.75	16.50	1.25	3.25	3.50	2.00	0.00	0.00	0.00	0.50	0.50	0.25	0.25	0.00	-0.566895	-0.369141	3.980957	-22.469999	623.630005	-11.270000	1288.00	-0.32	-0.04
2.85	2.25	1.00	1.50	2.50	0.75	1.00	2.50	0.50	6.50	7.25	6.75	5.00	6.00	5.25	2.75	2.25	-2.427246	2.154785	4.936523	160.300003	642.460022	-195.649994	615.00	0.15	-0.03	37.50	36.00	17.25	23.25	5.25	9.00	4.00	6.00	0.00	0.00	0.00	0.50	1.50	0.00	0.25	0.00	-1.958496	-0.727051	6.687012	-25.340000	591.010010	-56.980000	1635.00	-0.29	-0.07
2.86	2.00	1.00	2.00	2.50	0.75	1.00	2.50	0.50	5.50	5.50	5.00	3.00	4.75	3.50	1.50	1.75	-1.517090	1.859863	5.433594	248.220001	624.539978	-233.100006	495.00	0.12	-0.02	38.75	33.50	20.75	22.00	8.25	10.75	4.50	8.00	0.00	0.00	0.00	0.75	3.00	0.00	0.75	0.50	-1.465820	0.976074	4.558105	-171.430008	312.339996	-74.269997	1775.00	-0.27	-0.07
2.87	2.25	1.25	2.50	2.75	0.75	0.50	2.75	0.25	3.50	4.00	3.50	2.25	3.50	2.75	1.25	1.50	-0.634766	1.672363	6.163574	240.729996	598.640015	-290.010010	409.00	0.08	-0.01	43.50	35.75	24.25	24.50	11.00	12.50	5.00	9.00	1.50	0.50	1.25	2.00	5.50	1.00	1.25	1.50	-0.557129	1.136719	2.192871	-246.540009	118.370003	-31.010000	2104.00	-0.24	-0.07
2.88	2.25	0.75	3.50	3.00	1.00	1.00	3.00	0.00	3.25	2.75	2.25	1.00	2.00	2.75	0.75	1.25	1.270508	1.919922	5.514648	160.440002	552.229980	-365.049988	360.00	0.04	0.02	40.50	33.75	23.75	23.50	12.00	13.00	5.25	9.50	1.50	1.00	1.00	2.50	6.50	1.00	1.50	1.50	-0.085938	-0.334473	1.648438	-218.259995	76.650002	-7.000000	2083.00	-0.23	-0.07
2.89	3.25	1.25	2.50	2.50	1.00	0.25	3.00	0.00	2.50	3.00	2.50	0.25	1.25	2.50	0.25	0.75	2.026855	2.243652	7.338867	111.790001	387.519989	-359.589996	318.00	0.01	0.05	39.50	32.00	23.75	23.00	13.00	13.25	5.50	9.75	1.75	1.50	1.25	2.50	7.50	1.00	1.25	1.75	-0.193848	-0.112305	1.254883	-116.199997	37.099998	-12.040000	2091.00	-0.22	-0.07
2.90	3.00	1.50	2.50	2.75	1.25	0.75	3.00	0.00	2.50	3.00	2.25	0.25	1.50	2.00	0.50	0.75	-0.598145	4.598633	4.491211	117.040001	199.289993	-257.179993	327.00	0.00	0.03	38.25	31.25	23.25	22.50	13.50	13.25	5.75	10.00	2.00	1.50	1.50	2.50	7.75	1.25	1.50	2.00	-0.220703	0.425781	1.109375	-61.110001	8.960000	-5.460000	2087.00	-0.21	-0.07
2.91	3.25	1.25	2.50	3.00	1.00	0.25	3.00	0.00	2.25	3.00	2.50	0.25	1.50	1.75	0.25	0.75	1.167480	2.248535	2.817383	-148.610001	-114.730003	78.959999	316.00	-0.00	0.03	36.75	29.75	22.50	22.00	13.50	13.00	5.75	10.00	2.25	1.75	1.25	2.75	7.75	1.25	1.50	1.75	-0.112793	-0.020020	1.132324	-20.440001	10.080000	-5.320000	2042.00	-0.21	-0.07
2.92	2.75	1.50	2.25	2.50	1.00	0.75	2.75	0.00	2.00	2.75	2.25	0.25	1.25	2.00	0.00	1.00	1.817871	2.198730	2.593750	-189.000000	-130.339996	157.149994	295.00	-0.00	0.03	35.00	28.00	21.75	21.00	13.25	12.50	5.75	9.75	2.50	1.50	1.25	2.75	7.75	1.25	1.50	1.75	-0.050293	0.198730	1.015625	-2.730000	15.610000	-4.340000	1971.00	-0.21	-0.07
2.93	3.00	1.50	2.50	2.25	1.25	0.50	3.00	0.00	2.00	2.50	2.25	0.25	1.00	1.25	0.25	1.00	1.937988	1.869141	2.678711	-152.809998	-165.059998	191.100006	292.00	-0.01	0.04	32.50	26.00	20.50	20.00	12.75	12.00	5.75	9.75	2.00	1.75	1.25	2.50	8.00	1.50	1.50	2.00	-0.017090	0.093750	1.003418	-1.610000	21.280001	-3.990000	1882.00	-0.20	-0.08
2.94	3.25	1.75	2.75	2.25	1.25	0.50	3.00	0.00	1.25	2.00	2.00	0.25	1.25	1.75	0.25	0.75	1.868164	1.069336	2.764648	-84.139999	-239.540009	191.520004	287.00	-0.04	0.03	29.75	23.50	18.75	18.50	12.25	11.25	5.75	9.50	2.50	1.75	1.25	2.75	7.75	1.50	1.50	1.75	-0.015625	0.099121	1.007812	-0.980000	25.410000	-6.650000	1774.00	-0.19	-0.08
2.95	3.00	2.00	2.75	2.75	1.00	0.75	3.00	0.00	1.75	1.75	2.00	0.00	1.25	1.50	0.00	0.50	1.728516	0.647949	2.453125	-46.689999	-317.799988	173.669998	287.00	-0.05	0.03	26.00	19.75	16.75	16.00	11.25	9.75	5.50	9.25	2.00	1.75	1.25	2.50	7.75	1.50	1.25	1.75	-0.013184	0.094727	0.999023	1.120000	30.309999	-7.630000	1588.00	-0.18	-0.08
2.96	3.00	1.75	2.50	2.75	1.25	0.25	3.00	0.00	1.50	1.75	2.00	0.25	1.25	1.50	0.25	1.00	1.383301	0.453613	2.291016	-34.020000	-384.649994	148.680008	284.00	-0.03	0.02	21.75	16.25	15.25	14.75	10.75	9.50	5.50	9.25	2.25	1.75	1.25	2.75	8.25	1.50	1.75	2.00	-0.000977	0.087402	0.994141	3.360000	35.770000	-7.770000	1481.00	-0.16	-0.08
2.97	3.25	1.50	2.50	2.75	1.00	0.50	3.00	0.00	1.50	1.75	2.00	0.25	1.25	1.50	0.25	0.50	1.038086	0.552246	2.325684	-14.280000	-446.739990	123.760002	281.00	-0.04	0.03	18.00	12.00	13.00	12.50	9.75	8.75	5.25	8.75	2.25	2.00	1.25	2.50	8.25	1.50	1.50	2.00	0.009277	0.124512	1.003906	6.230000	41.580002	-7.280000	1305.00	-0.15	-0.09
2.98	3.25	2.00	2.75	2.50	1.00	0.75	2.75	0.00	2.00	2.00	1.75	0.00	1.25	1.75	0.50	0.75	0.672852	0.439941	2.254395	15.190001	-506.940002	101.220001	296.00	-0.03	0.03	10.50	7.50	10.25	9.25	8.50	7.50	5.25	8.50	2.00	2.00	1.50	2.75	8.25	1.00	0.50	1.75	0.020020	0.125000	0.992188	7.490000	47.040001	-7.910000	1053.00	-0.11	-0.10
2.99	3.25	1.75	2.75	2.50	1.25	0.75	3.00	0.00	1.75	1.75	1.75	0.00	1.25	1.50	0.00	0.75	0.223633	0.270996	2.094238	42.349998	-552.020020	80.500000	286.00	-0.05	0.03	7.00	5.25	6.75	6.75	6.75	5.75	5.00	7.75	1.00	1.00	0.50	1.50	7.75	0.50	0.50	1.00	0.021484	0.140137	0.992188	6.020000	51.380001	-9.730000	794.00	-0.11	-0.12
3.00	3.25	1.75	2.50	2.50	1.25	0.25	3.00	0.00	1.50	1.75	1.50	0.00	1.00	1.50	0.00	0.50	-0.156250	0.138672	1.914062	58.730000	-573.580017	65.519997	267.00	-0.05	0.04	6.00	3.50	5.50	5.00	5.00	4.75	4.75	7.50	1.25	1.25	0.75	2.00	7.75	0.75	0.50	1.25	-0.088867	0.130859	1.013672	4.760000	54.740002	-13.020000	707.00	-0.08	-0.12
3.01	3.00	2.00	2.50	2.75	1.25	0.75	2.75	0.00	1.50	1.50	1.75	0.00	1.25	1.75	0.00	0.50	-0.441406	0.071777	1.786621	67.970001	-573.369995	57.470001	276.00	-0.06	0.02	4.75	2.25	3.75	3.50	3.75	3.25	4.50	6.75	1.00	1.25	0.75	2.25	8.25	0.75	0.75	2.00	-0.023926	0.090820	1.022949	7.070000	58.939999	-20.510000	602.00	-0.04	-0.13
3.02	3.25	2.00	2.50	2.75	1.00	0.25	3.00	0.00	1.25	1.75	1.50	0.00	1.00	1.50	0.00	0.50	-0.664062	0.013672	1.719727	72.660004	-555.030029	55.930000	266.00	-0.06	0.03	5.25	3.00	4.25	4.25	4.00	4.25	4.50	7.00	2.50	2.50	2.00	3.75	9.50	2.25	2.25	4.00	-0.076660	0.133789	1.103027	14.210000	67.269997	-25.830000	772.00	-0.00	-0.12
3.03	3.25	2.50	2.50	2.50	1.00	0.25	3.00	0.00	1.50	1.50	1.50	0.00	1.25	1.50	0.00	0.50	-0.750977	0.023438	1.750000	70.139999	-527.309998	62.790001	271.00	-0.07	0.03	5.25	2.75	3.75	3.50	3.25	3.25	4.25	6.25	3.00	2.75	1.75	4.00	9.75	2.75	2.50	4.25	-0.108398	0.110840	1.223145	80.849998	96.809998	-36.470001	738.00	0.02	-0.12
3.04	3.00	2.00	3.00	2.75	1.00	0.75	3.00	0.00	1.25	1.50	1.25	0.00	1.25	1.75	0.00	0.75	-0.687500	0.150391	2.041992	64.050003	-499.660004	76.090004	276.00	-0.07	0.02	5.00	2.50	3.25	3.50	2.00	0.75	4.00	5.50	2.75	2.75	1.75	2.50	8.75	1.00	1.00	4.75	-0.168945	0.297363	1.149414	102.900002	109.340004	-43.400002	605.00	0.01	-0.11
3.05	3.00	2.25	2.50	3.00	1.00	0.50	3.00	0.00	1.25	1.50	1.50	0.25	1.00	1.75	0.00	0.75	-0.656250	0.339844	2.426270	61.810001	-485.309998	96.459999	276.00	-0.06	0.02	2.50	1.75	2.00	3.00	1.75	0.00	3.50	3.75	1.00	1.75	1.25	3.00	10.25	3.50	3.50	7.50	-0.222656	0.229492	1.072754	99.400002	126.070000	-53.480000	544.00	0.09	-0.14
3.06	3.75	1.50	2.50	2.50	1.00	0.50	3.00	0.00	1.25	1.50	1.50	0.00	1.50	1.00	0.00	0.50	-0.579590	0.393555	2.822754	68.599998	-487.760010	120.330002	264.00	-0.07	0.03	2.00	0.50	0.25	0.75	1.00	0.75	3.75	4.50	3.00	3.25	2.75	6.25	10.50	4.50	4.00	8.50	-0.242188	0.232422	0.971680	100.029999	135.169998	-57.680000	618.00	0.16	-0.14
3.07	3.00	1.75	2.75	3.00	1.00	0.50	3.00	0.00	1.00	1.50	1.25	0.00	1.25	1.75	0.00	0.50	-0.767578	0.382812	3.355957	97.019997	-510.230011	160.229996	265.00	-0.07	0.03	4.25	2.00	1.50	2.25	1.75	2.00	3.75	4.25	3.00	3.75	3.25	7.25	11.00	5.75	5.00	9.75	-0.271973	0.119629	0.901855	103.459999	136.570007	-58.520000	770.00	0.11	-0.13
3.08	2.75	1.50	2.75	2.75	1.00	0.25	3.00	0.00	1.25	1.50	1.75	0.00	1.00	1.00	0.00	0.50	-1.096680	0.329590	3.612305	107.520004	-515.130005	178.430008	254.00	-0.06	0.03	2.50	1.00	0.25	1.25	0.75	0.50	3.25	2.50	1.00	2.75	2.50	6.25	10.00	5.50	4.50	10.25	-0.247559	0.113281	0.971191	96.669998	140.490005	-52.360001	571.00	0.16	-0.14
3.09	3.25	2.50	2.50	2.25	1.00	0.50	2.75	0.00	1.25	1.50	1.25	0.00	1.25	1.50	0.00	0.25	-1.486816	0.268555	3.927734	112.910004	-515.900024	196.910004	259.00	-0.08	0.03	1.50	0.50	0.00	0.75	0.50	0.25	3.25	2.50	1.25	3.00	2.75	7.25	10.75	7.00	6.25	12.25	-0.196777	0.237793	1.002441	92.610001	143.500000	-49.279999	613.00	0.21	-0.15
3.10	3.00	1.75	2.50	2.50	1.25	0.50	2.75	0.00	1.25	1.00	1.50	0.00	0.75	1.00	0.00	0.25	-1.995605	0.191895	4.190430	114.239998	-514.919983	219.029999	242.00	-0.08	0.04	2.00	1.00	0.00	1.50	1.00	1.50	3.25	3.75	3.25	4.75	6.75	8.50	12.50	9.00	8.25	14.75	-0.252930	0.480957	0.939453	93.449997	145.110001	-56.000000	856.00	0.20	-0.13
3.11	2.75	1.50	2.50	2.75	1.00	0.50	2.75	0.00	1.00	1.25	1.50	0.00	0.75	1.25	0.00	0.50	-2.642090	0.127441	4.458008	109.129997	-513.590027	245.910004	240.00	-0.07	0.03	3.00	1.50	0.75	2.00	1.00	1.00	3.25	4.00	3.50	5.75	7.50	8.25	11.75	8.75	8.00	14.75	-0.290039	0.651855	0.953125	96.809998	148.399994	-75.739998	894.00	0.18	-0.12
3.12	3.25	0.75	2.50	2.75	1.00	0.50	2.75	0.00	1.50	1.25	1.50	0.00	1.00	1.50	0.00	0.25	-3.538574	0.056641	4.542480	89.599998	-511.910004	271.250000	249.00	-0.05	0.04	1.25	0.00	0.00	0.75	0.00	0.50	2.75	3.25	2.50	5.00	6.50	8.50	12.25	9.75	9.00	16.00	-0.306152	0.672363	1.065918	98.489998	150.570007	-101.360001	798.00	0.23	-0.14
3.13	3.00	1.75	2.50	2.75	1.25	0.50	2.75	0.00	0.75	1.25	1.25	0.00	0.75	1.00	0.00	0.50	-4.543457	0.062012	3.915039	38.080002	-505.330017	284.339996	240.00	-0.09	0.03	1.25	0.00	0.00	0.00	0.00	0.75	3.00	3.50	2.50	5.25	7.25	8.75	12.50	10.50	9.50	17.00	-0.432129	0.602051	1.166992	103.250000	151.759995	-128.100006	835.00	0.24	-0.14
3.14	3.25	1.75	2.50	2.50	1.25	0.25	2.75	0.00	1.00	1.25	1.25	0.00	1.00	1.25	0.00	0.50	-5.642578	0.563965	2.830078	-25.129999	-474.390015	277.549988	245.00	-0.08	0.03	0.75	0.00	0.00	0.25	0.00	0.75	2.75	3.75	3.00	6.00	7.50	9.00	12.00	11.00	10.25	17.50	-0.409180	0.483887	1.094238	93.870003	156.940002	-149.169998	866.00	0.25	-0.13
3.15	3.50	1.75	2.75	2.75	1.25	0.25	2.75	0.25	1.00	1.00	1.75	0.00	1.00	1.25	0.00	0.75	-6.512207	1.123047	1.625000	-47.810001	-410.269989	256.480011	262.00	-0.08	0.02	1.00	0.25	0.00	0.00	0.00	0.75	3.00	4.25	3.25	6.50	7.75	9.00	12.25	11.75	11.25	17.75	-0.475098	0.367676	1.139160	68.459999	206.220001	-170.380005	915.00	0.24	-0.13
3.16	3.25	1.50	3.00	2.75	1.25	0.75	2.75	0.25	0.75	1.25	1.25	0.00	1.00	1.25	0.25	0.50	-7.658691	1.339844	0.460938	-9.030000	-332.500000	219.309998	261.00	-0.08	0.02	0.75	0.25	0.00	1.25	0.25	1.50	3.25	5.50	6.50	8.25	8.75	10.00	13.50	14.75	13.75	19.75	-0.407715	0.309570	1.375488	60.970001	246.680008	-173.669998	1133.00	0.24	-0.11
3.17	2.75	2.00	2.50	2.75	1.25	0.50	2.75	0.50	1.00	1.00	1.50	0.00	1.25	1.25	0.00	0.50	-9.444824	0.836426	-0.179688	73.080002	-256.760010	151.130005	258.00	-0.08	0.00	2.25	1.25	0.50	0.75	0.25	1.50	3.25	5.25	6.25	8.25	8.50	9.50	12.50	13.75	13.00	18.50	-0.430664	0.332520	1.608398	53.480000	296.869995	-174.720001	1109.00	0.22	-0.11
3.18	3.00	1.50	2.75	2.75	1.25	0.25	2.75	0.00	1.25	1.00	1.50	0.00	1.25	1.25	0.00	0.50	-9.900391	-0.665527	-0.739746	142.729996	-159.250000	73.010002	252.00	-0.07	0.03	0.25	0.25	0.00	0.25	0.00	0.50	3.50	4.75	6.00	8.50	9.25	10.00	12.75	13.50	13.50	18.00	-0.586426	0.276367	1.593750	51.660000	354.899994	-167.509995	1062.00	0.25	-0.11
3.19	3.00	2.25	2.75	2.75	1.25	0.25	2.75	0.50	1.00	1.25	1.50	0.25	1.50	2.00	0.00	0.50	-8.135254	-1.589844	-0.650879	87.080002	-38.290001	28.139999	279.00	-0.06	0.00	0.50	0.25	0.00	0.00	0.00	0.50	3.50	4.75	6.00	8.75	9.25	9.75	12.75	13.75	14.00	17.75	-0.654785	0.517090	1.825195	47.040001	419.089996	-163.240005	1068.00	0.25	-0.11
3.20	3.25	2.25	2.75	2.75	1.25	0.50	2.75	0.50	1.25	1.25	1.50	0.00	1.00	1.25	0.00	0.75	-7.210449	-0.694336	0.465820	-12.250000	52.080002	17.500000	275.00	-0.08	0.01	2.00	1.00	0.25	1.25	0.50	1.25	3.50	5.00	6.50	9.25	9.75	10.00	12.75	12.75	13.75	15.75	-0.546387	0.672363	2.254883	40.040001	483.980011	-175.979996	1127.00	0.22	-0.10
3.21	5.25	4.75	4.75	4.25	1.75	0.25	2.75	0.25	0.75	0.50	1.00	0.00	1.50	1.25	0.00	0.50	-11.693359	0.834961	-3.505859	-45.360001	81.550003	-1.610000	346.00	-0.17	-0.00	2.00	1.25	0.25	1.25	0.50	1.50	3.75	4.50	6.00	8.75	9.50	9.50	12.25	10.25	12.25	13.00	-0.995117	1.429199	2.069824	49.700001	540.470032	-200.550003	1046.00	0.21	-0.10
3.22	15.50	12.00	7.50	7.75	1.50	0.00	2.75	0.50	1.00	0.50	0.75	0.00	1.75	1.25	0.00	0.50	-2.229980	3.296387	2.487305	-155.960007	386.540009	-155.889999	612.00	-0.25	-0.01	2.25	1.25	0.25	1.00	0.50	1.50	3.75	3.25	5.25	8.00	8.75	8.50	10.75	7.75	9.50	10.00	-1.661133	2.031250	3.203613	75.180000	576.940002	-222.040009	899.00	0.20	-0.10
3.23	25.75	19.75	9.25	9.50	1.50	0.00	2.50	0.50	0.75	0.75	0.50	0.00	1.25	1.00	0.00	0.50	-1.078613	2.075684	3.111328	-176.889999	462.420013	-90.160004	833.00	-0.30	-0.01	2.00	1.00	0.00	1.00	0.50	1.75	3.50	2.25	5.00	6.50	7.50	7.75	9.25	5.75	7.50	7.50	-2.364258	2.670898	3.541504	121.870003	586.460022	-224.210007	758.00	0.19	-0.09
3.24	32.00	23.75	11.50	11.50	1.75	0.75	2.50	0.50	0.75	0.75	0.75	0.00	1.50	1.00	0.25	0.50	-2.338867	0.625977	3.776855	-106.120003	611.450012	-6.930000	1016.00	-0.30	-0.02	1.25	0.75	0.00	0.75	0.00	0.75	3.50	0.50	2.25	4.00	4.25	4.75	6.00	2.00	4.50	5.00	-2.330078	1.648926	4.943359	182.910004	562.239990	-251.649994	443.00	0.19	-0.09
3.25	31.50	24.00	14.00	14.00	2.50	4.25	2.75	2.00	1.00	0.50	1.00	0.25	1.50	1.00	0.00	0.50	-1.910645	-1.313477	5.738281	-19.040001	703.849976	16.450001	1157.00	-0.29	-0.04	0.25	0.00	0.00	0.00	0.00	0.00	3.25	0.00	0.25	1.25	1.25	2.50	4.00	0.50	2.00	2.50	-1.447754	2.321777	4.643555	199.500000	515.900024	-304.989990	197.00	0.20	-0.09
3.26	32.25	23.75	16.50	15.50	6.50	9.25	3.25	7.00	1.00	0.50	1.25	0.50	3.00	1.25	0.25	0.75	-1.769531	1.340332	5.184082	-48.369999	581.700012	-46.759998	1437.00	-0.25	-0.07	0.00	0.00	0.00	0.00	0.00	0.00	3.50	0.00	0.00	0.50	1.00	1.75	2.00	0.00	0.75	0.75	1.670898	2.686523	4.139648	136.289993	392.000000	-449.470001	127.00	0.17	-0.03
3.27	31.75	21.75	17.75	16.00	9.75	11.00	3.75	8.75	1.50	1.25	2.00	1.25	5.75	1.50	0.25	1.00	-2.077148	0.302246	6.988281	-275.170013	288.610016	-61.320000	1592.00	-0.22	-0.07	0.00	0.00	0.00	0.00	0.00	0.00	3.75	0.00	0.00	0.00	0.00	0.25	0.00	0.00	1.00	0.75	2.876953	1.332520	6.696289	154.770004	249.759995	-491.750000	81.00	0.15	0.15
3.28	30.75	20.75	18.00	15.50	11.25	11.00	4.25	9.25	1.75	1.75	2.25	1.50	6.50	1.50	0.50	1.00	-0.946289	0.448730	2.350098	-262.220001	55.860001	-29.680000	1627.00	-0.20	-0.07	0.25	0.00	0.00	0.00	0.25	0.00	3.75	0.00	0.00	0.75	0.25	0.25	0.00	0.00	0.00	0.00	0.083984	5.284668	10.253906	175.419998	127.190002	-470.330017	82.00	0.08	0.18
3.29	29.50	19.50	17.50	15.25	11.75	11.00	4.50	9.75	2.00	2.00	2.25	1.75	7.50	1.50	0.50	1.25	-0.027344	-0.555176	1.176758	-114.309998	10.710000	-11.410000	1630.00	-0.19	-0.08	0.00	0.00	0.00	0.00	0.00	0.00	3.75	0.00	0.00	0.50	0.00	0.00	0.00	0.00	0.00	0.00	2.784668	2.706543	3.212402	-2.730000	-134.960007	-285.880005	67.00	0.09	0.23
3.30	29.00	19.25	17.25	15.00	11.75	11.25	4.75	10.00	2.50	2.25	2.25	1.75	7.50	2.00	0.50	1.50	-0.307617	0.322266	1.149902	-24.219999	4.620000	-5.180000	1643.00	-0.19	-0.07	0.00	0.00	0.00	0.00	0.00	0.00	3.75	0.00	0.00	0.00	0.00	0.00	0.00	0.00	0.00	0.00	1.538086	2.784180	2.857422	-192.360001	-205.800003	-110.389999	62.00	0.08	0.24
3.31	28.25	18.75	16.75	14.75	12.00	11.00	5.00	9.75	2.75	2.25	2.25	1.75	7.25	1.75	0.50	1.25	-0.131348	0.285645	1.000000	-18.620001	8.890000	1.890000	1618.00	-0.18	-0.07	0.00	0.00	0.00	0.00	0.00	0.00	3.75	0.00	0.00	0.00	0.00	0.00	0.00	0.00	0.00	0.00	2.204590	3.629883	2.217773	-265.649994	-215.600006	22.889999	62.00	0.08	0.24
3.32	27.75	18.50	16.50	14.75	11.75	10.75	5.00	9.75	3.00	2.50	2.25	1.50	7.00	1.50	0.50	1.25	-0.061035	-0.162598	1.033203	-19.320000	12.460000	1.400000	1599.00	-0.18	-0.07	0.00	0.00	0.00	0.00	0.00	0.00	3.75	0.00	0.00	0.00	0.00	0.00	0.00	0.00	0.00	0.00	2.370117	3.163574	2.433594	-252.490005	-250.389999	125.020004	62.00	0.08	0.24
3.33	27.00	18.25	16.00	14.25	11.50	10.50	4.75	9.75	2.75	2.50	2.25	1.50	7.00	1.75	0.25	1.25	-0.149902	0.105469	1.038086	-3.640000	15.540000	0.980000	1562.00	-0.18	-0.07	0.00	0.00	0.00	0.00	0.00	0.00	3.75	0.00	0.00	0.00	0.00	0.00	0.00	0.00	0.00	0.00	1.977539	2.544922	2.381348	-190.960007	-311.079987	185.919998	62.00	0.08	0.24
3.34	26.25	17.75	15.25	14.00	11.00	10.25	4.75	9.50	3.00	2.50	2.00	1.25	6.50	1.50	0.50	1.00	-0.088867	0.093750	0.976074	3.080000	21.840000	4.130000	1515.00	-0.18	-0.07	0.00	0.00	0.00	0.00	0.00	0.00	3.75	0.00	0.00	0.00	0.00	0.00	0.00	0.00	0.00	0.00	1.592285	1.721680	2.139160	-151.759995	-371.000000	215.250000	62.00	0.08	0.24
3.35	25.00	17.25	14.50	13.75	10.50	10.25	4.50	9.50	2.75	2.25	2.25	1.25	6.25	2.00	0.25	1.00	-0.065430	0.006836	0.982422	7.770000	25.549999	4.340000	1470.00	-0.18	-0.07	0.00	0.00	0.00	0.00	0.00	0.00	3.75	0.00	0.00	0.00	0.00	0.00	0.00	0.00	0.00	0.00	1.244141	1.201172	1.935059	-136.220001	-416.500000	215.600006	62.00	0.08	0.24
3.36	24.25	16.25	14.00	13.25	9.75	9.75	4.25	9.25	2.75	2.25	2.00	1.25	6.25	1.75	0.25	1.00	-0.089844	0.067871	0.994141	15.890000	28.980000	3.990000	1411.00	-0.18	-0.08	0.25	0.00	0.00	0.00	0.00	0.00	3.50	0.00	0.00	0.00	0.00	0.00	0.00	0.00	0.00	0.00	0.869141	1.023926	1.792969	-121.870003	-450.519989	194.180008	60.00	0.06	0.24
3.37	21.75	15.00	13.00	12.50	9.00	9.50	4.00	9.25	2.75	2.25	2.25	1.25	6.25	1.50	0.25	0.75	-0.058105	0.028320	0.967285	26.809999	36.959999	3.080000	1332.00	-0.17	-0.08	0.00	0.00	0.00	0.00	0.00	0.00	3.50	0.00	0.00	0.00	0.00	0.00	0.00	0.00	0.00	0.00	0.574219	0.962891	1.741211	-93.309998	-476.980011	165.410004	58.00	0.08	0.24
3.38	19.25	13.50	12.00	11.75	8.25	9.25	4.00	9.25	2.50	2.25	2.25	1.50	6.75	1.50	0.25	1.00	-0.052246	0.068848	0.956055	30.520000	39.340000	1.960000	1261.00	-0.16	-0.09	0.00	0.00	0.00	0.00	0.00	0.00	3.75	0.00	0.00	0.00	0.00	0.00	0.00	0.00	0.00	0.00	0.274414	0.842285	1.755371	-49.349998	-497.000000	135.240005	62.00	0.08	0.24
3.39	16.25	11.50	10.75	10.75	7.25	8.75	3.75	9.25	2.25	2.25	2.25	1.75	7.00	1.75	0.25	1.00	-0.051758	0.099609	0.973633	32.619999	42.490002	0.980000	1161.00	-0.15	-0.10	0.00	0.00	0.00	0.00	0.00	0.00	3.75	0.00	0.00	0.00	0.00	0.00	0.00	0.00	0.00	0.00	-0.221680	0.610840	1.851562	41.580002	-519.190002	84.910004	62.00	0.08	0.24
3.40	13.50	9.50	9.50	9.50	6.50	8.50	3.50	9.25	2.25	2.25	2.25	2.00	7.25	1.75	0.25	0.75	-0.065918	0.122070	0.970215	35.070000	43.330002	0.070000	1067.00	-0.13	-0.11	0.00	0.00	0.00	0.00	0.00	0.00	3.50	0.00	0.00	0.00	0.00	0.00	0.00	0.00	0.00	0.00	-0.438477	0.571777	1.988770	73.570000	-519.960022	68.320000	58.00	0.08	0.24
3.41	10.25	8.25	8.50	8.50	5.50	8.00	3.50	9.25	2.25	2.25	2.50	2.25	8.25	1.50	0.00	1.25	-0.081543	0.142578	0.949707	33.320000	44.939999	-1.330000	989.00	-0.11	-0.12	0.00	0.00	0.00	0.00	0.00	0.00	3.50	0.00	0.00	0.00	0.00	0.00	0.00	0.00	0.00	0.00	-0.633789	0.662598	2.197754	101.220001	-518.909973	60.340000	58.00	0.08	0.24
3.42	8.25	6.50	7.50	7.75	3.75	5.50	3.25	8.75	2.25	2.25	2.25	1.75	8.00	1.50	0.50	1.25	-0.137207	0.160645	0.958496	24.639999	47.180000	-2.590000	859.00	-0.09	-0.12	0.00	0.00	0.00	0.00	0.00	0.00	3.50	0.00	0.00	0.00	0.00	0.00	0.00	0.00	0.00	0.00	-0.748535	0.706543	2.313477	125.790001	-517.650024	63.630001	58.00	0.08	0.24
3.43	6.75	5.50	6.25	6.50	4.00	6.25	3.50	9.00	2.25	2.75	2.50	2.75	8.25	2.00	0.50	1.50	-0.127930	0.171387	0.965332	16.240000	47.250000	-4.900000	851.00	-0.07	-0.13	0.00	0.00	0.00	0.00	0.00	0.00	3.50	0.00	0.00	0.00	0.00	0.00	0.00	0.00	0.00	0.00	-0.906250	0.779297	2.430664	141.330002	-514.429993	77.629997	58.00	0.08	0.24
3.44	5.75	5.50	5.75	6.00	3.50	5.25	3.25	8.50	2.75	2.75	2.75	3.00	9.25	2.00	1.00	1.75	-0.156250	0.102539	1.005859	12.460000	48.509998	-8.960000	826.00	-0.05	-0.13	0.00	0.00	0.00	0.00	0.00	0.00	3.75	0.00	0.00	0.00	0.00	0.00	0.00	0.00	0.00	0.00	-0.950195	0.899902	2.529297	149.380005	-509.179993	98.629997	62.00	0.08	0.24
3.45	3.75	2.00	3.50	2.50	2.00	1.25	3.00	7.25	1.00	2.00	2.00	2.25	9.00	2.00	0.75	2.50	-0.143555	0.115234	0.958008	34.090000	60.830002	-16.030001	557.00	0.00	-0.15	0.00	0.00	0.00	0.00	0.00	0.00	3.50	0.00	0.00	0.00	0.00	0.00	0.00	0.00	0.00	0.00	-0.970703	0.968750	2.786133	160.930008	-503.790009	118.580002	58.00	0.08	0.24
3.46	3.75	2.50	4.00	3.25	2.00	2.25	3.00	7.50	2.00	2.50	3.00	3.25	8.75	0.75	0.50	3.00	-0.108887	0.148438	1.019531	48.650002	72.239998	-19.180000	622.00	-0.00	-0.15	0.00	0.00	0.00	0.00	0.00	0.00	3.50	0.00	0.00	0.00	0.00	0.00	0.00	0.00	0.00	0.00	-1.066895	0.987305	3.101074	188.089996	-499.239990	133.910004	58.00	0.08	0.24
3.47	4.75	3.50	4.00	4.50	2.25	2.75	3.00	7.50	3.25	4.00	5.75	6.00	10.50	2.50	1.25	4.50	-0.124512	0.127930	1.077148	58.520000	79.379997	-22.889999	816.00	0.03	-0.14	0.00	0.00	0.00	0.00	0.00	0.00	3.50	0.00	0.00	0.00	0.00	0.00	0.00	0.00	0.00	0.00	-1.329102	0.865234	3.489258	219.589996	-493.709991	149.169998	58.00	0.08	0.24
3.48	4.50	2.50	4.00	3.50	1.75	2.50	3.00	7.25	4.00	4.00	6.25	6.75	11.25	3.00	2.25	6.50	-0.199707	0.208496	0.938965	68.389999	84.840004	-30.170000	838.00	0.06	-0.14	0.00	0.00	0.00	0.00	0.00	0.00	3.50	0.00	0.00	0.00	0.00	0.00	0.00	0.00	0.00	0.00	-1.685547	0.706543	3.892090	238.000000	-484.190002	169.050003	58.00	0.08	0.24
3.49	3.75	3.00	3.50	3.50	1.75	2.50	2.75	7.00	4.00	4.75	7.25	7.75	12.25	3.75	3.00	7.75	-0.211914	0.334473	1.000000	75.389999	93.239998	-41.020000	884.00	0.08	-0.15	0.00	0.00	0.00	0.00	0.00	0.00	3.50	0.00	0.00	0.00	0.00	0.00	0.00	0.00	0.00	0.00	-2.172852	0.612793	4.087891	233.940002	-469.279999	196.979996	58.00	0.08	0.24
3.50	3.75	2.25	3.25	3.00	1.50	2.00	2.50	7.00	4.25	5.25	7.75	8.25	12.75	4.50	3.75	9.00	-0.212402	0.269043	1.020020	79.309998	101.010002	-50.330002	903.00	0.10	-0.15	0.00	0.00	0.00	0.00	0.00	0.00	3.50	0.00	0.00	0.00	0.00	0.00	0.00	0.00	0.00	0.00	-2.683594	0.537598	4.089844	211.190002	-446.739990	231.559998	58.00	0.08	0.24
3.51	2.75	0.75	2.50	2.75	1.25	1.50	2.25	7.00	5.00	6.00	8.25	8.75	13.50	6.50	5.50	10.50	-0.283203	0.305176	1.107422	70.349998	114.449997	-53.200001	937.00	0.14	-0.14	0.00	0.00	0.00	0.00	0.00	0.00	3.50	0.00	0.00	0.00	0.00	0.00	0.00	0.00	0.00	0.00	-3.804199	0.212402	3.626953	154.910004	-402.360016	301.350006	58.00	0.08	0.24
3.52	3.50	2.00	3.25	3.50	1.50	2.00	2.00	7.25	5.25	6.75	8.75	9.50	14.00	8.00	6.50	11.75	-0.287109	0.418945	1.108887	72.870003	126.559998	-60.340000	1049.00	0.13	-0.14	0.00	0.00	0.00	0.00	0.00	0.00	3.50	0.00	0.00	0.00	0.00	0.00	0.00	0.00	0.00	0.00	-4.657227	-0.150879	3.035156	146.440002	-378.000000	331.450012	58.00	0.08	0.24
3.53	3.25	2.00	2.75	3.25	1.25	2.25	2.00	7.25	5.25	7.50	9.00	9.75	14.00	9.00	7.25	13.25	-0.351562	0.525391	1.098633	71.750000	141.259995	-73.639999	1078.00	0.15	-0.14	1.00	1.25	0.00	0.00	0.25	0.00	3.50	0.00	0.25	0.75	0.75	1.00	1.00	1.00	0.75	0.00	-5.678711	-0.726562	2.045410	127.470001	-331.869995	354.619995	144.00	0.07	0.05
3.54	3.50	1.00	2.75	3.25	1.00	1.75	1.75	7.00	6.25	7.75	9.25	10.00	13.75	9.75	8.00	14.00	-0.378418	0.474121	1.181152	76.580002	153.020004	-90.230003	1094.00	0.16	-0.13	0.00	0.00	0.00	0.00	0.00	0.00	3.50	0.00	0.00	0.00	0.00	0.00	0.00	0.00	0.00	0.00	-6.975098	-1.055176	0.799805	70.980003	-256.339996	348.390015	58.00	0.08	0.24
3.55	2.25	1.50	1.75	2.75	0.50	1.75	2.00	7.00	6.75	8.00	9.50	10.00	13.75	11.25	8.75	15.25	-0.340820	0.293945	1.919434	90.930000	160.860001	-105.699997	1108.00	0.18	-0.13	0.00	0.00	0.00	0.00	0.00	0.00	3.50	0.00	0.00	0.00	0.00	0.00	0.00	0.00	0.00	0.00	-8.987793	-1.003906	0.184082	80.500000	-190.680008	271.179993	58.00	0.08	0.24
3.56	2.75	1.75	2.25	3.00	0.75	1.50	2.00	7.00	7.75	8.25	9.75	10.25	14.00	12.75	9.50	15.50	-0.421387	0.266113	1.397949	78.120003	186.199997	-114.309998	1174.00	0.18	-0.12	0.50	0.25	0.00	0.00	0.50	0.00	3.50	0.00	0.00	0.00	0.00	0.00	0.00	0.00	0.00	0.00	-8.872070	-1.654297	-0.474121	83.510002	-111.580002	167.369995	72.00	0.01	0.20
3.57	3.00	1.50	1.75	3.50	0.50	2.00	2.00	7.00	8.25	8.50	10.00	10.25	13.75	13.75	10.25	15.75	-0.383789	0.186035	1.360352	55.860001	227.990005	-116.760002	1207.00	0.18	-0.11	1.00	0.00	0.00	0.00	0.25	0.00	3.50	0.00	0.00	0.00	0.00	0.00	0.00	0.00	0.00	0.00	-7.724121	-1.371094	-0.286133	21.559999	-12.250000	88.830002	72.00	-0.00	0.21
3.58	3.00	1.25	2.00	3.00	0.75	2.00	2.25	7.00	8.50	8.75	10.00	10.25	13.50	14.25	10.75	15.50	-0.358887	0.217773	1.272461	39.480000	269.079987	-115.709999	1222.00	0.19	-0.11	1.25	0.25	0.00	0.50	0.50	0.00	3.50	0.00	0.00	0.00	0.00	0.00	0.00	0.25	0.00	0.00	-6.257324	-0.458496	0.507812	-17.850000	71.680000	53.619999	89.00	-0.04	0.16
3.59	2.50	1.75	2.25	3.25	0.75	1.75	2.25	6.75	8.75	9.25	10.25	10.00	13.25	15.25	11.00	15.25	-0.443359	0.314453	1.416016	31.080000	318.570007	-115.500000	1238.00	0.19	-0.10	3.50	2.25	1.25	2.00	0.00	0.25	3.50	0.50	0.50	0.25	0.00	0.00	0.00	0.00	0.00	0.25	-6.653809	-1.885742	-2.182617	21.280001	196.559998	10.150000	182.00	-0.16	0.04
3.60	2.75	0.75	2.00	3.00	0.50	1.25	2.25	6.25	8.75	9.75	10.25	10.00	12.50	15.25	11.75	14.25	-0.530273	0.417969	1.514160	19.670000	385.700012	-118.720001	1208.00	0.20	-0.09	17.00	14.75	7.50	7.75	1.00	1.00	3.50	1.00	0.75	0.00	0.25	1.00	1.75	0.75	1.00	1.00	-4.778809	-1.700684	1.197754	-85.330002	384.510010	-111.090004	690.00	-0.25	-0.03
3.61	2.75	1.25	2.00	3.00	0.50	1.25	2.25	5.75	8.75	9.50	10.25	9.50	11.75	14.50	11.25	12.75	-0.725586	0.593262	2.462891	14.280000	466.200012	-124.320000	1168.00	0.19	-0.09	33.00	29.00	10.50	11.25	1.25	0.75	3.50	1.00	1.00	0.00	0.00	0.00	0.00	0.00	0.00	0.00	-0.596191	2.919434	3.440918	-143.639999	458.989990	-126.279999	1041.00	-0.33	-0.02
3.62	2.25	0.75	2.00	2.50	0.50	0.75	2.50	5.00	8.25	9.50	10.25	9.25	11.00	13.25	10.25	10.00	-2.325684	0.256348	1.189941	-5.180000	543.549988	-140.979996	1080.00	0.20	-0.08	28.00	33.50	14.50	15.25	1.50	2.00	3.50	1.75	0.75	0.25	0.50	1.00	1.75	0.75	1.00	0.75	-1.724609	0.287109	2.509277	-94.989998	496.160004	-25.480000	1213.00	-0.29	-0.05
3.63	1.50	0.75	1.75	2.75	0.50	1.00	2.50	3.75	7.50	8.75	9.75	8.75	10.25	10.25	8.50	8.00	-1.606934	1.301270	3.485840	13.160000	597.169983	-160.649994	956.00	0.19	-0.08	43.50	29.75	16.00	19.25	2.00	4.25	3.50	1.75	0.00	0.00	0.75	1.25	1.00	0.00	0.00	0.00	-0.939941	0.243164	5.124512	2.940000	545.510010	-36.610001	1412.00	-0.31	-0.04
3.64	2.25	1.00	1.75	2.50	0.75	0.75	2.25	1.75	6.25	8.00	8.75	7.75	8.75	7.50	6.25	5.75	-1.689453	2.200195	2.749023	31.430000	644.840027	-176.610001	799.00	0.18	-0.07	37.50	33.00	17.25	18.75	5.75	7.50	4.25	5.75	0.75	0.00	0.75	1.50	2.50	1.00	0.75	0.75	-1.330566	0.438477	4.525391	-88.340004	369.880005	-58.590000	1598.00	-0.27	-0.06
3.65	2.75	1.00	2.00	2.50	0.50	0.75	2.25	1.00	5.50	7.00	7.50	6.50	7.75	6.00	4.50	4.25	-2.319824	1.495117	4.010254	93.800003	676.130005	-164.360001	689.00	0.16	-0.06	43.25	35.25	19.75	19.75	5.50	8.50	4.25	6.75	0.00	0.00	0.00	0.75	2.25	0.25	0.00	0.00	-0.429199	1.086914	1.501953	-185.220001	207.339996	-36.680000	1704.00	-0.29	-0.06
