# time	left pressure 1[N/cm²]	left pressure 2[N/cm²]	left pressure 3[N/cm²]	left pressure 4[N/cm²]	left pressure 5[N/cm²]	left pressure 6[N/cm²]	left pressure 7[N/cm²]	left pressure 8[N/cm²]	left pressure 9[N/cm²]	left pressure 10[N/cm²]	left pressure 11[N/cm²]	left pressure 12[N/cm²]	left pressure 13[N/cm²]	left pressure 14[N/cm²]	left pressure 15[N/cm²]	left pressure 16[N/cm²]	left acceleration X[g]	left acceleration Y[g]	left acceleration Z[g]	left angular X[dps]	left angular Y[dps]	left angular Z[dps]	left total force[N]	left center of pressure X[%]	left center of pressure Y[%]	right pressure 1[N/cm²]	right pressure 2[N/cm²]	right pressure 3[N/cm²]	right pressure 4[N/cm²]	right pressure 5[N/cm²]	right pressure 6[N/cm²]	right pressure 7[N/cm²]	right pressure 8[N/cm²]	right pressure 9[N/cm²]	right pressure 10[N/cm²]	right pressure 11[N/cm²]	right pressure 12[N/cm²]	right pressure 13[N/cm²]	right pressure 14[N/cm²]	right pressure 15[N/cm²]	right pressure 16[N/cm²]	right acceleration X[g]	right acceleration Y[g]	right acceleration Z[g]	right angular X[dps]	right angular Y[dps]	right angular Z[dps]	right total force[N]	right center of pressure X[%]	right center of pressure Y[%]
0.00	3.25	3.50	4.50	5.75	4.25	8.25	0.50	6.25	1.00	1.50	1.75	2.25	5.75	7.75	1.25	1.00	-0.215332	0.086426	0.953125	-3.150000	7.140000	-1.610000	623.00	-0.03	-0.14																									
0.01	3.50	3.75	4.25	5.75	4.25	8.25	0.50	6.25	0.75	1.50	2.00	2.50	5.50	8.00	1.25	1.00	-0.216797	0.082520	0.947266	-3.290000	7.420000	-1.680000	627.00	-0.03	-0.14																									
0.02	3.25	3.50	4.25	5.75	4.25	8.25	0.50	6.00	1.00	1.75	1.75	2.25	5.50	7.75	1.25	0.75	-0.212402	0.078125	0.954590	-3.430000	7.140000	-1.750000	616.00	-0.03	-0.14	0.25	0.25	0.00	0.75	0.00	0.00	0.00	0.00	0.00	0.50	0.25	0.25	0.00	0.00	0.00	0.00	-0.165527	-0.064941	0.832520	-11.130000	-90.300003	27.160000	24.00	0.00	0.00
0.03	3.50	3.75	4.50	5.75	4.25	8.00	0.50	6.00	1.25	1.50	1.50	2.25	5.50	7.75	1.25	1.00	-0.213867	0.077637	0.958984	-3.850000	7.560000	-1.890000	620.00	-0.03	-0.13	0.25	0.00	0.00	1.00	0.00	0.00	0.00	0.00	0.00	0.50	0.25	0.00	0.00	0.00	0.00	0.00	-0.304199	-0.022461	0.809570	-23.100000	-88.059998	31.219999	21.00	0.00	0.00
0.04	3.50	2.75	4.25	5.75	4.25	8.00	0.25	6.00	0.75	1.50	1.50	2.00	5.50	7.50	1.25	1.00	-0.209961	0.081055	0.955078	-4.200000	8.400000	-2.100000	593.00	-0.03	-0.14	0.50	0.00	0.00	0.75	0.00	0.00	0.00	0.00	0.00	0.50	0.25	0.25	0.00	0.00	0.00	0.00	-0.431641	0.049805	0.800293	-31.360001	-83.720001	34.369999	24.00	0.00	0.00
0.05	3.25	3.25	4.25	5.50	4.00	8.00	0.25	5.75	0.50	1.50	1.50	2.00	5.25	7.50	1.25	0.75	-0.213867	0.083984	0.954102	-4.690000	9.170000	-2.380000	579.00	-0.04	-0.14	0.50	0.00	0.00	1.00	0.00	0.00	0.00	0.00	0.00	0.75	0.25	0.25	0.00	0.00	0.00	0.00	-0.682617	0.244629	0.775391	-39.410000	-72.870003	39.970001	29.00	0.00	0.00
0.06	3.25	3.25	4.25	5.50	4.00	7.75	0.25	5.75	1.00	1.50	1.50	2.00	5.25	7.25	1.25	0.75	-0.217773	0.076660	0.952148	-5.040000	9.940000	-2.520000	581.00	-0.03	-0.14	0.25	0.00	0.00	1.00	0.00	0.00	0.00	0.00	0.00	0.75	0.00	0.25	0.00	0.00	0.00	0.00	-0.682617	0.244629	0.775391	-39.410000	-72.870003	39.970001	24.00	0.00	0.00
0.07	3.25	3.25	4.00	5.25	3.75	7.50	0.25	5.50	1.00	1.25	1.50	2.00	5.00	7.50	1.00	0.75	-0.222656	0.083496	0.951660	-5.180000	10.430000	-2.590000	561.00	-0.03	-0.14	0.25	0.00	0.00	1.00	0.00	0.00	0.00	0.00	0.00	0.50	0.25	0.25	0.00	0.00	0.00	0.00	-0.782227	0.309082	0.701660	-39.270000	-65.519997	42.349998	24.00	0.00	0.00
0.08	3.00	3.25	4.25	5.25	3.75	7.50	0.25	5.50	0.75	1.50	1.50	1.75	5.00	7.25	1.00	0.75	-0.221680	0.077637	0.954590	-5.040000	10.430000	-2.520000	555.00	-0.04	-0.14	0.25	0.00	0.00	1.00	0.00	0.00	0.00	0.00	0.00	0.25	0.25	0.25	0.00	0.00	0.00	0.00	-0.878906	0.333496	0.564941	-37.799999	-53.619999	42.770000	21.00	0.00	0.00
0.09	3.00	3.25	4.00	5.25	3.50	7.25	0.25	5.25	1.00	1.25	1.50	2.00	4.75	7.00	1.25	0.75	-0.215332	0.075195	0.961426	-4.690000	10.360000	-2.310000	545.00	-0.03	-0.14	0.25	0.00	0.25	0.50	0.00	0.00	0.00	0.00	0.00	0.50	0.25	0.00	0.00	0.00	0.00	0.00	-0.937988	0.316895	0.362793	-34.509998	-34.720001	40.110001	19.00	0.00	0.00
0.10	3.25	3.00	4.00	5.25	3.50	7.25	0.25	5.25	0.75	1.00	1.25	1.50	4.50	7.00	1.25	0.75	-0.219727	0.078613	0.961426	-4.410000	10.360000	-2.170000	529.00	-0.04	-0.14	0.25	0.00	0.25	1.00	0.00	0.00	0.00	0.00	0.00	0.50	0.25	0.00	0.00	0.00	0.00	0.00	-0.942383	0.295410	0.192871	-30.240000	-7.000000	34.650002	24.00	0.00	0.00
0.11	3.00	3.00	3.75	5.00	3.25	7.00	0.25	5.00	0.50	1.25	1.25	1.50	4.25	6.75	1.25	0.75	-0.218750	0.075684	0.944336	-4.130000	10.220000	-2.100000	507.00	-0.04	-0.14	0.50	0.00	0.00	1.00	0.00	0.00	0.00	0.00	0.00	0.50	0.25	0.25	0.00	0.00	0.00	0.00	-1.426758	-0.760742	-0.001465	-65.309998	51.660000	3.150000	27.00	0.00	0.00
0.12	3.00	3.00	3.75	5.00	3.25	7.00	0.25	5.00	0.75	1.25	1.25	1.50	4.25	6.75	1.00	0.50	-0.224609	0.074707	0.950684	-4.060000	9.730000	-2.030000	506.00	-0.04	-0.14	0.50	0.00	0.25	1.00	0.00	0.00	0.00	0.00	0.00	1.00	0.50	0.25	0.25	0.25	0.00	0.00	-1.368652	1.062988	2.288086	-138.250000	121.379997	-46.480000	41.00	0.00	0.00
0.13	3.00	3.00	3.75	5.00	3.25	7.00	0.25	4.75	0.75	1.00	1.00	1.50	4.00	6.25	1.00	0.50	-0.220703	0.071289	0.943848	-3.920000	9.100000	-1.890000	491.00	-0.05	-0.14	0.25	0.00	0.25	0.75	0.00	0.00	0.00	0.00	0.00	1.00	0.50	0.75	0.25	0.00	0.00	0.00	-0.406738	-0.175293	1.151367	-102.970001	-14.980000	-21.700001	39.00	0.00	0.00
0.14	3.00	3.00	3.75	5.00	2.75	6.75	0.25	4.75	0.00	1.25	1.25	1.50	3.75	6.50	0.75	0.50	-0.229004	0.076172	0.943848	-3.640000	8.400000	-1.680000	475.00	-0.05	-0.14	0.75	0.00	0.75	1.75	0.25	0.00	0.00	0.50	0.00	1.00	0.75	0.50	0.25	0.00	0.00	0.00	-0.112305	0.049805	1.009277	-26.950001	-24.639999	-12.040000	71.00	-0.08	-0.12
0.15	3.00	2.75	3.75	5.00	3.00	6.75	0.25	4.25	0.50	1.25	1.00	1.50	3.75	6.25	1.00	0.50	-0.221191	0.076172	0.941406	-3.500000	7.840000	-1.680000	473.00	-0.05	-0.13	1.00	0.50	1.00	2.00	0.50	0.00	0.00	0.25	0.00	1.25	0.50	0.50	0.50	0.00	0.00	0.00	-0.202148	0.157715	0.948242	-11.900000	-21.770000	-2.450000	85.00	-0.12	-0.09
0.16	3.00	3.00	3.75	5.00	2.75	6.75	0.25	4.25	0.50	1.00	1.00	1.25	3.50	6.25	1.00	0.50	-0.222656	0.070312	0.945801	-2.800000	6.790000	-1.470000	465.00	-0.05	-0.13	1.25	0.50	1.25	2.25	0.75	0.50	0.00	0.75	0.25	1.25	0.75	0.50	0.50	0.00	0.00	0.00	-0.225098	0.100098	0.977539	-12.460000	-21.420000	0.630000	115.00	-0.11	-0.10
0.17	3.00	3.00	3.75	5.00	3.00	6.50	0.25	4.25	0.75	1.00	1.00	1.25	3.25	6.00	1.00	0.50	-0.223633	0.072266	0.948730	-2.520000	6.230000	-1.260000	464.00	-0.05	-0.13	1.75	0.50	1.50	2.25	1.00	0.50	0.00	0.75	0.00	1.50	1.00	1.00	0.75	0.00	0.00	0.00	-0.192383	0.078613	0.998047	-7.210000	-18.900000	0.560000	135.00	-0.10	-0.11
0.18	3.50	3.00	4.00	5.00	2.75	6.50	0.25	4.00	0.50	1.00	1.25	1.25	3.25	5.75	1.00	0.50	-0.222168	0.072754	0.942383	-2.450000	5.880000	-1.330000	462.00	-0.06	-0.13	1.75	0.75	2.00	3.25	1.25	0.75	0.00	1.00	0.00	1.50	0.75	0.75	1.00	0.00	0.00	0.00	-0.198730	0.126465	0.970215	-2.380000	-15.120000	0.630000	160.00	-0.13	-0.12
0.19	3.25	3.00	4.00	5.00	3.00	6.50	0.25	4.00	0.25	1.00	0.75	1.25	3.00	5.75	0.75	0.25	-0.219727	0.076660	0.941406	-2.240000	5.670000	-1.330000	448.00	-0.07	-0.13	2.00	1.00	2.00	3.50	1.25	1.25	0.00	1.00	0.00	1.25	1.00	1.00	1.00	0.25	0.00	0.00	-0.192383	0.114746	0.978027	-3.500000	-11.130000	0.980000	178.00	-0.13	-0.12
0.20	3.50	3.25	4.00	5.00	2.75	6.50	0.25	4.00	0.25	1.25	1.00	1.25	3.00	5.75	0.75	0.50	-0.219238	0.072266	0.947754	-2.240000	5.670000	-1.470000	457.00	-0.07	-0.13	2.00	1.00	1.75	3.25	1.25	1.25	0.00	1.00	0.00	1.50	0.75	1.00	1.00	0.00	0.00	0.00	-0.200684	0.088379	0.988281	-2.520000	-7.910000	1.470000	170.00	-0.13	-0.13
0.21	3.50	3.50	4.00	5.25	2.75	6.50	0.25	4.00	0.25	1.00	1.00	1.00	3.00	5.75	1.00	0.25	-0.220703	0.076660	0.953613	-2.380000	5.880000	-1.540000	458.00	-0.07	-0.13	2.00	0.75	1.75	3.25	1.25	1.25	0.25	1.00	0.00	1.50	0.75	1.00	1.50	0.25	0.00	0.00	-0.197754	0.110840	0.978516	0.630000	-6.020000	2.100000	178.00	-0.11	-0.12
0.22	3.75	3.50	4.25	5.00	2.75	6.50	0.25	4.00	0.25	1.00	1.00	1.25	3.00	5.75	0.75	0.25	-0.221680	0.073730	0.950195	-2.310000	6.020000	-1.540000	460.00	-0.08	-0.12	2.00	1.00	2.25	3.25	1.25	1.50	0.00	1.25	0.00	1.25	0.75	0.75	1.50	0.25	0.00	0.00	-0.194336	0.115723	0.970215	1.470000	-5.110000	2.660000	184.00	-0.13	-0.13
0.23	3.75	3.50	4.00	5.25	2.75	6.50	0.25	4.00	1.00	0.75	1.00	1.00	2.75	5.75	0.75	0.25	-0.222656	0.069824	0.946289	-2.240000	6.440000	-1.540000	463.00	-0.08	-0.12	1.75	1.25	2.00	3.00	1.25	1.75	0.00	1.25	0.00	1.50	0.75	1.00	1.50	0.25	0.00	0.00	-0.179199	0.087402	0.970215	1.610000	-4.900000	2.800000	186.00	-0.12	-0.14
0.24	3.75	3.25	4.25	5.00	2.75	6.50	0.25	3.75	0.50	0.75	1.00	1.00	3.00	5.75	1.00	0.25	-0.221191	0.068848	0.950684	-1.890000	6.370000	-1.400000	455.00	-0.07	-0.12	2.00	1.00	2.25	3.50	1.25	1.50	0.00	1.50	0.00	1.50	0.75	0.75	1.50	0.00	0.00	0.00	-0.195312	0.113281	0.959473	1.190000	-5.180000	2.380000	191.00	-0.13	-0.14
0.25	3.75	3.50	4.00	5.25	2.75	6.50	0.25	3.75	0.25	0.75	0.75	0.75	2.75	5.75	0.75	0.25	-0.218750	0.069824	0.949707	-1.610000	6.510000	-1.330000	444.00	-0.09	-0.12	2.00	1.25	2.00	3.25	1.50	2.00	0.25	1.25	0.00	1.25	0.50	1.00	1.50	0.50	0.00	0.25	-0.200195	0.117188	0.960938	-0.560000	-5.530000	1.680000	199.00	-0.12	-0.13
0.26	3.75	3.25	4.25	5.25	2.75	6.50	0.25	3.75	0.00	0.75	1.00	1.25	3.00	5.50	0.75	0.25	-0.223145	0.075684	0.953613	-1.610000	6.790000	-1.400000	449.00	-0.08	-0.13	2.25	0.75	2.00	3.50	1.50	1.75	0.00	1.25	0.25	1.25	0.75	1.00	1.75	0.25	0.00	0.00	-0.191406	0.115723	0.965820	-2.730000	-5.880000	0.840000	197.00	-0.12	-0.13
0.27	3.75	3.25	4.00	5.25	2.50	6.50	0.25	3.75	0.25	1.00	0.75	1.25	2.75	5.50	0.75	0.25	-0.224609	0.072266	0.948242	-1.540000	7.140000	-1.400000	445.00	-0.08	-0.13	2.00	1.00	2.00	3.50	1.50	1.75	0.25	1.50	0.00	1.25	1.00	1.00	1.25	0.50	0.25	0.00	-0.190430	0.112793	0.965820	-4.620000	-5.950000	0.420000	204.00	-0.11	-0.13
0.28	3.75	3.25	3.75	5.00	2.75	6.50	0.25	3.50	0.00	1.00	0.75	1.00	2.75	5.50	0.75	0.25	-0.223145	0.075684	0.954590	-1.540000	7.210000	-1.540000	432.00	-0.08	-0.12	2.00	1.25	2.25	3.50	1.75	1.75	0.00	1.25	0.00	1.50	0.75	1.25	1.75	0.75	0.25	0.00	-0.192871	0.109375	0.964844	-6.020000	-6.020000	0.070000	214.00	-0.10	-0.13
0.29	3.75	3.25	4.00	5.00	2.75	6.25	0.25	3.75	0.25	1.00	0.75	0.75	2.50	5.50	0.75	0.25	-0.223145	0.075684	0.954590	-1.540000	7.210000	-1.540000	434.00	-0.08	-0.12	2.25	0.75	2.25	3.50	1.75	1.50	0.25	1.25	0.00	1.50	0.75	1.00	1.75	0.75	0.25	0.00	-0.188965	0.102539	0.965820	-7.000000	-6.020000	-0.140000	210.00	-0.10	-0.11
0.30	3.50	3.25	4.00	5.00	2.50	6.50	0.25	3.75	0.25	1.00	1.00	1.00	2.75	5.50	0.75	0.25	-0.216309	0.073730	0.950195	-1.750000	6.930000	-1.540000	439.00	-0.08	-0.13	2.00	1.00	2.25	3.25	1.75	1.75	0.25	1.25	0.00	1.25	1.00	1.00	2.00	0.50	0.25	0.00	-0.198730	0.108398	0.963379	-7.420000	-5.810000	-0.000000	210.00	-0.10	-0.13
0.31	3.75	3.25	4.00	5.00	2.50	6.50	0.25	3.75	0.25	0.75	1.00	1.00	2.75	5.25	0.75	0.25	-0.221191	0.072266	0.952148	-1.820000	6.930000	-1.750000	437.00	-0.08	-0.13	2.25	1.00	2.50	3.75	1.75	1.75	0.25	1.25	0.00	1.25	1.00	1.00	1.75	1.00	0.25	0.00	-0.198730	0.108398	0.963379	-7.420000	-5.810000	-0.000000	223.00	-0.10	-0.11
0.32	3.50	3.25	4.00	5.00	2.50	6.50	0.25	3.75	0.00	0.75	0.75	1.00	2.75	5.75	0.75	0.25	-0.216309	0.071777	0.948730	-1.960000	6.790000	-1.680000	433.00	-0.08	-0.13	2.50	0.75	2.25	3.50	1.75	1.50	0.25	1.25	0.00	1.25	0.75	1.00	1.50	1.00	0.25	0.00	-0.193848	0.103516	0.966797	-7.070000	-5.670000	0.140000	210.00	-0.10	-0.11
0.33	3.50	3.25	4.00	5.00	2.50	6.50	0.25	4.00	0.50	0.75	1.00	1.00	2.75	5.50	0.75	0.50	-0.222656	0.069336	0.944824	-1.820000	6.510000	-1.680000	445.00	-0.08	-0.13	2.25	1.25	2.25	3.50	2.00	1.25	0.25	1.25	0.00	1.50	0.75	1.00	1.75	0.50	0.25	0.00	-0.186523	0.095703	0.970703	-6.510000	-5.600000	0.420000	213.00	-0.11	-0.11
0.34	3.75	3.00	4.00	5.25	2.75	6.50	0.25	3.75	0.50	1.00	0.75	1.25	2.75	5.50	0.75	0.25	-0.215820	0.076172	0.949707	-1.750000	6.510000	-1.750000	448.00	-0.08	-0.12	2.50	0.75	2.50	3.50	1.75	1.75	0.25	1.25	0.00	1.25	0.75	1.00	1.75	1.25	0.25	0.00	-0.189453	0.099609	0.965332	-5.110000	-5.390000	1.120000	220.00	-0.10	-0.11
0.35	3.75	3.25	3.75	5.00	2.50	6.50	0.25	4.00	0.75	1.00	1.00	0.75	2.75	5.75	0.75	0.25	-0.221191	0.073730	0.951660	-1.680000	6.510000	-1.750000	449.00	-0.07	-0.12	2.50	1.00	2.50	3.50	2.00	1.50	0.25	1.25	0.00	1.00	0.75	1.00	1.50	1.25	0.25	0.25	-0.190430	0.106445	0.972656	-4.550000	-5.250000	1.260000	219.00	-0.11	-0.10
0.36	3.50	3.00	4.00	5.00	2.50	6.50	0.25	4.00	0.25	1.00	1.00	1.00	2.75	5.75	1.00	0.25	-0.222168	0.069824	0.942383	-1.400000	6.510000	-1.750000	445.00	-0.07	-0.13	2.50	1.00	2.25	3.75	2.25	1.25	0.25	1.25	0.00	1.25	0.75	1.25	0.75	1.00	0.50	0.25	-0.187012	0.093750	0.968262	-4.060000	-4.830000	1.260000	218.00	-0.11	-0.10
0.37	3.25	3.00	3.75	4.75	2.50	6.50	0.25	4.25	0.25	0.75	0.75	1.00	3.00	5.75	0.75	0.25	-0.218262	0.071289	0.946777	-1.190000	6.790000	-1.540000	435.00	-0.07	-0.13	2.25	1.50	2.50	3.75	2.00	1.50	0.25	1.25	0.00	1.25	0.75	1.00	1.50	1.50	0.50	0.00	-0.187500	0.103516	0.966797	-3.710000	-4.550000	1.330000	230.00	-0.10	-0.10
0.38	3.00	2.50	3.75	4.50	2.50	6.50	0.25	4.25	0.75	1.00	1.25	1.25	3.00	5.75	0.75	0.25	-0.223633	0.070801	0.953125	-0.840000	6.860000	-1.540000	443.00	-0.05	-0.13	2.50	1.25	2.50	3.25	2.00	1.25	0.25	1.25	0.00	1.25	0.75	0.75	1.50	1.25	0.25	0.25	-0.183105	0.105469	0.970703	-3.500000	-4.270000	1.400000	216.00	-0.11	-0.10
0.39	3.25	2.75	3.50	4.50	2.50	6.50	0.25	4.25	0.50	0.75	1.00	1.25	2.75	5.75	0.75	0.50	-0.223145	0.069336	0.952637	-0.560000	6.860000	-1.540000	435.00	-0.06	-0.13	2.50	1.00	2.50	3.50	2.25	1.50	0.25	1.25	0.00	1.00	1.00	1.00	1.75	1.50	0.25	0.00	-0.186035	0.103027	0.966309	-3.500000	-4.060000	1.400000	227.00	-0.10	-0.10
0.40	3.25	2.50	3.75	4.50	2.75	6.50	0.25	4.50	0.50	0.75	1.00	1.25	3.00	6.25	1.00	0.50	-0.221191	0.069824	0.955078	-0.700000	6.790000	-1.610000	451.00	-0.05	-0.13	2.50	1.50	2.50	3.75	2.25	1.50	0.25	1.50	0.00	1.00	0.75	1.00	1.75	1.50	0.50	0.00	-0.187988	0.099609	0.972656	-3.360000	-3.780000	1.400000	238.00	-0.10	-0.11
0.41	2.75	2.50	3.25	4.50	2.50	6.50	0.25	4.50	0.50	0.75	1.00	1.25	3.00	6.50	1.00	0.50	-0.219727	0.073730	0.952637	-0.980000	7.070000	-1.610000	440.00	-0.04	-0.13	2.50	1.00	2.50	3.75	2.25	1.50	0.25	1.50	0.00	1.25	0.75	1.00	1.75	1.50	0.25	0.25	-0.190430	0.101562	0.968750	-3.360000	-3.500000	1.400000	235.00	-0.10	-0.11
0.42	2.75	2.25	3.25	4.50	2.75	6.50	0.25	4.75	0.25	1.00	1.00	1.25	3.25	6.75	1.00	0.50	-0.221680	0.077637	0.950684	-0.840000	7.000000	-1.540000	448.00	-0.04	-0.14	2.50	1.25	2.50	3.25	2.25	1.75	0.25	1.25	0.00	1.25	0.75	1.25	1.75	1.50	0.50	0.25	-0.185059	0.100586	0.969727	-3.570000	-3.430000	1.330000	236.00	-0.09	-0.10
0.43	2.50	2.25	3.25	4.00	2.50	6.50	0.25	4.75	0.75	0.75	1.00	1.25	3.25	6.75	1.00	0.50	-0.216797	0.073730	0.948242	-0.700000	7.140000	-1.540000	441.00	-0.03	-0.13	2.25	1.25	2.50	3.50	2.25	1.50	0.25	1.25	0.00	1.25	0.75	1.00	1.75	1.25	0.50	0.00	-0.189453	0.097656	0.966797	-3.570000	-3.430000	1.260000	227.00	-0.10	-0.10
0.44	2.25	2.25	3.00	4.00	2.50	6.25	0.25	4.75	0.50	1.00	1.00	1.50	3.25	7.00	1.00	0.50	-0.224121	0.073730	0.955078	-0.560000	7.280000	-1.540000	437.00	-0.02	-0.14	2.50	1.25	2.50	3.50	2.25	1.75	0.25	1.25	0.00	1.25	0.75	1.00	2.00	1.50	0.50	0.25	-0.190918	0.100098	0.964355	-3.360000	-3.430000	1.330000	238.00	-0.09	-0.11
0.45	2.25	2.25	3.00	3.50	2.50	6.75	0.25	5.00	0.25	1.00	1.25	1.25	3.25	7.25	1.00	0.50	-0.223145	0.074707	0.947266	-0.770000	7.700000	-1.680000	440.00	-0.02	-0.14	2.25	1.00	2.25	3.75	2.25	1.00	0.25	1.50	0.00	1.00	0.75	1.00	1.75	1.75	0.50	0.25	-0.184082	0.103516	0.962402	-3.430000	-3.570000	1.190000	226.00	-0.08	-0.11
0.46	2.25	2.00	3.00	3.50	2.50	6.50	0.25	5.00	0.75	1.00	1.00	1.25	3.50	7.50	1.00	0.75	-0.225098	0.070312	0.948242	-0.910000	7.910000	-1.680000	444.00	-0.01	-0.13	2.50	0.75	2.75	3.75	2.25	1.50	0.25	1.25	0.00	1.25	0.75	1.00	2.00	1.75	0.50	0.25	-0.188965	0.095215	0.973633	-3.500000	-3.430000	1.190000	239.00	-0.08	-0.10
0.47	2.00	2.00	2.75	3.75	2.50	6.50	0.25	5.00	0.75	1.25	1.25	1.50	3.50	7.50	1.00	0.50	-0.222656	0.070801	0.955078	-1.050000	7.840000	-1.680000	448.00	-0.00	-0.14	2.50	1.00	2.25	3.25	2.50	1.50	0.25	1.50	0.00	1.50	0.75	1.25	2.00	1.75	0.50	0.25	-0.186035	0.101074	0.967285	-3.570000	-3.430000	1.260000	242.00	-0.07	-0.10
0.48	2.00	1.50	2.75	3.75	2.50	6.50	0.25	5.00	0.50	1.00	1.25	1.50	3.75	7.75	1.00	0.50	-0.220703	0.076172	0.952148	-0.910000	7.280000	-1.610000	442.00	-0.00	-0.14	2.25	1.00	2.50	3.75	2.25	1.75	0.25	1.50	0.25	1.25	0.75	1.00	1.75	1.50	0.50	0.25	-0.188965	0.096680	0.971191	-3.430000	-3.500000	1.330000	241.00	-0.08	-0.11
0.49	2.00	2.00	2.75	3.50	2.50	6.25	0.25	5.00	0.50	1.25	1.50	1.25	3.75	8.00	1.25	0.50	-0.224609	0.076660	0.952148	-1.050000	7.350000	-1.610000	448.00	0.00	-0.13	2.25	1.00	2.50	3.50	2.50	1.50	0.25	1.50	0.00	1.25	0.75	1.25	2.00	1.75	0.50	0.25	-0.186523	0.102539	0.966797	-3.290000	-3.570000	1.330000	242.00	-0.08	-0.11
0.50	2.00	2.00	2.50	3.25	2.50	6.25	0.25	5.00	0.75	1.00	1.25	1.50	3.75	8.25	1.25	0.75	-0.219727	0.081055	0.949707	-1.400000	7.560000	-1.890000	447.00	0.01	-0.13	2.50	1.00	2.25	3.50	2.50	1.50	0.25	1.50	0.00	1.50	0.75	1.25	2.25	1.75	0.50	0.25	-0.186035	0.099609	0.963867	-3.220000	-3.500000	1.330000	247.00	-0.07	-0.11
0.51	1.75	1.75	2.75	3.25	2.50	6.50	0.25	5.00	0.50	1.25	1.25	1.75	4.00	8.25	1.25	0.75	-0.226074	0.076172	0.949707	-2.170000	7.840000	-2.170000	452.00	0.01	-0.14	2.00	0.75	2.50	3.00	2.50	1.75	0.25	1.50	0.00	1.25	0.75	1.00	2.00	1.50	0.50	0.25	-0.188965	0.098145	0.965820	-3.150000	-3.430000	1.330000	230.00	-0.07	-0.11
0.52	1.75	1.50	2.50	3.50	2.50	6.25	0.25	5.00	0.75	1.25	1.25	1.50	4.00	8.75	1.25	0.75	-0.223633	0.081055	0.948242	-2.870000	7.840000	-2.240000	452.00	0.02	-0.13	2.00	0.75	2.50	3.25	2.50	1.50	0.25	1.50	0.25	1.50	0.75	1.25	2.25	1.75	0.50	0.25	-0.188477	0.094727	0.969727	-3.010000	-3.290000	1.190000	242.00	-0.06	-0.10
0.53	1.50	1.50	2.50	3.25	2.50	6.25	0.25	5.00	0.75	1.25	1.25	1.50	3.75	8.75	1.25	0.75	-0.228027	0.071289	0.949707	-3.290000	8.120000	-2.520000	444.00	0.02	-0.13	2.00	0.50	2.25	3.25	2.75	1.50	0.25	1.50	0.00	1.25	0.75	1.25	2.00	1.50	0.50	0.50	-0.184570	0.096680	0.963867	-2.870000	-3.080000	1.260000	231.00	-0.06	-0.11
0.54	1.50	1.25	2.50	3.00	2.50	6.25	0.25	5.00	0.75	1.25	1.25	1.50	3.75	9.25	1.25	0.75	-0.226562	0.070801	0.952148	-3.360000	8.260000	-2.520000	443.00	0.03	-0.13	2.00	1.00	2.50	3.75	2.50	1.50	0.25	1.50	0.00	1.50	1.00	1.50	2.00	1.75	0.50	0.25	-0.184082	0.101074	0.970703	-2.800000	-3.010000	1.260000	250.00	-0.06	-0.11
0.55	1.50	1.50	2.25	3.00	2.75	6.00	0.25	5.00	0.75	1.25	1.25	1.50	4.00	9.50	1.50	0.75	-0.221191	0.067871	0.948730	-3.150000	8.120000	-2.590000	450.00	0.04	-0.13	1.75	0.75	2.25	3.00	2.75	1.50	0.25	1.50	0.25	1.25	1.00	1.25	2.50	2.00	0.75	0.50	-0.188965	0.097168	0.969727	-2.730000	-2.520000	1.120000	245.00	-0.03	-0.11
0.56	1.50	1.00	2.25	3.00	2.50	6.00	0.25	5.00	0.50	1.50	1.50	1.50	3.75	9.75	1.50	0.75	-0.224609	0.070801	0.945312	-2.800000	8.190000	-2.520000	444.00	0.04	-0.13	1.75	0.25	2.00	3.25	2.50	1.50	0.25	1.50	0.00	1.50	1.00	1.50	2.00	2.00	0.75	0.25	-0.191895	0.100098	0.971680	-2.660000	-2.170000	1.050000	234.00	-0.03	-0.11
0.57	1.50	1.00	2.00	2.75	2.50	6.00	0.25	5.00	1.00	1.25	1.25	1.75	4.00	9.75	1.25	0.75	-0.231445	0.070312	0.949219	-2.100000	8.050000	-2.170000	442.00	0.05	-0.13	1.75	0.50	2.25	3.25	2.75	1.50	0.25	1.50	0.00	1.25	0.75	1.50	2.25	2.25	0.75	0.25	-0.191895	0.097656	0.973633	-2.660000	-1.820000	1.120000	241.00	-0.04	-0.11
0.58	1.50	1.25	2.25	2.50	2.50	5.75	0.25	5.00	0.75	1.50	1.50	1.75	4.00	10.00	1.50	0.75	-0.231445	0.072266	0.947754	-1.820000	8.190000	-2.030000	449.00	0.05	-0.12	1.75	0.75	2.25	3.50	2.50	1.50	0.25	1.75	0.25	1.50	1.00	1.50	2.25	2.25	0.50	0.25	-0.184082	0.100098	0.972656	-2.590000	-1.820000	1.120000	253.00	-0.04	-0.11
0.59	1.00	1.25	2.00	2.75	2.50	5.75	0.25	5.00	1.50	1.50	1.50	1.75	4.00	10.00	1.75	0.75	-0.230469	0.072754	0.949219	-1.680000	8.120000	-1.890000	456.00	0.06	-0.12	1.75	0.50	2.25	2.50	2.50	1.50	0.25	1.75	0.25	1.50	1.25	1.50	2.50	2.25	0.75	0.25	-0.186035	0.100586	0.969727	-2.520000	-1.890000	1.190000	247.00	-0.01	-0.11
0.60	1.25	0.75	2.00	2.50	2.50	5.75	0.25	5.00	1.00	1.50	1.50	1.75	4.00	10.00	1.50	0.75	-0.231934	0.073242	0.951660	-1.540000	7.840000	-1.750000	442.00	0.06	-0.12	1.50	0.75	2.00	2.75	2.75	1.50	0.25	1.50	0.00	1.50	1.00	1.75	2.00	2.25	0.50	0.25	-0.187988	0.100586	0.969238	-2.520000	-1.890000	1.260000	236.00	-0.03	-0.11
0.61	1.25	1.25	2.00	2.50	2.50	5.75	0.25	5.00	1.25	1.50	1.50	1.75	4.00	10.25	1.25	1.00	-0.228027	0.070312	0.947266	-1.470000	7.770000	-1.750000	451.00	0.06	-0.12	1.50	0.75	2.25	3.00	2.75	1.25	0.25	1.50	0.00	1.50	1.25	1.50	2.50	2.00	0.50	0.50	-0.191406	0.101074	0.967773	-2.520000	-1.750000	1.400000	242.00	-0.03	-0.12
0.62	1.00	1.00	2.00	2.50	2.50	5.75	0.25	5.00	0.75	1.50	1.50	2.00	4.25	10.25	1.50	0.75	-0.228027	0.071289	0.951172	-1.540000	7.700000	-1.680000	445.00	0.07	-0.13	1.00	0.75	1.75	2.75	2.75	1.25	0.25	1.75	0.25	1.50	1.00	1.75	2.50	2.00	0.75	0.25	-0.187988	0.099609	0.965820	-2.590000	-1.960000	1.400000	237.00	-0.01	-0.12
0.63	1.00	1.00	2.00	2.50	2.50	5.75	0.25	5.00	1.25	1.25	1.50	1.75	4.00	10.50	1.50	0.75	-0.234863	0.071289	0.949219	-1.470000	7.490000	-1.610000	447.00	0.07	-0.12	1.75	0.50	2.25	2.75	2.50	1.50	0.25	1.75	0.25	1.75	1.00	2.00	1.75	2.50	0.75	0.25	-0.185059	0.101074	0.961914	-2.660000	-2.030000	1.330000	251.00	-0.01	-0.10
0.64	1.00	0.75	2.00	2.25	2.50	5.50	0.25	5.00	1.50	1.25	1.50	1.75	4.25	10.50	1.25	1.00	-0.229004	0.072266	0.950195	-1.680000	7.420000	-1.680000	443.00	0.07	-0.12	1.50	0.50	2.00	2.75	2.75	1.50	0.25	1.75	0.25	1.75	1.25	1.50	2.25	2.50	0.75	0.25	-0.187012	0.094727	0.970703	-2.590000	-2.100000	1.260000	250.00	-0.01	-0.11
0.65	1.00	1.00	2.00	2.75	2.50	5.50	0.25	5.00	1.00	1.50	1.50	2.00	4.00	10.50	1.50	0.75	-0.234375	0.071777	0.946777	-1.890000	7.210000	-1.680000	449.00	0.07	-0.12	1.75	0.50	2.00	2.75	2.75	1.50	0.25	1.75	0.25	1.50	1.25	1.50	2.50	2.50	0.75	0.50	-0.184570	0.099609	0.969727	-2.660000	-2.170000	1.260000	253.00	-0.01	-0.11
0.66	1.00	1.00	1.75	2.50	2.50	5.75	0.25	5.00	1.25	1.25	1.50	1.75	4.00	10.25	1.50	1.00	-0.228516	0.069336	0.955078	-1.750000	7.140000	-1.680000	443.00	0.07	-0.12	1.25	0.25	1.75	2.50	2.50	1.50	0.25	1.50	0.25	1.50	1.00	1.75	2.00	2.25	0.75	0.50	-0.187012	0.094238	0.966797	-2.520000	-2.170000	1.400000	227.00	0.00	-0.11
0.67	1.00	1.25	1.75	2.25	2.50	5.50	0.25	5.00	1.25	1.50	1.50	2.00	4.00	10.50	1.50	1.00	-0.229980	0.070801	0.949219	-1.820000	6.650000	-1.470000	447.00	0.07	-0.12	1.50	0.50	2.00	2.75	2.50	1.50	0.25	1.75	0.50	1.75	1.25	1.50	2.50	2.75	0.75	0.50	-0.190918	0.092773	0.973633	-2.450000	-2.100000	1.400000	256.00	0.00	-0.10
0.68	1.00	1.00	1.75	2.50	2.50	5.50	0.25	5.00	1.25	1.50	1.50	2.00	4.00	10.50	1.50	1.00	-0.231934	0.070312	0.946289	-1.960000	6.230000	-1.400000	448.00	0.07	-0.12	1.25	0.00	1.75	2.75	2.50	1.50	0.25	1.75	0.25	1.50	1.25	1.75	2.75	2.50	0.75	0.50	-0.193359	0.098145	0.973145	-2.310000	-2.170000	1.400000	243.00	0.01	-0.12
0.69	1.00	1.00	1.75	2.25	2.50	5.50	0.25	5.00	1.25	1.50	1.50	1.50	4.00	10.50	1.50	1.00	-0.228516	0.072754	0.953125	-2.170000	6.370000	-1.610000	440.00	0.07	-0.12	1.50	0.50	1.75	2.75	2.50	1.50	0.25	1.75	0.00	1.50	1.50	1.50	2.75	2.50	0.75	0.50	-0.191406	0.100098	0.968750	-2.170000	-2.240000	1.540000	247.00	-0.00	-0.12
0.70	1.25	1.25	1.75	2.25	2.50	5.50	0.25	4.75	1.25	1.25	1.50	2.00	4.00	10.25	1.50	1.00	-0.235840	0.071289	0.947266	-2.380000	6.370000	-1.610000	441.00	0.07	-0.12	1.50	0.25	1.75	2.50	2.50	1.50	0.25	1.75	0.25	1.50	1.25	1.50	2.75	2.25	0.75	0.50	-0.198242	0.093750	0.967285	-2.170000	-2.100000	1.540000	240.00	0.00	-0.12
0.71	1.00	1.00	1.75	2.50	2.50	5.50	0.25	5.00	1.00	1.50	1.50	1.75	4.00	10.25	1.50	1.00	-0.224609	0.073242	0.949219	-2.310000	6.160000	-1.540000	440.00	0.07	-0.12	1.50	0.25	1.75	2.25	2.50	1.50	0.25	1.75	0.25	1.75	1.25	1.50	2.50	2.50	0.75	0.50	-0.187988	0.095703	0.960938	-2.380000	-2.030000	1.540000	240.00	0.01	-0.11
0.72	1.00	1.50	1.75	2.75	2.50	5.50	0.25	5.00	1.25	1.50	1.25	1.50	4.00	10.25	1.25	0.75	-0.230469	0.070312	0.949707	-2.380000	5.880000	-1.470000	441.00	0.06	-0.12	1.50	0.25	1.50	2.50	2.50	1.50	0.25	1.75	0.25	1.50	1.25	1.50	2.75	2.50	0.75	0.50	-0.192871	0.098633	0.970215	-2.240000	-2.030000	1.540000	240.00	0.01	-0.12
0.73	1.25	1.00	2.00	2.50	2.50	5.50	0.25	5.00	1.00	1.50	1.50	1.75	3.75	10.00	1.50	1.00	-0.230469	0.069824	0.949707	-2.240000	5.740000	-1.470000	441.00	0.06	-0.12	1.25	0.50	1.50	2.50	2.25	1.25	0.25	1.50	0.50	1.75	1.25	1.75	2.75	2.50	0.75	0.50	-0.192383	0.094238	0.972168	-2.100000	-2.170000	1.680000	239.00	0.02	-0.11
0.74	1.25	1.50	1.75	2.25	2.50	5.50	0.25	5.00	0.75	1.25	1.25	1.75	3.75	10.00	1.50	0.75	-0.228027	0.068848	0.953125	-2.170000	5.600000	-1.400000	430.00	0.06	-0.13	1.25	0.00	1.75	2.25	2.50	1.25	0.25	1.75	0.25	1.75	1.25	1.75	2.50	2.50	0.75	0.50	-0.193848	0.096680	0.966797	-2.030000	-2.310000	1.680000	235.00	0.02	-0.11
0.75	1.25	1.25	2.00	2.25	2.50	5.50	0.25	4.75	1.00	1.25	1.50	1.75	3.75	9.75	1.50	0.75	-0.228516	0.070312	0.950684	-2.170000	5.670000	-1.330000	430.00	0.06	-0.12	1.25	0.25	1.50	2.50	2.50	1.25	0.25	1.50	0.25	1.75	1.50	2.00	2.50	2.25	0.75	0.50	-0.191406	0.101074	0.969727	-1.960000	-2.380000	1.680000	237.00	0.02	-0.12
0.76	1.25	1.25	2.25	2.50	2.50	5.25	0.25	5.00	1.00	1.25	1.50	1.50	3.75	9.75	1.50	0.75	-0.228027	0.069824	0.950195	-2.240000	5.670000	-1.330000	434.00	0.05	-0.12	1.25	0.25	1.50	2.50	2.50	1.50	0.25	1.75	0.50	1.75	1.25	1.75	2.50	2.50	0.50	0.50	-0.192383	0.098633	0.973145	-2.030000	-2.520000	1.750000	241.00	0.02	-0.11
0.77	1.50	1.25	2.00	2.75	2.50	5.50	0.25	4.75	0.75	1.50	1.50	1.50	3.75	9.50	1.50	0.75	-0.228516	0.071289	0.956543	-2.170000	5.530000	-1.400000	433.00	0.05	-0.12	1.50	0.25	1.50	2.25	2.25	1.50	0.25	1.75	0.00	1.75	1.25	1.50	2.75	2.50	0.75	0.50	-0.186035	0.092773	0.963379	-1.960000	-2.940000	1.820000	234.00	0.01	-0.12
0.78	1.25	1.50	2.00	2.50	2.50	5.50	0.25	4.75	1.25	1.25	1.25	1.75	3.75	9.50	1.25	0.75	-0.227539	0.064941	0.952148	-2.170000	5.390000	-1.120000	431.00	0.05	-0.12	1.25	0.50	1.50	2.75	2.50	1.25	0.25	1.75	0.25	1.75	1.25	2.00	2.25	2.75	0.75	0.50	-0.187988	0.097168	0.972656	-2.030000	-3.010000	1.750000	245.00	0.02	-0.12
0.79	1.50	1.25	2.00	2.75	2.50	5.50	0.25	4.75	1.00	1.25	1.50	1.50	3.75	9.25	1.25	0.75	-0.228516	0.064941	0.948730	-2.170000	5.390000	-1.120000	429.00	0.05	-0.12	1.25	0.50	1.75	2.50	2.25	1.25	0.25	1.50	0.25	1.75	1.25	1.50	2.75	2.25	1.00	0.50	-0.192871	0.099609	0.969238	-2.100000	-3.010000	1.820000	236.00	0.01	-0.12
0.80	1.50	1.00	2.25	2.50	2.50	5.50	0.25	4.75	1.25	1.25	1.25	1.50	3.75	9.25	1.25	0.75	-0.227539	0.074707	0.952148	-1.960000	5.460000	-1.190000	427.00	0.05	-0.12	1.25	0.75	1.75	2.50	2.50	1.25	0.25	1.50	0.50	1.50	1.25	1.75	3.00	2.50	0.75	0.50	-0.193848	0.097656	0.971191	-2.100000	-3.080000	1.750000	246.00	0.01	-0.11
0.81	1.50	1.50	2.25	2.75	2.50	5.50	0.25	4.75	1.25	1.25	1.25	1.75	3.50	9.25	1.50	0.75	-0.228027	0.068848	0.952148	-2.030000	5.740000	-1.330000	438.00	0.04	-0.12	1.00	0.25	1.50	2.50	2.25	1.25	0.25	1.50	0.25	1.75	1.25	1.25	2.75	2.50	0.75	0.25	-0.193359	0.100098	0.968750	-1.960000	-3.150000	1.890000	224.00	0.02	-0.12
0.82	1.50	1.50	2.25	2.75	2.50	5.75	0.25	4.50	0.75	1.25	1.25	1.50	3.75	9.00	1.25	0.75	-0.228027	0.071289	0.954590	-1.960000	5.880000	-1.260000	425.00	0.04	-0.12	1.25	0.25	1.75	2.50	2.50	1.50	0.25	2.00	0.50	1.75	1.50	1.75	2.75	2.50	0.50	0.25	-0.190430	0.102539	0.967773	-1.960000	-3.360000	1.890000	251.00	0.01	-0.12
0.83	1.50	1.50	2.25	3.00	2.75	5.75	0.25	4.75	0.50	1.00	1.25	1.50	3.50	9.00	1.25	0.75	-0.223145	0.069824	0.950684	-1.820000	6.090000	-1.260000	426.00	0.03	-0.13	1.25	0.00	1.75	2.25	2.50	1.25	0.25	1.75	0.25	1.50	1.25	1.75	2.50	2.25	0.75	0.50	-0.187012	0.098633	0.970703	-1.960000	-3.500000	1.890000	230.00	0.02	-0.12
0.84	1.50	1.50	2.25	2.75	2.75	5.50	0.25	4.50	0.75	1.25	1.25	1.50	3.50	9.00	1.25	0.75	-0.225586	0.068359	0.951172	-1.750000	6.020000	-1.260000	423.00	0.03	-0.12	1.25	0.50	1.75	2.50	2.50	1.50	0.25	1.75	0.50	1.50	1.25	1.75	2.25	2.75	1.00	0.25	-0.181641	0.102051	0.968750	-1.890000	-3.710000	2.100000	247.00	0.02	-0.11
0.85	1.50	1.50	2.25	2.75	2.50	5.75	0.25	4.75	0.75	1.25	1.25	1.50	3.25	8.75	1.50	0.75	-0.227051	0.070801	0.949219	-1.750000	6.160000	-1.260000	425.00	0.03	-0.12	1.50	0.25	1.50	2.75	2.50	1.25	0.25	1.75	0.25	1.50	1.25	1.75	2.75	2.25	0.75	0.50	-0.191895	0.098145	0.964355	-1.890000	-3.710000	2.100000	240.00	0.01	-0.12
0.86	1.50	1.25	2.25	3.00	2.50	5.75	0.25	4.50	1.00	1.00	1.00	1.50	3.50	9.00	1.25	0.50	-0.226074	0.067871	0.944824	-1.750000	6.300000	-1.330000	420.00	0.03	-0.12	1.25	0.25	1.50	2.75	2.50	1.50	0.25	1.75	0.25	1.50	1.25	1.50	2.75	2.25	0.50	0.50	-0.190918	0.101074	0.969238	-1.750000	-3.990000	2.100000	235.00	0.00	-0.13
0.87	1.75	1.50	2.25	3.00	2.50	5.75	0.25	4.50	0.75	1.00	1.25	1.50	3.25	8.75	1.25	0.50	-0.226074	0.071289	0.953125	-1.470000	5.950000	-1.260000	420.00	0.02	-0.12	1.50	0.25	1.75	2.75	2.50	1.50	0.25	1.75	0.25	1.50	1.25	1.75	2.50	2.25	0.75	0.50	-0.186523	0.095215	0.967285	-1.820000	-4.270000	2.170000	244.00	0.00	-0.12
0.88	1.50	1.50	2.50	3.00	2.50	5.75	0.25	4.50	0.50	1.00	1.25	1.50	3.25	8.75	1.25	0.50	-0.220703	0.071289	0.950684	-1.610000	6.020000	-1.260000	417.00	0.02	-0.13	1.50	0.50	1.50	2.75	2.50	1.75	0.25	1.75	0.25	1.50	1.25	1.75	2.75	2.25	0.50	0.50	-0.185547	0.097656	0.966309	-1.820000	-4.410000	2.240000	245.00	-0.00	-0.13
0.89	1.75	1.50	2.25	2.75	2.50	5.75	0.25	4.25	0.75	1.25	1.25	1.25	3.25	8.50	1.25	0.75	-0.223633	0.069336	0.956055	-1.820000	6.790000	-1.400000	412.00	0.03	-0.12	1.50	0.75	1.75	3.25	2.50	1.50	0.25	1.75	0.25	1.50	1.25	1.75	2.75	2.50	0.50	0.50	-0.192383	0.101562	0.972656	-1.890000	-4.550000	2.310000	255.00	-0.01	-0.12
0.90	1.75	1.50	2.50	2.75	2.50	5.50	0.25	4.25	1.00	1.50	1.00	1.50	3.25	8.50	1.25	0.75	-0.231934	0.076172	0.946777	-1.890000	7.000000	-1.400000	418.00	0.03	-0.11	1.50	0.50	1.75	3.00	2.50	1.25	0.25	1.75	0.25	1.50	1.00	1.75	2.25	2.25	0.50	0.25	-0.189941	0.097656	0.967285	-1.890000	-4.550000	2.240000	237.00	-0.02	-0.12
0.91	1.75	1.50	2.50	2.75	2.50	5.50	0.25	4.25	0.75	1.25	1.25	1.50	3.25	8.50	1.25	0.75	-0.230469	0.070312	0.955078	-1.750000	6.580000	-1.260000	415.00	0.03	-0.12	1.50	0.50	1.75	3.25	2.50	1.50	0.25	1.75	0.00	1.50	1.25	1.75	2.50	2.25	0.75	0.50	-0.185059	0.099609	0.969238	-1.960000	-4.340000	2.240000	248.00	-0.01	-0.13
0.92	1.75	1.00	2.50	3.25	2.50	5.50	0.25	4.25	0.75	1.00	1.00	1.25	3.25	8.50	1.25	0.75	-0.228027	0.069824	0.951660	-1.610000	6.370000	-1.260000	408.00	0.02	-0.12	1.75	0.75	1.75	2.75	2.75	1.75	0.25	2.00	0.25	1.50	1.25	1.75	2.50	2.25	0.75	0.25	-0.188477	0.100586	0.968262	-2.170000	-4.130000	2.170000	259.00	-0.02	-0.12
0.93	1.75	1.50	2.50	2.75	2.50	5.50	0.25	4.25	0.50	1.00	1.00	1.25	3.25	8.25	1.25	0.75	-0.231445	0.071777	0.943359	-1.610000	6.440000	-1.190000	402.00	0.02	-0.12	1.50	0.75	1.75	2.75	2.50	1.50	0.25	1.75	0.25	1.50	1.00	1.75	2.75	2.50	0.50	0.50	-0.190918	0.097656	0.971191	-2.100000	-4.200000	2.100000	247.00	-0.01	-0.12
0.94	1.75	1.50	2.50	3.00	2.50	5.50	0.25	4.25	0.75	1.00	1.25	1.50	3.25	8.50	1.25	0.75	-0.227051	0.073242	0.946777	-1.610000	6.370000	-1.260000	415.00	0.02	-0.12	1.50	0.25	1.75	2.75	2.50	1.75	0.25	1.75	0.25	1.50	1.25	1.50	2.75	2.25	0.75	0.50	-0.184082	0.101562	0.966309	-2.240000	-3.920000	2.030000	246.00	-0.00	-0.12
0.95	1.75	1.50	2.50	2.75	2.50	5.50	0.25	4.00	0.50	1.25	1.00	1.50	3.25	8.25	1.25	0.75	-0.228027	0.069336	0.956055	-1.680000	6.440000	-1.470000	403.00	0.02	-0.12	1.50	0.75	2.00	3.25	2.50	2.00	0.25	2.00	0.00	1.50	1.25	1.75	2.50	2.25	0.75	0.25	-0.182617	0.102051	0.969238	-2.310000	-3.990000	1.960000	261.00	-0.02	-0.13
0.96	1.75	1.25	2.50	3.00	2.50	5.50	0.25	4.25	1.00	1.00	1.25	1.25	3.25	8.25	1.25	0.75	-0.228516	0.065918	0.945312	-1.750000	6.440000	-1.470000	412.00	0.02	-0.12	1.75	0.50	2.00	3.25	2.50	1.75	0.25	1.75	0.25	1.50	1.25	2.00	2.50	2.25	0.75	0.25	-0.189941	0.098145	0.967285	-2.380000	-4.130000	2.030000	261.00	-0.02	-0.12
0.97	1.50	1.75	2.25	3.00	2.50	5.50	0.25	4.25	0.50	1.25	1.25	1.25	3.00	8.25	1.25	0.50	-0.226562	0.067871	0.953613	-1.750000	6.300000	-1.330000	403.00	0.02	-0.12	1.50	0.50	2.00	3.00	2.50	2.00	0.25	2.00	0.00	1.50	1.00	1.50	2.75	2.00	0.50	0.50	-0.184570	0.101074	0.969238	-2.450000	-4.200000	2.100000	250.00	-0.03	-0.14
0.98	1.75	1.75	2.50	3.00	2.50	5.50	0.25	4.00	0.75	1.00	1.25	1.50	3.00	8.00	1.25	0.50	-0.229492	0.070312	0.950195	-1.680000	6.090000	-1.260000	406.00	0.02	-0.12	1.75	0.50	2.00	3.00	2.75	2.25	0.25	2.00	0.25	1.50	1.25	1.75	2.50	2.00	0.50	0.50	-0.186035	0.099121	0.967285	-2.380000	-4.200000	2.100000	264.00	-0.03	-0.13
0.99	2.00	1.50	2.25	3.00	2.50	5.50	0.25	4.00	0.50	1.00	1.25	1.25	3.25	8.25	1.25	0.75	-0.224609	0.066895	0.949707	-1.750000	6.160000	-1.400000	403.00	0.02	-0.12	1.75	0.75	2.25	3.25	2.75	1.75	0.25	1.75	0.25	2.00	1.00	1.50	2.50	2.25	0.75	0.50	-0.188965	0.095703	0.967285	-2.520000	-4.060000	2.100000	267.00	-0.02	-0.11
1.00	1.50	1.75	2.25	3.00	2.50	5.50	0.25	4.00	0.50	1.00	1.00	1.25	3.00	8.00	1.00	0.50	-0.227539	0.071777	0.947266	-1.680000	6.300000	-1.400000	390.00	0.01	-0.12	2.00	0.25	2.25	3.25	2.75	2.00	0.25	1.75	0.25	1.50	1.00	1.75	2.75	2.00	0.50	0.25	-0.187988	0.103027	0.967285	-2.520000	-4.060000	2.100000	261.00	-0.03	-0.12
1.01	1.75	1.75	2.25	3.00	2.50	5.50	0.25	4.00	0.75	1.00	1.25	1.50	3.00	8.00	1.00	0.50	-0.221680	0.069824	0.952637	-1.750000	6.090000	-1.260000	401.00	0.01	-0.12	1.75	0.75	2.00	3.25	2.75	1.75	0.25	1.75	0.00	1.50	1.00	1.50	2.50	2.25	0.50	0.25	-0.184570	0.100586	0.966309	-2.520000	-3.990000	1.960000	252.00	-0.04	-0.12
1.02	1.75	1.75	2.50	3.00	2.50	5.50	0.25	4.25	0.50	1.00	1.25	1.25	3.25	8.00	1.00	0.50	-0.222168	0.069336	0.952148	-1.750000	6.160000	-1.330000	403.00	0.01	-0.12	1.75	1.25	2.25	3.25	2.75	2.00	0.25	2.00	0.00	1.50	1.25	1.50	2.75	1.75	0.75	0.50	-0.185547	0.104980	0.964355	-2.590000	-3.850000	1.960000	270.00	-0.04	-0.13
1.03	2.00	1.50	2.50	3.25	2.50	5.50	0.25	4.25	0.75	1.00	1.00	1.00	3.00	7.75	1.25	0.50	-0.226562	0.067383	0.948730	-1.820000	6.090000	-1.400000	403.00	0.01	-0.12	1.75	0.75	2.00	3.50	2.75	2.00	0.25	1.75	0.25	1.50	1.25	1.50	2.50	2.00	0.50	0.25	-0.186523	0.096680	0.968750	-2.520000	-3.710000	2.030000	261.00	-0.04	-0.12
1.04	2.00	1.75	2.75	3.25	2.50	5.50	0.25	4.00	0.25	1.00	1.00	1.25	3.00	7.75	1.25	0.50	-0.223633	0.069336	0.952637	-1.820000	6.160000	-1.400000	400.00	-0.00	-0.12	1.75	1.00	2.25	3.50	2.75	2.00	0.25	1.75	0.25	1.50	1.00	1.50	2.50	2.00	0.50	0.25	-0.184082	0.099609	0.970703	-2.520000	-3.780000	1.890000	264.00	-0.05	-0.12
1.05	2.00	1.50	2.50	3.25	2.50	5.50	0.25	4.00	0.50	1.00	1.00	1.25	3.00	7.75	1.25	0.50	-0.226074	0.064453	0.950195	-1.890000	6.020000	-1.260000	398.00	0.01	-0.12	2.00	0.75	2.00	3.50	2.75	2.00	0.25	1.75	0.00	1.50	0.75	1.50	2.75	2.00	0.50	0.25	-0.184570	0.098145	0.962891	-2.660000	-3.710000	1.960000	257.00	-0.05	-0.13
1.06	2.00	1.75	2.75	3.00	2.50	5.50	0.25	4.00	0.50	0.75	1.00	1.00	2.75	7.50	1.25	0.50	-0.226562	0.065430	0.951660	-1.890000	6.160000	-1.260000	391.00	-0.00	-0.12	2.00	1.00	2.25	3.50	2.50	2.00	0.25	1.75	0.00	1.25	1.25	1.50	2.75	2.00	0.50	0.25	-0.189941	0.099121	0.970215	-2.660000	-3.640000	2.030000	262.00	-0.05	-0.13
1.07	2.00	2.00	2.75	3.25	2.50	5.50	0.25	3.75	0.25	0.75	0.75	1.25	2.75	7.50	1.25	0.50	-0.229004	0.067871	0.949707	-1.750000	5.950000	-1.330000	389.00	-0.01	-0.12	1.75	1.00	2.25	3.50	2.75	2.00	0.25	1.75	0.25	1.25	0.75	1.50	2.50	2.00	0.50	0.25	-0.191895	0.099609	0.969727	-2.660000	-3.360000	1.960000	258.00	-0.05	-0.12
1.08	2.25	1.75	3.00	3.25	2.50	5.50	0.25	3.75	0.50	0.75	1.00	1.25	2.75	7.50	1.25	0.50	-0.226562	0.068359	0.950684	-1.960000	6.580000	-1.400000	398.00	-0.01	-0.11	2.00	1.25	2.25	3.50	2.75	2.00	0.25	2.00	0.25	1.50	1.25	1.75	2.50	2.00	0.50	0.50	-0.187988	0.101562	0.968750	-2.660000	-3.290000	1.960000	279.00	-0.05	-0.12
1.09	2.25	1.75	2.75	3.25	2.50	5.50	0.25	3.75	0.50	1.00	1.00	1.25	2.75	7.25	1.25	0.50	-0.227539	0.066406	0.959961	-1.890000	6.580000	-1.400000	396.00	-0.01	-0.12	2.00	1.00	2.25	3.00	2.75	2.00	0.25	2.00	0.25	1.50	1.00	1.50	2.50	2.00	0.50	0.25	-0.187012	0.107910	0.970703	-2.660000	-3.220000	1.750000	265.00	-0.04	-0.12
1.10	2.00	1.75	2.50	3.50	2.50	5.50	0.25	3.75	0.25	0.75	1.00	1.00	2.75	7.25	1.25	0.50	-0.226074	0.062500	0.952637	-1.820000	6.440000	-1.330000	385.00	-0.01	-0.12	2.00	1.00	2.50	3.50	2.75	2.00	0.25	1.75	0.00	1.25	1.00	1.50	2.50	1.75	0.75	0.25	-0.178711	0.102051	0.965332	-2.730000	-3.360000	1.820000	264.00	-0.06	-0.12
1.11	2.25	1.75	2.50	3.25	2.50	5.50	0.25	3.50	0.50	1.00	1.00	1.25	2.75	7.25	1.00	0.50	-0.224121	0.066895	0.953613	-1.540000	6.160000	-1.120000	387.00	-0.01	-0.12	2.00	0.75	2.50	3.50	2.75	2.00	0.25	1.75	0.00	1.75	0.75	1.50	2.50	2.00	0.75	0.50	-0.184082	0.103027	0.965332	-2.520000	-3.290000	1.890000	267.00	-0.05	-0.12
1.12	2.50	2.00	2.75	3.25	2.50	5.25	0.25	3.75	0.50	1.00	1.25	1.00	2.50	7.00	1.00	0.50	-0.229980	0.068359	0.952148	-1.610000	6.930000	-1.330000	391.00	-0.02	-0.11	2.00	0.75	2.50	3.25	2.75	2.25	0.25	1.75	0.25	1.25	1.00	1.50	2.25	2.00	0.75	0.25	-0.185547	0.099609	0.968750	-2.450000	-3.220000	1.960000	265.00	-0.05	-0.11
1.13	2.00	2.00	2.50	3.50	2.50	5.50	0.25	3.75	0.75	0.75	1.25	1.00	2.50	7.00	1.00	0.50	-0.225098	0.063965	0.949707	-1.400000	6.860000	-1.190000	389.00	-0.01	-0.12	1.75	1.00	2.50	3.75	2.75	2.00	0.25	1.75	0.00	1.25	1.00	1.25	2.25	1.75	0.50	0.50	-0.185547	0.099609	0.968750	-2.450000	-3.290000	1.960000	258.00	-0.06	-0.12
1.14	2.00	2.00	2.75	3.25	2.50	5.50	0.25	3.50	0.50	0.75	1.00	1.00	2.50	6.75	1.25	0.50	-0.222168	0.068359	0.948730	-1.330000	6.790000	-1.260000	380.00	-0.01	-0.12	2.00	1.00	2.25	3.50	2.75	2.25	0.25	1.75	0.25	1.50	1.50	1.50	2.50	2.00	0.50	0.50	-0.192871	0.099609	0.965820	-2.590000	-3.430000	1.890000	276.00	-0.04	-0.12
1.15	2.00	2.00	2.75	3.50	2.25	5.50	0.25	3.50	0.75	1.00	1.00	1.00	2.75	6.75	1.00	0.50	-0.221191	0.072266	0.952148	-1.260000	6.930000	-1.330000	386.00	-0.01	-0.12	2.00	1.00	2.75	3.75	2.75	2.00	0.25	1.75	0.00	1.50	1.00	1.50	2.50	2.00	0.75	0.25	-0.186523	0.103516	0.970215	-2.450000	-3.500000	2.030000	274.00	-0.06	-0.12
1.16	2.50	2.00	2.75	3.50	2.50	5.50	0.25	3.50	0.25	1.00	1.00	1.00	2.50	6.50	1.00	0.50	-0.225586	0.065918	0.951660	-1.260000	7.070000	-1.400000	383.00	-0.03	-0.12	2.00	0.75	2.25	3.75	2.75	2.25	0.25	1.75	0.00	1.50	1.00	1.50	2.50	2.25	0.50	0.25	-0.182617	0.099609	0.968262	-2.520000	-3.570000	1.960000	268.00	-0.05	-0.12
1.17	2.50	1.75	2.75	3.50	2.50	5.25	0.25	3.25	0.25	1.00	1.00	1.00	2.50	6.50	1.00	0.50	-0.225098	0.067871	0.948730	-1.190000	7.070000	-1.400000	374.00	-0.02	-0.11	2.25	1.00	2.50	3.25	2.75	2.00	0.25	2.00	0.00	1.00	1.00	1.50	2.50	2.00	0.50	0.25	-0.184082	0.098145	0.970703	-2.450000	-3.640000	1.960000	264.00	-0.06	-0.12
1.18	2.25	2.25	2.75	3.50	2.50	5.25	0.25	3.50	0.50	1.00	1.00	1.00	2.25	6.25	1.00	0.50	-0.229492	0.071777	0.950684	-1.120000	7.070000	-1.400000	379.00	-0.03	-0.12	2.00	1.00	2.50	3.75	2.75	2.00	0.25	1.75	0.25	1.25	1.00	1.50	2.50	1.75	0.50	0.25	-0.188477	0.101074	0.970703	-2.450000	-3.500000	1.890000	267.00	-0.06	-0.12
1.19	2.25	2.00	3.00	3.50	2.50	5.75	0.25	3.25	0.50	0.75	1.00	1.25	2.50	6.25	1.00	0.50	-0.222656	0.070312	0.956543	-1.050000	7.000000	-1.330000	383.00	-0.03	-0.12	2.00	1.00	2.50	3.50	2.75	2.00	0.25	1.75	0.00	1.50	1.00	1.25	2.50	2.00	0.50	0.50	-0.184082	0.102051	0.968750	-2.380000	-3.500000	1.960000	264.00	-0.06	-0.12
1.20	2.50	1.75	2.75	3.50	2.50	5.50	0.25	3.25	0.75	1.00	1.00	1.00	2.50	6.25	1.00	0.50	-0.225098	0.067871	0.954590	-1.190000	6.930000	-1.260000	381.00	-0.02	-0.11	2.25	1.00	2.50	3.50	2.75	2.25	0.25	1.75	0.00	1.25	1.25	1.50	2.25	1.75	0.50	0.50	-0.179199	0.100586	0.967285	-2.310000	-3.430000	1.890000	268.00	-0.06	-0.12
1.21	2.25	2.25	3.00	3.50	2.50	5.75	0.25	3.25	0.50	1.00	1.00	1.00	2.50	6.00	1.00	0.50	-0.225098	0.067871	0.954590	-1.190000	6.930000	-1.260000	383.00	-0.03	-0.12	2.25	0.75	2.75	3.50	2.75	2.25	0.25	2.00	0.25	1.25	1.00	1.50	2.50	1.75	0.50	0.25	-0.186035	0.095215	0.975098	-2.450000	-3.430000	1.890000	274.00	-0.06	-0.12
1.22	2.50	2.00	3.00	3.75	2.50	5.50	0.25	3.25	0.50	1.00	1.00	1.00	2.50	5.75	1.00	0.50	-0.231934	0.069336	0.951660	-1.260000	7.140000	-1.260000	381.00	-0.04	-0.12	2.25	1.00	2.50	3.75	2.75	2.25	0.25	1.75	0.00	1.25	0.75	1.25	2.25	1.75	0.50	0.25	-0.184082	0.092285	0.966797	-2.380000	-3.500000	2.030000	262.00	-0.08	-0.12
1.23	2.25	1.75	3.00	3.75	2.50	5.50	0.25	3.00	0.50	1.00	1.00	1.25	2.50	5.75	1.00	0.50	-0.226562	0.067383	0.946289	-1.260000	7.140000	-1.330000	375.00	-0.03	-0.12	2.25	1.00	2.75	3.50	2.75	2.00	0.25	1.75	0.00	1.25	1.00	1.50	2.50	1.75	0.50	0.25	-0.182617	0.103027	0.970215	-2.380000	-3.570000	1.890000	266.00	-0.07	-0.12
1.24	2.25	2.25	3.00	3.75	2.25	5.50	0.25	3.00	0.50	1.00	1.00	1.00	2.25	5.75	1.00	0.25	-0.227051	0.073730	0.943359	-1.330000	7.000000	-1.190000	371.00	-0.04	-0.11	2.25	1.25	2.75	3.75	3.00	2.00	0.25	2.00	0.25	1.50	1.00	1.25	2.50	1.75	0.50	0.25	-0.182129	0.094727	0.971191	-2.310000	-3.360000	1.960000	281.00	-0.07	-0.11
1.25	2.50	2.00	2.75	3.75	2.25	5.50	0.25	3.00	0.50	1.00	1.00	1.25	2.50	5.75	0.75	0.50	-0.226074	0.070801	0.953125	-1.190000	6.860000	-1.190000	372.00	-0.04	-0.12	2.50	1.00	2.50	4.00	2.75	2.00	0.25	2.00	0.00	1.25	1.25	1.50	2.25	2.00	0.50	0.25	-0.186035	0.092285	0.970215	-2.380000	-3.360000	1.890000	278.00	-0.07	-0.12
1.26	2.50	2.25	3.00	3.75	2.50	5.50	0.25	3.00	0.25	1.00	1.25	1.00	2.25	5.50	0.75	0.50	-0.224609	0.072754	0.952148	-1.260000	6.860000	-1.260000	372.00	-0.05	-0.12	2.00	1.00	2.75	4.25	2.75	2.00	0.25	1.75	0.00	1.25	1.50	1.50	2.25	1.75	0.50	0.25	-0.180664	0.099609	0.971191	-2.240000	-3.360000	1.890000	275.00	-0.07	-0.12
1.27	2.75	2.25	2.75	3.75	2.25	5.50	0.25	3.00	0.50	1.00	1.00	1.00	2.25	5.50	0.75	0.50	-0.225098	0.072754	0.949219	-1.260000	7.000000	-1.260000	370.00	-0.05	-0.12	2.25	1.25	2.75	3.75	2.75	2.25	0.25	1.75	0.00	1.50	1.00	1.50	2.25	1.75	0.50	0.25	-0.184570	0.097656	0.972168	-2.310000	-3.360000	2.030000	275.00	-0.07	-0.12
1.28	2.50	2.00	2.75	3.75	2.25	5.50	0.25	2.75	0.50	1.00	0.75	1.00	2.25	5.50	0.75	0.50	-0.234375	0.062500	0.951660	-0.980000	6.720000	-1.120000	359.00	-0.04	-0.11	2.25	1.25	2.75	3.75	2.75	2.50	0.25	1.75	0.00	1.25	0.75	1.25	2.25	2.00	0.50	0.25	-0.184570	0.098633	0.972168	-2.310000	-3.290000	1.960000	272.00	-0.08	-0.12
1.29	2.75	2.50	3.00	3.50	2.25	5.25	0.25	3.00	0.25	1.00	1.00	1.00	2.25	5.25	0.75	0.25	-0.229492	0.067871	0.956055	-0.280000	6.370000	-1.050000	363.00	-0.05	-0.12	2.50	1.25	2.75	3.75	2.75	2.50	0.25	1.75	0.00	1.25	0.75	1.25	2.25	1.75	0.25	0.25	-0.182129	0.097656	0.968262	-2.380000	-3.290000	2.100000	269.00	-0.09	-0.12
1.30	2.75	2.25	3.00	4.00	2.25	5.50	0.25	3.00	0.00	1.00	0.75	0.75	2.25	5.25	1.00	0.25	-0.231934	0.062012	0.954590	0.840000	5.600000	-0.910000	363.00	-0.06	-0.12	2.50	1.00	2.75	3.50	2.75	2.25	0.25	1.75	0.25	1.25	1.25	1.25	2.25	2.00	0.50	0.25	-0.188477	0.096191	0.972168	-2.380000	-3.220000	2.030000	275.00	-0.07	-0.11
1.31	2.75	2.25	3.00	3.75	2.25	5.50	0.25	3.00	0.25	0.75	1.00	1.00	2.25	5.00	0.75	0.25	-0.229004	0.062988	0.958984	2.940000	5.180000	-0.560000	361.00	-0.06	-0.12	2.25	1.00	2.50	3.75	2.75	2.25	0.25	1.75	0.00	1.25	0.75	1.25	2.25	1.75	0.50	0.25	-0.188477	0.096191	0.972168	-2.380000	-3.220000	2.030000	262.00	-0.08	-0.12
1.32	3.00	2.50	3.25	4.25	2.00	5.50	0.25	3.00	0.25	0.75	0.50	0.50	2.25	5.00	0.75	0.25	-0.241699	0.064453	0.964844	4.900000	4.550000	-0.210000	361.00	-0.08	-0.12	2.50	1.25	2.75	4.25	2.75	2.25	0.25	1.75	0.00	1.50	0.75	1.25	2.50	1.75	0.50	0.50	-0.182129	0.099121	0.966797	-2.310000	-3.220000	2.030000	281.00	-0.08	-0.12
1.33	3.00	2.75	3.25	4.50	2.00	6.00	0.25	3.00	0.00	0.50	0.50	0.75	2.25	4.25	0.50	0.25	-0.233398	0.067871	0.956543	7.000000	3.990000	0.280000	359.00	-0.10	-0.13	2.50	1.00	2.75	3.75	2.75	2.00	0.25	1.75	0.00	1.25	1.00	1.25	2.00	1.75	0.50	0.25	-0.180664	0.099609	0.970215	-2.310000	-3.430000	1.960000	265.00	-0.08	-0.11
1.34	3.25	2.75	3.50	4.50	2.00	6.00	0.25	3.00	0.00	0.25	0.50	0.75	2.00	4.00	0.50	0.25	-0.232422	0.074707	0.955078	7.420000	3.920000	0.560000	358.00	-0.11	-0.13	2.50	1.50	2.75	4.00	2.75	2.25	0.25	1.75	0.00	1.25	0.75	1.25	2.50	1.75	0.25	0.50	-0.182129	0.103516	0.965332	-2.240000	-3.430000	1.960000	275.00	-0.09	-0.12
1.35	3.75	3.25	3.50	4.75	2.00	6.25	0.25	3.00	0.00	0.50	0.75	0.75	2.00	4.00	0.50	0.00	-0.239746	0.075684	0.962402	8.890000	4.270000	0.490000	377.00	-0.11	-0.13	2.50	1.00	2.75	4.25	2.75	2.25	0.25	1.75	0.25	1.25	0.75	1.00	2.50	2.00	0.25	0.25	-0.185059	0.098633	0.971191	-2.380000	-3.430000	1.960000	275.00	-0.08	-0.11
1.36	4.00	3.25	3.75	5.00	2.00	6.50	0.00	2.75	0.00	0.50	0.50	0.50	2.00	2.75	0.50	0.00	-0.293945	0.058594	0.939453	11.340000	6.580000	0.280000	364.00	-0.14	-0.14	2.75	1.25	2.75	4.00	2.75	2.00	0.25	1.75	0.00	1.25	0.75	1.50	2.25	1.75	0.50	0.25	-0.186035	0.099121	0.964844	-2.520000	-3.500000	1.960000	275.00	-0.09	-0.11
1.37	4.25	3.75	4.00	5.25	2.00	6.50	0.00	2.75	0.00	0.50	0.25	0.75	1.75	2.75	0.50	0.00	-0.231934	0.078125	0.959961	13.370000	5.810000	0.770000	375.00	-0.15	-0.13	2.50	1.25	2.75	4.00	3.00	2.50	0.25	1.75	0.00	1.25	0.75	1.50	2.50	2.00	0.25	0.25	-0.182129	0.101562	0.967285	-2.520000	-3.570000	2.100000	282.00	-0.08	-0.12
1.38	5.25	4.50	4.25	5.50	2.00	6.50	0.00	2.75	0.00	0.25	0.25	0.25	1.50	2.00	0.25	0.00	-0.225586	0.079590	0.976074	15.680000	3.780000	0.700000	379.00	-0.19	-0.13	2.75	1.50	3.00	3.75	2.75	2.50	0.25	1.75	0.00	1.25	0.75	1.25	2.25	1.75	0.75	0.25	-0.185059	0.099121	0.971191	-2.450000	-3.500000	2.170000	282.00	-0.09	-0.11
1.39	6.25	5.00	4.25	5.75	2.00	6.50	0.00	2.75	0.00	0.25	0.25	0.50	1.50	2.00	0.25	0.00	-0.223633	0.086426	0.958496	17.639999	2.030000	0.420000	399.00	-0.19	-0.12	2.50	1.25	3.00	4.25	3.00	2.25	0.25	1.75	0.00	1.50	0.75	1.50	2.25	1.75	0.50	0.25	-0.186035	0.099609	0.971191	-2.450000	-3.500000	2.030000	286.00	-0.09	-0.11
1.40	6.50	5.25	4.50	5.75	1.75	6.75	0.00	2.50	0.00	0.00	0.25	0.50	1.50	1.75	0.25	0.00	-0.220215	0.097656	0.951172	19.180000	0.420000	0.630000	398.00	-0.21	-0.12	2.75	1.25	2.75	4.00	2.75	2.50	0.25	1.75	0.00	1.00	1.00	1.25	2.25	1.75	0.50	0.25	-0.182617	0.095703	0.969727	-2.590000	-3.640000	2.100000	277.00	-0.09	-0.12
1.41	7.50	5.50	4.75	5.75	1.75	6.75	0.00	2.50	0.00	0.00	0.25	0.25	1.25	1.25	0.25	0.00	-0.216309	0.102539	0.959961	19.320000	-0.490000	0.770000	404.00	-0.22	-0.12	3.00	1.25	3.00	4.25	2.75	2.25	0.25	2.00	0.00	1.50	0.75	1.25	2.25	1.75	0.50	0.25	-0.184082	0.099121	0.968750	-2.520000	-3.570000	1.890000	289.00	-0.09	-0.11
1.42	8.25	6.25	5.25	6.50	1.75	6.75	0.00	2.50	0.00	0.00	0.00	0.25	1.00	1.25	0.25	0.00	-0.222168	0.109375	0.938965	21.070000	-2.100000	0.420000	428.00	-0.24	-0.11	2.75	1.75	3.00	4.25	2.75	2.50	0.25	2.00	0.00	1.25	1.00	1.25	2.50	1.50	0.50	0.25	-0.184082	0.099609	0.970703	-2.660000	-3.430000	2.030000	294.00	-0.10	-0.12
1.43	9.00	7.00	5.25	7.25	1.75	7.25	0.00	2.25	0.00	0.00	0.25	0.00	1.25	1.00	0.00	0.00	-0.216309	0.101074	0.962891	19.040001	-2.590000	0.350000	450.00	-0.25	-0.11	2.75	1.50	3.00	4.25	3.00	2.25	0.25	1.75	0.00	1.25	1.00	1.25	2.25	1.75	0.50	0.25	-0.183594	0.097656	0.978027	-2.660000	-3.500000	2.030000	288.00	-0.09	-0.11
1.44	9.50	7.75	5.50	7.25	1.50	7.00	0.00	2.25	0.00	0.00	0.25	0.00	1.00	0.75	0.00	0.00	-0.229492	0.114258	0.972168	19.809999	-4.620000	0.770000	455.00	-0.26	-0.11	2.75	1.50	3.00	4.50	2.75	2.25	0.25	1.75	0.00	1.50	1.25	1.25	2.50	1.75	0.50	0.25	-0.186035	0.095215	0.978516	-2.450000	-3.500000	2.100000	295.00	-0.09	-0.12
1.45	10.25	8.75	5.50	7.50	1.50	6.75	0.00	2.25	0.00	0.00	0.00	0.25	1.00	0.75	0.00	0.00	-0.221191	0.098145	0.941895	19.740000	-6.510000	0.980000	472.00	-0.27	-0.11	3.00	1.25	3.00	4.25	3.00	2.50	0.25	1.75	0.00	1.00	1.00	1.00	2.00	1.75	0.25	0.25	-0.188965	0.095215	0.979004	-2.170000	-3.640000	2.170000	281.00	-0.11	-0.11
1.46	11.25	9.75	5.75	7.50	1.50	7.25	0.00	2.00	0.00	0.00	0.00	0.00	1.00	0.50	0.00	0.00	-0.218262	0.124512	0.957031	17.360001	-6.440000	0.630000	491.00	-0.28	-0.10	3.00	2.00	3.25	4.25	2.75	2.50	0.25	2.00	0.00	1.25	0.75	1.00	2.00	1.75	0.50	0.25	-0.184570	0.101562	0.976562	-0.700000	-3.850000	2.450000	294.00	-0.11	-0.11
1.47	12.50	10.50	6.25	8.25	1.50	7.25	0.00	2.00	0.00	0.00	0.00	0.25	0.50	0.00	0.00	0.00	-0.211914	0.130859	0.956543	15.540000	-6.020000	0.350000	519.00	-0.29	-0.10	3.00	1.75	3.25	4.75	2.75	2.75	0.25	1.75	0.00	1.00	0.50	1.25	2.00	1.50	0.25	0.00	-0.188965	0.099121	0.975098	1.050000	-3.990000	2.940000	288.00	-0.13	-0.12
1.48	13.00	11.25	6.00	8.25	1.50	7.00	0.00	2.00	0.00	0.00	0.00	0.25	0.75	0.00	0.00	0.00	-0.210449	0.122070	0.966309	14.770000	-6.440000	0.280000	528.00	-0.29	-0.10	3.25	1.75	3.25	5.00	2.75	2.50	0.25	2.00	0.00	1.00	0.50	1.00	2.25	1.50	0.50	0.00	-0.191406	0.101562	0.973145	2.520000	-4.130000	3.570000	296.00	-0.13	-0.12
1.49	14.00	12.25	6.00	8.75	1.50	7.00	0.00	2.00	0.00	0.00	0.00	0.00	0.75	0.25	0.00	0.00	-0.203613	0.117188	0.946289	13.650000	-6.790000	0.630000	552.00	-0.29	-0.10	3.75	1.75	3.50	4.75	2.75	2.75	0.25	1.75	0.00	1.00	0.50	1.00	2.00	1.50	0.25	0.25	-0.184082	0.102051	0.972168	2.940000	-4.200000	3.920000	297.00	-0.14	-0.11
1.50	15.00	13.00	6.75	9.00	1.50	7.50	0.00	2.00	0.00	0.00	0.00	0.25	0.50	0.00	0.00	0.00	-0.201172	0.122070	0.949219	12.530000	-6.230000	0.630000	584.00	-0.30	-0.09	3.75	2.00	3.25	5.00	2.50	2.75	0.25	1.75	0.00	0.25	0.50	1.00	1.75	1.25	0.25	0.00	-0.193848	0.108398	0.989258	3.920000	-4.340000	4.130000	283.00	-0.16	-0.12
1.51	15.75	13.75	6.75	9.25	1.25	7.25	0.00	1.75	0.00	0.00	0.00	0.25	0.75	0.00	0.00	0.00	-0.195801	0.134277	0.974121	11.760000	-5.530000	0.560000	595.00	-0.30	-0.09	3.75	2.50	3.50	5.25	2.25	3.00	0.25	1.75	0.00	1.00	0.50	1.00	1.75	1.00	0.25	0.00	-0.193359	0.104492	0.981445	6.230000	-4.550000	4.410000	299.00	-0.16	-0.12
1.52	16.50	14.25	6.75	9.50	1.50	7.25	0.00	1.75	0.00	0.00	0.00	0.25	0.25	0.00	0.00	0.00	-0.201172	0.132324	0.947754	10.850000	-5.250000	0.280000	608.00	-0.31	-0.09	4.00	3.00	3.50	5.00	2.25	3.00	0.25	1.50	0.00	0.50	0.50	0.75	1.25	1.00	0.00	0.00	-0.184570	0.099609	0.979004	9.030000	-4.970000	4.480000	285.00	-0.19	-0.11
1.53	17.00	15.50	7.00	9.75	1.25	7.50	0.00	1.75	0.00	0.00	0.00	0.00	0.50	0.00	0.00	0.00	-0.190430	0.127930	0.952148	9.660000	-3.710000	-0.350000	630.00	-0.31	-0.09	4.75	2.75	3.75	5.00	2.25	3.00	0.00	1.50	0.00	0.75	0.00	0.75	1.25	1.00	0.00	0.00	-0.190430	0.114746	0.976074	10.850000	-5.530000	4.550000	286.00	-0.20	-0.10
1.54	17.75	16.25	6.75	9.75	1.25	7.25	0.00	1.75	0.00	0.00	0.00	0.25	0.50	0.00	0.00	0.00	-0.189941	0.138184	0.933105	7.560000	-3.290000	-0.070000	642.00	-0.31	-0.09	5.00	3.00	3.75	5.25	2.25	3.00	0.25	1.25	0.00	0.25	0.25	0.25	0.75	0.75	0.25	0.00	-0.174316	0.116211	0.974121	12.250000	-5.110000	3.780000	282.00	-0.22	-0.09
1.55	18.25	16.75	7.25	9.75	1.25	7.25	0.00	1.50	0.00	0.00	0.00	0.00	0.25	0.00	0.00	0.00	-0.189453	0.130859	0.950195	5.670000	-2.310000	0.070000	649.00	-0.32	-0.08	5.25	3.00	3.75	5.25	2.00	2.50	0.00	1.25	0.00	0.25	0.25	0.50	0.75	0.50	0.00	0.00	-0.176270	0.118164	0.985352	13.300000	-5.390000	3.710000	271.00	-0.23	-0.09
1.56	19.00	17.50	7.00	10.00	1.25	7.25	0.00	1.50	0.00	0.00	0.00	0.00	0.25	0.00	0.00	0.00	-0.201660	0.138672	0.965820	4.480000	-2.100000	0.140000	663.00	-0.32	-0.08	5.50	3.25	4.00	5.25	1.75	2.75	0.00	1.00	0.00	0.50	0.25	0.50	0.75	0.50	0.00	0.00	-0.176270	0.109863	0.960449	15.960000	-5.810000	3.360000	277.00	-0.24	-0.09
1.57	19.00	18.00	7.25	10.50	1.25	7.25	0.00	1.50	0.00	0.00	0.00	0.00	0.25	0.00	0.00	0.00	-0.185547	0.134766	0.949707	3.640000	-2.730000	0.070000	676.00	-0.32	-0.08	6.00	3.50	3.75	5.25	1.75	2.25	0.00	1.00	0.00	0.00	0.00	0.25	0.75	0.50	0.00	0.00	-0.175781	0.104492	0.966797	16.730000	-7.070000	3.010000	266.00	-0.26	-0.08
1.58	19.75	18.50	7.50	10.75	1.25	7.25	0.00	1.50	0.00	0.00	0.00	0.25	0.25	0.00	0.00	0.00	-0.178711	0.137207	0.942871	2.590000	-2.100000	0.070000	697.00	-0.32	-0.08	6.50	3.50	4.00	5.00	1.75	2.50	0.00	0.75	0.00	0.00	0.00	0.25	0.75	0.25	0.00	0.00	-0.183594	0.100098	1.005371	19.460001	-9.800000	2.940000	268.00	-0.27	-0.08
1.59	20.75	19.25	7.50	10.75	1.25	7.25	0.00	1.25	0.00	0.00	0.00	0.00	0.25	0.00	0.00	0.00	-0.185547	0.145508	0.946289	1.680000	-0.630000	-0.210000	707.00	-0.33	-0.08	6.50	4.50	3.75	5.25	1.50	2.25	0.00	0.75	0.00	0.25	0.00	0.25	0.50	0.00	0.00	0.00	-0.176270	0.122559	0.985352	20.510000	-13.090000	2.730000	270.00	-0.28	-0.08
1.60	21.25	19.50	7.75	10.75	1.25	7.00	0.00	1.25	0.00	0.00	0.00	0.00	0.50	0.00	0.00	0.00	-0.177734	0.143066	0.946289	-1.050000	2.450000	-0.770000	717.00	-0.33	-0.08	7.00	4.50	4.00	5.25	1.50	2.00	0.00	0.75	0.00	0.00	0.00	0.25	0.25	0.25	0.00	0.00	-0.183105	0.140137	0.963379	18.760000	-15.190001	2.660000	273.00	-0.29	-0.07
1.61	21.00	20.00	7.75	10.75	1.50	7.25	0.00	1.25	0.00	0.00	0.00	0.00	0.50	0.00	0.00	0.00	-0.177734	0.143066	0.946289	-1.050000	2.450000	-0.770000	725.00	-0.32	-0.08	7.25	4.75	4.00	5.25	1.25	2.25	0.00	0.75	0.00	0.00	0.00	0.25	0.25	0.25	0.00	0.00	-0.173828	0.129395	0.967773	16.100000	-15.540000	2.520000	278.00	-0.29	-0.07
1.62	20.75	20.25	7.75	10.75	1.25	7.00	0.00	1.25	0.00	0.00	0.00	0.00	0.50	0.00	0.00	0.00	-0.193359	0.124512	0.979004	-0.980000	1.890000	-0.770000	719.00	-0.33	-0.08	7.25	4.50	4.00	5.25	1.25	2.25	0.00	0.50	0.00	0.00	0.00	0.25	0.25	0.25	0.00	0.00	-0.178711	0.127441	0.998535	14.840000	-16.730000	2.520000	271.00	-0.29	-0.07
1.63	21.50	20.25	7.75	11.25	1.25	7.00	0.00	1.00	0.00	0.00	0.00	0.00	0.25	0.00	0.00	0.00	-0.179199	0.139160	0.937012	-2.660000	3.850000	-1.400000	726.00	-0.33	-0.07	8.00	5.00	4.00	5.50	1.25	1.75	0.00	0.75	0.00	0.00	0.00	0.25	0.00	0.00	0.00	0.00	-0.198730	0.089355	0.965332	14.070000	-18.549999	2.520000	281.00	-0.31	-0.06
1.64	21.25	20.25	8.00	10.75	1.50	7.00	0.00	1.00	0.00	0.00	0.00	0.00	0.25	0.00	0.00	0.00	-0.178711	0.136719	0.940918	-3.500000	5.180000	-1.610000	724.00	-0.33	-0.07	7.75	5.00	4.00	5.75	1.00	2.00	0.00	0.50	0.00	0.00	0.00	0.25	0.00	0.00	0.00	0.00	-0.169434	0.131836	0.967773	12.460000	-19.530001	2.590000	277.00	-0.31	-0.07
1.65	22.25	20.50	7.75	11.00	1.25	7.00	0.00	1.00	0.00	0.00	0.00	0.00	0.25	0.00	0.00	0.00	-0.169434	0.137695	0.937012	-4.480000	6.650000	-1.960000	733.00	-0.33	-0.07	8.00	5.25	4.00	5.25	1.00	1.50	0.00	0.50	0.00	0.50	0.00	0.25	0.00	0.00	0.00	0.00	-0.179199	0.165527	0.993652	10.990000	-20.510000	2.660000	276.00	-0.30	-0.06
1.66	21.75	20.25	8.00	10.75	1.25	6.75	0.00	1.00	0.00	0.00	0.00	0.00	0.00	0.00	0.00	0.00	-0.172363	0.138184	0.933105	-5.530000	8.330000	-2.170000	721.00	-0.33	-0.07	8.00	5.25	4.00	5.50	0.75	1.50	0.00	0.25	0.00	0.00	0.00	0.00	0.00	0.00	0.00	0.00	-0.145996	0.143066	0.964355	8.750000	-20.090000	2.660000	264.00	-0.33	-0.05
1.67	21.50	20.00	7.75	10.50	1.25	6.75	0.00	1.00	0.00	0.00	0.00	0.00	0.25	0.00	0.00	0.00	-0.179199	0.139648	0.944824	-6.510000	10.500000	-2.590000	713.00	-0.33	-0.07	8.25	5.25	4.00	5.25	0.75	1.50	0.00	0.25	0.00	0.00	0.00	0.00	0.00	0.00	0.00	0.00	-0.185059	0.094238	0.919922	8.050000	-21.629999	1.820000	264.00	-0.33	-0.05
1.68	21.25	19.50	8.00	10.50	1.50	6.50	0.00	1.00	0.00	0.00	0.00	0.00	0.25	0.00	0.00	0.00	-0.179688	0.134766	0.933594	-7.350000	12.390000	-2.660000	708.00	-0.33	-0.07	8.50	5.25	3.75	5.50	0.75	1.00	0.00	0.00	0.00	0.00	0.00	0.00	0.00	0.00	0.00	0.00	-0.181641	0.123047	0.937500	6.650000	-21.840000	0.770000	258.00	-0.34	-0.04
1.69	20.75	19.00	7.75	10.25	1.25	6.25	0.00	0.75	0.00	0.00	0.00	0.00	0.25	0.00	0.00	0.00	-0.179688	0.134277	0.937500	-8.050000	14.350000	-2.870000	684.00	-0.33	-0.07	8.75	5.25	3.75	5.50	0.75	1.00	0.00	0.00	0.00	0.00	0.00	0.00	0.00	0.00	0.00	0.00	-0.147949	0.165527	0.971680	4.830000	-20.650000	0.630000	260.00	-0.34	-0.04
1.70	20.00	18.75	7.75	9.75	1.50	6.00	0.00	0.75	0.00	0.00	0.00	0.00	0.25	0.00	0.00	0.00	-0.197754	0.132812	0.964355	-8.050000	15.750000	-2.940000	668.00	-0.33	-0.07	8.75	5.50	4.00	5.25	0.75	1.00	0.00	0.00	0.00	0.00	0.00	0.00	0.00	0.00	0.00	0.00	-0.157715	0.141602	0.988281	3.780000	-20.860001	0.560000	263.00	-0.34	-0.04
1.71	20.00	17.75	7.50	9.50	1.50	6.00	0.00	0.75	0.00	0.00	0.00	0.00	0.25	0.00	0.00	0.00	-0.186035	0.131836	0.935059	-7.630000	16.379999	-3.010000	654.00	-0.33	-0.07	9.00	5.50	3.75	5.25	0.50	1.00	0.00	0.00	0.00	0.00	0.00	0.00	0.00	0.00	0.00	0.00	-0.155273	0.171387	1.022461	3.220000	-23.450001	0.420000	260.00	-0.34	-0.04
1.72	18.75	17.25	7.25	9.50	1.50	5.75	0.00	1.00	0.00	0.00	0.00	0.00	0.00	0.00	0.00	0.00	-0.183594	0.134766	0.939941	-7.910000	18.690001	-3.010000	632.00	-0.33	-0.07	9.00	5.50	3.75	5.25	0.50	0.75	0.00	0.00	0.00	0.00	0.00	0.00	0.00	0.00	0.00	0.00	-0.144531	0.157227	0.932129	-0.350000	-28.350000	3.640000	257.00	-0.34	-0.04
1.73	18.25	16.00	7.00	9.00	1.50	5.50	0.00	0.75	0.00	0.00	0.00	0.00	0.25	0.00	0.00	0.00	-0.184082	0.130371	0.927246	-9.100000	21.980000	-3.150000	603.00	-0.33	-0.07	8.75	5.50	3.75	5.00	0.50	0.50	0.00	0.00	0.00	0.00	0.00	0.00	0.00	0.00	0.00	0.00	-0.144531	0.157227	0.932129	-0.350000	-28.350000	3.640000	249.00	-0.35	-0.03
1.74	17.00	15.00	6.50	8.50	1.25	5.25	0.00	1.00	0.00	0.00	0.00	0.00	0.00	0.00	0.00	0.00	-0.169434	0.121094	0.912109	-11.200000	26.880001	-3.710000	566.00	-0.33	-0.07	9.25	5.75	3.50	5.25	0.50	0.75	0.00	0.00	0.00	0.25	0.00	0.00	0.00	0.00	0.00	0.00	-0.120605	0.168945	0.930664	0.840000	-21.629999	3.640000	262.00	-0.34	-0.04
1.75	15.25	12.75	6.25	8.25	1.25	5.25	0.00	0.75	0.00	0.00	0.00	0.00	0.00	0.00	0.00	0.00	-0.165039	0.122070	0.881348	-13.860000	33.180000	-4.620000	518.00	-0.32	-0.07	9.25	5.75	3.75	5.25	0.50	0.50	0.00	0.00	0.00	0.00	0.00	0.00	0.00	0.00	0.00	0.00	-0.133789	0.160645	0.975586	2.380000	-19.670000	4.270000	259.00	-0.35	-0.03
1.76	12.75	10.50	5.75	7.50	1.25	5.00	0.00	0.75	0.00	0.00	0.00	0.00	0.25	0.00	0.00	0.00	-0.168457	0.119141	0.890625	-17.010000	40.599998	-5.530000	457.00	-0.32	-0.07	9.25	5.75	3.75	5.25	0.25	0.50	0.00	0.00	0.00	0.00	0.00	0.00	0.00	0.00	0.00	0.00	-0.139648	0.134766	0.958008	3.570000	-19.670000	4.690000	256.00	-0.35	-0.03
1.77	10.00	8.50	5.00	6.50	1.25	4.25	0.00	1.00	0.00	0.00	0.00	0.00	0.00	0.00	0.00	0.00	-0.179199	0.123535	0.922363	-22.960001	46.340000	-6.720000	384.00	-0.31	-0.08	9.25	6.00	3.75	5.00	0.25	0.75	0.00	0.00	0.00	0.00	0.00	0.00	0.00	0.00	0.00	0.00	-0.114746	0.142578	0.954590	5.110000	-18.969999	4.060000	259.00	-0.35	-0.04
1.78	7.50	6.50	4.00	5.75	1.00	3.25	0.00	1.00	0.00	0.00	0.25	0.00	0.25	0.00	0.00	0.00	-0.184082	0.123047	0.966797	-29.260000	52.080002	-8.470000	311.00	-0.30	-0.09	9.50	6.00	3.75	5.50	0.25	0.75	0.00	0.00	0.00	0.00	0.00	0.00	0.00	0.00	0.00	0.00	-0.113281	0.160156	0.959961	5.950000	-17.570000	3.570000	267.00	-0.35	-0.04
1.79	5.25	4.75	3.00	4.75	0.75	2.25	0.00	0.75	0.00	0.00	0.25	0.25	0.50	0.00	0.00	0.00	-0.225586	0.106934	0.973145	-33.740002	55.369999	-10.150000	237.00	-0.28	-0.10	9.50	6.25	3.50	5.25	0.50	0.75	0.00	0.00	0.00	0.00	0.00	0.00	0.00	0.00	0.00	0.00	-0.106934	0.170898	0.937012	6.230000	-15.890000	3.710000	266.00	-0.35	-0.04
1.80	3.25	3.25	2.25	3.75	0.75	1.25	0.00	0.50	0.00	0.25	0.25	0.00	0.50	0.00	0.00	0.00	-0.250977	0.102539	0.996582	-35.490002	55.790001	-10.640000	169.00	-0.27	-0.10	9.25	6.25	3.50	5.50	0.25	0.75	0.00	0.00	0.00	0.00	0.00	0.00	0.00	0.00	0.00	0.00	-0.093262	0.177246	0.917480	7.350000	-13.370000	4.410000	264.00	-0.35	-0.04
1.81	2.00	1.75	1.50	3.25	0.25	0.75	0.00	0.25	0.00	0.50	0.25	0.25	0.25	0.25	0.00	0.00	-0.244629	0.023438	1.114258	-33.950001	56.490002	-14.140000	119.00	-0.23	-0.10	9.75	6.50	3.50	5.50	0.25	1.00	0.00	0.00	0.00	0.00	0.00	0.00	0.00	0.00	0.00	0.00	-0.101562	0.166992	0.929199	9.240000	-10.640000	5.530000	274.00	-0.35	-0.04
1.82	1.75	1.50	1.25	2.25	0.25	0.00	0.00	0.25	0.00	0.00	0.25	0.25	0.25	0.00	0.00	0.00	-0.182129	0.025879	1.354980	5.460000	78.680000	-25.270000	85.00	-0.27	-0.10	10.25	6.75	3.50	5.25	0.25	0.75	0.00	0.00	0.00	0.00	0.00	0.00	0.00	0.00	0.00	0.00	-0.094238	0.145508	0.942871	10.710000	-8.890000	5.740000	276.00	-0.35	-0.04
1.83	1.25	1.50	1.25	2.50	0.25	0.50	0.00	0.25	0.00	0.00	0.25	0.00	0.00	0.00	0.00	0.00	-0.354492	0.100098	1.610352	41.930000	123.059998	-25.340000	83.00	-0.28	-0.11	10.25	7.25	3.75	5.50	0.50	1.25	0.00	0.25	0.00	0.00	0.00	0.00	0.00	0.00	0.00	0.00	-0.106445	0.146484	0.938965	12.250000	-7.910000	5.180000	298.00	-0.34	-0.05
1.84	1.50	0.50	1.00	2.25	0.00	0.00	0.00	0.00	0.00	0.00	0.00	0.00	0.00	0.00	0.00	0.00	-0.277344	0.259277	1.732910	41.230000	188.509995	-36.330002	56.00	-0.33	-0.06	10.50	7.25	3.75	5.75	0.25	1.25	0.00	0.00	0.00	0.00	0.00	0.00	0.00	0.00	0.00	0.00	-0.120117	0.171875	0.952637	13.510000	-7.000000	4.830000	297.00	-0.35	-0.04
1.85	1.00	1.00	1.00	2.75	0.00	0.00	0.00	0.00	0.00	0.00	0.00	0.25	0.00	0.00	0.00	0.00	-0.107910	0.288086	1.679199	37.590000	200.619995	-47.599998	64.00	-0.30	-0.11	10.75	8.00	3.75	6.00	0.25	1.50	0.00	0.00	0.00	0.00	0.00	0.25	0.00	0.00	0.00	0.00	-0.107422	0.181152	0.955566	14.070000	-5.740000	4.900000	314.00	-0.34	-0.05
1.86	1.00	0.75	0.75	2.00	0.00	0.00	0.00	0.00	0.00	0.00	0.00	0.00	0.25	0.00	0.00	0.00	0.061523	0.110352	1.855957	33.180000	202.930008	-61.740002	50.00	0.00	0.00	11.00	8.25	3.75	6.00	0.25	2.00	0.00	0.50	0.00	0.00	0.00	0.00	0.00	0.00	0.00	0.00	-0.108398	0.187500	0.938477	14.420000	-4.340000	5.040000	330.00	-0.34	-0.06
1.87	1.00	1.00	1.00	2.00	0.00	0.00	0.00	0.00	0.00	0.00	0.00	0.00	0.00	0.00	0.00	0.00	0.706055	-0.316895	1.956543	17.500000	199.779999	-78.400002	53.00	-0.33	-0.08	11.50	9.00	4.00	6.50	0.25	2.50	0.00	0.25	0.00	0.00	0.00	0.00	0.00	0.00	0.00	0.00	-0.092773	0.176758	0.918457	15.400000	-2.100000	5.460000	352.00	-0.34	-0.06
1.88	0.50	0.75	0.50	1.50	0.00	0.00	0.00	0.00	0.00	0.00	0.00	0.00	0.00	0.00	0.00	0.00	0.919922	0.118164	2.312012	-20.090000	168.350006	-93.449997	34.00	0.00	0.00	12.00	9.50	4.25	7.00	0.25	3.00	0.00	0.25	0.00	0.00	0.00	0.00	0.00	0.00	0.00	0.00	-0.101562	0.170410	0.899414	17.639999	1.120000	5.810000	375.00	-0.34	-0.06
1.89	0.50	0.75	1.00	1.75	0.25	0.00	0.00	0.00	0.00	0.00	0.00	0.00	0.00	0.00	0.00	0.00	1.129395	0.230469	1.732422	-26.320000	124.599998	-108.080002	45.00	0.00	0.00	12.75	10.00	4.25	7.50	0.50	3.75	0.00	0.25	0.00	0.00	0.00	0.25	0.00	0.00	0.00	0.00	-0.113770	0.151855	0.952637	19.670000	2.870000	5.250000	406.00	-0.33	-0.07
1.90	0.75	0.50	0.50	1.50	0.00	0.00	0.00	0.00	0.00	0.00	0.00	0.00	0.00	0.00	0.00	0.00	1.221680	0.266602	1.452148	-17.219999	98.000000	-117.669998	34.00	0.00	0.00	14.00	10.50	4.50	7.75	0.50	4.00	0.00	0.50	0.00	0.00	0.00	0.25	0.25	0.00	0.00	0.00	-0.111328	0.204590	0.949219	13.230000	-0.280000	5.180000	438.00	-0.33	-0.07
1.91	0.50	0.50	0.50	1.50	0.25	0.00	0.00	0.00	0.00	0.00	0.00	0.00	0.00	0.00	0.00	0.00	1.347656	0.407715	1.481445	-15.400000	78.610001	-118.860001	35.00	0.00	0.00	14.25	11.25	5.00	8.25	0.50	5.00	0.00	0.50	0.00	0.00	0.00	0.25	0.00	0.00	0.00	0.00	-0.111328	0.204590	0.949219	13.230000	-0.280000	5.180000	467.00	-0.33	-0.07
1.92	0.25	0.50	0.50	1.25	0.25	0.00	0.00	0.00	0.00	0.00	0.00	0.00	0.00	0.00	0.00	0.00	1.440430	0.536133	1.510742	-15.190001	52.709999	-111.090004	29.00	0.00	0.00	15.25	12.25	5.00	8.75	0.50	5.25	0.00	0.50	0.00	0.00	0.00	0.25	0.00	0.00	0.00	0.00	-0.098145	0.182617	0.959961	12.390000	0.840000	5.950000	495.00	-0.33	-0.08
1.93	0.25	0.75	0.75	1.50	0.00	0.00	0.00	0.00	0.00	0.00	0.00	0.00	0.00	0.00	0.00	0.00	1.483887	0.622559	1.425781	-7.630000	21.980000	-96.250000	34.00	0.00	0.00	16.25	13.25	5.50	9.25	0.75	6.50	0.00	0.75	0.00	0.00	0.00	0.25	0.25	0.00	0.00	0.00	-0.123535	0.197266	0.973145	12.110000	-0.350000	6.160000	548.00	-0.32	-0.08
1.94	0.50	0.75	0.50	1.25	0.00	0.00	0.00	0.00	0.00	0.00	0.00	0.00	0.00	0.00	0.00	0.00	1.472168	0.637695	1.300293	4.760000	-6.930000	-76.790001	31.00	0.00	0.00	17.75	14.75	5.75	9.75	0.75	7.25	0.00	1.00	0.00	0.00	0.00	0.50	0.25	0.00	0.00	0.00	-0.114258	0.192871	0.964844	12.880000	-2.380000	7.770000	600.00	-0.32	-0.08
1.95	0.25	0.50	0.50	1.25	0.00	0.00	0.00	0.00	0.00	0.00	0.00	0.00	0.00	0.00	0.00	0.00	1.414551	0.595215	1.225098	15.750000	-30.940001	-53.619999	26.00	0.00	0.00	18.75	15.75	6.50	10.25	0.75	8.25	0.00	1.50	0.00	0.00	0.00	0.25	0.00	0.00	0.00	0.00	-0.101074	0.199707	0.961914	12.810000	-4.060000	7.910000	647.00	-0.32	-0.09
1.96	0.25	1.00	0.75	1.25	0.00	0.00	0.00	0.00	0.00	0.00	0.00	0.00	0.00	0.00	0.00	0.00	1.334961	0.538574	1.200684	21.490000	-51.310001	-28.420000	34.00	0.00	0.00	20.00	16.75	7.00	11.00	0.75	9.00	0.00	1.75	0.00	0.00	0.00	0.25	0.25	0.00	0.00	0.00	-0.110840	0.213379	0.996094	12.180000	-4.200000	8.120000	698.00	-0.31	-0.09
1.97	0.25	0.50	0.25	1.75	0.00	0.00	0.00	0.00	0.00	0.00	0.00	0.00	0.00	0.00	0.00	0.00	1.221191	0.467773	1.150879	25.340000	-69.860001	-3.990000	29.00	0.00	0.00	21.00	18.00	7.25	11.25	1.00	9.50	0.00	2.00	0.00	0.00	0.00	0.25	0.00	0.00	0.00	0.00	-0.113770	0.212402	1.008301	11.970000	-5.880000	8.120000	735.00	-0.31	-0.09
1.98	0.25	0.25	0.25	1.25	0.00	0.00	0.00	0.00	0.00	0.00	0.00	0.00	0.00	0.00	0.00	0.00	1.112305	0.377930	1.250977	32.900002	-87.080002	16.590000	21.00	0.00	0.00	22.00	19.00	7.50	12.00	1.25	10.00	0.00	2.50	0.00	0.00	0.00	0.25	0.25	0.00	0.00	0.00	-0.097656	0.214355	0.958496	11.620000	-6.020000	7.840000	783.00	-0.31	-0.09
1.99	0.25	0.50	0.25	1.00	0.00	0.00	0.00	0.00	0.00	0.00	0.00	0.00	0.00	0.00	0.00	0.00	0.987305	0.271484	1.337891	41.020000	-106.610001	33.040001	21.00	0.00	0.00	22.50	19.75	8.00	12.25	1.25	10.50	0.00	2.75	0.00	0.00	0.00	0.25	0.50	0.00	0.00	0.00	-0.101074	0.223145	0.975098	9.800000	-4.410000	7.210000	815.00	-0.31	-0.09
2.00	0.25	0.75	0.25	1.00	0.00	0.00	0.00	0.00	0.00	0.00	0.00	0.00	0.00	0.00	0.00	0.00	0.854980	0.140625	1.312500	44.029999	-125.160004	45.779999	23.00	0.00	0.00	23.00	20.00	8.00	12.50	1.25	11.00	0.00	3.00	0.00	0.00	0.00	0.50	0.50	0.00	0.00	0.00	-0.104004	0.218750	0.957031	7.420000	-2.940000	6.020000	837.00	-0.30	-0.10
2.01	0.25	0.50	0.25	1.00	0.00	0.00	0.00	0.00	0.00	0.00	0.00	0.00	0.00	0.00	0.00	0.00	0.710938	0.035156	1.269531	42.490002	-137.970001	54.389999	21.00	0.00	0.00	23.50	20.25	8.00	12.75	1.25	11.25	0.00	3.00	0.00	0.00	0.00	0.50	0.25	0.00	0.00	0.00	-0.125488	0.217773	0.938477	4.410000	0.140000	4.900000	848.00	-0.31	-0.10
2.02	0.25	0.75	0.25	1.00	0.00	0.00	0.00	0.00	0.00	0.00	0.00	0.00	0.00	0.00	0.00	0.00	0.583984	-0.055176	1.233887	38.080002	-145.180008	58.450001	23.00	0.00	0.00	24.00	20.50	8.25	13.00	1.50	11.75	0.00	3.25	0.00	0.00	0.00	0.25	0.50	0.00	0.00	0.00	-0.086914	0.225586	0.941406	0.070000	4.830000	3.780000	872.00	-0.30	-0.10
2.03	0.25	0.25	0.25	1.00	0.00	0.00	0.00	0.00	0.00	0.00	0.00	0.00	0.00	0.00	0.00	0.00	0.464844	-0.131348	1.203613	32.900002	-147.559998	58.029999	19.00	0.00	0.00	23.25	20.75	8.25	13.00	1.50	11.75	0.00	3.50	0.00	0.00	0.25	0.25	0.50	0.00	0.00	0.00	-0.105469	0.225098	0.963379	-4.200000	8.190000	3.080000	873.00	-0.30	-0.10
2.04	0.25	0.50	0.25	0.75	0.00	0.00	0.00	0.00	0.00	0.00	0.00	0.00	0.00	0.00	0.00	0.00	0.340332	-0.169922	1.161133	28.700001	-145.669998	54.459999	18.00	0.00	0.00	23.50	20.50	8.00	13.00	1.50	12.00	0.00	3.75	0.00	0.00	0.00	0.25	0.75	0.00	0.00	0.00	-0.100586	0.210938	0.948242	-6.790000	10.290000	2.520000	877.00	-0.30	-0.10
2.05	0.25	0.50	0.25	0.75	0.00	0.00	0.00	0.00	0.00	0.00	0.00	0.00	0.00	0.00	0.00	0.00	0.229980	-0.180664	1.158203	25.620001	-140.139999	49.490002	18.00	0.00	0.00	23.50	20.25	8.25	13.00	1.50	12.25	0.00	4.25	0.00	0.00	0.00	0.25	1.00	0.00	0.00	0.00	-0.102539	0.220703	0.944824	-9.100000	12.530000	1.750000	890.00	-0.29	-0.11
2.06	0.00	0.50	0.00	1.00	0.00	0.00	0.00	0.00	0.00	0.00	0.00	0.00	0.00	0.00	0.00	0.00	0.088379	-0.077637	1.375488	31.010000	-138.880005	43.119999	16.00	0.00	0.00	22.75	20.00	8.00	12.75	1.75	12.50	0.00	4.75	0.00	0.00	0.25	0.50	0.75	0.00	0.00	0.00	-0.099121	0.217285	0.937012	-12.530000	15.680000	0.840000	891.00	-0.29	-0.11
2.07	0.00	0.50	0.25	0.75	0.00	0.00	0.00	0.00	0.00	0.00	0.00	0.00	0.00	0.00	0.00	0.00	0.000488	-0.047363	1.337402	35.770000	-143.779999	43.259998	16.00	0.00	0.00	22.25	19.50	8.00	13.00	1.75	12.50	0.00	5.25	0.00	0.50	0.25	0.50	1.25	0.00	0.00	0.00	-0.102051	0.211914	0.942871	-17.360001	19.879999	-0.280000	901.00	-0.28	-0.11
2.08	0.00	0.25	0.00	1.00	0.00	0.00	0.00	0.00	0.00	0.00	0.00	0.00	0.00	0.00	0.00	0.00	-0.114258	0.015625	1.325684	40.320000	-147.419998	45.570000	13.00	0.00	0.00	21.50	18.75	7.75	12.75	1.75	12.75	0.00	5.25	0.00	0.25	0.25	0.50	1.25	0.00	0.00	0.00	-0.131348	0.209473	0.978027	-19.600000	21.210001	-1.050000	881.00	-0.28	-0.12
2.09	0.00	0.25	0.00	1.25	0.00	0.00	0.00	0.00	0.00	0.00	0.00	0.00	0.00	0.00	0.00	0.00	-0.256348	0.068359	1.267090	41.160000	-149.869995	50.680000	16.00	0.00	0.00	21.00	18.25	7.50	12.50	2.00	13.00	0.00	5.50	0.00	0.25	0.25	0.50	1.75	0.00	0.00	0.00	-0.135742	0.192871	0.966309	-20.370001	20.440001	-1.400000	879.00	-0.27	-0.12
2.10	0.00	0.00	0.00	0.50	0.00	0.00	0.00	0.00	0.00	0.00	0.00	0.00	0.00	0.00	0.00	0.00	-0.444336	0.125488	1.238770	35.349998	-149.240005	59.010002	5.00	0.00	0.00	20.00	17.50	7.25	12.25	1.75	13.00	0.00	6.00	0.00	0.25	0.25	0.75	2.00	0.00	0.00	0.00	-0.126953	0.210449	0.944824	-23.100000	21.070000	-1.820000	866.00	-0.27	-0.13
2.11	0.00	0.25	0.25	0.25	0.00	0.00	0.00	0.00	0.00	0.00	0.00	0.00	0.00	0.00	0.00	0.00	-0.632812	0.127930	1.271973	18.549999	-147.979996	70.699997	8.00	0.00	0.00	19.25	16.50	7.25	12.00	2.00	13.00	0.00	6.25	0.00	0.25	0.50	1.00	2.50	0.00	0.00	0.00	-0.128418	0.199219	0.960938	-26.950001	22.540001	-2.310000	862.00	-0.26	-0.13
2.12	0.00	0.50	0.00	0.50	0.00	0.00	0.00	0.00	0.00	0.00	0.00	0.00	0.00	0.00	0.00	0.00	-0.867676	0.160156	1.358887	-3.780000	-147.630005	82.879997	10.00	0.00	0.00	17.50	15.50	6.75	11.75	2.00	13.00	0.00	6.75	0.00	0.50	0.50	1.00	2.75	0.00	0.00	0.00	-0.115234	0.215332	0.918457	-30.730000	23.309999	-2.730000	839.00	-0.25	-0.14
2.13	0.00	0.25	0.00	0.50	0.00	0.00	0.00	0.00	0.00	0.00	0.00	0.00	0.00	0.00	0.00	0.00	-1.134277	0.145020	1.438965	-28.070000	-152.180008	94.639999	8.00	0.00	0.00	16.00	14.25	6.75	11.25	2.00	13.25	0.25	7.00	0.00	0.75	0.75	1.25	3.50	0.00	0.00	0.00	-0.145508	0.199219	0.959473	-39.759998	23.240000	-3.640000	831.00	-0.23	-0.15
2.14	0.00	0.25	0.00	0.50	0.00	0.00	0.00	0.00	0.00	0.00	0.00	0.00	0.00	0.00	0.00	0.00	-1.414062	0.135254	1.303711	-53.200001	-161.630005	103.459999	8.00	0.00	0.00	15.00	13.00	6.00	11.00	2.00	13.00	0.00	7.25	0.00	0.75	0.75	1.25	3.75	0.00	0.00	0.00	-0.132324	0.184082	0.985352	-42.000000	19.110001	-4.340000	798.00	-0.22	-0.16
2.15	0.00	0.25	0.00	0.25	0.00	0.00	0.00	0.00	0.00	0.00	0.00	0.00	0.00	0.00	0.00	0.00	-1.750977	0.195312	1.023926	-70.769997	-165.899994	107.029999	5.00	0.00	0.00	13.00	11.50	5.75	10.50	2.00	13.00	0.00	7.50	0.00	0.75	0.75	1.25	4.50	0.00	0.00	0.00	-0.118164	0.146973	0.974609	-39.270000	17.710001	-5.320000	765.00	-0.21	-0.17
2.16	0.00	0.25	0.00	0.50	0.00	0.00	0.00	0.00	0.00	0.00	0.00	0.00	0.00	0.00	0.00	0.00	-2.014160	0.242676	0.655762	-74.269997	-158.270004	105.559998	8.00	0.00	0.00	11.25	10.25	5.50	9.75	2.50	13.00	0.25	7.75	0.00	1.25	1.00	1.75	5.25	0.00	0.00	0.00	-0.171387	0.177246	1.002930	-35.700001	15.820000	-5.880000	757.00	-0.19	-0.17
2.17	0.00	0.25	0.00	0.75	0.00	0.00	0.00	0.00	0.00	0.00	0.00	0.00	0.00	0.00	0.00	0.00	-2.221191	0.281250	0.376465	-66.570000	-137.619995	99.680000	11.00	0.00	0.00	9.75	9.00	5.00	9.50	2.25	13.00	0.25	8.00	0.00	1.50	1.25	2.00	5.50	0.00	0.00	0.00	-0.189941	0.144531	0.988770	-28.070000	12.880000	-6.090000	733.00	-0.17	-0.18
2.18	0.00	0.00	0.25	0.50	0.00	0.00	0.00	0.00	0.00	0.00	0.00	0.00	0.00	0.00	0.00	0.00	-2.357910	0.325684	0.239258	-51.869999	-110.599998	90.860001	8.00	0.00	0.00	8.00	7.75	4.75	8.75	2.50	13.00	0.25	8.25	0.00	1.50	1.50	2.50	6.25	0.00	0.00	0.00	-0.166992	0.151855	0.968262	-20.860001	12.040000	-6.020000	713.00	-0.15	-0.19
2.19	0.00	0.00	0.00	0.50	0.00	0.00	0.00	0.00	0.00	0.00	0.00	0.00	0.00	0.00	0.00	0.00	-2.417969	0.343262	0.177246	-37.380001	-81.340004	80.360001	5.00	0.00	0.00	7.00	6.50	4.00	8.25	2.50	13.00	0.25	8.25	0.00	1.75	1.50	2.50	7.50	0.00	0.00	0.00	-0.186523	0.149902	0.997070	-16.240000	11.130000	-5.880000	691.00	-0.14	-0.21
2.20	0.00	0.25	0.00	0.25	0.00	0.00	0.00	0.00	0.00	0.00	0.00	0.00	0.00	0.00	0.00	0.00	-2.472168	0.371582	0.171875	-28.000000	-54.880001	68.389999	5.00	0.00	0.00	5.75	5.25	3.25	7.75	2.75	12.75	0.25	8.50	0.25	2.00	2.00	3.25	8.00	0.25	0.00	0.25	-0.175293	0.139648	0.972168	-9.940000	10.150000	-5.600000	683.00	-0.11	-0.21
2.21	0.00	0.25	0.00	0.00	0.00	0.00	0.00	0.00	0.00	0.00	0.00	0.00	0.00	0.00	0.00	0.00	-2.516113	0.407715	0.155273	-21.139999	-29.190001	55.860001	2.00	0.00	0.00	4.25	4.25	3.00	7.00	3.00	12.50	0.25	8.75	0.00	2.00	2.25	3.50	8.50	0.50	0.25	0.75	-0.179688	0.150879	0.972656	-7.070000	9.730000	-5.600000	665.00	-0.08	-0.22
2.22	0.25	0.00	0.00	0.50	0.00	0.00	0.00	0.00	0.00	0.00	0.00	0.00	0.00	0.00	0.00	0.00	-2.545410	0.395508	0.101562	-13.090000	-6.300000	43.049999	8.00	0.00	0.00	3.25	3.00	2.50	6.50	3.00	12.25	0.25	8.75	0.25	2.25	2.50	4.50	9.00	1.00	0.25	0.75	-0.178223	0.157227	0.967285	-6.790000	10.430000	-6.300000	657.00	-0.06	-0.23
2.23	0.00	0.25	0.00	0.50	0.00	0.00	0.00	0.00	0.00	0.00	0.00	0.00	0.00	0.00	0.00	0.00	-2.500977	0.383789	-0.059082	-4.550000	16.730000	29.190001	8.00	0.00	0.00	3.00	2.50	2.00	5.75	3.25	11.75	0.25	8.75	0.00	2.75	3.00	5.00	9.25	1.50	0.50	1.00	-0.178223	0.157227	0.960449	-8.470000	11.690000	-7.490000	656.00	-0.04	-0.23
2.24	0.00	0.00	0.25	0.50	0.00	0.00	0.00	0.00	0.00	0.00	0.00	0.00	0.00	0.00	0.00	0.00	-2.262695	0.286133	0.048340	25.760000	61.459999	-3.570000	8.00	0.00	0.00	2.25	1.50	1.75	5.25	3.25	11.25	0.25	8.75	0.25	3.00	3.25	6.50	9.75	2.00	0.75	1.25	-0.203125	0.187988	0.967285	-11.270000	13.510000	-8.890000	663.00	-0.01	-0.23
2.25	0.00	0.25	0.00	0.25	0.00	0.00	0.00	0.00	0.00	0.00	0.00	0.00	0.00	0.00	0.00	0.00	-2.262695	0.286133	0.048340	25.760000	61.459999	-3.570000	5.00	0.00	0.00	2.00	1.50	1.50	5.50	3.25	10.75	0.25	8.75	0.75	3.50	4.00	7.50	10.25	2.50	0.75	1.75	-0.192383	0.145508	0.961914	-13.370000	16.100000	-9.170000	696.00	0.01	-0.23
2.26	0.00	0.25	0.25	0.25	0.00	0.00	0.00	0.00	0.00	0.00	0.00	0.00	0.00	0.00	0.00	0.00	-2.042969	0.190430	0.155762	37.099998	77.000000	-21.070000	8.00	0.00	0.00	1.75	1.00	1.50	5.00	3.50	10.25	0.25	8.75	0.75	4.25	6.00	8.25	10.75	3.25	1.25	2.00	-0.166504	0.144531	0.949707	-13.230000	17.780001	-9.100000	735.00	0.04	-0.22
2.27	1.00	1.00	0.50	0.75	0.00	0.00	0.00	0.00	0.00	0.00	0.00	0.00	0.00	0.00	0.00	0.00	0.903809	-0.820312	3.370117	19.389999	151.550003	-29.260000	33.00	0.00	0.00	1.75	1.00	1.25	4.75	3.25	10.00	0.25	8.75	1.25	6.00	7.25	9.00	11.25	4.25	1.50	2.50	-0.205566	0.150879	0.969727	-13.020000	19.879999	-9.660000	788.00	0.06	-0.20
2.28	3.50	3.00	1.50	1.50	0.00	0.00	0.00	0.00	0.00	0.00	0.00	0.00	0.00	0.00	0.00	0.00	1.042480	0.644531	0.305176	-58.730000	86.800003	-57.470001	97.00	-0.36	-0.03	1.50	1.00	1.00	4.25	3.00	9.25	0.25	8.75	1.75	7.50	8.00	9.50	11.50	4.75	1.75	2.75	-0.198242	0.126465	0.985840	-11.130000	23.309999	-10.500000	812.00	0.08	-0.20
2.29	9.50	9.75	2.25	4.00	0.00	0.00	0.00	0.00	0.00	0.00	0.00	0.00	0.00	0.00	0.00	0.00	-0.476562	0.064941	0.729492	-54.599998	143.919998	-63.420002	257.00	-0.37	-0.05	1.25	1.50	1.00	4.00	2.75	8.75	0.25	8.75	2.25	8.25	9.00	10.25	12.00	6.00	1.75	4.50	-0.200684	0.137695	0.983887	-6.720000	27.020000	-10.360000	860.00	0.09	-0.19
2.30	15.25	16.00	3.00	5.50	0.00	0.00	0.00	0.00	0.00	0.00	0.00	0.00	0.00	0.00	0.00	0.00	-0.719238	0.662109	2.752930	-23.520000	240.449997	-45.920002	399.00	-0.38	-0.04	1.25	0.25	0.75	3.50	2.25	8.25	0.25	8.50	2.75	9.00	9.50	10.75	12.75	7.50	2.25	5.00	-0.213379	0.142578	0.993652	-3.010000	32.619999	-10.080000	878.00	0.12	-0.18
2.31	20.50	21.00	3.75	6.25	0.00	0.00	0.00	0.00	0.00	0.00	0.00	0.00	0.00	0.00	0.00	0.00	-1.066406	0.104980	3.157715	26.670000	187.600006	-7.630000	516.00	-0.38	-0.04	1.25	0.75	0.50	3.25	1.75	7.50	0.25	8.50	2.75	9.75	10.25	11.50	13.00	8.00	2.50	5.75	-0.229004	0.142578	1.000488	1.120000	39.200001	-11.270000	900.00	0.13	-0.18
2.32	23.50	24.50	5.50	7.75	0.00	0.00	0.00	0.00	0.00	0.00	0.00	0.00	0.00	0.00	0.00	0.00	-0.567871	-0.300293	1.819824	32.060001	126.279999	-13.580000	615.00	-0.38	-0.04	1.00	0.50	0.25	2.75	1.25	7.00	0.00	8.25	3.75	10.25	11.00	12.00	13.50	9.50	3.00	6.25	-0.223633	0.116699	1.012207	3.640000	49.349998	-13.720000	925.00	0.15	-0.17
2.33	24.75	26.25	7.00	9.00	0.50	0.00	0.00	0.00	0.00	0.00	0.00	0.00	0.00	0.00	0.00	0.00	-0.166016	0.327637	1.418457	37.029999	99.889999	-24.850000	680.00	-0.37	-0.04	1.00	0.00	0.25	2.75	1.00	6.50	0.00	8.00	4.25	11.00	11.25	12.75	13.50	11.00	3.75	6.75	-0.268066	0.161133	1.014160	14.210000	77.139999	-20.370001	956.00	0.16	-0.16
2.34	26.25	27.50	7.25	9.50	0.50	0.25	0.00	0.00	0.00	0.00	0.00	0.00	0.00	0.00	0.00	0.00	-0.223633	0.370605	1.230957	35.490002	94.500000	-18.830000	718.00	-0.37	-0.04	0.75	0.00	0.25	2.75	0.75	5.75	0.00	7.75	4.75	11.50	12.25	13.25	13.75	12.50	4.75	7.50	-0.269043	0.186035	0.991211	20.860001	92.470001	-24.010000	996.00	0.18	-0.15
2.35	27.50	29.00	7.50	11.00	0.75	1.00	0.00	0.00	0.00	0.00	0.00	0.00	0.00	0.00	0.00	0.00	-0.192383	0.241211	1.002930	32.970001	95.199997	-9.450000	775.00	-0.37	-0.05	0.75	0.00	0.25	2.75	0.50	5.25	0.00	7.25	5.25	12.25	12.75	13.75	14.00	14.50	5.50	8.00	-0.327148	0.222168	1.005371	26.809999	110.040001	-27.580000	1035.00	0.19	-0.14
2.36	28.75	30.25	8.50	12.50	1.00	1.50	0.00	0.00	0.00	0.00	0.00	0.00	0.00	0.00	0.00	0.00	-0.293457	0.058594	1.381836	35.490002	87.150002	-7.140000	835.00	-0.36	-0.05	1.00	0.25	0.00	2.25	0.25	5.00	0.00	6.75	5.75	13.00	13.25	14.00	13.75	16.25	6.50	8.50	-0.313477	0.174805	1.038574	32.549999	132.720001	-30.940001	1067.00	0.20	-0.13
2.37	30.00	31.50	9.00	13.75	1.50	2.25	0.00	0.25	0.00	0.00	0.00	0.00	0.00	0.00	0.00	0.00	-0.473633	0.182617	2.167480	15.330000	82.459999	-13.860000	896.00	-0.36	-0.05	0.75	0.00	0.00	2.75	0.25	3.75	0.00	6.25	6.25	13.25	13.50	14.25	13.50	17.75	7.00	8.75	-0.438477	0.031738	1.041504	41.230000	147.839996	-32.900002	1078.00	0.21	-0.12
2.38	30.50	32.25	9.50	14.00	1.75	2.75	0.00	0.50	0.00	0.00	0.00	0.00	0.00	0.00	0.00	0.00	-0.273926	0.304688	1.203125	-8.890000	49.279999	-10.290000	929.00	-0.36	-0.05	0.75	0.00	0.00	2.00	0.00	3.00	0.00	5.75	6.75	13.75	14.00	14.25	13.25	19.25	7.75	9.25	-0.329102	0.133789	1.109375	34.790001	185.639999	-33.599998	1089.00	0.22	-0.11
2.39	31.00	32.00	9.75	14.25	2.00	3.00	0.00	0.50	0.00	0.00	0.00	0.00	0.00	0.00	0.00	0.00	-0.145508	0.085449	0.955078	-21.280001	44.939999	-6.790000	943.00	-0.35	-0.05	0.75	0.00	0.25	2.00	0.00	2.50	0.00	5.50	7.00	14.25	14.00	14.00	12.75	20.50	8.00	9.50	-0.391602	0.193359	1.013184	6.090000	217.070007	-34.439999	1099.00	0.23	-0.10
2.40	30.75	32.25	10.25	15.00	2.25	3.50	0.25	0.50	0.00	0.00	0.00	0.00	0.00	0.00	0.00	0.00	-0.244629	0.134277	1.134277	-21.840000	40.740002	-8.750000	968.00	-0.35	-0.05	0.75	0.00	0.00	2.50	0.00	2.00	0.00	5.00	7.25	14.75	14.25	14.00	12.00	21.75	8.50	9.50	-0.441895	0.219727	1.011719	-6.930000	244.580002	-37.310001	1109.00	0.23	-0.09
2.41	31.75	32.25	10.50	15.00	2.25	3.75	0.00	0.50	0.00	0.00	0.00	0.00	0.00	0.00	0.00	0.00	-0.241211	0.176758	1.028809	-18.480000	29.960001	-7.630000	980.00	-0.35	-0.05	0.50	0.00	0.00	2.00	0.00	1.25	0.00	4.75	7.50	15.00	14.00	13.50	11.25	22.75	8.50	9.75	-0.504395	0.208496	0.977051	-16.100000	272.440002	-41.930000	1090.00	0.24	-0.09
2.42	31.00	31.75	11.25	15.25	2.25	3.75	0.25	0.75	0.00	0.00	0.00	0.00	0.00	0.00	0.00	0.00	-0.213379	0.136230	1.017090	-17.150000	24.639999	-5.180000	987.00	-0.35	-0.05	0.50	0.00	0.00	1.75	0.00	0.75	0.00	4.00	7.75	15.50	14.00	13.25	10.50	22.75	8.75	9.75	-0.457031	0.222656	0.871094	-22.960001	298.410004	-47.670002	1072.00	0.25	-0.08
2.43	30.75	31.50	10.50	15.00	2.50	4.00	0.25	0.50	0.00	0.00	0.00	0.00	0.00	0.00	0.00	0.00	-0.203125	0.124023	0.995117	-14.280000	20.719999	-3.990000	972.00	-0.35	-0.05	0.50	0.00	0.00	1.75	0.00	0.75	0.00	3.00	8.00	15.75	14.00	12.50	9.25	23.00	8.75	9.75	-0.566406	0.171387	1.062500	-34.650002	325.010010	-51.450001	1046.00	0.26	-0.06
2.44	30.25	31.00	10.75	14.50	2.75	4.25	0.00	0.75	0.00	0.00	0.00	0.00	0.25	0.00	0.00	0.00	-0.186035	0.116699	0.979980	-9.870000	20.090000	-3.150000	967.00	-0.34	-0.06	0.50	0.00	0.00	1.00	0.00	0.00	0.00	2.75	7.75	15.50	13.50	12.00	8.25	22.75	8.75	9.50	-0.594727	0.144531	1.089355	-51.869999	353.779999	-54.110001	998.00	0.27	-0.06
2.45	29.50	30.50	10.25	15.00	2.50	4.50	0.00	0.75	0.00	0.00	0.00	0.00	0.00	0.00	0.00	0.00	-0.181152	0.113281	0.956055	-5.390000	19.740000	-2.520000	953.00	-0.35	-0.06	0.25	0.00	0.00	1.00	0.00	0.00	0.00	2.50	7.50	15.25	13.25	11.00	7.50	22.75	8.25	9.00	-0.698730	0.237305	1.190918	-64.400002	387.730011	-57.189999	958.00	0.27	-0.05
2.46	28.25	29.25	9.75	14.50	2.50	4.50	0.00	0.75	0.00	0.00	0.00	0.00	0.00	0.00	0.00	0.00	-0.159180	0.109375	0.895020	-3.640000	24.290001	-2.520000	917.00	-0.34	-0.06	0.25	0.00	0.00	0.50	0.00	0.00	0.00	1.50	6.75	14.50	12.50	10.00	6.25	22.00	8.00	8.75	-0.838379	0.165039	1.289551	-64.050003	422.170013	-58.099998	880.00	0.28	-0.04
2.47	26.75	28.00	9.50	13.75	2.50	4.75	0.00	1.00	0.00	0.00	0.00	0.00	0.25	0.00	0.00	0.00	-0.181152	0.125000	0.921387	-5.250000	30.730000	-3.010000	888.00	-0.34	-0.06	0.25	0.00	0.00	0.00	0.00	0.00	0.00	1.50	5.50	13.00	11.25	9.00	5.25	21.50	7.50	7.75	-1.187500	0.270020	1.569824	-50.540001	456.540009	-57.330002	795.00	0.29	-0.04
2.48	25.50	26.25	9.25	12.75	2.25	4.75	0.00	1.00	0.00	0.00	0.00	0.00	0.25	0.00	0.00	0.00	-0.178223	0.120117	0.914062	-17.430000	40.950001	-4.480000	842.00	-0.34	-0.06	0.50	0.00	0.00	0.00	0.00	0.00	0.00	1.00	4.00	11.50	9.75	7.75	4.00	20.25	6.75	6.50	-1.712891	0.538574	1.880371	-24.010000	494.549988	-56.349998	690.00	0.29	-0.03
2.49	23.25	24.25	8.50	12.00	2.50	5.25	0.00	1.25	0.00	0.25	0.00	0.00	0.25	0.25	0.00	0.00	-0.229004	0.104004	1.007324	-28.559999	43.330002	-5.670000	801.00	-0.33	-0.07	0.00	0.00	0.00	0.00	0.00	0.00	0.00	0.25	3.25	9.75	8.00	5.75	2.75	18.00	5.75	5.25	-2.270508	0.581543	2.760254	18.830000	532.909973	-54.320000	558.00	0.30	-0.02
2.50	20.75	21.75	8.00	11.25	2.50	5.00	0.00	1.25	0.00	0.25	0.00	0.00	0.75	0.25	0.00	0.00	-0.219727	0.113770	0.961426	-36.330002	37.590000	-6.020000	740.00	-0.32	-0.07	0.00	0.00	0.00	0.00	0.00	0.00	0.00	0.00	2.00	8.25	5.75	4.00	1.50	14.50	4.75	3.00	-2.014160	0.388672	4.321777	62.930000	564.340027	-52.570000	417.00	0.31	-0.00
2.51	18.25	18.50	7.75	10.25	2.50	5.00	0.00	1.50	0.00	0.50	0.25	0.00	0.50	0.25	0.25	0.00	-0.197754	0.108398	0.916016	-41.299999	32.060001	-6.650000	680.00	-0.31	-0.07	0.00	0.00	0.00	0.00	0.00	0.00	0.00	0.00	1.00	6.50	4.25	3.50	1.50	10.50	3.00	1.50	-2.014160	0.388672	4.321777	62.930000	564.340027	-52.570000	304.00	0.30	-0.01
2.52	15.25	15.75	7.00	9.50	2.50	5.25	0.00	1.50	0.00	0.75	0.50	0.00	0.75	0.25	0.00	0.00	-0.178711	0.079102	0.962402	-42.139999	23.100000	-7.840000	614.00	-0.30	-0.08	0.00	0.00	0.00	0.00	0.00	0.00	0.00	0.00	0.75	5.25	3.50	3.00	0.75	7.00	2.25	0.75	-1.430176	0.372559	3.463379	97.160004	574.700012	-61.110001	227.00	0.30	-0.01
2.53	12.00	12.25	6.50	8.75	2.75	5.00	0.00	1.75	0.00	1.00	0.50	0.25	1.00	0.75	0.50	0.00	-0.231934	0.087402	0.969727	-35.349998	15.260000	-9.100000	555.00	-0.26	-0.09	0.00	0.00	0.00	0.00	0.00	0.00	0.00	0.00	0.75	4.50	2.75	2.25	0.50	3.25	0.75	0.00	0.055176	0.214355	1.743164	114.800003	580.929993	-73.709999	149.00	0.27	-0.02
2.54	9.25	9.25	5.75	8.00	2.75	5.00	0.00	2.00	0.00	1.25	0.75	0.25	1.25	1.00	0.25	0.00	-0.254395	0.083984	0.975586	-23.940001	14.700000	-9.660000	493.00	-0.24	-0.10	0.00	0.00	0.00	0.25	0.00	0.00	0.00	0.00	0.00	2.25	1.50	1.00	0.00	1.75	0.25	0.00	-0.237793	0.732910	4.479492	72.239998	504.279999	-116.760002	70.00	0.25	-0.02
2.55	7.00	7.00	5.25	6.75	2.75	4.75	0.25	1.75	0.00	1.50	1.25	0.75	1.75	1.50	0.50	0.00	-0.232910	0.075684	0.954102	-15.260000	17.360001	-9.310000	452.00	-0.19	-0.10	0.00	0.00	0.00	0.75	0.00	0.00	0.00	0.00	0.00	2.50	1.75	1.25	0.00	1.00	0.25	0.00	-0.449219	1.981445	5.176270	39.340000	426.510010	-110.459999	77.00	0.20	-0.06
2.56	5.50	6.00	4.50	6.00	3.00	4.25	0.25	2.00	0.25	1.75	1.25	1.00	2.25	2.00	0.50	0.00	-0.242676	0.066895	0.964844	-10.080000	18.760000	-8.330000	428.00	-0.16	-0.10	0.00	0.00	0.00	0.25	0.00	0.00	0.00	0.00	0.00	2.50	1.50	1.00	0.00	0.75	0.00	0.00	1.932617	0.333496	6.610352	31.780001	100.800003	-78.400002	61.00	0.23	-0.04
2.57	3.75	3.75	4.25	5.25	2.75	4.00	0.25	2.25	0.50	2.00	1.50	1.00	2.25	3.00	0.75	0.00	-0.240234	0.066406	0.944824	-7.490000	20.719999	-7.980000	397.00	-0.10	-0.10	0.00	0.00	0.00	0.50	0.00	0.00	0.00	0.00	0.00	2.25	1.50	1.00	0.00	0.50	0.00	0.00	0.692383	0.711426	4.015625	-9.870000	-156.449997	-56.490002	59.00	0.19	-0.07
2.58	2.75	3.00	3.25	4.00	3.00	3.75	0.25	2.50	0.75	2.50	1.75	1.50	3.00	4.25	0.75	0.25	-0.270020	0.083008	0.950195	-4.200000	22.469999	-7.700000	393.00	-0.04	-0.10	0.25	0.00	0.00	0.25	0.00	0.00	0.00	0.00	0.00	2.25	1.25	0.75	0.00	0.50	0.00	0.00	0.881348	0.389648	2.539062	-44.660000	-260.959991	-35.840000	54.00	0.19	-0.04
2.59	2.00	2.50	2.25	3.50	2.75	3.50	0.25	2.50	0.75	3.00	2.25	2.00	3.25	5.00	1.00	0.50	-0.245117	0.067383	0.939453	-1.050000	24.990000	-8.190000	387.00	0.01	-0.11	0.00	0.00	0.00	0.00	0.00	0.00	0.00	0.00	0.00	2.00	1.25	0.50	0.00	0.25	0.00	0.00	1.059570	0.461426	1.837891	-56.490002	-286.649994	-21.980000	41.00	0.00	0.00
2.60	1.50	1.50	1.50	3.00	2.50	3.25	0.25	2.75	1.25	3.75	2.75	2.25	4.00	6.25	1.25	0.75	-0.282227	0.054688	0.926758	-0.070000	28.350000	-7.840000	400.00	0.06	-0.11	0.00	0.00	0.00	0.25	0.00	0.00	0.00	0.00	0.00	1.75	1.50	0.50	0.00	0.25	0.00	0.00	0.990723	0.464355	1.685547	-50.750000	-296.799988	-16.170000	44.00	0.00	0.00
2.61	1.50	1.25	1.50	2.75	2.25	3.00	0.25	2.75	2.25	5.75	3.50	3.00	5.00	7.50	1.25	0.75	-0.262207	0.084473	0.937500	0.490000	31.570000	-8.120000	459.00	0.10	-0.09	0.25	0.00	0.00	0.25	0.00	0.00	0.00	0.00	0.00	1.75	1.00	0.75	0.00	0.00	0.00	0.00	0.943359	0.448730	1.765625	-33.320000	-313.950012	-11.690000	42.00	0.00	0.00
2.62	1.00	1.25	1.00	2.50	2.00	2.50	0.25	2.75	3.00	7.50	5.00	4.00	5.75	8.50	1.50	1.25	-0.277344	0.063477	0.948242	2.520000	34.230000	-8.260000	512.00	0.14	-0.09	0.00	0.00	0.00	0.25	0.00	0.00	0.00	0.00	0.00	1.75	0.75	0.50	0.00	0.25	0.00	0.00	0.881836	0.375488	1.909668	-18.480000	-348.250000	-6.720000	36.00	0.00	0.00
2.63	1.00	1.25	1.00	2.25	1.75	2.00	0.25	3.25	4.00	8.25	7.00	5.75	6.75	9.50	2.00	1.50	-0.273926	0.065430	0.931152	5.950000	37.730000	-8.050000	593.00	0.16	-0.09	0.00	0.00	0.00	0.25	0.00	0.00	0.00	0.00	0.00	1.25	1.00	0.25	0.00	0.00	0.00	0.00	0.725586	0.396484	1.883789	-14.490000	-392.630005	-1.890000	29.00	0.00	0.00
2.64	0.75	1.00	0.75	1.50	1.25	2.25	0.00	3.25	5.00	9.00	8.00	6.75	7.25	10.50	2.25	1.75	-0.270508	0.071777	0.963867	10.710000	43.400002	-7.490000	629.00	0.18	-0.09	0.00	0.00	0.00	0.25	0.00	0.00	0.00	0.00	0.00	1.25	0.75	0.25	0.00	0.00	0.00	0.00	0.490723	0.422363	1.722168	-9.310000	-432.600006	3.290000	26.00	0.00	0.00
2.65	0.50	0.75	0.50	1.50	0.75	1.75	0.00	3.50	5.50	10.00	9.00	7.75	7.75	11.75	2.75	2.25	-0.276855	0.090332	0.991211	13.790000	52.220001	-8.400000	675.00	0.20	-0.09	0.25	0.00	0.00	0.25	0.00	0.00	0.00	0.00	0.00	1.00	0.75	0.00	0.00	0.00	0.00	0.00	0.267578	0.428711	1.540039	1.960000	-457.589996	7.350000	24.00	0.00	0.00
2.66	0.50	1.00	0.00	1.50	0.75	1.50	0.00	3.25	7.00	10.75	10.25	8.50	8.50	13.25	3.25	3.00	-0.331543	0.094727	1.014648	15.330000	64.959999	-10.570000	742.00	0.21	-0.08	0.00	0.00	0.00	0.00	0.00	0.00	0.00	0.00	0.00	1.00	0.75	0.25	0.00	0.00	0.00	0.00	0.098145	0.425781	1.419434	16.450001	-469.070007	10.150000	21.00	0.00	0.00
2.67	0.50	0.50	0.25	1.75	0.25	1.00	0.00	3.25	7.75	11.75	11.00	9.50	9.00	14.75	4.25	4.00	-0.296387	0.092285	0.984375	19.600000	78.820000	-12.250000	804.00	0.22	-0.07	0.00	0.00	0.00	0.00	0.00	0.00	0.00	0.00	0.00	0.75	0.50	0.00	0.00	0.00	0.00	0.00	-0.045410	0.401855	1.379395	28.910000	-470.890015	11.900000	13.00	0.00	0.00
2.68	0.00	0.75	0.25	1.50	0.25	0.75	0.00	2.75	8.50	12.50	12.00	10.25	9.50	16.25	5.50	5.00	-0.360840	0.111816	0.971680	27.440001	92.330002	-15.330000	860.00	0.24	-0.07	0.00	0.00	0.00	0.00	0.00	0.00	0.00	0.00	0.00	1.00	0.25	0.25	0.00	0.25	0.00	0.00	-0.212402	0.373047	1.434570	39.130001	-468.369995	13.650000	18.00	0.00	0.00
2.69	0.25	0.50	0.25	1.75	0.00	0.50	0.00	2.50	8.75	13.25	13.00	11.25	9.75	17.75	6.50	5.50	-0.455078	0.125977	1.075684	62.090000	136.149994	-23.030001	914.00	0.24	-0.06	0.00	0.00	0.00	0.25	0.00	0.00	0.00	0.00	0.00	1.00	0.50	0.00	0.00	0.00	0.00	0.00	-0.372070	0.372559	1.469238	46.060001	-465.640015	16.450001	18.00	0.00	0.00
2.70	0.25	0.25	0.00	1.00	0.00	0.50	0.00	2.25	9.00	13.75	14.00	11.75	10.00	19.00	6.75	6.00	-0.396973	0.164062	1.014648	56.349998	172.059998	-27.719999	939.00	0.25	-0.06	0.00	0.00	0.25	0.50	0.00	0.00	0.00	0.00	0.00	0.75	0.25	0.00	0.00	0.00	0.00	0.00	-0.491211	0.380371	1.561523	53.130001	-463.330017	20.370001	19.00	0.00	0.00
2.71	0.00	0.25	0.00	0.75	0.00	0.50	0.00	2.00	9.50	14.25	14.50	12.25	9.75	20.00	7.75	6.50	-0.376953	0.106934	1.135254	39.689999	197.259995	-32.619999	972.00	0.26	-0.06	0.00	0.00	0.00	0.00	0.00	0.00	0.00	0.00	0.00	0.75	0.00	0.25	0.00	0.00	0.00	0.00	-0.590820	0.389160	1.777832	64.680000	-463.399994	25.129999	10.00	0.00	0.00
2.72	0.25	0.50	0.00	0.25	0.00	0.50	0.00	2.00	9.50	14.75	15.00	12.50	9.50	21.25	8.00	7.00	-0.410156	0.134766	0.993164	16.100000	225.259995	-33.250000	998.00	0.26	-0.05	0.00	0.00	0.00	0.25	0.00	0.00	0.00	0.00	0.00	0.50	0.25	0.00	0.00	0.00	0.00	0.00	-0.804688	0.317383	1.957031	84.559998	-472.989990	40.740002	11.00	0.00	0.00
2.73	0.00	0.50	0.00	0.75	0.00	0.00	0.00	1.75	10.00	15.00	15.25	12.50	9.25	22.00	8.50	7.25	-0.481445	0.126953	1.045410	4.690000	261.239990	-34.790001	1014.00	0.27	-0.05	0.00	0.00	0.00	0.00	0.00	0.00	0.00	0.00	0.00	0.75	0.25	0.00	0.00	0.00	0.00	0.00	-0.908203	0.317383	2.058594	84.559998	-472.989990	40.740002	10.00	0.00	0.00
2.74	0.00	0.25	0.00	0.75	0.00	0.00	0.00	1.50	10.00	15.25	15.50	12.25	8.50	22.50	9.00	7.50	-0.578613	0.167969	1.030762	0.350000	297.290009	-36.820000	1015.00	0.27	-0.04	0.00	0.00	0.00	0.00	0.00	0.00	0.00	0.00	0.00	0.75	0.25	0.00	0.00	0.00	0.00	0.00	-0.962402	0.259277	2.203613	96.949997	-468.580017	64.680000	10.00	0.00	0.00
2.75	0.00	0.50	0.00	0.50	0.00	0.00	0.00	1.25	10.00	15.50	15.50	12.00	7.75	22.50	9.00	7.50	-0.594238	0.131836	1.090820	-2.310000	329.140015	-39.270000	1004.00	0.27	-0.04	0.00	0.00	0.00	0.00	0.00	0.00	0.00	0.00	0.00	0.75	0.00	0.00	0.00	0.00	0.00	0.00	-1.016602	0.235840	2.414551	103.110001	-466.059998	75.879997	8.00	0.00	0.00
2.76	0.00	0.25	0.00	0.00	0.00	0.00	0.00	1.25	10.00	15.75	15.50	11.75	7.50	22.50	8.75	7.50	-0.619141	0.069824	1.147461	-5.040000	359.730011	-39.410000	992.00	0.28	-0.03	0.00	0.00	0.00	0.00	0.00	0.00	0.00	0.00	0.00	0.50	0.25	0.25	0.00	0.00	0.00	0.00	-1.105957	0.223145	2.614746	112.419998	-464.730011	84.629997	10.00	0.00	0.00
2.77	0.00	0.00	0.00	0.25	0.00	0.00	0.00	1.25	9.75	15.50	15.50	11.50	6.75	22.00	8.75	7.50	-0.696289	0.148926	1.201172	-7.840000	397.739990	-37.310001	973.00	0.28	-0.03	0.00	0.00	0.00	0.50	0.00	0.00	0.00	0.00	0.00	0.25	0.00	0.00	0.00	0.00	0.00	0.00	-1.545410	0.268066	2.853027	125.440002	-460.459991	93.029999	8.00	0.00	0.00
2.78	0.00	0.25	0.00	0.00	0.00	0.00	0.00	1.00	9.25	14.75	15.25	10.75	6.25	21.25	8.50	7.25	-0.844727	0.193359	1.323730	-4.690000	442.049988	-36.959999	929.00	0.28	-0.03	0.00	0.00	0.00	0.25	0.00	0.00	0.00	0.00	0.00	0.50	0.25	0.00	0.00	0.00	0.00	0.00	-2.098145	0.192383	2.972656	141.889999	-455.910004	106.050003	11.00	0.00	0.00
2.79	0.00	0.00	0.00	0.00	0.00	0.00	0.00	0.75	8.00	13.25	14.00	9.50	5.50	20.75	8.50	6.75	-1.102539	0.237305	1.614746	7.350000	486.290009	-35.560001	851.00	0.29	-0.03	0.00	0.00	0.00	0.00	0.00	0.00	0.00	0.00	0.00	0.50	0.25	0.00	0.00	0.00	0.00	0.00	-2.781738	0.097168	2.821777	146.649994	-451.080017	124.459999	8.00	0.00	0.00
2.80	0.00	0.25	0.00	0.00	0.00	0.00	0.00	0.50	6.25	11.25	12.00	8.25	5.00	20.25	7.50	6.00	-1.527344	0.265137	1.953613	25.969999	522.970032	-28.000000	749.00	0.29	-0.03	0.00	0.00	0.00	0.00	0.00	0.00	0.00	0.00	0.00	0.50	0.00	0.00	0.00	0.00	0.00	0.00	-3.514648	0.059570	2.484375	133.210007	-436.029999	147.770004	5.00	0.00	0.00
2.81	0.00	0.00	0.00	0.00	0.00	0.00	0.00	0.25	4.75	9.50	9.25	6.00	3.50	18.75	6.50	4.50	-2.149414	0.629883	2.059570	48.650002	553.419983	-15.470000	608.00	0.30	-0.01	0.00	0.00	0.00	0.25	0.00	0.00	0.00	0.00	0.00	0.75	0.00	0.00	0.00	0.00	0.00	0.00	-4.157715	0.025879	2.167480	107.169998	-407.329987	171.009995	11.00	0.00	0.00
2.82	0.00	0.00	0.00	0.00	0.00	0.00	0.00	0.00	3.50	8.00	6.75	4.00	2.25	16.25	5.75	2.50	-2.799316	1.130859	2.591797	101.919998	592.970032	-6.580000	474.00	0.31	0.01	0.00	0.00	0.00	0.00	0.00	0.00	0.00	0.00	0.00	0.75	0.00	0.00	0.00	0.00	0.00	0.00	-4.592773	-0.047363	1.610352	72.099998	-369.320007	185.080002	8.00	0.00	0.00
2.83	0.00	0.00	0.00	0.00	0.00	0.00	0.00	0.00	2.75	6.00	4.50	2.75	2.00	13.00	4.50	1.50	-1.854980	0.643555	4.724121	175.910004	597.729980	-9.100000	358.00	0.31	0.01	0.00	0.00	0.00	0.00	0.00	0.00	0.00	0.00	0.00	0.50	0.00	0.00	0.00	0.00	0.00	0.00	-4.840820	-0.104492	0.871094	44.869999	-318.220001	185.149994	5.00	0.00	0.00
2.84	0.00	0.00	0.00	0.00	0.00	0.00	0.00	0.00	2.00	4.75	3.00	2.50	1.25	10.25	3.25	0.50	-2.052734	-0.154785	2.963379	192.500000	589.960022	-41.650002	268.00	0.31	0.02	0.00	0.00	0.00	0.00	0.00	0.00	0.00	0.00	0.00	0.50	0.00	0.00	0.00	0.00	0.00	0.00	-4.944824	-0.155273	0.471680	34.509998	-258.790009	168.350006	5.00	0.00	0.00
2.85	0.00	0.00	0.00	0.00	0.00	0.00	0.00	0.00	1.25	3.75	2.75	1.75	0.75	7.75	2.25	0.00	-1.324219	0.338379	4.691406	191.240005	596.960022	-37.660000	199.00	0.31	0.02	0.00	0.00	0.00	0.00	0.00	0.00	0.00	0.00	0.00	0.75	0.00	0.00	0.00	0.00	0.00	0.00	-5.025879	-0.166504	0.262695	34.509998	-201.389999	136.080002	8.00	0.00	0.00
2.86	0.00	0.00	0.00	0.00	0.00	0.00	0.00	0.00	0.75	3.00	2.00	1.25	0.25	4.00	0.50	0.00	-0.507324	0.010742	3.925781	182.000000	575.750000	-56.770000	117.00	0.29	0.03	0.25	0.00	0.00	0.25	0.00	0.00	0.00	0.00	0.00	0.50	0.25	0.00	0.00	0.00	0.00	0.00	-5.123535	-0.164062	-0.151855	42.000000	-146.440002	99.330002	13.00	0.00	0.00
2.87	0.00	0.50	0.00	0.00	0.00	0.00	0.00	0.00	0.50	1.75	1.00	0.75	0.00	1.75	0.50	0.00	-0.143555	0.348633	4.353027	131.809998	538.090027	-80.500000	68.00	0.24	0.01	0.00	0.00	0.00	0.00	0.00	0.00	0.00	0.00	0.00	0.50	0.25	0.00	0.00	0.00	0.00	0.00	-5.058594	-0.279785	-0.388672	57.540001	-85.260002	74.690002	8.00	0.00	0.00
2.88	0.00	0.25	0.00	0.00	0.00	0.00	0.00	0.00	0.25	1.75	1.00	0.50	0.00	1.75	0.75	0.00	0.658203	1.245117	8.220215	-10.710000	227.009995	-42.980000	62.00	0.27	0.01	0.00	0.00	0.00	0.25	0.00	0.00	0.00	0.00	0.00	0.50	0.00	0.00	0.00	0.00	0.00	0.00	-4.796875	-0.481445	-0.305176	51.380001	-22.750000	64.330002	8.00	0.00	0.00
2.89	0.00	0.00	0.00	0.00	0.00	0.00	0.00	0.00	0.25	1.50	1.25	0.50	0.00	0.75	0.25	0.00	0.658203	1.245117	8.220215	-10.710000	227.009995	-42.980000	46.00	0.00	0.00	0.00	0.00	0.00	0.25	0.00	0.00	0.00	0.00	0.00	0.50	0.25	0.00	0.00	0.00	0.00	0.00	-4.256348	-0.461426	-0.049805	6.370000	30.240000	57.049999	11.00	0.00	0.00
2.90	0.00	0.00	0.00	0.00	0.00	0.00	0.00	0.00	0.25	1.75	1.25	0.25	0.00	0.50	0.25	0.00	0.674805	0.146484	3.147461	-126.699997	-171.220001	-7.000000	44.00	0.00	0.00	0.25	0.00	0.00	0.50	0.00	0.00	0.00	0.00	0.00	0.50	0.00	0.00	0.00	0.00	0.00	0.00	-3.688965	2.436035	0.677734	-51.450001	89.669998	1.050000	13.00	0.00	0.00
2.91	0.00	0.00	0.00	0.00	0.00	0.00	0.00	0.00	0.00	1.50	1.00	0.25	0.00	0.00	0.00	0.00	1.004395	0.156250	2.206543	-118.790001	-211.330002	-22.540001	29.00	0.00	0.00	1.50	0.50	1.00	2.25	0.00	0.00	0.00	0.00	0.00	0.50	0.00	0.00	0.00	0.00	0.00	0.00	-3.688965	2.436035	0.677734	-51.450001	89.669998	1.050000	61.00	-0.28	-0.05
2.92	0.00	0.00	0.00	0.00	0.00	0.00	0.00	0.00	0.25	1.00	0.75	0.25	0.00	0.00	0.00	0.00	1.158691	0.286133	1.796875	-80.150002	-231.979996	-46.270000	24.00	0.00	0.00	9.00	8.50	2.00	4.75	0.00	0.00	0.00	0.00	0.00	0.00	0.00	0.00	0.00	0.00	0.00	0.00	0.794922	-0.899414	-1.116211	49.910000	133.210007	-31.570000	246.00	-0.37	-0.05
2.93	0.00	0.25	0.00	0.00	0.00	0.00	0.00	0.00	0.00	1.00	0.75	0.25	0.00	0.00	0.00	0.00	1.000488	0.200684	1.917969	-32.689999	-267.329987	-69.860001	23.00	0.00	0.00	18.25	17.25	3.00	6.50	0.00	0.00	0.00	0.00	0.00	0.00	0.00	0.00	0.00	0.00	0.00	0.00	-0.805664	1.705078	1.814453	-115.290001	154.910004	-130.410004	452.00	-0.38	-0.04
2.94	0.00	0.00	0.00	0.00	0.00	0.00	0.00	0.00	0.00	0.75	0.50	0.25	0.00	0.00	0.00	0.00	0.828613	0.058594	1.890137	-1.260000	-312.549988	-88.199997	16.00	0.00	0.00	23.50	21.75	4.75	8.25	0.00	0.00	0.00	0.00	0.00	0.00	0.00	0.25	0.00	0.00	0.00	0.00	-1.437012	1.637207	3.629883	-83.650002	396.970001	-70.209999	590.00	-0.38	-0.04
2.95	0.00	0.25	0.00	0.00	0.00	0.00	0.00	0.00	0.00	0.75	0.50	0.25	0.00	0.00	0.00	0.00	0.628906	0.006836	1.887207	-1.190000	-361.899994	-98.769997	18.00	0.00	0.00	26.75	23.50	6.50	9.75	0.00	0.50	0.00	0.00	0.00	0.00	0.00	0.00	0.00	0.00	0.00	0.00	-1.312988	-0.217773	3.651367	-18.200001	371.630005	-2.520000	678.00	-0.37	-0.04
2.96	0.00	0.00	0.00	0.00	0.00	0.00	0.00	0.00	0.00	0.75	0.50	0.00	0.00	0.00	0.00	0.00	0.384766	0.130859	1.840332	-25.129999	-407.119995	-101.709999	13.00	0.00	0.00	27.75	24.50	8.00	10.75	0.25	1.75	0.00	0.00	0.00	0.00	0.00	0.00	0.00	0.00	0.00	0.00	-0.770508	-0.628418	3.396484	15.050000	306.600006	-21.280001	742.00	-0.36	-0.04
2.97	0.00	0.00	0.00	0.00	0.00	0.00	0.00	0.00	0.00	0.50	0.50	0.00	0.00	0.00	0.00	0.00	0.120117	0.292480	1.757324	-53.480000	-444.149994	-96.739998	10.00	0.00	0.00	27.75	24.00	9.00	11.50	0.75	2.75	0.00	0.00	0.00	0.00	0.25	0.50	0.00	0.00	0.00	0.00	-0.520996	0.466309	1.944824	38.849998	209.020004	-47.459999	781.00	-0.35	-0.04
2.98	0.00	0.00	0.00	0.00	0.00	0.00	0.00	0.00	0.00	0.75	0.50	0.00	0.00	0.00	0.00	0.00	-0.080078	0.463379	1.575195	-68.250000	-467.739990	-87.500000	13.00	0.00	0.00	27.50	24.00	9.25	12.25	1.50	4.75	0.00	0.50	0.00	0.00	0.00	0.50	0.00	0.00	0.00	0.00	-0.268555	0.707031	1.293457	52.360001	177.169998	-27.440001	824.00	-0.34	-0.05
2.99	0.00	0.00	0.00	0.25	0.00	0.00	0.00	0.00	0.00	0.50	0.25	0.00	0.00	0.00	0.00	0.00	-0.231934	0.556152	1.430664	-59.779999	-476.209991	-77.000000	11.00	0.00	0.00	27.50	23.50	10.00	12.75	1.75	6.50	0.25	1.00	0.00	0.25	0.00	0.25	0.00	0.00	0.00	0.00	-0.493652	0.332031	1.705566	-11.060000	134.190002	-8.400000	867.00	-0.33	-0.06
3.00	0.00	0.00	0.00	0.00	0.00	0.00	0.00	0.00	0.00	0.50	0.00	0.00	0.00	0.00	0.00	0.00	-0.359375	0.606934	1.319336	-35.279999	-474.600006	-67.129997	5.00	0.00	0.00	26.75	23.25	10.00	13.00	2.00	7.50	0.25	1.50	0.00	0.25	0.25	0.50	0.00	0.00	0.00	0.00	-0.200195	0.060059	1.172363	-30.660000	88.199997	-1.050000	886.00	-0.32	-0.07
3.01	0.00	0.00	0.00	0.00	0.00	0.00	0.00	0.00	0.00	0.25	0.25	0.00	0.00	0.00	0.00	0.00	-0.471680	0.592285	1.326660	-5.180000	-466.480011	-55.510002	5.00	0.00	0.00	26.25	23.00	10.25	13.25	2.00	8.00	0.25	1.75	0.00	0.25	0.25	0.50	0.00	0.00	0.00	0.00	-0.226074	0.185547	1.229980	-21.559999	62.230000	-2.170000	893.00	-0.32	-0.07
3.02	0.00	0.25	0.00	0.00	0.00	0.00	0.00	0.00	0.00	0.50	0.25	0.00	0.00	0.00	0.00	0.00	-0.556641	0.523438	1.482910	17.990000	-457.730011	-39.689999	10.00	0.00	0.00	25.75	22.75	9.75	13.25	2.25	8.50	0.25	2.25	0.00	0.50	0.25	0.50	0.00	0.00	0.00	0.00	-0.236328	0.297363	1.168945	-17.219999	41.230000	0.420000	898.00	-0.31	-0.07
3.03	0.00	0.00	0.00	0.00	0.00	0.00	0.00	0.00	0.00	0.00	0.25	0.00	0.00	0.00	0.00	0.00	-0.591309	0.478027	1.621094	26.320000	-453.320007	-19.389999	3.00	0.00	0.00	25.25	22.25	9.75	13.25	2.25	8.75	0.25	2.50	0.00	0.25	0.25	0.50	0.25	0.00	0.00	0.00	-0.108398	0.144043	0.996094	-15.260000	29.820000	2.310000	895.00	-0.31	-0.08
3.04	0.00	0.25	0.00	0.00	0.00	0.00	0.00	0.00	0.00	0.00	0.00	0.00	0.00	0.00	0.00	0.00	-0.663574	0.496094	1.883789	24.780001	-453.600006	4.060000	2.00	0.00	0.00	24.75	21.75	9.50	13.00	2.25	9.00	0.25	2.50	0.00	0.50	0.50	1.00	0.00	0.00	0.00	0.00	-0.095215	0.204102	1.027344	-11.970000	24.360001	-0.350000	890.00	-0.30	-0.08
3.05	0.00	0.00	0.25	0.00	0.00	0.00	0.00	0.00	0.00	0.00	0.00	0.00	0.00	0.00	0.00	0.00	-0.706055	0.519531	2.047363	22.120001	-459.200012	28.350000	3.00	0.00	0.00	23.75	21.00	9.50	12.75	2.25	9.00	0.25	2.75	0.00	0.50	0.25	0.75	0.50	0.00	0.00	0.00	-0.132324	0.199219	0.943848	-10.150000	20.440001	-1.960000	873.00	-0.30	-0.08
3.06	0.00	0.00	0.00	0.00	0.00	0.00	0.00	0.00	0.00	0.00	0.00	0.00	0.00	0.00	0.00	0.00	-0.811035	0.542480	2.142090	25.969999	-465.080017	51.099998	0.00	0.00	0.00	22.75	20.00	9.00	12.50	2.25	9.00	0.25	2.75	0.00	0.50	0.25	0.50	0.50	0.00	0.00	0.00	-0.121094	0.173340	0.959961	-13.650000	24.430000	-2.590000	843.00	-0.30	-0.08
3.07	0.00	0.00	0.00	0.00	0.00	0.00	0.00	0.00	0.00	0.00	0.00	0.00	0.00	0.00	0.00	0.00	-0.907227	0.527344	2.277344	35.770000	-467.600006	71.750000	0.00	0.00	0.00	21.25	18.75	8.50	12.00	2.25	9.00	0.25	3.00	0.00	1.00	0.25	0.50	0.75	0.00	0.00	0.00	-0.147949	0.161133	0.955078	-20.510000	28.490000	-4.410000	816.00	-0.29	-0.09
3.08	0.00	0.00	0.00	0.00	0.00	0.00	0.00	0.00	0.00	0.00	0.00	0.00	0.00	0.00	0.00	0.00	-1.010254	0.458984	2.418457	46.340000	-468.929993	89.739998	0.00	0.00	0.00	19.25	17.25	8.25	11.50	2.25	8.75	0.25	2.75	0.00	0.75	0.75	0.50	0.75	0.00	0.00	0.00	-0.123047	0.200684	0.895020	-28.910000	35.420002	-5.670000	769.00	-0.28	-0.09
3.09	0.00	0.00	0.00	0.00	0.00	0.00	0.00	0.00	0.00	0.00	0.00	0.00	0.00	0.00	0.00	0.00	-1.141602	0.450684	2.601074	52.220001	-467.320007	104.160004	0.00	0.00	0.00	17.25	15.25	7.75	10.75	2.25	8.50	0.25	3.00	0.00	1.00	0.75	1.00	1.00	0.00	0.00	0.00	-0.150391	0.191895	0.996094	-37.380001	40.110001	-5.460000	727.00	-0.27	-0.10
3.10	0.00	0.00	0.00	0.00	0.00	0.00	0.00	0.00	0.00	0.00	0.00	0.00	0.00	0.00	0.00	0.00	-2.020996	0.394531	2.922363	52.500000	-451.360016	139.649994	0.00	0.00	0.00	15.50	13.25	7.00	10.25	2.00	8.25	0.00	3.00	0.00	1.00	0.50	0.75	1.00	0.00	0.00	0.00	-0.153320	0.161621	0.996582	-36.889999	36.680000	-5.810000	663.00	-0.27	-0.10
3.11	0.00	0.00	0.00	0.00	0.00	0.00	0.00	0.00	0.00	0.00	0.00	0.00	0.00	0.00	0.00	0.00	-2.724609	0.321289	3.013672	57.540001	-446.809998	157.500000	0.00	0.00	0.00	13.00	11.50	6.25	9.50	2.00	8.00	0.00	2.75	0.00	1.25	1.00	1.00	1.00	0.00	0.00	0.00	-0.123047	0.166016	0.895508	-38.639999	34.650002	-6.860000	608.00	-0.25	-0.11
3.12	0.00	0.00	0.00	0.00	0.00	0.00	0.00	0.00	0.00	0.00	0.00	0.00	0.00	0.00	0.00	0.00	-3.416504	0.162109	2.979492	55.860001	-444.429993	171.500000	0.00	0.00	0.00	10.75	9.50	6.00	8.75	2.25	7.75	0.25	3.00	0.00	1.75	1.00	1.00	1.25	0.00	0.00	0.00	-0.073242	0.171875	0.901855	-50.750000	34.650002	-8.260000	570.00	-0.23	-0.11
3.13	0.00	0.00	0.00	0.00	0.00	0.00	0.00	0.00	0.00	0.00	0.00	0.00	0.00	0.00	0.00	0.00	-4.071289	-0.038086	2.607422	42.840000	-439.110016	180.740005	0.00	0.00	0.00	9.00	8.00	5.25	8.00	2.25	7.25	0.25	2.75	0.00	2.00	1.25	0.75	1.25	0.00	0.00	0.00	-0.233887	0.119141	1.020996	-57.540001	27.719999	-10.570000	515.00	-0.22	-0.12
3.14	0.00	0.00	0.00	0.00	0.00	0.00	0.00	0.00	0.00	0.00	0.00	0.00	0.00	0.00	0.00	0.00	-4.582520	-0.180664	1.970215	22.820000	-417.619995	181.649994	0.00	0.00	0.00	7.50	6.75	5.00	7.75	2.50	6.75	0.25	3.00	0.00	2.00	1.00	1.25	2.00	0.25	0.00	0.00	-0.184082	0.127441	0.999023	-44.730000	21.629999	-10.920000	495.00	-0.20	-0.13
3.15	0.00	0.00	0.00	0.00	0.00	0.00	0.00	0.00	0.00	0.00	0.00	0.00	0.00	0.00	0.00	0.00	-4.835449	-0.291504	1.164062	2.310000	-372.260010	168.139999	0.00	0.00	0.00	6.00	5.25	4.50	7.00	2.50	6.25	0.25	3.00	0.00	2.50	1.75	1.50	1.75	0.25	0.00	0.00	-0.117188	0.161133	0.977051	-34.020000	16.660000	-10.220000	460.00	-0.17	-0.13
3.16	0.00	0.00	0.00	0.00	0.00	0.00	0.00	0.00	0.00	0.00	0.00	0.00	0.00	0.00	0.00	0.00	-4.909668	-0.205078	0.610840	-18.969999	-313.110016	137.410004	0.00	0.00	0.00	5.25	4.50	4.00	6.50	3.00	5.75	0.25	2.75	0.00	2.75	1.75	1.50	2.25	0.50	0.00	0.00	-0.226562	0.108887	1.007324	-26.670000	13.020000	-10.290000	439.00	-0.15	-0.13
3.17	0.00	0.00	0.00	0.00	0.00	0.00	0.00	0.00	0.00	0.00	0.00	0.00	0.00	0.00	0.00	0.00	-5.024414	0.160645	0.108887	-29.680000	-252.000000	91.070000	0.00	0.00	0.00	4.25	2.50	3.75	6.25	3.50	5.50	0.25	2.50	0.25	3.50	1.75	2.00	2.75	0.50	0.00	0.00	-0.228027	0.103027	0.970703	-18.830000	9.170000	-10.570000	425.00	-0.11	-0.13
3.18	0.00	0.00	0.00	0.25	0.00	0.00	0.00	0.00	0.00	0.00	0.00	0.00	0.00	0.00	0.00	0.00	-5.329590	0.548828	-0.286621	-12.460000	-189.210007	45.639999	3.00	0.00	0.00	3.50	2.25	3.50	5.50	3.25	5.25	0.50	2.75	0.75	3.75	2.25	2.00	3.00	1.25	0.00	0.00	-0.182129	0.114258	0.943848	-13.720000	7.840000	-10.920000	429.00	-0.08	-0.12
3.19	0.00	0.00	0.00	0.00	0.00	0.00	0.00	0.00	0.00	0.00	0.00	0.00	0.00	0.00	0.00	0.00	-5.633301	0.741699	-0.465332	22.820000	-132.860001	9.660000	0.00	0.00	0.00	2.75	1.50	2.75	5.00	4.25	5.00	0.50	3.00	0.75	4.00	2.50	2.25	3.25	1.25	0.25	0.00	-0.197754	0.111328	0.970215	-10.360000	9.520000	-12.250000	425.00	-0.05	-0.12
3.20	0.00	0.00	0.00	0.00	0.00	0.00	0.00	0.00	0.00	0.00	0.00	0.00	0.00	0.00	0.00	0.00	-5.719727	0.769043	-0.955566	59.080002	-85.190002	-8.890000	0.00	0.00	0.00	2.25	1.00	2.75	4.50	4.25	4.75	0.50	3.00	1.50	4.25	2.75	3.00	4.00	2.50	0.50	0.25	-0.215332	0.085449	0.979492	-5.600000	12.950000	-13.790000	451.00	-0.01	-0.12
3.21	0.00	0.00	0.00	0.00	0.00	0.00	0.00	0.00	0.00	0.00	0.00	0.00	0.00	0.00	0.00	0.00	-5.616699	0.569336	-1.300293	79.309998	-24.150000	-10.290000	0.00	0.00	0.00	2.00	0.75	2.00	4.75	4.00	4.00	0.50	3.25	1.50	5.75	3.25	3.00	5.00	3.25	0.75	0.50	-0.209473	0.099121	0.938965	0.770000	16.240000	-14.630000	473.00	0.03	-0.12
3.22	0.00	0.00	0.00	0.00	0.00	0.00	0.00	0.00	0.00	0.00	0.00	0.00	0.00	0.00	0.00	0.00	-5.262207	0.364746	-0.801758	86.730003	45.430000	-5.390000	0.00	0.00	0.00	1.50	0.50	1.75	4.50	3.75	4.00	0.50	3.50	2.25	7.50	4.00	4.25	6.75	3.75	1.25	1.00	-0.202637	0.104004	0.961914	5.110000	19.809999	-14.070000	538.00	0.07	-0.12
3.23	1.50	0.75	0.50	1.25	0.00	0.00	0.00	0.00	0.00	0.00	0.00	0.00	0.00	0.00	0.00	0.00	-7.085449	1.167480	0.543945	186.830002	248.850006	25.969999	42.00	0.00	0.00	1.50	0.00	1.25	3.50	3.50	4.00	0.25	3.75	2.75	8.25	5.50	6.00	7.75	5.50	1.25	1.50	-0.212891	0.108398	0.958984	6.230000	24.290001	-13.160000	589.00	0.11	-0.12
3.24	7.50	7.75	1.75	3.00	0.00	0.00	0.00	0.00	0.00	0.00	0.00	0.00	0.00	0.00	0.00	0.00	-1.260742	-0.838379	-1.889160	89.949997	268.029999	-1.470000	201.00	-0.38	-0.05	1.50	0.00	1.25	3.50	3.25	3.25	0.25	4.25	3.00	9.00	7.25	7.75	8.50	6.50	1.50	1.75	-0.219727	0.095703	0.979980	8.820000	30.100000	-13.650000	652.00	0.12	-0.13
3.25	21.00	23.25	3.75	5.50	0.00	0.00	0.00	0.00	0.00	0.00	0.00	0.00	0.00	0.00	0.00	0.00	0.172852	-0.206055	1.841309	-89.739998	253.470001	-67.269997	534.00	-0.38	-0.04	1.25	0.00	1.00	2.75	2.75	3.25	0.25	4.75	4.00	10.00	8.25	8.50	9.25	7.50	2.00	2.75	-0.255859	0.106934	0.976562	12.180000	37.380001	-13.580000	708.00	0.15	-0.12
3.26	29.25	30.75	5.00	8.75	0.00	0.00	0.00	0.00	0.00	0.00	0.00	0.00	0.00	0.00	0.00	0.00	-1.364258	0.698730	1.010254	-31.500000	382.549988	-56.420002	738.00	-0.38	-0.04	1.00	0.25	0.75	2.75	2.00	3.00	0.00	4.50	4.75	10.75	9.00	9.25	10.00	8.50	2.25	3.25	-0.227051	0.159668	1.018555	15.890000	45.920002	-14.980000	741.00	0.16	-0.12
3.27	32.75	35.75	7.25	11.00	0.00	0.50	0.00	0.00	0.00	0.00	0.00	0.00	0.00	0.25	0.00	0.00	-2.229492	0.082520	4.729980	59.709999	486.779999	-40.670002	877.00	-0.38	-0.04	1.25	0.00	0.50	2.50	0.75	2.25	0.00	4.50	5.25	11.50	10.00	10.25	10.50	9.75	3.00	4.75	-0.283203	0.152832	1.045410	20.580000	59.220001	-19.740000	780.00	0.18	-0.12
3.28	34.50	37.50	9.25	14.75	0.50	2.50	0.00	0.25	0.00	0.00	0.00	0.00	0.00	0.00	0.00	0.00	-1.219727	-0.636230	3.069824	111.230003	426.089996	-32.689999	1004.00	-0.37	-0.05	1.00	0.00	0.25	2.25	1.00	2.00	0.00	4.25	6.00	12.50	10.75	11.25	11.25	12.00	3.50	6.00	-0.269531	0.134277	0.979980	26.040001	72.239998	-23.660000	844.00	0.20	-0.11
3.29	33.75	37.25	10.25	16.25	1.25	4.75	0.00	0.75	0.00	0.00	0.00	0.00	0.00	0.00	0.00	0.00	-1.219727	0.613770	3.069824	102.620003	302.750000	-56.840000	1062.00	-0.35	-0.06	1.00	0.00	0.00	1.75	0.50	1.50	0.00	3.75	6.50	13.25	11.75	12.00	11.50	14.25	5.25	6.50	-0.294434	0.181152	1.036133	32.689999	87.849998	-27.790001	893.00	0.22	-0.10
3.30	32.25	35.00	11.00	17.25	1.50	6.75	0.00	1.25	0.00	0.00	0.00	0.25	0.25	0.00	0.00	0.00	-0.607422	1.452637	1.996094	37.869999	175.000000	-33.670002	1082.00	-0.34	-0.07	1.00	0.00	0.25	2.00	0.25	0.50	0.00	3.50	7.25	14.00	12.50	12.25	11.75	16.50	6.50	7.25	-0.311523	0.191895	1.072266	41.860001	111.720001	-32.689999	947.00	0.23	-0.09
3.31	30.75	33.00	11.00	17.25	1.50	7.75	0.00	1.75	0.00	0.00	0.00	0.25	0.50	0.00	0.00	0.00	-0.209473	-0.004395	1.124512	-14.490000	91.840004	-13.510000	1068.00	-0.33	-0.08	1.00	0.00	0.00	2.25	0.00	0.50	0.00	3.25	7.50	14.50	13.00	13.00	11.50	18.75	7.25	8.00	-0.363281	0.265625	1.083496	56.000000	145.250000	-38.009998	992.00	0.24	-0.08
3.32	29.50	32.50	11.50	17.75	2.00	8.75	0.00	2.50	0.00	0.00	0.00	0.50	0.75	0.00	0.00	0.00	-0.326660	0.327637	1.111328	-48.580002	67.690002	-12.880000	1095.00	-0.32	-0.08	1.00	0.00	0.00	1.50	0.00	0.50	0.00	3.00	7.75	15.25	13.25	13.00	11.25	20.75	8.00	8.50	-0.420410	0.140137	1.240234	70.769997	175.559998	-44.240002	1019.00	0.25	-0.07
3.33	29.50	31.50	11.75	17.75	2.25	9.00	0.00	2.50	0.00	0.00	0.00	0.50	1.00	0.00	0.00	0.00	-0.200195	0.128906	0.954590	-69.300003	58.029999	-7.980000	1096.00	-0.32	-0.08	0.75	0.00	0.00	1.50	0.00	0.25	0.00	2.75	8.25	15.75	13.75	13.00	10.50	22.50	8.75	9.00	-0.451660	0.193359	1.058105	5.460000	280.279999	-56.910000	1045.00	0.26	-0.07
3.34	29.00	31.00	11.75	17.50	2.75	9.25	0.25	3.25	0.00	0.00	0.00	0.25	1.25	0.00	0.00	0.00	-0.223633	0.076660	1.093262	-69.720001	47.599998	-8.400000	1106.00	-0.31	-0.09	0.75	0.00	0.25	1.50	0.00	0.00	0.00	2.25	8.50	16.00	13.50	12.75	9.75	23.75	9.25	9.25	-0.518555	0.213867	1.169922	-22.260000	319.899994	-61.740002	1049.00	0.26	-0.06
3.35	28.00	30.00	11.50	17.25	3.00	9.75	0.00	3.75	0.00	0.00	0.25	0.50	1.50	0.25	0.00	0.00	-0.231934	0.171387	1.024902	-59.779999	35.349998	-7.840000	1103.00	-0.31	-0.09	0.75	0.00	0.00	1.50	0.00	0.00	0.00	2.25	9.00	16.50	13.50	12.25	9.00	24.50	9.50	9.50	-0.524414	0.145020	1.181641	-29.820000	359.170013	-64.050003	1057.00	0.27	-0.05
3.36	27.25	28.75	11.25	16.75	3.50	9.50	0.25	4.00	0.00	0.25	0.25	0.50	1.50	0.50	0.00	0.00	-0.204102	0.113770	0.965332	-54.459999	31.500000	-6.370000	1090.00	-0.30	-0.09	0.50	0.00	0.00	1.00	0.00	0.00	0.00	1.50	9.25	17.00	13.50	11.75	8.00	25.00	9.50	10.00	-0.554199	0.089844	1.388672	-38.570000	391.440002	-64.260002	1039.00	0.27	-0.04
3.37	25.25	27.25	11.00	16.25	4.00	9.75	0.00	4.25	0.00	0.25	0.00	0.50	1.50	0.50	0.00	0.00	-0.221191	0.105957	1.016113	-46.480000	24.500000	-7.140000	1053.00	-0.29	-0.10	0.50	0.00	0.00	1.25	0.00	0.00	0.00	1.25	9.25	17.00	13.50	11.00	7.00	24.50	9.25	10.25	-0.609863	0.125488	1.196289	-51.869999	432.250000	-63.560001	1016.00	0.28	-0.03
3.38	24.50	25.00	10.75	15.75	4.25	9.75	0.25	4.25	0.00	0.25	0.25	0.50	1.50	0.75	0.00	0.00	-0.214844	0.084961	0.970703	-33.250000	18.760000	-7.560000	1027.00	-0.29	-0.09	0.25	0.00	0.00	1.00	0.00	0.00	0.00	1.25	9.00	17.00	13.25	10.25	6.00	23.75	8.75	10.00	-0.747559	0.261719	1.470215	-61.810001	482.230011	-66.430000	975.00	0.28	-0.03
3.39	22.50	22.75	10.00	14.50	4.25	9.25	0.25	4.25	0.00	0.00	0.25	0.50	1.75	0.75	0.25	0.00	-0.195801	0.082520	0.968262	-24.080000	18.059999	-7.420000	961.00	-0.28	-0.10	0.25	0.00	0.00	0.75	0.00	0.00	0.00	1.00	8.00	15.75	12.75	9.50	5.00	23.00	8.25	9.50	-1.110840	0.463867	1.716797	-56.349998	534.659973	-71.050003	906.00	0.28	-0.02
3.40	20.00	20.25	9.50	13.25	4.00	9.00	0.25	4.50	0.00	0.50	0.25	0.75	2.00	1.25	0.25	0.00	-0.185059	0.078125	0.950195	-20.020000	18.830000	-7.700000	905.00	-0.27	-0.10	0.00	0.00	0.00	0.50	0.00	0.00	0.00	0.50	6.50	13.75	11.50	8.25	3.75	21.50	7.75	8.75	-1.628906	0.512695	2.247070	-26.880001	584.150024	-70.419998	793.00	0.29	-0.02
3.41	17.75	17.50	9.00	11.75	4.25	8.75	0.00	4.50	0.00	0.50	0.50	0.50	2.25	1.00	0.25	0.00	-0.206055	0.079102	0.972656	-18.059999	21.700001	-8.050000	831.00	-0.26	-0.10	0.00	0.00	0.00	0.00	0.00	0.00	0.00	0.00	4.50	11.25	9.25	6.25	2.50	19.50	6.50	6.75	-2.437988	1.139160	2.262207	19.389999	634.409973	-64.889999	632.00	0.30	-0.01
3.42	14.75	14.50	8.25	10.00	4.00	8.50	0.25	4.25	0.00	0.50	0.50	0.75	2.00	1.00	0.25	0.00	-0.211914	0.077637	0.964355	-15.260000	24.150000	-7.560000	740.00	-0.25	-0.11	0.00	0.00	0.00	0.00	0.00	0.00	0.00	0.00	3.00	9.25	7.00	4.25	1.00	16.25	5.00	4.75	-3.200195	0.483398	3.719238	88.830002	668.500000	-62.369999	479.00	0.31	0.01
3.43	11.50	11.25	7.50	9.00	3.75	8.00	0.00	4.25	0.00	0.75	0.50	0.50	2.25	1.25	0.25	0.00	-0.206543	0.081055	0.960449	-12.600000	25.410000	-6.930000	649.00	-0.23	-0.11	0.00	0.00	0.00	0.00	0.00	0.00	0.00	0.00	2.00	7.50	4.75	3.00	1.00	11.75	3.25	2.00	-2.692383	0.830566	5.680664	141.960007	667.380005	-57.119999	339.00	0.31	0.01
3.44	9.00	8.50	6.75	8.00	3.50	7.50	0.00	4.25	0.00	0.75	0.50	0.50	2.50	1.75	0.50	0.00	-0.196777	0.074219	0.958984	-11.060000	26.040001	-6.300000	579.00	-0.20	-0.12	0.00	0.00	0.00	0.00	0.00	0.00	0.00	0.00	1.00	5.75	3.50	2.75	0.50	8.00	2.25	0.50	-1.754395	0.089355	4.357422	190.680008	660.520020	-67.340004	237.00	0.30	0.01
3.45	7.00	6.75	5.75	7.00	3.25	7.00	0.00	3.75	0.00	0.75	0.75	0.75	2.50	1.75	0.50	0.00	-0.192383	0.071289	0.947754	-11.130000	27.719999	-6.930000	510.00	-0.18	-0.13	0.00	0.00	0.00	0.25	0.00	0.00	0.00	0.00	0.50	5.50	3.00	2.50	0.25	3.75	0.75	0.00	-0.390137	-0.121094	4.483887	157.289993	637.489990	-98.070000	166.00	0.26	-0.02
3.46	5.25	5.25	5.00	6.00	3.00	6.25	0.00	3.75	0.00	1.00	1.00	0.75	2.50	2.25	0.50	0.00	-0.221191	0.075684	0.954102	-11.340000	28.350000	-7.840000	457.00	-0.15	-0.13	0.00	0.00	0.00	0.00	0.00	0.00	0.00	0.00	0.25	3.00	2.00	0.25	0.00	2.00	0.25	0.00	-0.198242	0.540039	2.201172	66.919998	598.710022	-153.930008	78.00	0.28	0.03
3.47	3.75	3.75	4.00	5.25	2.75	5.75	0.00	3.75	0.25	1.50	1.25	1.00	2.50	2.75	0.75	0.25	-0.219727	0.081543	0.946777	-11.340000	28.210001	-8.890000	422.00	-0.11	-0.14	0.25	0.00	0.00	0.25	0.00	0.00	0.00	0.00	0.25	3.25	2.00	1.00	0.00	1.25	0.25	0.00	-0.190430	1.168945	4.273438	45.849998	528.220032	-200.410004	87.00	0.22	-0.01
3.48	2.75	3.00	3.25	4.25	2.75	5.25	0.00	3.50	0.25	1.50	1.25	1.25	3.00	3.50	0.75	0.25	-0.262695	0.067871	0.952637	-10.640000	27.160000	-10.150000	390.00	-0.07	-0.14	0.00	0.00	0.00	0.75	0.00	0.00	0.00	0.00	0.25	3.00	1.75	1.00	0.00	1.00	0.00	0.00	-1.059082	2.194336	8.004883	45.849998	365.329987	-184.029999	80.00	0.20	-0.03
3.49	2.00	2.25	2.50	3.75	2.50	4.75	0.00	3.25	0.75	2.00	1.50	1.50	3.00	4.00	1.00	0.25	-0.194824	0.075684	0.937500	-10.360000	27.020000	-10.780000	373.00	-0.03	-0.13	0.00	0.00	0.00	0.00	0.00	0.00	0.00	0.00	0.50	2.75	1.75	1.00	0.00	0.50	0.00	0.00	1.652832	0.891602	5.295898	44.240002	143.009995	-137.830002	68.00	0.24	-0.01
3.50	1.75	1.75	2.25	3.25	2.25	4.00	0.00	3.00	0.75	2.50	1.75	1.75	3.25	5.00	1.00	0.50	-0.249023	0.054199	0.928223	-8.610000	27.370001	-11.620000	365.00	0.01	-0.12	0.00	0.00	0.00	0.25	0.00	0.00	0.00	0.00	0.25	2.50	1.75	0.75	0.00	0.50	0.00	0.00	0.808105	0.976562	3.075684	-80.849998	-221.899994	-31.360001	63.00	0.22	-0.03
3.51	1.25	1.50	1.50	3.25	2.25	3.50	0.00	3.00	1.00	2.75	2.25	2.00	4.00	5.50	1.25	0.50	-0.233887	0.062988	0.927246	-6.650000	28.210001	-12.110000	371.00	0.04	-0.13	0.00	0.00	0.00	0.00	0.00	0.00	0.00	0.00	0.00	2.50	1.50	0.75	0.00	0.25	0.00	0.00	0.808105	0.976562	3.075684	-80.849998	-221.899994	-31.360001	52.00	0.24	-0.04
3.52	0.50	1.50	1.00	2.50	2.00	3.00	0.00	2.75	1.75	3.50	3.00	2.50	4.25	7.00	1.25	0.75	-0.250977	0.055176	0.940430	-1.330000	30.799999	-14.000000	385.00	0.10	-0.11	0.00	0.00	0.00	0.25	0.00	0.00	0.00	0.00	0.00	2.00	1.50	0.75	0.00	0.25	0.00	0.00	0.867188	0.836426	2.441406	-105.980003	-294.910004	3.430000	49.00	0.00	0.00
3.53	1.00	1.25	1.00	2.25	2.00	2.75	0.00	3.00	2.25	5.50	3.75	3.25	5.00	8.00	1.50	1.00	-0.240723	0.058594	0.938477	-0.350000	35.980000	-14.350000	448.00	0.12	-0.10	0.00	0.00	0.00	0.00	0.00	0.00	0.00	0.00	0.00	2.25	1.25	0.75	0.00	0.25	0.00	0.00	0.612793	0.548828	1.693848	-70.139999	-394.309998	26.880001	47.00	0.00	0.00
3.54	0.50	1.25	1.00	1.75	1.50	2.00	0.00	3.00	3.25	7.25	5.50	4.50	5.50	9.25	1.75	1.25	-0.269531	0.070312	0.959961	2.660000	42.349998	-15.330000	506.00	0.16	-0.09	0.00	0.00	0.00	0.50	0.00	0.00	0.00	0.00	0.00	2.25	1.25	0.75	0.00	0.00	0.00	0.00	0.391113	0.324219	1.437012	-40.950001	-426.230011	23.030001	50.00	0.00	0.00
3.55	0.50	0.75	0.50	1.75	1.25	1.25	0.00	2.75	4.50	8.00	7.50	5.50	6.00	10.50	1.75	1.50	-0.288086	0.078125	0.959473	7.840000	48.090000	-17.430000	553.00	0.19	-0.07	0.00	0.00	0.00	0.25	0.00	0.00	0.00	0.00	0.00	2.00	1.00	0.50	0.00	0.00	0.00	0.00	0.195312	0.251465	1.281250	-21.420000	-448.839996	15.050000	39.00	0.00	0.00
3.56	0.50	1.00	0.25	1.25	1.00	1.25	0.00	2.50	5.25	9.00	8.50	6.75	7.00	12.00	2.50	2.00	-0.301270	0.048828	0.965820	14.280000	57.119999	-17.780001	616.00	0.21	-0.07	0.00	0.00	0.00	0.00	0.00	0.00	0.00	0.00	0.00	2.00	1.00	0.50	0.00	0.00	0.00	0.00	0.016602	0.185059	1.270996	-10.990000	-465.989990	10.990000	37.00	0.00	0.00
3.57	0.50	0.50	0.25	1.25	0.75	1.25	0.00	2.50	6.75	10.25	9.50	8.00	7.25	13.50	3.00	2.50	-0.278320	0.093750	0.984375	26.389999	69.300003	-18.480000	688.00	0.22	-0.06	0.00	0.00	0.00	0.00	0.00	0.00	0.00	0.00	0.00	1.75	0.75	0.25	0.00	0.00	0.00	0.00	-0.110840	0.170410	1.322754	-7.490000	-481.950012	13.580000	29.00	0.00	0.00
3.58	0.25	0.75	0.25	1.50	0.50	1.00	0.00	2.50	7.75	11.00	10.50	8.75	7.75	15.25	4.50	3.25	-0.314453	0.108887	0.982422	43.400002	86.099998	-19.110001	763.00	0.23	-0.06	0.25	0.00	0.00	0.25	0.00	0.00	0.00	0.00	0.00	1.50	0.75	0.50	0.00	0.25	0.00	0.00	-0.231934	0.224609	1.314941	-4.270000	-496.860016	20.650000	36.00	0.00	0.00
3.59	0.00	0.75	0.25	1.25	0.25	0.50	0.00	2.25	8.50	11.75	11.50	9.50	8.50	16.75	5.25	4.25	-0.353027	0.074707	1.000488	55.510002	118.090004	-17.710001	815.00	0.24	-0.05	0.00	0.00	0.00	0.00	0.00	0.00	0.00	0.00	0.00	1.75	0.75	0.25	0.00	0.00	0.00	0.00	-0.339355	0.247559	1.216797	1.050000	-504.559998	30.240000	29.00	0.00	0.00
3.60	0.00	0.50	0.00	1.25	0.00	0.25	0.00	2.00	8.75	12.75	12.75	10.50	8.75	18.00	6.00	5.25	-0.401855	0.098633	0.967773	56.070000	150.009995	-14.560000	864.00	0.25	-0.05	0.00	0.00	0.00	0.00	0.00	0.00	0.00	0.00	0.00	1.50	0.75	0.25	0.00	0.00	0.00	0.00	-0.417480	0.266602	1.088867	6.720000	-501.619995	39.759998	26.00	0.00	0.00
3.61	0.25	0.50	0.00	1.00	0.00	0.25	0.00	1.50	9.25	13.25	13.75	11.25	9.00	19.50	6.75	5.50	-0.384277	0.068359	1.008789	45.500000	166.740005	-12.320000	910.00	0.26	-0.05	0.00	0.00	0.00	0.00	0.00	0.00	0.00	0.00	0.00	1.50	1.00	0.50	0.00	0.00	0.00	0.00	-0.504883	0.306152	0.983398	11.410000	-487.619995	46.689999	31.00	0.00	0.00
3.62	0.00	0.50	0.00	0.75	0.00	0.00	0.00	1.25	9.50	14.00	14.50	12.00	9.25	20.75	7.50	6.25	-0.377441	0.111328	1.205566	22.610001	179.130005	-11.900000	950.00	0.27	-0.05	0.00	0.00	0.00	0.00	0.00	0.00	0.00	0.00	0.00	1.25	0.75	0.25	0.00	0.00	0.00	0.00	-0.537109	0.332520	1.099121	17.360001	-467.529999	50.400002	23.00	0.00	0.00
3.63	0.00	0.00	0.00	0.75	0.00	0.00	0.00	1.25	9.75	14.50	15.00	12.50	9.00	22.00	8.25	6.75	-0.410645	0.178711	1.015137	10.850000	204.889999	-13.860000	984.00	0.27	-0.04	0.00	0.00	0.00	0.00	0.00	0.00	0.00	0.00	0.00	1.50	0.75	0.25	0.00	0.00	0.00	0.00	-0.521973	0.364746	1.449707	29.820000	-454.860016	51.170002	26.00	0.00	0.00
3.64	0.00	0.50	0.00	0.75	0.00	0.00	0.00	1.00	10.00	14.75	15.50	12.50	9.00	22.75	8.50	7.00	-0.460938	0.163086	1.063477	7.210000	239.470001	-19.250000	1006.00	0.27	-0.04	0.00	0.00	0.00	0.00	0.00	0.00	0.00	0.00	0.00	1.50	0.75	0.25	0.00	0.25	0.00	0.00	-0.539551	0.376953	1.832031	51.450001	-457.660004	49.070000	28.00	0.00	0.00
3.65	0.00	0.00	0.00	0.75	0.00	0.00	0.00	1.00	10.25	15.25	15.75	12.75	8.50	23.25	9.00	7.25	-0.538086	0.172852	1.141113	5.320000	277.339996	-25.690001	1022.00	0.28	-0.04	0.00	0.00	0.00	0.00	0.00	0.00	0.00	0.00	0.00	1.25	0.50	0.25	0.00	0.00	0.00	0.00	-0.657715	0.315430	2.055176	80.919998	-472.570007	44.520000	21.00	0.00	0.00
3.66	0.00	0.00	0.00	0.75	0.00	0.00	0.00	0.75	10.25	15.75	16.00	12.50	7.75	23.25	9.00	7.50	-0.599609	0.161621	1.180176	4.760000	318.989990	-32.410000	1018.00	0.28	-0.03	0.00	0.00	0.00	0.00	0.00	0.00	0.00	0.00	0.00	1.25	0.75	0.25	0.00	0.25	0.00	0.00	-0.865723	0.265625	2.231445	110.320000	-487.899994	38.779999	26.00	0.00	0.00
3.67	0.00	0.00	0.00	0.00	0.00	0.00	0.00	0.50	10.25	15.75	16.25	12.25	7.25	23.25	9.00	7.25	-0.630371	0.183105	1.184570	2.940000	360.779999	-38.080002	1000.00	0.28	-0.03	0.00	0.00	0.00	0.00	0.00	0.00	0.00	0.00	0.00	1.25	0.50	0.25	0.00	0.00	0.00	0.00	-1.137695	0.322754	2.409180	127.190002	-496.929993	33.529999	21.00	0.00	0.00
3.68	0.00	0.00	0.00	0.00	0.00	0.00	0.00	0.50	10.00	15.50	16.00	11.75	6.50	22.50	8.75	7.25	-0.689941	0.177246	1.296875	-0.210000	406.980011	-47.599998	971.00	0.28	-0.03	0.00	0.00	0.00	0.25	0.00	0.00	0.00	0.00	0.00	1.00	0.50	0.00	0.00	0.00	0.00	0.00	-1.460449	0.392578	2.468262	129.360001	-500.989990	38.639999	18.00	0.00	0.00
3.69	0.00	0.00	0.00	0.00	0.00	0.00	0.00	0.50	9.25	14.50	15.75	11.00	6.00	22.00	8.25	7.00	-0.781738	0.250488	1.328613	0.490000	464.940002	-54.180000	925.00	0.29	-0.03	0.00	0.00	0.00	0.75	0.00	0.00	0.00	0.00	0.00	1.00	0.25	0.00	0.00	0.00	0.00	0.00	-1.733398	0.474121	2.547363	121.449997	-497.769989	55.439999	21.00	0.00	0.00
3.70	0.00	0.00	0.00	0.00	0.00	0.00	0.00	0.25	7.75	12.75	14.25	9.75	5.25	20.75	7.75	6.50	-1.064941	0.223145	1.675781	8.260000	523.109985	-54.250000	829.00	0.29	-0.02	0.00	0.00	0.00	0.00	0.00	0.00	0.00	0.00	0.00	1.25	0.25	0.00	0.00	0.00	0.00	0.00	-2.045410	0.563477	2.479492	115.150002	-493.640015	78.820000	16.00	0.00	0.00
