# time	left pressure 1[N/cm²]	left pressure 2[N/cm²]	left pressure 3[N/cm²]	left pressure 4[N/cm²]	left pressure 5[N/cm²]	left pressure 6[N/cm²]	left pressure 7[N/cm²]	left pressure 8[N/cm²]	left pressure 9[N/cm²]	left pressure 10[N/cm²]	left pressure 11[N/cm²]	left pressure 12[N/cm²]	left pressure 13[N/cm²]	left pressure 14[N/cm²]	left pressure 15[N/cm²]	left pressure 16[N/cm²]	left acceleration X[g]	left acceleration Y[g]	left acceleration Z[g]	left angular X[dps]	left angular Y[dps]	left angular Z[dps]	left total force[N]	left center of pressure X[%]	left center of pressure Y[%]	right pressure 1[N/cm²]	right pressure 2[N/cm²]	right pressure 3[N/cm²]	right pressure 4[N/cm²]	right pressure 5[N/cm²]	right pressure 6[N/cm²]	right pressure 7[N/cm²]	right pressure 8[N/cm²]	right pressure 9[N/cm²]	right pressure 10[N/cm²]	right pressure 11[N/cm²]	right pressure 12[N/cm²]	right pressure 13[N/cm²]	right pressure 14[N/cm²]	right pressure 15[N/cm²]	right pressure 16[N/cm²]	right acceleration X[g]	right acceleration Y[g]	right acceleration Z[g]	right angular X[dps]	right angular Y[dps]	right angular Z[dps]	right total force[N]	right center of pressure X[%]	right center of pressure Y[%]
0.00	1.50	2.00	0.50	0.75	0.25	0.00	0.25	0.00	0.00	0.00	0.00	0.00	0.00	0.00	0.00	0.00	-0.319824	0.119141	0.907227	-3.080000	3.990000	1.050000	59.00	-0.33	-0.03																									
0.01	1.00	2.25	0.50	0.75	0.75	0.00	0.25	0.00	0.00	0.00	0.00	0.00	0.25	0.00	0.00	0.00	-0.319336	0.124512	0.908691	-3.080000	4.060000	0.980000	65.00	-0.29	-0.05																									
0.02	1.50	1.50	0.50	1.00	0.50	0.00	0.25	0.00	0.00	0.00	0.00	0.00	0.00	0.00	0.00	0.00	-0.321289	0.126953	0.914062	-2.940000	3.920000	1.050000	60.00	-0.31	-0.02																									
0.03	1.50	2.00	0.50	0.75	0.50	0.00	0.25	0.00	0.00	0.00	0.00	0.00	0.00	0.00	0.00	0.00	-0.318359	0.125488	0.916992	-2.940000	3.920000	0.980000	62.00	-0.32	-0.03																									
0.04	0.75	1.25	0.50	0.50	0.50	0.00	0.00	0.00	0.00	0.00	0.00	0.00	0.00	0.00	0.00	0.00	-0.320312	0.124512	0.911133	-2.870000	3.850000	1.050000	39.00	0.00	0.00																									
0.05	1.00	1.75	0.50	1.00	0.50	0.00	0.25	0.00	0.00	0.00	0.00	0.00	0.50	0.00	0.00	0.00	-0.321777	0.121094	0.916504	-2.940000	3.990000	1.120000	62.00	-0.27	-0.08																									
0.06	1.25	2.00	0.50	0.75	0.50	0.00	0.00	0.00	0.00	0.00	0.00	0.00	0.00	0.00	0.00	0.00	-0.319336	0.125000	0.908691	-2.940000	3.920000	1.120000	55.00	-0.34	-0.05																									
0.07	1.75	2.50	0.00	1.00	0.50	0.00	0.00	0.00	0.00	0.00	0.00	0.00	0.00	0.00	0.00	0.00	-0.323730	0.121582	0.910156	-3.010000	3.990000	1.120000	63.00	-0.36	-0.07																									
0.08	1.25	2.00	0.75	1.00	0.50	0.00	0.25	0.00	0.00	0.00	0.00	0.00	0.00	0.00	0.00	0.00	-0.318359	0.126465	0.918457	-2.800000	3.850000	0.980000	66.00	-0.31	-0.04																									
0.09	1.25	2.50	0.75	1.00	0.50	0.00	0.25	0.00	0.00	0.00	0.25	0.00	0.00	0.00	0.00	0.00	-0.318359	0.126953	0.910156	-2.730000	3.780000	1.050000	73.00	-0.30	-0.05																									
0.10	1.50	2.25	1.00	0.75	0.50	0.00	0.25	0.00	0.25	0.00	0.00	0.00	0.00	0.00	0.00	0.00	-0.313477	0.134277	0.916504	-2.590000	3.570000	1.120000	75.00	-0.29	-0.01																									
0.11	1.75	2.25	0.75	1.25	0.50	0.00	0.25	0.00	0.00	0.00	0.00	0.00	0.00	0.00	0.00	0.00	-0.314941	0.118652	0.909668	-2.590000	3.640000	1.050000	77.00	-0.32	-0.04																									
0.12	1.50	2.00	0.75	0.75	0.50	0.00	0.00	0.00	0.00	0.00	0.00	0.00	0.00	0.00	0.00	0.00	-0.321289	0.124512	0.912109	-2.660000	3.640000	1.050000	61.00	-0.34	-0.04																									
0.13	1.50	1.75	0.50	1.25	0.50	0.00	0.25	0.00	0.00	0.00	0.00	0.00	0.00	0.00	0.00	0.00	-0.316895	0.125488	0.913086	-2.520000	3.710000	1.120000	66.00	-0.31	-0.04																									
0.14	1.25	2.25	0.25	1.25	0.50	0.00	0.25	0.00	0.00	0.00	0.00	0.00	0.00	0.00	0.00	0.00	-0.317871	0.126465	0.914062	-2.520000	3.640000	1.050000	65.00	-0.32	-0.06																									
0.15	1.25	2.25	0.50	0.75	0.50	0.00	0.25	0.00	0.00	0.25	0.00	0.00	0.25	0.00	0.00	0.00	-0.322266	0.123047	0.913574	-2.520000	3.710000	1.050000	67.00	-0.28	-0.05																									
0.16	1.50	2.25	0.50	1.00	0.50	0.00	0.25	0.00	0.00	0.00	0.00	0.00	0.00	0.00	0.00	0.00	-0.317871	0.124512	0.916504	-2.450000	3.710000	1.120000	68.00	-0.32	-0.04																									
0.17	1.50	2.25	0.75	1.25	0.50	0.00	0.00	0.00	0.00	0.00	0.00	0.00	0.00	0.00	0.00	0.00	-0.319336	0.125488	0.914062	-2.310000	3.640000	1.120000	70.00	-0.34	-0.06																									
0.18	1.75	2.50	0.75	1.00	0.75	0.00	0.25	0.00	0.00	0.00	0.00	0.00	0.00	0.00	0.00	0.00	-0.316895	0.127441	0.910156	-2.240000	3.500000	1.120000	79.00	-0.32	-0.03																									
0.19	1.50	1.75	0.75	1.00	0.50	0.00	0.25	0.00	0.00	0.25	0.00	0.00	0.25	0.00	0.00	0.00	-0.326172	0.130371	0.915527	-2.170000	3.360000	1.120000	71.00	-0.27	-0.04																									
0.20	1.50	2.00	0.75	1.25	0.50	0.00	0.25	0.00	0.00	0.00	0.00	0.00	0.25	0.25	0.00	0.00	-0.313965	0.121094	0.912109	-2.030000	3.360000	1.190000	76.00	-0.28	-0.04																									
0.21	1.75	2.25	0.75	1.25	0.50	0.00	0.25	0.00	0.00	0.00	0.00	0.00	0.00	0.00	0.00	0.00	-0.316895	0.125488	0.916992	-2.170000	3.430000	1.190000	77.00	-0.32	-0.04																									
0.22	1.25	2.50	0.50	1.50	0.75	0.00	0.25	0.00	0.00	0.25	0.00	0.00	0.25	0.00	0.00	0.00	-0.315430	0.120605	0.919434	-2.380000	3.780000	1.120000	82.00	-0.28	-0.07																									
0.23	1.75	2.25	0.75	1.00	0.75	0.00	0.25	0.00	0.00	0.00	0.00	0.00	0.25	0.25	0.00	0.00	-0.322266	0.120605	0.918457	-2.380000	3.780000	1.190000	81.00	-0.28	-0.03	4.75	5.00	4.75	6.25	7.25	6.75	0.75	3.75	6.00	7.50	7.25	5.00	7.75	4.50	2.50	3.25	-0.222656	0.137207	0.944336	-3.220000	0.910000	-0.070000	954.00	0.02	-0.09
0.24	1.50	2.25	0.75	1.50	0.75	0.00	0.00	0.00	0.25	0.00	0.00	0.00	0.25	0.00	0.00	0.00	-0.316895	0.122559	0.910645	-2.450000	4.060000	1.190000	82.00	-0.29	-0.06	4.25	5.00	5.00	6.25	7.00	6.75	0.75	3.75	6.25	7.50	7.50	5.00	7.75	4.50	2.75	3.25	-0.217773	0.128906	0.947266	-3.150000	0.980000	-0.000000	957.00	0.02	-0.09
0.25	1.50	2.25	0.75	1.25	0.50	0.00	0.25	0.00	0.00	0.00	0.00	0.00	0.25	0.25	0.00	0.00	-0.314453	0.122070	0.917969	-2.450000	4.060000	1.120000	79.00	-0.28	-0.05	4.50	5.00	4.75	6.25	7.00	6.75	0.75	3.50	6.25	7.50	7.50	5.00	7.50	4.75	2.50	3.25	-0.223633	0.131836	0.948242	-3.080000	0.840000	-0.000000	950.00	0.02	-0.09
0.26	1.50	2.50	0.75	1.50	0.75	0.00	0.00	0.00	0.00	0.00	0.00	0.00	0.00	0.00	0.00	0.00	-0.314941	0.132324	0.919922	-2.590000	4.060000	1.120000	78.00	-0.33	-0.06	4.75	5.00	4.75	6.25	7.25	6.75	0.75	3.50	6.25	7.50	7.50	5.00	7.50	4.75	2.50	3.25	-0.222656	0.130371	0.950684	-3.150000	1.050000	0.140000	956.00	0.02	-0.08
0.27	1.75	2.25	1.00	1.00	0.75	0.00	0.25	0.00	0.00	0.00	0.00	0.00	0.25	0.25	0.00	0.00	-0.313477	0.129883	0.913574	-2.520000	4.060000	1.120000	84.00	-0.28	-0.03																									
0.28	1.50	1.75	0.75	1.50	0.75	0.00	0.25	0.00	0.00	0.00	0.00	0.00	0.50	0.00	0.00	0.00	-0.312500	0.125000	0.913574	-2.450000	4.060000	1.260000	80.00	-0.27	-0.06	4.75	5.00	4.75	6.25	7.00	6.75	0.75	3.50	6.25	7.50	7.50	5.00	7.75	4.25	2.50	3.75	-0.225586	0.130371	0.951172	-3.220000	1.050000	0.070000	954.00	0.02	-0.09
0.29	1.25	2.25	0.75	1.50	0.75	0.00	0.25	0.00	0.00	0.25	0.00	0.00	0.25	0.25	0.00	0.00	-0.312500	0.125000	0.913574	-2.450000	4.060000	1.260000	85.00	-0.25	-0.05	4.75	5.00	4.50	6.00	7.25	6.50	0.75	3.25	6.25	7.75	7.50	5.00	7.75	4.50	2.50	3.25	-0.221680	0.130859	0.954102	-3.150000	1.050000	0.070000	946.00	0.02	-0.08
0.30	1.50	2.50	0.50	1.50	0.50	0.00	0.25	0.00	0.00	0.00	0.00	0.00	0.25	0.50	0.00	0.00	-0.317383	0.129883	0.911133	-2.590000	4.270000	1.120000	83.00	-0.27	-0.06	4.75	4.75	4.50	6.00	7.00	6.75	0.75	3.25	6.25	7.75	7.50	5.00	7.50	4.75	2.50	3.25	-0.226074	0.130859	0.952148	-3.150000	1.120000	0.140000	943.00	0.03	-0.08
0.31	1.50	2.50	0.75	1.25	0.50	0.00	0.25	0.00	0.00	0.00	0.00	0.00	0.50	0.25	0.00	0.00	-0.316406	0.127930	0.907715	-2.590000	4.270000	1.190000	83.00	-0.27	-0.06	4.25	4.50	4.50	6.00	7.00	6.75	0.75	3.50	6.25	7.75	7.50	5.00	7.75	4.50	2.75	3.25	-0.221680	0.131348	0.948242	-3.360000	0.910000	0.070000	942.00	0.03	-0.09
0.32	1.25	2.00	0.75	1.50	0.50	0.00	0.00	0.00	0.00	0.25	0.25	0.00	0.25	0.00	0.00	0.00	-0.319336	0.125000	0.913574	-2.590000	4.200000	1.190000	75.00	-0.27	-0.08	4.75	5.00	4.50	6.00	7.00	6.75	0.75	3.75	6.25	7.75	7.50	5.00	8.00	4.75	2.50	3.50	-0.219727	0.128906	0.948730	-3.290000	0.840000	0.070000	960.00	0.03	-0.09
0.33	1.50	2.25	0.50	1.00	0.50	0.00	0.25	0.00	0.00	0.00	0.00	0.00	0.50	0.25	0.00	0.00	-0.313965	0.126953	0.912109	-2.660000	4.410000	1.190000	75.00	-0.27	-0.06	4.50	5.00	4.75	6.00	7.00	6.75	0.75	3.25	6.25	7.75	7.50	5.00	8.00	4.75	2.50	3.00	-0.220215	0.129883	0.952148	-3.220000	0.840000	-0.000000	949.00	0.03	-0.08
0.34	1.75	2.00	0.75	1.00	0.75	0.00	0.25	0.00	0.00	0.00	0.00	0.00	0.50	0.00	0.00	0.00	-0.314453	0.119629	0.913574	-2.590000	4.270000	1.190000	79.00	-0.28	-0.05	4.25	4.50	4.50	6.00	7.00	6.75	0.75	3.50	6.25	7.75	7.75	5.00	7.75	4.50	2.50	3.00	-0.222656	0.132324	0.957520	-3.150000	1.120000	-0.070000	940.00	0.03	-0.09
0.35	1.50	2.50	1.00	1.25	0.75	0.00	0.00	0.00	0.00	0.00	0.00	0.00	0.50	0.25	0.00	0.00	-0.318848	0.123535	0.918945	-2.730000	4.410000	1.190000	85.00	-0.28	-0.07	4.50	4.75	4.50	6.00	7.00	6.75	0.75	3.50	6.50	7.75	7.50	5.00	7.75	4.50	2.75	3.25	-0.220703	0.134277	0.944336	-3.150000	1.120000	-0.000000	951.00	0.03	-0.09
0.36	1.25	2.50	1.00	1.00	0.50	0.00	0.25	0.00	0.00	0.00	0.00	0.00	0.50	0.25	0.00	0.00	-0.315430	0.124512	0.920410	-2.800000	4.550000	1.120000	81.00	-0.27	-0.06	4.50	4.50	4.50	6.00	7.00	6.75	0.75	3.50	6.50	7.75	7.75	5.00	7.75	4.50	2.75	3.00	-0.223145	0.138672	0.945801	-3.150000	1.050000	-0.000000	950.00	0.03	-0.08
0.37	1.50	2.75	0.75	1.00	0.75	0.00	0.25	0.00	0.00	0.25	0.00	0.00	0.50	0.00	0.00	0.00	-0.317383	0.128906	0.917969	-2.660000	4.410000	1.120000	86.00	-0.27	-0.06	4.75	5.00	4.25	6.00	7.00	6.75	0.75	3.25	6.50	7.75	7.75	5.00	7.75	4.50	2.50	3.25	-0.225098	0.136230	0.953125	-3.080000	0.910000	0.140000	949.00	0.03	-0.08
0.38	1.50	2.25	1.00	1.50	0.75	0.00	0.25	0.00	0.00	0.25	0.25	0.00	0.25	0.00	0.00	0.00	-0.315918	0.126465	0.910156	-2.660000	4.480000	1.120000	91.00	-0.26	-0.05	4.25	4.75	4.50	6.00	7.00	6.50	0.75	3.25	6.50	7.75	7.75	5.00	7.75	4.50	2.50	3.50	-0.220703	0.131348	0.955078	-3.220000	0.980000	0.070000	942.00	0.03	-0.08
0.39	1.50	2.25	1.25	1.25	0.75	0.00	0.25	0.00	0.25	0.25	0.00	0.00	0.50	0.25	0.00	0.00	-0.314453	0.124023	0.915039	-2.730000	4.550000	1.050000	96.00	-0.23	-0.03	4.25	4.75	4.25	6.00	7.25	6.50	0.75	3.25	6.25	7.75	7.75	5.00	7.75	4.75	2.50	3.25	-0.221191	0.129395	0.952637	-3.290000	0.980000	0.070000	939.00	0.03	-0.08
0.40	1.75	2.25	0.75	1.25	0.50	0.00	0.25	0.00	0.00	0.00	0.00	0.00	0.00	0.25	0.00	0.00	-0.316406	0.127441	0.910645	-2.660000	4.410000	1.190000	79.00	-0.30	-0.03	4.50	4.50	4.50	6.00	7.00	6.75	0.75	3.25	6.50	8.00	7.75	5.00	7.75	4.50	2.75	3.00	-0.222656	0.134766	0.948242	-3.290000	0.910000	-0.000000	948.00	0.03	-0.08
0.41	1.50	2.50	0.75	1.25	0.75	0.00	0.25	0.00	0.00	0.00	0.00	0.00	0.00	0.25	0.00	0.00	-0.316895	0.125000	0.917969	-2.590000	4.480000	1.120000	82.00	-0.29	-0.04	4.50	5.00	4.50	6.25	7.00	6.50	0.75	3.25	6.50	7.75	7.75	5.00	7.75	4.50	2.50	3.25	-0.222168	0.126953	0.946777	-3.220000	0.700000	0.210000	949.00	0.03	-0.08
0.42	1.50	2.00	0.75	1.00	0.50	0.00	0.25	0.00	0.00	0.25	0.00	0.00	0.25	0.25	0.00	0.00	-0.318359	0.125000	0.918945	-2.520000	4.410000	1.190000	76.00	-0.26	-0.03	4.75	4.75	4.50	6.00	7.00	6.50	0.75	3.00	6.50	8.00	7.75	5.00	7.75	4.50	2.50	3.25	-0.222656	0.129883	0.950195	-3.150000	0.770000	0.140000	945.00	0.03	-0.08
0.43	1.50	2.25	0.75	1.00	0.75	0.00	0.25	0.00	0.00	0.00	0.00	0.00	0.50	0.25	0.00	0.00	-0.316406	0.127930	0.912598	-2.590000	4.480000	1.260000	81.00	-0.26	-0.05	4.50	4.75	4.50	6.00	7.00	6.50	0.75	3.00	6.75	8.00	7.75	5.00	7.75	4.50	2.50	2.75	-0.224609	0.133301	0.952637	-3.150000	0.770000	0.070000	943.00	0.03	-0.08
0.44	1.50	2.25	0.75	1.00	0.50	0.00	0.00	0.00	0.00	0.25	0.00	0.00	0.25	0.00	0.00	0.00	-0.315918	0.130859	0.916504	-2.520000	4.550000	1.190000	72.00	-0.30	-0.06	4.50	4.50	4.25	6.00	7.00	6.50	0.75	3.00	6.50	7.75	7.75	5.00	7.75	4.50	2.75	3.25	-0.221680	0.129883	0.951660	-3.220000	0.910000	-0.000000	937.00	0.03	-0.08
0.45	1.50	2.00	0.50	1.25	0.75	0.00	0.25	0.00	0.00	0.00	0.00	0.00	0.25	0.25	0.00	0.00	-0.313965	0.123535	0.917969	-2.520000	4.620000	1.330000	76.00	-0.27	-0.05	4.25	4.50	4.50	6.00	7.00	6.50	0.75	3.00	6.75	8.00	7.75	5.00	7.75	4.50	2.75	3.50	-0.223633	0.128906	0.947754	-3.150000	0.770000	-0.070000	945.00	0.04	-0.08
0.46	1.75	2.50	0.50	1.25	0.75	0.00	0.00	0.00	0.00	0.00	0.00	0.00	0.00	0.25	0.00	0.00	-0.314941	0.128418	0.911133	-2.590000	4.550000	1.190000	77.00	-0.32	-0.05	4.25	4.75	4.25	6.50	7.00	6.50	0.75	3.25	6.50	8.00	7.50	5.00	7.75	4.75	2.75	3.50	-0.219238	0.130859	0.954590	-3.220000	0.840000	-0.070000	950.00	0.03	-0.08
0.47	1.75	2.00	0.50	1.25	0.75	0.00	0.25	0.00	0.00	0.00	0.00	0.00	0.00	0.00	0.00	0.00	-0.316895	0.133789	0.915039	-2.590000	4.550000	1.260000	74.00	-0.31	-0.03	4.25	4.50	4.25	6.25	7.00	6.75	0.75	3.25	6.50	8.00	7.50	4.75	7.75	4.75	2.75	3.25	-0.221680	0.133789	0.957520	-3.220000	0.630000	-0.000000	943.00	0.03	-0.08
0.48	1.50	2.25	0.75	1.25	0.75	0.00	0.25	0.00	0.00	0.00	0.00	0.00	0.25	0.25	0.00	0.00	-0.317871	0.128906	0.913574	-2.590000	4.620000	1.260000	82.00	-0.28	-0.04	4.25	4.50	4.50	6.25	7.25	6.50	0.75	3.25	6.50	8.00	7.75	5.00	7.75	4.50	2.50	3.50	-0.218750	0.131836	0.951660	-3.080000	0.490000	0.140000	949.00	0.03	-0.08
0.49	1.75	2.50	0.75	1.25	0.75	0.00	0.25	0.00	0.25	0.25	0.00	0.00	0.25	0.00	0.00	0.00	-0.317383	0.123535	0.916016	-2.590000	4.550000	1.260000	91.00	-0.26	-0.03	4.50	4.50	4.25	6.25	7.00	6.50	0.75	3.25	6.75	7.75	7.75	5.00	7.75	4.50	2.75	3.00	-0.225098	0.136719	0.954102	-3.220000	0.630000	0.070000	946.00	0.03	-0.08
0.50	1.50	2.50	0.75	1.50	0.50	0.00	0.00	0.00	0.00	0.00	0.00	0.00	0.25	0.00	0.00	0.00	-0.315918	0.126465	0.919434	-2.520000	4.550000	1.120000	78.00	-0.33	-0.08	4.00	4.75	4.25	6.25	7.25	6.50	0.75	3.00	6.75	8.00	7.75	4.75	8.00	4.50	2.50	3.25	-0.224121	0.135254	0.948242	-3.220000	0.630000	0.140000	943.00	0.03	-0.08
0.51	1.50	2.75	0.50	1.75	0.75	0.00	0.25	0.00	0.00	0.00	0.00	0.00	0.25	0.00	0.00	0.00	-0.313477	0.122070	0.913086	-2.450000	4.410000	1.190000	87.00	-0.30	-0.07	4.50	4.75	4.50	6.25	7.25	6.50	0.75	3.00	6.50	8.00	7.75	5.00	7.75	4.50	2.50	3.50	-0.225586	0.131836	0.946289	-3.150000	0.700000	0.070000	950.00	0.03	-0.08
0.52	2.00	2.00	0.50	1.25	0.50	0.00	0.25	0.00	0.25	0.25	0.00	0.00	0.25	0.25	0.00	0.00	-0.322266	0.127930	0.915039	-2.590000	4.410000	1.120000	85.00	-0.25	-0.02	3.75	4.75	4.50	6.25	7.25	6.50	0.75	3.00	6.50	8.00	7.75	5.00	7.75	4.50	2.75	3.50	-0.227539	0.133789	0.956055	-3.150000	0.630000	0.140000	944.00	0.03	-0.08
0.53	1.50	2.50	0.75	1.25	0.50	0.00	0.25	0.00	0.00	0.00	0.00	0.00	0.00	0.50	0.00	0.00	-0.313965	0.127930	0.916016	-2.660000	4.620000	1.050000	81.00	-0.28	-0.03	4.25	4.50	4.25	6.25	7.25	6.50	0.75	3.00	6.75	8.00	7.75	5.00	7.75	4.75	2.50	3.25	-0.225098	0.132324	0.950195	-3.080000	0.630000	-0.000000	946.00	0.03	-0.08
0.54	1.25	2.50	0.75	1.25	0.75	0.00	0.25	0.00	0.00	0.00	0.00	0.00	0.25	0.50	0.00	0.00	-0.312988	0.130859	0.914062	-2.660000	4.620000	1.050000	84.00	-0.26	-0.05	4.50	4.50	4.50	6.25	7.25	6.50	0.75	3.00	6.75	8.00	7.75	5.00	7.75	4.75	2.25	3.00	-0.219238	0.134277	0.956543	-3.220000	0.630000	0.070000	947.00	0.03	-0.08
0.55	1.25	2.50	0.75	0.75	0.75	0.00	0.25	0.00	0.00	0.00	0.00	0.00	0.25	0.25	0.00	0.00	-0.315430	0.125488	0.912109	-2.730000	4.760000	1.050000	75.00	-0.27	-0.04	4.25	4.25	4.50	6.25	7.25	6.50	0.75	3.25	6.50	8.00	7.75	5.00	8.00	4.50	2.75	3.00	-0.219727	0.127441	0.950195	-3.290000	0.630000	-0.000000	948.00	0.03	-0.08
0.56	2.00	2.50	1.00	1.25	0.50	0.00	0.25	0.00	0.00	0.25	0.00	0.00	0.25	0.25	0.00	0.00	-0.315918	0.124512	0.914551	-2.730000	4.760000	1.120000	93.00	-0.28	-0.03	4.25	4.50	4.50	6.25	7.25	6.75	0.75	3.25	6.75	8.00	7.75	5.00	7.75	4.75	2.75	3.25	-0.220703	0.138184	0.946777	-3.290000	0.630000	0.280000	959.00	0.03	-0.08
0.57	1.50	3.00	1.00	1.50	0.75	0.00	0.25	0.00	0.00	0.00	0.25	0.00	0.25	0.00	0.00	0.00	-0.312500	0.130371	0.915039	-2.660000	4.620000	1.120000	96.00	-0.29	-0.06	4.25	4.50	4.50	6.25	7.25	6.50	0.75	3.00	6.75	8.00	7.75	5.00	7.75	4.75	2.50	3.50	-0.221680	0.127930	0.962402	-3.290000	0.770000	-0.000000	950.00	0.03	-0.08
0.58	1.00	2.50	0.75	1.00	0.75	0.00	0.25	0.00	0.00	0.00	0.00	0.00	0.00	0.25	0.00	0.00	-0.313965	0.128906	0.915039	-2.660000	4.620000	1.050000	73.00	-0.28	-0.04	4.50	4.50	4.25	6.25	7.25	6.50	0.75	3.00	6.50	8.00	7.75	5.00	7.75	4.75	2.25	3.25	-0.219238	0.133789	0.947754	-3.290000	0.630000	0.070000	942.00	0.03	-0.08
0.59	1.50	2.50	1.00	1.00	0.75	0.00	0.25	0.00	0.00	0.00	0.00	0.00	0.25	0.00	0.00	0.00	-0.313477	0.125977	0.913574	-2.660000	4.760000	1.120000	82.00	-0.30	-0.04	4.00	4.25	4.25	6.00	7.25	6.50	0.75	3.00	6.75	8.00	8.00	5.00	7.75	4.75	2.50	3.25	-0.228027	0.134277	0.950684	-3.290000	0.560000	0.140000	940.00	0.04	-0.08
0.60	1.50	2.75	0.75	1.50	0.75	0.00	0.25	0.00	0.00	0.00	0.00	0.00	0.50	0.25	0.00	0.00	-0.315430	0.124512	0.906250	-2.800000	4.620000	1.330000	92.00	-0.27	-0.07	4.50	4.75	4.75	6.25	7.25	6.50	0.75	2.75	6.75	8.25	7.75	4.75	7.75	4.50	2.50	3.50	-0.221680	0.134277	0.949707	-3.220000	0.700000	0.140000	952.00	0.03	-0.08
0.61	1.50	3.00	0.75	1.50	0.75	0.00	0.25	0.00	0.00	0.00	0.00	0.00	0.25	0.00	0.00	0.00	-0.314453	0.124023	0.914551	-2.730000	4.620000	1.120000	90.00	-0.31	-0.07	4.25	4.50	4.25	6.25	7.00	6.50	0.75	3.00	6.75	8.00	7.75	4.75	7.75	4.75	2.50	3.00	-0.222656	0.132812	0.948730	-3.220000	0.770000	0.070000	938.00	0.03	-0.08
0.62	1.75	2.25	0.75	1.50	0.75	0.00	0.25	0.00	0.25	0.00	0.00	0.00	0.50	0.25	0.00	0.00	-0.316895	0.127441	0.914551	-2.730000	4.480000	1.120000	93.00	-0.25	-0.04	4.00	4.50	4.50	6.25	7.25	6.50	0.75	3.00	6.75	8.25	7.75	5.00	8.00	4.75	2.75	3.25	-0.228516	0.128906	0.954590	-3.220000	0.560000	0.140000	954.00	0.04	-0.08
0.63	1.50	2.50	0.75	1.25	0.50	0.00	0.25	0.00	0.00	0.00	0.00	0.00	0.75	0.00	0.00	0.00	-0.315918	0.128906	0.914551	-2.660000	4.480000	1.120000	83.00	-0.28	-0.08	4.25	4.25	4.75	6.25	7.25	6.50	0.75	2.75	6.75	8.00	7.75	5.00	7.75	4.75	2.75	3.25	-0.222656	0.132324	0.953125	-3.290000	0.560000	0.210000	948.00	0.03	-0.08
0.64	1.50	2.50	0.75	1.50	0.50	0.00	0.25	0.00	0.00	0.25	0.25	0.00	0.25	0.25	0.00	0.00	-0.313477	0.128418	0.917480	-2.660000	4.480000	1.190000	90.00	-0.25	-0.06	4.50	4.50	4.25	6.25	7.25	6.50	0.75	3.00	6.75	8.25	7.75	4.75	8.00	4.50	2.50	3.25	-0.222656	0.130859	0.950684	-3.220000	0.630000	0.140000	949.00	0.03	-0.08
0.65	1.75	2.50	0.50	1.00	0.75	0.00	0.25	0.00	0.00	0.00	0.00	0.00	0.25	0.00	0.00	0.00	-0.318848	0.123047	0.916016	-2.520000	4.410000	1.190000	79.00	-0.30	-0.05	4.75	4.50	4.25	6.50	7.25	6.50	0.75	3.00	6.75	8.00	7.75	4.75	8.00	4.75	2.75	3.25	-0.223633	0.126465	0.955078	-3.290000	0.770000	0.070000	957.00	0.03	-0.08
0.66	1.50	2.75	0.75	1.25	0.75	0.00	0.25	0.00	0.00	0.25	0.00	0.00	0.75	0.25	0.00	0.00	-0.312988	0.122070	0.918945	-2.380000	4.340000	1.260000	94.00	-0.25	-0.07	4.50	4.50	4.25	6.25	7.25	6.50	0.75	3.00	6.75	8.00	7.75	4.75	7.75	4.50	2.50	3.25	-0.221680	0.133301	0.949707	-3.360000	0.700000	-0.070000	943.00	0.03	-0.08
0.67	1.75	2.50	0.75	1.25	0.75	0.00	0.25	0.00	0.00	0.00	0.00	0.00	0.25	0.25	0.00	0.00	-0.316406	0.126465	0.913086	-2.450000	4.340000	1.190000	87.00	-0.28	-0.04	4.25	4.50	4.50	6.25	7.25	6.50	0.75	2.75	6.75	8.25	7.75	4.75	7.75	4.75	2.75	3.25	-0.220703	0.129395	0.950684	-3.290000	0.560000	0.070000	948.00	0.03	-0.08
0.68	1.50	2.75	1.00	1.25	0.75	0.00	0.00	0.00	0.00	0.00	0.00	0.00	0.50	0.00	0.00	0.00	-0.311523	0.125488	0.908691	-2.730000	4.620000	1.260000	86.00	-0.31	-0.08	4.50	4.50	4.00	6.25	7.25	6.50	0.75	3.00	6.75	8.00	7.75	4.75	7.75	4.50	2.50	3.25	-0.225098	0.125488	0.956055	-3.150000	0.630000	0.070000	940.00	0.03	-0.08
0.69	1.50	2.75	0.75	1.25	0.75	0.00	0.25	0.00	0.00	0.00	0.00	0.00	0.25	0.00	0.00	0.00	-0.315430	0.123535	0.917969	-2.870000	4.760000	1.120000	84.00	-0.30	-0.06	4.25	4.25	4.25	6.00	7.50	6.50	0.75	2.75	6.50	8.25	7.75	5.00	7.75	4.75	2.75	3.25	-0.225586	0.126953	0.952637	-3.150000	0.560000	0.140000	941.00	0.04	-0.08
0.70	1.25	2.50	1.00	1.25	0.75	0.00	0.25	0.00	0.00	0.00	0.00	0.00	0.25	0.25	0.00	0.00	-0.319824	0.128418	0.918945	-2.730000	4.830000	1.120000	84.00	-0.28	-0.05	4.50	4.50	4.50	6.00	7.25	6.50	0.75	3.00	6.75	8.00	7.75	4.75	7.75	4.50	2.50	3.25	-0.223145	0.129883	0.948242	-3.220000	0.630000	0.070000	943.00	0.03	-0.08
0.71	1.50	2.50	0.75	1.00	0.50	0.00	0.00	0.00	0.25	0.00	0.00	0.00	0.50	0.00	0.00	0.00	-0.312012	0.124023	0.915527	-2.730000	4.690000	1.050000	78.00	-0.29	-0.07	4.00	4.50	4.50	6.25	7.25	6.50	0.75	3.00	6.75	8.25	7.75	5.00	8.00	5.00	2.75	3.25	-0.223145	0.132324	0.948242	-3.220000	0.420000	0.280000	956.00	0.04	-0.08
0.72	1.25	2.50	0.75	1.50	0.50	0.00	0.25	0.00	0.00	0.00	0.00	0.00	0.50	0.00	0.00	0.00	-0.313477	0.127930	0.915527	-2.590000	4.690000	1.120000	81.00	-0.29	-0.08	4.25	4.75	4.25	6.25	7.25	6.50	0.75	3.00	6.50	8.25	7.75	4.75	8.00	4.75	2.50	3.25	-0.224609	0.126465	0.953125	-3.150000	0.560000	0.210000	947.00	0.03	-0.08
0.73	1.50	2.75	0.50	1.00	0.50	0.00	0.25	0.00	0.00	0.00	0.00	0.00	0.00	0.00	0.00	0.00	-0.313965	0.126465	0.915527	-2.660000	4.690000	1.120000	73.00	-0.33	-0.05	4.50	4.50	4.25	6.50	7.25	6.50	0.75	3.25	6.75	8.25	7.75	5.00	7.75	4.50	2.25	3.50	-0.220703	0.127441	0.954590	-3.220000	0.560000	0.070000	955.00	0.03	-0.08
0.74	1.25	2.50	0.75	1.25	0.75	0.00	0.25	0.00	0.00	0.25	0.25	0.00	0.50	0.00	0.00	0.00	-0.316895	0.122070	0.916992	-2.730000	4.690000	1.050000	87.00	-0.25	-0.07	4.50	4.50	4.25	6.25	7.50	6.50	0.75	3.00	6.75	8.25	7.75	5.00	8.00	4.50	2.25	3.25	-0.219238	0.131348	0.947266	-3.220000	0.630000	0.140000	952.00	0.03	-0.08
0.75	1.50	2.75	0.75	1.50	0.50	0.00	0.25	0.00	0.00	0.25	0.25	0.00	0.50	0.00	0.00	0.00	-0.312500	0.127441	0.908691	-2.730000	4.550000	1.120000	92.00	-0.26	-0.08	4.00	4.50	4.25	6.00	7.25	6.50	0.75	2.75	6.75	8.25	8.00	4.75	8.00	4.75	2.75	3.25	-0.223145	0.132324	0.950684	-3.150000	0.490000	0.070000	944.00	0.04	-0.08
0.76	1.75	2.75	0.75	1.25	0.50	0.00	0.25	0.00	0.00	0.00	0.00	0.00	0.50	0.00	0.00	0.00	-0.313965	0.122070	0.914551	-2.660000	4.550000	1.120000	86.00	-0.30	-0.07	4.25	4.50	4.50	6.25	7.50	6.50	0.75	2.75	6.75	8.00	8.00	4.75	8.00	4.75	2.50	3.25	-0.226074	0.133301	0.946777	-3.220000	0.490000	0.070000	950.00	0.03	-0.08
0.77	1.75	2.50	0.75	1.50	0.50	0.00	0.25	0.00	0.25	0.00	0.00	0.00	0.50	0.25	0.00	0.00	-0.319336	0.123535	0.918457	-2.660000	4.480000	1.190000	93.00	-0.26	-0.05	4.25	4.75	4.50	6.25	7.25	6.50	0.75	3.00	6.75	8.00	8.00	4.75	7.75	4.75	2.50	3.25	-0.219238	0.127930	0.951172	-3.290000	0.490000	0.070000	951.00	0.03	-0.08
0.78	2.00	2.50	0.75	1.25	0.50	0.00	0.25	0.00	0.00	0.00	0.00	0.00	0.25	0.00	0.00	0.00	-0.318359	0.127441	0.915527	-2.660000	4.690000	1.190000	84.00	-0.31	-0.05	4.25	4.75	4.00	6.00	7.50	6.75	0.75	2.75	6.75	8.25	8.00	4.75	8.00	4.75	2.75	3.25	-0.221680	0.126465	0.955078	-3.290000	0.630000	0.210000	952.00	0.04	-0.08
0.79	1.50	2.50	0.50	1.00	0.75	0.00	0.25	0.00	0.00	0.25	0.00	0.00	0.00	0.00	0.00	0.00	-0.313965	0.125488	0.916016	-2.660000	4.690000	1.260000	76.00	-0.30	-0.04	4.50	4.50	4.50	6.00	7.50	6.50	0.75	2.75	7.00	8.25	8.00	5.00	8.00	5.00	2.50	3.50	-0.217285	0.131836	0.951172	-3.220000	0.700000	0.070000	963.00	0.04	-0.08
0.80	1.50	2.50	0.75	1.25	0.50	0.00	0.25	0.00	0.00	0.25	0.00	0.00	0.00	0.00	0.00	0.00	-0.316406	0.125488	0.917969	-2.590000	4.620000	1.260000	79.00	-0.30	-0.04	4.50	4.50	4.50	6.25	7.50	6.50	0.75	2.75	6.75	8.25	8.00	4.75	7.75	4.75	2.50	3.00	-0.226074	0.128418	0.952148	-3.080000	0.700000	0.070000	952.00	0.03	-0.08
0.81	2.00	2.25	1.00	1.50	0.50	0.00	0.25	0.00	0.00	0.00	0.00	0.00	0.50	0.00	0.00	0.00	-0.315918	0.129883	0.917480	-2.450000	4.480000	1.330000	90.00	-0.29	-0.06	4.25	4.50	4.25	6.00	7.50	6.50	0.75	2.75	7.00	8.25	8.00	4.75	8.00	4.75	2.50	3.25	-0.219727	0.137207	0.949219	-3.220000	0.770000	-0.070000	950.00	0.04	-0.08
0.82	1.75	2.25	0.75	1.25	0.75	0.00	0.25	0.00	0.00	0.25	0.00	0.00	0.00	0.00	0.00	0.00	-0.316406	0.125000	0.915527	-2.590000	4.830000	1.260000	83.00	-0.29	-0.03	4.25	4.50	4.50	6.00	7.50	6.75	0.75	3.00	6.75	8.25	7.75	5.00	8.00	4.75	2.75	3.00	-0.215332	0.129883	0.953125	-3.290000	0.560000	0.140000	958.00	0.03	-0.08
0.83	1.50	2.50	0.75	1.25	0.50	0.00	0.25	0.00	0.00	0.25	0.00	0.00	0.25	0.25	0.00	0.00	-0.313965	0.121582	0.913086	-2.520000	4.830000	1.120000	84.00	-0.27	-0.05	4.50	4.50	4.25	6.50	7.50	6.50	0.75	2.75	6.75	8.25	8.00	4.75	8.25	4.50	2.50	3.25	-0.224609	0.128906	0.946777	-3.080000	0.630000	0.070000	956.00	0.03	-0.08
0.84	1.50	2.50	1.00	1.00	0.75	0.00	0.25	0.00	0.25	0.00	0.00	0.00	0.25	0.00	0.00	0.00	-0.313965	0.128906	0.918457	-2.520000	4.830000	1.120000	85.00	-0.28	-0.03	4.50	4.25	4.50	6.25	7.50	6.50	0.75	3.00	7.00	8.25	8.00	4.75	8.00	4.75	2.50	3.25	-0.218750	0.133301	0.951660	-3.220000	0.770000	-0.070000	961.00	0.03	-0.08
0.85	1.50	2.50	0.75	1.25	0.50	0.00	0.25	0.00	0.00	0.00	0.00	0.00	0.25	0.00	0.00	0.00	-0.311035	0.125000	0.915039	-2.520000	4.760000	1.190000	79.00	-0.31	-0.06	4.50	4.50	4.50	6.50	7.50	6.75	0.75	3.00	6.75	8.25	8.00	5.00	8.00	4.75	2.75	3.25	-0.223633	0.131836	0.956543	-3.080000	0.770000	0.070000	972.00	0.03	-0.08
0.86	1.50	2.25	0.75	1.25	0.50	0.00	0.25	0.00	0.00	0.25	0.00	0.00	0.25	0.00	0.00	0.00	-0.311523	0.124023	0.915527	-2.520000	4.830000	1.120000	79.00	-0.28	-0.05	4.25	4.50	4.50	6.25	7.50	6.75	0.75	2.75	6.75	8.25	8.00	4.75	8.00	4.50	2.50	3.25	-0.219238	0.129395	0.949219	-3.150000	0.700000	0.070000	954.00	0.03	-0.08
0.87	1.50	2.50	0.75	1.25	0.50	0.00	0.25	0.00	0.00	0.00	0.00	0.00	0.00	0.00	0.00	0.00	-0.316406	0.123047	0.916016	-2.590000	4.760000	1.120000	76.00	-0.32	-0.05	4.50	5.00	4.00	6.25	7.50	6.75	0.75	3.00	6.75	8.25	8.00	4.75	8.25	4.75	2.50	3.25	-0.226562	0.131836	0.952637	-3.080000	0.560000	0.280000	964.00	0.03	-0.08
0.88	1.75	2.75	1.00	1.50	0.75	0.00	0.25	0.00	0.00	0.00	0.00	0.00	0.00	0.25	0.00	0.00	-0.314453	0.126953	0.911133	-2.590000	4.620000	1.190000	93.00	-0.30	-0.04	4.50	4.75	4.25	6.50	7.50	7.00	0.75	3.00	6.75	8.25	8.00	4.50	8.25	4.50	2.50	3.25	-0.228027	0.132324	0.946289	-3.220000	0.490000	0.210000	965.00	0.03	-0.08
0.89	1.50	2.50	0.75	1.50	0.50	0.00	0.25	0.00	0.00	0.00	0.00	0.00	0.25	0.00	0.00	0.00	-0.314453	0.125000	0.915527	-2.520000	4.550000	1.190000	82.00	-0.31	-0.06	4.50	4.50	4.50	6.50	7.50	6.75	0.75	2.75	7.00	8.25	8.00	4.75	8.00	4.75	2.50	3.25	-0.226074	0.135742	0.950684	-3.220000	0.560000	0.140000	965.00	0.03	-0.08
0.90	1.75	2.25	0.75	1.50	0.75	0.00	0.00	0.00	0.00	0.00	0.00	0.00	0.25	0.00	0.00	0.00	-0.316406	0.123047	0.915527	-2.380000	4.690000	1.260000	81.00	-0.32	-0.07	4.50	4.75	4.50	6.25	7.50	6.75	0.75	3.00	7.00	8.25	8.00	5.00	8.00	4.75	2.50	3.00	-0.227051	0.131348	0.945801	-3.290000	0.490000	0.070000	970.00	0.03	-0.08
0.91	1.75	2.75	1.00	1.25	0.75	0.00	0.25	0.00	0.00	0.00	0.00	0.00	0.25	0.00	0.00	0.00	-0.316406	0.129883	0.924316	-2.240000	4.690000	1.260000	90.00	-0.30	-0.05	4.75	4.50	4.25	6.50	7.50	6.75	0.75	3.00	6.75	8.25	8.00	5.00	8.00	4.75	2.00	3.50	-0.224121	0.130859	0.951660	-3.150000	0.420000	0.070000	964.00	0.03	-0.08
0.92	1.75	2.75	0.75	1.00	0.75	0.00	0.25	0.00	0.00	0.25	0.00	0.00	0.25	0.00	0.00	0.00	-0.313477	0.124512	0.908691	-2.310000	4.760000	1.190000	87.00	-0.29	-0.04	4.75	4.50	4.50	6.50	7.50	6.75	0.75	3.00	6.75	8.25	8.00	5.00	8.00	4.50	2.25	3.25	-0.222168	0.133789	0.951172	-3.220000	0.420000	0.140000	966.00	0.03	-0.08
0.93	2.25	3.00	1.00	1.50	0.75	0.00	0.25	0.00	0.00	0.00	0.00	0.00	0.00	0.00	0.00	0.00	-0.315430	0.126465	0.909668	-2.380000	4.690000	1.190000	99.00	-0.32	-0.04	5.00	5.00	4.25	6.50	7.50	6.75	0.75	3.00	6.75	8.25	8.00	5.00	8.00	4.75	2.75	3.25	-0.224121	0.134277	0.947754	-3.080000	0.560000	0.210000	979.00	0.03	-0.08
0.94	1.75	2.75	0.75	1.50	0.50	0.00	0.25	0.00	0.00	0.00	0.00	0.00	0.00	0.25	0.00	0.00	-0.313477	0.131836	0.916016	-2.520000	4.830000	1.190000	87.00	-0.31	-0.04	4.50	4.50	4.25	6.25	7.50	6.75	0.75	2.75	6.75	8.25	8.00	4.75	8.25	4.25	2.75	3.25	-0.220703	0.127930	0.950195	-3.080000	0.490000	0.140000	956.00	0.03	-0.08
0.95	1.50	2.25	0.75	1.25	0.75	0.00	0.25	0.00	0.00	0.00	0.00	0.00	0.25	0.00	0.00	0.00	-0.316406	0.129395	0.916504	-2.450000	4.830000	1.120000	79.00	-0.30	-0.05	4.50	4.50	4.25	6.50	7.75	7.00	0.75	3.00	6.75	8.25	8.00	4.75	8.00	4.75	2.50	3.25	-0.223145	0.129883	0.949219	-3.150000	0.560000	0.140000	969.00	0.03	-0.08
0.96	1.50	2.25	0.75	1.50	0.75	0.00	0.25	0.00	0.00	0.25	0.00	0.00	0.25	0.25	0.00	0.00	-0.315918	0.122559	0.915039	-2.240000	4.760000	1.190000	87.00	-0.26	-0.05	4.50	4.75	4.25	6.50	7.75	6.75	0.75	3.00	6.75	8.25	8.00	4.75	8.25	4.50	2.50	3.25	-0.221680	0.124512	0.955078	-3.220000	0.770000	-0.070000	968.00	0.03	-0.08
0.97	1.50	2.75	0.75	1.50	0.75	0.00	0.25	0.00	0.00	0.00	0.00	0.00	0.25	0.00	0.00	0.00	-0.312988	0.130371	0.916016	-2.100000	4.550000	1.330000	87.00	-0.30	-0.06	4.75	4.75	4.50	6.50	7.50	7.00	0.75	3.00	6.75	8.25	8.00	4.75	8.25	4.50	2.50	3.25	-0.220215	0.132812	0.957031	-3.220000	0.770000	0.140000	974.00	0.03	-0.08
0.98	1.25	2.50	0.75	1.00	0.75	0.00	0.25	0.00	0.00	0.25	0.00	0.00	0.25	0.00	0.00	0.00	-0.315918	0.126953	0.916504	-2.100000	4.410000	1.260000	79.00	-0.28	-0.05	4.50	4.50	4.50	6.50	7.75	7.00	0.75	3.00	6.75	8.25	8.00	4.75	8.25	4.75	2.50	3.00	-0.223633	0.138184	0.947266	-3.010000	0.700000	0.140000	973.00	0.03	-0.08
0.99	2.00	2.50	0.50	1.25	0.50	0.00	0.25	0.00	0.00	0.00	0.00	0.00	0.00	0.00	0.00	0.00	-0.318359	0.125000	0.914062	-2.380000	4.690000	1.120000	79.00	-0.33	-0.04	4.25	4.50	4.50	6.50	7.75	7.00	0.75	3.00	6.75	8.25	8.00	4.75	8.00	4.50	2.50	3.25	-0.220703	0.131836	0.952148	-3.080000	0.840000	0.070000	967.00	0.03	-0.08
1.00	1.75	3.00	1.00	1.25	0.75	0.00	0.25	0.00	0.00	0.00	0.00	0.00	0.00	0.00	0.00	0.00	-0.315918	0.125000	0.912598	-2.380000	4.620000	1.120000	90.00	-0.32	-0.04	4.50	4.50	4.50	6.50	7.75	7.00	0.75	3.00	7.00	8.25	8.00	4.75	8.25	4.75	2.50	3.00	-0.225098	0.134277	0.951172	-3.080000	0.630000	0.210000	976.00	0.03	-0.08
1.01	1.25	2.50	1.00	1.50	0.75	0.00	0.25	0.00	0.00	0.25	0.00	0.00	0.00	0.00	0.00	0.00	-0.312500	0.125000	0.913086	-2.590000	4.550000	1.050000	85.00	-0.29	-0.05	4.50	4.50	4.25	6.50	7.75	7.00	0.75	3.00	7.00	8.50	8.00	4.75	8.00	4.75	2.50	3.25	-0.219727	0.127930	0.949219	-3.290000	0.700000	0.070000	975.00	0.03	-0.08
1.02	1.50	2.25	0.50	1.25	0.75	0.00	0.25	0.00	0.00	0.00	0.00	0.00	0.00	0.00	0.00	0.00	-0.310059	0.127930	0.915527	-2.590000	4.620000	1.120000	74.00	-0.31	-0.04	4.50	4.50	4.50	6.50	7.50	7.00	0.75	3.00	6.75	8.25	8.00	4.75	8.25	5.00	2.50	3.25	-0.221191	0.130371	0.952148	-3.290000	0.700000	0.210000	973.00	0.03	-0.08
1.03	2.00	2.75	0.50	1.00	0.50	0.00	0.25	0.00	0.00	0.25	0.00	0.00	0.25	0.00	0.00	0.00	-0.318848	0.124512	0.918945	-2.590000	4.760000	1.190000	84.00	-0.30	-0.05	4.25	4.50	4.50	6.75	7.50	7.00	0.75	3.00	7.00	8.25	8.00	5.00	8.00	4.75	2.50	3.25	-0.227539	0.128906	0.954590	-3.290000	0.700000	0.140000	975.00	0.03	-0.08
1.04	1.75	2.50	0.75	1.25	0.75	0.00	0.25	0.00	0.00	0.00	0.00	0.00	0.00	0.25	0.00	0.00	-0.311523	0.129395	0.915039	-2.380000	4.620000	1.190000	85.00	-0.30	-0.03	4.50	4.75	4.50	6.50	7.50	7.00	0.75	3.00	7.00	8.25	8.00	4.75	8.25	4.50	2.50	3.50	-0.221191	0.129883	0.952148	-3.220000	0.700000	0.070000	976.00	0.03	-0.08
1.05	1.50	2.75	0.75	1.00	0.75	0.00	0.25	0.00	0.00	0.00	0.00	0.00	0.00	0.25	0.00	0.00	-0.317871	0.127930	0.923828	-2.100000	4.550000	1.190000	81.00	-0.30	-0.03	4.75	4.50	4.50	6.50	7.75	7.00	0.75	3.00	7.00	8.25	8.00	4.75	8.25	4.50	2.50	3.25	-0.222656	0.132812	0.954102	-3.220000	0.560000	0.070000	978.00	0.03	-0.08
1.06	1.50	2.75	0.75	1.25	0.75	0.00	0.25	0.00	0.00	0.00	0.00	0.00	0.00	0.00	0.00	0.00	-0.313477	0.121582	0.907227	-2.030000	4.550000	1.120000	82.00	-0.32	-0.05	4.50	4.50	4.25	6.50	7.75	6.75	0.75	3.00	7.00	8.50	8.00	5.00	8.00	4.75	2.50	3.25	-0.221680	0.129883	0.947754	-3.220000	0.630000	-0.000000	975.00	0.03	-0.08
1.07	1.50	2.50	1.00	1.25	0.75	0.00	0.25	0.00	0.00	0.00	0.00	0.00	0.00	0.25	0.00	0.00	-0.311523	0.125000	0.917480	-2.170000	4.480000	1.120000	85.00	-0.29	-0.03	4.50	4.75	4.25	6.50	7.75	7.00	0.75	3.00	6.75	8.50	8.00	4.75	8.00	4.75	2.50	3.25	-0.217773	0.127441	0.952148	-3.220000	0.700000	0.070000	974.00	0.03	-0.08
1.08	1.75	3.00	0.75	1.50	0.50	0.00	0.00	0.00	0.00	0.00	0.00	0.00	0.00	0.00	0.00	0.00	-0.317383	0.125488	0.913574	-2.380000	4.620000	1.120000	83.00	-0.35	-0.07	4.25	4.75	4.25	6.50	7.50	7.00	0.75	3.00	7.00	8.25	8.00	5.00	8.25	4.75	2.75	3.50	-0.221191	0.129395	0.956543	-3.150000	0.700000	0.070000	979.00	0.03	-0.08
1.09	1.75	2.75	1.00	1.25	0.75	0.00	0.25	0.00	0.00	0.00	0.00	0.00	0.00	0.25	0.00	0.00	-0.316895	0.129883	0.911621	-2.590000	4.690000	1.120000	90.00	-0.30	-0.03	4.75	4.75	4.25	6.50	7.50	7.00	0.75	3.00	7.00	8.25	8.00	5.00	8.50	5.00	2.75	3.00	-0.228027	0.131836	0.952637	-3.150000	0.700000	-0.000000	986.00	0.03	-0.08
1.10	1.75	2.75	0.75	1.25	0.75	0.00	0.25	0.00	0.00	0.00	0.00	0.00	0.00	0.25	0.00	0.00	-0.318848	0.128418	0.908691	-2.730000	4.620000	1.120000	87.00	-0.30	-0.03	4.25	4.50	4.25	6.50	7.75	7.00	0.75	3.00	7.00	8.50	8.00	5.00	8.25	5.00	2.50	3.25	-0.224121	0.129395	0.948730	-3.150000	0.630000	0.070000	980.00	0.03	-0.08
1.11	1.50	2.75	1.00	1.25	0.75	0.00	0.25	0.00	0.00	0.00	0.00	0.00	0.25	0.00	0.00	0.00	-0.314453	0.126953	0.911133	-2.520000	4.200000	1.190000	87.00	-0.30	-0.05	4.00	4.25	4.50	6.25	7.50	7.00	0.75	3.00	7.00	8.25	8.00	5.00	8.25	4.75	2.75	3.00	-0.219238	0.128418	0.949707	-3.290000	0.560000	0.070000	968.00	0.04	-0.08
1.12	2.25	2.50	0.75	1.25	0.75	0.00	0.25	0.00	0.00	0.00	0.00	0.00	0.50	0.25	0.00	0.00	-0.319824	0.121582	0.910156	-2.590000	4.130000	1.120000	95.00	-0.28	-0.04	4.50	4.75	4.25	6.50	7.75	7.00	0.75	3.00	6.75	8.50	8.25	4.75	8.00	4.50	2.50	3.00	-0.220703	0.128906	0.950684	-3.080000	0.700000	-0.000000	973.00	0.03	-0.08
1.13	1.75	3.25	0.75	1.50	0.75	0.00	0.25	0.00	0.00	0.25	0.00	0.00	0.25	0.00	0.00	0.00	-0.317871	0.123047	0.908691	-2.730000	4.340000	1.120000	98.00	-0.30	-0.06	4.75	4.50	4.25	6.50	7.50	7.00	0.75	3.00	7.00	8.50	8.25	5.00	8.25	4.75	2.50	3.25	-0.222168	0.131348	0.950195	-3.010000	0.700000	0.070000	983.00	0.03	-0.08
1.14	1.50	2.50	1.00	1.50	0.75	0.00	0.25	0.00	0.00	0.00	0.00	0.00	0.00	0.00	0.00	0.00	-0.318848	0.127930	0.916992	-2.870000	4.410000	1.120000	85.00	-0.31	-0.04	4.50	4.50	4.00	6.50	7.75	7.00	0.75	3.00	7.00	8.25	8.25	5.00	8.25	5.00	2.75	3.25	-0.222168	0.129883	0.953125	-3.220000	0.560000	0.140000	983.00	0.04	-0.08
1.15	1.50	2.75	0.75	1.50	0.50	0.00	0.25	0.00	0.00	0.00	0.00	0.00	0.00	0.25	0.00	0.00	-0.317383	0.133301	0.918457	-2.870000	4.410000	1.050000	84.00	-0.30	-0.05	4.00	4.50	4.50	6.50	8.00	7.00	0.75	3.00	7.00	8.50	8.25	5.00	8.25	5.00	2.50	3.25	-0.220215	0.132324	0.952637	-3.290000	0.490000	0.210000	986.00	0.04	-0.08
1.16	1.75	3.00	0.75	1.50	0.75	0.00	0.25	0.00	0.00	0.00	0.00	0.00	0.25	0.50	0.00	0.00	-0.312988	0.125488	0.912598	-2.800000	4.480000	1.050000	97.00	-0.27	-0.05	4.50	4.50	4.25	6.25	7.75	7.00	0.75	3.00	7.00	8.25	8.00	5.00	8.25	5.00	2.50	3.00	-0.225586	0.127930	0.952637	-3.220000	0.560000	0.210000	975.00	0.03	-0.08
1.17	1.75	2.50	0.50	1.25	0.75	0.00	0.25	0.00	0.00	0.00	0.00	0.00	0.25	0.25	0.00	0.00	-0.316895	0.123047	0.918945	-2.800000	4.340000	1.050000	84.00	-0.28	-0.05	4.75	4.25	4.50	6.25	7.75	7.00	0.75	3.00	7.00	8.50	8.25	4.75	8.25	4.75	2.50	3.00	-0.220215	0.128906	0.953613	-3.290000	0.700000	0.070000	979.00	0.03	-0.08
1.18	1.75	2.75	1.00	1.25	0.75	0.00	0.25	0.00	0.00	0.00	0.00	0.00	0.00	0.25	0.00	0.00	-0.316895	0.124512	0.918457	-2.800000	4.200000	1.120000	90.00	-0.30	-0.03	4.25	4.50	4.25	6.25	7.75	7.00	0.75	3.00	7.00	8.25	8.25	5.00	8.50	5.00	2.50	3.25	-0.220215	0.133789	0.953613	-3.220000	0.770000	-0.000000	979.00	0.04	-0.08
1.19	2.25	2.75	1.00	1.50	0.75	0.00	0.25	0.00	0.00	0.00	0.00	0.00	0.00	0.50	0.00	0.00	-0.314941	0.124512	0.911133	-2.800000	4.060000	1.050000	101.00	-0.29	-0.02	4.50	4.50	4.25	6.25	8.00	7.00	0.75	3.00	7.25	8.50	8.25	5.00	8.25	4.75	2.75	3.50	-0.225098	0.128418	0.956055	-3.150000	0.840000	-0.070000	991.00	0.04	-0.08
1.20	1.75	2.75	0.75	1.25	0.75	0.00	0.25	0.00	0.00	0.00	0.00	0.00	0.00	0.25	0.00	0.00	-0.313965	0.129883	0.918457	-3.080000	4.200000	0.980000	87.00	-0.30	-0.03	4.50	4.50	4.25	6.25	7.75	7.00	0.75	3.00	7.00	8.50	8.25	5.00	8.25	5.00	2.75	3.25	-0.224609	0.134277	0.953613	-3.150000	0.770000	0.070000	985.00	0.04	-0.08
1.21	1.75	2.50	0.75	1.25	0.75	0.00	0.00	0.00	0.00	0.00	0.00	0.00	0.25	0.25	0.00	0.00	-0.315918	0.123535	0.912109	-3.080000	4.200000	1.050000	83.00	-0.30	-0.06	4.25	4.50	4.25	6.25	7.75	7.00	0.75	3.00	7.00	8.50	8.25	5.00	8.25	4.75	2.50	3.25	-0.219727	0.131348	0.952148	-3.080000	0.700000	0.140000	977.00	0.04	-0.08
1.22	2.00	2.75	1.00	1.25	0.75	0.00	0.25	0.00	0.00	0.00	0.00	0.00	0.00	0.25	0.00	0.00	-0.318848	0.125488	0.914062	-3.080000	4.130000	1.050000	93.00	-0.30	-0.03	4.25	4.50	4.25	6.25	7.75	7.00	0.50	3.00	7.00	8.50	8.25	5.00	8.25	4.75	2.75	3.25	-0.217773	0.135254	0.946289	-3.150000	0.700000	0.140000	976.00	0.04	-0.08
1.23	1.50	2.75	1.00	1.25	0.75	0.00	0.25	0.00	0.00	0.00	0.00	0.00	0.00	0.25	0.00	0.00	-0.317383	0.126465	0.916016	-3.010000	4.130000	1.050000	87.00	-0.30	-0.04	4.50	4.50	4.25	6.25	7.75	7.00	0.75	3.00	7.00	8.50	8.25	5.00	8.25	4.75	2.75	3.50	-0.225098	0.126953	0.948242	-3.290000	0.700000	0.070000	985.00	0.04	-0.08
1.24	1.75	4.25	1.00	1.50	0.75	0.00	0.00	0.00	0.00	0.00	0.00	0.00	0.50	0.50	0.00	0.00	-0.314941	0.128418	0.911133	-3.080000	4.130000	0.980000	111.00	-0.29	-0.08	4.50	4.75	4.25	6.00	7.75	7.00	0.75	3.00	7.00	8.50	8.25	5.00	8.25	4.75	2.50	3.25	-0.221191	0.131836	0.944336	-3.150000	0.700000	0.070000	980.00	0.03	-0.08
1.25	1.75	2.75	1.00	1.25	0.75	0.00	0.25	0.00	0.25	0.00	0.00	0.00	0.25	0.50	0.00	0.00	-0.315430	0.128906	0.915039	-3.220000	4.200000	1.050000	98.00	-0.25	-0.03	4.50	4.25	4.25	6.00	8.00	7.00	0.75	3.00	7.00	8.50	8.25	5.00	8.25	5.00	2.50	3.00	-0.223145	0.129883	0.951172	-3.080000	0.630000	0.070000	979.00	0.04	-0.08
1.26	1.50	2.75	1.00	1.25	0.75	0.00	0.25	0.00	0.00	0.00	0.00	0.00	0.50	0.50	0.00	0.00	-0.312500	0.124512	0.917969	-3.080000	3.920000	0.980000	94.00	-0.25	-0.05	4.50	4.25	4.50	5.75	8.00	7.25	0.50	3.00	7.00	8.50	8.50	5.00	8.25	5.00	2.75	3.25	-0.218750	0.126465	0.954590	-3.150000	0.560000	0.070000	985.00	0.04	-0.08
1.27	2.00	2.75	0.75	1.75	1.00	0.00	0.25	0.00	0.00	0.00	0.00	0.00	0.25	0.50	0.00	0.00	-0.312988	0.128418	0.917480	-2.800000	3.710000	1.120000	104.00	-0.27	-0.04	4.50	4.50	4.25	6.00	7.75	7.00	0.75	3.25	7.00	8.50	8.25	5.00	8.25	4.75	2.50	3.00	-0.227539	0.130371	0.948730	-3.150000	0.350000	0.070000	980.00	0.03	-0.08
1.28	1.75	2.25	0.75	1.25	0.50	0.00	0.25	0.00	0.50	0.00	0.00	0.00	0.25	0.75	0.00	0.00	-0.314453	0.127441	0.913086	-2.520000	3.360000	1.260000	93.00	-0.21	-0.01	4.00	4.50	4.25	6.00	8.00	7.25	0.75	3.00	7.25	8.50	8.50	5.50	8.25	4.75	2.75	3.50	-0.224609	0.135742	0.953613	-3.150000	0.560000	-0.070000	994.00	0.04	-0.08
1.29	1.75	2.25	0.75	1.25	0.75	0.00	0.25	0.00	0.00	0.00	0.00	0.00	0.00	0.50	0.00	0.00	-0.314453	0.124512	0.913086	-2.660000	3.430000	1.120000	84.00	-0.27	-0.02	4.25	4.25	4.25	6.00	8.00	7.00	0.75	2.75	7.00	8.50	8.50	5.25	8.25	5.00	2.75	3.50	-0.221191	0.129883	0.952637	-3.150000	0.560000	0.210000	983.00	0.04	-0.08
1.30	1.50	2.75	0.75	1.25	0.75	0.00	0.25	0.00	0.00	0.00	0.00	0.00	0.00	0.00	0.00	0.00	-0.314453	0.128906	0.916504	-2.590000	3.500000	1.050000	82.00	-0.32	-0.05	4.50	4.50	4.25	6.00	8.00	7.00	0.75	3.00	7.00	8.50	8.25	5.50	8.50	5.00	2.50	3.25	-0.220703	0.129883	0.952637	-3.150000	0.560000	0.210000	991.00	0.04	-0.08
1.31	1.75	2.50	0.75	1.25	1.00	0.00	0.25	0.00	0.00	0.00	0.00	0.00	0.25	0.50	0.00	0.00	-0.319336	0.120605	0.918457	-2.660000	3.780000	1.120000	92.00	-0.26	-0.03	4.25	4.50	4.25	6.00	8.00	7.00	0.75	3.25	7.25	8.75	8.25	5.25	8.25	5.00	2.50	3.25	-0.220215	0.136719	0.950684	-3.080000	0.630000	0.140000	993.00	0.04	-0.08
1.32	1.50	2.25	0.75	1.25	0.75	0.00	0.25	0.00	0.00	0.25	0.00	0.00	0.25	0.50	0.00	0.00	-0.311523	0.128418	0.915039	-2.660000	3.780000	1.050000	87.00	-0.24	-0.03	4.00	4.50	4.00	6.00	7.75	7.00	0.75	3.00	7.25	8.75	8.50	5.50	8.25	5.00	2.75	3.25	-0.222656	0.132812	0.951172	-3.080000	0.630000	0.070000	989.00	0.04	-0.08
1.33	1.50	2.50	0.75	1.25	1.00	0.00	0.25	0.00	0.00	0.00	0.00	0.00	0.25	0.75	0.00	0.00	-0.317871	0.124023	0.917480	-2.660000	3.850000	1.050000	92.00	-0.24	-0.03	4.25	4.25	4.25	6.00	8.00	7.00	0.75	3.00	7.00	8.75	8.25	5.50	8.25	4.75	2.50	3.25	-0.222168	0.128906	0.958008	-3.150000	0.700000	0.140000	984.00	0.04	-0.08
1.34	1.50	2.25	0.75	1.00	0.75	0.00	0.25	0.00	0.00	0.00	0.00	0.00	0.25	0.75	0.00	0.00	-0.314941	0.126465	0.911133	-2.590000	3.640000	1.050000	83.00	-0.24	-0.03	4.25	4.25	4.25	6.00	7.75	7.00	0.75	3.00	7.00	8.75	8.25	5.25	8.50	4.75	2.50	3.50	-0.219238	0.130859	0.951172	-3.150000	0.560000	0.070000	981.00	0.04	-0.08
1.35	1.75	2.25	1.00	1.25	0.75	0.00	0.25	0.00	0.25	0.25	0.00	0.00	0.25	0.75	0.00	0.00	-0.313965	0.127441	0.910645	-2.450000	3.010000	0.980000	98.00	-0.21	-0.01	4.00	4.25	4.25	6.00	7.75	7.00	0.75	3.00	7.00	8.75	8.25	5.50	8.50	5.00	2.50	3.50	-0.224609	0.130371	0.947754	-3.080000	0.630000	-0.000000	984.00	0.04	-0.08
1.36	1.75	2.50	1.00	1.50	1.00	0.00	0.25	0.00	0.00	0.00	0.00	0.00	0.25	0.50	0.00	0.00	-0.312012	0.123535	0.914551	-2.450000	3.080000	1.050000	98.00	-0.26	-0.04	4.25	4.50	4.50	6.00	8.00	7.00	0.75	3.25	7.25	8.75	8.50	5.75	8.25	5.00	3.00	3.50	-0.221680	0.132812	0.949219	-3.080000	0.770000	-0.000000	1012.00	0.04	-0.08
1.37	1.50	2.00	1.00	1.50	0.75	0.00	0.25	0.00	0.00	0.00	0.00	0.00	0.50	0.50	0.00	0.25	-0.312988	0.131348	0.913574	-2.520000	3.220000	1.050000	91.00	-0.23	-0.05	4.00	4.25	4.25	6.00	7.75	7.00	0.75	3.25	7.00	8.50	8.50	5.50	8.50	4.75	2.75	3.50	-0.228027	0.128906	0.948730	-3.080000	0.560000	-0.000000	989.00	0.04	-0.08
1.38	1.50	2.25	0.75	1.25	0.75	0.00	0.25	0.00	0.00	0.00	0.00	0.00	0.50	0.75	0.00	0.00	-0.313965	0.127930	0.915039	-2.520000	3.360000	1.050000	89.00	-0.23	-0.04	4.00	4.00	4.00	6.00	7.75	7.00	0.75	3.00	7.25	8.75	8.50	5.50	8.50	5.00	2.50	3.50	-0.222168	0.128906	0.950684	-3.080000	0.630000	0.210000	985.00	0.05	-0.08
1.39	1.75	2.25	0.75	1.25	0.75	0.00	0.25	0.00	0.00	0.00	0.00	0.00	0.25	0.75	0.00	0.00	-0.313965	0.127441	0.918457	-2.450000	3.500000	1.120000	89.00	-0.24	-0.03	4.50	4.00	4.25	5.75	8.00	6.75	0.75	3.00	7.25	8.75	8.50	6.00	8.50	5.00	2.75	3.00	-0.224609	0.128418	0.957520	-3.150000	0.560000	0.070000	996.00	0.04	-0.08
1.40	1.50	2.25	1.25	1.25	0.75	0.00	0.25	0.00	0.25	0.00	0.00	0.00	0.25	0.75	0.00	0.00	-0.311523	0.121094	0.915527	-2.590000	3.640000	0.980000	96.00	-0.22	-0.01	4.00	4.25	4.25	5.75	7.75	7.00	0.75	3.00	7.25	8.75	8.50	6.00	8.50	5.00	2.75	3.50	-0.220215	0.135254	0.947266	-3.150000	0.560000	0.070000	996.00	0.05	-0.08
1.41	1.50	2.50	1.00	1.25	0.75	0.00	0.25	0.00	0.00	0.00	0.00	0.00	0.50	0.75	0.00	0.00	-0.312500	0.132324	0.922852	-2.520000	3.850000	0.980000	94.00	-0.23	-0.04	4.25	4.00	4.25	5.75	7.75	6.75	0.75	3.00	7.25	8.75	8.50	5.75	8.50	5.00	2.75	3.50	-0.223145	0.131836	0.948242	-3.080000	0.560000	0.070000	990.00	0.05	-0.08
1.42	1.50	2.00	0.25	1.25	1.00	0.00	0.25	0.00	0.00	0.00	0.00	0.00	0.50	0.75	0.00	0.00	-0.316406	0.127441	0.919434	-2.380000	3.710000	1.050000	83.00	-0.22	-0.05	4.25	4.00	4.00	5.75	7.75	6.75	0.75	3.00	7.25	9.00	8.50	5.50	8.25	5.00	2.75	3.75	-0.222656	0.135254	0.951660	-3.010000	0.630000	0.070000	986.00	0.05	-0.08
1.43	1.50	2.00	0.75	1.75	1.00	0.00	0.25	0.00	0.25	0.00	0.00	0.00	0.50	0.75	0.00	0.00	-0.313477	0.124512	0.915039	-2.380000	3.640000	1.120000	99.00	-0.21	-0.04	4.25	3.75	4.25	5.75	7.75	7.00	0.75	2.75	7.25	8.75	8.50	6.00	8.50	5.00	2.75	3.50	-0.221680	0.129883	0.954590	-3.080000	0.840000	-0.000000	990.00	0.05	-0.08
1.44	1.50	2.50	1.00	1.00	1.00	0.00	0.25	0.00	0.00	0.00	0.00	0.00	0.50	0.50	0.00	0.00	-0.313477	0.127930	0.912109	-2.380000	3.570000	1.260000	92.00	-0.24	-0.04	4.00	3.75	4.00	5.50	7.75	6.75	0.75	3.00	7.25	9.00	8.50	6.25	8.50	5.25	2.75	3.25	-0.222168	0.128418	0.952637	-3.010000	0.840000	0.070000	988.00	0.05	-0.08
1.45	1.50	2.50	1.00	1.00	0.75	0.00	0.25	0.00	0.00	0.25	0.00	0.00	0.25	0.50	0.00	0.00	-0.313965	0.131348	0.911621	-2.450000	3.640000	1.120000	89.00	-0.24	-0.03	4.00	3.75	4.00	5.50	7.75	6.75	0.75	3.00	7.25	8.75	8.50	6.00	8.25	5.00	2.75	3.75	-0.271973	0.123535	1.022949	-3.010000	0.770000	-0.070000	981.00	0.05	-0.08
1.46	1.25	2.00	0.75	1.25	0.75	0.00	0.25	0.00	0.00	0.00	0.00	0.00	1.00	0.75	0.00	0.00	-0.316895	0.128906	0.916504	-2.520000	3.780000	1.050000	88.00	-0.20	-0.07	4.00	3.75	4.00	5.50	7.75	6.75	0.75	3.00	7.25	9.00	8.75	5.75	8.50	5.50	2.75	3.50	-0.221680	0.132324	0.942871	-2.940000	0.910000	0.070000	989.00	0.05	-0.08
1.47	1.25	2.25	1.00	1.25	0.75	0.00	0.25	0.00	0.00	0.25	0.00	0.00	0.75	0.75	0.00	0.00	-0.312988	0.126953	0.909668	-2.380000	3.570000	1.120000	94.00	-0.20	-0.05	3.75	3.50	4.00	5.50	7.75	6.75	0.75	3.00	7.25	9.00	8.75	6.50	8.25	5.50	2.50	3.50	-0.220703	0.131348	0.951660	-3.080000	0.910000	-0.000000	987.00	0.06	-0.08
1.48	1.50	2.25	0.75	1.50	1.00	0.00	0.25	0.00	0.50	0.00	0.00	0.00	0.50	1.00	0.00	0.00	-0.314941	0.127930	0.914062	-2.170000	3.640000	1.190000	104.00	-0.18	-0.02	4.00	3.75	4.00	5.50	7.75	6.75	0.75	3.00	7.25	9.00	8.75	6.25	8.50	5.50	2.75	3.75	-0.223145	0.134766	0.952148	-3.150000	0.980000	0.070000	997.00	0.06	-0.08
1.49	1.50	2.25	1.00	1.25	1.00	0.00	0.25	0.00	0.25	0.00	0.00	0.00	0.75	0.75	0.00	0.00	-0.310547	0.125488	0.918457	-2.240000	3.640000	1.190000	101.00	-0.20	-0.03	4.00	3.75	3.75	5.50	7.75	6.50	0.75	3.00	7.25	9.00	8.75	6.25	8.50	5.50	3.00	3.50	-0.221680	0.130371	0.952148	-3.080000	0.910000	-0.070000	992.00	0.06	-0.08
1.50	1.50	2.50	1.00	1.50	1.00	0.00	0.25	0.00	0.00	0.00	0.00	0.00	1.00	1.00	0.00	0.00	-0.312500	0.128418	0.915527	-2.170000	3.640000	1.190000	107.00	-0.20	-0.06	4.00	3.75	4.00	5.50	7.50	6.75	0.75	3.00	7.50	9.00	8.75	6.25	8.25	5.50	2.50	3.75	-0.220215	0.133789	0.947266	-3.010000	0.770000	0.070000	992.00	0.06	-0.08
1.51	1.50	2.75	1.00	1.00	1.00	0.00	0.25	0.00	0.25	0.25	0.00	0.00	1.00	1.00	0.00	0.00	-0.310059	0.129883	0.914551	-2.240000	3.640000	1.190000	110.00	-0.17	-0.04	4.00	3.75	3.75	5.50	7.50	6.50	0.75	2.75	7.50	9.00	9.00	6.50	8.50	5.25	3.00	3.75	-0.221191	0.127441	0.947754	-3.080000	0.910000	-0.140000	993.00	0.06	-0.08
1.52	0.75	1.75	0.50	1.25	0.75	0.00	0.25	0.00	0.25	0.00	0.00	0.00	0.75	0.75	0.00	0.00	-0.306641	0.127930	0.910645	-2.310000	3.640000	1.190000	78.00	-0.16	-0.06	4.00	3.50	4.00	5.50	7.50	6.50	0.75	3.00	7.50	9.25	8.75	6.75	8.50	5.50	2.75	3.75	-0.220703	0.136230	0.949707	-3.010000	1.050000	-0.070000	1000.00	0.06	-0.08
1.53	1.25	2.25	0.75	1.00	0.75	0.00	0.25	0.00	0.25	0.25	0.00	0.00	0.50	0.50	0.00	0.00	-0.310547	0.126465	0.908691	-2.170000	3.640000	1.190000	87.00	-0.20	-0.03	3.25	3.75	3.75	5.25	7.50	6.50	0.75	3.00	7.50	9.00	8.75	6.50	8.50	5.75	3.00	3.75	-0.221191	0.123535	0.946289	-3.080000	0.910000	-0.000000	988.00	0.07	-0.08
1.54	1.50	2.25	0.75	1.25	0.75	0.00	0.25	0.00	0.00	0.00	0.00	0.00	0.50	0.75	0.00	0.00	-0.313965	0.128418	0.917969	-2.310000	3.850000	1.190000	89.00	-0.23	-0.04	3.50	3.50	3.75	5.50	7.50	6.50	0.75	3.00	7.50	9.00	9.00	6.50	8.50	5.75	2.75	3.75	-0.226074	0.123535	0.953613	-3.080000	0.910000	-0.000000	991.00	0.06	-0.08
1.55	1.25	2.00	0.75	1.00	1.00	0.00	0.25	0.00	0.00	0.50	0.00	0.00	0.50	1.25	0.00	0.00	-0.305176	0.123535	0.920898	-2.380000	4.060000	1.120000	94.00	-0.15	-0.02	3.75	3.50	3.50	5.25	7.50	6.50	0.75	2.75	7.50	9.00	8.75	7.00	8.50	5.75	2.75	3.75	-0.219727	0.131836	0.948242	-3.010000	1.050000	-0.000000	987.00	0.06	-0.08
1.56	1.50	1.00	0.75	0.75	0.75	0.00	0.25	0.00	0.25	0.25	0.00	0.00	1.00	0.75	0.00	0.00	-0.317383	0.124512	0.920410	-2.450000	4.060000	1.190000	81.00	-0.13	-0.02	4.00	3.50	3.75	5.25	7.50	6.50	0.75	2.75	7.50	9.25	9.00	6.75	8.50	5.50	3.00	4.00	-0.220215	0.132812	0.951172	-3.010000	1.050000	-0.070000	997.00	0.06	-0.08
1.57	1.25	1.75	1.00	1.25	0.75	0.00	0.25	0.00	0.25	0.50	0.00	0.00	0.75	1.00	0.00	0.00	-0.313965	0.125977	0.912598	-2.380000	4.130000	1.120000	98.00	-0.14	-0.02	3.25	3.50	3.75	5.25	7.25	6.50	0.75	3.00	7.50	9.25	9.00	7.00	8.25	6.00	3.00	3.75	-0.226562	0.134766	0.952148	-3.010000	1.050000	-0.000000	994.00	0.07	-0.08
1.58	1.25	1.50	0.75	0.75	0.75	0.00	0.25	0.00	0.00	0.00	0.00	0.00	0.75	0.75	0.00	0.00	-0.313965	0.127441	0.913574	-2.380000	3.990000	1.050000	75.00	-0.18	-0.04	3.75	3.50	3.50	5.25	7.25	6.50	0.75	2.75	7.50	9.25	9.00	6.75	8.50	5.75	3.00	3.75	-0.227539	0.127441	0.950684	-3.010000	0.980000	0.070000	989.00	0.07	-0.08
1.59	1.50	2.00	0.75	1.25	1.00	0.00	0.25	0.00	0.25	0.25	0.00	0.00	1.00	0.75	0.00	0.25	-0.306641	0.125977	0.901855	-2.380000	3.920000	1.120000	102.00	-0.16	-0.05	3.25	3.25	3.50	5.50	7.50	6.25	0.75	2.75	7.50	9.25	9.00	7.00	8.50	5.75	3.00	3.75	-0.220703	0.135254	0.951172	-2.940000	1.120000	-0.070000	987.00	0.07	-0.08
1.60	1.50	2.25	0.75	1.25	1.00	0.00	0.25	0.00	0.50	0.25	0.00	0.00	0.75	0.75	0.00	0.25	-0.309570	0.126953	0.912109	-2.310000	3.920000	1.190000	105.00	-0.16	-0.03	4.00	3.25	3.75	5.25	7.25	6.50	0.75	2.75	7.50	9.25	9.00	6.75	8.50	5.75	3.00	3.75	-0.219727	0.127930	0.953613	-3.010000	1.190000	-0.140000	993.00	0.07	-0.08
1.61	1.25	2.00	0.75	1.25	0.75	0.00	0.25	0.00	0.00	0.25	0.25	0.00	0.75	0.75	0.00	0.00	-0.312988	0.127930	0.911133	-2.380000	4.060000	1.190000	91.00	-0.18	-0.05	3.50	3.25	3.50	5.25	7.25	6.50	0.75	2.75	7.50	9.25	9.00	7.00	8.50	5.75	2.75	3.75	-0.224609	0.131348	0.949707	-3.080000	1.050000	-0.000000	984.00	0.07	-0.08
1.62	1.50	2.50	1.00	1.00	1.00	0.00	0.25	0.00	0.25	0.25	0.00	0.00	0.75	1.25	0.00	0.00	-0.307617	0.129395	0.911621	-2.450000	4.130000	1.120000	108.00	-0.16	-0.02	3.25	3.50	4.00	5.00	7.25	6.25	0.75	2.75	7.50	9.25	9.00	6.75	8.50	5.75	3.00	4.00	-0.224121	0.133301	0.952637	-3.080000	0.910000	0.070000	985.00	0.07	-0.08
1.63	1.50	2.25	1.00	0.75	1.00	0.00	0.25	0.00	0.25	0.25	0.00	0.00	0.75	1.00	0.00	0.00	-0.306641	0.134277	0.911621	-2.520000	4.200000	1.190000	100.00	-0.17	-0.02	3.75	3.25	3.50	5.25	7.25	6.25	0.75	2.75	7.50	9.25	9.00	7.25	8.25	6.00	2.25	3.75	-0.221680	0.132324	0.949707	-3.150000	0.700000	0.140000	981.00	0.07	-0.08
1.64	1.25	2.00	1.00	1.25	1.00	0.00	0.25	0.00	0.00	0.00	0.00	0.00	0.75	0.75	0.00	0.00	-0.312012	0.130371	0.910645	-2.520000	4.130000	1.190000	92.00	-0.20	-0.05	3.50	3.25	3.25	5.25	7.25	6.25	0.75	2.75	7.50	9.25	9.00	6.75	8.50	6.00	3.00	3.75	-0.221680	0.131836	0.951660	-3.150000	0.840000	0.140000	980.00	0.07	-0.08
1.65	1.50	2.00	0.75	1.25	1.00	0.00	0.25	0.00	0.25	0.50	0.00	0.00	0.75	1.00	0.00	0.00	-0.312500	0.124512	0.911621	-2.730000	4.340000	1.190000	103.00	-0.15	-0.03	3.75	3.25	3.25	5.00	7.25	6.00	0.75	2.75	7.50	9.25	9.00	7.25	8.50	6.00	3.00	3.75	-0.223145	0.131348	0.953613	-3.220000	0.840000	0.140000	983.00	0.07	-0.08
1.66	1.50	2.00	0.75	1.25	0.75	0.00	0.25	0.00	0.50	0.25	0.00	0.00	1.00	0.75	0.00	0.00	-0.309570	0.126953	0.916992	-2.730000	4.480000	1.190000	101.00	-0.16	-0.03	4.00	3.25	3.75	5.25	7.25	6.00	0.75	2.75	7.50	9.25	9.00	7.25	8.50	5.75	3.00	4.00	-0.218262	0.128906	0.949219	-3.150000	0.700000	0.280000	994.00	0.07	-0.08
1.67	1.25	2.25	0.75	1.50	0.75	0.00	0.25	0.00	0.00	0.50	0.00	0.00	0.75	1.00	0.00	0.00	-0.307617	0.126465	0.917480	-2.660000	4.410000	1.260000	99.00	-0.17	-0.05	3.25	3.00	3.75	5.25	7.00	6.25	0.75	2.75	7.50	9.25	9.00	7.00	8.50	6.00	2.75	4.00	-0.219727	0.127930	0.950684	-3.220000	0.840000	0.070000	980.00	0.07	-0.08
1.68	1.50	2.00	0.75	1.00	1.00	0.00	0.25	0.00	0.50	0.25	0.25	0.00	0.50	1.00	0.00	0.00	-0.306152	0.124023	0.917969	-2.590000	4.550000	1.120000	101.00	-0.14	-0.00	3.00	3.25	3.50	5.00	7.00	6.25	0.75	2.50	7.50	9.25	9.00	6.75	8.50	6.00	3.00	3.75	-0.222656	0.134277	0.951660	-3.220000	0.910000	0.070000	967.00	0.08	-0.08
1.69	1.25	2.50	1.00	1.75	1.00	0.00	0.25	0.00	0.25	0.25	0.00	0.00	0.75	0.75	0.00	0.00	-0.306641	0.126953	0.917480	-2.590000	4.340000	1.120000	109.00	-0.19	-0.05	3.50	3.50	3.50	5.25	7.25	6.00	0.75	2.75	7.50	9.25	9.00	6.75	8.25	6.00	3.00	3.75	-0.226074	0.128418	0.949219	-3.290000	0.980000	-0.000000	980.00	0.07	-0.08
1.70	1.50	2.25	1.00	1.25	0.75	0.00	0.25	0.00	0.50	0.25	0.00	0.00	1.00	1.00	0.00	0.00	-0.308594	0.123535	0.915527	-2.590000	4.130000	1.120000	109.00	-0.15	-0.03	3.75	3.25	3.50	5.00	7.25	6.00	0.75	2.50	7.50	9.25	9.00	6.75	8.50	6.00	2.75	3.75	-0.228027	0.129395	0.953613	-3.220000	0.840000	0.140000	973.00	0.07	-0.08
1.71	1.75	2.50	1.00	1.25	1.00	0.00	0.25	0.00	0.25	0.25	0.00	0.00	1.00	1.00	0.00	0.00	-0.316406	0.127441	0.915527	-2.590000	3.920000	1.120000	113.00	-0.18	-0.04	3.50	3.25	3.50	5.00	7.25	6.00	0.75	2.50	7.50	9.25	9.00	7.00	8.50	6.25	2.75	4.00	-0.222656	0.130371	0.951660	-3.220000	0.770000	0.070000	977.00	0.07	-0.08
1.72	1.75	2.25	0.75	1.50	1.00	0.00	0.25	0.00	0.25	0.25	0.00	0.00	0.75	1.25	0.00	0.00	-0.308105	0.126465	0.909180	-2.520000	3.500000	1.190000	111.00	-0.17	-0.03	3.75	3.25	3.50	5.25	7.00	6.00	0.75	2.50	7.50	9.25	9.25	7.00	8.50	5.75	2.75	4.00	-0.226074	0.135254	0.949219	-3.080000	0.630000	0.210000	978.00	0.07	-0.08
1.73	1.25	2.50	0.75	1.50	1.00	0.00	0.25	0.00	0.00	0.50	0.00	0.00	0.50	1.00	0.00	0.00	-0.308105	0.127930	0.916016	-2.240000	2.800000	1.190000	102.00	-0.19	-0.04	3.75	3.00	3.50	5.00	7.00	6.00	0.75	2.50	7.50	9.25	9.00	7.00	8.25	6.00	3.00	3.75	-0.220215	0.131348	0.951172	-3.150000	0.700000	0.070000	971.00	0.07	-0.08
1.74	1.50	2.50	1.00	1.25	1.00	0.00	0.25	0.00	0.25	0.25	0.25	0.00	0.75	1.00	0.00	0.00	-0.315918	0.125488	0.908203	-2.100000	2.450000	1.260000	111.00	-0.17	-0.03	3.75	3.25	3.00	5.00	7.25	6.00	0.75	2.75	7.50	9.25	9.00	6.75	8.50	6.00	3.00	3.50	-0.226562	0.127441	0.953125	-3.290000	0.700000	0.140000	973.00	0.07	-0.08
1.75	1.75	3.00	1.00	1.50	1.00	0.00	0.25	0.00	0.25	0.25	0.00	0.00	1.00	1.00	0.00	0.25	-0.312500	0.124023	0.911133	-1.960000	1.890000	1.330000	123.00	-0.18	-0.05	3.75	3.25	3.50	5.00	7.00	6.00	0.75	2.50	7.50	9.50	9.00	7.00	8.25	6.00	3.00	3.75	-0.225586	0.130371	0.950195	-3.220000	0.770000	-0.070000	976.00	0.07	-0.08
1.76	1.50	2.75	1.25	1.75	1.00	0.00	0.25	0.00	0.00	0.25	0.00	0.00	1.00	0.75	0.00	0.00	-0.309570	0.126953	0.919922	-1.680000	1.260000	1.400000	116.00	-0.21	-0.06	3.25	3.25	3.50	5.00	7.00	6.00	0.75	2.50	7.50	9.25	9.00	6.75	8.50	6.00	3.00	3.75	-0.228516	0.127930	0.951660	-3.150000	0.700000	-0.000000	967.00	0.08	-0.08
1.77	1.75	3.50	1.00	1.50	1.25	0.00	0.25	0.00	0.00	0.50	0.25	0.00	1.25	0.75	0.00	0.00	-0.311523	0.130859	0.916016	-1.260000	1.120000	1.330000	132.00	-0.20	-0.07	3.50	3.25	3.50	5.00	7.00	5.75	0.75	2.50	7.50	9.25	9.00	7.00	8.50	6.00	3.00	3.75	-0.229492	0.130371	0.954590	-3.080000	0.770000	-0.000000	970.00	0.08	-0.08
1.78	2.25	4.25	1.25	1.75	1.25	0.00	0.25	0.00	0.25	0.25	0.25	0.00	1.00	0.75	0.00	0.25	-0.306641	0.125977	0.918457	-0.700000	0.980000	1.470000	151.00	-0.22	-0.06	3.50	3.25	3.50	5.00	7.00	5.75	0.75	2.75	7.50	9.25	9.00	7.00	8.50	6.00	3.00	3.75	-0.221680	0.130371	0.951660	-3.290000	0.700000	0.140000	974.00	0.07	-0.08
1.79	2.00	4.75	1.25	2.50	1.25	0.00	0.25	0.00	0.00	0.25	0.00	0.00	1.00	0.75	0.00	0.00	-0.305176	0.127441	0.917969	-0.070000	1.190000	1.470000	154.00	-0.25	-0.08	3.75	3.00	3.50	5.00	7.00	5.75	0.50	2.50	7.50	9.50	9.00	7.00	8.50	6.00	3.00	3.75	-0.225586	0.134766	0.950684	-3.220000	0.630000	0.280000	969.00	0.08	-0.08
1.80	2.50	4.50	1.00	2.25	1.25	0.00	0.25	0.00	0.25	0.25	0.25	0.00	1.25	0.50	0.00	0.00	-0.308105	0.126465	0.919922	0.210000	2.100000	1.540000	158.00	-0.23	-0.07	3.50	3.25	3.25	5.00	7.00	5.75	0.75	2.50	7.50	9.25	9.00	6.75	8.50	6.00	3.00	4.00	-0.220215	0.131836	0.953613	-3.220000	0.630000	0.210000	966.00	0.08	-0.08
1.81	2.75	4.50	1.50	3.00	1.25	0.00	0.25	0.25	0.25	0.25	0.00	0.00	1.00	0.75	0.00	0.00	-0.310059	0.125488	0.922852	-0.140000	2.520000	1.470000	177.00	-0.24	-0.07	3.75	3.25	3.50	5.00	7.00	5.75	0.75	2.50	7.50	9.25	9.00	7.00	8.50	6.00	3.00	4.00	-0.219238	0.131836	0.948242	-3.220000	0.700000	0.140000	974.00	0.07	-0.08
1.82	2.50	5.00	1.25	2.75	1.25	0.00	0.25	0.00	0.00	0.00	0.25	0.00	1.25	1.00	0.00	0.00	-0.306641	0.133301	0.923828	-0.000000	3.010000	1.470000	170.00	-0.24	-0.08	3.75	3.25	3.25	5.00	7.00	5.50	0.75	2.50	7.50	9.25	9.00	6.75	8.50	6.00	3.00	3.75	-0.228027	0.133301	0.948730	-3.150000	0.770000	0.070000	964.00	0.08	-0.08
1.83	3.25	5.25	1.25	3.00	1.25	0.00	0.25	0.25	0.00	0.25	0.25	0.00	1.25	0.50	0.00	0.00	-0.303223	0.132324	0.917480	0.210000	3.360000	1.540000	186.00	-0.26	-0.09	3.75	3.25	3.75	5.00	7.00	5.75	0.75	2.50	7.50	9.25	9.00	7.00	8.50	6.00	3.00	3.75	-0.221680	0.130859	0.946289	-3.220000	0.840000	-0.000000	976.00	0.07	-0.08
1.84	2.75	5.25	1.50	3.00	1.25	0.00	0.25	0.00	0.00	0.00	0.25	0.00	1.25	0.75	0.00	0.00	-0.307129	0.127930	0.908203	0.490000	3.430000	1.610000	179.00	-0.26	-0.08	3.50	3.25	3.25	5.00	7.00	5.50	0.75	2.75	7.50	9.25	9.00	6.75	8.25	6.00	3.00	4.25	-0.225098	0.130371	0.953125	-3.150000	0.910000	-0.000000	966.00	0.08	-0.08
1.85	3.25	5.50	1.75	3.00	1.25	0.25	0.25	0.50	0.00	0.25	0.00	0.00	1.50	0.25	0.00	0.00	-0.305176	0.131348	0.913574	0.420000	3.640000	1.610000	199.00	-0.26	-0.10	3.50	3.25	3.50	5.00	7.00	5.75	0.75	2.50	7.50	9.25	8.75	6.75	8.25	5.75	2.75	3.50	-0.221680	0.127441	0.950684	-3.150000	0.980000	0.070000	955.00	0.07	-0.07
1.86	3.25	5.75	1.50	3.25	1.25	0.00	0.25	0.25	0.00	0.25	0.00	0.00	1.25	0.75	0.00	0.00	-0.300781	0.125977	0.915527	0.070000	3.430000	1.540000	197.00	-0.26	-0.08	3.75	3.25	3.50	5.00	7.00	5.50	0.75	2.50	7.25	9.00	8.75	6.75	8.25	6.00	2.75	3.75	-0.221680	0.132812	0.948242	-3.290000	0.910000	0.140000	953.00	0.07	-0.08
1.87	3.50	5.75	1.75	3.50	1.25	0.25	0.25	0.00	0.00	0.00	0.00	0.00	1.00	0.75	0.00	0.00	-0.302246	0.134277	0.916016	-0.210000	3.290000	1.470000	199.00	-0.28	-0.07	3.75	3.50	3.75	5.00	7.00	5.50	0.50	2.50	7.50	9.00	8.75	6.75	8.25	6.00	3.00	3.50	-0.226074	0.130371	0.947266	-3.430000	1.050000	0.210000	959.00	0.07	-0.07
1.88	3.75	6.00	1.75	3.75	1.25	0.25	0.00	0.25	0.00	0.00	0.00	0.00	1.50	0.25	0.00	0.00	-0.303711	0.136719	0.919922	-0.070000	3.150000	1.470000	208.00	-0.29	-0.10	3.75	3.25	3.50	5.25	7.00	5.50	0.75	2.50	7.25	9.00	8.75	6.50	8.25	6.00	3.00	3.50	-0.224609	0.129395	0.954102	-3.430000	1.190000	0.140000	954.00	0.07	-0.07
1.89	4.00	6.00	1.50	4.25	1.25	0.50	0.25	0.25	0.00	0.00	0.00	0.00	1.00	0.25	0.00	0.25	-0.308105	0.129395	0.921387	-0.070000	3.360000	1.540000	217.00	-0.29	-0.10	3.75	3.50	3.75	5.00	7.00	5.50	0.75	2.25	7.50	8.75	8.50	6.50	8.25	5.75	2.75	3.50	-0.222656	0.133789	0.958984	-3.290000	1.050000	0.350000	945.00	0.07	-0.07
1.90	4.50	6.25	1.75	4.00	1.25	0.50	0.25	0.00	0.00	0.25	0.00	0.00	1.25	0.50	0.00	0.25	-0.303711	0.137207	0.920410	0.070000	3.920000	1.470000	229.00	-0.28	-0.08	3.75	3.25	3.75	5.25	6.75	5.50	0.75	2.25	7.25	8.75	8.50	6.25	8.00	5.75	2.50	3.50	-0.224609	0.131836	0.954102	-3.290000	2.170000	0.280000	931.00	0.07	-0.07
1.91	4.50	6.25	1.75	4.50	1.25	0.50	0.25	0.25	0.00	0.00	0.00	0.00	1.25	0.25	0.00	0.00	-0.308594	0.137207	0.922852	0.210000	4.690000	1.470000	232.00	-0.29	-0.09	4.00	3.75	3.75	5.25	6.75	5.50	0.75	2.50	7.00	8.50	8.25	6.00	8.00	5.50	2.75	3.25	-0.225098	0.130859	0.950195	-3.570000	2.520000	0.210000	930.00	0.06	-0.07
1.92	4.25	7.00	2.00	4.50	1.25	0.25	0.25	0.25	0.00	0.00	0.00	0.00	1.25	0.25	0.00	0.00	-0.303711	0.136719	0.920898	-0.070000	5.390000	1.400000	237.00	-0.29	-0.09	4.00	3.50	3.75	5.50	6.75	5.50	0.75	2.00	7.00	8.25	8.00	5.75	7.75	5.50	2.25	2.75	-0.226562	0.127930	0.956543	-3.570000	2.660000	0.140000	902.00	0.05	-0.07
1.93	5.00	7.00	1.75	4.75	1.25	0.50	0.25	0.25	0.00	0.00	0.00	0.00	0.75	0.25	0.00	0.00	-0.301758	0.135254	0.916504	-1.190000	5.740000	1.260000	244.00	-0.31	-0.08	4.50	4.00	3.75	5.50	6.50	5.25	0.75	2.00	7.00	8.25	8.00	5.50	7.75	5.25	2.50	3.00	-0.225098	0.133301	0.949219	-3.570000	2.590000	0.140000	906.00	0.05	-0.07
1.94	5.00	7.25	1.75	4.50	1.50	0.00	0.00	0.25	0.00	0.00	0.00	0.00	0.50	0.25	0.00	0.00	-0.308594	0.138184	0.916016	-2.800000	6.930000	1.190000	234.00	-0.32	-0.08	4.00	4.00	4.00	5.50	6.50	5.25	0.75	2.00	6.75	8.00	7.75	5.25	7.75	5.25	2.50	2.75	-0.228027	0.128906	0.954590	-3.780000	2.520000	0.210000	890.00	0.05	-0.07
1.95	5.25	7.25	2.25	4.75	1.25	0.25	0.25	0.00	0.00	0.00	0.00	0.00	1.00	0.25	0.00	0.00	-0.310059	0.136230	0.921875	-3.010000	7.630000	1.190000	251.00	-0.31	-0.08	4.50	4.00	4.00	5.50	6.50	5.50	0.75	2.00	6.75	8.00	7.75	5.00	7.50	5.25	2.50	2.75	-0.220215	0.136719	0.944336	-3.850000	1.960000	0.140000	893.00	0.04	-0.07
1.96	5.00	7.25	2.25	4.50	1.50	0.25	0.00	0.00	0.00	0.00	0.00	0.00	0.75	0.75	0.00	0.00	-0.308594	0.136230	0.918945	-2.940000	8.820000	1.260000	246.00	-0.30	-0.07	4.50	4.50	4.00	5.50	6.25	5.25	0.75	2.00	6.50	7.75	7.50	5.00	7.50	5.00	2.25	2.50	-0.223633	0.129395	0.955078	-3.570000	2.100000	0.140000	876.00	0.04	-0.07
1.97	5.25	7.50	1.75	4.25	1.25	0.25	0.25	0.00	0.00	0.00	0.00	0.00	0.50	0.00	0.00	0.00	-0.300293	0.131348	0.926270	-3.360000	9.870000	1.120000	234.00	-0.33	-0.07	4.75	4.50	4.25	5.75	6.25	5.25	0.75	2.00	6.50	7.75	7.50	4.75	7.25	5.00	2.00	2.50	-0.230957	0.127441	0.953613	-3.080000	2.520000	0.070000	877.00	0.03	-0.07
1.98	5.00	7.50	1.75	4.50	1.25	0.00	0.00	0.00	0.00	0.00	0.00	0.00	0.00	0.50	0.00	0.00	-0.307129	0.134766	0.917480	-5.110000	10.920000	1.120000	227.00	-0.33	-0.07	4.75	4.75	4.25	5.75	6.25	5.25	0.75	1.75	6.25	7.50	7.25	4.00	6.25	2.75	1.25	1.25	-0.227051	0.129395	0.955566	-2.870000	2.660000	0.210000	811.00	0.01	-0.07
1.99	5.25	7.50	2.00	4.25	1.25	0.00	0.25	0.00	0.00	0.00	0.00	0.00	0.25	0.50	0.00	0.00	-0.308594	0.136719	0.918945	-7.490000	12.390000	0.980000	236.00	-0.32	-0.06	4.50	4.50	4.00	5.50	5.75	5.00	0.75	1.25	5.00	7.50	6.25	2.75	4.25	2.50	0.50	1.25	-0.230957	0.130371	0.946289	-2.800000	2.520000	0.280000	709.00	-0.01	-0.06
2.00	5.00	7.50	2.00	4.00	1.50	0.00	0.25	0.00	0.00	0.00	0.00	0.00	0.00	0.00	0.00	0.00	-0.299805	0.131348	0.918945	-9.170000	13.580000	0.980000	227.00	-0.34	-0.06	5.00	4.75	4.25	5.75	5.75	5.00	0.50	1.25	5.50	7.00	6.50	3.25	4.50	3.25	2.00	1.50	-0.225586	0.131348	0.953125	-2.660000	2.240000	0.350000	757.00	0.00	-0.06
2.01	5.00	7.00	2.00	3.50	1.25	0.00	0.25	0.00	0.00	0.00	0.00	0.00	0.00	0.25	0.00	0.00	-0.315430	0.142090	0.923340	-10.640000	14.700000	0.840000	215.00	-0.33	-0.05	5.00	5.00	2.75	4.50	5.25	4.00	0.50	1.00	5.25	5.75	5.50	3.00	5.25	3.25	1.50	1.75	-0.227539	0.130859	0.952148	-2.380000	1.750000	0.350000	675.00	0.01	-0.06
2.02	5.00	6.75	1.75	3.50	1.25	0.00	0.25	0.00	0.00	0.00	0.00	0.00	0.00	0.25	0.00	0.00	-0.318848	0.135742	0.920410	-12.040000	15.960000	0.630000	209.00	-0.33	-0.05	2.75	3.50	2.75	4.75	5.00	3.75	0.25	0.25	3.75	5.00	4.25	1.50	5.00	2.00	0.25	0.50	-0.231934	0.132812	0.963867	-1.470000	1.260000	0.630000	518.00	-0.01	-0.06
2.03	4.50	6.25	1.75	2.75	1.25	0.00	0.25	0.00	0.00	0.00	0.00	0.00	0.00	0.00	0.00	0.00	-0.323730	0.137695	0.925293	-13.160000	16.730000	0.490000	187.00	-0.34	-0.05	2.50	4.00	1.75	5.00	4.75	3.50	0.50	0.25	3.25	4.25	3.75	1.50	3.50	2.00	0.50	0.75	-0.229492	0.134277	0.957520	-0.840000	1.330000	0.560000	478.00	-0.02	-0.06
2.04	4.00	6.00	1.50	2.25	1.25	0.00	0.25	0.00	0.00	0.00	0.00	0.00	0.00	0.50	0.00	0.00	-0.351074	0.156738	0.944824	-15.050000	18.690001	-0.070000	175.00	-0.32	-0.04	3.75	4.75	2.50	5.00	4.75	4.25	0.50	0.25	3.25	4.00	3.50	1.50	3.75	2.00	0.50	0.25	-0.225586	0.131836	0.948730	-0.420000	1.330000	0.490000	511.00	-0.05	-0.06
2.05	3.25	5.50	1.75	1.50	1.00	0.00	0.25	0.00	0.00	0.00	0.00	0.00	0.00	0.25	0.00	0.00	-0.344727	0.157715	0.961426	-19.600000	21.350000	-0.910000	150.00	-0.33	-0.03	3.50	5.00	2.25	5.25	4.75	3.75	0.25	0.25	3.00	4.25	3.75	2.50	5.00	3.25	1.50	1.50	-0.232910	0.136230	0.941406	-0.210000	1.470000	0.560000	557.00	-0.01	-0.08
2.06	2.75	5.25	1.25	1.25	1.00	0.00	0.25	0.00	0.00	0.00	0.00	0.00	0.00	0.00	0.00	0.00	-0.356934	0.166016	0.985840	-27.510000	22.820000	-1.890000	130.00	-0.34	-0.04	4.75	5.00	3.00	7.25	6.00	5.00	0.25	0.25	2.50	3.25	3.00	1.50	3.50	1.50	0.25	0.00	-0.231934	0.136719	0.947266	-0.070000	1.470000	0.420000	541.00	-0.10	-0.08
2.07	2.00	4.25	0.75	1.25	0.75	0.00	0.25	0.00	0.00	0.00	0.00	0.00	0.00	0.00	0.00	0.00	-0.360352	0.214355	1.109863	-39.619999	17.990000	-3.710000	103.00	-0.34	-0.06	4.50	5.50	2.25	5.75	5.00	3.75	0.25	0.00	2.25	3.00	2.25	1.00	3.50	1.75	0.50	0.25	-0.231934	0.136230	0.947266	0.490000	1.190000	0.700000	471.00	-0.10	-0.07
2.08	1.50	3.75	1.00	1.00	0.75	0.00	0.25	0.00	0.00	0.00	0.00	0.00	0.00	0.00	0.00	0.00	-0.343262	0.144043	1.039062	-61.250000	10.780000	-12.880000	92.00	-0.33	-0.05	5.00	6.50	3.00	6.25	5.00	4.25	0.25	0.25	2.00	2.75	2.25	1.00	3.00	1.50	0.00	0.25	-0.241211	0.134766	0.951660	1.050000	1.120000	0.840000	493.00	-0.13	-0.07
2.09	1.50	2.50	0.75	1.00	0.50	0.00	0.00	0.00	0.00	0.00	0.00	0.00	0.00	0.00	0.00	0.00	-0.444824	0.245605	1.282715	-118.860001	3.150000	-33.740002	69.00	-0.35	-0.06	5.25	7.00	3.50	6.25	5.00	4.25	0.25	0.50	1.75	2.75	2.00	1.00	2.75	1.25	0.00	0.00	-0.235840	0.141602	0.958008	2.310000	1.330000	0.910000	499.00	-0.14	-0.08
2.10	1.25	1.75	0.50	0.75	0.25	0.00	0.00	0.00	0.00	0.00	0.00	0.00	0.00	0.00	0.00	0.00	-0.553223	0.289551	1.236328	-161.070007	-0.350000	-39.200001	50.00	0.00	0.00	5.50	7.50	3.50	7.00	5.00	4.50	0.25	0.25	1.50	2.00	1.75	1.00	3.00	1.25	0.00	0.00	-0.230957	0.138672	0.937500	3.990000	1.190000	1.050000	502.00	-0.16	-0.08
2.11	1.00	1.75	0.25	0.50	0.25	0.00	0.00	0.00	0.00	0.00	0.00	0.00	0.00	0.00	0.00	0.00	-0.615723	0.404785	1.200195	-203.979996	-3.990000	-43.259998	41.00	0.00	0.00	5.75	8.25	3.50	7.25	4.75	4.50	0.25	0.50	1.25	2.00	1.50	1.00	2.75	1.00	0.00	0.00	-0.222168	0.141113	0.956543	5.390000	1.470000	0.980000	505.00	-0.17	-0.09
2.12	1.25	1.50	0.25	0.25	0.25	0.00	0.00	0.00	0.00	0.00	0.00	0.00	0.00	0.00	0.00	0.00	-0.792480	1.106445	0.855469	-200.619995	11.410000	-41.509998	38.00	0.00	0.00	6.00	9.00	3.75	7.50	5.00	4.75	0.25	0.25	1.25	2.00	1.50	1.00	2.25	1.25	0.00	0.00	-0.234863	0.143555	0.939941	6.020000	0.910000	1.050000	521.00	-0.18	-0.08
2.13	0.75	0.50	0.00	0.25	0.00	0.00	0.00	0.00	0.00	0.00	0.00	0.00	0.00	0.00	0.00	0.00	-0.805664	1.435547	0.563477	-160.930008	38.849998	-24.850000	17.00	0.00	0.00	6.25	9.75	3.75	7.75	4.75	4.75	0.25	0.25	1.00	1.50	1.50	0.75	2.75	1.25	0.00	0.00	-0.226562	0.143066	0.946289	5.740000	0.490000	1.190000	524.00	-0.19	-0.09
2.14	0.50	0.75	0.25	0.00	0.00	0.00	0.00	0.00	0.00	0.00	0.00	0.00	0.00	0.00	0.00	0.00	-0.753906	1.775879	0.958984	-107.660004	63.209999	13.650000	16.00	0.00	0.00	6.50	11.00	4.25	8.25	4.75	4.75	0.25	0.25	1.00	1.50	1.25	0.50	2.50	1.00	0.00	0.00	-0.224121	0.145508	0.927734	3.220000	0.070000	1.190000	541.00	-0.21	-0.09
2.15	0.75	0.50	0.00	0.00	0.00	0.00	0.00	0.00	0.00	0.00	0.00	0.00	0.00	0.00	0.00	0.00	-0.562500	1.678711	1.063477	-62.930000	74.830002	64.400002	14.00	0.00	0.00	7.25	12.00	4.25	8.25	4.75	5.00	0.00	0.25	1.00	1.25	1.25	0.75	2.50	1.00	0.00	0.00	-0.226562	0.150879	0.939941	1.960000	-0.700000	1.190000	559.00	-0.22	-0.09
2.16	0.25	0.25	0.50	0.50	0.00	0.00	0.00	0.00	0.00	0.00	0.00	0.00	0.00	0.00	0.00	0.00	-0.425293	1.439453	0.961426	-47.599998	79.870003	113.680000	17.00	0.00	0.00	8.00	13.00	4.00	8.75	5.00	5.00	0.00	0.50	0.75	1.25	1.25	0.25	2.50	1.00	0.00	0.00	-0.234863	0.147949	0.934082	0.700000	-1.120000	1.050000	578.00	-0.23	-0.09
2.17	0.75	0.75	0.00	0.00	0.00	0.00	0.00	0.00	0.00	0.00	0.00	0.00	0.00	0.00	0.00	0.00	-0.318848	1.258301	0.869141	-45.639999	88.199997	155.330002	16.00	0.00	0.00	9.00	14.25	4.50	9.00	5.00	5.25	0.00	0.25	0.75	1.25	1.25	0.75	2.50	1.00	0.00	0.00	-0.239258	0.148438	0.928711	-0.420000	-1.400000	0.910000	616.00	-0.23	-0.09
2.18	0.50	0.75	0.00	0.25	0.00	0.00	0.00	0.00	0.00	0.00	0.00	0.00	0.00	0.00	0.00	0.00	-0.211426	1.096680	0.901367	-34.650002	97.720001	187.180008	16.00	0.00	0.00	10.25	15.75	5.00	9.50	5.00	5.25	0.00	0.75	0.75	1.25	1.00	0.50	3.25	2.25	0.25	0.00	-0.236328	0.154297	0.945312	-0.910000	-1.820000	0.910000	681.00	-0.23	-0.09
2.19	0.75	0.50	0.25	0.00	0.00	0.00	0.00	0.00	0.00	0.00	0.00	0.00	0.00	0.00	0.00	0.00	-0.075684	0.911133	1.024902	-16.450001	102.760002	208.180008	17.00	0.00	0.00	11.25	17.25	5.00	10.00	5.25	5.50	0.00	0.50	0.50	1.25	1.00	0.50	2.50	1.25	0.00	0.00	-0.232910	0.147461	0.933105	-1.470000	-2.310000	1.050000	692.00	-0.25	-0.09
2.20	0.50	0.25	0.25	0.00	0.00	0.00	0.00	0.00	0.00	0.00	0.00	0.00	0.00	0.00	0.00	0.00	0.064941	0.740723	1.082031	-0.000000	101.639999	218.960007	11.00	0.00	0.00	11.00	18.00	5.00	10.75	5.50	5.50	0.00	0.50	0.50	1.00	1.75	1.25	2.50	1.75	0.75	0.00	-0.223145	0.146484	0.936523	-2.240000	-2.450000	0.840000	737.00	-0.23	-0.09
2.21	0.50	0.25	0.00	0.00	0.00	0.00	0.00	0.00	0.00	0.00	0.00	0.00	0.00	0.00	0.00	0.00	0.178223	0.608887	1.108887	13.930000	95.900002	220.570007	8.00	0.00	0.00	11.00	17.25	5.00	11.00	6.00	6.25	0.00	0.75	1.25	1.50	1.50	0.50	3.50	1.50	0.00	0.00	-0.226074	0.148926	0.944336	-3.080000	-2.660000	0.910000	755.00	-0.23	-0.09
2.22	0.25	0.50	0.25	0.00	0.00	0.00	0.00	0.00	0.00	0.00	0.00	0.00	0.00	0.00	0.00	0.00	0.285156	0.484863	1.146973	27.510000	87.080002	214.899994	11.00	0.00	0.00	12.75	20.25	5.50	12.00	5.75	6.00	0.00	1.25	2.00	2.00	2.00	1.75	4.25	2.50	0.25	0.75	-0.223633	0.145996	0.949219	-3.640000	-2.380000	0.840000	885.00	-0.20	-0.09
2.23	0.25	0.00	0.00	0.00	0.00	0.00	0.00	0.00	0.00	0.00	0.00	0.00	0.00	0.00	0.00	0.00	0.426270	0.236328	1.199707	46.270000	61.670002	186.199997	3.00	0.00	0.00	19.75	25.00	6.75	14.00	6.00	7.75	0.25	1.50	2.25	2.25	2.00	1.75	4.50	2.25	1.00	1.25	-0.221680	0.150391	0.949707	-4.270000	-1.820000	0.630000	1102.00	-0.22	-0.09
2.24	0.50	0.25	0.00	0.00	0.00	0.00	0.00	0.00	0.00	0.00	0.00	0.00	0.00	0.00	0.00	0.00	0.474121	0.139160	1.176758	49.910000	46.340000	166.460007	8.00	0.00	0.00	19.25	27.50	7.25	13.25	6.50	6.75	0.25	0.75	1.25	2.00	1.75	1.75	4.50	2.25	1.00	1.00	-0.227051	0.146973	0.944824	-5.040000	-1.260000	0.420000	1079.00	-0.23	-0.09
2.25	0.25	0.25	0.00	0.00	0.00	0.00	0.00	0.00	0.00	0.00	0.00	0.00	0.00	0.00	0.00	0.00	0.507812	0.032227	1.173828	54.950001	30.940001	145.180008	5.00	0.00	0.00	18.75	26.25	7.75	14.75	6.75	8.00	0.25	1.50	2.00	2.00	2.25	0.75	2.75	1.50	0.00	0.00	-0.221680	0.148438	0.945801	-5.600000	-1.190000	0.350000	1079.00	-0.25	-0.08
2.26	0.25	0.50	0.00	0.00	0.00	0.00	0.00	0.00	0.00	0.00	0.00	0.00	0.00	0.00	0.00	0.00	0.528809	-0.014648	1.247070	59.709999	15.890000	123.550003	8.00	0.00	0.00	18.50	23.00	7.50	15.75	7.25	8.75	0.25	1.00	2.25	2.25	2.25	1.75	4.75	2.50	1.00	1.00	-0.228027	0.145508	0.949707	-5.040000	-0.560000	0.210000	1122.00	-0.21	-0.09
2.27	0.25	0.00	0.00	0.00	0.00	0.00	0.00	0.00	0.00	0.00	0.00	0.00	0.00	0.00	0.00	0.00	0.528320	-0.014160	1.311035	60.689999	-1.610000	103.529999	3.00	0.00	0.00	22.00	28.50	8.25	16.50	7.25	8.50	0.25	1.00	0.75	1.25	1.25	0.50	2.75	1.75	0.00	0.00	-0.227051	0.145996	0.951660	-4.480000	-0.140000	0.210000	1131.00	-0.27	-0.08
2.28	0.50	0.00	0.00	0.00	0.00	0.00	0.00	0.00	0.00	0.00	0.00	0.00	0.00	0.00	0.00	0.00	0.496582	-0.001465	1.322266	59.430000	-20.860001	87.010002	6.00	0.00	0.00	18.75	22.00	8.50	16.25	6.50	8.25	0.25	0.50	1.50	2.25	2.00	2.00	5.00	2.50	1.00	1.25	-0.224609	0.148438	0.946289	-4.550000	0.280000	0.140000	1103.00	-0.22	-0.09
2.29	0.50	0.25	0.00	0.00	0.00	0.00	0.00	0.00	0.00	0.00	0.00	0.00	0.00	0.00	0.00	0.00	0.449219	0.029297	1.279297	56.490002	-38.500000	74.340004	8.00	0.00	0.00	16.50	23.00	7.00	15.25	6.25	7.75	0.50	2.00	2.50	2.50	2.00	2.00	5.00	2.50	1.25	1.25	-0.224121	0.143555	0.949707	-5.180000	0.420000	-0.070000	1098.00	-0.20	-0.09
2.30	0.00	0.00	0.00	0.00	0.00	0.00	0.00	0.00	0.00	0.00	0.00	0.00	0.00	0.00	0.00	0.00	0.375977	0.091797	1.233398	53.340000	-52.709999	65.590004	0.00	0.00	0.00	21.25	27.50	8.00	15.00	6.50	7.25	0.25	1.25	2.50	2.50	2.00	1.75	5.00	2.50	1.00	1.25	-0.227539	0.142578	0.943848	-5.740000	0.280000	-0.140000	1181.00	-0.22	-0.08
2.31	0.00	0.25	0.00	0.00	0.00	0.00	0.00	0.00	0.00	0.00	0.00	0.00	0.00	0.00	0.00	0.00	0.319824	0.151367	1.197754	51.520000	-63.279999	61.599998	3.00	0.00	0.00	21.50	27.50	8.50	16.25	7.25	7.75	0.25	1.75	2.50	2.50	2.00	2.00	4.75	2.50	1.00	1.00	-0.229980	0.143555	0.937500	-7.280000	-0.420000	-0.210000	1227.00	-0.22	-0.08
2.32	0.50	0.25	0.00	0.00	0.00	0.00	0.00	0.00	0.00	0.00	0.00	0.00	0.00	0.00	0.00	0.00	0.261230	0.186035	1.180664	50.680000	-71.610001	62.790001	8.00	0.00	0.00	21.00	27.50	8.25	15.25	7.25	8.25	0.50	1.75	2.25	2.25	2.25	1.75	5.00	2.75	1.25	1.00	-0.226074	0.142578	0.949219	-8.330000	-0.910000	-0.280000	1217.00	-0.22	-0.08
2.33	0.00	0.00	0.00	0.00	0.00	0.00	0.00	0.00	0.00	0.00	0.00	0.00	0.00	0.00	0.00	0.00	0.207520	0.215820	1.152344	48.299999	-77.840004	68.180000	0.00	0.00	0.00	20.50	26.75	8.25	16.00	7.50	8.75	0.50	2.25	2.50	2.50	2.25	1.75	5.00	2.50	1.25	1.25	-0.229004	0.142578	0.946289	-8.470000	-0.630000	-0.350000	1236.00	-0.21	-0.09
2.34	0.00	0.00	0.00	0.00	0.00	0.00	0.00	0.00	0.00	0.00	0.00	0.00	0.00	0.00	0.00	0.00	0.162109	0.227051	1.100586	44.099998	-81.410004	76.440002	0.00	0.00	0.00	20.00	26.75	8.50	15.75	7.75	9.00	0.50	2.00	2.75	2.50	2.25	1.75	5.00	2.50	1.00	1.25	-0.225098	0.143066	0.935059	-8.750000	-0.490000	-0.280000	1233.00	-0.21	-0.09
2.35	0.00	0.25	0.00	0.00	0.00	0.00	0.00	0.00	0.00	0.00	0.00	0.00	0.00	0.00	0.00	0.00	0.145508	0.223145	1.063477	39.130001	-82.459999	86.519997	3.00	0.00	0.00	19.50	26.25	8.50	15.50	7.75	8.75	0.50	2.00	2.75	2.50	2.25	2.00	5.25	2.50	1.25	1.00	-0.231445	0.137695	0.944824	-9.170000	-0.420000	-0.350000	1223.00	-0.21	-0.09
2.36	0.25	0.25	0.00	0.00	0.00	0.00	0.00	0.00	0.00	0.00	0.00	0.00	0.00	0.00	0.00	0.00	0.112793	0.195312	1.055664	33.810001	-81.410004	97.300003	5.00	0.00	0.00	19.25	25.50	8.50	15.25	8.00	8.75	0.50	2.00	3.00	2.75	2.50	1.75	5.25	2.75	1.25	1.00	-0.227051	0.142578	0.944824	-9.450000	-0.490000	-0.420000	1221.00	-0.20	-0.08
2.37	0.50	0.00	0.00	0.00	0.00	0.00	0.00	0.00	0.00	0.00	0.00	0.00	0.00	0.00	0.00	0.00	0.056152	0.162598	1.054199	29.610001	-78.959999	107.520004	6.00	0.00	0.00	18.50	24.75	8.25	15.00	8.00	8.75	0.50	2.00	3.00	2.75	2.50	2.00	5.25	2.75	1.50	1.25	-0.228027	0.137207	0.955566	-9.030000	-0.280000	-0.420000	1206.00	-0.20	-0.08
2.38	0.00	0.00	0.00	0.00	0.00	0.00	0.00	0.00	0.00	0.00	0.00	0.00	0.00	0.00	0.00	0.00	-0.006836	0.131348	1.066895	26.250000	-75.320000	116.480003	0.00	0.00	0.00	18.00	24.00	8.25	14.50	8.25	8.75	0.50	2.00	3.25	2.75	2.50	2.00	5.50	2.75	1.25	1.25	-0.225098	0.144043	0.955566	-7.490000	0.140000	-0.350000	1193.00	-0.19	-0.08
2.39	0.00	0.00	0.00	0.00	0.00	0.00	0.00	0.00	0.00	0.00	0.00	0.00	0.00	0.00	0.00	0.00	-0.208496	0.083984	1.171387	27.719999	-65.519997	130.690002	0.00	0.00	0.00	17.25	23.25	8.00	14.50	8.25	8.75	0.75	2.00	3.25	2.75	2.50	2.00	5.25	3.00	1.25	1.25	-0.224609	0.135742	0.952148	-6.650000	0.280000	-0.350000	1178.00	-0.19	-0.08
2.40	0.25	0.00	0.00	0.00	0.00	0.00	0.00	0.00	0.00	0.00	0.00	0.00	0.00	0.00	0.00	0.00	-0.308105	0.024414	1.272949	28.280001	-64.050003	136.570007	3.00	0.00	0.00	16.75	22.50	8.25	14.25	8.25	8.50	0.50	2.25	3.25	3.25	2.75	2.25	5.25	3.00	1.25	1.25	-0.229004	0.132324	0.948730	-5.950000	0.350000	-0.280000	1173.00	-0.18	-0.08
2.41	0.00	0.00	0.00	0.00	0.00	0.00	0.00	0.00	0.00	0.00	0.00	0.00	0.00	0.00	0.00	0.00	-0.378418	-0.030273	1.274902	21.629999	-66.080002	140.419998	0.00	0.00	0.00	16.00	22.00	8.00	13.75	8.25	8.50	0.50	2.25	3.50	2.75	2.75	2.00	5.50	3.00	1.25	1.25	-0.222656	0.135742	0.948242	-5.880000	-0.070000	-0.210000	1148.00	-0.18	-0.08
2.42	0.00	0.00	0.00	0.00	0.00	0.00	0.00	0.00	0.00	0.00	0.00	0.00	0.00	0.00	0.00	0.00	-0.460449	-0.044922	1.262695	10.150000	-67.760002	141.820007	0.00	0.00	0.00	15.50	21.50	8.00	13.75	8.50	8.50	0.75	2.25	3.50	3.25	2.75	2.25	5.50	3.25	1.50	1.75	-0.225586	0.133301	0.954590	-5.950000	-0.420000	-0.280000	1161.00	-0.17	-0.08
2.43	0.00	0.00	0.00	0.00	0.00	0.00	0.00	0.00	0.00	0.00	0.00	0.00	0.00	0.00	0.00	0.00	-0.535645	-0.088867	1.199707	0.350000	-71.540001	140.979996	0.00	0.00	0.00	15.25	20.75	8.00	13.50	8.50	8.50	0.50	2.00	3.50	3.25	3.00	2.25	5.75	3.00	1.75	1.50	-0.223145	0.136719	0.953613	-5.740000	-0.910000	-0.210000	1144.00	-0.17	-0.08
2.44	0.50	0.25	0.00	0.00	0.00	0.00	0.00	0.00	0.00	0.00	0.00	0.00	0.00	0.00	0.00	0.00	-0.556152	-0.119141	1.214844	-10.570000	-75.040001	137.759995	8.00	0.00	0.00	14.50	20.00	8.25	13.25	8.75	8.50	0.75	2.25	3.75	3.25	3.00	2.25	5.75	3.00	1.50	1.75	-0.229980	0.134277	0.950684	-5.740000	-1.400000	-0.070000	1141.00	-0.16	-0.08
2.45	0.00	0.00	0.00	0.00	0.00	0.00	0.00	0.00	0.00	0.00	0.00	0.00	0.00	0.00	0.00	0.00	-0.586426	-0.106934	1.144043	-22.960001	-78.120003	131.180008	0.00	0.00	0.00	14.25	19.50	8.00	13.00	9.00	8.50	0.75	2.25	3.75	3.75	3.00	2.25	6.00	3.00	1.25	1.50	-0.225586	0.133789	0.951660	-5.810000	-1.470000	-0.280000	1134.00	-0.16	-0.08
2.46	0.00	0.00	0.00	0.00	0.00	0.00	0.00	0.00	0.00	0.00	0.00	0.00	0.00	0.00	0.00	0.00	-0.621094	-0.080078	1.087402	-31.080000	-79.239998	121.730003	0.00	0.00	0.00	13.50	18.75	8.00	13.00	9.25	8.50	0.50	2.50	3.75	3.50	3.25	2.50	5.75	3.25	1.25	1.75	-0.220703	0.128418	0.947754	-5.530000	-1.610000	-0.280000	1126.00	-0.15	-0.09
2.47	0.00	0.00	0.00	0.00	0.00	0.00	0.00	0.00	0.00	0.00	0.00	0.00	0.00	0.00	0.00	0.00	-0.658203	-0.084473	1.054199	-34.650002	-79.239998	110.250000	0.00	0.00	0.00	13.50	18.75	8.00	12.75	9.25	8.50	0.50	2.75	3.75	3.75	3.25	2.50	6.00	3.50	1.50	1.75	-0.227051	0.135254	0.955566	-5.250000	-1.750000	-0.280000	1137.00	-0.15	-0.09
2.48	0.25	0.00	0.00	0.00	0.00	0.00	0.00	0.00	0.00	0.00	0.00	0.00	0.00	0.00	0.00	0.00	-0.702148	-0.084961	0.999512	-33.670002	-79.519997	96.879997	3.00	0.00	0.00	13.00	18.00	7.75	12.75	9.50	8.50	0.75	2.75	4.00	3.75	3.25	2.50	6.25	3.50	1.50	1.75	-0.224121	0.135254	0.957031	-4.760000	-1.890000	-0.140000	1134.00	-0.14	-0.08
2.49	0.00	0.00	0.00	0.00	0.00	0.00	0.00	0.00	0.00	0.00	0.00	0.00	0.00	0.00	0.00	0.00	-0.752441	-0.101562	0.915039	-28.210001	-79.590004	81.760002	0.00	0.00	0.00	12.50	17.50	7.75	12.25	9.50	8.50	0.75	2.75	4.25	4.00	3.50	2.75	6.25	3.50	1.50	1.75	-0.221680	0.131348	0.951172	-4.130000	-1.820000	-0.070000	1129.00	-0.13	-0.08
2.50	0.00	0.00	0.00	0.00	0.00	0.00	0.00	0.00	0.00	0.00	0.00	0.00	0.00	0.00	0.00	0.00	-0.806152	-0.113281	0.841797	-19.320000	-78.330002	65.379997	0.00	0.00	0.00	12.25	17.00	7.75	12.25	10.00	8.75	0.50	2.75	4.00	3.75	3.75	3.00	6.50	3.50	1.50	2.00	-0.224609	0.124512	0.946289	-3.430000	-1.540000	-0.140000	1130.00	-0.13	-0.09
2.51	0.00	0.00	0.00	0.00	0.00	0.00	0.00	0.00	0.00	0.00	0.00	0.00	0.00	0.00	0.00	0.00	-0.859863	-0.141602	0.780273	-9.170000	-75.529999	48.369999	0.00	0.00	0.00	11.75	16.25	7.75	12.00	10.00	8.75	0.75	2.75	4.25	4.00	4.00	3.00	6.50	3.50	1.75	2.00	-0.218750	0.129395	0.948730	-3.290000	-1.680000	-0.210000	1130.00	-0.12	-0.09
2.52	0.00	0.00	0.00	0.00	0.00	0.00	0.00	0.00	0.00	0.00	0.00	0.00	0.00	0.00	0.00	0.00	-0.906738	-0.169434	0.702637	-0.490000	-71.959999	31.850000	0.00	0.00	0.00	11.25	15.50	7.75	12.00	10.00	8.75	0.75	2.75	4.25	4.25	4.00	3.25	6.25	3.75	1.75	2.00	-0.223145	0.133301	0.945801	-3.290000	-2.030000	-0.280000	1122.00	-0.12	-0.08
2.53	0.00	0.00	0.00	0.00	0.00	0.00	0.00	0.00	0.00	0.00	0.00	0.00	0.00	0.00	0.00	0.00	-0.962891	-0.178223	0.636719	3.640000	-66.639999	15.890000	0.00	0.00	0.00	10.75	15.00	7.75	11.50	10.25	8.75	0.50	3.00	4.50	4.25	4.25	3.50	6.75	4.00	2.00	2.00	-0.214355	0.131836	0.951172	-3.290000	-2.240000	-0.140000	1128.00	-0.11	-0.09
2.54	0.00	0.00	0.00	0.00	0.00	0.00	0.00	0.00	0.00	0.00	0.00	0.00	0.00	0.00	0.00	0.00	-1.076660	-0.127441	0.509277	-1.680000	-50.540001	-12.040000	0.00	0.00	0.00	10.50	14.25	7.75	11.25	10.50	8.75	0.75	3.00	4.50	4.25	5.00	3.50	7.00	4.00	1.75	2.00	-0.219727	0.128418	0.954102	-3.150000	-2.450000	-0.210000	1130.00	-0.10	-0.09
2.55	0.00	0.00	0.00	0.00	0.00	0.00	0.00	0.00	0.00	0.00	0.00	0.00	0.00	0.00	0.00	0.00	-1.119629	-0.074219	0.469727	-9.170000	-42.000000	-22.889999	0.00	0.00	0.00	9.50	13.00	7.50	11.25	10.50	8.50	0.75	3.00	4.50	4.75	5.25	3.75	7.25	4.25	2.00	2.25	-0.216797	0.133301	0.953613	-3.150000	-2.380000	-0.210000	1120.00	-0.09	-0.09
2.56	0.00	0.00	0.00	0.00	0.00	0.00	0.00	0.00	0.00	0.00	0.00	0.00	0.00	0.00	0.00	0.00	-1.147949	0.005371	0.421387	-17.290001	-33.320000	-30.940001	0.00	0.00	0.00	9.50	12.75	7.50	10.75	11.00	8.50	0.75	3.25	4.75	5.00	6.00	4.00	7.00	4.50	2.00	2.50	-0.219727	0.128906	0.948730	-3.010000	-2.240000	-0.140000	1141.00	-0.08	-0.09
2.57	0.00	0.00	0.00	0.00	0.00	0.00	0.00	0.00	0.00	0.00	0.00	0.00	0.00	0.00	0.00	0.00	-1.177734	0.074707	0.364746	-23.799999	-23.799999	-36.330002	0.00	0.00	0.00	8.75	11.25	7.25	10.25	11.00	8.50	0.75	3.25	4.75	5.25	6.00	4.25	7.25	4.50	2.00	2.50	-0.217285	0.128418	0.957031	-2.940000	-2.030000	-0.350000	1116.00	-0.07	-0.09
2.58	0.00	0.00	0.00	0.00	0.00	0.00	0.00	0.00	0.00	0.00	0.00	0.00	0.00	0.00	0.00	0.00	-1.206055	0.165039	0.327637	-27.090000	-12.460000	-39.619999	0.00	0.00	0.00	8.50	10.25	7.00	10.00	11.00	8.50	0.75	3.25	5.00	5.75	7.00	4.50	7.50	4.50	2.50	2.75	-0.221191	0.126953	0.956543	-2.800000	-1.820000	-0.210000	1131.00	-0.05	-0.09
2.59	0.00	0.00	0.00	0.00	0.00	0.00	0.00	0.00	0.00	0.00	0.00	0.00	0.00	0.00	0.00	0.00	-1.224609	0.237793	0.286621	-25.830000	0.630000	-40.529999	0.00	0.00	0.00	8.00	9.50	7.00	9.75	11.50	8.50	0.75	3.50	5.00	6.25	7.50	5.00	8.00	5.00	2.25	2.75	-0.217285	0.130371	0.954590	-2.730000	-1.820000	-0.350000	1148.00	-0.04	-0.09
2.60	0.00	0.00	0.00	0.00	0.00	0.00	0.00	0.00	0.00	0.00	0.00	0.00	0.00	0.00	0.00	0.00	-1.256836	0.283203	0.311523	-21.700001	15.260000	-39.759998	0.00	0.00	0.00	7.50	8.75	6.75	9.25	11.50	8.50	0.50	3.75	5.00	6.50	7.75	5.50	8.00	5.00	2.50	3.00	-0.216797	0.127441	0.952148	-2.660000	-2.030000	-0.420000	1142.00	-0.03	-0.09
2.61	0.00	0.00	0.00	0.00	0.00	0.00	0.00	0.00	0.00	0.00	0.00	0.00	0.00	0.00	0.00	0.00	-1.263672	0.323242	0.375000	-16.520000	28.210001	-37.380001	0.00	0.00	0.00	7.25	7.75	6.75	9.00	11.50	8.50	0.75	3.75	5.25	7.50	8.25	6.25	8.25	5.25	2.75	3.25	-0.218262	0.133301	0.942871	-2.730000	-2.310000	-0.420000	1168.00	-0.02	-0.09
2.62	0.00	0.00	0.00	0.00	0.00	0.00	0.00	0.00	0.00	0.00	0.00	0.00	0.00	0.00	0.00	0.00	-1.252441	0.351074	0.443848	-12.460000	38.150002	-33.599998	0.00	0.00	0.00	6.75	7.25	6.00	8.50	11.50	8.25	0.75	4.25	5.75	7.75	8.50	6.50	8.75	5.75	2.75	3.50	-0.207520	0.127441	0.964844	-2.940000	-3.080000	-0.420000	1175.00	-0.01	-0.09
2.63	0.50	0.25	0.00	0.00	0.00	0.00	0.00	0.00	0.00	0.00	0.00	0.00	0.00	0.00	0.00	0.00	-0.028809	-0.417480	0.486816	-10.780000	45.009998	-28.910000	8.00	0.00	0.00	6.25	6.50	6.00	8.00	11.50	8.25	0.75	4.25	6.00	8.25	9.25	7.50	9.00	6.00	3.00	4.25	-0.213379	0.129395	0.958008	-2.520000	-2.590000	-0.490000	1197.00	0.01	-0.09
2.64	1.00	1.50	0.00	0.50	0.00	0.00	0.00	0.00	0.00	0.00	0.00	0.00	0.00	0.00	0.00	0.00	0.493164	-0.181152	-0.295898	-5.250000	138.039993	-53.760002	32.00	0.00	0.00	6.00	5.75	5.75	7.25	11.00	8.00	0.75	4.25	6.50	8.75	9.75	7.75	9.25	6.50	3.25	4.75	-0.215332	0.132812	0.956543	-1.890000	-1.260000	-0.770000	1200.00	0.03	-0.09
2.65	1.75	3.25	0.25	1.00	0.25	0.00	0.00	0.00	0.00	0.00	0.00	0.00	0.00	0.00	0.00	0.00	0.091797	0.412598	1.479492	-66.500000	197.470001	-87.220001	71.00	-0.37	-0.08	5.50	5.25	5.25	6.75	10.75	7.75	0.50	4.50	7.25	9.50	10.50	8.25	9.75	7.00	3.50	5.00	-0.208984	0.128906	0.963379	-1.260000	0.070000	-1.120000	1218.00	0.04	-0.09
2.66	2.50	4.75	0.50	1.75	0.00	0.00	0.00	0.00	0.00	0.00	0.00	0.00	0.00	0.00	0.00	0.00	-0.340820	0.188965	0.868652	-93.660004	175.070007	-99.610001	103.00	-0.38	-0.09	5.25	5.00	5.00	6.00	10.00	7.50	0.50	4.50	7.50	10.00	11.00	8.50	10.00	7.50	4.00	5.25	-0.211426	0.132812	0.962891	-0.770000	2.100000	-1.820000	1221.00	0.06	-0.09
2.67	3.25	5.50	0.75	2.25	0.00	0.00	0.00	0.00	0.00	0.00	0.00	0.00	0.00	0.00	0.00	0.00	-0.675781	0.345703	1.302734	-115.919998	178.289993	-102.970001	128.00	-0.37	-0.08	5.00	4.25	4.75	5.75	9.25	7.25	0.50	4.25	8.00	10.50	11.75	9.00	10.25	8.00	4.50	5.75	-0.210938	0.143555	0.975586	0.140000	4.340000	-2.940000	1231.00	0.07	-0.09
2.68	3.75	7.25	0.75	3.25	0.25	0.00	0.00	0.00	0.00	0.00	0.00	0.00	0.00	0.00	0.00	0.00	-0.586426	0.431152	1.381348	-108.709999	160.580002	-90.510002	167.00	-0.37	-0.09	4.25	3.75	4.25	5.25	8.50	6.75	0.50	4.00	8.25	11.25	12.75	9.25	10.25	8.75	5.00	6.25	-0.203613	0.147461	0.973145	1.190000	8.820000	-4.900000	1229.00	0.09	-0.09
2.69	5.00	8.25	0.75	4.00	0.00	0.00	0.00	0.00	0.00	0.00	0.00	0.00	0.00	0.00	0.00	0.00	-0.495605	0.119629	1.270508	-83.090004	118.510002	-66.570000	197.00	-0.37	-0.09	4.00	3.25	4.25	5.00	7.50	6.50	0.25	3.25	8.50	12.00	13.25	9.75	10.00	8.75	4.75	6.50	-0.210938	0.136230	0.988281	2.590000	15.190001	-6.580000	1206.00	0.10	-0.08
2.70	5.50	9.25	1.00	5.00	0.25	0.00	0.00	0.00	0.00	0.00	0.00	0.00	0.00	0.00	0.00	0.00	-0.448242	0.210449	1.185547	-51.240002	115.080002	-50.049999	231.00	-0.37	-0.09	2.25	2.00	1.75	2.25	6.00	5.25	0.25	3.25	8.25	11.50	12.75	9.25	9.50	10.00	6.25	7.50	-0.201660	0.156738	1.026367	14.000000	29.820000	-10.920000	1087.00	0.15	-0.08
2.71	6.75	10.25	1.50	6.00	0.50	0.75	0.00	0.00	0.00	0.00	0.00	0.00	0.50	0.00	0.00	0.00	-0.972656	-0.155273	1.492188	-33.320000	111.300003	-45.430000	290.00	-0.35	-0.10	2.00	3.00	2.50	2.50	6.00	5.50	0.00	2.25	9.00	13.25	14.50	10.25	9.75	10.50	6.50	7.50	-0.250977	0.175293	1.012207	20.440001	49.420002	-12.810000	1160.00	0.15	-0.08
2.72	8.25	11.50	2.25	7.50	0.75	2.50	0.00	0.50	0.00	0.00	0.00	0.00	0.50	0.00	0.00	0.00	-0.706055	1.448730	3.677734	-89.529999	57.189999	-23.870001	378.00	-0.33	-0.11	1.25	1.25	1.25	2.00	5.00	4.25	0.00	1.50	8.50	13.25	14.50	10.50	10.00	12.00	7.25	8.50	-0.249512	0.164551	1.052734	19.809999	70.139999	-14.490000	1100.00	0.19	-0.08
2.73	9.50	12.75	2.75	8.25	1.00	2.75	0.00	0.75	0.00	0.00	0.00	0.00	1.25	0.00	0.00	0.00	-0.346191	0.145996	1.137207	-34.650002	7.700000	-4.270000	437.00	-0.32	-0.11	2.25	2.25	2.75	3.25	5.25	5.25	0.00	2.25	9.50	14.00	15.25	10.75	9.75	13.25	7.50	8.75	-0.270508	0.153809	1.084961	15.610000	92.750000	-15.750000	1230.00	0.16	-0.07
2.74	9.50	12.50	2.75	8.50	1.25	3.75	0.00	1.00	0.00	0.00	0.00	0.00	1.50	0.00	0.00	0.00	-0.251953	0.131348	0.981934	-26.460001	8.470000	-0.770000	459.00	-0.31	-0.12	3.00	2.50	2.00	3.25	5.25	5.25	0.00	2.00	9.75	13.00	14.00	10.00	8.75	12.50	7.00	8.50	-0.303711	0.175293	1.109375	8.050000	126.070000	-17.780001	1173.00	0.16	-0.07
2.75	9.75	13.00	3.00	8.50	1.00	2.75	0.00	0.75	0.00	0.00	0.00	0.00	1.50	0.00	0.00	0.00	-0.335938	0.146973	0.991699	-26.110001	-1.190000	-1.120000	451.00	-0.32	-0.11	2.00	1.25	1.25	2.00	4.25	3.75	0.00	0.75	8.75	13.25	14.00	9.75	8.25	13.50	7.50	8.75	-0.325195	0.176270	1.118652	6.650000	136.850006	-19.670000	1072.00	0.19	-0.06
2.76	10.25	13.25	3.50	9.25	1.50	5.25	0.00	2.00	0.00	0.00	0.00	0.00	2.00	0.00	0.00	0.00	-0.323730	0.152344	0.965820	-21.139999	-7.630000	-0.630000	536.00	-0.29	-0.13	0.75	1.00	1.25	2.00	4.00	3.75	0.00	0.50	8.50	13.25	14.00	9.75	7.75	16.50	8.00	9.25	-0.341797	0.176270	1.107422	7.000000	145.180008	-21.980000	1077.00	0.21	-0.05
2.77	8.00	11.75	1.75	9.25	1.50	5.25	0.00	2.50	0.00	0.00	0.00	0.00	1.50	0.25	0.00	0.00	-0.306152	0.148926	0.930664	-20.510000	-8.610000	-0.350000	480.00	-0.28	-0.15	1.25	1.25	1.25	2.00	4.00	3.50	0.00	0.75	8.75	13.50	13.75	9.50	7.00	15.25	7.75	9.00	-0.363281	0.189453	1.153809	5.950000	154.699997	-24.780001	1064.00	0.20	-0.05
2.78	11.50	14.75	4.00	10.25	2.00	7.75	0.25	3.00	0.00	0.25	0.00	0.25	3.75	0.00	0.00	0.00	-0.311035	0.146484	0.934570	-18.059999	-10.780000	0.000000	662.00	-0.26	-0.14	1.50	1.25	1.50	1.50	3.75	3.00	0.00	0.25	9.00	13.25	13.75	9.25	6.00	15.50	8.25	9.25	-0.381836	0.171387	1.124023	4.760000	166.740005	-27.790001	1044.00	0.21	-0.04
2.79	12.00	15.75	4.75	10.75	2.25	8.25	0.25	3.75	0.00	0.00	0.25	0.25	3.75	0.00	0.00	0.00	-0.305664	0.143555	0.950195	-14.420000	-10.080000	0.280000	714.00	-0.26	-0.14	1.25	1.25	1.25	1.50	3.75	2.75	0.00	0.25	9.00	13.25	13.25	9.00	5.50	16.25	8.25	9.00	-0.406250	0.174805	1.118652	2.590000	182.490005	-30.030001	1027.00	0.22	-0.03
2.80	12.50	16.00	5.00	11.00	2.25	8.50	0.25	4.25	0.00	0.00	0.50	0.25	4.00	0.00	0.00	0.00	-0.294434	0.140625	0.919922	-9.100000	-5.460000	0.840000	745.00	-0.25	-0.14	1.00	1.00	1.25	1.50	3.50	2.25	0.00	0.00	9.00	13.00	13.00	8.75	4.00	16.75	8.25	8.75	-0.434082	0.200684	1.109375	-0.070000	198.940002	-33.040001	989.00	0.23	-0.02
2.81	13.00	16.25	5.00	11.25	2.50	9.00	0.25	4.75	0.25	0.25	0.25	0.75	4.25	0.25	0.00	0.00	-0.294434	0.140625	0.919922	-9.100000	-5.460000	0.840000	787.00	-0.24	-0.14	1.00	1.00	1.25	1.75	3.25	1.75	0.00	0.00	9.00	12.75	12.50	8.25	3.50	17.00	8.00	8.50	-0.458496	0.213379	1.124023	-3.710000	216.790009	-37.380001	962.00	0.23	-0.02
2.82	12.75	16.25	5.25	11.50	2.25	9.25	0.25	5.00	0.00	0.25	0.25	0.25	3.50	0.00	0.00	0.00	-0.297852	0.141113	0.936523	-7.910000	-4.340000	0.910000	776.00	-0.25	-0.15	0.75	1.25	1.25	1.50	3.00	1.50	0.00	0.00	9.00	12.50	12.00	7.75	1.75	17.00	7.75	8.00	-0.512695	0.211914	1.050781	-7.980000	236.320007	-43.330002	916.00	0.23	-0.01
2.83	9.25	13.00	3.50	9.75	1.75	8.25	0.25	4.00	0.00	0.00	0.00	0.00	2.75	0.00	0.00	0.00	-0.291504	0.137207	0.935059	-4.270000	-0.000000	1.260000	611.00	-0.25	-0.16	0.50	1.00	1.00	1.00	2.50	1.25	0.00	0.00	9.00	12.25	11.50	7.50	2.00	16.75	7.50	7.50	-0.573242	0.208984	1.126953	-13.090000	254.800003	-49.420002	876.00	0.24	-0.00
2.84	12.00	16.00	4.25	10.75	2.25	9.25	0.25	6.00	0.00	0.50	0.50	0.50	4.75	0.25	0.00	0.00	-0.291016	0.135254	0.936523	-2.800000	2.450000	1.470000	783.00	-0.23	-0.16	0.50	0.75	1.00	0.50	2.25	0.75	0.00	0.00	8.75	12.00	11.00	6.75	1.50	16.50	6.75	6.75	-0.609375	0.246094	1.151367	-17.570000	276.640015	-56.349998	818.00	0.25	0.01
2.85	12.50	16.25	5.00	11.50	2.50	9.50	0.25	6.00	0.00	0.50	0.50	0.75	4.75	0.00	0.00	0.25	-0.291016	0.138184	0.933105	-1.680000	4.690000	1.750000	817.00	-0.23	-0.16	0.75	0.50	1.25	0.75	2.00	0.50	0.00	0.00	8.50	11.50	10.50	6.25	0.75	15.50	6.00	6.00	-0.730957	0.239746	1.196777	-24.010000	295.890015	-61.599998	768.00	0.25	0.01
2.86	12.25	16.00	5.00	11.50	2.25	9.75	0.25	6.25	0.00	0.25	0.75	0.50	5.00	0.00	0.00	0.00	-0.291504	0.134766	0.928711	-0.840000	6.370000	1.820000	814.00	-0.23	-0.16	0.25	0.25	1.00	0.00	1.50	0.25	0.00	0.00	8.25	11.25	10.00	5.75	1.00	14.25	5.25	5.25	-0.903809	0.294922	1.324219	-24.430000	326.200012	-70.419998	698.00	0.26	0.02
2.87	11.75	15.75	5.00	11.25	2.25	9.75	0.25	6.25	0.25	0.50	0.50	0.50	5.00	0.00	0.00	0.00	-0.292480	0.142090	0.918457	-0.000000	7.630000	1.820000	806.00	-0.23	-0.16	0.25	0.50	0.25	0.25	1.25	0.00	0.00	0.00	8.00	10.75	9.25	5.25	1.00	13.00	4.25	5.00	-1.029297	0.361816	1.549805	-16.309999	336.769989	-73.430000	641.00	0.27	0.02
2.88	11.50	15.25	5.00	11.00	2.25	9.50	0.25	6.25	0.25	0.25	0.50	0.25	5.00	0.00	0.00	0.00	-0.292480	0.139648	0.918457	0.210000	8.120000	1.820000	787.00	-0.23	-0.16	0.00	0.25	0.25	0.25	1.50	0.50	0.00	0.00	7.50	10.25	8.75	5.00	1.00	11.50	2.75	4.25	-1.187012	0.336914	1.530273	-6.790000	346.570007	-78.820000	587.00	0.26	0.02
2.89	10.75	15.00	5.00	11.00	2.25	9.75	0.25	6.00	0.00	0.25	0.25	0.75	4.75	0.00	0.00	0.00	-0.298340	0.136230	0.916992	0.490000	8.120000	1.680000	772.00	-0.23	-0.17	0.00	0.25	0.25	0.00	0.75	0.00	0.00	0.00	7.00	9.75	8.25	4.25	0.75	10.75	2.25	3.75	-1.317871	0.453125	1.541992	-8.190000	349.230011	-88.830002	524.00	0.27	0.03
2.90	10.50	14.50	4.75	10.75	2.25	9.50	0.25	6.25	0.00	0.25	0.50	0.50	5.00	0.00	0.00	0.00	-0.289551	0.147461	0.905762	0.350000	7.490000	1.680000	761.00	-0.23	-0.17	0.00	0.00	0.25	0.00	0.50	0.25	0.00	0.00	6.25	8.75	7.75	3.75	0.75	9.75	1.75	2.50	-1.465820	0.479980	1.799316	-12.110000	347.480011	-99.959999	465.00	0.27	0.03
2.91	10.00	14.00	5.00	10.50	2.25	9.50	0.25	6.25	0.00	0.25	0.50	0.50	5.00	0.00	0.00	0.00	-0.287109	0.144531	0.904297	-0.910000	5.740000	1.540000	751.00	-0.22	-0.17	0.00	0.00	0.00	0.00	0.00	0.00	0.00	0.00	5.50	8.00	6.50	3.25	2.00	9.75	1.25	3.75	-1.599609	0.475098	1.904785	-13.650000	337.119995	-109.059998	427.00	0.28	0.02
2.92	9.50	13.50	4.25	10.50	2.00	9.25	0.25	6.25	0.00	0.25	0.50	0.50	5.00	0.00	0.00	0.25	-0.286621	0.142090	0.908691	-2.310000	4.270000	1.400000	726.00	-0.22	-0.18	0.00	0.00	0.00	0.00	0.00	0.00	0.00	0.00	5.00	6.75	5.50	2.50	0.75	9.50	2.00	1.75	-1.481445	0.514160	2.002441	-22.120001	312.200012	-113.889999	369.00	0.29	0.04
2.93	9.25	13.25	4.50	10.25	2.25	9.50	0.25	6.50	0.00	0.50	0.75	0.75	5.00	0.25	0.00	0.00	-0.285156	0.143555	0.906250	-3.360000	3.220000	1.120000	741.00	-0.21	-0.17	0.00	0.00	0.00	0.00	0.00	0.00	0.00	0.00	5.00	5.50	4.00	1.75	0.00	6.75	0.25	1.25	-1.119141	0.548828	1.945312	-28.490000	281.329987	-115.570000	273.00	0.28	0.08
2.94	8.75	12.50	4.25	10.25	2.00	9.25	0.25	6.50	0.00	0.25	1.00	0.75	5.00	0.25	0.00	0.00	-0.286133	0.140137	0.909180	-4.550000	1.890000	1.050000	718.00	-0.21	-0.18	0.00	0.00	0.00	0.00	0.00	0.00	0.00	0.00	4.00	5.25	3.75	1.75	0.00	5.25	0.25	0.75	-0.796387	0.553223	2.081543	-35.420002	252.839996	-116.830002	236.00	0.28	0.07
2.95	8.00	11.75	3.75	9.75	2.25	9.50	0.25	6.50	0.00	0.50	0.75	1.25	5.25	0.00	0.00	0.00	-0.285156	0.142090	0.911621	-5.110000	0.910000	0.910000	702.00	-0.20	-0.19	1.25	1.00	1.00	1.25	0.50	1.25	0.00	0.25	4.00	4.50	3.75	2.75	2.00	5.00	1.75	1.75	-0.519531	0.569824	2.136719	-46.900002	238.350006	-120.260002	355.00	0.16	-0.02
2.96	7.75	11.50	3.50	9.75	2.25	9.25	0.25	6.75	0.25	0.75	0.75	1.25	5.50	0.25	0.00	0.00	-0.287598	0.141602	0.914062	-5.110000	0.140000	0.910000	706.00	-0.19	-0.19	0.75	0.00	0.00	0.00	0.00	0.00	0.00	0.00	1.00	1.50	1.00	0.50	0.00	1.00	0.00	0.25	-0.116211	0.776855	1.803711	-46.970001	229.320007	-122.010002	68.00	0.18	0.06
2.97	7.50	11.25	3.50	9.50	2.25	9.50	0.25	7.00	0.25	0.75	1.00	1.25	5.50	0.50	0.00	0.00	-0.278809	0.141602	0.903809	-6.650000	-1.890000	0.770000	710.00	-0.18	-0.19	0.00	0.00	0.00	0.00	0.00	0.00	0.00	0.00	0.75	1.25	1.00	0.00	0.00	0.75	0.00	0.25	0.780762	1.523438	2.356445	-49.560001	141.750000	-59.779999	45.00	0.00	0.00
2.98	7.25	10.50	3.50	9.50	2.50	9.50	0.25	7.25	0.00	0.75	1.25	1.25	6.00	0.25	0.00	0.00	-0.285156	0.139160	0.901855	-8.330000	-3.990000	0.420000	708.00	-0.18	-0.19	0.00	0.25	0.00	0.00	0.00	0.00	0.00	0.00	0.25	1.00	0.50	0.25	0.00	0.25	0.00	0.00	0.692871	1.274902	2.425781	-63.630001	25.690001	-3.150000	28.00	0.00	0.00
2.99	6.75	10.25	3.50	9.50	2.50	9.75	0.50	7.50	0.75	1.25	1.50	1.50	6.50	0.50	0.00	0.25	-0.280762	0.133301	0.906738	-10.150000	-5.950000	0.350000	742.00	-0.15	-0.19	0.25	0.50	1.00	0.50	0.50	0.75	0.00	0.25	2.00	2.25	1.75	1.25	1.00	2.00	1.25	1.25	0.766113	0.833496	1.489258	-80.430000	-43.750000	35.139999	184.00	0.15	-0.03
3.00	6.75	10.00	3.50	9.25	3.00	10.00	0.50	7.75	0.75	1.25	1.75	2.00	6.75	0.50	0.00	0.00	-0.280762	0.133789	0.916016	-11.340000	-7.840000	0.210000	759.00	-0.15	-0.19	1.00	0.75	0.75	0.75	0.50	1.00	0.00	0.25	2.25	2.00	1.75	1.25	1.25	1.75	1.25	1.00	0.724609	0.608887	0.879883	-98.419998	-67.340004	51.799999	197.00	0.11	-0.04
3.01	6.75	9.50	3.25	9.00	3.00	10.00	0.50	7.75	1.25	1.50	2.00	2.50	7.50	1.00	0.00	0.50	-0.276855	0.134277	0.919922	-11.690000	-9.450000	0.000000	781.00	-0.13	-0.18	1.00	1.00	0.75	1.00	0.50	1.00	0.00	0.25	2.00	2.25	1.50	1.25	1.00	1.50	1.25	1.00	0.663574	0.646973	0.802246	-95.480003	-69.300003	56.490002	194.00	0.10	-0.04
3.02	6.25	9.25	3.50	9.00	3.75	10.00	0.50	8.00	1.25	1.75	2.25	2.75	8.00	1.00	0.00	0.50	-0.280273	0.135254	0.934082	-10.990000	-9.660000	0.000000	803.00	-0.12	-0.18	1.25	1.00	0.75	0.75	0.25	0.75	0.00	0.00	2.00	1.75	1.25	1.25	1.00	1.75	1.00	1.25	0.643066	0.641602	0.814453	-69.510002	-71.120003	57.470001	176.00	0.10	-0.03
3.03	6.00	8.50	3.25	8.75	4.00	10.25	0.50	8.25	1.75	2.25	2.75	3.25	8.50	1.00	0.00	0.50	-0.279785	0.133789	0.924805	-9.940000	-9.660000	0.280000	826.00	-0.10	-0.18	1.00	1.00	1.00	1.00	0.25	0.75	0.00	0.25	1.75	2.00	1.50	1.00	1.00	1.50	1.00	1.00	0.628418	0.575684	0.879395	-37.590000	-81.129997	57.049999	179.00	0.08	-0.04
3.04	5.25	7.75	3.00	8.50	4.50	10.25	0.50	8.50	2.50	2.75	3.25	4.00	9.25	1.50	0.25	1.25	-0.289551	0.133301	0.921875	-9.380000	-8.820000	0.210000	863.00	-0.07	-0.18	0.50	0.50	0.50	0.25	0.25	0.75	0.00	0.25	1.00	1.50	0.50	0.50	0.00	0.50	0.25	0.00	0.563477	0.473145	0.964844	-17.360001	-98.419998	56.279999	86.00	0.05	-0.01
3.05	5.00	7.50	2.50	8.00	4.25	10.25	0.50	8.50	2.50	3.00	4.00	4.75	9.50	1.50	0.00	1.25	-0.272461	0.130371	0.928711	-7.840000	-7.000000	0.210000	863.00	-0.06	-0.18	1.25	1.00	0.75	0.75	0.50	1.00	0.25	0.50	1.75	1.50	1.50	1.00	1.25	1.50	1.00	1.00	0.495605	0.370117	0.980469	-15.190001	-119.000000	55.720001	187.00	0.08	-0.05
3.06	3.75	6.50	2.25	7.75	4.50	10.25	0.50	8.75	3.00	3.50	4.25	5.50	9.75	1.50	0.25	1.75	-0.275879	0.128906	0.928711	-5.880000	-4.830000	0.490000	872.00	-0.04	-0.19	1.25	1.25	1.00	1.00	0.50	1.25	0.00	0.50	1.75	1.50	1.25	1.00	1.25	1.75	1.00	1.00	0.419434	0.322266	0.959473	-25.690001	-140.490005	55.090000	193.00	0.06	-0.06
3.07	3.50	6.00	2.00	7.25	4.75	10.00	0.50	8.75	3.50	4.00	5.25	6.00	10.25	2.00	0.25	1.50	-0.267090	0.127441	0.928711	-4.060000	-2.590000	0.630000	893.00	-0.02	-0.18	0.00	0.50	0.50	0.25	0.25	0.50	0.00	0.50	1.00	1.50	1.25	0.75	0.75	1.00	1.00	0.75	0.334961	0.342773	0.920898	-37.590000	-160.369995	54.180000	118.00	0.15	-0.07
3.08	3.00	5.25	1.75	6.50	4.50	10.00	0.50	8.75	4.00	4.50	6.25	6.75	10.50	2.50	0.25	2.00	-0.274414	0.129395	0.933594	-2.450000	-0.350000	0.700000	908.00	0.00	-0.18	1.00	1.00	0.50	0.50	0.25	0.75	0.00	0.25	1.50	1.25	1.00	1.00	0.75	1.25	1.00	0.50	0.261230	0.377930	0.875488	-41.930000	-177.800003	52.990002	141.00	0.08	-0.04
3.09	2.25	5.00	1.50	6.00	4.50	9.75	0.50	8.75	4.25	5.75	7.25	7.75	10.50	2.50	0.50	2.00	-0.273438	0.131348	0.931152	-1.120000	1.750000	0.700000	928.00	0.02	-0.18	0.75	0.75	0.75	0.75	0.50	1.00	0.00	0.00	1.75	1.50	1.25	0.75	1.00	1.25	1.00	0.75	0.194336	0.423828	0.851562	-36.119999	-193.339996	52.639999	154.00	0.09	-0.03
3.10	2.00	3.75	1.50	5.50	4.00	9.75	0.50	9.00	4.75	6.25	7.75	7.75	11.00	2.75	0.25	2.25	-0.266113	0.125488	0.923340	0.490000	3.640000	0.770000	929.00	0.04	-0.18	0.00	0.00	0.00	0.00	0.00	0.00	0.00	0.00	0.00	0.00	0.00	0.00	0.00	0.00	0.00	0.00	0.067383	0.419922	0.827637	-11.970000	-217.910004	56.910000	0.00	0.00	0.00
3.11	1.25	2.50	1.25	4.50	3.75	9.50	0.50	9.00	5.25	7.00	8.00	8.25	11.25	3.00	0.50	2.50	-0.268066	0.133789	0.929688	2.170000	5.320000	0.840000	921.00	0.06	-0.17	0.00	0.00	0.00	0.00	0.00	0.00	0.00	0.00	0.00	0.00	0.00	0.00	0.00	0.00	0.00	0.00	-0.006348	0.409180	0.845215	-6.090000	-227.009995	61.250000	0.00	0.00	0.00
3.12	1.00	2.25	0.75	3.50	3.50	9.00	0.50	9.00	5.25	8.00	8.50	8.50	11.50	3.50	0.75	3.00	-0.265625	0.131836	0.934082	4.060000	7.490000	0.840000	921.00	0.08	-0.17	0.00	0.00	0.00	0.00	0.00	0.00	0.00	0.00	0.00	0.00	0.00	0.00	0.00	0.00	0.00	0.00	-0.058105	0.423828	0.878906	-5.250000	-234.009995	66.779999	0.00	0.00	0.00
3.13	0.75	1.50	0.50	2.75	3.25	8.75	0.50	9.00	6.00	8.25	9.00	9.00	11.75	4.50	1.00	3.25	-0.265625	0.128418	0.953613	10.430000	14.560000	0.350000	934.00	0.10	-0.17	0.00	0.00	0.00	0.00	0.00	0.00	0.00	0.00	0.00	0.00	0.00	0.00	0.00	0.00	0.00	0.00	-0.120605	0.460938	0.935059	-6.370000	-239.960007	73.290001	0.00	0.00	0.00
3.14	0.50	0.75	0.50	2.00	2.50	8.25	0.50	8.75	6.50	8.75	9.50	9.50	12.25	4.50	1.00	3.50	-0.258789	0.153320	0.957031	19.950001	24.570000	-0.630000	926.00	0.12	-0.16	0.00	0.00	0.00	0.00	0.00	0.00	0.00	0.00	0.00	0.00	0.00	0.00	0.00	0.00	0.00	0.00	-0.170410	0.508301	1.009766	-6.720000	-245.770004	80.360001	0.00	0.00	0.00
3.15	0.50	0.50	0.50	1.50	2.25	8.00	0.25	8.75	7.25	9.25	10.00	10.00	12.50	5.00	1.25	4.25	-0.307129	0.214355	0.994629	29.330000	35.560001	-2.730000	949.00	0.13	-0.16	0.00	0.00	0.00	0.00	0.00	0.00	0.00	0.00	0.00	0.00	0.00	0.00	0.00	0.00	0.00	0.00	-0.230469	0.553711	1.104980	-4.760000	-251.790009	88.059998	0.00	0.00	0.00
3.16	0.00	0.25	0.00	1.00	1.75	7.50	0.25	8.50	7.50	9.75	10.50	10.25	12.75	5.75	1.50	4.50	-0.276855	0.166016	0.992188	33.950001	49.420002	-3.640000	945.00	0.15	-0.16	0.00	0.00	0.00	0.00	0.00	0.00	0.00	0.00	0.00	0.00	0.00	0.00	0.00	0.00	0.00	0.00	-0.281250	0.582520	1.198730	-1.540000	-258.440002	95.760002	0.00	0.00	0.00
3.17	0.00	0.25	0.00	0.75	1.50	7.75	0.25	8.25	8.00	10.25	11.00	10.50	12.50	6.25	1.75	5.00	-0.304688	0.157227	0.998047	35.980000	62.790001	-4.760000	967.00	0.16	-0.15	0.00	0.00	0.00	0.00	0.00	0.00	0.00	0.00	0.00	0.00	0.00	0.00	0.00	0.00	0.00	0.00	-0.349609	0.608887	1.278320	1.400000	-265.790009	102.830002	0.00	0.00	0.00
3.18	0.00	0.00	0.00	0.50	1.25	7.00	0.00	8.00	8.25	10.75	11.50	11.00	12.75	7.25	2.00	5.50	-0.321289	0.154785	0.983887	37.799999	76.580002	-5.670000	979.00	0.17	-0.15	0.00	0.00	0.00	0.00	0.00	0.00	0.00	0.00	0.00	0.25	0.00	0.25	0.00	0.25	0.00	0.25	-0.416992	0.618652	1.353516	4.690000	-272.929993	108.500000	10.00	0.00	0.00
3.19	0.00	0.00	0.00	0.25	1.25	6.75	0.00	7.75	8.50	11.50	12.00	11.25	12.75	7.75	2.50	6.00	-0.329590	0.172852	0.982910	36.330002	91.699997	-6.300000	1003.00	0.18	-0.14	1.00	0.75	0.75	1.00	0.25	1.00	0.25	0.50	1.75	1.00	0.75	0.75	1.00	1.00	1.00	1.00	-0.481934	0.628906	1.434082	9.940000	-279.160004	112.070000	157.00	0.06	-0.06
3.20	0.00	0.00	0.00	0.00	1.00	6.50	0.00	7.50	8.75	12.00	12.50	11.50	12.50	8.50	3.00	6.50	-0.342773	0.196777	0.970703	29.889999	107.239998	-6.860000	1021.00	0.19	-0.13	1.50	1.00	1.00	1.00	0.50	1.00	0.00	0.25	1.50	1.00	0.75	1.00	1.25	1.00	1.00	0.50	-0.538086	0.608398	1.515625	17.010000	-284.760010	113.400002	162.00	0.02	-0.06
3.21	0.00	0.00	0.00	0.00	1.00	6.00	0.00	7.00	9.25	12.50	12.75	11.50	12.25	9.25	3.75	7.00	-0.356445	0.172363	0.923828	26.180000	122.709999	-7.490000	1039.00	0.19	-0.12	1.25	1.00	0.75	1.25	0.50	1.25	0.00	0.25	1.25	1.00	0.75	0.75	1.25	1.00	0.75	1.00	-0.599609	0.601562	1.594727	24.780001	-289.940002	113.050003	155.00	0.02	-0.08
3.22	0.00	0.00	0.00	0.25	1.25	5.75	0.00	6.50	9.25	12.75	13.00	11.75	11.75	10.50	4.00	7.25	-0.378906	0.189941	0.978027	23.030001	136.779999	-7.910000	1053.00	0.20	-0.12	1.50	1.00	1.00	1.25	0.50	1.00	0.00	0.25	1.25	0.75	0.75	0.50	1.00	0.75	0.75	0.75	-0.716309	0.561523	1.767090	42.070000	-299.600006	110.599998	146.00	-0.01	-0.06
3.23	0.00	0.00	0.00	0.00	1.00	5.00	0.00	5.75	9.50	13.00	13.25	11.75	11.25	11.75	5.00	7.75	-0.426270	0.154297	1.094727	19.809999	146.229996	-7.770000	1057.00	0.21	-0.11	1.25	1.00	1.00	0.75	0.25	1.00	0.00	0.25	1.25	0.75	0.75	0.75	0.75	1.00	1.00	0.75	-0.787598	0.550781	1.877441	50.820000	-302.190002	109.480003	140.00	0.03	-0.06
3.24	0.00	0.00	0.00	0.00	1.00	4.50	0.00	5.25	9.75	13.25	13.25	11.50	10.75	13.25	5.25	7.75	-0.450684	0.182129	1.042969	18.340000	154.419998	-7.280000	1058.00	0.22	-0.10	1.00	0.75	0.75	1.00	0.50	1.00	0.00	0.25	1.50	1.00	0.75	0.75	1.00	0.75	0.75	0.75	-0.861328	0.534668	1.999023	58.869999	-304.500000	109.690002	142.00	0.04	-0.06
3.25	0.00	0.00	0.00	0.00	1.00	3.50	0.00	4.75	10.00	13.25	13.25	11.25	10.25	14.50	5.75	8.00	-0.431641	0.214844	1.036621	17.010000	164.639999	-8.610000	1053.00	0.23	-0.09	0.75	0.75	0.50	0.50	0.25	1.00	0.00	0.00	1.25	1.00	0.50	0.50	0.75	1.00	1.00	0.50	-0.958496	0.533691	2.087402	62.790001	-304.989990	111.160004	115.00	0.07	-0.04
3.26	0.00	0.00	0.00	0.25	0.75	2.25	0.00	3.50	10.00	13.25	13.00	11.25	9.50	15.50	6.00	8.50	-0.447266	0.243164	1.009766	15.680000	178.220001	-12.670000	1022.00	0.24	-0.07	1.25	1.25	0.75	0.75	0.50	1.00	0.00	0.25	1.25	1.00	0.50	0.50	0.50	0.50	0.50	0.25	-1.142578	0.602051	2.174805	59.920002	-301.630005	114.940002	124.00	-0.03	-0.04
3.27	0.00	0.00	0.00	0.00	0.75	2.75	0.00	2.75	10.25	13.25	13.00	11.00	8.75	16.50	6.25	8.25	-0.495605	0.240234	1.034668	12.810000	194.949997	-18.129999	1017.00	0.25	-0.06	0.00	0.00	0.00	0.00	0.00	0.00	0.00	0.00	0.00	0.00	0.00	0.00	0.00	0.00	0.00	0.00	-1.371582	0.633301	2.190430	52.150002	-295.540009	122.360001	0.00	0.00	0.00
3.28	0.00	0.00	0.00	0.00	0.75	2.00	0.00	2.25	10.25	13.25	12.75	10.50	8.00	17.25	6.25	8.50	-0.550293	0.235840	1.042480	10.710000	233.029999	-28.700001	992.00	0.25	-0.05	0.00	0.00	0.00	0.00	0.00	0.00	0.00	0.00	0.00	0.00	0.00	0.00	0.00	0.00	0.00	0.00	-1.645996	0.621094	2.190918	46.130001	-286.790009	131.949997	0.00	0.00	0.00
3.29	0.00	0.00	0.50	0.00	1.00	1.25	0.00	1.75	10.00	13.00	12.50	10.25	7.50	18.00	6.25	8.50	-0.585938	0.211914	1.010254	11.550000	253.540009	-32.410000	974.00	0.26	-0.04	0.00	0.00	0.00	0.00	0.00	0.00	0.00	0.00	0.00	0.00	0.00	0.00	0.00	0.00	0.00	0.00	-1.941895	0.530762	2.131836	41.160000	-276.570007	141.960007	0.00	0.00	0.00
3.30	0.00	0.00	0.00	0.00	0.75	1.25	0.00	1.25	10.25	12.75	12.25	10.00	6.75	18.25	6.25	8.50	-0.640137	0.177246	1.036621	13.300000	278.250000	-32.619999	947.00	0.27	-0.04	0.00	0.00	0.00	0.00	0.00	0.00	0.00	0.00	0.00	0.00	0.00	0.00	0.00	0.00	0.00	0.00	-2.262695	0.415527	2.028320	32.619999	-266.209991	149.380005	0.00	0.00	0.00
3.31	0.00	0.00	0.00	0.00	0.75	0.25	0.00	1.25	9.75	12.50	12.00	9.75	6.25	18.25	6.25	8.50	-0.676758	0.269531	1.056641	13.370000	306.670013	-34.230000	915.00	0.27	-0.03	0.00	0.00	0.00	0.00	0.00	0.00	0.00	0.00	0.00	0.00	0.00	0.00	0.00	0.00	0.00	0.00	-2.556152	0.322266	1.816895	18.900000	-257.880005	151.899994	0.00	0.00	0.00
3.32	0.25	0.00	0.00	0.00	0.75	0.50	0.00	1.25	9.75	12.25	11.75	9.25	6.00	17.75	6.00	8.25	-0.821289	0.314453	1.133301	11.760000	338.869995	-38.990002	898.00	0.27	-0.03	0.00	0.00	0.00	0.00	0.00	0.00	0.00	0.00	0.00	0.00	0.00	0.00	0.00	0.00	0.00	0.00	-2.815430	0.229492	1.504395	2.380000	-252.210007	147.139999	0.00	0.00	0.00
3.33	0.00	0.00	0.00	0.00	0.50	0.00	0.00	1.00	9.25	11.75	11.25	9.00	5.75	17.00	5.50	8.00	-0.970703	0.434570	1.163574	13.230000	370.299988	-45.009998	844.00	0.28	-0.03	0.00	0.00	0.00	0.00	0.00	0.00	0.00	0.00	0.00	0.00	0.00	0.00	0.00	0.00	0.00	0.00	-3.107422	0.103516	1.130371	-9.730000	-247.240005	131.320007	0.00	0.00	0.00
3.34	0.00	0.00	0.00	0.00	0.25	0.00	0.00	0.75	9.00	11.25	11.00	9.00	6.25	15.75	4.50	7.25	-1.288086	0.652344	1.296875	25.549999	398.720001	-48.509998	802.00	0.27	-0.03	0.00	0.00	0.00	0.00	0.00	0.00	0.00	0.00	0.50	0.50	0.00	0.25	0.25	0.75	0.75	0.50	-4.406738	-0.620117	0.071777	40.599998	-233.660004	66.080002	37.00	0.00	0.00
3.35	0.00	0.00	0.00	0.00	0.00	0.00	0.25	0.50	8.25	10.50	10.25	8.50	6.25	14.25	3.50	6.75	-1.633789	0.757324	1.862305	52.500000	422.239990	-50.330002	737.00	0.27	-0.03	1.25	0.75	1.00	0.75	0.25	0.75	0.00	0.25	1.50	1.00	0.50	0.50	0.50	1.00	0.50	0.75	-4.854004	-1.237305	-0.746582	65.029999	-212.660004	20.090000	127.00	0.02	-0.02
3.36	0.00	0.00	0.00	0.00	0.00	0.00	0.00	0.25	7.75	9.75	9.75	8.00	5.75	13.25	2.00	6.00	-1.884766	0.498047	2.288574	66.080002	433.580017	-57.680000	666.00	0.27	-0.03	1.00	0.75	1.00	1.00	0.25	1.00	0.25	0.25	1.25	1.25	0.50	0.50	0.75	0.75	0.75	0.25	-4.560547	-1.574219	-1.433105	51.450001	-154.910004	-29.960001	134.00	0.02	-0.04
3.37	0.00	0.00	0.00	0.00	0.00	0.00	0.00	0.00	7.00	8.75	8.75	7.50	5.50	12.25	1.75	5.75	-2.087402	0.362305	2.260254	47.529999	427.350006	-71.889999	606.00	0.27	-0.03	1.00	0.75	0.75	0.50	0.25	0.75	0.25	0.25	1.25	0.75	0.50	0.75	0.50	1.00	0.75	0.50	-3.824219	-1.326172	-1.565918	-1.330000	-60.830002	-74.129997	121.00	0.05	-0.03
3.38	0.00	0.00	0.00	0.00	0.00	0.00	0.00	0.00	5.75	8.00	8.00	6.75	4.50	10.75	1.00	5.25	-2.101074	0.540039	2.310059	25.900000	412.649994	-84.070000	528.00	0.27	-0.03	0.75	0.75	0.75	0.75	0.25	0.75	0.00	0.25	1.25	0.50	0.50	0.50	0.50	0.75	1.00	0.25	-3.182617	-0.537109	-0.995117	-54.950001	40.040001	-100.660004	110.00	0.04	-0.04
3.39	0.00	0.00	0.00	0.00	0.00	0.00	0.00	0.00	5.00	6.75	7.00	5.50	3.50	9.25	0.75	4.25	-1.833008	0.860840	2.370605	23.450001	397.950012	-88.059998	445.00	0.27	-0.03	0.00	0.00	0.00	0.00	0.00	0.00	0.00	0.00	1.25	0.75	0.50	0.50	1.00	0.75	1.00	0.50	-2.706055	0.256348	-0.138672	-62.790001	113.190002	-101.430000	69.00	0.28	-0.03
3.40	0.00	0.00	0.00	0.00	0.00	0.00	0.00	0.00	3.00	5.50	5.50	4.50	2.25	7.75	0.50	2.75	-1.506836	1.071777	2.513184	43.189999	376.950012	-87.919998	336.00	0.28	-0.03	1.25	0.75	0.25	0.25	0.00	0.00	0.00	0.00	0.00	0.00	0.00	0.00	0.00	0.00	0.00	0.00	-2.278809	0.632324	0.595703	-29.820000	142.869995	-82.879997	28.00	0.00	0.00
3.41	0.00	0.00	0.00	0.00	0.00	0.00	0.00	0.00	2.25	4.25	4.25	3.25	1.25	6.00	0.00	1.25	-0.890625	1.088379	2.614746	79.379997	351.610016	-85.260002	242.00	0.27	-0.01	0.00	0.00	0.00	0.00	0.00	0.00	0.00	0.00	0.00	0.00	0.00	0.00	0.00	0.00	0.00	0.00	-1.898926	0.584961	0.957031	5.320000	135.589996	-55.439999	0.00	0.00	0.00
3.42	0.00	0.00	0.00	0.00	0.00	0.00	0.00	0.00	1.75	3.00	2.75	1.75	0.75	3.00	0.50	1.25	-0.251953	1.042480	2.736328	128.729996	332.709991	-88.059998	159.00	0.27	-0.01	0.25	0.50	0.00	0.00	0.00	0.00	0.00	0.00	0.00	0.00	0.00	0.00	0.00	0.00	0.00	0.00	10.119629	5.042480	1.929199	12.250000	113.680000	-27.790001	8.00	0.00	0.00
3.43	0.00	0.00	0.00	0.00	0.00	0.00	0.00	0.00	1.25	2.00	2.00	1.50	0.25	0.75	0.25	0.50	1.532715	1.039551	2.748047	261.380005	298.269989	-101.919998	96.00	0.25	-0.03	1.75	2.25	0.25	0.75	0.50	1.00	0.00	0.00	0.00	0.00	0.00	0.50	1.25	1.00	0.75	0.00	2.791504	-1.064941	0.635254	-75.529999	70.209999	13.790000	108.00	-0.12	-0.12
3.44	0.00	0.00	0.00	0.00	0.00	0.00	0.00	0.00	0.50	2.00	2.25	1.00	0.00	0.25	0.00	0.50	1.094727	1.223145	2.616211	237.720001	237.300003	-79.099998	72.00	0.24	-0.05	5.75	7.50	2.25	3.50	0.75	0.75	0.00	0.00	0.75	0.50	0.25	0.00	0.00	0.00	0.75	0.50	-0.725098	-0.031250	-1.007324	-79.169998	169.190002	-10.920000	259.00	-0.27	-0.05
3.45	0.00	0.00	0.00	0.00	0.00	0.00	0.00	0.00	0.25	1.50	1.75	0.75	0.00	0.00	0.25	0.50	1.066895	1.290039	3.420898	149.800003	93.870003	-27.299999	55.00	0.25	-0.07	6.25	9.25	2.00	4.25	0.75	1.00	0.00	0.00	0.00	0.00	0.00	0.00	0.00	0.00	0.00	0.00	0.023926	-0.947266	-0.010742	-95.970001	277.760010	-44.170002	260.00	-0.35	-0.08
3.46	0.00	0.00	0.00	0.00	0.00	0.00	0.00	0.00	0.00	1.25	1.25	0.50	0.00	0.00	0.25	0.50	0.934570	0.491699	2.286133	34.580002	-26.040001	29.330000	40.00	0.00	0.00	7.25	11.25	1.25	4.00	0.00	0.00	0.00	0.00	0.00	0.00	0.00	0.25	0.50	0.00	0.00	0.00	-1.110352	-0.342773	2.998047	-53.410000	233.169998	-40.389999	266.00	-0.36	-0.08
3.47	0.00	0.00	0.00	0.00	0.00	0.00	0.00	0.00	0.00	1.00	1.00	0.50	0.00	0.00	0.00	0.50	0.911133	0.179199	1.467285	-91.699997	-89.739998	57.049999	32.00	0.00	0.00	10.75	15.50	1.50	5.25	0.00	0.25	0.00	0.00	0.00	0.00	0.00	0.25	1.25	0.00	0.00	0.00	-0.601562	-0.196289	1.856445	-77.769997	177.169998	-58.380001	377.00	-0.36	-0.09
3.48	0.00	0.00	0.00	0.00	0.00	0.00	0.00	0.00	0.00	0.50	1.00	0.25	0.00	0.00	0.00	0.25	0.732422	0.315430	1.098145	-174.720001	-118.370003	60.549999	21.00	0.00	0.00	12.75	17.50	2.00	6.50	0.25	0.75	0.00	0.00	0.00	0.00	0.00	0.25	1.50	0.00	0.00	0.00	-0.586914	0.182129	1.598633	-55.020000	161.979996	-57.470001	452.00	-0.35	-0.09
3.49	0.00	0.00	0.00	0.00	0.00	0.00	0.00	0.00	0.00	0.50	1.00	0.25	0.00	0.00	0.00	0.25	0.627441	0.482422	0.922363	-185.430008	-131.180008	55.650002	21.00	0.00	0.00	15.00	19.00	2.25	7.25	0.50	1.00	0.00	0.00	0.00	0.00	0.00	0.25	1.25	0.00	0.00	0.00	-0.355469	0.447754	1.126953	2.450000	156.100006	-30.170000	508.00	-0.36	-0.08
3.50	0.00	0.00	0.00	0.00	0.00	0.00	0.00	0.00	0.00	0.75	0.75	0.00	0.00	0.00	0.00	0.25	0.569824	0.551270	0.812012	-139.720001	-140.419998	49.349998	19.00	0.00	0.00	15.50	20.00	2.50	7.75	0.50	1.50	0.00	0.00	0.00	0.00	0.00	0.75	1.75	0.00	0.00	0.00	-0.297852	0.206543	1.020508	24.290001	149.380005	-14.420000	549.00	-0.34	-0.09
3.51	0.00	0.00	0.00	0.00	0.00	0.00	0.00	0.00	0.00	0.25	0.75	0.25	0.00	0.00	0.00	0.00	0.508301	0.466797	0.781738	-72.029999	-153.580002	43.119999	14.00	0.00	0.00	14.75	20.50	2.75	8.75	0.75	2.25	0.00	0.00	0.00	0.00	0.00	0.50	2.50	0.25	0.00	0.00	-0.500000	0.048340	2.753906	-11.900000	176.050003	-33.250000	579.00	-0.33	-0.10
3.52	0.00	0.00	0.00	0.00	0.00	0.00	0.00	0.00	0.00	0.00	0.00	0.00	0.00	0.00	0.00	0.00	0.423340	0.288574	0.843750	-16.309999	-172.199997	35.700001	0.00	0.00	0.00	17.00	22.00	3.75	10.25	1.50	3.50	0.00	0.25	0.00	0.00	0.25	0.50	3.00	0.25	0.00	0.00	-0.634277	0.305176	1.880371	-35.139999	45.920002	-14.210000	686.00	-0.32	-0.10
3.53	0.00	0.00	0.00	0.25	0.00	0.00	0.00	0.00	0.00	0.25	0.25	0.00	0.00	0.00	0.00	0.00	0.309570	0.136719	0.959473	10.920000	-194.180008	27.020000	9.00	0.00	0.00	16.75	22.00	4.25	11.00	1.75	4.75	0.00	0.50	0.00	0.00	0.50	0.75	3.50	0.25	0.00	0.00	-0.126953	0.109375	0.857422	-57.889999	10.430000	-4.690000	730.00	-0.30	-0.10
3.54	0.00	0.00	0.00	0.00	0.00	0.00	0.00	0.00	0.00	0.25	0.25	0.00	0.00	0.00	0.00	0.25	0.187500	0.051758	0.990723	11.130000	-218.610001	18.340000	7.00	0.00	0.00	17.50	22.50	5.00	12.25	2.25	5.00	0.00	1.00	0.00	0.25	0.50	0.75	4.50	0.75	0.00	0.00	-0.323242	0.196777	1.111328	-60.830002	-2.870000	-4.340000	802.00	-0.29	-0.11
3.55	0.00	0.00	0.00	0.00	0.00	0.00	0.00	0.00	0.00	0.25	0.25	0.00	0.00	0.00	0.00	0.00	0.044434	0.045410	0.974609	-3.080000	-243.880005	11.270000	6.00	0.00	0.00	18.50	23.50	5.25	12.75	3.00	6.00	0.00	1.25	0.00	0.50	0.75	0.75	4.75	0.75	0.00	0.00	-0.266602	0.182129	1.023438	-52.990002	-9.310000	-3.220000	866.00	-0.28	-0.11
3.56	0.00	0.00	0.00	0.00	0.00	0.00	0.00	0.00	0.00	0.00	0.00	0.00	0.00	0.00	0.00	0.00	-0.098633	0.104492	0.953125	-17.219999	-266.279999	6.370000	0.00	0.00	0.00	18.75	23.75	5.50	13.50	3.25	6.75	0.00	1.50	0.25	0.75	0.50	1.00	5.00	0.75	0.00	0.00	-0.270508	0.157715	1.089355	-45.430000	-8.680000	-2.590000	908.00	-0.27	-0.11
3.57	0.00	0.00	0.00	0.00	0.00	0.00	0.00	0.00	0.00	0.00	0.00	0.00	0.00	0.00	0.00	0.00	-0.284668	0.210938	0.930664	-21.559999	-297.010010	6.930000	0.00	0.00	0.00	19.50	24.25	5.75	13.75	4.00	7.25	0.25	1.75	0.50	0.75	0.75	1.00	5.00	1.00	0.25	0.25	-0.253906	0.153809	0.989746	-22.049999	-2.730000	-1.120000	964.00	-0.26	-0.10
3.58	0.00	0.00	0.00	0.00	0.00	0.00	0.00	0.00	0.00	0.00	0.00	0.00	0.00	0.00	0.00	0.00	-0.364746	0.229492	0.973633	-18.480000	-311.360016	11.340000	0.00	0.00	0.00	19.25	24.50	6.25	13.75	4.50	7.50	0.25	1.50	0.75	0.75	0.75	1.00	5.00	1.00	0.25	0.00	-0.252441	0.150391	0.989258	-14.210000	-0.210000	-0.560000	977.00	-0.26	-0.10
3.59	0.00	0.00	0.00	0.00	0.00	0.00	0.00	0.00	0.00	0.00	0.00	0.00	0.00	0.00	0.00	0.00	-0.438477	0.256348	1.024414	-16.660000	-318.779999	17.080000	0.00	0.00	0.00	19.75	24.25	6.25	13.75	4.25	7.50	0.25	1.75	0.50	0.75	0.75	1.00	5.00	0.75	0.25	0.00	-0.235352	0.155762	0.962402	-9.100000	1.890000	-0.280000	975.00	-0.27	-0.10
3.60	0.00	0.00	0.00	0.00	0.00	0.00	0.00	0.00	0.00	0.00	0.00	0.00	0.00	0.00	0.00	0.00	-0.509277	0.270508	1.055176	-14.770000	-324.450012	23.450001	0.00	0.00	0.00	16.50	23.75	6.25	13.50	4.25	7.25	0.25	1.50	0.50	0.75	0.75	0.75	5.00	0.75	0.00	0.00	-0.239746	0.148438	0.969727	-5.950000	3.220000	0.140000	917.00	-0.26	-0.11
3.61	0.00	0.00	0.00	0.00	0.00	0.00	0.00	0.00	0.00	0.00	0.00	0.00	0.00	0.00	0.00	0.00	-0.572754	0.287598	1.078125	-10.080000	-328.510010	29.820000	0.00	0.00	0.00	17.25	21.75	6.25	13.25	4.25	7.00	0.00	1.50	1.50	0.75	0.50	0.75	5.00	1.00	0.25	1.00	-0.235352	0.144531	0.965332	-3.080000	3.990000	0.210000	918.00	-0.25	-0.10
3.62	0.00	0.00	0.00	0.00	0.00	0.00	0.00	0.00	0.00	0.00	0.00	0.00	0.00	0.00	0.00	0.00	-0.659668	0.299316	1.126465	-1.260000	-330.750000	35.349998	0.00	0.00	0.00	20.25	26.25	7.00	11.75	4.25	7.50	0.25	2.25	2.00	1.50	1.00	1.75	5.50	1.50	1.00	1.00	-0.234375	0.147461	0.951172	-1.470000	4.340000	0.280000	1062.00	-0.23	-0.09
3.63	0.00	0.00	0.00	0.00	0.00	0.00	0.00	0.00	0.00	0.00	0.00	0.00	0.00	0.00	0.00	0.00	-0.735352	0.297852	1.161133	11.690000	-330.540009	40.250000	0.00	0.00	0.00	16.25	22.00	6.25	12.50	4.00	7.00	0.25	1.25	0.50	1.00	0.75	1.50	4.75	0.75	0.00	0.00	-0.228027	0.147949	0.936523	-1.260000	4.130000	0.350000	884.00	-0.26	-0.11
3.64	0.00	0.00	0.00	0.00	0.00	0.00	0.00	0.00	0.00	0.00	0.00	0.00	0.00	0.00	0.00	0.00	-0.807129	0.310059	1.239746	24.500000	-328.929993	44.939999	0.00	0.00	0.00	15.50	20.75	6.25	11.75	3.75	7.50	0.00	1.25	0.75	0.75	0.75	0.50	4.25	0.50	0.00	0.00	-0.237305	0.154785	0.938965	-1.890000	3.780000	0.210000	835.00	-0.27	-0.10
3.65	0.00	0.00	0.00	0.00	0.00	0.00	0.00	0.00	0.00	0.00	0.00	0.00	0.00	0.00	0.00	0.00	-0.860840	0.350586	1.328613	31.430000	-326.690002	50.889999	0.00	0.00	0.00	14.00	19.50	5.75	11.50	4.00	6.75	0.00	1.25	0.75	0.75	0.50	0.75	4.25	0.50	0.25	0.00	-0.231934	0.150879	0.932617	-3.430000	2.940000	0.140000	793.00	-0.26	-0.11
3.66	0.00	0.00	0.00	0.00	0.00	0.00	0.00	0.00	0.00	0.00	0.00	0.00	0.00	0.00	0.00	0.00	-0.903320	0.416504	1.412598	30.450001	-325.079987	59.150002	0.00	0.00	0.00	12.25	17.75	5.50	11.00	3.75	6.75	0.25	1.50	0.50	1.50	1.00	0.75	4.25	1.50	0.00	0.00	-0.238770	0.155762	0.947266	-5.110000	2.520000	-0.070000	769.00	-0.24	-0.11
3.67	0.00	0.00	0.00	0.00	0.00	0.00	0.00	0.00	0.00	0.00	0.00	0.00	0.00	0.00	0.00	0.00	-0.966309	0.511719	1.495117	24.080000	-324.100006	70.349998	0.00	0.00	0.00	13.00	19.50	6.25	12.00	5.00	7.50	0.25	2.00	2.00	1.75	1.75	2.00	5.50	1.75	1.00	1.25	-0.235840	0.155273	0.943359	-6.580000	2.170000	-0.210000	929.00	-0.19	-0.11
3.68	0.00	0.00	0.00	0.00	0.00	0.00	0.00	0.00	0.00	0.00	0.00	0.00	0.00	0.00	0.00	0.00	-1.022461	0.620117	1.592773	17.710001	-323.540009	85.330002	0.00	0.00	0.00	13.25	19.00	6.25	12.00	4.25	7.50	0.50	2.25	2.25	2.00	1.75	0.75	4.50	0.75	0.00	0.00	-0.238281	0.153809	0.936035	-7.700000	1.890000	-0.420000	880.00	-0.22	-0.10
3.69	0.00	0.00	0.00	0.00	0.00	0.00	0.00	0.00	0.00	0.00	0.00	0.00	0.00	0.00	0.00	0.00	-1.089355	0.717285	1.723145	14.560000	-323.329987	104.019997	0.00	0.00	0.00	8.50	15.00	5.25	9.25	4.00	6.75	0.25	1.00	1.50	1.00	1.00	1.00	5.25	0.75	0.00	0.00	-0.237305	0.156738	0.937988	-9.170000	1.610000	-0.770000	684.00	-0.21	-0.11
3.70	0.00	0.00	0.00	0.00	0.00	0.00	0.00	0.00	0.00	0.00	0.00	0.00	0.00	0.00	0.00	0.00	-1.209961	0.830566	1.903809	13.370000	-323.260010	125.440002	0.00	0.00	0.00	8.00	14.00	6.00	11.25	5.50	7.50	0.50	2.50	2.50	2.25	1.75	2.25	4.75	1.75	1.50	1.25	-0.238281	0.140625	0.944824	-12.530000	0.420000	-0.980000	838.00	-0.15	-0.11
3.71	0.00	0.00	0.00	0.00	0.00	0.00	0.00	0.00	0.00	0.00	0.00	0.00	0.00	0.00	0.00	0.00	-1.381836	0.935059	2.036621	9.520000	-323.679993	149.309998	0.00	0.00	0.00	8.25	12.00	5.50	9.25	5.00	6.00	0.25	1.50	1.75	1.25	1.00	0.75	5.00	1.25	0.50	1.25	-0.231934	0.145020	0.936523	-12.880000	-0.140000	-0.980000	684.00	-0.18	-0.11
3.72	0.00	0.00	0.00	0.00	0.00	0.00	0.00	0.00	0.00	0.00	0.00	0.00	0.00	0.00	0.00	0.00	-1.905762	1.025879	2.210449	-0.560000	-322.209991	201.250000	0.00	0.00	0.00	7.25	9.50	5.00	8.50	5.00	6.25	0.25	1.50	1.25	1.50	1.25	1.25	5.25	1.25	0.25	0.50	-0.241211	0.141602	0.937988	-12.670000	-0.980000	-0.980000	635.00	-0.17	-0.11
3.73	0.00	0.00	0.00	0.00	0.00	0.00	0.00	0.00	0.00	0.00	0.00	0.00	0.00	0.00	0.00	0.00	-2.274414	1.001465	2.247559	-7.700000	-318.850006	225.050003	0.00	0.00	0.00	7.00	9.00	4.75	8.50	4.75	6.25	0.25	1.50	1.25	1.25	1.50	1.25	5.50	0.75	0.25	0.25	-0.237793	0.145020	0.942383	-11.830000	-1.820000	-1.050000	617.00	-0.17	-0.12
3.74	0.00	0.00	0.00	0.00	0.00	0.00	0.00	0.00	0.00	0.00	0.00	0.00	0.00	0.00	0.00	0.00	-2.639160	0.912598	2.155273	-16.590000	-314.649994	242.759995	0.00	0.00	0.00	6.50	8.00	4.50	8.00	5.25	6.25	0.25	1.75	1.25	1.75	1.50	1.50	5.50	1.00	0.25	0.25	-0.233887	0.142090	0.950195	-10.850000	-2.730000	-1.050000	613.00	-0.15	-0.12
3.75	0.00	0.00	0.00	0.00	0.00	0.00	0.00	0.00	0.00	0.00	0.00	0.00	0.00	0.00	0.00	0.00	-3.026855	0.806152	1.911133	-21.559999	-308.070007	251.020004	0.00	0.00	0.00	6.25	7.25	4.75	8.00	5.75	6.50	0.75	3.00	3.25	3.25	3.00	3.00	7.25	2.50	1.50	2.00	-0.231445	0.139160	0.946289	-10.220000	-3.570000	-0.980000	779.00	-0.07	-0.11
3.76	0.00	0.00	0.00	0.00	0.00	0.00	0.00	0.00	0.00	0.00	0.00	0.00	0.00	0.00	0.00	0.00	-3.372559	0.645020	1.514648	-21.139999	-296.170013	247.800003	0.00	0.00	0.00	7.00	8.25	5.75	9.00	6.50	6.25	0.25	2.00	2.75	3.25	3.25	2.50	7.50	2.75	1.75	2.00	-0.240234	0.140137	0.947266	-9.730000	-4.200000	-1.120000	801.00	-0.09	-0.10
3.77	0.00	0.00	0.00	0.00	0.00	0.00	0.00	0.00	0.00	0.00	0.00	0.00	0.00	0.00	0.00	0.00	-3.672852	0.466309	1.098145	-17.639999	-276.989990	229.669998	0.00	0.00	0.00	6.00	7.75	5.25	8.00	6.25	7.00	0.50	3.25	2.75	2.75	2.50	3.50	6.50	1.50	1.00	2.00	-0.227539	0.130371	0.957031	-9.030000	-4.620000	-1.190000	765.00	-0.09	-0.12
3.78	0.00	0.00	0.00	0.00	0.00	0.00	0.00	0.00	0.00	0.00	0.00	0.00	0.00	0.00	0.00	0.00	-4.628906	0.203613	0.574219	2.100000	-264.600006	198.729996	0.00	0.00	0.00	5.50	5.75	5.25	8.25	6.50	7.50	0.50	3.00	4.25	3.75	4.25	4.25	8.50	3.00	1.75	2.50	-0.233887	0.130859	0.962891	-8.330000	-5.040000	-1.120000	852.00	-0.04	-0.11
3.79	0.00	0.00	0.00	0.00	0.00	0.00	0.00	0.00	0.00	0.00	0.00	0.00	0.00	0.00	0.00	0.00	-5.958984	-0.396973	-0.709473	38.990002	-267.820007	145.250000	0.00	0.00	0.00	6.00	6.00	4.00	6.75	6.75	6.50	0.50	3.00	3.00	4.00	4.00	3.75	8.00	2.00	0.50	2.50	-0.230957	0.134766	0.954590	-7.630000	-4.760000	-1.260000	767.00	-0.05	-0.12
3.80	0.00	0.00	0.00	0.00	0.00	0.00	0.00	0.00	0.00	0.00	0.00	0.00	0.00	0.00	0.00	0.00	-6.405273	-1.096680	-2.104004	101.570000	-236.389999	57.400002	0.00	0.00	0.00	5.75	6.00	5.00	7.50	7.75	7.75	0.75	4.00	4.50	4.75	6.50	5.00	9.00	4.00	2.25	2.75	-0.234375	0.134277	0.953125	-7.140000	-4.410000	-1.050000	955.00	-0.02	-0.11
3.81	0.00	0.00	0.00	0.00	0.00	0.00	0.00	0.00	0.00	0.00	0.00	0.00	0.00	0.00	0.00	0.00	-5.186035	-1.598633	-2.769043	140.139999	-129.430008	-51.029999	0.00	0.00	0.00	5.75	5.50	5.00	7.25	7.75	7.50	0.75	4.25	5.00	5.50	7.50	6.25	9.50	4.25	2.50	3.25	-0.232910	0.129395	0.957031	-5.180000	-3.290000	-0.910000	1003.00	0.00	-0.11
3.82	0.50	0.25	0.00	0.25	0.00	0.00	0.00	0.00	0.00	0.00	0.00	0.00	0.00	0.00	0.00	0.00	-5.210938	-2.781738	-3.905273	54.670002	116.480003	-132.160004	11.00	0.00	0.00	5.25	5.25	5.00	6.75	8.00	7.50	0.50	5.00	5.00	6.75	7.75	7.00	9.75	4.75	2.75	4.00	-0.231445	0.132812	0.954102	-4.200000	-2.590000	-1.050000	1040.00	0.02	-0.11
