# time	left pressure 1[N/cm²]	left pressure 2[N/cm²]	left pressure 3[N/cm²]	left pressure 4[N/cm²]	left pressure 5[N/cm²]	left pressure 6[N/cm²]	left pressure 7[N/cm²]	left pressure 8[N/cm²]	left pressure 9[N/cm²]	left pressure 10[N/cm²]	left pressure 11[N/cm²]	left pressure 12[N/cm²]	left pressure 13[N/cm²]	left pressure 14[N/cm²]	left pressure 15[N/cm²]	left pressure 16[N/cm²]	left acceleration X[g]	left acceleration Y[g]	left acceleration Z[g]	left angular X[dps]	left angular Y[dps]	left angular Z[dps]	left total force[N]	left center of pressure X[%]	left center of pressure Y[%]	right pressure 1[N/cm²]	right pressure 2[N/cm²]	right pressure 3[N/cm²]	right pressure 4[N/cm²]	right pressure 5[N/cm²]	right pressure 6[N/cm²]	right pressure 7[N/cm²]	right pressure 8[N/cm²]	right pressure 9[N/cm²]	right pressure 10[N/cm²]	right pressure 11[N/cm²]	right pressure 12[N/cm²]	right pressure 13[N/cm²]	right pressure 14[N/cm²]	right pressure 15[N/cm²]	right pressure 16[N/cm²]	right acceleration X[g]	right acceleration Y[g]	right acceleration Z[g]	right angular X[dps]	right angular Y[dps]	right angular Z[dps]	right total force[N]	right center of pressure X[%]	right center of pressure Y[%]
0.00	1.50	1.00	2.50	1.25	1.00	3.00	1.25	3.75	6.00	6.00	2.25	1.25	5.50	7.25	2.50	1.00	-0.216309	0.057129	0.943359	-2.310000	1.260000	0.630000	602.00	0.12	-0.04																									
0.01	1.50	0.75	2.50	0.75	1.00	2.50	1.25	3.75	6.25	6.00	2.00	1.25	5.25	7.25	2.75	0.75	-0.215332	0.050293	0.945312	-2.310000	1.330000	0.700000	586.00	0.13	-0.03																									
0.02	1.75	0.75	2.50	1.00	1.00	2.75	1.25	3.75	6.25	6.00	2.25	1.25	5.25	7.00	2.50	0.75	-0.220703	0.050781	0.952148	-2.310000	1.400000	0.700000	593.00	0.13	-0.04																									
0.03	1.50	0.75	2.50	1.00	1.00	1.50	1.25	3.75	6.25	6.00	2.25	1.25	5.50	7.00	3.00	0.75	-0.220215	0.049316	0.947266	-2.660000	1.400000	0.700000	583.00	0.14	-0.03																									
0.04	1.75	0.75	2.75	1.50	1.00	3.25	1.25	4.00	6.25	6.00	2.25	1.25	5.25	7.00	2.75	0.50	-0.220703	0.049805	0.948242	-2.800000	1.400000	0.630000	616.00	0.12	-0.04	1.50	0.25	1.50	0.50	1.75	2.25	1.50	2.75	7.00	2.25	1.25	1.25	4.00	5.00	1.25	0.25	-0.181152	0.042969	0.953125	-1.750000	-7.700000	3.500000	455.00	0.12	-0.01
0.05	1.50	0.75	2.50	1.00	1.00	2.75	1.25	3.75	6.50	6.00	2.00	1.50	5.25	7.00	2.75	1.00	-0.220703	0.049805	0.948242	-2.800000	1.400000	0.630000	599.00	0.13	-0.04	1.50	0.25	1.50	0.50	2.00	2.25	1.50	2.75	7.25	2.00	1.25	1.25	4.00	5.00	1.50	0.25	-0.181152	0.043945	0.952148	-1.750000	-7.770000	3.500000	462.00	0.12	-0.01
0.06	2.00	0.75	2.50	0.75	1.00	2.25	1.25	3.50	6.50	6.00	2.25	1.25	5.25	7.00	2.75	0.75	-0.212402	0.050293	0.948242	-2.800000	1.400000	0.630000	589.00	0.13	-0.03																									
0.07	1.50	0.50	2.50	0.75	1.00	2.50	1.25	3.50	6.50	6.00	2.25	1.25	5.25	7.25	2.50	0.75	-0.219727	0.050781	0.954590	-2.450000	1.540000	0.490000	583.00	0.14	-0.03	1.50	0.25	1.50	0.75	2.00	2.25	1.50	2.75	7.25	2.25	1.25	1.25	4.00	5.00	1.25	0.25	-0.183105	0.044434	0.952637	-1.890000	-7.630000	3.360000	465.00	0.12	-0.01
0.08	1.50	0.75	2.50	1.00	1.00	2.25	1.25	3.75	6.50	6.00	2.50	1.25	5.00	7.25	2.75	1.00	-0.219238	0.048340	0.945801	-2.450000	1.680000	0.490000	595.00	0.14	-0.03	2.00	0.25	1.50	0.50	1.75	2.50	1.50	3.00	7.25	2.25	1.25	1.25	4.00	5.00	1.00	0.50	-0.183594	0.043457	0.944824	-2.590000	-6.650000	3.220000	471.00	0.11	-0.01
0.09	1.50	0.50	2.50	1.00	1.00	2.50	1.50	3.50	6.50	6.50	2.25	1.25	5.25	7.25	2.50	0.75	-0.219727	0.055176	0.940918	-2.380000	1.680000	0.630000	597.00	0.14	-0.03	1.75	0.25	1.50	0.50	2.00	2.50	1.50	2.75	7.25	2.25	1.50	1.25	4.25	5.25	1.00	0.25	-0.180176	0.043945	0.944336	-2.730000	-6.370000	3.080000	474.00	0.12	-0.01
0.10	1.50	0.75	2.50	1.25	1.25	2.25	1.25	3.50	6.75	6.25	2.25	1.25	5.25	7.50	3.00	0.75	-0.221680	0.051270	0.948242	-2.310000	1.890000	0.630000	608.00	0.14	-0.03	1.75	0.25	1.50	0.75	1.75	2.25	1.50	2.75	7.50	2.25	1.50	1.25	4.00	5.00	1.25	0.50	-0.180176	0.039551	0.946289	-2.730000	-6.370000	3.080000	474.00	0.12	-0.01
0.11	1.75	0.75	2.25	1.00	1.00	2.75	1.50	3.50	6.75	6.50	2.25	1.50	5.25	7.50	2.75	1.00	-0.215332	0.053223	0.949707	-2.310000	1.890000	0.560000	617.00	0.14	-0.03	1.50	0.25	1.75	0.75	1.50	2.25	1.50	3.00	7.25	2.25	1.25	1.25	4.25	5.25	1.25	0.25	-0.181641	0.043457	0.948730	-2.730000	-6.300000	2.870000	472.00	0.12	-0.01
0.12	1.50	0.75	2.50	1.00	1.00	2.25	1.50	3.50	6.75	6.50	2.50	1.25	5.50	7.50	2.75	1.00	-0.213379	0.054199	0.955078	-2.450000	2.170000	0.560000	613.00	0.14	-0.03	1.00	0.25	1.50	0.50	2.00	2.25	1.50	2.75	7.25	2.25	1.50	1.00	4.00	5.25	1.00	0.25	-0.180176	0.042969	0.950684	-2.730000	-6.230000	2.940000	455.00	0.13	-0.00
0.13	1.50	0.75	2.25	1.00	1.00	2.00	1.25	3.75	6.50	6.50	2.50	1.25	5.75	7.75	3.00	0.75	-0.217285	0.049805	0.954102	-2.380000	2.170000	0.350000	609.00	0.14	-0.03	1.75	0.25	1.50	0.50	1.75	2.25	1.50	2.75	7.25	2.25	1.25	1.25	4.00	5.25	1.00	0.50	-0.179688	0.044434	0.946777	-2.730000	-6.090000	2.870000	463.00	0.12	-0.01
0.14	1.50	1.00	2.25	0.75	1.00	2.00	1.50	3.50	6.75	6.25	2.25	1.50	5.50	7.50	2.50	0.75	-0.222168	0.057129	0.952637	-2.380000	2.240000	0.420000	598.00	0.14	-0.03	1.75	0.25	1.50	0.50	1.75	2.50	1.50	2.75	7.50	2.25	1.50	1.25	4.00	5.00	1.25	0.50	-0.185059	0.034180	0.953125	-2.520000	-6.230000	3.010000	474.00	0.12	-0.01
0.15	1.50	0.50	2.25	0.75	1.00	2.00	1.50	3.50	6.75	6.25	2.50	1.50	5.25	7.75	3.00	0.75	-0.221191	0.050781	0.950195	-2.520000	2.450000	0.560000	602.00	0.15	-0.02	1.75	0.25	1.50	0.50	1.75	2.50	1.50	2.75	7.25	2.25	1.25	1.25	4.25	5.00	1.50	0.50	-0.185059	0.041992	0.945801	-2.450000	-6.300000	3.010000	473.00	0.12	-0.01
0.16	1.50	1.00	2.50	1.00	1.25	2.25	1.50	3.75	6.50	6.50	2.25	1.25	5.25	7.75	2.75	1.00	-0.227539	0.055176	0.950684	-2.660000	2.450000	0.490000	617.00	0.13	-0.03	1.75	0.25	1.75	0.50	1.75	2.25	1.50	2.75	7.25	2.25	1.50	1.00	4.25	5.00	1.00	0.50	-0.179199	0.040527	0.950684	-2.450000	-6.370000	3.010000	466.00	0.11	-0.01
0.17	1.75	0.75	2.00	1.00	1.00	2.25	1.50	3.50	6.75	6.50	2.25	1.25	5.50	7.75	2.75	1.00	-0.221680	0.052734	0.948730	-2.590000	2.100000	0.630000	609.00	0.14	-0.03	1.25	0.25	1.50	0.50	1.75	2.25	1.50	2.75	7.50	2.50	1.25	1.25	4.00	5.00	1.25	0.25	-0.182617	0.042969	0.948730	-2.380000	-6.440000	3.010000	463.00	0.13	-0.00
0.18	1.50	0.75	2.25	1.00	1.00	2.00	1.50	3.75	7.00	6.50	2.25	1.25	5.25	7.75	3.00	0.75	-0.219238	0.048828	0.950684	-2.520000	2.100000	0.420000	613.00	0.14	-0.02	1.50	0.25	1.25	0.50	1.75	2.25	1.50	2.75	7.50	2.50	1.50	1.25	4.00	5.25	1.00	0.50	-0.181152	0.046875	0.944336	-2.450000	-6.510000	3.080000	467.00	0.13	-0.00
0.19	1.50	0.75	2.25	0.25	0.75	2.25	1.50	3.50	6.75	6.50	2.25	1.50	5.50	7.75	3.00	0.75	-0.221191	0.050293	0.951172	-2.450000	1.960000	0.490000	601.00	0.15	-0.02	1.50	0.25	1.50	0.50	1.75	2.25	1.50	2.75	7.50	2.25	1.25	1.25	4.25	5.00	1.25	0.50	-0.187500	0.040527	0.951172	-2.380000	-6.650000	3.080000	467.00	0.12	-0.01
0.20	1.50	0.75	2.00	1.00	1.00	2.50	1.25	3.50	6.75	6.50	2.25	1.25	5.50	8.00	2.75	0.75	-0.221191	0.042969	0.947754	-2.450000	1.750000	0.560000	606.00	0.14	-0.03	1.50	0.25	1.25	0.25	1.75	2.25	1.50	2.75	7.50	2.25	1.50	1.00	4.25	5.25	1.00	0.25	-0.186035	0.039551	0.943848	-2.240000	-6.580000	3.010000	458.00	0.13	-0.00
0.21	1.50	0.25	2.25	1.00	1.00	2.25	1.50	3.75	6.75	6.50	2.25	1.25	5.25	8.00	2.75	0.75	-0.222168	0.052246	0.948730	-2.380000	1.470000	0.770000	607.00	0.15	-0.02	1.50	0.25	1.75	0.75	1.75	2.25	1.50	2.75	7.50	2.50	1.25	1.25	4.00	5.25	1.50	0.50	-0.183105	0.040039	0.952637	-2.240000	-6.720000	3.150000	480.00	0.12	-0.01
0.22	1.50	0.75	2.00	0.75	1.00	2.00	1.50	3.50	6.75	6.50	2.25	1.25	5.50	7.75	3.00	0.75	-0.225098	0.046875	0.951172	-2.310000	1.330000	0.910000	601.00	0.15	-0.02	1.50	0.25	1.50	0.75	1.75	2.25	1.50	2.75	7.50	2.50	1.50	1.25	4.25	5.25	1.50	0.50	-0.187988	0.043457	0.944824	-2.310000	-6.790000	3.220000	482.00	0.13	-0.01
0.23	1.25	0.50	2.25	1.00	1.00	2.25	1.50	3.50	7.00	6.75	2.50	1.25	5.25	8.00	2.75	1.00	-0.219727	0.048340	0.958496	-2.380000	1.190000	0.770000	613.00	0.15	-0.02	1.50	0.25	1.50	0.25	1.75	2.25	1.50	3.00	7.50	2.25	1.50	1.50	4.00	5.25	1.25	0.50	-0.184082	0.037109	0.954102	-2.380000	-6.860000	3.150000	475.00	0.13	-0.01
0.24	1.50	0.75	2.25	0.75	1.00	2.00	1.50	3.25	7.00	6.50	2.25	1.25	5.50	8.00	2.75	0.75	-0.223633	0.050293	0.950195	-2.450000	1.190000	0.770000	603.00	0.15	-0.02	1.25	0.25	1.25	0.50	1.75	2.50	1.50	3.00	7.50	2.25	1.50	1.00	4.25	5.00	1.25	0.50	-0.182129	0.041016	0.954102	-2.380000	-6.860000	3.220000	468.00	0.13	-0.01
0.25	1.25	0.50	2.25	0.50	0.75	2.00	1.50	3.50	7.25	6.50	2.25	1.50	5.50	8.00	3.00	0.50	-0.223145	0.047363	0.952148	-2.450000	1.260000	0.700000	604.00	0.16	-0.02	1.50	0.25	1.50	0.25	1.75	2.50	1.50	3.00	7.50	2.25	1.50	1.25	4.25	5.25	1.25	0.50	-0.181641	0.053223	0.955078	-2.240000	-6.860000	3.220000	477.00	0.13	-0.01
0.26	1.50	0.50	2.25	0.75	1.00	2.00	1.50	3.75	7.00	6.75	2.25	1.50	5.00	8.00	3.00	1.00	-0.228027	0.043457	0.953125	-2.450000	1.470000	0.560000	615.00	0.15	-0.02	1.25	0.25	1.50	0.75	1.75	2.25	1.50	3.00	7.50	2.50	1.50	1.25	4.25	5.25	1.25	0.50	-0.187500	0.047363	0.951172	-2.030000	-7.140000	3.220000	481.00	0.13	-0.01
0.27	1.50	0.75	2.00	1.00	1.00	2.25	1.50	3.50	7.25	6.50	2.50	1.25	5.25	8.00	3.00	0.50	-0.217773	0.052246	0.946777	-2.450000	1.680000	0.630000	617.00	0.15	-0.02	1.50	0.25	1.50	0.50	1.75	2.25	1.50	3.00	7.50	2.25	1.50	1.25	4.25	5.25	1.50	0.25	-0.181641	0.044922	0.957520	-2.030000	-7.140000	3.220000	479.00	0.13	-0.01
0.28	1.75	1.00	2.00	0.50	1.00	2.50	1.50	3.75	7.00	6.75	2.25	1.25	5.50	7.75	3.00	1.00	-0.216797	0.051270	0.951172	-2.310000	1.540000	0.630000	623.00	0.14	-0.03	1.50	0.25	1.25	0.50	1.75	2.25	1.50	3.25	7.50	2.50	1.50	1.50	4.50	5.25	1.25	0.50	-0.179688	0.040527	0.950195	-1.890000	-7.140000	3.290000	487.00	0.13	-0.02
0.29	2.00	1.00	2.00	1.00	1.00	2.75	1.50	3.25	7.00	6.75	2.25	1.25	5.50	8.00	3.00	0.50	-0.217285	0.053223	0.950684	-2.310000	1.680000	0.560000	626.00	0.14	-0.02	1.50	0.25	1.50	0.50	1.75	2.50	1.50	3.25	7.50	2.25	1.50	1.25	4.00	5.25	1.25	0.25	-0.184570	0.044922	0.950684	-1.890000	-7.140000	3.290000	481.00	0.12	-0.01
0.30	1.50	0.75	2.25	1.00	1.00	2.00	1.50	3.25	7.25	7.00	2.25	1.25	5.25	7.75	2.75	1.00	-0.219238	0.051758	0.942871	-2.660000	1.960000	0.420000	613.00	0.15	-0.02	1.25	0.25	1.00	0.50	1.75	2.25	1.50	3.25	7.50	2.50	1.50	1.25	4.25	5.25	1.50	0.50	-0.178223	0.042969	0.950195	-1.960000	-7.140000	3.360000	478.00	0.13	-0.02
0.31	1.50	0.75	2.50	1.00	1.00	2.25	1.50	3.50	7.00	6.75	2.25	1.25	5.25	8.00	3.00	0.75	-0.217773	0.054688	0.953613	-2.660000	1.960000	0.350000	621.00	0.14	-0.02	1.50	0.25	1.75	0.25	1.75	2.25	1.50	3.50	7.50	2.50	1.25	1.25	4.50	5.25	1.50	0.50	-0.178223	0.041016	0.945801	-1.820000	-7.070000	3.430000	492.00	0.12	-0.02
0.32	1.75	0.50	2.00	0.50	1.00	2.00	1.50	3.50	7.25	6.75	2.25	1.25	5.50	8.00	3.00	1.00	-0.223633	0.051270	0.949707	-2.590000	2.030000	0.490000	613.00	0.16	-0.02	1.50	0.25	1.25	0.50	1.75	2.50	1.50	3.50	7.50	2.25	1.75	1.00	4.25	5.25	1.25	0.50	-0.175293	0.044922	0.942871	-1.890000	-6.930000	3.360000	486.00	0.12	-0.02
0.33	1.25	1.00	2.25	0.75	1.00	2.25	1.50	3.50	7.25	6.75	2.50	1.25	5.25	8.00	3.00	1.00	-0.221191	0.045898	0.948242	-2.870000	2.240000	0.490000	623.00	0.15	-0.02	1.25	0.25	1.50	0.25	1.75	2.75	1.50	3.50	7.50	2.25	1.50	1.25	4.75	5.50	1.25	0.50	-0.182617	0.041992	0.954590	-1.960000	-6.930000	3.220000	494.00	0.13	-0.02
0.34	1.50	0.75	2.25	0.75	1.00	2.25	1.50	3.50	7.25	6.75	2.50	1.25	5.25	8.25	2.50	0.75	-0.223145	0.049805	0.952637	-2.870000	2.310000	0.350000	618.00	0.15	-0.02	1.25	0.00	1.75	0.50	1.50	2.75	1.50	3.50	7.50	2.25	1.50	1.25	4.75	5.50	1.25	0.50	-0.177246	0.051270	0.949707	-2.030000	-6.720000	3.220000	495.00	0.13	-0.03
0.35	1.50	0.50	2.25	0.75	1.00	1.75	1.50	3.25	7.50	6.75	2.25	1.50	5.25	8.00	2.75	0.75	-0.223145	0.045410	0.951660	-3.010000	2.170000	0.280000	608.00	0.16	-0.01	1.50	0.25	1.25	0.50	1.75	2.75	1.50	3.75	7.50	2.25	1.50	1.50	4.75	5.25	1.50	0.50	-0.182617	0.046387	0.944824	-2.170000	-6.230000	3.150000	505.00	0.12	-0.03
0.36	1.50	0.75	2.25	1.25	1.00	2.25	1.50	3.25	7.25	7.00	2.50	1.25	5.25	8.00	2.75	1.00	-0.217773	0.049805	0.951172	-3.010000	2.240000	0.350000	625.00	0.15	-0.02	2.00	0.25	1.25	0.25	1.75	2.50	1.50	3.50	7.50	2.50	1.75	1.25	4.50	5.50	1.50	0.50	-0.181152	0.046875	0.939941	-2.380000	-6.020000	3.080000	504.00	0.12	-0.02
0.37	1.25	0.50	2.25	0.50	1.00	2.25	1.50	3.00	7.25	6.75	2.50	1.25	5.25	8.25	2.75	0.50	-0.224609	0.050293	0.945801	-3.080000	2.240000	0.490000	601.00	0.16	-0.01	1.50	0.25	1.25	0.25	1.50	2.50	1.50	3.50	7.50	2.50	1.50	1.25	4.50	5.25	1.50	0.50	-0.181152	0.044434	0.950195	-2.310000	-5.880000	2.870000	488.00	0.13	-0.02
0.38	1.50	0.75	2.00	1.00	1.00	2.00	1.50	3.50	7.25	7.00	2.25	1.25	5.25	8.00	3.25	0.75	-0.222656	0.048828	0.947754	-2.870000	2.170000	0.420000	621.00	0.15	-0.02	0.50	0.25	1.50	0.50	1.75	2.50	1.50	3.50	7.75	2.50	1.50	1.25	4.50	5.75	1.50	0.50	-0.186523	0.041016	0.948730	-2.310000	-5.880000	2.870000	495.00	0.14	-0.02
0.39	1.25	0.75	2.00	0.50	1.00	2.00	1.50	3.25	7.25	7.00	2.25	1.25	5.25	8.00	3.00	1.00	-0.227539	0.044922	0.946777	-2.730000	2.170000	0.490000	605.00	0.16	-0.01	1.50	0.25	1.00	0.50	1.50	2.50	1.50	3.75	7.50	2.50	1.75	1.50	4.50	5.50	1.75	0.50	-0.185059	0.042969	0.952148	-2.310000	-5.880000	2.870000	505.00	0.13	-0.03
0.40	1.50	0.75	2.00	1.50	1.00	2.00	1.50	3.25	7.50	7.00	2.25	1.25	5.25	8.00	3.00	0.75	-0.226074	0.051270	0.947754	-2.660000	1.960000	0.490000	624.00	0.15	-0.02	1.50	0.25	1.25	0.50	1.50	2.50	1.50	3.75	7.50	2.25	1.50	1.25	4.75	5.50	1.50	0.75	-0.187012	0.046387	0.949707	-2.170000	-6.090000	2.940000	500.00	0.13	-0.03
0.41	1.50	0.50	2.25	0.75	1.00	2.00	1.50	3.25	7.50	6.75	2.50	1.25	5.25	8.00	2.50	1.00	-0.223633	0.048340	0.952637	-2.660000	1.820000	0.420000	610.00	0.15	-0.01	1.00	0.25	1.25	0.50	1.75	2.50	1.50	3.50	7.75	2.50	1.50	1.25	4.50	5.50	1.50	0.50	-0.187012	0.046387	0.949707	-2.170000	-6.090000	2.940000	495.00	0.13	-0.02
0.42	1.00	0.50	2.00	0.50	1.00	1.50	1.50	3.00	7.25	7.00	2.25	1.00	5.00	8.25	2.75	0.75	-0.215820	0.050293	0.951172	-2.730000	1.890000	0.560000	581.00	0.17	-0.00	1.25	0.25	1.25	0.25	1.50	2.50	1.50	3.50	7.50	2.25	1.50	1.25	4.75	5.50	1.50	0.75	-0.183105	0.048828	0.953125	-2.380000	-6.440000	3.010000	489.00	0.14	-0.03
0.43	1.25	0.50	2.00	0.75	1.00	1.50	1.50	2.50	7.50	7.00	2.25	1.00	5.25	8.25	2.75	0.75	-0.224609	0.046875	0.944336	-2.660000	1.470000	0.630000	584.00	0.17	0.00	1.00	0.00	1.25	0.25	1.50	2.50	1.50	3.75	7.50	2.50	1.75	1.50	4.50	5.50	1.25	0.50	-0.184082	0.043945	0.944336	-2.450000	-6.650000	3.080000	490.00	0.14	-0.03
0.44	1.50	0.50	1.75	0.75	1.00	2.00	1.50	2.75	7.50	7.00	2.00	1.25	5.25	8.25	3.00	0.75	-0.222656	0.047852	0.948242	-2.520000	1.400000	0.630000	598.00	0.16	-0.00	1.00	0.25	1.50	0.25	1.75	2.75	1.50	3.75	7.75	2.50	1.75	1.50	4.75	5.50	1.50	0.50	-0.182617	0.050293	0.953125	-2.380000	-6.790000	3.150000	512.00	0.13	-0.03
0.45	1.50	0.75	2.00	1.00	0.75	1.50	1.50	2.75	7.50	6.75	2.25	1.25	5.25	8.25	2.50	1.00	-0.220703	0.052246	0.953125	-2.520000	1.680000	0.560000	593.00	0.16	-0.00	1.25	0.25	1.50	0.50	1.75	2.50	1.50	3.75	7.75	2.50	1.50	1.25	5.00	5.50	1.50	0.50	-0.188477	0.040527	0.952637	-2.380000	-6.860000	3.150000	511.00	0.13	-0.03
0.46	1.50	0.75	2.25	1.00	1.00	2.00	1.50	3.25	7.50	7.00	2.25	1.25	5.50	8.50	2.75	0.75	-0.221191	0.049316	0.948242	-2.590000	1.680000	0.560000	625.00	0.15	-0.01	1.50	0.00	1.25	0.50	1.50	2.50	1.50	4.00	7.75	2.50	1.50	1.50	4.75	5.50	2.00	0.50	-0.182617	0.044922	0.951172	-2.310000	-6.930000	3.080000	517.00	0.13	-0.03
0.47	1.50	1.00	2.25	0.75	1.00	2.00	1.50	3.25	7.50	7.00	2.25	1.25	5.25	8.25	2.75	0.75	-0.223633	0.050293	0.951660	-2.590000	1.540000	0.560000	620.00	0.15	-0.01	1.25	0.00	1.25	0.25	1.50	2.50	1.50	3.75	7.75	2.50	1.75	1.50	4.75	5.50	1.50	0.75	-0.183105	0.040527	0.954102	-2.310000	-7.070000	3.220000	504.00	0.14	-0.03
0.48	1.50	1.00	2.25	0.75	1.00	1.75	1.50	2.75	7.50	7.00	2.25	1.25	5.00	8.25	2.75	1.00	-0.223145	0.046387	0.952637	-2.590000	1.540000	0.490000	606.00	0.15	-0.00	1.00	0.25	1.50	0.50	1.75	2.75	1.50	3.75	7.75	2.75	1.50	1.50	5.00	5.50	1.75	0.50	-0.187500	0.046875	0.949219	-2.170000	-6.860000	3.290000	521.00	0.13	-0.03
0.49	1.50	0.50	2.00	0.50	0.75	2.00	1.50	3.00	7.50	7.25	2.00	1.25	5.25	8.25	3.25	0.75	-0.233398	0.050293	0.958984	-2.520000	1.470000	0.630000	606.00	0.17	-0.01	1.25	0.25	1.25	0.75	1.50	2.50	1.50	3.75	7.75	2.50	1.75	1.25	4.75	5.50	1.75	0.75	-0.181152	0.041992	0.948730	-2.100000	-6.790000	3.220000	513.00	0.13	-0.03
0.50	1.25	0.75	2.00	1.00	1.00	1.50	1.50	2.75	7.50	7.00	2.25	1.25	5.25	8.25	3.25	1.00	-0.226562	0.045898	0.951172	-2.450000	1.540000	0.700000	606.00	0.16	-0.01	1.00	0.25	1.25	0.25	1.75	2.50	1.50	3.75	7.75	2.50	1.75	1.50	5.00	5.50	1.75	0.50	-0.180176	0.044922	0.949219	-2.100000	-6.930000	3.150000	511.00	0.14	-0.03
0.51	1.75	1.00	2.00	0.75	1.00	1.75	1.50	2.75	7.50	7.25	2.25	1.25	5.25	8.25	2.75	0.75	-0.222656	0.044434	0.946777	-2.520000	1.610000	0.700000	610.00	0.15	-0.00	1.25	0.25	1.50	0.75	1.75	2.50	1.50	3.75	7.75	2.50	1.50	1.50	5.00	5.50	1.50	0.75	-0.186523	0.046875	0.945312	-2.310000	-6.860000	3.080000	519.00	0.13	-0.03
0.52	1.25	0.00	2.25	0.75	0.75	1.75	1.75	2.75	7.50	7.25	2.25	1.00	5.25	8.25	2.50	0.75	-0.229980	0.047852	0.950195	-2.590000	1.750000	0.490000	591.00	0.17	0.00	1.25	0.25	1.25	0.25	1.75	2.75	1.50	4.00	7.75	2.50	1.75	1.50	5.00	5.50	1.75	0.75	-0.181152	0.049316	0.952637	-2.450000	-6.650000	3.010000	524.00	0.13	-0.04
0.53	1.25	0.25	2.00	0.75	0.75	2.00	1.50	3.25	7.50	7.25	2.25	1.25	5.00	8.50	2.75	0.50	-0.218262	0.045410	0.952148	-2.660000	1.610000	0.560000	603.00	0.17	-0.01	1.00	0.25	1.25	0.25	1.75	2.50	1.50	4.00	8.00	2.50	1.75	1.75	5.00	5.25	1.50	0.75	-0.177246	0.042480	0.948730	-2.450000	-6.720000	3.080000	519.00	0.14	-0.03
0.54	1.25	0.75	2.00	0.75	1.00	1.00	1.50	2.75	7.75	7.25	2.50	1.00	5.25	8.25	3.00	0.75	-0.224609	0.053223	0.948242	-2.800000	1.680000	0.560000	598.00	0.17	0.00	1.25	0.25	1.25	0.25	1.75	2.75	1.50	4.00	8.00	2.75	1.75	1.75	5.00	5.50	1.75	0.50	-0.177734	0.047363	0.951172	-2.450000	-6.720000	3.080000	532.00	0.13	-0.03
0.55	1.25	0.50	2.00	0.25	0.75	1.25	1.50	2.75	7.50	7.25	2.50	1.00	5.00	8.25	2.75	0.50	-0.221680	0.045898	0.953125	-2.870000	2.030000	0.490000	578.00	0.17	0.01	1.50	0.25	1.25	0.50	1.50	2.75	1.50	4.25	7.75	2.50	1.75	1.50	5.00	5.50	1.75	0.50	-0.180664	0.046387	0.947754	-2.310000	-6.720000	3.150000	530.00	0.13	-0.04
0.56	1.25	0.75	1.75	0.75	0.75	1.50	1.50	2.50	7.50	7.00	2.25	1.25	5.25	8.25	2.50	0.75	-0.223145	0.048340	0.954102	-2.800000	2.100000	0.490000	581.00	0.17	-0.00	1.00	0.25	1.25	0.25	1.75	2.75	1.50	4.25	8.00	2.75	1.75	1.50	5.00	5.75	1.75	0.75	-0.175781	0.042969	0.949707	-2.030000	-6.370000	3.150000	535.00	0.14	-0.04
0.57	1.25	0.25	1.50	0.50	0.75	1.25	1.50	3.00	7.75	7.00	2.25	1.00	5.00	8.25	3.00	0.75	-0.221191	0.048340	0.944824	-2.800000	2.380000	0.420000	579.00	0.18	0.00	1.25	0.25	1.50	0.50	1.50	2.75	1.50	4.25	8.00	2.75	1.50	1.75	5.25	5.75	1.50	0.75	-0.173828	0.053711	0.956055	-1.610000	-5.600000	2.870000	541.00	0.13	-0.04
0.58	1.00	0.25	2.00	0.00	0.75	1.50	1.50	2.75	7.50	7.25	2.25	1.00	5.00	8.50	2.50	0.75	-0.225098	0.050781	0.950195	-2.520000	2.170000	0.560000	570.00	0.18	0.01	0.75	0.00	1.25	0.50	1.75	2.75	1.50	4.25	8.00	2.50	2.00	1.50	5.25	5.75	2.00	0.75	-0.188965	0.049805	0.955566	-1.610000	-5.460000	2.660000	538.00	0.14	-0.04
0.59	1.50	0.75	1.75	0.25	0.75	1.50	1.75	2.75	7.75	7.25	2.50	1.25	5.00	8.50	2.75	0.75	-0.223633	0.041992	0.947754	-2.450000	2.030000	0.630000	599.00	0.17	0.01	1.00	0.50	1.50	0.50	1.50	2.75	1.50	4.00	8.00	2.50	1.75	1.50	5.25	5.75	1.75	0.75	-0.188965	0.044922	0.950684	-1.750000	-5.390000	2.660000	536.00	0.13	-0.04
0.60	1.25	0.00	1.75	0.50	1.00	1.75	1.50	2.50	7.50	7.25	2.50	1.00	5.00	8.25	2.75	0.75	-0.229980	0.041504	0.956055	-2.450000	2.170000	0.700000	579.00	0.18	0.01	1.00	0.25	1.00	0.50	1.50	2.50	1.50	4.00	7.75	3.00	1.75	1.75	5.25	5.75	2.00	0.75	-0.185547	0.039551	0.948730	-1.750000	-5.320000	2.730000	532.00	0.14	-0.04
0.61	1.25	0.75	1.75	0.50	1.00	1.50	1.50	2.50	7.75	7.25	2.25	1.25	5.25	8.25	3.00	0.50	-0.226562	0.046875	0.944824	-2.310000	1.890000	0.770000	592.00	0.17	0.00	1.25	0.25	1.25	0.50	1.50	2.75	1.50	4.50	7.75	2.50	1.75	1.75	5.25	6.00	2.00	0.75	-0.183594	0.047852	0.944336	-1.820000	-5.390000	2.800000	547.00	0.14	-0.04
0.62	1.25	0.75	1.75	0.75	0.75	1.50	1.50	2.75	7.50	7.25	2.25	1.25	5.25	8.50	2.75	0.75	-0.226562	0.042969	0.947266	-2.100000	1.610000	0.840000	594.00	0.17	-0.00	0.75	0.25	1.25	0.25	1.25	2.75	1.50	4.25	8.00	2.50	1.75	1.50	5.50	6.00	1.75	1.00	-0.186523	0.046875	0.954590	-1.820000	-5.740000	2.800000	531.00	0.15	-0.04
0.63	1.25	0.50	1.75	0.50	0.75	1.75	1.50	2.75	7.75	7.25	2.25	1.25	5.25	8.25	2.75	0.75	-0.224609	0.047852	0.950195	-1.960000	1.400000	0.910000	592.00	0.17	-0.00	1.00	0.00	1.00	0.50	1.50	2.50	1.50	4.50	7.75	2.75	2.00	1.50	5.50	6.00	2.00	0.75	-0.187500	0.042480	0.946777	-2.030000	-6.090000	2.870000	540.00	0.15	-0.04
0.64	0.75	0.50	2.00	0.75	0.75	1.75	1.50	2.75	7.75	7.50	2.50	1.25	5.25	8.25	3.00	0.50	-0.229492	0.048828	0.948242	-1.960000	1.260000	0.910000	601.00	0.17	-0.00	0.50	0.25	1.00	0.25	1.50	2.75	1.50	4.25	8.00	2.75	2.00	1.50	5.25	6.00	2.25	0.75	-0.183594	0.045898	0.946289	-2.240000	-6.580000	3.080000	536.00	0.15	-0.04
0.65	1.25	0.50	1.75	0.50	0.75	1.50	1.50	2.50	7.75	7.25	2.25	1.00	5.00	8.50	3.50	0.50	-0.226074	0.043945	0.948242	-2.030000	1.330000	0.980000	589.00	0.18	0.01	1.25	0.25	1.00	0.50	1.25	2.75	1.50	4.25	8.00	2.50	1.75	1.50	5.50	6.00	2.00	0.75	-0.178711	0.046875	0.944824	-2.380000	-6.930000	3.080000	539.00	0.14	-0.04
0.66	1.25	0.50	2.00	0.75	0.75	1.50	1.50	2.50	7.75	7.25	2.25	1.00	5.00	8.25	2.75	0.75	-0.220703	0.045898	0.956055	-2.030000	1.260000	0.910000	586.00	0.17	0.01	0.25	0.00	1.00	0.25	1.50	2.75	1.50	4.25	8.00	2.50	1.75	1.75	5.50	6.00	2.25	0.75	-0.187500	0.049316	0.945801	-2.520000	-7.140000	3.080000	530.00	0.16	-0.04
0.67	1.00	0.50	2.00	0.75	0.75	1.75	1.50	2.50	7.50	7.50	2.25	1.25	5.00	8.25	2.50	0.50	-0.220215	0.050781	0.949219	-1.820000	1.610000	0.770000	583.00	0.17	0.00	0.50	0.25	1.25	0.25	1.50	2.50	1.50	4.50	8.00	2.75	1.75	1.50	5.50	6.00	1.75	0.75	-0.190918	0.043945	0.956055	-2.520000	-7.210000	3.080000	534.00	0.15	-0.04
0.68	1.25	0.50	2.00	0.50	0.75	1.75	1.50	2.75	7.50	7.50	2.25	1.00	5.25	8.25	2.75	0.00	-0.229004	0.047363	0.961914	-1.750000	1.890000	0.770000	587.00	0.17	0.00	0.50	0.00	1.00	0.25	1.50	2.50	1.50	4.50	8.00	2.50	2.00	1.75	5.50	5.75	2.25	0.75	-0.191406	0.046387	0.940430	-2.450000	-7.910000	3.220000	535.00	0.16	-0.05
0.69	1.25	0.25	1.75	0.50	0.75	1.00	1.50	2.25	7.75	7.50	2.25	1.25	5.25	8.50	2.75	0.50	-0.220215	0.049316	0.951660	-1.540000	2.310000	0.770000	575.00	0.18	0.01	0.75	0.25	1.00	0.50	1.50	2.50	1.50	4.50	7.75	2.50	1.75	1.75	5.50	6.00	2.00	0.75	-0.191406	0.046387	0.940430	-2.450000	-7.910000	3.220000	536.00	0.15	-0.05
0.70	1.50	1.00	1.75	1.00	0.75	1.50	1.50	2.50	7.50	7.25	2.25	1.00	5.00	8.25	2.50	0.50	-0.234863	0.046875	0.950195	-1.190000	2.660000	0.980000	585.00	0.16	0.00	0.25	0.00	1.00	0.25	1.50	3.00	1.50	4.50	8.00	2.75	2.00	1.75	5.75	5.75	2.00	1.00	-0.186523	0.034180	0.945801	-2.030000	-8.470000	3.500000	543.00	0.16	-0.05
0.71	1.50	1.00	2.00	0.50	0.75	1.50	1.50	2.50	7.50	7.25	2.25	1.00	5.25	8.25	1.75	0.50	-0.230469	0.043945	0.957031	-0.560000	3.220000	1.120000	575.00	0.16	0.01	0.50	0.25	1.25	0.25	1.50	2.75	1.50	4.50	8.00	2.75	2.00	1.75	5.50	5.75	2.00	0.75	-0.184570	0.044434	0.949707	-0.840000	-9.590000	4.340000	544.00	0.15	-0.05
0.72	1.25	0.50	1.75	0.75	0.75	1.75	1.50	2.25	7.25	7.25	2.25	1.00	4.75	8.00	2.00	0.50	-0.232422	0.039062	0.958496	0.140000	3.990000	1.330000	557.00	0.17	0.01	0.50	0.25	1.00	0.50	1.75	3.25	1.50	5.00	8.00	2.75	2.00	1.75	5.75	5.75	1.75	1.00	-0.187012	0.044434	0.951660	-0.000000	-10.290000	4.690000	564.00	0.14	-0.06
0.73	1.50	0.50	2.00	0.50	0.75	2.00	1.50	2.25	7.25	7.00	2.00	1.00	4.75	8.00	2.25	0.25	-0.231445	0.044922	0.955566	1.120000	4.130000	1.890000	559.00	0.16	0.01	0.75	0.00	1.00	0.50	1.75	3.25	1.50	5.00	8.00	2.75	2.25	1.75	5.75	5.50	1.50	0.75	-0.185059	0.042480	0.944824	0.910000	-10.990000	5.110000	560.00	0.14	-0.06
0.74	1.50	1.25	2.00	0.50	0.75	1.75	1.25	2.25	7.00	6.75	2.00	0.75	4.25	7.75	1.50	0.00	-0.236816	0.047363	0.953613	1.820000	3.710000	2.380000	530.00	0.15	0.01	1.00	0.00	1.25	0.50	1.50	3.50	1.50	5.25	7.75	2.75	2.00	1.75	6.00	5.50	1.75	0.75	-0.175781	0.064941	0.956543	1.750000	-11.550000	5.530000	570.00	0.13	-0.06
0.75	1.50	0.75	2.25	0.50	0.75	1.25	1.25	2.25	6.75	6.50	1.75	0.75	3.75	7.50	1.75	0.00	-0.234375	0.052734	0.952637	2.520000	2.940000	3.080000	507.00	0.15	0.02	0.75	0.00	1.00	0.25	1.75	4.00	1.50	5.25	8.00	2.75	2.00	1.75	6.00	5.25	1.50	0.75	-0.175293	0.050781	0.956543	2.100000	-11.480000	5.530000	568.00	0.13	-0.07
0.76	1.50	0.75	2.25	0.00	0.75	1.75	1.25	2.25	6.50	6.25	1.50	0.75	4.00	7.25	1.25	0.00	-0.236816	0.047852	0.949707	3.290000	1.820000	3.710000	491.00	0.15	0.02	1.00	0.25	1.50	0.50	1.75	4.50	1.25	5.50	7.75	2.75	2.25	1.50	6.00	5.25	1.50	0.75	-0.176270	0.053223	0.949707	2.310000	-11.270000	5.600000	587.00	0.11	-0.07
0.77	1.75	1.00	2.50	1.00	0.75	1.25	1.00	2.00	6.00	6.00	1.25	0.50	2.50	6.75	1.00	0.00	-0.240234	0.048828	0.958984	4.200000	1.120000	4.410000	457.00	0.12	0.03	1.25	0.25	1.25	0.75	1.75	4.75	1.25	5.50	7.75	2.75	2.00	1.75	6.25	5.00	1.50	0.75	-0.183594	0.048828	0.944336	2.240000	-11.480000	5.530000	593.00	0.11	-0.08
0.78	2.25	1.25	2.25	1.25	0.75	1.25	1.00	1.50	5.75	5.50	1.25	0.50	2.00	6.50	1.00	0.00	-0.229004	0.059570	0.958008	5.180000	1.190000	4.830000	439.00	0.11	0.04	1.00	0.25	1.25	1.00	1.75	5.25	1.25	5.75	7.75	2.75	2.00	1.75	6.25	5.00	1.50	0.75	-0.185059	0.050781	0.949219	1.820000	-12.250000	5.670000	604.00	0.11	-0.08
0.79	2.25	1.25	2.50	1.25	0.75	1.75	1.00	1.50	5.25	5.00	1.00	0.25	1.75	6.25	1.00	0.00	-0.242676	0.051758	0.965332	5.530000	1.470000	4.970000	423.00	0.09	0.03	1.50	0.25	1.25	1.00	1.75	5.75	1.25	6.00	7.50	2.50	2.00	1.75	6.50	4.50	1.25	0.75	-0.181641	0.050781	0.947266	1.960000	-13.510000	5.950000	609.00	0.09	-0.09
0.80	2.25	1.50	3.00	1.50	0.75	1.25	0.75	1.25	5.00	4.75	0.75	0.25	1.50	5.25	0.50	0.00	-0.228027	0.063477	0.969727	5.460000	1.470000	4.900000	391.00	0.07	0.04	1.50	0.50	1.50	1.25	2.00	6.75	1.25	6.25	7.25	2.25	1.75	1.75	6.50	4.25	1.25	0.75	-0.194336	0.054199	0.954102	2.380000	-14.630000	6.370000	627.00	0.07	-0.10
0.81	2.75	1.50	3.00	1.50	0.75	1.50	0.75	1.00	4.00	4.25	0.50	0.00	1.00	5.25	0.50	0.00	-0.217773	0.065918	0.948730	4.760000	1.750000	4.480000	363.00	0.04	0.04	2.50	0.50	2.00	1.50	2.00	7.25	1.00	6.25	6.75	2.00	1.75	1.50	6.25	3.75	1.25	0.75	-0.187012	0.050781	0.964844	2.240000	-15.820000	6.370000	629.00	0.05	-0.11
0.82	3.00	1.50	3.75	1.25	1.00	1.75	0.75	1.00	3.50	3.25	0.50	0.00	1.25	5.00	0.50	0.00	-0.229980	0.060547	0.946777	4.200000	1.820000	3.850000	359.00	0.02	0.03	3.25	0.75	2.50	2.00	2.50	8.00	1.00	6.50	6.75	1.75	1.25	1.50	6.25	3.25	1.00	0.50	-0.190430	0.051270	0.971680	2.170000	-16.170000	6.160000	656.00	0.02	-0.11
0.83	3.25	1.75	3.75	1.75	0.75	2.00	0.75	1.25	3.50	3.25	0.25	0.00	0.50	4.75	0.50	0.00	-0.222168	0.053711	0.932129	3.570000	1.750000	3.780000	362.00	-0.00	0.03	4.00	1.25	2.75	2.75	2.25	8.50	1.00	6.50	6.00	1.50	1.00	1.25	6.00	3.25	0.75	0.50	-0.187012	0.053711	0.970703	3.150000	-15.470000	6.020000	661.00	-0.00	-0.11
0.84	3.00	1.75	4.00	1.75	0.75	1.25	0.75	0.50	2.75	3.00	0.25	0.00	0.25	4.00	0.25	0.00	-0.232422	0.049316	0.955566	3.710000	1.330000	4.550000	311.00	-0.02	0.05	5.25	1.50	3.75	3.75	2.50	8.75	0.75	6.50	5.25	1.25	0.75	1.00	6.00	2.50	0.75	0.50	-0.197754	0.048828	0.982910	5.180000	-13.580000	6.020000	679.00	-0.04	-0.12
0.85	3.50	2.00	4.25	1.75	0.75	1.25	0.50	0.25	2.50	2.50	0.25	0.00	0.00	3.75	0.25	0.00	-0.239258	0.076172	0.966309	4.480000	0.630000	5.600000	299.00	-0.05	0.05	6.00	2.25	4.25	4.50	2.50	9.25	0.50	6.50	4.25	1.00	0.50	0.50	5.50	1.75	0.50	0.25	-0.193359	0.055664	1.003418	12.180000	-7.910000	5.320000	669.00	-0.08	-0.13
0.86	4.25	2.00	4.75	2.00	0.75	1.50	0.50	0.50	2.25	2.25	0.25	0.00	0.00	3.50	0.50	0.00	-0.235840	0.046387	0.955078	5.110000	0.070000	6.510000	320.00	-0.08	0.04	7.00	3.25	5.00	5.25	2.50	9.50	0.25	6.25	3.75	0.50	0.25	0.50	5.25	1.50	0.00	0.00	-0.186035	0.072754	0.957031	18.760000	-6.580000	4.830000	676.00	-0.11	-0.13
0.87	4.25	2.25	4.75	2.00	0.75	1.25	0.50	0.25	1.50	2.00	0.00	0.00	0.00	2.75	0.00	0.00	-0.237305	0.065430	0.961914	6.090000	-0.560000	7.210000	283.00	-0.13	0.04	8.50	5.00	5.25	6.00	2.25	9.50	0.25	6.25	2.25	0.25	0.00	0.25	5.00	1.25	0.00	0.00	-0.167480	-0.078125	1.020996	29.469999	-7.560000	4.060000	686.00	-0.15	-0.14
0.88	4.50	2.50	5.00	2.00	0.75	1.00	0.50	0.50	1.25	1.75	0.00	0.00	0.00	2.50	0.50	0.00	-0.232422	0.096680	0.969727	6.790000	-0.840000	8.050000	290.00	-0.13	0.03	9.50	6.00	5.25	6.75	2.25	9.75	0.00	6.00	1.75	0.00	0.00	0.25	4.50	0.75	0.00	0.00	-0.214355	0.037598	1.050781	42.420002	-15.050000	4.760000	693.00	-0.18	-0.15
0.89	5.00	2.50	4.75	1.75	0.75	1.25	0.50	0.00	1.25	1.50	0.00	0.00	0.00	2.50	0.00	0.00	-0.225586	0.137695	0.959961	6.650000	-1.190000	9.030000	275.00	-0.16	0.04	11.25	7.00	5.50	7.50	2.00	9.75	0.00	6.00	1.00	0.00	0.00	0.00	4.00	0.50	0.00	0.00	-0.181641	0.059570	1.019531	45.709999	-23.799999	4.760000	713.00	-0.21	-0.14
0.90	5.00	2.75	5.00	2.50	0.75	0.75	0.25	0.00	1.00	1.50	0.00	0.00	0.00	1.75	0.00	0.00	-0.212891	0.244629	0.970215	6.300000	-2.100000	14.770000	268.00	-0.19	0.03	12.00	7.75	5.50	7.50	2.00	9.75	0.00	5.75	0.75	0.00	0.00	0.25	3.50	0.25	0.00	0.00	-0.169922	0.101074	0.957520	43.959999	-29.469999	5.110000	717.00	-0.22	-0.14
0.91	5.25	3.00	5.00	2.25	0.50	0.75	0.25	0.00	0.50	1.25	0.00	0.00	0.00	1.75	0.00	0.00	-0.214355	0.175293	0.950684	5.950000	-3.010000	22.680000	256.00	-0.22	0.02	12.75	8.50	5.50	8.00	1.50	9.75	0.00	5.50	0.25	0.00	0.00	0.00	3.00	0.00	0.00	0.00	-0.144531	0.119629	0.926758	39.270000	-30.240000	5.390000	712.00	-0.24	-0.14
0.92	5.25	2.50	5.00	2.25	0.50	1.00	0.25	0.00	0.25	1.25	0.00	0.00	0.00	1.75	0.00	0.00	-0.221680	0.025391	0.945801	4.900000	-4.410000	25.620001	250.00	-0.22	0.02	13.00	9.00	5.50	8.00	1.50	9.75	0.00	5.50	0.50	0.00	0.00	0.00	2.75	0.00	0.00	0.00	-0.144531	0.122559	0.929199	33.599998	-28.559999	5.180000	722.00	-0.24	-0.14
0.93	5.50	3.25	5.25	2.75	0.50	1.00	0.25	0.00	0.00	1.25	0.00	0.00	0.00	1.75	0.00	0.00	-0.255859	-0.069336	1.006836	5.880000	-6.930000	21.840000	267.00	-0.23	0.01	13.75	9.50	5.50	8.25	1.50	9.50	0.00	5.25	0.00	0.00	0.00	0.00	2.25	0.00	0.00	0.00	-0.129395	0.128906	0.888184	28.490000	-25.830000	4.970000	719.00	-0.25	-0.14
0.94	5.75	3.75	5.25	2.50	0.50	1.00	0.25	0.00	0.25	1.00	0.00	0.00	0.00	1.75	0.00	0.00	-0.254395	-0.051270	0.969238	8.610000	-10.570000	14.980000	274.00	-0.24	0.01	14.25	10.00	5.50	8.25	1.25	9.50	0.00	5.25	0.00	0.00	0.00	0.00	2.00	0.00	0.00	0.00	-0.121094	0.144043	0.880859	22.260000	-21.559999	4.690000	725.00	-0.26	-0.13
0.95	6.25	4.00	5.25	2.75	0.50	0.75	0.25	0.00	0.00	1.00	0.00	0.00	0.00	1.50	0.00	0.00	-0.223145	0.032227	0.946777	9.800000	-11.830000	10.150000	276.00	-0.26	0.01	14.25	10.50	5.50	8.25	1.00	9.25	0.00	5.00	0.00	0.00	0.00	0.00	2.00	0.00	0.00	0.00	-0.118164	0.146973	0.875000	15.750000	-17.010000	4.480000	719.00	-0.26	-0.13
0.96	6.25	3.75	5.50	2.75	0.50	1.00	0.25	0.00	0.00	0.75	0.00	0.00	0.00	1.50	0.00	0.00	-0.216797	0.058105	0.952637	5.810000	-13.160000	4.900000	277.00	-0.26	0.00	14.75	10.25	5.50	8.50	1.00	9.50	0.00	5.00	0.00	0.00	0.00	0.00	1.75	0.00	0.00	0.00	-0.121094	0.139648	0.894043	9.310000	-12.880000	4.060000	727.00	-0.26	-0.13
0.97	7.25	4.75	5.50	3.00	0.50	1.00	0.25	0.00	0.25	0.75	0.00	0.00	0.00	1.50	0.00	0.00	-0.216797	0.058105	0.952637	5.810000	-13.160000	4.900000	308.00	-0.27	0.00	14.75	10.75	5.50	8.25	1.00	9.25	0.00	4.75	0.00	0.00	0.00	0.00	1.50	0.00	0.00	0.00	-0.140625	0.127441	0.928223	4.830000	-10.360000	3.500000	718.00	-0.27	-0.13
0.98	7.25	4.75	5.50	3.25	0.50	1.00	0.25	0.00	0.00	0.75	0.00	0.00	0.00	1.50	0.00	0.00	-0.198242	0.064941	0.924316	3.500000	-12.460000	1.260000	307.00	-0.27	-0.00	14.75	10.75	5.50	8.50	0.75	9.25	0.00	4.50	0.00	0.00	0.00	0.00	1.25	0.00	0.00	0.00	-0.139160	0.128906	0.918945	2.030000	-9.170000	3.010000	711.00	-0.27	-0.12
0.99	8.00	4.75	5.75	3.50	0.50	1.00	0.00	0.00	0.00	0.50	0.00	0.00	0.00	1.50	0.00	0.00	-0.195801	0.052734	0.933105	4.620000	-11.200000	0.280000	315.00	-0.29	-0.00	14.75	10.75	5.50	8.50	1.00	9.00	0.00	4.00	0.00	0.00	0.00	0.00	1.00	0.00	0.00	0.00	-0.143555	0.128418	0.940430	0.280000	-8.400000	2.940000	700.00	-0.28	-0.12
1.00	8.50	5.25	5.75	4.00	0.50	1.00	0.00	0.00	0.00	0.50	0.00	0.00	0.00	1.00	0.00	0.00	-0.204590	0.059082	0.940918	6.860000	-10.850000	-0.560000	328.00	-0.30	-0.01	15.00	11.00	5.50	8.25	0.75	9.00	0.00	3.75	0.00	0.00	0.00	0.00	1.00	0.00	0.00	0.00	-0.144043	0.123535	0.941406	-0.910000	-7.980000	3.010000	694.00	-0.28	-0.12
1.01	9.25	5.50	6.25	4.00	0.50	1.00	0.25	0.00	0.00	0.50	0.00	0.00	0.00	1.25	0.00	0.00	-0.201660	0.058105	0.937012	10.150000	-10.990000	-1.120000	354.00	-0.30	-0.00	15.00	11.00	5.50	8.25	0.75	8.75	0.00	3.50	0.00	0.00	0.00	0.00	1.00	0.00	0.00	0.00	-0.147949	0.125000	0.953613	-2.310000	-8.120000	2.240000	687.00	-0.28	-0.11
1.02	10.25	5.75	6.75	4.75	0.50	1.75	0.00	0.00	0.00	0.50	0.00	0.00	0.00	1.25	0.00	0.00	-0.188965	0.072754	0.926758	13.300000	-10.570000	-1.330000	391.00	-0.30	-0.02	15.00	11.00	5.50	8.25	0.75	8.50	0.00	3.25	0.00	0.00	0.00	0.00	0.75	0.00	0.00	0.00	-0.150391	0.127930	0.948242	-3.290000	-7.770000	1.890000	676.00	-0.29	-0.11
1.03	11.25	6.50	7.25	5.00	0.75	2.25	0.00	0.00	0.00	0.50	0.00	0.00	0.00	1.00	0.00	0.00	-0.193359	0.081055	0.935547	15.960000	-10.080000	-1.400000	429.00	-0.30	-0.02	14.75	10.75	5.25	8.00	0.75	8.25	0.00	3.25	0.00	0.00	0.00	0.00	0.75	0.00	0.00	0.00	-0.139648	0.124023	0.945312	-4.200000	-6.650000	1.820000	661.00	-0.29	-0.11
1.04	12.00	7.50	7.50	5.50	0.75	2.75	0.00	0.00	0.00	0.50	0.00	0.00	0.00	0.50	0.00	0.00	-0.216309	0.114258	0.998047	17.290001	-10.220000	-1.750000	461.00	-0.31	-0.03	14.50	10.50	5.25	7.75	0.75	8.25	0.00	2.75	0.00	0.00	0.00	0.00	0.50	0.00	0.00	0.00	-0.128906	0.118652	0.933105	-4.900000	-5.040000	1.820000	640.00	-0.29	-0.10
1.05	13.00	8.00	7.75	5.75	0.75	3.50	0.00	0.50	0.00	0.50	0.00	0.00	0.00	1.00	0.00	0.00	-0.216309	0.123047	0.988281	14.490000	-13.510000	-1.750000	509.00	-0.30	-0.04	14.00	10.00	5.25	7.75	0.75	7.50	0.00	2.50	0.00	0.00	0.00	0.00	0.50	0.00	0.00	0.00	-0.117676	0.109375	0.912598	-5.810000	-3.010000	1.750000	614.00	-0.29	-0.10
1.06	13.75	9.00	8.25	7.00	0.75	4.25	0.00	1.00	0.00	0.25	0.00	0.00	0.00	0.75	0.00	0.00	-0.189941	0.088379	0.945801	13.510000	-14.700000	-0.910000	566.00	-0.30	-0.05	13.75	9.25	5.25	7.50	0.50	7.50	0.00	2.25	0.00	0.00	0.00	0.00	0.25	0.00	0.00	0.00	-0.111328	0.130371	0.883789	-7.560000	1.330000	1.820000	589.00	-0.30	-0.10
1.07	14.75	9.75	8.75	7.75	0.75	5.25	0.00	1.00	0.00	0.25	0.00	0.00	0.00	0.75	0.00	0.00	-0.191406	0.094238	0.962402	14.140000	-15.820000	-1.260000	616.00	-0.30	-0.06	13.00	8.75	4.75	7.25	0.50	7.00	0.00	2.00	0.00	0.00	0.00	0.00	0.00	0.00	0.00	0.00	-0.106445	0.143066	0.876465	-10.640000	6.860000	1.820000	550.00	-0.30	-0.10
1.08	15.75	10.50	8.75	8.25	1.00	6.00	0.00	1.00	0.00	0.25	0.00	0.00	0.00	1.00	0.00	0.00	-0.194336	0.124023	0.951172	14.490000	-17.219999	-0.770000	659.00	-0.30	-0.06	11.50	7.50	4.50	6.75	0.50	6.75	0.00	2.00	0.00	0.00	0.00	0.00	0.25	0.00	0.00	0.00	-0.099609	0.127930	0.868652	-15.330000	12.950000	1.540000	507.00	-0.29	-0.10
1.09	16.75	11.50	9.25	8.75	1.00	6.50	0.00	1.50	0.00	0.50	0.00	0.00	0.00	1.25	0.00	0.00	-0.187012	0.124512	0.954102	14.350000	-17.990000	0.350000	717.00	-0.29	-0.06	9.75	6.25	4.00	6.25	0.50	6.50	0.00	2.00	0.00	0.00	0.00	0.00	0.25	0.00	0.00	0.00	-0.116211	0.137207	0.895996	-20.790001	19.740000	0.770000	455.00	-0.28	-0.11
1.10	17.25	12.25	9.50	9.25	1.00	7.00	0.00	1.75	0.00	0.25	0.00	0.00	0.00	0.50	0.00	0.00	-0.176758	0.110840	0.954102	13.860000	-18.270000	0.840000	741.00	-0.30	-0.07	8.25	4.75	2.75	5.25	0.50	6.00	0.00	2.00	0.00	0.00	0.00	0.00	0.00	0.00	0.00	0.00	-0.126953	0.142090	0.887695	-25.760000	25.129999	-0.420000	381.00	-0.28	-0.12
1.11	18.00	13.50	9.75	9.75	1.25	8.00	0.00	2.00	0.00	0.50	0.00	0.00	0.00	0.50	0.00	0.00	-0.180664	0.125977	0.935059	13.300000	-17.990000	1.120000	798.00	-0.30	-0.07	6.75	3.00	1.75	4.00	0.50	5.50	0.00	1.75	0.00	0.00	0.00	0.00	0.25	0.00	0.00	0.00	-0.141113	0.157715	0.857422	-32.480000	31.780001	-1.470000	305.00	-0.26	-0.13
1.12	19.00	14.25	10.00	10.25	1.25	9.00	0.00	2.50	0.00	0.25	0.00	0.00	0.00	0.50	0.00	0.00	-0.168457	0.119141	0.937500	12.670000	-17.360001	2.100000	848.00	-0.30	-0.08	5.25	1.50	1.25	2.25	0.25	4.75	0.00	1.75	0.00	0.00	0.00	0.00	0.25	0.00	0.00	0.00	-0.140625	0.162598	0.839844	-42.910000	39.970001	-3.570000	227.00	-0.25	-0.14
1.13	20.00	15.50	10.50	11.00	1.25	10.00	0.00	3.50	0.00	0.25	0.00	0.00	0.00	1.00	0.00	0.00	-0.135742	0.120605	0.926270	11.410000	-14.140000	3.500000	927.00	-0.29	-0.09	3.25	1.00	1.25	1.75	0.00	3.50	0.00	1.50	0.00	0.00	0.00	0.00	0.50	0.00	0.00	0.00	-0.639648	0.057129	0.668457	-56.980000	51.099998	-4.550000	169.00	-0.23	-0.16
1.14	20.00	15.75	10.75	11.50	1.50	10.50	0.00	4.00	0.00	0.25	0.00	0.00	0.00	1.00	0.00	0.00	-0.105957	0.139160	0.844727	9.450000	-9.800000	3.780000	958.00	-0.28	-0.09	2.50	0.75	0.75	1.50	0.00	3.00	0.00	1.25	0.00	0.00	0.00	0.00	0.25	0.00	0.00	0.00	-0.191895	-0.003906	1.289551	-61.320000	94.010002	3.640000	133.00	-0.23	-0.17
1.15	21.00	16.50	10.75	11.75	1.50	11.50	0.25	5.00	0.00	0.50	0.00	0.00	0.25	0.75	0.00	0.00	-0.079590	0.150879	0.851562	4.130000	-1.330000	3.080000	1021.00	-0.28	-0.10	1.75	0.50	1.25	1.00	0.00	2.25	0.00	1.00	0.00	0.00	0.00	0.00	0.75	0.00	0.00	0.00	-0.115234	0.226562	1.436523	10.570000	140.630005	-25.690001	112.00	-0.20	-0.17
1.16	21.00	16.25	11.00	12.25	1.75	12.00	0.25	5.25	0.00	0.50	0.00	0.00	1.00	0.25	0.00	0.00	-0.133789	0.157715	0.948242	-3.430000	6.580000	2.100000	1045.00	-0.28	-0.10	1.75	0.50	0.75	0.50	0.00	1.25	0.00	0.50	0.00	0.00	0.00	0.00	0.50	0.00	0.00	0.00	-0.281738	0.264160	1.467285	32.270000	167.930008	-42.139999	74.00	-0.23	-0.13
1.17	20.75	17.00	11.00	12.50	1.75	12.50	0.25	6.00	0.00	0.50	0.00	0.00	0.75	0.50	0.00	0.00	-0.173340	0.109375	0.973633	-6.510000	9.590000	1.820000	1074.00	-0.27	-0.11	0.75	0.50	0.75	0.50	0.25	0.75	0.00	0.25	0.00	0.00	0.00	0.00	0.00	0.00	0.00	0.00	-0.382812	0.291992	1.795410	25.620001	192.220001	-47.740002	49.00	0.00	0.00
1.18	20.50	16.75	11.00	12.75	1.75	13.00	0.25	6.00	0.00	0.50	0.00	0.00	1.75	0.50	0.00	0.00	-0.152344	0.120605	0.957031	-6.440000	10.360000	1.400000	1088.00	-0.27	-0.11	0.75	0.25	0.75	0.25	0.00	0.00	0.00	0.25	0.00	0.00	0.00	0.00	0.00	0.00	0.00	0.00	-0.490234	0.520508	1.705078	33.810001	211.330002	-58.590000	30.00	0.00	0.00
1.19	20.00	17.00	11.00	12.75	2.00	13.25	0.25	7.25	0.00	0.75	0.00	0.00	2.00	0.00	0.00	0.00	-0.162109	0.139648	0.964355	-7.000000	11.620000	1.330000	1115.00	-0.26	-0.12	0.75	0.25	0.75	0.25	0.00	0.00	0.00	0.00	0.00	0.00	0.00	0.00	0.00	0.00	0.00	0.00	-0.489746	0.809082	1.861816	40.459999	223.580002	-63.910000	25.00	0.00	0.00
1.20	19.75	16.75	11.00	12.75	2.00	13.50	0.25	7.50	0.00	0.75	0.00	0.00	2.00	0.50	0.00	0.00	-0.157227	0.120117	0.975098	-7.840000	13.790000	1.190000	1122.00	-0.26	-0.12	1.25	0.25	0.75	0.25	0.00	0.00	0.00	0.00	0.00	0.00	0.00	0.00	0.00	0.00	0.00	0.00	-0.092285	0.954102	2.406250	26.180000	220.290009	-51.310001	32.00	0.00	0.00
1.21	19.75	16.50	10.75	12.50	2.00	14.00	0.25	8.00	0.00	0.75	0.00	0.00	2.25	0.50	0.00	0.00	-0.179199	0.116699	0.991699	-7.000000	14.070000	1.050000	1130.00	-0.25	-0.12	1.00	0.25	0.50	0.25	0.00	0.00	0.00	0.00	0.00	0.00	0.00	0.00	0.00	0.00	0.00	0.00	0.391602	0.984863	2.726074	-24.990000	180.110001	-24.710001	25.00	0.00	0.00
1.22	19.00	16.25	10.50	12.50	2.00	14.00	0.25	8.50	0.00	0.75	0.00	0.00	2.50	0.50	0.00	0.00	-0.166992	0.103516	0.990723	-5.110000	13.370000	1.120000	1127.00	-0.25	-0.13	0.75	0.25	0.50	0.25	0.00	0.00	0.00	0.00	0.00	0.00	0.00	0.00	0.00	0.00	0.00	0.00	0.688965	0.972656	2.077148	-56.420002	134.119995	2.030000	22.00	0.00	0.00
1.23	18.50	15.75	10.25	12.25	1.75	14.00	0.25	8.75	0.00	0.75	0.00	0.00	3.00	0.50	0.25	0.00	-0.187988	0.106934	0.992188	-2.450000	12.740000	1.540000	1118.00	-0.24	-0.13	0.75	0.00	0.75	0.00	0.00	0.00	0.00	0.00	0.00	0.00	0.00	0.00	0.00	0.00	0.00	0.00	0.878906	0.821289	1.424316	-43.470001	110.250000	13.720000	19.00	0.00	0.00
1.24	17.75	15.00	10.00	12.25	1.75	14.00	0.25	9.00	0.00	0.50	0.00	0.00	3.75	0.50	0.00	0.00	-0.181641	0.128906	0.954102	-1.820000	13.230000	1.470000	1103.00	-0.24	-0.14	0.25	0.25	0.50	0.00	0.00	0.00	0.00	0.00	0.00	0.00	0.00	0.00	0.00	0.00	0.00	0.00	1.145508	0.626953	1.194336	-17.430000	103.809998	9.590000	13.00	0.00	0.00
1.25	17.50	14.75	9.50	12.00	1.75	14.00	0.25	9.25	0.00	1.00	0.00	0.00	4.00	0.25	0.00	0.00	-0.146484	0.147949	0.923340	-6.160000	16.450001	0.490000	1098.00	-0.23	-0.14	1.00	0.00	0.50	0.00	0.00	0.00	0.00	0.00	0.00	0.00	0.00	0.00	0.00	0.00	0.00	0.00	1.458496	0.529785	1.344238	-2.730000	95.340004	-2.590000	19.00	0.00	0.00
1.26	16.50	13.75	9.50	11.50	1.75	14.00	0.25	9.50	0.25	0.75	0.00	0.00	5.00	0.50	0.25	0.00	-0.180176	0.144043	0.943359	-11.340000	18.900000	-0.910000	1089.00	-0.22	-0.15	1.00	0.25	0.75	0.00	0.00	0.00	0.00	0.00	0.00	0.00	0.00	0.00	0.00	0.00	0.00	0.00	1.750000	0.516113	1.486816	2.380000	71.750000	-16.240000	25.00	0.00	0.00
1.27	16.00	13.00	9.25	11.00	1.75	14.00	0.25	9.50	0.00	0.75	0.00	0.00	5.00	0.25	0.00	0.00	-0.199707	0.118164	0.989746	-12.460000	18.549999	-1.120000	1055.00	-0.22	-0.15	1.25	0.25	0.75	0.00	0.00	0.00	0.00	0.00	0.00	0.00	0.00	0.00	0.00	0.00	0.00	0.00	1.926270	0.510254	1.460449	9.800000	35.910000	-29.260000	28.00	0.00	0.00
1.28	14.75	12.75	8.75	10.75	1.50	13.75	0.25	10.00	0.00	1.00	0.00	0.00	6.00	0.00	0.00	0.00	-0.170410	0.135254	0.938965	-13.860000	17.080000	-1.540000	1041.00	-0.21	-0.16	0.50	0.25	0.25	0.00	0.00	0.00	0.00	0.00	0.00	0.00	0.00	0.00	0.00	0.00	0.00	0.00	1.953125	0.474121	1.306152	22.889999	-1.680000	-40.320000	12.00	0.00	0.00
1.29	14.00	11.50	8.50	10.50	1.50	13.50	0.25	10.00	0.00	1.00	0.00	0.00	6.00	0.25	0.00	0.00	-0.166992	0.134766	0.908691	-21.559999	18.830000	-2.660000	1010.00	-0.21	-0.17	0.75	0.25	0.25	0.00	0.00	0.00	0.00	0.00	0.00	0.00	0.00	0.00	0.00	0.00	0.00	0.00	1.909668	0.413574	1.164551	35.070000	-33.110001	-47.810001	15.00	0.00	0.00
1.30	13.25	10.75	8.25	10.25	1.50	13.50	0.25	10.00	0.00	1.00	0.00	0.00	6.50	0.50	0.00	0.00	-0.173828	0.128906	0.919434	-31.710001	19.530001	-4.690000	994.00	-0.20	-0.17	1.00	0.25	0.50	0.00	0.00	0.00	0.00	0.00	0.00	0.00	0.00	0.00	0.00	0.00	0.00	0.00	1.680176	0.422852	1.155762	49.630001	-83.650002	-46.900002	22.00	0.00	0.00
1.31	12.50	10.25	8.00	10.00	1.50	13.25	0.25	10.00	0.25	1.25	0.00	0.25	6.75	1.00	0.25	0.00	-0.188477	0.115234	0.945312	-39.480000	18.270000	-6.440000	990.00	-0.19	-0.17	0.75	0.00	0.50	0.00	0.00	0.00	0.00	0.00	0.00	0.00	0.00	0.00	0.00	0.00	0.00	0.00	1.528320	0.414551	1.185059	59.430000	-108.010002	-38.849998	16.00	0.00	0.00
1.32	12.50	9.50	7.75	9.75	1.50	13.00	0.50	10.25	0.50	1.50	0.25	0.00	7.00	0.75	0.00	0.00	-0.225098	0.086426	1.000977	-40.670002	12.530000	-7.000000	985.00	-0.18	-0.17	0.50	0.25	0.25	0.00	0.00	0.00	0.00	0.00	0.00	0.00	0.00	0.00	0.00	0.00	0.00	0.00	1.344238	0.375488	1.202148	68.669998	-131.529999	-26.809999	12.00	0.00	0.00
1.33	11.00	9.25	7.75	9.50	1.50	13.00	0.50	10.25	0.50	1.75	0.75	0.00	7.50	0.50	0.25	0.00	-0.226562	0.057129	0.998535	-30.520000	5.740000	-6.160000	975.00	-0.17	-0.17	0.75	0.25	0.25	0.00	0.00	0.00	0.00	0.00	0.00	0.00	0.00	0.00	0.00	0.00	0.00	0.00	1.122070	0.295410	1.196777	76.160004	-151.410004	-11.830000	15.00	0.00	0.00
1.34	10.75	8.50	7.50	9.25	1.50	12.75	0.50	10.25	0.50	1.75	0.75	0.75	7.75	0.25	0.25	0.00	-0.199219	0.083008	0.938477	-22.680000	2.030000	-5.040000	963.00	-0.16	-0.18	0.75	0.25	0.25	0.00	0.00	0.00	0.00	0.00	0.00	0.00	0.00	0.00	0.00	0.00	0.00	0.00	0.891113	0.207520	1.208496	81.199997	-166.460007	3.990000	15.00	0.00	0.00
1.35	10.25	8.00	7.50	9.00	1.75	12.50	0.75	10.25	0.75	2.00	0.75	0.75	8.25	1.25	0.75	0.00	-0.199219	0.090332	0.946289	-18.690001	-0.280000	-4.340000	981.00	-0.14	-0.17	0.50	0.25	0.25	0.00	0.00	0.00	0.00	0.00	0.00	0.00	0.00	0.00	0.00	0.00	0.00	0.00	0.650391	0.124023	1.234863	82.459999	-177.660004	19.879999	12.00	0.00	0.00
1.36	9.25	7.50	7.25	8.75	1.75	12.50	0.75	10.50	1.00	2.50	1.00	1.00	8.75	1.25	0.75	0.00	-0.190430	0.085449	0.931641	-16.590000	-1.750000	-4.060000	983.00	-0.13	-0.17	0.75	0.25	0.50	0.00	0.00	0.00	0.00	0.00	0.00	0.00	0.00	0.00	0.00	0.00	0.00	0.00	0.449219	0.063965	1.268555	80.220001	-185.710007	35.560001	19.00	0.00	0.00
1.37	9.50	7.25	7.00	8.50	2.00	12.50	0.75	10.75	1.50	2.75	1.25	1.50	9.25	1.75	0.75	0.00	-0.191406	0.075195	0.937012	-16.730000	-1.960000	-4.200000	1015.00	-0.12	-0.17	0.75	0.00	0.50	0.00	0.00	0.00	0.00	0.00	0.00	0.00	0.00	0.00	0.00	0.00	0.00	0.00	0.259766	-0.005859	1.289551	76.860001	-191.869995	50.259998	16.00	0.00	0.00
1.38	9.25	6.75	7.00	8.25	2.25	12.25	1.00	10.75	2.00	3.00	1.50	1.50	10.00	1.75	0.50	0.00	-0.202148	0.072754	0.963379	-15.960000	-2.590000	-4.410000	1026.00	-0.11	-0.17	0.75	0.00	0.00	0.00	0.00	0.00	0.00	0.00	0.00	0.00	0.00	0.00	0.00	0.00	0.00	0.00	0.090820	-0.070312	1.296875	72.099998	-196.000000	63.560001	9.00	0.00	0.00
1.39	7.50	6.25	6.75	8.00	2.25	12.25	1.00	10.75	2.50	4.00	2.00	2.25	10.50	2.25	1.25	0.25	-0.201172	0.071777	0.955566	-13.720000	-3.010000	-4.060000	1050.00	-0.08	-0.17	1.00	0.25	0.25	0.00	0.00	0.00	0.00	0.00	0.00	0.00	0.00	0.00	0.00	0.00	0.00	0.00	-0.092285	-0.140625	1.277832	66.570000	-198.029999	74.129997	18.00	0.00	0.00
1.40	7.75	6.00	6.25	7.50	2.50	12.00	1.50	10.75	3.25	4.25	2.50	2.75	11.25	2.75	1.50	0.25	-0.194824	0.070801	0.954590	-11.340000	-2.170000	-3.710000	1089.00	-0.06	-0.16	1.00	0.00	0.25	0.00	0.00	0.00	0.00	0.00	0.00	0.00	0.00	0.00	0.00	0.00	0.00	0.00	-0.258301	-0.228516	1.270508	58.520000	-197.889999	81.059998	16.00	0.00	0.00
1.41	7.25	5.50	6.25	7.25	2.50	11.75	1.75	11.00	3.75	5.25	3.25	3.00	12.00	3.25	2.00	0.50	-0.205566	0.063965	0.957031	-9.030000	-0.490000	-3.430000	1133.00	-0.04	-0.15	0.75	0.25	0.25	0.00	0.00	0.00	0.00	0.00	0.00	0.00	0.00	0.00	0.00	0.00	0.00	0.00	-0.404785	-0.292480	1.260254	44.799999	-196.910004	84.769997	15.00	0.00	0.00
1.42	7.00	5.00	6.00	6.75	2.50	11.75	2.00	11.25	4.50	6.00	3.75	3.75	12.50	4.00	2.25	1.00	-0.214355	0.062988	0.954102	-4.270000	4.830000	-2.240000	1180.00	-0.02	-0.15	0.50	0.00	0.00	0.00	0.00	0.00	0.00	0.00	0.00	0.00	0.00	0.00	0.00	0.00	0.00	0.00	-0.518555	-0.298828	1.277344	30.940001	-197.119995	85.820000	6.00	0.00	0.00
1.43	6.00	4.50	5.50	6.25	2.75	11.75	2.25	11.25	5.25	6.75	5.25	5.25	13.25	5.00	2.75	1.00	-0.203125	0.060547	0.953613	-2.940000	7.700000	-2.100000	1239.00	0.01	-0.15	0.75	0.00	0.00	0.00	0.00	0.00	0.00	0.00	0.00	0.00	0.00	0.00	0.00	0.00	0.00	0.00	-0.657715	-0.338867	1.218262	20.510000	-198.800003	84.980003	9.00	0.00	0.00
1.44	5.25	3.75	5.00	6.00	2.75	11.25	2.75	11.50	6.00	7.50	6.25	5.75	14.00	5.75	3.50	1.25	-0.203613	0.072266	0.956055	-2.520000	10.780000	-2.310000	1285.00	0.03	-0.14	0.75	0.00	0.00	0.00	0.00	0.00	0.00	0.00	0.00	0.00	0.00	0.00	0.00	0.00	0.00	0.00	-0.836426	-0.384766	1.088867	8.820000	-198.589996	81.480003	9.00	0.00	0.00
1.45	4.75	3.25	4.50	5.25	2.75	11.00	3.00	11.50	7.00	7.75	7.00	6.75	14.50	7.25	3.75	2.00	-0.218750	0.079590	0.960938	-2.730000	13.510000	-3.080000	1327.00	0.05	-0.13	0.75	0.00	0.25	0.00	0.00	0.00	0.00	0.00	0.00	0.00	0.00	0.00	0.00	0.00	0.00	0.00	-1.208008	-0.461426	0.925293	-9.310000	-188.720001	60.970001	13.00	0.00	0.00
1.46	4.25	3.00	4.00	5.00	2.50	10.75	3.25	11.50	7.50	8.25	7.50	7.25	15.25	8.00	4.75	2.00	-0.211914	0.076172	0.977051	-2.660000	16.450001	-3.850000	1360.00	0.07	-0.13	0.50	0.00	0.25	0.00	0.00	0.00	0.00	0.00	0.00	0.00	0.00	0.00	0.00	0.00	0.00	0.00	-1.413574	-0.506348	0.848145	-17.639999	-183.190002	44.240002	10.00	0.00	0.00
1.47	3.25	2.50	3.00	4.00	2.25	10.50	3.50	11.50	8.00	8.75	8.00	7.75	16.25	9.25	5.00	3.00	-0.198242	0.077637	0.965820	-2.520000	20.650000	-4.270000	1373.00	0.09	-0.13	0.50	0.00	0.00	0.00	0.00	0.00	0.00	0.00	0.00	0.00	0.00	0.00	0.00	0.00	0.00	0.00	-1.644531	-0.505371	0.708496	-30.100000	-176.470001	27.090000	6.00	0.00	0.00
1.48	2.50	2.00	2.25	3.00	2.25	10.00	3.75	11.50	8.50	9.25	8.50	8.00	17.00	10.00	5.25	3.25	-0.208008	0.087891	0.996582	-2.450000	25.690001	-5.460000	1376.00	0.11	-0.13	0.50	0.00	0.00	0.00	0.00	0.00	0.00	0.00	0.00	0.00	0.00	0.00	0.00	0.00	0.00	0.00	-1.927246	-0.435059	0.531738	-42.630001	-166.880005	11.270000	6.00	0.00	0.00
1.49	2.25	1.75	2.00	2.75	2.00	9.50	4.00	11.25	9.00	9.75	9.00	8.50	16.75	10.75	6.00	3.75	-0.185059	0.087891	0.987305	-3.640000	33.880001	-7.350000	1398.00	0.12	-0.12	0.75	0.00	0.25	0.00	0.00	0.00	0.00	0.00	0.00	0.00	0.00	0.00	0.00	0.00	0.00	0.00	-2.246582	-0.326660	0.311035	-50.820000	-152.600006	-2.730000	13.00	0.00	0.00
1.50	1.75	1.75	2.00	2.50	1.75	9.00	4.25	11.00	9.50	10.00	9.25	8.75	17.75	11.50	6.00	4.25	-0.191895	0.023926	1.034180	-1.820000	44.099998	-9.660000	1417.00	0.13	-0.12	0.50	0.00	0.25	0.00	0.00	0.00	0.00	0.00	0.00	0.00	0.00	0.00	0.00	0.00	0.00	0.00	-2.572754	-0.183105	0.097168	-57.470001	-132.860001	-14.070000	10.00	0.00	0.00
1.51	2.00	1.25	1.50	2.25	1.50	8.75	4.25	10.75	10.00	10.50	9.75	9.00	18.25	12.50	6.25	4.75	-0.207031	0.049316	1.052734	6.300000	66.919998	-7.840000	1439.00	0.14	-0.12	0.50	0.00	0.50	0.00	0.00	0.00	0.00	0.00	0.00	0.00	0.00	0.00	0.00	0.00	0.00	0.00	-2.788574	0.054199	-0.131836	-63.490002	-107.449997	-20.090000	13.00	0.00	0.00
1.52	1.50	1.25	1.50	1.50	1.25	8.00	4.00	10.25	10.50	11.00	10.00	9.25	18.00	13.25	6.50	5.00	-0.257324	0.081543	1.049805	15.190001	91.840004	-6.720000	1426.00	0.15	-0.11	0.75	0.00	0.50	0.00	0.00	0.00	0.00	0.00	0.00	0.00	0.00	0.00	0.00	0.00	0.00	0.00	-2.909668	0.330566	-0.243652	-60.270000	-78.820000	-18.900000	16.00	0.00	0.00
1.53	1.25	0.75	1.00	1.50	1.25	7.75	4.00	9.75	10.75	11.25	10.25	9.25	18.75	13.75	7.25	5.50	-0.278809	0.094238	1.100586	24.850000	123.059998	-7.280000	1434.00	0.17	-0.11	1.25	0.00	0.25	0.00	0.00	0.00	0.00	0.00	0.00	0.00	0.00	0.00	0.00	0.00	0.00	0.00	-2.924805	0.550781	-0.363281	-45.220001	-51.170002	-11.340000	19.00	0.00	0.00
1.54	1.25	0.75	1.00	1.50	1.00	7.50	4.00	9.25	11.25	11.50	10.50	9.50	18.75	14.25	7.75	6.00	-0.295410	0.106934	1.107910	23.100000	155.820007	-9.870000	1450.00	0.17	-0.11	1.75	0.50	0.75	0.00	0.00	0.00	0.00	0.00	0.00	0.00	0.00	0.00	0.00	0.00	0.00	0.00	-2.872559	0.692383	-0.555664	-24.639999	-24.990000	2.660000	37.00	0.00	0.00
1.55	1.25	0.75	0.75	0.75	1.00	6.75	3.75	9.00	11.75	12.00	10.75	9.50	18.25	14.75	8.00	6.50	-0.321777	0.088379	1.160645	18.059999	188.160004	-12.460000	1442.00	0.18	-0.10	5.25	1.75	1.50	0.75	0.00	0.00	0.00	0.00	0.00	0.00	0.00	0.00	0.00	0.00	0.00	0.00	-9.019043	-0.445801	0.306641	-11.130000	84.349998	25.830000	114.00	-0.37	0.03
1.56	1.00	0.25	0.75	1.50	0.50	6.00	3.75	8.25	11.75	12.25	11.00	9.50	18.00	15.50	8.00	7.00	-0.400879	0.106934	1.227539	0.280000	246.470001	-18.340000	1428.00	0.19	-0.10	10.25	6.50	2.75	2.00	0.00	0.00	0.00	0.00	0.00	0.00	0.00	0.00	0.00	0.00	0.00	0.00	-2.635254	-0.206055	3.135254	-119.910004	292.809998	-10.920000	262.00	-0.38	-0.00
1.57	0.50	0.25	0.25	0.50	0.50	5.75	3.50	7.75	12.00	12.50	11.00	9.25	17.25	15.75	8.00	7.25	-0.400879	0.106934	1.227539	0.280000	246.470001	-18.340000	1385.00	0.20	-0.09	15.50	10.75	5.00	4.25	0.50	0.50	0.00	0.00	0.00	0.00	0.00	0.00	0.00	0.00	0.00	0.00	-1.052734	-0.375977	4.250488	-145.880005	280.559998	0.210000	446.00	-0.36	-0.02
1.58	0.75	0.50	0.00	0.00	0.25	5.00	3.50	7.25	12.25	12.75	11.00	9.00	16.25	16.50	8.25	7.50	-0.477051	0.127930	1.253906	-21.980000	301.350006	-24.150000	1365.00	0.21	-0.08	17.00	12.00	5.50	4.75	0.75	0.75	0.00	0.00	0.00	0.00	0.00	0.00	0.00	0.00	0.00	0.00	-0.855469	-1.509766	2.250977	-137.759995	273.000000	-19.460001	498.00	-0.36	-0.02
1.59	0.00	0.00	0.25	0.00	0.25	3.00	3.75	6.50	12.25	12.75	10.75	8.75	15.50	16.75	8.50	7.75	-0.567871	0.098145	1.379883	-31.150000	331.869995	-29.540001	1311.00	0.23	-0.07	16.25	11.75	5.50	4.75	0.75	1.00	0.00	0.00	0.00	0.00	0.00	0.00	0.00	0.00	0.00	0.00	-1.128906	0.201660	2.800293	18.900000	221.970001	-14.000000	490.00	-0.36	-0.02
1.60	0.00	0.00	0.00	0.00	0.25	2.75	3.75	5.50	12.00	12.75	10.50	8.50	14.25	16.75	8.75	8.00	-0.585938	0.027832	1.448242	-40.180000	364.839996	-30.380001	1268.00	0.23	-0.06	15.75	11.00	5.50	5.00	0.75	0.75	0.00	0.00	0.00	0.00	0.00	0.00	0.00	0.00	0.00	0.00	-0.720703	0.378906	2.026855	24.360001	146.020004	-5.530000	475.00	-0.36	-0.02
1.61	0.25	0.25	0.25	0.00	0.00	1.50	4.00	4.75	11.75	12.50	10.50	8.25	13.25	17.00	8.50	8.25	-0.708984	-0.009766	1.519531	-48.580002	398.720001	-28.630001	1229.00	0.24	-0.05	15.00	10.25	5.50	5.00	1.00	1.50	0.00	0.25	0.00	0.00	0.00	0.00	0.00	0.00	0.00	0.00	-0.366699	0.516602	0.986328	-39.619999	79.239998	-6.160000	475.00	-0.35	-0.03
1.62	0.00	0.00	0.00	0.00	0.00	1.50	4.25	4.00	11.00	11.75	10.00	7.75	12.25	17.00	8.50	8.00	-0.854004	0.195312	1.876465	-60.130001	432.670013	-28.559999	1166.00	0.24	-0.05	14.25	9.75	5.50	5.00	1.25	1.75	0.00	0.25	0.25	0.00	0.00	0.00	0.00	0.00	0.00	0.00	-0.073242	0.053223	0.538574	-71.540001	55.720001	-0.280000	471.00	-0.34	-0.03
1.63	0.00	0.00	0.00	0.00	0.00	1.00	4.00	2.25	10.25	11.25	9.25	7.50	11.50	16.50	8.25	8.00	-1.188477	0.318359	2.319824	-68.250000	466.970001	-35.910000	1076.00	0.25	-0.04	14.75	10.25	6.25	5.75	1.75	2.75	0.50	0.75	1.25	0.00	0.00	0.00	0.00	0.25	0.00	0.00	-0.532227	-0.095215	1.729980	-77.000000	14.070000	-2.380000	558.00	-0.30	-0.03
1.64	0.00	0.00	0.00	0.00	0.00	0.50	3.75	2.00	9.25	10.25	8.25	6.50	10.50	15.75	7.75	7.50	-1.595703	0.453125	2.687988	-74.550003	488.529999	-47.250000	980.00	0.26	-0.03	15.50	10.00	7.00	6.00	2.25	3.00	0.50	0.75	1.75	0.00	0.00	0.00	0.25	0.25	0.00	0.00	-0.233398	0.001953	0.831055	-34.650002	-18.900000	-3.010000	598.00	-0.29	-0.02
1.65	0.00	0.00	0.00	0.00	0.00	0.75	3.50	1.50	8.50	9.50	7.50	5.50	9.75	14.50	7.00	7.00	-1.839355	0.531250	2.556641	-71.260002	499.519989	-59.639999	894.00	0.26	-0.03	15.50	10.50	7.50	6.50	2.50	3.75	0.75	1.25	2.50	0.25	0.00	0.00	0.75	0.75	0.00	0.00	-0.144531	0.086426	0.948730	-19.040001	-29.680000	2.240000	669.00	-0.26	-0.03
1.66	0.00	0.00	0.00	0.00	0.00	1.00	2.75	0.75	7.50	8.50	6.00	4.75	8.75	13.00	6.00	6.25	-1.908691	0.487793	3.459473	-60.970001	499.100006	-72.379997	771.00	0.26	-0.03	16.00	10.75	7.75	7.00	3.25	4.75	0.75	1.50	3.25	0.25	0.00	0.00	0.75	1.25	0.00	0.00	-0.231934	0.074707	1.010254	-21.770000	-30.660000	0.210000	732.00	-0.24	-0.03
1.67	0.00	0.00	0.00	0.00	0.00	0.75	1.75	0.00	6.50	7.75	4.50	3.00	7.25	11.25	5.00	5.25	-1.564453	0.205566	3.812500	-48.790001	478.239990	-78.260002	618.00	0.27	-0.01	16.50	10.75	8.00	7.25	3.50	5.25	1.00	1.75	3.75	0.25	0.00	0.00	1.00	1.75	0.00	0.00	-0.231445	0.021973	0.995605	-18.760000	-26.950001	0.070000	779.00	-0.23	-0.02
1.68	0.00	0.00	0.00	0.00	0.00	0.50	1.00	0.25	5.25	6.00	2.25	1.50	5.25	9.00	2.00	2.50	-0.700195	0.347168	3.766602	-58.240002	442.959991	-78.610001	419.00	0.27	0.01	16.75	11.00	8.25	7.50	4.50	5.50	1.00	2.00	4.25	0.25	0.00	0.00	1.25	1.75	0.00	0.00	-0.180176	0.064941	0.961426	-14.980000	-22.750000	1.120000	823.00	-0.22	-0.02
1.69	0.00	0.25	0.00	0.00	0.00	0.50	0.50	0.00	3.75	4.75	1.25	1.00	3.25	5.75	0.25	0.00	0.314941	0.448242	3.292480	-76.370003	429.450012	-74.620003	259.00	0.25	0.03	17.00	11.00	8.25	7.75	5.00	6.00	1.25	2.00	5.00	0.50	0.25	0.25	1.25	2.25	0.00	0.00	-0.187500	0.044922	0.965820	-14.280000	-19.809999	1.820000	873.00	-0.20	-0.02
1.70	0.25	0.25	0.25	0.00	0.00	0.50	0.50	0.00	2.50	3.75	1.00	1.00	1.00	2.00	0.00	0.00	1.067871	0.367188	2.365723	-86.099998	452.480011	-74.199997	166.00	0.20	0.05	16.75	11.00	8.50	7.75	5.75	6.25	1.25	2.25	5.00	0.50	0.25	0.25	1.25	2.50	0.00	0.00	-0.169434	0.032715	0.971680	-13.650000	-16.870001	2.520000	893.00	-0.20	-0.02
1.71	0.50	0.00	0.75	0.00	0.00	0.25	0.25	0.00	2.25	3.75	1.00	0.50	1.00	1.00	0.50	0.00	0.870605	0.919434	1.573242	-112.279999	530.109985	-83.930000	151.00	0.18	0.05	16.50	10.50	8.50	7.75	6.00	6.50	1.50	2.50	5.50	0.75	0.25	0.00	1.50	2.75	0.00	0.00	-0.165527	0.047852	0.966797	-12.040000	-13.790000	2.870000	913.00	-0.19	-0.02
1.72	0.00	0.00	0.25	0.00	0.00	0.00	0.25	0.00	2.00	3.75	1.00	0.50	1.00	1.25	0.00	0.00	2.470703	0.773926	5.418945	30.170000	-10.780000	-36.610001	127.00	0.23	0.06	16.00	10.25	8.50	7.75	6.25	6.75	1.75	2.50	5.75	1.00	0.50	0.25	1.75	2.75	0.00	0.00	-0.183105	0.035156	0.962402	-10.430000	-11.270000	3.010000	931.00	-0.18	-0.02
1.73	0.25	0.00	0.50	0.00	0.00	0.00	0.25	0.00	1.25	3.50	0.75	0.50	0.75	1.25	0.00	0.00	1.736816	0.435547	2.884277	16.940001	-183.190002	1.330000	113.00	0.20	0.05	15.50	9.75	8.50	7.50	6.75	6.75	2.00	2.75	6.25	1.00	0.50	0.25	2.00	3.25	0.00	0.00	-0.171875	0.042969	0.957031	-7.070000	-8.820000	4.550000	947.00	-0.16	-0.02
1.74	0.50	0.00	0.25	0.00	0.00	0.25	0.25	0.00	1.50	3.00	1.00	0.50	0.50	1.00	0.50	0.00	1.391113	0.381348	1.603516	-14.280000	-213.430008	22.820000	118.00	0.20	0.05	15.50	9.50	8.25	7.50	6.75	6.75	2.25	3.00	6.50	1.25	0.50	0.25	1.75	3.25	0.00	0.00	-0.178223	0.047852	0.963867	-5.740000	-7.630000	4.550000	954.00	-0.16	-0.01
1.75	0.25	0.00	0.25	0.00	0.00	0.00	0.25	0.00	1.00	2.75	0.50	0.50	0.00	1.00	0.00	0.00	1.244629	0.347168	1.550293	-7.910000	-197.610001	28.980000	83.00	0.21	0.09	15.00	9.00	8.25	7.50	7.00	7.00	2.25	3.25	7.00	1.50	0.75	0.25	2.00	3.25	0.00	0.00	-0.173828	0.028320	0.965820	-3.570000	-6.510000	4.620000	970.00	-0.15	-0.02
1.76	0.50	0.00	0.00	0.00	0.00	0.00	0.00	0.00	1.00	2.75	0.75	0.75	0.00	0.75	0.50	0.00	1.217285	0.189453	1.991699	21.210001	-202.089996	23.379999	89.00	0.22	0.05	14.50	8.50	8.00	7.25	7.00	7.00	2.25	3.75	7.25	1.50	0.75	0.50	2.25	4.00	0.00	0.00	-0.172852	0.021484	0.974609	-0.630000	-5.180000	5.040000	978.00	-0.14	-0.02
1.77	0.00	0.00	0.25	0.00	0.00	0.00	0.00	0.00	0.50	2.50	0.50	0.25	0.00	0.50	0.00	0.00	1.177246	0.068359	2.305664	38.920002	-236.250000	6.230000	57.00	0.22	0.06	13.75	8.00	8.00	7.00	6.75	7.25	2.25	4.00	7.00	1.50	0.75	0.75	2.50	3.50	0.25	0.00	-0.171875	0.019043	0.968750	2.450000	-3.990000	5.530000	965.00	-0.13	-0.03
1.78	0.25	0.00	0.25	0.00	0.00	0.00	0.00	0.00	0.50	2.25	0.50	0.25	0.00	0.50	0.00	0.00	1.050293	0.011230	2.359375	38.360001	-283.290009	-11.340000	57.00	0.19	0.07	12.75	7.25	7.75	7.00	6.75	7.00	2.25	4.25	7.00	1.50	1.00	0.50	2.50	3.25	0.00	0.00	-0.175781	0.032715	0.960449	5.110000	-3.150000	5.950000	936.00	-0.13	-0.03
1.79	0.25	0.00	0.00	0.00	0.00	0.00	0.00	0.00	0.25	2.50	0.25	0.25	0.00	0.50	0.00	0.00	0.838379	0.003906	2.270020	26.530001	-328.579987	-22.889999	49.00	0.00	0.00	12.00	6.75	7.50	6.75	6.25	7.25	2.25	4.75	7.00	1.50	0.75	0.50	2.50	3.25	0.25	0.25	-0.168945	0.032227	0.961914	7.000000	-2.380000	6.160000	922.00	-0.12	-0.03
1.80	0.00	0.00	0.00	0.00	0.00	0.00	0.00	0.00	0.25	2.25	0.50	0.25	0.00	0.25	0.00	0.00	0.588379	0.031250	2.137695	12.180000	-365.959991	-29.469999	44.00	0.00	0.00	11.00	5.75	7.25	6.75	6.00	7.50	2.00	5.00	6.50	1.25	0.75	0.50	2.75	2.75	0.25	0.00	-0.173340	0.041504	0.953125	8.890000	-1.750000	6.370000	881.00	-0.12	-0.04
1.81	0.00	0.00	0.00	0.00	0.00	0.00	0.00	0.00	0.25	2.00	0.50	0.00	0.00	0.25	0.00	0.00	0.340820	0.105957	2.023926	2.520000	-393.540009	-33.599998	38.00	0.00	0.00	10.25	5.75	6.75	6.25	5.75	7.50	1.75	5.25	6.25	1.25	0.75	0.50	3.00	2.50	0.25	0.00	-0.173828	0.047363	0.964844	10.640000	-0.980000	6.510000	851.00	-0.12	-0.05
1.82	0.50	0.00	0.50	0.00	0.00	0.00	0.00	0.00	0.25	1.75	0.25	0.00	0.00	0.25	0.00	0.00	0.116699	0.177246	1.966797	2.660000	-413.350006	-35.980000	44.00	0.00	0.00	9.50	5.00	6.25	6.25	5.50	7.75	1.50	5.25	6.00	1.00	0.75	0.75	3.00	2.00	0.25	0.00	-0.172363	0.042969	0.963867	12.110000	-0.420000	6.580000	813.00	-0.12	-0.06
1.83	0.00	0.00	0.00	0.00	0.00	0.00	0.00	0.00	0.25	1.75	0.25	0.00	0.00	0.00	0.00	0.00	-0.094238	0.239258	1.899414	10.850000	-428.399994	-36.959999	29.00	0.00	0.00	8.75	4.75	6.00	6.00	5.00	7.75	1.50	5.25	5.75	1.00	0.75	0.50	3.00	1.75	0.00	0.00	-0.173828	0.049805	0.962402	13.020000	0.280000	6.440000	775.00	-0.12	-0.07
1.84	0.00	0.00	0.00	0.00	0.00	0.00	0.00	0.00	0.25	1.50	0.25	0.00	0.00	0.00	0.25	0.00	-0.391602	0.236328	1.728516	25.480000	-437.149994	-35.279999	29.00	0.00	0.00	8.25	4.25	5.75	5.75	4.75	8.25	1.25	5.50	5.25	0.75	0.75	0.25	3.25	1.50	0.25	0.25	-0.176270	0.056641	0.951172	13.580000	1.120000	6.160000	751.00	-0.12	-0.08
1.85	0.00	0.00	0.00	0.00	0.00	0.00	0.00	0.00	0.25	1.50	0.00	0.00	0.00	0.25	0.00	0.00	-0.532715	0.241699	1.622559	42.490002	-434.209991	-34.230000	25.00	0.00	0.00	7.75	3.50	5.25	5.50	4.00	8.25	1.25	5.50	5.00	0.75	0.50	0.50	3.50	1.25	0.00	0.00	-0.178711	0.061523	0.950684	13.300000	1.610000	6.020000	708.00	-0.11	-0.09
1.86	0.25	0.00	0.00	0.00	0.00	0.00	0.00	0.00	0.00	1.50	0.25	0.00	0.00	0.00	0.00	0.00	-0.643555	0.250488	1.557617	55.580002	-421.260010	-33.180000	25.00	0.00	0.00	7.00	2.75	5.00	5.00	3.50	8.50	1.00	5.50	4.75	0.75	0.50	0.50	3.25	1.00	0.00	0.00	-0.173340	0.062500	0.945801	12.390000	1.820000	5.740000	664.00	-0.11	-0.09
1.87	0.25	0.00	0.00	0.00	0.00	0.00	0.00	0.00	0.00	1.50	0.25	0.00	0.00	0.00	0.00	0.00	-0.684082	0.274902	1.590820	62.650002	-405.720001	-28.770000	25.00	0.00	0.00	6.25	2.25	4.75	4.75	3.25	8.25	1.00	5.75	4.25	0.75	0.50	0.50	3.50	0.75	0.00	0.00	-0.168945	0.063477	0.943848	11.410000	1.960000	5.390000	633.00	-0.11	-0.10
1.88	0.25	0.00	0.00	0.00	0.00	0.00	0.00	0.00	0.00	1.50	0.00	0.25	0.00	0.00	0.00	0.00	-0.719727	0.323242	1.818848	73.080002	-387.170013	-10.290000	25.00	0.00	0.00	6.25	2.25	4.00	4.50	3.25	8.25	1.00	5.75	4.00	0.75	0.75	0.50	3.75	0.75	0.00	0.00	-0.170410	0.065430	0.941895	10.010000	1.540000	4.970000	621.00	-0.10	-0.11
1.89	0.25	0.00	0.00	0.00	0.00	0.00	0.00	0.00	0.00	1.25	0.00	0.00	0.00	0.00	0.00	0.00	-0.718262	0.354004	2.040527	81.410004	-387.100006	-0.420000	19.00	0.00	0.00	5.50	1.75	3.25	3.75	2.75	8.25	1.00	5.75	3.75	0.50	0.50	0.50	4.00	0.50	0.00	0.00	-0.177246	0.062500	0.943848	6.790000	-0.350000	4.060000	570.00	-0.09	-0.12
1.90	0.00	0.00	0.00	0.00	0.00	0.25	0.00	0.00	0.00	1.25	0.00	0.00	0.00	0.00	0.00	0.00	-0.713867	0.353027	2.216309	94.989998	-393.470001	9.030000	19.00	0.00	0.00	5.00	1.25	3.00	3.50	2.25	8.50	0.75	6.00	3.25	0.75	0.75	0.25	4.25	0.75	0.00	0.00	-0.169922	0.061035	0.939941	5.320000	-1.540000	3.640000	549.00	-0.09	-0.14
1.91	0.50	0.00	0.00	0.00	0.00	0.00	0.00	0.00	0.00	1.25	0.00	0.00	0.00	0.00	0.00	0.00	-0.760742	0.323242	2.323730	109.410004	-403.410004	18.059999	22.00	0.00	0.00	4.00	1.25	2.00	3.25	2.25	8.50	0.75	6.00	3.25	0.75	0.50	0.75	4.50	1.00	0.00	0.00	-0.178711	0.063477	0.941895	4.690000	-2.800000	3.430000	528.00	-0.07	-0.15
1.92	0.25	0.50	0.25	0.00	0.00	0.25	0.00	0.00	0.00	1.25	0.00	0.00	0.00	0.00	0.00	0.00	-0.917480	0.312012	2.378418	119.349998	-412.019989	27.299999	31.00	0.00	0.00	3.25	1.00	2.00	2.50	2.00	9.00	0.75	6.50	3.75	0.75	1.00	1.00	5.00	1.00	0.00	0.00	-0.175293	0.055176	0.953125	5.180000	-4.270000	3.570000	541.00	-0.04	-0.16
1.93	0.00	0.00	0.00	0.00	0.00	0.00	0.00	0.00	0.00	1.25	0.00	0.00	0.00	0.25	0.00	0.00	-1.130371	0.302246	2.415527	126.980003	-415.380005	35.560001	18.00	0.00	0.00	2.50	0.50	2.25	2.25	1.75	9.00	0.75	6.50	3.50	0.75	1.00	1.00	5.75	0.25	0.00	0.00	-0.172363	0.056641	0.945801	6.370000	-5.530000	3.780000	519.00	-0.04	-0.18
1.94	0.00	0.00	0.00	0.00	0.00	0.00	0.00	0.00	0.00	1.25	0.00	0.00	0.00	0.00	0.00	0.00	-1.425293	0.286621	2.451172	139.440002	-413.559998	38.639999	16.00	0.00	0.00	1.50	0.50	1.25	2.00	1.50	9.50	0.75	7.00	3.75	1.00	1.25	1.25	6.25	1.00	0.00	0.00	-0.171875	0.032715	0.919434	8.890000	-5.530000	4.760000	528.00	-0.01	-0.19
1.95	0.25	0.00	0.00	0.00	0.00	0.00	0.00	0.00	0.00	0.75	0.00	0.00	0.00	0.00	0.00	0.00	-1.831543	0.229980	2.557129	158.759995	-408.100006	35.139999	12.00	0.00	0.00	0.75	0.50	1.50	1.75	1.25	9.50	1.00	7.25	4.25	1.50	1.50	1.75	7.00	1.00	0.25	0.25	-0.176270	0.061035	0.944824	12.390000	-4.340000	6.510000	561.00	0.02	-0.19
1.96	0.00	0.00	0.00	0.00	0.00	0.00	0.00	0.00	0.00	0.75	0.00	0.00	0.00	0.00	0.00	0.00	-2.377930	0.117676	2.633301	179.199997	-401.239990	28.559999	9.00	0.00	0.00	0.50	0.25	0.75	1.50	1.25	9.75	1.00	7.75	4.25	1.50	2.50	2.75	8.00	0.75	0.25	0.25	-0.175293	0.054199	0.961914	15.190001	-1.330000	7.980000	587.00	0.04	-0.20
1.97	0.00	0.00	0.25	0.00	0.00	0.00	0.00	0.00	0.00	0.75	0.00	0.00	0.00	0.00	0.00	0.00	-3.031738	-0.006836	2.540039	190.889999	-392.489990	23.379999	13.00	0.00	0.00	0.25	0.00	0.50	1.25	1.25	10.25	1.00	8.25	5.25	2.25	3.25	3.25	8.50	1.50	0.75	0.50	-0.153320	0.062500	0.940918	21.420000	4.550000	8.890000	651.00	0.06	-0.19
1.98	0.00	0.00	0.00	0.00	0.00	0.00	0.00	0.00	0.00	1.00	0.00	0.00	0.00	0.00	0.00	0.00	-3.716797	-0.105469	2.227051	182.979996	-377.579987	22.889999	12.00	0.00	0.00	0.50	0.25	0.00	1.25	1.25	10.00	1.25	8.50	5.75	2.75	5.00	5.00	9.25	1.75	0.50	0.75	-0.177734	0.075684	0.943848	25.200001	10.150000	9.660000	723.00	0.08	-0.19
1.99	0.00	0.00	0.00	0.00	0.00	0.00	0.00	0.00	0.00	1.00	0.00	0.00	0.00	0.00	0.00	0.00	-4.776367	-0.242676	1.055176	145.529999	-308.910004	37.660000	12.00	0.00	0.00	0.00	0.00	0.00	0.75	1.25	10.50	1.50	8.75	6.25	3.75	6.00	6.25	10.50	2.50	1.25	1.00	-0.189941	0.079590	0.923340	25.200001	15.190001	10.220000	803.00	0.10	-0.18
2.00	0.00	0.00	0.00	0.00	0.00	0.00	0.00	0.00	0.00	1.00	0.00	0.00	0.00	0.00	0.00	0.00	-4.776367	-0.242676	1.055176	145.529999	-308.910004	37.660000	12.00	0.00	0.00	0.00	0.00	0.00	0.75	1.00	10.00	1.75	9.25	7.50	5.50	7.25	7.00	11.50	3.25	1.50	1.25	-0.203613	0.100098	0.929688	25.129999	19.670000	9.450000	896.00	0.12	-0.17
2.01	0.00	0.00	0.25	0.00	0.00	0.00	0.00	0.00	0.00	0.75	0.00	0.00	0.00	0.00	0.00	0.00	-5.062988	-0.315430	0.540527	131.110001	-254.029999	37.099998	13.00	0.00	0.00	0.00	0.00	0.00	0.25	1.00	10.00	2.50	9.50	8.25	6.75	8.25	8.00	12.75	4.00	2.00	1.50	-0.162109	0.096680	0.964355	25.620001	26.320000	8.050000	988.00	0.13	-0.15
2.02	0.00	0.00	0.00	0.00	0.00	0.00	0.00	0.00	0.00	0.75	0.00	0.00	0.00	0.00	0.00	0.00	-5.339355	-0.445801	0.166016	130.759995	-195.089996	24.710001	9.00	0.00	0.00	0.00	0.00	0.00	0.00	0.75	9.50	3.00	9.50	8.75	7.50	9.00	8.50	13.75	5.25	2.50	2.25	-0.186523	0.108398	0.999023	29.049999	38.150002	6.510000	1050.00	0.14	-0.14
2.03	0.00	0.00	0.00	0.00	0.00	0.00	0.00	0.00	0.00	0.75	0.00	0.00	0.00	0.00	0.00	0.00	-5.504395	-0.867188	-0.481445	114.029999	-77.139999	8.330000	9.00	0.00	0.00	0.00	0.00	0.00	0.00	0.25	9.00	3.25	9.25	9.25	8.00	9.50	9.25	14.25	7.25	3.50	2.75	-0.185547	0.132812	1.065430	37.170002	79.099998	3.990000	1108.00	0.16	-0.13
2.04	0.25	0.00	0.00	0.00	0.00	0.00	0.00	0.00	0.00	1.00	0.00	0.00	0.00	0.00	0.00	0.00	-5.242188	-0.885254	-0.529297	72.730003	-16.799999	24.080000	16.00	0.00	0.00	0.00	0.00	0.00	0.25	0.50	8.75	3.75	9.25	10.00	8.50	10.25	9.75	15.25	8.00	4.25	3.00	-0.226562	0.105957	1.087891	44.099998	104.510002	2.170000	1183.00	0.16	-0.13
2.05	0.00	0.00	0.00	0.00	0.00	0.00	0.00	0.00	0.00	1.00	0.00	0.00	0.00	0.00	0.00	0.00	-4.895996	-0.858398	-0.330566	27.510000	40.459999	59.570000	12.00	0.00	0.00	0.00	0.00	0.00	0.00	0.25	8.25	3.75	9.00	10.50	9.25	11.00	10.50	16.00	8.75	5.00	3.50	-0.240234	0.090820	1.158203	52.430000	134.050003	2.730000	1229.00	0.17	-0.12
2.06	2.25	1.25	1.50	1.00	0.00	0.50	0.00	0.25	0.00	0.75	0.00	0.00	0.00	0.00	0.00	0.00	-8.346680	-1.655273	0.465820	-118.300003	234.779999	178.710007	95.00	-0.26	-0.04	0.00	0.00	0.00	0.00	0.00	7.25	4.00	8.50	11.25	9.50	11.75	11.25	16.25	9.50	5.25	4.00	-0.302246	0.138184	1.182129	59.220001	167.509995	2.870000	1259.00	0.18	-0.12
2.07	6.00	6.00	3.25	4.00	0.00	1.00	0.00	0.00	0.00	0.00	0.00	0.00	0.00	0.00	0.00	0.00	-3.449219	-0.907715	0.049805	-247.800003	324.309998	149.660004	249.00	-0.35	-0.06	0.00	0.00	0.00	0.00	0.00	6.50	4.25	8.25	11.75	10.00	12.00	11.75	16.75	10.25	6.00	5.00	-0.338379	0.153809	1.224121	61.110001	207.059998	1.330000	1301.00	0.19	-0.11
2.08	17.50	15.00	7.25	8.00	0.00	3.25	0.00	0.75	0.00	0.25	0.00	0.00	0.00	0.00	0.00	0.00	-0.467285	-2.734375	4.606934	-286.720001	360.079987	103.389999	643.00	-0.34	-0.06	0.00	0.00	0.00	0.00	0.00	6.25	4.00	7.75	12.00	10.00	12.50	12.00	17.00	11.25	6.00	5.25	-0.330566	0.220215	1.251465	62.090000	249.410004	-2.590000	1312.00	0.20	-0.11
2.09	24.25	19.00	9.50	9.00	0.25	4.75	0.00	0.75	0.00	0.25	0.00	0.00	0.00	0.00	0.00	0.00	0.568848	-4.335449	3.520020	-309.750000	374.640015	-34.090000	837.00	-0.34	-0.05	0.00	0.00	0.00	0.00	0.00	5.50	4.25	7.25	12.50	10.25	12.75	12.25	16.50	11.75	6.50	5.75	-0.432617	0.207031	1.348633	61.950001	288.470001	-8.330000	1324.00	0.20	-0.10
2.10	24.75	18.50	10.50	9.00	0.50	3.75	0.00	0.50	0.00	0.50	0.00	0.00	0.00	0.00	0.00	0.00	-1.645020	-1.484863	3.533203	-230.020004	447.089996	-101.849998	840.00	-0.34	-0.04	0.00	0.00	0.00	0.00	0.00	5.00	4.50	7.00	12.75	10.25	12.50	12.00	16.00	12.50	7.00	5.75	-0.459961	0.211426	1.382324	55.090000	326.829987	-12.040000	1324.00	0.21	-0.09
2.11	24.00	18.50	11.00	9.25	0.75	4.25	0.00	0.00	0.00	0.50	0.00	0.00	0.00	0.00	0.00	0.00	-1.907715	0.020508	4.101562	-27.440001	400.260010	-39.619999	841.00	-0.34	-0.04	0.00	0.00	0.00	0.00	0.00	3.75	4.75	6.50	12.50	10.00	12.50	11.50	15.25	13.25	7.00	6.25	-0.509277	0.178223	1.556152	47.040001	368.619995	-14.070000	1293.00	0.21	-0.08
2.12	22.75	18.00	11.00	9.50	0.75	4.50	0.00	0.00	0.00	1.00	0.25	0.00	0.00	0.00	0.00	0.00	-0.682129	0.291504	2.306641	87.919998	287.209991	22.820000	836.00	-0.33	-0.04	0.00	0.00	0.00	0.00	0.00	3.00	5.00	6.00	12.50	9.75	11.75	11.00	13.75	13.75	7.25	6.50	-0.593262	0.137207	1.747070	28.559999	412.440002	-11.410000	1254.00	0.22	-0.07
2.13	22.25	17.75	11.75	10.25	1.25	5.25	0.00	0.25	0.25	1.00	0.25	0.00	0.25	0.00	0.00	0.00	-0.079590	0.101074	0.524902	97.790001	246.960007	28.280001	874.00	-0.32	-0.04	0.00	0.00	0.00	0.00	0.00	1.25	5.00	5.75	12.00	9.25	11.00	9.75	12.75	14.25	7.00	6.75	-0.847168	0.362305	2.001465	15.540000	455.910004	-10.080000	1180.00	0.23	-0.06
2.14	22.50	17.75	12.75	11.25	1.75	6.50	0.00	1.25	0.50	1.25	0.25	0.00	0.25	0.00	0.00	0.00	-0.349121	0.480957	0.892090	64.330002	260.959991	0.420000	952.00	-0.31	-0.05	0.00	0.00	0.00	0.00	0.00	0.75	5.25	5.25	11.50	8.50	9.75	8.75	11.00	14.00	7.00	7.00	-1.090332	0.311035	2.354004	-2.450000	503.929993	-14.420000	1105.00	0.23	-0.05
2.15	23.50	18.25	14.00	12.00	3.50	8.50	0.25	2.75	1.00	1.75	0.75	0.75	1.00	0.50	0.00	0.00	-0.666992	0.693848	1.289062	7.490000	251.860001	-14.910000	1120.00	-0.27	-0.06	0.00	0.00	0.00	0.00	0.00	0.00	5.00	4.50	10.50	7.50	8.50	7.75	9.50	13.00	6.50	6.75	-1.849121	0.059082	3.324707	-17.290001	556.359985	-26.250000	987.00	0.24	-0.04
2.16	24.00	17.75	14.75	12.00	4.50	8.75	0.50	2.75	1.50	2.00	0.75	0.25	1.25	1.25	0.00	0.00	-1.077637	0.148926	1.631348	-82.180000	73.360001	-13.300000	1166.00	-0.26	-0.05	0.00	0.00	0.00	0.00	0.00	0.25	4.00	3.00	9.25	6.50	7.25	6.75	8.25	11.25	6.00	5.75	-2.541016	-0.157715	4.252441	-56.070000	595.700012	-37.029999	842.00	0.24	-0.04
2.17	24.75	18.00	15.25	12.25	5.00	9.00	0.50	2.50	2.25	2.25	0.75	0.25	1.75	2.00	0.00	0.00	-0.180176	-0.163086	1.041016	-42.560001	-19.809999	-12.740000	1221.00	-0.25	-0.05	0.00	0.00	0.00	0.00	0.00	0.25	2.75	2.00	8.25	4.75	5.25	5.00	7.00	8.75	4.75	3.75	-2.083496	0.536133	5.204590	-119.349998	601.369995	-48.090000	650.00	0.25	-0.03
2.18	25.50	17.75	15.50	12.25	5.25	9.25	0.75	3.50	2.75	2.75	0.50	0.25	1.75	2.75	0.00	0.00	-0.307617	0.235840	1.007812	-23.170000	-19.250000	-7.070000	1278.00	-0.24	-0.04	0.00	0.00	0.00	0.00	0.00	0.00	1.25	1.00	6.50	2.25	2.00	2.50	5.50	6.25	2.25	1.25	-0.199707	1.407227	4.466797	-88.199997	545.020020	-37.730000	383.00	0.25	-0.01
2.19	25.50	17.50	15.50	12.00	6.00	9.25	1.00	3.50	2.75	2.75	0.50	0.25	1.25	3.25	0.00	0.00	-0.234863	-0.031250	1.004883	-18.059999	-9.870000	-4.970000	1287.00	-0.23	-0.04	0.00	0.00	0.00	0.00	0.00	0.00	0.25	0.75	3.00	0.50	0.25	1.00	3.75	2.75	0.00	0.25	0.693848	0.710449	2.946289	36.680000	585.059998	-64.889999	155.00	0.23	-0.05
2.20	25.50	17.50	15.75	11.75	6.00	9.00	1.00	3.25	3.00	2.50	0.75	0.25	2.00	3.25	0.25	0.00	-0.172852	0.007324	0.978027	-12.670000	-3.360000	-2.870000	1294.00	-0.23	-0.04	0.00	0.00	0.00	0.00	0.00	0.00	0.00	0.25	1.00	0.50	0.50	1.00	2.25	0.75	0.00	0.00	0.473145	0.650391	0.076660	190.119995	686.489990	-176.119995	76.00	0.22	-0.14
2.21	25.50	17.25	15.50	11.75	6.00	9.00	1.00	3.75	3.50	2.75	1.00	0.00	1.50	3.75	0.00	0.00	-0.170410	0.010742	0.978027	-7.420000	-0.560000	-0.910000	1304.00	-0.22	-0.04	0.00	0.00	0.00	0.00	0.00	0.00	0.00	0.00	0.75	0.50	0.50	1.00	1.25	0.50	0.25	0.00	0.682129	1.295898	8.066406	284.970001	454.160004	-255.290009	58.00	0.24	-0.11
2.22	24.75	17.00	15.25	11.50	6.25	9.00	1.00	3.25	3.50	2.75	0.50	0.25	1.75	3.75	0.00	0.00	-0.162598	0.003906	0.984863	-3.010000	3.220000	0.770000	1279.00	-0.22	-0.04	0.00	0.00	0.00	0.00	0.00	0.00	0.00	0.00	0.50	0.50	0.25	1.00	1.00	0.00	0.00	0.00	1.898438	0.510254	6.480469	232.889999	119.349998	-274.679993	40.00	0.00	0.00
2.23	24.00	16.50	15.00	11.25	6.00	9.00	1.00	3.25	3.25	2.75	0.50	0.25	1.25	3.75	0.00	0.00	-0.209473	0.014648	1.001465	1.470000	8.330000	2.660000	1246.00	-0.22	-0.04	0.00	0.00	0.00	0.00	0.00	0.00	0.00	0.00	0.25	0.25	0.50	0.75	0.75	0.25	0.00	0.00	2.041992	0.211914	4.026367	26.950001	-102.269997	-252.000000	33.00	0.00	0.00
2.24	23.50	16.25	14.75	11.00	5.75	8.75	1.00	3.00	3.00	2.50	0.75	0.25	1.50	3.25	0.00	0.00	-0.189453	-0.003906	0.986328	6.090000	12.460000	5.670000	1212.00	-0.23	-0.04	0.00	0.00	0.00	0.00	0.00	0.00	0.00	0.00	0.50	0.25	0.25	0.50	0.25	0.00	0.00	0.00	1.866699	0.757324	2.282715	-149.660004	-174.649994	-216.020004	23.00	0.00	0.00
2.25	22.50	15.50	14.25	10.75	5.50	9.00	0.75	3.00	2.75	2.50	0.50	0.25	0.75	3.25	0.00	0.00	-0.196777	0.020508	0.981934	11.550000	15.750000	8.470000	1163.00	-0.23	-0.04	0.00	0.00	0.00	0.00	0.00	0.00	0.00	0.00	0.00	0.25	0.00	0.50	0.25	0.00	0.00	0.00	1.853516	1.508789	1.713379	-188.649994	-178.570007	-180.949997	12.00	0.00	0.00
2.26	21.75	15.25	13.50	10.50	5.00	8.75	0.75	3.00	2.50	2.25	0.50	0.00	0.50	2.75	0.00	0.00	-0.204590	0.033691	0.997070	16.730000	19.530001	10.640000	1110.00	-0.24	-0.04	0.25	0.00	0.00	0.00	0.00	0.00	0.00	0.00	0.25	0.25	0.00	0.50	0.25	0.00	0.00	0.00	1.606445	1.776367	1.787109	-100.519997	-192.710007	-148.750000	19.00	0.00	0.00
2.27	20.50	14.50	12.75	10.25	4.50	8.50	0.50	2.50	2.00	2.00	0.25	0.00	0.50	2.00	0.00	0.00	-0.223633	0.011719	0.991211	22.469999	23.590000	11.830000	1028.00	-0.25	-0.04	0.00	0.00	0.00	0.00	0.00	0.00	0.00	0.00	0.25	0.00	0.00	0.25	0.00	0.25	0.00	0.00	1.435059	1.506348	1.846191	8.260000	-230.300003	-119.699997	10.00	0.00	0.00
2.28	18.75	13.75	12.00	10.00	3.75	8.50	0.50	2.25	1.50	1.75	0.25	0.00	0.25	1.50	0.00	0.00	-0.221680	0.045410	0.990234	28.210001	26.530001	12.810000	951.00	-0.25	-0.05	0.00	0.00	0.00	0.00	0.00	0.00	0.00	0.00	0.25	0.00	0.00	0.25	0.00	0.00	0.00	0.00	1.229492	1.107422	1.826660	55.160000	-274.959991	-88.199997	7.00	0.00	0.00
2.29	17.25	12.75	11.00	9.50	3.25	8.25	0.50	2.50	0.75	1.75	0.00	0.00	0.50	1.50	0.00	0.00	-0.244141	0.051270	0.996094	33.110001	28.210001	13.090000	884.00	-0.26	-0.06	0.00	0.00	0.00	0.00	0.00	0.00	0.00	0.00	0.25	0.00	0.00	0.25	0.00	0.00	0.00	0.00	1.033691	0.912109	1.814941	39.130001	-314.579987	-51.730000	7.00	0.00	0.00
2.30	15.75	12.00	10.00	9.25	2.50	7.75	0.25	2.00	1.00	1.75	0.00	0.00	0.25	1.00	0.00	0.00	-0.200195	0.079102	0.992676	37.240002	26.250000	12.880000	807.00	-0.26	-0.06	0.00	0.00	0.00	0.00	0.00	0.00	0.00	0.00	0.25	0.00	0.00	0.25	0.00	0.00	0.00	0.00	0.831055	0.914551	1.878906	10.500000	-350.000000	-15.610000	7.00	0.00	0.00
2.31	14.25	10.75	9.00	8.50	2.00	7.50	0.25	1.75	0.50	1.50	0.25	0.00	0.00	0.50	0.00	0.00	-0.222656	0.087402	0.959961	35.209999	22.680000	11.270000	722.00	-0.27	-0.07	0.00	0.00	0.00	0.25	0.00	0.00	0.00	0.00	0.25	0.00	0.00	0.25	0.00	0.00	0.00	0.00	0.585449	0.913086	1.919922	7.420000	-386.260010	14.140000	10.00	0.00	0.00
2.32	12.50	9.25	8.50	7.75	1.50	6.50	0.25	1.50	0.50	1.50	0.00	0.00	0.00	0.50	0.00	0.00	-0.211914	0.041504	0.902832	43.540001	11.270000	8.750000	640.00	-0.27	-0.06	0.00	0.00	0.00	0.00	0.00	0.00	0.00	0.00	0.00	0.00	0.00	0.00	0.00	0.00	0.00	0.00	0.322266	0.812988	1.845215	31.430000	-421.190002	35.630001	0.00	0.00	0.00
2.33	10.75	8.25	7.75	7.25	1.25	5.75	0.00	0.75	0.50	1.50	0.25	0.00	0.00	0.25	0.00	0.00	-0.191406	0.120605	0.775879	28.139999	4.690000	-3.290000	560.00	-0.27	-0.06	0.00	0.00	0.00	0.00	0.00	0.00	0.00	0.00	0.00	0.00	0.00	0.25	0.00	0.00	0.00	0.00	-0.195312	0.513672	1.686035	89.949997	-462.700012	61.670002	3.00	0.00	0.00
2.34	9.25	7.25	7.00	6.25	1.00	5.00	0.00	0.50	0.50	1.50	0.00	0.00	0.00	0.25	0.00	0.00	-0.206055	-0.036133	0.792480	16.100000	10.290000	-9.030000	486.00	-0.27	-0.06	0.00	0.00	0.00	0.00	0.00	0.00	0.00	0.00	0.25	0.00	0.00	0.00	0.00	0.00	0.00	0.00	-0.378418	0.420410	1.686035	102.830002	-469.559998	72.870003	4.00	0.00	0.00
2.35	8.00	6.25	6.25	5.75	1.00	3.50	0.00	0.50	0.25	1.50	0.00	0.00	0.00	0.25	0.00	0.00	-0.200195	-0.184570	0.764648	5.460000	16.940001	-21.210001	420.00	-0.27	-0.05	0.00	0.00	0.00	0.00	0.00	0.00	0.00	0.00	0.00	0.00	0.00	0.00	0.00	0.00	0.00	0.00	-0.540527	0.359863	1.730957	103.110001	-470.399994	86.379997	0.00	0.00	0.00
2.36	7.00	5.50	5.75	5.00	0.75	3.00	0.00	0.50	0.25	1.50	0.00	0.00	0.00	0.25	0.00	0.00	-0.150391	-0.141113	0.700684	-5.110000	25.480000	-38.080002	373.00	-0.27	-0.05	0.00	0.00	0.00	0.00	0.00	0.00	0.00	0.00	0.25	0.00	0.00	0.00	0.00	0.00	0.00	0.00	-0.700684	0.369629	1.778809	95.620003	-467.529999	104.510002	4.00	0.00	0.00
2.37	6.00	4.50	5.00	4.25	0.50	2.50	0.25	0.75	0.50	1.75	0.25	0.00	0.00	0.25	0.00	0.00	-0.051758	0.289551	0.708984	-19.460001	36.330002	-49.070000	339.00	-0.24	-0.05	0.00	0.00	0.00	0.00	0.00	0.00	0.00	0.00	0.00	0.00	0.00	0.00	0.00	0.00	0.00	0.00	-0.875977	0.401855	1.835938	86.590004	-464.730011	126.910004	0.00	0.00	0.00
2.38	5.00	3.75	4.25	3.75	0.75	3.00	0.25	1.25	0.50	2.25	0.25	0.00	1.00	0.50	0.50	0.00	-0.041992	0.758301	0.754883	-37.660000	46.619999	-41.369999	346.00	-0.18	-0.07	0.00	0.00	0.00	0.00	0.00	0.00	0.00	0.00	0.00	0.00	0.00	0.00	0.00	0.00	0.00	0.00	-1.080566	0.216309	1.744141	88.970001	-462.700012	150.289993	0.00	0.00	0.00
2.39	4.25	3.50	3.50	3.00	0.75	3.00	0.25	2.00	1.25	2.75	0.50	0.00	2.25	0.50	0.00	0.00	-0.058594	0.866699	2.190918	-75.459999	41.720001	-23.030001	355.00	-0.13	-0.09	0.00	0.00	0.00	0.00	0.00	0.00	0.00	0.00	0.00	0.00	0.00	0.00	0.00	0.00	0.00	0.00	-1.096680	0.217773	1.646973	95.129997	-456.540009	159.809998	0.00	0.00	0.00
2.40	3.75	2.75	3.25	3.00	0.75	3.25	0.50	2.00	1.75	3.25	1.25	0.75	3.00	1.00	0.00	0.00	-0.181152	-0.017578	1.041504	-47.180000	9.030000	-17.360001	391.00	-0.08	-0.09	0.00	0.00	0.00	0.00	0.00	0.00	0.00	0.00	0.00	0.00	0.00	0.00	0.00	0.00	0.00	0.00	-1.054688	0.109375	1.734375	112.000000	-443.519989	155.399994	0.00	0.00	0.00
2.41	3.75	2.25	3.50	2.75	0.75	3.75	0.50	3.00	2.50	4.00	1.75	1.00	4.75	2.00	0.00	0.00	-0.197266	0.122559	0.936523	-25.480000	-12.530000	-16.940001	469.00	-0.03	-0.10	0.00	0.00	0.00	0.00	0.00	0.00	0.00	0.00	0.00	0.00	0.00	0.00	0.00	0.00	0.00	0.00	-1.004883	-0.079102	1.935547	120.400002	-431.690002	145.180008	0.00	0.00	0.00
2.42	2.75	2.25	3.25	2.75	1.00	4.25	0.75	4.00	4.00	5.50	2.50	1.75	6.50	2.75	0.50	0.00	-0.223633	0.040527	0.978027	-19.320000	-21.420000	-17.710001	578.00	0.02	-0.10	0.00	0.00	0.00	0.00	0.00	0.00	0.00	0.00	0.00	0.00	0.00	0.00	0.00	0.00	0.00	0.00	-0.895020	-0.207031	2.057129	108.430000	-424.970001	132.089996	0.00	0.00	0.00
2.43	2.50	2.00	3.25	2.25	1.00	4.75	1.00	4.50	5.75	7.00	4.00	2.50	7.75	4.75	1.25	0.75	-0.235840	0.035645	0.963867	-11.200000	-22.260000	-16.660000	707.00	0.07	-0.09	0.00	0.00	0.00	0.00	0.00	0.00	0.00	0.00	0.00	0.00	0.00	0.00	0.00	0.00	0.00	0.00	-0.841309	-0.229492	2.150391	88.269997	-420.350006	115.290001	0.00	0.00	0.00
2.44	2.25	1.25	3.00	2.00	1.25	4.75	1.50	5.25	7.00	7.75	5.75	3.50	9.50	5.50	1.75	1.00	-0.256836	0.036133	0.975098	-5.880000	-17.920000	-13.440001	812.00	0.10	-0.09	0.00	0.00	0.00	0.00	0.00	0.00	0.00	0.00	0.00	0.00	0.00	0.00	0.00	0.00	0.00	0.00	-0.930664	-0.208008	2.188477	77.980003	-412.019989	95.690002	0.00	0.00	0.00
2.45	2.00	1.25	2.50	1.50	1.25	4.75	2.00	5.75	8.00	8.50	7.25	5.50	11.00	7.25	2.75	1.75	-0.266602	0.004395	0.972168	-2.520000	-7.770000	-9.940000	933.00	0.13	-0.09	0.00	0.00	0.00	0.00	0.00	0.00	0.00	0.00	0.25	0.00	0.00	0.00	0.00	0.00	0.00	0.00	-1.131348	-0.265625	2.280273	86.730003	-396.410004	73.360001	4.00	0.00	0.00
2.46	2.00	1.25	2.50	1.50	1.25	4.75	2.50	6.25	8.75	9.25	8.00	6.75	12.50	8.50	3.25	2.25	-0.262695	0.031738	0.973633	0.070000	3.430000	-5.320000	1035.00	0.14	-0.09	0.00	0.00	0.00	0.00	0.00	0.00	0.00	0.00	0.00	0.00	0.00	0.00	0.00	0.00	0.00	0.00	-1.546875	-0.320801	2.571289	106.190002	-378.630005	46.900002	0.00	0.00	0.00
2.47	1.25	1.00	1.75	1.25	1.00	5.00	2.75	7.00	9.50	10.00	8.75	7.75	13.75	9.75	4.50	3.00	-0.250000	0.052246	0.974609	3.360000	13.790000	-1.890000	1117.00	0.16	-0.10	0.00	0.00	0.00	0.00	0.00	0.00	0.00	0.00	0.00	0.00	0.00	0.00	0.00	0.00	0.00	0.00	-2.857910	-0.364258	3.140625	110.669998	-377.510010	-10.080000	0.00	0.00	0.00
2.48	1.50	0.75	1.75	1.25	1.00	5.00	3.25	7.50	10.25	10.75	9.50	8.25	15.00	10.75	5.25	3.50	-0.219238	0.053711	1.031250	9.170000	41.790001	3.570000	1208.00	0.16	-0.09	0.00	0.00	0.00	0.00	0.00	0.00	0.00	0.00	0.00	0.00	0.00	0.00	0.00	0.00	0.00	0.00	-3.602051	-0.242676	2.878418	82.110001	-395.079987	-30.380001	0.00	0.00	0.00
2.49	1.00	0.75	1.50	0.75	1.00	5.00	3.50	7.75	11.00	11.25	10.25	8.75	16.25	11.75	5.50	4.25	-0.223633	0.092285	1.031738	12.110000	59.849998	3.570000	1265.00	0.17	-0.09	0.00	0.00	0.00	0.00	0.00	0.00	0.00	0.00	0.00	0.00	0.00	0.00	0.00	0.00	0.00	0.00	-4.317383	-0.016602	2.110352	45.849998	-401.029999	-40.810001	0.00	0.00	0.00
2.50	0.75	0.75	1.25	0.75	1.00	4.50	3.50	7.50	11.75	12.00	10.75	9.25	17.00	13.00	5.75	5.00	-0.239258	0.128418	1.062988	15.400000	81.410004	-0.070000	1310.00	0.18	-0.09	0.00	0.00	0.00	0.00	0.00	0.00	0.00	0.00	0.25	0.00	0.00	0.00	0.00	0.00	0.00	0.00	-4.947266	0.254883	1.087402	25.690001	-379.049988	-46.410000	4.00	0.00	0.00
2.51	0.75	0.75	1.00	0.50	0.75	4.00	3.75	7.50	12.25	12.50	11.25	9.75	17.75	14.00	6.50	5.75	-0.264160	0.106445	1.132812	20.650000	112.209999	-4.130000	1356.00	0.19	-0.09	0.00	0.00	0.00	0.00	0.00	0.00	0.00	0.00	0.25	0.00	0.00	0.00	0.00	0.00	0.00	0.00	-5.428223	0.381836	0.012207	48.230000	-324.380005	-51.730000	4.00	0.00	0.00
2.52	0.75	0.25	0.50	0.25	0.75	3.75	3.50	7.50	12.75	13.00	11.75	10.00	18.25	14.50	6.75	6.00	-0.282715	0.112793	1.162598	23.730000	150.850006	-8.540000	1372.00	0.20	-0.09	0.00	0.00	0.00	0.00	0.00	0.00	0.00	0.00	0.25	0.00	0.00	0.00	0.00	0.00	0.00	0.00	-5.692871	0.154297	-0.707520	108.919998	-242.690002	-54.950001	4.00	0.00	0.00
2.53	0.75	0.25	0.75	0.50	0.50	2.75	3.50	7.00	13.00	13.50	12.25	10.25	19.00	15.50	7.50	6.25	-0.317383	0.148438	1.227051	23.030001	194.669998	-13.300000	1401.00	0.21	-0.08	0.00	0.00	0.00	0.00	0.00	0.00	0.00	0.00	0.00	0.00	0.00	0.00	0.00	0.00	0.00	0.00	-5.833984	-0.454590	-0.729492	156.660004	-153.860001	-47.459999	0.00	0.00	0.00
2.54	0.75	0.25	0.00	0.00	0.50	3.25	3.25	6.75	13.50	13.75	12.50	10.50	18.75	16.00	7.50	6.75	-0.314941	0.161621	1.274414	17.219999	236.320007	-20.090000	1405.00	0.22	-0.08	0.00	0.00	0.00	0.00	0.00	0.00	0.00	0.00	0.00	0.00	0.00	0.00	0.00	0.00	0.00	0.00	-5.825195	-1.021973	-0.455078	146.300003	-77.349998	-23.660000	0.00	0.00	0.00
2.55	0.00	0.00	0.00	0.00	0.25	2.00	3.00	6.25	13.75	14.25	12.75	10.25	18.25	16.50	7.75	7.50	-0.372070	0.140137	1.321289	6.510000	278.529999	-27.090000	1378.00	0.23	-0.08	0.00	0.00	0.00	0.00	0.00	0.00	0.00	0.00	0.25	0.00	0.00	0.00	0.00	0.00	0.00	0.00	-5.834473	-1.305664	-0.202148	92.120003	-19.670000	11.270000	4.00	0.00	0.00
2.56	0.50	0.00	0.00	0.00	0.25	1.25	3.00	5.75	13.75	14.50	12.50	10.25	17.50	16.75	7.75	7.75	-0.426758	0.124023	1.423828	-6.510000	323.399994	-33.110001	1362.00	0.23	-0.07	0.25	0.00	0.50	0.00	0.00	0.00	0.00	0.00	0.00	0.00	0.00	0.00	0.00	0.00	0.00	0.00	-5.740234	-1.369141	-0.345215	33.180000	30.870001	45.570000	10.00	0.00	0.00
2.57	0.50	0.00	0.00	0.00	0.00	1.00	3.00	5.50	13.75	14.50	12.50	10.00	17.00	17.00	8.25	8.00	-0.463867	0.144531	1.501465	-20.790001	371.980011	-37.520000	1353.00	0.24	-0.07	5.00	1.75	1.25	1.25	0.00	0.00	0.00	0.00	0.00	0.00	0.00	0.00	0.00	0.00	0.00	0.00	-2.338379	-2.905273	-5.747070	-49.700001	272.369995	75.389999	114.00	-0.37	0.01
2.58	0.25	0.00	0.00	0.00	0.00	0.50	3.25	5.00	13.50	14.50	12.50	9.75	16.00	17.25	8.00	8.00	-0.621582	0.083008	1.625977	-40.250000	426.860016	-41.650002	1321.00	0.24	-0.06	10.25	8.25	3.00	3.50	0.00	0.50	0.00	0.00	0.00	0.00	0.00	0.00	0.00	0.00	0.00	0.00	-1.685059	-1.472168	4.704102	-240.169998	435.890015	-26.530001	310.00	-0.37	-0.03
2.59	0.00	0.00	0.00	0.00	0.00	0.25	3.50	4.25	13.00	14.25	12.00	9.25	14.50	17.00	7.75	8.00	-0.648926	-0.003418	1.825195	-59.920002	481.110016	-39.830002	1260.00	0.25	-0.05	17.75	15.75	5.25	7.00	0.25	1.50	0.00	0.25	0.00	0.00	0.00	0.00	0.00	0.00	0.00	0.00	-0.554688	-0.872070	3.388184	-367.010010	382.549988	-77.489998	583.00	-0.36	-0.05
2.60	0.00	0.00	0.00	0.00	0.00	0.00	3.75	3.25	12.00	13.50	11.25	8.75	13.50	16.75	7.75	8.25	-0.923340	-0.141113	2.131348	-77.349998	535.150024	-31.219999	1192.00	0.25	-0.04	22.00	18.75	7.50	8.50	0.50	2.75	0.00	0.25	0.00	0.00	0.00	0.00	0.00	0.00	0.00	0.00	-0.817871	-1.394043	1.659180	-391.230011	443.380005	-109.900002	738.00	-0.35	-0.04
2.61	0.00	0.00	0.00	0.00	0.00	0.00	3.75	2.00	10.50	12.25	10.25	8.00	12.50	16.00	7.50	8.00	-1.338379	-0.159180	2.759766	-91.419998	582.750000	-18.690001	1085.00	0.26	-0.04	23.25	20.00	9.00	10.00	1.50	6.25	0.00	0.50	0.00	0.00	0.00	0.00	0.25	0.00	0.00	0.00	-2.279297	-0.738281	5.588379	-81.620003	534.520020	-36.959999	873.00	-0.33	-0.06
2.62	0.00	0.00	0.00	0.00	0.00	0.25	3.25	1.50	9.25	10.75	8.75	7.25	11.25	14.75	6.50	7.25	-2.201660	-0.239258	3.655762	-110.250000	621.599976	-15.960000	961.00	0.26	-0.04	22.75	19.00	9.25	10.75	2.25	8.00	0.00	1.50	0.00	0.00	0.00	0.25	0.75	0.00	0.00	0.00	-2.471680	0.829102	6.087891	-206.430008	349.299988	-42.490002	928.00	-0.32	-0.07
2.63	0.00	0.00	0.00	0.00	0.00	0.25	2.50	0.75	8.25	9.50	7.75	6.00	9.75	13.00	5.25	6.50	-2.754883	0.080078	5.643555	-179.130005	626.289978	-34.090000	821.00	0.26	-0.03	21.00	17.50	9.00	10.25	2.25	8.00	0.00	2.00	0.00	0.00	0.00	0.25	0.75	0.00	0.00	0.00	-1.003418	-0.577148	1.187988	-95.480003	91.629997	11.340000	889.00	-0.31	-0.08
2.64	0.00	0.00	0.00	0.00	0.00	0.00	1.50	0.00	6.75	8.25	5.25	4.00	8.25	10.50	3.75	5.50	-1.718750	0.383789	5.544434	-190.539993	561.960022	-22.190001	625.00	0.27	-0.02	18.00	15.25	8.50	9.50	2.25	8.00	0.25	2.75	1.00	0.25	0.25	0.25	1.75	0.25	0.00	0.00	0.432617	0.010742	0.846680	-47.180000	10.920000	15.400000	863.00	-0.27	-0.08
2.65	0.00	0.00	0.00	0.00	0.00	0.25	0.75	0.00	5.25	6.25	2.75	1.75	5.75	7.50	1.25	2.00	0.398926	0.468262	4.941406	-204.330002	520.030029	0.000000	396.00	0.27	0.00	16.00	13.50	8.25	9.25	2.75	8.75	0.75	4.50	2.50	0.75	0.50	0.50	2.50	1.00	0.00	0.00	-0.517578	0.365234	0.996582	-47.810001	-20.090000	10.500000	921.00	-0.22	-0.09
2.66	0.00	0.00	0.00	0.00	0.00	0.25	0.25	0.00	2.75	4.50	1.00	0.75	3.25	2.25	0.25	0.25	1.224121	0.319336	3.000977	-178.850006	552.020020	12.670000	190.00	0.24	-0.00	14.75	12.00	8.25	9.25	3.25	9.25	1.00	5.50	3.75	1.50	0.75	1.00	4.00	1.50	0.00	0.00	-0.172363	-0.107422	0.978516	-33.670002	-33.389999	8.890000	983.00	-0.18	-0.09
2.67	0.25	0.00	0.00	0.00	0.00	0.00	0.25	0.00	2.00	4.25	1.00	0.75	1.50	1.00	0.00	0.00	0.317871	0.813477	0.654785	-139.229996	710.780029	-49.840000	139.00	0.23	0.03	13.75	10.50	8.25	8.50	4.50	9.75	1.25	6.00	5.00	1.75	1.25	1.25	4.75	2.25	0.25	0.25	-0.263184	0.211914	0.961914	-21.629999	-34.580002	3.430000	1033.00	-0.15	-0.08
2.68	0.50	0.00	0.00	0.00	0.00	0.00	0.25	0.00	2.50	4.25	1.25	0.50	1.00	0.25	0.00	0.00	2.324707	1.152832	10.644043	39.480000	425.950012	-78.120003	137.00	0.21	0.06	13.50	9.25	8.00	8.50	5.50	10.00	1.75	6.25	6.75	2.25	1.75	1.75	5.50	3.00	0.75	0.25	-0.164551	0.031738	0.951660	-15.120000	-28.070000	-2.450000	1111.00	-0.12	-0.07
2.69	0.50	0.00	0.00	0.00	0.00	0.00	0.25	0.00	1.75	4.00	0.50	0.50	0.50	0.25	0.25	0.00	2.742676	-0.376953	6.735352	67.760002	32.619999	-74.970001	111.00	0.20	0.07	12.00	8.00	8.00	8.25	6.25	10.50	2.50	6.50	7.75	3.25	2.00	2.00	6.25	4.25	0.50	0.50	-0.228027	-0.058594	0.994141	-8.120000	-22.190001	-1.960000	1163.00	-0.09	-0.07
2.70	0.00	0.00	0.00	0.00	0.00	0.00	0.00	0.00	1.00	3.25	0.75	0.50	0.75	0.25	0.00	0.00	1.422363	-0.423828	3.274902	-83.860001	-194.600006	-68.110001	82.00	0.24	0.01	10.75	6.75	7.75	7.75	6.50	10.75	3.00	6.75	8.25	4.50	2.75	2.00	6.50	4.75	0.50	0.75	-0.174805	0.023438	0.988770	-1.400000	-13.580000	1.820000	1185.00	-0.06	-0.06
2.71	0.25	0.00	0.00	0.00	0.00	0.00	0.00	0.00	1.25	3.25	0.75	0.25	0.00	0.25	0.00	0.00	0.776367	0.343262	1.448242	-188.020004	-221.339996	-87.709999	78.00	0.22	0.09	9.25	5.75	7.25	7.25	6.50	10.50	3.50	7.00	8.50	5.50	3.25	2.75	7.00	5.25	1.00	0.75	-0.161133	0.018555	0.975098	3.500000	-6.930000	4.130000	1201.00	-0.04	-0.06
2.72	0.00	0.00	0.00	0.00	0.00	0.00	0.00	0.00	0.50	3.00	0.50	0.00	0.00	0.00	0.00	0.00	0.911133	0.956055	0.831055	-129.850006	-168.350006	-112.770004	51.00	0.24	0.07	8.00	4.75	6.50	6.75	6.25	10.25	4.00	7.25	8.75	6.00	3.75	2.75	7.25	5.50	0.75	1.00	-0.164062	0.053711	0.994141	5.180000	-1.960000	3.920000	1185.00	-0.02	-0.06
2.73	0.25	0.00	0.25	0.00	0.00	0.00	0.00	0.00	0.75	2.50	0.75	0.25	0.00	0.00	0.00	0.25	0.926270	0.890137	1.644043	-2.520000	-141.259995	-136.500000	63.00	0.18	0.05	7.00	3.50	5.75	6.00	6.00	10.25	4.00	7.25	9.00	6.25	4.75	3.25	7.50	5.50	0.75	0.75	-0.160645	0.059082	0.987793	5.880000	2.100000	3.080000	1163.00	-0.00	-0.07
2.74	0.00	0.00	0.00	0.00	0.00	0.00	0.00	0.00	0.50	2.50	0.25	0.25	0.00	0.00	0.00	0.00	1.005371	0.678711	2.407227	70.910004	-166.180008	-165.130005	45.00	0.00	0.00	6.25	2.75	5.25	5.00	5.75	9.75	4.25	7.50	9.25	6.75	5.50	3.50	7.75	5.75	0.50	1.00	-0.164551	0.070801	0.977539	5.810000	6.300000	2.240000	1151.00	0.02	-0.07
2.75	0.00	0.00	0.00	0.00	0.00	0.00	0.00	0.00	0.75	2.00	0.25	0.25	0.00	0.00	0.00	0.00	0.953613	0.646484	2.704102	70.769997	-235.479996	-176.190002	43.00	0.00	0.00	5.50	1.75	4.75	4.00	5.50	9.50	4.00	7.25	9.25	7.25	5.75	3.75	8.00	6.00	1.25	1.00	-0.181641	0.045410	0.971680	5.880000	9.240000	2.660000	1122.00	0.04	-0.06
2.76	0.25	0.00	0.00	0.00	0.00	0.00	0.00	0.00	0.00	2.25	0.50	0.00	0.00	0.00	0.00	0.00	0.662598	0.767090	2.578125	37.799999	-319.200012	-159.320007	37.00	0.00	0.00	4.00	1.50	2.75	3.00	4.50	8.75	4.00	7.25	9.50	7.50	6.50	3.75	8.25	6.00	1.00	1.00	-0.162109	0.040527	0.976562	6.860000	12.110000	3.710000	1054.00	0.06	-0.07
2.77	0.00	0.00	0.00	0.00	0.00	0.00	0.00	0.00	0.25	1.75	0.25	0.00	0.00	0.00	0.00	0.00	-0.001465	0.943359	1.910645	-26.740000	-427.000000	-96.110001	29.00	0.00	0.00	2.75	0.75	2.25	2.00	3.50	8.25	4.00	7.25	9.75	7.50	6.75	4.75	8.25	6.00	1.00	1.00	-0.163086	0.083008	0.978516	9.310000	18.969999	2.940000	1010.00	0.09	-0.07
2.78	0.25	0.00	0.00	0.00	0.00	0.00	0.00	0.00	0.25	1.75	0.25	0.00	0.00	0.00	0.00	0.00	-0.214355	0.974609	1.762207	-38.849998	-447.580017	-71.610001	32.00	0.00	0.00	2.50	0.75	1.50	1.50	3.00	7.75	3.75	7.00	9.50	7.50	7.00	4.75	8.25	5.75	1.00	0.75	-0.157227	0.071289	1.043457	13.370000	24.710001	1.680000	964.00	0.10	-0.07
2.79	0.00	0.00	0.00	0.00	0.00	0.00	0.00	0.00	0.25	1.75	0.00	0.00	0.00	0.00	0.25	0.00	-0.361816	0.987305	1.663574	-35.630001	-458.570007	-54.740002	29.00	0.00	0.00	1.25	0.25	0.75	1.75	2.50	7.50	3.75	7.00	9.50	7.50	7.00	5.00	8.50	6.00	1.25	1.00	-0.164551	0.071289	1.013184	15.540000	33.180000	2.660000	939.00	0.12	-0.08
2.80	0.25	0.00	0.25	0.00	0.00	0.00	0.00	0.00	0.00	1.75	0.00	0.00	0.00	0.00	0.00	0.00	-0.483398	1.003418	1.625000	-21.490000	-463.470001	-43.889999	28.00	0.00	0.00	0.50	0.25	1.00	0.75	2.25	7.00	3.25	6.75	9.50	7.50	6.75	5.00	8.50	5.75	1.50	0.75	-0.176758	0.068359	0.975586	18.200001	40.529999	3.710000	893.00	0.13	-0.08
2.81	0.00	0.00	0.25	0.00	0.00	0.00	0.00	0.00	0.00	1.25	0.00	0.00	0.00	0.00	0.00	0.00	-0.551270	0.988281	1.618652	0.840000	-462.420013	-35.910000	19.00	0.00	0.00	1.00	0.25	0.75	0.50	1.75	6.50	3.00	6.50	9.50	7.25	6.75	4.75	8.25	5.75	1.00	1.00	-0.211914	0.061523	1.010742	20.719999	47.950001	4.410000	857.00	0.13	-0.08
2.82	0.00	0.00	0.00	0.00	0.00	0.00	0.00	0.00	0.00	1.25	0.00	0.00	0.00	0.00	0.00	0.00	-0.606934	0.941406	1.673340	27.580000	-459.410004	-28.350000	16.00	0.00	0.00	0.50	0.25	0.75	0.25	1.50	6.25	2.75	6.25	9.25	7.25	6.50	4.75	8.00	5.50	0.75	0.75	-0.210449	0.057129	0.991699	22.049999	54.250000	5.740000	815.00	0.14	-0.08
2.83	0.00	0.00	0.00	0.00	0.00	0.00	0.00	0.00	0.00	1.25	0.00	0.00	0.00	0.00	0.00	0.00	-0.647949	0.894043	1.742188	54.040001	-456.959991	-19.740000	16.00	0.00	0.00	0.00	0.00	0.75	0.50	1.00	5.75	2.50	6.00	9.00	7.00	6.25	4.75	8.00	5.25	0.50	1.00	-0.223145	0.070312	0.969238	20.930000	58.170002	6.440000	773.00	0.15	-0.08
2.84	0.50	0.00	0.00	0.00	0.00	0.00	0.00	0.00	0.00	0.75	0.00	0.00	0.00	0.00	0.00	0.00	-0.706055	0.852051	1.798340	77.000000	-454.230011	-10.640000	16.00	0.00	0.00	0.00	0.00	0.75	0.00	1.00	5.50	2.25	5.75	8.75	6.50	6.25	4.25	7.75	5.00	0.75	0.50	-0.250977	0.095703	0.945801	17.500000	59.430000	7.070000	732.00	0.15	-0.08
2.85	0.00	0.00	0.00	0.00	0.00	0.00	0.00	0.00	0.00	1.25	0.00	0.00	0.00	0.00	0.00	0.00	-0.787598	0.818848	1.856934	97.440002	-449.679993	-1.820000	16.00	0.00	0.00	0.00	0.00	1.00	0.50	0.50	5.00	1.75	5.25	8.50	6.00	5.75	3.75	7.25	4.50	0.00	0.50	-0.244629	0.102051	0.943848	14.280000	58.029999	6.580000	669.00	0.14	-0.08
2.86	0.00	0.00	0.00	0.00	0.00	0.00	0.00	0.00	0.00	1.25	0.00	0.00	0.00	0.00	0.00	0.00	-0.849609	0.774902	1.975098	118.510002	-442.890015	6.160000	16.00	0.00	0.00	0.00	0.00	0.50	0.00	0.50	4.00	1.75	5.00	8.25	5.75	5.50	3.75	7.00	4.25	0.75	0.25	-0.255371	0.097168	0.933105	12.040000	54.320000	4.690000	630.00	0.16	-0.08
2.87	0.00	0.00	0.00	0.00	0.00	0.00	0.00	0.00	0.00	1.00	0.00	0.00	0.00	0.00	0.00	0.00	-0.891113	0.721680	2.161133	141.050003	-437.220001	14.070000	12.00	0.00	0.00	0.00	0.00	0.00	0.00	0.50	3.75	1.50	4.75	7.75	5.25	5.00	3.25	6.75	3.50	0.50	0.25	-0.262207	0.106445	0.881348	10.710000	48.650002	2.940000	571.00	0.16	-0.09
2.88	0.00	0.00	0.00	0.00	0.00	0.00	0.00	0.00	0.00	1.00	0.00	0.00	0.00	0.00	0.00	0.00	-0.920898	0.615234	2.370605	162.190002	-436.940002	23.520000	12.00	0.00	0.00	0.00	0.00	0.50	0.00	0.50	3.50	1.50	4.25	7.75	5.25	5.00	3.00	6.75	3.25	0.25	0.25	-0.270508	0.055664	0.854492	10.850000	41.509998	2.660000	557.00	0.16	-0.08
2.89	0.25	0.00	0.00	0.00	0.00	0.00	0.00	0.00	0.00	1.00	0.00	0.00	0.00	0.00	0.00	0.00	-0.969727	0.527344	2.651367	179.479996	-441.000000	34.369999	16.00	0.00	0.00	0.00	0.00	0.00	0.00	0.00	3.00	1.25	4.25	7.50	5.00	5.00	3.25	6.75	3.00	0.50	0.25	-0.269531	0.052246	0.837402	13.230000	33.110001	4.760000	529.00	0.17	-0.09
2.90	0.00	0.00	0.25	0.00	0.00	0.00	0.00	0.00	0.00	0.50	0.00	0.00	0.00	0.00	0.00	0.00	-1.042969	0.501465	2.992676	184.800003	-447.019989	49.070000	10.00	0.00	0.00	0.00	0.00	0.25	0.00	0.25	3.00	1.25	4.25	7.50	5.00	5.25	3.25	7.00	2.75	0.50	0.25	-0.269531	0.064941	0.861328	17.010000	26.809999	7.910000	539.00	0.16	-0.09
2.91	0.25	0.00	0.00	0.00	0.00	0.00	0.00	0.00	0.00	1.00	0.00	0.00	0.00	0.00	0.00	0.00	-1.375977	0.594727	3.346191	171.710007	-456.470001	71.190002	16.00	0.00	0.00	0.00	0.00	0.25	0.00	0.25	3.00	1.25	4.50	7.50	5.50	5.50	3.75	7.50	3.50	0.75	0.50	-0.247070	0.142090	0.912598	20.160000	26.320000	9.240000	577.00	0.17	-0.09
2.92	0.00	0.00	0.00	0.00	0.00	0.00	0.00	0.00	0.00	0.75	0.00	0.00	0.00	0.00	0.00	0.00	-2.234863	0.804688	3.312500	153.789993	-474.670013	123.620003	9.00	0.00	0.00	0.00	0.00	0.00	0.00	0.25	3.00	1.25	4.75	7.75	5.75	6.25	4.50	7.75	4.25	0.75	0.75	-0.263672	0.148926	0.880371	20.580000	29.540001	6.160000	616.00	0.18	-0.09
2.93	0.00	0.00	0.00	0.00	0.00	0.00	0.00	0.00	0.00	1.25	0.00	0.00	0.00	0.00	0.00	0.00	-2.773438	0.735352	3.086426	184.660004	-466.760010	141.050003	16.00	0.00	0.00	0.00	0.00	0.00	0.00	0.25	3.25	1.25	5.00	8.25	6.50	6.75	5.50	8.50	4.50	1.00	0.75	-0.279785	0.139648	0.909668	20.299999	32.549999	3.150000	673.00	0.18	-0.10
2.94	0.00	0.00	0.00	0.00	0.00	0.00	0.00	0.00	0.00	0.75	0.00	0.00	0.00	0.00	0.00	0.00	-3.403809	0.521484	2.855957	236.180008	-447.019989	162.750000	9.00	0.00	0.00	0.00	0.00	0.00	0.00	0.25	3.25	1.50	5.25	8.75	7.50	7.50	6.25	8.75	5.00	1.25	1.25	-0.297852	0.121094	0.892578	21.210001	36.330002	2.030000	735.00	0.18	-0.09
2.95	0.00	0.00	0.00	0.00	0.00	0.00	0.00	0.00	0.00	0.75	0.00	0.00	0.00	0.00	0.00	0.00	-4.268555	0.337891	2.671387	255.220001	-414.820007	188.229996	9.00	0.00	0.00	0.00	0.00	0.00	0.00	0.00	3.50	1.75	5.25	9.00	7.75	8.25	7.00	9.50	5.75	2.25	1.25	-0.333496	0.121582	0.858887	22.120001	37.730000	2.170000	793.00	0.19	-0.09
2.96	0.00	0.00	0.00	0.00	0.00	0.00	0.00	0.00	0.00	0.50	0.00	0.00	0.00	0.00	0.00	0.00	-5.117188	0.251465	2.459473	220.149994	-377.929993	206.430008	6.00	0.00	0.00	0.00	0.00	0.00	0.00	0.00	3.50	1.75	5.50	9.75	8.50	9.00	7.75	10.50	7.75	2.75	1.75	-0.354004	0.102539	0.904785	21.980000	39.689999	2.800000	878.00	0.20	-0.09
2.97	0.00	0.00	0.00	0.00	0.00	0.00	0.00	0.00	0.00	1.00	0.00	0.00	0.00	0.00	0.00	0.00	-5.923828	0.166504	1.876465	179.550003	-347.619995	210.770004	12.00	0.00	0.00	0.00	0.00	0.25	0.00	0.00	3.50	2.50	5.75	10.50	9.00	9.50	8.25	11.50	8.25	3.50	2.25	-0.338379	0.107910	0.901855	23.100000	44.029999	3.640000	958.00	0.20	-0.09
2.98	0.25	0.00	0.00	0.00	0.00	0.00	0.00	0.00	0.00	0.75	0.00	0.00	0.00	0.00	0.00	0.00	-6.593750	-0.130859	0.627441	186.899994	-311.079987	207.130005	12.00	0.00	0.00	0.00	0.00	0.00	0.00	0.00	3.75	3.00	5.75	11.25	9.50	10.25	9.00	12.25	9.00	4.75	2.25	-0.329590	0.128418	0.977539	25.969999	53.340000	4.130000	1034.00	0.20	-0.08
2.99	0.00	0.00	0.00	0.00	0.00	0.00	0.00	0.00	0.00	1.25	0.00	0.00	0.00	0.00	0.00	0.00	-7.430176	-0.723633	-0.469238	220.009995	-242.479996	190.750000	16.00	0.00	0.00	0.00	0.00	0.00	0.00	0.00	3.00	3.00	6.00	11.75	10.00	11.00	9.50	13.00	9.75	5.00	3.25	-0.327148	0.169922	1.097656	30.100000	72.519997	2.100000	1084.00	0.21	-0.08
3.00	0.00	0.00	0.00	0.00	0.00	0.00	0.00	0.00	0.00	1.00	0.00	0.00	0.00	0.00	0.00	0.00	-7.533691	-1.481934	-1.250488	208.320007	-144.550003	152.880005	12.00	0.00	0.00	0.00	0.00	0.00	0.00	0.00	3.50	3.25	6.00	12.50	10.50	11.75	10.00	13.50	10.75	6.25	4.00	-0.367188	0.184570	1.146484	35.630001	100.449997	-3.010000	1164.00	0.21	-0.08
3.01	0.00	0.00	0.25	0.00	0.00	0.00	0.00	0.00	0.00	0.75	0.00	0.00	0.00	0.00	0.00	0.00	-6.843750	-1.835449	-1.270020	126.000000	-42.560001	104.930000	13.00	0.00	0.00	0.00	0.00	0.00	0.00	0.00	3.00	3.25	6.00	13.25	10.75	12.25	10.50	14.00	11.75	6.75	4.75	-0.395508	0.183105	1.150391	40.180000	132.440002	-8.260000	1211.00	0.22	-0.08
3.02	0.50	0.25	0.50	0.00	0.00	0.00	0.00	0.00	0.00	1.00	0.00	0.00	0.00	0.00	0.00	0.00	-6.299316	-1.420898	-0.453125	18.059999	38.220001	69.720001	28.00	0.00	0.00	0.00	0.00	0.00	0.00	0.00	2.75	3.50	5.75	13.75	11.00	12.50	11.00	14.25	13.00	7.50	5.50	-0.388672	0.134277	1.233887	41.790001	165.690002	-11.270000	1258.00	0.22	-0.07
3.03	4.50	3.75	2.50	2.50	0.00	1.00	0.00	0.00	0.00	0.50	0.00	0.00	0.00	0.00	0.00	0.00	-12.014648	-1.367188	0.672852	-80.570000	247.520004	112.070000	183.00	-0.32	-0.05	0.00	0.00	0.00	0.00	0.00	2.25	3.50	5.75	13.75	11.25	13.00	11.00	14.25	14.00	7.75	6.00	-0.500977	0.131348	1.166016	43.680000	233.449997	-10.220000	1277.00	0.23	-0.07
3.04	15.75	13.25	5.75	7.50	0.00	2.00	0.00	0.00	0.00	0.50	0.00	0.00	0.00	0.00	0.00	0.00	-4.673828	-0.423340	-2.032715	-188.300003	389.619995	76.019997	549.00	-0.35	-0.05	0.00	0.00	0.00	0.00	0.00	2.00	3.75	5.75	14.25	11.50	13.25	11.50	14.00	15.00	8.00	6.50	-0.500977	0.131348	1.166016	43.680000	233.449997	-10.220000	1313.00	0.23	-0.06
3.05	27.75	22.00	10.25	9.75	0.25	4.50	0.00	0.50	0.00	0.75	0.25	0.00	0.00	0.00	0.00	0.00	0.433105	-1.535645	3.898438	-238.210007	441.559998	31.920000	935.00	-0.34	-0.04	0.00	0.00	0.00	0.00	0.00	1.50	4.25	5.50	14.25	11.50	13.25	11.50	14.00	15.75	8.25	6.75	-0.512207	0.081055	1.274414	44.799999	268.239990	-6.650000	1323.00	0.23	-0.06
3.06	27.75	21.25	12.00	10.00	0.75	5.00	0.00	0.25	0.00	0.75	0.25	0.00	0.00	0.00	0.00	0.00	-0.640137	-2.378906	3.142578	-135.309998	562.169983	-28.910000	962.00	-0.34	-0.04	0.00	0.00	0.00	0.00	0.00	0.75	4.75	5.25	14.25	11.25	13.00	11.25	13.50	16.25	8.50	7.25	-0.656738	0.149902	1.499023	33.950001	351.190002	4.690000	1314.00	0.24	-0.05
3.07	26.00	20.00	12.50	10.50	1.00	5.25	0.00	0.75	0.00	1.25	0.25	0.00	0.00	0.00	0.00	0.00	-3.335449	-1.634766	5.322754	-67.620003	689.989990	-87.150002	961.00	-0.33	-0.04	0.00	0.00	0.00	0.00	0.00	0.50	5.00	5.25	13.75	11.00	12.75	10.75	13.00	16.75	8.25	7.50	-0.797363	0.226074	1.886719	25.690001	402.709991	6.440000	1294.00	0.24	-0.05
3.08	24.00	19.50	12.75	11.25	1.50	6.50	0.00	1.25	0.25	1.75	0.50	0.25	0.50	0.00	0.00	0.00	-1.024414	1.347168	2.806152	190.889999	358.119995	-18.270000	998.00	-0.30	-0.05	0.00	0.00	0.00	0.00	0.00	0.25	5.25	5.00	13.50	10.25	12.00	10.25	12.25	16.50	8.25	8.00	-1.150391	0.264648	2.278320	14.350000	462.070007	5.600000	1254.00	0.24	-0.04
3.09	22.00	18.25	12.50	11.75	1.75	8.75	0.00	2.50	0.75	2.00	0.75	0.25	1.00	0.00	0.00	0.00	-0.220703	1.182129	0.210938	135.660004	297.220001	17.780001	1037.00	-0.28	-0.07	0.00	0.00	0.00	0.00	0.00	0.00	5.50	4.50	13.00	9.50	10.75	9.25	11.25	16.25	8.25	8.25	-1.552734	0.364258	2.792969	10.080000	524.650024	0.280000	1190.00	0.24	-0.04
3.10	21.25	17.75	13.25	12.75	3.25	11.00	0.25	5.75	1.50	2.50	1.00	0.75	3.50	0.50	0.00	0.00	-1.225586	0.704102	3.344238	-139.160004	216.720001	3.150000	1216.00	-0.23	-0.09	0.00	0.00	0.00	0.00	0.00	0.00	5.25	3.50	12.00	8.50	9.50	8.25	10.00	15.25	7.75	7.75	-2.444336	0.206543	4.201172	0.280000	584.780029	-13.300000	1078.00	0.25	-0.03
3.11	21.50	17.50	14.25	13.25	4.50	11.75	0.50	6.25	2.25	2.75	1.25	0.75	4.50	1.50	0.00	0.00	-1.358398	-0.101074	1.552734	-143.990005	23.799999	-15.470000	1314.00	-0.22	-0.09	0.00	0.00	0.00	0.00	0.00	0.00	4.50	2.75	10.50	7.75	8.25	7.50	8.75	13.00	7.00	6.75	-2.722656	-0.105957	4.810547	-41.439999	625.520020	-25.200001	942.00	0.25	-0.03
3.12	23.00	17.75	15.25	13.25	5.50	12.00	0.75	6.50	2.75	3.25	1.25	0.75	4.75	3.50	0.25	0.00	-0.055176	0.187500	0.968750	-75.040001	-34.090000	-18.059999	1414.00	-0.20	-0.08	0.00	0.00	0.00	0.00	0.00	0.00	3.00	1.75	9.25	6.00	6.50	6.00	7.25	10.25	5.50	5.00	-2.589844	0.749512	6.321289	-67.760002	616.770020	-21.700001	741.00	0.25	-0.02
3.13	24.00	17.50	15.75	13.25	6.25	11.75	0.75	6.50	3.50	3.75	1.25	0.75	4.75	5.00	0.00	0.00	-0.258789	0.000977	1.053223	-47.459999	-31.219999	-19.809999	1467.00	-0.19	-0.07	0.00	0.00	0.00	0.00	0.00	0.00	1.25	1.25	7.50	3.75	3.75	3.75	5.75	7.50	2.25	1.50	-1.106445	1.265137	5.575195	-59.849998	575.400024	-13.090000	476.00	0.25	-0.01
3.14	24.25	17.50	16.00	13.00	6.75	11.50	1.00	6.50	3.75	3.50	1.00	0.75	5.00	5.50	0.25	0.00	-0.273438	-0.015625	1.010254	-35.000000	-17.430000	-15.330000	1487.00	-0.19	-0.06	0.00	0.00	0.00	0.00	0.00	0.00	0.25	0.50	4.00	1.00	1.25	1.50	4.00	3.50	0.25	0.00	-0.092773	1.091309	3.952148	35.209999	576.590027	-21.420000	203.00	0.24	-0.02
3.15	25.25	17.50	16.25	12.75	7.25	10.75	1.00	6.00	4.50	3.75	1.00	0.75	3.75	6.50	0.25	0.00	-0.241211	0.055176	1.008301	-28.630001	-4.760000	-11.130000	1499.00	-0.18	-0.05	0.00	0.00	0.00	0.00	0.00	0.00	0.00	0.25	2.50	0.75	0.75	1.25	2.50	1.75	0.25	0.00	-0.765137	-1.526367	1.463379	249.619995	660.099976	-140.070007	125.00	0.25	-0.04
3.16	25.50	17.25	16.25	12.50	7.25	10.25	1.00	5.50	5.00	4.00	0.50	0.25	3.50	7.00	0.25	0.00	-0.151855	0.002930	0.977539	-24.430000	2.100000	-9.170000	1481.00	-0.18	-0.04	0.00	0.00	0.00	0.00	0.00	0.00	0.00	0.00	1.50	0.50	0.50	1.25	1.50	1.25	0.00	0.00	-0.196289	1.403809	10.403809	341.600006	554.820007	-291.410004	80.00	0.25	-0.04
3.17	25.25	17.00	16.25	12.00	7.25	9.50	1.00	5.25	5.25	3.75	0.50	0.50	3.00	7.00	0.50	0.00	-0.193359	0.004883	1.007324	-19.809999	7.630000	-7.350000	1456.00	-0.18	-0.04	0.00	0.00	0.00	0.00	0.00	0.00	0.00	0.00	1.25	0.75	0.50	1.00	1.25	1.25	0.00	0.00	1.628906	0.005371	7.247070	340.130005	191.029999	-350.209991	73.00	0.26	-0.03
3.18	24.50	16.25	16.00	11.50	7.00	9.00	1.25	4.00	5.50	3.75	0.50	0.00	2.00	7.00	0.25	0.00	-0.170898	-0.010254	0.987305	-13.790000	15.260000	-5.040000	1385.00	-0.19	-0.02	0.00	0.00	0.00	0.00	0.00	0.00	0.00	0.00	1.50	0.50	0.25	1.00	0.75	1.00	0.00	0.00	1.987793	-0.382812	4.781250	120.400002	-90.440002	-348.250000	63.00	0.26	0.02
3.19	24.25	15.75	15.50	11.00	6.75	8.50	1.25	3.50	5.25	3.75	0.25	0.25	1.50	6.75	0.25	0.00	-0.184082	-0.005859	0.985352	-8.470000	23.170000	-1.960000	1333.00	-0.19	-0.02	0.00	0.00	0.00	0.00	0.00	0.00	0.00	0.00	1.25	0.25	0.25	0.75	0.75	1.50	0.50	0.25	1.852051	0.752930	2.711426	-122.989998	-189.350006	-325.920013	66.00	0.29	0.01
3.20	23.50	15.25	15.00	10.75	6.25	7.75	1.25	3.00	5.50	3.25	0.25	0.25	1.50	6.50	0.00	0.00	-0.166992	-0.016602	0.964355	-2.310000	30.590000	1.890000	1275.00	-0.19	-0.01	0.00	0.00	0.00	0.00	0.00	0.00	0.00	0.00	0.75	0.50	0.25	0.75	0.75	0.75	0.25	0.00	1.784180	2.106934	1.970703	-165.690002	-204.820007	-286.089996	49.00	0.00	0.00
3.21	22.75	14.50	14.50	10.00	6.00	7.25	1.25	2.25	5.50	3.50	0.25	0.00	1.25	6.25	0.25	0.00	-0.166992	-0.016602	0.964355	-2.310000	30.590000	1.890000	1215.00	-0.19	-0.01	0.00	0.00	0.50	0.00	0.00	0.00	0.00	0.00	0.75	0.25	0.25	0.75	0.25	0.50	0.00	0.25	1.559082	1.856445	1.900879	83.019997	-264.459991	-198.729996	43.00	0.00	0.00
3.22	21.50	14.00	14.00	9.50	5.50	6.50	1.00	1.50	5.25	3.25	0.00	0.00	0.00	6.00	0.00	0.00	-0.175781	-0.020508	0.974121	1.540000	31.990000	4.480000	1118.00	-0.20	0.00	0.00	0.00	0.00	0.00	0.00	0.00	0.00	0.00	0.75	0.25	0.00	0.25	0.25	0.75	0.00	0.00	1.460449	1.341309	2.056152	108.500000	-306.459991	-143.710007	28.00	0.00	0.00
3.23	20.00	13.00	13.00	9.25	4.75	5.75	1.00	2.25	5.00	3.50	0.00	0.00	0.50	5.75	0.00	0.00	-0.163086	0.011230	0.965820	9.100000	36.119999	8.890000	1067.00	-0.19	-0.00	0.00	0.00	0.00	0.00	0.00	0.00	0.00	0.00	1.00	0.00	0.25	0.25	0.25	0.25	0.00	0.00	1.356445	1.226562	2.241699	76.790001	-350.070007	-80.570000	27.00	0.00	0.00
3.24	18.50	11.75	12.00	8.50	4.25	5.25	1.00	1.25	5.00	3.50	0.25	0.00	0.00	5.50	0.00	0.00	-0.182617	0.056152	0.955566	10.500000	36.889999	8.400000	976.00	-0.19	0.01	0.00	0.00	0.00	0.00	0.00	0.00	0.00	0.00	0.75	0.00	0.00	0.25	0.00	0.25	0.00	0.00	1.170898	1.227539	2.304199	62.160000	-397.179993	-23.520000	17.00	0.00	0.00
3.25	16.50	10.25	11.25	8.00	3.50	4.50	1.00	0.50	5.00	3.50	0.00	0.00	0.00	5.00	0.00	0.00	-0.195801	0.029297	0.958984	9.660000	37.240002	7.700000	877.00	-0.18	0.02	0.00	0.00	0.00	0.00	0.00	0.00	0.00	0.00	0.50	0.00	0.00	0.25	0.00	0.50	0.00	0.00	0.913086	1.054199	2.237793	94.150002	-442.049988	20.510000	16.00	0.00	0.00
3.26	14.50	9.00	10.00	7.25	3.00	3.00	1.00	1.00	5.00	3.50	0.25	0.00	0.00	4.75	0.00	0.00	-0.192871	0.037109	0.943848	8.470000	37.029999	6.720000	795.00	-0.17	0.02	0.00	0.00	0.00	0.00	0.00	0.00	0.00	0.00	0.25	0.00	0.25	0.00	0.00	0.00	0.00	0.00	0.594238	0.708008	2.195801	150.220001	-478.940002	53.200001	7.00	0.00	0.00
3.27	12.50	8.00	9.25	6.25	2.25	2.75	0.75	0.00	5.00	3.75	0.25	0.00	0.00	4.75	0.00	0.00	-0.151855	0.063965	0.950684	5.950000	35.139999	4.550000	704.00	-0.16	0.03	0.00	0.00	0.00	0.00	0.00	0.00	0.00	0.00	0.25	0.00	0.00	0.00	0.00	0.00	0.00	0.00	0.250000	0.371094	2.131348	197.750000	-504.420013	78.260002	4.00	0.00	0.00
3.28	10.00	7.00	8.50	5.50	1.75	1.50	0.75	0.00	4.75	3.50	0.00	0.00	0.00	4.25	0.00	0.00	-0.152344	0.098145	0.944824	1.890000	33.040001	0.980000	604.00	-0.15	0.04	0.00	0.00	0.00	0.00	0.00	0.00	0.00	0.00	0.00	0.25	0.00	0.00	0.00	0.00	0.00	0.00	-0.082031	0.123535	2.179199	225.820007	-517.929993	98.980003	3.00	0.00	0.00
3.29	8.50	5.75	7.50	4.50	1.50	1.50	0.75	0.00	5.00	4.00	0.25	0.00	0.00	3.75	0.00	0.00	-0.191895	0.107422	0.976074	-2.310000	32.130001	-5.810000	550.00	-0.12	0.05	0.00	0.00	0.00	0.00	0.00	0.00	0.00	0.00	0.25	0.00	0.00	0.00	0.00	0.00	0.00	0.00	-0.390625	-0.054688	2.268066	237.860001	-524.580017	118.090004	4.00	0.00	0.00
3.30	7.25	5.00	6.75	3.75	1.25	1.00	0.75	0.00	5.00	3.75	0.00	0.00	0.00	3.75	0.00	0.00	-0.253906	0.066406	0.951660	-7.980000	33.110001	-12.320000	490.00	-0.11	0.06	0.00	0.00	0.00	0.00	0.00	0.00	0.00	0.00	0.00	0.00	0.00	0.00	0.00	0.00	0.00	0.00	-0.660156	-0.184570	2.325195	238.279999	-527.799988	136.570007	0.00	0.00	0.00
3.31	5.75	3.50	6.00	2.50	0.75	0.75	0.50	0.00	5.00	4.25	0.25	0.00	0.25	3.75	0.00	0.00	-0.216797	0.028809	0.953613	-10.780000	33.180000	-15.820000	426.00	-0.07	0.07	0.00	0.00	0.00	0.00	0.00	0.00	0.00	0.00	0.00	0.00	0.00	0.00	0.00	0.00	0.00	0.00	-0.858398	-0.318359	2.341309	234.360001	-526.400024	152.949997	0.00	0.00	0.00
3.32	4.25	2.50	5.00	2.00	0.75	1.00	0.50	0.00	5.25	5.00	0.25	0.00	0.25	4.00	0.50	0.00	-0.211914	-0.070801	0.920410	-11.410000	32.900002	-15.750000	402.00	-0.01	0.08	0.00	0.00	0.00	0.00	0.00	0.00	0.00	0.00	0.00	0.00	0.00	0.00	0.00	0.00	0.00	0.00	-0.956055	-0.475098	2.333496	229.809998	-519.820007	163.729996	0.00	0.00	0.00
3.33	3.25	1.75	4.25	1.50	0.50	1.00	0.50	0.00	5.75	5.50	0.50	0.00	0.50	3.75	0.00	0.00	-0.208984	-0.093262	0.955078	-9.660000	32.270000	-7.840000	372.00	0.03	0.09	0.00	0.00	0.00	0.00	0.00	0.00	0.00	0.00	0.00	0.00	0.00	0.00	0.00	0.00	0.00	0.00	-1.015137	-0.655762	2.382812	222.040009	-508.339996	165.059998	0.00	0.00	0.00
3.34	2.75	1.75	3.25	1.25	0.50	0.25	0.50	0.00	6.25	6.50	0.75	0.25	0.25	4.50	0.25	0.00	-0.228516	-0.035645	1.071777	-8.400000	38.290001	3.920000	374.00	0.08	0.10	0.00	0.00	0.00	0.00	0.00	0.00	0.00	0.00	0.00	0.00	0.00	0.00	0.00	0.00	0.00	0.00	-1.038086	-0.845215	2.501953	210.979996	-496.369995	154.910004	0.00	0.00	0.00
3.35	2.25	1.25	2.75	1.00	0.50	0.50	0.75	0.00	6.75	7.50	1.25	0.25	1.75	4.75	0.50	0.00	-0.262695	0.175781	0.916016	0.070000	44.170002	-0.350000	408.00	0.12	0.09	0.00	0.00	0.00	0.00	0.00	0.00	0.00	0.00	0.00	0.00	0.00	0.00	0.00	0.00	0.00	0.00	-0.949219	-1.050293	2.812012	171.500000	-484.959991	109.900002	0.00	0.00	0.00
3.36	2.25	1.25	2.25	1.25	0.50	0.75	0.75	0.50	7.50	8.00	2.00	0.50	2.50	5.50	0.50	0.00	-0.253418	0.118652	0.883789	1.820000	41.930000	-9.030000	463.00	0.13	0.06	0.00	0.00	0.00	0.00	0.00	0.00	0.00	0.00	0.00	0.00	0.00	0.00	0.00	0.00	0.00	0.00	-0.959473	-1.068848	3.013184	149.660004	-483.559998	84.769997	0.00	0.00	0.00
3.37	1.75	1.25	2.50	1.25	0.50	0.75	1.00	0.75	8.25	8.50	2.75	1.25	4.00	5.75	1.00	0.00	-0.260254	0.030273	0.881836	2.380000	34.230000	-14.840000	530.00	0.14	0.04	0.00	0.00	0.00	0.00	0.00	0.00	0.00	0.00	0.00	0.00	0.00	0.00	0.00	0.00	0.00	0.00	-1.175293	-1.094238	3.118652	132.860001	-483.980011	66.290001	0.00	0.00	0.00
3.38	2.00	1.00	2.50	1.00	0.75	1.25	1.25	1.00	9.25	9.25	5.00	1.75	5.00	7.25	1.50	0.25	-0.293457	0.017578	0.854004	1.190000	10.290000	-9.030000	638.00	0.16	0.03	0.00	0.00	0.00	0.00	0.00	0.00	0.00	0.00	0.00	0.00	0.00	0.00	0.00	0.00	0.00	0.00	-1.600586	-1.143555	3.091797	122.639999	-479.920013	49.630001	0.00	0.00	0.00
3.39	1.75	0.50	2.50	1.00	0.50	0.25	1.50	1.50	10.25	10.25	6.50	2.25	6.00	8.25	2.25	0.75	-0.295898	0.046387	0.941406	0.420000	0.980000	-8.540000	713.00	0.18	0.02	0.00	0.00	0.00	0.00	0.00	0.00	0.00	0.00	0.00	0.00	0.00	0.00	0.00	0.00	0.00	0.00	-2.129883	-1.097168	3.109863	105.419998	-465.080017	28.980000	0.00	0.00	0.00
3.40	1.75	0.25	2.00	0.75	0.75	0.75	1.75	2.00	11.00	11.00	7.50	3.25	7.25	9.50	3.50	1.25	-0.292480	0.016602	0.964355	-0.210000	0.980000	-8.820000	814.00	0.20	0.00	0.00	0.00	0.00	0.00	0.00	0.00	0.00	0.00	0.25	0.00	0.00	0.00	0.00	0.00	0.00	0.00	-2.863281	-0.833496	3.252441	68.180000	-445.200012	8.330000	4.00	0.00	0.00
3.41	0.75	0.25	2.00	0.50	0.75	0.75	2.25	2.25	11.75	11.50	8.25	4.25	8.75	10.50	4.00	1.50	-0.300781	0.009277	1.012207	1.190000	12.110000	-7.910000	886.00	0.21	-0.01	0.00	0.00	0.00	0.00	0.00	0.00	0.00	0.00	0.00	0.00	0.00	0.00	0.00	0.00	0.00	0.00	-3.520020	-0.380859	3.246582	12.600000	-429.589996	-0.210000	0.00	0.00	0.00
3.42	0.75	0.00	2.00	0.50	0.75	1.50	2.50	2.75	12.75	12.25	9.00	5.75	9.75	11.75	5.00	2.75	-0.300781	0.046387	1.013672	4.410000	29.190001	-7.350000	1003.00	0.21	-0.02	0.00	0.00	0.00	0.00	0.00	0.00	0.00	0.00	0.00	0.00	0.00	0.00	0.00	0.00	0.00	0.00	-4.272949	0.152832	2.949707	-37.590000	-415.589996	7.420000	0.00	0.00	0.00
3.43	1.00	0.50	1.50	0.25	0.75	1.00	2.75	3.00	13.25	12.75	9.50	7.00	10.75	13.00	5.50	3.50	-0.306152	0.056641	1.055176	6.160000	49.980000	-8.610000	1074.00	0.22	-0.02	0.00	0.00	0.00	0.00	0.00	0.00	0.00	0.00	0.00	0.00	0.00	0.00	0.00	0.00	0.00	0.00	-5.220215	0.703125	2.223633	-57.400002	-392.209991	22.469999	0.00	0.00	0.00
3.44	1.00	0.25	1.25	0.25	0.50	1.00	2.75	3.75	13.75	13.25	10.25	7.75	11.75	14.25	6.00	4.25	-0.295898	0.050293	1.088867	8.820000	74.480003	-11.690000	1146.00	0.22	-0.03	0.00	0.00	0.00	0.00	0.00	0.00	0.00	0.00	0.25	0.00	0.00	0.00	0.00	0.00	0.00	0.00	-6.169434	1.088867	0.962891	-27.440001	-348.459991	36.119999	4.00	0.00	0.00
3.45	0.75	0.00	1.00	0.25	0.50	1.25	2.50	3.50	14.25	14.00	10.75	8.00	12.50	15.50	7.25	5.00	-0.330078	0.045898	1.127441	11.760000	105.279999	-14.210000	1198.00	0.23	-0.03	0.00	0.00	0.00	0.00	0.00	0.00	0.00	0.00	0.00	0.00	0.00	0.00	0.00	0.00	0.00	0.00	-6.839844	0.972168	-0.275879	60.340000	-274.470001	51.869999	0.00	0.00	0.00
3.46	0.50	0.00	1.00	0.00	0.25	0.75	2.50	3.25	14.50	14.25	11.25	8.25	13.00	16.50	7.75	5.25	-0.333984	0.022461	1.182617	12.250000	140.979996	-15.050000	1217.00	0.24	-0.03	0.00	0.00	0.00	0.00	0.00	0.00	0.00	0.00	0.00	0.00	0.00	0.00	0.00	0.00	0.00	0.00	-7.072754	0.075195	-0.884766	165.830002	-178.430008	76.860001	0.00	0.00	0.00
3.47	0.50	0.00	0.75	0.00	0.25	0.25	2.25	2.75	15.00	14.75	11.50	8.50	13.25	17.50	8.00	5.75	-0.348145	0.034668	1.190918	10.640000	177.800003	-15.330000	1233.00	0.25	-0.03	0.00	0.00	0.00	0.00	0.00	0.00	0.00	0.00	0.00	0.00	0.00	0.00	0.00	0.00	0.00	0.00	-6.958984	-1.109863	-0.822754	204.889999	-75.250000	105.489998	0.00	0.00	0.00
3.48	0.25	0.00	0.25	0.00	0.25	0.25	2.25	3.00	15.25	15.00	12.00	8.75	13.25	18.25	8.00	6.75	-0.405762	0.080078	1.226562	5.810000	212.940002	-16.520000	1258.00	0.25	-0.03	0.00	0.00	0.00	0.00	0.00	0.00	0.00	0.00	0.00	0.00	0.00	0.00	0.00	0.00	0.00	0.00	-6.717285	-1.826172	-0.553223	147.910004	10.500000	126.770004	0.00	0.00	0.00
3.49	0.50	0.00	0.25	0.00	0.00	0.00	2.25	2.00	15.50	15.50	12.25	8.75	13.00	18.75	8.75	7.25	-0.452637	0.104492	1.302246	-2.450000	250.460007	-20.020000	1265.00	0.26	-0.02	0.00	0.00	0.00	0.00	0.00	0.00	0.00	0.00	0.00	0.00	0.00	0.00	0.00	0.00	0.00	0.00	-5.811035	-1.493652	-0.125977	-30.100000	110.320000	104.860001	0.00	0.00	0.00
3.50	0.00	0.00	0.00	0.00	0.00	0.00	2.25	2.00	15.75	15.75	12.25	8.75	12.50	19.00	9.00	7.75	-0.476562	0.079102	1.429688	-13.160000	293.929993	-25.969999	1266.00	0.27	-0.02	1.50	0.25	0.75	0.50	0.00	0.00	0.00	0.00	0.00	0.00	0.00	0.00	0.00	0.00	0.00	0.00	2.837891	-2.126953	-2.458984	85.050003	327.179993	64.470001	38.00	0.00	0.00
3.51	0.00	0.00	0.00	0.00	0.00	0.00	2.25	1.50	15.25	15.75	12.00	8.50	12.00	19.25	9.00	7.75	-0.543945	0.123535	1.497070	-30.590000	348.739990	-32.130001	1240.00	0.27	-0.02	6.25	4.00	1.50	2.50	0.25	0.25	0.00	0.00	0.00	0.00	0.00	0.00	0.00	0.00	0.00	0.00	0.581543	-1.187988	3.041992	-103.529999	338.239990	-58.029999	181.00	-0.36	-0.03
3.52	0.00	0.00	0.00	0.00	0.00	0.00	2.50	0.75	15.00	15.50	11.75	8.00	10.75	19.50	8.75	8.00	-0.765137	0.139648	1.827637	-81.059998	472.989990	-50.959999	1203.00	0.27	-0.00	14.75	13.00	3.25	5.25	0.00	1.25	0.00	0.00	0.00	0.00	0.00	0.00	0.00	0.00	0.00	0.00	-0.025391	0.334473	-0.903320	-317.940002	381.640015	-155.610001	455.00	-0.37	-0.04
3.53	0.00	0.00	0.00	0.00	0.00	0.00	2.75	0.50	14.25	15.00	11.25	7.50	9.75	19.25	8.50	8.00	-0.932129	0.279785	2.097656	-105.769997	531.859985	-62.020000	1156.00	0.27	0.00	19.75	17.50	5.00	7.25	0.25	2.00	0.00	0.00	0.00	0.00	0.00	0.00	0.00	0.00	0.00	0.00	-0.916016	0.625000	1.849121	-399.769989	555.169983	-163.309998	629.00	-0.36	-0.04
3.54	0.00	0.00	0.00	0.00	0.00	0.00	3.00	0.00	12.75	14.00	10.25	7.00	9.00	18.75	8.25	7.75	-1.429688	0.181152	3.260742	-121.449997	576.659973	-68.739998	1079.00	0.28	0.00	21.50	18.50	7.00	8.50	0.25	3.25	0.00	0.25	0.00	0.00	0.00	0.00	0.00	0.00	0.00	0.00	-2.437988	-0.953613	2.601562	-301.070007	661.710022	-74.410004	726.00	-0.35	-0.05
3.55	0.00	0.00	0.00	0.00	0.00	0.00	3.00	0.00	11.25	12.50	9.00	6.00	8.50	17.50	7.75	7.25	-2.389160	0.266602	4.216797	-126.770004	603.609985	-69.650002	982.00	0.28	0.00	21.25	18.25	8.00	10.25	1.75	7.25	0.00	1.50	0.00	0.00	0.00	0.25	0.50	0.00	0.00	0.00	-2.607422	-1.813965	4.872559	-186.970001	713.720032	-35.139999	859.00	-0.32	-0.07
3.56	0.00	0.00	0.00	0.00	0.00	0.00	2.50	0.00	9.75	11.00	8.00	5.00	7.50	15.25	6.50	6.50	-2.882812	0.319824	4.355957	-115.430000	626.500000	-72.239998	852.00	0.28	0.00	20.75	17.50	9.25	11.25	3.00	9.25	0.50	4.50	1.50	0.75	0.25	0.50	2.25	0.00	0.00	0.00	-7.872070	-0.546875	15.991211	-560.070007	341.110016	-65.870003	1037.00	-0.26	-0.09
3.57	0.00	0.00	0.00	0.00	0.00	0.00	1.50	0.00	8.50	9.50	6.00	3.25	6.25	13.00	5.00	5.50	-2.630371	0.589844	5.566895	-95.480003	613.270020	-78.820000	688.00	0.28	0.01	21.50	17.25	9.25	11.25	3.25	9.50	0.75	4.25	2.00	0.75	0.50	0.25	2.00	0.00	0.00	0.00	-0.590332	-0.850586	1.565430	-219.449997	52.080002	-26.460001	1056.00	-0.26	-0.08
3.58	0.00	0.00	0.00	0.00	0.00	0.25	0.75	0.00	6.75	8.00	3.50	1.75	4.75	9.75	2.75	3.75	-1.047363	0.303223	6.148926	-119.419998	554.470032	-81.480003	494.00	0.28	0.02	19.75	16.25	9.00	10.75	3.25	9.50	1.00	5.00	2.75	0.75	0.50	0.50	2.75	0.50	0.00	0.00	0.615234	-0.149414	0.862305	-20.860001	-6.650000	8.050000	1059.00	-0.23	-0.08
3.59	0.00	0.00	0.00	0.00	0.00	0.25	0.25	0.00	5.00	5.75	1.50	0.50	2.00	5.50	0.25	0.25	1.234375	0.767578	5.474121	-154.770004	513.520020	-74.620003	263.00	0.27	0.08	18.25	15.25	8.75	10.25	3.00	9.50	1.00	5.25	3.50	1.00	0.50	0.50	3.00	0.75	0.00	0.00	-0.516602	0.165039	0.909668	-7.560000	-11.620000	12.670000	1040.00	-0.22	-0.08
3.60	0.00	0.00	0.25	0.00	0.00	0.00	0.25	0.00	3.00	4.75	0.75	0.50	1.00	1.75	0.50	0.00	3.654785	0.881348	3.316895	-186.199997	511.070007	-77.419998	164.00	0.25	0.08	17.50	14.75	8.50	10.00	3.50	9.75	1.25	5.50	3.75	1.50	0.75	0.75	3.75	1.25	0.00	0.25	-0.062988	-0.024414	0.895508	-5.040000	-16.030001	10.570000	1069.00	-0.20	-0.09
3.61	0.50	0.00	0.25	0.00	0.00	0.00	0.25	0.00	2.25	4.50	0.75	0.25	0.50	1.50	0.25	0.00	0.643066	3.176758	7.772461	-107.660004	476.839996	-69.860001	141.00	0.22	0.09	16.50	13.50	8.50	9.75	4.00	10.25	1.25	6.00	4.50	1.50	1.00	1.00	4.50	2.00	0.00	0.00	-0.222656	0.200195	0.943359	-7.350000	-20.299999	4.340000	1093.00	-0.18	-0.09
3.62	0.50	0.00	0.25	0.00	0.00	0.00	0.00	0.00	2.00	4.00	0.50	0.25	0.00	1.50	0.00	0.00	3.247559	1.067871	6.520508	72.309998	118.580002	-28.280001	115.00	0.22	0.12	16.00	12.75	8.50	9.75	4.50	10.25	1.50	6.25	4.75	1.75	1.00	1.00	4.50	1.50	0.25	0.25	-0.190918	0.004883	0.950195	-10.430000	-19.389999	1.120000	1101.00	-0.17	-0.09
3.63	0.75	0.00	0.00	0.00	0.00	0.00	0.00	0.00	1.50	3.75	0.50	0.50	0.00	1.00	0.50	0.00	2.125977	0.167480	4.109375	22.120001	-146.580002	-1.260000	108.00	0.21	0.08	15.75	12.00	8.25	9.50	5.25	10.50	1.50	6.25	5.25	2.00	1.25	1.00	4.75	2.25	0.25	0.25	-0.173340	0.033691	1.000000	-6.650000	-13.650000	1.190000	1120.00	-0.16	-0.08
3.64	0.75	0.00	0.25	0.00	0.00	0.00	0.00	0.00	1.25	3.50	0.50	0.25	0.00	1.00	0.50	0.00	1.553711	0.578613	1.736816	-92.889999	-190.399994	8.330000	101.00	0.19	0.09	15.00	11.00	8.25	9.00	5.25	10.50	1.75	6.50	5.50	1.75	1.25	1.25	5.25	2.50	0.25	0.25	-0.173340	0.033691	1.000000	-6.650000	-13.650000	1.190000	1114.00	-0.15	-0.08
3.65	0.00	0.00	0.50	0.00	0.00	0.00	0.00	0.00	1.25	3.25	0.25	0.25	0.00	1.00	0.25	0.00	1.724121	1.091797	1.518066	-79.870003	-156.660004	6.440000	86.00	0.23	0.10	13.75	10.25	8.00	8.75	5.25	10.00	1.75	6.50	5.25	2.00	1.25	1.00	5.25	2.25	0.25	0.00	-0.161621	0.024902	0.975098	-0.770000	-3.360000	3.430000	1069.00	-0.14	-0.08
3.66	0.50	0.25	0.50	0.00	0.00	0.00	0.00	0.00	1.00	2.75	0.50	0.00	0.00	0.50	0.50	0.25	1.783691	0.863770	2.644531	24.500000	-159.600006	-10.010000	85.00	0.16	0.08	13.00	9.00	7.75	8.50	5.25	10.00	1.75	6.25	5.50	2.00	1.25	1.00	5.25	2.25	0.25	0.25	-0.166992	0.033691	0.979492	1.400000	-0.210000	4.340000	1040.00	-0.13	-0.08
3.67	0.25	0.00	0.25	0.00	0.00	0.00	0.00	0.00	0.75	2.50	0.25	0.00	0.00	0.50	0.25	0.00	1.822754	0.450195	3.164062	94.919998	-222.040009	-34.860001	61.00	0.21	0.10	11.50	8.00	7.25	7.75	5.00	9.75	1.50	6.25	5.25	1.75	1.25	1.25	5.25	2.75	0.00	0.25	-0.162109	0.038086	0.964844	2.730000	2.100000	5.180000	981.00	-0.12	-0.09
3.68	0.25	0.25	0.00	0.00	0.00	0.00	0.00	0.00	0.25	2.00	0.25	0.00	0.00	0.75	0.25	0.00	1.130859	0.410156	2.701660	70.629997	-389.480011	-41.720001	48.00	0.00	0.00	10.00	6.75	6.75	7.25	4.50	9.50	1.50	6.50	5.25	2.00	1.25	1.25	5.50	2.25	0.25	0.25	-0.158203	0.041016	0.950684	3.500000	3.500000	5.670000	934.00	-0.11	-0.09
3.69	0.25	0.00	0.00	0.00	0.00	0.00	0.00	0.00	0.25	2.25	0.25	0.00	0.00	0.50	0.00	0.00	0.720703	0.472168	2.341309	49.070000	-441.489990	-29.960001	43.00	0.00	0.00	8.75	5.75	6.25	6.50	4.25	9.50	1.50	6.25	5.50	2.25	1.50	1.00	5.50	2.25	0.00	0.00	-0.165527	0.043945	0.954590	4.480000	4.620000	5.530000	885.00	-0.10	-0.09
3.70	0.25	0.00	0.25	0.00	0.00	0.00	0.00	0.00	0.00	1.75	0.25	0.00	0.00	0.25	0.00	0.00	0.384766	0.493164	2.096680	40.459999	-470.540009	-20.580000	34.00	0.00	0.00	7.75	4.75	5.50	6.00	3.75	9.00	1.50	6.50	5.50	2.25	1.50	1.50	5.50	2.25	0.00	0.25	-0.158691	0.052734	0.959473	5.460000	5.740000	4.830000	845.00	-0.08	-0.10
