# time	left pressure 1[N/cm²]	left pressure 2[N/cm²]	left pressure 3[N/cm²]	left pressure 4[N/cm²]	left pressure 5[N/cm²]	left pressure 6[N/cm²]	left pressure 7[N/cm²]	left pressure 8[N/cm²]	left pressure 9[N/cm²]	left pressure 10[N/cm²]	left pressure 11[N/cm²]	left pressure 12[N/cm²]	left pressure 13[N/cm²]	left pressure 14[N/cm²]	left pressure 15[N/cm²]	left pressure 16[N/cm²]	left acceleration X[g]	left acceleration Y[g]	left acceleration Z[g]	left angular X[dps]	left angular Y[dps]	left angular Z[dps]	left total force[N]	left center of pressure X[%]	left center of pressure Y[%]	right pressure 1[N/cm²]	right pressure 2[N/cm²]	right pressure 3[N/cm²]	right pressure 4[N/cm²]	right pressure 5[N/cm²]	right pressure 6[N/cm²]	right pressure 7[N/cm²]	right pressure 8[N/cm²]	right pressure 9[N/cm²]	right pressure 10[N/cm²]	right pressure 11[N/cm²]	right pressure 12[N/cm²]	right pressure 13[N/cm²]	right pressure 14[N/cm²]	right pressure 15[N/cm²]	right pressure 16[N/cm²]	right acceleration X[g]	right acceleration Y[g]	right acceleration Z[g]	right angular X[dps]	right angular Y[dps]	right angular Z[dps]	right total force[N]	right center of pressure X[%]	right center of pressure Y[%]
0.00	6.00	17.50	3.00	10.00	0.00	6.75	0.50	5.50	0.00	2.75	5.00	3.50	1.50	0.00	0.00	3.50	-0.211914	0.214355	1.081543	-58.730000	43.540001	-7.560000	681.00	-0.16	-0.18																									
0.01	6.25	17.25	2.75	10.25	0.00	6.75	0.50	5.50	0.00	2.75	5.00	3.50	1.25	0.00	0.00	3.50	-0.249023	0.149902	1.137207	-44.450001	31.710001	-6.510000	679.00	-0.16	-0.18	0.00	0.25	0.00	0.00	0.00	0.00	0.25	0.00	0.00	0.75	0.25	0.00	0.00	0.00	0.00	0.00	-0.318359	0.062500	1.294922	-74.760002	-116.270004	-37.869999	17.00	0.00	0.00
0.02	6.25	17.00	2.50	9.75	0.00	6.75	0.50	5.50	0.00	2.75	4.75	3.75	1.50	0.00	0.00	3.50	-0.203125	0.191895	1.006348	-28.420000	21.840000	-4.970000	671.00	-0.16	-0.18	0.00	0.25	0.00	0.25	0.00	0.00	0.25	0.00	0.25	0.50	0.50	0.00	0.00	0.00	0.00	0.00	-0.449707	0.000000	1.224609	-64.400002	-109.340004	-34.020000	23.00	0.00	0.00
0.03	6.00	17.50	2.50	9.75	0.00	6.50	0.75	5.50	0.00	2.75	5.00	3.50	1.50	0.25	0.00	3.75	-0.180664	0.232910	0.955566	-21.910000	19.809999	-4.200000	677.00	-0.15	-0.17	0.00	0.75	0.25	0.50	0.25	0.00	0.25	0.00	0.00	0.75	0.50	0.00	0.00	0.25	0.00	0.00	0.158203	-0.083008	0.599121	-32.970001	-42.630001	-6.650000	37.00	0.00	0.00
0.04	6.00	16.25	2.50	9.50	0.00	6.00	0.50	5.25	0.00	2.75	4.75	3.50	1.25	0.25	0.00	3.75	-0.174316	0.225098	0.938965	-23.170000	20.860001	-5.040000	645.00	-0.15	-0.17	0.25	1.00	0.25	0.75	0.25	0.00	0.50	0.00	0.25	0.75	0.25	0.00	0.00	0.25	0.00	0.00	-0.122559	0.046387	1.034180	-17.639999	-25.480000	4.410000	49.00	0.00	0.00
0.05	5.50	14.75	2.25	8.75	0.00	5.75	0.75	5.25	0.00	2.75	4.75	3.50	1.25	0.00	0.00	3.75	-0.187012	0.227051	0.944336	-26.250000	22.260000	-6.650000	614.00	-0.14	-0.18	0.50	2.00	0.50	1.75	0.75	0.25	0.50	0.00	0.75	1.00	0.50	0.00	0.00	0.50	0.00	0.00	-0.122070	0.158691	1.017090	-15.680000	-23.799999	3.080000	97.00	-0.10	-0.01
0.06	5.25	13.50	2.00	8.25	0.00	5.25	0.75	5.00	0.00	2.75	5.00	3.50	1.50	0.25	0.00	3.75	-0.193359	0.218750	0.960449	-29.049999	23.799999	-7.980000	590.00	-0.13	-0.17	1.25	2.00	1.00	0.75	0.50	0.25	0.50	0.00	0.75	1.00	0.25	0.00	0.00	1.25	0.00	0.00	-0.151855	0.130859	1.007324	-16.450001	-19.250000	1.050000	100.00	-0.09	0.04
0.07	4.50	11.25	1.50	7.50	0.00	4.25	0.75	4.50	0.00	2.75	4.75	3.50	1.00	0.25	0.00	3.75	-0.233398	0.189453	1.061035	-27.719999	22.960001	-9.170000	522.00	-0.12	-0.17	0.75	2.00	1.00	2.25	0.75	0.25	0.75	0.00	1.00	1.00	0.50	0.00	0.00	1.25	0.00	0.00	-0.169922	0.072754	1.004395	-14.070000	-15.680000	0.700000	124.00	-0.08	0.01
0.08	3.25	9.00	1.50	6.25	0.00	3.00	0.50	3.75	0.00	2.50	5.00	3.50	1.00	0.25	0.00	3.75	-0.230469	0.183105	0.991699	-20.299999	18.620001	-10.080000	446.00	-0.09	-0.18	1.25	2.75	1.25	3.00	1.00	0.00	0.75	0.00	1.50	1.00	0.50	0.00	0.25	1.75	0.00	0.00	-0.187988	0.080078	0.982422	-10.220000	-13.370000	2.450000	160.00	-0.09	0.01
0.09	3.00	7.00	1.00	5.50	0.00	1.75	0.50	2.50	0.00	2.75	5.00	3.25	0.75	0.00	0.00	3.50	-0.252441	0.201660	1.021973	-19.110001	17.430000	-9.730000	373.00	-0.08	-0.17	1.50	3.50	1.50	3.75	1.00	0.75	0.75	0.25	1.50	0.75	0.50	0.00	0.50	2.25	0.00	0.00	-0.132324	0.114746	0.972656	-4.830000	-12.320000	4.550000	196.00	-0.11	-0.03
0.10	2.00	6.25	0.75	4.00	0.00	1.00	0.50	1.50	0.00	2.50	5.00	3.00	0.75	0.50	0.00	3.50	-0.304199	0.151855	1.117188	-10.080000	10.430000	-8.470000	312.00	-0.05	-0.16	2.00	4.75	2.25	5.00	1.25	0.75	0.75	0.50	1.75	1.00	0.25	0.00	0.25	1.75	0.00	0.00	-0.169434	0.101562	0.988281	-3.150000	-14.280000	4.270000	238.00	-0.15	-0.04
0.11	0.75	5.00	0.50	2.75	0.00	0.50	0.50	1.00	0.00	2.25	4.75	3.25	0.25	0.00	0.00	3.50	-0.271484	0.135742	1.087402	1.470000	0.560000	-6.720000	247.00	-0.01	-0.16	2.75	5.50	3.00	5.50	1.50	1.25	0.75	0.50	2.00	1.00	0.50	0.00	0.25	2.25	0.00	0.00	-0.164551	0.116211	0.985352	-1.610000	-12.950000	4.060000	285.00	-0.15	-0.03
0.12	0.50	4.00	0.25	1.75	0.00	0.25	0.50	0.50	0.00	2.50	4.75	3.00	0.25	0.00	0.00	3.75	-0.336914	0.132324	1.049805	14.490000	-6.930000	-5.110000	212.00	0.04	-0.15	3.75	7.00	3.25	6.25	1.50	1.25	0.75	0.25	1.75	1.00	0.50	0.00	0.25	2.00	0.00	0.00	-0.145020	0.113770	0.975586	-3.220000	-10.850000	3.640000	311.00	-0.19	-0.04
0.13	0.25	2.75	0.25	1.00	0.00	0.00	0.75	0.25	0.00	2.50	4.75	3.25	0.00	0.25	0.00	3.50	-0.321289	0.225098	1.044922	18.340000	-9.380000	-2.100000	188.00	0.09	-0.13	4.00	8.50	4.00	7.50	1.75	1.50	0.75	0.50	2.00	1.25	0.50	0.00	0.50	2.00	0.00	0.00	-0.144043	0.105469	0.985840	-5.530000	-9.450000	3.010000	367.00	-0.19	-0.05
0.14	0.00	1.75	0.25	0.75	0.00	0.00	0.50	0.00	0.00	2.50	4.75	3.00	0.00	0.00	0.00	3.50	-0.443359	0.117676	0.801758	23.590000	-12.810000	-1.330000	161.00	0.13	-0.14	5.75	9.50	4.50	8.00	1.75	1.75	0.75	0.50	2.25	1.00	0.25	0.00	0.25	2.00	0.00	0.00	-0.157715	0.088379	0.986816	-5.390000	-7.980000	2.520000	404.00	-0.21	-0.04
0.15	0.25	0.75	0.00	0.75	0.00	0.00	0.50	0.00	0.00	2.50	4.50	3.00	0.00	0.00	0.00	3.50	-0.776855	-0.125488	1.193848	11.340000	-15.820000	-12.460000	149.00	0.17	-0.13	6.50	10.50	5.50	8.50	2.00	2.00	0.75	0.75	2.00	0.75	0.25	0.00	0.25	2.00	0.00	0.00	-0.146484	0.095215	0.988281	-4.200000	-5.950000	2.940000	441.00	-0.23	-0.05
0.16	0.00	0.25	0.00	0.00	0.00	0.00	0.50	0.00	0.00	2.50	5.00	3.00	0.00	0.00	0.00	3.50	-1.805664	-0.180664	0.394043	-22.049999	-32.480000	-35.910000	139.00	0.22	-0.13	7.25	10.75	5.50	9.00	2.00	2.00	0.75	0.50	2.25	1.00	0.50	0.00	0.00	1.75	0.00	0.00	-0.143066	0.095703	0.980469	-3.360000	-4.270000	3.360000	457.00	-0.23	-0.04
0.17	0.00	0.50	0.00	0.00	0.00	0.00	0.50	0.00	0.00	2.50	4.75	3.00	0.00	0.25	0.00	3.75	-2.161621	0.092285	-0.011230	-0.630000	-12.250000	-72.590004	142.00	0.22	-0.13	7.75	11.50	6.00	9.25	2.00	2.25	0.75	0.50	2.25	1.25	0.25	0.00	0.25	1.75	0.00	0.00	-0.140625	0.097168	0.979980	-2.800000	-3.080000	3.640000	482.00	-0.23	-0.04
0.18	0.00	0.00	0.00	0.00	0.00	0.00	0.50	0.00	0.00	2.50	4.75	2.75	0.00	0.00	0.00	3.50	-2.083008	-0.191895	0.458496	14.210000	34.930000	-99.330002	131.00	0.24	-0.13	8.00	12.00	5.75	9.50	2.00	2.25	0.75	0.50	2.25	1.00	0.25	0.00	0.25	2.00	0.00	0.00	-0.152344	0.099609	0.979492	-2.310000	-1.400000	3.640000	489.00	-0.23	-0.05
0.19	0.00	0.25	0.00	0.00	0.00	0.00	0.50	0.00	0.00	2.25	5.00	2.75	0.00	0.00	0.00	3.50	-1.731934	-0.109863	0.852539	-39.480000	57.680000	-98.070000	134.00	0.22	-0.13	7.75	11.75	6.25	9.50	2.00	2.25	0.75	0.50	2.25	1.25	0.50	0.00	0.50	1.75	0.00	0.00	-0.156738	0.097656	0.982910	-2.100000	-0.350000	3.710000	495.00	-0.23	-0.05
0.20	0.00	0.00	0.00	0.00	0.00	0.00	0.50	0.00	0.00	2.25	4.75	2.75	0.00	0.00	0.00	3.75	-1.170410	0.154297	0.513184	-78.050003	92.330002	-59.849998	130.00	0.24	-0.13	8.00	12.00	6.50	9.75	2.00	2.25	0.75	0.50	2.25	1.25	0.25	0.00	0.00	2.00	0.00	0.00	-0.150879	0.105957	0.968262	-2.800000	0.280000	3.710000	500.00	-0.23	-0.04
0.21	0.00	0.75	0.00	0.00	0.00	0.00	0.75	0.00	0.00	2.50	4.75	3.00	0.00	0.00	0.00	3.50	-0.760742	0.349609	0.610840	-66.360001	116.270004	-43.959999	145.00	0.20	-0.12	8.25	12.50	6.50	9.75	2.00	2.00	0.75	0.25	2.25	1.25	0.25	0.00	0.00	2.25	0.00	0.00	-0.145996	0.108398	0.966309	-4.410000	-0.560000	3.220000	503.00	-0.24	-0.04
0.22	0.00	0.00	0.00	0.00	0.00	0.00	0.75	0.00	0.00	2.25	4.75	2.75	0.00	0.25	0.00	3.75	-0.464844	0.702637	0.849609	-55.650002	128.029999	-22.330000	136.00	0.24	-0.12	8.25	12.25	6.75	10.00	2.00	2.25	0.75	0.50	2.50	1.25	0.25	0.00	0.00	2.00	0.00	0.00	-0.147949	0.103516	0.975098	-5.600000	-1.190000	2.800000	514.00	-0.23	-0.04
0.23	0.00	0.00	0.00	0.00	0.00	0.00	0.50	0.00	0.00	2.75	4.75	2.75	0.00	0.00	0.00	3.75	-0.144531	0.781250	0.873535	-32.689999	126.419998	4.410000	135.00	0.24	-0.13	8.25	12.50	6.75	9.75	2.00	2.25	0.75	0.25	2.25	1.25	0.25	0.00	0.00	2.00	0.00	0.00	-0.154297	0.108398	0.979492	-6.230000	-1.750000	2.100000	506.00	-0.24	-0.04
0.24	0.00	0.00	0.00	0.00	0.00	0.00	0.50	0.00	0.00	2.75	4.75	2.75	0.00	0.00	0.00	3.50	0.236328	0.645020	0.767090	-7.490000	121.940002	30.240000	134.00	0.24	-0.12	8.50	12.50	6.75	10.00	2.00	2.00	0.75	0.25	2.50	1.50	0.25	0.00	0.00	2.00	0.00	0.00	-0.163574	0.095703	0.973633	-5.600000	-2.170000	2.030000	515.00	-0.23	-0.04
0.25	0.00	0.00	0.00	0.00	0.00	0.00	0.50	0.00	0.00	3.00	4.75	3.00	0.00	0.00	0.00	3.75	0.517578	0.468262	0.778809	6.160000	116.480003	50.610001	141.00	0.24	-0.13	8.50	12.75	7.00	10.00	2.00	2.00	0.75	0.25	2.50	1.50	0.25	0.00	0.50	1.75	0.00	0.00	-0.152344	0.092285	0.974609	-5.180000	-3.010000	2.240000	522.00	-0.23	-0.04
0.26	0.00	0.00	0.00	0.00	0.00	0.00	0.50	0.00	0.00	2.50	5.00	3.00	0.00	0.00	0.00	3.75	1.203613	-0.119141	2.261719	-53.340000	83.230003	61.459999	138.00	0.24	-0.13	8.75	13.25	7.00	10.25	2.00	2.25	0.75	0.25	2.50	1.75	0.25	0.00	0.00	2.00	0.00	0.00	-0.152344	0.095703	0.979004	-4.410000	-3.500000	2.590000	535.00	-0.23	-0.04
0.27	0.00	0.00	0.00	0.00	0.00	0.00	0.50	0.00	0.00	2.75	5.25	3.25	0.00	0.00	0.00	3.75	1.488770	0.347168	1.051758	-35.490002	21.980000	74.129997	146.00	0.24	-0.13	8.75	13.50	6.75	10.25	2.00	2.25	0.75	0.25	2.50	1.75	0.25	0.00	0.00	2.00	0.00	0.00	-0.151855	0.089844	0.977539	-2.870000	-3.430000	3.220000	535.00	-0.24	-0.04
0.28	0.00	0.00	0.00	0.00	0.00	0.00	0.50	0.00	0.00	3.00	5.25	3.50	0.00	0.00	0.00	3.50	1.544434	-0.253906	1.446777	4.270000	-15.750000	59.709999	150.00	0.23	-0.13	8.75	13.25	7.25	10.25	2.00	2.00	0.75	0.25	2.50	1.50	0.50	0.00	0.00	2.00	0.00	0.00	-0.150391	0.089844	0.976074	-1.190000	-3.360000	3.570000	535.00	-0.24	-0.04
0.29	0.00	0.00	0.00	0.00	0.00	0.00	0.50	0.00	0.00	2.75	5.25	3.00	0.00	0.00	0.00	3.75	1.416016	-0.235840	1.370605	-8.540000	-58.029999	45.779999	143.00	0.24	-0.13	8.50	13.50	7.00	10.50	2.00	2.25	0.75	0.50	2.50	1.25	0.25	0.00	0.00	1.75	0.00	0.00	-0.170898	0.096680	0.979980	1.330000	-3.780000	3.990000	534.00	-0.24	-0.04
0.30	0.00	0.00	0.00	0.00	0.00	0.00	0.50	0.00	0.00	3.00	5.25	3.00	0.00	0.25	0.00	3.75	1.191406	0.139160	1.448242	-27.230000	-81.970001	39.689999	148.00	0.24	-0.12	9.25	13.50	7.25	10.50	2.00	2.50	0.75	0.50	2.25	1.25	0.00	0.00	0.25	1.50	0.00	0.00	-0.157715	0.104980	0.975586	5.110000	-4.340000	4.830000	542.00	-0.25	-0.05
0.31	0.00	0.00	0.00	0.00	0.00	0.00	0.50	0.00	0.00	3.00	5.25	3.00	0.25	0.25	0.00	3.75	0.196777	0.237793	1.265625	-17.710001	-100.449997	31.150000	150.00	0.24	-0.13	9.25	13.75	7.25	10.75	2.00	2.75	0.75	0.25	1.75	1.00	0.00	0.00	0.50	1.25	0.00	0.00	-0.152344	0.109863	0.974609	5.530000	-4.270000	5.390000	536.00	-0.26	-0.05
0.32	0.00	0.00	0.00	0.00	0.00	0.00	0.50	0.00	0.00	3.25	5.50	3.00	0.00	0.25	0.00	3.75	-0.265625	0.344727	1.021484	-11.270000	-93.029999	12.180000	153.00	0.24	-0.12	9.00	13.75	7.25	10.75	2.00	2.75	0.75	0.50	2.00	1.00	0.00	0.00	0.00	1.25	0.00	0.00	-0.149902	0.114258	0.974609	4.550000	-3.150000	5.740000	537.00	-0.26	-0.05
0.33	0.00	0.00	0.00	0.00	0.00	0.00	0.50	0.00	0.00	3.25	5.50	3.00	0.00	0.00	0.00	4.00	-0.286133	0.222168	1.082520	-21.000000	-76.440002	1.120000	153.00	0.24	-0.12	9.50	14.25	7.25	11.00	2.00	2.75	0.75	0.50	1.50	1.00	0.25	0.00	0.00	1.00	0.00	0.00	-0.151367	0.094238	0.976074	4.340000	-1.960000	5.390000	543.00	-0.27	-0.06
0.34	0.00	0.00	0.00	0.00	0.00	0.00	0.50	0.00	0.00	3.25	5.75	2.75	0.00	0.75	0.00	3.75	-0.192871	0.100586	1.068848	-20.510000	-60.480000	-4.480000	158.00	0.24	-0.11	9.25	14.50	7.50	11.00	2.00	2.75	0.75	0.50	1.75	1.25	0.00	0.00	0.00	1.00	0.00	0.00	-0.161133	0.095215	0.982422	6.510000	-0.980000	5.600000	549.00	-0.26	-0.05
0.35	0.00	0.00	0.00	0.00	0.00	0.00	0.75	0.25	0.00	3.00	5.50	3.25	0.25	0.25	0.00	3.75	-0.099121	0.242676	1.152832	21.700001	-18.690001	0.980000	163.00	0.23	-0.13	9.50	14.50	7.25	11.00	2.00	3.25	0.50	0.50	1.25	1.00	0.25	0.00	0.00	0.75	0.00	0.00	-0.151367	0.101074	0.981934	8.820000	0.000000	5.670000	542.00	-0.28	-0.06
0.36	0.00	0.00	0.00	0.00	0.00	0.00	0.75	0.25	0.00	3.25	5.75	3.25	0.25	0.50	0.00	3.75	-0.147949	0.132324	1.041504	23.590000	-8.050000	7.980000	170.00	0.23	-0.12	9.25	14.25	7.50	11.00	1.75	3.00	0.50	0.25	1.00	1.00	0.25	0.00	0.00	0.75	0.00	0.00	-0.150391	0.110352	0.977539	10.710000	0.630000	5.670000	527.00	-0.28	-0.06
0.37	0.00	0.25	0.00	0.00	0.00	0.00	0.75	0.25	0.00	3.00	6.00	3.25	0.00	0.25	0.00	3.75	-0.198730	0.156250	0.940430	17.780001	-4.900000	7.350000	168.00	0.22	-0.12	9.25	14.50	7.50	11.00	1.75	3.25	0.50	0.50	0.75	1.00	0.50	0.00	0.00	0.00	0.00	0.00	-0.147949	0.107422	0.985352	12.110000	0.910000	5.320000	529.00	-0.29	-0.07
0.38	0.00	0.25	0.00	0.00	0.00	0.00	0.75	0.25	0.00	2.75	5.50	3.25	0.25	0.25	0.00	4.00	-0.192383	0.169922	0.941406	10.780000	-2.590000	2.310000	164.00	0.22	-0.13	9.00	14.25	7.25	11.00	1.75	3.00	0.50	0.25	0.75	0.75	0.25	0.00	0.00	0.25	0.00	0.00	-0.152344	0.124512	0.965820	12.040000	0.840000	4.690000	512.00	-0.29	-0.07
0.39	0.50	0.50	0.50	0.25	0.00	0.25	0.75	0.25	0.00	3.00	5.75	3.25	0.00	0.00	0.00	4.00	-0.225586	0.128906	0.927734	6.580000	-2.030000	-0.280000	184.00	0.16	-0.12	9.25	14.00	7.25	10.75	1.75	2.50	0.50	0.25	0.25	0.50	0.25	0.00	0.00	0.25	0.00	0.00	-0.168457	0.127930	1.000977	12.320000	0.770000	3.990000	494.00	-0.30	-0.07
0.40	0.00	0.25	0.00	0.25	0.25	0.00	0.75	0.00	0.00	3.25	5.50	3.25	0.00	0.50	0.00	4.00	-0.237793	0.127441	0.962402	5.670000	-1.470000	-0.070000	171.00	0.21	-0.11	8.75	13.75	6.75	10.50	1.50	2.25	0.50	0.25	0.50	0.75	0.25	0.00	0.00	0.25	0.00	0.00	-0.162598	0.128418	0.979492	14.700000	1.190000	3.570000	479.00	-0.30	-0.07
0.41	0.25	0.75	0.25	0.50	0.25	0.25	0.75	0.25	0.00	3.00	5.75	3.00	0.00	0.25	0.00	3.75	-0.227539	0.156738	0.937500	7.910000	0.210000	1.820000	184.00	0.16	-0.12	8.75	13.25	6.75	10.50	1.25	2.25	0.50	0.25	0.00	0.50	0.25	0.00	0.00	0.00	0.00	0.00	-0.158203	0.127930	0.981934	15.610000	0.770000	3.220000	460.00	-0.31	-0.08
0.42	0.00	1.75	0.50	0.50	0.25	0.25	0.75	0.25	0.00	3.00	5.75	3.25	0.00	0.25	0.00	4.00	-0.221680	0.156738	0.932129	6.160000	1.400000	1.540000	198.00	0.14	-0.12	8.50	13.25	6.50	10.25	1.25	2.00	0.25	0.00	0.00	0.50	0.50	0.00	0.00	0.00	0.00	0.00	-0.157715	0.128906	0.958984	15.120000	-1.400000	2.380000	445.00	-0.32	-0.08
0.43	0.50	1.75	0.50	0.75	0.50	0.00	0.75	0.25	0.00	3.00	5.25	3.25	0.00	0.25	0.00	4.00	-0.223633	0.155273	0.945312	4.060000	2.240000	0.980000	200.00	0.12	-0.11	8.25	12.75	6.50	10.00	1.25	1.50	0.25	0.00	0.00	0.75	0.25	0.00	0.00	0.00	0.00	0.00	-0.154297	0.123535	0.951172	11.830000	-3.080000	0.910000	429.00	-0.32	-0.07
0.44	0.50	1.50	0.75	1.00	0.25	0.25	0.75	0.25	0.00	3.00	5.75	3.25	0.00	0.25	0.00	4.00	-0.215820	0.159180	0.919434	1.260000	3.150000	0.210000	209.00	0.11	-0.12	8.00	12.50	6.25	9.75	1.25	2.00	0.50	0.00	0.00	0.50	0.25	0.00	0.00	0.00	0.00	0.00	-0.152344	0.120117	0.965820	9.800000	-4.830000	0.210000	425.00	-0.31	-0.07
0.45	0.50	2.00	0.75	1.25	0.50	0.50	0.75	0.25	0.00	3.00	5.75	3.25	0.00	0.25	0.00	4.00	-0.217285	0.150879	0.932129	-2.380000	3.990000	-0.560000	222.00	0.09	-0.12	8.00	12.25	6.25	9.75	1.00	1.50	0.25	0.00	0.00	0.75	0.25	0.00	0.00	0.00	0.00	0.00	-0.156738	0.115723	0.962402	9.450000	-6.020000	0.280000	414.00	-0.32	-0.07
0.46	1.00	2.25	0.75	1.25	0.50	0.75	0.75	0.25	0.00	3.00	5.50	3.00	0.00	0.25	0.00	4.00	-0.241699	0.142090	0.958496	-0.490000	2.730000	-0.630000	226.00	0.07	-0.11	8.00	12.00	6.25	9.75	1.25	1.50	0.25	0.00	0.00	0.75	0.50	0.00	0.00	0.00	0.00	0.00	-0.140137	0.132324	0.956543	7.980000	-5.390000	0.770000	417.00	-0.31	-0.07
0.47	1.00	2.75	0.75	1.50	0.50	0.25	0.75	0.25	0.00	3.00	5.75	3.25	0.25	0.00	0.00	4.00	-0.221680	0.144043	0.941406	0.770000	2.940000	-0.420000	234.00	0.06	-0.12	7.75	12.00	6.00	9.50	1.00	1.50	0.25	0.00	0.00	0.50	0.25	0.00	0.00	0.00	0.00	0.00	-0.153320	0.140625	0.980469	7.210000	-4.830000	1.120000	401.00	-0.32	-0.07
0.48	1.50	2.75	0.75	1.75	0.50	0.50	0.75	0.25	0.00	3.00	5.50	3.25	0.00	0.00	0.00	4.00	-0.217773	0.153320	0.948242	0.840000	3.150000	0.140000	239.00	0.04	-0.12	7.50	11.75	5.75	9.25	1.00	1.25	0.25	0.00	0.00	0.25	0.25	0.00	0.00	0.00	0.00	0.00	-0.162109	0.148438	0.961426	7.560000	-4.550000	1.260000	385.00	-0.32	-0.07
0.49	1.75	3.75	1.50	2.25	0.75	0.75	0.75	0.25	0.00	2.75	5.50	3.00	0.00	0.25	0.00	4.00	-0.223633	0.147461	0.935547	0.560000	3.710000	0.280000	267.00	0.00	-0.11	7.50	11.25	5.50	9.25	0.75	1.00	0.25	0.00	0.00	0.50	0.25	0.00	0.25	0.00	0.00	0.00	-0.161133	0.141602	0.958496	5.810000	-3.990000	1.120000	377.00	-0.32	-0.08
0.50	2.00	4.75	1.50	2.25	0.50	0.50	0.75	0.25	0.00	3.00	5.50	3.25	0.00	0.00	0.00	3.75	-0.225586	0.155273	0.942383	0.560000	4.060000	0.770000	276.00	-0.01	-0.11	7.25	11.25	5.50	9.00	1.00	1.00	0.25	0.00	0.00	0.25	0.25	0.00	0.00	0.00	0.00	0.00	-0.165527	0.151367	0.968750	0.770000	-3.010000	0.910000	370.00	-0.32	-0.07
0.51	2.25	5.00	1.25	2.75	0.75	0.75	0.75	0.25	0.00	3.00	5.75	3.25	0.00	0.25	0.00	4.00	-0.208496	0.154297	0.909180	-0.210000	4.550000	1.260000	295.00	-0.02	-0.11	7.00	10.75	5.50	8.75	0.75	0.75	0.25	0.00	0.00	0.50	0.25	0.00	0.00	0.00	0.00	0.00	-0.168945	0.134766	0.971680	1.260000	-2.800000	1.330000	357.00	-0.32	-0.07
0.52	2.75	5.50	1.75	3.25	0.75	1.00	0.75	0.25	0.00	3.00	5.50	3.25	0.00	0.25	0.00	4.25	-0.209473	0.151855	0.927734	-3.360000	5.110000	1.400000	317.00	-0.04	-0.11	7.00	10.50	5.25	8.75	0.75	0.75	0.25	0.00	0.00	0.75	0.25	0.00	0.00	0.00	0.00	0.00	-0.151855	0.136230	0.961426	0.980000	-2.310000	1.050000	354.00	-0.32	-0.07
0.53	3.00	6.75	1.75	3.75	1.00	1.00	0.75	0.25	0.00	3.00	5.50	3.25	0.00	0.25	0.00	4.00	-0.205078	0.153320	0.938965	-6.020000	5.740000	0.910000	338.00	-0.06	-0.11	6.50	10.25	5.25	8.50	0.75	0.75	0.25	0.00	0.00	0.25	0.00	0.00	0.00	0.00	0.00	0.00	-0.145996	0.146484	0.953613	-0.980000	-0.980000	1.120000	336.00	-0.33	-0.07
0.54	3.50	7.75	2.00	4.00	1.00	1.25	0.75	0.25	0.00	3.00	5.50	3.25	0.00	0.00	0.00	4.00	-0.224609	0.156738	0.945801	-7.490000	5.810000	0.210000	359.00	-0.08	-0.11	6.50	9.75	5.00	8.25	0.50	0.50	0.25	0.00	0.00	0.25	0.25	0.00	0.00	0.00	0.00	0.00	-0.145020	0.140625	0.950195	-3.290000	0.350000	1.120000	323.00	-0.33	-0.07
0.55	4.00	8.50	2.50	4.50	0.75	1.50	0.75	0.25	0.00	3.00	5.50	3.25	0.25	0.00	0.00	4.00	-0.234863	0.145996	0.938965	-7.420000	5.390000	0.140000	384.00	-0.10	-0.11	6.00	9.25	4.50	7.75	0.75	0.25	0.25	0.00	0.00	0.50	0.25	0.00	0.00	0.00	0.00	0.00	-0.159180	0.134766	0.979492	-4.830000	0.840000	0.700000	305.00	-0.32	-0.07
0.56	5.00	10.00	2.75	5.25	1.25	1.50	0.75	0.50	0.00	3.00	5.50	3.25	0.00	0.00	0.00	3.75	-0.235840	0.142578	0.938477	-8.540000	5.390000	0.910000	425.00	-0.12	-0.11	5.75	8.25	3.75	7.50	0.50	0.25	0.25	0.00	0.00	0.50	0.25	0.00	0.00	0.00	0.00	0.00	-0.170898	0.130859	0.986816	-3.290000	1.610000	0.560000	279.00	-0.32	-0.07
0.57	5.75	11.50	3.00	5.50	1.25	1.25	0.75	0.50	0.00	3.25	5.75	3.00	0.00	0.00	0.00	4.00	-0.233887	0.133301	0.956055	-8.050000	4.620000	1.330000	453.00	-0.14	-0.10	4.50	7.25	3.50	6.50	0.50	0.00	0.25	0.00	0.00	0.25	0.25	0.00	0.00	0.00	0.00	0.00	-0.171387	0.129883	0.996094	-1.330000	3.920000	0.210000	238.00	-0.32	-0.07
0.58	6.50	13.25	3.25	6.50	1.50	1.75	0.75	0.50	0.00	2.75	5.75	3.25	0.00	0.25	0.00	4.00	-0.216797	0.136230	0.953125	-6.720000	4.340000	1.680000	498.00	-0.15	-0.10	3.00	6.00	2.00	5.50	0.50	0.00	0.25	0.00	0.00	0.50	0.25	0.00	0.00	0.00	0.00	0.00	-0.145020	0.158691	0.951172	-2.380000	8.120000	-0.350000	186.00	-0.31	-0.09
0.59	7.50	14.50	3.50	7.00	1.50	2.00	1.00	0.75	0.00	3.25	5.75	3.25	0.00	0.25	0.00	4.00	-0.201172	0.139648	0.937988	-4.900000	4.200000	1.820000	544.00	-0.16	-0.10	2.00	4.75	1.00	3.75	0.25	0.00	0.25	0.00	0.00	0.50	0.50	0.00	0.00	0.00	0.00	0.00	-0.122559	0.161133	0.944824	-8.750000	15.820000	-0.630000	134.00	-0.29	-0.09
0.60	8.00	15.75	4.00	7.75	1.75	2.00	0.75	0.50	0.00	3.25	5.75	3.25	0.00	0.00	0.00	4.25	-0.206543	0.141602	0.937988	-6.020000	3.920000	0.980000	569.00	-0.17	-0.10	1.00	2.25	0.75	1.75	0.00	0.00	0.25	0.00	0.00	0.50	0.25	0.00	0.00	0.00	0.00	0.00	-0.075684	0.245117	0.955078	-24.219999	22.820000	-3.570000	70.00	-0.26	-0.07
0.61	8.75	17.00	4.00	8.50	1.75	2.25	0.75	0.75	0.00	2.75	5.75	3.25	0.00	0.25	0.00	4.00	-0.230957	0.147461	0.947266	-7.070000	3.850000	0.490000	599.00	-0.18	-0.10	0.75	2.50	0.00	1.25	0.00	0.00	0.25	0.00	0.00	0.50	0.25	0.00	0.00	0.00	0.00	0.00	0.095215	0.516602	0.888672	-34.509998	30.030001	-7.000000	56.00	-0.26	-0.09
0.62	9.50	19.00	4.50	9.00	2.00	2.75	0.75	0.50	0.00	3.25	5.75	3.00	0.00	0.00	0.00	4.00	-0.208984	0.128418	0.946289	-8.330000	4.270000	0.770000	641.00	-0.19	-0.10	0.75	1.25	0.25	1.00	0.00	0.00	0.25	0.00	0.00	0.50	0.25	0.00	0.00	0.00	0.00	0.00	0.072754	0.307129	1.388672	-22.610001	108.150002	-18.620001	45.00	0.00	0.00
0.63	10.25	20.00	4.75	9.50	2.00	3.00	1.00	0.75	0.00	3.00	5.75	3.25	0.00	0.00	0.00	4.00	-0.195801	0.122070	0.945801	-6.580000	3.990000	1.540000	676.00	-0.20	-0.10	0.25	1.00	0.25	0.50	0.00	0.00	0.25	0.00	0.00	0.50	0.25	0.00	0.00	0.00	0.00	0.00	-0.264160	0.219727	1.566406	-5.320000	162.680008	-28.630001	32.00	0.00	0.00
0.64	11.00	21.50	5.25	10.00	2.50	3.00	0.75	0.75	0.00	3.25	5.75	3.00	0.25	0.25	0.00	4.00	-0.206055	0.132812	0.954102	-5.390000	3.640000	1.120000	715.00	-0.20	-0.10	0.25	1.00	0.00	0.50	0.00	0.00	0.00	0.00	0.00	0.50	0.50	0.00	0.00	0.00	0.00	0.00	-0.230469	0.141113	1.812500	-1.330000	200.759995	-31.360001	28.00	0.00	0.00
0.65	11.25	22.25	5.50	10.50	2.25	3.50	1.00	0.75	0.00	3.00	5.75	3.00	0.00	0.25	0.00	4.00	-0.214355	0.134766	0.958984	-3.290000	4.130000	1.050000	734.00	-0.21	-0.10	0.25	1.00	0.00	0.25	0.00	0.00	0.00	0.00	0.00	0.00	0.00	0.00	0.00	0.00	0.00	0.00	-0.198730	0.174805	1.536133	-19.110001	226.240005	-31.219999	15.00	0.00	0.00
0.66	12.00	23.25	5.50	11.00	2.25	3.75	1.00	1.00	0.00	3.25	5.75	3.25	0.00	0.25	0.00	4.00	-0.214844	0.148438	0.950684	-0.420000	4.690000	1.470000	769.00	-0.21	-0.10	0.25	0.75	0.00	0.00	0.00	0.00	0.00	0.00	0.00	0.00	0.00	0.00	0.00	0.00	0.00	0.00	0.124512	0.586426	2.033691	-52.639999	244.160004	-30.799999	9.00	0.00	0.00
0.67	12.00	23.25	5.75	11.25	2.25	4.25	1.00	1.00	0.00	3.25	5.75	3.25	0.00	0.00	0.00	4.25	-0.222168	0.151367	0.948242	0.350000	5.110000	1.400000	779.00	-0.21	-0.10	0.00	0.75	0.00	0.00	0.00	0.00	0.00	0.00	0.00	0.00	0.00	0.00	0.00	0.00	0.00	0.00	0.786621	0.836914	2.657227	-67.340004	235.619995	-17.219999	7.00	0.00	0.00
0.68	12.00	23.75	5.75	11.75	2.50	4.00	0.75	1.00	0.00	3.50	5.75	3.50	0.00	0.25	0.00	4.00	-0.211426	0.147461	0.943848	0.140000	5.740000	1.050000	791.00	-0.21	-0.10	0.00	0.75	0.00	0.25	0.00	0.00	0.00	0.00	0.00	0.00	0.00	0.00	0.00	0.00	0.00	0.00	1.507812	0.776855	2.716797	-51.099998	180.740005	-7.910000	10.00	0.00	0.00
0.69	12.75	23.75	6.25	12.00	2.50	4.25	0.75	1.00	0.00	3.25	5.75	3.25	0.00	0.25	0.00	4.00	-0.201172	0.144531	0.959961	-0.910000	7.000000	0.560000	805.00	-0.21	-0.10	0.25	1.00	0.00	0.25	0.00	0.00	0.00	0.00	0.00	0.00	0.00	0.00	0.00	0.00	0.00	0.00	1.869141	0.319824	1.492188	-35.070000	123.550003	-14.350000	15.00	0.00	0.00
0.70	12.25	24.00	6.00	12.00	2.25	4.25	1.00	1.00	0.00	3.25	6.00	3.25	0.00	0.00	0.00	4.00	-0.209961	0.141602	0.949219	-0.770000	7.700000	-0.140000	800.00	-0.21	-0.10	0.00	0.50	0.00	0.00	0.00	0.00	0.00	0.00	0.00	0.00	0.00	0.00	0.00	0.00	0.00	0.00	1.917480	0.274414	1.500977	-35.980000	60.130001	-57.119999	5.00	0.00	0.00
0.71	12.50	23.75	6.00	12.00	2.50	4.25	0.75	1.00	0.00	3.25	5.75	3.25	0.00	0.00	0.00	4.00	-0.195801	0.136230	0.952148	1.050000	8.680000	-0.350000	797.00	-0.22	-0.10	0.00	0.50	0.00	0.00	0.00	0.00	0.00	0.00	0.00	0.00	0.00	0.00	0.00	0.00	0.00	0.00	1.963379	0.383301	1.614746	-33.110001	21.770000	-68.459999	5.00	0.00	0.00
0.72	11.75	23.50	5.75	11.75	2.25	4.25	0.75	1.00	0.00	3.50	5.75	3.25	0.00	0.00	0.00	4.00	-0.209473	0.145020	0.956055	3.080000	9.450000	-0.280000	781.00	-0.21	-0.10	0.00	0.25	0.00	0.00	0.00	0.00	0.25	0.00	0.00	0.00	0.25	0.00	0.00	0.00	0.00	0.00	1.836426	0.355469	1.207520	-22.469999	-14.420000	-73.919998	9.00	0.00	0.00
0.73	11.50	23.00	5.75	11.50	2.25	4.00	0.75	1.00	0.00	3.50	5.75	3.00	0.00	0.50	0.00	4.00	-0.211914	0.135742	0.952637	5.880000	10.010000	0.140000	770.00	-0.21	-0.10	0.00	0.00	0.00	0.00	0.00	0.00	0.00	0.00	0.00	0.25	0.00	0.00	0.00	0.00	0.00	0.00	1.682129	0.422852	1.059570	-13.720000	-40.459999	-73.639999	3.00	0.00	0.00
0.74	10.75	22.25	5.50	11.25	2.00	4.00	0.75	1.00	0.00	3.25	5.75	3.25	0.00	0.25	0.00	4.00	-0.204102	0.135254	0.950195	7.490000	10.150000	-0.280000	745.00	-0.21	-0.11	0.00	0.50	0.00	0.00	0.00	0.00	0.00	0.00	0.00	0.00	0.00	0.00	0.00	0.00	0.00	0.00	1.532227	0.465820	1.001953	-12.250000	-59.920002	-65.309998	5.00	0.00	0.00
0.75	10.00	21.75	5.25	10.75	2.00	3.75	0.75	1.00	0.00	3.00	6.00	3.50	0.00	0.00	0.00	4.00	-0.213379	0.136719	0.954102	9.730000	9.730000	-0.980000	722.00	-0.20	-0.11	0.00	0.25	0.00	0.00	0.00	0.00	0.00	0.00	0.00	0.25	0.00	0.00	0.00	0.00	0.00	0.00	1.349121	0.434082	0.930176	-10.920000	-72.099998	-51.660000	5.00	0.00	0.00
0.76	9.75	21.00	5.25	10.25	1.75	3.75	0.75	1.25	0.00	3.25	5.75	3.75	0.00	0.00	0.00	4.00	-0.194336	0.143555	0.928711	9.800000	9.380000	-2.100000	711.00	-0.20	-0.11	0.00	0.00	0.00	0.00	0.00	0.00	0.00	0.00	0.00	0.00	0.00	0.00	0.00	0.00	0.00	0.00	1.198242	0.493164	1.310547	5.950000	-88.059998	-36.259998	0.00	0.00	0.00
0.77	9.25	20.50	5.00	10.00	1.75	3.75	0.75	1.25	0.00	3.25	5.75	3.50	0.00	0.00	0.00	4.00	-0.207031	0.162598	0.922852	5.460000	7.980000	-3.640000	693.00	-0.19	-0.11	0.00	0.25	0.00	0.00	0.00	0.00	0.00	0.00	0.00	0.00	0.00	0.00	0.00	0.00	0.00	0.00	1.064941	0.496094	1.441895	29.190001	-118.580002	-20.090000	2.00	0.00	0.00
0.78	9.00	19.50	4.75	9.75	1.75	3.75	0.75	1.25	0.00	3.25	6.00	3.50	0.25	0.00	0.00	4.00	-0.208984	0.160156	0.928711	0.560000	7.210000	-4.550000	681.00	-0.19	-0.11	0.00	0.00	0.00	0.00	0.00	0.00	0.00	0.00	0.00	0.00	0.00	0.00	0.00	0.00	0.00	0.00	0.850586	0.346680	1.235352	47.670002	-148.750000	-6.790000	0.00	0.00	0.00
0.79	9.00	19.25	4.75	10.00	1.50	3.75	0.75	1.25	0.00	3.25	6.00	3.25	0.00	0.00	0.00	4.00	-0.218750	0.137695	0.958008	-0.280000	6.790000	-4.830000	674.00	-0.19	-0.11	0.00	0.25	0.00	0.00	0.00	0.00	0.00	0.00	0.00	0.00	0.00	0.00	0.00	0.00	0.00	0.00	0.643555	0.191895	1.020508	56.630001	-163.660004	-0.350000	2.00	0.00	0.00
0.80	8.00	18.50	4.75	9.75	1.75	3.75	0.75	1.25	0.00	3.25	5.75	3.50	0.25	0.25	0.00	4.00	-0.214844	0.145508	0.943359	0.980000	6.230000	-4.900000	661.00	-0.18	-0.12	0.00	0.25	0.00	0.00	0.00	0.00	0.00	0.00	0.00	0.00	0.00	0.00	0.00	0.00	0.00	0.00	0.474609	0.133789	1.018555	61.670002	-167.930008	1.050000	2.00	0.00	0.00
0.81	7.75	17.75	4.50	9.50	1.50	3.75	0.75	1.25	0.00	3.25	6.00	3.50	0.25	0.25	0.00	4.00	-0.211426	0.163086	0.941406	0.980000	5.950000	-5.250000	645.00	-0.17	-0.12	0.00	0.00	0.00	0.00	0.00	0.00	0.00	0.00	0.00	0.00	0.00	0.00	0.00	0.00	0.00	0.00	0.321777	0.095215	1.176270	65.590004	-171.919998	1.050000	0.00	0.00	0.00
0.82	7.50	17.00	4.25	9.25	1.75	4.00	0.75	1.50	0.00	3.50	5.75	3.75	0.25	0.00	0.00	4.00	-0.212402	0.165039	0.920410	-1.400000	5.880000	-5.670000	640.00	-0.17	-0.12	0.00	0.75	0.00	0.00	0.00	0.00	0.00	0.00	0.00	0.00	0.00	0.00	0.00	0.00	0.00	0.00	0.165527	0.093750	1.296387	67.690002	-182.210007	0.770000	7.00	0.00	0.00
0.83	7.25	16.50	4.25	9.00	1.75	4.25	0.75	1.75	0.00	3.50	6.25	3.50	0.50	0.25	0.00	4.00	-0.227051	0.156738	0.933105	-7.280000	6.230000	-5.950000	644.00	-0.16	-0.12	0.00	0.00	0.00	0.00	0.00	0.00	0.00	0.00	0.00	0.00	0.00	0.00	0.00	0.00	0.00	0.00	-0.073242	0.088379	1.240234	66.150002	-193.970001	1.260000	0.00	0.00	0.00
0.84	7.00	15.75	4.25	9.00	1.75	4.50	0.75	2.00	0.00	3.50	6.25	4.00	0.75	0.00	0.00	4.00	-0.205566	0.148438	0.939941	-12.810000	4.480000	-5.460000	646.00	-0.15	-0.13	0.00	0.00	0.00	0.00	0.00	0.00	0.00	0.00	0.00	0.00	0.00	0.00	0.00	0.00	0.00	0.00	-0.338379	0.098633	1.057617	63.840000	-197.399994	5.600000	0.00	0.00	0.00
0.85	6.75	15.00	4.25	9.00	1.75	4.75	0.75	2.50	0.00	3.75	6.25	4.00	1.00	0.50	0.00	4.00	-0.207031	0.143555	0.931152	-14.700000	2.800000	-5.670000	656.00	-0.14	-0.13	0.00	0.00	0.00	0.00	0.00	0.00	0.00	0.00	0.00	0.00	0.00	0.00	0.00	0.00	0.00	0.00	-0.583984	0.096191	0.876953	60.970001	-190.259995	14.980000	0.00	0.00	0.00
0.86	6.75	14.75	4.25	8.75	2.00	5.25	0.75	2.75	0.00	3.50	6.25	4.50	1.25	0.50	0.00	4.25	-0.218750	0.138184	0.955566	-14.560000	0.980000	-5.950000	669.00	-0.14	-0.14	0.00	0.00	0.00	0.00	0.00	0.00	0.00	0.00	0.00	0.00	0.00	0.00	0.00	0.00	0.00	0.00	-0.800293	0.118652	0.787598	58.590000	-174.789993	28.559999	0.00	0.00	0.00
0.87	6.50	14.25	4.00	9.00	2.00	5.75	0.75	3.25	0.00	3.75	6.50	4.50	1.50	0.75	0.00	4.25	-0.224121	0.136719	0.938965	-11.620000	-0.210000	-5.670000	684.00	-0.13	-0.14	0.00	0.25	0.00	0.00	0.00	0.00	0.00	0.00	0.00	0.25	0.00	0.00	0.00	0.00	0.00	0.00	-1.019043	0.195801	1.004883	59.920002	-158.759995	45.500000	5.00	0.00	0.00
0.88	6.25	14.00	4.25	8.75	2.50	6.25	0.75	4.50	0.00	4.00	6.75	4.75	2.00	0.75	0.00	4.25	-0.201172	0.150391	0.925293	-11.060000	-2.100000	-5.320000	722.00	-0.12	-0.15	0.00	0.25	0.00	0.00	0.00	0.00	0.00	0.00	0.00	0.00	0.00	0.00	0.00	0.00	0.00	0.00	-1.292969	0.240234	1.111328	59.639999	-151.339996	69.019997	2.00	0.00	0.00
0.89	6.25	13.00	4.00	8.75	2.50	6.75	1.00	5.25	0.00	4.00	6.75	5.25	2.50	0.75	0.00	4.25	-0.208496	0.141113	0.927734	-12.180000	-4.480000	-4.970000	740.00	-0.10	-0.15	0.00	0.00	0.00	0.00	0.00	0.00	0.00	0.00	0.00	0.00	0.00	0.00	0.00	0.00	0.00	0.00	-1.858887	0.008301	0.575195	55.090000	-144.479996	98.070000	0.00	0.00	0.00
0.90	5.50	12.75	4.25	8.75	2.75	7.75	1.00	5.75	0.00	4.00	7.25	6.00	3.00	1.25	0.00	4.50	-0.212402	0.127930	0.931641	-10.850000	-4.270000	-4.620000	777.00	-0.09	-0.16	0.00	0.00	0.00	0.00	0.00	0.00	0.00	0.00	0.00	0.00	0.00	0.00	0.00	0.00	0.00	0.00	-2.062988	-0.059082	0.518066	40.670002	-91.000000	142.940002	0.00	0.00	0.00
0.91	5.25	11.50	4.00	8.50	3.00	8.25	1.00	6.50	0.00	4.50	7.50	6.75	4.00	1.50	0.00	4.75	-0.200684	0.130371	0.961426	-5.950000	-2.660000	-3.710000	805.00	-0.07	-0.17	0.00	0.00	0.00	0.00	0.00	0.00	0.00	0.00	0.00	0.00	0.00	0.00	0.00	0.00	0.00	0.00	-2.203125	-0.078125	0.568848	31.780001	-59.080002	154.139999	0.00	0.00	0.00
0.92	5.00	10.50	3.75	8.50	3.00	8.50	1.00	7.25	0.00	4.25	7.75	7.50	5.50	1.75	0.00	5.00	-0.217773	0.131348	0.967285	2.520000	1.890000	-3.080000	829.00	-0.06	-0.18	0.00	0.00	0.00	0.00	0.00	0.00	0.00	0.00	0.00	0.00	0.00	0.00	0.00	0.00	0.00	0.00	-2.325195	-0.174316	0.557129	24.500000	-33.389999	157.990005	0.00	0.00	0.00
0.93	4.00	9.25	3.50	8.25	3.00	8.75	1.00	8.00	0.00	5.00	8.25	8.25	6.50	1.75	0.25	5.25	-0.202637	0.129395	0.942871	8.540000	4.900000	-2.380000	849.00	-0.04	-0.19	0.00	0.00	0.00	0.00	0.00	0.00	0.00	0.00	0.00	0.00	0.00	0.00	0.00	0.00	0.00	0.00	-2.422852	-0.291992	0.571777	23.309999	-13.790000	149.520004	0.00	0.00	0.00
0.94	3.50	8.25	3.00	7.50	3.00	9.00	1.00	8.75	0.00	5.25	8.75	9.00	7.25	2.25	0.25	5.25	-0.213379	0.122070	0.934082	13.860000	7.700000	-2.100000	862.00	-0.02	-0.19	0.00	0.00	0.00	0.00	0.00	0.00	0.00	0.00	0.00	0.00	0.25	0.00	0.00	0.00	0.00	0.00	-2.535645	-0.440918	0.461914	23.030001	-0.420000	124.320000	3.00	0.00	0.00
0.95	2.25	7.00	2.75	7.00	2.75	9.50	1.00	9.50	0.50	5.50	9.25	10.00	8.25	2.75	0.25	5.50	-0.207031	0.132812	0.950684	19.250000	10.780000	-2.100000	882.00	0.01	-0.20	0.00	0.00	0.00	0.00	0.00	0.00	0.00	0.00	0.00	0.00	0.00	0.00	0.00	0.00	0.00	0.00	-2.536621	-0.499023	0.306641	13.930000	11.760000	79.169998	0.00	0.00	0.00
0.96	1.00	6.25	1.75	6.00	2.25	9.50	1.00	10.00	0.75	6.00	10.00	11.00	9.25	3.00	0.50	5.75	-0.184570	0.157715	0.967773	23.450001	14.210000	-2.660000	884.00	0.04	-0.21	0.00	0.00	0.00	0.00	0.00	0.00	0.00	0.00	0.00	0.00	0.00	0.00	0.00	0.00	0.00	0.00	-2.530762	-0.412109	0.282715	8.400000	21.770000	21.139999	0.00	0.00	0.00
0.97	0.50	4.50	1.00	5.00	1.50	9.25	1.00	10.75	1.50	6.50	10.75	12.25	10.00	4.00	0.75	6.25	-0.210449	0.148926	0.972168	25.059999	18.690001	-3.780000	901.00	0.07	-0.21	0.00	0.25	0.00	0.25	0.00	0.00	0.00	0.00	0.00	0.00	0.00	0.00	0.00	0.00	0.00	0.00	-2.535156	-0.281250	0.241211	10.780000	25.760000	-36.259998	5.00	0.00	0.00
0.98	0.25	2.25	0.75	3.25	1.25	8.25	1.00	11.00	1.00	6.25	11.50	13.25	11.25	5.00	1.00	6.50	-0.244629	0.178711	0.962402	26.040001	23.030001	-5.670000	878.00	0.10	-0.22	0.00	0.25	0.00	0.00	0.00	0.00	0.00	0.00	0.00	0.00	0.00	0.00	0.00	0.00	0.00	0.00	-2.564941	-0.154297	0.063477	10.990000	24.500000	-81.760002	2.00	0.00	0.00
0.99	0.00	1.00	0.00	2.25	0.50	7.50	0.75	11.25	1.00	6.50	12.25	14.25	12.25	5.25	1.25	7.00	-0.181641	0.190430	0.959961	28.350000	27.860001	-8.890000	865.00	0.13	-0.23	0.00	0.00	0.00	0.00	0.00	0.00	0.00	0.00	0.00	0.00	0.00	0.00	0.00	0.00	0.00	0.00	-2.540527	-0.078613	-0.238770	-2.590000	27.370001	-110.320000	0.00	0.00	0.00
1.00	0.00	0.00	0.00	1.00	0.25	6.50	0.75	10.50	1.25	7.00	12.75	15.50	13.00	5.50	1.50	7.00	-0.164062	0.160645	1.043945	33.459999	34.580002	-12.950000	856.00	0.15	-0.23	0.00	0.25	0.00	0.00	0.00	0.00	0.00	0.00	0.00	0.00	0.00	0.00	0.00	0.00	0.00	0.00	-2.436035	0.168945	-0.344238	-24.990000	39.270000	-122.639999	2.00	0.00	0.00
1.01	0.00	0.25	0.00	0.50	0.00	5.50	0.75	10.25	1.50	6.75	13.50	16.00	13.50	6.75	1.50	7.75	-0.185059	0.212402	1.133301	52.360001	61.389999	-14.560000	868.00	0.16	-0.22	1.50	3.75	0.75	1.50	0.00	0.00	0.25	0.00	0.00	0.00	0.00	0.00	0.00	0.00	0.00	0.00	2.804688	1.533691	6.968750	-225.050003	199.570007	-100.169998	79.00	-0.35	-0.08
1.02	0.00	0.00	0.00	0.25	0.00	4.50	0.50	9.00	1.25	7.50	14.00	16.50	13.75	8.00	2.00	8.00	-0.181641	0.219238	1.186035	73.500000	105.980003	-21.700001	864.00	0.18	-0.21	6.50	9.00	1.75	4.50	0.25	0.00	0.25	0.00	0.00	0.00	0.00	0.00	0.00	0.00	0.00	0.00	0.132812	0.191895	2.694336	-149.660004	145.740005	-35.560001	226.00	-0.36	-0.07
1.03	0.00	0.00	0.00	0.00	0.00	3.25	0.50	8.00	1.25	7.25	14.00	16.50	13.25	9.00	2.00	8.25	-0.227051	0.263184	1.295410	79.940002	166.460007	-22.960001	835.00	0.19	-0.20	7.50	9.50	2.00	4.25	0.25	0.00	0.25	0.25	0.25	0.00	0.00	0.00	0.00	0.00	0.00	0.00	-0.746094	-0.276367	3.020508	-46.200001	97.930000	23.940001	248.00	-0.35	-0.06
1.04	0.00	0.00	0.00	0.00	0.00	2.25	0.25	6.75	1.50	7.50	14.00	16.00	12.75	9.75	2.50	8.50	-0.472168	0.157227	1.476562	74.199997	235.899994	-21.280001	811.00	0.21	-0.19	7.75	9.50	2.25	4.50	0.25	0.00	0.25	0.00	0.00	0.00	0.00	0.00	0.00	0.00	0.00	0.00	-0.573730	-0.220703	1.681641	-39.410000	69.790001	13.020000	249.00	-0.36	-0.05
1.05	0.00	0.00	0.00	0.00	0.00	1.25	0.25	5.75	1.00	7.50	13.75	15.50	11.50	10.50	2.75	9.25	-0.350098	0.140625	1.742676	98.699997	382.339996	-26.460001	772.00	0.22	-0.18	8.50	9.75	2.50	5.25	0.25	0.00	0.25	0.00	0.00	0.00	0.00	0.00	0.00	0.00	0.00	0.00	-0.165527	-0.193359	0.998047	-37.520000	27.090000	-6.440000	270.00	-0.36	-0.05
1.06	0.00	0.00	0.00	0.00	0.00	0.25	0.00	4.50	0.25	7.50	13.25	14.50	9.75	11.00	3.00	9.50	-0.546875	0.280273	1.619629	90.019997	440.929993	-26.530001	706.00	0.24	-0.18	9.50	10.50	3.25	5.75	0.50	0.25	0.25	0.00	0.00	0.00	0.00	0.00	0.00	0.00	0.00	0.00	0.005859	0.062988	0.398438	-18.410000	25.830000	-11.480000	306.00	-0.35	-0.05
1.07	0.00	0.00	0.00	0.00	0.00	0.00	0.00	2.75	0.00	7.00	12.25	13.25	8.00	11.25	3.25	9.50	-0.684082	0.381348	2.083496	78.750000	499.869995	-28.770000	634.00	0.25	-0.16	11.00	12.25	4.25	6.25	1.00	0.25	0.25	0.00	0.00	0.00	0.00	0.00	0.00	0.00	0.00	0.00	0.039551	0.132324	0.495117	0.910000	51.660000	-4.690000	360.00	-0.35	-0.05
1.08	0.00	0.00	0.00	0.00	0.00	0.00	0.00	1.50	0.00	6.50	11.00	11.50	6.25	11.25	3.25	9.50	-0.931152	0.551270	2.437500	88.480003	552.369995	-33.320000	563.00	0.26	-0.14	13.00	13.25	6.00	7.75	1.25	0.50	0.50	0.00	0.00	0.00	0.00	0.00	0.00	0.00	0.00	0.00	-0.333984	0.056641	1.276855	13.090000	76.510002	-0.770000	435.00	-0.34	-0.04
1.09	0.00	0.00	0.00	0.00	0.00	0.00	0.00	0.50	0.00	6.00	9.50	9.50	4.75	10.50	3.25	8.50	-1.229004	0.207031	3.021973	92.750000	599.549988	-35.420002	481.00	0.28	-0.13	13.50	14.00	6.50	8.00	1.25	0.50	0.50	0.00	0.00	0.00	0.00	0.00	0.00	0.00	0.00	0.00	-0.107422	-0.099609	0.868652	-24.219999	8.190000	-5.180000	456.00	-0.34	-0.04
1.10	0.00	0.00	0.00	0.00	0.00	0.00	0.00	0.50	0.00	5.25	8.25	7.75	2.50	9.00	2.75	7.25	-1.548828	0.663086	3.483887	69.370003	632.099976	-30.590000	397.00	0.28	-0.11	13.75	14.25	7.00	8.50	1.50	0.75	0.50	0.00	0.00	0.50	0.25	0.00	0.00	0.00	0.00	0.00	-0.144043	0.184570	1.130371	11.550000	-10.570000	-1.260000	485.00	-0.33	-0.04
1.11	0.00	0.00	0.00	0.00	0.00	0.00	0.00	0.00	0.00	5.00	7.25	6.50	1.50	7.00	2.00	5.75	-1.773926	0.146484	4.996582	80.849998	643.859985	-35.279999	322.00	0.28	-0.10	13.00	14.50	7.00	8.75	1.25	0.50	0.50	0.00	0.00	0.00	0.00	0.00	0.00	0.00	0.00	0.00	-0.214844	0.137695	1.037598	22.889999	-13.160000	1.470000	469.00	-0.34	-0.04
1.12	0.00	0.00	0.00	0.00	0.00	0.00	0.25	0.00	0.00	4.75	6.50	6.00	0.50	4.75	0.75	4.75	-1.022461	0.631836	4.308594	47.250000	627.479980	-38.570000	263.00	0.27	-0.10	12.75	14.50	6.75	9.25	1.25	1.00	0.25	0.00	0.00	0.25	0.00	0.00	0.00	0.00	0.00	0.00	-0.147949	0.130859	0.991699	27.230000	-14.070000	2.030000	473.00	-0.34	-0.05
1.13	0.00	0.00	0.00	0.00	0.00	0.00	0.25	0.25	0.00	4.25	6.25	5.50	0.75	1.25	0.00	4.25	0.000000	1.437500	4.878906	72.449997	594.859985	-37.939999	216.00	0.24	-0.14	12.75	14.50	6.50	9.00	1.25	0.50	0.25	0.00	0.00	0.00	0.25	0.00	0.00	0.00	0.00	0.00	-0.191895	0.124023	1.052734	30.520000	-15.890000	1.610000	462.00	-0.34	-0.05
1.14	0.00	0.00	0.00	0.00	0.00	0.00	0.50	0.00	0.00	4.25	5.75	5.00	0.50	0.25	0.00	4.25	1.840820	0.788086	3.912598	147.910004	528.919983	-45.990002	195.00	0.24	-0.14	12.25	15.00	6.50	9.25	1.00	0.75	0.25	0.00	0.00	0.00	0.00	0.00	0.00	0.00	0.00	0.00	-0.173828	0.162109	1.060547	34.369999	-18.410000	0.700000	462.00	-0.35	-0.06
1.15	0.00	0.00	0.00	0.00	0.00	0.00	0.25	0.00	0.00	4.00	6.25	5.25	0.50	0.25	0.00	4.25	2.411133	2.208496	3.585938	143.080002	398.649994	-74.480003	196.00	0.24	-0.15	11.75	14.75	6.25	9.50	0.75	1.00	0.25	0.00	0.00	0.00	0.25	0.00	0.00	0.00	0.00	0.00	-0.170410	0.093750	1.065430	42.279999	-20.860001	0.490000	457.00	-0.34	-0.06
1.16	0.00	0.00	0.00	0.00	0.00	0.00	0.25	0.00	0.00	4.25	6.00	4.75	0.25	0.00	0.00	4.50	2.679199	0.615723	5.771484	73.779999	80.849998	-58.799999	188.00	0.24	-0.14	11.25	14.75	6.00	9.25	0.75	1.00	0.25	0.00	0.00	0.00	0.00	0.00	0.00	0.00	0.00	0.00	-0.149414	0.011719	1.115234	52.570000	-24.010000	-2.100000	444.00	-0.34	-0.06
1.17	0.00	0.00	0.00	0.00	0.00	0.00	0.25	0.00	0.00	4.25	6.00	4.75	0.25	0.25	0.00	4.00	2.837402	-0.783691	2.461914	20.719999	-76.790001	-75.529999	187.00	0.24	-0.14	10.75	14.00	5.75	9.00	0.50	1.00	0.25	0.00	0.00	0.00	0.00	0.00	0.00	0.00	0.00	0.00	-0.157715	0.062988	1.128418	63.420002	-30.030001	-6.720000	423.00	-0.35	-0.06
1.18	0.00	0.00	0.00	0.00	0.00	0.00	0.50	0.00	0.00	4.00	5.75	4.50	0.00	0.00	0.00	4.00	2.045898	-0.683594	1.971680	-4.130000	-92.750000	-137.899994	179.00	0.23	-0.13	9.75	13.75	5.25	8.75	0.50	1.00	0.25	0.00	0.00	0.25	0.00	0.00	0.00	0.00	0.00	0.00	-0.107910	0.089844	1.035156	71.750000	-33.250000	-11.270000	405.00	-0.34	-0.07
1.19	0.00	0.00	0.00	0.00	0.00	0.00	0.50	0.00	0.00	4.00	5.75	4.25	0.00	0.25	0.00	4.50	2.008301	-0.128418	2.382812	1.890000	-95.269997	-188.720001	181.00	0.24	-0.13	9.00	13.00	5.00	8.50	0.25	0.75	0.00	0.00	0.00	0.00	0.00	0.00	0.00	0.00	0.00	0.00	-0.132324	0.170410	1.012695	74.199997	-33.810001	-14.700000	373.00	-0.35	-0.07
1.20	0.00	0.00	0.00	0.00	0.00	0.00	0.50	0.00	0.00	3.75	5.75	4.50	0.00	0.00	0.00	4.00	2.009766	0.026855	2.856445	13.650000	-149.940002	-203.210007	176.00	0.23	-0.13	8.00	12.00	4.25	8.25	0.25	0.75	0.00	0.00	0.00	0.00	0.00	0.00	0.00	0.00	0.00	0.00	-0.105957	0.216797	0.948242	70.489998	-33.110001	-15.820000	342.00	-0.35	-0.08
1.21	0.00	0.00	0.00	0.00	0.00	0.00	0.50	0.00	0.00	4.00	5.25	4.50	0.00	0.00	0.00	4.00	1.639160	-0.167480	2.711914	3.290000	-226.309998	-203.699997	174.00	0.23	-0.13	7.00	11.00	4.00	7.75	0.25	0.00	0.00	0.00	0.00	0.00	0.00	0.00	0.00	0.00	0.00	0.00	-0.106934	0.259277	0.891113	64.050003	-30.590000	-14.700000	306.00	-0.35	-0.08
1.22	0.00	0.00	0.00	0.00	0.00	0.00	0.50	0.00	0.00	3.75	5.75	4.25	0.00	0.00	0.00	4.25	1.374023	-0.146484	2.329102	-30.520000	-291.410004	-206.919998	175.00	0.24	-0.13	6.25	10.00	3.25	7.50	0.25	0.00	0.00	0.00	0.00	0.00	0.00	0.00	0.00	0.00	0.00	0.00	-0.073242	0.206543	0.822266	53.270000	-24.500000	-15.890000	278.00	-0.35	-0.08
1.23	0.00	0.00	0.00	0.00	0.00	0.00	0.50	0.00	0.00	3.75	5.50	4.00	0.00	0.00	0.00	4.00	1.003418	0.072266	2.229980	-60.480000	-338.869995	-210.910004	168.00	0.24	-0.13	5.75	9.25	2.75	6.75	0.00	0.00	0.00	0.00	0.00	0.00	0.00	0.00	0.00	0.00	0.00	0.00	-0.032715	0.239746	0.740723	36.400002	-18.690001	-22.190001	249.00	-0.36	-0.09
1.24	0.00	0.00	0.00	0.00	0.00	0.00	0.50	0.00	0.00	3.50	6.00	4.00	0.00	0.00	0.00	4.25	0.711914	0.336426	2.141602	-69.790001	-378.000000	-205.729996	172.00	0.24	-0.13	5.25	8.50	2.75	6.50	0.25	0.00	0.00	0.00	0.00	0.00	0.00	0.00	0.00	0.00	0.00	0.00	-0.083008	0.419434	0.732910	19.180000	-11.690000	-26.460001	237.00	-0.35	-0.09
1.25	0.00	0.00	0.00	0.00	0.00	0.00	0.50	0.00	0.00	3.75	5.75	3.75	0.00	0.00	0.00	4.00	0.488770	0.438477	1.922363	-66.989998	-411.670013	-190.889999	168.00	0.24	-0.13	4.25	7.75	2.50	5.75	0.00	0.00	0.00	0.00	0.00	0.00	0.00	0.00	0.00	0.00	0.00	0.00	-0.096191	0.585938	0.699219	9.030000	-6.160000	-20.230000	206.00	-0.35	-0.09
1.26	0.00	0.00	0.00	0.00	0.00	0.00	0.50	0.00	0.00	3.50	5.50	4.00	0.00	0.00	0.00	4.25	0.052246	0.547852	1.519531	-51.660000	-441.910004	-144.690002	167.00	0.24	-0.13	3.75	7.25	2.00	5.75	0.00	0.00	0.00	0.00	0.00	0.00	0.00	0.00	0.00	0.00	0.00	0.00	-0.076172	0.560059	0.599609	-2.520000	8.470000	-5.810000	191.00	-0.35	-0.10
1.27	0.00	0.00	0.00	0.00	0.00	0.00	0.50	0.00	0.00	3.25	5.75	3.50	0.00	0.00	0.00	4.00	-0.158691	0.641602	1.433105	-40.810001	-442.119995	-116.129997	160.00	0.24	-0.13	3.25	6.50	1.00	5.25	0.00	0.00	0.00	0.00	0.00	0.00	0.25	0.00	0.25	0.00	0.00	0.00	-0.059570	0.389160	0.647461	-22.960001	27.719999	4.830000	167.00	-0.34	-0.12
1.28	0.00	0.00	0.00	0.00	0.00	0.00	0.50	0.00	0.00	3.50	5.25	3.75	0.00	0.00	0.00	4.00	-0.347656	0.761230	1.426270	-21.139999	-438.619995	-88.760002	160.00	0.24	-0.13	3.00	6.25	1.50	5.25	0.25	0.00	0.00	0.00	0.00	0.00	0.25	0.00	0.00	0.00	0.00	0.00	-0.057617	0.169922	0.894043	-50.330002	41.790001	4.200000	168.00	-0.34	-0.11
1.29	0.00	0.00	0.00	0.00	0.00	0.00	0.50	0.00	0.00	3.50	5.25	3.75	0.00	0.00	0.00	4.00	-0.543945	0.862793	1.466797	10.570000	-433.299988	-58.869999	160.00	0.24	-0.13	2.75	6.00	1.50	4.75	0.25	0.00	0.00	0.25	0.00	0.25	0.25	0.25	0.25	0.00	0.00	0.00	-0.116699	0.143066	0.830566	-69.300003	35.770000	-4.060000	169.00	-0.31	-0.12
1.30	0.00	0.00	0.00	0.00	0.00	0.00	0.50	0.00	0.00	3.50	5.00	4.00	0.00	0.00	0.00	4.00	-0.738281	0.933105	1.607910	36.750000	-427.839996	-23.940001	160.00	0.24	-0.13	2.25	5.75	1.50	5.50	0.25	0.75	0.25	0.75	0.00	0.50	0.75	0.50	0.25	0.00	0.00	0.00	-0.131836	0.145020	1.005371	-74.269997	29.960001	-4.830000	200.00	-0.25	-0.14
1.31	0.00	0.00	0.00	0.00	0.00	0.00	0.50	0.00	0.00	3.50	5.25	3.50	0.00	0.00	0.00	3.75	-1.022461	1.083984	1.795410	49.070000	-421.470001	19.110001	156.00	0.24	-0.12	2.25	6.00	1.75	5.75	0.50	1.75	0.25	1.00	0.00	0.50	1.00	0.75	1.00	0.00	0.00	0.00	-0.196289	0.193359	1.081055	-81.690002	23.100000	-7.630000	237.00	-0.22	-0.15
1.32	0.00	0.00	0.00	0.00	0.00	0.00	0.50	0.00	0.00	3.50	5.25	3.75	0.00	0.00	0.00	4.25	-1.371582	1.205566	2.021484	53.900002	-416.220001	69.930000	162.00	0.24	-0.13	2.50	6.00	2.25	6.25	0.75	2.50	0.25	1.75	0.00	1.00	1.50	0.75	1.50	0.00	0.00	0.00	-0.207520	0.107910	1.147461	-76.440002	8.260000	-6.160000	288.00	-0.19	-0.16
1.33	0.00	0.00	0.00	0.00	0.00	0.00	0.50	0.00	0.00	3.75	5.25	3.75	0.00	0.00	0.00	4.00	-1.732422	1.270508	2.064453	59.500000	-415.029999	123.690002	163.00	0.24	-0.13	3.00	6.50	2.50	6.50	1.00	3.25	0.25	2.50	0.00	1.00	1.25	1.50	2.50	0.00	0.00	0.00	-0.216797	0.133789	1.123047	-74.690002	1.680000	-8.540000	339.00	-0.18	-0.17
1.34	0.00	0.00	0.00	0.00	0.00	0.00	0.50	0.00	0.00	3.50	5.50	3.50	0.00	0.00	0.00	4.00	-2.123047	1.234863	1.976562	76.650002	-411.250000	175.839996	160.00	0.24	-0.13	3.25	6.50	2.50	7.00	1.25	4.25	0.25	3.00	0.00	1.25	1.75	1.75	3.00	0.00	0.00	0.00	-0.181152	0.145020	1.098145	-56.000000	-4.550000	-6.090000	383.00	-0.16	-0.18
1.35	0.00	0.00	0.00	0.00	0.00	0.00	0.50	0.00	0.00	3.50	5.25	3.75	0.00	0.00	0.00	4.00	-2.498535	1.055176	1.855469	112.070000	-401.170013	223.790009	160.00	0.24	-0.13	3.25	7.00	3.25	7.75	1.75	5.25	0.50	4.00	0.00	1.50	2.50	2.00	4.00	0.00	0.00	0.00	-0.119629	0.089844	0.988281	-33.599998	-7.840000	-3.360000	462.00	-0.14	-0.18
1.36	0.00	0.00	0.00	0.00	0.00	0.00	0.50	0.00	0.00	3.25	5.50	3.50	0.00	0.00	0.00	4.00	-2.999512	0.807129	1.832520	161.910004	-387.380005	265.299988	158.00	0.24	-0.13	3.00	7.00	3.25	8.00	2.00	6.00	0.50	5.75	0.25	2.00	2.75	2.25	5.00	0.50	0.00	0.25	-0.146973	0.126465	0.980957	-14.490000	-4.550000	-1.050000	527.00	-0.11	-0.19
1.37	0.00	0.00	0.00	0.00	0.00	0.00	0.50	0.00	0.00	3.25	5.50	3.50	0.00	0.00	0.00	4.00	-3.658203	0.526855	1.930664	210.699997	-367.709991	300.510010	158.00	0.24	-0.13	3.00	6.75	2.75	8.00	2.25	7.00	0.50	7.00	0.00	2.00	3.25	4.00	7.25	0.25	0.00	0.50	-0.124512	0.114746	0.969238	-0.560000	2.520000	0.350000	591.00	-0.09	-0.22
1.38	0.00	0.00	0.00	0.00	0.00	0.00	0.50	0.00	0.00	3.50	5.50	3.75	0.00	0.00	0.00	4.00	-4.510254	0.220215	1.951172	230.720001	-341.529999	330.329987	163.00	0.24	-0.13	2.75	6.50	2.75	7.75	2.50	7.50	0.50	7.75	0.50	2.50	4.25	5.00	8.25	1.25	0.00	0.50	-0.161133	0.140625	1.004395	8.610000	6.160000	0.910000	653.00	-0.06	-0.21
1.39	0.00	0.00	0.00	0.00	0.00	0.00	0.50	0.00	0.00	3.75	5.50	3.50	0.00	0.00	0.00	4.00	-5.250977	-0.203125	1.707031	200.270004	-311.570007	351.399994	163.00	0.24	-0.12	2.25	6.00	2.75	7.75	2.50	8.00	0.75	8.25	0.25	2.75	6.50	7.50	9.50	1.25	0.25	1.00	-0.165039	0.153320	0.954590	13.020000	7.350000	1.400000	726.00	-0.03	-0.22
1.40	0.00	0.00	0.00	0.00	0.00	0.00	0.50	0.00	0.00	3.50	5.50	3.75	0.00	0.00	0.00	3.75	-5.813965	-0.616699	1.142578	125.720001	-278.950012	346.989990	162.00	0.23	-0.13	2.00	5.25	2.00	7.25	2.50	8.00	0.75	9.00	0.75	3.00	7.75	8.50	10.25	2.25	0.50	1.50	-0.147949	0.126465	1.022461	17.710001	9.100000	1.750000	767.00	0.00	-0.22
1.41	0.00	0.00	0.00	0.00	0.00	0.00	0.25	0.00	0.00	3.50	5.25	3.75	0.00	0.00	0.00	4.00	-6.370117	-0.767090	0.477539	41.860001	-235.619995	301.489990	157.00	0.24	-0.14	1.50	4.25	1.50	6.25	2.25	7.75	0.75	9.50	1.00	3.50	8.50	9.50	11.50	2.75	0.50	2.00	-0.151855	0.185547	1.016602	20.790001	11.900000	1.890000	783.00	0.03	-0.22
1.42	0.00	0.00	0.00	0.00	0.00	0.00	0.50	0.00	0.00	3.75	5.50	3.50	0.00	0.00	0.00	4.00	-6.717285	-0.757324	-0.298828	-12.950000	-178.430008	213.570007	163.00	0.24	-0.12	0.75	3.25	0.50	5.00	1.50	7.50	0.75	9.75	1.00	3.75	9.50	10.25	12.25	3.50	1.00	2.50	-0.139648	0.206543	0.980957	18.059999	17.010000	0.210000	776.00	0.06	-0.23
1.43	0.00	0.00	0.00	0.00	0.00	0.00	0.50	0.00	0.00	3.50	5.25	3.50	0.00	0.00	0.00	4.00	-7.033203	-0.597656	-0.687988	-31.010000	-108.360001	88.129997	158.00	0.24	-0.13	0.00	1.75	0.25	2.75	1.00	6.25	0.50	9.50	1.50	4.25	10.50	11.25	13.00	5.50	1.50	3.50	-0.177734	0.215332	0.990234	14.420000	21.629999	-5.250000	767.00	0.11	-0.22
1.44	0.00	0.00	0.00	0.00	0.00	0.00	0.50	0.00	0.00	3.50	5.50	3.75	0.00	0.00	0.00	4.00	-7.187500	-0.249023	-0.637207	-28.840000	-35.070000	-48.230000	163.00	0.24	-0.13	0.25	0.50	0.00	2.00	0.75	5.00	0.50	9.25	1.75	6.00	11.25	12.00	13.50	6.75	1.75	4.25	-0.105957	0.227539	1.050293	15.750000	31.850000	-15.190001	786.00	0.14	-0.21
1.45	0.00	0.00	0.00	0.00	0.00	0.00	0.25	0.00	0.00	3.50	5.25	3.50	0.00	0.00	0.00	4.00	-7.077637	0.029297	-0.668457	-27.370001	25.129999	-161.839996	154.00	0.24	-0.14	0.00	0.50	0.00	1.00	0.00	3.25	0.25	9.00	1.75	6.00	12.00	13.00	13.75	8.50	2.50	5.50	-0.096680	0.372559	1.183105	25.059999	56.070000	-28.490000	788.00	0.17	-0.21
1.46	0.00	0.25	0.00	0.00	0.00	0.00	0.50	0.00	0.00	3.25	5.25	3.50	0.00	0.00	0.00	3.75	-3.835938	0.236816	1.352539	-122.570000	279.440002	-162.050003	156.00	0.23	-0.13	0.00	0.00	0.00	0.75	0.00	2.00	0.25	8.00	2.25	6.75	12.75	13.25	13.50	10.50	3.00	6.25	-0.187012	0.329102	1.234863	52.920002	105.279999	-45.009998	801.00	0.20	-0.19
1.47	3.50	4.50	0.50	0.00	0.00	0.00	0.50	0.00	0.00	3.25	5.00	3.50	0.00	0.00	0.00	4.00	1.073730	2.043945	2.541504	1.820000	284.619995	-62.020000	236.00	0.01	-0.09	0.00	0.00	0.00	0.50	0.00	1.25	0.00	7.00	2.25	6.50	12.75	13.50	13.25	13.25	3.75	6.75	-0.238770	0.296387	1.447266	71.959999	168.279999	-49.630001	803.00	0.22	-0.17
1.48	9.75	11.25	0.75	0.75	0.00	0.00	0.50	0.00	0.00	3.50	5.25	3.50	0.00	0.00	0.00	4.00	-1.067383	-0.184082	1.197266	162.119995	215.389999	24.920000	379.00	-0.14	-0.07	0.00	0.00	0.00	0.00	0.00	0.75	0.00	5.75	1.00	6.00	12.50	13.00	12.50	15.75	4.50	7.00	-0.287598	0.263672	1.605957	93.379997	246.610001	-56.980000	767.00	0.24	-0.17
1.49	15.25	17.75	1.75	2.00	0.25	0.00	0.50	0.00	0.00	3.00	5.00	3.50	0.00	0.00	0.00	4.00	-0.852539	0.303223	1.646973	37.380001	286.019989	-21.910000	515.00	-0.21	-0.06	0.00	0.00	0.00	0.00	0.00	0.00	0.00	4.50	1.25	6.00	12.25	12.25	11.00	17.50	5.50	7.25	-0.515137	0.375000	2.305664	52.779999	424.059998	-69.370003	747.00	0.25	-0.14
1.50	18.75	20.50	3.00	3.25	0.50	0.00	0.75	0.00	0.00	3.25	5.25	3.50	0.00	0.00	0.00	4.25	-0.917969	1.441406	3.417969	-10.570000	274.399994	-20.510000	618.00	-0.23	-0.06	0.00	0.00	0.00	0.00	0.00	0.00	0.00	3.00	1.00	5.75	11.25	11.25	9.50	18.50	5.50	7.50	-0.489258	0.618652	2.208008	34.930000	513.940002	-87.989998	694.00	0.27	-0.13
1.51	21.00	21.50	4.75	4.25	0.50	0.00	0.75	0.00	0.00	2.75	5.00	3.50	0.00	0.00	0.00	4.00	-1.053223	0.248047	2.691895	-55.650002	191.380005	8.400000	672.00	-0.24	-0.05	0.00	0.00	0.00	0.00	0.00	0.00	0.00	1.75	0.25	5.25	10.25	10.00	7.75	18.75	5.75	7.00	-0.529785	0.409180	2.371094	1.470000	598.570007	-104.720001	623.00	0.28	-0.11
1.52	21.25	21.50	6.00	5.00	1.00	0.00	0.75	0.00	0.00	3.25	5.25	3.50	0.00	0.00	0.00	4.25	-0.500488	-0.245605	1.375000	-61.320000	138.809998	15.820000	711.00	-0.24	-0.05	0.00	0.00	0.00	0.00	0.00	0.00	0.00	0.75	0.25	5.00	8.75	8.25	6.00	17.50	5.25	6.25	-0.957031	0.789062	3.086914	-30.660000	669.690002	-116.760002	536.00	0.29	-0.09
1.53	21.25	21.25	6.50	5.50	1.50	0.00	0.75	0.00	0.00	3.25	5.00	3.50	0.00	0.00	0.00	4.00	-0.369141	-0.563965	1.345703	-28.280001	114.309998	1.750000	721.00	-0.24	-0.05	0.00	0.00	0.00	0.00	0.00	0.00	0.00	0.00	0.00	3.75	7.00	6.50	4.00	15.00	4.75	5.00	-1.167480	1.077148	4.122559	-11.620000	733.950012	-128.380005	421.00	0.31	-0.08
1.54	21.00	21.00	7.75	5.75	2.25	0.50	1.00	0.25	0.00	3.25	5.50	3.50	0.00	0.00	0.00	4.00	-0.695801	0.013672	1.523926	3.850000	91.980003	-17.010000	760.00	-0.23	-0.05	0.00	0.00	0.00	0.00	0.00	0.00	0.00	0.00	0.00	2.50	4.00	4.00	2.00	11.00	3.00	2.75	-1.417969	1.313477	4.952637	-16.100000	767.619995	-150.779999	268.00	0.32	-0.05
1.55	20.75	21.75	8.25	6.75	2.50	0.75	0.75	0.00	0.00	3.75	5.50	3.50	0.00	0.25	0.00	4.00	-0.794434	0.690430	2.830078	-11.550000	43.540001	-16.590000	786.00	-0.23	-0.05	0.00	0.00	0.00	0.00	0.00	0.00	0.00	0.00	0.00	2.00	2.75	2.25	1.00	7.00	1.25	0.75	-1.062988	1.580078	5.516113	-7.000000	759.640015	-170.660004	159.00	0.31	-0.03
1.56	20.50	22.25	8.25	7.25	2.50	0.50	0.75	0.00	0.00	3.75	5.50	3.75	0.00	0.25	0.00	4.00	-0.284668	0.220215	0.998047	-12.110000	15.260000	-8.540000	793.00	-0.23	-0.05	0.00	0.00	0.00	0.00	0.00	0.00	0.00	0.00	0.00	1.25	1.75	1.50	0.50	2.50	0.75	0.00	-0.543457	1.933105	6.335938	7.770000	728.280029	-207.550003	81.00	0.29	-0.06
1.57	20.00	22.00	8.00	7.25	2.25	1.00	0.75	0.25	0.00	3.75	5.25	3.75	0.00	0.00	0.00	4.00	-0.205566	0.069824	1.091309	-5.110000	11.970000	-5.250000	785.00	-0.23	-0.06	0.00	0.00	0.00	0.00	0.00	0.00	0.00	0.00	0.00	0.75	0.50	0.50	0.25	0.50	0.00	0.00	1.469238	2.345703	6.148926	37.029999	665.770020	-239.399994	25.00	0.00	0.00
1.58	19.50	21.50	8.00	7.50	2.00	0.50	0.75	0.00	0.00	3.50	5.25	3.50	0.00	0.25	0.00	4.00	-0.255859	0.081543	1.023926	12.670000	6.930000	-2.870000	762.00	-0.23	-0.05	0.00	0.00	0.00	0.00	0.00	0.00	0.00	0.00	0.00	0.25	0.50	0.00	0.00	0.00	0.00	0.00	5.690430	-0.138184	5.362793	75.669998	526.260010	-279.440002	8.00	0.00	0.00
1.59	18.00	21.25	7.25	7.50	1.75	0.75	0.75	0.25	0.00	3.25	5.25	3.50	0.00	0.25	0.00	4.00	-0.255859	0.066406	1.018066	25.480000	4.550000	-0.910000	737.00	-0.23	-0.06	0.00	0.00	0.00	0.00	0.00	0.00	0.00	0.00	0.00	0.25	0.50	0.00	0.00	0.00	0.00	0.00	0.316406	4.686035	10.937500	100.519997	227.009995	-252.350006	8.00	0.00	0.00
1.60	16.25	20.50	6.75	7.25	1.50	0.75	0.75	0.25	0.00	3.75	5.25	3.75	0.00	0.25	0.00	4.00	-0.202148	0.070801	0.937500	33.740002	3.710000	-3.220000	709.00	-0.22	-0.07	0.00	0.00	0.00	0.00	0.00	0.00	0.00	0.00	0.00	0.25	0.25	0.00	0.00	0.00	0.00	0.00	3.078613	0.862793	5.081543	144.550003	-107.660004	-181.509995	5.00	0.00	0.00
1.61	13.00	18.25	5.50	6.75	1.25	0.75	0.75	0.50	0.00	3.50	5.50	3.75	0.00	0.00	0.00	4.00	-0.124512	0.185547	0.922363	38.920002	4.340000	-4.340000	634.00	-0.20	-0.08	0.00	0.00	0.00	0.00	0.00	0.00	0.00	0.00	0.00	0.00	0.25	0.00	0.00	0.00	0.00	0.00	2.575195	0.308594	2.335938	74.620003	-259.420013	-176.399994	3.00	0.00	0.00
1.62	10.25	15.75	5.00	6.25	0.75	1.00	0.75	0.50	0.00	3.75	5.25	4.00	0.00	0.50	0.00	4.00	-0.189453	0.226074	0.955078	38.920002	2.310000	-2.800000	576.00	-0.17	-0.08	0.00	0.00	0.00	0.00	0.00	0.00	0.00	0.00	0.00	0.00	0.25	0.00	0.00	0.00	0.00	0.00	1.633789	0.635254	1.475586	-38.500000	-235.619995	-192.919998	3.00	0.00	0.00
1.63	7.75	12.00	3.25	5.50	0.75	1.00	0.75	0.50	0.00	3.50	5.75	4.00	0.25	0.25	0.00	4.00	-0.198242	0.243652	0.826660	29.400000	7.840000	-1.400000	490.00	-0.14	-0.10	0.00	0.25	0.00	0.00	0.00	0.00	0.00	0.00	0.00	0.00	0.00	0.00	0.00	0.00	0.00	0.00	1.556641	1.198730	1.785645	-90.090004	-175.000000	-192.009995	2.00	0.00	0.00
1.64	6.25	9.25	2.50	5.00	0.50	0.75	0.75	0.50	0.00	3.50	5.75	4.25	0.25	0.00	0.00	4.00	-0.161621	0.251953	0.833008	12.670000	16.799999	-0.840000	431.00	-0.11	-0.10	0.00	0.00	0.00	0.00	0.00	0.00	0.00	0.00	0.00	0.00	0.00	0.00	0.00	0.00	0.00	0.00	1.720215	1.691406	2.525391	-69.650002	-183.960007	-157.710007	0.00	0.00	0.00
1.65	5.25	7.50	2.25	3.50	0.50	0.75	0.75	0.50	0.00	3.75	5.75	4.25	0.50	0.25	0.00	4.25	-0.205566	0.232422	0.806152	-7.000000	22.540001	-1.750000	393.00	-0.07	-0.10	0.00	0.00	0.00	0.00	0.00	0.00	0.25	0.00	0.00	0.00	0.00	0.00	0.00	0.00	0.00	0.00	1.525879	1.711426	2.740723	-32.830002	-254.380005	-103.389999	4.00	0.00	0.00
1.66	4.50	6.25	2.00	3.25	0.50	1.00	0.50	0.75	0.00	3.50	5.75	4.25	0.50	0.25	0.00	4.00	-0.180664	0.149902	0.942383	-22.820000	22.820000	-5.670000	367.00	-0.05	-0.11	0.00	0.00	0.00	0.00	0.00	0.00	0.00	0.00	0.00	0.00	0.00	0.00	0.00	0.00	0.00	0.00	1.361816	1.436523	2.237305	-11.410000	-325.850006	-46.549999	0.00	0.00	0.00
1.67	3.25	5.50	1.75	2.50	0.50	1.00	0.75	1.00	0.00	4.00	6.00	4.50	0.75	0.50	0.00	4.00	-0.159180	0.122559	0.892090	-31.990000	18.270000	-10.570000	359.00	-0.01	-0.12	0.00	0.00	0.00	0.00	0.00	0.00	0.00	0.00	0.00	0.00	0.00	0.00	0.00	0.00	0.00	0.00	1.236328	1.258789	1.785156	-0.630000	-365.610016	-4.270000	0.00	0.00	0.00
1.68	2.75	4.50	1.00	2.00	0.50	0.75	0.75	1.25	0.00	4.00	6.25	4.75	1.25	0.50	0.00	4.50	-0.223145	0.081055	0.999023	-39.759998	7.280000	-13.090000	344.00	0.02	-0.13	0.00	0.00	0.00	0.00	0.00	0.00	0.25	0.00	0.00	0.00	0.00	0.00	0.00	0.00	0.00	0.00	1.122559	1.169922	1.732422	27.719999	-384.790009	23.590000	4.00	0.00	0.00
1.69	1.75	3.00	1.00	1.50	0.50	1.00	0.75	1.50	0.00	4.50	6.50	5.25	1.75	0.75	0.00	4.50	-0.251953	0.103027	0.993164	-22.400000	4.550000	-10.430000	340.00	0.07	-0.14	0.00	0.00	0.00	0.00	0.00	0.00	0.25	0.00	0.00	0.00	0.00	0.00	0.00	0.00	0.00	0.00	0.876953	0.711914	2.249023	127.260002	-446.809998	36.119999	4.00	0.00	0.00
1.70	1.00	2.00	0.75	0.75	0.75	1.00	0.75	1.75	0.00	4.50	6.75	6.00	2.50	1.25	0.00	4.75	-0.258301	0.110840	0.984863	-0.770000	5.740000	-5.740000	342.00	0.11	-0.16	0.00	0.00	0.00	0.00	0.00	0.00	0.00	0.00	0.00	0.00	0.00	0.00	0.00	0.00	0.00	0.00	0.507812	0.343262	2.520020	173.740005	-493.220001	10.780000	0.00	0.00	0.00
1.71	0.50	0.75	0.00	0.75	0.50	1.00	0.75	2.50	0.00	4.50	7.00	6.50	3.25	1.25	0.00	4.75	-0.232422	0.125488	0.943359	8.960000	8.120000	-1.540000	340.00	0.15	-0.18	0.00	0.00	0.00	0.00	0.00	0.00	0.00	0.00	0.00	0.00	0.00	0.00	0.00	0.00	0.00	0.00	0.002441	0.150391	2.556641	198.660004	-537.809998	-27.230000	0.00	0.00	0.00
1.72	0.00	0.50	0.00	0.00	0.50	0.75	0.75	3.75	0.00	4.50	7.25	6.75	4.25	1.50	0.00	5.00	-0.246094	0.157227	0.930664	10.850000	10.710000	1.960000	358.00	0.17	-0.20	0.00	0.00	0.00	0.00	0.00	0.00	0.25	0.00	0.00	0.00	0.00	0.00	0.00	0.00	0.00	0.00	-0.567383	0.275879	2.434082	209.580002	-566.090027	-54.880001	4.00	0.00	0.00
1.73	0.00	0.50	0.00	0.00	0.25	1.25	0.75	5.00	0.00	5.00	7.75	8.00	5.75	2.00	0.25	5.00	-0.190918	0.126465	0.895508	6.440000	11.270000	3.360000	423.00	0.17	-0.22	0.00	0.00	0.00	0.00	0.00	0.00	0.00	0.00	0.00	0.00	0.00	0.00	0.00	0.00	0.00	0.00	-1.078613	0.505859	2.377930	225.889999	-571.760010	-52.920002	0.00	0.00	0.00
1.74	0.00	0.00	0.00	0.00	0.25	1.00	0.75	5.50	0.00	5.00	8.25	8.25	6.75	2.50	0.00	5.25	-0.157227	0.168457	0.873047	-4.410000	8.190000	2.520000	443.00	0.17	-0.22	0.00	0.00	0.00	0.00	0.00	0.00	0.25	0.00	0.00	0.00	0.00	0.00	0.00	0.00	0.00	0.00	-1.598145	0.613281	2.396484	254.309998	-563.919983	-14.140000	4.00	0.00	0.00
1.75	0.00	0.50	0.00	0.00	0.25	1.50	0.75	6.00	0.00	5.75	9.00	9.50	7.50	3.75	0.25	5.50	-0.185547	0.188965	0.921875	-14.560000	2.870000	-2.310000	510.00	0.17	-0.21	0.00	0.00	0.00	0.00	0.00	0.00	0.00	0.00	0.00	0.00	0.00	0.00	0.00	0.00	0.00	0.00	-2.132812	0.701660	2.571777	274.399994	-547.960022	62.299999	0.00	0.00	0.00
1.76	0.00	0.00	0.00	0.00	0.50	1.50	1.00	6.75	1.00	7.00	10.00	10.25	8.25	5.00	0.25	6.00	-0.231934	0.152344	0.914062	-15.960000	0.560000	-8.540000	588.00	0.18	-0.19	0.00	0.00	0.00	0.00	0.00	0.00	0.25	0.00	0.00	0.00	0.00	0.00	0.00	0.00	0.00	0.00	-2.677734	0.658691	2.803711	274.399994	-526.820007	166.809998	4.00	0.00	0.00
1.77	0.00	0.00	0.00	0.00	0.50	1.75	1.00	7.00	1.50	7.75	11.00	11.50	9.00	7.25	0.75	6.25	-0.196289	0.138184	0.951172	-12.600000	2.520000	-12.180000	665.00	0.19	-0.18	0.00	0.00	0.00	0.00	0.00	0.00	0.25	0.00	0.00	0.00	0.00	0.00	0.00	0.00	0.00	0.00	-3.408203	0.370117	3.146484	269.149994	-499.589996	273.700012	4.00	0.00	0.00
1.78	0.00	0.00	0.00	0.00	0.75	1.75	1.00	7.50	2.00	8.25	12.50	12.50	9.75	8.50	1.25	6.75	-0.230957	0.147461	0.995117	-9.240000	9.940000	-14.140000	738.00	0.19	-0.17	0.00	0.00	0.00	0.00	0.00	0.00	0.00	0.00	0.00	0.00	0.00	0.00	0.00	0.00	0.00	0.00	-4.316895	-0.133301	3.365723	254.309998	-467.670013	359.660004	0.00	0.00	0.00
1.79	0.00	0.00	0.00	0.00	0.50	1.50	1.00	7.50	3.50	9.00	13.75	13.75	10.75	10.00	1.75	7.25	-0.230469	0.116211	0.987793	-3.010000	21.350000	-14.910000	816.00	0.20	-0.16	0.00	0.00	0.00	0.00	0.00	0.00	0.25	0.00	0.00	0.00	0.00	0.00	0.00	0.00	0.00	0.00	-5.324219	-0.382324	3.452637	228.130005	-440.440002	422.940002	4.00	0.00	0.00
1.80	0.00	0.00	0.00	0.00	0.50	1.25	1.00	7.50	4.25	9.75	15.00	15.00	11.25	11.75	2.50	7.50	-0.230469	0.124023	1.066406	8.610000	38.570000	-15.330000	886.00	0.21	-0.15	0.00	0.00	0.00	0.00	0.00	0.00	0.00	0.00	0.00	0.00	0.00	0.00	0.00	0.00	0.00	0.00	-6.570801	-0.244629	3.421875	203.350006	-419.440002	472.850006	0.00	0.00	0.00
1.81	0.00	0.00	0.00	0.00	0.25	0.75	0.75	7.25	4.75	10.25	16.00	16.00	12.00	13.75	2.75	8.25	-0.316895	0.079590	1.232422	24.010000	71.680000	-17.710001	933.00	0.22	-0.14	0.00	0.00	0.00	0.00	0.00	0.00	0.00	0.00	0.00	0.00	0.00	0.00	0.00	0.00	0.00	0.00	-7.748535	-0.366699	2.550781	184.380005	-395.149994	511.489990	0.00	0.00	0.00
1.82	0.00	0.00	0.00	0.00	0.00	0.50	0.50	6.50	5.25	10.75	17.00	16.75	12.00	15.75	3.25	8.75	-0.169922	0.209473	1.205078	49.700001	123.690002	-17.990000	968.00	0.23	-0.13	0.00	0.00	0.00	0.00	0.00	0.00	0.00	0.00	0.00	0.00	0.00	0.00	0.00	0.00	0.00	0.00	-8.309082	-0.781738	0.837891	165.759995	-340.200012	519.470032	0.00	0.00	0.00
1.83	0.00	0.00	0.00	0.00	0.00	0.00	0.25	5.50	5.25	11.00	17.25	17.00	11.75	18.00	4.25	9.25	-0.278809	0.125977	1.386230	80.919998	198.869995	-21.139999	981.00	0.24	-0.12	0.00	0.00	0.00	0.00	0.00	0.00	0.00	0.00	0.00	0.00	0.00	0.00	0.00	0.00	0.00	0.00	-8.597168	-1.061523	-0.506348	138.740005	-231.210007	482.160004	0.00	0.00	0.00
1.84	0.00	0.00	0.00	0.00	0.00	0.00	0.00	4.50	5.50	10.75	17.00	17.00	11.00	19.50	5.25	9.50	-0.345215	0.232910	1.345703	80.290001	267.959991	-22.750000	978.00	0.25	-0.11	0.00	0.00	0.00	0.00	0.00	0.00	0.00	0.00	0.00	0.00	0.00	0.00	0.00	0.00	0.00	0.00	-8.409668	-1.189941	-1.174316	85.820000	-99.050003	389.690002	0.00	0.00	0.00
1.85	0.00	0.00	0.00	0.00	0.00	0.00	0.00	3.00	5.00	10.75	16.75	16.50	9.75	20.50	5.50	10.00	-0.438965	0.265625	1.605469	80.430000	347.829987	-29.120001	944.00	0.26	-0.10	0.00	0.00	0.00	0.00	0.00	0.00	0.00	0.00	0.00	0.00	0.00	0.00	0.00	0.00	0.00	0.00	-8.030762	-0.895508	-0.980957	36.610001	3.570000	246.680008	0.00	0.00	0.00
1.86	0.00	0.00	0.00	0.00	0.00	0.00	0.00	2.00	4.50	10.50	16.25	15.50	8.50	21.25	5.75	10.50	-0.551270	0.174316	1.754395	75.040001	423.360016	-31.780001	905.00	0.27	-0.09	0.00	0.00	0.00	0.00	0.00	0.00	0.00	0.00	0.00	0.00	0.00	0.00	0.00	0.00	0.00	0.00	-7.328613	-0.613281	-0.529297	57.540001	59.290001	92.190002	0.00	0.00	0.00
1.87	0.00	0.00	0.00	0.00	0.00	0.00	0.00	1.25	3.50	10.25	15.50	14.50	7.25	21.00	6.00	10.75	-0.517090	0.346191	1.630859	82.739998	489.720001	-34.720001	850.00	0.28	-0.09	0.50	2.00	0.25	0.25	0.00	0.00	0.00	0.00	0.00	0.00	0.00	0.00	0.00	0.00	0.00	0.00	-10.657227	0.336914	-1.079102	117.809998	87.220001	-34.160000	29.00	0.00	0.00
1.88	0.00	0.00	0.00	0.00	0.00	0.00	0.00	1.00	1.50	9.75	14.50	13.25	6.00	19.50	5.75	10.75	-0.634766	0.420410	1.828125	74.620003	561.679993	-48.720001	765.00	0.28	-0.09	7.25	10.00	1.25	3.00	0.00	0.00	0.00	0.00	0.00	0.00	0.00	0.00	0.00	0.00	0.00	0.00	2.528320	-2.195801	-2.870117	-191.309998	257.040009	-76.230003	214.00	-0.38	-0.06
1.89	0.00	0.00	0.00	0.00	0.00	0.00	0.00	0.50	0.25	8.75	12.50	11.25	4.75	17.25	5.50	9.75	-1.591797	0.517090	3.455078	78.260002	716.099976	-58.450001	651.00	0.29	-0.09	17.25	18.00	3.50	6.25	0.00	0.00	0.00	0.00	0.00	0.00	0.00	0.00	0.00	0.00	0.00	0.00	-2.002930	0.525391	4.259766	-45.639999	421.049988	-44.799999	452.00	-0.38	-0.04
1.90	0.00	0.00	0.00	0.00	0.00	0.00	0.00	0.00	0.00	7.50	10.25	9.00	2.75	13.50	4.50	8.00	-2.236328	0.573730	4.974609	124.110001	754.530029	-39.270000	510.00	0.29	-0.09	21.25	20.50	7.00	9.00	0.00	0.00	0.00	0.00	0.00	0.00	0.00	0.00	0.00	0.00	0.00	0.00	-2.351562	0.098633	5.228027	-64.260002	383.739990	-41.439999	585.00	-0.37	-0.04
1.91	0.00	0.00	0.00	0.00	0.00	0.00	0.00	0.00	0.00	6.00	8.25	7.25	1.25	9.25	3.00	6.00	-2.895020	-0.047852	6.556641	122.919998	755.720032	-35.560001	379.00	0.29	-0.09	22.25	19.50	8.25	9.75	0.25	0.00	0.00	0.00	0.00	0.00	0.00	0.00	0.00	0.00	0.00	0.00	-1.089844	0.649902	3.961914	-88.970001	282.940002	-40.110001	612.00	-0.37	-0.03
1.92	0.00	0.00	0.00	0.00	0.00	0.00	0.00	0.00	0.00	5.75	7.25	6.25	1.00	5.25	1.25	4.50	-1.480957	0.529297	6.176758	73.010002	741.580017	-31.219999	293.00	0.27	-0.10	20.25	18.00	8.50	9.50	0.25	0.00	0.25	0.00	0.00	0.00	0.00	0.00	0.00	0.00	0.00	0.00	-0.073730	0.349121	1.350098	-80.989998	157.570007	-18.059999	581.00	-0.36	-0.03
1.93	0.00	0.00	0.00	0.00	0.00	0.00	0.00	0.00	0.00	5.00	7.25	5.75	0.50	2.00	0.00	4.25	0.350586	1.497070	6.294434	100.239998	684.880005	-32.970001	233.00	0.25	-0.13	18.50	16.75	8.75	10.00	0.75	0.00	0.25	0.00	0.00	0.00	0.00	0.00	0.00	0.00	0.00	0.00	-0.035645	-0.289062	0.164062	-24.990000	143.289993	-1.610000	565.00	-0.35	-0.03
1.94	0.00	0.00	0.00	0.00	0.00	0.00	0.25	0.00	0.00	4.75	6.50	5.25	0.50	1.00	0.00	4.25	3.104980	-1.403320	6.504395	186.059998	569.380005	-91.419998	213.00	0.24	-0.13	17.25	16.50	9.25	10.75	1.00	1.00	0.50	0.25	0.00	0.00	0.00	0.00	0.00	0.50	0.00	0.00	-0.509766	-0.051270	1.980957	21.559999	170.100006	-15.260000	589.00	-0.34	-0.04
1.95	0.00	0.00	0.00	0.00	0.00	0.00	0.25	0.00	0.00	5.00	6.50	5.25	0.25	0.50	0.00	4.25	2.522949	3.005859	9.526855	137.199997	307.860016	-171.639999	209.00	0.24	-0.13	16.75	16.25	9.75	11.50	1.25	1.25	0.50	0.50	0.00	0.00	0.00	0.00	0.25	0.50	0.00	0.00	-0.516602	0.259277	1.083496	-19.320000	44.099998	-6.090000	607.00	-0.33	-0.05
1.96	0.00	0.00	0.00	0.00	0.00	0.00	0.25	0.25	0.00	5.00	6.50	5.00	0.25	0.50	0.00	4.25	3.050781	-0.098145	5.470703	161.419998	-20.510000	-190.889999	210.00	0.24	-0.13	16.50	16.00	9.75	11.50	1.50	1.75	0.50	0.25	0.25	0.00	0.00	0.00	0.25	0.50	0.00	0.00	-0.104492	0.260254	0.494141	-34.930000	4.690000	3.780000	610.00	-0.32	-0.05
1.97	0.00	0.00	0.00	0.00	0.00	0.00	0.25	0.00	0.00	4.75	6.25	4.75	0.25	0.50	0.00	4.25	2.371094	-0.371582	3.307617	103.809998	-168.350006	-251.720001	198.00	0.24	-0.13	16.00	16.75	9.50	11.25	1.25	1.75	0.50	0.25	0.25	0.00	0.00	0.00	0.25	1.00	0.00	0.00	-0.160645	0.058105	1.306641	-35.490002	7.280000	2.520000	607.00	-0.32	-0.05
1.98	0.00	0.00	0.00	0.00	0.00	0.00	0.25	0.00	0.00	4.50	6.00	4.50	0.00	0.25	0.00	4.25	1.840332	0.176270	2.874023	47.740002	-200.690002	-316.119995	186.00	0.24	-0.13	15.25	16.00	9.50	11.25	1.50	2.00	0.50	0.50	0.25	0.00	0.00	0.00	0.25	0.50	0.00	0.00	-0.211426	0.128418	1.094238	-9.170000	-5.390000	-1.540000	598.00	-0.32	-0.05
1.99	0.00	0.00	0.00	0.00	0.00	0.00	0.50	0.00	0.00	4.25	6.00	4.50	0.00	0.25	0.00	4.25	1.816895	0.878418	3.120117	21.770000	-242.970001	-337.890015	188.00	0.24	-0.13	14.75	15.25	9.00	10.75	1.25	2.25	0.50	0.50	0.00	0.00	0.00	0.00	0.50	0.50	0.00	0.00	-0.107422	0.238770	0.883789	-0.700000	-2.310000	-1.050000	573.00	-0.32	-0.06
2.00	0.00	0.00	0.00	0.00	0.00	0.00	0.50	0.00	0.00	4.25	5.75	4.50	0.00	0.00	0.00	4.00	1.629883	1.038086	3.080566	17.360001	-319.760010	-322.559998	181.00	0.23	-0.13	13.00	14.25	8.50	10.00	1.25	1.75	0.50	0.50	0.00	0.00	0.00	0.00	0.50	0.75	0.00	0.00	-0.071777	0.163086	0.900391	-10.220000	4.270000	-0.210000	529.00	-0.31	-0.06
2.01	0.00	0.00	0.00	0.00	0.00	0.00	0.50	0.00	0.00	4.00	6.00	4.00	0.00	0.00	0.00	4.25	1.273438	0.959961	2.610840	-0.630000	-393.119995	-291.899994	178.00	0.24	-0.13	11.75	12.75	7.75	9.50	1.00	1.50	0.50	0.50	0.25	0.00	0.00	0.00	0.75	0.50	0.00	0.00	-0.139160	0.113770	1.071289	-11.270000	5.670000	-0.840000	486.00	-0.31	-0.06
2.02	0.00	0.00	0.00	0.00	0.00	0.25	0.50	0.00	0.00	3.75	5.75	4.25	0.00	0.00	0.00	4.00	1.056152	0.910645	2.054199	-29.610001	-435.119995	-255.639999	176.00	0.23	-0.13	9.75	11.25	6.75	8.75	1.00	1.00	0.50	0.75	0.25	0.00	0.00	0.00	0.75	0.25	0.00	0.00	-0.142578	0.151855	0.982910	-4.900000	6.510000	0.070000	429.00	-0.31	-0.06
2.03	0.00	0.00	0.00	0.00	0.00	0.00	0.50	0.00	0.00	3.75	6.00	4.25	0.00	0.00	0.00	4.25	0.850586	1.000488	1.643555	-51.170002	-448.000000	-212.449997	178.00	0.24	-0.13	8.00	9.50	5.50	8.00	0.75	1.00	0.50	0.75	0.00	0.00	0.00	0.00	0.50	0.25	0.00	0.00	-0.114746	0.175293	0.943359	-5.040000	10.710000	1.960000	364.00	-0.31	-0.07
2.04	0.00	0.00	0.00	0.00	0.00	0.00	0.50	0.00	0.00	4.00	5.50	4.00	0.00	0.25	0.00	4.00	0.666504	1.113281	1.594238	-44.029999	-445.899994	-161.979996	173.00	0.24	-0.12	6.00	8.00	4.75	7.25	0.50	1.00	0.50	0.75	0.00	0.00	0.00	0.00	1.00	0.25	0.00	0.00	-0.090820	0.168457	0.961914	-9.450000	14.140000	2.660000	314.00	-0.29	-0.09
2.05	0.00	0.00	0.00	0.00	0.00	0.25	0.50	0.00	0.00	3.75	5.50	4.00	0.00	0.00	0.00	4.00	0.516113	1.164551	1.526367	-5.530000	-443.309998	-105.139999	171.00	0.23	-0.13	4.75	6.50	3.25	5.75	0.50	0.00	0.50	0.75	0.00	0.00	0.00	0.00	0.50	0.25	0.00	0.25	-0.118164	0.170410	0.944336	-14.140000	15.470000	1.610000	241.00	-0.29	-0.08
2.06	0.00	0.00	0.00	0.00	0.00	0.00	0.50	0.00	0.00	3.75	5.50	3.75	0.00	0.00	0.00	4.00	0.410645	1.080078	1.533691	48.369999	-443.519989	-44.939999	166.00	0.24	-0.13	3.50	5.50	2.50	5.00	0.50	0.50	0.50	1.00	0.00	0.00	0.25	0.00	0.50	0.00	0.00	0.25	-0.135254	0.174805	0.928223	-20.860001	17.639999	1.260000	212.00	-0.27	-0.11
2.07	0.00	0.00	0.00	0.00	0.00	0.00	0.50	0.00	0.00	3.75	5.50	3.75	0.00	0.00	0.00	4.00	0.221191	0.924805	1.575195	101.360001	-443.589996	14.630000	166.00	0.24	-0.13	2.00	3.75	1.75	3.00	0.25	0.25	0.50	0.50	0.00	0.50	0.50	0.00	1.00	0.00	0.00	0.25	-0.119629	0.164062	0.936035	-29.820000	19.809999	-0.070000	149.00	-0.22	-0.10
2.08	0.00	0.00	0.00	0.00	0.00	0.00	0.50	0.00	0.00	3.75	5.50	3.75	0.00	0.00	0.00	4.25	-0.025391	0.747559	1.739746	135.380005	-441.630005	66.989998	167.00	0.24	-0.13	1.25	2.50	0.75	2.00	0.50	1.00	0.50	0.75	0.00	1.00	0.25	0.00	1.00	0.50	0.00	0.25	-0.163574	0.124512	0.972168	-36.889999	21.070000	-0.700000	129.00	-0.14	-0.12
2.09	0.00	0.00	0.00	0.00	0.00	0.00	0.50	0.00	0.00	3.50	5.50	3.75	0.00	0.00	0.00	4.00	-0.267578	0.598145	1.955566	149.660004	-440.720001	106.540001	163.00	0.24	-0.13	0.50	1.50	0.75	1.25	0.25	0.00	0.50	0.50	0.25	1.00	1.25	0.25	2.25	0.50	0.00	0.25	-0.106934	0.092285	1.072754	-30.520000	19.879999	2.590000	113.00	-0.01	-0.13
2.10	0.00	0.00	0.00	0.00	0.00	0.00	0.50	0.00	0.00	3.75	5.75	3.75	0.00	0.00	0.00	4.00	-0.805664	0.510254	2.594238	166.949997	-456.679993	136.430008	168.00	0.24	-0.13	0.00	1.00	0.25	1.00	0.00	0.00	0.50	0.75	0.50	1.25	1.50	1.25	2.00	0.50	0.25	0.75	-0.104492	0.030762	1.134766	-12.040000	27.370001	3.220000	119.00	0.09	-0.15
2.11	0.00	0.00	0.00	0.00	0.00	0.00	0.50	0.00	0.00	3.50	5.50	3.75	0.00	0.00	0.00	4.00	-1.187988	0.508301	2.885254	180.250000	-474.809998	138.460007	163.00	0.24	-0.13	0.00	0.50	0.00	0.50	0.00	0.25	0.50	0.75	0.50	1.50	2.25	1.25	2.50	1.00	0.00	0.75	-0.192871	0.086914	1.045410	5.040000	38.570000	3.920000	125.00	0.15	-0.15
2.12	0.00	0.00	0.00	0.00	0.00	0.00	0.50	0.00	0.00	3.50	5.25	3.50	0.00	0.25	0.00	4.00	-1.655762	0.519043	3.031250	186.899994	-490.769989	142.869995	160.00	0.24	-0.12	0.00	0.25	0.00	0.00	0.00	0.00	0.50	0.75	1.25	2.25	3.00	2.00	2.50	1.50	0.25	1.00	-0.184082	0.122559	0.976074	14.560000	46.830002	4.480000	156.00	0.21	-0.11
2.13	0.00	0.00	0.00	0.00	0.00	0.00	0.50	0.00	0.00	3.50	5.50	3.50	0.00	0.00	0.00	4.00	-2.115234	0.583008	3.028320	187.320007	-498.820007	156.309998	160.00	0.24	-0.13	0.25	0.25	0.00	0.00	0.00	0.00	0.50	1.00	1.25	2.50	3.75	2.50	4.50	1.75	0.50	1.00	-0.201660	0.140137	0.946289	19.389999	47.040001	3.710000	200.00	0.20	-0.14
2.14	0.00	0.00	0.00	0.00	0.00	0.00	0.50	0.00	0.00	3.50	5.50	3.50	0.00	0.00	0.00	4.00	-2.575684	0.596680	3.011719	186.410004	-496.019989	179.690002	160.00	0.24	-0.13	0.00	0.00	0.00	0.25	0.00	0.00	0.50	1.50	1.50	3.00	6.00	3.50	5.25	2.50	0.50	1.50	-0.198242	0.142578	0.921875	20.299999	43.540001	3.080000	264.00	0.21	-0.15
2.15	0.00	0.00	0.00	0.00	0.00	0.00	0.50	0.00	0.00	3.50	5.50	3.75	0.00	0.00	0.00	4.00	-3.134277	0.595703	2.939453	189.490005	-483.910004	212.380005	163.00	0.24	-0.13	0.00	0.00	0.00	0.00	0.25	0.00	0.50	1.50	1.75	4.00	7.50	5.00	6.75	3.50	0.75	2.00	-0.154297	0.169922	0.948242	19.950001	38.849998	0.490000	336.00	0.22	-0.14
2.16	0.00	0.00	0.00	0.00	0.00	0.00	0.50	0.00	0.00	3.75	5.50	3.75	0.00	0.00	0.00	4.00	-3.692871	0.495605	2.834961	200.550003	-462.980011	253.680008	166.00	0.24	-0.13	0.00	0.00	0.00	0.00	0.00	0.00	0.50	2.00	2.50	4.25	8.75	7.25	8.00	4.50	1.25	2.25	-0.206543	0.165527	0.971680	22.120001	38.570000	-3.990000	416.00	0.22	-0.15
2.17	0.00	0.00	0.00	0.00	0.00	0.00	0.50	0.00	0.00	3.75	5.50	3.75	0.00	0.00	0.00	4.00	-4.455078	0.283203	2.832031	219.520004	-429.519989	296.660004	166.00	0.24	-0.13	0.00	0.00	0.00	0.00	0.25	0.25	0.50	2.75	2.50	6.00	9.75	8.50	8.75	6.00	1.50	3.00	-0.214844	0.155273	1.008789	28.630001	44.240002	-8.120000	501.00	0.22	-0.15
2.18	0.00	0.00	0.00	0.00	0.00	0.00	0.50	0.00	0.00	3.75	5.50	3.75	0.00	0.00	0.00	4.00	-5.472168	-0.064941	2.886719	225.330002	-392.279999	331.660004	166.00	0.24	-0.13	0.00	0.00	0.00	0.00	0.00	0.00	0.50	2.75	3.25	7.00	10.75	9.50	9.50	7.75	2.00	4.50	-0.227051	0.169922	1.029297	34.930000	54.110001	-10.570000	572.00	0.23	-0.13
2.19	0.00	0.00	0.00	0.00	0.00	0.00	0.50	0.00	0.00	3.75	5.50	3.75	0.00	0.00	0.00	4.00	-6.581543	-0.546387	2.393066	190.050003	-352.660004	343.980011	166.00	0.24	-0.13	0.00	0.00	0.00	0.00	0.00	0.00	0.25	3.25	3.75	8.00	11.75	10.25	10.00	9.50	2.75	5.50	-0.229980	0.183105	1.054199	41.650002	67.410004	-14.140000	643.00	0.24	-0.13
2.20	0.00	0.00	0.00	0.00	0.00	0.00	0.50	0.00	0.00	3.75	5.50	3.75	0.00	0.00	0.00	4.00	-7.486816	-0.977539	1.153320	116.199997	-300.299988	319.899994	166.00	0.24	-0.13	0.00	0.00	0.00	0.00	0.00	0.00	0.25	3.25	4.00	8.25	12.50	10.75	10.50	11.75	3.25	6.25	-0.254883	0.174805	1.091797	45.849998	85.680000	-15.750000	695.00	0.24	-0.12
2.21	0.00	0.00	0.00	0.00	0.00	0.00	0.50	0.00	0.00	3.50	5.50	3.75	0.00	0.00	0.00	4.00	-8.040527	-1.068359	-0.420410	29.120001	-225.889999	257.320007	163.00	0.24	-0.13	0.00	0.00	0.00	0.00	0.00	0.00	0.25	2.75	4.75	8.75	13.25	11.50	10.75	14.00	5.25	7.00	-0.232422	0.180664	1.155762	45.430000	108.919998	-17.290001	765.00	0.26	-0.11
2.22	0.00	0.00	0.00	0.00	0.00	0.00	0.50	0.00	0.00	3.75	5.50	3.75	0.00	0.00	0.00	4.00	-8.130859	-0.883301	-1.365723	-29.889999	-128.449997	162.190002	166.00	0.24	-0.13	0.00	0.00	0.00	0.00	0.00	0.00	0.00	2.25	5.25	9.25	13.75	12.00	10.75	16.50	6.00	7.75	-0.303223	0.226562	1.211426	42.980000	145.110001	-18.690001	809.00	0.26	-0.10
2.23	0.00	0.00	0.00	0.00	0.00	0.00	0.50	0.00	0.00	3.50	5.50	3.75	0.00	0.00	0.00	4.00	-7.904297	-0.416992	-1.393066	-56.209999	-23.100000	67.760002	163.00	0.24	-0.13	0.00	0.00	0.00	0.00	0.00	0.00	0.00	1.50	5.25	9.75	14.00	12.25	10.50	18.50	6.75	8.25	-0.403320	0.230469	1.312012	40.529999	195.509995	-24.290001	833.00	0.27	-0.09
2.24	0.00	0.00	0.00	0.00	0.00	0.00	0.50	0.00	0.00	3.50	5.50	3.75	0.00	0.00	0.00	4.00	-7.524414	0.299805	-0.735352	-60.060001	59.920002	2.450000	163.00	0.24	-0.13	0.00	0.00	0.00	0.00	0.00	0.00	0.00	1.00	5.50	10.00	14.00	11.75	9.75	20.25	7.25	8.75	-0.360840	0.283691	1.501953	30.309999	268.380005	-32.689999	843.00	0.28	-0.07
2.25	0.00	0.00	0.00	0.00	0.00	0.00	0.50	0.00	0.00	3.25	5.25	3.75	0.00	0.00	0.00	4.00	-6.818359	0.796875	-0.470703	-44.520000	112.349998	-29.190001	158.00	0.24	-0.13	0.00	0.00	0.00	0.00	0.00	0.00	0.00	0.25	5.50	10.00	13.75	11.50	8.50	22.00	7.75	9.25	-0.426270	0.288086	1.772461	26.180000	342.579987	-39.549999	838.00	0.29	-0.06
2.26	2.75	4.50	0.25	0.00	0.00	0.00	0.25	0.00	0.00	3.25	5.00	3.50	0.00	0.00	0.00	4.25	-0.925293	1.947266	5.071289	-42.630001	424.410004	1.400000	223.00	0.03	-0.11	0.00	0.00	0.00	0.00	0.00	0.00	0.00	0.00	5.25	9.75	13.25	10.75	7.75	23.25	8.00	9.75	-0.415527	0.379395	1.813477	40.670002	418.390015	-49.560001	825.00	0.30	-0.05
2.27	15.50	22.75	0.75	1.25	0.00	0.00	0.25	0.00	0.00	3.50	5.50	3.75	0.00	0.00	0.00	4.00	0.146484	-0.715332	0.296875	-37.869999	429.589996	14.770000	551.00	-0.22	-0.08	0.00	0.00	0.00	0.00	0.00	0.00	0.00	0.00	4.25	9.25	12.50	10.00	6.50	23.00	8.25	9.50	-0.582520	0.637695	2.125977	39.830002	501.269989	-71.750000	779.00	0.30	-0.05
2.28	25.50	33.75	2.50	5.00	0.00	0.00	0.25	0.00	0.00	3.50	5.75	4.00	0.00	0.00	0.00	4.00	-0.603516	-0.550293	1.133301	50.610001	478.519989	39.200001	822.00	-0.27	-0.07	0.00	0.00	0.00	0.00	0.00	0.00	0.00	0.00	3.25	9.00	11.50	9.25	5.25	21.25	8.00	8.75	-0.594238	0.435547	2.255859	25.969999	601.229980	-99.400002	712.00	0.30	-0.05
2.29	26.50	35.50	4.50	8.75	0.00	0.00	0.25	0.00	0.00	3.50	5.50	4.25	0.00	0.00	0.00	4.00	-2.909668	-0.227539	5.008301	74.480003	577.429993	2.660000	912.00	-0.27	-0.07	0.00	0.00	0.00	0.00	0.00	0.00	0.00	0.00	1.75	8.00	10.25	8.25	4.75	17.75	7.25	7.75	-1.851074	1.214355	4.610352	75.180000	803.530029	-146.229996	611.00	0.30	-0.06
2.30	24.25	34.25	7.00	11.25	0.75	1.25	0.50	0.25	0.00	3.25	5.50	4.25	0.00	0.00	0.00	4.00	-2.134277	0.053223	5.079590	38.990002	515.409973	-36.119999	959.00	-0.26	-0.08	0.00	0.00	0.00	0.00	0.00	0.00	0.00	0.00	0.50	5.50	8.00	6.50	3.00	13.75	5.25	5.50	-3.016602	1.436523	6.598145	140.350006	849.099976	-154.000000	444.00	0.30	-0.07
2.31	21.25	32.00	7.75	12.75	1.25	2.00	0.75	0.50	0.00	3.25	5.50	4.25	0.25	0.00	0.00	4.00	-0.923828	0.391113	1.654785	-61.880001	162.119995	-32.549999	956.00	-0.25	-0.08	0.00	0.00	0.00	0.00	0.00	0.00	0.00	0.00	0.25	3.00	4.25	3.25	1.75	9.00	3.50	3.25	-2.784668	2.209961	7.538574	213.990005	824.460022	-157.360001	260.00	0.31	-0.06
2.32	19.00	29.50	8.25	13.75	1.50	2.75	0.75	0.75	0.00	3.50	5.75	4.00	0.25	0.00	0.00	4.00	-0.281250	0.543457	0.683594	-51.029999	94.639999	-12.250000	943.00	-0.24	-0.09	0.00	0.00	0.00	0.00	0.00	0.00	0.00	0.00	0.25	2.00	2.25	2.25	0.75	4.50	1.25	0.50	-1.087891	2.462891	7.962402	295.679993	734.650024	-194.809998	132.00	0.30	-0.04
2.33	16.75	29.00	8.25	14.25	1.50	4.00	0.75	1.25	0.00	3.75	5.75	4.25	0.50	0.00	0.00	4.00	-0.431641	0.188477	1.516602	-42.770000	69.019997	0.140000	949.00	-0.23	-0.10	0.00	0.00	0.00	0.00	0.00	0.00	0.00	0.00	0.00	1.00	1.25	0.75	0.50	0.50	0.00	0.00	2.458984	2.126465	6.955566	411.459991	607.739990	-250.110001	40.00	0.00	0.00
2.34	16.00	28.75	8.25	15.25	1.75	4.75	0.75	1.50	0.00	3.75	5.75	4.25	1.00	0.00	0.00	4.00	-0.284180	0.182617	1.091797	-40.459999	37.730000	0.350000	969.00	-0.22	-0.11	0.00	0.00	0.00	0.00	0.00	0.00	0.00	0.00	0.00	0.50	1.25	0.50	0.00	0.00	0.00	0.00	4.801270	-0.283691	3.367188	431.200012	423.850006	-355.110016	24.00	0.00	0.00
2.35	16.00	28.50	8.50	15.00	1.75	5.50	1.00	1.50	0.00	3.75	5.50	4.50	0.75	0.25	0.00	4.00	-0.303223	0.364258	1.064941	-44.099998	23.520000	-3.920000	979.00	-0.22	-0.10	0.00	0.00	0.00	0.00	0.00	0.00	0.00	0.00	0.00	0.25	0.25	0.25	0.00	0.00	0.00	0.00	0.475586	3.888184	10.671387	236.809998	98.910004	-321.720001	8.00	0.00	0.00
2.36	16.25	28.25	8.50	14.50	2.00	5.25	1.00	1.25	0.00	3.75	5.75	4.25	0.50	0.00	0.00	4.00	-0.237305	0.191406	1.033203	-42.420002	22.190001	-7.140000	966.00	-0.22	-0.10	0.00	0.00	0.00	0.00	0.00	0.00	0.00	0.00	0.00	0.25	0.50	0.00	0.00	0.00	0.00	0.00	2.640625	1.020996	4.745117	125.580002	-214.970001	-203.699997	8.00	0.00	0.00
2.37	16.25	27.00	8.25	13.75	2.00	4.50	1.00	1.00	0.00	3.75	5.75	4.00	0.75	0.00	0.00	4.00	-0.226562	0.154785	1.015137	-29.610001	23.030001	-9.520000	931.00	-0.22	-0.10	0.00	0.00	0.00	0.00	0.00	0.00	0.00	0.00	0.00	0.00	0.50	0.00	0.00	0.00	0.00	0.00	2.096680	0.240723	2.336426	-35.770000	-341.880005	-173.460007	5.00	0.00	0.00
2.38	15.00	25.75	8.25	12.25	2.25	3.50	1.00	0.75	0.00	3.75	5.50	4.25	0.50	0.25	0.00	4.25	-0.230469	0.179199	0.929199	-21.840000	25.969999	-9.730000	879.00	-0.22	-0.09	0.00	0.00	0.00	0.00	0.00	0.00	0.25	0.00	0.00	0.00	0.50	0.00	0.00	0.00	0.00	0.00	1.593262	0.869629	2.059082	-125.090004	-304.360016	-189.910004	9.00	0.00	0.00
2.39	14.00	23.25	7.50	10.50	1.75	2.75	1.00	0.50	0.00	3.50	5.50	4.00	0.75	0.00	0.00	4.00	-0.175781	0.138184	0.900879	-20.370001	29.400000	-8.470000	794.00	-0.21	-0.09	0.00	0.00	0.00	0.00	0.00	0.00	0.00	0.00	0.00	0.00	0.00	0.00	0.00	0.00	0.00	0.00	1.632324	1.252930	2.337402	-117.110001	-285.880005	-187.460007	0.00	0.00	0.00
2.40	12.00	20.00	6.75	9.25	1.50	2.25	1.00	0.50	0.00	3.50	5.75	4.00	0.25	0.25	0.00	4.00	-0.169434	0.138184	0.920410	-19.389999	30.100000	-8.750000	714.00	-0.20	-0.09	0.00	0.00	0.00	0.00	0.00	0.00	0.25	0.00	0.00	0.00	0.00	0.00	0.00	0.00	0.00	0.00	1.593262	1.208984	2.565918	-52.430000	-338.029999	-158.550003	4.00	0.00	0.00
2.41	9.25	16.25	6.00	7.75	1.50	1.75	0.75	0.25	0.00	3.75	5.75	4.00	0.25	0.25	0.00	4.00	-0.133789	0.128906	0.914062	-19.809999	31.150000	-8.120000	616.00	-0.17	-0.09	0.00	0.00	0.00	0.00	0.00	0.00	0.25	0.00	0.00	0.00	0.00	0.00	0.00	0.00	0.00	0.00	1.306641	0.986816	2.240723	3.640000	-406.420013	-114.029999	4.00	0.00	0.00
2.42	7.25	12.25	4.75	6.50	1.00	1.00	0.75	0.50	0.00	3.75	5.75	4.00	0.50	0.25	0.00	4.00	-0.134277	0.110840	0.952148	-18.480000	30.450001	-6.790000	523.00	-0.14	-0.10	0.00	0.00	0.00	0.00	0.00	0.00	0.25	0.00	0.00	0.00	0.00	0.00	0.00	0.00	0.00	0.00	1.105957	0.787109	1.704102	34.930000	-442.049988	-63.770000	4.00	0.00	0.00
2.43	5.50	9.00	3.50	5.50	1.00	0.75	0.75	0.50	0.00	4.00	5.75	4.50	0.50	0.75	0.00	4.00	-0.172363	0.116211	0.962402	-16.730000	28.000000	-5.530000	459.00	-0.09	-0.10	0.00	0.00	0.00	0.00	0.00	0.00	0.25	0.00	0.00	0.00	0.00	0.00	0.00	0.00	0.00	0.00	0.918945	0.701172	1.499512	59.849998	-445.619995	-15.960000	4.00	0.00	0.00
2.44	3.75	6.75	2.25	4.75	0.75	0.75	0.75	0.50	0.00	4.25	5.75	4.50	0.75	0.50	0.00	4.25	-0.108887	0.107910	0.907715	-20.930000	25.760000	-5.250000	399.00	-0.05	-0.11	0.00	0.00	0.00	0.00	0.00	0.00	0.25	0.00	0.00	0.00	0.00	0.00	0.00	0.00	0.00	0.00	0.702148	0.547363	1.552734	98.000000	-439.459991	22.469999	4.00	0.00	0.00
2.45	2.50	5.25	1.75	2.75	0.50	0.25	0.75	0.50	0.00	4.25	6.25	4.50	1.25	0.75	0.00	4.00	-0.194336	0.184082	0.933594	-30.590000	22.610001	-7.000000	347.00	0.01	-0.12	0.00	0.00	0.00	0.00	0.00	0.00	0.25	0.00	0.00	0.00	0.00	0.00	0.00	0.00	0.00	0.00	0.513184	0.313965	1.771973	140.000000	-442.119995	48.299999	4.00	0.00	0.00
2.46	1.25	3.25	1.00	1.75	0.50	0.25	0.75	0.50	0.00	4.75	6.50	5.00	1.25	1.25	0.00	4.25	-0.233398	0.149902	1.014160	-31.850000	17.990000	-8.540000	315.00	0.08	-0.12	0.00	0.00	0.00	0.00	0.00	0.00	0.00	0.00	0.00	0.00	0.00	0.00	0.00	0.00	0.00	0.00	0.277344	0.083496	1.914551	166.039993	-456.679993	61.810001	0.00	0.00	0.00
2.47	0.75	1.75	0.50	1.50	0.25	0.00	0.75	0.50	0.00	4.75	6.75	5.25	1.50	1.25	0.00	4.25	-0.231934	0.098145	0.938477	-25.270000	15.400000	-8.610000	290.00	0.13	-0.13	0.00	0.00	0.00	0.00	0.00	0.00	0.25	0.00	0.00	0.00	0.00	0.00	0.00	0.00	0.00	0.00	0.066406	-0.050781	1.924805	175.490005	-472.920013	61.740002	4.00	0.00	0.00
2.48	0.00	1.25	0.50	0.75	0.25	0.00	0.75	0.75	0.00	5.00	7.00	6.00	2.00	1.75	0.00	4.50	-0.229004	0.119629	0.958496	-21.559999	13.580000	-4.970000	296.00	0.18	-0.14	0.00	0.00	0.00	0.00	0.00	0.00	0.25	0.00	0.00	0.00	0.00	0.00	0.00	0.00	0.00	0.00	-0.080078	-0.132812	1.992188	191.869995	-480.899994	49.980000	4.00	0.00	0.00
2.49	0.00	0.75	0.25	0.25	0.50	0.00	0.75	0.75	0.00	5.50	7.25	6.25	2.75	2.50	0.00	4.50	-0.232910	0.078125	0.938477	-20.230000	11.900000	0.420000	310.00	0.20	-0.14	0.00	0.00	0.00	0.00	0.00	0.00	0.00	0.00	0.00	0.00	0.00	0.00	0.00	0.00	0.00	0.00	-0.654785	-0.459961	2.644531	267.540009	-492.450012	-3.360000	0.00	0.00	0.00
2.50	0.00	0.25	0.25	0.50	0.00	0.00	1.00	0.75	0.00	5.75	7.75	6.50	3.50	3.00	0.00	4.75	-0.235840	0.171875	0.920410	-18.200001	9.800000	5.530000	329.00	0.21	-0.14	0.00	0.00	0.00	0.00	0.00	0.00	0.25	0.00	0.00	0.00	0.00	0.00	0.00	0.00	0.00	0.00	-1.016113	-0.561523	2.864746	290.779999	-507.570007	-27.580000	4.00	0.00	0.00
2.51	0.00	0.25	0.25	0.25	0.50	0.00	1.00	1.25	0.50	6.50	8.25	7.50	3.75	3.75	0.25	5.00	-0.213867	0.184570	0.886719	-16.240000	6.230000	1.610000	382.00	0.21	-0.13	0.00	0.00	0.00	0.00	0.00	0.00	0.00	0.00	0.00	0.00	0.00	0.00	0.00	0.00	0.00	0.00	-1.379883	-0.516113	2.899414	292.459991	-520.239990	-31.219999	0.00	0.00	0.00
2.52	0.00	0.50	0.25	0.25	0.50	0.25	1.00	1.75	0.75	7.00	8.75	8.00	5.25	5.00	0.00	5.25	-0.214355	0.104980	0.916992	-16.660000	-8.890000	-15.960000	436.00	0.21	-0.14	0.00	0.00	0.00	0.00	0.00	0.00	0.00	0.00	0.00	0.00	0.00	0.00	0.00	0.00	0.00	0.00	-1.742188	-0.389648	2.883789	283.850006	-521.220032	-8.890000	0.00	0.00	0.00
2.53	0.00	0.50	0.25	0.50	0.75	0.50	1.00	2.25	2.00	7.75	9.50	8.75	6.50	6.75	0.50	5.50	-0.196289	0.060547	0.920410	-12.740000	-9.870000	-15.330000	524.00	0.21	-0.12	0.00	0.00	0.00	0.00	0.00	0.00	0.00	0.00	0.00	0.00	0.00	0.00	0.00	0.00	0.00	0.00	-2.249023	-0.233398	2.879395	277.899994	-510.440002	40.459999	0.00	0.00	0.00
2.54	0.00	0.25	0.25	0.00	1.25	0.25	1.00	2.75	2.00	8.50	10.50	9.75	7.00	8.25	0.75	5.75	-0.225098	0.086426	0.984375	-7.070000	-3.290000	-11.340000	576.00	0.22	-0.12	0.00	0.00	0.00	0.00	0.00	0.00	0.00	0.00	0.00	0.00	0.00	0.00	0.00	0.00	0.00	0.00	-2.773438	-0.239746	2.911133	271.250000	-488.950012	113.260002	0.00	0.00	0.00
2.55	0.00	0.25	0.25	0.25	1.00	0.25	1.00	4.25	2.50	9.25	11.50	11.00	8.00	9.75	1.25	6.00	-0.218262	0.076172	0.984863	-1.610000	7.280000	-7.980000	665.00	0.21	-0.13	0.00	0.00	0.00	0.00	0.00	0.00	0.00	0.00	0.00	0.00	0.00	0.00	0.00	0.00	0.00	0.00	-3.363281	-0.378906	3.116699	254.449997	-460.179993	193.059998	0.00	0.00	0.00
2.56	0.00	0.00	0.00	0.25	1.00	0.25	1.00	5.00	3.75	10.25	12.75	12.25	8.75	11.25	1.50	6.50	-0.186523	0.110840	1.046387	5.810000	22.960001	-6.580000	749.00	0.22	-0.12	0.00	0.00	0.00	0.00	0.00	0.00	0.00	0.00	0.00	0.00	0.00	0.00	0.00	0.00	0.00	0.00	-4.223145	-0.381348	3.666992	228.759995	-432.179993	263.549988	0.00	0.00	0.00
2.57	0.00	0.00	0.00	0.00	0.50	0.00	1.00	5.25	4.25	11.00	14.00	13.50	9.75	13.00	2.00	7.00	-0.244141	0.163574	1.065918	10.640000	44.660000	-9.170000	814.00	0.23	-0.12	0.00	0.00	0.00	0.00	0.00	0.00	0.00	0.00	0.00	0.00	0.00	0.00	0.00	0.00	0.00	0.00	-5.498535	-0.278320	3.849121	202.229996	-416.640015	323.119995	0.00	0.00	0.00
2.58	0.00	0.00	0.00	0.00	0.50	0.00	0.75	5.00	5.00	11.50	15.00	14.50	10.25	15.25	2.50	7.50	-0.282715	0.070801	1.134766	23.309999	74.620003	-15.190001	874.00	0.24	-0.11	0.00	0.00	0.00	0.00	0.00	0.00	0.25	0.00	0.00	0.00	0.00	0.00	0.00	0.00	0.00	0.00	-6.865234	-0.268555	2.951172	173.740005	-401.940002	373.450012	4.00	0.00	0.00
2.59	0.00	0.00	0.00	0.00	0.00	0.00	0.50	4.25	5.50	12.00	15.75	15.25	10.25	17.25	3.25	7.75	-0.302246	0.228027	1.156250	43.750000	123.550003	-18.270000	907.00	0.25	-0.10	0.00	0.00	0.00	0.00	0.00	0.00	0.25	0.00	0.00	0.00	0.00	0.00	0.00	0.00	0.00	0.00	-7.739258	-0.499512	1.151367	148.119995	-353.709991	410.690002	4.00	0.00	0.00
2.60	0.00	0.00	0.00	0.00	0.00	0.00	0.25	3.25	5.75	12.50	16.00	15.75	10.00	19.00	4.75	8.00	-0.284668	0.010742	1.477539	65.660004	189.770004	-22.820000	935.00	0.26	-0.09	0.00	0.00	0.00	0.00	0.00	0.00	0.00	0.00	0.00	0.00	0.00	0.00	0.00	0.00	0.00	0.00	-7.860352	-1.027832	-0.501953	142.100006	-253.050003	424.339996	0.00	0.00	0.00
2.61	0.00	0.00	0.00	0.00	0.00	0.00	0.00	2.00	5.75	12.50	16.25	15.75	9.50	20.75	5.50	8.50	-0.350098	0.271973	1.358398	81.410004	263.899994	-25.480000	936.00	0.27	-0.08	0.00	0.00	0.00	0.00	0.00	0.00	0.00	0.00	0.00	0.00	0.00	0.00	0.00	0.00	0.00	0.00	-7.804688	-1.432129	-0.810059	136.779999	-121.379997	392.420013	0.00	0.00	0.00
2.62	0.00	0.00	0.00	0.00	0.00	0.00	0.00	1.25	5.50	12.25	15.75	15.00	8.50	22.00	6.25	9.00	-0.342773	0.207520	1.563965	71.540001	339.220001	-35.209999	918.00	0.28	-0.07	0.00	0.00	0.00	0.00	0.00	0.00	0.00	0.00	0.00	0.00	0.00	0.00	0.00	0.00	0.00	0.00	-7.784180	-1.430176	-0.520508	118.370003	-7.490000	303.589996	0.00	0.00	0.00
2.63	0.00	0.00	0.00	0.00	0.00	0.00	0.00	0.50	5.25	12.00	15.25	14.25	7.25	23.00	6.25	8.75	-0.491211	0.166016	1.815918	50.889999	409.920013	-40.740002	883.00	0.28	-0.06	0.00	0.00	0.00	0.00	0.00	0.00	0.00	0.00	0.00	0.00	0.00	0.00	0.00	0.00	0.00	0.00	-7.258301	-1.400391	-0.130371	105.559998	63.700001	185.570007	0.00	0.00	0.00
2.64	0.00	0.00	0.00	0.00	0.00	0.00	0.00	0.25	4.25	12.00	14.50	13.50	5.75	23.00	6.50	9.00	-0.549316	0.292969	1.682617	46.970001	479.989990	-45.500000	842.00	0.29	-0.06	0.00	0.00	0.00	0.00	0.00	0.00	0.00	0.00	0.00	0.00	0.00	0.00	0.00	0.00	0.00	0.00	-6.487305	-1.509277	0.044922	128.940002	109.340004	73.220001	0.00	0.00	0.00
2.65	0.00	0.00	0.00	0.00	0.00	0.00	0.00	0.25	3.25	11.75	14.00	12.25	5.00	22.50	6.25	8.75	-0.436035	0.283691	1.623535	31.710001	560.559998	-57.119999	793.00	0.29	-0.05	0.00	0.00	0.00	0.00	0.00	0.00	0.00	0.00	0.00	0.00	0.00	0.00	0.00	0.00	0.00	0.00	-5.700684	-1.641113	0.469727	139.089996	153.300003	-19.950001	0.00	0.00	0.00
2.66	0.00	0.00	0.00	0.00	0.00	0.00	0.00	0.00	1.50	11.25	12.75	11.00	3.00	20.75	6.00	8.25	-0.848633	0.215820	2.274902	1.680000	649.179993	-69.580002	697.00	0.30	-0.05	3.00	5.75	0.50	1.25	0.00	0.00	0.00	0.00	0.00	0.00	0.00	0.00	0.00	0.00	0.00	0.00	-0.294922	0.353516	8.627930	-131.600006	516.739990	-60.340000	103.00	-0.39	-0.08
2.67	0.00	0.00	0.00	0.00	0.00	0.00	0.00	0.00	0.50	10.00	11.00	9.25	2.00	18.00	5.25	7.00	-1.301270	0.520508	3.005859	-7.210000	728.979980	-73.430000	587.00	0.30	-0.05	12.00	14.25	1.75	4.25	0.00	0.00	0.00	0.00	0.00	0.00	0.00	0.00	0.00	0.00	0.00	0.00	0.682617	-1.140625	1.248535	-350.350006	353.500000	-137.619995	322.00	-0.38	-0.05
2.68	0.00	0.00	0.00	0.00	0.00	0.00	0.00	0.00	0.00	8.50	9.25	7.75	1.25	14.50	3.50	5.25	-2.051270	0.380859	4.396484	34.580002	768.669983	-62.790001	467.00	0.30	-0.05	19.75	17.75	4.25	6.25	0.00	0.00	0.00	0.00	0.00	0.00	0.00	0.00	0.00	0.00	0.00	0.00	-1.433105	0.936523	1.844238	-306.320007	375.130005	-104.510002	484.00	-0.38	-0.03
2.69	0.00	0.00	0.00	0.00	0.00	0.00	0.00	0.00	0.00	7.25	7.75	6.50	1.00	10.50	2.25	4.50	-2.684570	-0.001465	5.620117	34.369999	764.190002	-59.570000	372.00	0.29	-0.06	23.25	18.50	7.75	8.75	0.00	0.00	0.00	0.00	0.00	0.00	0.00	0.00	0.00	0.00	0.00	0.00	-1.539062	-0.062988	4.337402	-137.479996	433.929993	-24.990000	593.00	-0.37	-0.03
2.70	0.00	0.00	0.00	0.00	0.00	0.00	0.00	0.00	0.00	6.25	7.25	5.75	0.75	6.00	0.75	4.25	-2.338379	0.241211	6.000000	-8.890000	753.479980	-58.730000	290.00	0.27	-0.08	24.00	18.25	9.25	9.75	0.50	0.25	0.00	0.00	0.00	0.00	0.00	0.00	0.00	0.00	0.00	0.00	-0.865234	-0.091309	2.851074	-53.970001	310.309998	-17.850000	635.00	-0.36	-0.03
2.71	0.00	0.00	0.00	0.00	0.00	0.00	0.25	0.00	0.00	5.25	6.50	5.50	0.50	2.50	0.00	4.25	-0.911133	0.767090	6.811523	-47.040001	713.159973	-61.320000	233.00	0.25	-0.11	22.00	17.50	10.50	10.50	0.75	0.75	0.25	0.00	0.00	0.00	0.00	0.00	0.00	0.00	0.00	0.00	-0.571289	-0.130371	2.007812	-3.850000	241.430008	-27.160000	641.00	-0.35	-0.03
2.72	0.00	0.00	0.00	0.00	0.00	0.00	0.25	0.00	0.00	5.00	6.50	5.00	0.25	1.25	0.00	4.25	2.664551	1.436035	5.136719	-32.340000	620.059998	-56.349998	213.00	0.25	-0.12	20.50	16.25	10.75	11.50	1.25	2.00	0.50	0.25	0.00	0.00	0.00	0.00	0.50	0.25	0.00	0.50	-1.041504	0.937012	5.379395	-13.860000	179.550003	-35.840000	664.00	-0.33	-0.04
2.73	0.00	0.00	0.00	0.00	0.00	0.00	0.50	0.00	0.00	4.75	6.00	5.00	0.25	0.75	0.00	4.25	2.142578	0.240234	7.695312	155.050003	80.919998	-235.759995	204.00	0.24	-0.12	18.75	15.75	11.00	12.00	1.50	2.75	0.50	0.75	0.00	0.00	0.00	0.00	0.75	0.50	0.00	0.50	-0.572754	0.129883	1.847168	-43.330002	63.840000	-6.580000	672.00	-0.31	-0.05
2.74	0.00	0.00	0.00	0.00	0.00	0.00	0.50	0.00	0.00	5.00	6.25	4.75	0.25	1.00	0.00	4.00	2.741211	-1.300293	3.905762	142.869995	-119.209999	-335.299988	208.00	0.24	-0.11	17.75	15.00	11.25	12.25	2.00	4.00	0.75	1.25	0.00	0.00	0.00	0.00	1.50	1.00	0.00	0.75	-0.059570	-0.034180	1.138184	-55.160000	21.000000	5.670000	703.00	-0.29	-0.06
2.75	0.00	0.00	0.00	0.00	0.00	0.00	0.50	0.00	0.00	4.75	6.00	5.00	0.00	0.50	0.00	4.50	1.489258	-0.136230	3.040527	39.830002	-193.130005	-423.640015	202.00	0.24	-0.12	17.50	15.00	11.50	12.75	2.25	5.00	0.75	1.50	0.00	0.00	0.00	0.00	1.75	1.00	0.00	1.25	-0.346680	0.137695	1.270996	-29.540001	-3.010000	0.350000	731.00	-0.28	-0.07
2.76	0.00	0.00	0.00	0.00	0.00	0.00	0.50	0.00	0.00	4.25	5.75	4.50	0.00	0.50	0.00	4.25	1.302734	0.937988	3.219727	-34.790001	-223.649994	-440.019989	187.00	0.24	-0.12	17.25	14.75	11.25	12.75	2.25	5.00	0.75	1.50	0.00	0.00	0.00	0.00	1.50	1.25	0.25	1.00	-0.260742	0.240723	1.103516	-9.730000	-5.530000	2.660000	725.00	-0.28	-0.07
2.77	0.00	0.00	0.00	0.00	0.00	0.00	0.50	0.00	0.00	4.25	5.75	4.00	0.00	0.25	0.00	4.25	1.563477	1.530273	3.185547	-64.540001	-278.739990	-407.679993	180.00	0.24	-0.12	17.25	14.75	11.00	12.75	2.25	5.25	0.75	1.50	0.00	0.00	0.00	0.00	1.00	0.75	0.00	1.00	-0.168945	0.179199	1.045898	-2.380000	0.770000	3.850000	713.00	-0.29	-0.07
2.78	0.00	0.00	0.00	0.00	0.00	0.00	0.75	0.00	0.00	4.00	5.75	4.00	0.00	0.50	0.00	4.25	1.121582	1.709473	2.992676	-79.590004	-353.360016	-355.670013	183.00	0.24	-0.11	15.75	14.50	10.75	12.00	2.00	4.75	0.75	1.25	0.00	0.00	0.00	0.00	1.25	0.50	0.00	1.00	-0.189453	0.184082	1.005859	2.520000	4.550000	3.920000	673.00	-0.29	-0.07
2.79	0.00	0.00	0.00	0.00	0.00	0.00	0.50	0.00	0.00	4.00	5.50	3.75	0.00	0.50	0.00	4.00	0.875488	1.970215	2.279785	-92.050003	-407.260010	-290.290009	173.00	0.24	-0.12	15.75	14.00	10.00	11.75	1.75	4.50	0.50	1.25	0.00	0.00	0.00	0.00	1.00	0.50	0.25	0.75	-0.160156	0.177246	0.997559	7.490000	7.840000	6.440000	647.00	-0.29	-0.07
2.80	0.00	0.00	0.00	0.00	0.00	0.00	0.75	0.00	0.00	4.00	5.50	3.75	0.00	0.25	0.00	4.00	0.630859	2.222168	1.892578	-86.940002	-432.809998	-213.710007	174.00	0.23	-0.11	13.25	13.00	9.00	11.00	1.25	3.50	0.50	1.00	0.00	0.00	0.00	0.00	0.50	0.25	0.25	0.75	-0.112793	0.164551	0.959961	14.070000	10.920000	8.540000	566.00	-0.30	-0.07
2.81	0.00	0.00	0.00	0.00	0.00	0.00	0.75	0.00	0.00	3.75	5.50	4.00	0.00	0.50	0.00	4.00	0.300293	2.373535	1.680664	-34.650002	-445.760010	-124.389999	176.00	0.24	-0.11	10.25	11.50	7.75	9.75	1.00	2.75	0.50	1.00	0.00	0.00	0.00	0.00	0.75	0.00	0.25	0.25	-0.117676	0.188477	0.897949	13.580000	13.790000	9.940000	480.00	-0.30	-0.08
2.82	0.00	0.00	0.00	0.00	0.00	0.00	0.75	0.00	0.00	3.75	5.50	3.75	0.00	0.25	0.00	4.25	0.021484	2.089355	1.572754	39.689999	-455.070007	-30.380001	173.00	0.24	-0.12	8.25	9.75	6.25	8.50	0.75	2.50	0.50	0.75	0.00	0.00	0.00	0.00	0.50	0.00	0.00	0.25	-0.084961	0.191406	0.883789	4.410000	17.920000	11.200000	398.00	-0.30	-0.08
2.83	0.00	0.00	0.00	0.00	0.00	0.00	0.50	0.00	0.00	3.75	5.25	3.50	0.00	0.25	0.00	4.25	-0.283203	1.673828	1.585449	97.300003	-459.410004	56.560001	164.00	0.24	-0.12	6.00	8.00	5.00	7.75	0.50	2.25	0.50	1.00	0.00	0.00	0.00	0.00	0.50	0.00	0.00	0.50	-0.083008	0.143555	0.958008	-0.210000	18.340000	11.410000	336.00	-0.29	-0.10
2.84	0.00	0.00	0.00	0.00	0.00	0.00	0.75	0.00	0.00	3.75	5.50	3.75	0.00	0.00	0.00	4.25	-0.556152	1.321777	1.664062	122.010002	-458.360016	128.660004	171.00	0.23	-0.12	3.75	6.25	2.75	6.25	0.25	1.25	0.25	1.00	0.00	0.00	0.00	0.00	0.75	0.00	0.00	0.00	-0.056152	0.182129	0.976562	1.120000	16.799999	10.710000	237.00	-0.29	-0.12
2.85	0.00	0.00	0.00	0.00	0.00	0.00	0.75	0.00	0.00	3.75	5.25	3.50	0.00	0.00	0.00	4.00	-0.772949	1.062988	1.800781	120.820000	-454.720001	180.880005	164.00	0.23	-0.11	2.00	5.00	1.50	5.00	0.25	1.00	0.25	1.00	0.00	0.00	0.25	0.00	1.00	0.00	0.00	0.50	-0.129883	0.156738	0.931152	-4.480000	20.440001	12.530000	185.00	-0.25	-0.16
2.86	0.00	0.00	0.00	0.00	0.00	0.00	0.50	0.00	0.00	3.50	5.50	3.50	0.00	0.00	0.00	4.00	-0.927246	0.869629	1.906738	111.860001	-452.059998	211.820007	160.00	0.24	-0.13	1.25	2.50	0.25	4.75	0.00	0.50	0.25	1.00	0.00	0.00	0.25	0.00	1.50	0.25	0.25	0.75	-0.075195	0.228516	0.870117	-10.430000	27.930000	16.100000	140.00	-0.18	-0.20
2.87	0.00	0.00	0.00	0.00	0.00	0.00	0.50	0.00	0.00	3.50	5.25	3.25	0.00	0.00	0.00	4.00	-1.052734	0.745605	1.996582	107.309998	-449.540009	223.930008	155.00	0.24	-0.12	0.50	2.00	0.50	1.50	0.00	0.25	0.50	1.00	0.00	0.25	0.00	0.50	2.00	0.50	0.00	1.00	-0.077637	0.104980	1.142090	-20.860001	39.689999	15.050000	106.00	-0.07	-0.20
2.88	0.00	0.00	0.00	0.00	0.00	0.00	0.50	0.00	0.00	3.75	5.50	3.75	0.00	0.00	0.00	4.00	-1.168945	0.656250	2.117188	111.650002	-446.670013	221.970001	166.00	0.24	-0.13	0.25	0.75	0.25	1.50	0.00	0.25	0.50	1.25	0.00	0.75	0.75	0.25	2.25	0.50	0.25	1.00	-0.146973	0.162109	0.971191	-21.629999	45.709999	12.530000	108.00	0.03	-0.20
2.89	0.00	0.00	0.00	0.00	0.00	0.00	0.50	0.00	0.00	3.50	5.50	3.75	0.00	0.00	0.00	4.00	-1.268555	0.595703	2.250488	118.230003	-445.830017	212.169998	163.00	0.24	-0.13	0.00	1.00	0.00	0.50	0.00	0.75	0.50	1.25	0.25	0.75	1.25	0.75	3.00	1.00	0.25	1.00	-0.174805	0.164551	0.972168	-12.180000	47.389999	12.950000	124.00	0.10	-0.21
2.90	0.00	0.00	0.00	0.00	0.00	0.00	0.50	0.00	0.00	3.50	5.50	3.75	0.00	0.00	0.00	4.25	-1.432129	0.592773	2.507812	127.050003	-447.440002	198.240005	164.00	0.24	-0.13	0.00	0.00	0.25	0.00	0.00	0.00	0.50	1.25	0.50	1.00	1.25	1.50	3.75	1.50	0.25	1.00	-0.125977	0.271484	0.999023	-4.620000	46.549999	6.510000	129.00	0.19	-0.18
2.91	0.00	0.00	0.00	0.00	0.00	0.00	0.50	0.00	0.00	3.50	5.50	3.75	0.00	0.00	0.00	4.00	-1.718262	0.635254	2.754395	137.899994	-455.910004	183.750000	163.00	0.24	-0.13	0.00	0.50	0.00	0.25	0.00	0.00	0.50	1.50	0.50	1.25	2.50	1.75	4.50	1.50	0.25	1.50	-0.201172	0.208984	0.927246	-0.070000	44.939999	-2.520000	165.00	0.17	-0.20
2.92	0.00	0.00	0.00	0.00	0.00	0.00	0.50	0.00	0.00	3.50	5.50	3.50	0.00	0.00	0.00	4.00	-2.019531	0.624512	2.949219	149.169998	-469.000000	171.570007	160.00	0.24	-0.13	0.00	1.00	0.00	0.00	0.00	0.75	0.50	1.50	0.25	1.50	2.50	2.50	5.00	1.75	0.50	2.00	-0.268555	0.184570	0.980957	-0.840000	40.670002	-6.860000	194.00	0.16	-0.21
2.93	0.00	0.00	0.00	0.00	0.00	0.00	0.50	0.00	0.00	3.75	5.75	3.75	0.00	0.00	0.00	4.25	-2.346680	0.568848	2.941895	161.770004	-484.260010	164.080002	170.00	0.24	-0.13	0.00	0.00	0.00	0.00	0.00	0.00	0.50	1.75	1.00	2.00	3.25	3.00	6.25	2.25	1.25	2.25	-0.225098	0.183594	0.879395	-0.770000	33.320000	-10.500000	233.00	0.21	-0.19
2.94	0.00	0.00	0.00	0.00	0.00	0.00	0.50	0.00	0.00	3.50	5.50	3.75	0.00	0.00	0.00	4.00	-3.047852	0.489746	2.467773	158.619995	-480.200012	157.850006	163.00	0.24	-0.13	0.00	0.00	0.00	0.00	0.00	0.00	0.50	2.25	1.25	2.50	4.25	4.00	7.50	2.75	1.00	3.00	-0.201660	0.180176	0.939453	-3.570000	26.320000	-10.920000	286.00	0.21	-0.19
2.95	0.00	0.00	0.00	0.00	0.00	0.00	0.50	0.00	0.00	3.75	5.50	3.75	0.00	0.00	0.00	4.00	-3.371582	0.479004	2.425781	166.250000	-453.320007	158.410004	166.00	0.24	-0.13	0.00	0.25	0.00	0.00	0.00	0.00	0.50	2.50	1.25	3.00	6.75	6.25	8.25	4.00	1.25	4.25	-0.229980	0.191895	0.918945	-0.420000	23.309999	-12.040000	374.00	0.21	-0.19
2.96	0.00	0.00	0.00	0.00	0.00	0.00	0.50	0.00	0.00	3.75	5.50	3.50	0.00	0.00	0.00	4.00	-3.989746	0.450195	2.673828	196.630005	-422.589996	159.880005	163.00	0.24	-0.12	0.00	0.00	0.00	0.00	0.00	0.00	0.50	3.25	2.00	3.50	8.00	7.50	8.75	5.75	2.00	5.50	-0.206543	0.166504	1.000977	5.250000	24.920000	-12.250000	458.00	0.23	-0.17
2.97	0.00	0.00	0.00	0.00	0.00	0.00	0.50	0.00	0.00	3.50	5.50	3.75	0.00	0.00	0.00	4.00	-4.991699	0.298828	2.506836	229.180008	-394.170013	164.500000	163.00	0.24	-0.13	0.00	0.00	0.00	0.00	0.00	0.00	0.50	3.25	2.75	4.25	9.25	8.50	9.50	7.50	2.25	6.25	-0.239258	0.164062	1.004883	12.530000	32.549999	-12.250000	528.00	0.23	-0.16
2.98	0.00	0.00	0.00	0.00	0.00	0.00	0.50	0.00	0.00	3.75	5.50	4.00	0.00	0.00	0.00	4.00	-6.072266	0.040039	1.675781	236.809998	-352.940002	174.649994	168.00	0.24	-0.13	0.00	0.00	0.00	0.00	0.00	0.00	0.50	3.75	3.00	5.75	10.25	9.25	10.00	9.50	3.25	7.00	-0.254883	0.180176	1.079590	19.809999	47.880001	-12.320000	609.00	0.24	-0.14
2.99	0.00	0.00	0.00	0.00	0.00	0.00	0.50	0.00	0.00	3.75	5.50	3.75	0.00	0.00	0.00	4.00	-7.029297	-0.347168	0.580078	210.770004	-283.290009	196.839996	166.00	0.24	-0.13	0.00	0.00	0.00	0.00	0.00	0.00	0.25	3.25	3.75	7.25	11.00	9.75	10.50	12.25	3.75	7.75	-0.238281	0.202637	1.121582	29.960001	74.269997	-13.370000	673.00	0.25	-0.12
3.00	0.00	0.00	0.00	0.00	0.00	0.00	0.50	0.00	0.00	3.75	5.50	3.75	0.00	0.00	0.00	4.00	-6.840820	-0.726562	-0.619141	142.380005	-183.470001	192.080002	166.00	0.24	-0.13	0.00	0.00	0.00	0.00	0.00	0.00	0.00	2.75	4.00	7.75	11.75	10.50	10.50	14.75	6.00	8.75	-0.257324	0.215820	1.264648	41.020000	111.860001	-16.450001	736.00	0.26	-0.11
3.01	0.00	0.00	0.00	0.00	0.00	0.00	0.50	0.00	0.00	4.00	5.50	3.75	0.00	0.00	0.00	4.00	-6.936035	-0.691895	-0.621094	81.480003	-94.360001	161.979996	168.00	0.24	-0.12	0.00	0.00	0.00	0.00	0.00	0.00	0.00	2.25	4.25	8.00	12.25	10.75	10.50	17.25	6.75	9.50	-0.356445	0.281250	1.221191	43.049999	157.430008	-20.299999	776.00	0.27	-0.10
3.02	0.00	0.00	0.00	0.00	0.00	0.00	0.50	0.00	0.00	3.75	5.50	4.00	0.00	0.00	0.00	4.00	-6.999023	-0.549805	-0.618652	70.070000	-30.520000	105.209999	168.00	0.24	-0.13	0.00	0.00	0.00	0.00	0.00	0.00	0.00	1.25	4.75	8.25	12.50	11.00	10.00	19.25	7.50	10.00	-0.317871	0.237793	1.356445	45.009998	219.100006	-33.320000	798.00	0.28	-0.09
3.03	0.00	0.00	0.00	0.00	0.00	0.00	0.50	0.00	0.00	3.75	5.50	3.75	0.00	0.00	0.00	4.00	-6.983887	-0.690918	-0.739746	86.379997	26.460001	43.610001	166.00	0.24	-0.13	0.00	0.00	0.00	0.00	0.00	0.00	0.00	0.75	4.75	8.50	12.75	10.75	9.50	20.75	7.75	10.75	-0.393066	0.228027	1.573242	32.830002	285.880005	-33.250000	808.00	0.29	-0.08
3.04	0.00	0.00	0.00	0.00	0.00	0.00	0.50	0.00	0.00	3.50	5.50	3.75	0.00	0.00	0.00	4.00	-6.616211	-0.669922	-0.698730	80.919998	98.349998	-8.050000	163.00	0.24	-0.13	0.00	0.00	0.00	0.00	0.00	0.00	0.00	0.00	4.25	8.50	12.50	10.50	8.50	21.75	8.25	11.25	-0.549316	0.318359	1.786621	41.020000	347.339996	-32.060001	793.00	0.30	-0.07
3.05	0.50	1.50	0.00	0.00	0.00	0.00	0.25	0.00	0.00	3.25	5.00	3.75	0.00	0.00	0.00	4.25	-4.615234	-0.171387	2.429688	43.400002	335.440002	-33.670002	172.00	0.17	-0.14	0.00	0.00	0.00	0.00	0.00	0.00	0.00	0.00	3.75	8.00	12.00	10.25	7.75	22.50	8.75	11.50	-0.434570	0.293945	1.729980	61.250000	411.179993	-35.209999	780.00	0.30	-0.07
3.06	8.25	16.75	0.25	0.75	0.00	0.00	0.00	0.00	0.00	3.50	5.50	3.75	0.00	0.00	0.00	4.00	-1.474609	-0.241699	0.391113	-20.650000	393.190002	-68.669998	406.00	-0.16	-0.10	0.00	0.00	0.00	0.00	0.00	0.00	0.00	0.00	2.75	7.50	11.25	9.50	7.00	22.00	8.50	11.75	-0.500977	0.512695	1.799316	70.910004	481.459991	-46.200001	734.00	0.30	-0.07
3.07	19.75	32.75	1.25	4.75	0.00	0.00	0.00	0.00	0.00	3.50	5.75	4.25	0.00	0.00	0.00	4.00	-1.080566	0.336426	1.019531	8.190000	440.649994	-49.279999	735.00	-0.25	-0.09	0.00	0.00	0.00	0.00	0.00	0.00	0.00	0.00	1.50	6.75	10.50	9.00	6.25	20.25	8.50	11.00	-0.599609	0.405273	1.996094	80.080002	556.359985	-62.439999	671.00	0.31	-0.08
3.08	22.25	37.50	2.75	9.00	0.00	0.00	0.00	0.00	0.00	3.50	6.00	4.50	0.00	0.00	0.00	4.25	-2.680176	0.642578	3.721191	80.220001	586.739990	-37.590000	875.00	-0.27	-0.09	0.00	0.00	0.00	0.00	0.00	0.00	0.00	0.00	0.50	4.75	9.00	8.25	5.50	17.00	7.50	9.75	-0.963867	0.670410	2.413086	93.169998	628.950012	-73.150002	562.00	0.31	-0.09
3.09	19.75	36.50	4.75	13.75	0.25	3.00	0.25	0.75	0.00	3.75	5.75	4.75	0.00	0.00	0.00	4.00	-2.537598	-0.184082	4.685059	77.559998	625.729980	-58.799999	966.00	-0.25	-0.10	0.00	0.00	0.00	0.00	0.00	0.00	0.00	0.00	0.25	2.75	6.50	6.75	4.75	13.00	6.25	8.00	-2.188477	0.946289	5.392578	222.600006	755.299988	-74.340004	432.00	0.31	-0.10
3.10	16.50	33.75	5.75	16.00	0.50	6.75	0.50	2.25	0.00	3.75	6.25	5.00	1.00	0.00	0.00	4.00	-2.467773	1.081543	6.310059	-173.320007	424.619995	-65.730003	1030.00	-0.23	-0.13	0.00	0.00	0.00	0.00	0.00	0.00	0.00	0.00	0.00	2.00	3.25	4.00	3.00	8.75	4.75	5.75	-2.628418	1.230957	6.494629	234.639999	763.559998	-74.480003	279.00	0.32	-0.10
3.11	13.50	30.50	5.75	15.50	0.50	6.75	0.50	2.75	0.00	3.50	6.50	4.75	1.25	0.00	0.00	4.00	-1.586914	-0.035156	2.597168	-150.779999	173.809998	-18.830000	970.00	-0.21	-0.13	0.00	0.00	0.00	0.00	0.00	0.00	0.00	0.00	0.00	1.25	1.75	2.25	1.75	4.50	2.50	2.25	-1.358398	1.583496	6.682617	257.739990	733.250000	-76.370003	147.00	0.31	-0.10
3.12	12.00	28.25	5.75	15.00	0.75	7.50	0.75	4.00	0.00	4.00	6.25	5.25	2.25	0.00	0.00	4.00	-0.001953	-0.096680	1.206543	-88.129997	93.169998	-5.950000	979.00	-0.19	-0.14	0.00	0.00	0.00	0.00	0.00	0.00	0.00	0.00	0.00	1.00	1.25	1.00	0.75	0.25	0.25	0.25	1.020996	1.522461	6.777832	354.970001	641.970032	-103.529999	47.00	0.00	0.00
3.13	11.75	28.25	6.50	15.50	0.75	8.25	0.75	5.00	0.00	4.00	6.25	5.25	2.75	0.00	0.00	4.00	-0.315430	0.152344	1.097168	-69.300003	50.889999	-11.970000	1018.00	-0.19	-0.15	0.00	0.00	0.00	0.00	0.00	0.00	0.00	0.00	0.00	0.25	0.75	0.25	0.50	0.00	0.00	0.25	4.403809	-0.552734	5.013672	436.940002	507.989990	-186.899994	19.00	0.00	0.00
3.14	12.50	28.25	7.00	16.25	1.00	8.75	0.75	5.25	0.00	4.00	6.00	5.00	3.00	0.00	0.00	4.25	-0.348633	0.286621	1.062500	-51.660000	28.280001	-8.470000	1050.00	-0.19	-0.15	0.00	0.00	0.00	0.00	0.00	0.00	0.00	0.00	0.00	0.25	0.75	0.50	0.00	0.00	0.00	0.00	0.758789	2.863281	10.481934	248.500000	258.720001	-232.540009	16.00	0.00	0.00
3.15	13.50	28.00	7.50	16.00	1.00	8.50	0.75	5.25	0.00	4.00	6.00	5.00	2.75	0.00	0.00	4.25	-0.232422	0.184570	1.066895	-27.790001	11.970000	-12.320000	1056.00	-0.19	-0.14	0.00	0.00	0.00	0.00	0.00	0.00	0.00	0.00	0.00	0.00	0.50	0.50	0.00	0.00	0.00	0.00	2.594238	0.511719	5.239258	101.849998	-85.470001	-169.539993	11.00	0.00	0.00
3.16	13.75	27.50	7.50	15.50	1.00	8.00	0.75	5.00	0.00	4.00	6.00	5.00	2.50	0.00	0.00	4.00	-0.186035	0.235352	0.904297	-20.230000	13.930000	-12.320000	1036.00	-0.20	-0.14	0.00	0.00	0.00	0.00	0.00	0.00	0.00	0.00	0.00	0.00	0.50	0.00	0.00	0.00	0.00	0.00	1.951172	0.073242	3.071777	-53.970001	-237.229996	-165.550003	5.00	0.00	0.00
3.17	13.50	26.75	7.25	14.50	1.00	7.25	0.75	4.00	0.00	4.00	6.00	5.00	2.25	0.00	0.00	4.25	-0.237793	0.275391	0.932617	-26.250000	18.830000	-13.370000	988.00	-0.19	-0.13	0.00	0.00	0.00	0.00	0.00	0.00	0.00	0.00	0.00	0.50	0.50	0.00	0.00	0.00	0.00	0.00	1.652344	0.497559	2.525879	-124.809998	-254.169998	-206.990005	10.00	0.00	0.00
3.18	13.25	25.25	7.00	13.25	1.00	6.50	0.75	3.00	0.00	3.75	6.00	5.00	1.50	0.00	0.00	4.25	-0.232910	0.193359	0.969238	-32.410000	25.410000	-14.980000	923.00	-0.20	-0.13	0.00	0.00	0.00	0.00	0.00	0.00	0.00	0.00	0.00	0.00	0.25	0.00	0.00	0.00	0.00	0.00	1.601074	0.790527	2.773926	-122.919998	-269.290009	-238.210007	3.00	0.00	0.00
3.19	11.50	22.50	6.50	11.25	1.00	5.25	0.75	2.00	0.00	3.75	5.75	4.75	1.25	0.00	0.00	4.00	-0.179199	0.164551	0.924316	-32.830002	30.590000	-15.470000	814.00	-0.19	-0.12	0.00	0.25	0.00	0.00	0.00	0.00	0.00	0.00	0.00	0.00	0.25	0.00	0.00	0.00	0.00	0.00	1.470703	0.736816	2.873047	-92.959999	-339.920013	-247.660004	5.00	0.00	0.00
3.20	9.50	18.75	5.75	9.50	1.00	4.00	0.75	1.50	0.00	4.00	5.75	4.75	1.00	0.00	0.00	4.00	-0.138184	0.195312	0.850586	-34.299999	36.540001	-13.930000	711.00	-0.17	-0.12	0.00	0.00	0.00	0.00	0.00	0.00	0.00	0.00	0.00	0.00	0.00	0.00	0.00	0.00	0.00	0.00	1.131348	0.500000	2.561523	-72.239998	-425.040009	-250.180008	0.00	0.00	0.00
3.21	7.75	15.00	5.00	8.00	0.75	2.75	0.75	1.00	0.00	4.00	5.75	4.50	0.75	0.00	0.00	4.00	-0.130859	0.166504	0.918945	-37.310001	37.240002	-11.270000	604.00	-0.15	-0.11	0.00	0.00	0.00	0.00	0.00	0.00	0.00	0.00	0.00	0.00	0.00	0.00	0.00	0.00	0.00	0.00	0.869629	0.351562	2.074219	-58.520000	-481.809998	-249.690002	0.00	0.00	0.00
3.22	6.25	9.75	4.00	6.25	0.75	1.75	0.75	1.00	0.00	4.00	6.00	4.75	0.75	0.00	0.00	4.00	-0.161133	0.112305	0.961426	-35.349998	32.480000	-10.710000	505.00	-0.11	-0.11	0.00	0.00	0.00	0.00	0.00	0.00	0.00	0.00	0.00	0.00	0.00	0.00	0.00	0.00	0.00	0.00	0.648438	0.286133	1.652832	-44.799999	-504.839996	-243.110001	0.00	0.00	0.00
3.23	4.25	7.25	2.25	5.00	0.50	1.00	0.75	1.00	0.00	4.00	6.25	4.75	0.75	0.25	0.00	4.25	-0.139648	0.147461	0.922852	-33.529999	28.630001	-12.180000	423.00	-0.06	-0.12	0.00	0.00	0.00	0.00	0.00	0.00	0.00	0.00	0.00	0.00	0.00	0.00	0.00	0.00	0.00	0.00	0.460449	0.347168	1.476074	-17.290001	-505.820007	-228.270004	0.00	0.00	0.00
3.24	2.75	5.25	1.50	3.00	0.50	0.75	0.75	0.50	0.00	4.25	6.25	4.75	1.00	0.50	0.00	4.25	-0.167969	0.145020	0.918945	-39.130001	27.860001	-13.370000	355.00	0.00	-0.12	0.00	0.00	0.00	0.00	0.00	0.00	0.00	0.00	0.00	0.00	0.00	0.00	0.00	0.00	0.00	0.00	0.308105	0.359375	1.401367	26.389999	-497.350006	-203.350006	0.00	0.00	0.00
3.25	1.25	3.75	0.25	2.00	0.25	0.75	0.75	0.75	0.00	4.50	6.50	5.00	1.25	0.75	0.00	4.25	-0.269531	0.114258	0.969238	-46.480000	27.650000	-12.740000	314.00	0.07	-0.14	0.00	0.25	0.00	0.00	0.00	0.00	0.00	0.00	0.00	0.00	0.00	0.00	0.00	0.00	0.00	0.00	0.239258	0.348633	1.334473	75.459999	-486.779999	-171.149994	2.00	0.00	0.00
3.26	0.50	1.50	0.25	1.00	0.50	0.00	0.75	0.50	0.00	4.75	7.00	5.00	1.50	1.25	0.00	4.25	-0.246094	0.115234	0.971191	-38.570000	23.450001	-10.990000	280.00	0.15	-0.13	0.00	0.00	0.00	0.00	0.00	0.00	0.00	0.00	0.00	0.00	0.00	0.00	0.00	0.00	0.00	0.00	0.097168	0.307617	1.393555	124.320000	-476.070007	-134.750000	0.00	0.00	0.00
3.27	0.00	0.75	0.00	0.50	0.25	0.00	0.75	0.50	0.00	5.25	6.75	5.25	1.50	0.75	0.00	4.25	-0.255371	0.144043	0.936035	-33.529999	20.650000	-8.050000	257.00	0.19	-0.14	0.00	0.00	0.00	0.00	0.00	0.00	0.00	0.00	0.00	0.00	0.00	0.00	0.00	0.00	0.00	0.00	-0.037598	0.253418	1.504883	160.440002	-465.010010	-99.610001	0.00	0.00	0.00
3.28	0.00	0.25	1.75	0.00	0.75	0.00	0.75	0.25	0.00	6.00	7.25	5.75	2.00	1.25	0.00	4.25	-0.288086	0.145508	0.922363	-33.320000	25.270000	-5.390000	296.00	0.18	-0.11	0.00	0.00	0.00	0.00	0.00	0.00	0.00	0.00	0.00	0.00	0.00	0.00	0.00	0.00	0.00	0.00	-0.150879	0.244629	1.646484	182.630005	-453.950012	-70.209999	0.00	0.00	0.00
3.29	0.00	0.25	0.00	0.00	0.50	0.00	0.75	0.25	0.25	6.75	7.25	6.25	2.50	2.25	0.00	4.25	-0.171875	0.233887	1.003906	-27.160000	39.830002	-4.060000	302.00	0.22	-0.12	0.00	0.00	0.00	0.00	0.00	0.00	0.00	0.00	0.00	0.00	0.00	0.00	0.00	0.00	0.00	0.00	-0.450195	0.257812	2.386719	229.880005	-448.980011	-25.830000	0.00	0.00	0.00
3.30	0.00	0.50	0.00	0.00	0.25	0.00	0.75	0.50	0.75	7.00	8.00	7.00	2.50	3.00	0.00	4.75	-0.289062	0.171875	0.886719	-17.080000	41.299999	-14.980000	340.00	0.22	-0.11	0.00	0.00	0.00	0.00	0.00	0.00	0.00	0.00	0.00	0.00	0.00	0.00	0.00	0.00	0.00	0.00	-0.773926	0.245605	2.681641	257.670013	-457.309998	-5.110000	0.00	0.00	0.00
3.31	0.00	0.25	0.75	0.00	0.75	0.00	0.75	0.50	1.00	7.75	8.50	7.25	3.00	4.50	0.25	5.00	-0.289551	0.128418	0.885254	-16.590000	33.599998	-20.510000	391.00	0.22	-0.10	0.00	0.00	0.00	0.00	0.00	0.00	0.00	0.00	0.00	0.00	0.00	0.00	0.00	0.00	0.00	0.00	-1.066895	0.087402	2.796387	278.739990	-462.070007	24.780001	0.00	0.00	0.00
3.32	0.00	0.00	0.00	0.00	0.25	0.00	0.75	0.50	1.25	8.25	9.25	8.00	3.50	6.50	0.25	5.00	-0.272949	0.090820	0.890137	-17.360001	25.549999	-20.790001	421.00	0.25	-0.09	0.00	0.00	0.00	0.00	0.00	0.00	0.00	0.00	0.00	0.25	0.00	0.00	0.00	0.00	0.00	0.00	-1.351562	-0.047363	2.857422	286.860016	-459.130005	63.560001	3.00	0.00	0.00
3.33	0.00	0.00	0.00	0.00	0.50	0.00	0.75	0.50	2.00	9.00	10.25	8.50	4.00	8.00	0.75	5.50	-0.275391	0.113281	0.865234	-16.379999	15.190001	-18.830000	482.00	0.25	-0.08	0.00	0.00	0.00	0.00	0.00	0.00	0.25	0.00	0.00	0.00	0.00	0.00	0.00	0.00	0.00	0.00	-1.750488	-0.094238	2.952148	275.940002	-449.959991	109.270004	4.00	0.00	0.00
3.34	0.00	0.00	0.00	0.00	0.00	0.00	0.50	0.50	3.25	10.00	11.25	9.25	5.25	9.50	1.00	5.75	-0.275391	0.075684	0.922363	-14.070000	6.860000	-14.980000	546.00	0.26	-0.08	0.00	0.00	0.00	0.00	0.00	0.00	0.25	0.00	0.00	0.00	0.00	0.00	0.00	0.00	0.00	0.00	-2.196777	-0.131836	3.099121	257.670013	-439.250000	161.210007	4.00	0.00	0.00
3.35	0.00	0.00	0.00	0.00	0.25	0.00	0.75	1.00	4.25	10.75	12.25	10.25	6.00	11.25	1.25	6.00	-0.291992	0.045410	0.966797	-10.430000	5.320000	-9.590000	627.00	0.25	-0.07	0.00	0.00	0.00	0.00	0.00	0.00	0.00	0.00	0.00	0.00	0.00	0.00	0.00	0.00	0.00	0.00	-2.625488	-0.274414	3.328613	246.960007	-433.720001	218.399994	0.00	0.00	0.00
3.36	0.00	0.00	0.00	0.00	0.50	0.00	0.75	1.00	5.25	11.50	13.50	11.25	7.00	12.75	1.75	6.50	-0.234375	0.083984	0.974121	8.750000	32.689999	-1.610000	704.00	0.25	-0.07	0.00	0.00	0.00	0.00	0.00	0.00	0.00	0.00	0.00	0.00	0.00	0.00	0.00	0.00	0.00	0.00	-3.230469	-0.531250	3.496582	240.169998	-435.679993	273.350006	0.00	0.00	0.00
3.37	0.00	0.25	0.00	0.00	0.00	0.00	0.75	1.25	5.75	12.25	14.50	12.25	7.50	15.00	2.25	6.75	-0.290527	0.115723	1.084473	20.090000	58.450001	-1.470000	770.00	0.26	-0.07	0.00	0.00	0.00	0.00	0.00	0.00	0.00	0.00	0.00	0.00	0.00	0.00	0.00	0.00	0.00	0.00	-4.152344	-0.608887	3.504883	234.990005	-437.429993	319.760010	0.00	0.00	0.00
3.38	0.00	0.00	0.00	0.00	0.00	0.00	0.50	1.25	6.25	13.00	15.50	13.50	8.00	17.00	3.25	7.50	-0.306641	0.167480	1.129883	29.469999	92.120003	-3.220000	838.00	0.26	-0.07	0.00	0.00	0.00	0.00	0.00	0.00	0.00	0.00	0.00	0.00	0.00	0.00	0.00	0.00	0.00	0.00	-5.443359	-0.528320	3.280273	224.630005	-423.779999	357.070007	0.00	0.00	0.00
3.39	0.00	0.00	0.00	0.00	0.00	0.00	0.50	0.75	7.50	13.75	16.00	14.25	8.25	18.75	4.50	8.00	-0.298828	0.182129	1.159668	42.700001	136.009995	-8.190000	900.00	0.27	-0.06	0.00	0.00	0.00	0.00	0.00	0.00	0.00	0.00	0.00	0.00	0.00	0.00	0.00	0.00	0.00	0.00	-6.807129	-0.553223	2.363770	186.199997	-380.730011	382.130005	0.00	0.00	0.00
3.40	0.00	0.00	0.00	0.00	0.00	0.00	0.25	1.00	7.75	14.00	16.50	14.25	8.00	20.50	5.25	8.75	-0.335449	0.244141	1.229004	55.860001	190.820007	-17.010000	936.00	0.27	-0.06	0.00	0.00	0.00	0.00	0.00	0.00	0.00	0.00	0.00	0.00	0.00	0.00	0.00	0.00	0.00	0.00	-7.592285	-0.695312	0.753906	111.580002	-309.260010	387.239990	0.00	0.00	0.00
3.41	0.00	0.00	0.00	0.00	0.00	0.00	0.25	0.50	8.00	14.00	16.50	14.50	7.50	22.00	6.00	9.25	-0.382812	0.294922	1.357422	57.260002	248.710007	-27.510000	954.00	0.28	-0.05	0.00	0.00	0.00	0.00	0.00	0.00	0.00	0.00	0.00	0.00	0.00	0.00	0.00	0.00	0.00	0.00	-7.752930	-0.782227	-0.652344	42.349998	-212.029999	347.480011	0.00	0.00	0.00
3.42	0.00	0.00	0.00	0.00	0.00	0.00	0.00	0.25	8.00	14.00	16.25	14.00	6.75	23.00	6.50	9.50	-0.486328	0.215332	1.443848	43.400002	303.519989	-33.740002	947.00	0.28	-0.04	0.00	0.00	0.00	0.00	0.00	0.00	0.00	0.00	0.00	0.00	0.00	0.00	0.00	0.00	0.00	0.00	-7.742676	-0.744141	-0.977051	36.119999	-97.510002	256.829987	0.00	0.00	0.00
3.43	0.00	0.00	0.00	0.00	0.00	0.00	0.00	0.00	7.75	14.00	15.75	13.25	5.50	23.75	6.75	9.50	-0.492676	0.249023	1.827148	28.280001	367.989990	-41.580002	925.00	0.29	-0.03	0.00	0.00	0.00	0.00	0.00	0.00	0.00	0.00	0.00	0.00	0.00	0.00	0.00	0.00	0.00	0.00	-7.393066	-0.790527	-0.605957	70.629997	0.420000	147.490005	0.00	0.00	0.00
3.44	0.00	0.00	0.00	0.00	0.00	0.00	0.00	0.00	7.75	13.75	15.00	12.25	4.50	24.25	7.00	9.50	-0.485840	0.270020	1.979980	15.820000	439.529999	-49.420002	902.00	0.29	-0.03	0.00	0.00	0.00	0.00	0.00	0.00	0.00	0.00	0.00	0.00	0.00	0.00	0.00	0.00	0.00	0.00	-6.791016	-1.028809	-0.259277	107.940002	60.200001	58.520000	0.00	0.00	0.00
3.45	0.00	0.00	0.00	0.00	0.00	0.00	0.00	0.00	6.75	13.25	14.25	11.00	2.75	23.25	6.50	9.00	-0.590332	0.213379	1.873047	5.250000	524.020020	-59.849998	831.00	0.29	-0.02	1.50	3.25	0.25	0.75	0.00	0.00	0.00	0.00	0.00	0.00	0.00	0.00	0.00	0.00	0.00	0.00	-13.548828	-2.856445	-0.535156	48.790001	171.919998	27.230000	56.00	-0.39	-0.09
3.46	0.00	0.00	0.00	0.00	0.00	0.00	0.00	0.00	5.25	12.50	13.25	10.00	1.50	22.00	6.00	8.75	-0.911133	0.449707	1.949707	-11.410000	612.989990	-74.269997	754.00	0.30	-0.02	10.25	12.50	1.25	2.25	0.00	0.00	0.00	0.00	0.00	0.00	0.00	0.00	0.00	0.00	0.00	0.00	-3.576660	-3.323242	-2.874512	-147.770004	331.380005	-77.840004	260.00	-0.39	-0.05
3.47	0.00	0.00	0.00	0.00	0.00	0.00	0.00	0.00	2.50	10.75	11.75	9.00	1.25	19.00	5.25	7.50	-1.108398	0.555664	2.874023	18.900000	700.419983	-83.510002	631.00	0.30	-0.03	20.50	18.75	3.50	5.50	0.00	0.00	0.00	0.00	0.00	0.00	0.00	0.00	0.00	0.00	0.00	0.00	-0.128418	0.674805	4.033203	-206.500000	455.559998	-143.289993	484.00	-0.38	-0.03
3.48	0.00	0.00	0.00	0.00	0.00	0.00	0.00	0.00	0.75	9.25	9.50	7.50	0.75	15.00	3.75	6.00	-2.405273	0.593750	4.724121	81.970001	750.539978	-77.279999	491.00	0.30	-0.04	25.00	19.50	7.50	8.25	0.00	0.00	0.00	0.00	0.00	0.00	0.00	0.00	0.00	0.00	0.00	0.00	-2.255859	0.971680	5.097168	-89.529999	453.880005	-95.760002	612.00	-0.37	-0.02
3.49	0.00	0.00	0.00	0.00	0.00	0.00	0.00	0.00	0.75	7.75	8.25	6.00	0.50	9.75	2.00	4.50	-3.039062	0.564941	6.109375	114.449997	761.320007	-64.260002	373.00	0.29	-0.05	25.25	19.25	9.00	10.00	0.50	0.00	0.00	0.00	0.00	0.00	0.00	0.25	0.00	0.00	0.00	0.00	-1.020996	0.349121	3.908203	-76.230003	437.640015	-12.110000	657.00	-0.36	-0.03
3.50	0.00	0.00	0.00	0.00	0.00	0.00	0.00	0.00	0.75	7.25	7.50	5.75	0.50	5.00	1.00	4.25	-2.522949	0.278809	6.303711	85.820000	743.539978	-80.010002	305.00	0.27	-0.07	23.00	17.00	10.50	10.50	1.25	0.25	0.00	0.00	0.00	0.00	0.50	0.50	0.00	0.00	0.00	0.00	-0.770996	-0.691406	2.696777	-24.080000	302.959991	3.500000	654.00	-0.34	-0.03
3.51	0.00	0.00	0.00	0.00	0.00	0.00	0.25	0.00	0.00	5.75	6.75	5.25	0.25	2.25	0.00	4.25	-0.696289	1.199219	6.748535	37.029999	681.239990	-103.739998	234.00	0.25	-0.11	20.75	16.00	11.00	11.00	1.75	1.50	0.25	0.00	0.00	0.00	0.25	0.50	0.00	0.00	0.00	0.00	-0.557617	-0.764648	1.740723	24.010000	198.800003	-34.090000	653.00	-0.33	-0.03
3.52	0.00	0.25	0.00	0.00	0.00	0.00	0.25	0.00	0.00	5.50	6.75	5.25	0.25	1.25	0.00	4.25	6.549316	1.371094	6.032227	38.500000	531.299988	-130.479996	226.00	0.24	-0.12	19.50	15.50	11.50	11.75	2.25	2.50	0.25	0.25	0.00	0.00	0.00	0.25	0.50	0.00	0.00	0.00	-0.234863	0.905273	0.818848	-6.790000	30.380001	-15.890000	668.00	-0.33	-0.04
3.53	0.00	0.00	0.00	0.00	0.00	0.00	0.50	0.00	0.00	5.75	6.75	5.00	0.00	0.75	0.00	4.25	1.260742	3.696777	9.477539	78.400002	223.930008	-208.880005	221.00	0.24	-0.11	18.75	15.00	11.75	12.00	2.75	3.75	0.50	0.50	0.00	0.25	0.50	0.50	0.75	0.00	0.00	0.00	-0.227051	0.351562	0.660645	-38.080002	6.720000	6.860000	701.00	-0.31	-0.05
3.54	0.00	0.00	0.00	0.00	0.00	0.00	0.50	0.00	0.00	5.25	6.75	5.00	0.00	0.50	0.00	4.00	3.065918	-0.067871	4.469727	193.479996	-42.770000	-260.470001	212.00	0.24	-0.12	18.25	15.00	12.00	12.50	3.00	4.25	0.50	0.75	0.00	0.50	0.75	0.50	1.00	0.00	0.00	0.00	-0.213867	-0.026367	1.344727	-47.250000	12.460000	6.720000	723.00	-0.30	-0.06
3.55	0.00	0.00	0.00	0.00	0.00	0.00	0.50	0.00	0.00	5.25	6.25	4.75	0.00	0.50	0.00	4.25	2.033203	0.104492	2.714355	189.770004	-127.400002	-331.589996	205.00	0.24	-0.11	18.25	15.00	11.75	12.25	3.00	4.25	0.50	0.50	0.00	0.25	0.75	0.50	1.00	0.00	0.00	0.00	-0.324707	0.180176	1.176270	-15.750000	1.540000	2.800000	711.00	-0.30	-0.05
3.56	0.00	0.00	0.00	0.00	0.00	0.00	0.50	0.00	0.00	4.75	6.25	4.75	0.25	0.50	0.00	4.25	1.631836	0.822266	2.980957	120.120003	-135.100006	-367.360016	202.00	0.24	-0.12	17.00	14.75	11.50	12.25	2.75	4.75	0.50	0.75	0.00	0.25	1.00	0.25	0.75	0.00	0.00	0.00	-0.167480	0.234863	1.012207	3.150000	4.480000	6.930000	697.00	-0.30	-0.06
3.57	0.00	0.00	0.00	0.00	0.00	0.00	0.50	0.00	0.00	4.75	6.25	4.50	0.00	0.00	0.00	4.25	1.929199	1.728027	2.883789	-17.010000	-260.399994	-288.890015	193.00	0.24	-0.12	16.50	14.25	11.00	11.75	2.25	3.75	0.25	0.25	0.00	0.25	0.50	0.25	0.50	0.00	0.00	0.00	-0.184082	0.132812	1.046387	5.460000	10.570000	6.580000	641.00	-0.31	-0.05
3.58	0.00	0.00	0.00	0.00	0.00	0.00	0.50	0.00	0.00	4.75	6.00	4.50	0.00	0.00	0.00	4.25	1.501465	1.749023	2.403809	-40.670002	-329.980011	-236.460007	191.00	0.24	-0.12	16.00	13.75	10.00	11.25	2.00	3.00	0.25	0.25	0.00	0.25	0.50	0.00	0.25	0.00	0.00	0.00	-0.203613	0.113770	1.046387	9.100000	11.620000	5.110000	599.00	-0.32	-0.05
3.59	0.00	0.00	0.00	0.00	0.00	0.00	0.50	0.00	0.00	4.75	6.00	4.50	0.00	0.00	0.00	4.00	1.238770	1.600098	1.838379	-33.040001	-372.540009	-184.240005	189.00	0.23	-0.12	14.50	13.25	9.25	10.50	1.50	2.50	0.25	0.00	0.00	0.00	0.25	0.00	0.25	0.00	0.00	0.00	-0.152832	0.118164	0.982422	15.260000	12.880000	5.670000	543.00	-0.33	-0.05
3.60	0.00	0.00	0.00	0.00	0.00	0.00	0.50	0.00	0.00	4.50	5.75	4.25	0.00	0.00	0.00	4.25	0.965820	1.467285	1.541504	-10.990000	-392.630005	-129.570007	183.00	0.24	-0.12	12.75	12.00	8.25	9.50	1.00	1.50	0.25	0.00	0.00	0.00	0.25	0.00	0.25	0.00	0.00	0.00	-0.138672	0.083984	0.972168	23.240000	10.850000	4.970000	475.00	-0.33	-0.05
3.61	0.00	0.00	0.00	0.00	0.00	0.00	0.50	0.00	0.00	4.00	5.75	4.00	0.00	0.00	0.00	4.00	0.720703	1.405762	1.462402	21.559999	-399.279999	-71.120003	174.00	0.24	-0.13	11.25	10.75	7.50	9.00	0.75	1.25	0.25	0.00	0.00	0.25	0.25	0.00	0.00	0.00	0.00	0.00	-0.100586	0.105957	0.915039	23.520000	6.720000	1.330000	429.00	-0.33	-0.05
3.62	0.00	0.00	0.00	0.00	0.00	0.00	0.50	0.00	0.00	4.25	5.50	4.00	0.25	0.25	0.00	4.25	0.482910	1.276367	1.501465	60.760002	-401.730011	-9.380000	179.00	0.24	-0.12	8.50	9.50	5.75	7.75	0.50	0.75	0.25	0.00	0.00	0.00	0.25	0.00	0.00	0.00	0.00	0.00	-0.051270	0.167480	0.863281	20.230000	5.110000	-0.980000	345.00	-0.33	-0.06
3.63	0.00	0.00	0.00	0.00	0.00	0.00	0.50	0.00	0.00	4.25	5.50	3.75	0.00	0.00	0.00	4.25	0.277832	1.078613	1.595215	99.959999	-404.320007	50.959999	172.00	0.24	-0.12	6.50	7.75	5.00	6.75	0.25	0.50	0.25	0.00	0.00	0.00	0.25	0.00	0.00	0.00	0.00	0.00	-0.016113	0.197266	0.831055	13.230000	8.330000	-0.210000	283.00	-0.33	-0.06
3.64	0.00	0.00	0.00	0.00	0.00	0.00	0.50	0.00	0.00	4.00	5.50	4.00	0.00	0.00	0.00	4.00	0.087891	0.864746	1.813965	129.289993	-407.679993	104.860001	171.00	0.24	-0.13	5.50	6.50	4.00	5.75	0.50	0.00	0.25	0.00	0.00	0.25	0.25	0.25	0.25	0.00	0.00	0.00	-0.040527	0.204590	0.839844	2.170000	13.230000	1.260000	244.00	-0.31	-0.06
3.65	0.00	0.00	0.00	0.00	0.00	0.00	0.50	0.00	0.00	3.75	5.50	3.75	0.00	0.00	0.00	4.25	-0.084473	0.678711	2.018555	143.220001	-414.260010	147.910004	167.00	0.24	-0.13	3.25	5.25	2.00	4.75	0.25	0.75	0.00	0.00	0.00	0.25	0.50	0.25	0.00	0.00	0.00	0.00	-0.060547	0.171387	0.802246	-12.530000	21.840000	2.240000	178.00	-0.30	-0.10
3.66	0.00	0.00	0.00	0.00	0.00	0.00	0.50	0.00	0.00	4.00	5.50	3.75	0.00	0.00	0.00	4.00	-0.290039	0.566895	2.315430	154.559998	-423.220001	177.869995	168.00	0.24	-0.12	1.75	3.25	1.50	2.75	0.25	0.25	0.25	0.25	0.00	0.50	1.00	0.50	0.75	0.00	0.00	0.00	-0.188965	0.156250	1.060059	-25.340000	22.960001	0.910000	135.00	-0.20	-0.11
3.67	0.00	0.00	0.00	0.00	0.00	0.00	0.50	0.00	0.00	4.00	5.50	4.00	0.00	0.00	0.00	4.00	-0.600586	0.460449	2.575195	171.779999	-439.110016	198.100006	171.00	0.24	-0.13	0.75	2.25	0.00	2.25	0.00	0.00	0.25	0.25	0.00	1.00	1.00	0.75	1.25	0.00	0.00	0.00	-0.168945	0.196289	0.858887	-34.509998	23.309999	-1.680000	100.00	-0.10	-0.17
