# time	left pressure 1[N/cm²]	left pressure 2[N/cm²]	left pressure 3[N/cm²]	left pressure 4[N/cm²]	left pressure 5[N/cm²]	left pressure 6[N/cm²]	left pressure 7[N/cm²]	left pressure 8[N/cm²]	left pressure 9[N/cm²]	left pressure 10[N/cm²]	left pressure 11[N/cm²]	left pressure 12[N/cm²]	left pressure 13[N/cm²]	left pressure 14[N/cm²]	left pressure 15[N/cm²]	left pressure 16[N/cm²]	left acceleration X[g]	left acceleration Y[g]	left acceleration Z[g]	left angular X[dps]	left angular Y[dps]	left angular Z[dps]	left total force[N]	left center of pressure X[%]	left center of pressure Y[%]	right pressure 1[N/cm²]	right pressure 2[N/cm²]	right pressure 3[N/cm²]	right pressure 4[N/cm²]	right pressure 5[N/cm²]	right pressure 6[N/cm²]	right pressure 7[N/cm²]	right pressure 8[N/cm²]	right pressure 9[N/cm²]	right pressure 10[N/cm²]	right pressure 11[N/cm²]	right pressure 12[N/cm²]	right pressure 13[N/cm²]	right pressure 14[N/cm²]	right pressure 15[N/cm²]	right pressure 16[N/cm²]	right acceleration X[g]	right acceleration Y[g]	right acceleration Z[g]	right angular X[dps]	right angular Y[dps]	right angular Z[dps]	right total force[N]	right center of pressure X[%]	right center of pressure Y[%]
0.00																										0.50	1.00	1.25	2.00	5.00	4.50	2.25	5.25	1.75	3.25	3.25	3.25	5.25	2.25	0.25	0.75	-0.131836	0.080078	0.974609	-3.010000	-10.640000	5.390000	465.00	0.04	-0.13
0.01																										0.75	1.00	1.75	2.25	5.50	4.50	2.25	5.25	1.75	3.00	3.50	2.75	5.25	1.75	0.50	0.50	-0.131836	0.080078	0.974609	-3.010000	-10.640000	5.390000	473.00	0.03	-0.13
0.02																										1.00	1.50	2.00	3.00	6.00	5.00	2.25	5.25	1.75	2.75	3.25	2.75	5.00	2.25	0.25	0.75	-0.019043	0.129395	0.978516	-3.220000	-11.060000	4.900000	497.00	0.01	-0.13
0.03	0.75	0.25	2.50	1.25	1.50	0.50	1.50	0.50	2.00	5.25	5.75	3.75	0.75	4.25	0.00	3.50	-0.211426	0.056641	0.961914	3.640000	13.440001	-24.639999	346.00	0.14	-0.02	1.25	1.75	2.50	3.75	6.25	5.25	2.25	5.25	1.50	2.75	3.00	2.75	5.00	2.00	0.25	0.50	-0.241699	0.061035	1.022949	-3.780000	-10.780000	4.690000	512.00	-0.01	-0.13
0.04	0.75	0.00	2.00	1.25	1.50	0.50	1.50	0.50	2.25	5.25	5.75	3.75	0.50	4.00	0.00	3.50	-0.213867	0.088867	0.939941	3.990000	14.840000	-31.780001	337.00	0.15	-0.02	1.50	2.25	2.75	4.00	6.75	5.25	2.50	5.25	1.50	2.50	3.00	2.75	4.75	1.75	0.25	0.50	-0.216797	0.159180	0.984375	-3.220000	-10.780000	4.690000	527.00	-0.02	-0.12
0.05	0.25	0.00	1.75	0.75	1.25	0.50	1.25	0.50	2.00	5.25	6.00	3.75	0.75	4.25	0.00	3.50	-0.212891	0.113770	0.965332	7.700000	15.470000	-45.150002	321.00	0.17	-0.03	1.75	2.50	2.75	4.75	7.00	5.75	2.25	5.50	1.25	2.25	2.50	2.25	5.00	1.75	0.25	0.50	-0.058594	0.056152	0.977539	-1.750000	-10.360000	4.690000	534.00	-0.04	-0.13
0.06	0.25	0.00	1.50	0.75	0.75	0.25	1.25	0.50	2.00	5.50	6.00	4.00	0.75	4.25	0.00	3.75	-0.242188	0.162598	0.951172	17.219999	13.160000	-70.559998	317.00	0.19	-0.03	1.75	2.75	3.25	5.00	7.25	6.25	2.25	5.50	1.25	2.00	2.25	2.25	4.50	1.75	0.00	0.50	-0.224121	0.003906	1.008301	-1.540000	-9.310000	4.760000	541.00	-0.05	-0.13
0.07	0.00	0.00	1.25	0.50	0.75	0.25	1.25	0.75	2.00	5.25	6.00	4.00	0.75	4.00	0.00	4.00	-0.236816	0.224609	0.931641	29.049999	9.100000	-104.580002	309.00	0.20	-0.04	2.00	3.00	3.75	5.25	7.50	6.75	2.25	5.50	1.00	2.00	2.00	2.50	4.50	1.50	0.00	0.25	-0.214355	0.032715	1.057129	-1.330000	-8.400000	5.110000	556.00	-0.07	-0.13
0.08	0.00	0.00	1.25	0.50	0.50	0.00	1.00	0.50	1.75	5.50	6.25	4.00	1.00	4.00	0.25	3.75	-0.204102	0.103027	0.954590	38.779999	5.320000	-136.360001	301.00	0.21	-0.05	2.50	3.50	3.75	5.50	7.50	6.75	2.25	5.75	1.00	1.75	2.00	2.00	4.50	1.25	0.25	0.50	-0.155273	0.029785	0.988281	-1.330000	-8.190000	5.460000	566.00	-0.07	-0.13
0.09	0.00	0.00	1.00	0.75	0.50	0.25	1.00	0.50	1.75	5.50	6.00	4.00	1.00	3.75	0.00	3.75	-0.217773	0.106934	0.964355	40.740002	4.900000	-150.639999	297.00	0.20	-0.05	2.50	3.75	4.25	5.75	7.75	7.00	2.25	5.75	1.00	1.50	2.25	2.25	4.00	1.25	0.00	0.50	-0.146484	0.076172	1.016113	-1.540000	-7.910000	6.160000	578.00	-0.08	-0.13
0.10	0.00	0.00	0.75	0.50	0.50	0.25	1.00	0.75	2.25	5.00	6.25	3.75	1.50	3.75	0.00	3.75	-0.243164	0.079590	0.953613	40.599998	6.230000	-155.820007	301.00	0.21	-0.05	2.75	4.50	4.25	6.25	8.00	7.50	2.25	5.75	0.75	1.50	1.75	1.75	4.00	1.25	0.25	0.50	-0.065430	0.088379	0.986816	-2.240000	-7.210000	6.370000	590.00	-0.10	-0.13
0.11	0.00	0.00	0.50	0.50	0.50	0.25	1.00	0.50	2.00	6.00	6.25	4.00	1.00	3.75	0.00	4.25	-0.217773	0.113770	0.963867	42.490002	5.110000	-161.839996	302.00	0.22	-0.05	3.00	4.75	4.50	6.50	8.25	7.75	2.25	5.75	0.75	1.75	1.75	1.75	4.00	1.00	0.00	0.50	-0.099609	0.101562	0.966797	-3.220000	-7.350000	5.600000	603.00	-0.10	-0.13
0.12	0.00	0.00	0.75	0.50	0.50	0.00	1.00	0.50	1.75	5.75	6.25	4.00	1.00	3.75	0.00	4.25	-0.204102	0.078613	0.950684	44.310001	3.780000	-168.210007	296.00	0.21	-0.05	3.25	5.00	4.75	6.75	8.25	8.00	2.25	5.75	0.75	1.50	1.75	1.75	3.75	1.25	0.25	0.50	-0.035156	0.041016	1.000977	-3.920000	-6.790000	4.830000	617.00	-0.11	-0.13
0.13	0.00	0.00	0.75	0.00	0.25	0.00	1.00	0.75	1.75	5.75	6.25	4.00	1.00	3.50	0.00	4.00	-0.183105	0.080566	0.949219	45.009998	1.750000	-171.639999	288.00	0.22	-0.05	3.50	5.25	5.25	7.50	8.50	8.00	2.25	5.75	1.00	1.75	1.75	1.50	3.75	1.25	0.00	0.50	-0.120117	0.066895	0.967773	-4.550000	-6.440000	3.850000	639.00	-0.11	-0.12
0.14	0.00	0.00	0.50	0.00	0.25	0.00	1.00	0.50	1.50	5.50	6.50	4.00	1.00	3.50	0.00	4.25	-0.210938	0.058105	0.956543	44.939999	0.490000	-172.339996	280.00	0.23	-0.06	3.50	5.25	5.50	7.50	8.75	8.00	2.50	5.75	1.00	1.50	1.75	2.00	3.50	1.25	0.25	0.50	-0.127441	0.069336	0.981445	-4.550000	-5.530000	3.220000	651.00	-0.11	-0.12
0.15	0.00	0.00	0.75	0.25	0.50	0.00	1.00	0.50	1.25	5.50	6.50	4.00	1.00	3.50	0.00	4.25	-0.229492	0.057129	0.964355	43.330002	0.140000	-170.029999	285.00	0.22	-0.06	3.75	5.50	5.50	7.50	8.75	8.25	2.25	5.75	0.75	1.50	1.75	1.75	3.50	1.00	0.25	0.50	-0.137695	0.063477	0.987793	-4.340000	-4.340000	2.660000	647.00	-0.12	-0.12
0.16	0.00	0.00	0.50	0.25	0.25	0.00	1.00	0.50	1.25	6.00	6.50	4.00	1.00	3.00	0.00	4.25	-0.195801	0.081543	0.958008	43.330002	-0.070000	-169.960007	280.00	0.22	-0.06	3.75	5.50	5.75	7.50	8.75	8.25	2.50	6.00	1.00	1.50	2.00	1.75	3.25	1.00	0.25	0.50	-0.139648	0.065918	0.985840	-3.990000	-3.360000	2.380000	661.00	-0.11	-0.12
0.17	0.00	0.00	0.50	0.25	0.25	0.00	1.00	0.50	1.25	5.50	6.25	4.00	1.00	2.75	0.00	4.00	-0.210938	0.042480	0.953613	43.680000	-0.070000	-170.449997	269.00	0.22	-0.07	3.75	5.25	5.75	7.75	8.75	8.25	2.50	6.00	1.00	1.50	1.75	1.75	3.50	1.25	0.00	0.75	-0.135742	0.063965	0.985840	-3.360000	-2.940000	2.450000	662.00	-0.11	-0.12
0.18	0.00	0.00	0.25	0.25	0.25	0.25	1.00	0.50	0.75	5.50	6.25	4.00	1.00	2.75	0.00	4.00	-0.188965	0.026855	0.959473	43.750000	-0.210000	-170.240005	262.00	0.22	-0.08	3.75	5.50	5.75	7.75	8.75	8.25	2.50	6.00	1.00	1.75	2.00	1.75	3.50	1.00	0.00	0.50	-0.137207	0.066895	0.988770	-2.590000	-2.450000	2.730000	666.00	-0.11	-0.12
0.19	0.00	0.00	0.25	0.50	0.00	0.00	1.00	0.50	0.75	5.75	6.50	3.75	1.00	2.25	0.00	3.75	-0.188477	0.020996	0.964355	43.820000	-0.280000	-169.050003	257.00	0.22	-0.08	3.75	5.50	5.50	7.75	8.75	8.25	2.50	5.75	1.25	1.75	1.75	1.75	3.50	1.25	0.00	0.50	-0.142090	0.065430	0.990234	-2.100000	-2.310000	2.730000	662.00	-0.11	-0.12
0.20	0.00	0.00	0.50	0.25	0.25	0.25	1.00	0.50	0.75	5.50	6.25	3.75	1.00	2.25	0.00	4.50	-0.205078	0.006348	0.960449	43.470001	-0.770000	-166.809998	261.00	0.21	-0.08	3.50	5.50	5.75	7.75	8.75	8.50	2.50	6.00	1.00	1.75	2.00	1.50	3.50	1.25	0.25	0.50	-0.147461	0.067383	0.982422	-1.960000	-2.380000	2.800000	668.00	-0.11	-0.12
0.21	0.00	0.00	0.25	0.00	0.00	0.25	1.00	0.25	0.75	5.50	6.25	4.00	0.75	2.25	0.00	4.25	-0.176758	0.005859	0.960449	42.490002	-1.610000	-163.240005	248.00	0.23	-0.08	3.75	5.50	5.75	8.00	8.75	8.50	2.50	6.00	1.00	1.75	2.00	1.75	3.50	1.00	0.00	0.50	-0.145020	0.064453	0.986328	-1.680000	-2.730000	2.940000	671.00	-0.12	-0.12
0.22	0.00	0.00	0.25	0.00	0.00	0.00	1.00	0.25	0.75	5.25	6.00	3.75	0.75	1.75	0.00	4.50	-0.199219	0.015625	0.965332	41.580002	-2.240000	-159.460007	235.00	0.23	-0.08	3.75	5.50	5.75	8.00	8.75	8.50	2.50	6.25	1.00	1.50	2.25	1.75	3.50	1.25	0.25	0.50	-0.145996	0.068359	0.992676	-1.540000	-3.290000	2.870000	680.00	-0.11	-0.12
0.23	0.00	0.00	0.25	0.25	0.00	0.25	1.00	0.50	0.75	5.25	6.25	3.75	0.50	1.75	0.00	4.50	-0.191406	0.000000	0.968262	40.740002	-3.010000	-155.889999	244.00	0.22	-0.08	3.75	5.50	5.75	8.00	9.00	8.75	2.50	6.00	1.00	1.75	2.00	1.75	3.75	1.00	0.00	0.50	-0.143555	0.072266	0.990234	-1.260000	-3.920000	2.800000	679.00	-0.11	-0.12
0.24	0.00	0.00	0.50	0.25	0.25	0.00	1.00	0.25	0.25	5.25	6.00	3.50	0.50	1.50	0.00	4.50	-0.217285	-0.000977	0.953125	40.529999	-3.850000	-152.669998	229.00	0.21	-0.08	3.75	5.50	6.00	8.25	9.00	8.75	2.50	6.25	1.00	1.75	2.00	1.75	3.50	1.00	0.25	0.50	-0.144043	0.072266	0.987793	-0.840000	-4.760000	2.870000	689.00	-0.11	-0.12
0.25	0.00	0.00	0.75	0.00	0.25	0.00	1.00	0.25	0.25	5.00	6.25	3.50	0.50	1.50	0.00	4.25	-0.214355	-0.018555	0.971680	40.810001	-3.990000	-150.570007	228.00	0.21	-0.08	4.00	6.25	6.00	8.50	9.00	9.00	2.50	6.25	1.00	1.50	2.00	1.50	3.75	0.50	0.00	0.50	-0.194824	0.070801	1.008789	1.540000	-6.930000	3.290000	694.00	-0.13	-0.12
0.26	0.00	0.00	0.25	0.25	0.00	0.00	1.00	0.25	0.00	5.75	6.25	3.25	0.25	1.00	0.00	4.00	-0.184082	-0.008301	0.971680	41.580002	-3.780000	-149.520004	217.00	0.22	-0.08	4.50	6.25	6.25	8.50	9.25	9.25	2.50	6.25	0.75	1.25	2.00	1.50	3.75	1.00	0.00	0.50	-0.147949	0.052734	0.984863	2.590000	-7.980000	4.410000	706.00	-0.13	-0.12
0.27	0.00	0.00	0.00	0.00	0.00	0.00	1.00	0.25	0.00	5.25	6.00	3.50	0.00	0.75	0.00	4.25	-0.169922	-0.022461	0.983887	43.189999	-4.130000	-150.360001	203.00	0.23	-0.09	4.50	6.75	6.75	9.00	9.00	9.25	2.50	6.50	0.50	1.25	2.00	1.50	3.75	0.75	0.25	0.50	-0.182617	0.064453	0.985352	3.430000	-8.190000	4.830000	720.00	-0.13	-0.13
0.28	0.00	0.00	0.25	0.00	0.00	0.00	1.00	0.25	0.00	5.25	5.75	3.25	0.00	0.50	0.00	4.25	-0.163574	-0.049316	0.993164	45.779999	-5.250000	-152.460007	198.00	0.22	-0.09	4.75	7.00	7.00	9.25	9.25	9.50	2.25	6.75	0.50	1.25	1.75	1.50	3.25	0.50	0.00	0.25	-0.132812	0.078613	0.982422	3.780000	-8.260000	5.040000	722.00	-0.14	-0.13
0.29	0.00	0.00	0.00	0.00	0.00	0.00	1.00	0.00	0.00	5.00	5.75	3.25	0.00	0.50	0.00	4.25	-0.241211	-0.041992	0.977051	46.970001	-4.060000	-153.300003	189.00	0.24	-0.09	5.25	7.50	7.25	9.75	9.50	9.75	2.25	6.75	0.75	1.00	1.50	1.50	3.50	0.75	0.00	0.50	-0.158691	0.082520	0.994141	4.130000	-8.330000	5.600000	750.00	-0.15	-0.13
0.30	0.00	0.00	0.25	0.00	0.00	0.00	1.00	0.00	0.00	5.00	6.00	3.25	0.00	0.25	0.00	4.00	-0.304199	-0.061523	0.937988	45.360001	-3.990000	-148.750000	191.00	0.23	-0.09	5.75	7.75	7.25	9.75	9.50	10.00	2.25	7.00	0.50	0.75	1.25	1.25	3.50	0.50	0.00	0.50	-0.147949	0.074219	0.990723	5.460000	-8.540000	6.090000	750.00	-0.16	-0.13
0.31	0.00	0.00	0.00	0.25	0.00	0.00	0.75	0.00	0.00	4.75	5.75	3.00	0.00	0.00	0.00	3.75	-0.345703	-0.043945	0.947266	40.740002	-4.410000	-139.229996	176.00	0.22	-0.10	5.75	8.25	7.25	10.00	9.50	10.25	2.25	7.00	0.50	1.00	1.25	1.25	2.75	0.50	0.00	0.50	-0.256836	0.107422	0.875977	8.050000	-8.890000	6.160000	757.00	-0.16	-0.13
0.32	0.00	0.00	0.50	0.00	0.00	0.00	1.00	0.00	0.00	5.00	5.50	3.00	0.00	0.00	0.00	4.00	-0.389160	-0.153320	0.951172	33.320000	-5.880000	-128.380005	184.00	0.22	-0.08	6.50	8.75	7.50	10.25	9.50	10.50	2.25	6.75	0.25	0.50	1.00	1.00	3.00	0.25	0.00	0.25	-0.101562	0.067871	1.026855	10.710000	-8.960000	6.090000	758.00	-0.17	-0.13
0.33	0.00	0.00	0.25	0.25	0.00	0.00	1.00	0.00	0.00	4.75	5.75	3.00	0.00	0.00	0.00	4.00	-0.395020	-0.155762	0.950684	27.299999	-9.240000	-120.260002	184.00	0.22	-0.09	7.00	9.00	7.75	10.50	9.50	10.50	2.00	6.75	0.00	0.50	1.00	1.00	2.50	0.25	0.00	0.25	-0.160645	0.065430	0.996094	12.880000	-11.900000	6.020000	760.00	-0.18	-0.13
0.34	0.00	0.00	0.25	0.00	0.00	0.00	1.00	0.00	0.00	4.75	5.50	3.00	0.00	0.00	0.00	4.50	-0.328613	-0.154785	0.945312	24.570000	-12.110000	-116.550003	181.00	0.22	-0.09	7.50	9.50	8.00	10.75	9.50	10.50	2.00	6.50	0.25	0.75	0.75	0.75	2.50	0.00	0.00	0.25	-0.112305	0.044922	0.986816	15.610000	-14.910000	5.250000	770.00	-0.19	-0.12
0.35	0.00	0.00	0.25	0.00	0.00	0.00	1.00	0.00	0.00	4.75	5.50	3.00	0.00	0.00	0.00	4.25	-0.228516	-0.065430	0.960938	25.410000	-12.600000	-114.379997	180.00	0.22	-0.09	8.25	10.00	8.00	11.00	9.25	10.75	2.00	6.50	0.25	0.50	0.75	0.75	2.25	0.00	0.00	0.00	-0.109375	0.082031	1.007324	18.200001	-17.500000	4.760000	779.00	-0.19	-0.12
0.36	0.00	0.00	0.00	0.00	0.25	0.00	1.00	0.00	0.00	4.50	5.25	2.75	0.00	0.00	0.00	4.25	-0.141602	0.081543	0.979980	26.250000	-12.950000	-110.180000	172.00	0.23	-0.09	8.25	10.50	8.25	11.50	9.25	10.75	2.00	6.25	0.00	0.25	0.50	0.75	2.00	0.25	0.00	0.25	-0.112305	0.020996	0.985840	18.690001	-21.490000	4.620000	781.00	-0.20	-0.12
0.37	0.00	0.00	0.25	0.00	0.00	0.00	1.00	0.00	0.00	4.50	5.25	3.00	0.00	0.00	0.00	4.50	-0.126465	0.232910	0.878906	18.270000	-8.190000	-91.489998	176.00	0.22	-0.09	9.25	11.25	8.50	11.75	9.25	10.75	2.00	6.25	0.00	0.25	0.50	0.75	1.75	0.00	0.00	0.00	-0.085938	0.107422	1.033203	19.530001	-24.710001	4.060000	798.00	-0.21	-0.12
0.38	0.00	0.00	0.00	0.25	0.00	0.00	1.00	0.00	0.00	4.75	5.75	2.75	0.00	0.00	0.00	4.00	-0.128906	0.266602	0.924316	13.160000	-0.280000	-81.550003	178.00	0.22	-0.09	10.00	11.75	8.75	11.75	9.25	10.75	1.75	6.00	0.00	0.25	0.50	0.75	1.75	0.00	0.00	0.00	-0.108887	0.104492	0.991211	18.760000	-25.480000	3.920000	805.00	-0.22	-0.11
0.39	0.00	0.00	0.00	0.00	0.00	0.00	1.00	0.00	0.00	4.50	5.25	2.75	0.00	0.00	0.00	4.00	-0.141113	0.292969	0.919434	10.150000	7.070000	-72.940002	168.00	0.23	-0.09	10.50	12.25	8.75	12.00	9.00	10.75	1.75	5.75	0.00	0.25	0.50	0.25	1.75	0.00	0.00	0.00	-0.078125	0.089844	1.005859	17.430000	-27.370001	3.570000	806.00	-0.22	-0.11
0.40	0.00	0.00	0.00	0.00	0.00	0.00	0.75	0.00	0.00	4.75	5.50	2.75	0.00	0.00	0.00	4.00	-0.104004	0.397949	1.003418	11.760000	14.490000	-63.349998	169.00	0.23	-0.10	11.25	12.75	9.00	12.50	9.00	10.75	1.75	5.75	0.00	0.25	0.50	0.75	1.25	0.00	0.00	0.00	-0.114258	0.101074	0.964844	15.680000	-27.440001	3.220000	828.00	-0.22	-0.11
0.41	0.00	0.00	0.00	0.00	0.00	0.00	1.00	0.00	0.00	4.25	5.50	2.75	0.00	0.00	0.00	4.00	-0.052246	0.268066	1.103027	17.290001	20.440001	-52.150002	168.00	0.23	-0.09	11.75	13.00	9.00	12.50	9.00	10.75	1.75	5.50	0.00	0.25	0.25	0.25	1.25	0.00	0.00	0.00	-0.082031	0.096680	0.962891	13.650000	-26.320000	2.870000	823.00	-0.23	-0.11
0.42	0.00	0.00	0.00	0.00	0.00	0.00	0.75	0.00	0.00	4.50	5.50	3.00	0.00	0.00	0.00	4.00	0.024414	0.334961	1.021973	20.719999	25.129999	-40.040001	169.00	0.23	-0.10	12.25	13.50	9.00	12.50	9.00	10.50	1.75	5.25	0.00	0.25	0.50	0.50	1.25	0.00	0.00	0.00	-0.086426	0.115723	0.972656	12.250000	-25.340000	2.450000	832.00	-0.23	-0.10
0.43	0.00	0.00	0.50	0.00	0.00	0.00	1.00	0.00	0.00	4.50	5.75	2.25	0.00	0.00	0.00	4.00	0.123047	0.258301	1.088867	24.010000	27.719999	-26.670000	173.00	0.22	-0.08	12.75	13.75	9.25	12.75	8.75	10.75	1.75	5.25	0.00	0.25	0.25	0.25	0.75	0.00	0.00	0.00	-0.076660	0.131836	0.986328	10.710000	-23.940001	2.450000	835.00	-0.24	-0.10
0.44	0.00	0.00	0.00	0.00	0.00	0.00	1.00	0.00	0.00	4.25	5.50	2.75	0.00	0.00	0.00	4.25	0.228027	0.309570	1.177246	23.309999	26.389999	-10.220000	169.00	0.23	-0.09	13.00	14.25	9.25	12.75	8.75	10.50	1.75	5.00	0.00	0.25	0.25	0.25	0.75	0.00	0.00	0.00	-0.089844	0.113281	0.984375	9.100000	-23.379999	2.380000	836.00	-0.24	-0.10
0.45	0.00	0.00	0.00	0.25	0.00	0.00	0.75	0.00	0.00	4.50	5.75	2.50	0.00	0.00	0.00	4.00	0.274902	0.203613	1.259277	14.350000	21.210001	8.540000	169.00	0.23	-0.10	13.75	14.25	9.50	12.75	8.50	10.50	1.75	4.75	0.00	0.00	0.25	0.25	1.00	0.00	0.00	0.00	-0.086426	0.125977	0.989746	5.460000	-20.230000	1.190000	840.00	-0.24	-0.10
0.46	0.00	0.00	0.00	0.00	0.00	0.00	1.00	0.00	0.00	4.75	5.50	3.00	0.00	0.00	0.00	4.25	0.345215	0.161133	1.282715	-4.620000	14.350000	27.580000	177.00	0.23	-0.09	13.75	14.75	9.50	13.00	8.50	10.25	1.75	4.50	0.00	0.25	0.50	0.25	0.75	0.00	0.00	0.00	-0.073730	0.126465	0.990234	4.690000	-19.950001	1.610000	843.00	-0.25	-0.09
0.47	0.00	0.00	0.25	0.00	0.00	0.00	1.00	0.00	0.00	4.25	5.75	3.00	0.00	0.00	0.00	4.25	0.379395	0.154785	1.260742	-19.670000	5.880000	44.520000	177.00	0.22	-0.09	14.00	15.00	9.50	13.00	8.50	10.25	1.75	4.50	0.00	0.00	0.00	0.00	1.00	0.00	0.00	0.00	-0.079102	0.132812	0.962891	4.550000	-19.809999	1.750000	840.00	-0.25	-0.09
0.48	0.00	0.00	0.00	0.00	0.00	0.00	1.00	0.00	0.00	4.25	5.50	3.00	0.00	0.00	0.00	4.00	0.405762	0.124512	1.195312	-23.309999	-3.080000	56.630001	170.00	0.23	-0.10	14.50	15.25	9.50	13.00	8.50	10.00	1.75	4.00	0.00	0.00	0.00	0.00	0.50	0.00	0.00	0.00	-0.057129	0.162598	1.007812	3.080000	-17.990000	1.470000	833.00	-0.26	-0.09
0.49	0.00	0.00	0.00	0.25	0.00	0.00	0.75	0.25	0.00	4.00	5.50	2.75	0.00	0.00	0.00	4.25	0.410645	0.049316	1.156738	-17.570000	-10.850000	62.930000	169.00	0.22	-0.11	14.75	15.25	9.50	13.00	8.25	10.00	1.75	3.75	0.00	0.00	0.25	0.00	0.75	0.00	0.00	0.00	-0.066895	0.128906	0.964355	1.260000	-16.240000	1.540000	834.00	-0.26	-0.09
0.50	0.00	0.00	0.25	0.00	0.00	0.00	1.00	0.00	0.00	4.25	5.50	2.75	0.00	0.00	0.00	4.00	0.414062	-0.041504	1.125488	-9.520000	-16.730000	62.860001	171.00	0.22	-0.09	14.75	15.25	9.50	13.00	8.25	9.75	1.75	3.50	0.00	0.00	0.00	0.00	0.75	0.00	0.00	0.00	-0.064453	0.121582	0.956055	-0.490000	-14.070000	1.400000	825.00	-0.26	-0.09
0.51	0.00	0.00	0.00	0.00	0.00	0.00	0.75	0.00	0.00	4.25	5.75	3.00	0.00	0.00	0.00	4.00	0.396973	-0.118164	1.113770	-3.010000	-21.210001	56.980000	169.00	0.23	-0.10	15.25	15.50	9.75	13.25	8.25	9.75	1.75	3.25	0.00	0.00	0.00	0.00	0.50	0.00	0.00	0.00	-0.060547	0.137695	0.979492	-1.400000	-12.180000	1.190000	832.00	-0.26	-0.08
0.52	0.00	0.00	0.50	0.00	0.00	0.00	0.75	0.00	0.00	4.00	5.75	2.75	0.00	0.00	0.00	4.25	0.372559	-0.176758	1.120605	2.170000	-24.360001	46.480000	171.00	0.22	-0.10	15.00	15.50	9.75	13.00	8.25	9.50	1.75	3.25	0.00	0.00	0.00	0.00	0.25	0.00	0.00	0.00	-0.076172	0.125000	0.994141	-0.910000	-12.250000	1.260000	821.00	-0.26	-0.08
0.53	0.00	0.00	0.00	0.00	0.00	0.00	0.75	0.00	0.00	4.50	5.50	2.75	0.00	0.00	0.00	4.25	0.363770	-0.230957	1.162109	5.950000	-28.210001	33.250000	168.00	0.24	-0.10	15.75	15.50	9.75	13.00	8.25	9.50	1.75	3.25	0.00	0.00	0.00	0.00	0.50	0.00	0.00	0.00	-0.060547	0.117188	0.947754	-1.330000	-11.760000	1.400000	831.00	-0.26	-0.08
0.54	0.00	0.00	0.00	0.00	0.00	0.00	0.75	0.00	0.00	4.25	5.75	2.50	0.00	0.00	0.00	4.00	0.352051	-0.262207	1.211914	7.700000	-34.299999	19.040001	164.00	0.23	-0.10	15.50	15.50	9.75	13.00	8.00	9.50	1.75	2.75	0.00	0.00	0.00	0.00	0.50	0.00	0.00	0.00	-0.046387	0.131348	0.953613	-2.940000	-9.450000	0.980000	818.00	-0.27	-0.08
0.55	0.00	0.00	0.00	0.00	0.00	0.00	1.00	0.00	0.00	4.25	5.50	2.75	0.00	0.00	0.00	4.25	0.324707	-0.270020	1.239258	6.510000	-43.330002	5.250000	169.00	0.23	-0.09	15.50	15.25	9.75	13.00	8.25	9.75	1.75	2.75	0.00	0.00	0.00	0.00	0.50	0.00	0.00	0.00	-0.064941	0.131836	0.962402	-4.690000	-7.490000	0.910000	822.00	-0.27	-0.08
0.56	0.00	0.00	0.00	0.00	0.00	0.00	0.75	0.00	0.00	4.25	5.50	3.00	0.00	0.00	0.00	4.00	0.308105	-0.263184	1.210938	4.130000	-53.130001	-7.350000	167.00	0.23	-0.10	15.25	15.50	9.75	12.75	8.00	9.50	1.75	3.00	0.00	0.00	0.00	0.00	0.25	0.00	0.00	0.00	-0.045898	0.112305	0.918945	-6.720000	-4.970000	0.770000	815.00	-0.27	-0.08
0.57	0.00	0.00	0.00	0.00	0.00	0.00	1.00	0.00	0.00	4.25	5.50	3.00	0.00	0.00	0.00	4.00	0.266602	-0.223145	1.148438	1.120000	-61.599998	-17.780001	170.00	0.23	-0.10	15.25	15.25	9.75	12.75	8.25	9.50	1.75	2.75	0.00	0.00	0.00	0.00	0.50	0.00	0.00	0.00	-0.041016	0.123535	0.908203	-9.450000	-0.140000	-0.140000	813.00	-0.27	-0.08
0.58	0.00	0.00	0.00	0.00	0.00	0.00	0.75	0.00	0.00	4.25	5.50	2.50	0.00	0.00	0.00	4.25	0.162109	-0.115234	1.038086	-2.660000	-69.930000	-30.030001	163.00	0.24	-0.10	15.00	15.00	10.00	12.75	8.50	9.50	1.75	3.00	0.00	0.00	0.00	0.00	0.50	0.00	0.00	0.00	-0.041992	0.125488	0.903809	-13.160000	6.020000	-0.840000	818.00	-0.26	-0.08
0.59	0.00	0.00	0.00	0.00	0.00	0.00	0.75	0.00	0.00	4.25	5.50	2.75	0.00	0.00	0.00	4.25	0.103027	-0.056152	1.003906	-4.270000	-70.910004	-31.920000	165.00	0.24	-0.10	15.25	14.75	9.75	12.50	8.75	9.50	1.75	2.75	0.00	0.00	0.00	0.00	0.50	0.00	0.00	0.00	-0.046387	0.128418	0.903320	-18.270000	13.370000	-1.470000	812.00	-0.26	-0.07
0.60	0.00	0.00	0.00	0.00	0.00	0.00	0.75	0.00	0.00	4.50	5.50	2.75	0.00	0.00	0.00	4.00	0.053711	-0.005371	0.973145	-5.530000	-70.769997	-31.850000	167.00	0.23	-0.10	14.75	14.50	9.75	12.25	9.00	9.50	1.75	3.00	0.00	0.00	0.00	0.00	0.50	0.00	0.00	0.00	-0.061035	0.126953	0.941406	-24.010000	20.299999	-2.100000	808.00	-0.26	-0.08
0.61	0.00	0.00	0.00	0.00	0.00	0.00	0.75	0.00	0.00	4.50	5.50	2.25	0.00	0.00	0.00	4.00	0.004883	0.036621	0.916016	-5.320000	-69.440002	-30.730000	161.00	0.24	-0.09	14.75	14.25	9.75	12.25	9.25	9.50	1.75	3.00	0.00	0.25	0.00	0.00	0.50	0.00	0.00	0.00	-0.083496	0.105469	0.975586	-27.440001	24.219999	-2.100000	811.00	-0.26	-0.08
0.62	0.00	0.00	0.00	0.00	0.00	0.00	1.00	0.00	0.00	4.00	5.50	3.00	0.00	0.00	0.00	4.00	-0.043945	0.070801	0.879395	-4.060000	-66.919998	-29.260000	168.00	0.23	-0.10	14.25	14.00	9.75	12.25	9.50	9.50	1.75	3.00	0.00	0.00	0.25	0.00	0.50	0.00	0.00	0.00	-0.101562	0.093262	1.026367	-28.000000	24.780001	-2.380000	806.00	-0.26	-0.08
0.63	0.00	0.00	0.00	0.00	0.00	0.00	1.00	0.00	0.00	4.25	5.50	3.00	0.00	0.00	0.00	4.00	-0.080078	0.100586	0.875000	-0.420000	-64.330002	-27.650000	170.00	0.23	-0.10	14.25	13.50	9.75	12.00	10.00	9.25	2.00	3.25	0.00	0.25	0.00	0.00	0.75	0.00	0.00	0.00	-0.096680	0.083496	0.986328	-25.270000	22.469999	-2.100000	811.00	-0.25	-0.07
0.64	0.00	0.00	0.00	0.00	0.00	0.00	0.75	0.00	0.00	4.50	5.50	2.75	0.00	0.00	0.00	4.00	-0.127441	0.120117	0.826660	6.300000	-62.369999	-26.389999	167.00	0.23	-0.10	13.75	13.25	9.75	11.75	10.50	9.50	2.00	3.25	0.00	0.25	0.00	0.00	0.50	0.00	0.00	0.00	-0.076660	0.105469	0.955078	-24.430000	23.660000	-2.170000	807.00	-0.25	-0.07
0.65	0.00	0.00	0.00	0.00	0.00	0.00	0.75	0.00	0.00	4.25	5.25	2.75	0.00	0.00	0.00	4.00	-0.196289	0.118652	0.771973	13.440001	-59.150002	-26.460001	161.00	0.23	-0.10	13.25	13.00	9.75	11.75	10.75	9.50	2.00	3.50	0.00	0.50	0.25	0.00	0.50	0.00	0.00	0.00	-0.096680	0.089355	0.960449	-29.960001	27.440001	-0.770000	812.00	-0.24	-0.07
0.66	0.00	0.00	0.25	0.00	0.00	0.00	0.75	0.00	0.00	4.00	5.25	2.75	0.00	0.00	0.00	4.00	-0.262207	0.111816	0.763672	19.600000	-54.040001	-28.000000	162.00	0.23	-0.10	13.00	12.50	9.75	11.75	11.00	9.75	2.25	3.75	0.00	0.50	0.25	0.25	0.75	0.00	0.00	0.00	-0.098633	0.084961	0.961426	-34.369999	31.360001	-0.420000	822.00	-0.24	-0.08
0.67	0.00	0.00	0.00	0.00	0.00	0.00	1.00	0.00	0.00	4.25	5.75	2.75	0.00	0.00	0.00	4.25	-0.308105	0.097168	0.782227	24.639999	-49.279999	-29.889999	172.00	0.23	-0.09	12.50	12.25	9.50	11.50	11.75	9.50	2.25	4.00	0.00	0.75	0.25	0.25	0.50	0.25	0.00	0.00	-0.108887	0.079590	1.002930	-36.959999	35.209999	-0.140000	821.00	-0.23	-0.08
0.68	0.00	0.00	0.00	0.00	0.00	0.00	0.75	0.00	0.00	4.25	5.50	3.00	0.00	0.00	0.00	4.00	-0.370605	0.053711	0.779785	28.000000	-45.849998	-31.290001	167.00	0.23	-0.10	11.50	11.75	9.50	11.25	12.00	9.75	2.50	4.50	0.00	1.00	0.50	0.00	1.00	0.25	0.00	0.00	-0.139160	0.055176	1.149414	-38.849998	31.500000	-0.140000	827.00	-0.22	-0.08
0.69	0.00	0.00	0.00	0.00	0.00	0.00	0.75	0.00	0.00	4.00	5.50	2.75	0.00	0.00	0.00	4.25	-0.451660	0.016113	0.744629	28.000000	-41.160000	-32.410000	163.00	0.24	-0.10	11.00	11.50	9.25	11.00	12.50	9.75	2.50	5.00	0.50	1.00	1.00	0.25	1.25	0.00	0.00	0.00	-0.140137	0.048340	1.102539	-34.369999	23.309999	0.070000	842.00	-0.21	-0.08
0.70	0.00	0.00	0.00	0.00	0.00	0.25	1.00	0.00	0.00	4.00	5.50	2.75	0.00	0.00	0.00	4.00	-0.543457	0.018066	0.714355	25.830000	-34.230000	-33.040001	168.00	0.22	-0.10	10.50	10.75	9.25	10.75	12.75	9.75	2.75	5.25	0.50	1.00	1.00	0.50	1.75	0.50	0.00	0.25	-0.151855	0.036621	0.998047	-19.460001	8.750000	-0.280000	850.00	-0.19	-0.08
0.71	0.00	0.00	0.00	0.00	0.00	0.00	0.75	0.00	0.00	4.00	5.50	3.00	0.00	0.00	0.00	4.00	-0.625000	0.041016	0.708496	23.309999	-26.180000	-32.970001	164.00	0.23	-0.11	9.25	10.25	9.00	10.50	13.00	9.75	3.00	5.75	0.75	1.25	1.25	0.75	2.00	0.25	0.00	0.50	-0.127441	0.056152	0.981445	-11.690000	4.060000	-0.350000	853.00	-0.18	-0.09
0.72	0.00	0.00	0.00	0.00	0.00	0.00	0.75	0.00	0.00	4.00	5.50	3.00	0.00	0.00	0.00	4.00	-0.700684	0.055176	0.687012	19.600000	-17.570000	-32.270000	164.00	0.23	-0.11	8.50	9.50	8.75	10.25	13.25	9.75	3.25	6.00	1.00	1.75	1.50	0.75	2.25	0.50	0.25	0.25	-0.127441	0.041016	0.980469	-8.260000	3.360000	-0.350000	860.00	-0.17	-0.09
0.73	0.00	0.00	0.00	0.00	0.00	0.00	1.00	0.00	0.00	4.25	5.75	2.75	0.00	0.00	0.00	4.00	-0.743652	0.081543	0.689941	14.980000	-7.980000	-31.850000	170.00	0.23	-0.09	7.75	8.75	8.50	9.75	13.75	9.75	3.50	6.25	1.25	2.00	1.75	1.50	2.75	0.50	0.25	0.50	-0.113770	0.054688	0.981934	-5.670000	4.060000	-0.560000	872.00	-0.15	-0.09
0.74	0.00	0.00	0.00	0.00	0.00	0.00	1.00	0.00	0.00	4.00	5.75	3.00	0.00	0.00	0.00	4.00	-0.771484	0.097168	0.696289	10.220000	1.190000	-32.619999	171.00	0.23	-0.10	6.50	8.00	8.00	9.25	13.75	9.50	3.50	6.75	1.50	2.75	2.50	1.50	3.00	1.00	0.25	0.75	-0.121094	0.064941	0.970215	-4.830000	6.300000	-1.400000	873.00	-0.13	-0.09
0.75	0.00	0.00	0.25	0.00	0.00	0.00	1.00	0.00	0.00	4.25	5.50	3.00	0.00	0.00	0.00	4.25	-0.824707	0.122559	0.717285	8.470000	9.100000	-35.420002	175.00	0.22	-0.09	6.00	7.25	7.75	8.75	13.75	9.50	3.75	7.00	2.00	3.25	2.75	2.25	4.00	1.25	0.25	1.00	-0.133301	0.064453	0.990723	-4.480000	9.100000	-1.820000	895.00	-0.11	-0.09
0.76	0.00	0.00	0.00	0.00	0.00	0.00	0.75	0.00	0.00	4.00	5.50	3.00	0.00	0.00	0.00	4.00	-0.898438	0.153320	0.761230	12.390000	13.230000	-40.389999	164.00	0.23	-0.11	4.75	6.25	6.75	8.00	13.50	9.25	4.00	7.25	2.75	4.25	3.75	2.25	4.50	1.75	0.75	1.25	-0.138184	0.057617	0.995117	-3.150000	13.370000	-1.960000	901.00	-0.07	-0.09
0.77	0.00	0.00	0.00	0.00	0.00	0.00	0.75	0.00	0.00	4.00	5.50	3.00	0.00	0.00	0.00	4.00	-0.996582	0.089844	0.778320	16.940001	15.050000	-48.020000	164.00	0.23	-0.11	3.75	5.25	5.75	7.50	13.00	9.00	4.00	7.50	3.50	5.00	5.50	3.25	5.25	2.00	0.75	1.50	-0.141113	0.050293	0.993164	-1.820000	18.549999	-1.260000	917.00	-0.04	-0.09
0.78	0.00	0.00	0.00	0.00	0.00	0.00	1.00	0.00	0.00	4.00	5.50	3.00	0.00	0.00	0.00	4.25	-1.061035	0.003418	0.798828	17.360001	16.100000	-58.520000	169.00	0.23	-0.10	2.75	4.00	4.25	6.00	12.25	8.50	4.25	7.50	4.50	7.00	7.25	3.75	6.25	3.00	1.00	1.75	-0.131348	0.062988	1.015625	-0.280000	24.290001	-0.210000	931.00	-0.00	-0.09
0.79	0.00	0.00	0.00	0.00	0.00	0.00	1.00	0.00	0.00	3.75	5.50	3.00	0.00	0.00	0.00	4.00	-0.956055	-0.054199	0.757324	4.550000	9.170000	-85.680000	165.00	0.23	-0.10	2.00	3.25	3.50	5.00	10.75	7.75	4.25	7.25	6.00	8.25	8.25	5.00	6.50	3.50	1.25	2.25	-0.125977	0.066406	1.026367	-0.840000	31.570000	1.120000	937.00	0.03	-0.08
0.80	0.00	0.00	0.00	0.00	0.00	0.00	0.75	0.00	0.00	4.00	5.50	3.00	0.00	0.00	0.00	4.25	-0.313965	0.018066	1.475098	-46.130001	30.380001	-93.169998	165.00	0.23	-0.11	1.50	2.00	2.50	3.75	9.50	6.50	4.00	6.75	7.25	9.00	9.00	6.75	7.00	6.00	1.25	2.25	-0.091309	0.077637	1.027832	-4.130000	40.599998	1.400000	932.00	0.08	-0.08
0.81	0.50	0.25	0.75	0.50	0.00	0.00	1.00	0.00	0.00	4.00	5.25	2.75	0.00	0.00	0.00	4.25	0.819824	1.209473	0.607910	-21.980000	41.790001	-80.430000	185.00	0.17	-0.09	1.50	1.50	1.75	2.50	7.75	5.25	3.75	6.00	8.25	10.00	9.75	7.50	7.00	7.25	1.50	2.50	-0.157227	0.019531	1.038086	-9.800000	52.849998	1.050000	912.00	0.11	-0.06
0.82	1.50	1.00	1.00	1.50	0.00	0.00	1.00	0.00	0.00	3.75	5.50	3.00	0.00	0.00	0.00	4.00	0.104492	0.933105	0.712891	3.850000	50.959999	-43.610001	218.00	0.09	-0.09	0.75	1.00	1.50	1.50	6.25	3.50	3.25	5.00	9.00	10.50	10.50	8.00	6.50	8.75	1.75	2.50	-0.175781	0.044922	1.092285	-13.020000	68.320000	-0.630000	866.00	0.14	-0.05
0.83	2.75	3.25	1.50	2.25	0.25	0.00	1.00	0.00	0.00	4.00	5.25	3.00	0.00	0.00	0.00	4.00	-0.146484	0.535645	1.274902	15.260000	81.269997	-3.710000	268.00	0.01	-0.08	0.50	1.00	1.00	1.00	5.00	2.50	2.75	3.50	9.25	11.00	10.75	8.00	5.75	10.75	2.00	2.50	-0.162598	0.123047	1.305176	-13.300000	107.099998	-11.200000	822.00	0.17	-0.03
0.84	4.00	5.25	2.50	3.25	0.25	0.25	1.00	0.00	0.00	4.00	5.75	3.00	0.00	0.00	0.00	4.00	-0.241211	-0.234863	1.552246	7.140000	84.139999	7.490000	329.00	-0.05	-0.08	0.50	1.00	1.00	1.50	4.00	1.50	2.25	2.25	9.50	11.00	10.50	7.50	5.00	13.00	2.00	2.75	-0.295898	0.242188	1.498535	-28.070000	233.660004	-35.139999	788.00	0.19	-0.02
0.85	6.00	7.50	3.25	4.50	0.25	0.00	1.00	0.00	0.00	3.75	5.75	2.75	0.00	0.00	0.00	4.25	-0.051270	-0.128418	1.008789	2.240000	73.290001	-7.980000	386.00	-0.10	-0.08	0.25	1.00	1.00	1.25	3.25	1.00	1.75	1.50	9.25	10.75	10.25	6.75	3.25	15.75	2.25	2.50	-0.342285	0.320312	1.690918	-53.549999	283.290009	-47.459999	744.00	0.21	0.01
0.86	8.00	9.50	4.50	5.75	0.50	1.00	1.00	0.00	0.00	4.00	5.75	3.25	0.00	0.00	0.00	4.00	-0.091309	0.268555	0.800781	9.730000	82.320000	-13.580000	473.00	-0.14	-0.07	0.25	0.50	0.75	0.50	2.25	0.75	1.50	1.00	9.00	10.25	9.25	4.75	2.00	17.50	2.50	2.25	-0.536133	0.389648	1.686035	-86.379997	333.200012	-66.709999	668.00	0.24	0.04
0.87	10.25	11.75	5.75	7.75	1.00	2.00	1.00	0.00	0.00	4.25	5.50	3.25	0.00	0.00	0.00	4.25	-0.297363	0.216309	1.533691	3.780000	98.000000	-8.680000	571.00	-0.16	-0.07	0.25	0.25	0.75	0.75	1.75	0.50	1.25	0.75	8.75	9.50	8.00	3.00	1.25	19.25	2.25	1.50	-0.604492	0.491699	1.848145	-121.730003	372.049988	-89.110001	612.00	0.25	0.06
0.88	12.25	14.75	7.50	9.25	1.25	2.75	1.00	0.25	0.00	4.25	5.75	3.25	0.00	0.00	0.00	4.25	-0.278809	0.106934	1.441895	-5.530000	80.639999	-7.000000	672.00	-0.19	-0.08	0.00	0.00	0.50	0.00	1.25	0.25	1.25	0.50	7.75	8.50	6.50	1.75	0.50	20.00	2.00	1.00	-0.656738	0.395508	2.240234	-140.910004	406.350006	-110.669998	526.00	0.28	0.09
0.89	14.25	16.25	8.25	10.50	1.75	4.25	1.00	0.50	0.00	4.00	5.75	3.25	0.00	0.00	0.00	4.25	-0.231445	0.062988	1.174805	-10.220000	61.740002	-8.190000	752.00	-0.20	-0.08	0.00	0.25	0.75	0.25	1.00	0.50	1.25	0.00	7.00	7.75	4.00	1.00	0.00	19.25	1.25	0.25	-0.666504	0.414062	2.334961	-159.320007	448.000000	-125.510002	452.00	0.27	0.12
0.90	15.75	17.75	9.00	11.75	2.00	6.00	1.00	1.00	0.00	4.00	6.00	3.50	0.00	0.00	0.00	4.25	-0.238770	0.147461	1.249023	-10.570000	49.139999	-7.000000	838.00	-0.20	-0.08	0.00	0.00	0.25	0.25	0.75	0.50	1.25	0.00	5.50	6.50	2.75	0.50	0.00	17.00	0.75	0.00	-0.741211	0.394531	2.653809	-171.710007	479.920013	-137.199997	364.00	0.28	0.13
0.91	17.50	18.75	9.75	12.75	2.50	7.50	1.00	1.25	0.00	4.25	5.75	3.50	0.00	0.00	0.00	4.25	-0.199219	0.126465	1.110352	-8.750000	38.220001	-4.130000	910.00	-0.21	-0.09	0.00	0.00	0.00	0.00	0.75	0.50	1.50	0.00	4.75	4.75	1.75	0.00	0.00	13.25	0.00	0.00	-0.843750	0.557617	2.812500	-191.869995	497.070007	-152.110001	279.00	0.28	0.15
0.92	18.00	20.25	10.25	13.75	2.75	8.00	1.25	1.50	0.00	4.25	6.00	3.50	0.00	0.00	0.00	4.25	-0.174316	0.127930	1.045410	-6.020000	32.060001	-3.290000	964.00	-0.21	-0.09	0.00	0.00	0.25	0.00	0.50	0.50	1.50	0.00	2.50	3.50	1.00	0.00	0.00	8.50	0.00	0.00	-0.708984	0.841797	3.134766	-202.229996	502.390015	-172.759995	188.00	0.26	0.15
0.93	18.50	20.50	10.50	14.00	2.75	8.75	1.25	1.75	0.00	4.25	6.25	3.25	0.25	0.00	0.00	4.25	-0.180176	0.125000	1.038086	-5.250000	24.570000	-2.100000	991.00	-0.21	-0.09	0.25	0.00	0.00	0.00	0.25	0.50	1.75	0.00	1.75	2.25	0.50	0.00	0.00	4.50	0.00	0.00	-0.459473	0.704102	3.338379	-234.710007	481.600006	-201.669998	127.00	0.22	0.15
0.94	19.00	21.25	11.00	14.75	3.00	9.75	1.25	2.50	0.00	4.25	6.00	3.50	0.00	0.00	0.00	4.25	-0.164062	0.093262	1.012695	-1.190000	20.020000	-0.420000	1040.00	-0.21	-0.09	0.00	0.25	0.25	0.25	0.50	0.50	2.00	0.00	1.25	1.50	0.00	0.25	0.00	0.75	0.00	0.00	0.156250	0.674316	3.462402	-311.360016	425.809998	-209.509995	90.00	0.11	0.13
0.95	18.50	21.00	11.00	15.25	3.00	10.75	1.25	3.75	0.00	4.25	6.25	3.75	0.25	0.00	0.00	4.25	-0.148438	0.113281	0.973633	3.570000	17.219999	0.280000	1075.00	-0.20	-0.10	0.25	0.25	0.25	0.25	0.25	0.50	2.00	0.00	0.75	1.25	0.25	0.00	0.00	0.50	0.00	0.00	2.539062	6.805664	4.708984	-372.679993	303.309998	-81.550003	79.00	0.07	0.12
0.96	18.75	21.00	11.00	15.50	3.25	11.75	1.25	5.00	0.00	4.25	6.50	3.75	0.50	0.00	0.00	4.25	-0.132324	0.115723	0.954102	4.970000	17.080000	0.490000	1118.00	-0.20	-0.11	0.00	0.25	0.00	0.00	0.25	0.50	2.00	0.00	0.75	1.25	0.00	0.00	0.00	0.50	0.00	0.00	2.186523	5.041016	5.057129	-140.910004	70.980003	137.619995	68.00	0.11	0.15
0.97	17.75	20.00	10.75	15.25	3.25	12.75	1.25	5.75	0.00	4.50	6.25	3.75	0.75	0.00	0.00	4.50	-0.127930	0.126465	0.940430	5.250000	18.760000	0.420000	1119.00	-0.19	-0.12	0.00	0.50	0.25	0.00	0.25	0.50	2.00	0.00	0.25	1.00	0.00	0.00	0.00	0.50	0.00	0.00	2.140137	2.184570	1.762695	-27.440001	-84.279999	283.360016	64.00	0.06	0.12
0.98	16.75	19.50	10.50	15.00	3.25	13.50	1.25	6.25	0.00	4.50	6.50	4.00	1.00	0.00	0.00	4.50	-0.163086	0.124512	1.021973	2.520000	19.879999	-0.140000	1122.00	-0.18	-0.12	0.00	0.50	0.00	0.00	0.25	0.50	2.00	0.00	0.25	0.75	0.00	0.00	0.00	0.25	0.00	0.00	1.679199	1.378418	1.182129	-25.200001	-115.430000	340.690002	56.00	0.05	0.13
0.99	15.50	18.25	9.75	14.50	3.25	14.00	1.25	7.00	0.00	4.50	6.50	4.00	1.50	0.00	0.00	4.50	-0.135742	0.129883	0.944336	-0.770000	20.370001	-0.770000	1104.00	-0.17	-0.13	0.00	0.25	0.25	0.25	0.25	0.25	2.00	0.00	0.75	0.50	0.00	0.00	0.00	0.50	0.00	0.00	1.738281	0.595703	1.486328	-24.710001	-123.199997	337.959991	63.00	0.07	0.16
1.00	13.25	15.75	9.25	13.50	3.00	14.00	1.25	7.50	0.00	4.50	6.75	4.00	1.75	0.00	0.00	4.50	-0.175781	0.126953	1.007812	-2.800000	25.969999	-2.100000	1051.00	-0.16	-0.14	0.25	0.00	0.25	0.00	0.25	0.00	2.00	0.00	0.75	0.25	0.00	0.00	0.00	0.50	0.00	0.00	1.771973	-0.004395	1.811035	23.520000	-159.669998	284.410004	55.00	0.09	0.21
1.01	11.75	14.00	8.50	12.25	2.50	14.25	1.25	8.00	0.00	4.75	6.75	4.50	2.25	0.00	0.00	4.50	-0.175781	0.125977	1.012695	2.520000	22.260000	-2.660000	1015.00	-0.14	-0.15	0.00	0.50	0.00	0.25	0.25	0.25	2.00	0.00	0.25	0.25	0.00	0.00	0.00	0.75	0.00	0.00	1.739258	-0.642090	1.816895	69.370003	-212.169998	198.240005	55.00	0.06	0.14
1.02	9.25	11.50	7.75	11.25	2.50	14.00	1.25	8.25	0.00	5.00	6.50	4.25	2.50	0.00	0.00	4.75	-0.173828	0.134277	0.972168	6.510000	19.389999	-3.150000	948.00	-0.12	-0.16	0.25	0.00	0.00	0.00	0.25	0.50	2.00	0.00	0.00	0.50	0.00	0.00	0.00	0.25	0.00	0.00	1.625000	-0.785645	1.758301	80.570000	-261.869995	102.830002	48.00	0.00	0.00
1.03	7.75	9.00	6.75	9.50	2.25	14.00	1.25	8.75	0.00	4.75	7.25	4.50	2.75	0.00	0.00	4.75	-0.170898	0.139648	0.971191	8.120000	18.690001	-2.940000	894.00	-0.10	-0.17	0.00	0.25	0.00	0.00	0.25	0.25	1.75	0.00	0.50	0.25	0.00	0.00	0.00	0.25	0.00	0.00	1.409180	-0.556641	1.765137	70.699997	-305.130005	20.230000	46.00	0.00	0.00
1.04	6.25	7.25	5.50	8.50	1.75	13.25	1.00	8.75	0.00	4.50	7.00	4.50	2.50	0.00	0.00	4.75	-0.181641	0.120605	0.958008	9.450000	17.920000	-3.150000	813.00	-0.09	-0.18	0.00	0.00	0.00	0.00	0.25	0.00	2.00	0.00	0.25	0.00	0.00	0.00	0.00	0.00	0.00	0.00	1.116211	-0.259277	1.755859	66.570000	-343.000000	-38.709999	36.00	0.00	0.00
1.05	5.00	5.75	5.00	7.50	1.50	12.75	1.00	9.00	0.00	4.50	7.00	5.00	3.00	0.00	0.00	4.75	-0.176270	0.121582	0.951660	7.210000	18.969999	-3.570000	775.00	-0.07	-0.19	0.50	0.50	0.00	0.00	0.00	0.25	2.00	0.00	0.25	0.25	0.00	0.00	0.00	0.25	0.00	0.00	0.539062	0.226074	1.639648	78.330002	-391.860016	-81.340004	51.00	0.01	0.15
1.06	3.75	4.50	4.00	6.25	1.75	12.50	1.00	8.75	0.00	4.75	7.25	5.00	3.50	0.00	0.00	4.75	-0.154297	0.124023	0.936523	2.100000	21.139999	-3.850000	731.00	-0.05	-0.19	0.25	0.50	0.00	0.00	0.00	0.25	2.00	0.00	0.25	0.00	0.00	0.00	0.00	0.00	0.00	0.00	0.248047	0.405273	1.520020	88.760002	-400.890015	-71.260002	43.00	0.00	0.00
1.07	2.25	3.00	3.25	5.50	1.25	11.75	1.25	9.00	0.00	4.75	7.25	5.25	3.50	0.00	0.00	4.75	-0.164551	0.131836	0.945312	-2.940000	23.240000	-4.200000	682.00	-0.02	-0.20	0.00	0.25	0.00	0.00	0.25	0.25	2.00	0.00	0.00	0.00	0.00	0.00	0.00	0.00	0.00	0.00	-0.018066	0.500488	1.431152	104.160004	-399.980011	-46.130001	38.00	0.00	0.00
1.08	1.75	2.25	2.25	4.50	1.00	11.00	1.00	9.00	0.00	4.75	7.50	5.50	4.00	0.00	0.00	4.50	-0.175293	0.136719	0.932617	-6.440000	24.500000	-4.620000	641.00	-0.00	-0.22	0.00	0.00	0.00	0.00	0.25	0.25	2.00	0.00	0.00	0.00	0.00	0.00	0.00	0.00	0.00	0.00	-0.310059	0.499023	1.366699	121.309998	-389.619995	-12.180000	36.00	0.00	0.00
1.09	1.25	1.00	1.75	3.50	0.75	10.50	1.25	9.00	0.00	4.75	7.50	5.75	4.25	0.00	0.00	4.50	-0.183105	0.129883	0.929199	-10.780000	26.180000	-5.670000	609.00	0.02	-0.22	0.00	0.00	0.00	0.00	0.00	0.00	2.00	0.00	0.00	0.00	0.00	0.00	0.00	0.00	0.00	0.00	-0.557617	0.366699	1.300293	130.550003	-367.570007	20.510000	30.00	0.00	0.00
1.10	0.75	0.75	1.25	2.75	0.50	9.75	1.00	9.00	0.00	5.00	7.75	6.00	5.00	0.00	0.00	4.75	-0.184570	0.134277	0.965332	-14.840000	26.180000	-7.140000	588.00	0.04	-0.23	0.00	0.00	0.00	0.00	0.25	0.00	1.75	0.00	0.00	0.25	0.00	0.00	0.00	0.00	0.00	0.00	-0.709961	0.273438	1.358887	132.580002	-335.089996	42.560001	32.00	0.00	0.00
1.11	0.25	0.50	1.00	2.25	0.50	9.25	1.00	8.75	0.00	5.50	8.00	6.50	5.50	0.00	0.00	5.00	-0.168945	0.132324	0.925781	-18.480000	25.969999	-8.540000	582.00	0.06	-0.24	0.00	0.00	0.00	0.00	0.25	0.00	1.75	0.00	0.00	0.00	0.00	0.00	0.00	0.00	0.00	0.00	-0.726074	0.249512	1.831055	136.430008	-301.980011	50.330002	29.00	0.00	0.00
1.12	0.25	0.00	1.00	1.75	0.50	8.50	1.25	8.50	0.25	6.25	8.50	7.00	5.75	0.00	0.00	5.00	-0.155762	0.133301	0.938477	-25.059999	26.670000	-10.010000	588.00	0.08	-0.23	0.00	0.00	0.00	0.00	0.25	0.00	1.75	0.00	0.00	0.25	0.00	0.00	0.00	0.50	0.00	0.00	-0.695312	0.110352	2.388672	136.710007	-290.010010	50.259998	36.00	0.00	0.00
1.13	0.25	0.00	0.50	1.75	0.50	7.75	1.00	8.50	0.00	6.75	9.00	7.75	6.25	1.00	0.25	5.25	-0.172852	0.109863	0.934570	-27.930000	27.370001	-12.460000	602.00	0.10	-0.23	0.00	0.00	0.00	0.00	0.25	0.25	1.75	0.00	0.00	0.00	0.00	0.00	0.00	0.00	0.00	0.00	-0.769531	0.124023	2.519043	132.229996	-298.339996	51.099998	32.00	0.00	0.00
1.14	0.00	0.00	0.50	1.25	0.25	7.50	1.25	8.00	1.00	7.25	9.50	8.25	6.50	1.00	0.25	5.50	-0.243652	0.065430	1.012695	-25.549999	29.750000	-14.210000	617.00	0.11	-0.21	0.00	0.00	0.00	0.00	0.25	0.00	2.00	0.00	0.00	0.00	0.00	0.00	0.00	0.00	0.00	0.00	-0.882324	0.119629	2.383301	131.880005	-306.600006	54.810001	33.00	0.00	0.00
1.15	0.00	0.00	0.50	1.25	0.25	7.00	1.25	8.00	1.00	7.75	10.50	9.00	6.75	2.25	0.50	5.50	-0.214844	0.105469	0.959473	-17.360001	32.200001	-15.540000	651.00	0.12	-0.20	0.00	0.00	0.00	0.00	0.25	0.25	2.00	0.00	0.00	0.50	0.00	0.00	0.00	0.00	0.00	0.00	-0.938477	0.073730	2.421875	141.259995	-304.779999	58.240002	41.00	0.00	0.00
1.16	0.00	0.00	0.25	0.75	0.50	6.50	1.25	7.75	2.00	8.00	11.25	9.75	7.25	2.75	0.75	5.75	-0.211426	0.111328	0.978516	-9.590000	34.439999	-15.400000	680.00	0.14	-0.19	0.00	0.00	0.00	0.00	0.00	0.00	1.75	0.00	0.00	0.00	0.00	0.00	0.00	0.00	0.00	0.00	-0.956055	-0.030762	2.682617	151.479996	-304.220001	59.779999	27.00	0.00	0.00
1.17	0.00	0.00	0.50	1.00	0.50	6.25	1.25	7.50	2.50	8.50	12.25	10.50	7.75	4.25	0.75	6.00	-0.254883	0.062500	0.959961	-1.470000	37.029999	-14.420000	727.00	0.15	-0.18	0.00	0.00	0.00	0.00	0.00	0.00	1.75	0.00	0.00	0.00	0.00	0.00	0.00	0.00	0.00	0.00	-1.053223	-0.000488	2.872070	155.960007	-312.339996	60.689999	27.00	0.00	0.00
1.18	0.00	0.00	0.25	1.00	0.25	6.00	1.25	7.75	2.50	9.00	13.25	11.75	8.50	5.00	1.00	6.25	-0.262695	0.045898	0.947266	9.240000	39.130001	-11.900000	769.00	0.16	-0.18	0.00	0.00	0.00	0.00	0.00	0.00	2.00	0.00	0.00	0.00	0.00	0.00	0.00	0.00	0.00	0.00	-1.258301	0.083984	2.930664	159.880005	-323.610016	65.940002	30.00	0.00	0.00
1.19	0.00	0.00	0.00	1.00	0.25	6.00	1.25	8.00	4.00	9.50	14.50	13.00	9.50	6.25	1.25	6.75	-0.268555	0.055664	0.940430	19.809999	40.670002	-6.790000	846.00	0.17	-0.17	0.00	0.00	0.00	0.00	0.00	0.25	1.75	0.00	0.00	0.00	0.00	0.00	0.00	0.00	0.00	0.00	-1.601074	0.012207	2.950195	167.300003	-335.160004	80.360001	29.00	0.00	0.00
1.20	0.00	0.00	0.25	0.75	0.25	6.00	1.25	8.00	4.25	10.00	15.50	14.25	10.25	7.75	1.50	7.00	-0.259277	0.055176	0.949219	26.950001	44.450001	0.070000	901.00	0.17	-0.16	0.00	0.00	0.00	0.00	0.00	0.00	1.75	0.00	0.00	0.00	0.00	0.00	0.00	0.00	0.00	0.00	-2.093750	-0.105469	2.841309	161.350006	-344.959991	104.930000	27.00	0.00	0.00
1.21	0.00	0.00	0.00	0.75	0.00	6.00	1.25	8.25	5.00	10.50	16.75	15.50	11.25	9.00	2.00	7.25	-0.220703	0.142578	0.966309	30.520000	55.299999	6.020000	967.00	0.18	-0.16	0.00	0.00	0.00	0.00	0.25	0.25	1.75	0.00	0.00	0.00	0.00	0.00	0.00	0.00	0.00	0.00	-2.722656	0.067383	2.411133	117.389999	-347.130005	135.729996	32.00	0.00	0.00
1.22	0.00	0.00	0.00	0.50	0.25	6.00	1.25	8.25	7.00	11.25	18.00	17.00	12.25	11.00	2.50	7.75	-0.256836	0.176758	0.988770	26.250000	63.070000	1.190000	1063.00	0.19	-0.14	0.00	0.00	0.00	0.00	0.00	0.25	1.75	0.00	0.25	0.00	0.00	0.00	0.00	0.00	0.00	0.00	-3.416504	0.370117	1.564453	74.970001	-335.720001	173.529999	33.00	0.00	0.00
1.23	0.00	0.00	0.00	0.50	0.25	5.75	1.25	8.00	8.00	12.00	19.00	18.25	12.75	12.75	3.00	8.50	-0.261719	0.164551	0.989258	24.850000	70.910004	-5.880000	1130.00	0.20	-0.14	0.00	0.00	0.00	0.00	0.00	0.00	2.00	0.00	0.00	0.00	0.00	0.00	0.00	0.00	0.00	0.00	-4.187012	0.294434	0.529297	74.410004	-303.029999	211.610001	30.00	0.00	0.00
1.24	0.00	0.00	0.00	0.50	0.00	5.75	1.00	7.75	8.50	12.75	20.25	19.25	13.50	14.75	4.25	9.25	-0.275879	0.207520	0.999512	26.110001	79.590004	-13.300000	1198.00	0.21	-0.13	0.00	0.00	0.00	0.00	0.25	0.00	1.75	0.00	0.00	0.00	0.00	0.00	0.00	0.00	0.00	0.00	-4.991211	-0.192871	-0.354980	97.720001	-242.690002	237.020004	29.00	0.00	0.00
1.25	0.00	0.00	0.00	0.75	0.25	5.50	1.00	7.50	9.25	13.50	21.00	20.25	13.75	16.50	5.25	9.75	-0.271484	0.143066	1.060059	28.420000	92.050003	-19.460001	1264.00	0.21	-0.12	0.00	0.00	0.00	0.00	0.00	0.25	1.75	0.00	0.00	0.00	0.00	0.00	0.00	0.00	0.00	0.00	-5.713379	-1.810547	-1.273438	92.610001	-68.739998	222.110001	29.00	0.00	0.00
1.26	0.00	0.00	0.00	0.50	0.00	5.25	0.75	7.00	10.00	14.00	22.00	21.00	13.75	18.00	6.00	10.75	-0.301758	0.112793	1.088867	29.469999	111.790001	-19.180000	1304.00	0.22	-0.12	0.00	0.00	0.00	0.00	0.00	0.00	1.75	0.00	0.00	0.00	0.00	0.00	0.00	0.00	0.00	0.00	-5.236328	-2.160645	-0.972656	32.970001	37.310001	178.500000	27.00	0.00	0.00
1.27	0.00	0.00	0.00	1.00	0.25	5.00	0.75	6.50	10.25	14.50	22.50	21.50	13.75	19.75	6.50	11.50	-0.371094	0.173340	1.091797	37.170002	132.860001	-17.290001	1345.00	0.22	-0.11	0.00	0.00	0.00	0.00	0.00	0.00	1.75	0.00	0.00	0.25	0.00	0.00	0.00	0.00	0.00	0.00	-4.559570	-1.785156	0.006348	-52.360001	126.139999	135.029999	29.00	0.00	0.00
1.28	0.00	0.00	0.00	0.25	0.00	4.75	0.50	6.00	10.50	15.00	23.00	22.00	13.25	21.25	7.00	12.50	-0.369141	0.121094	1.137695	40.529999	160.300003	-16.940001	1358.00	0.23	-0.11	0.00	0.00	0.00	0.00	0.00	0.00	1.75	0.00	0.00	0.25	0.00	0.00	0.00	0.00	0.00	0.00	-3.927734	-1.174805	0.912109	-98.980003	170.520004	104.090004	29.00	0.00	0.00
1.29	0.00	0.00	0.00	0.25	0.00	4.00	0.50	5.50	10.75	15.25	23.25	22.00	13.00	22.50	7.50	13.00	-0.397949	0.141602	1.164551	35.279999	188.580002	-13.440001	1367.00	0.24	-0.10	0.00	0.00	0.00	0.00	0.25	0.00	1.75	0.00	0.00	0.00	0.00	0.00	0.00	0.00	0.00	0.00	-3.257324	-0.838379	1.257324	-87.500000	181.720001	76.090004	29.00	0.00	0.00
1.30	0.00	0.00	0.00	0.50	0.00	3.50	0.25	5.00	11.00	15.00	23.50	22.00	12.25	23.75	7.75	13.00	-0.456055	0.229492	1.146484	33.810001	225.750000	-13.370000	1363.00	0.24	-0.10	1.00	2.00	0.75	0.25	0.50	0.00	1.75	0.00	0.00	0.00	0.00	0.00	0.00	0.00	0.00	0.00	-0.193359	-0.048340	5.430664	-45.570000	301.769989	22.260000	72.00	-0.19	0.07
1.31	0.00	0.00	0.00	0.00	0.00	2.50	0.25	3.75	10.50	15.00	23.00	21.50	11.25	24.50	8.25	14.00	-0.477539	0.254883	1.284180	31.990000	266.769989	-20.020000	1319.00	0.25	-0.09	3.50	5.25	1.25	1.50	0.50	0.00	1.75	0.00	0.00	0.00	0.00	0.00	0.00	0.00	0.00	0.00	1.236328	-1.084473	0.403320	-121.379997	162.960007	-10.850000	147.00	-0.28	0.00
1.32	0.00	0.00	0.00	0.00	0.00	1.75	0.25	3.00	10.50	15.00	22.50	20.75	10.00	25.50	8.50	14.00	-0.582031	0.284180	1.122559	24.990000	305.269989	-30.730000	1286.00	0.26	-0.08	9.00	9.75	2.25	3.75	0.50	0.00	1.75	0.00	0.00	0.00	0.00	0.00	0.00	0.00	0.00	0.00	-0.952148	0.292480	-0.047363	-236.320007	260.260010	-68.250000	281.00	-0.33	-0.02
1.33	0.00	0.00	0.00	0.00	0.00	0.75	0.25	1.50	10.25	14.75	22.00	20.00	8.75	26.25	8.50	13.75	-0.592773	0.319336	1.311035	9.870000	343.910004	-42.910000	1228.00	0.27	-0.06	13.75	13.50	4.25	5.50	0.50	0.00	1.75	0.00	0.00	0.00	0.00	0.00	0.00	0.00	0.00	0.00	-0.790527	0.941895	3.389160	-142.869995	362.670013	-19.180000	406.00	-0.34	-0.02
1.34	0.00	0.00	0.00	0.00	0.00	0.25	0.00	1.25	9.75	14.50	21.00	18.25	7.25	26.75	8.25	13.00	-0.729980	0.249512	1.347656	-6.230000	390.320007	-52.779999	1161.00	0.28	-0.05	17.75	16.25	6.00	8.00	1.00	0.25	1.75	0.00	0.00	0.00	0.00	0.00	0.00	0.00	0.00	0.00	-0.917969	-1.450195	3.589844	-50.680000	297.989990	15.190001	528.00	-0.34	-0.02
1.35	0.00	0.00	0.00	0.00	0.00	0.25	0.00	0.75	9.50	14.00	19.75	16.50	5.50	26.25	8.00	11.75	-0.842773	0.305664	1.467773	-28.840000	445.549988	-62.930000	1085.00	0.28	-0.04	19.75	17.50	7.50	8.75	1.25	0.75	1.75	0.00	0.00	0.00	0.00	0.00	0.00	0.00	0.00	0.00	-0.367676	-0.655762	2.191406	-25.059999	252.559998	-34.090000	594.00	-0.34	-0.02
1.36	0.00	0.00	0.00	0.00	0.00	0.00	0.25	0.25	9.00	13.25	18.25	14.00	4.25	25.50	7.25	10.25	-0.786621	0.585938	1.812988	-57.680000	499.660004	-82.320000	988.00	0.29	-0.03	20.00	17.75	8.00	9.50	1.50	1.00	1.75	0.00	0.00	0.00	0.00	0.00	0.00	0.00	0.00	0.00	-0.369629	0.568848	2.284668	12.950000	226.100006	-56.490002	618.00	-0.33	-0.03
1.37	0.00	0.00	0.00	0.00	0.00	0.00	0.25	0.00	8.00	12.25	15.50	11.50	2.50	24.00	6.25	8.50	-1.183105	0.533691	2.065430	-70.349998	547.260010	-99.330002	858.00	0.29	-0.01	20.00	18.25	8.50	10.25	2.00	2.00	1.75	0.00	0.00	0.00	0.00	0.00	0.00	0.00	0.00	0.00	-0.364258	0.812988	1.851562	16.379999	185.779999	-35.910000	652.00	-0.33	-0.03
1.38	0.00	0.00	0.00	0.00	0.00	0.00	0.25	0.00	6.50	10.50	12.75	9.00	0.75	21.25	4.75	7.00	-1.636719	0.666504	2.813477	-56.139999	580.090027	-109.690002	702.00	0.30	0.00	20.25	18.00	9.00	10.75	2.25	3.25	1.75	0.25	0.00	0.00	0.00	0.00	0.25	0.00	0.00	0.00	-0.233887	0.287109	1.569824	-4.760000	154.210007	-11.970000	686.00	-0.32	-0.04
1.39	0.00	0.00	0.00	0.00	0.00	0.00	0.50	0.00	5.00	9.00	10.00	7.00	0.00	17.75	2.25	5.75	-1.832031	0.821777	3.174316	-30.940001	609.000000	-122.360001	551.00	0.29	0.01	20.75	18.25	9.75	11.75	3.75	4.25	1.75	0.75	0.00	0.00	0.00	0.00	0.00	0.50	0.00	0.00	-0.253418	0.028809	1.499023	-16.030001	129.779999	-7.770000	750.00	-0.31	-0.04
1.40	0.00	0.00	0.00	0.00	0.00	0.00	0.50	0.00	2.50	7.75	8.25	6.25	0.00	13.50	0.75	5.00	-2.230957	1.020020	2.703125	20.160000	648.830017	-134.960007	423.00	0.29	-0.01	21.50	18.75	10.00	12.25	4.50	5.25	2.00	0.75	0.00	0.00	0.00	0.00	0.25	0.50	0.00	0.00	-0.324707	0.187500	1.687012	-14.350000	97.370003	-9.240000	796.00	-0.30	-0.04
1.41	0.00	0.00	0.00	0.00	0.00	0.00	0.50	0.00	1.75	7.25	7.75	5.75	0.00	9.00	0.50	4.50	-2.909668	2.356934	3.181641	107.309998	706.929993	-122.849998	354.00	0.28	-0.03	21.75	18.75	10.50	12.50	5.00	5.75	2.00	0.75	0.00	0.00	0.00	0.00	0.00	0.25	0.00	0.00	-0.244141	0.266602	1.388672	-13.650000	62.020000	-2.380000	813.00	-0.30	-0.04
1.42	0.00	0.00	0.00	0.25	0.00	0.00	0.50	0.00	0.50	6.50	7.50	5.50	0.00	3.25	0.00	4.25	1.934082	-0.686035	4.577637	199.570007	527.940002	-195.300003	272.00	0.25	-0.08	21.50	18.75	10.50	12.50	5.25	5.75	2.00	1.00	0.00	0.00	0.00	0.00	0.25	0.25	0.00	0.00	-0.176270	0.061035	1.253418	-11.270000	39.830002	5.180000	819.00	-0.30	-0.05
1.43	0.00	0.00	0.00	0.00	0.00	0.00	1.00	0.00	0.50	6.25	7.00	5.00	0.00	1.50	0.00	4.50	1.200684	1.055176	4.771484	-19.530001	339.429993	-226.309998	250.00	0.24	-0.08	21.25	18.75	10.50	12.75	5.50	6.25	2.00	1.00	0.00	0.00	0.00	0.00	0.50	0.25	0.00	0.00	-0.140625	0.065430	1.175293	-2.800000	25.480000	5.110000	830.00	-0.30	-0.05
1.44	0.00	0.00	0.00	0.00	0.00	0.00	1.00	0.00	0.50	6.50	7.25	4.75	0.00	0.75	0.00	4.25	0.533691	3.015137	7.669922	-69.440002	105.279999	-149.800003	245.00	0.24	-0.08	21.00	18.75	10.50	13.00	5.25	6.50	2.00	1.00	0.00	0.00	0.00	0.00	0.25	0.00	0.00	0.00	-0.121094	0.144043	1.086914	3.640000	14.630000	4.690000	826.00	-0.30	-0.05
1.45	0.00	0.00	0.00	0.25	0.00	0.00	1.00	0.00	0.00	6.50	6.75	5.00	0.00	0.50	0.00	4.50	2.123535	0.888184	3.384277	-72.029999	-91.209999	-75.669998	238.00	0.23	-0.10	20.50	18.00	10.00	12.75	5.00	6.25	2.00	1.00	0.00	0.00	0.00	0.00	0.00	0.00	0.00	0.00	-0.089355	0.126953	1.051758	5.880000	0.140000	6.510000	798.00	-0.30	-0.05
1.46	0.00	0.00	0.00	0.00	0.00	0.00	1.00	0.00	0.25	6.00	6.75	5.00	0.00	0.50	0.00	4.50	1.222656	0.950195	2.510742	-74.480003	-170.029999	-54.389999	233.00	0.23	-0.09	19.75	18.00	10.00	12.50	4.75	6.25	2.00	1.00	0.00	0.00	0.00	0.00	0.25	0.00	0.00	0.00	-0.022461	0.125977	1.060059	7.140000	-3.430000	6.160000	787.00	-0.30	-0.05
1.47	0.00	0.00	0.00	0.00	0.00	0.00	0.75	0.00	0.00	6.00	6.75	4.75	0.00	0.00	0.00	4.25	1.350098	0.863770	2.406738	-58.869999	-188.369995	-43.189999	218.00	0.23	-0.11	19.25	17.75	9.75	12.25	4.75	6.25	2.00	0.75	0.00	0.00	0.00	0.00	0.25	0.00	0.00	0.00	-0.140137	0.115723	1.004883	7.840000	-6.160000	5.600000	770.00	-0.30	-0.05
1.48	0.00	0.00	0.00	0.25	0.00	0.00	0.75	0.25	0.00	5.50	6.50	4.50	0.00	0.00	0.00	4.25	1.326660	0.750488	2.404297	-35.000000	-225.820007	-37.869999	214.00	0.22	-0.12	18.50	17.00	9.50	12.00	4.50	6.00	2.00	1.25	0.00	0.00	0.00	0.00	0.25	0.00	0.00	0.00	-0.016113	0.087891	0.934082	8.610000	-5.390000	3.920000	752.00	-0.30	-0.05
1.49	0.00	0.00	0.00	0.00	0.00	0.00	0.75	0.00	0.00	5.75	6.25	4.50	0.00	0.00	0.00	4.25	1.097656	0.551758	2.326660	-21.139999	-278.529999	-31.080000	207.00	0.23	-0.11	17.50	16.25	9.00	11.75	3.75	5.75	2.00	0.75	0.00	0.00	0.00	0.00	0.25	0.00	0.00	0.00	-0.032227	0.082520	0.857910	9.170000	0.070000	1.050000	708.00	-0.30	-0.05
1.50	0.00	0.00	0.00	0.00	0.00	0.00	0.75	0.00	0.00	5.75	6.50	4.50	0.00	0.00	0.00	4.25	0.975098	0.443848	2.062988	-26.809999	-328.019989	-23.030001	210.00	0.23	-0.11	16.25	15.50	8.50	11.25	3.75	5.75	2.00	0.75	0.00	0.00	0.00	0.00	0.00	0.00	0.00	0.00	0.013184	0.119141	0.898438	8.750000	7.910000	-2.170000	675.00	-0.30	-0.05
1.51	0.00	0.00	0.00	0.00	0.25	0.00	1.00	0.00	0.00	5.50	6.25	4.25	0.00	0.00	0.00	4.25	0.753418	0.464355	1.845703	-45.150002	-369.320007	-15.960000	209.00	0.23	-0.10	15.00	15.00	8.25	11.00	3.50	5.50	2.00	0.75	0.00	0.00	0.00	0.00	0.00	0.00	0.00	0.00	-0.050781	0.125488	0.870117	6.090000	15.960000	-3.640000	646.00	-0.30	-0.06
1.52	0.00	0.00	0.00	0.00	0.00	0.00	0.75	0.00	0.00	5.50	6.25	4.25	0.00	0.00	0.00	4.25	0.515625	0.570312	1.671387	-56.279999	-401.309998	-9.310000	202.00	0.23	-0.11	13.75	13.75	8.00	10.50	3.50	5.50	2.00	1.00	0.00	0.00	0.00	0.00	0.50	0.00	0.00	0.00	-0.045898	0.160645	0.844238	0.910000	24.010000	-3.640000	621.00	-0.29	-0.06
1.53	0.00	0.00	0.00	0.00	0.00	0.00	1.00	0.00	0.00	5.25	6.25	4.25	0.00	0.00	0.00	4.25	0.323730	0.659180	1.525391	-49.630001	-426.860016	-0.560000	203.00	0.23	-0.10	12.25	13.00	7.50	10.00	3.50	5.50	2.00	1.25	0.00	0.00	0.00	0.00	0.25	0.00	0.00	0.00	-0.030273	0.160645	0.812012	-7.560000	33.320000	-3.220000	590.00	-0.28	-0.07
1.54	0.00	0.00	0.00	0.00	0.00	0.00	1.00	0.00	0.00	5.25	6.25	4.00	0.00	0.00	0.00	4.25	0.137695	0.640137	1.453125	-30.660000	-444.429993	9.660000	201.00	0.23	-0.10	11.00	11.75	7.00	9.75	3.75	5.50	2.00	1.25	0.25	0.00	0.00	0.00	0.25	0.00	0.00	0.00	-0.040527	0.173828	0.879883	-18.200001	45.290001	-3.150000	563.00	-0.27	-0.07
1.55	0.00	0.00	0.00	0.25	0.00	0.00	0.75	0.00	0.00	5.25	6.25	4.00	0.00	0.00	0.00	4.25	-0.048340	0.609863	1.379395	-7.980000	-454.580017	21.559999	200.00	0.23	-0.11	10.00	11.00	7.00	9.50	4.25	6.00	2.00	1.50	0.00	0.00	0.00	0.00	0.50	0.00	0.00	0.00	-0.076660	0.149414	0.901367	-31.010000	54.950001	-2.590000	556.00	-0.27	-0.07
1.56	0.00	0.00	0.00	0.00	0.00	0.00	0.75	0.00	0.00	5.25	6.00	3.75	0.00	0.00	0.00	4.00	-0.218750	0.555664	1.323730	10.850000	-457.309998	34.580002	190.00	0.23	-0.10	8.75	9.75	6.50	9.00	4.25	6.00	2.00	2.00	0.00	0.00	0.00	0.00	0.50	0.25	0.00	0.00	-0.113281	0.126465	0.965820	-40.040001	61.529999	-3.290000	531.00	-0.25	-0.08
1.57	0.00	0.00	0.00	0.00	0.00	0.00	0.75	0.00	0.00	5.25	6.00	3.75	0.00	0.00	0.00	4.00	-0.392578	0.514160	1.329590	24.360001	-452.970001	47.740002	190.00	0.23	-0.10	8.00	9.25	6.75	9.00	4.75	6.25	2.00	2.25	0.00	0.00	0.00	0.50	1.00	0.25	0.00	0.00	-0.151855	0.118164	1.062988	-46.970001	63.770000	-3.360000	543.00	-0.24	-0.09
1.58	0.00	0.00	0.00	0.00	0.00	0.00	0.75	0.00	0.00	5.00	6.00	4.00	0.00	0.00	0.00	4.25	-0.528809	0.490723	1.365723	32.480000	-444.080017	59.570000	192.00	0.23	-0.11	7.25	8.50	6.25	8.50	5.25	6.75	2.25	3.00	0.00	0.00	0.25	0.50	1.50	0.50	0.00	0.00	-0.150879	0.074219	0.992676	-52.639999	61.389999	-2.450000	552.00	-0.22	-0.10
1.59	0.00	0.00	0.00	0.00	0.00	0.00	0.75	0.00	0.00	5.00	6.00	3.75	0.00	0.00	0.00	4.25	-0.622559	0.493652	1.444824	38.500000	-433.580017	68.529999	189.00	0.23	-0.11	6.75	7.75	6.00	8.25	5.50	7.25	2.25	3.50	0.25	0.25	0.50	0.75	2.00	0.75	0.00	0.25	-0.130859	0.079102	1.155273	-58.170002	50.470001	-1.960000	569.00	-0.19	-0.10
1.60	0.00	0.00	0.00	0.00	0.00	0.00	0.75	0.00	0.00	5.25	5.75	3.75	0.00	0.00	0.00	4.25	-0.485352	0.296387	1.501953	49.279999	-424.899994	73.430000	189.00	0.23	-0.10	5.75	6.75	5.50	8.00	6.00	7.50	2.50	5.00	0.25	0.50	0.75	0.75	2.50	1.25	0.00	0.50	-0.259766	-0.032715	1.324219	-54.599998	28.280001	-1.960000	591.00	-0.16	-0.11
1.61	0.00	0.00	0.00	0.00	0.00	0.00	0.75	0.00	0.00	4.75	6.00	3.75	0.00	0.00	0.00	4.25	-0.882324	0.110352	1.481934	69.930000	-414.679993	70.279999	186.00	0.23	-0.11	4.75	6.00	5.50	7.50	6.25	7.75	2.50	5.75	0.50	0.50	1.25	1.50	3.75	1.75	0.00	0.75	-0.184082	0.045898	0.975586	-26.530001	8.610000	-2.450000	618.00	-0.13	-0.13
1.62	0.00	0.00	0.00	0.00	0.00	0.00	0.75	0.00	0.00	4.75	5.75	3.75	0.00	0.00	0.00	4.00	-0.908691	0.377930	1.601074	98.769997	-398.230011	56.209999	182.00	0.23	-0.11	3.50	5.00	5.00	6.75	6.50	8.00	2.50	6.50	1.00	1.00	1.75	2.25	5.00	2.25	0.25	1.25	-0.149414	0.051758	1.017578	-5.950000	1.960000	-1.680000	645.00	-0.09	-0.14
1.63	0.00	0.00	0.00	0.25	0.00	0.00	0.75	0.00	0.00	4.75	5.75	3.50	0.00	0.00	0.00	4.25	-0.939941	0.221191	2.602051	173.039993	-381.779999	19.530001	184.00	0.23	-0.11	2.50	4.00	4.00	6.00	6.50	8.25	2.50	7.50	1.25	1.50	2.25	3.25	6.50	3.00	0.50	2.00	-0.179199	0.039551	0.990234	5.950000	3.430000	-1.820000	674.00	-0.05	-0.15
1.64	0.00	0.00	0.00	0.00	0.00	0.00	0.75	0.00	0.00	4.75	5.50	3.50	0.00	0.00	0.00	4.00	-1.059082	0.377441	3.253418	189.559998	-394.869995	12.390000	177.00	0.23	-0.10	1.75	3.00	3.00	5.25	6.25	8.25	2.50	7.75	1.75	1.75	3.50	4.75	8.25	4.00	0.50	2.50	-0.196289	0.047852	0.994141	16.309999	9.310000	-0.770000	703.00	-0.00	-0.16
1.65	0.00	0.00	0.00	0.00	0.00	0.00	0.75	0.00	0.00	4.50	5.75	3.25	0.00	0.00	0.00	4.25	-1.541504	0.520508	3.697754	195.860001	-421.399994	20.650000	176.00	0.23	-0.11	1.50	2.50	2.25	4.25	5.75	8.00	2.50	8.25	2.25	2.50	6.25	7.50	9.00	5.75	1.25	3.25	-0.201172	0.074219	0.992676	31.710001	28.210001	1.190000	782.00	0.04	-0.16
1.66	0.00	0.00	0.00	0.25	0.00	0.00	0.75	0.00	0.00	4.50	5.75	3.25	0.00	0.00	0.00	4.00	-1.881836	0.436523	3.465820	199.779999	-451.149994	50.119999	177.00	0.23	-0.11	0.75	1.50	1.50	3.75	5.00	7.75	2.50	8.50	2.75	3.25	8.00	8.75	10.00	7.00	1.75	5.00	-0.190918	0.091309	0.996582	34.509998	39.410000	1.120000	824.00	0.08	-0.16
1.67	0.00	0.00	0.00	0.00	0.00	0.00	1.00	0.00	0.00	4.50	5.50	3.50	0.00	0.00	0.00	4.25	-2.606445	0.263672	3.390137	196.000000	-464.589996	93.800003	180.00	0.23	-0.10	0.50	1.25	1.00	2.50	4.25	7.50	2.50	8.50	3.25	4.75	9.50	10.00	11.00	8.25	2.25	6.25	-0.190430	0.150391	1.001465	33.529999	49.910000	-0.560000	871.00	0.11	-0.16
1.68	0.00	0.00	0.00	0.00	0.00	0.00	0.75	0.00	0.00	4.50	5.75	3.50	0.00	0.00	0.00	4.00	-3.137695	0.084961	3.181641	171.919998	-455.350006	145.250000	177.00	0.23	-0.11	0.50	0.25	0.75	2.00	3.25	7.00	2.25	8.75	4.25	7.25	11.00	11.00	12.00	10.00	3.00	7.00	-0.164062	0.153320	1.032227	31.430000	62.230000	-4.270000	938.00	0.14	-0.15
1.69	0.00	0.00	0.00	0.25	0.00	0.00	0.75	0.00	0.00	4.50	5.75	3.25	0.00	0.00	0.00	4.25	-3.765137	-0.032227	2.904297	123.550003	-431.410004	194.669998	179.00	0.23	-0.11	0.25	0.25	0.50	1.75	2.25	6.25	2.25	8.50	5.50	8.25	12.00	12.25	12.75	12.25	4.00	8.00	-0.211426	0.190918	1.086914	32.759998	78.120003	-10.080000	999.00	0.17	-0.14
1.70	0.00	0.00	0.00	0.00	0.00	0.00	0.75	0.00	0.00	4.25	5.75	3.50	0.00	0.00	0.00	4.00	-4.411621	-0.028320	2.363281	60.200001	-395.989990	230.860001	175.00	0.23	-0.11	0.25	0.00	0.50	1.50	1.75	5.75	2.00	8.25	6.50	9.50	13.25	13.25	13.25	15.00	5.00	8.75	-0.244629	0.224121	1.155762	38.430000	104.230003	-16.590000	1068.00	0.19	-0.13
1.71	0.00	0.00	0.00	0.00	0.00	0.00	0.75	0.00	0.00	4.25	5.75	3.50	0.00	0.00	0.00	4.25	-4.939453	0.059082	1.541992	4.900000	-346.570007	250.949997	176.00	0.23	-0.11	0.00	0.00	0.25	1.25	1.25	5.25	1.75	7.50	7.25	10.25	14.25	14.00	13.50	18.00	6.25	9.75	-0.241211	0.199707	1.209961	47.180000	138.250000	-25.059999	1116.00	0.21	-0.12
1.72	0.00	0.00	0.00	0.00	0.00	0.00	0.75	0.00	0.00	4.50	5.50	3.50	0.00	0.00	0.00	4.00	-5.524414	0.039062	0.490234	-26.600000	-291.200012	251.790009	175.00	0.23	-0.11	0.00	0.00	0.00	0.50	0.75	5.00	1.25	7.00	7.25	10.75	15.00	14.50	13.50	20.75	7.00	10.50	-0.231934	0.080566	1.305176	46.759998	185.990005	-28.980000	1135.00	0.22	-0.11
1.73	0.00	0.00	0.00	0.00	0.00	0.00	0.75	0.00	0.00	4.25	5.75	4.00	0.00	0.00	0.00	4.25	-6.112793	-0.145996	-0.728027	-19.600000	-229.669998	216.930008	181.00	0.23	-0.12	0.00	0.00	0.00	0.50	0.75	3.75	1.25	6.25	7.50	11.00	15.25	15.00	13.00	23.25	7.75	11.25	-0.337891	0.141113	1.244141	51.869999	226.449997	-24.219999	1153.00	0.23	-0.10
1.74	0.00	0.00	0.00	0.00	0.00	0.00	0.75	0.00	0.00	4.25	5.75	3.75	0.00	0.00	0.00	4.00	-6.481934	-0.552246	-1.237793	41.580002	-148.539993	145.740005	177.00	0.23	-0.11	0.00	0.00	0.00	0.50	0.25	2.75	1.00	5.25	7.50	11.25	15.50	14.75	12.25	25.75	8.75	11.50	-0.352539	0.066406	1.399902	42.349998	264.250000	-19.040001	1147.00	0.25	-0.09
1.75	0.00	0.00	0.00	0.00	0.00	0.25	0.75	0.00	0.00	4.50	5.75	3.75	0.00	0.00	0.00	4.25	-6.230957	-1.220703	-1.138184	93.449997	-54.599998	71.750000	184.00	0.23	-0.11	0.00	0.00	0.00	0.00	0.25	2.75	1.00	4.25	7.25	11.00	15.25	14.50	11.50	27.75	9.00	12.00	-0.450195	0.199707	1.376465	35.770000	314.579987	-17.710001	1131.00	0.26	-0.08
1.76	0.00	0.00	0.00	0.00	0.00	0.00	0.75	0.00	0.00	4.25	5.75	3.50	0.00	0.00	0.00	4.25	-5.806641	-1.584961	-0.560059	68.949997	30.870001	26.670000	176.00	0.23	-0.11	0.00	0.00	0.00	0.00	0.25	1.50	0.75	3.25	6.75	10.75	15.00	14.00	10.50	29.25	9.50	12.25	-0.486816	0.194336	1.549316	47.670002	362.739990	-22.400000	1092.00	0.27	-0.07
1.77	0.00	0.00	0.00	0.00	0.00	0.00	0.75	0.00	0.00	4.50	5.75	3.50	0.00	0.00	0.00	4.25	-5.076172	-1.229980	-0.022949	-25.480000	100.029999	12.950000	179.00	0.23	-0.11	0.00	0.00	0.00	0.00	0.00	0.75	0.75	2.50	6.25	10.25	14.25	13.25	9.25	30.75	9.50	12.00	-0.578125	0.308594	1.733398	35.840000	398.929993	-27.860001	1042.00	0.28	-0.06
1.78	0.25	0.00	0.00	0.75	0.00	0.00	0.75	0.00	0.00	4.25	5.50	3.50	0.00	0.00	0.00	4.00	-4.403809	-0.401367	0.695312	-94.779999	146.509995	16.309999	183.00	0.20	-0.11	0.00	0.00	0.00	0.00	0.00	0.50	1.00	1.75	6.00	9.75	13.25	12.00	8.00	31.25	9.50	11.50	-0.625977	0.163086	1.865234	21.770000	448.980011	-28.770000	991.00	0.29	-0.05
1.79	2.25	3.75	0.75	1.00	0.00	0.00	0.75	0.00	0.00	4.00	5.75	3.50	0.00	0.00	0.00	4.00	3.489258	0.358887	2.762207	-85.120003	333.970001	2.170000	249.00	0.04	-0.10	0.00	0.00	0.00	0.00	0.00	0.25	0.75	1.25	5.50	9.25	12.00	10.75	6.75	30.25	9.00	10.50	-0.730469	0.390137	2.077637	4.130000	508.200012	-35.910000	908.00	0.30	-0.04
1.80	9.25	12.25	2.75	3.50	0.00	0.00	0.50	0.00	0.00	4.25	5.50	4.00	0.00	0.00	0.00	4.25	0.332520	0.454590	2.980469	-152.250000	313.880005	-8.400000	452.00	-0.14	-0.08	0.00	0.00	0.00	0.00	0.00	0.00	0.75	0.50	5.00	8.50	10.50	9.25	5.25	28.25	7.75	8.25	-0.791504	0.678223	2.280273	-13.160000	576.940002	-53.340000	793.00	0.30	-0.02
1.81	17.25	20.50	4.25	5.75	0.00	0.25	0.50	0.00	0.00	3.75	5.75	3.75	0.00	0.00	0.00	4.25	-0.841309	-0.205566	2.188965	-101.150002	331.309998	28.210001	650.00	-0.22	-0.07	0.00	0.00	0.00	0.00	0.00	0.00	1.00	0.00	4.50	7.25	8.50	7.50	3.25	25.00	6.25	6.25	-1.174316	0.746094	3.057617	-30.799999	639.309998	-78.750000	658.00	0.31	-0.00
1.82	21.75	24.25	7.50	8.25	0.00	0.00	0.75	0.00	0.00	4.25	5.75	4.25	0.00	0.00	0.00	4.00	-1.080566	-1.077148	3.016113	-52.709999	398.230011	32.900002	805.00	-0.24	-0.06	0.00	0.00	0.00	0.00	0.00	0.00	1.00	0.00	2.75	5.00	5.50	5.00	2.00	19.75	4.00	4.50	-1.531250	0.752930	3.880371	-30.870001	683.270020	-99.470001	466.00	0.31	0.01
1.83	24.50	26.75	9.00	10.00	0.50	0.50	0.75	0.00	0.00	4.00	5.50	4.00	0.00	0.00	0.00	4.25	-1.036621	-1.688965	3.905273	-4.620000	348.880005	-13.230000	897.00	-0.25	-0.06	0.00	0.00	0.00	0.00	0.00	0.00	1.00	0.00	1.25	2.75	3.00	2.50	1.25	13.25	2.25	2.50	-1.678223	0.759277	4.606934	2.520000	699.859985	-112.910004	279.00	0.31	0.03
1.84	23.75	26.00	9.75	10.00	0.75	0.25	0.75	0.00	0.00	4.25	5.50	4.00	0.00	0.00	0.00	4.25	-0.479980	0.148438	2.547852	32.480000	280.980011	-67.900002	893.00	-0.25	-0.05	0.00	0.00	0.00	0.00	0.00	0.75	1.00	0.00	0.75	1.75	2.00	2.00	1.00	7.75	1.00	1.00	-1.161621	0.776367	4.624023	42.000000	700.979980	-123.340004	184.00	0.28	0.01
1.85	23.25	26.50	11.00	12.75	1.25	2.25	0.75	0.00	0.00	4.00	5.75	4.00	0.00	0.00	0.00	4.50	-0.412109	0.526855	1.651855	15.470000	198.660004	-10.080000	965.00	-0.24	-0.06	0.00	0.00	0.00	0.00	0.00	0.25	1.25	0.25	0.50	1.00	1.25	1.00	1.00	2.75	0.25	0.00	2.607422	0.792480	4.355469	182.839996	668.500000	-144.410004	101.00	0.22	0.00
1.86	22.75	26.00	11.50	14.00	1.50	3.25	1.00	0.00	0.00	4.00	5.75	4.00	0.00	0.00	0.00	4.25	-0.371582	-0.189941	1.653809	-4.130000	166.039993	-3.010000	991.00	-0.24	-0.07	0.00	0.50	0.00	0.00	0.00	0.00	1.75	0.00	0.25	1.00	0.75	0.50	0.00	0.75	0.00	0.00	3.636719	-0.428711	7.060059	229.180008	429.730011	-215.389999	64.00	0.14	0.09
1.87	22.75	25.75	12.25	15.25	2.00	4.25	1.00	0.25	0.00	4.00	6.00	4.00	0.00	0.00	0.00	4.25	-0.365723	0.203613	1.535156	-6.230000	121.590004	-14.980000	1034.00	-0.24	-0.07	0.00	0.00	0.00	0.00	0.00	0.50	1.75	0.00	0.00	1.00	0.75	0.50	0.00	0.50	0.00	0.00	0.942383	0.989258	8.870117	163.449997	-13.090000	-235.619995	60.00	0.14	0.07
1.88	22.75	26.00	12.50	15.00	2.50	5.75	1.00	0.50	0.00	4.00	6.00	4.00	0.00	0.00	0.00	4.25	-0.359863	0.376953	1.453613	-13.230000	90.720001	-8.190000	1062.00	-0.24	-0.07	0.00	0.00	0.00	0.00	0.00	0.50	1.75	0.00	0.00	0.75	0.75	0.00	0.25	1.00	0.00	0.00	2.116211	0.023926	3.585938	58.939999	-291.690002	-196.070007	58.00	0.15	0.09
1.89	21.75	25.25	12.50	14.75	2.50	6.00	1.00	0.75	0.00	4.00	6.00	4.25	0.00	0.00	0.00	4.25	-0.273926	0.044922	1.316406	-20.580000	63.070000	1.610000	1051.00	-0.23	-0.08	0.00	0.00	0.00	0.00	0.00	0.00	1.75	0.00	0.00	0.50	0.25	0.00	0.00	0.50	0.00	0.00	0.852539	0.773926	1.994141	-67.970001	-347.200012	-154.210007	39.00	0.00	0.00
1.90	21.50	25.00	12.50	15.00	2.50	6.25	1.00	0.75	0.00	4.25	6.00	4.25	0.00	0.00	0.00	4.25	-0.172363	0.036621	1.077637	-13.860000	41.439999	0.420000	1054.00	-0.23	-0.08	0.00	0.25	0.00	0.00	0.00	0.00	2.00	0.00	0.00	0.50	0.00	0.00	0.00	0.50	0.00	0.00	0.916992	1.405273	2.108398	-98.840004	-324.869995	-119.910004	42.00	0.00	0.00
1.91	20.75	24.50	12.25	15.00	2.50	6.50	1.00	0.75	0.00	4.25	6.00	4.00	0.00	0.00	0.00	4.25	-0.181152	0.157227	1.054688	-3.570000	31.290001	0.210000	1039.00	-0.23	-0.08	0.00	0.00	0.00	0.00	0.00	0.25	1.75	0.00	0.00	0.00	0.00	0.00	0.00	0.00	0.00	0.00	1.182617	1.448730	2.379395	-50.330002	-342.160004	-95.059998	29.00	0.00	0.00
1.92	19.75	23.75	11.75	14.50	2.25	6.75	1.00	0.75	0.00	4.00	6.25	4.25	0.00	0.00	0.00	4.25	-0.150879	0.106934	1.010742	3.570000	24.430000	2.520000	1013.00	-0.22	-0.08	0.00	0.00	0.00	0.00	0.00	0.25	2.00	0.00	0.00	0.25	0.00	0.00	0.00	0.50	0.00	0.00	0.810059	1.086426	2.387695	14.350000	-405.510010	-79.870003	40.00	0.00	0.00
1.93	19.00	23.00	11.25	13.75	2.00	6.50	1.00	1.00	0.00	4.25	6.00	4.25	0.00	0.00	0.00	4.25	-0.129395	0.064453	0.968262	9.940000	21.280001	1.400000	983.00	-0.22	-0.08	0.00	0.00	0.00	0.00	0.00	0.00	1.75	0.00	0.00	0.25	0.00	0.00	0.00	0.50	0.00	0.00	0.592773	0.668457	1.992188	40.459999	-460.390015	-66.989998	33.00	0.00	0.00
1.94	17.50	21.50	10.00	13.25	2.00	6.75	1.00	1.00	0.00	4.25	6.25	4.25	0.00	0.00	0.00	4.25	-0.115723	0.148926	0.917480	14.000000	21.070000	-1.050000	940.00	-0.21	-0.09	0.00	0.00	0.00	0.00	0.00	0.25	1.75	0.00	0.00	0.25	0.00	0.00	0.00	0.25	0.00	0.00	0.254395	0.592285	1.831055	20.090000	-490.910004	-53.200001	34.00	0.00	0.00
1.95	15.75	19.50	9.25	12.50	1.75	6.75	1.00	1.00	0.00	4.25	6.25	4.25	0.00	0.00	0.00	4.00	-0.069824	0.177246	0.805176	10.080000	26.389999	-1.610000	882.00	-0.20	-0.09	0.00	0.00	0.00	0.00	0.00	0.25	1.75	0.00	0.00	0.00	0.00	0.00	0.00	0.00	0.00	0.00	-0.000000	0.693848	1.738281	-7.210000	-509.040009	-39.130001	29.00	0.00	0.00
1.96	13.50	17.25	8.75	11.25	1.50	6.50	1.00	1.50	0.00	4.50	6.25	4.25	0.25	0.00	0.00	4.00	-0.064453	0.154297	0.833008	1.330000	36.750000	-3.150000	826.00	-0.18	-0.10	0.00	0.00	0.00	0.00	0.00	0.50	2.00	0.00	0.00	0.25	0.00	0.00	0.00	0.00	0.00	0.00	-0.168457	0.765625	1.548340	-4.200000	-521.220032	-24.290001	38.00	0.00	0.00
1.97	11.00	15.25	8.00	10.25	1.75	6.75	1.00	1.75	0.00	4.25	6.00	4.50	0.25	0.00	0.00	4.25	-0.099121	0.142578	0.818359	-7.630000	48.790001	-4.340000	770.00	-0.17	-0.10	0.00	0.00	0.00	0.00	0.00	0.00	1.75	0.00	0.00	0.00	0.00	0.00	0.00	0.00	0.00	0.00	-0.301758	0.702148	1.356445	21.559999	-524.090027	-9.660000	27.00	0.00	0.00
1.98	9.00	12.50	7.25	9.50	1.50	6.75	1.00	2.00	0.00	4.50	6.50	4.50	0.25	0.00	0.00	4.25	-0.127441	0.170898	0.835938	-20.650000	64.260002	-4.620000	717.00	-0.15	-0.11	0.00	0.00	0.00	0.00	0.00	0.00	1.75	0.00	0.00	0.00	0.00	0.00	0.00	0.00	0.00	0.00	-0.421387	0.598145	1.195801	48.580002	-513.520020	4.620000	27.00	0.00	0.00
1.99	7.25	10.75	6.75	8.75	1.75	6.75	1.00	2.75	0.00	4.50	6.50	4.50	0.50	0.00	0.00	4.00	-0.183105	0.125977	0.996582	-35.279999	70.209999	-3.780000	684.00	-0.13	-0.12	0.00	0.00	0.00	0.00	0.00	0.00	1.75	0.00	0.00	0.00	0.00	0.00	0.00	0.00	0.00	0.00	-0.522461	0.544922	1.260742	64.889999	-490.769989	17.570000	27.00	0.00	0.00
2.00	6.25	8.50	6.00	8.00	1.75	7.00	1.00	3.75	0.00	4.75	6.75	4.75	0.75	0.00	0.00	4.00	-0.212891	0.072754	1.093750	-43.959999	68.739998	-4.550000	664.00	-0.10	-0.13	0.00	0.00	0.00	0.00	0.00	0.00	1.75	0.00	0.00	0.00	0.00	0.00	0.00	0.00	0.00	0.00	-0.570312	0.559082	1.465820	74.199997	-467.950012	30.100000	27.00	0.00	0.00
2.01	5.00	7.00	5.50	7.25	1.75	6.75	1.25	4.00	0.00	4.75	7.00	4.75	1.00	0.00	0.00	4.50	-0.219238	0.100098	0.958496	-56.980000	61.810001	-6.160000	636.00	-0.08	-0.14	0.00	0.00	0.00	0.00	0.00	0.25	1.75	0.00	0.00	0.00	0.00	0.00	0.00	0.00	0.00	0.00	-0.628906	0.560059	1.751465	86.239998	-453.670013	41.860001	29.00	0.00	0.00
2.02	3.75	5.50	5.25	6.75	2.00	6.75	1.25	5.25	0.00	5.00	7.50	5.25	1.50	0.00	0.00	4.75	-0.268066	0.082031	1.110352	-67.970001	41.580002	-6.020000	641.00	-0.05	-0.15	0.00	0.00	0.00	0.00	0.00	0.25	1.75	0.00	0.00	0.00	0.00	0.00	0.00	0.00	0.00	0.00	-0.675781	0.560547	2.014160	99.750000	-447.510010	51.939999	29.00	0.00	0.00
2.03	2.75	4.75	4.25	5.75	2.00	6.50	1.25	5.50	0.25	6.00	7.75	5.50	2.00	0.50	0.00	4.75	-0.225586	0.069824	1.000488	-59.570000	21.770000	-6.510000	631.00	-0.02	-0.15	0.00	0.00	0.00	0.00	0.00	0.00	1.75	0.00	0.00	0.00	0.00	0.00	0.00	0.00	0.00	0.00	-0.684082	0.503906	2.182617	113.260002	-443.589996	58.869999	27.00	0.00	0.00
2.04	2.25	2.75	3.75	5.00	2.00	6.25	1.50	5.50	0.75	6.75	8.00	6.00	2.50	1.00	0.00	5.00	-0.241211	0.152344	0.972656	-24.430000	13.440001	-6.020000	626.00	0.01	-0.15	0.00	0.00	0.00	0.00	0.00	0.25	1.75	0.00	0.00	0.00	0.00	0.00	0.00	0.00	0.00	0.00	-0.786133	0.375000	2.283691	131.949997	-434.420013	56.000000	29.00	0.00	0.00
2.05	1.25	2.00	3.25	3.75	2.00	6.25	1.75	6.00	1.00	7.00	8.50	6.50	3.00	1.50	0.25	5.00	-0.241211	0.152344	0.972656	-24.430000	13.440001	-6.020000	629.00	0.05	-0.15	0.00	0.00	0.00	0.00	0.00	0.25	1.75	0.00	0.00	0.00	0.00	0.00	0.00	0.00	0.00	0.00	-1.168457	0.044922	2.793945	203.839996	-397.110016	16.940001	29.00	0.00	0.00
2.06	0.50	1.25	2.75	3.50	2.00	6.25	1.75	6.25	1.75	7.50	9.00	6.75	3.75	2.25	0.25	5.25	-0.194824	0.047852	0.928711	-5.740000	19.600000	-3.990000	647.00	0.07	-0.15	0.00	0.00	0.00	0.00	0.00	0.00	1.75	0.00	0.00	0.00	0.00	0.00	0.00	0.00	0.00	0.00	-1.533691	-0.056152	3.226562	227.149994	-378.839996	-8.750000	27.00	0.00	0.00
2.07	0.25	0.75	2.00	3.00	2.00	6.00	2.00	6.50	2.75	7.75	9.50	7.50	5.00	3.00	0.50	5.50	-0.224121	0.058105	0.973633	0.490000	22.469999	-4.200000	681.00	0.10	-0.15	0.00	0.00	0.00	0.00	0.00	0.00	1.75	0.00	0.00	0.00	0.00	0.00	0.00	0.00	0.00	0.00	-2.042969	0.048828	3.435547	219.309998	-362.950012	-20.650000	27.00	0.00	0.00
2.08	0.00	1.00	1.00	2.50	1.50	6.50	2.00	7.00	3.00	8.25	10.75	8.25	6.25	4.25	0.50	5.75	-0.200684	0.069336	0.965332	7.700000	25.549999	-5.600000	724.00	0.12	-0.15	0.00	0.00	0.00	0.00	0.00	0.25	1.75	0.25	0.00	0.00	0.00	0.00	0.00	0.00	0.00	0.00	-2.750488	0.323242	3.567871	197.820007	-347.690002	-10.150000	33.00	0.00	0.00
2.09	0.00	0.50	1.50	2.00	1.50	6.25	2.00	7.50	4.25	8.75	11.75	9.25	7.25	5.25	1.00	6.25	-0.192383	0.071777	0.942383	14.980000	30.660000	-7.910000	792.00	0.13	-0.14	0.00	0.00	0.00	0.00	0.00	0.25	1.75	0.00	0.00	0.00	0.00	0.00	0.00	0.00	0.00	0.00	-3.514160	0.537598	3.757812	186.270004	-340.829987	25.059999	29.00	0.00	0.00
2.10	0.00	0.00	1.00	1.75	1.25	6.25	2.00	8.00	5.00	9.25	13.00	10.50	8.00	7.25	1.25	6.50	-0.220703	0.090820	0.970215	22.400000	37.310001	-10.080000	853.00	0.15	-0.14	0.00	0.00	0.00	0.00	0.00	0.00	1.75	0.00	0.00	0.00	0.00	0.00	0.00	0.00	0.00	0.00	-4.189941	0.614746	3.656738	195.649994	-353.709991	84.279999	27.00	0.00	0.00
2.11	0.00	0.00	1.00	1.25	1.00	5.75	1.75	8.00	5.50	10.00	14.25	12.00	9.00	9.00	1.75	7.00	-0.205566	0.076660	0.993164	30.030001	45.779999	-12.460000	910.00	0.17	-0.14	0.00	0.00	0.00	0.00	0.25	0.00	1.75	0.00	0.00	0.00	0.00	0.00	0.00	0.00	0.00	0.00	-4.248047	0.198730	2.785645	236.529999	-378.070007	175.000000	29.00	0.00	0.00
2.12	0.00	0.00	0.75	1.25	0.75	5.75	1.50	8.25	7.50	10.50	15.75	13.25	10.00	11.00	2.25	7.50	-0.255859	0.099121	1.003906	37.590000	56.209999	-15.470000	998.00	0.18	-0.13	0.00	0.00	0.00	0.00	0.00	0.00	1.75	0.00	0.00	0.00	0.00	0.00	0.00	0.00	0.00	0.00	-5.333496	-0.388184	2.010742	269.850006	-387.869995	282.239990	27.00	0.00	0.00
2.13	0.00	0.00	0.25	1.00	0.50	5.50	1.50	8.00	8.25	11.50	17.25	15.00	11.00	13.00	3.00	8.25	-0.258301	0.123535	1.031250	45.990002	71.470001	-18.690001	1073.00	0.19	-0.12	0.00	0.00	0.00	0.00	0.00	0.25	1.75	0.00	0.00	0.00	0.00	0.00	0.00	0.00	0.00	0.00	-6.362305	-0.884277	0.623047	195.440002	-362.390015	360.360016	29.00	0.00	0.00
2.14	0.00	0.00	0.50	1.00	0.25	5.25	1.25	7.75	8.75	12.00	18.50	16.25	11.50	15.25	3.50	9.00	-0.300293	0.162109	1.057617	60.619999	90.650002	-21.000000	1133.00	0.20	-0.12	0.00	0.00	0.00	0.00	0.00	0.50	1.75	0.00	0.00	0.00	0.00	0.00	0.00	0.00	0.00	0.00	-6.874512	-1.126465	-1.465820	92.889999	-298.760010	387.730011	32.00	0.00	0.00
2.15	0.00	0.00	0.00	0.75	0.00	5.00	1.00	7.25	9.00	12.50	19.75	17.50	11.75	17.75	5.25	9.75	-0.301270	0.145996	1.144531	85.260002	109.970001	-23.309999	1189.00	0.22	-0.11	0.00	0.00	0.00	0.00	0.00	0.25	1.75	0.00	0.00	0.00	0.00	0.00	0.00	0.00	0.00	0.00	-7.212402	-1.349121	-1.907715	78.540001	-185.639999	330.190002	29.00	0.00	0.00
2.16	0.00	0.00	0.00	0.75	0.00	4.00	0.75	6.50	9.25	12.75	20.25	18.25	11.50	20.00	6.25	10.50	-0.290039	0.086426	1.066895	78.889999	158.550003	-19.740000	1214.00	0.23	-0.11	0.00	0.00	0.00	0.00	0.00	0.00	1.75	0.00	0.00	0.00	0.00	0.00	0.00	0.00	0.00	0.00	-6.974121	-1.698730	-1.240234	113.680000	-54.810001	214.270004	27.00	0.00	0.00
2.17	0.00	0.00	0.00	0.25	0.00	3.50	0.50	5.75	9.50	13.00	21.00	18.50	11.25	22.00	6.75	11.25	-0.427246	0.218262	1.190918	77.419998	213.009995	-19.740000	1228.00	0.24	-0.10	0.00	0.00	0.00	0.00	0.00	0.25	1.75	0.00	0.00	0.00	0.00	0.00	0.00	0.00	0.00	0.00	-6.317871	-2.069824	-0.010254	124.040001	38.290001	117.879997	29.00	0.00	0.00
2.18	0.00	0.00	0.00	0.00	0.00	2.25	0.25	5.00	9.50	13.00	21.25	18.50	10.25	24.00	7.25	12.00	-0.411621	0.095703	1.302734	59.920002	266.769989	-18.969999	1217.00	0.25	-0.09	0.00	0.00	0.00	0.00	0.00	0.25	1.75	0.00	0.00	0.00	0.00	0.00	0.00	0.00	0.00	0.00	-5.389160	-2.087891	0.588867	50.610001	95.059998	73.080002	29.00	0.00	0.00
2.19	0.00	0.00	0.00	0.00	0.00	2.00	0.25	3.25	9.25	12.75	20.75	18.25	9.25	25.25	7.75	12.25	-0.477051	0.183105	1.196289	49.490002	311.779999	-15.190001	1182.00	0.26	-0.08	0.25	0.25	0.00	0.00	0.00	0.00	1.75	0.00	0.00	0.00	0.00	0.00	0.00	0.00	0.00	0.00	-4.565918	-1.489258	0.893555	-55.650002	135.660004	57.470001	31.00	0.00	0.00
2.20	0.00	0.25	0.00	0.00	0.00	1.00	0.25	2.50	9.00	12.50	20.75	18.00	8.50	26.25	8.25	12.50	-0.530762	0.125000	1.396973	53.900002	359.660004	-11.760000	1162.00	0.27	-0.07	2.75	4.75	1.00	1.75	0.00	0.00	1.50	0.00	0.00	0.00	0.00	0.00	0.00	0.00	0.00	0.00	-0.825684	0.327637	6.245605	-115.709999	315.489990	41.369999	125.00	-0.29	-0.02
2.21	0.00	0.00	0.00	0.00	0.00	0.75	0.25	1.50	8.50	12.25	20.25	17.25	7.50	27.25	8.50	12.50	-0.618652	0.305664	1.475586	57.610001	407.119995	-15.050000	1122.00	0.28	-0.06	9.75	11.50	2.50	4.25	0.25	0.00	1.50	0.00	0.00	0.00	0.00	0.00	0.25	0.00	0.00	0.00	0.970215	-1.714355	-0.956543	-218.119995	188.720001	25.410000	309.00	-0.34	-0.03
2.22	0.00	0.00	0.00	0.00	0.00	0.50	0.25	1.25	8.25	12.25	19.75	16.50	6.50	27.00	8.00	11.75	-0.679199	0.363770	1.442871	60.410000	462.350006	-27.719999	1079.00	0.28	-0.05	16.25	16.25	4.75	6.00	0.50	0.00	1.50	0.00	0.00	0.00	0.00	0.00	0.00	0.00	0.00	0.00	-0.866211	-0.788574	0.517090	-269.220001	296.799988	-25.340000	465.00	-0.35	-0.02
2.23	0.00	0.00	0.25	0.00	0.00	0.00	0.25	0.50	7.25	12.00	18.75	15.25	5.50	25.75	7.50	11.00	-0.623535	0.417480	1.649414	52.990002	531.859985	-47.810001	997.00	0.28	-0.05	22.00	20.00	7.75	9.00	1.00	0.25	1.50	0.00	0.00	0.00	0.00	0.00	0.25	0.00	0.00	0.00	-1.076172	1.101074	4.082520	-202.720001	415.730011	-29.680000	636.00	-0.35	-0.02
2.24	0.00	0.00	0.00	0.00	0.00	0.00	0.25	0.25	6.00	10.75	16.50	13.00	4.00	23.75	6.75	9.50	-0.993652	0.736328	2.173340	34.439999	612.570007	-71.820000	868.00	0.29	-0.04	23.75	21.75	9.00	10.25	1.50	1.00	1.50	0.00	0.00	0.00	0.00	0.00	0.00	0.00	0.00	0.00	-1.007324	-1.839844	3.608398	-82.529999	345.660004	16.240000	709.00	-0.34	-0.03
2.25	0.00	0.00	0.00	0.00	0.00	0.00	0.25	0.00	4.50	9.00	13.25	10.00	2.25	20.75	4.75	7.50	-2.027344	0.856934	3.194336	50.750000	680.400024	-87.010002	688.00	0.29	-0.03	24.00	22.00	10.00	11.25	2.25	2.00	1.75	0.25	0.00	0.00	0.00	0.00	0.50	0.25	0.00	0.00	-0.691406	0.687012	2.824707	24.500000	256.829987	-55.650002	769.00	-0.33	-0.03
2.26	0.00	0.00	0.00	0.00	0.00	0.00	0.50	0.00	2.25	7.50	10.00	8.00	0.75	16.25	2.00	6.00	-2.488770	0.895020	4.526855	99.260002	729.960022	-91.139999	503.00	0.29	-0.03	23.75	21.75	10.50	12.25	3.00	3.50	1.75	0.25	0.00	0.00	0.00	0.00	0.50	0.00	0.00	0.00	-0.318359	0.947754	1.941895	21.559999	196.210007	-28.070000	803.00	-0.32	-0.04
2.27	0.00	0.00	0.00	0.00	0.00	0.00	0.25	0.00	1.00	7.00	8.25	6.50	0.50	11.00	0.75	5.25	-1.655762	0.590332	5.272949	205.589996	703.359985	-90.930000	379.00	0.28	-0.04	23.25	21.25	11.00	12.50	3.75	4.50	1.75	0.50	0.00	0.00	0.00	0.00	0.75	0.25	0.00	0.00	-0.275391	0.105469	1.546387	-0.000000	159.949997	-0.560000	829.00	-0.31	-0.04
2.28	0.00	0.00	0.00	0.00	0.00	0.00	0.50	0.00	0.25	6.00	7.50	5.75	0.25	6.25	0.25	4.75	-0.122070	0.679688	5.515137	242.410004	679.770020	-101.989998	296.00	0.27	-0.07	23.00	20.75	11.25	13.00	4.75	6.00	1.75	0.75	0.00	0.00	0.00	0.00	0.75	0.50	0.00	0.00	-0.345215	-0.013184	1.781250	-8.050000	121.660004	-3.430000	863.00	-0.30	-0.05
2.29	0.00	0.00	0.00	0.00	0.00	0.00	0.75	0.25	0.00	5.50	6.75	5.50	0.50	2.25	0.00	4.50	2.480469	0.474609	4.425781	286.510010	600.809998	-127.330002	249.00	0.24	-0.11	21.75	20.25	11.25	13.00	5.75	6.75	2.00	1.00	0.00	0.00	0.00	0.00	0.50	0.50	0.00	0.00	-0.229004	0.384766	1.396973	-9.800000	77.489998	-4.270000	870.00	-0.30	-0.05
2.30	0.00	0.00	0.00	0.00	0.00	0.00	0.75	0.00	0.00	6.00	6.75	5.00	0.25	1.25	0.00	4.50	2.565430	0.820801	7.126953	244.580002	312.200012	-235.550003	235.00	0.24	-0.10	21.75	20.00	11.25	12.75	6.00	6.75	2.00	1.00	0.00	0.00	0.00	0.00	0.75	0.25	0.00	0.00	-0.170410	0.126953	1.228516	-15.470000	52.920002	5.110000	868.00	-0.30	-0.05
2.31	0.00	0.00	0.00	0.00	0.00	0.00	0.75	0.00	0.00	5.75	6.50	5.00	0.00	1.00	0.00	4.25	1.652344	0.554688	7.614746	156.449997	-69.300003	-255.009995	224.00	0.24	-0.10	20.75	19.50	11.00	12.75	6.00	7.50	2.00	1.25	0.00	0.00	0.00	0.00	0.50	0.25	0.00	0.00	-0.147461	-0.038086	1.230469	-11.620000	34.230000	3.570000	860.00	-0.29	-0.05
2.32	0.00	0.00	0.00	0.00	0.00	0.00	1.00	0.00	0.00	5.25	6.50	5.00	0.00	0.50	0.00	4.25	2.217773	-0.257324	3.293457	38.080002	-258.860016	-238.979996	218.00	0.23	-0.10	20.75	19.00	11.00	12.50	6.25	7.25	2.00	1.00	0.00	0.00	0.00	0.00	0.50	0.50	0.00	0.00	-0.078613	0.109375	0.998535	-1.750000	21.210001	-0.420000	851.00	-0.29	-0.05
2.33	0.00	0.00	0.00	0.00	0.00	0.00	1.00	0.00	0.00	5.50	6.50	5.00	0.00	0.75	0.25	4.25	1.023438	0.754883	2.797852	-94.360001	-292.809998	-233.169998	226.00	0.24	-0.10	19.25	18.25	10.75	12.25	6.00	7.25	2.00	1.25	0.00	0.00	0.00	0.00	0.75	0.25	0.00	0.00	0.009766	0.152344	0.924805	1.050000	25.620001	0.140000	824.00	-0.29	-0.06
2.34	0.00	0.00	0.00	0.00	0.00	0.00	1.00	0.00	0.00	5.00	6.25	4.50	0.00	0.50	0.00	4.25	1.353027	1.753906	2.846680	-114.239998	-303.519989	-211.119995	208.00	0.23	-0.10	18.00	17.25	10.25	11.75	6.00	7.00	2.00	1.25	0.00	0.00	0.00	0.00	0.50	0.25	0.00	0.00	-0.064453	0.103516	1.006348	-3.080000	30.730000	-2.100000	786.00	-0.29	-0.06
2.35	0.00	0.00	0.00	0.00	0.00	0.00	1.00	0.00	0.00	5.00	6.00	4.50	0.00	0.50	0.00	4.25	1.445801	1.500977	2.468750	-58.450001	-356.299988	-177.940002	205.00	0.23	-0.10	16.50	15.75	9.50	11.25	6.00	6.75	2.00	1.00	0.00	0.00	0.00	0.00	0.75	0.25	0.00	0.00	-0.011230	0.132324	0.872559	-9.450000	33.670002	-6.160000	739.00	-0.28	-0.06
2.36	0.00	0.00	0.00	0.00	0.00	0.00	1.00	0.00	0.00	5.00	6.25	4.25	0.00	0.00	0.00	4.50	1.113770	1.104004	2.152344	-12.040000	-412.089996	-148.889999	202.00	0.23	-0.11	14.50	14.25	9.25	10.50	6.00	6.75	2.00	1.50	0.00	0.00	0.00	0.00	1.00	0.00	0.00	0.00	0.014160	0.134277	0.762695	-17.290001	47.180000	-7.840000	701.00	-0.27	-0.06
2.37	0.00	0.00	0.00	0.00	0.00	0.00	1.00	0.00	0.00	5.00	6.00	4.25	0.00	0.00	0.00	4.25	0.930176	0.913086	1.972656	-11.480000	-453.459991	-121.239998	198.00	0.23	-0.10	12.50	12.75	8.50	10.00	6.25	6.50	2.00	1.50	0.00	0.00	0.00	0.00	0.75	0.25	0.00	0.00	-0.059082	0.129395	0.963867	-28.700001	67.900002	-8.050000	652.00	-0.27	-0.06
2.38	0.00	0.00	0.00	0.00	0.00	0.00	1.00	0.00	0.00	5.00	6.00	4.25	0.00	0.00	0.00	4.25	0.596191	0.991211	1.932617	-33.810001	-491.610016	-91.980003	198.00	0.23	-0.10	11.00	11.00	8.25	9.50	6.25	6.50	2.25	2.00	0.00	0.00	0.00	0.25	1.00	0.25	0.00	0.00	-0.161133	0.111816	1.029785	-34.790001	74.900002	-4.760000	629.00	-0.25	-0.07
2.39	0.00	0.00	0.00	0.00	0.00	0.00	1.00	0.00	0.00	4.75	6.00	4.25	0.00	0.00	0.00	4.25	0.270996	1.100586	1.777832	-29.330000	-525.210022	-58.450001	196.00	0.23	-0.11	9.50	9.50	7.50	9.00	6.75	6.75	2.25	2.25	0.00	0.50	0.25	0.25	1.25	0.50	0.00	0.00	-0.119629	0.084961	1.045898	-42.490002	71.470001	-2.660000	610.00	-0.23	-0.07
2.40	0.00	0.00	0.00	0.00	0.00	0.00	1.00	0.00	0.00	5.00	6.00	3.75	0.00	0.00	0.00	4.25	-0.019531	0.999512	1.550293	10.010000	-544.880005	-22.469999	193.00	0.23	-0.10	8.00	8.25	7.25	8.25	6.75	6.50	2.25	2.50	0.25	0.50	0.50	0.75	1.75	0.75	0.00	0.00	-0.203125	0.003906	1.492676	-53.689999	66.849998	-1.470000	590.00	-0.20	-0.08
2.41	0.00	0.00	0.25	0.00	0.00	0.00	1.00	0.00	0.00	4.75	5.75	4.00	0.00	0.00	0.00	4.25	-0.315430	0.776855	1.422363	56.349998	-544.599976	11.690000	193.00	0.22	-0.10	6.25	7.00	6.25	7.75	6.75	6.00	2.25	3.00	0.50	0.75	1.00	1.00	2.00	1.25	0.00	0.00	-0.157227	0.026855	1.069336	-33.670002	28.070000	-3.360000	566.00	-0.17	-0.08
2.42	0.00	0.00	0.00	0.00	0.00	0.00	0.75	0.00	0.00	5.00	6.00	4.00	0.00	0.00	0.00	4.25	-0.533691	0.573242	1.457031	86.309998	-527.940002	42.980000	192.00	0.23	-0.11	4.75	5.50	5.50	6.75	6.75	6.00	2.50	3.25	1.00	1.25	1.50	1.25	2.75	1.50	0.00	0.50	-0.123047	0.087891	1.004395	-16.170000	12.740000	-3.150000	556.00	-0.13	-0.09
2.43	0.00	0.00	0.00	0.00	0.00	0.00	1.00	0.00	0.00	4.75	5.75	3.75	0.00	0.00	0.00	4.25	-0.688477	0.411133	1.676758	99.750000	-505.679993	69.440002	188.00	0.23	-0.10	3.00	4.25	4.75	5.75	6.50	5.50	2.75	3.50	1.25	2.00	2.00	1.75	3.25	2.25	0.00	0.75	-0.229492	0.076660	0.981934	-8.890000	13.580000	-3.990000	540.00	-0.08	-0.09
2.44	0.00	0.00	0.00	0.00	0.00	0.00	1.00	0.00	0.00	4.75	5.75	3.75	0.00	0.00	0.00	4.25	-0.802246	0.303711	1.967773	104.370003	-487.970001	88.760002	188.00	0.23	-0.10	2.00	3.00	3.25	5.00	5.75	5.25	2.75	3.75	2.25	2.50	2.75	2.50	4.25	2.75	0.25	1.25	-0.207031	0.063965	0.984863	-3.710000	15.540000	-3.290000	539.00	-0.03	-0.10
2.45	0.00	0.00	0.00	0.00	0.00	0.00	1.00	0.00	0.00	4.75	5.75	3.75	0.00	0.00	0.00	4.25	-0.935547	0.231445	2.180176	105.910004	-475.860016	99.959999	188.00	0.23	-0.10	1.25	1.75	2.50	3.25	5.50	5.00	2.75	4.25	2.75	3.25	3.75	3.25	5.25	3.25	0.75	1.50	-0.164062	0.020508	1.015625	6.020000	25.270000	0.490000	546.00	0.03	-0.10
2.46	0.00	0.00	0.00	0.00	0.00	0.00	1.00	0.00	0.00	4.50	5.75	3.75	0.00	0.00	0.00	4.25	-1.058594	0.163086	2.257324	108.150002	-464.029999	102.760002	185.00	0.23	-0.10	0.75	1.00	1.50	2.00	4.75	4.00	2.75	4.50	3.75	4.00	6.25	4.00	5.50	4.25	0.75	2.25	-0.209961	0.056641	0.983398	11.970000	31.290001	0.910000	564.00	0.09	-0.09
2.47	0.00	0.00	0.00	0.00	0.00	0.00	0.75	0.00	0.00	4.50	5.75	3.75	0.00	0.00	0.00	4.25	-1.147949	0.098633	2.209961	113.400002	-443.589996	97.160004	181.00	0.23	-0.11	0.50	1.00	1.25	2.00	3.50	3.25	2.50	4.50	4.50	6.00	7.75	6.25	7.00	5.50	1.00	2.75	-0.216797	0.064453	0.984863	19.040001	37.380001	1.750000	632.00	0.12	-0.10
2.48	0.00	0.00	0.00	0.00	0.00	0.00	0.75	0.00	0.00	4.50	5.75	3.75	0.00	0.00	0.00	4.00	-1.246582	0.033203	2.888184	117.599998	-383.670013	69.580002	180.00	0.23	-0.11	0.00	0.25	0.75	1.00	2.75	3.25	2.50	4.75	5.25	7.50	8.75	8.00	8.00	6.75	1.25	3.50	-0.168457	0.029297	1.006348	26.110001	46.060001	4.620000	679.00	0.16	-0.10
2.49	0.00	0.00	0.00	0.00	0.00	0.00	0.75	0.00	0.00	4.25	5.50	3.50	0.00	0.00	0.00	4.00	-1.685547	0.257812	3.165527	111.930000	-363.440002	54.740002	172.00	0.23	-0.11	0.00	0.00	0.75	1.25	2.25	3.00	2.50	5.00	6.25	8.50	10.00	8.75	8.75	7.75	1.75	4.50	-0.205566	0.115723	1.024414	33.740002	60.480000	5.600000	746.00	0.17	-0.10
2.50	0.00	0.00	0.00	0.50	0.00	0.00	0.75	0.00	0.00	4.25	5.75	3.50	0.00	0.00	0.00	4.00	-2.282227	0.602051	3.218750	117.250000	-348.670013	50.750000	180.00	0.22	-0.11	0.00	0.00	0.50	0.75	1.50	2.25	2.25	5.00	7.00	9.25	11.00	10.00	9.50	9.25	2.25	5.50	-0.210449	0.089355	1.041504	39.200001	78.470001	1.680000	788.00	0.19	-0.10
2.51	0.00	0.00	0.00	0.00	0.00	0.00	0.75	0.00	0.00	4.50	5.75	3.50	0.00	0.00	0.00	3.75	-2.764648	0.841309	3.434570	151.479996	-338.730011	69.019997	176.00	0.23	-0.11	0.00	0.00	0.00	0.25	1.50	2.25	2.00	5.00	7.75	10.25	12.00	11.00	10.00	11.25	3.00	6.25	-0.223145	0.187500	1.055664	42.139999	97.790001	-5.110000	848.00	0.21	-0.09
2.52	0.00	0.00	0.00	0.00	0.00	0.00	0.75	0.00	0.00	4.25	5.50	3.50	0.00	0.00	0.00	4.00	-3.503906	0.833984	4.051758	186.479996	-350.630005	101.639999	172.00	0.23	-0.11	0.00	0.00	0.00	0.50	1.25	2.00	1.75	4.50	8.25	11.00	13.00	11.75	10.25	13.75	3.75	7.00	-0.249512	0.202637	1.118164	39.900002	121.309998	-14.140000	902.00	0.22	-0.09
2.53	0.00	0.00	0.00	0.00	0.00	0.00	0.75	0.00	0.00	4.25	5.50	3.75	0.00	0.00	0.00	4.00	-4.154297	0.601562	3.882812	183.399994	-392.980011	148.610001	175.00	0.23	-0.11	0.00	0.00	0.00	1.00	1.00	1.50	1.50	4.00	8.75	11.50	13.75	12.50	10.50	16.75	5.00	8.00	-0.244141	0.152832	1.145508	38.709999	150.850006	-18.760000	962.00	0.23	-0.08
2.54	0.00	0.00	0.00	0.00	0.00	0.00	0.75	0.00	0.00	4.25	5.50	3.75	0.00	0.00	0.00	4.25	-4.758789	0.328613	2.668945	143.710007	-429.380005	198.660004	176.00	0.23	-0.11	0.00	0.00	0.00	0.00	0.50	1.50	1.50	3.50	8.75	12.25	14.50	13.00	10.50	19.75	6.00	8.50	-0.304688	0.184570	1.253906	45.500000	186.339996	-21.490000	997.00	0.25	-0.07
2.55	0.00	0.00	0.00	0.00	0.00	0.00	0.75	0.00	0.00	4.25	5.50	3.50	0.00	0.00	0.00	4.25	-5.206543	-0.014648	1.117676	111.790001	-414.119995	246.259995	173.00	0.23	-0.11	0.00	0.00	0.00	0.00	0.50	1.00	1.00	2.75	9.00	12.25	14.75	13.25	10.00	22.75	7.00	9.00	-0.337402	0.162598	1.387695	39.340000	222.389999	-23.940001	1016.00	0.26	-0.06
2.56	0.00	0.00	0.00	0.00	0.00	0.00	0.75	0.00	0.00	4.00	5.50	3.75	0.00	0.00	0.00	4.25	-5.708496	-0.426758	-0.090820	91.279999	-350.839996	278.739990	173.00	0.23	-0.12	0.00	0.00	0.00	0.00	0.25	0.75	1.00	2.25	8.75	12.25	14.75	13.25	9.50	25.25	7.50	9.50	-0.426758	0.209473	1.216309	28.770000	264.670013	-27.860001	1025.00	0.27	-0.05
2.57	0.00	0.00	0.00	0.00	0.00	0.00	0.75	0.00	0.00	4.00	5.50	3.75	0.00	0.00	0.00	4.25	-6.314941	-0.824707	-0.670898	67.760002	-264.459991	278.880005	173.00	0.23	-0.12	0.00	0.00	0.00	0.00	0.00	0.75	0.75	1.25	8.50	12.25	14.75	13.00	8.75	27.50	8.25	9.75	-0.444336	0.132324	1.360352	19.600000	300.860016	-28.490000	1019.00	0.28	-0.04
2.58	0.00	0.00	0.00	0.00	0.00	0.00	1.00	0.00	0.00	4.25	5.50	3.50	0.00	0.00	0.00	4.25	-6.466309	-1.088379	-1.017578	21.629999	-174.300003	238.839996	177.00	0.23	-0.10	0.00	0.00	0.00	0.00	0.00	0.50	0.75	1.25	8.25	12.00	14.50	12.50	8.00	29.25	8.50	10.25	-0.542480	0.120605	1.402344	18.549999	327.809998	-28.070000	1016.00	0.29	-0.04
2.59	0.00	0.00	0.00	0.00	0.00	0.00	0.75	0.00	0.00	4.25	5.75	3.50	0.00	0.00	0.00	4.25	-6.256836	-1.239746	-0.953125	9.590000	-95.059998	177.520004	176.00	0.23	-0.11	0.00	0.00	0.00	0.00	0.00	0.50	0.75	0.75	7.75	11.75	14.00	12.00	7.00	30.50	8.75	10.50	-0.554199	0.176758	1.449219	16.030001	356.089996	-23.170000	995.00	0.29	-0.03
2.60	0.00	0.00	0.00	0.00	0.00	0.00	0.75	0.00	0.00	4.00	5.75	3.75	0.00	0.00	0.00	4.00	-6.057129	-1.505371	-0.604004	36.540001	-28.700001	112.419998	175.00	0.23	-0.12	0.00	0.00	0.00	0.00	0.00	0.00	0.75	0.50	7.50	11.25	13.25	11.50	6.00	31.25	8.75	10.25	-0.656250	0.163574	1.529297	17.010000	396.339996	-22.469999	960.00	0.30	-0.02
2.61	0.00	0.00	0.00	0.00	0.00	0.00	0.75	0.00	0.00	4.25	5.75	3.75	0.00	0.00	0.00	4.25	-5.317871	-1.522461	-0.387695	19.530001	31.780001	54.950001	179.00	0.23	-0.11	0.00	0.00	0.00	0.00	0.00	0.00	0.75	0.25	7.00	10.75	12.75	10.75	5.00	30.75	8.50	9.50	-0.627930	0.258301	1.616699	12.390000	442.679993	-24.360001	912.00	0.30	-0.01
2.62	0.00	0.00	0.00	0.00	0.00	0.00	0.75	0.00	0.00	4.00	5.75	4.00	0.00	0.00	0.00	4.25	-4.493652	-0.832031	0.113281	-32.619999	87.919998	25.129999	179.00	0.23	-0.12	0.00	0.00	0.00	0.00	0.00	0.00	0.75	0.25	6.00	10.25	11.75	9.75	4.50	29.00	7.75	8.25	-0.804688	0.505859	1.719238	12.390000	494.760010	-35.139999	839.00	0.30	-0.01
2.63	2.00	2.75	0.75	0.75	0.00	0.00	0.75	0.00	0.00	3.75	5.50	3.75	0.00	0.00	0.00	4.00	-4.698242	-0.311035	2.120605	-34.230000	229.180008	8.190000	232.00	0.07	-0.10	0.00	0.00	0.00	0.00	0.00	0.00	0.75	0.25	5.25	9.00	10.25	8.75	3.00	26.75	6.75	7.00	-1.042969	0.635742	2.112793	30.730000	556.640015	-50.189999	740.00	0.30	-0.00
2.64	10.25	15.00	2.75	4.25	0.00	0.00	0.50	0.00	0.00	3.75	5.75	4.00	0.00	0.00	0.00	4.00	0.380859	-0.628418	-0.039551	-100.379997	270.059998	-26.460001	492.00	-0.17	-0.08	0.00	0.00	0.00	0.00	0.00	0.25	0.75	0.00	4.25	7.50	8.00	6.75	2.00	22.50	5.00	5.25	-1.552246	0.811035	3.141113	38.639999	609.909973	-68.320000	593.00	0.31	0.01
2.65	20.75	25.75	6.50	7.75	0.00	0.00	0.50	0.00	0.00	3.50	5.50	3.75	0.00	0.00	0.00	4.25	-0.187012	0.775391	0.610352	-57.750000	353.220001	-13.930000	774.00	-0.25	-0.06	0.00	0.00	0.00	0.00	0.00	0.00	1.00	0.00	3.25	4.25	5.00	4.00	1.75	16.75	2.50	3.00	-1.872559	0.720703	4.586426	93.590004	659.609985	-96.459999	397.00	0.31	0.03
2.66	26.00	29.25	8.75	10.25	0.25	0.75	0.50	0.00	0.00	4.00	5.75	4.25	0.25	0.00	0.00	4.25	-1.860352	-0.664551	3.894043	-20.650000	513.450012	-9.100000	939.00	-0.25	-0.06	0.00	0.00	0.00	0.00	0.00	0.25	1.00	0.00	1.50	2.50	2.50	2.25	1.25	10.50	1.50	1.25	-1.214355	0.991211	4.794922	119.910004	663.880005	-110.040001	236.00	0.30	0.03
2.67	26.75	31.00	10.75	13.00	0.75	1.50	0.75	0.00	0.00	3.75	5.75	4.25	0.00	0.00	0.00	4.25	-1.631836	-1.027832	5.226562	7.980000	461.790009	-18.969999	1028.00	-0.26	-0.06	0.00	0.00	0.00	0.00	0.00	0.00	1.00	0.00	0.75	1.50	2.00	1.50	0.50	5.75	0.50	0.50	-0.057617	1.025879	5.089355	149.029999	679.280029	-123.270004	139.00	0.29	0.04
2.68	25.25	30.25	12.00	14.50	1.50	3.25	1.00	0.00	0.00	4.00	6.00	4.25	0.00	0.00	0.00	4.25	-1.018066	0.217285	3.358887	8.260000	376.250000	-67.690002	1072.00	-0.25	-0.07	0.00	0.00	0.00	1.00	0.00	0.50	1.25	0.00	0.50	0.75	1.25	1.00	0.50	1.50	0.00	0.00	2.385742	0.746582	4.469727	188.020004	653.239990	-166.529999	90.00	0.14	-0.02
2.69	25.00	28.75	13.00	15.75	2.25	5.75	1.00	0.25	0.00	3.75	6.00	4.25	0.00	0.00	0.00	4.25	-0.585449	0.317383	2.005371	-16.240000	257.320007	-9.730000	1117.00	-0.24	-0.07	0.25	0.00	0.00	0.25	0.00	0.00	1.50	0.00	0.50	1.25	0.75	0.50	0.00	0.75	0.00	0.00	1.825684	1.030273	5.580566	168.000000	453.250000	-250.040009	67.00	0.15	0.10
2.70	24.25	27.75	14.00	16.25	3.00	7.00	1.00	0.50	0.00	4.00	6.00	4.50	0.25	0.00	0.00	4.25	-0.424316	-0.180176	1.669434	-31.219999	194.740005	-9.660000	1150.00	-0.24	-0.07	0.25	0.00	0.00	0.00	0.00	0.25	1.50	0.00	0.50	1.00	0.75	0.00	0.00	0.50	0.00	0.00	1.473145	1.781738	8.106934	108.849998	27.580000	-243.880005	57.00	0.14	0.13
2.71	23.50	27.25	14.75	16.75	5.25	7.75	1.25	0.75	0.00	4.00	6.00	4.50	0.25	0.00	0.00	4.25	-0.449707	0.296387	1.442871	-38.150002	129.080002	-17.920000	1192.00	-0.23	-0.07	0.00	0.00	0.00	0.50	0.00	0.25	1.50	0.00	0.25	1.00	0.25	0.00	0.00	0.75	0.00	0.00	1.959473	1.263184	4.102539	49.420002	-259.839996	-186.759995	54.00	0.12	0.11
2.72	23.25	26.75	15.00	16.50	5.75	8.00	1.25	1.00	0.00	4.00	6.00	4.50	0.25	0.00	0.00	4.25	-0.362793	0.249512	1.290527	-53.900002	87.430000	-8.820000	1197.00	-0.23	-0.07	0.00	0.00	0.00	0.00	0.00	0.00	1.75	0.00	0.25	0.75	0.00	0.00	0.00	0.50	0.00	0.00	0.791016	1.346680	2.655762	-39.200001	-345.380005	-121.379997	42.00	0.00	0.00
2.73	22.75	26.00	14.75	16.00	6.25	8.00	1.25	1.00	0.00	4.25	6.00	4.25	0.25	0.00	0.00	4.25	-0.249023	-0.055176	1.177246	-52.990002	60.200001	-4.690000	1182.00	-0.23	-0.07	0.00	0.00	0.00	0.00	0.00	0.25	1.75	0.00	0.25	0.50	0.25	0.00	0.00	0.50	0.00	0.00	0.992188	1.582520	2.422852	-73.779999	-343.910004	-67.830002	45.00	0.00	0.00
2.74	22.50	25.25	14.50	16.25	6.50	8.00	1.25	1.00	0.00	4.25	6.25	4.25	0.25	0.00	0.00	4.25	-0.245605	0.077637	1.131836	-39.549999	42.279999	-6.860000	1178.00	-0.22	-0.07	0.00	0.00	0.00	0.00	0.00	0.25	1.75	0.00	0.00	0.50	0.00	0.00	0.00	0.50	0.00	0.00	1.150391	1.435059	2.391602	-62.510002	-363.579987	-36.820000	39.00	0.00	0.00
2.75	21.00	24.50	14.25	15.25	6.50	7.75	1.25	1.00	0.00	4.25	6.25	4.00	0.00	0.00	0.00	4.25	-0.176758	0.109375	0.991211	-26.600000	31.990000	-4.270000	1134.00	-0.22	-0.07	0.00	0.00	0.00	0.00	0.00	0.00	1.75	0.00	0.00	0.25	0.00	0.00	0.00	0.25	0.00	0.00	0.915039	1.168945	2.369629	-22.750000	-418.739990	-27.160000	31.00	0.00	0.00
2.76	19.75	23.00	13.50	14.75	6.50	7.50	1.50	1.00	0.00	4.50	6.00	4.25	0.25	0.00	0.00	4.25	-0.143066	0.043945	0.936523	-16.730000	32.619999	-2.240000	1099.00	-0.21	-0.07	0.00	0.00	0.00	0.00	0.00	0.25	1.75	0.00	0.00	0.25	0.00	0.00	0.00	0.25	0.00	0.00	0.621582	0.792480	2.083496	28.070000	-477.119995	-27.790001	34.00	0.00	0.00
2.77	18.00	21.00	12.50	13.25	6.00	7.25	1.50	1.00	0.00	4.50	6.25	4.25	0.00	0.00	0.00	4.25	-0.148926	0.070312	0.998535	-6.160000	34.439999	-3.500000	1028.00	-0.20	-0.07	0.00	0.00	0.25	0.00	0.00	0.25	1.75	0.25	0.00	0.25	0.00	0.00	0.00	0.25	0.00	0.00	0.321777	0.477539	1.912598	66.430000	-517.859985	-32.970001	41.00	0.00	0.00
2.78	15.00	18.25	11.50	11.75	5.75	7.00	1.50	1.00	0.00	4.25	6.25	4.25	0.00	0.50	0.00	4.25	-0.105469	0.097168	0.869141	-3.360000	34.720001	-5.600000	940.00	-0.19	-0.07	0.00	0.00	0.00	0.00	0.00	0.25	1.75	0.00	0.00	0.00	0.00	0.00	0.00	0.00	0.00	0.00	0.038574	0.233398	1.833496	85.889999	-544.739990	-38.779999	29.00	0.00	0.00
2.79	12.50	15.25	9.75	10.50	5.50	6.75	1.50	1.25	0.00	4.75	6.25	4.25	0.25	0.00	0.00	4.25	-0.065430	0.102539	0.816406	-10.920000	46.410000	-7.700000	854.00	-0.17	-0.08	0.00	0.00	0.00	0.00	0.00	0.25	1.75	0.00	0.00	0.00	0.00	0.00	0.00	0.00	0.00	0.00	-0.189941	0.070312	1.668457	87.570000	-560.700012	-44.240002	29.00	0.00	0.00
2.80	9.75	12.00	9.00	9.00	5.00	6.00	1.50	1.25	0.00	4.50	6.50	4.25	0.25	0.00	0.00	4.25	-0.174316	0.092773	0.962402	-23.660000	57.889999	-8.470000	758.00	-0.15	-0.08	0.00	0.00	0.00	0.00	0.00	0.25	1.75	0.00	0.00	0.00	0.00	0.00	0.00	0.00	0.00	0.00	-0.392090	-0.037109	1.424805	87.080002	-564.130005	-48.369999	29.00	0.00	0.00
2.81	7.50	9.00	7.75	8.00	4.75	5.75	1.25	1.50	0.00	4.75	6.75	4.50	0.25	0.25	0.00	4.25	-0.239746	0.077637	1.041504	-26.040001	42.139999	-7.140000	686.00	-0.12	-0.09	0.00	0.00	0.00	0.00	0.00	0.25	1.75	0.00	0.00	0.00	0.00	0.00	0.00	0.00	0.00	0.00	-0.553711	-0.058105	1.222656	89.879997	-549.849976	-50.189999	29.00	0.00	0.00
2.82	6.00	7.00	6.50	7.00	4.25	5.75	1.50	1.75	0.00	5.50	7.00	4.50	0.75	0.50	0.00	4.50	-0.171387	0.104980	0.931641	-26.040001	30.799999	-5.460000	648.00	-0.09	-0.10	0.00	0.00	0.00	0.00	0.00	0.00	1.75	0.00	0.00	0.00	0.00	0.00	0.00	0.00	0.00	0.00	-0.629395	-0.020020	1.217773	94.220001	-520.799988	-50.540001	27.00	0.00	0.00
2.83	5.00	5.25	5.75	6.00	4.25	5.00	1.50	2.00	0.00	5.75	7.25	5.00	0.75	0.75	0.00	4.50	-0.039551	0.118164	0.970215	-28.980000	24.290001	-4.830000	610.00	-0.06	-0.10	0.00	0.00	0.00	1.00	0.00	0.00	1.50	0.00	0.00	0.00	0.00	0.00	0.00	0.00	0.00	0.00	-0.619141	0.077148	1.431641	98.699997	-488.600006	-48.230000	34.00	0.00	0.00
2.84	3.00	3.50	5.00	5.00	3.50	4.75	1.50	2.00	0.50	6.25	7.50	5.25	1.50	1.00	0.00	4.75	-0.246582	0.034668	0.972168	-25.760000	20.580000	-5.250000	570.00	-0.01	-0.10	0.00	0.00	0.00	0.00	0.00	0.00	1.75	0.00	0.00	0.00	0.00	0.00	0.00	0.00	0.00	0.00	-0.631836	0.196289	1.746094	105.489998	-465.429993	-40.880001	27.00	0.00	0.00
2.85	1.75	2.00	3.75	3.75	3.25	4.00	1.75	2.25	1.00	6.75	7.75	5.25	1.75	1.50	0.00	5.00	-0.189453	0.038086	0.947266	-19.389999	20.020000	-5.670000	535.00	0.04	-0.10	0.00	0.00	0.00	0.00	0.00	0.25	1.75	0.00	0.00	0.00	0.00	0.00	0.00	0.00	0.00	0.00	-0.703125	0.327637	2.184570	130.270004	-443.940002	-15.330000	29.00	0.00	0.00
2.86	0.75	1.50	3.25	2.75	3.00	3.25	1.75	2.25	1.50	7.00	8.00	5.75	2.00	2.25	0.25	5.00	-0.255371	0.070312	0.993652	-12.600000	21.210001	-5.950000	520.00	0.08	-0.10	0.00	0.00	0.00	0.00	0.00	0.75	1.75	0.00	0.00	0.00	0.00	0.00	0.00	0.00	0.00	0.00	-0.707031	0.317871	2.315918	143.500000	-430.570007	-2.800000	35.00	0.00	0.00
2.87	0.25	0.25	2.50	2.25	2.50	3.00	2.00	2.25	2.00	7.50	8.25	6.50	2.25	3.00	0.25	5.25	-0.257324	0.059570	0.943359	-6.790000	22.540001	-6.090000	518.00	0.12	-0.09	0.00	0.00	0.00	0.00	0.00	0.00	1.75	0.00	0.00	0.00	0.00	0.00	0.00	0.00	0.00	0.00	-0.732910	0.229004	2.597656	158.550003	-410.970001	3.920000	27.00	0.00	0.00
2.88	0.00	0.25	1.75	1.75	2.00	2.75	1.75	2.50	2.50	7.75	8.75	6.75	3.00	3.75	0.50	5.25	-0.230469	0.048340	0.953613	-2.310000	24.080000	-6.160000	526.00	0.14	-0.10	0.00	0.00	0.00	0.00	0.00	0.00	1.75	0.00	0.00	0.00	0.00	0.00	0.00	0.00	0.00	0.00	-0.827148	0.120605	2.948730	183.259995	-390.040009	1.540000	27.00	0.00	0.00
2.89	0.25	0.00	1.50	1.75	1.50	2.50	1.75	2.75	3.25	8.25	9.50	7.50	3.75	5.00	0.75	5.50	-0.203125	0.055664	0.927246	3.430000	25.549999	-6.230000	571.00	0.16	-0.09	0.00	0.00	0.00	0.00	0.00	0.00	1.75	0.00	0.00	0.00	0.00	0.00	0.00	0.00	0.00	0.00	-1.064941	-0.059082	3.491211	204.750000	-371.209991	-5.530000	27.00	0.00	0.00
2.90	0.00	0.00	1.25	1.00	1.50	2.25	1.75	3.00	3.75	8.50	10.50	8.25	5.25	6.25	1.00	5.50	-0.186035	0.057617	0.951172	12.600000	32.060001	-8.610000	612.00	0.18	-0.10	0.00	0.00	0.00	0.00	0.00	0.25	1.75	0.00	0.00	0.00	0.00	0.00	0.00	0.00	0.00	0.00	-1.510254	-0.232910	3.922852	196.839996	-360.850006	-4.410000	29.00	0.00	0.00
2.91	0.00	0.00	1.00	1.00	1.25	2.25	1.75	3.75	5.00	9.25	11.50	9.00	6.25	7.75	1.00	6.00	-0.224121	0.095703	0.969727	16.240000	37.730000	-11.480000	684.00	0.19	-0.10	0.00	0.00	0.00	0.00	0.00	0.25	1.75	0.00	0.00	0.00	0.00	0.00	0.00	0.00	0.00	0.00	-2.249512	-0.099609	4.307617	166.669998	-364.279999	14.490000	29.00	0.00	0.00
2.92	0.00	0.00	1.00	1.00	1.00	1.75	1.50	4.25	5.75	9.75	12.50	10.25	7.00	9.00	1.50	6.25	-0.246582	0.089844	0.946289	20.719999	45.920002	-15.960000	743.00	0.20	-0.10	0.00	0.00	0.00	0.50	0.00	0.00	1.75	0.00	0.00	0.00	0.00	0.00	0.00	0.00	0.00	0.00	-3.052246	0.211426	4.458984	156.380005	-388.220001	52.009998	32.00	0.00	0.00
2.93	0.00	0.00	0.50	0.75	0.75	2.00	1.50	4.75	7.50	10.50	13.75	11.00	7.50	10.75	1.75	6.50	-0.252441	0.099609	0.980957	25.200001	55.790001	-20.370001	817.00	0.21	-0.09	0.00	0.00	0.00	0.00	0.00	0.25	1.75	0.00	0.00	0.00	0.00	0.00	0.00	0.00	0.00	0.00	-3.574219	0.307617	3.650391	189.630005	-426.019989	118.790001	29.00	0.00	0.00
2.94	0.00	0.00	0.25	0.50	0.50	1.75	1.25	4.75	8.25	11.25	15.00	12.75	8.25	13.00	2.25	7.00	-0.261719	0.183594	1.000977	33.740002	65.730003	-24.500000	885.00	0.22	-0.09	0.00	0.00	0.00	0.00	0.00	0.00	1.75	0.00	0.00	0.00	0.00	0.00	0.00	0.00	0.00	0.00	-4.641602	-0.084961	2.713379	232.889999	-443.309998	211.190002	27.00	0.00	0.00
2.95	0.00	0.00	0.25	0.75	0.50	1.25	1.00	4.50	9.00	12.00	16.00	13.75	8.50	15.25	3.00	7.50	-0.311523	0.085449	1.041992	49.490002	77.209999	-27.930000	945.00	0.23	-0.08	0.00	0.00	0.00	0.25	0.00	0.25	1.75	0.00	0.00	0.00	0.00	0.00	0.00	0.00	0.00	0.00	-5.715820	-0.341797	1.342773	206.289993	-415.450012	298.269989	32.00	0.00	0.00
2.96	0.00	0.00	0.25	0.50	0.25	1.50	1.00	4.50	9.50	12.50	17.25	15.00	8.75	17.50	4.50	8.25	-0.303711	0.097656	1.104004	50.259998	105.489998	-24.570000	1022.00	0.24	-0.08	0.00	0.00	0.00	0.00	0.00	0.25	1.75	0.00	0.00	0.00	0.00	0.00	0.00	0.00	0.00	0.00	-6.431641	-0.752441	-0.264160	148.610001	-346.640015	365.119995	29.00	0.00	0.00
2.97	0.00	0.00	0.00	0.25	0.00	1.50	0.50	4.25	10.00	13.25	18.25	16.00	9.00	20.25	5.50	8.75	-0.308105	0.149414	1.106934	59.920002	136.080002	-22.820000	1076.00	0.25	-0.08	0.00	0.00	0.00	0.00	0.00	0.25	1.75	0.00	0.00	0.00	0.00	0.00	0.00	0.00	0.00	0.00	-7.081543	-1.376953	-1.072754	128.800003	-256.269989	390.250000	29.00	0.00	0.00
2.98	0.00	0.00	0.00	0.25	0.00	1.50	0.25	3.25	10.25	13.50	19.00	16.50	9.00	22.25	6.25	9.50	-0.381836	0.093262	1.162598	68.389999	174.509995	-20.440001	1105.00	0.26	-0.07	0.00	0.00	0.50	0.00	0.00	0.25	1.75	0.00	0.00	0.00	0.00	0.00	0.00	0.00	0.00	0.00	-7.174805	-1.914551	-1.059082	108.779999	-151.130005	343.140015	35.00	0.00	0.00
2.99	0.00	0.00	0.00	0.00	0.00	0.75	0.25	2.75	10.25	13.75	19.50	17.00	8.25	24.00	7.00	9.75	-0.403809	0.087891	1.262695	51.520000	217.979996	-16.799999	1117.00	0.27	-0.06	0.00	0.00	0.00	0.00	0.00	0.00	1.75	0.00	0.00	0.00	0.00	0.00	0.00	0.00	0.00	0.00	-6.687988	-2.165527	-0.616211	85.820000	-58.170002	253.050003	27.00	0.00	0.00
3.00	0.00	0.00	0.00	0.00	0.00	0.50	0.00	1.75	10.00	13.75	19.75	17.00	8.00	25.75	7.50	10.50	-0.455566	0.180664	1.159180	37.590000	256.339996	-15.890000	1117.00	0.27	-0.05	0.00	0.00	0.00	0.00	0.00	0.00	1.75	0.00	0.00	0.00	0.00	0.00	0.00	0.00	0.00	0.00	-5.904785	-2.268066	0.096191	73.220001	13.720000	178.919998	27.00	0.00	0.00
3.01	0.00	0.00	0.00	0.00	0.00	0.50	0.00	1.00	10.00	13.75	19.50	16.75	7.25	27.00	8.00	11.00	-0.486816	0.149414	1.237793	31.010000	296.309998	-17.430000	1113.00	0.28	-0.05	0.25	0.25	0.00	0.00	0.25	0.00	1.75	0.00	0.00	0.00	0.00	0.00	0.00	0.00	0.00	0.00	-5.193359	-1.968750	0.499023	21.420000	64.610001	137.410004	34.00	0.00	0.00
3.02	0.00	0.00	0.00	0.00	0.00	0.00	0.00	0.25	9.75	13.50	19.50	16.50	6.50	28.25	8.50	10.75	-0.551270	0.081055	1.319336	27.299999	335.369995	-16.520000	1095.00	0.29	-0.04	1.00	1.75	0.50	0.75	0.25	0.00	1.50	0.00	0.00	0.00	0.00	0.00	0.00	0.00	0.00	0.00	-4.485840	-1.246582	0.946289	-35.349998	99.330002	109.830002	66.00	-0.20	0.04
3.03	0.00	0.00	0.00	0.00	0.00	0.00	0.00	0.25	9.25	13.25	19.00	16.00	5.50	28.75	8.50	10.75	-0.583496	0.202148	1.410156	26.600000	374.850006	-15.610000	1071.00	0.29	-0.03	6.75	8.25	1.50	3.25	0.25	0.00	1.50	0.00	0.00	0.00	0.00	0.00	0.00	0.00	0.00	0.00	2.835449	-1.000977	4.345215	-16.730000	304.920013	68.599998	224.00	-0.33	-0.03
3.04	0.00	0.00	0.00	0.00	0.00	0.00	0.00	0.00	8.75	13.25	18.50	15.00	4.25	29.00	8.50	10.50	-0.659668	0.318848	1.396973	26.250000	425.250000	-23.730000	1035.00	0.29	-0.03	16.50	16.50	4.00	5.75	0.25	0.00	1.75	0.00	0.00	0.00	0.00	0.00	0.00	0.00	0.00	0.00	1.060059	-1.498535	2.742188	-191.520004	304.989990	-21.490000	460.00	-0.35	-0.02
3.05	0.00	0.00	0.00	0.00	0.00	0.00	0.00	0.00	8.75	13.25	18.25	14.00	3.00	28.25	8.25	9.75	-0.671387	0.456543	1.370605	10.990000	490.350006	-45.220001	998.00	0.30	-0.02	23.00	21.00	7.50	8.50	0.75	0.25	1.50	0.00	0.00	0.00	0.00	0.00	0.00	0.00	0.00	0.00	-1.764648	0.985840	5.148438	-108.639999	484.959991	8.820000	642.00	-0.35	-0.02
3.06	0.00	0.00	0.00	0.00	0.00	0.00	0.00	0.00	8.00	12.75	17.25	12.75	1.75	26.50	7.25	8.75	-0.711914	0.568359	1.537598	-7.140000	558.809998	-74.690002	917.00	0.30	-0.01	25.75	23.25	9.25	10.00	1.25	1.25	1.50	0.00	0.00	0.00	0.00	0.00	0.00	0.00	0.00	0.00	-1.039062	-1.840820	3.952148	-41.509998	411.250000	21.840000	743.00	-0.35	-0.03
3.07	0.00	0.00	0.00	0.00	0.00	0.00	0.00	0.00	6.75	11.50	14.75	10.75	0.50	24.00	5.50	7.25	-1.443848	0.831055	2.379395	2.450000	628.390015	-96.669998	782.00	0.30	-0.00	26.00	23.50	10.50	11.50	2.00	2.25	1.75	0.00	0.00	0.00	0.00	0.00	0.00	0.25	0.00	0.00	-0.794922	-0.562012	3.081055	-6.440000	354.200012	-40.180000	804.00	-0.34	-0.03
3.08	0.00	0.00	0.00	0.00	0.00	0.00	0.25	0.00	4.75	9.50	11.75	8.50	0.00	20.50	3.50	5.75	-2.445312	0.936035	3.625488	46.689999	684.039978	-104.650002	620.00	0.30	0.00	25.25	23.00	11.25	12.50	4.00	3.50	1.75	0.25	0.00	0.00	0.00	0.00	0.25	0.25	0.00	0.00	-0.541016	1.144531	2.807617	19.740000	285.950012	-53.970001	852.00	-0.32	-0.03
3.09	0.00	0.00	0.00	0.00	0.00	0.00	0.25	0.00	2.75	8.00	9.00	6.75	0.00	15.00	1.00	5.00	-3.018555	0.834961	4.961426	106.260002	710.080017	-101.220001	454.00	0.29	-0.01	24.50	22.50	11.75	13.00	5.25	5.00	2.00	0.50	0.00	0.00	0.00	0.00	0.75	0.25	0.00	0.00	-0.373047	0.622070	1.881836	2.520000	219.169998	-14.420000	893.00	-0.31	-0.04
3.10	0.00	0.00	0.00	0.00	0.00	0.00	0.50	0.00	1.50	7.25	8.00	5.75	0.00	10.00	0.25	4.50	-2.376953	0.562988	5.388672	163.309998	695.659973	-96.599998	359.00	0.28	-0.02	24.00	21.50	12.25	13.50	6.25	6.25	2.00	1.25	0.00	0.00	0.00	0.00	0.75	0.50	0.00	0.00	-0.400879	-0.292969	1.931152	-7.140000	166.669998	0.350000	928.00	-0.30	-0.05
3.11	0.00	0.00	0.00	0.00	0.00	0.00	0.50	0.00	0.75	6.50	7.50	5.50	0.00	5.25	0.00	4.25	1.175293	0.553223	5.387207	220.290009	647.849976	-129.289993	290.00	0.26	-0.06	23.00	21.25	12.25	13.50	6.75	7.50	2.00	1.25	0.00	0.00	0.00	0.25	0.75	0.50	0.00	0.00	-0.353516	0.192383	1.727539	-5.600000	112.559998	-11.760000	937.00	-0.29	-0.05
3.12	0.00	0.00	0.00	0.00	0.00	0.00	0.75	0.00	0.25	6.00	6.75	5.00	0.00	1.75	0.00	4.50	5.125977	-0.062500	4.339355	178.710007	544.179993	-180.460007	240.00	0.24	-0.09	23.00	21.00	12.50	13.50	7.50	7.75	2.00	1.50	0.00	0.00	0.00	0.00	1.00	0.50	0.00	0.00	-0.246094	0.392578	1.329102	-11.620000	73.360001	-2.030000	952.00	-0.29	-0.05
3.13	0.00	0.00	0.25	0.00	0.00	0.00	0.75	0.00	0.00	6.00	6.75	5.00	0.00	1.00	0.00	4.25	0.085938	2.379395	8.704590	86.379997	242.270004	-232.680008	232.00	0.23	-0.10	22.25	20.50	12.25	13.50	7.50	8.00	2.25	1.25	0.00	0.00	0.00	0.00	0.50	0.00	0.00	0.00	-0.220703	-0.071289	1.351562	-17.639999	48.650002	5.110000	931.00	-0.29	-0.05
3.14	0.00	0.00	0.00	0.00	0.00	0.00	0.75	0.00	0.25	5.75	6.75	4.75	0.00	0.50	0.00	4.50	2.308594	0.624023	5.515625	56.000000	-119.209999	-191.100006	224.00	0.24	-0.10	22.00	20.25	12.25	13.25	7.50	7.75	2.25	1.25	0.00	0.00	0.00	0.00	1.00	0.75	0.00	0.00	-0.169434	0.006836	1.191406	-6.370000	24.710001	-0.070000	931.00	-0.28	-0.05
3.15	0.00	0.00	0.00	0.00	0.00	0.00	0.75	0.00	0.00	5.75	6.25	4.75	0.00	0.50	0.00	4.50	1.494629	0.202148	3.091797	-33.180000	-267.890015	-165.479996	216.00	0.24	-0.11	20.75	19.50	11.75	13.00	7.25	7.75	2.25	1.25	0.00	0.00	0.00	0.00	0.75	0.50	0.00	0.00	-0.099121	0.112793	0.898926	2.800000	16.799999	-0.910000	896.00	-0.28	-0.05
3.16	0.00	0.25	0.00	0.50	0.00	0.25	1.00	0.00	0.00	5.50	6.25	4.50	0.00	0.75	0.00	4.25	0.958496	1.038574	2.791016	-120.610001	-279.369995	-158.899994	225.00	0.21	-0.10	19.75	18.50	11.25	12.50	7.00	7.50	2.00	1.25	0.00	0.00	0.00	0.00	0.50	0.50	0.00	0.00	-0.059570	0.107910	1.008789	2.450000	21.840000	-0.280000	854.00	-0.29	-0.05
3.17	0.00	0.00	0.00	0.00	0.00	0.00	0.75	0.00	0.00	5.00	6.25	4.50	0.00	0.00	0.00	4.25	1.375000	1.580078	2.845215	-111.580002	-306.110016	-144.690002	200.00	0.23	-0.11	18.25	17.50	10.75	12.00	7.00	7.25	2.25	1.25	0.00	0.00	0.00	0.00	0.50	0.50	0.00	0.00	-0.082031	0.073730	0.992676	1.120000	22.820000	-2.030000	819.00	-0.28	-0.05
3.18	0.00	0.00	0.00	0.00	0.00	0.00	0.75	0.00	0.00	5.25	6.25	4.25	0.00	0.25	0.00	4.25	1.101074	1.290527	2.449707	-48.369999	-378.559998	-130.339996	202.00	0.23	-0.11	17.00	16.25	10.25	11.25	6.50	6.75	2.25	1.25	0.00	0.00	0.00	0.00	0.50	0.50	0.00	0.00	0.000488	0.112793	0.884766	-1.330000	23.170000	-4.620000	770.00	-0.28	-0.05
3.19	0.00	0.00	0.00	0.00	0.00	0.00	0.75	0.00	0.00	5.25	6.00	4.25	0.00	0.00	0.00	4.25	0.786621	0.886230	1.876465	4.340000	-433.790009	-117.949997	197.00	0.23	-0.11	15.25	14.75	9.75	10.75	6.50	6.50	2.00	1.25	0.00	0.00	0.00	0.00	0.50	0.25	0.00	0.00	0.085938	0.144043	0.838379	-7.560000	34.509998	-6.650000	718.00	-0.28	-0.05
3.20	0.00	0.00	0.00	0.00	0.00	0.00	1.00	0.00	0.00	5.00	6.00	4.50	0.00	0.00	0.00	4.25	0.613281	0.684570	1.712402	14.700000	-466.130005	-103.250000	201.00	0.23	-0.11	13.00	13.00	9.00	10.00	6.25	6.50	2.25	1.50	0.00	0.00	0.00	0.00	0.75	0.25	0.00	0.00	-0.006348	0.116211	0.781250	-14.910000	52.639999	-7.490000	669.00	-0.26	-0.06
3.21	0.00	0.00	0.00	0.00	0.00	0.00	1.00	0.00	0.00	5.00	6.00	4.25	0.00	0.00	0.00	4.25	0.349121	0.730469	1.776855	4.970000	-498.190002	-84.139999	198.00	0.23	-0.10	11.00	11.25	8.50	9.25	6.25	6.25	2.25	1.50	0.00	0.00	0.00	0.00	0.75	0.50	0.00	0.00	-0.098633	0.098145	0.936523	-22.469999	67.059998	-5.530000	618.00	-0.25	-0.06
3.22	0.00	0.00	0.75	0.00	0.00	0.00	1.00	0.00	0.00	5.00	5.75	3.75	0.00	0.00	0.00	4.25	0.041504	0.726562	1.541016	9.730000	-525.909973	-60.340000	199.00	0.21	-0.09	9.25	9.50	7.75	8.50	6.25	6.25	2.25	1.50	0.00	0.25	0.25	0.50	1.00	0.50	0.00	0.00	-0.126953	0.103027	1.027832	-29.610001	67.340004	-2.870000	580.00	-0.23	-0.06
3.23	0.00	0.00	0.00	0.00	0.00	0.00	1.00	0.00	0.00	5.00	6.25	4.25	0.00	0.00	0.00	4.00	-0.240234	0.658203	1.205566	32.060001	-532.770020	-34.790001	199.00	0.23	-0.10	7.50	8.25	7.00	8.00	6.25	5.75	2.25	2.00	0.25	0.50	0.50	0.50	1.50	1.25	0.00	0.00	-0.177246	0.071289	1.191406	-39.270000	52.570000	-1.330000	558.00	-0.20	-0.07
3.24	0.00	0.00	0.00	0.00	0.00	0.00	0.75	0.00	0.00	5.00	6.00	4.00	0.00	0.00	0.00	4.00	-0.446777	0.546875	1.020020	60.760002	-516.250000	-8.890000	190.00	0.23	-0.11	5.75	6.75	6.00	7.25	6.00	5.50	2.50	2.25	0.50	1.00	0.75	0.75	1.75	1.25	0.00	0.00	-0.101562	0.067871	1.024414	-14.630000	11.480000	-2.940000	524.00	-0.17	-0.07
3.25	0.00	0.00	0.00	0.00	0.00	0.00	0.75	0.00	0.00	5.00	5.75	4.00	0.00	0.00	0.00	4.00	-0.565918	0.435547	1.085449	85.470001	-486.010010	14.490000	188.00	0.23	-0.11	4.25	5.50	5.25	6.25	5.75	5.25	2.50	2.00	0.75	1.50	1.50	1.00	2.50	1.50	0.00	0.25	-0.140137	0.073730	0.970215	-8.820000	11.410000	-4.130000	498.00	-0.13	-0.08
3.26	0.00	0.00	0.00	0.25	0.00	0.00	0.75	0.00	0.00	4.75	6.25	4.25	0.00	0.00	0.00	4.25	-0.649414	0.307129	1.360352	103.389999	-457.170013	34.509998	197.00	0.23	-0.12	2.75	3.75	4.00	5.25	5.50	4.25	2.50	2.50	1.25	2.00	1.75	1.75	2.75	2.25	0.00	0.50	-0.167480	0.062500	1.010742	-4.410000	11.970000	-3.990000	467.00	-0.08	-0.08
3.27	0.00	0.00	0.00	0.00	0.00	0.00	0.75	0.00	0.00	4.75	5.75	3.75	0.00	0.00	0.00	4.25	-0.696777	0.190430	1.661133	111.790001	-436.869995	50.400002	184.00	0.23	-0.11	1.75	2.25	2.50	3.50	5.25	3.75	2.50	2.75	2.25	2.25	2.50	2.00	3.50	2.75	0.25	0.75	-0.220215	0.050781	1.001465	-1.540000	15.330000	-4.200000	444.00	-0.01	-0.08
3.28	0.00	0.00	0.00	0.00	0.00	0.00	0.75	0.00	0.00	5.00	6.00	3.75	0.00	0.00	0.00	4.25	-0.717285	0.181152	1.903320	109.129997	-424.480011	62.020000	189.00	0.23	-0.11	1.50	1.00	2.50	2.00	4.75	3.00	2.50	2.50	2.25	2.75	3.25	2.75	4.25	3.25	0.25	1.25	-0.152344	0.035645	1.000977	2.100000	21.420000	-3.710000	430.00	0.04	-0.07
3.29	0.00	0.00	0.00	0.00	0.00	0.00	0.75	0.00	0.00	4.75	5.75	3.75	0.00	0.00	0.00	4.25	-0.776855	0.199219	2.026367	107.309998	-414.610016	68.320000	184.00	0.23	-0.11	0.75	0.75	1.25	1.75	3.75	2.25	2.50	2.75	3.25	3.75	4.25	3.25	5.25	4.50	0.75	1.75	-0.144531	0.051758	1.027832	6.370000	27.580000	-3.080000	455.00	0.10	-0.07
3.30	0.00	0.00	0.00	0.00	0.00	0.00	0.75	0.00	0.00	4.75	5.75	3.50	0.00	0.00	0.00	4.25	-0.842773	0.184082	2.067383	114.940002	-402.640015	69.580002	181.00	0.23	-0.11	0.50	1.00	1.00	1.25	3.00	2.00	2.50	2.75	4.25	6.00	6.75	4.75	6.25	5.25	0.75	2.50	-0.147949	0.083008	1.034180	13.020000	36.330002	-3.780000	533.00	0.14	-0.07
3.31	0.00	0.00	0.00	0.00	0.00	0.00	0.75	0.00	0.00	4.25	5.75	3.50	0.00	0.00	0.00	4.00	-0.876465	0.119629	2.195312	127.330002	-387.450012	65.099998	175.00	0.23	-0.11	0.00	0.25	0.50	0.00	2.25	1.25	2.25	2.75	5.50	7.50	8.50	7.00	7.00	6.75	1.25	2.75	-0.250977	0.090332	0.977539	21.280001	47.950001	-3.780000	581.00	0.19	-0.07
3.32	0.00	0.00	0.00	0.00	0.00	0.00	0.75	0.00	0.00	4.50	5.75	3.75	0.00	0.00	0.00	4.25	-1.258789	0.237305	2.819336	150.639999	-359.239990	48.580002	181.00	0.23	-0.11	0.25	0.00	0.25	0.50	1.75	1.50	2.00	2.75	6.25	8.25	9.50	8.25	7.75	7.75	1.50	3.25	-0.210938	0.048828	1.040527	31.570000	67.410004	-2.730000	639.00	0.20	-0.08
3.33	0.00	0.00	0.00	0.00	0.00	0.00	0.75	0.00	0.00	4.50	5.50	3.75	0.00	0.00	0.00	4.00	-1.644043	0.547363	3.360352	181.300003	-358.750000	50.330002	177.00	0.23	-0.11	0.00	0.00	0.00	0.25	1.50	1.25	2.00	2.75	7.00	9.25	10.50	9.25	8.50	9.25	2.00	4.75	-0.192383	0.133789	1.106445	41.860001	90.019997	-3.150000	700.00	0.22	-0.08
3.34	0.00	0.00	0.00	0.00	0.00	0.00	0.75	0.00	0.00	4.25	5.75	3.50	0.00	0.00	0.00	4.25	-2.196289	0.724121	3.831543	216.649994	-374.500000	66.360001	176.00	0.23	-0.11	0.00	0.00	0.00	0.75	1.25	1.00	1.75	2.50	7.50	10.00	11.50	10.25	9.00	11.25	2.50	5.75	-0.201660	0.159668	1.034180	40.180000	109.830002	-5.320000	760.00	0.22	-0.07
3.35	0.00	0.00	0.00	0.00	0.00	0.00	0.75	0.00	0.00	4.25	5.50	3.50	0.00	0.00	0.00	4.25	-2.628418	0.623047	3.827148	228.199997	-401.730011	105.699997	173.00	0.23	-0.11	0.00	0.00	0.00	0.00	1.00	0.75	1.75	2.50	8.00	11.00	12.50	11.00	9.25	13.75	3.50	6.50	-0.229492	0.121094	1.068848	41.090000	125.930000	-9.310000	819.00	0.24	-0.07
3.36	0.00	0.00	0.00	0.00	0.00	0.00	0.75	0.00	0.00	4.25	5.50	3.50	0.00	0.00	0.00	4.25	-3.138184	-0.058105	3.964355	147.839996	-394.100006	160.160004	173.00	0.23	-0.11	0.00	0.00	0.00	0.00	0.75	0.75	1.50	2.25	8.25	11.50	13.50	12.00	9.75	16.75	5.00	7.50	-0.302246	0.148438	1.110840	45.709999	143.289993	-11.480000	890.00	0.25	-0.06
3.37	0.00	0.00	0.00	0.00	0.00	0.00	0.75	0.00	0.00	4.25	5.50	3.50	0.00	0.00	0.00	4.25	-4.158203	0.598633	2.840332	129.220001	-425.670013	206.289993	173.00	0.23	-0.11	0.00	0.00	0.00	0.50	0.50	0.75	1.25	1.75	8.50	12.00	14.25	12.50	9.75	19.75	6.00	8.25	-0.303711	0.160645	1.236328	44.170002	166.460007	-13.580000	943.00	0.26	-0.06
3.38	0.00	0.00	0.00	0.00	0.00	0.00	1.00	0.00	0.00	4.00	5.50	3.75	0.00	0.00	0.00	4.25	-4.916016	0.154785	2.566895	147.419998	-421.610016	248.919998	177.00	0.23	-0.11	0.00	0.00	0.00	0.00	0.25	0.00	1.00	1.50	8.75	12.25	14.75	13.00	9.50	23.00	7.00	8.75	-0.326172	0.188477	1.218750	36.330002	199.289993	-17.219999	974.00	0.27	-0.05
3.39	0.00	0.00	0.00	0.00	0.00	0.00	0.75	0.00	0.00	4.25	5.50	3.50	0.00	0.00	0.00	4.00	-5.250977	-0.362793	0.851074	141.539993	-374.779999	282.799988	172.00	0.23	-0.11	0.00	0.00	0.00	0.00	0.00	0.00	1.00	1.25	8.50	12.50	14.75	13.00	9.00	25.25	7.50	9.25	-0.401855	0.216309	1.202148	29.540001	244.649994	-23.730000	989.00	0.28	-0.04
3.40	0.00	0.00	0.00	0.00	0.00	0.00	0.75	0.00	0.00	4.25	5.75	3.75	0.00	0.00	0.00	4.00	-5.996094	-0.644043	-0.041016	87.150002	-300.510010	290.779999	177.00	0.23	-0.11	0.00	0.00	0.00	0.00	0.50	0.00	0.75	0.75	8.50	12.50	14.75	12.75	8.25	27.75	8.00	9.50	-0.442383	0.194824	1.385742	21.280001	282.660004	-28.700001	1002.00	0.28	-0.03
3.41	0.00	0.00	0.00	0.00	0.00	0.00	0.75	0.00	0.00	4.00	5.50	3.50	0.00	0.00	0.00	4.25	-6.444336	-0.703613	-0.685059	43.820000	-211.399994	268.239990	171.00	0.23	-0.11	0.00	0.00	0.00	0.00	0.00	0.00	0.75	0.50	8.00	12.00	14.50	12.50	7.50	29.25	8.75	10.00	-0.502441	0.153809	1.368164	15.680000	315.769989	-31.570000	993.00	0.29	-0.03
3.42	0.00	0.00	0.00	0.00	0.00	0.00	0.75	0.00	0.00	4.50	5.75	3.75	0.00	0.00	0.00	4.25	-6.309570	-0.792480	-1.046387	33.110001	-123.690002	215.389999	181.00	0.23	-0.11	0.00	0.00	0.00	0.00	0.00	0.00	0.75	0.25	8.00	11.75	14.00	12.00	6.50	30.75	8.50	9.75	-0.545898	0.130859	1.437012	11.690000	343.910004	-28.980000	976.00	0.30	-0.02
3.43	0.00	0.00	0.00	0.00	0.00	0.00	0.75	0.00	0.00	4.00	5.75	3.75	0.00	0.00	0.00	4.00	-6.041992	-0.952637	-0.621094	68.040001	-49.139999	150.080002	175.00	0.23	-0.12	0.00	0.00	0.00	0.00	0.25	0.00	0.75	0.00	7.50	11.50	13.50	11.50	5.50	31.75	8.50	9.50	-0.609375	0.099121	1.423340	12.320000	382.619995	-26.040001	954.00	0.30	-0.01
3.44	0.00	0.00	0.00	0.00	0.00	0.00	0.75	0.00	0.00	4.25	5.75	3.50	0.00	0.00	0.00	4.50	-5.688477	-1.212402	0.027344	92.959999	0.070000	85.680000	177.00	0.23	-0.11	0.00	0.00	0.00	0.00	0.00	0.00	0.75	0.00	7.00	11.00	13.00	10.50	4.50	31.25	8.25	9.25	-0.613281	0.096680	1.485352	9.170000	429.589996	-23.030001	907.00	0.30	-0.01
3.45	0.00	0.00	0.25	0.25	0.00	0.00	0.75	0.00	0.00	4.00	5.50	3.75	0.00	0.00	0.00	4.00	-5.011719	-1.066895	0.048340	61.810001	33.250000	35.980000	178.00	0.22	-0.11	0.00	0.00	0.00	0.00	0.00	0.00	0.75	0.00	6.25	10.75	12.25	10.00	3.00	30.25	8.00	8.25	-0.832031	0.544922	1.819824	7.000000	539.419983	-35.139999	851.00	0.31	-0.00
3.46	2.00	4.00	1.00	0.75	0.00	0.00	0.50	0.00	0.00	4.00	5.50	3.75	0.00	0.00	0.00	4.00	-4.504395	-2.208496	-1.871582	-52.009998	250.180008	41.720001	245.00	0.04	-0.10	0.00	0.00	0.00	0.00	0.00	0.00	0.75	0.00	5.75	9.75	10.75	8.75	2.50	28.00	7.00	7.00	-1.354980	0.543457	2.699707	27.090000	589.890015	-48.580002	765.00	0.31	0.01
3.47	11.50	16.25	3.25	4.25	0.00	0.00	0.50	0.00	0.00	4.00	5.75	4.00	0.00	0.00	0.00	4.00	-0.412109	0.064941	3.326172	-164.149994	423.220001	-3.500000	525.00	-0.18	-0.08	0.00	0.00	0.00	0.00	0.00	0.00	0.75	0.00	5.00	7.75	8.75	7.50	1.75	24.00	5.25	5.50	-1.857422	0.809082	3.745605	48.439999	631.400024	-61.180000	633.00	0.31	0.01
3.48	21.25	26.00	6.75	8.25	0.00	0.00	0.50	0.00	0.00	4.25	5.50	4.25	0.00	0.00	0.00	4.25	0.187988	-0.020020	2.991211	-70.910004	430.570007	36.049999	803.00	-0.24	-0.06	0.00	0.00	0.00	0.00	0.00	0.00	0.75	0.00	3.25	5.75	5.75	4.50	0.75	18.50	2.75	3.00	-1.958008	0.728027	4.250977	86.379997	658.770020	-71.959999	431.00	0.31	0.03
3.49	24.25	29.50	9.00	10.50	0.25	0.75	0.50	0.00	0.00	4.00	5.75	4.25	0.00	0.00	0.00	4.25	-2.251465	-1.554199	3.337891	-29.820000	482.790009	6.860000	927.00	-0.25	-0.06	0.00	0.00	0.00	0.00	0.00	0.00	1.00	0.00	2.25	3.25	3.25	2.50	0.50	12.25	1.25	1.25	-1.544434	0.520020	4.764648	111.650002	665.840027	-85.190002	267.00	0.31	0.06
3.50	27.25	30.75	11.25	14.00	0.75	2.50	0.50	0.00	0.00	4.00	5.75	4.75	0.00	0.00	0.00	4.00	-1.386719	-0.866211	5.194336	32.060001	455.000000	-40.110001	1061.00	-0.26	-0.07	0.00	0.00	0.00	0.00	0.00	0.00	1.00	0.00	1.25	2.50	2.25	1.50	0.50	7.00	0.75	0.25	-0.962402	0.666016	5.029785	108.010002	671.859985	-95.760002	170.00	0.29	0.06
3.51	25.50	29.00	12.00	15.50	1.50	4.50	0.75	0.25	0.00	4.00	5.75	4.25	0.00	0.00	0.00	4.50	-0.889648	0.991211	2.993652	44.099998	354.410004	-85.260002	1087.00	-0.25	-0.07	0.00	0.00	0.00	0.00	0.00	0.00	1.25	0.00	0.00	2.00	1.50	1.00	0.50	2.25	0.25	0.00	1.149902	1.080566	4.780762	139.300003	664.369995	-119.770004	92.00	0.24	0.02
3.52	24.25	27.50	13.25	16.00	2.00	7.00	0.75	0.50	0.00	4.00	6.00	4.50	0.25	0.00	0.00	4.25	-0.729492	1.551270	2.570312	26.320000	287.559998	-41.650002	1122.00	-0.24	-0.08	0.25	0.75	0.00	0.00	0.00	0.00	1.75	0.00	0.50	1.25	0.75	0.75	0.00	1.00	0.00	0.00	3.440918	0.150391	3.919922	171.009995	574.979980	-175.979996	80.00	0.12	0.08
3.53	22.75	27.00	13.00	16.50	2.50	8.00	1.00	1.00	0.00	4.00	6.00	4.25	0.25	0.00	0.00	4.25	-0.379883	-0.098145	1.594238	-40.459999	164.149994	-9.380000	1130.00	-0.23	-0.08	0.00	0.00	0.00	0.00	0.00	0.00	1.75	0.00	0.50	1.25	0.75	0.50	0.25	0.00	0.00	0.00	0.068848	2.752441	9.435547	135.869995	213.289993	-239.680008	61.00	0.17	0.09
3.54	22.25	26.50	13.75	17.25	3.00	9.00	1.00	1.50	0.00	4.00	6.25	4.50	0.25	0.00	0.00	4.25	-0.432617	0.459473	1.297363	-52.360001	113.330002	-10.640000	1166.00	-0.23	-0.09	0.00	0.00	0.00	0.00	0.00	0.00	1.75	0.00	0.25	1.25	0.50	0.00	0.00	0.50	0.00	0.00	2.478516	1.042480	5.823730	80.849998	-150.430008	-203.770004	52.00	0.17	0.16
3.55	22.00	26.00	13.75	17.00	3.75	9.50	1.25	1.75	0.00	4.25	6.25	4.75	0.50	0.00	0.00	4.25	-0.333008	0.109375	1.316406	-60.760002	84.000000	-1.610000	1185.00	-0.22	-0.09	0.00	0.00	0.00	0.00	0.25	0.00	1.75	0.00	0.00	0.75	0.25	0.00	0.00	0.25	0.00	0.00	1.211426	1.582031	3.197754	0.210000	-329.420013	-130.479996	42.00	0.00	0.00
3.56	21.50	25.50	13.50	16.75	4.25	9.25	1.25	1.75	0.00	4.25	6.50	4.50	0.25	0.00	0.00	4.25	-0.206543	0.005371	1.110840	-52.779999	61.529999	-2.870000	1170.00	-0.22	-0.09	0.00	0.00	0.00	0.00	0.00	0.00	1.75	0.00	0.25	0.25	0.00	0.00	0.00	0.75	0.00	0.00	1.010254	1.556641	2.455566	-55.090000	-359.100006	-61.389999	39.00	0.00	0.00
3.57	20.25	24.50	13.50	16.50	4.25	9.25	1.25	1.75	0.00	4.50	6.50	4.50	0.25	0.00	0.00	4.25	-0.239746	0.155273	1.087402	-42.560001	46.689999	-2.660000	1147.00	-0.21	-0.09	0.00	0.00	0.00	0.00	0.00	0.00	1.75	0.00	0.00	0.50	0.00	0.00	0.00	0.25	0.00	0.00	1.200684	1.510742	2.333984	-58.099998	-355.390015	-19.670000	34.00	0.00	0.00
3.58	20.75	24.50	13.00	16.00	4.50	9.25	1.25	1.75	0.00	4.25	6.50	4.25	0.25	0.00	0.00	4.25	-0.192383	0.082031	1.075684	-27.719999	32.480000	-0.140000	1139.00	-0.22	-0.09	0.00	0.00	0.00	0.00	0.00	0.00	1.75	0.00	0.00	0.50	0.00	0.00	0.25	0.25	0.00	0.00	1.164551	1.250000	2.418457	-23.309999	-393.750000	-9.030000	36.00	0.00	0.00
3.59	19.25	23.50	12.50	15.25	4.00	9.00	1.25	1.75	0.00	4.75	6.50	4.25	0.00	0.00	0.00	4.25	-0.146484	0.056152	0.996094	-12.740000	23.799999	-0.980000	1095.00	-0.21	-0.09	0.00	0.00	0.00	0.00	0.00	0.00	1.75	0.00	0.00	0.00	0.00	0.00	0.00	0.50	0.00	0.00	0.848633	0.858398	2.383301	37.380001	-458.429993	-13.930000	31.00	0.00	0.00
3.60	17.50	22.00	11.50	14.50	3.75	8.50	1.25	1.75	0.00	4.50	6.50	4.25	0.25	0.00	0.00	4.25	-0.167969	0.087891	1.000488	-0.840000	18.760000	-2.940000	1035.00	-0.20	-0.09	0.00	0.00	0.00	0.00	0.00	0.00	1.75	0.00	0.00	0.00	0.00	0.00	0.00	0.00	0.00	0.00	0.455566	0.360352	2.208984	94.220001	-517.510010	-21.840000	27.00	0.00	0.00
3.61	15.50	19.50	10.25	13.00	3.50	8.25	1.25	1.75	0.00	4.75	6.25	4.50	0.25	0.00	0.00	4.00	-0.087402	0.107910	0.863281	2.800000	18.410000	-5.180000	957.00	-0.19	-0.09	0.00	0.00	0.00	0.25	0.00	0.00	1.75	0.00	0.00	0.25	0.00	0.00	0.00	0.00	0.00	0.00	0.127930	-0.059082	2.018066	118.650002	-556.080017	-30.240000	32.00	0.00	0.00
3.62	13.00	16.75	9.25	11.50	3.25	7.75	1.00	1.75	0.00	4.50	6.50	4.50	0.25	0.00	0.00	4.25	-0.055176	0.136719	0.825195	-3.570000	27.020000	-8.540000	868.00	-0.18	-0.10	0.00	0.00	0.00	0.00	0.00	0.00	1.75	0.00	0.25	0.00	0.00	0.00	0.00	0.00	0.00	0.00	-0.127930	-0.279785	1.836426	109.129997	-575.890015	-38.080002	30.00	0.00	0.00
3.63	10.00	13.50	8.25	10.00	3.00	7.50	1.25	2.00	0.00	4.50	6.50	4.75	0.25	0.00	0.00	4.25	-0.077148	0.136230	0.820801	-14.560000	40.740002	-9.520000	784.00	-0.15	-0.10	0.00	0.00	0.00	0.00	0.00	0.00	1.75	0.00	0.00	0.00	0.00	0.00	0.00	0.00	0.00	0.00	-0.348633	-0.373047	1.622070	86.239998	-581.630005	-43.959999	27.00	0.00	0.00
3.64	8.50	10.75	7.50	8.75	2.75	7.00	1.25	2.00	0.00	4.50	6.75	4.75	0.50	0.00	0.00	4.25	-0.152832	0.117676	0.935059	-26.600000	53.830002	-9.310000	718.00	-0.13	-0.11	0.25	0.00	0.00	0.00	0.00	0.00	1.75	0.00	0.00	0.00	0.00	0.00	0.00	0.00	0.00	0.00	-0.542969	-0.334961	1.402832	68.879997	-572.109985	-47.529999	29.00	0.00	0.00
3.65	6.75	8.25	6.50	7.75	2.75	6.75	1.25	2.25	0.00	4.75	6.75	4.75	0.50	0.00	0.00	4.25	-0.213867	0.079590	1.083496	-33.810001	49.490002	-8.050000	658.00	-0.11	-0.11	0.00	0.00	0.00	0.00	0.00	0.00	1.75	0.00	0.00	0.00	0.00	0.00	0.00	0.00	0.00	0.00	-0.674316	-0.114746	1.364746	61.599998	-512.539978	-53.410000	27.00	0.00	0.00
3.66	5.25	6.50	5.75	6.75	2.50	6.25	1.25	2.50	0.00	5.00	7.00	4.75	1.00	0.00	0.00	4.25	-0.190918	0.090820	1.018066	-39.480000	36.119999	-7.700000	612.00	-0.08	-0.12	0.00	0.00	0.00	0.00	0.00	0.00	1.75	0.00	0.00	0.00	0.00	0.00	0.00	0.00	0.00	0.00	-0.647949	0.049805	1.678223	66.989998	-483.630005	-51.170002	27.00	0.00	0.00
